key_resp.keys,key_resp.rt,key_resp_14.keys,key_resp_14.rt,key_resp_15.keys,key_resp_15.rt,key_resp_17.keys,key_resp_17.rt,key_resp_9.keys,key_resp_9.rt,key_resp_10.keys,key_resp_10.rt,practice_comparison,Ecc,mouse_5.x,mouse_5.y,mouse_5.leftButton,mouse_5.midButton,mouse_5.rightButton,mouse_5.clicked_name,pracsimilarity,response_time,mouse_10.x,mouse_10.y,mouse_10.leftButton,mouse_10.midButton,mouse_10.rightButton,mouse_10.clicked_name,mouse_7.x,mouse_7.y,mouse_7.leftButton,mouse_7.midButton,mouse_7.rightButton,mouse_6.x,mouse_6.y,mouse_6.leftButton,mouse_6.midButton,mouse_6.rightButton,duringprac.thisRepN,duringprac.thisTrialN,duringprac.thisN,duringprac.thisIndex,duringprac.ran,participant,session,date,expName,psychopyVersion,OS,frameRate,study_id,mouse_7.clicked_name,catchpracsimilarity,catch_response_time,catchnumberprac,catchtrialorderprac,mouse_6.clicked_name,key_resp_22.keys,key_resp_22.rt,realcomparison,mouse.x,mouse.y,mouse.leftButton,mouse.midButton,mouse.rightButton,mouse.clicked_name,Colour2,similarity,mouse_2.x,mouse_2.y,mouse_2.leftButton,mouse_2.midButton,mouse_2.rightButton,mouse_2.clicked_name,mouse_3.x,mouse_3.y,mouse_3.leftButton,mouse_3.midButton,mouse_3.rightButton,mouse_11.x,mouse_11.y,mouse_11.leftButton,mouse_11.midButton,mouse_11.rightButton,trials_2.thisRepN,trials_2.thisTrialN,trials_2.thisN,trials_2.thisIndex,trials_2.ran,Colour1,mouse_3.clicked_name,catchornah,catchsimilarity,catchnumber,catchtrialorder,catchRT,mouse_11.clicked_name
space,7.49,space,2.413,space,17.601,space,8.606,space,1.512,space,5.537,17,PF,36,86,1,0,0,response1disk_5,7,9.685,-6,6,1,0,0,rectangle_8,-6,6,1,0,0,-6,6,1,0,0,0,0,0,4,1,60ff6d15b88e2391dbaede06,61036d9e236ad4ffc5587c8c,2021-07-29_22h11.09.989,Simcolourproject_2stim_asymm_v5,2020.2.10,MacIntel,60,61025ae37ef11b136ea224fe,,,,,,,,,,,,,,,,,,,,,,,,,,,,,,,,,,,,,,,,,,,,,,
,,,,,,,,,,,,10,PF,53,34,1,0,0,response1disk_5,6,6.85,7,-2,1,0,0,rectangle_8,-91,38,1,0,0,12,-5,1,0,0,0,1,1,1,1,60ff6d15b88e2391dbaede06,61036d9e236ad4ffc5587c8c,2021-07-29_22h11.09.989,Simcolourproject_2stim_asymm_v5,2020.2.10,MacIntel,60,61025ae37ef11b136ea224fe,response7disk_7,1,3,1,"[2,5]",rectangle_4,,,,,,,,,,,,,,,,,,,,,,,,,,,,,,,,,,,,,,,,
,,,,,,,,,,,,12,FF,34,79,1,0,0,response1disk_5,7,4.533,15,-11,1,0,0,rectangle_8,15,-11,1,0,0,15,-11,1,0,0,0,2,2,0,1,60ff6d15b88e2391dbaede06,61036d9e236ad4ffc5587c8c,2021-07-29_22h11.09.989,Simcolourproject_2stim_asymm_v5,2020.2.10,MacIntel,60,61025ae37ef11b136ea224fe,,,,,,,,,,,,,,,,,,,,,,,,,,,,,,,,,,,,,,,,,,,,,,
,,,,,,,,,,,,130,FF,24,-51,1,0,0,response3disk_5,4,1.249,-6,-3,1,0,0,rectangle_8,-6,-3,1,0,0,-6,-3,1,0,0,0,3,3,3,1,60ff6d15b88e2391dbaede06,61036d9e236ad4ffc5587c8c,2021-07-29_22h11.09.989,Simcolourproject_2stim_asymm_v5,2020.2.10,MacIntel,60,61025ae37ef11b136ea224fe,,,,,,,,,,,,,,,,,,,,,,,,,,,,,,,,,,,,,,,,,,,,,,
,,,,,,,,,,,,125,PF,35,71,1,0,0,response1disk_5,7,1.599,8,2,1,0,0,rectangle_8,-76,47,1,0,0,2,5,1,0,0,0,4,4,2,1,60ff6d15b88e2391dbaede06,61036d9e236ad4ffc5587c8c,2021-07-29_22h11.09.989,Simcolourproject_2stim_asymm_v5,2020.2.10,MacIntel,60,61025ae37ef11b136ea224fe,response7disk_7,1,1.55,1,"[2,5]",rectangle_4,,,,,,,,,,,,,,,,,,,,,,,,,,,,,,,,,,,,,,,,
,,,,,,,,,,,,100,PF,23,-36,1,0,0,response3disk_5,4,1.317,-6,2,1,0,0,rectangle_8,-6,2,1,0,0,-6,2,1,0,0,0,5,5,6,1,60ff6d15b88e2391dbaede06,61036d9e236ad4ffc5587c8c,2021-07-29_22h11.09.989,Simcolourproject_2stim_asymm_v5,2020.2.10,MacIntel,60,61025ae37ef11b136ea224fe,,,,,,,,,,,,,,,,,,,,,,,,,,,,,,,,,,,,,,,,,,,,,,
,,,,,,,,,,,,142,FF,62,-28,1,0,0,response3disk_5,5,2.299,2,-6,1,0,0,rectangle_8,2,-6,1,0,0,2,-6,1,0,0,0,6,6,5,1,60ff6d15b88e2391dbaede06,61036d9e236ad4ffc5587c8c,2021-07-29_22h11.09.989,Simcolourproject_2stim_asymm_v5,2020.2.10,MacIntel,60,61025ae37ef11b136ea224fe,,,,,,,,,,,,,,,,,,,,,,,,,,,,,,,,,,,,,,,,,,,,,,
,,,,,,,,,,,,,FF,,,,,,,,2.433,,,,,,,,,,,,,,,,,,,,,,60ff6d15b88e2391dbaede06,61036d9e236ad4ffc5587c8c,2021-07-29_22h11.09.989,Simcolourproject_2stim_asymm_v5,2020.2.10,MacIntel,60,61025ae37ef11b136ea224fe,,,,,,,space,17.325,3904,-19,-54,1,0,0,response5disk,,3,-7,-2,1,0,0,rectangle,-7,-2,1,0,0,-7,-2,1,0,0,0,0,0,139,1,,,,,,,,
,,,,,,,,,,,,,FF,,,,,,,,1.65,,,,,,,,,,,,,,,,,,,,,,60ff6d15b88e2391dbaede06,61036d9e236ad4ffc5587c8c,2021-07-29_22h11.09.989,Simcolourproject_2stim_asymm_v5,2020.2.10,MacIntel,60,61025ae37ef11b136ea224fe,,,,,,,,,1953,-31,-45,1,0,0,response5disk,,3,-15,-13,1,0,0,rectangle,-15,-13,1,0,0,-15,-13,1,0,0,0,1,1,90,1,,,,,,,,
,,,,,,,,,,,,,FF,,,,,,,,1.199,,,,,,,,,,,,,,,,,,,,,,60ff6d15b88e2391dbaede06,61036d9e236ad4ffc5587c8c,2021-07-29_22h11.09.989,Simcolourproject_2stim_asymm_v5,2020.2.10,MacIntel,60,61025ae37ef11b136ea224fe,,,,,,,,,2072,67,-22,1,0,0,response3disk,,5,12,2,1,0,0,rectangle,12,2,1,0,0,12,2,1,0,0,0,2,2,59,1,,,,,,,,
,,,,,,,,,,,,,FF,,,,,,,,1.133,,,,,,,,,,,,,,,,,,,,,,60ff6d15b88e2391dbaede06,61036d9e236ad4ffc5587c8c,2021-07-29_22h11.09.989,Simcolourproject_2stim_asymm_v5,2020.2.10,MacIntel,60,61025ae37ef11b136ea224fe,,,,,,,,,3994,-63,-29,1,0,0,response5disk,,2,1,4,1,0,0,rectangle,1,4,1,0,0,1,4,1,0,0,0,3,3,42,1,,,,,,,,
,,,,,,,,,,,,,FF,,,,,,,,1.265,,,,,,,,,,,,,,,,,,,,,,60ff6d15b88e2391dbaede06,61036d9e236ad4ffc5587c8c,2021-07-29_22h11.09.989,Simcolourproject_2stim_asymm_v5,2020.2.10,MacIntel,60,61025ae37ef11b136ea224fe,,,,,,,,,3443,56,35,1,0,0,response1disk,,6,15,8,1,0,0,rectangle,15,8,1,0,0,15,8,1,0,0,0,4,4,46,1,,,,,,,,
,,,,,,,,,,,,,FF,,,,,,,,1.367,,,,,,,,,,,,,,,,,,,,,,60ff6d15b88e2391dbaede06,61036d9e236ad4ffc5587c8c,2021-07-29_22h11.09.989,Simcolourproject_2stim_asymm_v5,2020.2.10,MacIntel,60,61025ae37ef11b136ea224fe,,,,,,,,,3971,-67,37,1,0,0,response7disk,,1,-17,2,1,0,0,rectangle,-17,2,1,0,0,-17,2,1,0,0,0,5,5,89,1,,,,,,,,
,,,,,,,,,,,,,FF,,,,,,,,1.351,,,,,,,,,,,,,,,,,,,,,,60ff6d15b88e2391dbaede06,61036d9e236ad4ffc5587c8c,2021-07-29_22h11.09.989,Simcolourproject_2stim_asymm_v5,2020.2.10,MacIntel,60,61025ae37ef11b136ea224fe,,,,,,,,,2276,65,-26,1,0,0,response3disk,,5,11,2,1,0,0,rectangle,11,2,1,0,0,11,2,1,0,0,0,6,6,35,1,,,,,,,,
,,,,,,,,,,,,,FF,,,,,,,,1.083,,,,,,,,,,,,,,,,,,,,,,60ff6d15b88e2391dbaede06,61036d9e236ad4ffc5587c8c,2021-07-29_22h11.09.989,Simcolourproject_2stim_asymm_v5,2020.2.10,MacIntel,60,61025ae37ef11b136ea224fe,,,,,,,,,1601,-56,-27,1,0,0,response5disk,,2,2,0,1,0,0,rectangle,2,0,1,0,0,2,0,1,0,0,0,7,7,83,1,,,,,,,,
,,,,,,,,,,,,,FF,,,,,,,,1,,,,,,,,,,,,,,,,,,,,,,60ff6d15b88e2391dbaede06,61036d9e236ad4ffc5587c8c,2021-07-29_22h11.09.989,Simcolourproject_2stim_asymm_v5,2020.2.10,MacIntel,60,61025ae37ef11b136ea224fe,,,,,,,,,62,50,-56,1,0,0,response3disk,,4,-3,-1,1,0,0,rectangle,-3,-1,1,0,0,-3,-1,1,0,0,0,8,8,74,1,,,,,,,,
,,,,,,,,,,,,,FF,,,,,,,,0.833,,,,,,,,,,,,,,,,,,,,,,60ff6d15b88e2391dbaede06,61036d9e236ad4ffc5587c8c,2021-07-29_22h11.09.989,Simcolourproject_2stim_asymm_v5,2020.2.10,MacIntel,60,61025ae37ef11b136ea224fe,,,,,,,,,1147,61,27,1,0,0,response1disk,,6,14,9,1,0,0,rectangle,14,9,1,0,0,14,9,1,0,0,0,9,9,112,1,,,,,,,,
,,,,,,,,,,,,,FF,,,,,,,,1.65,,,,,,,,,,,,,,,,,,,,,,60ff6d15b88e2391dbaede06,61036d9e236ad4ffc5587c8c,2021-07-29_22h11.09.989,Simcolourproject_2stim_asymm_v5,2020.2.10,MacIntel,60,61025ae37ef11b136ea224fe,,,,,,,,,418,55,22,1,0,0,response1disk,,6,13,6,1,0,0,rectangle,13,6,1,0,0,13,6,1,0,0,0,10,10,91,1,,,,,,,,
,,,,,,,,,,,,,FF,,,,,,,,0.766,,,,,,,,,,,,,,,,,,,,,,60ff6d15b88e2391dbaede06,61036d9e236ad4ffc5587c8c,2021-07-29_22h11.09.989,Simcolourproject_2stim_asymm_v5,2020.2.10,MacIntel,60,61025ae37ef11b136ea224fe,,,,,,,,,617,-35,-50,1,0,0,response5disk,,3,-16,-16,1,0,0,rectangle,-16,-16,1,0,0,-16,-16,1,0,0,0,11,11,57,1,,,,,,,,
,,,,,,,,,,,,,FF,,,,,,,,0.717,,,,,,,,,,,,,,,,,,,,,,60ff6d15b88e2391dbaede06,61036d9e236ad4ffc5587c8c,2021-07-29_22h11.09.989,Simcolourproject_2stim_asymm_v5,2020.2.10,MacIntel,60,61025ae37ef11b136ea224fe,,,,,,,,,2183,56,-35,1,0,0,response3disk,,5,21,-4,1,0,0,rectangle,21,-4,1,0,0,21,-4,1,0,0,0,12,12,106,1,,,,,,,,
,,,,,,,,,,,,,FF,,,,,,,,0.816,,,,,,,,,,,,,,,,,,,,,,60ff6d15b88e2391dbaede06,61036d9e236ad4ffc5587c8c,2021-07-29_22h11.09.989,Simcolourproject_2stim_asymm_v5,2020.2.10,MacIntel,60,61025ae37ef11b136ea224fe,,,,,,,,,1458,31,-45,1,0,0,response3disk,,4,7,-9,1,0,0,rectangle,7,-9,1,0,0,7,-9,1,0,0,0,13,13,140,1,,,,,,,,
,,,,,,,,,,,,,FF,,,,,,,,0.884,,,,,,,,,,,,,,,,,,,,,,60ff6d15b88e2391dbaede06,61036d9e236ad4ffc5587c8c,2021-07-29_22h11.09.989,Simcolourproject_2stim_asymm_v5,2020.2.10,MacIntel,60,61025ae37ef11b136ea224fe,,,,,,,,,4255,-25,-51,1,0,0,response5disk,,3,-11,3,1,0,0,rectangle,-11,3,1,0,0,-11,3,1,0,0,0,14,14,98,1,,,,,,,,
,,,,,,,,,,,,,FF,,,,,,,,0.818,,,,,,,,,,,,,,,,,,,,,,60ff6d15b88e2391dbaede06,61036d9e236ad4ffc5587c8c,2021-07-29_22h11.09.989,Simcolourproject_2stim_asymm_v5,2020.2.10,MacIntel,60,61025ae37ef11b136ea224fe,,,,,,,,,1821,-46,-26,1,0,0,response5disk,,2,-16,-4,1,0,0,rectangle,-16,-4,1,0,0,-16,-4,1,0,0,0,15,15,67,1,,,,,,,,
,,,,,,,,,,,,,FF,,,,,,,,0.583,,,,,,,,,,,,,,,,,,,,,,60ff6d15b88e2391dbaede06,61036d9e236ad4ffc5587c8c,2021-07-29_22h11.09.989,Simcolourproject_2stim_asymm_v5,2020.2.10,MacIntel,60,61025ae37ef11b136ea224fe,,,,,,,,,1218,-45,22,1,0,0,response7disk,,1,-1,2,1,0,0,rectangle,-1,2,1,0,0,-1,2,1,0,0,0,16,16,134,1,,,,,,,,
,,,,,,,,,,,,,FF,,,,,,,,0.699,,,,,,,,,,,,,,,,,,,,,,60ff6d15b88e2391dbaede06,61036d9e236ad4ffc5587c8c,2021-07-29_22h11.09.989,Simcolourproject_2stim_asymm_v5,2020.2.10,MacIntel,60,61025ae37ef11b136ea224fe,,,,,,,,,1503,75,43,1,0,0,response1disk,,6,15,-8,1,0,0,rectangle,15,-8,1,0,0,15,-8,1,0,0,0,17,17,125,1,,,,,,,,
,,,,,,,,,,,,,FF,,,,,,,,1.401,,,,,,,,,,,,,,,,,,,,,,60ff6d15b88e2391dbaede06,61036d9e236ad4ffc5587c8c,2021-07-29_22h11.09.989,Simcolourproject_2stim_asymm_v5,2020.2.10,MacIntel,60,61025ae37ef11b136ea224fe,,,,,,,,,1526,-51,-26,1,0,0,response5disk,,2,-13,-3,1,0,0,rectangle,-13,-3,1,0,0,-13,-3,1,0,0,0,18,18,49,1,,,,,,,,
,,,,,,,,,,,,,FF,,,,,,,,0.833,,,,,,,,,,,,,,,,,,,,,,60ff6d15b88e2391dbaede06,61036d9e236ad4ffc5587c8c,2021-07-29_22h11.09.989,Simcolourproject_2stim_asymm_v5,2020.2.10,MacIntel,60,61025ae37ef11b136ea224fe,,,,,,,,,1310,26,-71,1,0,0,response3disk,,4,-1,-4,1,0,0,rectangle,-1,-4,1,0,0,-1,-4,1,0,0,0,19,19,102,1,,,,,,,,
,,,,,,,,,,,,,FF,,,,,,,,1.534,,,,,,,,,,,,,,,,,,,,,,60ff6d15b88e2391dbaede06,61036d9e236ad4ffc5587c8c,2021-07-29_22h11.09.989,Simcolourproject_2stim_asymm_v5,2020.2.10,MacIntel,60,61025ae37ef11b136ea224fe,,,,,,,,,3219,51,35,1,0,0,response1disk,,6,9,-2,1,0,0,rectangle,9,-2,1,0,0,9,-2,1,0,0,0,20,20,147,1,,,,,,,,
,,,,,,,,,,,,,FF,,,,,,,,0.734,,,,,,,,,,,,,,,,,,,,,,60ff6d15b88e2391dbaede06,61036d9e236ad4ffc5587c8c,2021-07-29_22h11.09.989,Simcolourproject_2stim_asymm_v5,2020.2.10,MacIntel,60,61025ae37ef11b136ea224fe,,,,,,,,,3843,-68,39,1,0,0,response7disk,,1,-7,-1,1,0,0,rectangle,-7,-1,1,0,0,-7,-1,1,0,0,0,21,21,56,1,,,,,,,,
,,,,,,,,,,,,,FF,,,,,,,,1.116,,,,,,,,,,,,,,,,,,,,,,60ff6d15b88e2391dbaede06,61036d9e236ad4ffc5587c8c,2021-07-29_22h11.09.989,Simcolourproject_2stim_asymm_v5,2020.2.10,MacIntel,60,61025ae37ef11b136ea224fe,,,,,,,,,2651,-42,-58,1,0,0,response5disk,,3,11,-10,1,0,0,rectangle,11,-10,1,0,0,11,-10,1,0,0,0,22,22,97,1,,,,,,,,
,,,,,,,,,,,,,FF,,,,,,,,0.949,,,,,,,,,,,,,,,,,,,,,,60ff6d15b88e2391dbaede06,61036d9e236ad4ffc5587c8c,2021-07-29_22h11.09.989,Simcolourproject_2stim_asymm_v5,2020.2.10,MacIntel,60,61025ae37ef11b136ea224fe,,,,,,,,,2099,-64,29,1,0,0,response7disk,,1,-17,4,1,0,0,rectangle,-17,4,1,0,0,-17,4,1,0,0,0,23,23,126,1,,,,,,,,
,,,,,,,,,,,,,FF,,,,,,,,0.833,,,,,,,,,,,,,,,,,,,,,,60ff6d15b88e2391dbaede06,61036d9e236ad4ffc5587c8c,2021-07-29_22h11.09.989,Simcolourproject_2stim_asymm_v5,2020.2.10,MacIntel,60,61025ae37ef11b136ea224fe,,,,,,,,,1670,-33,65,1,0,0,response7disk,,0,6,-1,1,0,0,rectangle,6,-1,1,0,0,6,-1,1,0,0,0,24,24,144,1,,,,,,,,
,,,,,,,,,,,,,FF,,,,,,,,0.634,,,,,,,,,,,,,,,,,,,,,,60ff6d15b88e2391dbaede06,61036d9e236ad4ffc5587c8c,2021-07-29_22h11.09.989,Simcolourproject_2stim_asymm_v5,2020.2.10,MacIntel,60,61025ae37ef11b136ea224fe,,,,,,,,,3744,-55,31,1,0,0,response7disk,,1,-6,-7,1,0,0,rectangle,-6,-7,1,0,0,-6,-7,1,0,0,0,25,25,16,1,,,,,,,,
,,,,,,,,,,,,,FF,,,,,,,,0.783,,,,,,,,,,,,,,,,,,,,,,60ff6d15b88e2391dbaede06,61036d9e236ad4ffc5587c8c,2021-07-29_22h11.09.989,Simcolourproject_2stim_asymm_v5,2020.2.10,MacIntel,60,61025ae37ef11b136ea224fe,,,,,,,,,1545,37,-76,1,0,0,response3disk,,4,11,-9,1,0,0,rectangle,11,-9,1,0,0,11,-9,1,0,0,0,26,26,3,1,,,,,,,,
,,,,,,,,,,,,,FF,,,,,,,,0.682,,,,,,,,,,,,,,,,,,,,,,60ff6d15b88e2391dbaede06,61036d9e236ad4ffc5587c8c,2021-07-29_22h11.09.989,Simcolourproject_2stim_asymm_v5,2020.2.10,MacIntel,60,61025ae37ef11b136ea224fe,,,,,,,,,976,65,32,1,0,0,response1disk,,6,-6,2,1,0,0,rectangle,-6,2,1,0,0,-6,2,1,0,0,0,27,27,48,1,,,,,,,,
,,,,,,,,,,,,,FF,,,,,,,,1.2,,,,,,,,,,,,,,,,,,,,,,60ff6d15b88e2391dbaede06,61036d9e236ad4ffc5587c8c,2021-07-29_22h11.09.989,Simcolourproject_2stim_asymm_v5,2020.2.10,MacIntel,60,61025ae37ef11b136ea224fe,,,,,,,,,3113,56,-69,1,0,0,response3disk,,4,23,-15,1,0,0,rectangle,23,-15,1,0,0,23,-15,1,0,0,0,28,28,107,1,,,,,,,,
,,,,,,,,,,,,,FF,,,,,,,,0.766,,,,,,,,,,,,,,,,,,,,,,60ff6d15b88e2391dbaede06,61036d9e236ad4ffc5587c8c,2021-07-29_22h11.09.989,Simcolourproject_2stim_asymm_v5,2020.2.10,MacIntel,60,61025ae37ef11b136ea224fe,,,,,,,,,3854,58,-26,1,0,0,response3disk,,5,27,-1,1,0,0,rectangle,27,-1,1,0,0,27,-1,1,0,0,0,29,29,1,1,,,,,,,,
,,,,,,,,,,,,,FF,,,,,,,,0.917,,,,,,,,,,,,,,,,,,,,,,60ff6d15b88e2391dbaede06,61036d9e236ad4ffc5587c8c,2021-07-29_22h11.09.989,Simcolourproject_2stim_asymm_v5,2020.2.10,MacIntel,60,61025ae37ef11b136ea224fe,,,,,,,,,943,79,44,1,0,0,response1disk,,6,10,0,1,0,0,rectangle,10,0,1,0,0,10,0,1,0,0,0,30,30,129,1,,,,,,,,
,,,,,,,,,,,,,FF,,,,,,,,1.25,,,,,,,,,,,,,,,,,,,,,,60ff6d15b88e2391dbaede06,61036d9e236ad4ffc5587c8c,2021-07-29_22h11.09.989,Simcolourproject_2stim_asymm_v5,2020.2.10,MacIntel,60,61025ae37ef11b136ea224fe,,,,,,,,,414,64,31,1,0,0,response1disk,,6,15,-5,1,0,0,rectangle,15,-5,1,0,0,15,-5,1,0,0,0,31,31,65,1,,,,,,,,
,,,,,,,,,,,,,FF,,,,,,,,0.75,,,,,,,,,,,,,,,,,,,,,,60ff6d15b88e2391dbaede06,61036d9e236ad4ffc5587c8c,2021-07-29_22h11.09.989,Simcolourproject_2stim_asymm_v5,2020.2.10,MacIntel,60,61025ae37ef11b136ea224fe,,,,,,,,,2625,47,-64,1,0,0,response3disk,,4,2,-8,1,0,0,rectangle,2,-8,1,0,0,2,-8,1,0,0,0,32,32,21,1,,,,,,,,
,,,,,,,,,,,,,FF,,,,,,,,0.834,,,,,,,,,,,,,,,,,,,,,,60ff6d15b88e2391dbaede06,61036d9e236ad4ffc5587c8c,2021-07-29_22h11.09.989,Simcolourproject_2stim_asymm_v5,2020.2.10,MacIntel,60,61025ae37ef11b136ea224fe,,,,,,,,,4127,-25,-56,1,0,0,response5disk,,3,-23,-1,1,0,0,rectangle,-23,-1,1,0,0,-23,-1,1,0,0,0,33,33,8,1,,,,,,,,
,,,,,,,,,,,,,FF,,,,,,,,3.55,,,,,,,,,,,,,,,,,,,,,,60ff6d15b88e2391dbaede06,61036d9e236ad4ffc5587c8c,2021-07-29_22h11.09.989,Simcolourproject_2stim_asymm_v5,2020.2.10,MacIntel,60,61025ae37ef11b136ea224fe,,,,,,,,,1052,-30,-47,1,0,0,response5disk,,3,-21,-12,1,0,0,rectangle,-21,-12,1,0,0,-21,-12,1,0,0,0,34,34,34,1,,,,,,,,
,,,,,,,,,,,,,FF,,,,,,,,0.733,,,,,,,,,,,,,,,,,,,,,,60ff6d15b88e2391dbaede06,61036d9e236ad4ffc5587c8c,2021-07-29_22h11.09.989,Simcolourproject_2stim_asymm_v5,2020.2.10,MacIntel,60,61025ae37ef11b136ea224fe,,,,,,,,,3970,-21,-50,1,0,0,response5disk,,3,-6,-6,1,0,0,rectangle,-6,-6,1,0,0,-6,-6,1,0,0,0,35,35,92,1,,,,,,,,
,,,,,,,,,,,,,FF,,,,,,,,0.998,,,,,,,,,,,,,,,,,,,,,,60ff6d15b88e2391dbaede06,61036d9e236ad4ffc5587c8c,2021-07-29_22h11.09.989,Simcolourproject_2stim_asymm_v5,2020.2.10,MacIntel,60,61025ae37ef11b136ea224fe,,,,,,,,,237,38,-41,1,0,0,response3disk,,4,13,1,1,0,0,rectangle,13,1,1,0,0,13,1,1,0,0,0,36,36,158,1,,,,,,,,
,,,,,,,,,,,,,FF,,,,,,,,0.666,,,,,,,,,,,,,,,,,,,,,,60ff6d15b88e2391dbaede06,61036d9e236ad4ffc5587c8c,2021-07-29_22h11.09.989,Simcolourproject_2stim_asymm_v5,2020.2.10,MacIntel,60,61025ae37ef11b136ea224fe,,,,,,,,,4134,-24,-49,1,0,0,response5disk,,3,-9,-12,1,0,0,rectangle,-9,-12,1,0,0,-9,-12,1,0,0,0,37,37,121,1,,,,,,,,
,,,,,,,,,,,,,FF,,,,,,,,0.733,,,,,,,,,,,,,,,,,,,,,,60ff6d15b88e2391dbaede06,61036d9e236ad4ffc5587c8c,2021-07-29_22h11.09.989,Simcolourproject_2stim_asymm_v5,2020.2.10,MacIntel,60,61025ae37ef11b136ea224fe,,,,,,,,,2987,-70,-33,1,0,0,response5disk,,2,-12,4,1,0,0,rectangle,-12,4,1,0,0,-12,4,1,0,0,0,38,38,82,1,,,,,,,,
,,,,,,,,,,,,,FF,,,,,,,,0.567,,,,,,,,,,,,,,,,,,,,,,60ff6d15b88e2391dbaede06,61036d9e236ad4ffc5587c8c,2021-07-29_22h11.09.989,Simcolourproject_2stim_asymm_v5,2020.2.10,MacIntel,60,61025ae37ef11b136ea224fe,,,,,,,,,2208,55,22,1,0,0,response1disk,,6,11,6,1,0,0,rectangle,-85,-31,1,0,0,-3,-17,1,0,0,0,39,39,70,1,,response5disk_3,TRUE,2,2,"[260,152,322,53,40,302,278,95,124,220,166,146,240,208,184,113,51,296,105,169]",2.866,rectangle
,,,,,,,,,,,,,FF,,,,,,,,0.765,,,,,,,,,,,,,,,,,,,,,,60ff6d15b88e2391dbaede06,61036d9e236ad4ffc5587c8c,2021-07-29_22h11.09.989,Simcolourproject_2stim_asymm_v5,2020.2.10,MacIntel,60,61025ae37ef11b136ea224fe,,,,,,,,,3577,32,-56,1,0,0,response3disk,,4,9,-10,1,0,0,rectangle,9,-10,1,0,0,9,-10,1,0,0,0,40,40,40,1,,,,,,,,
,,,,,,,,,,,,,FF,,,,,,,,0.784,,,,,,,,,,,,,,,,,,,,,,60ff6d15b88e2391dbaede06,61036d9e236ad4ffc5587c8c,2021-07-29_22h11.09.989,Simcolourproject_2stim_asymm_v5,2020.2.10,MacIntel,60,61025ae37ef11b136ea224fe,,,,,,,,,870,-35,-63,1,0,0,response5disk,,3,-4,-8,1,0,0,rectangle,-4,-8,1,0,0,-4,-8,1,0,0,0,41,41,30,1,,,,,,,,
,,,,,,,,,,,,,FF,,,,,,,,1.049,,,,,,,,,,,,,,,,,,,,,,60ff6d15b88e2391dbaede06,61036d9e236ad4ffc5587c8c,2021-07-29_22h11.09.989,Simcolourproject_2stim_asymm_v5,2020.2.10,MacIntel,60,61025ae37ef11b136ea224fe,,,,,,,,,3382,-61,45,1,0,0,response7disk,,1,-2,-3,1,0,0,rectangle,-2,-3,1,0,0,-2,-3,1,0,0,0,42,42,157,1,,,,,,,,
,,,,,,,,,,,,,FF,,,,,,,,1.1,,,,,,,,,,,,,,,,,,,,,,60ff6d15b88e2391dbaede06,61036d9e236ad4ffc5587c8c,2021-07-29_22h11.09.989,Simcolourproject_2stim_asymm_v5,2020.2.10,MacIntel,60,61025ae37ef11b136ea224fe,,,,,,,,,2939,30,81,1,0,0,response1disk,,7,4,-3,1,0,0,rectangle,4,-3,1,0,0,4,-3,1,0,0,0,43,43,64,1,,,,,,,,
,,,,,,,,,,,,,FF,,,,,,,,1.251,,,,,,,,,,,,,,,,,,,,,,60ff6d15b88e2391dbaede06,61036d9e236ad4ffc5587c8c,2021-07-29_22h11.09.989,Simcolourproject_2stim_asymm_v5,2020.2.10,MacIntel,60,61025ae37ef11b136ea224fe,,,,,,,,,2191,78,33,1,0,0,response1disk,,6,-1,1,1,0,0,rectangle,-1,1,1,0,0,-1,1,1,0,0,0,44,44,47,1,,,,,,,,
,,,,,,,,,,,,,FF,,,,,,,,0.95,,,,,,,,,,,,,,,,,,,,,,60ff6d15b88e2391dbaede06,61036d9e236ad4ffc5587c8c,2021-07-29_22h11.09.989,Simcolourproject_2stim_asymm_v5,2020.2.10,MacIntel,60,61025ae37ef11b136ea224fe,,,,,,,,,738,25,-52,1,0,0,response3disk,,4,-2,7,1,0,0,rectangle,-2,7,1,0,0,-2,7,1,0,0,0,45,45,154,1,,,,,,,,
,,,,,,,,,,,,,FF,,,,,,,,1.633,,,,,,,,,,,,,,,,,,,,,,60ff6d15b88e2391dbaede06,61036d9e236ad4ffc5587c8c,2021-07-29_22h11.09.989,Simcolourproject_2stim_asymm_v5,2020.2.10,MacIntel,60,61025ae37ef11b136ea224fe,,,,,,,,,880,60,83,1,0,0,response1disk,,7,15,15,1,0,0,rectangle,15,15,1,0,0,15,15,1,0,0,0,46,46,130,1,,,,,,,,
,,,,,,,,,,,,,FF,,,,,,,,0.816,,,,,,,,,,,,,,,,,,,,,,60ff6d15b88e2391dbaede06,61036d9e236ad4ffc5587c8c,2021-07-29_22h11.09.989,Simcolourproject_2stim_asymm_v5,2020.2.10,MacIntel,60,61025ae37ef11b136ea224fe,,,,,,,,,3261,65,-23,1,0,0,response3disk,,5,21,-6,1,0,0,rectangle,21,-6,1,0,0,21,-6,1,0,0,0,47,47,127,1,,,,,,,,
,,,,,,,,,,,,,FF,,,,,,,,0.915,,,,,,,,,,,,,,,,,,,,,,60ff6d15b88e2391dbaede06,61036d9e236ad4ffc5587c8c,2021-07-29_22h11.09.989,Simcolourproject_2stim_asymm_v5,2020.2.10,MacIntel,60,61025ae37ef11b136ea224fe,,,,,,,,,2494,45,-37,1,0,0,response3disk,,5,10,-2,1,0,0,rectangle,10,-2,1,0,0,10,-2,1,0,0,0,48,48,87,1,,,,,,,,
,,,,,,,,,,,,,FF,,,,,,,,0.566,,,,,,,,,,,,,,,,,,,,,,60ff6d15b88e2391dbaede06,61036d9e236ad4ffc5587c8c,2021-07-29_22h11.09.989,Simcolourproject_2stim_asymm_v5,2020.2.10,MacIntel,60,61025ae37ef11b136ea224fe,,,,,,,,,2502,58,-28,1,0,0,response3disk,,5,20,-1,1,0,0,rectangle,20,-1,1,0,0,20,-1,1,0,0,0,49,49,25,1,,,,,,,,
,,,,,,,,,,,,,FF,,,,,,,,0.6,,,,,,,,,,,,,,,,,,,,,,60ff6d15b88e2391dbaede06,61036d9e236ad4ffc5587c8c,2021-07-29_22h11.09.989,Simcolourproject_2stim_asymm_v5,2020.2.10,MacIntel,60,61025ae37ef11b136ea224fe,,,,,,,,,3289,28,-55,1,0,0,response3disk,,4,6,-10,1,0,0,rectangle,27,58,1,0,0,14,0,1,0,0,0,50,50,75,1,,response1disk_3,TRUE,7,7,"[260,152,322,53,40,302,278,95,124,220,166,146,240,208,184,113,51,296,105,169]",1.916,rectangle
,,,,,,,,,,,,,FF,,,,,,,,3.182,,,,,,,,,,,,,,,,,,,,,,60ff6d15b88e2391dbaede06,61036d9e236ad4ffc5587c8c,2021-07-29_22h11.09.989,Simcolourproject_2stim_asymm_v5,2020.2.10,MacIntel,60,61025ae37ef11b136ea224fe,,,,,,,,,4064,95,-26,1,0,0,response3disk,,5,14,-2,1,0,0,rectangle,14,-2,1,0,0,14,-2,1,0,0,0,51,51,135,1,,,,,,,,
,,,,,,,,,,,,,FF,,,,,,,,1.133,,,,,,,,,,,,,,,,,,,,,,60ff6d15b88e2391dbaede06,61036d9e236ad4ffc5587c8c,2021-07-29_22h11.09.989,Simcolourproject_2stim_asymm_v5,2020.2.10,MacIntel,60,61025ae37ef11b136ea224fe,,,,,,,,,3102,-31,-59,1,0,0,response5disk,,3,-27,-17,1,0,0,rectangle,-72,-22,1,0,0,4,0,1,0,0,0,52,52,152,1,,response5disk_3,TRUE,2,2,"[260,152,322,53,40,302,278,95,124,220,166,146,240,208,184,113,51,296,105,169]",1.934,rectangle
,,,,,,,,,,,,,FF,,,,,,,,0.733,,,,,,,,,,,,,,,,,,,,,,60ff6d15b88e2391dbaede06,61036d9e236ad4ffc5587c8c,2021-07-29_22h11.09.989,Simcolourproject_2stim_asymm_v5,2020.2.10,MacIntel,60,61025ae37ef11b136ea224fe,,,,,,,,,1991,62,-22,1,0,0,response3disk,,5,13,-2,1,0,0,rectangle,13,-2,1,0,0,13,-2,1,0,0,0,53,53,122,1,,,,,,,,
,,,,,,,,,,,,,FF,,,,,,,,0.616,,,,,,,,,,,,,,,,,,,,,,60ff6d15b88e2391dbaede06,61036d9e236ad4ffc5587c8c,2021-07-29_22h11.09.989,Simcolourproject_2stim_asymm_v5,2020.2.10,MacIntel,60,61025ae37ef11b136ea224fe,,,,,,,,,1594,34,-68,1,0,0,response3disk,,4,1,3,1,0,0,rectangle,1,3,1,0,0,1,3,1,0,0,0,54,54,71,1,,,,,,,,
,,,,,,,,,,,,,FF,,,,,,,,0.665,,,,,,,,,,,,,,,,,,,,,,60ff6d15b88e2391dbaede06,61036d9e236ad4ffc5587c8c,2021-07-29_22h11.09.989,Simcolourproject_2stim_asymm_v5,2020.2.10,MacIntel,60,61025ae37ef11b136ea224fe,,,,,,,,,169,-35,-57,1,0,0,response5disk,,3,-2,1,1,0,0,rectangle,-2,1,1,0,0,-2,1,1,0,0,0,55,55,93,1,,,,,,,,
,,,,,,,,,,,,,FF,,,,,,,,0.7,,,,,,,,,,,,,,,,,,,,,,60ff6d15b88e2391dbaede06,61036d9e236ad4ffc5587c8c,2021-07-29_22h11.09.989,Simcolourproject_2stim_asymm_v5,2020.2.10,MacIntel,60,61025ae37ef11b136ea224fe,,,,,,,,,4129,74,49,1,0,0,response1disk,,6,5,4,1,0,0,rectangle,5,4,1,0,0,5,4,1,0,0,0,56,56,43,1,,,,,,,,
,,,,,,,,,,,,,FF,,,,,,,,0.816,,,,,,,,,,,,,,,,,,,,,,60ff6d15b88e2391dbaede06,61036d9e236ad4ffc5587c8c,2021-07-29_22h11.09.989,Simcolourproject_2stim_asymm_v5,2020.2.10,MacIntel,60,61025ae37ef11b136ea224fe,,,,,,,,,1886,-33,64,1,0,0,response7disk,,0,-2,5,1,0,0,rectangle,-2,5,1,0,0,-2,5,1,0,0,0,57,57,15,1,,,,,,,,
,,,,,,,,,,,,,FF,,,,,,,,0.849,,,,,,,,,,,,,,,,,,,,,,60ff6d15b88e2391dbaede06,61036d9e236ad4ffc5587c8c,2021-07-29_22h11.09.989,Simcolourproject_2stim_asymm_v5,2020.2.10,MacIntel,60,61025ae37ef11b136ea224fe,,,,,,,,,1226,30,-57,1,0,0,response3disk,,4,11,-4,1,0,0,rectangle,11,-4,1,0,0,11,-4,1,0,0,0,58,58,33,1,,,,,,,,
,,,,,,,,,,,,,FF,,,,,,,,0.683,,,,,,,,,,,,,,,,,,,,,,60ff6d15b88e2391dbaede06,61036d9e236ad4ffc5587c8c,2021-07-29_22h11.09.989,Simcolourproject_2stim_asymm_v5,2020.2.10,MacIntel,60,61025ae37ef11b136ea224fe,,,,,,,,,1449,-36,-53,1,0,0,response5disk,,3,-6,-8,1,0,0,rectangle,-6,-8,1,0,0,-6,-8,1,0,0,0,59,59,29,1,,,,,,,,
,,,,,,,,,,,,,FF,,,,,,,,0.683,,,,,,,,,,,,,,,,,,,,,,60ff6d15b88e2391dbaede06,61036d9e236ad4ffc5587c8c,2021-07-29_22h11.09.989,Simcolourproject_2stim_asymm_v5,2020.2.10,MacIntel,60,61025ae37ef11b136ea224fe,,,,,,,,,1645,41,14,1,0,0,response1disk,,6,0,-3,1,0,0,rectangle,0,-3,1,0,0,0,-3,1,0,0,0,60,60,138,1,,,,,,,,
,,,,,,,,,,,,,FF,,,,,,,,0.582,,,,,,,,,,,,,,,,,,,,,,60ff6d15b88e2391dbaede06,61036d9e236ad4ffc5587c8c,2021-07-29_22h11.09.989,Simcolourproject_2stim_asymm_v5,2020.2.10,MacIntel,60,61025ae37ef11b136ea224fe,,,,,,,,,1116,52,-30,1,0,0,response3disk,,5,6,3,1,0,0,rectangle,6,3,1,0,0,6,3,1,0,0,0,61,61,116,1,,,,,,,,
,,,,,,,,,,,,,FF,,,,,,,,1.133,,,,,,,,,,,,,,,,,,,,,,60ff6d15b88e2391dbaede06,61036d9e236ad4ffc5587c8c,2021-07-29_22h11.09.989,Simcolourproject_2stim_asymm_v5,2020.2.10,MacIntel,60,61025ae37ef11b136ea224fe,,,,,,,,,3326,42,93,1,0,0,response1disk,,7,19,8,1,0,0,rectangle,19,8,1,0,0,19,8,1,0,0,0,62,62,10,1,,,,,,,,
,,,,,,,,,,,,,FF,,,,,,,,3.666,,,,,,,,,,,,,,,,,,,,,,60ff6d15b88e2391dbaede06,61036d9e236ad4ffc5587c8c,2021-07-29_22h11.09.989,Simcolourproject_2stim_asymm_v5,2020.2.10,MacIntel,60,61025ae37ef11b136ea224fe,,,,,,,,,3659,66,-22,1,0,0,response3disk,,5,-1,-1,1,0,0,rectangle,-1,-1,1,0,0,-1,-1,1,0,0,0,63,63,120,1,,,,,,,,
,,,,,,,,,,,,,FF,,,,,,,,1.117,,,,,,,,,,,,,,,,,,,,,,60ff6d15b88e2391dbaede06,61036d9e236ad4ffc5587c8c,2021-07-29_22h11.09.989,Simcolourproject_2stim_asymm_v5,2020.2.10,MacIntel,60,61025ae37ef11b136ea224fe,,,,,,,,,4040,45,-48,1,0,0,response3disk,,4,-4,2,1,0,0,rectangle,-4,2,1,0,0,-4,2,1,0,0,0,64,64,13,1,,,,,,,,
,,,,,,,,,,,,,FF,,,,,,,,0.765,,,,,,,,,,,,,,,,,,,,,,60ff6d15b88e2391dbaede06,61036d9e236ad4ffc5587c8c,2021-07-29_22h11.09.989,Simcolourproject_2stim_asymm_v5,2020.2.10,MacIntel,60,61025ae37ef11b136ea224fe,,,,,,,,,2968,61,-28,1,0,0,response3disk,,5,21,4,1,0,0,rectangle,21,4,1,0,0,21,4,1,0,0,0,65,65,18,1,,,,,,,,
,,,,,,,,,,,,,FF,,,,,,,,0.634,,,,,,,,,,,,,,,,,,,,,,60ff6d15b88e2391dbaede06,61036d9e236ad4ffc5587c8c,2021-07-29_22h11.09.989,Simcolourproject_2stim_asymm_v5,2020.2.10,MacIntel,60,61025ae37ef11b136ea224fe,,,,,,,,,1261,31,-56,1,0,0,response3disk,,4,7,-2,1,0,0,rectangle,7,-2,1,0,0,7,-2,1,0,0,0,66,66,133,1,,,,,,,,
,,,,,,,,,,,,,FF,,,,,,,,1.082,,,,,,,,,,,,,,,,,,,,,,60ff6d15b88e2391dbaede06,61036d9e236ad4ffc5587c8c,2021-07-29_22h11.09.989,Simcolourproject_2stim_asymm_v5,2020.2.10,MacIntel,60,61025ae37ef11b136ea224fe,,,,,,,,,3674,-40,-62,1,0,0,response5disk,,3,2,-14,1,0,0,rectangle,2,-14,1,0,0,2,-14,1,0,0,0,67,67,53,1,,,,,,,,
,,,,,,,,,,,,,FF,,,,,,,,0.899,,,,,,,,,,,,,,,,,,,,,,60ff6d15b88e2391dbaede06,61036d9e236ad4ffc5587c8c,2021-07-29_22h11.09.989,Simcolourproject_2stim_asymm_v5,2020.2.10,MacIntel,60,61025ae37ef11b136ea224fe,,,,,,,,,4140,-31,65,1,0,0,response7disk,,0,-4,-2,1,0,0,rectangle,-4,-2,1,0,0,-4,-2,1,0,0,0,68,68,51,1,,,,,,,,
,,,,,,,,,,,,,FF,,,,,,,,0.683,,,,,,,,,,,,,,,,,,,,,,60ff6d15b88e2391dbaede06,61036d9e236ad4ffc5587c8c,2021-07-29_22h11.09.989,Simcolourproject_2stim_asymm_v5,2020.2.10,MacIntel,60,61025ae37ef11b136ea224fe,,,,,,,,,2941,-31,69,1,0,0,response7disk,,0,-6,-5,1,0,0,rectangle,-6,-5,1,0,0,-6,-5,1,0,0,0,69,69,32,1,,,,,,,,
,,,,,,,,,,,,,FF,,,,,,,,0.817,,,,,,,,,,,,,,,,,,,,,,60ff6d15b88e2391dbaede06,61036d9e236ad4ffc5587c8c,2021-07-29_22h11.09.989,Simcolourproject_2stim_asymm_v5,2020.2.10,MacIntel,60,61025ae37ef11b136ea224fe,,,,,,,,,477,37,25,1,0,0,response1disk,,6,-5,-3,1,0,0,rectangle,-5,-3,1,0,0,-5,-3,1,0,0,0,70,70,2,1,,,,,,,,
,,,,,,,,,,,,,FF,,,,,,,,0.899,,,,,,,,,,,,,,,,,,,,,,60ff6d15b88e2391dbaede06,61036d9e236ad4ffc5587c8c,2021-07-29_22h11.09.989,Simcolourproject_2stim_asymm_v5,2020.2.10,MacIntel,60,61025ae37ef11b136ea224fe,,,,,,,,,1516,45,24,1,0,0,response1disk,,6,20,2,1,0,0,rectangle,20,2,1,0,0,20,2,1,0,0,0,71,71,96,1,,,,,,,,
,,,,,,,,,,,,,FF,,,,,,,,1.317,,,,,,,,,,,,,,,,,,,,,,60ff6d15b88e2391dbaede06,61036d9e236ad4ffc5587c8c,2021-07-29_22h11.09.989,Simcolourproject_2stim_asymm_v5,2020.2.10,MacIntel,60,61025ae37ef11b136ea224fe,,,,,,,,,937,32,54,1,0,0,response1disk,,7,16,2,1,0,0,rectangle,16,2,1,0,0,16,2,1,0,0,0,72,72,69,1,,,,,,,,
,,,,,,,,,,,,,FF,,,,,,,,0.784,,,,,,,,,,,,,,,,,,,,,,60ff6d15b88e2391dbaede06,61036d9e236ad4ffc5587c8c,2021-07-29_22h11.09.989,Simcolourproject_2stim_asymm_v5,2020.2.10,MacIntel,60,61025ae37ef11b136ea224fe,,,,,,,,,1268,21,-51,1,0,0,response3disk,,4,13,-3,1,0,0,rectangle,13,-3,1,0,0,13,-3,1,0,0,0,73,73,109,1,,,,,,,,
,,,,,,,,,,,,,FF,,,,,,,,1.183,,,,,,,,,,,,,,,,,,,,,,60ff6d15b88e2391dbaede06,61036d9e236ad4ffc5587c8c,2021-07-29_22h11.09.989,Simcolourproject_2stim_asymm_v5,2020.2.10,MacIntel,60,61025ae37ef11b136ea224fe,,,,,,,,,395,82,32,1,0,0,response1disk,,6,13,9,1,0,0,rectangle,13,9,1,0,0,13,9,1,0,0,0,74,74,132,1,,,,,,,,
,,,,,,,,,,,,,FF,,,,,,,,1.117,,,,,,,,,,,,,,,,,,,,,,60ff6d15b88e2391dbaede06,61036d9e236ad4ffc5587c8c,2021-07-29_22h11.09.989,Simcolourproject_2stim_asymm_v5,2020.2.10,MacIntel,60,61025ae37ef11b136ea224fe,,,,,,,,,4106,-48,-69,1,0,0,response5disk,,3,-8,-6,1,0,0,rectangle,-8,-6,1,0,0,-8,-6,1,0,0,0,75,75,11,1,,,,,,,,
,,,,,,,,,,,,,FF,,,,,,,,0.933,,,,,,,,,,,,,,,,,,,,,,60ff6d15b88e2391dbaede06,61036d9e236ad4ffc5587c8c,2021-07-29_22h11.09.989,Simcolourproject_2stim_asymm_v5,2020.2.10,MacIntel,60,61025ae37ef11b136ea224fe,,,,,,,,,753,29,58,1,0,0,response1disk,,7,14,8,1,0,0,rectangle,14,8,1,0,0,14,8,1,0,0,0,76,76,117,1,,,,,,,,
,,,,,,,,,,,,,FF,,,,,,,,1.134,,,,,,,,,,,,,,,,,,,,,,60ff6d15b88e2391dbaede06,61036d9e236ad4ffc5587c8c,2021-07-29_22h11.09.989,Simcolourproject_2stim_asymm_v5,2020.2.10,MacIntel,60,61025ae37ef11b136ea224fe,,,,,,,,,2876,27,66,1,0,0,response1disk,,7,10,16,1,0,0,rectangle,10,16,1,0,0,10,16,1,0,0,0,77,77,80,1,,,,,,,,
,,,,,,,,,,,,,FF,,,,,,,,0.866,,,,,,,,,,,,,,,,,,,,,,60ff6d15b88e2391dbaede06,61036d9e236ad4ffc5587c8c,2021-07-29_22h11.09.989,Simcolourproject_2stim_asymm_v5,2020.2.10,MacIntel,60,61025ae37ef11b136ea224fe,,,,,,,,,3817,-60,-28,1,0,0,response5disk,,2,-10,4,1,0,0,rectangle,-10,4,1,0,0,-10,4,1,0,0,0,78,78,150,1,,,,,,,,
,,,,,,,,,,,,,FF,,,,,,,,1,,,,,,,,,,,,,,,,,,,,,,60ff6d15b88e2391dbaede06,61036d9e236ad4ffc5587c8c,2021-07-29_22h11.09.989,Simcolourproject_2stim_asymm_v5,2020.2.10,MacIntel,60,61025ae37ef11b136ea224fe,,,,,,,,,2533,45,-21,1,0,0,response3disk,,5,7,12,1,0,0,rectangle,7,12,1,0,0,7,12,1,0,0,0,79,79,26,1,,,,,,,,
,,,,,,,,,,,,,FF,,,,,,,,1.266,,,,,,,,,,,,,,,,,,,,,,60ff6d15b88e2391dbaede06,61036d9e236ad4ffc5587c8c,2021-07-29_22h11.09.989,Simcolourproject_2stim_asymm_v5,2020.2.10,MacIntel,60,61025ae37ef11b136ea224fe,,,,,,,,,4159,59,32,1,0,0,response1disk,,6,17,9,1,0,0,rectangle,17,9,1,0,0,17,9,1,0,0,0,80,80,151,1,,,,,,,,
,,,,,,,,,,,,,FF,,,,,,,,0.816,,,,,,,,,,,,,,,,,,,,,,60ff6d15b88e2391dbaede06,61036d9e236ad4ffc5587c8c,2021-07-29_22h11.09.989,Simcolourproject_2stim_asymm_v5,2020.2.10,MacIntel,60,61025ae37ef11b136ea224fe,,,,,,,,,445,-50,-14,1,0,0,response5disk,,2,-15,2,1,0,0,rectangle,-15,2,1,0,0,-15,2,1,0,0,0,81,81,136,1,,,,,,,,
,,,,,,,,,,,,,FF,,,,,,,,0.883,,,,,,,,,,,,,,,,,,,,,,60ff6d15b88e2391dbaede06,61036d9e236ad4ffc5587c8c,2021-07-29_22h11.09.989,Simcolourproject_2stim_asymm_v5,2020.2.10,MacIntel,60,61025ae37ef11b136ea224fe,,,,,,,,,705,48,-18,1,0,0,response3disk,,5,6,2,1,0,0,rectangle,6,2,1,0,0,6,2,1,0,0,0,82,82,60,1,,,,,,,,
,,,,,,,,,,,,,FF,,,,,,,,0.766,,,,,,,,,,,,,,,,,,,,,,60ff6d15b88e2391dbaede06,61036d9e236ad4ffc5587c8c,2021-07-29_22h11.09.989,Simcolourproject_2stim_asymm_v5,2020.2.10,MacIntel,60,61025ae37ef11b136ea224fe,,,,,,,,,346,-65,-27,1,0,0,response5disk,,2,-23,-5,1,0,0,rectangle,-23,-5,1,0,0,-23,-5,1,0,0,0,83,83,111,1,,,,,,,,
,,,,,,,,,,,,,FF,,,,,,,,0.883,,,,,,,,,,,,,,,,,,,,,,60ff6d15b88e2391dbaede06,61036d9e236ad4ffc5587c8c,2021-07-29_22h11.09.989,Simcolourproject_2stim_asymm_v5,2020.2.10,MacIntel,60,61025ae37ef11b136ea224fe,,,,,,,,,1990,47,71,1,0,0,response1disk,,7,19,11,1,0,0,rectangle,19,11,1,0,0,19,11,1,0,0,0,84,84,128,1,,,,,,,,
,,,,,,,,,,,,,FF,,,,,,,,2.101,,,,,,,,,,,,,,,,,,,,,,60ff6d15b88e2391dbaede06,61036d9e236ad4ffc5587c8c,2021-07-29_22h11.09.989,Simcolourproject_2stim_asymm_v5,2020.2.10,MacIntel,60,61025ae37ef11b136ea224fe,,,,,,,,,4297,-23,-57,1,0,0,response5disk,,3,-18,-7,1,0,0,rectangle,-18,-7,1,0,0,-18,-7,1,0,0,0,85,85,72,1,,,,,,,,
,,,,,,,,,,,,,FF,,,,,,,,1.032,,,,,,,,,,,,,,,,,,,,,,60ff6d15b88e2391dbaede06,61036d9e236ad4ffc5587c8c,2021-07-29_22h11.09.989,Simcolourproject_2stim_asymm_v5,2020.2.10,MacIntel,60,61025ae37ef11b136ea224fe,,,,,,,,,3144,-34,-43,1,0,0,response5disk,,3,-24,-11,1,0,0,rectangle,-24,-11,1,0,0,-24,-11,1,0,0,0,86,86,131,1,,,,,,,,
,,,,,,,,,,,,,FF,,,,,,,,1.566,,,,,,,,,,,,,,,,,,,,,,60ff6d15b88e2391dbaede06,61036d9e236ad4ffc5587c8c,2021-07-29_22h11.09.989,Simcolourproject_2stim_asymm_v5,2020.2.10,MacIntel,60,61025ae37ef11b136ea224fe,,,,,,,,,3444,82,-23,1,0,0,response3disk,,5,-3,10,1,0,0,rectangle,-3,10,1,0,0,-3,10,1,0,0,0,87,87,95,1,,,,,,,,
,,,,,,,,,,,,,FF,,,,,,,,1.949,,,,,,,,,,,,,,,,,,,,,,60ff6d15b88e2391dbaede06,61036d9e236ad4ffc5587c8c,2021-07-29_22h11.09.989,Simcolourproject_2stim_asymm_v5,2020.2.10,MacIntel,60,61025ae37ef11b136ea224fe,,,,,,,,,3433,80,-22,1,0,0,response3disk,,5,7,4,1,0,0,rectangle,7,4,1,0,0,7,4,1,0,0,0,88,88,55,1,,,,,,,,
,,,,,,,,,,,,,FF,,,,,,,,0.716,,,,,,,,,,,,,,,,,,,,,,60ff6d15b88e2391dbaede06,61036d9e236ad4ffc5587c8c,2021-07-29_22h11.09.989,Simcolourproject_2stim_asymm_v5,2020.2.10,MacIntel,60,61025ae37ef11b136ea224fe,,,,,,,,,2591,39,-32,1,0,0,response3disk,,5,12,-1,1,0,0,rectangle,12,-1,1,0,0,12,-1,1,0,0,0,89,89,31,1,,,,,,,,
,,,,,,,,,,,,,FF,,,,,,,,0.599,,,,,,,,,,,,,,,,,,,,,,60ff6d15b88e2391dbaede06,61036d9e236ad4ffc5587c8c,2021-07-29_22h11.09.989,Simcolourproject_2stim_asymm_v5,2020.2.10,MacIntel,60,61025ae37ef11b136ea224fe,,,,,,,,,3840,20,56,1,0,0,response1disk,,7,10,-8,1,0,0,rectangle,10,-8,1,0,0,10,-8,1,0,0,0,90,90,85,1,,,,,,,,
,,,,,,,,,,,,,FF,,,,,,,,1.265,,,,,,,,,,,,,,,,,,,,,,60ff6d15b88e2391dbaede06,61036d9e236ad4ffc5587c8c,2021-07-29_22h11.09.989,Simcolourproject_2stim_asymm_v5,2020.2.10,MacIntel,60,61025ae37ef11b136ea224fe,,,,,,,,,1463,-43,-49,1,0,0,response5disk,,3,-12,-7,1,0,0,rectangle,-12,-7,1,0,0,-12,-7,1,0,0,0,91,91,9,1,,,,,,,,
,,,,,,,,,,,,,FF,,,,,,,,1,,,,,,,,,,,,,,,,,,,,,,60ff6d15b88e2391dbaede06,61036d9e236ad4ffc5587c8c,2021-07-29_22h11.09.989,Simcolourproject_2stim_asymm_v5,2020.2.10,MacIntel,60,61025ae37ef11b136ea224fe,,,,,,,,,3937,-63,-29,1,0,0,response5disk,,2,-19,0,1,0,0,rectangle,-19,0,1,0,0,-19,0,1,0,0,0,92,92,110,1,,,,,,,,
,,,,,,,,,,,,,FF,,,,,,,,0.9,,,,,,,,,,,,,,,,,,,,,,60ff6d15b88e2391dbaede06,61036d9e236ad4ffc5587c8c,2021-07-29_22h11.09.989,Simcolourproject_2stim_asymm_v5,2020.2.10,MacIntel,60,61025ae37ef11b136ea224fe,,,,,,,,,3472,-33,-69,1,0,0,response5disk,,3,-12,-6,1,0,0,rectangle,-12,-6,1,0,0,-12,-6,1,0,0,0,93,93,37,1,,,,,,,,
,,,,,,,,,,,,,FF,,,,,,,,1.85,,,,,,,,,,,,,,,,,,,,,,60ff6d15b88e2391dbaede06,61036d9e236ad4ffc5587c8c,2021-07-29_22h11.09.989,Simcolourproject_2stim_asymm_v5,2020.2.10,MacIntel,60,61025ae37ef11b136ea224fe,,,,,,,,,1835,-29,-41,1,0,0,response5disk,,3,8,-5,1,0,0,rectangle,67,-74,1,0,0,7,7,1,0,0,0,94,94,78,1,,response3disk_3,TRUE,4,4,"[260,152,322,53,40,302,278,95,124,220,166,146,240,208,184,113,51,296,105,169]",1.466,rectangle
,,,,,,,,,,,,,FF,,,,,,,,1.166,,,,,,,,,,,,,,,,,,,,,,60ff6d15b88e2391dbaede06,61036d9e236ad4ffc5587c8c,2021-07-29_22h11.09.989,Simcolourproject_2stim_asymm_v5,2020.2.10,MacIntel,60,61025ae37ef11b136ea224fe,,,,,,,,,3595,-21,-61,1,0,0,response5disk,,3,1,3,1,0,0,rectangle,1,3,1,0,0,1,3,1,0,0,0,95,95,148,1,,,,,,,,
,,,,,,,,,,,,,FF,,,,,,,,10.366,,,,,,,,,,,,,,,,,,,,,,60ff6d15b88e2391dbaede06,61036d9e236ad4ffc5587c8c,2021-07-29_22h11.09.989,Simcolourproject_2stim_asymm_v5,2020.2.10,MacIntel,60,61025ae37ef11b136ea224fe,,,,,,,,,1490,50,-39,1,0,0,response3disk,,5,14,-9,1,0,0,rectangle,14,-9,1,0,0,14,-9,1,0,0,0,96,96,137,1,,,,,,,,
,,,,,,,,,,,,,FF,,,,,,,,1.315,,,,,,,,,,,,,,,,,,,,,,60ff6d15b88e2391dbaede06,61036d9e236ad4ffc5587c8c,2021-07-29_22h11.09.989,Simcolourproject_2stim_asymm_v5,2020.2.10,MacIntel,60,61025ae37ef11b136ea224fe,,,,,,,,,1788,30,78,1,0,0,response1disk,,7,16,-12,1,0,0,rectangle,16,-12,1,0,0,16,-12,1,0,0,0,97,97,76,1,,,,,,,,
,,,,,,,,,,,,,FF,,,,,,,,0.716,,,,,,,,,,,,,,,,,,,,,,60ff6d15b88e2391dbaede06,61036d9e236ad4ffc5587c8c,2021-07-29_22h11.09.989,Simcolourproject_2stim_asymm_v5,2020.2.10,MacIntel,60,61025ae37ef11b136ea224fe,,,,,,,,,1050,-29,44,1,0,0,response7disk,,0,-7,2,1,0,0,rectangle,-7,2,1,0,0,-7,2,1,0,0,0,98,98,28,1,,,,,,,,
,,,,,,,,,,,,,FF,,,,,,,,0.883,,,,,,,,,,,,,,,,,,,,,,60ff6d15b88e2391dbaede06,61036d9e236ad4ffc5587c8c,2021-07-29_22h11.09.989,Simcolourproject_2stim_asymm_v5,2020.2.10,MacIntel,60,61025ae37ef11b136ea224fe,,,,,,,,,547,-39,-50,1,0,0,response5disk,,3,-8,-4,1,0,0,rectangle,-8,-4,1,0,0,-8,-4,1,0,0,0,99,99,118,1,,,,,,,,
,,,,,,,,,,,,,FF,,,,,,,,0.783,,,,,,,,,,,,,,,,,,,,,,60ff6d15b88e2391dbaede06,61036d9e236ad4ffc5587c8c,2021-07-29_22h11.09.989,Simcolourproject_2stim_asymm_v5,2020.2.10,MacIntel,60,61025ae37ef11b136ea224fe,,,,,,,,,1721,71,48,1,0,0,response1disk,,6,21,-16,1,0,0,rectangle,21,-16,1,0,0,21,-16,1,0,0,0,100,100,12,1,,,,,,,,
,,,,,,,,,,,,,FF,,,,,,,,1.216,,,,,,,,,,,,,,,,,,,,,,60ff6d15b88e2391dbaede06,61036d9e236ad4ffc5587c8c,2021-07-29_22h11.09.989,Simcolourproject_2stim_asymm_v5,2020.2.10,MacIntel,60,61025ae37ef11b136ea224fe,,,,,,,,,364,48,22,1,0,0,response1disk,,6,24,-7,1,0,0,rectangle,24,-7,1,0,0,24,-7,1,0,0,0,101,101,6,1,,,,,,,,
,,,,,,,,,,,,,FF,,,,,,,,0.717,,,,,,,,,,,,,,,,,,,,,,60ff6d15b88e2391dbaede06,61036d9e236ad4ffc5587c8c,2021-07-29_22h11.09.989,Simcolourproject_2stim_asymm_v5,2020.2.10,MacIntel,60,61025ae37ef11b136ea224fe,,,,,,,,,438,-43,-57,1,0,0,response5disk,,3,-19,4,1,0,0,rectangle,-19,4,1,0,0,-19,4,1,0,0,0,102,102,141,1,,,,,,,,
,,,,,,,,,,,,,FF,,,,,,,,0.816,,,,,,,,,,,,,,,,,,,,,,60ff6d15b88e2391dbaede06,61036d9e236ad4ffc5587c8c,2021-07-29_22h11.09.989,Simcolourproject_2stim_asymm_v5,2020.2.10,MacIntel,60,61025ae37ef11b136ea224fe,,,,,,,,,3143,-25,-52,1,0,0,response5disk,,3,3,-6,1,0,0,rectangle,3,-6,1,0,0,3,-6,1,0,0,0,103,103,81,1,,,,,,,,
,,,,,,,,,,,,,FF,,,,,,,,0.984,,,,,,,,,,,,,,,,,,,,,,60ff6d15b88e2391dbaede06,61036d9e236ad4ffc5587c8c,2021-07-29_22h11.09.989,Simcolourproject_2stim_asymm_v5,2020.2.10,MacIntel,60,61025ae37ef11b136ea224fe,,,,,,,,,3752,52,28,1,0,0,response1disk,,6,20,-1,1,0,0,rectangle,37,97,1,0,0,6,5,1,0,0,0,104,104,20,1,,response1disk_3,TRUE,7,7,"[260,152,322,53,40,302,278,95,124,220,166,146,240,208,184,113,51,296,105,169]",1.916,rectangle
,,,,,,,,,,,,,FF,,,,,,,,0.966,,,,,,,,,,,,,,,,,,,,,,60ff6d15b88e2391dbaede06,61036d9e236ad4ffc5587c8c,2021-07-29_22h11.09.989,Simcolourproject_2stim_asymm_v5,2020.2.10,MacIntel,60,61025ae37ef11b136ea224fe,,,,,,,,,2694,76,34,1,0,0,response1disk,,6,26,6,1,0,0,rectangle,26,6,1,0,0,26,6,1,0,0,0,105,105,153,1,,,,,,,,
,,,,,,,,,,,,,FF,,,,,,,,0.867,,,,,,,,,,,,,,,,,,,,,,60ff6d15b88e2391dbaede06,61036d9e236ad4ffc5587c8c,2021-07-29_22h11.09.989,Simcolourproject_2stim_asymm_v5,2020.2.10,MacIntel,60,61025ae37ef11b136ea224fe,,,,,,,,,4205,-23,-60,1,0,0,response5disk,,3,-8,-12,1,0,0,rectangle,-8,-12,1,0,0,-8,-12,1,0,0,0,106,106,124,1,,,,,,,,
,,,,,,,,,,,,,FF,,,,,,,,1.083,,,,,,,,,,,,,,,,,,,,,,60ff6d15b88e2391dbaede06,61036d9e236ad4ffc5587c8c,2021-07-29_22h11.09.989,Simcolourproject_2stim_asymm_v5,2020.2.10,MacIntel,60,61025ae37ef11b136ea224fe,,,,,,,,,369,36,-63,1,0,0,response3disk,,4,10,4,1,0,0,rectangle,10,4,1,0,0,10,4,1,0,0,0,107,107,84,1,,,,,,,,
,,,,,,,,,,,,,FF,,,,,,,,2.983,,,,,,,,,,,,,,,,,,,,,,60ff6d15b88e2391dbaede06,61036d9e236ad4ffc5587c8c,2021-07-29_22h11.09.989,Simcolourproject_2stim_asymm_v5,2020.2.10,MacIntel,60,61025ae37ef11b136ea224fe,,,,,,,,,2580,35,18,1,0,0,response1disk,,6,19,7,1,0,0,rectangle,19,7,1,0,0,19,7,1,0,0,0,108,108,73,1,,,,,,,,
,,,,,,,,,,,,,FF,,,,,,,,0.815,,,,,,,,,,,,,,,,,,,,,,60ff6d15b88e2391dbaede06,61036d9e236ad4ffc5587c8c,2021-07-29_22h11.09.989,Simcolourproject_2stim_asymm_v5,2020.2.10,MacIntel,60,61025ae37ef11b136ea224fe,,,,,,,,,912,99,53,1,0,0,response1disk,,6,25,4,1,0,0,rectangle,25,4,1,0,0,25,4,1,0,0,0,109,109,14,1,,,,,,,,
,,,,,,,,,,,,,FF,,,,,,,,0.716,,,,,,,,,,,,,,,,,,,,,,60ff6d15b88e2391dbaede06,61036d9e236ad4ffc5587c8c,2021-07-29_22h11.09.989,Simcolourproject_2stim_asymm_v5,2020.2.10,MacIntel,60,61025ae37ef11b136ea224fe,,,,,,,,,2516,72,32,1,0,0,response1disk,,6,22,4,1,0,0,rectangle,22,4,1,0,0,22,4,1,0,0,0,110,110,115,1,,,,,,,,
,,,,,,,,,,,,,FF,,,,,,,,0.65,,,,,,,,,,,,,,,,,,,,,,60ff6d15b88e2391dbaede06,61036d9e236ad4ffc5587c8c,2021-07-29_22h11.09.989,Simcolourproject_2stim_asymm_v5,2020.2.10,MacIntel,60,61025ae37ef11b136ea224fe,,,,,,,,,1342,55,-33,1,0,0,response3disk,,5,23,-2,1,0,0,rectangle,23,-2,1,0,0,23,-2,1,0,0,0,111,111,146,1,,,,,,,,
,,,,,,,,,,,,,FF,,,,,,,,1.134,,,,,,,,,,,,,,,,,,,,,,60ff6d15b88e2391dbaede06,61036d9e236ad4ffc5587c8c,2021-07-29_22h11.09.989,Simcolourproject_2stim_asymm_v5,2020.2.10,MacIntel,60,61025ae37ef11b136ea224fe,,,,,,,,,1082,41,78,1,0,0,response1disk,,7,24,6,1,0,0,rectangle,44,99,1,0,0,30,10,1,0,0,0,112,112,44,1,,response1disk_3,TRUE,7,7,"[260,152,322,53,40,302,278,95,124,220,166,146,240,208,184,113,51,296,105,169]",1.65,rectangle
,,,,,,,,,,,,,FF,,,,,,,,1.132,,,,,,,,,,,,,,,,,,,,,,60ff6d15b88e2391dbaede06,61036d9e236ad4ffc5587c8c,2021-07-29_22h11.09.989,Simcolourproject_2stim_asymm_v5,2020.2.10,MacIntel,60,61025ae37ef11b136ea224fe,,,,,,,,,3759,28,53,1,0,0,response1disk,,7,17,9,1,0,0,rectangle,17,9,1,0,0,17,9,1,0,0,0,113,113,99,1,,,,,,,,
,,,,,,,,,,,,,FF,,,,,,,,0.949,,,,,,,,,,,,,,,,,,,,,,60ff6d15b88e2391dbaede06,61036d9e236ad4ffc5587c8c,2021-07-29_22h11.09.989,Simcolourproject_2stim_asymm_v5,2020.2.10,MacIntel,60,61025ae37ef11b136ea224fe,,,,,,,,,1225,64,30,1,0,0,response1disk,,6,13,-5,1,0,0,rectangle,13,-5,1,0,0,13,-5,1,0,0,0,114,114,52,1,,,,,,,,
,,,,,,,,,,,,,FF,,,,,,,,0.7,,,,,,,,,,,,,,,,,,,,,,60ff6d15b88e2391dbaede06,61036d9e236ad4ffc5587c8c,2021-07-29_22h11.09.989,Simcolourproject_2stim_asymm_v5,2020.2.10,MacIntel,60,61025ae37ef11b136ea224fe,,,,,,,,,2957,64,26,1,0,0,response1disk,,6,10,-11,1,0,0,rectangle,10,-11,1,0,0,10,-11,1,0,0,0,115,115,104,1,,,,,,,,
,,,,,,,,,,,,,FF,,,,,,,,0.85,,,,,,,,,,,,,,,,,,,,,,60ff6d15b88e2391dbaede06,61036d9e236ad4ffc5587c8c,2021-07-29_22h11.09.989,Simcolourproject_2stim_asymm_v5,2020.2.10,MacIntel,60,61025ae37ef11b136ea224fe,,,,,,,,,2633,67,31,1,0,0,response1disk,,6,21,8,1,0,0,rectangle,21,8,1,0,0,21,8,1,0,0,0,116,116,4,1,,,,,,,,
,,,,,,,,,,,,,FF,,,,,,,,1.016,,,,,,,,,,,,,,,,,,,,,,60ff6d15b88e2391dbaede06,61036d9e236ad4ffc5587c8c,2021-07-29_22h11.09.989,Simcolourproject_2stim_asymm_v5,2020.2.10,MacIntel,60,61025ae37ef11b136ea224fe,,,,,,,,,1354,26,-67,1,0,0,response3disk,,4,13,-1,1,0,0,rectangle,13,-1,1,0,0,13,-1,1,0,0,0,117,117,61,1,,,,,,,,
,,,,,,,,,,,,,FF,,,,,,,,0.717,,,,,,,,,,,,,,,,,,,,,,60ff6d15b88e2391dbaede06,61036d9e236ad4ffc5587c8c,2021-07-29_22h11.09.989,Simcolourproject_2stim_asymm_v5,2020.2.10,MacIntel,60,61025ae37ef11b136ea224fe,,,,,,,,,1441,39,-64,1,0,0,response3disk,,4,13,-1,1,0,0,rectangle,13,-1,1,0,0,13,-1,1,0,0,0,118,118,54,1,,,,,,,,
,,,,,,,,,,,,,FF,,,,,,,,1,,,,,,,,,,,,,,,,,,,,,,60ff6d15b88e2391dbaede06,61036d9e236ad4ffc5587c8c,2021-07-29_22h11.09.989,Simcolourproject_2stim_asymm_v5,2020.2.10,MacIntel,60,61025ae37ef11b136ea224fe,,,,,,,,,546,65,-32,1,0,0,response3disk,,5,14,-8,1,0,0,rectangle,14,-8,1,0,0,14,-8,1,0,0,0,119,119,27,1,,,,,,,,
,,,,,,,,,,,,,FF,,,,,,,,0.899,,,,,,,,,,,,,,,,,,,,,,60ff6d15b88e2391dbaede06,61036d9e236ad4ffc5587c8c,2021-07-29_22h11.09.989,Simcolourproject_2stim_asymm_v5,2020.2.10,MacIntel,60,61025ae37ef11b136ea224fe,,,,,,,,,1683,-25,-55,1,0,0,response5disk,,3,-9,-5,1,0,0,rectangle,-9,-5,1,0,0,-9,-5,1,0,0,0,120,120,50,1,,,,,,,,
,,,,,,,,,,,,,FF,,,,,,,,0.95,,,,,,,,,,,,,,,,,,,,,,60ff6d15b88e2391dbaede06,61036d9e236ad4ffc5587c8c,2021-07-29_22h11.09.989,Simcolourproject_2stim_asymm_v5,2020.2.10,MacIntel,60,61025ae37ef11b136ea224fe,,,,,,,,,832,72,-27,1,0,0,response3disk,,5,10,-7,1,0,0,rectangle,10,-7,1,0,0,10,-7,1,0,0,0,121,121,143,1,,,,,,,,
,,,,,,,,,,,,,FF,,,,,,,,0.716,,,,,,,,,,,,,,,,,,,,,,60ff6d15b88e2391dbaede06,61036d9e236ad4ffc5587c8c,2021-07-29_22h11.09.989,Simcolourproject_2stim_asymm_v5,2020.2.10,MacIntel,60,61025ae37ef11b136ea224fe,,,,,,,,,3028,65,-31,1,0,0,response3disk,,5,24,4,1,0,0,rectangle,24,4,1,0,0,24,4,1,0,0,0,122,122,38,1,,,,,,,,
,,,,,,,,,,,,,FF,,,,,,,,0.683,,,,,,,,,,,,,,,,,,,,,,60ff6d15b88e2391dbaede06,61036d9e236ad4ffc5587c8c,2021-07-29_22h11.09.989,Simcolourproject_2stim_asymm_v5,2020.2.10,MacIntel,60,61025ae37ef11b136ea224fe,,,,,,,,,1238,33,63,1,0,0,response1disk,,7,18,6,1,0,0,rectangle,-68,-29,1,0,0,4,1,1,0,0,0,123,123,113,1,,response5disk_3,TRUE,2,2,"[260,152,322,53,40,302,278,95,124,220,166,146,240,208,184,113,51,296,105,169]",2.965,rectangle
,,,,,,,,,,,,,FF,,,,,,,,1.2,,,,,,,,,,,,,,,,,,,,,,60ff6d15b88e2391dbaede06,61036d9e236ad4ffc5587c8c,2021-07-29_22h11.09.989,Simcolourproject_2stim_asymm_v5,2020.2.10,MacIntel,60,61025ae37ef11b136ea224fe,,,,,,,,,2629,35,-47,1,0,0,response3disk,,4,-8,9,1,0,0,rectangle,-8,9,1,0,0,-8,9,1,0,0,0,124,124,149,1,,,,,,,,
,,,,,,,,,,,,,FF,,,,,,,,1.75,,,,,,,,,,,,,,,,,,,,,,60ff6d15b88e2391dbaede06,61036d9e236ad4ffc5587c8c,2021-07-29_22h11.09.989,Simcolourproject_2stim_asymm_v5,2020.2.10,MacIntel,60,61025ae37ef11b136ea224fe,,,,,,,,,2012,78,44,1,0,0,response1disk,,6,28,3,1,0,0,rectangle,28,3,1,0,0,28,3,1,0,0,0,125,125,108,1,,,,,,,,
,,,,,,,,,,,,,FF,,,,,,,,1.234,,,,,,,,,,,,,,,,,,,,,,60ff6d15b88e2391dbaede06,61036d9e236ad4ffc5587c8c,2021-07-29_22h11.09.989,Simcolourproject_2stim_asymm_v5,2020.2.10,MacIntel,60,61025ae37ef11b136ea224fe,,,,,,,,,4029,59,-40,1,0,0,response3disk,,5,26,-14,1,0,0,rectangle,26,-14,1,0,0,26,-14,1,0,0,0,126,126,58,1,,,,,,,,
,,,,,,,,,,,,,FF,,,,,,,,0.966,,,,,,,,,,,,,,,,,,,,,,60ff6d15b88e2391dbaede06,61036d9e236ad4ffc5587c8c,2021-07-29_22h11.09.989,Simcolourproject_2stim_asymm_v5,2020.2.10,MacIntel,60,61025ae37ef11b136ea224fe,,,,,,,,,3267,62,-27,1,0,0,response3disk,,5,12,-10,1,0,0,rectangle,12,-10,1,0,0,12,-10,1,0,0,0,127,127,156,1,,,,,,,,
,,,,,,,,,,,,,FF,,,,,,,,1.267,,,,,,,,,,,,,,,,,,,,,,60ff6d15b88e2391dbaede06,61036d9e236ad4ffc5587c8c,2021-07-29_22h11.09.989,Simcolourproject_2stim_asymm_v5,2020.2.10,MacIntel,60,61025ae37ef11b136ea224fe,,,,,,,,,3737,-36,-60,1,0,0,response5disk,,3,-11,-4,1,0,0,rectangle,-11,-4,1,0,0,-11,-4,1,0,0,0,128,128,77,1,,,,,,,,
,,,,,,,,,,,,,FF,,,,,,,,1.048,,,,,,,,,,,,,,,,,,,,,,60ff6d15b88e2391dbaede06,61036d9e236ad4ffc5587c8c,2021-07-29_22h11.09.989,Simcolourproject_2stim_asymm_v5,2020.2.10,MacIntel,60,61025ae37ef11b136ea224fe,,,,,,,,,3420,27,-58,1,0,0,response3disk,,4,7,-7,1,0,0,rectangle,7,-7,1,0,0,7,-7,1,0,0,0,129,129,63,1,,,,,,,,
,,,,,,,,,,,,,FF,,,,,,,,0.983,,,,,,,,,,,,,,,,,,,,,,60ff6d15b88e2391dbaede06,61036d9e236ad4ffc5587c8c,2021-07-29_22h11.09.989,Simcolourproject_2stim_asymm_v5,2020.2.10,MacIntel,60,61025ae37ef11b136ea224fe,,,,,,,,,2963,75,-39,1,0,0,response3disk,,5,31,-8,1,0,0,rectangle,31,-8,1,0,0,31,-8,1,0,0,0,130,130,119,1,,,,,,,,
,,,,,,,,,,,,,FF,,,,,,,,1.1,,,,,,,,,,,,,,,,,,,,,,60ff6d15b88e2391dbaede06,61036d9e236ad4ffc5587c8c,2021-07-29_22h11.09.989,Simcolourproject_2stim_asymm_v5,2020.2.10,MacIntel,60,61025ae37ef11b136ea224fe,,,,,,,,,4189,-46,-52,1,0,0,response5disk,,3,-29,-9,1,0,0,rectangle,-29,-9,1,0,0,-29,-9,1,0,0,0,131,131,94,1,,,,,,,,
,,,,,,,,,,,,,FF,,,,,,,,1.3,,,,,,,,,,,,,,,,,,,,,,60ff6d15b88e2391dbaede06,61036d9e236ad4ffc5587c8c,2021-07-29_22h11.09.989,Simcolourproject_2stim_asymm_v5,2020.2.10,MacIntel,60,61025ae37ef11b136ea224fe,,,,,,,,,1730,35,64,1,0,0,response1disk,,7,4,-15,1,0,0,rectangle,4,-15,1,0,0,4,-15,1,0,0,0,132,132,0,1,,,,,,,,
,,,,,,,,,,,,,FF,,,,,,,,2.332,,,,,,,,,,,,,,,,,,,,,,60ff6d15b88e2391dbaede06,61036d9e236ad4ffc5587c8c,2021-07-29_22h11.09.989,Simcolourproject_2stim_asymm_v5,2020.2.10,MacIntel,60,61025ae37ef11b136ea224fe,,,,,,,,,385,-36,-83,1,0,0,response5disk,,3,-24,-13,1,0,0,rectangle,-24,-13,1,0,0,-24,-13,1,0,0,0,133,133,7,1,,,,,,,,
,,,,,,,,,,,,,FF,,,,,,,,1.834,,,,,,,,,,,,,,,,,,,,,,60ff6d15b88e2391dbaede06,61036d9e236ad4ffc5587c8c,2021-07-29_22h11.09.989,Simcolourproject_2stim_asymm_v5,2020.2.10,MacIntel,60,61025ae37ef11b136ea224fe,,,,,,,,,1632,67,-21,1,0,0,response3disk,,5,16,-2,1,0,0,rectangle,16,-2,1,0,0,16,-2,1,0,0,0,134,134,123,1,,,,,,,,
,,,,,,,,,,,,,FF,,,,,,,,1.416,,,,,,,,,,,,,,,,,,,,,,60ff6d15b88e2391dbaede06,61036d9e236ad4ffc5587c8c,2021-07-29_22h11.09.989,Simcolourproject_2stim_asymm_v5,2020.2.10,MacIntel,60,61025ae37ef11b136ea224fe,,,,,,,,,3321,50,80,1,0,0,response1disk,,7,15,3,1,0,0,rectangle,15,3,1,0,0,15,3,1,0,0,0,135,135,41,1,,,,,,,,
,,,,,,,,,,,,,FF,,,,,,,,1.365,,,,,,,,,,,,,,,,,,,,,,60ff6d15b88e2391dbaede06,61036d9e236ad4ffc5587c8c,2021-07-29_22h11.09.989,Simcolourproject_2stim_asymm_v5,2020.2.10,MacIntel,60,61025ae37ef11b136ea224fe,,,,,,,,,2448,37,-63,1,0,0,response3disk,,4,3,-3,1,0,0,rectangle,3,-3,1,0,0,3,-3,1,0,0,0,136,136,23,1,,,,,,,,
,,,,,,,,,,,,,FF,,,,,,,,2.45,,,,,,,,,,,,,,,,,,,,,,60ff6d15b88e2391dbaede06,61036d9e236ad4ffc5587c8c,2021-07-29_22h11.09.989,Simcolourproject_2stim_asymm_v5,2020.2.10,MacIntel,60,61025ae37ef11b136ea224fe,,,,,,,,,190,-56,-62,1,0,0,response5disk,,3,-4,-2,1,0,0,rectangle,-4,-2,1,0,0,-4,-2,1,0,0,0,137,137,22,1,,,,,,,,
,,,,,,,,,,,,,FF,,,,,,,,0.999,,,,,,,,,,,,,,,,,,,,,,60ff6d15b88e2391dbaede06,61036d9e236ad4ffc5587c8c,2021-07-29_22h11.09.989,Simcolourproject_2stim_asymm_v5,2020.2.10,MacIntel,60,61025ae37ef11b136ea224fe,,,,,,,,,1087,68,54,1,0,0,response1disk,,6,17,1,1,0,0,rectangle,17,1,1,0,0,17,1,1,0,0,0,138,138,145,1,,,,,,,,
,,,,,,,,,,,,,FF,,,,,,,,1.199,,,,,,,,,,,,,,,,,,,,,,60ff6d15b88e2391dbaede06,61036d9e236ad4ffc5587c8c,2021-07-29_22h11.09.989,Simcolourproject_2stim_asymm_v5,2020.2.10,MacIntel,60,61025ae37ef11b136ea224fe,,,,,,,,,1277,32,-72,1,0,0,response3disk,,4,13,2,1,0,0,rectangle,13,2,1,0,0,13,2,1,0,0,0,139,139,36,1,,,,,,,,
,,,,,,,,,,,,,FF,,,,,,,,2.715,,,,,,,,,,,,,,,,,,,,,,60ff6d15b88e2391dbaede06,61036d9e236ad4ffc5587c8c,2021-07-29_22h11.09.989,Simcolourproject_2stim_asymm_v5,2020.2.10,MacIntel,60,61025ae37ef11b136ea224fe,,,,,,,,,2496,38,-79,1,0,0,response3disk,,4,4,-7,1,0,0,rectangle,4,-7,1,0,0,4,-7,1,0,0,0,140,140,100,1,,,,,,,,
,,,,,,,,,,,,,FF,,,,,,,,0.765,,,,,,,,,,,,,,,,,,,,,,60ff6d15b88e2391dbaede06,61036d9e236ad4ffc5587c8c,2021-07-29_22h11.09.989,Simcolourproject_2stim_asymm_v5,2020.2.10,MacIntel,60,61025ae37ef11b136ea224fe,,,,,,,,,2487,55,23,1,0,0,response1disk,,6,-2,-8,1,0,0,rectangle,-2,-8,1,0,0,-2,-8,1,0,0,0,141,141,105,1,,,,,,,,
,,,,,,,,,,,,,FF,,,,,,,,0.7,,,,,,,,,,,,,,,,,,,,,,60ff6d15b88e2391dbaede06,61036d9e236ad4ffc5587c8c,2021-07-29_22h11.09.989,Simcolourproject_2stim_asymm_v5,2020.2.10,MacIntel,60,61025ae37ef11b136ea224fe,,,,,,,,,861,35,-53,1,0,0,response3disk,,4,12,9,1,0,0,rectangle,12,9,1,0,0,12,9,1,0,0,0,142,142,24,1,,,,,,,,
,,,,,,,,,,,,,FF,,,,,,,,0.867,,,,,,,,,,,,,,,,,,,,,,60ff6d15b88e2391dbaede06,61036d9e236ad4ffc5587c8c,2021-07-29_22h11.09.989,Simcolourproject_2stim_asymm_v5,2020.2.10,MacIntel,60,61025ae37ef11b136ea224fe,,,,,,,,,2646,45,20,1,0,0,response1disk,,6,5,-11,1,0,0,rectangle,5,-11,1,0,0,5,-11,1,0,0,0,143,143,101,1,,,,,,,,
,,,,,,,,,,,,,FF,,,,,,,,0.782,,,,,,,,,,,,,,,,,,,,,,60ff6d15b88e2391dbaede06,61036d9e236ad4ffc5587c8c,2021-07-29_22h11.09.989,Simcolourproject_2stim_asymm_v5,2020.2.10,MacIntel,60,61025ae37ef11b136ea224fe,,,,,,,,,4043,32,-51,1,0,0,response3disk,,4,22,-9,1,0,0,rectangle,22,-9,1,0,0,22,-9,1,0,0,0,144,144,88,1,,,,,,,,
,,,,,,,,,,,,,FF,,,,,,,,0.733,,,,,,,,,,,,,,,,,,,,,,60ff6d15b88e2391dbaede06,61036d9e236ad4ffc5587c8c,2021-07-29_22h11.09.989,Simcolourproject_2stim_asymm_v5,2020.2.10,MacIntel,60,61025ae37ef11b136ea224fe,,,,,,,,,3085,41,65,1,0,0,response1disk,,7,19,14,1,0,0,rectangle,-84,43,1,0,0,-1,0,1,0,0,0,145,145,45,1,,response7disk_3,TRUE,1,1,"[260,152,322,53,40,302,278,95,124,220,166,146,240,208,184,113,51,296,105,169]",7.311,rectangle
,,,,,,,,,,,,,FF,,,,,,,,0.85,,,,,,,,,,,,,,,,,,,,,,60ff6d15b88e2391dbaede06,61036d9e236ad4ffc5587c8c,2021-07-29_22h11.09.989,Simcolourproject_2stim_asymm_v5,2020.2.10,MacIntel,60,61025ae37ef11b136ea224fe,,,,,,,,,2530,57,36,1,0,0,response1disk,,6,24,-8,1,0,0,rectangle,24,-8,1,0,0,24,-8,1,0,0,0,146,146,155,1,,,,,,,,
,,,,,,,,,,,,,FF,,,,,,,,0.883,,,,,,,,,,,,,,,,,,,,,,60ff6d15b88e2391dbaede06,61036d9e236ad4ffc5587c8c,2021-07-29_22h11.09.989,Simcolourproject_2stim_asymm_v5,2020.2.10,MacIntel,60,61025ae37ef11b136ea224fe,,,,,,,,,3908,-73,23,1,0,0,response7disk,,1,-16,6,1,0,0,rectangle,-16,6,1,0,0,-16,6,1,0,0,0,147,147,62,1,,,,,,,,
,,,,,,,,,,,,,FF,,,,,,,,7.534,,,,,,,,,,,,,,,,,,,,,,60ff6d15b88e2391dbaede06,61036d9e236ad4ffc5587c8c,2021-07-29_22h11.09.989,Simcolourproject_2stim_asymm_v5,2020.2.10,MacIntel,60,61025ae37ef11b136ea224fe,,,,,,,,,4028,43,-43,1,0,0,response3disk,,5,6,0,1,0,0,rectangle,6,0,1,0,0,6,0,1,0,0,0,148,148,17,1,,,,,,,,
,,,,,,,,,,,,,FF,,,,,,,,1.832,,,,,,,,,,,,,,,,,,,,,,60ff6d15b88e2391dbaede06,61036d9e236ad4ffc5587c8c,2021-07-29_22h11.09.989,Simcolourproject_2stim_asymm_v5,2020.2.10,MacIntel,60,61025ae37ef11b136ea224fe,,,,,,,,,4016,58,38,1,0,0,response1disk,,6,26,4,1,0,0,rectangle,26,4,1,0,0,26,4,1,0,0,0,149,149,5,1,,,,,,,,
,,,,,,,,,,,,,FF,,,,,,,,0.866,,,,,,,,,,,,,,,,,,,,,,60ff6d15b88e2391dbaede06,61036d9e236ad4ffc5587c8c,2021-07-29_22h11.09.989,Simcolourproject_2stim_asymm_v5,2020.2.10,MacIntel,60,61025ae37ef11b136ea224fe,,,,,,,,,2619,53,71,1,0,0,response1disk,,7,22,3,1,0,0,rectangle,22,3,1,0,0,22,3,1,0,0,0,150,150,103,1,,,,,,,,
,,,,,,,,,,,,,FF,,,,,,,,1.016,,,,,,,,,,,,,,,,,,,,,,60ff6d15b88e2391dbaede06,61036d9e236ad4ffc5587c8c,2021-07-29_22h11.09.989,Simcolourproject_2stim_asymm_v5,2020.2.10,MacIntel,60,61025ae37ef11b136ea224fe,,,,,,,,,620,-36,-47,1,0,0,response5disk,,3,-29,-15,1,0,0,rectangle,70,35,1,0,0,9,9,1,0,0,0,151,151,159,1,,response1disk_3,TRUE,6,6,"[260,152,322,53,40,302,278,95,124,220,166,146,240,208,184,113,51,296,105,169]",1.816,rectangle
,,,,,,,,,,,,,FF,,,,,,,,1.217,,,,,,,,,,,,,,,,,,,,,,60ff6d15b88e2391dbaede06,61036d9e236ad4ffc5587c8c,2021-07-29_22h11.09.989,Simcolourproject_2stim_asymm_v5,2020.2.10,MacIntel,60,61025ae37ef11b136ea224fe,,,,,,,,,3876,38,58,1,0,0,response1disk,,7,19,2,1,0,0,rectangle,19,2,1,0,0,19,2,1,0,0,0,152,152,68,1,,,,,,,,
,,,,,,,,,,,,,FF,,,,,,,,0.866,,,,,,,,,,,,,,,,,,,,,,60ff6d15b88e2391dbaede06,61036d9e236ad4ffc5587c8c,2021-07-29_22h11.09.989,Simcolourproject_2stim_asymm_v5,2020.2.10,MacIntel,60,61025ae37ef11b136ea224fe,,,,,,,,,3399,49,30,1,0,0,response1disk,,6,2,-4,1,0,0,rectangle,2,-4,1,0,0,2,-4,1,0,0,0,153,153,79,1,,,,,,,,
,,,,,,,,,,,,,FF,,,,,,,,1.399,,,,,,,,,,,,,,,,,,,,,,60ff6d15b88e2391dbaede06,61036d9e236ad4ffc5587c8c,2021-07-29_22h11.09.989,Simcolourproject_2stim_asymm_v5,2020.2.10,MacIntel,60,61025ae37ef11b136ea224fe,,,,,,,,,75,36,-66,1,0,0,response3disk,,4,11,1,1,0,0,rectangle,11,1,1,0,0,11,1,1,0,0,0,154,154,19,1,,,,,,,,
,,,,,,,,,,,,,FF,,,,,,,,1.134,,,,,,,,,,,,,,,,,,,,,,60ff6d15b88e2391dbaede06,61036d9e236ad4ffc5587c8c,2021-07-29_22h11.09.989,Simcolourproject_2stim_asymm_v5,2020.2.10,MacIntel,60,61025ae37ef11b136ea224fe,,,,,,,,,1155,27,-64,1,0,0,response3disk,,4,12,-9,1,0,0,rectangle,12,-9,1,0,0,12,-9,1,0,0,0,155,155,66,1,,,,,,,,
,,,,,,,,,,,,,FF,,,,,,,,0.865,,,,,,,,,,,,,,,,,,,,,,60ff6d15b88e2391dbaede06,61036d9e236ad4ffc5587c8c,2021-07-29_22h11.09.989,Simcolourproject_2stim_asymm_v5,2020.2.10,MacIntel,60,61025ae37ef11b136ea224fe,,,,,,,,,1472,25,-67,1,0,0,response3disk,,4,15,-8,1,0,0,rectangle,15,-8,1,0,0,15,-8,1,0,0,0,156,156,142,1,,,,,,,,
,,,,,,,,,,,,,FF,,,,,,,,0.716,,,,,,,,,,,,,,,,,,,,,,60ff6d15b88e2391dbaede06,61036d9e236ad4ffc5587c8c,2021-07-29_22h11.09.989,Simcolourproject_2stim_asymm_v5,2020.2.10,MacIntel,60,61025ae37ef11b136ea224fe,,,,,,,,,858,40,24,1,0,0,response1disk,,6,10,1,1,0,0,rectangle,10,1,1,0,0,10,1,1,0,0,0,157,157,86,1,,,,,,,,
,,,,,,,,,,,,,FF,,,,,,,,1.266,,,,,,,,,,,,,,,,,,,,,,60ff6d15b88e2391dbaede06,61036d9e236ad4ffc5587c8c,2021-07-29_22h11.09.989,Simcolourproject_2stim_asymm_v5,2020.2.10,MacIntel,60,61025ae37ef11b136ea224fe,,,,,,,,,1005,43,-24,1,0,0,response3disk,,5,2,-5,1,0,0,rectangle,2,-5,1,0,0,2,-5,1,0,0,0,158,158,39,1,,,,,,,,
,,,,,,,,,,,,,FF,,,,,,,,0.716,,,,,,,,,,,,,,,,,,,,,,60ff6d15b88e2391dbaede06,61036d9e236ad4ffc5587c8c,2021-07-29_22h11.09.989,Simcolourproject_2stim_asymm_v5,2020.2.10,MacIntel,60,61025ae37ef11b136ea224fe,,,,,,,,,2961,46,25,1,0,0,response1disk,,6,15,-3,1,0,0,rectangle,15,-3,1,0,0,15,-3,1,0,0,0,159,159,114,1,,,,,,,,
,,,,,,,,,,,,,FF,,,,,,,,0.715,,,,,,,,,,,,,,,,,,,,,,60ff6d15b88e2391dbaede06,61036d9e236ad4ffc5587c8c,2021-07-29_22h11.09.989,Simcolourproject_2stim_asymm_v5,2020.2.10,MacIntel,60,61025ae37ef11b136ea224fe,,,,,,,,,3904,15,-54,1,0,0,response3disk,,4,5,-2,1,0,0,rectangle,5,-2,1,0,0,5,-2,1,0,0,1,0,160,89,1,,,,,,,,
,,,,,,,,,,,,,FF,,,,,,,,0.9,,,,,,,,,,,,,,,,,,,,,,60ff6d15b88e2391dbaede06,61036d9e236ad4ffc5587c8c,2021-07-29_22h11.09.989,Simcolourproject_2stim_asymm_v5,2020.2.10,MacIntel,60,61025ae37ef11b136ea224fe,,,,,,,,,1953,-34,-67,1,0,0,response5disk,,3,2,-11,1,0,0,rectangle,2,-11,1,0,0,2,-11,1,0,0,1,1,161,146,1,,,,,,,,
,,,,,,,,,,,,,FF,,,,,,,,0.8,,,,,,,,,,,,,,,,,,,,,,60ff6d15b88e2391dbaede06,61036d9e236ad4ffc5587c8c,2021-07-29_22h11.09.989,Simcolourproject_2stim_asymm_v5,2020.2.10,MacIntel,60,61025ae37ef11b136ea224fe,,,,,,,,,2072,38,78,1,0,0,response1disk,,7,8,-8,1,0,0,rectangle,8,-8,1,0,0,8,-8,1,0,0,1,2,162,59,1,,,,,,,,
,,,,,,,,,,,,,FF,,,,,,,,0.748,,,,,,,,,,,,,,,,,,,,,,60ff6d15b88e2391dbaede06,61036d9e236ad4ffc5587c8c,2021-07-29_22h11.09.989,Simcolourproject_2stim_asymm_v5,2020.2.10,MacIntel,60,61025ae37ef11b136ea224fe,,,,,,,,,3994,-46,-42,1,0,0,response5disk,,2,-18,-1,1,0,0,rectangle,-18,-1,1,0,0,-18,-1,1,0,0,1,3,163,103,1,,,,,,,,
,,,,,,,,,,,,,FF,,,,,,,,0.999,,,,,,,,,,,,,,,,,,,,,,60ff6d15b88e2391dbaede06,61036d9e236ad4ffc5587c8c,2021-07-29_22h11.09.989,Simcolourproject_2stim_asymm_v5,2020.2.10,MacIntel,60,61025ae37ef11b136ea224fe,,,,,,,,,3443,56,26,1,0,0,response1disk,,6,18,3,1,0,0,rectangle,18,3,1,0,0,18,3,1,0,0,1,4,164,10,1,,,,,,,,
,,,,,,,,,,,,,FF,,,,,,,,0.717,,,,,,,,,,,,,,,,,,,,,,60ff6d15b88e2391dbaede06,61036d9e236ad4ffc5587c8c,2021-07-29_22h11.09.989,Simcolourproject_2stim_asymm_v5,2020.2.10,MacIntel,60,61025ae37ef11b136ea224fe,,,,,,,,,3971,-50,-24,1,0,0,response5disk,,2,1,17,1,0,0,rectangle,-26,-47,1,0,0,4,7,1,0,0,1,5,165,153,1,,response5disk_3,TRUE,3,3,"[260,152,322,53,40,302,278,95,124,220,166,146,240,208,184,113,51,296,105,169]",5.733,rectangle
,,,,,,,,,,,,,FF,,,,,,,,0.916,,,,,,,,,,,,,,,,,,,,,,60ff6d15b88e2391dbaede06,61036d9e236ad4ffc5587c8c,2021-07-29_22h11.09.989,Simcolourproject_2stim_asymm_v5,2020.2.10,MacIntel,60,61025ae37ef11b136ea224fe,,,,,,,,,2276,48,76,1,0,0,response1disk,,7,23,4,1,0,0,rectangle,23,4,1,0,0,23,4,1,0,0,1,6,166,98,1,,,,,,,,
,,,,,,,,,,,,,FF,,,,,,,,2.7,,,,,,,,,,,,,,,,,,,,,,60ff6d15b88e2391dbaede06,61036d9e236ad4ffc5587c8c,2021-07-29_22h11.09.989,Simcolourproject_2stim_asymm_v5,2020.2.10,MacIntel,60,61025ae37ef11b136ea224fe,,,,,,,,,1601,-72,-45,1,0,0,response5disk,,2,-2,16,1,0,0,rectangle,-2,16,1,0,0,-2,16,1,0,0,1,7,167,34,1,,,,,,,,
,,,,,,,,,,,,,FF,,,,,,,,0.899,,,,,,,,,,,,,,,,,,,,,,60ff6d15b88e2391dbaede06,61036d9e236ad4ffc5587c8c,2021-07-29_22h11.09.989,Simcolourproject_2stim_asymm_v5,2020.2.10,MacIntel,60,61025ae37ef11b136ea224fe,,,,,,,,,62,68,65,1,0,0,response1disk,,6,30,6,1,0,0,rectangle,-59,-37,1,0,0,1,0,1,0,0,1,8,168,125,1,,response5disk_3,TRUE,2,2,"[260,152,322,53,40,302,278,95,124,220,166,146,240,208,184,113,51,296,105,169]",1.665,rectangle
,,,,,,,,,,,,,FF,,,,,,,,0.9,,,,,,,,,,,,,,,,,,,,,,60ff6d15b88e2391dbaede06,61036d9e236ad4ffc5587c8c,2021-07-29_22h11.09.989,Simcolourproject_2stim_asymm_v5,2020.2.10,MacIntel,60,61025ae37ef11b136ea224fe,,,,,,,,,1147,69,34,1,0,0,response1disk,,6,20,5,1,0,0,rectangle,20,5,1,0,0,20,5,1,0,0,1,9,169,109,1,,,,,,,,
,,,,,,,,,,,,,FF,,,,,,,,0.883,,,,,,,,,,,,,,,,,,,,,,60ff6d15b88e2391dbaede06,61036d9e236ad4ffc5587c8c,2021-07-29_22h11.09.989,Simcolourproject_2stim_asymm_v5,2020.2.10,MacIntel,60,61025ae37ef11b136ea224fe,,,,,,,,,418,31,54,1,0,0,response1disk,,7,18,-1,1,0,0,rectangle,18,-1,1,0,0,18,-1,1,0,0,1,10,170,86,1,,,,,,,,
,,,,,,,,,,,,,FF,,,,,,,,0.667,,,,,,,,,,,,,,,,,,,,,,60ff6d15b88e2391dbaede06,61036d9e236ad4ffc5587c8c,2021-07-29_22h11.09.989,Simcolourproject_2stim_asymm_v5,2020.2.10,MacIntel,60,61025ae37ef11b136ea224fe,,,,,,,,,617,25,-52,1,0,0,response3disk,,4,1,5,1,0,0,rectangle,1,5,1,0,0,1,5,1,0,0,1,11,171,24,1,,,,,,,,
,,,,,,,,,,,,,FF,,,,,,,,0.883,,,,,,,,,,,,,,,,,,,,,,60ff6d15b88e2391dbaede06,61036d9e236ad4ffc5587c8c,2021-07-29_22h11.09.989,Simcolourproject_2stim_asymm_v5,2020.2.10,MacIntel,60,61025ae37ef11b136ea224fe,,,,,,,,,2183,21,50,1,0,0,response1disk,,7,15,4,1,0,0,rectangle,15,4,1,0,0,15,4,1,0,0,1,12,172,14,1,,,,,,,,
,,,,,,,,,,,,,FF,,,,,,,,1.433,,,,,,,,,,,,,,,,,,,,,,60ff6d15b88e2391dbaede06,61036d9e236ad4ffc5587c8c,2021-07-29_22h11.09.989,Simcolourproject_2stim_asymm_v5,2020.2.10,MacIntel,60,61025ae37ef11b136ea224fe,,,,,,,,,1458,38,-72,1,0,0,response3disk,,4,-2,-2,1,0,0,rectangle,-2,-2,1,0,0,-2,-2,1,0,0,1,13,173,75,1,,,,,,,,
,,,,,,,,,,,,,FF,,,,,,,,2.966,,,,,,,,,,,,,,,,,,,,,,60ff6d15b88e2391dbaede06,61036d9e236ad4ffc5587c8c,2021-07-29_22h11.09.989,Simcolourproject_2stim_asymm_v5,2020.2.10,MacIntel,60,61025ae37ef11b136ea224fe,,,,,,,,,4255,-43,-96,1,0,0,response5disk,,3,7,-9,1,0,0,rectangle,7,-9,1,0,0,7,-9,1,0,0,1,14,174,58,1,,,,,,,,
,,,,,,,,,,,,,FF,,,,,,,,0.933,,,,,,,,,,,,,,,,,,,,,,60ff6d15b88e2391dbaede06,61036d9e236ad4ffc5587c8c,2021-07-29_22h11.09.989,Simcolourproject_2stim_asymm_v5,2020.2.10,MacIntel,60,61025ae37ef11b136ea224fe,,,,,,,,,1821,-37,-75,1,0,0,response5disk,,3,-2,9,1,0,0,rectangle,-2,9,1,0,0,-2,9,1,0,0,1,15,175,105,1,,,,,,,,
,,,,,,,,,,,,,FF,,,,,,,,3.3,,,,,,,,,,,,,,,,,,,,,,60ff6d15b88e2391dbaede06,61036d9e236ad4ffc5587c8c,2021-07-29_22h11.09.989,Simcolourproject_2stim_asymm_v5,2020.2.10,MacIntel,60,61025ae37ef11b136ea224fe,,,,,,,,,1218,-61,-38,1,0,0,response5disk,,2,-18,-7,1,0,0,rectangle,-18,-7,1,0,0,-18,-7,1,0,0,1,16,176,143,1,,,,,,,,
,,,,,,,,,,,,,FF,,,,,,,,0.75,,,,,,,,,,,,,,,,,,,,,,60ff6d15b88e2391dbaede06,61036d9e236ad4ffc5587c8c,2021-07-29_22h11.09.989,Simcolourproject_2stim_asymm_v5,2020.2.10,MacIntel,60,61025ae37ef11b136ea224fe,,,,,,,,,1503,41,55,1,0,0,response1disk,,7,22,7,1,0,0,rectangle,22,7,1,0,0,22,7,1,0,0,1,17,177,85,1,,,,,,,,
,,,,,,,,,,,,,FF,,,,,,,,1.3,,,,,,,,,,,,,,,,,,,,,,60ff6d15b88e2391dbaede06,61036d9e236ad4ffc5587c8c,2021-07-29_22h11.09.989,Simcolourproject_2stim_asymm_v5,2020.2.10,MacIntel,60,61025ae37ef11b136ea224fe,,,,,,,,,1526,43,-21,1,0,0,response3disk,,5,23,-5,1,0,0,rectangle,23,-5,1,0,0,23,-5,1,0,0,1,18,178,74,1,,,,,,,,
,,,,,,,,,,,,,FF,,,,,,,,0.782,,,,,,,,,,,,,,,,,,,,,,60ff6d15b88e2391dbaede06,61036d9e236ad4ffc5587c8c,2021-07-29_22h11.09.989,Simcolourproject_2stim_asymm_v5,2020.2.10,MacIntel,60,61025ae37ef11b136ea224fe,,,,,,,,,1310,-34,-80,1,0,0,response5disk,,3,-2,-5,1,0,0,rectangle,-2,-5,1,0,0,-2,-5,1,0,0,1,19,179,129,1,,,,,,,,
,,,,,,,,,,,,,FF,,,,,,,,1.168,,,,,,,,,,,,,,,,,,,,,,60ff6d15b88e2391dbaede06,61036d9e236ad4ffc5587c8c,2021-07-29_22h11.09.989,Simcolourproject_2stim_asymm_v5,2020.2.10,MacIntel,60,61025ae37ef11b136ea224fe,,,,,,,,,3219,51,68,1,0,0,response1disk,,7,19,3,1,0,0,rectangle,19,3,1,0,0,19,3,1,0,0,1,20,180,93,1,,,,,,,,
,,,,,,,,,,,,,FF,,,,,,,,0.916,,,,,,,,,,,,,,,,,,,,,,60ff6d15b88e2391dbaede06,61036d9e236ad4ffc5587c8c,2021-07-29_22h11.09.989,Simcolourproject_2stim_asymm_v5,2020.2.10,MacIntel,60,61025ae37ef11b136ea224fe,,,,,,,,,3843,-33,62,1,0,0,response7disk,,0,-9,3,1,0,0,rectangle,-9,3,1,0,0,-9,3,1,0,0,1,21,181,76,1,,,,,,,,
,,,,,,,,,,,,,FF,,,,,,,,2,,,,,,,,,,,,,,,,,,,,,,60ff6d15b88e2391dbaede06,61036d9e236ad4ffc5587c8c,2021-07-29_22h11.09.989,Simcolourproject_2stim_asymm_v5,2020.2.10,MacIntel,60,61025ae37ef11b136ea224fe,,,,,,,,,2651,-33,-68,1,0,0,response5disk,,3,-5,-11,1,0,0,rectangle,-5,-11,1,0,0,-5,-11,1,0,0,1,22,182,49,1,,,,,,,,
,,,,,,,,,,,,,FF,,,,,,,,1.117,,,,,,,,,,,,,,,,,,,,,,60ff6d15b88e2391dbaede06,61036d9e236ad4ffc5587c8c,2021-07-29_22h11.09.989,Simcolourproject_2stim_asymm_v5,2020.2.10,MacIntel,60,61025ae37ef11b136ea224fe,,,,,,,,,2099,-58,35,1,0,0,response7disk,,1,-27,12,1,0,0,rectangle,-39,89,1,0,0,0,0,1,0,0,1,23,183,92,1,,response7disk_3,TRUE,0,0,"[260,152,322,53,40,302,278,95,124,220,166,146,240,208,184,113,51,296,105,169]",1.381,rectangle
,,,,,,,,,,,,,FF,,,,,,,,1.517,,,,,,,,,,,,,,,,,,,,,,60ff6d15b88e2391dbaede06,61036d9e236ad4ffc5587c8c,2021-07-29_22h11.09.989,Simcolourproject_2stim_asymm_v5,2020.2.10,MacIntel,60,61025ae37ef11b136ea224fe,,,,,,,,,1670,-33,79,1,0,0,response7disk,,0,10,0,1,0,0,rectangle,10,0,1,0,0,10,0,1,0,0,1,24,184,53,1,,,,,,,,
,,,,,,,,,,,,,FF,,,,,,,,1.833,,,,,,,,,,,,,,,,,,,,,,60ff6d15b88e2391dbaede06,61036d9e236ad4ffc5587c8c,2021-07-29_22h11.09.989,Simcolourproject_2stim_asymm_v5,2020.2.10,MacIntel,60,61025ae37ef11b136ea224fe,,,,,,,,,3744,-91,40,1,0,0,response7disk,,1,-11,0,1,0,0,rectangle,-11,0,1,0,0,-11,0,1,0,0,1,25,185,134,1,,,,,,,,
,,,,,,,,,,,,,FF,,,,,,,,0.781,,,,,,,,,,,,,,,,,,,,,,60ff6d15b88e2391dbaede06,61036d9e236ad4ffc5587c8c,2021-07-29_22h11.09.989,Simcolourproject_2stim_asymm_v5,2020.2.10,MacIntel,60,61025ae37ef11b136ea224fe,,,,,,,,,1545,44,-54,1,0,0,response3disk,,4,12,8,1,0,0,rectangle,12,8,1,0,0,12,8,1,0,0,1,26,186,9,1,,,,,,,,
,,,,,,,,,,,,,FF,,,,,,,,0.616,,,,,,,,,,,,,,,,,,,,,,60ff6d15b88e2391dbaede06,61036d9e236ad4ffc5587c8c,2021-07-29_22h11.09.989,Simcolourproject_2stim_asymm_v5,2020.2.10,MacIntel,60,61025ae37ef11b136ea224fe,,,,,,,,,976,43,31,1,0,0,response1disk,,6,5,1,1,0,0,rectangle,5,1,1,0,0,5,1,1,0,0,1,27,187,96,1,,,,,,,,
,,,,,,,,,,,,,FF,,,,,,,,0.85,,,,,,,,,,,,,,,,,,,,,,60ff6d15b88e2391dbaede06,61036d9e236ad4ffc5587c8c,2021-07-29_22h11.09.989,Simcolourproject_2stim_asymm_v5,2020.2.10,MacIntel,60,61025ae37ef11b136ea224fe,,,,,,,,,3113,25,-47,1,0,0,response3disk,,4,10,-12,1,0,0,rectangle,10,-12,1,0,0,10,-12,1,0,0,1,28,188,26,1,,,,,,,,
,,,,,,,,,,,,,FF,,,,,,,,0.749,,,,,,,,,,,,,,,,,,,,,,60ff6d15b88e2391dbaede06,61036d9e236ad4ffc5587c8c,2021-07-29_22h11.09.989,Simcolourproject_2stim_asymm_v5,2020.2.10,MacIntel,60,61025ae37ef11b136ea224fe,,,,,,,,,3854,52,37,1,0,0,response1disk,,6,10,2,1,0,0,rectangle,10,2,1,0,0,10,2,1,0,0,1,29,189,99,1,,,,,,,,
,,,,,,,,,,,,,FF,,,,,,,,0.616,,,,,,,,,,,,,,,,,,,,,,60ff6d15b88e2391dbaede06,61036d9e236ad4ffc5587c8c,2021-07-29_22h11.09.989,Simcolourproject_2stim_asymm_v5,2020.2.10,MacIntel,60,61025ae37ef11b136ea224fe,,,,,,,,,943,17,47,1,0,0,response1disk,,7,11,2,1,0,0,rectangle,11,2,1,0,0,11,2,1,0,0,1,30,190,1,1,,,,,,,,
,,,,,,,,,,,,,FF,,,,,,,,1.016,,,,,,,,,,,,,,,,,,,,,,60ff6d15b88e2391dbaede06,61036d9e236ad4ffc5587c8c,2021-07-29_22h11.09.989,Simcolourproject_2stim_asymm_v5,2020.2.10,MacIntel,60,61025ae37ef11b136ea224fe,,,,,,,,,414,63,-34,1,0,0,response3disk,,5,18,-6,1,0,0,rectangle,18,-6,1,0,0,18,-6,1,0,0,1,31,191,88,1,,,,,,,,
,,,,,,,,,,,,,FF,,,,,,,,0.732,,,,,,,,,,,,,,,,,,,,,,60ff6d15b88e2391dbaede06,61036d9e236ad4ffc5587c8c,2021-07-29_22h11.09.989,Simcolourproject_2stim_asymm_v5,2020.2.10,MacIntel,60,61025ae37ef11b136ea224fe,,,,,,,,,2625,25,44,1,0,0,response1disk,,7,9,-6,1,0,0,rectangle,9,-6,1,0,0,9,-6,1,0,0,1,32,192,144,1,,,,,,,,
,,,,,,,,,,,,,FF,,,,,,,,1.183,,,,,,,,,,,,,,,,,,,,,,60ff6d15b88e2391dbaede06,61036d9e236ad4ffc5587c8c,2021-07-29_22h11.09.989,Simcolourproject_2stim_asymm_v5,2020.2.10,MacIntel,60,61025ae37ef11b136ea224fe,,,,,,,,,4127,28,-66,1,0,0,response3disk,,4,8,-8,1,0,0,rectangle,8,-8,1,0,0,8,-8,1,0,0,1,33,193,118,1,,,,,,,,
,,,,,,,,,,,,,FF,,,,,,,,0.833,,,,,,,,,,,,,,,,,,,,,,60ff6d15b88e2391dbaede06,61036d9e236ad4ffc5587c8c,2021-07-29_22h11.09.989,Simcolourproject_2stim_asymm_v5,2020.2.10,MacIntel,60,61025ae37ef11b136ea224fe,,,,,,,,,1052,-30,-71,1,0,0,response5disk,,3,-18,-3,1,0,0,rectangle,-18,-3,1,0,0,-18,-3,1,0,0,1,34,194,63,1,,,,,,,,
,,,,,,,,,,,,,FF,,,,,,,,1.398,,,,,,,,,,,,,,,,,,,,,,60ff6d15b88e2391dbaede06,61036d9e236ad4ffc5587c8c,2021-07-29_22h11.09.989,Simcolourproject_2stim_asymm_v5,2020.2.10,MacIntel,60,61025ae37ef11b136ea224fe,,,,,,,,,3970,-18,-62,1,0,0,response5disk,,3,7,-3,1,0,0,rectangle,7,-3,1,0,0,7,-3,1,0,0,1,35,195,127,1,,,,,,,,
,,,,,,,,,,,,,FF,,,,,,,,3.067,,,,,,,,,,,,,,,,,,,,,,60ff6d15b88e2391dbaede06,61036d9e236ad4ffc5587c8c,2021-07-29_22h11.09.989,Simcolourproject_2stim_asymm_v5,2020.2.10,MacIntel,60,61025ae37ef11b136ea224fe,,,,,,,,,237,70,-33,1,0,0,response3disk,,5,13,17,1,0,0,rectangle,13,17,1,0,0,13,17,1,0,0,1,36,196,0,1,,,,,,,,
,,,,,,,,,,,,,FF,,,,,,,,1.366,,,,,,,,,,,,,,,,,,,,,,60ff6d15b88e2391dbaede06,61036d9e236ad4ffc5587c8c,2021-07-29_22h11.09.989,Simcolourproject_2stim_asymm_v5,2020.2.10,MacIntel,60,61025ae37ef11b136ea224fe,,,,,,,,,4134,62,31,1,0,0,response1disk,,6,11,-6,1,0,0,rectangle,11,-6,1,0,0,11,-6,1,0,0,1,37,197,45,1,,,,,,,,
,,,,,,,,,,,,,FF,,,,,,,,0.85,,,,,,,,,,,,,,,,,,,,,,60ff6d15b88e2391dbaede06,61036d9e236ad4ffc5587c8c,2021-07-29_22h11.09.989,Simcolourproject_2stim_asymm_v5,2020.2.10,MacIntel,60,61025ae37ef11b136ea224fe,,,,,,,,,2987,-29,-59,1,0,0,response5disk,,3,-10,3,1,0,0,rectangle,-10,3,1,0,0,-10,3,1,0,0,1,38,198,152,1,,,,,,,,
,,,,,,,,,,,,,FF,,,,,,,,0.916,,,,,,,,,,,,,,,,,,,,,,60ff6d15b88e2391dbaede06,61036d9e236ad4ffc5587c8c,2021-07-29_22h11.09.989,Simcolourproject_2stim_asymm_v5,2020.2.10,MacIntel,60,61025ae37ef11b136ea224fe,,,,,,,,,2208,50,44,1,0,0,response1disk,,6,15,-5,1,0,0,rectangle,15,-5,1,0,0,15,-5,1,0,0,1,39,199,107,1,,,,,,,,
,,,,,,,,,,,,,FF,,,,,,,,0.8,,,,,,,,,,,,,,,,,,,,,,60ff6d15b88e2391dbaede06,61036d9e236ad4ffc5587c8c,2021-07-29_22h11.09.989,Simcolourproject_2stim_asymm_v5,2020.2.10,MacIntel,60,61025ae37ef11b136ea224fe,,,,,,,,,3577,30,-54,1,0,0,response3disk,,4,7,-6,1,0,0,rectangle,7,-6,1,0,0,7,-6,1,0,0,1,40,200,80,1,,,,,,,,
,,,,,,,,,,,,,FF,,,,,,,,1.45,,,,,,,,,,,,,,,,,,,,,,60ff6d15b88e2391dbaede06,61036d9e236ad4ffc5587c8c,2021-07-29_22h11.09.989,Simcolourproject_2stim_asymm_v5,2020.2.10,MacIntel,60,61025ae37ef11b136ea224fe,,,,,,,,,870,-23,-66,1,0,0,response5disk,,3,-7,-2,1,0,0,rectangle,-7,-2,1,0,0,-7,-2,1,0,0,1,41,201,91,1,,,,,,,,
,,,,,,,,,,,,,FF,,,,,,,,0.817,,,,,,,,,,,,,,,,,,,,,,60ff6d15b88e2391dbaede06,61036d9e236ad4ffc5587c8c,2021-07-29_22h11.09.989,Simcolourproject_2stim_asymm_v5,2020.2.10,MacIntel,60,61025ae37ef11b136ea224fe,,,,,,,,,3382,-66,-33,1,0,0,response5disk,,2,-22,1,1,0,0,rectangle,-22,1,1,0,0,-22,1,1,0,0,1,42,202,18,1,,,,,,,,
,,,,,,,,,,,,,FF,,,,,,,,0.783,,,,,,,,,,,,,,,,,,,,,,60ff6d15b88e2391dbaede06,61036d9e236ad4ffc5587c8c,2021-07-29_22h11.09.989,Simcolourproject_2stim_asymm_v5,2020.2.10,MacIntel,60,61025ae37ef11b136ea224fe,,,,,,,,,2939,42,74,1,0,0,response1disk,,7,23,-4,1,0,0,rectangle,23,-4,1,0,0,23,-4,1,0,0,1,43,203,4,1,,,,,,,,
,,,,,,,,,,,,,FF,,,,,,,,1.316,,,,,,,,,,,,,,,,,,,,,,60ff6d15b88e2391dbaede06,61036d9e236ad4ffc5587c8c,2021-07-29_22h11.09.989,Simcolourproject_2stim_asymm_v5,2020.2.10,MacIntel,60,61025ae37ef11b136ea224fe,,,,,,,,,2191,31,-51,1,0,0,response3disk,,4,12,-5,1,0,0,rectangle,12,-5,1,0,0,12,-5,1,0,0,1,44,204,43,1,,,,,,,,
,,,,,,,,,,,,,FF,,,,,,,,0.982,,,,,,,,,,,,,,,,,,,,,,60ff6d15b88e2391dbaede06,61036d9e236ad4ffc5587c8c,2021-07-29_22h11.09.989,Simcolourproject_2stim_asymm_v5,2020.2.10,MacIntel,60,61025ae37ef11b136ea224fe,,,,,,,,,738,35,-74,1,0,0,response3disk,,4,19,-14,1,0,0,rectangle,19,-14,1,0,0,19,-14,1,0,0,1,45,205,110,1,,,,,,,,
,,,,,,,,,,,,,FF,,,,,,,,1.633,,,,,,,,,,,,,,,,,,,,,,60ff6d15b88e2391dbaede06,61036d9e236ad4ffc5587c8c,2021-07-29_22h11.09.989,Simcolourproject_2stim_asymm_v5,2020.2.10,MacIntel,60,61025ae37ef11b136ea224fe,,,,,,,,,880,67,55,1,0,0,response1disk,,6,34,2,1,0,0,rectangle,34,2,1,0,0,34,2,1,0,0,1,46,206,108,1,,,,,,,,
,,,,,,,,,,,,,FF,,,,,,,,1.482,,,,,,,,,,,,,,,,,,,,,,60ff6d15b88e2391dbaede06,61036d9e236ad4ffc5587c8c,2021-07-29_22h11.09.989,Simcolourproject_2stim_asymm_v5,2020.2.10,MacIntel,60,61025ae37ef11b136ea224fe,,,,,,,,,3261,40,-84,1,0,0,response3disk,,4,14,-12,1,0,0,rectangle,68,50,1,0,0,26,10,1,0,0,1,47,207,42,1,,response1disk_3,TRUE,6,6,"[260,152,322,53,40,302,278,95,124,220,166,146,240,208,184,113,51,296,105,169]",1.632,rectangle
,,,,,,,,,,,,,FF,,,,,,,,2.982,,,,,,,,,,,,,,,,,,,,,,60ff6d15b88e2391dbaede06,61036d9e236ad4ffc5587c8c,2021-07-29_22h11.09.989,Simcolourproject_2stim_asymm_v5,2020.2.10,MacIntel,60,61025ae37ef11b136ea224fe,,,,,,,,,2494,75,-39,1,0,0,response3disk,,5,22,-10,1,0,0,rectangle,22,-10,1,0,0,22,-10,1,0,0,1,48,208,62,1,,,,,,,,
,,,,,,,,,,,,,FF,,,,,,,,1.633,,,,,,,,,,,,,,,,,,,,,,60ff6d15b88e2391dbaede06,61036d9e236ad4ffc5587c8c,2021-07-29_22h11.09.989,Simcolourproject_2stim_asymm_v5,2020.2.10,MacIntel,60,61025ae37ef11b136ea224fe,,,,,,,,,2502,74,-21,1,0,0,response3disk,,5,19,1,1,0,0,rectangle,19,1,1,0,0,19,1,1,0,0,1,49,209,15,1,,,,,,,,
,,,,,,,,,,,,,FF,,,,,,,,0.781,,,,,,,,,,,,,,,,,,,,,,60ff6d15b88e2391dbaede06,61036d9e236ad4ffc5587c8c,2021-07-29_22h11.09.989,Simcolourproject_2stim_asymm_v5,2020.2.10,MacIntel,60,61025ae37ef11b136ea224fe,,,,,,,,,3289,51,30,1,0,0,response1disk,,6,22,4,1,0,0,rectangle,22,4,1,0,0,22,4,1,0,0,1,50,210,21,1,,,,,,,,
,,,,,,,,,,,,,FF,,,,,,,,1.099,,,,,,,,,,,,,,,,,,,,,,60ff6d15b88e2391dbaede06,61036d9e236ad4ffc5587c8c,2021-07-29_22h11.09.989,Simcolourproject_2stim_asymm_v5,2020.2.10,MacIntel,60,61025ae37ef11b136ea224fe,,,,,,,,,4064,31,-67,1,0,0,response3disk,,4,6,8,1,0,0,rectangle,6,8,1,0,0,6,8,1,0,0,1,51,211,159,1,,,,,,,,
,,,,,,,,,,,,,FF,,,,,,,,0.717,,,,,,,,,,,,,,,,,,,,,,60ff6d15b88e2391dbaede06,61036d9e236ad4ffc5587c8c,2021-07-29_22h11.09.989,Simcolourproject_2stim_asymm_v5,2020.2.10,MacIntel,60,61025ae37ef11b136ea224fe,,,,,,,,,3102,-37,-47,1,0,0,response5disk,,3,3,2,1,0,0,rectangle,3,2,1,0,0,3,2,1,0,0,1,52,212,117,1,,,,,,,,
,,,,,,,,,,,,,FF,,,,,,,,0.683,,,,,,,,,,,,,,,,,,,,,,60ff6d15b88e2391dbaede06,61036d9e236ad4ffc5587c8c,2021-07-29_22h11.09.989,Simcolourproject_2stim_asymm_v5,2020.2.10,MacIntel,60,61025ae37ef11b136ea224fe,,,,,,,,,1991,36,62,1,0,0,response1disk,,7,18,6,1,0,0,rectangle,18,6,1,0,0,18,6,1,0,0,1,53,213,30,1,,,,,,,,
,,,,,,,,,,,,,FF,,,,,,,,1.45,,,,,,,,,,,,,,,,,,,,,,60ff6d15b88e2391dbaede06,61036d9e236ad4ffc5587c8c,2021-07-29_22h11.09.989,Simcolourproject_2stim_asymm_v5,2020.2.10,MacIntel,60,61025ae37ef11b136ea224fe,,,,,,,,,1594,78,23,1,0,0,response1disk,,6,-1,-12,1,0,0,rectangle,-1,-12,1,0,0,-1,-12,1,0,0,1,54,214,157,1,,,,,,,,
,,,,,,,,,,,,,FF,,,,,,,,0.798,,,,,,,,,,,,,,,,,,,,,,60ff6d15b88e2391dbaede06,61036d9e236ad4ffc5587c8c,2021-07-29_22h11.09.989,Simcolourproject_2stim_asymm_v5,2020.2.10,MacIntel,60,61025ae37ef11b136ea224fe,,,,,,,,,169,-43,-31,1,0,0,response5disk,,2,-20,-5,1,0,0,rectangle,-20,-5,1,0,0,-20,-5,1,0,0,1,55,215,17,1,,,,,,,,
,,,,,,,,,,,,,FF,,,,,,,,1.25,,,,,,,,,,,,,,,,,,,,,,60ff6d15b88e2391dbaede06,61036d9e236ad4ffc5587c8c,2021-07-29_22h11.09.989,Simcolourproject_2stim_asymm_v5,2020.2.10,MacIntel,60,61025ae37ef11b136ea224fe,,,,,,,,,4129,31,-96,1,0,0,response3disk,,4,16,-1,1,0,0,rectangle,16,-1,1,0,0,16,-1,1,0,0,1,56,216,6,1,,,,,,,,
,,,,,,,,,,,,,FF,,,,,,,,1,,,,,,,,,,,,,,,,,,,,,,60ff6d15b88e2391dbaede06,61036d9e236ad4ffc5587c8c,2021-07-29_22h11.09.989,Simcolourproject_2stim_asymm_v5,2020.2.10,MacIntel,60,61025ae37ef11b136ea224fe,,,,,,,,,1886,-69,35,1,0,0,response7disk,,1,-10,4,1,0,0,rectangle,-10,4,1,0,0,-10,4,1,0,0,1,57,217,68,1,,,,,,,,
,,,,,,,,,,,,,FF,,,,,,,,0.882,,,,,,,,,,,,,,,,,,,,,,60ff6d15b88e2391dbaede06,61036d9e236ad4ffc5587c8c,2021-07-29_22h11.09.989,Simcolourproject_2stim_asymm_v5,2020.2.10,MacIntel,60,61025ae37ef11b136ea224fe,,,,,,,,,1226,-35,-59,1,0,0,response5disk,,3,-19,5,1,0,0,rectangle,-19,5,1,0,0,-19,5,1,0,0,1,58,218,70,1,,,,,,,,
,,,,,,,,,,,,,FF,,,,,,,,0.684,,,,,,,,,,,,,,,,,,,,,,60ff6d15b88e2391dbaede06,61036d9e236ad4ffc5587c8c,2021-07-29_22h11.09.989,Simcolourproject_2stim_asymm_v5,2020.2.10,MacIntel,60,61025ae37ef11b136ea224fe,,,,,,,,,1449,-61,-29,1,0,0,response5disk,,2,-24,-1,1,0,0,rectangle,-83,-34,1,0,0,-6,-3,1,0,0,1,59,219,104,1,,response5disk_3,TRUE,2,2,"[260,152,322,53,40,302,278,95,124,220,166,146,240,208,184,113,51,296,105,169]",1.566,rectangle
,,,,,,,,,,,,,FF,,,,,,,,2.633,,,,,,,,,,,,,,,,,,,,,,60ff6d15b88e2391dbaede06,61036d9e236ad4ffc5587c8c,2021-07-29_22h11.09.989,Simcolourproject_2stim_asymm_v5,2020.2.10,MacIntel,60,61025ae37ef11b136ea224fe,,,,,,,,,1645,65,34,1,0,0,response1disk,,6,14,9,1,0,0,rectangle,14,9,1,0,0,14,9,1,0,0,1,60,220,115,1,,,,,,,,
,,,,,,,,,,,,,FF,,,,,,,,0.85,,,,,,,,,,,,,,,,,,,,,,60ff6d15b88e2391dbaede06,61036d9e236ad4ffc5587c8c,2021-07-29_22h11.09.989,Simcolourproject_2stim_asymm_v5,2020.2.10,MacIntel,60,61025ae37ef11b136ea224fe,,,,,,,,,1116,101,47,1,0,0,response1disk,,6,27,8,1,0,0,rectangle,27,8,1,0,0,27,8,1,0,0,1,61,221,54,1,,,,,,,,
,,,,,,,,,,,,,FF,,,,,,,,0.65,,,,,,,,,,,,,,,,,,,,,,60ff6d15b88e2391dbaede06,61036d9e236ad4ffc5587c8c,2021-07-29_22h11.09.989,Simcolourproject_2stim_asymm_v5,2020.2.10,MacIntel,60,61025ae37ef11b136ea224fe,,,,,,,,,3326,21,66,1,0,0,response1disk,,7,18,1,1,0,0,rectangle,18,1,1,0,0,18,1,1,0,0,1,62,222,113,1,,,,,,,,
,,,,,,,,,,,,,FF,,,,,,,,1.033,,,,,,,,,,,,,,,,,,,,,,60ff6d15b88e2391dbaede06,61036d9e236ad4ffc5587c8c,2021-07-29_22h11.09.989,Simcolourproject_2stim_asymm_v5,2020.2.10,MacIntel,60,61025ae37ef11b136ea224fe,,,,,,,,,3659,28,-74,1,0,0,response3disk,,4,13,4,1,0,0,rectangle,13,4,1,0,0,13,4,1,0,0,1,63,223,36,1,,,,,,,,
,,,,,,,,,,,,,FF,,,,,,,,0.8,,,,,,,,,,,,,,,,,,,,,,60ff6d15b88e2391dbaede06,61036d9e236ad4ffc5587c8c,2021-07-29_22h11.09.989,Simcolourproject_2stim_asymm_v5,2020.2.10,MacIntel,60,61025ae37ef11b136ea224fe,,,,,,,,,4040,30,-70,1,0,0,response3disk,,4,10,3,1,0,0,rectangle,10,3,1,0,0,10,3,1,0,0,1,64,224,57,1,,,,,,,,
,,,,,,,,,,,,,FF,,,,,,,,1.55,,,,,,,,,,,,,,,,,,,,,,60ff6d15b88e2391dbaede06,61036d9e236ad4ffc5587c8c,2021-07-29_22h11.09.989,Simcolourproject_2stim_asymm_v5,2020.2.10,MacIntel,60,61025ae37ef11b136ea224fe,,,,,,,,,2968,58,-34,1,0,0,response3disk,,5,26,-7,1,0,0,rectangle,26,-7,1,0,0,26,-7,1,0,0,1,65,225,64,1,,,,,,,,
,,,,,,,,,,,,,FF,,,,,,,,1.099,,,,,,,,,,,,,,,,,,,,,,60ff6d15b88e2391dbaede06,61036d9e236ad4ffc5587c8c,2021-07-29_22h11.09.989,Simcolourproject_2stim_asymm_v5,2020.2.10,MacIntel,60,61025ae37ef11b136ea224fe,,,,,,,,,1261,50,78,1,0,0,response1disk,,7,25,10,1,0,0,rectangle,25,10,1,0,0,25,10,1,0,0,1,66,226,16,1,,,,,,,,
,,,,,,,,,,,,,FF,,,,,,,,1.634,,,,,,,,,,,,,,,,,,,,,,60ff6d15b88e2391dbaede06,61036d9e236ad4ffc5587c8c,2021-07-29_22h11.09.989,Simcolourproject_2stim_asymm_v5,2020.2.10,MacIntel,60,61025ae37ef11b136ea224fe,,,,,,,,,3674,48,29,1,0,0,response1disk,,6,10,1,1,0,0,rectangle,10,1,1,0,0,10,1,1,0,0,1,67,227,3,1,,,,,,,,
,,,,,,,,,,,,,FF,,,,,,,,0.868,,,,,,,,,,,,,,,,,,,,,,60ff6d15b88e2391dbaede06,61036d9e236ad4ffc5587c8c,2021-07-29_22h11.09.989,Simcolourproject_2stim_asymm_v5,2020.2.10,MacIntel,60,61025ae37ef11b136ea224fe,,,,,,,,,4140,-52,66,1,0,0,response7disk,,0,-2,0,1,0,0,rectangle,-2,0,1,0,0,-2,0,1,0,0,1,68,228,67,1,,,,,,,,
,,,,,,,,,,,,,FF,,,,,,,,0.7,,,,,,,,,,,,,,,,,,,,,,60ff6d15b88e2391dbaede06,61036d9e236ad4ffc5587c8c,2021-07-29_22h11.09.989,Simcolourproject_2stim_asymm_v5,2020.2.10,MacIntel,60,61025ae37ef11b136ea224fe,,,,,,,,,2941,-26,61,1,0,0,response7disk,,0,-5,4,1,0,0,rectangle,-5,4,1,0,0,-5,4,1,0,0,1,69,229,13,1,,,,,,,,
,,,,,,,,,,,,,FF,,,,,,,,0.883,,,,,,,,,,,,,,,,,,,,,,60ff6d15b88e2391dbaede06,61036d9e236ad4ffc5587c8c,2021-07-29_22h11.09.989,Simcolourproject_2stim_asymm_v5,2020.2.10,MacIntel,60,61025ae37ef11b136ea224fe,,,,,,,,,477,-17,-64,1,0,0,response5disk,,3,-5,3,1,0,0,rectangle,-5,3,1,0,0,-5,3,1,0,0,1,70,230,61,1,,,,,,,,
,,,,,,,,,,,,,FF,,,,,,,,1.183,,,,,,,,,,,,,,,,,,,,,,60ff6d15b88e2391dbaede06,61036d9e236ad4ffc5587c8c,2021-07-29_22h11.09.989,Simcolourproject_2stim_asymm_v5,2020.2.10,MacIntel,60,61025ae37ef11b136ea224fe,,,,,,,,,1516,66,-45,1,0,0,response3disk,,5,7,2,1,0,0,rectangle,7,2,1,0,0,7,2,1,0,0,1,71,231,39,1,,,,,,,,
,,,,,,,,,,,,,FF,,,,,,,,0.933,,,,,,,,,,,,,,,,,,,,,,60ff6d15b88e2391dbaede06,61036d9e236ad4ffc5587c8c,2021-07-29_22h11.09.989,Simcolourproject_2stim_asymm_v5,2020.2.10,MacIntel,60,61025ae37ef11b136ea224fe,,,,,,,,,937,65,39,1,0,0,response1disk,,6,3,-9,1,0,0,rectangle,3,-9,1,0,0,3,-9,1,0,0,1,72,232,35,1,,,,,,,,
,,,,,,,,,,,,,FF,,,,,,,,0.884,,,,,,,,,,,,,,,,,,,,,,60ff6d15b88e2391dbaede06,61036d9e236ad4ffc5587c8c,2021-07-29_22h11.09.989,Simcolourproject_2stim_asymm_v5,2020.2.10,MacIntel,60,61025ae37ef11b136ea224fe,,,,,,,,,1268,27,68,1,0,0,response1disk,,7,13,0,1,0,0,rectangle,13,0,1,0,0,13,0,1,0,0,1,73,233,19,1,,,,,,,,
,,,,,,,,,,,,,FF,,,,,,,,1.133,,,,,,,,,,,,,,,,,,,,,,60ff6d15b88e2391dbaede06,61036d9e236ad4ffc5587c8c,2021-07-29_22h11.09.989,Simcolourproject_2stim_asymm_v5,2020.2.10,MacIntel,60,61025ae37ef11b136ea224fe,,,,,,,,,395,29,81,1,0,0,response1disk,,7,20,-2,1,0,0,rectangle,20,-2,1,0,0,20,-2,1,0,0,1,74,234,136,1,,,,,,,,
,,,,,,,,,,,,,FF,,,,,,,,0.95,,,,,,,,,,,,,,,,,,,,,,60ff6d15b88e2391dbaede06,61036d9e236ad4ffc5587c8c,2021-07-29_22h11.09.989,Simcolourproject_2stim_asymm_v5,2020.2.10,MacIntel,60,61025ae37ef11b136ea224fe,,,,,,,,,4106,34,-53,1,0,0,response3disk,,4,12,5,1,0,0,rectangle,12,5,1,0,0,12,5,1,0,0,1,75,235,79,1,,,,,,,,
,,,,,,,,,,,,,FF,,,,,,,,0.899,,,,,,,,,,,,,,,,,,,,,,60ff6d15b88e2391dbaede06,61036d9e236ad4ffc5587c8c,2021-07-29_22h11.09.989,Simcolourproject_2stim_asymm_v5,2020.2.10,MacIntel,60,61025ae37ef11b136ea224fe,,,,,,,,,753,67,26,1,0,0,response1disk,,6,29,6,1,0,0,rectangle,29,6,1,0,0,29,6,1,0,0,1,76,236,138,1,,,,,,,,
,,,,,,,,,,,,,FF,,,,,,,,1.566,,,,,,,,,,,,,,,,,,,,,,60ff6d15b88e2391dbaede06,61036d9e236ad4ffc5587c8c,2021-07-29_22h11.09.989,Simcolourproject_2stim_asymm_v5,2020.2.10,MacIntel,60,61025ae37ef11b136ea224fe,,,,,,,,,2876,23,50,1,0,0,response1disk,,7,23,-10,1,0,0,rectangle,23,-10,1,0,0,23,-10,1,0,0,1,77,237,56,1,,,,,,,,
,,,,,,,,,,,,,FF,,,,,,,,0.849,,,,,,,,,,,,,,,,,,,,,,60ff6d15b88e2391dbaede06,61036d9e236ad4ffc5587c8c,2021-07-29_22h11.09.989,Simcolourproject_2stim_asymm_v5,2020.2.10,MacIntel,60,61025ae37ef11b136ea224fe,,,,,,,,,3817,16,-68,1,0,0,response3disk,,4,-2,6,1,0,0,rectangle,-2,6,1,0,0,-2,6,1,0,0,1,78,238,60,1,,,,,,,,
,,,,,,,,,,,,,FF,,,,,,,,0.933,,,,,,,,,,,,,,,,,,,,,,60ff6d15b88e2391dbaede06,61036d9e236ad4ffc5587c8c,2021-07-29_22h11.09.989,Simcolourproject_2stim_asymm_v5,2020.2.10,MacIntel,60,61025ae37ef11b136ea224fe,,,,,,,,,2533,54,-25,1,0,0,response3disk,,5,21,3,1,0,0,rectangle,-64,-33,1,0,0,8,2,1,0,0,1,79,239,32,1,,response5disk_3,TRUE,2,2,"[260,152,322,53,40,302,278,95,124,220,166,146,240,208,184,113,51,296,105,169]",1.549,rectangle
,,,,,,,,,,,,,FF,,,,,,,,1.55,,,,,,,,,,,,,,,,,,,,,,60ff6d15b88e2391dbaede06,61036d9e236ad4ffc5587c8c,2021-07-29_22h11.09.989,Simcolourproject_2stim_asymm_v5,2020.2.10,MacIntel,60,61025ae37ef11b136ea224fe,,,,,,,,,4159,79,-45,1,0,0,response3disk,,5,1,-7,1,0,0,rectangle,1,-7,1,0,0,1,-7,1,0,0,1,80,240,11,1,,,,,,,,
,,,,,,,,,,,,,FF,,,,,,,,0.75,,,,,,,,,,,,,,,,,,,,,,60ff6d15b88e2391dbaede06,61036d9e236ad4ffc5587c8c,2021-07-29_22h11.09.989,Simcolourproject_2stim_asymm_v5,2020.2.10,MacIntel,60,61025ae37ef11b136ea224fe,,,,,,,,,445,-49,38,1,0,0,response7disk,,1,-1,-3,1,0,0,rectangle,-1,-3,1,0,0,-1,-3,1,0,0,1,81,241,120,1,,,,,,,,
,,,,,,,,,,,,,FF,,,,,,,,1.016,,,,,,,,,,,,,,,,,,,,,,60ff6d15b88e2391dbaede06,61036d9e236ad4ffc5587c8c,2021-07-29_22h11.09.989,Simcolourproject_2stim_asymm_v5,2020.2.10,MacIntel,60,61025ae37ef11b136ea224fe,,,,,,,,,705,-40,-64,1,0,0,response5disk,,3,-11,-4,1,0,0,rectangle,-11,-4,1,0,0,-11,-4,1,0,0,1,82,242,142,1,,,,,,,,
,,,,,,,,,,,,,FF,,,,,,,,0.783,,,,,,,,,,,,,,,,,,,,,,60ff6d15b88e2391dbaede06,61036d9e236ad4ffc5587c8c,2021-07-29_22h11.09.989,Simcolourproject_2stim_asymm_v5,2020.2.10,MacIntel,60,61025ae37ef11b136ea224fe,,,,,,,,,346,-34,-70,1,0,0,response5disk,,3,-22,-2,1,0,0,rectangle,-22,-2,1,0,0,-22,-2,1,0,0,1,83,243,55,1,,,,,,,,
,,,,,,,,,,,,,FF,,,,,,,,0.833,,,,,,,,,,,,,,,,,,,,,,60ff6d15b88e2391dbaede06,61036d9e236ad4ffc5587c8c,2021-07-29_22h11.09.989,Simcolourproject_2stim_asymm_v5,2020.2.10,MacIntel,60,61025ae37ef11b136ea224fe,,,,,,,,,1990,62,36,1,0,0,response1disk,,6,13,-3,1,0,0,rectangle,13,-3,1,0,0,13,-3,1,0,0,1,84,244,52,1,,,,,,,,
,,,,,,,,,,,,,FF,,,,,,,,0.817,,,,,,,,,,,,,,,,,,,,,,60ff6d15b88e2391dbaede06,61036d9e236ad4ffc5587c8c,2021-07-29_22h11.09.989,Simcolourproject_2stim_asymm_v5,2020.2.10,MacIntel,60,61025ae37ef11b136ea224fe,,,,,,,,,4297,71,34,1,0,0,response1disk,,6,26,16,1,0,0,rectangle,26,16,1,0,0,26,16,1,0,0,1,85,245,5,1,,,,,,,,
,,,,,,,,,,,,,FF,,,,,,,,0.95,,,,,,,,,,,,,,,,,,,,,,60ff6d15b88e2391dbaede06,61036d9e236ad4ffc5587c8c,2021-07-29_22h11.09.989,Simcolourproject_2stim_asymm_v5,2020.2.10,MacIntel,60,61025ae37ef11b136ea224fe,,,,,,,,,3144,58,-40,1,0,0,response3disk,,5,16,-5,1,0,0,rectangle,16,-5,1,0,0,16,-5,1,0,0,1,86,246,90,1,,,,,,,,
,,,,,,,,,,,,,FF,,,,,,,,0.65,,,,,,,,,,,,,,,,,,,,,,60ff6d15b88e2391dbaede06,61036d9e236ad4ffc5587c8c,2021-07-29_22h11.09.989,Simcolourproject_2stim_asymm_v5,2020.2.10,MacIntel,60,61025ae37ef11b136ea224fe,,,,,,,,,3444,22,50,1,0,0,response1disk,,7,14,-5,1,0,0,rectangle,14,-5,1,0,0,14,-5,1,0,0,1,87,247,158,1,,,,,,,,
,,,,,,,,,,,,,FF,,,,,,,,0.783,,,,,,,,,,,,,,,,,,,,,,60ff6d15b88e2391dbaede06,61036d9e236ad4ffc5587c8c,2021-07-29_22h11.09.989,Simcolourproject_2stim_asymm_v5,2020.2.10,MacIntel,60,61025ae37ef11b136ea224fe,,,,,,,,,3433,-35,-63,1,0,0,response5disk,,3,-10,-5,1,0,0,rectangle,-10,-5,1,0,0,-10,-5,1,0,0,1,88,248,154,1,,,,,,,,
,,,,,,,,,,,,,FF,,,,,,,,0.799,,,,,,,,,,,,,,,,,,,,,,60ff6d15b88e2391dbaede06,61036d9e236ad4ffc5587c8c,2021-07-29_22h11.09.989,Simcolourproject_2stim_asymm_v5,2020.2.10,MacIntel,60,61025ae37ef11b136ea224fe,,,,,,,,,2591,34,-49,1,0,0,response3disk,,4,9,7,1,0,0,rectangle,9,7,1,0,0,9,7,1,0,0,1,89,249,65,1,,,,,,,,
,,,,,,,,,,,,,FF,,,,,,,,1.766,,,,,,,,,,,,,,,,,,,,,,60ff6d15b88e2391dbaede06,61036d9e236ad4ffc5587c8c,2021-07-29_22h11.09.989,Simcolourproject_2stim_asymm_v5,2020.2.10,MacIntel,60,61025ae37ef11b136ea224fe,,,,,,,,,3840,-38,-62,1,0,0,response5disk,,3,-8,0,1,0,0,rectangle,-8,0,1,0,0,-8,0,1,0,0,1,90,250,151,1,,,,,,,,
,,,,,,,,,,,,,FF,,,,,,,,0.783,,,,,,,,,,,,,,,,,,,,,,60ff6d15b88e2391dbaede06,61036d9e236ad4ffc5587c8c,2021-07-29_22h11.09.989,Simcolourproject_2stim_asymm_v5,2020.2.10,MacIntel,60,61025ae37ef11b136ea224fe,,,,,,,,,1463,35,30,1,0,0,response1disk,,6,7,3,1,0,0,rectangle,7,3,1,0,0,7,3,1,0,0,1,91,251,122,1,,,,,,,,
,,,,,,,,,,,,,FF,,,,,,,,0.933,,,,,,,,,,,,,,,,,,,,,,60ff6d15b88e2391dbaede06,61036d9e236ad4ffc5587c8c,2021-07-29_22h11.09.989,Simcolourproject_2stim_asymm_v5,2020.2.10,MacIntel,60,61025ae37ef11b136ea224fe,,,,,,,,,3937,-63,31,1,0,0,response7disk,,1,14,-10,1,0,0,rectangle,14,-10,1,0,0,14,-10,1,0,0,1,92,252,150,1,,,,,,,,
,,,,,,,,,,,,,FF,,,,,,,,1.199,,,,,,,,,,,,,,,,,,,,,,60ff6d15b88e2391dbaede06,61036d9e236ad4ffc5587c8c,2021-07-29_22h11.09.989,Simcolourproject_2stim_asymm_v5,2020.2.10,MacIntel,60,61025ae37ef11b136ea224fe,,,,,,,,,3472,-36,-60,1,0,0,response5disk,,3,-23,-15,1,0,0,rectangle,-23,-15,1,0,0,-23,-15,1,0,0,1,93,253,82,1,,,,,,,,
,,,,,,,,,,,,,FF,,,,,,,,0.803,,,,,,,,,,,,,,,,,,,,,,60ff6d15b88e2391dbaede06,61036d9e236ad4ffc5587c8c,2021-07-29_22h11.09.989,Simcolourproject_2stim_asymm_v5,2020.2.10,MacIntel,60,61025ae37ef11b136ea224fe,,,,,,,,,1835,28,-58,1,0,0,response3disk,,4,-2,11,1,0,0,rectangle,-2,11,1,0,0,-2,11,1,0,0,1,94,254,66,1,,,,,,,,
,,,,,,,,,,,,,FF,,,,,,,,0.899,,,,,,,,,,,,,,,,,,,,,,60ff6d15b88e2391dbaede06,61036d9e236ad4ffc5587c8c,2021-07-29_22h11.09.989,Simcolourproject_2stim_asymm_v5,2020.2.10,MacIntel,60,61025ae37ef11b136ea224fe,,,,,,,,,3595,61,-28,1,0,0,response3disk,,5,10,15,1,0,0,rectangle,10,15,1,0,0,10,15,1,0,0,1,95,255,106,1,,,,,,,,
,,,,,,,,,,,,,FF,,,,,,,,0.683,,,,,,,,,,,,,,,,,,,,,,60ff6d15b88e2391dbaede06,61036d9e236ad4ffc5587c8c,2021-07-29_22h11.09.989,Simcolourproject_2stim_asymm_v5,2020.2.10,MacIntel,60,61025ae37ef11b136ea224fe,,,,,,,,,1490,52,38,1,0,0,response1disk,,6,-4,6,1,0,0,rectangle,-4,6,1,0,0,-4,6,1,0,0,1,96,256,69,1,,,,,,,,
,,,,,,,,,,,,,FF,,,,,,,,0.683,,,,,,,,,,,,,,,,,,,,,,60ff6d15b88e2391dbaede06,61036d9e236ad4ffc5587c8c,2021-07-29_22h11.09.989,Simcolourproject_2stim_asymm_v5,2020.2.10,MacIntel,60,61025ae37ef11b136ea224fe,,,,,,,,,1788,29,55,1,0,0,response1disk,,7,13,8,1,0,0,rectangle,13,8,1,0,0,13,8,1,0,0,1,97,257,111,1,,,,,,,,
,,,,,,,,,,,,,FF,,,,,,,,0.699,,,,,,,,,,,,,,,,,,,,,,60ff6d15b88e2391dbaede06,61036d9e236ad4ffc5587c8c,2021-07-29_22h11.09.989,Simcolourproject_2stim_asymm_v5,2020.2.10,MacIntel,60,61025ae37ef11b136ea224fe,,,,,,,,,1050,-48,79,1,0,0,response7disk,,0,1,0,1,0,0,rectangle,1,0,1,0,0,1,0,1,0,0,1,98,258,12,1,,,,,,,,
,,,,,,,,,,,,,FF,,,,,,,,0.832,,,,,,,,,,,,,,,,,,,,,,60ff6d15b88e2391dbaede06,61036d9e236ad4ffc5587c8c,2021-07-29_22h11.09.989,Simcolourproject_2stim_asymm_v5,2020.2.10,MacIntel,60,61025ae37ef11b136ea224fe,,,,,,,,,547,-51,-27,1,0,0,response5disk,,2,5,3,1,0,0,rectangle,-66,32,1,0,0,3,-11,1,0,0,1,99,259,148,1,,response7disk_3,TRUE,1,1,"[260,152,322,53,40,302,278,95,124,220,166,146,240,208,184,113,51,296,105,169]",2.049,rectangle
,,,,,,,,,,,,,FF,,,,,,,,0.683,,,,,,,,,,,,,,,,,,,,,,60ff6d15b88e2391dbaede06,61036d9e236ad4ffc5587c8c,2021-07-29_22h11.09.989,Simcolourproject_2stim_asymm_v5,2020.2.10,MacIntel,60,61025ae37ef11b136ea224fe,,,,,,,,,1721,61,-17,1,0,0,response3disk,,5,22,0,1,0,0,rectangle,22,0,1,0,0,22,0,1,0,0,1,100,260,25,1,,,,,,,,
,,,,,,,,,,,,,FF,,,,,,,,0.649,,,,,,,,,,,,,,,,,,,,,,60ff6d15b88e2391dbaede06,61036d9e236ad4ffc5587c8c,2021-07-29_22h11.09.989,Simcolourproject_2stim_asymm_v5,2020.2.10,MacIntel,60,61025ae37ef11b136ea224fe,,,,,,,,,364,47,23,1,0,0,response1disk,,6,19,6,1,0,0,rectangle,19,6,1,0,0,19,6,1,0,0,1,101,261,47,1,,,,,,,,
,,,,,,,,,,,,,FF,,,,,,,,0.833,,,,,,,,,,,,,,,,,,,,,,60ff6d15b88e2391dbaede06,61036d9e236ad4ffc5587c8c,2021-07-29_22h11.09.989,Simcolourproject_2stim_asymm_v5,2020.2.10,MacIntel,60,61025ae37ef11b136ea224fe,,,,,,,,,438,-78,-38,1,0,0,response5disk,,2,-17,0,1,0,0,rectangle,-17,0,1,0,0,-17,0,1,0,0,1,102,262,33,1,,,,,,,,
,,,,,,,,,,,,,FF,,,,,,,,0.7,,,,,,,,,,,,,,,,,,,,,,60ff6d15b88e2391dbaede06,61036d9e236ad4ffc5587c8c,2021-07-29_22h11.09.989,Simcolourproject_2stim_asymm_v5,2020.2.10,MacIntel,60,61025ae37ef11b136ea224fe,,,,,,,,,3143,-34,-65,1,0,0,response5disk,,3,10,6,1,0,0,rectangle,10,6,1,0,0,10,6,1,0,0,1,103,263,112,1,,,,,,,,
,,,,,,,,,,,,,FF,,,,,,,,0.783,,,,,,,,,,,,,,,,,,,,,,60ff6d15b88e2391dbaede06,61036d9e236ad4ffc5587c8c,2021-07-29_22h11.09.989,Simcolourproject_2stim_asymm_v5,2020.2.10,MacIntel,60,61025ae37ef11b136ea224fe,,,,,,,,,3752,33,-65,1,0,0,response3disk,,4,9,-8,1,0,0,rectangle,9,-8,1,0,0,9,-8,1,0,0,1,104,264,102,1,,,,,,,,
,,,,,,,,,,,,,FF,,,,,,,,0.933,,,,,,,,,,,,,,,,,,,,,,60ff6d15b88e2391dbaede06,61036d9e236ad4ffc5587c8c,2021-07-29_22h11.09.989,Simcolourproject_2stim_asymm_v5,2020.2.10,MacIntel,60,61025ae37ef11b136ea224fe,,,,,,,,,2694,56,-24,1,0,0,response3disk,,5,15,3,1,0,0,rectangle,15,3,1,0,0,15,3,1,0,0,1,105,265,121,1,,,,,,,,
,,,,,,,,,,,,,FF,,,,,,,,0.784,,,,,,,,,,,,,,,,,,,,,,60ff6d15b88e2391dbaede06,61036d9e236ad4ffc5587c8c,2021-07-29_22h11.09.989,Simcolourproject_2stim_asymm_v5,2020.2.10,MacIntel,60,61025ae37ef11b136ea224fe,,,,,,,,,4205,-58,-23,1,0,0,response5disk,,2,-14,2,1,0,0,rectangle,-14,2,1,0,0,-14,2,1,0,0,1,106,266,7,1,,,,,,,,
,,,,,,,,,,,,,FF,,,,,,,,0.65,,,,,,,,,,,,,,,,,,,,,,60ff6d15b88e2391dbaede06,61036d9e236ad4ffc5587c8c,2021-07-29_22h11.09.989,Simcolourproject_2stim_asymm_v5,2020.2.10,MacIntel,60,61025ae37ef11b136ea224fe,,,,,,,,,369,34,-50,1,0,0,response3disk,,4,10,-15,1,0,0,rectangle,10,-15,1,0,0,10,-15,1,0,0,1,107,267,50,1,,,,,,,,
,,,,,,,,,,,,,FF,,,,,,,,0.799,,,,,,,,,,,,,,,,,,,,,,60ff6d15b88e2391dbaede06,61036d9e236ad4ffc5587c8c,2021-07-29_22h11.09.989,Simcolourproject_2stim_asymm_v5,2020.2.10,MacIntel,60,61025ae37ef11b136ea224fe,,,,,,,,,2580,87,49,1,0,0,response1disk,,6,13,1,1,0,0,rectangle,13,1,1,0,0,13,1,1,0,0,1,108,268,133,1,,,,,,,,
,,,,,,,,,,,,,FF,,,,,,,,0.483,,,,,,,,,,,,,,,,,,,,,,60ff6d15b88e2391dbaede06,61036d9e236ad4ffc5587c8c,2021-07-29_22h11.09.989,Simcolourproject_2stim_asymm_v5,2020.2.10,MacIntel,60,61025ae37ef11b136ea224fe,,,,,,,,,912,28,51,1,0,0,response1disk,,7,14,9,1,0,0,rectangle,14,9,1,0,0,14,9,1,0,0,1,109,269,71,1,,,,,,,,
,,,,,,,,,,,,,FF,,,,,,,,0.867,,,,,,,,,,,,,,,,,,,,,,60ff6d15b88e2391dbaede06,61036d9e236ad4ffc5587c8c,2021-07-29_22h11.09.989,Simcolourproject_2stim_asymm_v5,2020.2.10,MacIntel,60,61025ae37ef11b136ea224fe,,,,,,,,,2516,57,20,1,0,0,response1disk,,6,24,4,1,0,0,rectangle,24,4,1,0,0,24,4,1,0,0,1,110,270,147,1,,,,,,,,
,,,,,,,,,,,,,FF,,,,,,,,0.767,,,,,,,,,,,,,,,,,,,,,,60ff6d15b88e2391dbaede06,61036d9e236ad4ffc5587c8c,2021-07-29_22h11.09.989,Simcolourproject_2stim_asymm_v5,2020.2.10,MacIntel,60,61025ae37ef11b136ea224fe,,,,,,,,,1342,51,-29,1,0,0,response3disk,,5,8,5,1,0,0,rectangle,8,5,1,0,0,8,5,1,0,0,1,111,271,8,1,,,,,,,,
,,,,,,,,,,,,,FF,,,,,,,,0.832,,,,,,,,,,,,,,,,,,,,,,60ff6d15b88e2391dbaede06,61036d9e236ad4ffc5587c8c,2021-07-29_22h11.09.989,Simcolourproject_2stim_asymm_v5,2020.2.10,MacIntel,60,61025ae37ef11b136ea224fe,,,,,,,,,1082,53,42,1,0,0,response1disk,,6,15,8,1,0,0,rectangle,15,8,1,0,0,15,8,1,0,0,1,112,272,101,1,,,,,,,,
,,,,,,,,,,,,,FF,,,,,,,,0.7,,,,,,,,,,,,,,,,,,,,,,60ff6d15b88e2391dbaede06,61036d9e236ad4ffc5587c8c,2021-07-29_22h11.09.989,Simcolourproject_2stim_asymm_v5,2020.2.10,MacIntel,60,61025ae37ef11b136ea224fe,,,,,,,,,3759,36,-48,1,0,0,response3disk,,4,7,-3,1,0,0,rectangle,7,-3,1,0,0,7,-3,1,0,0,1,113,273,119,1,,,,,,,,
,,,,,,,,,,,,,FF,,,,,,,,0.599,,,,,,,,,,,,,,,,,,,,,,60ff6d15b88e2391dbaede06,61036d9e236ad4ffc5587c8c,2021-07-29_22h11.09.989,Simcolourproject_2stim_asymm_v5,2020.2.10,MacIntel,60,61025ae37ef11b136ea224fe,,,,,,,,,1225,-33,-45,1,0,0,response5disk,,3,-9,-2,1,0,0,rectangle,-9,-2,1,0,0,-9,-2,1,0,0,1,114,274,139,1,,,,,,,,
,,,,,,,,,,,,,FF,,,,,,,,1.365,,,,,,,,,,,,,,,,,,,,,,60ff6d15b88e2391dbaede06,61036d9e236ad4ffc5587c8c,2021-07-29_22h11.09.989,Simcolourproject_2stim_asymm_v5,2020.2.10,MacIntel,60,61025ae37ef11b136ea224fe,,,,,,,,,2957,62,-37,1,0,0,response3disk,,5,7,3,1,0,0,rectangle,7,3,1,0,0,7,3,1,0,0,1,115,275,23,1,,,,,,,,
,,,,,,,,,,,,,FF,,,,,,,,0.765,,,,,,,,,,,,,,,,,,,,,,60ff6d15b88e2391dbaede06,61036d9e236ad4ffc5587c8c,2021-07-29_22h11.09.989,Simcolourproject_2stim_asymm_v5,2020.2.10,MacIntel,60,61025ae37ef11b136ea224fe,,,,,,,,,2633,37,22,1,0,0,response1disk,,6,3,4,1,0,0,rectangle,3,4,1,0,0,3,4,1,0,0,1,116,276,100,1,,,,,,,,
,,,,,,,,,,,,,FF,,,,,,,,1.085,,,,,,,,,,,,,,,,,,,,,,60ff6d15b88e2391dbaede06,61036d9e236ad4ffc5587c8c,2021-07-29_22h11.09.989,Simcolourproject_2stim_asymm_v5,2020.2.10,MacIntel,60,61025ae37ef11b136ea224fe,,,,,,,,,1354,30,-64,1,0,0,response3disk,,4,12,-6,1,0,0,rectangle,90,38,1,0,0,15,3,1,0,0,1,117,277,135,1,,response1disk_3,TRUE,6,6,"[260,152,322,53,40,302,278,95,124,220,166,146,240,208,184,113,51,296,105,169]",2.133,rectangle
,,,,,,,,,,,,,FF,,,,,,,,1.134,,,,,,,,,,,,,,,,,,,,,,60ff6d15b88e2391dbaede06,61036d9e236ad4ffc5587c8c,2021-07-29_22h11.09.989,Simcolourproject_2stim_asymm_v5,2020.2.10,MacIntel,60,61025ae37ef11b136ea224fe,,,,,,,,,1441,62,-32,1,0,0,response3disk,,5,10,-12,1,0,0,rectangle,10,-12,1,0,0,10,-12,1,0,0,1,118,278,149,1,,,,,,,,
,,,,,,,,,,,,,FF,,,,,,,,0.949,,,,,,,,,,,,,,,,,,,,,,60ff6d15b88e2391dbaede06,61036d9e236ad4ffc5587c8c,2021-07-29_22h11.09.989,Simcolourproject_2stim_asymm_v5,2020.2.10,MacIntel,60,61025ae37ef11b136ea224fe,,,,,,,,,546,-38,-65,1,0,0,response5disk,,3,1,6,1,0,0,rectangle,1,6,1,0,0,1,6,1,0,0,1,119,279,137,1,,,,,,,,
,,,,,,,,,,,,,FF,,,,,,,,0.967,,,,,,,,,,,,,,,,,,,,,,60ff6d15b88e2391dbaede06,61036d9e236ad4ffc5587c8c,2021-07-29_22h11.09.989,Simcolourproject_2stim_asymm_v5,2020.2.10,MacIntel,60,61025ae37ef11b136ea224fe,,,,,,,,,1683,51,35,1,0,0,response1disk,,6,9,9,1,0,0,rectangle,9,9,1,0,0,9,9,1,0,0,1,120,280,145,1,,,,,,,,
,,,,,,,,,,,,,FF,,,,,,,,1.267,,,,,,,,,,,,,,,,,,,,,,60ff6d15b88e2391dbaede06,61036d9e236ad4ffc5587c8c,2021-07-29_22h11.09.989,Simcolourproject_2stim_asymm_v5,2020.2.10,MacIntel,60,61025ae37ef11b136ea224fe,,,,,,,,,832,-38,-79,1,0,0,response5disk,,3,-4,-6,1,0,0,rectangle,-4,-6,1,0,0,-4,-6,1,0,0,1,121,281,72,1,,,,,,,,
,,,,,,,,,,,,,FF,,,,,,,,0.633,,,,,,,,,,,,,,,,,,,,,,60ff6d15b88e2391dbaede06,61036d9e236ad4ffc5587c8c,2021-07-29_22h11.09.989,Simcolourproject_2stim_asymm_v5,2020.2.10,MacIntel,60,61025ae37ef11b136ea224fe,,,,,,,,,3028,35,-54,1,0,0,response3disk,,4,14,-4,1,0,0,rectangle,14,-4,1,0,0,14,-4,1,0,0,1,122,282,78,1,,,,,,,,
,,,,,,,,,,,,,FF,,,,,,,,0.916,,,,,,,,,,,,,,,,,,,,,,60ff6d15b88e2391dbaede06,61036d9e236ad4ffc5587c8c,2021-07-29_22h11.09.989,Simcolourproject_2stim_asymm_v5,2020.2.10,MacIntel,60,61025ae37ef11b136ea224fe,,,,,,,,,1238,31,77,1,0,0,response1disk,,7,16,-2,1,0,0,rectangle,16,-2,1,0,0,16,-2,1,0,0,1,123,283,29,1,,,,,,,,
,,,,,,,,,,,,,FF,,,,,,,,1,,,,,,,,,,,,,,,,,,,,,,60ff6d15b88e2391dbaede06,61036d9e236ad4ffc5587c8c,2021-07-29_22h11.09.989,Simcolourproject_2stim_asymm_v5,2020.2.10,MacIntel,60,61025ae37ef11b136ea224fe,,,,,,,,,2629,57,-32,1,0,0,response3disk,,5,2,-9,1,0,0,rectangle,2,-9,1,0,0,2,-9,1,0,0,1,124,284,126,1,,,,,,,,
,,,,,,,,,,,,,FF,,,,,,,,0.699,,,,,,,,,,,,,,,,,,,,,,60ff6d15b88e2391dbaede06,61036d9e236ad4ffc5587c8c,2021-07-29_22h11.09.989,Simcolourproject_2stim_asymm_v5,2020.2.10,MacIntel,60,61025ae37ef11b136ea224fe,,,,,,,,,2012,35,77,1,0,0,response1disk,,7,17,6,1,0,0,rectangle,17,6,1,0,0,17,6,1,0,0,1,125,285,130,1,,,,,,,,
,,,,,,,,,,,,,FF,,,,,,,,0.766,,,,,,,,,,,,,,,,,,,,,,60ff6d15b88e2391dbaede06,61036d9e236ad4ffc5587c8c,2021-07-29_22h11.09.989,Simcolourproject_2stim_asymm_v5,2020.2.10,MacIntel,60,61025ae37ef11b136ea224fe,,,,,,,,,4029,29,-46,1,0,0,response3disk,,4,14,-5,1,0,0,rectangle,14,-5,1,0,0,14,-5,1,0,0,1,126,286,44,1,,,,,,,,
,,,,,,,,,,,,,FF,,,,,,,,0.817,,,,,,,,,,,,,,,,,,,,,,60ff6d15b88e2391dbaede06,61036d9e236ad4ffc5587c8c,2021-07-29_22h11.09.989,Simcolourproject_2stim_asymm_v5,2020.2.10,MacIntel,60,61025ae37ef11b136ea224fe,,,,,,,,,3267,77,42,1,0,0,response1disk,,6,13,-6,1,0,0,rectangle,13,-6,1,0,0,13,-6,1,0,0,1,127,287,156,1,,,,,,,,
,,,,,,,,,,,,,FF,,,,,,,,1.265,,,,,,,,,,,,,,,,,,,,,,60ff6d15b88e2391dbaede06,61036d9e236ad4ffc5587c8c,2021-07-29_22h11.09.989,Simcolourproject_2stim_asymm_v5,2020.2.10,MacIntel,60,61025ae37ef11b136ea224fe,,,,,,,,,3737,78,39,1,0,0,response1disk,,6,5,-9,1,0,0,rectangle,5,-9,1,0,0,5,-9,1,0,0,1,128,288,87,1,,,,,,,,
,,,,,,,,,,,,,FF,,,,,,,,1.116,,,,,,,,,,,,,,,,,,,,,,60ff6d15b88e2391dbaede06,61036d9e236ad4ffc5587c8c,2021-07-29_22h11.09.989,Simcolourproject_2stim_asymm_v5,2020.2.10,MacIntel,60,61025ae37ef11b136ea224fe,,,,,,,,,3420,-76,-32,1,0,0,response5disk,,2,-1,0,1,0,0,rectangle,-1,0,1,0,0,-1,0,1,0,0,1,129,289,84,1,,,,,,,,
,,,,,,,,,,,,,FF,,,,,,,,1.667,,,,,,,,,,,,,,,,,,,,,,60ff6d15b88e2391dbaede06,61036d9e236ad4ffc5587c8c,2021-07-29_22h11.09.989,Simcolourproject_2stim_asymm_v5,2020.2.10,MacIntel,60,61025ae37ef11b136ea224fe,,,,,,,,,2963,38,64,1,0,0,response1disk,,7,18,9,1,0,0,rectangle,18,9,1,0,0,18,9,1,0,0,1,130,290,27,1,,,,,,,,
,,,,,,,,,,,,,FF,,,,,,,,0.798,,,,,,,,,,,,,,,,,,,,,,60ff6d15b88e2391dbaede06,61036d9e236ad4ffc5587c8c,2021-07-29_22h11.09.989,Simcolourproject_2stim_asymm_v5,2020.2.10,MacIntel,60,61025ae37ef11b136ea224fe,,,,,,,,,4189,-64,-39,1,0,0,response5disk,,2,-11,-14,1,0,0,rectangle,-11,-14,1,0,0,-11,-14,1,0,0,1,131,291,131,1,,,,,,,,
,,,,,,,,,,,,,FF,,,,,,,,0.8,,,,,,,,,,,,,,,,,,,,,,60ff6d15b88e2391dbaede06,61036d9e236ad4ffc5587c8c,2021-07-29_22h11.09.989,Simcolourproject_2stim_asymm_v5,2020.2.10,MacIntel,60,61025ae37ef11b136ea224fe,,,,,,,,,1730,74,30,1,0,0,response1disk,,6,15,10,1,0,0,rectangle,15,10,1,0,0,15,10,1,0,0,1,132,292,73,1,,,,,,,,
,,,,,,,,,,,,,FF,,,,,,,,0.916,,,,,,,,,,,,,,,,,,,,,,60ff6d15b88e2391dbaede06,61036d9e236ad4ffc5587c8c,2021-07-29_22h11.09.989,Simcolourproject_2stim_asymm_v5,2020.2.10,MacIntel,60,61025ae37ef11b136ea224fe,,,,,,,,,385,31,-46,1,0,0,response3disk,,4,15,-3,1,0,0,rectangle,15,-3,1,0,0,15,-3,1,0,0,1,133,293,97,1,,,,,,,,
,,,,,,,,,,,,,FF,,,,,,,,0.683,,,,,,,,,,,,,,,,,,,,,,60ff6d15b88e2391dbaede06,61036d9e236ad4ffc5587c8c,2021-07-29_22h11.09.989,Simcolourproject_2stim_asymm_v5,2020.2.10,MacIntel,60,61025ae37ef11b136ea224fe,,,,,,,,,1632,30,-50,1,0,0,response3disk,,4,14,-2,1,0,0,rectangle,14,-2,1,0,0,14,-2,1,0,0,1,134,294,48,1,,,,,,,,
,,,,,,,,,,,,,FF,,,,,,,,0.95,,,,,,,,,,,,,,,,,,,,,,60ff6d15b88e2391dbaede06,61036d9e236ad4ffc5587c8c,2021-07-29_22h11.09.989,Simcolourproject_2stim_asymm_v5,2020.2.10,MacIntel,60,61025ae37ef11b136ea224fe,,,,,,,,,3321,85,29,1,0,0,response1disk,,6,35,-6,1,0,0,rectangle,-35,-81,1,0,0,-4,-5,1,0,0,1,135,295,37,1,,response5disk_3,TRUE,3,3,"[260,152,322,53,40,302,278,95,124,220,166,146,240,208,184,113,51,296,105,169]",1.582,rectangle
,,,,,,,,,,,,,FF,,,,,,,,0.749,,,,,,,,,,,,,,,,,,,,,,60ff6d15b88e2391dbaede06,61036d9e236ad4ffc5587c8c,2021-07-29_22h11.09.989,Simcolourproject_2stim_asymm_v5,2020.2.10,MacIntel,60,61025ae37ef11b136ea224fe,,,,,,,,,2448,61,37,1,0,0,response1disk,,6,20,10,1,0,0,rectangle,20,10,1,0,0,20,10,1,0,0,1,136,296,20,1,,,,,,,,
,,,,,,,,,,,,,FF,,,,,,,,0.7,,,,,,,,,,,,,,,,,,,,,,60ff6d15b88e2391dbaede06,61036d9e236ad4ffc5587c8c,2021-07-29_22h11.09.989,Simcolourproject_2stim_asymm_v5,2020.2.10,MacIntel,60,61025ae37ef11b136ea224fe,,,,,,,,,190,23,-51,1,0,0,response3disk,,4,12,-18,1,0,0,rectangle,12,-18,1,0,0,12,-18,1,0,0,1,137,297,38,1,,,,,,,,
,,,,,,,,,,,,,FF,,,,,,,,0.633,,,,,,,,,,,,,,,,,,,,,,60ff6d15b88e2391dbaede06,61036d9e236ad4ffc5587c8c,2021-07-29_22h11.09.989,Simcolourproject_2stim_asymm_v5,2020.2.10,MacIntel,60,61025ae37ef11b136ea224fe,,,,,,,,,1087,53,18,1,0,0,response1disk,,6,-9,-9,1,0,0,rectangle,-9,-9,1,0,0,-9,-9,1,0,0,1,138,298,51,1,,,,,,,,
,,,,,,,,,,,,,FF,,,,,,,,0.884,,,,,,,,,,,,,,,,,,,,,,60ff6d15b88e2391dbaede06,61036d9e236ad4ffc5587c8c,2021-07-29_22h11.09.989,Simcolourproject_2stim_asymm_v5,2020.2.10,MacIntel,60,61025ae37ef11b136ea224fe,,,,,,,,,1277,17,57,1,0,0,response1disk,,7,3,0,1,0,0,rectangle,3,0,1,0,0,3,0,1,0,0,1,139,299,116,1,,,,,,,,
,,,,,,,,,,,,,FF,,,,,,,,0.798,,,,,,,,,,,,,,,,,,,,,,60ff6d15b88e2391dbaede06,61036d9e236ad4ffc5587c8c,2021-07-29_22h11.09.989,Simcolourproject_2stim_asymm_v5,2020.2.10,MacIntel,60,61025ae37ef11b136ea224fe,,,,,,,,,2496,44,-22,1,0,0,response3disk,,5,19,-4,1,0,0,rectangle,19,-4,1,0,0,19,-4,1,0,0,1,140,300,22,1,,,,,,,,
