key_resp.keys,key_resp.rt,key_resp_14.keys,key_resp_14.rt,key_resp_15.keys,key_resp_15.rt,key_resp_17.keys,key_resp_17.rt,key_resp_9.keys,key_resp_9.rt,key_resp_10.keys,key_resp_10.rt,practice_comparison,Ecc,mouse_5.x,mouse_5.y,mouse_5.leftButton,mouse_5.midButton,mouse_5.rightButton,mouse_5.clicked_name,pracsimilarity,response_time,mouse_10.x,mouse_10.y,mouse_10.leftButton,mouse_10.midButton,mouse_10.rightButton,mouse_10.clicked_name,mouse_7.x,mouse_7.y,mouse_7.leftButton,mouse_7.midButton,mouse_7.rightButton,mouse_6.x,mouse_6.y,mouse_6.leftButton,mouse_6.midButton,mouse_6.rightButton,duringprac.thisRepN,duringprac.thisTrialN,duringprac.thisN,duringprac.thisIndex,duringprac.ran,participant,session,date,expName,psychopyVersion,OS,frameRate,study_id,mouse_7.clicked_name,catchpracsimilarity,catch_response_time,catchnumberprac,catchtrialorderprac,mouse_6.clicked_name,key_resp_22.keys,key_resp_22.rt,realcomparison,mouse.x,mouse.y,mouse.leftButton,mouse.midButton,mouse.rightButton,mouse.clicked_name,Colour2,similarity,mouse_2.x,mouse_2.y,mouse_2.leftButton,mouse_2.midButton,mouse_2.rightButton,mouse_2.clicked_name,mouse_3.x,mouse_3.y,mouse_3.leftButton,mouse_3.midButton,mouse_3.rightButton,mouse_11.x,mouse_11.y,mouse_11.leftButton,mouse_11.midButton,mouse_11.rightButton,trials_2.thisRepN,trials_2.thisTrialN,trials_2.thisN,trials_2.thisIndex,trials_2.ran,Colour1,mouse_3.clicked_name,catchornah,catchsimilarity,catchnumber,catchtrialorder,catchRT,mouse_11.clicked_name
space,1.52274,space,19.747735,space,22.510065,space,5.544735,space,5.319515,space,5.050805,104,PF,55.8203125,81.5234375,1,0,0,response1disk_5,7,8.516515,4.76171875,-1.51171875,1,0,0,rectangle_8,4.76171875,-1.51171875,1,0,0,4.76171875,-1.51171875,1,0,0,0,0,0,6,1,60ff1beb456c2f3d0726e807,61036ee8b4e8cd61018fe129,2021-07-29_22h16.52.653,Simcolourproject_2stim_asymm_v5,2020.2.10,MacIntel,60,61025ae37ef11b136ea224fe,,,,,,,,,,,,,,,,,,,,,,,,,,,,,,,,,,,,,,,,,,,,,,
,,,,,,,,,,,,125,FF,44.66015625,99.58203125,1,0,0,response1disk_5,7,4.06667,-4.21875,4.96484375,1,0,0,rectangle_8,85.4609375,47.6796875,1,0,0,9.08203125,-13.27734375,1,0,0,0,1,1,3,1,60ff1beb456c2f3d0726e807,61036ee8b4e8cd61018fe129,2021-07-29_22h16.52.653,Simcolourproject_2stim_asymm_v5,2020.2.10,MacIntel,60,61025ae37ef11b136ea224fe,response1disk_7,6,3.300695,6,"[2,5]",rectangle_4,,,,,,,,,,,,,,,,,,,,,,,,,,,,,,,,,,,,,,,,
,,,,,,,,,,,,102,FF,69.7734375,34.6171875,1,0,0,response1disk_5,6,1.766685,2.66796875,-4.5625,1,0,0,rectangle_8,2.66796875,-4.5625,1,0,0,2.66796875,-4.5625,1,0,0,0,2,2,0,1,60ff1beb456c2f3d0726e807,61036ee8b4e8cd61018fe129,2021-07-29_22h16.52.653,Simcolourproject_2stim_asymm_v5,2020.2.10,MacIntel,60,61025ae37ef11b136ea224fe,,,,,,,,,,,,,,,,,,,,,,,,,,,,,,,,,,,,,,,,,,,,,,
,,,,,,,,,,,,64,FF,34.5,59.140625,1,0,0,response1disk_5,7,1.60085,1.1328125,1.3828125,1,0,0,rectangle_8,1.1328125,1.3828125,1,0,0,1.1328125,1.3828125,1,0,0,0,3,3,5,1,60ff1beb456c2f3d0726e807,61036ee8b4e8cd61018fe129,2021-07-29_22h16.52.653,Simcolourproject_2stim_asymm_v5,2020.2.10,MacIntel,60,61025ae37ef11b136ea224fe,,,,,,,,,,,,,,,,,,,,,,,,,,,,,,,,,,,,,,,,,,,,,,
,,,,,,,,,,,,10,PF,44.14453125,80.97265625,1,0,0,response1disk_5,7,1.149565,3.859375,-1.07421875,1,0,0,rectangle_8,116.5546875,63.9609375,1,0,0,-2.0625,-1.34375,1,0,0,0,4,4,1,1,60ff1beb456c2f3d0726e807,61036ee8b4e8cd61018fe129,2021-07-29_22h16.52.653,Simcolourproject_2stim_asymm_v5,2020.2.10,MacIntel,60,61025ae37ef11b136ea224fe,response1disk_7,6,2.18405,6,"[2,5]",rectangle_4,,,,,,,,,,,,,,,,,,,,,,,,,,,,,,,,,,,,,,,,
,,,,,,,,,,,,3,PF,38.765625,88.3359375,1,0,0,response1disk_5,7,1.351125,-1.04296875,-0.91015625,1,0,0,rectangle_8,-1.04296875,-0.91015625,1,0,0,-1.04296875,-0.91015625,1,0,0,0,5,5,2,1,60ff1beb456c2f3d0726e807,61036ee8b4e8cd61018fe129,2021-07-29_22h16.52.653,Simcolourproject_2stim_asymm_v5,2020.2.10,MacIntel,60,61025ae37ef11b136ea224fe,,,,,,,,,,,,,,,,,,,,,,,,,,,,,,,,,,,,,,,,,,,,,,
,,,,,,,,,,,,8,PF,49.203125,74.84765625,1,0,0,response1disk_5,7,0.96633,2.328125,-0.3359375,1,0,0,rectangle_8,2.328125,-0.3359375,1,0,0,2.328125,-0.3359375,1,0,0,0,6,6,4,1,60ff1beb456c2f3d0726e807,61036ee8b4e8cd61018fe129,2021-07-29_22h16.52.653,Simcolourproject_2stim_asymm_v5,2020.2.10,MacIntel,60,61025ae37ef11b136ea224fe,,,,,,,,,,,,,,,,,,,,,,,,,,,,,,,,,,,,,,,,,,,,,,
,,,,,,,,,,,,,FF,,,,,,,,1.416305,,,,,,,,,,,,,,,,,,,,,,60ff1beb456c2f3d0726e807,61036ee8b4e8cd61018fe129,2021-07-29_22h16.52.653,Simcolourproject_2stim_asymm_v5,2020.2.10,MacIntel,60,61025ae37ef11b136ea224fe,,,,,,,space,4.551645,251,54.0546875,84.8046875,1,0,0,response1disk,,7,-4.5703125,5.16796875,1,0,0,rectangle,-4.5703125,5.16796875,1,0,0,-4.5703125,5.16796875,1,0,0,0,0,0,88,1,,,,,,,,
,,,,,,,,,,,,,FF,,,,,,,,0.965595,,,,,,,,,,,,,,,,,,,,,,60ff1beb456c2f3d0726e807,61036ee8b4e8cd61018fe129,2021-07-29_22h16.52.653,Simcolourproject_2stim_asymm_v5,2020.2.10,MacIntel,60,61025ae37ef11b136ea224fe,,,,,,,,,2332,39.78515625,67.98046875,1,0,0,response1disk,,7,-0.2109375,-0.4453125,1,0,0,rectangle,-0.2109375,-0.4453125,1,0,0,-0.2109375,-0.4453125,1,0,0,0,1,1,69,1,,,,,,,,
,,,,,,,,,,,,,FF,,,,,,,,2.68284,,,,,,,,,,,,,,,,,,,,,,60ff1beb456c2f3d0726e807,61036ee8b4e8cd61018fe129,2021-07-29_22h16.52.653,Simcolourproject_2stim_asymm_v5,2020.2.10,MacIntel,60,61025ae37ef11b136ea224fe,,,,,,,,,1038,87.62109375,-50.71484375,1,0,0,response3disk,,5,2.9296875,4.38671875,1,0,0,rectangle,102.9335938,-39.953125,1,0,0,-7.02734375,-4.45703125,1,0,0,0,2,2,113,1,,response3disk_3,TRUE,5,5,"[119,157,172,17,25,70,299,214,53,25,31,219,23,253,200,299,30,236,172,3]",2.60146,rectangle
,,,,,,,,,,,,,FF,,,,,,,,1.532965,,,,,,,,,,,,,,,,,,,,,,60ff1beb456c2f3d0726e807,61036ee8b4e8cd61018fe129,2021-07-29_22h16.52.653,Simcolourproject_2stim_asymm_v5,2020.2.10,MacIntel,60,61025ae37ef11b136ea224fe,,,,,,,,,2335,23.5078125,78.3671875,1,0,0,response1disk,,7,-4.5703125,-16.6484375,1,0,0,rectangle,-4.5703125,-16.6484375,1,0,0,-4.5703125,-16.6484375,1,0,0,0,3,3,95,1,,,,,,,,
,,,,,,,,,,,,,FF,,,,,,,,1.167275,,,,,,,,,,,,,,,,,,,,,,60ff1beb456c2f3d0726e807,61036ee8b4e8cd61018fe129,2021-07-29_22h16.52.653,Simcolourproject_2stim_asymm_v5,2020.2.10,MacIntel,60,61025ae37ef11b136ea224fe,,,,,,,,,1153,59.1484375,95.70703125,1,0,0,response1disk,,7,7.7578125,2.1875,1,0,0,rectangle,7.7578125,2.1875,1,0,0,7.7578125,2.1875,1,0,0,0,4,4,77,1,,,,,,,,
,,,,,,,,,,,,,FF,,,,,,,,0.91649,,,,,,,,,,,,,,,,,,,,,,60ff1beb456c2f3d0726e807,61036ee8b4e8cd61018fe129,2021-07-29_22h16.52.653,Simcolourproject_2stim_asymm_v5,2020.2.10,MacIntel,60,61025ae37ef11b136ea224fe,,,,,,,,,2926,40.4765625,75.7734375,1,0,0,response1disk,,7,14.44921875,7.734375,1,0,0,rectangle,14.44921875,7.734375,1,0,0,14.44921875,7.734375,1,0,0,0,5,5,143,1,,,,,,,,
,,,,,,,,,,,,,FF,,,,,,,,0.96654,,,,,,,,,,,,,,,,,,,,,,60ff1beb456c2f3d0726e807,61036ee8b4e8cd61018fe129,2021-07-29_22h16.52.653,Simcolourproject_2stim_asymm_v5,2020.2.10,MacIntel,60,61025ae37ef11b136ea224fe,,,,,,,,,1627,28.72265625,67.69140625,1,0,0,response1disk,,7,19.79296875,-2.6328125,1,0,0,rectangle,19.79296875,-2.6328125,1,0,0,19.79296875,-2.6328125,1,0,0,0,6,6,84,1,,,,,,,,
,,,,,,,,,,,,,FF,,,,,,,,2.38392,,,,,,,,,,,,,,,,,,,,,,60ff1beb456c2f3d0726e807,61036ee8b4e8cd61018fe129,2021-07-29_22h16.52.653,Simcolourproject_2stim_asymm_v5,2020.2.10,MacIntel,60,61025ae37ef11b136ea224fe,,,,,,,,,352,43.296875,-102.1875,1,0,0,response3disk,,4,0.0390625,9.171875,1,0,0,rectangle,0.0390625,9.171875,1,0,0,0.0390625,9.171875,1,0,0,0,7,7,44,1,,,,,,,,
,,,,,,,,,,,,,FF,,,,,,,,0.91752,,,,,,,,,,,,,,,,,,,,,,60ff1beb456c2f3d0726e807,61036ee8b4e8cd61018fe129,2021-07-29_22h16.52.653,Simcolourproject_2stim_asymm_v5,2020.2.10,MacIntel,60,61025ae37ef11b136ea224fe,,,,,,,,,4133,32.21484375,70.09375,1,0,0,response1disk,,7,20.78515625,-12.44921875,1,0,0,rectangle,20.78515625,-12.44921875,1,0,0,20.78515625,-12.44921875,1,0,0,0,8,8,17,1,,,,,,,,
,,,,,,,,,,,,,FF,,,,,,,,2.05017,,,,,,,,,,,,,,,,,,,,,,60ff1beb456c2f3d0726e807,61036ee8b4e8cd61018fe129,2021-07-29_22h16.52.653,Simcolourproject_2stim_asymm_v5,2020.2.10,MacIntel,60,61025ae37ef11b136ea224fe,,,,,,,,,1295,88.8203125,-41.47265625,1,0,0,response3disk,,5,12.48046875,3.83203125,1,0,0,rectangle,12.48046875,3.83203125,1,0,0,12.48046875,3.83203125,1,0,0,0,9,9,116,1,,,,,,,,
,,,,,,,,,,,,,FF,,,,,,,,0.833185,,,,,,,,,,,,,,,,,,,,,,60ff1beb456c2f3d0726e807,61036ee8b4e8cd61018fe129,2021-07-29_22h16.52.653,Simcolourproject_2stim_asymm_v5,2020.2.10,MacIntel,60,61025ae37ef11b136ea224fe,,,,,,,,,1571,26.2265625,60.76171875,1,0,0,response1disk,,7,5.35546875,-7.28125,1,0,0,rectangle,5.35546875,-7.28125,1,0,0,5.35546875,-7.28125,1,0,0,0,10,10,117,1,,,,,,,,
,,,,,,,,,,,,,FF,,,,,,,,1.983175,,,,,,,,,,,,,,,,,,,,,,60ff1beb456c2f3d0726e807,61036ee8b4e8cd61018fe129,2021-07-29_22h16.52.653,Simcolourproject_2stim_asymm_v5,2020.2.10,MacIntel,60,61025ae37ef11b136ea224fe,,,,,,,,,3851,70.33984375,33.078125,1,0,0,response1disk,,6,13.828125,-2.33203125,1,0,0,rectangle,13.828125,-2.33203125,1,0,0,13.828125,-2.33203125,1,0,0,0,11,11,136,1,,,,,,,,
,,,,,,,,,,,,,FF,,,,,,,,3.33345,,,,,,,,,,,,,,,,,,,,,,60ff1beb456c2f3d0726e807,61036ee8b4e8cd61018fe129,2021-07-29_22h16.52.653,Simcolourproject_2stim_asymm_v5,2020.2.10,MacIntel,60,61025ae37ef11b136ea224fe,,,,,,,,,1370,-30.51171875,-108.0976563,1,0,0,response5disk,,3,-1.58984375,11.05078125,1,0,0,rectangle,-1.58984375,11.05078125,1,0,0,-1.58984375,11.05078125,1,0,0,0,12,12,158,1,,,,,,,,
,,,,,,,,,,,,,FF,,,,,,,,2.315445,,,,,,,,,,,,,,,,,,,,,,60ff1beb456c2f3d0726e807,61036ee8b4e8cd61018fe129,2021-07-29_22h16.52.653,Simcolourproject_2stim_asymm_v5,2020.2.10,MacIntel,60,61025ae37ef11b136ea224fe,,,,,,,,,4023,34.29296875,60.9609375,1,0,0,response1disk,,7,11.33203125,2.5078125,1,0,0,rectangle,11.33203125,2.5078125,1,0,0,11.33203125,2.5078125,1,0,0,0,13,13,109,1,,,,,,,,
,,,,,,,,,,,,,FF,,,,,,,,1.534365,,,,,,,,,,,,,,,,,,,,,,60ff1beb456c2f3d0726e807,61036ee8b4e8cd61018fe129,2021-07-29_22h16.52.653,Simcolourproject_2stim_asymm_v5,2020.2.10,MacIntel,60,61025ae37ef11b136ea224fe,,,,,,,,,3004,79.8125,-49.0234375,1,0,0,response3disk,,5,-2.81640625,-3.58203125,1,0,0,rectangle,-2.81640625,-3.58203125,1,0,0,-2.81640625,-3.58203125,1,0,0,0,14,14,53,1,,,,,,,,
,,,,,,,,,,,,,FF,,,,,,,,2.550095,,,,,,,,,,,,,,,,,,,,,,60ff1beb456c2f3d0726e807,61036ee8b4e8cd61018fe129,2021-07-29_22h16.52.653,Simcolourproject_2stim_asymm_v5,2020.2.10,MacIntel,60,61025ae37ef11b136ea224fe,,,,,,,,,3969,90.28125,-30.421875,1,0,0,response3disk,,5,-11.28515625,-2.2265625,1,0,0,rectangle,-11.28515625,-2.2265625,1,0,0,-11.28515625,-2.2265625,1,0,0,0,15,15,100,1,,,,,,,,
,,,,,,,,,,,,,FF,,,,,,,,2.183135,,,,,,,,,,,,,,,,,,,,,,60ff1beb456c2f3d0726e807,61036ee8b4e8cd61018fe129,2021-07-29_22h16.52.653,Simcolourproject_2stim_asymm_v5,2020.2.10,MacIntel,60,61025ae37ef11b136ea224fe,,,,,,,,,1188,55.96484375,82.73828125,1,0,0,response1disk,,7,13.83203125,-0.5,1,0,0,rectangle,103.609375,-43.1171875,1,0,0,-5.9609375,2.15234375,1,0,0,0,16,16,98,1,,response3disk_3,TRUE,5,5,"[119,157,172,17,25,70,299,214,53,25,31,219,23,253,200,299,30,236,172,3]",2.76698,rectangle
,,,,,,,,,,,,,FF,,,,,,,,1.10047,,,,,,,,,,,,,,,,,,,,,,60ff1beb456c2f3d0726e807,61036ee8b4e8cd61018fe129,2021-07-29_22h16.52.653,Simcolourproject_2stim_asymm_v5,2020.2.10,MacIntel,60,61025ae37ef11b136ea224fe,,,,,,,,,848,52.2734375,78.55859375,1,0,0,response1disk,,7,2.82421875,2.81640625,1,0,0,rectangle,2.82421875,2.81640625,1,0,0,2.82421875,2.81640625,1,0,0,0,17,17,28,1,,,,,,,,
,,,,,,,,,,,,,FF,,,,,,,,0.966415,,,,,,,,,,,,,,,,,,,,,,60ff1beb456c2f3d0726e807,61036ee8b4e8cd61018fe129,2021-07-29_22h16.52.653,Simcolourproject_2stim_asymm_v5,2020.2.10,MacIntel,60,61025ae37ef11b136ea224fe,,,,,,,,,3289,55.953125,78.796875,1,0,0,response1disk,,7,-11.8046875,1.9140625,1,0,0,rectangle,-11.8046875,1.9140625,1,0,0,-11.8046875,1.9140625,1,0,0,0,18,18,126,1,,,,,,,,
,,,,,,,,,,,,,FF,,,,,,,,0.967355,,,,,,,,,,,,,,,,,,,,,,60ff1beb456c2f3d0726e807,61036ee8b4e8cd61018fe129,2021-07-29_22h16.52.653,Simcolourproject_2stim_asymm_v5,2020.2.10,MacIntel,60,61025ae37ef11b136ea224fe,,,,,,,,,1694,50.45703125,71.953125,1,0,0,response1disk,,7,7.625,17.17578125,1,0,0,rectangle,7.625,17.17578125,1,0,0,7.625,17.17578125,1,0,0,0,19,19,63,1,,,,,,,,
,,,,,,,,,,,,,FF,,,,,,,,0.76647,,,,,,,,,,,,,,,,,,,,,,60ff1beb456c2f3d0726e807,61036ee8b4e8cd61018fe129,2021-07-29_22h16.52.653,Simcolourproject_2stim_asymm_v5,2020.2.10,MacIntel,60,61025ae37ef11b136ea224fe,,,,,,,,,4004,53.6796875,73.765625,1,0,0,response1disk,,7,5.72265625,5.515625,1,0,0,rectangle,5.72265625,5.515625,1,0,0,5.72265625,5.515625,1,0,0,0,20,20,91,1,,,,,,,,
,,,,,,,,,,,,,FF,,,,,,,,1.01675,,,,,,,,,,,,,,,,,,,,,,60ff1beb456c2f3d0726e807,61036ee8b4e8cd61018fe129,2021-07-29_22h16.52.653,Simcolourproject_2stim_asymm_v5,2020.2.10,MacIntel,60,61025ae37ef11b136ea224fe,,,,,,,,,1434,75.40625,28.30078125,1,0,0,response1disk,,6,19.2890625,1.0078125,1,0,0,rectangle,19.2890625,1.0078125,1,0,0,19.2890625,1.0078125,1,0,0,0,21,21,4,1,,,,,,,,
,,,,,,,,,,,,,FF,,,,,,,,0.749955,,,,,,,,,,,,,,,,,,,,,,60ff1beb456c2f3d0726e807,61036ee8b4e8cd61018fe129,2021-07-29_22h16.52.653,Simcolourproject_2stim_asymm_v5,2020.2.10,MacIntel,60,61025ae37ef11b136ea224fe,,,,,,,,,2147,33.9140625,59.53125,1,0,0,response1disk,,7,6.9765625,-5.765625,1,0,0,rectangle,-44.26953125,-102.9765625,1,0,0,14.9375,3.32421875,1,0,0,0,22,22,150,1,,response5disk_3,TRUE,3,3,"[119,157,172,17,25,70,299,214,53,25,31,219,23,253,200,299,30,236,172,3]",3.06751,rectangle
,,,,,,,,,,,,,FF,,,,,,,,1.100435,,,,,,,,,,,,,,,,,,,,,,60ff1beb456c2f3d0726e807,61036ee8b4e8cd61018fe129,2021-07-29_22h16.52.653,Simcolourproject_2stim_asymm_v5,2020.2.10,MacIntel,60,61025ae37ef11b136ea224fe,,,,,,,,,120,48.78515625,77.3125,1,0,0,response1disk,,7,3.4375,7.06640625,1,0,0,rectangle,3.4375,7.06640625,1,0,0,3.4375,7.06640625,1,0,0,0,23,23,11,1,,,,,,,,
,,,,,,,,,,,,,FF,,,,,,,,4.883385,,,,,,,,,,,,,,,,,,,,,,60ff1beb456c2f3d0726e807,61036ee8b4e8cd61018fe129,2021-07-29_22h16.52.653,Simcolourproject_2stim_asymm_v5,2020.2.10,MacIntel,60,61025ae37ef11b136ea224fe,,,,,,,,,3427,-63.70703125,97.1875,1,0,0,response7disk,,0,9.98046875,4.96484375,1,0,0,rectangle,-27.23046875,-80.86328125,1,0,0,-6.5,1.125,1,0,0,0,24,24,56,1,,response5disk_3,TRUE,3,3,"[119,157,172,17,25,70,299,214,53,25,31,219,23,253,200,299,30,236,172,3]",2.033275,rectangle
,,,,,,,,,,,,,FF,,,,,,,,2.98238,,,,,,,,,,,,,,,,,,,,,,60ff1beb456c2f3d0726e807,61036ee8b4e8cd61018fe129,2021-07-29_22h16.52.653,Simcolourproject_2stim_asymm_v5,2020.2.10,MacIntel,60,61025ae37ef11b136ea224fe,,,,,,,,,3350,35.23046875,-108.4921875,1,0,0,response3disk,,4,17.10546875,-10.21875,1,0,0,rectangle,17.10546875,-10.21875,1,0,0,17.10546875,-10.21875,1,0,0,0,25,25,76,1,,,,,,,,
,,,,,,,,,,,,,FF,,,,,,,,1.100505,,,,,,,,,,,,,,,,,,,,,,60ff1beb456c2f3d0726e807,61036ee8b4e8cd61018fe129,2021-07-29_22h16.52.653,Simcolourproject_2stim_asymm_v5,2020.2.10,MacIntel,60,61025ae37ef11b136ea224fe,,,,,,,,,1462,50.4375,-110.9140625,1,0,0,response3disk,,4,3.71484375,-0.91796875,1,0,0,rectangle,3.71484375,-0.91796875,1,0,0,3.71484375,-0.91796875,1,0,0,0,26,26,9,1,,,,,,,,
,,,,,,,,,,,,,FF,,,,,,,,0.916695,,,,,,,,,,,,,,,,,,,,,,60ff1beb456c2f3d0726e807,61036ee8b4e8cd61018fe129,2021-07-29_22h16.52.653,Simcolourproject_2stim_asymm_v5,2020.2.10,MacIntel,60,61025ae37ef11b136ea224fe,,,,,,,,,2517,50.6796875,78.57421875,1,0,0,response1disk,,7,11.76171875,2.95703125,1,0,0,rectangle,11.76171875,2.95703125,1,0,0,11.76171875,2.95703125,1,0,0,0,27,27,18,1,,,,,,,,
,,,,,,,,,,,,,FF,,,,,,,,0.83455,,,,,,,,,,,,,,,,,,,,,,60ff1beb456c2f3d0726e807,61036ee8b4e8cd61018fe129,2021-07-29_22h16.52.653,Simcolourproject_2stim_asymm_v5,2020.2.10,MacIntel,60,61025ae37ef11b136ea224fe,,,,,,,,,1110,30.91015625,81.234375,1,0,0,response1disk,,7,15.75,14.4609375,1,0,0,rectangle,15.75,14.4609375,1,0,0,15.75,14.4609375,1,0,0,0,28,28,2,1,,,,,,,,
,,,,,,,,,,,,,FF,,,,,,,,0.752105,,,,,,,,,,,,,,,,,,,,,,60ff1beb456c2f3d0726e807,61036ee8b4e8cd61018fe129,2021-07-29_22h16.52.653,Simcolourproject_2stim_asymm_v5,2020.2.10,MacIntel,60,61025ae37ef11b136ea224fe,,,,,,,,,2746,35.71875,76.234375,1,0,0,response1disk,,7,9.7421875,5.4453125,1,0,0,rectangle,-97.65625,-58.34375,1,0,0,13.00390625,0.37890625,1,0,0,0,29,29,139,1,,response5disk_3,TRUE,2,2,"[119,157,172,17,25,70,299,214,53,25,31,219,23,253,200,299,30,236,172,3]",1.88328,rectangle
,,,,,,,,,,,,,FF,,,,,,,,1.64941,,,,,,,,,,,,,,,,,,,,,,60ff1beb456c2f3d0726e807,61036ee8b4e8cd61018fe129,2021-07-29_22h16.52.653,Simcolourproject_2stim_asymm_v5,2020.2.10,MacIntel,60,61025ae37ef11b136ea224fe,,,,,,,,,536,33.765625,70.8046875,1,0,0,response1disk,,7,10.9609375,-0.01953125,1,0,0,rectangle,38.32421875,-91.1796875,1,0,0,7.7734375,-7.66796875,1,0,0,0,30,30,82,1,,response3disk_3,TRUE,4,4,"[119,157,172,17,25,70,299,214,53,25,31,219,23,253,200,299,30,236,172,3]",1.93461,rectangle
,,,,,,,,,,,,,FF,,,,,,,,1.534765,,,,,,,,,,,,,,,,,,,,,,60ff1beb456c2f3d0726e807,61036ee8b4e8cd61018fe129,2021-07-29_22h16.52.653,Simcolourproject_2stim_asymm_v5,2020.2.10,MacIntel,60,61025ae37ef11b136ea224fe,,,,,,,,,2833,-75.48046875,-46.2890625,1,0,0,response5disk,,2,3.2578125,4.9375,1,0,0,rectangle,3.2578125,4.9375,1,0,0,3.2578125,4.9375,1,0,0,0,31,31,86,1,,,,,,,,
,,,,,,,,,,,,,FF,,,,,,,,1.68253,,,,,,,,,,,,,,,,,,,,,,60ff1beb456c2f3d0726e807,61036ee8b4e8cd61018fe129,2021-07-29_22h16.52.653,Simcolourproject_2stim_asymm_v5,2020.2.10,MacIntel,60,61025ae37ef11b136ea224fe,,,,,,,,,3815,-46.35546875,-113.3125,1,0,0,response5disk,,3,-9.9140625,0.81640625,1,0,0,rectangle,-9.9140625,0.81640625,1,0,0,-9.9140625,0.81640625,1,0,0,0,32,32,123,1,,,,,,,,
,,,,,,,,,,,,,FF,,,,,,,,1.248025,,,,,,,,,,,,,,,,,,,,,,60ff1beb456c2f3d0726e807,61036ee8b4e8cd61018fe129,2021-07-29_22h16.52.653,Simcolourproject_2stim_asymm_v5,2020.2.10,MacIntel,60,61025ae37ef11b136ea224fe,,,,,,,,,3813,58.7265625,-101.9882813,1,0,0,response3disk,,4,28.94140625,-1.23828125,1,0,0,rectangle,28.94140625,-1.23828125,1,0,0,28.94140625,-1.23828125,1,0,0,0,33,33,81,1,,,,,,,,
,,,,,,,,,,,,,FF,,,,,,,,0.84991,,,,,,,,,,,,,,,,,,,,,,60ff1beb456c2f3d0726e807,61036ee8b4e8cd61018fe129,2021-07-29_22h16.52.653,Simcolourproject_2stim_asymm_v5,2020.2.10,MacIntel,60,61025ae37ef11b136ea224fe,,,,,,,,,1504,42.05859375,80.921875,1,0,0,response1disk,,7,-0.3203125,14.12109375,1,0,0,rectangle,-0.3203125,14.12109375,1,0,0,-0.3203125,14.12109375,1,0,0,0,34,34,8,1,,,,,,,,
,,,,,,,,,,,,,FF,,,,,,,,0.867095,,,,,,,,,,,,,,,,,,,,,,60ff1beb456c2f3d0726e807,61036ee8b4e8cd61018fe129,2021-07-29_22h16.52.653,Simcolourproject_2stim_asymm_v5,2020.2.10,MacIntel,60,61025ae37ef11b136ea224fe,,,,,,,,,651,28.64453125,83.7265625,1,0,0,response1disk,,7,7.2265625,-0.76171875,1,0,0,rectangle,7.2265625,-0.76171875,1,0,0,7.2265625,-0.76171875,1,0,0,0,35,35,111,1,,,,,,,,
,,,,,,,,,,,,,FF,,,,,,,,1.515755,,,,,,,,,,,,,,,,,,,,,,60ff1beb456c2f3d0726e807,61036ee8b4e8cd61018fe129,2021-07-29_22h16.52.653,Simcolourproject_2stim_asymm_v5,2020.2.10,MacIntel,60,61025ae37ef11b136ea224fe,,,,,,,,,2942,87.6640625,-38.1171875,1,0,0,response3disk,,5,-4.35546875,0.87890625,1,0,0,rectangle,-4.35546875,0.87890625,1,0,0,-4.35546875,0.87890625,1,0,0,0,36,36,67,1,,,,,,,,
,,,,,,,,,,,,,FF,,,,,,,,1.667075,,,,,,,,,,,,,,,,,,,,,,60ff1beb456c2f3d0726e807,61036ee8b4e8cd61018fe129,2021-07-29_22h16.52.653,Simcolourproject_2stim_asymm_v5,2020.2.10,MacIntel,60,61025ae37ef11b136ea224fe,,,,,,,,,2252,43.171875,79.55859375,1,0,0,response1disk,,7,10.96484375,1.80859375,1,0,0,rectangle,10.96484375,1.80859375,1,0,0,10.96484375,1.80859375,1,0,0,0,37,37,70,1,,,,,,,,
,,,,,,,,,,,,,FF,,,,,,,,1.36557,,,,,,,,,,,,,,,,,,,,,,60ff1beb456c2f3d0726e807,61036ee8b4e8cd61018fe129,2021-07-29_22h16.52.653,Simcolourproject_2stim_asymm_v5,2020.2.10,MacIntel,60,61025ae37ef11b136ea224fe,,,,,,,,,4119,37.69140625,-92.171875,1,0,0,response3disk,,4,4.0546875,-5.37109375,1,0,0,rectangle,4.0546875,-5.37109375,1,0,0,4.0546875,-5.37109375,1,0,0,0,38,38,144,1,,,,,,,,
,,,,,,,,,,,,,FF,,,,,,,,2.16778,,,,,,,,,,,,,,,,,,,,,,60ff1beb456c2f3d0726e807,61036ee8b4e8cd61018fe129,2021-07-29_22h16.52.653,Simcolourproject_2stim_asymm_v5,2020.2.10,MacIntel,60,61025ae37ef11b136ea224fe,,,,,,,,,3914,82.9609375,25.51171875,1,0,0,response1disk,,6,6.1015625,-3.71875,1,0,0,rectangle,6.1015625,-3.71875,1,0,0,6.1015625,-3.71875,1,0,0,0,39,39,51,1,,,,,,,,
,,,,,,,,,,,,,FF,,,,,,,,0.867035,,,,,,,,,,,,,,,,,,,,,,60ff1beb456c2f3d0726e807,61036ee8b4e8cd61018fe129,2021-07-29_22h16.52.653,Simcolourproject_2stim_asymm_v5,2020.2.10,MacIntel,60,61025ae37ef11b136ea224fe,,,,,,,,,233,20.05859375,80.375,1,0,0,response1disk,,7,8.19921875,0.15234375,1,0,0,rectangle,8.19921875,0.15234375,1,0,0,8.19921875,0.15234375,1,0,0,0,40,40,12,1,,,,,,,,
,,,,,,,,,,,,,FF,,,,,,,,0.86636,,,,,,,,,,,,,,,,,,,,,,60ff1beb456c2f3d0726e807,61036ee8b4e8cd61018fe129,2021-07-29_22h16.52.653,Simcolourproject_2stim_asymm_v5,2020.2.10,MacIntel,60,61025ae37ef11b136ea224fe,,,,,,,,,2328,49.3125,75.453125,1,0,0,response1disk,,7,7.01171875,1.875,1,0,0,rectangle,7.01171875,1.875,1,0,0,7.01171875,1.875,1,0,0,0,41,41,156,1,,,,,,,,
,,,,,,,,,,,,,FF,,,,,,,,1.299295,,,,,,,,,,,,,,,,,,,,,,60ff1beb456c2f3d0726e807,61036ee8b4e8cd61018fe129,2021-07-29_22h16.52.653,Simcolourproject_2stim_asymm_v5,2020.2.10,MacIntel,60,61025ae37ef11b136ea224fe,,,,,,,,,2661,40.23046875,-80.1171875,1,0,0,response3disk,,4,14.38671875,3.15625,1,0,0,rectangle,14.38671875,3.15625,1,0,0,14.38671875,3.15625,1,0,0,0,42,42,7,1,,,,,,,,
,,,,,,,,,,,,,FF,,,,,,,,1.849405,,,,,,,,,,,,,,,,,,,,,,60ff1beb456c2f3d0726e807,61036ee8b4e8cd61018fe129,2021-07-29_22h16.52.653,Simcolourproject_2stim_asymm_v5,2020.2.10,MacIntel,60,61025ae37ef11b136ea224fe,,,,,,,,,3187,79.7265625,-40.7890625,1,0,0,response3disk,,5,3.375,4.76171875,1,0,0,rectangle,3.375,4.76171875,1,0,0,3.375,4.76171875,1,0,0,0,43,43,42,1,,,,,,,,
,,,,,,,,,,,,,FF,,,,,,,,0.884165,,,,,,,,,,,,,,,,,,,,,,60ff1beb456c2f3d0726e807,61036ee8b4e8cd61018fe129,2021-07-29_22h16.52.653,Simcolourproject_2stim_asymm_v5,2020.2.10,MacIntel,60,61025ae37ef11b136ea224fe,,,,,,,,,3767,36.8828125,68.1015625,1,0,0,response1disk,,7,8.66796875,9.875,1,0,0,rectangle,8.66796875,9.875,1,0,0,8.66796875,9.875,1,0,0,0,44,44,110,1,,,,,,,,
,,,,,,,,,,,,,FF,,,,,,,,0.849765,,,,,,,,,,,,,,,,,,,,,,60ff1beb456c2f3d0726e807,61036ee8b4e8cd61018fe129,2021-07-29_22h16.52.653,Simcolourproject_2stim_asymm_v5,2020.2.10,MacIntel,60,61025ae37ef11b136ea224fe,,,,,,,,,60,34.08203125,75.625,1,0,0,response1disk,,7,21.09375,-1.1484375,1,0,0,rectangle,21.09375,-1.1484375,1,0,0,21.09375,-1.1484375,1,0,0,0,45,45,131,1,,,,,,,,
,,,,,,,,,,,,,FF,,,,,,,,1.26692,,,,,,,,,,,,,,,,,,,,,,60ff1beb456c2f3d0726e807,61036ee8b4e8cd61018fe129,2021-07-29_22h16.52.653,Simcolourproject_2stim_asymm_v5,2020.2.10,MacIntel,60,61025ae37ef11b136ea224fe,,,,,,,,,1532,72.03515625,40.26171875,1,0,0,response1disk,,6,5.6171875,1.53515625,1,0,0,rectangle,5.6171875,1.53515625,1,0,0,5.6171875,1.53515625,1,0,0,0,46,46,99,1,,,,,,,,
,,,,,,,,,,,,,FF,,,,,,,,0.983345,,,,,,,,,,,,,,,,,,,,,,60ff1beb456c2f3d0726e807,61036ee8b4e8cd61018fe129,2021-07-29_22h16.52.653,Simcolourproject_2stim_asymm_v5,2020.2.10,MacIntel,60,61025ae37ef11b136ea224fe,,,,,,,,,252,33.125,84.99609375,1,0,0,response1disk,,7,23.2890625,1.7109375,1,0,0,rectangle,23.2890625,1.7109375,1,0,0,23.2890625,1.7109375,1,0,0,0,47,47,103,1,,,,,,,,
,,,,,,,,,,,,,FF,,,,,,,,0.91656,,,,,,,,,,,,,,,,,,,,,,60ff1beb456c2f3d0726e807,61036ee8b4e8cd61018fe129,2021-07-29_22h16.52.653,Simcolourproject_2stim_asymm_v5,2020.2.10,MacIntel,60,61025ae37ef11b136ea224fe,,,,,,,,,2469,48.00390625,89.03125,1,0,0,response1disk,,7,-20.515625,-12.5625,1,0,0,rectangle,-20.515625,-12.5625,1,0,0,-20.515625,-12.5625,1,0,0,0,48,48,96,1,,,,,,,,
,,,,,,,,,,,,,FF,,,,,,,,1.166165,,,,,,,,,,,,,,,,,,,,,,60ff1beb456c2f3d0726e807,61036ee8b4e8cd61018fe129,2021-07-29_22h16.52.653,Simcolourproject_2stim_asymm_v5,2020.2.10,MacIntel,60,61025ae37ef11b136ea224fe,,,,,,,,,1241,65.1171875,78.64453125,1,0,0,response1disk,,7,2.41796875,-1.61328125,1,0,0,rectangle,2.41796875,-1.61328125,1,0,0,2.41796875,-1.61328125,1,0,0,0,49,49,137,1,,,,,,,,
,,,,,,,,,,,,,FF,,,,,,,,1.03282,,,,,,,,,,,,,,,,,,,,,,60ff1beb456c2f3d0726e807,61036ee8b4e8cd61018fe129,2021-07-29_22h16.52.653,Simcolourproject_2stim_asymm_v5,2020.2.10,MacIntel,60,61025ae37ef11b136ea224fe,,,,,,,,,3562,56.46484375,81.34375,1,0,0,response1disk,,7,4.9765625,9.16796875,1,0,0,rectangle,4.9765625,9.16796875,1,0,0,4.9765625,9.16796875,1,0,0,0,50,50,141,1,,,,,,,,
,,,,,,,,,,,,,FF,,,,,,,,0.68451,,,,,,,,,,,,,,,,,,,,,,60ff1beb456c2f3d0726e807,61036ee8b4e8cd61018fe129,2021-07-29_22h16.52.653,Simcolourproject_2stim_asymm_v5,2020.2.10,MacIntel,60,61025ae37ef11b136ea224fe,,,,,,,,,2142,42.01953125,66.85546875,1,0,0,response1disk,,7,21.515625,13.54296875,1,0,0,rectangle,21.515625,13.54296875,1,0,0,21.515625,13.54296875,1,0,0,0,51,51,47,1,,,,,,,,
,,,,,,,,,,,,,FF,,,,,,,,0.949335,,,,,,,,,,,,,,,,,,,,,,60ff1beb456c2f3d0726e807,61036ee8b4e8cd61018fe129,2021-07-29_22h16.52.653,Simcolourproject_2stim_asymm_v5,2020.2.10,MacIntel,60,61025ae37ef11b136ea224fe,,,,,,,,,2846,84.69140625,43.671875,1,0,0,response1disk,,6,11.6640625,1.109375,1,0,0,rectangle,63.78125,98.35546875,1,0,0,-5.46484375,2.98046875,1,0,0,0,52,52,19,1,,response1disk_3,TRUE,7,7,"[119,157,172,17,25,70,299,214,53,25,31,219,23,253,200,299,30,236,172,3]",2.04997,rectangle
,,,,,,,,,,,,,FF,,,,,,,,2.016265,,,,,,,,,,,,,,,,,,,,,,60ff1beb456c2f3d0726e807,61036ee8b4e8cd61018fe129,2021-07-29_22h16.52.653,Simcolourproject_2stim_asymm_v5,2020.2.10,MacIntel,60,61025ae37ef11b136ea224fe,,,,,,,,,387,56.41796875,93.046875,1,0,0,response1disk,,7,10.45703125,8.0859375,1,0,0,rectangle,10.45703125,8.0859375,1,0,0,10.45703125,8.0859375,1,0,0,0,53,53,23,1,,,,,,,,
,,,,,,,,,,,,,FF,,,,,,,,0.75037,,,,,,,,,,,,,,,,,,,,,,60ff1beb456c2f3d0726e807,61036ee8b4e8cd61018fe129,2021-07-29_22h16.52.653,Simcolourproject_2stim_asymm_v5,2020.2.10,MacIntel,60,61025ae37ef11b136ea224fe,,,,,,,,,1715,44.16015625,69.140625,1,0,0,response1disk,,7,20.97265625,6.73828125,1,0,0,rectangle,20.97265625,6.73828125,1,0,0,20.97265625,6.73828125,1,0,0,0,54,54,118,1,,,,,,,,
,,,,,,,,,,,,,FF,,,,,,,,1.467025,,,,,,,,,,,,,,,,,,,,,,60ff1beb456c2f3d0726e807,61036ee8b4e8cd61018fe129,2021-07-29_22h16.52.653,Simcolourproject_2stim_asymm_v5,2020.2.10,MacIntel,60,61025ae37ef11b136ea224fe,,,,,,,,,3502,93.20703125,35.46484375,1,0,0,response1disk,,6,12.54296875,1.04296875,1,0,0,rectangle,12.54296875,1.04296875,1,0,0,12.54296875,1.04296875,1,0,0,0,55,55,3,1,,,,,,,,
,,,,,,,,,,,,,FF,,,,,,,,1.616145,,,,,,,,,,,,,,,,,,,,,,60ff1beb456c2f3d0726e807,61036ee8b4e8cd61018fe129,2021-07-29_22h16.52.653,Simcolourproject_2stim_asymm_v5,2020.2.10,MacIntel,60,61025ae37ef11b136ea224fe,,,,,,,,,1902,75.19140625,102.3476563,1,0,0,response1disk,,7,-2.06640625,-0.09375,1,0,0,rectangle,-2.06640625,-0.09375,1,0,0,-2.06640625,-0.09375,1,0,0,0,56,56,115,1,,,,,,,,
,,,,,,,,,,,,,FF,,,,,,,,0.78392,,,,,,,,,,,,,,,,,,,,,,60ff1beb456c2f3d0726e807,61036ee8b4e8cd61018fe129,2021-07-29_22h16.52.653,Simcolourproject_2stim_asymm_v5,2020.2.10,MacIntel,60,61025ae37ef11b136ea224fe,,,,,,,,,4187,38.94140625,78.07421875,1,0,0,response1disk,,7,8.3515625,7.2109375,1,0,0,rectangle,8.3515625,7.2109375,1,0,0,8.3515625,7.2109375,1,0,0,0,57,57,71,1,,,,,,,,
,,,,,,,,,,,,,FF,,,,,,,,0.750765,,,,,,,,,,,,,,,,,,,,,,60ff1beb456c2f3d0726e807,61036ee8b4e8cd61018fe129,2021-07-29_22h16.52.653,Simcolourproject_2stim_asymm_v5,2020.2.10,MacIntel,60,61025ae37ef11b136ea224fe,,,,,,,,,1742,52.31640625,80.94140625,1,0,0,response1disk,,7,26.3203125,7.25390625,1,0,0,rectangle,26.3203125,7.25390625,1,0,0,26.3203125,7.25390625,1,0,0,0,58,58,35,1,,,,,,,,
,,,,,,,,,,,,,FF,,,,,,,,0.749935,,,,,,,,,,,,,,,,,,,,,,60ff1beb456c2f3d0726e807,61036ee8b4e8cd61018fe129,2021-07-29_22h16.52.653,Simcolourproject_2stim_asymm_v5,2020.2.10,MacIntel,60,61025ae37ef11b136ea224fe,,,,,,,,,1148,43.2421875,80.9765625,1,0,0,response1disk,,7,5.92578125,13.61328125,1,0,0,rectangle,5.92578125,13.61328125,1,0,0,5.92578125,13.61328125,1,0,0,0,59,59,106,1,,,,,,,,
,,,,,,,,,,,,,FF,,,,,,,,0.966995,,,,,,,,,,,,,,,,,,,,,,60ff1beb456c2f3d0726e807,61036ee8b4e8cd61018fe129,2021-07-29_22h16.52.653,Simcolourproject_2stim_asymm_v5,2020.2.10,MacIntel,60,61025ae37ef11b136ea224fe,,,,,,,,,4186,79.66796875,27.90625,1,0,0,response1disk,,6,11.23828125,-10.7734375,1,0,0,rectangle,11.23828125,-10.7734375,1,0,0,11.23828125,-10.7734375,1,0,0,0,60,60,78,1,,,,,,,,
,,,,,,,,,,,,,FF,,,,,,,,0.80126,,,,,,,,,,,,,,,,,,,,,,60ff1beb456c2f3d0726e807,61036ee8b4e8cd61018fe129,2021-07-29_22h16.52.653,Simcolourproject_2stim_asymm_v5,2020.2.10,MacIntel,60,61025ae37ef11b136ea224fe,,,,,,,,,836,40.9375,71.71875,1,0,0,response1disk,,7,25.23828125,2.828125,1,0,0,rectangle,25.23828125,2.828125,1,0,0,25.23828125,2.828125,1,0,0,0,61,61,135,1,,,,,,,,
,,,,,,,,,,,,,FF,,,,,,,,0.73301,,,,,,,,,,,,,,,,,,,,,,60ff1beb456c2f3d0726e807,61036ee8b4e8cd61018fe129,2021-07-29_22h16.52.653,Simcolourproject_2stim_asymm_v5,2020.2.10,MacIntel,60,61025ae37ef11b136ea224fe,,,,,,,,,22,45.3828125,96.66015625,1,0,0,response1disk,,7,14.69921875,11.1796875,1,0,0,rectangle,14.69921875,11.1796875,1,0,0,14.69921875,11.1796875,1,0,0,0,62,62,46,1,,,,,,,,
,,,,,,,,,,,,,FF,,,,,,,,0.832855,,,,,,,,,,,,,,,,,,,,,,60ff1beb456c2f3d0726e807,61036ee8b4e8cd61018fe129,2021-07-29_22h16.52.653,Simcolourproject_2stim_asymm_v5,2020.2.10,MacIntel,60,61025ae37ef11b136ea224fe,,,,,,,,,1216,61.765625,26.89453125,1,0,0,response1disk,,6,12.4140625,-4.3046875,1,0,0,rectangle,12.4140625,-4.3046875,1,0,0,12.4140625,-4.3046875,1,0,0,0,63,63,13,1,,,,,,,,
,,,,,,,,,,,,,FF,,,,,,,,0.700245,,,,,,,,,,,,,,,,,,,,,,60ff1beb456c2f3d0726e807,61036ee8b4e8cd61018fe129,2021-07-29_22h16.52.653,Simcolourproject_2stim_asymm_v5,2020.2.10,MacIntel,60,61025ae37ef11b136ea224fe,,,,,,,,,667,26.015625,68.203125,1,0,0,response1disk,,7,-4.65625,0.15625,1,0,0,rectangle,-4.65625,0.15625,1,0,0,-4.65625,0.15625,1,0,0,0,64,64,105,1,,,,,,,,
,,,,,,,,,,,,,FF,,,,,,,,0.683595,,,,,,,,,,,,,,,,,,,,,,60ff1beb456c2f3d0726e807,61036ee8b4e8cd61018fe129,2021-07-29_22h16.52.653,Simcolourproject_2stim_asymm_v5,2020.2.10,MacIntel,60,61025ae37ef11b136ea224fe,,,,,,,,,2113,42.94921875,86.015625,1,0,0,response1disk,,7,19.140625,11.13671875,1,0,0,rectangle,19.140625,11.13671875,1,0,0,19.140625,11.13671875,1,0,0,0,65,65,119,1,,,,,,,,
,,,,,,,,,,,,,FF,,,,,,,,0.616745,,,,,,,,,,,,,,,,,,,,,,60ff1beb456c2f3d0726e807,61036ee8b4e8cd61018fe129,2021-07-29_22h16.52.653,Simcolourproject_2stim_asymm_v5,2020.2.10,MacIntel,60,61025ae37ef11b136ea224fe,,,,,,,,,2110,44.8203125,84.49609375,1,0,0,response1disk,,7,23.1015625,2.09765625,1,0,0,rectangle,23.1015625,2.09765625,1,0,0,23.1015625,2.09765625,1,0,0,0,66,66,41,1,,,,,,,,
,,,,,,,,,,,,,FF,,,,,,,,2.51531,,,,,,,,,,,,,,,,,,,,,,60ff1beb456c2f3d0726e807,61036ee8b4e8cd61018fe129,2021-07-29_22h16.52.653,Simcolourproject_2stim_asymm_v5,2020.2.10,MacIntel,60,61025ae37ef11b136ea224fe,,,,,,,,,2217,-82.5546875,-37.56640625,1,0,0,response5disk,,2,3.11328125,0.93359375,1,0,0,rectangle,3.11328125,0.93359375,1,0,0,3.11328125,0.93359375,1,0,0,0,67,67,52,1,,,,,,,,
,,,,,,,,,,,,,FF,,,,,,,,0.86728,,,,,,,,,,,,,,,,,,,,,,60ff1beb456c2f3d0726e807,61036ee8b4e8cd61018fe129,2021-07-29_22h16.52.653,Simcolourproject_2stim_asymm_v5,2020.2.10,MacIntel,60,61025ae37ef11b136ea224fe,,,,,,,,,2225,57.75,91.328125,1,0,0,response1disk,,7,19.5546875,8.32421875,1,0,0,rectangle,19.5546875,8.32421875,1,0,0,19.5546875,8.32421875,1,0,0,0,68,68,142,1,,,,,,,,
,,,,,,,,,,,,,FF,,,,,,,,1.751095,,,,,,,,,,,,,,,,,,,,,,60ff1beb456c2f3d0726e807,61036ee8b4e8cd61018fe129,2021-07-29_22h16.52.653,Simcolourproject_2stim_asymm_v5,2020.2.10,MacIntel,60,61025ae37ef11b136ea224fe,,,,,,,,,1436,-36.2578125,-89.48046875,1,0,0,response5disk,,3,11.453125,-3.34765625,1,0,0,rectangle,-96.19921875,46.74609375,1,0,0,-0.01171875,-12.828125,1,0,0,0,69,69,147,1,,response7disk_3,TRUE,1,1,"[119,157,172,17,25,70,299,214,53,25,31,219,23,253,200,299,30,236,172,3]",1.849965,rectangle
,,,,,,,,,,,,,FF,,,,,,,,0.83307,,,,,,,,,,,,,,,,,,,,,,60ff1beb456c2f3d0726e807,61036ee8b4e8cd61018fe129,2021-07-29_22h16.52.653,Simcolourproject_2stim_asymm_v5,2020.2.10,MacIntel,60,61025ae37ef11b136ea224fe,,,,,,,,,3308,46.65625,76.47265625,1,0,0,response1disk,,7,13.66796875,11.42578125,1,0,0,rectangle,13.66796875,11.42578125,1,0,0,13.66796875,11.42578125,1,0,0,0,70,70,87,1,,,,,,,,
,,,,,,,,,,,,,FF,,,,,,,,1.032105,,,,,,,,,,,,,,,,,,,,,,60ff1beb456c2f3d0726e807,61036ee8b4e8cd61018fe129,2021-07-29_22h16.52.653,Simcolourproject_2stim_asymm_v5,2020.2.10,MacIntel,60,61025ae37ef11b136ea224fe,,,,,,,,,1234,42.65625,78.68359375,1,0,0,response1disk,,7,5.6796875,-5.97265625,1,0,0,rectangle,5.6796875,-5.97265625,1,0,0,5.6796875,-5.97265625,1,0,0,0,71,71,157,1,,,,,,,,
,,,,,,,,,,,,,FF,,,,,,,,2.08397,,,,,,,,,,,,,,,,,,,,,,60ff1beb456c2f3d0726e807,61036ee8b4e8cd61018fe129,2021-07-29_22h16.52.653,Simcolourproject_2stim_asymm_v5,2020.2.10,MacIntel,60,61025ae37ef11b136ea224fe,,,,,,,,,1256,68.84765625,85.66015625,1,0,0,response1disk,,7,27.70703125,-2.2734375,1,0,0,rectangle,27.70703125,-2.2734375,1,0,0,27.70703125,-2.2734375,1,0,0,0,72,72,138,1,,,,,,,,
,,,,,,,,,,,,,FF,,,,,,,,0.93384,,,,,,,,,,,,,,,,,,,,,,60ff1beb456c2f3d0726e807,61036ee8b4e8cd61018fe129,2021-07-29_22h16.52.653,Simcolourproject_2stim_asymm_v5,2020.2.10,MacIntel,60,61025ae37ef11b136ea224fe,,,,,,,,,563,62.80859375,27.0234375,1,0,0,response1disk,,6,22.80078125,-6.63671875,1,0,0,rectangle,22.80078125,-6.63671875,1,0,0,22.80078125,-6.63671875,1,0,0,0,73,73,40,1,,,,,,,,
,,,,,,,,,,,,,FF,,,,,,,,0.76662,,,,,,,,,,,,,,,,,,,,,,60ff1beb456c2f3d0726e807,61036ee8b4e8cd61018fe129,2021-07-29_22h16.52.653,Simcolourproject_2stim_asymm_v5,2020.2.10,MacIntel,60,61025ae37ef11b136ea224fe,,,,,,,,,1084,38.23046875,65.0859375,1,0,0,response1disk,,7,15.77734375,2.58203125,1,0,0,rectangle,15.77734375,2.58203125,1,0,0,15.77734375,2.58203125,1,0,0,0,74,74,43,1,,,,,,,,
,,,,,,,,,,,,,FF,,,,,,,,0.816165,,,,,,,,,,,,,,,,,,,,,,60ff1beb456c2f3d0726e807,61036ee8b4e8cd61018fe129,2021-07-29_22h16.52.653,Simcolourproject_2stim_asymm_v5,2020.2.10,MacIntel,60,61025ae37ef11b136ea224fe,,,,,,,,,3876,31.203125,56.984375,1,0,0,response1disk,,7,7.98046875,-17.88671875,1,0,0,rectangle,7.98046875,-17.88671875,1,0,0,7.98046875,-17.88671875,1,0,0,0,75,75,32,1,,,,,,,,
,,,,,,,,,,,,,FF,,,,,,,,0.751095,,,,,,,,,,,,,,,,,,,,,,60ff1beb456c2f3d0726e807,61036ee8b4e8cd61018fe129,2021-07-29_22h16.52.653,Simcolourproject_2stim_asymm_v5,2020.2.10,MacIntel,60,61025ae37ef11b136ea224fe,,,,,,,,,225,37.63671875,59.6484375,1,0,0,response1disk,,7,10.1953125,6.359375,1,0,0,rectangle,10.1953125,6.359375,1,0,0,10.1953125,6.359375,1,0,0,0,76,76,154,1,,,,,,,,
,,,,,,,,,,,,,FF,,,,,,,,0.75037,,,,,,,,,,,,,,,,,,,,,,60ff1beb456c2f3d0726e807,61036ee8b4e8cd61018fe129,2021-07-29_22h16.52.653,Simcolourproject_2stim_asymm_v5,2020.2.10,MacIntel,60,61025ae37ef11b136ea224fe,,,,,,,,,1941,36.140625,68.91015625,1,0,0,response1disk,,7,17.08203125,5.7421875,1,0,0,rectangle,17.08203125,5.7421875,1,0,0,17.08203125,5.7421875,1,0,0,0,77,77,129,1,,,,,,,,
,,,,,,,,,,,,,FF,,,,,,,,0.850455,,,,,,,,,,,,,,,,,,,,,,60ff1beb456c2f3d0726e807,61036ee8b4e8cd61018fe129,2021-07-29_22h16.52.653,Simcolourproject_2stim_asymm_v5,2020.2.10,MacIntel,60,61025ae37ef11b136ea224fe,,,,,,,,,1717,51.6328125,66.83203125,1,0,0,response1disk,,7,24.06640625,1.78125,1,0,0,rectangle,24.06640625,1.78125,1,0,0,24.06640625,1.78125,1,0,0,0,78,78,20,1,,,,,,,,
,,,,,,,,,,,,,FF,,,,,,,,0.683535,,,,,,,,,,,,,,,,,,,,,,60ff1beb456c2f3d0726e807,61036ee8b4e8cd61018fe129,2021-07-29_22h16.52.653,Simcolourproject_2stim_asymm_v5,2020.2.10,MacIntel,60,61025ae37ef11b136ea224fe,,,,,,,,,4210,49.1640625,73.58203125,1,0,0,response1disk,,7,0.8984375,-7.73828125,1,0,0,rectangle,0.8984375,-7.73828125,1,0,0,0.8984375,-7.73828125,1,0,0,0,79,79,130,1,,,,,,,,
,,,,,,,,,,,,,FF,,,,,,,,0.66781,,,,,,,,,,,,,,,,,,,,,,60ff1beb456c2f3d0726e807,61036ee8b4e8cd61018fe129,2021-07-29_22h16.52.653,Simcolourproject_2stim_asymm_v5,2020.2.10,MacIntel,60,61025ae37ef11b136ea224fe,,,,,,,,,205,35.04296875,69.59375,1,0,0,response1disk,,7,9.7421875,11.0234375,1,0,0,rectangle,9.7421875,11.0234375,1,0,0,9.7421875,11.0234375,1,0,0,0,80,80,145,1,,,,,,,,
,,,,,,,,,,,,,FF,,,,,,,,0.64938,,,,,,,,,,,,,,,,,,,,,,60ff1beb456c2f3d0726e807,61036ee8b4e8cd61018fe129,2021-07-29_22h16.52.653,Simcolourproject_2stim_asymm_v5,2020.2.10,MacIntel,60,61025ae37ef11b136ea224fe,,,,,,,,,2924,44.36328125,66.63671875,1,0,0,response1disk,,7,10.41015625,-6.3671875,1,0,0,rectangle,10.41015625,-6.3671875,1,0,0,10.41015625,-6.3671875,1,0,0,0,81,81,1,1,,,,,,,,
,,,,,,,,,,,,,FF,,,,,,,,0.683705,,,,,,,,,,,,,,,,,,,,,,60ff1beb456c2f3d0726e807,61036ee8b4e8cd61018fe129,2021-07-29_22h16.52.653,Simcolourproject_2stim_asymm_v5,2020.2.10,MacIntel,60,61025ae37ef11b136ea224fe,,,,,,,,,419,34.59765625,73.75390625,1,0,0,response1disk,,7,2.36328125,13.06640625,1,0,0,rectangle,2.36328125,13.06640625,1,0,0,2.36328125,13.06640625,1,0,0,0,82,82,128,1,,,,,,,,
,,,,,,,,,,,,,FF,,,,,,,,0.95062,,,,,,,,,,,,,,,,,,,,,,60ff1beb456c2f3d0726e807,61036ee8b4e8cd61018fe129,2021-07-29_22h16.52.653,Simcolourproject_2stim_asymm_v5,2020.2.10,MacIntel,60,61025ae37ef11b136ea224fe,,,,,,,,,2368,61.8125,20.51953125,1,0,0,response1disk,,6,24.20703125,0.875,1,0,0,rectangle,24.20703125,0.875,1,0,0,24.20703125,0.875,1,0,0,0,83,83,152,1,,,,,,,,
,,,,,,,,,,,,,FF,,,,,,,,0.96587,,,,,,,,,,,,,,,,,,,,,,60ff1beb456c2f3d0726e807,61036ee8b4e8cd61018fe129,2021-07-29_22h16.52.653,Simcolourproject_2stim_asymm_v5,2020.2.10,MacIntel,60,61025ae37ef11b136ea224fe,,,,,,,,,1360,39.03125,75.97265625,1,0,0,response1disk,,7,11.421875,13.42578125,1,0,0,rectangle,11.421875,13.42578125,1,0,0,11.421875,13.42578125,1,0,0,0,84,84,112,1,,,,,,,,
,,,,,,,,,,,,,FF,,,,,,,,1.283985,,,,,,,,,,,,,,,,,,,,,,60ff1beb456c2f3d0726e807,61036ee8b4e8cd61018fe129,2021-07-29_22h16.52.653,Simcolourproject_2stim_asymm_v5,2020.2.10,MacIntel,60,61025ae37ef11b136ea224fe,,,,,,,,,1446,44.5546875,-79.01171875,1,0,0,response3disk,,4,6.48046875,2.53125,1,0,0,rectangle,6.48046875,2.53125,1,0,0,6.48046875,2.53125,1,0,0,0,85,85,92,1,,,,,,,,
,,,,,,,,,,,,,FF,,,,,,,,0.80012,,,,,,,,,,,,,,,,,,,,,,60ff1beb456c2f3d0726e807,61036ee8b4e8cd61018fe129,2021-07-29_22h16.52.653,Simcolourproject_2stim_asymm_v5,2020.2.10,MacIntel,60,61025ae37ef11b136ea224fe,,,,,,,,,4039,39.14453125,76.5859375,1,0,0,response1disk,,7,8.51171875,-9.21875,1,0,0,rectangle,8.51171875,-9.21875,1,0,0,8.51171875,-9.21875,1,0,0,0,86,86,15,1,,,,,,,,
,,,,,,,,,,,,,FF,,,,,,,,0.81678,,,,,,,,,,,,,,,,,,,,,,60ff1beb456c2f3d0726e807,61036ee8b4e8cd61018fe129,2021-07-29_22h16.52.653,Simcolourproject_2stim_asymm_v5,2020.2.10,MacIntel,60,61025ae37ef11b136ea224fe,,,,,,,,,942,43.84765625,74.16796875,1,0,0,response1disk,,7,16.93359375,14.26171875,1,0,0,rectangle,16.93359375,14.26171875,1,0,0,16.93359375,14.26171875,1,0,0,0,87,87,58,1,,,,,,,,
,,,,,,,,,,,,,FF,,,,,,,,2.768005,,,,,,,,,,,,,,,,,,,,,,60ff1beb456c2f3d0726e807,61036ee8b4e8cd61018fe129,2021-07-29_22h16.52.653,Simcolourproject_2stim_asymm_v5,2020.2.10,MacIntel,60,61025ae37ef11b136ea224fe,,,,,,,,,2209,76.546875,26.2421875,1,0,0,response1disk,,6,3.55859375,0.46875,1,0,0,rectangle,3.55859375,0.46875,1,0,0,3.55859375,0.46875,1,0,0,0,88,88,0,1,,,,,,,,
,,,,,,,,,,,,,FF,,,,,,,,1.28377,,,,,,,,,,,,,,,,,,,,,,60ff1beb456c2f3d0726e807,61036ee8b4e8cd61018fe129,2021-07-29_22h16.52.653,Simcolourproject_2stim_asymm_v5,2020.2.10,MacIntel,60,61025ae37ef11b136ea224fe,,,,,,,,,4022,75.1875,40.3984375,1,0,0,response1disk,,6,13.9765625,-7.65234375,1,0,0,rectangle,13.9765625,-7.65234375,1,0,0,13.9765625,-7.65234375,1,0,0,0,89,89,6,1,,,,,,,,
,,,,,,,,,,,,,FF,,,,,,,,0.68317,,,,,,,,,,,,,,,,,,,,,,60ff1beb456c2f3d0726e807,61036ee8b4e8cd61018fe129,2021-07-29_22h16.52.653,Simcolourproject_2stim_asymm_v5,2020.2.10,MacIntel,60,61025ae37ef11b136ea224fe,,,,,,,,,3982,32.80078125,55,1,0,0,response1disk,,7,25.79296875,6.08984375,1,0,0,rectangle,25.79296875,6.08984375,1,0,0,25.79296875,6.08984375,1,0,0,0,90,90,31,1,,,,,,,,
,,,,,,,,,,,,,FF,,,,,,,,1.26655,,,,,,,,,,,,,,,,,,,,,,60ff1beb456c2f3d0726e807,61036ee8b4e8cd61018fe129,2021-07-29_22h16.52.653,Simcolourproject_2stim_asymm_v5,2020.2.10,MacIntel,60,61025ae37ef11b136ea224fe,,,,,,,,,2029,32.3359375,-92.49609375,1,0,0,response3disk,,4,5.84765625,5.8203125,1,0,0,rectangle,5.84765625,5.8203125,1,0,0,5.84765625,5.8203125,1,0,0,0,91,91,121,1,,,,,,,,
,,,,,,,,,,,,,FF,,,,,,,,0.9995,,,,,,,,,,,,,,,,,,,,,,60ff1beb456c2f3d0726e807,61036ee8b4e8cd61018fe129,2021-07-29_22h16.52.653,Simcolourproject_2stim_asymm_v5,2020.2.10,MacIntel,60,61025ae37ef11b136ea224fe,,,,,,,,,3118,53.87109375,84.8828125,1,0,0,response1disk,,7,31.36328125,3.734375,1,0,0,rectangle,31.36328125,3.734375,1,0,0,31.36328125,3.734375,1,0,0,0,92,92,101,1,,,,,,,,
,,,,,,,,,,,,,FF,,,,,,,,0.783655,,,,,,,,,,,,,,,,,,,,,,60ff1beb456c2f3d0726e807,61036ee8b4e8cd61018fe129,2021-07-29_22h16.52.653,Simcolourproject_2stim_asymm_v5,2020.2.10,MacIntel,60,61025ae37ef11b136ea224fe,,,,,,,,,3981,41.359375,70.00390625,1,0,0,response1disk,,7,19.1875,7.31640625,1,0,0,rectangle,19.1875,7.31640625,1,0,0,19.1875,7.31640625,1,0,0,0,93,93,83,1,,,,,,,,
,,,,,,,,,,,,,FF,,,,,,,,0.766245,,,,,,,,,,,,,,,,,,,,,,60ff1beb456c2f3d0726e807,61036ee8b4e8cd61018fe129,2021-07-29_22h16.52.653,Simcolourproject_2stim_asymm_v5,2020.2.10,MacIntel,60,61025ae37ef11b136ea224fe,,,,,,,,,3309,22.171875,49.76953125,1,0,0,response1disk,,7,18.4296875,-1.28515625,1,0,0,rectangle,18.4296875,-1.28515625,1,0,0,18.4296875,-1.28515625,1,0,0,0,94,94,90,1,,,,,,,,
,,,,,,,,,,,,,FF,,,,,,,,1.33303,,,,,,,,,,,,,,,,,,,,,,60ff1beb456c2f3d0726e807,61036ee8b4e8cd61018fe129,2021-07-29_22h16.52.653,Simcolourproject_2stim_asymm_v5,2020.2.10,MacIntel,60,61025ae37ef11b136ea224fe,,,,,,,,,4266,-68.9375,29.04296875,1,0,0,response7disk,,1,-3.6875,0.4296875,1,0,0,rectangle,-3.6875,0.4296875,1,0,0,-3.6875,0.4296875,1,0,0,0,95,95,54,1,,,,,,,,
,,,,,,,,,,,,,FF,,,,,,,,0.94932,,,,,,,,,,,,,,,,,,,,,,60ff1beb456c2f3d0726e807,61036ee8b4e8cd61018fe129,2021-07-29_22h16.52.653,Simcolourproject_2stim_asymm_v5,2020.2.10,MacIntel,60,61025ae37ef11b136ea224fe,,,,,,,,,2796,42.15234375,75.01953125,1,0,0,response1disk,,7,21.10546875,-0.6796875,1,0,0,rectangle,21.10546875,-0.6796875,1,0,0,21.10546875,-0.6796875,1,0,0,0,96,96,153,1,,,,,,,,
,,,,,,,,,,,,,FF,,,,,,,,0.81733,,,,,,,,,,,,,,,,,,,,,,60ff1beb456c2f3d0726e807,61036ee8b4e8cd61018fe129,2021-07-29_22h16.52.653,Simcolourproject_2stim_asymm_v5,2020.2.10,MacIntel,60,61025ae37ef11b136ea224fe,,,,,,,,,2492,31.30078125,60.13671875,1,0,0,response1disk,,7,6.328125,3.30859375,1,0,0,rectangle,6.328125,3.30859375,1,0,0,6.328125,3.30859375,1,0,0,0,97,97,72,1,,,,,,,,
,,,,,,,,,,,,,FF,,,,,,,,0.81705,,,,,,,,,,,,,,,,,,,,,,60ff1beb456c2f3d0726e807,61036ee8b4e8cd61018fe129,2021-07-29_22h16.52.653,Simcolourproject_2stim_asymm_v5,2020.2.10,MacIntel,60,61025ae37ef11b136ea224fe,,,,,,,,,4302,45.37890625,77.0234375,1,0,0,response1disk,,7,9.7109375,-6.078125,1,0,0,rectangle,9.7109375,-6.078125,1,0,0,9.7109375,-6.078125,1,0,0,0,98,98,79,1,,,,,,,,
,,,,,,,,,,,,,FF,,,,,,,,0.801605,,,,,,,,,,,,,,,,,,,,,,60ff1beb456c2f3d0726e807,61036ee8b4e8cd61018fe129,2021-07-29_22h16.52.653,Simcolourproject_2stim_asymm_v5,2020.2.10,MacIntel,60,61025ae37ef11b136ea224fe,,,,,,,,,2633,46.97265625,80.28515625,1,0,0,response1disk,,7,13.3203125,3.51953125,1,0,0,rectangle,13.3203125,3.51953125,1,0,0,13.3203125,3.51953125,1,0,0,0,99,99,50,1,,,,,,,,
,,,,,,,,,,,,,FF,,,,,,,,1.749875,,,,,,,,,,,,,,,,,,,,,,60ff1beb456c2f3d0726e807,61036ee8b4e8cd61018fe129,2021-07-29_22h16.52.653,Simcolourproject_2stim_asymm_v5,2020.2.10,MacIntel,60,61025ae37ef11b136ea224fe,,,,,,,,,2428,97.69921875,-34.51171875,1,0,0,response3disk,,5,15.890625,17.92578125,1,0,0,rectangle,15.890625,17.92578125,1,0,0,15.890625,17.92578125,1,0,0,0,100,100,48,1,,,,,,,,
,,,,,,,,,,,,,FF,,,,,,,,1.28501,,,,,,,,,,,,,,,,,,,,,,60ff1beb456c2f3d0726e807,61036ee8b4e8cd61018fe129,2021-07-29_22h16.52.653,Simcolourproject_2stim_asymm_v5,2020.2.10,MacIntel,60,61025ae37ef11b136ea224fe,,,,,,,,,3931,32.984375,73.31640625,1,0,0,response1disk,,7,8.37109375,3.625,1,0,0,rectangle,8.37109375,3.625,1,0,0,8.37109375,3.625,1,0,0,0,101,101,122,1,,,,,,,,
,,,,,,,,,,,,,FF,,,,,,,,1.166255,,,,,,,,,,,,,,,,,,,,,,60ff1beb456c2f3d0726e807,61036ee8b4e8cd61018fe129,2021-07-29_22h16.52.653,Simcolourproject_2stim_asymm_v5,2020.2.10,MacIntel,60,61025ae37ef11b136ea224fe,,,,,,,,,1179,76.51953125,28.6875,1,0,0,response1disk,,6,19.1796875,-1.4375,1,0,0,rectangle,19.1796875,-1.4375,1,0,0,19.1796875,-1.4375,1,0,0,0,102,102,27,1,,,,,,,,
,,,,,,,,,,,,,FF,,,,,,,,2.318305,,,,,,,,,,,,,,,,,,,,,,60ff1beb456c2f3d0726e807,61036ee8b4e8cd61018fe129,2021-07-29_22h16.52.653,Simcolourproject_2stim_asymm_v5,2020.2.10,MacIntel,60,61025ae37ef11b136ea224fe,,,,,,,,,167,92.62890625,41.83984375,1,0,0,response1disk,,6,20.484375,-3.296875,1,0,0,rectangle,20.484375,-3.296875,1,0,0,20.484375,-3.296875,1,0,0,0,103,103,10,1,,,,,,,,
,,,,,,,,,,,,,FF,,,,,,,,0.8334,,,,,,,,,,,,,,,,,,,,,,60ff1beb456c2f3d0726e807,61036ee8b4e8cd61018fe129,2021-07-29_22h16.52.653,Simcolourproject_2stim_asymm_v5,2020.2.10,MacIntel,60,61025ae37ef11b136ea224fe,,,,,,,,,35,35.89453125,75.73828125,1,0,0,response1disk,,7,8.40625,-5.046875,1,0,0,rectangle,8.40625,-5.046875,1,0,0,8.40625,-5.046875,1,0,0,0,104,104,155,1,,,,,,,,
,,,,,,,,,,,,,FF,,,,,,,,0.749775,,,,,,,,,,,,,,,,,,,,,,60ff1beb456c2f3d0726e807,61036ee8b4e8cd61018fe129,2021-07-29_22h16.52.653,Simcolourproject_2stim_asymm_v5,2020.2.10,MacIntel,60,61025ae37ef11b136ea224fe,,,,,,,,,3440,32.48046875,70.7421875,1,0,0,response1disk,,7,16.12109375,6.08984375,1,0,0,rectangle,16.12109375,6.08984375,1,0,0,16.12109375,6.08984375,1,0,0,0,105,105,33,1,,,,,,,,
,,,,,,,,,,,,,FF,,,,,,,,0.765755,,,,,,,,,,,,,,,,,,,,,,60ff1beb456c2f3d0726e807,61036ee8b4e8cd61018fe129,2021-07-29_22h16.52.653,Simcolourproject_2stim_asymm_v5,2020.2.10,MacIntel,60,61025ae37ef11b136ea224fe,,,,,,,,,2376,46.63671875,81.3671875,1,0,0,response1disk,,7,14.1796875,4.53125,1,0,0,rectangle,14.1796875,4.53125,1,0,0,14.1796875,4.53125,1,0,0,0,106,106,146,1,,,,,,,,
,,,,,,,,,,,,,FF,,,,,,,,0.75031,,,,,,,,,,,,,,,,,,,,,,60ff1beb456c2f3d0726e807,61036ee8b4e8cd61018fe129,2021-07-29_22h16.52.653,Simcolourproject_2stim_asymm_v5,2020.2.10,MacIntel,60,61025ae37ef11b136ea224fe,,,,,,,,,2630,40.2421875,69.38671875,1,0,0,response1disk,,7,17.890625,4.99609375,1,0,0,rectangle,17.890625,4.99609375,1,0,0,17.890625,4.99609375,1,0,0,0,107,107,94,1,,,,,,,,
,,,,,,,,,,,,,FF,,,,,,,,1.19977,,,,,,,,,,,,,,,,,,,,,,60ff1beb456c2f3d0726e807,61036ee8b4e8cd61018fe129,2021-07-29_22h16.52.653,Simcolourproject_2stim_asymm_v5,2020.2.10,MacIntel,60,61025ae37ef11b136ea224fe,,,,,,,,,718,43.5390625,-79.59765625,1,0,0,response3disk,,4,-2.83203125,8.77734375,1,0,0,rectangle,-2.83203125,8.77734375,1,0,0,-2.83203125,8.77734375,1,0,0,0,108,108,34,1,,,,,,,,
,,,,,,,,,,,,,FF,,,,,,,,0.71655,,,,,,,,,,,,,,,,,,,,,,60ff1beb456c2f3d0726e807,61036ee8b4e8cd61018fe129,2021-07-29_22h16.52.653,Simcolourproject_2stim_asymm_v5,2020.2.10,MacIntel,60,61025ae37ef11b136ea224fe,,,,,,,,,3222,38.65625,82.5234375,1,0,0,response1disk,,7,7.73828125,-6.6328125,1,0,0,rectangle,7.73828125,-6.6328125,1,0,0,7.73828125,-6.6328125,1,0,0,0,109,109,57,1,,,,,,,,
,,,,,,,,,,,,,FF,,,,,,,,0.998995,,,,,,,,,,,,,,,,,,,,,,60ff1beb456c2f3d0726e807,61036ee8b4e8cd61018fe129,2021-07-29_22h16.52.653,Simcolourproject_2stim_asymm_v5,2020.2.10,MacIntel,60,61025ae37ef11b136ea224fe,,,,,,,,,3715,52.46484375,36.04296875,1,0,0,response1disk,,6,20.7890625,-1.07421875,1,0,0,rectangle,20.7890625,-1.07421875,1,0,0,20.7890625,-1.07421875,1,0,0,0,110,110,151,1,,,,,,,,
,,,,,,,,,,,,,FF,,,,,,,,0.65029,,,,,,,,,,,,,,,,,,,,,,60ff1beb456c2f3d0726e807,61036ee8b4e8cd61018fe129,2021-07-29_22h16.52.653,Simcolourproject_2stim_asymm_v5,2020.2.10,MacIntel,60,61025ae37ef11b136ea224fe,,,,,,,,,847,38.328125,65.296875,1,0,0,response1disk,,7,23.06640625,9.77734375,1,0,0,rectangle,23.06640625,9.77734375,1,0,0,23.06640625,9.77734375,1,0,0,0,111,111,107,1,,,,,,,,
,,,,,,,,,,,,,FF,,,,,,,,0.61754,,,,,,,,,,,,,,,,,,,,,,60ff1beb456c2f3d0726e807,61036ee8b4e8cd61018fe129,2021-07-29_22h16.52.653,Simcolourproject_2stim_asymm_v5,2020.2.10,MacIntel,60,61025ae37ef11b136ea224fe,,,,,,,,,3693,39.05859375,70.18359375,1,0,0,response1disk,,7,22.56640625,2.94140625,1,0,0,rectangle,22.56640625,2.94140625,1,0,0,22.56640625,2.94140625,1,0,0,0,112,112,108,1,,,,,,,,
,,,,,,,,,,,,,FF,,,,,,,,0.8327,,,,,,,,,,,,,,,,,,,,,,60ff1beb456c2f3d0726e807,61036ee8b4e8cd61018fe129,2021-07-29_22h16.52.653,Simcolourproject_2stim_asymm_v5,2020.2.10,MacIntel,60,61025ae37ef11b136ea224fe,,,,,,,,,737,46.51171875,63.16015625,1,0,0,response1disk,,7,26.1328125,0.5546875,1,0,0,rectangle,26.1328125,0.5546875,1,0,0,26.1328125,0.5546875,1,0,0,0,113,113,36,1,,,,,,,,
,,,,,,,,,,,,,FF,,,,,,,,1.18357,,,,,,,,,,,,,,,,,,,,,,60ff1beb456c2f3d0726e807,61036ee8b4e8cd61018fe129,2021-07-29_22h16.52.653,Simcolourproject_2stim_asymm_v5,2020.2.10,MacIntel,60,61025ae37ef11b136ea224fe,,,,,,,,,3234,70.73828125,37.11328125,1,0,0,response1disk,,6,23.40625,3.37890625,1,0,0,rectangle,23.40625,3.37890625,1,0,0,23.40625,3.37890625,1,0,0,0,114,114,104,1,,,,,,,,
,,,,,,,,,,,,,FF,,,,,,,,1.166715,,,,,,,,,,,,,,,,,,,,,,60ff1beb456c2f3d0726e807,61036ee8b4e8cd61018fe129,2021-07-29_22h16.52.653,Simcolourproject_2stim_asymm_v5,2020.2.10,MacIntel,60,61025ae37ef11b136ea224fe,,,,,,,,,1152,66.33203125,34.87109375,1,0,0,response1disk,,6,14.6171875,1.703125,1,0,0,rectangle,14.6171875,1.703125,1,0,0,14.6171875,1.703125,1,0,0,0,115,115,159,1,,,,,,,,
,,,,,,,,,,,,,FF,,,,,,,,0.76751,,,,,,,,,,,,,,,,,,,,,,60ff1beb456c2f3d0726e807,61036ee8b4e8cd61018fe129,2021-07-29_22h16.52.653,Simcolourproject_2stim_asymm_v5,2020.2.10,MacIntel,60,61025ae37ef11b136ea224fe,,,,,,,,,1393,42.83984375,72.5234375,1,0,0,response1disk,,7,20.28515625,0.98828125,1,0,0,rectangle,20.28515625,0.98828125,1,0,0,20.28515625,0.98828125,1,0,0,0,116,116,114,1,,,,,,,,
,,,,,,,,,,,,,FF,,,,,,,,1.13363,,,,,,,,,,,,,,,,,,,,,,60ff1beb456c2f3d0726e807,61036ee8b4e8cd61018fe129,2021-07-29_22h16.52.653,Simcolourproject_2stim_asymm_v5,2020.2.10,MacIntel,60,61025ae37ef11b136ea224fe,,,,,,,,,2357,77.6640625,35.0390625,1,0,0,response1disk,,6,-0.87890625,5.9765625,1,0,0,rectangle,-0.87890625,5.9765625,1,0,0,-0.87890625,5.9765625,1,0,0,0,117,117,25,1,,,,,,,,
,,,,,,,,,,,,,FF,,,,,,,,0.699515,,,,,,,,,,,,,,,,,,,,,,60ff1beb456c2f3d0726e807,61036ee8b4e8cd61018fe129,2021-07-29_22h16.52.653,Simcolourproject_2stim_asymm_v5,2020.2.10,MacIntel,60,61025ae37ef11b136ea224fe,,,,,,,,,3351,28.16796875,81.0703125,1,0,0,response1disk,,7,18.87890625,9.234375,1,0,0,rectangle,-86.82421875,-28.6875,1,0,0,-12.8984375,-0.8359375,1,0,0,0,118,118,55,1,,response5disk_3,TRUE,2,2,"[119,157,172,17,25,70,299,214,53,25,31,219,23,253,200,299,30,236,172,3]",1.46773,rectangle
,,,,,,,,,,,,,FF,,,,,,,,0.91727,,,,,,,,,,,,,,,,,,,,,,60ff1beb456c2f3d0726e807,61036ee8b4e8cd61018fe129,2021-07-29_22h16.52.653,Simcolourproject_2stim_asymm_v5,2020.2.10,MacIntel,60,61025ae37ef11b136ea224fe,,,,,,,,,2299,50.23046875,69.3828125,1,0,0,response1disk,,7,19.60546875,0.4609375,1,0,0,rectangle,19.60546875,0.4609375,1,0,0,19.60546875,0.4609375,1,0,0,0,119,119,127,1,,,,,,,,
,,,,,,,,,,,,,FF,,,,,,,,1.33374,,,,,,,,,,,,,,,,,,,,,,60ff1beb456c2f3d0726e807,61036ee8b4e8cd61018fe129,2021-07-29_22h16.52.653,Simcolourproject_2stim_asymm_v5,2020.2.10,MacIntel,60,61025ae37ef11b136ea224fe,,,,,,,,,2060,30.203125,71.1171875,1,0,0,response1disk,,7,23.37109375,9.07421875,1,0,0,rectangle,23.37109375,9.07421875,1,0,0,23.37109375,9.07421875,1,0,0,0,120,120,97,1,,,,,,,,
,,,,,,,,,,,,,FF,,,,,,,,0.849875,,,,,,,,,,,,,,,,,,,,,,60ff1beb456c2f3d0726e807,61036ee8b4e8cd61018fe129,2021-07-29_22h16.52.653,Simcolourproject_2stim_asymm_v5,2020.2.10,MacIntel,60,61025ae37ef11b136ea224fe,,,,,,,,,1237,39.4453125,57.46484375,1,0,0,response1disk,,7,23.44140625,4.84375,1,0,0,rectangle,23.44140625,4.84375,1,0,0,23.44140625,4.84375,1,0,0,0,121,121,93,1,,,,,,,,
,,,,,,,,,,,,,FF,,,,,,,,2.06526,,,,,,,,,,,,,,,,,,,,,,60ff1beb456c2f3d0726e807,61036ee8b4e8cd61018fe129,2021-07-29_22h16.52.653,Simcolourproject_2stim_asymm_v5,2020.2.10,MacIntel,60,61025ae37ef11b136ea224fe,,,,,,,,,1164,45.33984375,73.8359375,1,0,0,response1disk,,7,4.48828125,-9.90625,1,0,0,rectangle,4.48828125,-9.90625,1,0,0,4.48828125,-9.90625,1,0,0,0,122,122,5,1,,,,,,,,
,,,,,,,,,,,,,FF,,,,,,,,0.767765,,,,,,,,,,,,,,,,,,,,,,60ff1beb456c2f3d0726e807,61036ee8b4e8cd61018fe129,2021-07-29_22h16.52.653,Simcolourproject_2stim_asymm_v5,2020.2.10,MacIntel,60,61025ae37ef11b136ea224fe,,,,,,,,,1178,56.74609375,84.7890625,1,0,0,response1disk,,7,28.328125,3.453125,1,0,0,rectangle,28.328125,3.453125,1,0,0,28.328125,3.453125,1,0,0,0,123,123,49,1,,,,,,,,
,,,,,,,,,,,,,FF,,,,,,,,0.78427,,,,,,,,,,,,,,,,,,,,,,60ff1beb456c2f3d0726e807,61036ee8b4e8cd61018fe129,2021-07-29_22h16.52.653,Simcolourproject_2stim_asymm_v5,2020.2.10,MacIntel,60,61025ae37ef11b136ea224fe,,,,,,,,,204,50.1328125,74.81640625,1,0,0,response1disk,,7,30.79296875,12.77734375,1,0,0,rectangle,30.79296875,12.77734375,1,0,0,30.79296875,12.77734375,1,0,0,0,124,124,37,1,,,,,,,,
,,,,,,,,,,,,,FF,,,,,,,,0.78248,,,,,,,,,,,,,,,,,,,,,,60ff1beb456c2f3d0726e807,61036ee8b4e8cd61018fe129,2021-07-29_22h16.52.653,Simcolourproject_2stim_asymm_v5,2020.2.10,MacIntel,60,61025ae37ef11b136ea224fe,,,,,,,,,2375,60.8515625,96.97265625,1,0,0,response1disk,,7,-4.328125,-9.7734375,1,0,0,rectangle,-4.328125,-9.7734375,1,0,0,-4.328125,-9.7734375,1,0,0,0,125,125,29,1,,,,,,,,
,,,,,,,,,,,,,FF,,,,,,,,1.11569,,,,,,,,,,,,,,,,,,,,,,60ff1beb456c2f3d0726e807,61036ee8b4e8cd61018fe129,2021-07-29_22h16.52.653,Simcolourproject_2stim_asymm_v5,2020.2.10,MacIntel,60,61025ae37ef11b136ea224fe,,,,,,,,,1889,90.37109375,-26.63671875,1,0,0,response3disk,,5,11.8671875,1.32421875,1,0,0,rectangle,11.8671875,1.32421875,1,0,0,11.8671875,1.32421875,1,0,0,0,126,126,134,1,,,,,,,,
,,,,,,,,,,,,,FF,,,,,,,,0.717045,,,,,,,,,,,,,,,,,,,,,,60ff1beb456c2f3d0726e807,61036ee8b4e8cd61018fe129,2021-07-29_22h16.52.653,Simcolourproject_2stim_asymm_v5,2020.2.10,MacIntel,60,61025ae37ef11b136ea224fe,,,,,,,,,2136,50.53125,93.921875,1,0,0,response1disk,,7,21.3203125,9.15625,1,0,0,rectangle,21.3203125,9.15625,1,0,0,21.3203125,9.15625,1,0,0,0,127,127,68,1,,,,,,,,
,,,,,,,,,,,,,FF,,,,,,,,1.583565,,,,,,,,,,,,,,,,,,,,,,60ff1beb456c2f3d0726e807,61036ee8b4e8cd61018fe129,2021-07-29_22h16.52.653,Simcolourproject_2stim_asymm_v5,2020.2.10,MacIntel,60,61025ae37ef11b136ea224fe,,,,,,,,,459,76.125,-25.8828125,1,0,0,response3disk,,5,16.859375,0.8125,1,0,0,rectangle,16.859375,0.8125,1,0,0,16.859375,0.8125,1,0,0,0,128,128,30,1,,,,,,,,
,,,,,,,,,,,,,FF,,,,,,,,0.66703,,,,,,,,,,,,,,,,,,,,,,60ff1beb456c2f3d0726e807,61036ee8b4e8cd61018fe129,2021-07-29_22h16.52.653,Simcolourproject_2stim_asymm_v5,2020.2.10,MacIntel,60,61025ae37ef11b136ea224fe,,,,,,,,,858,34.6015625,82.75390625,1,0,0,response1disk,,7,23.07421875,8.87890625,1,0,0,rectangle,23.07421875,8.87890625,1,0,0,23.07421875,8.87890625,1,0,0,0,129,129,14,1,,,,,,,,
,,,,,,,,,,,,,FF,,,,,,,,0.783025,,,,,,,,,,,,,,,,,,,,,,60ff1beb456c2f3d0726e807,61036ee8b4e8cd61018fe129,2021-07-29_22h16.52.653,Simcolourproject_2stim_asymm_v5,2020.2.10,MacIntel,60,61025ae37ef11b136ea224fe,,,,,,,,,340,36.81640625,65,1,0,0,response1disk,,7,20.62109375,-4.8046875,1,0,0,rectangle,20.62109375,-4.8046875,1,0,0,20.62109375,-4.8046875,1,0,0,0,130,130,132,1,,,,,,,,
,,,,,,,,,,,,,FF,,,,,,,,0.934585,,,,,,,,,,,,,,,,,,,,,,60ff1beb456c2f3d0726e807,61036ee8b4e8cd61018fe129,2021-07-29_22h16.52.653,Simcolourproject_2stim_asymm_v5,2020.2.10,MacIntel,60,61025ae37ef11b136ea224fe,,,,,,,,,3594,55.73046875,99.5234375,1,0,0,response1disk,,7,9.6171875,8.609375,1,0,0,rectangle,9.6171875,8.609375,1,0,0,9.6171875,8.609375,1,0,0,0,131,131,66,1,,,,,,,,
,,,,,,,,,,,,,FF,,,,,,,,0.83386,,,,,,,,,,,,,,,,,,,,,,60ff1beb456c2f3d0726e807,61036ee8b4e8cd61018fe129,2021-07-29_22h16.52.653,Simcolourproject_2stim_asymm_v5,2020.2.10,MacIntel,60,61025ae37ef11b136ea224fe,,,,,,,,,2283,48.32421875,77.56640625,1,0,0,response1disk,,7,5.53515625,-10.87890625,1,0,0,rectangle,5.53515625,-10.87890625,1,0,0,5.53515625,-10.87890625,1,0,0,0,132,132,24,1,,,,,,,,
,,,,,,,,,,,,,FF,,,,,,,,0.799385,,,,,,,,,,,,,,,,,,,,,,60ff1beb456c2f3d0726e807,61036ee8b4e8cd61018fe129,2021-07-29_22h16.52.653,Simcolourproject_2stim_asymm_v5,2020.2.10,MacIntel,60,61025ae37ef11b136ea224fe,,,,,,,,,4005,69.88671875,42.390625,1,0,0,response1disk,,6,18.24609375,0.30078125,1,0,0,rectangle,18.24609375,0.30078125,1,0,0,18.24609375,0.30078125,1,0,0,0,133,133,124,1,,,,,,,,
,,,,,,,,,,,,,FF,,,,,,,,0.68312,,,,,,,,,,,,,,,,,,,,,,60ff1beb456c2f3d0726e807,61036ee8b4e8cd61018fe129,2021-07-29_22h16.52.653,Simcolourproject_2stim_asymm_v5,2020.2.10,MacIntel,60,61025ae37ef11b136ea224fe,,,,,,,,,3527,28.23828125,66.96484375,1,0,0,response1disk,,7,11.99609375,-2.40234375,1,0,0,rectangle,11.99609375,-2.40234375,1,0,0,11.99609375,-2.40234375,1,0,0,0,134,134,102,1,,,,,,,,
,,,,,,,,,,,,,FF,,,,,,,,0.734165,,,,,,,,,,,,,,,,,,,,,,60ff1beb456c2f3d0726e807,61036ee8b4e8cd61018fe129,2021-07-29_22h16.52.653,Simcolourproject_2stim_asymm_v5,2020.2.10,MacIntel,60,61025ae37ef11b136ea224fe,,,,,,,,,934,44.1796875,86.296875,1,0,0,response1disk,,7,14.75390625,2.296875,1,0,0,rectangle,14.75390625,2.296875,1,0,0,14.75390625,2.296875,1,0,0,0,135,135,62,1,,,,,,,,
,,,,,,,,,,,,,FF,,,,,,,,0.850145,,,,,,,,,,,,,,,,,,,,,,60ff1beb456c2f3d0726e807,61036ee8b4e8cd61018fe129,2021-07-29_22h16.52.653,Simcolourproject_2stim_asymm_v5,2020.2.10,MacIntel,60,61025ae37ef11b136ea224fe,,,,,,,,,3596,52.81640625,36.38671875,1,0,0,response1disk,,6,5.7578125,-1.53515625,1,0,0,rectangle,5.7578125,-1.53515625,1,0,0,5.7578125,-1.53515625,1,0,0,0,136,136,80,1,,,,,,,,
,,,,,,,,,,,,,FF,,,,,,,,2.01613,,,,,,,,,,,,,,,,,,,,,,60ff1beb456c2f3d0726e807,61036ee8b4e8cd61018fe129,2021-07-29_22h16.52.653,Simcolourproject_2stim_asymm_v5,2020.2.10,MacIntel,60,61025ae37ef11b136ea224fe,,,,,,,,,3469,-87.01171875,-56.95703125,1,0,0,response5disk,,2,9.875,11.7734375,1,0,0,rectangle,9.875,11.7734375,1,0,0,9.875,11.7734375,1,0,0,0,137,137,45,1,,,,,,,,
,,,,,,,,,,,,,FF,,,,,,,,0.7335,,,,,,,,,,,,,,,,,,,,,,60ff1beb456c2f3d0726e807,61036ee8b4e8cd61018fe129,2021-07-29_22h16.52.653,Simcolourproject_2stim_asymm_v5,2020.2.10,MacIntel,60,61025ae37ef11b136ea224fe,,,,,,,,,454,68.69921875,109.046875,1,0,0,response1disk,,7,5.67578125,-9.3515625,1,0,0,rectangle,5.67578125,-9.3515625,1,0,0,5.67578125,-9.3515625,1,0,0,0,138,138,59,1,,,,,,,,
,,,,,,,,,,,,,FF,,,,,,,,0.69935,,,,,,,,,,,,,,,,,,,,,,60ff1beb456c2f3d0726e807,61036ee8b4e8cd61018fe129,2021-07-29_22h16.52.653,Simcolourproject_2stim_asymm_v5,2020.2.10,MacIntel,60,61025ae37ef11b136ea224fe,,,,,,,,,4308,42.1953125,72.39453125,1,0,0,response1disk,,7,1.6953125,4.44921875,1,0,0,rectangle,1.6953125,4.44921875,1,0,0,1.6953125,4.44921875,1,0,0,0,139,139,140,1,,,,,,,,
,,,,,,,,,,,,,FF,,,,,,,,0.66735,,,,,,,,,,,,,,,,,,,,,,60ff1beb456c2f3d0726e807,61036ee8b4e8cd61018fe129,2021-07-29_22h16.52.653,Simcolourproject_2stim_asymm_v5,2020.2.10,MacIntel,60,61025ae37ef11b136ea224fe,,,,,,,,,1656,31.6171875,76.109375,1,0,0,response1disk,,7,16.73046875,11.1796875,1,0,0,rectangle,16.73046875,11.1796875,1,0,0,16.73046875,11.1796875,1,0,0,0,140,140,64,1,,,,,,,,
,,,,,,,,,,,,,FF,,,,,,,,0.650065,,,,,,,,,,,,,,,,,,,,,,60ff1beb456c2f3d0726e807,61036ee8b4e8cd61018fe129,2021-07-29_22h16.52.653,Simcolourproject_2stim_asymm_v5,2020.2.10,MacIntel,60,61025ae37ef11b136ea224fe,,,,,,,,,1096,33.4453125,64.68359375,1,0,0,response1disk,,7,5.20703125,-6.32421875,1,0,0,rectangle,5.20703125,-6.32421875,1,0,0,5.20703125,-6.32421875,1,0,0,0,141,141,38,1,,,,,,,,
,,,,,,,,,,,,,FF,,,,,,,,0.6831,,,,,,,,,,,,,,,,,,,,,,60ff1beb456c2f3d0726e807,61036ee8b4e8cd61018fe129,2021-07-29_22h16.52.653,Simcolourproject_2stim_asymm_v5,2020.2.10,MacIntel,60,61025ae37ef11b136ea224fe,,,,,,,,,2495,36.4765625,72.22265625,1,0,0,response1disk,,7,16.8671875,-2.02734375,1,0,0,rectangle,16.8671875,-2.02734375,1,0,0,16.8671875,-2.02734375,1,0,0,0,142,142,133,1,,,,,,,,
,,,,,,,,,,,,,FF,,,,,,,,0.683565,,,,,,,,,,,,,,,,,,,,,,60ff1beb456c2f3d0726e807,61036ee8b4e8cd61018fe129,2021-07-29_22h16.52.653,Simcolourproject_2stim_asymm_v5,2020.2.10,MacIntel,60,61025ae37ef11b136ea224fe,,,,,,,,,1475,58.57421875,75.2265625,1,0,0,response1disk,,7,26.16015625,5.15625,1,0,0,rectangle,26.16015625,5.15625,1,0,0,26.16015625,5.15625,1,0,0,0,143,143,89,1,,,,,,,,
,,,,,,,,,,,,,FF,,,,,,,,3.917145,,,,,,,,,,,,,,,,,,,,,,60ff1beb456c2f3d0726e807,61036ee8b4e8cd61018fe129,2021-07-29_22h16.52.653,Simcolourproject_2stim_asymm_v5,2020.2.10,MacIntel,60,61025ae37ef11b136ea224fe,,,,,,,,,880,54.48828125,78.63671875,1,0,0,response1disk,,7,25.75390625,12.265625,1,0,0,rectangle,25.75390625,12.265625,1,0,0,25.75390625,12.265625,1,0,0,0,144,144,61,1,,,,,,,,
,,,,,,,,,,,,,FF,,,,,,,,1.116555,,,,,,,,,,,,,,,,,,,,,,60ff1beb456c2f3d0726e807,61036ee8b4e8cd61018fe129,2021-07-29_22h16.52.653,Simcolourproject_2stim_asymm_v5,2020.2.10,MacIntel,60,61025ae37ef11b136ea224fe,,,,,,,,,832,42.5859375,73.88671875,1,0,0,response1disk,,7,19.89453125,0.796875,1,0,0,rectangle,19.89453125,0.796875,1,0,0,19.89453125,0.796875,1,0,0,0,145,145,21,1,,,,,,,,
,,,,,,,,,,,,,FF,,,,,,,,0.782255,,,,,,,,,,,,,,,,,,,,,,60ff1beb456c2f3d0726e807,61036ee8b4e8cd61018fe129,2021-07-29_22h16.52.653,Simcolourproject_2stim_asymm_v5,2020.2.10,MacIntel,60,61025ae37ef11b136ea224fe,,,,,,,,,1714,44.47265625,67.1796875,1,0,0,response1disk,,7,18.55859375,-3.08203125,1,0,0,rectangle,18.55859375,-3.08203125,1,0,0,18.55859375,-3.08203125,1,0,0,0,146,146,26,1,,,,,,,,
,,,,,,,,,,,,,FF,,,,,,,,2.34907,,,,,,,,,,,,,,,,,,,,,,60ff1beb456c2f3d0726e807,61036ee8b4e8cd61018fe129,2021-07-29_22h16.52.653,Simcolourproject_2stim_asymm_v5,2020.2.10,MacIntel,60,61025ae37ef11b136ea224fe,,,,,,,,,814,53.375,74.55078125,1,0,0,response1disk,,7,0.265625,-2.14453125,1,0,0,rectangle,0.265625,-2.14453125,1,0,0,0.265625,-2.14453125,1,0,0,0,147,147,125,1,,,,,,,,
,,,,,,,,,,,,,FF,,,,,,,,1.05,,,,,,,,,,,,,,,,,,,,,,60ff1beb456c2f3d0726e807,61036ee8b4e8cd61018fe129,2021-07-29_22h16.52.653,Simcolourproject_2stim_asymm_v5,2020.2.10,MacIntel,60,61025ae37ef11b136ea224fe,,,,,,,,,2359,38.60546875,-64.98046875,1,0,0,response3disk,,4,9.26953125,-6.1640625,1,0,0,rectangle,9.26953125,-6.1640625,1,0,0,9.26953125,-6.1640625,1,0,0,0,148,148,65,1,,,,,,,,
,,,,,,,,,,,,,FF,,,,,,,,1.14984,,,,,,,,,,,,,,,,,,,,,,60ff1beb456c2f3d0726e807,61036ee8b4e8cd61018fe129,2021-07-29_22h16.52.653,Simcolourproject_2stim_asymm_v5,2020.2.10,MacIntel,60,61025ae37ef11b136ea224fe,,,,,,,,,1665,38.265625,68.5546875,1,0,0,response1disk,,7,9.60546875,-0.859375,1,0,0,rectangle,9.60546875,-0.859375,1,0,0,9.60546875,-0.859375,1,0,0,0,149,149,74,1,,,,,,,,
,,,,,,,,,,,,,FF,,,,,,,,1.134325,,,,,,,,,,,,,,,,,,,,,,60ff1beb456c2f3d0726e807,61036ee8b4e8cd61018fe129,2021-07-29_22h16.52.653,Simcolourproject_2stim_asymm_v5,2020.2.10,MacIntel,60,61025ae37ef11b136ea224fe,,,,,,,,,3283,60.91796875,-30.6484375,1,0,0,response3disk,,5,17.61328125,-1.88671875,1,0,0,rectangle,17.61328125,-1.88671875,1,0,0,17.61328125,-1.88671875,1,0,0,0,150,150,39,1,,,,,,,,
,,,,,,,,,,,,,FF,,,,,,,,1.03333,,,,,,,,,,,,,,,,,,,,,,60ff1beb456c2f3d0726e807,61036ee8b4e8cd61018fe129,2021-07-29_22h16.52.653,Simcolourproject_2stim_asymm_v5,2020.2.10,MacIntel,60,61025ae37ef11b136ea224fe,,,,,,,,,2162,84.328125,-56.6640625,1,0,0,response3disk,,5,0.15234375,5.16015625,1,0,0,rectangle,0.15234375,5.16015625,1,0,0,0.15234375,5.16015625,1,0,0,0,151,151,22,1,,,,,,,,
,,,,,,,,,,,,,FF,,,,,,,,1.183355,,,,,,,,,,,,,,,,,,,,,,60ff1beb456c2f3d0726e807,61036ee8b4e8cd61018fe129,2021-07-29_22h16.52.653,Simcolourproject_2stim_asymm_v5,2020.2.10,MacIntel,60,61025ae37ef11b136ea224fe,,,,,,,,,1881,28.7578125,68.375,1,0,0,response1disk,,7,-5.109375,14.2890625,1,0,0,rectangle,-5.109375,14.2890625,1,0,0,-5.109375,14.2890625,1,0,0,0,152,152,73,1,,,,,,,,
,,,,,,,,,,,,,FF,,,,,,,,1.350085,,,,,,,,,,,,,,,,,,,,,,60ff1beb456c2f3d0726e807,61036ee8b4e8cd61018fe129,2021-07-29_22h16.52.653,Simcolourproject_2stim_asymm_v5,2020.2.10,MacIntel,60,61025ae37ef11b136ea224fe,,,,,,,,,2543,74.54296875,34.30859375,1,0,0,response1disk,,6,14.3515625,-0.46875,1,0,0,rectangle,14.3515625,-0.46875,1,0,0,14.3515625,-0.46875,1,0,0,0,153,153,60,1,,,,,,,,
,,,,,,,,,,,,,FF,,,,,,,,0.98462,,,,,,,,,,,,,,,,,,,,,,60ff1beb456c2f3d0726e807,61036ee8b4e8cd61018fe129,2021-07-29_22h16.52.653,Simcolourproject_2stim_asymm_v5,2020.2.10,MacIntel,60,61025ae37ef11b136ea224fe,,,,,,,,,2365,93.0078125,19.99609375,1,0,0,response1disk,,6,14.53125,0.0546875,1,0,0,rectangle,14.53125,0.0546875,1,0,0,14.53125,0.0546875,1,0,0,0,154,154,120,1,,,,,,,,
,,,,,,,,,,,,,FF,,,,,,,,0.699845,,,,,,,,,,,,,,,,,,,,,,60ff1beb456c2f3d0726e807,61036ee8b4e8cd61018fe129,2021-07-29_22h16.52.653,Simcolourproject_2stim_asymm_v5,2020.2.10,MacIntel,60,61025ae37ef11b136ea224fe,,,,,,,,,736,27.90234375,58.9609375,1,0,0,response1disk,,7,8.18359375,5.23046875,1,0,0,rectangle,8.18359375,5.23046875,1,0,0,8.18359375,5.23046875,1,0,0,0,155,155,75,1,,,,,,,,
,,,,,,,,,,,,,FF,,,,,,,,1.10038,,,,,,,,,,,,,,,,,,,,,,60ff1beb456c2f3d0726e807,61036ee8b4e8cd61018fe129,2021-07-29_22h16.52.653,Simcolourproject_2stim_asymm_v5,2020.2.10,MacIntel,60,61025ae37ef11b136ea224fe,,,,,,,,,2837,75.56640625,33.26171875,1,0,0,response1disk,,6,18.390625,-2.23046875,1,0,0,rectangle,45.5625,95.46484375,1,0,0,26.140625,3.26171875,1,0,0,0,156,156,16,1,,response1disk_3,TRUE,7,7,"[119,157,172,17,25,70,299,214,53,25,31,219,23,253,200,299,30,236,172,3]",1.95128,rectangle
,,,,,,,,,,,,,FF,,,,,,,,2.868085,,,,,,,,,,,,,,,,,,,,,,60ff1beb456c2f3d0726e807,61036ee8b4e8cd61018fe129,2021-07-29_22h16.52.653,Simcolourproject_2stim_asymm_v5,2020.2.10,MacIntel,60,61025ae37ef11b136ea224fe,,,,,,,,,2783,49.1796875,-72.37890625,1,0,0,response3disk,,4,24.6640625,-2.10546875,1,0,0,rectangle,24.6640625,-2.10546875,1,0,0,24.6640625,-2.10546875,1,0,0,0,157,157,149,1,,,,,,,,
,,,,,,,,,,,,,FF,,,,,,,,0.749845,,,,,,,,,,,,,,,,,,,,,,60ff1beb456c2f3d0726e807,61036ee8b4e8cd61018fe129,2021-07-29_22h16.52.653,Simcolourproject_2stim_asymm_v5,2020.2.10,MacIntel,60,61025ae37ef11b136ea224fe,,,,,,,,,3124,27.8125,74.02734375,1,0,0,response1disk,,7,11.6328125,-0.859375,1,0,0,rectangle,11.6328125,-0.859375,1,0,0,11.6328125,-0.859375,1,0,0,0,158,158,85,1,,,,,,,,
,,,,,,,,,,,,,FF,,,,,,,,1.08368,,,,,,,,,,,,,,,,,,,,,,60ff1beb456c2f3d0726e807,61036ee8b4e8cd61018fe129,2021-07-29_22h16.52.653,Simcolourproject_2stim_asymm_v5,2020.2.10,MacIntel,60,61025ae37ef11b136ea224fe,,,,,,,,,3542,28.8359375,60.98828125,1,0,0,response1disk,,7,20.41796875,-7.6796875,1,0,0,rectangle,20.41796875,-7.6796875,1,0,0,20.41796875,-7.6796875,1,0,0,0,159,159,148,1,,,,,,,,
,,,,,,,,,,,,,FF,,,,,,,,1.61607,,,,,,,,,,,,,,,,,,,,,,60ff1beb456c2f3d0726e807,61036ee8b4e8cd61018fe129,2021-07-29_22h16.52.653,Simcolourproject_2stim_asymm_v5,2020.2.10,MacIntel,60,61025ae37ef11b136ea224fe,,,,,,,,,251,71.78125,25.92578125,1,0,0,response1disk,,6,20.64453125,2.1953125,1,0,0,rectangle,20.64453125,2.1953125,1,0,0,20.64453125,2.1953125,1,0,0,1,0,160,59,1,,,,,,,,
,,,,,,,,,,,,,FF,,,,,,,,0.69968,,,,,,,,,,,,,,,,,,,,,,60ff1beb456c2f3d0726e807,61036ee8b4e8cd61018fe129,2021-07-29_22h16.52.653,Simcolourproject_2stim_asymm_v5,2020.2.10,MacIntel,60,61025ae37ef11b136ea224fe,,,,,,,,,2332,29.6328125,87.2109375,1,0,0,response1disk,,7,1.5546875,-1.40625,1,0,0,rectangle,1.5546875,-1.40625,1,0,0,1.5546875,-1.40625,1,0,0,1,1,161,69,1,,,,,,,,
,,,,,,,,,,,,,FF,,,,,,,,0.982745,,,,,,,,,,,,,,,,,,,,,,60ff1beb456c2f3d0726e807,61036ee8b4e8cd61018fe129,2021-07-29_22h16.52.653,Simcolourproject_2stim_asymm_v5,2020.2.10,MacIntel,60,61025ae37ef11b136ea224fe,,,,,,,,,1038,23.32421875,57.671875,1,0,0,response1disk,,7,21.60546875,2.93359375,1,0,0,rectangle,21.60546875,2.93359375,1,0,0,21.60546875,2.93359375,1,0,0,1,2,162,49,1,,,,,,,,
,,,,,,,,,,,,,FF,,,,,,,,0.701375,,,,,,,,,,,,,,,,,,,,,,60ff1beb456c2f3d0726e807,61036ee8b4e8cd61018fe129,2021-07-29_22h16.52.653,Simcolourproject_2stim_asymm_v5,2020.2.10,MacIntel,60,61025ae37ef11b136ea224fe,,,,,,,,,2335,35.59375,66.2421875,1,0,0,response1disk,,7,17.65625,3.00390625,1,0,0,rectangle,17.65625,3.00390625,1,0,0,17.65625,3.00390625,1,0,0,1,3,163,80,1,,,,,,,,
,,,,,,,,,,,,,FF,,,,,,,,0.66525,,,,,,,,,,,,,,,,,,,,,,60ff1beb456c2f3d0726e807,61036ee8b4e8cd61018fe129,2021-07-29_22h16.52.653,Simcolourproject_2stim_asymm_v5,2020.2.10,MacIntel,60,61025ae37ef11b136ea224fe,,,,,,,,,1153,41.65234375,63.62109375,1,0,0,response1disk,,7,17.40234375,-4.17578125,1,0,0,rectangle,17.40234375,-4.17578125,1,0,0,17.40234375,-4.17578125,1,0,0,1,4,164,55,1,,,,,,,,
,,,,,,,,,,,,,FF,,,,,,,,0.7498,,,,,,,,,,,,,,,,,,,,,,60ff1beb456c2f3d0726e807,61036ee8b4e8cd61018fe129,2021-07-29_22h16.52.653,Simcolourproject_2stim_asymm_v5,2020.2.10,MacIntel,60,61025ae37ef11b136ea224fe,,,,,,,,,2926,38.9921875,70.8671875,1,0,0,response1disk,,7,30.140625,5.39453125,1,0,0,rectangle,30.140625,5.39453125,1,0,0,30.140625,5.39453125,1,0,0,1,5,165,149,1,,,,,,,,
,,,,,,,,,,,,,FF,,,,,,,,0.716535,,,,,,,,,,,,,,,,,,,,,,60ff1beb456c2f3d0726e807,61036ee8b4e8cd61018fe129,2021-07-29_22h16.52.653,Simcolourproject_2stim_asymm_v5,2020.2.10,MacIntel,60,61025ae37ef11b136ea224fe,,,,,,,,,1627,45.03125,83.84765625,1,0,0,response1disk,,7,5.91015625,8.17578125,1,0,0,rectangle,5.91015625,8.17578125,1,0,0,5.91015625,8.17578125,1,0,0,1,6,166,15,1,,,,,,,,
,,,,,,,,,,,,,FF,,,,,,,,0.967195,,,,,,,,,,,,,,,,,,,,,,60ff1beb456c2f3d0726e807,61036ee8b4e8cd61018fe129,2021-07-29_22h16.52.653,Simcolourproject_2stim_asymm_v5,2020.2.10,MacIntel,60,61025ae37ef11b136ea224fe,,,,,,,,,352,76.88671875,33.88671875,1,0,0,response1disk,,6,26.70703125,-3.76953125,1,0,0,rectangle,26.70703125,-3.76953125,1,0,0,26.70703125,-3.76953125,1,0,0,1,7,167,132,1,,,,,,,,
,,,,,,,,,,,,,FF,,,,,,,,0.78292,,,,,,,,,,,,,,,,,,,,,,60ff1beb456c2f3d0726e807,61036ee8b4e8cd61018fe129,2021-07-29_22h16.52.653,Simcolourproject_2stim_asymm_v5,2020.2.10,MacIntel,60,61025ae37ef11b136ea224fe,,,,,,,,,4133,42.90234375,66.51953125,1,0,0,response1disk,,7,13.08984375,-7.98828125,1,0,0,rectangle,13.08984375,-7.98828125,1,0,0,13.08984375,-7.98828125,1,0,0,1,8,168,26,1,,,,,,,,
,,,,,,,,,,,,,FF,,,,,,,,1.265595,,,,,,,,,,,,,,,,,,,,,,60ff1beb456c2f3d0726e807,61036ee8b4e8cd61018fe129,2021-07-29_22h16.52.653,Simcolourproject_2stim_asymm_v5,2020.2.10,MacIntel,60,61025ae37ef11b136ea224fe,,,,,,,,,1295,107.5429688,-43.5078125,1,0,0,response3disk,,5,20.4609375,-3.859375,1,0,0,rectangle,20.4609375,-3.859375,1,0,0,20.4609375,-3.859375,1,0,0,1,9,169,7,1,,,,,,,,
,,,,,,,,,,,,,FF,,,,,,,,0.83406,,,,,,,,,,,,,,,,,,,,,,60ff1beb456c2f3d0726e807,61036ee8b4e8cd61018fe129,2021-07-29_22h16.52.653,Simcolourproject_2stim_asymm_v5,2020.2.10,MacIntel,60,61025ae37ef11b136ea224fe,,,,,,,,,1571,46.57421875,80.84765625,1,0,0,response1disk,,7,11.6640625,4.59375,1,0,0,rectangle,11.6640625,4.59375,1,0,0,11.6640625,4.59375,1,0,0,1,10,170,131,1,,,,,,,,
,,,,,,,,,,,,,FF,,,,,,,,0.91736,,,,,,,,,,,,,,,,,,,,,,60ff1beb456c2f3d0726e807,61036ee8b4e8cd61018fe129,2021-07-29_22h16.52.653,Simcolourproject_2stim_asymm_v5,2020.2.10,MacIntel,60,61025ae37ef11b136ea224fe,,,,,,,,,3851,84.62109375,32.5390625,1,0,0,response1disk,,6,5.234375,-4.5703125,1,0,0,rectangle,39.3515625,-91.50390625,1,0,0,6.078125,-7.26171875,1,0,0,1,11,171,146,1,,response3disk_3,TRUE,4,4,"[119,157,172,17,25,70,299,214,53,25,31,219,23,253,200,299,30,236,172,3]",1.599455,rectangle
,,,,,,,,,,,,,FF,,,,,,,,1.366765,,,,,,,,,,,,,,,,,,,,,,60ff1beb456c2f3d0726e807,61036ee8b4e8cd61018fe129,2021-07-29_22h16.52.653,Simcolourproject_2stim_asymm_v5,2020.2.10,MacIntel,60,61025ae37ef11b136ea224fe,,,,,,,,,1370,-70.5,41.44140625,1,0,0,response7disk,,1,4.38671875,-7.97265625,1,0,0,rectangle,4.38671875,-7.97265625,1,0,0,4.38671875,-7.97265625,1,0,0,1,12,172,57,1,,,,,,,,
,,,,,,,,,,,,,FF,,,,,,,,0.916655,,,,,,,,,,,,,,,,,,,,,,60ff1beb456c2f3d0726e807,61036ee8b4e8cd61018fe129,2021-07-29_22h16.52.653,Simcolourproject_2stim_asymm_v5,2020.2.10,MacIntel,60,61025ae37ef11b136ea224fe,,,,,,,,,4023,26.5390625,58.5703125,1,0,0,response1disk,,7,28.7421875,0.91796875,1,0,0,rectangle,28.7421875,0.91796875,1,0,0,28.7421875,0.91796875,1,0,0,1,13,173,34,1,,,,,,,,
,,,,,,,,,,,,,FF,,,,,,,,1.949275,,,,,,,,,,,,,,,,,,,,,,60ff1beb456c2f3d0726e807,61036ee8b4e8cd61018fe129,2021-07-29_22h16.52.653,Simcolourproject_2stim_asymm_v5,2020.2.10,MacIntel,60,61025ae37ef11b136ea224fe,,,,,,,,,3004,79.48046875,38.26171875,1,0,0,response1disk,,6,8.6171875,0.6328125,1,0,0,rectangle,8.6171875,0.6328125,1,0,0,8.6171875,0.6328125,1,0,0,1,14,174,50,1,,,,,,,,
,,,,,,,,,,,,,FF,,,,,,,,0.91666,,,,,,,,,,,,,,,,,,,,,,60ff1beb456c2f3d0726e807,61036ee8b4e8cd61018fe129,2021-07-29_22h16.52.653,Simcolourproject_2stim_asymm_v5,2020.2.10,MacIntel,60,61025ae37ef11b136ea224fe,,,,,,,,,3969,47.58203125,85.50390625,1,0,0,response1disk,,7,19.68359375,5.24609375,1,0,0,rectangle,19.68359375,5.24609375,1,0,0,19.68359375,5.24609375,1,0,0,1,15,175,124,1,,,,,,,,
,,,,,,,,,,,,,FF,,,,,,,,0.68418,,,,,,,,,,,,,,,,,,,,,,60ff1beb456c2f3d0726e807,61036ee8b4e8cd61018fe129,2021-07-29_22h16.52.653,Simcolourproject_2stim_asymm_v5,2020.2.10,MacIntel,60,61025ae37ef11b136ea224fe,,,,,,,,,1188,40.15625,80.21484375,1,0,0,response1disk,,7,16.92578125,1.96484375,1,0,0,rectangle,16.92578125,1.96484375,1,0,0,16.92578125,1.96484375,1,0,0,1,16,176,75,1,,,,,,,,
,,,,,,,,,,,,,FF,,,,,,,,0.73421,,,,,,,,,,,,,,,,,,,,,,60ff1beb456c2f3d0726e807,61036ee8b4e8cd61018fe129,2021-07-29_22h16.52.653,Simcolourproject_2stim_asymm_v5,2020.2.10,MacIntel,60,61025ae37ef11b136ea224fe,,,,,,,,,848,33.63671875,68.96875,1,0,0,response1disk,,7,15.49609375,-10.9140625,1,0,0,rectangle,15.49609375,-10.9140625,1,0,0,15.49609375,-10.9140625,1,0,0,1,17,177,121,1,,,,,,,,
,,,,,,,,,,,,,FF,,,,,,,,0.649905,,,,,,,,,,,,,,,,,,,,,,60ff1beb456c2f3d0726e807,61036ee8b4e8cd61018fe129,2021-07-29_22h16.52.653,Simcolourproject_2stim_asymm_v5,2020.2.10,MacIntel,60,61025ae37ef11b136ea224fe,,,,,,,,,3289,46.62109375,69.7421875,1,0,0,response1disk,,7,19.0703125,5.18359375,1,0,0,rectangle,19.0703125,5.18359375,1,0,0,19.0703125,5.18359375,1,0,0,1,18,178,30,1,,,,,,,,
,,,,,,,,,,,,,FF,,,,,,,,0.63389,,,,,,,,,,,,,,,,,,,,,,60ff1beb456c2f3d0726e807,61036ee8b4e8cd61018fe129,2021-07-29_22h16.52.653,Simcolourproject_2stim_asymm_v5,2020.2.10,MacIntel,60,61025ae37ef11b136ea224fe,,,,,,,,,1694,38.7265625,69.15625,1,0,0,response1disk,,7,-1.109375,3.76171875,1,0,0,rectangle,-1.109375,3.76171875,1,0,0,-1.109375,3.76171875,1,0,0,1,19,179,159,1,,,,,,,,
,,,,,,,,,,,,,FF,,,,,,,,0.700045,,,,,,,,,,,,,,,,,,,,,,60ff1beb456c2f3d0726e807,61036ee8b4e8cd61018fe129,2021-07-29_22h16.52.653,Simcolourproject_2stim_asymm_v5,2020.2.10,MacIntel,60,61025ae37ef11b136ea224fe,,,,,,,,,4004,31.09375,69.93359375,1,0,0,response1disk,,7,3.41015625,3.8046875,1,0,0,rectangle,3.41015625,3.8046875,1,0,0,3.41015625,3.8046875,1,0,0,1,20,180,139,1,,,,,,,,
,,,,,,,,,,,,,FF,,,,,,,,1.79979,,,,,,,,,,,,,,,,,,,,,,60ff1beb456c2f3d0726e807,61036ee8b4e8cd61018fe129,2021-07-29_22h16.52.653,Simcolourproject_2stim_asymm_v5,2020.2.10,MacIntel,60,61025ae37ef11b136ea224fe,,,,,,,,,1434,42.30859375,76.71875,1,0,0,response1disk,,7,5.47265625,7.28125,1,0,0,rectangle,5.47265625,7.28125,1,0,0,5.47265625,7.28125,1,0,0,1,21,181,21,1,,,,,,,,
,,,,,,,,,,,,,FF,,,,,,,,0.68318,,,,,,,,,,,,,,,,,,,,,,60ff1beb456c2f3d0726e807,61036ee8b4e8cd61018fe129,2021-07-29_22h16.52.653,Simcolourproject_2stim_asymm_v5,2020.2.10,MacIntel,60,61025ae37ef11b136ea224fe,,,,,,,,,2147,22.72265625,62.83984375,1,0,0,response1disk,,7,-3.1015625,2.39453125,1,0,0,rectangle,-3.1015625,2.39453125,1,0,0,-3.1015625,2.39453125,1,0,0,1,22,182,83,1,,,,,,,,
,,,,,,,,,,,,,FF,,,,,,,,0.73223,,,,,,,,,,,,,,,,,,,,,,60ff1beb456c2f3d0726e807,61036ee8b4e8cd61018fe129,2021-07-29_22h16.52.653,Simcolourproject_2stim_asymm_v5,2020.2.10,MacIntel,60,61025ae37ef11b136ea224fe,,,,,,,,,120,33.41015625,71.265625,1,0,0,response1disk,,7,3.40234375,10.65625,1,0,0,rectangle,3.40234375,10.65625,1,0,0,3.40234375,10.65625,1,0,0,1,23,183,56,1,,,,,,,,
,,,,,,,,,,,,,FF,,,,,,,,1.334075,,,,,,,,,,,,,,,,,,,,,,60ff1beb456c2f3d0726e807,61036ee8b4e8cd61018fe129,2021-07-29_22h16.52.653,Simcolourproject_2stim_asymm_v5,2020.2.10,MacIntel,60,61025ae37ef11b136ea224fe,,,,,,,,,3427,-38.625,82.1875,1,0,0,response7disk,,0,10.8125,-14.56640625,1,0,0,rectangle,10.8125,-14.56640625,1,0,0,10.8125,-14.56640625,1,0,0,1,24,184,39,1,,,,,,,,
,,,,,,,,,,,,,FF,,,,,,,,3.150895,,,,,,,,,,,,,,,,,,,,,,60ff1beb456c2f3d0726e807,61036ee8b4e8cd61018fe129,2021-07-29_22h16.52.653,Simcolourproject_2stim_asymm_v5,2020.2.10,MacIntel,60,61025ae37ef11b136ea224fe,,,,,,,,,3350,37.58984375,-84.6171875,1,0,0,response3disk,,4,10.93359375,11.40625,1,0,0,rectangle,10.93359375,11.40625,1,0,0,10.93359375,11.40625,1,0,0,1,25,185,32,1,,,,,,,,
,,,,,,,,,,,,,FF,,,,,,,,1.800215,,,,,,,,,,,,,,,,,,,,,,60ff1beb456c2f3d0726e807,61036ee8b4e8cd61018fe129,2021-07-29_22h16.52.653,Simcolourproject_2stim_asymm_v5,2020.2.10,MacIntel,60,61025ae37ef11b136ea224fe,,,,,,,,,1462,28.578125,-83.578125,1,0,0,response3disk,,4,7.5859375,5.78125,1,0,0,rectangle,7.5859375,5.78125,1,0,0,7.5859375,5.78125,1,0,0,1,26,186,104,1,,,,,,,,
,,,,,,,,,,,,,FF,,,,,,,,0.701245,,,,,,,,,,,,,,,,,,,,,,60ff1beb456c2f3d0726e807,61036ee8b4e8cd61018fe129,2021-07-29_22h16.52.653,Simcolourproject_2stim_asymm_v5,2020.2.10,MacIntel,60,61025ae37ef11b136ea224fe,,,,,,,,,2517,31.87890625,82.08203125,1,0,0,response1disk,,7,-1.6171875,8.74609375,1,0,0,rectangle,-1.6171875,8.74609375,1,0,0,-1.6171875,8.74609375,1,0,0,1,27,187,54,1,,,,,,,,
,,,,,,,,,,,,,FF,,,,,,,,0.649815,,,,,,,,,,,,,,,,,,,,,,60ff1beb456c2f3d0726e807,61036ee8b4e8cd61018fe129,2021-07-29_22h16.52.653,Simcolourproject_2stim_asymm_v5,2020.2.10,MacIntel,60,61025ae37ef11b136ea224fe,,,,,,,,,1110,26.265625,59.66015625,1,0,0,response1disk,,7,11.234375,7.0859375,1,0,0,rectangle,11.234375,7.0859375,1,0,0,11.234375,7.0859375,1,0,0,1,28,188,94,1,,,,,,,,
,,,,,,,,,,,,,FF,,,,,,,,0.70087,,,,,,,,,,,,,,,,,,,,,,60ff1beb456c2f3d0726e807,61036ee8b4e8cd61018fe129,2021-07-29_22h16.52.653,Simcolourproject_2stim_asymm_v5,2020.2.10,MacIntel,60,61025ae37ef11b136ea224fe,,,,,,,,,2746,28.30078125,63.6015625,1,0,0,response1disk,,7,6.47265625,-1.11328125,1,0,0,rectangle,6.47265625,-1.11328125,1,0,0,6.47265625,-1.11328125,1,0,0,1,29,189,43,1,,,,,,,,
,,,,,,,,,,,,,FF,,,,,,,,0.599825,,,,,,,,,,,,,,,,,,,,,,60ff1beb456c2f3d0726e807,61036ee8b4e8cd61018fe129,2021-07-29_22h16.52.653,Simcolourproject_2stim_asymm_v5,2020.2.10,MacIntel,60,61025ae37ef11b136ea224fe,,,,,,,,,536,29.2265625,65.0078125,1,0,0,response1disk,,7,-6.046875,-5.05859375,1,0,0,rectangle,-6.046875,-5.05859375,1,0,0,-6.046875,-5.05859375,1,0,0,1,30,190,86,1,,,,,,,,
,,,,,,,,,,,,,FF,,,,,,,,4.41716,,,,,,,,,,,,,,,,,,,,,,60ff1beb456c2f3d0726e807,61036ee8b4e8cd61018fe129,2021-07-29_22h16.52.653,Simcolourproject_2stim_asymm_v5,2020.2.10,MacIntel,60,61025ae37ef11b136ea224fe,,,,,,,,,2833,58.9921875,-28.03515625,1,0,0,response3disk,,5,9.37109375,4.49609375,1,0,0,rectangle,9.37109375,4.49609375,1,0,0,9.37109375,4.49609375,1,0,0,1,31,191,126,1,,,,,,,,
,,,,,,,,,,,,,FF,,,,,,,,2.215925,,,,,,,,,,,,,,,,,,,,,,60ff1beb456c2f3d0726e807,61036ee8b4e8cd61018fe129,2021-07-29_22h16.52.653,Simcolourproject_2stim_asymm_v5,2020.2.10,MacIntel,60,61025ae37ef11b136ea224fe,,,,,,,,,3815,67.16796875,-48.22265625,1,0,0,response3disk,,5,7.62890625,4,1,0,0,rectangle,7.62890625,4,1,0,0,7.62890625,4,1,0,0,1,32,192,129,1,,,,,,,,
,,,,,,,,,,,,,FF,,,,,,,,2.017005,,,,,,,,,,,,,,,,,,,,,,60ff1beb456c2f3d0726e807,61036ee8b4e8cd61018fe129,2021-07-29_22h16.52.653,Simcolourproject_2stim_asymm_v5,2020.2.10,MacIntel,60,61025ae37ef11b136ea224fe,,,,,,,,,3813,42.71484375,74.23046875,1,0,0,response1disk,,7,4.98046875,-2.45703125,1,0,0,rectangle,4.98046875,-2.45703125,1,0,0,4.98046875,-2.45703125,1,0,0,1,33,193,40,1,,,,,,,,
,,,,,,,,,,,,,FF,,,,,,,,1.533625,,,,,,,,,,,,,,,,,,,,,,60ff1beb456c2f3d0726e807,61036ee8b4e8cd61018fe129,2021-07-29_22h16.52.653,Simcolourproject_2stim_asymm_v5,2020.2.10,MacIntel,60,61025ae37ef11b136ea224fe,,,,,,,,,1504,57.703125,81.99609375,1,0,0,response1disk,,7,13.94921875,-0.828125,1,0,0,rectangle,13.94921875,-0.828125,1,0,0,13.94921875,-0.828125,1,0,0,1,34,194,145,1,,,,,,,,
,,,,,,,,,,,,,FF,,,,,,,,2.96621,,,,,,,,,,,,,,,,,,,,,,60ff1beb456c2f3d0726e807,61036ee8b4e8cd61018fe129,2021-07-29_22h16.52.653,Simcolourproject_2stim_asymm_v5,2020.2.10,MacIntel,60,61025ae37ef11b136ea224fe,,,,,,,,,651,80.43359375,28.61328125,1,0,0,response1disk,,6,22.5625,-1.48828125,1,0,0,rectangle,22.5625,-1.48828125,1,0,0,22.5625,-1.48828125,1,0,0,1,35,195,51,1,,,,,,,,
,,,,,,,,,,,,,FF,,,,,,,,1.118005,,,,,,,,,,,,,,,,,,,,,,60ff1beb456c2f3d0726e807,61036ee8b4e8cd61018fe129,2021-07-29_22h16.52.653,Simcolourproject_2stim_asymm_v5,2020.2.10,MacIntel,60,61025ae37ef11b136ea224fe,,,,,,,,,2942,81.66015625,27.40625,1,0,0,response1disk,,6,9.57421875,0.43359375,1,0,0,rectangle,9.57421875,0.43359375,1,0,0,9.57421875,0.43359375,1,0,0,1,36,196,67,1,,,,,,,,
,,,,,,,,,,,,,FF,,,,,,,,0.916555,,,,,,,,,,,,,,,,,,,,,,60ff1beb456c2f3d0726e807,61036ee8b4e8cd61018fe129,2021-07-29_22h16.52.653,Simcolourproject_2stim_asymm_v5,2020.2.10,MacIntel,60,61025ae37ef11b136ea224fe,,,,,,,,,2252,61.671875,109.9414063,1,0,0,response1disk,,7,-5.58984375,2.33984375,1,0,0,rectangle,-5.58984375,2.33984375,1,0,0,-5.58984375,2.33984375,1,0,0,1,37,197,118,1,,,,,,,,
,,,,,,,,,,,,,FF,,,,,,,,1.282115,,,,,,,,,,,,,,,,,,,,,,60ff1beb456c2f3d0726e807,61036ee8b4e8cd61018fe129,2021-07-29_22h16.52.653,Simcolourproject_2stim_asymm_v5,2020.2.10,MacIntel,60,61025ae37ef11b136ea224fe,,,,,,,,,4119,44.1015625,-83.1875,1,0,0,response3disk,,4,23.16796875,5.03125,1,0,0,rectangle,23.16796875,5.03125,1,0,0,23.16796875,5.03125,1,0,0,1,38,198,33,1,,,,,,,,
,,,,,,,,,,,,,FF,,,,,,,,1.001115,,,,,,,,,,,,,,,,,,,,,,60ff1beb456c2f3d0726e807,61036ee8b4e8cd61018fe129,2021-07-29_22h16.52.653,Simcolourproject_2stim_asymm_v5,2020.2.10,MacIntel,60,61025ae37ef11b136ea224fe,,,,,,,,,3914,84.96484375,-34.02734375,1,0,0,response3disk,,5,13.0625,13.87890625,1,0,0,rectangle,33.328125,-103.4960938,1,0,0,13.66015625,-2.97265625,1,0,0,1,39,199,156,1,,response3disk_3,TRUE,4,4,"[119,157,172,17,25,70,299,214,53,25,31,219,23,253,200,299,30,236,172,3]",1.834515,rectangle
,,,,,,,,,,,,,FF,,,,,,,,1.08211,,,,,,,,,,,,,,,,,,,,,,60ff1beb456c2f3d0726e807,61036ee8b4e8cd61018fe129,2021-07-29_22h16.52.653,Simcolourproject_2stim_asymm_v5,2020.2.10,MacIntel,60,61025ae37ef11b136ea224fe,,,,,,,,,233,41.0546875,65.7734375,1,0,0,response1disk,,7,5.0703125,1.51171875,1,0,0,rectangle,5.0703125,1.51171875,1,0,0,5.0703125,1.51171875,1,0,0,1,40,200,125,1,,,,,,,,
,,,,,,,,,,,,,FF,,,,,,,,0.817405,,,,,,,,,,,,,,,,,,,,,,60ff1beb456c2f3d0726e807,61036ee8b4e8cd61018fe129,2021-07-29_22h16.52.653,Simcolourproject_2stim_asymm_v5,2020.2.10,MacIntel,60,61025ae37ef11b136ea224fe,,,,,,,,,2328,33.0625,57.078125,1,0,0,response1disk,,7,21.046875,-3.56640625,1,0,0,rectangle,21.046875,-3.56640625,1,0,0,21.046875,-3.56640625,1,0,0,1,41,201,90,1,,,,,,,,
,,,,,,,,,,,,,FF,,,,,,,,1.08387,,,,,,,,,,,,,,,,,,,,,,60ff1beb456c2f3d0726e807,61036ee8b4e8cd61018fe129,2021-07-29_22h16.52.653,Simcolourproject_2stim_asymm_v5,2020.2.10,MacIntel,60,61025ae37ef11b136ea224fe,,,,,,,,,2661,88.85546875,-30.2421875,1,0,0,response3disk,,5,13.0703125,-0.375,1,0,0,rectangle,13.0703125,-0.375,1,0,0,13.0703125,-0.375,1,0,0,1,42,202,154,1,,,,,,,,
,,,,,,,,,,,,,FF,,,,,,,,1.15008,,,,,,,,,,,,,,,,,,,,,,60ff1beb456c2f3d0726e807,61036ee8b4e8cd61018fe129,2021-07-29_22h16.52.653,Simcolourproject_2stim_asymm_v5,2020.2.10,MacIntel,60,61025ae37ef11b136ea224fe,,,,,,,,,3187,76.18359375,-46.3515625,1,0,0,response3disk,,5,4.26171875,-4.390625,1,0,0,rectangle,4.26171875,-4.390625,1,0,0,4.26171875,-4.390625,1,0,0,1,43,203,44,1,,,,,,,,
,,,,,,,,,,,,,FF,,,,,,,,0.7674,,,,,,,,,,,,,,,,,,,,,,60ff1beb456c2f3d0726e807,61036ee8b4e8cd61018fe129,2021-07-29_22h16.52.653,Simcolourproject_2stim_asymm_v5,2020.2.10,MacIntel,60,61025ae37ef11b136ea224fe,,,,,,,,,3767,30.7421875,68.26953125,1,0,0,response1disk,,7,2.375,12.9375,1,0,0,rectangle,2.375,12.9375,1,0,0,2.375,12.9375,1,0,0,1,44,204,73,1,,,,,,,,
,,,,,,,,,,,,,FF,,,,,,,,0.68334,,,,,,,,,,,,,,,,,,,,,,60ff1beb456c2f3d0726e807,61036ee8b4e8cd61018fe129,2021-07-29_22h16.52.653,Simcolourproject_2stim_asymm_v5,2020.2.10,MacIntel,60,61025ae37ef11b136ea224fe,,,,,,,,,60,34.63671875,55.3828125,1,0,0,response1disk,,7,3.54296875,-7.32421875,1,0,0,rectangle,3.54296875,-7.32421875,1,0,0,3.54296875,-7.32421875,1,0,0,1,45,205,17,1,,,,,,,,
,,,,,,,,,,,,,FF,,,,,,,,2.634335,,,,,,,,,,,,,,,,,,,,,,60ff1beb456c2f3d0726e807,61036ee8b4e8cd61018fe129,2021-07-29_22h16.52.653,Simcolourproject_2stim_asymm_v5,2020.2.10,MacIntel,60,61025ae37ef11b136ea224fe,,,,,,,,,1532,94.15625,27.79296875,1,0,0,response1disk,,6,15.6484375,7,1,0,0,rectangle,15.6484375,7,1,0,0,15.6484375,7,1,0,0,1,46,206,152,1,,,,,,,,
,,,,,,,,,,,,,FF,,,,,,,,0.85161,,,,,,,,,,,,,,,,,,,,,,60ff1beb456c2f3d0726e807,61036ee8b4e8cd61018fe129,2021-07-29_22h16.52.653,Simcolourproject_2stim_asymm_v5,2020.2.10,MacIntel,60,61025ae37ef11b136ea224fe,,,,,,,,,252,40.9609375,74.5,1,0,0,response1disk,,7,10.53515625,-5.33984375,1,0,0,rectangle,10.53515625,-5.33984375,1,0,0,10.53515625,-5.33984375,1,0,0,1,47,207,136,1,,,,,,,,
,,,,,,,,,,,,,FF,,,,,,,,0.76709,,,,,,,,,,,,,,,,,,,,,,60ff1beb456c2f3d0726e807,61036ee8b4e8cd61018fe129,2021-07-29_22h16.52.653,Simcolourproject_2stim_asymm_v5,2020.2.10,MacIntel,60,61025ae37ef11b136ea224fe,,,,,,,,,2469,41.51953125,67.8515625,1,0,0,response1disk,,7,7.84375,3.03125,1,0,0,rectangle,7.84375,3.03125,1,0,0,7.84375,3.03125,1,0,0,1,48,208,47,1,,,,,,,,
,,,,,,,,,,,,,FF,,,,,,,,0.91667,,,,,,,,,,,,,,,,,,,,,,60ff1beb456c2f3d0726e807,61036ee8b4e8cd61018fe129,2021-07-29_22h16.52.653,Simcolourproject_2stim_asymm_v5,2020.2.10,MacIntel,60,61025ae37ef11b136ea224fe,,,,,,,,,1241,49.95703125,83.91796875,1,0,0,response1disk,,7,13.2578125,13.36328125,1,0,0,rectangle,13.2578125,13.36328125,1,0,0,13.2578125,13.36328125,1,0,0,1,49,209,115,1,,,,,,,,
,,,,,,,,,,,,,FF,,,,,,,,0.73289,,,,,,,,,,,,,,,,,,,,,,60ff1beb456c2f3d0726e807,61036ee8b4e8cd61018fe129,2021-07-29_22h16.52.653,Simcolourproject_2stim_asymm_v5,2020.2.10,MacIntel,60,61025ae37ef11b136ea224fe,,,,,,,,,3562,45.35546875,77.5390625,1,0,0,response1disk,,7,18.796875,-0.68359375,1,0,0,rectangle,18.796875,-0.68359375,1,0,0,18.796875,-0.68359375,1,0,0,1,50,210,31,1,,,,,,,,
,,,,,,,,,,,,,FF,,,,,,,,0.850685,,,,,,,,,,,,,,,,,,,,,,60ff1beb456c2f3d0726e807,61036ee8b4e8cd61018fe129,2021-07-29_22h16.52.653,Simcolourproject_2stim_asymm_v5,2020.2.10,MacIntel,60,61025ae37ef11b136ea224fe,,,,,,,,,2142,37.16015625,75.90234375,1,0,0,response1disk,,7,6.140625,-0.48046875,1,0,0,rectangle,6.140625,-0.48046875,1,0,0,6.140625,-0.48046875,1,0,0,1,51,211,4,1,,,,,,,,
,,,,,,,,,,,,,FF,,,,,,,,0.949535,,,,,,,,,,,,,,,,,,,,,,60ff1beb456c2f3d0726e807,61036ee8b4e8cd61018fe129,2021-07-29_22h16.52.653,Simcolourproject_2stim_asymm_v5,2020.2.10,MacIntel,60,61025ae37ef11b136ea224fe,,,,,,,,,2846,87.06640625,29.9921875,1,0,0,response1disk,,6,18.21484375,-3.35546875,1,0,0,rectangle,18.21484375,-3.35546875,1,0,0,18.21484375,-3.35546875,1,0,0,1,52,212,93,1,,,,,,,,
,,,,,,,,,,,,,FF,,,,,,,,0.934425,,,,,,,,,,,,,,,,,,,,,,60ff1beb456c2f3d0726e807,61036ee8b4e8cd61018fe129,2021-07-29_22h16.52.653,Simcolourproject_2stim_asymm_v5,2020.2.10,MacIntel,60,61025ae37ef11b136ea224fe,,,,,,,,,387,67.12890625,34.8671875,1,0,0,response1disk,,6,7.01953125,0.0546875,1,0,0,rectangle,-35.3046875,-77.6328125,1,0,0,3.140625,5.5546875,1,0,0,1,53,213,79,1,,response5disk_3,TRUE,3,3,"[119,157,172,17,25,70,299,214,53,25,31,219,23,253,200,299,30,236,172,3]",1.734075,rectangle
,,,,,,,,,,,,,FF,,,,,,,,0.93205,,,,,,,,,,,,,,,,,,,,,,60ff1beb456c2f3d0726e807,61036ee8b4e8cd61018fe129,2021-07-29_22h16.52.653,Simcolourproject_2stim_asymm_v5,2020.2.10,MacIntel,60,61025ae37ef11b136ea224fe,,,,,,,,,1715,50.234375,91.796875,1,0,0,response1disk,,7,7.8515625,2.6328125,1,0,0,rectangle,7.8515625,2.6328125,1,0,0,7.8515625,2.6328125,1,0,0,1,54,214,48,1,,,,,,,,
,,,,,,,,,,,,,FF,,,,,,,,1.0178,,,,,,,,,,,,,,,,,,,,,,60ff1beb456c2f3d0726e807,61036ee8b4e8cd61018fe129,2021-07-29_22h16.52.653,Simcolourproject_2stim_asymm_v5,2020.2.10,MacIntel,60,61025ae37ef11b136ea224fe,,,,,,,,,3502,61.53515625,33.27734375,1,0,0,response1disk,,6,16.74609375,1.5390625,1,0,0,rectangle,16.74609375,1.5390625,1,0,0,16.74609375,1.5390625,1,0,0,1,55,215,91,1,,,,,,,,
,,,,,,,,,,,,,FF,,,,,,,,0.867715,,,,,,,,,,,,,,,,,,,,,,60ff1beb456c2f3d0726e807,61036ee8b4e8cd61018fe129,2021-07-29_22h16.52.653,Simcolourproject_2stim_asymm_v5,2020.2.10,MacIntel,60,61025ae37ef11b136ea224fe,,,,,,,,,1902,73.921875,35.1796875,1,0,0,response1disk,,6,18.4375,3.41015625,1,0,0,rectangle,18.4375,3.41015625,1,0,0,18.4375,3.41015625,1,0,0,1,56,216,148,1,,,,,,,,
,,,,,,,,,,,,,FF,,,,,,,,0.71772,,,,,,,,,,,,,,,,,,,,,,60ff1beb456c2f3d0726e807,61036ee8b4e8cd61018fe129,2021-07-29_22h16.52.653,Simcolourproject_2stim_asymm_v5,2020.2.10,MacIntel,60,61025ae37ef11b136ea224fe,,,,,,,,,4187,40.35546875,52.01953125,1,0,0,response1disk,,7,9.65234375,-12.19140625,1,0,0,rectangle,9.65234375,-12.19140625,1,0,0,9.65234375,-12.19140625,1,0,0,1,57,217,155,1,,,,,,,,
,,,,,,,,,,,,,FF,,,,,,,,1.08287,,,,,,,,,,,,,,,,,,,,,,60ff1beb456c2f3d0726e807,61036ee8b4e8cd61018fe129,2021-07-29_22h16.52.653,Simcolourproject_2stim_asymm_v5,2020.2.10,MacIntel,60,61025ae37ef11b136ea224fe,,,,,,,,,1742,37.34765625,72.15234375,1,0,0,response1disk,,7,7.91015625,0.74609375,1,0,0,rectangle,101.0976563,39.3203125,1,0,0,7.9375,-2.44140625,1,0,0,1,58,218,102,1,,response1disk_3,TRUE,6,6,"[119,157,172,17,25,70,299,214,53,25,31,219,23,253,200,299,30,236,172,3]",1.815545,rectangle
,,,,,,,,,,,,,FF,,,,,,,,2.250735,,,,,,,,,,,,,,,,,,,,,,60ff1beb456c2f3d0726e807,61036ee8b4e8cd61018fe129,2021-07-29_22h16.52.653,Simcolourproject_2stim_asymm_v5,2020.2.10,MacIntel,60,61025ae37ef11b136ea224fe,,,,,,,,,1148,55.85546875,91.890625,1,0,0,response1disk,,7,4.3828125,2.53125,1,0,0,rectangle,4.3828125,2.53125,1,0,0,4.3828125,2.53125,1,0,0,1,59,219,98,1,,,,,,,,
,,,,,,,,,,,,,FF,,,,,,,,1.266955,,,,,,,,,,,,,,,,,,,,,,60ff1beb456c2f3d0726e807,61036ee8b4e8cd61018fe129,2021-07-29_22h16.52.653,Simcolourproject_2stim_asymm_v5,2020.2.10,MacIntel,60,61025ae37ef11b136ea224fe,,,,,,,,,4186,76.515625,44.50390625,1,0,0,response1disk,,6,20.62890625,0.25390625,1,0,0,rectangle,20.62890625,0.25390625,1,0,0,20.62890625,0.25390625,1,0,0,1,60,220,137,1,,,,,,,,
,,,,,,,,,,,,,FF,,,,,,,,0.951005,,,,,,,,,,,,,,,,,,,,,,60ff1beb456c2f3d0726e807,61036ee8b4e8cd61018fe129,2021-07-29_22h16.52.653,Simcolourproject_2stim_asymm_v5,2020.2.10,MacIntel,60,61025ae37ef11b136ea224fe,,,,,,,,,836,17.4609375,67.06640625,1,0,0,response1disk,,7,13.83203125,3.890625,1,0,0,rectangle,13.83203125,3.890625,1,0,0,13.83203125,3.890625,1,0,0,1,61,221,107,1,,,,,,,,
,,,,,,,,,,,,,FF,,,,,,,,0.63454,,,,,,,,,,,,,,,,,,,,,,60ff1beb456c2f3d0726e807,61036ee8b4e8cd61018fe129,2021-07-29_22h16.52.653,Simcolourproject_2stim_asymm_v5,2020.2.10,MacIntel,60,61025ae37ef11b136ea224fe,,,,,,,,,22,47.4453125,79.37890625,1,0,0,response1disk,,7,2.9921875,0.58203125,1,0,0,rectangle,2.9921875,0.58203125,1,0,0,2.9921875,0.58203125,1,0,0,1,62,222,63,1,,,,,,,,
,,,,,,,,,,,,,FF,,,,,,,,0.783595,,,,,,,,,,,,,,,,,,,,,,60ff1beb456c2f3d0726e807,61036ee8b4e8cd61018fe129,2021-07-29_22h16.52.653,Simcolourproject_2stim_asymm_v5,2020.2.10,MacIntel,60,61025ae37ef11b136ea224fe,,,,,,,,,1216,80.91015625,31.8984375,1,0,0,response1disk,,6,14.18359375,-8.1875,1,0,0,rectangle,14.18359375,-8.1875,1,0,0,14.18359375,-8.1875,1,0,0,1,63,223,18,1,,,,,,,,
,,,,,,,,,,,,,FF,,,,,,,,0.666615,,,,,,,,,,,,,,,,,,,,,,60ff1beb456c2f3d0726e807,61036ee8b4e8cd61018fe129,2021-07-29_22h16.52.653,Simcolourproject_2stim_asymm_v5,2020.2.10,MacIntel,60,61025ae37ef11b136ea224fe,,,,,,,,,667,40.015625,87.6015625,1,0,0,response1disk,,7,10.87890625,4.1328125,1,0,0,rectangle,10.87890625,4.1328125,1,0,0,10.87890625,4.1328125,1,0,0,1,64,224,61,1,,,,,,,,
,,,,,,,,,,,,,FF,,,,,,,,0.85237,,,,,,,,,,,,,,,,,,,,,,60ff1beb456c2f3d0726e807,61036ee8b4e8cd61018fe129,2021-07-29_22h16.52.653,Simcolourproject_2stim_asymm_v5,2020.2.10,MacIntel,60,61025ae37ef11b136ea224fe,,,,,,,,,2113,30.20703125,81.18359375,1,0,0,response1disk,,7,1.14453125,-1.8671875,1,0,0,rectangle,1.14453125,-1.8671875,1,0,0,1.14453125,-1.8671875,1,0,0,1,65,225,36,1,,,,,,,,
,,,,,,,,,,,,,FF,,,,,,,,0.65071,,,,,,,,,,,,,,,,,,,,,,60ff1beb456c2f3d0726e807,61036ee8b4e8cd61018fe129,2021-07-29_22h16.52.653,Simcolourproject_2stim_asymm_v5,2020.2.10,MacIntel,60,61025ae37ef11b136ea224fe,,,,,,,,,2110,30.09765625,69.42578125,1,0,0,response1disk,,7,24.1015625,6.0703125,1,0,0,rectangle,24.1015625,6.0703125,1,0,0,24.1015625,6.0703125,1,0,0,1,66,226,82,1,,,,,,,,
,,,,,,,,,,,,,FF,,,,,,,,1.30011,,,,,,,,,,,,,,,,,,,,,,60ff1beb456c2f3d0726e807,61036ee8b4e8cd61018fe129,2021-07-29_22h16.52.653,Simcolourproject_2stim_asymm_v5,2020.2.10,MacIntel,60,61025ae37ef11b136ea224fe,,,,,,,,,2217,-76.20703125,-31.16015625,1,0,0,response5disk,,2,-7.58203125,12.70703125,1,0,0,rectangle,-7.58203125,12.70703125,1,0,0,-7.58203125,12.70703125,1,0,0,1,67,227,22,1,,,,,,,,
,,,,,,,,,,,,,FF,,,,,,,,0.749985,,,,,,,,,,,,,,,,,,,,,,60ff1beb456c2f3d0726e807,61036ee8b4e8cd61018fe129,2021-07-29_22h16.52.653,Simcolourproject_2stim_asymm_v5,2020.2.10,MacIntel,60,61025ae37ef11b136ea224fe,,,,,,,,,2225,43.43359375,70.890625,1,0,0,response1disk,,7,12.1171875,-1.4765625,1,0,0,rectangle,12.1171875,-1.4765625,1,0,0,12.1171875,-1.4765625,1,0,0,1,68,228,130,1,,,,,,,,
,,,,,,,,,,,,,FF,,,,,,,,1.334575,,,,,,,,,,,,,,,,,,,,,,60ff1beb456c2f3d0726e807,61036ee8b4e8cd61018fe129,2021-07-29_22h16.52.653,Simcolourproject_2stim_asymm_v5,2020.2.10,MacIntel,60,61025ae37ef11b136ea224fe,,,,,,,,,1436,92.65234375,-39.66015625,1,0,0,response3disk,,5,9.1328125,3.44140625,1,0,0,rectangle,9.1328125,3.44140625,1,0,0,9.1328125,3.44140625,1,0,0,1,69,229,23,1,,,,,,,,
,,,,,,,,,,,,,FF,,,,,,,,0.65103,,,,,,,,,,,,,,,,,,,,,,60ff1beb456c2f3d0726e807,61036ee8b4e8cd61018fe129,2021-07-29_22h16.52.653,Simcolourproject_2stim_asymm_v5,2020.2.10,MacIntel,60,61025ae37ef11b136ea224fe,,,,,,,,,3308,30.79296875,64.98828125,1,0,0,response1disk,,7,12.83203125,11.65625,1,0,0,rectangle,12.83203125,11.65625,1,0,0,12.83203125,11.65625,1,0,0,1,70,230,88,1,,,,,,,,
,,,,,,,,,,,,,FF,,,,,,,,1.067385,,,,,,,,,,,,,,,,,,,,,,60ff1beb456c2f3d0726e807,61036ee8b4e8cd61018fe129,2021-07-29_22h16.52.653,Simcolourproject_2stim_asymm_v5,2020.2.10,MacIntel,60,61025ae37ef11b136ea224fe,,,,,,,,,1234,34.203125,67.85546875,1,0,0,response1disk,,7,20.72265625,-6.9375,1,0,0,rectangle,20.72265625,-6.9375,1,0,0,20.72265625,-6.9375,1,0,0,1,71,231,133,1,,,,,,,,
,,,,,,,,,,,,,FF,,,,,,,,0.582625,,,,,,,,,,,,,,,,,,,,,,60ff1beb456c2f3d0726e807,61036ee8b4e8cd61018fe129,2021-07-29_22h16.52.653,Simcolourproject_2stim_asymm_v5,2020.2.10,MacIntel,60,61025ae37ef11b136ea224fe,,,,,,,,,1256,46.3828125,77.83984375,1,0,0,response1disk,,7,16.5,0.73828125,1,0,0,rectangle,16.5,0.73828125,1,0,0,16.5,0.73828125,1,0,0,1,72,232,105,1,,,,,,,,
,,,,,,,,,,,,,FF,,,,,,,,1.300255,,,,,,,,,,,,,,,,,,,,,,60ff1beb456c2f3d0726e807,61036ee8b4e8cd61018fe129,2021-07-29_22h16.52.653,Simcolourproject_2stim_asymm_v5,2020.2.10,MacIntel,60,61025ae37ef11b136ea224fe,,,,,,,,,563,86.4609375,43.3671875,1,0,0,response1disk,,6,17.7421875,7.03515625,1,0,0,rectangle,17.7421875,7.03515625,1,0,0,17.7421875,7.03515625,1,0,0,1,73,233,127,1,,,,,,,,
,,,,,,,,,,,,,FF,,,,,,,,0.581915,,,,,,,,,,,,,,,,,,,,,,60ff1beb456c2f3d0726e807,61036ee8b4e8cd61018fe129,2021-07-29_22h16.52.653,Simcolourproject_2stim_asymm_v5,2020.2.10,MacIntel,60,61025ae37ef11b136ea224fe,,,,,,,,,1084,40.58203125,75.5703125,1,0,0,response1disk,,7,7.7734375,10.046875,1,0,0,rectangle,7.7734375,10.046875,1,0,0,7.7734375,10.046875,1,0,0,1,74,234,157,1,,,,,,,,
,,,,,,,,,,,,,FF,,,,,,,,0.58208,,,,,,,,,,,,,,,,,,,,,,60ff1beb456c2f3d0726e807,61036ee8b4e8cd61018fe129,2021-07-29_22h16.52.653,Simcolourproject_2stim_asymm_v5,2020.2.10,MacIntel,60,61025ae37ef11b136ea224fe,,,,,,,,,3876,39.03515625,86.5703125,1,0,0,response1disk,,7,9.03515625,7.38671875,1,0,0,rectangle,36.76953125,-89.9609375,1,0,0,10.37109375,-0.51171875,1,0,0,1,75,235,111,1,,response3disk_3,TRUE,4,4,"[119,157,172,17,25,70,299,214,53,25,31,219,23,253,200,299,30,236,172,3]",1.78366,rectangle
,,,,,,,,,,,,,FF,,,,,,,,0.85136,,,,,,,,,,,,,,,,,,,,,,60ff1beb456c2f3d0726e807,61036ee8b4e8cd61018fe129,2021-07-29_22h16.52.653,Simcolourproject_2stim_asymm_v5,2020.2.10,MacIntel,60,61025ae37ef11b136ea224fe,,,,,,,,,225,37.71875,70.55859375,1,0,0,response1disk,,7,8.76953125,-0.69921875,1,0,0,rectangle,8.76953125,-0.69921875,1,0,0,8.76953125,-0.69921875,1,0,0,1,76,236,64,1,,,,,,,,
,,,,,,,,,,,,,FF,,,,,,,,0.666965,,,,,,,,,,,,,,,,,,,,,,60ff1beb456c2f3d0726e807,61036ee8b4e8cd61018fe129,2021-07-29_22h16.52.653,Simcolourproject_2stim_asymm_v5,2020.2.10,MacIntel,60,61025ae37ef11b136ea224fe,,,,,,,,,1941,33.953125,52.74609375,1,0,0,response1disk,,7,13.26953125,-1.890625,1,0,0,rectangle,13.26953125,-1.890625,1,0,0,13.26953125,-1.890625,1,0,0,1,77,237,5,1,,,,,,,,
,,,,,,,,,,,,,FF,,,,,,,,1.317265,,,,,,,,,,,,,,,,,,,,,,60ff1beb456c2f3d0726e807,61036ee8b4e8cd61018fe129,2021-07-29_22h16.52.653,Simcolourproject_2stim_asymm_v5,2020.2.10,MacIntel,60,61025ae37ef11b136ea224fe,,,,,,,,,1717,39.6953125,77.01171875,1,0,0,response1disk,,7,12.95703125,2.46875,1,0,0,rectangle,12.95703125,2.46875,1,0,0,12.95703125,2.46875,1,0,0,1,78,238,108,1,,,,,,,,
,,,,,,,,,,,,,FF,,,,,,,,0.750235,,,,,,,,,,,,,,,,,,,,,,60ff1beb456c2f3d0726e807,61036ee8b4e8cd61018fe129,2021-07-29_22h16.52.653,Simcolourproject_2stim_asymm_v5,2020.2.10,MacIntel,60,61025ae37ef11b136ea224fe,,,,,,,,,4210,37.75,63.7734375,1,0,0,response1disk,,7,28.12109375,7.046875,1,0,0,rectangle,28.12109375,7.046875,1,0,0,28.12109375,7.046875,1,0,0,1,79,239,45,1,,,,,,,,
,,,,,,,,,,,,,FF,,,,,,,,0.59895,,,,,,,,,,,,,,,,,,,,,,60ff1beb456c2f3d0726e807,61036ee8b4e8cd61018fe129,2021-07-29_22h16.52.653,Simcolourproject_2stim_asymm_v5,2020.2.10,MacIntel,60,61025ae37ef11b136ea224fe,,,,,,,,,205,46.08203125,87.9375,1,0,0,response1disk,,7,16.96875,-2.875,1,0,0,rectangle,16.96875,-2.875,1,0,0,16.96875,-2.875,1,0,0,1,80,240,8,1,,,,,,,,
,,,,,,,,,,,,,FF,,,,,,,,0.634215,,,,,,,,,,,,,,,,,,,,,,60ff1beb456c2f3d0726e807,61036ee8b4e8cd61018fe129,2021-07-29_22h16.52.653,Simcolourproject_2stim_asymm_v5,2020.2.10,MacIntel,60,61025ae37ef11b136ea224fe,,,,,,,,,2924,45.22265625,74.37890625,1,0,0,response1disk,,7,5.59765625,5.2578125,1,0,0,rectangle,5.59765625,5.2578125,1,0,0,5.59765625,5.2578125,1,0,0,1,81,241,16,1,,,,,,,,
,,,,,,,,,,,,,FF,,,,,,,,0.666615,,,,,,,,,,,,,,,,,,,,,,60ff1beb456c2f3d0726e807,61036ee8b4e8cd61018fe129,2021-07-29_22h16.52.653,Simcolourproject_2stim_asymm_v5,2020.2.10,MacIntel,60,61025ae37ef11b136ea224fe,,,,,,,,,419,30.07421875,86.91796875,1,0,0,response1disk,,7,-22.375,-7.1796875,1,0,0,rectangle,-22.375,-7.1796875,1,0,0,-22.375,-7.1796875,1,0,0,1,82,242,84,1,,,,,,,,
,,,,,,,,,,,,,FF,,,,,,,,0.733525,,,,,,,,,,,,,,,,,,,,,,60ff1beb456c2f3d0726e807,61036ee8b4e8cd61018fe129,2021-07-29_22h16.52.653,Simcolourproject_2stim_asymm_v5,2020.2.10,MacIntel,60,61025ae37ef11b136ea224fe,,,,,,,,,2368,31.31640625,60.86328125,1,0,0,response1disk,,7,6.12890625,-1.09765625,1,0,0,rectangle,6.12890625,-1.09765625,1,0,0,6.12890625,-1.09765625,1,0,0,1,83,243,24,1,,,,,,,,
,,,,,,,,,,,,,FF,,,,,,,,0.767135,,,,,,,,,,,,,,,,,,,,,,60ff1beb456c2f3d0726e807,61036ee8b4e8cd61018fe129,2021-07-29_22h16.52.653,Simcolourproject_2stim_asymm_v5,2020.2.10,MacIntel,60,61025ae37ef11b136ea224fe,,,,,,,,,1360,39.90234375,59.94140625,1,0,0,response1disk,,7,15.5859375,-8.0234375,1,0,0,rectangle,15.5859375,-8.0234375,1,0,0,15.5859375,-8.0234375,1,0,0,1,84,244,119,1,,,,,,,,
,,,,,,,,,,,,,FF,,,,,,,,1.21558,,,,,,,,,,,,,,,,,,,,,,60ff1beb456c2f3d0726e807,61036ee8b4e8cd61018fe129,2021-07-29_22h16.52.653,Simcolourproject_2stim_asymm_v5,2020.2.10,MacIntel,60,61025ae37ef11b136ea224fe,,,,,,,,,1446,49.125,-68.453125,1,0,0,response3disk,,4,9.7578125,-9.90234375,1,0,0,rectangle,9.7578125,-9.90234375,1,0,0,9.7578125,-9.90234375,1,0,0,1,85,245,158,1,,,,,,,,
,,,,,,,,,,,,,FF,,,,,,,,0.732635,,,,,,,,,,,,,,,,,,,,,,60ff1beb456c2f3d0726e807,61036ee8b4e8cd61018fe129,2021-07-29_22h16.52.653,Simcolourproject_2stim_asymm_v5,2020.2.10,MacIntel,60,61025ae37ef11b136ea224fe,,,,,,,,,4039,39.015625,76.671875,1,0,0,response1disk,,7,-1.51953125,-1.828125,1,0,0,rectangle,-1.51953125,-1.828125,1,0,0,-1.51953125,-1.828125,1,0,0,1,86,246,1,1,,,,,,,,
,,,,,,,,,,,,,FF,,,,,,,,0.71869,,,,,,,,,,,,,,,,,,,,,,60ff1beb456c2f3d0726e807,61036ee8b4e8cd61018fe129,2021-07-29_22h16.52.653,Simcolourproject_2stim_asymm_v5,2020.2.10,MacIntel,60,61025ae37ef11b136ea224fe,,,,,,,,,942,29.08203125,63.80078125,1,0,0,response1disk,,7,24.05859375,2.78515625,1,0,0,rectangle,24.05859375,2.78515625,1,0,0,24.05859375,2.78515625,1,0,0,1,87,247,46,1,,,,,,,,
,,,,,,,,,,,,,FF,,,,,,,,0.932875,,,,,,,,,,,,,,,,,,,,,,60ff1beb456c2f3d0726e807,61036ee8b4e8cd61018fe129,2021-07-29_22h16.52.653,Simcolourproject_2stim_asymm_v5,2020.2.10,MacIntel,60,61025ae37ef11b136ea224fe,,,,,,,,,2209,65.0546875,29.26953125,1,0,0,response1disk,,6,22.94921875,3.44140625,1,0,0,rectangle,22.94921875,3.44140625,1,0,0,22.94921875,3.44140625,1,0,0,1,88,248,52,1,,,,,,,,
