key_resp.keys,key_resp.rt,key_resp_14.keys,key_resp_14.rt,key_resp_15.keys,key_resp_15.rt,key_resp_17.keys,key_resp_17.rt,key_resp_9.keys,key_resp_9.rt,key_resp_10.keys,key_resp_10.rt,practice_comparison,Ecc,mouse_5.x,mouse_5.y,mouse_5.leftButton,mouse_5.midButton,mouse_5.rightButton,mouse_5.clicked_name,pracsimilarity,response_time,mouse_10.x,mouse_10.y,mouse_10.leftButton,mouse_10.midButton,mouse_10.rightButton,mouse_10.clicked_name,mouse_7.x,mouse_7.y,mouse_7.leftButton,mouse_7.midButton,mouse_7.rightButton,mouse_6.x,mouse_6.y,mouse_6.leftButton,mouse_6.midButton,mouse_6.rightButton,duringprac.thisRepN,duringprac.thisTrialN,duringprac.thisN,duringprac.thisIndex,duringprac.ran,participant,session,date,expName,psychopyVersion,OS,frameRate,study_id,mouse_7.clicked_name,catchpracsimilarity,catch_response_time,catchnumberprac,catchtrialorderprac,mouse_6.clicked_name,key_resp_22.keys,key_resp_22.rt,realcomparison,mouse.x,mouse.y,mouse.leftButton,mouse.midButton,mouse.rightButton,mouse.clicked_name,Colour2,similarity,mouse_2.x,mouse_2.y,mouse_2.leftButton,mouse_2.midButton,mouse_2.rightButton,mouse_2.clicked_name,mouse_3.x,mouse_3.y,mouse_3.leftButton,mouse_3.midButton,mouse_3.rightButton,mouse_11.x,mouse_11.y,mouse_11.leftButton,mouse_11.midButton,mouse_11.rightButton,trials_2.thisRepN,trials_2.thisTrialN,trials_2.thisN,trials_2.thisIndex,trials_2.ran,Colour1,mouse_3.clicked_name,catchornah,catchsimilarity,catchnumber,catchtrialorder,catchRT,mouse_11.clicked_name
space,2.0988,space,19.6957,space,15.9982,space,14.9576,space,1.353,space,4.8936,87,FF,65,-105,1,0,0,response3disk_5,4,6.3617,-9,-2,1,0,0,rectangle_8,-9,-2,1,0,0,-9,-2,1,0,0,0,0,0,0,1,60ff09c4112943453c5a4092,610377b281c2cd9771d04bf9,2021-07-29_22h56.33.322,Simcolourproject_2stim_asymm_v5,2020.2.10,Win32,60,61025ae37ef11b136ea224fe,,,,,,,,,,,,,,,,,,,,,,,,,,,,,,,,,,,,,,,,,,,,,,
,,,,,,,,,,,,120,PF,-55,82,1,0,0,response7disk_5,0,4.3287,-4,3,1,0,0,rectangle_8,48,99,1,0,0,5,14,1,0,0,0,1,1,2,1,60ff09c4112943453c5a4092,610377b281c2cd9771d04bf9,2021-07-29_22h56.33.322,Simcolourproject_2stim_asymm_v5,2020.2.10,Win32,60,61025ae37ef11b136ea224fe,response1disk_7,7,4.5967,7,"[2,5]",rectangle_4,,,,,,,,,,,,,,,,,,,,,,,,,,,,,,,,,,,,,,,,
,,,,,,,,,,,,136,FF,-46,-104,1,0,0,response5disk_5,3,3.1301,-3,9,1,0,0,rectangle_8,-3,9,1,0,0,-3,9,1,0,0,0,2,2,3,1,60ff09c4112943453c5a4092,610377b281c2cd9771d04bf9,2021-07-29_22h56.33.322,Simcolourproject_2stim_asymm_v5,2020.2.10,Win32,60,61025ae37ef11b136ea224fe,,,,,,,,,,,,,,,,,,,,,,,,,,,,,,,,,,,,,,,,,,,,,,
,,,,,,,,,,,,117,PF,56,-77,1,0,0,response3disk_5,4,2.6638,-13,12,1,0,0,rectangle_8,-13,12,1,0,0,-13,12,1,0,0,0,3,3,6,1,60ff09c4112943453c5a4092,610377b281c2cd9771d04bf9,2021-07-29_22h56.33.322,Simcolourproject_2stim_asymm_v5,2020.2.10,Win32,60,61025ae37ef11b136ea224fe,,,,,,,,,,,,,,,,,,,,,,,,,,,,,,,,,,,,,,,,,,,,,,
,,,,,,,,,,,,135,PF,-80,31,1,0,0,response7disk_5,1,2.3482,0,-6,1,0,0,rectangle_8,39,65,1,0,0,5,0,1,0,0,0,4,4,4,1,60ff09c4112943453c5a4092,610377b281c2cd9771d04bf9,2021-07-29_22h56.33.322,Simcolourproject_2stim_asymm_v5,2020.2.10,Win32,60,61025ae37ef11b136ea224fe,response1disk_7,7,2.3103,7,"[2,5]",rectangle_4,,,,,,,,,,,,,,,,,,,,,,,,,,,,,,,,,,,,,,,,
,,,,,,,,,,,,139,PF,43,-89,1,0,0,response3disk_5,4,3.3456,0,12,1,0,0,rectangle_8,0,12,1,0,0,0,12,1,0,0,0,5,5,1,1,60ff09c4112943453c5a4092,610377b281c2cd9771d04bf9,2021-07-29_22h56.33.322,Simcolourproject_2stim_asymm_v5,2020.2.10,Win32,60,61025ae37ef11b136ea224fe,,,,,,,,,,,,,,,,,,,,,,,,,,,,,,,,,,,,,,,,,,,,,,
,,,,,,,,,,,,103,FF,90,-79,1,0,0,response3disk_5,5,2.6975,-8,-1,1,0,0,rectangle_8,-8,-1,1,0,0,-8,-1,1,0,0,0,6,6,5,1,60ff09c4112943453c5a4092,610377b281c2cd9771d04bf9,2021-07-29_22h56.33.322,Simcolourproject_2stim_asymm_v5,2020.2.10,Win32,60,61025ae37ef11b136ea224fe,,,,,,,,,,,,,,,,,,,,,,,,,,,,,,,,,,,,,,,,,,,,,,
,,,,,,,,,,,,,FF,,,,,,,,3.1805,,,,,,,,,,,,,,,,,,,,,,60ff09c4112943453c5a4092,610377b281c2cd9771d04bf9,2021-07-29_22h56.33.322,Simcolourproject_2stim_asymm_v5,2020.2.10,Win32,60,61025ae37ef11b136ea224fe,,,,,,,space,3.3139,3917,-24,-82,1,0,0,response5disk,,3,-6,-7,1,0,0,rectangle,-6,-7,1,0,0,-6,-7,1,0,0,0,0,0,13,1,,,,,,,,
,,,,,,,,,,,,,FF,,,,,,,,2.3467,,,,,,,,,,,,,,,,,,,,,,60ff09c4112943453c5a4092,610377b281c2cd9771d04bf9,2021-07-29_22h56.33.322,Simcolourproject_2stim_asymm_v5,2020.2.10,Win32,60,61025ae37ef11b136ea224fe,,,,,,,,,36,60,43,1,0,0,response1disk,,6,-22,-3,1,0,0,rectangle,-22,-3,1,0,0,-22,-3,1,0,0,0,1,1,141,1,,,,,,,,
,,,,,,,,,,,,,FF,,,,,,,,2.9958,,,,,,,,,,,,,,,,,,,,,,60ff09c4112943453c5a4092,610377b281c2cd9771d04bf9,2021-07-29_22h56.33.322,Simcolourproject_2stim_asymm_v5,2020.2.10,Win32,60,61025ae37ef11b136ea224fe,,,,,,,,,2531,85,-47,1,0,0,response3disk,,5,-15,10,1,0,0,rectangle,-15,10,1,0,0,-15,10,1,0,0,0,2,2,39,1,,,,,,,,
,,,,,,,,,,,,,FF,,,,,,,,1.4819,,,,,,,,,,,,,,,,,,,,,,60ff09c4112943453c5a4092,610377b281c2cd9771d04bf9,2021-07-29_22h56.33.322,Simcolourproject_2stim_asymm_v5,2020.2.10,Win32,60,61025ae37ef11b136ea224fe,,,,,,,,,2105,-69,34,1,0,0,response7disk,,1,1,1,1,0,0,rectangle,1,1,1,0,0,1,1,1,0,0,0,3,3,84,1,,,,,,,,
,,,,,,,,,,,,,FF,,,,,,,,3.13,,,,,,,,,,,,,,,,,,,,,,60ff09c4112943453c5a4092,610377b281c2cd9771d04bf9,2021-07-29_22h56.33.322,Simcolourproject_2stim_asymm_v5,2020.2.10,Win32,60,61025ae37ef11b136ea224fe,,,,,,,,,2500,24,-119,1,0,0,response3disk,,4,-21,10,1,0,0,rectangle,-21,10,1,0,0,-21,10,1,0,0,0,4,4,14,1,,,,,,,,
,,,,,,,,,,,,,FF,,,,,,,,6.0436,,,,,,,,,,,,,,,,,,,,,,60ff09c4112943453c5a4092,610377b281c2cd9771d04bf9,2021-07-29_22h56.33.322,Simcolourproject_2stim_asymm_v5,2020.2.10,Win32,60,61025ae37ef11b136ea224fe,,,,,,,,,4215,66,49,1,0,0,response1disk,,6,-19,-9,1,0,0,rectangle,-19,-9,1,0,0,-19,-9,1,0,0,0,5,5,95,1,,,,,,,,
,,,,,,,,,,,,,FF,,,,,,,,1.4351,,,,,,,,,,,,,,,,,,,,,,60ff09c4112943453c5a4092,610377b281c2cd9771d04bf9,2021-07-29_22h56.33.322,Simcolourproject_2stim_asymm_v5,2020.2.10,Win32,60,61025ae37ef11b136ea224fe,,,,,,,,,3326,97,-72,1,0,0,response3disk,,5,-3,13,1,0,0,rectangle,-3,13,1,0,0,-3,13,1,0,0,0,6,6,52,1,,,,,,,,
,,,,,,,,,,,,,FF,,,,,,,,1.2824,,,,,,,,,,,,,,,,,,,,,,60ff09c4112943453c5a4092,610377b281c2cd9771d04bf9,2021-07-29_22h56.33.322,Simcolourproject_2stim_asymm_v5,2020.2.10,Win32,60,61025ae37ef11b136ea224fe,,,,,,,,,2987,100,-48,1,0,0,response3disk,,5,31,10,1,0,0,rectangle,31,10,1,0,0,31,10,1,0,0,0,7,7,26,1,,,,,,,,
,,,,,,,,,,,,,FF,,,,,,,,1.5316,,,,,,,,,,,,,,,,,,,,,,60ff09c4112943453c5a4092,610377b281c2cd9771d04bf9,2021-07-29_22h56.33.322,Simcolourproject_2stim_asymm_v5,2020.2.10,Win32,60,61025ae37ef11b136ea224fe,,,,,,,,,1801,91,35,1,0,0,response1disk,,6,14,4,1,0,0,rectangle,14,4,1,0,0,14,4,1,0,0,0,8,8,71,1,,,,,,,,
,,,,,,,,,,,,,FF,,,,,,,,2.0484,,,,,,,,,,,,,,,,,,,,,,60ff09c4112943453c5a4092,610377b281c2cd9771d04bf9,2021-07-29_22h56.33.322,Simcolourproject_2stim_asymm_v5,2020.2.10,Win32,60,61025ae37ef11b136ea224fe,,,,,,,,,1686,-43,-104,1,0,0,response5disk,,3,0,10,1,0,0,rectangle,0,10,1,0,0,0,10,1,0,0,0,9,9,99,1,,,,,,,,
,,,,,,,,,,,,,FF,,,,,,,,2.0948,,,,,,,,,,,,,,,,,,,,,,60ff09c4112943453c5a4092,610377b281c2cd9771d04bf9,2021-07-29_22h56.33.322,Simcolourproject_2stim_asymm_v5,2020.2.10,Win32,60,61025ae37ef11b136ea224fe,,,,,,,,,4347,-117,59,1,0,0,response7disk,,1,-5,7,1,0,0,rectangle,-5,7,1,0,0,-5,7,1,0,0,0,10,10,25,1,,,,,,,,
,,,,,,,,,,,,,FF,,,,,,,,1.848,,,,,,,,,,,,,,,,,,,,,,60ff09c4112943453c5a4092,610377b281c2cd9771d04bf9,2021-07-29_22h56.33.322,Simcolourproject_2stim_asymm_v5,2020.2.10,Win32,60,61025ae37ef11b136ea224fe,,,,,,,,,2642,112,43,1,0,0,response1disk,,6,-1,9,1,0,0,rectangle,-1,9,1,0,0,-1,9,1,0,0,0,11,11,15,1,,,,,,,,
,,,,,,,,,,,,,FF,,,,,,,,1.8811,,,,,,,,,,,,,,,,,,,,,,60ff09c4112943453c5a4092,610377b281c2cd9771d04bf9,2021-07-29_22h56.33.322,Simcolourproject_2stim_asymm_v5,2020.2.10,Win32,60,61025ae37ef11b136ea224fe,,,,,,,,,1253,72,-113,1,0,0,response3disk,,4,-1,-12,1,0,0,rectangle,-1,-12,1,0,0,-1,-12,1,0,0,0,12,12,55,1,,,,,,,,
,,,,,,,,,,,,,FF,,,,,,,,1.2654,,,,,,,,,,,,,,,,,,,,,,60ff09c4112943453c5a4092,610377b281c2cd9771d04bf9,2021-07-29_22h56.33.322,Simcolourproject_2stim_asymm_v5,2020.2.10,Win32,60,61025ae37ef11b136ea224fe,,,,,,,,,1759,-95,-45,1,0,0,response5disk,,2,14,-2,1,0,0,rectangle,14,-2,1,0,0,14,-2,1,0,0,0,13,13,48,1,,,,,,,,
,,,,,,,,,,,,,FF,,,,,,,,0.9995,,,,,,,,,,,,,,,,,,,,,,60ff09c4112943453c5a4092,610377b281c2cd9771d04bf9,2021-07-29_22h56.33.322,Simcolourproject_2stim_asymm_v5,2020.2.10,Win32,60,61025ae37ef11b136ea224fe,,,,,,,,,2027,-73,-38,1,0,0,response5disk,,2,-4,-14,1,0,0,rectangle,-4,-14,1,0,0,-4,-14,1,0,0,0,14,14,149,1,,,,,,,,
,,,,,,,,,,,,,FF,,,,,,,,1.8142,,,,,,,,,,,,,,,,,,,,,,60ff09c4112943453c5a4092,610377b281c2cd9771d04bf9,2021-07-29_22h56.33.322,Simcolourproject_2stim_asymm_v5,2020.2.10,Win32,60,61025ae37ef11b136ea224fe,,,,,,,,,1277,114,39,1,0,0,response1disk,,6,-18,-3,1,0,0,rectangle,-18,-3,1,0,0,-18,-3,1,0,0,0,15,15,12,1,,,,,,,,
,,,,,,,,,,,,,FF,,,,,,,,1.099,,,,,,,,,,,,,,,,,,,,,,60ff09c4112943453c5a4092,610377b281c2cd9771d04bf9,2021-07-29_22h56.33.322,Simcolourproject_2stim_asymm_v5,2020.2.10,Win32,60,61025ae37ef11b136ea224fe,,,,,,,,,1228,-76,-54,1,0,0,response5disk,,2,-2,-8,1,0,0,rectangle,-2,-8,1,0,0,-2,-8,1,0,0,0,16,16,2,1,,,,,,,,
,,,,,,,,,,,,,FF,,,,,,,,1.2486,,,,,,,,,,,,,,,,,,,,,,60ff09c4112943453c5a4092,610377b281c2cd9771d04bf9,2021-07-29_22h56.33.322,Simcolourproject_2stim_asymm_v5,2020.2.10,Win32,60,61025ae37ef11b136ea224fe,,,,,,,,,762,95,-116,1,0,0,response3disk,,4,2,-13,1,0,0,rectangle,2,-13,1,0,0,2,-13,1,0,0,0,17,17,19,1,,,,,,,,
,,,,,,,,,,,,,FF,,,,,,,,7.7579,,,,,,,,,,,,,,,,,,,,,,60ff09c4112943453c5a4092,610377b281c2cd9771d04bf9,2021-07-29_22h56.33.322,Simcolourproject_2stim_asymm_v5,2020.2.10,Win32,60,61025ae37ef11b136ea224fe,,,,,,,,,722,-107,-57,1,0,0,response5disk,,2,-4,-5,1,0,0,rectangle,-4,-5,1,0,0,-4,-5,1,0,0,0,18,18,45,1,,,,,,,,
,,,,,,,,,,,,,FF,,,,,,,,1.5315,,,,,,,,,,,,,,,,,,,,,,60ff09c4112943453c5a4092,610377b281c2cd9771d04bf9,2021-07-29_22h56.33.322,Simcolourproject_2stim_asymm_v5,2020.2.10,Win32,60,61025ae37ef11b136ea224fe,,,,,,,,,1173,76,27,1,0,0,response1disk,,6,12,-5,1,0,0,rectangle,116,-64,1,0,0,8,8,1,0,0,0,19,19,63,1,,response3disk_3,TRUE,5,5,"[92,53,111,277,257,211,159,307,204,266,41,118,51,130,204,250,212,230,175,20]",2.8978,rectangle
,,,,,,,,,,,,,FF,,,,,,,,2.5638,,,,,,,,,,,,,,,,,,,,,,60ff09c4112943453c5a4092,610377b281c2cd9771d04bf9,2021-07-29_22h56.33.322,Simcolourproject_2stim_asymm_v5,2020.2.10,Win32,60,61025ae37ef11b136ea224fe,,,,,,,,,579,102,36,1,0,0,response1disk,,6,9,14,1,0,0,rectangle,9,14,1,0,0,9,14,1,0,0,0,20,20,8,1,,,,,,,,
,,,,,,,,,,,,,FF,,,,,,,,1.5983,,,,,,,,,,,,,,,,,,,,,,60ff09c4112943453c5a4092,610377b281c2cd9771d04bf9,2021-07-29_22h56.33.322,Simcolourproject_2stim_asymm_v5,2020.2.10,Win32,60,61025ae37ef11b136ea224fe,,,,,,,,,3954,56,-84,1,0,0,response3disk,,4,-3,-2,1,0,0,rectangle,-3,-2,1,0,0,-3,-2,1,0,0,0,21,21,20,1,,,,,,,,
,,,,,,,,,,,,,FF,,,,,,,,1.3652,,,,,,,,,,,,,,,,,,,,,,60ff09c4112943453c5a4092,610377b281c2cd9771d04bf9,2021-07-29_22h56.33.322,Simcolourproject_2stim_asymm_v5,2020.2.10,Win32,60,61025ae37ef11b136ea224fe,,,,,,,,,4149,-100,-31,1,0,0,response5disk,,2,-31,-3,1,0,0,rectangle,-31,-3,1,0,0,-31,-3,1,0,0,0,22,22,100,1,,,,,,,,
,,,,,,,,,,,,,FF,,,,,,,,1.615,,,,,,,,,,,,,,,,,,,,,,60ff09c4112943453c5a4092,610377b281c2cd9771d04bf9,2021-07-29_22h56.33.322,Simcolourproject_2stim_asymm_v5,2020.2.10,Win32,60,61025ae37ef11b136ea224fe,,,,,,,,,101,-23,-64,1,0,0,response5disk,,3,-8,-11,1,0,0,rectangle,-8,-11,1,0,0,-8,-11,1,0,0,0,23,23,148,1,,,,,,,,
,,,,,,,,,,,,,FF,,,,,,,,1.2314,,,,,,,,,,,,,,,,,,,,,,60ff09c4112943453c5a4092,610377b281c2cd9771d04bf9,2021-07-29_22h56.33.322,Simcolourproject_2stim_asymm_v5,2020.2.10,Win32,60,61025ae37ef11b136ea224fe,,,,,,,,,1890,-58,-33,1,0,0,response5disk,,2,-14,-9,1,0,0,rectangle,-14,-9,1,0,0,-14,-9,1,0,0,0,24,24,66,1,,,,,,,,
,,,,,,,,,,,,,FF,,,,,,,,1.0658,,,,,,,,,,,,,,,,,,,,,,60ff09c4112943453c5a4092,610377b281c2cd9771d04bf9,2021-07-29_22h56.33.322,Simcolourproject_2stim_asymm_v5,2020.2.10,Win32,60,61025ae37ef11b136ea224fe,,,,,,,,,2862,35,81,1,0,0,response1disk,,7,20,8,1,0,0,rectangle,20,8,1,0,0,20,8,1,0,0,0,25,25,65,1,,,,,,,,
,,,,,,,,,,,,,FF,,,,,,,,0.7829,,,,,,,,,,,,,,,,,,,,,,60ff09c4112943453c5a4092,610377b281c2cd9771d04bf9,2021-07-29_22h56.33.322,Simcolourproject_2stim_asymm_v5,2020.2.10,Win32,60,61025ae37ef11b136ea224fe,,,,,,,,,2438,61,67,1,0,0,response1disk,,7,-13,-6,1,0,0,rectangle,-13,-6,1,0,0,-13,-6,1,0,0,0,26,26,49,1,,,,,,,,
,,,,,,,,,,,,,FF,,,,,,,,1.8491,,,,,,,,,,,,,,,,,,,,,,60ff09c4112943453c5a4092,610377b281c2cd9771d04bf9,2021-07-29_22h56.33.322,Simcolourproject_2stim_asymm_v5,2020.2.10,Win32,60,61025ae37ef11b136ea224fe,,,,,,,,,4262,84,53,1,0,0,response1disk,,6,-6,-3,1,0,0,rectangle,-6,-3,1,0,0,-6,-3,1,0,0,0,27,27,115,1,,,,,,,,
,,,,,,,,,,,,,FF,,,,,,,,1.8479,,,,,,,,,,,,,,,,,,,,,,60ff09c4112943453c5a4092,610377b281c2cd9771d04bf9,2021-07-29_22h56.33.322,Simcolourproject_2stim_asymm_v5,2020.2.10,Win32,60,61025ae37ef11b136ea224fe,,,,,,,,,3477,-51,-72,1,0,0,response5disk,,3,-21,-1,1,0,0,rectangle,-21,-1,1,0,0,-21,-1,1,0,0,0,28,28,155,1,,,,,,,,
,,,,,,,,,,,,,FF,,,,,,,,2.2309,,,,,,,,,,,,,,,,,,,,,,60ff09c4112943453c5a4092,610377b281c2cd9771d04bf9,2021-07-29_22h56.33.322,Simcolourproject_2stim_asymm_v5,2020.2.10,Win32,60,61025ae37ef11b136ea224fe,,,,,,,,,3044,78,60,1,0,0,response1disk,,6,-4,14,1,0,0,rectangle,-4,14,1,0,0,-4,14,1,0,0,0,29,29,86,1,,,,,,,,
,,,,,,,,,,,,,FF,,,,,,,,1.6484,,,,,,,,,,,,,,,,,,,,,,60ff09c4112943453c5a4092,610377b281c2cd9771d04bf9,2021-07-29_22h56.33.322,Simcolourproject_2stim_asymm_v5,2020.2.10,Win32,60,61025ae37ef11b136ea224fe,,,,,,,,,64,42,-82,1,0,0,response3disk,,4,-19,2,1,0,0,rectangle,-19,2,1,0,0,-19,2,1,0,0,0,30,30,33,1,,,,,,,,
,,,,,,,,,,,,,FF,,,,,,,,1.0312,,,,,,,,,,,,,,,,,,,,,,60ff09c4112943453c5a4092,610377b281c2cd9771d04bf9,2021-07-29_22h56.33.322,Simcolourproject_2stim_asymm_v5,2020.2.10,Win32,60,61025ae37ef11b136ea224fe,,,,,,,,,1663,101,51,1,0,0,response1disk,,6,30,4,1,0,0,rectangle,30,4,1,0,0,30,4,1,0,0,0,31,31,53,1,,,,,,,,
,,,,,,,,,,,,,FF,,,,,,,,0.8987,,,,,,,,,,,,,,,,,,,,,,60ff09c4112943453c5a4092,610377b281c2cd9771d04bf9,2021-07-29_22h56.33.322,Simcolourproject_2stim_asymm_v5,2020.2.10,Win32,60,61025ae37ef11b136ea224fe,,,,,,,,,1281,26,62,1,0,0,response1disk,,7,-3,-5,1,0,0,rectangle,-3,-5,1,0,0,-3,-5,1,0,0,0,32,32,140,1,,,,,,,,
,,,,,,,,,,,,,FF,,,,,,,,3.2129,,,,,,,,,,,,,,,,,,,,,,60ff09c4112943453c5a4092,610377b281c2cd9771d04bf9,2021-07-29_22h56.33.322,Simcolourproject_2stim_asymm_v5,2020.2.10,Win32,60,61025ae37ef11b136ea224fe,,,,,,,,,2801,89,-49,1,0,0,response3disk,,5,18,8,1,0,0,rectangle,18,8,1,0,0,18,8,1,0,0,0,33,33,151,1,,,,,,,,
,,,,,,,,,,,,,FF,,,,,,,,1.2155,,,,,,,,,,,,,,,,,,,,,,60ff09c4112943453c5a4092,610377b281c2cd9771d04bf9,2021-07-29_22h56.33.322,Simcolourproject_2stim_asymm_v5,2020.2.10,Win32,60,61025ae37ef11b136ea224fe,,,,,,,,,2695,106,-27,1,0,0,response3disk,,5,-32,8,1,0,0,rectangle,-32,8,1,0,0,-32,8,1,0,0,0,34,34,11,1,,,,,,,,
,,,,,,,,,,,,,FF,,,,,,,,2.0312,,,,,,,,,,,,,,,,,,,,,,60ff09c4112943453c5a4092,610377b281c2cd9771d04bf9,2021-07-29_22h56.33.322,Simcolourproject_2stim_asymm_v5,2020.2.10,Win32,60,61025ae37ef11b136ea224fe,,,,,,,,,1647,78,79,1,0,0,response1disk,,7,11,4,1,0,0,rectangle,11,4,1,0,0,11,4,1,0,0,0,35,35,22,1,,,,,,,,
,,,,,,,,,,,,,FF,,,,,,,,0.8991,,,,,,,,,,,,,,,,,,,,,,60ff09c4112943453c5a4092,610377b281c2cd9771d04bf9,2021-07-29_22h56.33.322,Simcolourproject_2stim_asymm_v5,2020.2.10,Win32,60,61025ae37ef11b136ea224fe,,,,,,,,,758,90,27,1,0,0,response1disk,,6,29,-9,1,0,0,rectangle,29,-9,1,0,0,29,-9,1,0,0,0,36,36,154,1,,,,,,,,
,,,,,,,,,,,,,FF,,,,,,,,0.7646,,,,,,,,,,,,,,,,,,,,,,60ff09c4112943453c5a4092,610377b281c2cd9771d04bf9,2021-07-29_22h56.33.322,Simcolourproject_2stim_asymm_v5,2020.2.10,Win32,60,61025ae37ef11b136ea224fe,,,,,,,,,2566,94,50,1,0,0,response1disk,,6,18,-3,1,0,0,rectangle,18,-3,1,0,0,18,-3,1,0,0,0,37,37,4,1,,,,,,,,
,,,,,,,,,,,,,FF,,,,,,,,1.2792,,,,,,,,,,,,,,,,,,,,,,60ff09c4112943453c5a4092,610377b281c2cd9771d04bf9,2021-07-29_22h56.33.322,Simcolourproject_2stim_asymm_v5,2020.2.10,Win32,60,61025ae37ef11b136ea224fe,,,,,,,,,1952,83,-43,1,0,0,response3disk,,5,-6,-3,1,0,0,rectangle,-6,-3,1,0,0,-6,-3,1,0,0,0,38,38,128,1,,,,,,,,
,,,,,,,,,,,,,FF,,,,,,,,2.8573,,,,,,,,,,,,,,,,,,,,,,60ff09c4112943453c5a4092,610377b281c2cd9771d04bf9,2021-07-29_22h56.33.322,Simcolourproject_2stim_asymm_v5,2020.2.10,Win32,60,61025ae37ef11b136ea224fe,,,,,,,,,2808,101,38,1,0,0,response1disk,,6,-2,-11,1,0,0,rectangle,-2,-11,1,0,0,-2,-11,1,0,0,0,39,39,16,1,,,,,,,,
,,,,,,,,,,,,,FF,,,,,,,,1.5145,,,,,,,,,,,,,,,,,,,,,,60ff09c4112943453c5a4092,610377b281c2cd9771d04bf9,2021-07-29_22h56.33.322,Simcolourproject_2stim_asymm_v5,2020.2.10,Win32,60,61025ae37ef11b136ea224fe,,,,,,,,,3668,-53,83,1,0,0,response7disk,,0,-7,12,1,0,0,rectangle,-102,58,1,0,0,-13,-8,1,0,0,0,40,40,144,1,,response7disk_3,TRUE,1,1,"[92,53,111,277,257,211,159,307,204,266,41,118,51,130,204,250,212,230,175,20]",1.8636,rectangle
,,,,,,,,,,,,,FF,,,,,,,,1.1157,,,,,,,,,,,,,,,,,,,,,,60ff09c4112943453c5a4092,610377b281c2cd9771d04bf9,2021-07-29_22h56.33.322,Simcolourproject_2stim_asymm_v5,2020.2.10,Win32,60,61025ae37ef11b136ea224fe,,,,,,,,,617,46,-79,1,0,0,response3disk,,4,-4,-10,1,0,0,rectangle,-4,-10,1,0,0,-4,-10,1,0,0,0,41,41,81,1,,,,,,,,
,,,,,,,,,,,,,FF,,,,,,,,1.1322,,,,,,,,,,,,,,,,,,,,,,60ff09c4112943453c5a4092,610377b281c2cd9771d04bf9,2021-07-29_22h56.33.322,Simcolourproject_2stim_asymm_v5,2020.2.10,Win32,60,61025ae37ef11b136ea224fe,,,,,,,,,3792,110,28,1,0,0,response1disk,,6,26,3,1,0,0,rectangle,26,3,1,0,0,26,3,1,0,0,0,42,42,121,1,,,,,,,,
,,,,,,,,,,,,,FF,,,,,,,,1.2323,,,,,,,,,,,,,,,,,,,,,,60ff09c4112943453c5a4092,610377b281c2cd9771d04bf9,2021-07-29_22h56.33.322,Simcolourproject_2stim_asymm_v5,2020.2.10,Win32,60,61025ae37ef11b136ea224fe,,,,,,,,,1535,-38,-89,1,0,0,response5disk,,3,-5,-4,1,0,0,rectangle,-5,-4,1,0,0,-5,-4,1,0,0,0,43,43,80,1,,,,,,,,
,,,,,,,,,,,,,FF,,,,,,,,0.9659,,,,,,,,,,,,,,,,,,,,,,60ff09c4112943453c5a4092,610377b281c2cd9771d04bf9,2021-07-29_22h56.33.322,Simcolourproject_2stim_asymm_v5,2020.2.10,Win32,60,61025ae37ef11b136ea224fe,,,,,,,,,3404,97,-55,1,0,0,response3disk,,5,10,-15,1,0,0,rectangle,10,-15,1,0,0,10,-15,1,0,0,0,44,44,158,1,,,,,,,,
,,,,,,,,,,,,,FF,,,,,,,,1.2492,,,,,,,,,,,,,,,,,,,,,,60ff09c4112943453c5a4092,610377b281c2cd9771d04bf9,2021-07-29_22h56.33.322,Simcolourproject_2stim_asymm_v5,2020.2.10,Win32,60,61025ae37ef11b136ea224fe,,,,,,,,,845,72,89,1,0,0,response1disk,,7,16,4,1,0,0,rectangle,16,4,1,0,0,16,4,1,0,0,0,45,45,57,1,,,,,,,,
,,,,,,,,,,,,,FF,,,,,,,,0.6995,,,,,,,,,,,,,,,,,,,,,,60ff09c4112943453c5a4092,610377b281c2cd9771d04bf9,2021-07-29_22h56.33.322,Simcolourproject_2stim_asymm_v5,2020.2.10,Win32,60,61025ae37ef11b136ea224fe,,,,,,,,,2571,50,96,1,0,0,response1disk,,7,20,10,1,0,0,rectangle,20,10,1,0,0,20,10,1,0,0,0,46,46,112,1,,,,,,,,
,,,,,,,,,,,,,FF,,,,,,,,1.3489,,,,,,,,,,,,,,,,,,,,,,60ff09c4112943453c5a4092,610377b281c2cd9771d04bf9,2021-07-29_22h56.33.322,Simcolourproject_2stim_asymm_v5,2020.2.10,Win32,60,61025ae37ef11b136ea224fe,,,,,,,,,1593,62,-45,1,0,0,response3disk,,5,-14,-10,1,0,0,rectangle,-14,-10,1,0,0,-14,-10,1,0,0,0,47,47,123,1,,,,,,,,
,,,,,,,,,,,,,FF,,,,,,,,1.4647,,,,,,,,,,,,,,,,,,,,,,60ff09c4112943453c5a4092,610377b281c2cd9771d04bf9,2021-07-29_22h56.33.322,Simcolourproject_2stim_asymm_v5,2020.2.10,Win32,60,61025ae37ef11b136ea224fe,,,,,,,,,409,76,59,1,0,0,response1disk,,6,6,11,1,0,0,rectangle,6,11,1,0,0,6,11,1,0,0,0,48,48,61,1,,,,,,,,
,,,,,,,,,,,,,FF,,,,,,,,1.0814,,,,,,,,,,,,,,,,,,,,,,60ff09c4112943453c5a4092,610377b281c2cd9771d04bf9,2021-07-29_22h56.33.322,Simcolourproject_2stim_asymm_v5,2020.2.10,Win32,60,61025ae37ef11b136ea224fe,,,,,,,,,2178,69,31,1,0,0,response1disk,,6,22,9,1,0,0,rectangle,22,9,1,0,0,22,9,1,0,0,0,49,49,73,1,,,,,,,,
,,,,,,,,,,,,,FF,,,,,,,,0.7661,,,,,,,,,,,,,,,,,,,,,,60ff09c4112943453c5a4092,610377b281c2cd9771d04bf9,2021-07-29_22h56.33.322,Simcolourproject_2stim_asymm_v5,2020.2.10,Win32,60,61025ae37ef11b136ea224fe,,,,,,,,,2517,64,53,1,0,0,response1disk,,6,20,11,1,0,0,rectangle,76,-27,1,0,0,-6,6,1,0,0,0,50,50,93,1,,response3disk_3,TRUE,5,5,"[92,53,111,277,257,211,159,307,204,266,41,118,51,130,204,250,212,230,175,20]",2.3141,rectangle
,,,,,,,,,,,,,FF,,,,,,,,4.4284,,,,,,,,,,,,,,,,,,,,,,60ff09c4112943453c5a4092,610377b281c2cd9771d04bf9,2021-07-29_22h56.33.322,Simcolourproject_2stim_asymm_v5,2020.2.10,Win32,60,61025ae37ef11b136ea224fe,,,,,,,,,2344,44,120,1,0,0,response1disk,,7,-23,-7,1,0,0,rectangle,-23,-7,1,0,0,-23,-7,1,0,0,0,51,51,150,1,,,,,,,,
,,,,,,,,,,,,,FF,,,,,,,,1.0656,,,,,,,,,,,,,,,,,,,,,,60ff09c4112943453c5a4092,610377b281c2cd9771d04bf9,2021-07-29_22h56.33.322,Simcolourproject_2stim_asymm_v5,2020.2.10,Win32,60,61025ae37ef11b136ea224fe,,,,,,,,,1465,-33,-121,1,0,0,response5disk,,3,17,3,1,0,0,rectangle,32,-85,1,0,0,-9,-9,1,0,0,0,52,52,40,1,,response3disk_3,TRUE,4,4,"[92,53,111,277,257,211,159,307,204,266,41,118,51,130,204,250,212,230,175,20]",1.9975,rectangle
,,,,,,,,,,,,,FF,,,,,,,,1.3825,,,,,,,,,,,,,,,,,,,,,,60ff09c4112943453c5a4092,610377b281c2cd9771d04bf9,2021-07-29_22h56.33.322,Simcolourproject_2stim_asymm_v5,2020.2.10,Win32,60,61025ae37ef11b136ea224fe,,,,,,,,,2220,69,29,1,0,0,response1disk,,6,-20,-6,1,0,0,rectangle,-20,-6,1,0,0,-20,-6,1,0,0,0,53,53,129,1,,,,,,,,
,,,,,,,,,,,,,FF,,,,,,,,0.9493,,,,,,,,,,,,,,,,,,,,,,60ff09c4112943453c5a4092,610377b281c2cd9771d04bf9,2021-07-29_22h56.33.322,Simcolourproject_2stim_asymm_v5,2020.2.10,Win32,60,61025ae37ef11b136ea224fe,,,,,,,,,2942,-59,-111,1,0,0,response5disk,,3,12,4,1,0,0,rectangle,12,4,1,0,0,12,4,1,0,0,0,54,54,18,1,,,,,,,,
,,,,,,,,,,,,,FF,,,,,,,,0.8491,,,,,,,,,,,,,,,,,,,,,,60ff09c4112943453c5a4092,610377b281c2cd9771d04bf9,2021-07-29_22h56.33.322,Simcolourproject_2stim_asymm_v5,2020.2.10,Win32,60,61025ae37ef11b136ea224fe,,,,,,,,,928,58,97,1,0,0,response1disk,,7,1,1,1,0,0,rectangle,1,1,1,0,0,1,1,1,0,0,0,55,55,110,1,,,,,,,,
,,,,,,,,,,,,,FF,,,,,,,,0.899,,,,,,,,,,,,,,,,,,,,,,60ff09c4112943453c5a4092,610377b281c2cd9771d04bf9,2021-07-29_22h56.33.322,Simcolourproject_2stim_asymm_v5,2020.2.10,Win32,60,61025ae37ef11b136ea224fe,,,,,,,,,3321,53,87,1,0,0,response1disk,,7,7,-13,1,0,0,rectangle,7,-13,1,0,0,7,-13,1,0,0,0,56,56,46,1,,,,,,,,
,,,,,,,,,,,,,FF,,,,,,,,1.232,,,,,,,,,,,,,,,,,,,,,,60ff09c4112943453c5a4092,610377b281c2cd9771d04bf9,2021-07-29_22h56.33.322,Simcolourproject_2stim_asymm_v5,2020.2.10,Win32,60,61025ae37ef11b136ea224fe,,,,,,,,,4302,97,69,1,0,0,response1disk,,6,31,1,1,0,0,rectangle,31,1,1,0,0,31,1,1,0,0,0,57,57,143,1,,,,,,,,
,,,,,,,,,,,,,FF,,,,,,,,1.6649,,,,,,,,,,,,,,,,,,,,,,60ff09c4112943453c5a4092,610377b281c2cd9771d04bf9,2021-07-29_22h56.33.322,Simcolourproject_2stim_asymm_v5,2020.2.10,Win32,60,61025ae37ef11b136ea224fe,,,,,,,,,806,-38,-63,1,0,0,response5disk,,3,19,9,1,0,0,rectangle,19,9,1,0,0,19,9,1,0,0,0,58,58,88,1,,,,,,,,
,,,,,,,,,,,,,FF,,,,,,,,0.9989,,,,,,,,,,,,,,,,,,,,,,60ff09c4112943453c5a4092,610377b281c2cd9771d04bf9,2021-07-29_22h56.33.322,Simcolourproject_2stim_asymm_v5,2020.2.10,Win32,60,61025ae37ef11b136ea224fe,,,,,,,,,4311,66,83,1,0,0,response1disk,,7,2,-16,1,0,0,rectangle,2,-16,1,0,0,2,-16,1,0,0,0,59,59,87,1,,,,,,,,
,,,,,,,,,,,,,FF,,,,,,,,1.4988,,,,,,,,,,,,,,,,,,,,,,60ff09c4112943453c5a4092,610377b281c2cd9771d04bf9,2021-07-29_22h56.33.322,Simcolourproject_2stim_asymm_v5,2020.2.10,Win32,60,61025ae37ef11b136ea224fe,,,,,,,,,3197,-70,-87,1,0,0,response5disk,,3,7,4,1,0,0,rectangle,7,4,1,0,0,7,4,1,0,0,0,60,60,1,1,,,,,,,,
,,,,,,,,,,,,,FF,,,,,,,,0.899,,,,,,,,,,,,,,,,,,,,,,60ff09c4112943453c5a4092,610377b281c2cd9771d04bf9,2021-07-29_22h56.33.322,Simcolourproject_2stim_asymm_v5,2020.2.10,Win32,60,61025ae37ef11b136ea224fe,,,,,,,,,580,95,34,1,0,0,response1disk,,6,12,-11,1,0,0,rectangle,12,-11,1,0,0,12,-11,1,0,0,0,61,61,126,1,,,,,,,,
,,,,,,,,,,,,,FF,,,,,,,,0.7989,,,,,,,,,,,,,,,,,,,,,,60ff09c4112943453c5a4092,610377b281c2cd9771d04bf9,2021-07-29_22h56.33.322,Simcolourproject_2stim_asymm_v5,2020.2.10,Win32,60,61025ae37ef11b136ea224fe,,,,,,,,,1165,81,22,1,0,0,response1disk,,6,1,-14,1,0,0,rectangle,1,-14,1,0,0,1,-14,1,0,0,0,62,62,62,1,,,,,,,,
,,,,,,,,,,,,,FF,,,,,,,,0.866,,,,,,,,,,,,,,,,,,,,,,60ff09c4112943453c5a4092,610377b281c2cd9771d04bf9,2021-07-29_22h56.33.322,Simcolourproject_2stim_asymm_v5,2020.2.10,Win32,60,61025ae37ef11b136ea224fe,,,,,,,,,4069,76,25,1,0,0,response1disk,,6,12,-2,1,0,0,rectangle,12,-2,1,0,0,12,-2,1,0,0,0,63,63,139,1,,,,,,,,
,,,,,,,,,,,,,FF,,,,,,,,0.6495,,,,,,,,,,,,,,,,,,,,,,60ff09c4112943453c5a4092,610377b281c2cd9771d04bf9,2021-07-29_22h56.33.322,Simcolourproject_2stim_asymm_v5,2020.2.10,Win32,60,61025ae37ef11b136ea224fe,,,,,,,,,1339,81,35,1,0,0,response1disk,,6,21,-14,1,0,0,rectangle,21,-14,1,0,0,21,-14,1,0,0,0,64,64,106,1,,,,,,,,
,,,,,,,,,,,,,FF,,,,,,,,1.6154,,,,,,,,,,,,,,,,,,,,,,60ff09c4112943453c5a4092,610377b281c2cd9771d04bf9,2021-07-29_22h56.33.322,Simcolourproject_2stim_asymm_v5,2020.2.10,Win32,60,61025ae37ef11b136ea224fe,,,,,,,,,1591,77,27,1,0,0,response1disk,,6,22,-15,1,0,0,rectangle,22,-15,1,0,0,22,-15,1,0,0,0,65,65,27,1,,,,,,,,
,,,,,,,,,,,,,FF,,,,,,,,1.5619,,,,,,,,,,,,,,,,,,,,,,60ff09c4112943453c5a4092,610377b281c2cd9771d04bf9,2021-07-29_22h56.33.322,Simcolourproject_2stim_asymm_v5,2020.2.10,Win32,60,61025ae37ef11b136ea224fe,,,,,,,,,3936,-35,96,1,0,0,response7disk,,0,17,3,1,0,0,rectangle,17,3,1,0,0,17,3,1,0,0,0,66,66,108,1,,,,,,,,
,,,,,,,,,,,,,FF,,,,,,,,2.0145,,,,,,,,,,,,,,,,,,,,,,60ff09c4112943453c5a4092,610377b281c2cd9771d04bf9,2021-07-29_22h56.33.322,Simcolourproject_2stim_asymm_v5,2020.2.10,Win32,60,61025ae37ef11b136ea224fe,,,,,,,,,626,85,-25,1,0,0,response3disk,,5,26,-2,1,0,0,rectangle,26,-2,1,0,0,26,-2,1,0,0,0,67,67,9,1,,,,,,,,
,,,,,,,,,,,,,FF,,,,,,,,0.8826,,,,,,,,,,,,,,,,,,,,,,60ff09c4112943453c5a4092,610377b281c2cd9771d04bf9,2021-07-29_22h56.33.322,Simcolourproject_2stim_asymm_v5,2020.2.10,Win32,60,61025ae37ef11b136ea224fe,,,,,,,,,2823,89,54,1,0,0,response1disk,,6,24,13,1,0,0,rectangle,24,13,1,0,0,24,13,1,0,0,0,68,68,3,1,,,,,,,,
,,,,,,,,,,,,,FF,,,,,,,,0.6363,,,,,,,,,,,,,,,,,,,,,,60ff09c4112943453c5a4092,610377b281c2cd9771d04bf9,2021-07-29_22h56.33.322,Simcolourproject_2stim_asymm_v5,2020.2.10,Win32,60,61025ae37ef11b136ea224fe,,,,,,,,,2003,45,67,1,0,0,response1disk,,7,0,-8,1,0,0,rectangle,0,-8,1,0,0,0,-8,1,0,0,0,69,69,28,1,,,,,,,,
,,,,,,,,,,,,,FF,,,,,,,,1.1321,,,,,,,,,,,,,,,,,,,,,,60ff09c4112943453c5a4092,610377b281c2cd9771d04bf9,2021-07-29_22h56.33.322,Simcolourproject_2stim_asymm_v5,2020.2.10,Win32,60,61025ae37ef11b136ea224fe,,,,,,,,,1748,-28,-94,1,0,0,response5disk,,3,22,5,1,0,0,rectangle,22,5,1,0,0,22,5,1,0,0,0,70,70,41,1,,,,,,,,
,,,,,,,,,,,,,FF,,,,,,,,0.966,,,,,,,,,,,,,,,,,,,,,,60ff09c4112943453c5a4092,610377b281c2cd9771d04bf9,2021-07-29_22h56.33.322,Simcolourproject_2stim_asymm_v5,2020.2.10,Win32,60,61025ae37ef11b136ea224fe,,,,,,,,,1682,-34,-89,1,0,0,response5disk,,3,8,-8,1,0,0,rectangle,8,-8,1,0,0,8,-8,1,0,0,0,71,71,130,1,,,,,,,,
,,,,,,,,,,,,,FF,,,,,,,,1.2321,,,,,,,,,,,,,,,,,,,,,,60ff09c4112943453c5a4092,610377b281c2cd9771d04bf9,2021-07-29_22h56.33.322,Simcolourproject_2stim_asymm_v5,2020.2.10,Win32,60,61025ae37ef11b136ea224fe,,,,,,,,,2104,34,-97,1,0,0,response3disk,,4,-28,-5,1,0,0,rectangle,-28,-5,1,0,0,-28,-5,1,0,0,0,72,72,91,1,,,,,,,,
,,,,,,,,,,,,,FF,,,,,,,,0.9032,,,,,,,,,,,,,,,,,,,,,,60ff09c4112943453c5a4092,610377b281c2cd9771d04bf9,2021-07-29_22h56.33.322,Simcolourproject_2stim_asymm_v5,2020.2.10,Win32,60,61025ae37ef11b136ea224fe,,,,,,,,,1695,75,24,1,0,0,response1disk,,6,20,8,1,0,0,rectangle,20,8,1,0,0,20,8,1,0,0,0,73,73,79,1,,,,,,,,
,,,,,,,,,,,,,FF,,,,,,,,1.3988,,,,,,,,,,,,,,,,,,,,,,60ff09c4112943453c5a4092,610377b281c2cd9771d04bf9,2021-07-29_22h56.33.322,Simcolourproject_2stim_asymm_v5,2020.2.10,Win32,60,61025ae37ef11b136ea224fe,,,,,,,,,4366,-25,79,1,0,0,response7disk,,0,-2,6,1,0,0,rectangle,-2,6,1,0,0,-2,6,1,0,0,0,74,74,54,1,,,,,,,,
,,,,,,,,,,,,,FF,,,,,,,,0.8319,,,,,,,,,,,,,,,,,,,,,,60ff09c4112943453c5a4092,610377b281c2cd9771d04bf9,2021-07-29_22h56.33.322,Simcolourproject_2stim_asymm_v5,2020.2.10,Win32,60,61025ae37ef11b136ea224fe,,,,,,,,,1152,73,59,1,0,0,response1disk,,6,-12,13,1,0,0,rectangle,-12,13,1,0,0,-12,13,1,0,0,0,75,75,30,1,,,,,,,,
,,,,,,,,,,,,,FF,,,,,,,,0.8668,,,,,,,,,,,,,,,,,,,,,,60ff09c4112943453c5a4092,610377b281c2cd9771d04bf9,2021-07-29_22h56.33.322,Simcolourproject_2stim_asymm_v5,2020.2.10,Win32,60,61025ae37ef11b136ea224fe,,,,,,,,,2123,64,83,1,0,0,response1disk,,7,-3,12,1,0,0,rectangle,-3,12,1,0,0,-3,12,1,0,0,0,76,76,67,1,,,,,,,,
,,,,,,,,,,,,,FF,,,,,,,,1.8151,,,,,,,,,,,,,,,,,,,,,,60ff09c4112943453c5a4092,610377b281c2cd9771d04bf9,2021-07-29_22h56.33.322,Simcolourproject_2stim_asymm_v5,2020.2.10,Win32,60,61025ae37ef11b136ea224fe,,,,,,,,,3103,52,-18,1,0,0,response3disk,,5,-8,-2,1,0,0,rectangle,-8,-2,1,0,0,-8,-2,1,0,0,0,77,77,104,1,,,,,,,,
,,,,,,,,,,,,,FF,,,,,,,,0.9329,,,,,,,,,,,,,,,,,,,,,,60ff09c4112943453c5a4092,610377b281c2cd9771d04bf9,2021-07-29_22h56.33.322,Simcolourproject_2stim_asymm_v5,2020.2.10,Win32,60,61025ae37ef11b136ea224fe,,,,,,,,,1820,44,-82,1,0,0,response3disk,,4,-36,-9,1,0,0,rectangle,-36,-9,1,0,0,-36,-9,1,0,0,0,78,78,5,1,,,,,,,,
,,,,,,,,,,,,,FF,,,,,,,,0.9828,,,,,,,,,,,,,,,,,,,,,,60ff09c4112943453c5a4092,610377b281c2cd9771d04bf9,2021-07-29_22h56.33.322,Simcolourproject_2stim_asymm_v5,2020.2.10,Win32,60,61025ae37ef11b136ea224fe,,,,,,,,,763,48,44,1,0,0,response1disk,,6,-11,11,1,0,0,rectangle,-11,11,1,0,0,-11,11,1,0,0,0,79,79,134,1,,,,,,,,
,,,,,,,,,,,,,FF,,,,,,,,1.0989,,,,,,,,,,,,,,,,,,,,,,60ff09c4112943453c5a4092,610377b281c2cd9771d04bf9,2021-07-29_22h56.33.322,Simcolourproject_2stim_asymm_v5,2020.2.10,Win32,60,61025ae37ef11b136ea224fe,,,,,,,,,1830,25,-110,1,0,0,response3disk,,4,-6,-11,1,0,0,rectangle,-6,-11,1,0,0,-6,-11,1,0,0,0,80,80,59,1,,,,,,,,
,,,,,,,,,,,,,FF,,,,,,,,1.0158,,,,,,,,,,,,,,,,,,,,,,60ff09c4112943453c5a4092,610377b281c2cd9771d04bf9,2021-07-29_22h56.33.322,Simcolourproject_2stim_asymm_v5,2020.2.10,Win32,60,61025ae37ef11b136ea224fe,,,,,,,,,258,42,-118,1,0,0,response3disk,,4,-17,2,1,0,0,rectangle,-17,2,1,0,0,-17,2,1,0,0,0,81,81,131,1,,,,,,,,
,,,,,,,,,,,,,FF,,,,,,,,1.7982,,,,,,,,,,,,,,,,,,,,,,60ff09c4112943453c5a4092,610377b281c2cd9771d04bf9,2021-07-29_22h56.33.322,Simcolourproject_2stim_asymm_v5,2020.2.10,Win32,60,61025ae37ef11b136ea224fe,,,,,,,,,393,100,34,1,0,0,response1disk,,6,37,14,1,0,0,rectangle,37,14,1,0,0,37,14,1,0,0,0,82,82,74,1,,,,,,,,
,,,,,,,,,,,,,FF,,,,,,,,0.7163,,,,,,,,,,,,,,,,,,,,,,60ff09c4112943453c5a4092,610377b281c2cd9771d04bf9,2021-07-29_22h56.33.322,Simcolourproject_2stim_asymm_v5,2020.2.10,Win32,60,61025ae37ef11b136ea224fe,,,,,,,,,2377,94,35,1,0,0,response1disk,,6,16,0,1,0,0,rectangle,16,0,1,0,0,16,0,1,0,0,0,83,83,76,1,,,,,,,,
,,,,,,,,,,,,,FF,,,,,,,,0.8657,,,,,,,,,,,,,,,,,,,,,,60ff09c4112943453c5a4092,610377b281c2cd9771d04bf9,2021-07-29_22h56.33.322,Simcolourproject_2stim_asymm_v5,2020.2.10,Win32,60,61025ae37ef11b136ea224fe,,,,,,,,,2305,66,-40,1,0,0,response3disk,,5,14,-3,1,0,0,rectangle,14,-3,1,0,0,14,-3,1,0,0,0,84,84,24,1,,,,,,,,
,,,,,,,,,,,,,FF,,,,,,,,1.9977,,,,,,,,,,,,,,,,,,,,,,60ff09c4112943453c5a4092,610377b281c2cd9771d04bf9,2021-07-29_22h56.33.322,Simcolourproject_2stim_asymm_v5,2020.2.10,Win32,60,61025ae37ef11b136ea224fe,,,,,,,,,2092,103,-56,1,0,0,response3disk,,5,11,-2,1,0,0,rectangle,11,-2,1,0,0,11,-2,1,0,0,0,85,85,34,1,,,,,,,,
,,,,,,,,,,,,,FF,,,,,,,,1.119,,,,,,,,,,,,,,,,,,,,,,60ff09c4112943453c5a4092,610377b281c2cd9771d04bf9,2021-07-29_22h56.33.322,Simcolourproject_2stim_asymm_v5,2020.2.10,Win32,60,61025ae37ef11b136ea224fe,,,,,,,,,3200,76,-48,1,0,0,response3disk,,5,15,-11,1,0,0,rectangle,15,-11,1,0,0,15,-11,1,0,0,0,86,86,127,1,,,,,,,,
,,,,,,,,,,,,,FF,,,,,,,,0.9661,,,,,,,,,,,,,,,,,,,,,,60ff09c4112943453c5a4092,610377b281c2cd9771d04bf9,2021-07-29_22h56.33.322,Simcolourproject_2stim_asymm_v5,2020.2.10,Win32,60,61025ae37ef11b136ea224fe,,,,,,,,,1034,92,-39,1,0,0,response3disk,,5,26,10,1,0,0,rectangle,26,10,1,0,0,26,10,1,0,0,0,87,87,70,1,,,,,,,,
,,,,,,,,,,,,,FF,,,,,,,,0.8824,,,,,,,,,,,,,,,,,,,,,,60ff09c4112943453c5a4092,610377b281c2cd9771d04bf9,2021-07-29_22h56.33.322,Simcolourproject_2stim_asymm_v5,2020.2.10,Win32,60,61025ae37ef11b136ea224fe,,,,,,,,,1977,73,-36,1,0,0,response3disk,,5,10,17,1,0,0,rectangle,10,17,1,0,0,10,17,1,0,0,0,88,88,50,1,,,,,,,,
,,,,,,,,,,,,,FF,,,,,,,,0.9993,,,,,,,,,,,,,,,,,,,,,,60ff09c4112943453c5a4092,610377b281c2cd9771d04bf9,2021-07-29_22h56.33.322,Simcolourproject_2stim_asymm_v5,2020.2.10,Win32,60,61025ae37ef11b136ea224fe,,,,,,,,,1943,117,42,1,0,0,response1disk,,6,-2,-9,1,0,0,rectangle,-2,-9,1,0,0,-2,-9,1,0,0,0,89,89,35,1,,,,,,,,
,,,,,,,,,,,,,FF,,,,,,,,1.0659,,,,,,,,,,,,,,,,,,,,,,60ff09c4112943453c5a4092,610377b281c2cd9771d04bf9,2021-07-29_22h56.33.322,Simcolourproject_2stim_asymm_v5,2020.2.10,Win32,60,61025ae37ef11b136ea224fe,,,,,,,,,1688,107,-60,1,0,0,response3disk,,5,23,-6,1,0,0,rectangle,23,-6,1,0,0,23,-6,1,0,0,0,90,90,124,1,,,,,,,,
,,,,,,,,,,,,,FF,,,,,,,,0.6828,,,,,,,,,,,,,,,,,,,,,,60ff09c4112943453c5a4092,610377b281c2cd9771d04bf9,2021-07-29_22h56.33.322,Simcolourproject_2stim_asymm_v5,2020.2.10,Win32,60,61025ae37ef11b136ea224fe,,,,,,,,,2777,103,-75,1,0,0,response3disk,,5,10,1,1,0,0,rectangle,33,87,1,0,0,6,15,1,0,0,0,91,91,159,1,,response1disk_3,TRUE,7,7,"[92,53,111,277,257,211,159,307,204,266,41,118,51,130,204,250,212,230,175,20]",1.4987,rectangle
,,,,,,,,,,,,,FF,,,,,,,,0.9492,,,,,,,,,,,,,,,,,,,,,,60ff09c4112943453c5a4092,610377b281c2cd9771d04bf9,2021-07-29_22h56.33.322,Simcolourproject_2stim_asymm_v5,2020.2.10,Win32,60,61025ae37ef11b136ea224fe,,,,,,,,,6,114,-54,1,0,0,response3disk,,5,2,-5,1,0,0,rectangle,2,-5,1,0,0,2,-5,1,0,0,0,92,92,6,1,,,,,,,,
,,,,,,,,,,,,,FF,,,,,,,,0.9215,,,,,,,,,,,,,,,,,,,,,,60ff09c4112943453c5a4092,610377b281c2cd9771d04bf9,2021-07-29_22h56.33.322,Simcolourproject_2stim_asymm_v5,2020.2.10,Win32,60,61025ae37ef11b136ea224fe,,,,,,,,,81,54,-86,1,0,0,response3disk,,4,6,-12,1,0,0,rectangle,6,-12,1,0,0,6,-12,1,0,0,0,93,93,116,1,,,,,,,,
,,,,,,,,,,,,,FF,,,,,,,,1.0195,,,,,,,,,,,,,,,,,,,,,,60ff09c4112943453c5a4092,610377b281c2cd9771d04bf9,2021-07-29_22h56.33.322,Simcolourproject_2stim_asymm_v5,2020.2.10,Win32,60,61025ae37ef11b136ea224fe,,,,,,,,,2754,108,48,1,0,0,response1disk,,6,11,4,1,0,0,rectangle,11,4,1,0,0,11,4,1,0,0,0,94,94,102,1,,,,,,,,
,,,,,,,,,,,,,FF,,,,,,,,0.9463,,,,,,,,,,,,,,,,,,,,,,60ff09c4112943453c5a4092,610377b281c2cd9771d04bf9,2021-07-29_22h56.33.322,Simcolourproject_2stim_asymm_v5,2020.2.10,Win32,60,61025ae37ef11b136ea224fe,,,,,,,,,964,118,36,1,0,0,response1disk,,6,17,6,1,0,0,rectangle,17,6,1,0,0,17,6,1,0,0,0,95,95,107,1,,,,,,,,
,,,,,,,,,,,,,FF,,,,,,,,0.6162,,,,,,,,,,,,,,,,,,,,,,60ff09c4112943453c5a4092,610377b281c2cd9771d04bf9,2021-07-29_22h56.33.322,Simcolourproject_2stim_asymm_v5,2020.2.10,Win32,60,61025ae37ef11b136ea224fe,,,,,,,,,1854,100,38,1,0,0,response1disk,,6,31,9,1,0,0,rectangle,31,9,1,0,0,31,9,1,0,0,0,96,96,72,1,,,,,,,,
,,,,,,,,,,,,,FF,,,,,,,,0.8489,,,,,,,,,,,,,,,,,,,,,,60ff09c4112943453c5a4092,610377b281c2cd9771d04bf9,2021-07-29_22h56.33.322,Simcolourproject_2stim_asymm_v5,2020.2.10,Win32,60,61025ae37ef11b136ea224fe,,,,,,,,,2550,89,-37,1,0,0,response3disk,,5,5,12,1,0,0,rectangle,5,12,1,0,0,5,12,1,0,0,0,97,97,90,1,,,,,,,,
,,,,,,,,,,,,,FF,,,,,,,,0.9157,,,,,,,,,,,,,,,,,,,,,,60ff09c4112943453c5a4092,610377b281c2cd9771d04bf9,2021-07-29_22h56.33.322,Simcolourproject_2stim_asymm_v5,2020.2.10,Win32,60,61025ae37ef11b136ea224fe,,,,,,,,,3165,86,42,1,0,0,response1disk,,6,0,-7,1,0,0,rectangle,0,-7,1,0,0,0,-7,1,0,0,0,98,98,75,1,,,,,,,,
,,,,,,,,,,,,,FF,,,,,,,,1.7818,,,,,,,,,,,,,,,,,,,,,,60ff09c4112943453c5a4092,610377b281c2cd9771d04bf9,2021-07-29_22h56.33.322,Simcolourproject_2stim_asymm_v5,2020.2.10,Win32,60,61025ae37ef11b136ea224fe,,,,,,,,,1433,92,33,1,0,0,response1disk,,6,20,7,1,0,0,rectangle,20,7,1,0,0,20,7,1,0,0,0,99,99,37,1,,,,,,,,
,,,,,,,,,,,,,FF,,,,,,,,0.6996,,,,,,,,,,,,,,,,,,,,,,60ff09c4112943453c5a4092,610377b281c2cd9771d04bf9,2021-07-29_22h56.33.322,Simcolourproject_2stim_asymm_v5,2020.2.10,Win32,60,61025ae37ef11b136ea224fe,,,,,,,,,237,95,37,1,0,0,response1disk,,6,27,4,1,0,0,rectangle,27,4,1,0,0,27,4,1,0,0,0,100,100,58,1,,,,,,,,
,,,,,,,,,,,,,FF,,,,,,,,0.7493,,,,,,,,,,,,,,,,,,,,,,60ff09c4112943453c5a4092,610377b281c2cd9771d04bf9,2021-07-29_22h56.33.322,Simcolourproject_2stim_asymm_v5,2020.2.10,Win32,60,61025ae37ef11b136ea224fe,,,,,,,,,1871,114,46,1,0,0,response1disk,,6,5,10,1,0,0,rectangle,5,10,1,0,0,5,10,1,0,0,0,101,101,77,1,,,,,,,,
,,,,,,,,,,,,,FF,,,,,,,,0.5994,,,,,,,,,,,,,,,,,,,,,,60ff09c4112943453c5a4092,610377b281c2cd9771d04bf9,2021-07-29_22h56.33.322,Simcolourproject_2stim_asymm_v5,2020.2.10,Win32,60,61025ae37ef11b136ea224fe,,,,,,,,,951,69,33,1,0,0,response1disk,,6,9,5,1,0,0,rectangle,9,5,1,0,0,9,5,1,0,0,0,102,102,153,1,,,,,,,,
,,,,,,,,,,,,,FF,,,,,,,,0.6818,,,,,,,,,,,,,,,,,,,,,,60ff09c4112943453c5a4092,610377b281c2cd9771d04bf9,2021-07-29_22h56.33.322,Simcolourproject_2stim_asymm_v5,2020.2.10,Win32,60,61025ae37ef11b136ea224fe,,,,,,,,,3899,76,28,1,0,0,response1disk,,6,17,-5,1,0,0,rectangle,17,-5,1,0,0,17,-5,1,0,0,0,103,103,29,1,,,,,,,,
,,,,,,,,,,,,,FF,,,,,,,,0.683,,,,,,,,,,,,,,,,,,,,,,60ff09c4112943453c5a4092,610377b281c2cd9771d04bf9,2021-07-29_22h56.33.322,Simcolourproject_2stim_asymm_v5,2020.2.10,Win32,60,61025ae37ef11b136ea224fe,,,,,,,,,515,79,36,1,0,0,response1disk,,6,22,6,1,0,0,rectangle,22,6,1,0,0,22,6,1,0,0,0,104,104,36,1,,,,,,,,
,,,,,,,,,,,,,FF,,,,,,,,0.6495,,,,,,,,,,,,,,,,,,,,,,60ff09c4112943453c5a4092,610377b281c2cd9771d04bf9,2021-07-29_22h56.33.322,Simcolourproject_2stim_asymm_v5,2020.2.10,Win32,60,61025ae37ef11b136ea224fe,,,,,,,,,54,74,28,1,0,0,response1disk,,6,-16,-8,1,0,0,rectangle,-16,-8,1,0,0,-16,-8,1,0,0,0,105,105,119,1,,,,,,,,
,,,,,,,,,,,,,FF,,,,,,,,1.1308,,,,,,,,,,,,,,,,,,,,,,60ff09c4112943453c5a4092,610377b281c2cd9771d04bf9,2021-07-29_22h56.33.322,Simcolourproject_2stim_asymm_v5,2020.2.10,Win32,60,61025ae37ef11b136ea224fe,,,,,,,,,177,20,51,1,0,0,response1disk,,7,-5,2,1,0,0,rectangle,-5,2,1,0,0,-5,2,1,0,0,0,106,106,23,1,,,,,,,,
,,,,,,,,,,,,,FF,,,,,,,,0.9492,,,,,,,,,,,,,,,,,,,,,,60ff09c4112943453c5a4092,610377b281c2cd9771d04bf9,2021-07-29_22h56.33.322,Simcolourproject_2stim_asymm_v5,2020.2.10,Win32,60,61025ae37ef11b136ea224fe,,,,,,,,,1658,101,46,1,0,0,response1disk,,6,31,0,1,0,0,rectangle,31,0,1,0,0,31,0,1,0,0,0,107,107,85,1,,,,,,,,
,,,,,,,,,,,,,FF,,,,,,,,0.9491,,,,,,,,,,,,,,,,,,,,,,60ff09c4112943453c5a4092,610377b281c2cd9771d04bf9,2021-07-29_22h56.33.322,Simcolourproject_2stim_asymm_v5,2020.2.10,Win32,60,61025ae37ef11b136ea224fe,,,,,,,,,68,65,95,1,0,0,response1disk,,7,15,11,1,0,0,rectangle,15,11,1,0,0,15,11,1,0,0,0,108,108,51,1,,,,,,,,
,,,,,,,,,,,,,FF,,,,,,,,0.9153,,,,,,,,,,,,,,,,,,,,,,60ff09c4112943453c5a4092,610377b281c2cd9771d04bf9,2021-07-29_22h56.33.322,Simcolourproject_2stim_asymm_v5,2020.2.10,Win32,60,61025ae37ef11b136ea224fe,,,,,,,,,2518,39,61,1,0,0,response1disk,,7,-14,-3,1,0,0,rectangle,-14,-3,1,0,0,-14,-3,1,0,0,0,109,109,113,1,,,,,,,,
,,,,,,,,,,,,,FF,,,,,,,,2.0312,,,,,,,,,,,,,,,,,,,,,,60ff09c4112943453c5a4092,610377b281c2cd9771d04bf9,2021-07-29_22h56.33.322,Simcolourproject_2stim_asymm_v5,2020.2.10,Win32,60,61025ae37ef11b136ea224fe,,,,,,,,,3598,-91,49,1,0,0,response7disk,,1,7,10,1,0,0,rectangle,89,35,1,0,0,-4,-15,1,0,0,0,110,110,111,1,,response1disk_3,TRUE,6,6,"[92,53,111,277,257,211,159,307,204,266,41,118,51,130,204,250,212,230,175,20]",1.7979,rectangle
,,,,,,,,,,,,,FF,,,,,,,,1.6987,,,,,,,,,,,,,,,,,,,,,,60ff09c4112943453c5a4092,610377b281c2cd9771d04bf9,2021-07-29_22h56.33.322,Simcolourproject_2stim_asymm_v5,2020.2.10,Win32,60,61025ae37ef11b136ea224fe,,,,,,,,,530,-107,30,1,0,0,response7disk,,1,-16,-11,1,0,0,rectangle,-16,-11,1,0,0,-16,-11,1,0,0,0,111,111,78,1,,,,,,,,
,,,,,,,,,,,,,FF,,,,,,,,0.9159,,,,,,,,,,,,,,,,,,,,,,60ff09c4112943453c5a4092,610377b281c2cd9771d04bf9,2021-07-29_22h56.33.322,Simcolourproject_2stim_asymm_v5,2020.2.10,Win32,60,61025ae37ef11b136ea224fe,,,,,,,,,3298,-130,45,1,0,0,response7disk,,1,-1,2,1,0,0,rectangle,-1,2,1,0,0,-1,2,1,0,0,0,112,112,89,1,,,,,,,,
,,,,,,,,,,,,,FF,,,,,,,,0.7828,,,,,,,,,,,,,,,,,,,,,,60ff09c4112943453c5a4092,610377b281c2cd9771d04bf9,2021-07-29_22h56.33.322,Simcolourproject_2stim_asymm_v5,2020.2.10,Win32,60,61025ae37ef11b136ea224fe,,,,,,,,,2661,-70,49,1,0,0,response7disk,,1,30,-8,1,0,0,rectangle,30,-8,1,0,0,30,-8,1,0,0,0,113,113,109,1,,,,,,,,
,,,,,,,,,,,,,FF,,,,,,,,1.3987,,,,,,,,,,,,,,,,,,,,,,60ff09c4112943453c5a4092,610377b281c2cd9771d04bf9,2021-07-29_22h56.33.322,Simcolourproject_2stim_asymm_v5,2020.2.10,Win32,60,61025ae37ef11b136ea224fe,,,,,,,,,3156,-37,-70,1,0,0,response5disk,,3,-1,-3,1,0,0,rectangle,-1,-3,1,0,0,-1,-3,1,0,0,0,114,114,47,1,,,,,,,,
,,,,,,,,,,,,,FF,,,,,,,,0.9833,,,,,,,,,,,,,,,,,,,,,,60ff09c4112943453c5a4092,610377b281c2cd9771d04bf9,2021-07-29_22h56.33.322,Simcolourproject_2stim_asymm_v5,2020.2.10,Win32,60,61025ae37ef11b136ea224fe,,,,,,,,,2660,-63,87,1,0,0,response7disk,,0,9,8,1,0,0,rectangle,9,8,1,0,0,9,8,1,0,0,0,115,115,145,1,,,,,,,,
,,,,,,,,,,,,,FF,,,,,,,,1.6646,,,,,,,,,,,,,,,,,,,,,,60ff09c4112943453c5a4092,610377b281c2cd9771d04bf9,2021-07-29_22h56.33.322,Simcolourproject_2stim_asymm_v5,2020.2.10,Win32,60,61025ae37ef11b136ea224fe,,,,,,,,,3790,121,-44,1,0,0,response3disk,,5,4,2,1,0,0,rectangle,4,2,1,0,0,4,2,1,0,0,0,116,116,82,1,,,,,,,,
,,,,,,,,,,,,,FF,,,,,,,,0.8159,,,,,,,,,,,,,,,,,,,,,,60ff09c4112943453c5a4092,610377b281c2cd9771d04bf9,2021-07-29_22h56.33.322,Simcolourproject_2stim_asymm_v5,2020.2.10,Win32,60,61025ae37ef11b136ea224fe,,,,,,,,,3409,85,-71,1,0,0,response3disk,,5,2,3,1,0,0,rectangle,-43,-91,1,0,0,-9,1,1,0,0,0,117,117,7,1,,response5disk_3,TRUE,3,3,"[92,53,111,277,257,211,159,307,204,266,41,118,51,130,204,250,212,230,175,20]",2.2975,rectangle
,,,,,,,,,,,,,FF,,,,,,,,1.6487,,,,,,,,,,,,,,,,,,,,,,60ff09c4112943453c5a4092,610377b281c2cd9771d04bf9,2021-07-29_22h56.33.322,Simcolourproject_2stim_asymm_v5,2020.2.10,Win32,60,61025ae37ef11b136ea224fe,,,,,,,,,1065,-70,-98,1,0,0,response5disk,,3,-16,-9,1,0,0,rectangle,-16,-9,1,0,0,-16,-9,1,0,0,0,118,118,142,1,,,,,,,,
,,,,,,,,,,,,,FF,,,,,,,,1.3979,,,,,,,,,,,,,,,,,,,,,,60ff09c4112943453c5a4092,610377b281c2cd9771d04bf9,2021-07-29_22h56.33.322,Simcolourproject_2stim_asymm_v5,2020.2.10,Win32,60,61025ae37ef11b136ea224fe,,,,,,,,,4367,-79,29,1,0,0,response7disk,,1,-28,-2,1,0,0,rectangle,-28,-2,1,0,0,-28,-2,1,0,0,0,119,119,69,1,,,,,,,,
,,,,,,,,,,,,,FF,,,,,,,,1.9815,,,,,,,,,,,,,,,,,,,,,,60ff09c4112943453c5a4092,610377b281c2cd9771d04bf9,2021-07-29_22h56.33.322,Simcolourproject_2stim_asymm_v5,2020.2.10,Win32,60,61025ae37ef11b136ea224fe,,,,,,,,,1289,109,-53,1,0,0,response3disk,,5,7,9,1,0,0,rectangle,7,9,1,0,0,7,9,1,0,0,0,120,120,42,1,,,,,,,,
,,,,,,,,,,,,,FF,,,,,,,,1.9977,,,,,,,,,,,,,,,,,,,,,,60ff09c4112943453c5a4092,610377b281c2cd9771d04bf9,2021-07-29_22h56.33.322,Simcolourproject_2stim_asymm_v5,2020.2.10,Win32,60,61025ae37ef11b136ea224fe,,,,,,,,,2150,103,-65,1,0,0,response3disk,,5,-11,6,1,0,0,rectangle,-11,6,1,0,0,-11,6,1,0,0,0,121,121,44,1,,,,,,,,
,,,,,,,,,,,,,FF,,,,,,,,1.215,,,,,,,,,,,,,,,,,,,,,,60ff09c4112943453c5a4092,610377b281c2cd9771d04bf9,2021-07-29_22h56.33.322,Simcolourproject_2stim_asymm_v5,2020.2.10,Win32,60,61025ae37ef11b136ea224fe,,,,,,,,,3911,72,58,1,0,0,response1disk,,6,-5,8,1,0,0,rectangle,-5,8,1,0,0,-5,8,1,0,0,0,122,122,156,1,,,,,,,,
,,,,,,,,,,,,,FF,,,,,,,,0.9322,,,,,,,,,,,,,,,,,,,,,,60ff09c4112943453c5a4092,610377b281c2cd9771d04bf9,2021-07-29_22h56.33.322,Simcolourproject_2stim_asymm_v5,2020.2.10,Win32,60,61025ae37ef11b136ea224fe,,,,,,,,,2271,32,78,1,0,0,response1disk,,7,10,11,1,0,0,rectangle,10,11,1,0,0,10,11,1,0,0,0,123,123,56,1,,,,,,,,
,,,,,,,,,,,,,FF,,,,,,,,0.9157,,,,,,,,,,,,,,,,,,,,,,60ff09c4112943453c5a4092,610377b281c2cd9771d04bf9,2021-07-29_22h56.33.322,Simcolourproject_2stim_asymm_v5,2020.2.10,Win32,60,61025ae37ef11b136ea224fe,,,,,,,,,3349,46,97,1,0,0,response1disk,,7,11,10,1,0,0,rectangle,11,10,1,0,0,11,10,1,0,0,0,124,124,136,1,,,,,,,,
,,,,,,,,,,,,,FF,,,,,,,,1.1824,,,,,,,,,,,,,,,,,,,,,,60ff09c4112943453c5a4092,610377b281c2cd9771d04bf9,2021-07-29_22h56.33.322,Simcolourproject_2stim_asymm_v5,2020.2.10,Win32,60,61025ae37ef11b136ea224fe,,,,,,,,,4289,44,81,1,0,0,response1disk,,7,2,15,1,0,0,rectangle,2,15,1,0,0,2,15,1,0,0,0,125,125,98,1,,,,,,,,
,,,,,,,,,,,,,FF,,,,,,,,0.866,,,,,,,,,,,,,,,,,,,,,,60ff09c4112943453c5a4092,610377b281c2cd9771d04bf9,2021-07-29_22h56.33.322,Simcolourproject_2stim_asymm_v5,2020.2.10,Win32,60,61025ae37ef11b136ea224fe,,,,,,,,,2479,24,59,1,0,0,response1disk,,7,16,2,1,0,0,rectangle,16,2,1,0,0,16,2,1,0,0,0,126,126,138,1,,,,,,,,
,,,,,,,,,,,,,FF,,,,,,,,1.4483,,,,,,,,,,,,,,,,,,,,,,60ff09c4112943453c5a4092,610377b281c2cd9771d04bf9,2021-07-29_22h56.33.322,Simcolourproject_2stim_asymm_v5,2020.2.10,Win32,60,61025ae37ef11b136ea224fe,,,,,,,,,1504,115,55,1,0,0,response1disk,,6,16,-2,1,0,0,rectangle,16,-2,1,0,0,16,-2,1,0,0,0,127,127,117,1,,,,,,,,
,,,,,,,,,,,,,FF,,,,,,,,0.9654,,,,,,,,,,,,,,,,,,,,,,60ff09c4112943453c5a4092,610377b281c2cd9771d04bf9,2021-07-29_22h56.33.322,Simcolourproject_2stim_asymm_v5,2020.2.10,Win32,60,61025ae37ef11b136ea224fe,,,,,,,,,1272,51,92,1,0,0,response1disk,,7,7,-1,1,0,0,rectangle,7,-1,1,0,0,7,-1,1,0,0,0,128,128,31,1,,,,,,,,
,,,,,,,,,,,,,FF,,,,,,,,1.4312,,,,,,,,,,,,,,,,,,,,,,60ff09c4112943453c5a4092,610377b281c2cd9771d04bf9,2021-07-29_22h56.33.322,Simcolourproject_2stim_asymm_v5,2020.2.10,Win32,60,61025ae37ef11b136ea224fe,,,,,,,,,2038,-41,-25,1,0,0,response5disk,,2,13,3,1,0,0,rectangle,33,75,1,0,0,6,-5,1,0,0,0,129,129,43,1,,response1disk_3,TRUE,7,7,"[92,53,111,277,257,211,159,307,204,266,41,118,51,130,204,250,212,230,175,20]",1.8808,rectangle
,,,,,,,,,,,,,FF,,,,,,,,1.2323,,,,,,,,,,,,,,,,,,,,,,60ff09c4112943453c5a4092,610377b281c2cd9771d04bf9,2021-07-29_22h56.33.322,Simcolourproject_2stim_asymm_v5,2020.2.10,Win32,60,61025ae37ef11b136ea224fe,,,,,,,,,4054,-21,-70,1,0,0,response5disk,,3,1,11,1,0,0,rectangle,1,11,1,0,0,1,11,1,0,0,0,130,130,135,1,,,,,,,,
,,,,,,,,,,,,,FF,,,,,,,,1.8147,,,,,,,,,,,,,,,,,,,,,,60ff09c4112943453c5a4092,610377b281c2cd9771d04bf9,2021-07-29_22h56.33.322,Simcolourproject_2stim_asymm_v5,2020.2.10,Win32,60,61025ae37ef11b136ea224fe,,,,,,,,,591,53,109,1,0,0,response1disk,,7,19,2,1,0,0,rectangle,19,2,1,0,0,19,2,1,0,0,0,131,131,64,1,,,,,,,,
,,,,,,,,,,,,,FF,,,,,,,,2.6137,,,,,,,,,,,,,,,,,,,,,,60ff09c4112943453c5a4092,610377b281c2cd9771d04bf9,2021-07-29_22h56.33.322,Simcolourproject_2stim_asymm_v5,2020.2.10,Win32,60,61025ae37ef11b136ea224fe,,,,,,,,,1533,38,-90,1,0,0,response3disk,,4,15,-5,1,0,0,rectangle,15,-5,1,0,0,15,-5,1,0,0,0,132,132,114,1,,,,,,,,
,,,,,,,,,,,,,FF,,,,,,,,1.7489,,,,,,,,,,,,,,,,,,,,,,60ff09c4112943453c5a4092,610377b281c2cd9771d04bf9,2021-07-29_22h56.33.322,Simcolourproject_2stim_asymm_v5,2020.2.10,Win32,60,61025ae37ef11b136ea224fe,,,,,,,,,3274,69,37,1,0,0,response1disk,,6,16,-5,1,0,0,rectangle,16,-5,1,0,0,16,-5,1,0,0,0,133,133,157,1,,,,,,,,
,,,,,,,,,,,,,FF,,,,,,,,1.7149,,,,,,,,,,,,,,,,,,,,,,60ff09c4112943453c5a4092,610377b281c2cd9771d04bf9,2021-07-29_22h56.33.322,Simcolourproject_2stim_asymm_v5,2020.2.10,Win32,60,61025ae37ef11b136ea224fe,,,,,,,,,3680,89,-49,1,0,0,response3disk,,5,12,10,1,0,0,rectangle,12,10,1,0,0,12,10,1,0,0,0,134,134,60,1,,,,,,,,
,,,,,,,,,,,,,FF,,,,,,,,1.0824,,,,,,,,,,,,,,,,,,,,,,60ff09c4112943453c5a4092,610377b281c2cd9771d04bf9,2021-07-29_22h56.33.322,Simcolourproject_2stim_asymm_v5,2020.2.10,Win32,60,61025ae37ef11b136ea224fe,,,,,,,,,3558,-83,-29,1,0,0,response5disk,,2,5,1,1,0,0,rectangle,5,1,1,0,0,5,1,1,0,0,0,135,135,94,1,,,,,,,,
,,,,,,,,,,,,,FF,,,,,,,,1.0991,,,,,,,,,,,,,,,,,,,,,,60ff09c4112943453c5a4092,610377b281c2cd9771d04bf9,2021-07-29_22h56.33.322,Simcolourproject_2stim_asymm_v5,2020.2.10,Win32,60,61025ae37ef11b136ea224fe,,,,,,,,,4107,44,-126,1,0,0,response3disk,,4,-24,2,1,0,0,rectangle,-24,2,1,0,0,-24,2,1,0,0,0,136,136,68,1,,,,,,,,
,,,,,,,,,,,,,FF,,,,,,,,1.7813,,,,,,,,,,,,,,,,,,,,,,60ff09c4112943453c5a4092,610377b281c2cd9771d04bf9,2021-07-29_22h56.33.322,Simcolourproject_2stim_asymm_v5,2020.2.10,Win32,60,61025ae37ef11b136ea224fe,,,,,,,,,3819,31,-109,1,0,0,response3disk,,4,-21,-4,1,0,0,rectangle,-21,-4,1,0,0,-21,-4,1,0,0,0,137,137,103,1,,,,,,,,
,,,,,,,,,,,,,FF,,,,,,,,1.2315,,,,,,,,,,,,,,,,,,,,,,60ff09c4112943453c5a4092,610377b281c2cd9771d04bf9,2021-07-29_22h56.33.322,Simcolourproject_2stim_asymm_v5,2020.2.10,Win32,60,61025ae37ef11b136ea224fe,,,,,,,,,377,73,43,1,0,0,response1disk,,6,0,17,1,0,0,rectangle,0,17,1,0,0,0,17,1,0,0,0,138,138,10,1,,,,,,,,
,,,,,,,,,,,,,FF,,,,,,,,1.9646,,,,,,,,,,,,,,,,,,,,,,60ff09c4112943453c5a4092,610377b281c2cd9771d04bf9,2021-07-29_22h56.33.322,Simcolourproject_2stim_asymm_v5,2020.2.10,Win32,60,61025ae37ef11b136ea224fe,,,,,,,,,4341,47,88,1,0,0,response1disk,,7,10,14,1,0,0,rectangle,10,14,1,0,0,10,14,1,0,0,0,139,139,120,1,,,,,,,,
,,,,,,,,,,,,,FF,,,,,,,,1.181,,,,,,,,,,,,,,,,,,,,,,60ff09c4112943453c5a4092,610377b281c2cd9771d04bf9,2021-07-29_22h56.33.322,Simcolourproject_2stim_asymm_v5,2020.2.10,Win32,60,61025ae37ef11b136ea224fe,,,,,,,,,4278,52,58,1,0,0,response1disk,,7,8,10,1,0,0,rectangle,8,10,1,0,0,8,10,1,0,0,0,140,140,146,1,,,,,,,,
,,,,,,,,,,,,,FF,,,,,,,,1.0488,,,,,,,,,,,,,,,,,,,,,,60ff09c4112943453c5a4092,610377b281c2cd9771d04bf9,2021-07-29_22h56.33.322,Simcolourproject_2stim_asymm_v5,2020.2.10,Win32,60,61025ae37ef11b136ea224fe,,,,,,,,,655,90,22,1,0,0,response1disk,,6,-4,15,1,0,0,rectangle,-4,15,1,0,0,-4,15,1,0,0,0,141,141,92,1,,,,,,,,
,,,,,,,,,,,,,FF,,,,,,,,1.3155,,,,,,,,,,,,,,,,,,,,,,60ff09c4112943453c5a4092,610377b281c2cd9771d04bf9,2021-07-29_22h56.33.322,Simcolourproject_2stim_asymm_v5,2020.2.10,Win32,60,61025ae37ef11b136ea224fe,,,,,,,,,4145,122,-93,1,0,0,response3disk,,5,13,12,1,0,0,rectangle,13,12,1,0,0,13,12,1,0,0,0,142,142,101,1,,,,,,,,
,,,,,,,,,,,,,FF,,,,,,,,1.1159,,,,,,,,,,,,,,,,,,,,,,60ff09c4112943453c5a4092,610377b281c2cd9771d04bf9,2021-07-29_22h56.33.322,Simcolourproject_2stim_asymm_v5,2020.2.10,Win32,60,61025ae37ef11b136ea224fe,,,,,,,,,941,63,100,1,0,0,response1disk,,7,3,4,1,0,0,rectangle,3,4,1,0,0,3,4,1,0,0,0,143,143,83,1,,,,,,,,
,,,,,,,,,,,,,FF,,,,,,,,0.9825,,,,,,,,,,,,,,,,,,,,,,60ff09c4112943453c5a4092,610377b281c2cd9771d04bf9,2021-07-29_22h56.33.322,Simcolourproject_2stim_asymm_v5,2020.2.10,Win32,60,61025ae37ef11b136ea224fe,,,,,,,,,1081,33,84,1,0,0,response1disk,,7,9,8,1,0,0,rectangle,9,8,1,0,0,9,8,1,0,0,0,144,144,132,1,,,,,,,,
,,,,,,,,,,,,,FF,,,,,,,,1.2322,,,,,,,,,,,,,,,,,,,,,,60ff09c4112943453c5a4092,610377b281c2cd9771d04bf9,2021-07-29_22h56.33.322,Simcolourproject_2stim_asymm_v5,2020.2.10,Win32,60,61025ae37ef11b136ea224fe,,,,,,,,,2360,-62,-88,1,0,0,response5disk,,3,-21,6,1,0,0,rectangle,-21,6,1,0,0,-21,6,1,0,0,0,145,145,32,1,,,,,,,,
,,,,,,,,,,,,,FF,,,,,,,,0.9489,,,,,,,,,,,,,,,,,,,,,,60ff09c4112943453c5a4092,610377b281c2cd9771d04bf9,2021-07-29_22h56.33.322,Simcolourproject_2stim_asymm_v5,2020.2.10,Win32,60,61025ae37ef11b136ea224fe,,,,,,,,,4019,53,122,1,0,0,response1disk,,7,20,-5,1,0,0,rectangle,20,-5,1,0,0,20,-5,1,0,0,0,146,146,0,1,,,,,,,,
,,,,,,,,,,,,,FF,,,,,,,,1.6485,,,,,,,,,,,,,,,,,,,,,,60ff09c4112943453c5a4092,610377b281c2cd9771d04bf9,2021-07-29_22h56.33.322,Simcolourproject_2stim_asymm_v5,2020.2.10,Win32,60,61025ae37ef11b136ea224fe,,,,,,,,,3255,35,110,1,0,0,response1disk,,7,9,14,1,0,0,rectangle,9,14,1,0,0,9,14,1,0,0,0,147,147,125,1,,,,,,,,
,,,,,,,,,,,,,FF,,,,,,,,1.4319,,,,,,,,,,,,,,,,,,,,,,60ff09c4112943453c5a4092,610377b281c2cd9771d04bf9,2021-07-29_22h56.33.322,Simcolourproject_2stim_asymm_v5,2020.2.10,Win32,60,61025ae37ef11b136ea224fe,,,,,,,,,1617,96,37,1,0,0,response1disk,,6,9,7,1,0,0,rectangle,9,7,1,0,0,9,7,1,0,0,0,148,148,133,1,,,,,,,,
,,,,,,,,,,,,,FF,,,,,,,,1.0993,,,,,,,,,,,,,,,,,,,,,,60ff09c4112943453c5a4092,610377b281c2cd9771d04bf9,2021-07-29_22h56.33.322,Simcolourproject_2stim_asymm_v5,2020.2.10,Win32,60,61025ae37ef11b136ea224fe,,,,,,,,,2351,38,67,1,0,0,response1disk,,7,6,13,1,0,0,rectangle,6,13,1,0,0,6,13,1,0,0,0,149,149,97,1,,,,,,,,
,,,,,,,,,,,,,FF,,,,,,,,0.8823,,,,,,,,,,,,,,,,,,,,,,60ff09c4112943453c5a4092,610377b281c2cd9771d04bf9,2021-07-29_22h56.33.322,Simcolourproject_2stim_asymm_v5,2020.2.10,Win32,60,61025ae37ef11b136ea224fe,,,,,,,,,1840,42,65,1,0,0,response1disk,,7,18,1,1,0,0,rectangle,18,1,1,0,0,18,1,1,0,0,0,150,150,152,1,,,,,,,,
,,,,,,,,,,,,,FF,,,,,,,,1.2153,,,,,,,,,,,,,,,,,,,,,,60ff09c4112943453c5a4092,610377b281c2cd9771d04bf9,2021-07-29_22h56.33.322,Simcolourproject_2stim_asymm_v5,2020.2.10,Win32,60,61025ae37ef11b136ea224fe,,,,,,,,,1378,87,31,1,0,0,response1disk,,6,26,-12,1,0,0,rectangle,26,-12,1,0,0,26,-12,1,0,0,0,151,151,21,1,,,,,,,,
,,,,,,,,,,,,,FF,,,,,,,,0.8983,,,,,,,,,,,,,,,,,,,,,,60ff09c4112943453c5a4092,610377b281c2cd9771d04bf9,2021-07-29_22h56.33.322,Simcolourproject_2stim_asymm_v5,2020.2.10,Win32,60,61025ae37ef11b136ea224fe,,,,,,,,,1567,68,99,1,0,0,response1disk,,7,20,0,1,0,0,rectangle,20,0,1,0,0,20,0,1,0,0,0,152,152,122,1,,,,,,,,
,,,,,,,,,,,,,FF,,,,,,,,1.9653,,,,,,,,,,,,,,,,,,,,,,60ff09c4112943453c5a4092,610377b281c2cd9771d04bf9,2021-07-29_22h56.33.322,Simcolourproject_2stim_asymm_v5,2020.2.10,Win32,60,61025ae37ef11b136ea224fe,,,,,,,,,2028,75,-36,1,0,0,response3disk,,5,3,-2,1,0,0,rectangle,3,-2,1,0,0,3,-2,1,0,0,0,153,153,96,1,,,,,,,,
,,,,,,,,,,,,,FF,,,,,,,,1.2155,,,,,,,,,,,,,,,,,,,,,,60ff09c4112943453c5a4092,610377b281c2cd9771d04bf9,2021-07-29_22h56.33.322,Simcolourproject_2stim_asymm_v5,2020.2.10,Win32,60,61025ae37ef11b136ea224fe,,,,,,,,,3287,56,91,1,0,0,response1disk,,7,4,15,1,0,0,rectangle,4,15,1,0,0,4,15,1,0,0,0,154,154,137,1,,,,,,,,
,,,,,,,,,,,,,FF,,,,,,,,1.1982,,,,,,,,,,,,,,,,,,,,,,60ff09c4112943453c5a4092,610377b281c2cd9771d04bf9,2021-07-29_22h56.33.322,Simcolourproject_2stim_asymm_v5,2020.2.10,Win32,60,61025ae37ef11b136ea224fe,,,,,,,,,2074,73,21,1,0,0,response1disk,,6,-4,-16,1,0,0,rectangle,-4,-16,1,0,0,-4,-16,1,0,0,0,155,155,147,1,,,,,,,,
,,,,,,,,,,,,,FF,,,,,,,,1.1158,,,,,,,,,,,,,,,,,,,,,,60ff09c4112943453c5a4092,610377b281c2cd9771d04bf9,2021-07-29_22h56.33.322,Simcolourproject_2stim_asymm_v5,2020.2.10,Win32,60,61025ae37ef11b136ea224fe,,,,,,,,,2910,20,57,1,0,0,response1disk,,7,-3,12,1,0,0,rectangle,-3,12,1,0,0,-3,12,1,0,0,0,156,156,105,1,,,,,,,,
,,,,,,,,,,,,,FF,,,,,,,,1.0992,,,,,,,,,,,,,,,,,,,,,,60ff09c4112943453c5a4092,610377b281c2cd9771d04bf9,2021-07-29_22h56.33.322,Simcolourproject_2stim_asymm_v5,2020.2.10,Win32,60,61025ae37ef11b136ea224fe,,,,,,,,,759,27,69,1,0,0,response1disk,,7,7,15,1,0,0,rectangle,7,15,1,0,0,7,15,1,0,0,0,157,157,118,1,,,,,,,,
,,,,,,,,,,,,,FF,,,,,,,,1.8646,,,,,,,,,,,,,,,,,,,,,,60ff09c4112943453c5a4092,610377b281c2cd9771d04bf9,2021-07-29_22h56.33.322,Simcolourproject_2stim_asymm_v5,2020.2.10,Win32,60,61025ae37ef11b136ea224fe,,,,,,,,,122,39,61,1,0,0,response1disk,,7,11,7,1,0,0,rectangle,88,58,1,0,0,23,2,1,0,0,0,158,158,38,1,,response1disk_3,TRUE,6,6,"[92,53,111,277,257,211,159,307,204,266,41,118,51,130,204,250,212,230,175,20]",1.465,rectangle
,,,,,,,,,,,,,FF,,,,,,,,0.9323,,,,,,,,,,,,,,,,,,,,,,60ff09c4112943453c5a4092,610377b281c2cd9771d04bf9,2021-07-29_22h56.33.322,Simcolourproject_2stim_asymm_v5,2020.2.10,Win32,60,61025ae37ef11b136ea224fe,,,,,,,,,676,47,80,1,0,0,response1disk,,7,22,-2,1,0,0,rectangle,22,-2,1,0,0,22,-2,1,0,0,0,159,159,17,1,,,,,,,,
,,,,,,,,,,,,,FF,,,,,,,,0.8492,,,,,,,,,,,,,,,,,,,,,,60ff09c4112943453c5a4092,610377b281c2cd9771d04bf9,2021-07-29_22h56.33.322,Simcolourproject_2stim_asymm_v5,2020.2.10,Win32,60,61025ae37ef11b136ea224fe,,,,,,,,,3917,83,38,1,0,0,response1disk,,6,11,-10,1,0,0,rectangle,11,-10,1,0,0,11,-10,1,0,0,1,0,160,8,1,,,,,,,,
,,,,,,,,,,,,,FF,,,,,,,,0.949,,,,,,,,,,,,,,,,,,,,,,60ff09c4112943453c5a4092,610377b281c2cd9771d04bf9,2021-07-29_22h56.33.322,Simcolourproject_2stim_asymm_v5,2020.2.10,Win32,60,61025ae37ef11b136ea224fe,,,,,,,,,36,66,85,1,0,0,response1disk,,7,9,14,1,0,0,rectangle,9,14,1,0,0,9,14,1,0,0,1,1,161,30,1,,,,,,,,
,,,,,,,,,,,,,FF,,,,,,,,0.8493,,,,,,,,,,,,,,,,,,,,,,60ff09c4112943453c5a4092,610377b281c2cd9771d04bf9,2021-07-29_22h56.33.322,Simcolourproject_2stim_asymm_v5,2020.2.10,Win32,60,61025ae37ef11b136ea224fe,,,,,,,,,2531,41,84,1,0,0,response1disk,,7,6,16,1,0,0,rectangle,6,16,1,0,0,6,16,1,0,0,1,2,162,139,1,,,,,,,,
,,,,,,,,,,,,,FF,,,,,,,,1.7153,,,,,,,,,,,,,,,,,,,,,,60ff09c4112943453c5a4092,610377b281c2cd9771d04bf9,2021-07-29_22h56.33.322,Simcolourproject_2stim_asymm_v5,2020.2.10,Win32,60,61025ae37ef11b136ea224fe,,,,,,,,,2105,54,-74,1,0,0,response3disk,,4,16,5,1,0,0,rectangle,16,5,1,0,0,16,5,1,0,0,1,3,163,96,1,,,,,,,,
,,,,,,,,,,,,,FF,,,,,,,,2.8802,,,,,,,,,,,,,,,,,,,,,,60ff09c4112943453c5a4092,610377b281c2cd9771d04bf9,2021-07-29_22h56.33.322,Simcolourproject_2stim_asymm_v5,2020.2.10,Win32,60,61025ae37ef11b136ea224fe,,,,,,,,,2500,55,85,1,0,0,response1disk,,7,0,-6,1,0,0,rectangle,0,-6,1,0,0,0,-6,1,0,0,1,4,164,1,1,,,,,,,,
,,,,,,,,,,,,,FF,,,,,,,,1.1321,,,,,,,,,,,,,,,,,,,,,,60ff09c4112943453c5a4092,610377b281c2cd9771d04bf9,2021-07-29_22h56.33.322,Simcolourproject_2stim_asymm_v5,2020.2.10,Win32,60,61025ae37ef11b136ea224fe,,,,,,,,,4215,63,79,1,0,0,response1disk,,7,7,-12,1,0,0,rectangle,7,-12,1,0,0,7,-12,1,0,0,1,5,165,128,1,,,,,,,,
,,,,,,,,,,,,,FF,,,,,,,,0.766,,,,,,,,,,,,,,,,,,,,,,60ff09c4112943453c5a4092,610377b281c2cd9771d04bf9,2021-07-29_22h56.33.322,Simcolourproject_2stim_asymm_v5,2020.2.10,Win32,60,61025ae37ef11b136ea224fe,,,,,,,,,3326,36,73,1,0,0,response1disk,,7,-4,-11,1,0,0,rectangle,-4,-11,1,0,0,-4,-11,1,0,0,1,6,166,122,1,,,,,,,,
,,,,,,,,,,,,,FF,,,,,,,,0.9822,,,,,,,,,,,,,,,,,,,,,,60ff09c4112943453c5a4092,610377b281c2cd9771d04bf9,2021-07-29_22h56.33.322,Simcolourproject_2stim_asymm_v5,2020.2.10,Win32,60,61025ae37ef11b136ea224fe,,,,,,,,,2987,38,62,1,0,0,response1disk,,7,6,5,1,0,0,rectangle,6,5,1,0,0,6,5,1,0,0,1,7,167,21,1,,,,,,,,
,,,,,,,,,,,,,FF,,,,,,,,0.7662,,,,,,,,,,,,,,,,,,,,,,60ff09c4112943453c5a4092,610377b281c2cd9771d04bf9,2021-07-29_22h56.33.322,Simcolourproject_2stim_asymm_v5,2020.2.10,Win32,60,61025ae37ef11b136ea224fe,,,,,,,,,1801,32,70,1,0,0,response1disk,,7,9,6,1,0,0,rectangle,9,6,1,0,0,9,6,1,0,0,1,8,168,97,1,,,,,,,,
,,,,,,,,,,,,,FF,,,,,,,,2.2813,,,,,,,,,,,,,,,,,,,,,,60ff09c4112943453c5a4092,610377b281c2cd9771d04bf9,2021-07-29_22h56.33.322,Simcolourproject_2stim_asymm_v5,2020.2.10,Win32,60,61025ae37ef11b136ea224fe,,,,,,,,,1686,79,-87,1,0,0,response3disk,,4,8,1,1,0,0,rectangle,8,1,1,0,0,8,1,1,0,0,1,9,169,101,1,,,,,,,,
,,,,,,,,,,,,,FF,,,,,,,,1.482,,,,,,,,,,,,,,,,,,,,,,60ff09c4112943453c5a4092,610377b281c2cd9771d04bf9,2021-07-29_22h56.33.322,Simcolourproject_2stim_asymm_v5,2020.2.10,Win32,60,61025ae37ef11b136ea224fe,,,,,,,,,4347,-52,-89,1,0,0,response5disk,,3,-29,-3,1,0,0,rectangle,-29,-3,1,0,0,-29,-3,1,0,0,1,10,170,10,1,,,,,,,,
,,,,,,,,,,,,,FF,,,,,,,,1.0994,,,,,,,,,,,,,,,,,,,,,,60ff09c4112943453c5a4092,610377b281c2cd9771d04bf9,2021-07-29_22h56.33.322,Simcolourproject_2stim_asymm_v5,2020.2.10,Win32,60,61025ae37ef11b136ea224fe,,,,,,,,,2642,41,88,1,0,0,response1disk,,7,18,12,1,0,0,rectangle,18,12,1,0,0,18,12,1,0,0,1,11,171,90,1,,,,,,,,
,,,,,,,,,,,,,FF,,,,,,,,0.9819,,,,,,,,,,,,,,,,,,,,,,60ff09c4112943453c5a4092,610377b281c2cd9771d04bf9,2021-07-29_22h56.33.322,Simcolourproject_2stim_asymm_v5,2020.2.10,Win32,60,61025ae37ef11b136ea224fe,,,,,,,,,1253,60,78,1,0,0,response1disk,,7,12,6,1,0,0,rectangle,12,6,1,0,0,12,6,1,0,0,1,12,172,0,1,,,,,,,,
,,,,,,,,,,,,,FF,,,,,,,,1.5654,,,,,,,,,,,,,,,,,,,,,,60ff09c4112943453c5a4092,610377b281c2cd9771d04bf9,2021-07-29_22h56.33.322,Simcolourproject_2stim_asymm_v5,2020.2.10,Win32,60,61025ae37ef11b136ea224fe,,,,,,,,,1759,73,-95,1,0,0,response3disk,,4,6,-4,1,0,0,rectangle,6,-4,1,0,0,6,-4,1,0,0,1,13,173,33,1,,,,,,,,
,,,,,,,,,,,,,FF,,,,,,,,1.0987,,,,,,,,,,,,,,,,,,,,,,60ff09c4112943453c5a4092,610377b281c2cd9771d04bf9,2021-07-29_22h56.33.322,Simcolourproject_2stim_asymm_v5,2020.2.10,Win32,60,61025ae37ef11b136ea224fe,,,,,,,,,2027,38,-92,1,0,0,response3disk,,4,-15,14,1,0,0,rectangle,58,106,1,0,0,11,-9,1,0,0,1,14,174,105,1,,response1disk_3,TRUE,7,7,"[92,53,111,277,257,211,159,307,204,266,41,118,51,130,204,250,212,230,175,20]",1.5649,rectangle
,,,,,,,,,,,,,FF,,,,,,,,0.9657,,,,,,,,,,,,,,,,,,,,,,60ff09c4112943453c5a4092,610377b281c2cd9771d04bf9,2021-07-29_22h56.33.322,Simcolourproject_2stim_asymm_v5,2020.2.10,Win32,60,61025ae37ef11b136ea224fe,,,,,,,,,1277,45,100,1,0,0,response1disk,,7,9,16,1,0,0,rectangle,9,16,1,0,0,9,16,1,0,0,1,15,175,156,1,,,,,,,,
,,,,,,,,,,,,,FF,,,,,,,,1.4653,,,,,,,,,,,,,,,,,,,,,,60ff09c4112943453c5a4092,610377b281c2cd9771d04bf9,2021-07-29_22h56.33.322,Simcolourproject_2stim_asymm_v5,2020.2.10,Win32,60,61025ae37ef11b136ea224fe,,,,,,,,,1228,94,-57,1,0,0,response3disk,,5,5,-5,1,0,0,rectangle,5,-5,1,0,0,5,-5,1,0,0,1,16,176,29,1,,,,,,,,
,,,,,,,,,,,,,FF,,,,,,,,0.9159,,,,,,,,,,,,,,,,,,,,,,60ff09c4112943453c5a4092,610377b281c2cd9771d04bf9,2021-07-29_22h56.33.322,Simcolourproject_2stim_asymm_v5,2020.2.10,Win32,60,61025ae37ef11b136ea224fe,,,,,,,,,762,49,115,1,0,0,response1disk,,7,5,0,1,0,0,rectangle,5,0,1,0,0,5,0,1,0,0,1,17,177,95,1,,,,,,,,
,,,,,,,,,,,,,FF,,,,,,,,1.2153,,,,,,,,,,,,,,,,,,,,,,60ff09c4112943453c5a4092,610377b281c2cd9771d04bf9,2021-07-29_22h56.33.322,Simcolourproject_2stim_asymm_v5,2020.2.10,Win32,60,61025ae37ef11b136ea224fe,,,,,,,,,722,69,-60,1,0,0,response3disk,,5,-19,-10,1,0,0,rectangle,-19,-10,1,0,0,-19,-10,1,0,0,1,18,178,76,1,,,,,,,,
,,,,,,,,,,,,,FF,,,,,,,,1.4318,,,,,,,,,,,,,,,,,,,,,,60ff09c4112943453c5a4092,610377b281c2cd9771d04bf9,2021-07-29_22h56.33.322,Simcolourproject_2stim_asymm_v5,2020.2.10,Win32,60,61025ae37ef11b136ea224fe,,,,,,,,,1173,90,42,1,0,0,response1disk,,6,19,1,1,0,0,rectangle,19,1,1,0,0,19,1,1,0,0,1,19,179,85,1,,,,,,,,
,,,,,,,,,,,,,FF,,,,,,,,0.8655,,,,,,,,,,,,,,,,,,,,,,60ff09c4112943453c5a4092,610377b281c2cd9771d04bf9,2021-07-29_22h56.33.322,Simcolourproject_2stim_asymm_v5,2020.2.10,Win32,60,61025ae37ef11b136ea224fe,,,,,,,,,579,35,79,1,0,0,response1disk,,7,9,13,1,0,0,rectangle,9,13,1,0,0,9,13,1,0,0,1,20,180,120,1,,,,,,,,
,,,,,,,,,,,,,FF,,,,,,,,1.2484,,,,,,,,,,,,,,,,,,,,,,60ff09c4112943453c5a4092,610377b281c2cd9771d04bf9,2021-07-29_22h56.33.322,Simcolourproject_2stim_asymm_v5,2020.2.10,Win32,60,61025ae37ef11b136ea224fe,,,,,,,,,3954,24,54,1,0,0,response1disk,,7,4,8,1,0,0,rectangle,4,8,1,0,0,4,8,1,0,0,1,21,181,110,1,,,,,,,,
,,,,,,,,,,,,,FF,,,,,,,,2.1482,,,,,,,,,,,,,,,,,,,,,,60ff09c4112943453c5a4092,610377b281c2cd9771d04bf9,2021-07-29_22h56.33.322,Simcolourproject_2stim_asymm_v5,2020.2.10,Win32,60,61025ae37ef11b136ea224fe,,,,,,,,,4149,65,-87,1,0,0,response3disk,,4,3,13,1,0,0,rectangle,3,13,1,0,0,3,13,1,0,0,1,22,182,123,1,,,,,,,,
,,,,,,,,,,,,,FF,,,,,,,,3.1469,,,,,,,,,,,,,,,,,,,,,,60ff09c4112943453c5a4092,610377b281c2cd9771d04bf9,2021-07-29_22h56.33.322,Simcolourproject_2stim_asymm_v5,2020.2.10,Win32,60,61025ae37ef11b136ea224fe,,,,,,,,,101,98,38,1,0,0,response1disk,,6,9,-14,1,0,0,rectangle,9,-14,1,0,0,9,-14,1,0,0,1,23,183,89,1,,,,,,,,
,,,,,,,,,,,,,FF,,,,,,,,1.1656,,,,,,,,,,,,,,,,,,,,,,60ff09c4112943453c5a4092,610377b281c2cd9771d04bf9,2021-07-29_22h56.33.322,Simcolourproject_2stim_asymm_v5,2020.2.10,Win32,60,61025ae37ef11b136ea224fe,,,,,,,,,1890,63,-48,1,0,0,response3disk,,5,19,5,1,0,0,rectangle,19,5,1,0,0,19,5,1,0,0,1,24,184,4,1,,,,,,,,
,,,,,,,,,,,,,FF,,,,,,,,0.866,,,,,,,,,,,,,,,,,,,,,,60ff09c4112943453c5a4092,610377b281c2cd9771d04bf9,2021-07-29_22h56.33.322,Simcolourproject_2stim_asymm_v5,2020.2.10,Win32,60,61025ae37ef11b136ea224fe,,,,,,,,,2862,38,72,1,0,0,response1disk,,7,11,8,1,0,0,rectangle,11,8,1,0,0,11,8,1,0,0,1,25,185,82,1,,,,,,,,
,,,,,,,,,,,,,FF,,,,,,,,0.9325,,,,,,,,,,,,,,,,,,,,,,60ff09c4112943453c5a4092,610377b281c2cd9771d04bf9,2021-07-29_22h56.33.322,Simcolourproject_2stim_asymm_v5,2020.2.10,Win32,60,61025ae37ef11b136ea224fe,,,,,,,,,2438,27,54,1,0,0,response1disk,,7,-3,-6,1,0,0,rectangle,-3,-6,1,0,0,-3,-6,1,0,0,1,26,186,15,1,,,,,,,,
,,,,,,,,,,,,,FF,,,,,,,,0.8989,,,,,,,,,,,,,,,,,,,,,,60ff09c4112943453c5a4092,610377b281c2cd9771d04bf9,2021-07-29_22h56.33.322,Simcolourproject_2stim_asymm_v5,2020.2.10,Win32,60,61025ae37ef11b136ea224fe,,,,,,,,,4262,39,79,1,0,0,response1disk,,7,5,16,1,0,0,rectangle,5,16,1,0,0,5,16,1,0,0,1,27,187,140,1,,,,,,,,
,,,,,,,,,,,,,FF,,,,,,,,1.5322,,,,,,,,,,,,,,,,,,,,,,60ff09c4112943453c5a4092,610377b281c2cd9771d04bf9,2021-07-29_22h56.33.322,Simcolourproject_2stim_asymm_v5,2020.2.10,Win32,60,61025ae37ef11b136ea224fe,,,,,,,,,3477,70,-59,1,0,0,response3disk,,5,11,6,1,0,0,rectangle,11,6,1,0,0,11,6,1,0,0,1,28,188,67,1,,,,,,,,
,,,,,,,,,,,,,FF,,,,,,,,0.6997,,,,,,,,,,,,,,,,,,,,,,60ff09c4112943453c5a4092,610377b281c2cd9771d04bf9,2021-07-29_22h56.33.322,Simcolourproject_2stim_asymm_v5,2020.2.10,Win32,60,61025ae37ef11b136ea224fe,,,,,,,,,3044,45,85,1,0,0,response1disk,,7,20,3,1,0,0,rectangle,20,3,1,0,0,20,3,1,0,0,1,29,189,133,1,,,,,,,,
,,,,,,,,,,,,,FF,,,,,,,,0.6665,,,,,,,,,,,,,,,,,,,,,,60ff09c4112943453c5a4092,610377b281c2cd9771d04bf9,2021-07-29_22h56.33.322,Simcolourproject_2stim_asymm_v5,2020.2.10,Win32,60,61025ae37ef11b136ea224fe,,,,,,,,,64,31,80,1,0,0,response1disk,,7,3,7,1,0,0,rectangle,3,7,1,0,0,3,7,1,0,0,1,30,190,84,1,,,,,,,,
,,,,,,,,,,,,,FF,,,,,,,,0.8655,,,,,,,,,,,,,,,,,,,,,,60ff09c4112943453c5a4092,610377b281c2cd9771d04bf9,2021-07-29_22h56.33.322,Simcolourproject_2stim_asymm_v5,2020.2.10,Win32,60,61025ae37ef11b136ea224fe,,,,,,,,,1663,24,68,1,0,0,response1disk,,7,1,4,1,0,0,rectangle,1,4,1,0,0,1,4,1,0,0,1,31,191,144,1,,,,,,,,
,,,,,,,,,,,,,FF,,,,,,,,1.0655,,,,,,,,,,,,,,,,,,,,,,60ff09c4112943453c5a4092,610377b281c2cd9771d04bf9,2021-07-29_22h56.33.322,Simcolourproject_2stim_asymm_v5,2020.2.10,Win32,60,61025ae37ef11b136ea224fe,,,,,,,,,1281,32,49,1,0,0,response1disk,,7,4,-11,1,0,0,rectangle,4,-11,1,0,0,4,-11,1,0,0,1,32,192,60,1,,,,,,,,
,,,,,,,,,,,,,FF,,,,,,,,0.7331,,,,,,,,,,,,,,,,,,,,,,60ff09c4112943453c5a4092,610377b281c2cd9771d04bf9,2021-07-29_22h56.33.322,Simcolourproject_2stim_asymm_v5,2020.2.10,Win32,60,61025ae37ef11b136ea224fe,,,,,,,,,2801,29,61,1,0,0,response1disk,,7,3,11,1,0,0,rectangle,3,11,1,0,0,3,11,1,0,0,1,33,193,154,1,,,,,,,,
,,,,,,,,,,,,,FF,,,,,,,,1.1651,,,,,,,,,,,,,,,,,,,,,,60ff09c4112943453c5a4092,610377b281c2cd9771d04bf9,2021-07-29_22h56.33.322,Simcolourproject_2stim_asymm_v5,2020.2.10,Win32,60,61025ae37ef11b136ea224fe,,,,,,,,,2695,31,56,1,0,0,response1disk,,7,0,-5,1,0,0,rectangle,0,-5,1,0,0,0,-5,1,0,0,1,34,194,108,1,,,,,,,,
,,,,,,,,,,,,,FF,,,,,,,,0.8824,,,,,,,,,,,,,,,,,,,,,,60ff09c4112943453c5a4092,610377b281c2cd9771d04bf9,2021-07-29_22h56.33.322,Simcolourproject_2stim_asymm_v5,2020.2.10,Win32,60,61025ae37ef11b136ea224fe,,,,,,,,,1647,35,63,1,0,0,response1disk,,7,1,12,1,0,0,rectangle,1,12,1,0,0,1,12,1,0,0,1,35,195,28,1,,,,,,,,
,,,,,,,,,,,,,FF,,,,,,,,0.8826,,,,,,,,,,,,,,,,,,,,,,60ff09c4112943453c5a4092,610377b281c2cd9771d04bf9,2021-07-29_22h56.33.322,Simcolourproject_2stim_asymm_v5,2020.2.10,Win32,60,61025ae37ef11b136ea224fe,,,,,,,,,758,48,88,1,0,0,response1disk,,7,13,9,1,0,0,rectangle,13,9,1,0,0,13,9,1,0,0,1,36,196,9,1,,,,,,,,
,,,,,,,,,,,,,FF,,,,,,,,0.8328,,,,,,,,,,,,,,,,,,,,,,60ff09c4112943453c5a4092,610377b281c2cd9771d04bf9,2021-07-29_22h56.33.322,Simcolourproject_2stim_asymm_v5,2020.2.10,Win32,60,61025ae37ef11b136ea224fe,,,,,,,,,2566,33,78,1,0,0,response1disk,,7,4,11,1,0,0,rectangle,4,11,1,0,0,4,11,1,0,0,1,37,197,64,1,,,,,,,,
,,,,,,,,,,,,,FF,,,,,,,,0.8658,,,,,,,,,,,,,,,,,,,,,,60ff09c4112943453c5a4092,610377b281c2cd9771d04bf9,2021-07-29_22h56.33.322,Simcolourproject_2stim_asymm_v5,2020.2.10,Win32,60,61025ae37ef11b136ea224fe,,,,,,,,,1952,24,64,1,0,0,response1disk,,7,7,8,1,0,0,rectangle,7,8,1,0,0,7,8,1,0,0,1,38,198,130,1,,,,,,,,
,,,,,,,,,,,,,FF,,,,,,,,0.8317,,,,,,,,,,,,,,,,,,,,,,60ff09c4112943453c5a4092,610377b281c2cd9771d04bf9,2021-07-29_22h56.33.322,Simcolourproject_2stim_asymm_v5,2020.2.10,Win32,60,61025ae37ef11b136ea224fe,,,,,,,,,2808,25,64,1,0,0,response1disk,,7,5,17,1,0,0,rectangle,5,17,1,0,0,5,17,1,0,0,1,39,199,5,1,,,,,,,,
,,,,,,,,,,,,,FF,,,,,,,,1.3654,,,,,,,,,,,,,,,,,,,,,,60ff09c4112943453c5a4092,610377b281c2cd9771d04bf9,2021-07-29_22h56.33.322,Simcolourproject_2stim_asymm_v5,2020.2.10,Win32,60,61025ae37ef11b136ea224fe,,,,,,,,,3668,-49,87,1,0,0,response7disk,,0,-14,-4,1,0,0,rectangle,-14,-4,1,0,0,-14,-4,1,0,0,1,40,200,109,1,,,,,,,,
,,,,,,,,,,,,,FF,,,,,,,,0.916,,,,,,,,,,,,,,,,,,,,,,60ff09c4112943453c5a4092,610377b281c2cd9771d04bf9,2021-07-29_22h56.33.322,Simcolourproject_2stim_asymm_v5,2020.2.10,Win32,60,61025ae37ef11b136ea224fe,,,,,,,,,617,68,-38,1,0,0,response3disk,,5,14,-1,1,0,0,rectangle,14,-1,1,0,0,14,-1,1,0,0,1,41,201,112,1,,,,,,,,
,,,,,,,,,,,,,FF,,,,,,,,1.3819,,,,,,,,,,,,,,,,,,,,,,60ff09c4112943453c5a4092,610377b281c2cd9771d04bf9,2021-07-29_22h56.33.322,Simcolourproject_2stim_asymm_v5,2020.2.10,Win32,60,61025ae37ef11b136ea224fe,,,,,,,,,3792,59,38,1,0,0,response1disk,,6,16,-6,1,0,0,rectangle,16,-6,1,0,0,16,-6,1,0,0,1,42,202,129,1,,,,,,,,
,,,,,,,,,,,,,FF,,,,,,,,1.399,,,,,,,,,,,,,,,,,,,,,,60ff09c4112943453c5a4092,610377b281c2cd9771d04bf9,2021-07-29_22h56.33.322,Simcolourproject_2stim_asymm_v5,2020.2.10,Win32,60,61025ae37ef11b136ea224fe,,,,,,,,,1535,77,-49,1,0,0,response3disk,,5,6,15,1,0,0,rectangle,62,-104,1,0,0,2,-6,1,0,0,1,43,203,98,1,,response3disk_3,TRUE,4,4,"[92,53,111,277,257,211,159,307,204,266,41,118,51,130,204,250,212,230,175,20]",1.766,rectangle
,,,,,,,,,,,,,FF,,,,,,,,1.6484,,,,,,,,,,,,,,,,,,,,,,60ff09c4112943453c5a4092,610377b281c2cd9771d04bf9,2021-07-29_22h56.33.322,Simcolourproject_2stim_asymm_v5,2020.2.10,Win32,60,61025ae37ef11b136ea224fe,,,,,,,,,3404,49,94,1,0,0,response1disk,,7,14,-4,1,0,0,rectangle,14,-4,1,0,0,14,-4,1,0,0,1,44,204,17,1,,,,,,,,
,,,,,,,,,,,,,FF,,,,,,,,1.0326,,,,,,,,,,,,,,,,,,,,,,60ff09c4112943453c5a4092,610377b281c2cd9771d04bf9,2021-07-29_22h56.33.322,Simcolourproject_2stim_asymm_v5,2020.2.10,Win32,60,61025ae37ef11b136ea224fe,,,,,,,,,845,18,69,1,0,0,response1disk,,7,-18,8,1,0,0,rectangle,-18,8,1,0,0,-18,8,1,0,0,1,45,205,93,1,,,,,,,,
,,,,,,,,,,,,,FF,,,,,,,,0.7162,,,,,,,,,,,,,,,,,,,,,,60ff09c4112943453c5a4092,610377b281c2cd9771d04bf9,2021-07-29_22h56.33.322,Simcolourproject_2stim_asymm_v5,2020.2.10,Win32,60,61025ae37ef11b136ea224fe,,,,,,,,,2571,40,82,1,0,0,response1disk,,7,12,17,1,0,0,rectangle,12,17,1,0,0,12,17,1,0,0,1,46,206,6,1,,,,,,,,
,,,,,,,,,,,,,FF,,,,,,,,1.5815,,,,,,,,,,,,,,,,,,,,,,60ff09c4112943453c5a4092,610377b281c2cd9771d04bf9,2021-07-29_22h56.33.322,Simcolourproject_2stim_asymm_v5,2020.2.10,Win32,60,61025ae37ef11b136ea224fe,,,,,,,,,1593,84,59,1,0,0,response1disk,,6,-2,12,1,0,0,rectangle,-2,12,1,0,0,-2,12,1,0,0,1,47,207,119,1,,,,,,,,
,,,,,,,,,,,,,FF,,,,,,,,0.683,,,,,,,,,,,,,,,,,,,,,,60ff09c4112943453c5a4092,610377b281c2cd9771d04bf9,2021-07-29_22h56.33.322,Simcolourproject_2stim_asymm_v5,2020.2.10,Win32,60,61025ae37ef11b136ea224fe,,,,,,,,,409,35,77,1,0,0,response1disk,,7,-11,12,1,0,0,rectangle,-11,12,1,0,0,-11,12,1,0,0,1,48,208,59,1,,,,,,,,
,,,,,,,,,,,,,FF,,,,,,,,1.7151,,,,,,,,,,,,,,,,,,,,,,60ff09c4112943453c5a4092,610377b281c2cd9771d04bf9,2021-07-29_22h56.33.322,Simcolourproject_2stim_asymm_v5,2020.2.10,Win32,60,61025ae37ef11b136ea224fe,,,,,,,,,2178,44,70,1,0,0,response1disk,,7,2,-11,1,0,0,rectangle,2,-11,1,0,0,2,-11,1,0,0,1,49,209,54,1,,,,,,,,
,,,,,,,,,,,,,FF,,,,,,,,1.215,,,,,,,,,,,,,,,,,,,,,,60ff09c4112943453c5a4092,610377b281c2cd9771d04bf9,2021-07-29_22h56.33.322,Simcolourproject_2stim_asymm_v5,2020.2.10,Win32,60,61025ae37ef11b136ea224fe,,,,,,,,,2517,39,87,1,0,0,response1disk,,7,-6,0,1,0,0,rectangle,-75,-38,1,0,0,8,5,1,0,0,1,50,210,19,1,,response5disk_3,TRUE,2,2,"[92,53,111,277,257,211,159,307,204,266,41,118,51,130,204,250,212,230,175,20]",2.4305,rectangle
,,,,,,,,,,,,,FF,,,,,,,,1.0321,,,,,,,,,,,,,,,,,,,,,,60ff09c4112943453c5a4092,610377b281c2cd9771d04bf9,2021-07-29_22h56.33.322,Simcolourproject_2stim_asymm_v5,2020.2.10,Win32,60,61025ae37ef11b136ea224fe,,,,,,,,,2344,53,72,1,0,0,response1disk,,7,18,-4,1,0,0,rectangle,105,-49,1,0,0,14,9,1,0,0,1,51,211,124,1,,response3disk_3,TRUE,5,5,"[92,53,111,277,257,211,159,307,204,266,41,118,51,130,204,250,212,230,175,20]",2.5455,rectangle
,,,,,,,,,,,,,FF,,,,,,,,1.5653,,,,,,,,,,,,,,,,,,,,,,60ff09c4112943453c5a4092,610377b281c2cd9771d04bf9,2021-07-29_22h56.33.322,Simcolourproject_2stim_asymm_v5,2020.2.10,Win32,60,61025ae37ef11b136ea224fe,,,,,,,,,1465,98,-35,1,0,0,response3disk,,5,1,-1,1,0,0,rectangle,1,-1,1,0,0,1,-1,1,0,0,1,52,212,44,1,,,,,,,,
,,,,,,,,,,,,,FF,,,,,,,,1.1664,,,,,,,,,,,,,,,,,,,,,,60ff09c4112943453c5a4092,610377b281c2cd9771d04bf9,2021-07-29_22h56.33.322,Simcolourproject_2stim_asymm_v5,2020.2.10,Win32,60,61025ae37ef11b136ea224fe,,,,,,,,,2220,37,61,1,0,0,response1disk,,7,-5,-9,1,0,0,rectangle,-5,-9,1,0,0,-5,-9,1,0,0,1,53,213,35,1,,,,,,,,
,,,,,,,,,,,,,FF,,,,,,,,2.281,,,,,,,,,,,,,,,,,,,,,,60ff09c4112943453c5a4092,610377b281c2cd9771d04bf9,2021-07-29_22h56.33.322,Simcolourproject_2stim_asymm_v5,2020.2.10,Win32,60,61025ae37ef11b136ea224fe,,,,,,,,,2942,42,-84,1,0,0,response3disk,,4,-11,10,1,0,0,rectangle,-11,10,1,0,0,-11,10,1,0,0,1,54,214,13,1,,,,,,,,
,,,,,,,,,,,,,FF,,,,,,,,0.8657,,,,,,,,,,,,,,,,,,,,,,60ff09c4112943453c5a4092,610377b281c2cd9771d04bf9,2021-07-29_22h56.33.322,Simcolourproject_2stim_asymm_v5,2020.2.10,Win32,60,61025ae37ef11b136ea224fe,,,,,,,,,928,49,84,1,0,0,response1disk,,7,0,-4,1,0,0,rectangle,0,-4,1,0,0,0,-4,1,0,0,1,55,215,38,1,,,,,,,,
,,,,,,,,,,,,,FF,,,,,,,,0.8813,,,,,,,,,,,,,,,,,,,,,,60ff09c4112943453c5a4092,610377b281c2cd9771d04bf9,2021-07-29_22h56.33.322,Simcolourproject_2stim_asymm_v5,2020.2.10,Win32,60,61025ae37ef11b136ea224fe,,,,,,,,,3321,54,125,1,0,0,response1disk,,7,-2,-2,1,0,0,rectangle,-2,-2,1,0,0,-2,-2,1,0,0,1,56,216,92,1,,,,,,,,
,,,,,,,,,,,,,FF,,,,,,,,0.9161,,,,,,,,,,,,,,,,,,,,,,60ff09c4112943453c5a4092,610377b281c2cd9771d04bf9,2021-07-29_22h56.33.322,Simcolourproject_2stim_asymm_v5,2020.2.10,Win32,60,61025ae37ef11b136ea224fe,,,,,,,,,4302,30,70,1,0,0,response1disk,,7,2,5,1,0,0,rectangle,2,5,1,0,0,2,5,1,0,0,1,57,217,103,1,,,,,,,,
,,,,,,,,,,,,,FF,,,,,,,,1.7816,,,,,,,,,,,,,,,,,,,,,,60ff09c4112943453c5a4092,610377b281c2cd9771d04bf9,2021-07-29_22h56.33.322,Simcolourproject_2stim_asymm_v5,2020.2.10,Win32,60,61025ae37ef11b136ea224fe,,,,,,,,,806,47,-101,1,0,0,response3disk,,4,-5,3,1,0,0,rectangle,-5,3,1,0,0,-5,3,1,0,0,1,58,218,100,1,,,,,,,,
,,,,,,,,,,,,,FF,,,,,,,,0.8323,,,,,,,,,,,,,,,,,,,,,,60ff09c4112943453c5a4092,610377b281c2cd9771d04bf9,2021-07-29_22h56.33.322,Simcolourproject_2stim_asymm_v5,2020.2.10,Win32,60,61025ae37ef11b136ea224fe,,,,,,,,,4311,38,76,1,0,0,response1disk,,7,12,4,1,0,0,rectangle,12,4,1,0,0,12,4,1,0,0,1,59,219,45,1,,,,,,,,
,,,,,,,,,,,,,FF,,,,,,,,1.8647,,,,,,,,,,,,,,,,,,,,,,60ff09c4112943453c5a4092,610377b281c2cd9771d04bf9,2021-07-29_22h56.33.322,Simcolourproject_2stim_asymm_v5,2020.2.10,Win32,60,61025ae37ef11b136ea224fe,,,,,,,,,3197,-42,-88,1,0,0,response5disk,,3,-7,-4,1,0,0,rectangle,-7,-4,1,0,0,-7,-4,1,0,0,1,60,220,47,1,,,,,,,,
,,,,,,,,,,,,,FF,,,,,,,,1.3487,,,,,,,,,,,,,,,,,,,,,,60ff09c4112943453c5a4092,610377b281c2cd9771d04bf9,2021-07-29_22h56.33.322,Simcolourproject_2stim_asymm_v5,2020.2.10,Win32,60,61025ae37ef11b136ea224fe,,,,,,,,,580,27,73,1,0,0,response1disk,,7,-6,-6,1,0,0,rectangle,-6,-6,1,0,0,-6,-6,1,0,0,1,61,221,116,1,,,,,,,,
,,,,,,,,,,,,,FF,,,,,,,,0.9652,,,,,,,,,,,,,,,,,,,,,,60ff09c4112943453c5a4092,610377b281c2cd9771d04bf9,2021-07-29_22h56.33.322,Simcolourproject_2stim_asymm_v5,2020.2.10,Win32,60,61025ae37ef11b136ea224fe,,,,,,,,,1165,22,66,1,0,0,response1disk,,7,-3,10,1,0,0,rectangle,-3,10,1,0,0,-3,10,1,0,0,1,62,222,153,1,,,,,,,,
,,,,,,,,,,,,,FF,,,,,,,,0.8995,,,,,,,,,,,,,,,,,,,,,,60ff09c4112943453c5a4092,610377b281c2cd9771d04bf9,2021-07-29_22h56.33.322,Simcolourproject_2stim_asymm_v5,2020.2.10,Win32,60,61025ae37ef11b136ea224fe,,,,,,,,,4069,51,73,1,0,0,response1disk,,7,6,12,1,0,0,rectangle,6,12,1,0,0,6,12,1,0,0,1,63,223,143,1,,,,,,,,
,,,,,,,,,,,,,FF,,,,,,,,0.6999,,,,,,,,,,,,,,,,,,,,,,60ff09c4112943453c5a4092,610377b281c2cd9771d04bf9,2021-07-29_22h56.33.322,Simcolourproject_2stim_asymm_v5,2020.2.10,Win32,60,61025ae37ef11b136ea224fe,,,,,,,,,1339,36,84,1,0,0,response1disk,,7,6,15,1,0,0,rectangle,6,15,1,0,0,6,15,1,0,0,1,64,224,146,1,,,,,,,,
,,,,,,,,,,,,,FF,,,,,,,,0.7029,,,,,,,,,,,,,,,,,,,,,,60ff09c4112943453c5a4092,610377b281c2cd9771d04bf9,2021-07-29_22h56.33.322,Simcolourproject_2stim_asymm_v5,2020.2.10,Win32,60,61025ae37ef11b136ea224fe,,,,,,,,,1591,26,78,1,0,0,response1disk,,7,-2,4,1,0,0,rectangle,-2,4,1,0,0,-2,4,1,0,0,1,65,225,66,1,,,,,,,,
,,,,,,,,,,,,,FF,,,,,,,,1.0489,,,,,,,,,,,,,,,,,,,,,,60ff09c4112943453c5a4092,610377b281c2cd9771d04bf9,2021-07-29_22h56.33.322,Simcolourproject_2stim_asymm_v5,2020.2.10,Win32,60,61025ae37ef11b136ea224fe,,,,,,,,,3936,-46,96,1,0,0,response7disk,,0,-8,8,1,0,0,rectangle,-8,8,1,0,0,-8,8,1,0,0,1,66,226,65,1,,,,,,,,
,,,,,,,,,,,,,FF,,,,,,,,1.1158,,,,,,,,,,,,,,,,,,,,,,60ff09c4112943453c5a4092,610377b281c2cd9771d04bf9,2021-07-29_22h56.33.322,Simcolourproject_2stim_asymm_v5,2020.2.10,Win32,60,61025ae37ef11b136ea224fe,,,,,,,,,626,33,95,1,0,0,response1disk,,7,13,-1,1,0,0,rectangle,13,-1,1,0,0,13,-1,1,0,0,1,67,227,138,1,,,,,,,,
,,,,,,,,,,,,,FF,,,,,,,,0.9659,,,,,,,,,,,,,,,,,,,,,,60ff09c4112943453c5a4092,610377b281c2cd9771d04bf9,2021-07-29_22h56.33.322,Simcolourproject_2stim_asymm_v5,2020.2.10,Win32,60,61025ae37ef11b136ea224fe,,,,,,,,,2823,68,82,1,0,0,response1disk,,7,1,-1,1,0,0,rectangle,1,-1,1,0,0,1,-1,1,0,0,1,68,228,115,1,,,,,,,,
,,,,,,,,,,,,,FF,,,,,,,,1.0156,,,,,,,,,,,,,,,,,,,,,,60ff09c4112943453c5a4092,610377b281c2cd9771d04bf9,2021-07-29_22h56.33.322,Simcolourproject_2stim_asymm_v5,2020.2.10,Win32,60,61025ae37ef11b136ea224fe,,,,,,,,,2003,28,59,1,0,0,response1disk,,7,12,0,1,0,0,rectangle,-69,-30,1,0,0,-7,-4,1,0,0,1,69,229,142,1,,response5disk_3,TRUE,2,2,"[92,53,111,277,257,211,159,307,204,266,41,118,51,130,204,250,212,230,175,20]",1.9812,rectangle
,,,,,,,,,,,,,FF,,,,,,,,1.3655,,,,,,,,,,,,,,,,,,,,,,60ff09c4112943453c5a4092,610377b281c2cd9771d04bf9,2021-07-29_22h56.33.322,Simcolourproject_2stim_asymm_v5,2020.2.10,Win32,60,61025ae37ef11b136ea224fe,,,,,,,,,1748,-51,-80,1,0,0,response5disk,,3,-12,-2,1,0,0,rectangle,-12,-2,1,0,0,-12,-2,1,0,0,1,70,230,39,1,,,,,,,,
,,,,,,,,,,,,,FF,,,,,,,,0.8159,,,,,,,,,,,,,,,,,,,,,,60ff09c4112943453c5a4092,610377b281c2cd9771d04bf9,2021-07-29_22h56.33.322,Simcolourproject_2stim_asymm_v5,2020.2.10,Win32,60,61025ae37ef11b136ea224fe,,,,,,,,,1682,-36,-79,1,0,0,response5disk,,3,-7,-11,1,0,0,rectangle,-7,-11,1,0,0,-7,-11,1,0,0,1,71,231,127,1,,,,,,,,
,,,,,,,,,,,,,FF,,,,,,,,0.799,,,,,,,,,,,,,,,,,,,,,,60ff09c4112943453c5a4092,610377b281c2cd9771d04bf9,2021-07-29_22h56.33.322,Simcolourproject_2stim_asymm_v5,2020.2.10,Win32,60,61025ae37ef11b136ea224fe,,,,,,,,,2104,-38,-73,1,0,0,response5disk,,3,-27,-1,1,0,0,rectangle,-27,-1,1,0,0,-27,-1,1,0,0,1,72,232,118,1,,,,,,,,
,,,,,,,,,,,,,FF,,,,,,,,0.8915,,,,,,,,,,,,,,,,,,,,,,60ff09c4112943453c5a4092,610377b281c2cd9771d04bf9,2021-07-29_22h56.33.322,Simcolourproject_2stim_asymm_v5,2020.2.10,Win32,60,61025ae37ef11b136ea224fe,,,,,,,,,1695,49,108,1,0,0,response1disk,,7,15,2,1,0,0,rectangle,15,2,1,0,0,15,2,1,0,0,1,73,233,99,1,,,,,,,,
,,,,,,,,,,,,,FF,,,,,,,,1.5474,,,,,,,,,,,,,,,,,,,,,,60ff09c4112943453c5a4092,610377b281c2cd9771d04bf9,2021-07-29_22h56.33.322,Simcolourproject_2stim_asymm_v5,2020.2.10,Win32,60,61025ae37ef11b136ea224fe,,,,,,,,,4366,-42,61,1,0,0,response7disk,,0,-23,-11,1,0,0,rectangle,-23,-11,1,0,0,-23,-11,1,0,0,1,74,234,159,1,,,,,,,,
,,,,,,,,,,,,,FF,,,,,,,,1.6147,,,,,,,,,,,,,,,,,,,,,,60ff09c4112943453c5a4092,610377b281c2cd9771d04bf9,2021-07-29_22h56.33.322,Simcolourproject_2stim_asymm_v5,2020.2.10,Win32,60,61025ae37ef11b136ea224fe,,,,,,,,,1152,74,-31,1,0,0,response3disk,,5,-4,2,1,0,0,rectangle,-4,2,1,0,0,-4,2,1,0,0,1,75,235,34,1,,,,,,,,
,,,,,,,,,,,,,FF,,,,,,,,1.2154,,,,,,,,,,,,,,,,,,,,,,60ff09c4112943453c5a4092,610377b281c2cd9771d04bf9,2021-07-29_22h56.33.322,Simcolourproject_2stim_asymm_v5,2020.2.10,Win32,60,61025ae37ef11b136ea224fe,,,,,,,,,2123,32,90,1,0,0,response1disk,,7,0,2,1,0,0,rectangle,0,2,1,0,0,0,2,1,0,0,1,76,236,51,1,,,,,,,,
,,,,,,,,,,,,,FF,,,,,,,,1.2657,,,,,,,,,,,,,,,,,,,,,,60ff09c4112943453c5a4092,610377b281c2cd9771d04bf9,2021-07-29_22h56.33.322,Simcolourproject_2stim_asymm_v5,2020.2.10,Win32,60,61025ae37ef11b136ea224fe,,,,,,,,,3103,83,-37,1,0,0,response3disk,,5,-1,0,1,0,0,rectangle,-1,0,1,0,0,-1,0,1,0,0,1,77,237,132,1,,,,,,,,
,,,,,,,,,,,,,FF,,,,,,,,3.3294,,,,,,,,,,,,,,,,,,,,,,60ff09c4112943453c5a4092,610377b281c2cd9771d04bf9,2021-07-29_22h56.33.322,Simcolourproject_2stim_asymm_v5,2020.2.10,Win32,60,61025ae37ef11b136ea224fe,,,,,,,,,1820,114,-60,1,0,0,response3disk,,5,-8,-2,1,0,0,rectangle,-8,-2,1,0,0,-8,-2,1,0,0,1,78,238,57,1,,,,,,,,
,,,,,,,,,,,,,FF,,,,,,,,1.0145,,,,,,,,,,,,,,,,,,,,,,60ff09c4112943453c5a4092,610377b281c2cd9771d04bf9,2021-07-29_22h56.33.322,Simcolourproject_2stim_asymm_v5,2020.2.10,Win32,60,61025ae37ef11b136ea224fe,,,,,,,,,763,26,107,1,0,0,response1disk,,7,-2,13,1,0,0,rectangle,-2,13,1,0,0,-2,13,1,0,0,1,79,239,91,1,,,,,,,,
,,,,,,,,,,,,,FF,,,,,,,,0.9994,,,,,,,,,,,,,,,,,,,,,,60ff09c4112943453c5a4092,610377b281c2cd9771d04bf9,2021-07-29_22h56.33.322,Simcolourproject_2stim_asymm_v5,2020.2.10,Win32,60,61025ae37ef11b136ea224fe,,,,,,,,,1830,91,-60,1,0,0,response3disk,,5,8,-1,1,0,0,rectangle,8,-1,1,0,0,8,-1,1,0,0,1,80,240,137,1,,,,,,,,
,,,,,,,,,,,,,FF,,,,,,,,2.6974,,,,,,,,,,,,,,,,,,,,,,60ff09c4112943453c5a4092,610377b281c2cd9771d04bf9,2021-07-29_22h56.33.322,Simcolourproject_2stim_asymm_v5,2020.2.10,Win32,60,61025ae37ef11b136ea224fe,,,,,,,,,258,109,-46,1,0,0,response3disk,,5,15,-9,1,0,0,rectangle,15,-9,1,0,0,15,-9,1,0,0,1,81,241,27,1,,,,,,,,
,,,,,,,,,,,,,FF,,,,,,,,0.9823,,,,,,,,,,,,,,,,,,,,,,60ff09c4112943453c5a4092,610377b281c2cd9771d04bf9,2021-07-29_22h56.33.322,Simcolourproject_2stim_asymm_v5,2020.2.10,Win32,60,61025ae37ef11b136ea224fe,,,,,,,,,393,49,106,1,0,0,response1disk,,7,-13,-10,1,0,0,rectangle,-13,-10,1,0,0,-13,-10,1,0,0,1,82,242,135,1,,,,,,,,
,,,,,,,,,,,,,FF,,,,,,,,1.0326,,,,,,,,,,,,,,,,,,,,,,60ff09c4112943453c5a4092,610377b281c2cd9771d04bf9,2021-07-29_22h56.33.322,Simcolourproject_2stim_asymm_v5,2020.2.10,Win32,60,61025ae37ef11b136ea224fe,,,,,,,,,2377,43,93,1,0,0,response1disk,,7,-16,5,1,0,0,rectangle,-16,5,1,0,0,-16,5,1,0,0,1,83,243,121,1,,,,,,,,
,,,,,,,,,,,,,FF,,,,,,,,1.3148,,,,,,,,,,,,,,,,,,,,,,60ff09c4112943453c5a4092,610377b281c2cd9771d04bf9,2021-07-29_22h56.33.322,Simcolourproject_2stim_asymm_v5,2020.2.10,Win32,60,61025ae37ef11b136ea224fe,,,,,,,,,2305,44,97,1,0,0,response1disk,,7,-3,1,1,0,0,rectangle,-3,1,1,0,0,-3,1,1,0,0,1,84,244,41,1,,,,,,,,
,,,,,,,,,,,,,FF,,,,,,,,0.9323,,,,,,,,,,,,,,,,,,,,,,60ff09c4112943453c5a4092,610377b281c2cd9771d04bf9,2021-07-29_22h56.33.322,Simcolourproject_2stim_asymm_v5,2020.2.10,Win32,60,61025ae37ef11b136ea224fe,,,,,,,,,2092,27,50,1,0,0,response1disk,,7,2,-7,1,0,0,rectangle,2,-7,1,0,0,2,-7,1,0,0,1,85,245,42,1,,,,,,,,
,,,,,,,,,,,,,FF,,,,,,,,1.1825,,,,,,,,,,,,,,,,,,,,,,60ff09c4112943453c5a4092,610377b281c2cd9771d04bf9,2021-07-29_22h56.33.322,Simcolourproject_2stim_asymm_v5,2020.2.10,Win32,60,61025ae37ef11b136ea224fe,,,,,,,,,3200,44,53,1,0,0,response1disk,,7,6,-4,1,0,0,rectangle,6,-4,1,0,0,6,-4,1,0,0,1,86,246,52,1,,,,,,,,
,,,,,,,,,,,,,FF,,,,,,,,0.9664,,,,,,,,,,,,,,,,,,,,,,60ff09c4112943453c5a4092,610377b281c2cd9771d04bf9,2021-07-29_22h56.33.322,Simcolourproject_2stim_asymm_v5,2020.2.10,Win32,60,61025ae37ef11b136ea224fe,,,,,,,,,1034,90,22,1,0,0,response1disk,,6,24,-1,1,0,0,rectangle,24,-1,1,0,0,24,-1,1,0,0,1,87,247,70,1,,,,,,,,
,,,,,,,,,,,,,FF,,,,,,,,1.9148,,,,,,,,,,,,,,,,,,,,,,60ff09c4112943453c5a4092,610377b281c2cd9771d04bf9,2021-07-29_22h56.33.322,Simcolourproject_2stim_asymm_v5,2020.2.10,Win32,60,61025ae37ef11b136ea224fe,,,,,,,,,1977,66,77,1,0,0,response1disk,,7,9,-2,1,0,0,rectangle,9,-2,1,0,0,9,-2,1,0,0,1,88,248,75,1,,,,,,,,
,,,,,,,,,,,,,FF,,,,,,,,1.4156,,,,,,,,,,,,,,,,,,,,,,60ff09c4112943453c5a4092,610377b281c2cd9771d04bf9,2021-07-29_22h56.33.322,Simcolourproject_2stim_asymm_v5,2020.2.10,Win32,60,61025ae37ef11b136ea224fe,,,,,,,,,1943,26,84,1,0,0,response1disk,,7,-7,7,1,0,0,rectangle,119,27,1,0,0,20,11,1,0,0,1,89,249,87,1,,response1disk_3,TRUE,6,6,"[92,53,111,277,257,211,159,307,204,266,41,118,51,130,204,250,212,230,175,20]",1.8648,rectangle
,,,,,,,,,,,,,FF,,,,,,,,3.2462,,,,,,,,,,,,,,,,,,,,,,60ff09c4112943453c5a4092,610377b281c2cd9771d04bf9,2021-07-29_22h56.33.322,Simcolourproject_2stim_asymm_v5,2020.2.10,Win32,60,61025ae37ef11b136ea224fe,,,,,,,,,1688,91,49,1,0,0,response1disk,,6,-19,-10,1,0,0,rectangle,-19,-10,1,0,0,-19,-10,1,0,0,1,90,250,43,1,,,,,,,,
,,,,,,,,,,,,,FF,,,,,,,,1.1824,,,,,,,,,,,,,,,,,,,,,,60ff09c4112943453c5a4092,610377b281c2cd9771d04bf9,2021-07-29_22h56.33.322,Simcolourproject_2stim_asymm_v5,2020.2.10,Win32,60,61025ae37ef11b136ea224fe,,,,,,,,,2777,-36,-55,1,0,0,response5disk,,3,-1,-10,1,0,0,rectangle,-1,-10,1,0,0,-1,-10,1,0,0,1,91,251,56,1,,,,,,,,
,,,,,,,,,,,,,FF,,,,,,,,1.2325,,,,,,,,,,,,,,,,,,,,,,60ff09c4112943453c5a4092,610377b281c2cd9771d04bf9,2021-07-29_22h56.33.322,Simcolourproject_2stim_asymm_v5,2020.2.10,Win32,60,61025ae37ef11b136ea224fe,,,,,,,,,6,52,-90,1,0,0,response3disk,,4,-2,-12,1,0,0,rectangle,-2,-12,1,0,0,-2,-12,1,0,0,1,92,252,74,1,,,,,,,,
,,,,,,,,,,,,,FF,,,,,,,,1.0326,,,,,,,,,,,,,,,,,,,,,,60ff09c4112943453c5a4092,610377b281c2cd9771d04bf9,2021-07-29_22h56.33.322,Simcolourproject_2stim_asymm_v5,2020.2.10,Win32,60,61025ae37ef11b136ea224fe,,,,,,,,,81,56,-84,1,0,0,response3disk,,4,10,-5,1,0,0,rectangle,10,-5,1,0,0,10,-5,1,0,0,1,93,253,22,1,,,,,,,,
,,,,,,,,,,,,,FF,,,,,,,,1.0155,,,,,,,,,,,,,,,,,,,,,,60ff09c4112943453c5a4092,610377b281c2cd9771d04bf9,2021-07-29_22h56.33.322,Simcolourproject_2stim_asymm_v5,2020.2.10,Win32,60,61025ae37ef11b136ea224fe,,,,,,,,,2754,45,68,1,0,0,response1disk,,7,-9,15,1,0,0,rectangle,-9,15,1,0,0,-9,15,1,0,0,1,94,254,37,1,,,,,,,,
,,,,,,,,,,,,,FF,,,,,,,,0.8661,,,,,,,,,,,,,,,,,,,,,,60ff09c4112943453c5a4092,610377b281c2cd9771d04bf9,2021-07-29_22h56.33.322,Simcolourproject_2stim_asymm_v5,2020.2.10,Win32,60,61025ae37ef11b136ea224fe,,,,,,,,,964,23,60,1,0,0,response1disk,,7,-34,-10,1,0,0,rectangle,-34,-10,1,0,0,-34,-10,1,0,0,1,95,255,18,1,,,,,,,,
,,,,,,,,,,,,,FF,,,,,,,,1.099,,,,,,,,,,,,,,,,,,,,,,60ff09c4112943453c5a4092,610377b281c2cd9771d04bf9,2021-07-29_22h56.33.322,Simcolourproject_2stim_asymm_v5,2020.2.10,Win32,60,61025ae37ef11b136ea224fe,,,,,,,,,1854,20,57,1,0,0,response1disk,,7,-14,10,1,0,0,rectangle,90,-62,1,0,0,12,-8,1,0,0,1,96,256,114,1,,response3disk_3,TRUE,5,5,"[92,53,111,277,257,211,159,307,204,266,41,118,51,130,204,250,212,230,175,20]",1.6813,rectangle
,,,,,,,,,,,,,FF,,,,,,,,1.7816,,,,,,,,,,,,,,,,,,,,,,60ff09c4112943453c5a4092,610377b281c2cd9771d04bf9,2021-07-29_22h56.33.322,Simcolourproject_2stim_asymm_v5,2020.2.10,Win32,60,61025ae37ef11b136ea224fe,,,,,,,,,2550,97,-61,1,0,0,response3disk,,5,11,-6,1,0,0,rectangle,11,-6,1,0,0,11,-6,1,0,0,1,97,257,48,1,,,,,,,,
,,,,,,,,,,,,,FF,,,,,,,,1.0496,,,,,,,,,,,,,,,,,,,,,,60ff09c4112943453c5a4092,610377b281c2cd9771d04bf9,2021-07-29_22h56.33.322,Simcolourproject_2stim_asymm_v5,2020.2.10,Win32,60,61025ae37ef11b136ea224fe,,,,,,,,,3165,48,71,1,0,0,response1disk,,7,-5,12,1,0,0,rectangle,-5,12,1,0,0,-5,12,1,0,0,1,98,258,11,1,,,,,,,,
,,,,,,,,,,,,,FF,,,,,,,,1.1985,,,,,,,,,,,,,,,,,,,,,,60ff09c4112943453c5a4092,610377b281c2cd9771d04bf9,2021-07-29_22h56.33.322,Simcolourproject_2stim_asymm_v5,2020.2.10,Win32,60,61025ae37ef11b136ea224fe,,,,,,,,,1433,80,42,1,0,0,response1disk,,6,7,-2,1,0,0,rectangle,7,-2,1,0,0,7,-2,1,0,0,1,99,259,49,1,,,,,,,,
,,,,,,,,,,,,,FF,,,,,,,,0.9322,,,,,,,,,,,,,,,,,,,,,,60ff09c4112943453c5a4092,610377b281c2cd9771d04bf9,2021-07-29_22h56.33.322,Simcolourproject_2stim_asymm_v5,2020.2.10,Win32,60,61025ae37ef11b136ea224fe,,,,,,,,,237,52,74,1,0,0,response1disk,,7,-10,11,1,0,0,rectangle,-10,11,1,0,0,-10,11,1,0,0,1,100,260,94,1,,,,,,,,
,,,,,,,,,,,,,FF,,,,,,,,0.8154,,,,,,,,,,,,,,,,,,,,,,60ff09c4112943453c5a4092,610377b281c2cd9771d04bf9,2021-07-29_22h56.33.322,Simcolourproject_2stim_asymm_v5,2020.2.10,Win32,60,61025ae37ef11b136ea224fe,,,,,,,,,1871,53,85,1,0,0,response1disk,,7,0,11,1,0,0,rectangle,0,11,1,0,0,0,11,1,0,0,1,101,261,148,1,,,,,,,,
,,,,,,,,,,,,,FF,,,,,,,,1.4486,,,,,,,,,,,,,,,,,,,,,,60ff09c4112943453c5a4092,610377b281c2cd9771d04bf9,2021-07-29_22h56.33.322,Simcolourproject_2stim_asymm_v5,2020.2.10,Win32,60,61025ae37ef11b136ea224fe,,,,,,,,,951,61,47,1,0,0,response1disk,,6,-12,-9,1,0,0,rectangle,-12,-9,1,0,0,-12,-9,1,0,0,1,102,262,150,1,,,,,,,,
,,,,,,,,,,,,,FF,,,,,,,,0.8493,,,,,,,,,,,,,,,,,,,,,,60ff09c4112943453c5a4092,610377b281c2cd9771d04bf9,2021-07-29_22h56.33.322,Simcolourproject_2stim_asymm_v5,2020.2.10,Win32,60,61025ae37ef11b136ea224fe,,,,,,,,,3899,37,47,1,0,0,response1disk,,7,-10,-14,1,0,0,rectangle,-10,-14,1,0,0,-10,-14,1,0,0,1,103,263,152,1,,,,,,,,
,,,,,,,,,,,,,FF,,,,,,,,0.8327,,,,,,,,,,,,,,,,,,,,,,60ff09c4112943453c5a4092,610377b281c2cd9771d04bf9,2021-07-29_22h56.33.322,Simcolourproject_2stim_asymm_v5,2020.2.10,Win32,60,61025ae37ef11b136ea224fe,,,,,,,,,515,39,70,1,0,0,response1disk,,7,-5,13,1,0,0,rectangle,-5,13,1,0,0,-5,13,1,0,0,1,104,264,134,1,,,,,,,,
,,,,,,,,,,,,,FF,,,,,,,,0.8994,,,,,,,,,,,,,,,,,,,,,,60ff09c4112943453c5a4092,610377b281c2cd9771d04bf9,2021-07-29_22h56.33.322,Simcolourproject_2stim_asymm_v5,2020.2.10,Win32,60,61025ae37ef11b136ea224fe,,,,,,,,,54,44,70,1,0,0,response1disk,,7,16,10,1,0,0,rectangle,-32,-81,1,0,0,13,11,1,0,0,1,105,265,14,1,,response5disk_3,TRUE,3,3,"[92,53,111,277,257,211,159,307,204,266,41,118,51,130,204,250,212,230,175,20]",2.4472,rectangle
,,,,,,,,,,,,,FF,,,,,,,,1.1821,,,,,,,,,,,,,,,,,,,,,,60ff09c4112943453c5a4092,610377b281c2cd9771d04bf9,2021-07-29_22h56.33.322,Simcolourproject_2stim_asymm_v5,2020.2.10,Win32,60,61025ae37ef11b136ea224fe,,,,,,,,,177,48,69,1,0,0,response1disk,,7,1,12,1,0,0,rectangle,1,12,1,0,0,1,12,1,0,0,1,106,266,53,1,,,,,,,,
,,,,,,,,,,,,,FF,,,,,,,,4.7118,,,,,,,,,,,,,,,,,,,,,,60ff09c4112943453c5a4092,610377b281c2cd9771d04bf9,2021-07-29_22h56.33.322,Simcolourproject_2stim_asymm_v5,2020.2.10,Win32,60,61025ae37ef11b136ea224fe,,,,,,,,,1658,42,101,1,0,0,response1disk,,7,-14,-15,1,0,0,rectangle,-14,-15,1,0,0,-14,-15,1,0,0,1,107,267,151,1,,,,,,,,
,,,,,,,,,,,,,FF,,,,,,,,1.3552,,,,,,,,,,,,,,,,,,,,,,60ff09c4112943453c5a4092,610377b281c2cd9771d04bf9,2021-07-29_22h56.33.322,Simcolourproject_2stim_asymm_v5,2020.2.10,Win32,60,61025ae37ef11b136ea224fe,,,,,,,,,68,42,119,1,0,0,response1disk,,7,-6,13,1,0,0,rectangle,-6,13,1,0,0,-6,13,1,0,0,1,108,268,79,1,,,,,,,,
,,,,,,,,,,,,,FF,,,,,,,,0.9657,,,,,,,,,,,,,,,,,,,,,,60ff09c4112943453c5a4092,610377b281c2cd9771d04bf9,2021-07-29_22h56.33.322,Simcolourproject_2stim_asymm_v5,2020.2.10,Win32,60,61025ae37ef11b136ea224fe,,,,,,,,,2518,34,86,1,0,0,response1disk,,7,1,8,1,0,0,rectangle,1,8,1,0,0,1,8,1,0,0,1,109,269,102,1,,,,,,,,
,,,,,,,,,,,,,FF,,,,,,,,1.7481,,,,,,,,,,,,,,,,,,,,,,60ff09c4112943453c5a4092,610377b281c2cd9771d04bf9,2021-07-29_22h56.33.322,Simcolourproject_2stim_asymm_v5,2020.2.10,Win32,60,61025ae37ef11b136ea224fe,,,,,,,,,3598,-84,43,1,0,0,response7disk,,1,13,-4,1,0,0,rectangle,13,-4,1,0,0,13,-4,1,0,0,1,110,270,157,1,,,,,,,,
,,,,,,,,,,,,,FF,,,,,,,,0.8324,,,,,,,,,,,,,,,,,,,,,,60ff09c4112943453c5a4092,610377b281c2cd9771d04bf9,2021-07-29_22h56.33.322,Simcolourproject_2stim_asymm_v5,2020.2.10,Win32,60,61025ae37ef11b136ea224fe,,,,,,,,,530,-70,43,1,0,0,response7disk,,1,13,10,1,0,0,rectangle,13,10,1,0,0,13,10,1,0,0,1,111,271,145,1,,,,,,,,
,,,,,,,,,,,,,FF,,,,,,,,0.7661,,,,,,,,,,,,,,,,,,,,,,60ff09c4112943453c5a4092,610377b281c2cd9771d04bf9,2021-07-29_22h56.33.322,Simcolourproject_2stim_asymm_v5,2020.2.10,Win32,60,61025ae37ef11b136ea224fe,,,,,,,,,3298,-69,50,1,0,0,response7disk,,1,4,-6,1,0,0,rectangle,4,-6,1,0,0,4,-6,1,0,0,1,112,272,16,1,,,,,,,,
,,,,,,,,,,,,,FF,,,,,,,,0.8491,,,,,,,,,,,,,,,,,,,,,,60ff09c4112943453c5a4092,610377b281c2cd9771d04bf9,2021-07-29_22h56.33.322,Simcolourproject_2stim_asymm_v5,2020.2.10,Win32,60,61025ae37ef11b136ea224fe,,,,,,,,,2661,-71,48,1,0,0,response7disk,,1,4,-4,1,0,0,rectangle,4,-4,1,0,0,4,-4,1,0,0,1,113,273,69,1,,,,,,,,
,,,,,,,,,,,,,FF,,,,,,,,2.1644,,,,,,,,,,,,,,,,,,,,,,60ff09c4112943453c5a4092,610377b281c2cd9771d04bf9,2021-07-29_22h56.33.322,Simcolourproject_2stim_asymm_v5,2020.2.10,Win32,60,61025ae37ef11b136ea224fe,,,,,,,,,3156,-70,-38,1,0,0,response5disk,,2,-5,-7,1,0,0,rectangle,-5,-7,1,0,0,-5,-7,1,0,0,1,114,274,136,1,,,,,,,,
,,,,,,,,,,,,,FF,,,,,,,,1.1154,,,,,,,,,,,,,,,,,,,,,,60ff09c4112943453c5a4092,610377b281c2cd9771d04bf9,2021-07-29_22h56.33.322,Simcolourproject_2stim_asymm_v5,2020.2.10,Win32,60,61025ae37ef11b136ea224fe,,,,,,,,,2660,-22,64,1,0,0,response7disk,,0,-8,12,1,0,0,rectangle,-8,12,1,0,0,-8,12,1,0,0,1,115,275,40,1,,,,,,,,
,,,,,,,,,,,,,FF,,,,,,,,1.6817,,,,,,,,,,,,,,,,,,,,,,60ff09c4112943453c5a4092,610377b281c2cd9771d04bf9,2021-07-29_22h56.33.322,Simcolourproject_2stim_asymm_v5,2020.2.10,Win32,60,61025ae37ef11b136ea224fe,,,,,,,,,3790,88,26,1,0,0,response1disk,,6,16,-9,1,0,0,rectangle,101,-73,1,0,0,24,-5,1,0,0,1,116,276,88,1,,response3disk_3,TRUE,5,5,"[92,53,111,277,257,211,159,307,204,266,41,118,51,130,204,250,212,230,175,20]",2.2478,rectangle
,,,,,,,,,,,,,FF,,,,,,,,1.1493,,,,,,,,,,,,,,,,,,,,,,60ff09c4112943453c5a4092,610377b281c2cd9771d04bf9,2021-07-29_22h56.33.322,Simcolourproject_2stim_asymm_v5,2020.2.10,Win32,60,61025ae37ef11b136ea224fe,,,,,,,,,3409,93,49,1,0,0,response1disk,,6,3,-2,1,0,0,rectangle,3,-2,1,0,0,3,-2,1,0,0,1,117,277,7,1,,,,,,,,
,,,,,,,,,,,,,FF,,,,,,,,0.9655,,,,,,,,,,,,,,,,,,,,,,60ff09c4112943453c5a4092,610377b281c2cd9771d04bf9,2021-07-29_22h56.33.322,Simcolourproject_2stim_asymm_v5,2020.2.10,Win32,60,61025ae37ef11b136ea224fe,,,,,,,,,1065,101,-63,1,0,0,response3disk,,5,22,-13,1,0,0,rectangle,22,-13,1,0,0,22,-13,1,0,0,1,118,278,12,1,,,,,,,,
,,,,,,,,,,,,,FF,,,,,,,,0.9658,,,,,,,,,,,,,,,,,,,,,,60ff09c4112943453c5a4092,610377b281c2cd9771d04bf9,2021-07-29_22h56.33.322,Simcolourproject_2stim_asymm_v5,2020.2.10,Win32,60,61025ae37ef11b136ea224fe,,,,,,,,,4367,-66,53,1,0,0,response7disk,,1,0,-7,1,0,0,rectangle,0,-7,1,0,0,0,-7,1,0,0,1,119,279,2,1,,,,,,,,
,,,,,,,,,,,,,FF,,,,,,,,1.4651,,,,,,,,,,,,,,,,,,,,,,60ff09c4112943453c5a4092,610377b281c2cd9771d04bf9,2021-07-29_22h56.33.322,Simcolourproject_2stim_asymm_v5,2020.2.10,Win32,60,61025ae37ef11b136ea224fe,,,,,,,,,1289,81,55,1,0,0,response1disk,,6,12,-5,1,0,0,rectangle,12,-5,1,0,0,12,-5,1,0,0,1,120,280,125,1,,,,,,,,
,,,,,,,,,,,,,FF,,,,,,,,0.8659,,,,,,,,,,,,,,,,,,,,,,60ff09c4112943453c5a4092,610377b281c2cd9771d04bf9,2021-07-29_22h56.33.322,Simcolourproject_2stim_asymm_v5,2020.2.10,Win32,60,61025ae37ef11b136ea224fe,,,,,,,,,2150,25,88,1,0,0,response1disk,,7,-18,12,1,0,0,rectangle,-18,12,1,0,0,-18,12,1,0,0,1,121,281,26,1,,,,,,,,
,,,,,,,,,,,,,FF,,,,,,,,0.9168,,,,,,,,,,,,,,,,,,,,,,60ff09c4112943453c5a4092,610377b281c2cd9771d04bf9,2021-07-29_22h56.33.322,Simcolourproject_2stim_asymm_v5,2020.2.10,Win32,60,61025ae37ef11b136ea224fe,,,,,,,,,3911,50,69,1,0,0,response1disk,,7,11,5,1,0,0,rectangle,11,5,1,0,0,11,5,1,0,0,1,122,282,131,1,,,,,,,,
,,,,,,,,,,,,,FF,,,,,,,,0.9659,,,,,,,,,,,,,,,,,,,,,,60ff09c4112943453c5a4092,610377b281c2cd9771d04bf9,2021-07-29_22h56.33.322,Simcolourproject_2stim_asymm_v5,2020.2.10,Win32,60,61025ae37ef11b136ea224fe,,,,,,,,,2271,44,53,1,0,0,response1disk,,7,8,-7,1,0,0,rectangle,8,-7,1,0,0,8,-7,1,0,0,1,123,283,111,1,,,,,,,,
,,,,,,,,,,,,,FF,,,,,,,,1.2655,,,,,,,,,,,,,,,,,,,,,,60ff09c4112943453c5a4092,610377b281c2cd9771d04bf9,2021-07-29_22h56.33.322,Simcolourproject_2stim_asymm_v5,2020.2.10,Win32,60,61025ae37ef11b136ea224fe,,,,,,,,,3349,71,41,1,0,0,response1disk,,6,8,-1,1,0,0,rectangle,8,-1,1,0,0,8,-1,1,0,0,1,124,284,68,1,,,,,,,,
,,,,,,,,,,,,,FF,,,,,,,,0.9994,,,,,,,,,,,,,,,,,,,,,,60ff09c4112943453c5a4092,610377b281c2cd9771d04bf9,2021-07-29_22h56.33.322,Simcolourproject_2stim_asymm_v5,2020.2.10,Win32,60,61025ae37ef11b136ea224fe,,,,,,,,,4289,58,70,1,0,0,response1disk,,7,10,12,1,0,0,rectangle,10,12,1,0,0,10,12,1,0,0,1,125,285,63,1,,,,,,,,
,,,,,,,,,,,,,FF,,,,,,,,0.9491,,,,,,,,,,,,,,,,,,,,,,60ff09c4112943453c5a4092,610377b281c2cd9771d04bf9,2021-07-29_22h56.33.322,Simcolourproject_2stim_asymm_v5,2020.2.10,Win32,60,61025ae37ef11b136ea224fe,,,,,,,,,2479,20,68,1,0,0,response1disk,,7,-15,1,1,0,0,rectangle,-15,1,1,0,0,-15,1,1,0,0,1,126,286,77,1,,,,,,,,
,,,,,,,,,,,,,FF,,,,,,,,0.8488,,,,,,,,,,,,,,,,,,,,,,60ff09c4112943453c5a4092,610377b281c2cd9771d04bf9,2021-07-29_22h56.33.322,Simcolourproject_2stim_asymm_v5,2020.2.10,Win32,60,61025ae37ef11b136ea224fe,,,,,,,,,1504,24,57,1,0,0,response1disk,,7,-2,16,1,0,0,rectangle,-2,16,1,0,0,-2,16,1,0,0,1,127,287,149,1,,,,,,,,
,,,,,,,,,,,,,FF,,,,,,,,0.949,,,,,,,,,,,,,,,,,,,,,,60ff09c4112943453c5a4092,610377b281c2cd9771d04bf9,2021-07-29_22h56.33.322,Simcolourproject_2stim_asymm_v5,2020.2.10,Win32,60,61025ae37ef11b136ea224fe,,,,,,,,,1272,20,52,1,0,0,response1disk,,7,-2,11,1,0,0,rectangle,-2,11,1,0,0,-2,11,1,0,0,1,128,288,32,1,,,,,,,,
,,,,,,,,,,,,,FF,,,,,,,,2.8803,,,,,,,,,,,,,,,,,,,,,,60ff09c4112943453c5a4092,610377b281c2cd9771d04bf9,2021-07-29_22h56.33.322,Simcolourproject_2stim_asymm_v5,2020.2.10,Win32,60,61025ae37ef11b136ea224fe,,,,,,,,,2038,72,-62,1,0,0,response3disk,,5,-9,-11,1,0,0,rectangle,-9,-11,1,0,0,-9,-11,1,0,0,1,129,289,78,1,,,,,,,,
,,,,,,,,,,,,,FF,,,,,,,,0.8818,,,,,,,,,,,,,,,,,,,,,,60ff09c4112943453c5a4092,610377b281c2cd9771d04bf9,2021-07-29_22h56.33.322,Simcolourproject_2stim_asymm_v5,2020.2.10,Win32,60,61025ae37ef11b136ea224fe,,,,,,,,,4054,117,-50,1,0,0,response3disk,,5,9,17,1,0,0,rectangle,9,17,1,0,0,9,17,1,0,0,1,130,290,155,1,,,,,,,,
,,,,,,,,,,,,,FF,,,,,,,,1.0155,,,,,,,,,,,,,,,,,,,,,,60ff09c4112943453c5a4092,610377b281c2cd9771d04bf9,2021-07-29_22h56.33.322,Simcolourproject_2stim_asymm_v5,2020.2.10,Win32,60,61025ae37ef11b136ea224fe,,,,,,,,,591,44,80,1,0,0,response1disk,,7,12,17,1,0,0,rectangle,12,17,1,0,0,12,17,1,0,0,1,131,291,81,1,,,,,,,,
,,,,,,,,,,,,,FF,,,,,,,,1.0989,,,,,,,,,,,,,,,,,,,,,,60ff09c4112943453c5a4092,610377b281c2cd9771d04bf9,2021-07-29_22h56.33.322,Simcolourproject_2stim_asymm_v5,2020.2.10,Win32,60,61025ae37ef11b136ea224fe,,,,,,,,,1533,55,33,1,0,0,response1disk,,6,12,0,1,0,0,rectangle,12,0,1,0,0,12,0,1,0,0,1,132,292,46,1,,,,,,,,
,,,,,,,,,,,,,FF,,,,,,,,1.2487,,,,,,,,,,,,,,,,,,,,,,60ff09c4112943453c5a4092,610377b281c2cd9771d04bf9,2021-07-29_22h56.33.322,Simcolourproject_2stim_asymm_v5,2020.2.10,Win32,60,61025ae37ef11b136ea224fe,,,,,,,,,3274,61,82,1,0,0,response1disk,,7,5,12,1,0,0,rectangle,5,12,1,0,0,5,12,1,0,0,1,133,293,86,1,,,,,,,,
,,,,,,,,,,,,,FF,,,,,,,,1.615,,,,,,,,,,,,,,,,,,,,,,60ff09c4112943453c5a4092,610377b281c2cd9771d04bf9,2021-07-29_22h56.33.322,Simcolourproject_2stim_asymm_v5,2020.2.10,Win32,60,61025ae37ef11b136ea224fe,,,,,,,,,3680,76,38,1,0,0,response1disk,,6,7,-16,1,0,0,rectangle,7,-16,1,0,0,7,-16,1,0,0,1,134,294,3,1,,,,,,,,
,,,,,,,,,,,,,FF,,,,,,,,1.3991,,,,,,,,,,,,,,,,,,,,,,60ff09c4112943453c5a4092,610377b281c2cd9771d04bf9,2021-07-29_22h56.33.322,Simcolourproject_2stim_asymm_v5,2020.2.10,Win32,60,61025ae37ef11b136ea224fe,,,,,,,,,3558,85,-66,1,0,0,response3disk,,5,-2,1,1,0,0,rectangle,-2,1,1,0,0,-2,1,1,0,0,1,135,295,24,1,,,,,,,,
,,,,,,,,,,,,,FF,,,,,,,,1.049,,,,,,,,,,,,,,,,,,,,,,60ff09c4112943453c5a4092,610377b281c2cd9771d04bf9,2021-07-29_22h56.33.322,Simcolourproject_2stim_asymm_v5,2020.2.10,Win32,60,61025ae37ef11b136ea224fe,,,,,,,,,4107,67,28,1,0,0,response1disk,,6,9,-15,1,0,0,rectangle,9,-15,1,0,0,9,-15,1,0,0,1,136,296,80,1,,,,,,,,
,,,,,,,,,,,,,FF,,,,,,,,1.6149,,,,,,,,,,,,,,,,,,,,,,60ff09c4112943453c5a4092,610377b281c2cd9771d04bf9,2021-07-29_22h56.33.322,Simcolourproject_2stim_asymm_v5,2020.2.10,Win32,60,61025ae37ef11b136ea224fe,,,,,,,,,3819,82,-46,1,0,0,response3disk,,5,-13,10,1,0,0,rectangle,-13,10,1,0,0,-13,10,1,0,0,1,137,297,158,1,,,,,,,,
,,,,,,,,,,,,,FF,,,,,,,,1.3157,,,,,,,,,,,,,,,,,,,,,,60ff09c4112943453c5a4092,610377b281c2cd9771d04bf9,2021-07-29_22h56.33.322,Simcolourproject_2stim_asymm_v5,2020.2.10,Win32,60,61025ae37ef11b136ea224fe,,,,,,,,,377,96,-38,1,0,0,response3disk,,5,18,2,1,0,0,rectangle,18,2,1,0,0,18,2,1,0,0,1,138,298,147,1,,,,,,,,
,,,,,,,,,,,,,FF,,,,,,,,1.6652,,,,,,,,,,,,,,,,,,,,,,60ff09c4112943453c5a4092,610377b281c2cd9771d04bf9,2021-07-29_22h56.33.322,Simcolourproject_2stim_asymm_v5,2020.2.10,Win32,60,61025ae37ef11b136ea224fe,,,,,,,,,4341,42,92,1,0,0,response1disk,,7,5,7,1,0,0,rectangle,5,7,1,0,0,5,7,1,0,0,1,139,299,73,1,,,,,,,,
,,,,,,,,,,,,,FF,,,,,,,,1.5472,,,,,,,,,,,,,,,,,,,,,,60ff09c4112943453c5a4092,610377b281c2cd9771d04bf9,2021-07-29_22h56.33.322,Simcolourproject_2stim_asymm_v5,2020.2.10,Win32,60,61025ae37ef11b136ea224fe,,,,,,,,,4278,27,87,1,0,0,response1disk,,7,-7,11,1,0,0,rectangle,-7,11,1,0,0,-7,11,1,0,0,1,140,300,61,1,,,,,,,,
,,,,,,,,,,,,,FF,,,,,,,,1.4484,,,,,,,,,,,,,,,,,,,,,,60ff09c4112943453c5a4092,610377b281c2cd9771d04bf9,2021-07-29_22h56.33.322,Simcolourproject_2stim_asymm_v5,2020.2.10,Win32,60,61025ae37ef11b136ea224fe,,,,,,,,,655,88,38,1,0,0,response1disk,,6,-8,9,1,0,0,rectangle,-8,9,1,0,0,-8,9,1,0,0,1,141,301,141,1,,,,,,,,
