key_resp.keys,key_resp.rt,key_resp_14.keys,key_resp_14.rt,key_resp_15.keys,key_resp_15.rt,key_resp_17.keys,key_resp_17.rt,key_resp_9.keys,key_resp_9.rt,key_resp_10.keys,key_resp_10.rt,practice_comparison,Ecc,mouse_5.x,mouse_5.y,mouse_5.leftButton,mouse_5.midButton,mouse_5.rightButton,mouse_5.clicked_name,pracsimilarity,response_time,mouse_10.x,mouse_10.y,mouse_10.leftButton,mouse_10.midButton,mouse_10.rightButton,mouse_10.clicked_name,mouse_7.x,mouse_7.y,mouse_7.leftButton,mouse_7.midButton,mouse_7.rightButton,mouse_6.x,mouse_6.y,mouse_6.leftButton,mouse_6.midButton,mouse_6.rightButton,duringprac.thisRepN,duringprac.thisTrialN,duringprac.thisN,duringprac.thisIndex,duringprac.ran,participant,session,date,expName,psychopyVersion,OS,frameRate,study_id,mouse_7.clicked_name,catchpracsimilarity,catch_response_time,catchnumberprac,catchtrialorderprac,mouse_6.clicked_name,key_resp_22.keys,key_resp_22.rt,realcomparison,mouse.x,mouse.y,mouse.leftButton,mouse.midButton,mouse.rightButton,mouse.clicked_name,Colour2,similarity,mouse_2.x,mouse_2.y,mouse_2.leftButton,mouse_2.midButton,mouse_2.rightButton,mouse_2.clicked_name,mouse_3.x,mouse_3.y,mouse_3.leftButton,mouse_3.midButton,mouse_3.rightButton,mouse_11.x,mouse_11.y,mouse_11.leftButton,mouse_11.midButton,mouse_11.rightButton,trials_2.thisRepN,trials_2.thisTrialN,trials_2.thisN,trials_2.thisIndex,trials_2.ran,Colour1,mouse_3.clicked_name,catchornah,catchsimilarity,catchnumber,catchtrialorder,catchRT,mouse_11.clicked_name
space,2.0981,space,43.4372,space,34.2005,space,11.7325,space,1.2633,space,4.2801,144,PF,64.66668767,-16.00001121,1,0,0,response3disk_5,5,4.1349,2.66668582,-4.666677535,1,0,0,rectangle_8,2.66668582,-4.666677535,1,0,0,2.66668582,-4.666677535,1,0,0,0,0,0,6,1,60ff130d929d6acef9620518,61036b2ce7a04725683a46be,2021-07-29_20h00.38.270,Simcolourproject_2stim_asymm_v5,2020.2.10,Win32,60,61025ae37ef11b136ea224fe,,,,,,,,,,,,,,,,,,,,,,,,,,,,,,,,,,,,,,,,,,,,,,
,,,,,,,,,,,,22,PF,-25.9999817,-30.66667831,1,0,0,response5disk_5,3,2.0336,5.333393256,12.66665632,1,0,0,rectangle_8,-39.33331543,84.66665846,1,0,0,-4.666607042,2.666656017,1,0,0,0,1,1,1,1,60ff130d929d6acef9620518,61036b2ce7a04725683a46be,2021-07-29_20h00.38.270,Simcolourproject_2stim_asymm_v5,2020.2.10,Win32,60,61025ae37ef11b136ea224fe,response7disk_7,0,3.9842,0,"[2,5]",rectangle_4,,,,,,,,,,,,,,,,,,,,,,,,,,,,,,,,,,,,,,,,
,,,,,,,,,,,,95,FF,-58.66660865,-77.33334637,1,0,0,response5disk_5,3,9.0329,6.666685939,-0.666677415,1,0,0,rectangle_8,6.666685939,-0.666677415,1,0,0,6.666685939,-0.666677415,1,0,0,0,2,2,5,1,60ff130d929d6acef9620518,61036b2ce7a04725683a46be,2021-07-29_20h00.38.270,Simcolourproject_2stim_asymm_v5,2020.2.10,Win32,60,61025ae37ef11b136ea224fe,,,,,,,,,,,,,,,,,,,,,,,,,,,,,,,,,,,,,,,,,,,,,,
,,,,,,,,,,,,142,FF,91.33335513,-67.33334607,1,0,0,response3disk_5,5,1.9506,18.6666863,3.333322704,1,0,0,rectangle_8,18.6666863,3.333322704,1,0,0,18.6666863,3.333322704,1,0,0,0,3,3,3,1,60ff130d929d6acef9620518,61036b2ce7a04725683a46be,2021-07-29_20h00.38.270,Simcolourproject_2stim_asymm_v5,2020.2.10,Win32,60,61025ae37ef11b136ea224fe,,,,,,,,,,,,,,,,,,,,,,,,,,,,,,,,,,,,,,,,,,,,,,
,,,,,,,,,,,,160,PF,-53.99998254,-31.333345,1,0,0,response5disk_5,2,1.2992,1.333393137,-8.000010967,1,0,0,rectangle_8,-41.99998218,99.33330522,1,0,0,-3.999981046,4.666656077,1,0,0,0,4,4,2,1,60ff130d929d6acef9620518,61036b2ce7a04725683a46be,2021-07-29_20h00.38.270,Simcolourproject_2stim_asymm_v5,2020.2.10,Win32,60,61025ae37ef11b136ea224fe,response7disk_7,0,2.2999,0,"[2,5]",rectangle_4,,,,,,,,,,,,,,,,,,,,,,,,,,,,,,,,,,,,,,,,
,,,,,,,,,,,,42,FF,-79.33331662,25.33330301,1,0,0,response7disk_5,1,2.3334,6.000019252,-4.000010848,1,0,0,rectangle_8,6.000019252,-4.000010848,1,0,0,6.000019252,-4.000010848,1,0,0,0,5,5,0,1,60ff130d929d6acef9620518,61036b2ce7a04725683a46be,2021-07-29_20h00.38.270,Simcolourproject_2stim_asymm_v5,2020.2.10,Win32,60,61025ae37ef11b136ea224fe,,,,,,,,,,,,,,,,,,,,,,,,,,,,,,,,,,,,,,,,,,,,,,
,,,,,,,,,,,,9,PF,80.66668814,41.33330349,1,0,0,response1disk_5,6,1.8997,5.333393256,-4.666677535,1,0,0,rectangle_8,5.333393256,-4.666677535,1,0,0,5.333393256,-4.666677535,1,0,0,0,6,6,4,1,60ff130d929d6acef9620518,61036b2ce7a04725683a46be,2021-07-29_20h00.38.270,Simcolourproject_2stim_asymm_v5,2020.2.10,Win32,60,61025ae37ef11b136ea224fe,,,,,,,,,,,,,,,,,,,,,,,,,,,,,,,,,,,,,,,,,,,,,,
,,,,,,,,,,,,,FF,,,,,,,,1.6336,,,,,,,,,,,,,,,,,,,,,,60ff130d929d6acef9620518,61036b2ce7a04725683a46be,2021-07-29_20h00.38.270,Simcolourproject_2stim_asymm_v5,2020.2.10,Win32,60,61025ae37ef11b136ea224fe,,,,,,,space,3.8451,3493,36.00002015,-74.00001293,1,0,0,response3disk,,4,2.666687012,3.333312988,1,0,0,rectangle,2.666687012,3.333312988,1,0,0,2.666687012,3.333312988,1,0,0,0,0,0,107,1,,,,,,,,
,,,,,,,,,,,,,FF,,,,,,,,1.9161,,,,,,,,,,,,,,,,,,,,,,60ff130d929d6acef9620518,61036b2ce7a04725683a46be,2021-07-29_20h00.38.270,Simcolourproject_2stim_asymm_v5,2020.2.10,Win32,60,61025ae37ef11b136ea224fe,,,,,,,,,281,-79.33331299,-33.33334351,1,0,0,response5disk,,2,-6.666625977,-7.333343506,1,0,0,rectangle,-6.666625977,-7.333343506,1,0,0,-6.666625977,-7.333343506,1,0,0,0,1,1,80,1,,,,,,,,
,,,,,,,,,,,,,FF,,,,,,,,1.2166,,,,,,,,,,,,,,,,,,,,,,60ff130d929d6acef9620518,61036b2ce7a04725683a46be,2021-07-29_20h00.38.270,Simcolourproject_2stim_asymm_v5,2020.2.10,Win32,60,61025ae37ef11b136ea224fe,,,,,,,,,2616,76.66668701,-40,1,0,0,response3disk,,5,18.66668701,-5.333343506,1,0,0,rectangle,18.66668701,-5.333343506,1,0,0,18.66668701,-5.333343506,1,0,0,0,2,2,151,1,,,,,,,,
,,,,,,,,,,,,,FF,,,,,,,,1.2661,,,,,,,,,,,,,,,,,,,,,,60ff130d929d6acef9620518,61036b2ce7a04725683a46be,2021-07-29_20h00.38.270,Simcolourproject_2stim_asymm_v5,2020.2.10,Win32,60,61025ae37ef11b136ea224fe,,,,,,,,,1842,83.33337402,32,1,0,0,response1disk,,6,13.33337402,-4.666687012,1,0,0,rectangle,13.33337402,-4.666687012,1,0,0,13.33337402,-4.666687012,1,0,0,0,3,3,46,1,,,,,,,,
,,,,,,,,,,,,,FF,,,,,,,,1.0328,,,,,,,,,,,,,,,,,,,,,,60ff130d929d6acef9620518,61036b2ce7a04725683a46be,2021-07-29_20h00.38.270,Simcolourproject_2stim_asymm_v5,2020.2.10,Win32,60,61025ae37ef11b136ea224fe,,,,,,,,,159,-40.66662598,-96,1,0,0,response5disk,,3,-2,-0.666687012,1,0,0,rectangle,-2,-0.666687012,1,0,0,-2,-0.666687012,1,0,0,0,4,4,117,1,,,,,,,,
,,,,,,,,,,,,,FF,,,,,,,,2.2831,,,,,,,,,,,,,,,,,,,,,,60ff130d929d6acef9620518,61036b2ce7a04725683a46be,2021-07-29_20h00.38.270,Simcolourproject_2stim_asymm_v5,2020.2.10,Win32,60,61025ae37ef11b136ea224fe,,,,,,,,,2367,-36.66662598,-79.33334351,1,0,0,response5disk,,3,4.666687012,8,1,0,0,rectangle,4.666687012,8,1,0,0,4.666687012,8,1,0,0,0,5,5,108,1,,,,,,,,
,,,,,,,,,,,,,FF,,,,,,,,3.5815,,,,,,,,,,,,,,,,,,,,,,60ff130d929d6acef9620518,61036b2ce7a04725683a46be,2021-07-29_20h00.38.270,Simcolourproject_2stim_asymm_v5,2020.2.10,Win32,60,61025ae37ef11b136ea224fe,,,,,,,,,3492,78.66668701,-33.33334351,1,0,0,response3disk,,5,6,0,1,0,0,rectangle,6,0,1,0,0,6,0,1,0,0,0,6,6,115,1,,,,,,,,
,,,,,,,,,,,,,FF,,,,,,,,1.5329,,,,,,,,,,,,,,,,,,,,,,60ff130d929d6acef9620518,61036b2ce7a04725683a46be,2021-07-29_20h00.38.270,Simcolourproject_2stim_asymm_v5,2020.2.10,Win32,60,61025ae37ef11b136ea224fe,,,,,,,,,3601,44,-84,1,0,0,response3disk,,4,8.666687012,3.333312988,1,0,0,rectangle,8.666687012,3.333312988,1,0,0,8.666687012,3.333312988,1,0,0,0,7,7,55,1,,,,,,,,
,,,,,,,,,,,,,FF,,,,,,,,0.7992,,,,,,,,,,,,,,,,,,,,,,60ff130d929d6acef9620518,61036b2ce7a04725683a46be,2021-07-29_20h00.38.270,Simcolourproject_2stim_asymm_v5,2020.2.10,Win32,60,61025ae37ef11b136ea224fe,,,,,,,,,1275,-36.66662598,-88.66668701,1,0,0,response5disk,,3,19.33337402,-7.333343506,1,0,0,rectangle,-32.66662598,98.66665649,1,0,0,-2.666625977,-3.333343506,1,0,0,0,8,8,26,1,,response7disk_3,TRUE,0,0,"[9,246,21,56,218,189,89,263,164,246,169,57,51,309,192,166,268,192,41,97]",2.0999,rectangle
,,,,,,,,,,,,,FF,,,,,,,,1.1164,,,,,,,,,,,,,,,,,,,,,,60ff130d929d6acef9620518,61036b2ce7a04725683a46be,2021-07-29_20h00.38.270,Simcolourproject_2stim_asymm_v5,2020.2.10,Win32,60,61025ae37ef11b136ea224fe,,,,,,,,,1484,74,-48,1,0,0,response3disk,,5,10.66668701,0,1,0,0,rectangle,10.66668701,0,1,0,0,10.66668701,0,1,0,0,0,9,9,62,1,,,,,,,,
,,,,,,,,,,,,,FF,,,,,,,,1.9158,,,,,,,,,,,,,,,,,,,,,,60ff130d929d6acef9620518,61036b2ce7a04725683a46be,2021-07-29_20h00.38.270,Simcolourproject_2stim_asymm_v5,2020.2.10,Win32,60,61025ae37ef11b136ea224fe,,,,,,,,,1086,48,-87.33334351,1,0,0,response3disk,,4,10.66668701,2.666656494,1,0,0,rectangle,10.66668701,2.666656494,1,0,0,10.66668701,2.666656494,1,0,0,0,10,10,148,1,,,,,,,,
,,,,,,,,,,,,,FF,,,,,,,,1.1834,,,,,,,,,,,,,,,,,,,,,,60ff130d929d6acef9620518,61036b2ce7a04725683a46be,2021-07-29_20h00.38.270,Simcolourproject_2stim_asymm_v5,2020.2.10,Win32,60,61025ae37ef11b136ea224fe,,,,,,,,,3536,45.33337402,90,1,0,0,response1disk,,7,6,-1.333343506,1,0,0,rectangle,6,-1.333343506,1,0,0,6,-1.333343506,1,0,0,0,11,11,38,1,,,,,,,,
,,,,,,,,,,,,,FF,,,,,,,,1.4827,,,,,,,,,,,,,,,,,,,,,,60ff130d929d6acef9620518,61036b2ce7a04725683a46be,2021-07-29_20h00.38.270,Simcolourproject_2stim_asymm_v5,2020.2.10,Win32,60,61025ae37ef11b136ea224fe,,,,,,,,,1810,39.33337402,-90,1,0,0,response3disk,,4,4.666687012,-9.333343506,1,0,0,rectangle,4.666687012,-9.333343506,1,0,0,4.666687012,-9.333343506,1,0,0,0,12,12,85,1,,,,,,,,
,,,,,,,,,,,,,FF,,,,,,,,2.4673,,,,,,,,,,,,,,,,,,,,,,60ff130d929d6acef9620518,61036b2ce7a04725683a46be,2021-07-29_20h00.38.270,Simcolourproject_2stim_asymm_v5,2020.2.10,Win32,60,61025ae37ef11b136ea224fe,,,,,,,,,3141,20.66668701,-82.66668701,1,0,0,response3disk,,4,10,6,1,0,0,rectangle,10,6,1,0,0,10,6,1,0,0,0,13,13,56,1,,,,,,,,
,,,,,,,,,,,,,FF,,,,,,,,1.3163,,,,,,,,,,,,,,,,,,,,,,60ff130d929d6acef9620518,61036b2ce7a04725683a46be,2021-07-29_20h00.38.270,Simcolourproject_2stim_asymm_v5,2020.2.10,Win32,60,61025ae37ef11b136ea224fe,,,,,,,,,3195,-36.66662598,96.66665649,1,0,0,response7disk,,0,15.33337402,1.333312988,1,0,0,rectangle,15.33337402,1.333312988,1,0,0,15.33337402,1.333312988,1,0,0,0,14,14,129,1,,,,,,,,
,,,,,,,,,,,,,FF,,,,,,,,1.0501,,,,,,,,,,,,,,,,,,,,,,60ff130d929d6acef9620518,61036b2ce7a04725683a46be,2021-07-29_20h00.38.270,Simcolourproject_2stim_asymm_v5,2020.2.10,Win32,60,61025ae37ef11b136ea224fe,,,,,,,,,539,72,-39.33334351,1,0,0,response3disk,,5,6,13.33331299,1,0,0,rectangle,6,13.33331299,1,0,0,6,13.33331299,1,0,0,0,15,15,76,1,,,,,,,,
,,,,,,,,,,,,,FF,,,,,,,,1.0996,,,,,,,,,,,,,,,,,,,,,,60ff130d929d6acef9620518,61036b2ce7a04725683a46be,2021-07-29_20h00.38.270,Simcolourproject_2stim_asymm_v5,2020.2.10,Win32,60,61025ae37ef11b136ea224fe,,,,,,,,,533,-34,-97.33334351,1,0,0,response5disk,,3,7.333374023,9.333312988,1,0,0,rectangle,7.333374023,9.333312988,1,0,0,7.333374023,9.333312988,1,0,0,0,16,16,34,1,,,,,,,,
,,,,,,,,,,,,,FF,,,,,,,,1.2992,,,,,,,,,,,,,,,,,,,,,,60ff130d929d6acef9620518,61036b2ce7a04725683a46be,2021-07-29_20h00.38.270,Simcolourproject_2stim_asymm_v5,2020.2.10,Win32,60,61025ae37ef11b136ea224fe,,,,,,,,,2992,87.33337402,42,1,0,0,response1disk,,6,25.33337402,4.666656494,1,0,0,rectangle,25.33337402,4.666656494,1,0,0,25.33337402,4.666656494,1,0,0,0,17,17,36,1,,,,,,,,
,,,,,,,,,,,,,FF,,,,,,,,1.4666,,,,,,,,,,,,,,,,,,,,,,60ff130d929d6acef9620518,61036b2ce7a04725683a46be,2021-07-29_20h00.38.270,Simcolourproject_2stim_asymm_v5,2020.2.10,Win32,60,61025ae37ef11b136ea224fe,,,,,,,,,2176,80,-43.33334351,1,0,0,response3disk,,5,13.33337402,-13.33334351,1,0,0,rectangle,13.33337402,-13.33334351,1,0,0,13.33337402,-13.33334351,1,0,0,0,18,18,102,1,,,,,,,,
,,,,,,,,,,,,,FF,,,,,,,,1.3325,,,,,,,,,,,,,,,,,,,,,,60ff130d929d6acef9620518,61036b2ce7a04725683a46be,2021-07-29_20h00.38.270,Simcolourproject_2stim_asymm_v5,2020.2.10,Win32,60,61025ae37ef11b136ea224fe,,,,,,,,,179,70,-80,1,0,0,response3disk,,4,15.33337402,4.666656494,1,0,0,rectangle,15.33337402,4.666656494,1,0,0,15.33337402,4.666656494,1,0,0,0,19,19,96,1,,,,,,,,
,,,,,,,,,,,,,FF,,,,,,,,1.7162,,,,,,,,,,,,,,,,,,,,,,60ff130d929d6acef9620518,61036b2ce7a04725683a46be,2021-07-29_20h00.38.270,Simcolourproject_2stim_asymm_v5,2020.2.10,Win32,60,61025ae37ef11b136ea224fe,,,,,,,,,2806,71.33337402,-30.66668701,1,0,0,response3disk,,5,17.33337402,-4.666687012,1,0,0,rectangle,83.33337402,-35.33334351,1,0,0,14,0,1,0,0,0,20,20,22,1,,response3disk_3,TRUE,5,5,"[9,246,21,56,218,189,89,263,164,246,169,57,51,309,192,166,268,192,41,97]",4.1995,rectangle
,,,,,,,,,,,,,FF,,,,,,,,4.6333,,,,,,,,,,,,,,,,,,,,,,60ff130d929d6acef9620518,61036b2ce7a04725683a46be,2021-07-29_20h00.38.270,Simcolourproject_2stim_asymm_v5,2020.2.10,Win32,60,61025ae37ef11b136ea224fe,,,,,,,,,3618,51.33337402,-97.33334351,1,0,0,response3disk,,4,-13.33331299,4.666656494,1,0,0,rectangle,-13.33331299,4.666656494,1,0,0,-13.33331299,4.666656494,1,0,0,0,21,21,127,1,,,,,,,,
,,,,,,,,,,,,,FF,,,,,,,,2.0665,,,,,,,,,,,,,,,,,,,,,,60ff130d929d6acef9620518,61036b2ce7a04725683a46be,2021-07-29_20h00.38.270,Simcolourproject_2stim_asymm_v5,2020.2.10,Win32,60,61025ae37ef11b136ea224fe,,,,,,,,,3095,-90.66662598,-42,1,0,0,response5disk,,2,-11.33331299,-8.666687012,1,0,0,rectangle,-11.33331299,-8.666687012,1,0,0,-11.33331299,-8.666687012,1,0,0,0,22,22,119,1,,,,,,,,
,,,,,,,,,,,,,FF,,,,,,,,1.4994,,,,,,,,,,,,,,,,,,,,,,60ff130d929d6acef9620518,61036b2ce7a04725683a46be,2021-07-29_20h00.38.270,Simcolourproject_2stim_asymm_v5,2020.2.10,Win32,60,61025ae37ef11b136ea224fe,,,,,,,,,1917,74,-53.33334351,1,0,0,response3disk,,5,12.66668701,0,1,0,0,rectangle,12.66668701,0,1,0,0,12.66668701,0,1,0,0,0,23,23,91,1,,,,,,,,
,,,,,,,,,,,,,FF,,,,,,,,1.8167,,,,,,,,,,,,,,,,,,,,,,60ff130d929d6acef9620518,61036b2ce7a04725683a46be,2021-07-29_20h00.38.270,Simcolourproject_2stim_asymm_v5,2020.2.10,Win32,60,61025ae37ef11b136ea224fe,,,,,,,,,4253,-77.33331299,-43.33334351,1,0,0,response5disk,,2,2.666687012,4.666656494,1,0,0,rectangle,2.666687012,4.666656494,1,0,0,2.666687012,4.666656494,1,0,0,0,24,24,24,1,,,,,,,,
,,,,,,,,,,,,,FF,,,,,,,,0.7837,,,,,,,,,,,,,,,,,,,,,,60ff130d929d6acef9620518,61036b2ce7a04725683a46be,2021-07-29_20h00.38.270,Simcolourproject_2stim_asymm_v5,2020.2.10,Win32,60,61025ae37ef11b136ea224fe,,,,,,,,,4012,90.66668701,40.66665649,1,0,0,response1disk,,6,0.666687012,6,1,0,0,rectangle,0.666687012,6,1,0,0,0.666687012,6,1,0,0,0,25,25,140,1,,,,,,,,
,,,,,,,,,,,,,FF,,,,,,,,0.7003,,,,,,,,,,,,,,,,,,,,,,60ff130d929d6acef9620518,61036b2ce7a04725683a46be,2021-07-29_20h00.38.270,Simcolourproject_2stim_asymm_v5,2020.2.10,Win32,60,61025ae37ef11b136ea224fe,,,,,,,,,4116,-36,-83.33334351,1,0,0,response5disk,,3,2.666687012,13.33331299,1,0,0,rectangle,2.666687012,13.33331299,1,0,0,2.666687012,13.33331299,1,0,0,0,26,26,152,1,,,,,,,,
,,,,,,,,,,,,,FF,,,,,,,,1.0166,,,,,,,,,,,,,,,,,,,,,,60ff130d929d6acef9620518,61036b2ce7a04725683a46be,2021-07-29_20h00.38.270,Simcolourproject_2stim_asymm_v5,2020.2.10,Win32,60,61025ae37ef11b136ea224fe,,,,,,,,,3724,40.66668701,100,1,0,0,response1disk,,7,12,2.666656494,1,0,0,rectangle,12,2.666656494,1,0,0,12,2.666656494,1,0,0,0,27,27,141,1,,,,,,,,
,,,,,,,,,,,,,FF,,,,,,,,1.4666,,,,,,,,,,,,,,,,,,,,,,60ff130d929d6acef9620518,61036b2ce7a04725683a46be,2021-07-29_20h00.38.270,Simcolourproject_2stim_asymm_v5,2020.2.10,Win32,60,61025ae37ef11b136ea224fe,,,,,,,,,2981,86.66668701,30.66665649,1,0,0,response1disk,,6,16.66668701,-0.666687012,1,0,0,rectangle,16.66668701,-0.666687012,1,0,0,16.66668701,-0.666687012,1,0,0,0,28,28,50,1,,,,,,,,
,,,,,,,,,,,,,FF,,,,,,,,1.0338,,,,,,,,,,,,,,,,,,,,,,60ff130d929d6acef9620518,61036b2ce7a04725683a46be,2021-07-29_20h00.38.270,Simcolourproject_2stim_asymm_v5,2020.2.10,Win32,60,61025ae37ef11b136ea224fe,,,,,,,,,3971,-80.66662598,-29.33334351,1,0,0,response5disk,,2,0.666687012,8.666656494,1,0,0,rectangle,0.666687012,8.666656494,1,0,0,0.666687012,8.666656494,1,0,0,0,29,29,156,1,,,,,,,,
,,,,,,,,,,,,,FF,,,,,,,,0.9166,,,,,,,,,,,,,,,,,,,,,,60ff130d929d6acef9620518,61036b2ce7a04725683a46be,2021-07-29_20h00.38.270,Simcolourproject_2stim_asymm_v5,2020.2.10,Win32,60,61025ae37ef11b136ea224fe,,,,,,,,,4113,30,-88.66668701,1,0,0,response3disk,,4,7.333374023,2.666656494,1,0,0,rectangle,7.333374023,2.666656494,1,0,0,7.333374023,2.666656494,1,0,0,0,30,30,8,1,,,,,,,,
,,,,,,,,,,,,,FF,,,,,,,,1.0499,,,,,,,,,,,,,,,,,,,,,,60ff130d929d6acef9620518,61036b2ce7a04725683a46be,2021-07-29_20h00.38.270,Simcolourproject_2stim_asymm_v5,2020.2.10,Win32,60,61025ae37ef11b136ea224fe,,,,,,,,,590,79.33337402,-28,1,0,0,response3disk,,5,17.33337402,9.333312988,1,0,0,rectangle,17.33337402,9.333312988,1,0,0,17.33337402,9.333312988,1,0,0,0,31,31,83,1,,,,,,,,
,,,,,,,,,,,,,FF,,,,,,,,1.5162,,,,,,,,,,,,,,,,,,,,,,60ff130d929d6acef9620518,61036b2ce7a04725683a46be,2021-07-29_20h00.38.270,Simcolourproject_2stim_asymm_v5,2020.2.10,Win32,60,61025ae37ef11b136ea224fe,,,,,,,,,1076,82.66668701,-36.66668701,1,0,0,response3disk,,5,0,-8.666687012,1,0,0,rectangle,0,-8.666687012,1,0,0,0,-8.666687012,1,0,0,0,32,32,133,1,,,,,,,,
,,,,,,,,,,,,,FF,,,,,,,,1.1498,,,,,,,,,,,,,,,,,,,,,,60ff130d929d6acef9620518,61036b2ce7a04725683a46be,2021-07-29_20h00.38.270,Simcolourproject_2stim_asymm_v5,2020.2.10,Win32,60,61025ae37ef11b136ea224fe,,,,,,,,,4083,-47.33331299,-96,1,0,0,response5disk,,3,6,-4.666687012,1,0,0,rectangle,6,-4.666687012,1,0,0,6,-4.666687012,1,0,0,0,33,33,105,1,,,,,,,,
,,,,,,,,,,,,,FF,,,,,,,,1.2494,,,,,,,,,,,,,,,,,,,,,,60ff130d929d6acef9620518,61036b2ce7a04725683a46be,2021-07-29_20h00.38.270,Simcolourproject_2stim_asymm_v5,2020.2.10,Win32,60,61025ae37ef11b136ea224fe,,,,,,,,,1912,92.66668701,41.33331299,1,0,0,response1disk,,6,21.33337402,12.66665649,1,0,0,rectangle,21.33337402,12.66665649,1,0,0,21.33337402,12.66665649,1,0,0,0,34,34,49,1,,,,,,,,
,,,,,,,,,,,,,FF,,,,,,,,1.0835,,,,,,,,,,,,,,,,,,,,,,60ff130d929d6acef9620518,61036b2ce7a04725683a46be,2021-07-29_20h00.38.270,Simcolourproject_2stim_asymm_v5,2020.2.10,Win32,60,61025ae37ef11b136ea224fe,,,,,,,,,4142,-82,-36.66668701,1,0,0,response5disk,,2,-7.333312988,-8.666687012,1,0,0,rectangle,-7.333312988,-8.666687012,1,0,0,-7.333312988,-8.666687012,1,0,0,0,35,35,137,1,,,,,,,,
,,,,,,,,,,,,,FF,,,,,,,,0.7336,,,,,,,,,,,,,,,,,,,,,,60ff130d929d6acef9620518,61036b2ce7a04725683a46be,2021-07-29_20h00.38.270,Simcolourproject_2stim_asymm_v5,2020.2.10,Win32,60,61025ae37ef11b136ea224fe,,,,,,,,,2063,85.33337402,-36.66668701,1,0,0,response3disk,,5,18.66668701,13.33331299,1,0,0,rectangle,18.66668701,13.33331299,1,0,0,18.66668701,13.33331299,1,0,0,0,36,36,123,1,,,,,,,,
,,,,,,,,,,,,,FF,,,,,,,,1.0458,,,,,,,,,,,,,,,,,,,,,,60ff130d929d6acef9620518,61036b2ce7a04725683a46be,2021-07-29_20h00.38.270,Simcolourproject_2stim_asymm_v5,2020.2.10,Win32,60,61025ae37ef11b136ea224fe,,,,,,,,,2926,84,43.33331299,1,0,0,response1disk,,6,21.33337402,3.333312988,1,0,0,rectangle,21.33337402,3.333312988,1,0,0,21.33337402,3.333312988,1,0,0,0,37,37,136,1,,,,,,,,
,,,,,,,,,,,,,FF,,,,,,,,0.9156,,,,,,,,,,,,,,,,,,,,,,60ff130d929d6acef9620518,61036b2ce7a04725683a46be,2021-07-29_20h00.38.270,Simcolourproject_2stim_asymm_v5,2020.2.10,Win32,60,61025ae37ef11b136ea224fe,,,,,,,,,4285,29.33337402,86.66665649,1,0,0,response1disk,,7,2.666687012,4.666656494,1,0,0,rectangle,2.666687012,4.666656494,1,0,0,2.666687012,4.666656494,1,0,0,0,38,38,13,1,,,,,,,,
,,,,,,,,,,,,,FF,,,,,,,,1.467,,,,,,,,,,,,,,,,,,,,,,60ff130d929d6acef9620518,61036b2ce7a04725683a46be,2021-07-29_20h00.38.270,Simcolourproject_2stim_asymm_v5,2020.2.10,Win32,60,61025ae37ef11b136ea224fe,,,,,,,,,1476,75.33337402,-30,1,0,0,response3disk,,5,22,12.66665649,1,0,0,rectangle,22,12.66665649,1,0,0,22,12.66665649,1,0,0,0,39,39,0,1,,,,,,,,
,,,,,,,,,,,,,FF,,,,,,,,0.9325,,,,,,,,,,,,,,,,,,,,,,60ff130d929d6acef9620518,61036b2ce7a04725683a46be,2021-07-29_20h00.38.270,Simcolourproject_2stim_asymm_v5,2020.2.10,Win32,60,61025ae37ef11b136ea224fe,,,,,,,,,1325,76,44,1,0,0,response1disk,,6,5.333374023,-3.333343506,1,0,0,rectangle,-35.33331299,90,1,0,0,14.66668701,1.333312988,1,0,0,0,40,40,54,1,,response7disk_3,TRUE,0,0,"[9,246,21,56,218,189,89,263,164,246,169,57,51,309,192,166,268,192,41,97]",1.6489,rectangle
,,,,,,,,,,,,,FF,,,,,,,,1.1163,,,,,,,,,,,,,,,,,,,,,,60ff130d929d6acef9620518,61036b2ce7a04725683a46be,2021-07-29_20h00.38.270,Simcolourproject_2stim_asymm_v5,2020.2.10,Win32,60,61025ae37ef11b136ea224fe,,,,,,,,,881,88.66668701,52,1,0,0,response1disk,,6,12,10,1,0,0,rectangle,12,10,1,0,0,12,10,1,0,0,0,41,41,6,1,,,,,,,,
,,,,,,,,,,,,,FF,,,,,,,,1.4327,,,,,,,,,,,,,,,,,,,,,,60ff130d929d6acef9620518,61036b2ce7a04725683a46be,2021-07-29_20h00.38.270,Simcolourproject_2stim_asymm_v5,2020.2.10,Win32,60,61025ae37ef11b136ea224fe,,,,,,,,,4362,-37.33331299,79.33331299,1,0,0,response7disk,,0,6,5.333312988,1,0,0,rectangle,6,5.333312988,1,0,0,6,5.333312988,1,0,0,0,42,42,10,1,,,,,,,,
,,,,,,,,,,,,,FF,,,,,,,,0.7669,,,,,,,,,,,,,,,,,,,,,,60ff130d929d6acef9620518,61036b2ce7a04725683a46be,2021-07-29_20h00.38.270,Simcolourproject_2stim_asymm_v5,2020.2.10,Win32,60,61025ae37ef11b136ea224fe,,,,,,,,,1979,83.33337402,46.66665649,1,0,0,response1disk,,6,6,-5.333343506,1,0,0,rectangle,6,-5.333343506,1,0,0,6,-5.333343506,1,0,0,0,43,43,78,1,,,,,,,,
,,,,,,,,,,,,,FF,,,,,,,,1.4324,,,,,,,,,,,,,,,,,,,,,,60ff130d929d6acef9620518,61036b2ce7a04725683a46be,2021-07-29_20h00.38.270,Simcolourproject_2stim_asymm_v5,2020.2.10,Win32,60,61025ae37ef11b136ea224fe,,,,,,,,,1046,42.66668701,82.66665649,1,0,0,response1disk,,7,5.333374023,8,1,0,0,rectangle,5.333374023,8,1,0,0,5.333374023,8,1,0,0,0,44,44,37,1,,,,,,,,
,,,,,,,,,,,,,FF,,,,,,,,0.9165,,,,,,,,,,,,,,,,,,,,,,60ff130d929d6acef9620518,61036b2ce7a04725683a46be,2021-07-29_20h00.38.270,Simcolourproject_2stim_asymm_v5,2020.2.10,Win32,60,61025ae37ef11b136ea224fe,,,,,,,,,3709,78.66668701,-37.33334351,1,0,0,response3disk,,5,20.66668701,-6.666687012,1,0,0,rectangle,20.66668701,-6.666687012,1,0,0,20.66668701,-6.666687012,1,0,0,0,45,45,51,1,,,,,,,,
,,,,,,,,,,,,,FF,,,,,,,,1.8002,,,,,,,,,,,,,,,,,,,,,,60ff130d929d6acef9620518,61036b2ce7a04725683a46be,2021-07-29_20h00.38.270,Simcolourproject_2stim_asymm_v5,2020.2.10,Win32,60,61025ae37ef11b136ea224fe,,,,,,,,,686,35.33337402,-86.66668701,1,0,0,response3disk,,4,12,-2,1,0,0,rectangle,12,-2,1,0,0,12,-2,1,0,0,0,46,46,145,1,,,,,,,,
,,,,,,,,,,,,,FF,,,,,,,,1.1002,,,,,,,,,,,,,,,,,,,,,,60ff130d929d6acef9620518,61036b2ce7a04725683a46be,2021-07-29_20h00.38.270,Simcolourproject_2stim_asymm_v5,2020.2.10,Win32,60,61025ae37ef11b136ea224fe,,,,,,,,,2173,-86,-28,1,0,0,response5disk,,2,8.666687012,8.666656494,1,0,0,rectangle,8.666687012,8.666656494,1,0,0,8.666687012,8.666656494,1,0,0,0,47,47,134,1,,,,,,,,
,,,,,,,,,,,,,FF,,,,,,,,1.6,,,,,,,,,,,,,,,,,,,,,,60ff130d929d6acef9620518,61036b2ce7a04725683a46be,2021-07-29_20h00.38.270,Simcolourproject_2stim_asymm_v5,2020.2.10,Win32,60,61025ae37ef11b136ea224fe,,,,,,,,,2570,42,-86.66668701,1,0,0,response3disk,,4,14,-1.333343506,1,0,0,rectangle,14,-1.333343506,1,0,0,14,-1.333343506,1,0,0,0,48,48,66,1,,,,,,,,
,,,,,,,,,,,,,FF,,,,,,,,1.7326,,,,,,,,,,,,,,,,,,,,,,60ff130d929d6acef9620518,61036b2ce7a04725683a46be,2021-07-29_20h00.38.270,Simcolourproject_2stim_asymm_v5,2020.2.10,Win32,60,61025ae37ef11b136ea224fe,,,,,,,,,2653,-32,-97.33334351,1,0,0,response5disk,,3,18,-4,1,0,0,rectangle,18,-4,1,0,0,18,-4,1,0,0,0,49,49,138,1,,,,,,,,
,,,,,,,,,,,,,FF,,,,,,,,1.9326,,,,,,,,,,,,,,,,,,,,,,60ff130d929d6acef9620518,61036b2ce7a04725683a46be,2021-07-29_20h00.38.270,Simcolourproject_2stim_asymm_v5,2020.2.10,Win32,60,61025ae37ef11b136ea224fe,,,,,,,,,685,71.33337402,-30,1,0,0,response3disk,,5,6.666687012,6,1,0,0,rectangle,-86,38.66665649,1,0,0,9.333374023,0,1,0,0,0,50,50,109,1,,response7disk_3,TRUE,1,1,"[9,246,21,56,218,189,89,263,164,246,169,57,51,309,192,166,268,192,41,97]",2.1831,rectangle
,,,,,,,,,,,,,FF,,,,,,,,0.9502,,,,,,,,,,,,,,,,,,,,,,60ff130d929d6acef9620518,61036b2ce7a04725683a46be,2021-07-29_20h00.38.270,Simcolourproject_2stim_asymm_v5,2020.2.10,Win32,60,61025ae37ef11b136ea224fe,,,,,,,,,987,52.66668701,-22.66668701,1,0,0,response3disk,,5,5.333374023,2.666656494,1,0,0,rectangle,5.333374023,2.666656494,1,0,0,5.333374023,2.666656494,1,0,0,0,51,51,84,1,,,,,,,,
,,,,,,,,,,,,,FF,,,,,,,,1.2451,,,,,,,,,,,,,,,,,,,,,,60ff130d929d6acef9620518,61036b2ce7a04725683a46be,2021-07-29_20h00.38.270,Simcolourproject_2stim_asymm_v5,2020.2.10,Win32,60,61025ae37ef11b136ea224fe,,,,,,,,,3127,83.33337402,-36,1,0,0,response3disk,,5,5.333374023,-7.333343506,1,0,0,rectangle,5.333374023,-7.333343506,1,0,0,5.333374023,-7.333343506,1,0,0,0,52,52,41,1,,,,,,,,
,,,,,,,,,,,,,FF,,,,,,,,0.9498,,,,,,,,,,,,,,,,,,,,,,60ff130d929d6acef9620518,61036b2ce7a04725683a46be,2021-07-29_20h00.38.270,Simcolourproject_2stim_asymm_v5,2020.2.10,Win32,60,61025ae37ef11b136ea224fe,,,,,,,,,975,-92,-42,1,0,0,response5disk,,2,-24.66662598,3.333312988,1,0,0,rectangle,-24.66662598,3.333312988,1,0,0,-24.66662598,3.333312988,1,0,0,0,53,53,112,1,,,,,,,,
,,,,,,,,,,,,,FF,,,,,,,,1.0665,,,,,,,,,,,,,,,,,,,,,,60ff130d929d6acef9620518,61036b2ce7a04725683a46be,2021-07-29_20h00.38.270,Simcolourproject_2stim_asymm_v5,2020.2.10,Win32,60,61025ae37ef11b136ea224fe,,,,,,,,,2510,28.66668701,-92.66668701,1,0,0,response3disk,,4,4,4,1,0,0,rectangle,4,4,1,0,0,4,4,1,0,0,0,54,54,98,1,,,,,,,,
,,,,,,,,,,,,,FF,,,,,,,,0.933,,,,,,,,,,,,,,,,,,,,,,60ff130d929d6acef9620518,61036b2ce7a04725683a46be,2021-07-29_20h00.38.270,Simcolourproject_2stim_asymm_v5,2020.2.10,Win32,60,61025ae37ef11b136ea224fe,,,,,,,,,1659,78,-36.66668701,1,0,0,response3disk,,5,10.66668701,-6,1,0,0,rectangle,98,34,1,0,0,6,6.666656494,1,0,0,0,55,55,116,1,,response1disk_3,TRUE,6,6,"[9,246,21,56,218,189,89,263,164,246,169,57,51,309,192,166,268,192,41,97]",1.5661,rectangle
,,,,,,,,,,,,,FF,,,,,,,,1.0164,,,,,,,,,,,,,,,,,,,,,,60ff130d929d6acef9620518,61036b2ce7a04725683a46be,2021-07-29_20h00.38.270,Simcolourproject_2stim_asymm_v5,2020.2.10,Win32,60,61025ae37ef11b136ea224fe,,,,,,,,,572,45.33337402,96.66665649,1,0,0,response1disk,,7,-14,-7.333343506,1,0,0,rectangle,-36.66662598,-90,1,0,0,19.33337402,-0.666687012,1,0,0,0,56,56,59,1,,response5disk_3,TRUE,3,3,"[9,246,21,56,218,189,89,263,164,246,169,57,51,309,192,166,268,192,41,97]",1.3825,rectangle
,,,,,,,,,,,,,FF,,,,,,,,4.8663,,,,,,,,,,,,,,,,,,,,,,60ff130d929d6acef9620518,61036b2ce7a04725683a46be,2021-07-29_20h00.38.270,Simcolourproject_2stim_asymm_v5,2020.2.10,Win32,60,61025ae37ef11b136ea224fe,,,,,,,,,340,28.66668701,-70,1,0,0,response3disk,,4,-0.666625977,-0.666687012,1,0,0,rectangle,-0.666625977,-0.666687012,1,0,0,-0.666625977,-0.666687012,1,0,0,0,57,57,45,1,,,,,,,,
,,,,,,,,,,,,,FF,,,,,,,,0.8459,,,,,,,,,,,,,,,,,,,,,,60ff130d929d6acef9620518,61036b2ce7a04725683a46be,2021-07-29_20h00.38.270,Simcolourproject_2stim_asymm_v5,2020.2.10,Win32,60,61025ae37ef11b136ea224fe,,,,,,,,,4207,-82.66662598,33.33331299,1,0,0,response7disk,,1,-16,13.33331299,1,0,0,rectangle,-16,13.33331299,1,0,0,-16,13.33331299,1,0,0,0,58,58,79,1,,,,,,,,
,,,,,,,,,,,,,FF,,,,,,,,1.6496,,,,,,,,,,,,,,,,,,,,,,60ff130d929d6acef9620518,61036b2ce7a04725683a46be,2021-07-29_20h00.38.270,Simcolourproject_2stim_asymm_v5,2020.2.10,Win32,60,61025ae37ef11b136ea224fe,,,,,,,,,4038,62.66668701,-41.33334351,1,0,0,response3disk,,5,11.33337402,1.333312988,1,0,0,rectangle,11.33337402,1.333312988,1,0,0,11.33337402,1.333312988,1,0,0,0,59,59,16,1,,,,,,,,
,,,,,,,,,,,,,FF,,,,,,,,0.5999,,,,,,,,,,,,,,,,,,,,,,60ff130d929d6acef9620518,61036b2ce7a04725683a46be,2021-07-29_20h00.38.270,Simcolourproject_2stim_asymm_v5,2020.2.10,Win32,60,61025ae37ef11b136ea224fe,,,,,,,,,2601,-38.66662598,83.33331299,1,0,0,response7disk,,0,-20.66662598,-2,1,0,0,rectangle,-20.66662598,-2,1,0,0,-20.66662598,-2,1,0,0,0,60,60,77,1,,,,,,,,
,,,,,,,,,,,,,FF,,,,,,,,1.0994,,,,,,,,,,,,,,,,,,,,,,60ff130d929d6acef9620518,61036b2ce7a04725683a46be,2021-07-29_20h00.38.270,Simcolourproject_2stim_asymm_v5,2020.2.10,Win32,60,61025ae37ef11b136ea224fe,,,,,,,,,328,76,-34,1,0,0,response3disk,,5,6.666687012,8.666656494,1,0,0,rectangle,6.666687012,8.666656494,1,0,0,6.666687012,8.666656494,1,0,0,0,61,61,95,1,,,,,,,,
,,,,,,,,,,,,,FF,,,,,,,,1.7443,,,,,,,,,,,,,,,,,,,,,,60ff130d929d6acef9620518,61036b2ce7a04725683a46be,2021-07-29_20h00.38.270,Simcolourproject_2stim_asymm_v5,2020.2.10,Win32,60,61025ae37ef11b136ea224fe,,,,,,,,,1938,31.33337402,92,1,0,0,response1disk,,7,-0.666625977,8,1,0,0,rectangle,-0.666625977,8,1,0,0,-0.666625977,8,1,0,0,0,62,62,17,1,,,,,,,,
,,,,,,,,,,,,,FF,,,,,,,,0.7993,,,,,,,,,,,,,,,,,,,,,,60ff130d929d6acef9620518,61036b2ce7a04725683a46be,2021-07-29_20h00.38.270,Simcolourproject_2stim_asymm_v5,2020.2.10,Win32,60,61025ae37ef11b136ea224fe,,,,,,,,,295,80,32.66665649,1,0,0,response1disk,,6,4,-2.666687012,1,0,0,rectangle,4,-2.666687012,1,0,0,4,-2.666687012,1,0,0,0,63,63,23,1,,,,,,,,
,,,,,,,,,,,,,FF,,,,,,,,1.45,,,,,,,,,,,,,,,,,,,,,,60ff130d929d6acef9620518,61036b2ce7a04725683a46be,2021-07-29_20h00.38.270,Simcolourproject_2stim_asymm_v5,2020.2.10,Win32,60,61025ae37ef11b136ea224fe,,,,,,,,,1827,-43.33331299,-109.3333435,1,0,0,response5disk,,3,20,-2.666687012,1,0,0,rectangle,20,-2.666687012,1,0,0,20,-2.666687012,1,0,0,0,64,64,86,1,,,,,,,,
,,,,,,,,,,,,,FF,,,,,,,,1.149,,,,,,,,,,,,,,,,,,,,,,60ff130d929d6acef9620518,61036b2ce7a04725683a46be,2021-07-29_20h00.38.270,Simcolourproject_2stim_asymm_v5,2020.2.10,Win32,60,61025ae37ef11b136ea224fe,,,,,,,,,1983,28.66668701,-90,1,0,0,response3disk,,4,2.666687012,-7.333343506,1,0,0,rectangle,2.666687012,-7.333343506,1,0,0,2.666687012,-7.333343506,1,0,0,0,65,65,12,1,,,,,,,,
,,,,,,,,,,,,,FF,,,,,,,,1.2824,,,,,,,,,,,,,,,,,,,,,,60ff130d929d6acef9620518,61036b2ce7a04725683a46be,2021-07-29_20h00.38.270,Simcolourproject_2stim_asymm_v5,2020.2.10,Win32,60,61025ae37ef11b136ea224fe,,,,,,,,,1951,-36.66662598,-88.66668701,1,0,0,response5disk,,3,3.333374023,-12,1,0,0,rectangle,3.333374023,-12,1,0,0,3.333374023,-12,1,0,0,0,66,66,81,1,,,,,,,,
,,,,,,,,,,,,,FF,,,,,,,,0.683,,,,,,,,,,,,,,,,,,,,,,60ff130d929d6acef9620518,61036b2ce7a04725683a46be,2021-07-29_20h00.38.270,Simcolourproject_2stim_asymm_v5,2020.2.10,Win32,60,61025ae37ef11b136ea224fe,,,,,,,,,3739,81.33337402,-38.66668701,1,0,0,response3disk,,5,-12.66662598,7.333312988,1,0,0,rectangle,-12.66662598,7.333312988,1,0,0,-12.66662598,7.333312988,1,0,0,0,67,67,131,1,,,,,,,,
,,,,,,,,,,,,,FF,,,,,,,,1.467,,,,,,,,,,,,,,,,,,,,,,60ff130d929d6acef9620518,61036b2ce7a04725683a46be,2021-07-29_20h00.38.270,Simcolourproject_2stim_asymm_v5,2020.2.10,Win32,60,61025ae37ef11b136ea224fe,,,,,,,,,3167,43.33337402,-95.33334351,1,0,0,response3disk,,4,0.666687012,-8.666687012,1,0,0,rectangle,0.666687012,-8.666687012,1,0,0,0.666687012,-8.666687012,1,0,0,0,68,68,3,1,,,,,,,,
,,,,,,,,,,,,,FF,,,,,,,,0.9336,,,,,,,,,,,,,,,,,,,,,,60ff130d929d6acef9620518,61036b2ce7a04725683a46be,2021-07-29_20h00.38.270,Simcolourproject_2stim_asymm_v5,2020.2.10,Win32,60,61025ae37ef11b136ea224fe,,,,,,,,,909,-40.66662598,-96.66668701,1,0,0,response5disk,,3,10,5.333312988,1,0,0,rectangle,10,5.333312988,1,0,0,10,5.333312988,1,0,0,0,69,69,32,1,,,,,,,,
,,,,,,,,,,,,,FF,,,,,,,,1.6327,,,,,,,,,,,,,,,,,,,,,,60ff130d929d6acef9620518,61036b2ce7a04725683a46be,2021-07-29_20h00.38.270,Simcolourproject_2stim_asymm_v5,2020.2.10,Win32,60,61025ae37ef11b136ea224fe,,,,,,,,,1471,82.66668701,-42,1,0,0,response3disk,,5,0,-10,1,0,0,rectangle,0,-10,1,0,0,0,-10,1,0,0,0,70,70,110,1,,,,,,,,
,,,,,,,,,,,,,FF,,,,,,,,1.7995,,,,,,,,,,,,,,,,,,,,,,60ff130d929d6acef9620518,61036b2ce7a04725683a46be,2021-07-29_20h00.38.270,Simcolourproject_2stim_asymm_v5,2020.2.10,Win32,60,61025ae37ef11b136ea224fe,,,,,,,,,1168,41.33337402,87.33331299,1,0,0,response1disk,,7,6.666687012,-5.333343506,1,0,0,rectangle,6.666687012,-5.333343506,1,0,0,6.666687012,-5.333343506,1,0,0,0,71,71,125,1,,,,,,,,
,,,,,,,,,,,,,FF,,,,,,,,0.7667,,,,,,,,,,,,,,,,,,,,,,60ff130d929d6acef9620518,61036b2ce7a04725683a46be,2021-07-29_20h00.38.270,Simcolourproject_2stim_asymm_v5,2020.2.10,Win32,60,61025ae37ef11b136ea224fe,,,,,,,,,1718,56.66668701,-76,1,0,0,response3disk,,4,13.33337402,14,1,0,0,rectangle,13.33337402,14,1,0,0,13.33337402,14,1,0,0,0,72,72,58,1,,,,,,,,
,,,,,,,,,,,,,FF,,,,,,,,0.7665,,,,,,,,,,,,,,,,,,,,,,60ff130d929d6acef9620518,61036b2ce7a04725683a46be,2021-07-29_20h00.38.270,Simcolourproject_2stim_asymm_v5,2020.2.10,Win32,60,61025ae37ef11b136ea224fe,,,,,,,,,1546,78.66668701,-46.66668701,1,0,0,response3disk,,5,14,8.666656494,1,0,0,rectangle,14,8.666656494,1,0,0,14,8.666656494,1,0,0,0,73,73,103,1,,,,,,,,
,,,,,,,,,,,,,FF,,,,,,,,0.7112,,,,,,,,,,,,,,,,,,,,,,60ff130d929d6acef9620518,61036b2ce7a04725683a46be,2021-07-29_20h00.38.270,Simcolourproject_2stim_asymm_v5,2020.2.10,Win32,60,61025ae37ef11b136ea224fe,,,,,,,,,2480,-87.33331299,-28,1,0,0,response5disk,,2,2,4,1,0,0,rectangle,2,4,1,0,0,2,4,1,0,0,0,74,74,61,1,,,,,,,,
,,,,,,,,,,,,,FF,,,,,,,,0.7994,,,,,,,,,,,,,,,,,,,,,,60ff130d929d6acef9620518,61036b2ce7a04725683a46be,2021-07-29_20h00.38.270,Simcolourproject_2stim_asymm_v5,2020.2.10,Win32,60,61025ae37ef11b136ea224fe,,,,,,,,,901,-39.33331299,-61.33334351,1,0,0,response5disk,,3,3.333374023,-5.333343506,1,0,0,rectangle,3.333374023,-5.333343506,1,0,0,3.333374023,-5.333343506,1,0,0,0,75,75,142,1,,,,,,,,
,,,,,,,,,,,,,FF,,,,,,,,0.9662,,,,,,,,,,,,,,,,,,,,,,60ff130d929d6acef9620518,61036b2ce7a04725683a46be,2021-07-29_20h00.38.270,Simcolourproject_2stim_asymm_v5,2020.2.10,Win32,60,61025ae37ef11b136ea224fe,,,,,,,,,4196,87.33337402,-54,1,0,0,response3disk,,5,-3.333312988,6.666656494,1,0,0,rectangle,-3.333312988,6.666656494,1,0,0,-3.333312988,6.666656494,1,0,0,0,76,76,67,1,,,,,,,,
,,,,,,,,,,,,,FF,,,,,,,,2.4665,,,,,,,,,,,,,,,,,,,,,,60ff130d929d6acef9620518,61036b2ce7a04725683a46be,2021-07-29_20h00.38.270,Simcolourproject_2stim_asymm_v5,2020.2.10,Win32,60,61025ae37ef11b136ea224fe,,,,,,,,,67,30,-85.33334351,1,0,0,response3disk,,4,8,3.333312988,1,0,0,rectangle,8,3.333312988,1,0,0,8,3.333312988,1,0,0,0,77,77,70,1,,,,,,,,
,,,,,,,,,,,,,FF,,,,,,,,0.9163,,,,,,,,,,,,,,,,,,,,,,60ff130d929d6acef9620518,61036b2ce7a04725683a46be,2021-07-29_20h00.38.270,Simcolourproject_2stim_asymm_v5,2020.2.10,Win32,60,61025ae37ef11b136ea224fe,,,,,,,,,3514,-102.666626,-46.66668701,1,0,0,response5disk,,2,-7.333312988,1.333312988,1,0,0,rectangle,-7.333312988,1.333312988,1,0,0,-7.333312988,1.333312988,1,0,0,0,78,78,30,1,,,,,,,,
,,,,,,,,,,,,,FF,,,,,,,,0.8164,,,,,,,,,,,,,,,,,,,,,,60ff130d929d6acef9620518,61036b2ce7a04725683a46be,2021-07-29_20h00.38.270,Simcolourproject_2stim_asymm_v5,2020.2.10,Win32,60,61025ae37ef11b136ea224fe,,,,,,,,,1736,-82.66662598,-42,1,0,0,response5disk,,2,-12.66662598,-13.33334351,1,0,0,rectangle,-12.66662598,-13.33334351,1,0,0,-12.66662598,-13.33334351,1,0,0,0,79,79,94,1,,,,,,,,
,,,,,,,,,,,,,FF,,,,,,,,0.8001,,,,,,,,,,,,,,,,,,,,,,60ff130d929d6acef9620518,61036b2ce7a04725683a46be,2021-07-29_20h00.38.270,Simcolourproject_2stim_asymm_v5,2020.2.10,Win32,60,61025ae37ef11b136ea224fe,,,,,,,,,1401,85.33337402,-38,1,0,0,response3disk,,5,13.33337402,-6.666687012,1,0,0,rectangle,13.33337402,-6.666687012,1,0,0,13.33337402,-6.666687012,1,0,0,0,80,80,39,1,,,,,,,,
,,,,,,,,,,,,,FF,,,,,,,,0.7334,,,,,,,,,,,,,,,,,,,,,,60ff130d929d6acef9620518,61036b2ce7a04725683a46be,2021-07-29_20h00.38.270,Simcolourproject_2stim_asymm_v5,2020.2.10,Win32,60,61025ae37ef11b136ea224fe,,,,,,,,,549,-36,-70.66668701,1,0,0,response5disk,,3,-2.666625977,8.666656494,1,0,0,rectangle,-2.666625977,8.666656494,1,0,0,-2.666625977,8.666656494,1,0,0,0,81,81,106,1,,,,,,,,
,,,,,,,,,,,,,FF,,,,,,,,0.8169,,,,,,,,,,,,,,,,,,,,,,60ff130d929d6acef9620518,61036b2ce7a04725683a46be,2021-07-29_20h00.38.270,Simcolourproject_2stim_asymm_v5,2020.2.10,Win32,60,61025ae37ef11b136ea224fe,,,,,,,,,2338,72,-52,1,0,0,response3disk,,5,8.666687012,3.333312988,1,0,0,rectangle,8.666687012,3.333312988,1,0,0,8.666687012,3.333312988,1,0,0,0,82,82,101,1,,,,,,,,
,,,,,,,,,,,,,FF,,,,,,,,0.8666,,,,,,,,,,,,,,,,,,,,,,60ff130d929d6acef9620518,61036b2ce7a04725683a46be,2021-07-29_20h00.38.270,Simcolourproject_2stim_asymm_v5,2020.2.10,Win32,60,61025ae37ef11b136ea224fe,,,,,,,,,2831,-56,90.66665649,1,0,0,response7disk,,0,-1.333312988,-3.333343506,1,0,0,rectangle,-1.333312988,-3.333343506,1,0,0,-1.333312988,-3.333343506,1,0,0,0,83,83,93,1,,,,,,,,
,,,,,,,,,,,,,FF,,,,,,,,1.6761,,,,,,,,,,,,,,,,,,,,,,60ff130d929d6acef9620518,61036b2ce7a04725683a46be,2021-07-29_20h00.38.270,Simcolourproject_2stim_asymm_v5,2020.2.10,Win32,60,61025ae37ef11b136ea224fe,,,,,,,,,2534,-86,-42.66668701,1,0,0,response5disk,,2,10.66668701,-11.33334351,1,0,0,rectangle,10.66668701,-11.33334351,1,0,0,10.66668701,-11.33334351,1,0,0,0,84,84,57,1,,,,,,,,
,,,,,,,,,,,,,FF,,,,,,,,0.8004,,,,,,,,,,,,,,,,,,,,,,60ff130d929d6acef9620518,61036b2ce7a04725683a46be,2021-07-29_20h00.38.270,Simcolourproject_2stim_asymm_v5,2020.2.10,Win32,60,61025ae37ef11b136ea224fe,,,,,,,,,2736,74,27.33331299,1,0,0,response1disk,,6,-26,-4.666687012,1,0,0,rectangle,-26,-4.666687012,1,0,0,-26,-4.666687012,1,0,0,0,85,85,154,1,,,,,,,,
,,,,,,,,,,,,,FF,,,,,,,,1.0164,,,,,,,,,,,,,,,,,,,,,,60ff130d929d6acef9620518,61036b2ce7a04725683a46be,2021-07-29_20h00.38.270,Simcolourproject_2stim_asymm_v5,2020.2.10,Win32,60,61025ae37ef11b136ea224fe,,,,,,,,,3344,37.33337402,96,1,0,0,response1disk,,7,-6,9.333312988,1,0,0,rectangle,-6,9.333312988,1,0,0,-6,9.333312988,1,0,0,0,86,86,99,1,,,,,,,,
,,,,,,,,,,,,,FF,,,,,,,,1.2,,,,,,,,,,,,,,,,,,,,,,60ff130d929d6acef9620518,61036b2ce7a04725683a46be,2021-07-29_20h00.38.270,Simcolourproject_2stim_asymm_v5,2020.2.10,Win32,60,61025ae37ef11b136ea224fe,,,,,,,,,3443,84,-47.33334351,1,0,0,response3disk,,5,-2,-0.666687012,1,0,0,rectangle,-2,-0.666687012,1,0,0,-2,-0.666687012,1,0,0,0,87,87,4,1,,,,,,,,
,,,,,,,,,,,,,FF,,,,,,,,1.467,,,,,,,,,,,,,,,,,,,,,,60ff130d929d6acef9620518,61036b2ce7a04725683a46be,2021-07-29_20h00.38.270,Simcolourproject_2stim_asymm_v5,2020.2.10,Win32,60,61025ae37ef11b136ea224fe,,,,,,,,,39,86.66668701,34,1,0,0,response1disk,,6,2.666687012,-6.666687012,1,0,0,rectangle,-38.66662598,104,1,0,0,18,4,1,0,0,0,88,88,29,1,,response7disk_3,TRUE,0,0,"[9,246,21,56,218,189,89,263,164,246,169,57,51,309,192,166,268,192,41,97]",1.5321,rectangle
,,,,,,,,,,,,,FF,,,,,,,,0.8661,,,,,,,,,,,,,,,,,,,,,,60ff130d929d6acef9620518,61036b2ce7a04725683a46be,2021-07-29_20h00.38.270,Simcolourproject_2stim_asymm_v5,2020.2.10,Win32,60,61025ae37ef11b136ea224fe,,,,,,,,,1450,-36,-70,1,0,0,response5disk,,3,1.333374023,7.333312988,1,0,0,rectangle,1.333374023,7.333312988,1,0,0,1.333374023,7.333312988,1,0,0,0,89,89,31,1,,,,,,,,
,,,,,,,,,,,,,FF,,,,,,,,0.7,,,,,,,,,,,,,,,,,,,,,,60ff130d929d6acef9620518,61036b2ce7a04725683a46be,2021-07-29_20h00.38.270,Simcolourproject_2stim_asymm_v5,2020.2.10,Win32,60,61025ae37ef11b136ea224fe,,,,,,,,,1326,36,-82,1,0,0,response3disk,,4,1.333374023,-10.66668701,1,0,0,rectangle,1.333374023,-10.66668701,1,0,0,1.333374023,-10.66668701,1,0,0,0,90,90,113,1,,,,,,,,
,,,,,,,,,,,,,FF,,,,,,,,1.0338,,,,,,,,,,,,,,,,,,,,,,60ff130d929d6acef9620518,61036b2ce7a04725683a46be,2021-07-29_20h00.38.270,Simcolourproject_2stim_asymm_v5,2020.2.10,Win32,60,61025ae37ef11b136ea224fe,,,,,,,,,2460,96,33.33331299,1,0,0,response1disk,,6,3.333374023,1.333312988,1,0,0,rectangle,3.333374023,1.333312988,1,0,0,3.333374023,1.333312988,1,0,0,0,91,91,44,1,,,,,,,,
,,,,,,,,,,,,,FF,,,,,,,,1.5167,,,,,,,,,,,,,,,,,,,,,,60ff130d929d6acef9620518,61036b2ce7a04725683a46be,2021-07-29_20h00.38.270,Simcolourproject_2stim_asymm_v5,2020.2.10,Win32,60,61025ae37ef11b136ea224fe,,,,,,,,,2108,-80,-47.33334351,1,0,0,response5disk,,2,12.66668701,6,1,0,0,rectangle,12.66668701,6,1,0,0,12.66668701,6,1,0,0,0,92,92,73,1,,,,,,,,
,,,,,,,,,,,,,FF,,,,,,,,1.3333,,,,,,,,,,,,,,,,,,,,,,60ff130d929d6acef9620518,61036b2ce7a04725683a46be,2021-07-29_20h00.38.270,Simcolourproject_2stim_asymm_v5,2020.2.10,Win32,60,61025ae37ef11b136ea224fe,,,,,,,,,3516,-74,31.33331299,1,0,0,response7disk,,1,2.666687012,-1.333343506,1,0,0,rectangle,2.666687012,-1.333343506,1,0,0,2.666687012,-1.333343506,1,0,0,0,93,93,92,1,,,,,,,,
,,,,,,,,,,,,,FF,,,,,,,,0.6603,,,,,,,,,,,,,,,,,,,,,,60ff130d929d6acef9620518,61036b2ce7a04725683a46be,2021-07-29_20h00.38.270,Simcolourproject_2stim_asymm_v5,2020.2.10,Win32,60,61025ae37ef11b136ea224fe,,,,,,,,,2418,-34.66662598,81.33331299,1,0,0,response7disk,,0,12.66668701,-6.666687012,1,0,0,rectangle,12.66668701,-6.666687012,1,0,0,12.66668701,-6.666687012,1,0,0,0,94,94,126,1,,,,,,,,
,,,,,,,,,,,,,FF,,,,,,,,1.3003,,,,,,,,,,,,,,,,,,,,,,60ff130d929d6acef9620518,61036b2ce7a04725683a46be,2021-07-29_20h00.38.270,Simcolourproject_2stim_asymm_v5,2020.2.10,Win32,60,61025ae37ef11b136ea224fe,,,,,,,,,2227,-86,36,1,0,0,response7disk,,1,3.333374023,11.33331299,1,0,0,rectangle,3.333374023,11.33331299,1,0,0,3.333374023,11.33331299,1,0,0,0,95,95,88,1,,,,,,,,
,,,,,,,,,,,,,FF,,,,,,,,0.9837,,,,,,,,,,,,,,,,,,,,,,60ff130d929d6acef9620518,61036b2ce7a04725683a46be,2021-07-29_20h00.38.270,Simcolourproject_2stim_asymm_v5,2020.2.10,Win32,60,61025ae37ef11b136ea224fe,,,,,,,,,2328,76,-36,1,0,0,response3disk,,5,1.333374023,-5.333343506,1,0,0,rectangle,64.66668701,-24,1,0,0,4,4,1,0,0,0,96,96,5,1,,response3disk_3,TRUE,5,5,"[9,246,21,56,218,189,89,263,164,246,169,57,51,309,192,166,268,192,41,97]",1.5829,rectangle
,,,,,,,,,,,,,FF,,,,,,,,1.9827,,,,,,,,,,,,,,,,,,,,,,60ff130d929d6acef9620518,61036b2ce7a04725683a46be,2021-07-29_20h00.38.270,Simcolourproject_2stim_asymm_v5,2020.2.10,Win32,60,61025ae37ef11b136ea224fe,,,,,,,,,2822,28.66668701,85.33331299,1,0,0,response1disk,,7,-0.666625977,-2.666687012,1,0,0,rectangle,-0.666625977,-2.666687012,1,0,0,-0.666625977,-2.666687012,1,0,0,0,97,97,153,1,,,,,,,,
,,,,,,,,,,,,,FF,,,,,,,,1.8432,,,,,,,,,,,,,,,,,,,,,,60ff130d929d6acef9620518,61036b2ce7a04725683a46be,2021-07-29_20h00.38.270,Simcolourproject_2stim_asymm_v5,2020.2.10,Win32,60,61025ae37ef11b136ea224fe,,,,,,,,,2781,-92,-43.33334351,1,0,0,response5disk,,2,2,9.333312988,1,0,0,rectangle,2,9.333312988,1,0,0,2,9.333312988,1,0,0,0,98,98,68,1,,,,,,,,
,,,,,,,,,,,,,FF,,,,,,,,1.0164,,,,,,,,,,,,,,,,,,,,,,60ff130d929d6acef9620518,61036b2ce7a04725683a46be,2021-07-29_20h00.38.270,Simcolourproject_2stim_asymm_v5,2020.2.10,Win32,60,61025ae37ef11b136ea224fe,,,,,,,,,3019,82,-48.66668701,1,0,0,response3disk,,5,-2.666625977,-4.666687012,1,0,0,rectangle,-2.666625977,-4.666687012,1,0,0,-2.666625977,-4.666687012,1,0,0,0,99,99,130,1,,,,,,,,
,,,,,,,,,,,,,FF,,,,,,,,1.0501,,,,,,,,,,,,,,,,,,,,,,60ff130d929d6acef9620518,61036b2ce7a04725683a46be,2021-07-29_20h00.38.270,Simcolourproject_2stim_asymm_v5,2020.2.10,Win32,60,61025ae37ef11b136ea224fe,,,,,,,,,3108,-85.33331299,-37.33334351,1,0,0,response5disk,,2,-4.666625977,-10.66668701,1,0,0,rectangle,-4.666625977,-10.66668701,1,0,0,-4.666625977,-10.66668701,1,0,0,0,100,100,21,1,,,,,,,,
,,,,,,,,,,,,,FF,,,,,,,,2.8338,,,,,,,,,,,,,,,,,,,,,,60ff130d929d6acef9620518,61036b2ce7a04725683a46be,2021-07-29_20h00.38.270,Simcolourproject_2stim_asymm_v5,2020.2.10,Win32,60,61025ae37ef11b136ea224fe,,,,,,,,,3808,82,52.66665649,1,0,0,response1disk,,6,1.333374023,0.666656494,1,0,0,rectangle,1.333374023,0.666656494,1,0,0,1.333374023,0.666656494,1,0,0,0,101,101,40,1,,,,,,,,
,,,,,,,,,,,,,FF,,,,,,,,0.9327,,,,,,,,,,,,,,,,,,,,,,60ff130d929d6acef9620518,61036b2ce7a04725683a46be,2021-07-29_20h00.38.270,Simcolourproject_2stim_asymm_v5,2020.2.10,Win32,60,61025ae37ef11b136ea224fe,,,,,,,,,3387,74,-49.33334351,1,0,0,response3disk,,5,2,-4.666687012,1,0,0,rectangle,2,-4.666687012,1,0,0,2,-4.666687012,1,0,0,0,102,102,122,1,,,,,,,,
,,,,,,,,,,,,,FF,,,,,,,,1.1166,,,,,,,,,,,,,,,,,,,,,,60ff130d929d6acef9620518,61036b2ce7a04725683a46be,2021-07-29_20h00.38.270,Simcolourproject_2stim_asymm_v5,2020.2.10,Win32,60,61025ae37ef11b136ea224fe,,,,,,,,,3940,-45.33331299,-94.66668701,1,0,0,response5disk,,3,-4,8.666656494,1,0,0,rectangle,-4,8.666656494,1,0,0,-4,8.666656494,1,0,0,0,103,103,146,1,,,,,,,,
,,,,,,,,,,,,,FF,,,,,,,,1.1597,,,,,,,,,,,,,,,,,,,,,,60ff130d929d6acef9620518,61036b2ce7a04725683a46be,2021-07-29_20h00.38.270,Simcolourproject_2stim_asymm_v5,2020.2.10,Win32,60,61025ae37ef11b136ea224fe,,,,,,,,,3800,47.33337402,-96.66668701,1,0,0,response3disk,,4,13.33337402,-2,1,0,0,rectangle,13.33337402,-2,1,0,0,13.33337402,-2,1,0,0,0,104,104,65,1,,,,,,,,
,,,,,,,,,,,,,FF,,,,,,,,2.3168,,,,,,,,,,,,,,,,,,,,,,60ff130d929d6acef9620518,61036b2ce7a04725683a46be,2021-07-29_20h00.38.270,Simcolourproject_2stim_asymm_v5,2020.2.10,Win32,60,61025ae37ef11b136ea224fe,,,,,,,,,3278,101.333374,28.66665649,1,0,0,response1disk,,6,18.66668701,4,1,0,0,rectangle,18.66668701,4,1,0,0,18.66668701,4,1,0,0,0,105,105,157,1,,,,,,,,
,,,,,,,,,,,,,FF,,,,,,,,1.266,,,,,,,,,,,,,,,,,,,,,,60ff130d929d6acef9620518,61036b2ce7a04725683a46be,2021-07-29_20h00.38.270,Simcolourproject_2stim_asymm_v5,2020.2.10,Win32,60,61025ae37ef11b136ea224fe,,,,,,,,,3636,38,-82,1,0,0,response3disk,,4,8.666687012,1.333312988,1,0,0,rectangle,8.666687012,1.333312988,1,0,0,8.666687012,1.333312988,1,0,0,0,106,106,63,1,,,,,,,,
,,,,,,,,,,,,,FF,,,,,,,,0.9599,,,,,,,,,,,,,,,,,,,,,,60ff130d929d6acef9620518,61036b2ce7a04725683a46be,2021-07-29_20h00.38.270,Simcolourproject_2stim_asymm_v5,2020.2.10,Win32,60,61025ae37ef11b136ea224fe,,,,,,,,,1244,80,-36,1,0,0,response3disk,,5,5.333374023,-6,1,0,0,rectangle,5.333374023,-6,1,0,0,5.333374023,-6,1,0,0,0,107,107,19,1,,,,,,,,
,,,,,,,,,,,,,FF,,,,,,,,1.066,,,,,,,,,,,,,,,,,,,,,,60ff130d929d6acef9620518,61036b2ce7a04725683a46be,2021-07-29_20h00.38.270,Simcolourproject_2stim_asymm_v5,2020.2.10,Win32,60,61025ae37ef11b136ea224fe,,,,,,,,,4047,-73.33331299,-32.66668701,1,0,0,response5disk,,2,14.66668701,-6,1,0,0,rectangle,14.66668701,-6,1,0,0,14.66668701,-6,1,0,0,0,108,108,72,1,,,,,,,,
,,,,,,,,,,,,,FF,,,,,,,,1.4169,,,,,,,,,,,,,,,,,,,,,,60ff130d929d6acef9620518,61036b2ce7a04725683a46be,2021-07-29_20h00.38.270,Simcolourproject_2stim_asymm_v5,2020.2.10,Win32,60,61025ae37ef11b136ea224fe,,,,,,,,,1341,54.66668701,90,1,0,0,response1disk,,7,7.333374023,-3.333343506,1,0,0,rectangle,7.333374023,-3.333343506,1,0,0,7.333374023,-3.333343506,1,0,0,0,109,109,87,1,,,,,,,,
,,,,,,,,,,,,,FF,,,,,,,,0.6494,,,,,,,,,,,,,,,,,,,,,,60ff130d929d6acef9620518,61036b2ce7a04725683a46be,2021-07-29_20h00.38.270,Simcolourproject_2stim_asymm_v5,2020.2.10,Win32,60,61025ae37ef11b136ea224fe,,,,,,,,,1177,26.66668701,70,1,0,0,response1disk,,7,-12,6,1,0,0,rectangle,-12,6,1,0,0,-12,6,1,0,0,0,110,110,71,1,,,,,,,,
,,,,,,,,,,,,,FF,,,,,,,,1.499,,,,,,,,,,,,,,,,,,,,,,60ff130d929d6acef9620518,61036b2ce7a04725683a46be,2021-07-29_20h00.38.270,Simcolourproject_2stim_asymm_v5,2020.2.10,Win32,60,61025ae37ef11b136ea224fe,,,,,,,,,993,32.66668701,-73.33334351,1,0,0,response3disk,,4,10,-2,1,0,0,rectangle,10,-2,1,0,0,10,-2,1,0,0,0,111,111,43,1,,,,,,,,
,,,,,,,,,,,,,FF,,,,,,,,1.3668,,,,,,,,,,,,,,,,,,,,,,60ff130d929d6acef9620518,61036b2ce7a04725683a46be,2021-07-29_20h00.38.270,Simcolourproject_2stim_asymm_v5,2020.2.10,Win32,60,61025ae37ef11b136ea224fe,,,,,,,,,4336,-78.66662598,37.33331299,1,0,0,response7disk,,1,2,-1.333343506,1,0,0,rectangle,2,-1.333343506,1,0,0,2,-1.333343506,1,0,0,0,112,112,25,1,,,,,,,,
,,,,,,,,,,,,,FF,,,,,,,,0.9498,,,,,,,,,,,,,,,,,,,,,,60ff130d929d6acef9620518,61036b2ce7a04725683a46be,2021-07-29_20h00.38.270,Simcolourproject_2stim_asymm_v5,2020.2.10,Win32,60,61025ae37ef11b136ea224fe,,,,,,,,,2901,-70,-32.66668701,1,0,0,response5disk,,2,4.666687012,-7.333343506,1,0,0,rectangle,4.666687012,-7.333343506,1,0,0,4.666687012,-7.333343506,1,0,0,0,113,113,139,1,,,,,,,,
,,,,,,,,,,,,,FF,,,,,,,,0.5338,,,,,,,,,,,,,,,,,,,,,,60ff130d929d6acef9620518,61036b2ce7a04725683a46be,2021-07-29_20h00.38.270,Simcolourproject_2stim_asymm_v5,2020.2.10,Win32,60,61025ae37ef11b136ea224fe,,,,,,,,,2898,-50.66662598,-69.33334351,1,0,0,response5disk,,3,-12,-5.333343506,1,0,0,rectangle,-12,-5.333343506,1,0,0,-12,-5.333343506,1,0,0,0,114,114,118,1,,,,,,,,
,,,,,,,,,,,,,FF,,,,,,,,0.7156,,,,,,,,,,,,,,,,,,,,,,60ff130d929d6acef9620518,61036b2ce7a04725683a46be,2021-07-29_20h00.38.270,Simcolourproject_2stim_asymm_v5,2020.2.10,Win32,60,61025ae37ef11b136ea224fe,,,,,,,,,3091,-80.66662598,-30.66668701,1,0,0,response5disk,,2,-4.666625977,-8,1,0,0,rectangle,-4.666625977,-8,1,0,0,-4.666625977,-8,1,0,0,0,115,115,53,1,,,,,,,,
,,,,,,,,,,,,,FF,,,,,,,,1.1827,,,,,,,,,,,,,,,,,,,,,,60ff130d929d6acef9620518,61036b2ce7a04725683a46be,2021-07-29_20h00.38.270,Simcolourproject_2stim_asymm_v5,2020.2.10,Win32,60,61025ae37ef11b136ea224fe,,,,,,,,,176,40,100,1,0,0,response1disk,,7,5.333374023,10.66665649,1,0,0,rectangle,5.333374023,10.66665649,1,0,0,5.333374023,10.66665649,1,0,0,0,116,116,20,1,,,,,,,,
,,,,,,,,,,,,,FF,,,,,,,,1.8592,,,,,,,,,,,,,,,,,,,,,,60ff130d929d6acef9620518,61036b2ce7a04725683a46be,2021-07-29_20h00.38.270,Simcolourproject_2stim_asymm_v5,2020.2.10,Win32,60,61025ae37ef11b136ea224fe,,,,,,,,,1121,-44,-74.66668701,1,0,0,response5disk,,3,-6,-4.666687012,1,0,0,rectangle,-6,-4.666687012,1,0,0,-6,-4.666687012,1,0,0,0,117,117,15,1,,,,,,,,
,,,,,,,,,,,,,FF,,,,,,,,0.7834,,,,,,,,,,,,,,,,,,,,,,60ff130d929d6acef9620518,61036b2ce7a04725683a46be,2021-07-29_20h00.38.270,Simcolourproject_2stim_asymm_v5,2020.2.10,Win32,60,61025ae37ef11b136ea224fe,,,,,,,,,3441,48.66668701,-70,1,0,0,response3disk,,4,-1.333312988,10.66665649,1,0,0,rectangle,-1.333312988,10.66665649,1,0,0,-1.333312988,10.66665649,1,0,0,0,118,118,132,1,,,,,,,,
,,,,,,,,,,,,,FF,,,,,,,,1.9258,,,,,,,,,,,,,,,,,,,,,,60ff130d929d6acef9620518,61036b2ce7a04725683a46be,2021-07-29_20h00.38.270,Simcolourproject_2stim_asymm_v5,2020.2.10,Win32,60,61025ae37ef11b136ea224fe,,,,,,,,,1687,27.33337402,-82,1,0,0,response3disk,,4,-8.666625977,-0.666687012,1,0,0,rectangle,-8.666625977,-0.666687012,1,0,0,-8.666625977,-0.666687012,1,0,0,0,119,119,74,1,,,,,,,,
,,,,,,,,,,,,,FF,,,,,,,,1.2837,,,,,,,,,,,,,,,,,,,,,,60ff130d929d6acef9620518,61036b2ce7a04725683a46be,2021-07-29_20h00.38.270,Simcolourproject_2stim_asymm_v5,2020.2.10,Win32,60,61025ae37ef11b136ea224fe,,,,,,,,,3015,83.33337402,-36.66668701,1,0,0,response3disk,,5,-2,0.666656494,1,0,0,rectangle,-2,0.666656494,1,0,0,-2,0.666656494,1,0,0,0,120,120,97,1,,,,,,,,
,,,,,,,,,,,,,FF,,,,,,,,1.05,,,,,,,,,,,,,,,,,,,,,,60ff130d929d6acef9620518,61036b2ce7a04725683a46be,2021-07-29_20h00.38.270,Simcolourproject_2stim_asymm_v5,2020.2.10,Win32,60,61025ae37ef11b136ea224fe,,,,,,,,,3985,67.33337402,-47.33334351,1,0,0,response3disk,,5,-8,7.333312988,1,0,0,rectangle,-8,7.333312988,1,0,0,-8,7.333312988,1,0,0,0,121,121,128,1,,,,,,,,
,,,,,,,,,,,,,FF,,,,,,,,2.0417,,,,,,,,,,,,,,,,,,,,,,60ff130d929d6acef9620518,61036b2ce7a04725683a46be,2021-07-29_20h00.38.270,Simcolourproject_2stim_asymm_v5,2020.2.10,Win32,60,61025ae37ef11b136ea224fe,,,,,,,,,2756,80.66668701,37.33331299,1,0,0,response1disk,,6,-21.33331299,-8.666687012,1,0,0,rectangle,-21.33331299,-8.666687012,1,0,0,-21.33331299,-8.666687012,1,0,0,0,122,122,35,1,,,,,,,,
,,,,,,,,,,,,,FF,,,,,,,,1.3163,,,,,,,,,,,,,,,,,,,,,,60ff130d929d6acef9620518,61036b2ce7a04725683a46be,2021-07-29_20h00.38.270,Simcolourproject_2stim_asymm_v5,2020.2.10,Win32,60,61025ae37ef11b136ea224fe,,,,,,,,,2978,82,32.66665649,1,0,0,response1disk,,6,-2,0,1,0,0,rectangle,-2,0,1,0,0,-2,0,1,0,0,0,123,123,28,1,,,,,,,,
,,,,,,,,,,,,,FF,,,,,,,,0.6998,,,,,,,,,,,,,,,,,,,,,,60ff130d929d6acef9620518,61036b2ce7a04725683a46be,2021-07-29_20h00.38.270,Simcolourproject_2stim_asymm_v5,2020.2.10,Win32,60,61025ae37ef11b136ea224fe,,,,,,,,,2579,65.33337402,20,1,0,0,response1disk,,6,3.333374023,1.333312988,1,0,0,rectangle,3.333374023,1.333312988,1,0,0,3.333374023,1.333312988,1,0,0,0,124,124,11,1,,,,,,,,
,,,,,,,,,,,,,FF,,,,,,,,1.017,,,,,,,,,,,,,,,,,,,,,,60ff130d929d6acef9620518,61036b2ce7a04725683a46be,2021-07-29_20h00.38.270,Simcolourproject_2stim_asymm_v5,2020.2.10,Win32,60,61025ae37ef11b136ea224fe,,,,,,,,,441,-81.33331299,-34,1,0,0,response5disk,,2,-0.666625977,-1.333343506,1,0,0,rectangle,-0.666625977,-1.333343506,1,0,0,-0.666625977,-1.333343506,1,0,0,0,125,125,48,1,,,,,,,,
,,,,,,,,,,,,,FF,,,,,,,,0.6492,,,,,,,,,,,,,,,,,,,,,,60ff130d929d6acef9620518,61036b2ce7a04725683a46be,2021-07-29_20h00.38.270,Simcolourproject_2stim_asymm_v5,2020.2.10,Win32,60,61025ae37ef11b136ea224fe,,,,,,,,,3205,-82,-41.33334351,1,0,0,response5disk,,2,21.33337402,3.333312988,1,0,0,rectangle,21.33337402,3.333312988,1,0,0,21.33337402,3.333312988,1,0,0,0,126,126,149,1,,,,,,,,
,,,,,,,,,,,,,FF,,,,,,,,0.8833,,,,,,,,,,,,,,,,,,,,,,60ff130d929d6acef9620518,61036b2ce7a04725683a46be,2021-07-29_20h00.38.270,Simcolourproject_2stim_asymm_v5,2020.2.10,Win32,60,61025ae37ef11b136ea224fe,,,,,,,,,1680,-46,-66.66668701,1,0,0,response5disk,,3,-10,-8,1,0,0,rectangle,-10,-8,1,0,0,-10,-8,1,0,0,0,127,127,90,1,,,,,,,,
,,,,,,,,,,,,,FF,,,,,,,,2.3661,,,,,,,,,,,,,,,,,,,,,,60ff130d929d6acef9620518,61036b2ce7a04725683a46be,2021-07-29_20h00.38.270,Simcolourproject_2stim_asymm_v5,2020.2.10,Win32,60,61025ae37ef11b136ea224fe,,,,,,,,,1071,48.66668701,-79.33334351,1,0,0,response3disk,,4,8,2.666656494,1,0,0,rectangle,8,2.666656494,1,0,0,8,2.666656494,1,0,0,0,128,128,2,1,,,,,,,,
,,,,,,,,,,,,,FF,,,,,,,,0.5825,,,,,,,,,,,,,,,,,,,,,,60ff130d929d6acef9620518,61036b2ce7a04725683a46be,2021-07-29_20h00.38.270,Simcolourproject_2stim_asymm_v5,2020.2.10,Win32,60,61025ae37ef11b136ea224fe,,,,,,,,,2377,45.33337402,-85.33334351,1,0,0,response3disk,,4,2.666687012,-4,1,0,0,rectangle,2.666687012,-4,1,0,0,2.666687012,-4,1,0,0,0,129,129,135,1,,,,,,,,
,,,,,,,,,,,,,FF,,,,,,,,1.2501,,,,,,,,,,,,,,,,,,,,,,60ff130d929d6acef9620518,61036b2ce7a04725683a46be,2021-07-29_20h00.38.270,Simcolourproject_2stim_asymm_v5,2020.2.10,Win32,60,61025ae37ef11b136ea224fe,,,,,,,,,1119,29.33337402,-74.66668701,1,0,0,response3disk,,4,0.666687012,-8.666687012,1,0,0,rectangle,0.666687012,-8.666687012,1,0,0,0.666687012,-8.666687012,1,0,0,0,130,130,104,1,,,,,,,,
,,,,,,,,,,,,,FF,,,,,,,,1.2001,,,,,,,,,,,,,,,,,,,,,,60ff130d929d6acef9620518,61036b2ce7a04725683a46be,2021-07-29_20h00.38.270,Simcolourproject_2stim_asymm_v5,2020.2.10,Win32,60,61025ae37ef11b136ea224fe,,,,,,,,,978,78.66668701,-35.33334351,1,0,0,response3disk,,5,-4,2,1,0,0,rectangle,-4,2,1,0,0,-4,2,1,0,0,0,131,131,120,1,,,,,,,,
,,,,,,,,,,,,,FF,,,,,,,,1.0827,,,,,,,,,,,,,,,,,,,,,,60ff130d929d6acef9620518,61036b2ce7a04725683a46be,2021-07-29_20h00.38.270,Simcolourproject_2stim_asymm_v5,2020.2.10,Win32,60,61025ae37ef11b136ea224fe,,,,,,,,,2208,94.66668701,36.66665649,1,0,0,response1disk,,6,17.33337402,8,1,0,0,rectangle,17.33337402,8,1,0,0,17.33337402,8,1,0,0,0,132,132,143,1,,,,,,,,
,,,,,,,,,,,,,FF,,,,,,,,1.5328,,,,,,,,,,,,,,,,,,,,,,60ff130d929d6acef9620518,61036b2ce7a04725683a46be,2021-07-29_20h00.38.270,Simcolourproject_2stim_asymm_v5,2020.2.10,Win32,60,61025ae37ef11b136ea224fe,,,,,,,,,2792,-22,-84,1,0,0,response5disk,,3,12.66668701,1.333312988,1,0,0,rectangle,12.66668701,1.333312988,1,0,0,12.66668701,1.333312988,1,0,0,0,133,133,114,1,,,,,,,,
,,,,,,,,,,,,,FF,,,,,,,,0.8929,,,,,,,,,,,,,,,,,,,,,,60ff130d929d6acef9620518,61036b2ce7a04725683a46be,2021-07-29_20h00.38.270,Simcolourproject_2stim_asymm_v5,2020.2.10,Win32,60,61025ae37ef11b136ea224fe,,,,,,,,,3330,-43.33331299,-88,1,0,0,response5disk,,3,-2,-2.666687012,1,0,0,rectangle,-2,-2.666687012,1,0,0,-2,-2.666687012,1,0,0,0,134,134,69,1,,,,,,,,
,,,,,,,,,,,,,FF,,,,,,,,0.8504,,,,,,,,,,,,,,,,,,,,,,60ff130d929d6acef9620518,61036b2ce7a04725683a46be,2021-07-29_20h00.38.270,Simcolourproject_2stim_asymm_v5,2020.2.10,Win32,60,61025ae37ef11b136ea224fe,,,,,,,,,1405,67.33337402,-40,1,0,0,response3disk,,5,2,-6,1,0,0,rectangle,2,-6,1,0,0,2,-6,1,0,0,0,135,135,60,1,,,,,,,,
,,,,,,,,,,,,,FF,,,,,,,,1.1992,,,,,,,,,,,,,,,,,,,,,,60ff130d929d6acef9620518,61036b2ce7a04725683a46be,2021-07-29_20h00.38.270,Simcolourproject_2stim_asymm_v5,2020.2.10,Win32,60,61025ae37ef11b136ea224fe,,,,,,,,,4266,-36,89.33331299,1,0,0,response7disk,,0,8.666687012,4.666656494,1,0,0,rectangle,8.666687012,4.666656494,1,0,0,8.666687012,4.666656494,1,0,0,0,136,136,33,1,,,,,,,,
,,,,,,,,,,,,,FF,,,,,,,,2.1667,,,,,,,,,,,,,,,,,,,,,,60ff130d929d6acef9620518,61036b2ce7a04725683a46be,2021-07-29_20h00.38.270,Simcolourproject_2stim_asymm_v5,2020.2.10,Win32,60,61025ae37ef11b136ea224fe,,,,,,,,,1971,-38.66662598,-64,1,0,0,response5disk,,3,1.333374023,-4,1,0,0,rectangle,1.333374023,-4,1,0,0,1.333374023,-4,1,0,0,0,137,137,27,1,,,,,,,,
,,,,,,,,,,,,,FF,,,,,,,,0.9167,,,,,,,,,,,,,,,,,,,,,,60ff130d929d6acef9620518,61036b2ce7a04725683a46be,2021-07-29_20h00.38.270,Simcolourproject_2stim_asymm_v5,2020.2.10,Win32,60,61025ae37ef11b136ea224fe,,,,,,,,,1254,89.33337402,44,1,0,0,response1disk,,6,13.33337402,4,1,0,0,rectangle,13.33337402,4,1,0,0,13.33337402,4,1,0,0,0,138,138,82,1,,,,,,,,
,,,,,,,,,,,,,FF,,,,,,,,0.9488,,,,,,,,,,,,,,,,,,,,,,60ff130d929d6acef9620518,61036b2ce7a04725683a46be,2021-07-29_20h00.38.270,Simcolourproject_2stim_asymm_v5,2020.2.10,Win32,60,61025ae37ef11b136ea224fe,,,,,,,,,3438,-42.66662598,-71.33334351,1,0,0,response5disk,,3,-3.333312988,7.333312988,1,0,0,rectangle,-3.333312988,7.333312988,1,0,0,-3.333312988,7.333312988,1,0,0,0,139,139,100,1,,,,,,,,
,,,,,,,,,,,,,FF,,,,,,,,1.017,,,,,,,,,,,,,,,,,,,,,,60ff130d929d6acef9620518,61036b2ce7a04725683a46be,2021-07-29_20h00.38.270,Simcolourproject_2stim_asymm_v5,2020.2.10,Win32,60,61025ae37ef11b136ea224fe,,,,,,,,,3500,86.66668701,-36.66668701,1,0,0,response3disk,,5,-7.333312988,-3.333343506,1,0,0,rectangle,-7.333312988,-3.333343506,1,0,0,-7.333312988,-3.333343506,1,0,0,0,140,140,14,1,,,,,,,,
,,,,,,,,,,,,,FF,,,,,,,,1.1994,,,,,,,,,,,,,,,,,,,,,,60ff130d929d6acef9620518,61036b2ce7a04725683a46be,2021-07-29_20h00.38.270,Simcolourproject_2stim_asymm_v5,2020.2.10,Win32,60,61025ae37ef11b136ea224fe,,,,,,,,,1145,-96,-40.66668701,1,0,0,response5disk,,2,-19.33331299,0,1,0,0,rectangle,-19.33331299,0,1,0,0,-19.33331299,0,1,0,0,0,141,141,147,1,,,,,,,,
,,,,,,,,,,,,,FF,,,,,,,,2.5328,,,,,,,,,,,,,,,,,,,,,,60ff130d929d6acef9620518,61036b2ce7a04725683a46be,2021-07-29_20h00.38.270,Simcolourproject_2stim_asymm_v5,2020.2.10,Win32,60,61025ae37ef11b136ea224fe,,,,,,,,,3065,56.66668701,-32,1,0,0,response3disk,,5,-22.66662598,-8,1,0,0,rectangle,-22.66662598,-8,1,0,0,-22.66662598,-8,1,0,0,0,142,142,124,1,,,,,,,,
,,,,,,,,,,,,,FF,,,,,,,,1.3499,,,,,,,,,,,,,,,,,,,,,,60ff130d929d6acef9620518,61036b2ce7a04725683a46be,2021-07-29_20h00.38.270,Simcolourproject_2stim_asymm_v5,2020.2.10,Win32,60,61025ae37ef11b136ea224fe,,,,,,,,,3532,83.33337402,36,1,0,0,response1disk,,6,6.666687012,13.33331299,1,0,0,rectangle,6.666687012,13.33331299,1,0,0,6.666687012,13.33331299,1,0,0,0,143,143,158,1,,,,,,,,
,,,,,,,,,,,,,FF,,,,,,,,0.6992,,,,,,,,,,,,,,,,,,,,,,60ff130d929d6acef9620518,61036b2ce7a04725683a46be,2021-07-29_20h00.38.270,Simcolourproject_2stim_asymm_v5,2020.2.10,Win32,60,61025ae37ef11b136ea224fe,,,,,,,,,4298,-32.66662598,-69.33334351,1,0,0,response5disk,,3,11.33337402,-4.666687012,1,0,0,rectangle,11.33337402,-4.666687012,1,0,0,11.33337402,-4.666687012,1,0,0,0,144,144,18,1,,,,,,,,
,,,,,,,,,,,,,FF,,,,,,,,1.4159,,,,,,,,,,,,,,,,,,,,,,60ff130d929d6acef9620518,61036b2ce7a04725683a46be,2021-07-29_20h00.38.270,Simcolourproject_2stim_asymm_v5,2020.2.10,Win32,60,61025ae37ef11b136ea224fe,,,,,,,,,2905,47.33337402,-78,1,0,0,response3disk,,4,18.66668701,-14,1,0,0,rectangle,18.66668701,-14,1,0,0,18.66668701,-14,1,0,0,0,145,145,42,1,,,,,,,,
,,,,,,,,,,,,,FF,,,,,,,,0.9658,,,,,,,,,,,,,,,,,,,,,,60ff130d929d6acef9620518,61036b2ce7a04725683a46be,2021-07-29_20h00.38.270,Simcolourproject_2stim_asymm_v5,2020.2.10,Win32,60,61025ae37ef11b136ea224fe,,,,,,,,,2295,-70,-36.66668701,1,0,0,response5disk,,2,2,-2.666687012,1,0,0,rectangle,2,-2.666687012,1,0,0,2,-2.666687012,1,0,0,0,146,146,9,1,,,,,,,,
,,,,,,,,,,,,,FF,,,,,,,,2.199,,,,,,,,,,,,,,,,,,,,,,60ff130d929d6acef9620518,61036b2ce7a04725683a46be,2021-07-29_20h00.38.270,Simcolourproject_2stim_asymm_v5,2020.2.10,Win32,60,61025ae37ef11b136ea224fe,,,,,,,,,3408,74.66668701,-36,1,0,0,response3disk,,5,18,-0.666687012,1,0,0,rectangle,18,-0.666687012,1,0,0,18,-0.666687012,1,0,0,0,147,147,121,1,,,,,,,,
,,,,,,,,,,,,,FF,,,,,,,,1.0005,,,,,,,,,,,,,,,,,,,,,,60ff130d929d6acef9620518,61036b2ce7a04725683a46be,2021-07-29_20h00.38.270,Simcolourproject_2stim_asymm_v5,2020.2.10,Win32,60,61025ae37ef11b136ea224fe,,,,,,,,,1560,78.66668701,38,1,0,0,response1disk,,6,5.333374023,-7.333343506,1,0,0,rectangle,5.333374023,-7.333343506,1,0,0,5.333374023,-7.333343506,1,0,0,0,148,148,111,1,,,,,,,,
,,,,,,,,,,,,,FF,,,,,,,,1.541,,,,,,,,,,,,,,,,,,,,,,60ff130d929d6acef9620518,61036b2ce7a04725683a46be,2021-07-29_20h00.38.270,Simcolourproject_2stim_asymm_v5,2020.2.10,Win32,60,61025ae37ef11b136ea224fe,,,,,,,,,3136,70,-64.66668701,1,0,0,response3disk,,5,-0.666625977,-1.333343506,1,0,0,rectangle,-0.666625977,-1.333343506,1,0,0,-0.666625977,-1.333343506,1,0,0,0,149,149,155,1,,,,,,,,
,,,,,,,,,,,,,FF,,,,,,,,1.7494,,,,,,,,,,,,,,,,,,,,,,60ff130d929d6acef9620518,61036b2ce7a04725683a46be,2021-07-29_20h00.38.270,Simcolourproject_2stim_asymm_v5,2020.2.10,Win32,60,61025ae37ef11b136ea224fe,,,,,,,,,3793,50.66668701,-83.33334351,1,0,0,response3disk,,4,5.333374023,8.666656494,1,0,0,rectangle,5.333374023,8.666656494,1,0,0,5.333374023,8.666656494,1,0,0,0,150,150,75,1,,,,,,,,
,,,,,,,,,,,,,FF,,,,,,,,1.2664,,,,,,,,,,,,,,,,,,,,,,60ff130d929d6acef9620518,61036b2ce7a04725683a46be,2021-07-29_20h00.38.270,Simcolourproject_2stim_asymm_v5,2020.2.10,Win32,60,61025ae37ef11b136ea224fe,,,,,,,,,949,76.66668701,44.66665649,1,0,0,response1disk,,6,20,8.666656494,1,0,0,rectangle,20,8.666656494,1,0,0,20,8.666656494,1,0,0,0,151,151,64,1,,,,,,,,
,,,,,,,,,,,,,FF,,,,,,,,0.6161,,,,,,,,,,,,,,,,,,,,,,60ff130d929d6acef9620518,61036b2ce7a04725683a46be,2021-07-29_20h00.38.270,Simcolourproject_2stim_asymm_v5,2020.2.10,Win32,60,61025ae37ef11b136ea224fe,,,,,,,,,3741,-40,98,1,0,0,response7disk,,0,-11.33331299,-1.333343506,1,0,0,rectangle,-11.33331299,-1.333343506,1,0,0,-11.33331299,-1.333343506,1,0,0,0,152,152,150,1,,,,,,,,
,,,,,,,,,,,,,FF,,,,,,,,1.1337,,,,,,,,,,,,,,,,,,,,,,60ff130d929d6acef9620518,61036b2ce7a04725683a46be,2021-07-29_20h00.38.270,Simcolourproject_2stim_asymm_v5,2020.2.10,Win32,60,61025ae37ef11b136ea224fe,,,,,,,,,2846,-60.66662598,-71.33334351,1,0,0,response5disk,,3,-7.333312988,-8.666687012,1,0,0,rectangle,-7.333312988,-8.666687012,1,0,0,-7.333312988,-8.666687012,1,0,0,0,153,153,159,1,,,,,,,,
,,,,,,,,,,,,,FF,,,,,,,,0.6574,,,,,,,,,,,,,,,,,,,,,,60ff130d929d6acef9620518,61036b2ce7a04725683a46be,2021-07-29_20h00.38.270,Simcolourproject_2stim_asymm_v5,2020.2.10,Win32,60,61025ae37ef11b136ea224fe,,,,,,,,,1056,-57.33331299,34,1,0,0,response7disk,,1,-4.666625977,2.666656494,1,0,0,rectangle,-4.666625977,2.666656494,1,0,0,-4.666625977,2.666656494,1,0,0,0,154,154,89,1,,,,,,,,
,,,,,,,,,,,,,FF,,,,,,,,1.0166,,,,,,,,,,,,,,,,,,,,,,60ff130d929d6acef9620518,61036b2ce7a04725683a46be,2021-07-29_20h00.38.270,Simcolourproject_2stim_asymm_v5,2020.2.10,Win32,60,61025ae37ef11b136ea224fe,,,,,,,,,2100,-34,88,1,0,0,response7disk,,0,0.666687012,-7.333343506,1,0,0,rectangle,0.666687012,-7.333343506,1,0,0,0.666687012,-7.333343506,1,0,0,0,155,155,7,1,,,,,,,,
,,,,,,,,,,,,,FF,,,,,,,,2.9826,,,,,,,,,,,,,,,,,,,,,,60ff130d929d6acef9620518,61036b2ce7a04725683a46be,2021-07-29_20h00.38.270,Simcolourproject_2stim_asymm_v5,2020.2.10,Win32,60,61025ae37ef11b136ea224fe,,,,,,,,,3640,68,-26,1,0,0,response3disk,,5,6.666687012,1.333312988,1,0,0,rectangle,6.666687012,1.333312988,1,0,0,6.666687012,1.333312988,1,0,0,0,156,156,52,1,,,,,,,,
,,,,,,,,,,,,,FF,,,,,,,,1.067,,,,,,,,,,,,,,,,,,,,,,60ff130d929d6acef9620518,61036b2ce7a04725683a46be,2021-07-29_20h00.38.270,Simcolourproject_2stim_asymm_v5,2020.2.10,Win32,60,61025ae37ef11b136ea224fe,,,,,,,,,4208,-87.33331299,-33.33334351,1,0,0,response5disk,,2,-22,-2.666687012,1,0,0,rectangle,-22,-2.666687012,1,0,0,-22,-2.666687012,1,0,0,0,157,157,1,1,,,,,,,,
,,,,,,,,,,,,,FF,,,,,,,,1.6493,,,,,,,,,,,,,,,,,,,,,,60ff130d929d6acef9620518,61036b2ce7a04725683a46be,2021-07-29_20h00.38.270,Simcolourproject_2stim_asymm_v5,2020.2.10,Win32,60,61025ae37ef11b136ea224fe,,,,,,,,,4202,-28.66662598,-76,1,0,0,response5disk,,3,14.66668701,6.666656494,1,0,0,rectangle,14.66668701,6.666656494,1,0,0,14.66668701,6.666656494,1,0,0,0,158,158,47,1,,,,,,,,
,,,,,,,,,,,,,FF,,,,,,,,1.6003,,,,,,,,,,,,,,,,,,,,,,60ff130d929d6acef9620518,61036b2ce7a04725683a46be,2021-07-29_20h00.38.270,Simcolourproject_2stim_asymm_v5,2020.2.10,Win32,60,61025ae37ef11b136ea224fe,,,,,,,,,3409,45.33337402,-74.66668701,1,0,0,response3disk,,4,4.666687012,-4.666687012,1,0,0,rectangle,4.666687012,-4.666687012,1,0,0,4.666687012,-4.666687012,1,0,0,0,159,159,144,1,,,,,,,,
,,,,,,,,,,,,,FF,,,,,,,,0.7324,,,,,,,,,,,,,,,,,,,,,,60ff130d929d6acef9620518,61036b2ce7a04725683a46be,2021-07-29_20h00.38.270,Simcolourproject_2stim_asymm_v5,2020.2.10,Win32,60,61025ae37ef11b136ea224fe,,,,,,,,,3493,82,-30.66668701,1,0,0,response3disk,,5,3.333374023,8,1,0,0,rectangle,3.333374023,8,1,0,0,3.333374023,8,1,0,0,1,0,160,26,1,,,,,,,,
,,,,,,,,,,,,,FF,,,,,,,,1.0658,,,,,,,,,,,,,,,,,,,,,,60ff130d929d6acef9620518,61036b2ce7a04725683a46be,2021-07-29_20h00.38.270,Simcolourproject_2stim_asymm_v5,2020.2.10,Win32,60,61025ae37ef11b136ea224fe,,,,,,,,,281,-40,-94.66668701,1,0,0,response5disk,,3,12.66668701,2.666656494,1,0,0,rectangle,12.66668701,2.666656494,1,0,0,12.66668701,2.666656494,1,0,0,1,1,161,151,1,,,,,,,,
,,,,,,,,,,,,,FF,,,,,,,,1.3669,,,,,,,,,,,,,,,,,,,,,,60ff130d929d6acef9620518,61036b2ce7a04725683a46be,2021-07-29_20h00.38.270,Simcolourproject_2stim_asymm_v5,2020.2.10,Win32,60,61025ae37ef11b136ea224fe,,,,,,,,,2616,88,32,1,0,0,response1disk,,6,12.66668701,-5.333343506,1,0,0,rectangle,12.66668701,-5.333343506,1,0,0,12.66668701,-5.333343506,1,0,0,1,2,162,48,1,,,,,,,,
,,,,,,,,,,,,,FF,,,,,,,,2.4502,,,,,,,,,,,,,,,,,,,,,,60ff130d929d6acef9620518,61036b2ce7a04725683a46be,2021-07-29_20h00.38.270,Simcolourproject_2stim_asymm_v5,2020.2.10,Win32,60,61025ae37ef11b136ea224fe,,,,,,,,,1842,66.66668701,-32,1,0,0,response3disk,,5,7.333374023,-0.666687012,1,0,0,rectangle,41.33337402,85.33331299,1,0,0,9.333374023,-6.666687012,1,0,0,1,3,163,33,1,,response1disk_3,TRUE,7,7,"[9,246,21,56,218,189,89,263,164,246,169,57,51,309,192,166,268,192,41,97]",1.9,rectangle
,,,,,,,,,,,,,FF,,,,,,,,1.2504,,,,,,,,,,,,,,,,,,,,,,60ff130d929d6acef9620518,61036b2ce7a04725683a46be,2021-07-29_20h00.38.270,Simcolourproject_2stim_asymm_v5,2020.2.10,Win32,60,61025ae37ef11b136ea224fe,,,,,,,,,159,-39.33331299,-72,1,0,0,response5disk,,3,10.66668701,-4,1,0,0,rectangle,10.66668701,-4,1,0,0,10.66668701,-4,1,0,0,1,4,164,124,1,,,,,,,,
,,,,,,,,,,,,,FF,,,,,,,,0.8333,,,,,,,,,,,,,,,,,,,,,,60ff130d929d6acef9620518,61036b2ce7a04725683a46be,2021-07-29_20h00.38.270,Simcolourproject_2stim_asymm_v5,2020.2.10,Win32,60,61025ae37ef11b136ea224fe,,,,,,,,,2367,30,-84.66668701,1,0,0,response3disk,,4,-2,-4.666687012,1,0,0,rectangle,37.33337402,98.66665649,1,0,0,-14.66662598,8.666656494,1,0,0,1,5,165,36,1,,response1disk_3,TRUE,7,7,"[9,246,21,56,218,189,89,263,164,246,169,57,51,309,192,166,268,192,41,97]",2.0162,rectangle
,,,,,,,,,,,,,FF,,,,,,,,0.7658,,,,,,,,,,,,,,,,,,,,,,60ff130d929d6acef9620518,61036b2ce7a04725683a46be,2021-07-29_20h00.38.270,Simcolourproject_2stim_asymm_v5,2020.2.10,Win32,60,61025ae37ef11b136ea224fe,,,,,,,,,3492,21.33337402,-68.66668701,1,0,0,response3disk,,4,-14.66662598,7.333312988,1,0,0,rectangle,-14.66662598,7.333312988,1,0,0,-14.66662598,7.333312988,1,0,0,1,6,166,89,1,,,,,,,,
,,,,,,,,,,,,,FF,,,,,,,,0.8247,,,,,,,,,,,,,,,,,,,,,,60ff130d929d6acef9620518,61036b2ce7a04725683a46be,2021-07-29_20h00.38.270,Simcolourproject_2stim_asymm_v5,2020.2.10,Win32,60,61025ae37ef11b136ea224fe,,,,,,,,,3601,49.33337402,-26,1,0,0,response3disk,,5,-2,4.666656494,1,0,0,rectangle,-2,4.666656494,1,0,0,-2,4.666656494,1,0,0,1,7,167,19,1,,,,,,,,
,,,,,,,,,,,,,FF,,,,,,,,0.899,,,,,,,,,,,,,,,,,,,,,,60ff130d929d6acef9620518,61036b2ce7a04725683a46be,2021-07-29_20h00.38.270,Simcolourproject_2stim_asymm_v5,2020.2.10,Win32,60,61025ae37ef11b136ea224fe,,,,,,,,,1275,42,-76,1,0,0,response3disk,,4,-2,8.666656494,1,0,0,rectangle,-83.33331299,-32,1,0,0,-17.33331299,2.666656494,1,0,0,1,8,168,18,1,,response5disk_3,TRUE,2,2,"[9,246,21,56,218,189,89,263,164,246,169,57,51,309,192,166,268,192,41,97]",2.2152,rectangle
,,,,,,,,,,,,,FF,,,,,,,,1.8666,,,,,,,,,,,,,,,,,,,,,,60ff130d929d6acef9620518,61036b2ce7a04725683a46be,2021-07-29_20h00.38.270,Simcolourproject_2stim_asymm_v5,2020.2.10,Win32,60,61025ae37ef11b136ea224fe,,,,,,,,,1484,29.33337402,110.6666565,1,0,0,response1disk,,7,3.333374023,4.666656494,1,0,0,rectangle,3.333374023,4.666656494,1,0,0,3.333374023,4.666656494,1,0,0,1,9,169,88,1,,,,,,,,
,,,,,,,,,,,,,FF,,,,,,,,1.1502,,,,,,,,,,,,,,,,,,,,,,60ff130d929d6acef9620518,61036b2ce7a04725683a46be,2021-07-29_20h00.38.270,Simcolourproject_2stim_asymm_v5,2020.2.10,Win32,60,61025ae37ef11b136ea224fe,,,,,,,,,1086,44,-75.33334351,1,0,0,response3disk,,4,-1.333312988,-1.333343506,1,0,0,rectangle,-1.333312988,-1.333343506,1,0,0,-1.333312988,-1.333343506,1,0,0,1,10,170,132,1,,,,,,,,
,,,,,,,,,,,,,FF,,,,,,,,1.2501,,,,,,,,,,,,,,,,,,,,,,60ff130d929d6acef9620518,61036b2ce7a04725683a46be,2021-07-29_20h00.38.270,Simcolourproject_2stim_asymm_v5,2020.2.10,Win32,60,61025ae37ef11b136ea224fe,,,,,,,,,3536,59.33337402,-27.33334351,1,0,0,response3disk,,5,-13.33331299,7.333312988,1,0,0,rectangle,-13.33331299,7.333312988,1,0,0,-13.33331299,7.333312988,1,0,0,1,11,171,83,1,,,,,,,,
,,,,,,,,,,,,,FF,,,,,,,,1.1162,,,,,,,,,,,,,,,,,,,,,,60ff130d929d6acef9620518,61036b2ce7a04725683a46be,2021-07-29_20h00.38.270,Simcolourproject_2stim_asymm_v5,2020.2.10,Win32,60,61025ae37ef11b136ea224fe,,,,,,,,,1810,-42,-90.66668701,1,0,0,response5disk,,3,-1.333312988,4.666656494,1,0,0,rectangle,-1.333312988,4.666656494,1,0,0,-1.333312988,4.666656494,1,0,0,1,12,172,80,1,,,,,,,,
,,,,,,,,,,,,,FF,,,,,,,,1.1329,,,,,,,,,,,,,,,,,,,,,,60ff130d929d6acef9620518,61036b2ce7a04725683a46be,2021-07-29_20h00.38.270,Simcolourproject_2stim_asymm_v5,2020.2.10,Win32,60,61025ae37ef11b136ea224fe,,,,,,,,,3141,-42,-87.33334351,1,0,0,response5disk,,3,-5.333312988,-4,1,0,0,rectangle,-5.333312988,-4,1,0,0,-5.333312988,-4,1,0,0,1,13,173,11,1,,,,,,,,
,,,,,,,,,,,,,FF,,,,,,,,0.8502,,,,,,,,,,,,,,,,,,,,,,60ff130d929d6acef9620518,61036b2ce7a04725683a46be,2021-07-29_20h00.38.270,Simcolourproject_2stim_asymm_v5,2020.2.10,Win32,60,61025ae37ef11b136ea224fe,,,,,,,,,3195,-45.33331299,104,1,0,0,response7disk,,0,-4,11.33331299,1,0,0,rectangle,-4,11.33331299,1,0,0,-4,11.33331299,1,0,0,1,14,174,46,1,,,,,,,,
,,,,,,,,,,,,,FF,,,,,,,,1.0996,,,,,,,,,,,,,,,,,,,,,,60ff130d929d6acef9620518,61036b2ce7a04725683a46be,2021-07-29_20h00.38.270,Simcolourproject_2stim_asymm_v5,2020.2.10,Win32,60,61025ae37ef11b136ea224fe,,,,,,,,,539,26,-76,1,0,0,response3disk,,4,-5.333312988,4,1,0,0,rectangle,-5.333312988,4,1,0,0,-5.333312988,4,1,0,0,1,15,175,145,1,,,,,,,,
,,,,,,,,,,,,,FF,,,,,,,,1.04,,,,,,,,,,,,,,,,,,,,,,60ff130d929d6acef9620518,61036b2ce7a04725683a46be,2021-07-29_20h00.38.270,Simcolourproject_2stim_asymm_v5,2020.2.10,Win32,60,61025ae37ef11b136ea224fe,,,,,,,,,533,-91.33331299,43.33331299,1,0,0,response7disk,,1,-12.66662598,8,1,0,0,rectangle,-12.66662598,8,1,0,0,-12.66662598,8,1,0,0,1,16,176,121,1,,,,,,,,
,,,,,,,,,,,,,FF,,,,,,,,1.3494,,,,,,,,,,,,,,,,,,,,,,60ff130d929d6acef9620518,61036b2ce7a04725683a46be,2021-07-29_20h00.38.270,Simcolourproject_2stim_asymm_v5,2020.2.10,Win32,60,61025ae37ef11b136ea224fe,,,,,,,,,2992,68.66668701,-36.66668701,1,0,0,response3disk,,5,10,-6.666687012,1,0,0,rectangle,10,-6.666687012,1,0,0,10,-6.666687012,1,0,0,1,17,177,10,1,,,,,,,,
,,,,,,,,,,,,,FF,,,,,,,,0.8164,,,,,,,,,,,,,,,,,,,,,,60ff130d929d6acef9620518,61036b2ce7a04725683a46be,2021-07-29_20h00.38.270,Simcolourproject_2stim_asymm_v5,2020.2.10,Win32,60,61025ae37ef11b136ea224fe,,,,,,,,,2176,34,-79.33334351,1,0,0,response3disk,,4,6.666687012,0.666656494,1,0,0,rectangle,6.666687012,0.666656494,1,0,0,6.666687012,0.666656494,1,0,0,1,18,178,16,1,,,,,,,,
,,,,,,,,,,,,,FF,,,,,,,,1.3998,,,,,,,,,,,,,,,,,,,,,,60ff130d929d6acef9620518,61036b2ce7a04725683a46be,2021-07-29_20h00.38.270,Simcolourproject_2stim_asymm_v5,2020.2.10,Win32,60,61025ae37ef11b136ea224fe,,,,,,,,,179,81.33337402,33.33331299,1,0,0,response1disk,,6,0,-5.333343506,1,0,0,rectangle,0,-5.333343506,1,0,0,0,-5.333343506,1,0,0,1,19,179,20,1,,,,,,,,
,,,,,,,,,,,,,FF,,,,,,,,2.3994,,,,,,,,,,,,,,,,,,,,,,60ff130d929d6acef9620518,61036b2ce7a04725683a46be,2021-07-29_20h00.38.270,Simcolourproject_2stim_asymm_v5,2020.2.10,Win32,60,61025ae37ef11b136ea224fe,,,,,,,,,2806,80.66668701,-26.66668701,1,0,0,response3disk,,5,4,4.666656494,1,0,0,rectangle,4,4.666656494,1,0,0,4,4.666656494,1,0,0,1,20,180,90,1,,,,,,,,
,,,,,,,,,,,,,FF,,,,,,,,0.8676,,,,,,,,,,,,,,,,,,,,,,60ff130d929d6acef9620518,61036b2ce7a04725683a46be,2021-07-29_20h00.38.270,Simcolourproject_2stim_asymm_v5,2020.2.10,Win32,60,61025ae37ef11b136ea224fe,,,,,,,,,3618,85.33337402,28.66665649,1,0,0,response1disk,,6,-7.333312988,1.333312988,1,0,0,rectangle,-7.333312988,1.333312988,1,0,0,-7.333312988,1.333312988,1,0,0,1,21,181,5,1,,,,,,,,
,,,,,,,,,,,,,FF,,,,,,,,1.8503,,,,,,,,,,,,,,,,,,,,,,60ff130d929d6acef9620518,61036b2ce7a04725683a46be,2021-07-29_20h00.38.270,Simcolourproject_2stim_asymm_v5,2020.2.10,Win32,60,61025ae37ef11b136ea224fe,,,,,,,,,3095,-30,-77.33334351,1,0,0,response5disk,,3,17.33337402,-4,1,0,0,rectangle,17.33337402,-4,1,0,0,17.33337402,-4,1,0,0,1,22,182,23,1,,,,,,,,
,,,,,,,,,,,,,FF,,,,,,,,1.4006,,,,,,,,,,,,,,,,,,,,,,60ff130d929d6acef9620518,61036b2ce7a04725683a46be,2021-07-29_20h00.38.270,Simcolourproject_2stim_asymm_v5,2020.2.10,Win32,60,61025ae37ef11b136ea224fe,,,,,,,,,1917,36,-78.66668701,1,0,0,response3disk,,4,0.666687012,10.66665649,1,0,0,rectangle,0.666687012,10.66665649,1,0,0,0.666687012,10.66665649,1,0,0,1,23,183,84,1,,,,,,,,
,,,,,,,,,,,,,FF,,,,,,,,0.9662,,,,,,,,,,,,,,,,,,,,,,60ff130d929d6acef9620518,61036b2ce7a04725683a46be,2021-07-29_20h00.38.270,Simcolourproject_2stim_asymm_v5,2020.2.10,Win32,60,61025ae37ef11b136ea224fe,,,,,,,,,4253,-32.66662598,-62.66668701,1,0,0,response5disk,,3,2.666687012,6,1,0,0,rectangle,2.666687012,6,1,0,0,2.666687012,6,1,0,0,1,24,184,129,1,,,,,,,,
,,,,,,,,,,,,,FF,,,,,,,,1.3157,,,,,,,,,,,,,,,,,,,,,,60ff130d929d6acef9620518,61036b2ce7a04725683a46be,2021-07-29_20h00.38.270,Simcolourproject_2stim_asymm_v5,2020.2.10,Win32,60,61025ae37ef11b136ea224fe,,,,,,,,,4012,90.66668701,45.33331299,1,0,0,response1disk,,6,7.333374023,-3.333343506,1,0,0,rectangle,7.333374023,-3.333343506,1,0,0,7.333374023,-3.333343506,1,0,0,1,25,185,79,1,,,,,,,,
,,,,,,,,,,,,,FF,,,,,,,,1.5566,,,,,,,,,,,,,,,,,,,,,,60ff130d929d6acef9620518,61036b2ce7a04725683a46be,2021-07-29_20h00.38.270,Simcolourproject_2stim_asymm_v5,2020.2.10,Win32,60,61025ae37ef11b136ea224fe,,,,,,,,,4116,-91.33331299,-57.33334351,1,0,0,response5disk,,2,-6.666625977,1.333312988,1,0,0,rectangle,-6.666625977,1.333312988,1,0,0,-6.666625977,1.333312988,1,0,0,1,26,186,7,1,,,,,,,,
,,,,,,,,,,,,,FF,,,,,,,,0.8159,,,,,,,,,,,,,,,,,,,,,,60ff130d929d6acef9620518,61036b2ce7a04725683a46be,2021-07-29_20h00.38.270,Simcolourproject_2stim_asymm_v5,2020.2.10,Win32,60,61025ae37ef11b136ea224fe,,,,,,,,,3724,34,82,1,0,0,response1disk,,7,-8,0,1,0,0,rectangle,-8,0,1,0,0,-8,0,1,0,0,1,27,187,144,1,,,,,,,,
,,,,,,,,,,,,,FF,,,,,,,,1.5994,,,,,,,,,,,,,,,,,,,,,,60ff130d929d6acef9620518,61036b2ce7a04725683a46be,2021-07-29_20h00.38.270,Simcolourproject_2stim_asymm_v5,2020.2.10,Win32,60,61025ae37ef11b136ea224fe,,,,,,,,,2981,74,-36,1,0,0,response3disk,,5,-4.666625977,-7.333343506,1,0,0,rectangle,-76.66662598,41.33331299,1,0,0,-1.333312988,0.666656494,1,0,0,1,28,188,45,1,,response7disk_3,TRUE,1,1,"[9,246,21,56,218,189,89,263,164,246,169,57,51,309,192,166,268,192,41,97]",1.4336,rectangle
,,,,,,,,,,,,,FF,,,,,,,,1.201,,,,,,,,,,,,,,,,,,,,,,60ff130d929d6acef9620518,61036b2ce7a04725683a46be,2021-07-29_20h00.38.270,Simcolourproject_2stim_asymm_v5,2020.2.10,Win32,60,61025ae37ef11b136ea224fe,,,,,,,,,3971,-49.33331299,-85.33334351,1,0,0,response5disk,,3,-3.333312988,5.333312988,1,0,0,rectangle,-3.333312988,5.333312988,1,0,0,-3.333312988,5.333312988,1,0,0,1,29,189,156,1,,,,,,,,
,,,,,,,,,,,,,FF,,,,,,,,1.2002,,,,,,,,,,,,,,,,,,,,,,60ff130d929d6acef9620518,61036b2ce7a04725683a46be,2021-07-29_20h00.38.270,Simcolourproject_2stim_asymm_v5,2020.2.10,Win32,60,61025ae37ef11b136ea224fe,,,,,,,,,4113,34.66668701,-72,1,0,0,response3disk,,4,0,-2,1,0,0,rectangle,0,-2,1,0,0,0,-2,1,0,0,1,30,190,147,1,,,,,,,,
,,,,,,,,,,,,,FF,,,,,,,,1.6333,,,,,,,,,,,,,,,,,,,,,,60ff130d929d6acef9620518,61036b2ce7a04725683a46be,2021-07-29_20h00.38.270,Simcolourproject_2stim_asymm_v5,2020.2.10,Win32,60,61025ae37ef11b136ea224fe,,,,,,,,,590,72.66668701,-33.33334351,1,0,0,response3disk,,5,3.333374023,6,1,0,0,rectangle,-84,-28,1,0,0,-4,0,1,0,0,1,31,191,95,1,,response5disk_3,TRUE,2,2,"[9,246,21,56,218,189,89,263,164,246,169,57,51,309,192,166,268,192,41,97]",2.3997,rectangle
,,,,,,,,,,,,,FF,,,,,,,,1.15,,,,,,,,,,,,,,,,,,,,,,60ff130d929d6acef9620518,61036b2ce7a04725683a46be,2021-07-29_20h00.38.270,Simcolourproject_2stim_asymm_v5,2020.2.10,Win32,60,61025ae37ef11b136ea224fe,,,,,,,,,1076,-47.33331299,-77.33334351,1,0,0,response5disk,,3,-2.666625977,6,1,0,0,rectangle,-2.666625977,6,1,0,0,-2.666625977,6,1,0,0,1,32,192,70,1,,,,,,,,
,,,,,,,,,,,,,FF,,,,,,,,1.0824,,,,,,,,,,,,,,,,,,,,,,60ff130d929d6acef9620518,61036b2ce7a04725683a46be,2021-07-29_20h00.38.270,Simcolourproject_2stim_asymm_v5,2020.2.10,Win32,60,61025ae37ef11b136ea224fe,,,,,,,,,4083,-90.66662598,-47.33334351,1,0,0,response5disk,,2,-9.333312988,-4.666687012,1,0,0,rectangle,-9.333312988,-4.666687012,1,0,0,-9.333312988,-4.666687012,1,0,0,1,33,193,8,1,,,,,,,,
,,,,,,,,,,,,,FF,,,,,,,,1.0164,,,,,,,,,,,,,,,,,,,,,,60ff130d929d6acef9620518,61036b2ce7a04725683a46be,2021-07-29_20h00.38.270,Simcolourproject_2stim_asymm_v5,2020.2.10,Win32,60,61025ae37ef11b136ea224fe,,,,,,,,,1912,36,86,1,0,0,response1disk,,7,-4,-2,1,0,0,rectangle,-4,-2,1,0,0,-4,-2,1,0,0,1,34,194,107,1,,,,,,,,
,,,,,,,,,,,,,FF,,,,,,,,1.0392,,,,,,,,,,,,,,,,,,,,,,60ff130d929d6acef9620518,61036b2ce7a04725683a46be,2021-07-29_20h00.38.270,Simcolourproject_2stim_asymm_v5,2020.2.10,Win32,60,61025ae37ef11b136ea224fe,,,,,,,,,4142,-76,41.33331299,1,0,0,response7disk,,1,-8,12,1,0,0,rectangle,-8,12,1,0,0,-8,12,1,0,0,1,35,195,40,1,,,,,,,,
,,,,,,,,,,,,,FF,,,,,,,,1.0835,,,,,,,,,,,,,,,,,,,,,,60ff130d929d6acef9620518,61036b2ce7a04725683a46be,2021-07-29_20h00.38.270,Simcolourproject_2stim_asymm_v5,2020.2.10,Win32,60,61025ae37ef11b136ea224fe,,,,,,,,,2063,64,-36,1,0,0,response3disk,,5,-19.33331299,-2,1,0,0,rectangle,-19.33331299,-2,1,0,0,-19.33331299,-2,1,0,0,1,36,196,74,1,,,,,,,,
,,,,,,,,,,,,,FF,,,,,,,,1.167,,,,,,,,,,,,,,,,,,,,,,60ff130d929d6acef9620518,61036b2ce7a04725683a46be,2021-07-29_20h00.38.270,Simcolourproject_2stim_asymm_v5,2020.2.10,Win32,60,61025ae37ef11b136ea224fe,,,,,,,,,2926,23.33337402,-60.66668701,1,0,0,response3disk,,4,-6.666625977,4.666656494,1,0,0,rectangle,-6.666625977,4.666656494,1,0,0,-6.666625977,4.666656494,1,0,0,1,37,197,55,1,,,,,,,,
,,,,,,,,,,,,,FF,,,,,,,,0.7662,,,,,,,,,,,,,,,,,,,,,,60ff130d929d6acef9620518,61036b2ce7a04725683a46be,2021-07-29_20h00.38.270,Simcolourproject_2stim_asymm_v5,2020.2.10,Win32,60,61025ae37ef11b136ea224fe,,,,,,,,,4285,55.33337402,96,1,0,0,response1disk,,7,-15.33331299,6,1,0,0,rectangle,-15.33331299,6,1,0,0,-15.33331299,6,1,0,0,1,38,198,133,1,,,,,,,,
,,,,,,,,,,,,,FF,,,,,,,,1.6325,,,,,,,,,,,,,,,,,,,,,,60ff130d929d6acef9620518,61036b2ce7a04725683a46be,2021-07-29_20h00.38.270,Simcolourproject_2stim_asymm_v5,2020.2.10,Win32,60,61025ae37ef11b136ea224fe,,,,,,,,,1476,82,-20.66668701,1,0,0,response3disk,,5,7.333374023,1.333312988,1,0,0,rectangle,7.333374023,1.333312988,1,0,0,7.333374023,1.333312988,1,0,0,1,39,199,150,1,,,,,,,,
,,,,,,,,,,,,,FF,,,,,,,,1.3656,,,,,,,,,,,,,,,,,,,,,,60ff130d929d6acef9620518,61036b2ce7a04725683a46be,2021-07-29_20h00.38.270,Simcolourproject_2stim_asymm_v5,2020.2.10,Win32,60,61025ae37ef11b136ea224fe,,,,,,,,,1325,48.66668701,92,1,0,0,response1disk,,7,-4,3.333312988,1,0,0,rectangle,-4,3.333312988,1,0,0,-4,3.333312988,1,0,0,1,40,200,57,1,,,,,,,,
,,,,,,,,,,,,,FF,,,,,,,,1.833,,,,,,,,,,,,,,,,,,,,,,60ff130d929d6acef9620518,61036b2ce7a04725683a46be,2021-07-29_20h00.38.270,Simcolourproject_2stim_asymm_v5,2020.2.10,Win32,60,61025ae37ef11b136ea224fe,,,,,,,,,881,32,-70.66668701,1,0,0,response3disk,,4,0,0,1,0,0,rectangle,0,0,1,0,0,0,0,1,0,0,1,41,201,58,1,,,,,,,,
,,,,,,,,,,,,,FF,,,,,,,,0.5829,,,,,,,,,,,,,,,,,,,,,,60ff130d929d6acef9620518,61036b2ce7a04725683a46be,2021-07-29_20h00.38.270,Simcolourproject_2stim_asymm_v5,2020.2.10,Win32,60,61025ae37ef11b136ea224fe,,,,,,,,,4362,-42,91.33331299,1,0,0,response7disk,,0,-16.66662598,3.333312988,1,0,0,rectangle,-16.66662598,3.333312988,1,0,0,-16.66662598,3.333312988,1,0,0,1,42,202,21,1,,,,,,,,
,,,,,,,,,,,,,FF,,,,,,,,1.6172,,,,,,,,,,,,,,,,,,,,,,60ff130d929d6acef9620518,61036b2ce7a04725683a46be,2021-07-29_20h00.38.270,Simcolourproject_2stim_asymm_v5,2020.2.10,Win32,60,61025ae37ef11b136ea224fe,,,,,,,,,1979,-84,-44,1,0,0,response5disk,,2,-0.666625977,4.666656494,1,0,0,rectangle,-0.666625977,4.666656494,1,0,0,-0.666625977,4.666656494,1,0,0,1,43,203,155,1,,,,,,,,
,,,,,,,,,,,,,FF,,,,,,,,0.0664,,,,,,,,,,,,,,,,,,,,,,60ff130d929d6acef9620518,61036b2ce7a04725683a46be,2021-07-29_20h00.38.270,Simcolourproject_2stim_asymm_v5,2020.2.10,Win32,60,61025ae37ef11b136ea224fe,,,,,,,,,1046,-25.33331299,-63.33334351,1,0,0,response5disk,,3,8.666687012,-8.666687012,1,0,0,rectangle,8.666687012,-8.666687012,1,0,0,8.666687012,-8.666687012,1,0,0,1,44,204,122,1,,,,,,,,
,,,,,,,,,,,,,FF,,,,,,,,1.3325,,,,,,,,,,,,,,,,,,,,,,60ff130d929d6acef9620518,61036b2ce7a04725683a46be,2021-07-29_20h00.38.270,Simcolourproject_2stim_asymm_v5,2020.2.10,Win32,60,61025ae37ef11b136ea224fe,,,,,,,,,3709,-42,-72.66668701,1,0,0,response5disk,,3,1.333374023,8.666656494,1,0,0,rectangle,1.333374023,8.666656494,1,0,0,1.333374023,8.666656494,1,0,0,1,45,205,47,1,,,,,,,,
,,,,,,,,,,,,,FF,,,,,,,,0.8326,,,,,,,,,,,,,,,,,,,,,,60ff130d929d6acef9620518,61036b2ce7a04725683a46be,2021-07-29_20h00.38.270,Simcolourproject_2stim_asymm_v5,2020.2.10,Win32,60,61025ae37ef11b136ea224fe,,,,,,,,,686,40.66668701,-76.66668701,1,0,0,response3disk,,4,0,-3.333343506,1,0,0,rectangle,0,-3.333343506,1,0,0,0,-3.333343506,1,0,0,1,46,206,51,1,,,,,,,,
,,,,,,,,,,,,,FF,,,,,,,,0.8497,,,,,,,,,,,,,,,,,,,,,,60ff130d929d6acef9620518,61036b2ce7a04725683a46be,2021-07-29_20h00.38.270,Simcolourproject_2stim_asymm_v5,2020.2.10,Win32,60,61025ae37ef11b136ea224fe,,,,,,,,,2173,-106,-46.66668701,1,0,0,response5disk,,2,-12.66662598,2,1,0,0,rectangle,-12.66662598,2,1,0,0,-12.66662598,2,1,0,0,1,47,207,113,1,,,,,,,,
,,,,,,,,,,,,,FF,,,,,,,,2.2171,,,,,,,,,,,,,,,,,,,,,,60ff130d929d6acef9620518,61036b2ce7a04725683a46be,2021-07-29_20h00.38.270,Simcolourproject_2stim_asymm_v5,2020.2.10,Win32,60,61025ae37ef11b136ea224fe,,,,,,,,,2570,33.33337402,-78,1,0,0,response3disk,,4,-10,-4,1,0,0,rectangle,-10,-4,1,0,0,-10,-4,1,0,0,1,48,208,123,1,,,,,,,,
,,,,,,,,,,,,,FF,,,,,,,,0.8163,,,,,,,,,,,,,,,,,,,,,,60ff130d929d6acef9620518,61036b2ce7a04725683a46be,2021-07-29_20h00.38.270,Simcolourproject_2stim_asymm_v5,2020.2.10,Win32,60,61025ae37ef11b136ea224fe,,,,,,,,,2653,-96,-58,1,0,0,response5disk,,2,-6.666625977,-0.666687012,1,0,0,rectangle,-6.666625977,-0.666687012,1,0,0,-6.666625977,-0.666687012,1,0,0,1,49,209,97,1,,,,,,,,
,,,,,,,,,,,,,FF,,,,,,,,2.1995,,,,,,,,,,,,,,,,,,,,,,60ff130d929d6acef9620518,61036b2ce7a04725683a46be,2021-07-29_20h00.38.270,Simcolourproject_2stim_asymm_v5,2020.2.10,Win32,60,61025ae37ef11b136ea224fe,,,,,,,,,685,52.66668701,-37.33334351,1,0,0,response3disk,,5,0,-4.666687012,1,0,0,rectangle,0,-4.666687012,1,0,0,0,-4.666687012,1,0,0,1,50,210,53,1,,,,,,,,
,,,,,,,,,,,,,FF,,,,,,,,1.1996,,,,,,,,,,,,,,,,,,,,,,60ff130d929d6acef9620518,61036b2ce7a04725683a46be,2021-07-29_20h00.38.270,Simcolourproject_2stim_asymm_v5,2020.2.10,Win32,60,61025ae37ef11b136ea224fe,,,,,,,,,987,40,-74,1,0,0,response3disk,,4,-7.333312988,-12,1,0,0,rectangle,-7.333312988,-12,1,0,0,-7.333312988,-12,1,0,0,1,51,211,98,1,,,,,,,,
,,,,,,,,,,,,,FF,,,,,,,,1.0662,,,,,,,,,,,,,,,,,,,,,,60ff130d929d6acef9620518,61036b2ce7a04725683a46be,2021-07-29_20h00.38.270,Simcolourproject_2stim_asymm_v5,2020.2.10,Win32,60,61025ae37ef11b136ea224fe,,,,,,,,,3127,72.66668701,38,1,0,0,response1disk,,6,-4.666625977,10.66665649,1,0,0,rectangle,-4.666625977,10.66665649,1,0,0,-4.666625977,10.66665649,1,0,0,1,52,212,112,1,,,,,,,,
,,,,,,,,,,,,,FF,,,,,,,,1.1169,,,,,,,,,,,,,,,,,,,,,,60ff130d929d6acef9620518,61036b2ce7a04725683a46be,2021-07-29_20h00.38.270,Simcolourproject_2stim_asymm_v5,2020.2.10,Win32,60,61025ae37ef11b136ea224fe,,,,,,,,,975,-74.66662598,50.66665649,1,0,0,response7disk,,1,-14,5.333312988,1,0,0,rectangle,-14,5.333312988,1,0,0,-14,5.333312988,1,0,0,1,53,213,75,1,,,,,,,,
,,,,,,,,,,,,,FF,,,,,,,,1.6662,,,,,,,,,,,,,,,,,,,,,,60ff130d929d6acef9620518,61036b2ce7a04725683a46be,2021-07-29_20h00.38.270,Simcolourproject_2stim_asymm_v5,2020.2.10,Win32,60,61025ae37ef11b136ea224fe,,,,,,,,,2510,-42,-91.33334351,1,0,0,response5disk,,3,5.333374023,-4,1,0,0,rectangle,5.333374023,-4,1,0,0,5.333374023,-4,1,0,0,1,54,214,62,1,,,,,,,,
,,,,,,,,,,,,,FF,,,,,,,,0.7331,,,,,,,,,,,,,,,,,,,,,,60ff130d929d6acef9620518,61036b2ce7a04725683a46be,2021-07-29_20h00.38.270,Simcolourproject_2stim_asymm_v5,2020.2.10,Win32,60,61025ae37ef11b136ea224fe,,,,,,,,,1659,26,91.33331299,1,0,0,response1disk,,7,0,-9.333343506,1,0,0,rectangle,0,-9.333343506,1,0,0,0,-9.333343506,1,0,0,1,55,215,114,1,,,,,,,,
,,,,,,,,,,,,,FF,,,,,,,,0.8828,,,,,,,,,,,,,,,,,,,,,,60ff130d929d6acef9620518,61036b2ce7a04725683a46be,2021-07-29_20h00.38.270,Simcolourproject_2stim_asymm_v5,2020.2.10,Win32,60,61025ae37ef11b136ea224fe,,,,,,,,,572,36.66668701,102.6666565,1,0,0,response1disk,,7,-4,-1.333343506,1,0,0,rectangle,-4,-1.333343506,1,0,0,-4,-1.333343506,1,0,0,1,56,216,31,1,,,,,,,,
,,,,,,,,,,,,,FF,,,,,,,,1.8334,,,,,,,,,,,,,,,,,,,,,,60ff130d929d6acef9620518,61036b2ce7a04725683a46be,2021-07-29_20h00.38.270,Simcolourproject_2stim_asymm_v5,2020.2.10,Win32,60,61025ae37ef11b136ea224fe,,,,,,,,,340,44.66668701,-84,1,0,0,response3disk,,4,-3.333312988,2.666656494,1,0,0,rectangle,-38,90,1,0,0,-0.666625977,6.666656494,1,0,0,1,57,217,34,1,,response7disk_3,TRUE,0,0,"[9,246,21,56,218,189,89,263,164,246,169,57,51,309,192,166,268,192,41,97]",1.2166,rectangle
,,,,,,,,,,,,,FF,,,,,,,,1.0007,,,,,,,,,,,,,,,,,,,,,,60ff130d929d6acef9620518,61036b2ce7a04725683a46be,2021-07-29_20h00.38.270,Simcolourproject_2stim_asymm_v5,2020.2.10,Win32,60,61025ae37ef11b136ea224fe,,,,,,,,,4207,-38.66662598,90,1,0,0,response7disk,,0,14.66668701,1.333312988,1,0,0,rectangle,14.66668701,1.333312988,1,0,0,14.66668701,1.333312988,1,0,0,1,58,218,3,1,,,,,,,,
,,,,,,,,,,,,,FF,,,,,,,,1.2164,,,,,,,,,,,,,,,,,,,,,,60ff130d929d6acef9620518,61036b2ce7a04725683a46be,2021-07-29_20h00.38.270,Simcolourproject_2stim_asymm_v5,2020.2.10,Win32,60,61025ae37ef11b136ea224fe,,,,,,,,,4038,78.66668701,-31.33334351,1,0,0,response3disk,,5,2,7.333312988,1,0,0,rectangle,2,7.333312988,1,0,0,2,7.333312988,1,0,0,1,59,219,15,1,,,,,,,,
,,,,,,,,,,,,,FF,,,,,,,,0.6824,,,,,,,,,,,,,,,,,,,,,,60ff130d929d6acef9620518,61036b2ce7a04725683a46be,2021-07-29_20h00.38.270,Simcolourproject_2stim_asymm_v5,2020.2.10,Win32,60,61025ae37ef11b136ea224fe,,,,,,,,,2601,-55.33331299,86.66665649,1,0,0,response7disk,,0,12.66668701,3.333312988,1,0,0,rectangle,12.66668701,3.333312988,1,0,0,12.66668701,3.333312988,1,0,0,1,60,220,6,1,,,,,,,,
,,,,,,,,,,,,,FF,,,,,,,,1.0382,,,,,,,,,,,,,,,,,,,,,,60ff130d929d6acef9620518,61036b2ce7a04725683a46be,2021-07-29_20h00.38.270,Simcolourproject_2stim_asymm_v5,2020.2.10,Win32,60,61025ae37ef11b136ea224fe,,,,,,,,,328,-38.66662598,-79.33334351,1,0,0,response5disk,,3,4.666687012,12,1,0,0,rectangle,4.666687012,12,1,0,0,4.666687012,12,1,0,0,1,61,221,85,1,,,,,,,,
,,,,,,,,,,,,,FF,,,,,,,,0.8506,,,,,,,,,,,,,,,,,,,,,,60ff130d929d6acef9620518,61036b2ce7a04725683a46be,2021-07-29_20h00.38.270,Simcolourproject_2stim_asymm_v5,2020.2.10,Win32,60,61025ae37ef11b136ea224fe,,,,,,,,,1938,88,44.66665649,1,0,0,response1disk,,6,6,-4.666687012,1,0,0,rectangle,6,-4.666687012,1,0,0,6,-4.666687012,1,0,0,1,62,222,64,1,,,,,,,,
,,,,,,,,,,,,,FF,,,,,,,,0.6665,,,,,,,,,,,,,,,,,,,,,,60ff130d929d6acef9620518,61036b2ce7a04725683a46be,2021-07-29_20h00.38.270,Simcolourproject_2stim_asymm_v5,2020.2.10,Win32,60,61025ae37ef11b136ea224fe,,,,,,,,,295,84.66668701,44,1,0,0,response1disk,,6,4.666687012,-10.66668701,1,0,0,rectangle,4.666687012,-10.66668701,1,0,0,4.666687012,-10.66668701,1,0,0,1,63,223,157,1,,,,,,,,
,,,,,,,,,,,,,FF,,,,,,,,0.9495,,,,,,,,,,,,,,,,,,,,,,60ff130d929d6acef9620518,61036b2ce7a04725683a46be,2021-07-29_20h00.38.270,Simcolourproject_2stim_asymm_v5,2020.2.10,Win32,60,61025ae37ef11b136ea224fe,,,,,,,,,1827,-50,-98.66668701,1,0,0,response5disk,,3,6.666687012,6.666656494,1,0,0,rectangle,6.666687012,6.666656494,1,0,0,6.666687012,6.666656494,1,0,0,1,64,224,118,1,,,,,,,,
,,,,,,,,,,,,,FF,,,,,,,,1.266,,,,,,,,,,,,,,,,,,,,,,60ff130d929d6acef9620518,61036b2ce7a04725683a46be,2021-07-29_20h00.38.270,Simcolourproject_2stim_asymm_v5,2020.2.10,Win32,60,61025ae37ef11b136ea224fe,,,,,,,,,1983,41.33337402,-88,1,0,0,response3disk,,4,0,-4,1,0,0,rectangle,0,-4,1,0,0,0,-4,1,0,0,1,65,225,65,1,,,,,,,,
,,,,,,,,,,,,,FF,,,,,,,,1.3826,,,,,,,,,,,,,,,,,,,,,,60ff130d929d6acef9620518,61036b2ce7a04725683a46be,2021-07-29_20h00.38.270,Simcolourproject_2stim_asymm_v5,2020.2.10,Win32,60,61025ae37ef11b136ea224fe,,,,,,,,,1951,-33.33331299,-85.33334351,1,0,0,response5disk,,3,-0.666625977,-4.666687012,1,0,0,rectangle,-0.666625977,-4.666687012,1,0,0,-0.666625977,-4.666687012,1,0,0,1,66,226,126,1,,,,,,,,
,,,,,,,,,,,,,FF,,,,,,,,1.2501,,,,,,,,,,,,,,,,,,,,,,60ff130d929d6acef9620518,61036b2ce7a04725683a46be,2021-07-29_20h00.38.270,Simcolourproject_2stim_asymm_v5,2020.2.10,Win32,60,61025ae37ef11b136ea224fe,,,,,,,,,3739,32.66668701,91.33331299,1,0,0,response1disk,,7,-10,-6.666687012,1,0,0,rectangle,-10,-6.666687012,1,0,0,-10,-6.666687012,1,0,0,1,67,227,56,1,,,,,,,,
,,,,,,,,,,,,,FF,,,,,,,,1.0324,,,,,,,,,,,,,,,,,,,,,,60ff130d929d6acef9620518,61036b2ce7a04725683a46be,2021-07-29_20h00.38.270,Simcolourproject_2stim_asymm_v5,2020.2.10,Win32,60,61025ae37ef11b136ea224fe,,,,,,,,,3167,65.33337402,-90.66668701,1,0,0,response3disk,,4,-2.666625977,-2.666687012,1,0,0,rectangle,-2.666625977,-2.666687012,1,0,0,-2.666625977,-2.666687012,1,0,0,1,68,228,143,1,,,,,,,,
,,,,,,,,,,,,,FF,,,,,,,,0.9416,,,,,,,,,,,,,,,,,,,,,,60ff130d929d6acef9620518,61036b2ce7a04725683a46be,2021-07-29_20h00.38.270,Simcolourproject_2stim_asymm_v5,2020.2.10,Win32,60,61025ae37ef11b136ea224fe,,,,,,,,,909,-94,-56,1,0,0,response5disk,,2,-14,10.66665649,1,0,0,rectangle,-14,10.66665649,1,0,0,-14,10.66665649,1,0,0,1,69,229,72,1,,,,,,,,
,,,,,,,,,,,,,FF,,,,,,,,1.8994,,,,,,,,,,,,,,,,,,,,,,60ff130d929d6acef9620518,61036b2ce7a04725683a46be,2021-07-29_20h00.38.270,Simcolourproject_2stim_asymm_v5,2020.2.10,Win32,60,61025ae37ef11b136ea224fe,,,,,,,,,1471,38,-99.33334351,1,0,0,response3disk,,4,-4.666625977,0.666656494,1,0,0,rectangle,-4.666625977,0.666656494,1,0,0,-4.666625977,0.666656494,1,0,0,1,70,230,12,1,,,,,,,,
,,,,,,,,,,,,,FF,,,,,,,,0.7492,,,,,,,,,,,,,,,,,,,,,,60ff130d929d6acef9620518,61036b2ce7a04725683a46be,2021-07-29_20h00.38.270,Simcolourproject_2stim_asymm_v5,2020.2.10,Win32,60,61025ae37ef11b136ea224fe,,,,,,,,,1168,22,95.33331299,1,0,0,response1disk,,7,-13.33331299,1.333312988,1,0,0,rectangle,-13.33331299,1.333312988,1,0,0,-13.33331299,1.333312988,1,0,0,1,71,231,125,1,,,,,,,,
,,,,,,,,,,,,,FF,,,,,,,,2.1993,,,,,,,,,,,,,,,,,,,,,,60ff130d929d6acef9620518,61036b2ce7a04725683a46be,2021-07-29_20h00.38.270,Simcolourproject_2stim_asymm_v5,2020.2.10,Win32,60,61025ae37ef11b136ea224fe,,,,,,,,,1718,41.33337402,-77.33334351,1,0,0,response3disk,,4,16.66668701,-3.333343506,1,0,0,rectangle,16.66668701,-3.333343506,1,0,0,16.66668701,-3.333343506,1,0,0,1,72,232,130,1,,,,,,,,
,,,,,,,,,,,,,FF,,,,,,,,1.4831,,,,,,,,,,,,,,,,,,,,,,60ff130d929d6acef9620518,61036b2ce7a04725683a46be,2021-07-29_20h00.38.270,Simcolourproject_2stim_asymm_v5,2020.2.10,Win32,60,61025ae37ef11b136ea224fe,,,,,,,,,1546,92,-50.66668701,1,0,0,response3disk,,5,1.333374023,-3.333343506,1,0,0,rectangle,1.333374023,-3.333343506,1,0,0,1.333374023,-3.333343506,1,0,0,1,73,233,41,1,,,,,,,,
,,,,,,,,,,,,,FF,,,,,,,,0.8219,,,,,,,,,,,,,,,,,,,,,,60ff130d929d6acef9620518,61036b2ce7a04725683a46be,2021-07-29_20h00.38.270,Simcolourproject_2stim_asymm_v5,2020.2.10,Win32,60,61025ae37ef11b136ea224fe,,,,,,,,,2480,-84,45.33331299,1,0,0,response7disk,,1,10,-10.66668701,1,0,0,rectangle,10,-10.66668701,1,0,0,10,-10.66668701,1,0,0,1,74,234,93,1,,,,,,,,
,,,,,,,,,,,,,FF,,,,,,,,0.7665,,,,,,,,,,,,,,,,,,,,,,60ff130d929d6acef9620518,61036b2ce7a04725683a46be,2021-07-29_20h00.38.270,Simcolourproject_2stim_asymm_v5,2020.2.10,Win32,60,61025ae37ef11b136ea224fe,,,,,,,,,901,-103.333313,-54,1,0,0,response5disk,,2,-9.333312988,1.333312988,1,0,0,rectangle,-9.333312988,1.333312988,1,0,0,-9.333312988,1.333312988,1,0,0,1,75,235,28,1,,,,,,,,
,,,,,,,,,,,,,FF,,,,,,,,1.3566,,,,,,,,,,,,,,,,,,,,,,60ff130d929d6acef9620518,61036b2ce7a04725683a46be,2021-07-29_20h00.38.270,Simcolourproject_2stim_asymm_v5,2020.2.10,Win32,60,61025ae37ef11b136ea224fe,,,,,,,,,4196,-56.66662598,-100.666687,1,0,0,response5disk,,3,6,-3.333343506,1,0,0,rectangle,6,-3.333343506,1,0,0,6,-3.333343506,1,0,0,1,76,236,2,1,,,,,,,,
,,,,,,,,,,,,,FF,,,,,,,,1.2824,,,,,,,,,,,,,,,,,,,,,,60ff130d929d6acef9620518,61036b2ce7a04725683a46be,2021-07-29_20h00.38.270,Simcolourproject_2stim_asymm_v5,2020.2.10,Win32,60,61025ae37ef11b136ea224fe,,,,,,,,,67,-68,-112.666687,1,0,0,response5disk,,3,2,9.333312988,1,0,0,rectangle,2,9.333312988,1,0,0,2,9.333312988,1,0,0,1,77,237,76,1,,,,,,,,
,,,,,,,,,,,,,FF,,,,,,,,1.2671,,,,,,,,,,,,,,,,,,,,,,60ff130d929d6acef9620518,61036b2ce7a04725683a46be,2021-07-29_20h00.38.270,Simcolourproject_2stim_asymm_v5,2020.2.10,Win32,60,61025ae37ef11b136ea224fe,,,,,,,,,3514,-105.333313,-37.33334351,1,0,0,response5disk,,2,-0.666625977,9.333312988,1,0,0,rectangle,-0.666625977,9.333312988,1,0,0,-0.666625977,9.333312988,1,0,0,1,78,238,104,1,,,,,,,,
,,,,,,,,,,,,,FF,,,,,,,,1.1836,,,,,,,,,,,,,,,,,,,,,,60ff130d929d6acef9620518,61036b2ce7a04725683a46be,2021-07-29_20h00.38.270,Simcolourproject_2stim_asymm_v5,2020.2.10,Win32,60,61025ae37ef11b136ea224fe,,,,,,,,,1736,-95.33331299,-34,1,0,0,response5disk,,2,-19.33331299,1.333312988,1,0,0,rectangle,-19.33331299,1.333312988,1,0,0,-19.33331299,1.333312988,1,0,0,1,79,239,29,1,,,,,,,,
,,,,,,,,,,,,,FF,,,,,,,,1.8659,,,,,,,,,,,,,,,,,,,,,,60ff130d929d6acef9620518,61036b2ce7a04725683a46be,2021-07-29_20h00.38.270,Simcolourproject_2stim_asymm_v5,2020.2.10,Win32,60,61025ae37ef11b136ea224fe,,,,,,,,,1401,54.66668701,106,1,0,0,response1disk,,7,16,8,1,0,0,rectangle,16,8,1,0,0,16,8,1,0,0,1,80,240,61,1,,,,,,,,
,,,,,,,,,,,,,FF,,,,,,,,1.241,,,,,,,,,,,,,,,,,,,,,,60ff130d929d6acef9620518,61036b2ce7a04725683a46be,2021-07-29_20h00.38.270,Simcolourproject_2stim_asymm_v5,2020.2.10,Win32,60,61025ae37ef11b136ea224fe,,,,,,,,,549,-86.66662598,-27.33334351,1,0,0,response5disk,,2,-14.66662598,-8.666687012,1,0,0,rectangle,-14.66662598,-8.666687012,1,0,0,-14.66662598,-8.666687012,1,0,0,1,81,241,82,1,,,,,,,,
,,,,,,,,,,,,,FF,,,,,,,,1.9493,,,,,,,,,,,,,,,,,,,,,,60ff130d929d6acef9620518,61036b2ce7a04725683a46be,2021-07-29_20h00.38.270,Simcolourproject_2stim_asymm_v5,2020.2.10,Win32,60,61025ae37ef11b136ea224fe,,,,,,,,,2338,88,44.66665649,1,0,0,response1disk,,6,3.333374023,4.666656494,1,0,0,rectangle,3.333374023,4.666656494,1,0,0,3.333374023,4.666656494,1,0,0,1,82,242,49,1,,,,,,,,
,,,,,,,,,,,,,FF,,,,,,,,0.7166,,,,,,,,,,,,,,,,,,,,,,60ff130d929d6acef9620518,61036b2ce7a04725683a46be,2021-07-29_20h00.38.270,Simcolourproject_2stim_asymm_v5,2020.2.10,Win32,60,61025ae37ef11b136ea224fe,,,,,,,,,2831,-30,82,1,0,0,response7disk,,0,-0.666625977,2,1,0,0,rectangle,-0.666625977,2,1,0,0,-0.666625977,2,1,0,0,1,83,243,137,1,,,,,,,,
,,,,,,,,,,,,,FF,,,,,,,,1.2492,,,,,,,,,,,,,,,,,,,,,,60ff130d929d6acef9620518,61036b2ce7a04725683a46be,2021-07-29_20h00.38.270,Simcolourproject_2stim_asymm_v5,2020.2.10,Win32,60,61025ae37ef11b136ea224fe,,,,,,,,,2534,-86.66662598,-36,1,0,0,response5disk,,2,-4.666625977,4.666656494,1,0,0,rectangle,-4.666625977,4.666656494,1,0,0,-4.666625977,4.666656494,1,0,0,1,84,244,67,1,,,,,,,,
,,,,,,,,,,,,,FF,,,,,,,,0.949,,,,,,,,,,,,,,,,,,,,,,60ff130d929d6acef9620518,61036b2ce7a04725683a46be,2021-07-29_20h00.38.270,Simcolourproject_2stim_asymm_v5,2020.2.10,Win32,60,61025ae37ef11b136ea224fe,,,,,,,,,2736,-75.33331299,45.33331299,1,0,0,response7disk,,1,-2,4.666656494,1,0,0,rectangle,87.33337402,42,1,0,0,12,-4.666687012,1,0,0,1,85,245,139,1,,response1disk_3,TRUE,6,6,"[9,246,21,56,218,189,89,263,164,246,169,57,51,309,192,166,268,192,41,97]",1.3818,rectangle
,,,,,,,,,,,,,FF,,,,,,,,0.7169,,,,,,,,,,,,,,,,,,,,,,60ff130d929d6acef9620518,61036b2ce7a04725683a46be,2021-07-29_20h00.38.270,Simcolourproject_2stim_asymm_v5,2020.2.10,Win32,60,61025ae37ef11b136ea224fe,,,,,,,,,3344,32.66668701,93.33331299,1,0,0,response1disk,,7,-2,-4.666687012,1,0,0,rectangle,-2,-4.666687012,1,0,0,-2,-4.666687012,1,0,0,1,86,246,134,1,,,,,,,,
,,,,,,,,,,,,,FF,,,,,,,,2.0158,,,,,,,,,,,,,,,,,,,,,,60ff130d929d6acef9620518,61036b2ce7a04725683a46be,2021-07-29_20h00.38.270,Simcolourproject_2stim_asymm_v5,2020.2.10,Win32,60,61025ae37ef11b136ea224fe,,,,,,,,,3443,63.33337402,-22.66668701,1,0,0,response3disk,,5,10.66668701,10,1,0,0,rectangle,10.66668701,10,1,0,0,10.66668701,10,1,0,0,1,87,247,110,1,,,,,,,,
,,,,,,,,,,,,,FF,,,,,,,,0.9165,,,,,,,,,,,,,,,,,,,,,,60ff130d929d6acef9620518,61036b2ce7a04725683a46be,2021-07-29_20h00.38.270,Simcolourproject_2stim_asymm_v5,2020.2.10,Win32,60,61025ae37ef11b136ea224fe,,,,,,,,,39,64.66668701,36,1,0,0,response1disk,,6,19.33337402,8,1,0,0,rectangle,19.33337402,8,1,0,0,19.33337402,8,1,0,0,1,88,248,78,1,,,,,,,,
,,,,,,,,,,,,,FF,,,,,,,,0.716,,,,,,,,,,,,,,,,,,,,,,60ff130d929d6acef9620518,61036b2ce7a04725683a46be,2021-07-29_20h00.38.270,Simcolourproject_2stim_asymm_v5,2020.2.10,Win32,60,61025ae37ef11b136ea224fe,,,,,,,,,1450,-34.66662598,-49.33334351,1,0,0,response5disk,,3,-8,1.333312988,1,0,0,rectangle,-8,1.333312988,1,0,0,-8,1.333312988,1,0,0,1,89,249,68,1,,,,,,,,
,,,,,,,,,,,,,FF,,,,,,,,0.9494,,,,,,,,,,,,,,,,,,,,,,60ff130d929d6acef9620518,61036b2ce7a04725683a46be,2021-07-29_20h00.38.270,Simcolourproject_2stim_asymm_v5,2020.2.10,Win32,60,61025ae37ef11b136ea224fe,,,,,,,,,1326,-58,-79.33334351,1,0,0,response5disk,,3,-16.66662598,-1.333343506,1,0,0,rectangle,-16.66662598,-1.333343506,1,0,0,-16.66662598,-1.333343506,1,0,0,1,90,250,141,1,,,,,,,,
,,,,,,,,,,,,,FF,,,,,,,,1.0158,,,,,,,,,,,,,,,,,,,,,,60ff130d929d6acef9620518,61036b2ce7a04725683a46be,2021-07-29_20h00.38.270,Simcolourproject_2stim_asymm_v5,2020.2.10,Win32,60,61025ae37ef11b136ea224fe,,,,,,,,,2460,82.66668701,38,1,0,0,response1disk,,6,-3.333312988,-12,1,0,0,rectangle,-3.333312988,-12,1,0,0,-3.333312988,-12,1,0,0,1,91,251,142,1,,,,,,,,
,,,,,,,,,,,,,FF,,,,,,,,0.8329,,,,,,,,,,,,,,,,,,,,,,60ff130d929d6acef9620518,61036b2ce7a04725683a46be,2021-07-29_20h00.38.270,Simcolourproject_2stim_asymm_v5,2020.2.10,Win32,60,61025ae37ef11b136ea224fe,,,,,,,,,2108,-83.33331299,-45.33334351,1,0,0,response5disk,,2,-5.333312988,-1.333343506,1,0,0,rectangle,-5.333312988,-1.333343506,1,0,0,-5.333312988,-1.333343506,1,0,0,1,92,252,100,1,,,,,,,,
,,,,,,,,,,,,,FF,,,,,,,,1.0334,,,,,,,,,,,,,,,,,,,,,,60ff130d929d6acef9620518,61036b2ce7a04725683a46be,2021-07-29_20h00.38.270,Simcolourproject_2stim_asymm_v5,2020.2.10,Win32,60,61025ae37ef11b136ea224fe,,,,,,,,,3516,-68,33.33331299,1,0,0,response7disk,,1,-10,-0.666687012,1,0,0,rectangle,-10,-0.666687012,1,0,0,-10,-0.666687012,1,0,0,1,93,253,136,1,,,,,,,,
,,,,,,,,,,,,,FF,,,,,,,,0.6497,,,,,,,,,,,,,,,,,,,,,,60ff130d929d6acef9620518,61036b2ce7a04725683a46be,2021-07-29_20h00.38.270,Simcolourproject_2stim_asymm_v5,2020.2.10,Win32,60,61025ae37ef11b136ea224fe,,,,,,,,,2418,-32.66662598,80.66665649,1,0,0,response7disk,,0,-16.66662598,-2,1,0,0,rectangle,-16.66662598,-2,1,0,0,-16.66662598,-2,1,0,0,1,94,254,30,1,,,,,,,,
,,,,,,,,,,,,,FF,,,,,,,,1.039,,,,,,,,,,,,,,,,,,,,,,60ff130d929d6acef9620518,61036b2ce7a04725683a46be,2021-07-29_20h00.38.270,Simcolourproject_2stim_asymm_v5,2020.2.10,Win32,60,61025ae37ef11b136ea224fe,,,,,,,,,2227,-78.66662598,48.66665649,1,0,0,response7disk,,1,-12,6,1,0,0,rectangle,-12,6,1,0,0,-12,6,1,0,0,1,95,255,149,1,,,,,,,,
,,,,,,,,,,,,,FF,,,,,,,,1.4163,,,,,,,,,,,,,,,,,,,,,,60ff130d929d6acef9620518,61036b2ce7a04725683a46be,2021-07-29_20h00.38.270,Simcolourproject_2stim_asymm_v5,2020.2.10,Win32,60,61025ae37ef11b136ea224fe,,,,,,,,,2328,86.66668701,42,1,0,0,response1disk,,6,0,4,1,0,0,rectangle,0,4,1,0,0,0,4,1,0,0,1,96,256,94,1,,,,,,,,
,,,,,,,,,,,,,FF,,,,,,,,0.883,,,,,,,,,,,,,,,,,,,,,,60ff130d929d6acef9620518,61036b2ce7a04725683a46be,2021-07-29_20h00.38.270,Simcolourproject_2stim_asymm_v5,2020.2.10,Win32,60,61025ae37ef11b136ea224fe,,,,,,,,,2822,48.66668701,98,1,0,0,response1disk,,7,1.333374023,5.333312988,1,0,0,rectangle,1.333374023,5.333312988,1,0,0,1.333374023,5.333312988,1,0,0,1,97,257,111,1,,,,,,,,
,,,,,,,,,,,,,FF,,,,,,,,1.4166,,,,,,,,,,,,,,,,,,,,,,60ff130d929d6acef9620518,61036b2ce7a04725683a46be,2021-07-29_20h00.38.270,Simcolourproject_2stim_asymm_v5,2020.2.10,Win32,60,61025ae37ef11b136ea224fe,,,,,,,,,2781,-59.33331299,-78,1,0,0,response5disk,,3,2,11.33331299,1,0,0,rectangle,2,11.33331299,1,0,0,2,11.33331299,1,0,0,1,98,258,105,1,,,,,,,,
