key_resp.keys,key_resp.rt,key_resp_14.keys,key_resp_14.rt,key_resp_15.keys,key_resp_15.rt,key_resp_17.keys,key_resp_17.rt,key_resp_9.keys,key_resp_9.rt,key_resp_10.keys,key_resp_10.rt,practice_comparison,Ecc,mouse_5.x,mouse_5.y,mouse_5.leftButton,mouse_5.midButton,mouse_5.rightButton,mouse_5.clicked_name,pracsimilarity,response_time,mouse_10.x,mouse_10.y,mouse_10.leftButton,mouse_10.midButton,mouse_10.rightButton,mouse_10.clicked_name,mouse_7.x,mouse_7.y,mouse_7.leftButton,mouse_7.midButton,mouse_7.rightButton,mouse_6.x,mouse_6.y,mouse_6.leftButton,mouse_6.midButton,mouse_6.rightButton,duringprac.thisRepN,duringprac.thisTrialN,duringprac.thisN,duringprac.thisIndex,duringprac.ran,participant,session,date,expName,psychopyVersion,OS,frameRate,study_id,mouse_7.clicked_name,catchpracsimilarity,catch_response_time,catchnumberprac,catchtrialorderprac,mouse_6.clicked_name,key_resp_22.keys,key_resp_22.rt,realcomparison,mouse.x,mouse.y,mouse.leftButton,mouse.midButton,mouse.rightButton,mouse.clicked_name,Colour2,similarity,mouse_2.x,mouse_2.y,mouse_2.leftButton,mouse_2.midButton,mouse_2.rightButton,mouse_2.clicked_name,mouse_3.x,mouse_3.y,mouse_3.leftButton,mouse_3.midButton,mouse_3.rightButton,mouse_11.x,mouse_11.y,mouse_11.leftButton,mouse_11.midButton,mouse_11.rightButton,trials_2.thisRepN,trials_2.thisTrialN,trials_2.thisN,trials_2.thisIndex,trials_2.ran,Colour1,mouse_3.clicked_name,catchornah,catchsimilarity,catchnumber,catchtrialorder,catchRT,mouse_11.clicked_name
space,2.704,space,34.573,space,47.011,space,9.249,space,6.316,space,5.148,152,FF,127,68,1,0,0,response1disk_5,6,6.164,4,-5,1,0,0,rectangle_8,4,-5,1,0,0,4,-5,1,0,0,0,0,0,3,1,60ff50ac6339b1e4ce7b1909,61036c25ada89aa3a7128e4e,2021-07-30_05h04.26.292,Simcolourproject_2stim_asymm_v5,2020.2.10,Win32,60,61025ae37ef11b136ea224fe,,,,,,,,,,,,,,,,,,,,,,,,,,,,,,,,,,,,,,,,,,,,,,
,,,,,,,,,,,,121,PF,-75,-101,1,0,0,response5disk_5,3,10.25,8,0,1,0,0,rectangle_8,66,125,1,0,0,-3,0,1,0,0,0,1,1,2,1,60ff50ac6339b1e4ce7b1909,61036c25ada89aa3a7128e4e,2021-07-30_05h04.26.292,Simcolourproject_2stim_asymm_v5,2020.2.10,Win32,60,61025ae37ef11b136ea224fe,response1disk_7,7,4.024,7,"[2,5]",rectangle_4,,,,,,,,,,,,,,,,,,,,,,,,,,,,,,,,,,,,,,,,
,,,,,,,,,,,,91,PF,-107,61,1,0,0,response7disk_5,1,3.448,-1,-1,1,0,0,rectangle_8,-1,-1,1,0,0,-1,-1,1,0,0,0,2,2,4,1,60ff50ac6339b1e4ce7b1909,61036c25ada89aa3a7128e4e,2021-07-30_05h04.26.292,Simcolourproject_2stim_asymm_v5,2020.2.10,Win32,60,61025ae37ef11b136ea224fe,,,,,,,,,,,,,,,,,,,,,,,,,,,,,,,,,,,,,,,,,,,,,,
,,,,,,,,,,,,11,FF,90,-130,1,0,0,response3disk_5,4,8.28,8,1,1,0,0,rectangle_8,8,1,1,0,0,8,1,1,0,0,0,3,3,0,1,60ff50ac6339b1e4ce7b1909,61036c25ada89aa3a7128e4e,2021-07-30_05h04.26.292,Simcolourproject_2stim_asymm_v5,2020.2.10,Win32,60,61025ae37ef11b136ea224fe,,,,,,,,,,,,,,,,,,,,,,,,,,,,,,,,,,,,,,,,,,,,,,
,,,,,,,,,,,,78,PF,27,-161,1,0,0,response3disk_5,4,8.998,1,-4,1,0,0,rectangle_8,51,118,1,0,0,6,2,1,0,0,0,4,4,1,1,60ff50ac6339b1e4ce7b1909,61036c25ada89aa3a7128e4e,2021-07-30_05h04.26.292,Simcolourproject_2stim_asymm_v5,2020.2.10,Win32,60,61025ae37ef11b136ea224fe,response1disk_7,7,2.535,7,"[2,5]",rectangle_4,,,,,,,,,,,,,,,,,,,,,,,,,,,,,,,,,,,,,,,,
,,,,,,,,,,,,32,PF,59,-35,1,0,0,response3disk_5,5,3.217,-10,2,1,0,0,rectangle_8,-10,2,1,0,0,-10,2,1,0,0,0,5,5,6,1,60ff50ac6339b1e4ce7b1909,61036c25ada89aa3a7128e4e,2021-07-30_05h04.26.292,Simcolourproject_2stim_asymm_v5,2020.2.10,Win32,60,61025ae37ef11b136ea224fe,,,,,,,,,,,,,,,,,,,,,,,,,,,,,,,,,,,,,,,,,,,,,,
,,,,,,,,,,,,150,FF,-105,-52,1,0,0,response5disk_5,2,1.97,14,-1,1,0,0,rectangle_8,14,-1,1,0,0,14,-1,1,0,0,0,6,6,5,1,60ff50ac6339b1e4ce7b1909,61036c25ada89aa3a7128e4e,2021-07-30_05h04.26.292,Simcolourproject_2stim_asymm_v5,2020.2.10,Win32,60,61025ae37ef11b136ea224fe,,,,,,,,,,,,,,,,,,,,,,,,,,,,,,,,,,,,,,,,,,,,,,
,,,,,,,,,,,,,FF,,,,,,,,5.353,,,,,,,,,,,,,,,,,,,,,,60ff50ac6339b1e4ce7b1909,61036c25ada89aa3a7128e4e,2021-07-30_05h04.26.292,Simcolourproject_2stim_asymm_v5,2020.2.10,Win32,60,61025ae37ef11b136ea224fe,,,,,,,space,4.048,2553,-43,-105,1,0,0,response5disk,,3,-3,1,1,0,0,rectangle,-3,1,1,0,0,-3,1,1,0,0,0,0,0,91,1,,,,,,,,
,,,,,,,,,,,,,FF,,,,,,,,2.177,,,,,,,,,,,,,,,,,,,,,,60ff50ac6339b1e4ce7b1909,61036c25ada89aa3a7128e4e,2021-07-30_05h04.26.292,Simcolourproject_2stim_asymm_v5,2020.2.10,Win32,60,61025ae37ef11b136ea224fe,,,,,,,,,3137,53,77,1,0,0,response1disk,,7,-11,-4,1,0,0,rectangle,-11,-4,1,0,0,-11,-4,1,0,0,0,1,1,92,1,,,,,,,,
,,,,,,,,,,,,,FF,,,,,,,,1.721,,,,,,,,,,,,,,,,,,,,,,60ff50ac6339b1e4ce7b1909,61036c25ada89aa3a7128e4e,2021-07-30_05h04.26.292,Simcolourproject_2stim_asymm_v5,2020.2.10,Win32,60,61025ae37ef11b136ea224fe,,,,,,,,,266,-104,-68,1,0,0,response5disk,,2,13,-1,1,0,0,rectangle,13,-1,1,0,0,13,-1,1,0,0,0,2,2,71,1,,,,,,,,
,,,,,,,,,,,,,FF,,,,,,,,2.425,,,,,,,,,,,,,,,,,,,,,,60ff50ac6339b1e4ce7b1909,61036c25ada89aa3a7128e4e,2021-07-30_05h04.26.292,Simcolourproject_2stim_asymm_v5,2020.2.10,Win32,60,61025ae37ef11b136ea224fe,,,,,,,,,1635,43,-97,1,0,0,response3disk,,4,-2,-5,1,0,0,rectangle,-2,-5,1,0,0,-2,-5,1,0,0,0,3,3,7,1,,,,,,,,
,,,,,,,,,,,,,FF,,,,,,,,2.167,,,,,,,,,,,,,,,,,,,,,,60ff50ac6339b1e4ce7b1909,61036c25ada89aa3a7128e4e,2021-07-30_05h04.26.292,Simcolourproject_2stim_asymm_v5,2020.2.10,Win32,60,61025ae37ef11b136ea224fe,,,,,,,,,2374,42,-81,1,0,0,response3disk,,4,6,-1,1,0,0,rectangle,6,-1,1,0,0,6,-1,1,0,0,0,4,4,104,1,,,,,,,,
,,,,,,,,,,,,,FF,,,,,,,,2.948,,,,,,,,,,,,,,,,,,,,,,60ff50ac6339b1e4ce7b1909,61036c25ada89aa3a7128e4e,2021-07-30_05h04.26.292,Simcolourproject_2stim_asymm_v5,2020.2.10,Win32,60,61025ae37ef11b136ea224fe,,,,,,,,,1338,40,-92,1,0,0,response3disk,,4,12,4,1,0,0,rectangle,-129,-56,1,0,0,-2,7,1,0,0,0,5,5,140,1,,response5disk_3,TRUE,2,2,"[242,54,260,74,151,146,196,6,249,222,76,253,295,293,185,152,80,251,211,304]",2.375,rectangle
,,,,,,,,,,,,,FF,,,,,,,,1.29,,,,,,,,,,,,,,,,,,,,,,60ff50ac6339b1e4ce7b1909,61036c25ada89aa3a7128e4e,2021-07-30_05h04.26.292,Simcolourproject_2stim_asymm_v5,2020.2.10,Win32,60,61025ae37ef11b136ea224fe,,,,,,,,,2196,82,-46,1,0,0,response3disk,,5,-9,0,1,0,0,rectangle,-9,0,1,0,0,-9,0,1,0,0,0,6,6,99,1,,,,,,,,
,,,,,,,,,,,,,FF,,,,,,,,4.945,,,,,,,,,,,,,,,,,,,,,,60ff50ac6339b1e4ce7b1909,61036c25ada89aa3a7128e4e,2021-07-30_05h04.26.292,Simcolourproject_2stim_asymm_v5,2020.2.10,Win32,60,61025ae37ef11b136ea224fe,,,,,,,,,497,149,-46,1,0,0,response3disk,,5,-2,-2,1,0,0,rectangle,-2,-2,1,0,0,-2,-2,1,0,0,0,7,7,6,1,,,,,,,,
,,,,,,,,,,,,,FF,,,,,,,,2.474,,,,,,,,,,,,,,,,,,,,,,60ff50ac6339b1e4ce7b1909,61036c25ada89aa3a7128e4e,2021-07-30_05h04.26.292,Simcolourproject_2stim_asymm_v5,2020.2.10,Win32,60,61025ae37ef11b136ea224fe,,,,,,,,,3958,41,-106,1,0,0,response3disk,,4,-14,3,1,0,0,rectangle,-14,3,1,0,0,-14,3,1,0,0,0,8,8,149,1,,,,,,,,
,,,,,,,,,,,,,FF,,,,,,,,2.308,,,,,,,,,,,,,,,,,,,,,,60ff50ac6339b1e4ce7b1909,61036c25ada89aa3a7128e4e,2021-07-30_05h04.26.292,Simcolourproject_2stim_asymm_v5,2020.2.10,Win32,60,61025ae37ef11b136ea224fe,,,,,,,,,846,115,-54,1,0,0,response3disk,,5,-10,0,1,0,0,rectangle,-10,0,1,0,0,-10,0,1,0,0,0,9,9,16,1,,,,,,,,
,,,,,,,,,,,,,FF,,,,,,,,2.12,,,,,,,,,,,,,,,,,,,,,,60ff50ac6339b1e4ce7b1909,61036c25ada89aa3a7128e4e,2021-07-30_05h04.26.292,Simcolourproject_2stim_asymm_v5,2020.2.10,Win32,60,61025ae37ef11b136ea224fe,,,,,,,,,3466,43,-96,1,0,0,response3disk,,4,-12,-2,1,0,0,rectangle,-12,-2,1,0,0,-12,-2,1,0,0,0,10,10,135,1,,,,,,,,
,,,,,,,,,,,,,FF,,,,,,,,2.522,,,,,,,,,,,,,,,,,,,,,,60ff50ac6339b1e4ce7b1909,61036c25ada89aa3a7128e4e,2021-07-30_05h04.26.292,Simcolourproject_2stim_asymm_v5,2020.2.10,Win32,60,61025ae37ef11b136ea224fe,,,,,,,,,1284,-32,-122,1,0,0,response5disk,,3,-3,-11,1,0,0,rectangle,-3,-11,1,0,0,-3,-11,1,0,0,0,11,11,159,1,,,,,,,,
,,,,,,,,,,,,,FF,,,,,,,,0.914,,,,,,,,,,,,,,,,,,,,,,60ff50ac6339b1e4ce7b1909,61036c25ada89aa3a7128e4e,2021-07-30_05h04.26.292,Simcolourproject_2stim_asymm_v5,2020.2.10,Win32,60,61025ae37ef11b136ea224fe,,,,,,,,,1732,96,-53,1,0,0,response3disk,,5,-10,5,1,0,0,rectangle,-10,5,1,0,0,-10,5,1,0,0,0,12,12,116,1,,,,,,,,
,,,,,,,,,,,,,FF,,,,,,,,2.312,,,,,,,,,,,,,,,,,,,,,,60ff50ac6339b1e4ce7b1909,61036c25ada89aa3a7128e4e,2021-07-30_05h04.26.292,Simcolourproject_2stim_asymm_v5,2020.2.10,Win32,60,61025ae37ef11b136ea224fe,,,,,,,,,2388,39,-100,1,0,0,response3disk,,4,7,-2,1,0,0,rectangle,7,-2,1,0,0,7,-2,1,0,0,0,13,13,33,1,,,,,,,,
,,,,,,,,,,,,,FF,,,,,,,,1.025,,,,,,,,,,,,,,,,,,,,,,60ff50ac6339b1e4ce7b1909,61036c25ada89aa3a7128e4e,2021-07-30_05h04.26.292,Simcolourproject_2stim_asymm_v5,2020.2.10,Win32,60,61025ae37ef11b136ea224fe,,,,,,,,,1019,-33,-93,1,0,0,response5disk,,3,-6,3,1,0,0,rectangle,-6,3,1,0,0,-6,3,1,0,0,0,14,14,11,1,,,,,,,,
,,,,,,,,,,,,,FF,,,,,,,,3.004,,,,,,,,,,,,,,,,,,,,,,60ff50ac6339b1e4ce7b1909,61036c25ada89aa3a7128e4e,2021-07-30_05h04.26.292,Simcolourproject_2stim_asymm_v5,2020.2.10,Win32,60,61025ae37ef11b136ea224fe,,,,,,,,,1718,103,-68,1,0,0,response3disk,,5,2,-1,1,0,0,rectangle,2,-1,1,0,0,2,-1,1,0,0,0,15,15,122,1,,,,,,,,
,,,,,,,,,,,,,FF,,,,,,,,2.47,,,,,,,,,,,,,,,,,,,,,,60ff50ac6339b1e4ce7b1909,61036c25ada89aa3a7128e4e,2021-07-30_05h04.26.292,Simcolourproject_2stim_asymm_v5,2020.2.10,Win32,60,61025ae37ef11b136ea224fe,,,,,,,,,3759,-42,-138,1,0,0,response5disk,,3,-10,-3,1,0,0,rectangle,-10,-3,1,0,0,-10,-3,1,0,0,0,16,16,40,1,,,,,,,,
,,,,,,,,,,,,,FF,,,,,,,,2.592,,,,,,,,,,,,,,,,,,,,,,60ff50ac6339b1e4ce7b1909,61036c25ada89aa3a7128e4e,2021-07-30_05h04.26.292,Simcolourproject_2stim_asymm_v5,2020.2.10,Win32,60,61025ae37ef11b136ea224fe,,,,,,,,,3739,80,-130,1,0,0,response3disk,,4,-15,0,1,0,0,rectangle,-15,0,1,0,0,-15,0,1,0,0,0,17,17,42,1,,,,,,,,
,,,,,,,,,,,,,FF,,,,,,,,2.337,,,,,,,,,,,,,,,,,,,,,,60ff50ac6339b1e4ce7b1909,61036c25ada89aa3a7128e4e,2021-07-30_05h04.26.292,Simcolourproject_2stim_asymm_v5,2020.2.10,Win32,60,61025ae37ef11b136ea224fe,,,,,,,,,2893,-104,43,1,0,0,response7disk,,1,-6,-4,1,0,0,rectangle,-6,-4,1,0,0,-6,-4,1,0,0,0,18,18,51,1,,,,,,,,
,,,,,,,,,,,,,FF,,,,,,,,0.966,,,,,,,,,,,,,,,,,,,,,,60ff50ac6339b1e4ce7b1909,61036c25ada89aa3a7128e4e,2021-07-30_05h04.26.292,Simcolourproject_2stim_asymm_v5,2020.2.10,Win32,60,61025ae37ef11b136ea224fe,,,,,,,,,4280,-58,88,1,0,0,response7disk,,0,0,-4,1,0,0,rectangle,0,-4,1,0,0,0,-4,1,0,0,0,19,19,24,1,,,,,,,,
,,,,,,,,,,,,,FF,,,,,,,,1.476,,,,,,,,,,,,,,,,,,,,,,60ff50ac6339b1e4ce7b1909,61036c25ada89aa3a7128e4e,2021-07-30_05h04.26.292,Simcolourproject_2stim_asymm_v5,2020.2.10,Win32,60,61025ae37ef11b136ea224fe,,,,,,,,,2165,-122,41,1,0,0,response7disk,,1,-4,-14,1,0,0,rectangle,-4,-14,1,0,0,-4,-14,1,0,0,0,20,20,80,1,,,,,,,,
,,,,,,,,,,,,,FF,,,,,,,,1.329,,,,,,,,,,,,,,,,,,,,,,60ff50ac6339b1e4ce7b1909,61036c25ada89aa3a7128e4e,2021-07-30_05h04.26.292,Simcolourproject_2stim_asymm_v5,2020.2.10,Win32,60,61025ae37ef11b136ea224fe,,,,,,,,,4046,-74,83,1,0,0,response7disk,,0,2,-1,1,0,0,rectangle,2,-1,1,0,0,2,-1,1,0,0,0,21,21,22,1,,,,,,,,
,,,,,,,,,,,,,FF,,,,,,,,2.021,,,,,,,,,,,,,,,,,,,,,,60ff50ac6339b1e4ce7b1909,61036c25ada89aa3a7128e4e,2021-07-30_05h04.26.292,Simcolourproject_2stim_asymm_v5,2020.2.10,Win32,60,61025ae37ef11b136ea224fe,,,,,,,,,2043,-137,-95,1,0,0,response5disk,,2,10,3,1,0,0,rectangle,10,3,1,0,0,10,3,1,0,0,0,22,22,0,1,,,,,,,,
,,,,,,,,,,,,,FF,,,,,,,,1.05,,,,,,,,,,,,,,,,,,,,,,60ff50ac6339b1e4ce7b1909,61036c25ada89aa3a7128e4e,2021-07-30_05h04.26.292,Simcolourproject_2stim_asymm_v5,2020.2.10,Win32,60,61025ae37ef11b136ea224fe,,,,,,,,,3487,-56,-114,1,0,0,response5disk,,3,10,9,1,0,0,rectangle,10,9,1,0,0,10,9,1,0,0,0,23,23,13,1,,,,,,,,
,,,,,,,,,,,,,FF,,,,,,,,1.996,,,,,,,,,,,,,,,,,,,,,,60ff50ac6339b1e4ce7b1909,61036c25ada89aa3a7128e4e,2021-07-30_05h04.26.292,Simcolourproject_2stim_asymm_v5,2020.2.10,Win32,60,61025ae37ef11b136ea224fe,,,,,,,,,2358,-66,-128,1,0,0,response5disk,,3,-7,7,1,0,0,rectangle,-7,7,1,0,0,-7,7,1,0,0,0,24,24,52,1,,,,,,,,
,,,,,,,,,,,,,FF,,,,,,,,0.849,,,,,,,,,,,,,,,,,,,,,,60ff50ac6339b1e4ce7b1909,61036c25ada89aa3a7128e4e,2021-07-30_05h04.26.292,Simcolourproject_2stim_asymm_v5,2020.2.10,Win32,60,61025ae37ef11b136ea224fe,,,,,,,,,4028,-49,-97,1,0,0,response5disk,,3,4,1,1,0,0,rectangle,4,1,1,0,0,4,1,1,0,0,0,25,25,130,1,,,,,,,,
,,,,,,,,,,,,,FF,,,,,,,,2.14,,,,,,,,,,,,,,,,,,,,,,60ff50ac6339b1e4ce7b1909,61036c25ada89aa3a7128e4e,2021-07-30_05h04.26.292,Simcolourproject_2stim_asymm_v5,2020.2.10,Win32,60,61025ae37ef11b136ea224fe,,,,,,,,,195,94,-71,1,0,0,response3disk,,5,16,-8,1,0,0,rectangle,16,-8,1,0,0,16,-8,1,0,0,0,26,26,125,1,,,,,,,,
,,,,,,,,,,,,,FF,,,,,,,,1.077,,,,,,,,,,,,,,,,,,,,,,60ff50ac6339b1e4ce7b1909,61036c25ada89aa3a7128e4e,2021-07-30_05h04.26.292,Simcolourproject_2stim_asymm_v5,2020.2.10,Win32,60,61025ae37ef11b136ea224fe,,,,,,,,,2727,-115,-42,1,0,0,response5disk,,2,14,-9,1,0,0,rectangle,14,-9,1,0,0,14,-9,1,0,0,0,27,27,124,1,,,,,,,,
,,,,,,,,,,,,,FF,,,,,,,,0.691,,,,,,,,,,,,,,,,,,,,,,60ff50ac6339b1e4ce7b1909,61036c25ada89aa3a7128e4e,2021-07-30_05h04.26.292,Simcolourproject_2stim_asymm_v5,2020.2.10,Win32,60,61025ae37ef11b136ea224fe,,,,,,,,,1892,-72,-47,1,0,0,response5disk,,2,0,-3,1,0,0,rectangle,0,-3,1,0,0,0,-3,1,0,0,0,28,28,136,1,,,,,,,,
,,,,,,,,,,,,,FF,,,,,,,,1.487,,,,,,,,,,,,,,,,,,,,,,60ff50ac6339b1e4ce7b1909,61036c25ada89aa3a7128e4e,2021-07-30_05h04.26.292,Simcolourproject_2stim_asymm_v5,2020.2.10,Win32,60,61025ae37ef11b136ea224fe,,,,,,,,,3628,57,-87,1,0,0,response3disk,,4,-8,4,1,0,0,rectangle,-8,4,1,0,0,-8,4,1,0,0,0,29,29,60,1,,,,,,,,
,,,,,,,,,,,,,FF,,,,,,,,1.96,,,,,,,,,,,,,,,,,,,,,,60ff50ac6339b1e4ce7b1909,61036c25ada89aa3a7128e4e,2021-07-30_05h04.26.292,Simcolourproject_2stim_asymm_v5,2020.2.10,Win32,60,61025ae37ef11b136ea224fe,,,,,,,,,3794,129,31,1,0,0,response1disk,,6,2,-6,1,0,0,rectangle,2,-6,1,0,0,2,-6,1,0,0,0,30,30,36,1,,,,,,,,
,,,,,,,,,,,,,FF,,,,,,,,1.067,,,,,,,,,,,,,,,,,,,,,,60ff50ac6339b1e4ce7b1909,61036c25ada89aa3a7128e4e,2021-07-30_05h04.26.292,Simcolourproject_2stim_asymm_v5,2020.2.10,Win32,60,61025ae37ef11b136ea224fe,,,,,,,,,994,91,-33,1,0,0,response3disk,,5,7,-6,1,0,0,rectangle,7,-6,1,0,0,7,-6,1,0,0,0,31,31,1,1,,,,,,,,
,,,,,,,,,,,,,FF,,,,,,,,2.949,,,,,,,,,,,,,,,,,,,,,,60ff50ac6339b1e4ce7b1909,61036c25ada89aa3a7128e4e,2021-07-30_05h04.26.292,Simcolourproject_2stim_asymm_v5,2020.2.10,Win32,60,61025ae37ef11b136ea224fe,,,,,,,,,392,96,-72,1,0,0,response3disk,,5,-2,0,1,0,0,rectangle,-2,0,1,0,0,-2,0,1,0,0,0,32,32,112,1,,,,,,,,
,,,,,,,,,,,,,FF,,,,,,,,2.15,,,,,,,,,,,,,,,,,,,,,,60ff50ac6339b1e4ce7b1909,61036c25ada89aa3a7128e4e,2021-07-30_05h04.26.292,Simcolourproject_2stim_asymm_v5,2020.2.10,Win32,60,61025ae37ef11b136ea224fe,,,,,,,,,614,-50,-96,1,0,0,response5disk,,3,-13,-11,1,0,0,rectangle,-13,-11,1,0,0,-13,-11,1,0,0,0,33,33,101,1,,,,,,,,
,,,,,,,,,,,,,FF,,,,,,,,1.704,,,,,,,,,,,,,,,,,,,,,,60ff50ac6339b1e4ce7b1909,61036c25ada89aa3a7128e4e,2021-07-30_05h04.26.292,Simcolourproject_2stim_asymm_v5,2020.2.10,Win32,60,61025ae37ef11b136ea224fe,,,,,,,,,3566,-43,-87,1,0,0,response5disk,,3,-3,-2,1,0,0,rectangle,-3,-2,1,0,0,-3,-2,1,0,0,0,34,34,96,1,,,,,,,,
,,,,,,,,,,,,,FF,,,,,,,,3.81,,,,,,,,,,,,,,,,,,,,,,60ff50ac6339b1e4ce7b1909,61036c25ada89aa3a7128e4e,2021-07-30_05h04.26.292,Simcolourproject_2stim_asymm_v5,2020.2.10,Win32,60,61025ae37ef11b136ea224fe,,,,,,,,,331,77,-104,1,0,0,response3disk,,4,6,2,1,0,0,rectangle,6,2,1,0,0,6,2,1,0,0,0,35,35,158,1,,,,,,,,
,,,,,,,,,,,,,FF,,,,,,,,2.208,,,,,,,,,,,,,,,,,,,,,,60ff50ac6339b1e4ce7b1909,61036c25ada89aa3a7128e4e,2021-07-30_05h04.26.292,Simcolourproject_2stim_asymm_v5,2020.2.10,Win32,60,61025ae37ef11b136ea224fe,,,,,,,,,340,49,-135,1,0,0,response3disk,,4,-5,7,1,0,0,rectangle,-5,7,1,0,0,-5,7,1,0,0,0,36,36,59,1,,,,,,,,
,,,,,,,,,,,,,FF,,,,,,,,2.668,,,,,,,,,,,,,,,,,,,,,,60ff50ac6339b1e4ce7b1909,61036c25ada89aa3a7128e4e,2021-07-30_05h04.26.292,Simcolourproject_2stim_asymm_v5,2020.2.10,Win32,60,61025ae37ef11b136ea224fe,,,,,,,,,2508,163,38,1,0,0,response1disk,,6,-15,-1,1,0,0,rectangle,-15,-1,1,0,0,-15,-1,1,0,0,0,37,37,67,1,,,,,,,,
,,,,,,,,,,,,,FF,,,,,,,,1.527,,,,,,,,,,,,,,,,,,,,,,60ff50ac6339b1e4ce7b1909,61036c25ada89aa3a7128e4e,2021-07-30_05h04.26.292,Simcolourproject_2stim_asymm_v5,2020.2.10,Win32,60,61025ae37ef11b136ea224fe,,,,,,,,,2643,70,-46,1,0,0,response3disk,,5,28,-8,1,0,0,rectangle,28,-8,1,0,0,28,-8,1,0,0,0,38,38,21,1,,,,,,,,
,,,,,,,,,,,,,FF,,,,,,,,2.075,,,,,,,,,,,,,,,,,,,,,,60ff50ac6339b1e4ce7b1909,61036c25ada89aa3a7128e4e,2021-07-30_05h04.26.292,Simcolourproject_2stim_asymm_v5,2020.2.10,Win32,60,61025ae37ef11b136ea224fe,,,,,,,,,3623,-74,-117,1,0,0,response5disk,,3,-30,-7,1,0,0,rectangle,-30,-7,1,0,0,-30,-7,1,0,0,0,39,39,69,1,,,,,,,,
,,,,,,,,,,,,,FF,,,,,,,,1.272,,,,,,,,,,,,,,,,,,,,,,60ff50ac6339b1e4ce7b1909,61036c25ada89aa3a7128e4e,2021-07-30_05h04.26.292,Simcolourproject_2stim_asymm_v5,2020.2.10,Win32,60,61025ae37ef11b136ea224fe,,,,,,,,,3837,62,-98,1,0,0,response3disk,,4,23,3,1,0,0,rectangle,23,3,1,0,0,23,3,1,0,0,0,40,40,43,1,,,,,,,,
,,,,,,,,,,,,,FF,,,,,,,,0.807,,,,,,,,,,,,,,,,,,,,,,60ff50ac6339b1e4ce7b1909,61036c25ada89aa3a7128e4e,2021-07-30_05h04.26.292,Simcolourproject_2stim_asymm_v5,2020.2.10,Win32,60,61025ae37ef11b136ea224fe,,,,,,,,,1590,-43,-93,1,0,0,response5disk,,3,2,1,1,0,0,rectangle,2,1,1,0,0,2,1,1,0,0,0,41,41,44,1,,,,,,,,
,,,,,,,,,,,,,FF,,,,,,,,1.558,,,,,,,,,,,,,,,,,,,,,,60ff50ac6339b1e4ce7b1909,61036c25ada89aa3a7128e4e,2021-07-30_05h04.26.292,Simcolourproject_2stim_asymm_v5,2020.2.10,Win32,60,61025ae37ef11b136ea224fe,,,,,,,,,613,-112,-54,1,0,0,response5disk,,2,2,9,1,0,0,rectangle,2,9,1,0,0,2,9,1,0,0,0,42,42,78,1,,,,,,,,
,,,,,,,,,,,,,FF,,,,,,,,3.218,,,,,,,,,,,,,,,,,,,,,,60ff50ac6339b1e4ce7b1909,61036c25ada89aa3a7128e4e,2021-07-30_05h04.26.292,Simcolourproject_2stim_asymm_v5,2020.2.10,Win32,60,61025ae37ef11b136ea224fe,,,,,,,,,836,48,-95,1,0,0,response3disk,,4,17,-4,1,0,0,rectangle,17,-4,1,0,0,17,-4,1,0,0,0,43,43,94,1,,,,,,,,
,,,,,,,,,,,,,FF,,,,,,,,1.383,,,,,,,,,,,,,,,,,,,,,,60ff50ac6339b1e4ce7b1909,61036c25ada89aa3a7128e4e,2021-07-30_05h04.26.292,Simcolourproject_2stim_asymm_v5,2020.2.10,Win32,60,61025ae37ef11b136ea224fe,,,,,,,,,102,-46,-87,1,0,0,response5disk,,3,0,-6,1,0,0,rectangle,0,-6,1,0,0,0,-6,1,0,0,0,44,44,113,1,,,,,,,,
,,,,,,,,,,,,,FF,,,,,,,,1.543,,,,,,,,,,,,,,,,,,,,,,60ff50ac6339b1e4ce7b1909,61036c25ada89aa3a7128e4e,2021-07-30_05h04.26.292,Simcolourproject_2stim_asymm_v5,2020.2.10,Win32,60,61025ae37ef11b136ea224fe,,,,,,,,,4214,152,-45,1,0,0,response3disk,,5,4,-6,1,0,0,rectangle,4,-6,1,0,0,4,-6,1,0,0,0,45,45,23,1,,,,,,,,
,,,,,,,,,,,,,FF,,,,,,,,2.882,,,,,,,,,,,,,,,,,,,,,,60ff50ac6339b1e4ce7b1909,61036c25ada89aa3a7128e4e,2021-07-30_05h04.26.292,Simcolourproject_2stim_asymm_v5,2020.2.10,Win32,60,61025ae37ef11b136ea224fe,,,,,,,,,671,107,-53,1,0,0,response3disk,,5,16,1,1,0,0,rectangle,16,1,1,0,0,16,1,1,0,0,0,46,46,147,1,,,,,,,,
,,,,,,,,,,,,,FF,,,,,,,,1.591,,,,,,,,,,,,,,,,,,,,,,60ff50ac6339b1e4ce7b1909,61036c25ada89aa3a7128e4e,2021-07-30_05h04.26.292,Simcolourproject_2stim_asymm_v5,2020.2.10,Win32,60,61025ae37ef11b136ea224fe,,,,,,,,,3751,-73,-101,1,0,0,response5disk,,3,-3,1,1,0,0,rectangle,-3,1,1,0,0,-3,1,1,0,0,0,47,47,66,1,,,,,,,,
,,,,,,,,,,,,,FF,,,,,,,,0.717,,,,,,,,,,,,,,,,,,,,,,60ff50ac6339b1e4ce7b1909,61036c25ada89aa3a7128e4e,2021-07-30_05h04.26.292,Simcolourproject_2stim_asymm_v5,2020.2.10,Win32,60,61025ae37ef11b136ea224fe,,,,,,,,,1460,-102,-46,1,0,0,response5disk,,2,10,-9,1,0,0,rectangle,10,-9,1,0,0,10,-9,1,0,0,0,48,48,31,1,,,,,,,,
,,,,,,,,,,,,,FF,,,,,,,,2.914,,,,,,,,,,,,,,,,,,,,,,60ff50ac6339b1e4ce7b1909,61036c25ada89aa3a7128e4e,2021-07-30_05h04.26.292,Simcolourproject_2stim_asymm_v5,2020.2.10,Win32,60,61025ae37ef11b136ea224fe,,,,,,,,,4284,103,80,1,0,0,response1disk,,6,-3,4,1,0,0,rectangle,-3,4,1,0,0,-3,4,1,0,0,0,49,49,14,1,,,,,,,,
,,,,,,,,,,,,,FF,,,,,,,,1.245,,,,,,,,,,,,,,,,,,,,,,60ff50ac6339b1e4ce7b1909,61036c25ada89aa3a7128e4e,2021-07-30_05h04.26.292,Simcolourproject_2stim_asymm_v5,2020.2.10,Win32,60,61025ae37ef11b136ea224fe,,,,,,,,,2590,124,-43,1,0,0,response3disk,,5,31,3,1,0,0,rectangle,31,3,1,0,0,31,3,1,0,0,0,50,50,138,1,,,,,,,,
,,,,,,,,,,,,,FF,,,,,,,,0.929,,,,,,,,,,,,,,,,,,,,,,60ff50ac6339b1e4ce7b1909,61036c25ada89aa3a7128e4e,2021-07-30_05h04.26.292,Simcolourproject_2stim_asymm_v5,2020.2.10,Win32,60,61025ae37ef11b136ea224fe,,,,,,,,,4209,53,86,1,0,0,response1disk,,7,3,10,1,0,0,rectangle,3,10,1,0,0,3,10,1,0,0,0,51,51,64,1,,,,,,,,
,,,,,,,,,,,,,FF,,,,,,,,3.394,,,,,,,,,,,,,,,,,,,,,,60ff50ac6339b1e4ce7b1909,61036c25ada89aa3a7128e4e,2021-07-30_05h04.26.292,Simcolourproject_2stim_asymm_v5,2020.2.10,Win32,60,61025ae37ef11b136ea224fe,,,,,,,,,3853,-85,-43,1,0,0,response5disk,,2,3,8,1,0,0,rectangle,3,8,1,0,0,3,8,1,0,0,0,52,52,3,1,,,,,,,,
,,,,,,,,,,,,,FF,,,,,,,,0.958,,,,,,,,,,,,,,,,,,,,,,60ff50ac6339b1e4ce7b1909,61036c25ada89aa3a7128e4e,2021-07-30_05h04.26.292,Simcolourproject_2stim_asymm_v5,2020.2.10,Win32,60,61025ae37ef11b136ea224fe,,,,,,,,,598,57,-92,1,0,0,response3disk,,4,4,-4,1,0,0,rectangle,-53,-108,1,0,0,2,-3,1,0,0,0,53,53,29,1,,response5disk_3,TRUE,3,3,"[242,54,260,74,151,146,196,6,249,222,76,253,295,293,185,152,80,251,211,304]",2.428,rectangle
,,,,,,,,,,,,,FF,,,,,,,,4.416,,,,,,,,,,,,,,,,,,,,,,60ff50ac6339b1e4ce7b1909,61036c25ada89aa3a7128e4e,2021-07-30_05h04.26.292,Simcolourproject_2stim_asymm_v5,2020.2.10,Win32,60,61025ae37ef11b136ea224fe,,,,,,,,,461,-46,-125,1,0,0,response5disk,,3,-1,2,1,0,0,rectangle,-1,2,1,0,0,-1,2,1,0,0,0,54,54,77,1,,,,,,,,
,,,,,,,,,,,,,FF,,,,,,,,1.147,,,,,,,,,,,,,,,,,,,,,,60ff50ac6339b1e4ce7b1909,61036c25ada89aa3a7128e4e,2021-07-30_05h04.26.292,Simcolourproject_2stim_asymm_v5,2020.2.10,Win32,60,61025ae37ef11b136ea224fe,,,,,,,,,3883,121,-75,1,0,0,response3disk,,5,-20,-17,1,0,0,rectangle,-20,-17,1,0,0,-20,-17,1,0,0,0,55,55,68,1,,,,,,,,
,,,,,,,,,,,,,FF,,,,,,,,2.655,,,,,,,,,,,,,,,,,,,,,,60ff50ac6339b1e4ce7b1909,61036c25ada89aa3a7128e4e,2021-07-30_05h04.26.292,Simcolourproject_2stim_asymm_v5,2020.2.10,Win32,60,61025ae37ef11b136ea224fe,,,,,,,,,3962,44,-89,1,0,0,response3disk,,4,1,7,1,0,0,rectangle,1,7,1,0,0,1,7,1,0,0,0,56,56,70,1,,,,,,,,
,,,,,,,,,,,,,FF,,,,,,,,1.434,,,,,,,,,,,,,,,,,,,,,,60ff50ac6339b1e4ce7b1909,61036c25ada89aa3a7128e4e,2021-07-30_05h04.26.292,Simcolourproject_2stim_asymm_v5,2020.2.10,Win32,60,61025ae37ef11b136ea224fe,,,,,,,,,417,67,-101,1,0,0,response3disk,,4,-6,-6,1,0,0,rectangle,-6,-6,1,0,0,-6,-6,1,0,0,0,57,57,143,1,,,,,,,,
,,,,,,,,,,,,,FF,,,,,,,,1.344,,,,,,,,,,,,,,,,,,,,,,60ff50ac6339b1e4ce7b1909,61036c25ada89aa3a7128e4e,2021-07-30_05h04.26.292,Simcolourproject_2stim_asymm_v5,2020.2.10,Win32,60,61025ae37ef11b136ea224fe,,,,,,,,,2331,111,81,1,0,0,response1disk,,6,3,-3,1,0,0,rectangle,3,-3,1,0,0,3,-3,1,0,0,0,58,58,93,1,,,,,,,,
,,,,,,,,,,,,,FF,,,,,,,,0.923,,,,,,,,,,,,,,,,,,,,,,60ff50ac6339b1e4ce7b1909,61036c25ada89aa3a7128e4e,2021-07-30_05h04.26.292,Simcolourproject_2stim_asymm_v5,2020.2.10,Win32,60,61025ae37ef11b136ea224fe,,,,,,,,,3436,-54,-121,1,0,0,response5disk,,3,-12,-2,1,0,0,rectangle,-12,-2,1,0,0,-12,-2,1,0,0,0,59,59,56,1,,,,,,,,
,,,,,,,,,,,,,FF,,,,,,,,2.495,,,,,,,,,,,,,,,,,,,,,,60ff50ac6339b1e4ce7b1909,61036c25ada89aa3a7128e4e,2021-07-30_05h04.26.292,Simcolourproject_2stim_asymm_v5,2020.2.10,Win32,60,61025ae37ef11b136ea224fe,,,,,,,,,329,56,-119,1,0,0,response3disk,,4,16,-2,1,0,0,rectangle,16,-2,1,0,0,16,-2,1,0,0,0,60,60,132,1,,,,,,,,
,,,,,,,,,,,,,FF,,,,,,,,1.89,,,,,,,,,,,,,,,,,,,,,,60ff50ac6339b1e4ce7b1909,61036c25ada89aa3a7128e4e,2021-07-30_05h04.26.292,Simcolourproject_2stim_asymm_v5,2020.2.10,Win32,60,61025ae37ef11b136ea224fe,,,,,,,,,3292,62,-92,1,0,0,response3disk,,4,33,-2,1,0,0,rectangle,33,-2,1,0,0,33,-2,1,0,0,0,61,61,8,1,,,,,,,,
,,,,,,,,,,,,,FF,,,,,,,,1.717,,,,,,,,,,,,,,,,,,,,,,60ff50ac6339b1e4ce7b1909,61036c25ada89aa3a7128e4e,2021-07-30_05h04.26.292,Simcolourproject_2stim_asymm_v5,2020.2.10,Win32,60,61025ae37ef11b136ea224fe,,,,,,,,,299,133,41,1,0,0,response1disk,,6,12,-3,1,0,0,rectangle,12,-3,1,0,0,12,-3,1,0,0,0,62,62,131,1,,,,,,,,
,,,,,,,,,,,,,FF,,,,,,,,1.381,,,,,,,,,,,,,,,,,,,,,,60ff50ac6339b1e4ce7b1909,61036c25ada89aa3a7128e4e,2021-07-30_05h04.26.292,Simcolourproject_2stim_asymm_v5,2020.2.10,Win32,60,61025ae37ef11b136ea224fe,,,,,,,,,520,-55,-114,1,0,0,response5disk,,3,-9,2,1,0,0,rectangle,-9,2,1,0,0,-9,2,1,0,0,0,63,63,30,1,,,,,,,,
,,,,,,,,,,,,,FF,,,,,,,,1.798,,,,,,,,,,,,,,,,,,,,,,60ff50ac6339b1e4ce7b1909,61036c25ada89aa3a7128e4e,2021-07-30_05h04.26.292,Simcolourproject_2stim_asymm_v5,2020.2.10,Win32,60,61025ae37ef11b136ea224fe,,,,,,,,,3118,128,-82,1,0,0,response3disk,,5,25,-4,1,0,0,rectangle,25,-4,1,0,0,25,-4,1,0,0,0,64,64,54,1,,,,,,,,
,,,,,,,,,,,,,FF,,,,,,,,1.799,,,,,,,,,,,,,,,,,,,,,,60ff50ac6339b1e4ce7b1909,61036c25ada89aa3a7128e4e,2021-07-30_05h04.26.292,Simcolourproject_2stim_asymm_v5,2020.2.10,Win32,60,61025ae37ef11b136ea224fe,,,,,,,,,241,53,-115,1,0,0,response3disk,,4,1,18,1,0,0,rectangle,1,18,1,0,0,1,18,1,0,0,0,65,65,41,1,,,,,,,,
,,,,,,,,,,,,,FF,,,,,,,,2.68,,,,,,,,,,,,,,,,,,,,,,60ff50ac6339b1e4ce7b1909,61036c25ada89aa3a7128e4e,2021-07-30_05h04.26.292,Simcolourproject_2stim_asymm_v5,2020.2.10,Win32,60,61025ae37ef11b136ea224fe,,,,,,,,,2391,125,40,1,0,0,response1disk,,6,13,-3,1,0,0,rectangle,13,-3,1,0,0,13,-3,1,0,0,0,66,66,148,1,,,,,,,,
,,,,,,,,,,,,,FF,,,,,,,,1.521,,,,,,,,,,,,,,,,,,,,,,60ff50ac6339b1e4ce7b1909,61036c25ada89aa3a7128e4e,2021-07-30_05h04.26.292,Simcolourproject_2stim_asymm_v5,2020.2.10,Win32,60,61025ae37ef11b136ea224fe,,,,,,,,,170,-110,-50,1,0,0,response5disk,,2,-19,1,1,0,0,rectangle,-19,1,1,0,0,-19,1,1,0,0,0,67,67,134,1,,,,,,,,
,,,,,,,,,,,,,FF,,,,,,,,1.776,,,,,,,,,,,,,,,,,,,,,,60ff50ac6339b1e4ce7b1909,61036c25ada89aa3a7128e4e,2021-07-30_05h04.26.292,Simcolourproject_2stim_asymm_v5,2020.2.10,Win32,60,61025ae37ef11b136ea224fe,,,,,,,,,4299,75,-94,1,0,0,response3disk,,4,21,-5,1,0,0,rectangle,21,-5,1,0,0,21,-5,1,0,0,0,68,68,90,1,,,,,,,,
,,,,,,,,,,,,,FF,,,,,,,,1.415,,,,,,,,,,,,,,,,,,,,,,60ff50ac6339b1e4ce7b1909,61036c25ada89aa3a7128e4e,2021-07-30_05h04.26.292,Simcolourproject_2stim_asymm_v5,2020.2.10,Win32,60,61025ae37ef11b136ea224fe,,,,,,,,,3933,-63,-82,1,0,0,response5disk,,3,-21,-12,1,0,0,rectangle,-21,-12,1,0,0,-21,-12,1,0,0,0,69,69,65,1,,,,,,,,
,,,,,,,,,,,,,FF,,,,,,,,2.18,,,,,,,,,,,,,,,,,,,,,,60ff50ac6339b1e4ce7b1909,61036c25ada89aa3a7128e4e,2021-07-30_05h04.26.292,Simcolourproject_2stim_asymm_v5,2020.2.10,Win32,60,61025ae37ef11b136ea224fe,,,,,,,,,2507,65,92,1,0,0,response1disk,,7,23,-5,1,0,0,rectangle,23,-5,1,0,0,23,-5,1,0,0,0,70,70,75,1,,,,,,,,
,,,,,,,,,,,,,FF,,,,,,,,1.274,,,,,,,,,,,,,,,,,,,,,,60ff50ac6339b1e4ce7b1909,61036c25ada89aa3a7128e4e,2021-07-30_05h04.26.292,Simcolourproject_2stim_asymm_v5,2020.2.10,Win32,60,61025ae37ef11b136ea224fe,,,,,,,,,2789,-65,-100,1,0,0,response5disk,,3,-21,9,1,0,0,rectangle,-21,9,1,0,0,-21,9,1,0,0,0,71,71,74,1,,,,,,,,
,,,,,,,,,,,,,FF,,,,,,,,1.688,,,,,,,,,,,,,,,,,,,,,,60ff50ac6339b1e4ce7b1909,61036c25ada89aa3a7128e4e,2021-07-30_05h04.26.292,Simcolourproject_2stim_asymm_v5,2020.2.10,Win32,60,61025ae37ef11b136ea224fe,,,,,,,,,1798,152,-40,1,0,0,response3disk,,5,44,-14,1,0,0,rectangle,44,-14,1,0,0,44,-14,1,0,0,0,72,72,34,1,,,,,,,,
,,,,,,,,,,,,,FF,,,,,,,,1.609,,,,,,,,,,,,,,,,,,,,,,60ff50ac6339b1e4ce7b1909,61036c25ada89aa3a7128e4e,2021-07-30_05h04.26.292,Simcolourproject_2stim_asymm_v5,2020.2.10,Win32,60,61025ae37ef11b136ea224fe,,,,,,,,,442,-89,-53,1,0,0,response5disk,,2,-14,11,1,0,0,rectangle,51,115,1,0,0,-18,-6,1,0,0,0,73,73,145,1,,response1disk_3,TRUE,7,7,"[242,54,260,74,151,146,196,6,249,222,76,253,295,293,185,152,80,251,211,304]",1.796,rectangle
,,,,,,,,,,,,,FF,,,,,,,,1.057,,,,,,,,,,,,,,,,,,,,,,60ff50ac6339b1e4ce7b1909,61036c25ada89aa3a7128e4e,2021-07-30_05h04.26.292,Simcolourproject_2stim_asymm_v5,2020.2.10,Win32,60,61025ae37ef11b136ea224fe,,,,,,,,,1749,-47,-93,1,0,0,response5disk,,3,9,0,1,0,0,rectangle,9,0,1,0,0,9,0,1,0,0,0,74,74,151,1,,,,,,,,
,,,,,,,,,,,,,FF,,,,,,,,1.577,,,,,,,,,,,,,,,,,,,,,,60ff50ac6339b1e4ce7b1909,61036c25ada89aa3a7128e4e,2021-07-30_05h04.26.292,Simcolourproject_2stim_asymm_v5,2020.2.10,Win32,60,61025ae37ef11b136ea224fe,,,,,,,,,1474,42,-96,1,0,0,response3disk,,4,7,-4,1,0,0,rectangle,79,-111,1,0,0,3,-13,1,0,0,0,75,75,100,1,,response3disk_3,TRUE,4,4,"[242,54,260,74,151,146,196,6,249,222,76,253,295,293,185,152,80,251,211,304]",2.156,rectangle
,,,,,,,,,,,,,FF,,,,,,,,1.834,,,,,,,,,,,,,,,,,,,,,,60ff50ac6339b1e4ce7b1909,61036c25ada89aa3a7128e4e,2021-07-30_05h04.26.292,Simcolourproject_2stim_asymm_v5,2020.2.10,Win32,60,61025ae37ef11b136ea224fe,,,,,,,,,802,-117,-50,1,0,0,response5disk,,2,-4,-3,1,0,0,rectangle,-4,-3,1,0,0,-4,-3,1,0,0,0,76,76,58,1,,,,,,,,
,,,,,,,,,,,,,FF,,,,,,,,1.249,,,,,,,,,,,,,,,,,,,,,,60ff50ac6339b1e4ce7b1909,61036c25ada89aa3a7128e4e,2021-07-30_05h04.26.292,Simcolourproject_2stim_asymm_v5,2020.2.10,Win32,60,61025ae37ef11b136ea224fe,,,,,,,,,1094,84,-54,1,0,0,response3disk,,5,10,-5,1,0,0,rectangle,10,-5,1,0,0,10,-5,1,0,0,0,77,77,9,1,,,,,,,,
,,,,,,,,,,,,,FF,,,,,,,,4.024,,,,,,,,,,,,,,,,,,,,,,60ff50ac6339b1e4ce7b1909,61036c25ada89aa3a7128e4e,2021-07-30_05h04.26.292,Simcolourproject_2stim_asymm_v5,2020.2.10,Win32,60,61025ae37ef11b136ea224fe,,,,,,,,,3407,107,-54,1,0,0,response3disk,,5,-15,-14,1,0,0,rectangle,-15,-14,1,0,0,-15,-14,1,0,0,0,78,78,120,1,,,,,,,,
,,,,,,,,,,,,,FF,,,,,,,,0.827,,,,,,,,,,,,,,,,,,,,,,60ff50ac6339b1e4ce7b1909,61036c25ada89aa3a7128e4e,2021-07-30_05h04.26.292,Simcolourproject_2stim_asymm_v5,2020.2.10,Win32,60,61025ae37ef11b136ea224fe,,,,,,,,,81,-53,-85,1,0,0,response5disk,,3,-14,-2,1,0,0,rectangle,-54,114,1,0,0,-20,-6,1,0,0,0,79,79,20,1,,response7disk_3,TRUE,0,0,"[242,54,260,74,151,146,196,6,249,222,76,253,295,293,185,152,80,251,211,304]",2.138,rectangle
,,,,,,,,,,,,,FF,,,,,,,,1.37,,,,,,,,,,,,,,,,,,,,,,60ff50ac6339b1e4ce7b1909,61036c25ada89aa3a7128e4e,2021-07-30_05h04.26.292,Simcolourproject_2stim_asymm_v5,2020.2.10,Win32,60,61025ae37ef11b136ea224fe,,,,,,,,,4044,41,-76,1,0,0,response3disk,,4,1,12,1,0,0,rectangle,1,12,1,0,0,1,12,1,0,0,0,80,80,12,1,,,,,,,,
,,,,,,,,,,,,,FF,,,,,,,,1.59,,,,,,,,,,,,,,,,,,,,,,60ff50ac6339b1e4ce7b1909,61036c25ada89aa3a7128e4e,2021-07-30_05h04.26.292,Simcolourproject_2stim_asymm_v5,2020.2.10,Win32,60,61025ae37ef11b136ea224fe,,,,,,,,,2153,36,-133,1,0,0,response3disk,,4,-21,5,1,0,0,rectangle,-21,5,1,0,0,-21,5,1,0,0,0,81,81,62,1,,,,,,,,
,,,,,,,,,,,,,FF,,,,,,,,1.278,,,,,,,,,,,,,,,,,,,,,,60ff50ac6339b1e4ce7b1909,61036c25ada89aa3a7128e4e,2021-07-30_05h04.26.292,Simcolourproject_2stim_asymm_v5,2020.2.10,Win32,60,61025ae37ef11b136ea224fe,,,,,,,,,3484,37,-90,1,0,0,response3disk,,4,11,-19,1,0,0,rectangle,11,-19,1,0,0,11,-19,1,0,0,0,82,82,142,1,,,,,,,,
,,,,,,,,,,,,,FF,,,,,,,,0.879,,,,,,,,,,,,,,,,,,,,,,60ff50ac6339b1e4ce7b1909,61036c25ada89aa3a7128e4e,2021-07-30_05h04.26.292,Simcolourproject_2stim_asymm_v5,2020.2.10,Win32,60,61025ae37ef11b136ea224fe,,,,,,,,,360,115,-26,1,0,0,response3disk,,5,11,6,1,0,0,rectangle,11,6,1,0,0,11,6,1,0,0,0,83,83,86,1,,,,,,,,
,,,,,,,,,,,,,FF,,,,,,,,1.558,,,,,,,,,,,,,,,,,,,,,,60ff50ac6339b1e4ce7b1909,61036c25ada89aa3a7128e4e,2021-07-30_05h04.26.292,Simcolourproject_2stim_asymm_v5,2020.2.10,Win32,60,61025ae37ef11b136ea224fe,,,,,,,,,2253,140,42,1,0,0,response1disk,,6,4,8,1,0,0,rectangle,4,8,1,0,0,4,8,1,0,0,0,84,84,139,1,,,,,,,,
,,,,,,,,,,,,,FF,,,,,,,,1.425,,,,,,,,,,,,,,,,,,,,,,60ff50ac6339b1e4ce7b1909,61036c25ada89aa3a7128e4e,2021-07-30_05h04.26.292,Simcolourproject_2stim_asymm_v5,2020.2.10,Win32,60,61025ae37ef11b136ea224fe,,,,,,,,,2477,140,44,1,0,0,response1disk,,6,15,-6,1,0,0,rectangle,15,-6,1,0,0,15,-6,1,0,0,0,85,85,95,1,,,,,,,,
,,,,,,,,,,,,,FF,,,,,,,,2.273,,,,,,,,,,,,,,,,,,,,,,60ff50ac6339b1e4ce7b1909,61036c25ada89aa3a7128e4e,2021-07-30_05h04.26.292,Simcolourproject_2stim_asymm_v5,2020.2.10,Win32,60,61025ae37ef11b136ea224fe,,,,,,,,,1912,55,-33,1,0,0,response3disk,,5,-10,-19,1,0,0,rectangle,-10,-19,1,0,0,-10,-19,1,0,0,0,86,86,89,1,,,,,,,,
,,,,,,,,,,,,,FF,,,,,,,,1.999,,,,,,,,,,,,,,,,,,,,,,60ff50ac6339b1e4ce7b1909,61036c25ada89aa3a7128e4e,2021-07-30_05h04.26.292,Simcolourproject_2stim_asymm_v5,2020.2.10,Win32,60,61025ae37ef11b136ea224fe,,,,,,,,,3549,25,-105,1,0,0,response3disk,,4,8,2,1,0,0,rectangle,8,2,1,0,0,8,2,1,0,0,0,87,87,49,1,,,,,,,,
,,,,,,,,,,,,,FF,,,,,,,,1.962,,,,,,,,,,,,,,,,,,,,,,60ff50ac6339b1e4ce7b1909,61036c25ada89aa3a7128e4e,2021-07-30_05h04.26.292,Simcolourproject_2stim_asymm_v5,2020.2.10,Win32,60,61025ae37ef11b136ea224fe,,,,,,,,,749,80,-53,1,0,0,response3disk,,5,11,-10,1,0,0,rectangle,11,-10,1,0,0,11,-10,1,0,0,0,88,88,81,1,,,,,,,,
,,,,,,,,,,,,,FF,,,,,,,,1.351,,,,,,,,,,,,,,,,,,,,,,60ff50ac6339b1e4ce7b1909,61036c25ada89aa3a7128e4e,2021-07-30_05h04.26.292,Simcolourproject_2stim_asymm_v5,2020.2.10,Win32,60,61025ae37ef11b136ea224fe,,,,,,,,,3716,-37,-102,1,0,0,response5disk,,3,-13,-15,1,0,0,rectangle,-13,-15,1,0,0,-13,-15,1,0,0,0,89,89,111,1,,,,,,,,
,,,,,,,,,,,,,FF,,,,,,,,1.195,,,,,,,,,,,,,,,,,,,,,,60ff50ac6339b1e4ce7b1909,61036c25ada89aa3a7128e4e,2021-07-30_05h04.26.292,Simcolourproject_2stim_asymm_v5,2020.2.10,Win32,60,61025ae37ef11b136ea224fe,,,,,,,,,1613,-30,-88,1,0,0,response5disk,,3,15,-6,1,0,0,rectangle,15,-6,1,0,0,15,-6,1,0,0,0,90,90,141,1,,,,,,,,
,,,,,,,,,,,,,FF,,,,,,,,0.898,,,,,,,,,,,,,,,,,,,,,,60ff50ac6339b1e4ce7b1909,61036c25ada89aa3a7128e4e,2021-07-30_05h04.26.292,Simcolourproject_2stim_asymm_v5,2020.2.10,Win32,60,61025ae37ef11b136ea224fe,,,,,,,,,437,-96,-44,1,0,0,response5disk,,2,-14,11,1,0,0,rectangle,-14,11,1,0,0,-14,11,1,0,0,0,91,91,57,1,,,,,,,,
,,,,,,,,,,,,,FF,,,,,,,,0.799,,,,,,,,,,,,,,,,,,,,,,60ff50ac6339b1e4ce7b1909,61036c25ada89aa3a7128e4e,2021-07-30_05h04.26.292,Simcolourproject_2stim_asymm_v5,2020.2.10,Win32,60,61025ae37ef11b136ea224fe,,,,,,,,,2944,-82,-46,1,0,0,response5disk,,2,2,2,1,0,0,rectangle,2,2,1,0,0,2,2,1,0,0,0,92,92,76,1,,,,,,,,
,,,,,,,,,,,,,FF,,,,,,,,0.903,,,,,,,,,,,,,,,,,,,,,,60ff50ac6339b1e4ce7b1909,61036c25ada89aa3a7128e4e,2021-07-30_05h04.26.292,Simcolourproject_2stim_asymm_v5,2020.2.10,Win32,60,61025ae37ef11b136ea224fe,,,,,,,,,3056,-98,-45,1,0,0,response5disk,,2,-4,-5,1,0,0,rectangle,-4,-5,1,0,0,-4,-5,1,0,0,0,93,93,32,1,,,,,,,,
,,,,,,,,,,,,,FF,,,,,,,,1.135,,,,,,,,,,,,,,,,,,,,,,60ff50ac6339b1e4ce7b1909,61036c25ada89aa3a7128e4e,2021-07-30_05h04.26.292,Simcolourproject_2stim_asymm_v5,2020.2.10,Win32,60,61025ae37ef11b136ea224fe,,,,,,,,,2857,72,-93,1,0,0,response3disk,,4,4,-16,1,0,0,rectangle,4,-16,1,0,0,4,-16,1,0,0,0,94,94,5,1,,,,,,,,
,,,,,,,,,,,,,FF,,,,,,,,0.945,,,,,,,,,,,,,,,,,,,,,,60ff50ac6339b1e4ce7b1909,61036c25ada89aa3a7128e4e,2021-07-30_05h04.26.292,Simcolourproject_2stim_asymm_v5,2020.2.10,Win32,60,61025ae37ef11b136ea224fe,,,,,,,,,3433,-90,-47,1,0,0,response5disk,,2,1,2,1,0,0,rectangle,1,2,1,0,0,1,2,1,0,0,0,95,95,98,1,,,,,,,,
,,,,,,,,,,,,,FF,,,,,,,,1.71,,,,,,,,,,,,,,,,,,,,,,60ff50ac6339b1e4ce7b1909,61036c25ada89aa3a7128e4e,2021-07-30_05h04.26.292,Simcolourproject_2stim_asymm_v5,2020.2.10,Win32,60,61025ae37ef11b136ea224fe,,,,,,,,,1885,54,-102,1,0,0,response3disk,,4,-2,-3,1,0,0,rectangle,-2,-3,1,0,0,-2,-3,1,0,0,0,96,96,48,1,,,,,,,,
,,,,,,,,,,,,,FF,,,,,,,,1.74,,,,,,,,,,,,,,,,,,,,,,60ff50ac6339b1e4ce7b1909,61036c25ada89aa3a7128e4e,2021-07-30_05h04.26.292,Simcolourproject_2stim_asymm_v5,2020.2.10,Win32,60,61025ae37ef11b136ea224fe,,,,,,,,,1508,130,43,1,0,0,response1disk,,6,-32,8,1,0,0,rectangle,-32,8,1,0,0,-32,8,1,0,0,0,97,97,28,1,,,,,,,,
,,,,,,,,,,,,,FF,,,,,,,,0.812,,,,,,,,,,,,,,,,,,,,,,60ff50ac6339b1e4ce7b1909,61036c25ada89aa3a7128e4e,2021-07-30_05h04.26.292,Simcolourproject_2stim_asymm_v5,2020.2.10,Win32,60,61025ae37ef11b136ea224fe,,,,,,,,,2891,-84,-45,1,0,0,response5disk,,2,-6,-2,1,0,0,rectangle,-6,-2,1,0,0,-6,-2,1,0,0,0,98,98,84,1,,,,,,,,
,,,,,,,,,,,,,FF,,,,,,,,1.698,,,,,,,,,,,,,,,,,,,,,,60ff50ac6339b1e4ce7b1909,61036c25ada89aa3a7128e4e,2021-07-30_05h04.26.292,Simcolourproject_2stim_asymm_v5,2020.2.10,Win32,60,61025ae37ef11b136ea224fe,,,,,,,,,4193,43,-130,1,0,0,response3disk,,4,8,-9,1,0,0,rectangle,8,-9,1,0,0,8,-9,1,0,0,0,99,99,108,1,,,,,,,,
,,,,,,,,,,,,,FF,,,,,,,,0.933,,,,,,,,,,,,,,,,,,,,,,60ff50ac6339b1e4ce7b1909,61036c25ada89aa3a7128e4e,2021-07-30_05h04.26.292,Simcolourproject_2stim_asymm_v5,2020.2.10,Win32,60,61025ae37ef11b136ea224fe,,,,,,,,,1955,48,-109,1,0,0,response3disk,,4,7,-17,1,0,0,rectangle,7,-17,1,0,0,7,-17,1,0,0,0,100,100,46,1,,,,,,,,
,,,,,,,,,,,,,FF,,,,,,,,1.839,,,,,,,,,,,,,,,,,,,,,,60ff50ac6339b1e4ce7b1909,61036c25ada89aa3a7128e4e,2021-07-30_05h04.26.292,Simcolourproject_2stim_asymm_v5,2020.2.10,Win32,60,61025ae37ef11b136ea224fe,,,,,,,,,1655,141,-43,1,0,0,response3disk,,5,22,-5,1,0,0,rectangle,22,-5,1,0,0,22,-5,1,0,0,0,101,101,103,1,,,,,,,,
,,,,,,,,,,,,,FF,,,,,,,,1.06,,,,,,,,,,,,,,,,,,,,,,60ff50ac6339b1e4ce7b1909,61036c25ada89aa3a7128e4e,2021-07-30_05h04.26.292,Simcolourproject_2stim_asymm_v5,2020.2.10,Win32,60,61025ae37ef11b136ea224fe,,,,,,,,,2704,42,-84,1,0,0,response3disk,,4,-4,-7,1,0,0,rectangle,-4,-7,1,0,0,-4,-7,1,0,0,0,102,102,4,1,,,,,,,,
,,,,,,,,,,,,,FF,,,,,,,,1.778,,,,,,,,,,,,,,,,,,,,,,60ff50ac6339b1e4ce7b1909,61036c25ada89aa3a7128e4e,2021-07-30_05h04.26.292,Simcolourproject_2stim_asymm_v5,2020.2.10,Win32,60,61025ae37ef11b136ea224fe,,,,,,,,,2615,-131,-43,1,0,0,response5disk,,2,-13,-8,1,0,0,rectangle,-13,-8,1,0,0,-13,-8,1,0,0,0,103,103,146,1,,,,,,,,
,,,,,,,,,,,,,FF,,,,,,,,1.262,,,,,,,,,,,,,,,,,,,,,,60ff50ac6339b1e4ce7b1909,61036c25ada89aa3a7128e4e,2021-07-30_05h04.26.292,Simcolourproject_2stim_asymm_v5,2020.2.10,Win32,60,61025ae37ef11b136ea224fe,,,,,,,,,2031,-116,-35,1,0,0,response5disk,,2,-8,-13,1,0,0,rectangle,-8,-13,1,0,0,-8,-13,1,0,0,0,104,104,119,1,,,,,,,,
,,,,,,,,,,,,,FF,,,,,,,,2.81,,,,,,,,,,,,,,,,,,,,,,60ff50ac6339b1e4ce7b1909,61036c25ada89aa3a7128e4e,2021-07-30_05h04.26.292,Simcolourproject_2stim_asymm_v5,2020.2.10,Win32,60,61025ae37ef11b136ea224fe,,,,,,,,,2335,118,-47,1,0,0,response3disk,,5,2,1,1,0,0,rectangle,2,1,1,0,0,2,1,1,0,0,0,105,105,19,1,,,,,,,,
,,,,,,,,,,,,,FF,,,,,,,,1.537,,,,,,,,,,,,,,,,,,,,,,60ff50ac6339b1e4ce7b1909,61036c25ada89aa3a7128e4e,2021-07-30_05h04.26.292,Simcolourproject_2stim_asymm_v5,2020.2.10,Win32,60,61025ae37ef11b136ea224fe,,,,,,,,,3143,34,-134,1,0,0,response3disk,,4,8,11,1,0,0,rectangle,8,11,1,0,0,8,11,1,0,0,0,106,106,106,1,,,,,,,,
,,,,,,,,,,,,,FF,,,,,,,,2.525,,,,,,,,,,,,,,,,,,,,,,60ff50ac6339b1e4ce7b1909,61036c25ada89aa3a7128e4e,2021-07-30_05h04.26.292,Simcolourproject_2stim_asymm_v5,2020.2.10,Win32,60,61025ae37ef11b136ea224fe,,,,,,,,,361,100,63,1,0,0,response1disk,,6,4,-3,1,0,0,rectangle,4,-3,1,0,0,4,-3,1,0,0,0,107,107,109,1,,,,,,,,
,,,,,,,,,,,,,FF,,,,,,,,1.69,,,,,,,,,,,,,,,,,,,,,,60ff50ac6339b1e4ce7b1909,61036c25ada89aa3a7128e4e,2021-07-30_05h04.26.292,Simcolourproject_2stim_asymm_v5,2020.2.10,Win32,60,61025ae37ef11b136ea224fe,,,,,,,,,610,-121,-71,1,0,0,response5disk,,2,-2,-17,1,0,0,rectangle,-2,-17,1,0,0,-2,-17,1,0,0,0,108,108,154,1,,,,,,,,
,,,,,,,,,,,,,FF,,,,,,,,1.022,,,,,,,,,,,,,,,,,,,,,,60ff50ac6339b1e4ce7b1909,61036c25ada89aa3a7128e4e,2021-07-30_05h04.26.292,Simcolourproject_2stim_asymm_v5,2020.2.10,Win32,60,61025ae37ef11b136ea224fe,,,,,,,,,1371,-49,-133,1,0,0,response5disk,,3,-4,1,1,0,0,rectangle,-4,1,1,0,0,-4,1,1,0,0,0,109,109,15,1,,,,,,,,
,,,,,,,,,,,,,FF,,,,,,,,1.474,,,,,,,,,,,,,,,,,,,,,,60ff50ac6339b1e4ce7b1909,61036c25ada89aa3a7128e4e,2021-07-30_05h04.26.292,Simcolourproject_2stim_asymm_v5,2020.2.10,Win32,60,61025ae37ef11b136ea224fe,,,,,,,,,444,-112,-50,1,0,0,response5disk,,2,-22,-9,1,0,0,rectangle,-22,-9,1,0,0,-22,-9,1,0,0,0,110,110,73,1,,,,,,,,
,,,,,,,,,,,,,FF,,,,,,,,1.814,,,,,,,,,,,,,,,,,,,,,,60ff50ac6339b1e4ce7b1909,61036c25ada89aa3a7128e4e,2021-07-30_05h04.26.292,Simcolourproject_2stim_asymm_v5,2020.2.10,Win32,60,61025ae37ef11b136ea224fe,,,,,,,,,1069,-61,-99,1,0,0,response5disk,,3,-18,-9,1,0,0,rectangle,-18,-9,1,0,0,-18,-9,1,0,0,0,111,111,25,1,,,,,,,,
,,,,,,,,,,,,,FF,,,,,,,,2.602,,,,,,,,,,,,,,,,,,,,,,60ff50ac6339b1e4ce7b1909,61036c25ada89aa3a7128e4e,2021-07-30_05h04.26.292,Simcolourproject_2stim_asymm_v5,2020.2.10,Win32,60,61025ae37ef11b136ea224fe,,,,,,,,,1435,62,-116,1,0,0,response3disk,,4,18,-5,1,0,0,rectangle,18,-5,1,0,0,18,-5,1,0,0,0,112,112,107,1,,,,,,,,
,,,,,,,,,,,,,FF,,,,,,,,1.176,,,,,,,,,,,,,,,,,,,,,,60ff50ac6339b1e4ce7b1909,61036c25ada89aa3a7128e4e,2021-07-30_05h04.26.292,Simcolourproject_2stim_asymm_v5,2020.2.10,Win32,60,61025ae37ef11b136ea224fe,,,,,,,,,3919,108,-70,1,0,0,response3disk,,5,12,-5,1,0,0,rectangle,12,-5,1,0,0,12,-5,1,0,0,0,113,113,97,1,,,,,,,,
,,,,,,,,,,,,,FF,,,,,,,,2.136,,,,,,,,,,,,,,,,,,,,,,60ff50ac6339b1e4ce7b1909,61036c25ada89aa3a7128e4e,2021-07-30_05h04.26.292,Simcolourproject_2stim_asymm_v5,2020.2.10,Win32,60,61025ae37ef11b136ea224fe,,,,,,,,,3238,-33,-109,1,0,0,response5disk,,3,-1,3,1,0,0,rectangle,-1,3,1,0,0,-1,3,1,0,0,0,114,114,72,1,,,,,,,,
,,,,,,,,,,,,,FF,,,,,,,,0.844,,,,,,,,,,,,,,,,,,,,,,60ff50ac6339b1e4ce7b1909,61036c25ada89aa3a7128e4e,2021-07-30_05h04.26.292,Simcolourproject_2stim_asymm_v5,2020.2.10,Win32,60,61025ae37ef11b136ea224fe,,,,,,,,,3438,-51,-106,1,0,0,response5disk,,3,9,-7,1,0,0,rectangle,9,-7,1,0,0,9,-7,1,0,0,0,115,115,2,1,,,,,,,,
,,,,,,,,,,,,,FF,,,,,,,,1.491,,,,,,,,,,,,,,,,,,,,,,60ff50ac6339b1e4ce7b1909,61036c25ada89aa3a7128e4e,2021-07-30_05h04.26.292,Simcolourproject_2stim_asymm_v5,2020.2.10,Win32,60,61025ae37ef11b136ea224fe,,,,,,,,,3286,-106,-59,1,0,0,response5disk,,2,1,9,1,0,0,rectangle,1,9,1,0,0,1,9,1,0,0,0,116,116,153,1,,,,,,,,
,,,,,,,,,,,,,FF,,,,,,,,0.661,,,,,,,,,,,,,,,,,,,,,,60ff50ac6339b1e4ce7b1909,61036c25ada89aa3a7128e4e,2021-07-30_05h04.26.292,Simcolourproject_2stim_asymm_v5,2020.2.10,Win32,60,61025ae37ef11b136ea224fe,,,,,,,,,431,-92,-37,1,0,0,response5disk,,2,-10,2,1,0,0,rectangle,-10,2,1,0,0,-10,2,1,0,0,0,117,117,133,1,,,,,,,,
,,,,,,,,,,,,,FF,,,,,,,,0.983,,,,,,,,,,,,,,,,,,,,,,60ff50ac6339b1e4ce7b1909,61036c25ada89aa3a7128e4e,2021-07-30_05h04.26.292,Simcolourproject_2stim_asymm_v5,2020.2.10,Win32,60,61025ae37ef11b136ea224fe,,,,,,,,,1042,-37,-96,1,0,0,response5disk,,3,8,0,1,0,0,rectangle,8,0,1,0,0,8,0,1,0,0,0,118,118,79,1,,,,,,,,
,,,,,,,,,,,,,FF,,,,,,,,0.712,,,,,,,,,,,,,,,,,,,,,,60ff50ac6339b1e4ce7b1909,61036c25ada89aa3a7128e4e,2021-07-30_05h04.26.292,Simcolourproject_2stim_asymm_v5,2020.2.10,Win32,60,61025ae37ef11b136ea224fe,,,,,,,,,2038,-101,-41,1,0,0,response5disk,,2,1,1,1,0,0,rectangle,1,1,1,0,0,1,1,1,0,0,0,119,119,123,1,,,,,,,,
,,,,,,,,,,,,,FF,,,,,,,,1.054,,,,,,,,,,,,,,,,,,,,,,60ff50ac6339b1e4ce7b1909,61036c25ada89aa3a7128e4e,2021-07-30_05h04.26.292,Simcolourproject_2stim_asymm_v5,2020.2.10,Win32,60,61025ae37ef11b136ea224fe,,,,,,,,,3048,-86,-48,1,0,0,response5disk,,2,-21,-9,1,0,0,rectangle,-21,-9,1,0,0,-21,-9,1,0,0,0,120,120,150,1,,,,,,,,
,,,,,,,,,,,,,FF,,,,,,,,2.128,,,,,,,,,,,,,,,,,,,,,,60ff50ac6339b1e4ce7b1909,61036c25ada89aa3a7128e4e,2021-07-30_05h04.26.292,Simcolourproject_2stim_asymm_v5,2020.2.10,Win32,60,61025ae37ef11b136ea224fe,,,,,,,,,2114,66,-106,1,0,0,response3disk,,4,14,-9,1,0,0,rectangle,14,-9,1,0,0,14,-9,1,0,0,0,121,121,129,1,,,,,,,,
,,,,,,,,,,,,,FF,,,,,,,,1.566,,,,,,,,,,,,,,,,,,,,,,60ff50ac6339b1e4ce7b1909,61036c25ada89aa3a7128e4e,2021-07-30_05h04.26.292,Simcolourproject_2stim_asymm_v5,2020.2.10,Win32,60,61025ae37ef11b136ea224fe,,,,,,,,,2710,95,-51,1,0,0,response3disk,,5,20,0,1,0,0,rectangle,20,0,1,0,0,20,0,1,0,0,0,122,122,118,1,,,,,,,,
,,,,,,,,,,,,,FF,,,,,,,,1.382,,,,,,,,,,,,,,,,,,,,,,60ff50ac6339b1e4ce7b1909,61036c25ada89aa3a7128e4e,2021-07-30_05h04.26.292,Simcolourproject_2stim_asymm_v5,2020.2.10,Win32,60,61025ae37ef11b136ea224fe,,,,,,,,,3434,-101,48,1,0,0,response7disk,,1,1,-13,1,0,0,rectangle,1,-13,1,0,0,1,-13,1,0,0,0,123,123,114,1,,,,,,,,
,,,,,,,,,,,,,FF,,,,,,,,0.883,,,,,,,,,,,,,,,,,,,,,,60ff50ac6339b1e4ce7b1909,61036c25ada89aa3a7128e4e,2021-07-30_05h04.26.292,Simcolourproject_2stim_asymm_v5,2020.2.10,Win32,60,61025ae37ef11b136ea224fe,,,,,,,,,4338,-88,-40,1,0,0,response5disk,,2,13,-3,1,0,0,rectangle,13,-3,1,0,0,13,-3,1,0,0,0,124,124,45,1,,,,,,,,
,,,,,,,,,,,,,FF,,,,,,,,2.437,,,,,,,,,,,,,,,,,,,,,,60ff50ac6339b1e4ce7b1909,61036c25ada89aa3a7128e4e,2021-07-30_05h04.26.292,Simcolourproject_2stim_asymm_v5,2020.2.10,Win32,60,61025ae37ef11b136ea224fe,,,,,,,,,3690,69,-89,1,0,0,response3disk,,4,6,19,1,0,0,rectangle,6,19,1,0,0,6,19,1,0,0,0,125,125,87,1,,,,,,,,
,,,,,,,,,,,,,FF,,,,,,,,2.241,,,,,,,,,,,,,,,,,,,,,,60ff50ac6339b1e4ce7b1909,61036c25ada89aa3a7128e4e,2021-07-30_05h04.26.292,Simcolourproject_2stim_asymm_v5,2020.2.10,Win32,60,61025ae37ef11b136ea224fe,,,,,,,,,3302,157,-50,1,0,0,response3disk,,5,-15,6,1,0,0,rectangle,-15,6,1,0,0,-15,6,1,0,0,0,126,126,127,1,,,,,,,,
,,,,,,,,,,,,,FF,,,,,,,,2.067,,,,,,,,,,,,,,,,,,,,,,60ff50ac6339b1e4ce7b1909,61036c25ada89aa3a7128e4e,2021-07-30_05h04.26.292,Simcolourproject_2stim_asymm_v5,2020.2.10,Win32,60,61025ae37ef11b136ea224fe,,,,,,,,,512,55,-84,1,0,0,response3disk,,4,-3,-12,1,0,0,rectangle,-3,-12,1,0,0,-3,-12,1,0,0,0,127,127,10,1,,,,,,,,
,,,,,,,,,,,,,FF,,,,,,,,1.487,,,,,,,,,,,,,,,,,,,,,,60ff50ac6339b1e4ce7b1909,61036c25ada89aa3a7128e4e,2021-07-30_05h04.26.292,Simcolourproject_2stim_asymm_v5,2020.2.10,Win32,60,61025ae37ef11b136ea224fe,,,,,,,,,3887,42,-101,1,0,0,response3disk,,4,-4,-13,1,0,0,rectangle,-4,-13,1,0,0,-4,-13,1,0,0,0,128,128,121,1,,,,,,,,
,,,,,,,,,,,,,FF,,,,,,,,2.279,,,,,,,,,,,,,,,,,,,,,,60ff50ac6339b1e4ce7b1909,61036c25ada89aa3a7128e4e,2021-07-30_05h04.26.292,Simcolourproject_2stim_asymm_v5,2020.2.10,Win32,60,61025ae37ef11b136ea224fe,,,,,,,,,369,105,-87,1,0,0,response3disk,,5,-18,6,1,0,0,rectangle,-18,6,1,0,0,-18,6,1,0,0,0,129,129,152,1,,,,,,,,
,,,,,,,,,,,,,FF,,,,,,,,1.489,,,,,,,,,,,,,,,,,,,,,,60ff50ac6339b1e4ce7b1909,61036c25ada89aa3a7128e4e,2021-07-30_05h04.26.292,Simcolourproject_2stim_asymm_v5,2020.2.10,Win32,60,61025ae37ef11b136ea224fe,,,,,,,,,3027,125,-56,1,0,0,response3disk,,5,22,-13,1,0,0,rectangle,22,-13,1,0,0,22,-13,1,0,0,0,130,130,85,1,,,,,,,,
,,,,,,,,,,,,,FF,,,,,,,,0.876,,,,,,,,,,,,,,,,,,,,,,60ff50ac6339b1e4ce7b1909,61036c25ada89aa3a7128e4e,2021-07-30_05h04.26.292,Simcolourproject_2stim_asymm_v5,2020.2.10,Win32,60,61025ae37ef11b136ea224fe,,,,,,,,,3471,-35,-79,1,0,0,response5disk,,3,-3,4,1,0,0,rectangle,-3,4,1,0,0,-3,4,1,0,0,0,131,131,38,1,,,,,,,,
,,,,,,,,,,,,,FF,,,,,,,,1.594,,,,,,,,,,,,,,,,,,,,,,60ff50ac6339b1e4ce7b1909,61036c25ada89aa3a7128e4e,2021-07-30_05h04.26.292,Simcolourproject_2stim_asymm_v5,2020.2.10,Win32,60,61025ae37ef11b136ea224fe,,,,,,,,,1629,134,67,1,0,0,response1disk,,6,8,6,1,0,0,rectangle,8,6,1,0,0,8,6,1,0,0,0,132,132,50,1,,,,,,,,
,,,,,,,,,,,,,FF,,,,,,,,0.984,,,,,,,,,,,,,,,,,,,,,,60ff50ac6339b1e4ce7b1909,61036c25ada89aa3a7128e4e,2021-07-30_05h04.26.292,Simcolourproject_2stim_asymm_v5,2020.2.10,Win32,60,61025ae37ef11b136ea224fe,,,,,,,,,2069,74,-41,1,0,0,response3disk,,5,10,-3,1,0,0,rectangle,10,-3,1,0,0,10,-3,1,0,0,0,133,133,37,1,,,,,,,,
,,,,,,,,,,,,,FF,,,,,,,,2.123,,,,,,,,,,,,,,,,,,,,,,60ff50ac6339b1e4ce7b1909,61036c25ada89aa3a7128e4e,2021-07-30_05h04.26.292,Simcolourproject_2stim_asymm_v5,2020.2.10,Win32,60,61025ae37ef11b136ea224fe,,,,,,,,,2090,36,-130,1,0,0,response3disk,,4,-18,-4,1,0,0,rectangle,-18,-4,1,0,0,-18,-4,1,0,0,0,134,134,115,1,,,,,,,,
,,,,,,,,,,,,,FF,,,,,,,,1.184,,,,,,,,,,,,,,,,,,,,,,60ff50ac6339b1e4ce7b1909,61036c25ada89aa3a7128e4e,2021-07-30_05h04.26.292,Simcolourproject_2stim_asymm_v5,2020.2.10,Win32,60,61025ae37ef11b136ea224fe,,,,,,,,,3321,88,-49,1,0,0,response3disk,,5,8,-6,1,0,0,rectangle,8,-6,1,0,0,8,-6,1,0,0,0,135,135,55,1,,,,,,,,
,,,,,,,,,,,,,FF,,,,,,,,3.921,,,,,,,,,,,,,,,,,,,,,,60ff50ac6339b1e4ce7b1909,61036c25ada89aa3a7128e4e,2021-07-30_05h04.26.292,Simcolourproject_2stim_asymm_v5,2020.2.10,Win32,60,61025ae37ef11b136ea224fe,,,,,,,,,3134,97,-68,1,0,0,response3disk,,5,17,-10,1,0,0,rectangle,17,-10,1,0,0,17,-10,1,0,0,0,136,136,39,1,,,,,,,,
,,,,,,,,,,,,,FF,,,,,,,,1.268,,,,,,,,,,,,,,,,,,,,,,60ff50ac6339b1e4ce7b1909,61036c25ada89aa3a7128e4e,2021-07-30_05h04.26.292,Simcolourproject_2stim_asymm_v5,2020.2.10,Win32,60,61025ae37ef11b136ea224fe,,,,,,,,,3437,-32,-112,1,0,0,response5disk,,3,-5,-4,1,0,0,rectangle,-5,-4,1,0,0,-5,-4,1,0,0,0,137,137,156,1,,,,,,,,
,,,,,,,,,,,,,FF,,,,,,,,2.19,,,,,,,,,,,,,,,,,,,,,,60ff50ac6339b1e4ce7b1909,61036c25ada89aa3a7128e4e,2021-07-30_05h04.26.292,Simcolourproject_2stim_asymm_v5,2020.2.10,Win32,60,61025ae37ef11b136ea224fe,,,,,,,,,763,116,43,1,0,0,response1disk,,6,0,1,1,0,0,rectangle,0,1,1,0,0,0,1,1,0,0,0,138,138,157,1,,,,,,,,
,,,,,,,,,,,,,FF,,,,,,,,0.89,,,,,,,,,,,,,,,,,,,,,,60ff50ac6339b1e4ce7b1909,61036c25ada89aa3a7128e4e,2021-07-30_05h04.26.292,Simcolourproject_2stim_asymm_v5,2020.2.10,Win32,60,61025ae37ef11b136ea224fe,,,,,,,,,3154,-51,-114,1,0,0,response5disk,,3,-7,-3,1,0,0,rectangle,-7,-3,1,0,0,-7,-3,1,0,0,0,139,139,155,1,,,,,,,,
,,,,,,,,,,,,,FF,,,,,,,,3.041,,,,,,,,,,,,,,,,,,,,,,60ff50ac6339b1e4ce7b1909,61036c25ada89aa3a7128e4e,2021-07-30_05h04.26.292,Simcolourproject_2stim_asymm_v5,2020.2.10,Win32,60,61025ae37ef11b136ea224fe,,,,,,,,,48,92,45,1,0,0,response1disk,,6,-10,2,1,0,0,rectangle,-10,2,1,0,0,-10,2,1,0,0,0,140,140,137,1,,,,,,,,
,,,,,,,,,,,,,FF,,,,,,,,1.072,,,,,,,,,,,,,,,,,,,,,,60ff50ac6339b1e4ce7b1909,61036c25ada89aa3a7128e4e,2021-07-30_05h04.26.292,Simcolourproject_2stim_asymm_v5,2020.2.10,Win32,60,61025ae37ef11b136ea224fe,,,,,,,,,2355,-45,87,1,0,0,response7disk,,0,7,3,1,0,0,rectangle,7,3,1,0,0,7,3,1,0,0,0,141,141,110,1,,,,,,,,
,,,,,,,,,,,,,FF,,,,,,,,1.793,,,,,,,,,,,,,,,,,,,,,,60ff50ac6339b1e4ce7b1909,61036c25ada89aa3a7128e4e,2021-07-30_05h04.26.292,Simcolourproject_2stim_asymm_v5,2020.2.10,Win32,60,61025ae37ef11b136ea224fe,,,,,,,,,1428,27,-83,1,0,0,response3disk,,4,11,5,1,0,0,rectangle,11,5,1,0,0,11,5,1,0,0,0,142,142,102,1,,,,,,,,
,,,,,,,,,,,,,FF,,,,,,,,1.415,,,,,,,,,,,,,,,,,,,,,,60ff50ac6339b1e4ce7b1909,61036c25ada89aa3a7128e4e,2021-07-30_05h04.26.292,Simcolourproject_2stim_asymm_v5,2020.2.10,Win32,60,61025ae37ef11b136ea224fe,,,,,,,,,2675,-34,-109,1,0,0,response5disk,,3,-6,3,1,0,0,rectangle,-6,3,1,0,0,-6,3,1,0,0,0,143,143,18,1,,,,,,,,
,,,,,,,,,,,,,FF,,,,,,,,0.814,,,,,,,,,,,,,,,,,,,,,,60ff50ac6339b1e4ce7b1909,61036c25ada89aa3a7128e4e,2021-07-30_05h04.26.292,Simcolourproject_2stim_asymm_v5,2020.2.10,Win32,60,61025ae37ef11b136ea224fe,,,,,,,,,2772,-38,-91,1,0,0,response5disk,,3,5,-1,1,0,0,rectangle,5,-1,1,0,0,5,-1,1,0,0,0,144,144,47,1,,,,,,,,
,,,,,,,,,,,,,FF,,,,,,,,1.488,,,,,,,,,,,,,,,,,,,,,,60ff50ac6339b1e4ce7b1909,61036c25ada89aa3a7128e4e,2021-07-30_05h04.26.292,Simcolourproject_2stim_asymm_v5,2020.2.10,Win32,60,61025ae37ef11b136ea224fe,,,,,,,,,3916,-48,-106,1,0,0,response5disk,,3,-2,-1,1,0,0,rectangle,-121,-57,1,0,0,4,8,1,0,0,0,145,145,105,1,,response5disk_3,TRUE,2,2,"[242,54,260,74,151,146,196,6,249,222,76,253,295,293,185,152,80,251,211,304]",1.944,rectangle
,,,,,,,,,,,,,FF,,,,,,,,3.829,,,,,,,,,,,,,,,,,,,,,,60ff50ac6339b1e4ce7b1909,61036c25ada89aa3a7128e4e,2021-07-30_05h04.26.292,Simcolourproject_2stim_asymm_v5,2020.2.10,Win32,60,61025ae37ef11b136ea224fe,,,,,,,,,3778,-138,39,1,0,0,response7disk,,1,-12,9,1,0,0,rectangle,-12,9,1,0,0,-12,9,1,0,0,0,146,146,61,1,,,,,,,,
,,,,,,,,,,,,,FF,,,,,,,,1.795,,,,,,,,,,,,,,,,,,,,,,60ff50ac6339b1e4ce7b1909,61036c25ada89aa3a7128e4e,2021-07-30_05h04.26.292,Simcolourproject_2stim_asymm_v5,2020.2.10,Win32,60,61025ae37ef11b136ea224fe,,,,,,,,,3306,96,-70,1,0,0,response3disk,,5,9,-1,1,0,0,rectangle,9,-1,1,0,0,9,-1,1,0,0,0,147,147,63,1,,,,,,,,
,,,,,,,,,,,,,FF,,,,,,,,1.008,,,,,,,,,,,,,,,,,,,,,,60ff50ac6339b1e4ce7b1909,61036c25ada89aa3a7128e4e,2021-07-30_05h04.26.292,Simcolourproject_2stim_asymm_v5,2020.2.10,Win32,60,61025ae37ef11b136ea224fe,,,,,,,,,3474,-87,-43,1,0,0,response5disk,,2,-9,-10,1,0,0,rectangle,-9,-10,1,0,0,-9,-10,1,0,0,0,148,148,17,1,,,,,,,,
,,,,,,,,,,,,,FF,,,,,,,,1.445,,,,,,,,,,,,,,,,,,,,,,60ff50ac6339b1e4ce7b1909,61036c25ada89aa3a7128e4e,2021-07-30_05h04.26.292,Simcolourproject_2stim_asymm_v5,2020.2.10,Win32,60,61025ae37ef11b136ea224fe,,,,,,,,,2141,99,-48,1,0,0,response3disk,,5,13,5,1,0,0,rectangle,13,5,1,0,0,13,5,1,0,0,0,149,149,53,1,,,,,,,,
,,,,,,,,,,,,,FF,,,,,,,,0.912,,,,,,,,,,,,,,,,,,,,,,60ff50ac6339b1e4ce7b1909,61036c25ada89aa3a7128e4e,2021-07-30_05h04.26.292,Simcolourproject_2stim_asymm_v5,2020.2.10,Win32,60,61025ae37ef11b136ea224fe,,,,,,,,,4022,-92,-38,1,0,0,response5disk,,2,-13,8,1,0,0,rectangle,-48,110,1,0,0,-12,-3,1,0,0,0,150,150,27,1,,response7disk_3,TRUE,0,0,"[242,54,260,74,151,146,196,6,249,222,76,253,295,293,185,152,80,251,211,304]",1.699,rectangle
,,,,,,,,,,,,,FF,,,,,,,,2.696,,,,,,,,,,,,,,,,,,,,,,60ff50ac6339b1e4ce7b1909,61036c25ada89aa3a7128e4e,2021-07-30_05h04.26.292,Simcolourproject_2stim_asymm_v5,2020.2.10,Win32,60,61025ae37ef11b136ea224fe,,,,,,,,,2882,-51,-88,1,0,0,response5disk,,3,11,-3,1,0,0,rectangle,-144,-59,1,0,0,-3,3,1,0,0,0,151,151,128,1,,response5disk_3,TRUE,2,2,"[242,54,260,74,151,146,196,6,249,222,76,253,295,293,185,152,80,251,211,304]",2.106,rectangle
,,,,,,,,,,,,,FF,,,,,,,,1.198,,,,,,,,,,,,,,,,,,,,,,60ff50ac6339b1e4ce7b1909,61036c25ada89aa3a7128e4e,2021-07-30_05h04.26.292,Simcolourproject_2stim_asymm_v5,2020.2.10,Win32,60,61025ae37ef11b136ea224fe,,,,,,,,,4152,53,81,1,0,0,response1disk,,7,-11,8,1,0,0,rectangle,-11,8,1,0,0,-11,8,1,0,0,0,152,152,82,1,,,,,,,,
,,,,,,,,,,,,,FF,,,,,,,,1.438,,,,,,,,,,,,,,,,,,,,,,60ff50ac6339b1e4ce7b1909,61036c25ada89aa3a7128e4e,2021-07-30_05h04.26.292,Simcolourproject_2stim_asymm_v5,2020.2.10,Win32,60,61025ae37ef11b136ea224fe,,,,,,,,,2417,77,-96,1,0,0,response3disk,,4,-12,-1,1,0,0,rectangle,-12,-1,1,0,0,-12,-1,1,0,0,0,153,153,88,1,,,,,,,,
,,,,,,,,,,,,,FF,,,,,,,,1.14,,,,,,,,,,,,,,,,,,,,,,60ff50ac6339b1e4ce7b1909,61036c25ada89aa3a7128e4e,2021-07-30_05h04.26.292,Simcolourproject_2stim_asymm_v5,2020.2.10,Win32,60,61025ae37ef11b136ea224fe,,,,,,,,,2108,-52,-97,1,0,0,response5disk,,3,2,8,1,0,0,rectangle,2,8,1,0,0,2,8,1,0,0,0,154,154,83,1,,,,,,,,
,,,,,,,,,,,,,FF,,,,,,,,0.739,,,,,,,,,,,,,,,,,,,,,,60ff50ac6339b1e4ce7b1909,61036c25ada89aa3a7128e4e,2021-07-30_05h04.26.292,Simcolourproject_2stim_asymm_v5,2020.2.10,Win32,60,61025ae37ef11b136ea224fe,,,,,,,,,3561,-31,-79,1,0,0,response5disk,,3,3,5,1,0,0,rectangle,3,5,1,0,0,3,5,1,0,0,0,155,155,126,1,,,,,,,,
,,,,,,,,,,,,,FF,,,,,,,,1.033,,,,,,,,,,,,,,,,,,,,,,60ff50ac6339b1e4ce7b1909,61036c25ada89aa3a7128e4e,2021-07-30_05h04.26.292,Simcolourproject_2stim_asymm_v5,2020.2.10,Win32,60,61025ae37ef11b136ea224fe,,,,,,,,,1385,-56,-75,1,0,0,response5disk,,3,-26,-3,1,0,0,rectangle,-26,-3,1,0,0,-26,-3,1,0,0,0,156,156,117,1,,,,,,,,
,,,,,,,,,,,,,FF,,,,,,,,1.009,,,,,,,,,,,,,,,,,,,,,,60ff50ac6339b1e4ce7b1909,61036c25ada89aa3a7128e4e,2021-07-30_05h04.26.292,Simcolourproject_2stim_asymm_v5,2020.2.10,Win32,60,61025ae37ef11b136ea224fe,,,,,,,,,1927,95,-49,1,0,0,response3disk,,5,12,-5,1,0,0,rectangle,12,-5,1,0,0,12,-5,1,0,0,0,157,157,35,1,,,,,,,,
,,,,,,,,,,,,,FF,,,,,,,,1.002,,,,,,,,,,,,,,,,,,,,,,60ff50ac6339b1e4ce7b1909,61036c25ada89aa3a7128e4e,2021-07-30_05h04.26.292,Simcolourproject_2stim_asymm_v5,2020.2.10,Win32,60,61025ae37ef11b136ea224fe,,,,,,,,,3130,102,69,1,0,0,response1disk,,6,14,6,1,0,0,rectangle,14,6,1,0,0,14,6,1,0,0,0,158,158,26,1,,,,,,,,
,,,,,,,,,,,,,FF,,,,,,,,0.665,,,,,,,,,,,,,,,,,,,,,,60ff50ac6339b1e4ce7b1909,61036c25ada89aa3a7128e4e,2021-07-30_05h04.26.292,Simcolourproject_2stim_asymm_v5,2020.2.10,Win32,60,61025ae37ef11b136ea224fe,,,,,,,,,2026,-49,-90,1,0,0,response5disk,,3,-25,-3,1,0,0,rectangle,-25,-3,1,0,0,-25,-3,1,0,0,0,159,159,144,1,,,,,,,,
,,,,,,,,,,,,,FF,,,,,,,,2.479,,,,,,,,,,,,,,,,,,,,,,60ff50ac6339b1e4ce7b1909,61036c25ada89aa3a7128e4e,2021-07-30_05h04.26.292,Simcolourproject_2stim_asymm_v5,2020.2.10,Win32,60,61025ae37ef11b136ea224fe,,,,,,,,,2553,68,-112,1,0,0,response3disk,,4,0,4,1,0,0,rectangle,0,4,1,0,0,0,4,1,0,0,1,0,160,77,1,,,,,,,,
,,,,,,,,,,,,,FF,,,,,,,,1.055,,,,,,,,,,,,,,,,,,,,,,60ff50ac6339b1e4ce7b1909,61036c25ada89aa3a7128e4e,2021-07-30_05h04.26.292,Simcolourproject_2stim_asymm_v5,2020.2.10,Win32,60,61025ae37ef11b136ea224fe,,,,,,,,,3137,39,106,1,0,0,response1disk,,7,-5,11,1,0,0,rectangle,-5,11,1,0,0,-5,11,1,0,0,1,1,161,33,1,,,,,,,,
,,,,,,,,,,,,,FF,,,,,,,,1.008,,,,,,,,,,,,,,,,,,,,,,60ff50ac6339b1e4ce7b1909,61036c25ada89aa3a7128e4e,2021-07-30_05h04.26.292,Simcolourproject_2stim_asymm_v5,2020.2.10,Win32,60,61025ae37ef11b136ea224fe,,,,,,,,,266,-47,-86,1,0,0,response5disk,,3,-8,-12,1,0,0,rectangle,-8,-12,1,0,0,-8,-12,1,0,0,1,2,162,139,1,,,,,,,,
,,,,,,,,,,,,,FF,,,,,,,,1.055,,,,,,,,,,,,,,,,,,,,,,60ff50ac6339b1e4ce7b1909,61036c25ada89aa3a7128e4e,2021-07-30_05h04.26.292,Simcolourproject_2stim_asymm_v5,2020.2.10,Win32,60,61025ae37ef11b136ea224fe,,,,,,,,,1635,50,101,1,0,0,response1disk,,7,18,-7,1,0,0,rectangle,18,-7,1,0,0,18,-7,1,0,0,1,3,163,148,1,,,,,,,,
,,,,,,,,,,,,,FF,,,,,,,,0.817,,,,,,,,,,,,,,,,,,,,,,60ff50ac6339b1e4ce7b1909,61036c25ada89aa3a7128e4e,2021-07-30_05h04.26.292,Simcolourproject_2stim_asymm_v5,2020.2.10,Win32,60,61025ae37ef11b136ea224fe,,,,,,,,,2374,-39,-87,1,0,0,response5disk,,3,-19,1,1,0,0,rectangle,-19,1,1,0,0,-19,1,1,0,0,1,4,164,127,1,,,,,,,,
,,,,,,,,,,,,,FF,,,,,,,,0.959,,,,,,,,,,,,,,,,,,,,,,60ff50ac6339b1e4ce7b1909,61036c25ada89aa3a7128e4e,2021-07-30_05h04.26.292,Simcolourproject_2stim_asymm_v5,2020.2.10,Win32,60,61025ae37ef11b136ea224fe,,,,,,,,,1338,78,-34,1,0,0,response3disk,,5,5,-15,1,0,0,rectangle,5,-15,1,0,0,5,-15,1,0,0,1,5,165,154,1,,,,,,,,
,,,,,,,,,,,,,FF,,,,,,,,1.208,,,,,,,,,,,,,,,,,,,,,,60ff50ac6339b1e4ce7b1909,61036c25ada89aa3a7128e4e,2021-07-30_05h04.26.292,Simcolourproject_2stim_asymm_v5,2020.2.10,Win32,60,61025ae37ef11b136ea224fe,,,,,,,,,2196,82,43,1,0,0,response1disk,,6,13,-7,1,0,0,rectangle,13,-7,1,0,0,13,-7,1,0,0,1,6,166,104,1,,,,,,,,
,,,,,,,,,,,,,FF,,,,,,,,1.261,,,,,,,,,,,,,,,,,,,,,,60ff50ac6339b1e4ce7b1909,61036c25ada89aa3a7128e4e,2021-07-30_05h04.26.292,Simcolourproject_2stim_asymm_v5,2020.2.10,Win32,60,61025ae37ef11b136ea224fe,,,,,,,,,497,32,81,1,0,0,response1disk,,7,8,-4,1,0,0,rectangle,8,-4,1,0,0,8,-4,1,0,0,1,7,167,49,1,,,,,,,,
,,,,,,,,,,,,,FF,,,,,,,,1.562,,,,,,,,,,,,,,,,,,,,,,60ff50ac6339b1e4ce7b1909,61036c25ada89aa3a7128e4e,2021-07-30_05h04.26.292,Simcolourproject_2stim_asymm_v5,2020.2.10,Win32,60,61025ae37ef11b136ea224fe,,,,,,,,,3958,78,-63,1,0,0,response3disk,,5,-10,-2,1,0,0,rectangle,-10,-2,1,0,0,-10,-2,1,0,0,1,8,168,142,1,,,,,,,,
,,,,,,,,,,,,,FF,,,,,,,,1.924,,,,,,,,,,,,,,,,,,,,,,60ff50ac6339b1e4ce7b1909,61036c25ada89aa3a7128e4e,2021-07-30_05h04.26.292,Simcolourproject_2stim_asymm_v5,2020.2.10,Win32,60,61025ae37ef11b136ea224fe,,,,,,,,,846,33,-128,1,0,0,response3disk,,4,7,-4,1,0,0,rectangle,7,-4,1,0,0,7,-4,1,0,0,1,9,169,17,1,,,,,,,,
,,,,,,,,,,,,,FF,,,,,,,,1.17,,,,,,,,,,,,,,,,,,,,,,60ff50ac6339b1e4ce7b1909,61036c25ada89aa3a7128e4e,2021-07-30_05h04.26.292,Simcolourproject_2stim_asymm_v5,2020.2.10,Win32,60,61025ae37ef11b136ea224fe,,,,,,,,,3466,70,-105,1,0,0,response3disk,,4,6,-14,1,0,0,rectangle,6,-14,1,0,0,6,-14,1,0,0,1,10,170,24,1,,,,,,,,
,,,,,,,,,,,,,FF,,,,,,,,1.236,,,,,,,,,,,,,,,,,,,,,,60ff50ac6339b1e4ce7b1909,61036c25ada89aa3a7128e4e,2021-07-30_05h04.26.292,Simcolourproject_2stim_asymm_v5,2020.2.10,Win32,60,61025ae37ef11b136ea224fe,,,,,,,,,1284,32,-104,1,0,0,response3disk,,4,-25,2,1,0,0,rectangle,-25,2,1,0,0,-25,2,1,0,0,1,11,171,25,1,,,,,,,,
,,,,,,,,,,,,,FF,,,,,,,,1.219,,,,,,,,,,,,,,,,,,,,,,60ff50ac6339b1e4ce7b1909,61036c25ada89aa3a7128e4e,2021-07-30_05h04.26.292,Simcolourproject_2stim_asymm_v5,2020.2.10,Win32,60,61025ae37ef11b136ea224fe,,,,,,,,,1732,120,43,1,0,0,response1disk,,6,36,-16,1,0,0,rectangle,36,-16,1,0,0,36,-16,1,0,0,1,12,172,144,1,,,,,,,,
,,,,,,,,,,,,,FF,,,,,,,,1.998,,,,,,,,,,,,,,,,,,,,,,60ff50ac6339b1e4ce7b1909,61036c25ada89aa3a7128e4e,2021-07-30_05h04.26.292,Simcolourproject_2stim_asymm_v5,2020.2.10,Win32,60,61025ae37ef11b136ea224fe,,,,,,,,,2388,55,-99,1,0,0,response3disk,,4,4,-17,1,0,0,rectangle,4,-17,1,0,0,4,-17,1,0,0,1,13,173,156,1,,,,,,,,
,,,,,,,,,,,,,FF,,,,,,,,1.187,,,,,,,,,,,,,,,,,,,,,,60ff50ac6339b1e4ce7b1909,61036c25ada89aa3a7128e4e,2021-07-30_05h04.26.292,Simcolourproject_2stim_asymm_v5,2020.2.10,Win32,60,61025ae37ef11b136ea224fe,,,,,,,,,1019,64,-107,1,0,0,response3disk,,4,26,2,1,0,0,rectangle,26,2,1,0,0,26,2,1,0,0,1,14,174,12,1,,,,,,,,
,,,,,,,,,,,,,FF,,,,,,,,1.425,,,,,,,,,,,,,,,,,,,,,,60ff50ac6339b1e4ce7b1909,61036c25ada89aa3a7128e4e,2021-07-30_05h04.26.292,Simcolourproject_2stim_asymm_v5,2020.2.10,Win32,60,61025ae37ef11b136ea224fe,,,,,,,,,1718,105,-77,1,0,0,response3disk,,5,10,-15,1,0,0,rectangle,10,-15,1,0,0,10,-15,1,0,0,1,15,175,64,1,,,,,,,,
,,,,,,,,,,,,,FF,,,,,,,,0.993,,,,,,,,,,,,,,,,,,,,,,60ff50ac6339b1e4ce7b1909,61036c25ada89aa3a7128e4e,2021-07-30_05h04.26.292,Simcolourproject_2stim_asymm_v5,2020.2.10,Win32,60,61025ae37ef11b136ea224fe,,,,,,,,,3759,87,43,1,0,0,response1disk,,6,-10,-14,1,0,0,rectangle,-10,-14,1,0,0,-10,-14,1,0,0,1,16,176,11,1,,,,,,,,
,,,,,,,,,,,,,FF,,,,,,,,1.394,,,,,,,,,,,,,,,,,,,,,,60ff50ac6339b1e4ce7b1909,61036c25ada89aa3a7128e4e,2021-07-30_05h04.26.292,Simcolourproject_2stim_asymm_v5,2020.2.10,Win32,60,61025ae37ef11b136ea224fe,,,,,,,,,3739,-37,-82,1,0,0,response5disk,,3,-22,-4,1,0,0,rectangle,-22,-4,1,0,0,-22,-4,1,0,0,1,17,177,122,1,,,,,,,,
,,,,,,,,,,,,,FF,,,,,,,,1.911,,,,,,,,,,,,,,,,,,,,,,60ff50ac6339b1e4ce7b1909,61036c25ada89aa3a7128e4e,2021-07-30_05h04.26.292,Simcolourproject_2stim_asymm_v5,2020.2.10,Win32,60,61025ae37ef11b136ea224fe,,,,,,,,,2893,-94,33,1,0,0,response7disk,,1,-13,3,1,0,0,rectangle,-13,3,1,0,0,-13,3,1,0,0,1,18,178,130,1,,,,,,,,
,,,,,,,,,,,,,FF,,,,,,,,1.09,,,,,,,,,,,,,,,,,,,,,,60ff50ac6339b1e4ce7b1909,61036c25ada89aa3a7128e4e,2021-07-30_05h04.26.292,Simcolourproject_2stim_asymm_v5,2020.2.10,Win32,60,61025ae37ef11b136ea224fe,,,,,,,,,4280,-72,125,1,0,0,response7disk,,0,-10,2,1,0,0,rectangle,-10,2,1,0,0,-10,2,1,0,0,1,19,179,37,1,,,,,,,,
,,,,,,,,,,,,,FF,,,,,,,,1.225,,,,,,,,,,,,,,,,,,,,,,60ff50ac6339b1e4ce7b1909,61036c25ada89aa3a7128e4e,2021-07-30_05h04.26.292,Simcolourproject_2stim_asymm_v5,2020.2.10,Win32,60,61025ae37ef11b136ea224fe,,,,,,,,,2165,-135,37,1,0,0,response7disk,,1,-25,-6,1,0,0,rectangle,-25,-6,1,0,0,-25,-6,1,0,0,1,20,180,41,1,,,,,,,,
,,,,,,,,,,,,,FF,,,,,,,,0.559,,,,,,,,,,,,,,,,,,,,,,60ff50ac6339b1e4ce7b1909,61036c25ada89aa3a7128e4e,2021-07-30_05h04.26.292,Simcolourproject_2stim_asymm_v5,2020.2.10,Win32,60,61025ae37ef11b136ea224fe,,,,,,,,,4046,-76,121,1,0,0,response7disk,,0,-22,-3,1,0,0,rectangle,-22,-3,1,0,0,-22,-3,1,0,0,1,21,181,62,1,,,,,,,,
,,,,,,,,,,,,,FF,,,,,,,,0.98,,,,,,,,,,,,,,,,,,,,,,60ff50ac6339b1e4ce7b1909,61036c25ada89aa3a7128e4e,2021-07-30_05h04.26.292,Simcolourproject_2stim_asymm_v5,2020.2.10,Win32,60,61025ae37ef11b136ea224fe,,,,,,,,,2043,-71,-117,1,0,0,response5disk,,3,-36,9,1,0,0,rectangle,-36,9,1,0,0,-36,9,1,0,0,1,22,182,133,1,,,,,,,,
,,,,,,,,,,,,,FF,,,,,,,,1.824,,,,,,,,,,,,,,,,,,,,,,60ff50ac6339b1e4ce7b1909,61036c25ada89aa3a7128e4e,2021-07-30_05h04.26.292,Simcolourproject_2stim_asymm_v5,2020.2.10,Win32,60,61025ae37ef11b136ea224fe,,,,,,,,,3487,-33,-156,1,0,0,response5disk,,3,-10,0,1,0,0,rectangle,-10,0,1,0,0,-10,0,1,0,0,1,23,183,53,1,,,,,,,,
,,,,,,,,,,,,,FF,,,,,,,,1.814,,,,,,,,,,,,,,,,,,,,,,60ff50ac6339b1e4ce7b1909,61036c25ada89aa3a7128e4e,2021-07-30_05h04.26.292,Simcolourproject_2stim_asymm_v5,2020.2.10,Win32,60,61025ae37ef11b136ea224fe,,,,,,,,,2358,-58,-119,1,0,0,response5disk,,3,-35,-3,1,0,0,rectangle,-73,139,1,0,0,11,6,1,0,0,1,24,184,100,1,,response7disk_3,TRUE,0,0,"[242,54,260,74,151,146,196,6,249,222,76,253,295,293,185,152,80,251,211,304]",1.599,rectangle
,,,,,,,,,,,,,FF,,,,,,,,1.429,,,,,,,,,,,,,,,,,,,,,,60ff50ac6339b1e4ce7b1909,61036c25ada89aa3a7128e4e,2021-07-30_05h04.26.292,Simcolourproject_2stim_asymm_v5,2020.2.10,Win32,60,61025ae37ef11b136ea224fe,,,,,,,,,4028,-65,-106,1,0,0,response5disk,,3,-18,14,1,0,0,rectangle,-18,14,1,0,0,-18,14,1,0,0,1,25,185,56,1,,,,,,,,
,,,,,,,,,,,,,FF,,,,,,,,1.675,,,,,,,,,,,,,,,,,,,,,,60ff50ac6339b1e4ce7b1909,61036c25ada89aa3a7128e4e,2021-07-30_05h04.26.292,Simcolourproject_2stim_asymm_v5,2020.2.10,Win32,60,61025ae37ef11b136ea224fe,,,,,,,,,195,35,-110,1,0,0,response3disk,,4,15,2,1,0,0,rectangle,15,2,1,0,0,15,2,1,0,0,1,26,186,27,1,,,,,,,,
,,,,,,,,,,,,,FF,,,,,,,,1.163,,,,,,,,,,,,,,,,,,,,,,60ff50ac6339b1e4ce7b1909,61036c25ada89aa3a7128e4e,2021-07-30_05h04.26.292,Simcolourproject_2stim_asymm_v5,2020.2.10,Win32,60,61025ae37ef11b136ea224fe,,,,,,,,,2727,-86,-28,1,0,0,response5disk,,2,-8,5,1,0,0,rectangle,-8,5,1,0,0,-8,5,1,0,0,1,27,187,121,1,,,,,,,,
,,,,,,,,,,,,,FF,,,,,,,,0.817,,,,,,,,,,,,,,,,,,,,,,60ff50ac6339b1e4ce7b1909,61036c25ada89aa3a7128e4e,2021-07-30_05h04.26.292,Simcolourproject_2stim_asymm_v5,2020.2.10,Win32,60,61025ae37ef11b136ea224fe,,,,,,,,,1892,-89,-34,1,0,0,response5disk,,2,-5,-2,1,0,0,rectangle,-5,-2,1,0,0,-5,-2,1,0,0,1,28,188,14,1,,,,,,,,
,,,,,,,,,,,,,FF,,,,,,,,1.68,,,,,,,,,,,,,,,,,,,,,,60ff50ac6339b1e4ce7b1909,61036c25ada89aa3a7128e4e,2021-07-30_05h04.26.292,Simcolourproject_2stim_asymm_v5,2020.2.10,Win32,60,61025ae37ef11b136ea224fe,,,,,,,,,3628,52,-105,1,0,0,response3disk,,4,12,-6,1,0,0,rectangle,12,-6,1,0,0,12,-6,1,0,0,1,29,189,151,1,,,,,,,,
,,,,,,,,,,,,,FF,,,,,,,,1.621,,,,,,,,,,,,,,,,,,,,,,60ff50ac6339b1e4ce7b1909,61036c25ada89aa3a7128e4e,2021-07-30_05h04.26.292,Simcolourproject_2stim_asymm_v5,2020.2.10,Win32,60,61025ae37ef11b136ea224fe,,,,,,,,,3794,89,-62,1,0,0,response3disk,,5,7,-6,1,0,0,rectangle,7,-6,1,0,0,7,-6,1,0,0,1,30,190,99,1,,,,,,,,
,,,,,,,,,,,,,FF,,,,,,,,1.776,,,,,,,,,,,,,,,,,,,,,,60ff50ac6339b1e4ce7b1909,61036c25ada89aa3a7128e4e,2021-07-30_05h04.26.292,Simcolourproject_2stim_asymm_v5,2020.2.10,Win32,60,61025ae37ef11b136ea224fe,,,,,,,,,994,117,-75,1,0,0,response3disk,,5,6,-15,1,0,0,rectangle,6,-15,1,0,0,6,-15,1,0,0,1,31,191,79,1,,,,,,,,
,,,,,,,,,,,,,FF,,,,,,,,0.585,,,,,,,,,,,,,,,,,,,,,,60ff50ac6339b1e4ce7b1909,61036c25ada89aa3a7128e4e,2021-07-30_05h04.26.292,Simcolourproject_2stim_asymm_v5,2020.2.10,Win32,60,61025ae37ef11b136ea224fe,,,,,,,,,392,70,-36,1,0,0,response3disk,,5,12,2,1,0,0,rectangle,12,2,1,0,0,12,2,1,0,0,1,32,192,52,1,,,,,,,,
,,,,,,,,,,,,,FF,,,,,,,,3.441,,,,,,,,,,,,,,,,,,,,,,60ff50ac6339b1e4ce7b1909,61036c25ada89aa3a7128e4e,2021-07-30_05h04.26.292,Simcolourproject_2stim_asymm_v5,2020.2.10,Win32,60,61025ae37ef11b136ea224fe,,,,,,,,,614,-34,-147,1,0,0,response5disk,,3,32,4,1,0,0,rectangle,32,4,1,0,0,32,4,1,0,0,1,33,193,114,1,,,,,,,,
,,,,,,,,,,,,,FF,,,,,,,,1.308,,,,,,,,,,,,,,,,,,,,,,60ff50ac6339b1e4ce7b1909,61036c25ada89aa3a7128e4e,2021-07-30_05h04.26.292,Simcolourproject_2stim_asymm_v5,2020.2.10,Win32,60,61025ae37ef11b136ea224fe,,,,,,,,,3566,-57,-142,1,0,0,response5disk,,3,-17,-10,1,0,0,rectangle,-17,-10,1,0,0,-17,-10,1,0,0,1,34,194,85,1,,,,,,,,
,,,,,,,,,,,,,FF,,,,,,,,1.606,,,,,,,,,,,,,,,,,,,,,,60ff50ac6339b1e4ce7b1909,61036c25ada89aa3a7128e4e,2021-07-30_05h04.26.292,Simcolourproject_2stim_asymm_v5,2020.2.10,Win32,60,61025ae37ef11b136ea224fe,,,,,,,,,331,101,-65,1,0,0,response3disk,,5,-1,3,1,0,0,rectangle,-57,-129,1,0,0,-30,3,1,0,0,1,35,195,67,1,,response5disk_3,TRUE,3,3,"[242,54,260,74,151,146,196,6,249,222,76,253,295,293,185,152,80,251,211,304]",2.064,rectangle
,,,,,,,,,,,,,FF,,,,,,,,1.36,,,,,,,,,,,,,,,,,,,,,,60ff50ac6339b1e4ce7b1909,61036c25ada89aa3a7128e4e,2021-07-30_05h04.26.292,Simcolourproject_2stim_asymm_v5,2020.2.10,Win32,60,61025ae37ef11b136ea224fe,,,,,,,,,340,-35,-137,1,0,0,response5disk,,3,-12,-6,1,0,0,rectangle,-12,-6,1,0,0,-12,-6,1,0,0,1,36,196,88,1,,,,,,,,
,,,,,,,,,,,,,FF,,,,,,,,1.489,,,,,,,,,,,,,,,,,,,,,,60ff50ac6339b1e4ce7b1909,61036c25ada89aa3a7128e4e,2021-07-30_05h04.26.292,Simcolourproject_2stim_asymm_v5,2020.2.10,Win32,60,61025ae37ef11b136ea224fe,,,,,,,,,2508,119,-58,1,0,0,response3disk,,5,-7,10,1,0,0,rectangle,-7,10,1,0,0,-7,10,1,0,0,1,37,197,126,1,,,,,,,,
,,,,,,,,,,,,,FF,,,,,,,,1.163,,,,,,,,,,,,,,,,,,,,,,60ff50ac6339b1e4ce7b1909,61036c25ada89aa3a7128e4e,2021-07-30_05h04.26.292,Simcolourproject_2stim_asymm_v5,2020.2.10,Win32,60,61025ae37ef11b136ea224fe,,,,,,,,,2643,70,-121,1,0,0,response3disk,,4,12,0,1,0,0,rectangle,12,0,1,0,0,12,0,1,0,0,1,38,198,153,1,,,,,,,,
,,,,,,,,,,,,,FF,,,,,,,,1.543,,,,,,,,,,,,,,,,,,,,,,60ff50ac6339b1e4ce7b1909,61036c25ada89aa3a7128e4e,2021-07-30_05h04.26.292,Simcolourproject_2stim_asymm_v5,2020.2.10,Win32,60,61025ae37ef11b136ea224fe,,,,,,,,,3623,-45,-134,1,0,0,response5disk,,3,-41,3,1,0,0,rectangle,-41,3,1,0,0,-41,3,1,0,0,1,39,199,132,1,,,,,,,,
,,,,,,,,,,,,,FF,,,,,,,,0.609,,,,,,,,,,,,,,,,,,,,,,60ff50ac6339b1e4ce7b1909,61036c25ada89aa3a7128e4e,2021-07-30_05h04.26.292,Simcolourproject_2stim_asymm_v5,2020.2.10,Win32,60,61025ae37ef11b136ea224fe,,,,,,,,,3837,-43,-110,1,0,0,response5disk,,3,-20,-5,1,0,0,rectangle,-20,-5,1,0,0,-20,-5,1,0,0,1,40,200,95,1,,,,,,,,
,,,,,,,,,,,,,FF,,,,,,,,0.587,,,,,,,,,,,,,,,,,,,,,,60ff50ac6339b1e4ce7b1909,61036c25ada89aa3a7128e4e,2021-07-30_05h04.26.292,Simcolourproject_2stim_asymm_v5,2020.2.10,Win32,60,61025ae37ef11b136ea224fe,,,,,,,,,1590,-40,-96,1,0,0,response5disk,,3,-14,-12,1,0,0,rectangle,-14,-12,1,0,0,-14,-12,1,0,0,1,41,201,147,1,,,,,,,,
,,,,,,,,,,,,,FF,,,,,,,,1.079,,,,,,,,,,,,,,,,,,,,,,60ff50ac6339b1e4ce7b1909,61036c25ada89aa3a7128e4e,2021-07-30_05h04.26.292,Simcolourproject_2stim_asymm_v5,2020.2.10,Win32,60,61025ae37ef11b136ea224fe,,,,,,,,,613,-75,-49,1,0,0,response5disk,,2,-24,-5,1,0,0,rectangle,-24,-5,1,0,0,-24,-5,1,0,0,1,42,202,136,1,,,,,,,,
,,,,,,,,,,,,,FF,,,,,,,,1.476,,,,,,,,,,,,,,,,,,,,,,60ff50ac6339b1e4ce7b1909,61036c25ada89aa3a7128e4e,2021-07-30_05h04.26.292,Simcolourproject_2stim_asymm_v5,2020.2.10,Win32,60,61025ae37ef11b136ea224fe,,,,,,,,,836,132,-53,1,0,0,response3disk,,5,-32,1,1,0,0,rectangle,-32,1,1,0,0,-32,1,1,0,0,1,43,203,145,1,,,,,,,,
,,,,,,,,,,,,,FF,,,,,,,,2.381,,,,,,,,,,,,,,,,,,,,,,60ff50ac6339b1e4ce7b1909,61036c25ada89aa3a7128e4e,2021-07-30_05h04.26.292,Simcolourproject_2stim_asymm_v5,2020.2.10,Win32,60,61025ae37ef11b136ea224fe,,,,,,,,,102,-37,-146,1,0,0,response5disk,,3,-7,-1,1,0,0,rectangle,-7,-1,1,0,0,-7,-1,1,0,0,1,44,204,119,1,,,,,,,,
,,,,,,,,,,,,,FF,,,,,,,,2.841,,,,,,,,,,,,,,,,,,,,,,60ff50ac6339b1e4ce7b1909,61036c25ada89aa3a7128e4e,2021-07-30_05h04.26.292,Simcolourproject_2stim_asymm_v5,2020.2.10,Win32,60,61025ae37ef11b136ea224fe,,,,,,,,,4214,119,-47,1,0,0,response3disk,,5,8,2,1,0,0,rectangle,8,2,1,0,0,8,2,1,0,0,1,45,205,131,1,,,,,,,,
,,,,,,,,,,,,,FF,,,,,,,,2.097,,,,,,,,,,,,,,,,,,,,,,60ff50ac6339b1e4ce7b1909,61036c25ada89aa3a7128e4e,2021-07-30_05h04.26.292,Simcolourproject_2stim_asymm_v5,2020.2.10,Win32,60,61025ae37ef11b136ea224fe,,,,,,,,,671,147,-66,1,0,0,response3disk,,5,-10,1,1,0,0,rectangle,-10,1,1,0,0,-10,1,1,0,0,1,46,206,55,1,,,,,,,,
,,,,,,,,,,,,,FF,,,,,,,,1.557,,,,,,,,,,,,,,,,,,,,,,60ff50ac6339b1e4ce7b1909,61036c25ada89aa3a7128e4e,2021-07-30_05h04.26.292,Simcolourproject_2stim_asymm_v5,2020.2.10,Win32,60,61025ae37ef11b136ea224fe,,,,,,,,,3751,-43,-115,1,0,0,response5disk,,3,-32,-7,1,0,0,rectangle,-32,-7,1,0,0,-32,-7,1,0,0,1,47,207,23,1,,,,,,,,
,,,,,,,,,,,,,FF,,,,,,,,0.523,,,,,,,,,,,,,,,,,,,,,,60ff50ac6339b1e4ce7b1909,61036c25ada89aa3a7128e4e,2021-07-30_05h04.26.292,Simcolourproject_2stim_asymm_v5,2020.2.10,Win32,60,61025ae37ef11b136ea224fe,,,,,,,,,1460,-99,-45,1,0,0,response5disk,,2,9,-8,1,0,0,rectangle,9,-8,1,0,0,9,-8,1,0,0,1,48,208,134,1,,,,,,,,
,,,,,,,,,,,,,FF,,,,,,,,0.844,,,,,,,,,,,,,,,,,,,,,,60ff50ac6339b1e4ce7b1909,61036c25ada89aa3a7128e4e,2021-07-30_05h04.26.292,Simcolourproject_2stim_asymm_v5,2020.2.10,Win32,60,61025ae37ef11b136ea224fe,,,,,,,,,4284,51,102,1,0,0,response1disk,,7,5,1,1,0,0,rectangle,5,1,1,0,0,5,1,1,0,0,1,49,209,2,1,,,,,,,,
,,,,,,,,,,,,,FF,,,,,,,,4.035,,,,,,,,,,,,,,,,,,,,,,60ff50ac6339b1e4ce7b1909,61036c25ada89aa3a7128e4e,2021-07-30_05h04.26.292,Simcolourproject_2stim_asymm_v5,2020.2.10,Win32,60,61025ae37ef11b136ea224fe,,,,,,,,,2590,112,-59,1,0,0,response3disk,,5,34,-2,1,0,0,rectangle,59,-137,1,0,0,-12,-10,1,0,0,1,50,210,98,1,,response3disk_3,TRUE,4,4,"[242,54,260,74,151,146,196,6,249,222,76,253,295,293,185,152,80,251,211,304]",1.981,rectangle
,,,,,,,,,,,,,FF,,,,,,,,1.409,,,,,,,,,,,,,,,,,,,,,,60ff50ac6339b1e4ce7b1909,61036c25ada89aa3a7128e4e,2021-07-30_05h04.26.292,Simcolourproject_2stim_asymm_v5,2020.2.10,Win32,60,61025ae37ef11b136ea224fe,,,,,,,,,4209,154,32,1,0,0,response1disk,,6,21,6,1,0,0,rectangle,21,6,1,0,0,21,6,1,0,0,1,51,211,59,1,,,,,,,,
,,,,,,,,,,,,,FF,,,,,,,,3.039,,,,,,,,,,,,,,,,,,,,,,60ff50ac6339b1e4ce7b1909,61036c25ada89aa3a7128e4e,2021-07-30_05h04.26.292,Simcolourproject_2stim_asymm_v5,2020.2.10,Win32,60,61025ae37ef11b136ea224fe,,,,,,,,,3853,-92,-63,1,0,0,response5disk,,2,21,-21,1,0,0,rectangle,21,-21,1,0,0,21,-21,1,0,0,1,52,212,103,1,,,,,,,,
,,,,,,,,,,,,,FF,,,,,,,,1.109,,,,,,,,,,,,,,,,,,,,,,60ff50ac6339b1e4ce7b1909,61036c25ada89aa3a7128e4e,2021-07-30_05h04.26.292,Simcolourproject_2stim_asymm_v5,2020.2.10,Win32,60,61025ae37ef11b136ea224fe,,,,,,,,,598,52,-97,1,0,0,response3disk,,4,10,-19,1,0,0,rectangle,10,-19,1,0,0,10,-19,1,0,0,1,53,213,146,1,,,,,,,,
,,,,,,,,,,,,,FF,,,,,,,,1.54,,,,,,,,,,,,,,,,,,,,,,60ff50ac6339b1e4ce7b1909,61036c25ada89aa3a7128e4e,2021-07-30_05h04.26.292,Simcolourproject_2stim_asymm_v5,2020.2.10,Win32,60,61025ae37ef11b136ea224fe,,,,,,,,,461,-29,-73,1,0,0,response5disk,,3,-8,-7,1,0,0,rectangle,-8,-7,1,0,0,-8,-7,1,0,0,1,54,214,43,1,,,,,,,,
,,,,,,,,,,,,,FF,,,,,,,,1.158,,,,,,,,,,,,,,,,,,,,,,60ff50ac6339b1e4ce7b1909,61036c25ada89aa3a7128e4e,2021-07-30_05h04.26.292,Simcolourproject_2stim_asymm_v5,2020.2.10,Win32,60,61025ae37ef11b136ea224fe,,,,,,,,,3883,138,-87,1,0,0,response3disk,,5,8,-5,1,0,0,rectangle,8,-5,1,0,0,8,-5,1,0,0,1,55,215,9,1,,,,,,,,
,,,,,,,,,,,,,FF,,,,,,,,1.324,,,,,,,,,,,,,,,,,,,,,,60ff50ac6339b1e4ce7b1909,61036c25ada89aa3a7128e4e,2021-07-30_05h04.26.292,Simcolourproject_2stim_asymm_v5,2020.2.10,Win32,60,61025ae37ef11b136ea224fe,,,,,,,,,3962,114,-58,1,0,0,response3disk,,5,13,-19,1,0,0,rectangle,13,-19,1,0,0,13,-19,1,0,0,1,56,216,73,1,,,,,,,,
,,,,,,,,,,,,,FF,,,,,,,,2.435,,,,,,,,,,,,,,,,,,,,,,60ff50ac6339b1e4ce7b1909,61036c25ada89aa3a7128e4e,2021-07-30_05h04.26.292,Simcolourproject_2stim_asymm_v5,2020.2.10,Win32,60,61025ae37ef11b136ea224fe,,,,,,,,,417,106,-49,1,0,0,response3disk,,5,24,-12,1,0,0,rectangle,24,-12,1,0,0,24,-12,1,0,0,1,57,217,138,1,,,,,,,,
,,,,,,,,,,,,,FF,,,,,,,,2.441,,,,,,,,,,,,,,,,,,,,,,60ff50ac6339b1e4ce7b1909,61036c25ada89aa3a7128e4e,2021-07-30_05h04.26.292,Simcolourproject_2stim_asymm_v5,2020.2.10,Win32,60,61025ae37ef11b136ea224fe,,,,,,,,,2331,128,49,1,0,0,response1disk,,6,0,-12,1,0,0,rectangle,0,-12,1,0,0,0,-12,1,0,0,1,58,218,107,1,,,,,,,,
,,,,,,,,,,,,,FF,,,,,,,,1.509,,,,,,,,,,,,,,,,,,,,,,60ff50ac6339b1e4ce7b1909,61036c25ada89aa3a7128e4e,2021-07-30_05h04.26.292,Simcolourproject_2stim_asymm_v5,2020.2.10,Win32,60,61025ae37ef11b136ea224fe,,,,,,,,,3436,-126,-58,1,0,0,response5disk,,2,-7,-6,1,0,0,rectangle,-7,-6,1,0,0,-7,-6,1,0,0,1,59,219,8,1,,,,,,,,
,,,,,,,,,,,,,FF,,,,,,,,2.421,,,,,,,,,,,,,,,,,,,,,,60ff50ac6339b1e4ce7b1909,61036c25ada89aa3a7128e4e,2021-07-30_05h04.26.292,Simcolourproject_2stim_asymm_v5,2020.2.10,Win32,60,61025ae37ef11b136ea224fe,,,,,,,,,329,104,-79,1,0,0,response3disk,,5,23,-19,1,0,0,rectangle,23,-19,1,0,0,23,-19,1,0,0,1,60,220,5,1,,,,,,,,
,,,,,,,,,,,,,FF,,,,,,,,1.401,,,,,,,,,,,,,,,,,,,,,,60ff50ac6339b1e4ce7b1909,61036c25ada89aa3a7128e4e,2021-07-30_05h04.26.292,Simcolourproject_2stim_asymm_v5,2020.2.10,Win32,60,61025ae37ef11b136ea224fe,,,,,,,,,3292,34,-105,1,0,0,response3disk,,4,-10,-17,1,0,0,rectangle,136,44,1,0,0,-20,-6,1,0,0,1,61,221,30,1,,response1disk_3,TRUE,6,6,"[242,54,260,74,151,146,196,6,249,222,76,253,295,293,185,152,80,251,211,304]",2.274,rectangle
,,,,,,,,,,,,,FF,,,,,,,,2.191,,,,,,,,,,,,,,,,,,,,,,60ff50ac6339b1e4ce7b1909,61036c25ada89aa3a7128e4e,2021-07-30_05h04.26.292,Simcolourproject_2stim_asymm_v5,2020.2.10,Win32,60,61025ae37ef11b136ea224fe,,,,,,,,,299,123,42,1,0,0,response1disk,,6,-21,-7,1,0,0,rectangle,-21,-7,1,0,0,-21,-7,1,0,0,1,62,222,21,1,,,,,,,,
,,,,,,,,,,,,,FF,,,,,,,,2.187,,,,,,,,,,,,,,,,,,,,,,60ff50ac6339b1e4ce7b1909,61036c25ada89aa3a7128e4e,2021-07-30_05h04.26.292,Simcolourproject_2stim_asymm_v5,2020.2.10,Win32,60,61025ae37ef11b136ea224fe,,,,,,,,,520,-44,-103,1,0,0,response5disk,,3,-12,2,1,0,0,rectangle,-12,2,1,0,0,-12,2,1,0,0,1,63,223,18,1,,,,,,,,
,,,,,,,,,,,,,FF,,,,,,,,2.357,,,,,,,,,,,,,,,,,,,,,,60ff50ac6339b1e4ce7b1909,61036c25ada89aa3a7128e4e,2021-07-30_05h04.26.292,Simcolourproject_2stim_asymm_v5,2020.2.10,Win32,60,61025ae37ef11b136ea224fe,,,,,,,,,3118,104,-60,1,0,0,response3disk,,5,-36,6,1,0,0,rectangle,-36,6,1,0,0,-36,6,1,0,0,1,64,224,159,1,,,,,,,,
,,,,,,,,,,,,,FF,,,,,,,,0.985,,,,,,,,,,,,,,,,,,,,,,60ff50ac6339b1e4ce7b1909,61036c25ada89aa3a7128e4e,2021-07-30_05h04.26.292,Simcolourproject_2stim_asymm_v5,2020.2.10,Win32,60,61025ae37ef11b136ea224fe,,,,,,,,,241,48,-128,1,0,0,response3disk,,4,-16,-9,1,0,0,rectangle,-16,-9,1,0,0,-16,-9,1,0,0,1,65,225,110,1,,,,,,,,
,,,,,,,,,,,,,FF,,,,,,,,2.536,,,,,,,,,,,,,,,,,,,,,,60ff50ac6339b1e4ce7b1909,61036c25ada89aa3a7128e4e,2021-07-30_05h04.26.292,Simcolourproject_2stim_asymm_v5,2020.2.10,Win32,60,61025ae37ef11b136ea224fe,,,,,,,,,2391,137,-67,1,0,0,response3disk,,5,16,21,1,0,0,rectangle,16,21,1,0,0,16,21,1,0,0,1,66,226,92,1,,,,,,,,
,,,,,,,,,,,,,FF,,,,,,,,1.717,,,,,,,,,,,,,,,,,,,,,,60ff50ac6339b1e4ce7b1909,61036c25ada89aa3a7128e4e,2021-07-30_05h04.26.292,Simcolourproject_2stim_asymm_v5,2020.2.10,Win32,60,61025ae37ef11b136ea224fe,,,,,,,,,170,-96,36,1,0,0,response7disk,,1,7,7,1,0,0,rectangle,7,7,1,0,0,7,7,1,0,0,1,67,227,116,1,,,,,,,,
,,,,,,,,,,,,,FF,,,,,,,,2.841,,,,,,,,,,,,,,,,,,,,,,60ff50ac6339b1e4ce7b1909,61036c25ada89aa3a7128e4e,2021-07-30_05h04.26.292,Simcolourproject_2stim_asymm_v5,2020.2.10,Win32,60,61025ae37ef11b136ea224fe,,,,,,,,,4299,-66,-138,1,0,0,response5disk,,3,-13,16,1,0,0,rectangle,-13,16,1,0,0,-13,16,1,0,0,1,68,228,13,1,,,,,,,,
,,,,,,,,,,,,,FF,,,,,,,,0.885,,,,,,,,,,,,,,,,,,,,,,60ff50ac6339b1e4ce7b1909,61036c25ada89aa3a7128e4e,2021-07-30_05h04.26.292,Simcolourproject_2stim_asymm_v5,2020.2.10,Win32,60,61025ae37ef11b136ea224fe,,,,,,,,,3933,-57,-112,1,0,0,response5disk,,3,12,5,1,0,0,rectangle,12,5,1,0,0,12,5,1,0,0,1,69,229,31,1,,,,,,,,
,,,,,,,,,,,,,FF,,,,,,,,1.189,,,,,,,,,,,,,,,,,,,,,,60ff50ac6339b1e4ce7b1909,61036c25ada89aa3a7128e4e,2021-07-30_05h04.26.292,Simcolourproject_2stim_asymm_v5,2020.2.10,Win32,60,61025ae37ef11b136ea224fe,,,,,,,,,2507,107,46,1,0,0,response1disk,,6,-29,1,1,0,0,rectangle,-29,1,1,0,0,-29,1,1,0,0,1,70,230,143,1,,,,,,,,
,,,,,,,,,,,,,FF,,,,,,,,0.9,,,,,,,,,,,,,,,,,,,,,,60ff50ac6339b1e4ce7b1909,61036c25ada89aa3a7128e4e,2021-07-30_05h04.26.292,Simcolourproject_2stim_asymm_v5,2020.2.10,Win32,60,61025ae37ef11b136ea224fe,,,,,,,,,2789,-97,-30,1,0,0,response5disk,,2,-6,5,1,0,0,rectangle,-6,5,1,0,0,-6,5,1,0,0,1,71,231,113,1,,,,,,,,
,,,,,,,,,,,,,FF,,,,,,,,2.044,,,,,,,,,,,,,,,,,,,,,,60ff50ac6339b1e4ce7b1909,61036c25ada89aa3a7128e4e,2021-07-30_05h04.26.292,Simcolourproject_2stim_asymm_v5,2020.2.10,Win32,60,61025ae37ef11b136ea224fe,,,,,,,,,1798,81,-44,1,0,0,response3disk,,5,13,2,1,0,0,rectangle,13,2,1,0,0,13,2,1,0,0,1,72,232,123,1,,,,,,,,
,,,,,,,,,,,,,FF,,,,,,,,2.187,,,,,,,,,,,,,,,,,,,,,,60ff50ac6339b1e4ce7b1909,61036c25ada89aa3a7128e4e,2021-07-30_05h04.26.292,Simcolourproject_2stim_asymm_v5,2020.2.10,Win32,60,61025ae37ef11b136ea224fe,,,,,,,,,442,-115,55,1,0,0,response7disk,,1,-11,-4,1,0,0,rectangle,-11,-4,1,0,0,-11,-4,1,0,0,1,73,233,81,1,,,,,,,,
,,,,,,,,,,,,,FF,,,,,,,,1.937,,,,,,,,,,,,,,,,,,,,,,60ff50ac6339b1e4ce7b1909,61036c25ada89aa3a7128e4e,2021-07-30_05h04.26.292,Simcolourproject_2stim_asymm_v5,2020.2.10,Win32,60,61025ae37ef11b136ea224fe,,,,,,,,,1749,58,-97,1,0,0,response3disk,,4,-11,2,1,0,0,rectangle,-11,2,1,0,0,-11,2,1,0,0,1,74,234,72,1,,,,,,,,
,,,,,,,,,,,,,FF,,,,,,,,1.24,,,,,,,,,,,,,,,,,,,,,,60ff50ac6339b1e4ce7b1909,61036c25ada89aa3a7128e4e,2021-07-30_05h04.26.292,Simcolourproject_2stim_asymm_v5,2020.2.10,Win32,60,61025ae37ef11b136ea224fe,,,,,,,,,1474,66,-98,1,0,0,response3disk,,4,10,-8,1,0,0,rectangle,10,-8,1,0,0,10,-8,1,0,0,1,75,235,90,1,,,,,,,,
,,,,,,,,,,,,,FF,,,,,,,,1.354,,,,,,,,,,,,,,,,,,,,,,60ff50ac6339b1e4ce7b1909,61036c25ada89aa3a7128e4e,2021-07-30_05h04.26.292,Simcolourproject_2stim_asymm_v5,2020.2.10,Win32,60,61025ae37ef11b136ea224fe,,,,,,,,,802,-66,-98,1,0,0,response5disk,,3,-35,11,1,0,0,rectangle,-35,11,1,0,0,-35,11,1,0,0,1,76,236,70,1,,,,,,,,
,,,,,,,,,,,,,FF,,,,,,,,1.328,,,,,,,,,,,,,,,,,,,,,,60ff50ac6339b1e4ce7b1909,61036c25ada89aa3a7128e4e,2021-07-30_05h04.26.292,Simcolourproject_2stim_asymm_v5,2020.2.10,Win32,60,61025ae37ef11b136ea224fe,,,,,,,,,1094,119,46,1,0,0,response1disk,,6,-15,14,1,0,0,rectangle,-15,14,1,0,0,-15,14,1,0,0,1,77,237,141,1,,,,,,,,
,,,,,,,,,,,,,FF,,,,,,,,2.397,,,,,,,,,,,,,,,,,,,,,,60ff50ac6339b1e4ce7b1909,61036c25ada89aa3a7128e4e,2021-07-30_05h04.26.292,Simcolourproject_2stim_asymm_v5,2020.2.10,Win32,60,61025ae37ef11b136ea224fe,,,,,,,,,3407,-55,-104,1,0,0,response5disk,,3,-15,6,1,0,0,rectangle,-15,6,1,0,0,-15,6,1,0,0,1,78,238,128,1,,,,,,,,
,,,,,,,,,,,,,FF,,,,,,,,1.152,,,,,,,,,,,,,,,,,,,,,,60ff50ac6339b1e4ce7b1909,61036c25ada89aa3a7128e4e,2021-07-30_05h04.26.292,Simcolourproject_2stim_asymm_v5,2020.2.10,Win32,60,61025ae37ef11b136ea224fe,,,,,,,,,81,-100,-37,1,0,0,response5disk,,2,-9,-7,1,0,0,rectangle,-9,-7,1,0,0,-9,-7,1,0,0,1,79,239,20,1,,,,,,,,
,,,,,,,,,,,,,FF,,,,,,,,2.357,,,,,,,,,,,,,,,,,,,,,,60ff50ac6339b1e4ce7b1909,61036c25ada89aa3a7128e4e,2021-07-30_05h04.26.292,Simcolourproject_2stim_asymm_v5,2020.2.10,Win32,60,61025ae37ef11b136ea224fe,,,,,,,,,4044,-49,-118,1,0,0,response5disk,,3,-10,4,1,0,0,rectangle,-10,4,1,0,0,-10,4,1,0,0,1,80,240,105,1,,,,,,,,
,,,,,,,,,,,,,FF,,,,,,,,1.096,,,,,,,,,,,,,,,,,,,,,,60ff50ac6339b1e4ce7b1909,61036c25ada89aa3a7128e4e,2021-07-30_05h04.26.292,Simcolourproject_2stim_asymm_v5,2020.2.10,Win32,60,61025ae37ef11b136ea224fe,,,,,,,,,2153,74,-107,1,0,0,response3disk,,4,26,-2,1,0,0,rectangle,52,-109,1,0,0,0,-4,1,0,0,1,81,241,80,1,,response3disk_3,TRUE,4,4,"[242,54,260,74,151,146,196,6,249,222,76,253,295,293,185,152,80,251,211,304]",1.85,rectangle
,,,,,,,,,,,,,FF,,,,,,,,1.548,,,,,,,,,,,,,,,,,,,,,,60ff50ac6339b1e4ce7b1909,61036c25ada89aa3a7128e4e,2021-07-30_05h04.26.292,Simcolourproject_2stim_asymm_v5,2020.2.10,Win32,60,61025ae37ef11b136ea224fe,,,,,,,,,3484,-50,-103,1,0,0,response5disk,,3,-17,10,1,0,0,rectangle,-17,10,1,0,0,-17,10,1,0,0,1,82,242,135,1,,,,,,,,
,,,,,,,,,,,,,FF,,,,,,,,3.393,,,,,,,,,,,,,,,,,,,,,,60ff50ac6339b1e4ce7b1909,61036c25ada89aa3a7128e4e,2021-07-30_05h04.26.292,Simcolourproject_2stim_asymm_v5,2020.2.10,Win32,60,61025ae37ef11b136ea224fe,,,,,,,,,360,120,-81,1,0,0,response3disk,,5,7,-12,1,0,0,rectangle,7,-12,1,0,0,7,-12,1,0,0,1,83,243,125,1,,,,,,,,
,,,,,,,,,,,,,FF,,,,,,,,0.941,,,,,,,,,,,,,,,,,,,,,,60ff50ac6339b1e4ce7b1909,61036c25ada89aa3a7128e4e,2021-07-30_05h04.26.292,Simcolourproject_2stim_asymm_v5,2020.2.10,Win32,60,61025ae37ef11b136ea224fe,,,,,,,,,2253,100,-55,1,0,0,response3disk,,5,11,-18,1,0,0,rectangle,11,-18,1,0,0,11,-18,1,0,0,1,84,244,39,1,,,,,,,,
,,,,,,,,,,,,,FF,,,,,,,,1.497,,,,,,,,,,,,,,,,,,,,,,60ff50ac6339b1e4ce7b1909,61036c25ada89aa3a7128e4e,2021-07-30_05h04.26.292,Simcolourproject_2stim_asymm_v5,2020.2.10,Win32,60,61025ae37ef11b136ea224fe,,,,,,,,,2477,72,-111,1,0,0,response3disk,,4,13,-1,1,0,0,rectangle,13,-1,1,0,0,13,-1,1,0,0,1,85,245,96,1,,,,,,,,
,,,,,,,,,,,,,FF,,,,,,,,2.371,,,,,,,,,,,,,,,,,,,,,,60ff50ac6339b1e4ce7b1909,61036c25ada89aa3a7128e4e,2021-07-30_05h04.26.292,Simcolourproject_2stim_asymm_v5,2020.2.10,Win32,60,61025ae37ef11b136ea224fe,,,,,,,,,1912,105,-60,1,0,0,response3disk,,5,-29,-6,1,0,0,rectangle,-29,-6,1,0,0,-29,-6,1,0,0,1,86,246,120,1,,,,,,,,
,,,,,,,,,,,,,FF,,,,,,,,1.94,,,,,,,,,,,,,,,,,,,,,,60ff50ac6339b1e4ce7b1909,61036c25ada89aa3a7128e4e,2021-07-30_05h04.26.292,Simcolourproject_2stim_asymm_v5,2020.2.10,Win32,60,61025ae37ef11b136ea224fe,,,,,,,,,3549,-43,-116,1,0,0,response5disk,,3,-26,-2,1,0,0,rectangle,-26,-2,1,0,0,-26,-2,1,0,0,1,87,247,112,1,,,,,,,,
,,,,,,,,,,,,,FF,,,,,,,,1.439,,,,,,,,,,,,,,,,,,,,,,60ff50ac6339b1e4ce7b1909,61036c25ada89aa3a7128e4e,2021-07-30_05h04.26.292,Simcolourproject_2stim_asymm_v5,2020.2.10,Win32,60,61025ae37ef11b136ea224fe,,,,,,,,,749,114,-49,1,0,0,response3disk,,5,36,16,1,0,0,rectangle,-101,-48,1,0,0,8,2,1,0,0,1,88,248,60,1,,response5disk_3,TRUE,2,2,"[242,54,260,74,151,146,196,6,249,222,76,253,295,293,185,152,80,251,211,304]",1.675,rectangle
,,,,,,,,,,,,,FF,,,,,,,,1.382,,,,,,,,,,,,,,,,,,,,,,60ff50ac6339b1e4ce7b1909,61036c25ada89aa3a7128e4e,2021-07-30_05h04.26.292,Simcolourproject_2stim_asymm_v5,2020.2.10,Win32,60,61025ae37ef11b136ea224fe,,,,,,,,,3716,-47,-84,1,0,0,response5disk,,3,-28,9,1,0,0,rectangle,-28,9,1,0,0,-28,9,1,0,0,1,89,249,3,1,,,,,,,,
,,,,,,,,,,,,,FF,,,,,,,,1.159,,,,,,,,,,,,,,,,,,,,,,60ff50ac6339b1e4ce7b1909,61036c25ada89aa3a7128e4e,2021-07-30_05h04.26.292,Simcolourproject_2stim_asymm_v5,2020.2.10,Win32,60,61025ae37ef11b136ea224fe,,,,,,,,,1613,42,-80,1,0,0,response3disk,,4,-15,2,1,0,0,rectangle,21,114,1,0,0,-2,1,1,0,0,1,90,250,16,1,,response1disk_3,TRUE,7,7,"[242,54,260,74,151,146,196,6,249,222,76,253,295,293,185,152,80,251,211,304]",1.5,rectangle
,,,,,,,,,,,,,FF,,,,,,,,1.889,,,,,,,,,,,,,,,,,,,,,,60ff50ac6339b1e4ce7b1909,61036c25ada89aa3a7128e4e,2021-07-30_05h04.26.292,Simcolourproject_2stim_asymm_v5,2020.2.10,Win32,60,61025ae37ef11b136ea224fe,,,,,,,,,437,-88,40,1,0,0,response7disk,,1,34,-13,1,0,0,rectangle,34,-13,1,0,0,34,-13,1,0,0,1,91,251,118,1,,,,,,,,
,,,,,,,,,,,,,FF,,,,,,,,0.696,,,,,,,,,,,,,,,,,,,,,,60ff50ac6339b1e4ce7b1909,61036c25ada89aa3a7128e4e,2021-07-30_05h04.26.292,Simcolourproject_2stim_asymm_v5,2020.2.10,Win32,60,61025ae37ef11b136ea224fe,,,,,,,,,2944,-97,36,1,0,0,response7disk,,1,-2,-2,1,0,0,rectangle,137,59,1,0,0,-6,7,1,0,0,1,92,252,117,1,,response1disk_3,TRUE,6,6,"[242,54,260,74,151,146,196,6,249,222,76,253,295,293,185,152,80,251,211,304]",2.471,rectangle
,,,,,,,,,,,,,FF,,,,,,,,1.475,,,,,,,,,,,,,,,,,,,,,,60ff50ac6339b1e4ce7b1909,61036c25ada89aa3a7128e4e,2021-07-30_05h04.26.292,Simcolourproject_2stim_asymm_v5,2020.2.10,Win32,60,61025ae37ef11b136ea224fe,,,,,,,,,3056,-103,-39,1,0,0,response5disk,,2,17,3,1,0,0,rectangle,17,3,1,0,0,17,3,1,0,0,1,93,253,76,1,,,,,,,,
,,,,,,,,,,,,,FF,,,,,,,,1.174,,,,,,,,,,,,,,,,,,,,,,60ff50ac6339b1e4ce7b1909,61036c25ada89aa3a7128e4e,2021-07-30_05h04.26.292,Simcolourproject_2stim_asymm_v5,2020.2.10,Win32,60,61025ae37ef11b136ea224fe,,,,,,,,,2857,125,-76,1,0,0,response3disk,,5,-3,-8,1,0,0,rectangle,-3,-8,1,0,0,-3,-8,1,0,0,1,94,254,22,1,,,,,,,,
,,,,,,,,,,,,,FF,,,,,,,,0.938,,,,,,,,,,,,,,,,,,,,,,60ff50ac6339b1e4ce7b1909,61036c25ada89aa3a7128e4e,2021-07-30_05h04.26.292,Simcolourproject_2stim_asymm_v5,2020.2.10,Win32,60,61025ae37ef11b136ea224fe,,,,,,,,,3433,-92,51,1,0,0,response7disk,,1,-1,2,1,0,0,rectangle,-1,2,1,0,0,-1,2,1,0,0,1,95,255,69,1,,,,,,,,
,,,,,,,,,,,,,FF,,,,,,,,4.521,,,,,,,,,,,,,,,,,,,,,,60ff50ac6339b1e4ce7b1909,61036c25ada89aa3a7128e4e,2021-07-30_05h04.26.292,Simcolourproject_2stim_asymm_v5,2020.2.10,Win32,60,61025ae37ef11b136ea224fe,,,,,,,,,1885,40,-100,1,0,0,response3disk,,4,-22,-5,1,0,0,rectangle,-22,-5,1,0,0,-22,-5,1,0,0,1,96,256,61,1,,,,,,,,
,,,,,,,,,,,,,FF,,,,,,,,1.016,,,,,,,,,,,,,,,,,,,,,,60ff50ac6339b1e4ce7b1909,61036c25ada89aa3a7128e4e,2021-07-30_05h04.26.292,Simcolourproject_2stim_asymm_v5,2020.2.10,Win32,60,61025ae37ef11b136ea224fe,,,,,,,,,1508,122,72,1,0,0,response1disk,,6,14,14,1,0,0,rectangle,14,14,1,0,0,14,14,1,0,0,1,97,257,155,1,,,,,,,,
,,,,,,,,,,,,,FF,,,,,,,,2.175,,,,,,,,,,,,,,,,,,,,,,60ff50ac6339b1e4ce7b1909,61036c25ada89aa3a7128e4e,2021-07-30_05h04.26.292,Simcolourproject_2stim_asymm_v5,2020.2.10,Win32,60,61025ae37ef11b136ea224fe,,,,,,,,,2891,-116,-51,1,0,0,response5disk,,2,-13,-6,1,0,0,rectangle,-13,-6,1,0,0,-13,-6,1,0,0,1,98,258,66,1,,,,,,,,
,,,,,,,,,,,,,FF,,,,,,,,1.497,,,,,,,,,,,,,,,,,,,,,,60ff50ac6339b1e4ce7b1909,61036c25ada89aa3a7128e4e,2021-07-30_05h04.26.292,Simcolourproject_2stim_asymm_v5,2020.2.10,Win32,60,61025ae37ef11b136ea224fe,,,,,,,,,4193,66,-137,1,0,0,response3disk,,4,-23,0,1,0,0,rectangle,66,-130,1,0,0,-1,-5,1,0,0,1,99,259,29,1,,response3disk_3,TRUE,4,4,"[242,54,260,74,151,146,196,6,249,222,76,253,295,293,185,152,80,251,211,304]",2.083,rectangle
,,,,,,,,,,,,,FF,,,,,,,,1.706,,,,,,,,,,,,,,,,,,,,,,60ff50ac6339b1e4ce7b1909,61036c25ada89aa3a7128e4e,2021-07-30_05h04.26.292,Simcolourproject_2stim_asymm_v5,2020.2.10,Win32,60,61025ae37ef11b136ea224fe,,,,,,,,,1955,129,-67,1,0,0,response3disk,,5,-8,-2,1,0,0,rectangle,-8,-2,1,0,0,-8,-2,1,0,0,1,100,260,115,1,,,,,,,,
,,,,,,,,,,,,,FF,,,,,,,,1.703,,,,,,,,,,,,,,,,,,,,,,60ff50ac6339b1e4ce7b1909,61036c25ada89aa3a7128e4e,2021-07-30_05h04.26.292,Simcolourproject_2stim_asymm_v5,2020.2.10,Win32,60,61025ae37ef11b136ea224fe,,,,,,,,,1655,116,33,1,0,0,response1disk,,6,10,-3,1,0,0,rectangle,10,-3,1,0,0,10,-3,1,0,0,1,101,261,51,1,,,,,,,,
,,,,,,,,,,,,,FF,,,,,,,,1.713,,,,,,,,,,,,,,,,,,,,,,60ff50ac6339b1e4ce7b1909,61036c25ada89aa3a7128e4e,2021-07-30_05h04.26.292,Simcolourproject_2stim_asymm_v5,2020.2.10,Win32,60,61025ae37ef11b136ea224fe,,,,,,,,,2704,63,-133,1,0,0,response3disk,,4,-32,11,1,0,0,rectangle,-32,11,1,0,0,-32,11,1,0,0,1,102,262,108,1,,,,,,,,
,,,,,,,,,,,,,FF,,,,,,,,1.115,,,,,,,,,,,,,,,,,,,,,,60ff50ac6339b1e4ce7b1909,61036c25ada89aa3a7128e4e,2021-07-30_05h04.26.292,Simcolourproject_2stim_asymm_v5,2020.2.10,Win32,60,61025ae37ef11b136ea224fe,,,,,,,,,2615,-45,-91,1,0,0,response5disk,,3,-17,-4,1,0,0,rectangle,-17,-4,1,0,0,-17,-4,1,0,0,1,103,263,137,1,,,,,,,,
,,,,,,,,,,,,,FF,,,,,,,,0.859,,,,,,,,,,,,,,,,,,,,,,60ff50ac6339b1e4ce7b1909,61036c25ada89aa3a7128e4e,2021-07-30_05h04.26.292,Simcolourproject_2stim_asymm_v5,2020.2.10,Win32,60,61025ae37ef11b136ea224fe,,,,,,,,,2031,-78,-33,1,0,0,response5disk,,2,-8,-10,1,0,0,rectangle,-8,-10,1,0,0,-8,-10,1,0,0,1,104,264,94,1,,,,,,,,
,,,,,,,,,,,,,FF,,,,,,,,1.824,,,,,,,,,,,,,,,,,,,,,,60ff50ac6339b1e4ce7b1909,61036c25ada89aa3a7128e4e,2021-07-30_05h04.26.292,Simcolourproject_2stim_asymm_v5,2020.2.10,Win32,60,61025ae37ef11b136ea224fe,,,,,,,,,2335,121,50,1,0,0,response1disk,,6,12,7,1,0,0,rectangle,12,7,1,0,0,12,7,1,0,0,1,105,265,1,1,,,,,,,,
,,,,,,,,,,,,,FF,,,,,,,,1.089,,,,,,,,,,,,,,,,,,,,,,60ff50ac6339b1e4ce7b1909,61036c25ada89aa3a7128e4e,2021-07-30_05h04.26.292,Simcolourproject_2stim_asymm_v5,2020.2.10,Win32,60,61025ae37ef11b136ea224fe,,,,,,,,,3143,-41,-98,1,0,0,response5disk,,3,-28,-3,1,0,0,rectangle,-28,-3,1,0,0,-28,-3,1,0,0,1,106,266,34,1,,,,,,,,
,,,,,,,,,,,,,FF,,,,,,,,2.322,,,,,,,,,,,,,,,,,,,,,,60ff50ac6339b1e4ce7b1909,61036c25ada89aa3a7128e4e,2021-07-30_05h04.26.292,Simcolourproject_2stim_asymm_v5,2020.2.10,Win32,60,61025ae37ef11b136ea224fe,,,,,,,,,361,104,-81,1,0,0,response3disk,,5,10,-10,1,0,0,rectangle,10,-10,1,0,0,10,-10,1,0,0,1,107,267,71,1,,,,,,,,
,,,,,,,,,,,,,FF,,,,,,,,0.952,,,,,,,,,,,,,,,,,,,,,,60ff50ac6339b1e4ce7b1909,61036c25ada89aa3a7128e4e,2021-07-30_05h04.26.292,Simcolourproject_2stim_asymm_v5,2020.2.10,Win32,60,61025ae37ef11b136ea224fe,,,,,,,,,610,-40,-109,1,0,0,response5disk,,3,-7,-2,1,0,0,rectangle,-7,-2,1,0,0,-7,-2,1,0,0,1,108,268,91,1,,,,,,,,
,,,,,,,,,,,,,FF,,,,,,,,1.958,,,,,,,,,,,,,,,,,,,,,,60ff50ac6339b1e4ce7b1909,61036c25ada89aa3a7128e4e,2021-07-30_05h04.26.292,Simcolourproject_2stim_asymm_v5,2020.2.10,Win32,60,61025ae37ef11b136ea224fe,,,,,,,,,1371,-87,-68,1,0,0,response5disk,,2,38,3,1,0,0,rectangle,38,3,1,0,0,38,3,1,0,0,1,109,269,68,1,,,,,,,,
,,,,,,,,,,,,,FF,,,,,,,,0.721,,,,,,,,,,,,,,,,,,,,,,60ff50ac6339b1e4ce7b1909,61036c25ada89aa3a7128e4e,2021-07-30_05h04.26.292,Simcolourproject_2stim_asymm_v5,2020.2.10,Win32,60,61025ae37ef11b136ea224fe,,,,,,,,,444,-85,42,1,0,0,response7disk,,1,10,-4,1,0,0,rectangle,10,-4,1,0,0,10,-4,1,0,0,1,110,270,101,1,,,,,,,,
,,,,,,,,,,,,,FF,,,,,,,,2.34,,,,,,,,,,,,,,,,,,,,,,60ff50ac6339b1e4ce7b1909,61036c25ada89aa3a7128e4e,2021-07-30_05h04.26.292,Simcolourproject_2stim_asymm_v5,2020.2.10,Win32,60,61025ae37ef11b136ea224fe,,,,,,,,,1069,-38,-143,1,0,0,response5disk,,3,-11,0,1,0,0,rectangle,-11,0,1,0,0,-11,0,1,0,0,1,111,271,58,1,,,,,,,,
,,,,,,,,,,,,,FF,,,,,,,,1.041,,,,,,,,,,,,,,,,,,,,,,60ff50ac6339b1e4ce7b1909,61036c25ada89aa3a7128e4e,2021-07-30_05h04.26.292,Simcolourproject_2stim_asymm_v5,2020.2.10,Win32,60,61025ae37ef11b136ea224fe,,,,,,,,,1435,-37,-100,1,0,0,response5disk,,3,-4,7,1,0,0,rectangle,-4,7,1,0,0,-4,7,1,0,0,1,112,272,36,1,,,,,,,,
,,,,,,,,,,,,,FF,,,,,,,,1.153,,,,,,,,,,,,,,,,,,,,,,60ff50ac6339b1e4ce7b1909,61036c25ada89aa3a7128e4e,2021-07-30_05h04.26.292,Simcolourproject_2stim_asymm_v5,2020.2.10,Win32,60,61025ae37ef11b136ea224fe,,,,,,,,,3919,-39,-136,1,0,0,response5disk,,3,-21,1,1,0,0,rectangle,-21,1,1,0,0,-21,1,1,0,0,1,113,273,44,1,,,,,,,,
,,,,,,,,,,,,,FF,,,,,,,,0.729,,,,,,,,,,,,,,,,,,,,,,60ff50ac6339b1e4ce7b1909,61036c25ada89aa3a7128e4e,2021-07-30_05h04.26.292,Simcolourproject_2stim_asymm_v5,2020.2.10,Win32,60,61025ae37ef11b136ea224fe,,,,,,,,,3238,-38,-109,1,0,0,response5disk,,3,-5,3,1,0,0,rectangle,-5,3,1,0,0,-5,3,1,0,0,1,114,274,82,1,,,,,,,,
,,,,,,,,,,,,,FF,,,,,,,,1.036,,,,,,,,,,,,,,,,,,,,,,60ff50ac6339b1e4ce7b1909,61036c25ada89aa3a7128e4e,2021-07-30_05h04.26.292,Simcolourproject_2stim_asymm_v5,2020.2.10,Win32,60,61025ae37ef11b136ea224fe,,,,,,,,,3438,-90,-48,1,0,0,response5disk,,2,-12,-2,1,0,0,rectangle,-12,-2,1,0,0,-12,-2,1,0,0,1,115,275,48,1,,,,,,,,
,,,,,,,,,,,,,FF,,,,,,,,0.945,,,,,,,,,,,,,,,,,,,,,,60ff50ac6339b1e4ce7b1909,61036c25ada89aa3a7128e4e,2021-07-30_05h04.26.292,Simcolourproject_2stim_asymm_v5,2020.2.10,Win32,60,61025ae37ef11b136ea224fe,,,,,,,,,3286,-110,-43,1,0,0,response5disk,,2,-17,-2,1,0,0,rectangle,-17,-2,1,0,0,-17,-2,1,0,0,1,116,276,78,1,,,,,,,,
,,,,,,,,,,,,,FF,,,,,,,,2.137,,,,,,,,,,,,,,,,,,,,,,60ff50ac6339b1e4ce7b1909,61036c25ada89aa3a7128e4e,2021-07-30_05h04.26.292,Simcolourproject_2stim_asymm_v5,2020.2.10,Win32,60,61025ae37ef11b136ea224fe,,,,,,,,,431,-48,-101,1,0,0,response5disk,,3,-23,-4,1,0,0,rectangle,-23,-4,1,0,0,-23,-4,1,0,0,1,117,277,83,1,,,,,,,,
,,,,,,,,,,,,,FF,,,,,,,,2.342,,,,,,,,,,,,,,,,,,,,,,60ff50ac6339b1e4ce7b1909,61036c25ada89aa3a7128e4e,2021-07-30_05h04.26.292,Simcolourproject_2stim_asymm_v5,2020.2.10,Win32,60,61025ae37ef11b136ea224fe,,,,,,,,,1042,-31,-94,1,0,0,response5disk,,3,14,2,1,0,0,rectangle,14,2,1,0,0,14,2,1,0,0,1,118,278,45,1,,,,,,,,
,,,,,,,,,,,,,FF,,,,,,,,1.982,,,,,,,,,,,,,,,,,,,,,,60ff50ac6339b1e4ce7b1909,61036c25ada89aa3a7128e4e,2021-07-30_05h04.26.292,Simcolourproject_2stim_asymm_v5,2020.2.10,Win32,60,61025ae37ef11b136ea224fe,,,,,,,,,2038,-111,-41,1,0,0,response5disk,,2,-2,-2,1,0,0,rectangle,-2,-2,1,0,0,-2,-2,1,0,0,1,119,279,32,1,,,,,,,,
,,,,,,,,,,,,,FF,,,,,,,,1.071,,,,,,,,,,,,,,,,,,,,,,60ff50ac6339b1e4ce7b1909,61036c25ada89aa3a7128e4e,2021-07-30_05h04.26.292,Simcolourproject_2stim_asymm_v5,2020.2.10,Win32,60,61025ae37ef11b136ea224fe,,,,,,,,,3048,-109,-53,1,0,0,response5disk,,2,-4,0,1,0,0,rectangle,-4,0,1,0,0,-4,0,1,0,0,1,120,280,10,1,,,,,,,,
,,,,,,,,,,,,,FF,,,,,,,,3.223,,,,,,,,,,,,,,,,,,,,,,60ff50ac6339b1e4ce7b1909,61036c25ada89aa3a7128e4e,2021-07-30_05h04.26.292,Simcolourproject_2stim_asymm_v5,2020.2.10,Win32,60,61025ae37ef11b136ea224fe,,,,,,,,,2114,57,-111,1,0,0,response3disk,,4,-16,-3,1,0,0,rectangle,-16,-3,1,0,0,-16,-3,1,0,0,1,121,281,109,1,,,,,,,,
,,,,,,,,,,,,,FF,,,,,,,,0.842,,,,,,,,,,,,,,,,,,,,,,60ff50ac6339b1e4ce7b1909,61036c25ada89aa3a7128e4e,2021-07-30_05h04.26.292,Simcolourproject_2stim_asymm_v5,2020.2.10,Win32,60,61025ae37ef11b136ea224fe,,,,,,,,,2710,-41,-101,1,0,0,response5disk,,3,-24,16,1,0,0,rectangle,-24,16,1,0,0,-24,16,1,0,0,1,122,282,129,1,,,,,,,,
,,,,,,,,,,,,,FF,,,,,,,,0.613,,,,,,,,,,,,,,,,,,,,,,60ff50ac6339b1e4ce7b1909,61036c25ada89aa3a7128e4e,2021-07-30_05h04.26.292,Simcolourproject_2stim_asymm_v5,2020.2.10,Win32,60,61025ae37ef11b136ea224fe,,,,,,,,,3434,-40,-97,1,0,0,response5disk,,3,6,-3,1,0,0,rectangle,6,-3,1,0,0,6,-3,1,0,0,1,123,283,124,1,,,,,,,,
,,,,,,,,,,,,,FF,,,,,,,,2.68,,,,,,,,,,,,,,,,,,,,,,60ff50ac6339b1e4ce7b1909,61036c25ada89aa3a7128e4e,2021-07-30_05h04.26.292,Simcolourproject_2stim_asymm_v5,2020.2.10,Win32,60,61025ae37ef11b136ea224fe,,,,,,,,,4338,-105,-45,1,0,0,response5disk,,2,15,-1,1,0,0,rectangle,15,-1,1,0,0,15,-1,1,0,0,1,124,284,74,1,,,,,,,,
,,,,,,,,,,,,,FF,,,,,,,,3.171,,,,,,,,,,,,,,,,,,,,,,60ff50ac6339b1e4ce7b1909,61036c25ada89aa3a7128e4e,2021-07-30_05h04.26.292,Simcolourproject_2stim_asymm_v5,2020.2.10,Win32,60,61025ae37ef11b136ea224fe,,,,,,,,,3690,45,-91,1,0,0,response3disk,,4,-1,-15,1,0,0,rectangle,-1,-15,1,0,0,-1,-15,1,0,0,1,125,285,26,1,,,,,,,,
,,,,,,,,,,,,,FF,,,,,,,,1.705,,,,,,,,,,,,,,,,,,,,,,60ff50ac6339b1e4ce7b1909,61036c25ada89aa3a7128e4e,2021-07-30_05h04.26.292,Simcolourproject_2stim_asymm_v5,2020.2.10,Win32,60,61025ae37ef11b136ea224fe,,,,,,,,,3302,119,-52,1,0,0,response3disk,,5,-11,10,1,0,0,rectangle,-11,10,1,0,0,-11,10,1,0,0,1,126,286,87,1,,,,,,,,
,,,,,,,,,,,,,FF,,,,,,,,1.748,,,,,,,,,,,,,,,,,,,,,,60ff50ac6339b1e4ce7b1909,61036c25ada89aa3a7128e4e,2021-07-30_05h04.26.292,Simcolourproject_2stim_asymm_v5,2020.2.10,Win32,60,61025ae37ef11b136ea224fe,,,,,,,,,512,135,-52,1,0,0,response3disk,,5,4,-7,1,0,0,rectangle,4,-7,1,0,0,4,-7,1,0,0,1,127,287,42,1,,,,,,,,
,,,,,,,,,,,,,FF,,,,,,,,1.319,,,,,,,,,,,,,,,,,,,,,,60ff50ac6339b1e4ce7b1909,61036c25ada89aa3a7128e4e,2021-07-30_05h04.26.292,Simcolourproject_2stim_asymm_v5,2020.2.10,Win32,60,61025ae37ef11b136ea224fe,,,,,,,,,3887,41,-120,1,0,0,response3disk,,4,-17,1,1,0,0,rectangle,-17,1,1,0,0,-17,1,1,0,0,1,128,288,38,1,,,,,,,,
,,,,,,,,,,,,,FF,,,,,,,,1.571,,,,,,,,,,,,,,,,,,,,,,60ff50ac6339b1e4ce7b1909,61036c25ada89aa3a7128e4e,2021-07-30_05h04.26.292,Simcolourproject_2stim_asymm_v5,2020.2.10,Win32,60,61025ae37ef11b136ea224fe,,,,,,,,,369,48,-114,1,0,0,response3disk,,4,-38,-2,1,0,0,rectangle,-38,-2,1,0,0,-38,-2,1,0,0,1,129,289,28,1,,,,,,,,
,,,,,,,,,,,,,FF,,,,,,,,0.94,,,,,,,,,,,,,,,,,,,,,,60ff50ac6339b1e4ce7b1909,61036c25ada89aa3a7128e4e,2021-07-30_05h04.26.292,Simcolourproject_2stim_asymm_v5,2020.2.10,Win32,60,61025ae37ef11b136ea224fe,,,,,,,,,3027,129,65,1,0,0,response1disk,,6,11,1,1,0,0,rectangle,11,1,1,0,0,11,1,1,0,0,1,130,290,40,1,,,,,,,,
,,,,,,,,,,,,,FF,,,,,,,,1.445,,,,,,,,,,,,,,,,,,,,,,60ff50ac6339b1e4ce7b1909,61036c25ada89aa3a7128e4e,2021-07-30_05h04.26.292,Simcolourproject_2stim_asymm_v5,2020.2.10,Win32,60,61025ae37ef11b136ea224fe,,,,,,,,,3471,-81,-57,1,0,0,response5disk,,2,9,-11,1,0,0,rectangle,9,-11,1,0,0,9,-11,1,0,0,1,131,291,111,1,,,,,,,,
,,,,,,,,,,,,,FF,,,,,,,,1.917,,,,,,,,,,,,,,,,,,,,,,60ff50ac6339b1e4ce7b1909,61036c25ada89aa3a7128e4e,2021-07-30_05h04.26.292,Simcolourproject_2stim_asymm_v5,2020.2.10,Win32,60,61025ae37ef11b136ea224fe,,,,,,,,,1629,115,54,1,0,0,response1disk,,6,8,3,1,0,0,rectangle,-49,124,1,0,0,-8,2,1,0,0,1,132,292,19,1,,response7disk_3,TRUE,0,0,"[242,54,260,74,151,146,196,6,249,222,76,253,295,293,185,152,80,251,211,304]",1.584,rectangle
,,,,,,,,,,,,,FF,,,,,,,,2.407,,,,,,,,,,,,,,,,,,,,,,60ff50ac6339b1e4ce7b1909,61036c25ada89aa3a7128e4e,2021-07-30_05h04.26.292,Simcolourproject_2stim_asymm_v5,2020.2.10,Win32,60,61025ae37ef11b136ea224fe,,,,,,,,,2069,115,-48,1,0,0,response3disk,,5,-11,-18,1,0,0,rectangle,-11,-18,1,0,0,-11,-18,1,0,0,1,133,293,140,1,,,,,,,,
,,,,,,,,,,,,,FF,,,,,,,,1.644,,,,,,,,,,,,,,,,,,,,,,60ff50ac6339b1e4ce7b1909,61036c25ada89aa3a7128e4e,2021-07-30_05h04.26.292,Simcolourproject_2stim_asymm_v5,2020.2.10,Win32,60,61025ae37ef11b136ea224fe,,,,,,,,,2090,-48,-132,1,0,0,response5disk,,3,-24,-1,1,0,0,rectangle,57,-127,1,0,0,0,-7,1,0,0,1,134,294,84,1,,response3disk_3,TRUE,4,4,"[242,54,260,74,151,146,196,6,249,222,76,253,295,293,185,152,80,251,211,304]",1.936,rectangle
,,,,,,,,,,,,,FF,,,,,,,,2.644,,,,,,,,,,,,,,,,,,,,,,60ff50ac6339b1e4ce7b1909,61036c25ada89aa3a7128e4e,2021-07-30_05h04.26.292,Simcolourproject_2stim_asymm_v5,2020.2.10,Win32,60,61025ae37ef11b136ea224fe,,,,,,,,,3321,131,-47,1,0,0,response3disk,,5,18,9,1,0,0,rectangle,18,9,1,0,0,18,9,1,0,0,1,135,295,150,1,,,,,,,,
,,,,,,,,,,,,,FF,,,,,,,,4.509,,,,,,,,,,,,,,,,,,,,,,60ff50ac6339b1e4ce7b1909,61036c25ada89aa3a7128e4e,2021-07-30_05h04.26.292,Simcolourproject_2stim_asymm_v5,2020.2.10,Win32,60,61025ae37ef11b136ea224fe,,,,,,,,,3134,156,25,1,0,0,response1disk,,6,-4,4,1,0,0,rectangle,-4,4,1,0,0,-4,4,1,0,0,1,136,296,46,1,,,,,,,,
,,,,,,,,,,,,,FF,,,,,,,,1.079,,,,,,,,,,,,,,,,,,,,,,60ff50ac6339b1e4ce7b1909,61036c25ada89aa3a7128e4e,2021-07-30_05h04.26.292,Simcolourproject_2stim_asymm_v5,2020.2.10,Win32,60,61025ae37ef11b136ea224fe,,,,,,,,,3437,-50,-118,1,0,0,response5disk,,3,-26,21,1,0,0,rectangle,-26,21,1,0,0,-26,21,1,0,0,1,137,297,4,1,,,,,,,,
,,,,,,,,,,,,,FF,,,,,,,,2.125,,,,,,,,,,,,,,,,,,,,,,60ff50ac6339b1e4ce7b1909,61036c25ada89aa3a7128e4e,2021-07-30_05h04.26.292,Simcolourproject_2stim_asymm_v5,2020.2.10,Win32,60,61025ae37ef11b136ea224fe,,,,,,,,,763,117,-43,1,0,0,response3disk,,5,-10,6,1,0,0,rectangle,-10,6,1,0,0,-10,6,1,0,0,1,138,298,93,1,,,,,,,,
,,,,,,,,,,,,,FF,,,,,,,,1.485,,,,,,,,,,,,,,,,,,,,,,60ff50ac6339b1e4ce7b1909,61036c25ada89aa3a7128e4e,2021-07-30_05h04.26.292,Simcolourproject_2stim_asymm_v5,2020.2.10,Win32,60,61025ae37ef11b136ea224fe,,,,,,,,,3154,-102,-76,1,0,0,response5disk,,2,-10,2,1,0,0,rectangle,-10,2,1,0,0,-10,2,1,0,0,1,139,299,97,1,,,,,,,,
,,,,,,,,,,,,,FF,,,,,,,,2.426,,,,,,,,,,,,,,,,,,,,,,60ff50ac6339b1e4ce7b1909,61036c25ada89aa3a7128e4e,2021-07-30_05h04.26.292,Simcolourproject_2stim_asymm_v5,2020.2.10,Win32,60,61025ae37ef11b136ea224fe,,,,,,,,,48,113,83,1,0,0,response1disk,,6,-23,13,1,0,0,rectangle,-23,13,1,0,0,-23,13,1,0,0,1,140,300,47,1,,,,,,,,
