key_resp.keys,key_resp.rt,key_resp_14.keys,key_resp_14.rt,key_resp_15.keys,key_resp_15.rt,key_resp_17.keys,key_resp_17.rt,key_resp_9.keys,key_resp_9.rt,key_resp_10.keys,key_resp_10.rt,practice_comparison,Ecc,mouse_5.x,mouse_5.y,mouse_5.leftButton,mouse_5.midButton,mouse_5.rightButton,mouse_5.clicked_name,pracsimilarity,response_time,mouse_10.x,mouse_10.y,mouse_10.leftButton,mouse_10.midButton,mouse_10.rightButton,mouse_10.clicked_name,mouse_7.x,mouse_7.y,mouse_7.leftButton,mouse_7.midButton,mouse_7.rightButton,mouse_6.x,mouse_6.y,mouse_6.leftButton,mouse_6.midButton,mouse_6.rightButton,duringprac.thisRepN,duringprac.thisTrialN,duringprac.thisN,duringprac.thisIndex,duringprac.ran,participant,session,date,expName,psychopyVersion,OS,frameRate,study_id,mouse_7.clicked_name,catchpracsimilarity,catch_response_time,catchnumberprac,catchtrialorderprac,mouse_6.clicked_name,key_resp_22.keys,key_resp_22.rt,realcomparison,mouse.x,mouse.y,mouse.leftButton,mouse.midButton,mouse.rightButton,mouse.clicked_name,Colour2,similarity,mouse_2.x,mouse_2.y,mouse_2.leftButton,mouse_2.midButton,mouse_2.rightButton,mouse_2.clicked_name,mouse_3.x,mouse_3.y,mouse_3.leftButton,mouse_3.midButton,mouse_3.rightButton,mouse_11.x,mouse_11.y,mouse_11.leftButton,mouse_11.midButton,mouse_11.rightButton,trials_2.thisRepN,trials_2.thisTrialN,trials_2.thisN,trials_2.thisIndex,trials_2.ran,Colour1,mouse_3.clicked_name,catchornah,catchsimilarity,catchnumber,catchtrialorder,catchRT,mouse_11.clicked_name
space,1.4664,space,7.2432,space,27.9516,space,6.1794,space,5.7233,space,3.173,99,PF,-37.99998206,-60.00001252,1,0,0,response5disk_5,3,5.2806,8.666685998,-0.666677415,1,0,0,rectangle_8,8.666685998,-0.666677415,1,0,0,8.666685998,-0.666677415,1,0,0,0,0,0,2,1,60ff1726b3096f1b1b4efb22,61036a68cd475cdc97453bd5,2021-07-29_21h57.48.600,Simcolourproject_2stim_asymm_v5,2020.2.10,Win32,60,61025ae37ef11b136ea224fe,,,,,,,,,,,,,,,,,,,,,,,,,,,,,,,,,,,,,,,,,,,,,,
,,,,,,,,,,,,100,FF,64.00002098,56.66665763,1,0,0,response1disk_5,6,5.2454,2.66668582,-3.333344162,1,0,0,rectangle_8,-63.99998283,46.66665733,1,0,0,-6.666607102,-1.07288E-05,1,0,0,0,1,1,0,1,60ff1726b3096f1b1b4efb22,61036a68cd475cdc97453bd5,2021-07-29_21h57.48.600,Simcolourproject_2stim_asymm_v5,2020.2.10,Win32,60,61025ae37ef11b136ea224fe,response7disk_7,1,3.3826,1,"[2,5]",rectangle_4,,,,,,,,,,,,,,,,,,,,,,,,,,,,,,,,,,,,,,,,
,,,,,,,,,,,,142,PF,66.66668773,90.66665864,1,0,0,response1disk_5,7,1.7491,-0.666606923,1.999989331,1,0,0,rectangle_8,-0.666606923,1.999989331,1,0,0,-0.666606923,1.999989331,1,0,0,0,2,2,4,1,60ff1726b3096f1b1b4efb22,61036a68cd475cdc97453bd5,2021-07-29_21h57.48.600,Simcolourproject_2stim_asymm_v5,2020.2.10,Win32,60,61025ae37ef11b136ea224fe,,,,,,,,,,,,,,,,,,,,,,,,,,,,,,,,,,,,,,,,,,,,,,
,,,,,,,,,,,,131,FF,-39.99998212,-60.00001252,1,0,0,response5disk_5,3,4.3305,20.00001967,5.99998945,1,0,0,rectangle_8,20.00001967,5.99998945,1,0,0,20.00001967,5.99998945,1,0,0,0,3,3,5,1,60ff1726b3096f1b1b4efb22,61036a68cd475cdc97453bd5,2021-07-29_21h57.48.600,Simcolourproject_2stim_asymm_v5,2020.2.10,Win32,60,61025ae37ef11b136ea224fe,,,,,,,,,,,,,,,,,,,,,,,,,,,,,,,,,,,,,,,,,,,,,,
,,,,,,,,,,,,147,PF,76.00002134,32.66665691,1,0,0,response1disk_5,6,2.4153,-5.999981105,1.333322644,1,0,0,rectangle_8,-54.66660853,39.33330343,1,0,0,-5.999981105,-2.666677475,1,0,0,0,4,4,6,1,60ff1726b3096f1b1b4efb22,61036a68cd475cdc97453bd5,2021-07-29_21h57.48.600,Simcolourproject_2stim_asymm_v5,2020.2.10,Win32,60,61025ae37ef11b136ea224fe,response7disk_7,1,2.1165,1,"[2,5]",rectangle_4,,,,,,,,,,,,,,,,,,,,,,,,,,,,,,,,,,,,,,,,
,,,,,,,,,,,,52,PF,71.33335453,-45.33334541,1,0,0,response3disk_5,5,4.1463,10.00001937,-3.333344162,1,0,0,rectangle_8,10.00001937,-3.333344162,1,0,0,10.00001937,-3.333344162,1,0,0,0,5,5,1,1,60ff1726b3096f1b1b4efb22,61036a68cd475cdc97453bd5,2021-07-29_21h57.48.600,Simcolourproject_2stim_asymm_v5,2020.2.10,Win32,60,61025ae37ef11b136ea224fe,,,,,,,,,,,,,,,,,,,,,,,,,,,,,,,,,,,,,,,,,,,,,,
,,,,,,,,,,,,113,FF,68.66668779,-30.66667831,1,0,0,response3disk_5,5,6.078,8.000019312,10.66665626,1,0,0,rectangle_8,8.000019312,10.66665626,1,0,0,8.000019312,10.66665626,1,0,0,0,6,6,3,1,60ff1726b3096f1b1b4efb22,61036a68cd475cdc97453bd5,2021-07-29_21h57.48.600,Simcolourproject_2stim_asymm_v5,2020.2.10,Win32,60,61025ae37ef11b136ea224fe,,,,,,,,,,,,,,,,,,,,,,,,,,,,,,,,,,,,,,,,,,,,,,
,,,,,,,,,,,,,FF,,,,,,,,2.1339,,,,,,,,,,,,,,,,,,,,,,60ff1726b3096f1b1b4efb22,61036a68cd475cdc97453bd5,2021-07-29_21h57.48.600,Simcolourproject_2stim_asymm_v5,2020.2.10,Win32,60,61025ae37ef11b136ea224fe,,,,,,,space,3.2048,398,90.00002176,-28.66667825,1,0,0,response3disk,,5,6.666685939,4.666656077,1,0,0,rectangle,6.666685939,4.666656077,1,0,0,6.666685939,4.666656077,1,0,0,0,0,0,27,1,,,,,,,,
,,,,,,,,,,,,,FF,,,,,,,,2.4868,,,,,,,,,,,,,,,,,,,,,,60ff1726b3096f1b1b4efb22,61036a68cd475cdc97453bd5,2021-07-29_21h57.48.600,Simcolourproject_2stim_asymm_v5,2020.2.10,Win32,60,61025ae37ef11b136ea224fe,,,,,,,,,2708,60.00002086,-43.33334535,1,0,0,response3disk,,5,2.000019133,6.666656137,1,0,0,rectangle,2.000019133,6.666656137,1,0,0,2.000019133,6.666656137,1,0,0,0,1,1,123,1,,,,,,,,
,,,,,,,,,,,,,FF,,,,,,,,2.8491,,,,,,,,,,,,,,,,,,,,,,60ff1726b3096f1b1b4efb22,61036a68cd475cdc97453bd5,2021-07-29_21h57.48.600,Simcolourproject_2stim_asymm_v5,2020.2.10,Win32,60,61025ae37ef11b136ea224fe,,,,,,,,,2176,-31.99998188,-72.00001287,1,0,0,response5disk,,3,8.000019312,0.666655958,1,0,0,rectangle,-74.66660913,-76.00001299,1,0,0,-7.333314478,3.333322704,1,0,0,0,2,2,57,1,,response5disk_3,TRUE,3,3,"[252,233,185,144,70,86,254,3,317,96,257,225,128,134,312,321,211,95,187,170]",2.6154,rectangle
,,,,,,,,,,,,,FF,,,,,,,,1.7649,,,,,,,,,,,,,,,,,,,,,,60ff1726b3096f1b1b4efb22,61036a68cd475cdc97453bd5,2021-07-29_21h57.48.600,Simcolourproject_2stim_asymm_v5,2020.2.10,Win32,60,61025ae37ef11b136ea224fe,,,,,,,,,1967,38.66668689,-70.00001281,1,0,0,response3disk,,4,5.333393256,3.333322704,1,0,0,rectangle,5.333393256,3.333322704,1,0,0,5.333393256,3.333322704,1,0,0,0,3,3,69,1,,,,,,,,
,,,,,,,,,,,,,FF,,,,,,,,1.6152,,,,,,,,,,,,,,,,,,,,,,60ff1726b3096f1b1b4efb22,61036a68cd475cdc97453bd5,2021-07-29_21h57.48.600,Simcolourproject_2stim_asymm_v5,2020.2.10,Win32,60,61025ae37ef11b136ea224fe,,,,,,,,,3389,-65.99998289,-26.0000115,1,0,0,response5disk,,2,16.00001955,7.99998951,1,0,0,rectangle,16.00001955,7.99998951,1,0,0,16.00001955,7.99998951,1,0,0,0,4,4,64,1,,,,,,,,
,,,,,,,,,,,,,FF,,,,,,,,1.1992,,,,,,,,,,,,,,,,,,,,,,60ff1726b3096f1b1b4efb22,61036a68cd475cdc97453bd5,2021-07-29_21h57.48.600,Simcolourproject_2stim_asymm_v5,2020.2.10,Win32,60,61025ae37ef11b136ea224fe,,,,,,,,,552,24.00001979,-50.66667891,1,0,0,response3disk,,4,0.66668576,-5.333344221,1,0,0,rectangle,0.66668576,-5.333344221,1,0,0,0.66668576,-5.333344221,1,0,0,0,5,5,146,1,,,,,,,,
,,,,,,,,,,,,,FF,,,,,,,,1.9322,,,,,,,,,,,,,,,,,,,,,,60ff1726b3096f1b1b4efb22,61036a68cd475cdc97453bd5,2021-07-29_21h57.48.600,Simcolourproject_2stim_asymm_v5,2020.2.10,Win32,60,61025ae37ef11b136ea224fe,,,,,,,,,4271,40.66668695,76.66665822,1,0,0,response1disk,,7,8.666685998,4.666656077,1,0,0,rectangle,8.666685998,4.666656077,1,0,0,8.666685998,4.666656077,1,0,0,0,6,6,67,1,,,,,,,,
,,,,,,,,,,,,,FF,,,,,,,,1.6827,,,,,,,,,,,,,,,,,,,,,,60ff1726b3096f1b1b4efb22,61036a68cd475cdc97453bd5,2021-07-29_21h57.48.600,Simcolourproject_2stim_asymm_v5,2020.2.10,Win32,60,61025ae37ef11b136ea224fe,,,,,,,,,2951,38.00002021,-91.33334678,1,0,0,response3disk,,4,14.66668618,-11.3333444,1,0,0,rectangle,14.66668618,-11.3333444,1,0,0,14.66668618,-11.3333444,1,0,0,0,7,7,114,1,,,,,,,,
,,,,,,,,,,,,,FF,,,,,,,,1.482,,,,,,,,,,,,,,,,,,,,,,60ff1726b3096f1b1b4efb22,61036a68cd475cdc97453bd5,2021-07-29_21h57.48.600,Simcolourproject_2stim_asymm_v5,2020.2.10,Win32,60,61025ae37ef11b136ea224fe,,,,,,,,,1178,84.00002158,40.66665715,1,0,0,response1disk,,6,10.66668606,7.99998951,1,0,0,rectangle,10.66668606,7.99998951,1,0,0,10.66668606,7.99998951,1,0,0,0,8,8,149,1,,,,,,,,
,,,,,,,,,,,,,FF,,,,,,,,2.0322,,,,,,,,,,,,,,,,,,,,,,60ff1726b3096f1b1b4efb22,61036a68cd475cdc97453bd5,2021-07-29_21h57.48.600,Simcolourproject_2stim_asymm_v5,2020.2.10,Win32,60,61025ae37ef11b136ea224fe,,,,,,,,,4252,-75.99998319,-23.33334476,1,0,0,response5disk,,2,10.00001937,-0.666677415,1,0,0,rectangle,10.00001937,-0.666677415,1,0,0,10.00001937,-0.666677415,1,0,0,0,9,9,94,1,,,,,,,,
,,,,,,,,,,,,,FF,,,,,,,,1.3822,,,,,,,,,,,,,,,,,,,,,,60ff1726b3096f1b1b4efb22,61036a68cd475cdc97453bd5,2021-07-29_21h57.48.600,Simcolourproject_2stim_asymm_v5,2020.2.10,Win32,60,61025ae37ef11b136ea224fe,,,,,,,,,750,39.33339427,-78.66667974,1,0,0,response3disk,,4,-6.666607102,7.99998951,1,0,0,rectangle,-6.666607102,7.99998951,1,0,0,-6.666607102,7.99998951,1,0,0,0,10,10,23,1,,,,,,,,
,,,,,,,,,,,,,FF,,,,,,,,3.2132,,,,,,,,,,,,,,,,,,,,,,60ff1726b3096f1b1b4efb22,61036a68cd475cdc97453bd5,2021-07-29_21h57.48.600,Simcolourproject_2stim_asymm_v5,2020.2.10,Win32,60,61025ae37ef11b136ea224fe,,,,,,,,,2152,18.00001961,-41.33334529,1,0,0,response3disk,,4,4.000019193,2.666656017,1,0,0,rectangle,4.000019193,2.666656017,1,0,0,4.000019193,2.666656017,1,0,0,0,11,11,2,1,,,,,,,,
,,,,,,,,,,,,,FF,,,,,,,,1.6644,,,,,,,,,,,,,,,,,,,,,,60ff1726b3096f1b1b4efb22,61036a68cd475cdc97453bd5,2021-07-29_21h57.48.600,Simcolourproject_2stim_asymm_v5,2020.2.10,Win32,60,61025ae37ef11b136ea224fe,,,,,,,,,617,29.33339397,-44.00001204,1,0,0,response3disk,,4,2.000019133,-2.000010788,1,0,0,rectangle,2.000019133,-2.000010788,1,0,0,2.000019133,-2.000010788,1,0,0,0,12,12,48,1,,,,,,,,
,,,,,,,,,,,,,FF,,,,,,,,2.8474,,,,,,,,,,,,,,,,,,,,,,60ff1726b3096f1b1b4efb22,61036a68cd475cdc97453bd5,2021-07-29_21h57.48.600,Simcolourproject_2stim_asymm_v5,2020.2.10,Win32,60,61025ae37ef11b136ea224fe,,,,,,,,,3904,92.6666885,43.33330355,1,0,0,response1disk,,6,13.33339349,5.99998945,1,0,0,rectangle,13.33339349,5.99998945,1,0,0,13.33339349,5.99998945,1,0,0,0,13,13,36,1,,,,,,,,
,,,,,,,,,,,,,FF,,,,,,,,1.448,,,,,,,,,,,,,,,,,,,,,,60ff1726b3096f1b1b4efb22,61036a68cd475cdc97453bd5,2021-07-29_21h57.48.600,Simcolourproject_2stim_asymm_v5,2020.2.10,Win32,60,61025ae37ef11b136ea224fe,,,,,,,,,1101,68.66668779,41.99999052,1,0,0,response1disk,,6,-0.666606923,-3.333344162,1,0,0,rectangle,-0.666606923,-3.333344162,1,0,0,-0.666606923,-3.333344162,1,0,0,0,14,14,159,1,,,,,,,,
,,,,,,,,,,,,,FF,,,,,,,,1.6476,,,,,,,,,,,,,,,,,,,,,,60ff1726b3096f1b1b4efb22,61036a68cd475cdc97453bd5,2021-07-29_21h57.48.600,Simcolourproject_2stim_asymm_v5,2020.2.10,Win32,60,61025ae37ef11b136ea224fe,,,,,,,,,3353,72.00002122,42.66665721,1,0,0,response1disk,,6,1.9735E-05,-1.07288E-05,1,0,0,rectangle,1.9735E-05,-1.07288E-05,1,0,0,1.9735E-05,-1.07288E-05,1,0,0,0,15,15,10,1,,,,,,,,
,,,,,,,,,,,,,FF,,,,,,,,2.2486,,,,,,,,,,,,,,,,,,,,,,60ff1726b3096f1b1b4efb22,61036a68cd475cdc97453bd5,2021-07-29_21h57.48.600,Simcolourproject_2stim_asymm_v5,2020.2.10,Win32,60,61025ae37ef11b136ea224fe,,,,,,,,,2997,-35.33331531,-44.66667873,1,0,0,response5disk,,3,14.00001949,13.333323,1,0,0,rectangle,14.00001949,13.333323,1,0,0,14.00001949,13.333323,1,0,0,0,16,16,100,1,,,,,,,,
,,,,,,,,,,,,,FF,,,,,,,,1.2654,,,,,,,,,,,,,,,,,,,,,,60ff1726b3096f1b1b4efb22,61036a68cd475cdc97453bd5,2021-07-29_21h57.48.600,Simcolourproject_2stim_asymm_v5,2020.2.10,Win32,60,61025ae37ef11b136ea224fe,,,,,,,,,377,26.00001985,-52.66667897,1,0,0,response3disk,,4,21.33339373,-10.00001103,1,0,0,rectangle,21.33339373,-10.00001103,1,0,0,21.33339373,-10.00001103,1,0,0,0,17,17,108,1,,,,,,,,
,,,,,,,,,,,,,FF,,,,,,,,1.4492,,,,,,,,,,,,,,,,,,,,,,60ff1726b3096f1b1b4efb22,61036a68cd475cdc97453bd5,2021-07-29_21h57.48.600,Simcolourproject_2stim_asymm_v5,2020.2.10,Win32,60,61025ae37ef11b136ea224fe,,,,,,,,,2515,28.00001991,45.99999064,1,0,0,response1disk,,7,1.333393137,-2.000010788,1,0,0,rectangle,1.333393137,-2.000010788,1,0,0,1.333393137,-2.000010788,1,0,0,0,18,18,98,1,,,,,,,,
,,,,,,,,,,,,,FF,,,,,,,,1.2659,,,,,,,,,,,,,,,,,,,,,,60ff1726b3096f1b1b4efb22,61036a68cd475cdc97453bd5,2021-07-29_21h57.48.600,Simcolourproject_2stim_asymm_v5,2020.2.10,Win32,60,61025ae37ef11b136ea224fe,,,,,,,,,943,26.66668653,47.33330367,1,0,0,response1disk,,7,-1.3333143,-0.666677415,1,0,0,rectangle,-1.3333143,-0.666677415,1,0,0,-1.3333143,-0.666677415,1,0,0,0,19,19,78,1,,,,,,,,
,,,,,,,,,,,,,FF,,,,,,,,1.7159,,,,,,,,,,,,,,,,,,,,,,60ff1726b3096f1b1b4efb22,61036a68cd475cdc97453bd5,2021-07-29_21h57.48.600,Simcolourproject_2stim_asymm_v5,2020.2.10,Win32,60,61025ae37ef11b136ea224fe,,,,,,,,,3091,22.66668642,-52.66667897,1,0,0,response3disk,,4,5.333393256,-2.666677475,1,0,0,rectangle,5.333393256,-2.666677475,1,0,0,5.333393256,-2.666677475,1,0,0,0,20,20,13,1,,,,,,,,
,,,,,,,,,,,,,FF,,,,,,,,1.8635,,,,,,,,,,,,,,,,,,,,,,60ff1726b3096f1b1b4efb22,61036a68cd475cdc97453bd5,2021-07-29_21h57.48.600,Simcolourproject_2stim_asymm_v5,2020.2.10,Win32,60,61025ae37ef11b136ea224fe,,,,,,,,,739,42.00002033,-29.33334494,1,0,0,response3disk,,5,3.333393196,9.999989569,1,0,0,rectangle,3.333393196,9.999989569,1,0,0,3.333393196,9.999989569,1,0,0,0,21,21,65,1,,,,,,,,
,,,,,,,,,,,,,FF,,,,,,,,1.4989,,,,,,,,,,,,,,,,,,,,,,60ff1726b3096f1b1b4efb22,61036a68cd475cdc97453bd5,2021-07-29_21h57.48.600,Simcolourproject_2stim_asymm_v5,2020.2.10,Win32,60,61025ae37ef11b136ea224fe,,,,,,,,,1307,-51.99998248,-30.00001162,1,0,0,response5disk,,2,-9.333314538,0.666655958,1,0,0,rectangle,-9.333314538,0.666655958,1,0,0,-9.333314538,0.666655958,1,0,0,0,22,22,63,1,,,,,,,,
,,,,,,,,,,,,,FF,,,,,,,,2.1491,,,,,,,,,,,,,,,,,,,,,,60ff1726b3096f1b1b4efb22,61036a68cd475cdc97453bd5,2021-07-29_21h57.48.600,Simcolourproject_2stim_asymm_v5,2020.2.10,Win32,60,61025ae37ef11b136ea224fe,,,,,,,,,3796,87.33335501,38.66665709,1,0,0,response1disk,,6,-5.999981105,8.666656196,1,0,0,rectangle,-5.999981105,8.666656196,1,0,0,-5.999981105,8.666656196,1,0,0,0,23,23,113,1,,,,,,,,
,,,,,,,,,,,,,FF,,,,,,,,14.3379,,,,,,,,,,,,,,,,,,,,,,60ff1726b3096f1b1b4efb22,61036a68cd475cdc97453bd5,2021-07-29_21h57.48.600,Simcolourproject_2stim_asymm_v5,2020.2.10,Win32,60,61025ae37ef11b136ea224fe,,,,,,,,,1858,64.66668767,26.66665673,1,0,0,response1disk,,6,-8.666607161,1.999989331,1,0,0,rectangle,-8.666607161,1.999989331,1,0,0,-8.666607161,1.999989331,1,0,0,0,24,24,127,1,,,,,,,,
,,,,,,,,,,,,,FF,,,,,,,,1.0973,,,,,,,,,,,,,,,,,,,,,,60ff1726b3096f1b1b4efb22,61036a68cd475cdc97453bd5,2021-07-29_21h57.48.600,Simcolourproject_2stim_asymm_v5,2020.2.10,Win32,60,61025ae37ef11b136ea224fe,,,,,,,,,987,16.66668624,-41.33334529,1,0,0,response3disk,,4,-7.333314478,4.666656077,1,0,0,rectangle,-7.333314478,4.666656077,1,0,0,-7.333314478,4.666656077,1,0,0,0,25,25,138,1,,,,,,,,
,,,,,,,,,,,,,FF,,,,,,,,1.5506,,,,,,,,,,,,,,,,,,,,,,60ff1726b3096f1b1b4efb22,61036a68cd475cdc97453bd5,2021-07-29_21h57.48.600,Simcolourproject_2stim_asymm_v5,2020.2.10,Win32,60,61025ae37ef11b136ea224fe,,,,,,,,,1070,27.33339391,-46.66667879,1,0,0,response3disk,,4,14.00001949,-3.333344162,1,0,0,rectangle,14.00001949,-3.333344162,1,0,0,14.00001949,-3.333344162,1,0,0,0,26,26,101,1,,,,,,,,
,,,,,,,,,,,,,FF,,,,,,,,1.1497,,,,,,,,,,,,,,,,,,,,,,60ff1726b3096f1b1b4efb22,61036a68cd475cdc97453bd5,2021-07-29_21h57.48.600,Simcolourproject_2stim_asymm_v5,2020.2.10,Win32,60,61025ae37ef11b136ea224fe,,,,,,,,,470,52.66668731,-25.33334482,1,0,0,response3disk,,5,14.00001949,3.333322704,1,0,0,rectangle,14.00001949,3.333322704,1,0,0,14.00001949,3.333322704,1,0,0,0,27,27,61,1,,,,,,,,
,,,,,,,,,,,,,FF,,,,,,,,1.5714,,,,,,,,,,,,,,,,,,,,,,60ff1726b3096f1b1b4efb22,61036a68cd475cdc97453bd5,2021-07-29_21h57.48.600,Simcolourproject_2stim_asymm_v5,2020.2.10,Win32,60,61025ae37ef11b136ea224fe,,,,,,,,,1072,17.33339361,-39.33334523,1,0,0,response3disk,,4,-0.666606923,2.666656017,1,0,0,rectangle,-0.666606923,2.666656017,1,0,0,-0.666606923,2.666656017,1,0,0,0,28,28,37,1,,,,,,,,
,,,,,,,,,,,,,FF,,,,,,,,1.1498,,,,,,,,,,,,,,,,,,,,,,60ff1726b3096f1b1b4efb22,61036a68cd475cdc97453bd5,2021-07-29_21h57.48.600,Simcolourproject_2stim_asymm_v5,2020.2.10,Win32,60,61025ae37ef11b136ea224fe,,,,,,,,,1168,40.66668695,61.99999112,1,0,0,response1disk,,7,8.666685998,11.33332294,1,0,0,rectangle,8.666685998,11.33332294,1,0,0,8.666685998,11.33332294,1,0,0,0,29,29,83,1,,,,,,,,
,,,,,,,,,,,,,FF,,,,,,,,1.2154,,,,,,,,,,,,,,,,,,,,,,60ff1726b3096f1b1b4efb22,61036a68cd475cdc97453bd5,2021-07-29_21h57.48.600,Simcolourproject_2stim_asymm_v5,2020.2.10,Win32,60,61025ae37ef11b136ea224fe,,,,,,,,,877,43.3333537,18.66665649,1,0,0,response1disk,,6,6.666685939,-4.000010848,1,0,0,rectangle,6.666685939,-4.000010848,1,0,0,6.666685939,-4.000010848,1,0,0,0,30,30,3,1,,,,,,,,
,,,,,,,,,,,,,FF,,,,,,,,1.6155,,,,,,,,,,,,,,,,,,,,,,60ff1726b3096f1b1b4efb22,61036a68cd475cdc97453bd5,2021-07-29_21h57.48.600,Simcolourproject_2stim_asymm_v5,2020.2.10,Win32,60,61025ae37ef11b136ea224fe,,,,,,,,,390,43.3333537,-21.3333447,1,0,0,response3disk,,5,9.333393375,0.666655958,1,0,0,rectangle,9.333393375,0.666655958,1,0,0,9.333393375,0.666655958,1,0,0,0,31,31,38,1,,,,,,,,
,,,,,,,,,,,,,FF,,,,,,,,2.6315,,,,,,,,,,,,,,,,,,,,,,60ff1726b3096f1b1b4efb22,61036a68cd475cdc97453bd5,2021-07-29_21h57.48.600,Simcolourproject_2stim_asymm_v5,2020.2.10,Win32,60,61025ae37ef11b136ea224fe,,,,,,,,,3730,57.33335412,25.33330301,1,0,0,response1disk,,6,14.00001949,4.666656077,1,0,0,rectangle,14.00001949,4.666656077,1,0,0,14.00001949,4.666656077,1,0,0,0,32,32,143,1,,,,,,,,
,,,,,,,,,,,,,FF,,,,,,,,1.25,,,,,,,,,,,,,,,,,,,,,,60ff1726b3096f1b1b4efb22,61036a68cd475cdc97453bd5,2021-07-29_21h57.48.600,Simcolourproject_2stim_asymm_v5,2020.2.10,Win32,60,61025ae37ef11b136ea224fe,,,,,,,,,3448,37.33339421,92.6666587,1,0,0,response1disk,,7,-2.666606983,8.666656196,1,0,0,rectangle,-2.666606983,8.666656196,1,0,0,-2.666606983,8.666656196,1,0,0,0,33,33,103,1,,,,,,,,
,,,,,,,,,,,,,FF,,,,,,,,1.7496,,,,,,,,,,,,,,,,,,,,,,60ff1726b3096f1b1b4efb22,61036a68cd475cdc97453bd5,2021-07-29_21h57.48.600,Simcolourproject_2stim_asymm_v5,2020.2.10,Win32,60,61025ae37ef11b136ea224fe,,,,,,,,,4263,24.66668648,-41.33334529,1,0,0,response3disk,,4,8.000019312,11.33332294,1,0,0,rectangle,8.000019312,11.33332294,1,0,0,8.000019312,11.33332294,1,0,0,0,34,34,116,1,,,,,,,,
,,,,,,,,,,,,,FF,,,,,,,,1.766,,,,,,,,,,,,,,,,,,,,,,60ff1726b3096f1b1b4efb22,61036a68cd475cdc97453bd5,2021-07-29_21h57.48.600,Simcolourproject_2stim_asymm_v5,2020.2.10,Win32,60,61025ae37ef11b136ea224fe,,,,,,,,,577,39.33339427,-16.00001121,1,0,0,response3disk,,5,18.00001961,-5.333344221,1,0,0,rectangle,18.00001961,-5.333344221,1,0,0,18.00001961,-5.333344221,1,0,0,0,35,35,44,1,,,,,,,,
,,,,,,,,,,,,,FF,,,,,,,,2.3644,,,,,,,,,,,,,,,,,,,,,,60ff1726b3096f1b1b4efb22,61036a68cd475cdc97453bd5,2021-07-29_21h57.48.600,Simcolourproject_2stim_asymm_v5,2020.2.10,Win32,60,61025ae37ef11b136ea224fe,,,,,,,,,2679,30.00001997,-48.00001216,1,0,0,response3disk,,4,9.333393375,-6.000010908,1,0,0,rectangle,9.333393375,-6.000010908,1,0,0,9.333393375,-6.000010908,1,0,0,0,36,36,93,1,,,,,,,,
,,,,,,,,,,,,,FF,,,,,,,,1.1653,,,,,,,,,,,,,,,,,,,,,,60ff1726b3096f1b1b4efb22,61036a68cd475cdc97453bd5,2021-07-29_21h57.48.600,Simcolourproject_2stim_asymm_v5,2020.2.10,Win32,60,61025ae37ef11b136ea224fe,,,,,,,,,2801,43.3333537,-20.66667801,1,0,0,response3disk,,5,16.66668624,-2.000010788,1,0,0,rectangle,16.66668624,-2.000010788,1,0,0,16.66668624,-2.000010788,1,0,0,0,37,37,122,1,,,,,,,,
,,,,,,,,,,,,,FF,,,,,,,,1.632,,,,,,,,,,,,,,,,,,,,,,60ff1726b3096f1b1b4efb22,61036a68cd475cdc97453bd5,2021-07-29_21h57.48.600,Simcolourproject_2stim_asymm_v5,2020.2.10,Win32,60,61025ae37ef11b136ea224fe,,,,,,,,,2487,23.33339379,-42.00001198,1,0,0,response3disk,,4,1.333393137,-4.000010848,1,0,0,rectangle,1.333393137,-4.000010848,1,0,0,1.333393137,-4.000010848,1,0,0,0,38,38,11,1,,,,,,,,
,,,,,,,,,,,,,FF,,,,,,,,1.7487,,,,,,,,,,,,,,,,,,,,,,60ff1726b3096f1b1b4efb22,61036a68cd475cdc97453bd5,2021-07-29_21h57.48.600,Simcolourproject_2stim_asymm_v5,2020.2.10,Win32,60,61025ae37ef11b136ea224fe,,,,,,,,,846,24.66668648,57.999991,1,0,0,response1disk,,7,1.333393137,5.99998945,1,0,0,rectangle,1.333393137,5.99998945,1,0,0,1.333393137,5.99998945,1,0,0,0,39,39,34,1,,,,,,,,
,,,,,,,,,,,,,FF,,,,,,,,1.2158,,,,,,,,,,,,,,,,,,,,,,60ff1726b3096f1b1b4efb22,61036a68cd475cdc97453bd5,2021-07-29_21h57.48.600,Simcolourproject_2stim_asymm_v5,2020.2.10,Win32,60,61025ae37ef11b136ea224fe,,,,,,,,,234,50.66668725,26.66665673,1,0,0,response1disk,,6,14.66668618,3.99998939,1,0,0,rectangle,14.66668618,3.99998939,1,0,0,14.66668618,3.99998939,1,0,0,0,40,40,129,1,,,,,,,,
,,,,,,,,,,,,,FF,,,,,,,,1.2659,,,,,,,,,,,,,,,,,,,,,,60ff1726b3096f1b1b4efb22,61036a68cd475cdc97453bd5,2021-07-29_21h57.48.600,Simcolourproject_2stim_asymm_v5,2020.2.10,Win32,60,61025ae37ef11b136ea224fe,,,,,,,,,4036,-25.33331501,-39.33334523,1,0,0,response5disk,,3,-9.999981225,-6.000010908,1,0,0,rectangle,-9.999981225,-6.000010908,1,0,0,-9.999981225,-6.000010908,1,0,0,0,41,41,128,1,,,,,,,,
,,,,,,,,,,,,,FF,,,,,,,,2.0483,,,,,,,,,,,,,,,,,,,,,,60ff1726b3096f1b1b4efb22,61036a68cd475cdc97453bd5,2021-07-29_21h57.48.600,Simcolourproject_2stim_asymm_v5,2020.2.10,Win32,60,61025ae37ef11b136ea224fe,,,,,,,,,2435,36.00002015,-27.33334488,1,0,0,response3disk,,5,10.00001937,12.66665632,1,0,0,rectangle,10.00001937,12.66665632,1,0,0,10.00001937,12.66665632,1,0,0,0,42,42,82,1,,,,,,,,
,,,,,,,,,,,,,FF,,,,,,,,1.0159,,,,,,,,,,,,,,,,,,,,,,60ff1726b3096f1b1b4efb22,61036a68cd475cdc97453bd5,2021-07-29_21h57.48.600,Simcolourproject_2stim_asymm_v5,2020.2.10,Win32,60,61025ae37ef11b136ea224fe,,,,,,,,,2859,30.00001997,49.99999076,1,0,0,response1disk,,7,4.000019193,-1.07288E-05,1,0,0,rectangle,4.000019193,-1.07288E-05,1,0,0,4.000019193,-1.07288E-05,1,0,0,0,43,43,118,1,,,,,,,,
,,,,,,,,,,,,,FF,,,,,,,,5.0957,,,,,,,,,,,,,,,,,,,,,,60ff1726b3096f1b1b4efb22,61036a68cd475cdc97453bd5,2021-07-29_21h57.48.600,Simcolourproject_2stim_asymm_v5,2020.2.10,Win32,60,61025ae37ef11b136ea224fe,,,,,,,,,975,-73.99998313,-33.33334506,1,0,0,response5disk,,2,-11.3333146,5.99998945,1,0,0,rectangle,-11.3333146,5.99998945,1,0,0,-11.3333146,5.99998945,1,0,0,0,44,44,49,1,,,,,,,,
,,,,,,,,,,,,,FF,,,,,,,,1.3987,,,,,,,,,,,,,,,,,,,,,,60ff1726b3096f1b1b4efb22,61036a68cd475cdc97453bd5,2021-07-29_21h57.48.600,Simcolourproject_2stim_asymm_v5,2020.2.10,Win32,60,61025ae37ef11b136ea224fe,,,,,,,,,1979,40.66668695,-19.33334464,1,0,0,response3disk,,5,14.00001949,-4.000010848,1,0,0,rectangle,14.00001949,-4.000010848,1,0,0,14.00001949,-4.000010848,1,0,0,0,45,45,148,1,,,,,,,,
,,,,,,,,,,,,,FF,,,,,,,,1.2997,,,,,,,,,,,,,,,,,,,,,,60ff1726b3096f1b1b4efb22,61036a68cd475cdc97453bd5,2021-07-29_21h57.48.600,Simcolourproject_2stim_asymm_v5,2020.2.10,Win32,60,61025ae37ef11b136ea224fe,,,,,,,,,787,22.66668642,33.33330325,1,0,0,response1disk,,7,8.666685998,11.99998963,1,0,0,rectangle,8.666685998,11.99998963,1,0,0,8.666685998,11.99998963,1,0,0,0,46,46,97,1,,,,,,,,
,,,,,,,,,,,,,FF,,,,,,,,1.4657,,,,,,,,,,,,,,,,,,,,,,60ff1726b3096f1b1b4efb22,61036a68cd475cdc97453bd5,2021-07-29_21h57.48.600,Simcolourproject_2stim_asymm_v5,2020.2.10,Win32,60,61025ae37ef11b136ea224fe,,,,,,,,,3006,-38.66660806,-39.33334523,1,0,0,response5disk,,3,-2.666606983,11.99998963,1,0,0,rectangle,-2.666606983,11.99998963,1,0,0,-2.666606983,11.99998963,1,0,0,0,47,47,68,1,,,,,,,,
,,,,,,,,,,,,,FF,,,,,,,,2.881,,,,,,,,,,,,,,,,,,,,,,60ff1726b3096f1b1b4efb22,61036a68cd475cdc97453bd5,2021-07-29_21h57.48.600,Simcolourproject_2stim_asymm_v5,2020.2.10,Win32,60,61025ae37ef11b136ea224fe,,,,,,,,,3628,19.33339367,-32.00001168,1,0,0,response3disk,,4,-1.3333143,5.333322763,1,0,0,rectangle,-1.3333143,5.333322763,1,0,0,-1.3333143,5.333322763,1,0,0,0,48,48,43,1,,,,,,,,
,,,,,,,,,,,,,FF,,,,,,,,1.3823,,,,,,,,,,,,,,,,,,,,,,60ff1726b3096f1b1b4efb22,61036a68cd475cdc97453bd5,2021-07-29_21h57.48.600,Simcolourproject_2stim_asymm_v5,2020.2.10,Win32,60,61025ae37ef11b136ea224fe,,,,,,,,,522,-87.99998355,-34.00001174,1,0,0,response5disk,,2,-14.66660734,-1.333344102,1,0,0,rectangle,-14.66660734,-1.333344102,1,0,0,-14.66660734,-1.333344102,1,0,0,0,49,49,136,1,,,,,,,,
,,,,,,,,,,,,,FF,,,,,,,,1.166,,,,,,,,,,,,,,,,,,,,,,60ff1726b3096f1b1b4efb22,61036a68cd475cdc97453bd5,2021-07-29_21h57.48.600,Simcolourproject_2stim_asymm_v5,2020.2.10,Win32,60,61025ae37ef11b136ea224fe,,,,,,,,,362,24.00001979,-42.66667867,1,0,0,response3disk,,4,17.33339361,3.99998939,1,0,0,rectangle,17.33339361,3.99998939,1,0,0,17.33339361,3.99998939,1,0,0,0,50,50,137,1,,,,,,,,
,,,,,,,,,,,,,FF,,,,,,,,1.8651,,,,,,,,,,,,,,,,,,,,,,60ff1726b3096f1b1b4efb22,61036a68cd475cdc97453bd5,2021-07-29_21h57.48.600,Simcolourproject_2stim_asymm_v5,2020.2.10,Win32,60,61025ae37ef11b136ea224fe,,,,,,,,,2825,-36.666608,-46.0000121,1,0,0,response5disk,,3,1.9735E-05,-2.666677475,1,0,0,rectangle,1.9735E-05,-2.666677475,1,0,0,1.9735E-05,-2.666677475,1,0,0,0,51,51,72,1,,,,,,,,
,,,,,,,,,,,,,FF,,,,,,,,1.349,,,,,,,,,,,,,,,,,,,,,,60ff1726b3096f1b1b4efb22,61036a68cd475cdc97453bd5,2021-07-29_21h57.48.600,Simcolourproject_2stim_asymm_v5,2020.2.10,Win32,60,61025ae37ef11b136ea224fe,,,,,,,,,3256,50.00002056,29.33330313,1,0,0,response1disk,,6,16.00001955,10.66665626,1,0,0,rectangle,16.00001955,10.66665626,1,0,0,16.00001955,10.66665626,1,0,0,0,52,52,1,1,,,,,,,,
,,,,,,,,,,,,,FF,,,,,,,,3.9298,,,,,,,,,,,,,,,,,,,,,,60ff1726b3096f1b1b4efb22,61036a68cd475cdc97453bd5,2021-07-29_21h57.48.600,Simcolourproject_2stim_asymm_v5,2020.2.10,Win32,60,61025ae37ef11b136ea224fe,,,,,,,,,2412,36.00002015,37.9999904,1,0,0,response1disk,,7,1.9735E-05,-6.666677594,1,0,0,rectangle,1.9735E-05,-6.666677594,1,0,0,1.9735E-05,-6.666677594,1,0,0,0,53,53,134,1,,,,,,,,
,,,,,,,,,,,,,FF,,,,,,,,2.4151,,,,,,,,,,,,,,,,,,,,,,60ff1726b3096f1b1b4efb22,61036a68cd475cdc97453bd5,2021-07-29_21h57.48.600,Simcolourproject_2stim_asymm_v5,2020.2.10,Win32,60,61025ae37ef11b136ea224fe,,,,,,,,,1129,47.33335382,21.3333029,1,0,0,response1disk,,6,14.66668618,9.333322883,1,0,0,rectangle,14.66668618,9.333322883,1,0,0,14.66668618,9.333322883,1,0,0,0,54,54,41,1,,,,,,,,
,,,,,,,,,,,,,FF,,,,,,,,1.5989,,,,,,,,,,,,,,,,,,,,,,60ff1726b3096f1b1b4efb22,61036a68cd475cdc97453bd5,2021-07-29_21h57.48.600,Simcolourproject_2stim_asymm_v5,2020.2.10,Win32,60,61025ae37ef11b136ea224fe,,,,,,,,,732,39.33339427,-22.66667807,1,0,0,response3disk,,5,18.6666863,-6.666677594,1,0,0,rectangle,18.6666863,-6.666677594,1,0,0,18.6666863,-6.666677594,1,0,0,0,55,55,152,1,,,,,,,,
,,,,,,,,,,,,,FF,,,,,,,,1.7989,,,,,,,,,,,,,,,,,,,,,,60ff1726b3096f1b1b4efb22,61036a68cd475cdc97453bd5,2021-07-29_21h57.48.600,Simcolourproject_2stim_asymm_v5,2020.2.10,Win32,60,61025ae37ef11b136ea224fe,,,,,,,,,3910,-57.99998266,21.3333029,1,0,0,response7disk,,1,0.66668576,3.99998939,1,0,0,rectangle,0.66668576,3.99998939,1,0,0,0.66668576,3.99998939,1,0,0,0,56,56,73,1,,,,,,,,
,,,,,,,,,,,,,FF,,,,,,,,1.082,,,,,,,,,,,,,,,,,,,,,,60ff1726b3096f1b1b4efb22,61036a68cd475cdc97453bd5,2021-07-29_21h57.48.600,Simcolourproject_2stim_asymm_v5,2020.2.10,Win32,60,61025ae37ef11b136ea224fe,,,,,,,,,2329,22.66668642,50.66665745,1,0,0,response1disk,,7,5.333393256,13.333323,1,0,0,rectangle,5.333393256,13.333323,1,0,0,5.333393256,13.333323,1,0,0,0,57,57,14,1,,,,,,,,
,,,,,,,,,,,,,FF,,,,,,,,1.6488,,,,,,,,,,,,,,,,,,,,,,60ff1726b3096f1b1b4efb22,61036a68cd475cdc97453bd5,2021-07-29_21h57.48.600,Simcolourproject_2stim_asymm_v5,2020.2.10,Win32,60,61025ae37ef11b136ea224fe,,,,,,,,,1179,34.00002009,44.66665727,1,0,0,response1disk,,7,15.33339355,10.66665626,1,0,0,rectangle,15.33339355,10.66665626,1,0,0,15.33339355,10.66665626,1,0,0,0,58,58,24,1,,,,,,,,
,,,,,,,,,,,,,FF,,,,,,,,1.4486,,,,,,,,,,,,,,,,,,,,,,60ff1726b3096f1b1b4efb22,61036a68cd475cdc97453bd5,2021-07-29_21h57.48.600,Simcolourproject_2stim_asymm_v5,2020.2.10,Win32,60,61025ae37ef11b136ea224fe,,,,,,,,,3054,-35.33331531,-38.66667855,1,0,0,response5disk,,3,-3.333314359,1.999989331,1,0,0,rectangle,-3.333314359,1.999989331,1,0,0,-3.333314359,1.999989331,1,0,0,0,59,59,29,1,,,,,,,,
,,,,,,,,,,,,,FF,,,,,,,,1.4656,,,,,,,,,,,,,,,,,,,,,,60ff1726b3096f1b1b4efb22,61036a68cd475cdc97453bd5,2021-07-29_21h57.48.600,Simcolourproject_2stim_asymm_v5,2020.2.10,Win32,60,61025ae37ef11b136ea224fe,,,,,,,,,1347,74.00002128,-40.00001192,1,0,0,response3disk,,5,15.33339355,-8.666677654,1,0,0,rectangle,15.33339355,-8.666677654,1,0,0,15.33339355,-8.666677654,1,0,0,0,60,60,8,1,,,,,,,,
,,,,,,,,,,,,,FF,,,,,,,,4.8795,,,,,,,,,,,,,,,,,,,,,,60ff1726b3096f1b1b4efb22,61036a68cd475cdc97453bd5,2021-07-29_21h57.48.600,Simcolourproject_2stim_asymm_v5,2020.2.10,Win32,60,61025ae37ef11b136ea224fe,,,,,,,,,983,34.66668677,-25.33334482,1,0,0,response3disk,,5,10.00001937,-10.00001103,1,0,0,rectangle,10.00001937,-10.00001103,1,0,0,10.00001937,-10.00001103,1,0,0,0,61,61,51,1,,,,,,,,
,,,,,,,,,,,,,FF,,,,,,,,0.8992,,,,,,,,,,,,,,,,,,,,,,60ff1726b3096f1b1b4efb22,61036a68cd475cdc97453bd5,2021-07-29_21h57.48.600,Simcolourproject_2stim_asymm_v5,2020.2.10,Win32,60,61025ae37ef11b136ea224fe,,,,,,,,,3751,-36.666608,-22.00001138,1,0,0,response5disk,,2,-4.666607042,0.666655958,1,0,0,rectangle,-4.666607042,0.666655958,1,0,0,-4.666607042,0.666655958,1,0,0,0,62,62,28,1,,,,,,,,
,,,,,,,,,,,,,FF,,,,,,,,5.0462,,,,,,,,,,,,,,,,,,,,,,60ff1726b3096f1b1b4efb22,61036a68cd475cdc97453bd5,2021-07-29_21h57.48.600,Simcolourproject_2stim_asymm_v5,2020.2.10,Win32,60,61025ae37ef11b136ea224fe,,,,,,,,,2813,48.0000205,-30.66667831,1,0,0,response3disk,,5,10.00001937,3.99998939,1,0,0,rectangle,10.00001937,3.99998939,1,0,0,10.00001937,3.99998939,1,0,0,0,63,63,156,1,,,,,,,,
,,,,,,,,,,,,,FF,,,,,,,,1.8154,,,,,,,,,,,,,,,,,,,,,,60ff1726b3096f1b1b4efb22,61036a68cd475cdc97453bd5,2021-07-29_21h57.48.600,Simcolourproject_2stim_asymm_v5,2020.2.10,Win32,60,61025ae37ef11b136ea224fe,,,,,,,,,1760,-53.33331585,24.66665667,1,0,0,response7disk,,1,2.66668582,-6.000010908,1,0,0,rectangle,2.66668582,-6.000010908,1,0,0,2.66668582,-6.000010908,1,0,0,0,64,64,18,1,,,,,,,,
,,,,,,,,,,,,,FF,,,,,,,,2.2315,,,,,,,,,,,,,,,,,,,,,,60ff1726b3096f1b1b4efb22,61036a68cd475cdc97453bd5,2021-07-29_21h57.48.600,Simcolourproject_2stim_asymm_v5,2020.2.10,Win32,60,61025ae37ef11b136ea224fe,,,,,,,,,3595,21.33339373,-62.66667926,1,0,0,response3disk,,4,6.000019252,3.333322704,1,0,0,rectangle,6.000019252,3.333322704,1,0,0,6.000019252,3.333322704,1,0,0,0,65,65,12,1,,,,,,,,
,,,,,,,,,,,,,FF,,,,,,,,1.3654,,,,,,,,,,,,,,,,,,,,,,60ff1726b3096f1b1b4efb22,61036a68cd475cdc97453bd5,2021-07-29_21h57.48.600,Simcolourproject_2stim_asymm_v5,2020.2.10,Win32,60,61025ae37ef11b136ea224fe,,,,,,,,,2440,41.33339433,57.999991,1,0,0,response1disk,,7,10.66668606,0.666655958,1,0,0,rectangle,10.66668606,0.666655958,1,0,0,10.66668606,0.666655958,1,0,0,0,66,66,58,1,,,,,,,,
,,,,,,,,,,,,,FF,,,,,,,,1.7487,,,,,,,,,,,,,,,,,,,,,,60ff1726b3096f1b1b4efb22,61036a68cd475cdc97453bd5,2021-07-29_21h57.48.600,Simcolourproject_2stim_asymm_v5,2020.2.10,Win32,60,61025ae37ef11b136ea224fe,,,,,,,,,130,78.0000214,38.66665709,1,0,0,response1disk,,6,-9.999981225,5.333322763,1,0,0,rectangle,-9.999981225,5.333322763,1,0,0,-9.999981225,5.333322763,1,0,0,0,67,67,84,1,,,,,,,,
,,,,,,,,,,,,,FF,,,,,,,,1.3491,,,,,,,,,,,,,,,,,,,,,,60ff1726b3096f1b1b4efb22,61036a68cd475cdc97453bd5,2021-07-29_21h57.48.600,Simcolourproject_2stim_asymm_v5,2020.2.10,Win32,60,61025ae37ef11b136ea224fe,,,,,,,,,3503,-25.33331501,-50.66667891,1,0,0,response5disk,,3,2.000019133,2.666656017,1,0,0,rectangle,2.000019133,2.666656017,1,0,0,2.000019133,2.666656017,1,0,0,0,68,68,153,1,,,,,,,,
,,,,,,,,,,,,,FF,,,,,,,,1.1991,,,,,,,,,,,,,,,,,,,,,,60ff1726b3096f1b1b4efb22,61036a68cd475cdc97453bd5,2021-07-29_21h57.48.600,Simcolourproject_2stim_asymm_v5,2020.2.10,Win32,60,61025ae37ef11b136ea224fe,,,,,,,,,2036,-32.66660788,-48.00001216,1,0,0,response5disk,,3,-10.66660722,-2.666677475,1,0,0,rectangle,70.00002116,33.33330325,1,0,0,22.00001973,3.99998939,1,0,0,0,69,69,62,1,,response1disk_3,TRUE,6,6,"[252,233,185,144,70,86,254,3,317,96,257,225,128,134,312,321,211,95,187,170]",5.9112,rectangle
,,,,,,,,,,,,,FF,,,,,,,,1.2325,,,,,,,,,,,,,,,,,,,,,,60ff1726b3096f1b1b4efb22,61036a68cd475cdc97453bd5,2021-07-29_21h57.48.600,Simcolourproject_2stim_asymm_v5,2020.2.10,Win32,60,61025ae37ef11b136ea224fe,,,,,,,,,307,64.00002098,41.99999052,1,0,0,response1disk,,6,20.00001967,-4.666677535,1,0,0,rectangle,20.00001967,-4.666677535,1,0,0,20.00001967,-4.666677535,1,0,0,0,70,70,107,1,,,,,,,,
,,,,,,,,,,,,,FF,,,,,,,,1.3322,,,,,,,,,,,,,,,,,,,,,,60ff1726b3096f1b1b4efb22,61036a68cd475cdc97453bd5,2021-07-29_21h57.48.600,Simcolourproject_2stim_asymm_v5,2020.2.10,Win32,60,61025ae37ef11b136ea224fe,,,,,,,,,3375,-31.99998188,-35.33334512,1,0,0,response5disk,,3,5.333393256,-1.333344102,1,0,0,rectangle,5.333393256,-1.333344102,1,0,0,5.333393256,-1.333344102,1,0,0,0,71,71,50,1,,,,,,,,
,,,,,,,,,,,,,FF,,,,,,,,1.2824,,,,,,,,,,,,,,,,,,,,,,60ff1726b3096f1b1b4efb22,61036a68cd475cdc97453bd5,2021-07-29_21h57.48.600,Simcolourproject_2stim_asymm_v5,2020.2.10,Win32,60,61025ae37ef11b136ea224fe,,,,,,,,,2502,53.333354,-22.66667807,1,0,0,response3disk,,5,14.66668618,-2.666677475,1,0,0,rectangle,14.66668618,-2.666677475,1,0,0,14.66668618,-2.666677475,1,0,0,0,72,72,45,1,,,,,,,,
,,,,,,,,,,,,,FF,,,,,,,,1.1494,,,,,,,,,,,,,,,,,,,,,,60ff1726b3096f1b1b4efb22,61036a68cd475cdc97453bd5,2021-07-29_21h57.48.600,Simcolourproject_2stim_asymm_v5,2020.2.10,Win32,60,61025ae37ef11b136ea224fe,,,,,,,,,1368,-35.999982,67.33330427,1,0,0,response7disk,,0,15.33339355,-1.333344102,1,0,0,rectangle,15.33339355,-1.333344102,1,0,0,15.33339355,-1.333344102,1,0,0,0,73,73,46,1,,,,,,,,
,,,,,,,,,,,,,FF,,,,,,,,1.2161,,,,,,,,,,,,,,,,,,,,,,60ff1726b3096f1b1b4efb22,61036a68cd475cdc97453bd5,2021-07-29_21h57.48.600,Simcolourproject_2stim_asymm_v5,2020.2.10,Win32,60,61025ae37ef11b136ea224fe,,,,,,,,,3079,28.66668659,-53.33334565,1,0,0,response3disk,,4,7.333393315,2.666656017,1,0,0,rectangle,7.333393315,2.666656017,1,0,0,7.333393315,2.666656017,1,0,0,0,74,74,105,1,,,,,,,,
,,,,,,,,,,,,,FF,,,,,,,,1.2822,,,,,,,,,,,,,,,,,,,,,,60ff1726b3096f1b1b4efb22,61036a68cd475cdc97453bd5,2021-07-29_21h57.48.600,Simcolourproject_2stim_asymm_v5,2020.2.10,Win32,60,61025ae37ef11b136ea224fe,,,,,,,,,3302,22.00001973,-42.66667867,1,0,0,response3disk,,4,6.000019252,-0.666677415,1,0,0,rectangle,6.000019252,-0.666677415,1,0,0,6.000019252,-0.666677415,1,0,0,0,75,75,95,1,,,,,,,,
,,,,,,,,,,,,,FF,,,,,,,,1.1991,,,,,,,,,,,,,,,,,,,,,,60ff1726b3096f1b1b4efb22,61036a68cd475cdc97453bd5,2021-07-29_21h57.48.600,Simcolourproject_2stim_asymm_v5,2020.2.10,Win32,60,61025ae37ef11b136ea224fe,,,,,,,,,2863,34.66668677,-20.66667801,1,0,0,response3disk,,5,13.33339349,-8.000010967,1,0,0,rectangle,13.33339349,-8.000010967,1,0,0,13.33339349,-8.000010967,1,0,0,0,76,76,9,1,,,,,,,,
,,,,,,,,,,,,,FF,,,,,,,,1.099,,,,,,,,,,,,,,,,,,,,,,60ff1726b3096f1b1b4efb22,61036a68cd475cdc97453bd5,2021-07-29_21h57.48.600,Simcolourproject_2stim_asymm_v5,2020.2.10,Win32,60,61025ae37ef11b136ea224fe,,,,,,,,,2321,49.33335388,-34.00001174,1,0,0,response3disk,,5,23.33339379,-11.3333444,1,0,0,rectangle,23.33339379,-11.3333444,1,0,0,23.33339379,-11.3333444,1,0,0,0,77,77,119,1,,,,,,,,
,,,,,,,,,,,,,FF,,,,,,,,1.1325,,,,,,,,,,,,,,,,,,,,,,60ff1726b3096f1b1b4efb22,61036a68cd475cdc97453bd5,2021-07-29_21h57.48.600,Simcolourproject_2stim_asymm_v5,2020.2.10,Win32,60,61025ae37ef11b136ea224fe,,,,,,,,,2029,-61.99998277,-26.66667819,1,0,0,response5disk,,2,-13.99998134,-7.333344281,1,0,0,rectangle,-13.99998134,-7.333344281,1,0,0,-13.99998134,-7.333344281,1,0,0,0,78,78,144,1,,,,,,,,
,,,,,,,,,,,,,FF,,,,,,,,1.2824,,,,,,,,,,,,,,,,,,,,,,60ff1726b3096f1b1b4efb22,61036a68cd475cdc97453bd5,2021-07-29_21h57.48.600,Simcolourproject_2stim_asymm_v5,2020.2.10,Win32,60,61025ae37ef11b136ea224fe,,,,,,,,,2151,31.33339403,61.33330409,1,0,0,response1disk,,7,4.000019193,4.666656077,1,0,0,rectangle,4.000019193,4.666656077,1,0,0,4.000019193,4.666656077,1,0,0,0,79,79,47,1,,,,,,,,
,,,,,,,,,,,,,FF,,,,,,,,1.4449,,,,,,,,,,,,,,,,,,,,,,60ff1726b3096f1b1b4efb22,61036a68cd475cdc97453bd5,2021-07-29_21h57.48.600,Simcolourproject_2stim_asymm_v5,2020.2.10,Win32,60,61025ae37ef11b136ea224fe,,,,,,,,,1065,18.6666863,-43.33334535,1,0,0,response3disk,,4,-3.333314359,-1.333344102,1,0,0,rectangle,-3.333314359,-1.333344102,1,0,0,-3.333314359,-1.333344102,1,0,0,0,80,80,139,1,,,,,,,,
,,,,,,,,,,,,,FF,,,,,,,,1.2324,,,,,,,,,,,,,,,,,,,,,,60ff1726b3096f1b1b4efb22,61036a68cd475cdc97453bd5,2021-07-29_21h57.48.600,Simcolourproject_2stim_asymm_v5,2020.2.10,Win32,60,61025ae37ef11b136ea224fe,,,,,,,,,2323,37.33339421,44.66665727,1,0,0,response1disk,,7,5.333393256,-6.666677594,1,0,0,rectangle,5.333393256,-6.666677594,1,0,0,5.333393256,-6.666677594,1,0,0,0,81,81,85,1,,,,,,,,
,,,,,,,,,,,,,FF,,,,,,,,1.3821,,,,,,,,,,,,,,,,,,,,,,60ff1726b3096f1b1b4efb22,61036a68cd475cdc97453bd5,2021-07-29_21h57.48.600,Simcolourproject_2stim_asymm_v5,2020.2.10,Win32,60,61025ae37ef11b136ea224fe,,,,,,,,,996,42.66668701,-20.66667801,1,0,0,response3disk,,5,8.000019312,-6.666677594,1,0,0,rectangle,8.000019312,-6.666677594,1,0,0,8.000019312,-6.666677594,1,0,0,0,82,82,20,1,,,,,,,,
,,,,,,,,,,,,,FF,,,,,,,,1.6487,,,,,,,,,,,,,,,,,,,,,,60ff1726b3096f1b1b4efb22,61036a68cd475cdc97453bd5,2021-07-29_21h57.48.600,Simcolourproject_2stim_asymm_v5,2020.2.10,Win32,60,61025ae37ef11b136ea224fe,,,,,,,,,623,22.66668642,-42.66667867,1,0,0,response3disk,,4,-3.333314359,-12.66667777,1,0,0,rectangle,-3.333314359,-12.66667777,1,0,0,-3.333314359,-12.66667777,1,0,0,0,83,83,130,1,,,,,,,,
,,,,,,,,,,,,,FF,,,,,,,,3.3314,,,,,,,,,,,,,,,,,,,,,,60ff1726b3096f1b1b4efb22,61036a68cd475cdc97453bd5,2021-07-29_21h57.48.600,Simcolourproject_2stim_asymm_v5,2020.2.10,Win32,60,61025ae37ef11b136ea224fe,,,,,,,,,1506,37.33339421,-16.66667789,1,0,0,response3disk,,5,16.00001955,0.666655958,1,0,0,rectangle,16.00001955,0.666655958,1,0,0,16.00001955,0.666655958,1,0,0,0,84,84,71,1,,,,,,,,
,,,,,,,,,,,,,FF,,,,,,,,1.4656,,,,,,,,,,,,,,,,,,,,,,60ff1726b3096f1b1b4efb22,61036a68cd475cdc97453bd5,2021-07-29_21h57.48.600,Simcolourproject_2stim_asymm_v5,2020.2.10,Win32,60,61025ae37ef11b136ea224fe,,,,,,,,,1746,-40.66660812,-18.66667795,1,0,0,response5disk,,2,-5.999981105,3.333322704,1,0,0,rectangle,-49.33331573,34.66665697,1,0,0,-5.999981105,13.333323,1,0,0,0,85,85,26,1,,response7disk_3,TRUE,1,1,"[252,233,185,144,70,86,254,3,317,96,257,225,128,134,312,321,211,95,187,170]",1.7485,rectangle
,,,,,,,,,,,,,FF,,,,,,,,1.4497,,,,,,,,,,,,,,,,,,,,,,60ff1726b3096f1b1b4efb22,61036a68cd475cdc97453bd5,2021-07-29_21h57.48.600,Simcolourproject_2stim_asymm_v5,2020.2.10,Win32,60,61025ae37ef11b136ea224fe,,,,,,,,,3777,-57.33331597,41.33330349,1,0,0,response7disk,,1,-15.33331472,2.666656017,1,0,0,rectangle,-15.33331472,2.666656017,1,0,0,-15.33331472,2.666656017,1,0,0,0,86,86,39,1,,,,,,,,
,,,,,,,,,,,,,FF,,,,,,,,2.1485,,,,,,,,,,,,,,,,,,,,,,60ff1726b3096f1b1b4efb22,61036a68cd475cdc97453bd5,2021-07-29_21h57.48.600,Simcolourproject_2stim_asymm_v5,2020.2.10,Win32,60,61025ae37ef11b136ea224fe,,,,,,,,,1087,56.66668743,33.33330325,1,0,0,response1disk,,6,14.00001949,0.666655958,1,0,0,rectangle,14.00001949,0.666655958,1,0,0,14.00001949,0.666655958,1,0,0,0,87,87,135,1,,,,,,,,
,,,,,,,,,,,,,FF,,,,,,,,1.1661,,,,,,,,,,,,,,,,,,,,,,60ff1726b3096f1b1b4efb22,61036a68cd475cdc97453bd5,2021-07-29_21h57.48.600,Simcolourproject_2stim_asymm_v5,2020.2.10,Win32,60,61025ae37ef11b136ea224fe,,,,,,,,,3790,29.33339397,67.33330427,1,0,0,response1disk,,7,2.66668582,13.99998969,1,0,0,rectangle,2.66668582,13.99998969,1,0,0,2.66668582,13.99998969,1,0,0,0,88,88,125,1,,,,,,,,
,,,,,,,,,,,,,FF,,,,,,,,1.3656,,,,,,,,,,,,,,,,,,,,,,60ff1726b3096f1b1b4efb22,61036a68cd475cdc97453bd5,2021-07-29_21h57.48.600,Simcolourproject_2stim_asymm_v5,2020.2.10,Win32,60,61025ae37ef11b136ea224fe,,,,,,,,,3658,38.00002021,21.99998993,1,0,0,response1disk,,6,19.33339367,8.666656196,1,0,0,rectangle,19.33339367,8.666656196,1,0,0,19.33339367,8.666656196,1,0,0,0,89,89,104,1,,,,,,,,
,,,,,,,,,,,,,FF,,,,,,,,1.3156,,,,,,,,,,,,,,,,,,,,,,60ff1726b3096f1b1b4efb22,61036a68cd475cdc97453bd5,2021-07-29_21h57.48.600,Simcolourproject_2stim_asymm_v5,2020.2.10,Win32,60,61025ae37ef11b136ea224fe,,,,,,,,,3025,16.00001955,25.33330301,1,0,0,response1disk,,7,4.000019193,-3.333344162,1,0,0,rectangle,4.000019193,-3.333344162,1,0,0,4.000019193,-3.333344162,1,0,0,0,90,90,110,1,,,,,,,,
,,,,,,,,,,,,,FF,,,,,,,,1.1657,,,,,,,,,,,,,,,,,,,,,,60ff1726b3096f1b1b4efb22,61036a68cd475cdc97453bd5,2021-07-29_21h57.48.600,Simcolourproject_2stim_asymm_v5,2020.2.10,Win32,60,61025ae37ef11b136ea224fe,,,,,,,,,3599,-33.33331525,-63.33334595,1,0,0,response5disk,,3,5.333393256,1.333322644,1,0,0,rectangle,5.333393256,1.333322644,1,0,0,5.333393256,1.333322644,1,0,0,0,91,91,126,1,,,,,,,,
,,,,,,,,,,,,,FF,,,,,,,,2.4318,,,,,,,,,,,,,,,,,,,,,,60ff1726b3096f1b1b4efb22,61036a68cd475cdc97453bd5,2021-07-29_21h57.48.600,Simcolourproject_2stim_asymm_v5,2020.2.10,Win32,60,61025ae37ef11b136ea224fe,,,,,,,,,1361,49.33335388,16.66665643,1,0,0,response1disk,,6,4.666685879,-8.000010967,1,0,0,rectangle,4.666685879,-8.000010967,1,0,0,4.666685879,-8.000010967,1,0,0,0,92,92,33,1,,,,,,,,
,,,,,,,,,,,,,FF,,,,,,,,1.2824,,,,,,,,,,,,,,,,,,,,,,60ff1726b3096f1b1b4efb22,61036a68cd475cdc97453bd5,2021-07-29_21h57.48.600,Simcolourproject_2stim_asymm_v5,2020.2.10,Win32,60,61025ae37ef11b136ea224fe,,,,,,,,,3854,43.3333537,23.99998999,1,0,0,response1disk,,6,16.00001955,0.666655958,1,0,0,rectangle,16.00001955,0.666655958,1,0,0,16.00001955,0.666655958,1,0,0,0,93,93,5,1,,,,,,,,
,,,,,,,,,,,,,FF,,,,,,,,0.9492,,,,,,,,,,,,,,,,,,,,,,60ff1726b3096f1b1b4efb22,61036a68cd475cdc97453bd5,2021-07-29_21h57.48.600,Simcolourproject_2stim_asymm_v5,2020.2.10,Win32,60,61025ae37ef11b136ea224fe,,,,,,,,,2530,36.66668683,56.66665763,1,0,0,response1disk,,7,-3.333314359,-5.333344221,1,0,0,rectangle,-48.66660835,27.33330307,1,0,0,-9.999981225,-6.666677594,1,0,0,0,94,94,74,1,,response7disk_3,TRUE,1,1,"[252,233,185,144,70,86,254,3,317,96,257,225,128,134,312,321,211,95,187,170]",1.6492,rectangle
,,,,,,,,,,,,,FF,,,,,,,,1.9486,,,,,,,,,,,,,,,,,,,,,,60ff1726b3096f1b1b4efb22,61036a68cd475cdc97453bd5,2021-07-29_21h57.48.600,Simcolourproject_2stim_asymm_v5,2020.2.10,Win32,60,61025ae37ef11b136ea224fe,,,,,,,,,3063,58.66668749,-28.00001156,1,0,0,response3disk,,5,13.33339349,5.333322763,1,0,0,rectangle,-22.66660758,-60.6666792,1,0,0,4.666685879,11.33332294,1,0,0,0,95,95,120,1,,response5disk_3,TRUE,3,3,"[252,233,185,144,70,86,254,3,317,96,257,225,128,134,312,321,211,95,187,170]",2.3142,rectangle
,,,,,,,,,,,,,FF,,,,,,,,2.1981,,,,,,,,,,,,,,,,,,,,,,60ff1726b3096f1b1b4efb22,61036a68cd475cdc97453bd5,2021-07-29_21h57.48.600,Simcolourproject_2stim_asymm_v5,2020.2.10,Win32,60,61025ae37ef11b136ea224fe,,,,,,,,,4351,-45.33331561,-35.33334512,1,0,0,response5disk,,2,2.66668582,-5.333344221,1,0,0,rectangle,2.66668582,-5.333344221,1,0,0,2.66668582,-5.333344221,1,0,0,0,96,96,86,1,,,,,,,,
,,,,,,,,,,,,,FF,,,,,,,,1.2162,,,,,,,,,,,,,,,,,,,,,,60ff1726b3096f1b1b4efb22,61036a68cd475cdc97453bd5,2021-07-29_21h57.48.600,Simcolourproject_2stim_asymm_v5,2020.2.10,Win32,60,61025ae37ef11b136ea224fe,,,,,,,,,4267,-47.33331567,-14.66667783,1,0,0,response5disk,,2,1.333393137,13.333323,1,0,0,rectangle,1.333393137,13.333323,1,0,0,1.333393137,13.333323,1,0,0,0,97,97,55,1,,,,,,,,
,,,,,,,,,,,,,FF,,,,,,,,1.9152,,,,,,,,,,,,,,,,,,,,,,60ff1726b3096f1b1b4efb22,61036a68cd475cdc97453bd5,2021-07-29_21h57.48.600,Simcolourproject_2stim_asymm_v5,2020.2.10,Win32,60,61025ae37ef11b136ea224fe,,,,,,,,,3928,59.33335418,32.66665691,1,0,0,response1disk,,6,13.33339349,3.99998939,1,0,0,rectangle,13.33339349,3.99998939,1,0,0,13.33339349,3.99998939,1,0,0,0,98,98,132,1,,,,,,,,
,,,,,,,,,,,,,FF,,,,,,,,1.1493,,,,,,,,,,,,,,,,,,,,,,60ff1726b3096f1b1b4efb22,61036a68cd475cdc97453bd5,2021-07-29_21h57.48.600,Simcolourproject_2stim_asymm_v5,2020.2.10,Win32,60,61025ae37ef11b136ea224fe,,,,,,,,,3003,28.66668659,57.999991,1,0,0,response1disk,,7,4.000019193,7.99998951,1,0,0,rectangle,4.000019193,7.99998951,1,0,0,4.000019193,7.99998951,1,0,0,0,99,99,115,1,,,,,,,,
,,,,,,,,,,,,,FF,,,,,,,,1.7654,,,,,,,,,,,,,,,,,,,,,,60ff1726b3096f1b1b4efb22,61036a68cd475cdc97453bd5,2021-07-29_21h57.48.600,Simcolourproject_2stim_asymm_v5,2020.2.10,Win32,60,61025ae37ef11b136ea224fe,,,,,,,,,218,24.00001979,42.66665721,1,0,0,response1disk,,7,-1.3333143,-10.00001103,1,0,0,rectangle,-1.3333143,-10.00001103,1,0,0,-1.3333143,-10.00001103,1,0,0,0,100,100,70,1,,,,,,,,
,,,,,,,,,,,,,FF,,,,,,,,1.6153,,,,,,,,,,,,,,,,,,,,,,60ff1726b3096f1b1b4efb22,61036a68cd475cdc97453bd5,2021-07-29_21h57.48.600,Simcolourproject_2stim_asymm_v5,2020.2.10,Win32,60,61025ae37ef11b136ea224fe,,,,,,,,,840,29.33339397,35.99999034,1,0,0,response1disk,,7,-0.666606923,3.333322704,1,0,0,rectangle,-0.666606923,3.333322704,1,0,0,-0.666606923,3.333322704,1,0,0,0,101,101,7,1,,,,,,,,
,,,,,,,,,,,,,FF,,,,,,,,1.1657,,,,,,,,,,,,,,,,,,,,,,60ff1726b3096f1b1b4efb22,61036a68cd475cdc97453bd5,2021-07-29_21h57.48.600,Simcolourproject_2stim_asymm_v5,2020.2.10,Win32,60,61025ae37ef11b136ea224fe,,,,,,,,,3077,38.00002021,19.99998987,1,0,0,response1disk,,6,6.000019252,-2.000010788,1,0,0,rectangle,6.000019252,-2.000010788,1,0,0,6.000019252,-2.000010788,1,0,0,0,102,102,141,1,,,,,,,,
,,,,,,,,,,,,,FF,,,,,,,,1.6985,,,,,,,,,,,,,,,,,,,,,,60ff1726b3096f1b1b4efb22,61036a68cd475cdc97453bd5,2021-07-29_21h57.48.600,Simcolourproject_2stim_asymm_v5,2020.2.10,Win32,60,61025ae37ef11b136ea224fe,,,,,,,,,3279,37.33339421,17.33332312,1,0,0,response1disk,,6,16.00001955,1.999989331,1,0,0,rectangle,16.00001955,1.999989331,1,0,0,16.00001955,1.999989331,1,0,0,0,103,103,145,1,,,,,,,,
,,,,,,,,,,,,,FF,,,,,,,,1.1991,,,,,,,,,,,,,,,,,,,,,,60ff1726b3096f1b1b4efb22,61036a68cd475cdc97453bd5,2021-07-29_21h57.48.600,Simcolourproject_2stim_asymm_v5,2020.2.10,Win32,60,61025ae37ef11b136ea224fe,,,,,,,,,4098,24.66668648,-35.33334512,1,0,0,response3disk,,4,7.333393315,1.333322644,1,0,0,rectangle,7.333393315,1.333322644,1,0,0,7.333393315,1.333322644,1,0,0,0,104,104,140,1,,,,,,,,
,,,,,,,,,,,,,FF,,,,,,,,1.5653,,,,,,,,,,,,,,,,,,,,,,60ff1726b3096f1b1b4efb22,61036a68cd475cdc97453bd5,2021-07-29_21h57.48.600,Simcolourproject_2stim_asymm_v5,2020.2.10,Win32,60,61025ae37ef11b136ea224fe,,,,,,,,,1620,28.66668659,39.99999046,1,0,0,response1disk,,7,6.000019252,7.333322823,1,0,0,rectangle,6.000019252,7.333322823,1,0,0,6.000019252,7.333322823,1,0,0,0,105,105,16,1,,,,,,,,
,,,,,,,,,,,,,FF,,,,,,,,2.6811,,,,,,,,,,,,,,,,,,,,,,60ff1726b3096f1b1b4efb22,61036a68cd475cdc97453bd5,2021-07-29_21h57.48.600,Simcolourproject_2stim_asymm_v5,2020.2.10,Win32,60,61025ae37ef11b136ea224fe,,,,,,,,,1433,44.00002038,-26.0000115,1,0,0,response3disk,,5,1.9735E-05,-2.000010788,1,0,0,rectangle,1.9735E-05,-2.000010788,1,0,0,1.9735E-05,-2.000010788,1,0,0,0,106,106,109,1,,,,,,,,
,,,,,,,,,,,,,FF,,,,,,,,8.9427,,,,,,,,,,,,,,,,,,,,,,60ff1726b3096f1b1b4efb22,61036a68cd475cdc97453bd5,2021-07-29_21h57.48.600,Simcolourproject_2stim_asymm_v5,2020.2.10,Win32,60,61025ae37ef11b136ea224fe,,,,,,,,,243,61.33335423,31.99999022,1,0,0,response1disk,,6,4.000019193,-2.000010788,1,0,0,rectangle,4.000019193,-2.000010788,1,0,0,4.000019193,-2.000010788,1,0,0,0,107,107,30,1,,,,,,,,
,,,,,,,,,,,,,FF,,,,,,,,1.4657,,,,,,,,,,,,,,,,,,,,,,60ff1726b3096f1b1b4efb22,61036a68cd475cdc97453bd5,2021-07-29_21h57.48.600,Simcolourproject_2stim_asymm_v5,2020.2.10,Win32,60,61025ae37ef11b136ea224fe,,,,,,,,,61,48.0000205,25.33330301,1,0,0,response1disk,,6,-9.999981225,-5.333344221,1,0,0,rectangle,-9.999981225,-5.333344221,1,0,0,-9.999981225,-5.333344221,1,0,0,0,108,108,77,1,,,,,,,,
,,,,,,,,,,,,,FF,,,,,,,,1.682,,,,,,,,,,,,,,,,,,,,,,60ff1726b3096f1b1b4efb22,61036a68cd475cdc97453bd5,2021-07-29_21h57.48.600,Simcolourproject_2stim_asymm_v5,2020.2.10,Win32,60,61025ae37ef11b136ea224fe,,,,,,,,,1203,18.6666863,-33.33334506,1,0,0,response3disk,,4,0.66668576,-2.000010788,1,0,0,rectangle,0.66668576,-2.000010788,1,0,0,0.66668576,-2.000010788,1,0,0,0,109,109,158,1,,,,,,,,
,,,,,,,,,,,,,FF,,,,,,,,2.0319,,,,,,,,,,,,,,,,,,,,,,60ff1726b3096f1b1b4efb22,61036a68cd475cdc97453bd5,2021-07-29_21h57.48.600,Simcolourproject_2stim_asymm_v5,2020.2.10,Win32,60,61025ae37ef11b136ea224fe,,,,,,,,,3251,-45.33331561,-46.0000121,1,0,0,response5disk,,3,13.33339349,-1.07288E-05,1,0,0,rectangle,13.33339349,-1.07288E-05,1,0,0,13.33339349,-1.07288E-05,1,0,0,0,110,110,6,1,,,,,,,,
,,,,,,,,,,,,,FF,,,,,,,,1.4654,,,,,,,,,,,,,,,,,,,,,,60ff1726b3096f1b1b4efb22,61036a68cd475cdc97453bd5,2021-07-29_21h57.48.600,Simcolourproject_2stim_asymm_v5,2020.2.10,Win32,60,61025ae37ef11b136ea224fe,,,,,,,,,1196,26.00001985,66.66665792,1,0,0,response1disk,,7,5.333393256,8.666656196,1,0,0,rectangle,5.333393256,8.666656196,1,0,0,5.333393256,8.666656196,1,0,0,0,111,111,60,1,,,,,,,,
,,,,,,,,,,,,,FF,,,,,,,,1.4824,,,,,,,,,,,,,,,,,,,,,,60ff1726b3096f1b1b4efb22,61036a68cd475cdc97453bd5,2021-07-29_21h57.48.600,Simcolourproject_2stim_asymm_v5,2020.2.10,Win32,60,61025ae37ef11b136ea224fe,,,,,,,,,3223,32.00002003,77.9999916,1,0,0,response1disk,,7,7.333393315,8.666656196,1,0,0,rectangle,7.333393315,8.666656196,1,0,0,7.333393315,8.666656196,1,0,0,0,112,112,53,1,,,,,,,,
,,,,,,,,,,,,,FF,,,,,,,,1.4989,,,,,,,,,,,,,,,,,,,,,,60ff1726b3096f1b1b4efb22,61036a68cd475cdc97453bd5,2021-07-29_21h57.48.600,Simcolourproject_2stim_asymm_v5,2020.2.10,Win32,60,61025ae37ef11b136ea224fe,,,,,,,,,3496,52.00002062,41.99999052,1,0,0,response1disk,,6,12.66668612,9.999989569,1,0,0,rectangle,12.66668612,9.999989569,1,0,0,12.66668612,9.999989569,1,0,0,0,113,113,4,1,,,,,,,,
,,,,,,,,,,,,,FF,,,,,,,,1.4619,,,,,,,,,,,,,,,,,,,,,,60ff1726b3096f1b1b4efb22,61036a68cd475cdc97453bd5,2021-07-29_21h57.48.600,Simcolourproject_2stim_asymm_v5,2020.2.10,Win32,60,61025ae37ef11b136ea224fe,,,,,,,,,4221,-47.33331567,-27.33334488,1,0,0,response5disk,,2,-13.99998134,-5.333344221,1,0,0,rectangle,-13.99998134,-5.333344221,1,0,0,-13.99998134,-5.333344221,1,0,0,0,114,114,56,1,,,,,,,,
,,,,,,,,,,,,,FF,,,,,,,,1.3159,,,,,,,,,,,,,,,,,,,,,,60ff1726b3096f1b1b4efb22,61036a68cd475cdc97453bd5,2021-07-29_21h57.48.600,Simcolourproject_2stim_asymm_v5,2020.2.10,Win32,60,61025ae37ef11b136ea224fe,,,,,,,,,1439,24.66668648,29.33330313,1,0,0,response1disk,,7,-5.333314419,1.333322644,1,0,0,rectangle,-5.333314419,1.333322644,1,0,0,-5.333314419,1.333322644,1,0,0,0,115,115,87,1,,,,,,,,
,,,,,,,,,,,,,FF,,,,,,,,2.7649,,,,,,,,,,,,,,,,,,,,,,60ff1726b3096f1b1b4efb22,61036a68cd475cdc97453bd5,2021-07-29_21h57.48.600,Simcolourproject_2stim_asymm_v5,2020.2.10,Win32,60,61025ae37ef11b136ea224fe,,,,,,,,,2459,37.33339421,46.66665733,1,0,0,response1disk,,7,2.66668582,3.99998939,1,0,0,rectangle,2.66668582,3.99998939,1,0,0,2.66668582,3.99998939,1,0,0,0,116,116,59,1,,,,,,,,
,,,,,,,,,,,,,FF,,,,,,,,1.2653,,,,,,,,,,,,,,,,,,,,,,60ff1726b3096f1b1b4efb22,61036a68cd475cdc97453bd5,2021-07-29_21h57.48.600,Simcolourproject_2stim_asymm_v5,2020.2.10,Win32,60,61025ae37ef11b136ea224fe,,,,,,,,,443,-31.99998188,66.66665792,1,0,0,response7disk,,0,9.333393375,-8.000010967,1,0,0,rectangle,9.333393375,-8.000010967,1,0,0,9.333393375,-8.000010967,1,0,0,0,117,117,112,1,,,,,,,,
,,,,,,,,,,,,,FF,,,,,,,,1.5653,,,,,,,,,,,,,,,,,,,,,,60ff1726b3096f1b1b4efb22,61036a68cd475cdc97453bd5,2021-07-29_21h57.48.600,Simcolourproject_2stim_asymm_v5,2020.2.10,Win32,60,61025ae37ef11b136ea224fe,,,,,,,,,3838,-25.33331501,-42.00001198,1,0,0,response5disk,,3,-7.999981165,-6.666677594,1,0,0,rectangle,-7.999981165,-6.666677594,1,0,0,-7.999981165,-6.666677594,1,0,0,0,118,118,154,1,,,,,,,,
,,,,,,,,,,,,,FF,,,,,,,,1.3323,,,,,,,,,,,,,,,,,,,,,,60ff1726b3096f1b1b4efb22,61036a68cd475cdc97453bd5,2021-07-29_21h57.48.600,Simcolourproject_2stim_asymm_v5,2020.2.10,Win32,60,61025ae37ef11b136ea224fe,,,,,,,,,2542,-50.66660841,25.33330301,1,0,0,response7disk,,1,-15.9999814,-2.666677475,1,0,0,rectangle,-15.9999814,-2.666677475,1,0,0,-15.9999814,-2.666677475,1,0,0,0,119,119,124,1,,,,,,,,
,,,,,,,,,,,,,FF,,,,,,,,0.983,,,,,,,,,,,,,,,,,,,,,,60ff1726b3096f1b1b4efb22,61036a68cd475cdc97453bd5,2021-07-29_21h57.48.600,Simcolourproject_2stim_asymm_v5,2020.2.10,Win32,60,61025ae37ef11b136ea224fe,,,,,,,,,2574,16.66668624,41.33330349,1,0,0,response1disk,,7,-8.666607161,1.333322644,1,0,0,rectangle,-8.666607161,1.333322644,1,0,0,-8.666607161,1.333322644,1,0,0,0,120,120,142,1,,,,,,,,
,,,,,,,,,,,,,FF,,,,,,,,1.0824,,,,,,,,,,,,,,,,,,,,,,60ff1726b3096f1b1b4efb22,61036a68cd475cdc97453bd5,2021-07-29_21h57.48.600,Simcolourproject_2stim_asymm_v5,2020.2.10,Win32,60,61025ae37ef11b136ea224fe,,,,,,,,,1140,28.66668659,53.99999088,1,0,0,response1disk,,7,10.00001937,9.333322883,1,0,0,rectangle,10.00001937,9.333322883,1,0,0,10.00001937,9.333322883,1,0,0,0,121,121,121,1,,,,,,,,
,,,,,,,,,,,,,FF,,,,,,,,1.0159,,,,,,,,,,,,,,,,,,,,,,60ff1726b3096f1b1b4efb22,61036a68cd475cdc97453bd5,2021-07-29_21h57.48.600,Simcolourproject_2stim_asymm_v5,2020.2.10,Win32,60,61025ae37ef11b136ea224fe,,,,,,,,,226,68.0000211,47.33330367,1,0,0,response1disk,,6,18.00001961,4.666656077,1,0,0,rectangle,18.00001961,4.666656077,1,0,0,18.00001961,4.666656077,1,0,0,0,122,122,22,1,,,,,,,,
,,,,,,,,,,,,,FF,,,,,,,,1.3495,,,,,,,,,,,,,,,,,,,,,,60ff1726b3096f1b1b4efb22,61036a68cd475cdc97453bd5,2021-07-29_21h57.48.600,Simcolourproject_2stim_asymm_v5,2020.2.10,Win32,60,61025ae37ef11b136ea224fe,,,,,,,,,117,40.00002027,-24.00001144,1,0,0,response3disk,,5,13.33339349,-6.000010908,1,0,0,rectangle,13.33339349,-6.000010908,1,0,0,13.33339349,-6.000010908,1,0,0,0,123,123,151,1,,,,,,,,
,,,,,,,,,,,,,FF,,,,,,,,1.5157,,,,,,,,,,,,,,,,,,,,,,60ff1726b3096f1b1b4efb22,61036a68cd475cdc97453bd5,2021-07-29_21h57.48.600,Simcolourproject_2stim_asymm_v5,2020.2.10,Win32,60,61025ae37ef11b136ea224fe,,,,,,,,,2203,48.66668719,25.99999005,1,0,0,response1disk,,6,23.33339379,8.666656196,1,0,0,rectangle,23.33339379,8.666656196,1,0,0,23.33339379,8.666656196,1,0,0,0,124,124,81,1,,,,,,,,
,,,,,,,,,,,,,FF,,,,,,,,1.0656,,,,,,,,,,,,,,,,,,,,,,60ff1726b3096f1b1b4efb22,61036a68cd475cdc97453bd5,2021-07-29_21h57.48.600,Simcolourproject_2stim_asymm_v5,2020.2.10,Win32,60,61025ae37ef11b136ea224fe,,,,,,,,,904,48.0000205,29.33330313,1,0,0,response1disk,,6,24.00001979,11.33332294,1,0,0,rectangle,24.00001979,11.33332294,1,0,0,24.00001979,11.33332294,1,0,0,0,125,125,31,1,,,,,,,,
,,,,,,,,,,,,,FF,,,,,,,,1.199,,,,,,,,,,,,,,,,,,,,,,60ff1726b3096f1b1b4efb22,61036a68cd475cdc97453bd5,2021-07-29_21h57.48.600,Simcolourproject_2stim_asymm_v5,2020.2.10,Win32,60,61025ae37ef11b136ea224fe,,,,,,,,,54,48.66668719,26.66665673,1,0,0,response1disk,,6,18.6666863,4.666656077,1,0,0,rectangle,18.6666863,4.666656077,1,0,0,18.6666863,4.666656077,1,0,0,0,126,126,102,1,,,,,,,,
,,,,,,,,,,,,,FF,,,,,,,,1.1325,,,,,,,,,,,,,,,,,,,,,,60ff1726b3096f1b1b4efb22,61036a68cd475cdc97453bd5,2021-07-29_21h57.48.600,Simcolourproject_2stim_asymm_v5,2020.2.10,Win32,60,61025ae37ef11b136ea224fe,,,,,,,,,1696,38.00002021,-19.33334464,1,0,0,response3disk,,5,14.00001949,-4.000010848,1,0,0,rectangle,-29.99998182,61.99999112,1,0,0,1.333393137,-1.07288E-05,1,0,0,0,127,127,106,1,,response7disk_3,TRUE,0,0,"[252,233,185,144,70,86,254,3,317,96,257,225,128,134,312,321,211,95,187,170]",1.7153,rectangle
,,,,,,,,,,,,,FF,,,,,,,,1.0824,,,,,,,,,,,,,,,,,,,,,,60ff1726b3096f1b1b4efb22,61036a68cd475cdc97453bd5,2021-07-29_21h57.48.600,Simcolourproject_2stim_asymm_v5,2020.2.10,Win32,60,61025ae37ef11b136ea224fe,,,,,,,,,2522,24.66668648,45.33330361,1,0,0,response1disk,,7,0.66668576,0.666655958,1,0,0,rectangle,0.66668576,0.666655958,1,0,0,0.66668576,0.666655958,1,0,0,0,128,128,147,1,,,,,,,,
,,,,,,,,,,,,,FF,,,,,,,,2.0486,,,,,,,,,,,,,,,,,,,,,,60ff1726b3096f1b1b4efb22,61036a68cd475cdc97453bd5,2021-07-29_21h57.48.600,Simcolourproject_2stim_asymm_v5,2020.2.10,Win32,60,61025ae37ef11b136ea224fe,,,,,,,,,2950,31.33339403,-16.66667789,1,0,0,response3disk,,5,-3.333314359,1.999989331,1,0,0,rectangle,-3.333314359,1.999989331,1,0,0,-3.333314359,1.999989331,1,0,0,0,129,129,157,1,,,,,,,,
,,,,,,,,,,,,,FF,,,,,,,,1.1825,,,,,,,,,,,,,,,,,,,,,,60ff1726b3096f1b1b4efb22,61036a68cd475cdc97453bd5,2021-07-29_21h57.48.600,Simcolourproject_2stim_asymm_v5,2020.2.10,Win32,60,61025ae37ef11b136ea224fe,,,,,,,,,3504,-21.3333149,-36.0000118,1,0,0,response5disk,,3,0.66668576,5.99998945,1,0,0,rectangle,0.66668576,5.99998945,1,0,0,0.66668576,5.99998945,1,0,0,0,130,130,0,1,,,,,,,,
,,,,,,,,,,,,,FF,,,,,,,,2.0652,,,,,,,,,,,,,,,,,,,,,,60ff1726b3096f1b1b4efb22,61036a68cd475cdc97453bd5,2021-07-29_21h57.48.600,Simcolourproject_2stim_asymm_v5,2020.2.10,Win32,60,61025ae37ef11b136ea224fe,,,,,,,,,2710,-26.6666077,-48.00001216,1,0,0,response5disk,,3,10.66668606,13.99998969,1,0,0,rectangle,10.66668606,13.99998969,1,0,0,10.66668606,13.99998969,1,0,0,0,131,131,150,1,,,,,,,,
,,,,,,,,,,,,,FF,,,,,,,,1.4656,,,,,,,,,,,,,,,,,,,,,,60ff1726b3096f1b1b4efb22,61036a68cd475cdc97453bd5,2021-07-29_21h57.48.600,Simcolourproject_2stim_asymm_v5,2020.2.10,Win32,60,61025ae37ef11b136ea224fe,,,,,,,,,3387,42.00002033,-15.33334452,1,0,0,response3disk,,5,14.00001949,1.333322644,1,0,0,rectangle,14.00001949,1.333322644,1,0,0,14.00001949,1.333322644,1,0,0,0,132,132,17,1,,,,,,,,
,,,,,,,,,,,,,FF,,,,,,,,1.0157,,,,,,,,,,,,,,,,,,,,,,60ff1726b3096f1b1b4efb22,61036a68cd475cdc97453bd5,2021-07-29_21h57.48.600,Simcolourproject_2stim_asymm_v5,2020.2.10,Win32,60,61025ae37ef11b136ea224fe,,,,,,,,,770,18.00001961,33.99999028,1,0,0,response1disk,,7,5.333393256,4.666656077,1,0,0,rectangle,37.33339421,67.33330427,1,0,0,2.66668582,-0.666677415,1,0,0,0,133,133,75,1,,response1disk_3,TRUE,7,7,"[252,233,185,144,70,86,254,3,317,96,257,225,128,134,312,321,211,95,187,170]",1.8318,rectangle
,,,,,,,,,,,,,FF,,,,,,,,1.649,,,,,,,,,,,,,,,,,,,,,,60ff1726b3096f1b1b4efb22,61036a68cd475cdc97453bd5,2021-07-29_21h57.48.600,Simcolourproject_2stim_asymm_v5,2020.2.10,Win32,60,61025ae37ef11b136ea224fe,,,,,,,,,3968,-47.99998236,-24.66667813,1,0,0,response5disk,,2,-16.6666074,-0.666677415,1,0,0,rectangle,-16.6666074,-0.666677415,1,0,0,-16.6666074,-0.666677415,1,0,0,0,134,134,79,1,,,,,,,,
,,,,,,,,,,,,,FF,,,,,,,,1.5158,,,,,,,,,,,,,,,,,,,,,,60ff1726b3096f1b1b4efb22,61036a68cd475cdc97453bd5,2021-07-29_21h57.48.600,Simcolourproject_2stim_asymm_v5,2020.2.10,Win32,60,61025ae37ef11b136ea224fe,,,,,,,,,1603,-41.33331549,27.99999011,1,0,0,response7disk,,1,-11.3333146,-2.000010788,1,0,0,rectangle,-11.3333146,-2.000010788,1,0,0,-11.3333146,-2.000010788,1,0,0,0,135,135,42,1,,,,,,,,
,,,,,,,,,,,,,FF,,,,,,,,1.3821,,,,,,,,,,,,,,,,,,,,,,60ff1726b3096f1b1b4efb22,61036a68cd475cdc97453bd5,2021-07-29_21h57.48.600,Simcolourproject_2stim_asymm_v5,2020.2.10,Win32,60,61025ae37ef11b136ea224fe,,,,,,,,,1735,-24.66660764,-32.66667837,1,0,0,response5disk,,3,-3.999981046,-1.333344102,1,0,0,rectangle,-3.999981046,-1.333344102,1,0,0,-3.999981046,-1.333344102,1,0,0,0,136,136,99,1,,,,,,,,
,,,,,,,,,,,,,FF,,,,,,,,2.1816,,,,,,,,,,,,,,,,,,,,,,60ff1726b3096f1b1b4efb22,61036a68cd475cdc97453bd5,2021-07-29_21h57.48.600,Simcolourproject_2stim_asymm_v5,2020.2.10,Win32,60,61025ae37ef11b136ea224fe,,,,,,,,,3653,57.33335412,32.66665691,1,0,0,response1disk,,6,14.66668618,3.99998939,1,0,0,rectangle,14.66668618,3.99998939,1,0,0,14.66668618,3.99998939,1,0,0,0,137,137,25,1,,,,,,,,
,,,,,,,,,,,,,FF,,,,,,,,1.2987,,,,,,,,,,,,,,,,,,,,,,60ff1726b3096f1b1b4efb22,61036a68cd475cdc97453bd5,2021-07-29_21h57.48.600,Simcolourproject_2stim_asymm_v5,2020.2.10,Win32,60,61025ae37ef11b136ea224fe,,,,,,,,,3514,-40.66660812,-26.66667819,1,0,0,response5disk,,2,-11.99998128,-2.000010788,1,0,0,rectangle,-11.99998128,-2.000010788,1,0,0,-11.99998128,-2.000010788,1,0,0,0,138,138,90,1,,,,,,,,
,,,,,,,,,,,,,FF,,,,,,,,1.1657,,,,,,,,,,,,,,,,,,,,,,60ff1726b3096f1b1b4efb22,61036a68cd475cdc97453bd5,2021-07-29_21h57.48.600,Simcolourproject_2stim_asymm_v5,2020.2.10,Win32,60,61025ae37ef11b136ea224fe,,,,,,,,,3704,25.33339385,39.99999046,1,0,0,response1disk,,7,9.333393375,13.99998969,1,0,0,rectangle,9.333393375,13.99998969,1,0,0,9.333393375,13.99998969,1,0,0,0,139,139,66,1,,,,,,,,
,,,,,,,,,,,,,FF,,,,,,,,1.2823,,,,,,,,,,,,,,,,,,,,,,60ff1726b3096f1b1b4efb22,61036a68cd475cdc97453bd5,2021-07-29_21h57.48.600,Simcolourproject_2stim_asymm_v5,2020.2.10,Win32,60,61025ae37ef11b136ea224fe,,,,,,,,,3764,18.6666863,31.33330319,1,0,0,response1disk,,7,2.66668582,-2.666677475,1,0,0,rectangle,2.66668582,-2.666677475,1,0,0,2.66668582,-2.666677475,1,0,0,0,140,140,80,1,,,,,,,,
,,,,,,,,,,,,,FF,,,,,,,,1.4158,,,,,,,,,,,,,,,,,,,,,,60ff1726b3096f1b1b4efb22,61036a68cd475cdc97453bd5,2021-07-29_21h57.48.600,Simcolourproject_2stim_asymm_v5,2020.2.10,Win32,60,61025ae37ef11b136ea224fe,,,,,,,,,1239,25.33339385,-23.33334476,1,0,0,response3disk,,5,7.333393315,-6.666677594,1,0,0,rectangle,7.333393315,-6.666677594,1,0,0,7.333393315,-6.666677594,1,0,0,0,141,141,96,1,,,,,,,,
,,,,,,,,,,,,,FF,,,,,,,,1.2322,,,,,,,,,,,,,,,,,,,,,,60ff1726b3096f1b1b4efb22,61036a68cd475cdc97453bd5,2021-07-29_21h57.48.600,Simcolourproject_2stim_asymm_v5,2020.2.10,Win32,60,61025ae37ef11b136ea224fe,,,,,,,,,2557,18.00001961,50.66665745,1,0,0,response1disk,,7,1.333393137,4.666656077,1,0,0,rectangle,1.333393137,4.666656077,1,0,0,1.333393137,4.666656077,1,0,0,0,142,142,111,1,,,,,,,,
,,,,,,,,,,,,,FF,,,,,,,,1.3156,,,,,,,,,,,,,,,,,,,,,,60ff1726b3096f1b1b4efb22,61036a68cd475cdc97453bd5,2021-07-29_21h57.48.600,Simcolourproject_2stim_asymm_v5,2020.2.10,Win32,60,61025ae37ef11b136ea224fe,,,,,,,,,1663,34.00002009,19.33330284,1,0,0,response1disk,,6,6.666685939,-6.000010908,1,0,0,rectangle,-25.33331501,-54.66667902,1,0,0,8.000019312,-2.666677475,1,0,0,0,143,143,21,1,,response5disk_3,TRUE,3,3,"[252,233,185,144,70,86,254,3,317,96,257,225,128,134,312,321,211,95,187,170]",2.0478,rectangle
,,,,,,,,,,,,,FF,,,,,,,,1.0159,,,,,,,,,,,,,,,,,,,,,,60ff1726b3096f1b1b4efb22,61036a68cd475cdc97453bd5,2021-07-29_21h57.48.600,Simcolourproject_2stim_asymm_v5,2020.2.10,Win32,60,61025ae37ef11b136ea224fe,,,,,,,,,1706,18.6666863,34.66665697,1,0,0,response1disk,,7,4.000019193,4.666656077,1,0,0,rectangle,4.000019193,4.666656077,1,0,0,4.000019193,4.666656077,1,0,0,0,144,144,35,1,,,,,,,,
,,,,,,,,,,,,,FF,,,,,,,,1.2491,,,,,,,,,,,,,,,,,,,,,,60ff1726b3096f1b1b4efb22,61036a68cd475cdc97453bd5,2021-07-29_21h57.48.600,Simcolourproject_2stim_asymm_v5,2020.2.10,Win32,60,61025ae37ef11b136ea224fe,,,,,,,,,3780,-30.66660782,-36.66667849,1,0,0,response5disk,,3,5.333393256,5.333322763,1,0,0,rectangle,5.333393256,5.333322763,1,0,0,5.333393256,5.333322763,1,0,0,0,145,145,155,1,,,,,,,,
,,,,,,,,,,,,,FF,,,,,,,,1.1489,,,,,,,,,,,,,,,,,,,,,,60ff1726b3096f1b1b4efb22,61036a68cd475cdc97453bd5,2021-07-29_21h57.48.600,Simcolourproject_2stim_asymm_v5,2020.2.10,Win32,60,61025ae37ef11b136ea224fe,,,,,,,,,2166,-39.99998212,-17.33334458,1,0,0,response5disk,,2,-1.3333143,2.666656017,1,0,0,rectangle,-1.3333143,2.666656017,1,0,0,-1.3333143,2.666656017,1,0,0,0,146,146,91,1,,,,,,,,
,,,,,,,,,,,,,FF,,,,,,,,1.6823,,,,,,,,,,,,,,,,,,,,,,60ff1726b3096f1b1b4efb22,61036a68cd475cdc97453bd5,2021-07-29_21h57.48.600,Simcolourproject_2stim_asymm_v5,2020.2.10,Win32,60,61025ae37ef11b136ea224fe,,,,,,,,,498,52.00002062,31.33330319,1,0,0,response1disk,,6,-3.999981046,0.666655958,1,0,0,rectangle,-3.999981046,0.666655958,1,0,0,-3.999981046,0.666655958,1,0,0,0,147,147,133,1,,,,,,,,
,,,,,,,,,,,,,FF,,,,,,,,1.3989,,,,,,,,,,,,,,,,,,,,,,60ff1726b3096f1b1b4efb22,61036a68cd475cdc97453bd5,2021-07-29_21h57.48.600,Simcolourproject_2stim_asymm_v5,2020.2.10,Win32,60,61025ae37ef11b136ea224fe,,,,,,,,,2902,-37.33331537,-54.66667902,1,0,0,response5disk,,3,-0.666606923,-6.666677594,1,0,0,rectangle,-0.666606923,-6.666677594,1,0,0,-0.666606923,-6.666677594,1,0,0,0,148,148,52,1,,,,,,,,
,,,,,,,,,,,,,FF,,,,,,,,2.581,,,,,,,,,,,,,,,,,,,,,,60ff1726b3096f1b1b4efb22,61036a68cd475cdc97453bd5,2021-07-29_21h57.48.600,Simcolourproject_2stim_asymm_v5,2020.2.10,Win32,60,61025ae37ef11b136ea224fe,,,,,,,,,2707,51.33335394,26.66665673,1,0,0,response1disk,,6,14.00001949,-1.333344102,1,0,0,rectangle,14.00001949,-1.333344102,1,0,0,14.00001949,-1.333344102,1,0,0,0,149,149,131,1,,,,,,,,
,,,,,,,,,,,,,FF,,,,,,,,2.1646,,,,,,,,,,,,,,,,,,,,,,60ff1726b3096f1b1b4efb22,61036a68cd475cdc97453bd5,2021-07-29_21h57.48.600,Simcolourproject_2stim_asymm_v5,2020.2.10,Win32,60,61025ae37ef11b136ea224fe,,,,,,,,,3119,30.00001997,45.99999064,1,0,0,response1disk,,7,9.333393375,4.666656077,1,0,0,rectangle,9.333393375,4.666656077,1,0,0,9.333393375,4.666656077,1,0,0,0,150,150,19,1,,,,,,,,
,,,,,,,,,,,,,FF,,,,,,,,1.5986,,,,,,,,,,,,,,,,,,,,,,60ff1726b3096f1b1b4efb22,61036a68cd475cdc97453bd5,2021-07-29_21h57.48.600,Simcolourproject_2stim_asymm_v5,2020.2.10,Win32,60,61025ae37ef11b136ea224fe,,,,,,,,,2890,-40.66660812,-22.66667807,1,0,0,response5disk,,2,-3.333314359,2.666656017,1,0,0,rectangle,-3.333314359,2.666656017,1,0,0,-3.333314359,2.666656017,1,0,0,0,151,151,32,1,,,,,,,,
,,,,,,,,,,,,,FF,,,,,,,,1.2492,,,,,,,,,,,,,,,,,,,,,,60ff1726b3096f1b1b4efb22,61036a68cd475cdc97453bd5,2021-07-29_21h57.48.600,Simcolourproject_2stim_asymm_v5,2020.2.10,Win32,60,61025ae37ef11b136ea224fe,,,,,,,,,2615,-40.66660812,-19.33334464,1,0,0,response5disk,,2,-13.33331466,3.99998939,1,0,0,rectangle,-13.33331466,3.99998939,1,0,0,-13.33331466,3.99998939,1,0,0,0,152,152,54,1,,,,,,,,
,,,,,,,,,,,,,FF,,,,,,,,1.0322,,,,,,,,,,,,,,,,,,,,,,60ff1726b3096f1b1b4efb22,61036a68cd475cdc97453bd5,2021-07-29_21h57.48.600,Simcolourproject_2stim_asymm_v5,2020.2.10,Win32,60,61025ae37ef11b136ea224fe,,,,,,,,,2471,22.00001973,59.99999106,1,0,0,response1disk,,7,-5.999981105,-2.000010788,1,0,0,rectangle,-5.999981105,-2.000010788,1,0,0,-5.999981105,-2.000010788,1,0,0,0,153,153,76,1,,,,,,,,
,,,,,,,,,,,,,FF,,,,,,,,0.9492,,,,,,,,,,,,,,,,,,,,,,60ff1726b3096f1b1b4efb22,61036a68cd475cdc97453bd5,2021-07-29_21h57.48.600,Simcolourproject_2stim_asymm_v5,2020.2.10,Win32,60,61025ae37ef11b136ea224fe,,,,,,,,,4196,14.00001949,30.66665685,1,0,0,response1disk,,7,-1.3333143,-2.666677475,1,0,0,rectangle,-1.3333143,-2.666677475,1,0,0,-1.3333143,-2.666677475,1,0,0,0,154,154,89,1,,,,,,,,
,,,,,,,,,,,,,FF,,,,,,,,1.2489,,,,,,,,,,,,,,,,,,,,,,60ff1726b3096f1b1b4efb22,61036a68cd475cdc97453bd5,2021-07-29_21h57.48.600,Simcolourproject_2stim_asymm_v5,2020.2.10,Win32,60,61025ae37ef11b136ea224fe,,,,,,,,,359,20.00001967,30.66665685,1,0,0,response1disk,,7,7.333393315,7.333322823,1,0,0,rectangle,7.333393315,7.333322823,1,0,0,7.333393315,7.333322823,1,0,0,0,155,155,88,1,,,,,,,,
,,,,,,,,,,,,,FF,,,,,,,,1.2324,,,,,,,,,,,,,,,,,,,,,,60ff1726b3096f1b1b4efb22,61036a68cd475cdc97453bd5,2021-07-29_21h57.48.600,Simcolourproject_2stim_asymm_v5,2020.2.10,Win32,60,61025ae37ef11b136ea224fe,,,,,,,,,3428,-41.33331549,-16.66667789,1,0,0,response5disk,,2,-13.99998134,3.333322704,1,0,0,rectangle,-13.99998134,3.333322704,1,0,0,-13.99998134,3.333322704,1,0,0,0,156,156,15,1,,,,,,,,
,,,,,,,,,,,,,FF,,,,,,,,3.3141,,,,,,,,,,,,,,,,,,,,,,60ff1726b3096f1b1b4efb22,61036a68cd475cdc97453bd5,2021-07-29_21h57.48.600,Simcolourproject_2stim_asymm_v5,2020.2.10,Win32,60,61025ae37ef11b136ea224fe,,,,,,,,,1872,55.33335406,32.66665691,1,0,0,response1disk,,6,12.00001943,-0.666677415,1,0,0,rectangle,12.00001943,-0.666677415,1,0,0,12.00001943,-0.666677415,1,0,0,0,157,157,92,1,,,,,,,,
,,,,,,,,,,,,,FF,,,,,,,,1.2491,,,,,,,,,,,,,,,,,,,,,,60ff1726b3096f1b1b4efb22,61036a68cd475cdc97453bd5,2021-07-29_21h57.48.600,Simcolourproject_2stim_asymm_v5,2020.2.10,Win32,60,61025ae37ef11b136ea224fe,,,,,,,,,2089,29.33339397,-26.0000115,1,0,0,response3disk,,5,2.000019133,-1.333344102,1,0,0,rectangle,2.000019133,-1.333344102,1,0,0,2.000019133,-1.333344102,1,0,0,0,158,158,117,1,,,,,,,,
,,,,,,,,,,,,,FF,,,,,,,,1.7984,,,,,,,,,,,,,,,,,,,,,,60ff1726b3096f1b1b4efb22,61036a68cd475cdc97453bd5,2021-07-29_21h57.48.600,Simcolourproject_2stim_asymm_v5,2020.2.10,Win32,60,61025ae37ef11b136ea224fe,,,,,,,,,2886,-39.33331543,49.33330373,1,0,0,response7disk,,0,-7.333314478,6.666656137,1,0,0,rectangle,-7.333314478,6.666656137,1,0,0,-7.333314478,6.666656137,1,0,0,0,159,159,40,1,,,,,,,,
,,,,,,,,,,,,,FF,,,,,,,,1.1328,,,,,,,,,,,,,,,,,,,,,,60ff1726b3096f1b1b4efb22,61036a68cd475cdc97453bd5,2021-07-29_21h57.48.600,Simcolourproject_2stim_asymm_v5,2020.2.10,Win32,60,61025ae37ef11b136ea224fe,,,,,,,,,398,24.00001979,39.33330343,1,0,0,response1disk,,7,4.666685879,8.666656196,1,0,0,rectangle,4.666685879,8.666656196,1,0,0,4.666685879,8.666656196,1,0,0,1,0,160,105,1,,,,,,,,
,,,,,,,,,,,,,FF,,,,,,,,1.2161,,,,,,,,,,,,,,,,,,,,,,60ff1726b3096f1b1b4efb22,61036a68cd475cdc97453bd5,2021-07-29_21h57.48.600,Simcolourproject_2stim_asymm_v5,2020.2.10,Win32,60,61025ae37ef11b136ea224fe,,,,,,,,,2708,37.33339421,32.66665691,1,0,0,response1disk,,6,-0.666606923,-3.333344162,1,0,0,rectangle,-0.666606923,-3.333344162,1,0,0,-0.666606923,-3.333344162,1,0,0,1,1,161,68,1,,,,,,,,
,,,,,,,,,,,,,FF,,,,,,,,2.3314,,,,,,,,,,,,,,,,,,,,,,60ff1726b3096f1b1b4efb22,61036a68cd475cdc97453bd5,2021-07-29_21h57.48.600,Simcolourproject_2stim_asymm_v5,2020.2.10,Win32,60,61025ae37ef11b136ea224fe,,,,,,,,,2176,20.66668636,-39.33334523,1,0,0,response3disk,,4,6.666685939,3.99998939,1,0,0,rectangle,6.666685939,3.99998939,1,0,0,6.666685939,3.99998939,1,0,0,1,2,162,120,1,,,,,,,,
,,,,,,,,,,,,,FF,,,,,,,,2.0651,,,,,,,,,,,,,,,,,,,,,,60ff1726b3096f1b1b4efb22,61036a68cd475cdc97453bd5,2021-07-29_21h57.48.600,Simcolourproject_2stim_asymm_v5,2020.2.10,Win32,60,61025ae37ef11b136ea224fe,,,,,,,,,1967,26.66668653,-53.33334565,1,0,0,response3disk,,4,10.00001937,7.333322823,1,0,0,rectangle,10.00001937,7.333322823,1,0,0,10.00001937,7.333322823,1,0,0,1,3,163,4,1,,,,,,,,
,,,,,,,,,,,,,FF,,,,,,,,1.4655,,,,,,,,,,,,,,,,,,,,,,60ff1726b3096f1b1b4efb22,61036a68cd475cdc97453bd5,2021-07-29_21h57.48.600,Simcolourproject_2stim_asymm_v5,2020.2.10,Win32,60,61025ae37ef11b136ea224fe,,,,,,,,,3389,-54.66660853,29.33330313,1,0,0,response7disk,,1,-14.66660734,-1.07288E-05,1,0,0,rectangle,-14.66660734,-1.07288E-05,1,0,0,-14.66660734,-1.07288E-05,1,0,0,1,4,164,46,1,,,,,,,,
,,,,,,,,,,,,,FF,,,,,,,,1.6322,,,,,,,,,,,,,,,,,,,,,,60ff1726b3096f1b1b4efb22,61036a68cd475cdc97453bd5,2021-07-29_21h57.48.600,Simcolourproject_2stim_asymm_v5,2020.2.10,Win32,60,61025ae37ef11b136ea224fe,,,,,,,,,552,41.33339433,-20.00001132,1,0,0,response3disk,,5,1.333393137,1.333322644,1,0,0,rectangle,1.333393137,1.333322644,1,0,0,1.333393137,1.333322644,1,0,0,1,5,165,141,1,,,,,,,,
,,,,,,,,,,,,,FF,,,,,,,,1.1157,,,,,,,,,,,,,,,,,,,,,,60ff1726b3096f1b1b4efb22,61036a68cd475cdc97453bd5,2021-07-29_21h57.48.600,Simcolourproject_2stim_asymm_v5,2020.2.10,Win32,60,61025ae37ef11b136ea224fe,,,,,,,,,4271,34.00002009,89.33330492,1,0,0,response1disk,,7,-0.666606923,0.666655958,1,0,0,rectangle,-0.666606923,0.666655958,1,0,0,-0.666606923,0.666655958,1,0,0,1,6,166,20,1,,,,,,,,
,,,,,,,,,,,,,FF,,,,,,,,1.6987,,,,,,,,,,,,,,,,,,,,,,60ff1726b3096f1b1b4efb22,61036a68cd475cdc97453bd5,2021-07-29_21h57.48.600,Simcolourproject_2stim_asymm_v5,2020.2.10,Win32,60,61025ae37ef11b136ea224fe,,,,,,,,,2951,39.33339427,17.99998981,1,0,0,response1disk,,6,11.33339343,1.333322644,1,0,0,rectangle,11.33339343,1.333322644,1,0,0,11.33339343,1.333322644,1,0,0,1,7,167,54,1,,,,,,,,
,,,,,,,,,,,,,FF,,,,,,,,0.9993,,,,,,,,,,,,,,,,,,,,,,60ff1726b3096f1b1b4efb22,61036a68cd475cdc97453bd5,2021-07-29_21h57.48.600,Simcolourproject_2stim_asymm_v5,2020.2.10,Win32,60,61025ae37ef11b136ea224fe,,,,,,,,,1178,25.33339385,58.66665769,1,0,0,response1disk,,7,-2.666606983,-2.000010788,1,0,0,rectangle,-2.666606983,-2.000010788,1,0,0,-2.666606983,-2.000010788,1,0,0,1,8,168,158,1,,,,,,,,
,,,,,,,,,,,,,FF,,,,,,,,1.2992,,,,,,,,,,,,,,,,,,,,,,60ff1726b3096f1b1b4efb22,61036a68cd475cdc97453bd5,2021-07-29_21h57.48.600,Simcolourproject_2stim_asymm_v5,2020.2.10,Win32,60,61025ae37ef11b136ea224fe,,,,,,,,,4252,-45.9999823,26.66665673,1,0,0,response7disk,,1,-0.666606923,-6.000010908,1,0,0,rectangle,26.66668653,60.66665775,1,0,0,0.66668576,3.99998939,1,0,0,1,9,169,91,1,,response1disk_3,TRUE,7,7,"[252,233,185,144,70,86,254,3,317,96,257,225,128,134,312,321,211,95,187,170]",2.0317,rectangle
,,,,,,,,,,,,,FF,,,,,,,,1.0992,,,,,,,,,,,,,,,,,,,,,,60ff1726b3096f1b1b4efb22,61036a68cd475cdc97453bd5,2021-07-29_21h57.48.600,Simcolourproject_2stim_asymm_v5,2020.2.10,Win32,60,61025ae37ef11b136ea224fe,,,,,,,,,750,34.66668677,41.33330349,1,0,0,response1disk,,7,-2.666606983,-8.666677654,1,0,0,rectangle,-2.666606983,-8.666677654,1,0,0,-2.666606983,-8.666677654,1,0,0,1,10,170,129,1,,,,,,,,
,,,,,,,,,,,,,FF,,,,,,,,1.5487,,,,,,,,,,,,,,,,,,,,,,60ff1726b3096f1b1b4efb22,61036a68cd475cdc97453bd5,2021-07-29_21h57.48.600,Simcolourproject_2stim_asymm_v5,2020.2.10,Win32,60,61025ae37ef11b136ea224fe,,,,,,,,,2152,45.33335376,-36.66667849,1,0,0,response3disk,,5,10.66668606,2.666656017,1,0,0,rectangle,10.66668606,2.666656017,1,0,0,10.66668606,2.666656017,1,0,0,1,11,171,130,1,,,,,,,,
,,,,,,,,,,,,,FF,,,,,,,,2.1315,,,,,,,,,,,,,,,,,,,,,,60ff1726b3096f1b1b4efb22,61036a68cd475cdc97453bd5,2021-07-29_21h57.48.600,Simcolourproject_2stim_asymm_v5,2020.2.10,Win32,60,61025ae37ef11b136ea224fe,,,,,,,,,617,22.66668642,-49.33334553,1,0,0,response3disk,,4,0.66668576,4.666656077,1,0,0,rectangle,0.66668576,4.666656077,1,0,0,0.66668576,4.666656077,1,0,0,1,12,172,143,1,,,,,,,,
,,,,,,,,,,,,,FF,,,,,,,,0.9991,,,,,,,,,,,,,,,,,,,,,,60ff1726b3096f1b1b4efb22,61036a68cd475cdc97453bd5,2021-07-29_21h57.48.600,Simcolourproject_2stim_asymm_v5,2020.2.10,Win32,60,61025ae37ef11b136ea224fe,,,,,,,,,3904,20.66668636,41.99999052,1,0,0,response1disk,,7,8.666685998,5.333322763,1,0,0,rectangle,8.666685998,5.333322763,1,0,0,8.666685998,5.333322763,1,0,0,1,13,173,25,1,,,,,,,,
,,,,,,,,,,,,,FF,,,,,,,,1.016,,,,,,,,,,,,,,,,,,,,,,60ff1726b3096f1b1b4efb22,61036a68cd475cdc97453bd5,2021-07-29_21h57.48.600,Simcolourproject_2stim_asymm_v5,2020.2.10,Win32,60,61025ae37ef11b136ea224fe,,,,,,,,,1101,26.00001985,72.6666581,1,0,0,response1disk,,7,3.333393196,8.666656196,1,0,0,rectangle,3.333393196,8.666656196,1,0,0,3.333393196,8.666656196,1,0,0,1,14,174,1,1,,,,,,,,
,,,,,,,,,,,,,FF,,,,,,,,8.21,,,,,,,,,,,,,,,,,,,,,,60ff1726b3096f1b1b4efb22,61036a68cd475cdc97453bd5,2021-07-29_21h57.48.600,Simcolourproject_2stim_asymm_v5,2020.2.10,Win32,60,61025ae37ef11b136ea224fe,,,,,,,,,3353,82.6666882,43.33330355,1,0,0,response1disk,,6,26.00001985,6.666656137,1,0,0,rectangle,26.00001985,6.666656137,1,0,0,26.00001985,6.666656137,1,0,0,1,15,175,102,1,,,,,,,,
,,,,,,,,,,,,,FF,,,,,,,,2.4979,,,,,,,,,,,,,,,,,,,,,,60ff1726b3096f1b1b4efb22,61036a68cd475cdc97453bd5,2021-07-29_21h57.48.600,Simcolourproject_2stim_asymm_v5,2020.2.10,Win32,60,61025ae37ef11b136ea224fe,,,,,,,,,2997,-25.33331501,-48.00001216,1,0,0,response5disk,,3,4.666685879,6.666656137,1,0,0,rectangle,4.666685879,6.666656137,1,0,0,4.666685879,6.666656137,1,0,0,1,16,176,101,1,,,,,,,,
,,,,,,,,,,,,,FF,,,,,,,,1.4322,,,,,,,,,,,,,,,,,,,,,,60ff1726b3096f1b1b4efb22,61036a68cd475cdc97453bd5,2021-07-29_21h57.48.600,Simcolourproject_2stim_asymm_v5,2020.2.10,Win32,60,61025ae37ef11b136ea224fe,,,,,,,,,377,60.00002086,-21.3333447,1,0,0,response3disk,,5,4.000019193,-0.666677415,1,0,0,rectangle,4.000019193,-0.666677415,1,0,0,4.000019193,-0.666677415,1,0,0,1,17,177,117,1,,,,,,,,
,,,,,,,,,,,,,FF,,,,,,,,1.349,,,,,,,,,,,,,,,,,,,,,,60ff1726b3096f1b1b4efb22,61036a68cd475cdc97453bd5,2021-07-29_21h57.48.600,Simcolourproject_2stim_asymm_v5,2020.2.10,Win32,60,61025ae37ef11b136ea224fe,,,,,,,,,2515,36.66668683,59.33330403,1,0,0,response1disk,,7,17.33339361,8.666656196,1,0,0,rectangle,17.33339361,8.666656196,1,0,0,17.33339361,8.666656196,1,0,0,1,18,178,0,1,,,,,,,,
,,,,,,,,,,,,,FF,,,,,,,,1.399,,,,,,,,,,,,,,,,,,,,,,60ff1726b3096f1b1b4efb22,61036a68cd475cdc97453bd5,2021-07-29_21h57.48.600,Simcolourproject_2stim_asymm_v5,2020.2.10,Win32,60,61025ae37ef11b136ea224fe,,,,,,,,,943,24.00001979,57.33330397,1,0,0,response1disk,,7,-0.666606923,6.666656137,1,0,0,rectangle,-0.666606923,6.666656137,1,0,0,-0.666606923,6.666656137,1,0,0,1,19,179,127,1,,,,,,,,
,,,,,,,,,,,,,FF,,,,,,,,1.7486,,,,,,,,,,,,,,,,,,,,,,60ff1726b3096f1b1b4efb22,61036a68cd475cdc97453bd5,2021-07-29_21h57.48.600,Simcolourproject_2stim_asymm_v5,2020.2.10,Win32,60,61025ae37ef11b136ea224fe,,,,,,,,,3091,26.66668653,-31.333345,1,0,0,response3disk,,4,-1.999980986,7.333322823,1,0,0,rectangle,-1.999980986,7.333322823,1,0,0,-1.999980986,7.333322823,1,0,0,1,20,180,135,1,,,,,,,,
,,,,,,,,,,,,,FF,,,,,,,,1.3323,,,,,,,,,,,,,,,,,,,,,,60ff1726b3096f1b1b4efb22,61036a68cd475cdc97453bd5,2021-07-29_21h57.48.600,Simcolourproject_2stim_asymm_v5,2020.2.10,Win32,60,61025ae37ef11b136ea224fe,,,,,,,,,739,58.0000208,-18.66667795,1,0,0,response3disk,,5,20.00001967,-7.333344281,1,0,0,rectangle,20.00001967,-7.333344281,1,0,0,20.00001967,-7.333344281,1,0,0,1,21,181,43,1,,,,,,,,
,,,,,,,,,,,,,FF,,,,,,,,1.4323,,,,,,,,,,,,,,,,,,,,,,60ff1726b3096f1b1b4efb22,61036a68cd475cdc97453bd5,2021-07-29_21h57.48.600,Simcolourproject_2stim_asymm_v5,2020.2.10,Win32,60,61025ae37ef11b136ea224fe,,,,,,,,,1307,-21.99998158,-47.33334547,1,0,0,response5disk,,3,8.666685998,3.333322704,1,0,0,rectangle,8.666685998,3.333322704,1,0,0,8.666685998,3.333322704,1,0,0,1,22,182,51,1,,,,,,,,
,,,,,,,,,,,,,FF,,,,,,,,1.3321,,,,,,,,,,,,,,,,,,,,,,60ff1726b3096f1b1b4efb22,61036a68cd475cdc97453bd5,2021-07-29_21h57.48.600,Simcolourproject_2stim_asymm_v5,2020.2.10,Win32,60,61025ae37ef11b136ea224fe,,,,,,,,,3796,37.33339421,53.33330385,1,0,0,response1disk,,7,12.66668612,9.999989569,1,0,0,rectangle,12.66668612,9.999989569,1,0,0,12.66668612,9.999989569,1,0,0,1,23,183,148,1,,,,,,,,
,,,,,,,,,,,,,FF,,,,,,,,0.9328,,,,,,,,,,,,,,,,,,,,,,60ff1726b3096f1b1b4efb22,61036a68cd475cdc97453bd5,2021-07-29_21h57.48.600,Simcolourproject_2stim_asymm_v5,2020.2.10,Win32,60,61025ae37ef11b136ea224fe,,,,,,,,,1858,32.66668671,67.9999913,1,0,0,response1disk,,7,6.000019252,4.666656077,1,0,0,rectangle,63.33335429,37.33330337,1,0,0,-1.999980986,3.99998939,1,0,0,1,24,184,112,1,,response1disk_3,TRUE,6,6,"[252,233,185,144,70,86,254,3,317,96,257,225,128,134,312,321,211,95,187,170]",2.0316,rectangle
,,,,,,,,,,,,,FF,,,,,,,,1.1658,,,,,,,,,,,,,,,,,,,,,,60ff1726b3096f1b1b4efb22,61036a68cd475cdc97453bd5,2021-07-29_21h57.48.600,Simcolourproject_2stim_asymm_v5,2020.2.10,Win32,60,61025ae37ef11b136ea224fe,,,,,,,,,987,54.00002068,-14.66667783,1,0,0,response3disk,,5,11.33339343,9.333322883,1,0,0,rectangle,11.33339343,9.333322883,1,0,0,11.33339343,9.333322883,1,0,0,1,25,185,128,1,,,,,,,,
,,,,,,,,,,,,,FF,,,,,,,,1.199,,,,,,,,,,,,,,,,,,,,,,60ff1726b3096f1b1b4efb22,61036a68cd475cdc97453bd5,2021-07-29_21h57.48.600,Simcolourproject_2stim_asymm_v5,2020.2.10,Win32,60,61025ae37ef11b136ea224fe,,,,,,,,,1070,42.00002033,-17.33334458,1,0,0,response3disk,,5,10.66668606,3.333322704,1,0,0,rectangle,-43.99998224,-82.66667986,1,0,0,-1.3333143,1.999989331,1,0,0,1,26,186,63,1,,response5disk_3,TRUE,3,3,"[252,233,185,144,70,86,254,3,317,96,257,225,128,134,312,321,211,95,187,170]",1.9151,rectangle
,,,,,,,,,,,,,FF,,,,,,,,1.116,,,,,,,,,,,,,,,,,,,,,,60ff1726b3096f1b1b4efb22,61036a68cd475cdc97453bd5,2021-07-29_21h57.48.600,Simcolourproject_2stim_asymm_v5,2020.2.10,Win32,60,61025ae37ef11b136ea224fe,,,,,,,,,470,46.66668713,17.99998981,1,0,0,response1disk,,6,18.00001961,5.333322763,1,0,0,rectangle,18.00001961,5.333322763,1,0,0,18.00001961,5.333322763,1,0,0,1,27,187,84,1,,,,,,,,
,,,,,,,,,,,,,FF,,,,,,,,1.0492,,,,,,,,,,,,,,,,,,,,,,60ff1726b3096f1b1b4efb22,61036a68cd475cdc97453bd5,2021-07-29_21h57.48.600,Simcolourproject_2stim_asymm_v5,2020.2.10,Win32,60,61025ae37ef11b136ea224fe,,,,,,,,,1072,43.3333537,29.99999017,1,0,0,response1disk,,6,14.00001949,3.333322704,1,0,0,rectangle,14.00001949,3.333322704,1,0,0,14.00001949,3.333322704,1,0,0,1,28,188,146,1,,,,,,,,
,,,,,,,,,,,,,FF,,,,,,,,1.4821,,,,,,,,,,,,,,,,,,,,,,60ff1726b3096f1b1b4efb22,61036a68cd475cdc97453bd5,2021-07-29_21h57.48.600,Simcolourproject_2stim_asymm_v5,2020.2.10,Win32,60,61025ae37ef11b136ea224fe,,,,,,,,,1168,27.33339391,57.999991,1,0,0,response1disk,,7,-1.3333143,7.333322823,1,0,0,rectangle,-1.3333143,7.333322823,1,0,0,-1.3333143,7.333322823,1,0,0,1,29,189,47,1,,,,,,,,
,,,,,,,,,,,,,FF,,,,,,,,1.1159,,,,,,,,,,,,,,,,,,,,,,60ff1726b3096f1b1b4efb22,61036a68cd475cdc97453bd5,2021-07-29_21h57.48.600,Simcolourproject_2stim_asymm_v5,2020.2.10,Win32,60,61025ae37ef11b136ea224fe,,,,,,,,,877,33.33339409,74.66665816,1,0,0,response1disk,,7,-0.666606923,13.99998969,1,0,0,rectangle,-0.666606923,13.99998969,1,0,0,-0.666606923,13.99998969,1,0,0,1,30,190,103,1,,,,,,,,
,,,,,,,,,,,,,FF,,,,,,,,1.166,,,,,,,,,,,,,,,,,,,,,,60ff1726b3096f1b1b4efb22,61036a68cd475cdc97453bd5,2021-07-29_21h57.48.600,Simcolourproject_2stim_asymm_v5,2020.2.10,Win32,60,61025ae37ef11b136ea224fe,,,,,,,,,390,16.66668624,39.99999046,1,0,0,response1disk,,7,1.333393137,9.999989569,1,0,0,rectangle,1.333393137,9.999989569,1,0,0,1.333393137,9.999989569,1,0,0,1,31,191,95,1,,,,,,,,
,,,,,,,,,,,,,FF,,,,,,,,0.9661,,,,,,,,,,,,,,,,,,,,,,60ff1726b3096f1b1b4efb22,61036a68cd475cdc97453bd5,2021-07-29_21h57.48.600,Simcolourproject_2stim_asymm_v5,2020.2.10,Win32,60,61025ae37ef11b136ea224fe,,,,,,,,,3730,38.00002021,64.66665787,1,0,0,response1disk,,7,4.666685879,9.333322883,1,0,0,rectangle,4.666685879,9.333322883,1,0,0,4.666685879,9.333322883,1,0,0,1,32,192,28,1,,,,,,,,
,,,,,,,,,,,,,FF,,,,,,,,0.9493,,,,,,,,,,,,,,,,,,,,,,60ff1726b3096f1b1b4efb22,61036a68cd475cdc97453bd5,2021-07-29_21h57.48.600,Simcolourproject_2stim_asymm_v5,2020.2.10,Win32,60,61025ae37ef11b136ea224fe,,,,,,,,,3448,30.66668665,50.66665745,1,0,0,response1disk,,7,1.333393137,-3.333344162,1,0,0,rectangle,1.333393137,-3.333344162,1,0,0,1.333393137,-3.333344162,1,0,0,1,33,193,12,1,,,,,,,,
,,,,,,,,,,,,,FF,,,,,,,,1.8651,,,,,,,,,,,,,,,,,,,,,,60ff1726b3096f1b1b4efb22,61036a68cd475cdc97453bd5,2021-07-29_21h57.48.600,Simcolourproject_2stim_asymm_v5,2020.2.10,Win32,60,61025ae37ef11b136ea224fe,,,,,,,,,4263,83.33335489,35.99999034,1,0,0,response1disk,,6,2.66668582,8.666656196,1,0,0,rectangle,2.66668582,8.666656196,1,0,0,2.66668582,8.666656196,1,0,0,1,34,194,24,1,,,,,,,,
,,,,,,,,,,,,,FF,,,,,,,,1.3822,,,,,,,,,,,,,,,,,,,,,,60ff1726b3096f1b1b4efb22,61036a68cd475cdc97453bd5,2021-07-29_21h57.48.600,Simcolourproject_2stim_asymm_v5,2020.2.10,Win32,60,61025ae37ef11b136ea224fe,,,,,,,,,577,66.66668773,26.66665673,1,0,0,response1disk,,6,18.00001961,7.333322823,1,0,0,rectangle,18.00001961,7.333322823,1,0,0,18.00001961,7.333322823,1,0,0,1,35,195,138,1,,,,,,,,
,,,,,,,,,,,,,FF,,,,,,,,1.2325,,,,,,,,,,,,,,,,,,,,,,60ff1726b3096f1b1b4efb22,61036a68cd475cdc97453bd5,2021-07-29_21h57.48.600,Simcolourproject_2stim_asymm_v5,2020.2.10,Win32,60,61025ae37ef11b136ea224fe,,,,,,,,,2679,27.33339391,51.33330379,1,0,0,response1disk,,7,-0.666606923,-6.000010908,1,0,0,rectangle,-0.666606923,-6.000010908,1,0,0,-0.666606923,-6.000010908,1,0,0,1,36,196,89,1,,,,,,,,
,,,,,,,,,,,,,FF,,,,,,,,1.2491,,,,,,,,,,,,,,,,,,,,,,60ff1726b3096f1b1b4efb22,61036a68cd475cdc97453bd5,2021-07-29_21h57.48.600,Simcolourproject_2stim_asymm_v5,2020.2.10,Win32,60,61025ae37ef11b136ea224fe,,,,,,,,,2801,48.0000205,19.99998987,1,0,0,response1disk,,6,6.000019252,1.999989331,1,0,0,rectangle,6.000019252,1.999989331,1,0,0,6.000019252,1.999989331,1,0,0,1,37,197,67,1,,,,,,,,
,,,,,,,,,,,,,FF,,,,,,,,1.1158,,,,,,,,,,,,,,,,,,,,,,60ff1726b3096f1b1b4efb22,61036a68cd475cdc97453bd5,2021-07-29_21h57.48.600,Simcolourproject_2stim_asymm_v5,2020.2.10,Win32,60,61025ae37ef11b136ea224fe,,,,,,,,,2487,41.33339433,-16.00001121,1,0,0,response3disk,,5,13.33339349,-1.07288E-05,1,0,0,rectangle,13.33339349,-1.07288E-05,1,0,0,13.33339349,-1.07288E-05,1,0,0,1,38,198,45,1,,,,,,,,
,,,,,,,,,,,,,FF,,,,,,,,0.9492,,,,,,,,,,,,,,,,,,,,,,60ff1726b3096f1b1b4efb22,61036a68cd475cdc97453bd5,2021-07-29_21h57.48.600,Simcolourproject_2stim_asymm_v5,2020.2.10,Win32,60,61025ae37ef11b136ea224fe,,,,,,,,,846,27.33339391,53.33330385,1,0,0,response1disk,,7,5.333393256,8.666656196,1,0,0,rectangle,5.333393256,8.666656196,1,0,0,5.333393256,8.666656196,1,0,0,1,39,199,29,1,,,,,,,,
,,,,,,,,,,,,,FF,,,,,,,,0.8829,,,,,,,,,,,,,,,,,,,,,,60ff1726b3096f1b1b4efb22,61036a68cd475cdc97453bd5,2021-07-29_21h57.48.600,Simcolourproject_2stim_asymm_v5,2020.2.10,Win32,60,61025ae37ef11b136ea224fe,,,,,,,,,234,22.00001973,53.99999088,1,0,0,response1disk,,7,-0.666606923,13.99998969,1,0,0,rectangle,-0.666606923,13.99998969,1,0,0,-0.666606923,13.99998969,1,0,0,1,40,200,49,1,,,,,,,,
,,,,,,,,,,,,,FF,,,,,,,,0.8993,,,,,,,,,,,,,,,,,,,,,,60ff1726b3096f1b1b4efb22,61036a68cd475cdc97453bd5,2021-07-29_21h57.48.600,Simcolourproject_2stim_asymm_v5,2020.2.10,Win32,60,61025ae37ef11b136ea224fe,,,,,,,,,4036,21.33339373,59.33330403,1,0,0,response1disk,,7,-5.333314419,3.333322704,1,0,0,rectangle,-5.333314419,3.333322704,1,0,0,-5.333314419,3.333322704,1,0,0,1,41,201,80,1,,,,,,,,
,,,,,,,,,,,,,FF,,,,,,,,1.3821,,,,,,,,,,,,,,,,,,,,,,60ff1726b3096f1b1b4efb22,61036a68cd475cdc97453bd5,2021-07-29_21h57.48.600,Simcolourproject_2stim_asymm_v5,2020.2.10,Win32,60,61025ae37ef11b136ea224fe,,,,,,,,,2435,72.00002122,55.33330391,1,0,0,response1disk,,6,18.00001961,3.99998939,1,0,0,rectangle,18.00001961,3.99998939,1,0,0,18.00001961,3.99998939,1,0,0,1,42,202,86,1,,,,,,,,
,,,,,,,,,,,,,FF,,,,,,,,0.966,,,,,,,,,,,,,,,,,,,,,,60ff1726b3096f1b1b4efb22,61036a68cd475cdc97453bd5,2021-07-29_21h57.48.600,Simcolourproject_2stim_asymm_v5,2020.2.10,Win32,60,61025ae37ef11b136ea224fe,,,,,,,,,2859,26.66668653,47.9999907,1,0,0,response1disk,,7,12.66668612,-2.000010788,1,0,0,rectangle,12.66668612,-2.000010788,1,0,0,12.66668612,-2.000010788,1,0,0,1,43,203,5,1,,,,,,,,
,,,,,,,,,,,,,FF,,,,,,,,1.7155,,,,,,,,,,,,,,,,,,,,,,60ff1726b3096f1b1b4efb22,61036a68cd475cdc97453bd5,2021-07-29_21h57.48.600,Simcolourproject_2stim_asymm_v5,2020.2.10,Win32,60,61025ae37ef11b136ea224fe,,,,,,,,,975,-39.99998212,-42.00001198,1,0,0,response5disk,,3,1.333393137,5.99998945,1,0,0,rectangle,1.333393137,5.99998945,1,0,0,1.333393137,5.99998945,1,0,0,1,44,204,87,1,,,,,,,,
,,,,,,,,,,,,,FF,,,,,,,,1.9319,,,,,,,,,,,,,,,,,,,,,,60ff1726b3096f1b1b4efb22,61036a68cd475cdc97453bd5,2021-07-29_21h57.48.600,Simcolourproject_2stim_asymm_v5,2020.2.10,Win32,60,61025ae37ef11b136ea224fe,,,,,,,,,1979,67.33335441,31.33330319,1,0,0,response1disk,,6,-5.333314419,-4.666677535,1,0,0,rectangle,-5.333314419,-4.666677535,1,0,0,-5.333314419,-4.666677535,1,0,0,1,45,205,9,1,,,,,,,,
,,,,,,,,,,,,,FF,,,,,,,,1.0992,,,,,,,,,,,,,,,,,,,,,,60ff1726b3096f1b1b4efb22,61036a68cd475cdc97453bd5,2021-07-29_21h57.48.600,Simcolourproject_2stim_asymm_v5,2020.2.10,Win32,60,61025ae37ef11b136ea224fe,,,,,,,,,787,15.33339355,38.66665709,1,0,0,response1disk,,7,-4.666607042,-9.33334434,1,0,0,rectangle,-4.666607042,-9.33334434,1,0,0,-4.666607042,-9.33334434,1,0,0,1,46,206,144,1,,,,,,,,
,,,,,,,,,,,,,FF,,,,,,,,1.2823,,,,,,,,,,,,,,,,,,,,,,60ff1726b3096f1b1b4efb22,61036a68cd475cdc97453bd5,2021-07-29_21h57.48.600,Simcolourproject_2stim_asymm_v5,2020.2.10,Win32,60,61025ae37ef11b136ea224fe,,,,,,,,,3006,35.33339415,-47.33334547,1,0,0,response3disk,,4,14.00001949,-5.333344221,1,0,0,rectangle,14.00001949,-5.333344221,1,0,0,14.00001949,-5.333344221,1,0,0,1,47,207,38,1,,,,,,,,
,,,,,,,,,,,,,FF,,,,,,,,1.5819,,,,,,,,,,,,,,,,,,,,,,60ff1726b3096f1b1b4efb22,61036a68cd475cdc97453bd5,2021-07-29_21h57.48.600,Simcolourproject_2stim_asymm_v5,2020.2.10,Win32,60,61025ae37ef11b136ea224fe,,,,,,,,,3628,62.66668761,31.33330319,1,0,0,response1disk,,6,18.6666863,9.333322883,1,0,0,rectangle,18.6666863,9.333322883,1,0,0,18.6666863,9.333322883,1,0,0,1,48,208,3,1,,,,,,,,
,,,,,,,,,,,,,FF,,,,,,,,1.3656,,,,,,,,,,,,,,,,,,,,,,60ff1726b3096f1b1b4efb22,61036a68cd475cdc97453bd5,2021-07-29_21h57.48.600,Simcolourproject_2stim_asymm_v5,2020.2.10,Win32,60,61025ae37ef11b136ea224fe,,,,,,,,,522,20.66668636,-35.33334512,1,0,0,response3disk,,4,11.33339343,3.333322704,1,0,0,rectangle,11.33339343,3.333322704,1,0,0,11.33339343,3.333322704,1,0,0,1,49,209,83,1,,,,,,,,
,,,,,,,,,,,,,FF,,,,,,,,0.9661,,,,,,,,,,,,,,,,,,,,,,60ff1726b3096f1b1b4efb22,61036a68cd475cdc97453bd5,2021-07-29_21h57.48.600,Simcolourproject_2stim_asymm_v5,2020.2.10,Win32,60,61025ae37ef11b136ea224fe,,,,,,,,,362,27.33339391,53.99999088,1,0,0,response1disk,,7,-6.666607102,-4.666677535,1,0,0,rectangle,32.66668671,-20.00001132,1,0,0,13.33339349,0.666655958,1,0,0,1,50,210,108,1,,response3disk_3,TRUE,5,5,"[252,233,185,144,70,86,254,3,317,96,257,225,128,134,312,321,211,95,187,170]",1.5991,rectangle
,,,,,,,,,,,,,FF,,,,,,,,2.6979,,,,,,,,,,,,,,,,,,,,,,60ff1726b3096f1b1b4efb22,61036a68cd475cdc97453bd5,2021-07-29_21h57.48.600,Simcolourproject_2stim_asymm_v5,2020.2.10,Win32,60,61025ae37ef11b136ea224fe,,,,,,,,,2825,-31.33331519,-41.33334529,1,0,0,response5disk,,3,-8.666607161,3.99998939,1,0,0,rectangle,-8.666607161,3.99998939,1,0,0,-8.666607161,3.99998939,1,0,0,1,51,211,155,1,,,,,,,,
,,,,,,,,,,,,,FF,,,,,,,,1.2996,,,,,,,,,,,,,,,,,,,,,,60ff1726b3096f1b1b4efb22,61036a68cd475cdc97453bd5,2021-07-29_21h57.48.600,Simcolourproject_2stim_asymm_v5,2020.2.10,Win32,60,61025ae37ef11b136ea224fe,,,,,,,,,3256,69.33335447,-36.66667849,1,0,0,response3disk,,5,9.333393375,-8.000010967,1,0,0,rectangle,9.333393375,-8.000010967,1,0,0,9.333393375,-8.000010967,1,0,0,1,52,212,50,1,,,,,,,,
,,,,,,,,,,,,,FF,,,,,,,,1.1161,,,,,,,,,,,,,,,,,,,,,,60ff1726b3096f1b1b4efb22,61036a68cd475cdc97453bd5,2021-07-29_21h57.48.600,Simcolourproject_2stim_asymm_v5,2020.2.10,Win32,60,61025ae37ef11b136ea224fe,,,,,,,,,2412,56.66668743,-37.33334517,1,0,0,response3disk,,5,-5.333314419,9.333322883,1,0,0,rectangle,-5.333314419,9.333322883,1,0,0,-5.333314419,9.333322883,1,0,0,1,53,213,79,1,,,,,,,,
,,,,,,,,,,,,,FF,,,,,,,,1.7323,,,,,,,,,,,,,,,,,,,,,,60ff1726b3096f1b1b4efb22,61036a68cd475cdc97453bd5,2021-07-29_21h57.48.600,Simcolourproject_2stim_asymm_v5,2020.2.10,Win32,60,61025ae37ef11b136ea224fe,,,,,,,,,1129,89.33335507,58.66665769,1,0,0,response1disk,,6,-11.3333146,-6.000010908,1,0,0,rectangle,-11.3333146,-6.000010908,1,0,0,-11.3333146,-6.000010908,1,0,0,1,54,214,33,1,,,,,,,,
,,,,,,,,,,,,,FF,,,,,,,,1.0659,,,,,,,,,,,,,,,,,,,,,,60ff1726b3096f1b1b4efb22,61036a68cd475cdc97453bd5,2021-07-29_21h57.48.600,Simcolourproject_2stim_asymm_v5,2020.2.10,Win32,60,61025ae37ef11b136ea224fe,,,,,,,,,732,42.00002033,-19.33334464,1,0,0,response3disk,,5,6.000019252,5.333322763,1,0,0,rectangle,6.000019252,5.333322763,1,0,0,6.000019252,5.333322763,1,0,0,1,55,215,34,1,,,,,,,,
,,,,,,,,,,,,,FF,,,,,,,,2.3638,,,,,,,,,,,,,,,,,,,,,,60ff1726b3096f1b1b4efb22,61036a68cd475cdc97453bd5,2021-07-29_21h57.48.600,Simcolourproject_2stim_asymm_v5,2020.2.10,Win32,60,61025ae37ef11b136ea224fe,,,,,,,,,3910,-43.99998224,-64.66667932,1,0,0,response5disk,,3,-2.666606983,7.99998951,1,0,0,rectangle,-2.666606983,7.99998951,1,0,0,-2.666606983,7.99998951,1,0,0,1,56,216,40,1,,,,,,,,
,,,,,,,,,,,,,FF,,,,,,,,1.0159,,,,,,,,,,,,,,,,,,,,,,60ff1726b3096f1b1b4efb22,61036a68cd475cdc97453bd5,2021-07-29_21h57.48.600,Simcolourproject_2stim_asymm_v5,2020.2.10,Win32,60,61025ae37ef11b136ea224fe,,,,,,,,,2329,30.00001997,64.66665787,1,0,0,response1disk,,7,-0.666606923,7.333322823,1,0,0,rectangle,-0.666606923,7.333322823,1,0,0,-0.666606923,7.333322823,1,0,0,1,57,217,98,1,,,,,,,,
,,,,,,,,,,,,,FF,,,,,,,,1.1655,,,,,,,,,,,,,,,,,,,,,,60ff1726b3096f1b1b4efb22,61036a68cd475cdc97453bd5,2021-07-29_21h57.48.600,Simcolourproject_2stim_asymm_v5,2020.2.10,Win32,60,61025ae37ef11b136ea224fe,,,,,,,,,1179,26.66668653,-14.00001115,1,0,0,response3disk,,5,8.666685998,-1.07288E-05,1,0,0,rectangle,8.666685998,-1.07288E-05,1,0,0,8.666685998,-1.07288E-05,1,0,0,1,58,218,65,1,,,,,,,,
,,,,,,,,,,,,,FF,,,,,,,,1.1658,,,,,,,,,,,,,,,,,,,,,,60ff1726b3096f1b1b4efb22,61036a68cd475cdc97453bd5,2021-07-29_21h57.48.600,Simcolourproject_2stim_asymm_v5,2020.2.10,Win32,60,61025ae37ef11b136ea224fe,,,,,,,,,3054,-47.99998236,-65.33334601,1,0,0,response5disk,,3,-7.999981165,-11.3333444,1,0,0,rectangle,-7.999981165,-11.3333444,1,0,0,-7.999981165,-11.3333444,1,0,0,1,59,219,31,1,,,,,,,,
,,,,,,,,,,,,,FF,,,,,,,,1.1822,,,,,,,,,,,,,,,,,,,,,,60ff1726b3096f1b1b4efb22,61036a68cd475cdc97453bd5,2021-07-29_21h57.48.600,Simcolourproject_2stim_asymm_v5,2020.2.10,Win32,60,61025ae37ef11b136ea224fe,,,,,,,,,1347,56.66668743,-26.66667819,1,0,0,response3disk,,5,21.33339373,3.99998939,1,0,0,rectangle,21.33339373,3.99998939,1,0,0,21.33339373,3.99998939,1,0,0,1,60,220,94,1,,,,,,,,
,,,,,,,,,,,,,FF,,,,,,,,1.1323,,,,,,,,,,,,,,,,,,,,,,60ff1726b3096f1b1b4efb22,61036a68cd475cdc97453bd5,2021-07-29_21h57.48.600,Simcolourproject_2stim_asymm_v5,2020.2.10,Win32,60,61025ae37ef11b136ea224fe,,,,,,,,,983,40.66668695,-27.33334488,1,0,0,response3disk,,5,12.66668612,1.333322644,1,0,0,rectangle,12.66668612,1.333322644,1,0,0,12.66668612,1.333322644,1,0,0,1,61,221,104,1,,,,,,,,
,,,,,,,,,,,,,FF,,,,,,,,1.3182,,,,,,,,,,,,,,,,,,,,,,60ff1726b3096f1b1b4efb22,61036a68cd475cdc97453bd5,2021-07-29_21h57.48.600,Simcolourproject_2stim_asymm_v5,2020.2.10,Win32,60,61025ae37ef11b136ea224fe,,,,,,,,,3751,-35.33331531,-58.66667914,1,0,0,response5disk,,3,2.66668582,-1.333344102,1,0,0,rectangle,2.66668582,-1.333344102,1,0,0,2.66668582,-1.333344102,1,0,0,1,62,222,57,1,,,,,,,,
,,,,,,,,,,,,,FF,,,,,,,,1.0159,,,,,,,,,,,,,,,,,,,,,,60ff1726b3096f1b1b4efb22,61036a68cd475cdc97453bd5,2021-07-29_21h57.48.600,Simcolourproject_2stim_asymm_v5,2020.2.10,Win32,60,61025ae37ef11b136ea224fe,,,,,,,,,2813,23.33339379,35.33330331,1,0,0,response1disk,,7,-1.999980986,-0.666677415,1,0,0,rectangle,-1.999980986,-0.666677415,1,0,0,-1.999980986,-0.666677415,1,0,0,1,63,223,44,1,,,,,,,,
,,,,,,,,,,,,,FF,,,,,,,,1.0822,,,,,,,,,,,,,,,,,,,,,,60ff1726b3096f1b1b4efb22,61036a68cd475cdc97453bd5,2021-07-29_21h57.48.600,Simcolourproject_2stim_asymm_v5,2020.2.10,Win32,60,61025ae37ef11b136ea224fe,,,,,,,,,1760,-29.99998182,-41.33334529,1,0,0,response5disk,,3,6.000019252,9.333322883,1,0,0,rectangle,40.00002027,-23.33334476,1,0,0,9.333393375,-1.07288E-05,1,0,0,1,64,224,145,1,,response3disk_3,TRUE,5,5,"[252,233,185,144,70,86,254,3,317,96,257,225,128,134,312,321,211,95,187,170]",2.4814,rectangle
,,,,,,,,,,,,,FF,,,,,,,,1.2657,,,,,,,,,,,,,,,,,,,,,,60ff1726b3096f1b1b4efb22,61036a68cd475cdc97453bd5,2021-07-29_21h57.48.600,Simcolourproject_2stim_asymm_v5,2020.2.10,Win32,60,61025ae37ef11b136ea224fe,,,,,,,,,3595,21.33339373,-40.00001192,1,0,0,response3disk,,4,-1.3333143,-2.666677475,1,0,0,rectangle,-1.3333143,-2.666677475,1,0,0,-1.3333143,-2.666677475,1,0,0,1,65,225,18,1,,,,,,,,
,,,,,,,,,,,,,FF,,,,,,,,1.2323,,,,,,,,,,,,,,,,,,,,,,60ff1726b3096f1b1b4efb22,61036a68cd475cdc97453bd5,2021-07-29_21h57.48.600,Simcolourproject_2stim_asymm_v5,2020.2.10,Win32,60,61025ae37ef11b136ea224fe,,,,,,,,,2440,22.66668642,36.66665703,1,0,0,response1disk,,7,8.666685998,11.99998963,1,0,0,rectangle,8.666685998,11.99998963,1,0,0,8.666685998,11.99998963,1,0,0,1,66,226,150,1,,,,,,,,
,,,,,,,,,,,,,FF,,,,,,,,1.0327,,,,,,,,,,,,,,,,,,,,,,60ff1726b3096f1b1b4efb22,61036a68cd475cdc97453bd5,2021-07-29_21h57.48.600,Simcolourproject_2stim_asymm_v5,2020.2.10,Win32,60,61025ae37ef11b136ea224fe,,,,,,,,,130,43.3333537,27.99999011,1,0,0,response1disk,,6,11.33339343,11.99998963,1,0,0,rectangle,11.33339343,11.99998963,1,0,0,11.33339343,11.99998963,1,0,0,1,67,227,23,1,,,,,,,,
,,,,,,,,,,,,,FF,,,,,,,,1.5158,,,,,,,,,,,,,,,,,,,,,,60ff1726b3096f1b1b4efb22,61036a68cd475cdc97453bd5,2021-07-29_21h57.48.600,Simcolourproject_2stim_asymm_v5,2020.2.10,Win32,60,61025ae37ef11b136ea224fe,,,,,,,,,3503,-24.66660764,-42.00001198,1,0,0,response5disk,,3,8.000019312,-4.666677535,1,0,0,rectangle,8.000019312,-4.666677535,1,0,0,8.000019312,-4.666677535,1,0,0,1,68,228,73,1,,,,,,,,
,,,,,,,,,,,,,FF,,,,,,,,1.3152,,,,,,,,,,,,,,,,,,,,,,60ff1726b3096f1b1b4efb22,61036a68cd475cdc97453bd5,2021-07-29_21h57.48.600,Simcolourproject_2stim_asymm_v5,2020.2.10,Win32,60,61025ae37ef11b136ea224fe,,,,,,,,,2036,-53.99998254,-36.0000118,1,0,0,response5disk,,2,-3.999981046,-2.666677475,1,0,0,rectangle,-3.999981046,-2.666677475,1,0,0,-3.999981046,-2.666677475,1,0,0,1,69,229,26,1,,,,,,,,
,,,,,,,,,,,,,FF,,,,,,,,1.6986,,,,,,,,,,,,,,,,,,,,,,60ff1726b3096f1b1b4efb22,61036a68cd475cdc97453bd5,2021-07-29_21h57.48.600,Simcolourproject_2stim_asymm_v5,2020.2.10,Win32,60,61025ae37ef11b136ea224fe,,,,,,,,,307,53.333354,47.9999907,1,0,0,response1disk,,6,0.66668576,-8.666677654,1,0,0,rectangle,0.66668576,-8.666677654,1,0,0,0.66668576,-8.666677654,1,0,0,1,70,230,121,1,,,,,,,,
,,,,,,,,,,,,,FF,,,,,,,,1.6321,,,,,,,,,,,,,,,,,,,,,,60ff1726b3096f1b1b4efb22,61036a68cd475cdc97453bd5,2021-07-29_21h57.48.600,Simcolourproject_2stim_asymm_v5,2020.2.10,Win32,60,61025ae37ef11b136ea224fe,,,,,,,,,3375,-20.66660752,-45.33334541,1,0,0,response5disk,,3,6.666685939,8.666656196,1,0,0,rectangle,6.666685939,8.666656196,1,0,0,6.666685939,8.666656196,1,0,0,1,71,231,52,1,,,,,,,,
,,,,,,,,,,,,,FF,,,,,,,,1.1491,,,,,,,,,,,,,,,,,,,,,,60ff1726b3096f1b1b4efb22,61036a68cd475cdc97453bd5,2021-07-29_21h57.48.600,Simcolourproject_2stim_asymm_v5,2020.2.10,Win32,60,61025ae37ef11b136ea224fe,,,,,,,,,2502,18.00001961,41.33330349,1,0,0,response1disk,,7,-0.666606923,-2.000010788,1,0,0,rectangle,48.0000205,-33.33334506,1,0,0,17.33339361,3.99998939,1,0,0,1,72,232,111,1,,response3disk_3,TRUE,5,5,"[252,233,185,144,70,86,254,3,317,96,257,225,128,134,312,321,211,95,187,170]",1.748,rectangle
,,,,,,,,,,,,,FF,,,,,,,,1.0161,,,,,,,,,,,,,,,,,,,,,,60ff1726b3096f1b1b4efb22,61036a68cd475cdc97453bd5,2021-07-29_21h57.48.600,Simcolourproject_2stim_asymm_v5,2020.2.10,Win32,60,61025ae37ef11b136ea224fe,,,,,,,,,1368,-35.33331531,61.99999112,1,0,0,response7disk,,0,-15.9999814,-6.000010908,1,0,0,rectangle,-15.9999814,-6.000010908,1,0,0,-15.9999814,-6.000010908,1,0,0,1,73,233,114,1,,,,,,,,
,,,,,,,,,,,,,FF,,,,,,,,1.0824,,,,,,,,,,,,,,,,,,,,,,60ff1726b3096f1b1b4efb22,61036a68cd475cdc97453bd5,2021-07-29_21h57.48.600,Simcolourproject_2stim_asymm_v5,2020.2.10,Win32,60,61025ae37ef11b136ea224fe,,,,,,,,,3079,50.66668725,42.66665721,1,0,0,response1disk,,6,-3.999981046,-11.3333444,1,0,0,rectangle,-3.999981046,-11.3333444,1,0,0,-3.999981046,-11.3333444,1,0,0,1,74,234,157,1,,,,,,,,
,,,,,,,,,,,,,FF,,,,,,,,1.0326,,,,,,,,,,,,,,,,,,,,,,60ff1726b3096f1b1b4efb22,61036a68cd475cdc97453bd5,2021-07-29_21h57.48.600,Simcolourproject_2stim_asymm_v5,2020.2.10,Win32,60,61025ae37ef11b136ea224fe,,,,,,,,,3302,34.00002009,69.33330433,1,0,0,response1disk,,7,10.66668606,12.66665632,1,0,0,rectangle,10.66668606,12.66665632,1,0,0,10.66668606,12.66665632,1,0,0,1,75,235,131,1,,,,,,,,
,,,,,,,,,,,,,FF,,,,,,,,1.5988,,,,,,,,,,,,,,,,,,,,,,60ff1726b3096f1b1b4efb22,61036a68cd475cdc97453bd5,2021-07-29_21h57.48.600,Simcolourproject_2stim_asymm_v5,2020.2.10,Win32,60,61025ae37ef11b136ea224fe,,,,,,,,,2863,62.66668761,31.33330319,1,0,0,response1disk,,6,5.333393256,-5.333344221,1,0,0,rectangle,5.333393256,-5.333344221,1,0,0,5.333393256,-5.333344221,1,0,0,1,76,236,13,1,,,,,,,,
,,,,,,,,,,,,,FF,,,,,,,,1.1325,,,,,,,,,,,,,,,,,,,,,,60ff1726b3096f1b1b4efb22,61036a68cd475cdc97453bd5,2021-07-29_21h57.48.600,Simcolourproject_2stim_asymm_v5,2020.2.10,Win32,60,61025ae37ef11b136ea224fe,,,,,,,,,2321,31.33339403,52.66665751,1,0,0,response1disk,,7,5.333393256,-2.000010788,1,0,0,rectangle,5.333393256,-2.000010788,1,0,0,5.333393256,-2.000010788,1,0,0,1,77,237,99,1,,,,,,,,
,,,,,,,,,,,,,FF,,,,,,,,2.1149,,,,,,,,,,,,,,,,,,,,,,60ff1726b3096f1b1b4efb22,61036a68cd475cdc97453bd5,2021-07-29_21h57.48.600,Simcolourproject_2stim_asymm_v5,2020.2.10,Win32,60,61025ae37ef11b136ea224fe,,,,,,,,,2029,-23.33331496,-63.33334595,1,0,0,response5disk,,3,-2.666606983,3.333322704,1,0,0,rectangle,-2.666606983,3.333322704,1,0,0,-2.666606983,3.333322704,1,0,0,1,78,238,132,1,,,,,,,,
,,,,,,,,,,,,,FF,,,,,,,,1.3489,,,,,,,,,,,,,,,,,,,,,,60ff1726b3096f1b1b4efb22,61036a68cd475cdc97453bd5,2021-07-29_21h57.48.600,Simcolourproject_2stim_asymm_v5,2020.2.10,Win32,60,61025ae37ef11b136ea224fe,,,,,,,,,2151,16.00001955,49.33330373,1,0,0,response1disk,,7,-3.333314359,3.333322704,1,0,0,rectangle,-3.333314359,3.333322704,1,0,0,-3.333314359,3.333322704,1,0,0,1,79,239,118,1,,,,,,,,
,,,,,,,,,,,,,FF,,,,,,,,1.1823,,,,,,,,,,,,,,,,,,,,,,60ff1726b3096f1b1b4efb22,61036a68cd475cdc97453bd5,2021-07-29_21h57.48.600,Simcolourproject_2stim_asymm_v5,2020.2.10,Win32,60,61025ae37ef11b136ea224fe,,,,,,,,,1065,39.33339427,-19.33334464,1,0,0,response3disk,,5,1.9735E-05,4.666656077,1,0,0,rectangle,1.9735E-05,4.666656077,1,0,0,1.9735E-05,4.666656077,1,0,0,1,80,240,142,1,,,,,,,,
,,,,,,,,,,,,,FF,,,,,,,,0.8988,,,,,,,,,,,,,,,,,,,,,,60ff1726b3096f1b1b4efb22,61036a68cd475cdc97453bd5,2021-07-29_21h57.48.600,Simcolourproject_2stim_asymm_v5,2020.2.10,Win32,60,61025ae37ef11b136ea224fe,,,,,,,,,2323,32.00002003,53.33330385,1,0,0,response1disk,,7,1.333393137,1.999989331,1,0,0,rectangle,1.333393137,1.999989331,1,0,0,1.333393137,1.999989331,1,0,0,1,81,241,97,1,,,,,,,,
,,,,,,,,,,,,,FF,,,,,,,,1.1655,,,,,,,,,,,,,,,,,,,,,,60ff1726b3096f1b1b4efb22,61036a68cd475cdc97453bd5,2021-07-29_21h57.48.600,Simcolourproject_2stim_asymm_v5,2020.2.10,Win32,60,61025ae37ef11b136ea224fe,,,,,,,,,996,41.33339433,-27.33334488,1,0,0,response3disk,,5,4.666685879,-5.333344221,1,0,0,rectangle,4.666685879,-5.333344221,1,0,0,4.666685879,-5.333344221,1,0,0,1,82,242,11,1,,,,,,,,
,,,,,,,,,,,,,FF,,,,,,,,1.4155,,,,,,,,,,,,,,,,,,,,,,60ff1726b3096f1b1b4efb22,61036a68cd475cdc97453bd5,2021-07-29_21h57.48.600,Simcolourproject_2stim_asymm_v5,2020.2.10,Win32,60,61025ae37ef11b136ea224fe,,,,,,,,,623,20.00001967,-31.333345,1,0,0,response3disk,,4,-1.999980986,-2.000010788,1,0,0,rectangle,-1.999980986,-2.000010788,1,0,0,-1.999980986,-2.000010788,1,0,0,1,83,243,156,1,,,,,,,,
