key_resp.keys,key_resp.rt,key_resp_14.keys,key_resp_14.rt,key_resp_15.keys,key_resp_15.rt,key_resp_17.keys,key_resp_17.rt,key_resp_9.keys,key_resp_9.rt,key_resp_10.keys,key_resp_10.rt,practice_comparison,Ecc,mouse_5.x,mouse_5.y,mouse_5.leftButton,mouse_5.midButton,mouse_5.rightButton,mouse_5.clicked_name,pracsimilarity,response_time,mouse_10.x,mouse_10.y,mouse_10.leftButton,mouse_10.midButton,mouse_10.rightButton,mouse_10.clicked_name,mouse_7.x,mouse_7.y,mouse_7.leftButton,mouse_7.midButton,mouse_7.rightButton,mouse_6.x,mouse_6.y,mouse_6.leftButton,mouse_6.midButton,mouse_6.rightButton,duringprac.thisRepN,duringprac.thisTrialN,duringprac.thisN,duringprac.thisIndex,duringprac.ran,participant,session,date,expName,psychopyVersion,OS,frameRate,study_id,mouse_7.clicked_name,catchpracsimilarity,catch_response_time,catchnumberprac,catchtrialorderprac,mouse_6.clicked_name,key_resp_22.keys,key_resp_22.rt,realcomparison,mouse.x,mouse.y,mouse.leftButton,mouse.midButton,mouse.rightButton,mouse.clicked_name,Colour2,similarity,mouse_2.x,mouse_2.y,mouse_2.leftButton,mouse_2.midButton,mouse_2.rightButton,mouse_2.clicked_name,mouse_3.x,mouse_3.y,mouse_3.leftButton,mouse_3.midButton,mouse_3.rightButton,mouse_11.x,mouse_11.y,mouse_11.leftButton,mouse_11.midButton,mouse_11.rightButton,trials_2.thisRepN,trials_2.thisTrialN,trials_2.thisN,trials_2.thisIndex,trials_2.ran,Colour1,mouse_3.clicked_name,catchornah,catchsimilarity,catchnumber,catchtrialorder,catchRT,mouse_11.clicked_name
space,15.016,space,33.11,space,28.208,space,8.648,space,6.965,space,44.881,105,FF,63,-45,1,0,0,response3disk_5,5,14.984,-12,1,1,0,0,rectangle_8,-12,1,1,0,0,-12,1,1,0,0,0,0,0,3,1,60ff4e46b9743e061aa26d64,61036b44bb1416c61fa9c1cc,2021-07-30_04h02.28.119,Simcolourproject_2stim_asymm_v5,2020.2.10,Win32,60,61025ae37ef11b136ea224fe,,,,,,,,,,,,,,,,,,,,,,,,,,,,,,,,,,,,,,,,,,,,,,
,,,,,,,,,,,,148,PF,-59,-28,1,0,0,response5disk_5,2,4.388,12,-8,1,0,0,rectangle_8,36,90,1,0,0,-3,-5,1,0,0,0,1,1,1,1,60ff4e46b9743e061aa26d64,61036b44bb1416c61fa9c1cc,2021-07-30_04h02.28.119,Simcolourproject_2stim_asymm_v5,2020.2.10,Win32,60,61025ae37ef11b136ea224fe,response1disk_7,7,2.133,7,"[2,5]",rectangle_4,,,,,,,,,,,,,,,,,,,,,,,,,,,,,,,,,,,,,,,,
,,,,,,,,,,,,42,FF,93,-45,1,0,0,response3disk_5,5,5.412,22,1,1,0,0,rectangle_8,22,1,1,0,0,22,1,1,0,0,0,2,2,0,1,60ff4e46b9743e061aa26d64,61036b44bb1416c61fa9c1cc,2021-07-30_04h02.28.119,Simcolourproject_2stim_asymm_v5,2020.2.10,Win32,60,61025ae37ef11b136ea224fe,,,,,,,,,,,,,,,,,,,,,,,,,,,,,,,,,,,,,,,,,,,,,,
,,,,,,,,,,,,69,PF,75,28,1,0,0,response1disk_5,6,1.971,-2,7,1,0,0,rectangle_8,-2,7,1,0,0,-2,7,1,0,0,0,3,3,6,1,60ff4e46b9743e061aa26d64,61036b44bb1416c61fa9c1cc,2021-07-30_04h02.28.119,Simcolourproject_2stim_asymm_v5,2020.2.10,Win32,60,61025ae37ef11b136ea224fe,,,,,,,,,,,,,,,,,,,,,,,,,,,,,,,,,,,,,,,,,,,,,,
,,,,,,,,,,,,31,PF,82,30,1,0,0,response1disk_5,6,4.227,9,-5,1,0,0,rectangle_8,41,74,1,0,0,10,8,1,0,0,0,4,4,4,1,60ff4e46b9743e061aa26d64,61036b44bb1416c61fa9c1cc,2021-07-30_04h02.28.119,Simcolourproject_2stim_asymm_v5,2020.2.10,Win32,60,61025ae37ef11b136ea224fe,response1disk_7,7,1.515,7,"[2,5]",rectangle_4,,,,,,,,,,,,,,,,,,,,,,,,,,,,,,,,,,,,,,,,
,,,,,,,,,,,,125,PF,72,44,1,0,0,response1disk_5,6,4.446,1,-1,1,0,0,rectangle_8,1,-1,1,0,0,1,-1,1,0,0,0,5,5,2,1,60ff4e46b9743e061aa26d64,61036b44bb1416c61fa9c1cc,2021-07-30_04h02.28.119,Simcolourproject_2stim_asymm_v5,2020.2.10,Win32,60,61025ae37ef11b136ea224fe,,,,,,,,,,,,,,,,,,,,,,,,,,,,,,,,,,,,,,,,,,,,,,
,,,,,,,,,,,,19,FF,69,34,1,0,0,response1disk_5,6,1.75,13,1,1,0,0,rectangle_8,13,1,1,0,0,13,1,1,0,0,0,6,6,5,1,60ff4e46b9743e061aa26d64,61036b44bb1416c61fa9c1cc,2021-07-30_04h02.28.119,Simcolourproject_2stim_asymm_v5,2020.2.10,Win32,60,61025ae37ef11b136ea224fe,,,,,,,,,,,,,,,,,,,,,,,,,,,,,,,,,,,,,,,,,,,,,,
,,,,,,,,,,,,,FF,,,,,,,,3.6,,,,,,,,,,,,,,,,,,,,,,60ff4e46b9743e061aa26d64,61036b44bb1416c61fa9c1cc,2021-07-30_04h02.28.119,Simcolourproject_2stim_asymm_v5,2020.2.10,Win32,60,61025ae37ef11b136ea224fe,,,,,,,space,2.275,1019,-31,-51,1,0,0,response5disk,,3,2,-1,1,0,0,rectangle,2,-1,1,0,0,2,-1,1,0,0,0,0,0,12,1,,,,,,,,
,,,,,,,,,,,,,FF,,,,,,,,3.289,,,,,,,,,,,,,,,,,,,,,,60ff4e46b9743e061aa26d64,61036b44bb1416c61fa9c1cc,2021-07-30_04h02.28.119,Simcolourproject_2stim_asymm_v5,2020.2.10,Win32,60,61025ae37ef11b136ea224fe,,,,,,,,,1580,-45,-64,1,0,0,response5disk,,3,-3,6,1,0,0,rectangle,-3,6,1,0,0,-3,6,1,0,0,0,1,1,80,1,,,,,,,,
,,,,,,,,,,,,,FF,,,,,,,,3.325,,,,,,,,,,,,,,,,,,,,,,60ff4e46b9743e061aa26d64,61036b44bb1416c61fa9c1cc,2021-07-30_04h02.28.119,Simcolourproject_2stim_asymm_v5,2020.2.10,Win32,60,61025ae37ef11b136ea224fe,,,,,,,,,1711,70,-42,1,0,0,response3disk,,5,17,-6,1,0,0,rectangle,-44,95,1,0,0,-10,-2,1,0,0,0,2,2,157,1,,response7disk_3,TRUE,0,0,"[60,152,102,131,3,137,117,309,116,255,14,129,75,239,87,264,107,208,271,94]",1.766,rectangle
,,,,,,,,,,,,,FF,,,,,,,,14.898,,,,,,,,,,,,,,,,,,,,,,60ff4e46b9743e061aa26d64,61036b44bb1416c61fa9c1cc,2021-07-30_04h02.28.119,Simcolourproject_2stim_asymm_v5,2020.2.10,Win32,60,61025ae37ef11b136ea224fe,,,,,,,,,3117,101,-47,1,0,0,response3disk,,5,17,-1,1,0,0,rectangle,17,-1,1,0,0,17,-1,1,0,0,0,3,3,96,1,,,,,,,,
,,,,,,,,,,,,,FF,,,,,,,,1.45,,,,,,,,,,,,,,,,,,,,,,60ff4e46b9743e061aa26d64,61036b44bb1416c61fa9c1cc,2021-07-30_04h02.28.119,Simcolourproject_2stim_asymm_v5,2020.2.10,Win32,60,61025ae37ef11b136ea224fe,,,,,,,,,3476,-75,22,1,0,0,response7disk,,1,-3,1,1,0,0,rectangle,-3,1,1,0,0,-3,1,1,0,0,0,4,4,131,1,,,,,,,,
,,,,,,,,,,,,,FF,,,,,,,,1.364,,,,,,,,,,,,,,,,,,,,,,60ff4e46b9743e061aa26d64,61036b44bb1416c61fa9c1cc,2021-07-30_04h02.28.119,Simcolourproject_2stim_asymm_v5,2020.2.10,Win32,60,61025ae37ef11b136ea224fe,,,,,,,,,518,-23,-47,1,0,0,response5disk,,3,2,1,1,0,0,rectangle,2,1,1,0,0,2,1,1,0,0,0,5,5,65,1,,,,,,,,
,,,,,,,,,,,,,FF,,,,,,,,1.167,,,,,,,,,,,,,,,,,,,,,,60ff4e46b9743e061aa26d64,61036b44bb1416c61fa9c1cc,2021-07-30_04h02.28.119,Simcolourproject_2stim_asymm_v5,2020.2.10,Win32,60,61025ae37ef11b136ea224fe,,,,,,,,,2085,-54,-29,1,0,0,response5disk,,2,-23,-6,1,0,0,rectangle,-23,-6,1,0,0,-23,-6,1,0,0,0,6,6,37,1,,,,,,,,
,,,,,,,,,,,,,FF,,,,,,,,1.535,,,,,,,,,,,,,,,,,,,,,,60ff4e46b9743e061aa26d64,61036b44bb1416c61fa9c1cc,2021-07-30_04h02.28.119,Simcolourproject_2stim_asymm_v5,2020.2.10,Win32,60,61025ae37ef11b136ea224fe,,,,,,,,,1241,32,-56,1,0,0,response3disk,,4,6,-2,1,0,0,rectangle,6,-2,1,0,0,6,-2,1,0,0,0,7,7,114,1,,,,,,,,
,,,,,,,,,,,,,FF,,,,,,,,1.732,,,,,,,,,,,,,,,,,,,,,,60ff4e46b9743e061aa26d64,61036b44bb1416c61fa9c1cc,2021-07-30_04h02.28.119,Simcolourproject_2stim_asymm_v5,2020.2.10,Win32,60,61025ae37ef11b136ea224fe,,,,,,,,,1994,-31,-58,1,0,0,response5disk,,3,1,-4,1,0,0,rectangle,1,-4,1,0,0,1,-4,1,0,0,0,8,8,123,1,,,,,,,,
,,,,,,,,,,,,,FF,,,,,,,,1.718,,,,,,,,,,,,,,,,,,,,,,60ff4e46b9743e061aa26d64,61036b44bb1416c61fa9c1cc,2021-07-30_04h02.28.119,Simcolourproject_2stim_asymm_v5,2020.2.10,Win32,60,61025ae37ef11b136ea224fe,,,,,,,,,1926,79,35,1,0,0,response1disk,,6,10,-2,1,0,0,rectangle,10,-2,1,0,0,10,-2,1,0,0,0,9,9,91,1,,,,,,,,
,,,,,,,,,,,,,FF,,,,,,,,1.716,,,,,,,,,,,,,,,,,,,,,,60ff4e46b9743e061aa26d64,61036b44bb1416c61fa9c1cc,2021-07-30_04h02.28.119,Simcolourproject_2stim_asymm_v5,2020.2.10,Win32,60,61025ae37ef11b136ea224fe,,,,,,,,,521,44,-61,1,0,0,response3disk,,4,-1,1,1,0,0,rectangle,-1,1,1,0,0,-1,1,1,0,0,0,10,10,13,1,,,,,,,,
,,,,,,,,,,,,,FF,,,,,,,,1.916,,,,,,,,,,,,,,,,,,,,,,60ff4e46b9743e061aa26d64,61036b44bb1416c61fa9c1cc,2021-07-30_04h02.28.119,Simcolourproject_2stim_asymm_v5,2020.2.10,Win32,60,61025ae37ef11b136ea224fe,,,,,,,,,458,-62,-41,1,0,0,response5disk,,2,11,-2,1,0,0,rectangle,11,-2,1,0,0,11,-2,1,0,0,0,11,11,23,1,,,,,,,,
,,,,,,,,,,,,,FF,,,,,,,,2.793,,,,,,,,,,,,,,,,,,,,,,60ff4e46b9743e061aa26d64,61036b44bb1416c61fa9c1cc,2021-07-30_04h02.28.119,Simcolourproject_2stim_asymm_v5,2020.2.10,Win32,60,61025ae37ef11b136ea224fe,,,,,,,,,4195,25,-54,1,0,0,response3disk,,4,9,-2,1,0,0,rectangle,9,-2,1,0,0,9,-2,1,0,0,0,12,12,107,1,,,,,,,,
,,,,,,,,,,,,,FF,,,,,,,,1.067,,,,,,,,,,,,,,,,,,,,,,60ff4e46b9743e061aa26d64,61036b44bb1416c61fa9c1cc,2021-07-30_04h02.28.119,Simcolourproject_2stim_asymm_v5,2020.2.10,Win32,60,61025ae37ef11b136ea224fe,,,,,,,,,1152,68,27,1,0,0,response1disk,,6,6,-12,1,0,0,rectangle,-77,-28,1,0,0,-9,0,1,0,0,0,13,13,122,1,,response5disk_3,TRUE,2,2,"[60,152,102,131,3,137,117,309,116,255,14,129,75,239,87,264,107,208,271,94]",3.534,rectangle
,,,,,,,,,,,,,FF,,,,,,,,1.794,,,,,,,,,,,,,,,,,,,,,,60ff4e46b9743e061aa26d64,61036b44bb1416c61fa9c1cc,2021-07-30_04h02.28.119,Simcolourproject_2stim_asymm_v5,2020.2.10,Win32,60,61025ae37ef11b136ea224fe,,,,,,,,,3382,-68,26,1,0,0,response7disk,,1,-10,6,1,0,0,rectangle,-10,6,1,0,0,-10,6,1,0,0,0,14,14,26,1,,,,,,,,
,,,,,,,,,,,,,FF,,,,,,,,1.253,,,,,,,,,,,,,,,,,,,,,,60ff4e46b9743e061aa26d64,61036b44bb1416c61fa9c1cc,2021-07-30_04h02.28.119,Simcolourproject_2stim_asymm_v5,2020.2.10,Win32,60,61025ae37ef11b136ea224fe,,,,,,,,,4098,-42,-54,1,0,0,response5disk,,3,-17,8,1,0,0,rectangle,-17,8,1,0,0,-17,8,1,0,0,0,15,15,68,1,,,,,,,,
,,,,,,,,,,,,,FF,,,,,,,,1.582,,,,,,,,,,,,,,,,,,,,,,60ff4e46b9743e061aa26d64,61036b44bb1416c61fa9c1cc,2021-07-30_04h02.28.119,Simcolourproject_2stim_asymm_v5,2020.2.10,Win32,60,61025ae37ef11b136ea224fe,,,,,,,,,1046,-34,-66,1,0,0,response5disk,,3,7,6,1,0,0,rectangle,7,6,1,0,0,7,6,1,0,0,0,16,16,108,1,,,,,,,,
,,,,,,,,,,,,,FF,,,,,,,,2.033,,,,,,,,,,,,,,,,,,,,,,60ff4e46b9743e061aa26d64,61036b44bb1416c61fa9c1cc,2021-07-30_04h02.28.119,Simcolourproject_2stim_asymm_v5,2020.2.10,Win32,60,61025ae37ef11b136ea224fe,,,,,,,,,3026,57,-63,1,0,0,response3disk,,4,24,0,1,0,0,rectangle,24,0,1,0,0,24,0,1,0,0,0,17,17,3,1,,,,,,,,
,,,,,,,,,,,,,FF,,,,,,,,3.516,,,,,,,,,,,,,,,,,,,,,,60ff4e46b9743e061aa26d64,61036b44bb1416c61fa9c1cc,2021-07-30_04h02.28.119,Simcolourproject_2stim_asymm_v5,2020.2.10,Win32,60,61025ae37ef11b136ea224fe,,,,,,,,,3166,-42,-54,1,0,0,response5disk,,3,6,2,1,0,0,rectangle,6,2,1,0,0,6,2,1,0,0,0,18,18,64,1,,,,,,,,
,,,,,,,,,,,,,FF,,,,,,,,1.398,,,,,,,,,,,,,,,,,,,,,,60ff4e46b9743e061aa26d64,61036b44bb1416c61fa9c1cc,2021-07-30_04h02.28.119,Simcolourproject_2stim_asymm_v5,2020.2.10,Win32,60,61025ae37ef11b136ea224fe,,,,,,,,,132,36,-82,1,0,0,response3disk,,4,1,6,1,0,0,rectangle,1,6,1,0,0,1,6,1,0,0,0,19,19,76,1,,,,,,,,
,,,,,,,,,,,,,FF,,,,,,,,1.115,,,,,,,,,,,,,,,,,,,,,,60ff4e46b9743e061aa26d64,61036b44bb1416c61fa9c1cc,2021-07-30_04h02.28.119,Simcolourproject_2stim_asymm_v5,2020.2.10,Win32,60,61025ae37ef11b136ea224fe,,,,,,,,,2112,-78,-30,1,0,0,response5disk,,2,1,6,1,0,0,rectangle,1,6,1,0,0,1,6,1,0,0,0,20,20,119,1,,,,,,,,
,,,,,,,,,,,,,FF,,,,,,,,1.315,,,,,,,,,,,,,,,,,,,,,,60ff4e46b9743e061aa26d64,61036b44bb1416c61fa9c1cc,2021-07-30_04h02.28.119,Simcolourproject_2stim_asymm_v5,2020.2.10,Win32,60,61025ae37ef11b136ea224fe,,,,,,,,,136,74,27,1,0,0,response1disk,,6,0,3,1,0,0,rectangle,0,3,1,0,0,0,3,1,0,0,0,21,21,120,1,,,,,,,,
,,,,,,,,,,,,,FF,,,,,,,,2.316,,,,,,,,,,,,,,,,,,,,,,60ff4e46b9743e061aa26d64,61036b44bb1416c61fa9c1cc,2021-07-30_04h02.28.119,Simcolourproject_2stim_asymm_v5,2020.2.10,Win32,60,61025ae37ef11b136ea224fe,,,,,,,,,233,37,-78,1,0,0,response3disk,,4,5,4,1,0,0,rectangle,5,4,1,0,0,5,4,1,0,0,0,22,22,28,1,,,,,,,,
,,,,,,,,,,,,,FF,,,,,,,,1.767,,,,,,,,,,,,,,,,,,,,,,60ff4e46b9743e061aa26d64,61036b44bb1416c61fa9c1cc,2021-07-30_04h02.28.119,Simcolourproject_2stim_asymm_v5,2020.2.10,Win32,60,61025ae37ef11b136ea224fe,,,,,,,,,3491,61,34,1,0,0,response1disk,,6,9,3,1,0,0,rectangle,9,3,1,0,0,9,3,1,0,0,0,23,23,9,1,,,,,,,,
,,,,,,,,,,,,,FF,,,,,,,,3.182,,,,,,,,,,,,,,,,,,,,,,60ff4e46b9743e061aa26d64,61036b44bb1416c61fa9c1cc,2021-07-30_04h02.28.119,Simcolourproject_2stim_asymm_v5,2020.2.10,Win32,60,61025ae37ef11b136ea224fe,,,,,,,,,3485,-28,-65,1,0,0,response5disk,,3,14,1,1,0,0,rectangle,14,1,1,0,0,14,1,1,0,0,0,24,24,155,1,,,,,,,,
,,,,,,,,,,,,,FF,,,,,,,,0.628,,,,,,,,,,,,,,,,,,,,,,60ff4e46b9743e061aa26d64,61036b44bb1416c61fa9c1cc,2021-07-30_04h02.28.119,Simcolourproject_2stim_asymm_v5,2020.2.10,Win32,60,61025ae37ef11b136ea224fe,,,,,,,,,3687,24,83,1,0,0,response1disk,,7,-3,7,1,0,0,rectangle,-3,7,1,0,0,-3,7,1,0,0,0,25,25,32,1,,,,,,,,
,,,,,,,,,,,,,FF,,,,,,,,0.85,,,,,,,,,,,,,,,,,,,,,,60ff4e46b9743e061aa26d64,61036b44bb1416c61fa9c1cc,2021-07-30_04h02.28.119,Simcolourproject_2stim_asymm_v5,2020.2.10,Win32,60,61025ae37ef11b136ea224fe,,,,,,,,,3379,41,78,1,0,0,response1disk,,7,20,8,1,0,0,rectangle,20,8,1,0,0,20,8,1,0,0,0,26,26,47,1,,,,,,,,
,,,,,,,,,,,,,FF,,,,,,,,3.557,,,,,,,,,,,,,,,,,,,,,,60ff4e46b9743e061aa26d64,61036b44bb1416c61fa9c1cc,2021-07-30_04h02.28.119,Simcolourproject_2stim_asymm_v5,2020.2.10,Win32,60,61025ae37ef11b136ea224fe,,,,,,,,,2957,92,-28,1,0,0,response3disk,,5,23,5,1,0,0,rectangle,23,5,1,0,0,23,5,1,0,0,0,27,27,70,1,,,,,,,,
,,,,,,,,,,,,,FF,,,,,,,,1.617,,,,,,,,,,,,,,,,,,,,,,60ff4e46b9743e061aa26d64,61036b44bb1416c61fa9c1cc,2021-07-30_04h02.28.119,Simcolourproject_2stim_asymm_v5,2020.2.10,Win32,60,61025ae37ef11b136ea224fe,,,,,,,,,3283,-79,27,1,0,0,response7disk,,1,-6,4,1,0,0,rectangle,-6,4,1,0,0,-6,4,1,0,0,0,28,28,83,1,,,,,,,,
,,,,,,,,,,,,,FF,,,,,,,,3.232,,,,,,,,,,,,,,,,,,,,,,60ff4e46b9743e061aa26d64,61036b44bb1416c61fa9c1cc,2021-07-30_04h02.28.119,Simcolourproject_2stim_asymm_v5,2020.2.10,Win32,60,61025ae37ef11b136ea224fe,,,,,,,,,3702,25,-59,1,0,0,response3disk,,4,1,4,1,0,0,rectangle,1,4,1,0,0,1,4,1,0,0,0,29,29,130,1,,,,,,,,
,,,,,,,,,,,,,FF,,,,,,,,1.883,,,,,,,,,,,,,,,,,,,,,,60ff4e46b9743e061aa26d64,61036b44bb1416c61fa9c1cc,2021-07-30_04h02.28.119,Simcolourproject_2stim_asymm_v5,2020.2.10,Win32,60,61025ae37ef11b136ea224fe,,,,,,,,,3393,-69,26,1,0,0,response7disk,,1,-17,4,1,0,0,rectangle,-17,4,1,0,0,-17,4,1,0,0,0,30,30,44,1,,,,,,,,
,,,,,,,,,,,,,FF,,,,,,,,2.063,,,,,,,,,,,,,,,,,,,,,,60ff4e46b9743e061aa26d64,61036b44bb1416c61fa9c1cc,2021-07-30_04h02.28.119,Simcolourproject_2stim_asymm_v5,2020.2.10,Win32,60,61025ae37ef11b136ea224fe,,,,,,,,,2579,48,47,1,0,0,response1disk,,6,19,0,1,0,0,rectangle,19,0,1,0,0,19,0,1,0,0,0,31,31,24,1,,,,,,,,
,,,,,,,,,,,,,FF,,,,,,,,2.234,,,,,,,,,,,,,,,,,,,,,,60ff4e46b9743e061aa26d64,61036b44bb1416c61fa9c1cc,2021-07-30_04h02.28.119,Simcolourproject_2stim_asymm_v5,2020.2.10,Win32,60,61025ae37ef11b136ea224fe,,,,,,,,,450,28,-53,1,0,0,response3disk,,4,0,-8,1,0,0,rectangle,0,-8,1,0,0,0,-8,1,0,0,0,32,32,52,1,,,,,,,,
,,,,,,,,,,,,,FF,,,,,,,,1.594,,,,,,,,,,,,,,,,,,,,,,60ff4e46b9743e061aa26d64,61036b44bb1416c61fa9c1cc,2021-07-30_04h02.28.119,Simcolourproject_2stim_asymm_v5,2020.2.10,Win32,60,61025ae37ef11b136ea224fe,,,,,,,,,2786,-60,-24,1,0,0,response5disk,,2,-7,10,1,0,0,rectangle,-7,10,1,0,0,-7,10,1,0,0,0,33,33,89,1,,,,,,,,
,,,,,,,,,,,,,FF,,,,,,,,3.222,,,,,,,,,,,,,,,,,,,,,,60ff4e46b9743e061aa26d64,61036b44bb1416c61fa9c1cc,2021-07-30_04h02.28.119,Simcolourproject_2stim_asymm_v5,2020.2.10,Win32,60,61025ae37ef11b136ea224fe,,,,,,,,,192,-49,-29,1,0,0,response5disk,,2,6,-5,1,0,0,rectangle,6,-5,1,0,0,6,-5,1,0,0,0,34,34,78,1,,,,,,,,
,,,,,,,,,,,,,FF,,,,,,,,1.065,,,,,,,,,,,,,,,,,,,,,,60ff4e46b9743e061aa26d64,61036b44bb1416c61fa9c1cc,2021-07-30_04h02.28.119,Simcolourproject_2stim_asymm_v5,2020.2.10,Win32,60,61025ae37ef11b136ea224fe,,,,,,,,,1686,-45,29,1,0,0,response7disk,,1,12,-2,1,0,0,rectangle,12,-2,1,0,0,12,-2,1,0,0,0,35,35,69,1,,,,,,,,
,,,,,,,,,,,,,FF,,,,,,,,0.75,,,,,,,,,,,,,,,,,,,,,,60ff4e46b9743e061aa26d64,61036b44bb1416c61fa9c1cc,2021-07-30_04h02.28.119,Simcolourproject_2stim_asymm_v5,2020.2.10,Win32,60,61025ae37ef11b136ea224fe,,,,,,,,,2234,-31,63,1,0,0,response7disk,,0,-5,-1,1,0,0,rectangle,-5,-1,1,0,0,-5,-1,1,0,0,0,36,36,154,1,,,,,,,,
,,,,,,,,,,,,,FF,,,,,,,,2.632,,,,,,,,,,,,,,,,,,,,,,60ff4e46b9743e061aa26d64,61036b44bb1416c61fa9c1cc,2021-07-30_04h02.28.119,Simcolourproject_2stim_asymm_v5,2020.2.10,Win32,60,61025ae37ef11b136ea224fe,,,,,,,,,220,-36,-70,1,0,0,response5disk,,3,4,-8,1,0,0,rectangle,4,-8,1,0,0,4,-8,1,0,0,0,37,37,116,1,,,,,,,,
,,,,,,,,,,,,,FF,,,,,,,,1.081,,,,,,,,,,,,,,,,,,,,,,60ff4e46b9743e061aa26d64,61036b44bb1416c61fa9c1cc,2021-07-30_04h02.28.119,Simcolourproject_2stim_asymm_v5,2020.2.10,Win32,60,61025ae37ef11b136ea224fe,,,,,,,,,3836,-70,-25,1,0,0,response5disk,,2,-22,1,1,0,0,rectangle,-22,1,1,0,0,-22,1,1,0,0,0,38,38,151,1,,,,,,,,
,,,,,,,,,,,,,FF,,,,,,,,1.44,,,,,,,,,,,,,,,,,,,,,,60ff4e46b9743e061aa26d64,61036b44bb1416c61fa9c1cc,2021-07-30_04h02.28.119,Simcolourproject_2stim_asymm_v5,2020.2.10,Win32,60,61025ae37ef11b136ea224fe,,,,,,,,,3015,32,73,1,0,0,response1disk,,7,10,-2,1,0,0,rectangle,10,-2,1,0,0,10,-2,1,0,0,0,39,39,18,1,,,,,,,,
,,,,,,,,,,,,,FF,,,,,,,,0.75,,,,,,,,,,,,,,,,,,,,,,60ff4e46b9743e061aa26d64,61036b44bb1416c61fa9c1cc,2021-07-30_04h02.28.119,Simcolourproject_2stim_asymm_v5,2020.2.10,Win32,60,61025ae37ef11b136ea224fe,,,,,,,,,3842,34,60,1,0,0,response1disk,,7,19,-4,1,0,0,rectangle,19,-4,1,0,0,19,-4,1,0,0,0,40,40,79,1,,,,,,,,
,,,,,,,,,,,,,FF,,,,,,,,1.467,,,,,,,,,,,,,,,,,,,,,,60ff4e46b9743e061aa26d64,61036b44bb1416c61fa9c1cc,2021-07-30_04h02.28.119,Simcolourproject_2stim_asymm_v5,2020.2.10,Win32,60,61025ae37ef11b136ea224fe,,,,,,,,,1469,-77,26,1,0,0,response7disk,,1,-20,11,1,0,0,rectangle,-20,11,1,0,0,-20,11,1,0,0,0,41,41,115,1,,,,,,,,
,,,,,,,,,,,,,FF,,,,,,,,2.346,,,,,,,,,,,,,,,,,,,,,,60ff4e46b9743e061aa26d64,61036b44bb1416c61fa9c1cc,2021-07-30_04h02.28.119,Simcolourproject_2stim_asymm_v5,2020.2.10,Win32,60,61025ae37ef11b136ea224fe,,,,,,,,,3229,23,-70,1,0,0,response3disk,,4,4,-2,1,0,0,rectangle,4,-2,1,0,0,4,-2,1,0,0,0,42,42,132,1,,,,,,,,
,,,,,,,,,,,,,FF,,,,,,,,1.7,,,,,,,,,,,,,,,,,,,,,,60ff4e46b9743e061aa26d64,61036b44bb1416c61fa9c1cc,2021-07-30_04h02.28.119,Simcolourproject_2stim_asymm_v5,2020.2.10,Win32,60,61025ae37ef11b136ea224fe,,,,,,,,,2239,-46,-26,1,0,0,response5disk,,2,-6,-8,1,0,0,rectangle,-6,-8,1,0,0,-6,-8,1,0,0,0,43,43,81,1,,,,,,,,
,,,,,,,,,,,,,FF,,,,,,,,1.017,,,,,,,,,,,,,,,,,,,,,,60ff4e46b9743e061aa26d64,61036b44bb1416c61fa9c1cc,2021-07-30_04h02.28.119,Simcolourproject_2stim_asymm_v5,2020.2.10,Win32,60,61025ae37ef11b136ea224fe,,,,,,,,,1829,-41,69,1,0,0,response7disk,,0,-9,5,1,0,0,rectangle,-9,5,1,0,0,-9,5,1,0,0,0,44,44,153,1,,,,,,,,
,,,,,,,,,,,,,FF,,,,,,,,1.716,,,,,,,,,,,,,,,,,,,,,,60ff4e46b9743e061aa26d64,61036b44bb1416c61fa9c1cc,2021-07-30_04h02.28.119,Simcolourproject_2stim_asymm_v5,2020.2.10,Win32,60,61025ae37ef11b136ea224fe,,,,,,,,,3782,72,-32,1,0,0,response3disk,,5,-10,4,1,0,0,rectangle,-10,4,1,0,0,-10,4,1,0,0,0,45,45,39,1,,,,,,,,
,,,,,,,,,,,,,FF,,,,,,,,0.965,,,,,,,,,,,,,,,,,,,,,,60ff4e46b9743e061aa26d64,61036b44bb1416c61fa9c1cc,2021-07-30_04h02.28.119,Simcolourproject_2stim_asymm_v5,2020.2.10,Win32,60,61025ae37ef11b136ea224fe,,,,,,,,,4140,-50,80,1,0,0,response7disk,,0,9,6,1,0,0,rectangle,9,6,1,0,0,9,6,1,0,0,0,46,46,147,1,,,,,,,,
,,,,,,,,,,,,,FF,,,,,,,,3.549,,,,,,,,,,,,,,,,,,,,,,60ff4e46b9743e061aa26d64,61036b44bb1416c61fa9c1cc,2021-07-30_04h02.28.119,Simcolourproject_2stim_asymm_v5,2020.2.10,Win32,60,61025ae37ef11b136ea224fe,,,,,,,,,2254,56,-70,1,0,0,response3disk,,4,-4,-15,1,0,0,rectangle,-4,-15,1,0,0,-4,-15,1,0,0,0,47,47,100,1,,,,,,,,
,,,,,,,,,,,,,FF,,,,,,,,1.383,,,,,,,,,,,,,,,,,,,,,,60ff4e46b9743e061aa26d64,61036b44bb1416c61fa9c1cc,2021-07-30_04h02.28.119,Simcolourproject_2stim_asymm_v5,2020.2.10,Win32,60,61025ae37ef11b136ea224fe,,,,,,,,,2795,-26,-55,1,0,0,response5disk,,3,2,-12,1,0,0,rectangle,2,-12,1,0,0,2,-12,1,0,0,0,48,48,57,1,,,,,,,,
,,,,,,,,,,,,,FF,,,,,,,,1.118,,,,,,,,,,,,,,,,,,,,,,60ff4e46b9743e061aa26d64,61036b44bb1416c61fa9c1cc,2021-07-30_04h02.28.119,Simcolourproject_2stim_asymm_v5,2020.2.10,Win32,60,61025ae37ef11b136ea224fe,,,,,,,,,4258,38,75,1,0,0,response1disk,,7,11,5,1,0,0,rectangle,11,5,1,0,0,11,5,1,0,0,0,49,49,98,1,,,,,,,,
,,,,,,,,,,,,,FF,,,,,,,,1.654,,,,,,,,,,,,,,,,,,,,,,60ff4e46b9743e061aa26d64,61036b44bb1416c61fa9c1cc,2021-07-30_04h02.28.119,Simcolourproject_2stim_asymm_v5,2020.2.10,Win32,60,61025ae37ef11b136ea224fe,,,,,,,,,23,49,-40,1,0,0,response3disk,,5,7,-3,1,0,0,rectangle,7,-3,1,0,0,7,-3,1,0,0,0,50,50,141,1,,,,,,,,
,,,,,,,,,,,,,FF,,,,,,,,1.1,,,,,,,,,,,,,,,,,,,,,,60ff4e46b9743e061aa26d64,61036b44bb1416c61fa9c1cc,2021-07-30_04h02.28.119,Simcolourproject_2stim_asymm_v5,2020.2.10,Win32,60,61025ae37ef11b136ea224fe,,,,,,,,,3540,41,85,1,0,0,response1disk,,7,5,3,1,0,0,rectangle,5,3,1,0,0,5,3,1,0,0,0,51,51,121,1,,,,,,,,
,,,,,,,,,,,,,FF,,,,,,,,1.483,,,,,,,,,,,,,,,,,,,,,,60ff4e46b9743e061aa26d64,61036b44bb1416c61fa9c1cc,2021-07-30_04h02.28.119,Simcolourproject_2stim_asymm_v5,2020.2.10,Win32,60,61025ae37ef11b136ea224fe,,,,,,,,,2518,32,77,1,0,0,response1disk,,7,-1,-10,1,0,0,rectangle,-1,-10,1,0,0,-1,-10,1,0,0,0,52,52,20,1,,,,,,,,
,,,,,,,,,,,,,FF,,,,,,,,1.133,,,,,,,,,,,,,,,,,,,,,,60ff4e46b9743e061aa26d64,61036b44bb1416c61fa9c1cc,2021-07-30_04h02.28.119,Simcolourproject_2stim_asymm_v5,2020.2.10,Win32,60,61025ae37ef11b136ea224fe,,,,,,,,,3409,-50,-80,1,0,0,response5disk,,3,5,-14,1,0,0,rectangle,5,-14,1,0,0,5,-14,1,0,0,0,53,53,124,1,,,,,,,,
,,,,,,,,,,,,,FF,,,,,,,,0.705,,,,,,,,,,,,,,,,,,,,,,60ff4e46b9743e061aa26d64,61036b44bb1416c61fa9c1cc,2021-07-30_04h02.28.119,Simcolourproject_2stim_asymm_v5,2020.2.10,Win32,60,61025ae37ef11b136ea224fe,,,,,,,,,3551,-53,84,1,0,0,response7disk,,0,2,5,1,0,0,rectangle,2,5,1,0,0,2,5,1,0,0,0,54,54,41,1,,,,,,,,
,,,,,,,,,,,,,FF,,,,,,,,1.403,,,,,,,,,,,,,,,,,,,,,,60ff4e46b9743e061aa26d64,61036b44bb1416c61fa9c1cc,2021-07-30_04h02.28.119,Simcolourproject_2stim_asymm_v5,2020.2.10,Win32,60,61025ae37ef11b136ea224fe,,,,,,,,,3014,-53,-36,1,0,0,response5disk,,2,7,-3,1,0,0,rectangle,7,-3,1,0,0,7,-3,1,0,0,0,55,55,140,1,,,,,,,,
,,,,,,,,,,,,,FF,,,,,,,,0.982,,,,,,,,,,,,,,,,,,,,,,60ff4e46b9743e061aa26d64,61036b44bb1416c61fa9c1cc,2021-07-30_04h02.28.119,Simcolourproject_2stim_asymm_v5,2020.2.10,Win32,60,61025ae37ef11b136ea224fe,,,,,,,,,1361,-18,-53,1,0,0,response5disk,,3,14,-7,1,0,0,rectangle,14,-7,1,0,0,14,-7,1,0,0,0,56,56,86,1,,,,,,,,
,,,,,,,,,,,,,FF,,,,,,,,1.267,,,,,,,,,,,,,,,,,,,,,,60ff4e46b9743e061aa26d64,61036b44bb1416c61fa9c1cc,2021-07-30_04h02.28.119,Simcolourproject_2stim_asymm_v5,2020.2.10,Win32,60,61025ae37ef11b136ea224fe,,,,,,,,,3193,60,-28,1,0,0,response3disk,,5,20,8,1,0,0,rectangle,20,8,1,0,0,20,8,1,0,0,0,57,57,84,1,,,,,,,,
,,,,,,,,,,,,,FF,,,,,,,,1.947,,,,,,,,,,,,,,,,,,,,,,60ff4e46b9743e061aa26d64,61036b44bb1416c61fa9c1cc,2021-07-30_04h02.28.119,Simcolourproject_2stim_asymm_v5,2020.2.10,Win32,60,61025ae37ef11b136ea224fe,,,,,,,,,236,22,-69,1,0,0,response3disk,,4,0,-2,1,0,0,rectangle,0,-2,1,0,0,0,-2,1,0,0,0,58,58,135,1,,,,,,,,
,,,,,,,,,,,,,FF,,,,,,,,2.067,,,,,,,,,,,,,,,,,,,,,,60ff4e46b9743e061aa26d64,61036b44bb1416c61fa9c1cc,2021-07-30_04h02.28.119,Simcolourproject_2stim_asymm_v5,2020.2.10,Win32,60,61025ae37ef11b136ea224fe,,,,,,,,,2634,88,35,1,0,0,response1disk,,6,22,5,1,0,0,rectangle,-60,-35,1,0,0,20,2,1,0,0,0,59,59,146,1,,response5disk_3,TRUE,2,2,"[60,152,102,131,3,137,117,309,116,255,14,129,75,239,87,264,107,208,271,94]",2.018,rectangle
,,,,,,,,,,,,,FF,,,,,,,,4.89,,,,,,,,,,,,,,,,,,,,,,60ff4e46b9743e061aa26d64,61036b44bb1416c61fa9c1cc,2021-07-30_04h02.28.119,Simcolourproject_2stim_asymm_v5,2020.2.10,Win32,60,61025ae37ef11b136ea224fe,,,,,,,,,3176,-27,-74,1,0,0,response5disk,,3,10,1,1,0,0,rectangle,10,1,1,0,0,10,1,1,0,0,0,60,60,40,1,,,,,,,,
,,,,,,,,,,,,,FF,,,,,,,,1.183,,,,,,,,,,,,,,,,,,,,,,60ff4e46b9743e061aa26d64,61036b44bb1416c61fa9c1cc,2021-07-30_04h02.28.119,Simcolourproject_2stim_asymm_v5,2020.2.10,Win32,60,61025ae37ef11b136ea224fe,,,,,,,,,2259,-45,-56,1,0,0,response5disk,,3,-15,-7,1,0,0,rectangle,-15,-7,1,0,0,-15,-7,1,0,0,0,61,61,143,1,,,,,,,,
,,,,,,,,,,,,,FF,,,,,,,,1.456,,,,,,,,,,,,,,,,,,,,,,60ff4e46b9743e061aa26d64,61036b44bb1416c61fa9c1cc,2021-07-30_04h02.28.119,Simcolourproject_2stim_asymm_v5,2020.2.10,Win32,60,61025ae37ef11b136ea224fe,,,,,,,,,1375,-58,50,1,0,0,response7disk,,1,-12,4,1,0,0,rectangle,-12,4,1,0,0,-12,4,1,0,0,0,62,62,17,1,,,,,,,,
,,,,,,,,,,,,,FF,,,,,,,,1.665,,,,,,,,,,,,,,,,,,,,,,60ff4e46b9743e061aa26d64,61036b44bb1416c61fa9c1cc,2021-07-30_04h02.28.119,Simcolourproject_2stim_asymm_v5,2020.2.10,Win32,60,61025ae37ef11b136ea224fe,,,,,,,,,1113,95,32,1,0,0,response1disk,,6,15,-3,1,0,0,rectangle,15,-3,1,0,0,15,-3,1,0,0,0,63,63,14,1,,,,,,,,
,,,,,,,,,,,,,FF,,,,,,,,2.432,,,,,,,,,,,,,,,,,,,,,,60ff4e46b9743e061aa26d64,61036b44bb1416c61fa9c1cc,2021-07-30_04h02.28.119,Simcolourproject_2stim_asymm_v5,2020.2.10,Win32,60,61025ae37ef11b136ea224fe,,,,,,,,,1574,-41,-62,1,0,0,response5disk,,3,-4,-4,1,0,0,rectangle,-4,-4,1,0,0,-4,-4,1,0,0,0,64,64,36,1,,,,,,,,
,,,,,,,,,,,,,FF,,,,,,,,1.749,,,,,,,,,,,,,,,,,,,,,,60ff4e46b9743e061aa26d64,61036b44bb1416c61fa9c1cc,2021-07-30_04h02.28.119,Simcolourproject_2stim_asymm_v5,2020.2.10,Win32,60,61025ae37ef11b136ea224fe,,,,,,,,,3359,50,94,1,0,0,response1disk,,7,25,6,1,0,0,rectangle,25,6,1,0,0,25,6,1,0,0,0,65,65,54,1,,,,,,,,
,,,,,,,,,,,,,FF,,,,,,,,1.001,,,,,,,,,,,,,,,,,,,,,,60ff4e46b9743e061aa26d64,61036b44bb1416c61fa9c1cc,2021-07-30_04h02.28.119,Simcolourproject_2stim_asymm_v5,2020.2.10,Win32,60,61025ae37ef11b136ea224fe,,,,,,,,,3253,-28,-63,1,0,0,response5disk,,3,2,-5,1,0,0,rectangle,2,-5,1,0,0,2,-5,1,0,0,0,66,66,51,1,,,,,,,,
,,,,,,,,,,,,,FF,,,,,,,,1.051,,,,,,,,,,,,,,,,,,,,,,60ff4e46b9743e061aa26d64,61036b44bb1416c61fa9c1cc,2021-07-30_04h02.28.119,Simcolourproject_2stim_asymm_v5,2020.2.10,Win32,60,61025ae37ef11b136ea224fe,,,,,,,,,4056,-83,-31,1,0,0,response5disk,,2,2,6,1,0,0,rectangle,2,6,1,0,0,2,6,1,0,0,0,67,67,2,1,,,,,,,,
,,,,,,,,,,,,,FF,,,,,,,,1.833,,,,,,,,,,,,,,,,,,,,,,60ff4e46b9743e061aa26d64,61036b44bb1416c61fa9c1cc,2021-07-30_04h02.28.119,Simcolourproject_2stim_asymm_v5,2020.2.10,Win32,60,61025ae37ef11b136ea224fe,,,,,,,,,1606,-57,28,1,0,0,response7disk,,1,-4,4,1,0,0,rectangle,-4,4,1,0,0,-4,4,1,0,0,0,68,68,133,1,,,,,,,,
,,,,,,,,,,,,,FF,,,,,,,,3.176,,,,,,,,,,,,,,,,,,,,,,60ff4e46b9743e061aa26d64,61036b44bb1416c61fa9c1cc,2021-07-30_04h02.28.119,Simcolourproject_2stim_asymm_v5,2020.2.10,Win32,60,61025ae37ef11b136ea224fe,,,,,,,,,1713,64,36,1,0,0,response1disk,,6,13,-1,1,0,0,rectangle,13,-1,1,0,0,13,-1,1,0,0,0,69,69,73,1,,,,,,,,
,,,,,,,,,,,,,FF,,,,,,,,3.732,,,,,,,,,,,,,,,,,,,,,,60ff4e46b9743e061aa26d64,61036b44bb1416c61fa9c1cc,2021-07-30_04h02.28.119,Simcolourproject_2stim_asymm_v5,2020.2.10,Win32,60,61025ae37ef11b136ea224fe,,,,,,,,,61,57,-44,1,0,0,response3disk,,5,-7,4,1,0,0,rectangle,-7,4,1,0,0,-7,4,1,0,0,0,70,70,97,1,,,,,,,,
,,,,,,,,,,,,,FF,,,,,,,,1.447,,,,,,,,,,,,,,,,,,,,,,60ff4e46b9743e061aa26d64,61036b44bb1416c61fa9c1cc,2021-07-30_04h02.28.119,Simcolourproject_2stim_asymm_v5,2020.2.10,Win32,60,61025ae37ef11b136ea224fe,,,,,,,,,2405,41,55,1,0,0,response1disk,,7,10,9,1,0,0,rectangle,10,9,1,0,0,10,9,1,0,0,0,71,71,38,1,,,,,,,,
,,,,,,,,,,,,,FF,,,,,,,,1.366,,,,,,,,,,,,,,,,,,,,,,60ff4e46b9743e061aa26d64,61036b44bb1416c61fa9c1cc,2021-07-30_04h02.28.119,Simcolourproject_2stim_asymm_v5,2020.2.10,Win32,60,61025ae37ef11b136ea224fe,,,,,,,,,2389,53,-34,1,0,0,response3disk,,5,3,-6,1,0,0,rectangle,3,-6,1,0,0,3,-6,1,0,0,0,72,72,112,1,,,,,,,,
,,,,,,,,,,,,,FF,,,,,,,,0.7,,,,,,,,,,,,,,,,,,,,,,60ff4e46b9743e061aa26d64,61036b44bb1416c61fa9c1cc,2021-07-30_04h02.28.119,Simcolourproject_2stim_asymm_v5,2020.2.10,Win32,60,61025ae37ef11b136ea224fe,,,,,,,,,1603,-35,61,1,0,0,response7disk,,0,-1,-1,1,0,0,rectangle,-1,-1,1,0,0,-1,-1,1,0,0,0,73,73,85,1,,,,,,,,
,,,,,,,,,,,,,FF,,,,,,,,2.4,,,,,,,,,,,,,,,,,,,,,,60ff4e46b9743e061aa26d64,61036b44bb1416c61fa9c1cc,2021-07-30_04h02.28.119,Simcolourproject_2stim_asymm_v5,2020.2.10,Win32,60,61025ae37ef11b136ea224fe,,,,,,,,,428,37,-84,1,0,0,response3disk,,4,-14,6,1,0,0,rectangle,29,-95,1,0,0,4,-4,1,0,0,0,74,74,106,1,,response3disk_3,TRUE,4,4,"[60,152,102,131,3,137,117,309,116,255,14,129,75,239,87,264,107,208,271,94]",1.732,rectangle
,,,,,,,,,,,,,FF,,,,,,,,1.916,,,,,,,,,,,,,,,,,,,,,,60ff4e46b9743e061aa26d64,61036b44bb1416c61fa9c1cc,2021-07-30_04h02.28.119,Simcolourproject_2stim_asymm_v5,2020.2.10,Win32,60,61025ae37ef11b136ea224fe,,,,,,,,,3055,-59,30,1,0,0,response7disk,,1,-11,2,1,0,0,rectangle,-11,2,1,0,0,-11,2,1,0,0,0,75,75,156,1,,,,,,,,
,,,,,,,,,,,,,FF,,,,,,,,1.596,,,,,,,,,,,,,,,,,,,,,,60ff4e46b9743e061aa26d64,61036b44bb1416c61fa9c1cc,2021-07-30_04h02.28.119,Simcolourproject_2stim_asymm_v5,2020.2.10,Win32,60,61025ae37ef11b136ea224fe,,,,,,,,,1023,99,-37,1,0,0,response3disk,,5,1,11,1,0,0,rectangle,1,11,1,0,0,1,11,1,0,0,0,76,76,93,1,,,,,,,,
,,,,,,,,,,,,,FF,,,,,,,,0.926,,,,,,,,,,,,,,,,,,,,,,60ff4e46b9743e061aa26d64,61036b44bb1416c61fa9c1cc,2021-07-30_04h02.28.119,Simcolourproject_2stim_asymm_v5,2020.2.10,Win32,60,61025ae37ef11b136ea224fe,,,,,,,,,712,-54,30,1,0,0,response7disk,,1,-12,6,1,0,0,rectangle,-12,6,1,0,0,-12,6,1,0,0,0,77,77,29,1,,,,,,,,
,,,,,,,,,,,,,FF,,,,,,,,2.984,,,,,,,,,,,,,,,,,,,,,,60ff4e46b9743e061aa26d64,61036b44bb1416c61fa9c1cc,2021-07-30_04h02.28.119,Simcolourproject_2stim_asymm_v5,2020.2.10,Win32,60,61025ae37ef11b136ea224fe,,,,,,,,,1400,-38,-86,1,0,0,response5disk,,3,7,12,1,0,0,rectangle,7,12,1,0,0,7,12,1,0,0,0,78,78,72,1,,,,,,,,
,,,,,,,,,,,,,FF,,,,,,,,0.731,,,,,,,,,,,,,,,,,,,,,,60ff4e46b9743e061aa26d64,61036b44bb1416c61fa9c1cc,2021-07-30_04h02.28.119,Simcolourproject_2stim_asymm_v5,2020.2.10,Win32,60,61025ae37ef11b136ea224fe,,,,,,,,,1757,-30,88,1,0,0,response7disk,,0,19,-6,1,0,0,rectangle,19,-6,1,0,0,19,-6,1,0,0,0,79,79,137,1,,,,,,,,
,,,,,,,,,,,,,FF,,,,,,,,1.143,,,,,,,,,,,,,,,,,,,,,,60ff4e46b9743e061aa26d64,61036b44bb1416c61fa9c1cc,2021-07-30_04h02.28.119,Simcolourproject_2stim_asymm_v5,2020.2.10,Win32,60,61025ae37ef11b136ea224fe,,,,,,,,,743,-39,-22,1,0,0,response5disk,,2,13,-2,1,0,0,rectangle,13,-2,1,0,0,13,-2,1,0,0,0,80,80,150,1,,,,,,,,
,,,,,,,,,,,,,FF,,,,,,,,1.668,,,,,,,,,,,,,,,,,,,,,,60ff4e46b9743e061aa26d64,61036b44bb1416c61fa9c1cc,2021-07-30_04h02.28.119,Simcolourproject_2stim_asymm_v5,2020.2.10,Win32,60,61025ae37ef11b136ea224fe,,,,,,,,,881,-54,-67,1,0,0,response5disk,,3,9,-3,1,0,0,rectangle,9,-3,1,0,0,9,-3,1,0,0,0,81,81,101,1,,,,,,,,
,,,,,,,,,,,,,FF,,,,,,,,1.083,,,,,,,,,,,,,,,,,,,,,,60ff4e46b9743e061aa26d64,61036b44bb1416c61fa9c1cc,2021-07-30_04h02.28.119,Simcolourproject_2stim_asymm_v5,2020.2.10,Win32,60,61025ae37ef11b136ea224fe,,,,,,,,,3175,51,31,1,0,0,response1disk,,6,24,-4,1,0,0,rectangle,24,-4,1,0,0,24,-4,1,0,0,0,82,82,144,1,,,,,,,,
,,,,,,,,,,,,,FF,,,,,,,,1.5,,,,,,,,,,,,,,,,,,,,,,60ff4e46b9743e061aa26d64,61036b44bb1416c61fa9c1cc,2021-07-30_04h02.28.119,Simcolourproject_2stim_asymm_v5,2020.2.10,Win32,60,61025ae37ef11b136ea224fe,,,,,,,,,1243,23,-55,1,0,0,response3disk,,4,12,-12,1,0,0,rectangle,12,-12,1,0,0,12,-12,1,0,0,0,83,83,22,1,,,,,,,,
,,,,,,,,,,,,,FF,,,,,,,,0.817,,,,,,,,,,,,,,,,,,,,,,60ff4e46b9743e061aa26d64,61036b44bb1416c61fa9c1cc,2021-07-30_04h02.28.119,Simcolourproject_2stim_asymm_v5,2020.2.10,Win32,60,61025ae37ef11b136ea224fe,,,,,,,,,1175,47,88,1,0,0,response1disk,,7,19,-1,1,0,0,rectangle,19,-1,1,0,0,19,-1,1,0,0,0,84,84,94,1,,,,,,,,
,,,,,,,,,,,,,FF,,,,,,,,1.583,,,,,,,,,,,,,,,,,,,,,,60ff4e46b9743e061aa26d64,61036b44bb1416c61fa9c1cc,2021-07-30_04h02.28.119,Simcolourproject_2stim_asymm_v5,2020.2.10,Win32,60,61025ae37ef11b136ea224fe,,,,,,,,,965,77,35,1,0,0,response1disk,,6,28,-2,1,0,0,rectangle,28,-2,1,0,0,28,-2,1,0,0,0,85,85,134,1,,,,,,,,
,,,,,,,,,,,,,FF,,,,,,,,0.784,,,,,,,,,,,,,,,,,,,,,,60ff4e46b9743e061aa26d64,61036b44bb1416c61fa9c1cc,2021-07-30_04h02.28.119,Simcolourproject_2stim_asymm_v5,2020.2.10,Win32,60,61025ae37ef11b136ea224fe,,,,,,,,,3046,-81,48,1,0,0,response7disk,,1,-10,6,1,0,0,rectangle,-79,17,1,0,0,-12,0,1,0,0,0,86,86,59,1,,response7disk_3,TRUE,1,1,"[60,152,102,131,3,137,117,309,116,255,14,129,75,239,87,264,107,208,271,94]",1.843,rectangle
,,,,,,,,,,,,,FF,,,,,,,,2.216,,,,,,,,,,,,,,,,,,,,,,60ff4e46b9743e061aa26d64,61036b44bb1416c61fa9c1cc,2021-07-30_04h02.28.119,Simcolourproject_2stim_asymm_v5,2020.2.10,Win32,60,61025ae37ef11b136ea224fe,,,,,,,,,2020,76,-39,1,0,0,response3disk,,5,-26,0,1,0,0,rectangle,-26,0,1,0,0,-26,0,1,0,0,0,87,87,105,1,,,,,,,,
,,,,,,,,,,,,,FF,,,,,,,,0.79,,,,,,,,,,,,,,,,,,,,,,60ff4e46b9743e061aa26d64,61036b44bb1416c61fa9c1cc,2021-07-30_04h02.28.119,Simcolourproject_2stim_asymm_v5,2020.2.10,Win32,60,61025ae37ef11b136ea224fe,,,,,,,,,613,-28,45,1,0,0,response7disk,,0,4,2,1,0,0,rectangle,4,2,1,0,0,4,2,1,0,0,0,88,88,128,1,,,,,,,,
,,,,,,,,,,,,,FF,,,,,,,,2.384,,,,,,,,,,,,,,,,,,,,,,60ff4e46b9743e061aa26d64,61036b44bb1416c61fa9c1cc,2021-07-30_04h02.28.119,Simcolourproject_2stim_asymm_v5,2020.2.10,Win32,60,61025ae37ef11b136ea224fe,,,,,,,,,4196,48,-82,1,0,0,response3disk,,4,14,3,1,0,0,rectangle,14,3,1,0,0,14,3,1,0,0,0,89,89,25,1,,,,,,,,
,,,,,,,,,,,,,FF,,,,,,,,0.839,,,,,,,,,,,,,,,,,,,,,,60ff4e46b9743e061aa26d64,61036b44bb1416c61fa9c1cc,2021-07-30_04h02.28.119,Simcolourproject_2stim_asymm_v5,2020.2.10,Win32,60,61025ae37ef11b136ea224fe,,,,,,,,,1286,-47,62,1,0,0,response7disk,,0,1,-5,1,0,0,rectangle,1,-5,1,0,0,1,-5,1,0,0,0,90,90,149,1,,,,,,,,
,,,,,,,,,,,,,FF,,,,,,,,1,,,,,,,,,,,,,,,,,,,,,,60ff4e46b9743e061aa26d64,61036b44bb1416c61fa9c1cc,2021-07-30_04h02.28.119,Simcolourproject_2stim_asymm_v5,2020.2.10,Win32,60,61025ae37ef11b136ea224fe,,,,,,,,,2862,73,37,1,0,0,response1disk,,6,6,4,1,0,0,rectangle,6,4,1,0,0,6,4,1,0,0,0,91,91,113,1,,,,,,,,
,,,,,,,,,,,,,FF,,,,,,,,0.585,,,,,,,,,,,,,,,,,,,,,,60ff4e46b9743e061aa26d64,61036b44bb1416c61fa9c1cc,2021-07-30_04h02.28.119,Simcolourproject_2stim_asymm_v5,2020.2.10,Win32,60,61025ae37ef11b136ea224fe,,,,,,,,,508,30,46,1,0,0,response1disk,,7,16,9,1,0,0,rectangle,16,9,1,0,0,16,9,1,0,0,0,92,92,31,1,,,,,,,,
,,,,,,,,,,,,,FF,,,,,,,,1.267,,,,,,,,,,,,,,,,,,,,,,60ff4e46b9743e061aa26d64,61036b44bb1416c61fa9c1cc,2021-07-30_04h02.28.119,Simcolourproject_2stim_asymm_v5,2020.2.10,Win32,60,61025ae37ef11b136ea224fe,,,,,,,,,4318,-74,-35,1,0,0,response5disk,,2,-21,-3,1,0,0,rectangle,63,36,1,0,0,10,-1,1,0,0,0,93,93,1,1,,response1disk_3,TRUE,6,6,"[60,152,102,131,3,137,117,309,116,255,14,129,75,239,87,264,107,208,271,94]",1.442,rectangle
,,,,,,,,,,,,,FF,,,,,,,,2.3,,,,,,,,,,,,,,,,,,,,,,60ff4e46b9743e061aa26d64,61036b44bb1416c61fa9c1cc,2021-07-30_04h02.28.119,Simcolourproject_2stim_asymm_v5,2020.2.10,Win32,60,61025ae37ef11b136ea224fe,,,,,,,,,2750,45,-61,1,0,0,response3disk,,4,13,-9,1,0,0,rectangle,13,-9,1,0,0,13,-9,1,0,0,0,94,94,138,1,,,,,,,,
,,,,,,,,,,,,,FF,,,,,,,,1.265,,,,,,,,,,,,,,,,,,,,,,60ff4e46b9743e061aa26d64,61036b44bb1416c61fa9c1cc,2021-07-30_04h02.28.119,Simcolourproject_2stim_asymm_v5,2020.2.10,Win32,60,61025ae37ef11b136ea224fe,,,,,,,,,874,-41,-49,1,0,0,response5disk,,3,9,0,1,0,0,rectangle,9,0,1,0,0,9,0,1,0,0,0,95,95,142,1,,,,,,,,
,,,,,,,,,,,,,FF,,,,,,,,0.936,,,,,,,,,,,,,,,,,,,,,,60ff4e46b9743e061aa26d64,61036b44bb1416c61fa9c1cc,2021-07-30_04h02.28.119,Simcolourproject_2stim_asymm_v5,2020.2.10,Win32,60,61025ae37ef11b136ea224fe,,,,,,,,,3895,67,23,1,0,0,response1disk,,6,7,-2,1,0,0,rectangle,7,-2,1,0,0,7,-2,1,0,0,0,96,96,74,1,,,,,,,,
,,,,,,,,,,,,,FF,,,,,,,,1.632,,,,,,,,,,,,,,,,,,,,,,60ff4e46b9743e061aa26d64,61036b44bb1416c61fa9c1cc,2021-07-30_04h02.28.119,Simcolourproject_2stim_asymm_v5,2020.2.10,Win32,60,61025ae37ef11b136ea224fe,,,,,,,,,1769,41,-31,1,0,0,response3disk,,5,-8,-2,1,0,0,rectangle,-8,-2,1,0,0,-8,-2,1,0,0,0,97,97,16,1,,,,,,,,
,,,,,,,,,,,,,FF,,,,,,,,0.903,,,,,,,,,,,,,,,,,,,,,,60ff4e46b9743e061aa26d64,61036b44bb1416c61fa9c1cc,2021-07-30_04h02.28.119,Simcolourproject_2stim_asymm_v5,2020.2.10,Win32,60,61025ae37ef11b136ea224fe,,,,,,,,,3024,37,65,1,0,0,response1disk,,7,9,12,1,0,0,rectangle,9,12,1,0,0,9,12,1,0,0,0,98,98,63,1,,,,,,,,
,,,,,,,,,,,,,FF,,,,,,,,2.498,,,,,,,,,,,,,,,,,,,,,,60ff4e46b9743e061aa26d64,61036b44bb1416c61fa9c1cc,2021-07-30_04h02.28.119,Simcolourproject_2stim_asymm_v5,2020.2.10,Win32,60,61025ae37ef11b136ea224fe,,,,,,,,,3174,85,46,1,0,0,response1disk,,6,7,6,1,0,0,rectangle,7,6,1,0,0,7,6,1,0,0,0,99,99,50,1,,,,,,,,
,,,,,,,,,,,,,FF,,,,,,,,1.133,,,,,,,,,,,,,,,,,,,,,,60ff4e46b9743e061aa26d64,61036b44bb1416c61fa9c1cc,2021-07-30_04h02.28.119,Simcolourproject_2stim_asymm_v5,2020.2.10,Win32,60,61025ae37ef11b136ea224fe,,,,,,,,,2462,46,71,1,0,0,response1disk,,7,9,4,1,0,0,rectangle,9,4,1,0,0,9,4,1,0,0,0,100,100,109,1,,,,,,,,
,,,,,,,,,,,,,FF,,,,,,,,1.362,,,,,,,,,,,,,,,,,,,,,,60ff4e46b9743e061aa26d64,61036b44bb1416c61fa9c1cc,2021-07-30_04h02.28.119,Simcolourproject_2stim_asymm_v5,2020.2.10,Win32,60,61025ae37ef11b136ea224fe,,,,,,,,,2922,63,23,1,0,0,response1disk,,6,16,0,1,0,0,rectangle,79,40,1,0,0,18,-5,1,0,0,0,101,101,8,1,,response1disk_3,TRUE,6,6,"[60,152,102,131,3,137,117,309,116,255,14,129,75,239,87,264,107,208,271,94]",1.407,rectangle
,,,,,,,,,,,,,FF,,,,,,,,1,,,,,,,,,,,,,,,,,,,,,,60ff4e46b9743e061aa26d64,61036b44bb1416c61fa9c1cc,2021-07-30_04h02.28.119,Simcolourproject_2stim_asymm_v5,2020.2.10,Win32,60,61025ae37ef11b136ea224fe,,,,,,,,,322,41,63,1,0,0,response1disk,,7,-7,8,1,0,0,rectangle,-7,8,1,0,0,-7,8,1,0,0,0,102,102,139,1,,,,,,,,
,,,,,,,,,,,,,FF,,,,,,,,0.906,,,,,,,,,,,,,,,,,,,,,,60ff4e46b9743e061aa26d64,61036b44bb1416c61fa9c1cc,2021-07-30_04h02.28.119,Simcolourproject_2stim_asymm_v5,2020.2.10,Win32,60,61025ae37ef11b136ea224fe,,,,,,,,,3131,45,-26,1,0,0,response3disk,,5,7,-4,1,0,0,rectangle,7,-4,1,0,0,7,-4,1,0,0,0,103,103,87,1,,,,,,,,
,,,,,,,,,,,,,FF,,,,,,,,0.761,,,,,,,,,,,,,,,,,,,,,,60ff4e46b9743e061aa26d64,61036b44bb1416c61fa9c1cc,2021-07-30_04h02.28.119,Simcolourproject_2stim_asymm_v5,2020.2.10,Win32,60,61025ae37ef11b136ea224fe,,,,,,,,,3577,24,-57,1,0,0,response3disk,,4,10,-8,1,0,0,rectangle,10,-8,1,0,0,10,-8,1,0,0,0,104,104,43,1,,,,,,,,
,,,,,,,,,,,,,FF,,,,,,,,0.815,,,,,,,,,,,,,,,,,,,,,,60ff4e46b9743e061aa26d64,61036b44bb1416c61fa9c1cc,2021-07-30_04h02.28.119,Simcolourproject_2stim_asymm_v5,2020.2.10,Win32,60,61025ae37ef11b136ea224fe,,,,,,,,,2511,31,76,1,0,0,response1disk,,7,3,0,1,0,0,rectangle,3,0,1,0,0,3,0,1,0,0,0,105,105,49,1,,,,,,,,
,,,,,,,,,,,,,FF,,,,,,,,1.866,,,,,,,,,,,,,,,,,,,,,,60ff4e46b9743e061aa26d64,61036b44bb1416c61fa9c1cc,2021-07-30_04h02.28.119,Simcolourproject_2stim_asymm_v5,2020.2.10,Win32,60,61025ae37ef11b136ea224fe,,,,,,,,,2982,45,-45,1,0,0,response3disk,,5,19,-3,1,0,0,rectangle,-67,24,1,0,0,-16,6,1,0,0,0,106,106,145,1,,response7disk_3,TRUE,1,1,"[60,152,102,131,3,137,117,309,116,255,14,129,75,239,87,264,107,208,271,94]",1.764,rectangle
,,,,,,,,,,,,,FF,,,,,,,,1.71,,,,,,,,,,,,,,,,,,,,,,60ff4e46b9743e061aa26d64,61036b44bb1416c61fa9c1cc,2021-07-30_04h02.28.119,Simcolourproject_2stim_asymm_v5,2020.2.10,Win32,60,61025ae37ef11b136ea224fe,,,,,,,,,407,59,31,1,0,0,response1disk,,6,0,3,1,0,0,rectangle,0,3,1,0,0,0,3,1,0,0,0,107,107,75,1,,,,,,,,
,,,,,,,,,,,,,FF,,,,,,,,0.817,,,,,,,,,,,,,,,,,,,,,,60ff4e46b9743e061aa26d64,61036b44bb1416c61fa9c1cc,2021-07-30_04h02.28.119,Simcolourproject_2stim_asymm_v5,2020.2.10,Win32,60,61025ae37ef11b136ea224fe,,,,,,,,,4264,29,-53,1,0,0,response3disk,,4,3,-8,1,0,0,rectangle,3,-8,1,0,0,3,-8,1,0,0,0,108,108,35,1,,,,,,,,
,,,,,,,,,,,,,FF,,,,,,,,1.343,,,,,,,,,,,,,,,,,,,,,,60ff4e46b9743e061aa26d64,61036b44bb1416c61fa9c1cc,2021-07-30_04h02.28.119,Simcolourproject_2stim_asymm_v5,2020.2.10,Win32,60,61025ae37ef11b136ea224fe,,,,,,,,,2902,-42,21,1,0,0,response7disk,,1,-2,-2,1,0,0,rectangle,-2,-2,1,0,0,-2,-2,1,0,0,0,109,109,60,1,,,,,,,,
,,,,,,,,,,,,,FF,,,,,,,,1.857,,,,,,,,,,,,,,,,,,,,,,60ff4e46b9743e061aa26d64,61036b44bb1416c61fa9c1cc,2021-07-30_04h02.28.119,Simcolourproject_2stim_asymm_v5,2020.2.10,Win32,60,61025ae37ef11b136ea224fe,,,,,,,,,234,62,29,1,0,0,response1disk,,6,24,7,1,0,0,rectangle,24,7,1,0,0,24,7,1,0,0,0,110,110,102,1,,,,,,,,
,,,,,,,,,,,,,FF,,,,,,,,1.148,,,,,,,,,,,,,,,,,,,,,,60ff4e46b9743e061aa26d64,61036b44bb1416c61fa9c1cc,2021-07-30_04h02.28.119,Simcolourproject_2stim_asymm_v5,2020.2.10,Win32,60,61025ae37ef11b136ea224fe,,,,,,,,,813,33,-47,1,0,0,response3disk,,4,12,0,1,0,0,rectangle,12,0,1,0,0,12,0,1,0,0,0,111,111,33,1,,,,,,,,
,,,,,,,,,,,,,FF,,,,,,,,1.376,,,,,,,,,,,,,,,,,,,,,,60ff4e46b9743e061aa26d64,61036b44bb1416c61fa9c1cc,2021-07-30_04h02.28.119,Simcolourproject_2stim_asymm_v5,2020.2.10,Win32,60,61025ae37ef11b136ea224fe,,,,,,,,,2872,51,23,1,0,0,response1disk,,6,31,0,1,0,0,rectangle,31,0,1,0,0,31,0,1,0,0,0,112,112,46,1,,,,,,,,
,,,,,,,,,,,,,FF,,,,,,,,0.883,,,,,,,,,,,,,,,,,,,,,,60ff4e46b9743e061aa26d64,61036b44bb1416c61fa9c1cc,2021-07-30_04h02.28.119,Simcolourproject_2stim_asymm_v5,2020.2.10,Win32,60,61025ae37ef11b136ea224fe,,,,,,,,,1841,25,53,1,0,0,response1disk,,7,8,-8,1,0,0,rectangle,8,-8,1,0,0,8,-8,1,0,0,0,113,113,126,1,,,,,,,,
,,,,,,,,,,,,,FF,,,,,,,,0.754,,,,,,,,,,,,,,,,,,,,,,60ff4e46b9743e061aa26d64,61036b44bb1416c61fa9c1cc,2021-07-30_04h02.28.119,Simcolourproject_2stim_asymm_v5,2020.2.10,Win32,60,61025ae37ef11b136ea224fe,,,,,,,,,2913,25,62,1,0,0,response1disk,,7,-10,-6,1,0,0,rectangle,-10,-6,1,0,0,-10,-6,1,0,0,0,114,114,110,1,,,,,,,,
,,,,,,,,,,,,,FF,,,,,,,,0.564,,,,,,,,,,,,,,,,,,,,,,60ff4e46b9743e061aa26d64,61036b44bb1416c61fa9c1cc,2021-07-30_04h02.28.119,Simcolourproject_2stim_asymm_v5,2020.2.10,Win32,60,61025ae37ef11b136ea224fe,,,,,,,,,1988,30,60,1,0,0,response1disk,,7,6,3,1,0,0,rectangle,66,-37,1,0,0,23,-9,1,0,0,0,115,115,148,1,,response3disk_3,TRUE,5,5,"[60,152,102,131,3,137,117,309,116,255,14,129,75,239,87,264,107,208,271,94]",1.467,rectangle
,,,,,,,,,,,,,FF,,,,,,,,3.134,,,,,,,,,,,,,,,,,,,,,,60ff4e46b9743e061aa26d64,61036b44bb1416c61fa9c1cc,2021-07-30_04h02.28.119,Simcolourproject_2stim_asymm_v5,2020.2.10,Win32,60,61025ae37ef11b136ea224fe,,,,,,,,,817,45,54,1,0,0,response1disk,,7,13,-9,1,0,0,rectangle,40,93,1,0,0,-4,11,1,0,0,0,116,116,127,1,,response1disk_3,TRUE,7,7,"[60,152,102,131,3,137,117,309,116,255,14,129,75,239,87,264,107,208,271,94]",1.235,rectangle
,,,,,,,,,,,,,FF,,,,,,,,0.9,,,,,,,,,,,,,,,,,,,,,,60ff4e46b9743e061aa26d64,61036b44bb1416c61fa9c1cc,2021-07-30_04h02.28.119,Simcolourproject_2stim_asymm_v5,2020.2.10,Win32,60,61025ae37ef11b136ea224fe,,,,,,,,,602,68,-33,1,0,0,response3disk,,5,-5,-3,1,0,0,rectangle,-5,-3,1,0,0,-5,-3,1,0,0,0,117,117,125,1,,,,,,,,
,,,,,,,,,,,,,FF,,,,,,,,1.35,,,,,,,,,,,,,,,,,,,,,,60ff4e46b9743e061aa26d64,61036b44bb1416c61fa9c1cc,2021-07-30_04h02.28.119,Simcolourproject_2stim_asymm_v5,2020.2.10,Win32,60,61025ae37ef11b136ea224fe,,,,,,,,,1347,25,-59,1,0,0,response3disk,,4,17,-2,1,0,0,rectangle,17,-2,1,0,0,17,-2,1,0,0,0,118,118,45,1,,,,,,,,
,,,,,,,,,,,,,FF,,,,,,,,1.285,,,,,,,,,,,,,,,,,,,,,,60ff4e46b9743e061aa26d64,61036b44bb1416c61fa9c1cc,2021-07-30_04h02.28.119,Simcolourproject_2stim_asymm_v5,2020.2.10,Win32,60,61025ae37ef11b136ea224fe,,,,,,,,,3508,65,-22,1,0,0,response3disk,,5,25,-2,1,0,0,rectangle,25,-2,1,0,0,25,-2,1,0,0,0,119,119,67,1,,,,,,,,
,,,,,,,,,,,,,FF,,,,,,,,0.943,,,,,,,,,,,,,,,,,,,,,,60ff4e46b9743e061aa26d64,61036b44bb1416c61fa9c1cc,2021-07-30_04h02.28.119,Simcolourproject_2stim_asymm_v5,2020.2.10,Win32,60,61025ae37ef11b136ea224fe,,,,,,,,,3588,67,-20,1,0,0,response3disk,,5,13,7,1,0,0,rectangle,13,7,1,0,0,13,7,1,0,0,0,120,120,99,1,,,,,,,,
,,,,,,,,,,,,,FF,,,,,,,,2.645,,,,,,,,,,,,,,,,,,,,,,60ff4e46b9743e061aa26d64,61036b44bb1416c61fa9c1cc,2021-07-30_04h02.28.119,Simcolourproject_2stim_asymm_v5,2020.2.10,Win32,60,61025ae37ef11b136ea224fe,,,,,,,,,296,70,43,1,0,0,response1disk,,6,8,0,1,0,0,rectangle,8,0,1,0,0,8,0,1,0,0,0,121,121,95,1,,,,,,,,
,,,,,,,,,,,,,FF,,,,,,,,0.815,,,,,,,,,,,,,,,,,,,,,,60ff4e46b9743e061aa26d64,61036b44bb1416c61fa9c1cc,2021-07-30_04h02.28.119,Simcolourproject_2stim_asymm_v5,2020.2.10,Win32,60,61025ae37ef11b136ea224fe,,,,,,,,,3315,46,34,1,0,0,response1disk,,6,4,3,1,0,0,rectangle,4,3,1,0,0,4,3,1,0,0,0,122,122,117,1,,,,,,,,
,,,,,,,,,,,,,FF,,,,,,,,0.933,,,,,,,,,,,,,,,,,,,,,,60ff4e46b9743e061aa26d64,61036b44bb1416c61fa9c1cc,2021-07-30_04h02.28.119,Simcolourproject_2stim_asymm_v5,2020.2.10,Win32,60,61025ae37ef11b136ea224fe,,,,,,,,,3383,-44,66,1,0,0,response7disk,,0,-22,-7,1,0,0,rectangle,-22,-7,1,0,0,-22,-7,1,0,0,0,123,123,158,1,,,,,,,,
,,,,,,,,,,,,,FF,,,,,,,,1.034,,,,,,,,,,,,,,,,,,,,,,60ff4e46b9743e061aa26d64,61036b44bb1416c61fa9c1cc,2021-07-30_04h02.28.119,Simcolourproject_2stim_asymm_v5,2020.2.10,Win32,60,61025ae37ef11b136ea224fe,,,,,,,,,2533,-58,26,1,0,0,response7disk,,1,-20,-4,1,0,0,rectangle,-20,-4,1,0,0,-20,-4,1,0,0,0,124,124,5,1,,,,,,,,
,,,,,,,,,,,,,FF,,,,,,,,1.681,,,,,,,,,,,,,,,,,,,,,,60ff4e46b9743e061aa26d64,61036b44bb1416c61fa9c1cc,2021-07-30_04h02.28.119,Simcolourproject_2stim_asymm_v5,2020.2.10,Win32,60,61025ae37ef11b136ea224fe,,,,,,,,,491,68,30,1,0,0,response1disk,,6,7,7,1,0,0,rectangle,7,7,1,0,0,7,7,1,0,0,0,125,125,136,1,,,,,,,,
,,,,,,,,,,,,,FF,,,,,,,,0.735,,,,,,,,,,,,,,,,,,,,,,60ff4e46b9743e061aa26d64,61036b44bb1416c61fa9c1cc,2021-07-30_04h02.28.119,Simcolourproject_2stim_asymm_v5,2020.2.10,Win32,60,61025ae37ef11b136ea224fe,,,,,,,,,542,27,73,1,0,0,response1disk,,7,4,0,1,0,0,rectangle,4,0,1,0,0,4,0,1,0,0,0,126,126,7,1,,,,,,,,
,,,,,,,,,,,,,FF,,,,,,,,0.718,,,,,,,,,,,,,,,,,,,,,,60ff4e46b9743e061aa26d64,61036b44bb1416c61fa9c1cc,2021-07-30_04h02.28.119,Simcolourproject_2stim_asymm_v5,2020.2.10,Win32,60,61025ae37ef11b136ea224fe,,,,,,,,,3542,23,58,1,0,0,response1disk,,7,-8,2,1,0,0,rectangle,-8,2,1,0,0,-8,2,1,0,0,0,127,127,90,1,,,,,,,,
,,,,,,,,,,,,,FF,,,,,,,,1.466,,,,,,,,,,,,,,,,,,,,,,60ff4e46b9743e061aa26d64,61036b44bb1416c61fa9c1cc,2021-07-30_04h02.28.119,Simcolourproject_2stim_asymm_v5,2020.2.10,Win32,60,61025ae37ef11b136ea224fe,,,,,,,,,1422,-28,-67,1,0,0,response5disk,,3,9,4,1,0,0,rectangle,26,50,1,0,0,-9,-12,1,0,0,0,128,128,88,1,,response1disk_3,TRUE,7,7,"[60,152,102,131,3,137,117,309,116,255,14,129,75,239,87,264,107,208,271,94]",1.265,rectangle
,,,,,,,,,,,,,FF,,,,,,,,1.018,,,,,,,,,,,,,,,,,,,,,,60ff4e46b9743e061aa26d64,61036b44bb1416c61fa9c1cc,2021-07-30_04h02.28.119,Simcolourproject_2stim_asymm_v5,2020.2.10,Win32,60,61025ae37ef11b136ea224fe,,,,,,,,,929,46,-57,1,0,0,response3disk,,4,11,-15,1,0,0,rectangle,11,-15,1,0,0,11,-15,1,0,0,0,129,129,62,1,,,,,,,,
,,,,,,,,,,,,,FF,,,,,,,,0.768,,,,,,,,,,,,,,,,,,,,,,60ff4e46b9743e061aa26d64,61036b44bb1416c61fa9c1cc,2021-07-30_04h02.28.119,Simcolourproject_2stim_asymm_v5,2020.2.10,Win32,60,61025ae37ef11b136ea224fe,,,,,,,,,3009,64,26,1,0,0,response1disk,,6,14,-2,1,0,0,rectangle,-72,-32,1,0,0,-7,-4,1,0,0,0,130,130,92,1,,response5disk_3,TRUE,2,2,"[60,152,102,131,3,137,117,309,116,255,14,129,75,239,87,264,107,208,271,94]",1.527,rectangle
,,,,,,,,,,,,,FF,,,,,,,,2.048,,,,,,,,,,,,,,,,,,,,,,60ff4e46b9743e061aa26d64,61036b44bb1416c61fa9c1cc,2021-07-30_04h02.28.119,Simcolourproject_2stim_asymm_v5,2020.2.10,Win32,60,61025ae37ef11b136ea224fe,,,,,,,,,1983,28,-61,1,0,0,response3disk,,4,-7,2,1,0,0,rectangle,-7,2,1,0,0,-7,2,1,0,0,0,131,131,6,1,,,,,,,,
,,,,,,,,,,,,,FF,,,,,,,,0.74,,,,,,,,,,,,,,,,,,,,,,60ff4e46b9743e061aa26d64,61036b44bb1416c61fa9c1cc,2021-07-30_04h02.28.119,Simcolourproject_2stim_asymm_v5,2020.2.10,Win32,60,61025ae37ef11b136ea224fe,,,,,,,,,1972,-34,56,1,0,0,response7disk,,0,-7,-8,1,0,0,rectangle,-7,-8,1,0,0,-7,-8,1,0,0,0,132,132,71,1,,,,,,,,
,,,,,,,,,,,,,FF,,,,,,,,1.183,,,,,,,,,,,,,,,,,,,,,,60ff4e46b9743e061aa26d64,61036b44bb1416c61fa9c1cc,2021-07-30_04h02.28.119,Simcolourproject_2stim_asymm_v5,2020.2.10,Win32,60,61025ae37ef11b136ea224fe,,,,,,,,,2591,-59,-17,1,0,0,response5disk,,2,-23,-8,1,0,0,rectangle,-23,-8,1,0,0,-23,-8,1,0,0,0,133,133,61,1,,,,,,,,
,,,,,,,,,,,,,FF,,,,,,,,0.927,,,,,,,,,,,,,,,,,,,,,,60ff4e46b9743e061aa26d64,61036b44bb1416c61fa9c1cc,2021-07-30_04h02.28.119,Simcolourproject_2stim_asymm_v5,2020.2.10,Win32,60,61025ae37ef11b136ea224fe,,,,,,,,,1572,72,-32,1,0,0,response3disk,,5,14,-1,1,0,0,rectangle,14,-1,1,0,0,14,-1,1,0,0,0,134,134,159,1,,,,,,,,
,,,,,,,,,,,,,FF,,,,,,,,0.708,,,,,,,,,,,,,,,,,,,,,,60ff4e46b9743e061aa26d64,61036b44bb1416c61fa9c1cc,2021-07-30_04h02.28.119,Simcolourproject_2stim_asymm_v5,2020.2.10,Win32,60,61025ae37ef11b136ea224fe,,,,,,,,,4086,31,59,1,0,0,response1disk,,7,7,7,1,0,0,rectangle,7,7,1,0,0,7,7,1,0,0,0,135,135,30,1,,,,,,,,
,,,,,,,,,,,,,FF,,,,,,,,1.609,,,,,,,,,,,,,,,,,,,,,,60ff4e46b9743e061aa26d64,61036b44bb1416c61fa9c1cc,2021-07-30_04h02.28.119,Simcolourproject_2stim_asymm_v5,2020.2.10,Win32,60,61025ae37ef11b136ea224fe,,,,,,,,,3762,-25,-57,1,0,0,response5disk,,3,15,-4,1,0,0,rectangle,-40,-68,1,0,0,-3,-2,1,0,0,0,136,136,4,1,,response5disk_3,TRUE,3,3,"[60,152,102,131,3,137,117,309,116,255,14,129,75,239,87,264,107,208,271,94]",1.616,rectangle
,,,,,,,,,,,,,FF,,,,,,,,1.047,,,,,,,,,,,,,,,,,,,,,,60ff4e46b9743e061aa26d64,61036b44bb1416c61fa9c1cc,2021-07-30_04h02.28.119,Simcolourproject_2stim_asymm_v5,2020.2.10,Win32,60,61025ae37ef11b136ea224fe,,,,,,,,,1009,58,-37,1,0,0,response3disk,,5,9,0,1,0,0,rectangle,9,0,1,0,0,9,0,1,0,0,0,137,137,48,1,,,,,,,,
,,,,,,,,,,,,,FF,,,,,,,,0.95,,,,,,,,,,,,,,,,,,,,,,60ff4e46b9743e061aa26d64,61036b44bb1416c61fa9c1cc,2021-07-30_04h02.28.119,Simcolourproject_2stim_asymm_v5,2020.2.10,Win32,60,61025ae37ef11b136ea224fe,,,,,,,,,3724,40,75,1,0,0,response1disk,,7,-21,7,1,0,0,rectangle,-21,7,1,0,0,-21,7,1,0,0,0,138,138,111,1,,,,,,,,
,,,,,,,,,,,,,FF,,,,,,,,1.863,,,,,,,,,,,,,,,,,,,,,,60ff4e46b9743e061aa26d64,61036b44bb1416c61fa9c1cc,2021-07-30_04h02.28.119,Simcolourproject_2stim_asymm_v5,2020.2.10,Win32,60,61025ae37ef11b136ea224fe,,,,,,,,,689,101,35,1,0,0,response1disk,,6,-8,5,1,0,0,rectangle,-8,5,1,0,0,-8,5,1,0,0,0,139,139,21,1,,,,,,,,
,,,,,,,,,,,,,FF,,,,,,,,2.066,,,,,,,,,,,,,,,,,,,,,,60ff4e46b9743e061aa26d64,61036b44bb1416c61fa9c1cc,2021-07-30_04h02.28.119,Simcolourproject_2stim_asymm_v5,2020.2.10,Win32,60,61025ae37ef11b136ea224fe,,,,,,,,,1931,-43,-55,1,0,0,response5disk,,3,-6,-11,1,0,0,rectangle,-6,-11,1,0,0,-6,-11,1,0,0,0,140,140,66,1,,,,,,,,
,,,,,,,,,,,,,FF,,,,,,,,1.751,,,,,,,,,,,,,,,,,,,,,,60ff4e46b9743e061aa26d64,61036b44bb1416c61fa9c1cc,2021-07-30_04h02.28.119,Simcolourproject_2stim_asymm_v5,2020.2.10,Win32,60,61025ae37ef11b136ea224fe,,,,,,,,,194,31,-45,1,0,0,response3disk,,4,11,3,1,0,0,rectangle,11,3,1,0,0,11,3,1,0,0,0,141,141,77,1,,,,,,,,
,,,,,,,,,,,,,FF,,,,,,,,2.082,,,,,,,,,,,,,,,,,,,,,,60ff4e46b9743e061aa26d64,61036b44bb1416c61fa9c1cc,2021-07-30_04h02.28.119,Simcolourproject_2stim_asymm_v5,2020.2.10,Win32,60,61025ae37ef11b136ea224fe,,,,,,,,,3930,70,-39,1,0,0,response3disk,,5,12,14,1,0,0,rectangle,12,14,1,0,0,12,14,1,0,0,0,142,142,15,1,,,,,,,,
,,,,,,,,,,,,,FF,,,,,,,,0.932,,,,,,,,,,,,,,,,,,,,,,60ff4e46b9743e061aa26d64,61036b44bb1416c61fa9c1cc,2021-07-30_04h02.28.119,Simcolourproject_2stim_asymm_v5,2020.2.10,Win32,60,61025ae37ef11b136ea224fe,,,,,,,,,2833,-32,58,1,0,0,response7disk,,0,7,-1,1,0,0,rectangle,7,-1,1,0,0,7,-1,1,0,0,0,143,143,55,1,,,,,,,,
,,,,,,,,,,,,,FF,,,,,,,,0.95,,,,,,,,,,,,,,,,,,,,,,60ff4e46b9743e061aa26d64,61036b44bb1416c61fa9c1cc,2021-07-30_04h02.28.119,Simcolourproject_2stim_asymm_v5,2020.2.10,Win32,60,61025ae37ef11b136ea224fe,,,,,,,,,847,-31,-48,1,0,0,response5disk,,3,4,-2,1,0,0,rectangle,4,-2,1,0,0,4,-2,1,0,0,0,144,144,82,1,,,,,,,,
,,,,,,,,,,,,,FF,,,,,,,,1.734,,,,,,,,,,,,,,,,,,,,,,60ff4e46b9743e061aa26d64,61036b44bb1416c61fa9c1cc,2021-07-30_04h02.28.119,Simcolourproject_2stim_asymm_v5,2020.2.10,Win32,60,61025ae37ef11b136ea224fe,,,,,,,,,1414,40,-59,1,0,0,response3disk,,4,-5,-5,1,0,0,rectangle,-5,-5,1,0,0,-5,-5,1,0,0,0,145,145,11,1,,,,,,,,
,,,,,,,,,,,,,FF,,,,,,,,1.335,,,,,,,,,,,,,,,,,,,,,,60ff4e46b9743e061aa26d64,61036b44bb1416c61fa9c1cc,2021-07-30_04h02.28.119,Simcolourproject_2stim_asymm_v5,2020.2.10,Win32,60,61025ae37ef11b136ea224fe,,,,,,,,,3442,28,-54,1,0,0,response3disk,,4,0,-4,1,0,0,rectangle,0,-4,1,0,0,0,-4,1,0,0,0,146,146,0,1,,,,,,,,
,,,,,,,,,,,,,FF,,,,,,,,1.562,,,,,,,,,,,,,,,,,,,,,,60ff4e46b9743e061aa26d64,61036b44bb1416c61fa9c1cc,2021-07-30_04h02.28.119,Simcolourproject_2stim_asymm_v5,2020.2.10,Win32,60,61025ae37ef11b136ea224fe,,,,,,,,,832,64,-34,1,0,0,response3disk,,5,27,-8,1,0,0,rectangle,27,-8,1,0,0,27,-8,1,0,0,0,147,147,10,1,,,,,,,,
,,,,,,,,,,,,,FF,,,,,,,,1.319,,,,,,,,,,,,,,,,,,,,,,60ff4e46b9743e061aa26d64,61036b44bb1416c61fa9c1cc,2021-07-30_04h02.28.119,Simcolourproject_2stim_asymm_v5,2020.2.10,Win32,60,61025ae37ef11b136ea224fe,,,,,,,,,2679,-26,-49,1,0,0,response5disk,,3,7,1,1,0,0,rectangle,7,1,1,0,0,7,1,1,0,0,0,148,148,42,1,,,,,,,,
,,,,,,,,,,,,,FF,,,,,,,,0.836,,,,,,,,,,,,,,,,,,,,,,60ff4e46b9743e061aa26d64,61036b44bb1416c61fa9c1cc,2021-07-30_04h02.28.119,Simcolourproject_2stim_asymm_v5,2020.2.10,Win32,60,61025ae37ef11b136ea224fe,,,,,,,,,2498,33,63,1,0,0,response1disk,,7,7,6,1,0,0,rectangle,7,6,1,0,0,7,6,1,0,0,0,149,149,152,1,,,,,,,,
,,,,,,,,,,,,,FF,,,,,,,,0.55,,,,,,,,,,,,,,,,,,,,,,60ff4e46b9743e061aa26d64,61036b44bb1416c61fa9c1cc,2021-07-30_04h02.28.119,Simcolourproject_2stim_asymm_v5,2020.2.10,Win32,60,61025ae37ef11b136ea224fe,,,,,,,,,4100,19,58,1,0,0,response1disk,,7,26,-1,1,0,0,rectangle,26,-1,1,0,0,26,-1,1,0,0,0,150,150,118,1,,,,,,,,
,,,,,,,,,,,,,FF,,,,,,,,0.817,,,,,,,,,,,,,,,,,,,,,,60ff4e46b9743e061aa26d64,61036b44bb1416c61fa9c1cc,2021-07-30_04h02.28.119,Simcolourproject_2stim_asymm_v5,2020.2.10,Win32,60,61025ae37ef11b136ea224fe,,,,,,,,,3031,64,33,1,0,0,response1disk,,6,24,1,1,0,0,rectangle,74,31,1,0,0,23,-6,1,0,0,0,151,151,53,1,,response1disk_3,TRUE,6,6,"[60,152,102,131,3,137,117,309,116,255,14,129,75,239,87,264,107,208,271,94]",1.465,rectangle
,,,,,,,,,,,,,FF,,,,,,,,0.938,,,,,,,,,,,,,,,,,,,,,,60ff4e46b9743e061aa26d64,61036b44bb1416c61fa9c1cc,2021-07-30_04h02.28.119,Simcolourproject_2stim_asymm_v5,2020.2.10,Win32,60,61025ae37ef11b136ea224fe,,,,,,,,,499,64,36,1,0,0,response1disk,,6,19,2,1,0,0,rectangle,19,2,1,0,0,19,2,1,0,0,0,152,152,104,1,,,,,,,,
,,,,,,,,,,,,,FF,,,,,,,,1.166,,,,,,,,,,,,,,,,,,,,,,60ff4e46b9743e061aa26d64,61036b44bb1416c61fa9c1cc,2021-07-30_04h02.28.119,Simcolourproject_2stim_asymm_v5,2020.2.10,Win32,60,61025ae37ef11b136ea224fe,,,,,,,,,2664,-57,-37,1,0,0,response5disk,,2,-5,-2,1,0,0,rectangle,-5,-2,1,0,0,-5,-2,1,0,0,0,153,153,34,1,,,,,,,,
,,,,,,,,,,,,,FF,,,,,,,,1.962,,,,,,,,,,,,,,,,,,,,,,60ff4e46b9743e061aa26d64,61036b44bb1416c61fa9c1cc,2021-07-30_04h02.28.119,Simcolourproject_2stim_asymm_v5,2020.2.10,Win32,60,61025ae37ef11b136ea224fe,,,,,,,,,3545,-37,-21,1,0,0,response5disk,,2,5,-2,1,0,0,rectangle,5,-2,1,0,0,5,-2,1,0,0,0,154,154,129,1,,,,,,,,
,,,,,,,,,,,,,FF,,,,,,,,1.832,,,,,,,,,,,,,,,,,,,,,,60ff4e46b9743e061aa26d64,61036b44bb1416c61fa9c1cc,2021-07-30_04h02.28.119,Simcolourproject_2stim_asymm_v5,2020.2.10,Win32,60,61025ae37ef11b136ea224fe,,,,,,,,,3170,-37,-47,1,0,0,response5disk,,3,8,1,1,0,0,rectangle,8,1,1,0,0,8,1,1,0,0,0,155,155,19,1,,,,,,,,
,,,,,,,,,,,,,FF,,,,,,,,1.082,,,,,,,,,,,,,,,,,,,,,,60ff4e46b9743e061aa26d64,61036b44bb1416c61fa9c1cc,2021-07-30_04h02.28.119,Simcolourproject_2stim_asymm_v5,2020.2.10,Win32,60,61025ae37ef11b136ea224fe,,,,,,,,,705,66,-50,1,0,0,response3disk,,5,27,-8,1,0,0,rectangle,27,-8,1,0,0,27,-8,1,0,0,0,156,156,27,1,,,,,,,,
,,,,,,,,,,,,,FF,,,,,,,,0.835,,,,,,,,,,,,,,,,,,,,,,60ff4e46b9743e061aa26d64,61036b44bb1416c61fa9c1cc,2021-07-30_04h02.28.119,Simcolourproject_2stim_asymm_v5,2020.2.10,Win32,60,61025ae37ef11b136ea224fe,,,,,,,,,2975,51,77,1,0,0,response1disk,,7,22,10,1,0,0,rectangle,22,10,1,0,0,22,10,1,0,0,0,157,157,56,1,,,,,,,,
,,,,,,,,,,,,,FF,,,,,,,,1.117,,,,,,,,,,,,,,,,,,,,,,60ff4e46b9743e061aa26d64,61036b44bb1416c61fa9c1cc,2021-07-30_04h02.28.119,Simcolourproject_2stim_asymm_v5,2020.2.10,Win32,60,61025ae37ef11b136ea224fe,,,,,,,,,3570,61,-35,1,0,0,response3disk,,5,1,3,1,0,0,rectangle,1,3,1,0,0,1,3,1,0,0,0,158,158,58,1,,,,,,,,
,,,,,,,,,,,,,FF,,,,,,,,0.692,,,,,,,,,,,,,,,,,,,,,,60ff4e46b9743e061aa26d64,61036b44bb1416c61fa9c1cc,2021-07-30_04h02.28.119,Simcolourproject_2stim_asymm_v5,2020.2.10,Win32,60,61025ae37ef11b136ea224fe,,,,,,,,,3776,-31,59,1,0,0,response7disk,,0,-12,-6,1,0,0,rectangle,-12,-6,1,0,0,-12,-6,1,0,0,0,159,159,103,1,,,,,,,,
,,,,,,,,,,,,,FF,,,,,,,,1.302,,,,,,,,,,,,,,,,,,,,,,60ff4e46b9743e061aa26d64,61036b44bb1416c61fa9c1cc,2021-07-30_04h02.28.119,Simcolourproject_2stim_asymm_v5,2020.2.10,Win32,60,61025ae37ef11b136ea224fe,,,,,,,,,1019,-28,-23,1,0,0,response5disk,,2,1,-2,1,0,0,rectangle,1,-2,1,0,0,1,-2,1,0,0,1,0,160,88,1,,,,,,,,
,,,,,,,,,,,,,FF,,,,,,,,1.808,,,,,,,,,,,,,,,,,,,,,,60ff4e46b9743e061aa26d64,61036b44bb1416c61fa9c1cc,2021-07-30_04h02.28.119,Simcolourproject_2stim_asymm_v5,2020.2.10,Win32,60,61025ae37ef11b136ea224fe,,,,,,,,,1580,67,19,1,0,0,response1disk,,6,13,3,1,0,0,rectangle,13,3,1,0,0,13,3,1,0,0,1,1,161,24,1,,,,,,,,
,,,,,,,,,,,,,FF,,,,,,,,3.088,,,,,,,,,,,,,,,,,,,,,,60ff4e46b9743e061aa26d64,61036b44bb1416c61fa9c1cc,2021-07-30_04h02.28.119,Simcolourproject_2stim_asymm_v5,2020.2.10,Win32,60,61025ae37ef11b136ea224fe,,,,,,,,,1711,54,20,1,0,0,response1disk,,6,16,0,1,0,0,rectangle,16,0,1,0,0,16,0,1,0,0,1,2,162,141,1,,,,,,,,
,,,,,,,,,,,,,FF,,,,,,,,0.917,,,,,,,,,,,,,,,,,,,,,,60ff4e46b9743e061aa26d64,61036b44bb1416c61fa9c1cc,2021-07-30_04h02.28.119,Simcolourproject_2stim_asymm_v5,2020.2.10,Win32,60,61025ae37ef11b136ea224fe,,,,,,,,,3117,26,-48,1,0,0,response3disk,,4,10,-10,1,0,0,rectangle,10,-10,1,0,0,10,-10,1,0,0,1,3,163,114,1,,,,,,,,
,,,,,,,,,,,,,FF,,,,,,,,1.183,,,,,,,,,,,,,,,,,,,,,,60ff4e46b9743e061aa26d64,61036b44bb1416c61fa9c1cc,2021-07-30_04h02.28.119,Simcolourproject_2stim_asymm_v5,2020.2.10,Win32,60,61025ae37ef11b136ea224fe,,,,,,,,,3476,-70,-22,1,0,0,response5disk,,2,-18,6,1,0,0,rectangle,-18,6,1,0,0,-18,6,1,0,0,1,4,164,145,1,,,,,,,,
,,,,,,,,,,,,,FF,,,,,,,,1.099,,,,,,,,,,,,,,,,,,,,,,60ff4e46b9743e061aa26d64,61036b44bb1416c61fa9c1cc,2021-07-30_04h02.28.119,Simcolourproject_2stim_asymm_v5,2020.2.10,Win32,60,61025ae37ef11b136ea224fe,,,,,,,,,518,52,31,1,0,0,response1disk,,6,20,6,1,0,0,rectangle,20,6,1,0,0,20,6,1,0,0,1,5,165,15,1,,,,,,,,
,,,,,,,,,,,,,FF,,,,,,,,2.017,,,,,,,,,,,,,,,,,,,,,,60ff4e46b9743e061aa26d64,61036b44bb1416c61fa9c1cc,2021-07-30_04h02.28.119,Simcolourproject_2stim_asymm_v5,2020.2.10,Win32,60,61025ae37ef11b136ea224fe,,,,,,,,,2085,-70,23,1,0,0,response7disk,,1,-11,-3,1,0,0,rectangle,-11,-3,1,0,0,-11,-3,1,0,0,1,6,166,69,1,,,,,,,,
,,,,,,,,,,,,,FF,,,,,,,,1.118,,,,,,,,,,,,,,,,,,,,,,60ff4e46b9743e061aa26d64,61036b44bb1416c61fa9c1cc,2021-07-30_04h02.28.119,Simcolourproject_2stim_asymm_v5,2020.2.10,Win32,60,61025ae37ef11b136ea224fe,,,,,,,,,1241,-60,35,1,0,0,response7disk,,1,-8,-3,1,0,0,rectangle,-8,-3,1,0,0,-8,-3,1,0,0,1,7,167,97,1,,,,,,,,
,,,,,,,,,,,,,FF,,,,,,,,2.45,,,,,,,,,,,,,,,,,,,,,,60ff4e46b9743e061aa26d64,61036b44bb1416c61fa9c1cc,2021-07-30_04h02.28.119,Simcolourproject_2stim_asymm_v5,2020.2.10,Win32,60,61025ae37ef11b136ea224fe,,,,,,,,,1994,41,-47,1,0,0,response3disk,,4,-6,-2,1,0,0,rectangle,-6,-2,1,0,0,-6,-2,1,0,0,1,8,168,1,1,,,,,,,,
,,,,,,,,,,,,,FF,,,,,,,,1.099,,,,,,,,,,,,,,,,,,,,,,60ff4e46b9743e061aa26d64,61036b44bb1416c61fa9c1cc,2021-07-30_04h02.28.119,Simcolourproject_2stim_asymm_v5,2020.2.10,Win32,60,61025ae37ef11b136ea224fe,,,,,,,,,1926,52,-25,1,0,0,response3disk,,5,7,-10,1,0,0,rectangle,7,-10,1,0,0,7,-10,1,0,0,1,9,169,83,1,,,,,,,,
,,,,,,,,,,,,,FF,,,,,,,,0.85,,,,,,,,,,,,,,,,,,,,,,60ff4e46b9743e061aa26d64,61036b44bb1416c61fa9c1cc,2021-07-30_04h02.28.119,Simcolourproject_2stim_asymm_v5,2020.2.10,Win32,60,61025ae37ef11b136ea224fe,,,,,,,,,521,30,53,1,0,0,response1disk,,7,-5,3,1,0,0,rectangle,-5,3,1,0,0,-5,3,1,0,0,1,10,170,95,1,,,,,,,,
,,,,,,,,,,,,,FF,,,,,,,,1.464,,,,,,,,,,,,,,,,,,,,,,60ff4e46b9743e061aa26d64,61036b44bb1416c61fa9c1cc,2021-07-30_04h02.28.119,Simcolourproject_2stim_asymm_v5,2020.2.10,Win32,60,61025ae37ef11b136ea224fe,,,,,,,,,458,48,27,1,0,0,response1disk,,6,8,8,1,0,0,rectangle,8,8,1,0,0,8,8,1,0,0,1,11,171,40,1,,,,,,,,
,,,,,,,,,,,,,FF,,,,,,,,0.7,,,,,,,,,,,,,,,,,,,,,,60ff4e46b9743e061aa26d64,61036b44bb1416c61fa9c1cc,2021-07-30_04h02.28.119,Simcolourproject_2stim_asymm_v5,2020.2.10,Win32,60,61025ae37ef11b136ea224fe,,,,,,,,,4195,25,50,1,0,0,response1disk,,7,2,-4,1,0,0,rectangle,2,-4,1,0,0,2,-4,1,0,0,1,12,172,23,1,,,,,,,,
,,,,,,,,,,,,,FF,,,,,,,,1.25,,,,,,,,,,,,,,,,,,,,,,60ff4e46b9743e061aa26d64,61036b44bb1416c61fa9c1cc,2021-07-30_04h02.28.119,Simcolourproject_2stim_asymm_v5,2020.2.10,Win32,60,61025ae37ef11b136ea224fe,,,,,,,,,1152,55,-41,1,0,0,response3disk,,5,4,-8,1,0,0,rectangle,4,-8,1,0,0,4,-8,1,0,0,1,13,173,35,1,,,,,,,,
,,,,,,,,,,,,,FF,,,,,,,,0.732,,,,,,,,,,,,,,,,,,,,,,60ff4e46b9743e061aa26d64,61036b44bb1416c61fa9c1cc,2021-07-30_04h02.28.119,Simcolourproject_2stim_asymm_v5,2020.2.10,Win32,60,61025ae37ef11b136ea224fe,,,,,,,,,3382,-50,24,1,0,0,response7disk,,1,-13,5,1,0,0,rectangle,-13,5,1,0,0,-13,5,1,0,0,1,14,174,11,1,,,,,,,,
,,,,,,,,,,,,,FF,,,,,,,,1.368,,,,,,,,,,,,,,,,,,,,,,60ff4e46b9743e061aa26d64,61036b44bb1416c61fa9c1cc,2021-07-30_04h02.28.119,Simcolourproject_2stim_asymm_v5,2020.2.10,Win32,60,61025ae37ef11b136ea224fe,,,,,,,,,4098,-32,-77,1,0,0,response5disk,,3,15,-12,1,0,0,rectangle,15,-12,1,0,0,15,-12,1,0,0,1,15,175,123,1,,,,,,,,
,,,,,,,,,,,,,FF,,,,,,,,1.489,,,,,,,,,,,,,,,,,,,,,,60ff4e46b9743e061aa26d64,61036b44bb1416c61fa9c1cc,2021-07-30_04h02.28.119,Simcolourproject_2stim_asymm_v5,2020.2.10,Win32,60,61025ae37ef11b136ea224fe,,,,,,,,,1046,92,-41,1,0,0,response3disk,,5,-24,5,1,0,0,rectangle,-24,5,1,0,0,-24,5,1,0,0,1,16,176,82,1,,,,,,,,
,,,,,,,,,,,,,FF,,,,,,,,0.816,,,,,,,,,,,,,,,,,,,,,,60ff4e46b9743e061aa26d64,61036b44bb1416c61fa9c1cc,2021-07-30_04h02.28.119,Simcolourproject_2stim_asymm_v5,2020.2.10,Win32,60,61025ae37ef11b136ea224fe,,,,,,,,,3026,89,32,1,0,0,response1disk,,6,9,3,1,0,0,rectangle,9,3,1,0,0,9,3,1,0,0,1,17,177,74,1,,,,,,,,
,,,,,,,,,,,,,FF,,,,,,,,0.634,,,,,,,,,,,,,,,,,,,,,,60ff4e46b9743e061aa26d64,61036b44bb1416c61fa9c1cc,2021-07-30_04h02.28.119,Simcolourproject_2stim_asymm_v5,2020.2.10,Win32,60,61025ae37ef11b136ea224fe,,,,,,,,,3166,58,-35,1,0,0,response3disk,,5,-2,12,1,0,0,rectangle,-2,12,1,0,0,-2,12,1,0,0,1,18,178,139,1,,,,,,,,
,,,,,,,,,,,,,FF,,,,,,,,0.612,,,,,,,,,,,,,,,,,,,,,,60ff4e46b9743e061aa26d64,61036b44bb1416c61fa9c1cc,2021-07-30_04h02.28.119,Simcolourproject_2stim_asymm_v5,2020.2.10,Win32,60,61025ae37ef11b136ea224fe,,,,,,,,,132,44,69,1,0,0,response1disk,,7,20,-2,1,0,0,rectangle,20,-2,1,0,0,20,-2,1,0,0,1,19,179,36,1,,,,,,,,
,,,,,,,,,,,,,FF,,,,,,,,1.347,,,,,,,,,,,,,,,,,,,,,,60ff4e46b9743e061aa26d64,61036b44bb1416c61fa9c1cc,2021-07-30_04h02.28.119,Simcolourproject_2stim_asymm_v5,2020.2.10,Win32,60,61025ae37ef11b136ea224fe,,,,,,,,,2112,64,-62,1,0,0,response3disk,,5,5,-1,1,0,0,rectangle,5,-1,1,0,0,5,-1,1,0,0,1,20,180,48,1,,,,,,,,
,,,,,,,,,,,,,FF,,,,,,,,0.754,,,,,,,,,,,,,,,,,,,,,,60ff4e46b9743e061aa26d64,61036b44bb1416c61fa9c1cc,2021-07-30_04h02.28.119,Simcolourproject_2stim_asymm_v5,2020.2.10,Win32,60,61025ae37ef11b136ea224fe,,,,,,,,,136,42,74,1,0,0,response1disk,,7,7,-1,1,0,0,rectangle,7,-1,1,0,0,7,-1,1,0,0,1,21,181,30,1,,,,,,,,
,,,,,,,,,,,,,FF,,,,,,,,1.115,,,,,,,,,,,,,,,,,,,,,,60ff4e46b9743e061aa26d64,61036b44bb1416c61fa9c1cc,2021-07-30_04h02.28.119,Simcolourproject_2stim_asymm_v5,2020.2.10,Win32,60,61025ae37ef11b136ea224fe,,,,,,,,,233,54,-39,1,0,0,response3disk,,5,22,8,1,0,0,rectangle,22,8,1,0,0,22,8,1,0,0,1,22,182,70,1,,,,,,,,
,,,,,,,,,,,,,FF,,,,,,,,0.884,,,,,,,,,,,,,,,,,,,,,,60ff4e46b9743e061aa26d64,61036b44bb1416c61fa9c1cc,2021-07-30_04h02.28.119,Simcolourproject_2stim_asymm_v5,2020.2.10,Win32,60,61025ae37ef11b136ea224fe,,,,,,,,,3491,64,15,1,0,0,response1disk,,6,17,-2,1,0,0,rectangle,17,-2,1,0,0,17,-2,1,0,0,1,23,183,75,1,,,,,,,,
,,,,,,,,,,,,,FF,,,,,,,,0.843,,,,,,,,,,,,,,,,,,,,,,60ff4e46b9743e061aa26d64,61036b44bb1416c61fa9c1cc,2021-07-30_04h02.28.119,Simcolourproject_2stim_asymm_v5,2020.2.10,Win32,60,61025ae37ef11b136ea224fe,,,,,,,,,3485,64,38,1,0,0,response1disk,,6,10,-1,1,0,0,rectangle,10,-1,1,0,0,10,-1,1,0,0,1,24,184,66,1,,,,,,,,
,,,,,,,,,,,,,FF,,,,,,,,1.299,,,,,,,,,,,,,,,,,,,,,,60ff4e46b9743e061aa26d64,61036b44bb1416c61fa9c1cc,2021-07-30_04h02.28.119,Simcolourproject_2stim_asymm_v5,2020.2.10,Win32,60,61025ae37ef11b136ea224fe,,,,,,,,,3687,26,80,1,0,0,response1disk,,7,4,12,1,0,0,rectangle,4,12,1,0,0,4,12,1,0,0,1,25,185,129,1,,,,,,,,
,,,,,,,,,,,,,FF,,,,,,,,0.818,,,,,,,,,,,,,,,,,,,,,,60ff4e46b9743e061aa26d64,61036b44bb1416c61fa9c1cc,2021-07-30_04h02.28.119,Simcolourproject_2stim_asymm_v5,2020.2.10,Win32,60,61025ae37ef11b136ea224fe,,,,,,,,,3379,39,69,1,0,0,response1disk,,7,4,5,1,0,0,rectangle,4,5,1,0,0,4,5,1,0,0,1,26,186,106,1,,,,,,,,
,,,,,,,,,,,,,FF,,,,,,,,1.049,,,,,,,,,,,,,,,,,,,,,,60ff4e46b9743e061aa26d64,61036b44bb1416c61fa9c1cc,2021-07-30_04h02.28.119,Simcolourproject_2stim_asymm_v5,2020.2.10,Win32,60,61025ae37ef11b136ea224fe,,,,,,,,,2957,49,30,1,0,0,response1disk,,6,6,-6,1,0,0,rectangle,6,-6,1,0,0,6,-6,1,0,0,1,27,187,58,1,,,,,,,,
,,,,,,,,,,,,,FF,,,,,,,,1.396,,,,,,,,,,,,,,,,,,,,,,60ff4e46b9743e061aa26d64,61036b44bb1416c61fa9c1cc,2021-07-30_04h02.28.119,Simcolourproject_2stim_asymm_v5,2020.2.10,Win32,60,61025ae37ef11b136ea224fe,,,,,,,,,3283,-72,-23,1,0,0,response5disk,,2,-14,10,1,0,0,rectangle,-14,10,1,0,0,-14,10,1,0,0,1,28,188,59,1,,,,,,,,
,,,,,,,,,,,,,FF,,,,,,,,1.064,,,,,,,,,,,,,,,,,,,,,,60ff4e46b9743e061aa26d64,61036b44bb1416c61fa9c1cc,2021-07-30_04h02.28.119,Simcolourproject_2stim_asymm_v5,2020.2.10,Win32,60,61025ae37ef11b136ea224fe,,,,,,,,,3702,-34,-64,1,0,0,response5disk,,3,-3,-7,1,0,0,rectangle,-3,-7,1,0,0,-3,-7,1,0,0,1,29,189,51,1,,,,,,,,
,,,,,,,,,,,,,FF,,,,,,,,1.105,,,,,,,,,,,,,,,,,,,,,,60ff4e46b9743e061aa26d64,61036b44bb1416c61fa9c1cc,2021-07-30_04h02.28.119,Simcolourproject_2stim_asymm_v5,2020.2.10,Win32,60,61025ae37ef11b136ea224fe,,,,,,,,,3393,-52,35,1,0,0,response7disk,,1,-2,4,1,0,0,rectangle,-2,4,1,0,0,-2,4,1,0,0,1,30,190,78,1,,,,,,,,
,,,,,,,,,,,,,FF,,,,,,,,0.934,,,,,,,,,,,,,,,,,,,,,,60ff4e46b9743e061aa26d64,61036b44bb1416c61fa9c1cc,2021-07-30_04h02.28.119,Simcolourproject_2stim_asymm_v5,2020.2.10,Win32,60,61025ae37ef11b136ea224fe,,,,,,,,,2579,61,-43,1,0,0,response3disk,,5,11,4,1,0,0,rectangle,11,4,1,0,0,11,4,1,0,0,1,31,191,49,1,,,,,,,,
,,,,,,,,,,,,,FF,,,,,,,,0.832,,,,,,,,,,,,,,,,,,,,,,60ff4e46b9743e061aa26d64,61036b44bb1416c61fa9c1cc,2021-07-30_04h02.28.119,Simcolourproject_2stim_asymm_v5,2020.2.10,Win32,60,61025ae37ef11b136ea224fe,,,,,,,,,450,63,30,1,0,0,response1disk,,6,10,-7,1,0,0,rectangle,10,-7,1,0,0,10,-7,1,0,0,1,32,192,29,1,,,,,,,,
,,,,,,,,,,,,,FF,,,,,,,,1,,,,,,,,,,,,,,,,,,,,,,60ff4e46b9743e061aa26d64,61036b44bb1416c61fa9c1cc,2021-07-30_04h02.28.119,Simcolourproject_2stim_asymm_v5,2020.2.10,Win32,60,61025ae37ef11b136ea224fe,,,,,,,,,2786,31,-56,1,0,0,response3disk,,4,18,6,1,0,0,rectangle,18,6,1,0,0,18,6,1,0,0,1,33,193,84,1,,,,,,,,
,,,,,,,,,,,,,FF,,,,,,,,1.286,,,,,,,,,,,,,,,,,,,,,,60ff4e46b9743e061aa26d64,61036b44bb1416c61fa9c1cc,2021-07-30_04h02.28.119,Simcolourproject_2stim_asymm_v5,2020.2.10,Win32,60,61025ae37ef11b136ea224fe,,,,,,,,,192,-78,-27,1,0,0,response5disk,,2,-26,1,1,0,0,rectangle,-26,1,1,0,0,-26,1,1,0,0,1,34,194,34,1,,,,,,,,
,,,,,,,,,,,,,FF,,,,,,,,0.96,,,,,,,,,,,,,,,,,,,,,,60ff4e46b9743e061aa26d64,61036b44bb1416c61fa9c1cc,2021-07-30_04h02.28.119,Simcolourproject_2stim_asymm_v5,2020.2.10,Win32,60,61025ae37ef11b136ea224fe,,,,,,,,,1686,-22,-45,1,0,0,response5disk,,3,13,-9,1,0,0,rectangle,13,-9,1,0,0,13,-9,1,0,0,1,35,195,8,1,,,,,,,,
,,,,,,,,,,,,,FF,,,,,,,,0.889,,,,,,,,,,,,,,,,,,,,,,60ff4e46b9743e061aa26d64,61036b44bb1416c61fa9c1cc,2021-07-30_04h02.28.119,Simcolourproject_2stim_asymm_v5,2020.2.10,Win32,60,61025ae37ef11b136ea224fe,,,,,,,,,2234,-51,43,1,0,0,response7disk,,1,-2,5,1,0,0,rectangle,-2,5,1,0,0,-2,5,1,0,0,1,36,196,47,1,,,,,,,,
,,,,,,,,,,,,,FF,,,,,,,,2.421,,,,,,,,,,,,,,,,,,,,,,60ff4e46b9743e061aa26d64,61036b44bb1416c61fa9c1cc,2021-07-30_04h02.28.119,Simcolourproject_2stim_asymm_v5,2020.2.10,Win32,60,61025ae37ef11b136ea224fe,,,,,,,,,220,71,-40,1,0,0,response3disk,,5,11,-6,1,0,0,rectangle,11,-6,1,0,0,11,-6,1,0,0,1,37,197,104,1,,,,,,,,
,,,,,,,,,,,,,FF,,,,,,,,1.301,,,,,,,,,,,,,,,,,,,,,,60ff4e46b9743e061aa26d64,61036b44bb1416c61fa9c1cc,2021-07-30_04h02.28.119,Simcolourproject_2stim_asymm_v5,2020.2.10,Win32,60,61025ae37ef11b136ea224fe,,,,,,,,,3836,-44,-53,1,0,0,response5disk,,3,1,0,1,0,0,rectangle,1,0,1,0,0,1,0,1,0,0,1,38,198,120,1,,,,,,,,
,,,,,,,,,,,,,FF,,,,,,,,1.303,,,,,,,,,,,,,,,,,,,,,,60ff4e46b9743e061aa26d64,61036b44bb1416c61fa9c1cc,2021-07-30_04h02.28.119,Simcolourproject_2stim_asymm_v5,2020.2.10,Win32,60,61025ae37ef11b136ea224fe,,,,,,,,,3015,69,20,1,0,0,response1disk,,6,28,-10,1,0,0,rectangle,28,-10,1,0,0,28,-10,1,0,0,1,39,199,63,1,,,,,,,,
,,,,,,,,,,,,,FF,,,,,,,,0.69,,,,,,,,,,,,,,,,,,,,,,60ff4e46b9743e061aa26d64,61036b44bb1416c61fa9c1cc,2021-07-30_04h02.28.119,Simcolourproject_2stim_asymm_v5,2020.2.10,Win32,60,61025ae37ef11b136ea224fe,,,,,,,,,3842,29,66,1,0,0,response1disk,,7,13,5,1,0,0,rectangle,13,5,1,0,0,13,5,1,0,0,1,40,200,154,1,,,,,,,,
,,,,,,,,,,,,,FF,,,,,,,,1.151,,,,,,,,,,,,,,,,,,,,,,60ff4e46b9743e061aa26d64,61036b44bb1416c61fa9c1cc,2021-07-30_04h02.28.119,Simcolourproject_2stim_asymm_v5,2020.2.10,Win32,60,61025ae37ef11b136ea224fe,,,,,,,,,1469,-52,-76,1,0,0,response5disk,,3,0,0,1,0,0,rectangle,0,0,1,0,0,0,0,1,0,0,1,41,201,20,1,,,,,,,,
,,,,,,,,,,,,,FF,,,,,,,,1.362,,,,,,,,,,,,,,,,,,,,,,60ff4e46b9743e061aa26d64,61036b44bb1416c61fa9c1cc,2021-07-30_04h02.28.119,Simcolourproject_2stim_asymm_v5,2020.2.10,Win32,60,61025ae37ef11b136ea224fe,,,,,,,,,3229,18,-46,1,0,0,response3disk,,4,11,-3,1,0,0,rectangle,11,-3,1,0,0,11,-3,1,0,0,1,42,202,132,1,,,,,,,,
,,,,,,,,,,,,,FF,,,,,,,,0.901,,,,,,,,,,,,,,,,,,,,,,60ff4e46b9743e061aa26d64,61036b44bb1416c61fa9c1cc,2021-07-30_04h02.28.119,Simcolourproject_2stim_asymm_v5,2020.2.10,Win32,60,61025ae37ef11b136ea224fe,,,,,,,,,2239,-58,-29,1,0,0,response5disk,,2,-3,-1,1,0,0,rectangle,-3,-1,1,0,0,-3,-1,1,0,0,1,43,203,118,1,,,,,,,,
,,,,,,,,,,,,,FF,,,,,,,,1.092,,,,,,,,,,,,,,,,,,,,,,60ff4e46b9743e061aa26d64,61036b44bb1416c61fa9c1cc,2021-07-30_04h02.28.119,Simcolourproject_2stim_asymm_v5,2020.2.10,Win32,60,61025ae37ef11b136ea224fe,,,,,,,,,1829,-38,63,1,0,0,response7disk,,0,4,7,1,0,0,rectangle,4,7,1,0,0,4,7,1,0,0,1,44,204,151,1,,,,,,,,
,,,,,,,,,,,,,FF,,,,,,,,1.056,,,,,,,,,,,,,,,,,,,,,,60ff4e46b9743e061aa26d64,61036b44bb1416c61fa9c1cc,2021-07-30_04h02.28.119,Simcolourproject_2stim_asymm_v5,2020.2.10,Win32,60,61025ae37ef11b136ea224fe,,,,,,,,,3782,-23,-56,1,0,0,response5disk,,3,4,-10,1,0,0,rectangle,4,-10,1,0,0,4,-10,1,0,0,1,45,205,122,1,,,,,,,,
,,,,,,,,,,,,,FF,,,,,,,,0.882,,,,,,,,,,,,,,,,,,,,,,60ff4e46b9743e061aa26d64,61036b44bb1416c61fa9c1cc,2021-07-30_04h02.28.119,Simcolourproject_2stim_asymm_v5,2020.2.10,Win32,60,61025ae37ef11b136ea224fe,,,,,,,,,4140,-26,57,1,0,0,response7disk,,0,-16,-5,1,0,0,rectangle,-16,-5,1,0,0,-16,-5,1,0,0,1,46,206,55,1,,,,,,,,
,,,,,,,,,,,,,FF,,,,,,,,0.962,,,,,,,,,,,,,,,,,,,,,,60ff4e46b9743e061aa26d64,61036b44bb1416c61fa9c1cc,2021-07-30_04h02.28.119,Simcolourproject_2stim_asymm_v5,2020.2.10,Win32,60,61025ae37ef11b136ea224fe,,,,,,,,,2254,23,-46,1,0,0,response3disk,,4,13,4,1,0,0,rectangle,67,39,1,0,0,18,-1,1,0,0,1,47,207,2,1,,response1disk_3,TRUE,6,6,"[60,152,102,131,3,137,117,309,116,255,14,129,75,239,87,264,107,208,271,94]",1.306,rectangle
,,,,,,,,,,,,,FF,,,,,,,,2.593,,,,,,,,,,,,,,,,,,,,,,60ff4e46b9743e061aa26d64,61036b44bb1416c61fa9c1cc,2021-07-30_04h02.28.119,Simcolourproject_2stim_asymm_v5,2020.2.10,Win32,60,61025ae37ef11b136ea224fe,,,,,,,,,2795,25,-75,1,0,0,response3disk,,4,6,-13,1,0,0,rectangle,6,-13,1,0,0,6,-13,1,0,0,1,48,208,94,1,,,,,,,,
,,,,,,,,,,,,,FF,,,,,,,,0.95,,,,,,,,,,,,,,,,,,,,,,60ff4e46b9743e061aa26d64,61036b44bb1416c61fa9c1cc,2021-07-30_04h02.28.119,Simcolourproject_2stim_asymm_v5,2020.2.10,Win32,60,61025ae37ef11b136ea224fe,,,,,,,,,4258,31,83,1,0,0,response1disk,,7,-4,12,1,0,0,rectangle,-4,12,1,0,0,-4,12,1,0,0,1,49,209,117,1,,,,,,,,
,,,,,,,,,,,,,FF,,,,,,,,1.034,,,,,,,,,,,,,,,,,,,,,,60ff4e46b9743e061aa26d64,61036b44bb1416c61fa9c1cc,2021-07-30_04h02.28.119,Simcolourproject_2stim_asymm_v5,2020.2.10,Win32,60,61025ae37ef11b136ea224fe,,,,,,,,,23,54,-39,1,0,0,response3disk,,5,-10,-3,1,0,0,rectangle,-10,-3,1,0,0,-10,-3,1,0,0,1,50,210,64,1,,,,,,,,
,,,,,,,,,,,,,FF,,,,,,,,0.717,,,,,,,,,,,,,,,,,,,,,,60ff4e46b9743e061aa26d64,61036b44bb1416c61fa9c1cc,2021-07-30_04h02.28.119,Simcolourproject_2stim_asymm_v5,2020.2.10,Win32,60,61025ae37ef11b136ea224fe,,,,,,,,,3540,50,83,1,0,0,response1disk,,7,-16,8,1,0,0,rectangle,-16,8,1,0,0,-16,8,1,0,0,1,51,211,112,1,,,,,,,,
,,,,,,,,,,,,,FF,,,,,,,,1.142,,,,,,,,,,,,,,,,,,,,,,60ff4e46b9743e061aa26d64,61036b44bb1416c61fa9c1cc,2021-07-30_04h02.28.119,Simcolourproject_2stim_asymm_v5,2020.2.10,Win32,60,61025ae37ef11b136ea224fe,,,,,,,,,2518,56,-32,1,0,0,response3disk,,5,-22,10,1,0,0,rectangle,-22,10,1,0,0,-22,10,1,0,0,1,52,212,81,1,,,,,,,,
,,,,,,,,,,,,,FF,,,,,,,,1.118,,,,,,,,,,,,,,,,,,,,,,60ff4e46b9743e061aa26d64,61036b44bb1416c61fa9c1cc,2021-07-30_04h02.28.119,Simcolourproject_2stim_asymm_v5,2020.2.10,Win32,60,61025ae37ef11b136ea224fe,,,,,,,,,3409,-39,-70,1,0,0,response5disk,,3,10,5,1,0,0,rectangle,10,5,1,0,0,10,5,1,0,0,1,53,213,87,1,,,,,,,,
,,,,,,,,,,,,,FF,,,,,,,,0.658,,,,,,,,,,,,,,,,,,,,,,60ff4e46b9743e061aa26d64,61036b44bb1416c61fa9c1cc,2021-07-30_04h02.28.119,Simcolourproject_2stim_asymm_v5,2020.2.10,Win32,60,61025ae37ef11b136ea224fe,,,,,,,,,3551,-56,71,1,0,0,response7disk,,0,-8,3,1,0,0,rectangle,-8,3,1,0,0,-8,3,1,0,0,1,54,214,127,1,,,,,,,,
,,,,,,,,,,,,,FF,,,,,,,,0.883,,,,,,,,,,,,,,,,,,,,,,60ff4e46b9743e061aa26d64,61036b44bb1416c61fa9c1cc,2021-07-30_04h02.28.119,Simcolourproject_2stim_asymm_v5,2020.2.10,Win32,60,61025ae37ef11b136ea224fe,,,,,,,,,3014,-77,-34,1,0,0,response5disk,,2,2,4,1,0,0,rectangle,2,4,1,0,0,2,4,1,0,0,1,55,215,50,1,,,,,,,,
,,,,,,,,,,,,,FF,,,,,,,,1.934,,,,,,,,,,,,,,,,,,,,,,60ff4e46b9743e061aa26d64,61036b44bb1416c61fa9c1cc,2021-07-30_04h02.28.119,Simcolourproject_2stim_asymm_v5,2020.2.10,Win32,60,61025ae37ef11b136ea224fe,,,,,,,,,1361,-23,-73,1,0,0,response5disk,,3,1,8,1,0,0,rectangle,1,8,1,0,0,1,8,1,0,0,1,56,216,90,1,,,,,,,,
,,,,,,,,,,,,,FF,,,,,,,,2.116,,,,,,,,,,,,,,,,,,,,,,60ff4e46b9743e061aa26d64,61036b44bb1416c61fa9c1cc,2021-07-30_04h02.28.119,Simcolourproject_2stim_asymm_v5,2020.2.10,Win32,60,61025ae37ef11b136ea224fe,,,,,,,,,3193,51,37,1,0,0,response1disk,,6,11,-5,1,0,0,rectangle,11,-5,1,0,0,11,-5,1,0,0,1,57,217,91,1,,,,,,,,
,,,,,,,,,,,,,FF,,,,,,,,0.902,,,,,,,,,,,,,,,,,,,,,,60ff4e46b9743e061aa26d64,61036b44bb1416c61fa9c1cc,2021-07-30_04h02.28.119,Simcolourproject_2stim_asymm_v5,2020.2.10,Win32,60,61025ae37ef11b136ea224fe,,,,,,,,,236,-69,-40,1,0,0,response5disk,,2,-2,-1,1,0,0,rectangle,-2,-1,1,0,0,-2,-1,1,0,0,1,58,218,31,1,,,,,,,,
,,,,,,,,,,,,,FF,,,,,,,,1.016,,,,,,,,,,,,,,,,,,,,,,60ff4e46b9743e061aa26d64,61036b44bb1416c61fa9c1cc,2021-07-30_04h02.28.119,Simcolourproject_2stim_asymm_v5,2020.2.10,Win32,60,61025ae37ef11b136ea224fe,,,,,,,,,2634,-43,-52,1,0,0,response5disk,,3,-26,5,1,0,0,rectangle,-26,5,1,0,0,-26,5,1,0,0,1,59,219,22,1,,,,,,,,
,,,,,,,,,,,,,FF,,,,,,,,1.365,,,,,,,,,,,,,,,,,,,,,,60ff4e46b9743e061aa26d64,61036b44bb1416c61fa9c1cc,2021-07-30_04h02.28.119,Simcolourproject_2stim_asymm_v5,2020.2.10,Win32,60,61025ae37ef11b136ea224fe,,,,,,,,,3176,34,-57,1,0,0,response3disk,,4,3,-5,1,0,0,rectangle,3,-5,1,0,0,3,-5,1,0,0,1,60,220,39,1,,,,,,,,
,,,,,,,,,,,,,FF,,,,,,,,1.116,,,,,,,,,,,,,,,,,,,,,,60ff4e46b9743e061aa26d64,61036b44bb1416c61fa9c1cc,2021-07-30_04h02.28.119,Simcolourproject_2stim_asymm_v5,2020.2.10,Win32,60,61025ae37ef11b136ea224fe,,,,,,,,,2259,42,-30,1,0,0,response3disk,,5,19,7,1,0,0,rectangle,19,7,1,0,0,19,7,1,0,0,1,61,221,152,1,,,,,,,,
,,,,,,,,,,,,,FF,,,,,,,,0.861,,,,,,,,,,,,,,,,,,,,,,60ff4e46b9743e061aa26d64,61036b44bb1416c61fa9c1cc,2021-07-30_04h02.28.119,Simcolourproject_2stim_asymm_v5,2020.2.10,Win32,60,61025ae37ef11b136ea224fe,,,,,,,,,1375,-80,18,1,0,0,response7disk,,1,5,6,1,0,0,rectangle,5,6,1,0,0,5,6,1,0,0,1,62,222,26,1,,,,,,,,
,,,,,,,,,,,,,FF,,,,,,,,0.82,,,,,,,,,,,,,,,,,,,,,,60ff4e46b9743e061aa26d64,61036b44bb1416c61fa9c1cc,2021-07-30_04h02.28.119,Simcolourproject_2stim_asymm_v5,2020.2.10,Win32,60,61025ae37ef11b136ea224fe,,,,,,,,,1113,30,80,1,0,0,response1disk,,7,15,7,1,0,0,rectangle,15,7,1,0,0,15,7,1,0,0,1,63,223,37,1,,,,,,,,
,,,,,,,,,,,,,FF,,,,,,,,0.549,,,,,,,,,,,,,,,,,,,,,,60ff4e46b9743e061aa26d64,61036b44bb1416c61fa9c1cc,2021-07-30_04h02.28.119,Simcolourproject_2stim_asymm_v5,2020.2.10,Win32,60,61025ae37ef11b136ea224fe,,,,,,,,,1574,50,64,1,0,0,response1disk,,7,23,1,1,0,0,rectangle,23,1,1,0,0,23,1,1,0,0,1,64,224,110,1,,,,,,,,
,,,,,,,,,,,,,FF,,,,,,,,0.514,,,,,,,,,,,,,,,,,,,,,,60ff4e46b9743e061aa26d64,61036b44bb1416c61fa9c1cc,2021-07-30_04h02.28.119,Simcolourproject_2stim_asymm_v5,2020.2.10,Win32,60,61025ae37ef11b136ea224fe,,,,,,,,,3359,37,64,1,0,0,response1disk,,7,-5,-5,1,0,0,rectangle,-5,-5,1,0,0,-5,-5,1,0,0,1,65,225,53,1,,,,,,,,
,,,,,,,,,,,,,FF,,,,,,,,1.184,,,,,,,,,,,,,,,,,,,,,,60ff4e46b9743e061aa26d64,61036b44bb1416c61fa9c1cc,2021-07-30_04h02.28.119,Simcolourproject_2stim_asymm_v5,2020.2.10,Win32,60,61025ae37ef11b136ea224fe,,,,,,,,,3253,60,-85,1,0,0,response3disk,,4,3,7,1,0,0,rectangle,3,7,1,0,0,3,7,1,0,0,1,66,226,89,1,,,,,,,,
,,,,,,,,,,,,,FF,,,,,,,,0.667,,,,,,,,,,,,,,,,,,,,,,60ff4e46b9743e061aa26d64,61036b44bb1416c61fa9c1cc,2021-07-30_04h02.28.119,Simcolourproject_2stim_asymm_v5,2020.2.10,Win32,60,61025ae37ef11b136ea224fe,,,,,,,,,4056,107,20,1,0,0,response1disk,,6,23,-11,1,0,0,rectangle,23,-11,1,0,0,23,-11,1,0,0,1,67,227,128,1,,,,,,,,
,,,,,,,,,,,,,FF,,,,,,,,1.201,,,,,,,,,,,,,,,,,,,,,,60ff4e46b9743e061aa26d64,61036b44bb1416c61fa9c1cc,2021-07-30_04h02.28.119,Simcolourproject_2stim_asymm_v5,2020.2.10,Win32,60,61025ae37ef11b136ea224fe,,,,,,,,,1606,-50,-79,1,0,0,response5disk,,3,-24,11,1,0,0,rectangle,-24,11,1,0,0,-24,11,1,0,0,1,68,228,144,1,,,,,,,,
,,,,,,,,,,,,,FF,,,,,,,,1.651,,,,,,,,,,,,,,,,,,,,,,60ff4e46b9743e061aa26d64,61036b44bb1416c61fa9c1cc,2021-07-30_04h02.28.119,Simcolourproject_2stim_asymm_v5,2020.2.10,Win32,60,61025ae37ef11b136ea224fe,,,,,,,,,1713,49,71,1,0,0,response1disk,,7,28,4,1,0,0,rectangle,28,4,1,0,0,28,4,1,0,0,1,69,229,38,1,,,,,,,,
,,,,,,,,,,,,,FF,,,,,,,,1.273,,,,,,,,,,,,,,,,,,,,,,60ff4e46b9743e061aa26d64,61036b44bb1416c61fa9c1cc,2021-07-30_04h02.28.119,Simcolourproject_2stim_asymm_v5,2020.2.10,Win32,60,61025ae37ef11b136ea224fe,,,,,,,,,61,37,-55,1,0,0,response3disk,,4,17,4,1,0,0,rectangle,17,4,1,0,0,17,4,1,0,0,1,70,230,142,1,,,,,,,,
,,,,,,,,,,,,,FF,,,,,,,,4.134,,,,,,,,,,,,,,,,,,,,,,60ff4e46b9743e061aa26d64,61036b44bb1416c61fa9c1cc,2021-07-30_04h02.28.119,Simcolourproject_2stim_asymm_v5,2020.2.10,Win32,60,61025ae37ef11b136ea224fe,,,,,,,,,2405,76,33,1,0,0,response1disk,,6,15,-7,1,0,0,rectangle,15,-7,1,0,0,15,-7,1,0,0,1,71,231,156,1,,,,,,,,
,,,,,,,,,,,,,FF,,,,,,,,2.666,,,,,,,,,,,,,,,,,,,,,,60ff4e46b9743e061aa26d64,61036b44bb1416c61fa9c1cc,2021-07-30_04h02.28.119,Simcolourproject_2stim_asymm_v5,2020.2.10,Win32,60,61025ae37ef11b136ea224fe,,,,,,,,,2389,48,-68,1,0,0,response3disk,,4,-2,4,1,0,0,rectangle,-2,4,1,0,0,-2,4,1,0,0,1,72,232,9,1,,,,,,,,
,,,,,,,,,,,,,FF,,,,,,,,0.85,,,,,,,,,,,,,,,,,,,,,,60ff4e46b9743e061aa26d64,61036b44bb1416c61fa9c1cc,2021-07-30_04h02.28.119,Simcolourproject_2stim_asymm_v5,2020.2.10,Win32,60,61025ae37ef11b136ea224fe,,,,,,,,,1603,-49,80,1,0,0,response7disk,,0,-6,-3,1,0,0,rectangle,-6,-3,1,0,0,-6,-3,1,0,0,1,73,233,137,1,,,,,,,,
,,,,,,,,,,,,,FF,,,,,,,,2.249,,,,,,,,,,,,,,,,,,,,,,60ff4e46b9743e061aa26d64,61036b44bb1416c61fa9c1cc,2021-07-30_04h02.28.119,Simcolourproject_2stim_asymm_v5,2020.2.10,Win32,60,61025ae37ef11b136ea224fe,,,,,,,,,428,-46,-33,1,0,0,response5disk,,2,-10,-8,1,0,0,rectangle,-10,-8,1,0,0,-10,-8,1,0,0,1,74,234,28,1,,,,,,,,
,,,,,,,,,,,,,FF,,,,,,,,0.772,,,,,,,,,,,,,,,,,,,,,,60ff4e46b9743e061aa26d64,61036b44bb1416c61fa9c1cc,2021-07-30_04h02.28.119,Simcolourproject_2stim_asymm_v5,2020.2.10,Win32,60,61025ae37ef11b136ea224fe,,,,,,,,,3055,-59,38,1,0,0,response7disk,,1,5,-4,1,0,0,rectangle,5,-4,1,0,0,5,-4,1,0,0,1,75,235,65,1,,,,,,,,
,,,,,,,,,,,,,FF,,,,,,,,0.693,,,,,,,,,,,,,,,,,,,,,,60ff4e46b9743e061aa26d64,61036b44bb1416c61fa9c1cc,2021-07-30_04h02.28.119,Simcolourproject_2stim_asymm_v5,2020.2.10,Win32,60,61025ae37ef11b136ea224fe,,,,,,,,,1023,72,40,1,0,0,response1disk,,6,21,5,1,0,0,rectangle,21,5,1,0,0,21,5,1,0,0,1,76,236,76,1,,,,,,,,
,,,,,,,,,,,,,FF,,,,,,,,1.524,,,,,,,,,,,,,,,,,,,,,,60ff4e46b9743e061aa26d64,61036b44bb1416c61fa9c1cc,2021-07-30_04h02.28.119,Simcolourproject_2stim_asymm_v5,2020.2.10,Win32,60,61025ae37ef11b136ea224fe,,,,,,,,,712,24,-61,1,0,0,response3disk,,4,4,-13,1,0,0,rectangle,4,-13,1,0,0,4,-13,1,0,0,1,77,237,102,1,,,,,,,,
,,,,,,,,,,,,,FF,,,,,,,,0.817,,,,,,,,,,,,,,,,,,,,,,60ff4e46b9743e061aa26d64,61036b44bb1416c61fa9c1cc,2021-07-30_04h02.28.119,Simcolourproject_2stim_asymm_v5,2020.2.10,Win32,60,61025ae37ef11b136ea224fe,,,,,,,,,1400,34,-55,1,0,0,response3disk,,4,6,9,1,0,0,rectangle,-25,73,1,0,0,-4,-4,1,0,0,1,78,238,21,1,,response7disk_3,TRUE,0,0,"[60,152,102,131,3,137,117,309,116,255,14,129,75,239,87,264,107,208,271,94]",1.541,rectangle
,,,,,,,,,,,,,FF,,,,,,,,0.763,,,,,,,,,,,,,,,,,,,,,,60ff4e46b9743e061aa26d64,61036b44bb1416c61fa9c1cc,2021-07-30_04h02.28.119,Simcolourproject_2stim_asymm_v5,2020.2.10,Win32,60,61025ae37ef11b136ea224fe,,,,,,,,,1757,-30,58,1,0,0,response7disk,,0,-1,-10,1,0,0,rectangle,-1,-10,1,0,0,-1,-10,1,0,0,1,79,239,100,1,,,,,,,,
,,,,,,,,,,,,,FF,,,,,,,,0.877,,,,,,,,,,,,,,,,,,,,,,60ff4e46b9743e061aa26d64,61036b44bb1416c61fa9c1cc,2021-07-30_04h02.28.119,Simcolourproject_2stim_asymm_v5,2020.2.10,Win32,60,61025ae37ef11b136ea224fe,,,,,,,,,743,-58,-27,1,0,0,response5disk,,2,-3,-1,1,0,0,rectangle,-3,-1,1,0,0,-3,-1,1,0,0,1,80,240,60,1,,,,,,,,
,,,,,,,,,,,,,FF,,,,,,,,1.349,,,,,,,,,,,,,,,,,,,,,,60ff4e46b9743e061aa26d64,61036b44bb1416c61fa9c1cc,2021-07-30_04h02.28.119,Simcolourproject_2stim_asymm_v5,2020.2.10,Win32,60,61025ae37ef11b136ea224fe,,,,,,,,,881,29,-56,1,0,0,response3disk,,4,20,-7,1,0,0,rectangle,20,-7,1,0,0,20,-7,1,0,0,1,81,241,146,1,,,,,,,,
,,,,,,,,,,,,,FF,,,,,,,,0.78,,,,,,,,,,,,,,,,,,,,,,60ff4e46b9743e061aa26d64,61036b44bb1416c61fa9c1cc,2021-07-30_04h02.28.119,Simcolourproject_2stim_asymm_v5,2020.2.10,Win32,60,61025ae37ef11b136ea224fe,,,,,,,,,3175,56,64,1,0,0,response1disk,,7,15,-9,1,0,0,rectangle,15,-9,1,0,0,15,-9,1,0,0,1,82,242,77,1,,,,,,,,
,,,,,,,,,,,,,FF,,,,,,,,1.403,,,,,,,,,,,,,,,,,,,,,,60ff4e46b9743e061aa26d64,61036b44bb1416c61fa9c1cc,2021-07-30_04h02.28.119,Simcolourproject_2stim_asymm_v5,2020.2.10,Win32,60,61025ae37ef11b136ea224fe,,,,,,,,,1243,73,-28,1,0,0,response3disk,,5,17,4,1,0,0,rectangle,17,4,1,0,0,17,4,1,0,0,1,83,243,13,1,,,,,,,,
,,,,,,,,,,,,,FF,,,,,,,,1.308,,,,,,,,,,,,,,,,,,,,,,60ff4e46b9743e061aa26d64,61036b44bb1416c61fa9c1cc,2021-07-30_04h02.28.119,Simcolourproject_2stim_asymm_v5,2020.2.10,Win32,60,61025ae37ef11b136ea224fe,,,,,,,,,1175,44,28,1,0,0,response1disk,,6,-5,-9,1,0,0,rectangle,-5,-9,1,0,0,-5,-9,1,0,0,1,84,244,62,1,,,,,,,,
,,,,,,,,,,,,,FF,,,,,,,,1.101,,,,,,,,,,,,,,,,,,,,,,60ff4e46b9743e061aa26d64,61036b44bb1416c61fa9c1cc,2021-07-30_04h02.28.119,Simcolourproject_2stim_asymm_v5,2020.2.10,Win32,60,61025ae37ef11b136ea224fe,,,,,,,,,965,59,-28,1,0,0,response3disk,,5,11,-3,1,0,0,rectangle,11,-3,1,0,0,11,-3,1,0,0,1,85,245,138,1,,,,,,,,
,,,,,,,,,,,,,FF,,,,,,,,0.731,,,,,,,,,,,,,,,,,,,,,,60ff4e46b9743e061aa26d64,61036b44bb1416c61fa9c1cc,2021-07-30_04h02.28.119,Simcolourproject_2stim_asymm_v5,2020.2.10,Win32,60,61025ae37ef11b136ea224fe,,,,,,,,,3046,-43,15,1,0,0,response7disk,,1,-19,5,1,0,0,rectangle,-19,5,1,0,0,-19,5,1,0,0,1,86,246,107,1,,,,,,,,
,,,,,,,,,,,,,FF,,,,,,,,0.684,,,,,,,,,,,,,,,,,,,,,,60ff4e46b9743e061aa26d64,61036b44bb1416c61fa9c1cc,2021-07-30_04h02.28.119,Simcolourproject_2stim_asymm_v5,2020.2.10,Win32,60,61025ae37ef11b136ea224fe,,,,,,,,,2020,31,-54,1,0,0,response3disk,,4,8,3,1,0,0,rectangle,8,3,1,0,0,8,3,1,0,0,1,87,247,10,1,,,,,,,,
,,,,,,,,,,,,,FF,,,,,,,,0.784,,,,,,,,,,,,,,,,,,,,,,60ff4e46b9743e061aa26d64,61036b44bb1416c61fa9c1cc,2021-07-30_04h02.28.119,Simcolourproject_2stim_asymm_v5,2020.2.10,Win32,60,61025ae37ef11b136ea224fe,,,,,,,,,613,-30,56,1,0,0,response7disk,,0,-1,-4,1,0,0,rectangle,-1,-4,1,0,0,-1,-4,1,0,0,1,88,248,101,1,,,,,,,,
,,,,,,,,,,,,,FF,,,,,,,,1.7,,,,,,,,,,,,,,,,,,,,,,60ff4e46b9743e061aa26d64,61036b44bb1416c61fa9c1cc,2021-07-30_04h02.28.119,Simcolourproject_2stim_asymm_v5,2020.2.10,Win32,60,61025ae37ef11b136ea224fe,,,,,,,,,4196,49,-32,1,0,0,response3disk,,5,18,3,1,0,0,rectangle,18,3,1,0,0,18,3,1,0,0,1,89,249,44,1,,,,,,,,
,,,,,,,,,,,,,FF,,,,,,,,0.838,,,,,,,,,,,,,,,,,,,,,,60ff4e46b9743e061aa26d64,61036b44bb1416c61fa9c1cc,2021-07-30_04h02.28.119,Simcolourproject_2stim_asymm_v5,2020.2.10,Win32,60,61025ae37ef11b136ea224fe,,,,,,,,,1286,29,-65,1,0,0,response3disk,,4,-17,-6,1,0,0,rectangle,-17,-6,1,0,0,-17,-6,1,0,0,1,90,250,54,1,,,,,,,,
,,,,,,,,,,,,,FF,,,,,,,,1.066,,,,,,,,,,,,,,,,,,,,,,60ff4e46b9743e061aa26d64,61036b44bb1416c61fa9c1cc,2021-07-30_04h02.28.119,Simcolourproject_2stim_asymm_v5,2020.2.10,Win32,60,61025ae37ef11b136ea224fe,,,,,,,,,2862,86,-29,1,0,0,response3disk,,5,3,-2,1,0,0,rectangle,3,-2,1,0,0,3,-2,1,0,0,1,91,251,131,1,,,,,,,,
,,,,,,,,,,,,,FF,,,,,,,,0.65,,,,,,,,,,,,,,,,,,,,,,60ff4e46b9743e061aa26d64,61036b44bb1416c61fa9c1cc,2021-07-30_04h02.28.119,Simcolourproject_2stim_asymm_v5,2020.2.10,Win32,60,61025ae37ef11b136ea224fe,,,,,,,,,508,39,33,1,0,0,response1disk,,6,0,-7,1,0,0,rectangle,0,-7,1,0,0,0,-7,1,0,0,1,92,252,7,1,,,,,,,,
,,,,,,,,,,,,,FF,,,,,,,,1.017,,,,,,,,,,,,,,,,,,,,,,60ff4e46b9743e061aa26d64,61036b44bb1416c61fa9c1cc,2021-07-30_04h02.28.119,Simcolourproject_2stim_asymm_v5,2020.2.10,Win32,60,61025ae37ef11b136ea224fe,,,,,,,,,4318,-60,36,1,0,0,response7disk,,1,-22,7,1,0,0,rectangle,-22,7,1,0,0,-22,7,1,0,0,1,93,253,73,1,,,,,,,,
,,,,,,,,,,,,,FF,,,,,,,,0.983,,,,,,,,,,,,,,,,,,,,,,60ff4e46b9743e061aa26d64,61036b44bb1416c61fa9c1cc,2021-07-30_04h02.28.119,Simcolourproject_2stim_asymm_v5,2020.2.10,Win32,60,61025ae37ef11b136ea224fe,,,,,,,,,2750,-16,-36,1,0,0,response5disk,,3,4,2,1,0,0,rectangle,45,72,1,0,0,3,-7,1,0,0,1,94,254,148,1,,response1disk_3,TRUE,7,7,"[60,152,102,131,3,137,117,309,116,255,14,129,75,239,87,264,107,208,271,94]",1.017,rectangle
,,,,,,,,,,,,,FF,,,,,,,,3.332,,,,,,,,,,,,,,,,,,,,,,60ff4e46b9743e061aa26d64,61036b44bb1416c61fa9c1cc,2021-07-30_04h02.28.119,Simcolourproject_2stim_asymm_v5,2020.2.10,Win32,60,61025ae37ef11b136ea224fe,,,,,,,,,874,41,-45,1,0,0,response3disk,,4,20,2,1,0,0,rectangle,20,2,1,0,0,20,2,1,0,0,1,95,255,4,1,,,,,,,,
,,,,,,,,,,,,,FF,,,,,,,,1.427,,,,,,,,,,,,,,,,,,,,,,60ff4e46b9743e061aa26d64,61036b44bb1416c61fa9c1cc,2021-07-30_04h02.28.119,Simcolourproject_2stim_asymm_v5,2020.2.10,Win32,60,61025ae37ef11b136ea224fe,,,,,,,,,3895,57,-36,1,0,0,response3disk,,5,1,-7,1,0,0,rectangle,1,-7,1,0,0,1,-7,1,0,0,1,96,256,147,1,,,,,,,,
,,,,,,,,,,,,,FF,,,,,,,,1.448,,,,,,,,,,,,,,,,,,,,,,60ff4e46b9743e061aa26d64,61036b44bb1416c61fa9c1cc,2021-07-30_04h02.28.119,Simcolourproject_2stim_asymm_v5,2020.2.10,Win32,60,61025ae37ef11b136ea224fe,,,,,,,,,1769,-62,-36,1,0,0,response5disk,,2,2,-2,1,0,0,rectangle,2,-2,1,0,0,2,-2,1,0,0,1,97,257,135,1,,,,,,,,
,,,,,,,,,,,,,FF,,,,,,,,1.153,,,,,,,,,,,,,,,,,,,,,,60ff4e46b9743e061aa26d64,61036b44bb1416c61fa9c1cc,2021-07-30_04h02.28.119,Simcolourproject_2stim_asymm_v5,2020.2.10,Win32,60,61025ae37ef11b136ea224fe,,,,,,,,,3024,88,32,1,0,0,response1disk,,6,-9,-11,1,0,0,rectangle,-9,-11,1,0,0,-9,-11,1,0,0,1,98,258,96,1,,,,,,,,
,,,,,,,,,,,,,FF,,,,,,,,0.947,,,,,,,,,,,,,,,,,,,,,,60ff4e46b9743e061aa26d64,61036b44bb1416c61fa9c1cc,2021-07-30_04h02.28.119,Simcolourproject_2stim_asymm_v5,2020.2.10,Win32,60,61025ae37ef11b136ea224fe,,,,,,,,,3174,50,-26,1,0,0,response3disk,,5,7,-11,1,0,0,rectangle,7,-11,1,0,0,7,-11,1,0,0,1,99,259,56,1,,,,,,,,
,,,,,,,,,,,,,FF,,,,,,,,0.879,,,,,,,,,,,,,,,,,,,,,,60ff4e46b9743e061aa26d64,61036b44bb1416c61fa9c1cc,2021-07-30_04h02.28.119,Simcolourproject_2stim_asymm_v5,2020.2.10,Win32,60,61025ae37ef11b136ea224fe,,,,,,,,,2462,52,26,1,0,0,response1disk,,6,22,13,1,0,0,rectangle,22,13,1,0,0,22,13,1,0,0,1,100,260,143,1,,,,,,,,
,,,,,,,,,,,,,FF,,,,,,,,0.649,,,,,,,,,,,,,,,,,,,,,,60ff4e46b9743e061aa26d64,61036b44bb1416c61fa9c1cc,2021-07-30_04h02.28.119,Simcolourproject_2stim_asymm_v5,2020.2.10,Win32,60,61025ae37ef11b136ea224fe,,,,,,,,,2922,27,39,1,0,0,response1disk,,7,12,-11,1,0,0,rectangle,12,-11,1,0,0,12,-11,1,0,0,1,101,261,3,1,,,,,,,,
,,,,,,,,,,,,,FF,,,,,,,,0.685,,,,,,,,,,,,,,,,,,,,,,60ff4e46b9743e061aa26d64,61036b44bb1416c61fa9c1cc,2021-07-30_04h02.28.119,Simcolourproject_2stim_asymm_v5,2020.2.10,Win32,60,61025ae37ef11b136ea224fe,,,,,,,,,322,33,56,1,0,0,response1disk,,7,4,5,1,0,0,rectangle,4,5,1,0,0,4,5,1,0,0,1,102,262,68,1,,,,,,,,
,,,,,,,,,,,,,FF,,,,,,,,0.599,,,,,,,,,,,,,,,,,,,,,,60ff4e46b9743e061aa26d64,61036b44bb1416c61fa9c1cc,2021-07-30_04h02.28.119,Simcolourproject_2stim_asymm_v5,2020.2.10,Win32,60,61025ae37ef11b136ea224fe,,,,,,,,,3131,28,63,1,0,0,response1disk,,7,6,-1,1,0,0,rectangle,-46,-54,1,0,0,1,11,1,0,0,1,103,263,18,1,,response5disk_3,TRUE,3,3,"[60,152,102,131,3,137,117,309,116,255,14,129,75,239,87,264,107,208,271,94]",1.938,rectangle
,,,,,,,,,,,,,FF,,,,,,,,1.066,,,,,,,,,,,,,,,,,,,,,,60ff4e46b9743e061aa26d64,61036b44bb1416c61fa9c1cc,2021-07-30_04h02.28.119,Simcolourproject_2stim_asymm_v5,2020.2.10,Win32,60,61025ae37ef11b136ea224fe,,,,,,,,,3577,17,-56,1,0,0,response3disk,,4,-13,-5,1,0,0,rectangle,-13,-5,1,0,0,-13,-5,1,0,0,1,104,264,155,1,,,,,,,,
,,,,,,,,,,,,,FF,,,,,,,,1.916,,,,,,,,,,,,,,,,,,,,,,60ff4e46b9743e061aa26d64,61036b44bb1416c61fa9c1cc,2021-07-30_04h02.28.119,Simcolourproject_2stim_asymm_v5,2020.2.10,Win32,60,61025ae37ef11b136ea224fe,,,,,,,,,2511,84,49,1,0,0,response1disk,,6,25,-1,1,0,0,rectangle,25,-1,1,0,0,25,-1,1,0,0,1,105,265,105,1,,,,,,,,
,,,,,,,,,,,,,FF,,,,,,,,1.268,,,,,,,,,,,,,,,,,,,,,,60ff4e46b9743e061aa26d64,61036b44bb1416c61fa9c1cc,2021-07-30_04h02.28.119,Simcolourproject_2stim_asymm_v5,2020.2.10,Win32,60,61025ae37ef11b136ea224fe,,,,,,,,,2982,38,70,1,0,0,response1disk,,7,15,0,1,0,0,rectangle,15,0,1,0,0,15,0,1,0,0,1,106,266,25,1,,,,,,,,
,,,,,,,,,,,,,FF,,,,,,,,1.4,,,,,,,,,,,,,,,,,,,,,,60ff4e46b9743e061aa26d64,61036b44bb1416c61fa9c1cc,2021-07-30_04h02.28.119,Simcolourproject_2stim_asymm_v5,2020.2.10,Win32,60,61025ae37ef11b136ea224fe,,,,,,,,,407,69,-40,1,0,0,response3disk,,5,9,-11,1,0,0,rectangle,9,-11,1,0,0,9,-11,1,0,0,1,107,267,111,1,,,,,,,,
,,,,,,,,,,,,,FF,,,,,,,,1.017,,,,,,,,,,,,,,,,,,,,,,60ff4e46b9743e061aa26d64,61036b44bb1416c61fa9c1cc,2021-07-30_04h02.28.119,Simcolourproject_2stim_asymm_v5,2020.2.10,Win32,60,61025ae37ef11b136ea224fe,,,,,,,,,4264,-65,-38,1,0,0,response5disk,,2,9,2,1,0,0,rectangle,9,2,1,0,0,9,2,1,0,0,1,108,268,92,1,,,,,,,,
,,,,,,,,,,,,,FF,,,,,,,,0.917,,,,,,,,,,,,,,,,,,,,,,60ff4e46b9743e061aa26d64,61036b44bb1416c61fa9c1cc,2021-07-30_04h02.28.119,Simcolourproject_2stim_asymm_v5,2020.2.10,Win32,60,61025ae37ef11b136ea224fe,,,,,,,,,2902,-66,25,1,0,0,response7disk,,1,-21,11,1,0,0,rectangle,-21,11,1,0,0,-21,11,1,0,0,1,109,269,80,1,,,,,,,,
,,,,,,,,,,,,,FF,,,,,,,,1.53,,,,,,,,,,,,,,,,,,,,,,60ff4e46b9743e061aa26d64,61036b44bb1416c61fa9c1cc,2021-07-30_04h02.28.119,Simcolourproject_2stim_asymm_v5,2020.2.10,Win32,60,61025ae37ef11b136ea224fe,,,,,,,,,234,35,-44,1,0,0,response3disk,,4,14,-8,1,0,0,rectangle,34,67,1,0,0,1,-14,1,0,0,1,110,270,52,1,,response1disk_3,TRUE,7,7,"[60,152,102,131,3,137,117,309,116,255,14,129,75,239,87,264,107,208,271,94]",1.165,rectangle
,,,,,,,,,,,,,FF,,,,,,,,2.816,,,,,,,,,,,,,,,,,,,,,,60ff4e46b9743e061aa26d64,61036b44bb1416c61fa9c1cc,2021-07-30_04h02.28.119,Simcolourproject_2stim_asymm_v5,2020.2.10,Win32,60,61025ae37ef11b136ea224fe,,,,,,,,,813,85,-56,1,0,0,response3disk,,5,22,7,1,0,0,rectangle,22,7,1,0,0,22,7,1,0,0,1,111,271,108,1,,,,,,,,
,,,,,,,,,,,,,FF,,,,,,,,3.716,,,,,,,,,,,,,,,,,,,,,,60ff4e46b9743e061aa26d64,61036b44bb1416c61fa9c1cc,2021-07-30_04h02.28.119,Simcolourproject_2stim_asymm_v5,2020.2.10,Win32,60,61025ae37ef11b136ea224fe,,,,,,,,,2872,-38,-71,1,0,0,response5disk,,3,24,8,1,0,0,rectangle,24,8,1,0,0,24,8,1,0,0,1,112,272,46,1,,,,,,,,
,,,,,,,,,,,,,FF,,,,,,,,1.419,,,,,,,,,,,,,,,,,,,,,,60ff4e46b9743e061aa26d64,61036b44bb1416c61fa9c1cc,2021-07-30_04h02.28.119,Simcolourproject_2stim_asymm_v5,2020.2.10,Win32,60,61025ae37ef11b136ea224fe,,,,,,,,,1841,49,38,1,0,0,response1disk,,6,15,6,1,0,0,rectangle,15,6,1,0,0,15,6,1,0,0,1,113,273,149,1,,,,,,,,
,,,,,,,,,,,,,FF,,,,,,,,1.367,,,,,,,,,,,,,,,,,,,,,,60ff4e46b9743e061aa26d64,61036b44bb1416c61fa9c1cc,2021-07-30_04h02.28.119,Simcolourproject_2stim_asymm_v5,2020.2.10,Win32,60,61025ae37ef11b136ea224fe,,,,,,,,,2913,35,-89,1,0,0,response3disk,,4,8,-7,1,0,0,rectangle,8,-7,1,0,0,8,-7,1,0,0,1,114,274,126,1,,,,,,,,
,,,,,,,,,,,,,FF,,,,,,,,1.812,,,,,,,,,,,,,,,,,,,,,,60ff4e46b9743e061aa26d64,61036b44bb1416c61fa9c1cc,2021-07-30_04h02.28.119,Simcolourproject_2stim_asymm_v5,2020.2.10,Win32,60,61025ae37ef11b136ea224fe,,,,,,,,,1988,-70,-91,1,0,0,response5disk,,3,20,3,1,0,0,rectangle,20,3,1,0,0,20,3,1,0,0,1,115,275,124,1,,,,,,,,
,,,,,,,,,,,,,FF,,,,,,,,1.35,,,,,,,,,,,,,,,,,,,,,,60ff4e46b9743e061aa26d64,61036b44bb1416c61fa9c1cc,2021-07-30_04h02.28.119,Simcolourproject_2stim_asymm_v5,2020.2.10,Win32,60,61025ae37ef11b136ea224fe,,,,,,,,,817,-77,-31,1,0,0,response5disk,,2,8,13,1,0,0,rectangle,8,13,1,0,0,8,13,1,0,0,1,116,276,42,1,,,,,,,,
,,,,,,,,,,,,,FF,,,,,,,,1.267,,,,,,,,,,,,,,,,,,,,,,60ff4e46b9743e061aa26d64,61036b44bb1416c61fa9c1cc,2021-07-30_04h02.28.119,Simcolourproject_2stim_asymm_v5,2020.2.10,Win32,60,61025ae37ef11b136ea224fe,,,,,,,,,602,59,24,1,0,0,response1disk,,6,15,4,1,0,0,rectangle,15,4,1,0,0,15,4,1,0,0,1,117,277,136,1,,,,,,,,
,,,,,,,,,,,,,FF,,,,,,,,1.366,,,,,,,,,,,,,,,,,,,,,,60ff4e46b9743e061aa26d64,61036b44bb1416c61fa9c1cc,2021-07-30_04h02.28.119,Simcolourproject_2stim_asymm_v5,2020.2.10,Win32,60,61025ae37ef11b136ea224fe,,,,,,,,,1347,-97,-25,1,0,0,response5disk,,2,-29,1,1,0,0,rectangle,-29,1,1,0,0,-29,1,1,0,0,1,118,278,61,1,,,,,,,,
,,,,,,,,,,,,,FF,,,,,,,,1.115,,,,,,,,,,,,,,,,,,,,,,60ff4e46b9743e061aa26d64,61036b44bb1416c61fa9c1cc,2021-07-30_04h02.28.119,Simcolourproject_2stim_asymm_v5,2020.2.10,Win32,60,61025ae37ef11b136ea224fe,,,,,,,,,3508,-62,32,1,0,0,response7disk,,1,-2,0,1,0,0,rectangle,-2,0,1,0,0,-2,0,1,0,0,1,119,279,130,1,,,,,,,,
,,,,,,,,,,,,,FF,,,,,,,,0.95,,,,,,,,,,,,,,,,,,,,,,60ff4e46b9743e061aa26d64,61036b44bb1416c61fa9c1cc,2021-07-30_04h02.28.119,Simcolourproject_2stim_asymm_v5,2020.2.10,Win32,60,61025ae37ef11b136ea224fe,,,,,,,,,3588,-34,-72,1,0,0,response5disk,,3,-21,-7,1,0,0,rectangle,-21,-7,1,0,0,-21,-7,1,0,0,1,120,280,99,1,,,,,,,,
,,,,,,,,,,,,,FF,,,,,,,,1.229,,,,,,,,,,,,,,,,,,,,,,60ff4e46b9743e061aa26d64,61036b44bb1416c61fa9c1cc,2021-07-30_04h02.28.119,Simcolourproject_2stim_asymm_v5,2020.2.10,Win32,60,61025ae37ef11b136ea224fe,,,,,,,,,296,-58,-46,1,0,0,response5disk,,2,-13,-4,1,0,0,rectangle,-13,-4,1,0,0,-13,-4,1,0,0,1,121,281,133,1,,,,,,,,
,,,,,,,,,,,,,FF,,,,,,,,0.933,,,,,,,,,,,,,,,,,,,,,,60ff4e46b9743e061aa26d64,61036b44bb1416c61fa9c1cc,2021-07-30_04h02.28.119,Simcolourproject_2stim_asymm_v5,2020.2.10,Win32,60,61025ae37ef11b136ea224fe,,,,,,,,,3315,28,-61,1,0,0,response3disk,,4,1,-8,1,0,0,rectangle,1,-8,1,0,0,1,-8,1,0,0,1,122,282,134,1,,,,,,,,
,,,,,,,,,,,,,FF,,,,,,,,0.839,,,,,,,,,,,,,,,,,,,,,,60ff4e46b9743e061aa26d64,61036b44bb1416c61fa9c1cc,2021-07-30_04h02.28.119,Simcolourproject_2stim_asymm_v5,2020.2.10,Win32,60,61025ae37ef11b136ea224fe,,,,,,,,,3383,-50,44,1,0,0,response7disk,,1,-13,3,1,0,0,rectangle,-13,3,1,0,0,-13,3,1,0,0,1,123,283,32,1,,,,,,,,
,,,,,,,,,,,,,FF,,,,,,,,1.373,,,,,,,,,,,,,,,,,,,,,,60ff4e46b9743e061aa26d64,61036b44bb1416c61fa9c1cc,2021-07-30_04h02.28.119,Simcolourproject_2stim_asymm_v5,2020.2.10,Win32,60,61025ae37ef11b136ea224fe,,,,,,,,,2533,-66,25,1,0,0,response7disk,,1,-2,11,1,0,0,rectangle,-2,11,1,0,0,-2,11,1,0,0,1,124,284,153,1,,,,,,,,
,,,,,,,,,,,,,FF,,,,,,,,1.227,,,,,,,,,,,,,,,,,,,,,,60ff4e46b9743e061aa26d64,61036b44bb1416c61fa9c1cc,2021-07-30_04h02.28.119,Simcolourproject_2stim_asymm_v5,2020.2.10,Win32,60,61025ae37ef11b136ea224fe,,,,,,,,,491,88,37,1,0,0,response1disk,,6,-12,1,1,0,0,rectangle,-12,1,1,0,0,-12,1,1,0,0,1,125,285,57,1,,,,,,,,
,,,,,,,,,,,,,FF,,,,,,,,1.45,,,,,,,,,,,,,,,,,,,,,,60ff4e46b9743e061aa26d64,61036b44bb1416c61fa9c1cc,2021-07-30_04h02.28.119,Simcolourproject_2stim_asymm_v5,2020.2.10,Win32,60,61025ae37ef11b136ea224fe,,,,,,,,,542,18,58,1,0,0,response1disk,,7,-32,-8,1,0,0,rectangle,-32,-8,1,0,0,-32,-8,1,0,0,1,126,286,119,1,,,,,,,,
,,,,,,,,,,,,,FF,,,,,,,,0.518,,,,,,,,,,,,,,,,,,,,,,60ff4e46b9743e061aa26d64,61036b44bb1416c61fa9c1cc,2021-07-30_04h02.28.119,Simcolourproject_2stim_asymm_v5,2020.2.10,Win32,60,61025ae37ef11b136ea224fe,,,,,,,,,3542,19,61,1,0,0,response1disk,,7,-1,-9,1,0,0,rectangle,-1,-9,1,0,0,-1,-9,1,0,0,1,127,287,103,1,,,,,,,,
,,,,,,,,,,,,,FF,,,,,,,,1.167,,,,,,,,,,,,,,,,,,,,,,60ff4e46b9743e061aa26d64,61036b44bb1416c61fa9c1cc,2021-07-30_04h02.28.119,Simcolourproject_2stim_asymm_v5,2020.2.10,Win32,60,61025ae37ef11b136ea224fe,,,,,,,,,1422,-38,-72,1,0,0,response5disk,,3,5,-6,1,0,0,rectangle,5,-6,1,0,0,5,-6,1,0,0,1,128,288,86,1,,,,,,,,
,,,,,,,,,,,,,FF,,,,,,,,1.25,,,,,,,,,,,,,,,,,,,,,,60ff4e46b9743e061aa26d64,61036b44bb1416c61fa9c1cc,2021-07-30_04h02.28.119,Simcolourproject_2stim_asymm_v5,2020.2.10,Win32,60,61025ae37ef11b136ea224fe,,,,,,,,,929,-63,-38,1,0,0,response5disk,,2,21,-2,1,0,0,rectangle,21,-2,1,0,0,21,-2,1,0,0,1,129,289,45,1,,,,,,,,
,,,,,,,,,,,,,FF,,,,,,,,1.06,,,,,,,,,,,,,,,,,,,,,,60ff4e46b9743e061aa26d64,61036b44bb1416c61fa9c1cc,2021-07-30_04h02.28.119,Simcolourproject_2stim_asymm_v5,2020.2.10,Win32,60,61025ae37ef11b136ea224fe,,,,,,,,,3009,70,-32,1,0,0,response3disk,,5,10,-1,1,0,0,rectangle,10,-1,1,0,0,10,-1,1,0,0,1,130,290,140,1,,,,,,,,
,,,,,,,,,,,,,FF,,,,,,,,1.099,,,,,,,,,,,,,,,,,,,,,,60ff4e46b9743e061aa26d64,61036b44bb1416c61fa9c1cc,2021-07-30_04h02.28.119,Simcolourproject_2stim_asymm_v5,2020.2.10,Win32,60,61025ae37ef11b136ea224fe,,,,,,,,,1983,-20,-63,1,0,0,response5disk,,3,0,-2,1,0,0,rectangle,0,-2,1,0,0,0,-2,1,0,0,1,131,291,85,1,,,,,,,,
,,,,,,,,,,,,,FF,,,,,,,,0.717,,,,,,,,,,,,,,,,,,,,,,60ff4e46b9743e061aa26d64,61036b44bb1416c61fa9c1cc,2021-07-30_04h02.28.119,Simcolourproject_2stim_asymm_v5,2020.2.10,Win32,60,61025ae37ef11b136ea224fe,,,,,,,,,1972,-37,55,1,0,0,response7disk,,0,-19,-3,1,0,0,rectangle,-19,-3,1,0,0,-19,-3,1,0,0,1,132,292,19,1,,,,,,,,
,,,,,,,,,,,,,FF,,,,,,,,0.949,,,,,,,,,,,,,,,,,,,,,,60ff4e46b9743e061aa26d64,61036b44bb1416c61fa9c1cc,2021-07-30_04h02.28.119,Simcolourproject_2stim_asymm_v5,2020.2.10,Win32,60,61025ae37ef11b136ea224fe,,,,,,,,,2591,47,63,1,0,0,response1disk,,7,10,9,1,0,0,rectangle,10,9,1,0,0,10,9,1,0,0,1,133,293,157,1,,,,,,,,
,,,,,,,,,,,,,FF,,,,,,,,0.985,,,,,,,,,,,,,,,,,,,,,,60ff4e46b9743e061aa26d64,61036b44bb1416c61fa9c1cc,2021-07-30_04h02.28.119,Simcolourproject_2stim_asymm_v5,2020.2.10,Win32,60,61025ae37ef11b136ea224fe,,,,,,,,,1572,53,31,1,0,0,response1disk,,6,16,1,1,0,0,rectangle,16,1,1,0,0,16,1,1,0,0,1,134,294,33,1,,,,,,,,
,,,,,,,,,,,,,FF,,,,,,,,0.999,,,,,,,,,,,,,,,,,,,,,,60ff4e46b9743e061aa26d64,61036b44bb1416c61fa9c1cc,2021-07-30_04h02.28.119,Simcolourproject_2stim_asymm_v5,2020.2.10,Win32,60,61025ae37ef11b136ea224fe,,,,,,,,,4086,32,52,1,0,0,response1disk,,7,12,4,1,0,0,rectangle,12,4,1,0,0,12,4,1,0,0,1,135,295,6,1,,,,,,,,
,,,,,,,,,,,,,FF,,,,,,,,1.334,,,,,,,,,,,,,,,,,,,,,,60ff4e46b9743e061aa26d64,61036b44bb1416c61fa9c1cc,2021-07-30_04h02.28.119,Simcolourproject_2stim_asymm_v5,2020.2.10,Win32,60,61025ae37ef11b136ea224fe,,,,,,,,,3762,-40,-56,1,0,0,response5disk,,3,6,5,1,0,0,rectangle,6,5,1,0,0,6,5,1,0,0,1,136,296,5,1,,,,,,,,
,,,,,,,,,,,,,FF,,,,,,,,0.883,,,,,,,,,,,,,,,,,,,,,,60ff4e46b9743e061aa26d64,61036b44bb1416c61fa9c1cc,2021-07-30_04h02.28.119,Simcolourproject_2stim_asymm_v5,2020.2.10,Win32,60,61025ae37ef11b136ea224fe,,,,,,,,,1009,23,-46,1,0,0,response3disk,,4,10,4,1,0,0,rectangle,10,4,1,0,0,10,4,1,0,0,1,137,297,113,1,,,,,,,,
,,,,,,,,,,,,,FF,,,,,,,,1.887,,,,,,,,,,,,,,,,,,,,,,60ff4e46b9743e061aa26d64,61036b44bb1416c61fa9c1cc,2021-07-30_04h02.28.119,Simcolourproject_2stim_asymm_v5,2020.2.10,Win32,60,61025ae37ef11b136ea224fe,,,,,,,,,3724,78,-30,1,0,0,response3disk,,5,23,14,1,0,0,rectangle,23,14,1,0,0,23,14,1,0,0,1,138,298,121,1,,,,,,,,
,,,,,,,,,,,,,FF,,,,,,,,0.667,,,,,,,,,,,,,,,,,,,,,,60ff4e46b9743e061aa26d64,61036b44bb1416c61fa9c1cc,2021-07-30_04h02.28.119,Simcolourproject_2stim_asymm_v5,2020.2.10,Win32,60,61025ae37ef11b136ea224fe,,,,,,,,,689,59,-29,1,0,0,response3disk,,5,2,-8,1,0,0,rectangle,2,-8,1,0,0,2,-8,1,0,0,1,139,299,17,1,,,,,,,,
,,,,,,,,,,,,,FF,,,,,,,,1.435,,,,,,,,,,,,,,,,,,,,,,60ff4e46b9743e061aa26d64,61036b44bb1416c61fa9c1cc,2021-07-30_04h02.28.119,Simcolourproject_2stim_asymm_v5,2020.2.10,Win32,60,61025ae37ef11b136ea224fe,,,,,,,,,1931,-43,-62,1,0,0,response5disk,,3,-9,-13,1,0,0,rectangle,-9,-13,1,0,0,-9,-13,1,0,0,1,140,300,43,1,,,,,,,,
,,,,,,,,,,,,,FF,,,,,,,,0.832,,,,,,,,,,,,,,,,,,,,,,60ff4e46b9743e061aa26d64,61036b44bb1416c61fa9c1cc,2021-07-30_04h02.28.119,Simcolourproject_2stim_asymm_v5,2020.2.10,Win32,60,61025ae37ef11b136ea224fe,,,,,,,,,194,-64,-32,1,0,0,response5disk,,2,14,9,1,0,0,rectangle,14,9,1,0,0,14,9,1,0,0,1,141,301,14,1,,,,,,,,
,,,,,,,,,,,,,FF,,,,,,,,0.799,,,,,,,,,,,,,,,,,,,,,,60ff4e46b9743e061aa26d64,61036b44bb1416c61fa9c1cc,2021-07-30_04h02.28.119,Simcolourproject_2stim_asymm_v5,2020.2.10,Win32,60,61025ae37ef11b136ea224fe,,,,,,,,,3930,69,42,1,0,0,response1disk,,6,17,1,1,0,0,rectangle,17,1,1,0,0,17,1,1,0,0,1,142,302,159,1,,,,,,,,
,,,,,,,,,,,,,FF,,,,,,,,0.634,,,,,,,,,,,,,,,,,,,,,,60ff4e46b9743e061aa26d64,61036b44bb1416c61fa9c1cc,2021-07-30_04h02.28.119,Simcolourproject_2stim_asymm_v5,2020.2.10,Win32,60,61025ae37ef11b136ea224fe,,,,,,,,,2833,-36,68,1,0,0,response7disk,,0,-1,0,1,0,0,rectangle,-1,0,1,0,0,-1,0,1,0,0,1,143,303,72,1,,,,,,,,
