key_resp.keys,key_resp.rt,key_resp_14.keys,key_resp_14.rt,key_resp_15.keys,key_resp_15.rt,key_resp_17.keys,key_resp_17.rt,key_resp_9.keys,key_resp_9.rt,key_resp_10.keys,key_resp_10.rt,practice_comparison,Ecc,mouse_5.x,mouse_5.y,mouse_5.leftButton,mouse_5.midButton,mouse_5.rightButton,mouse_5.clicked_name,pracsimilarity,response_time,mouse_10.x,mouse_10.y,mouse_10.leftButton,mouse_10.midButton,mouse_10.rightButton,mouse_10.clicked_name,mouse_7.x,mouse_7.y,mouse_7.leftButton,mouse_7.midButton,mouse_7.rightButton,mouse_6.x,mouse_6.y,mouse_6.leftButton,mouse_6.midButton,mouse_6.rightButton,duringprac.thisRepN,duringprac.thisTrialN,duringprac.thisN,duringprac.thisIndex,duringprac.ran,participant,session,date,expName,psychopyVersion,OS,frameRate,study_id,mouse_7.clicked_name,catchpracsimilarity,catch_response_time,catchnumberprac,catchtrialorderprac,mouse_6.clicked_name,key_resp_22.keys,key_resp_22.rt,realcomparison,mouse.x,mouse.y,mouse.leftButton,mouse.midButton,mouse.rightButton,mouse.clicked_name,Colour2,similarity,mouse_2.x,mouse_2.y,mouse_2.leftButton,mouse_2.midButton,mouse_2.rightButton,mouse_2.clicked_name,mouse_3.x,mouse_3.y,mouse_3.leftButton,mouse_3.midButton,mouse_3.rightButton,mouse_11.x,mouse_11.y,mouse_11.leftButton,mouse_11.midButton,mouse_11.rightButton,trials_2.thisRepN,trials_2.thisTrialN,trials_2.thisN,trials_2.thisIndex,trials_2.ran,Colour1,mouse_3.clicked_name,catchornah,catchsimilarity,catchnumber,catchtrialorder,catchRT,mouse_11.clicked_name
space,1.9109,space,14.6957,space,19.2662,space,3.3991,space,1.2708,space,4.0367,92,PF,22.80000988,89.99999598,1,0,0,response1disk_5,7,4.3049,-3.999990523,-3.200005412,1,0,0,rectangle_8,-3.999990523,-3.200005412,1,0,0,-3.999990523,-3.200005412,1,0,0,0,0,0,1,1,60ffbb189b5e539c9b0af149,61036edb954f3230411e1f1b,2021-07-29_23h16.11.213,Simcolourproject_2stim_asymm_v5,2020.2.10,Win32,60,61025ae37ef11b136ea224fe,,,,,,,,,,,,,,,,,,,,,,,,,,,,,,,,,,,,,,,,,,,,,,
,,,,,,,,,,,,128,PF,16.00000978,93.19997161,1,0,0,response1disk_5,7,2.403,-7.999990582,1.999994665,1,0,0,rectangle_8,-29.99999091,-73.20000646,1,0,0,-3.199990511,4.799994707,1,0,0,0,1,1,2,1,60ffbb189b5e539c9b0af149,61036edb954f3230411e1f1b,2021-07-29_23h16.11.213,Simcolourproject_2stim_asymm_v5,2020.2.10,Win32,60,61025ae37ef11b136ea224fe,response5disk_7,3,3.4968,3,"[2,5]",rectangle_4,,,,,,,,,,,,,,,,,,,,,,,,,,,,,,,,,,,,,,,,
,,,,,,,,,,,,112,PF,19.60005866,58.39999551,1,0,0,response1disk_5,7,1.7945,-1.599990487,-9.600005507,1,0,0,rectangle_8,-1.599990487,-9.600005507,1,0,0,-1.599990487,-9.600005507,1,0,0,0,2,2,6,1,60ffbb189b5e539c9b0af149,61036edb954f3230411e1f1b,2021-07-29_23h16.11.213,Simcolourproject_2stim_asymm_v5,2020.2.10,Win32,60,61025ae37ef11b136ea224fe,,,,,,,,,,,,,,,,,,,,,,,,,,,,,,,,,,,,,,,,,,,,,,
,,,,,,,,,,,,111,FF,25.60005875,78.3999958,1,0,0,response1disk_5,7,1.4353,-5.599990547,4.399994701,1,0,0,rectangle_8,-5.599990547,4.399994701,1,0,0,-5.599990547,4.399994701,1,0,0,0,3,3,5,1,60ffbb189b5e539c9b0af149,61036edb954f3230411e1f1b,2021-07-29_23h16.11.213,Simcolourproject_2stim_asymm_v5,2020.2.10,Win32,60,61025ae37ef11b136ea224fe,,,,,,,,,,,,,,,,,,,,,,,,,,,,,,,,,,,,,,,,,,,,,,
,,,,,,,,,,,,47,FF,17.60005863,49.99999538,1,0,0,response1disk_5,7,1.3165,-5.199990541,-5.36442E-06,1,0,0,rectangle_8,-19.59999076,-57.20000622,1,0,0,3.200009584,-0.80002979,1,0,0,0,4,4,3,1,60ffbb189b5e539c9b0af149,61036edb954f3230411e1f1b,2021-07-29_23h16.11.213,Simcolourproject_2stim_asymm_v5,2020.2.10,Win32,60,61025ae37ef11b136ea224fe,response5disk_7,3,1.9044,3,"[2,5]",rectangle_4,,,,,,,,,,,,,,,,,,,,,,,,,,,,,,,,,,,,,,,,
,,,,,,,,,,,,84,PF,110.0000112,-38.80003036,1,0,0,response3disk_5,5,2.8397,4.800009608,-4.000005424,1,0,0,rectangle_8,4.800009608,-4.000005424,1,0,0,4.800009608,-4.000005424,1,0,0,0,5,5,4,1,60ffbb189b5e539c9b0af149,61036edb954f3230411e1f1b,2021-07-29_23h16.11.213,Simcolourproject_2stim_asymm_v5,2020.2.10,Win32,60,61025ae37ef11b136ea224fe,,,,,,,,,,,,,,,,,,,,,,,,,,,,,,,,,,,,,,,,,,,,,,
,,,,,,,,,,,,80,FF,55.20001036,-18.00000563,1,0,0,response3disk_5,5,1.9834,8.400009662,-0.80002979,1,0,0,rectangle_8,8.400009662,-0.80002979,1,0,0,8.400009662,-0.80002979,1,0,0,0,6,6,0,1,60ffbb189b5e539c9b0af149,61036edb954f3230411e1f1b,2021-07-29_23h16.11.213,Simcolourproject_2stim_asymm_v5,2020.2.10,Win32,60,61025ae37ef11b136ea224fe,,,,,,,,,,,,,,,,,,,,,,,,,,,,,,,,,,,,,,,,,,,,,,
,,,,,,,,,,,,,FF,,,,,,,,3.1765,,,,,,,,,,,,,,,,,,,,,,60ffbb189b5e539c9b0af149,61036edb954f3230411e1f1b,2021-07-29_23h16.11.213,Simcolourproject_2stim_asymm_v5,2020.2.10,Win32,60,61025ae37ef11b136ea224fe,,,,,,,space,3.4248,3940,-56.79999131,-22.80003012,1,0,0,response5disk,,2,-1.999990493,4.399994701,1,0,0,rectangle,-1.999990493,4.399994701,1,0,0,-1.999990493,4.399994701,1,0,0,0,0,0,14,1,,,,,,,,
,,,,,,,,,,,,,FF,,,,,,,,1.583,,,,,,,,,,,,,,,,,,,,,,60ffbb189b5e539c9b0af149,61036edb954f3230411e1f1b,2021-07-29_23h16.11.213,Simcolourproject_2stim_asymm_v5,2020.2.10,Win32,60,61025ae37ef11b136ea224fe,,,,,,,,,3682,55.20001036,-14.40000558,1,0,0,response3disk,,5,9.600058508,-5.36442E-06,1,0,0,rectangle,9.600058508,-5.36442E-06,1,0,0,9.600058508,-5.36442E-06,1,0,0,0,1,1,55,1,,,,,,,,
,,,,,,,,,,,,,FF,,,,,,,,2.5306,,,,,,,,,,,,,,,,,,,,,,60ffbb189b5e539c9b0af149,61036edb954f3230411e1f1b,2021-07-29_23h16.11.213,Simcolourproject_2stim_asymm_v5,2020.2.10,Win32,60,61025ae37ef11b136ea224fe,,,,,,,,,2230,57.20001039,-25.20000574,1,0,0,response3disk,,5,-1.999990493,5.599994719,1,0,0,rectangle,-1.999990493,5.599994719,1,0,0,-1.999990493,5.599994719,1,0,0,0,2,2,140,1,,,,,,,,
,,,,,,,,,,,,,FF,,,,,,,,1.4818,,,,,,,,,,,,,,,,,,,,,,60ffbb189b5e539c9b0af149,61036edb954f3230411e1f1b,2021-07-29_23h16.11.213,Simcolourproject_2stim_asymm_v5,2020.2.10,Win32,60,61025ae37ef11b136ea224fe,,,,,,,,,4309,38.0000101,63.99999559,1,0,0,response1disk,,7,10.00000969,10.39999479,1,0,0,rectangle,-27.99999088,45.59999532,1,0,0,-12.79999065,1.199970239,1,0,0,0,3,3,84,1,,response7disk_3,TRUE,0,0,"[118,4,145,111,21,265,310,278,257,317,127,178,61,182,248,173,96,225,102,87]",2.1773,rectangle
,,,,,,,,,,,,,FF,,,,,,,,3.2663,,,,,,,,,,,,,,,,,,,,,,60ffbb189b5e539c9b0af149,61036edb954f3230411e1f1b,2021-07-29_23h16.11.213,Simcolourproject_2stim_asymm_v5,2020.2.10,Win32,60,61025ae37ef11b136ea224fe,,,,,,,,,473,38.40001011,-24.80003015,1,0,0,response3disk,,5,-9.999990612,-11.60000554,1,0,0,rectangle,-9.999990612,-11.60000554,1,0,0,-9.999990612,-11.60000554,1,0,0,0,4,4,47,1,,,,,,,,
,,,,,,,,,,,,,FF,,,,,,,,2.9458,,,,,,,,,,,,,,,,,,,,,,60ffbb189b5e539c9b0af149,61036edb954f3230411e1f1b,2021-07-29_23h16.11.213,Simcolourproject_2stim_asymm_v5,2020.2.10,Win32,60,61025ae37ef11b136ea224fe,,,,,,,,,4117,-74.79999158,-32.80003027,1,0,0,response5disk,,2,6.800009638,-4.000005424,1,0,0,rectangle,6.800009638,-4.000005424,1,0,0,6.800009638,-4.000005424,1,0,0,0,5,5,38,1,,,,,,,,
,,,,,,,,,,,,,FF,,,,,,,,3.3023,,,,,,,,,,,,,,,,,,,,,,60ffbb189b5e539c9b0af149,61036edb954f3230411e1f1b,2021-07-29_23h16.11.213,Simcolourproject_2stim_asymm_v5,2020.2.10,Win32,60,61025ae37ef11b136ea224fe,,,,,,,,,3638,76.80001068,31.59999511,1,0,0,response1disk,,6,-19.99999076,6.799994737,1,0,0,rectangle,-19.99999076,6.799994737,1,0,0,-19.99999076,6.799994737,1,0,0,0,6,6,122,1,,,,,,,,
,,,,,,,,,,,,,FF,,,,,,,,3.1037,,,,,,,,,,,,,,,,,,,,,,60ffbb189b5e539c9b0af149,61036edb954f3230411e1f1b,2021-07-29_23h16.11.213,Simcolourproject_2stim_asymm_v5,2020.2.10,Win32,60,61025ae37ef11b136ea224fe,,,,,,,,,1810,36.80001009,-30.80003024,1,0,0,response3disk,,5,4.800009608,-2.80002982,1,0,0,rectangle,4.800009608,-2.80002982,1,0,0,4.800009608,-2.80002982,1,0,0,0,7,7,30,1,,,,,,,,
,,,,,,,,,,,,,FF,,,,,,,,1.4006,,,,,,,,,,,,,,,,,,,,,,60ffbb189b5e539c9b0af149,61036edb954f3230411e1f1b,2021-07-29_23h16.11.213,Simcolourproject_2stim_asymm_v5,2020.2.10,Win32,60,61025ae37ef11b136ea224fe,,,,,,,,,3186,26.80000994,85.59999591,1,0,0,response1disk,,7,-13.19999066,3.599994689,1,0,0,rectangle,-13.19999066,3.599994689,1,0,0,-13.19999066,3.599994689,1,0,0,0,8,8,94,1,,,,,,,,
,,,,,,,,,,,,,FF,,,,,,,,4.7193,,,,,,,,,,,,,,,,,,,,,,60ffbb189b5e539c9b0af149,61036edb954f3230411e1f1b,2021-07-29_23h16.11.213,Simcolourproject_2stim_asymm_v5,2020.2.10,Win32,60,61025ae37ef11b136ea224fe,,,,,,,,,1327,90.80001089,-20.40000567,1,0,0,response3disk,,5,-2.799990505,1.199970239,1,0,0,rectangle,-2.799990505,1.199970239,1,0,0,-2.799990505,1.199970239,1,0,0,0,9,9,125,1,,,,,,,,
,,,,,,,,,,,,,FF,,,,,,,,1.8409,,,,,,,,,,,,,,,,,,,,,,60ffbb189b5e539c9b0af149,61036edb954f3230411e1f1b,2021-07-29_23h16.11.213,Simcolourproject_2stim_asymm_v5,2020.2.10,Win32,60,61025ae37ef11b136ea224fe,,,,,,,,,1574,26.80000994,100.7999961,1,0,0,response1disk,,7,-2.799990505,3.599994689,1,0,0,rectangle,-2.799990505,3.599994689,1,0,0,-2.799990505,3.599994689,1,0,0,0,10,10,115,1,,,,,,,,
,,,,,,,,,,,,,FF,,,,,,,,2.4827,,,,,,,,,,,,,,,,,,,,,,60ffbb189b5e539c9b0af149,61036edb954f3230411e1f1b,2021-07-29_23h16.11.213,Simcolourproject_2stim_asymm_v5,2020.2.10,Win32,60,61025ae37ef11b136ea224fe,,,,,,,,,4031,31.60005884,-55.20000619,1,0,0,response3disk,,4,2.400009573,-1.600005388,1,0,0,rectangle,2.400009573,-1.600005388,1,0,0,2.400009573,-1.600005388,1,0,0,0,11,11,68,1,,,,,,,,
,,,,,,,,,,,,,FF,,,,,,,,1.2702,,,,,,,,,,,,,,,,,,,,,,60ffbb189b5e539c9b0af149,61036edb954f3230411e1f1b,2021-07-29_23h16.11.213,Simcolourproject_2stim_asymm_v5,2020.2.10,Win32,60,61025ae37ef11b136ea224fe,,,,,,,,,1652,39.20001012,65.19997119,1,0,0,response1disk,,7,9.600058508,0.799994648,1,0,0,rectangle,9.600058508,0.799994648,1,0,0,9.600058508,0.799994648,1,0,0,0,12,12,102,1,,,,,,,,
,,,,,,,,,,,,,FF,,,,,,,,1.9924,,,,,,,,,,,,,,,,,,,,,,60ffbb189b5e539c9b0af149,61036edb954f3230411e1f1b,2021-07-29_23h16.11.213,Simcolourproject_2stim_asymm_v5,2020.2.10,Win32,60,61025ae37ef11b136ea224fe,,,,,,,,,2021,42.80001017,-30.80003024,1,0,0,response3disk,,5,5.200009614,-3.200005412,1,0,0,rectangle,5.200009614,-3.200005412,1,0,0,5.200009614,-3.200005412,1,0,0,0,13,13,81,1,,,,,,,,
,,,,,,,,,,,,,FF,,,,,,,,1.35,,,,,,,,,,,,,,,,,,,,,,60ffbb189b5e539c9b0af149,61036edb954f3230411e1f1b,2021-07-29_23h16.11.213,Simcolourproject_2stim_asymm_v5,2020.2.10,Win32,60,61025ae37ef11b136ea224fe,,,,,,,,,3323,43.60005901,76.79999578,1,0,0,response1disk,,7,4.400009602,-4.000005424,1,0,0,rectangle,4.400009602,-4.000005424,1,0,0,4.400009602,-4.000005424,1,0,0,0,14,14,107,1,,,,,,,,
,,,,,,,,,,,,,FF,,,,,,,,1.6504,,,,,,,,,,,,,,,,,,,,,,60ffbb189b5e539c9b0af149,61036edb954f3230411e1f1b,2021-07-29_23h16.11.213,Simcolourproject_2stim_asymm_v5,2020.2.10,Win32,60,61025ae37ef11b136ea224fe,,,,,,,,,3066,46.40001023,23.19997057,1,0,0,response1disk,,6,2.400009573,-4.000005424,1,0,0,rectangle,2.400009573,-4.000005424,1,0,0,2.400009573,-4.000005424,1,0,0,0,15,15,50,1,,,,,,,,
,,,,,,,,,,,,,FF,,,,,,,,1.8199,,,,,,,,,,,,,,,,,,,,,,60ffbb189b5e539c9b0af149,61036edb954f3230411e1f1b,2021-07-29_23h16.11.213,Simcolourproject_2stim_asymm_v5,2020.2.10,Win32,60,61025ae37ef11b136ea224fe,,,,,,,,,2296,30.40000999,-54.80000618,1,0,0,response3disk,,4,-0.399941641,5.599994719,1,0,0,rectangle,-0.399941641,5.599994719,1,0,0,-0.399941641,5.599994719,1,0,0,0,16,16,121,1,,,,,,,,
,,,,,,,,,,,,,FF,,,,,,,,2.2692,,,,,,,,,,,,,,,,,,,,,,60ffbb189b5e539c9b0af149,61036edb954f3230411e1f1b,2021-07-29_23h16.11.213,Simcolourproject_2stim_asymm_v5,2020.2.10,Win32,60,61025ae37ef11b136ea224fe,,,,,,,,,3497,22.80000988,51.19997098,1,0,0,response1disk,,7,4.000009596,11.99999481,1,0,0,rectangle,4.000009596,11.99999481,1,0,0,4.000009596,11.99999481,1,0,0,0,17,17,103,1,,,,,,,,
,,,,,,,,,,,,,FF,,,,,,,,1.8023,,,,,,,,,,,,,,,,,,,,,,60ffbb189b5e539c9b0af149,61036edb954f3230411e1f1b,2021-07-29_23h16.11.213,Simcolourproject_2stim_asymm_v5,2020.2.10,Win32,60,61025ae37ef11b136ea224fe,,,,,,,,,4208,-58.39994251,-44.80003045,1,0,0,response5disk,,2,-7.199990571,6.799994737,1,0,0,rectangle,-7.199990571,6.799994737,1,0,0,-7.199990571,6.799994737,1,0,0,0,18,18,112,1,,,,,,,,
,,,,,,,,,,,,,FF,,,,,,,,1.1028,,,,,,,,,,,,,,,,,,,,,,60ffbb189b5e539c9b0af149,61036edb954f3230411e1f1b,2021-07-29_23h16.11.213,Simcolourproject_2stim_asymm_v5,2020.2.10,Win32,60,61025ae37ef11b136ea224fe,,,,,,,,,2977,29.20000997,72.79999572,1,0,0,response1disk,,7,-3.199990511,7.199970329,1,0,0,rectangle,-3.199990511,7.199970329,1,0,0,-3.199990511,7.199970329,1,0,0,0,19,19,136,1,,,,,,,,
,,,,,,,,,,,,,FF,,,,,,,,1.8661,,,,,,,,,,,,,,,,,,,,,,60ffbb189b5e539c9b0af149,61036edb954f3230411e1f1b,2021-07-29_23h16.11.213,Simcolourproject_2stim_asymm_v5,2020.2.10,Win32,60,61025ae37ef11b136ea224fe,,,,,,,,,453,65.60005934,32.79999512,1,0,0,response1disk,,6,16.40000978,-0.40000537,1,0,0,rectangle,26.40000993,53.99999544,1,0,0,-2.399941671,-5.600005448,1,0,0,0,20,20,93,1,,response1disk_3,TRUE,7,7,"[118,4,145,111,21,265,310,278,257,317,127,178,61,182,248,173,96,225,102,87]",2.0322,rectangle
,,,,,,,,,,,,,FF,,,,,,,,1.8808,,,,,,,,,,,,,,,,,,,,,,60ffbb189b5e539c9b0af149,61036edb954f3230411e1f1b,2021-07-29_23h16.11.213,Simcolourproject_2stim_asymm_v5,2020.2.10,Win32,60,61025ae37ef11b136ea224fe,,,,,,,,,4225,-68.79999149,25.59999502,1,0,0,response7disk,,1,16.40000978,11.99999481,1,0,0,rectangle,16.40000978,11.99999481,1,0,0,16.40000978,11.99999481,1,0,0,0,21,21,152,1,,,,,,,,
,,,,,,,,,,,,,FF,,,,,,,,1.3004,,,,,,,,,,,,,,,,,,,,,,60ffbb189b5e539c9b0af149,61036edb954f3230411e1f1b,2021-07-29_23h16.11.213,Simcolourproject_2stim_asymm_v5,2020.2.10,Win32,60,61025ae37ef11b136ea224fe,,,,,,,,,2851,32.00001001,57.9999955,1,0,0,response1disk,,7,4.400009602,-2.4000054,1,0,0,rectangle,4.400009602,-2.4000054,1,0,0,4.400009602,-2.4000054,1,0,0,0,22,22,65,1,,,,,,,,
,,,,,,,,,,,,,FF,,,,,,,,1.9936,,,,,,,,,,,,,,,,,,,,,,60ffbb189b5e539c9b0af149,61036edb954f3230411e1f1b,2021-07-29_23h16.11.213,Simcolourproject_2stim_asymm_v5,2020.2.10,Win32,60,61025ae37ef11b136ea224fe,,,,,,,,,3623,-28.39994206,-44.40000603,1,0,0,response5disk,,3,-6.39994173,-8.40000549,1,0,0,rectangle,-6.39994173,-8.40000549,1,0,0,-6.39994173,-8.40000549,1,0,0,0,23,23,79,1,,,,,,,,
,,,,,,,,,,,,,FF,,,,,,,,1.9288,,,,,,,,,,,,,,,,,,,,,,60ffbb189b5e539c9b0af149,61036edb954f3230411e1f1b,2021-07-29_23h16.11.213,Simcolourproject_2stim_asymm_v5,2020.2.10,Win32,60,61025ae37ef11b136ea224fe,,,,,,,,,3161,18.0000098,-35.20000589,1,0,0,response3disk,,4,0.800009549,3.999994695,1,0,0,rectangle,0.800009549,3.999994695,1,0,0,0.800009549,3.999994695,1,0,0,0,24,24,26,1,,,,,,,,
,,,,,,,,,,,,,FF,,,,,,,,3.8043,,,,,,,,,,,,,,,,,,,,,,60ffbb189b5e539c9b0af149,61036edb954f3230411e1f1b,2021-07-29_23h16.11.213,Simcolourproject_2stim_asymm_v5,2020.2.10,Win32,60,61025ae37ef11b136ea224fe,,,,,,,,,1563,75.60005949,22.79999498,1,0,0,response1disk,,6,2.800009578,4.399994701,1,0,0,rectangle,2.800009578,4.399994701,1,0,0,2.800009578,4.399994701,1,0,0,0,25,25,24,1,,,,,,,,
,,,,,,,,,,,,,FF,,,,,,,,5.0339,,,,,,,,,,,,,,,,,,,,,,60ffbb189b5e539c9b0af149,61036edb954f3230411e1f1b,2021-07-29_23h16.11.213,Simcolourproject_2stim_asymm_v5,2020.2.10,Win32,60,61025ae37ef11b136ea224fe,,,,,,,,,3762,33.20001003,22.79999498,1,0,0,response1disk,,6,-5.199990541,-2.80002982,1,0,0,rectangle,-5.199990541,-2.80002982,1,0,0,-5.199990541,-2.80002982,1,0,0,0,26,26,67,1,,,,,,,,
,,,,,,,,,,,,,FF,,,,,,,,1.8014,,,,,,,,,,,,,,,,,,,,,,60ffbb189b5e539c9b0af149,61036edb954f3230411e1f1b,2021-07-29_23h16.11.213,Simcolourproject_2stim_asymm_v5,2020.2.10,Win32,60,61025ae37ef11b136ea224fe,,,,,,,,,1593,57.20001039,-20.80003009,1,0,0,response3disk,,5,14.80000976,-5.36442E-06,1,0,0,rectangle,14.80000976,-5.36442E-06,1,0,0,14.80000976,-5.36442E-06,1,0,0,0,27,27,43,1,,,,,,,,
,,,,,,,,,,,,,FF,,,,,,,,1.6422,,,,,,,,,,,,,,,,,,,,,,60ffbb189b5e539c9b0af149,61036edb954f3230411e1f1b,2021-07-29_23h16.11.213,Simcolourproject_2stim_asymm_v5,2020.2.10,Win32,60,61025ae37ef11b136ea224fe,,,,,,,,,273,38.40001011,-20.80003009,1,0,0,response3disk,,5,6.000009626,5.599994719,1,0,0,rectangle,6.000009626,5.599994719,1,0,0,6.000009626,5.599994719,1,0,0,0,28,28,130,1,,,,,,,,
,,,,,,,,,,,,,FF,,,,,,,,1.0105,,,,,,,,,,,,,,,,,,,,,,60ffbb189b5e539c9b0af149,61036edb954f3230411e1f1b,2021-07-29_23h16.11.213,Simcolourproject_2stim_asymm_v5,2020.2.10,Win32,60,61025ae37ef11b136ea224fe,,,,,,,,,194,36.80001009,-23.20000571,1,0,0,response3disk,,5,3.600058419,-2.000005394,1,0,0,rectangle,3.600058419,-2.000005394,1,0,0,3.600058419,-2.000005394,1,0,0,0,29,29,28,1,,,,,,,,
,,,,,,,,,,,,,FF,,,,,,,,1.5082,,,,,,,,,,,,,,,,,,,,,,60ffbb189b5e539c9b0af149,61036edb954f3230411e1f1b,2021-07-29_23h16.11.213,Simcolourproject_2stim_asymm_v5,2020.2.10,Win32,60,61025ae37ef11b136ea224fe,,,,,,,,,3642,26.40000993,46.39999533,1,0,0,response1disk,,7,5.600058448,8.799994767,1,0,0,rectangle,5.600058448,8.799994767,1,0,0,5.600058448,8.799994767,1,0,0,0,30,30,41,1,,,,,,,,
,,,,,,,,,,,,,FF,,,,,,,,2.9277,,,,,,,,,,,,,,,,,,,,,,60ffbb189b5e539c9b0af149,61036edb954f3230411e1f1b,2021-07-29_23h16.11.213,Simcolourproject_2stim_asymm_v5,2020.2.10,Win32,60,61025ae37ef11b136ea224fe,,,,,,,,,3728,39.20001012,71.19997128,1,0,0,response1disk,,7,-3.999990523,0.399994642,1,0,0,rectangle,-3.999990523,0.399994642,1,0,0,-3.999990523,0.399994642,1,0,0,0,31,31,2,1,,,,,,,,
,,,,,,,,,,,,,FF,,,,,,,,1.317,,,,,,,,,,,,,,,,,,,,,,60ffbb189b5e539c9b0af149,61036edb954f3230411e1f1b,2021-07-29_23h16.11.213,Simcolourproject_2stim_asymm_v5,2020.2.10,Win32,60,61025ae37ef11b136ea224fe,,,,,,,,,655,-33.99999097,-49.2000061,1,0,0,response5disk,,3,-9.599990606,-1.600005388,1,0,0,rectangle,-9.599990606,-1.600005388,1,0,0,-9.599990606,-1.600005388,1,0,0,0,32,32,6,1,,,,,,,,
,,,,,,,,,,,,,FF,,,,,,,,2.6832,,,,,,,,,,,,,,,,,,,,,,60ffbb189b5e539c9b0af149,61036edb954f3230411e1f1b,2021-07-29_23h16.11.213,Simcolourproject_2stim_asymm_v5,2020.2.10,Win32,60,61025ae37ef11b136ea224fe,,,,,,,,,207,16.00000978,42.79999527,1,0,0,response1disk,,7,-1.599990487,7.999994755,1,0,0,rectangle,-1.599990487,7.999994755,1,0,0,-1.599990487,7.999994755,1,0,0,0,33,33,57,1,,,,,,,,
,,,,,,,,,,,,,FF,,,,,,,,1.2514,,,,,,,,,,,,,,,,,,,,,,60ffbb189b5e539c9b0af149,61036edb954f3230411e1f1b,2021-07-29_23h16.11.213,Simcolourproject_2stim_asymm_v5,2020.2.10,Win32,60,61025ae37ef11b136ea224fe,,,,,,,,,2150,32.40001002,40.39999524,1,0,0,response1disk,,7,15.20000976,9.199970359,1,0,0,rectangle,15.20000976,9.199970359,1,0,0,15.20000976,9.199970359,1,0,0,0,34,34,17,1,,,,,,,,
,,,,,,,,,,,,,FF,,,,,,,,2.152,,,,,,,,,,,,,,,,,,,,,,60ffbb189b5e539c9b0af149,61036edb954f3230411e1f1b,2021-07-29_23h16.11.213,Simcolourproject_2stim_asymm_v5,2020.2.10,Win32,60,61025ae37ef11b136ea224fe,,,,,,,,,958,44.8000102,-14.80003,1,0,0,response3disk,,5,6.000009626,-0.40000537,1,0,0,rectangle,6.000009626,-0.40000537,1,0,0,6.000009626,-0.40000537,1,0,0,0,35,35,110,1,,,,,,,,
,,,,,,,,,,,,,FF,,,,,,,,1.2449,,,,,,,,,,,,,,,,,,,,,,60ffbb189b5e539c9b0af149,61036edb954f3230411e1f1b,2021-07-29_23h16.11.213,Simcolourproject_2stim_asymm_v5,2020.2.10,Win32,60,61025ae37ef11b136ea224fe,,,,,,,,,2467,26.00000992,47.19997092,1,0,0,response1disk,,7,-9.1999906,-9.200005502,1,0,0,rectangle,-9.1999906,-9.200005502,1,0,0,-9.1999906,-9.200005502,1,0,0,0,36,36,12,1,,,,,,,,
,,,,,,,,,,,,,FF,,,,,,,,3.1325,,,,,,,,,,,,,,,,,,,,,,60ffbb189b5e539c9b0af149,61036edb954f3230411e1f1b,2021-07-29_23h16.11.213,Simcolourproject_2stim_asymm_v5,2020.2.10,Win32,60,61025ae37ef11b136ea224fe,,,,,,,,,2967,22.40000987,60.79999554,1,0,0,response1disk,,7,-10.39994179,-1.600005388,1,0,0,rectangle,-10.39994179,-1.600005388,1,0,0,-10.39994179,-1.600005388,1,0,0,0,37,37,132,1,,,,,,,,
,,,,,,,,,,,,,FF,,,,,,,,3.8017,,,,,,,,,,,,,,,,,,,,,,60ffbb189b5e539c9b0af149,61036edb954f3230411e1f1b,2021-07-29_23h16.11.213,Simcolourproject_2stim_asymm_v5,2020.2.10,Win32,60,61025ae37ef11b136ea224fe,,,,,,,,,2829,-16.79999071,-63.20000631,1,0,0,response5disk,,3,-1.599990487,3.599994689,1,0,0,rectangle,-1.599990487,3.599994689,1,0,0,-1.599990487,3.599994689,1,0,0,0,38,38,151,1,,,,,,,,
,,,,,,,,,,,,,FF,,,,,,,,4.0172,,,,,,,,,,,,,,,,,,,,,,60ffbb189b5e539c9b0af149,61036edb954f3230411e1f1b,2021-07-29_23h16.11.213,Simcolourproject_2stim_asymm_v5,2020.2.10,Win32,60,61025ae37ef11b136ea224fe,,,,,,,,,3122,49.20001027,25.1999706,1,0,0,response1disk,,6,12.40000972,-5.600005448,1,0,0,rectangle,12.40000972,-5.600005448,1,0,0,12.40000972,-5.600005448,1,0,0,0,39,39,101,1,,,,,,,,
,,,,,,,,,,,,,FF,,,,,,,,1.2948,,,,,,,,,,,,,,,,,,,,,,60ffbb189b5e539c9b0af149,61036edb954f3230411e1f1b,2021-07-29_23h16.11.213,Simcolourproject_2stim_asymm_v5,2020.2.10,Win32,60,61025ae37ef11b136ea224fe,,,,,,,,,4046,-29.5999909,88.39999595,1,0,0,response7disk,,0,-7.999990582,3.599994689,1,0,0,rectangle,-7.999990582,3.599994689,1,0,0,-7.999990582,3.599994689,1,0,0,0,40,40,48,1,,,,,,,,
,,,,,,,,,,,,,FF,,,,,,,,1.7187,,,,,,,,,,,,,,,,,,,,,,60ffbb189b5e539c9b0af149,61036edb954f3230411e1f1b,2021-07-29_23h16.11.213,Simcolourproject_2stim_asymm_v5,2020.2.10,Win32,60,61025ae37ef11b136ea224fe,,,,,,,,,3644,-31.59999093,-75.60000649,1,0,0,response5disk,,3,-3.199990511,7.599994749,1,0,0,rectangle,-3.199990511,7.599994749,1,0,0,-3.199990511,7.599994749,1,0,0,0,41,41,108,1,,,,,,,,
,,,,,,,,,,,,,FF,,,,,,,,1.6004,,,,,,,,,,,,,,,,,,,,,,60ffbb189b5e539c9b0af149,61036edb954f3230411e1f1b,2021-07-29_23h16.11.213,Simcolourproject_2stim_asymm_v5,2020.2.10,Win32,60,61025ae37ef11b136ea224fe,,,,,,,,,4006,-63.19999141,-29.2000058,1,0,0,response5disk,,2,-2.399941671,11.59999481,1,0,0,rectangle,-2.399941671,11.59999481,1,0,0,-2.399941671,11.59999481,1,0,0,0,42,42,5,1,,,,,,,,
,,,,,,,,,,,,,FF,,,,,,,,1.1845,,,,,,,,,,,,,,,,,,,,,,60ffbb189b5e539c9b0af149,61036edb954f3230411e1f1b,2021-07-29_23h16.11.213,Simcolourproject_2stim_asymm_v5,2020.2.10,Win32,60,61025ae37ef11b136ea224fe,,,,,,,,,1153,24.80000991,77.19997137,1,0,0,response1disk,,7,-3.999990523,11.99999481,1,0,0,rectangle,-3.999990523,11.99999481,1,0,0,-3.999990523,11.99999481,1,0,0,0,43,43,145,1,,,,,,,,
,,,,,,,,,,,,,FF,,,,,,,,2.7496,,,,,,,,,,,,,,,,,,,,,,60ffbb189b5e539c9b0af149,61036edb954f3230411e1f1b,2021-07-29_23h16.11.213,Simcolourproject_2stim_asymm_v5,2020.2.10,Win32,60,61025ae37ef11b136ea224fe,,,,,,,,,4290,18.0000098,51.19997098,1,0,0,response1disk,,7,-5.199990541,11.59999481,1,0,0,rectangle,-5.199990541,11.59999481,1,0,0,-5.199990541,11.59999481,1,0,0,0,44,44,135,1,,,,,,,,
,,,,,,,,,,,,,FF,,,,,,,,1.1526,,,,,,,,,,,,,,,,,,,,,,60ffbb189b5e539c9b0af149,61036edb954f3230411e1f1b,2021-07-29_23h16.11.213,Simcolourproject_2stim_asymm_v5,2020.2.10,Win32,60,61025ae37ef11b136ea224fe,,,,,,,,,474,32.00001001,79.1999714,1,0,0,response1disk,,7,-0.399941641,12.79999483,1,0,0,rectangle,-0.399941641,12.79999483,1,0,0,-0.399941641,12.79999483,1,0,0,0,45,45,10,1,,,,,,,,
,,,,,,,,,,,,,FF,,,,,,,,0.968,,,,,,,,,,,,,,,,,,,,,,60ffbb189b5e539c9b0af149,61036edb954f3230411e1f1b,2021-07-29_23h16.11.213,Simcolourproject_2stim_asymm_v5,2020.2.10,Win32,60,61025ae37ef11b136ea224fe,,,,,,,,,1066,35.20001006,74.39999574,1,0,0,response1disk,,7,5.200009614,10.7999948,1,0,0,rectangle,5.200009614,10.7999948,1,0,0,5.200009614,10.7999948,1,0,0,0,46,46,62,1,,,,,,,,
,,,,,,,,,,,,,FF,,,,,,,,0.6507,,,,,,,,,,,,,,,,,,,,,,60ffbb189b5e539c9b0af149,61036edb954f3230411e1f1b,2021-07-29_23h16.11.213,Simcolourproject_2stim_asymm_v5,2020.2.10,Win32,60,61025ae37ef11b136ea224fe,,,,,,,,,3452,34.00001004,57.9999955,1,0,0,response1disk,,7,7.200009644,-0.40000537,1,0,0,rectangle,7.200009644,-0.40000537,1,0,0,7.200009644,-0.40000537,1,0,0,0,47,47,23,1,,,,,,,,
,,,,,,,,,,,,,FF,,,,,,,,1.5005,,,,,,,,,,,,,,,,,,,,,,60ffbb189b5e539c9b0af149,61036edb954f3230411e1f1b,2021-07-29_23h16.11.213,Simcolourproject_2stim_asymm_v5,2020.2.10,Win32,60,61025ae37ef11b136ea224fe,,,,,,,,,826,41.60005898,-20.00000566,1,0,0,response3disk,,5,0.800009549,1.599994659,1,0,0,rectangle,0.800009549,1.599994659,1,0,0,0.800009549,1.599994659,1,0,0,0,48,48,66,1,,,,,,,,
,,,,,,,,,,,,,FF,,,,,,,,1.1199,,,,,,,,,,,,,,,,,,,,,,60ffbb189b5e539c9b0af149,61036edb954f3230411e1f1b,2021-07-29_23h16.11.213,Simcolourproject_2stim_asymm_v5,2020.2.10,Win32,60,61025ae37ef11b136ea224fe,,,,,,,,,3664,-34.79999098,-51.20000613,1,0,0,response5disk,,3,9.53674E-06,4.399994701,1,0,0,rectangle,9.53674E-06,4.399994701,1,0,0,9.53674E-06,4.399994701,1,0,0,0,49,49,34,1,,,,,,,,
,,,,,,,,,,,,,FF,,,,,,,,1.5618,,,,,,,,,,,,,,,,,,,,,,60ffbb189b5e539c9b0af149,61036edb954f3230411e1f1b,2021-07-29_23h16.11.213,Simcolourproject_2stim_asymm_v5,2020.2.10,Win32,60,61025ae37ef11b136ea224fe,,,,,,,,,536,24.00000989,56.79999548,1,0,0,response1disk,,7,-2.799990505,7.999994755,1,0,0,rectangle,-2.799990505,7.999994755,1,0,0,-2.799990505,7.999994755,1,0,0,0,50,50,159,1,,,,,,,,
,,,,,,,,,,,,,FF,,,,,,,,1.7723,,,,,,,,,,,,,,,,,,,,,,60ffbb189b5e539c9b0af149,61036edb954f3230411e1f1b,2021-07-29_23h16.11.213,Simcolourproject_2stim_asymm_v5,2020.2.10,Win32,60,61025ae37ef11b136ea224fe,,,,,,,,,1067,36.00001007,19.99999493,1,0,0,response1disk,,6,11.60005854,-8.80002991,1,0,0,rectangle,11.60005854,-8.80002991,1,0,0,11.60005854,-8.80002991,1,0,0,0,51,51,155,1,,,,,,,,
,,,,,,,,,,,,,FF,,,,,,,,1.3039,,,,,,,,,,,,,,,,,,,,,,60ffbb189b5e539c9b0af149,61036edb954f3230411e1f1b,2021-07-29_23h16.11.213,Simcolourproject_2stim_asymm_v5,2020.2.10,Win32,60,61025ae37ef11b136ea224fe,,,,,,,,,4331,36.80001009,77.9999958,1,0,0,response1disk,,7,-1.999990493,3.199970269,1,0,0,rectangle,-1.999990493,3.199970269,1,0,0,-1.999990493,3.199970269,1,0,0,0,52,52,114,1,,,,,,,,
,,,,,,,,,,,,,FF,,,,,,,,1.8028,,,,,,,,,,,,,,,,,,,,,,60ffbb189b5e539c9b0af149,61036edb954f3230411e1f1b,2021-07-29_23h16.11.213,Simcolourproject_2stim_asymm_v5,2020.2.10,Win32,60,61025ae37ef11b136ea224fe,,,,,,,,,3561,35.20001006,-26.40000576,1,0,0,response3disk,,5,1.600058389,-2.80002982,1,0,0,rectangle,1.600058389,-2.80002982,1,0,0,1.600058389,-2.80002982,1,0,0,0,53,53,36,1,,,,,,,,
,,,,,,,,,,,,,FF,,,,,,,,2.895,,,,,,,,,,,,,,,,,,,,,,60ffbb189b5e539c9b0af149,61036edb954f3230411e1f1b,2021-07-29_23h16.11.213,Simcolourproject_2stim_asymm_v5,2020.2.10,Win32,60,61025ae37ef11b136ea224fe,,,,,,,,,504,39.20001012,-25.60000575,1,0,0,response3disk,,5,-1.199990481,11.99999481,1,0,0,rectangle,-1.199990481,11.99999481,1,0,0,-1.199990481,11.99999481,1,0,0,0,54,54,87,1,,,,,,,,
,,,,,,,,,,,,,FF,,,,,,,,1.6571,,,,,,,,,,,,,,,,,,,,,,60ffbb189b5e539c9b0af149,61036edb954f3230411e1f1b,2021-07-29_23h16.11.213,Simcolourproject_2stim_asymm_v5,2020.2.10,Win32,60,61025ae37ef11b136ea224fe,,,,,,,,,3880,-91.19999182,-26.40000576,1,0,0,response5disk,,2,6.000009626,7.599994749,1,0,0,rectangle,6.000009626,7.599994749,1,0,0,6.000009626,7.599994749,1,0,0,0,55,55,40,1,,,,,,,,
,,,,,,,,,,,,,FF,,,,,,,,2.1514,,,,,,,,,,,,,,,,,,,,,,60ffbb189b5e539c9b0af149,61036edb954f3230411e1f1b,2021-07-29_23h16.11.213,Simcolourproject_2stim_asymm_v5,2020.2.10,Win32,60,61025ae37ef11b136ea224fe,,,,,,,,,2785,51.60005913,-31.20000583,1,0,0,response3disk,,5,2.800009578,2.799994677,1,0,0,rectangle,2.800009578,2.799994677,1,0,0,2.800009578,2.799994677,1,0,0,0,56,56,127,1,,,,,,,,
,,,,,,,,,,,,,FF,,,,,,,,2.1767,,,,,,,,,,,,,,,,,,,,,,60ffbb189b5e539c9b0af149,61036edb954f3230411e1f1b,2021-07-29_23h16.11.213,Simcolourproject_2stim_asymm_v5,2020.2.10,Win32,60,61025ae37ef11b136ea224fe,,,,,,,,,1285,-42.7999911,-58.80000624,1,0,0,response5disk,,3,-3.199990511,3.599994689,1,0,0,rectangle,-3.199990511,3.599994689,1,0,0,-3.199990511,3.599994689,1,0,0,0,57,57,7,1,,,,,,,,
,,,,,,,,,,,,,FF,,,,,,,,1.3094,,,,,,,,,,,,,,,,,,,,,,60ffbb189b5e539c9b0af149,61036edb954f3230411e1f1b,2021-07-29_23h16.11.213,Simcolourproject_2stim_asymm_v5,2020.2.10,Win32,60,61025ae37ef11b136ea224fe,,,,,,,,,3906,-35.999991,103.9999962,1,0,0,response7disk,,0,-17.59999073,3.599994689,1,0,0,rectangle,-17.59999073,3.599994689,1,0,0,-17.59999073,3.599994689,1,0,0,0,58,58,116,1,,,,,,,,
,,,,,,,,,,,,,FF,,,,,,,,1.9191,,,,,,,,,,,,,,,,,,,,,,60ffbb189b5e539c9b0af149,61036edb954f3230411e1f1b,2021-07-29_23h16.11.213,Simcolourproject_2stim_asymm_v5,2020.2.10,Win32,60,61025ae37ef11b136ea224fe,,,,,,,,,4015,44.00001019,19.19997051,1,0,0,response1disk,,6,14.80000976,6.399994731,1,0,0,rectangle,14.80000976,6.399994731,1,0,0,14.80000976,6.399994731,1,0,0,0,59,59,61,1,,,,,,,,
,,,,,,,,,,,,,FF,,,,,,,,1.6262,,,,,,,,,,,,,,,,,,,,,,60ffbb189b5e539c9b0af149,61036edb954f3230411e1f1b,2021-07-29_23h16.11.213,Simcolourproject_2stim_asymm_v5,2020.2.10,Win32,60,61025ae37ef11b136ea224fe,,,,,,,,,1579,27.60005878,55.19997104,1,0,0,response1disk,,7,11.2000097,3.199970269,1,0,0,rectangle,66.80001053,36.39999518,1,0,0,4.400009602,-4.40000543,1,0,0,0,60,60,149,1,,response1disk_3,TRUE,6,6,"[118,4,145,111,21,265,310,278,257,317,127,178,61,182,248,173,96,225,102,87]",2.3176,rectangle
,,,,,,,,,,,,,FF,,,,,,,,1.7517,,,,,,,,,,,,,,,,,,,,,,60ffbb189b5e539c9b0af149,61036edb954f3230411e1f1b,2021-07-29_23h16.11.213,Simcolourproject_2stim_asymm_v5,2020.2.10,Win32,60,61025ae37ef11b136ea224fe,,,,,,,,,1180,61.20001045,-19.60000566,1,0,0,response3disk,,5,-5.599990547,4.799994707,1,0,0,rectangle,-5.599990547,4.799994707,1,0,0,-5.599990547,4.799994707,1,0,0,0,61,61,70,1,,,,,,,,
,,,,,,,,,,,,,FF,,,,,,,,1.2776,,,,,,,,,,,,,,,,,,,,,,60ffbb189b5e539c9b0af149,61036edb954f3230411e1f1b,2021-07-29_23h16.11.213,Simcolourproject_2stim_asymm_v5,2020.2.10,Win32,60,61025ae37ef11b136ea224fe,,,,,,,,,1975,23.20000988,48.79999536,1,0,0,response1disk,,7,9.200009674,7.999994755,1,0,0,rectangle,9.200009674,7.999994755,1,0,0,9.200009674,7.999994755,1,0,0,0,62,62,15,1,,,,,,,,
,,,,,,,,,,,,,FF,,,,,,,,1.2934,,,,,,,,,,,,,,,,,,,,,,60ffbb189b5e539c9b0af149,61036edb954f3230411e1f1b,2021-07-29_23h16.11.213,Simcolourproject_2stim_asymm_v5,2020.2.10,Win32,60,61025ae37ef11b136ea224fe,,,,,,,,,3163,33.60005887,29.59999508,1,0,0,response1disk,,6,9.200009674,2.799994677,1,0,0,rectangle,9.200009674,2.799994677,1,0,0,9.200009674,2.799994677,1,0,0,0,63,63,0,1,,,,,,,,
,,,,,,,,,,,,,FF,,,,,,,,1.9122,,,,,,,,,,,,,,,,,,,,,,60ffbb189b5e539c9b0af149,61036edb954f3230411e1f1b,2021-07-29_23h16.11.213,Simcolourproject_2stim_asymm_v5,2020.2.10,Win32,60,61025ae37ef11b136ea224fe,,,,,,,,,3453,39.20001012,79.1999714,1,0,0,response1disk,,7,4.400009602,3.999994695,1,0,0,rectangle,4.400009602,3.999994695,1,0,0,4.400009602,3.999994695,1,0,0,0,64,64,53,1,,,,,,,,
,,,,,,,,,,,,,FF,,,,,,,,2.6955,,,,,,,,,,,,,,,,,,,,,,60ffbb189b5e539c9b0af149,61036edb954f3230411e1f1b,2021-07-29_23h16.11.213,Simcolourproject_2stim_asymm_v5,2020.2.10,Win32,60,61025ae37ef11b136ea224fe,,,,,,,,,548,-45.59999114,-56.0000062,1,0,0,response5disk,,3,18.0000098,-4.000005424,1,0,0,rectangle,18.0000098,-4.000005424,1,0,0,18.0000098,-4.000005424,1,0,0,0,65,65,29,1,,,,,,,,
,,,,,,,,,,,,,FF,,,,,,,,2.4095,,,,,,,,,,,,,,,,,,,,,,60ffbb189b5e539c9b0af149,61036edb954f3230411e1f1b,2021-07-29_23h16.11.213,Simcolourproject_2stim_asymm_v5,2020.2.10,Win32,60,61025ae37ef11b136ea224fe,,,,,,,,,3939,14.00000975,-39.60000595,1,0,0,response3disk,,4,2.800009578,-4.000005424,1,0,0,rectangle,2.800009578,-4.000005424,1,0,0,2.800009578,-4.000005424,1,0,0,0,66,66,157,1,,,,,,,,
,,,,,,,,,,,,,FF,,,,,,,,2.5366,,,,,,,,,,,,,,,,,,,,,,60ffbb189b5e539c9b0af149,61036edb954f3230411e1f1b,2021-07-29_23h16.11.213,Simcolourproject_2stim_asymm_v5,2020.2.10,Win32,60,61025ae37ef11b136ea224fe,,,,,,,,,1271,44.4000102,17.5999949,1,0,0,response1disk,,6,5.600058448,-1.600005388,1,0,0,rectangle,5.600058448,-1.600005388,1,0,0,5.600058448,-1.600005388,1,0,0,0,67,67,113,1,,,,,,,,
,,,,,,,,,,,,,FF,,,,,,,,1.1669,,,,,,,,,,,,,,,,,,,,,,60ffbb189b5e539c9b0af149,61036edb954f3230411e1f1b,2021-07-29_23h16.11.213,Simcolourproject_2stim_asymm_v5,2020.2.10,Win32,60,61025ae37ef11b136ea224fe,,,,,,,,,134,36.80001009,63.59999558,1,0,0,response1disk,,7,8.800009668,-6.000005454,1,0,0,rectangle,8.800009668,-6.000005454,1,0,0,8.800009668,-6.000005454,1,0,0,0,68,68,158,1,,,,,,,,
,,,,,,,,,,,,,FF,,,,,,,,1.994,,,,,,,,,,,,,,,,,,,,,,60ffbb189b5e539c9b0af149,61036edb954f3230411e1f1b,2021-07-29_23h16.11.213,Simcolourproject_2stim_asymm_v5,2020.2.10,Win32,60,61025ae37ef11b136ea224fe,,,,,,,,,329,30.00000998,44.7999953,1,0,0,response1disk,,7,12.00000972,3.199970269,1,0,0,rectangle,12.00000972,3.199970269,1,0,0,12.00000972,3.199970269,1,0,0,0,69,69,59,1,,,,,,,,
,,,,,,,,,,,,,FF,,,,,,,,1.0491,,,,,,,,,,,,,,,,,,,,,,60ffbb189b5e539c9b0af149,61036edb954f3230411e1f1b,2021-07-29_23h16.11.213,Simcolourproject_2stim_asymm_v5,2020.2.10,Win32,60,61025ae37ef11b136ea224fe,,,,,,,,,1093,18.80000982,41.19997084,1,0,0,response1disk,,7,4.400009602,5.599994719,1,0,0,rectangle,4.400009602,5.599994719,1,0,0,4.400009602,5.599994719,1,0,0,0,70,70,32,1,,,,,,,,
,,,,,,,,,,,,,FF,,,,,,,,0.7191,,,,,,,,,,,,,,,,,,,,,,60ffbb189b5e539c9b0af149,61036edb954f3230411e1f1b,2021-07-29_23h16.11.213,Simcolourproject_2stim_asymm_v5,2020.2.10,Win32,60,61025ae37ef11b136ea224fe,,,,,,,,,3368,22.40000987,47.19997092,1,0,0,response1disk,,7,-1.599990487,-5.600005448,1,0,0,rectangle,-1.599990487,-5.600005448,1,0,0,-1.599990487,-5.600005448,1,0,0,0,71,71,105,1,,,,,,,,
,,,,,,,,,,,,,FF,,,,,,,,1.315,,,,,,,,,,,,,,,,,,,,,,60ffbb189b5e539c9b0af149,61036edb954f3230411e1f1b,2021-07-29_23h16.11.213,Simcolourproject_2stim_asymm_v5,2020.2.10,Win32,60,61025ae37ef11b136ea224fe,,,,,,,,,3139,26.00000992,-32.40000585,1,0,0,response3disk,,4,-2.399941671,-12.40000555,1,0,0,rectangle,-2.399941671,-12.40000555,1,0,0,-2.399941671,-12.40000555,1,0,0,0,72,72,88,1,,,,,,,,
,,,,,,,,,,,,,FF,,,,,,,,1.5291,,,,,,,,,,,,,,,,,,,,,,60ffbb189b5e539c9b0af149,61036edb954f3230411e1f1b,2021-07-29_23h16.11.213,Simcolourproject_2stim_asymm_v5,2020.2.10,Win32,60,61025ae37ef11b136ea224fe,,,,,,,,,973,-48.39994236,21.19997054,1,0,0,response7disk,,1,-8.799990594,5.599994719,1,0,0,rectangle,-8.799990594,5.599994719,1,0,0,-8.799990594,5.599994719,1,0,0,0,73,73,156,1,,,,,,,,
,,,,,,,,,,,,,FF,,,,,,,,1.3161,,,,,,,,,,,,,,,,,,,,,,60ffbb189b5e539c9b0af149,61036edb954f3230411e1f1b,2021-07-29_23h16.11.213,Simcolourproject_2stim_asymm_v5,2020.2.10,Win32,60,61025ae37ef11b136ea224fe,,,,,,,,,2221,39.60005895,22.79999498,1,0,0,response1disk,,6,12.00000972,4.799994707,1,0,0,rectangle,12.00000972,4.799994707,1,0,0,12.00000972,4.799994707,1,0,0,0,74,74,86,1,,,,,,,,
,,,,,,,,,,,,,FF,,,,,,,,0.9865,,,,,,,,,,,,,,,,,,,,,,60ffbb189b5e539c9b0af149,61036edb954f3230411e1f1b,2021-07-29_23h16.11.213,Simcolourproject_2stim_asymm_v5,2020.2.10,Win32,60,61025ae37ef11b136ea224fe,,,,,,,,,1494,37.20001009,17.19997048,1,0,0,response1disk,,6,8.800009668,1.999994665,1,0,0,rectangle,8.800009668,1.999994665,1,0,0,8.800009668,1.999994665,1,0,0,0,75,75,69,1,,,,,,,,
,,,,,,,,,,,,,FF,,,,,,,,0.9435,,,,,,,,,,,,,,,,,,,,,,60ffbb189b5e539c9b0af149,61036edb954f3230411e1f1b,2021-07-29_23h16.11.213,Simcolourproject_2stim_asymm_v5,2020.2.10,Win32,60,61025ae37ef11b136ea224fe,,,,,,,,,1489,32.80001003,20.79999495,1,0,0,response1disk,,6,9.600058508,6.799994737,1,0,0,rectangle,9.600058508,6.799994737,1,0,0,9.600058508,6.799994737,1,0,0,0,76,76,109,1,,,,,,,,
,,,,,,,,,,,,,FF,,,,,,,,1.9584,,,,,,,,,,,,,,,,,,,,,,60ffbb189b5e539c9b0af149,61036edb954f3230411e1f1b,2021-07-29_23h16.11.213,Simcolourproject_2stim_asymm_v5,2020.2.10,Win32,60,61025ae37ef11b136ea224fe,,,,,,,,,1317,46.80001023,-33.60000587,1,0,0,response3disk,,5,2.000009567,-1.600005388,1,0,0,rectangle,2.000009567,-1.600005388,1,0,0,2.000009567,-1.600005388,1,0,0,0,77,77,33,1,,,,,,,,
,,,,,,,,,,,,,FF,,,,,,,,2.278,,,,,,,,,,,,,,,,,,,,,,60ffbb189b5e539c9b0af149,61036edb954f3230411e1f1b,2021-07-29_23h16.11.213,Simcolourproject_2stim_asymm_v5,2020.2.10,Win32,60,61025ae37ef11b136ea224fe,,,,,,,,,3026,23.20000988,44.7999953,1,0,0,response1disk,,7,8.000009656,11.99999481,1,0,0,rectangle,8.000009656,11.99999481,1,0,0,8.000009656,11.99999481,1,0,0,0,78,78,133,1,,,,,,,,
,,,,,,,,,,,,,FF,,,,,,,,1.7917,,,,,,,,,,,,,,,,,,,,,,60ffbb189b5e539c9b0af149,61036edb954f3230411e1f1b,2021-07-29_23h16.11.213,Simcolourproject_2stim_asymm_v5,2020.2.10,Win32,60,61025ae37ef11b136ea224fe,,,,,,,,,2300,-37.19999102,-69.2000064,1,0,0,response5disk,,3,-1.999990493,-5.600005448,1,0,0,rectangle,-1.999990493,-5.600005448,1,0,0,-1.999990493,-5.600005448,1,0,0,0,79,79,25,1,,,,,,,,
,,,,,,,,,,,,,FF,,,,,,,,4.8704,,,,,,,,,,,,,,,,,,,,,,60ffbb189b5e539c9b0af149,61036edb954f3230411e1f1b,2021-07-29_23h16.11.213,Simcolourproject_2stim_asymm_v5,2020.2.10,Win32,60,61025ae37ef11b136ea224fe,,,,,,,,,107,35.20001006,15.99999487,1,0,0,response1disk,,6,16.80000979,5.999994725,1,0,0,rectangle,16.80000979,5.999994725,1,0,0,16.80000979,5.999994725,1,0,0,0,80,80,90,1,,,,,,,,
,,,,,,,,,,,,,FF,,,,,,,,1.1504,,,,,,,,,,,,,,,,,,,,,,60ffbb189b5e539c9b0af149,61036edb954f3230411e1f1b,2021-07-29_23h16.11.213,Simcolourproject_2stim_asymm_v5,2020.2.10,Win32,60,61025ae37ef11b136ea224fe,,,,,,,,,2635,40.40001014,30.39999509,1,0,0,response1disk,,6,6.000009626,8.399994761,1,0,0,rectangle,6.000009626,8.399994761,1,0,0,6.000009626,8.399994761,1,0,0,0,81,81,139,1,,,,,,,,
,,,,,,,,,,,,,FF,,,,,,,,1.2843,,,,,,,,,,,,,,,,,,,,,,60ffbb189b5e539c9b0af149,61036edb954f3230411e1f1b,2021-07-29_23h16.11.213,Simcolourproject_2stim_asymm_v5,2020.2.10,Win32,60,61025ae37ef11b136ea224fe,,,,,,,,,1331,36.00001007,29.59999508,1,0,0,response1disk,,6,8.400009662,8.799994767,1,0,0,rectangle,8.400009662,8.799994767,1,0,0,8.400009662,8.799994767,1,0,0,0,82,82,72,1,,,,,,,,
,,,,,,,,,,,,,FF,,,,,,,,1.5487,,,,,,,,,,,,,,,,,,,,,,60ffbb189b5e539c9b0af149,61036edb954f3230411e1f1b,2021-07-29_23h16.11.213,Simcolourproject_2stim_asymm_v5,2020.2.10,Win32,60,61025ae37ef11b136ea224fe,,,,,,,,,373,-23.99999082,-66.00000635,1,0,0,response5disk,,3,0.800009549,-5.200005442,1,0,0,rectangle,0.800009549,-5.200005442,1,0,0,0.800009549,-5.200005442,1,0,0,0,83,83,51,1,,,,,,,,
,,,,,,,,,,,,,FF,,,,,,,,1.5004,,,,,,,,,,,,,,,,,,,,,,60ffbb189b5e539c9b0af149,61036edb954f3230411e1f1b,2021-07-29_23h16.11.213,Simcolourproject_2stim_asymm_v5,2020.2.10,Win32,60,61025ae37ef11b136ea224fe,,,,,,,,,3820,32.40001002,-61.60000628,1,0,0,response3disk,,4,0.400009543,-4.000005424,1,0,0,rectangle,0.400009543,-4.000005424,1,0,0,0.400009543,-4.000005424,1,0,0,0,84,84,143,1,,,,,,,,
,,,,,,,,,,,,,FF,,,,,,,,1.5515,,,,,,,,,,,,,,,,,,,,,,60ffbb189b5e539c9b0af149,61036edb954f3230411e1f1b,2021-07-29_23h16.11.213,Simcolourproject_2stim_asymm_v5,2020.2.10,Win32,60,61025ae37ef11b136ea224fe,,,,,,,,,75,18.0000098,-40.40000597,1,0,0,response3disk,,4,-2.799990505,8.799994767,1,0,0,rectangle,-2.799990505,8.799994767,1,0,0,-2.799990505,8.799994767,1,0,0,0,85,85,18,1,,,,,,,,
,,,,,,,,,,,,,FF,,,,,,,,1.1369,,,,,,,,,,,,,,,,,,,,,,60ffbb189b5e539c9b0af149,61036edb954f3230411e1f1b,2021-07-29_23h16.11.213,Simcolourproject_2stim_asymm_v5,2020.2.10,Win32,60,61025ae37ef11b136ea224fe,,,,,,,,,193,17.20000979,-34.40000588,1,0,0,response3disk,,4,2.800009578,-4.80002985,1,0,0,rectangle,-25.99999085,-85.20000663,1,0,0,2.400009573,-4.80002985,1,0,0,0,86,86,142,1,,response5disk_3,TRUE,3,3,"[118,4,145,111,21,265,310,278,257,317,127,178,61,182,248,173,96,225,102,87]",2.5995,rectangle
,,,,,,,,,,,,,FF,,,,,,,,1.534,,,,,,,,,,,,,,,,,,,,,,60ffbb189b5e539c9b0af149,61036edb954f3230411e1f1b,2021-07-29_23h16.11.213,Simcolourproject_2stim_asymm_v5,2020.2.10,Win32,60,61025ae37ef11b136ea224fe,,,,,,,,,3135,22.00000986,49.19997095,1,0,0,response1disk,,7,-5.999990553,-11.60000554,1,0,0,rectangle,-5.999990553,-11.60000554,1,0,0,-5.999990553,-11.60000554,1,0,0,0,87,87,95,1,,,,,,,,
,,,,,,,,,,,,,FF,,,,,,,,1.9449,,,,,,,,,,,,,,,,,,,,,,60ffbb189b5e539c9b0af149,61036edb954f3230411e1f1b,2021-07-29_23h16.11.213,Simcolourproject_2stim_asymm_v5,2020.2.10,Win32,60,61025ae37ef11b136ea224fe,,,,,,,,,2630,34.40001005,20.79999495,1,0,0,response1disk,,6,-15.9999907,-13.20000556,1,0,0,rectangle,-15.9999907,-13.20000556,1,0,0,-15.9999907,-13.20000556,1,0,0,0,88,88,124,1,,,,,,,,
,,,,,,,,,,,,,FF,,,,,,,,2.3019,,,,,,,,,,,,,,,,,,,,,,60ffbb189b5e539c9b0af149,61036edb954f3230411e1f1b,2021-07-29_23h16.11.213,Simcolourproject_2stim_asymm_v5,2020.2.10,Win32,60,61025ae37ef11b136ea224fe,,,,,,,,,900,45.60005904,-36.80003033,1,0,0,response3disk,,5,0.400009543,3.999994695,1,0,0,rectangle,0.400009543,3.999994695,1,0,0,0.400009543,3.999994695,1,0,0,0,89,89,97,1,,,,,,,,
,,,,,,,,,,,,,FF,,,,,,,,1.9709,,,,,,,,,,,,,,,,,,,,,,60ffbb189b5e539c9b0af149,61036edb954f3230411e1f1b,2021-07-29_23h16.11.213,Simcolourproject_2stim_asymm_v5,2020.2.10,Win32,60,61025ae37ef11b136ea224fe,,,,,,,,,376,-27.59999087,-42.00000599,1,0,0,response5disk,,3,1.200009555,5.999994725,1,0,0,rectangle,1.200009555,5.999994725,1,0,0,1.200009555,5.999994725,1,0,0,0,90,90,137,1,,,,,,,,
,,,,,,,,,,,,,FF,,,,,,,,1.3937,,,,,,,,,,,,,,,,,,,,,,60ffbb189b5e539c9b0af149,61036edb954f3230411e1f1b,2021-07-29_23h16.11.213,Simcolourproject_2stim_asymm_v5,2020.2.10,Win32,60,61025ae37ef11b136ea224fe,,,,,,,,,3637,-45.19999114,22.79999498,1,0,0,response7disk,,1,-17.59999073,-5.36442E-06,1,0,0,rectangle,-17.59999073,-5.36442E-06,1,0,0,-17.59999073,-5.36442E-06,1,0,0,0,91,91,37,1,,,,,,,,
,,,,,,,,,,,,,FF,,,,,,,,1.0149,,,,,,,,,,,,,,,,,,,,,,60ffbb189b5e539c9b0af149,61036edb954f3230411e1f1b,2021-07-29_23h16.11.213,Simcolourproject_2stim_asymm_v5,2020.2.10,Win32,60,61025ae37ef11b136ea224fe,,,,,,,,,2134,25.20000991,55.59999546,1,0,0,response1disk,,7,3.200009584,7.999994755,1,0,0,rectangle,3.200009584,7.999994755,1,0,0,3.200009584,7.999994755,1,0,0,0,92,92,100,1,,,,,,,,
,,,,,,,,,,,,,FF,,,,,,,,2.37,,,,,,,,,,,,,,,,,,,,,,60ffbb189b5e539c9b0af149,61036edb954f3230411e1f1b,2021-07-29_23h16.11.213,Simcolourproject_2stim_asymm_v5,2020.2.10,Win32,60,61025ae37ef11b136ea224fe,,,,,,,,,1314,44.8000102,-20.00000566,1,0,0,response3disk,,5,-4.799990535,11.99999481,1,0,0,rectangle,-4.799990535,11.99999481,1,0,0,-4.799990535,11.99999481,1,0,0,0,93,93,4,1,,,,,,,,
,,,,,,,,,,,,,FF,,,,,,,,1.2668,,,,,,,,,,,,,,,,,,,,,,60ffbb189b5e539c9b0af149,61036edb954f3230411e1f1b,2021-07-29_23h16.11.213,Simcolourproject_2stim_asymm_v5,2020.2.10,Win32,60,61025ae37ef11b136ea224fe,,,,,,,,,2540,47.60005907,-26.40000576,1,0,0,response3disk,,5,6.800009638,-1.600005388,1,0,0,rectangle,6.800009638,-1.600005388,1,0,0,6.800009638,-1.600005388,1,0,0,0,94,94,31,1,,,,,,,,
,,,,,,,,,,,,,FF,,,,,,,,1.6179,,,,,,,,,,,,,,,,,,,,,,60ffbb189b5e539c9b0af149,61036edb954f3230411e1f1b,2021-07-29_23h16.11.213,Simcolourproject_2stim_asymm_v5,2020.2.10,Win32,60,61025ae37ef11b136ea224fe,,,,,,,,,1397,18.40000981,-47.20000607,1,0,0,response3disk,,4,-12.79999065,2.799994677,1,0,0,rectangle,-63.19999141,-18.80003006,1,0,0,-19.19999075,-6.000005454,1,0,0,0,95,95,8,1,,response5disk_3,TRUE,2,2,"[118,4,145,111,21,265,310,278,257,317,127,178,61,182,248,173,96,225,102,87]",1.8523,rectangle
,,,,,,,,,,,,,FF,,,,,,,,1.3505,,,,,,,,,,,,,,,,,,,,,,60ffbb189b5e539c9b0af149,61036edb954f3230411e1f1b,2021-07-29_23h16.11.213,Simcolourproject_2stim_asymm_v5,2020.2.10,Win32,60,61025ae37ef11b136ea224fe,,,,,,,,,4354,-46.79999116,-16.40000561,1,0,0,response5disk,,2,-11.19999063,-1.600005388,1,0,0,rectangle,-11.19999063,-1.600005388,1,0,0,-11.19999063,-1.600005388,1,0,0,0,96,96,71,1,,,,,,,,
,,,,,,,,,,,,,FF,,,,,,,,2.3599,,,,,,,,,,,,,,,,,,,,,,60ffbb189b5e539c9b0af149,61036edb954f3230411e1f1b,2021-07-29_23h16.11.213,Simcolourproject_2stim_asymm_v5,2020.2.10,Win32,60,61025ae37ef11b136ea224fe,,,,,,,,,995,33.20001003,-19.20000565,1,0,0,response3disk,,5,-9.599990606,5.199970299,1,0,0,rectangle,-9.599990606,5.199970299,1,0,0,-9.599990606,5.199970299,1,0,0,0,97,97,144,1,,,,,,,,
,,,,,,,,,,,,,FF,,,,,,,,1.4839,,,,,,,,,,,,,,,,,,,,,,60ffbb189b5e539c9b0af149,61036edb954f3230411e1f1b,2021-07-29_23h16.11.213,Simcolourproject_2stim_asymm_v5,2020.2.10,Win32,60,61025ae37ef11b136ea224fe,,,,,,,,,4196,-28.39994206,-54.40000618,1,0,0,response5disk,,3,9.53674E-06,-8.80002991,1,0,0,rectangle,9.53674E-06,-8.80002991,1,0,0,9.53674E-06,-8.80002991,1,0,0,0,98,98,85,1,,,,,,,,
,,,,,,,,,,,,,FF,,,,,,,,2.8166,,,,,,,,,,,,,,,,,,,,,,60ffbb189b5e539c9b0af149,61036edb954f3230411e1f1b,2021-07-29_23h16.11.213,Simcolourproject_2stim_asymm_v5,2020.2.10,Win32,60,61025ae37ef11b136ea224fe,,,,,,,,,2552,62.40001047,17.19997048,1,0,0,response1disk,,6,28.40000996,7.999994755,1,0,0,rectangle,28.40000996,7.999994755,1,0,0,28.40000996,7.999994755,1,0,0,0,99,99,73,1,,,,,,,,
,,,,,,,,,,,,,FF,,,,,,,,1.8179,,,,,,,,,,,,,,,,,,,,,,60ffbb189b5e539c9b0af149,61036edb954f3230411e1f1b,2021-07-29_23h16.11.213,Simcolourproject_2stim_asymm_v5,2020.2.10,Win32,60,61025ae37ef11b136ea224fe,,,,,,,,,3381,-23.19999081,53.99999544,1,0,0,response7disk,,0,-11.99999064,10.39999479,1,0,0,rectangle,-11.99999064,10.39999479,1,0,0,-11.99999064,10.39999479,1,0,0,0,100,100,126,1,,,,,,,,
,,,,,,,,,,,,,FF,,,,,,,,0.9669,,,,,,,,,,,,,,,,,,,,,,60ffbb189b5e539c9b0af149,61036edb954f3230411e1f1b,2021-07-29_23h16.11.213,Simcolourproject_2stim_asymm_v5,2020.2.10,Win32,60,61025ae37ef11b136ea224fe,,,,,,,,,2226,-22.7999908,45.59999532,1,0,0,response7disk,,0,-13.19999066,9.999994785,1,0,0,rectangle,44.8000102,-87.60000667,1,0,0,-6.799990565,5.599994719,1,0,0,0,101,101,63,1,,response3disk_3,TRUE,4,4,"[118,4,145,111,21,265,310,278,257,317,127,178,61,182,248,173,96,225,102,87]",2.3106,rectangle
,,,,,,,,,,,,,FF,,,,,,,,1.0557,,,,,,,,,,,,,,,,,,,,,,60ffbb189b5e539c9b0af149,61036edb954f3230411e1f1b,2021-07-29_23h16.11.213,Simcolourproject_2stim_asymm_v5,2020.2.10,Win32,60,61025ae37ef11b136ea224fe,,,,,,,,,4362,-31.19999093,47.59999534,1,0,0,response7disk,,0,-20.39994194,8.399994761,1,0,0,rectangle,-20.39994194,8.399994761,1,0,0,-20.39994194,8.399994761,1,0,0,0,102,102,49,1,,,,,,,,
,,,,,,,,,,,,,FF,,,,,,,,0.8344,,,,,,,,,,,,,,,,,,,,,,60ffbb189b5e539c9b0af149,61036edb954f3230411e1f1b,2021-07-29_23h16.11.213,Simcolourproject_2stim_asymm_v5,2020.2.10,Win32,60,61025ae37ef11b136ea224fe,,,,,,,,,1815,-28.39994206,43.59999529,1,0,0,response7disk,,0,-14.79999068,9.999994785,1,0,0,rectangle,-14.79999068,9.999994785,1,0,0,-14.79999068,9.999994785,1,0,0,0,103,103,96,1,,,,,,,,
,,,,,,,,,,,,,FF,,,,,,,,1.3436,,,,,,,,,,,,,,,,,,,,,,60ffbb189b5e539c9b0af149,61036edb954f3230411e1f1b,2021-07-29_23h16.11.213,Simcolourproject_2stim_asymm_v5,2020.2.10,Win32,60,61025ae37ef11b136ea224fe,,,,,,,,,3592,-50.79999122,-20.40000567,1,0,0,response5disk,,2,-1.999990493,5.199970299,1,0,0,rectangle,-1.999990493,5.199970299,1,0,0,-1.999990493,5.199970299,1,0,0,0,104,104,9,1,,,,,,,,
,,,,,,,,,,,,,FF,,,,,,,,1.0683,,,,,,,,,,,,,,,,,,,,,,60ffbb189b5e539c9b0af149,61036edb954f3230411e1f1b,2021-07-29_23h16.11.213,Simcolourproject_2stim_asymm_v5,2020.2.10,Win32,60,61025ae37ef11b136ea224fe,,,,,,,,,299,19.20000982,40.39999524,1,0,0,response1disk,,7,7.600058478,10.39999479,1,0,0,rectangle,7.600058478,10.39999479,1,0,0,7.600058478,10.39999479,1,0,0,0,105,105,27,1,,,,,,,,
,,,,,,,,,,,,,FF,,,,,,,,1.3345,,,,,,,,,,,,,,,,,,,,,,60ffbb189b5e539c9b0af149,61036edb954f3230411e1f1b,2021-07-29_23h16.11.213,Simcolourproject_2stim_asymm_v5,2020.2.10,Win32,60,61025ae37ef11b136ea224fe,,,,,,,,,1394,34.40001005,16.79999489,1,0,0,response1disk,,6,8.400009662,-2.4000054,1,0,0,rectangle,8.400009662,-2.4000054,1,0,0,8.400009662,-2.4000054,1,0,0,0,106,106,91,1,,,,,,,,
,,,,,,,,,,,,,FF,,,,,,,,1.0902,,,,,,,,,,,,,,,,,,,,,,60ffbb189b5e539c9b0af149,61036edb954f3230411e1f1b,2021-07-29_23h16.11.213,Simcolourproject_2stim_asymm_v5,2020.2.10,Win32,60,61025ae37ef11b136ea224fe,,,,,,,,,403,30.00000998,48.79999536,1,0,0,response1disk,,7,7.200009644,6.799994737,1,0,0,rectangle,7.200009644,6.799994737,1,0,0,7.200009644,6.799994737,1,0,0,0,107,107,44,1,,,,,,,,
,,,,,,,,,,,,,FF,,,,,,,,0.8604,,,,,,,,,,,,,,,,,,,,,,60ffbb189b5e539c9b0af149,61036edb954f3230411e1f1b,2021-07-29_23h16.11.213,Simcolourproject_2stim_asymm_v5,2020.2.10,Win32,60,61025ae37ef11b136ea224fe,,,,,,,,,2571,17.60005863,44.3999953,1,0,0,response1disk,,7,0.400009543,11.59999481,1,0,0,rectangle,0.400009543,11.59999481,1,0,0,0.400009543,11.59999481,1,0,0,0,108,108,1,1,,,,,,,,
,,,,,,,,,,,,,FF,,,,,,,,1.4957,,,,,,,,,,,,,,,,,,,,,,60ffbb189b5e539c9b0af149,61036edb954f3230411e1f1b,2021-07-29_23h16.11.213,Simcolourproject_2stim_asymm_v5,2020.2.10,Win32,60,61025ae37ef11b136ea224fe,,,,,,,,,681,30.80001,15.59999487,1,0,0,response1disk,,6,8.000009656,4.399994701,1,0,0,rectangle,8.000009656,4.399994701,1,0,0,8.000009656,4.399994701,1,0,0,0,109,109,119,1,,,,,,,,
,,,,,,,,,,,,,FF,,,,,,,,1.3898,,,,,,,,,,,,,,,,,,,,,,60ffbb189b5e539c9b0af149,61036edb954f3230411e1f1b,2021-07-29_23h16.11.213,Simcolourproject_2stim_asymm_v5,2020.2.10,Win32,60,61025ae37ef11b136ea224fe,,,,,,,,,2372,30.80001,21.59999496,1,0,0,response1disk,,6,7.200009644,7.999994755,1,0,0,rectangle,55.20001036,16.79999489,1,0,0,10.00000969,1.199970239,1,0,0,0,110,110,78,1,,response1disk_3,TRUE,6,6,"[118,4,145,111,21,265,310,278,257,317,127,178,61,182,248,173,96,225,102,87]",2.6998,rectangle
,,,,,,,,,,,,,FF,,,,,,,,1.4352,,,,,,,,,,,,,,,,,,,,,,60ffbb189b5e539c9b0af149,61036edb954f3230411e1f1b,2021-07-29_23h16.11.213,Simcolourproject_2stim_asymm_v5,2020.2.10,Win32,60,61025ae37ef11b136ea224fe,,,,,,,,,1990,49.20001027,65.19997119,1,0,0,response1disk,,7,12.80000973,-2.80002982,1,0,0,rectangle,12.80000973,-2.80002982,1,0,0,12.80000973,-2.80002982,1,0,0,0,111,111,129,1,,,,,,,,
,,,,,,,,,,,,,FF,,,,,,,,2.6924,,,,,,,,,,,,,,,,,,,,,,60ffbb189b5e539c9b0af149,61036edb954f3230411e1f1b,2021-07-29_23h16.11.213,Simcolourproject_2stim_asymm_v5,2020.2.10,Win32,60,61025ae37ef11b136ea224fe,,,,,,,,,4178,40.40001014,30.79999509,1,0,0,response1disk,,6,1.600058389,-4.000005424,1,0,0,rectangle,1.600058389,-4.000005424,1,0,0,1.600058389,-4.000005424,1,0,0,0,112,112,75,1,,,,,,,,
,,,,,,,,,,,,,FF,,,,,,,,2.2664,,,,,,,,,,,,,,,,,,,,,,60ffbb189b5e539c9b0af149,61036edb954f3230411e1f1b,2021-07-29_23h16.11.213,Simcolourproject_2stim_asymm_v5,2020.2.10,Win32,60,61025ae37ef11b136ea224fe,,,,,,,,,2920,31.60005884,54.39999545,1,0,0,response1disk,,7,2.400009573,9.999994785,1,0,0,rectangle,2.400009573,9.999994785,1,0,0,2.400009573,9.999994785,1,0,0,0,113,113,89,1,,,,,,,,
,,,,,,,,,,,,,FF,,,,,,,,1.3654,,,,,,,,,,,,,,,,,,,,,,60ffbb189b5e539c9b0af149,61036edb954f3230411e1f1b,2021-07-29_23h16.11.213,Simcolourproject_2stim_asymm_v5,2020.2.10,Win32,60,61025ae37ef11b136ea224fe,,,,,,,,,785,40.40001014,-27.60000578,1,0,0,response3disk,,5,-4.799990535,11.59999481,1,0,0,rectangle,-4.799990535,11.59999481,1,0,0,-4.799990535,11.59999481,1,0,0,0,114,114,117,1,,,,,,,,
,,,,,,,,,,,,,FF,,,,,,,,1.3088,,,,,,,,,,,,,,,,,,,,,,60ffbb189b5e539c9b0af149,61036edb954f3230411e1f1b,2021-07-29_23h16.11.213,Simcolourproject_2stim_asymm_v5,2020.2.10,Win32,60,61025ae37ef11b136ea224fe,,,,,,,,,1028,35.20001006,-19.20000565,1,0,0,response3disk,,5,-5.199990541,0.399994642,1,0,0,rectangle,-5.199990541,0.399994642,1,0,0,-5.199990541,0.399994642,1,0,0,0,115,115,141,1,,,,,,,,
,,,,,,,,,,,,,FF,,,,,,,,0.9507,,,,,,,,,,,,,,,,,,,,,,60ffbb189b5e539c9b0af149,61036edb954f3230411e1f1b,2021-07-29_23h16.11.213,Simcolourproject_2stim_asymm_v5,2020.2.10,Win32,60,61025ae37ef11b136ea224fe,,,,,,,,,2618,28.80000997,24.399995,1,0,0,response1disk,,6,6.800009638,6.799994737,1,0,0,rectangle,6.800009638,6.799994737,1,0,0,6.800009638,6.799994737,1,0,0,0,116,116,3,1,,,,,,,,
,,,,,,,,,,,,,FF,,,,,,,,1.0456,,,,,,,,,,,,,,,,,,,,,,60ffbb189b5e539c9b0af149,61036edb954f3230411e1f1b,2021-07-29_23h16.11.213,Simcolourproject_2stim_asymm_v5,2020.2.10,Win32,60,61025ae37ef11b136ea224fe,,,,,,,,,3109,30.00000998,17.5999949,1,0,0,response1disk,,6,1.200009555,5.199970299,1,0,0,rectangle,16.40000978,-37.20000592,1,0,0,7.600058478,1.599994659,1,0,0,0,117,117,82,1,,response3disk_3,TRUE,4,4,"[118,4,145,111,21,265,310,278,257,317,127,178,61,182,248,173,96,225,102,87]",2.1428,rectangle
,,,,,,,,,,,,,FF,,,,,,,,1.5344,,,,,,,,,,,,,,,,,,,,,,60ffbb189b5e539c9b0af149,61036edb954f3230411e1f1b,2021-07-29_23h16.11.213,Simcolourproject_2stim_asymm_v5,2020.2.10,Win32,60,61025ae37ef11b136ea224fe,,,,,,,,,2375,33.20001003,22.39999497,1,0,0,response1disk,,6,11.60005854,2.399994671,1,0,0,rectangle,11.60005854,2.399994671,1,0,0,11.60005854,2.399994671,1,0,0,0,118,118,52,1,,,,,,,,
,,,,,,,,,,,,,FF,,,,,,,,1.2621,,,,,,,,,,,,,,,,,,,,,,60ffbb189b5e539c9b0af149,61036edb954f3230411e1f1b,2021-07-29_23h16.11.213,Simcolourproject_2stim_asymm_v5,2020.2.10,Win32,60,61025ae37ef11b136ea224fe,,,,,,,,,3956,23.20000988,44.7999953,1,0,0,response1disk,,7,4.000009596,10.39999479,1,0,0,rectangle,4.000009596,10.39999479,1,0,0,4.000009596,10.39999479,1,0,0,0,119,119,98,1,,,,,,,,
,,,,,,,,,,,,,FF,,,,,,,,1.3952,,,,,,,,,,,,,,,,,,,,,,60ffbb189b5e539c9b0af149,61036edb954f3230411e1f1b,2021-07-29_23h16.11.213,Simcolourproject_2stim_asymm_v5,2020.2.10,Win32,60,61025ae37ef11b136ea224fe,,,,,,,,,2000,23.20000988,18.39999491,1,0,0,response1disk,,6,-1.999990493,6.399994731,1,0,0,rectangle,-1.999990493,6.399994731,1,0,0,-1.999990493,6.399994731,1,0,0,0,120,120,118,1,,,,,,,,
,,,,,,,,,,,,,FF,,,,,,,,1.2505,,,,,,,,,,,,,,,,,,,,,,60ffbb189b5e539c9b0af149,61036edb954f3230411e1f1b,2021-07-29_23h16.11.213,Simcolourproject_2stim_asymm_v5,2020.2.10,Win32,60,61025ae37ef11b136ea224fe,,,,,,,,,1197,-51.59999123,-25.60000575,1,0,0,response5disk,,2,-5.599990547,-2.4000054,1,0,0,rectangle,-5.599990547,-2.4000054,1,0,0,-5.599990547,-2.4000054,1,0,0,0,121,121,42,1,,,,,,,,
,,,,,,,,,,,,,FF,,,,,,,,1.0504,,,,,,,,,,,,,,,,,,,,,,60ffbb189b5e539c9b0af149,61036edb954f3230411e1f1b,2021-07-29_23h16.11.213,Simcolourproject_2stim_asymm_v5,2020.2.10,Win32,60,61025ae37ef11b136ea224fe,,,,,,,,,4339,-51.19999123,-14.00000557,1,0,0,response5disk,,2,-6.39994173,3.199970269,1,0,0,rectangle,-6.39994173,3.199970269,1,0,0,-6.39994173,3.199970269,1,0,0,0,122,122,45,1,,,,,,,,
,,,,,,,,,,,,,FF,,,,,,,,1.0264,,,,,,,,,,,,,,,,,,,,,,60ffbb189b5e539c9b0af149,61036edb954f3230411e1f1b,2021-07-29_23h16.11.213,Simcolourproject_2stim_asymm_v5,2020.2.10,Win32,60,61025ae37ef11b136ea224fe,,,,,,,,,1732,20.00000983,37.19997078,1,0,0,response1disk,,7,-2.799990505,2.799994677,1,0,0,rectangle,-2.799990505,2.799994677,1,0,0,-2.799990505,2.799994677,1,0,0,0,123,123,104,1,,,,,,,,
,,,,,,,,,,,,,FF,,,,,,,,1.4195,,,,,,,,,,,,,,,,,,,,,,60ffbb189b5e539c9b0af149,61036edb954f3230411e1f1b,2021-07-29_23h16.11.213,Simcolourproject_2stim_asymm_v5,2020.2.10,Win32,60,61025ae37ef11b136ea224fe,,,,,,,,,3744,-45.99999115,19.59999493,1,0,0,response7disk,,1,-9.1999906,3.999994695,1,0,0,rectangle,-9.1999906,3.999994695,1,0,0,-9.1999906,3.999994695,1,0,0,0,124,124,74,1,,,,,,,,
,,,,,,,,,,,,,FF,,,,,,,,1.4286,,,,,,,,,,,,,,,,,,,,,,60ffbb189b5e539c9b0af149,61036edb954f3230411e1f1b,2021-07-29_23h16.11.213,Simcolourproject_2stim_asymm_v5,2020.2.10,Win32,60,61025ae37ef11b136ea224fe,,,,,,,,,1279,18.40000981,43.59999529,1,0,0,response1disk,,7,3.600058419,13.19997042,1,0,0,rectangle,3.600058419,13.19997042,1,0,0,3.600058419,13.19997042,1,0,0,0,125,125,56,1,,,,,,,,
,,,,,,,,,,,,,FF,,,,,,,,1.1675,,,,,,,,,,,,,,,,,,,,,,60ffbb189b5e539c9b0af149,61036edb954f3230411e1f1b,2021-07-29_23h16.11.213,Simcolourproject_2stim_asymm_v5,2020.2.10,Win32,60,61025ae37ef11b136ea224fe,,,,,,,,,2792,32.00001001,21.19997054,1,0,0,response1disk,,6,-3.599990517,3.199970269,1,0,0,rectangle,-43.59999111,22.79999498,1,0,0,-14.39994185,8.399994761,1,0,0,0,126,126,46,1,,response7disk_3,TRUE,1,1,"[118,4,145,111,21,265,310,278,257,317,127,178,61,182,248,173,96,225,102,87]",1.5501,rectangle
,,,,,,,,,,,,,FF,,,,,,,,1.4634,,,,,,,,,,,,,,,,,,,,,,60ffbb189b5e539c9b0af149,61036edb954f3230411e1f1b,2021-07-29_23h16.11.213,Simcolourproject_2stim_asymm_v5,2020.2.10,Win32,60,61025ae37ef11b136ea224fe,,,,,,,,,1439,-35.59999099,-47.20000607,1,0,0,response5disk,,3,-2.399941671,2.799994677,1,0,0,rectangle,-2.399941671,2.799994677,1,0,0,-2.399941671,2.799994677,1,0,0,0,127,127,19,1,,,,,,,,
,,,,,,,,,,,,,FF,,,,,,,,1.3179,,,,,,,,,,,,,,,,,,,,,,60ffbb189b5e539c9b0af149,61036edb954f3230411e1f1b,2021-07-29_23h16.11.213,Simcolourproject_2stim_asymm_v5,2020.2.10,Win32,60,61025ae37ef11b136ea224fe,,,,,,,,,3618,-17.99999073,-33.20000586,1,0,0,response5disk,,3,1.200009555,8.399994761,1,0,0,rectangle,1.200009555,8.399994761,1,0,0,1.200009555,8.399994761,1,0,0,0,128,128,11,1,,,,,,,,
,,,,,,,,,,,,,FF,,,,,,,,2.6882,,,,,,,,,,,,,,,,,,,,,,60ffbb189b5e539c9b0af149,61036edb954f3230411e1f1b,2021-07-29_23h16.11.213,Simcolourproject_2stim_asymm_v5,2020.2.10,Win32,60,61025ae37ef11b136ea224fe,,,,,,,,,4082,46.40001023,21.59999496,1,0,0,response1disk,,6,-7.199990571,11.19997039,1,0,0,rectangle,-7.199990571,11.19997039,1,0,0,-7.199990571,11.19997039,1,0,0,0,129,129,99,1,,,,,,,,
,,,,,,,,,,,,,FF,,,,,,,,1.7506,,,,,,,,,,,,,,,,,,,,,,60ffbb189b5e539c9b0af149,61036edb954f3230411e1f1b,2021-07-29_23h16.11.213,Simcolourproject_2stim_asymm_v5,2020.2.10,Win32,60,61025ae37ef11b136ea224fe,,,,,,,,,4159,31.60005884,26.39999503,1,0,0,response1disk,,6,-2.799990505,0.799994648,1,0,0,rectangle,-2.799990505,0.799994648,1,0,0,-2.799990505,0.799994648,1,0,0,0,130,130,83,1,,,,,,,,
,,,,,,,,,,,,,FF,,,,,,,,4.2586,,,,,,,,,,,,,,,,,,,,,,60ffbb189b5e539c9b0af149,61036edb954f3230411e1f1b,2021-07-29_23h16.11.213,Simcolourproject_2stim_asymm_v5,2020.2.10,Win32,60,61025ae37ef11b136ea224fe,,,,,,,,,3793,-38.79999104,-24.40000573,1,0,0,response5disk,,2,9.200009674,13.19997042,1,0,0,rectangle,9.200009674,13.19997042,1,0,0,9.200009674,13.19997042,1,0,0,0,131,131,92,1,,,,,,,,
,,,,,,,,,,,,,FF,,,,,,,,2.5564,,,,,,,,,,,,,,,,,,,,,,60ffbb189b5e539c9b0af149,61036edb954f3230411e1f1b,2021-07-29_23h16.11.213,Simcolourproject_2stim_asymm_v5,2020.2.10,Win32,60,61025ae37ef11b136ea224fe,,,,,,,,,3627,-40.79999107,-21.60000569,1,0,0,response5disk,,2,-19.99999076,-5.36442E-06,1,0,0,rectangle,-19.99999076,-5.36442E-06,1,0,0,-19.99999076,-5.36442E-06,1,0,0,0,132,132,138,1,,,,,,,,
,,,,,,,,,,,,,FF,,,,,,,,1.4241,,,,,,,,,,,,,,,,,,,,,,60ffbb189b5e539c9b0af149,61036edb954f3230411e1f1b,2021-07-29_23h16.11.213,Simcolourproject_2stim_asymm_v5,2020.2.10,Win32,60,61025ae37ef11b136ea224fe,,,,,,,,,4045,38.0000101,23.59999499,1,0,0,response1disk,,6,2.400009573,6.799994737,1,0,0,rectangle,2.400009573,6.799994737,1,0,0,2.400009573,6.799994737,1,0,0,0,133,133,128,1,,,,,,,,
,,,,,,,,,,,,,FF,,,,,,,,3.7245,,,,,,,,,,,,,,,,,,,,,,60ffbb189b5e539c9b0af149,61036edb954f3230411e1f1b,2021-07-29_23h16.11.213,Simcolourproject_2stim_asymm_v5,2020.2.10,Win32,60,61025ae37ef11b136ea224fe,,,,,,,,,752,38.40001011,-16.0000056,1,0,0,response3disk,,5,14.40000975,-4.80002985,1,0,0,rectangle,14.40000975,-4.80002985,1,0,0,14.40000975,-4.80002985,1,0,0,0,134,134,76,1,,,,,,,,
,,,,,,,,,,,,,FF,,,,,,,,1.1841,,,,,,,,,,,,,,,,,,,,,,60ffbb189b5e539c9b0af149,61036edb954f3230411e1f1b,2021-07-29_23h16.11.213,Simcolourproject_2stim_asymm_v5,2020.2.10,Win32,60,61025ae37ef11b136ea224fe,,,,,,,,,2724,58.80001041,19.99999493,1,0,0,response1disk,,6,-1.999990493,-1.600005388,1,0,0,rectangle,-1.999990493,-1.600005388,1,0,0,-1.999990493,-1.600005388,1,0,0,0,135,135,123,1,,,,,,,,
,,,,,,,,,,,,,FF,,,,,,,,0.9106,,,,,,,,,,,,,,,,,,,,,,60ffbb189b5e539c9b0af149,61036edb954f3230411e1f1b,2021-07-29_23h16.11.213,Simcolourproject_2stim_asymm_v5,2020.2.10,Win32,60,61025ae37ef11b136ea224fe,,,,,,,,,4140,-28.39994206,53.59999543,1,0,0,response7disk,,0,-15.19999069,7.999994755,1,0,0,rectangle,-15.19999069,7.999994755,1,0,0,-15.19999069,7.999994755,1,0,0,0,136,136,106,1,,,,,,,,
,,,,,,,,,,,,,FF,,,,,,,,1.1008,,,,,,,,,,,,,,,,,,,,,,60ffbb189b5e539c9b0af149,61036edb954f3230411e1f1b,2021-07-29_23h16.11.213,Simcolourproject_2stim_asymm_v5,2020.2.10,Win32,60,61025ae37ef11b136ea224fe,,,,,,,,,2566,24.4000099,37.9999952,1,0,0,response1disk,,7,4.000009596,11.99999481,1,0,0,rectangle,4.000009596,11.99999481,1,0,0,4.000009596,11.99999481,1,0,0,0,137,137,131,1,,,,,,,,
,,,,,,,,,,,,,FF,,,,,,,,1.2503,,,,,,,,,,,,,,,,,,,,,,60ffbb189b5e539c9b0af149,61036edb954f3230411e1f1b,2021-07-29_23h16.11.213,Simcolourproject_2stim_asymm_v5,2020.2.10,Win32,60,61025ae37ef11b136ea224fe,,,,,,,,,1158,26.40000993,20.39999494,1,0,0,response1disk,,6,-0.399941641,9.999994785,1,0,0,rectangle,-0.399941641,9.999994785,1,0,0,-0.399941641,9.999994785,1,0,0,0,138,138,21,1,,,,,,,,
,,,,,,,,,,,,,FF,,,,,,,,1.3505,,,,,,,,,,,,,,,,,,,,,,60ffbb189b5e539c9b0af149,61036edb954f3230411e1f1b,2021-07-29_23h16.11.213,Simcolourproject_2stim_asymm_v5,2020.2.10,Win32,60,61025ae37ef11b136ea224fe,,,,,,,,,2302,19.60005866,15.59999487,1,0,0,response1disk,,6,4.800009608,7.199970329,1,0,0,rectangle,4.800009608,7.199970329,1,0,0,4.800009608,7.199970329,1,0,0,0,139,139,150,1,,,,,,,,
,,,,,,,,,,,,,FF,,,,,,,,1.5512,,,,,,,,,,,,,,,,,,,,,,60ffbb189b5e539c9b0af149,61036edb954f3230411e1f1b,2021-07-29_23h16.11.213,Simcolourproject_2stim_asymm_v5,2020.2.10,Win32,60,61025ae37ef11b136ea224fe,,,,,,,,,2889,17.60005863,-29.60000581,1,0,0,response3disk,,4,-0.799990475,6.399994731,1,0,0,rectangle,-0.799990475,6.399994731,1,0,0,-0.799990475,6.399994731,1,0,0,0,140,140,154,1,,,,,,,,
,,,,,,,,,,,,,FF,,,,,,,,1.5002,,,,,,,,,,,,,,,,,,,,,,60ffbb189b5e539c9b0af149,61036edb954f3230411e1f1b,2021-07-29_23h16.11.213,Simcolourproject_2stim_asymm_v5,2020.2.10,Win32,60,61025ae37ef11b136ea224fe,,,,,,,,,2861,19.20000982,37.5999952,1,0,0,response1disk,,7,1.200009555,5.999994725,1,0,0,rectangle,1.200009555,5.999994725,1,0,0,1.200009555,5.999994725,1,0,0,0,141,141,148,1,,,,,,,,
,,,,,,,,,,,,,FF,,,,,,,,1.0171,,,,,,,,,,,,,,,,,,,,,,60ffbb189b5e539c9b0af149,61036edb954f3230411e1f1b,2021-07-29_23h16.11.213,Simcolourproject_2stim_asymm_v5,2020.2.10,Win32,60,61025ae37ef11b136ea224fe,,,,,,,,,359,18.40000981,31.99999511,1,0,0,response1disk,,7,4.000009596,9.599994779,1,0,0,rectangle,4.000009596,9.599994779,1,0,0,4.000009596,9.599994779,1,0,0,0,142,142,153,1,,,,,,,,
,,,,,,,,,,,,,FF,,,,,,,,1.1003,,,,,,,,,,,,,,,,,,,,,,60ffbb189b5e539c9b0af149,61036edb954f3230411e1f1b,2021-07-29_23h16.11.213,Simcolourproject_2stim_asymm_v5,2020.2.10,Win32,60,61025ae37ef11b136ea224fe,,,,,,,,,2887,-33.59999096,-23.20000571,1,0,0,response5disk,,2,-11.59999064,-10.40000552,1,0,0,rectangle,-11.59999064,-10.40000552,1,0,0,-11.59999064,-10.40000552,1,0,0,0,143,143,54,1,,,,,,,,
,,,,,,,,,,,,,FF,,,,,,,,1.384,,,,,,,,,,,,,,,,,,,,,,60ffbb189b5e539c9b0af149,61036edb954f3230411e1f1b,2021-07-29_23h16.11.213,Simcolourproject_2stim_asymm_v5,2020.2.10,Win32,60,61025ae37ef11b136ea224fe,,,,,,,,,3321,19.60005866,38.39999521,1,0,0,response1disk,,7,1.600058389,6.399994731,1,0,0,rectangle,-19.59999076,-54.80000618,1,0,0,2.400009573,11.19997039,1,0,0,0,144,144,13,1,,response5disk_3,TRUE,3,3,"[118,4,145,111,21,265,310,278,257,317,127,178,61,182,248,173,96,225,102,87]",2.0829,rectangle
,,,,,,,,,,,,,FF,,,,,,,,1.2199,,,,,,,,,,,,,,,,,,,,,,60ffbb189b5e539c9b0af149,61036edb954f3230411e1f1b,2021-07-29_23h16.11.213,Simcolourproject_2stim_asymm_v5,2020.2.10,Win32,60,61025ae37ef11b136ea224fe,,,,,,,,,4302,31.60005884,16.79999489,1,0,0,response1disk,,6,-2.399941671,11.59999481,1,0,0,rectangle,-2.399941671,11.59999481,1,0,0,-2.399941671,11.59999481,1,0,0,0,145,145,64,1,,,,,,,,
,,,,,,,,,,,,,FF,,,,,,,,1.1673,,,,,,,,,,,,,,,,,,,,,,60ffbb189b5e539c9b0af149,61036edb954f3230411e1f1b,2021-07-29_23h16.11.213,Simcolourproject_2stim_asymm_v5,2020.2.10,Win32,60,61025ae37ef11b136ea224fe,,,,,,,,,31,23.60005872,21.99999496,1,0,0,response1disk,,6,-9.999990612,5.199970299,1,0,0,rectangle,-9.999990612,5.199970299,1,0,0,-9.999990612,5.199970299,1,0,0,0,146,146,111,1,,,,,,,,
,,,,,,,,,,,,,FF,,,,,,,,1.5171,,,,,,,,,,,,,,,,,,,,,,60ffbb189b5e539c9b0af149,61036edb954f3230411e1f1b,2021-07-29_23h16.11.213,Simcolourproject_2stim_asymm_v5,2020.2.10,Win32,60,61025ae37ef11b136ea224fe,,,,,,,,,204,-47.99999118,-90.40000671,1,0,0,response5disk,,3,-1.199990481,5.999994725,1,0,0,rectangle,-1.199990481,5.999994725,1,0,0,-1.199990481,5.999994725,1,0,0,0,147,147,22,1,,,,,,,,
,,,,,,,,,,,,,FF,,,,,,,,2.0339,,,,,,,,,,,,,,,,,,,,,,60ffbb189b5e539c9b0af149,61036edb954f3230411e1f1b,2021-07-29_23h16.11.213,Simcolourproject_2stim_asymm_v5,2020.2.10,Win32,60,61025ae37ef11b136ea224fe,,,,,,,,,1965,-64.79999143,24.399995,1,0,0,response7disk,,1,-18.79999074,2.399994671,1,0,0,rectangle,-18.79999074,2.399994671,1,0,0,-18.79999074,2.399994671,1,0,0,0,148,148,60,1,,,,,,,,
,,,,,,,,,,,,,FF,,,,,,,,0.9846,,,,,,,,,,,,,,,,,,,,,,60ffbb189b5e539c9b0af149,61036edb954f3230411e1f1b,2021-07-29_23h16.11.213,Simcolourproject_2stim_asymm_v5,2020.2.10,Win32,60,61025ae37ef11b136ea224fe,,,,,,,,,2601,-41.99999109,72.39999571,1,0,0,response7disk,,0,-25.19999084,-0.40000537,1,0,0,rectangle,-25.19999084,-0.40000537,1,0,0,-25.19999084,-0.40000537,1,0,0,0,149,149,146,1,,,,,,,,
,,,,,,,,,,,,,FF,,,,,,,,2.168,,,,,,,,,,,,,,,,,,,,,,60ffbb189b5e539c9b0af149,61036edb954f3230411e1f1b,2021-07-29_23h16.11.213,Simcolourproject_2stim_asymm_v5,2020.2.10,Win32,60,61025ae37ef11b136ea224fe,,,,,,,,,4011,22.40000987,36.39999518,1,0,0,response1disk,,7,-1.999990493,5.599994719,1,0,0,rectangle,-1.999990493,5.599994719,1,0,0,-1.999990493,5.599994719,1,0,0,0,150,150,77,1,,,,,,,,
,,,,,,,,,,,,,FF,,,,,,,,2.7286,,,,,,,,,,,,,,,,,,,,,,60ffbb189b5e539c9b0af149,61036edb954f3230411e1f1b,2021-07-29_23h16.11.213,Simcolourproject_2stim_asymm_v5,2020.2.10,Win32,60,61025ae37ef11b136ea224fe,,,,,,,,,2270,37.20001009,15.19997045,1,0,0,response1disk,,6,-2.399941671,5.999994725,1,0,0,rectangle,-2.399941671,5.999994725,1,0,0,-2.399941671,5.999994725,1,0,0,0,151,151,58,1,,,,,,,,
,,,,,,,,,,,,,FF,,,,,,,,4.2514,,,,,,,,,,,,,,,,,,,,,,60ffbb189b5e539c9b0af149,61036edb954f3230411e1f1b,2021-07-29_23h16.11.213,Simcolourproject_2stim_asymm_v5,2020.2.10,Win32,60,61025ae37ef11b136ea224fe,,,,,,,,,2985,-16.39994188,-32.00000584,1,0,0,response5disk,,3,7.200009644,7.599994749,1,0,0,rectangle,7.200009644,7.599994749,1,0,0,7.200009644,7.599994749,1,0,0,0,152,152,16,1,,,,,,,,
,,,,,,,,,,,,,FF,,,,,,,,1.7949,,,,,,,,,,,,,,,,,,,,,,60ffbb189b5e539c9b0af149,61036edb954f3230411e1f1b,2021-07-29_23h16.11.213,Simcolourproject_2stim_asymm_v5,2020.2.10,Win32,60,61025ae37ef11b136ea224fe,,,,,,,,,3210,-24.79999083,-35.60000589,1,0,0,response5disk,,3,-5.599990547,3.599994689,1,0,0,rectangle,-5.599990547,3.599994689,1,0,0,-5.599990547,3.599994689,1,0,0,0,153,153,120,1,,,,,,,,
,,,,,,,,,,,,,FF,,,,,,,,1.5083,,,,,,,,,,,,,,,,,,,,,,60ffbb189b5e539c9b0af149,61036edb954f3230411e1f1b,2021-07-29_23h16.11.213,Simcolourproject_2stim_asymm_v5,2020.2.10,Win32,60,61025ae37ef11b136ea224fe,,,,,,,,,971,-23.59999081,-33.20000586,1,0,0,response5disk,,3,-4.799990535,-2.4000054,1,0,0,rectangle,-4.799990535,-2.4000054,1,0,0,-4.799990535,-2.4000054,1,0,0,0,154,154,20,1,,,,,,,,
,,,,,,,,,,,,,FF,,,,,,,,1.7374,,,,,,,,,,,,,,,,,,,,,,60ffbb189b5e539c9b0af149,61036edb954f3230411e1f1b,2021-07-29_23h16.11.213,Simcolourproject_2stim_asymm_v5,2020.2.10,Win32,60,61025ae37ef11b136ea224fe,,,,,,,,,4275,47.60005907,-31.20000583,1,0,0,response3disk,,5,9.200009674,7.599994749,1,0,0,rectangle,9.200009674,7.599994749,1,0,0,9.200009674,7.599994749,1,0,0,0,155,155,39,1,,,,,,,,
,,,,,,,,,,,,,FF,,,,,,,,1.5027,,,,,,,,,,,,,,,,,,,,,,60ffbb189b5e539c9b0af149,61036edb954f3230411e1f1b,2021-07-29_23h16.11.213,Simcolourproject_2stim_asymm_v5,2020.2.10,Win32,60,61025ae37ef11b136ea224fe,,,,,,,,,1313,40.80001014,-24.80003015,1,0,0,response3disk,,5,6.000009626,-1.600005388,1,0,0,rectangle,6.000009626,-1.600005388,1,0,0,6.000009626,-1.600005388,1,0,0,0,156,156,35,1,,,,,,,,
,,,,,,,,,,,,,FF,,,,,,,,1.7666,,,,,,,,,,,,,,,,,,,,,,60ffbb189b5e539c9b0af149,61036edb954f3230411e1f1b,2021-07-29_23h16.11.213,Simcolourproject_2stim_asymm_v5,2020.2.10,Win32,60,61025ae37ef11b136ea224fe,,,,,,,,,1230,40.00001013,18.79999492,1,0,0,response1disk,,6,2.400009573,5.599994719,1,0,0,rectangle,2.400009573,5.599994719,1,0,0,2.400009573,5.599994719,1,0,0,0,157,157,80,1,,,,,,,,
,,,,,,,,,,,,,FF,,,,,,,,1.3162,,,,,,,,,,,,,,,,,,,,,,60ffbb189b5e539c9b0af149,61036edb954f3230411e1f1b,2021-07-29_23h16.11.213,Simcolourproject_2stim_asymm_v5,2020.2.10,Win32,60,61025ae37ef11b136ea224fe,,,,,,,,,2828,22.00000986,-28.80003021,1,0,0,response3disk,,4,0.400009543,-0.40000537,1,0,0,rectangle,0.400009543,-0.40000537,1,0,0,0.400009543,-0.40000537,1,0,0,0,158,158,134,1,,,,,,,,
,,,,,,,,,,,,,FF,,,,,,,,1.8169,,,,,,,,,,,,,,,,,,,,,,60ffbb189b5e539c9b0af149,61036edb954f3230411e1f1b,2021-07-29_23h16.11.213,Simcolourproject_2stim_asymm_v5,2020.2.10,Win32,60,61025ae37ef11b136ea224fe,,,,,,,,,1691,20.00000983,44.7999953,1,0,0,response1disk,,7,-5.199990541,11.59999481,1,0,0,rectangle,-5.199990541,11.59999481,1,0,0,-5.199990541,11.59999481,1,0,0,0,159,159,147,1,,,,,,,,
,,,,,,,,,,,,,FF,,,,,,,,1.0835,,,,,,,,,,,,,,,,,,,,,,60ffbb189b5e539c9b0af149,61036edb954f3230411e1f1b,2021-07-29_23h16.11.213,Simcolourproject_2stim_asymm_v5,2020.2.10,Win32,60,61025ae37ef11b136ea224fe,,,,,,,,,3940,-50.79999122,30.79999509,1,0,0,response7disk,,1,-17.59999073,5.199970299,1,0,0,rectangle,-17.59999073,5.199970299,1,0,0,-17.59999073,5.199970299,1,0,0,1,0,160,121,1,,,,,,,,
,,,,,,,,,,,,,FF,,,,,,,,1.2785,,,,,,,,,,,,,,,,,,,,,,60ffbb189b5e539c9b0af149,61036edb954f3230411e1f1b,2021-07-29_23h16.11.213,Simcolourproject_2stim_asymm_v5,2020.2.10,Win32,60,61025ae37ef11b136ea224fe,,,,,,,,,3682,-23.59999081,-29.60000581,1,0,0,response5disk,,3,-5.599990547,3.199970269,1,0,0,rectangle,-5.599990547,3.199970269,1,0,0,-5.599990547,3.199970269,1,0,0,1,1,161,159,1,,,,,,,,
,,,,,,,,,,,,,FF,,,,,,,,1.4007,,,,,,,,,,,,,,,,,,,,,,60ffbb189b5e539c9b0af149,61036edb954f3230411e1f1b,2021-07-29_23h16.11.213,Simcolourproject_2stim_asymm_v5,2020.2.10,Win32,60,61025ae37ef11b136ea224fe,,,,,,,,,2230,28.40000996,46.39999533,1,0,0,response1disk,,7,3.600058419,8.799994767,1,0,0,rectangle,3.600058419,8.799994767,1,0,0,3.600058419,8.799994767,1,0,0,1,2,162,61,1,,,,,,,,
,,,,,,,,,,,,,FF,,,,,,,,1.1627,,,,,,,,,,,,,,,,,,,,,,60ffbb189b5e539c9b0af149,61036edb954f3230411e1f1b,2021-07-29_23h16.11.213,Simcolourproject_2stim_asymm_v5,2020.2.10,Win32,60,61025ae37ef11b136ea224fe,,,,,,,,,4309,24.00000989,44.7999953,1,0,0,response1disk,,7,4.000009596,1.999994665,1,0,0,rectangle,4.000009596,1.999994665,1,0,0,4.000009596,1.999994665,1,0,0,1,3,163,102,1,,,,,,,,
,,,,,,,,,,,,,FF,,,,,,,,0.9842,,,,,,,,,,,,,,,,,,,,,,60ffbb189b5e539c9b0af149,61036edb954f3230411e1f1b,2021-07-29_23h16.11.213,Simcolourproject_2stim_asymm_v5,2020.2.10,Win32,60,61025ae37ef11b136ea224fe,,,,,,,,,473,17.60005863,34.39999515,1,0,0,response1disk,,7,9.53674E-06,7.199970329,1,0,0,rectangle,9.53674E-06,7.199970329,1,0,0,9.53674E-06,7.199970329,1,0,0,1,4,164,137,1,,,,,,,,
,,,,,,,,,,,,,FF,,,,,,,,1.6654,,,,,,,,,,,,,,,,,,,,,,60ffbb189b5e539c9b0af149,61036edb954f3230411e1f1b,2021-07-29_23h16.11.213,Simcolourproject_2stim_asymm_v5,2020.2.10,Win32,60,61025ae37ef11b136ea224fe,,,,,,,,,4117,-29.99999091,-45.60000604,1,0,0,response5disk,,3,0.400009543,9.999994785,1,0,0,rectangle,0.400009543,9.999994785,1,0,0,0.400009543,9.999994785,1,0,0,1,5,165,13,1,,,,,,,,
,,,,,,,,,,,,,FF,,,,,,,,1.2531,,,,,,,,,,,,,,,,,,,,,,60ffbb189b5e539c9b0af149,61036edb954f3230411e1f1b,2021-07-29_23h16.11.213,Simcolourproject_2stim_asymm_v5,2020.2.10,Win32,60,61025ae37ef11b136ea224fe,,,,,,,,,3638,24.00000989,43.19997087,1,0,0,response1disk,,7,-9.999990612,-2.000005394,1,0,0,rectangle,-9.999990612,-2.000005394,1,0,0,-9.999990612,-2.000005394,1,0,0,1,6,166,158,1,,,,,,,,
,,,,,,,,,,,,,FF,,,,,,,,2.3667,,,,,,,,,,,,,,,,,,,,,,60ffbb189b5e539c9b0af149,61036edb954f3230411e1f1b,2021-07-29_23h16.11.213,Simcolourproject_2stim_asymm_v5,2020.2.10,Win32,60,61025ae37ef11b136ea224fe,,,,,,,,,1810,29.60005881,-43.60000601,1,0,0,response3disk,,4,13.60005857,-3.600005418,1,0,0,rectangle,13.60005857,-3.600005418,1,0,0,13.60005857,-3.600005418,1,0,0,1,7,167,56,1,,,,,,,,
,,,,,,,,,,,,,FF,,,,,,,,1.1542,,,,,,,,,,,,,,,,,,,,,,60ffbb189b5e539c9b0af149,61036edb954f3230411e1f1b,2021-07-29_23h16.11.213,Simcolourproject_2stim_asymm_v5,2020.2.10,Win32,60,61025ae37ef11b136ea224fe,,,,,,,,,3186,26.00000992,35.99999517,1,0,0,response1disk,,7,7.200009644,6.399994731,1,0,0,rectangle,7.200009644,6.399994731,1,0,0,7.200009644,6.399994731,1,0,0,1,8,168,94,1,,,,,,,,
,,,,,,,,,,,,,FF,,,,,,,,1.4732,,,,,,,,,,,,,,,,,,,,,,60ffbb189b5e539c9b0af149,61036edb954f3230411e1f1b,2021-07-29_23h16.11.213,Simcolourproject_2stim_asymm_v5,2020.2.10,Win32,60,61025ae37ef11b136ea224fe,,,,,,,,,1327,26.40000993,17.19997048,1,0,0,response1disk,,6,2.400009573,5.599994719,1,0,0,rectangle,2.400009573,5.599994719,1,0,0,2.400009573,5.599994719,1,0,0,1,9,169,131,1,,,,,,,,
,,,,,,,,,,,,,FF,,,,,,,,2.1679,,,,,,,,,,,,,,,,,,,,,,60ffbb189b5e539c9b0af149,61036edb954f3230411e1f1b,2021-07-29_23h16.11.213,Simcolourproject_2stim_asymm_v5,2020.2.10,Win32,60,61025ae37ef11b136ea224fe,,,,,,,,,1574,17.20000979,72.79999572,1,0,0,response1disk,,7,-10.39994179,7.199970329,1,0,0,rectangle,-10.39994179,7.199970329,1,0,0,-10.39994179,7.199970329,1,0,0,1,10,170,83,1,,,,,,,,
,,,,,,,,,,,,,FF,,,,,,,,1.8183,,,,,,,,,,,,,,,,,,,,,,60ffbb189b5e539c9b0af149,61036edb954f3230411e1f1b,2021-07-29_23h16.11.213,Simcolourproject_2stim_asymm_v5,2020.2.10,Win32,60,61025ae37ef11b136ea224fe,,,,,,,,,4031,21.60005869,-31.60000584,1,0,0,response3disk,,4,0.800009549,0.399994642,1,0,0,rectangle,0.800009549,0.399994642,1,0,0,0.800009549,0.399994642,1,0,0,1,11,171,36,1,,,,,,,,
,,,,,,,,,,,,,FF,,,,,,,,0.9014,,,,,,,,,,,,,,,,,,,,,,60ffbb189b5e539c9b0af149,61036edb954f3230411e1f1b,2021-07-29_23h16.11.213,Simcolourproject_2stim_asymm_v5,2020.2.10,Win32,60,61025ae37ef11b136ea224fe,,,,,,,,,1652,39.20001012,77.9999958,1,0,0,response1disk,,7,-3.599990517,-8.40000549,1,0,0,rectangle,-61.19999138,-20.80003009,1,0,0,-0.399941641,5.199970299,1,0,0,1,12,172,157,1,,response5disk_3,TRUE,2,2,"[118,4,145,111,21,265,310,278,257,317,127,178,61,182,248,173,96,225,102,87]",1.7778,rectangle
,,,,,,,,,,,,,FF,,,,,,,,2.4275,,,,,,,,,,,,,,,,,,,,,,60ffbb189b5e539c9b0af149,61036edb954f3230411e1f1b,2021-07-29_23h16.11.213,Simcolourproject_2stim_asymm_v5,2020.2.10,Win32,60,61025ae37ef11b136ea224fe,,,,,,,,,2021,22.00000986,34.39999515,1,0,0,response1disk,,7,6.800009638,6.399994731,1,0,0,rectangle,6.800009638,6.399994731,1,0,0,6.800009638,6.399994731,1,0,0,1,13,173,140,1,,,,,,,,
,,,,,,,,,,,,,FF,,,,,,,,0.9211,,,,,,,,,,,,,,,,,,,,,,60ffbb189b5e539c9b0af149,61036edb954f3230411e1f1b,2021-07-29_23h16.11.213,Simcolourproject_2stim_asymm_v5,2020.2.10,Win32,60,61025ae37ef11b136ea224fe,,,,,,,,,3323,19.60005866,46.79999533,1,0,0,response1disk,,7,3.600058419,11.99999481,1,0,0,rectangle,3.600058419,11.99999481,1,0,0,3.600058419,11.99999481,1,0,0,1,14,174,117,1,,,,,,,,
,,,,,,,,,,,,,FF,,,,,,,,1.9108,,,,,,,,,,,,,,,,,,,,,,60ffbb189b5e539c9b0af149,61036edb954f3230411e1f1b,2021-07-29_23h16.11.213,Simcolourproject_2stim_asymm_v5,2020.2.10,Win32,60,61025ae37ef11b136ea224fe,,,,,,,,,3066,28.80000997,-14.80003,1,0,0,response3disk,,5,7.200009644,1.999994665,1,0,0,rectangle,7.200009644,1.999994665,1,0,0,7.200009644,1.999994665,1,0,0,1,15,175,67,1,,,,,,,,
,,,,,,,,,,,,,FF,,,,,,,,1.9034,,,,,,,,,,,,,,,,,,,,,,60ffbb189b5e539c9b0af149,61036edb954f3230411e1f1b,2021-07-29_23h16.11.213,Simcolourproject_2stim_asymm_v5,2020.2.10,Win32,60,61025ae37ef11b136ea224fe,,,,,,,,,2296,-65.99999145,-29.2000058,1,0,0,response5disk,,2,-3.199990511,-5.36442E-06,1,0,0,rectangle,-3.199990511,-5.36442E-06,1,0,0,-3.199990511,-5.36442E-06,1,0,0,1,16,176,63,1,,,,,,,,
,,,,,,,,,,,,,FF,,,,,,,,1.0519,,,,,,,,,,,,,,,,,,,,,,60ffbb189b5e539c9b0af149,61036edb954f3230411e1f1b,2021-07-29_23h16.11.213,Simcolourproject_2stim_asymm_v5,2020.2.10,Win32,60,61025ae37ef11b136ea224fe,,,,,,,,,3497,17.60005863,29.59999508,1,0,0,response1disk,,7,9.53674E-06,-0.40000537,1,0,0,rectangle,33.20001003,-18.00000563,1,0,0,9.200009674,-0.80002979,1,0,0,1,17,177,127,1,,response3disk_3,TRUE,5,5,"[118,4,145,111,21,265,310,278,257,317,127,178,61,182,248,173,96,225,102,87]",3.9022,rectangle
,,,,,,,,,,,,,FF,,,,,,,,2.2029,,,,,,,,,,,,,,,,,,,,,,60ffbb189b5e539c9b0af149,61036edb954f3230411e1f1b,2021-07-29_23h16.11.213,Simcolourproject_2stim_asymm_v5,2020.2.10,Win32,60,61025ae37ef11b136ea224fe,,,,,,,,,4208,-34.79999098,-14.40000558,1,0,0,response5disk,,2,-10.39994179,-5.36442E-06,1,0,0,rectangle,-10.39994179,-5.36442E-06,1,0,0,-10.39994179,-5.36442E-06,1,0,0,1,18,178,142,1,,,,,,,,
,,,,,,,,,,,,,FF,,,,,,,,1.1112,,,,,,,,,,,,,,,,,,,,,,60ffbb189b5e539c9b0af149,61036edb954f3230411e1f1b,2021-07-29_23h16.11.213,Simcolourproject_2stim_asymm_v5,2020.2.10,Win32,60,61025ae37ef11b136ea224fe,,,,,,,,,2977,21.20000985,30.39999509,1,0,0,response1disk,,7,6.800009638,3.199970269,1,0,0,rectangle,6.800009638,3.199970269,1,0,0,6.800009638,3.199970269,1,0,0,1,19,179,17,1,,,,,,,,
,,,,,,,,,,,,,FF,,,,,,,,1.7437,,,,,,,,,,,,,,,,,,,,,,60ffbb189b5e539c9b0af149,61036edb954f3230411e1f1b,2021-07-29_23h16.11.213,Simcolourproject_2stim_asymm_v5,2020.2.10,Win32,60,61025ae37ef11b136ea224fe,,,,,,,,,453,42.00001016,-20.80003009,1,0,0,response3disk,,5,3.600058419,-10.80002994,1,0,0,rectangle,3.600058419,-10.80002994,1,0,0,3.600058419,-10.80002994,1,0,0,1,20,180,16,1,,,,,,,,
,,,,,,,,,,,,,FF,,,,,,,,1.1839,,,,,,,,,,,,,,,,,,,,,,60ffbb189b5e539c9b0af149,61036edb954f3230411e1f1b,2021-07-29_23h16.11.213,Simcolourproject_2stim_asymm_v5,2020.2.10,Win32,60,61025ae37ef11b136ea224fe,,,,,,,,,4225,-48.79999119,-20.40000567,1,0,0,response5disk,,2,-12.79999065,3.599994689,1,0,0,rectangle,19.20000982,-32.40000585,1,0,0,-2.399941671,2.399994671,1,0,0,1,21,181,93,1,,response3disk_3,TRUE,4,4,"[118,4,145,111,21,265,310,278,257,317,127,178,61,182,248,173,96,225,102,87]",2.416,rectangle
,,,,,,,,,,,,,FF,,,,,,,,2.1931,,,,,,,,,,,,,,,,,,,,,,60ffbb189b5e539c9b0af149,61036edb954f3230411e1f1b,2021-07-29_23h16.11.213,Simcolourproject_2stim_asymm_v5,2020.2.10,Win32,60,61025ae37ef11b136ea224fe,,,,,,,,,2851,38.80001011,27.59999505,1,0,0,response1disk,,6,14.00000975,1.599994659,1,0,0,rectangle,14.00000975,1.599994659,1,0,0,14.00000975,1.599994659,1,0,0,1,22,182,112,1,,,,,,,,
,,,,,,,,,,,,,FF,,,,,,,,1.5667,,,,,,,,,,,,,,,,,,,,,,60ffbb189b5e539c9b0af149,61036edb954f3230411e1f1b,2021-07-29_23h16.11.213,Simcolourproject_2stim_asymm_v5,2020.2.10,Win32,60,61025ae37ef11b136ea224fe,,,,,,,,,3623,-39.19999105,-20.00000566,1,0,0,response5disk,,2,4.800009608,-5.200005442,1,0,0,rectangle,4.800009608,-5.200005442,1,0,0,4.800009608,-5.200005442,1,0,0,1,23,183,34,1,,,,,,,,
,,,,,,,,,,,,,FF,,,,,,,,1.892,,,,,,,,,,,,,,,,,,,,,,60ffbb189b5e539c9b0af149,61036edb954f3230411e1f1b,2021-07-29_23h16.11.213,Simcolourproject_2stim_asymm_v5,2020.2.10,Win32,60,61025ae37ef11b136ea224fe,,,,,,,,,3161,-21.99999079,-41.20000598,1,0,0,response5disk,,3,2.400009573,-2.4000054,1,0,0,rectangle,2.400009573,-2.4000054,1,0,0,2.400009573,-2.4000054,1,0,0,1,24,184,123,1,,,,,,,,
,,,,,,,,,,,,,FF,,,,,,,,1.9786,,,,,,,,,,,,,,,,,,,,,,60ffbb189b5e539c9b0af149,61036edb954f3230411e1f1b,2021-07-29_23h16.11.213,Simcolourproject_2stim_asymm_v5,2020.2.10,Win32,60,61025ae37ef11b136ea224fe,,,,,,,,,1563,36.80001009,19.19997051,1,0,0,response1disk,,6,10.8000097,-7.600005478,1,0,0,rectangle,10.8000097,-7.600005478,1,0,0,10.8000097,-7.600005478,1,0,0,1,25,185,126,1,,,,,,,,
,,,,,,,,,,,,,FF,,,,,,,,1.7252,,,,,,,,,,,,,,,,,,,,,,60ffbb189b5e539c9b0af149,61036edb954f3230411e1f1b,2021-07-29_23h16.11.213,Simcolourproject_2stim_asymm_v5,2020.2.10,Win32,60,61025ae37ef11b136ea224fe,,,,,,,,,3762,16.40000978,-25.60000575,1,0,0,response3disk,,4,-1.599990487,-5.36442E-06,1,0,0,rectangle,-1.599990487,-5.36442E-06,1,0,0,-1.599990487,-5.36442E-06,1,0,0,1,26,186,23,1,,,,,,,,
,,,,,,,,,,,,,FF,,,,,,,,3.3496,,,,,,,,,,,,,,,,,,,,,,60ffbb189b5e539c9b0af149,61036edb954f3230411e1f1b,2021-07-29_23h16.11.213,Simcolourproject_2stim_asymm_v5,2020.2.10,Win32,60,61025ae37ef11b136ea224fe,,,,,,,,,1593,34.80001006,20.79999495,1,0,0,response1disk,,6,14.00000975,5.599994719,1,0,0,rectangle,14.00000975,5.599994719,1,0,0,14.00000975,5.599994719,1,0,0,1,27,187,146,1,,,,,,,,
,,,,,,,,,,,,,FF,,,,,,,,2.2494,,,,,,,,,,,,,,,,,,,,,,60ffbb189b5e539c9b0af149,61036edb954f3230411e1f1b,2021-07-29_23h16.11.213,Simcolourproject_2stim_asymm_v5,2020.2.10,Win32,60,61025ae37ef11b136ea224fe,,,,,,,,,273,-35.19999099,-43.20000601,1,0,0,response5disk,,3,-8.39994176,5.999994725,1,0,0,rectangle,-8.39994176,5.999994725,1,0,0,-8.39994176,5.999994725,1,0,0,1,28,188,145,1,,,,,,,,
,,,,,,,,,,,,,FF,,,,,,,,4.2365,,,,,,,,,,,,,,,,,,,,,,60ffbb189b5e539c9b0af149,61036edb954f3230411e1f1b,2021-07-29_23h16.11.213,Simcolourproject_2stim_asymm_v5,2020.2.10,Win32,60,61025ae37ef11b136ea224fe,,,,,,,,,194,-22.7999908,-44.00000602,1,0,0,response5disk,,3,2.800009578,10.7999948,1,0,0,rectangle,2.800009578,10.7999948,1,0,0,2.800009578,10.7999948,1,0,0,1,29,189,68,1,,,,,,,,
,,,,,,,,,,,,,FF,,,,,,,,1.6507,,,,,,,,,,,,,,,,,,,,,,60ffbb189b5e539c9b0af149,61036edb954f3230411e1f1b,2021-07-29_23h16.11.213,Simcolourproject_2stim_asymm_v5,2020.2.10,Win32,60,61025ae37ef11b136ea224fe,,,,,,,,,3642,44.4000102,-15.20000559,1,0,0,response3disk,,5,1.200009555,-5.36442E-06,1,0,0,rectangle,1.200009555,-5.36442E-06,1,0,0,1.200009555,-5.36442E-06,1,0,0,1,30,190,136,1,,,,,,,,
,,,,,,,,,,,,,FF,,,,,,,,1.1003,,,,,,,,,,,,,,,,,,,,,,60ffbb189b5e539c9b0af149,61036edb954f3230411e1f1b,2021-07-29_23h16.11.213,Simcolourproject_2stim_asymm_v5,2020.2.10,Win32,60,61025ae37ef11b136ea224fe,,,,,,,,,3728,24.00000989,46.79999533,1,0,0,response1disk,,7,2.000009567,11.19997039,1,0,0,rectangle,2.000009567,11.19997039,1,0,0,2.000009567,11.19997039,1,0,0,1,31,191,49,1,,,,,,,,
,,,,,,,,,,,,,FF,,,,,,,,3.6502,,,,,,,,,,,,,,,,,,,,,,60ffbb189b5e539c9b0af149,61036edb954f3230411e1f1b,2021-07-29_23h16.11.213,Simcolourproject_2stim_asymm_v5,2020.2.10,Win32,60,61025ae37ef11b136ea224fe,,,,,,,,,655,30.80001,-28.00000578,1,0,0,response3disk,,5,-27.19999087,3.199970269,1,0,0,rectangle,-27.19999087,3.199970269,1,0,0,-27.19999087,3.199970269,1,0,0,1,32,192,132,1,,,,,,,,
,,,,,,,,,,,,,FF,,,,,,,,2.4164,,,,,,,,,,,,,,,,,,,,,,60ffbb189b5e539c9b0af149,61036edb954f3230411e1f1b,2021-07-29_23h16.11.213,Simcolourproject_2stim_asymm_v5,2020.2.10,Win32,60,61025ae37ef11b136ea224fe,,,,,,,,,207,24.80000991,-20.40000567,1,0,0,response3disk,,5,-10.79999062,1.999994665,1,0,0,rectangle,-10.79999062,1.999994665,1,0,0,-10.79999062,1.999994665,1,0,0,1,33,193,7,1,,,,,,,,
,,,,,,,,,,,,,FF,,,,,,,,1.519,,,,,,,,,,,,,,,,,,,,,,60ffbb189b5e539c9b0af149,61036edb954f3230411e1f1b,2021-07-29_23h16.11.213,Simcolourproject_2stim_asymm_v5,2020.2.10,Win32,60,61025ae37ef11b136ea224fe,,,,,,,,,2150,20.00000983,37.5999952,1,0,0,response1disk,,7,-3.599990517,8.799994767,1,0,0,rectangle,-3.599990517,8.799994767,1,0,0,-3.599990517,8.799994767,1,0,0,1,34,194,53,1,,,,,,,,
,,,,,,,,,,,,,FF,,,,,,,,2.2663,,,,,,,,,,,,,,,,,,,,,,60ffbb189b5e539c9b0af149,61036edb954f3230411e1f1b,2021-07-29_23h16.11.213,Simcolourproject_2stim_asymm_v5,2020.2.10,Win32,60,61025ae37ef11b136ea224fe,,,,,,,,,958,24.4000099,35.59999517,1,0,0,response1disk,,7,5.200009614,1.999994665,1,0,0,rectangle,5.200009614,1.999994665,1,0,0,5.200009614,1.999994665,1,0,0,1,35,195,43,1,,,,,,,,
,,,,,,,,,,,,,FF,,,,,,,,1.7189,,,,,,,,,,,,,,,,,,,,,,60ffbb189b5e539c9b0af149,61036edb954f3230411e1f1b,2021-07-29_23h16.11.213,Simcolourproject_2stim_asymm_v5,2020.2.10,Win32,60,61025ae37ef11b136ea224fe,,,,,,,,,2467,23.20000988,27.19997063,1,0,0,response1disk,,7,11.60005854,-3.600005418,1,0,0,rectangle,11.60005854,-3.600005418,1,0,0,11.60005854,-3.600005418,1,0,0,1,36,196,52,1,,,,,,,,
,,,,,,,,,,,,,FF,,,,,,,,1.4412,,,,,,,,,,,,,,,,,,,,,,60ffbb189b5e539c9b0af149,61036edb954f3230411e1f1b,2021-07-29_23h16.11.213,Simcolourproject_2stim_asymm_v5,2020.2.10,Win32,60,61025ae37ef11b136ea224fe,,,,,,,,,2967,32.00001001,19.19997051,1,0,0,response1disk,,6,9.600058508,1.599994659,1,0,0,rectangle,9.600058508,1.599994659,1,0,0,9.600058508,1.599994659,1,0,0,1,37,197,114,1,,,,,,,,
,,,,,,,,,,,,,FF,,,,,,,,1.8027,,,,,,,,,,,,,,,,,,,,,,60ffbb189b5e539c9b0af149,61036edb954f3230411e1f1b,2021-07-29_23h16.11.213,Simcolourproject_2stim_asymm_v5,2020.2.10,Win32,60,61025ae37ef11b136ea224fe,,,,,,,,,2829,-16.79999071,-34.00000587,1,0,0,response5disk,,3,8.000009656,5.599994719,1,0,0,rectangle,8.000009656,5.599994719,1,0,0,8.000009656,5.599994719,1,0,0,1,38,198,55,1,,,,,,,,
,,,,,,,,,,,,,FF,,,,,,,,0.9285,,,,,,,,,,,,,,,,,,,,,,60ffbb189b5e539c9b0af149,61036edb954f3230411e1f1b,2021-07-29_23h16.11.213,Simcolourproject_2stim_asymm_v5,2020.2.10,Win32,60,61025ae37ef11b136ea224fe,,,,,,,,,3122,22.00000986,45.99999532,1,0,0,response1disk,,7,2.000009567,5.599994719,1,0,0,rectangle,2.000009567,5.599994719,1,0,0,2.000009567,5.599994719,1,0,0,1,39,199,5,1,,,,,,,,
,,,,,,,,,,,,,FF,,,,,,,,1.0357,,,,,,,,,,,,,,,,,,,,,,60ffbb189b5e539c9b0af149,61036edb954f3230411e1f1b,2021-07-29_23h16.11.213,Simcolourproject_2stim_asymm_v5,2020.2.10,Win32,60,61025ae37ef11b136ea224fe,,,,,,,,,4046,-16.39994188,40.39999524,1,0,0,response7disk,,0,-7.999990582,3.599994689,1,0,0,rectangle,-7.999990582,3.599994689,1,0,0,-7.999990582,3.599994689,1,0,0,1,40,200,113,1,,,,,,,,
,,,,,,,,,,,,,FF,,,,,,,,2.2182,,,,,,,,,,,,,,,,,,,,,,60ffbb189b5e539c9b0af149,61036edb954f3230411e1f1b,2021-07-29_23h16.11.213,Simcolourproject_2stim_asymm_v5,2020.2.10,Win32,60,61025ae37ef11b136ea224fe,,,,,,,,,3644,17.20000979,-22.4000057,1,0,0,response3disk,,4,4.000009596,7.999994755,1,0,0,rectangle,4.000009596,7.999994755,1,0,0,4.000009596,7.999994755,1,0,0,1,41,201,154,1,,,,,,,,
,,,,,,,,,,,,,FF,,,,,,,,1.6442,,,,,,,,,,,,,,,,,,,,,,60ffbb189b5e539c9b0af149,61036edb954f3230411e1f1b,2021-07-29_23h16.11.213,Simcolourproject_2stim_asymm_v5,2020.2.10,Win32,60,61025ae37ef11b136ea224fe,,,,,,,,,4006,15.6000586,-32.80003027,1,0,0,response3disk,,4,-1.599990487,1.999994665,1,0,0,rectangle,-1.599990487,1.999994665,1,0,0,-1.599990487,1.999994665,1,0,0,1,42,202,59,1,,,,,,,,
,,,,,,,,,,,,,FF,,,,,,,,1.1356,,,,,,,,,,,,,,,,,,,,,,60ffbb189b5e539c9b0af149,61036edb954f3230411e1f1b,2021-07-29_23h16.11.213,Simcolourproject_2stim_asymm_v5,2020.2.10,Win32,60,61025ae37ef11b136ea224fe,,,,,,,,,1153,20.00000983,30.39999509,1,0,0,response1disk,,7,7.600058478,2.399994671,1,0,0,rectangle,7.600058478,2.399994671,1,0,0,7.600058478,2.399994671,1,0,0,1,43,203,29,1,,,,,,,,
,,,,,,,,,,,,,FF,,,,,,,,1.0158,,,,,,,,,,,,,,,,,,,,,,60ffbb189b5e539c9b0af149,61036edb954f3230411e1f1b,2021-07-29_23h16.11.213,Simcolourproject_2stim_asymm_v5,2020.2.10,Win32,60,61025ae37ef11b136ea224fe,,,,,,,,,4290,23.60005872,37.19997078,1,0,0,response1disk,,7,8.400009662,8.399994761,1,0,0,rectangle,8.400009662,8.399994761,1,0,0,8.400009662,8.399994761,1,0,0,1,44,204,115,1,,,,,,,,
,,,,,,,,,,,,,FF,,,,,,,,1.132,,,,,,,,,,,,,,,,,,,,,,60ffbb189b5e539c9b0af149,61036edb954f3230411e1f1b,2021-07-29_23h16.11.213,Simcolourproject_2stim_asymm_v5,2020.2.10,Win32,60,61025ae37ef11b136ea224fe,,,,,,,,,474,33.20001003,28.79999506,1,0,0,response1disk,,6,20.00000983,3.199970269,1,0,0,rectangle,20.00000983,3.199970269,1,0,0,20.00000983,3.199970269,1,0,0,1,45,205,30,1,,,,,,,,
,,,,,,,,,,,,,FF,,,,,,,,1.4082,,,,,,,,,,,,,,,,,,,,,,60ffbb189b5e539c9b0af149,61036edb954f3230411e1f1b,2021-07-29_23h16.11.213,Simcolourproject_2stim_asymm_v5,2020.2.10,Win32,60,61025ae37ef11b136ea224fe,,,,,,,,,1066,19.60005866,33.99999514,1,0,0,response1disk,,7,-9.1999906,-2.4000054,1,0,0,rectangle,-9.1999906,-2.4000054,1,0,0,-9.1999906,-2.4000054,1,0,0,1,46,206,130,1,,,,,,,,
,,,,,,,,,,,,,FF,,,,,,,,1.7459,,,,,,,,,,,,,,,,,,,,,,60ffbb189b5e539c9b0af149,61036edb954f3230411e1f1b,2021-07-29_23h16.11.213,Simcolourproject_2stim_asymm_v5,2020.2.10,Win32,60,61025ae37ef11b136ea224fe,,,,,,,,,3452,30.40000999,23.99999499,1,0,0,response1disk,,6,-0.799990475,0.799994648,1,0,0,rectangle,-0.799990475,0.799994648,1,0,0,-0.799990475,0.799994648,1,0,0,1,47,207,37,1,,,,,,,,
,,,,,,,,,,,,,FF,,,,,,,,1.1965,,,,,,,,,,,,,,,,,,,,,,60ffbb189b5e539c9b0af149,61036edb954f3230411e1f1b,2021-07-29_23h16.11.213,Simcolourproject_2stim_asymm_v5,2020.2.10,Win32,60,61025ae37ef11b136ea224fe,,,,,,,,,826,32.80001003,-21.20000568,1,0,0,response3disk,,5,10.40000969,-1.600005388,1,0,0,rectangle,10.40000969,-1.600005388,1,0,0,10.40000969,-1.600005388,1,0,0,1,48,208,129,1,,,,,,,,
,,,,,,,,,,,,,FF,,,,,,,,2.0096,,,,,,,,,,,,,,,,,,,,,,60ffbb189b5e539c9b0af149,61036edb954f3230411e1f1b,2021-07-29_23h16.11.213,Simcolourproject_2stim_asymm_v5,2020.2.10,Win32,60,61025ae37ef11b136ea224fe,,,,,,,,,3664,-38.79999104,-45.20000604,1,0,0,response5disk,,3,-11.99999064,5.599994719,1,0,0,rectangle,-11.99999064,5.599994719,1,0,0,-11.99999064,5.599994719,1,0,0,1,49,209,95,1,,,,,,,,
,,,,,,,,,,,,,FF,,,,,,,,1.0426,,,,,,,,,,,,,,,,,,,,,,60ffbb189b5e539c9b0af149,61036edb954f3230411e1f1b,2021-07-29_23h16.11.213,Simcolourproject_2stim_asymm_v5,2020.2.10,Win32,60,61025ae37ef11b136ea224fe,,,,,,,,,536,17.60005863,35.19997075,1,0,0,response1disk,,7,-0.399941641,7.199970329,1,0,0,rectangle,-0.399941641,7.199970329,1,0,0,-0.399941641,7.199970329,1,0,0,1,50,210,60,1,,,,,,,,
,,,,,,,,,,,,,FF,,,,,,,,1.4785,,,,,,,,,,,,,,,,,,,,,,60ffbb189b5e539c9b0af149,61036edb954f3230411e1f1b,2021-07-29_23h16.11.213,Simcolourproject_2stim_asymm_v5,2020.2.10,Win32,60,61025ae37ef11b136ea224fe,,,,,,,,,1067,15.6000586,27.99999505,1,0,0,response1disk,,7,2.400009573,7.999994755,1,0,0,rectangle,2.400009573,7.999994755,1,0,0,2.400009573,7.999994755,1,0,0,1,51,211,152,1,,,,,,,,
,,,,,,,,,,,,,FF,,,,,,,,1.166,,,,,,,,,,,,,,,,,,,,,,60ffbb189b5e539c9b0af149,61036edb954f3230411e1f1b,2021-07-29_23h16.11.213,Simcolourproject_2stim_asymm_v5,2020.2.10,Win32,60,61025ae37ef11b136ea224fe,,,,,,,,,4331,20.00000983,49.99999538,1,0,0,response1disk,,7,-0.399941641,12.39999482,1,0,0,rectangle,-0.399941641,12.39999482,1,0,0,-0.399941641,12.39999482,1,0,0,1,52,212,104,1,,,,,,,,
,,,,,,,,,,,,,FF,,,,,,,,1.1022,,,,,,,,,,,,,,,,,,,,,,60ffbb189b5e539c9b0af149,61036edb954f3230411e1f1b,2021-07-29_23h16.11.213,Simcolourproject_2stim_asymm_v5,2020.2.10,Win32,60,61025ae37ef11b136ea224fe,,,,,,,,,3561,30.40000999,19.19997051,1,0,0,response1disk,,6,10.00000969,0.799994648,1,0,0,rectangle,10.00000969,0.799994648,1,0,0,10.00000969,0.799994648,1,0,0,1,53,213,141,1,,,,,,,,
,,,,,,,,,,,,,FF,,,,,,,,2.2001,,,,,,,,,,,,,,,,,,,,,,60ffbb189b5e539c9b0af149,61036edb954f3230411e1f1b,2021-07-29_23h16.11.213,Simcolourproject_2stim_asymm_v5,2020.2.10,Win32,60,61025ae37ef11b136ea224fe,,,,,,,,,504,20.80000985,36.79999518,1,0,0,response1disk,,7,6.400009632,4.399994701,1,0,0,rectangle,6.400009632,4.399994701,1,0,0,6.400009632,4.399994701,1,0,0,1,54,214,150,1,,,,,,,,
,,,,,,,,,,,,,FF,,,,,,,,2.1611,,,,,,,,,,,,,,,,,,,,,,60ffbb189b5e539c9b0af149,61036edb954f3230411e1f1b,2021-07-29_23h16.11.213,Simcolourproject_2stim_asymm_v5,2020.2.10,Win32,60,61025ae37ef11b136ea224fe,,,,,,,,,3880,18.0000098,-35.60000589,1,0,0,response3disk,,4,0.800009549,-4.000005424,1,0,0,rectangle,0.800009549,-4.000005424,1,0,0,0.800009549,-4.000005424,1,0,0,1,55,215,65,1,,,,,,,,
,,,,,,,,,,,,,FF,,,,,,,,1.6435,,,,,,,,,,,,,,,,,,,,,,60ffbb189b5e539c9b0af149,61036edb954f3230411e1f1b,2021-07-29_23h16.11.213,Simcolourproject_2stim_asymm_v5,2020.2.10,Win32,60,61025ae37ef11b136ea224fe,,,,,,,,,2785,32.80001003,19.19997051,1,0,0,response1disk,,6,10.8000097,2.799994677,1,0,0,rectangle,10.8000097,2.799994677,1,0,0,10.8000097,2.799994677,1,0,0,1,56,216,51,1,,,,,,,,
,,,,,,,,,,,,,FF,,,,,,,,2.0333,,,,,,,,,,,,,,,,,,,,,,60ffbb189b5e539c9b0af149,61036edb954f3230411e1f1b,2021-07-29_23h16.11.213,Simcolourproject_2stim_asymm_v5,2020.2.10,Win32,60,61025ae37ef11b136ea224fe,,,,,,,,,1285,-23.59999081,-37.60000592,1,0,0,response5disk,,3,-5.999990553,0.799994648,1,0,0,rectangle,-5.999990553,0.799994648,1,0,0,-5.999990553,0.799994648,1,0,0,1,57,217,90,1,,,,,,,,
,,,,,,,,,,,,,FF,,,,,,,,1.0195,,,,,,,,,,,,,,,,,,,,,,60ffbb189b5e539c9b0af149,61036edb954f3230411e1f1b,2021-07-29_23h16.11.213,Simcolourproject_2stim_asymm_v5,2020.2.10,Win32,60,61025ae37ef11b136ea224fe,,,,,,,,,3906,-22.39994197,67.99999565,1,0,0,response7disk,,0,-3.999990523,11.59999481,1,0,0,rectangle,-3.999990523,11.59999481,1,0,0,-3.999990523,11.59999481,1,0,0,1,58,218,151,1,,,,,,,,
,,,,,,,,,,,,,FF,,,,,,,,1.7876,,,,,,,,,,,,,,,,,,,,,,60ffbb189b5e539c9b0af149,61036edb954f3230411e1f1b,2021-07-29_23h16.11.213,Simcolourproject_2stim_asymm_v5,2020.2.10,Win32,60,61025ae37ef11b136ea224fe,,,,,,,,,4015,23.60005872,-14.80003,1,0,0,response3disk,,5,-5.199990541,11.19997039,1,0,0,rectangle,-5.199990541,11.19997039,1,0,0,-5.199990541,11.19997039,1,0,0,1,59,219,105,1,,,,,,,,
,,,,,,,,,,,,,FF,,,,,,,,1.1743,,,,,,,,,,,,,,,,,,,,,,60ffbb189b5e539c9b0af149,61036edb954f3230411e1f1b,2021-07-29_23h16.11.213,Simcolourproject_2stim_asymm_v5,2020.2.10,Win32,60,61025ae37ef11b136ea224fe,,,,,,,,,1579,30.80001,45.59999532,1,0,0,response1disk,,7,17.20000979,10.7999948,1,0,0,rectangle,17.20000979,10.7999948,1,0,0,17.20000979,10.7999948,1,0,0,1,60,220,10,1,,,,,,,,
,,,,,,,,,,,,,FF,,,,,,,,1.6102,,,,,,,,,,,,,,,,,,,,,,60ffbb189b5e539c9b0af149,61036edb954f3230411e1f1b,2021-07-29_23h16.11.213,Simcolourproject_2stim_asymm_v5,2020.2.10,Win32,60,61025ae37ef11b136ea224fe,,,,,,,,,1180,21.20000985,50.39999539,1,0,0,response1disk,,7,-6.799990565,0.799994648,1,0,0,rectangle,-6.799990565,0.799994648,1,0,0,-6.799990565,0.799994648,1,0,0,1,61,221,28,1,,,,,,,,
,,,,,,,,,,,,,FF,,,,,,,,0.9838,,,,,,,,,,,,,,,,,,,,,,60ffbb189b5e539c9b0af149,61036edb954f3230411e1f1b,2021-07-29_23h16.11.213,Simcolourproject_2stim_asymm_v5,2020.2.10,Win32,60,61025ae37ef11b136ea224fe,,,,,,,,,1975,18.0000098,40.39999524,1,0,0,response1disk,,7,6.800009638,8.399994761,1,0,0,rectangle,6.800009638,8.399994761,1,0,0,6.800009638,8.399994761,1,0,0,1,62,222,2,1,,,,,,,,
,,,,,,,,,,,,,FF,,,,,,,,0.9663,,,,,,,,,,,,,,,,,,,,,,60ffbb189b5e539c9b0af149,61036edb954f3230411e1f1b,2021-07-29_23h16.11.213,Simcolourproject_2stim_asymm_v5,2020.2.10,Win32,60,61025ae37ef11b136ea224fe,,,,,,,,,3163,33.60005887,63.99999559,1,0,0,response1disk,,7,8.400009662,4.399994701,1,0,0,rectangle,8.400009662,4.399994701,1,0,0,8.400009662,4.399994701,1,0,0,1,63,223,1,1,,,,,,,,
,,,,,,,,,,,,,FF,,,,,,,,1.5366,,,,,,,,,,,,,,,,,,,,,,60ffbb189b5e539c9b0af149,61036edb954f3230411e1f1b,2021-07-29_23h16.11.213,Simcolourproject_2stim_asymm_v5,2020.2.10,Win32,60,61025ae37ef11b136ea224fe,,,,,,,,,3453,37.20001009,20.79999495,1,0,0,response1disk,,6,3.600058419,7.599994749,1,0,0,rectangle,-54.39994245,29.19997066,1,0,0,-0.799990475,-12.40000555,1,0,0,1,64,224,50,1,,response7disk_3,TRUE,1,1,"[118,4,145,111,21,265,310,278,257,317,127,178,61,182,248,173,96,225,102,87]",1.5197,rectangle
,,,,,,,,,,,,,FF,,,,,,,,1.7927,,,,,,,,,,,,,,,,,,,,,,60ffbb189b5e539c9b0af149,61036edb954f3230411e1f1b,2021-07-29_23h16.11.213,Simcolourproject_2stim_asymm_v5,2020.2.10,Win32,60,61025ae37ef11b136ea224fe,,,,,,,,,548,-54.79999128,-22.4000057,1,0,0,response5disk,,2,-5.999990553,-2.4000054,1,0,0,rectangle,-5.999990553,-2.4000054,1,0,0,-5.999990553,-2.4000054,1,0,0,1,65,225,40,1,,,,,,,,
,,,,,,,,,,,,,FF,,,,,,,,1.0442,,,,,,,,,,,,,,,,,,,,,,60ffbb189b5e539c9b0af149,61036edb954f3230411e1f1b,2021-07-29_23h16.11.213,Simcolourproject_2stim_asymm_v5,2020.2.10,Win32,60,61025ae37ef11b136ea224fe,,,,,,,,,3939,-47.19999117,19.19997051,1,0,0,response7disk,,1,-13.99999067,1.599994659,1,0,0,rectangle,-13.99999067,1.599994659,1,0,0,-13.99999067,1.599994659,1,0,0,1,66,226,119,1,,,,,,,,
,,,,,,,,,,,,,FF,,,,,,,,1.4503,,,,,,,,,,,,,,,,,,,,,,60ffbb189b5e539c9b0af149,61036edb954f3230411e1f1b,2021-07-29_23h16.11.213,Simcolourproject_2stim_asymm_v5,2020.2.10,Win32,60,61025ae37ef11b136ea224fe,,,,,,,,,1271,30.80001,17.5999949,1,0,0,response1disk,,6,-2.399941671,7.199970329,1,0,0,rectangle,-2.399941671,7.199970329,1,0,0,-2.399941671,7.199970329,1,0,0,1,67,227,88,1,,,,,,,,
,,,,,,,,,,,,,FF,,,,,,,,1.2393,,,,,,,,,,,,,,,,,,,,,,60ffbb189b5e539c9b0af149,61036edb954f3230411e1f1b,2021-07-29_23h16.11.213,Simcolourproject_2stim_asymm_v5,2020.2.10,Win32,60,61025ae37ef11b136ea224fe,,,,,,,,,134,28.00000995,14.79999486,1,0,0,response1disk,,6,13.20000973,4.399994701,1,0,0,rectangle,13.20000973,4.399994701,1,0,0,13.20000973,4.399994701,1,0,0,1,68,228,79,1,,,,,,,,
,,,,,,,,,,,,,FF,,,,,,,,0.9785,,,,,,,,,,,,,,,,,,,,,,60ffbb189b5e539c9b0af149,61036edb954f3230411e1f1b,2021-07-29_23h16.11.213,Simcolourproject_2stim_asymm_v5,2020.2.10,Win32,60,61025ae37ef11b136ea224fe,,,,,,,,,329,28.00000995,37.9999952,1,0,0,response1disk,,7,9.200009674,5.599994719,1,0,0,rectangle,9.200009674,5.599994719,1,0,0,9.200009674,5.599994719,1,0,0,1,69,229,44,1,,,,,,,,
,,,,,,,,,,,,,FF,,,,,,,,1.1267,,,,,,,,,,,,,,,,,,,,,,60ffbb189b5e539c9b0af149,61036edb954f3230411e1f1b,2021-07-29_23h16.11.213,Simcolourproject_2stim_asymm_v5,2020.2.10,Win32,60,61025ae37ef11b136ea224fe,,,,,,,,,1093,36.00001007,18.39999491,1,0,0,response1disk,,6,8.000009656,6.399994731,1,0,0,rectangle,8.000009656,6.399994731,1,0,0,8.000009656,6.399994731,1,0,0,1,70,230,148,1,,,,,,,,
,,,,,,,,,,,,,FF,,,,,,,,1.1175,,,,,,,,,,,,,,,,,,,,,,60ffbb189b5e539c9b0af149,61036edb954f3230411e1f1b,2021-07-29_23h16.11.213,Simcolourproject_2stim_asymm_v5,2020.2.10,Win32,60,61025ae37ef11b136ea224fe,,,,,,,,,3368,22.80000988,51.99999541,1,0,0,response1disk,,7,4.800009608,7.199970329,1,0,0,rectangle,4.800009608,7.199970329,1,0,0,4.800009608,7.199970329,1,0,0,1,71,231,101,1,,,,,,,,
,,,,,,,,,,,,,FF,,,,,,,,1.3508,,,,,,,,,,,,,,,,,,,,,,60ffbb189b5e539c9b0af149,61036edb954f3230411e1f1b,2021-07-29_23h16.11.213,Simcolourproject_2stim_asymm_v5,2020.2.10,Win32,60,61025ae37ef11b136ea224fe,,,,,,,,,3139,24.4000099,-16.40000561,1,0,0,response3disk,,5,-3.999990523,8.799994767,1,0,0,rectangle,-3.999990523,8.799994767,1,0,0,-3.999990523,8.799994767,1,0,0,1,72,232,11,1,,,,,,,,
,,,,,,,,,,,,,FF,,,,,,,,1.6243,,,,,,,,,,,,,,,,,,,,,,60ffbb189b5e539c9b0af149,61036edb954f3230411e1f1b,2021-07-29_23h16.11.213,Simcolourproject_2stim_asymm_v5,2020.2.10,Win32,60,61025ae37ef11b136ea224fe,,,,,,,,,973,-53.99999127,-40.40000597,1,0,0,response5disk,,2,-0.399941641,7.599994749,1,0,0,rectangle,-0.399941641,7.599994749,1,0,0,-0.399941641,7.599994749,1,0,0,1,73,233,24,1,,,,,,,,
,,,,,,,,,,,,,FF,,,,,,,,2.1503,,,,,,,,,,,,,,,,,,,,,,60ffbb189b5e539c9b0af149,61036edb954f3230411e1f1b,2021-07-29_23h16.11.213,Simcolourproject_2stim_asymm_v5,2020.2.10,Win32,60,61025ae37ef11b136ea224fe,,,,,,,,,2221,38.40001011,-23.60000572,1,0,0,response3disk,,5,4.800009608,2.399994671,1,0,0,rectangle,4.800009608,2.399994671,1,0,0,4.800009608,2.399994671,1,0,0,1,74,234,92,1,,,,,,,,
,,,,,,,,,,,,,FF,,,,,,,,1.5028,,,,,,,,,,,,,,,,,,,,,,60ffbb189b5e539c9b0af149,61036edb954f3230411e1f1b,2021-07-29_23h16.11.213,Simcolourproject_2stim_asymm_v5,2020.2.10,Win32,60,61025ae37ef11b136ea224fe,,,,,,,,,1494,35.20001006,-18.40000564,1,0,0,response3disk,,5,-0.799990475,9.599994779,1,0,0,rectangle,-0.799990475,9.599994779,1,0,0,-0.799990475,9.599994779,1,0,0,1,75,235,108,1,,,,,,,,
,,,,,,,,,,,,,FF,,,,,,,,1.1018,,,,,,,,,,,,,,,,,,,,,,60ffbb189b5e539c9b0af149,61036edb954f3230411e1f1b,2021-07-29_23h16.11.213,Simcolourproject_2stim_asymm_v5,2020.2.10,Win32,60,61025ae37ef11b136ea224fe,,,,,,,,,1489,52.00001031,-34.8000303,1,0,0,response3disk,,5,3.600058419,2.799994677,1,0,0,rectangle,3.600058419,2.799994677,1,0,0,3.600058419,2.799994677,1,0,0,1,76,236,69,1,,,,,,,,
,,,,,,,,,,,,,FF,,,,,,,,1.4855,,,,,,,,,,,,,,,,,,,,,,60ffbb189b5e539c9b0af149,61036edb954f3230411e1f1b,2021-07-29_23h16.11.213,Simcolourproject_2stim_asymm_v5,2020.2.10,Win32,60,61025ae37ef11b136ea224fe,,,,,,,,,1317,16.80000979,-28.00000578,1,0,0,response3disk,,4,-1.999990493,6.799994737,1,0,0,rectangle,-1.999990493,6.799994737,1,0,0,-1.999990493,6.799994737,1,0,0,1,77,237,81,1,,,,,,,,
,,,,,,,,,,,,,FF,,,,,,,,1.6189,,,,,,,,,,,,,,,,,,,,,,60ffbb189b5e539c9b0af149,61036edb954f3230411e1f1b,2021-07-29_23h16.11.213,Simcolourproject_2stim_asymm_v5,2020.2.10,Win32,60,61025ae37ef11b136ea224fe,,,,,,,,,3026,17.20000979,-34.00000587,1,0,0,response3disk,,4,-5.999990553,1.999994665,1,0,0,rectangle,-5.999990553,1.999994665,1,0,0,-5.999990553,1.999994665,1,0,0,1,78,238,135,1,,,,,,,,
,,,,,,,,,,,,,FF,,,,,,,,1.1853,,,,,,,,,,,,,,,,,,,,,,60ffbb189b5e539c9b0af149,61036edb954f3230411e1f1b,2021-07-29_23h16.11.213,Simcolourproject_2stim_asymm_v5,2020.2.10,Win32,60,61025ae37ef11b136ea224fe,,,,,,,,,2300,-20.39994194,-20.00000566,1,0,0,response5disk,,2,4.000009596,-5.36442E-06,1,0,0,rectangle,4.000009596,-5.36442E-06,1,0,0,4.000009596,-5.36442E-06,1,0,0,1,79,239,98,1,,,,,,,,
,,,,,,,,,,,,,FF,,,,,,,,1.3033,,,,,,,,,,,,,,,,,,,,,,60ffbb189b5e539c9b0af149,61036edb954f3230411e1f1b,2021-07-29_23h16.11.213,Simcolourproject_2stim_asymm_v5,2020.2.10,Win32,60,61025ae37ef11b136ea224fe,,,,,,,,,107,24.4000099,-32.00000584,1,0,0,response3disk,,4,7.200009644,-1.200005382,1,0,0,rectangle,7.200009644,-1.200005382,1,0,0,7.200009644,-1.200005382,1,0,0,1,80,240,19,1,,,,,,,,
,,,,,,,,,,,,,FF,,,,,,,,1.5332,,,,,,,,,,,,,,,,,,,,,,60ffbb189b5e539c9b0af149,61036edb954f3230411e1f1b,2021-07-29_23h16.11.213,Simcolourproject_2stim_asymm_v5,2020.2.10,Win32,60,61025ae37ef11b136ea224fe,,,,,,,,,2635,21.60005869,35.99999517,1,0,0,response1disk,,7,6.800009638,11.19997039,1,0,0,rectangle,6.800009638,11.19997039,1,0,0,6.800009638,11.19997039,1,0,0,1,81,241,38,1,,,,,,,,
,,,,,,,,,,,,,FF,,,,,,,,1.366,,,,,,,,,,,,,,,,,,,,,,60ffbb189b5e539c9b0af149,61036edb954f3230411e1f1b,2021-07-29_23h16.11.213,Simcolourproject_2stim_asymm_v5,2020.2.10,Win32,60,61025ae37ef11b136ea224fe,,,,,,,,,1331,29.60005881,21.19997054,1,0,0,response1disk,,6,4.800009608,5.599994719,1,0,0,rectangle,4.800009608,5.599994719,1,0,0,4.800009608,5.599994719,1,0,0,1,82,242,70,1,,,,,,,,
,,,,,,,,,,,,,FF,,,,,,,,1.4944,,,,,,,,,,,,,,,,,,,,,,60ffbb189b5e539c9b0af149,61036edb954f3230411e1f1b,2021-07-29_23h16.11.213,Simcolourproject_2stim_asymm_v5,2020.2.10,Win32,60,61025ae37ef11b136ea224fe,,,,,,,,,373,42.00001016,20.79999495,1,0,0,response1disk,,6,12.40000972,9.599994779,1,0,0,rectangle,12.40000972,9.599994779,1,0,0,12.40000972,9.599994779,1,0,0,1,83,243,110,1,,,,,,,,
