key_resp.keys,key_resp.rt,key_resp_14.keys,key_resp_14.rt,key_resp_15.keys,key_resp_15.rt,key_resp_17.keys,key_resp_17.rt,key_resp_9.keys,key_resp_9.rt,key_resp_10.keys,key_resp_10.rt,practice_comparison,Ecc,mouse_5.x,mouse_5.y,mouse_5.leftButton,mouse_5.midButton,mouse_5.rightButton,mouse_5.clicked_name,pracsimilarity,response_time,mouse_10.x,mouse_10.y,mouse_10.leftButton,mouse_10.midButton,mouse_10.rightButton,mouse_10.clicked_name,mouse_7.x,mouse_7.y,mouse_7.leftButton,mouse_7.midButton,mouse_7.rightButton,mouse_6.x,mouse_6.y,mouse_6.leftButton,mouse_6.midButton,mouse_6.rightButton,duringprac.thisRepN,duringprac.thisTrialN,duringprac.thisN,duringprac.thisIndex,duringprac.ran,participant,session,date,expName,psychopyVersion,OS,frameRate,study_id,mouse_7.clicked_name,catchpracsimilarity,catch_response_time,catchnumberprac,catchtrialorderprac,mouse_6.clicked_name,key_resp_22.keys,key_resp_22.rt,realcomparison,mouse.x,mouse.y,mouse.leftButton,mouse.midButton,mouse.rightButton,mouse.clicked_name,Colour2,similarity,mouse_2.x,mouse_2.y,mouse_2.leftButton,mouse_2.midButton,mouse_2.rightButton,mouse_2.clicked_name,mouse_3.x,mouse_3.y,mouse_3.leftButton,mouse_3.midButton,mouse_3.rightButton,mouse_11.x,mouse_11.y,mouse_11.leftButton,mouse_11.midButton,mouse_11.rightButton,trials_2.thisRepN,trials_2.thisTrialN,trials_2.thisN,trials_2.thisIndex,trials_2.ran,Colour1,mouse_3.clicked_name,catchornah,catchsimilarity,catchnumber,catchtrialorder,catchRT,mouse_11.clicked_name
space,0.7995,space,28.4778,space,22.8325,space,8.7504,space,0.7657,space,2.8662,137,PF,-69.80126953,33.44384766,1,0,0,response7disk_5,1,8.2049,11.08862305,-3.3046875,1,0,0,rectangle_8,11.08862305,-3.3046875,1,0,0,11.08862305,-3.3046875,1,0,0,0,0,0,4,1,b60ff4103610b39d6982ec65e,61037730e6c3d654fcdc63e7,2021-07-29_20h55.16.036,Simcolourproject_2stim_asymm_v5,2020.2.10,MacIntel,60,61025ae37ef11b136ea224fe,,,,,,,,,,,,,,,,,,,,,,,,,,,,,,,,,,,,,,,,,,,,,,
,,,,,,,,,,,,124,PF,-80.96472168,-36.52368164,1,0,0,response5disk_5,2,2.8164,0.512695313,-8.124389648,1,0,0,rectangle_8,53.2767334,86.00842285,1,0,0,1.743652344,-2.984680176,1,0,0,0,1,1,1,1,b60ff4103610b39d6982ec65e,61037730e6c3d654fcdc63e7,2021-07-29_20h55.16.036,Simcolourproject_2stim_asymm_v5,2020.2.10,MacIntel,60,61025ae37ef11b136ea224fe,response1disk_7,7,2.3663,7,"[2,5]",rectangle_4,,,,,,,,,,,,,,,,,,,,,,,,,,,,,,,,,,,,,,,,
,,,,,,,,,,,,16,PF,31.69042969,72.972229,1,0,0,response1disk_5,7,2.4154,2.698364258,-3.657775879,1,0,0,rectangle_8,2.698364258,-3.657775879,1,0,0,2.698364258,-3.657775879,1,0,0,0,2,2,6,1,b60ff4103610b39d6982ec65e,61037730e6c3d654fcdc63e7,2021-07-29_20h55.16.036,Simcolourproject_2stim_asymm_v5,2020.2.10,MacIntel,60,61025ae37ef11b136ea224fe,,,,,,,,,,,,,,,,,,,,,,,,,,,,,,,,,,,,,,,,,,,,,,
,,,,,,,,,,,,105,FF,-57.8782959,-36.94348145,1,0,0,response5disk_5,2,1.3497,8.990844727,2.539276123,1,0,0,rectangle_8,8.990844727,2.539276123,1,0,0,8.990844727,2.539276123,1,0,0,0,3,3,0,1,b60ff4103610b39d6982ec65e,61037730e6c3d654fcdc63e7,2021-07-29_20h55.16.036,Simcolourproject_2stim_asymm_v5,2020.2.10,MacIntel,60,61025ae37ef11b136ea224fe,,,,,,,,,,,,,,,,,,,,,,,,,,,,,,,,,,,,,,,,,,,,,,
,,,,,,,,,,,,130,FF,50.27703857,-68.91387939,1,0,0,response3disk_5,4,1.5504,16.65441895,-3.944152832,1,0,0,rectangle_8,46.34204102,75.45730591,1,0,0,6.720581055,-5.718505859,1,0,0,0,4,4,3,1,b60ff4103610b39d6982ec65e,61037730e6c3d654fcdc63e7,2021-07-29_20h55.16.036,Simcolourproject_2stim_asymm_v5,2020.2.10,MacIntel,60,61025ae37ef11b136ea224fe,response1disk_7,7,1.6178,7,"[2,5]",rectangle_4,,,,,,,,,,,,,,,,,,,,,,,,,,,,,,,,,,,,,,,,
,,,,,,,,,,,,157,PF,-38.60650635,-74.90332031,1,0,0,response5disk_5,3,3.0162,15.62890625,6.35723877,1,0,0,rectangle_8,15.62890625,6.35723877,1,0,0,15.62890625,6.35723877,1,0,0,0,5,5,2,1,b60ff4103610b39d6982ec65e,61037730e6c3d654fcdc63e7,2021-07-29_20h55.16.036,Simcolourproject_2stim_asymm_v5,2020.2.10,MacIntel,60,61025ae37ef11b136ea224fe,,,,,,,,,,,,,,,,,,,,,,,,,,,,,,,,,,,,,,,,,,,,,,
,,,,,,,,,,,,76,FF,-25.01715088,-68.01385498,1,0,0,response5disk_5,3,1.3006,4.096862793,-10.63464355,1,0,0,rectangle_8,4.096862793,-10.63464355,1,0,0,4.096862793,-10.63464355,1,0,0,0,6,6,5,1,b60ff4103610b39d6982ec65e,61037730e6c3d654fcdc63e7,2021-07-29_20h55.16.036,Simcolourproject_2stim_asymm_v5,2020.2.10,MacIntel,60,61025ae37ef11b136ea224fe,,,,,,,,,,,,,,,,,,,,,,,,,,,,,,,,,,,,,,,,,,,,,,
,,,,,,,,,,,,,FF,,,,,,,,3.2506,,,,,,,,,,,,,,,,,,,,,,b60ff4103610b39d6982ec65e,61037730e6c3d654fcdc63e7,2021-07-29_20h55.16.036,Simcolourproject_2stim_asymm_v5,2020.2.10,MacIntel,60,61025ae37ef11b136ea224fe,,,,,,,space,3.6273,2122,31.7166748,-77.41680908,1,0,0,response3disk,,4,4.96685791,-8.540618896,1,0,0,rectangle,4.96685791,-8.540618896,1,0,0,4.96685791,-8.540618896,1,0,0,0,0,0,90,1,,,,,,,,
,,,,,,,,,,,,,FF,,,,,,,,2.2831,,,,,,,,,,,,,,,,,,,,,,b60ff4103610b39d6982ec65e,61037730e6c3d654fcdc63e7,2021-07-29_20h55.16.036,Simcolourproject_2stim_asymm_v5,2020.2.10,MacIntel,60,61025ae37ef11b136ea224fe,,,,,,,,,2876,42.64398193,67.02767944,1,0,0,response1disk,,7,11.66381836,1.423492432,1,0,0,rectangle,11.66381836,1.423492432,1,0,0,11.66381836,1.423492432,1,0,0,0,1,1,22,1,,,,,,,,
,,,,,,,,,,,,,FF,,,,,,,,1.9502,,,,,,,,,,,,,,,,,,,,,,b60ff4103610b39d6982ec65e,61037730e6c3d654fcdc63e7,2021-07-29_20h55.16.036,Simcolourproject_2stim_asymm_v5,2020.2.10,MacIntel,60,61025ae37ef11b136ea224fe,,,,,,,,,984,-39.57720947,-87.91137695,1,0,0,response5disk,,3,-6.897705078,-1.680786133,1,0,0,rectangle,-6.897705078,-1.680786133,1,0,0,-6.897705078,-1.680786133,1,0,0,0,2,2,50,1,,,,,,,,
,,,,,,,,,,,,,FF,,,,,,,,1.9661,,,,,,,,,,,,,,,,,,,,,,b60ff4103610b39d6982ec65e,61037730e6c3d654fcdc63e7,2021-07-29_20h55.16.036,Simcolourproject_2stim_asymm_v5,2020.2.10,MacIntel,60,61025ae37ef11b136ea224fe,,,,,,,,,2018,69.16259766,-49.39855957,1,0,0,response3disk,,5,1.366760254,-4.20690918,1,0,0,rectangle,1.366760254,-4.20690918,1,0,0,1.366760254,-4.20690918,1,0,0,0,3,3,36,1,,,,,,,,
,,,,,,,,,,,,,FF,,,,,,,,1.0162,,,,,,,,,,,,,,,,,,,,,,b60ff4103610b39d6982ec65e,61037730e6c3d654fcdc63e7,2021-07-29_20h55.16.036,Simcolourproject_2stim_asymm_v5,2020.2.10,MacIntel,60,61025ae37ef11b136ea224fe,,,,,,,,,833,63.01831055,-35.73971558,1,0,0,response3disk,,5,23.75854492,2.62487793,1,0,0,rectangle,23.75854492,2.62487793,1,0,0,23.75854492,2.62487793,1,0,0,0,4,4,9,1,,,,,,,,
,,,,,,,,,,,,,FF,,,,,,,,2.1495,,,,,,,,,,,,,,,,,,,,,,b60ff4103610b39d6982ec65e,61037730e6c3d654fcdc63e7,2021-07-29_20h55.16.036,Simcolourproject_2stim_asymm_v5,2020.2.10,MacIntel,60,61025ae37ef11b136ea224fe,,,,,,,,,1559,72.84759521,29.42492676,1,0,0,response1disk,,6,4.35949707,7.178741455,1,0,0,rectangle,4.35949707,7.178741455,1,0,0,4.35949707,7.178741455,1,0,0,0,5,5,46,1,,,,,,,,
,,,,,,,,,,,,,FF,,,,,,,,1.7497,,,,,,,,,,,,,,,,,,,,,,b60ff4103610b39d6982ec65e,61037730e6c3d654fcdc63e7,2021-07-29_20h55.16.036,Simcolourproject_2stim_asymm_v5,2020.2.10,MacIntel,60,61025ae37ef11b136ea224fe,,,,,,,,,1579,68.1661377,-20.62072754,1,0,0,response3disk,,5,5.590576172,-7.008422852,1,0,0,rectangle,5.590576172,-7.008422852,1,0,0,5.590576172,-7.008422852,1,0,0,0,6,6,20,1,,,,,,,,
,,,,,,,,,,,,,FF,,,,,,,,1.3999,,,,,,,,,,,,,,,,,,,,,,b60ff4103610b39d6982ec65e,61037730e6c3d654fcdc63e7,2021-07-29_20h55.16.036,Simcolourproject_2stim_asymm_v5,2020.2.10,MacIntel,60,61025ae37ef11b136ea224fe,,,,,,,,,4100,-84.02941895,-41.30935669,1,0,0,response5disk,,2,-13.43444824,-5.27545166,1,0,0,rectangle,-13.43444824,-5.27545166,1,0,0,-13.43444824,-5.27545166,1,0,0,0,7,7,157,1,,,,,,,,
,,,,,,,,,,,,,FF,,,,,,,,1.0173,,,,,,,,,,,,,,,,,,,,,,b60ff4103610b39d6982ec65e,61037730e6c3d654fcdc63e7,2021-07-29_20h55.16.036,Simcolourproject_2stim_asymm_v5,2020.2.10,MacIntel,60,61025ae37ef11b136ea224fe,,,,,,,,,1783,38.64379883,55.540802,1,0,0,response1disk,,7,25.36315918,5.657653809,1,0,0,rectangle,25.36315918,5.657653809,1,0,0,25.36315918,5.657653809,1,0,0,0,8,8,141,1,,,,,,,,
,,,,,,,,,,,,,FF,,,,,,,,1.5674,,,,,,,,,,,,,,,,,,,,,,b60ff4103610b39d6982ec65e,61037730e6c3d654fcdc63e7,2021-07-29_20h55.16.036,Simcolourproject_2stim_asymm_v5,2020.2.10,MacIntel,60,61025ae37ef11b136ea224fe,,,,,,,,,1799,80.38800049,-20.2492981,1,0,0,response3disk,,5,4.79309082,-3.816101074,1,0,0,rectangle,4.79309082,-3.816101074,1,0,0,4.79309082,-3.816101074,1,0,0,0,9,9,27,1,,,,,,,,
,,,,,,,,,,,,,FF,,,,,,,,3.6328,,,,,,,,,,,,,,,,,,,,,,b60ff4103610b39d6982ec65e,61037730e6c3d654fcdc63e7,2021-07-29_20h55.16.036,Simcolourproject_2stim_asymm_v5,2020.2.10,MacIntel,60,61025ae37ef11b136ea224fe,,,,,,,,,1963,-39.83721924,61.5194397,1,0,0,response7disk,,0,-3.326599121,1.477539063,1,0,0,rectangle,-3.326599121,1.477539063,1,0,0,-3.326599121,1.477539063,1,0,0,0,10,10,56,1,,,,,,,,
,,,,,,,,,,,,,FF,,,,,,,,1.3501,,,,,,,,,,,,,,,,,,,,,,b60ff4103610b39d6982ec65e,61037730e6c3d654fcdc63e7,2021-07-29_20h55.16.036,Simcolourproject_2stim_asymm_v5,2020.2.10,MacIntel,60,61025ae37ef11b136ea224fe,,,,,,,,,526,-58.85717773,-33.85424805,1,0,0,response5disk,,2,8.001220703,-9.840270996,1,0,0,rectangle,8.001220703,-9.840270996,1,0,0,8.001220703,-9.840270996,1,0,0,0,11,11,151,1,,,,,,,,
,,,,,,,,,,,,,FF,,,,,,,,1.349,,,,,,,,,,,,,,,,,,,,,,b60ff4103610b39d6982ec65e,61037730e6c3d654fcdc63e7,2021-07-29_20h55.16.036,Simcolourproject_2stim_asymm_v5,2020.2.10,MacIntel,60,61025ae37ef11b136ea224fe,,,,,,,,,1122,26.90875244,68.12960815,1,0,0,response1disk,,7,10.91833496,2.87020874,1,0,0,rectangle,10.91833496,2.87020874,1,0,0,10.91833496,2.87020874,1,0,0,0,12,12,121,1,,,,,,,,
,,,,,,,,,,,,,FF,,,,,,,,1.382,,,,,,,,,,,,,,,,,,,,,,b60ff4103610b39d6982ec65e,61037730e6c3d654fcdc63e7,2021-07-29_20h55.16.036,Simcolourproject_2stim_asymm_v5,2020.2.10,MacIntel,60,61025ae37ef11b136ea224fe,,,,,,,,,3576,61.04217529,23.80874634,1,0,0,response1disk,,6,16.65008545,5.998535156,1,0,0,rectangle,16.65008545,5.998535156,1,0,0,16.65008545,5.998535156,1,0,0,0,13,13,69,1,,,,,,,,
,,,,,,,,,,,,,FF,,,,,,,,1.1834,,,,,,,,,,,,,,,,,,,,,,b60ff4103610b39d6982ec65e,61037730e6c3d654fcdc63e7,2021-07-29_20h55.16.036,Simcolourproject_2stim_asymm_v5,2020.2.10,MacIntel,60,61025ae37ef11b136ea224fe,,,,,,,,,2992,76.5489502,33.41964722,1,0,0,response1disk,,6,19.96850586,4.276367188,1,0,0,rectangle,19.96850586,4.276367188,1,0,0,19.96850586,4.276367188,1,0,0,0,14,14,4,1,,,,,,,,
,,,,,,,,,,,,,FF,,,,,,,,1.1507,,,,,,,,,,,,,,,,,,,,,,b60ff4103610b39d6982ec65e,61037730e6c3d654fcdc63e7,2021-07-29_20h55.16.036,Simcolourproject_2stim_asymm_v5,2020.2.10,MacIntel,60,61025ae37ef11b136ea224fe,,,,,,,,,3166,67.07666016,-34.55551147,1,0,0,response3disk,,5,9.870361328,-17.10418701,1,0,0,rectangle,9.870361328,-17.10418701,1,0,0,9.870361328,-17.10418701,1,0,0,0,15,15,144,1,,,,,,,,
,,,,,,,,,,,,,FF,,,,,,,,1.0673,,,,,,,,,,,,,,,,,,,,,,b60ff4103610b39d6982ec65e,61037730e6c3d654fcdc63e7,2021-07-29_20h55.16.036,Simcolourproject_2stim_asymm_v5,2020.2.10,MacIntel,60,61025ae37ef11b136ea224fe,,,,,,,,,1109,45.36547852,67.33087158,1,0,0,response1disk,,7,18.98626709,13.28314209,1,0,0,rectangle,18.98626709,13.28314209,1,0,0,18.98626709,13.28314209,1,0,0,0,16,16,109,1,,,,,,,,
,,,,,,,,,,,,,FF,,,,,,,,1.2159,,,,,,,,,,,,,,,,,,,,,,b60ff4103610b39d6982ec65e,61037730e6c3d654fcdc63e7,2021-07-29_20h55.16.036,Simcolourproject_2stim_asymm_v5,2020.2.10,MacIntel,60,61025ae37ef11b136ea224fe,,,,,,,,,1399,39.22375488,68.17453003,1,0,0,response1disk,,7,6.013793945,8.40222168,1,0,0,rectangle,6.013793945,8.40222168,1,0,0,6.013793945,8.40222168,1,0,0,0,17,17,98,1,,,,,,,,
,,,,,,,,,,,,,FF,,,,,,,,1.2141,,,,,,,,,,,,,,,,,,,,,,b60ff4103610b39d6982ec65e,61037730e6c3d654fcdc63e7,2021-07-29_20h55.16.036,Simcolourproject_2stim_asymm_v5,2020.2.10,MacIntel,60,61025ae37ef11b136ea224fe,,,,,,,,,4236,-78.32189941,-25.88458252,1,0,0,response5disk,,2,-0.297302246,3.78717041,1,0,0,rectangle,-0.297302246,3.78717041,1,0,0,-0.297302246,3.78717041,1,0,0,0,18,18,73,1,,,,,,,,
,,,,,,,,,,,,,FF,,,,,,,,0.8502,,,,,,,,,,,,,,,,,,,,,,b60ff4103610b39d6982ec65e,61037730e6c3d654fcdc63e7,2021-07-29_20h55.16.036,Simcolourproject_2stim_asymm_v5,2020.2.10,MacIntel,60,61025ae37ef11b136ea224fe,,,,,,,,,2436,58.45794678,37.93704224,1,0,0,response1disk,,6,9.868652344,12.10559082,1,0,0,rectangle,9.868652344,12.10559082,1,0,0,9.868652344,12.10559082,1,0,0,0,19,19,129,1,,,,,,,,
,,,,,,,,,,,,,FF,,,,,,,,1.2322,,,,,,,,,,,,,,,,,,,,,,b60ff4103610b39d6982ec65e,61037730e6c3d654fcdc63e7,2021-07-29_20h55.16.036,Simcolourproject_2stim_asymm_v5,2020.2.10,MacIntel,60,61025ae37ef11b136ea224fe,,,,,,,,,385,67.98223877,50.65936279,1,0,0,response1disk,,6,9.296875,5.155090332,1,0,0,rectangle,9.296875,5.155090332,1,0,0,9.296875,5.155090332,1,0,0,0,20,20,65,1,,,,,,,,
,,,,,,,,,,,,,FF,,,,,,,,1.4493,,,,,,,,,,,,,,,,,,,,,,b60ff4103610b39d6982ec65e,61037730e6c3d654fcdc63e7,2021-07-29_20h55.16.036,Simcolourproject_2stim_asymm_v5,2020.2.10,MacIntel,60,61025ae37ef11b136ea224fe,,,,,,,,,759,39.18151855,63.90307617,1,0,0,response1disk,,7,6.105163574,4.596130371,1,0,0,rectangle,6.105163574,4.596130371,1,0,0,6.105163574,4.596130371,1,0,0,0,21,21,113,1,,,,,,,,
,,,,,,,,,,,,,FF,,,,,,,,1.8001,,,,,,,,,,,,,,,,,,,,,,b60ff4103610b39d6982ec65e,61037730e6c3d654fcdc63e7,2021-07-29_20h55.16.036,Simcolourproject_2stim_asymm_v5,2020.2.10,MacIntel,60,61025ae37ef11b136ea224fe,,,,,,,,,1907,37.62658691,-73.74981689,1,0,0,response3disk,,4,-2.180053711,8.221313477,1,0,0,rectangle,-2.180053711,8.221313477,1,0,0,-2.180053711,8.221313477,1,0,0,0,22,22,0,1,,,,,,,,
,,,,,,,,,,,,,FF,,,,,,,,2.6174,,,,,,,,,,,,,,,,,,,,,,b60ff4103610b39d6982ec65e,61037730e6c3d654fcdc63e7,2021-07-29_20h55.16.036,Simcolourproject_2stim_asymm_v5,2020.2.10,MacIntel,60,61025ae37ef11b136ea224fe,,,,,,,,,3544,80.80499268,23.5010376,1,0,0,response1disk,,6,20.72058105,1.652099609,1,0,0,rectangle,20.72058105,1.652099609,1,0,0,20.72058105,1.652099609,1,0,0,0,23,23,41,1,,,,,,,,
,,,,,,,,,,,,,FF,,,,,,,,1.0334,,,,,,,,,,,,,,,,,,,,,,b60ff4103610b39d6982ec65e,61037730e6c3d654fcdc63e7,2021-07-29_20h55.16.036,Simcolourproject_2stim_asymm_v5,2020.2.10,MacIntel,60,61025ae37ef11b136ea224fe,,,,,,,,,2067,36.08721924,70.75036621,1,0,0,response1disk,,7,11.14367676,2.570983887,1,0,0,rectangle,11.14367676,2.570983887,1,0,0,11.14367676,2.570983887,1,0,0,0,24,24,124,1,,,,,,,,
,,,,,,,,,,,,,FF,,,,,,,,1.3163,,,,,,,,,,,,,,,,,,,,,,b60ff4103610b39d6982ec65e,61037730e6c3d654fcdc63e7,2021-07-29_20h55.16.036,Simcolourproject_2stim_asymm_v5,2020.2.10,MacIntel,60,61025ae37ef11b136ea224fe,,,,,,,,,3442,-51.14434814,-84.38964844,1,0,0,response5disk,,3,-11.75732422,-4.006958008,1,0,0,rectangle,-11.75732422,-4.006958008,1,0,0,-11.75732422,-4.006958008,1,0,0,0,25,25,120,1,,,,,,,,
,,,,,,,,,,,,,FF,,,,,,,,0.9158,,,,,,,,,,,,,,,,,,,,,,b60ff4103610b39d6982ec65e,61037730e6c3d654fcdc63e7,2021-07-29_20h55.16.036,Simcolourproject_2stim_asymm_v5,2020.2.10,MacIntel,60,61025ae37ef11b136ea224fe,,,,,,,,,2240,-38.29943848,-75.29437256,1,0,0,response5disk,,3,-17.17126465,-2.507629395,1,0,0,rectangle,-17.17126465,-2.507629395,1,0,0,-17.17126465,-2.507629395,1,0,0,0,26,26,74,1,,,,,,,,
,,,,,,,,,,,,,FF,,,,,,,,1.101,,,,,,,,,,,,,,,,,,,,,,b60ff4103610b39d6982ec65e,61037730e6c3d654fcdc63e7,2021-07-29_20h55.16.036,Simcolourproject_2stim_asymm_v5,2020.2.10,MacIntel,60,61025ae37ef11b136ea224fe,,,,,,,,,4146,-69.04504395,-34.42181396,1,0,0,response5disk,,2,-12.10717773,-4.415100098,1,0,0,rectangle,-12.10717773,-4.415100098,1,0,0,-12.10717773,-4.415100098,1,0,0,0,27,27,58,1,,,,,,,,
,,,,,,,,,,,,,FF,,,,,,,,1.1662,,,,,,,,,,,,,,,,,,,,,,b60ff4103610b39d6982ec65e,61037730e6c3d654fcdc63e7,2021-07-29_20h55.16.036,Simcolourproject_2stim_asymm_v5,2020.2.10,MacIntel,60,61025ae37ef11b136ea224fe,,,,,,,,,1273,39.83911133,69.902771,1,0,0,response1disk,,7,16.07495117,8.137512207,1,0,0,rectangle,34.71630859,87.90905762,1,0,0,5.703552246,9.936340332,1,0,0,0,28,28,28,1,,response1disk_3,TRUE,7,7,"[29,48,152,277,34,78,172,35,179,165,223,238,142,136,203,184,304,130,150,278]",1.6678,rectangle
,,,,,,,,,,,,,FF,,,,,,,,2.1671,,,,,,,,,,,,,,,,,,,,,,b60ff4103610b39d6982ec65e,61037730e6c3d654fcdc63e7,2021-07-29_20h55.16.036,Simcolourproject_2stim_asymm_v5,2020.2.10,MacIntel,60,61025ae37ef11b136ea224fe,,,,,,,,,2978,31.84106445,71.3258667,1,0,0,response1disk,,7,11.91424561,-3.697998047,1,0,0,rectangle,11.91424561,-3.697998047,1,0,0,11.91424561,-3.697998047,1,0,0,0,29,29,11,1,,,,,,,,
,,,,,,,,,,,,,FF,,,,,,,,1.2169,,,,,,,,,,,,,,,,,,,,,,b60ff4103610b39d6982ec65e,61037730e6c3d654fcdc63e7,2021-07-29_20h55.16.036,Simcolourproject_2stim_asymm_v5,2020.2.10,MacIntel,60,61025ae37ef11b136ea224fe,,,,,,,,,2780,-35.04663086,77.50921631,1,0,0,response7disk,,0,-18.49169922,5.645935059,1,0,0,rectangle,-18.49169922,5.645935059,1,0,0,-18.49169922,5.645935059,1,0,0,0,30,30,107,1,,,,,,,,
,,,,,,,,,,,,,FF,,,,,,,,1.0839,,,,,,,,,,,,,,,,,,,,,,b60ff4103610b39d6982ec65e,61037730e6c3d654fcdc63e7,2021-07-29_20h55.16.036,Simcolourproject_2stim_asymm_v5,2020.2.10,MacIntel,60,61025ae37ef11b136ea224fe,,,,,,,,,1745,-69.51135254,39.22131348,1,0,0,response7disk,,1,-4.576416016,5.51385498,1,0,0,rectangle,-4.576416016,5.51385498,1,0,0,-4.576416016,5.51385498,1,0,0,0,31,31,45,1,,,,,,,,
,,,,,,,,,,,,,FF,,,,,,,,1.4001,,,,,,,,,,,,,,,,,,,,,,b60ff4103610b39d6982ec65e,61037730e6c3d654fcdc63e7,2021-07-29_20h55.16.036,Simcolourproject_2stim_asymm_v5,2020.2.10,MacIntel,60,61025ae37ef11b136ea224fe,,,,,,,,,4298,56.63891602,28.58432007,1,0,0,response1disk,,6,15.65368652,3.801940918,1,0,0,rectangle,15.65368652,3.801940918,1,0,0,15.65368652,3.801940918,1,0,0,0,32,32,63,1,,,,,,,,
,,,,,,,,,,,,,FF,,,,,,,,1.0819,,,,,,,,,,,,,,,,,,,,,,b60ff4103610b39d6982ec65e,61037730e6c3d654fcdc63e7,2021-07-29_20h55.16.036,Simcolourproject_2stim_asymm_v5,2020.2.10,MacIntel,60,61025ae37ef11b136ea224fe,,,,,,,,,3205,-61.58837891,-26.90625,1,0,0,response5disk,,2,2.490112305,-14.06689453,1,0,0,rectangle,32.85839844,-95.04907227,1,0,0,-12.39263916,-6.247924805,1,0,0,0,33,33,83,1,,response3disk_3,TRUE,4,4,"[29,48,152,277,34,78,172,35,179,165,223,238,142,136,203,184,304,130,150,278]",2.1493,rectangle
,,,,,,,,,,,,,FF,,,,,,,,1.5493,,,,,,,,,,,,,,,,,,,,,,b60ff4103610b39d6982ec65e,61037730e6c3d654fcdc63e7,2021-07-29_20h55.16.036,Simcolourproject_2stim_asymm_v5,2020.2.10,MacIntel,60,61025ae37ef11b136ea224fe,,,,,,,,,2041,-43.73376465,-71.94995117,1,0,0,response5disk,,3,12.58776855,-11.11096191,1,0,0,rectangle,-20.94732666,63.40637207,1,0,0,-15.29052734,4.244995117,1,0,0,0,34,34,116,1,,response7disk_3,TRUE,0,0,"[29,48,152,277,34,78,172,35,179,165,223,238,142,136,203,184,304,130,150,278]",1.7336,rectangle
,,,,,,,,,,,,,FF,,,,,,,,0.9334,,,,,,,,,,,,,,,,,,,,,,b60ff4103610b39d6982ec65e,61037730e6c3d654fcdc63e7,2021-07-29_20h55.16.036,Simcolourproject_2stim_asymm_v5,2020.2.10,MacIntel,60,61025ae37ef11b136ea224fe,,,,,,,,,2955,-60.75622559,-25.57904053,1,0,0,response5disk,,2,-18.78753662,0.820251465,1,0,0,rectangle,-18.78753662,0.820251465,1,0,0,-18.78753662,0.820251465,1,0,0,0,35,35,110,1,,,,,,,,
,,,,,,,,,,,,,FF,,,,,,,,1.2329,,,,,,,,,,,,,,,,,,,,,,b60ff4103610b39d6982ec65e,61037730e6c3d654fcdc63e7,2021-07-29_20h55.16.036,Simcolourproject_2stim_asymm_v5,2020.2.10,MacIntel,60,61025ae37ef11b136ea224fe,,,,,,,,,3072,82.61206055,31.59747314,1,0,0,response1disk,,6,21.99298096,7.420715332,1,0,0,rectangle,21.99298096,7.420715332,1,0,0,21.99298096,7.420715332,1,0,0,0,36,36,137,1,,,,,,,,
,,,,,,,,,,,,,FF,,,,,,,,1.4173,,,,,,,,,,,,,,,,,,,,,,b60ff4103610b39d6982ec65e,61037730e6c3d654fcdc63e7,2021-07-29_20h55.16.036,Simcolourproject_2stim_asymm_v5,2020.2.10,MacIntel,60,61025ae37ef11b136ea224fe,,,,,,,,,2553,31.33911133,-81.59936523,1,0,0,response3disk,,4,5.405944824,0.279541016,1,0,0,rectangle,5.405944824,0.279541016,1,0,0,5.405944824,0.279541016,1,0,0,0,37,37,40,1,,,,,,,,
,,,,,,,,,,,,,FF,,,,,,,,1.1661,,,,,,,,,,,,,,,,,,,,,,b60ff4103610b39d6982ec65e,61037730e6c3d654fcdc63e7,2021-07-29_20h55.16.036,Simcolourproject_2stim_asymm_v5,2020.2.10,MacIntel,60,61025ae37ef11b136ea224fe,,,,,,,,,3906,-34.09161377,74.26098633,1,0,0,response7disk,,0,-5.367736816,10.74914551,1,0,0,rectangle,-5.367736816,10.74914551,1,0,0,-5.367736816,10.74914551,1,0,0,0,38,38,16,1,,,,,,,,
,,,,,,,,,,,,,FF,,,,,,,,2.0172,,,,,,,,,,,,,,,,,,,,,,b60ff4103610b39d6982ec65e,61037730e6c3d654fcdc63e7,2021-07-29_20h55.16.036,Simcolourproject_2stim_asymm_v5,2020.2.10,MacIntel,60,61025ae37ef11b136ea224fe,,,,,,,,,3093,68.57427979,34.34564209,1,0,0,response1disk,,6,12.23852539,-1.141784668,1,0,0,rectangle,12.23852539,-1.141784668,1,0,0,12.23852539,-1.141784668,1,0,0,0,39,39,102,1,,,,,,,,
,,,,,,,,,,,,,FF,,,,,,,,1.0339,,,,,,,,,,,,,,,,,,,,,,b60ff4103610b39d6982ec65e,61037730e6c3d654fcdc63e7,2021-07-29_20h55.16.036,Simcolourproject_2stim_asymm_v5,2020.2.10,MacIntel,60,61025ae37ef11b136ea224fe,,,,,,,,,2130,45.88482666,72.04006958,1,0,0,response1disk,,7,17.09881592,9.733520508,1,0,0,rectangle,17.09881592,9.733520508,1,0,0,17.09881592,9.733520508,1,0,0,0,40,40,95,1,,,,,,,,
,,,,,,,,,,,,,FF,,,,,,,,1.2004,,,,,,,,,,,,,,,,,,,,,,b60ff4103610b39d6982ec65e,61037730e6c3d654fcdc63e7,2021-07-29_20h55.16.036,Simcolourproject_2stim_asymm_v5,2020.2.10,MacIntel,60,61025ae37ef11b136ea224fe,,,,,,,,,1537,-33.86602783,-66.08947754,1,0,0,response5disk,,3,-10.42901611,-11.80938721,1,0,0,rectangle,-10.42901611,-11.80938721,1,0,0,-10.42901611,-11.80938721,1,0,0,0,41,41,104,1,,,,,,,,
,,,,,,,,,,,,,FF,,,,,,,,0.8161,,,,,,,,,,,,,,,,,,,,,,b60ff4103610b39d6982ec65e,61037730e6c3d654fcdc63e7,2021-07-29_20h55.16.036,Simcolourproject_2stim_asymm_v5,2020.2.10,MacIntel,60,61025ae37ef11b136ea224fe,,,,,,,,,2447,45.59436035,56.21179199,1,0,0,response1disk,,7,22.64477539,-6.595001221,1,0,0,rectangle,22.64477539,-6.595001221,1,0,0,22.64477539,-6.595001221,1,0,0,0,42,42,72,1,,,,,,,,
,,,,,,,,,,,,,FF,,,,,,,,1.0659,,,,,,,,,,,,,,,,,,,,,,b60ff4103610b39d6982ec65e,61037730e6c3d654fcdc63e7,2021-07-29_20h55.16.036,Simcolourproject_2stim_asymm_v5,2020.2.10,MacIntel,60,61025ae37ef11b136ea224fe,,,,,,,,,4191,35.33026123,60.56378174,1,0,0,response1disk,,7,7.980102539,6.704284668,1,0,0,rectangle,7.980102539,6.704284668,1,0,0,7.980102539,6.704284668,1,0,0,0,43,43,111,1,,,,,,,,
,,,,,,,,,,,,,FF,,,,,,,,0.6493,,,,,,,,,,,,,,,,,,,,,,b60ff4103610b39d6982ec65e,61037730e6c3d654fcdc63e7,2021-07-29_20h55.16.036,Simcolourproject_2stim_asymm_v5,2020.2.10,MacIntel,60,61025ae37ef11b136ea224fe,,,,,,,,,3656,40.11352539,78.28381348,1,0,0,response1disk,,7,5.8671875,3.163269043,1,0,0,rectangle,5.8671875,3.163269043,1,0,0,5.8671875,3.163269043,1,0,0,0,44,44,48,1,,,,,,,,
,,,,,,,,,,,,,FF,,,,,,,,1.9336,,,,,,,,,,,,,,,,,,,,,,b60ff4103610b39d6982ec65e,61037730e6c3d654fcdc63e7,2021-07-29_20h55.16.036,Simcolourproject_2stim_asymm_v5,2020.2.10,MacIntel,60,61025ae37ef11b136ea224fe,,,,,,,,,3844,-37.97052002,-78.0480957,1,0,0,response5disk,,3,-2.855773926,4.213775635,1,0,0,rectangle,-2.855773926,4.213775635,1,0,0,-2.855773926,4.213775635,1,0,0,0,45,45,122,1,,,,,,,,
,,,,,,,,,,,,,FF,,,,,,,,1.6827,,,,,,,,,,,,,,,,,,,,,,b60ff4103610b39d6982ec65e,61037730e6c3d654fcdc63e7,2021-07-29_20h55.16.036,Simcolourproject_2stim_asymm_v5,2020.2.10,MacIntel,60,61025ae37ef11b136ea224fe,,,,,,,,,1154,27.86132813,-70.80181885,1,0,0,response3disk,,4,0.553833008,-0.759307861,1,0,0,rectangle,0.553833008,-0.759307861,1,0,0,0.553833008,-0.759307861,1,0,0,0,46,46,84,1,,,,,,,,
,,,,,,,,,,,,,FF,,,,,,,,1.2343,,,,,,,,,,,,,,,,,,,,,,b60ff4103610b39d6982ec65e,61037730e6c3d654fcdc63e7,2021-07-29_20h55.16.036,Simcolourproject_2stim_asymm_v5,2020.2.10,MacIntel,60,61025ae37ef11b136ea224fe,,,,,,,,,1311,33.26062012,-73.5368042,1,0,0,response3disk,,4,28.74468994,4.274475098,1,0,0,rectangle,30.91156006,83.29553223,1,0,0,-2.181945801,-1.138885498,1,0,0,0,47,47,133,1,,response1disk_3,TRUE,7,7,"[29,48,152,277,34,78,172,35,179,165,223,238,142,136,203,184,304,130,150,278]",1.1821,rectangle
,,,,,,,,,,,,,FF,,,,,,,,1.6016,,,,,,,,,,,,,,,,,,,,,,b60ff4103610b39d6982ec65e,61037730e6c3d654fcdc63e7,2021-07-29_20h55.16.036,Simcolourproject_2stim_asymm_v5,2020.2.10,MacIntel,60,61025ae37ef11b136ea224fe,,,,,,,,,1532,34.02648926,-65.80670166,1,0,0,response3disk,,4,10.59851074,-11.08453369,1,0,0,rectangle,10.59851074,-11.08453369,1,0,0,10.59851074,-11.08453369,1,0,0,0,48,48,26,1,,,,,,,,
,,,,,,,,,,,,,FF,,,,,,,,1.5507,,,,,,,,,,,,,,,,,,,,,,b60ff4103610b39d6982ec65e,61037730e6c3d654fcdc63e7,2021-07-29_20h55.16.036,Simcolourproject_2stim_asymm_v5,2020.2.10,MacIntel,60,61025ae37ef11b136ea224fe,,,,,,,,,975,25.40966797,-53.48406982,1,0,0,response3disk,,4,-10.39868164,-14.67105103,1,0,0,rectangle,-10.39868164,-14.67105103,1,0,0,-10.39868164,-14.67105103,1,0,0,0,49,49,93,1,,,,,,,,
,,,,,,,,,,,,,FF,,,,,,,,0.6842,,,,,,,,,,,,,,,,,,,,,,b60ff4103610b39d6982ec65e,61037730e6c3d654fcdc63e7,2021-07-29_20h55.16.036,Simcolourproject_2stim_asymm_v5,2020.2.10,MacIntel,60,61025ae37ef11b136ea224fe,,,,,,,,,2601,-37.61688232,65.48526001,1,0,0,response7disk,,0,-9.004577637,3.274230957,1,0,0,rectangle,-9.004577637,3.274230957,1,0,0,-9.004577637,3.274230957,1,0,0,0,50,50,142,1,,,,,,,,
,,,,,,,,,,,,,FF,,,,,,,,1.0167,,,,,,,,,,,,,,,,,,,,,,b60ff4103610b39d6982ec65e,61037730e6c3d654fcdc63e7,2021-07-29_20h55.16.036,Simcolourproject_2stim_asymm_v5,2020.2.10,MacIntel,60,61025ae37ef11b136ea224fe,,,,,,,,,1158,-44.10839844,-65.63421631,1,0,0,response5disk,,3,-4.610778809,-9.448364258,1,0,0,rectangle,-4.610778809,-9.448364258,1,0,0,-4.610778809,-9.448364258,1,0,0,0,51,51,60,1,,,,,,,,
,,,,,,,,,,,,,FF,,,,,,,,1.9839,,,,,,,,,,,,,,,,,,,,,,b60ff4103610b39d6982ec65e,61037730e6c3d654fcdc63e7,2021-07-29_20h55.16.036,Simcolourproject_2stim_asymm_v5,2020.2.10,MacIntel,60,61025ae37ef11b136ea224fe,,,,,,,,,2091,74.02001953,22.41943359,1,0,0,response1disk,,6,30.5010376,-9.509307861,1,0,0,rectangle,30.5010376,-9.509307861,1,0,0,30.5010376,-9.509307861,1,0,0,0,52,52,146,1,,,,,,,,
,,,,,,,,,,,,,FF,,,,,,,,1.3335,,,,,,,,,,,,,,,,,,,,,,b60ff4103610b39d6982ec65e,61037730e6c3d654fcdc63e7,2021-07-29_20h55.16.036,Simcolourproject_2stim_asymm_v5,2020.2.10,MacIntel,60,61025ae37ef11b136ea224fe,,,,,,,,,1138,-26.35723877,-64.63391113,1,0,0,response5disk,,3,-12.32843018,-8.894348145,1,0,0,rectangle,-12.32843018,-8.894348145,1,0,0,-12.32843018,-8.894348145,1,0,0,0,53,53,39,1,,,,,,,,
,,,,,,,,,,,,,FF,,,,,,,,0.8005,,,,,,,,,,,,,,,,,,,,,,b60ff4103610b39d6982ec65e,61037730e6c3d654fcdc63e7,2021-07-29_20h55.16.036,Simcolourproject_2stim_asymm_v5,2020.2.10,MacIntel,60,61025ae37ef11b136ea224fe,,,,,,,,,2642,36.04431152,68.04907227,1,0,0,response1disk,,7,12.79772949,-7.593994141,1,0,0,rectangle,12.79772949,-7.593994141,1,0,0,12.79772949,-7.593994141,1,0,0,0,54,54,153,1,,,,,,,,
,,,,,,,,,,,,,FF,,,,,,,,0.7339,,,,,,,,,,,,,,,,,,,,,,b60ff4103610b39d6982ec65e,61037730e6c3d654fcdc63e7,2021-07-29_20h55.16.036,Simcolourproject_2stim_asymm_v5,2020.2.10,MacIntel,60,61025ae37ef11b136ea224fe,,,,,,,,,1349,24.51263428,50.33453369,1,0,0,response1disk,,7,11.83227539,12.51409912,1,0,0,rectangle,11.83227539,12.51409912,1,0,0,11.83227539,12.51409912,1,0,0,0,55,55,55,1,,,,,,,,
,,,,,,,,,,,,,FF,,,,,,,,0.732,,,,,,,,,,,,,,,,,,,,,,b60ff4103610b39d6982ec65e,61037730e6c3d654fcdc63e7,2021-07-29_20h55.16.036,Simcolourproject_2stim_asymm_v5,2020.2.10,MacIntel,60,61025ae37ef11b136ea224fe,,,,,,,,,453,29.35742188,50.14990234,1,0,0,response1disk,,7,11.75439453,12.86950684,1,0,0,rectangle,11.75439453,12.86950684,1,0,0,11.75439453,12.86950684,1,0,0,0,56,56,155,1,,,,,,,,
,,,,,,,,,,,,,FF,,,,,,,,0.5498,,,,,,,,,,,,,,,,,,,,,,b60ff4103610b39d6982ec65e,61037730e6c3d654fcdc63e7,2021-07-29_20h55.16.036,Simcolourproject_2stim_asymm_v5,2020.2.10,MacIntel,60,61025ae37ef11b136ea224fe,,,,,,,,,1501,28.49230957,65.70587158,1,0,0,response1disk,,7,11.11535645,17.5177002,1,0,0,rectangle,11.11535645,17.5177002,1,0,0,11.11535645,17.5177002,1,0,0,0,57,57,59,1,,,,,,,,
,,,,,,,,,,,,,FF,,,,,,,,1.0168,,,,,,,,,,,,,,,,,,,,,,b60ff4103610b39d6982ec65e,61037730e6c3d654fcdc63e7,2021-07-29_20h55.16.036,Simcolourproject_2stim_asymm_v5,2020.2.10,MacIntel,60,61025ae37ef11b136ea224fe,,,,,,,,,1361,64.66918945,28.47473145,1,0,0,response1disk,,6,19.15673828,14.68469238,1,0,0,rectangle,19.15673828,14.68469238,1,0,0,19.15673828,14.68469238,1,0,0,0,58,58,70,1,,,,,,,,
,,,,,,,,,,,,,FF,,,,,,,,1.0835,,,,,,,,,,,,,,,,,,,,,,b60ff4103610b39d6982ec65e,61037730e6c3d654fcdc63e7,2021-07-29_20h55.16.036,Simcolourproject_2stim_asymm_v5,2020.2.10,MacIntel,60,61025ae37ef11b136ea224fe,,,,,,,,,1600,-82.86376953,25.84307861,1,0,0,response7disk,,1,-16.33703613,12.37884521,1,0,0,rectangle,-16.33703613,12.37884521,1,0,0,-16.33703613,12.37884521,1,0,0,0,59,59,13,1,,,,,,,,
,,,,,,,,,,,,,FF,,,,,,,,0.5691,,,,,,,,,,,,,,,,,,,,,,b60ff4103610b39d6982ec65e,61037730e6c3d654fcdc63e7,2021-07-29_20h55.16.036,Simcolourproject_2stim_asymm_v5,2020.2.10,MacIntel,60,61025ae37ef11b136ea224fe,,,,,,,,,454,27.09887695,75.45465088,1,0,0,response1disk,,7,-0.375427246,7.775115967,1,0,0,rectangle,-0.375427246,7.775115967,1,0,0,-0.375427246,7.775115967,1,0,0,0,60,60,31,1,,,,,,,,
,,,,,,,,,,,,,FF,,,,,,,,0.6007,,,,,,,,,,,,,,,,,,,,,,b60ff4103610b39d6982ec65e,61037730e6c3d654fcdc63e7,2021-07-29_20h55.16.036,Simcolourproject_2stim_asymm_v5,2020.2.10,MacIntel,60,61025ae37ef11b136ea224fe,,,,,,,,,3734,27.13562012,62.5479126,1,0,0,response1disk,,7,1.520935059,1.430633545,1,0,0,rectangle,1.520935059,1.430633545,1,0,0,1.520935059,1.430633545,1,0,0,0,61,61,25,1,,,,,,,,
,,,,,,,,,,,,,FF,,,,,,,,0.719,,,,,,,,,,,,,,,,,,,,,,b60ff4103610b39d6982ec65e,61037730e6c3d654fcdc63e7,2021-07-29_20h55.16.036,Simcolourproject_2stim_asymm_v5,2020.2.10,MacIntel,60,61025ae37ef11b136ea224fe,,,,,,,,,1290,-39.52947998,87.2567749,1,0,0,response7disk,,0,-8.203430176,-13.15325928,1,0,0,rectangle,-8.203430176,-13.15325928,1,0,0,-8.203430176,-13.15325928,1,0,0,0,62,62,85,1,,,,,,,,
,,,,,,,,,,,,,FF,,,,,,,,1.3338,,,,,,,,,,,,,,,,,,,,,,b60ff4103610b39d6982ec65e,61037730e6c3d654fcdc63e7,2021-07-29_20h55.16.036,Simcolourproject_2stim_asymm_v5,2020.2.10,MacIntel,60,61025ae37ef11b136ea224fe,,,,,,,,,3830,35.06134033,67.92153931,1,0,0,response1disk,,7,5.7578125,4.39175415,1,0,0,rectangle,5.7578125,4.39175415,1,0,0,5.7578125,4.39175415,1,0,0,0,63,63,152,1,,,,,,,,
,,,,,,,,,,,,,FF,,,,,,,,0.5657,,,,,,,,,,,,,,,,,,,,,,b60ff4103610b39d6982ec65e,61037730e6c3d654fcdc63e7,2021-07-29_20h55.16.036,Simcolourproject_2stim_asymm_v5,2020.2.10,MacIntel,60,61025ae37ef11b136ea224fe,,,,,,,,,2766,26.15960693,50.66699219,1,0,0,response1disk,,7,5.995361328,14.62365723,1,0,0,rectangle,5.995361328,14.62365723,1,0,0,5.995361328,14.62365723,1,0,0,0,64,64,43,1,,,,,,,,
,,,,,,,,,,,,,FF,,,,,,,,0.6836,,,,,,,,,,,,,,,,,,,,,,b60ff4103610b39d6982ec65e,61037730e6c3d654fcdc63e7,2021-07-29_20h55.16.036,Simcolourproject_2stim_asymm_v5,2020.2.10,MacIntel,60,61025ae37ef11b136ea224fe,,,,,,,,,4335,-29.06286621,48.12542725,1,0,0,response7disk,,0,-15.46398926,9.631103516,1,0,0,rectangle,-15.46398926,9.631103516,1,0,0,-15.46398926,9.631103516,1,0,0,0,65,65,96,1,,,,,,,,
,,,,,,,,,,,,,FF,,,,,,,,1.2334,,,,,,,,,,,,,,,,,,,,,,b60ff4103610b39d6982ec65e,61037730e6c3d654fcdc63e7,2021-07-29_20h55.16.036,Simcolourproject_2stim_asymm_v5,2020.2.10,MacIntel,60,61025ae37ef11b136ea224fe,,,,,,,,,16,-56.38183594,-36.67843628,1,0,0,response5disk,,2,-6.13861084,-8.067321777,1,0,0,rectangle,-6.13861084,-8.067321777,1,0,0,-6.13861084,-8.067321777,1,0,0,0,66,66,29,1,,,,,,,,
,,,,,,,,,,,,,FF,,,,,,,,0.6328,,,,,,,,,,,,,,,,,,,,,,b60ff4103610b39d6982ec65e,61037730e6c3d654fcdc63e7,2021-07-29_20h55.16.036,Simcolourproject_2stim_asymm_v5,2020.2.10,MacIntel,60,61025ae37ef11b136ea224fe,,,,,,,,,391,33.74511719,64.62731934,1,0,0,response1disk,,7,6.42565918,0.09387207,1,0,0,rectangle,6.42565918,0.09387207,1,0,0,6.42565918,0.09387207,1,0,0,0,67,67,3,1,,,,,,,,
,,,,,,,,,,,,,FF,,,,,,,,0.9495,,,,,,,,,,,,,,,,,,,,,,b60ff4103610b39d6982ec65e,61037730e6c3d654fcdc63e7,2021-07-29_20h55.16.036,Simcolourproject_2stim_asymm_v5,2020.2.10,MacIntel,60,61025ae37ef11b136ea224fe,,,,,,,,,2032,-51.63500977,-32.89474487,1,0,0,response5disk,,2,6.051513672,-0.089752197,1,0,0,rectangle,6.051513672,-0.089752197,1,0,0,6.051513672,-0.089752197,1,0,0,0,68,68,156,1,,,,,,,,
,,,,,,,,,,,,,FF,,,,,,,,2.6481,,,,,,,,,,,,,,,,,,,,,,b60ff4103610b39d6982ec65e,61037730e6c3d654fcdc63e7,2021-07-29_20h55.16.036,Simcolourproject_2stim_asymm_v5,2020.2.10,MacIntel,60,61025ae37ef11b136ea224fe,,,,,,,,,3700,-45.46392822,-57.46670532,1,0,0,response5disk,,3,-11.97875977,-17.55630493,1,0,0,rectangle,-11.97875977,-17.55630493,1,0,0,-11.97875977,-17.55630493,1,0,0,0,69,69,71,1,,,,,,,,
,,,,,,,,,,,,,FF,,,,,,,,0.7844,,,,,,,,,,,,,,,,,,,,,,b60ff4103610b39d6982ec65e,61037730e6c3d654fcdc63e7,2021-07-29_20h55.16.036,Simcolourproject_2stim_asymm_v5,2020.2.10,MacIntel,60,61025ae37ef11b136ea224fe,,,,,,,,,2884,25.89434814,45.66775513,1,0,0,response1disk,,7,8.81427002,8.280792236,1,0,0,rectangle,8.81427002,8.280792236,1,0,0,8.81427002,8.280792236,1,0,0,0,70,70,76,1,,,,,,,,
,,,,,,,,,,,,,FF,,,,,,,,0.4671,,,,,,,,,,,,,,,,,,,,,,b60ff4103610b39d6982ec65e,61037730e6c3d654fcdc63e7,2021-07-29_20h55.16.036,Simcolourproject_2stim_asymm_v5,2020.2.10,MacIntel,60,61025ae37ef11b136ea224fe,,,,,,,,,1413,26.91711426,54.08654785,1,0,0,response1disk,,7,14.527771,13.37072754,1,0,0,rectangle,14.527771,13.37072754,1,0,0,14.527771,13.37072754,1,0,0,0,71,71,149,1,,,,,,,,
,,,,,,,,,,,,,FF,,,,,,,,0.9505,,,,,,,,,,,,,,,,,,,,,,b60ff4103610b39d6982ec65e,61037730e6c3d654fcdc63e7,2021-07-29_20h55.16.036,Simcolourproject_2stim_asymm_v5,2020.2.10,MacIntel,60,61025ae37ef11b136ea224fe,,,,,,,,,3662,-56.08483887,-17.71252441,1,0,0,response5disk,,2,8.853637695,10.82327271,1,0,0,rectangle,8.853637695,10.82327271,1,0,0,8.853637695,10.82327271,1,0,0,0,72,72,138,1,,,,,,,,
,,,,,,,,,,,,,FF,,,,,,,,0.6001,,,,,,,,,,,,,,,,,,,,,,b60ff4103610b39d6982ec65e,61037730e6c3d654fcdc63e7,2021-07-29_20h55.16.036,Simcolourproject_2stim_asymm_v5,2020.2.10,MacIntel,60,61025ae37ef11b136ea224fe,,,,,,,,,757,28.28753662,56.06695557,1,0,0,response1disk,,7,2.750061035,-3.986022949,1,0,0,rectangle,2.750061035,-3.986022949,1,0,0,2.750061035,-3.986022949,1,0,0,0,73,73,23,1,,,,,,,,
,,,,,,,,,,,,,FF,,,,,,,,1.1981,,,,,,,,,,,,,,,,,,,,,,b60ff4103610b39d6982ec65e,61037730e6c3d654fcdc63e7,2021-07-29_20h55.16.036,Simcolourproject_2stim_asymm_v5,2020.2.10,MacIntel,60,61025ae37ef11b136ea224fe,,,,,,,,,3833,-47.39361572,-58.00799561,1,0,0,response5disk,,3,-9.714599609,-14.04983521,1,0,0,rectangle,-9.714599609,-14.04983521,1,0,0,-9.714599609,-14.04983521,1,0,0,0,74,74,130,1,,,,,,,,
,,,,,,,,,,,,,FF,,,,,,,,1.2831,,,,,,,,,,,,,,,,,,,,,,b60ff4103610b39d6982ec65e,61037730e6c3d654fcdc63e7,2021-07-29_20h55.16.036,Simcolourproject_2stim_asymm_v5,2020.2.10,MacIntel,60,61025ae37ef11b136ea224fe,,,,,,,,,2878,30.55657959,-58.42492676,1,0,0,response3disk,,4,7.408081055,-5.432342529,1,0,0,rectangle,7.408081055,-5.432342529,1,0,0,7.408081055,-5.432342529,1,0,0,0,75,75,103,1,,,,,,,,
,,,,,,,,,,,,,FF,,,,,,,,1.1329,,,,,,,,,,,,,,,,,,,,,,b60ff4103610b39d6982ec65e,61037730e6c3d654fcdc63e7,2021-07-29_20h55.16.036,Simcolourproject_2stim_asymm_v5,2020.2.10,MacIntel,60,61025ae37ef11b136ea224fe,,,,,,,,,108,33.27075195,-46.08932495,1,0,0,response3disk,,4,5.967712402,1.395324707,1,0,0,rectangle,5.967712402,1.395324707,1,0,0,5.967712402,1.395324707,1,0,0,0,76,76,5,1,,,,,,,,
,,,,,,,,,,,,,FF,,,,,,,,1.2673,,,,,,,,,,,,,,,,,,,,,,b60ff4103610b39d6982ec65e,61037730e6c3d654fcdc63e7,2021-07-29_20h55.16.036,Simcolourproject_2stim_asymm_v5,2020.2.10,MacIntel,60,61025ae37ef11b136ea224fe,,,,,,,,,4052,-79.0824585,-39.2394104,1,0,0,response5disk,,2,-11.16870117,-5.886871338,1,0,0,rectangle,-32.29248047,-96.04522705,1,0,0,0.325683594,-6.228637695,1,0,0,0,77,77,8,1,,response5disk_3,TRUE,3,3,"[29,48,152,277,34,78,172,35,179,165,223,238,142,136,203,184,304,130,150,278]",2.1667,rectangle
,,,,,,,,,,,,,FF,,,,,,,,2.4501,,,,,,,,,,,,,,,,,,,,,,b60ff4103610b39d6982ec65e,61037730e6c3d654fcdc63e7,2021-07-29_20h55.16.036,Simcolourproject_2stim_asymm_v5,2020.2.10,MacIntel,60,61025ae37ef11b136ea224fe,,,,,,,,,3769,-48.47058105,-96.92175293,1,0,0,response5disk,,3,-3.311950684,3.296875,1,0,0,rectangle,-3.311950684,3.296875,1,0,0,-3.311950684,3.296875,1,0,0,0,78,78,154,1,,,,,,,,
,,,,,,,,,,,,,FF,,,,,,,,2.6487,,,,,,,,,,,,,,,,,,,,,,b60ff4103610b39d6982ec65e,61037730e6c3d654fcdc63e7,2021-07-29_20h55.16.036,Simcolourproject_2stim_asymm_v5,2020.2.10,MacIntel,60,61025ae37ef11b136ea224fe,,,,,,,,,713,39.65667725,-71.33862305,1,0,0,response3disk,,4,-8.604064941,-1.105895996,1,0,0,rectangle,-8.604064941,-1.105895996,1,0,0,-8.604064941,-1.105895996,1,0,0,0,79,79,123,1,,,,,,,,
,,,,,,,,,,,,,FF,,,,,,,,1.9665,,,,,,,,,,,,,,,,,,,,,,b60ff4103610b39d6982ec65e,61037730e6c3d654fcdc63e7,2021-07-29_20h55.16.036,Simcolourproject_2stim_asymm_v5,2020.2.10,MacIntel,60,61025ae37ef11b136ea224fe,,,,,,,,,3999,-44.06542969,-68.13305664,1,0,0,response5disk,,3,-13.2164917,-9.478515625,1,0,0,rectangle,-13.2164917,-9.478515625,1,0,0,-13.2164917,-9.478515625,1,0,0,0,80,80,77,1,,,,,,,,
,,,,,,,,,,,,,FF,,,,,,,,1.8997,,,,,,,,,,,,,,,,,,,,,,b60ff4103610b39d6982ec65e,61037730e6c3d654fcdc63e7,2021-07-29_20h55.16.036,Simcolourproject_2stim_asymm_v5,2020.2.10,MacIntel,60,61025ae37ef11b136ea224fe,,,,,,,,,74,23.49859619,-83.50036621,1,0,0,response3disk,,4,-0.901123047,-6.450866699,1,0,0,rectangle,-0.901123047,-6.450866699,1,0,0,-0.901123047,-6.450866699,1,0,0,0,81,81,67,1,,,,,,,,
,,,,,,,,,,,,,FF,,,,,,,,3.9321,,,,,,,,,,,,,,,,,,,,,,b60ff4103610b39d6982ec65e,61037730e6c3d654fcdc63e7,2021-07-29_20h55.16.036,Simcolourproject_2stim_asymm_v5,2020.2.10,MacIntel,60,61025ae37ef11b136ea224fe,,,,,,,,,654,37.38916016,-66.16040039,1,0,0,response3disk,,4,18.53778076,-12.49865723,1,0,0,rectangle,18.53778076,-12.49865723,1,0,0,18.53778076,-12.49865723,1,0,0,0,82,82,35,1,,,,,,,,
,,,,,,,,,,,,,FF,,,,,,,,1.901,,,,,,,,,,,,,,,,,,,,,,b60ff4103610b39d6982ec65e,61037730e6c3d654fcdc63e7,2021-07-29_20h55.16.036,Simcolourproject_2stim_asymm_v5,2020.2.10,MacIntel,60,61025ae37ef11b136ea224fe,,,,,,,,,3041,71.44549561,-56.15802002,1,0,0,response3disk,,5,4.090576172,5.583618164,1,0,0,rectangle,4.090576172,5.583618164,1,0,0,4.090576172,5.583618164,1,0,0,0,83,83,80,1,,,,,,,,
,,,,,,,,,,,,,FF,,,,,,,,0.9327,,,,,,,,,,,,,,,,,,,,,,b60ff4103610b39d6982ec65e,61037730e6c3d654fcdc63e7,2021-07-29_20h55.16.036,Simcolourproject_2stim_asymm_v5,2020.2.10,MacIntel,60,61025ae37ef11b136ea224fe,,,,,,,,,2722,-87.1628418,-33.62539673,1,0,0,response5disk,,2,-5.690917969,-0.385009766,1,0,0,rectangle,-5.690917969,-0.385009766,1,0,0,-5.690917969,-0.385009766,1,0,0,0,84,84,88,1,,,,,,,,
,,,,,,,,,,,,,FF,,,,,,,,3.435,,,,,,,,,,,,,,,,,,,,,,b60ff4103610b39d6982ec65e,61037730e6c3d654fcdc63e7,2021-07-29_20h55.16.036,Simcolourproject_2stim_asymm_v5,2020.2.10,MacIntel,60,61025ae37ef11b136ea224fe,,,,,,,,,4068,49.95654297,-23.83004761,1,0,0,response3disk,,5,9.242431641,2.0440979,1,0,0,rectangle,9.242431641,2.0440979,1,0,0,9.242431641,2.0440979,1,0,0,0,85,85,105,1,,,,,,,,
,,,,,,,,,,,,,FF,,,,,,,,1.1829,,,,,,,,,,,,,,,,,,,,,,b60ff4103610b39d6982ec65e,61037730e6c3d654fcdc63e7,2021-07-29_20h55.16.036,Simcolourproject_2stim_asymm_v5,2020.2.10,MacIntel,60,61025ae37ef11b136ea224fe,,,,,,,,,9,26.92358398,-66.02270508,1,0,0,response3disk,,4,9.655517578,-7.536346436,1,0,0,rectangle,9.655517578,-7.536346436,1,0,0,9.655517578,-7.536346436,1,0,0,0,86,86,49,1,,,,,,,,
,,,,,,,,,,,,,FF,,,,,,,,1.0485,,,,,,,,,,,,,,,,,,,,,,b60ff4103610b39d6982ec65e,61037730e6c3d654fcdc63e7,2021-07-29_20h55.16.036,Simcolourproject_2stim_asymm_v5,2020.2.10,MacIntel,60,61025ae37ef11b136ea224fe,,,,,,,,,836,37.06921387,60.59307861,1,0,0,response1disk,,7,15.81750488,5.483154297,1,0,0,rectangle,15.81750488,5.483154297,1,0,0,15.81750488,5.483154297,1,0,0,0,87,87,145,1,,,,,,,,
,,,,,,,,,,,,,FF,,,,,,,,0.5002,,,,,,,,,,,,,,,,,,,,,,b60ff4103610b39d6982ec65e,61037730e6c3d654fcdc63e7,2021-07-29_20h55.16.036,Simcolourproject_2stim_asymm_v5,2020.2.10,MacIntel,60,61025ae37ef11b136ea224fe,,,,,,,,,1650,20.80444336,49.58227539,1,0,0,response1disk,,7,6.093688965,9.049682617,1,0,0,rectangle,6.093688965,9.049682617,1,0,0,6.093688965,9.049682617,1,0,0,0,88,88,52,1,,,,,,,,
,,,,,,,,,,,,,FF,,,,,,,,1.2331,,,,,,,,,,,,,,,,,,,,,,b60ff4103610b39d6982ec65e,61037730e6c3d654fcdc63e7,2021-07-29_20h55.16.036,Simcolourproject_2stim_asymm_v5,2020.2.10,MacIntel,60,61025ae37ef11b136ea224fe,,,,,,,,,3329,-19.85827637,-55.83526611,1,0,0,response5disk,,3,-6.791992188,16.76861572,1,0,0,rectangle,-6.791992188,16.76861572,1,0,0,-6.791992188,16.76861572,1,0,0,0,89,89,37,1,,,,,,,,
,,,,,,,,,,,,,FF,,,,,,,,0.6157,,,,,,,,,,,,,,,,,,,,,,b60ff4103610b39d6982ec65e,61037730e6c3d654fcdc63e7,2021-07-29_20h55.16.036,Simcolourproject_2stim_asymm_v5,2020.2.10,MacIntel,60,61025ae37ef11b136ea224fe,,,,,,,,,950,27.62243652,66.94171143,1,0,0,response1disk,,7,0.5859375,3.39251709,1,0,0,rectangle,0.5859375,3.39251709,1,0,0,0.5859375,3.39251709,1,0,0,0,90,90,18,1,,,,,,,,
,,,,,,,,,,,,,FF,,,,,,,,0.5688,,,,,,,,,,,,,,,,,,,,,,b60ff4103610b39d6982ec65e,61037730e6c3d654fcdc63e7,2021-07-29_20h55.16.036,Simcolourproject_2stim_asymm_v5,2020.2.10,MacIntel,60,61025ae37ef11b136ea224fe,,,,,,,,,570,35.49694824,58.24557495,1,0,0,response1disk,,7,13.77209473,16.00463867,1,0,0,rectangle,13.77209473,16.00463867,1,0,0,13.77209473,16.00463867,1,0,0,0,91,91,81,1,,,,,,,,
,,,,,,,,,,,,,FF,,,,,,,,0.732,,,,,,,,,,,,,,,,,,,,,,b60ff4103610b39d6982ec65e,61037730e6c3d654fcdc63e7,2021-07-29_20h55.16.036,Simcolourproject_2stim_asymm_v5,2020.2.10,MacIntel,60,61025ae37ef11b136ea224fe,,,,,,,,,3134,40.25299072,58.85214233,1,0,0,response1disk,,7,7.512512207,15.8269043,1,0,0,rectangle,7.512512207,15.8269043,1,0,0,7.512512207,15.8269043,1,0,0,0,92,92,135,1,,,,,,,,
,,,,,,,,,,,,,FF,,,,,,,,1.2204,,,,,,,,,,,,,,,,,,,,,,b60ff4103610b39d6982ec65e,61037730e6c3d654fcdc63e7,2021-07-29_20h55.16.036,Simcolourproject_2stim_asymm_v5,2020.2.10,MacIntel,60,61025ae37ef11b136ea224fe,,,,,,,,,3934,-42.01220703,-73.50006104,1,0,0,response5disk,,3,-20.87780762,0.974975586,1,0,0,rectangle,-20.87780762,0.974975586,1,0,0,-20.87780762,0.974975586,1,0,0,0,93,93,143,1,,,,,,,,
,,,,,,,,,,,,,FF,,,,,,,,0.6683,,,,,,,,,,,,,,,,,,,,,,b60ff4103610b39d6982ec65e,61037730e6c3d654fcdc63e7,2021-07-29_20h55.16.036,Simcolourproject_2stim_asymm_v5,2020.2.10,MacIntel,60,61025ae37ef11b136ea224fe,,,,,,,,,490,26.54724121,65.5328064,1,0,0,response1disk,,7,-10.29656982,-11.91009521,1,0,0,rectangle,-10.29656982,-11.91009521,1,0,0,-10.29656982,-11.91009521,1,0,0,0,94,94,75,1,,,,,,,,
,,,,,,,,,,,,,FF,,,,,,,,0.9998,,,,,,,,,,,,,,,,,,,,,,b60ff4103610b39d6982ec65e,61037730e6c3d654fcdc63e7,2021-07-29_20h55.16.036,Simcolourproject_2stim_asymm_v5,2020.2.10,MacIntel,60,61025ae37ef11b136ea224fe,,,,,,,,,607,33.95513916,-66.7232666,1,0,0,response3disk,,4,12.60113525,-8.689025879,1,0,0,rectangle,12.60113525,-8.689025879,1,0,0,12.60113525,-8.689025879,1,0,0,0,95,95,128,1,,,,,,,,
,,,,,,,,,,,,,FF,,,,,,,,0.9338,,,,,,,,,,,,,,,,,,,,,,b60ff4103610b39d6982ec65e,61037730e6c3d654fcdc63e7,2021-07-29_20h55.16.036,Simcolourproject_2stim_asymm_v5,2020.2.10,MacIntel,60,61025ae37ef11b136ea224fe,,,,,,,,,3522,25.82696533,-62.36657715,1,0,0,response3disk,,4,11.15777588,-14.99926758,1,0,0,rectangle,11.15777588,-14.99926758,1,0,0,11.15777588,-14.99926758,1,0,0,0,96,96,44,1,,,,,,,,
,,,,,,,,,,,,,FF,,,,,,,,1.8009,,,,,,,,,,,,,,,,,,,,,,b60ff4103610b39d6982ec65e,61037730e6c3d654fcdc63e7,2021-07-29_20h55.16.036,Simcolourproject_2stim_asymm_v5,2020.2.10,MacIntel,60,61025ae37ef11b136ea224fe,,,,,,,,,3883,30.71795654,33.41470337,1,0,0,response1disk,,7,13.93005371,-1.183898926,1,0,0,rectangle,13.93005371,-1.183898926,1,0,0,13.93005371,-1.183898926,1,0,0,0,97,97,82,1,,,,,,,,
,,,,,,,,,,,,,FF,,,,,,,,0.8024,,,,,,,,,,,,,,,,,,,,,,b60ff4103610b39d6982ec65e,61037730e6c3d654fcdc63e7,2021-07-29_20h55.16.036,Simcolourproject_2stim_asymm_v5,2020.2.10,MacIntel,60,61025ae37ef11b136ea224fe,,,,,,,,,3619,28.07769775,59.58856201,1,0,0,response1disk,,7,-9.701049805,-11.09899902,1,0,0,rectangle,-9.701049805,-11.09899902,1,0,0,-9.701049805,-11.09899902,1,0,0,0,98,98,134,1,,,,,,,,
,,,,,,,,,,,,,FF,,,,,,,,2.0693,,,,,,,,,,,,,,,,,,,,,,b60ff4103610b39d6982ec65e,61037730e6c3d654fcdc63e7,2021-07-29_20h55.16.036,Simcolourproject_2stim_asymm_v5,2020.2.10,MacIntel,60,61025ae37ef11b136ea224fe,,,,,,,,,872,46.07867432,-26.99822998,1,0,0,response3disk,,5,13.28930664,-1.657806396,1,0,0,rectangle,13.28930664,-1.657806396,1,0,0,13.28930664,-1.657806396,1,0,0,0,99,99,6,1,,,,,,,,
,,,,,,,,,,,,,FF,,,,,,,,1.3154,,,,,,,,,,,,,,,,,,,,,,b60ff4103610b39d6982ec65e,61037730e6c3d654fcdc63e7,2021-07-29_20h55.16.036,Simcolourproject_2stim_asymm_v5,2020.2.10,MacIntel,60,61025ae37ef11b136ea224fe,,,,,,,,,2575,36.81707764,40.88665771,1,0,0,response1disk,,7,17.01519775,9.597961426,1,0,0,rectangle,17.01519775,9.597961426,1,0,0,17.01519775,9.597961426,1,0,0,0,100,100,118,1,,,,,,,,
,,,,,,,,,,,,,FF,,,,,,,,0.7004,,,,,,,,,,,,,,,,,,,,,,b60ff4103610b39d6982ec65e,61037730e6c3d654fcdc63e7,2021-07-29_20h55.16.036,Simcolourproject_2stim_asymm_v5,2020.2.10,MacIntel,60,61025ae37ef11b136ea224fe,,,,,,,,,3181,24.10546875,47.76525879,1,0,0,response1disk,,7,13.60858154,7.821868896,1,0,0,rectangle,13.60858154,7.821868896,1,0,0,13.60858154,7.821868896,1,0,0,0,101,101,106,1,,,,,,,,
,,,,,,,,,,,,,FF,,,,,,,,0.5974,,,,,,,,,,,,,,,,,,,,,,b60ff4103610b39d6982ec65e,61037730e6c3d654fcdc63e7,2021-07-29_20h55.16.036,Simcolourproject_2stim_asymm_v5,2020.2.10,MacIntel,60,61025ae37ef11b136ea224fe,,,,,,,,,2175,38.25756836,59.60839844,1,0,0,response1disk,,7,2.051757813,-2.883361816,1,0,0,rectangle,2.051757813,-2.883361816,1,0,0,2.051757813,-2.883361816,1,0,0,0,102,102,158,1,,,,,,,,
,,,,,,,,,,,,,FF,,,,,,,,1.4841,,,,,,,,,,,,,,,,,,,,,,b60ff4103610b39d6982ec65e,61037730e6c3d654fcdc63e7,2021-07-29_20h55.16.036,Simcolourproject_2stim_asymm_v5,2020.2.10,MacIntel,60,61025ae37ef11b136ea224fe,,,,,,,,,631,-67.09716797,41.02069092,1,0,0,response7disk,,1,-7.34979248,11.06243896,1,0,0,rectangle,-7.34979248,11.06243896,1,0,0,-7.34979248,11.06243896,1,0,0,0,103,103,126,1,,,,,,,,
,,,,,,,,,,,,,FF,,,,,,,,0.7184,,,,,,,,,,,,,,,,,,,,,,b60ff4103610b39d6982ec65e,61037730e6c3d654fcdc63e7,2021-07-29_20h55.16.036,Simcolourproject_2stim_asymm_v5,2020.2.10,MacIntel,60,61025ae37ef11b136ea224fe,,,,,,,,,1608,-63.15270996,37.14724731,1,0,0,response7disk,,1,9.107910156,-5.655883789,1,0,0,rectangle,9.107910156,-5.655883789,1,0,0,9.107910156,-5.655883789,1,0,0,0,104,104,108,1,,,,,,,,
,,,,,,,,,,,,,FF,,,,,,,,0.5173,,,,,,,,,,,,,,,,,,,,,,b60ff4103610b39d6982ec65e,61037730e6c3d654fcdc63e7,2021-07-29_20h55.16.036,Simcolourproject_2stim_asymm_v5,2020.2.10,MacIntel,60,61025ae37ef11b136ea224fe,,,,,,,,,527,-59.91442871,27.65509033,1,0,0,response7disk,,1,-20.14794922,9.546936035,1,0,0,rectangle,-20.14794922,9.546936035,1,0,0,-20.14794922,9.546936035,1,0,0,0,105,105,47,1,,,,,,,,
,,,,,,,,,,,,,FF,,,,,,,,0.8666,,,,,,,,,,,,,,,,,,,,,,b60ff4103610b39d6982ec65e,61037730e6c3d654fcdc63e7,2021-07-29_20h55.16.036,Simcolourproject_2stim_asymm_v5,2020.2.10,MacIntel,60,61025ae37ef11b136ea224fe,,,,,,,,,1940,32.82653809,58.8291626,1,0,0,response1disk,,7,5.252929688,4.170898438,1,0,0,rectangle,5.252929688,4.170898438,1,0,0,5.252929688,4.170898438,1,0,0,0,106,106,24,1,,,,,,,,
,,,,,,,,,,,,,FF,,,,,,,,1.45,,,,,,,,,,,,,,,,,,,,,,b60ff4103610b39d6982ec65e,61037730e6c3d654fcdc63e7,2021-07-29_20h55.16.036,Simcolourproject_2stim_asymm_v5,2020.2.10,MacIntel,60,61025ae37ef11b136ea224fe,,,,,,,,,1267,-19.2611084,-43.18188477,1,0,0,response5disk,,3,-0.95916748,2.647399902,1,0,0,rectangle,-0.95916748,2.647399902,1,0,0,-0.95916748,2.647399902,1,0,0,0,107,107,79,1,,,,,,,,
,,,,,,,,,,,,,FF,,,,,,,,1.3161,,,,,,,,,,,,,,,,,,,,,,b60ff4103610b39d6982ec65e,61037730e6c3d654fcdc63e7,2021-07-29_20h55.16.036,Simcolourproject_2stim_asymm_v5,2020.2.10,MacIntel,60,61025ae37ef11b136ea224fe,,,,,,,,,113,39.87084961,-54.9223938,1,0,0,response3disk,,4,18.50036621,-7.597900391,1,0,0,rectangle,18.50036621,-7.597900391,1,0,0,18.50036621,-7.597900391,1,0,0,0,108,108,125,1,,,,,,,,
,,,,,,,,,,,,,FF,,,,,,,,0.8998,,,,,,,,,,,,,,,,,,,,,,b60ff4103610b39d6982ec65e,61037730e6c3d654fcdc63e7,2021-07-29_20h55.16.036,Simcolourproject_2stim_asymm_v5,2020.2.10,MacIntel,60,61025ae37ef11b136ea224fe,,,,,,,,,4211,24.70550537,54.26727295,1,0,0,response1disk,,7,19.40942383,5.839996338,1,0,0,rectangle,19.40942383,5.839996338,1,0,0,19.40942383,5.839996338,1,0,0,0,109,109,2,1,,,,,,,,
,,,,,,,,,,,,,FF,,,,,,,,0.8165,,,,,,,,,,,,,,,,,,,,,,b60ff4103610b39d6982ec65e,61037730e6c3d654fcdc63e7,2021-07-29_20h55.16.036,Simcolourproject_2stim_asymm_v5,2020.2.10,MacIntel,60,61025ae37ef11b136ea224fe,,,,,,,,,2775,-35.91491699,63.70812988,1,0,0,response7disk,,0,-19.71203613,-5.920806885,1,0,0,rectangle,-19.71203613,-5.920806885,1,0,0,-19.71203613,-5.920806885,1,0,0,0,110,110,131,1,,,,,,,,
,,,,,,,,,,,,,FF,,,,,,,,1.3003,,,,,,,,,,,,,,,,,,,,,,b60ff4103610b39d6982ec65e,61037730e6c3d654fcdc63e7,2021-07-29_20h55.16.036,Simcolourproject_2stim_asymm_v5,2020.2.10,MacIntel,60,61025ae37ef11b136ea224fe,,,,,,,,,2312,-28.41381836,-79.73950195,1,0,0,response5disk,,3,-4.028808594,-0.738433838,1,0,0,rectangle,-4.028808594,-0.738433838,1,0,0,-4.028808594,-0.738433838,1,0,0,0,111,111,15,1,,,,,,,,
,,,,,,,,,,,,,FF,,,,,,,,1.3341,,,,,,,,,,,,,,,,,,,,,,b60ff4103610b39d6982ec65e,61037730e6c3d654fcdc63e7,2021-07-29_20h55.16.036,Simcolourproject_2stim_asymm_v5,2020.2.10,MacIntel,60,61025ae37ef11b136ea224fe,,,,,,,,,2638,40.01049805,81.25595093,1,0,0,response1disk,,7,6.144287109,-6.565612793,1,0,0,rectangle,6.144287109,-6.565612793,1,0,0,6.144287109,-6.565612793,1,0,0,0,112,112,17,1,,,,,,,,
,,,,,,,,,,,,,FF,,,,,,,,0.7106,,,,,,,,,,,,,,,,,,,,,,b60ff4103610b39d6982ec65e,61037730e6c3d654fcdc63e7,2021-07-29_20h55.16.036,Simcolourproject_2stim_asymm_v5,2020.2.10,MacIntel,60,61025ae37ef11b136ea224fe,,,,,,,,,962,31.44476318,53.10366821,1,0,0,response1disk,,7,6.838134766,-3.108581543,1,0,0,rectangle,6.838134766,-3.108581543,1,0,0,6.838134766,-3.108581543,1,0,0,0,113,113,97,1,,,,,,,,
,,,,,,,,,,,,,FF,,,,,,,,0.4664,,,,,,,,,,,,,,,,,,,,,,b60ff4103610b39d6982ec65e,61037730e6c3d654fcdc63e7,2021-07-29_20h55.16.036,Simcolourproject_2stim_asymm_v5,2020.2.10,MacIntel,60,61025ae37ef11b136ea224fe,,,,,,,,,1990,26.38269043,40.54492188,1,0,0,response1disk,,7,13.53106689,-7.842956543,1,0,0,rectangle,13.53106689,-7.842956543,1,0,0,13.53106689,-7.842956543,1,0,0,0,114,114,101,1,,,,,,,,
,,,,,,,,,,,,,FF,,,,,,,,1.0172,,,,,,,,,,,,,,,,,,,,,,b60ff4103610b39d6982ec65e,61037730e6c3d654fcdc63e7,2021-07-29_20h55.16.036,Simcolourproject_2stim_asymm_v5,2020.2.10,MacIntel,60,61025ae37ef11b136ea224fe,,,,,,,,,3745,-23.57189941,-72.19586182,1,0,0,response5disk,,3,-4.990478516,-8.807617188,1,0,0,rectangle,-4.990478516,-8.807617188,1,0,0,-4.990478516,-8.807617188,1,0,0,0,115,115,94,1,,,,,,,,
,,,,,,,,,,,,,FF,,,,,,,,0.5998,,,,,,,,,,,,,,,,,,,,,,b60ff4103610b39d6982ec65e,61037730e6c3d654fcdc63e7,2021-07-29_20h55.16.036,Simcolourproject_2stim_asymm_v5,2020.2.10,MacIntel,60,61025ae37ef11b136ea224fe,,,,,,,,,2160,-43.47686768,55.31835938,1,0,0,response7disk,,0,-7.703857422,-12.20578003,1,0,0,rectangle,-7.703857422,-12.20578003,1,0,0,-7.703857422,-12.20578003,1,0,0,0,116,116,114,1,,,,,,,,
,,,,,,,,,,,,,FF,,,,,,,,1.3339,,,,,,,,,,,,,,,,,,,,,,b60ff4103610b39d6982ec65e,61037730e6c3d654fcdc63e7,2021-07-29_20h55.16.036,Simcolourproject_2stim_asymm_v5,2020.2.10,MacIntel,60,61025ae37ef11b136ea224fe,,,,,,,,,3881,-65.30718994,-35.1993103,1,0,0,response5disk,,2,-13.70996094,-17.99267578,1,0,0,rectangle,-13.70996094,-17.99267578,1,0,0,-13.70996094,-17.99267578,1,0,0,0,117,117,61,1,,,,,,,,
,,,,,,,,,,,,,FF,,,,,,,,0.7337,,,,,,,,,,,,,,,,,,,,,,b60ff4103610b39d6982ec65e,61037730e6c3d654fcdc63e7,2021-07-29_20h55.16.036,Simcolourproject_2stim_asymm_v5,2020.2.10,MacIntel,60,61025ae37ef11b136ea224fe,,,,,,,,,2777,-66.89544678,-50.03509521,1,0,0,response5disk,,2,-5.254882813,-0.243560791,1,0,0,rectangle,-5.254882813,-0.243560791,1,0,0,-5.254882813,-0.243560791,1,0,0,0,118,118,53,1,,,,,,,,
,,,,,,,,,,,,,FF,,,,,,,,0.4991,,,,,,,,,,,,,,,,,,,,,,b60ff4103610b39d6982ec65e,61037730e6c3d654fcdc63e7,2021-07-29_20h55.16.036,Simcolourproject_2stim_asymm_v5,2020.2.10,MacIntel,60,61025ae37ef11b136ea224fe,,,,,,,,,2828,-68.23986816,-37.47964478,1,0,0,response5disk,,2,-3.897644043,-11.45013428,1,0,0,rectangle,-3.897644043,-11.45013428,1,0,0,-3.897644043,-11.45013428,1,0,0,0,119,119,99,1,,,,,,,,
,,,,,,,,,,,,,FF,,,,,,,,1.35,,,,,,,,,,,,,,,,,,,,,,b60ff4103610b39d6982ec65e,61037730e6c3d654fcdc63e7,2021-07-29_20h55.16.036,Simcolourproject_2stim_asymm_v5,2020.2.10,MacIntel,60,61025ae37ef11b136ea224fe,,,,,,,,,1328,60.00091553,20.9793396,1,0,0,response1disk,,6,8.334594727,-9.589904785,1,0,0,rectangle,8.334594727,-9.589904785,1,0,0,8.334594727,-9.589904785,1,0,0,0,120,120,19,1,,,,,,,,
,,,,,,,,,,,,,FF,,,,,,,,0.5492,,,,,,,,,,,,,,,,,,,,,,b60ff4103610b39d6982ec65e,61037730e6c3d654fcdc63e7,2021-07-29_20h55.16.036,Simcolourproject_2stim_asymm_v5,2020.2.10,MacIntel,60,61025ae37ef11b136ea224fe,,,,,,,,,4175,24.02392578,56.36639404,1,0,0,response1disk,,7,7.662963867,-1.594726563,1,0,0,rectangle,7.662963867,-1.594726563,1,0,0,7.662963867,-1.594726563,1,0,0,0,121,121,140,1,,,,,,,,
,,,,,,,,,,,,,FF,,,,,,,,0.5664,,,,,,,,,,,,,,,,,,,,,,b60ff4103610b39d6982ec65e,61037730e6c3d654fcdc63e7,2021-07-29_20h55.16.036,Simcolourproject_2stim_asymm_v5,2020.2.10,MacIntel,60,61025ae37ef11b136ea224fe,,,,,,,,,2709,37.90441895,58.14221191,1,0,0,response1disk,,7,16.55957031,8.314880371,1,0,0,rectangle,16.55957031,8.314880371,1,0,0,16.55957031,8.314880371,1,0,0,0,122,122,119,1,,,,,,,,
,,,,,,,,,,,,,FF,,,,,,,,1.2999,,,,,,,,,,,,,,,,,,,,,,b60ff4103610b39d6982ec65e,61037730e6c3d654fcdc63e7,2021-07-29_20h55.16.036,Simcolourproject_2stim_asymm_v5,2020.2.10,MacIntel,60,61025ae37ef11b136ea224fe,,,,,,,,,2216,70.39233398,-32.11779785,1,0,0,response3disk,,5,3.140075684,-10.46972656,1,0,0,rectangle,3.140075684,-10.46972656,1,0,0,3.140075684,-10.46972656,1,0,0,0,123,123,38,1,,,,,,,,
,,,,,,,,,,,,,FF,,,,,,,,0.8494,,,,,,,,,,,,,,,,,,,,,,b60ff4103610b39d6982ec65e,61037730e6c3d654fcdc63e7,2021-07-29_20h55.16.036,Simcolourproject_2stim_asymm_v5,2020.2.10,MacIntel,60,61025ae37ef11b136ea224fe,,,,,,,,,971,-59.7076416,27.14630127,1,0,0,response7disk,,1,-4.2578125,-0.119110107,1,0,0,rectangle,-4.2578125,-0.119110107,1,0,0,-4.2578125,-0.119110107,1,0,0,0,124,124,89,1,,,,,,,,
,,,,,,,,,,,,,FF,,,,,,,,0.7173,,,,,,,,,,,,,,,,,,,,,,b60ff4103610b39d6982ec65e,61037730e6c3d654fcdc63e7,2021-07-29_20h55.16.036,Simcolourproject_2stim_asymm_v5,2020.2.10,MacIntel,60,61025ae37ef11b136ea224fe,,,,,,,,,348,-54.61767578,18.73764038,1,0,0,response7disk,,1,-11.08093262,12.60842896,1,0,0,rectangle,-11.08093262,12.60842896,1,0,0,-11.08093262,12.60842896,1,0,0,0,125,125,87,1,,,,,,,,
,,,,,,,,,,,,,FF,,,,,,,,1.3661,,,,,,,,,,,,,,,,,,,,,,b60ff4103610b39d6982ec65e,61037730e6c3d654fcdc63e7,2021-07-29_20h55.16.036,Simcolourproject_2stim_asymm_v5,2020.2.10,MacIntel,60,61025ae37ef11b136ea224fe,,,,,,,,,104,43.66265869,-65.32421875,1,0,0,response3disk,,4,19.09094238,-7.85333252,1,0,0,rectangle,19.09094238,-7.85333252,1,0,0,19.09094238,-7.85333252,1,0,0,0,126,126,42,1,,,,,,,,
,,,,,,,,,,,,,FF,,,,,,,,1.2492,,,,,,,,,,,,,,,,,,,,,,b60ff4103610b39d6982ec65e,61037730e6c3d654fcdc63e7,2021-07-29_20h55.16.036,Simcolourproject_2stim_asymm_v5,2020.2.10,MacIntel,60,61025ae37ef11b136ea224fe,,,,,,,,,3792,32.33074951,-70.65893555,1,0,0,response3disk,,4,10.11151123,-7.114807129,1,0,0,rectangle,10.11151123,-7.114807129,1,0,0,10.11151123,-7.114807129,1,0,0,0,127,127,66,1,,,,,,,,
,,,,,,,,,,,,,FF,,,,,,,,0.7655,,,,,,,,,,,,,,,,,,,,,,b60ff4103610b39d6982ec65e,61037730e6c3d654fcdc63e7,2021-07-29_20h55.16.036,Simcolourproject_2stim_asymm_v5,2020.2.10,MacIntel,60,61025ae37ef11b136ea224fe,,,,,,,,,236,29.84777832,48.30279541,1,0,0,response1disk,,7,15.47827148,15.13262939,1,0,0,rectangle,15.47827148,15.13262939,1,0,0,15.47827148,15.13262939,1,0,0,0,128,128,32,1,,,,,,,,
,,,,,,,,,,,,,FF,,,,,,,,0.7317,,,,,,,,,,,,,,,,,,,,,,b60ff4103610b39d6982ec65e,61037730e6c3d654fcdc63e7,2021-07-29_20h55.16.036,Simcolourproject_2stim_asymm_v5,2020.2.10,MacIntel,60,61025ae37ef11b136ea224fe,,,,,,,,,1923,31.16772461,53.42114258,1,0,0,response1disk,,7,17.39050293,4.833190918,1,0,0,rectangle,-65.48864746,-38.39984131,1,0,0,4.130432129,1.606658936,1,0,0,0,129,129,14,1,,response5disk_3,TRUE,2,2,"[29,48,152,277,34,78,172,35,179,165,223,238,142,136,203,184,304,130,150,278]",1.8992,rectangle
,,,,,,,,,,,,,FF,,,,,,,,2.1006,,,,,,,,,,,,,,,,,,,,,,b60ff4103610b39d6982ec65e,61037730e6c3d654fcdc63e7,2021-07-29_20h55.16.036,Simcolourproject_2stim_asymm_v5,2020.2.10,MacIntel,60,61025ae37ef11b136ea224fe,,,,,,,,,1581,35.6463623,-63.23193359,1,0,0,response3disk,,4,3.202514648,-2.028625488,1,0,0,rectangle,3.202514648,-2.028625488,1,0,0,3.202514648,-2.028625488,1,0,0,0,130,130,132,1,,,,,,,,
,,,,,,,,,,,,,FF,,,,,,,,0.9163,,,,,,,,,,,,,,,,,,,,,,b60ff4103610b39d6982ec65e,61037730e6c3d654fcdc63e7,2021-07-29_20h55.16.036,Simcolourproject_2stim_asymm_v5,2020.2.10,MacIntel,60,61025ae37ef11b136ea224fe,,,,,,,,,2833,-74.14788818,-38.90011597,1,0,0,response5disk,,2,-11.01062012,-7.276611328,1,0,0,rectangle,-11.01062012,-7.276611328,1,0,0,-11.01062012,-7.276611328,1,0,0,0,131,131,91,1,,,,,,,,
,,,,,,,,,,,,,FF,,,,,,,,0.6319,,,,,,,,,,,,,,,,,,,,,,b60ff4103610b39d6982ec65e,61037730e6c3d654fcdc63e7,2021-07-29_20h55.16.036,Simcolourproject_2stim_asymm_v5,2020.2.10,MacIntel,60,61025ae37ef11b136ea224fe,,,,,,,,,2274,38.09936523,64.57751465,1,0,0,response1disk,,7,8.53894043,11.66680908,1,0,0,rectangle,8.53894043,11.66680908,1,0,0,8.53894043,11.66680908,1,0,0,0,132,132,139,1,,,,,,,,
,,,,,,,,,,,,,FF,,,,,,,,0.6817,,,,,,,,,,,,,,,,,,,,,,b60ff4103610b39d6982ec65e,61037730e6c3d654fcdc63e7,2021-07-29_20h55.16.036,Simcolourproject_2stim_asymm_v5,2020.2.10,MacIntel,60,61025ae37ef11b136ea224fe,,,,,,,,,1740,34.62084961,65.12695313,1,0,0,response1disk,,7,3.702270508,-4.755371094,1,0,0,rectangle,3.702270508,-4.755371094,1,0,0,3.702270508,-4.755371094,1,0,0,0,133,133,127,1,,,,,,,,
,,,,,,,,,,,,,FF,,,,,,,,0.6157,,,,,,,,,,,,,,,,,,,,,,b60ff4103610b39d6982ec65e,61037730e6c3d654fcdc63e7,2021-07-29_20h55.16.036,Simcolourproject_2stim_asymm_v5,2020.2.10,MacIntel,60,61025ae37ef11b136ea224fe,,,,,,,,,4342,31.64831543,57.48455811,1,0,0,response1disk,,7,0.740356445,-2.723205566,1,0,0,rectangle,0.740356445,-2.723205566,1,0,0,0.740356445,-2.723205566,1,0,0,0,134,134,86,1,,,,,,,,
,,,,,,,,,,,,,FF,,,,,,,,0.4503,,,,,,,,,,,,,,,,,,,,,,b60ff4103610b39d6982ec65e,61037730e6c3d654fcdc63e7,2021-07-29_20h55.16.036,Simcolourproject_2stim_asymm_v5,2020.2.10,MacIntel,60,61025ae37ef11b136ea224fe,,,,,,,,,3905,19.86889648,44.65893555,1,0,0,response1disk,,7,0.582458496,10.75595093,1,0,0,rectangle,73.6817627,-47.82513428,1,0,0,4.78503418,4.957336426,1,0,0,0,135,135,1,1,,response3disk_3,TRUE,5,5,"[29,48,152,277,34,78,172,35,179,165,223,238,142,136,203,184,304,130,150,278]",1.8661,rectangle
,,,,,,,,,,,,,FF,,,,,,,,1.2493,,,,,,,,,,,,,,,,,,,,,,b60ff4103610b39d6982ec65e,61037730e6c3d654fcdc63e7,2021-07-29_20h55.16.036,Simcolourproject_2stim_asymm_v5,2020.2.10,MacIntel,60,61025ae37ef11b136ea224fe,,,,,,,,,1849,26.50378418,51.7008667,1,0,0,response1disk,,7,8.014831543,3.484619141,1,0,0,rectangle,8.014831543,3.484619141,1,0,0,8.014831543,3.484619141,1,0,0,0,136,136,117,1,,,,,,,,
,,,,,,,,,,,,,FF,,,,,,,,0.5655,,,,,,,,,,,,,,,,,,,,,,b60ff4103610b39d6982ec65e,61037730e6c3d654fcdc63e7,2021-07-29_20h55.16.036,Simcolourproject_2stim_asymm_v5,2020.2.10,MacIntel,60,61025ae37ef11b136ea224fe,,,,,,,,,1406,37.91662598,70.95812988,1,0,0,response1disk,,7,8.071899414,-7.745880127,1,0,0,rectangle,8.071899414,-7.745880127,1,0,0,8.071899414,-7.745880127,1,0,0,0,137,137,136,1,,,,,,,,
,,,,,,,,,,,,,FF,,,,,,,,0.9845,,,,,,,,,,,,,,,,,,,,,,b60ff4103610b39d6982ec65e,61037730e6c3d654fcdc63e7,2021-07-29_20h55.16.036,Simcolourproject_2stim_asymm_v5,2020.2.10,MacIntel,60,61025ae37ef11b136ea224fe,,,,,,,,,610,-62.40899658,-15.71795654,1,0,0,response5disk,,2,-1.512695313,0.99319458,1,0,0,rectangle,-1.512695313,0.99319458,1,0,0,-1.512695313,0.99319458,1,0,0,0,138,138,150,1,,,,,,,,
,,,,,,,,,,,,,FF,,,,,,,,1.0835,,,,,,,,,,,,,,,,,,,,,,b60ff4103610b39d6982ec65e,61037730e6c3d654fcdc63e7,2021-07-29_20h55.16.036,Simcolourproject_2stim_asymm_v5,2020.2.10,MacIntel,60,61025ae37ef11b136ea224fe,,,,,,,,,3264,39.90100098,75.79925537,1,0,0,response1disk,,7,9.796936035,11.99450684,1,0,0,rectangle,9.796936035,11.99450684,1,0,0,9.796936035,11.99450684,1,0,0,0,139,139,92,1,,,,,,,,
,,,,,,,,,,,,,FF,,,,,,,,1.6674,,,,,,,,,,,,,,,,,,,,,,b60ff4103610b39d6982ec65e,61037730e6c3d654fcdc63e7,2021-07-29_20h55.16.036,Simcolourproject_2stim_asymm_v5,2020.2.10,MacIntel,60,61025ae37ef11b136ea224fe,,,,,,,,,4244,32.15283203,44.54489136,1,0,0,response1disk,,7,15.00183105,-9.277954102,1,0,0,rectangle,15.00183105,-9.277954102,1,0,0,15.00183105,-9.277954102,1,0,0,0,140,140,147,1,,,,,,,,
,,,,,,,,,,,,,FF,,,,,,,,1.0338,,,,,,,,,,,,,,,,,,,,,,b60ff4103610b39d6982ec65e,61037730e6c3d654fcdc63e7,2021-07-29_20h55.16.036,Simcolourproject_2stim_asymm_v5,2020.2.10,MacIntel,60,61025ae37ef11b136ea224fe,,,,,,,,,2763,38.57556152,60.28485107,1,0,0,response1disk,,7,15.49511719,15.58273315,1,0,0,rectangle,41.35168457,-92.01672363,1,0,0,20.71722412,4.566589355,1,0,0,0,141,141,159,1,,response3disk_3,TRUE,4,4,"[29,48,152,277,34,78,172,35,179,165,223,238,142,136,203,184,304,130,150,278]",1.7516,rectangle
,,,,,,,,,,,,,FF,,,,,,,,1.952,,,,,,,,,,,,,,,,,,,,,,b60ff4103610b39d6982ec65e,61037730e6c3d654fcdc63e7,2021-07-29_20h55.16.036,Simcolourproject_2stim_asymm_v5,2020.2.10,MacIntel,60,61025ae37ef11b136ea224fe,,,,,,,,,3311,64.35479736,-34.30218506,1,0,0,response3disk,,5,9.92364502,-3.893768311,1,0,0,rectangle,9.92364502,-3.893768311,1,0,0,9.92364502,-3.893768311,1,0,0,0,142,142,33,1,,,,,,,,
,,,,,,,,,,,,,FF,,,,,,,,0.7844,,,,,,,,,,,,,,,,,,,,,,b60ff4103610b39d6982ec65e,61037730e6c3d654fcdc63e7,2021-07-29_20h55.16.036,Simcolourproject_2stim_asymm_v5,2020.2.10,MacIntel,60,61025ae37ef11b136ea224fe,,,,,,,,,247,-27.00830078,-54.09313965,1,0,0,response5disk,,3,-15.13061523,-7.604309082,1,0,0,rectangle,-15.13061523,-7.604309082,1,0,0,-15.13061523,-7.604309082,1,0,0,0,143,143,78,1,,,,,,,,
,,,,,,,,,,,,,FF,,,,,,,,0.6157,,,,,,,,,,,,,,,,,,,,,,b60ff4103610b39d6982ec65e,61037730e6c3d654fcdc63e7,2021-07-29_20h55.16.036,Simcolourproject_2stim_asymm_v5,2020.2.10,MacIntel,60,61025ae37ef11b136ea224fe,,,,,,,,,1445,-42.70214844,51.6078186,1,0,0,response7disk,,0,-16.40649414,8.532348633,1,0,0,rectangle,-16.40649414,8.532348633,1,0,0,-16.40649414,8.532348633,1,0,0,0,144,144,12,1,,,,,,,,
,,,,,,,,,,,,,FF,,,,,,,,0.7992,,,,,,,,,,,,,,,,,,,,,,b60ff4103610b39d6982ec65e,61037730e6c3d654fcdc63e7,2021-07-29_20h55.16.036,Simcolourproject_2stim_asymm_v5,2020.2.10,MacIntel,60,61025ae37ef11b136ea224fe,,,,,,,,,4086,30.53387451,65.60876465,1,0,0,response1disk,,7,9.129089355,15.13430786,1,0,0,rectangle,9.129089355,15.13430786,1,0,0,9.129089355,15.13430786,1,0,0,0,145,145,115,1,,,,,,,,
,,,,,,,,,,,,,FF,,,,,,,,0.8147,,,,,,,,,,,,,,,,,,,,,,b60ff4103610b39d6982ec65e,61037730e6c3d654fcdc63e7,2021-07-29_20h55.16.036,Simcolourproject_2stim_asymm_v5,2020.2.10,MacIntel,60,61025ae37ef11b136ea224fe,,,,,,,,,4363,-51.15893555,23.92559814,1,0,0,response7disk,,1,9.196044922,-1.136016846,1,0,0,rectangle,9.196044922,-1.136016846,1,0,0,9.196044922,-1.136016846,1,0,0,0,146,146,34,1,,,,,,,,
,,,,,,,,,,,,,FF,,,,,,,,0.5339,,,,,,,,,,,,,,,,,,,,,,b60ff4103610b39d6982ec65e,61037730e6c3d654fcdc63e7,2021-07-29_20h55.16.036,Simcolourproject_2stim_asymm_v5,2020.2.10,MacIntel,60,61025ae37ef11b136ea224fe,,,,,,,,,4226,36.95623779,65.06329346,1,0,0,response1disk,,7,-4.248779297,-9.99041748,1,0,0,rectangle,-4.248779297,-9.99041748,1,0,0,-4.248779297,-9.99041748,1,0,0,0,147,147,68,1,,,,,,,,
,,,,,,,,,,,,,FF,,,,,,,,0.9995,,,,,,,,,,,,,,,,,,,,,,b60ff4103610b39d6982ec65e,61037730e6c3d654fcdc63e7,2021-07-29_20h55.16.036,Simcolourproject_2stim_asymm_v5,2020.2.10,MacIntel,60,61025ae37ef11b136ea224fe,,,,,,,,,1860,40.70147705,65.18212891,1,0,0,response1disk,,7,11.13262939,9.960144043,1,0,0,rectangle,11.13262939,9.960144043,1,0,0,11.13262939,9.960144043,1,0,0,0,148,148,7,1,,,,,,,,
,,,,,,,,,,,,,FF,,,,,,,,1.1832,,,,,,,,,,,,,,,,,,,,,,b60ff4103610b39d6982ec65e,61037730e6c3d654fcdc63e7,2021-07-29_20h55.16.036,Simcolourproject_2stim_asymm_v5,2020.2.10,MacIntel,60,61025ae37ef11b136ea224fe,,,,,,,,,2341,66.96557617,-21.84350586,1,0,0,response3disk,,5,8.539916992,2.684265137,1,0,0,rectangle,-32.16473389,69.72125244,1,0,0,3.166259766,0.753753662,1,0,0,0,149,149,62,1,,response7disk_3,TRUE,0,0,"[29,48,152,277,34,78,172,35,179,165,223,238,142,136,203,184,304,130,150,278]",1.3175,rectangle
,,,,,,,,,,,,,FF,,,,,,,,1.634,,,,,,,,,,,,,,,,,,,,,,b60ff4103610b39d6982ec65e,61037730e6c3d654fcdc63e7,2021-07-29_20h55.16.036,Simcolourproject_2stim_asymm_v5,2020.2.10,MacIntel,60,61025ae37ef11b136ea224fe,,,,,,,,,2224,27.46447754,64.23553467,1,0,0,response1disk,,7,8.623779297,11.79681396,1,0,0,rectangle,8.623779297,11.79681396,1,0,0,8.623779297,11.79681396,1,0,0,0,150,150,10,1,,,,,,,,
,,,,,,,,,,,,,FF,,,,,,,,0.5837,,,,,,,,,,,,,,,,,,,,,,b60ff4103610b39d6982ec65e,61037730e6c3d654fcdc63e7,2021-07-29_20h55.16.036,Simcolourproject_2stim_asymm_v5,2020.2.10,MacIntel,60,61025ae37ef11b136ea224fe,,,,,,,,,883,35.55633545,50.33081055,1,0,0,response1disk,,7,11.99761963,11.81884766,1,0,0,rectangle,37.69256592,91.91412354,1,0,0,9.246948242,5.71862793,1,0,0,0,151,151,54,1,,response1disk_3,TRUE,7,7,"[29,48,152,277,34,78,172,35,179,165,223,238,142,136,203,184,304,130,150,278]",1.3159,rectangle
,,,,,,,,,,,,,FF,,,,,,,,2.1495,,,,,,,,,,,,,,,,,,,,,,b60ff4103610b39d6982ec65e,61037730e6c3d654fcdc63e7,2021-07-29_20h55.16.036,Simcolourproject_2stim_asymm_v5,2020.2.10,MacIntel,60,61025ae37ef11b136ea224fe,,,,,,,,,372,48.57543945,-40.50042725,1,0,0,response3disk,,5,4.952636719,-7.074737549,1,0,0,rectangle,4.952636719,-7.074737549,1,0,0,4.952636719,-7.074737549,1,0,0,0,152,152,21,1,,,,,,,,
,,,,,,,,,,,,,FF,,,,,,,,1.2831,,,,,,,,,,,,,,,,,,,,,,b60ff4103610b39d6982ec65e,61037730e6c3d654fcdc63e7,2021-07-29_20h55.16.036,Simcolourproject_2stim_asymm_v5,2020.2.10,MacIntel,60,61025ae37ef11b136ea224fe,,,,,,,,,1868,24.46325684,57.96902466,1,0,0,response1disk,,7,1.494934082,-7.352783203,1,0,0,rectangle,1.494934082,-7.352783203,1,0,0,1.494934082,-7.352783203,1,0,0,0,153,153,30,1,,,,,,,,
,,,,,,,,,,,,,FF,,,,,,,,3.2,,,,,,,,,,,,,,,,,,,,,,b60ff4103610b39d6982ec65e,61037730e6c3d654fcdc63e7,2021-07-29_20h55.16.036,Simcolourproject_2stim_asymm_v5,2020.2.10,MacIntel,60,61025ae37ef11b136ea224fe,,,,,,,,,4311,47.36242676,-34.80749512,1,0,0,response3disk,,5,21.65625,-14.12744141,1,0,0,rectangle,21.65625,-14.12744141,1,0,0,21.65625,-14.12744141,1,0,0,0,154,154,64,1,,,,,,,,
,,,,,,,,,,,,,FF,,,,,,,,0.9159,,,,,,,,,,,,,,,,,,,,,,b60ff4103610b39d6982ec65e,61037730e6c3d654fcdc63e7,2021-07-29_20h55.16.036,Simcolourproject_2stim_asymm_v5,2020.2.10,MacIntel,60,61025ae37ef11b136ea224fe,,,,,,,,,3133,38.43786621,54.08776855,1,0,0,response1disk,,7,22.37316895,4.226318359,1,0,0,rectangle,22.37316895,4.226318359,1,0,0,22.37316895,4.226318359,1,0,0,0,155,155,112,1,,,,,,,,
,,,,,,,,,,,,,FF,,,,,,,,0.5843,,,,,,,,,,,,,,,,,,,,,,b60ff4103610b39d6982ec65e,61037730e6c3d654fcdc63e7,2021-07-29_20h55.16.036,Simcolourproject_2stim_asymm_v5,2020.2.10,MacIntel,60,61025ae37ef11b136ea224fe,,,,,,,,,2351,31.45739746,44.5234375,1,0,0,response1disk,,7,16.97595215,-2.259338379,1,0,0,rectangle,16.97595215,-2.259338379,1,0,0,16.97595215,-2.259338379,1,0,0,0,156,156,100,1,,,,,,,,
,,,,,,,,,,,,,FF,,,,,,,,1.1335,,,,,,,,,,,,,,,,,,,,,,b60ff4103610b39d6982ec65e,61037730e6c3d654fcdc63e7,2021-07-29_20h55.16.036,Simcolourproject_2stim_asymm_v5,2020.2.10,MacIntel,60,61025ae37ef11b136ea224fe,,,,,,,,,1320,57.88562012,-32.68548584,1,0,0,response3disk,,5,24.80511475,-13.58627319,1,0,0,rectangle,24.80511475,-13.58627319,1,0,0,24.80511475,-13.58627319,1,0,0,0,157,157,57,1,,,,,,,,
,,,,,,,,,,,,,FF,,,,,,,,1.3172,,,,,,,,,,,,,,,,,,,,,,b60ff4103610b39d6982ec65e,61037730e6c3d654fcdc63e7,2021-07-29_20h55.16.036,Simcolourproject_2stim_asymm_v5,2020.2.10,MacIntel,60,61025ae37ef11b136ea224fe,,,,,,,,,1417,38.9329834,56.2611084,1,0,0,response1disk,,7,25.05743408,8.190032959,1,0,0,rectangle,25.05743408,8.190032959,1,0,0,25.05743408,8.190032959,1,0,0,0,158,158,148,1,,,,,,,,
,,,,,,,,,,,,,FF,,,,,,,,1.2156,,,,,,,,,,,,,,,,,,,,,,b60ff4103610b39d6982ec65e,61037730e6c3d654fcdc63e7,2021-07-29_20h55.16.036,Simcolourproject_2stim_asymm_v5,2020.2.10,MacIntel,60,61025ae37ef11b136ea224fe,,,,,,,,,3417,34.30932617,-70.26116943,1,0,0,response3disk,,4,18.10559082,7.784240723,1,0,0,rectangle,18.10559082,7.784240723,1,0,0,18.10559082,7.784240723,1,0,0,0,159,159,51,1,,,,,,,,
,,,,,,,,,,,,,FF,,,,,,,,1.65,,,,,,,,,,,,,,,,,,,,,,b60ff4103610b39d6982ec65e,61037730e6c3d654fcdc63e7,2021-07-29_20h55.16.036,Simcolourproject_2stim_asymm_v5,2020.2.10,MacIntel,60,61025ae37ef11b136ea224fe,,,,,,,,,2122,48.50836182,-33.07418823,1,0,0,response3disk,,5,12.73693848,-4.53125,1,0,0,rectangle,12.73693848,-4.53125,1,0,0,12.73693848,-4.53125,1,0,0,1,0,160,150,1,,,,,,,,
,,,,,,,,,,,,,FF,,,,,,,,1.2005,,,,,,,,,,,,,,,,,,,,,,b60ff4103610b39d6982ec65e,61037730e6c3d654fcdc63e7,2021-07-29_20h55.16.036,Simcolourproject_2stim_asymm_v5,2020.2.10,MacIntel,60,61025ae37ef11b136ea224fe,,,,,,,,,2876,37.63934326,58.76153564,1,0,0,response1disk,,7,17.019104,-3.32623291,1,0,0,rectangle,17.019104,-3.32623291,1,0,0,17.019104,-3.32623291,1,0,0,1,1,161,87,1,,,,,,,,
,,,,,,,,,,,,,FF,,,,,,,,1.7507,,,,,,,,,,,,,,,,,,,,,,b60ff4103610b39d6982ec65e,61037730e6c3d654fcdc63e7,2021-07-29_20h55.16.036,Simcolourproject_2stim_asymm_v5,2020.2.10,MacIntel,60,61025ae37ef11b136ea224fe,,,,,,,,,984,-58.4107666,-29.45263672,1,0,0,response5disk,,2,-25.51306152,2.76184082,1,0,0,rectangle,-25.51306152,2.76184082,1,0,0,-25.51306152,2.76184082,1,0,0,1,2,162,25,1,,,,,,,,
,,,,,,,,,,,,,FF,,,,,,,,0.9829,,,,,,,,,,,,,,,,,,,,,,b60ff4103610b39d6982ec65e,61037730e6c3d654fcdc63e7,2021-07-29_20h55.16.036,Simcolourproject_2stim_asymm_v5,2020.2.10,MacIntel,60,61025ae37ef11b136ea224fe,,,,,,,,,2018,-30.99169922,-54.98901367,1,0,0,response5disk,,3,-10.62817383,1.598052979,1,0,0,rectangle,-10.62817383,1.598052979,1,0,0,-10.62817383,1.598052979,1,0,0,1,3,163,2,1,,,,,,,,
,,,,,,,,,,,,,FF,,,,,,,,0.9506,,,,,,,,,,,,,,,,,,,,,,b60ff4103610b39d6982ec65e,61037730e6c3d654fcdc63e7,2021-07-29_20h55.16.036,Simcolourproject_2stim_asymm_v5,2020.2.10,MacIntel,60,61025ae37ef11b136ea224fe,,,,,,,,,833,31.78973389,59.12405396,1,0,0,response1disk,,7,9.057678223,-1.114685059,1,0,0,rectangle,-76.50305176,35.19042969,1,0,0,-23.64666748,17.37097168,1,0,0,1,4,164,69,1,,response7disk_3,TRUE,1,1,"[29,48,152,277,34,78,172,35,179,165,223,238,142,136,203,184,304,130,150,278]",1.2502,rectangle
,,,,,,,,,,,,,FF,,,,,,,,1.4168,,,,,,,,,,,,,,,,,,,,,,b60ff4103610b39d6982ec65e,61037730e6c3d654fcdc63e7,2021-07-29_20h55.16.036,Simcolourproject_2stim_asymm_v5,2020.2.10,MacIntel,60,61025ae37ef11b136ea224fe,,,,,,,,,1559,30.46514893,61.07348633,1,0,0,response1disk,,7,18.85180664,-13.75680542,1,0,0,rectangle,18.85180664,-13.75680542,1,0,0,18.85180664,-13.75680542,1,0,0,1,5,165,127,1,,,,,,,,
,,,,,,,,,,,,,FF,,,,,,,,0.4812,,,,,,,,,,,,,,,,,,,,,,b60ff4103610b39d6982ec65e,61037730e6c3d654fcdc63e7,2021-07-29_20h55.16.036,Simcolourproject_2stim_asymm_v5,2020.2.10,MacIntel,60,61025ae37ef11b136ea224fe,,,,,,,,,1579,29.32159424,49.12469482,1,0,0,response1disk,,7,13.90716553,1.988739014,1,0,0,rectangle,13.90716553,1.988739014,1,0,0,13.90716553,1.988739014,1,0,0,1,6,166,131,1,,,,,,,,
,,,,,,,,,,,,,FF,,,,,,,,0.966,,,,,,,,,,,,,,,,,,,,,,b60ff4103610b39d6982ec65e,61037730e6c3d654fcdc63e7,2021-07-29_20h55.16.036,Simcolourproject_2stim_asymm_v5,2020.2.10,MacIntel,60,61025ae37ef11b136ea224fe,,,,,,,,,4100,-50.2989502,20.52380371,1,0,0,response7disk,,1,0.492248535,1.83001709,1,0,0,rectangle,0.492248535,1.83001709,1,0,0,0.492248535,1.83001709,1,0,0,1,7,167,70,1,,,,,,,,
,,,,,,,,,,,,,FF,,,,,,,,1.0328,,,,,,,,,,,,,,,,,,,,,,b60ff4103610b39d6982ec65e,61037730e6c3d654fcdc63e7,2021-07-29_20h55.16.036,Simcolourproject_2stim_asymm_v5,2020.2.10,MacIntel,60,61025ae37ef11b136ea224fe,,,,,,,,,1783,39.05358887,56.58496094,1,0,0,response1disk,,7,3.517150879,6.950012207,1,0,0,rectangle,3.517150879,6.950012207,1,0,0,3.517150879,6.950012207,1,0,0,1,8,168,148,1,,,,,,,,
,,,,,,,,,,,,,FF,,,,,,,,1.3166,,,,,,,,,,,,,,,,,,,,,,b60ff4103610b39d6982ec65e,61037730e6c3d654fcdc63e7,2021-07-29_20h55.16.036,Simcolourproject_2stim_asymm_v5,2020.2.10,MacIntel,60,61025ae37ef11b136ea224fe,,,,,,,,,1799,44.4463501,-49.82797241,1,0,0,response3disk,,4,12.71875,4.178039551,1,0,0,rectangle,12.71875,4.178039551,1,0,0,12.71875,4.178039551,1,0,0,1,9,169,105,1,,,,,,,,
,,,,,,,,,,,,,FF,,,,,,,,0.6178,,,,,,,,,,,,,,,,,,,,,,b60ff4103610b39d6982ec65e,61037730e6c3d654fcdc63e7,2021-07-29_20h55.16.036,Simcolourproject_2stim_asymm_v5,2020.2.10,MacIntel,60,61025ae37ef11b136ea224fe,,,,,,,,,1963,-40.90472412,51.89135742,1,0,0,response7disk,,0,0.878173828,-8.266998291,1,0,0,rectangle,0.878173828,-8.266998291,1,0,0,0.878173828,-8.266998291,1,0,0,1,10,170,136,1,,,,,,,,
,,,,,,,,,,,,,FF,,,,,,,,0.8489,,,,,,,,,,,,,,,,,,,,,,b60ff4103610b39d6982ec65e,61037730e6c3d654fcdc63e7,2021-07-29_20h55.16.036,Simcolourproject_2stim_asymm_v5,2020.2.10,MacIntel,60,61025ae37ef11b136ea224fe,,,,,,,,,526,46.16442871,71.93841553,1,0,0,response1disk,,7,16.41937256,7.28729248,1,0,0,rectangle,90.20733643,38.40719604,1,0,0,2.694580078,2.516021729,1,0,0,1,11,171,55,1,,response1disk_3,TRUE,6,6,"[29,48,152,277,34,78,172,35,179,165,223,238,142,136,203,184,304,130,150,278]",1.5502,rectangle
,,,,,,,,,,,,,FF,,,,,,,,1.166,,,,,,,,,,,,,,,,,,,,,,b60ff4103610b39d6982ec65e,61037730e6c3d654fcdc63e7,2021-07-29_20h55.16.036,Simcolourproject_2stim_asymm_v5,2020.2.10,MacIntel,60,61025ae37ef11b136ea224fe,,,,,,,,,1122,29.16479492,70.02505493,1,0,0,response1disk,,7,-0.307617188,2.297729492,1,0,0,rectangle,-0.307617188,2.297729492,1,0,0,-0.307617188,2.297729492,1,0,0,1,12,172,128,1,,,,,,,,
,,,,,,,,,,,,,FF,,,,,,,,0.7329,,,,,,,,,,,,,,,,,,,,,,b60ff4103610b39d6982ec65e,61037730e6c3d654fcdc63e7,2021-07-29_20h55.16.036,Simcolourproject_2stim_asymm_v5,2020.2.10,MacIntel,60,61025ae37ef11b136ea224fe,,,,,,,,,3576,21.62054443,30.46340942,1,0,0,response1disk,,7,8.426269531,-7.680480957,1,0,0,rectangle,8.426269531,-7.680480957,1,0,0,8.426269531,-7.680480957,1,0,0,1,13,173,139,1,,,,,,,,
,,,,,,,,,,,,,FF,,,,,,,,0.5171,,,,,,,,,,,,,,,,,,,,,,b60ff4103610b39d6982ec65e,61037730e6c3d654fcdc63e7,2021-07-29_20h55.16.036,Simcolourproject_2stim_asymm_v5,2020.2.10,MacIntel,60,61025ae37ef11b136ea224fe,,,,,,,,,2992,27.64331055,39.33508301,1,0,0,response1disk,,7,-1.567260742,-7.614746094,1,0,0,rectangle,-1.567260742,-7.614746094,1,0,0,-1.567260742,-7.614746094,1,0,0,1,14,174,20,1,,,,,,,,
,,,,,,,,,,,,,FF,,,,,,,,1.5332,,,,,,,,,,,,,,,,,,,,,,b60ff4103610b39d6982ec65e,61037730e6c3d654fcdc63e7,2021-07-29_20h55.16.036,Simcolourproject_2stim_asymm_v5,2020.2.10,MacIntel,60,61025ae37ef11b136ea224fe,,,,,,,,,3166,31.47363281,-67.48254395,1,0,0,response3disk,,4,1.801025391,-1.303894043,1,0,0,rectangle,1.801025391,-1.303894043,1,0,0,1.801025391,-1.303894043,1,0,0,1,15,175,36,1,,,,,,,,
,,,,,,,,,,,,,FF,,,,,,,,0.5155,,,,,,,,,,,,,,,,,,,,,,b60ff4103610b39d6982ec65e,61037730e6c3d654fcdc63e7,2021-07-29_20h55.16.036,Simcolourproject_2stim_asymm_v5,2020.2.10,MacIntel,60,61025ae37ef11b136ea224fe,,,,,,,,,1109,32.65075684,48.81848145,1,0,0,response1disk,,7,10.29650879,6.544250488,1,0,0,rectangle,10.29650879,6.544250488,1,0,0,10.29650879,6.544250488,1,0,0,1,16,176,66,1,,,,,,,,
,,,,,,,,,,,,,FF,,,,,,,,0.4666,,,,,,,,,,,,,,,,,,,,,,b60ff4103610b39d6982ec65e,61037730e6c3d654fcdc63e7,2021-07-29_20h55.16.036,Simcolourproject_2stim_asymm_v5,2020.2.10,MacIntel,60,61025ae37ef11b136ea224fe,,,,,,,,,1399,32.56634521,38.87268066,1,0,0,response1disk,,7,14.42700195,-10.12680054,1,0,0,rectangle,14.42700195,-10.12680054,1,0,0,14.42700195,-10.12680054,1,0,0,1,17,177,44,1,,,,,,,,
,,,,,,,,,,,,,FF,,,,,,,,0.8017,,,,,,,,,,,,,,,,,,,,,,b60ff4103610b39d6982ec65e,61037730e6c3d654fcdc63e7,2021-07-29_20h55.16.036,Simcolourproject_2stim_asymm_v5,2020.2.10,MacIntel,60,61025ae37ef11b136ea224fe,,,,,,,,,4236,-52.84539795,26.85839844,1,0,0,response7disk,,1,6.202148438,13.16204834,1,0,0,rectangle,39.22473145,66.28503418,1,0,0,2.211120605,-9.875427246,1,0,0,1,18,178,41,1,,response1disk_3,TRUE,7,7,"[29,48,152,277,34,78,172,35,179,165,223,238,142,136,203,184,304,130,150,278]",1.5829,rectangle
,,,,,,,,,,,,,FF,,,,,,,,1.1991,,,,,,,,,,,,,,,,,,,,,,b60ff4103610b39d6982ec65e,61037730e6c3d654fcdc63e7,2021-07-29_20h55.16.036,Simcolourproject_2stim_asymm_v5,2020.2.10,MacIntel,60,61025ae37ef11b136ea224fe,,,,,,,,,2436,-32.73822021,-47.96356201,1,0,0,response5disk,,3,-1.063354492,-3.158355713,1,0,0,rectangle,-1.063354492,-3.158355713,1,0,0,-1.063354492,-3.158355713,1,0,0,1,19,179,149,1,,,,,,,,
,,,,,,,,,,,,,FF,,,,,,,,0.5842,,,,,,,,,,,,,,,,,,,,,,b60ff4103610b39d6982ec65e,61037730e6c3d654fcdc63e7,2021-07-29_20h55.16.036,Simcolourproject_2stim_asymm_v5,2020.2.10,MacIntel,60,61025ae37ef11b136ea224fe,,,,,,,,,385,23.07873535,47.47869873,1,0,0,response1disk,,7,8.567626953,-0.36340332,1,0,0,rectangle,8.567626953,-0.36340332,1,0,0,8.567626953,-0.36340332,1,0,0,1,20,180,134,1,,,,,,,,
,,,,,,,,,,,,,FF,,,,,,,,0.4836,,,,,,,,,,,,,,,,,,,,,,b60ff4103610b39d6982ec65e,61037730e6c3d654fcdc63e7,2021-07-29_20h55.16.036,Simcolourproject_2stim_asymm_v5,2020.2.10,MacIntel,60,61025ae37ef11b136ea224fe,,,,,,,,,759,27.11633301,34.40686035,1,0,0,response1disk,,7,9.444946289,-3.854827881,1,0,0,rectangle,9.444946289,-3.854827881,1,0,0,9.444946289,-3.854827881,1,0,0,1,21,181,1,1,,,,,,,,
,,,,,,,,,,,,,FF,,,,,,,,1.1494,,,,,,,,,,,,,,,,,,,,,,b60ff4103610b39d6982ec65e,61037730e6c3d654fcdc63e7,2021-07-29_20h55.16.036,Simcolourproject_2stim_asymm_v5,2020.2.10,MacIntel,60,61025ae37ef11b136ea224fe,,,,,,,,,1907,-19.62072754,-46.15570068,1,0,0,response5disk,,3,-1.867980957,0.544616699,1,0,0,rectangle,-1.867980957,0.544616699,1,0,0,-1.867980957,0.544616699,1,0,0,1,22,182,12,1,,,,,,,,
,,,,,,,,,,,,,FF,,,,,,,,1.5173,,,,,,,,,,,,,,,,,,,,,,b60ff4103610b39d6982ec65e,61037730e6c3d654fcdc63e7,2021-07-29_20h55.16.036,Simcolourproject_2stim_asymm_v5,2020.2.10,MacIntel,60,61025ae37ef11b136ea224fe,,,,,,,,,3544,-67.06860352,36.73553467,1,0,0,response7disk,,1,-2.433959961,7.292175293,1,0,0,rectangle,-74.625,25.3583374,1,0,0,-34.48876953,13.06463623,1,0,0,1,23,183,111,1,,response7disk_3,TRUE,1,1,"[29,48,152,277,34,78,172,35,179,165,223,238,142,136,203,184,304,130,150,278]",1.8505,rectangle
,,,,,,,,,,,,,FF,,,,,,,,0.7338,,,,,,,,,,,,,,,,,,,,,,b60ff4103610b39d6982ec65e,61037730e6c3d654fcdc63e7,2021-07-29_20h55.16.036,Simcolourproject_2stim_asymm_v5,2020.2.10,MacIntel,60,61025ae37ef11b136ea224fe,,,,,,,,,2067,28.68896484,62.54754639,1,0,0,response1disk,,7,6.674682617,-8.115722656,1,0,0,rectangle,6.674682617,-8.115722656,1,0,0,6.674682617,-8.115722656,1,0,0,1,24,184,22,1,,,,,,,,
,,,,,,,,,,,,,FF,,,,,,,,0.9175,,,,,,,,,,,,,,,,,,,,,,b60ff4103610b39d6982ec65e,61037730e6c3d654fcdc63e7,2021-07-29_20h55.16.036,Simcolourproject_2stim_asymm_v5,2020.2.10,MacIntel,60,61025ae37ef11b136ea224fe,,,,,,,,,3442,-27.10827637,-64.68041992,1,0,0,response5disk,,3,-10.94030762,-7.211853027,1,0,0,rectangle,-10.94030762,-7.211853027,1,0,0,-10.94030762,-7.211853027,1,0,0,1,25,185,137,1,,,,,,,,
,,,,,,,,,,,,,FF,,,,,,,,0.8169,,,,,,,,,,,,,,,,,,,,,,b60ff4103610b39d6982ec65e,61037730e6c3d654fcdc63e7,2021-07-29_20h55.16.036,Simcolourproject_2stim_asymm_v5,2020.2.10,MacIntel,60,61025ae37ef11b136ea224fe,,,,,,,,,2240,-34.34997559,-47.97171021,1,0,0,response5disk,,3,-11.80169678,-2.673370361,1,0,0,rectangle,-11.80169678,-2.673370361,1,0,0,-11.80169678,-2.673370361,1,0,0,1,26,186,96,1,,,,,,,,
,,,,,,,,,,,,,FF,,,,,,,,0.8345,,,,,,,,,,,,,,,,,,,,,,b60ff4103610b39d6982ec65e,61037730e6c3d654fcdc63e7,2021-07-29_20h55.16.036,Simcolourproject_2stim_asymm_v5,2020.2.10,MacIntel,60,61025ae37ef11b136ea224fe,,,,,,,,,4146,-65.32836914,-34.80255127,1,0,0,response5disk,,2,-7.606323242,1.128936768,1,0,0,rectangle,-7.606323242,1.128936768,1,0,0,-7.606323242,1.128936768,1,0,0,1,27,187,38,1,,,,,,,,
,,,,,,,,,,,,,FF,,,,,,,,0.6,,,,,,,,,,,,,,,,,,,,,,b60ff4103610b39d6982ec65e,61037730e6c3d654fcdc63e7,2021-07-29_20h55.16.036,Simcolourproject_2stim_asymm_v5,2020.2.10,MacIntel,60,61025ae37ef11b136ea224fe,,,,,,,,,1273,24.95501709,54.28192139,1,0,0,response1disk,,7,15.25012207,-1.883422852,1,0,0,rectangle,15.25012207,-1.883422852,1,0,0,15.25012207,-1.883422852,1,0,0,1,28,188,61,1,,,,,,,,
,,,,,,,,,,,,,FF,,,,,,,,0.967,,,,,,,,,,,,,,,,,,,,,,b60ff4103610b39d6982ec65e,61037730e6c3d654fcdc63e7,2021-07-29_20h55.16.036,Simcolourproject_2stim_asymm_v5,2020.2.10,MacIntel,60,61025ae37ef11b136ea224fe,,,,,,,,,2978,29.11627197,55.2461853,1,0,0,response1disk,,7,15.10290527,10.57958984,1,0,0,rectangle,15.10290527,10.57958984,1,0,0,15.10290527,10.57958984,1,0,0,1,29,189,27,1,,,,,,,,
,,,,,,,,,,,,,FF,,,,,,,,0.6987,,,,,,,,,,,,,,,,,,,,,,b60ff4103610b39d6982ec65e,61037730e6c3d654fcdc63e7,2021-07-29_20h55.16.036,Simcolourproject_2stim_asymm_v5,2020.2.10,MacIntel,60,61025ae37ef11b136ea224fe,,,,,,,,,2780,-47.93701172,32.89486694,1,0,0,response7disk,,1,10.22668457,11.21099854,1,0,0,rectangle,10.22668457,11.21099854,1,0,0,10.22668457,11.21099854,1,0,0,1,30,190,126,1,,,,,,,,
,,,,,,,,,,,,,FF,,,,,,,,0.5167,,,,,,,,,,,,,,,,,,,,,,b60ff4103610b39d6982ec65e,61037730e6c3d654fcdc63e7,2021-07-29_20h55.16.036,Simcolourproject_2stim_asymm_v5,2020.2.10,MacIntel,60,61025ae37ef11b136ea224fe,,,,,,,,,1745,-50.17401123,32.34875488,1,0,0,response7disk,,1,1.101989746,6.175720215,1,0,0,rectangle,1.101989746,6.175720215,1,0,0,1.101989746,6.175720215,1,0,0,1,31,191,28,1,,,,,,,,
,,,,,,,,,,,,,FF,,,,,,,,0.4819,,,,,,,,,,,,,,,,,,,,,,b60ff4103610b39d6982ec65e,61037730e6c3d654fcdc63e7,2021-07-29_20h55.16.036,Simcolourproject_2stim_asymm_v5,2020.2.10,MacIntel,60,61025ae37ef11b136ea224fe,,,,,,,,,4298,24.64581299,53.23822021,1,0,0,response1disk,,7,0.663391113,-13.66467285,1,0,0,rectangle,0.663391113,-13.66467285,1,0,0,0.663391113,-13.66467285,1,0,0,1,32,192,125,1,,,,,,,,
,,,,,,,,,,,,,FF,,,,,,,,0.6664,,,,,,,,,,,,,,,,,,,,,,b60ff4103610b39d6982ec65e,61037730e6c3d654fcdc63e7,2021-07-29_20h55.16.036,Simcolourproject_2stim_asymm_v5,2020.2.10,MacIntel,60,61025ae37ef11b136ea224fe,,,,,,,,,3205,-63.29467773,34.03417969,1,0,0,response7disk,,1,-1.133911133,7.726623535,1,0,0,rectangle,-1.133911133,7.726623535,1,0,0,-1.133911133,7.726623535,1,0,0,1,33,193,8,1,,,,,,,,
,,,,,,,,,,,,,FF,,,,,,,,0.4997,,,,,,,,,,,,,,,,,,,,,,b60ff4103610b39d6982ec65e,61037730e6c3d654fcdc63e7,2021-07-29_20h55.16.036,Simcolourproject_2stim_asymm_v5,2020.2.10,MacIntel,60,61025ae37ef11b136ea224fe,,,,,,,,,2041,26.56695557,50.76062012,1,0,0,response1disk,,7,-6.627929688,-1.934051514,1,0,0,rectangle,-6.627929688,-1.934051514,1,0,0,-6.627929688,-1.934051514,1,0,0,1,34,194,75,1,,,,,,,,
,,,,,,,,,,,,,FF,,,,,,,,0.9503,,,,,,,,,,,,,,,,,,,,,,b60ff4103610b39d6982ec65e,61037730e6c3d654fcdc63e7,2021-07-29_20h55.16.036,Simcolourproject_2stim_asymm_v5,2020.2.10,MacIntel,60,61025ae37ef11b136ea224fe,,,,,,,,,2955,54.45684814,-35.19958496,1,0,0,response3disk,,5,15.50640869,-14.31048584,1,0,0,rectangle,15.50640869,-14.31048584,1,0,0,15.50640869,-14.31048584,1,0,0,1,35,195,112,1,,,,,,,,
,,,,,,,,,,,,,FF,,,,,,,,0.5344,,,,,,,,,,,,,,,,,,,,,,b60ff4103610b39d6982ec65e,61037730e6c3d654fcdc63e7,2021-07-29_20h55.16.036,Simcolourproject_2stim_asymm_v5,2020.2.10,MacIntel,60,61025ae37ef11b136ea224fe,,,,,,,,,3072,34.03509521,56.64556885,1,0,0,response1disk,,7,14.67016602,14.50888062,1,0,0,rectangle,14.67016602,14.50888062,1,0,0,14.67016602,14.50888062,1,0,0,1,36,196,79,1,,,,,,,,
,,,,,,,,,,,,,FF,,,,,,,,0.8502,,,,,,,,,,,,,,,,,,,,,,b60ff4103610b39d6982ec65e,61037730e6c3d654fcdc63e7,2021-07-29_20h55.16.036,Simcolourproject_2stim_asymm_v5,2020.2.10,MacIntel,60,61025ae37ef11b136ea224fe,,,,,,,,,2553,30.93200684,59.66799927,1,0,0,response1disk,,7,10.84838867,12.06054688,1,0,0,rectangle,10.84838867,12.06054688,1,0,0,10.84838867,12.06054688,1,0,0,1,37,197,123,1,,,,,,,,
,,,,,,,,,,,,,FF,,,,,,,,0.7326,,,,,,,,,,,,,,,,,,,,,,b60ff4103610b39d6982ec65e,61037730e6c3d654fcdc63e7,2021-07-29_20h55.16.036,Simcolourproject_2stim_asymm_v5,2020.2.10,MacIntel,60,61025ae37ef11b136ea224fe,,,,,,,,,3906,-28.49902344,55.94503784,1,0,0,response7disk,,0,-8.692749023,8.836730957,1,0,0,rectangle,-8.692749023,8.836730957,1,0,0,-8.692749023,8.836730957,1,0,0,1,38,198,153,1,,,,,,,,
,,,,,,,,,,,,,FF,,,,,,,,1.05,,,,,,,,,,,,,,,,,,,,,,b60ff4103610b39d6982ec65e,61037730e6c3d654fcdc63e7,2021-07-29_20h55.16.036,Simcolourproject_2stim_asymm_v5,2020.2.10,MacIntel,60,61025ae37ef11b136ea224fe,,,,,,,,,3093,-30.84411621,-57.25311279,1,0,0,response5disk,,3,-12.27258301,-7.523376465,1,0,0,rectangle,-12.27258301,-7.523376465,1,0,0,-12.27258301,-7.523376465,1,0,0,1,39,199,129,1,,,,,,,,
,,,,,,,,,,,,,FF,,,,,,,,0.533,,,,,,,,,,,,,,,,,,,,,,b60ff4103610b39d6982ec65e,61037730e6c3d654fcdc63e7,2021-07-29_20h55.16.036,Simcolourproject_2stim_asymm_v5,2020.2.10,MacIntel,60,61025ae37ef11b136ea224fe,,,,,,,,,2130,20.37756348,53.99429321,1,0,0,response1disk,,7,15.94647217,8.635131836,1,0,0,rectangle,15.94647217,8.635131836,1,0,0,15.94647217,8.635131836,1,0,0,1,40,200,100,1,,,,,,,,
,,,,,,,,,,,,,FF,,,,,,,,0.8174,,,,,,,,,,,,,,,,,,,,,,b60ff4103610b39d6982ec65e,61037730e6c3d654fcdc63e7,2021-07-29_20h55.16.036,Simcolourproject_2stim_asymm_v5,2020.2.10,MacIntel,60,61025ae37ef11b136ea224fe,,,,,,,,,1537,26.39013672,-56.99032593,1,0,0,response3disk,,4,16.02044678,10.62591553,1,0,0,rectangle,16.02044678,10.62591553,1,0,0,16.02044678,10.62591553,1,0,0,1,41,201,130,1,,,,,,,,
,,,,,,,,,,,,,FF,,,,,,,,1.0337,,,,,,,,,,,,,,,,,,,,,,b60ff4103610b39d6982ec65e,61037730e6c3d654fcdc63e7,2021-07-29_20h55.16.036,Simcolourproject_2stim_asymm_v5,2020.2.10,MacIntel,60,61025ae37ef11b136ea224fe,,,,,,,,,2447,35.23669434,51.53604126,1,0,0,response1disk,,7,15.9552002,1.883117676,1,0,0,rectangle,42.17816162,78.615448,1,0,0,15.49530029,12.24230957,1,0,0,1,42,202,57,1,,response1disk_3,TRUE,7,7,"[29,48,152,277,34,78,172,35,179,165,223,238,142,136,203,184,304,130,150,278]",1.3156,rectangle
,,,,,,,,,,,,,FF,,,,,,,,0.5166,,,,,,,,,,,,,,,,,,,,,,b60ff4103610b39d6982ec65e,61037730e6c3d654fcdc63e7,2021-07-29_20h55.16.036,Simcolourproject_2stim_asymm_v5,2020.2.10,MacIntel,60,61025ae37ef11b136ea224fe,,,,,,,,,4191,23.41473389,45.85217285,1,0,0,response1disk,,7,12.6517334,12.33148193,1,0,0,rectangle,12.6517334,12.33148193,1,0,0,12.6517334,12.33148193,1,0,0,1,43,203,18,1,,,,,,,,
,,,,,,,,,,,,,FF,,,,,,,,0.477,,,,,,,,,,,,,,,,,,,,,,b60ff4103610b39d6982ec65e,61037730e6c3d654fcdc63e7,2021-07-29_20h55.16.036,Simcolourproject_2stim_asymm_v5,2020.2.10,MacIntel,60,61025ae37ef11b136ea224fe,,,,,,,,,3656,31.1819458,52.98486328,1,0,0,response1disk,,7,14.95056152,-4.800445557,1,0,0,rectangle,14.95056152,-4.800445557,1,0,0,14.95056152,-4.800445557,1,0,0,1,44,204,46,1,,,,,,,,
,,,,,,,,,,,,,FF,,,,,,,,0.8499,,,,,,,,,,,,,,,,,,,,,,b60ff4103610b39d6982ec65e,61037730e6c3d654fcdc63e7,2021-07-29_20h55.16.036,Simcolourproject_2stim_asymm_v5,2020.2.10,MacIntel,60,61025ae37ef11b136ea224fe,,,,,,,,,3844,-57.12976074,34.32141113,1,0,0,response7disk,,1,20.81176758,11.5871582,1,0,0,rectangle,20.81176758,11.5871582,1,0,0,20.81176758,11.5871582,1,0,0,1,45,205,39,1,,,,,,,,
,,,,,,,,,,,,,FF,,,,,,,,0.4504,,,,,,,,,,,,,,,,,,,,,,b60ff4103610b39d6982ec65e,61037730e6c3d654fcdc63e7,2021-07-29_20h55.16.036,Simcolourproject_2stim_asymm_v5,2020.2.10,MacIntel,60,61025ae37ef11b136ea224fe,,,,,,,,,1154,30.95361328,71.56192017,1,0,0,response1disk,,7,8.208496094,-5.35168457,1,0,0,rectangle,8.208496094,-5.35168457,1,0,0,8.208496094,-5.35168457,1,0,0,1,46,206,132,1,,,,,,,,
,,,,,,,,,,,,,FF,,,,,,,,0.8163,,,,,,,,,,,,,,,,,,,,,,b60ff4103610b39d6982ec65e,61037730e6c3d654fcdc63e7,2021-07-29_20h55.16.036,Simcolourproject_2stim_asymm_v5,2020.2.10,MacIntel,60,61025ae37ef11b136ea224fe,,,,,,,,,1311,-23.67089844,-37.7199707,1,0,0,response5disk,,3,-5.961914063,-13.60107422,1,0,0,rectangle,-5.961914063,-13.60107422,1,0,0,-5.961914063,-13.60107422,1,0,0,1,47,207,145,1,,,,,,,,
,,,,,,,,,,,,,FF,,,,,,,,0.8335,,,,,,,,,,,,,,,,,,,,,,b60ff4103610b39d6982ec65e,61037730e6c3d654fcdc63e7,2021-07-29_20h55.16.036,Simcolourproject_2stim_asymm_v5,2020.2.10,MacIntel,60,61025ae37ef11b136ea224fe,,,,,,,,,1532,51.19696045,-43.11322021,1,0,0,response3disk,,5,16.32788086,-4.212097168,1,0,0,rectangle,16.32788086,-4.212097168,1,0,0,16.32788086,-4.212097168,1,0,0,1,48,208,60,1,,,,,,,,
,,,,,,,,,,,,,FF,,,,,,,,0.7669,,,,,,,,,,,,,,,,,,,,,,b60ff4103610b39d6982ec65e,61037730e6c3d654fcdc63e7,2021-07-29_20h55.16.036,Simcolourproject_2stim_asymm_v5,2020.2.10,MacIntel,60,61025ae37ef11b136ea224fe,,,,,,,,,975,-52.04663086,19.59442139,1,0,0,response7disk,,1,0.305969238,9.938873291,1,0,0,rectangle,0.305969238,9.938873291,1,0,0,0.305969238,9.938873291,1,0,0,1,49,209,54,1,,,,,,,,
,,,,,,,,,,,,,FF,,,,,,,,0.7,,,,,,,,,,,,,,,,,,,,,,b60ff4103610b39d6982ec65e,61037730e6c3d654fcdc63e7,2021-07-29_20h55.16.036,Simcolourproject_2stim_asymm_v5,2020.2.10,MacIntel,60,61025ae37ef11b136ea224fe,,,,,,,,,2601,-22.79919434,63.87017822,1,0,0,response7disk,,0,-1.177734375,4.81854248,1,0,0,rectangle,-1.177734375,4.81854248,1,0,0,-1.177734375,4.81854248,1,0,0,1,50,210,86,1,,,,,,,,
,,,,,,,,,,,,,FF,,,,,,,,0.6837,,,,,,,,,,,,,,,,,,,,,,b60ff4103610b39d6982ec65e,61037730e6c3d654fcdc63e7,2021-07-29_20h55.16.036,Simcolourproject_2stim_asymm_v5,2020.2.10,MacIntel,60,61025ae37ef11b136ea224fe,,,,,,,,,1158,25.4609375,54.67736816,1,0,0,response1disk,,7,-6.020629883,-17.2074585,1,0,0,rectangle,-6.020629883,-17.2074585,1,0,0,-6.020629883,-17.2074585,1,0,0,1,51,211,143,1,,,,,,,,
,,,,,,,,,,,,,FF,,,,,,,,0.6326,,,,,,,,,,,,,,,,,,,,,,b60ff4103610b39d6982ec65e,61037730e6c3d654fcdc63e7,2021-07-29_20h55.16.036,Simcolourproject_2stim_asymm_v5,2020.2.10,MacIntel,60,61025ae37ef11b136ea224fe,,,,,,,,,2091,26.74359131,53.02062988,1,0,0,response1disk,,7,15.70837402,10.8182373,1,0,0,rectangle,15.70837402,10.8182373,1,0,0,15.70837402,10.8182373,1,0,0,1,52,212,120,1,,,,,,,,
,,,,,,,,,,,,,FF,,,,,,,,0.8002,,,,,,,,,,,,,,,,,,,,,,b60ff4103610b39d6982ec65e,61037730e6c3d654fcdc63e7,2021-07-29_20h55.16.036,Simcolourproject_2stim_asymm_v5,2020.2.10,MacIntel,60,61025ae37ef11b136ea224fe,,,,,,,,,1138,-51.72497559,24.70925903,1,0,0,response7disk,,1,-2.969116211,7.34085083,1,0,0,rectangle,-2.969116211,7.34085083,1,0,0,-2.969116211,7.34085083,1,0,0,1,53,213,47,1,,,,,,,,
,,,,,,,,,,,,,FF,,,,,,,,0.5509,,,,,,,,,,,,,,,,,,,,,,b60ff4103610b39d6982ec65e,61037730e6c3d654fcdc63e7,2021-07-29_20h55.16.036,Simcolourproject_2stim_asymm_v5,2020.2.10,MacIntel,60,61025ae37ef11b136ea224fe,,,,,,,,,2642,29.15319824,44.56762695,1,0,0,response1disk,,7,4.496765137,-14.74624634,1,0,0,rectangle,4.496765137,-14.74624634,1,0,0,4.496765137,-14.74624634,1,0,0,1,54,214,64,1,,,,,,,,
,,,,,,,,,,,,,FF,,,,,,,,0.9351,,,,,,,,,,,,,,,,,,,,,,b60ff4103610b39d6982ec65e,61037730e6c3d654fcdc63e7,2021-07-29_20h55.16.036,Simcolourproject_2stim_asymm_v5,2020.2.10,MacIntel,60,61025ae37ef11b136ea224fe,,,,,,,,,1349,32.71777344,47.26251221,1,0,0,response1disk,,7,14.66522217,6.294067383,1,0,0,rectangle,14.66522217,6.294067383,1,0,0,14.66522217,6.294067383,1,0,0,1,55,215,73,1,,,,,,,,
,,,,,,,,,,,,,FF,,,,,,,,0.6504,,,,,,,,,,,,,,,,,,,,,,b60ff4103610b39d6982ec65e,61037730e6c3d654fcdc63e7,2021-07-29_20h55.16.036,Simcolourproject_2stim_asymm_v5,2020.2.10,MacIntel,60,61025ae37ef11b136ea224fe,,,,,,,,,453,33.39831543,43.51702881,1,0,0,response1disk,,7,7.730285645,10.58496094,1,0,0,rectangle,7.730285645,10.58496094,1,0,0,7.730285645,10.58496094,1,0,0,1,56,216,63,1,,,,,,,,
,,,,,,,,,,,,,FF,,,,,,,,1.3995,,,,,,,,,,,,,,,,,,,,,,b60ff4103610b39d6982ec65e,61037730e6c3d654fcdc63e7,2021-07-29_20h55.16.036,Simcolourproject_2stim_asymm_v5,2020.2.10,MacIntel,60,61025ae37ef11b136ea224fe,,,,,,,,,1501,23.7041626,52.07995605,1,0,0,response1disk,,7,-0.834838867,5.329833984,1,0,0,rectangle,-0.834838867,5.329833984,1,0,0,-0.834838867,5.329833984,1,0,0,1,57,217,88,1,,,,,,,,
,,,,,,,,,,,,,FF,,,,,,,,1.1172,,,,,,,,,,,,,,,,,,,,,,b60ff4103610b39d6982ec65e,61037730e6c3d654fcdc63e7,2021-07-29_20h55.16.036,Simcolourproject_2stim_asymm_v5,2020.2.10,MacIntel,60,61025ae37ef11b136ea224fe,,,,,,,,,1361,32.87036133,-66.22784424,1,0,0,response3disk,,4,8.782653809,-6.136993408,1,0,0,rectangle,8.782653809,-6.136993408,1,0,0,8.782653809,-6.136993408,1,0,0,1,58,218,5,1,,,,,,,,
,,,,,,,,,,,,,FF,,,,,,,,0.8006,,,,,,,,,,,,,,,,,,,,,,b60ff4103610b39d6982ec65e,61037730e6c3d654fcdc63e7,2021-07-29_20h55.16.036,Simcolourproject_2stim_asymm_v5,2020.2.10,MacIntel,60,61025ae37ef11b136ea224fe,,,,,,,,,1600,-61.90649414,-33.40176392,1,0,0,response5disk,,2,-10.7689209,-0.60949707,1,0,0,rectangle,-10.7689209,-0.60949707,1,0,0,-10.7689209,-0.60949707,1,0,0,1,59,219,110,1,,,,,,,,
,,,,,,,,,,,,,FF,,,,,,,,0.4995,,,,,,,,,,,,,,,,,,,,,,b60ff4103610b39d6982ec65e,61037730e6c3d654fcdc63e7,2021-07-29_20h55.16.036,Simcolourproject_2stim_asymm_v5,2020.2.10,MacIntel,60,61025ae37ef11b136ea224fe,,,,,,,,,454,19.83905029,37.32452393,1,0,0,response1disk,,7,1.10345459,-7.485046387,1,0,0,rectangle,1.10345459,-7.485046387,1,0,0,1.10345459,-7.485046387,1,0,0,1,60,220,31,1,,,,,,,,
,,,,,,,,,,,,,FF,,,,,,,,1.1512,,,,,,,,,,,,,,,,,,,,,,b60ff4103610b39d6982ec65e,61037730e6c3d654fcdc63e7,2021-07-29_20h55.16.036,Simcolourproject_2stim_asymm_v5,2020.2.10,MacIntel,60,61025ae37ef11b136ea224fe,,,,,,,,,3734,26.51245117,-60.48254395,1,0,0,response3disk,,4,8.899108887,-5.174133301,1,0,0,rectangle,8.899108887,-5.174133301,1,0,0,8.899108887,-5.174133301,1,0,0,1,61,221,17,1,,,,,,,,
,,,,,,,,,,,,,FF,,,,,,,,0.7672,,,,,,,,,,,,,,,,,,,,,,b60ff4103610b39d6982ec65e,61037730e6c3d654fcdc63e7,2021-07-29_20h55.16.036,Simcolourproject_2stim_asymm_v5,2020.2.10,MacIntel,60,61025ae37ef11b136ea224fe,,,,,,,,,1290,-29.33898926,51.82556152,1,0,0,response7disk,,0,-18.63061523,12.75552368,1,0,0,rectangle,-36.08081055,77.75634766,1,0,0,-14.73388672,13.15228271,1,0,0,1,62,222,109,1,,response7disk_3,TRUE,0,0,"[29,48,152,277,34,78,172,35,179,165,223,238,142,136,203,184,304,130,150,278]",1.0989,rectangle
,,,,,,,,,,,,,FF,,,,,,,,0.8001,,,,,,,,,,,,,,,,,,,,,,b60ff4103610b39d6982ec65e,61037730e6c3d654fcdc63e7,2021-07-29_20h55.16.036,Simcolourproject_2stim_asymm_v5,2020.2.10,MacIntel,60,61025ae37ef11b136ea224fe,,,,,,,,,3830,29.30645752,48.62658691,1,0,0,response1disk,,7,-8.748168945,-3.810577393,1,0,0,rectangle,-8.748168945,-3.810577393,1,0,0,-8.748168945,-3.810577393,1,0,0,1,63,223,115,1,,,,,,,,
,,,,,,,,,,,,,FF,,,,,,,,0.5829,,,,,,,,,,,,,,,,,,,,,,b60ff4103610b39d6982ec65e,61037730e6c3d654fcdc63e7,2021-07-29_20h55.16.036,Simcolourproject_2stim_asymm_v5,2020.2.10,MacIntel,60,61025ae37ef11b136ea224fe,,,,,,,,,2766,22.9677124,52.59512329,1,0,0,response1disk,,7,9.731933594,6.600769043,1,0,0,rectangle,9.731933594,6.600769043,1,0,0,9.731933594,6.600769043,1,0,0,1,64,224,72,1,,,,,,,,
,,,,,,,,,,,,,FF,,,,,,,,0.567,,,,,,,,,,,,,,,,,,,,,,b60ff4103610b39d6982ec65e,61037730e6c3d654fcdc63e7,2021-07-29_20h55.16.036,Simcolourproject_2stim_asymm_v5,2020.2.10,MacIntel,60,61025ae37ef11b136ea224fe,,,,,,,,,4335,-21.32232666,49.29382324,1,0,0,response7disk,,0,-3.254211426,10.20007324,1,0,0,rectangle,-3.254211426,10.20007324,1,0,0,-3.254211426,10.20007324,1,0,0,1,65,225,45,1,,,,,,,,
,,,,,,,,,,,,,FF,,,,,,,,1,,,,,,,,,,,,,,,,,,,,,,b60ff4103610b39d6982ec65e,61037730e6c3d654fcdc63e7,2021-07-29_20h55.16.036,Simcolourproject_2stim_asymm_v5,2020.2.10,MacIntel,60,61025ae37ef11b136ea224fe,,,,,,,,,16,23.05352783,-56.28411865,1,0,0,response3disk,,4,13.02203369,-5.006347656,1,0,0,rectangle,13.02203369,-5.006347656,1,0,0,13.02203369,-5.006347656,1,0,0,1,66,226,30,1,,,,,,,,
,,,,,,,,,,,,,FF,,,,,,,,0.6994,,,,,,,,,,,,,,,,,,,,,,b60ff4103610b39d6982ec65e,61037730e6c3d654fcdc63e7,2021-07-29_20h55.16.036,Simcolourproject_2stim_asymm_v5,2020.2.10,MacIntel,60,61025ae37ef11b136ea224fe,,,,,,,,,391,35.9263916,85.70953369,1,0,0,response1disk,,7,13.0480957,5.808349609,1,0,0,rectangle,13.0480957,5.808349609,1,0,0,13.0480957,5.808349609,1,0,0,1,67,227,98,1,,,,,,,,
,,,,,,,,,,,,,FF,,,,,,,,1.0339,,,,,,,,,,,,,,,,,,,,,,b60ff4103610b39d6982ec65e,61037730e6c3d654fcdc63e7,2021-07-29_20h55.16.036,Simcolourproject_2stim_asymm_v5,2020.2.10,MacIntel,60,61025ae37ef11b136ea224fe,,,,,,,,,2032,-48.30072021,-20.8895874,1,0,0,response5disk,,2,13.97039795,-0.351928711,1,0,0,rectangle,13.97039795,-0.351928711,1,0,0,13.97039795,-0.351928711,1,0,0,1,68,228,67,1,,,,,,,,
,,,,,,,,,,,,,FF,,,,,,,,1.0991,,,,,,,,,,,,,,,,,,,,,,b60ff4103610b39d6982ec65e,61037730e6c3d654fcdc63e7,2021-07-29_20h55.16.036,Simcolourproject_2stim_asymm_v5,2020.2.10,MacIntel,60,61025ae37ef11b136ea224fe,,,,,,,,,3700,-51.87072754,-30.25454712,1,0,0,response5disk,,2,-8.03314209,-5.06942749,1,0,0,rectangle,-8.03314209,-5.06942749,1,0,0,-8.03314209,-5.06942749,1,0,0,1,69,229,80,1,,,,,,,,
,,,,,,,,,,,,,FF,,,,,,,,0.6997,,,,,,,,,,,,,,,,,,,,,,b60ff4103610b39d6982ec65e,61037730e6c3d654fcdc63e7,2021-07-29_20h55.16.036,Simcolourproject_2stim_asymm_v5,2020.2.10,MacIntel,60,61025ae37ef11b136ea224fe,,,,,,,,,2884,31.62194824,56.3890686,1,0,0,response1disk,,7,14.37567139,9.212402344,1,0,0,rectangle,14.37567139,9.212402344,1,0,0,14.37567139,9.212402344,1,0,0,1,70,230,122,1,,,,,,,,
,,,,,,,,,,,,,FF,,,,,,,,0.5169,,,,,,,,,,,,,,,,,,,,,,b60ff4103610b39d6982ec65e,61037730e6c3d654fcdc63e7,2021-07-29_20h55.16.036,Simcolourproject_2stim_asymm_v5,2020.2.10,MacIntel,60,61025ae37ef11b136ea224fe,,,,,,,,,1413,24.93786621,50.33581543,1,0,0,response1disk,,7,15.8302002,3.726501465,1,0,0,rectangle,15.8302002,3.726501465,1,0,0,15.8302002,3.726501465,1,0,0,1,71,231,151,1,,,,,,,,
,,,,,,,,,,,,,FF,,,,,,,,0.9334,,,,,,,,,,,,,,,,,,,,,,b60ff4103610b39d6982ec65e,61037730e6c3d654fcdc63e7,2021-07-29_20h55.16.036,Simcolourproject_2stim_asymm_v5,2020.2.10,MacIntel,60,61025ae37ef11b136ea224fe,,,,,,,,,3662,-54.94366455,33.40307617,1,0,0,response7disk,,1,7.904602051,11.98260498,1,0,0,rectangle,7.904602051,11.98260498,1,0,0,7.904602051,11.98260498,1,0,0,1,72,232,156,1,,,,,,,,
,,,,,,,,,,,,,FF,,,,,,,,0.6548,,,,,,,,,,,,,,,,,,,,,,b60ff4103610b39d6982ec65e,61037730e6c3d654fcdc63e7,2021-07-29_20h55.16.036,Simcolourproject_2stim_asymm_v5,2020.2.10,MacIntel,60,61025ae37ef11b136ea224fe,,,,,,,,,757,49.79003906,74.46392822,1,0,0,response1disk,,7,24.55157471,5.029907227,1,0,0,rectangle,24.55157471,5.029907227,1,0,0,24.55157471,5.029907227,1,0,0,1,73,233,116,1,,,,,,,,
,,,,,,,,,,,,,FF,,,,,,,,1.3501,,,,,,,,,,,,,,,,,,,,,,b60ff4103610b39d6982ec65e,61037730e6c3d654fcdc63e7,2021-07-29_20h55.16.036,Simcolourproject_2stim_asymm_v5,2020.2.10,MacIntel,60,61025ae37ef11b136ea224fe,,,,,,,,,3833,85.19055176,25.88510132,1,0,0,response1disk,,6,21.01934814,-9.161987305,1,0,0,rectangle,21.01934814,-9.161987305,1,0,0,21.01934814,-9.161987305,1,0,0,1,74,234,82,1,,,,,,,,
,,,,,,,,,,,,,FF,,,,,,,,0.8331,,,,,,,,,,,,,,,,,,,,,,b60ff4103610b39d6982ec65e,61037730e6c3d654fcdc63e7,2021-07-29_20h55.16.036,Simcolourproject_2stim_asymm_v5,2020.2.10,MacIntel,60,61025ae37ef11b136ea224fe,,,,,,,,,2878,71.96844482,-34.03567505,1,0,0,response3disk,,5,22.49084473,0.101501465,1,0,0,rectangle,22.49084473,0.101501465,1,0,0,22.49084473,0.101501465,1,0,0,1,75,235,40,1,,,,,,,,
,,,,,,,,,,,,,FF,,,,,,,,1.3505,,,,,,,,,,,,,,,,,,,,,,b60ff4103610b39d6982ec65e,61037730e6c3d654fcdc63e7,2021-07-29_20h55.16.036,Simcolourproject_2stim_asymm_v5,2020.2.10,MacIntel,60,61025ae37ef11b136ea224fe,,,,,,,,,108,39.17230225,-53.32269287,1,0,0,response3disk,,4,14.8560791,6.256378174,1,0,0,rectangle,14.8560791,6.256378174,1,0,0,14.8560791,6.256378174,1,0,0,1,76,236,29,1,,,,,,,,
,,,,,,,,,,,,,FF,,,,,,,,1.4337,,,,,,,,,,,,,,,,,,,,,,b60ff4103610b39d6982ec65e,61037730e6c3d654fcdc63e7,2021-07-29_20h55.16.036,Simcolourproject_2stim_asymm_v5,2020.2.10,MacIntel,60,61025ae37ef11b136ea224fe,,,,,,,,,4052,-72.82037354,26.34143066,1,0,0,response7disk,,1,3.292236328,0.586853027,1,0,0,rectangle,43.05621338,-84.01971436,1,0,0,-1.462280273,-7.642883301,1,0,0,1,77,237,91,1,,response3disk_3,TRUE,4,4,"[29,48,152,277,34,78,172,35,179,165,223,238,142,136,203,184,304,130,150,278]",2.0335,rectangle
,,,,,,,,,,,,,FF,,,,,,,,1.3842,,,,,,,,,,,,,,,,,,,,,,b60ff4103610b39d6982ec65e,61037730e6c3d654fcdc63e7,2021-07-29_20h55.16.036,Simcolourproject_2stim_asymm_v5,2020.2.10,MacIntel,60,61025ae37ef11b136ea224fe,,,,,,,,,3769,-60.81530762,29.95788574,1,0,0,response7disk,,1,17.50610352,2.082885742,1,0,0,rectangle,17.50610352,2.082885742,1,0,0,17.50610352,2.082885742,1,0,0,1,78,238,23,1,,,,,,,,
,,,,,,,,,,,,,FF,,,,,,,,1.2835,,,,,,,,,,,,,,,,,,,,,,b60ff4103610b39d6982ec65e,61037730e6c3d654fcdc63e7,2021-07-29_20h55.16.036,Simcolourproject_2stim_asymm_v5,2020.2.10,MacIntel,60,61025ae37ef11b136ea224fe,,,,,,,,,713,76.20904541,-20.89459229,1,0,0,response3disk,,5,4.911682129,-10.00506592,1,0,0,rectangle,4.911682129,-10.00506592,1,0,0,4.911682129,-10.00506592,1,0,0,1,79,239,15,1,,,,,,,,
,,,,,,,,,,,,,FF,,,,,,,,0.7506,,,,,,,,,,,,,,,,,,,,,,b60ff4103610b39d6982ec65e,61037730e6c3d654fcdc63e7,2021-07-29_20h55.16.036,Simcolourproject_2stim_asymm_v5,2020.2.10,MacIntel,60,61025ae37ef11b136ea224fe,,,,,,,,,3999,61.54284668,-38.74603271,1,0,0,response3disk,,5,13.57495117,-6.662719727,1,0,0,rectangle,13.57495117,-6.662719727,1,0,0,13.57495117,-6.662719727,1,0,0,1,80,240,113,1,,,,,,,,
