key_resp.keys,key_resp.rt,key_resp_14.keys,key_resp_14.rt,key_resp_15.keys,key_resp_15.rt,key_resp_17.keys,key_resp_17.rt,key_resp_9.keys,key_resp_9.rt,key_resp_10.keys,key_resp_10.rt,practice_comparison,Ecc,mouse_5.x,mouse_5.y,mouse_5.leftButton,mouse_5.midButton,mouse_5.rightButton,mouse_5.clicked_name,pracsimilarity,response_time,mouse_10.x,mouse_10.y,mouse_10.leftButton,mouse_10.midButton,mouse_10.rightButton,mouse_10.clicked_name,mouse_7.x,mouse_7.y,mouse_7.leftButton,mouse_7.midButton,mouse_7.rightButton,mouse_6.x,mouse_6.y,mouse_6.leftButton,mouse_6.midButton,mouse_6.rightButton,duringprac.thisRepN,duringprac.thisTrialN,duringprac.thisN,duringprac.thisIndex,duringprac.ran,participant,session,date,expName,psychopyVersion,OS,frameRate,study_id,mouse_7.clicked_name,catchpracsimilarity,catch_response_time,catchnumberprac,catchtrialorderprac,mouse_6.clicked_name,key_resp_22.keys,key_resp_22.rt,realcomparison,mouse.x,mouse.y,mouse.leftButton,mouse.midButton,mouse.rightButton,mouse.clicked_name,Colour2,similarity,mouse_2.x,mouse_2.y,mouse_2.leftButton,mouse_2.midButton,mouse_2.rightButton,mouse_2.clicked_name,mouse_3.x,mouse_3.y,mouse_3.leftButton,mouse_3.midButton,mouse_3.rightButton,mouse_11.x,mouse_11.y,mouse_11.leftButton,mouse_11.midButton,mouse_11.rightButton,trials_2.thisRepN,trials_2.thisTrialN,trials_2.thisN,trials_2.thisIndex,trials_2.ran,Colour1,mouse_3.clicked_name,catchornah,catchsimilarity,catchnumber,catchtrialorder,catchRT,mouse_11.clicked_name
space,10.7819,space,20.7204,space,12.9448,space,7.7513,space,3.121,space,5.7304,57,FF,-32,62.5,1,0,0,response7disk_5,0,3.5888,-18,-4.5,1,0,0,rectangle_8,-18,-4.5,1,0,0,-18,-4.5,1,0,0,0,0,0,5,1,60ffbf91875b2c515d251452,610376a9ddd5cd2c1be0548f,2021-07-30_13h57.42.754,Simcolourproject_2stim_asymm_v5,2020.2.10,Win32,60,61025ae37ef11b136ea224fe,,,,,,,,,,,,,,,,,,,,,,,,,,,,,,,,,,,,,,,,,,,,,,
,,,,,,,,,,,,152,PF,35,59.5,1,0,0,response1disk_5,7,3.5529,13,-8.5,1,0,0,rectangle_8,-43,-72.5,1,0,0,-1,3.5,1,0,0,0,1,1,6,1,60ffbf91875b2c515d251452,610376a9ddd5cd2c1be0548f,2021-07-30_13h57.42.754,Simcolourproject_2stim_asymm_v5,2020.2.10,Win32,60,61025ae37ef11b136ea224fe,response5disk_7,3,2.6189,3,"[2,5]",rectangle_4,,,,,,,,,,,,,,,,,,,,,,,,,,,,,,,,,,,,,,,,
,,,,,,,,,,,,83,FF,44,-16.5,1,0,0,response3disk_5,5,5.0709,11,4.5,1,0,0,rectangle_8,11,4.5,1,0,0,11,4.5,1,0,0,0,2,2,3,1,60ffbf91875b2c515d251452,610376a9ddd5cd2c1be0548f,2021-07-30_13h57.42.754,Simcolourproject_2stim_asymm_v5,2020.2.10,Win32,60,61025ae37ef11b136ea224fe,,,,,,,,,,,,,,,,,,,,,,,,,,,,,,,,,,,,,,,,,,,,,,
,,,,,,,,,,,,17,PF,-36,51.5,1,0,0,response7disk_5,0,3.8699,-18,3.5,1,0,0,rectangle_8,-18,3.5,1,0,0,-18,3.5,1,0,0,0,3,3,2,1,60ffbf91875b2c515d251452,610376a9ddd5cd2c1be0548f,2021-07-30_13h57.42.754,Simcolourproject_2stim_asymm_v5,2020.2.10,Win32,60,61025ae37ef11b136ea224fe,,,,,,,,,,,,,,,,,,,,,,,,,,,,,,,,,,,,,,,,,,,,,,
,,,,,,,,,,,,111,PF,69,26.5,1,0,0,response1disk_5,6,4.4036,12,-1.5,1,0,0,rectangle_8,-24,-77.5,1,0,0,12,0.5,1,0,0,0,4,4,1,1,60ffbf91875b2c515d251452,610376a9ddd5cd2c1be0548f,2021-07-30_13h57.42.754,Simcolourproject_2stim_asymm_v5,2020.2.10,Win32,60,61025ae37ef11b136ea224fe,response5disk_7,3,2.1519,3,"[2,5]",rectangle_4,,,,,,,,,,,,,,,,,,,,,,,,,,,,,,,,,,,,,,,,
,,,,,,,,,,,,71,FF,45,-25.5,1,0,0,response3disk_5,5,5.3043,23,3.5,1,0,0,rectangle_8,23,3.5,1,0,0,23,3.5,1,0,0,0,5,5,0,1,60ffbf91875b2c515d251452,610376a9ddd5cd2c1be0548f,2021-07-30_13h57.42.754,Simcolourproject_2stim_asymm_v5,2020.2.10,Win32,60,61025ae37ef11b136ea224fe,,,,,,,,,,,,,,,,,,,,,,,,,,,,,,,,,,,,,,,,,,,,,,
,,,,,,,,,,,,51,PF,29,62.5,1,0,0,response1disk_5,7,1.618,18,-2.5,1,0,0,rectangle_8,18,-2.5,1,0,0,18,-2.5,1,0,0,0,6,6,4,1,60ffbf91875b2c515d251452,610376a9ddd5cd2c1be0548f,2021-07-30_13h57.42.754,Simcolourproject_2stim_asymm_v5,2020.2.10,Win32,60,61025ae37ef11b136ea224fe,,,,,,,,,,,,,,,,,,,,,,,,,,,,,,,,,,,,,,,,,,,,,,
,,,,,,,,,,,,,FF,,,,,,,,2.3521,,,,,,,,,,,,,,,,,,,,,,60ffbf91875b2c515d251452,610376a9ddd5cd2c1be0548f,2021-07-30_13h57.42.754,Simcolourproject_2stim_asymm_v5,2020.2.10,Win32,60,61025ae37ef11b136ea224fe,,,,,,,space,4.1923,750,70,-36.5,1,0,0,response3disk,,5,36,-3.5,1,0,0,rectangle,36,-3.5,1,0,0,36,-3.5,1,0,0,0,0,0,157,1,,,,,,,,
,,,,,,,,,,,,,FF,,,,,,,,1.3844,,,,,,,,,,,,,,,,,,,,,,60ffbf91875b2c515d251452,610376a9ddd5cd2c1be0548f,2021-07-30_13h57.42.754,Simcolourproject_2stim_asymm_v5,2020.2.10,Win32,60,61025ae37ef11b136ea224fe,,,,,,,,,3806,31,62.5,1,0,0,response1disk,,7,16,-5.5,1,0,0,rectangle,16,-5.5,1,0,0,16,-5.5,1,0,0,0,1,1,50,1,,,,,,,,
,,,,,,,,,,,,,FF,,,,,,,,1.8848,,,,,,,,,,,,,,,,,,,,,,60ffbf91875b2c515d251452,610376a9ddd5cd2c1be0548f,2021-07-30_13h57.42.754,Simcolourproject_2stim_asymm_v5,2020.2.10,Win32,60,61025ae37ef11b136ea224fe,,,,,,,,,1683,-22,-49.5,1,0,0,response5disk,,3,15,8.5,1,0,0,rectangle,15,8.5,1,0,0,15,8.5,1,0,0,0,2,2,152,1,,,,,,,,
,,,,,,,,,,,,,FF,,,,,,,,2.9856,,,,,,,,,,,,,,,,,,,,,,60ffbf91875b2c515d251452,610376a9ddd5cd2c1be0548f,2021-07-30_13h57.42.754,Simcolourproject_2stim_asymm_v5,2020.2.10,Win32,60,61025ae37ef11b136ea224fe,,,,,,,,,3660,-36,-63.5,1,0,0,response5disk,,3,24,0.5,1,0,0,rectangle,24,0.5,1,0,0,24,0.5,1,0,0,0,3,3,75,1,,,,,,,,
,,,,,,,,,,,,,FF,,,,,,,,2.3355,,,,,,,,,,,,,,,,,,,,,,60ffbf91875b2c515d251452,610376a9ddd5cd2c1be0548f,2021-07-30_13h57.42.754,Simcolourproject_2stim_asymm_v5,2020.2.10,Win32,60,61025ae37ef11b136ea224fe,,,,,,,,,1613,63,-23.5,1,0,0,response3disk,,5,33,-4.5,1,0,0,rectangle,33,-4.5,1,0,0,33,-4.5,1,0,0,0,4,4,114,1,,,,,,,,
,,,,,,,,,,,,,FF,,,,,,,,1.8518,,,,,,,,,,,,,,,,,,,,,,60ffbf91875b2c515d251452,610376a9ddd5cd2c1be0548f,2021-07-30_13h57.42.754,Simcolourproject_2stim_asymm_v5,2020.2.10,Win32,60,61025ae37ef11b136ea224fe,,,,,,,,,605,30,-53.5,1,0,0,response3disk,,4,27,-5.5,1,0,0,rectangle,27,-5.5,1,0,0,27,-5.5,1,0,0,0,5,5,117,1,,,,,,,,
,,,,,,,,,,,,,FF,,,,,,,,1.9517,,,,,,,,,,,,,,,,,,,,,,60ffbf91875b2c515d251452,610376a9ddd5cd2c1be0548f,2021-07-30_13h57.42.754,Simcolourproject_2stim_asymm_v5,2020.2.10,Win32,60,61025ae37ef11b136ea224fe,,,,,,,,,3102,19,-49.5,1,0,0,response3disk,,4,27,-7.5,1,0,0,rectangle,27,-7.5,1,0,0,27,-7.5,1,0,0,0,6,6,31,1,,,,,,,,
,,,,,,,,,,,,,FF,,,,,,,,3.186,,,,,,,,,,,,,,,,,,,,,,60ffbf91875b2c515d251452,610376a9ddd5cd2c1be0548f,2021-07-30_13h57.42.754,Simcolourproject_2stim_asymm_v5,2020.2.10,Win32,60,61025ae37ef11b136ea224fe,,,,,,,,,1610,-60,-40.5,1,0,0,response5disk,,2,15,-9.5,1,0,0,rectangle,15,-9.5,1,0,0,15,-9.5,1,0,0,0,7,7,131,1,,,,,,,,
,,,,,,,,,,,,,FF,,,,,,,,2.5522,,,,,,,,,,,,,,,,,,,,,,60ffbf91875b2c515d251452,610376a9ddd5cd2c1be0548f,2021-07-30_13h57.42.754,Simcolourproject_2stim_asymm_v5,2020.2.10,Win32,60,61025ae37ef11b136ea224fe,,,,,,,,,585,-21,-58.5,1,0,0,response5disk,,3,3,-10.5,1,0,0,rectangle,3,-10.5,1,0,0,3,-10.5,1,0,0,0,8,8,10,1,,,,,,,,
,,,,,,,,,,,,,FF,,,,,,,,1.5348,,,,,,,,,,,,,,,,,,,,,,60ffbf91875b2c515d251452,610376a9ddd5cd2c1be0548f,2021-07-30_13h57.42.754,Simcolourproject_2stim_asymm_v5,2020.2.10,Win32,60,61025ae37ef11b136ea224fe,,,,,,,,,1066,68,34.5,1,0,0,response1disk,,6,21,1.5,1,0,0,rectangle,21,1.5,1,0,0,21,1.5,1,0,0,0,9,9,87,1,,,,,,,,
,,,,,,,,,,,,,FF,,,,,,,,2.5522,,,,,,,,,,,,,,,,,,,,,,60ffbf91875b2c515d251452,610376a9ddd5cd2c1be0548f,2021-07-30_13h57.42.754,Simcolourproject_2stim_asymm_v5,2020.2.10,Win32,60,61025ae37ef11b136ea224fe,,,,,,,,,4169,-74,-22.5,1,0,0,response5disk,,2,0,-7.5,1,0,0,rectangle,0,-7.5,1,0,0,0,-7.5,1,0,0,0,10,10,15,1,,,,,,,,
,,,,,,,,,,,,,FF,,,,,,,,3.1529,,,,,,,,,,,,,,,,,,,,,,60ffbf91875b2c515d251452,610376a9ddd5cd2c1be0548f,2021-07-30_13h57.42.754,Simcolourproject_2stim_asymm_v5,2020.2.10,Win32,60,61025ae37ef11b136ea224fe,,,,,,,,,1928,60,-26.5,1,0,0,response3disk,,5,13,1.5,1,0,0,rectangle,13,1.5,1,0,0,13,1.5,1,0,0,0,11,11,9,1,,,,,,,,
,,,,,,,,,,,,,FF,,,,,,,,1.6012,,,,,,,,,,,,,,,,,,,,,,60ffbf91875b2c515d251452,610376a9ddd5cd2c1be0548f,2021-07-30_13h57.42.754,Simcolourproject_2stim_asymm_v5,2020.2.10,Win32,60,61025ae37ef11b136ea224fe,,,,,,,,,3559,-20,-43.5,1,0,0,response5disk,,3,11,4.5,1,0,0,rectangle,11,4.5,1,0,0,11,4.5,1,0,0,0,12,12,112,1,,,,,,,,
,,,,,,,,,,,,,FF,,,,,,,,1.101,,,,,,,,,,,,,,,,,,,,,,60ffbf91875b2c515d251452,610376a9ddd5cd2c1be0548f,2021-07-30_13h57.42.754,Simcolourproject_2stim_asymm_v5,2020.2.10,Win32,60,61025ae37ef11b136ea224fe,,,,,,,,,3046,-52,-24.5,1,0,0,response5disk,,2,3,-5.5,1,0,0,rectangle,3,-5.5,1,0,0,3,-5.5,1,0,0,0,13,13,146,1,,,,,,,,
,,,,,,,,,,,,,FF,,,,,,,,1.8681,,,,,,,,,,,,,,,,,,,,,,60ffbf91875b2c515d251452,610376a9ddd5cd2c1be0548f,2021-07-30_13h57.42.754,Simcolourproject_2stim_asymm_v5,2020.2.10,Win32,60,61025ae37ef11b136ea224fe,,,,,,,,,1773,30,-50.5,1,0,0,response3disk,,4,19,14.5,1,0,0,rectangle,19,14.5,1,0,0,19,14.5,1,0,0,0,14,14,22,1,,,,,,,,
,,,,,,,,,,,,,FF,,,,,,,,2.4521,,,,,,,,,,,,,,,,,,,,,,60ffbf91875b2c515d251452,610376a9ddd5cd2c1be0548f,2021-07-30_13h57.42.754,Simcolourproject_2stim_asymm_v5,2020.2.10,Win32,60,61025ae37ef11b136ea224fe,,,,,,,,,1556,-35,-45.5,1,0,0,response5disk,,3,3,-5.5,1,0,0,rectangle,3,-5.5,1,0,0,3,-5.5,1,0,0,0,15,15,126,1,,,,,,,,
,,,,,,,,,,,,,FF,,,,,,,,1.2846,,,,,,,,,,,,,,,,,,,,,,60ffbf91875b2c515d251452,610376a9ddd5cd2c1be0548f,2021-07-30_13h57.42.754,Simcolourproject_2stim_asymm_v5,2020.2.10,Win32,60,61025ae37ef11b136ea224fe,,,,,,,,,1687,49,-21.5,1,0,0,response3disk,,5,25,-1.5,1,0,0,rectangle,25,-1.5,1,0,0,25,-1.5,1,0,0,0,16,16,133,1,,,,,,,,
,,,,,,,,,,,,,FF,,,,,,,,3.0358,,,,,,,,,,,,,,,,,,,,,,60ffbf91875b2c515d251452,610376a9ddd5cd2c1be0548f,2021-07-30_13h57.42.754,Simcolourproject_2stim_asymm_v5,2020.2.10,Win32,60,61025ae37ef11b136ea224fe,,,,,,,,,367,-73,22.5,1,0,0,response7disk,,1,-3,-14.5,1,0,0,rectangle,-3,-14.5,1,0,0,-3,-14.5,1,0,0,0,17,17,1,1,,,,,,,,
,,,,,,,,,,,,,FF,,,,,,,,3.0358,,,,,,,,,,,,,,,,,,,,,,60ffbf91875b2c515d251452,610376a9ddd5cd2c1be0548f,2021-07-30_13h57.42.754,Simcolourproject_2stim_asymm_v5,2020.2.10,Win32,60,61025ae37ef11b136ea224fe,,,,,,,,,3267,49,33.5,1,0,0,response1disk,,6,4,-10.5,1,0,0,rectangle,4,-10.5,1,0,0,4,-10.5,1,0,0,0,18,18,153,1,,,,,,,,
,,,,,,,,,,,,,FF,,,,,,,,1.6179,,,,,,,,,,,,,,,,,,,,,,60ffbf91875b2c515d251452,610376a9ddd5cd2c1be0548f,2021-07-30_13h57.42.754,Simcolourproject_2stim_asymm_v5,2020.2.10,Win32,60,61025ae37ef11b136ea224fe,,,,,,,,,1231,-54,27.5,1,0,0,response7disk,,1,-22,-7.5,1,0,0,rectangle,-22,-7.5,1,0,0,-22,-7.5,1,0,0,0,19,19,80,1,,,,,,,,
,,,,,,,,,,,,,FF,,,,,,,,2.2688,,,,,,,,,,,,,,,,,,,,,,60ffbf91875b2c515d251452,610376a9ddd5cd2c1be0548f,2021-07-30_13h57.42.754,Simcolourproject_2stim_asymm_v5,2020.2.10,Win32,60,61025ae37ef11b136ea224fe,,,,,,,,,4124,-34,-48.5,1,0,0,response5disk,,3,0,-11.5,1,0,0,rectangle,0,-11.5,1,0,0,0,-11.5,1,0,0,0,20,20,48,1,,,,,,,,
,,,,,,,,,,,,,FF,,,,,,,,1.6681,,,,,,,,,,,,,,,,,,,,,,60ffbf91875b2c515d251452,610376a9ddd5cd2c1be0548f,2021-07-30_13h57.42.754,Simcolourproject_2stim_asymm_v5,2020.2.10,Win32,60,61025ae37ef11b136ea224fe,,,,,,,,,1950,58,-23.5,1,0,0,response3disk,,5,30,-7.5,1,0,0,rectangle,30,-7.5,1,0,0,30,-7.5,1,0,0,0,21,21,45,1,,,,,,,,
,,,,,,,,,,,,,FF,,,,,,,,1.935,,,,,,,,,,,,,,,,,,,,,,60ffbf91875b2c515d251452,610376a9ddd5cd2c1be0548f,2021-07-30_13h57.42.754,Simcolourproject_2stim_asymm_v5,2020.2.10,Win32,60,61025ae37ef11b136ea224fe,,,,,,,,,2186,72,25.5,1,0,0,response1disk,,6,15,0.5,1,0,0,rectangle,15,0.5,1,0,0,15,0.5,1,0,0,0,22,22,49,1,,,,,,,,
,,,,,,,,,,,,,FF,,,,,,,,3.7196,,,,,,,,,,,,,,,,,,,,,,60ffbf91875b2c515d251452,610376a9ddd5cd2c1be0548f,2021-07-30_13h57.42.754,Simcolourproject_2stim_asymm_v5,2020.2.10,Win32,60,61025ae37ef11b136ea224fe,,,,,,,,,2624,62,37.5,1,0,0,response1disk,,6,19,3.5,1,0,0,rectangle,19,3.5,1,0,0,19,3.5,1,0,0,0,23,23,17,1,,,,,,,,
,,,,,,,,,,,,,FF,,,,,,,,0.9009,,,,,,,,,,,,,,,,,,,,,,60ffbf91875b2c515d251452,610376a9ddd5cd2c1be0548f,2021-07-30_13h57.42.754,Simcolourproject_2stim_asymm_v5,2020.2.10,Win32,60,61025ae37ef11b136ea224fe,,,,,,,,,3455,23,50.5,1,0,0,response1disk,,7,24,4.5,1,0,0,rectangle,24,4.5,1,0,0,24,4.5,1,0,0,0,24,24,3,1,,,,,,,,
,,,,,,,,,,,,,FF,,,,,,,,2.2855,,,,,,,,,,,,,,,,,,,,,,60ffbf91875b2c515d251452,610376a9ddd5cd2c1be0548f,2021-07-30_13h57.42.754,Simcolourproject_2stim_asymm_v5,2020.2.10,Win32,60,61025ae37ef11b136ea224fe,,,,,,,,,4363,-55,18.5,1,0,0,response7disk,,1,-26,-6.5,1,0,0,rectangle,-26,-6.5,1,0,0,-26,-6.5,1,0,0,0,25,25,8,1,,,,,,,,
,,,,,,,,,,,,,FF,,,,,,,,2.5854,,,,,,,,,,,,,,,,,,,,,,60ffbf91875b2c515d251452,610376a9ddd5cd2c1be0548f,2021-07-30_13h57.42.754,Simcolourproject_2stim_asymm_v5,2020.2.10,Win32,60,61025ae37ef11b136ea224fe,,,,,,,,,2388,-29,-46.5,1,0,0,response5disk,,3,-16,4.5,1,0,0,rectangle,-16,4.5,1,0,0,-16,4.5,1,0,0,0,26,26,36,1,,,,,,,,
,,,,,,,,,,,,,FF,,,,,,,,1.4177,,,,,,,,,,,,,,,,,,,,,,60ffbf91875b2c515d251452,610376a9ddd5cd2c1be0548f,2021-07-30_13h57.42.754,Simcolourproject_2stim_asymm_v5,2020.2.10,Win32,60,61025ae37ef11b136ea224fe,,,,,,,,,4322,41,-56.5,1,0,0,response3disk,,4,27,-0.5,1,0,0,rectangle,27,-0.5,1,0,0,27,-0.5,1,0,0,0,27,27,130,1,,,,,,,,
,,,,,,,,,,,,,FF,,,,,,,,1.4513,,,,,,,,,,,,,,,,,,,,,,60ffbf91875b2c515d251452,610376a9ddd5cd2c1be0548f,2021-07-30_13h57.42.754,Simcolourproject_2stim_asymm_v5,2020.2.10,Win32,60,61025ae37ef11b136ea224fe,,,,,,,,,832,42,-24.5,1,0,0,response3disk,,5,29,0.5,1,0,0,rectangle,29,0.5,1,0,0,29,0.5,1,0,0,0,28,28,118,1,,,,,,,,
,,,,,,,,,,,,,FF,,,,,,,,2.5854,,,,,,,,,,,,,,,,,,,,,,60ffbf91875b2c515d251452,610376a9ddd5cd2c1be0548f,2021-07-30_13h57.42.754,Simcolourproject_2stim_asymm_v5,2020.2.10,Win32,60,61025ae37ef11b136ea224fe,,,,,,,,,4060,60,25.5,1,0,0,response1disk,,6,20,10.5,1,0,0,rectangle,20,10.5,1,0,0,20,10.5,1,0,0,0,29,29,122,1,,,,,,,,
,,,,,,,,,,,,,FF,,,,,,,,1.9516,,,,,,,,,,,,,,,,,,,,,,60ffbf91875b2c515d251452,610376a9ddd5cd2c1be0548f,2021-07-30_13h57.42.754,Simcolourproject_2stim_asymm_v5,2020.2.10,Win32,60,61025ae37ef11b136ea224fe,,,,,,,,,2244,50,-21.5,1,0,0,response3disk,,5,47,7.5,1,0,0,rectangle,47,7.5,1,0,0,47,7.5,1,0,0,0,30,30,129,1,,,,,,,,
,,,,,,,,,,,,,FF,,,,,,,,1.6181,,,,,,,,,,,,,,,,,,,,,,60ffbf91875b2c515d251452,610376a9ddd5cd2c1be0548f,2021-07-30_13h57.42.754,Simcolourproject_2stim_asymm_v5,2020.2.10,Win32,60,61025ae37ef11b136ea224fe,,,,,,,,,2395,54,34.5,1,0,0,response1disk,,6,35,7.5,1,0,0,rectangle,35,7.5,1,0,0,35,7.5,1,0,0,0,31,31,95,1,,,,,,,,
,,,,,,,,,,,,,FF,,,,,,,,1.1843,,,,,,,,,,,,,,,,,,,,,,60ffbf91875b2c515d251452,610376a9ddd5cd2c1be0548f,2021-07-30_13h57.42.754,Simcolourproject_2stim_asymm_v5,2020.2.10,Win32,60,61025ae37ef11b136ea224fe,,,,,,,,,1301,-37,-19.5,1,0,0,response5disk,,2,5,-5.5,1,0,0,rectangle,5,-5.5,1,0,0,5,-5.5,1,0,0,0,32,32,86,1,,,,,,,,
,,,,,,,,,,,,,FF,,,,,,,,0.8508,,,,,,,,,,,,,,,,,,,,,,60ffbf91875b2c515d251452,610376a9ddd5cd2c1be0548f,2021-07-30_13h57.42.754,Simcolourproject_2stim_asymm_v5,2020.2.10,Win32,60,61025ae37ef11b136ea224fe,,,,,,,,,1321,-23,-48.5,1,0,0,response5disk,,3,22,2.5,1,0,0,rectangle,22,2.5,1,0,0,22,2.5,1,0,0,0,33,33,101,1,,,,,,,,
,,,,,,,,,,,,,FF,,,,,,,,1.2512,,,,,,,,,,,,,,,,,,,,,,60ffbf91875b2c515d251452,610376a9ddd5cd2c1be0548f,2021-07-30_13h57.42.754,Simcolourproject_2stim_asymm_v5,2020.2.10,Win32,60,61025ae37ef11b136ea224fe,,,,,,,,,3055,18,-43.5,1,0,0,response3disk,,4,22,-0.5,1,0,0,rectangle,22,-0.5,1,0,0,22,-0.5,1,0,0,0,34,34,100,1,,,,,,,,
,,,,,,,,,,,,,FF,,,,,,,,1.3016,,,,,,,,,,,,,,,,,,,,,,60ffbf91875b2c515d251452,610376a9ddd5cd2c1be0548f,2021-07-30_13h57.42.754,Simcolourproject_2stim_asymm_v5,2020.2.10,Win32,60,61025ae37ef11b136ea224fe,,,,,,,,,877,18,-34.5,1,0,0,response3disk,,4,26,-6.5,1,0,0,rectangle,-25,68.5,1,0,0,-5,-7.5,1,0,0,0,35,35,89,1,,response7disk_3,TRUE,0,0,"[254,266,246,52,95,234,289,44,226,116,118,264,36,210,111,222,210,285,152,74]",2.2523,rectangle
,,,,,,,,,,,,,FF,,,,,,,,1.5681,,,,,,,,,,,,,,,,,,,,,,60ffbf91875b2c515d251452,610376a9ddd5cd2c1be0548f,2021-07-30_13h57.42.754,Simcolourproject_2stim_asymm_v5,2020.2.10,Win32,60,61025ae37ef11b136ea224fe,,,,,,,,,3979,-32,-42.5,1,0,0,response5disk,,3,4,-5.5,1,0,0,rectangle,4,-5.5,1,0,0,4,-5.5,1,0,0,0,36,36,14,1,,,,,,,,
,,,,,,,,,,,,,FF,,,,,,,,2.2684,,,,,,,,,,,,,,,,,,,,,,60ffbf91875b2c515d251452,610376a9ddd5cd2c1be0548f,2021-07-30_13h57.42.754,Simcolourproject_2stim_asymm_v5,2020.2.10,Win32,60,61025ae37ef11b136ea224fe,,,,,,,,,3911,-25,-40.5,1,0,0,response5disk,,3,13,-1.5,1,0,0,rectangle,13,-1.5,1,0,0,13,-1.5,1,0,0,0,37,37,46,1,,,,,,,,
,,,,,,,,,,,,,FF,,,,,,,,0.9174,,,,,,,,,,,,,,,,,,,,,,60ffbf91875b2c515d251452,610376a9ddd5cd2c1be0548f,2021-07-30_13h57.42.754,Simcolourproject_2stim_asymm_v5,2020.2.10,Win32,60,61025ae37ef11b136ea224fe,,,,,,,,,2304,21,-36.5,1,0,0,response3disk,,4,22,-3.5,1,0,0,rectangle,22,-3.5,1,0,0,22,-3.5,1,0,0,0,38,38,136,1,,,,,,,,
,,,,,,,,,,,,,FF,,,,,,,,3.4694,,,,,,,,,,,,,,,,,,,,,,60ffbf91875b2c515d251452,610376a9ddd5cd2c1be0548f,2021-07-30_13h57.42.754,Simcolourproject_2stim_asymm_v5,2020.2.10,Win32,60,61025ae37ef11b136ea224fe,,,,,,,,,1264,39,-56.5,1,0,0,response3disk,,4,48,-12.5,1,0,0,rectangle,48,-12.5,1,0,0,48,-12.5,1,0,0,0,39,39,147,1,,,,,,,,
,,,,,,,,,,,,,FF,,,,,,,,0.7841,,,,,,,,,,,,,,,,,,,,,,60ffbf91875b2c515d251452,610376a9ddd5cd2c1be0548f,2021-07-30_13h57.42.754,Simcolourproject_2stim_asymm_v5,2020.2.10,Win32,60,61025ae37ef11b136ea224fe,,,,,,,,,912,44,-20.5,1,0,0,response3disk,,5,44,-0.5,1,0,0,rectangle,44,-0.5,1,0,0,44,-0.5,1,0,0,0,40,40,76,1,,,,,,,,
,,,,,,,,,,,,,FF,,,,,,,,3.503,,,,,,,,,,,,,,,,,,,,,,60ffbf91875b2c515d251452,610376a9ddd5cd2c1be0548f,2021-07-30_13h57.42.754,Simcolourproject_2stim_asymm_v5,2020.2.10,Win32,60,61025ae37ef11b136ea224fe,,,,,,,,,2404,58,-29.5,1,0,0,response3disk,,5,38,-3.5,1,0,0,rectangle,38,-3.5,1,0,0,38,-3.5,1,0,0,0,41,41,44,1,,,,,,,,
,,,,,,,,,,,,,FF,,,,,,,,4.4536,,,,,,,,,,,,,,,,,,,,,,60ffbf91875b2c515d251452,610376a9ddd5cd2c1be0548f,2021-07-30_13h57.42.754,Simcolourproject_2stim_asymm_v5,2020.2.10,Win32,60,61025ae37ef11b136ea224fe,,,,,,,,,2997,70,-26.5,1,0,0,response3disk,,5,46,-12.5,1,0,0,rectangle,46,-12.5,1,0,0,46,-12.5,1,0,0,0,42,42,90,1,,,,,,,,
,,,,,,,,,,,,,FF,,,,,,,,2.9358,,,,,,,,,,,,,,,,,,,,,,60ffbf91875b2c515d251452,610376a9ddd5cd2c1be0548f,2021-07-30_13h57.42.754,Simcolourproject_2stim_asymm_v5,2020.2.10,Win32,60,61025ae37ef11b136ea224fe,,,,,,,,,788,60,22.5,1,0,0,response1disk,,6,41,-4.5,1,0,0,rectangle,-29,67.5,1,0,0,-10,-10.5,1,0,0,0,43,43,24,1,,response7disk_3,TRUE,0,0,"[254,266,246,52,95,234,289,44,226,116,118,264,36,210,111,222,210,285,152,74]",1.9511,rectangle
,,,,,,,,,,,,,FF,,,,,,,,2.0849,,,,,,,,,,,,,,,,,,,,,,60ffbf91875b2c515d251452,610376a9ddd5cd2c1be0548f,2021-07-30_13h57.42.754,Simcolourproject_2stim_asymm_v5,2020.2.10,Win32,60,61025ae37ef11b136ea224fe,,,,,,,,,3351,72,42.5,1,0,0,response1disk,,6,45,7.5,1,0,0,rectangle,45,7.5,1,0,0,45,7.5,1,0,0,0,44,44,145,1,,,,,,,,
,,,,,,,,,,,,,FF,,,,,,,,0.8506,,,,,,,,,,,,,,,,,,,,,,60ffbf91875b2c515d251452,610376a9ddd5cd2c1be0548f,2021-07-30_13h57.42.754,Simcolourproject_2stim_asymm_v5,2020.2.10,Win32,60,61025ae37ef11b136ea224fe,,,,,,,,,4179,32,63.5,1,0,0,response1disk,,7,38,-2.5,1,0,0,rectangle,38,-2.5,1,0,0,38,-2.5,1,0,0,0,45,45,106,1,,,,,,,,
,,,,,,,,,,,,,FF,,,,,,,,1.1508,,,,,,,,,,,,,,,,,,,,,,60ffbf91875b2c515d251452,610376a9ddd5cd2c1be0548f,2021-07-30_13h57.42.754,Simcolourproject_2stim_asymm_v5,2020.2.10,Win32,60,61025ae37ef11b136ea224fe,,,,,,,,,1679,43,-24.5,1,0,0,response3disk,,5,35,-3.5,1,0,0,rectangle,35,-3.5,1,0,0,35,-3.5,1,0,0,0,46,46,71,1,,,,,,,,
,,,,,,,,,,,,,FF,,,,,,,,1.4511,,,,,,,,,,,,,,,,,,,,,,60ffbf91875b2c515d251452,610376a9ddd5cd2c1be0548f,2021-07-30_13h57.42.754,Simcolourproject_2stim_asymm_v5,2020.2.10,Win32,60,61025ae37ef11b136ea224fe,,,,,,,,,2079,57,39.5,1,0,0,response1disk,,6,8,-5.5,1,0,0,rectangle,8,-5.5,1,0,0,8,-5.5,1,0,0,0,47,47,52,1,,,,,,,,
,,,,,,,,,,,,,FF,,,,,,,,2.1349,,,,,,,,,,,,,,,,,,,,,,60ffbf91875b2c515d251452,610376a9ddd5cd2c1be0548f,2021-07-30_13h57.42.754,Simcolourproject_2stim_asymm_v5,2020.2.10,Win32,60,61025ae37ef11b136ea224fe,,,,,,,,,1469,-24,-48.5,1,0,0,response5disk,,3,9,-12.5,1,0,0,rectangle,9,-12.5,1,0,0,9,-12.5,1,0,0,0,48,48,123,1,,,,,,,,
,,,,,,,,,,,,,FF,,,,,,,,1.151,,,,,,,,,,,,,,,,,,,,,,60ffbf91875b2c515d251452,610376a9ddd5cd2c1be0548f,2021-07-30_13h57.42.754,Simcolourproject_2stim_asymm_v5,2020.2.10,Win32,60,61025ae37ef11b136ea224fe,,,,,,,,,2460,39,69.5,1,0,0,response1disk,,7,41,5.5,1,0,0,rectangle,41,5.5,1,0,0,41,5.5,1,0,0,0,49,49,143,1,,,,,,,,
,,,,,,,,,,,,,FF,,,,,,,,1.518,,,,,,,,,,,,,,,,,,,,,,60ffbf91875b2c515d251452,610376a9ddd5cd2c1be0548f,2021-07-30_13h57.42.754,Simcolourproject_2stim_asymm_v5,2020.2.10,Win32,60,61025ae37ef11b136ea224fe,,,,,,,,,3041,60,-22.5,1,0,0,response3disk,,5,42,-5.5,1,0,0,rectangle,42,-5.5,1,0,0,42,-5.5,1,0,0,0,50,50,111,1,,,,,,,,
,,,,,,,,,,,,,FF,,,,,,,,2.1688,,,,,,,,,,,,,,,,,,,,,,60ffbf91875b2c515d251452,610376a9ddd5cd2c1be0548f,2021-07-30_13h57.42.754,Simcolourproject_2stim_asymm_v5,2020.2.10,Win32,60,61025ae37ef11b136ea224fe,,,,,,,,,1581,51,-25.5,1,0,0,response3disk,,5,25,-2.5,1,0,0,rectangle,-73,-39.5,1,0,0,-28,1.5,1,0,0,0,51,51,64,1,,response5disk_3,TRUE,2,2,"[254,266,246,52,95,234,289,44,226,116,118,264,36,210,111,222,210,285,152,74]",2.9518,rectangle
,,,,,,,,,,,,,FF,,,,,,,,3.353,,,,,,,,,,,,,,,,,,,,,,60ffbf91875b2c515d251452,610376a9ddd5cd2c1be0548f,2021-07-30_13h57.42.754,Simcolourproject_2stim_asymm_v5,2020.2.10,Win32,60,61025ae37ef11b136ea224fe,,,,,,,,,1424,63,26.5,1,0,0,response1disk,,6,32,6.5,1,0,0,rectangle,32,6.5,1,0,0,32,6.5,1,0,0,0,52,52,39,1,,,,,,,,
,,,,,,,,,,,,,FF,,,,,,,,1.4009,,,,,,,,,,,,,,,,,,,,,,60ffbf91875b2c515d251452,610376a9ddd5cd2c1be0548f,2021-07-30_13h57.42.754,Simcolourproject_2stim_asymm_v5,2020.2.10,Win32,60,61025ae37ef11b136ea224fe,,,,,,,,,2332,-51,-29.5,1,0,0,response5disk,,2,-8,-7.5,1,0,0,rectangle,-8,-7.5,1,0,0,-8,-7.5,1,0,0,0,53,53,104,1,,,,,,,,
,,,,,,,,,,,,,FF,,,,,,,,1.0674,,,,,,,,,,,,,,,,,,,,,,60ffbf91875b2c515d251452,610376a9ddd5cd2c1be0548f,2021-07-30_13h57.42.754,Simcolourproject_2stim_asymm_v5,2020.2.10,Win32,60,61025ae37ef11b136ea224fe,,,,,,,,,4353,-57,45.5,1,0,0,response7disk,,1,-16,3.5,1,0,0,rectangle,-16,3.5,1,0,0,-16,3.5,1,0,0,0,54,54,93,1,,,,,,,,
,,,,,,,,,,,,,FF,,,,,,,,2.002,,,,,,,,,,,,,,,,,,,,,,60ffbf91875b2c515d251452,610376a9ddd5cd2c1be0548f,2021-07-30_13h57.42.754,Simcolourproject_2stim_asymm_v5,2020.2.10,Win32,60,61025ae37ef11b136ea224fe,,,,,,,,,1643,33,-60.5,1,0,0,response3disk,,4,32,-15.5,1,0,0,rectangle,32,-15.5,1,0,0,32,-15.5,1,0,0,0,55,55,91,1,,,,,,,,
,,,,,,,,,,,,,FF,,,,,,,,2.1017,,,,,,,,,,,,,,,,,,,,,,60ffbf91875b2c515d251452,610376a9ddd5cd2c1be0548f,2021-07-30_13h57.42.754,Simcolourproject_2stim_asymm_v5,2020.2.10,Win32,60,61025ae37ef11b136ea224fe,,,,,,,,,825,-21,-46.5,1,0,0,response5disk,,3,18,-0.5,1,0,0,rectangle,18,-0.5,1,0,0,18,-0.5,1,0,0,0,56,56,41,1,,,,,,,,
,,,,,,,,,,,,,FF,,,,,,,,1.2007,,,,,,,,,,,,,,,,,,,,,,60ffbf91875b2c515d251452,610376a9ddd5cd2c1be0548f,2021-07-30_13h57.42.754,Simcolourproject_2stim_asymm_v5,2020.2.10,Win32,60,61025ae37ef11b136ea224fe,,,,,,,,,2678,-25,-48.5,1,0,0,response5disk,,3,14,12.5,1,0,0,rectangle,14,12.5,1,0,0,14,12.5,1,0,0,0,57,57,42,1,,,,,,,,
,,,,,,,,,,,,,FF,,,,,,,,0.817,,,,,,,,,,,,,,,,,,,,,,60ffbf91875b2c515d251452,610376a9ddd5cd2c1be0548f,2021-07-30_13h57.42.754,Simcolourproject_2stim_asymm_v5,2020.2.10,Win32,60,61025ae37ef11b136ea224fe,,,,,,,,,2692,-28,-38.5,1,0,0,response5disk,,3,1,4.5,1,0,0,rectangle,1,4.5,1,0,0,1,4.5,1,0,0,0,58,58,158,1,,,,,,,,
,,,,,,,,,,,,,FF,,,,,,,,1.268,,,,,,,,,,,,,,,,,,,,,,60ffbf91875b2c515d251452,610376a9ddd5cd2c1be0548f,2021-07-30_13h57.42.754,Simcolourproject_2stim_asymm_v5,2020.2.10,Win32,60,61025ae37ef11b136ea224fe,,,,,,,,,3188,-60,-17.5,1,0,0,response5disk,,2,-7,-1.5,1,0,0,rectangle,-7,-1.5,1,0,0,-7,-1.5,1,0,0,0,59,59,53,1,,,,,,,,
,,,,,,,,,,,,,FF,,,,,,,,2.0015,,,,,,,,,,,,,,,,,,,,,,60ffbf91875b2c515d251452,610376a9ddd5cd2c1be0548f,2021-07-30_13h57.42.754,Simcolourproject_2stim_asymm_v5,2020.2.10,Win32,60,61025ae37ef11b136ea224fe,,,,,,,,,515,-56,35.5,1,0,0,response7disk,,1,-31,9.5,1,0,0,rectangle,-31,9.5,1,0,0,-31,9.5,1,0,0,0,60,60,137,1,,,,,,,,
,,,,,,,,,,,,,FF,,,,,,,,1.9349,,,,,,,,,,,,,,,,,,,,,,60ffbf91875b2c515d251452,610376a9ddd5cd2c1be0548f,2021-07-30_13h57.42.754,Simcolourproject_2stim_asymm_v5,2020.2.10,Win32,60,61025ae37ef11b136ea224fe,,,,,,,,,823,-23,-48.5,1,0,0,response5disk,,3,15,-0.5,1,0,0,rectangle,15,-0.5,1,0,0,15,-0.5,1,0,0,0,61,61,55,1,,,,,,,,
,,,,,,,,,,,,,FF,,,,,,,,1.2844,,,,,,,,,,,,,,,,,,,,,,60ffbf91875b2c515d251452,610376a9ddd5cd2c1be0548f,2021-07-30_13h57.42.754,Simcolourproject_2stim_asymm_v5,2020.2.10,Win32,60,61025ae37ef11b136ea224fe,,,,,,,,,2070,30,-48.5,1,0,0,response3disk,,4,31,-3.5,1,0,0,rectangle,31,-3.5,1,0,0,31,-3.5,1,0,0,0,62,62,110,1,,,,,,,,
,,,,,,,,,,,,,FF,,,,,,,,2.2849,,,,,,,,,,,,,,,,,,,,,,60ffbf91875b2c515d251452,610376a9ddd5cd2c1be0548f,2021-07-30_13h57.42.754,Simcolourproject_2stim_asymm_v5,2020.2.10,Win32,60,61025ae37ef11b136ea224fe,,,,,,,,,4295,-62,-21.5,1,0,0,response5disk,,2,-13,7.5,1,0,0,rectangle,-13,7.5,1,0,0,-13,7.5,1,0,0,0,63,63,2,1,,,,,,,,
,,,,,,,,,,,,,FF,,,,,,,,1.2012,,,,,,,,,,,,,,,,,,,,,,60ffbf91875b2c515d251452,610376a9ddd5cd2c1be0548f,2021-07-30_13h57.42.754,Simcolourproject_2stim_asymm_v5,2020.2.10,Win32,60,61025ae37ef11b136ea224fe,,,,,,,,,3228,74,28.5,1,0,0,response1disk,,6,50,-1.5,1,0,0,rectangle,50,-1.5,1,0,0,50,-1.5,1,0,0,0,64,64,149,1,,,,,,,,
,,,,,,,,,,,,,FF,,,,,,,,3.2027,,,,,,,,,,,,,,,,,,,,,,60ffbf91875b2c515d251452,610376a9ddd5cd2c1be0548f,2021-07-30_13h57.42.754,Simcolourproject_2stim_asymm_v5,2020.2.10,Win32,60,61025ae37ef11b136ea224fe,,,,,,,,,1893,-73,-31.5,1,0,0,response5disk,,2,-24,-7.5,1,0,0,rectangle,-24,-7.5,1,0,0,-24,-7.5,1,0,0,0,65,65,88,1,,,,,,,,
,,,,,,,,,,,,,FF,,,,,,,,2.035,,,,,,,,,,,,,,,,,,,,,,60ffbf91875b2c515d251452,610376a9ddd5cd2c1be0548f,2021-07-30_13h57.42.754,Simcolourproject_2stim_asymm_v5,2020.2.10,Win32,60,61025ae37ef11b136ea224fe,,,,,,,,,4311,29,54.5,1,0,0,response1disk,,7,21,-2.5,1,0,0,rectangle,21,-2.5,1,0,0,21,-2.5,1,0,0,0,66,66,65,1,,,,,,,,
,,,,,,,,,,,,,FF,,,,,,,,0.984,,,,,,,,,,,,,,,,,,,,,,60ffbf91875b2c515d251452,610376a9ddd5cd2c1be0548f,2021-07-30_13h57.42.754,Simcolourproject_2stim_asymm_v5,2020.2.10,Win32,60,61025ae37ef11b136ea224fe,,,,,,,,,2009,26,68.5,1,0,0,response1disk,,7,31,7.5,1,0,0,rectangle,31,7.5,1,0,0,31,7.5,1,0,0,0,67,67,154,1,,,,,,,,
,,,,,,,,,,,,,FF,,,,,,,,0.834,,,,,,,,,,,,,,,,,,,,,,60ffbf91875b2c515d251452,610376a9ddd5cd2c1be0548f,2021-07-30_13h57.42.754,Simcolourproject_2stim_asymm_v5,2020.2.10,Win32,60,61025ae37ef11b136ea224fe,,,,,,,,,136,59,27.5,1,0,0,response1disk,,6,43,-6.5,1,0,0,rectangle,43,-6.5,1,0,0,43,-6.5,1,0,0,0,68,68,62,1,,,,,,,,
,,,,,,,,,,,,,FF,,,,,,,,0.834,,,,,,,,,,,,,,,,,,,,,,60ffbf91875b2c515d251452,610376a9ddd5cd2c1be0548f,2021-07-30_13h57.42.754,Simcolourproject_2stim_asymm_v5,2020.2.10,Win32,60,61025ae37ef11b136ea224fe,,,,,,,,,2733,54,-30.5,1,0,0,response3disk,,5,32,-0.5,1,0,0,rectangle,32,-0.5,1,0,0,32,-0.5,1,0,0,0,69,69,25,1,,,,,,,,
,,,,,,,,,,,,,FF,,,,,,,,2.752,,,,,,,,,,,,,,,,,,,,,,60ffbf91875b2c515d251452,610376a9ddd5cd2c1be0548f,2021-07-30_13h57.42.754,Simcolourproject_2stim_asymm_v5,2020.2.10,Win32,60,61025ae37ef11b136ea224fe,,,,,,,,,3430,-24,-52.5,1,0,0,response5disk,,3,5,3.5,1,0,0,rectangle,5,3.5,1,0,0,5,3.5,1,0,0,0,70,70,12,1,,,,,,,,
,,,,,,,,,,,,,FF,,,,,,,,1.685,,,,,,,,,,,,,,,,,,,,,,60ffbf91875b2c515d251452,610376a9ddd5cd2c1be0548f,2021-07-30_13h57.42.754,Simcolourproject_2stim_asymm_v5,2020.2.10,Win32,60,61025ae37ef11b136ea224fe,,,,,,,,,3062,30,-58.5,1,0,0,response3disk,,4,34,1.5,1,0,0,rectangle,34,1.5,1,0,0,34,1.5,1,0,0,0,71,71,139,1,,,,,,,,
,,,,,,,,,,,,,FF,,,,,,,,2.4188,,,,,,,,,,,,,,,,,,,,,,60ffbf91875b2c515d251452,610376a9ddd5cd2c1be0548f,2021-07-30_13h57.42.754,Simcolourproject_2stim_asymm_v5,2020.2.10,Win32,60,61025ae37ef11b136ea224fe,,,,,,,,,1443,-34,-42.5,1,0,0,response5disk,,3,-18,-5.5,1,0,0,rectangle,-18,-5.5,1,0,0,-18,-5.5,1,0,0,0,72,72,150,1,,,,,,,,
,,,,,,,,,,,,,FF,,,,,,,,1.1508,,,,,,,,,,,,,,,,,,,,,,60ffbf91875b2c515d251452,610376a9ddd5cd2c1be0548f,2021-07-30_13h57.42.754,Simcolourproject_2stim_asymm_v5,2020.2.10,Win32,60,61025ae37ef11b136ea224fe,,,,,,,,,177,46,39.5,1,0,0,response1disk,,6,20,9.5,1,0,0,rectangle,-72,-40.5,1,0,0,-5,6.5,1,0,0,0,73,73,109,1,,response5disk_3,TRUE,2,2,"[254,266,246,52,95,234,289,44,226,116,118,264,36,210,111,222,210,285,152,74]",2.2854,rectangle
,,,,,,,,,,,,,FF,,,,,,,,3.5029,,,,,,,,,,,,,,,,,,,,,,60ffbf91875b2c515d251452,610376a9ddd5cd2c1be0548f,2021-07-30_13h57.42.754,Simcolourproject_2stim_asymm_v5,2020.2.10,Win32,60,61025ae37ef11b136ea224fe,,,,,,,,,3064,35,-57.5,1,0,0,response3disk,,4,31,-17.5,1,0,0,rectangle,31,-17.5,1,0,0,31,-17.5,1,0,0,0,74,74,29,1,,,,,,,,
,,,,,,,,,,,,,FF,,,,,,,,2.9692,,,,,,,,,,,,,,,,,,,,,,60ffbf91875b2c515d251452,610376a9ddd5cd2c1be0548f,2021-07-30_13h57.42.754,Simcolourproject_2stim_asymm_v5,2020.2.10,Win32,60,61025ae37ef11b136ea224fe,,,,,,,,,3916,60,-21.5,1,0,0,response3disk,,5,23,-0.5,1,0,0,rectangle,23,-0.5,1,0,0,23,-0.5,1,0,0,0,75,75,7,1,,,,,,,,
,,,,,,,,,,,,,FF,,,,,,,,1.7181,,,,,,,,,,,,,,,,,,,,,,60ffbf91875b2c515d251452,610376a9ddd5cd2c1be0548f,2021-07-30_13h57.42.754,Simcolourproject_2stim_asymm_v5,2020.2.10,Win32,60,61025ae37ef11b136ea224fe,,,,,,,,,397,52,29.5,1,0,0,response1disk,,6,34,7.5,1,0,0,rectangle,34,7.5,1,0,0,34,7.5,1,0,0,0,76,76,19,1,,,,,,,,
,,,,,,,,,,,,,FF,,,,,,,,1.3011,,,,,,,,,,,,,,,,,,,,,,60ffbf91875b2c515d251452,610376a9ddd5cd2c1be0548f,2021-07-30_13h57.42.754,Simcolourproject_2stim_asymm_v5,2020.2.10,Win32,60,61025ae37ef11b136ea224fe,,,,,,,,,239,-19,-58.5,1,0,0,response5disk,,3,18,-12.5,1,0,0,rectangle,18,-12.5,1,0,0,18,-12.5,1,0,0,0,77,77,57,1,,,,,,,,
,,,,,,,,,,,,,FF,,,,,,,,2.2839,,,,,,,,,,,,,,,,,,,,,,60ffbf91875b2c515d251452,610376a9ddd5cd2c1be0548f,2021-07-30_13h57.42.754,Simcolourproject_2stim_asymm_v5,2020.2.10,Win32,60,61025ae37ef11b136ea224fe,,,,,,,,,26,33,-45.5,1,0,0,response3disk,,4,36,0.5,1,0,0,rectangle,36,0.5,1,0,0,36,0.5,1,0,0,0,78,78,23,1,,,,,,,,
,,,,,,,,,,,,,FF,,,,,,,,1.0675,,,,,,,,,,,,,,,,,,,,,,60ffbf91875b2c515d251452,610376a9ddd5cd2c1be0548f,2021-07-30_13h57.42.754,Simcolourproject_2stim_asymm_v5,2020.2.10,Win32,60,61025ae37ef11b136ea224fe,,,,,,,,,3581,23,-37.5,1,0,0,response3disk,,4,32,-10.5,1,0,0,rectangle,32,-10.5,1,0,0,32,-10.5,1,0,0,0,79,79,103,1,,,,,,,,
,,,,,,,,,,,,,FF,,,,,,,,1.1342,,,,,,,,,,,,,,,,,,,,,,60ffbf91875b2c515d251452,610376a9ddd5cd2c1be0548f,2021-07-30_13h57.42.754,Simcolourproject_2stim_asymm_v5,2020.2.10,Win32,60,61025ae37ef11b136ea224fe,,,,,,,,,1094,37,-16.5,1,0,0,response3disk,,5,37,3.5,1,0,0,rectangle,37,3.5,1,0,0,37,3.5,1,0,0,0,80,80,20,1,,,,,,,,
,,,,,,,,,,,,,FF,,,,,,,,0.9835,,,,,,,,,,,,,,,,,,,,,,60ffbf91875b2c515d251452,610376a9ddd5cd2c1be0548f,2021-07-30_13h57.42.754,Simcolourproject_2stim_asymm_v5,2020.2.10,Win32,60,61025ae37ef11b136ea224fe,,,,,,,,,249,66,35.5,1,0,0,response1disk,,6,10,8.5,1,0,0,rectangle,10,8.5,1,0,0,10,8.5,1,0,0,0,81,81,116,1,,,,,,,,
,,,,,,,,,,,,,FF,,,,,,,,2.352,,,,,,,,,,,,,,,,,,,,,,60ffbf91875b2c515d251452,610376a9ddd5cd2c1be0548f,2021-07-30_13h57.42.754,Simcolourproject_2stim_asymm_v5,2020.2.10,Win32,60,61025ae37ef11b136ea224fe,,,,,,,,,4197,21,-44.5,1,0,0,response3disk,,4,37,-13.5,1,0,0,rectangle,37,-13.5,1,0,0,37,-13.5,1,0,0,0,82,82,82,1,,,,,,,,
,,,,,,,,,,,,,FF,,,,,,,,1.6182,,,,,,,,,,,,,,,,,,,,,,60ffbf91875b2c515d251452,610376a9ddd5cd2c1be0548f,2021-07-30_13h57.42.754,Simcolourproject_2stim_asymm_v5,2020.2.10,Win32,60,61025ae37ef11b136ea224fe,,,,,,,,,1336,47,-24.5,1,0,0,response3disk,,5,39,-5.5,1,0,0,rectangle,39,-5.5,1,0,0,39,-5.5,1,0,0,0,83,83,40,1,,,,,,,,
,,,,,,,,,,,,,FF,,,,,,,,0.8505,,,,,,,,,,,,,,,,,,,,,,60ffbf91875b2c515d251452,610376a9ddd5cd2c1be0548f,2021-07-30_13h57.42.754,Simcolourproject_2stim_asymm_v5,2020.2.10,Win32,60,61025ae37ef11b136ea224fe,,,,,,,,,2111,63,29.5,1,0,0,response1disk,,6,11,4.5,1,0,0,rectangle,11,4.5,1,0,0,11,4.5,1,0,0,0,84,84,77,1,,,,,,,,
,,,,,,,,,,,,,FF,,,,,,,,1.0174,,,,,,,,,,,,,,,,,,,,,,60ffbf91875b2c515d251452,610376a9ddd5cd2c1be0548f,2021-07-30_13h57.42.754,Simcolourproject_2stim_asymm_v5,2020.2.10,Win32,60,61025ae37ef11b136ea224fe,,,,,,,,,2696,54,-28.5,1,0,0,response3disk,,5,44,-7.5,1,0,0,rectangle,44,-7.5,1,0,0,44,-7.5,1,0,0,0,85,85,105,1,,,,,,,,
,,,,,,,,,,,,,FF,,,,,,,,0.9175,,,,,,,,,,,,,,,,,,,,,,60ffbf91875b2c515d251452,610376a9ddd5cd2c1be0548f,2021-07-30_13h57.42.754,Simcolourproject_2stim_asymm_v5,2020.2.10,Win32,60,61025ae37ef11b136ea224fe,,,,,,,,,675,24,-49.5,1,0,0,response3disk,,4,26,-2.5,1,0,0,rectangle,26,-2.5,1,0,0,26,-2.5,1,0,0,0,86,86,148,1,,,,,,,,
,,,,,,,,,,,,,FF,,,,,,,,2.0351,,,,,,,,,,,,,,,,,,,,,,60ffbf91875b2c515d251452,610376a9ddd5cd2c1be0548f,2021-07-30_13h57.42.754,Simcolourproject_2stim_asymm_v5,2020.2.10,Win32,60,61025ae37ef11b136ea224fe,,,,,,,,,2873,-29,-54.5,1,0,0,response5disk,,3,15,12.5,1,0,0,rectangle,15,12.5,1,0,0,15,12.5,1,0,0,0,87,87,18,1,,,,,,,,
,,,,,,,,,,,,,FF,,,,,,,,1.3843,,,,,,,,,,,,,,,,,,,,,,60ffbf91875b2c515d251452,610376a9ddd5cd2c1be0548f,2021-07-30_13h57.42.754,Simcolourproject_2stim_asymm_v5,2020.2.10,Win32,60,61025ae37ef11b136ea224fe,,,,,,,,,2256,-22,-39.5,1,0,0,response5disk,,3,1,-1.5,1,0,0,rectangle,1,-1.5,1,0,0,1,-1.5,1,0,0,0,88,88,107,1,,,,,,,,
,,,,,,,,,,,,,FF,,,,,,,,2.9523,,,,,,,,,,,,,,,,,,,,,,60ffbf91875b2c515d251452,610376a9ddd5cd2c1be0548f,2021-07-30_13h57.42.754,Simcolourproject_2stim_asymm_v5,2020.2.10,Win32,60,61025ae37ef11b136ea224fe,,,,,,,,,1109,37,-40.5,1,0,0,response3disk,,4,37,-11.5,1,0,0,rectangle,37,-11.5,1,0,0,37,-11.5,1,0,0,0,89,89,68,1,,,,,,,,
,,,,,,,,,,,,,FF,,,,,,,,2.4015,,,,,,,,,,,,,,,,,,,,,,60ffbf91875b2c515d251452,610376a9ddd5cd2c1be0548f,2021-07-30_13h57.42.754,Simcolourproject_2stim_asymm_v5,2020.2.10,Win32,60,61025ae37ef11b136ea224fe,,,,,,,,,3693,-70,-15.5,1,0,0,response5disk,,2,-35,1.5,1,0,0,rectangle,-35,1.5,1,0,0,-35,1.5,1,0,0,0,90,90,144,1,,,,,,,,
,,,,,,,,,,,,,FF,,,,,,,,2.3684,,,,,,,,,,,,,,,,,,,,,,60ffbf91875b2c515d251452,610376a9ddd5cd2c1be0548f,2021-07-30_13h57.42.754,Simcolourproject_2stim_asymm_v5,2020.2.10,Win32,60,61025ae37ef11b136ea224fe,,,,,,,,,2934,-53,26.5,1,0,0,response7disk,,1,-39,15.5,1,0,0,rectangle,-39,15.5,1,0,0,-39,15.5,1,0,0,0,91,91,26,1,,,,,,,,
,,,,,,,,,,,,,FF,,,,,,,,1.6846,,,,,,,,,,,,,,,,,,,,,,60ffbf91875b2c515d251452,610376a9ddd5cd2c1be0548f,2021-07-30_13h57.42.754,Simcolourproject_2stim_asymm_v5,2020.2.10,Win32,60,61025ae37ef11b136ea224fe,,,,,,,,,3686,-33,-48.5,1,0,0,response5disk,,3,1,-5.5,1,0,0,rectangle,1,-5.5,1,0,0,1,-5.5,1,0,0,0,92,92,79,1,,,,,,,,
,,,,,,,,,,,,,FF,,,,,,,,1.3842,,,,,,,,,,,,,,,,,,,,,,60ffbf91875b2c515d251452,610376a9ddd5cd2c1be0548f,2021-07-30_13h57.42.754,Simcolourproject_2stim_asymm_v5,2020.2.10,Win32,60,61025ae37ef11b136ea224fe,,,,,,,,,3443,15,-38.5,1,0,0,response3disk,,4,22,-7.5,1,0,0,rectangle,22,-7.5,1,0,0,22,-7.5,1,0,0,0,93,93,37,1,,,,,,,,
,,,,,,,,,,,,,FF,,,,,,,,1.668,,,,,,,,,,,,,,,,,,,,,,60ffbf91875b2c515d251452,610376a9ddd5cd2c1be0548f,2021-07-30_13h57.42.754,Simcolourproject_2stim_asymm_v5,2020.2.10,Win32,60,61025ae37ef11b136ea224fe,,,,,,,,,733,48,-22.5,1,0,0,response3disk,,5,48,-4.5,1,0,0,rectangle,-72,-48.5,1,0,0,-24,-6.5,1,0,0,0,94,94,81,1,,response5disk_3,TRUE,2,2,"[254,266,246,52,95,234,289,44,226,116,118,264,36,210,111,222,210,285,152,74]",2.202,rectangle
,,,,,,,,,,,,,FF,,,,,,,,1.8183,,,,,,,,,,,,,,,,,,,,,,60ffbf91875b2c515d251452,610376a9ddd5cd2c1be0548f,2021-07-30_13h57.42.754,Simcolourproject_2stim_asymm_v5,2020.2.10,Win32,60,61025ae37ef11b136ea224fe,,,,,,,,,4181,-37,61.5,1,0,0,response7disk,,0,-12,2.5,1,0,0,rectangle,-12,2.5,1,0,0,-12,2.5,1,0,0,0,95,95,125,1,,,,,,,,
,,,,,,,,,,,,,FF,,,,,,,,1.9183,,,,,,,,,,,,,,,,,,,,,,60ffbf91875b2c515d251452,610376a9ddd5cd2c1be0548f,2021-07-30_13h57.42.754,Simcolourproject_2stim_asymm_v5,2020.2.10,Win32,60,61025ae37ef11b136ea224fe,,,,,,,,,220,63,24.5,1,0,0,response1disk,,6,41,6.5,1,0,0,rectangle,41,6.5,1,0,0,41,6.5,1,0,0,0,96,96,56,1,,,,,,,,
,,,,,,,,,,,,,FF,,,,,,,,1.8013,,,,,,,,,,,,,,,,,,,,,,60ffbf91875b2c515d251452,610376a9ddd5cd2c1be0548f,2021-07-30_13h57.42.754,Simcolourproject_2stim_asymm_v5,2020.2.10,Win32,60,61025ae37ef11b136ea224fe,,,,,,,,,2281,34,62.5,1,0,0,response1disk,,7,44,6.5,1,0,0,rectangle,44,6.5,1,0,0,44,6.5,1,0,0,0,97,97,97,1,,,,,,,,
,,,,,,,,,,,,,FF,,,,,,,,1.0008,,,,,,,,,,,,,,,,,,,,,,60ffbf91875b2c515d251452,610376a9ddd5cd2c1be0548f,2021-07-30_13h57.42.754,Simcolourproject_2stim_asymm_v5,2020.2.10,Win32,60,61025ae37ef11b136ea224fe,,,,,,,,,383,29,60.5,1,0,0,response1disk,,7,37,15.5,1,0,0,rectangle,37,15.5,1,0,0,37,15.5,1,0,0,0,98,98,115,1,,,,,,,,
,,,,,,,,,,,,,FF,,,,,,,,1.6515,,,,,,,,,,,,,,,,,,,,,,60ffbf91875b2c515d251452,610376a9ddd5cd2c1be0548f,2021-07-30_13h57.42.754,Simcolourproject_2stim_asymm_v5,2020.2.10,Win32,60,61025ae37ef11b136ea224fe,,,,,,,,,3600,56,-16.5,1,0,0,response3disk,,5,40,5.5,1,0,0,rectangle,40,5.5,1,0,0,40,5.5,1,0,0,0,99,99,113,1,,,,,,,,
,,,,,,,,,,,,,FF,,,,,,,,2.4687,,,,,,,,,,,,,,,,,,,,,,60ffbf91875b2c515d251452,610376a9ddd5cd2c1be0548f,2021-07-30_13h57.42.754,Simcolourproject_2stim_asymm_v5,2020.2.10,Win32,60,61025ae37ef11b136ea224fe,,,,,,,,,2046,55,32.5,1,0,0,response1disk,,6,23,2.5,1,0,0,rectangle,23,2.5,1,0,0,23,2.5,1,0,0,0,100,100,159,1,,,,,,,,
,,,,,,,,,,,,,FF,,,,,,,,2.5689,,,,,,,,,,,,,,,,,,,,,,60ffbf91875b2c515d251452,610376a9ddd5cd2c1be0548f,2021-07-30_13h57.42.754,Simcolourproject_2stim_asymm_v5,2020.2.10,Win32,60,61025ae37ef11b136ea224fe,,,,,,,,,3541,65,18.5,1,0,0,response1disk,,6,34,-11.5,1,0,0,rectangle,34,-11.5,1,0,0,34,-11.5,1,0,0,0,101,101,21,1,,,,,,,,
,,,,,,,,,,,,,FF,,,,,,,,0.8174,,,,,,,,,,,,,,,,,,,,,,60ffbf91875b2c515d251452,610376a9ddd5cd2c1be0548f,2021-07-30_13h57.42.754,Simcolourproject_2stim_asymm_v5,2020.2.10,Win32,60,61025ae37ef11b136ea224fe,,,,,,,,,768,43,-21.5,1,0,0,response3disk,,5,24,-2.5,1,0,0,rectangle,24,-2.5,1,0,0,24,-2.5,1,0,0,0,102,102,135,1,,,,,,,,
,,,,,,,,,,,,,FF,,,,,,,,1.1511,,,,,,,,,,,,,,,,,,,,,,60ffbf91875b2c515d251452,610376a9ddd5cd2c1be0548f,2021-07-30_13h57.42.754,Simcolourproject_2stim_asymm_v5,2020.2.10,Win32,60,61025ae37ef11b136ea224fe,,,,,,,,,2743,31,-43.5,1,0,0,response3disk,,4,20,-1.5,1,0,0,rectangle,20,-1.5,1,0,0,20,-1.5,1,0,0,0,103,103,63,1,,,,,,,,
,,,,,,,,,,,,,FF,,,,,,,,1.518,,,,,,,,,,,,,,,,,,,,,,60ffbf91875b2c515d251452,610376a9ddd5cd2c1be0548f,2021-07-30_13h57.42.754,Simcolourproject_2stim_asymm_v5,2020.2.10,Win32,60,61025ae37ef11b136ea224fe,,,,,,,,,833,24,-37.5,1,0,0,response3disk,,4,21,-3.5,1,0,0,rectangle,21,-3.5,1,0,0,21,-3.5,1,0,0,0,104,104,34,1,,,,,,,,
,,,,,,,,,,,,,FF,,,,,,,,0.9678,,,,,,,,,,,,,,,,,,,,,,60ffbf91875b2c515d251452,610376a9ddd5cd2c1be0548f,2021-07-30_13h57.42.754,Simcolourproject_2stim_asymm_v5,2020.2.10,Win32,60,61025ae37ef11b136ea224fe,,,,,,,,,1267,-24,-49.5,1,0,0,response5disk,,3,-1,-4.5,1,0,0,rectangle,-1,-4.5,1,0,0,-1,-4.5,1,0,0,0,105,105,94,1,,,,,,,,
,,,,,,,,,,,,,FF,,,,,,,,0.8507,,,,,,,,,,,,,,,,,,,,,,60ffbf91875b2c515d251452,610376a9ddd5cd2c1be0548f,2021-07-30_13h57.42.754,Simcolourproject_2stim_asymm_v5,2020.2.10,Win32,60,61025ae37ef11b136ea224fe,,,,,,,,,3875,-35,66.5,1,0,0,response7disk,,0,-12,13.5,1,0,0,rectangle,-12,13.5,1,0,0,-12,13.5,1,0,0,0,106,106,30,1,,,,,,,,
,,,,,,,,,,,,,FF,,,,,,,,1.2678,,,,,,,,,,,,,,,,,,,,,,60ffbf91875b2c515d251452,610376a9ddd5cd2c1be0548f,2021-07-30_13h57.42.754,Simcolourproject_2stim_asymm_v5,2020.2.10,Win32,60,61025ae37ef11b136ea224fe,,,,,,,,,2517,62,27.5,1,0,0,response1disk,,6,32,4.5,1,0,0,rectangle,32,4.5,1,0,0,32,4.5,1,0,0,0,107,107,85,1,,,,,,,,
,,,,,,,,,,,,,FF,,,,,,,,2.2854,,,,,,,,,,,,,,,,,,,,,,60ffbf91875b2c515d251452,610376a9ddd5cd2c1be0548f,2021-07-30_13h57.42.754,Simcolourproject_2stim_asymm_v5,2020.2.10,Win32,60,61025ae37ef11b136ea224fe,,,,,,,,,3746,-61,-43.5,1,0,0,response5disk,,2,-16,-14.5,1,0,0,rectangle,-16,-14.5,1,0,0,-16,-14.5,1,0,0,0,108,108,138,1,,,,,,,,
,,,,,,,,,,,,,FF,,,,,,,,1.2345,,,,,,,,,,,,,,,,,,,,,,60ffbf91875b2c515d251452,610376a9ddd5cd2c1be0548f,2021-07-30_13h57.42.754,Simcolourproject_2stim_asymm_v5,2020.2.10,Win32,60,61025ae37ef11b136ea224fe,,,,,,,,,3915,29,-50.5,1,0,0,response3disk,,4,14,-5.5,1,0,0,rectangle,14,-5.5,1,0,0,14,-5.5,1,0,0,0,109,109,140,1,,,,,,,,
,,,,,,,,,,,,,FF,,,,,,,,1.7182,,,,,,,,,,,,,,,,,,,,,,60ffbf91875b2c515d251452,610376a9ddd5cd2c1be0548f,2021-07-30_13h57.42.754,Simcolourproject_2stim_asymm_v5,2020.2.10,Win32,60,61025ae37ef11b136ea224fe,,,,,,,,,255,-65,-13.5,1,0,0,response5disk,,2,-25,1.5,1,0,0,rectangle,26,66.5,1,0,0,7,-4.5,1,0,0,0,110,110,38,1,,response1disk_3,TRUE,7,7,"[254,266,246,52,95,234,289,44,226,116,118,264,36,210,111,222,210,285,152,74]",2.3349,rectangle
,,,,,,,,,,,,,FF,,,,,,,,1.1344,,,,,,,,,,,,,,,,,,,,,,60ffbf91875b2c515d251452,610376a9ddd5cd2c1be0548f,2021-07-30_13h57.42.754,Simcolourproject_2stim_asymm_v5,2020.2.10,Win32,60,61025ae37ef11b136ea224fe,,,,,,,,,839,61,34.5,1,0,0,response1disk,,6,30,7.5,1,0,0,rectangle,30,7.5,1,0,0,30,7.5,1,0,0,0,111,111,6,1,,,,,,,,
,,,,,,,,,,,,,FF,,,,,,,,1.0511,,,,,,,,,,,,,,,,,,,,,,60ffbf91875b2c515d251452,610376a9ddd5cd2c1be0548f,2021-07-30_13h57.42.754,Simcolourproject_2stim_asymm_v5,2020.2.10,Win32,60,61025ae37ef11b136ea224fe,,,,,,,,,2645,-48,-26.5,1,0,0,response5disk,,2,-13,-11.5,1,0,0,rectangle,-13,-11.5,1,0,0,-13,-11.5,1,0,0,0,112,112,27,1,,,,,,,,
,,,,,,,,,,,,,FF,,,,,,,,1.9017,,,,,,,,,,,,,,,,,,,,,,60ffbf91875b2c515d251452,610376a9ddd5cd2c1be0548f,2021-07-30_13h57.42.754,Simcolourproject_2stim_asymm_v5,2020.2.10,Win32,60,61025ae37ef11b136ea224fe,,,,,,,,,429,-12,-45.5,1,0,0,response5disk,,3,5,8.5,1,0,0,rectangle,5,8.5,1,0,0,5,8.5,1,0,0,0,113,113,121,1,,,,,,,,
,,,,,,,,,,,,,FF,,,,,,,,1.101,,,,,,,,,,,,,,,,,,,,,,60ffbf91875b2c515d251452,610376a9ddd5cd2c1be0548f,2021-07-30_13h57.42.754,Simcolourproject_2stim_asymm_v5,2020.2.10,Win32,60,61025ae37ef11b136ea224fe,,,,,,,,,267,65,41.5,1,0,0,response1disk,,6,30,20.5,1,0,0,rectangle,30,20.5,1,0,0,30,20.5,1,0,0,0,114,114,120,1,,,,,,,,
,,,,,,,,,,,,,FF,,,,,,,,0.9175,,,,,,,,,,,,,,,,,,,,,,60ffbf91875b2c515d251452,610376a9ddd5cd2c1be0548f,2021-07-30_13h57.42.754,Simcolourproject_2stim_asymm_v5,2020.2.10,Win32,60,61025ae37ef11b136ea224fe,,,,,,,,,1479,34,62.5,1,0,0,response1disk,,7,28,2.5,1,0,0,rectangle,-37,-64.5,1,0,0,3,-3.5,1,0,0,0,115,115,142,1,,response5disk_3,TRUE,3,3,"[254,266,246,52,95,234,289,44,226,116,118,264,36,210,111,222,210,285,152,74]",2.0182,rectangle
,,,,,,,,,,,,,FF,,,,,,,,1.4679,,,,,,,,,,,,,,,,,,,,,,60ffbf91875b2c515d251452,610376a9ddd5cd2c1be0548f,2021-07-30_13h57.42.754,Simcolourproject_2stim_asymm_v5,2020.2.10,Win32,60,61025ae37ef11b136ea224fe,,,,,,,,,75,57,-33.5,1,0,0,response3disk,,5,41,-11.5,1,0,0,rectangle,41,-11.5,1,0,0,41,-11.5,1,0,0,0,116,116,28,1,,,,,,,,
,,,,,,,,,,,,,FF,,,,,,,,2.2851,,,,,,,,,,,,,,,,,,,,,,60ffbf91875b2c515d251452,610376a9ddd5cd2c1be0548f,2021-07-30_13h57.42.754,Simcolourproject_2stim_asymm_v5,2020.2.10,Win32,60,61025ae37ef11b136ea224fe,,,,,,,,,1787,-65,20.5,1,0,0,response7disk,,1,-60,2.5,1,0,0,rectangle,-27,-55.5,1,0,0,2,-3.5,1,0,0,0,117,117,98,1,,response5disk_3,TRUE,3,3,"[254,266,246,52,95,234,289,44,226,116,118,264,36,210,111,222,210,285,152,74]",1.5012,rectangle
,,,,,,,,,,,,,FF,,,,,,,,0.684,,,,,,,,,,,,,,,,,,,,,,60ffbf91875b2c515d251452,610376a9ddd5cd2c1be0548f,2021-07-30_13h57.42.754,Simcolourproject_2stim_asymm_v5,2020.2.10,Win32,60,61025ae37ef11b136ea224fe,,,,,,,,,3936,-33,59.5,1,0,0,response7disk,,0,-12,2.5,1,0,0,rectangle,-12,2.5,1,0,0,-12,2.5,1,0,0,0,118,118,58,1,,,,,,,,
,,,,,,,,,,,,,FF,,,,,,,,1.5678,,,,,,,,,,,,,,,,,,,,,,60ffbf91875b2c515d251452,610376a9ddd5cd2c1be0548f,2021-07-30_13h57.42.754,Simcolourproject_2stim_asymm_v5,2020.2.10,Win32,60,61025ae37ef11b136ea224fe,,,,,,,,,2998,-46,-15.5,1,0,0,response5disk,,2,2,0.5,1,0,0,rectangle,2,0.5,1,0,0,2,0.5,1,0,0,0,119,119,132,1,,,,,,,,
,,,,,,,,,,,,,FF,,,,,,,,1.201,,,,,,,,,,,,,,,,,,,,,,60ffbf91875b2c515d251452,610376a9ddd5cd2c1be0548f,2021-07-30_13h57.42.754,Simcolourproject_2stim_asymm_v5,2020.2.10,Win32,60,61025ae37ef11b136ea224fe,,,,,,,,,2923,-20,-55.5,1,0,0,response5disk,,3,17,-0.5,1,0,0,rectangle,17,-0.5,1,0,0,17,-0.5,1,0,0,0,120,120,60,1,,,,,,,,
,,,,,,,,,,,,,FF,,,,,,,,1.2343,,,,,,,,,,,,,,,,,,,,,,60ffbf91875b2c515d251452,610376a9ddd5cd2c1be0548f,2021-07-30_13h57.42.754,Simcolourproject_2stim_asymm_v5,2020.2.10,Win32,60,61025ae37ef11b136ea224fe,,,,,,,,,337,46,-30.5,1,0,0,response3disk,,5,29,16.5,1,0,0,rectangle,29,16.5,1,0,0,29,16.5,1,0,0,0,121,121,16,1,,,,,,,,
,,,,,,,,,,,,,FF,,,,,,,,0.9678,,,,,,,,,,,,,,,,,,,,,,60ffbf91875b2c515d251452,610376a9ddd5cd2c1be0548f,2021-07-30_13h57.42.754,Simcolourproject_2stim_asymm_v5,2020.2.10,Win32,60,61025ae37ef11b136ea224fe,,,,,,,,,1664,26,-42.5,1,0,0,response3disk,,4,32,-1.5,1,0,0,rectangle,32,-1.5,1,0,0,32,-1.5,1,0,0,0,122,122,134,1,,,,,,,,
,,,,,,,,,,,,,FF,,,,,,,,1.3678,,,,,,,,,,,,,,,,,,,,,,60ffbf91875b2c515d251452,610376a9ddd5cd2c1be0548f,2021-07-30_13h57.42.754,Simcolourproject_2stim_asymm_v5,2020.2.10,Win32,60,61025ae37ef11b136ea224fe,,,,,,,,,1159,-28,-54.5,1,0,0,response5disk,,3,6,0.5,1,0,0,rectangle,6,0.5,1,0,0,6,0.5,1,0,0,0,123,123,92,1,,,,,,,,
,,,,,,,,,,,,,FF,,,,,,,,1.4511,,,,,,,,,,,,,,,,,,,,,,60ffbf91875b2c515d251452,610376a9ddd5cd2c1be0548f,2021-07-30_13h57.42.754,Simcolourproject_2stim_asymm_v5,2020.2.10,Win32,60,61025ae37ef11b136ea224fe,,,,,,,,,2970,61,-15.5,1,0,0,response3disk,,5,36,10.5,1,0,0,rectangle,36,10.5,1,0,0,36,10.5,1,0,0,0,124,124,96,1,,,,,,,,
,,,,,,,,,,,,,FF,,,,,,,,1.3514,,,,,,,,,,,,,,,,,,,,,,60ffbf91875b2c515d251452,610376a9ddd5cd2c1be0548f,2021-07-30_13h57.42.754,Simcolourproject_2stim_asymm_v5,2020.2.10,Win32,60,61025ae37ef11b136ea224fe,,,,,,,,,3944,-34,-47.5,1,0,0,response5disk,,3,-16,-0.5,1,0,0,rectangle,-16,-0.5,1,0,0,-16,-0.5,1,0,0,0,125,125,128,1,,,,,,,,
,,,,,,,,,,,,,FF,,,,,,,,1.1841,,,,,,,,,,,,,,,,,,,,,,60ffbf91875b2c515d251452,610376a9ddd5cd2c1be0548f,2021-07-30_13h57.42.754,Simcolourproject_2stim_asymm_v5,2020.2.10,Win32,60,61025ae37ef11b136ea224fe,,,,,,,,,1708,60,42.5,1,0,0,response1disk,,6,17,-10.5,1,0,0,rectangle,17,-10.5,1,0,0,17,-10.5,1,0,0,0,126,126,67,1,,,,,,,,
,,,,,,,,,,,,,FF,,,,,,,,4.1034,,,,,,,,,,,,,,,,,,,,,,60ffbf91875b2c515d251452,610376a9ddd5cd2c1be0548f,2021-07-30_13h57.42.754,Simcolourproject_2stim_asymm_v5,2020.2.10,Win32,60,61025ae37ef11b136ea224fe,,,,,,,,,3366,48,-26.5,1,0,0,response3disk,,5,23,-0.5,1,0,0,rectangle,23,-0.5,1,0,0,23,-0.5,1,0,0,0,127,127,108,1,,,,,,,,
,,,,,,,,,,,,,FF,,,,,,,,2.5018,,,,,,,,,,,,,,,,,,,,,,60ffbf91875b2c515d251452,610376a9ddd5cd2c1be0548f,2021-07-30_13h57.42.754,Simcolourproject_2stim_asymm_v5,2020.2.10,Win32,60,61025ae37ef11b136ea224fe,,,,,,,,,3006,-36,-58.5,1,0,0,response5disk,,3,-6,2.5,1,0,0,rectangle,-6,2.5,1,0,0,-6,2.5,1,0,0,0,128,128,73,1,,,,,,,,
,,,,,,,,,,,,,FF,,,,,,,,1.7679,,,,,,,,,,,,,,,,,,,,,,60ffbf91875b2c515d251452,610376a9ddd5cd2c1be0548f,2021-07-30_13h57.42.754,Simcolourproject_2stim_asymm_v5,2020.2.10,Win32,60,61025ae37ef11b136ea224fe,,,,,,,,,1222,-44,-22.5,1,0,0,response5disk,,2,3,-1.5,1,0,0,rectangle,3,-1.5,1,0,0,3,-1.5,1,0,0,0,129,129,119,1,,,,,,,,
,,,,,,,,,,,,,FF,,,,,,,,1.3346,,,,,,,,,,,,,,,,,,,,,,60ffbf91875b2c515d251452,610376a9ddd5cd2c1be0548f,2021-07-30_13h57.42.754,Simcolourproject_2stim_asymm_v5,2020.2.10,Win32,60,61025ae37ef11b136ea224fe,,,,,,,,,782,19,-49.5,1,0,0,response3disk,,4,29,-6.5,1,0,0,rectangle,29,-6.5,1,0,0,29,-6.5,1,0,0,0,130,130,99,1,,,,,,,,
,,,,,,,,,,,,,FF,,,,,,,,1.1674,,,,,,,,,,,,,,,,,,,,,,60ffbf91875b2c515d251452,610376a9ddd5cd2c1be0548f,2021-07-30_13h57.42.754,Simcolourproject_2stim_asymm_v5,2020.2.10,Win32,60,61025ae37ef11b136ea224fe,,,,,,,,,1256,50,-24.5,1,0,0,response3disk,,5,38,3.5,1,0,0,rectangle,38,3.5,1,0,0,38,3.5,1,0,0,0,131,131,35,1,,,,,,,,
,,,,,,,,,,,,,FF,,,,,,,,1.101,,,,,,,,,,,,,,,,,,,,,,60ffbf91875b2c515d251452,610376a9ddd5cd2c1be0548f,2021-07-30_13h57.42.754,Simcolourproject_2stim_asymm_v5,2020.2.10,Win32,60,61025ae37ef11b136ea224fe,,,,,,,,,3717,37,-16.5,1,0,0,response3disk,,5,23,10.5,1,0,0,rectangle,23,10.5,1,0,0,23,10.5,1,0,0,0,132,132,32,1,,,,,,,,
,,,,,,,,,,,,,FF,,,,,,,,1.0342,,,,,,,,,,,,,,,,,,,,,,60ffbf91875b2c515d251452,610376a9ddd5cd2c1be0548f,2021-07-30_13h57.42.754,Simcolourproject_2stim_asymm_v5,2020.2.10,Win32,60,61025ae37ef11b136ea224fe,,,,,,,,,562,21,-35.5,1,0,0,response3disk,,4,30,-13.5,1,0,0,rectangle,30,-13.5,1,0,0,30,-13.5,1,0,0,0,133,133,0,1,,,,,,,,
,,,,,,,,,,,,,FF,,,,,,,,0.7676,,,,,,,,,,,,,,,,,,,,,,60ffbf91875b2c515d251452,610376a9ddd5cd2c1be0548f,2021-07-30_13h57.42.754,Simcolourproject_2stim_asymm_v5,2020.2.10,Win32,60,61025ae37ef11b136ea224fe,,,,,,,,,3745,48,-21.5,1,0,0,response3disk,,5,41,3.5,1,0,0,rectangle,41,3.5,1,0,0,41,3.5,1,0,0,0,134,134,54,1,,,,,,,,
,,,,,,,,,,,,,FF,,,,,,,,1.151,,,,,,,,,,,,,,,,,,,,,,60ffbf91875b2c515d251452,610376a9ddd5cd2c1be0548f,2021-07-30_13h57.42.754,Simcolourproject_2stim_asymm_v5,2020.2.10,Win32,60,61025ae37ef11b136ea224fe,,,,,,,,,360,-33,-40.5,1,0,0,response5disk,,3,-21,7.5,1,0,0,rectangle,-21,7.5,1,0,0,-21,7.5,1,0,0,0,135,135,124,1,,,,,,,,
,,,,,,,,,,,,,FF,,,,,,,,1.2179,,,,,,,,,,,,,,,,,,,,,,60ffbf91875b2c515d251452,610376a9ddd5cd2c1be0548f,2021-07-30_13h57.42.754,Simcolourproject_2stim_asymm_v5,2020.2.10,Win32,60,61025ae37ef11b136ea224fe,,,,,,,,,3339,59,39.5,1,0,0,response1disk,,6,20,3.5,1,0,0,rectangle,20,3.5,1,0,0,20,3.5,1,0,0,0,136,136,13,1,,,,,,,,
,,,,,,,,,,,,,FF,,,,,,,,2.5021,,,,,,,,,,,,,,,,,,,,,,60ffbf91875b2c515d251452,610376a9ddd5cd2c1be0548f,2021-07-30_13h57.42.754,Simcolourproject_2stim_asymm_v5,2020.2.10,Win32,60,61025ae37ef11b136ea224fe,,,,,,,,,42,56,-31.5,1,0,0,response3disk,,5,31,-1.5,1,0,0,rectangle,31,-1.5,1,0,0,31,-1.5,1,0,0,0,137,137,155,1,,,,,,,,
,,,,,,,,,,,,,FF,,,,,,,,2.7857,,,,,,,,,,,,,,,,,,,,,,60ffbf91875b2c515d251452,610376a9ddd5cd2c1be0548f,2021-07-30_13h57.42.754,Simcolourproject_2stim_asymm_v5,2020.2.10,Win32,60,61025ae37ef11b136ea224fe,,,,,,,,,2745,21,-53.5,1,0,0,response3disk,,4,26,-6.5,1,0,0,rectangle,26,-6.5,1,0,0,26,-6.5,1,0,0,0,138,138,11,1,,,,,,,,
,,,,,,,,,,,,,FF,,,,,,,,1.4177,,,,,,,,,,,,,,,,,,,,,,60ffbf91875b2c515d251452,610376a9ddd5cd2c1be0548f,2021-07-30_13h57.42.754,Simcolourproject_2stim_asymm_v5,2020.2.10,Win32,60,61025ae37ef11b136ea224fe,,,,,,,,,4064,-39,-44.5,1,0,0,response5disk,,3,-12,2.5,1,0,0,rectangle,-12,2.5,1,0,0,-12,2.5,1,0,0,0,139,139,102,1,,,,,,,,
,,,,,,,,,,,,,FF,,,,,,,,1.101,,,,,,,,,,,,,,,,,,,,,,60ffbf91875b2c515d251452,610376a9ddd5cd2c1be0548f,2021-07-30_13h57.42.754,Simcolourproject_2stim_asymm_v5,2020.2.10,Win32,60,61025ae37ef11b136ea224fe,,,,,,,,,2441,-51,-21.5,1,0,0,response5disk,,2,-20,6.5,1,0,0,rectangle,-20,6.5,1,0,0,-20,6.5,1,0,0,0,140,140,70,1,,,,,,,,
,,,,,,,,,,,,,FF,,,,,,,,0.834,,,,,,,,,,,,,,,,,,,,,,60ffbf91875b2c515d251452,610376a9ddd5cd2c1be0548f,2021-07-30_13h57.42.754,Simcolourproject_2stim_asymm_v5,2020.2.10,Win32,60,61025ae37ef11b136ea224fe,,,,,,,,,2846,-45,-19.5,1,0,0,response5disk,,2,-6,10.5,1,0,0,rectangle,-6,10.5,1,0,0,-6,10.5,1,0,0,0,141,141,43,1,,,,,,,,
,,,,,,,,,,,,,FF,,,,,,,,1.5179,,,,,,,,,,,,,,,,,,,,,,60ffbf91875b2c515d251452,610376a9ddd5cd2c1be0548f,2021-07-30_13h57.42.754,Simcolourproject_2stim_asymm_v5,2020.2.10,Win32,60,61025ae37ef11b136ea224fe,,,,,,,,,2408,43,-15.5,1,0,0,response3disk,,5,31,2.5,1,0,0,rectangle,31,2.5,1,0,0,31,2.5,1,0,0,0,142,142,33,1,,,,,,,,
,,,,,,,,,,,,,FF,,,,,,,,1.218,,,,,,,,,,,,,,,,,,,,,,60ffbf91875b2c515d251452,610376a9ddd5cd2c1be0548f,2021-07-30_13h57.42.754,Simcolourproject_2stim_asymm_v5,2020.2.10,Win32,60,61025ae37ef11b136ea224fe,,,,,,,,,2118,66,41.5,1,0,0,response1disk,,6,36,10.5,1,0,0,rectangle,36,10.5,1,0,0,36,10.5,1,0,0,0,143,143,156,1,,,,,,,,
,,,,,,,,,,,,,FF,,,,,,,,1.8517,,,,,,,,,,,,,,,,,,,,,,60ffbf91875b2c515d251452,610376a9ddd5cd2c1be0548f,2021-07-30_13h57.42.754,Simcolourproject_2stim_asymm_v5,2020.2.10,Win32,60,61025ae37ef11b136ea224fe,,,,,,,,,3556,56,-14.5,1,0,0,response3disk,,5,40,9.5,1,0,0,rectangle,40,9.5,1,0,0,40,9.5,1,0,0,0,144,144,51,1,,,,,,,,
,,,,,,,,,,,,,FF,,,,,,,,1.2843,,,,,,,,,,,,,,,,,,,,,,60ffbf91875b2c515d251452,610376a9ddd5cd2c1be0548f,2021-07-30_13h57.42.754,Simcolourproject_2stim_asymm_v5,2020.2.10,Win32,60,61025ae37ef11b136ea224fe,,,,,,,,,24,65,36.5,1,0,0,response1disk,,6,15,12.5,1,0,0,rectangle,15,12.5,1,0,0,15,12.5,1,0,0,0,145,145,4,1,,,,,,,,
,,,,,,,,,,,,,FF,,,,,,,,0.8671,,,,,,,,,,,,,,,,,,,,,,60ffbf91875b2c515d251452,610376a9ddd5cd2c1be0548f,2021-07-30_13h57.42.754,Simcolourproject_2stim_asymm_v5,2020.2.10,Win32,60,61025ae37ef11b136ea224fe,,,,,,,,,3995,-57,25.5,1,0,0,response7disk,,1,-5,10.5,1,0,0,rectangle,-5,10.5,1,0,0,-5,10.5,1,0,0,0,146,146,83,1,,,,,,,,
,,,,,,,,,,,,,FF,,,,,,,,0.784,,,,,,,,,,,,,,,,,,,,,,60ffbf91875b2c515d251452,610376a9ddd5cd2c1be0548f,2021-07-30_13h57.42.754,Simcolourproject_2stim_asymm_v5,2020.2.10,Win32,60,61025ae37ef11b136ea224fe,,,,,,,,,985,-22,-37.5,1,0,0,response5disk,,3,5,-2.5,1,0,0,rectangle,5,-2.5,1,0,0,5,-2.5,1,0,0,0,147,147,61,1,,,,,,,,
,,,,,,,,,,,,,FF,,,,,,,,1.0009,,,,,,,,,,,,,,,,,,,,,,60ffbf91875b2c515d251452,610376a9ddd5cd2c1be0548f,2021-07-30_13h57.42.754,Simcolourproject_2stim_asymm_v5,2020.2.10,Win32,60,61025ae37ef11b136ea224fe,,,,,,,,,82,24,-46.5,1,0,0,response3disk,,4,23,-7.5,1,0,0,rectangle,23,-7.5,1,0,0,23,-7.5,1,0,0,0,148,148,47,1,,,,,,,,
,,,,,,,,,,,,,FF,,,,,,,,0.8842,,,,,,,,,,,,,,,,,,,,,,60ffbf91875b2c515d251452,610376a9ddd5cd2c1be0548f,2021-07-30_13h57.42.754,Simcolourproject_2stim_asymm_v5,2020.2.10,Win32,60,61025ae37ef11b136ea224fe,,,,,,,,,2201,49,-21.5,1,0,0,response3disk,,5,28,1.5,1,0,0,rectangle,28,1.5,1,0,0,28,1.5,1,0,0,0,149,149,78,1,,,,,,,,
,,,,,,,,,,,,,FF,,,,,,,,0.8006,,,,,,,,,,,,,,,,,,,,,,60ffbf91875b2c515d251452,610376a9ddd5cd2c1be0548f,2021-07-30_13h57.42.754,Simcolourproject_2stim_asymm_v5,2020.2.10,Win32,60,61025ae37ef11b136ea224fe,,,,,,,,,46,54,25.5,1,0,0,response1disk,,6,24,13.5,1,0,0,rectangle,24,13.5,1,0,0,24,13.5,1,0,0,0,150,150,74,1,,,,,,,,
,,,,,,,,,,,,,FF,,,,,,,,0.9507,,,,,,,,,,,,,,,,,,,,,,60ffbf91875b2c515d251452,610376a9ddd5cd2c1be0548f,2021-07-30_13h57.42.754,Simcolourproject_2stim_asymm_v5,2020.2.10,Win32,60,61025ae37ef11b136ea224fe,,,,,,,,,3648,25,54.5,1,0,0,response1disk,,7,22,10.5,1,0,0,rectangle,-35,-57.5,1,0,0,-2,-4.5,1,0,0,0,151,151,66,1,,response5disk_3,TRUE,3,3,"[254,266,246,52,95,234,289,44,226,116,118,264,36,210,111,222,210,285,152,74]",2.2346,rectangle
,,,,,,,,,,,,,FF,,,,,,,,1.2011,,,,,,,,,,,,,,,,,,,,,,60ffbf91875b2c515d251452,610376a9ddd5cd2c1be0548f,2021-07-30_13h57.42.754,Simcolourproject_2stim_asymm_v5,2020.2.10,Win32,60,61025ae37ef11b136ea224fe,,,,,,,,,3272,52,-33.5,1,0,0,response3disk,,5,16,6.5,1,0,0,rectangle,16,6.5,1,0,0,16,6.5,1,0,0,0,152,152,84,1,,,,,,,,
,,,,,,,,,,,,,FF,,,,,,,,0.9842,,,,,,,,,,,,,,,,,,,,,,60ffbf91875b2c515d251452,610376a9ddd5cd2c1be0548f,2021-07-30_13h57.42.754,Simcolourproject_2stim_asymm_v5,2020.2.10,Win32,60,61025ae37ef11b136ea224fe,,,,,,,,,2292,-60,34.5,1,0,0,response7disk,,1,-17,8.5,1,0,0,rectangle,-17,8.5,1,0,0,-17,8.5,1,0,0,0,153,153,151,1,,,,,,,,
,,,,,,,,,,,,,FF,,,,,,,,1.3011,,,,,,,,,,,,,,,,,,,,,,60ffbf91875b2c515d251452,610376a9ddd5cd2c1be0548f,2021-07-30_13h57.42.754,Simcolourproject_2stim_asymm_v5,2020.2.10,Win32,60,61025ae37ef11b136ea224fe,,,,,,,,,34,49,66.5,1,0,0,response1disk,,7,32,-14.5,1,0,0,rectangle,32,-14.5,1,0,0,32,-14.5,1,0,0,0,154,154,69,1,,,,,,,,
,,,,,,,,,,,,,FF,,,,,,,,0.7172,,,,,,,,,,,,,,,,,,,,,,60ffbf91875b2c515d251452,610376a9ddd5cd2c1be0548f,2021-07-30_13h57.42.754,Simcolourproject_2stim_asymm_v5,2020.2.10,Win32,60,61025ae37ef11b136ea224fe,,,,,,,,,2354,33,63.5,1,0,0,response1disk,,7,36,9.5,1,0,0,rectangle,36,9.5,1,0,0,36,9.5,1,0,0,0,155,155,141,1,,,,,,,,
,,,,,,,,,,,,,FF,,,,,,,,0.9843,,,,,,,,,,,,,,,,,,,,,,60ffbf91875b2c515d251452,610376a9ddd5cd2c1be0548f,2021-07-30_13h57.42.754,Simcolourproject_2stim_asymm_v5,2020.2.10,Win32,60,61025ae37ef11b136ea224fe,,,,,,,,,366,-65,36.5,1,0,0,response7disk,,1,-31,14.5,1,0,0,rectangle,-31,14.5,1,0,0,-31,14.5,1,0,0,0,156,156,5,1,,,,,,,,
,,,,,,,,,,,,,FF,,,,,,,,0.784,,,,,,,,,,,,,,,,,,,,,,60ffbf91875b2c515d251452,610376a9ddd5cd2c1be0548f,2021-07-30_13h57.42.754,Simcolourproject_2stim_asymm_v5,2020.2.10,Win32,60,61025ae37ef11b136ea224fe,,,,,,,,,1219,42,23.5,1,0,0,response1disk,,6,22,-2.5,1,0,0,rectangle,22,-2.5,1,0,0,22,-2.5,1,0,0,0,157,157,72,1,,,,,,,,
,,,,,,,,,,,,,FF,,,,,,,,0.9509,,,,,,,,,,,,,,,,,,,,,,60ffbf91875b2c515d251452,610376a9ddd5cd2c1be0548f,2021-07-30_13h57.42.754,Simcolourproject_2stim_asymm_v5,2020.2.10,Win32,60,61025ae37ef11b136ea224fe,,,,,,,,,171,-40,-46.5,1,0,0,response5disk,,3,-23,-5.5,1,0,0,rectangle,-23,-5.5,1,0,0,-23,-5.5,1,0,0,0,158,158,59,1,,,,,,,,
,,,,,,,,,,,,,FF,,,,,,,,1.6179,,,,,,,,,,,,,,,,,,,,,,60ffbf91875b2c515d251452,610376a9ddd5cd2c1be0548f,2021-07-30_13h57.42.754,Simcolourproject_2stim_asymm_v5,2020.2.10,Win32,60,61025ae37ef11b136ea224fe,,,,,,,,,4244,21,-46.5,1,0,0,response3disk,,4,22,-13.5,1,0,0,rectangle,22,-13.5,1,0,0,22,-13.5,1,0,0,0,159,159,127,1,,,,,,,,
,,,,,,,,,,,,,FF,,,,,,,,0.884,,,,,,,,,,,,,,,,,,,,,,60ffbf91875b2c515d251452,610376a9ddd5cd2c1be0548f,2021-07-30_13h57.42.754,Simcolourproject_2stim_asymm_v5,2020.2.10,Win32,60,61025ae37ef11b136ea224fe,,,,,,,,,750,47,-30.5,1,0,0,response3disk,,5,34,-6.5,1,0,0,rectangle,34,-6.5,1,0,0,34,-6.5,1,0,0,1,0,160,145,1,,,,,,,,
,,,,,,,,,,,,,FF,,,,,,,,0.534,,,,,,,,,,,,,,,,,,,,,,60ffbf91875b2c515d251452,610376a9ddd5cd2c1be0548f,2021-07-30_13h57.42.754,Simcolourproject_2stim_asymm_v5,2020.2.10,Win32,60,61025ae37ef11b136ea224fe,,,,,,,,,3806,27,-37.5,1,0,0,response3disk,,4,29,1.5,1,0,0,rectangle,29,1.5,1,0,0,29,1.5,1,0,0,1,1,161,0,1,,,,,,,,
,,,,,,,,,,,,,FF,,,,,,,,1.4847,,,,,,,,,,,,,,,,,,,,,,60ffbf91875b2c515d251452,610376a9ddd5cd2c1be0548f,2021-07-30_13h57.42.754,Simcolourproject_2stim_asymm_v5,2020.2.10,Win32,60,61025ae37ef11b136ea224fe,,,,,,,,,1683,-51,-32.5,1,0,0,response5disk,,2,-16,-9.5,1,0,0,rectangle,-16,-9.5,1,0,0,-16,-9.5,1,0,0,1,2,162,143,1,,,,,,,,
,,,,,,,,,,,,,FF,,,,,,,,1.0175,,,,,,,,,,,,,,,,,,,,,,60ffbf91875b2c515d251452,610376a9ddd5cd2c1be0548f,2021-07-30_13h57.42.754,Simcolourproject_2stim_asymm_v5,2020.2.10,Win32,60,61025ae37ef11b136ea224fe,,,,,,,,,3660,-41,-22.5,1,0,0,response5disk,,2,-5,-6.5,1,0,0,rectangle,-5,-6.5,1,0,0,-5,-6.5,1,0,0,1,3,163,159,1,,,,,,,,
,,,,,,,,,,,,,FF,,,,,,,,0.9842,,,,,,,,,,,,,,,,,,,,,,60ffbf91875b2c515d251452,610376a9ddd5cd2c1be0548f,2021-07-30_13h57.42.754,Simcolourproject_2stim_asymm_v5,2020.2.10,Win32,60,61025ae37ef11b136ea224fe,,,,,,,,,1613,-24,-38.5,1,0,0,response5disk,,3,0,0.5,1,0,0,rectangle,0,0.5,1,0,0,0,0.5,1,0,0,1,4,164,100,1,,,,,,,,
,,,,,,,,,,,,,FF,,,,,,,,1.1514,,,,,,,,,,,,,,,,,,,,,,60ffbf91875b2c515d251452,610376a9ddd5cd2c1be0548f,2021-07-30_13h57.42.754,Simcolourproject_2stim_asymm_v5,2020.2.10,Win32,60,61025ae37ef11b136ea224fe,,,,,,,,,605,25,-48.5,1,0,0,response3disk,,4,22,-1.5,1,0,0,rectangle,22,-1.5,1,0,0,22,-1.5,1,0,0,1,5,165,149,1,,,,,,,,
,,,,,,,,,,,,,FF,,,,,,,,2.0684,,,,,,,,,,,,,,,,,,,,,,60ffbf91875b2c515d251452,610376a9ddd5cd2c1be0548f,2021-07-30_13h57.42.754,Simcolourproject_2stim_asymm_v5,2020.2.10,Win32,60,61025ae37ef11b136ea224fe,,,,,,,,,3102,58,-26.5,1,0,0,response3disk,,5,39,8.5,1,0,0,rectangle,39,8.5,1,0,0,39,8.5,1,0,0,1,6,166,53,1,,,,,,,,
,,,,,,,,,,,,,FF,,,,,,,,1.0674,,,,,,,,,,,,,,,,,,,,,,60ffbf91875b2c515d251452,610376a9ddd5cd2c1be0548f,2021-07-30_13h57.42.754,Simcolourproject_2stim_asymm_v5,2020.2.10,Win32,60,61025ae37ef11b136ea224fe,,,,,,,,,1610,-46,-26.5,1,0,0,response5disk,,2,-12,-3.5,1,0,0,rectangle,-12,-3.5,1,0,0,-12,-3.5,1,0,0,1,7,167,54,1,,,,,,,,
,,,,,,,,,,,,,FF,,,,,,,,1.4847,,,,,,,,,,,,,,,,,,,,,,60ffbf91875b2c515d251452,610376a9ddd5cd2c1be0548f,2021-07-30_13h57.42.754,Simcolourproject_2stim_asymm_v5,2020.2.10,Win32,60,61025ae37ef11b136ea224fe,,,,,,,,,585,-51,-27.5,1,0,0,response5disk,,2,-6,-0.5,1,0,0,rectangle,-6,-0.5,1,0,0,-6,-0.5,1,0,0,1,8,168,112,1,,,,,,,,
,,,,,,,,,,,,,FF,,,,,,,,1.0843,,,,,,,,,,,,,,,,,,,,,,60ffbf91875b2c515d251452,610376a9ddd5cd2c1be0548f,2021-07-30_13h57.42.754,Simcolourproject_2stim_asymm_v5,2020.2.10,Win32,60,61025ae37ef11b136ea224fe,,,,,,,,,1066,16,-42.5,1,0,0,response3disk,,4,7,-1.5,1,0,0,rectangle,7,-1.5,1,0,0,7,-1.5,1,0,0,1,9,169,134,1,,,,,,,,
,,,,,,,,,,,,,FF,,,,,,,,0.8507,,,,,,,,,,,,,,,,,,,,,,60ffbf91875b2c515d251452,610376a9ddd5cd2c1be0548f,2021-07-30_13h57.42.754,Simcolourproject_2stim_asymm_v5,2020.2.10,Win32,60,61025ae37ef11b136ea224fe,,,,,,,,,4169,-54,-22.5,1,0,0,response5disk,,2,-9,8.5,1,0,0,rectangle,-9,8.5,1,0,0,-9,8.5,1,0,0,1,10,170,71,1,,,,,,,,
,,,,,,,,,,,,,FF,,,,,,,,1.7348,,,,,,,,,,,,,,,,,,,,,,60ffbf91875b2c515d251452,610376a9ddd5cd2c1be0548f,2021-07-30_13h57.42.754,Simcolourproject_2stim_asymm_v5,2020.2.10,Win32,60,61025ae37ef11b136ea224fe,,,,,,,,,1928,-50,-19.5,1,0,0,response5disk,,2,-33,-1.5,1,0,0,rectangle,-33,-1.5,1,0,0,-33,-1.5,1,0,0,1,11,171,83,1,,,,,,,,
,,,,,,,,,,,,,FF,,,,,,,,0.8841,,,,,,,,,,,,,,,,,,,,,,60ffbf91875b2c515d251452,610376a9ddd5cd2c1be0548f,2021-07-30_13h57.42.754,Simcolourproject_2stim_asymm_v5,2020.2.10,Win32,60,61025ae37ef11b136ea224fe,,,,,,,,,3559,-26,-52.5,1,0,0,response5disk,,3,-10,5.5,1,0,0,rectangle,-10,5.5,1,0,0,-10,5.5,1,0,0,1,12,172,24,1,,,,,,,,
,,,,,,,,,,,,,FF,,,,,,,,0.8839,,,,,,,,,,,,,,,,,,,,,,60ffbf91875b2c515d251452,610376a9ddd5cd2c1be0548f,2021-07-30_13h57.42.754,Simcolourproject_2stim_asymm_v5,2020.2.10,Win32,60,61025ae37ef11b136ea224fe,,,,,,,,,3046,-48,-23.5,1,0,0,response5disk,,2,-2,4.5,1,0,0,rectangle,-2,4.5,1,0,0,-2,4.5,1,0,0,1,13,173,14,1,,,,,,,,
,,,,,,,,,,,,,FF,,,,,,,,1.1007,,,,,,,,,,,,,,,,,,,,,,60ffbf91875b2c515d251452,610376a9ddd5cd2c1be0548f,2021-07-30_13h57.42.754,Simcolourproject_2stim_asymm_v5,2020.2.10,Win32,60,61025ae37ef11b136ea224fe,,,,,,,,,1773,20,-45.5,1,0,0,response3disk,,4,17,-5.5,1,0,0,rectangle,17,-5.5,1,0,0,17,-5.5,1,0,0,1,14,174,77,1,,,,,,,,
,,,,,,,,,,,,,FF,,,,,,,,0.8839,,,,,,,,,,,,,,,,,,,,,,60ffbf91875b2c515d251452,610376a9ddd5cd2c1be0548f,2021-07-30_13h57.42.754,Simcolourproject_2stim_asymm_v5,2020.2.10,Win32,60,61025ae37ef11b136ea224fe,,,,,,,,,1556,-28,-44.5,1,0,0,response5disk,,3,-7,-2.5,1,0,0,rectangle,-7,-2.5,1,0,0,-7,-2.5,1,0,0,1,15,175,147,1,,,,,,,,
,,,,,,,,,,,,,FF,,,,,,,,1.2678,,,,,,,,,,,,,,,,,,,,,,60ffbf91875b2c515d251452,610376a9ddd5cd2c1be0548f,2021-07-30_13h57.42.754,Simcolourproject_2stim_asymm_v5,2020.2.10,Win32,60,61025ae37ef11b136ea224fe,,,,,,,,,1687,63,31.5,1,0,0,response1disk,,6,12,4.5,1,0,0,rectangle,12,4.5,1,0,0,12,4.5,1,0,0,1,16,176,58,1,,,,,,,,
,,,,,,,,,,,,,FF,,,,,,,,1.1008,,,,,,,,,,,,,,,,,,,,,,60ffbf91875b2c515d251452,610376a9ddd5cd2c1be0548f,2021-07-30_13h57.42.754,Simcolourproject_2stim_asymm_v5,2020.2.10,Win32,60,61025ae37ef11b136ea224fe,,,,,,,,,367,-47,-14.5,1,0,0,response5disk,,2,-27,14.5,1,0,0,rectangle,-27,14.5,1,0,0,-27,14.5,1,0,0,1,17,177,59,1,,,,,,,,
,,,,,,,,,,,,,FF,,,,,,,,0.9008,,,,,,,,,,,,,,,,,,,,,,60ffbf91875b2c515d251452,610376a9ddd5cd2c1be0548f,2021-07-30_13h57.42.754,Simcolourproject_2stim_asymm_v5,2020.2.10,Win32,60,61025ae37ef11b136ea224fe,,,,,,,,,3267,61,22.5,1,0,0,response1disk,,6,41,-1.5,1,0,0,rectangle,41,-1.5,1,0,0,41,-1.5,1,0,0,1,18,178,97,1,,,,,,,,
,,,,,,,,,,,,,FF,,,,,,,,0.817,,,,,,,,,,,,,,,,,,,,,,60ffbf91875b2c515d251452,610376a9ddd5cd2c1be0548f,2021-07-30_13h57.42.754,Simcolourproject_2stim_asymm_v5,2020.2.10,Win32,60,61025ae37ef11b136ea224fe,,,,,,,,,1231,50,-16.5,1,0,0,response3disk,,5,1,8.5,1,0,0,rectangle,1,8.5,1,0,0,1,8.5,1,0,0,1,19,179,8,1,,,,,,,,
,,,,,,,,,,,,,FF,,,,,,,,2.285,,,,,,,,,,,,,,,,,,,,,,60ffbf91875b2c515d251452,610376a9ddd5cd2c1be0548f,2021-07-30_13h57.42.754,Simcolourproject_2stim_asymm_v5,2020.2.10,Win32,60,61025ae37ef11b136ea224fe,,,,,,,,,4124,57,42.5,1,0,0,response1disk,,6,14,12.5,1,0,0,rectangle,14,12.5,1,0,0,14,12.5,1,0,0,1,20,180,86,1,,,,,,,,
,,,,,,,,,,,,,FF,,,,,,,,1.201,,,,,,,,,,,,,,,,,,,,,,60ffbf91875b2c515d251452,610376a9ddd5cd2c1be0548f,2021-07-30_13h57.42.754,Simcolourproject_2stim_asymm_v5,2020.2.10,Win32,60,61025ae37ef11b136ea224fe,,,,,,,,,1950,32,-33.5,1,0,0,response3disk,,4,33,0.5,1,0,0,rectangle,33,0.5,1,0,0,33,0.5,1,0,0,1,21,181,5,1,,,,,,,,
,,,,,,,,,,,,,FF,,,,,,,,1.1011,,,,,,,,,,,,,,,,,,,,,,60ffbf91875b2c515d251452,610376a9ddd5cd2c1be0548f,2021-07-30_13h57.42.754,Simcolourproject_2stim_asymm_v5,2020.2.10,Win32,60,61025ae37ef11b136ea224fe,,,,,,,,,2186,76,29.5,1,0,0,response1disk,,6,38,8.5,1,0,0,rectangle,38,8.5,1,0,0,38,8.5,1,0,0,1,22,182,90,1,,,,,,,,
,,,,,,,,,,,,,FF,,,,,,,,0.9841,,,,,,,,,,,,,,,,,,,,,,60ffbf91875b2c515d251452,610376a9ddd5cd2c1be0548f,2021-07-30_13h57.42.754,Simcolourproject_2stim_asymm_v5,2020.2.10,Win32,60,61025ae37ef11b136ea224fe,,,,,,,,,2624,53,35.5,1,0,0,response1disk,,6,26,10.5,1,0,0,rectangle,26,10.5,1,0,0,26,10.5,1,0,0,1,23,183,131,1,,,,,,,,
,,,,,,,,,,,,,FF,,,,,,,,0.7173,,,,,,,,,,,,,,,,,,,,,,60ffbf91875b2c515d251452,610376a9ddd5cd2c1be0548f,2021-07-30_13h57.42.754,Simcolourproject_2stim_asymm_v5,2020.2.10,Win32,60,61025ae37ef11b136ea224fe,,,,,,,,,3455,34,59.5,1,0,0,response1disk,,7,30,12.5,1,0,0,rectangle,30,12.5,1,0,0,30,12.5,1,0,0,1,24,184,122,1,,,,,,,,
,,,,,,,,,,,,,FF,,,,,,,,1.5849,,,,,,,,,,,,,,,,,,,,,,60ffbf91875b2c515d251452,610376a9ddd5cd2c1be0548f,2021-07-30_13h57.42.754,Simcolourproject_2stim_asymm_v5,2020.2.10,Win32,60,61025ae37ef11b136ea224fe,,,,,,,,,4363,-56,-21.5,1,0,0,response5disk,,2,-23,1.5,1,0,0,rectangle,-23,1.5,1,0,0,-23,1.5,1,0,0,1,25,185,29,1,,,,,,,,
,,,,,,,,,,,,,FF,,,,,,,,1.0342,,,,,,,,,,,,,,,,,,,,,,60ffbf91875b2c515d251452,610376a9ddd5cd2c1be0548f,2021-07-30_13h57.42.754,Simcolourproject_2stim_asymm_v5,2020.2.10,Win32,60,61025ae37ef11b136ea224fe,,,,,,,,,2388,19,-48.5,1,0,0,response3disk,,4,21,-6.5,1,0,0,rectangle,21,-6.5,1,0,0,21,-6.5,1,0,0,1,26,186,3,1,,,,,,,,
,,,,,,,,,,,,,FF,,,,,,,,0.9342,,,,,,,,,,,,,,,,,,,,,,60ffbf91875b2c515d251452,610376a9ddd5cd2c1be0548f,2021-07-30_13h57.42.754,Simcolourproject_2stim_asymm_v5,2020.2.10,Win32,60,61025ae37ef11b136ea224fe,,,,,,,,,4322,61,37.5,1,0,0,response1disk,,6,17,10.5,1,0,0,rectangle,17,10.5,1,0,0,17,10.5,1,0,0,1,27,187,4,1,,,,,,,,
,,,,,,,,,,,,,FF,,,,,,,,1.5347,,,,,,,,,,,,,,,,,,,,,,60ffbf91875b2c515d251452,610376a9ddd5cd2c1be0548f,2021-07-30_13h57.42.754,Simcolourproject_2stim_asymm_v5,2020.2.10,Win32,60,61025ae37ef11b136ea224fe,,,,,,,,,832,32,61.5,1,0,0,response1disk,,7,11,7.5,1,0,0,rectangle,11,7.5,1,0,0,11,7.5,1,0,0,1,28,188,106,1,,,,,,,,
,,,,,,,,,,,,,FF,,,,,,,,0.8342,,,,,,,,,,,,,,,,,,,,,,60ffbf91875b2c515d251452,610376a9ddd5cd2c1be0548f,2021-07-30_13h57.42.754,Simcolourproject_2stim_asymm_v5,2020.2.10,Win32,60,61025ae37ef11b136ea224fe,,,,,,,,,4060,52,-17.5,1,0,0,response3disk,,5,45,10.5,1,0,0,rectangle,45,10.5,1,0,0,45,10.5,1,0,0,1,29,189,136,1,,,,,,,,
,,,,,,,,,,,,,FF,,,,,,,,1.9849,,,,,,,,,,,,,,,,,,,,,,60ffbf91875b2c515d251452,610376a9ddd5cd2c1be0548f,2021-07-30_13h57.42.754,Simcolourproject_2stim_asymm_v5,2020.2.10,Win32,60,61025ae37ef11b136ea224fe,,,,,,,,,2244,23,-53.5,1,0,0,response3disk,,4,21,-4.5,1,0,0,rectangle,21,-4.5,1,0,0,21,-4.5,1,0,0,1,30,190,69,1,,,,,,,,
,,,,,,,,,,,,,FF,,,,,,,,0.9338,,,,,,,,,,,,,,,,,,,,,,60ffbf91875b2c515d251452,610376a9ddd5cd2c1be0548f,2021-07-30_13h57.42.754,Simcolourproject_2stim_asymm_v5,2020.2.10,Win32,60,61025ae37ef11b136ea224fe,,,,,,,,,2395,42,-22.5,1,0,0,response3disk,,5,36,2.5,1,0,0,rectangle,36,2.5,1,0,0,36,2.5,1,0,0,1,31,191,13,1,,,,,,,,
,,,,,,,,,,,,,FF,,,,,,,,1.1176,,,,,,,,,,,,,,,,,,,,,,60ffbf91875b2c515d251452,610376a9ddd5cd2c1be0548f,2021-07-30_13h57.42.754,Simcolourproject_2stim_asymm_v5,2020.2.10,Win32,60,61025ae37ef11b136ea224fe,,,,,,,,,1301,-54,-26.5,1,0,0,response5disk,,2,-25,5.5,1,0,0,rectangle,-25,5.5,1,0,0,-25,5.5,1,0,0,1,32,192,140,1,,,,,,,,
,,,,,,,,,,,,,FF,,,,,,,,0.8008,,,,,,,,,,,,,,,,,,,,,,60ffbf91875b2c515d251452,610376a9ddd5cd2c1be0548f,2021-07-30_13h57.42.754,Simcolourproject_2stim_asymm_v5,2020.2.10,Win32,60,61025ae37ef11b136ea224fe,,,,,,,,,1321,-23,-52.5,1,0,0,response5disk,,3,1,0.5,1,0,0,rectangle,1,0.5,1,0,0,1,0.5,1,0,0,1,33,193,34,1,,,,,,,,
,,,,,,,,,,,,,FF,,,,,,,,0.9341,,,,,,,,,,,,,,,,,,,,,,60ffbf91875b2c515d251452,610376a9ddd5cd2c1be0548f,2021-07-30_13h57.42.754,Simcolourproject_2stim_asymm_v5,2020.2.10,Win32,60,61025ae37ef11b136ea224fe,,,,,,,,,3055,-62,-35.5,1,0,0,response5disk,,2,-6,2.5,1,0,0,rectangle,-6,2.5,1,0,0,-6,2.5,1,0,0,1,34,194,42,1,,,,,,,,
,,,,,,,,,,,,,FF,,,,,,,,1.0341,,,,,,,,,,,,,,,,,,,,,,60ffbf91875b2c515d251452,610376a9ddd5cd2c1be0548f,2021-07-30_13h57.42.754,Simcolourproject_2stim_asymm_v5,2020.2.10,Win32,60,61025ae37ef11b136ea224fe,,,,,,,,,877,27,-54.5,1,0,0,response3disk,,4,20,3.5,1,0,0,rectangle,20,3.5,1,0,0,20,3.5,1,0,0,1,35,195,102,1,,,,,,,,
,,,,,,,,,,,,,FF,,,,,,,,1.7349,,,,,,,,,,,,,,,,,,,,,,60ffbf91875b2c515d251452,610376a9ddd5cd2c1be0548f,2021-07-30_13h57.42.754,Simcolourproject_2stim_asymm_v5,2020.2.10,Win32,60,61025ae37ef11b136ea224fe,,,,,,,,,3979,61,-24.5,1,0,0,response3disk,,5,19,25.5,1,0,0,rectangle,19,25.5,1,0,0,19,25.5,1,0,0,1,36,196,50,1,,,,,,,,
,,,,,,,,,,,,,FF,,,,,,,,0.8339,,,,,,,,,,,,,,,,,,,,,,60ffbf91875b2c515d251452,610376a9ddd5cd2c1be0548f,2021-07-30_13h57.42.754,Simcolourproject_2stim_asymm_v5,2020.2.10,Win32,60,61025ae37ef11b136ea224fe,,,,,,,,,3911,-52,-22.5,1,0,0,response5disk,,2,-25,6.5,1,0,0,rectangle,-25,6.5,1,0,0,-25,6.5,1,0,0,1,37,197,51,1,,,,,,,,
,,,,,,,,,,,,,FF,,,,,,,,0.8508,,,,,,,,,,,,,,,,,,,,,,60ffbf91875b2c515d251452,610376a9ddd5cd2c1be0548f,2021-07-30_13h57.42.754,Simcolourproject_2stim_asymm_v5,2020.2.10,Win32,60,61025ae37ef11b136ea224fe,,,,,,,,,2304,-29,-43.5,1,0,0,response5disk,,3,-10,11.5,1,0,0,rectangle,-10,11.5,1,0,0,-10,11.5,1,0,0,1,38,198,84,1,,,,,,,,
,,,,,,,,,,,,,FF,,,,,,,,0.8341,,,,,,,,,,,,,,,,,,,,,,60ffbf91875b2c515d251452,610376a9ddd5cd2c1be0548f,2021-07-30_13h57.42.754,Simcolourproject_2stim_asymm_v5,2020.2.10,Win32,60,61025ae37ef11b136ea224fe,,,,,,,,,1264,19,-48.5,1,0,0,response3disk,,4,10,-4.5,1,0,0,rectangle,10,-4.5,1,0,0,10,-4.5,1,0,0,1,39,199,76,1,,,,,,,,
,,,,,,,,,,,,,FF,,,,,,,,0.9008,,,,,,,,,,,,,,,,,,,,,,60ffbf91875b2c515d251452,610376a9ddd5cd2c1be0548f,2021-07-30_13h57.42.754,Simcolourproject_2stim_asymm_v5,2020.2.10,Win32,60,61025ae37ef11b136ea224fe,,,,,,,,,912,15,-44.5,1,0,0,response3disk,,4,7,-2.5,1,0,0,rectangle,7,-2.5,1,0,0,7,-2.5,1,0,0,1,40,200,32,1,,,,,,,,
,,,,,,,,,,,,,FF,,,,,,,,0.6342,,,,,,,,,,,,,,,,,,,,,,60ffbf91875b2c515d251452,610376a9ddd5cd2c1be0548f,2021-07-30_13h57.42.754,Simcolourproject_2stim_asymm_v5,2020.2.10,Win32,60,61025ae37ef11b136ea224fe,,,,,,,,,2404,54,-15.5,1,0,0,response3disk,,5,2,16.5,1,0,0,rectangle,2,16.5,1,0,0,2,16.5,1,0,0,1,41,201,138,1,,,,,,,,
,,,,,,,,,,,,,FF,,,,,,,,0.9343,,,,,,,,,,,,,,,,,,,,,,60ffbf91875b2c515d251452,610376a9ddd5cd2c1be0548f,2021-07-30_13h57.42.754,Simcolourproject_2stim_asymm_v5,2020.2.10,Win32,60,61025ae37ef11b136ea224fe,,,,,,,,,2997,22,-50.5,1,0,0,response3disk,,4,-10,1.5,1,0,0,rectangle,-10,1.5,1,0,0,-10,1.5,1,0,0,1,42,202,38,1,,,,,,,,
,,,,,,,,,,,,,FF,,,,,,,,1.0842,,,,,,,,,,,,,,,,,,,,,,60ffbf91875b2c515d251452,610376a9ddd5cd2c1be0548f,2021-07-30_13h57.42.754,Simcolourproject_2stim_asymm_v5,2020.2.10,Win32,60,61025ae37ef11b136ea224fe,,,,,,,,,788,47,27.5,1,0,0,response1disk,,6,3,15.5,1,0,0,rectangle,3,15.5,1,0,0,3,15.5,1,0,0,1,43,203,72,1,,,,,,,,
,,,,,,,,,,,,,FF,,,,,,,,0.7168,,,,,,,,,,,,,,,,,,,,,,60ffbf91875b2c515d251452,610376a9ddd5cd2c1be0548f,2021-07-30_13h57.42.754,Simcolourproject_2stim_asymm_v5,2020.2.10,Win32,60,61025ae37ef11b136ea224fe,,,,,,,,,3351,53,-24.5,1,0,0,response3disk,,5,1,3.5,1,0,0,rectangle,1,3.5,1,0,0,1,3.5,1,0,0,1,44,204,119,1,,,,,,,,
,,,,,,,,,,,,,FF,,,,,,,,1.5847,,,,,,,,,,,,,,,,,,,,,,60ffbf91875b2c515d251452,610376a9ddd5cd2c1be0548f,2021-07-30_13h57.42.754,Simcolourproject_2stim_asymm_v5,2020.2.10,Win32,60,61025ae37ef11b136ea224fe,,,,,,,,,4179,47,-13.5,1,0,0,response3disk,,5,37,8.5,1,0,0,rectangle,37,8.5,1,0,0,37,8.5,1,0,0,1,45,205,129,1,,,,,,,,
,,,,,,,,,,,,,FF,,,,,,,,1.2513,,,,,,,,,,,,,,,,,,,,,,60ffbf91875b2c515d251452,610376a9ddd5cd2c1be0548f,2021-07-30_13h57.42.754,Simcolourproject_2stim_asymm_v5,2020.2.10,Win32,60,61025ae37ef11b136ea224fe,,,,,,,,,1679,33,-59.5,1,0,0,response3disk,,4,4,-1.5,1,0,0,rectangle,4,-1.5,1,0,0,4,-1.5,1,0,0,1,46,206,124,1,,,,,,,,
,,,,,,,,,,,,,FF,,,,,,,,1.0676,,,,,,,,,,,,,,,,,,,,,,60ffbf91875b2c515d251452,610376a9ddd5cd2c1be0548f,2021-07-30_13h57.42.754,Simcolourproject_2stim_asymm_v5,2020.2.10,Win32,60,61025ae37ef11b136ea224fe,,,,,,,,,2079,79,-18.5,1,0,0,response3disk,,5,22,-0.5,1,0,0,rectangle,22,-0.5,1,0,0,22,-0.5,1,0,0,1,47,207,155,1,,,,,,,,
,,,,,,,,,,,,,FF,,,,,,,,3.0356,,,,,,,,,,,,,,,,,,,,,,60ffbf91875b2c515d251452,610376a9ddd5cd2c1be0548f,2021-07-30_13h57.42.754,Simcolourproject_2stim_asymm_v5,2020.2.10,Win32,60,61025ae37ef11b136ea224fe,,,,,,,,,1469,-23,-43.5,1,0,0,response5disk,,3,-3,-9.5,1,0,0,rectangle,-3,-9.5,1,0,0,-3,-9.5,1,0,0,1,48,208,78,1,,,,,,,,
,,,,,,,,,,,,,FF,,,,,,,,0.984,,,,,,,,,,,,,,,,,,,,,,60ffbf91875b2c515d251452,610376a9ddd5cd2c1be0548f,2021-07-30_13h57.42.754,Simcolourproject_2stim_asymm_v5,2020.2.10,Win32,60,61025ae37ef11b136ea224fe,,,,,,,,,2460,38,64.5,1,0,0,response1disk,,7,42,8.5,1,0,0,rectangle,29,-67.5,1,0,0,17,-6.5,1,0,0,1,49,209,92,1,,response3disk_3,TRUE,4,4,"[254,266,246,52,95,234,289,44,226,116,118,264,36,210,111,222,210,285,152,74]",2.1191,rectangle
,,,,,,,,,,,,,FF,,,,,,,,0.7842,,,,,,,,,,,,,,,,,,,,,,60ffbf91875b2c515d251452,610376a9ddd5cd2c1be0548f,2021-07-30_13h57.42.754,Simcolourproject_2stim_asymm_v5,2020.2.10,Win32,60,61025ae37ef11b136ea224fe,,,,,,,,,3041,51,31.5,1,0,0,response1disk,,6,28,10.5,1,0,0,rectangle,28,10.5,1,0,0,28,10.5,1,0,0,1,50,210,33,1,,,,,,,,
,,,,,,,,,,,,,FF,,,,,,,,1.2677,,,,,,,,,,,,,,,,,,,,,,60ffbf91875b2c515d251452,610376a9ddd5cd2c1be0548f,2021-07-30_13h57.42.754,Simcolourproject_2stim_asymm_v5,2020.2.10,Win32,60,61025ae37ef11b136ea224fe,,,,,,,,,1581,43,-36.5,1,0,0,response3disk,,5,28,-7.5,1,0,0,rectangle,28,-7.5,1,0,0,28,-7.5,1,0,0,1,51,211,99,1,,,,,,,,
,,,,,,,,,,,,,FF,,,,,,,,1.2512,,,,,,,,,,,,,,,,,,,,,,60ffbf91875b2c515d251452,610376a9ddd5cd2c1be0548f,2021-07-30_13h57.42.754,Simcolourproject_2stim_asymm_v5,2020.2.10,Win32,60,61025ae37ef11b136ea224fe,,,,,,,,,1424,26,-50.5,1,0,0,response3disk,,4,3,-8.5,1,0,0,rectangle,3,-8.5,1,0,0,3,-8.5,1,0,0,1,52,212,28,1,,,,,,,,
,,,,,,,,,,,,,FF,,,,,,,,0.7677,,,,,,,,,,,,,,,,,,,,,,60ffbf91875b2c515d251452,610376a9ddd5cd2c1be0548f,2021-07-30_13h57.42.754,Simcolourproject_2stim_asymm_v5,2020.2.10,Win32,60,61025ae37ef11b136ea224fe,,,,,,,,,2332,-24,-48.5,1,0,0,response5disk,,3,-5,-2.5,1,0,0,rectangle,-5,-2.5,1,0,0,-5,-2.5,1,0,0,1,53,213,116,1,,,,,,,,
,,,,,,,,,,,,,FF,,,,,,,,1.0007,,,,,,,,,,,,,,,,,,,,,,60ffbf91875b2c515d251452,610376a9ddd5cd2c1be0548f,2021-07-30_13h57.42.754,Simcolourproject_2stim_asymm_v5,2020.2.10,Win32,60,61025ae37ef11b136ea224fe,,,,,,,,,4353,-54,-26.5,1,0,0,response5disk,,2,-30,-8.5,1,0,0,rectangle,-30,-8.5,1,0,0,-30,-8.5,1,0,0,1,54,214,1,1,,,,,,,,
,,,,,,,,,,,,,FF,,,,,,,,0.7674,,,,,,,,,,,,,,,,,,,,,,60ffbf91875b2c515d251452,610376a9ddd5cd2c1be0548f,2021-07-30_13h57.42.754,Simcolourproject_2stim_asymm_v5,2020.2.10,Win32,60,61025ae37ef11b136ea224fe,,,,,,,,,1643,58,42.5,1,0,0,response1disk,,6,-1,5.5,1,0,0,rectangle,-1,5.5,1,0,0,-1,5.5,1,0,0,1,55,215,126,1,,,,,,,,
,,,,,,,,,,,,,FF,,,,,,,,0.8674,,,,,,,,,,,,,,,,,,,,,,60ffbf91875b2c515d251452,610376a9ddd5cd2c1be0548f,2021-07-30_13h57.42.754,Simcolourproject_2stim_asymm_v5,2020.2.10,Win32,60,61025ae37ef11b136ea224fe,,,,,,,,,825,41,-20.5,1,0,0,response3disk,,5,14,-0.5,1,0,0,rectangle,14,-0.5,1,0,0,14,-0.5,1,0,0,1,56,216,98,1,,,,,,,,
,,,,,,,,,,,,,FF,,,,,,,,1.2845,,,,,,,,,,,,,,,,,,,,,,60ffbf91875b2c515d251452,610376a9ddd5cd2c1be0548f,2021-07-30_13h57.42.754,Simcolourproject_2stim_asymm_v5,2020.2.10,Win32,60,61025ae37ef11b136ea224fe,,,,,,,,,2678,17,-45.5,1,0,0,response3disk,,4,9,-11.5,1,0,0,rectangle,9,-11.5,1,0,0,9,-11.5,1,0,0,1,57,217,49,1,,,,,,,,
,,,,,,,,,,,,,FF,,,,,,,,0.9172,,,,,,,,,,,,,,,,,,,,,,60ffbf91875b2c515d251452,610376a9ddd5cd2c1be0548f,2021-07-30_13h57.42.754,Simcolourproject_2stim_asymm_v5,2020.2.10,Win32,60,61025ae37ef11b136ea224fe,,,,,,,,,2692,13,-49.5,1,0,0,response3disk,,4,7,-4.5,1,0,0,rectangle,7,-4.5,1,0,0,7,-4.5,1,0,0,1,58,218,123,1,,,,,,,,
,,,,,,,,,,,,,FF,,,,,,,,1.7677,,,,,,,,,,,,,,,,,,,,,,60ffbf91875b2c515d251452,610376a9ddd5cd2c1be0548f,2021-07-30_13h57.42.754,Simcolourproject_2stim_asymm_v5,2020.2.10,Win32,60,61025ae37ef11b136ea224fe,,,,,,,,,3188,-48,-55.5,1,0,0,response5disk,,3,-32,-17.5,1,0,0,rectangle,-32,-17.5,1,0,0,-32,-17.5,1,0,0,1,59,219,130,1,,,,,,,,
,,,,,,,,,,,,,FF,,,,,,,,0.7842,,,,,,,,,,,,,,,,,,,,,,60ffbf91875b2c515d251452,610376a9ddd5cd2c1be0548f,2021-07-30_13h57.42.754,Simcolourproject_2stim_asymm_v5,2020.2.10,Win32,60,61025ae37ef11b136ea224fe,,,,,,,,,515,51,-27.5,1,0,0,response3disk,,5,30,-2.5,1,0,0,rectangle,30,-2.5,1,0,0,30,-2.5,1,0,0,1,60,220,105,1,,,,,,,,
,,,,,,,,,,,,,FF,,,,,,,,1.3513,,,,,,,,,,,,,,,,,,,,,,60ffbf91875b2c515d251452,610376a9ddd5cd2c1be0548f,2021-07-30_13h57.42.754,Simcolourproject_2stim_asymm_v5,2020.2.10,Win32,60,61025ae37ef11b136ea224fe,,,,,,,,,823,81,30.5,1,0,0,response1disk,,6,32,0.5,1,0,0,rectangle,83,41.5,1,0,0,35,3.5,1,0,0,1,61,221,52,1,,response1disk_3,TRUE,6,6,"[254,266,246,52,95,234,289,44,226,116,118,264,36,210,111,222,210,285,152,74]",2.0014,rectangle
,,,,,,,,,,,,,FF,,,,,,,,1.8348,,,,,,,,,,,,,,,,,,,,,,60ffbf91875b2c515d251452,610376a9ddd5cd2c1be0548f,2021-07-30_13h57.42.754,Simcolourproject_2stim_asymm_v5,2020.2.10,Win32,60,61025ae37ef11b136ea224fe,,,,,,,,,2070,78,-26.5,1,0,0,response3disk,,5,38,-6.5,1,0,0,rectangle,38,-6.5,1,0,0,38,-6.5,1,0,0,1,62,222,121,1,,,,,,,,
,,,,,,,,,,,,,FF,,,,,,,,0.8174,,,,,,,,,,,,,,,,,,,,,,60ffbf91875b2c515d251452,610376a9ddd5cd2c1be0548f,2021-07-30_13h57.42.754,Simcolourproject_2stim_asymm_v5,2020.2.10,Win32,60,61025ae37ef11b136ea224fe,,,,,,,,,4295,-33,-42.5,1,0,0,response5disk,,3,-21,-6.5,1,0,0,rectangle,-21,-6.5,1,0,0,-21,-6.5,1,0,0,1,63,223,60,1,,,,,,,,
,,,,,,,,,,,,,FF,,,,,,,,1.1177,,,,,,,,,,,,,,,,,,,,,,60ffbf91875b2c515d251452,610376a9ddd5cd2c1be0548f,2021-07-30_13h57.42.754,Simcolourproject_2stim_asymm_v5,2020.2.10,Win32,60,61025ae37ef11b136ea224fe,,,,,,,,,3228,46,-19.5,1,0,0,response3disk,,5,47,0.5,1,0,0,rectangle,47,0.5,1,0,0,47,0.5,1,0,0,1,64,224,96,1,,,,,,,,
,,,,,,,,,,,,,FF,,,,,,,,0.8509,,,,,,,,,,,,,,,,,,,,,,60ffbf91875b2c515d251452,610376a9ddd5cd2c1be0548f,2021-07-30_13h57.42.754,Simcolourproject_2stim_asymm_v5,2020.2.10,Win32,60,61025ae37ef11b136ea224fe,,,,,,,,,1893,-55,-25.5,1,0,0,response5disk,,2,3,-9.5,1,0,0,rectangle,80,-39.5,1,0,0,11,-2.5,1,0,0,1,65,225,107,1,,response3disk_3,TRUE,5,5,"[254,266,246,52,95,234,289,44,226,116,118,264,36,210,111,222,210,285,152,74]",3.2027,rectangle
,,,,,,,,,,,,,FF,,,,,,,,1.2508,,,,,,,,,,,,,,,,,,,,,,60ffbf91875b2c515d251452,610376a9ddd5cd2c1be0548f,2021-07-30_13h57.42.754,Simcolourproject_2stim_asymm_v5,2020.2.10,Win32,60,61025ae37ef11b136ea224fe,,,,,,,,,4311,-48,-30.5,1,0,0,response5disk,,2,10,3.5,1,0,0,rectangle,10,3.5,1,0,0,10,3.5,1,0,0,1,66,226,9,1,,,,,,,,
,,,,,,,,,,,,,FF,,,,,,,,1.2677,,,,,,,,,,,,,,,,,,,,,,60ffbf91875b2c515d251452,610376a9ddd5cd2c1be0548f,2021-07-30_13h57.42.754,Simcolourproject_2stim_asymm_v5,2020.2.10,Win32,60,61025ae37ef11b136ea224fe,,,,,,,,,2009,69,31.5,1,0,0,response1disk,,6,26,-15.5,1,0,0,rectangle,26,-15.5,1,0,0,26,-15.5,1,0,0,1,67,227,21,1,,,,,,,,
,,,,,,,,,,,,,FF,,,,,,,,1.5847,,,,,,,,,,,,,,,,,,,,,,60ffbf91875b2c515d251452,610376a9ddd5cd2c1be0548f,2021-07-30_13h57.42.754,Simcolourproject_2stim_asymm_v5,2020.2.10,Win32,60,61025ae37ef11b136ea224fe,,,,,,,,,136,49,35.5,1,0,0,response1disk,,6,-15,-5.5,1,0,0,rectangle,-15,-5.5,1,0,0,-15,-5.5,1,0,0,1,68,228,144,1,,,,,,,,
,,,,,,,,,,,,,FF,,,,,,,,0.6507,,,,,,,,,,,,,,,,,,,,,,60ffbf91875b2c515d251452,610376a9ddd5cd2c1be0548f,2021-07-30_13h57.42.754,Simcolourproject_2stim_asymm_v5,2020.2.10,Win32,60,61025ae37ef11b136ea224fe,,,,,,,,,2733,52,-32.5,1,0,0,response3disk,,5,30,-1.5,1,0,0,rectangle,30,-1.5,1,0,0,30,-1.5,1,0,0,1,69,229,62,1,,,,,,,,
,,,,,,,,,,,,,FF,,,,,,,,0.6005,,,,,,,,,,,,,,,,,,,,,,60ffbf91875b2c515d251452,610376a9ddd5cd2c1be0548f,2021-07-30_13h57.42.754,Simcolourproject_2stim_asymm_v5,2020.2.10,Win32,60,61025ae37ef11b136ea224fe,,,,,,,,,3430,51,35.5,1,0,0,response1disk,,6,22,0.5,1,0,0,rectangle,22,0.5,1,0,0,22,0.5,1,0,0,1,70,230,141,1,,,,,,,,
,,,,,,,,,,,,,FF,,,,,,,,2.1514,,,,,,,,,,,,,,,,,,,,,,60ffbf91875b2c515d251452,610376a9ddd5cd2c1be0548f,2021-07-30_13h57.42.754,Simcolourproject_2stim_asymm_v5,2020.2.10,Win32,60,61025ae37ef11b136ea224fe,,,,,,,,,3062,54,-38.5,1,0,0,response3disk,,5,24,3.5,1,0,0,rectangle,24,3.5,1,0,0,24,3.5,1,0,0,1,71,231,118,1,,,,,,,,
,,,,,,,,,,,,,FF,,,,,,,,0.8508,,,,,,,,,,,,,,,,,,,,,,60ffbf91875b2c515d251452,610376a9ddd5cd2c1be0548f,2021-07-30_13h57.42.754,Simcolourproject_2stim_asymm_v5,2020.2.10,Win32,60,61025ae37ef11b136ea224fe,,,,,,,,,1443,22,-48.5,1,0,0,response3disk,,4,18,-11.5,1,0,0,rectangle,18,-11.5,1,0,0,18,-11.5,1,0,0,1,72,232,10,1,,,,,,,,
,,,,,,,,,,,,,FF,,,,,,,,0.9676,,,,,,,,,,,,,,,,,,,,,,60ffbf91875b2c515d251452,610376a9ddd5cd2c1be0548f,2021-07-30_13h57.42.754,Simcolourproject_2stim_asymm_v5,2020.2.10,Win32,60,61025ae37ef11b136ea224fe,,,,,,,,,177,65,43.5,1,0,0,response1disk,,6,17,11.5,1,0,0,rectangle,-78,-40.5,1,0,0,-18,2.5,1,0,0,1,73,233,108,1,,response5disk_3,TRUE,2,2,"[254,266,246,52,95,234,289,44,226,116,118,264,36,210,111,222,210,285,152,74]",1.8846,rectangle
,,,,,,,,,,,,,FF,,,,,,,,1.0674,,,,,,,,,,,,,,,,,,,,,,60ffbf91875b2c515d251452,610376a9ddd5cd2c1be0548f,2021-07-30_13h57.42.754,Simcolourproject_2stim_asymm_v5,2020.2.10,Win32,60,61025ae37ef11b136ea224fe,,,,,,,,,3064,57,33.5,1,0,0,response1disk,,6,27,4.5,1,0,0,rectangle,27,4.5,1,0,0,27,4.5,1,0,0,1,74,234,120,1,,,,,,,,
,,,,,,,,,,,,,FF,,,,,,,,1.2845,,,,,,,,,,,,,,,,,,,,,,60ffbf91875b2c515d251452,610376a9ddd5cd2c1be0548f,2021-07-30_13h57.42.754,Simcolourproject_2stim_asymm_v5,2020.2.10,Win32,60,61025ae37ef11b136ea224fe,,,,,,,,,3916,53,-32.5,1,0,0,response3disk,,5,28,-8.5,1,0,0,rectangle,28,-8.5,1,0,0,28,-8.5,1,0,0,1,75,235,65,1,,,,,,,,
,,,,,,,,,,,,,FF,,,,,,,,1.1008,,,,,,,,,,,,,,,,,,,,,,60ffbf91875b2c515d251452,610376a9ddd5cd2c1be0548f,2021-07-30_13h57.42.754,Simcolourproject_2stim_asymm_v5,2020.2.10,Win32,60,61025ae37ef11b136ea224fe,,,,,,,,,397,35,71.5,1,0,0,response1disk,,7,37,-3.5,1,0,0,rectangle,37,-3.5,1,0,0,37,-3.5,1,0,0,1,76,236,115,1,,,,,,,,
,,,,,,,,,,,,,FF,,,,,,,,0.9675,,,,,,,,,,,,,,,,,,,,,,60ffbf91875b2c515d251452,610376a9ddd5cd2c1be0548f,2021-07-30_13h57.42.754,Simcolourproject_2stim_asymm_v5,2020.2.10,Win32,60,61025ae37ef11b136ea224fe,,,,,,,,,239,46,-19.5,1,0,0,response3disk,,5,20,8.5,1,0,0,rectangle,20,8.5,1,0,0,20,8.5,1,0,0,1,77,237,110,1,,,,,,,,
,,,,,,,,,,,,,FF,,,,,,,,1.868,,,,,,,,,,,,,,,,,,,,,,60ffbf91875b2c515d251452,610376a9ddd5cd2c1be0548f,2021-07-30_13h57.42.754,Simcolourproject_2stim_asymm_v5,2020.2.10,Win32,60,61025ae37ef11b136ea224fe,,,,,,,,,26,52,27.5,1,0,0,response1disk,,6,13,-0.5,1,0,0,rectangle,13,-0.5,1,0,0,13,-0.5,1,0,0,1,78,238,48,1,,,,,,,,
,,,,,,,,,,,,,FF,,,,,,,,0.6173,,,,,,,,,,,,,,,,,,,,,,60ffbf91875b2c515d251452,610376a9ddd5cd2c1be0548f,2021-07-30_13h57.42.754,Simcolourproject_2stim_asymm_v5,2020.2.10,Win32,60,61025ae37ef11b136ea224fe,,,,,,,,,3581,61,-25.5,1,0,0,response3disk,,5,6,-1.5,1,0,0,rectangle,6,-1.5,1,0,0,6,-1.5,1,0,0,1,79,239,91,1,,,,,,,,
,,,,,,,,,,,,,FF,,,,,,,,0.7341,,,,,,,,,,,,,,,,,,,,,,60ffbf91875b2c515d251452,610376a9ddd5cd2c1be0548f,2021-07-30_13h57.42.754,Simcolourproject_2stim_asymm_v5,2020.2.10,Win32,60,61025ae37ef11b136ea224fe,,,,,,,,,1094,20,-40.5,1,0,0,response3disk,,4,-21,-3.5,1,0,0,rectangle,-21,-3.5,1,0,0,-21,-3.5,1,0,0,1,80,240,151,1,,,,,,,,
,,,,,,,,,,,,,FF,,,,,,,,0.9506,,,,,,,,,,,,,,,,,,,,,,60ffbf91875b2c515d251452,610376a9ddd5cd2c1be0548f,2021-07-30_13h57.42.754,Simcolourproject_2stim_asymm_v5,2020.2.10,Win32,60,61025ae37ef11b136ea224fe,,,,,,,,,249,-29,-37.5,1,0,0,response5disk,,3,-28,-1.5,1,0,0,rectangle,-28,-1.5,1,0,0,-28,-1.5,1,0,0,1,81,241,87,1,,,,,,,,
,,,,,,,,,,,,,FF,,,,,,,,0.6504,,,,,,,,,,,,,,,,,,,,,,60ffbf91875b2c515d251452,610376a9ddd5cd2c1be0548f,2021-07-30_13h57.42.754,Simcolourproject_2stim_asymm_v5,2020.2.10,Win32,60,61025ae37ef11b136ea224fe,,,,,,,,,4197,51,-20.5,1,0,0,response3disk,,5,22,0.5,1,0,0,rectangle,22,0.5,1,0,0,22,0.5,1,0,0,1,82,242,135,1,,,,,,,,
,,,,,,,,,,,,,FF,,,,,,,,0.9009,,,,,,,,,,,,,,,,,,,,,,60ffbf91875b2c515d251452,610376a9ddd5cd2c1be0548f,2021-07-30_13h57.42.754,Simcolourproject_2stim_asymm_v5,2020.2.10,Win32,60,61025ae37ef11b136ea224fe,,,,,,,,,1336,51,26.5,1,0,0,response1disk,,6,9,-7.5,1,0,0,rectangle,9,-7.5,1,0,0,9,-7.5,1,0,0,1,83,243,67,1,,,,,,,,
,,,,,,,,,,,,,FF,,,,,,,,0.6503,,,,,,,,,,,,,,,,,,,,,,60ffbf91875b2c515d251452,610376a9ddd5cd2c1be0548f,2021-07-30_13h57.42.754,Simcolourproject_2stim_asymm_v5,2020.2.10,Win32,60,61025ae37ef11b136ea224fe,,,,,,,,,2111,62,-24.5,1,0,0,response3disk,,5,1,2.5,1,0,0,rectangle,1,2.5,1,0,0,1,2.5,1,0,0,1,84,244,150,1,,,,,,,,
,,,,,,,,,,,,,FF,,,,,,,,1.9014,,,,,,,,,,,,,,,,,,,,,,60ffbf91875b2c515d251452,610376a9ddd5cd2c1be0548f,2021-07-30_13h57.42.754,Simcolourproject_2stim_asymm_v5,2020.2.10,Win32,60,61025ae37ef11b136ea224fe,,,,,,,,,2696,58,13.5,1,0,0,response1disk,,6,36,-6.5,1,0,0,rectangle,36,74.5,1,0,0,30,-9.5,1,0,0,1,85,245,27,1,,response1disk_3,TRUE,7,7,"[254,266,246,52,95,234,289,44,226,116,118,264,36,210,111,222,210,285,152,74]",1.6179,rectangle
,,,,,,,,,,,,,FF,,,,,,,,1.0008,,,,,,,,,,,,,,,,,,,,,,60ffbf91875b2c515d251452,610376a9ddd5cd2c1be0548f,2021-07-30_13h57.42.754,Simcolourproject_2stim_asymm_v5,2020.2.10,Win32,60,61025ae37ef11b136ea224fe,,,,,,,,,675,20,-56.5,1,0,0,response3disk,,4,15,-9.5,1,0,0,rectangle,15,-9.5,1,0,0,15,-9.5,1,0,0,1,86,246,74,1,,,,,,,,
,,,,,,,,,,,,,FF,,,,,,,,1.1673,,,,,,,,,,,,,,,,,,,,,,60ffbf91875b2c515d251452,610376a9ddd5cd2c1be0548f,2021-07-30_13h57.42.754,Simcolourproject_2stim_asymm_v5,2020.2.10,Win32,60,61025ae37ef11b136ea224fe,,,,,,,,,2873,65,46.5,1,0,0,response1disk,,6,14,12.5,1,0,0,rectangle,14,12.5,1,0,0,14,12.5,1,0,0,1,87,247,133,1,,,,,,,,
,,,,,,,,,,,,,FF,,,,,,,,1.3011,,,,,,,,,,,,,,,,,,,,,,60ffbf91875b2c515d251452,610376a9ddd5cd2c1be0548f,2021-07-30_13h57.42.754,Simcolourproject_2stim_asymm_v5,2020.2.10,Win32,60,61025ae37ef11b136ea224fe,,,,,,,,,2256,45,-27.5,1,0,0,response3disk,,5,26,11.5,1,0,0,rectangle,26,11.5,1,0,0,26,11.5,1,0,0,1,88,248,127,1,,,,,,,,
,,,,,,,,,,,,,FF,,,,,,,,0.7836,,,,,,,,,,,,,,,,,,,,,,60ffbf91875b2c515d251452,610376a9ddd5cd2c1be0548f,2021-07-30_13h57.42.754,Simcolourproject_2stim_asymm_v5,2020.2.10,Win32,60,61025ae37ef11b136ea224fe,,,,,,,,,1109,36,67.5,1,0,0,response1disk,,7,37,7.5,1,0,0,rectangle,37,7.5,1,0,0,37,7.5,1,0,0,1,89,249,137,1,,,,,,,,
,,,,,,,,,,,,,FF,,,,,,,,0.8674,,,,,,,,,,,,,,,,,,,,,,60ffbf91875b2c515d251452,610376a9ddd5cd2c1be0548f,2021-07-30_13h57.42.754,Simcolourproject_2stim_asymm_v5,2020.2.10,Win32,60,61025ae37ef11b136ea224fe,,,,,,,,,3693,46,-17.5,1,0,0,response3disk,,5,13,-2.5,1,0,0,rectangle,13,-2.5,1,0,0,13,-2.5,1,0,0,1,90,250,142,1,,,,,,,,
,,,,,,,,,,,,,FF,,,,,,,,1.3175,,,,,,,,,,,,,,,,,,,,,,60ffbf91875b2c515d251452,610376a9ddd5cd2c1be0548f,2021-07-30_13h57.42.754,Simcolourproject_2stim_asymm_v5,2020.2.10,Win32,60,61025ae37ef11b136ea224fe,,,,,,,,,2934,59,26.5,1,0,0,response1disk,,6,25,-0.5,1,0,0,rectangle,25,-0.5,1,0,0,25,-0.5,1,0,0,1,91,251,104,1,,,,,,,,
,,,,,,,,,,,,,FF,,,,,,,,0.8006,,,,,,,,,,,,,,,,,,,,,,60ffbf91875b2c515d251452,610376a9ddd5cd2c1be0548f,2021-07-30_13h57.42.754,Simcolourproject_2stim_asymm_v5,2020.2.10,Win32,60,61025ae37ef11b136ea224fe,,,,,,,,,3686,59,-30.5,1,0,0,response3disk,,5,23,5.5,1,0,0,rectangle,23,5.5,1,0,0,23,5.5,1,0,0,1,92,252,11,1,,,,,,,,
,,,,,,,,,,,,,FF,,,,,,,,1.6181,,,,,,,,,,,,,,,,,,,,,,60ffbf91875b2c515d251452,610376a9ddd5cd2c1be0548f,2021-07-30_13h57.42.754,Simcolourproject_2stim_asymm_v5,2020.2.10,Win32,60,61025ae37ef11b136ea224fe,,,,,,,,,3443,20,-38.5,1,0,0,response3disk,,4,7,-6.5,1,0,0,rectangle,24,69.5,1,0,0,12,-9.5,1,0,0,1,93,253,40,1,,response1disk_3,TRUE,7,7,"[254,266,246,52,95,234,289,44,226,116,118,264,36,210,111,222,210,285,152,74]",1.2847,rectangle
,,,,,,,,,,,,,FF,,,,,,,,0.8179,,,,,,,,,,,,,,,,,,,,,,60ffbf91875b2c515d251452,610376a9ddd5cd2c1be0548f,2021-07-30_13h57.42.754,Simcolourproject_2stim_asymm_v5,2020.2.10,Win32,60,61025ae37ef11b136ea224fe,,,,,,,,,733,-19,-45.5,1,0,0,response5disk,,3,10,2.5,1,0,0,rectangle,10,2.5,1,0,0,10,2.5,1,0,0,1,94,254,46,1,,,,,,,,
,,,,,,,,,,,,,FF,,,,,,,,0.9677,,,,,,,,,,,,,,,,,,,,,,60ffbf91875b2c515d251452,610376a9ddd5cd2c1be0548f,2021-07-30_13h57.42.754,Simcolourproject_2stim_asymm_v5,2020.2.10,Win32,60,61025ae37ef11b136ea224fe,,,,,,,,,4181,-49,32.5,1,0,0,response7disk,,1,-7,3.5,1,0,0,rectangle,-7,3.5,1,0,0,-7,3.5,1,0,0,1,95,255,36,1,,,,,,,,
,,,,,,,,,,,,,FF,,,,,,,,0.8006,,,,,,,,,,,,,,,,,,,,,,60ffbf91875b2c515d251452,610376a9ddd5cd2c1be0548f,2021-07-30_13h57.42.754,Simcolourproject_2stim_asymm_v5,2020.2.10,Win32,60,61025ae37ef11b136ea224fe,,,,,,,,,220,65,23.5,1,0,0,response1disk,,6,20,-8.5,1,0,0,rectangle,20,-8.5,1,0,0,20,-8.5,1,0,0,1,96,256,41,1,,,,,,,,
,,,,,,,,,,,,,FF,,,,,,,,0.7841,,,,,,,,,,,,,,,,,,,,,,60ffbf91875b2c515d251452,610376a9ddd5cd2c1be0548f,2021-07-30_13h57.42.754,Simcolourproject_2stim_asymm_v5,2020.2.10,Win32,60,61025ae37ef11b136ea224fe,,,,,,,,,2281,45,-23.5,1,0,0,response3disk,,5,11,-2.5,1,0,0,rectangle,11,-2.5,1,0,0,11,-2.5,1,0,0,1,97,257,94,1,,,,,,,,
,,,,,,,,,,,,,FF,,,,,,,,0.717,,,,,,,,,,,,,,,,,,,,,,60ffbf91875b2c515d251452,610376a9ddd5cd2c1be0548f,2021-07-30_13h57.42.754,Simcolourproject_2stim_asymm_v5,2020.2.10,Win32,60,61025ae37ef11b136ea224fe,,,,,,,,,383,50,-24.5,1,0,0,response3disk,,5,20,3.5,1,0,0,rectangle,20,3.5,1,0,0,20,3.5,1,0,0,1,98,258,19,1,,,,,,,,
,,,,,,,,,,,,,FF,,,,,,,,0.7009,,,,,,,,,,,,,,,,,,,,,,60ffbf91875b2c515d251452,610376a9ddd5cd2c1be0548f,2021-07-30_13h57.42.754,Simcolourproject_2stim_asymm_v5,2020.2.10,Win32,60,61025ae37ef11b136ea224fe,,,,,,,,,3600,24,-42.5,1,0,0,response3disk,,4,-2,-2.5,1,0,0,rectangle,-2,-2.5,1,0,0,-2,-2.5,1,0,0,1,99,259,85,1,,,,,,,,
,,,,,,,,,,,,,FF,,,,,,,,1.2008,,,,,,,,,,,,,,,,,,,,,,60ffbf91875b2c515d251452,610376a9ddd5cd2c1be0548f,2021-07-30_13h57.42.754,Simcolourproject_2stim_asymm_v5,2020.2.10,Win32,60,61025ae37ef11b136ea224fe,,,,,,,,,2046,55,33.5,1,0,0,response1disk,,6,-11,11.5,1,0,0,rectangle,-11,11.5,1,0,0,-11,11.5,1,0,0,1,100,260,55,1,,,,,,,,
,,,,,,,,,,,,,FF,,,,,,,,2.2685,,,,,,,,,,,,,,,,,,,,,,60ffbf91875b2c515d251452,610376a9ddd5cd2c1be0548f,2021-07-30_13h57.42.754,Simcolourproject_2stim_asymm_v5,2020.2.10,Win32,60,61025ae37ef11b136ea224fe,,,,,,,,,3541,14,73.5,1,0,0,response1disk,,7,10,-8.5,1,0,0,rectangle,10,-8.5,1,0,0,10,-8.5,1,0,0,1,101,261,103,1,,,,,,,,
,,,,,,,,,,,,,FF,,,,,,,,1.2344,,,,,,,,,,,,,,,,,,,,,,60ffbf91875b2c515d251452,610376a9ddd5cd2c1be0548f,2021-07-30_13h57.42.754,Simcolourproject_2stim_asymm_v5,2020.2.10,Win32,60,61025ae37ef11b136ea224fe,,,,,,,,,768,65,24.5,1,0,0,response1disk,,6,18,-12.5,1,0,0,rectangle,18,-12.5,1,0,0,18,-12.5,1,0,0,1,102,262,63,1,,,,,,,,
,,,,,,,,,,,,,FF,,,,,,,,1.4009,,,,,,,,,,,,,,,,,,,,,,60ffbf91875b2c515d251452,610376a9ddd5cd2c1be0548f,2021-07-30_13h57.42.754,Simcolourproject_2stim_asymm_v5,2020.2.10,Win32,60,61025ae37ef11b136ea224fe,,,,,,,,,2743,56,16.5,1,0,0,response1disk,,6,42,-4.5,1,0,0,rectangle,26,64.5,1,0,0,15,2.5,1,0,0,1,103,263,39,1,,response1disk_3,TRUE,7,7,"[254,266,246,52,95,234,289,44,226,116,118,264,36,210,111,222,210,285,152,74]",1.2342,rectangle
,,,,,,,,,,,,,FF,,,,,,,,0.7843,,,,,,,,,,,,,,,,,,,,,,60ffbf91875b2c515d251452,610376a9ddd5cd2c1be0548f,2021-07-30_13h57.42.754,Simcolourproject_2stim_asymm_v5,2020.2.10,Win32,60,61025ae37ef11b136ea224fe,,,,,,,,,833,-56,-24.5,1,0,0,response5disk,,2,-4,-0.5,1,0,0,rectangle,-4,-0.5,1,0,0,-4,-0.5,1,0,0,1,104,264,16,1,,,,,,,,
,,,,,,,,,,,,,FF,,,,,,,,2.2518,,,,,,,,,,,,,,,,,,,,,,60ffbf91875b2c515d251452,610376a9ddd5cd2c1be0548f,2021-07-30_13h57.42.754,Simcolourproject_2stim_asymm_v5,2020.2.10,Win32,60,61025ae37ef11b136ea224fe,,,,,,,,,1267,68,37.5,1,0,0,response1disk,,6,28,-0.5,1,0,0,rectangle,-82,46.5,1,0,0,-46,8.5,1,0,0,1,105,265,43,1,,response7disk_3,TRUE,1,1,"[254,266,246,52,95,234,289,44,226,116,118,264,36,210,111,222,210,285,152,74]",1.9348,rectangle
,,,,,,,,,,,,,FF,,,,,,,,1.0337,,,,,,,,,,,,,,,,,,,,,,60ffbf91875b2c515d251452,610376a9ddd5cd2c1be0548f,2021-07-30_13h57.42.754,Simcolourproject_2stim_asymm_v5,2020.2.10,Win32,60,61025ae37ef11b136ea224fe,,,,,,,,,3875,-30,70.5,1,0,0,response7disk,,0,-21,7.5,1,0,0,rectangle,-21,7.5,1,0,0,-21,7.5,1,0,0,1,106,266,25,1,,,,,,,,
,,,,,,,,,,,,,FF,,,,,,,,1.034,,,,,,,,,,,,,,,,,,,,,,60ffbf91875b2c515d251452,610376a9ddd5cd2c1be0548f,2021-07-30_13h57.42.754,Simcolourproject_2stim_asymm_v5,2020.2.10,Win32,60,61025ae37ef11b136ea224fe,,,,,,,,,2517,41,56.5,1,0,0,response1disk,,7,39,15.5,1,0,0,rectangle,39,15.5,1,0,0,39,15.5,1,0,0,1,107,267,148,1,,,,,,,,
,,,,,,,,,,,,,FF,,,,,,,,1.2009,,,,,,,,,,,,,,,,,,,,,,60ffbf91875b2c515d251452,610376a9ddd5cd2c1be0548f,2021-07-30_13h57.42.754,Simcolourproject_2stim_asymm_v5,2020.2.10,Win32,60,61025ae37ef11b136ea224fe,,,,,,,,,3746,-30,-39.5,1,0,0,response5disk,,3,-8,-5.5,1,0,0,rectangle,-8,-5.5,1,0,0,-8,-5.5,1,0,0,1,108,268,15,1,,,,,,,,
,,,,,,,,,,,,,FF,,,,,,,,1.0172,,,,,,,,,,,,,,,,,,,,,,60ffbf91875b2c515d251452,610376a9ddd5cd2c1be0548f,2021-07-30_13h57.42.754,Simcolourproject_2stim_asymm_v5,2020.2.10,Win32,60,61025ae37ef11b136ea224fe,,,,,,,,,3915,-32,-32.5,1,0,0,response5disk,,3,-14,-4.5,1,0,0,rectangle,-14,-4.5,1,0,0,-14,-4.5,1,0,0,1,109,269,45,1,,,,,,,,
,,,,,,,,,,,,,FF,,,,,,,,0.7172,,,,,,,,,,,,,,,,,,,,,,60ffbf91875b2c515d251452,610376a9ddd5cd2c1be0548f,2021-07-30_13h57.42.754,Simcolourproject_2stim_asymm_v5,2020.2.10,Win32,60,61025ae37ef11b136ea224fe,,,,,,,,,255,-27,-42.5,1,0,0,response5disk,,3,-12,-1.5,1,0,0,rectangle,-12,-1.5,1,0,0,-12,-1.5,1,0,0,1,110,270,146,1,,,,,,,,
,,,,,,,,,,,,,FF,,,,,,,,1.0172,,,,,,,,,,,,,,,,,,,,,,60ffbf91875b2c515d251452,610376a9ddd5cd2c1be0548f,2021-07-30_13h57.42.754,Simcolourproject_2stim_asymm_v5,2020.2.10,Win32,60,61025ae37ef11b136ea224fe,,,,,,,,,839,54,-28.5,1,0,0,response3disk,,5,29,7.5,1,0,0,rectangle,29,7.5,1,0,0,29,7.5,1,0,0,1,111,271,117,1,,,,,,,,
,,,,,,,,,,,,,FF,,,,,,,,0.7842,,,,,,,,,,,,,,,,,,,,,,60ffbf91875b2c515d251452,610376a9ddd5cd2c1be0548f,2021-07-30_13h57.42.754,Simcolourproject_2stim_asymm_v5,2020.2.10,Win32,60,61025ae37ef11b136ea224fe,,,,,,,,,2645,59,25.5,1,0,0,response1disk,,6,17,-0.5,1,0,0,rectangle,17,-0.5,1,0,0,17,-0.5,1,0,0,1,112,272,81,1,,,,,,,,
,,,,,,,,,,,,,FF,,,,,,,,0.8344,,,,,,,,,,,,,,,,,,,,,,60ffbf91875b2c515d251452,610376a9ddd5cd2c1be0548f,2021-07-30_13h57.42.754,Simcolourproject_2stim_asymm_v5,2020.2.10,Win32,60,61025ae37ef11b136ea224fe,,,,,,,,,429,39,-21.5,1,0,0,response3disk,,5,7,-4.5,1,0,0,rectangle,7,-4.5,1,0,0,7,-4.5,1,0,0,1,113,273,23,1,,,,,,,,
,,,,,,,,,,,,,FF,,,,,,,,1.251,,,,,,,,,,,,,,,,,,,,,,60ffbf91875b2c515d251452,610376a9ddd5cd2c1be0548f,2021-07-30_13h57.42.754,Simcolourproject_2stim_asymm_v5,2020.2.10,Win32,60,61025ae37ef11b136ea224fe,,,,,,,,,267,53,34.5,1,0,0,response1disk,,6,22,9.5,1,0,0,rectangle,22,9.5,1,0,0,22,9.5,1,0,0,1,114,274,93,1,,,,,,,,
,,,,,,,,,,,,,FF,,,,,,,,1.3346,,,,,,,,,,,,,,,,,,,,,,60ffbf91875b2c515d251452,610376a9ddd5cd2c1be0548f,2021-07-30_13h57.42.754,Simcolourproject_2stim_asymm_v5,2020.2.10,Win32,60,61025ae37ef11b136ea224fe,,,,,,,,,1479,32,-63.5,1,0,0,response3disk,,4,26,-3.5,1,0,0,rectangle,26,-3.5,1,0,0,26,-3.5,1,0,0,1,115,275,37,1,,,,,,,,
,,,,,,,,,,,,,FF,,,,,,,,1.5176,,,,,,,,,,,,,,,,,,,,,,60ffbf91875b2c515d251452,610376a9ddd5cd2c1be0548f,2021-07-30_13h57.42.754,Simcolourproject_2stim_asymm_v5,2020.2.10,Win32,60,61025ae37ef11b136ea224fe,,,,,,,,,75,16,-34.5,1,0,0,response3disk,,4,7,6.5,1,0,0,rectangle,7,6.5,1,0,0,7,6.5,1,0,0,1,116,276,80,1,,,,,,,,
,,,,,,,,,,,,,FF,,,,,,,,1.8349,,,,,,,,,,,,,,,,,,,,,,60ffbf91875b2c515d251452,610376a9ddd5cd2c1be0548f,2021-07-30_13h57.42.754,Simcolourproject_2stim_asymm_v5,2020.2.10,Win32,60,61025ae37ef11b136ea224fe,,,,,,,,,1787,-23,-44.5,1,0,0,response5disk,,3,-7,-0.5,1,0,0,rectangle,-7,-0.5,1,0,0,-7,-0.5,1,0,0,1,117,277,111,1,,,,,,,,
,,,,,,,,,,,,,FF,,,,,,,,0.7837,,,,,,,,,,,,,,,,,,,,,,60ffbf91875b2c515d251452,610376a9ddd5cd2c1be0548f,2021-07-30_13h57.42.754,Simcolourproject_2stim_asymm_v5,2020.2.10,Win32,60,61025ae37ef11b136ea224fe,,,,,,,,,3936,-37,64.5,1,0,0,response7disk,,0,-15,11.5,1,0,0,rectangle,-15,11.5,1,0,0,-15,11.5,1,0,0,1,118,278,35,1,,,,,,,,
,,,,,,,,,,,,,FF,,,,,,,,1.6514,,,,,,,,,,,,,,,,,,,,,,60ffbf91875b2c515d251452,610376a9ddd5cd2c1be0548f,2021-07-30_13h57.42.754,Simcolourproject_2stim_asymm_v5,2020.2.10,Win32,60,61025ae37ef11b136ea224fe,,,,,,,,,2998,-50,-30.5,1,0,0,response5disk,,2,-21,-11.5,1,0,0,rectangle,-21,-11.5,1,0,0,-21,-11.5,1,0,0,1,119,279,158,1,,,,,,,,
,,,,,,,,,,,,,FF,,,,,,,,1.034,,,,,,,,,,,,,,,,,,,,,,60ffbf91875b2c515d251452,610376a9ddd5cd2c1be0548f,2021-07-30_13h57.42.754,Simcolourproject_2stim_asymm_v5,2020.2.10,Win32,60,61025ae37ef11b136ea224fe,,,,,,,,,2923,19,-45.5,1,0,0,response3disk,,4,-4,-3.5,1,0,0,rectangle,-4,-3.5,1,0,0,-4,-3.5,1,0,0,1,120,280,79,1,,,,,,,,
,,,,,,,,,,,,,FF,,,,,,,,0.6507,,,,,,,,,,,,,,,,,,,,,,60ffbf91875b2c515d251452,610376a9ddd5cd2c1be0548f,2021-07-30_13h57.42.754,Simcolourproject_2stim_asymm_v5,2020.2.10,Win32,60,61025ae37ef11b136ea224fe,,,,,,,,,337,49,32.5,1,0,0,response1disk,,6,-10,12.5,1,0,0,rectangle,-10,12.5,1,0,0,-10,12.5,1,0,0,1,121,281,20,1,,,,,,,,
,,,,,,,,,,,,,FF,,,,,,,,0.9674,,,,,,,,,,,,,,,,,,,,,,60ffbf91875b2c515d251452,610376a9ddd5cd2c1be0548f,2021-07-30_13h57.42.754,Simcolourproject_2stim_asymm_v5,2020.2.10,Win32,60,61025ae37ef11b136ea224fe,,,,,,,,,1664,36,-11.5,1,0,0,response3disk,,5,12,-12.5,1,0,0,rectangle,12,-12.5,1,0,0,12,-12.5,1,0,0,1,122,282,113,1,,,,,,,,
,,,,,,,,,,,,,FF,,,,,,,,2.152,,,,,,,,,,,,,,,,,,,,,,60ffbf91875b2c515d251452,610376a9ddd5cd2c1be0548f,2021-07-30_13h57.42.754,Simcolourproject_2stim_asymm_v5,2020.2.10,Win32,60,61025ae37ef11b136ea224fe,,,,,,,,,1159,14,-44.5,1,0,0,response3disk,,4,9,-5.5,1,0,0,rectangle,9,-5.5,1,0,0,9,-5.5,1,0,0,1,123,283,70,1,,,,,,,,
,,,,,,,,,,,,,FF,,,,,,,,0.9841,,,,,,,,,,,,,,,,,,,,,,60ffbf91875b2c515d251452,610376a9ddd5cd2c1be0548f,2021-07-30_13h57.42.754,Simcolourproject_2stim_asymm_v5,2020.2.10,Win32,60,61025ae37ef11b136ea224fe,,,,,,,,,2970,62,26.5,1,0,0,response1disk,,6,39,-7.5,1,0,0,rectangle,77,43.5,1,0,0,26,2.5,1,0,0,1,124,284,114,1,,response1disk_3,TRUE,6,6,"[254,266,246,52,95,234,289,44,226,116,118,264,36,210,111,222,210,285,152,74]",1.7512,rectangle
,,,,,,,,,,,,,FF,,,,,,,,1.1346,,,,,,,,,,,,,,,,,,,,,,60ffbf91875b2c515d251452,610376a9ddd5cd2c1be0548f,2021-07-30_13h57.42.754,Simcolourproject_2stim_asymm_v5,2020.2.10,Win32,60,61025ae37ef11b136ea224fe,,,,,,,,,3944,57,28.5,1,0,0,response1disk,,6,-4,9.5,1,0,0,rectangle,-4,9.5,1,0,0,-4,9.5,1,0,0,1,125,285,12,1,,,,,,,,
,,,,,,,,,,,,,FF,,,,,,,,1.1176,,,,,,,,,,,,,,,,,,,,,,60ffbf91875b2c515d251452,610376a9ddd5cd2c1be0548f,2021-07-30_13h57.42.754,Simcolourproject_2stim_asymm_v5,2020.2.10,Win32,60,61025ae37ef11b136ea224fe,,,,,,,,,1708,45,67.5,1,0,0,response1disk,,7,31,12.5,1,0,0,rectangle,31,12.5,1,0,0,31,12.5,1,0,0,1,126,286,6,1,,,,,,,,
,,,,,,,,,,,,,FF,,,,,,,,0.6508,,,,,,,,,,,,,,,,,,,,,,60ffbf91875b2c515d251452,610376a9ddd5cd2c1be0548f,2021-07-30_13h57.42.754,Simcolourproject_2stim_asymm_v5,2020.2.10,Win32,60,61025ae37ef11b136ea224fe,,,,,,,,,3366,63,37.5,1,0,0,response1disk,,6,48,5.5,1,0,0,rectangle,48,5.5,1,0,0,48,5.5,1,0,0,1,127,287,7,1,,,,,,,,
,,,,,,,,,,,,,FF,,,,,,,,1.2177,,,,,,,,,,,,,,,,,,,,,,60ffbf91875b2c515d251452,610376a9ddd5cd2c1be0548f,2021-07-30_13h57.42.754,Simcolourproject_2stim_asymm_v5,2020.2.10,Win32,60,61025ae37ef11b136ea224fe,,,,,,,,,3006,-28,-62.5,1,0,0,response5disk,,3,5,-0.5,1,0,0,rectangle,-25,73.5,1,0,0,-13,7.5,1,0,0,1,128,288,56,1,,response7disk_3,TRUE,0,0,"[254,266,246,52,95,234,289,44,226,116,118,264,36,210,111,222,210,285,152,74]",1.8346,rectangle
,,,,,,,,,,,,,FF,,,,,,,,0.9843,,,,,,,,,,,,,,,,,,,,,,60ffbf91875b2c515d251452,610376a9ddd5cd2c1be0548f,2021-07-30_13h57.42.754,Simcolourproject_2stim_asymm_v5,2020.2.10,Win32,60,61025ae37ef11b136ea224fe,,,,,,,,,1222,-58,-27.5,1,0,0,response5disk,,2,-17,-5.5,1,0,0,rectangle,-17,-5.5,1,0,0,-17,-5.5,1,0,0,1,129,289,157,1,,,,,,,,
,,,,,,,,,,,,,FF,,,,,,,,0.8011,,,,,,,,,,,,,,,,,,,,,,60ffbf91875b2c515d251452,610376a9ddd5cd2c1be0548f,2021-07-30_13h57.42.754,Simcolourproject_2stim_asymm_v5,2020.2.10,Win32,60,61025ae37ef11b136ea224fe,,,,,,,,,782,-22,-42.5,1,0,0,response5disk,,3,12,0.5,1,0,0,rectangle,12,0.5,1,0,0,12,0.5,1,0,0,1,130,290,109,1,,,,,,,,
,,,,,,,,,,,,,FF,,,,,,,,0.6177,,,,,,,,,,,,,,,,,,,,,,60ffbf91875b2c515d251452,610376a9ddd5cd2c1be0548f,2021-07-30_13h57.42.754,Simcolourproject_2stim_asymm_v5,2020.2.10,Win32,60,61025ae37ef11b136ea224fe,,,,,,,,,1256,16,-40.5,1,0,0,response3disk,,4,19,8.5,1,0,0,rectangle,19,8.5,1,0,0,19,8.5,1,0,0,1,131,291,31,1,,,,,,,,
,,,,,,,,,,,,,FF,,,,,,,,1.0012,,,,,,,,,,,,,,,,,,,,,,60ffbf91875b2c515d251452,610376a9ddd5cd2c1be0548f,2021-07-30_13h57.42.754,Simcolourproject_2stim_asymm_v5,2020.2.10,Win32,60,61025ae37ef11b136ea224fe,,,,,,,,,3717,-23,-43.5,1,0,0,response5disk,,3,17,-0.5,1,0,0,rectangle,17,-0.5,1,0,0,17,-0.5,1,0,0,1,132,292,82,1,,,,,,,,
,,,,,,,,,,,,,FF,,,,,,,,1.0508,,,,,,,,,,,,,,,,,,,,,,60ffbf91875b2c515d251452,610376a9ddd5cd2c1be0548f,2021-07-30_13h57.42.754,Simcolourproject_2stim_asymm_v5,2020.2.10,Win32,60,61025ae37ef11b136ea224fe,,,,,,,,,562,27,-45.5,1,0,0,response3disk,,4,25,-2.5,1,0,0,rectangle,25,-2.5,1,0,0,25,-2.5,1,0,0,1,133,293,75,1,,,,,,,,
