key_resp.keys,key_resp.rt,key_resp_14.keys,key_resp_14.rt,key_resp_15.keys,key_resp_15.rt,key_resp_17.keys,key_resp_17.rt,key_resp_9.keys,key_resp_9.rt,key_resp_10.keys,key_resp_10.rt,practice_comparison,Ecc,mouse_5.x,mouse_5.y,mouse_5.leftButton,mouse_5.midButton,mouse_5.rightButton,mouse_5.clicked_name,pracsimilarity,response_time,mouse_10.x,mouse_10.y,mouse_10.leftButton,mouse_10.midButton,mouse_10.rightButton,mouse_10.clicked_name,mouse_7.x,mouse_7.y,mouse_7.leftButton,mouse_7.midButton,mouse_7.rightButton,mouse_6.x,mouse_6.y,mouse_6.leftButton,mouse_6.midButton,mouse_6.rightButton,duringprac.thisRepN,duringprac.thisTrialN,duringprac.thisN,duringprac.thisIndex,duringprac.ran,participant,session,date,expName,psychopyVersion,OS,frameRate,study_id,mouse_7.clicked_name,catchpracsimilarity,catch_response_time,catchnumberprac,catchtrialorderprac,mouse_6.clicked_name,key_resp_22.keys,key_resp_22.rt,realcomparison,mouse.x,mouse.y,mouse.leftButton,mouse.midButton,mouse.rightButton,mouse.clicked_name,Colour2,similarity,mouse_2.x,mouse_2.y,mouse_2.leftButton,mouse_2.midButton,mouse_2.rightButton,mouse_2.clicked_name,mouse_3.x,mouse_3.y,mouse_3.leftButton,mouse_3.midButton,mouse_3.rightButton,mouse_11.x,mouse_11.y,mouse_11.leftButton,mouse_11.midButton,mouse_11.rightButton,trials_2.thisRepN,trials_2.thisTrialN,trials_2.thisN,trials_2.thisIndex,trials_2.ran,Colour1,mouse_3.clicked_name,catchornah,catchsimilarity,catchnumber,catchtrialorder,catchRT,mouse_11.clicked_name
space,2.9389,space,1.9412,space,21.5217,space,5.6962,space,2.3506,space,3.5624,95,PF,-46,-99,1,0,0,response5disk_5,3,25.1906,19,-6,1,0,0,rectangle_8,19,-6,1,0,0,19,-6,1,0,0,0,0,0,2,1,60ff8160e8f2227f8b200510,61036ee3df579df350590be2,2021-07-29_23h17.51.694,Simcolourproject_2stim_asymm_v5,2020.2.10,Win32,60,61025ae37ef11b136ea224fe,,,,,,,,,,,,,,,,,,,,,,,,,,,,,,,,,,,,,,,,,,,,,,
,,,,,,,,,,,,46,PF,81,-50,1,0,0,response3disk_5,5,5.9358,22,-1,1,0,0,rectangle_8,-43,-97,1,0,0,19,4,1,0,0,0,1,1,6,1,60ff8160e8f2227f8b200510,61036ee3df579df350590be2,2021-07-29_23h17.51.694,Simcolourproject_2stim_asymm_v5,2020.2.10,Win32,60,61025ae37ef11b136ea224fe,response5disk_7,3,2.048,3,"[2,5]",rectangle_4,,,,,,,,,,,,,,,,,,,,,,,,,,,,,,,,,,,,,,,,
,,,,,,,,,,,,45,FF,83,-54,1,0,0,response3disk_5,5,7.1211,24,3,1,0,0,rectangle_8,24,3,1,0,0,24,3,1,0,0,0,2,2,0,1,60ff8160e8f2227f8b200510,61036ee3df579df350590be2,2021-07-29_23h17.51.694,Simcolourproject_2stim_asymm_v5,2020.2.10,Win32,60,61025ae37ef11b136ea224fe,,,,,,,,,,,,,,,,,,,,,,,,,,,,,,,,,,,,,,,,,,,,,,
,,,,,,,,,,,,91,PF,-54,-38,1,0,0,response5disk_5,2,7.6864,15,-4,1,0,0,rectangle_8,15,-4,1,0,0,15,-4,1,0,0,0,3,3,1,1,60ff8160e8f2227f8b200510,61036ee3df579df350590be2,2021-07-29_23h17.51.694,Simcolourproject_2stim_asymm_v5,2020.2.10,Win32,60,61025ae37ef11b136ea224fe,,,,,,,,,,,,,,,,,,,,,,,,,,,,,,,,,,,,,,,,,,,,,,
,,,,,,,,,,,,154,PF,79,28,1,0,0,response1disk_5,6,4.2576,6,-4,1,0,0,rectangle_8,-19,-85,1,0,0,3,12,1,0,0,0,4,4,4,1,60ff8160e8f2227f8b200510,61036ee3df579df350590be2,2021-07-29_23h17.51.694,Simcolourproject_2stim_asymm_v5,2020.2.10,Win32,60,61025ae37ef11b136ea224fe,response5disk_7,3,2.0903,3,"[2,5]",rectangle_4,,,,,,,,,,,,,,,,,,,,,,,,,,,,,,,,,,,,,,,,
,,,,,,,,,,,,19,FF,33,-78,1,0,0,response3disk_5,4,4.0774,-2,7,1,0,0,rectangle_8,-2,7,1,0,0,-2,7,1,0,0,0,5,5,5,1,60ff8160e8f2227f8b200510,61036ee3df579df350590be2,2021-07-29_23h17.51.694,Simcolourproject_2stim_asymm_v5,2020.2.10,Win32,60,61025ae37ef11b136ea224fe,,,,,,,,,,,,,,,,,,,,,,,,,,,,,,,,,,,,,,,,,,,,,,
,,,,,,,,,,,,33,FF,44,70,1,0,0,response1disk_5,7,3.6598,8,-4,1,0,0,rectangle_8,8,-4,1,0,0,8,-4,1,0,0,0,6,6,3,1,60ff8160e8f2227f8b200510,61036ee3df579df350590be2,2021-07-29_23h17.51.694,Simcolourproject_2stim_asymm_v5,2020.2.10,Win32,60,61025ae37ef11b136ea224fe,,,,,,,,,,,,,,,,,,,,,,,,,,,,,,,,,,,,,,,,,,,,,,
,,,,,,,,,,,,,FF,,,,,,,,4.549,,,,,,,,,,,,,,,,,,,,,,60ff8160e8f2227f8b200510,61036ee3df579df350590be2,2021-07-29_23h17.51.694,Simcolourproject_2stim_asymm_v5,2020.2.10,Win32,60,61025ae37ef11b136ea224fe,,,,,,,space,4.4339,3497,69,-51,1,0,0,response3disk,,5,2,1,1,0,0,rectangle,2,1,1,0,0,2,1,1,0,0,0,0,0,138,1,,,,,,,,
,,,,,,,,,,,,,FF,,,,,,,,8.2902,,,,,,,,,,,,,,,,,,,,,,60ff8160e8f2227f8b200510,61036ee3df579df350590be2,2021-07-29_23h17.51.694,Simcolourproject_2stim_asymm_v5,2020.2.10,Win32,60,61025ae37ef11b136ea224fe,,,,,,,,,1718,27,-73,1,0,0,response3disk,,4,8,5,1,0,0,rectangle,8,5,1,0,0,8,5,1,0,0,0,1,1,102,1,,,,,,,,
,,,,,,,,,,,,,FF,,,,,,,,1.773,,,,,,,,,,,,,,,,,,,,,,60ff8160e8f2227f8b200510,61036ee3df579df350590be2,2021-07-29_23h17.51.694,Simcolourproject_2stim_asymm_v5,2020.2.10,Win32,60,61025ae37ef11b136ea224fe,,,,,,,,,3996,-41,-61,1,0,0,response5disk,,3,5,4,1,0,0,rectangle,5,4,1,0,0,5,4,1,0,0,0,2,2,142,1,,,,,,,,
,,,,,,,,,,,,,FF,,,,,,,,3.8736,,,,,,,,,,,,,,,,,,,,,,60ff8160e8f2227f8b200510,61036ee3df579df350590be2,2021-07-29_23h17.51.694,Simcolourproject_2stim_asymm_v5,2020.2.10,Win32,60,61025ae37ef11b136ea224fe,,,,,,,,,1037,57,-36,1,0,0,response3disk,,5,-7,-2,1,0,0,rectangle,-85,36,1,0,0,-15,-6,1,0,0,0,3,3,87,1,,response7disk_3,TRUE,1,1,"[204,200,323,38,205,174,59,95,84,283,61,25,279,216,4,306,320,86,231,291]",2.9758,rectangle
,,,,,,,,,,,,,FF,,,,,,,,2.8578,,,,,,,,,,,,,,,,,,,,,,60ff8160e8f2227f8b200510,61036ee3df579df350590be2,2021-07-29_23h17.51.694,Simcolourproject_2stim_asymm_v5,2020.2.10,Win32,60,61025ae37ef11b136ea224fe,,,,,,,,,1992,69,34,1,0,0,response1disk,,6,-5,3,1,0,0,rectangle,-5,3,1,0,0,-5,3,1,0,0,0,4,4,24,1,,,,,,,,
,,,,,,,,,,,,,FF,,,,,,,,1.8553,,,,,,,,,,,,,,,,,,,,,,60ff8160e8f2227f8b200510,61036ee3df579df350590be2,2021-07-29_23h17.51.694,Simcolourproject_2stim_asymm_v5,2020.2.10,Win32,60,61025ae37ef11b136ea224fe,,,,,,,,,92,-20,-63,1,0,0,response5disk,,3,2,-7,1,0,0,rectangle,2,-7,1,0,0,2,-7,1,0,0,0,5,5,140,1,,,,,,,,
,,,,,,,,,,,,,FF,,,,,,,,3.6609,,,,,,,,,,,,,,,,,,,,,,60ff8160e8f2227f8b200510,61036ee3df579df350590be2,2021-07-29_23h17.51.694,Simcolourproject_2stim_asymm_v5,2020.2.10,Win32,60,61025ae37ef11b136ea224fe,,,,,,,,,606,45,-24,1,0,0,response3disk,,5,7,-3,1,0,0,rectangle,7,-3,1,0,0,7,-3,1,0,0,0,6,6,37,1,,,,,,,,
,,,,,,,,,,,,,FF,,,,,,,,5.3153,,,,,,,,,,,,,,,,,,,,,,60ff8160e8f2227f8b200510,61036ee3df579df350590be2,2021-07-29_23h17.51.694,Simcolourproject_2stim_asymm_v5,2020.2.10,Win32,60,61025ae37ef11b136ea224fe,,,,,,,,,2233,-29,43,1,0,0,response7disk,,0,-10,-8,1,0,0,rectangle,-10,-8,1,0,0,-10,-8,1,0,0,0,7,7,76,1,,,,,,,,
,,,,,,,,,,,,,FF,,,,,,,,2.4404,,,,,,,,,,,,,,,,,,,,,,60ff8160e8f2227f8b200510,61036ee3df579df350590be2,2021-07-29_23h17.51.694,Simcolourproject_2stim_asymm_v5,2020.2.10,Win32,60,61025ae37ef11b136ea224fe,,,,,,,,,590,38,-39,1,0,0,response3disk,,4,15,1,1,0,0,rectangle,15,1,1,0,0,15,1,1,0,0,0,8,8,79,1,,,,,,,,
,,,,,,,,,,,,,FF,,,,,,,,1.705,,,,,,,,,,,,,,,,,,,,,,60ff8160e8f2227f8b200510,61036ee3df579df350590be2,2021-07-29_23h17.51.694,Simcolourproject_2stim_asymm_v5,2020.2.10,Win32,60,61025ae37ef11b136ea224fe,,,,,,,,,2414,-30,-80,1,0,0,response5disk,,3,11,-8,1,0,0,rectangle,11,-8,1,0,0,11,-8,1,0,0,0,9,9,38,1,,,,,,,,
,,,,,,,,,,,,,FF,,,,,,,,6.4349,,,,,,,,,,,,,,,,,,,,,,60ff8160e8f2227f8b200510,61036ee3df579df350590be2,2021-07-29_23h17.51.694,Simcolourproject_2stim_asymm_v5,2020.2.10,Win32,60,61025ae37ef11b136ea224fe,,,,,,,,,1488,52,-31,1,0,0,response3disk,,5,18,-3,1,0,0,rectangle,18,-3,1,0,0,18,-3,1,0,0,0,10,10,153,1,,,,,,,,
,,,,,,,,,,,,,FF,,,,,,,,2.3234,,,,,,,,,,,,,,,,,,,,,,60ff8160e8f2227f8b200510,61036ee3df579df350590be2,2021-07-29_23h17.51.694,Simcolourproject_2stim_asymm_v5,2020.2.10,Win32,60,61025ae37ef11b136ea224fe,,,,,,,,,1623,-70,-18,1,0,0,response5disk,,2,15,4,1,0,0,rectangle,15,4,1,0,0,15,4,1,0,0,0,11,11,104,1,,,,,,,,
,,,,,,,,,,,,,FF,,,,,,,,2.6575,,,,,,,,,,,,,,,,,,,,,,60ff8160e8f2227f8b200510,61036ee3df579df350590be2,2021-07-29_23h17.51.694,Simcolourproject_2stim_asymm_v5,2020.2.10,Win32,60,61025ae37ef11b136ea224fe,,,,,,,,,4258,29,52,1,0,0,response1disk,,7,-18,-4,1,0,0,rectangle,-18,-4,1,0,0,-18,-4,1,0,0,0,12,12,94,1,,,,,,,,
,,,,,,,,,,,,,FF,,,,,,,,2.2068,,,,,,,,,,,,,,,,,,,,,,60ff8160e8f2227f8b200510,61036ee3df579df350590be2,2021-07-29_23h17.51.694,Simcolourproject_2stim_asymm_v5,2020.2.10,Win32,60,61025ae37ef11b136ea224fe,,,,,,,,,1719,-45,-73,1,0,0,response5disk,,3,10,-7,1,0,0,rectangle,10,-7,1,0,0,10,-7,1,0,0,0,13,13,4,1,,,,,,,,
,,,,,,,,,,,,,FF,,,,,,,,2.3905,,,,,,,,,,,,,,,,,,,,,,60ff8160e8f2227f8b200510,61036ee3df579df350590be2,2021-07-29_23h17.51.694,Simcolourproject_2stim_asymm_v5,2020.2.10,Win32,60,61025ae37ef11b136ea224fe,,,,,,,,,1919,26,-63,1,0,0,response3disk,,4,-13,4,1,0,0,rectangle,-13,4,1,0,0,-13,4,1,0,0,0,14,14,114,1,,,,,,,,
,,,,,,,,,,,,,FF,,,,,,,,7.2879,,,,,,,,,,,,,,,,,,,,,,60ff8160e8f2227f8b200510,61036ee3df579df350590be2,2021-07-29_23h17.51.694,Simcolourproject_2stim_asymm_v5,2020.2.10,Win32,60,61025ae37ef11b136ea224fe,,,,,,,,,2528,67,22,1,0,0,response1disk,,6,17,1,1,0,0,rectangle,17,1,1,0,0,17,1,1,0,0,0,15,15,65,1,,,,,,,,
,,,,,,,,,,,,,FF,,,,,,,,2.2237,,,,,,,,,,,,,,,,,,,,,,60ff8160e8f2227f8b200510,61036ee3df579df350590be2,2021-07-29_23h17.51.694,Simcolourproject_2stim_asymm_v5,2020.2.10,Win32,60,61025ae37ef11b136ea224fe,,,,,,,,,3317,27,-75,1,0,0,response3disk,,4,1,0,1,0,0,rectangle,1,0,1,0,0,1,0,1,0,0,0,16,16,113,1,,,,,,,,
,,,,,,,,,,,,,FF,,,,,,,,4.8799,,,,,,,,,,,,,,,,,,,,,,60ff8160e8f2227f8b200510,61036ee3df579df350590be2,2021-07-29_23h17.51.694,Simcolourproject_2stim_asymm_v5,2020.2.10,Win32,60,61025ae37ef11b136ea224fe,,,,,,,,,3124,27,-55,1,0,0,response3disk,,4,5,2,1,0,0,rectangle,5,2,1,0,0,5,2,1,0,0,0,17,17,73,1,,,,,,,,
,,,,,,,,,,,,,FF,,,,,,,,3.4764,,,,,,,,,,,,,,,,,,,,,,60ff8160e8f2227f8b200510,61036ee3df579df350590be2,2021-07-29_23h17.51.694,Simcolourproject_2stim_asymm_v5,2020.2.10,Win32,60,61025ae37ef11b136ea224fe,,,,,,,,,1803,-21,-59,1,0,0,response5disk,,3,4,9,1,0,0,rectangle,4,9,1,0,0,4,9,1,0,0,0,18,18,133,1,,,,,,,,
,,,,,,,,,,,,,FF,,,,,,,,2.5246,,,,,,,,,,,,,,,,,,,,,,60ff8160e8f2227f8b200510,61036ee3df579df350590be2,2021-07-29_23h17.51.694,Simcolourproject_2stim_asymm_v5,2020.2.10,Win32,60,61025ae37ef11b136ea224fe,,,,,,,,,473,60,-35,1,0,0,response3disk,,5,11,-9,1,0,0,rectangle,11,-9,1,0,0,11,-9,1,0,0,0,19,19,20,1,,,,,,,,
,,,,,,,,,,,,,FF,,,,,,,,2.2563,,,,,,,,,,,,,,,,,,,,,,60ff8160e8f2227f8b200510,61036ee3df579df350590be2,2021-07-29_23h17.51.694,Simcolourproject_2stim_asymm_v5,2020.2.10,Win32,60,61025ae37ef11b136ea224fe,,,,,,,,,913,72,-33,1,0,0,response3disk,,5,12,-7,1,0,0,rectangle,12,-7,1,0,0,12,-7,1,0,0,0,20,20,115,1,,,,,,,,
,,,,,,,,,,,,,FF,,,,,,,,4.2173,,,,,,,,,,,,,,,,,,,,,,60ff8160e8f2227f8b200510,61036ee3df579df350590be2,2021-07-29_23h17.51.694,Simcolourproject_2stim_asymm_v5,2020.2.10,Win32,60,61025ae37ef11b136ea224fe,,,,,,,,,3402,-29,-65,1,0,0,response5disk,,3,5,-11,1,0,0,rectangle,5,-11,1,0,0,5,-11,1,0,0,0,21,21,58,1,,,,,,,,
,,,,,,,,,,,,,FF,,,,,,,,3.5604,,,,,,,,,,,,,,,,,,,,,,60ff8160e8f2227f8b200510,61036ee3df579df350590be2,2021-07-29_23h17.51.694,Simcolourproject_2stim_asymm_v5,2020.2.10,Win32,60,61025ae37ef11b136ea224fe,,,,,,,,,611,38,-90,1,0,0,response3disk,,4,6,-5,1,0,0,rectangle,6,-5,1,0,0,6,-5,1,0,0,0,22,22,50,1,,,,,,,,
,,,,,,,,,,,,,FF,,,,,,,,2.2405,,,,,,,,,,,,,,,,,,,,,,60ff8160e8f2227f8b200510,61036ee3df579df350590be2,2021-07-29_23h17.51.694,Simcolourproject_2stim_asymm_v5,2020.2.10,Win32,60,61025ae37ef11b136ea224fe,,,,,,,,,544,-62,-31,1,0,0,response5disk,,2,11,-6,1,0,0,rectangle,11,-6,1,0,0,11,-6,1,0,0,0,23,23,71,1,,,,,,,,
,,,,,,,,,,,,,FF,,,,,,,,1.6048,,,,,,,,,,,,,,,,,,,,,,60ff8160e8f2227f8b200510,61036ee3df579df350590be2,2021-07-29_23h17.51.694,Simcolourproject_2stim_asymm_v5,2020.2.10,Win32,60,61025ae37ef11b136ea224fe,,,,,,,,,1880,-22,-63,1,0,0,response5disk,,3,-2,-2,1,0,0,rectangle,41,-73,1,0,0,-6,-4,1,0,0,0,24,24,110,1,,response3disk_3,TRUE,4,4,"[204,200,323,38,205,174,59,95,84,283,61,25,279,216,4,306,320,86,231,291]",1.4947,rectangle
,,,,,,,,,,,,,FF,,,,,,,,1.4372,,,,,,,,,,,,,,,,,,,,,,60ff8160e8f2227f8b200510,61036ee3df579df350590be2,2021-07-29_23h17.51.694,Simcolourproject_2stim_asymm_v5,2020.2.10,Win32,60,61025ae37ef11b136ea224fe,,,,,,,,,4294,-58,-33,1,0,0,response5disk,,2,3,-7,1,0,0,rectangle,3,-7,1,0,0,3,-7,1,0,0,0,25,25,129,1,,,,,,,,
,,,,,,,,,,,,,FF,,,,,,,,1.3373,,,,,,,,,,,,,,,,,,,,,,60ff8160e8f2227f8b200510,61036ee3df579df350590be2,2021-07-29_23h17.51.694,Simcolourproject_2stim_asymm_v5,2020.2.10,Win32,60,61025ae37ef11b136ea224fe,,,,,,,,,3448,-41,-55,1,0,0,response5disk,,3,-2,-6,1,0,0,rectangle,-2,-6,1,0,0,-2,-6,1,0,0,0,26,26,8,1,,,,,,,,
,,,,,,,,,,,,,FF,,,,,,,,3.5764,,,,,,,,,,,,,,,,,,,,,,60ff8160e8f2227f8b200510,61036ee3df579df350590be2,2021-07-29_23h17.51.694,Simcolourproject_2stim_asymm_v5,2020.2.10,Win32,60,61025ae37ef11b136ea224fe,,,,,,,,,2130,69,-37,1,0,0,response3disk,,5,-4,-11,1,0,0,rectangle,-4,-11,1,0,0,-4,-11,1,0,0,0,27,27,0,1,,,,,,,,
,,,,,,,,,,,,,FF,,,,,,,,2.9252,,,,,,,,,,,,,,,,,,,,,,60ff8160e8f2227f8b200510,61036ee3df579df350590be2,2021-07-29_23h17.51.694,Simcolourproject_2stim_asymm_v5,2020.2.10,Win32,60,61025ae37ef11b136ea224fe,,,,,,,,,2215,55,34,1,0,0,response1disk,,6,-19,-1,1,0,0,rectangle,-19,-1,1,0,0,-19,-1,1,0,0,0,28,28,139,1,,,,,,,,
,,,,,,,,,,,,,FF,,,,,,,,2.0052,,,,,,,,,,,,,,,,,,,,,,60ff8160e8f2227f8b200510,61036ee3df579df350590be2,2021-07-29_23h17.51.694,Simcolourproject_2stim_asymm_v5,2020.2.10,Win32,60,61025ae37ef11b136ea224fe,,,,,,,,,3185,39,77,1,0,0,response1disk,,7,16,5,1,0,0,rectangle,16,5,1,0,0,16,5,1,0,0,0,29,29,98,1,,,,,,,,
,,,,,,,,,,,,,FF,,,,,,,,2.0047,,,,,,,,,,,,,,,,,,,,,,60ff8160e8f2227f8b200510,61036ee3df579df350590be2,2021-07-29_23h17.51.694,Simcolourproject_2stim_asymm_v5,2020.2.10,Win32,60,61025ae37ef11b136ea224fe,,,,,,,,,4170,-50,-81,1,0,0,response5disk,,3,-5,0,1,0,0,rectangle,-5,0,1,0,0,-5,0,1,0,0,0,30,30,118,1,,,,,,,,
,,,,,,,,,,,,,FF,,,,,,,,2.6414,,,,,,,,,,,,,,,,,,,,,,60ff8160e8f2227f8b200510,61036ee3df579df350590be2,2021-07-29_23h17.51.694,Simcolourproject_2stim_asymm_v5,2020.2.10,Win32,60,61025ae37ef11b136ea224fe,,,,,,,,,1938,79,-58,1,0,0,response3disk,,5,9,-10,1,0,0,rectangle,9,-10,1,0,0,9,-10,1,0,0,0,31,31,143,1,,,,,,,,
,,,,,,,,,,,,,FF,,,,,,,,4.3903,,,,,,,,,,,,,,,,,,,,,,60ff8160e8f2227f8b200510,61036ee3df579df350590be2,2021-07-29_23h17.51.694,Simcolourproject_2stim_asymm_v5,2020.2.10,Win32,60,61025ae37ef11b136ea224fe,,,,,,,,,1016,53,45,1,0,0,response1disk,,6,5,10,1,0,0,rectangle,5,10,1,0,0,5,10,1,0,0,0,32,32,132,1,,,,,,,,
,,,,,,,,,,,,,FF,,,,,,,,1.4544,,,,,,,,,,,,,,,,,,,,,,60ff8160e8f2227f8b200510,61036ee3df579df350590be2,2021-07-29_23h17.51.694,Simcolourproject_2stim_asymm_v5,2020.2.10,Win32,60,61025ae37ef11b136ea224fe,,,,,,,,,2805,61,22,1,0,0,response1disk,,6,10,-8,1,0,0,rectangle,10,-8,1,0,0,10,-8,1,0,0,0,33,33,92,1,,,,,,,,
,,,,,,,,,,,,,FF,,,,,,,,1.3204,,,,,,,,,,,,,,,,,,,,,,60ff8160e8f2227f8b200510,61036ee3df579df350590be2,2021-07-29_23h17.51.694,Simcolourproject_2stim_asymm_v5,2020.2.10,Win32,60,61025ae37ef11b136ea224fe,,,,,,,,,3105,-71,-40,1,0,0,response5disk,,2,-7,-8,1,0,0,rectangle,-7,-8,1,0,0,-7,-8,1,0,0,0,34,34,131,1,,,,,,,,
,,,,,,,,,,,,,FF,,,,,,,,1.12,,,,,,,,,,,,,,,,,,,,,,60ff8160e8f2227f8b200510,61036ee3df579df350590be2,2021-07-29_23h17.51.694,Simcolourproject_2stim_asymm_v5,2020.2.10,Win32,60,61025ae37ef11b136ea224fe,,,,,,,,,1292,-55,25,1,0,0,response7disk,,1,7,-1,1,0,0,rectangle,7,-1,1,0,0,7,-1,1,0,0,0,35,35,66,1,,,,,,,,
,,,,,,,,,,,,,FF,,,,,,,,0.9191,,,,,,,,,,,,,,,,,,,,,,60ff8160e8f2227f8b200510,61036ee3df579df350590be2,2021-07-29_23h17.51.694,Simcolourproject_2stim_asymm_v5,2020.2.10,Win32,60,61025ae37ef11b136ea224fe,,,,,,,,,4051,-76,-34,1,0,0,response5disk,,2,3,0,1,0,0,rectangle,3,0,1,0,0,3,0,1,0,0,0,36,36,97,1,,,,,,,,
,,,,,,,,,,,,,FF,,,,,,,,3.1253,,,,,,,,,,,,,,,,,,,,,,60ff8160e8f2227f8b200510,61036ee3df579df350590be2,2021-07-29_23h17.51.694,Simcolourproject_2stim_asymm_v5,2020.2.10,Win32,60,61025ae37ef11b136ea224fe,,,,,,,,,2473,33,-77,1,0,0,response3disk,,4,-9,-5,1,0,0,rectangle,-47,-62,1,0,0,-8,-1,1,0,0,0,37,37,12,1,,response5disk_3,TRUE,3,3,"[204,200,323,38,205,174,59,95,84,283,61,25,279,216,4,306,320,86,231,291]",0.986,rectangle
,,,,,,,,,,,,,FF,,,,,,,,0.9194,,,,,,,,,,,,,,,,,,,,,,60ff8160e8f2227f8b200510,61036ee3df579df350590be2,2021-07-29_23h17.51.694,Simcolourproject_2stim_asymm_v5,2020.2.10,Win32,60,61025ae37ef11b136ea224fe,,,,,,,,,3007,-69,-41,1,0,0,response5disk,,2,-3,-6,1,0,0,rectangle,-3,-6,1,0,0,-3,-6,1,0,0,0,38,38,81,1,,,,,,,,
,,,,,,,,,,,,,FF,,,,,,,,1.5206,,,,,,,,,,,,,,,,,,,,,,60ff8160e8f2227f8b200510,61036ee3df579df350590be2,2021-07-29_23h17.51.694,Simcolourproject_2stim_asymm_v5,2020.2.10,Win32,60,61025ae37ef11b136ea224fe,,,,,,,,,4163,-86,-25,1,0,0,response5disk,,2,2,2,1,0,0,rectangle,2,2,1,0,0,2,2,1,0,0,0,39,39,84,1,,,,,,,,
,,,,,,,,,,,,,FF,,,,,,,,1.0028,,,,,,,,,,,,,,,,,,,,,,60ff8160e8f2227f8b200510,61036ee3df579df350590be2,2021-07-29_23h17.51.694,Simcolourproject_2stim_asymm_v5,2020.2.10,Win32,60,61025ae37ef11b136ea224fe,,,,,,,,,3164,-59,-35,1,0,0,response5disk,,2,10,-2,1,0,0,rectangle,10,-2,1,0,0,10,-2,1,0,0,0,40,40,40,1,,,,,,,,
,,,,,,,,,,,,,FF,,,,,,,,2.0557,,,,,,,,,,,,,,,,,,,,,,60ff8160e8f2227f8b200510,61036ee3df579df350590be2,2021-07-29_23h17.51.694,Simcolourproject_2stim_asymm_v5,2020.2.10,Win32,60,61025ae37ef11b136ea224fe,,,,,,,,,3212,-59,-28,1,0,0,response5disk,,2,-3,4,1,0,0,rectangle,-3,4,1,0,0,-3,4,1,0,0,0,41,41,3,1,,,,,,,,
,,,,,,,,,,,,,FF,,,,,,,,2.0908,,,,,,,,,,,,,,,,,,,,,,60ff8160e8f2227f8b200510,61036ee3df579df350590be2,2021-07-29_23h17.51.694,Simcolourproject_2stim_asymm_v5,2020.2.10,Win32,60,61025ae37ef11b136ea224fe,,,,,,,,,1271,36,-70,1,0,0,response3disk,,4,-4,-12,1,0,0,rectangle,-4,-12,1,0,0,-4,-12,1,0,0,0,42,42,18,1,,,,,,,,
,,,,,,,,,,,,,FF,,,,,,,,1.1366,,,,,,,,,,,,,,,,,,,,,,60ff8160e8f2227f8b200510,61036ee3df579df350590be2,2021-07-29_23h17.51.694,Simcolourproject_2stim_asymm_v5,2020.2.10,Win32,60,61025ae37ef11b136ea224fe,,,,,,,,,3201,-71,-30,1,0,0,response5disk,,2,-9,-5,1,0,0,rectangle,-9,-5,1,0,0,-9,-5,1,0,0,0,43,43,86,1,,,,,,,,
,,,,,,,,,,,,,FF,,,,,,,,1.5375,,,,,,,,,,,,,,,,,,,,,,60ff8160e8f2227f8b200510,61036ee3df579df350590be2,2021-07-29_23h17.51.694,Simcolourproject_2stim_asymm_v5,2020.2.10,Win32,60,61025ae37ef11b136ea224fe,,,,,,,,,3012,-74,-22,1,0,0,response5disk,,2,0,-3,1,0,0,rectangle,0,-3,1,0,0,0,-3,1,0,0,0,44,44,7,1,,,,,,,,
,,,,,,,,,,,,,FF,,,,,,,,1.1145,,,,,,,,,,,,,,,,,,,,,,60ff8160e8f2227f8b200510,61036ee3df579df350590be2,2021-07-29_23h17.51.694,Simcolourproject_2stim_asymm_v5,2020.2.10,Win32,60,61025ae37ef11b136ea224fe,,,,,,,,,1283,-74,-34,1,0,0,response5disk,,2,9,-5,1,0,0,rectangle,9,-5,1,0,0,9,-5,1,0,0,0,45,45,52,1,,,,,,,,
,,,,,,,,,,,,,FF,,,,,,,,3.3765,,,,,,,,,,,,,,,,,,,,,,60ff8160e8f2227f8b200510,61036ee3df579df350590be2,2021-07-29_23h17.51.694,Simcolourproject_2stim_asymm_v5,2020.2.10,Win32,60,61025ae37ef11b136ea224fe,,,,,,,,,222,47,-25,1,0,0,response3disk,,5,-3,-11,1,0,0,rectangle,-3,-11,1,0,0,-3,-11,1,0,0,0,46,46,111,1,,,,,,,,
,,,,,,,,,,,,,FF,,,,,,,,2.8242,,,,,,,,,,,,,,,,,,,,,,60ff8160e8f2227f8b200510,61036ee3df579df350590be2,2021-07-29_23h17.51.694,Simcolourproject_2stim_asymm_v5,2020.2.10,Win32,60,61025ae37ef11b136ea224fe,,,,,,,,,1946,71,22,1,0,0,response1disk,,6,-19,-7,1,0,0,rectangle,-19,-7,1,0,0,-19,-7,1,0,0,0,47,47,35,1,,,,,,,,
,,,,,,,,,,,,,FF,,,,,,,,1.1364,,,,,,,,,,,,,,,,,,,,,,60ff8160e8f2227f8b200510,61036ee3df579df350590be2,2021-07-29_23h17.51.694,Simcolourproject_2stim_asymm_v5,2020.2.10,Win32,60,61025ae37ef11b136ea224fe,,,,,,,,,2687,108,47,1,0,0,response1disk,,6,-6,6,1,0,0,rectangle,-6,6,1,0,0,-6,6,1,0,0,0,48,48,125,1,,,,,,,,
,,,,,,,,,,,,,FF,,,,,,,,1.7887,,,,,,,,,,,,,,,,,,,,,,60ff8160e8f2227f8b200510,61036ee3df579df350590be2,2021-07-29_23h17.51.694,Simcolourproject_2stim_asymm_v5,2020.2.10,Win32,60,61025ae37ef11b136ea224fe,,,,,,,,,3305,-25,-82,1,0,0,response5disk,,3,6,8,1,0,0,rectangle,6,8,1,0,0,6,8,1,0,0,0,49,49,93,1,,,,,,,,
,,,,,,,,,,,,,FF,,,,,,,,3.778,,,,,,,,,,,,,,,,,,,,,,60ff8160e8f2227f8b200510,61036ee3df579df350590be2,2021-07-29_23h17.51.694,Simcolourproject_2stim_asymm_v5,2020.2.10,Win32,60,61025ae37ef11b136ea224fe,,,,,,,,,1159,-52,-87,1,0,0,response5disk,,3,-9,-9,1,0,0,rectangle,-9,-9,1,0,0,-9,-9,1,0,0,0,50,50,68,1,,,,,,,,
,,,,,,,,,,,,,FF,,,,,,,,1.3039,,,,,,,,,,,,,,,,,,,,,,60ff8160e8f2227f8b200510,61036ee3df579df350590be2,2021-07-29_23h17.51.694,Simcolourproject_2stim_asymm_v5,2020.2.10,Win32,60,61025ae37ef11b136ea224fe,,,,,,,,,3924,29,83,1,0,0,response1disk,,7,-3,-7,1,0,0,rectangle,-3,-7,1,0,0,-3,-7,1,0,0,0,51,51,147,1,,,,,,,,
,,,,,,,,,,,,,FF,,,,,,,,3.6987,,,,,,,,,,,,,,,,,,,,,,60ff8160e8f2227f8b200510,61036ee3df579df350590be2,2021-07-29_23h17.51.694,Simcolourproject_2stim_asymm_v5,2020.2.10,Win32,60,61025ae37ef11b136ea224fe,,,,,,,,,2222,38,-24,1,0,0,response3disk,,5,2,0,1,0,0,rectangle,2,0,1,0,0,2,0,1,0,0,0,52,52,106,1,,,,,,,,
,,,,,,,,,,,,,FF,,,,,,,,1.5555,,,,,,,,,,,,,,,,,,,,,,60ff8160e8f2227f8b200510,61036ee3df579df350590be2,2021-07-29_23h17.51.694,Simcolourproject_2stim_asymm_v5,2020.2.10,Win32,60,61025ae37ef11b136ea224fe,,,,,,,,,3786,39,71,1,0,0,response1disk,,7,4,11,1,0,0,rectangle,4,11,1,0,0,4,11,1,0,0,0,53,53,124,1,,,,,,,,
,,,,,,,,,,,,,FF,,,,,,,,2.6575,,,,,,,,,,,,,,,,,,,,,,60ff8160e8f2227f8b200510,61036ee3df579df350590be2,2021-07-29_23h17.51.694,Simcolourproject_2stim_asymm_v5,2020.2.10,Win32,60,61025ae37ef11b136ea224fe,,,,,,,,,1510,66,-31,1,0,0,response3disk,,5,12,1,1,0,0,rectangle,12,1,1,0,0,12,1,1,0,0,0,54,54,120,1,,,,,,,,
,,,,,,,,,,,,,FF,,,,,,,,1.0197,,,,,,,,,,,,,,,,,,,,,,60ff8160e8f2227f8b200510,61036ee3df579df350590be2,2021-07-29_23h17.51.694,Simcolourproject_2stim_asymm_v5,2020.2.10,Win32,60,61025ae37ef11b136ea224fe,,,,,,,,,3228,39,88,1,0,0,response1disk,,7,4,-11,1,0,0,rectangle,4,-11,1,0,0,4,-11,1,0,0,0,55,55,64,1,,,,,,,,
,,,,,,,,,,,,,FF,,,,,,,,3.1592,,,,,,,,,,,,,,,,,,,,,,60ff8160e8f2227f8b200510,61036ee3df579df350590be2,2021-07-29_23h17.51.694,Simcolourproject_2stim_asymm_v5,2020.2.10,Win32,60,61025ae37ef11b136ea224fe,,,,,,,,,552,25,-90,1,0,0,response3disk,,4,4,-1,1,0,0,rectangle,4,-1,1,0,0,4,-1,1,0,0,0,56,56,51,1,,,,,,,,
,,,,,,,,,,,,,FF,,,,,,,,1.4038,,,,,,,,,,,,,,,,,,,,,,60ff8160e8f2227f8b200510,61036ee3df579df350590be2,2021-07-29_23h17.51.694,Simcolourproject_2stim_asymm_v5,2020.2.10,Win32,60,61025ae37ef11b136ea224fe,,,,,,,,,2900,-50,-81,1,0,0,response5disk,,3,-3,-5,1,0,0,rectangle,-3,-5,1,0,0,-3,-5,1,0,0,0,57,57,126,1,,,,,,,,
,,,,,,,,,,,,,FF,,,,,,,,0.9704,,,,,,,,,,,,,,,,,,,,,,60ff8160e8f2227f8b200510,61036ee3df579df350590be2,2021-07-29_23h17.51.694,Simcolourproject_2stim_asymm_v5,2020.2.10,Win32,60,61025ae37ef11b136ea224fe,,,,,,,,,2836,-40,-71,1,0,0,response5disk,,3,7,-2,1,0,0,rectangle,-29,-62,1,0,0,9,5,1,0,0,0,58,58,144,1,,response5disk_3,TRUE,3,3,"[204,200,323,38,205,174,59,95,84,283,61,25,279,216,4,306,320,86,231,291]",1.0357,rectangle
,,,,,,,,,,,,,FF,,,,,,,,2.257,,,,,,,,,,,,,,,,,,,,,,60ff8160e8f2227f8b200510,61036ee3df579df350590be2,2021-07-29_23h17.51.694,Simcolourproject_2stim_asymm_v5,2020.2.10,Win32,60,61025ae37ef11b136ea224fe,,,,,,,,,1162,21,-102,1,0,0,response3disk,,4,-1,5,1,0,0,rectangle,-1,5,1,0,0,-1,5,1,0,0,0,59,59,72,1,,,,,,,,
,,,,,,,,,,,,,FF,,,,,,,,2.2399,,,,,,,,,,,,,,,,,,,,,,60ff8160e8f2227f8b200510,61036ee3df579df350590be2,2021-07-29_23h17.51.694,Simcolourproject_2stim_asymm_v5,2020.2.10,Win32,60,61025ae37ef11b136ea224fe,,,,,,,,,3272,78,34,1,0,0,response1disk,,6,11,-1,1,0,0,rectangle,52,-97,1,0,0,7,1,1,0,0,0,60,60,47,1,,response3disk_3,TRUE,4,4,"[204,200,323,38,205,174,59,95,84,283,61,25,279,216,4,306,320,86,231,291]",1.2365,rectangle
,,,,,,,,,,,,,FF,,,,,,,,1.671,,,,,,,,,,,,,,,,,,,,,,60ff8160e8f2227f8b200510,61036ee3df579df350590be2,2021-07-29_23h17.51.694,Simcolourproject_2stim_asymm_v5,2020.2.10,Win32,60,61025ae37ef11b136ea224fe,,,,,,,,,483,31,-84,1,0,0,response3disk,,4,-7,8,1,0,0,rectangle,-7,8,1,0,0,-7,8,1,0,0,0,61,61,74,1,,,,,,,,
,,,,,,,,,,,,,FF,,,,,,,,1.12,,,,,,,,,,,,,,,,,,,,,,60ff8160e8f2227f8b200510,61036ee3df579df350590be2,2021-07-29_23h17.51.694,Simcolourproject_2stim_asymm_v5,2020.2.10,Win32,60,61025ae37ef11b136ea224fe,,,,,,,,,2099,-66,-25,1,0,0,response5disk,,2,-10,9,1,0,0,rectangle,-10,9,1,0,0,-10,9,1,0,0,0,62,62,39,1,,,,,,,,
,,,,,,,,,,,,,FF,,,,,,,,3.7446,,,,,,,,,,,,,,,,,,,,,,60ff8160e8f2227f8b200510,61036ee3df579df350590be2,2021-07-29_23h17.51.694,Simcolourproject_2stim_asymm_v5,2020.2.10,Win32,60,61025ae37ef11b136ea224fe,,,,,,,,,2503,-44,-81,1,0,0,response5disk,,3,-20,8,1,0,0,rectangle,-20,8,1,0,0,-20,8,1,0,0,0,63,63,146,1,,,,,,,,
,,,,,,,,,,,,,FF,,,,,,,,1.0034,,,,,,,,,,,,,,,,,,,,,,60ff8160e8f2227f8b200510,61036ee3df579df350590be2,2021-07-29_23h17.51.694,Simcolourproject_2stim_asymm_v5,2020.2.10,Win32,60,61025ae37ef11b136ea224fe,,,,,,,,,2007,86,-36,1,0,0,response3disk,,5,-3,-6,1,0,0,rectangle,-3,-6,1,0,0,-3,-6,1,0,0,0,64,64,62,1,,,,,,,,
,,,,,,,,,,,,,FF,,,,,,,,1.2371,,,,,,,,,,,,,,,,,,,,,,60ff8160e8f2227f8b200510,61036ee3df579df350590be2,2021-07-29_23h17.51.694,Simcolourproject_2stim_asymm_v5,2020.2.10,Win32,60,61025ae37ef11b136ea224fe,,,,,,,,,1058,-58,-86,1,0,0,response5disk,,3,-10,12,1,0,0,rectangle,-10,12,1,0,0,-10,12,1,0,0,0,65,65,136,1,,,,,,,,
,,,,,,,,,,,,,FF,,,,,,,,3.0582,,,,,,,,,,,,,,,,,,,,,,60ff8160e8f2227f8b200510,61036ee3df579df350590be2,2021-07-29_23h17.51.694,Simcolourproject_2stim_asymm_v5,2020.2.10,Win32,60,61025ae37ef11b136ea224fe,,,,,,,,,3565,-39,-73,1,0,0,response5disk,,3,-7,2,1,0,0,rectangle,-7,2,1,0,0,-7,2,1,0,0,0,66,66,9,1,,,,,,,,
,,,,,,,,,,,,,FF,,,,,,,,1.2538,,,,,,,,,,,,,,,,,,,,,,60ff8160e8f2227f8b200510,61036ee3df579df350590be2,2021-07-29_23h17.51.694,Simcolourproject_2stim_asymm_v5,2020.2.10,Win32,60,61025ae37ef11b136ea224fe,,,,,,,,,68,62,37,1,0,0,response1disk,,6,6,5,1,0,0,rectangle,6,5,1,0,0,6,5,1,0,0,0,67,67,57,1,,,,,,,,
,,,,,,,,,,,,,FF,,,,,,,,1.7557,,,,,,,,,,,,,,,,,,,,,,60ff8160e8f2227f8b200510,61036ee3df579df350590be2,2021-07-29_23h17.51.694,Simcolourproject_2stim_asymm_v5,2020.2.10,Win32,60,61025ae37ef11b136ea224fe,,,,,,,,,879,56,-43,1,0,0,response3disk,,5,-7,0,1,0,0,rectangle,-7,0,1,0,0,-7,0,1,0,0,0,68,68,14,1,,,,,,,,
,,,,,,,,,,,,,FF,,,,,,,,2.5869,,,,,,,,,,,,,,,,,,,,,,60ff8160e8f2227f8b200510,61036ee3df579df350590be2,2021-07-29_23h17.51.694,Simcolourproject_2stim_asymm_v5,2020.2.10,Win32,60,61025ae37ef11b136ea224fe,,,,,,,,,3026,68,-22,1,0,0,response3disk,,5,11,5,1,0,0,rectangle,11,5,1,0,0,11,5,1,0,0,0,69,69,30,1,,,,,,,,
,,,,,,,,,,,,,FF,,,,,,,,1.0035,,,,,,,,,,,,,,,,,,,,,,60ff8160e8f2227f8b200510,61036ee3df579df350590be2,2021-07-29_23h17.51.694,Simcolourproject_2stim_asymm_v5,2020.2.10,Win32,60,61025ae37ef11b136ea224fe,,,,,,,,,3341,-58,-89,1,0,0,response5disk,,3,-10,11,1,0,0,rectangle,-10,11,1,0,0,-10,11,1,0,0,0,70,70,117,1,,,,,,,,
,,,,,,,,,,,,,FF,,,,,,,,1.8741,,,,,,,,,,,,,,,,,,,,,,60ff8160e8f2227f8b200510,61036ee3df579df350590be2,2021-07-29_23h17.51.694,Simcolourproject_2stim_asymm_v5,2020.2.10,Win32,60,61025ae37ef11b136ea224fe,,,,,,,,,2566,49,-75,1,0,0,response3disk,,4,5,-4,1,0,0,rectangle,5,-4,1,0,0,5,-4,1,0,0,0,71,71,80,1,,,,,,,,
,,,,,,,,,,,,,FF,,,,,,,,4.0916,,,,,,,,,,,,,,,,,,,,,,60ff8160e8f2227f8b200510,61036ee3df579df350590be2,2021-07-29_23h17.51.694,Simcolourproject_2stim_asymm_v5,2020.2.10,Win32,60,61025ae37ef11b136ea224fe,,,,,,,,,3061,44,-62,1,0,0,response3disk,,4,-10,2,1,0,0,rectangle,-10,2,1,0,0,-10,2,1,0,0,0,72,72,112,1,,,,,,,,
,,,,,,,,,,,,,FF,,,,,,,,3.9616,,,,,,,,,,,,,,,,,,,,,,60ff8160e8f2227f8b200510,61036ee3df579df350590be2,2021-07-29_23h17.51.694,Simcolourproject_2stim_asymm_v5,2020.2.10,Win32,60,61025ae37ef11b136ea224fe,,,,,,,,,2714,63,-27,1,0,0,response3disk,,5,-3,7,1,0,0,rectangle,-3,7,1,0,0,-3,7,1,0,0,0,73,73,36,1,,,,,,,,
,,,,,,,,,,,,,FF,,,,,,,,1.6216,,,,,,,,,,,,,,,,,,,,,,60ff8160e8f2227f8b200510,61036ee3df579df350590be2,2021-07-29_23h17.51.694,Simcolourproject_2stim_asymm_v5,2020.2.10,Win32,60,61025ae37ef11b136ea224fe,,,,,,,,,3873,72,-42,1,0,0,response3disk,,5,2,-1,1,0,0,rectangle,2,-1,1,0,0,2,-1,1,0,0,0,74,74,77,1,,,,,,,,
,,,,,,,,,,,,,FF,,,,,,,,1.6547,,,,,,,,,,,,,,,,,,,,,,60ff8160e8f2227f8b200510,61036ee3df579df350590be2,2021-07-29_23h17.51.694,Simcolourproject_2stim_asymm_v5,2020.2.10,Win32,60,61025ae37ef11b136ea224fe,,,,,,,,,742,27,-98,1,0,0,response3disk,,4,-3,-3,1,0,0,rectangle,-3,-3,1,0,0,-3,-3,1,0,0,0,75,75,54,1,,,,,,,,
,,,,,,,,,,,,,FF,,,,,,,,1.2202,,,,,,,,,,,,,,,,,,,,,,60ff8160e8f2227f8b200510,61036ee3df579df350590be2,2021-07-29_23h17.51.694,Simcolourproject_2stim_asymm_v5,2020.2.10,Win32,60,61025ae37ef11b136ea224fe,,,,,,,,,79,-74,-29,1,0,0,response5disk,,2,-3,-8,1,0,0,rectangle,-3,-8,1,0,0,-3,-8,1,0,0,0,76,76,89,1,,,,,,,,
,,,,,,,,,,,,,FF,,,,,,,,1.688,,,,,,,,,,,,,,,,,,,,,,60ff8160e8f2227f8b200510,61036ee3df579df350590be2,2021-07-29_23h17.51.694,Simcolourproject_2stim_asymm_v5,2020.2.10,Win32,60,61025ae37ef11b136ea224fe,,,,,,,,,270,73,-38,1,0,0,response3disk,,5,-13,-6,1,0,0,rectangle,-13,-6,1,0,0,-13,-6,1,0,0,0,77,77,42,1,,,,,,,,
,,,,,,,,,,,,,FF,,,,,,,,2.2733,,,,,,,,,,,,,,,,,,,,,,60ff8160e8f2227f8b200510,61036ee3df579df350590be2,2021-07-29_23h17.51.694,Simcolourproject_2stim_asymm_v5,2020.2.10,Win32,60,61025ae37ef11b136ea224fe,,,,,,,,,1736,78,-46,1,0,0,response3disk,,5,-1,-5,1,0,0,rectangle,-1,-5,1,0,0,-1,-5,1,0,0,0,78,78,95,1,,,,,,,,
,,,,,,,,,,,,,FF,,,,,,,,2.0558,,,,,,,,,,,,,,,,,,,,,,60ff8160e8f2227f8b200510,61036ee3df579df350590be2,2021-07-29_23h17.51.694,Simcolourproject_2stim_asymm_v5,2020.2.10,Win32,60,61025ae37ef11b136ea224fe,,,,,,,,,1638,36,71,1,0,0,response1disk,,7,-4,-3,1,0,0,rectangle,-4,-3,1,0,0,-4,-3,1,0,0,0,79,79,149,1,,,,,,,,
,,,,,,,,,,,,,FF,,,,,,,,1.7735,,,,,,,,,,,,,,,,,,,,,,60ff8160e8f2227f8b200510,61036ee3df579df350590be2,2021-07-29_23h17.51.694,Simcolourproject_2stim_asymm_v5,2020.2.10,Win32,60,61025ae37ef11b136ea224fe,,,,,,,,,3753,48,-96,1,0,0,response3disk,,4,5,15,1,0,0,rectangle,5,15,1,0,0,5,15,1,0,0,0,80,80,45,1,,,,,,,,
,,,,,,,,,,,,,FF,,,,,,,,2.0559,,,,,,,,,,,,,,,,,,,,,,60ff8160e8f2227f8b200510,61036ee3df579df350590be2,2021-07-29_23h17.51.694,Simcolourproject_2stim_asymm_v5,2020.2.10,Win32,60,61025ae37ef11b136ea224fe,,,,,,,,,3004,-60,-99,1,0,0,response5disk,,3,2,-8,1,0,0,rectangle,2,-8,1,0,0,2,-8,1,0,0,0,81,81,123,1,,,,,,,,
,,,,,,,,,,,,,FF,,,,,,,,2.223,,,,,,,,,,,,,,,,,,,,,,60ff8160e8f2227f8b200510,61036ee3df579df350590be2,2021-07-29_23h17.51.694,Simcolourproject_2stim_asymm_v5,2020.2.10,Win32,60,61025ae37ef11b136ea224fe,,,,,,,,,3453,107,-35,1,0,0,response3disk,,5,-10,-3,1,0,0,rectangle,-10,-3,1,0,0,-10,-3,1,0,0,0,82,82,134,1,,,,,,,,
,,,,,,,,,,,,,FF,,,,,,,,1.1537,,,,,,,,,,,,,,,,,,,,,,60ff8160e8f2227f8b200510,61036ee3df579df350590be2,2021-07-29_23h17.51.694,Simcolourproject_2stim_asymm_v5,2020.2.10,Win32,60,61025ae37ef11b136ea224fe,,,,,,,,,3558,-63,-81,1,0,0,response5disk,,3,-13,4,1,0,0,rectangle,-23,65,1,0,0,2,-4,1,0,0,0,83,83,150,1,,response7disk_3,TRUE,0,0,"[204,200,323,38,205,174,59,95,84,283,61,25,279,216,4,306,320,86,231,291]",1.2705,rectangle
,,,,,,,,,,,,,FF,,,,,,,,1.5877,,,,,,,,,,,,,,,,,,,,,,60ff8160e8f2227f8b200510,61036ee3df579df350590be2,2021-07-29_23h17.51.694,Simcolourproject_2stim_asymm_v5,2020.2.10,Win32,60,61025ae37ef11b136ea224fe,,,,,,,,,410,45,-38,1,0,0,response3disk,,5,-2,-9,1,0,0,rectangle,-2,-9,1,0,0,-2,-9,1,0,0,0,84,84,108,1,,,,,,,,
,,,,,,,,,,,,,FF,,,,,,,,2.0894,,,,,,,,,,,,,,,,,,,,,,60ff8160e8f2227f8b200510,61036ee3df579df350590be2,2021-07-29_23h17.51.694,Simcolourproject_2stim_asymm_v5,2020.2.10,Win32,60,61025ae37ef11b136ea224fe,,,,,,,,,280,26,71,1,0,0,response1disk,,7,-11,4,1,0,0,rectangle,-69,-35,1,0,0,1,-2,1,0,0,0,85,85,16,1,,response5disk_3,TRUE,2,2,"[204,200,323,38,205,174,59,95,84,283,61,25,279,216,4,306,320,86,231,291]",1.5877,rectangle
,,,,,,,,,,,,,FF,,,,,,,,2.7748,,,,,,,,,,,,,,,,,,,,,,60ff8160e8f2227f8b200510,61036ee3df579df350590be2,2021-07-29_23h17.51.694,Simcolourproject_2stim_asymm_v5,2020.2.10,Win32,60,61025ae37ef11b136ea224fe,,,,,,,,,1043,66,-85,1,0,0,response3disk,,4,3,0,1,0,0,rectangle,3,0,1,0,0,3,0,1,0,0,0,86,86,48,1,,,,,,,,
,,,,,,,,,,,,,FF,,,,,,,,1.3372,,,,,,,,,,,,,,,,,,,,,,60ff8160e8f2227f8b200510,61036ee3df579df350590be2,2021-07-29_23h17.51.694,Simcolourproject_2stim_asymm_v5,2020.2.10,Win32,60,61025ae37ef11b136ea224fe,,,,,,,,,3665,73,48,1,0,0,response1disk,,6,-3,13,1,0,0,rectangle,-3,13,1,0,0,-3,13,1,0,0,0,87,87,128,1,,,,,,,,
,,,,,,,,,,,,,FF,,,,,,,,4.2953,,,,,,,,,,,,,,,,,,,,,,60ff8160e8f2227f8b200510,61036ee3df579df350590be2,2021-07-29_23h17.51.694,Simcolourproject_2stim_asymm_v5,2020.2.10,Win32,60,61025ae37ef11b136ea224fe,,,,,,,,,1969,29,-77,1,0,0,response3disk,,4,4,-7,1,0,0,rectangle,4,-7,1,0,0,4,-7,1,0,0,0,88,88,22,1,,,,,,,,
,,,,,,,,,,,,,FF,,,,,,,,0.9194,,,,,,,,,,,,,,,,,,,,,,60ff8160e8f2227f8b200510,61036ee3df579df350590be2,2021-07-29_23h17.51.694,Simcolourproject_2stim_asymm_v5,2020.2.10,Win32,60,61025ae37ef11b136ea224fe,,,,,,,,,3697,57,82,1,0,0,response1disk,,7,6,12,1,0,0,rectangle,6,12,1,0,0,6,12,1,0,0,0,89,89,154,1,,,,,,,,
,,,,,,,,,,,,,FF,,,,,,,,1.7385,,,,,,,,,,,,,,,,,,,,,,60ff8160e8f2227f8b200510,61036ee3df579df350590be2,2021-07-29_23h17.51.694,Simcolourproject_2stim_asymm_v5,2020.2.10,Win32,60,61025ae37ef11b136ea224fe,,,,,,,,,1641,65,-56,1,0,0,response3disk,,5,22,2,1,0,0,rectangle,22,2,1,0,0,22,2,1,0,0,0,90,90,55,1,,,,,,,,
,,,,,,,,,,,,,FF,,,,,,,,1.521,,,,,,,,,,,,,,,,,,,,,,60ff8160e8f2227f8b200510,61036ee3df579df350590be2,2021-07-29_23h17.51.694,Simcolourproject_2stim_asymm_v5,2020.2.10,Win32,60,61025ae37ef11b136ea224fe,,,,,,,,,2053,50,-102,1,0,0,response3disk,,4,2,-3,1,0,0,rectangle,2,-3,1,0,0,2,-3,1,0,0,0,91,91,69,1,,,,,,,,
,,,,,,,,,,,,,FF,,,,,,,,4.3128,,,,,,,,,,,,,,,,,,,,,,60ff8160e8f2227f8b200510,61036ee3df579df350590be2,2021-07-29_23h17.51.694,Simcolourproject_2stim_asymm_v5,2020.2.10,Win32,60,61025ae37ef11b136ea224fe,,,,,,,,,499,44,97,1,0,0,response1disk,,7,0,-7,1,0,0,rectangle,0,-7,1,0,0,0,-7,1,0,0,0,92,92,60,1,,,,,,,,
,,,,,,,,,,,,,FF,,,,,,,,4.045,,,,,,,,,,,,,,,,,,,,,,60ff8160e8f2227f8b200510,61036ee3df579df350590be2,2021-07-29_23h17.51.694,Simcolourproject_2stim_asymm_v5,2020.2.10,Win32,60,61025ae37ef11b136ea224fe,,,,,,,,,1234,60,-95,1,0,0,response3disk,,4,12,-6,1,0,0,rectangle,12,-6,1,0,0,12,-6,1,0,0,0,93,93,158,1,,,,,,,,
,,,,,,,,,,,,,FF,,,,,,,,1.2365,,,,,,,,,,,,,,,,,,,,,,60ff8160e8f2227f8b200510,61036ee3df579df350590be2,2021-07-29_23h17.51.694,Simcolourproject_2stim_asymm_v5,2020.2.10,Win32,60,61025ae37ef11b136ea224fe,,,,,,,,,2611,-38,-105,1,0,0,response5disk,,3,-8,5,1,0,0,rectangle,-90,-51,1,0,0,16,-1,1,0,0,0,94,94,49,1,,response5disk_3,TRUE,2,2,"[204,200,323,38,205,174,59,95,84,283,61,25,279,216,4,306,320,86,231,291]",1.6549,rectangle
,,,,,,,,,,,,,FF,,,,,,,,2.2902,,,,,,,,,,,,,,,,,,,,,,60ff8160e8f2227f8b200510,61036ee3df579df350590be2,2021-07-29_23h17.51.694,Simcolourproject_2stim_asymm_v5,2020.2.10,Win32,60,61025ae37ef11b136ea224fe,,,,,,,,,852,74,-94,1,0,0,response3disk,,4,5,-1,1,0,0,rectangle,5,-1,1,0,0,5,-1,1,0,0,0,95,95,17,1,,,,,,,,
,,,,,,,,,,,,,FF,,,,,,,,2.6415,,,,,,,,,,,,,,,,,,,,,,60ff8160e8f2227f8b200510,61036ee3df579df350590be2,2021-07-29_23h17.51.694,Simcolourproject_2stim_asymm_v5,2020.2.10,Win32,60,61025ae37ef11b136ea224fe,,,,,,,,,1578,58,47,1,0,0,response1disk,,6,11,5,1,0,0,rectangle,11,5,1,0,0,11,5,1,0,0,0,96,96,157,1,,,,,,,,
,,,,,,,,,,,,,FF,,,,,,,,1.2202,,,,,,,,,,,,,,,,,,,,,,60ff8160e8f2227f8b200510,61036ee3df579df350590be2,2021-07-29_23h17.51.694,Simcolourproject_2stim_asymm_v5,2020.2.10,Win32,60,61025ae37ef11b136ea224fe,,,,,,,,,1997,47,69,1,0,0,response1disk,,7,13,3,1,0,0,rectangle,13,3,1,0,0,13,3,1,0,0,0,97,97,88,1,,,,,,,,
,,,,,,,,,,,,,FF,,,,,,,,1.6715,,,,,,,,,,,,,,,,,,,,,,60ff8160e8f2227f8b200510,61036ee3df579df350590be2,2021-07-29_23h17.51.694,Simcolourproject_2stim_asymm_v5,2020.2.10,Win32,60,61025ae37ef11b136ea224fe,,,,,,,,,1794,50,79,1,0,0,response1disk,,7,26,10,1,0,0,rectangle,26,10,1,0,0,26,10,1,0,0,0,98,98,151,1,,,,,,,,
,,,,,,,,,,,,,FF,,,,,,,,1.1542,,,,,,,,,,,,,,,,,,,,,,60ff8160e8f2227f8b200510,61036ee3df579df350590be2,2021-07-29_23h17.51.694,Simcolourproject_2stim_asymm_v5,2020.2.10,Win32,60,61025ae37ef11b136ea224fe,,,,,,,,,2282,19,92,1,0,0,response1disk,,7,6,6,1,0,0,rectangle,6,6,1,0,0,6,6,1,0,0,0,99,99,19,1,,,,,,,,
,,,,,,,,,,,,,FF,,,,,,,,3.0256,,,,,,,,,,,,,,,,,,,,,,60ff8160e8f2227f8b200510,61036ee3df579df350590be2,2021-07-29_23h17.51.694,Simcolourproject_2stim_asymm_v5,2020.2.10,Win32,60,61025ae37ef11b136ea224fe,,,,,,,,,3442,62,45,1,0,0,response1disk,,6,7,6,1,0,0,rectangle,7,6,1,0,0,7,6,1,0,0,0,100,100,23,1,,,,,,,,
,,,,,,,,,,,,,FF,,,,,,,,2.7412,,,,,,,,,,,,,,,,,,,,,,60ff8160e8f2227f8b200510,61036ee3df579df350590be2,2021-07-29_23h17.51.694,Simcolourproject_2stim_asymm_v5,2020.2.10,Win32,60,61025ae37ef11b136ea224fe,,,,,,,,,2427,-20,-95,1,0,0,response5disk,,3,4,4,1,0,0,rectangle,4,4,1,0,0,4,4,1,0,0,0,101,101,10,1,,,,,,,,
,,,,,,,,,,,,,FF,,,,,,,,2.6073,,,,,,,,,,,,,,,,,,,,,,60ff8160e8f2227f8b200510,61036ee3df579df350590be2,2021-07-29_23h17.51.694,Simcolourproject_2stim_asymm_v5,2020.2.10,Win32,60,61025ae37ef11b136ea224fe,,,,,,,,,2858,66,-42,1,0,0,response3disk,,5,11,-8,1,0,0,rectangle,11,-8,1,0,0,11,-8,1,0,0,0,102,102,91,1,,,,,,,,
,,,,,,,,,,,,,FF,,,,,,,,1.9889,,,,,,,,,,,,,,,,,,,,,,60ff8160e8f2227f8b200510,61036ee3df579df350590be2,2021-07-29_23h17.51.694,Simcolourproject_2stim_asymm_v5,2020.2.10,Win32,60,61025ae37ef11b136ea224fe,,,,,,,,,4312,59,32,1,0,0,response1disk,,6,11,2,1,0,0,rectangle,11,2,1,0,0,11,2,1,0,0,0,103,103,103,1,,,,,,,,
,,,,,,,,,,,,,FF,,,,,,,,1.688,,,,,,,,,,,,,,,,,,,,,,60ff8160e8f2227f8b200510,61036ee3df579df350590be2,2021-07-29_23h17.51.694,Simcolourproject_2stim_asymm_v5,2020.2.10,Win32,60,61025ae37ef11b136ea224fe,,,,,,,,,542,29,64,1,0,0,response1disk,,7,5,-10,1,0,0,rectangle,5,-10,1,0,0,5,-10,1,0,0,0,104,104,75,1,,,,,,,,
,,,,,,,,,,,,,FF,,,,,,,,2.6745,,,,,,,,,,,,,,,,,,,,,,60ff8160e8f2227f8b200510,61036ee3df579df350590be2,2021-07-29_23h17.51.694,Simcolourproject_2stim_asymm_v5,2020.2.10,Win32,60,61025ae37ef11b136ea224fe,,,,,,,,,3034,63,44,1,0,0,response1disk,,6,-11,-2,1,0,0,rectangle,-11,-2,1,0,0,-11,-2,1,0,0,0,105,105,6,1,,,,,,,,
,,,,,,,,,,,,,FF,,,,,,,,2.2563,,,,,,,,,,,,,,,,,,,,,,60ff8160e8f2227f8b200510,61036ee3df579df350590be2,2021-07-29_23h17.51.694,Simcolourproject_2stim_asymm_v5,2020.2.10,Win32,60,61025ae37ef11b136ea224fe,,,,,,,,,1789,66,-24,1,0,0,response3disk,,5,-2,-7,1,0,0,rectangle,-2,-7,1,0,0,-2,-7,1,0,0,0,106,106,41,1,,,,,,,,
,,,,,,,,,,,,,FF,,,,,,,,1.5754,,,,,,,,,,,,,,,,,,,,,,60ff8160e8f2227f8b200510,61036ee3df579df350590be2,2021-07-29_23h17.51.694,Simcolourproject_2stim_asymm_v5,2020.2.10,Win32,60,61025ae37ef11b136ea224fe,,,,,,,,,3075,51,-23,1,0,0,response3disk,,5,8,-3,1,0,0,rectangle,8,-3,1,0,0,8,-3,1,0,0,0,107,107,135,1,,,,,,,,
,,,,,,,,,,,,,FF,,,,,,,,1.3374,,,,,,,,,,,,,,,,,,,,,,60ff8160e8f2227f8b200510,61036ee3df579df350590be2,2021-07-29_23h17.51.694,Simcolourproject_2stim_asymm_v5,2020.2.10,Win32,60,61025ae37ef11b136ea224fe,,,,,,,,,810,60,-81,1,0,0,response3disk,,4,2,-4,1,0,0,rectangle,2,-4,1,0,0,2,-4,1,0,0,0,108,108,156,1,,,,,,,,
,,,,,,,,,,,,,FF,,,,,,,,0.8838,,,,,,,,,,,,,,,,,,,,,,60ff8160e8f2227f8b200510,61036ee3df579df350590be2,2021-07-29_23h17.51.694,Simcolourproject_2stim_asymm_v5,2020.2.10,Win32,60,61025ae37ef11b136ea224fe,,,,,,,,,2951,-48,-84,1,0,0,response5disk,,3,-7,-4,1,0,0,rectangle,-7,-4,1,0,0,-7,-4,1,0,0,0,109,109,130,1,,,,,,,,
,,,,,,,,,,,,,FF,,,,,,,,2.1926,,,,,,,,,,,,,,,,,,,,,,60ff8160e8f2227f8b200510,61036ee3df579df350590be2,2021-07-29_23h17.51.694,Simcolourproject_2stim_asymm_v5,2020.2.10,Win32,60,61025ae37ef11b136ea224fe,,,,,,,,,2072,58,-79,1,0,0,response3disk,,4,-2,-8,1,0,0,rectangle,-2,-8,1,0,0,-2,-8,1,0,0,0,110,110,141,1,,,,,,,,
,,,,,,,,,,,,,FF,,,,,,,,3.0941,,,,,,,,,,,,,,,,,,,,,,60ff8160e8f2227f8b200510,61036ee3df579df350590be2,2021-07-29_23h17.51.694,Simcolourproject_2stim_asymm_v5,2020.2.10,Win32,60,61025ae37ef11b136ea224fe,,,,,,,,,535,48,-80,1,0,0,response3disk,,4,15,1,1,0,0,rectangle,15,1,1,0,0,15,1,1,0,0,0,111,111,99,1,,,,,,,,
,,,,,,,,,,,,,FF,,,,,,,,4.0281,,,,,,,,,,,,,,,,,,,,,,60ff8160e8f2227f8b200510,61036ee3df579df350590be2,2021-07-29_23h17.51.694,Simcolourproject_2stim_asymm_v5,2020.2.10,Win32,60,61025ae37ef11b136ea224fe,,,,,,,,,4137,64,27,1,0,0,response1disk,,6,-3,13,1,0,0,rectangle,-3,13,1,0,0,-3,13,1,0,0,0,112,112,83,1,,,,,,,,
,,,,,,,,,,,,,FF,,,,,,,,1.2694,,,,,,,,,,,,,,,,,,,,,,60ff8160e8f2227f8b200510,61036ee3df579df350590be2,2021-07-29_23h17.51.694,Simcolourproject_2stim_asymm_v5,2020.2.10,Win32,60,61025ae37ef11b136ea224fe,,,,,,,,,1374,32,-66,1,0,0,response3disk,,4,-5,2,1,0,0,rectangle,-5,2,1,0,0,-5,2,1,0,0,0,113,113,33,1,,,,,,,,
,,,,,,,,,,,,,FF,,,,,,,,1.2533,,,,,,,,,,,,,,,,,,,,,,60ff8160e8f2227f8b200510,61036ee3df579df350590be2,2021-07-29_23h17.51.694,Simcolourproject_2stim_asymm_v5,2020.2.10,Win32,60,61025ae37ef11b136ea224fe,,,,,,,,,629,70,32,1,0,0,response1disk,,6,19,2,1,0,0,rectangle,19,2,1,0,0,19,2,1,0,0,0,114,114,27,1,,,,,,,,
,,,,,,,,,,,,,FF,,,,,,,,1.0533,,,,,,,,,,,,,,,,,,,,,,60ff8160e8f2227f8b200510,61036ee3df579df350590be2,2021-07-29_23h17.51.694,Simcolourproject_2stim_asymm_v5,2020.2.10,Win32,60,61025ae37ef11b136ea224fe,,,,,,,,,1784,51,109,1,0,0,response1disk,,7,8,7,1,0,0,rectangle,8,7,1,0,0,8,7,1,0,0,0,115,115,25,1,,,,,,,,
,,,,,,,,,,,,,FF,,,,,,,,1.2701,,,,,,,,,,,,,,,,,,,,,,60ff8160e8f2227f8b200510,61036ee3df579df350590be2,2021-07-29_23h17.51.694,Simcolourproject_2stim_asymm_v5,2020.2.10,Win32,60,61025ae37ef11b136ea224fe,,,,,,,,,367,56,-72,1,0,0,response3disk,,4,11,3,1,0,0,rectangle,11,3,1,0,0,11,3,1,0,0,0,116,116,96,1,,,,,,,,
,,,,,,,,,,,,,FF,,,,,,,,4.8972,,,,,,,,,,,,,,,,,,,,,,60ff8160e8f2227f8b200510,61036ee3df579df350590be2,2021-07-29_23h17.51.694,Simcolourproject_2stim_asymm_v5,2020.2.10,Win32,60,61025ae37ef11b136ea224fe,,,,,,,,,3574,36,-55,1,0,0,response3disk,,4,17,-4,1,0,0,rectangle,17,-4,1,0,0,17,-4,1,0,0,0,117,117,28,1,,,,,,,,
,,,,,,,,,,,,,FF,,,,,,,,1.5381,,,,,,,,,,,,,,,,,,,,,,60ff8160e8f2227f8b200510,61036ee3df579df350590be2,2021-07-29_23h17.51.694,Simcolourproject_2stim_asymm_v5,2020.2.10,Win32,60,61025ae37ef11b136ea224fe,,,,,,,,,2501,56,-39,1,0,0,response3disk,,5,-10,-5,1,0,0,rectangle,-10,-5,1,0,0,-10,-5,1,0,0,0,118,118,2,1,,,,,,,,
,,,,,,,,,,,,,FF,,,,,,,,1.2035,,,,,,,,,,,,,,,,,,,,,,60ff8160e8f2227f8b200510,61036ee3df579df350590be2,2021-07-29_23h17.51.694,Simcolourproject_2stim_asymm_v5,2020.2.10,Win32,60,61025ae37ef11b136ea224fe,,,,,,,,,2336,29,70,1,0,0,response1disk,,7,6,-3,1,0,0,rectangle,6,-3,1,0,0,6,-3,1,0,0,0,119,119,127,1,,,,,,,,
,,,,,,,,,,,,,FF,,,,,,,,0.6354,,,,,,,,,,,,,,,,,,,,,,60ff8160e8f2227f8b200510,61036ee3df579df350590be2,2021-07-29_23h17.51.694,Simcolourproject_2stim_asymm_v5,2020.2.10,Win32,60,61025ae37ef11b136ea224fe,,,,,,,,,2644,70,27,1,0,0,response1disk,,6,17,6,1,0,0,rectangle,17,6,1,0,0,17,6,1,0,0,0,120,120,1,1,,,,,,,,
,,,,,,,,,,,,,FF,,,,,,,,2.9582,,,,,,,,,,,,,,,,,,,,,,60ff8160e8f2227f8b200510,61036ee3df579df350590be2,2021-07-29_23h17.51.694,Simcolourproject_2stim_asymm_v5,2020.2.10,Win32,60,61025ae37ef11b136ea224fe,,,,,,,,,258,63,25,1,0,0,response1disk,,6,3,4,1,0,0,rectangle,3,4,1,0,0,3,4,1,0,0,0,121,121,107,1,,,,,,,,
,,,,,,,,,,,,,FF,,,,,,,,1.0365,,,,,,,,,,,,,,,,,,,,,,60ff8160e8f2227f8b200510,61036ee3df579df350590be2,2021-07-29_23h17.51.694,Simcolourproject_2stim_asymm_v5,2020.2.10,Win32,60,61025ae37ef11b136ea224fe,,,,,,,,,526,17,75,1,0,0,response1disk,,7,-6,5,1,0,0,rectangle,-6,5,1,0,0,-6,5,1,0,0,0,122,122,31,1,,,,,,,,
,,,,,,,,,,,,,FF,,,,,,,,1.8383,,,,,,,,,,,,,,,,,,,,,,60ff8160e8f2227f8b200510,61036ee3df579df350590be2,2021-07-29_23h17.51.694,Simcolourproject_2stim_asymm_v5,2020.2.10,Win32,60,61025ae37ef11b136ea224fe,,,,,,,,,4307,61,39,1,0,0,response1disk,,6,13,1,1,0,0,rectangle,13,1,1,0,0,13,1,1,0,0,0,123,123,46,1,,,,,,,,
,,,,,,,,,,,,,FF,,,,,,,,1.0029,,,,,,,,,,,,,,,,,,,,,,60ff8160e8f2227f8b200510,61036ee3df579df350590be2,2021-07-29_23h17.51.694,Simcolourproject_2stim_asymm_v5,2020.2.10,Win32,60,61025ae37ef11b136ea224fe,,,,,,,,,299,59,69,1,0,0,response1disk,,7,27,-3,1,0,0,rectangle,27,-3,1,0,0,27,-3,1,0,0,0,124,124,34,1,,,,,,,,
,,,,,,,,,,,,,FF,,,,,,,,0.6512,,,,,,,,,,,,,,,,,,,,,,60ff8160e8f2227f8b200510,61036ee3df579df350590be2,2021-07-29_23h17.51.694,Simcolourproject_2stim_asymm_v5,2020.2.10,Win32,60,61025ae37ef11b136ea224fe,,,,,,,,,130,60,25,1,0,0,response1disk,,6,24,4,1,0,0,rectangle,24,4,1,0,0,24,4,1,0,0,0,125,125,61,1,,,,,,,,
,,,,,,,,,,,,,FF,,,,,,,,1.1195,,,,,,,,,,,,,,,,,,,,,,60ff8160e8f2227f8b200510,61036ee3df579df350590be2,2021-07-29_23h17.51.694,Simcolourproject_2stim_asymm_v5,2020.2.10,Win32,60,61025ae37ef11b136ea224fe,,,,,,,,,2977,85,36,1,0,0,response1disk,,6,23,10,1,0,0,rectangle,23,10,1,0,0,23,10,1,0,0,0,126,126,116,1,,,,,,,,
,,,,,,,,,,,,,FF,,,,,,,,2.8414,,,,,,,,,,,,,,,,,,,,,,60ff8160e8f2227f8b200510,61036ee3df579df350590be2,2021-07-29_23h17.51.694,Simcolourproject_2stim_asymm_v5,2020.2.10,Win32,60,61025ae37ef11b136ea224fe,,,,,,,,,694,75,-30,1,0,0,response3disk,,5,25,3,1,0,0,rectangle,25,3,1,0,0,25,3,1,0,0,0,127,127,43,1,,,,,,,,
,,,,,,,,,,,,,FF,,,,,,,,2.1903,,,,,,,,,,,,,,,,,,,,,,60ff8160e8f2227f8b200510,61036ee3df579df350590be2,2021-07-29_23h17.51.694,Simcolourproject_2stim_asymm_v5,2020.2.10,Win32,60,61025ae37ef11b136ea224fe,,,,,,,,,641,48,-85,1,0,0,response3disk,,4,10,-2,1,0,0,rectangle,10,-2,1,0,0,10,-2,1,0,0,0,128,128,15,1,,,,,,,,
,,,,,,,,,,,,,FF,,,,,,,,1.939,,,,,,,,,,,,,,,,,,,,,,60ff8160e8f2227f8b200510,61036ee3df579df350590be2,2021-07-29_23h17.51.694,Simcolourproject_2stim_asymm_v5,2020.2.10,Win32,60,61025ae37ef11b136ea224fe,,,,,,,,,1302,84,-64,1,0,0,response3disk,,5,9,-2,1,0,0,rectangle,9,-2,1,0,0,9,-2,1,0,0,0,129,129,159,1,,,,,,,,
,,,,,,,,,,,,,FF,,,,,,,,2.3069,,,,,,,,,,,,,,,,,,,,,,60ff8160e8f2227f8b200510,61036ee3df579df350590be2,2021-07-29_23h17.51.694,Simcolourproject_2stim_asymm_v5,2020.2.10,Win32,60,61025ae37ef11b136ea224fe,,,,,,,,,2256,93,-51,1,0,0,response3disk,,5,15,-4,1,0,0,rectangle,15,-4,1,0,0,15,-4,1,0,0,0,130,130,59,1,,,,,,,,
,,,,,,,,,,,,,FF,,,,,,,,1.1873,,,,,,,,,,,,,,,,,,,,,,60ff8160e8f2227f8b200510,61036ee3df579df350590be2,2021-07-29_23h17.51.694,Simcolourproject_2stim_asymm_v5,2020.2.10,Win32,60,61025ae37ef11b136ea224fe,,,,,,,,,656,39,-98,1,0,0,response3disk,,4,-17,-3,1,0,0,rectangle,-17,-3,1,0,0,-17,-3,1,0,0,0,131,131,70,1,,,,,,,,
,,,,,,,,,,,,,FF,,,,,,,,2.0223,,,,,,,,,,,,,,,,,,,,,,60ff8160e8f2227f8b200510,61036ee3df579df350590be2,2021-07-29_23h17.51.694,Simcolourproject_2stim_asymm_v5,2020.2.10,Win32,60,61025ae37ef11b136ea224fe,,,,,,,,,2289,39,-92,1,0,0,response3disk,,4,-14,14,1,0,0,rectangle,-14,14,1,0,0,-14,14,1,0,0,0,132,132,101,1,,,,,,,,
,,,,,,,,,,,,,FF,,,,,,,,1.5874,,,,,,,,,,,,,,,,,,,,,,60ff8160e8f2227f8b200510,61036ee3df579df350590be2,2021-07-29_23h17.51.694,Simcolourproject_2stim_asymm_v5,2020.2.10,Win32,60,61025ae37ef11b136ea224fe,,,,,,,,,1405,90,-48,1,0,0,response3disk,,5,3,9,1,0,0,rectangle,3,9,1,0,0,3,9,1,0,0,0,133,133,85,1,,,,,,,,
,,,,,,,,,,,,,FF,,,,,,,,1.6051,,,,,,,,,,,,,,,,,,,,,,60ff8160e8f2227f8b200510,61036ee3df579df350590be2,2021-07-29_23h17.51.694,Simcolourproject_2stim_asymm_v5,2020.2.10,Win32,60,61025ae37ef11b136ea224fe,,,,,,,,,65,15,-91,1,0,0,response3disk,,4,-3,-10,1,0,0,rectangle,-3,-10,1,0,0,-3,-10,1,0,0,0,134,134,63,1,,,,,,,,
,,,,,,,,,,,,,FF,,,,,,,,1.1365,,,,,,,,,,,,,,,,,,,,,,60ff8160e8f2227f8b200510,61036ee3df579df350590be2,2021-07-29_23h17.51.694,Simcolourproject_2stim_asymm_v5,2020.2.10,Win32,60,61025ae37ef11b136ea224fe,,,,,,,,,1464,90,-63,1,0,0,response3disk,,5,9,-9,1,0,0,rectangle,9,-9,1,0,0,9,-9,1,0,0,0,135,135,155,1,,,,,,,,
,,,,,,,,,,,,,FF,,,,,,,,1.5884,,,,,,,,,,,,,,,,,,,,,,60ff8160e8f2227f8b200510,61036ee3df579df350590be2,2021-07-29_23h17.51.694,Simcolourproject_2stim_asymm_v5,2020.2.10,Win32,60,61025ae37ef11b136ea224fe,,,,,,,,,1709,78,-51,1,0,0,response3disk,,5,-14,-10,1,0,0,rectangle,-14,-10,1,0,0,-14,-10,1,0,0,0,136,136,53,1,,,,,,,,
,,,,,,,,,,,,,FF,,,,,,,,4.0446,,,,,,,,,,,,,,,,,,,,,,60ff8160e8f2227f8b200510,61036ee3df579df350590be2,2021-07-29_23h17.51.694,Simcolourproject_2stim_asymm_v5,2020.2.10,Win32,60,61025ae37ef11b136ea224fe,,,,,,,,,3840,33,-79,1,0,0,response3disk,,4,0,5,1,0,0,rectangle,0,5,1,0,0,0,5,1,0,0,0,137,137,21,1,,,,,,,,
,,,,,,,,,,,,,FF,,,,,,,,1.4877,,,,,,,,,,,,,,,,,,,,,,60ff8160e8f2227f8b200510,61036ee3df579df350590be2,2021-07-29_23h17.51.694,Simcolourproject_2stim_asymm_v5,2020.2.10,Win32,60,61025ae37ef11b136ea224fe,,,,,,,,,2357,-53,-90,1,0,0,response5disk,,3,-11,11,1,0,0,rectangle,-11,11,1,0,0,-11,11,1,0,0,0,138,138,67,1,,,,,,,,
,,,,,,,,,,,,,FF,,,,,,,,1.1544,,,,,,,,,,,,,,,,,,,,,,60ff8160e8f2227f8b200510,61036ee3df579df350590be2,2021-07-29_23h17.51.694,Simcolourproject_2stim_asymm_v5,2020.2.10,Win32,60,61025ae37ef11b136ea224fe,,,,,,,,,3713,-41,-73,1,0,0,response5disk,,3,-4,0,1,0,0,rectangle,-4,0,1,0,0,-4,0,1,0,0,0,139,139,82,1,,,,,,,,
,,,,,,,,,,,,,FF,,,,,,,,0.8864,,,,,,,,,,,,,,,,,,,,,,60ff8160e8f2227f8b200510,61036ee3df579df350590be2,2021-07-29_23h17.51.694,Simcolourproject_2stim_asymm_v5,2020.2.10,Win32,60,61025ae37ef11b136ea224fe,,,,,,,,,570,-27,-65,1,0,0,response5disk,,3,-3,6,1,0,0,rectangle,-3,6,1,0,0,-3,6,1,0,0,0,140,140,109,1,,,,,,,,
,,,,,,,,,,,,,FF,,,,,,,,1.3702,,,,,,,,,,,,,,,,,,,,,,60ff8160e8f2227f8b200510,61036ee3df579df350590be2,2021-07-29_23h17.51.694,Simcolourproject_2stim_asymm_v5,2020.2.10,Win32,60,61025ae37ef11b136ea224fe,,,,,,,,,1133,31,-83,1,0,0,response3disk,,4,2,-3,1,0,0,rectangle,2,-3,1,0,0,2,-3,1,0,0,0,141,141,5,1,,,,,,,,
,,,,,,,,,,,,,FF,,,,,,,,2.5238,,,,,,,,,,,,,,,,,,,,,,60ff8160e8f2227f8b200510,61036ee3df579df350590be2,2021-07-29_23h17.51.694,Simcolourproject_2stim_asymm_v5,2020.2.10,Win32,60,61025ae37ef11b136ea224fe,,,,,,,,,1176,62,-43,1,0,0,response3disk,,5,15,-3,1,0,0,rectangle,15,-3,1,0,0,15,-3,1,0,0,0,142,142,105,1,,,,,,,,
,,,,,,,,,,,,,FF,,,,,,,,3.3096,,,,,,,,,,,,,,,,,,,,,,60ff8160e8f2227f8b200510,61036ee3df579df350590be2,2021-07-29_23h17.51.694,Simcolourproject_2stim_asymm_v5,2020.2.10,Win32,60,61025ae37ef11b136ea224fe,,,,,,,,,2776,29,-113,1,0,0,response3disk,,4,7,12,1,0,0,rectangle,7,12,1,0,0,7,12,1,0,0,0,143,143,137,1,,,,,,,,
,,,,,,,,,,,,,FF,,,,,,,,3.6768,,,,,,,,,,,,,,,,,,,,,,60ff8160e8f2227f8b200510,61036ee3df579df350590be2,2021-07-29_23h17.51.694,Simcolourproject_2stim_asymm_v5,2020.2.10,Win32,60,61025ae37ef11b136ea224fe,,,,,,,,,1478,32,-86,1,0,0,response3disk,,4,-15,-3,1,0,0,rectangle,-15,-3,1,0,0,-15,-3,1,0,0,0,144,144,29,1,,,,,,,,
,,,,,,,,,,,,,FF,,,,,,,,1.003,,,,,,,,,,,,,,,,,,,,,,60ff8160e8f2227f8b200510,61036ee3df579df350590be2,2021-07-29_23h17.51.694,Simcolourproject_2stim_asymm_v5,2020.2.10,Win32,60,61025ae37ef11b136ea224fe,,,,,,,,,2054,-32,-89,1,0,0,response5disk,,3,2,14,1,0,0,rectangle,2,14,1,0,0,2,14,1,0,0,0,145,145,145,1,,,,,,,,
,,,,,,,,,,,,,FF,,,,,,,,4.7133,,,,,,,,,,,,,,,,,,,,,,60ff8160e8f2227f8b200510,61036ee3df579df350590be2,2021-07-29_23h17.51.694,Simcolourproject_2stim_asymm_v5,2020.2.10,Win32,60,61025ae37ef11b136ea224fe,,,,,,,,,136,94,-51,1,0,0,response3disk,,5,19,-5,1,0,0,rectangle,19,-5,1,0,0,19,-5,1,0,0,0,146,146,13,1,,,,,,,,
,,,,,,,,,,,,,FF,,,,,,,,1.6046,,,,,,,,,,,,,,,,,,,,,,60ff8160e8f2227f8b200510,61036ee3df579df350590be2,2021-07-29_23h17.51.694,Simcolourproject_2stim_asymm_v5,2020.2.10,Win32,60,61025ae37ef11b136ea224fe,,,,,,,,,2157,64,43,1,0,0,response1disk,,6,-10,-2,1,0,0,rectangle,-10,-2,1,0,0,-10,-2,1,0,0,0,147,147,26,1,,,,,,,,
,,,,,,,,,,,,,FF,,,,,,,,0.9696,,,,,,,,,,,,,,,,,,,,,,60ff8160e8f2227f8b200510,61036ee3df579df350590be2,2021-07-29_23h17.51.694,Simcolourproject_2stim_asymm_v5,2020.2.10,Win32,60,61025ae37ef11b136ea224fe,,,,,,,,,881,72,33,1,0,0,response1disk,,6,9,-3,1,0,0,rectangle,9,-3,1,0,0,9,-3,1,0,0,0,148,148,152,1,,,,,,,,
,,,,,,,,,,,,,FF,,,,,,,,1.8719,,,,,,,,,,,,,,,,,,,,,,60ff8160e8f2227f8b200510,61036ee3df579df350590be2,2021-07-29_23h17.51.694,Simcolourproject_2stim_asymm_v5,2020.2.10,Win32,60,61025ae37ef11b136ea224fe,,,,,,,,,1502,60,-23,1,0,0,response3disk,,5,15,6,1,0,0,rectangle,15,6,1,0,0,15,6,1,0,0,0,149,149,119,1,,,,,,,,
,,,,,,,,,,,,,FF,,,,,,,,1.2201,,,,,,,,,,,,,,,,,,,,,,60ff8160e8f2227f8b200510,61036ee3df579df350590be2,2021-07-29_23h17.51.694,Simcolourproject_2stim_asymm_v5,2020.2.10,Win32,60,61025ae37ef11b136ea224fe,,,,,,,,,1688,75,-41,1,0,0,response3disk,,5,11,1,1,0,0,rectangle,11,1,1,0,0,11,1,1,0,0,0,150,150,78,1,,,,,,,,
,,,,,,,,,,,,,FF,,,,,,,,0.6019,,,,,,,,,,,,,,,,,,,,,,60ff8160e8f2227f8b200510,61036ee3df579df350590be2,2021-07-29_23h17.51.694,Simcolourproject_2stim_asymm_v5,2020.2.10,Win32,60,61025ae37ef11b136ea224fe,,,,,,,,,1112,45,30,1,0,0,response1disk,,6,9,-9,1,0,0,rectangle,9,-9,1,0,0,9,-9,1,0,0,0,151,151,32,1,,,,,,,,
,,,,,,,,,,,,,FF,,,,,,,,1.5708,,,,,,,,,,,,,,,,,,,,,,60ff8160e8f2227f8b200510,61036ee3df579df350590be2,2021-07-29_23h17.51.694,Simcolourproject_2stim_asymm_v5,2020.2.10,Win32,60,61025ae37ef11b136ea224fe,,,,,,,,,2525,55,-28,1,0,0,response3disk,,5,3,-7,1,0,0,rectangle,3,-7,1,0,0,3,-7,1,0,0,0,152,152,148,1,,,,,,,,
,,,,,,,,,,,,,FF,,,,,,,,0.7523,,,,,,,,,,,,,,,,,,,,,,60ff8160e8f2227f8b200510,61036ee3df579df350590be2,2021-07-29_23h17.51.694,Simcolourproject_2stim_asymm_v5,2020.2.10,Win32,60,61025ae37ef11b136ea224fe,,,,,,,,,3016,50,33,1,0,0,response1disk,,6,5,-4,1,0,0,rectangle,5,-4,1,0,0,5,-4,1,0,0,0,153,153,44,1,,,,,,,,
,,,,,,,,,,,,,FF,,,,,,,,1.9059,,,,,,,,,,,,,,,,,,,,,,60ff8160e8f2227f8b200510,61036ee3df579df350590be2,2021-07-29_23h17.51.694,Simcolourproject_2stim_asymm_v5,2020.2.10,Win32,60,61025ae37ef11b136ea224fe,,,,,,,,,1642,-33,-95,1,0,0,response5disk,,3,11,0,1,0,0,rectangle,11,0,1,0,0,11,0,1,0,0,0,154,154,90,1,,,,,,,,
,,,,,,,,,,,,,FF,,,,,,,,1.0039,,,,,,,,,,,,,,,,,,,,,,60ff8160e8f2227f8b200510,61036ee3df579df350590be2,2021-07-29_23h17.51.694,Simcolourproject_2stim_asymm_v5,2020.2.10,Win32,60,61025ae37ef11b136ea224fe,,,,,,,,,1008,39,-76,1,0,0,response3disk,,4,2,10,1,0,0,rectangle,2,10,1,0,0,2,10,1,0,0,0,155,155,100,1,,,,,,,,
,,,,,,,,,,,,,FF,,,,,,,,0.9692,,,,,,,,,,,,,,,,,,,,,,60ff8160e8f2227f8b200510,61036ee3df579df350590be2,2021-07-29_23h17.51.694,Simcolourproject_2stim_asymm_v5,2020.2.10,Win32,60,61025ae37ef11b136ea224fe,,,,,,,,,3048,-56,-39,1,0,0,response5disk,,2,18,9,1,0,0,rectangle,18,9,1,0,0,18,9,1,0,0,0,156,156,121,1,,,,,,,,
,,,,,,,,,,,,,FF,,,,,,,,1.9725,,,,,,,,,,,,,,,,,,,,,,60ff8160e8f2227f8b200510,61036ee3df579df350590be2,2021-07-29_23h17.51.694,Simcolourproject_2stim_asymm_v5,2020.2.10,Win32,60,61025ae37ef11b136ea224fe,,,,,,,,,3722,35,-92,1,0,0,response3disk,,4,-6,-6,1,0,0,rectangle,-6,-6,1,0,0,-6,-6,1,0,0,0,157,157,122,1,,,,,,,,
,,,,,,,,,,,,,FF,,,,,,,,2.2059,,,,,,,,,,,,,,,,,,,,,,60ff8160e8f2227f8b200510,61036ee3df579df350590be2,2021-07-29_23h17.51.694,Simcolourproject_2stim_asymm_v5,2020.2.10,Win32,60,61025ae37ef11b136ea224fe,,,,,,,,,3790,94,-40,1,0,0,response3disk,,5,2,3,1,0,0,rectangle,2,3,1,0,0,2,3,1,0,0,0,158,158,11,1,,,,,,,,
,,,,,,,,,,,,,FF,,,,,,,,4.3625,,,,,,,,,,,,,,,,,,,,,,60ff8160e8f2227f8b200510,61036ee3df579df350590be2,2021-07-29_23h17.51.694,Simcolourproject_2stim_asymm_v5,2020.2.10,Win32,60,61025ae37ef11b136ea224fe,,,,,,,,,4154,90,-49,1,0,0,response3disk,,5,15,-4,1,0,0,rectangle,15,-4,1,0,0,15,-4,1,0,0,0,159,159,56,1,,,,,,,,
,,,,,,,,,,,,,FF,,,,,,,,1.4546,,,,,,,,,,,,,,,,,,,,,,60ff8160e8f2227f8b200510,61036ee3df579df350590be2,2021-07-29_23h17.51.694,Simcolourproject_2stim_asymm_v5,2020.2.10,Win32,60,61025ae37ef11b136ea224fe,,,,,,,,,3497,-23,-69,1,0,0,response5disk,,3,11,-2,1,0,0,rectangle,11,-2,1,0,0,11,-2,1,0,0,1,0,160,124,1,,,,,,,,
,,,,,,,,,,,,,FF,,,,,,,,1.187,,,,,,,,,,,,,,,,,,,,,,60ff8160e8f2227f8b200510,61036ee3df579df350590be2,2021-07-29_23h17.51.694,Simcolourproject_2stim_asymm_v5,2020.2.10,Win32,60,61025ae37ef11b136ea224fe,,,,,,,,,1718,50,-80,1,0,0,response3disk,,4,1,15,1,0,0,rectangle,1,15,1,0,0,1,15,1,0,0,1,1,161,51,1,,,,,,,,
,,,,,,,,,,,,,FF,,,,,,,,1.9734,,,,,,,,,,,,,,,,,,,,,,60ff8160e8f2227f8b200510,61036ee3df579df350590be2,2021-07-29_23h17.51.694,Simcolourproject_2stim_asymm_v5,2020.2.10,Win32,60,61025ae37ef11b136ea224fe,,,,,,,,,3996,41,-67,1,0,0,response3disk,,4,12,4,1,0,0,rectangle,12,4,1,0,0,12,4,1,0,0,1,2,162,100,1,,,,,,,,
,,,,,,,,,,,,,FF,,,,,,,,1.0194,,,,,,,,,,,,,,,,,,,,,,60ff8160e8f2227f8b200510,61036ee3df579df350590be2,2021-07-29_23h17.51.694,Simcolourproject_2stim_asymm_v5,2020.2.10,Win32,60,61025ae37ef11b136ea224fe,,,,,,,,,1037,58,-32,1,0,0,response3disk,,5,-2,4,1,0,0,rectangle,-2,4,1,0,0,-2,4,1,0,0,1,3,163,52,1,,,,,,,,
,,,,,,,,,,,,,FF,,,,,,,,1.3044,,,,,,,,,,,,,,,,,,,,,,60ff8160e8f2227f8b200510,61036ee3df579df350590be2,2021-07-29_23h17.51.694,Simcolourproject_2stim_asymm_v5,2020.2.10,Win32,60,61025ae37ef11b136ea224fe,,,,,,,,,1992,50,23,1,0,0,response1disk,,6,-13,-12,1,0,0,rectangle,-13,-12,1,0,0,-13,-12,1,0,0,1,4,164,81,1,,,,,,,,
,,,,,,,,,,,,,FF,,,,,,,,2.7706,,,,,,,,,,,,,,,,,,,,,,60ff8160e8f2227f8b200510,61036ee3df579df350590be2,2021-07-29_23h17.51.694,Simcolourproject_2stim_asymm_v5,2020.2.10,Win32,60,61025ae37ef11b136ea224fe,,,,,,,,,92,80,31,1,0,0,response1disk,,6,10,8,1,0,0,rectangle,10,8,1,0,0,10,8,1,0,0,1,5,165,93,1,,,,,,,,
,,,,,,,,,,,,,FF,,,,,,,,1.4755,,,,,,,,,,,,,,,,,,,,,,60ff8160e8f2227f8b200510,61036ee3df579df350590be2,2021-07-29_23h17.51.694,Simcolourproject_2stim_asymm_v5,2020.2.10,Win32,60,61025ae37ef11b136ea224fe,,,,,,,,,606,25,-100,1,0,0,response3disk,,4,-13,-6,1,0,0,rectangle,-13,-6,1,0,0,-13,-6,1,0,0,1,6,166,53,1,,,,,,,,
,,,,,,,,,,,,,FF,,,,,,,,2.13,,,,,,,,,,,,,,,,,,,,,,60ff8160e8f2227f8b200510,61036ee3df579df350590be2,2021-07-29_23h17.51.694,Simcolourproject_2stim_asymm_v5,2020.2.10,Win32,60,61025ae37ef11b136ea224fe,,,,,,,,,2233,-65,26,1,0,0,response7disk,,1,13,-6,1,0,0,rectangle,13,-6,1,0,0,13,-6,1,0,0,1,7,167,104,1,,,,,,,,
,,,,,,,,,,,,,FF,,,,,,,,1.3571,,,,,,,,,,,,,,,,,,,,,,60ff8160e8f2227f8b200510,61036ee3df579df350590be2,2021-07-29_23h17.51.694,Simcolourproject_2stim_asymm_v5,2020.2.10,Win32,60,61025ae37ef11b136ea224fe,,,,,,,,,590,57,-41,1,0,0,response3disk,,5,11,-5,1,0,0,rectangle,11,-5,1,0,0,11,-5,1,0,0,1,8,168,69,1,,,,,,,,
,,,,,,,,,,,,,FF,,,,,,,,0.9863,,,,,,,,,,,,,,,,,,,,,,60ff8160e8f2227f8b200510,61036ee3df579df350590be2,2021-07-29_23h17.51.694,Simcolourproject_2stim_asymm_v5,2020.2.10,Win32,60,61025ae37ef11b136ea224fe,,,,,,,,,2414,-66,-39,1,0,0,response5disk,,2,8,8,1,0,0,rectangle,8,8,1,0,0,8,8,1,0,0,1,9,169,35,1,,,,,,,,
,,,,,,,,,,,,,FF,,,,,,,,2.0729,,,,,,,,,,,,,,,,,,,,,,60ff8160e8f2227f8b200510,61036ee3df579df350590be2,2021-07-29_23h17.51.694,Simcolourproject_2stim_asymm_v5,2020.2.10,Win32,60,61025ae37ef11b136ea224fe,,,,,,,,,1488,57,35,1,0,0,response1disk,,6,25,-1,1,0,0,rectangle,25,-1,1,0,0,25,-1,1,0,0,1,10,170,98,1,,,,,,,,
,,,,,,,,,,,,,FF,,,,,,,,1.4711,,,,,,,,,,,,,,,,,,,,,,60ff8160e8f2227f8b200510,61036ee3df579df350590be2,2021-07-29_23h17.51.694,Simcolourproject_2stim_asymm_v5,2020.2.10,Win32,60,61025ae37ef11b136ea224fe,,,,,,,,,1623,50,-102,1,0,0,response3disk,,4,2,-4,1,0,0,rectangle,2,-4,1,0,0,2,-4,1,0,0,1,11,171,13,1,,,,,,,,
,,,,,,,,,,,,,FF,,,,,,,,1.1028,,,,,,,,,,,,,,,,,,,,,,60ff8160e8f2227f8b200510,61036ee3df579df350590be2,2021-07-29_23h17.51.694,Simcolourproject_2stim_asymm_v5,2020.2.10,Win32,60,61025ae37ef11b136ea224fe,,,,,,,,,4258,53,28,1,0,0,response1disk,,6,4,-7,1,0,0,rectangle,4,-7,1,0,0,4,-7,1,0,0,1,12,172,68,1,,,,,,,,
,,,,,,,,,,,,,FF,,,,,,,,0.687,,,,,,,,,,,,,,,,,,,,,,60ff8160e8f2227f8b200510,61036ee3df579df350590be2,2021-07-29_23h17.51.694,Simcolourproject_2stim_asymm_v5,2020.2.10,Win32,60,61025ae37ef11b136ea224fe,,,,,,,,,1719,22,-62,1,0,0,response3disk,,4,-7,-4,1,0,0,rectangle,-40,59,1,0,0,5,2,1,0,0,1,13,173,7,1,,response7disk_3,TRUE,0,0,"[204,200,323,38,205,174,59,95,84,283,61,25,279,216,4,306,320,86,231,291]",1.4034,rectangle
,,,,,,,,,,,,,FF,,,,,,,,1.4377,,,,,,,,,,,,,,,,,,,,,,60ff8160e8f2227f8b200510,61036ee3df579df350590be2,2021-07-29_23h17.51.694,Simcolourproject_2stim_asymm_v5,2020.2.10,Win32,60,61025ae37ef11b136ea224fe,,,,,,,,,1919,40,-84,1,0,0,response3disk,,4,-11,12,1,0,0,rectangle,-11,12,1,0,0,-11,12,1,0,0,1,14,174,62,1,,,,,,,,
,,,,,,,,,,,,,FF,,,,,,,,2.4401,,,,,,,,,,,,,,,,,,,,,,60ff8160e8f2227f8b200510,61036ee3df579df350590be2,2021-07-29_23h17.51.694,Simcolourproject_2stim_asymm_v5,2020.2.10,Win32,60,61025ae37ef11b136ea224fe,,,,,,,,,2528,81,49,1,0,0,response1disk,,6,-22,-3,1,0,0,rectangle,-22,-3,1,0,0,-22,-3,1,0,0,1,15,175,99,1,,,,,,,,
,,,,,,,,,,,,,FF,,,,,,,,1.3875,,,,,,,,,,,,,,,,,,,,,,60ff8160e8f2227f8b200510,61036ee3df579df350590be2,2021-07-29_23h17.51.694,Simcolourproject_2stim_asymm_v5,2020.2.10,Win32,60,61025ae37ef11b136ea224fe,,,,,,,,,3317,58,87,1,0,0,response1disk,,7,22,15,1,0,0,rectangle,22,15,1,0,0,22,15,1,0,0,1,16,176,23,1,,,,,,,,
,,,,,,,,,,,,,FF,,,,,,,,5.9167,,,,,,,,,,,,,,,,,,,,,,60ff8160e8f2227f8b200510,61036ee3df579df350590be2,2021-07-29_23h17.51.694,Simcolourproject_2stim_asymm_v5,2020.2.10,Win32,60,61025ae37ef11b136ea224fe,,,,,,,,,3124,55,16,1,0,0,response1disk,,6,4,-7,1,0,0,rectangle,4,-7,1,0,0,4,-7,1,0,0,1,17,177,154,1,,,,,,,,
,,,,,,,,,,,,,FF,,,,,,,,2.3234,,,,,,,,,,,,,,,,,,,,,,60ff8160e8f2227f8b200510,61036ee3df579df350590be2,2021-07-29_23h17.51.694,Simcolourproject_2stim_asymm_v5,2020.2.10,Win32,60,61025ae37ef11b136ea224fe,,,,,,,,,1803,67,-84,1,0,0,response3disk,,4,-8,-2,1,0,0,rectangle,-8,-2,1,0,0,-8,-2,1,0,0,1,18,178,25,1,,,,,,,,
,,,,,,,,,,,,,FF,,,,,,,,2.1063,,,,,,,,,,,,,,,,,,,,,,60ff8160e8f2227f8b200510,61036ee3df579df350590be2,2021-07-29_23h17.51.694,Simcolourproject_2stim_asymm_v5,2020.2.10,Win32,60,61025ae37ef11b136ea224fe,,,,,,,,,473,55,28,1,0,0,response1disk,,6,-10,2,1,0,0,rectangle,-10,2,1,0,0,-10,2,1,0,0,1,19,179,123,1,,,,,,,,
,,,,,,,,,,,,,FF,,,,,,,,1.5033,,,,,,,,,,,,,,,,,,,,,,60ff8160e8f2227f8b200510,61036ee3df579df350590be2,2021-07-29_23h17.51.694,Simcolourproject_2stim_asymm_v5,2020.2.10,Win32,60,61025ae37ef11b136ea224fe,,,,,,,,,913,85,-27,1,0,0,response3disk,,5,24,3,1,0,0,rectangle,24,3,1,0,0,24,3,1,0,0,1,20,180,19,1,,,,,,,,
,,,,,,,,,,,,,FF,,,,,,,,1.772,,,,,,,,,,,,,,,,,,,,,,60ff8160e8f2227f8b200510,61036ee3df579df350590be2,2021-07-29_23h17.51.694,Simcolourproject_2stim_asymm_v5,2020.2.10,Win32,60,61025ae37ef11b136ea224fe,,,,,,,,,3402,35,-87,1,0,0,response3disk,,4,10,-13,1,0,0,rectangle,10,-13,1,0,0,10,-13,1,0,0,1,21,181,133,1,,,,,,,,
,,,,,,,,,,,,,FF,,,,,,,,1.2031,,,,,,,,,,,,,,,,,,,,,,60ff8160e8f2227f8b200510,61036ee3df579df350590be2,2021-07-29_23h17.51.694,Simcolourproject_2stim_asymm_v5,2020.2.10,Win32,60,61025ae37ef11b136ea224fe,,,,,,,,,611,62,-35,1,0,0,response3disk,,5,14,2,1,0,0,rectangle,14,2,1,0,0,14,2,1,0,0,1,22,182,152,1,,,,,,,,
,,,,,,,,,,,,,FF,,,,,,,,1.2202,,,,,,,,,,,,,,,,,,,,,,60ff8160e8f2227f8b200510,61036ee3df579df350590be2,2021-07-29_23h17.51.694,Simcolourproject_2stim_asymm_v5,2020.2.10,Win32,60,61025ae37ef11b136ea224fe,,,,,,,,,544,-24,-101,1,0,0,response5disk,,3,9,3,1,0,0,rectangle,9,3,1,0,0,9,3,1,0,0,1,23,183,136,1,,,,,,,,
,,,,,,,,,,,,,FF,,,,,,,,1.1033,,,,,,,,,,,,,,,,,,,,,,60ff8160e8f2227f8b200510,61036ee3df579df350590be2,2021-07-29_23h17.51.694,Simcolourproject_2stim_asymm_v5,2020.2.10,Win32,60,61025ae37ef11b136ea224fe,,,,,,,,,1880,-23,-82,1,0,0,response5disk,,3,-3,-1,1,0,0,rectangle,-3,-1,1,0,0,-3,-1,1,0,0,1,24,184,67,1,,,,,,,,
,,,,,,,,,,,,,FF,,,,,,,,1.0367,,,,,,,,,,,,,,,,,,,,,,60ff8160e8f2227f8b200510,61036ee3df579df350590be2,2021-07-29_23h17.51.694,Simcolourproject_2stim_asymm_v5,2020.2.10,Win32,60,61025ae37ef11b136ea224fe,,,,,,,,,4294,-60,-93,1,0,0,response5disk,,3,-12,-2,1,0,0,rectangle,-12,-2,1,0,0,-12,-2,1,0,0,1,25,185,32,1,,,,,,,,
,,,,,,,,,,,,,FF,,,,,,,,1.5046,,,,,,,,,,,,,,,,,,,,,,60ff8160e8f2227f8b200510,61036ee3df579df350590be2,2021-07-29_23h17.51.694,Simcolourproject_2stim_asymm_v5,2020.2.10,Win32,60,61025ae37ef11b136ea224fe,,,,,,,,,3448,-43,-86,1,0,0,response5disk,,3,-9,9,1,0,0,rectangle,-9,9,1,0,0,-9,9,1,0,0,1,26,186,50,1,,,,,,,,
,,,,,,,,,,,,,FF,,,,,,,,0.9195,,,,,,,,,,,,,,,,,,,,,,60ff8160e8f2227f8b200510,61036ee3df579df350590be2,2021-07-29_23h17.51.694,Simcolourproject_2stim_asymm_v5,2020.2.10,Win32,60,61025ae37ef11b136ea224fe,,,,,,,,,2130,33,71,1,0,0,response1disk,,7,4,14,1,0,0,rectangle,4,14,1,0,0,4,14,1,0,0,1,27,187,155,1,,,,,,,,
,,,,,,,,,,,,,FF,,,,,,,,1.5544,,,,,,,,,,,,,,,,,,,,,,60ff8160e8f2227f8b200510,61036ee3df579df350590be2,2021-07-29_23h17.51.694,Simcolourproject_2stim_asymm_v5,2020.2.10,Win32,60,61025ae37ef11b136ea224fe,,,,,,,,,2215,72,-51,1,0,0,response3disk,,5,-17,7,1,0,0,rectangle,-17,7,1,0,0,-17,7,1,0,0,1,28,188,103,1,,,,,,,,
,,,,,,,,,,,,,FF,,,,,,,,0.9528,,,,,,,,,,,,,,,,,,,,,,60ff8160e8f2227f8b200510,61036ee3df579df350590be2,2021-07-29_23h17.51.694,Simcolourproject_2stim_asymm_v5,2020.2.10,Win32,60,61025ae37ef11b136ea224fe,,,,,,,,,3185,86,43,1,0,0,response1disk,,6,11,2,1,0,0,rectangle,11,2,1,0,0,11,2,1,0,0,1,29,189,150,1,,,,,,,,
,,,,,,,,,,,,,FF,,,,,,,,1.1196,,,,,,,,,,,,,,,,,,,,,,60ff8160e8f2227f8b200510,61036ee3df579df350590be2,2021-07-29_23h17.51.694,Simcolourproject_2stim_asymm_v5,2020.2.10,Win32,60,61025ae37ef11b136ea224fe,,,,,,,,,4170,49,-91,1,0,0,response3disk,,4,-2,-8,1,0,0,rectangle,-2,-8,1,0,0,-2,-8,1,0,0,1,30,190,29,1,,,,,,,,
,,,,,,,,,,,,,FF,,,,,,,,1.1704,,,,,,,,,,,,,,,,,,,,,,60ff8160e8f2227f8b200510,61036ee3df579df350590be2,2021-07-29_23h17.51.694,Simcolourproject_2stim_asymm_v5,2020.2.10,Win32,60,61025ae37ef11b136ea224fe,,,,,,,,,1938,97,-26,1,0,0,response3disk,,5,22,-6,1,0,0,rectangle,22,-6,1,0,0,22,-6,1,0,0,1,31,191,3,1,,,,,,,,
,,,,,,,,,,,,,FF,,,,,,,,0.8855,,,,,,,,,,,,,,,,,,,,,,60ff8160e8f2227f8b200510,61036ee3df579df350590be2,2021-07-29_23h17.51.694,Simcolourproject_2stim_asymm_v5,2020.2.10,Win32,60,61025ae37ef11b136ea224fe,,,,,,,,,1016,21,88,1,0,0,response1disk,,7,3,8,1,0,0,rectangle,3,8,1,0,0,3,8,1,0,0,1,32,192,113,1,,,,,,,,
,,,,,,,,,,,,,FF,,,,,,,,0.886,,,,,,,,,,,,,,,,,,,,,,60ff8160e8f2227f8b200510,61036ee3df579df350590be2,2021-07-29_23h17.51.694,Simcolourproject_2stim_asymm_v5,2020.2.10,Win32,60,61025ae37ef11b136ea224fe,,,,,,,,,2805,32,65,1,0,0,response1disk,,7,14,0,1,0,0,rectangle,14,0,1,0,0,14,0,1,0,0,1,33,193,31,1,,,,,,,,
,,,,,,,,,,,,,FF,,,,,,,,0.7855,,,,,,,,,,,,,,,,,,,,,,60ff8160e8f2227f8b200510,61036ee3df579df350590be2,2021-07-29_23h17.51.694,Simcolourproject_2stim_asymm_v5,2020.2.10,Win32,60,61025ae37ef11b136ea224fe,,,,,,,,,3105,-28,-79,1,0,0,response5disk,,3,17,9,1,0,0,rectangle,17,9,1,0,0,17,9,1,0,0,1,34,194,128,1,,,,,,,,
,,,,,,,,,,,,,FF,,,,,,,,0.5854,,,,,,,,,,,,,,,,,,,,,,60ff8160e8f2227f8b200510,61036ee3df579df350590be2,2021-07-29_23h17.51.694,Simcolourproject_2stim_asymm_v5,2020.2.10,Win32,60,61025ae37ef11b136ea224fe,,,,,,,,,1292,-20,-67,1,0,0,response5disk,,3,10,-1,1,0,0,rectangle,10,-1,1,0,0,10,-1,1,0,0,1,35,195,89,1,,,,,,,,
,,,,,,,,,,,,,FF,,,,,,,,0.9696,,,,,,,,,,,,,,,,,,,,,,60ff8160e8f2227f8b200510,61036ee3df579df350590be2,2021-07-29_23h17.51.694,Simcolourproject_2stim_asymm_v5,2020.2.10,Win32,60,61025ae37ef11b136ea224fe,,,,,,,,,4051,20,-66,1,0,0,response3disk,,4,8,-4,1,0,0,rectangle,8,-4,1,0,0,8,-4,1,0,0,1,36,196,70,1,,,,,,,,
,,,,,,,,,,,,,FF,,,,,,,,0.8692,,,,,,,,,,,,,,,,,,,,,,60ff8160e8f2227f8b200510,61036ee3df579df350590be2,2021-07-29_23h17.51.694,Simcolourproject_2stim_asymm_v5,2020.2.10,Win32,60,61025ae37ef11b136ea224fe,,,,,,,,,2473,58,-35,1,0,0,response3disk,,5,0,-2,1,0,0,rectangle,0,-2,1,0,0,0,-2,1,0,0,1,37,197,131,1,,,,,,,,
,,,,,,,,,,,,,FF,,,,,,,,0.736,,,,,,,,,,,,,,,,,,,,,,60ff8160e8f2227f8b200510,61036ee3df579df350590be2,2021-07-29_23h17.51.694,Simcolourproject_2stim_asymm_v5,2020.2.10,Win32,60,61025ae37ef11b136ea224fe,,,,,,,,,3007,35,-84,1,0,0,response3disk,,4,2,-9,1,0,0,rectangle,2,-9,1,0,0,2,-9,1,0,0,1,38,198,63,1,,,,,,,,
,,,,,,,,,,,,,FF,,,,,,,,0.8404,,,,,,,,,,,,,,,,,,,,,,60ff8160e8f2227f8b200510,61036ee3df579df350590be2,2021-07-29_23h17.51.694,Simcolourproject_2stim_asymm_v5,2020.2.10,Win32,60,61025ae37ef11b136ea224fe,,,,,,,,,4163,-23,-83,1,0,0,response5disk,,3,-13,-14,1,0,0,rectangle,85,-31,1,0,0,13,-2,1,0,0,1,39,199,26,1,,response3disk_3,TRUE,5,5,"[204,200,323,38,205,174,59,95,84,283,61,25,279,216,4,306,320,86,231,291]",1.1693,rectangle
,,,,,,,,,,,,,FF,,,,,,,,1.0038,,,,,,,,,,,,,,,,,,,,,,60ff8160e8f2227f8b200510,61036ee3df579df350590be2,2021-07-29_23h17.51.694,Simcolourproject_2stim_asymm_v5,2020.2.10,Win32,60,61025ae37ef11b136ea224fe,,,,,,,,,3164,-47,-65,1,0,0,response5disk,,3,14,-5,1,0,0,rectangle,14,-5,1,0,0,14,-5,1,0,0,1,40,200,66,1,,,,,,,,
,,,,,,,,,,,,,FF,,,,,,,,3.1473,,,,,,,,,,,,,,,,,,,,,,60ff8160e8f2227f8b200510,61036ee3df579df350590be2,2021-07-29_23h17.51.694,Simcolourproject_2stim_asymm_v5,2020.2.10,Win32,60,61025ae37ef11b136ea224fe,,,,,,,,,3212,26,-108,1,0,0,response3disk,,4,9,-4,1,0,0,rectangle,9,-4,1,0,0,9,-4,1,0,0,1,41,201,119,1,,,,,,,,
,,,,,,,,,,,,,FF,,,,,,,,0.7742,,,,,,,,,,,,,,,,,,,,,,60ff8160e8f2227f8b200510,61036ee3df579df350590be2,2021-07-29_23h17.51.694,Simcolourproject_2stim_asymm_v5,2020.2.10,Win32,60,61025ae37ef11b136ea224fe,,,,,,,,,1271,48,-57,1,0,0,response3disk,,4,-13,-1,1,0,0,rectangle,-13,-1,1,0,0,-13,-1,1,0,0,1,42,202,134,1,,,,,,,,
,,,,,,,,,,,,,FF,,,,,,,,0.7062,,,,,,,,,,,,,,,,,,,,,,60ff8160e8f2227f8b200510,61036ee3df579df350590be2,2021-07-29_23h17.51.694,Simcolourproject_2stim_asymm_v5,2020.2.10,Win32,60,61025ae37ef11b136ea224fe,,,,,,,,,3201,-41,-82,1,0,0,response5disk,,3,-4,5,1,0,0,rectangle,69,29,1,0,0,-4,-4,1,0,0,1,43,203,74,1,,response1disk_3,TRUE,6,6,"[204,200,323,38,205,174,59,95,84,283,61,25,279,216,4,306,320,86,231,291]",1.6211,rectangle
,,,,,,,,,,,,,FF,,,,,,,,5.7006,,,,,,,,,,,,,,,,,,,,,,60ff8160e8f2227f8b200510,61036ee3df579df350590be2,2021-07-29_23h17.51.694,Simcolourproject_2stim_asymm_v5,2020.2.10,Win32,60,61025ae37ef11b136ea224fe,,,,,,,,,3012,44,-85,1,0,0,response3disk,,4,19,4,1,0,0,rectangle,-26,78,1,0,0,1,2,1,0,0,1,44,204,18,1,,response7disk_3,TRUE,0,0,"[204,200,323,38,205,174,59,95,84,283,61,25,279,216,4,306,320,86,231,291]",1.2587,rectangle
,,,,,,,,,,,,,FF,,,,,,,,1.4788,,,,,,,,,,,,,,,,,,,,,,60ff8160e8f2227f8b200510,61036ee3df579df350590be2,2021-07-29_23h17.51.694,Simcolourproject_2stim_asymm_v5,2020.2.10,Win32,60,61025ae37ef11b136ea224fe,,,,,,,,,1283,41,-85,1,0,0,response3disk,,4,2,2,1,0,0,rectangle,2,2,1,0,0,2,2,1,0,0,1,45,205,143,1,,,,,,,,
,,,,,,,,,,,,,FF,,,,,,,,2.4085,,,,,,,,,,,,,,,,,,,,,,60ff8160e8f2227f8b200510,61036ee3df579df350590be2,2021-07-29_23h17.51.694,Simcolourproject_2stim_asymm_v5,2020.2.10,Win32,60,61025ae37ef11b136ea224fe,,,,,,,,,222,73,-43,1,0,0,response3disk,,5,11,-3,1,0,0,rectangle,11,-3,1,0,0,11,-3,1,0,0,1,46,206,91,1,,,,,,,,
,,,,,,,,,,,,,FF,,,,,,,,1.2877,,,,,,,,,,,,,,,,,,,,,,60ff8160e8f2227f8b200510,61036ee3df579df350590be2,2021-07-29_23h17.51.694,Simcolourproject_2stim_asymm_v5,2020.2.10,Win32,60,61025ae37ef11b136ea224fe,,,,,,,,,1946,71,18,1,0,0,response1disk,,6,8,-6,1,0,0,rectangle,8,-6,1,0,0,8,-6,1,0,0,1,47,207,85,1,,,,,,,,
,,,,,,,,,,,,,FF,,,,,,,,0.8528,,,,,,,,,,,,,,,,,,,,,,60ff8160e8f2227f8b200510,61036ee3df579df350590be2,2021-07-29_23h17.51.694,Simcolourproject_2stim_asymm_v5,2020.2.10,Win32,60,61025ae37ef11b136ea224fe,,,,,,,,,2687,52,36,1,0,0,response1disk,,6,0,0,1,0,0,rectangle,0,0,1,0,0,0,0,1,0,0,1,48,208,6,1,,,,,,,,
,,,,,,,,,,,,,FF,,,,,,,,0.9195,,,,,,,,,,,,,,,,,,,,,,60ff8160e8f2227f8b200510,61036ee3df579df350590be2,2021-07-29_23h17.51.694,Simcolourproject_2stim_asymm_v5,2020.2.10,Win32,60,61025ae37ef11b136ea224fe,,,,,,,,,3305,43,26,1,0,0,response1disk,,6,4,0,1,0,0,rectangle,4,0,1,0,0,4,0,1,0,0,1,49,209,80,1,,,,,,,,
,,,,,,,,,,,,,FF,,,,,,,,1.2538,,,,,,,,,,,,,,,,,,,,,,60ff8160e8f2227f8b200510,61036ee3df579df350590be2,2021-07-29_23h17.51.694,Simcolourproject_2stim_asymm_v5,2020.2.10,Win32,60,61025ae37ef11b136ea224fe,,,,,,,,,1159,60,-35,1,0,0,response3disk,,5,24,-8,1,0,0,rectangle,24,-8,1,0,0,24,-8,1,0,0,1,50,210,107,1,,,,,,,,
,,,,,,,,,,,,,FF,,,,,,,,1.1534,,,,,,,,,,,,,,,,,,,,,,60ff8160e8f2227f8b200510,61036ee3df579df350590be2,2021-07-29_23h17.51.694,Simcolourproject_2stim_asymm_v5,2020.2.10,Win32,60,61025ae37ef11b136ea224fe,,,,,,,,,3924,31,-65,1,0,0,response3disk,,4,18,-9,1,0,0,rectangle,18,-9,1,0,0,18,-9,1,0,0,1,51,211,46,1,,,,,,,,
,,,,,,,,,,,,,FF,,,,,,,,4.379,,,,,,,,,,,,,,,,,,,,,,60ff8160e8f2227f8b200510,61036ee3df579df350590be2,2021-07-29_23h17.51.694,Simcolourproject_2stim_asymm_v5,2020.2.10,Win32,60,61025ae37ef11b136ea224fe,,,,,,,,,2222,52,-34,1,0,0,response3disk,,5,23,-14,1,0,0,rectangle,23,-14,1,0,0,23,-14,1,0,0,1,52,212,17,1,,,,,,,,
,,,,,,,,,,,,,FF,,,,,,,,1.9222,,,,,,,,,,,,,,,,,,,,,,60ff8160e8f2227f8b200510,61036ee3df579df350590be2,2021-07-29_23h17.51.694,Simcolourproject_2stim_asymm_v5,2020.2.10,Win32,60,61025ae37ef11b136ea224fe,,,,,,,,,3786,60,-28,1,0,0,response3disk,,5,22,-9,1,0,0,rectangle,22,-9,1,0,0,22,-9,1,0,0,1,53,213,9,1,,,,,,,,
,,,,,,,,,,,,,FF,,,,,,,,1.372,,,,,,,,,,,,,,,,,,,,,,60ff8160e8f2227f8b200510,61036ee3df579df350590be2,2021-07-29_23h17.51.694,Simcolourproject_2stim_asymm_v5,2020.2.10,Win32,60,61025ae37ef11b136ea224fe,,,,,,,,,1510,45,-23,1,0,0,response3disk,,5,11,-9,1,0,0,rectangle,11,-9,1,0,0,11,-9,1,0,0,1,54,214,141,1,,,,,,,,
,,,,,,,,,,,,,FF,,,,,,,,1.4709,,,,,,,,,,,,,,,,,,,,,,60ff8160e8f2227f8b200510,61036ee3df579df350590be2,2021-07-29_23h17.51.694,Simcolourproject_2stim_asymm_v5,2020.2.10,Win32,60,61025ae37ef11b136ea224fe,,,,,,,,,3228,57,42,1,0,0,response1disk,,6,4,-4,1,0,0,rectangle,-27,69,1,0,0,0,3,1,0,0,1,55,215,14,1,,response7disk_3,TRUE,0,0,"[204,200,323,38,205,174,59,95,84,283,61,25,279,216,4,306,320,86,231,291]",1.186,rectangle
,,,,,,,,,,,,,FF,,,,,,,,1.6712,,,,,,,,,,,,,,,,,,,,,,60ff8160e8f2227f8b200510,61036ee3df579df350590be2,2021-07-29_23h17.51.694,Simcolourproject_2stim_asymm_v5,2020.2.10,Win32,60,61025ae37ef11b136ea224fe,,,,,,,,,552,34,87,1,0,0,response1disk,,7,0,2,1,0,0,rectangle,0,2,1,0,0,0,2,1,0,0,1,56,216,20,1,,,,,,,,
,,,,,,,,,,,,,FF,,,,,,,,2.2232,,,,,,,,,,,,,,,,,,,,,,60ff8160e8f2227f8b200510,61036ee3df579df350590be2,2021-07-29_23h17.51.694,Simcolourproject_2stim_asymm_v5,2020.2.10,Win32,60,61025ae37ef11b136ea224fe,,,,,,,,,2900,48,-91,1,0,0,response3disk,,4,5,-8,1,0,0,rectangle,5,-8,1,0,0,5,-8,1,0,0,1,57,217,97,1,,,,,,,,
,,,,,,,,,,,,,FF,,,,,,,,0.8694,,,,,,,,,,,,,,,,,,,,,,60ff8160e8f2227f8b200510,61036ee3df579df350590be2,2021-07-29_23h17.51.694,Simcolourproject_2stim_asymm_v5,2020.2.10,Win32,60,61025ae37ef11b136ea224fe,,,,,,,,,2836,25,-65,1,0,0,response3disk,,4,-6,-13,1,0,0,rectangle,-6,-13,1,0,0,-6,-13,1,0,0,1,58,218,78,1,,,,,,,,
,,,,,,,,,,,,,FF,,,,,,,,4.3962,,,,,,,,,,,,,,,,,,,,,,60ff8160e8f2227f8b200510,61036ee3df579df350590be2,2021-07-29_23h17.51.694,Simcolourproject_2stim_asymm_v5,2020.2.10,Win32,60,61025ae37ef11b136ea224fe,,,,,,,,,1162,64,19,1,0,0,response1disk,,6,15,0,1,0,0,rectangle,15,0,1,0,0,15,0,1,0,0,1,59,219,153,1,,,,,,,,
,,,,,,,,,,,,,FF,,,,,,,,0.936,,,,,,,,,,,,,,,,,,,,,,60ff8160e8f2227f8b200510,61036ee3df579df350590be2,2021-07-29_23h17.51.694,Simcolourproject_2stim_asymm_v5,2020.2.10,Win32,60,61025ae37ef11b136ea224fe,,,,,,,,,3272,22,74,1,0,0,response1disk,,7,0,3,1,0,0,rectangle,0,3,1,0,0,0,3,1,0,0,1,60,220,83,1,,,,,,,,
,,,,,,,,,,,,,FF,,,,,,,,1.4878,,,,,,,,,,,,,,,,,,,,,,60ff8160e8f2227f8b200510,61036ee3df579df350590be2,2021-07-29_23h17.51.694,Simcolourproject_2stim_asymm_v5,2020.2.10,Win32,60,61025ae37ef11b136ea224fe,,,,,,,,,483,70,-37,1,0,0,response3disk,,5,26,4,1,0,0,rectangle,26,4,1,0,0,26,4,1,0,0,1,61,221,73,1,,,,,,,,
,,,,,,,,,,,,,FF,,,,,,,,0.9028,,,,,,,,,,,,,,,,,,,,,,60ff8160e8f2227f8b200510,61036ee3df579df350590be2,2021-07-29_23h17.51.694,Simcolourproject_2stim_asymm_v5,2020.2.10,Win32,60,61025ae37ef11b136ea224fe,,,,,,,,,2099,-50,-81,1,0,0,response5disk,,3,-13,-2,1,0,0,rectangle,-13,-2,1,0,0,-13,-2,1,0,0,1,62,222,147,1,,,,,,,,
,,,,,,,,,,,,,FF,,,,,,,,0.7189,,,,,,,,,,,,,,,,,,,,,,60ff8160e8f2227f8b200510,61036ee3df579df350590be2,2021-07-29_23h17.51.694,Simcolourproject_2stim_asymm_v5,2020.2.10,Win32,60,61025ae37ef11b136ea224fe,,,,,,,,,2503,35,-77,1,0,0,response3disk,,4,5,5,1,0,0,rectangle,5,5,1,0,0,5,5,1,0,0,1,63,223,16,1,,,,,,,,
,,,,,,,,,,,,,FF,,,,,,,,2.9413,,,,,,,,,,,,,,,,,,,,,,60ff8160e8f2227f8b200510,61036ee3df579df350590be2,2021-07-29_23h17.51.694,Simcolourproject_2stim_asymm_v5,2020.2.10,Win32,60,61025ae37ef11b136ea224fe,,,,,,,,,2007,66,-31,1,0,0,response3disk,,5,20,-5,1,0,0,rectangle,20,-5,1,0,0,20,-5,1,0,0,1,64,224,101,1,,,,,,,,
,,,,,,,,,,,,,FF,,,,,,,,0.9027,,,,,,,,,,,,,,,,,,,,,,60ff8160e8f2227f8b200510,61036ee3df579df350590be2,2021-07-29_23h17.51.694,Simcolourproject_2stim_asymm_v5,2020.2.10,Win32,60,61025ae37ef11b136ea224fe,,,,,,,,,1058,25,-77,1,0,0,response3disk,,4,-2,1,1,0,0,rectangle,-2,1,1,0,0,-2,1,1,0,0,1,65,225,60,1,,,,,,,,
,,,,,,,,,,,,,FF,,,,,,,,1.2034,,,,,,,,,,,,,,,,,,,,,,60ff8160e8f2227f8b200510,61036ee3df579df350590be2,2021-07-29_23h17.51.694,Simcolourproject_2stim_asymm_v5,2020.2.10,Win32,60,61025ae37ef11b136ea224fe,,,,,,,,,3565,18,-69,1,0,0,response3disk,,4,-4,0,1,0,0,rectangle,-4,0,1,0,0,-4,0,1,0,0,1,66,226,48,1,,,,,,,,
,,,,,,,,,,,,,FF,,,,,,,,1.5205,,,,,,,,,,,,,,,,,,,,,,60ff8160e8f2227f8b200510,61036ee3df579df350590be2,2021-07-29_23h17.51.694,Simcolourproject_2stim_asymm_v5,2020.2.10,Win32,60,61025ae37ef11b136ea224fe,,,,,,,,,68,44,72,1,0,0,response1disk,,7,7,8,1,0,0,rectangle,7,8,1,0,0,7,8,1,0,0,1,67,227,11,1,,,,,,,,
,,,,,,,,,,,,,FF,,,,,,,,1.7889,,,,,,,,,,,,,,,,,,,,,,60ff8160e8f2227f8b200510,61036ee3df579df350590be2,2021-07-29_23h17.51.694,Simcolourproject_2stim_asymm_v5,2020.2.10,Win32,60,61025ae37ef11b136ea224fe,,,,,,,,,879,41,30,1,0,0,response1disk,,6,-4,-3,1,0,0,rectangle,-4,-3,1,0,0,-4,-3,1,0,0,1,68,228,58,1,,,,,,,,
,,,,,,,,,,,,,FF,,,,,,,,0.9696,,,,,,,,,,,,,,,,,,,,,,60ff8160e8f2227f8b200510,61036ee3df579df350590be2,2021-07-29_23h17.51.694,Simcolourproject_2stim_asymm_v5,2020.2.10,Win32,60,61025ae37ef11b136ea224fe,,,,,,,,,3026,38,28,1,0,0,response1disk,,6,19,0,1,0,0,rectangle,19,0,1,0,0,19,0,1,0,0,1,69,229,115,1,,,,,,,,
,,,,,,,,,,,,,FF,,,,,,,,1.2881,,,,,,,,,,,,,,,,,,,,,,60ff8160e8f2227f8b200510,61036ee3df579df350590be2,2021-07-29_23h17.51.694,Simcolourproject_2stim_asymm_v5,2020.2.10,Win32,60,61025ae37ef11b136ea224fe,,,,,,,,,3341,16,-74,1,0,0,response3disk,,4,-8,10,1,0,0,rectangle,52,25,1,0,0,7,-1,1,0,0,1,70,230,102,1,,response1disk_3,TRUE,6,6,"[204,200,323,38,205,174,59,95,84,283,61,25,279,216,4,306,320,86,231,291]",1.2538,rectangle
,,,,,,,,,,,,,FF,,,,,,,,1.0868,,,,,,,,,,,,,,,,,,,,,,60ff8160e8f2227f8b200510,61036ee3df579df350590be2,2021-07-29_23h17.51.694,Simcolourproject_2stim_asymm_v5,2020.2.10,Win32,60,61025ae37ef11b136ea224fe,,,,,,,,,2566,22,80,1,0,0,response1disk,,7,9,11,1,0,0,rectangle,9,11,1,0,0,9,11,1,0,0,1,71,231,54,1,,,,,,,,
,,,,,,,,,,,,,FF,,,,,,,,1.6211,,,,,,,,,,,,,,,,,,,,,,60ff8160e8f2227f8b200510,61036ee3df579df350590be2,2021-07-29_23h17.51.694,Simcolourproject_2stim_asymm_v5,2020.2.10,Win32,60,61025ae37ef11b136ea224fe,,,,,,,,,3061,50,-32,1,0,0,response3disk,,5,0,6,1,0,0,rectangle,0,6,1,0,0,0,6,1,0,0,1,72,232,49,1,,,,,,,,
,,,,,,,,,,,,,FF,,,,,,,,1.2124,,,,,,,,,,,,,,,,,,,,,,60ff8160e8f2227f8b200510,61036ee3df579df350590be2,2021-07-29_23h17.51.694,Simcolourproject_2stim_asymm_v5,2020.2.10,Win32,60,61025ae37ef11b136ea224fe,,,,,,,,,2714,33,-73,1,0,0,response3disk,,4,2,-1,1,0,0,rectangle,2,-1,1,0,0,2,-1,1,0,0,1,73,233,90,1,,,,,,,,
,,,,,,,,,,,,,FF,,,,,,,,1.5545,,,,,,,,,,,,,,,,,,,,,,60ff8160e8f2227f8b200510,61036ee3df579df350590be2,2021-07-29_23h17.51.694,Simcolourproject_2stim_asymm_v5,2020.2.10,Win32,60,61025ae37ef11b136ea224fe,,,,,,,,,3873,65,34,1,0,0,response1disk,,6,14,7,1,0,0,rectangle,14,7,1,0,0,14,7,1,0,0,1,74,234,139,1,,,,,,,,
,,,,,,,,,,,,,FF,,,,,,,,0.9859,,,,,,,,,,,,,,,,,,,,,,60ff8160e8f2227f8b200510,61036ee3df579df350590be2,2021-07-29_23h17.51.694,Simcolourproject_2stim_asymm_v5,2020.2.10,Win32,60,61025ae37ef11b136ea224fe,,,,,,,,,742,57,-24,1,0,0,response3disk,,5,12,4,1,0,0,rectangle,12,4,1,0,0,12,4,1,0,0,1,75,235,105,1,,,,,,,,
,,,,,,,,,,,,,FF,,,,,,,,1.0867,,,,,,,,,,,,,,,,,,,,,,60ff8160e8f2227f8b200510,61036ee3df579df350590be2,2021-07-29_23h17.51.694,Simcolourproject_2stim_asymm_v5,2020.2.10,Win32,60,61025ae37ef11b136ea224fe,,,,,,,,,79,-55,-33,1,0,0,response5disk,,2,22,2,1,0,0,rectangle,22,2,1,0,0,22,2,1,0,0,1,76,236,156,1,,,,,,,,
,,,,,,,,,,,,,FF,,,,,,,,4.3436,,,,,,,,,,,,,,,,,,,,,,60ff8160e8f2227f8b200510,61036ee3df579df350590be2,2021-07-29_23h17.51.694,Simcolourproject_2stim_asymm_v5,2020.2.10,Win32,60,61025ae37ef11b136ea224fe,,,,,,,,,270,46,-21,1,0,0,response3disk,,5,10,1,1,0,0,rectangle,10,1,1,0,0,10,1,1,0,0,1,77,237,84,1,,,,,,,,
,,,,,,,,,,,,,FF,,,,,,,,0.7023,,,,,,,,,,,,,,,,,,,,,,60ff8160e8f2227f8b200510,61036ee3df579df350590be2,2021-07-29_23h17.51.694,Simcolourproject_2stim_asymm_v5,2020.2.10,Win32,60,61025ae37ef11b136ea224fe,,,,,,,,,1736,53,27,1,0,0,response1disk,,6,1,1,1,0,0,rectangle,1,1,1,0,0,1,1,1,0,0,1,78,238,36,1,,,,,,,,
,,,,,,,,,,,,,FF,,,,,,,,1.6384,,,,,,,,,,,,,,,,,,,,,,60ff8160e8f2227f8b200510,61036ee3df579df350590be2,2021-07-29_23h17.51.694,Simcolourproject_2stim_asymm_v5,2020.2.10,Win32,60,61025ae37ef11b136ea224fe,,,,,,,,,1638,-32,-89,1,0,0,response5disk,,3,4,2,1,0,0,rectangle,4,2,1,0,0,4,2,1,0,0,1,79,239,130,1,,,,,,,,
,,,,,,,,,,,,,FF,,,,,,,,1.2729,,,,,,,,,,,,,,,,,,,,,,60ff8160e8f2227f8b200510,61036ee3df579df350590be2,2021-07-29_23h17.51.694,Simcolourproject_2stim_asymm_v5,2020.2.10,Win32,60,61025ae37ef11b136ea224fe,,,,,,,,,3753,-37,-66,1,0,0,response5disk,,3,-3,1,1,0,0,rectangle,-3,1,1,0,0,-3,1,1,0,0,1,80,240,64,1,,,,,,,,
,,,,,,,,,,,,,FF,,,,,,,,0.9198,,,,,,,,,,,,,,,,,,,,,,60ff8160e8f2227f8b200510,61036ee3df579df350590be2,2021-07-29_23h17.51.694,Simcolourproject_2stim_asymm_v5,2020.2.10,Win32,60,61025ae37ef11b136ea224fe,,,,,,,,,3004,-27,-78,1,0,0,response5disk,,3,-1,-2,1,0,0,rectangle,-1,-2,1,0,0,-1,-2,1,0,0,1,81,241,2,1,,,,,,,,
,,,,,,,,,,,,,FF,,,,,,,,1.4206,,,,,,,,,,,,,,,,,,,,,,60ff8160e8f2227f8b200510,61036ee3df579df350590be2,2021-07-29_23h17.51.694,Simcolourproject_2stim_asymm_v5,2020.2.10,Win32,60,61025ae37ef11b136ea224fe,,,,,,,,,3453,64,43,1,0,0,response1disk,,6,-8,3,1,0,0,rectangle,-8,3,1,0,0,-8,3,1,0,0,1,82,242,55,1,,,,,,,,
,,,,,,,,,,,,,FF,,,,,,,,1.0872,,,,,,,,,,,,,,,,,,,,,,60ff8160e8f2227f8b200510,61036ee3df579df350590be2,2021-07-29_23h17.51.694,Simcolourproject_2stim_asymm_v5,2020.2.10,Win32,60,61025ae37ef11b136ea224fe,,,,,,,,,3558,-34,-63,1,0,0,response5disk,,3,0,14,1,0,0,rectangle,0,14,1,0,0,0,14,1,0,0,1,83,243,121,1,,,,,,,,
,,,,,,,,,,,,,FF,,,,,,,,5.4823,,,,,,,,,,,,,,,,,,,,,,60ff8160e8f2227f8b200510,61036ee3df579df350590be2,2021-07-29_23h17.51.694,Simcolourproject_2stim_asymm_v5,2020.2.10,Win32,60,61025ae37ef11b136ea224fe,,,,,,,,,410,65,33,1,0,0,response1disk,,6,27,11,1,0,0,rectangle,27,11,1,0,0,27,11,1,0,0,1,84,244,151,1,,,,,,,,
,,,,,,,,,,,,,FF,,,,,,,,1.3207,,,,,,,,,,,,,,,,,,,,,,60ff8160e8f2227f8b200510,61036ee3df579df350590be2,2021-07-29_23h17.51.694,Simcolourproject_2stim_asymm_v5,2020.2.10,Win32,60,61025ae37ef11b136ea224fe,,,,,,,,,280,33,-72,1,0,0,response3disk,,4,14,-6,1,0,0,rectangle,14,-6,1,0,0,14,-6,1,0,0,1,85,245,43,1,,,,,,,,
,,,,,,,,,,,,,FF,,,,,,,,3.1091,,,,,,,,,,,,,,,,,,,,,,60ff8160e8f2227f8b200510,61036ee3df579df350590be2,2021-07-29_23h17.51.694,Simcolourproject_2stim_asymm_v5,2020.2.10,Win32,60,61025ae37ef11b136ea224fe,,,,,,,,,1043,42,25,1,0,0,response1disk,,6,14,13,1,0,0,rectangle,14,13,1,0,0,14,13,1,0,0,1,86,246,120,1,,,,,,,,
,,,,,,,,,,,,,FF,,,,,,,,0.8356,,,,,,,,,,,,,,,,,,,,,,60ff8160e8f2227f8b200510,61036ee3df579df350590be2,2021-07-29_23h17.51.694,Simcolourproject_2stim_asymm_v5,2020.2.10,Win32,60,61025ae37ef11b136ea224fe,,,,,,,,,3665,20,61,1,0,0,response1disk,,7,-3,8,1,0,0,rectangle,-3,8,1,0,0,-3,8,1,0,0,1,87,247,106,1,,,,,,,,
,,,,,,,,,,,,,FF,,,,,,,,1.237,,,,,,,,,,,,,,,,,,,,,,60ff8160e8f2227f8b200510,61036ee3df579df350590be2,2021-07-29_23h17.51.694,Simcolourproject_2stim_asymm_v5,2020.2.10,Win32,60,61025ae37ef11b136ea224fe,,,,,,,,,1969,24,-99,1,0,0,response3disk,,4,-5,0,1,0,0,rectangle,-5,0,1,0,0,-5,0,1,0,0,1,88,248,56,1,,,,,,,,
,,,,,,,,,,,,,FF,,,,,,,,1.0198,,,,,,,,,,,,,,,,,,,,,,60ff8160e8f2227f8b200510,61036ee3df579df350590be2,2021-07-29_23h17.51.694,Simcolourproject_2stim_asymm_v5,2020.2.10,Win32,60,61025ae37ef11b136ea224fe,,,,,,,,,3697,33,74,1,0,0,response1disk,,7,-5,11,1,0,0,rectangle,-5,11,1,0,0,-5,11,1,0,0,1,89,249,5,1,,,,,,,,
,,,,,,,,,,,,,FF,,,,,,,,1.6049,,,,,,,,,,,,,,,,,,,,,,60ff8160e8f2227f8b200510,61036ee3df579df350590be2,2021-07-29_23h17.51.694,Simcolourproject_2stim_asymm_v5,2020.2.10,Win32,60,61025ae37ef11b136ea224fe,,,,,,,,,1641,71,25,1,0,0,response1disk,,6,25,1,1,0,0,rectangle,25,1,1,0,0,25,1,1,0,0,1,90,250,33,1,,,,,,,,
,,,,,,,,,,,,,FF,,,,,,,,1.0698,,,,,,,,,,,,,,,,,,,,,,60ff8160e8f2227f8b200510,61036ee3df579df350590be2,2021-07-29_23h17.51.694,Simcolourproject_2stim_asymm_v5,2020.2.10,Win32,60,61025ae37ef11b136ea224fe,,,,,,,,,2053,45,-30,1,0,0,response3disk,,5,15,-8,1,0,0,rectangle,15,-8,1,0,0,15,-8,1,0,0,1,91,251,140,1,,,,,,,,
,,,,,,,,,,,,,FF,,,,,,,,2.357,,,,,,,,,,,,,,,,,,,,,,60ff8160e8f2227f8b200510,61036ee3df579df350590be2,2021-07-29_23h17.51.694,Simcolourproject_2stim_asymm_v5,2020.2.10,Win32,60,61025ae37ef11b136ea224fe,,,,,,,,,499,19,75,1,0,0,response1disk,,7,6,10,1,0,0,rectangle,6,10,1,0,0,6,10,1,0,0,1,92,252,138,1,,,,,,,,
,,,,,,,,,,,,,FF,,,,,,,,1.6379,,,,,,,,,,,,,,,,,,,,,,60ff8160e8f2227f8b200510,61036ee3df579df350590be2,2021-07-29_23h17.51.694,Simcolourproject_2stim_asymm_v5,2020.2.10,Win32,60,61025ae37ef11b136ea224fe,,,,,,,,,1234,56,-20,1,0,0,response3disk,,5,2,4,1,0,0,rectangle,2,4,1,0,0,2,4,1,0,0,1,93,253,127,1,,,,,,,,
,,,,,,,,,,,,,FF,,,,,,,,0.6518,,,,,,,,,,,,,,,,,,,,,,60ff8160e8f2227f8b200510,61036ee3df579df350590be2,2021-07-29_23h17.51.694,Simcolourproject_2stim_asymm_v5,2020.2.10,Win32,60,61025ae37ef11b136ea224fe,,,,,,,,,2611,43,-23,1,0,0,response3disk,,5,10,-5,1,0,0,rectangle,10,-5,1,0,0,10,-5,1,0,0,1,94,254,72,1,,,,,,,,
,,,,,,,,,,,,,FF,,,,,,,,3.1594,,,,,,,,,,,,,,,,,,,,,,60ff8160e8f2227f8b200510,61036ee3df579df350590be2,2021-07-29_23h17.51.694,Simcolourproject_2stim_asymm_v5,2020.2.10,Win32,60,61025ae37ef11b136ea224fe,,,,,,,,,852,40,-66,1,0,0,response3disk,,4,10,-8,1,0,0,rectangle,10,-8,1,0,0,10,-8,1,0,0,1,95,255,88,1,,,,,,,,
,,,,,,,,,,,,,FF,,,,,,,,2.5408,,,,,,,,,,,,,,,,,,,,,,60ff8160e8f2227f8b200510,61036ee3df579df350590be2,2021-07-29_23h17.51.694,Simcolourproject_2stim_asymm_v5,2020.2.10,Win32,60,61025ae37ef11b136ea224fe,,,,,,,,,1578,69,-15,1,0,0,response3disk,,5,31,-10,1,0,0,rectangle,31,-10,1,0,0,31,-10,1,0,0,1,96,256,0,1,,,,,,,,
,,,,,,,,,,,,,FF,,,,,,,,1.3038,,,,,,,,,,,,,,,,,,,,,,60ff8160e8f2227f8b200510,61036ee3df579df350590be2,2021-07-29_23h17.51.694,Simcolourproject_2stim_asymm_v5,2020.2.10,Win32,60,61025ae37ef11b136ea224fe,,,,,,,,,1997,66,23,1,0,0,response1disk,,6,17,-2,1,0,0,rectangle,17,-2,1,0,0,17,-2,1,0,0,1,97,257,158,1,,,,,,,,
,,,,,,,,,,,,,FF,,,,,,,,0.7685,,,,,,,,,,,,,,,,,,,,,,60ff8160e8f2227f8b200510,61036ee3df579df350590be2,2021-07-29_23h17.51.694,Simcolourproject_2stim_asymm_v5,2020.2.10,Win32,60,61025ae37ef11b136ea224fe,,,,,,,,,1794,-26,-80,1,0,0,response5disk,,3,0,-7,1,0,0,rectangle,0,-7,1,0,0,0,-7,1,0,0,1,98,258,145,1,,,,,,,,
,,,,,,,,,,,,,FF,,,,,,,,0.669,,,,,,,,,,,,,,,,,,,,,,60ff8160e8f2227f8b200510,61036ee3df579df350590be2,2021-07-29_23h17.51.694,Simcolourproject_2stim_asymm_v5,2020.2.10,Win32,60,61025ae37ef11b136ea224fe,,,,,,,,,2282,25,85,1,0,0,response1disk,,7,-7,8,1,0,0,rectangle,-7,8,1,0,0,-7,8,1,0,0,1,99,259,39,1,,,,,,,,
,,,,,,,,,,,,,FF,,,,,,,,3.8106,,,,,,,,,,,,,,,,,,,,,,60ff8160e8f2227f8b200510,61036ee3df579df350590be2,2021-07-29_23h17.51.694,Simcolourproject_2stim_asymm_v5,2020.2.10,Win32,60,61025ae37ef11b136ea224fe,,,,,,,,,3442,77,22,1,0,0,response1disk,,6,12,6,1,0,0,rectangle,12,6,1,0,0,12,6,1,0,0,1,100,260,116,1,,,,,,,,
,,,,,,,,,,,,,FF,,,,,,,,1.0366,,,,,,,,,,,,,,,,,,,,,,60ff8160e8f2227f8b200510,61036ee3df579df350590be2,2021-07-29_23h17.51.694,Simcolourproject_2stim_asymm_v5,2020.2.10,Win32,60,61025ae37ef11b136ea224fe,,,,,,,,,2427,88,-50,1,0,0,response3disk,,5,22,-7,1,0,0,rectangle,22,-7,1,0,0,22,-7,1,0,0,1,101,261,15,1,,,,,,,,
,,,,,,,,,,,,,FF,,,,,,,,1.8717,,,,,,,,,,,,,,,,,,,,,,60ff8160e8f2227f8b200510,61036ee3df579df350590be2,2021-07-29_23h17.51.694,Simcolourproject_2stim_asymm_v5,2020.2.10,Win32,60,61025ae37ef11b136ea224fe,,,,,,,,,2858,65,41,1,0,0,response1disk,,6,18,5,1,0,0,rectangle,18,5,1,0,0,18,5,1,0,0,1,102,262,135,1,,,,,,,,
,,,,,,,,,,,,,FF,,,,,,,,1.5049,,,,,,,,,,,,,,,,,,,,,,60ff8160e8f2227f8b200510,61036ee3df579df350590be2,2021-07-29_23h17.51.694,Simcolourproject_2stim_asymm_v5,2020.2.10,Win32,60,61025ae37ef11b136ea224fe,,,,,,,,,4312,33,65,1,0,0,response1disk,,7,14,6,1,0,0,rectangle,14,6,1,0,0,14,6,1,0,0,1,103,263,122,1,,,,,,,,
,,,,,,,,,,,,,FF,,,,,,,,0.7357,,,,,,,,,,,,,,,,,,,,,,60ff8160e8f2227f8b200510,61036ee3df579df350590be2,2021-07-29_23h17.51.694,Simcolourproject_2stim_asymm_v5,2020.2.10,Win32,60,61025ae37ef11b136ea224fe,,,,,,,,,542,38,73,1,0,0,response1disk,,7,5,-1,1,0,0,rectangle,5,-1,1,0,0,5,-1,1,0,0,1,104,264,30,1,,,,,,,,
,,,,,,,,,,,,,FF,,,,,,,,1.2871,,,,,,,,,,,,,,,,,,,,,,60ff8160e8f2227f8b200510,61036ee3df579df350590be2,2021-07-29_23h17.51.694,Simcolourproject_2stim_asymm_v5,2020.2.10,Win32,60,61025ae37ef11b136ea224fe,,,,,,,,,3034,51,26,1,0,0,response1disk,,6,20,-4,1,0,0,rectangle,20,-4,1,0,0,20,-4,1,0,0,1,105,265,8,1,,,,,,,,
,,,,,,,,,,,,,FF,,,,,,,,1.5041,,,,,,,,,,,,,,,,,,,,,,60ff8160e8f2227f8b200510,61036ee3df579df350590be2,2021-07-29_23h17.51.694,Simcolourproject_2stim_asymm_v5,2020.2.10,Win32,60,61025ae37ef11b136ea224fe,,,,,,,,,1789,70,23,1,0,0,response1disk,,6,11,-10,1,0,0,rectangle,11,-10,1,0,0,11,-10,1,0,0,1,106,266,94,1,,,,,,,,
,,,,,,,,,,,,,FF,,,,,,,,1.7718,,,,,,,,,,,,,,,,,,,,,,60ff8160e8f2227f8b200510,61036ee3df579df350590be2,2021-07-29_23h17.51.694,Simcolourproject_2stim_asymm_v5,2020.2.10,Win32,60,61025ae37ef11b136ea224fe,,,,,,,,,3075,63,-31,1,0,0,response3disk,,5,30,-8,1,0,0,rectangle,30,-8,1,0,0,30,-8,1,0,0,1,107,267,114,1,,,,,,,,
,,,,,,,,,,,,,FF,,,,,,,,1.8383,,,,,,,,,,,,,,,,,,,,,,60ff8160e8f2227f8b200510,61036ee3df579df350590be2,2021-07-29_23h17.51.694,Simcolourproject_2stim_asymm_v5,2020.2.10,Win32,60,61025ae37ef11b136ea224fe,,,,,,,,,810,-23,-94,1,0,0,response5disk,,3,-14,9,1,0,0,rectangle,-14,9,1,0,0,-14,9,1,0,0,1,108,268,118,1,,,,,,,,
,,,,,,,,,,,,,FF,,,,,,,,0.8864,,,,,,,,,,,,,,,,,,,,,,60ff8160e8f2227f8b200510,61036ee3df579df350590be2,2021-07-29_23h17.51.694,Simcolourproject_2stim_asymm_v5,2020.2.10,Win32,60,61025ae37ef11b136ea224fe,,,,,,,,,2951,-16,-65,1,0,0,response5disk,,3,5,-11,1,0,0,rectangle,5,-11,1,0,0,5,-11,1,0,0,1,109,269,137,1,,,,,,,,
,,,,,,,,,,,,,FF,,,,,,,,1.3707,,,,,,,,,,,,,,,,,,,,,,60ff8160e8f2227f8b200510,61036ee3df579df350590be2,2021-07-29_23h17.51.694,Simcolourproject_2stim_asymm_v5,2020.2.10,Win32,60,61025ae37ef11b136ea224fe,,,,,,,,,2072,60,-67,1,0,0,response3disk,,4,21,-14,1,0,0,rectangle,21,-14,1,0,0,21,-14,1,0,0,1,110,270,24,1,,,,,,,,
,,,,,,,,,,,,,FF,,,,,,,,0.869,,,,,,,,,,,,,,,,,,,,,,60ff8160e8f2227f8b200510,61036ee3df579df350590be2,2021-07-29_23h17.51.694,Simcolourproject_2stim_asymm_v5,2020.2.10,Win32,60,61025ae37ef11b136ea224fe,,,,,,,,,535,67,-40,1,0,0,response3disk,,5,6,-1,1,0,0,rectangle,6,-1,1,0,0,6,-1,1,0,0,1,111,271,142,1,,,,,,,,
,,,,,,,,,,,,,FF,,,,,,,,1.22,,,,,,,,,,,,,,,,,,,,,,60ff8160e8f2227f8b200510,61036ee3df579df350590be2,2021-07-29_23h17.51.694,Simcolourproject_2stim_asymm_v5,2020.2.10,Win32,60,61025ae37ef11b136ea224fe,,,,,,,,,4137,29,68,1,0,0,response1disk,,7,9,3,1,0,0,rectangle,9,3,1,0,0,9,3,1,0,0,1,112,272,129,1,,,,,,,,
,,,,,,,,,,,,,FF,,,,,,,,2.0559,,,,,,,,,,,,,,,,,,,,,,60ff8160e8f2227f8b200510,61036ee3df579df350590be2,2021-07-29_23h17.51.694,Simcolourproject_2stim_asymm_v5,2020.2.10,Win32,60,61025ae37ef11b136ea224fe,,,,,,,,,1374,-43,-74,1,0,0,response5disk,,3,-4,2,1,0,0,rectangle,-4,2,1,0,0,-4,2,1,0,0,1,113,273,45,1,,,,,,,,
,,,,,,,,,,,,,FF,,,,,,,,0.7521,,,,,,,,,,,,,,,,,,,,,,60ff8160e8f2227f8b200510,61036ee3df579df350590be2,2021-07-29_23h17.51.694,Simcolourproject_2stim_asymm_v5,2020.2.10,Win32,60,61025ae37ef11b136ea224fe,,,,,,,,,629,30,72,1,0,0,response1disk,,7,-4,7,1,0,0,rectangle,-4,7,1,0,0,-4,7,1,0,0,1,114,274,79,1,,,,,,,,
,,,,,,,,,,,,,FF,,,,,,,,0.9695,,,,,,,,,,,,,,,,,,,,,,60ff8160e8f2227f8b200510,61036ee3df579df350590be2,2021-07-29_23h17.51.694,Simcolourproject_2stim_asymm_v5,2020.2.10,Win32,60,61025ae37ef11b136ea224fe,,,,,,,,,1784,64,33,1,0,0,response1disk,,6,-2,11,1,0,0,rectangle,-2,11,1,0,0,-2,11,1,0,0,1,115,275,1,1,,,,,,,,
,,,,,,,,,,,,,FF,,,,,,,,1.0197,,,,,,,,,,,,,,,,,,,,,,60ff8160e8f2227f8b200510,61036ee3df579df350590be2,2021-07-29_23h17.51.694,Simcolourproject_2stim_asymm_v5,2020.2.10,Win32,60,61025ae37ef11b136ea224fe,,,,,,,,,367,-63,-39,1,0,0,response5disk,,2,11,-5,1,0,0,rectangle,11,-5,1,0,0,11,-5,1,0,0,1,116,276,37,1,,,,,,,,
,,,,,,,,,,,,,FF,,,,,,,,2.5581,,,,,,,,,,,,,,,,,,,,,,60ff8160e8f2227f8b200510,61036ee3df579df350590be2,2021-07-29_23h17.51.694,Simcolourproject_2stim_asymm_v5,2020.2.10,Win32,60,61025ae37ef11b136ea224fe,,,,,,,,,3574,76,-45,1,0,0,response3disk,,5,18,5,1,0,0,rectangle,18,5,1,0,0,18,5,1,0,0,1,117,277,95,1,,,,,,,,
,,,,,,,,,,,,,FF,,,,,,,,0.9195,,,,,,,,,,,,,,,,,,,,,,60ff8160e8f2227f8b200510,61036ee3df579df350590be2,2021-07-29_23h17.51.694,Simcolourproject_2stim_asymm_v5,2020.2.10,Win32,60,61025ae37ef11b136ea224fe,,,,,,,,,2501,36,54,1,0,0,response1disk,,7,15,-11,1,0,0,rectangle,-37,65,1,0,0,11,-1,1,0,0,1,118,278,27,1,,response7disk_3,TRUE,0,0,"[204,200,323,38,205,174,59,95,84,283,61,25,279,216,4,306,320,86,231,291]",1.1542,rectangle
,,,,,,,,,,,,,FF,,,,,,,,1.0543,,,,,,,,,,,,,,,,,,,,,,60ff8160e8f2227f8b200510,61036ee3df579df350590be2,2021-07-29_23h17.51.694,Simcolourproject_2stim_asymm_v5,2020.2.10,Win32,60,61025ae37ef11b136ea224fe,,,,,,,,,2336,39,62,1,0,0,response1disk,,7,18,7,1,0,0,rectangle,18,7,1,0,0,18,7,1,0,0,1,119,279,112,1,,,,,,,,
,,,,,,,,,,,,,FF,,,,,,,,1.1363,,,,,,,,,,,,,,,,,,,,,,60ff8160e8f2227f8b200510,61036ee3df579df350590be2,2021-07-29_23h17.51.694,Simcolourproject_2stim_asymm_v5,2020.2.10,Win32,60,61025ae37ef11b136ea224fe,,,,,,,,,2644,70,34,1,0,0,response1disk,,6,17,0,1,0,0,rectangle,17,0,1,0,0,17,0,1,0,0,1,120,280,149,1,,,,,,,,
,,,,,,,,,,,,,FF,,,,,,,,1.4875,,,,,,,,,,,,,,,,,,,,,,60ff8160e8f2227f8b200510,61036ee3df579df350590be2,2021-07-29_23h17.51.694,Simcolourproject_2stim_asymm_v5,2020.2.10,Win32,60,61025ae37ef11b136ea224fe,,,,,,,,,258,42,-92,1,0,0,response3disk,,4,19,7,1,0,0,rectangle,19,7,1,0,0,19,7,1,0,0,1,121,281,110,1,,,,,,,,
,,,,,,,,,,,,,FF,,,,,,,,1.2539,,,,,,,,,,,,,,,,,,,,,,60ff8160e8f2227f8b200510,61036ee3df579df350590be2,2021-07-29_23h17.51.694,Simcolourproject_2stim_asymm_v5,2020.2.10,Win32,60,61025ae37ef11b136ea224fe,,,,,,,,,526,29,-83,1,0,0,response3disk,,4,1,-10,1,0,0,rectangle,75,31,1,0,0,18,8,1,0,0,1,122,282,75,1,,response1disk_3,TRUE,6,6,"[204,200,323,38,205,174,59,95,84,283,61,25,279,216,4,306,320,86,231,291]",1.588,rectangle
,,,,,,,,,,,,,FF,,,,,,,,1.4878,,,,,,,,,,,,,,,,,,,,,,60ff8160e8f2227f8b200510,61036ee3df579df350590be2,2021-07-29_23h17.51.694,Simcolourproject_2stim_asymm_v5,2020.2.10,Win32,60,61025ae37ef11b136ea224fe,,,,,,,,,4307,84,31,1,0,0,response1disk,,6,21,-2,1,0,0,rectangle,21,-2,1,0,0,21,-2,1,0,0,1,123,283,40,1,,,,,,,,
,,,,,,,,,,,,,FF,,,,,,,,3.0422,,,,,,,,,,,,,,,,,,,,,,60ff8160e8f2227f8b200510,61036ee3df579df350590be2,2021-07-29_23h17.51.694,Simcolourproject_2stim_asymm_v5,2020.2.10,Win32,60,61025ae37ef11b136ea224fe,,,,,,,,,299,90,25,1,0,0,response1disk,,6,21,-4,1,0,0,rectangle,21,-4,1,0,0,21,-4,1,0,0,1,124,284,59,1,,,,,,,,
,,,,,,,,,,,,,FF,,,,,,,,1.287,,,,,,,,,,,,,,,,,,,,,,60ff8160e8f2227f8b200510,61036ee3df579df350590be2,2021-07-29_23h17.51.694,Simcolourproject_2stim_asymm_v5,2020.2.10,Win32,60,61025ae37ef11b136ea224fe,,,,,,,,,130,62,28,1,0,0,response1disk,,6,26,6,1,0,0,rectangle,26,6,1,0,0,26,6,1,0,0,1,125,285,148,1,,,,,,,,
,,,,,,,,,,,,,FF,,,,,,,,0.5682,,,,,,,,,,,,,,,,,,,,,,60ff8160e8f2227f8b200510,61036ee3df579df350590be2,2021-07-29_23h17.51.694,Simcolourproject_2stim_asymm_v5,2020.2.10,Win32,60,61025ae37ef11b136ea224fe,,,,,,,,,2977,52,16,1,0,0,response1disk,,6,15,-1,1,0,0,rectangle,15,-1,1,0,0,15,-1,1,0,0,1,126,286,10,1,,,,,,,,
,,,,,,,,,,,,,FF,,,,,,,,1.2034,,,,,,,,,,,,,,,,,,,,,,60ff8160e8f2227f8b200510,61036ee3df579df350590be2,2021-07-29_23h17.51.694,Simcolourproject_2stim_asymm_v5,2020.2.10,Win32,60,61025ae37ef11b136ea224fe,,,,,,,,,694,66,-32,1,0,0,response3disk,,5,29,-6,1,0,0,rectangle,29,-6,1,0,0,29,-6,1,0,0,1,127,287,57,1,,,,,,,,
,,,,,,,,,,,,,FF,,,,,,,,0.9693,,,,,,,,,,,,,,,,,,,,,,60ff8160e8f2227f8b200510,61036ee3df579df350590be2,2021-07-29_23h17.51.694,Simcolourproject_2stim_asymm_v5,2020.2.10,Win32,60,61025ae37ef11b136ea224fe,,,,,,,,,641,45,-38,1,0,0,response3disk,,5,27,-9,1,0,0,rectangle,27,-9,1,0,0,27,-9,1,0,0,1,128,288,38,1,,,,,,,,
,,,,,,,,,,,,,FF,,,,,,,,1.7048,,,,,,,,,,,,,,,,,,,,,,60ff8160e8f2227f8b200510,61036ee3df579df350590be2,2021-07-29_23h17.51.694,Simcolourproject_2stim_asymm_v5,2020.2.10,Win32,60,61025ae37ef11b136ea224fe,,,,,,,,,1302,34,-84,1,0,0,response3disk,,4,14,-2,1,0,0,rectangle,14,-2,1,0,0,14,-2,1,0,0,1,129,289,12,1,,,,,,,,
,,,,,,,,,,,,,FF,,,,,,,,2.4903,,,,,,,,,,,,,,,,,,,,,,60ff8160e8f2227f8b200510,61036ee3df579df350590be2,2021-07-29_23h17.51.694,Simcolourproject_2stim_asymm_v5,2020.2.10,Win32,60,61025ae37ef11b136ea224fe,,,,,,,,,2256,68,-35,1,0,0,response3disk,,5,23,0,1,0,0,rectangle,26,-87,1,0,0,-7,3,1,0,0,1,130,290,117,1,,response3disk_3,TRUE,4,4,"[204,200,323,38,205,174,59,95,84,283,61,25,279,216,4,306,320,86,231,291]",1.1194,rectangle
,,,,,,,,,,,,,FF,,,,,,,,1.6542,,,,,,,,,,,,,,,,,,,,,,60ff8160e8f2227f8b200510,61036ee3df579df350590be2,2021-07-29_23h17.51.694,Simcolourproject_2stim_asymm_v5,2020.2.10,Win32,60,61025ae37ef11b136ea224fe,,,,,,,,,656,62,-33,1,0,0,response3disk,,5,0,-6,1,0,0,rectangle,0,-6,1,0,0,0,-6,1,0,0,1,131,291,41,1,,,,,,,,
,,,,,,,,,,,,,FF,,,,,,,,1.4045,,,,,,,,,,,,,,,,,,,,,,60ff8160e8f2227f8b200510,61036ee3df579df350590be2,2021-07-29_23h17.51.694,Simcolourproject_2stim_asymm_v5,2020.2.10,Win32,60,61025ae37ef11b136ea224fe,,,,,,,,,2289,-47,-108,1,0,0,response5disk,,3,-1,3,1,0,0,rectangle,-1,3,1,0,0,-1,3,1,0,0,1,132,292,4,1,,,,,,,,
,,,,,,,,,,,,,FF,,,,,,,,4.7637,,,,,,,,,,,,,,,,,,,,,,60ff8160e8f2227f8b200510,61036ee3df579df350590be2,2021-07-29_23h17.51.694,Simcolourproject_2stim_asymm_v5,2020.2.10,Win32,60,61025ae37ef11b136ea224fe,,,,,,,,,1405,42,-79,1,0,0,response3disk,,4,21,-7,1,0,0,rectangle,21,-7,1,0,0,21,-7,1,0,0,1,133,293,144,1,,,,,,,,
,,,,,,,,,,,,,FF,,,,,,,,1.1199,,,,,,,,,,,,,,,,,,,,,,60ff8160e8f2227f8b200510,61036ee3df579df350590be2,2021-07-29_23h17.51.694,Simcolourproject_2stim_asymm_v5,2020.2.10,Win32,60,61025ae37ef11b136ea224fe,,,,,,,,,65,-32,-82,1,0,0,response5disk,,3,-15,4,1,0,0,rectangle,-15,4,1,0,0,-15,4,1,0,0,1,134,294,111,1,,,,,,,,
,,,,,,,,,,,,,FF,,,,,,,,1.1365,,,,,,,,,,,,,,,,,,,,,,60ff8160e8f2227f8b200510,61036ee3df579df350590be2,2021-07-29_23h17.51.694,Simcolourproject_2stim_asymm_v5,2020.2.10,Win32,60,61025ae37ef11b136ea224fe,,,,,,,,,1464,36,-73,1,0,0,response3disk,,4,1,-7,1,0,0,rectangle,1,-7,1,0,0,1,-7,1,0,0,1,135,295,21,1,,,,,,,,
,,,,,,,,,,,,,FF,,,,,,,,2.3732,,,,,,,,,,,,,,,,,,,,,,60ff8160e8f2227f8b200510,61036ee3df579df350590be2,2021-07-29_23h17.51.694,Simcolourproject_2stim_asymm_v5,2020.2.10,Win32,60,61025ae37ef11b136ea224fe,,,,,,,,,1709,66,20,1,0,0,response1disk,,6,11,-2,1,0,0,rectangle,11,-2,1,0,0,11,-2,1,0,0,1,136,296,42,1,,,,,,,,
,,,,,,,,,,,,,FF,,,,,,,,1.0371,,,,,,,,,,,,,,,,,,,,,,60ff8160e8f2227f8b200510,61036ee3df579df350590be2,2021-07-29_23h17.51.694,Simcolourproject_2stim_asymm_v5,2020.2.10,Win32,60,61025ae37ef11b136ea224fe,,,,,,,,,3840,53,29,1,0,0,response1disk,,6,-16,3,1,0,0,rectangle,-16,3,1,0,0,-16,3,1,0,0,1,137,297,28,1,,,,,,,,
,,,,,,,,,,,,,FF,,,,,,,,1.2203,,,,,,,,,,,,,,,,,,,,,,60ff8160e8f2227f8b200510,61036ee3df579df350590be2,2021-07-29_23h17.51.694,Simcolourproject_2stim_asymm_v5,2020.2.10,Win32,60,61025ae37ef11b136ea224fe,,,,,,,,,2357,39,-69,1,0,0,response3disk,,4,15,-8,1,0,0,rectangle,15,-8,1,0,0,15,-8,1,0,0,1,138,298,77,1,,,,,,,,
,,,,,,,,,,,,,FF,,,,,,,,0.8023,,,,,,,,,,,,,,,,,,,,,,60ff8160e8f2227f8b200510,61036ee3df579df350590be2,2021-07-29_23h17.51.694,Simcolourproject_2stim_asymm_v5,2020.2.10,Win32,60,61025ae37ef11b136ea224fe,,,,,,,,,3713,28,-64,1,0,0,response3disk,,4,19,-9,1,0,0,rectangle,19,-9,1,0,0,19,-9,1,0,0,1,139,299,109,1,,,,,,,,
,,,,,,,,,,,,,FF,,,,,,,,1.0361,,,,,,,,,,,,,,,,,,,,,,60ff8160e8f2227f8b200510,61036ee3df579df350590be2,2021-07-29_23h17.51.694,Simcolourproject_2stim_asymm_v5,2020.2.10,Win32,60,61025ae37ef11b136ea224fe,,,,,,,,,570,56,-23,1,0,0,response3disk,,5,11,-6,1,0,0,rectangle,11,-6,1,0,0,11,-6,1,0,0,1,140,300,44,1,,,,,,,,
,,,,,,,,,,,,,FF,,,,,,,,0.8018,,,,,,,,,,,,,,,,,,,,,,60ff8160e8f2227f8b200510,61036ee3df579df350590be2,2021-07-29_23h17.51.694,Simcolourproject_2stim_asymm_v5,2020.2.10,Win32,60,61025ae37ef11b136ea224fe,,,,,,,,,1133,56,-29,1,0,0,response3disk,,5,17,0,1,0,0,rectangle,17,0,1,0,0,17,0,1,0,0,1,141,301,108,1,,,,,,,,
,,,,,,,,,,,,,FF,,,,,,,,1.1702,,,,,,,,,,,,,,,,,,,,,,60ff8160e8f2227f8b200510,61036ee3df579df350590be2,2021-07-29_23h17.51.694,Simcolourproject_2stim_asymm_v5,2020.2.10,Win32,60,61025ae37ef11b136ea224fe,,,,,,,,,1176,60,-23,1,0,0,response3disk,,5,31,1,1,0,0,rectangle,31,1,1,0,0,31,1,1,0,0,1,142,302,87,1,,,,,,,,
,,,,,,,,,,,,,FF,,,,,,,,0.8691,,,,,,,,,,,,,,,,,,,,,,60ff8160e8f2227f8b200510,61036ee3df579df350590be2,2021-07-29_23h17.51.694,Simcolourproject_2stim_asymm_v5,2020.2.10,Win32,60,61025ae37ef11b136ea224fe,,,,,,,,,2776,57,-28,1,0,0,response3disk,,5,16,-3,1,0,0,rectangle,16,-3,1,0,0,16,-3,1,0,0,1,143,303,132,1,,,,,,,,
