key_resp.keys,key_resp.rt,key_resp_14.keys,key_resp_14.rt,key_resp_15.keys,key_resp_15.rt,key_resp_17.keys,key_resp_17.rt,key_resp_9.keys,key_resp_9.rt,key_resp_10.keys,key_resp_10.rt,practice_comparison,Ecc,mouse_5.x,mouse_5.y,mouse_5.leftButton,mouse_5.midButton,mouse_5.rightButton,mouse_5.clicked_name,pracsimilarity,response_time,mouse_10.x,mouse_10.y,mouse_10.leftButton,mouse_10.midButton,mouse_10.rightButton,mouse_10.clicked_name,mouse_7.x,mouse_7.y,mouse_7.leftButton,mouse_7.midButton,mouse_7.rightButton,mouse_6.x,mouse_6.y,mouse_6.leftButton,mouse_6.midButton,mouse_6.rightButton,duringprac.thisRepN,duringprac.thisTrialN,duringprac.thisN,duringprac.thisIndex,duringprac.ran,participant,session,date,expName,psychopyVersion,OS,frameRate,study_id,mouse_7.clicked_name,catchpracsimilarity,catch_response_time,catchnumberprac,catchtrialorderprac,mouse_6.clicked_name,key_resp_22.keys,key_resp_22.rt,realcomparison,mouse.x,mouse.y,mouse.leftButton,mouse.midButton,mouse.rightButton,mouse.clicked_name,Colour2,similarity,mouse_2.x,mouse_2.y,mouse_2.leftButton,mouse_2.midButton,mouse_2.rightButton,mouse_2.clicked_name,mouse_3.x,mouse_3.y,mouse_3.leftButton,mouse_3.midButton,mouse_3.rightButton,mouse_11.x,mouse_11.y,mouse_11.leftButton,mouse_11.midButton,mouse_11.rightButton,trials_2.thisRepN,trials_2.thisTrialN,trials_2.thisN,trials_2.thisIndex,trials_2.ran,Colour1,mouse_3.clicked_name,catchornah,catchsimilarity,catchnumber,catchtrialorder,catchRT,mouse_11.clicked_name
space,13.8208,space,12.8967,space,19.8848,space,3.2846,space,0.9,space,5.0762,71,FF,119.9765625,29.546875,1,0,0,response1disk_5,6,6.5714,-3.0625,8.51953125,1,0,0,rectangle_8,-3.0625,8.51953125,1,0,0,-3.0625,8.51953125,1,0,0,0,0,0,3,1,60ff834ced6d44e459722347,61036c3227167b5fe2888614,2021-07-29_22h04.53.382,Simcolourproject_2stim_asymm_v5,2020.2.10,MacIntel,60,61025ae37ef11b136ea224fe,,,,,,,,,,,,,,,,,,,,,,,,,,,,,,,,,,,,,,,,,,,,,,
,,,,,,,,,,,,49,PF,34.66015625,72.4375,1,0,0,response1disk_5,7,1.5499,6.90234375,4.515625,1,0,0,rectangle_8,-82.28125,-42.3984375,1,0,0,-16.24609375,-7.9140625,1,0,0,0,1,1,1,1,60ff834ced6d44e459722347,61036c3227167b5fe2888614,2021-07-29_22h04.53.382,Simcolourproject_2stim_asymm_v5,2020.2.10,MacIntel,60,61025ae37ef11b136ea224fe,response5disk_7,2,4.285,2,"[2,5]",rectangle_4,,,,,,,,,,,,,,,,,,,,,,,,,,,,,,,,,,,,,,,,
,,,,,,,,,,,,74,PF,35.75,52.421875,1,0,0,response1disk_5,7,2.6498,-3.12890625,1.30859375,1,0,0,rectangle_8,-3.12890625,1.30859375,1,0,0,-3.12890625,1.30859375,1,0,0,0,2,2,6,1,60ff834ced6d44e459722347,61036c3227167b5fe2888614,2021-07-29_22h04.53.382,Simcolourproject_2stim_asymm_v5,2020.2.10,MacIntel,60,61025ae37ef11b136ea224fe,,,,,,,,,,,,,,,,,,,,,,,,,,,,,,,,,,,,,,,,,,,,,,
,,,,,,,,,,,,48,FF,37.04296875,65.796875,1,0,0,response1disk_5,7,1.2657,9.4921875,2.30078125,1,0,0,rectangle_8,9.4921875,2.30078125,1,0,0,9.4921875,2.30078125,1,0,0,0,3,3,0,1,60ff834ced6d44e459722347,61036c3227167b5fe2888614,2021-07-29_22h04.53.382,Simcolourproject_2stim_asymm_v5,2020.2.10,MacIntel,60,61025ae37ef11b136ea224fe,,,,,,,,,,,,,,,,,,,,,,,,,,,,,,,,,,,,,,,,,,,,,,
,,,,,,,,,,,,32,PF,78.02734375,32.58203125,1,0,0,response1disk_5,6,1.6666,16.94921875,-3.421875,1,0,0,rectangle_8,-74.5,-42.1328125,1,0,0,-13.765625,-14.59375,1,0,0,0,4,4,2,1,60ff834ced6d44e459722347,61036c3227167b5fe2888614,2021-07-29_22h04.53.382,Simcolourproject_2stim_asymm_v5,2020.2.10,MacIntel,60,61025ae37ef11b136ea224fe,response5disk_7,2,1.9664,2,"[2,5]",rectangle_4,,,,,,,,,,,,,,,,,,,,,,,,,,,,,,,,,,,,,,,,
,,,,,,,,,,,,0,PF,-57.69921875,99.71875,1,0,0,response7disk_5,0,2.1361,-1.57421875,0.65234375,1,0,0,rectangle_8,-1.57421875,0.65234375,1,0,0,-1.57421875,0.65234375,1,0,0,0,5,5,4,1,60ff834ced6d44e459722347,61036c3227167b5fe2888614,2021-07-29_22h04.53.382,Simcolourproject_2stim_asymm_v5,2020.2.10,MacIntel,60,61025ae37ef11b136ea224fe,,,,,,,,,,,,,,,,,,,,,,,,,,,,,,,,,,,,,,,,,,,,,,
,,,,,,,,,,,,158,FF,-39.93359375,-90.51171875,1,0,0,response5disk_5,3,1.484,11.01953125,-7.31640625,1,0,0,rectangle_8,11.01953125,-7.31640625,1,0,0,11.01953125,-7.31640625,1,0,0,0,6,6,5,1,60ff834ced6d44e459722347,61036c3227167b5fe2888614,2021-07-29_22h04.53.382,Simcolourproject_2stim_asymm_v5,2020.2.10,MacIntel,60,61025ae37ef11b136ea224fe,,,,,,,,,,,,,,,,,,,,,,,,,,,,,,,,,,,,,,,,,,,,,,
,,,,,,,,,,,,,FF,,,,,,,,1.4358,,,,,,,,,,,,,,,,,,,,,,60ff834ced6d44e459722347,61036c3227167b5fe2888614,2021-07-29_22h04.53.382,Simcolourproject_2stim_asymm_v5,2020.2.10,MacIntel,60,61025ae37ef11b136ea224fe,,,,,,,space,5.0973,3936,-29.94921875,102.9101563,1,0,0,response7disk,,0,-17.8046875,1.79296875,1,0,0,rectangle,-17.8046875,1.79296875,1,0,0,-17.8046875,1.79296875,1,0,0,0,0,0,116,1,,,,,,,,
,,,,,,,,,,,,,FF,,,,,,,,1.6314,,,,,,,,,,,,,,,,,,,,,,60ff834ced6d44e459722347,61036c3227167b5fe2888614,2021-07-29_22h04.53.382,Simcolourproject_2stim_asymm_v5,2020.2.10,MacIntel,60,61025ae37ef11b136ea224fe,,,,,,,,,3360,73.20703125,-46.01953125,1,0,0,response3disk,,5,8.43359375,-2.140625,1,0,0,rectangle,8.43359375,-2.140625,1,0,0,8.43359375,-2.140625,1,0,0,0,1,1,90,1,,,,,,,,
,,,,,,,,,,,,,FF,,,,,,,,1.0358,,,,,,,,,,,,,,,,,,,,,,60ff834ced6d44e459722347,61036c3227167b5fe2888614,2021-07-29_22h04.53.382,Simcolourproject_2stim_asymm_v5,2020.2.10,MacIntel,60,61025ae37ef11b136ea224fe,,,,,,,,,3272,44.20703125,64.45703125,1,0,0,response1disk,,7,26.21484375,4.53125,1,0,0,rectangle,26.21484375,4.53125,1,0,0,26.21484375,4.53125,1,0,0,0,2,2,79,1,,,,,,,,
,,,,,,,,,,,,,FF,,,,,,,,2.0679,,,,,,,,,,,,,,,,,,,,,,60ff834ced6d44e459722347,61036c3227167b5fe2888614,2021-07-29_22h04.53.382,Simcolourproject_2stim_asymm_v5,2020.2.10,MacIntel,60,61025ae37ef11b136ea224fe,,,,,,,,,2736,-24.52734375,-63.26171875,1,0,0,response5disk,,3,13.31640625,-5.28515625,1,0,0,rectangle,13.31640625,-5.28515625,1,0,0,13.31640625,-5.28515625,1,0,0,0,3,3,10,1,,,,,,,,
,,,,,,,,,,,,,FF,,,,,,,,1.2308,,,,,,,,,,,,,,,,,,,,,,60ff834ced6d44e459722347,61036c3227167b5fe2888614,2021-07-29_22h04.53.382,Simcolourproject_2stim_asymm_v5,2020.2.10,MacIntel,60,61025ae37ef11b136ea224fe,,,,,,,,,196,25.625,-74.48046875,1,0,0,response3disk,,4,9.10546875,-8.60546875,1,0,0,rectangle,9.10546875,-8.60546875,1,0,0,9.10546875,-8.60546875,1,0,0,0,4,4,158,1,,,,,,,,
,,,,,,,,,,,,,FF,,,,,,,,1.5182,,,,,,,,,,,,,,,,,,,,,,60ff834ced6d44e459722347,61036c3227167b5fe2888614,2021-07-29_22h04.53.382,Simcolourproject_2stim_asymm_v5,2020.2.10,MacIntel,60,61025ae37ef11b136ea224fe,,,,,,,,,2721,-101.6757813,-28.04296875,1,0,0,response5disk,,2,-4.9765625,-4.16796875,1,0,0,rectangle,-4.9765625,-4.16796875,1,0,0,-4.9765625,-4.16796875,1,0,0,0,5,5,148,1,,,,,,,,
,,,,,,,,,,,,,FF,,,,,,,,0.9668,,,,,,,,,,,,,,,,,,,,,,60ff834ced6d44e459722347,61036c3227167b5fe2888614,2021-07-29_22h04.53.382,Simcolourproject_2stim_asymm_v5,2020.2.10,MacIntel,60,61025ae37ef11b136ea224fe,,,,,,,,,924,34.3046875,73.62109375,1,0,0,response1disk,,7,0.0078125,-10.734375,1,0,0,rectangle,0.0078125,-10.734375,1,0,0,0.0078125,-10.734375,1,0,0,0,6,6,102,1,,,,,,,,
,,,,,,,,,,,,,FF,,,,,,,,1.5328,,,,,,,,,,,,,,,,,,,,,,60ff834ced6d44e459722347,61036c3227167b5fe2888614,2021-07-29_22h04.53.382,Simcolourproject_2stim_asymm_v5,2020.2.10,MacIntel,60,61025ae37ef11b136ea224fe,,,,,,,,,2429,73.61328125,-35.16015625,1,0,0,response3disk,,5,11.50390625,-1.41796875,1,0,0,rectangle,11.50390625,-1.41796875,1,0,0,11.50390625,-1.41796875,1,0,0,0,7,7,77,1,,,,,,,,
,,,,,,,,,,,,,FF,,,,,,,,1.4331,,,,,,,,,,,,,,,,,,,,,,60ff834ced6d44e459722347,61036c3227167b5fe2888614,2021-07-29_22h04.53.382,Simcolourproject_2stim_asymm_v5,2020.2.10,MacIntel,60,61025ae37ef11b136ea224fe,,,,,,,,,535,72.40625,32.15234375,1,0,0,response1disk,,6,7.33203125,7.45703125,1,0,0,rectangle,7.33203125,7.45703125,1,0,0,7.33203125,7.45703125,1,0,0,0,8,8,24,1,,,,,,,,
,,,,,,,,,,,,,FF,,,,,,,,2.1666,,,,,,,,,,,,,,,,,,,,,,60ff834ced6d44e459722347,61036c3227167b5fe2888614,2021-07-29_22h04.53.382,Simcolourproject_2stim_asymm_v5,2020.2.10,MacIntel,60,61025ae37ef11b136ea224fe,,,,,,,,,701,79.59375,-50.07421875,1,0,0,response3disk,,5,10.81640625,-5.7734375,1,0,0,rectangle,10.81640625,-5.7734375,1,0,0,10.81640625,-5.7734375,1,0,0,0,9,9,84,1,,,,,,,,
,,,,,,,,,,,,,FF,,,,,,,,0.9541,,,,,,,,,,,,,,,,,,,,,,60ff834ced6d44e459722347,61036c3227167b5fe2888614,2021-07-29_22h04.53.382,Simcolourproject_2stim_asymm_v5,2020.2.10,MacIntel,60,61025ae37ef11b136ea224fe,,,,,,,,,4045,75.98828125,47.94140625,1,0,0,response1disk,,6,-10.1328125,4.59375,1,0,0,rectangle,-10.1328125,4.59375,1,0,0,-10.1328125,4.59375,1,0,0,0,10,10,19,1,,,,,,,,
,,,,,,,,,,,,,FF,,,,,,,,1.2156,,,,,,,,,,,,,,,,,,,,,,60ff834ced6d44e459722347,61036c3227167b5fe2888614,2021-07-29_22h04.53.382,Simcolourproject_2stim_asymm_v5,2020.2.10,MacIntel,60,61025ae37ef11b136ea224fe,,,,,,,,,2236,-76.8515625,-39.9375,1,0,0,response5disk,,2,3.171875,-9.359375,1,0,0,rectangle,3.171875,-9.359375,1,0,0,3.171875,-9.359375,1,0,0,0,11,11,127,1,,,,,,,,
,,,,,,,,,,,,,FF,,,,,,,,0.8177,,,,,,,,,,,,,,,,,,,,,,60ff834ced6d44e459722347,61036c3227167b5fe2888614,2021-07-29_22h04.53.382,Simcolourproject_2stim_asymm_v5,2020.2.10,MacIntel,60,61025ae37ef11b136ea224fe,,,,,,,,,472,45.85546875,71.69921875,1,0,0,response1disk,,7,8.12109375,-7.78125,1,0,0,rectangle,8.12109375,-7.78125,1,0,0,8.12109375,-7.78125,1,0,0,0,12,12,14,1,,,,,,,,
,,,,,,,,,,,,,FF,,,,,,,,1.2978,,,,,,,,,,,,,,,,,,,,,,60ff834ced6d44e459722347,61036c3227167b5fe2888614,2021-07-29_22h04.53.382,Simcolourproject_2stim_asymm_v5,2020.2.10,MacIntel,60,61025ae37ef11b136ea224fe,,,,,,,,,195,33.84765625,-84.73828125,1,0,0,response3disk,,4,16.65625,-14.9765625,1,0,0,rectangle,16.65625,-14.9765625,1,0,0,16.65625,-14.9765625,1,0,0,0,13,13,82,1,,,,,,,,
,,,,,,,,,,,,,FF,,,,,,,,1.1021,,,,,,,,,,,,,,,,,,,,,,60ff834ced6d44e459722347,61036c3227167b5fe2888614,2021-07-29_22h04.53.382,Simcolourproject_2stim_asymm_v5,2020.2.10,MacIntel,60,61025ae37ef11b136ea224fe,,,,,,,,,3999,41.453125,-82.9140625,1,0,0,response3disk,,4,17.19140625,-2.3671875,1,0,0,rectangle,17.19140625,-2.3671875,1,0,0,17.19140625,-2.3671875,1,0,0,0,14,14,31,1,,,,,,,,
,,,,,,,,,,,,,FF,,,,,,,,1.5179,,,,,,,,,,,,,,,,,,,,,,60ff834ced6d44e459722347,61036c3227167b5fe2888614,2021-07-29_22h04.53.382,Simcolourproject_2stim_asymm_v5,2020.2.10,MacIntel,60,61025ae37ef11b136ea224fe,,,,,,,,,1463,78.703125,-52.15234375,1,0,0,response3disk,,5,8.16015625,-5.1640625,1,0,0,rectangle,8.16015625,-5.1640625,1,0,0,8.16015625,-5.1640625,1,0,0,0,15,15,96,1,,,,,,,,
,,,,,,,,,,,,,FF,,,,,,,,0.8524,,,,,,,,,,,,,,,,,,,,,,60ff834ced6d44e459722347,61036c3227167b5fe2888614,2021-07-29_22h04.53.382,Simcolourproject_2stim_asymm_v5,2020.2.10,MacIntel,60,61025ae37ef11b136ea224fe,,,,,,,,,670,56.05078125,81.9140625,1,0,0,response1disk,,7,4.7734375,0.44140625,1,0,0,rectangle,-62.10546875,-35.0546875,1,0,0,6.8984375,5.44921875,1,0,0,0,16,16,120,1,,response5disk_3,TRUE,2,2,"[134,192,224,200,70,95,291,163,305,311,125,82,17,99,46,50,78,112,17,282]",1.585,rectangle
,,,,,,,,,,,,,FF,,,,,,,,1.3185,,,,,,,,,,,,,,,,,,,,,,60ff834ced6d44e459722347,61036c3227167b5fe2888614,2021-07-29_22h04.53.382,Simcolourproject_2stim_asymm_v5,2020.2.10,MacIntel,60,61025ae37ef11b136ea224fe,,,,,,,,,3064,-50.2734375,-92.11328125,1,0,0,response5disk,,3,-11.38671875,-7.65234375,1,0,0,rectangle,-11.38671875,-7.65234375,1,0,0,-11.38671875,-7.65234375,1,0,0,0,17,17,75,1,,,,,,,,
,,,,,,,,,,,,,FF,,,,,,,,1.1712,,,,,,,,,,,,,,,,,,,,,,60ff834ced6d44e459722347,61036c3227167b5fe2888614,2021-07-29_22h04.53.382,Simcolourproject_2stim_asymm_v5,2020.2.10,MacIntel,60,61025ae37ef11b136ea224fe,,,,,,,,,2278,59.42578125,97.15625,1,0,0,response1disk,,7,-9.51171875,5.12890625,1,0,0,rectangle,-9.51171875,5.12890625,1,0,0,-9.51171875,5.12890625,1,0,0,0,18,18,95,1,,,,,,,,
,,,,,,,,,,,,,FF,,,,,,,,1.8367,,,,,,,,,,,,,,,,,,,,,,60ff834ced6d44e459722347,61036c3227167b5fe2888614,2021-07-29_22h04.53.382,Simcolourproject_2stim_asymm_v5,2020.2.10,MacIntel,60,61025ae37ef11b136ea224fe,,,,,,,,,2796,57.82421875,-93.74609375,1,0,0,response3disk,,4,11.20703125,-7.26953125,1,0,0,rectangle,11.20703125,-7.26953125,1,0,0,11.20703125,-7.26953125,1,0,0,0,19,19,134,1,,,,,,,,
,,,,,,,,,,,,,FF,,,,,,,,1.5839,,,,,,,,,,,,,,,,,,,,,,60ff834ced6d44e459722347,61036c3227167b5fe2888614,2021-07-29_22h04.53.382,Simcolourproject_2stim_asymm_v5,2020.2.10,MacIntel,60,61025ae37ef11b136ea224fe,,,,,,,,,858,89.08203125,38.5859375,1,0,0,response1disk,,6,-20.234375,-2.125,1,0,0,rectangle,-20.234375,-2.125,1,0,0,-20.234375,-2.125,1,0,0,0,20,20,45,1,,,,,,,,
,,,,,,,,,,,,,FF,,,,,,,,1.8312,,,,,,,,,,,,,,,,,,,,,,60ff834ced6d44e459722347,61036c3227167b5fe2888614,2021-07-29_22h04.53.382,Simcolourproject_2stim_asymm_v5,2020.2.10,MacIntel,60,61025ae37ef11b136ea224fe,,,,,,,,,2629,90.7421875,-50.60546875,1,0,0,response3disk,,5,19.1796875,-10.56640625,1,0,0,rectangle,19.1796875,-10.56640625,1,0,0,19.1796875,-10.56640625,1,0,0,0,21,21,104,1,,,,,,,,
,,,,,,,,,,,,,FF,,,,,,,,1.5181,,,,,,,,,,,,,,,,,,,,,,60ff834ced6d44e459722347,61036c3227167b5fe2888614,2021-07-29_22h04.53.382,Simcolourproject_2stim_asymm_v5,2020.2.10,MacIntel,60,61025ae37ef11b136ea224fe,,,,,,,,,704,83.13671875,-63.53125,1,0,0,response3disk,,5,-3.07421875,-16.62109375,1,0,0,rectangle,-3.07421875,-16.62109375,1,0,0,-3.07421875,-16.62109375,1,0,0,0,22,22,109,1,,,,,,,,
,,,,,,,,,,,,,FF,,,,,,,,1.3159,,,,,,,,,,,,,,,,,,,,,,60ff834ced6d44e459722347,61036c3227167b5fe2888614,2021-07-29_22h04.53.382,Simcolourproject_2stim_asymm_v5,2020.2.10,MacIntel,60,61025ae37ef11b136ea224fe,,,,,,,,,4025,40.8828125,-96.1171875,1,0,0,response3disk,,4,2.65234375,0.39453125,1,0,0,rectangle,2.65234375,0.39453125,1,0,0,2.65234375,0.39453125,1,0,0,0,23,23,57,1,,,,,,,,
,,,,,,,,,,,,,FF,,,,,,,,1.6993,,,,,,,,,,,,,,,,,,,,,,60ff834ced6d44e459722347,61036c3227167b5fe2888614,2021-07-29_22h04.53.382,Simcolourproject_2stim_asymm_v5,2020.2.10,MacIntel,60,61025ae37ef11b136ea224fe,,,,,,,,,3060,108.6171875,39.515625,1,0,0,response1disk,,6,13.34765625,2.92578125,1,0,0,rectangle,13.34765625,2.92578125,1,0,0,13.34765625,2.92578125,1,0,0,0,24,24,28,1,,,,,,,,
,,,,,,,,,,,,,FF,,,,,,,,1.5487,,,,,,,,,,,,,,,,,,,,,,60ff834ced6d44e459722347,61036c3227167b5fe2888614,2021-07-29_22h04.53.382,Simcolourproject_2stim_asymm_v5,2020.2.10,MacIntel,60,61025ae37ef11b136ea224fe,,,,,,,,,2605,-57.30859375,-81.21484375,1,0,0,response5disk,,3,-12.75,-3.56640625,1,0,0,rectangle,-12.75,-3.56640625,1,0,0,-12.75,-3.56640625,1,0,0,0,25,25,11,1,,,,,,,,
,,,,,,,,,,,,,FF,,,,,,,,2.2977,,,,,,,,,,,,,,,,,,,,,,60ff834ced6d44e459722347,61036c3227167b5fe2888614,2021-07-29_22h04.53.382,Simcolourproject_2stim_asymm_v5,2020.2.10,MacIntel,60,61025ae37ef11b136ea224fe,,,,,,,,,2414,46.03515625,-96.55078125,1,0,0,response3disk,,4,12.2890625,-2.375,1,0,0,rectangle,12.2890625,-2.375,1,0,0,12.2890625,-2.375,1,0,0,0,26,26,114,1,,,,,,,,
,,,,,,,,,,,,,FF,,,,,,,,0.7189,,,,,,,,,,,,,,,,,,,,,,60ff834ced6d44e459722347,61036c3227167b5fe2888614,2021-07-29_22h04.53.382,Simcolourproject_2stim_asymm_v5,2020.2.10,MacIntel,60,61025ae37ef11b136ea224fe,,,,,,,,,1641,35.86328125,75.10546875,1,0,0,response1disk,,7,-4.45703125,2.69140625,1,0,0,rectangle,-4.45703125,2.69140625,1,0,0,-4.45703125,2.69140625,1,0,0,0,27,27,7,1,,,,,,,,
,,,,,,,,,,,,,FF,,,,,,,,0.8652,,,,,,,,,,,,,,,,,,,,,,60ff834ced6d44e459722347,61036c3227167b5fe2888614,2021-07-29_22h04.53.382,Simcolourproject_2stim_asymm_v5,2020.2.10,MacIntel,60,61025ae37ef11b136ea224fe,,,,,,,,,2257,80.12109375,36.7890625,1,0,0,response1disk,,6,-12.16015625,-9.10546875,1,0,0,rectangle,-12.16015625,-9.10546875,1,0,0,-12.16015625,-9.10546875,1,0,0,0,28,28,60,1,,,,,,,,
,,,,,,,,,,,,,FF,,,,,,,,1.3151,,,,,,,,,,,,,,,,,,,,,,60ff834ced6d44e459722347,61036c3227167b5fe2888614,2021-07-29_22h04.53.382,Simcolourproject_2stim_asymm_v5,2020.2.10,MacIntel,60,61025ae37ef11b136ea224fe,,,,,,,,,2535,74.6953125,43.44140625,1,0,0,response1disk,,6,-4.5234375,-2.6484375,1,0,0,rectangle,-4.5234375,-2.6484375,1,0,0,-4.5234375,-2.6484375,1,0,0,0,29,29,20,1,,,,,,,,
,,,,,,,,,,,,,FF,,,,,,,,1.3829,,,,,,,,,,,,,,,,,,,,,,60ff834ced6d44e459722347,61036c3227167b5fe2888614,2021-07-29_22h04.53.382,Simcolourproject_2stim_asymm_v5,2020.2.10,MacIntel,60,61025ae37ef11b136ea224fe,,,,,,,,,3522,82.6953125,-37.65625,1,0,0,response3disk,,5,7.05859375,-14.08203125,1,0,0,rectangle,7.05859375,-14.08203125,1,0,0,7.05859375,-14.08203125,1,0,0,0,30,30,12,1,,,,,,,,
,,,,,,,,,,,,,FF,,,,,,,,1.0188,,,,,,,,,,,,,,,,,,,,,,60ff834ced6d44e459722347,61036c3227167b5fe2888614,2021-07-29_22h04.53.382,Simcolourproject_2stim_asymm_v5,2020.2.10,MacIntel,60,61025ae37ef11b136ea224fe,,,,,,,,,2055,80.359375,-15.74609375,1,0,0,response3disk,,5,11.296875,12.9375,1,0,0,rectangle,11.296875,12.9375,1,0,0,11.296875,12.9375,1,0,0,0,31,31,144,1,,,,,,,,
,,,,,,,,,,,,,FF,,,,,,,,1.9304,,,,,,,,,,,,,,,,,,,,,,60ff834ced6d44e459722347,61036c3227167b5fe2888614,2021-07-29_22h04.53.382,Simcolourproject_2stim_asymm_v5,2020.2.10,MacIntel,60,61025ae37ef11b136ea224fe,,,,,,,,,1775,69.91015625,46.5078125,1,0,0,response1disk,,6,-4.796875,1.35546875,1,0,0,rectangle,-4.796875,1.35546875,1,0,0,-4.796875,1.35546875,1,0,0,0,32,32,13,1,,,,,,,,
,,,,,,,,,,,,,FF,,,,,,,,1.252,,,,,,,,,,,,,,,,,,,,,,60ff834ced6d44e459722347,61036c3227167b5fe2888614,2021-07-29_22h04.53.382,Simcolourproject_2stim_asymm_v5,2020.2.10,MacIntel,60,61025ae37ef11b136ea224fe,,,,,,,,,1338,87.21875,28.94921875,1,0,0,response1disk,,6,0.6484375,0.71875,1,0,0,rectangle,0.6484375,0.71875,1,0,0,0.6484375,0.71875,1,0,0,0,33,33,39,1,,,,,,,,
,,,,,,,,,,,,,FF,,,,,,,,1.0672,,,,,,,,,,,,,,,,,,,,,,60ff834ced6d44e459722347,61036c3227167b5fe2888614,2021-07-29_22h04.53.382,Simcolourproject_2stim_asymm_v5,2020.2.10,MacIntel,60,61025ae37ef11b136ea224fe,,,,,,,,,4104,-82.87890625,-37.28125,1,0,0,response5disk,,2,-14.453125,-9.546875,1,0,0,rectangle,-14.453125,-9.546875,1,0,0,-14.453125,-9.546875,1,0,0,0,34,34,65,1,,,,,,,,
,,,,,,,,,,,,,FF,,,,,,,,1.4167,,,,,,,,,,,,,,,,,,,,,,60ff834ced6d44e459722347,61036c3227167b5fe2888614,2021-07-29_22h04.53.382,Simcolourproject_2stim_asymm_v5,2020.2.10,MacIntel,60,61025ae37ef11b136ea224fe,,,,,,,,,1896,-101.1367188,-33.82421875,1,0,0,response5disk,,2,-12.5390625,-10.1484375,1,0,0,rectangle,-12.5390625,-10.1484375,1,0,0,-12.5390625,-10.1484375,1,0,0,0,35,35,17,1,,,,,,,,
,,,,,,,,,,,,,FF,,,,,,,,0.8019,,,,,,,,,,,,,,,,,,,,,,60ff834ced6d44e459722347,61036c3227167b5fe2888614,2021-07-29_22h04.53.382,Simcolourproject_2stim_asymm_v5,2020.2.10,MacIntel,60,61025ae37ef11b136ea224fe,,,,,,,,,3985,41.9921875,59.5234375,1,0,0,response1disk,,7,10.109375,2.85546875,1,0,0,rectangle,10.109375,2.85546875,1,0,0,10.109375,2.85546875,1,0,0,0,36,36,21,1,,,,,,,,
,,,,,,,,,,,,,FF,,,,,,,,1.0683,,,,,,,,,,,,,,,,,,,,,,60ff834ced6d44e459722347,61036c3227167b5fe2888614,2021-07-29_22h04.53.382,Simcolourproject_2stim_asymm_v5,2020.2.10,MacIntel,60,61025ae37ef11b136ea224fe,,,,,,,,,693,-35.24609375,-82.65625,1,0,0,response5disk,,3,-1.421875,1.6796875,1,0,0,rectangle,-1.421875,1.6796875,1,0,0,-1.421875,1.6796875,1,0,0,0,37,37,126,1,,,,,,,,
,,,,,,,,,,,,,FF,,,,,,,,1.5016,,,,,,,,,,,,,,,,,,,,,,60ff834ced6d44e459722347,61036c3227167b5fe2888614,2021-07-29_22h04.53.382,Simcolourproject_2stim_asymm_v5,2020.2.10,MacIntel,60,61025ae37ef11b136ea224fe,,,,,,,,,4260,85.28515625,27.87890625,1,0,0,response1disk,,6,6.5234375,-6.58984375,1,0,0,rectangle,6.5234375,-6.58984375,1,0,0,6.5234375,-6.58984375,1,0,0,0,38,38,8,1,,,,,,,,
,,,,,,,,,,,,,FF,,,,,,,,1.6514,,,,,,,,,,,,,,,,,,,,,,60ff834ced6d44e459722347,61036c3227167b5fe2888614,2021-07-29_22h04.53.382,Simcolourproject_2stim_asymm_v5,2020.2.10,MacIntel,60,61025ae37ef11b136ea224fe,,,,,,,,,1016,35.47265625,83.234375,1,0,0,response1disk,,7,6.90625,2.875,1,0,0,rectangle,6.90625,2.875,1,0,0,6.90625,2.875,1,0,0,0,39,39,83,1,,,,,,,,
,,,,,,,,,,,,,FF,,,,,,,,1.1306,,,,,,,,,,,,,,,,,,,,,,60ff834ced6d44e459722347,61036c3227167b5fe2888614,2021-07-29_22h04.53.382,Simcolourproject_2stim_asymm_v5,2020.2.10,MacIntel,60,61025ae37ef11b136ea224fe,,,,,,,,,3088,32.953125,-86.28125,1,0,0,response3disk,,4,16.83203125,-9.1171875,1,0,0,rectangle,16.83203125,-9.1171875,1,0,0,16.83203125,-9.1171875,1,0,0,0,40,40,52,1,,,,,,,,
,,,,,,,,,,,,,FF,,,,,,,,1.237,,,,,,,,,,,,,,,,,,,,,,60ff834ced6d44e459722347,61036c3227167b5fe2888614,2021-07-29_22h04.53.382,Simcolourproject_2stim_asymm_v5,2020.2.10,MacIntel,60,61025ae37ef11b136ea224fe,,,,,,,,,4065,62.4921875,-36.36328125,1,0,0,response3disk,,5,4.59765625,0.4765625,1,0,0,rectangle,4.59765625,0.4765625,1,0,0,4.59765625,0.4765625,1,0,0,0,41,41,112,1,,,,,,,,
,,,,,,,,,,,,,FF,,,,,,,,1.4197,,,,,,,,,,,,,,,,,,,,,,60ff834ced6d44e459722347,61036c3227167b5fe2888614,2021-07-29_22h04.53.382,Simcolourproject_2stim_asymm_v5,2020.2.10,MacIntel,60,61025ae37ef11b136ea224fe,,,,,,,,,2809,62.50390625,-25.6640625,1,0,0,response3disk,,5,12.58203125,-9.87109375,1,0,0,rectangle,12.58203125,-9.87109375,1,0,0,12.58203125,-9.87109375,1,0,0,0,42,42,35,1,,,,,,,,
,,,,,,,,,,,,,FF,,,,,,,,2.7691,,,,,,,,,,,,,,,,,,,,,,60ff834ced6d44e459722347,61036c3227167b5fe2888614,2021-07-29_22h04.53.382,Simcolourproject_2stim_asymm_v5,2020.2.10,MacIntel,60,61025ae37ef11b136ea224fe,,,,,,,,,2268,89.6640625,20.72265625,1,0,0,response1disk,,6,-5.47265625,-7.984375,1,0,0,rectangle,-5.47265625,-7.984375,1,0,0,-5.47265625,-7.984375,1,0,0,0,43,43,3,1,,,,,,,,
,,,,,,,,,,,,,FF,,,,,,,,0.8978,,,,,,,,,,,,,,,,,,,,,,60ff834ced6d44e459722347,61036c3227167b5fe2888614,2021-07-29_22h04.53.382,Simcolourproject_2stim_asymm_v5,2020.2.10,MacIntel,60,61025ae37ef11b136ea224fe,,,,,,,,,881,74.5390625,49.625,1,0,0,response1disk,,6,-12.453125,-9.51953125,1,0,0,rectangle,-12.453125,-9.51953125,1,0,0,-12.453125,-9.51953125,1,0,0,0,44,44,2,1,,,,,,,,
,,,,,,,,,,,,,FF,,,,,,,,2.1493,,,,,,,,,,,,,,,,,,,,,,60ff834ced6d44e459722347,61036c3227167b5fe2888614,2021-07-29_22h04.53.382,Simcolourproject_2stim_asymm_v5,2020.2.10,MacIntel,60,61025ae37ef11b136ea224fe,,,,,,,,,611,-30.29296875,-94.71484375,1,0,0,response5disk,,3,-1.58203125,6.7421875,1,0,0,rectangle,-27.23828125,-96.125,1,0,0,9.84375,9.5078125,1,0,0,0,45,45,9,1,,response5disk_3,TRUE,3,3,"[134,192,224,200,70,95,291,163,305,311,125,82,17,99,46,50,78,112,17,282]",1.649,rectangle
,,,,,,,,,,,,,FF,,,,,,,,1.8204,,,,,,,,,,,,,,,,,,,,,,60ff834ced6d44e459722347,61036c3227167b5fe2888614,2021-07-29_22h04.53.382,Simcolourproject_2stim_asymm_v5,2020.2.10,MacIntel,60,61025ae37ef11b136ea224fe,,,,,,,,,197,-45.48046875,-89.82421875,1,0,0,response5disk,,3,-2.234375,-9.8671875,1,0,0,rectangle,-2.234375,-9.8671875,1,0,0,-2.234375,-9.8671875,1,0,0,0,46,46,37,1,,,,,,,,
,,,,,,,,,,,,,FF,,,,,,,,3.5158,,,,,,,,,,,,,,,,,,,,,,60ff834ced6d44e459722347,61036c3227167b5fe2888614,2021-07-29_22h04.53.382,Simcolourproject_2stim_asymm_v5,2020.2.10,MacIntel,60,61025ae37ef11b136ea224fe,,,,,,,,,3992,27.375,-68.38671875,1,0,0,response3disk,,4,13.828125,8.9375,1,0,0,rectangle,13.828125,8.9375,1,0,0,13.828125,8.9375,1,0,0,0,47,47,22,1,,,,,,,,
,,,,,,,,,,,,,FF,,,,,,,,1.234,,,,,,,,,,,,,,,,,,,,,,60ff834ced6d44e459722347,61036c3227167b5fe2888614,2021-07-29_22h04.53.382,Simcolourproject_2stim_asymm_v5,2020.2.10,MacIntel,60,61025ae37ef11b136ea224fe,,,,,,,,,4287,54.77734375,30.3203125,1,0,0,response1disk,,6,-2.97265625,0.08203125,1,0,0,rectangle,-2.97265625,0.08203125,1,0,0,-2.97265625,0.08203125,1,0,0,0,48,48,131,1,,,,,,,,
,,,,,,,,,,,,,FF,,,,,,,,1.6171,,,,,,,,,,,,,,,,,,,,,,60ff834ced6d44e459722347,61036c3227167b5fe2888614,2021-07-29_22h04.53.382,Simcolourproject_2stim_asymm_v5,2020.2.10,MacIntel,60,61025ae37ef11b136ea224fe,,,,,,,,,4234,43.7890625,70.92578125,1,0,0,response1disk,,7,8.78125,-7.09765625,1,0,0,rectangle,77.328125,-22.60546875,1,0,0,8.40234375,3.33984375,1,0,0,0,49,49,26,1,,response3disk_3,TRUE,5,5,"[134,192,224,200,70,95,291,163,305,311,125,82,17,99,46,50,78,112,17,282]",1.4703,rectangle
,,,,,,,,,,,,,FF,,,,,,,,1.6664,,,,,,,,,,,,,,,,,,,,,,60ff834ced6d44e459722347,61036c3227167b5fe2888614,2021-07-29_22h04.53.382,Simcolourproject_2stim_asymm_v5,2020.2.10,MacIntel,60,61025ae37ef11b136ea224fe,,,,,,,,,3899,-53.5,-66.875,1,0,0,response5disk,,3,-2.58984375,2.5703125,1,0,0,rectangle,-2.58984375,2.5703125,1,0,0,-2.58984375,2.5703125,1,0,0,0,50,50,135,1,,,,,,,,
,,,,,,,,,,,,,FF,,,,,,,,0.902,,,,,,,,,,,,,,,,,,,,,,60ff834ced6d44e459722347,61036c3227167b5fe2888614,2021-07-29_22h04.53.382,Simcolourproject_2stim_asymm_v5,2020.2.10,MacIntel,60,61025ae37ef11b136ea224fe,,,,,,,,,3123,78.9765625,-35.62109375,1,0,0,response3disk,,5,-5.75,0.9375,1,0,0,rectangle,-5.75,0.9375,1,0,0,-5.75,0.9375,1,0,0,0,51,51,151,1,,,,,,,,
,,,,,,,,,,,,,FF,,,,,,,,1.0318,,,,,,,,,,,,,,,,,,,,,,60ff834ced6d44e459722347,61036c3227167b5fe2888614,2021-07-29_22h04.53.382,Simcolourproject_2stim_asymm_v5,2020.2.10,MacIntel,60,61025ae37ef11b136ea224fe,,,,,,,,,4349,68.5859375,48.171875,1,0,0,response1disk,,6,4.41015625,-7.16015625,1,0,0,rectangle,4.41015625,-7.16015625,1,0,0,4.41015625,-7.16015625,1,0,0,0,52,52,137,1,,,,,,,,
,,,,,,,,,,,,,FF,,,,,,,,0.8831,,,,,,,,,,,,,,,,,,,,,,60ff834ced6d44e459722347,61036c3227167b5fe2888614,2021-07-29_22h04.53.382,Simcolourproject_2stim_asymm_v5,2020.2.10,MacIntel,60,61025ae37ef11b136ea224fe,,,,,,,,,1220,-63.84765625,-44.58203125,1,0,0,response5disk,,2,23.109375,5.9609375,1,0,0,rectangle,23.109375,5.9609375,1,0,0,23.109375,5.9609375,1,0,0,0,53,53,153,1,,,,,,,,
,,,,,,,,,,,,,FF,,,,,,,,1.2662,,,,,,,,,,,,,,,,,,,,,,60ff834ced6d44e459722347,61036c3227167b5fe2888614,2021-07-29_22h04.53.382,Simcolourproject_2stim_asymm_v5,2020.2.10,MacIntel,60,61025ae37ef11b136ea224fe,,,,,,,,,1982,97.5703125,56.59765625,1,0,0,response1disk,,6,0.390625,8.10546875,1,0,0,rectangle,0.390625,8.10546875,1,0,0,0.390625,8.10546875,1,0,0,0,54,54,106,1,,,,,,,,
,,,,,,,,,,,,,FF,,,,,,,,1.6296,,,,,,,,,,,,,,,,,,,,,,60ff834ced6d44e459722347,61036c3227167b5fe2888614,2021-07-29_22h04.53.382,Simcolourproject_2stim_asymm_v5,2020.2.10,MacIntel,60,61025ae37ef11b136ea224fe,,,,,,,,,549,-84.3125,45.140625,1,0,0,response7disk,,1,19.6640625,-1.07421875,1,0,0,rectangle,19.6640625,-1.07421875,1,0,0,19.6640625,-1.07421875,1,0,0,0,55,55,61,1,,,,,,,,
,,,,,,,,,,,,,FF,,,,,,,,1.3989,,,,,,,,,,,,,,,,,,,,,,60ff834ced6d44e459722347,61036c3227167b5fe2888614,2021-07-29_22h04.53.382,Simcolourproject_2stim_asymm_v5,2020.2.10,MacIntel,60,61025ae37ef11b136ea224fe,,,,,,,,,528,62.0625,26.7578125,1,0,0,response1disk,,6,10.44140625,-11.21875,1,0,0,rectangle,10.44140625,-11.21875,1,0,0,10.44140625,-11.21875,1,0,0,0,56,56,16,1,,,,,,,,
,,,,,,,,,,,,,FF,,,,,,,,0.8515,,,,,,,,,,,,,,,,,,,,,,60ff834ced6d44e459722347,61036c3227167b5fe2888614,2021-07-29_22h04.53.382,Simcolourproject_2stim_asymm_v5,2020.2.10,MacIntel,60,61025ae37ef11b136ea224fe,,,,,,,,,2416,81.8984375,39.6171875,1,0,0,response1disk,,6,12.97265625,-10.96875,1,0,0,rectangle,12.97265625,-10.96875,1,0,0,12.97265625,-10.96875,1,0,0,0,57,57,23,1,,,,,,,,
,,,,,,,,,,,,,FF,,,,,,,,1.3985,,,,,,,,,,,,,,,,,,,,,,60ff834ced6d44e459722347,61036c3227167b5fe2888614,2021-07-29_22h04.53.382,Simcolourproject_2stim_asymm_v5,2020.2.10,MacIntel,60,61025ae37ef11b136ea224fe,,,,,,,,,517,51.30859375,92.1953125,1,0,0,response1disk,,7,14.12890625,-11.98828125,1,0,0,rectangle,14.12890625,-11.98828125,1,0,0,14.12890625,-11.98828125,1,0,0,0,58,58,150,1,,,,,,,,
,,,,,,,,,,,,,FF,,,,,,,,0.7505,,,,,,,,,,,,,,,,,,,,,,60ff834ced6d44e459722347,61036c3227167b5fe2888614,2021-07-29_22h04.53.382,Simcolourproject_2stim_asymm_v5,2020.2.10,MacIntel,60,61025ae37ef11b136ea224fe,,,,,,,,,3030,32.52734375,75.91796875,1,0,0,response1disk,,7,19.51171875,-6.3359375,1,0,0,rectangle,19.51171875,-6.3359375,1,0,0,19.51171875,-6.3359375,1,0,0,0,59,59,36,1,,,,,,,,
,,,,,,,,,,,,,FF,,,,,,,,0.7684,,,,,,,,,,,,,,,,,,,,,,60ff834ced6d44e459722347,61036c3227167b5fe2888614,2021-07-29_22h04.53.382,Simcolourproject_2stim_asymm_v5,2020.2.10,MacIntel,60,61025ae37ef11b136ea224fe,,,,,,,,,3081,30.92578125,97.9765625,1,0,0,response1disk,,7,9.5859375,3.37109375,1,0,0,rectangle,9.5859375,3.37109375,1,0,0,9.5859375,3.37109375,1,0,0,0,60,60,71,1,,,,,,,,
,,,,,,,,,,,,,FF,,,,,,,,0.7155,,,,,,,,,,,,,,,,,,,,,,60ff834ced6d44e459722347,61036c3227167b5fe2888614,2021-07-29_22h04.53.382,Simcolourproject_2stim_asymm_v5,2020.2.10,MacIntel,60,61025ae37ef11b136ea224fe,,,,,,,,,2199,33.26953125,60.1328125,1,0,0,response1disk,,7,17.26171875,-5.234375,1,0,0,rectangle,17.26171875,-5.234375,1,0,0,17.26171875,-5.234375,1,0,0,0,61,61,50,1,,,,,,,,
,,,,,,,,,,,,,FF,,,,,,,,1.0995,,,,,,,,,,,,,,,,,,,,,,60ff834ced6d44e459722347,61036c3227167b5fe2888614,2021-07-29_22h04.53.382,Simcolourproject_2stim_asymm_v5,2020.2.10,MacIntel,60,61025ae37ef11b136ea224fe,,,,,,,,,1298,-43.609375,94.30078125,1,0,0,response7disk,,0,1.65234375,3.70703125,1,0,0,rectangle,1.65234375,3.70703125,1,0,0,1.65234375,3.70703125,1,0,0,0,62,62,118,1,,,,,,,,
,,,,,,,,,,,,,FF,,,,,,,,0.7685,,,,,,,,,,,,,,,,,,,,,,60ff834ced6d44e459722347,61036c3227167b5fe2888614,2021-07-29_22h04.53.382,Simcolourproject_2stim_asymm_v5,2020.2.10,MacIntel,60,61025ae37ef11b136ea224fe,,,,,,,,,4049,-77.5078125,27.484375,1,0,0,response7disk,,1,-10.71484375,-3.91796875,1,0,0,rectangle,-10.71484375,-3.91796875,1,0,0,-10.71484375,-3.91796875,1,0,0,0,63,63,42,1,,,,,,,,
,,,,,,,,,,,,,FF,,,,,,,,1.0145,,,,,,,,,,,,,,,,,,,,,,60ff834ced6d44e459722347,61036c3227167b5fe2888614,2021-07-29_22h04.53.382,Simcolourproject_2stim_asymm_v5,2020.2.10,MacIntel,60,61025ae37ef11b136ea224fe,,,,,,,,,1946,79.98046875,29.42578125,1,0,0,response1disk,,6,7.0546875,-9.34765625,1,0,0,rectangle,7.0546875,-9.34765625,1,0,0,7.0546875,-9.34765625,1,0,0,0,64,64,38,1,,,,,,,,
,,,,,,,,,,,,,FF,,,,,,,,0.9527,,,,,,,,,,,,,,,,,,,,,,60ff834ced6d44e459722347,61036c3227167b5fe2888614,2021-07-29_22h04.53.382,Simcolourproject_2stim_asymm_v5,2020.2.10,MacIntel,60,61025ae37ef11b136ea224fe,,,,,,,,,4249,67.62109375,-49.94921875,1,0,0,response3disk,,5,6.16796875,10.05078125,1,0,0,rectangle,6.16796875,10.05078125,1,0,0,6.16796875,10.05078125,1,0,0,0,65,65,154,1,,,,,,,,
,,,,,,,,,,,,,FF,,,,,,,,0.8014,,,,,,,,,,,,,,,,,,,,,,60ff834ced6d44e459722347,61036c3227167b5fe2888614,2021-07-29_22h04.53.382,Simcolourproject_2stim_asymm_v5,2020.2.10,MacIntel,60,61025ae37ef11b136ea224fe,,,,,,,,,1718,41.8515625,70.453125,1,0,0,response1disk,,7,22.2265625,-0.33984375,1,0,0,rectangle,22.2265625,-0.33984375,1,0,0,22.2265625,-0.33984375,1,0,0,0,66,66,129,1,,,,,,,,
,,,,,,,,,,,,,FF,,,,,,,,1.3031,,,,,,,,,,,,,,,,,,,,,,60ff834ced6d44e459722347,61036c3227167b5fe2888614,2021-07-29_22h04.53.382,Simcolourproject_2stim_asymm_v5,2020.2.10,MacIntel,60,61025ae37ef11b136ea224fe,,,,,,,,,4354,28.6171875,-61.546875,1,0,0,response3disk,,4,17.9765625,-0.796875,1,0,0,rectangle,17.9765625,-0.796875,1,0,0,17.9765625,-0.796875,1,0,0,0,67,67,128,1,,,,,,,,
,,,,,,,,,,,,,FF,,,,,,,,1.6357,,,,,,,,,,,,,,,,,,,,,,60ff834ced6d44e459722347,61036c3227167b5fe2888614,2021-07-29_22h04.53.382,Simcolourproject_2stim_asymm_v5,2020.2.10,MacIntel,60,61025ae37ef11b136ea224fe,,,,,,,,,3826,80.1484375,41.41015625,1,0,0,response1disk,,6,1.046875,0.56640625,1,0,0,rectangle,1.046875,0.56640625,1,0,0,1.046875,0.56640625,1,0,0,0,68,68,117,1,,,,,,,,
,,,,,,,,,,,,,FF,,,,,,,,1.0295,,,,,,,,,,,,,,,,,,,,,,60ff834ced6d44e459722347,61036c3227167b5fe2888614,2021-07-29_22h04.53.382,Simcolourproject_2stim_asymm_v5,2020.2.10,MacIntel,60,61025ae37ef11b136ea224fe,,,,,,,,,1173,66.49609375,34.0546875,1,0,0,response1disk,,6,6.30859375,16.8671875,1,0,0,rectangle,-38.9296875,-75.09375,1,0,0,2.0625,-7.796875,1,0,0,0,69,69,140,1,,response5disk_3,TRUE,3,3,"[134,192,224,200,70,95,291,163,305,311,125,82,17,99,46,50,78,112,17,282]",1.3346,rectangle
,,,,,,,,,,,,,FF,,,,,,,,1.0981,,,,,,,,,,,,,,,,,,,,,,60ff834ced6d44e459722347,61036c3227167b5fe2888614,2021-07-29_22h04.53.382,Simcolourproject_2stim_asymm_v5,2020.2.10,MacIntel,60,61025ae37ef11b136ea224fe,,,,,,,,,2837,-99.796875,-43.203125,1,0,0,response5disk,,2,-16.75390625,2.12109375,1,0,0,rectangle,-16.75390625,2.12109375,1,0,0,-16.75390625,2.12109375,1,0,0,0,70,70,97,1,,,,,,,,
,,,,,,,,,,,,,FF,,,,,,,,1.0355,,,,,,,,,,,,,,,,,,,,,,60ff834ced6d44e459722347,61036c3227167b5fe2888614,2021-07-29_22h04.53.382,Simcolourproject_2stim_asymm_v5,2020.2.10,MacIntel,60,61025ae37ef11b136ea224fe,,,,,,,,,1611,-82.91015625,-39.90234375,1,0,0,response5disk,,2,-10.296875,-15.98046875,1,0,0,rectangle,-10.296875,-15.98046875,1,0,0,-10.296875,-15.98046875,1,0,0,0,71,71,74,1,,,,,,,,
,,,,,,,,,,,,,FF,,,,,,,,0.7997,,,,,,,,,,,,,,,,,,,,,,60ff834ced6d44e459722347,61036c3227167b5fe2888614,2021-07-29_22h04.53.382,Simcolourproject_2stim_asymm_v5,2020.2.10,MacIntel,60,61025ae37ef11b136ea224fe,,,,,,,,,3186,34.71875,60.875,1,0,0,response1disk,,7,9.8515625,-1.99609375,1,0,0,rectangle,9.8515625,-1.99609375,1,0,0,9.8515625,-1.99609375,1,0,0,0,72,72,107,1,,,,,,,,
,,,,,,,,,,,,,FF,,,,,,,,0.8496,,,,,,,,,,,,,,,,,,,,,,60ff834ced6d44e459722347,61036c3227167b5fe2888614,2021-07-29_22h04.53.382,Simcolourproject_2stim_asymm_v5,2020.2.10,MacIntel,60,61025ae37ef11b136ea224fe,,,,,,,,,3368,37.12109375,81.890625,1,0,0,response1disk,,7,11.63671875,-8.2265625,1,0,0,rectangle,11.63671875,-8.2265625,1,0,0,11.63671875,-8.2265625,1,0,0,0,73,73,125,1,,,,,,,,
,,,,,,,,,,,,,FF,,,,,,,,0.6846,,,,,,,,,,,,,,,,,,,,,,60ff834ced6d44e459722347,61036c3227167b5fe2888614,2021-07-29_22h04.53.382,Simcolourproject_2stim_asymm_v5,2020.2.10,MacIntel,60,61025ae37ef11b136ea224fe,,,,,,,,,1875,37.63671875,82.140625,1,0,0,response1disk,,7,19.74609375,10.55859375,1,0,0,rectangle,19.74609375,10.55859375,1,0,0,19.74609375,10.55859375,1,0,0,0,74,74,4,1,,,,,,,,
,,,,,,,,,,,,,FF,,,,,,,,0.6968,,,,,,,,,,,,,,,,,,,,,,60ff834ced6d44e459722347,61036c3227167b5fe2888614,2021-07-29_22h04.53.382,Simcolourproject_2stim_asymm_v5,2020.2.10,MacIntel,60,61025ae37ef11b136ea224fe,,,,,,,,,4242,39.6875,81.390625,1,0,0,response1disk,,7,23.87890625,-8.44921875,1,0,0,rectangle,23.87890625,-8.44921875,1,0,0,23.87890625,-8.44921875,1,0,0,0,75,75,43,1,,,,,,,,
,,,,,,,,,,,,,FF,,,,,,,,1.2681,,,,,,,,,,,,,,,,,,,,,,60ff834ced6d44e459722347,61036c3227167b5fe2888614,2021-07-29_22h04.53.382,Simcolourproject_2stim_asymm_v5,2020.2.10,MacIntel,60,61025ae37ef11b136ea224fe,,,,,,,,,120,63.3046875,86.6171875,1,0,0,response1disk,,7,22.72265625,-6.625,1,0,0,rectangle,22.72265625,-6.625,1,0,0,22.72265625,-6.625,1,0,0,0,76,76,44,1,,,,,,,,
,,,,,,,,,,,,,FF,,,,,,,,3.0008,,,,,,,,,,,,,,,,,,,,,,60ff834ced6d44e459722347,61036c3227167b5fe2888614,2021-07-29_22h04.53.382,Simcolourproject_2stim_asymm_v5,2020.2.10,MacIntel,60,61025ae37ef11b136ea224fe,,,,,,,,,428,101.9765625,38.421875,1,0,0,response1disk,,6,23.21875,0.95703125,1,0,0,rectangle,-41.25390625,-88.484375,1,0,0,-5.78515625,-4.57421875,1,0,0,0,77,77,142,1,,response5disk_3,TRUE,3,3,"[134,192,224,200,70,95,291,163,305,311,125,82,17,99,46,50,78,112,17,282]",1.0832,rectangle
,,,,,,,,,,,,,FF,,,,,,,,1.6503,,,,,,,,,,,,,,,,,,,,,,60ff834ced6d44e459722347,61036c3227167b5fe2888614,2021-07-29_22h04.53.382,Simcolourproject_2stim_asymm_v5,2020.2.10,MacIntel,60,61025ae37ef11b136ea224fe,,,,,,,,,1155,101.3242188,-49.02734375,1,0,0,response3disk,,5,13.2109375,-3.1875,1,0,0,rectangle,13.2109375,-3.1875,1,0,0,13.2109375,-3.1875,1,0,0,0,78,78,111,1,,,,,,,,
,,,,,,,,,,,,,FF,,,,,,,,1.7358,,,,,,,,,,,,,,,,,,,,,,60ff834ced6d44e459722347,61036c3227167b5fe2888614,2021-07-29_22h04.53.382,Simcolourproject_2stim_asymm_v5,2020.2.10,MacIntel,60,61025ae37ef11b136ea224fe,,,,,,,,,3346,60.38671875,87.30078125,1,0,0,response1disk,,7,2.16015625,-0.7265625,1,0,0,rectangle,2.16015625,-0.7265625,1,0,0,2.16015625,-0.7265625,1,0,0,0,79,79,93,1,,,,,,,,
,,,,,,,,,,,,,FF,,,,,,,,0.7832,,,,,,,,,,,,,,,,,,,,,,60ff834ced6d44e459722347,61036c3227167b5fe2888614,2021-07-29_22h04.53.382,Simcolourproject_2stim_asymm_v5,2020.2.10,MacIntel,60,61025ae37ef11b136ea224fe,,,,,,,,,93,-32.24609375,91.23046875,1,0,0,response7disk,,0,-5.67578125,-2.72265625,1,0,0,rectangle,-5.67578125,-2.72265625,1,0,0,-5.67578125,-2.72265625,1,0,0,0,80,80,46,1,,,,,,,,
,,,,,,,,,,,,,FF,,,,,,,,1.0818,,,,,,,,,,,,,,,,,,,,,,60ff834ced6d44e459722347,61036c3227167b5fe2888614,2021-07-29_22h04.53.382,Simcolourproject_2stim_asymm_v5,2020.2.10,MacIntel,60,61025ae37ef11b136ea224fe,,,,,,,,,4187,-43.2578125,-73.2265625,1,0,0,response5disk,,3,0.859375,-5.390625,1,0,0,rectangle,-49.67578125,-103.9101563,1,0,0,-1.0625,-10.11328125,1,0,0,0,81,81,32,1,,response5disk_3,TRUE,3,3,"[134,192,224,200,70,95,291,163,305,311,125,82,17,99,46,50,78,112,17,282]",1.0003,rectangle
,,,,,,,,,,,,,FF,,,,,,,,1.0992,,,,,,,,,,,,,,,,,,,,,,60ff834ced6d44e459722347,61036c3227167b5fe2888614,2021-07-29_22h04.53.382,Simcolourproject_2stim_asymm_v5,2020.2.10,MacIntel,60,61025ae37ef11b136ea224fe,,,,,,,,,436,25.62109375,-89.38671875,1,0,0,response3disk,,4,4.7578125,9.59765625,1,0,0,rectangle,4.7578125,9.59765625,1,0,0,4.7578125,9.59765625,1,0,0,0,82,82,56,1,,,,,,,,
,,,,,,,,,,,,,FF,,,,,,,,1.235,,,,,,,,,,,,,,,,,,,,,,60ff834ced6d44e459722347,61036c3227167b5fe2888614,2021-07-29_22h04.53.382,Simcolourproject_2stim_asymm_v5,2020.2.10,MacIntel,60,61025ae37ef11b136ea224fe,,,,,,,,,2609,77.35546875,-36.15234375,1,0,0,response3disk,,5,14.52734375,-7.48046875,1,0,0,rectangle,14.52734375,-7.48046875,1,0,0,14.52734375,-7.48046875,1,0,0,0,83,83,18,1,,,,,,,,
,,,,,,,,,,,,,FF,,,,,,,,2.0171,,,,,,,,,,,,,,,,,,,,,,60ff834ced6d44e459722347,61036c3227167b5fe2888614,2021-07-29_22h04.53.382,Simcolourproject_2stim_asymm_v5,2020.2.10,MacIntel,60,61025ae37ef11b136ea224fe,,,,,,,,,1276,71.6796875,-39.70703125,1,0,0,response3disk,,5,15.4140625,-3.83984375,1,0,0,rectangle,15.4140625,-3.83984375,1,0,0,15.4140625,-3.83984375,1,0,0,0,84,84,25,1,,,,,,,,
,,,,,,,,,,,,,FF,,,,,,,,0.6319,,,,,,,,,,,,,,,,,,,,,,60ff834ced6d44e459722347,61036c3227167b5fe2888614,2021-07-29_22h04.53.382,Simcolourproject_2stim_asymm_v5,2020.2.10,MacIntel,60,61025ae37ef11b136ea224fe,,,,,,,,,84,30.45703125,74.1015625,1,0,0,response1disk,,7,20.69921875,-3.98828125,1,0,0,rectangle,20.69921875,-3.98828125,1,0,0,20.69921875,-3.98828125,1,0,0,0,85,85,157,1,,,,,,,,
,,,,,,,,,,,,,FF,,,,,,,,0.7509,,,,,,,,,,,,,,,,,,,,,,60ff834ced6d44e459722347,61036c3227167b5fe2888614,2021-07-29_22h04.53.382,Simcolourproject_2stim_asymm_v5,2020.2.10,MacIntel,60,61025ae37ef11b136ea224fe,,,,,,,,,2641,42.61328125,64.54296875,1,0,0,response1disk,,7,13.6484375,4.00390625,1,0,0,rectangle,13.6484375,4.00390625,1,0,0,13.6484375,4.00390625,1,0,0,0,86,86,5,1,,,,,,,,
,,,,,,,,,,,,,FF,,,,,,,,1.1008,,,,,,,,,,,,,,,,,,,,,,60ff834ced6d44e459722347,61036c3227167b5fe2888614,2021-07-29_22h04.53.382,Simcolourproject_2stim_asymm_v5,2020.2.10,MacIntel,60,61025ae37ef11b136ea224fe,,,,,,,,,576,99.44921875,28.8828125,1,0,0,response1disk,,6,-4.1328125,-3.4296875,1,0,0,rectangle,-4.1328125,-3.4296875,1,0,0,-4.1328125,-3.4296875,1,0,0,0,87,87,101,1,,,,,,,,
,,,,,,,,,,,,,FF,,,,,,,,1.0515,,,,,,,,,,,,,,,,,,,,,,60ff834ced6d44e459722347,61036c3227167b5fe2888614,2021-07-29_22h04.53.382,Simcolourproject_2stim_asymm_v5,2020.2.10,MacIntel,60,61025ae37ef11b136ea224fe,,,,,,,,,1028,57.03515625,125.9023438,1,0,0,response1disk,,7,4.30859375,13.44921875,1,0,0,rectangle,4.30859375,13.44921875,1,0,0,4.30859375,13.44921875,1,0,0,0,88,88,121,1,,,,,,,,
,,,,,,,,,,,,,FF,,,,,,,,0.7685,,,,,,,,,,,,,,,,,,,,,,60ff834ced6d44e459722347,61036c3227167b5fe2888614,2021-07-29_22h04.53.382,Simcolourproject_2stim_asymm_v5,2020.2.10,MacIntel,60,61025ae37ef11b136ea224fe,,,,,,,,,2444,48.23828125,105.2734375,1,0,0,response1disk,,7,12.5234375,-11.5234375,1,0,0,rectangle,12.5234375,-11.5234375,1,0,0,12.5234375,-11.5234375,1,0,0,0,89,89,115,1,,,,,,,,
,,,,,,,,,,,,,FF,,,,,,,,1.0481,,,,,,,,,,,,,,,,,,,,,,60ff834ced6d44e459722347,61036c3227167b5fe2888614,2021-07-29_22h04.53.382,Simcolourproject_2stim_asymm_v5,2020.2.10,MacIntel,60,61025ae37ef11b136ea224fe,,,,,,,,,2090,26.73046875,-79.4140625,1,0,0,response3disk,,4,18.1171875,5.3359375,1,0,0,rectangle,18.1171875,5.3359375,1,0,0,18.1171875,5.3359375,1,0,0,0,90,90,67,1,,,,,,,,
,,,,,,,,,,,,,FF,,,,,,,,0.8873,,,,,,,,,,,,,,,,,,,,,,60ff834ced6d44e459722347,61036c3227167b5fe2888614,2021-07-29_22h04.53.382,Simcolourproject_2stim_asymm_v5,2020.2.10,MacIntel,60,61025ae37ef11b136ea224fe,,,,,,,,,2862,38.328125,-86.43359375,1,0,0,response3disk,,4,11.953125,-2.46875,1,0,0,rectangle,11.953125,-2.46875,1,0,0,11.953125,-2.46875,1,0,0,0,91,91,73,1,,,,,,,,
,,,,,,,,,,,,,FF,,,,,,,,2.3663,,,,,,,,,,,,,,,,,,,,,,60ff834ced6d44e459722347,61036c3227167b5fe2888614,2021-07-29_22h04.53.382,Simcolourproject_2stim_asymm_v5,2020.2.10,MacIntel,60,61025ae37ef11b136ea224fe,,,,,,,,,2470,48.97265625,97.58984375,1,0,0,response1disk,,7,16.76171875,-11.19921875,1,0,0,rectangle,16.76171875,-11.19921875,1,0,0,16.76171875,-11.19921875,1,0,0,0,92,92,29,1,,,,,,,,
,,,,,,,,,,,,,FF,,,,,,,,0.752,,,,,,,,,,,,,,,,,,,,,,60ff834ced6d44e459722347,61036c3227167b5fe2888614,2021-07-29_22h04.53.382,Simcolourproject_2stim_asymm_v5,2020.2.10,MacIntel,60,61025ae37ef11b136ea224fe,,,,,,,,,950,48.5234375,81.40234375,1,0,0,response1disk,,7,21.51171875,0.20703125,1,0,0,rectangle,21.51171875,0.20703125,1,0,0,21.51171875,0.20703125,1,0,0,0,93,93,149,1,,,,,,,,
,,,,,,,,,,,,,FF,,,,,,,,1.3168,,,,,,,,,,,,,,,,,,,,,,60ff834ced6d44e459722347,61036c3227167b5fe2888614,2021-07-29_22h04.53.382,Simcolourproject_2stim_asymm_v5,2020.2.10,MacIntel,60,61025ae37ef11b136ea224fe,,,,,,,,,18,83.98046875,-46.55078125,1,0,0,response3disk,,5,3.05078125,4.58203125,1,0,0,rectangle,-41.78125,-95.8359375,1,0,0,2.921875,-3.453125,1,0,0,0,94,94,156,1,,response5disk_3,TRUE,3,3,"[134,192,224,200,70,95,291,163,305,311,125,82,17,99,46,50,78,112,17,282]",1.1317,rectangle
,,,,,,,,,,,,,FF,,,,,,,,2.8529,,,,,,,,,,,,,,,,,,,,,,60ff834ced6d44e459722347,61036c3227167b5fe2888614,2021-07-29_22h04.53.382,Simcolourproject_2stim_asymm_v5,2020.2.10,MacIntel,60,61025ae37ef11b136ea224fe,,,,,,,,,3760,90.16015625,-23.796875,1,0,0,response3disk,,5,22.3125,9.8203125,1,0,0,rectangle,22.3125,9.8203125,1,0,0,22.3125,9.8203125,1,0,0,0,95,95,49,1,,,,,,,,
,,,,,,,,,,,,,FF,,,,,,,,0.7505,,,,,,,,,,,,,,,,,,,,,,60ff834ced6d44e459722347,61036c3227167b5fe2888614,2021-07-29_22h04.53.382,Simcolourproject_2stim_asymm_v5,2020.2.10,MacIntel,60,61025ae37ef11b136ea224fe,,,,,,,,,2519,46.0625,64.0078125,1,0,0,response1disk,,7,21.54296875,4.9609375,1,0,0,rectangle,21.54296875,4.9609375,1,0,0,21.54296875,4.9609375,1,0,0,0,96,96,27,1,,,,,,,,
,,,,,,,,,,,,,FF,,,,,,,,1.5833,,,,,,,,,,,,,,,,,,,,,,60ff834ced6d44e459722347,61036c3227167b5fe2888614,2021-07-29_22h04.53.382,Simcolourproject_2stim_asymm_v5,2020.2.10,MacIntel,60,61025ae37ef11b136ea224fe,,,,,,,,,2890,-83.17578125,-52.3828125,1,0,0,response5disk,,2,-7.82421875,2.31640625,1,0,0,rectangle,-7.82421875,2.31640625,1,0,0,-7.82421875,2.31640625,1,0,0,0,97,97,81,1,,,,,,,,
,,,,,,,,,,,,,FF,,,,,,,,0.9983,,,,,,,,,,,,,,,,,,,,,,60ff834ced6d44e459722347,61036c3227167b5fe2888614,2021-07-29_22h04.53.382,Simcolourproject_2stim_asymm_v5,2020.2.10,MacIntel,60,61025ae37ef11b136ea224fe,,,,,,,,,907,-66.67578125,36.6328125,1,0,0,response7disk,,1,14.546875,4.21484375,1,0,0,rectangle,35.4453125,-71.9453125,1,0,0,5.3359375,2.53515625,1,0,0,0,98,98,78,1,,response3disk_3,TRUE,4,4,"[134,192,224,200,70,95,291,163,305,311,125,82,17,99,46,50,78,112,17,282]",1.0174,rectangle
,,,,,,,,,,,,,FF,,,,,,,,0.8851,,,,,,,,,,,,,,,,,,,,,,60ff834ced6d44e459722347,61036c3227167b5fe2888614,2021-07-29_22h04.53.382,Simcolourproject_2stim_asymm_v5,2020.2.10,MacIntel,60,61025ae37ef11b136ea224fe,,,,,,,,,2265,26.98828125,62.1484375,1,0,0,response1disk,,7,13.04296875,-2.66796875,1,0,0,rectangle,13.04296875,-2.66796875,1,0,0,13.04296875,-2.66796875,1,0,0,0,99,99,130,1,,,,,,,,
,,,,,,,,,,,,,FF,,,,,,,,1.9498,,,,,,,,,,,,,,,,,,,,,,60ff834ced6d44e459722347,61036c3227167b5fe2888614,2021-07-29_22h04.53.382,Simcolourproject_2stim_asymm_v5,2020.2.10,MacIntel,60,61025ae37ef11b136ea224fe,,,,,,,,,1221,-39.53515625,-113,1,0,0,response5disk,,3,-12.83984375,0.5,1,0,0,rectangle,-12.83984375,0.5,1,0,0,-12.83984375,0.5,1,0,0,0,100,100,89,1,,,,,,,,
,,,,,,,,,,,,,FF,,,,,,,,1.118,,,,,,,,,,,,,,,,,,,,,,60ff834ced6d44e459722347,61036c3227167b5fe2888614,2021-07-29_22h04.53.382,Simcolourproject_2stim_asymm_v5,2020.2.10,MacIntel,60,61025ae37ef11b136ea224fe,,,,,,,,,1307,-47.44140625,-92.30078125,1,0,0,response5disk,,3,-15.5390625,-0.9609375,1,0,0,rectangle,-15.5390625,-0.9609375,1,0,0,-15.5390625,-0.9609375,1,0,0,0,101,101,55,1,,,,,,,,
,,,,,,,,,,,,,FF,,,,,,,,1.3489,,,,,,,,,,,,,,,,,,,,,,60ff834ced6d44e459722347,61036c3227167b5fe2888614,2021-07-29_22h04.53.382,Simcolourproject_2stim_asymm_v5,2020.2.10,MacIntel,60,61025ae37ef11b136ea224fe,,,,,,,,,3176,78.9140625,-36.07421875,1,0,0,response3disk,,5,9.171875,1.8671875,1,0,0,rectangle,9.171875,1.8671875,1,0,0,9.171875,1.8671875,1,0,0,0,102,102,145,1,,,,,,,,
,,,,,,,,,,,,,FF,,,,,,,,1.5493,,,,,,,,,,,,,,,,,,,,,,60ff834ced6d44e459722347,61036c3227167b5fe2888614,2021-07-29_22h04.53.382,Simcolourproject_2stim_asymm_v5,2020.2.10,MacIntel,60,61025ae37ef11b136ea224fe,,,,,,,,,1660,81.6953125,-47.61328125,1,0,0,response3disk,,5,20.50390625,-17.0859375,1,0,0,rectangle,20.50390625,-17.0859375,1,0,0,20.50390625,-17.0859375,1,0,0,0,103,103,147,1,,,,,,,,
,,,,,,,,,,,,,FF,,,,,,,,2.3015,,,,,,,,,,,,,,,,,,,,,,60ff834ced6d44e459722347,61036c3227167b5fe2888614,2021-07-29_22h04.53.382,Simcolourproject_2stim_asymm_v5,2020.2.10,MacIntel,60,61025ae37ef11b136ea224fe,,,,,,,,,1204,50.5390625,-65.95703125,1,0,0,response3disk,,4,11.51953125,-7.66015625,1,0,0,rectangle,11.51953125,-7.66015625,1,0,0,11.51953125,-7.66015625,1,0,0,0,104,104,62,1,,,,,,,,
,,,,,,,,,,,,,FF,,,,,,,,2.5519,,,,,,,,,,,,,,,,,,,,,,60ff834ced6d44e459722347,61036c3227167b5fe2888614,2021-07-29_22h04.53.382,Simcolourproject_2stim_asymm_v5,2020.2.10,MacIntel,60,61025ae37ef11b136ea224fe,,,,,,,,,3824,80.16015625,33.390625,1,0,0,response1disk,,6,0.71484375,4.5390625,1,0,0,rectangle,0.71484375,4.5390625,1,0,0,0.71484375,4.5390625,1,0,0,0,105,105,99,1,,,,,,,,
,,,,,,,,,,,,,FF,,,,,,,,1.5502,,,,,,,,,,,,,,,,,,,,,,60ff834ced6d44e459722347,61036c3227167b5fe2888614,2021-07-29_22h04.53.382,Simcolourproject_2stim_asymm_v5,2020.2.10,MacIntel,60,61025ae37ef11b136ea224fe,,,,,,,,,4150,35.77734375,-87.99609375,1,0,0,response3disk,,4,10.1171875,-0.80078125,1,0,0,rectangle,10.1171875,-0.80078125,1,0,0,10.1171875,-0.80078125,1,0,0,0,106,106,80,1,,,,,,,,
,,,,,,,,,,,,,FF,,,,,,,,0.9685,,,,,,,,,,,,,,,,,,,,,,60ff834ced6d44e459722347,61036c3227167b5fe2888614,2021-07-29_22h04.53.382,Simcolourproject_2stim_asymm_v5,2020.2.10,MacIntel,60,61025ae37ef11b136ea224fe,,,,,,,,,2780,-45.390625,-74.01953125,1,0,0,response5disk,,3,-15.8203125,5.546875,1,0,0,rectangle,-15.8203125,5.546875,1,0,0,-15.8203125,5.546875,1,0,0,0,107,107,72,1,,,,,,,,
,,,,,,,,,,,,,FF,,,,,,,,0.8166,,,,,,,,,,,,,,,,,,,,,,60ff834ced6d44e459722347,61036c3227167b5fe2888614,2021-07-29_22h04.53.382,Simcolourproject_2stim_asymm_v5,2020.2.10,MacIntel,60,61025ae37ef11b136ea224fe,,,,,,,,,3857,79.87890625,30.4765625,1,0,0,response1disk,,6,21.76953125,9.80859375,1,0,0,rectangle,21.76953125,9.80859375,1,0,0,21.76953125,9.80859375,1,0,0,0,108,108,122,1,,,,,,,,
,,,,,,,,,,,,,FF,,,,,,,,0.7664,,,,,,,,,,,,,,,,,,,,,,60ff834ced6d44e459722347,61036c3227167b5fe2888614,2021-07-29_22h04.53.382,Simcolourproject_2stim_asymm_v5,2020.2.10,MacIntel,60,61025ae37ef11b136ea224fe,,,,,,,,,2070,72.72265625,21.31640625,1,0,0,response1disk,,6,1.796875,-2.0703125,1,0,0,rectangle,1.796875,-2.0703125,1,0,0,1.796875,-2.0703125,1,0,0,0,109,109,91,1,,,,,,,,
,,,,,,,,,,,,,FF,,,,,,,,2.3157,,,,,,,,,,,,,,,,,,,,,,60ff834ced6d44e459722347,61036c3227167b5fe2888614,2021-07-29_22h04.53.382,Simcolourproject_2stim_asymm_v5,2020.2.10,MacIntel,60,61025ae37ef11b136ea224fe,,,,,,,,,131,59.66796875,85.0625,1,0,0,response1disk,,7,17.4609375,-10.28125,1,0,0,rectangle,17.4609375,-10.28125,1,0,0,17.4609375,-10.28125,1,0,0,0,110,110,51,1,,,,,,,,
,,,,,,,,,,,,,FF,,,,,,,,1.8658,,,,,,,,,,,,,,,,,,,,,,60ff834ced6d44e459722347,61036c3227167b5fe2888614,2021-07-29_22h04.53.382,Simcolourproject_2stim_asymm_v5,2020.2.10,MacIntel,60,61025ae37ef11b136ea224fe,,,,,,,,,1289,93.84375,27.1953125,1,0,0,response1disk,,6,7.05859375,-14.3828125,1,0,0,rectangle,-35.12890625,99.96484375,1,0,0,5.5859375,-3.4296875,1,0,0,0,111,111,136,1,,response7disk_3,TRUE,0,0,"[134,192,224,200,70,95,291,163,305,311,125,82,17,99,46,50,78,112,17,282]",1.4174,rectangle
,,,,,,,,,,,,,FF,,,,,,,,1.2158,,,,,,,,,,,,,,,,,,,,,,60ff834ced6d44e459722347,61036c3227167b5fe2888614,2021-07-29_22h04.53.382,Simcolourproject_2stim_asymm_v5,2020.2.10,MacIntel,60,61025ae37ef11b136ea224fe,,,,,,,,,1947,22.203125,65.7578125,1,0,0,response1disk,,7,0.1171875,-11.30078125,1,0,0,rectangle,0.1171875,-11.30078125,1,0,0,0.1171875,-11.30078125,1,0,0,0,112,112,139,1,,,,,,,,
,,,,,,,,,,,,,FF,,,,,,,,1.2654,,,,,,,,,,,,,,,,,,,,,,60ff834ced6d44e459722347,61036c3227167b5fe2888614,2021-07-29_22h04.53.382,Simcolourproject_2stim_asymm_v5,2020.2.10,MacIntel,60,61025ae37ef11b136ea224fe,,,,,,,,,4252,-70.48828125,19.80859375,1,0,0,response7disk,,1,13.50390625,-2.91015625,1,0,0,rectangle,13.50390625,-2.91015625,1,0,0,13.50390625,-2.91015625,1,0,0,0,113,113,66,1,,,,,,,,
,,,,,,,,,,,,,FF,,,,,,,,0.9872,,,,,,,,,,,,,,,,,,,,,,60ff834ced6d44e459722347,61036c3227167b5fe2888614,2021-07-29_22h04.53.382,Simcolourproject_2stim_asymm_v5,2020.2.10,MacIntel,60,61025ae37ef11b136ea224fe,,,,,,,,,4337,-94.77734375,39.8671875,1,0,0,response7disk,,1,12.484375,9.93359375,1,0,0,rectangle,12.484375,9.93359375,1,0,0,12.484375,9.93359375,1,0,0,0,114,114,58,1,,,,,,,,
,,,,,,,,,,,,,FF,,,,,,,,1.1503,,,,,,,,,,,,,,,,,,,,,,60ff834ced6d44e459722347,61036c3227167b5fe2888614,2021-07-29_22h04.53.382,Simcolourproject_2stim_asymm_v5,2020.2.10,MacIntel,60,61025ae37ef11b136ea224fe,,,,,,,,,4126,-24.5859375,-64.078125,1,0,0,response5disk,,3,-2.39453125,10.625,1,0,0,rectangle,-2.39453125,10.625,1,0,0,-2.39453125,10.625,1,0,0,0,115,115,103,1,,,,,,,,
,,,,,,,,,,,,,FF,,,,,,,,0.7345,,,,,,,,,,,,,,,,,,,,,,60ff834ced6d44e459722347,61036c3227167b5fe2888614,2021-07-29_22h04.53.382,Simcolourproject_2stim_asymm_v5,2020.2.10,MacIntel,60,61025ae37ef11b136ea224fe,,,,,,,,,1652,28.50390625,75.7265625,1,0,0,response1disk,,7,9.46875,0.45703125,1,0,0,rectangle,9.46875,0.45703125,1,0,0,9.46875,0.45703125,1,0,0,0,116,116,86,1,,,,,,,,
,,,,,,,,,,,,,FF,,,,,,,,1.1852,,,,,,,,,,,,,,,,,,,,,,60ff834ced6d44e459722347,61036c3227167b5fe2888614,2021-07-29_22h04.53.382,Simcolourproject_2stim_asymm_v5,2020.2.10,MacIntel,60,61025ae37ef11b136ea224fe,,,,,,,,,627,35.24609375,58.890625,1,0,0,response1disk,,7,27.01171875,-3.6796875,1,0,0,rectangle,27.01171875,-3.6796875,1,0,0,27.01171875,-3.6796875,1,0,0,0,117,117,53,1,,,,,,,,
,,,,,,,,,,,,,FF,,,,,,,,2.2464,,,,,,,,,,,,,,,,,,,,,,60ff834ced6d44e459722347,61036c3227167b5fe2888614,2021-07-29_22h04.53.382,Simcolourproject_2stim_asymm_v5,2020.2.10,MacIntel,60,61025ae37ef11b136ea224fe,,,,,,,,,4195,73.0078125,-37.2109375,1,0,0,response3disk,,5,0.0859375,12.9609375,1,0,0,rectangle,0.0859375,12.9609375,1,0,0,0.0859375,12.9609375,1,0,0,0,118,118,100,1,,,,,,,,
,,,,,,,,,,,,,FF,,,,,,,,1.2849,,,,,,,,,,,,,,,,,,,,,,60ff834ced6d44e459722347,61036c3227167b5fe2888614,2021-07-29_22h04.53.382,Simcolourproject_2stim_asymm_v5,2020.2.10,MacIntel,60,61025ae37ef11b136ea224fe,,,,,,,,,2939,64.21484375,32.1015625,1,0,0,response1disk,,6,14.9921875,-4.5703125,1,0,0,rectangle,14.9921875,-4.5703125,1,0,0,14.9921875,-4.5703125,1,0,0,0,119,119,98,1,,,,,,,,
,,,,,,,,,,,,,FF,,,,,,,,1.0174,,,,,,,,,,,,,,,,,,,,,,60ff834ced6d44e459722347,61036c3227167b5fe2888614,2021-07-29_22h04.53.382,Simcolourproject_2stim_asymm_v5,2020.2.10,MacIntel,60,61025ae37ef11b136ea224fe,,,,,,,,,4050,60.03515625,-46.64453125,1,0,0,response3disk,,5,3.1015625,-14.3203125,1,0,0,rectangle,3.1015625,-14.3203125,1,0,0,3.1015625,-14.3203125,1,0,0,0,120,120,69,1,,,,,,,,
,,,,,,,,,,,,,FF,,,,,,,,1.5014,,,,,,,,,,,,,,,,,,,,,,60ff834ced6d44e459722347,61036c3227167b5fe2888614,2021-07-29_22h04.53.382,Simcolourproject_2stim_asymm_v5,2020.2.10,MacIntel,60,61025ae37ef11b136ea224fe,,,,,,,,,3518,-35.296875,-97.84375,1,0,0,response5disk,,3,9.0390625,14.0546875,1,0,0,rectangle,9.0390625,14.0546875,1,0,0,9.0390625,14.0546875,1,0,0,0,121,121,152,1,,,,,,,,
,,,,,,,,,,,,,FF,,,,,,,,1.3316,,,,,,,,,,,,,,,,,,,,,,60ff834ced6d44e459722347,61036c3227167b5fe2888614,2021-07-29_22h04.53.382,Simcolourproject_2stim_asymm_v5,2020.2.10,MacIntel,60,61025ae37ef11b136ea224fe,,,,,,,,,2987,-23.15234375,-81.19921875,1,0,0,response5disk,,3,-16.109375,-11.328125,1,0,0,rectangle,-16.109375,-11.328125,1,0,0,-16.109375,-11.328125,1,0,0,0,122,122,94,1,,,,,,,,
,,,,,,,,,,,,,FF,,,,,,,,0.9833,,,,,,,,,,,,,,,,,,,,,,60ff834ced6d44e459722347,61036c3227167b5fe2888614,2021-07-29_22h04.53.382,Simcolourproject_2stim_asymm_v5,2020.2.10,MacIntel,60,61025ae37ef11b136ea224fe,,,,,,,,,1708,29.30859375,51.4140625,1,0,0,response1disk,,7,11.25390625,4.5546875,1,0,0,rectangle,11.25390625,4.5546875,1,0,0,11.25390625,4.5546875,1,0,0,0,123,123,88,1,,,,,,,,
,,,,,,,,,,,,,FF,,,,,,,,1.5841,,,,,,,,,,,,,,,,,,,,,,60ff834ced6d44e459722347,61036c3227167b5fe2888614,2021-07-29_22h04.53.382,Simcolourproject_2stim_asymm_v5,2020.2.10,MacIntel,60,61025ae37ef11b136ea224fe,,,,,,,,,4278,62.53125,34.58984375,1,0,0,response1disk,,6,20.265625,-9.37890625,1,0,0,rectangle,-76.44140625,34.9296875,1,0,0,-10.31640625,13.3046875,1,0,0,0,124,124,33,1,,response7disk_3,TRUE,1,1,"[134,192,224,200,70,95,291,163,305,311,125,82,17,99,46,50,78,112,17,282]",1.4182,rectangle
,,,,,,,,,,,,,FF,,,,,,,,2.1528,,,,,,,,,,,,,,,,,,,,,,60ff834ced6d44e459722347,61036c3227167b5fe2888614,2021-07-29_22h04.53.382,Simcolourproject_2stim_asymm_v5,2020.2.10,MacIntel,60,61025ae37ef11b136ea224fe,,,,,,,,,3450,22.57421875,72.34765625,1,0,0,response1disk,,7,3.0625,0.88671875,1,0,0,rectangle,3.0625,0.88671875,1,0,0,3.0625,0.88671875,1,0,0,0,125,125,124,1,,,,,,,,
,,,,,,,,,,,,,FF,,,,,,,,2.0499,,,,,,,,,,,,,,,,,,,,,,60ff834ced6d44e459722347,61036c3227167b5fe2888614,2021-07-29_22h04.53.382,Simcolourproject_2stim_asymm_v5,2020.2.10,MacIntel,60,61025ae37ef11b136ea224fe,,,,,,,,,2385,83.83203125,42.86328125,1,0,0,response1disk,,6,15.01953125,13.09375,1,0,0,rectangle,15.01953125,13.09375,1,0,0,15.01953125,13.09375,1,0,0,0,126,126,15,1,,,,,,,,
,,,,,,,,,,,,,FF,,,,,,,,2.966,,,,,,,,,,,,,,,,,,,,,,60ff834ced6d44e459722347,61036c3227167b5fe2888614,2021-07-29_22h04.53.382,Simcolourproject_2stim_asymm_v5,2020.2.10,MacIntel,60,61025ae37ef11b136ea224fe,,,,,,,,,2763,82.39453125,50.4140625,1,0,0,response1disk,,6,1.63671875,6.39453125,1,0,0,rectangle,1.63671875,6.39453125,1,0,0,1.63671875,6.39453125,1,0,0,0,127,127,76,1,,,,,,,,
,,,,,,,,,,,,,FF,,,,,,,,0.8526,,,,,,,,,,,,,,,,,,,,,,60ff834ced6d44e459722347,61036c3227167b5fe2888614,2021-07-29_22h04.53.382,Simcolourproject_2stim_asymm_v5,2020.2.10,MacIntel,60,61025ae37ef11b136ea224fe,,,,,,,,,2695,73.4609375,39.12109375,1,0,0,response1disk,,6,1.375,12.19921875,1,0,0,rectangle,1.375,12.19921875,1,0,0,1.375,12.19921875,1,0,0,0,128,128,146,1,,,,,,,,
,,,,,,,,,,,,,FF,,,,,,,,1.1638,,,,,,,,,,,,,,,,,,,,,,60ff834ced6d44e459722347,61036c3227167b5fe2888614,2021-07-29_22h04.53.382,Simcolourproject_2stim_asymm_v5,2020.2.10,MacIntel,60,61025ae37ef11b136ea224fe,,,,,,,,,124,67.4609375,-21.75390625,1,0,0,response3disk,,5,13.65234375,1.29296875,1,0,0,rectangle,13.65234375,1.29296875,1,0,0,13.65234375,1.29296875,1,0,0,0,129,129,159,1,,,,,,,,
,,,,,,,,,,,,,FF,,,,,,,,0.6687,,,,,,,,,,,,,,,,,,,,,,60ff834ced6d44e459722347,61036c3227167b5fe2888614,2021-07-29_22h04.53.382,Simcolourproject_2stim_asymm_v5,2020.2.10,MacIntel,60,61025ae37ef11b136ea224fe,,,,,,,,,4315,43.26953125,74.41796875,1,0,0,response1disk,,7,20.0234375,-8.0703125,1,0,0,rectangle,20.0234375,-8.0703125,1,0,0,20.0234375,-8.0703125,1,0,0,0,130,130,87,1,,,,,,,,
,,,,,,,,,,,,,FF,,,,,,,,0.7357,,,,,,,,,,,,,,,,,,,,,,60ff834ced6d44e459722347,61036c3227167b5fe2888614,2021-07-29_22h04.53.382,Simcolourproject_2stim_asymm_v5,2020.2.10,MacIntel,60,61025ae37ef11b136ea224fe,,,,,,,,,1788,36.75,70.7734375,1,0,0,response1disk,,7,20.65234375,0.09765625,1,0,0,rectangle,20.65234375,0.09765625,1,0,0,20.65234375,0.09765625,1,0,0,0,131,131,41,1,,,,,,,,
,,,,,,,,,,,,,FF,,,,,,,,2.4999,,,,,,,,,,,,,,,,,,,,,,60ff834ced6d44e459722347,61036c3227167b5fe2888614,2021-07-29_22h04.53.382,Simcolourproject_2stim_asymm_v5,2020.2.10,MacIntel,60,61025ae37ef11b136ea224fe,,,,,,,,,1440,55.0390625,36.4375,1,0,0,response1disk,,6,8.48046875,-0.5546875,1,0,0,rectangle,8.48046875,-0.5546875,1,0,0,8.48046875,-0.5546875,1,0,0,0,132,132,30,1,,,,,,,,
,,,,,,,,,,,,,FF,,,,,,,,1.8333,,,,,,,,,,,,,,,,,,,,,,60ff834ced6d44e459722347,61036c3227167b5fe2888614,2021-07-29_22h04.53.382,Simcolourproject_2stim_asymm_v5,2020.2.10,MacIntel,60,61025ae37ef11b136ea224fe,,,,,,,,,1612,-40.63671875,-73.35546875,1,0,0,response5disk,,3,-8.125,-0.4140625,1,0,0,rectangle,17.109375,73.08984375,1,0,0,-2.91796875,4.734375,1,0,0,0,133,133,92,1,,response1disk_3,TRUE,7,7,"[134,192,224,200,70,95,291,163,305,311,125,82,17,99,46,50,78,112,17,282]",1.7018,rectangle
,,,,,,,,,,,,,FF,,,,,,,,1.0172,,,,,,,,,,,,,,,,,,,,,,60ff834ced6d44e459722347,61036c3227167b5fe2888614,2021-07-29_22h04.53.382,Simcolourproject_2stim_asymm_v5,2020.2.10,MacIntel,60,61025ae37ef11b136ea224fe,,,,,,,,,2106,-39.95703125,-103.2265625,1,0,0,response5disk,,3,-7.14453125,-8.3671875,1,0,0,rectangle,-7.14453125,-8.3671875,1,0,0,-7.14453125,-8.3671875,1,0,0,0,134,134,85,1,,,,,,,,
,,,,,,,,,,,,,FF,,,,,,,,0.7831,,,,,,,,,,,,,,,,,,,,,,60ff834ced6d44e459722347,61036c3227167b5fe2888614,2021-07-29_22h04.53.382,Simcolourproject_2stim_asymm_v5,2020.2.10,MacIntel,60,61025ae37ef11b136ea224fe,,,,,,,,,1748,-62.890625,-48.7578125,1,0,0,response5disk,,2,-6.90625,-3.66015625,1,0,0,rectangle,-6.90625,-3.66015625,1,0,0,-6.90625,-3.66015625,1,0,0,0,135,135,48,1,,,,,,,,
,,,,,,,,,,,,,FF,,,,,,,,0.7181,,,,,,,,,,,,,,,,,,,,,,60ff834ced6d44e459722347,61036c3227167b5fe2888614,2021-07-29_22h04.53.382,Simcolourproject_2stim_asymm_v5,2020.2.10,MacIntel,60,61025ae37ef11b136ea224fe,,,,,,,,,1513,44.1484375,-24.0078125,1,0,0,response3disk,,5,4.3671875,-12.46484375,1,0,0,rectangle,4.3671875,-12.46484375,1,0,0,4.3671875,-12.46484375,1,0,0,0,136,136,6,1,,,,,,,,
,,,,,,,,,,,,,FF,,,,,,,,1.633,,,,,,,,,,,,,,,,,,,,,,60ff834ced6d44e459722347,61036c3227167b5fe2888614,2021-07-29_22h04.53.382,Simcolourproject_2stim_asymm_v5,2020.2.10,MacIntel,60,61025ae37ef11b136ea224fe,,,,,,,,,3345,43.8671875,88.06640625,1,0,0,response1disk,,7,21.765625,11.8515625,1,0,0,rectangle,21.765625,11.8515625,1,0,0,21.765625,11.8515625,1,0,0,0,137,137,141,1,,,,,,,,
,,,,,,,,,,,,,FF,,,,,,,,1.9012,,,,,,,,,,,,,,,,,,,,,,60ff834ced6d44e459722347,61036c3227167b5fe2888614,2021-07-29_22h04.53.382,Simcolourproject_2stim_asymm_v5,2020.2.10,MacIntel,60,61025ae37ef11b136ea224fe,,,,,,,,,3951,38.94140625,-72.2734375,1,0,0,response3disk,,4,10.95703125,-0.40625,1,0,0,rectangle,10.95703125,-0.40625,1,0,0,10.95703125,-0.40625,1,0,0,0,138,138,155,1,,,,,,,,
,,,,,,,,,,,,,FF,,,,,,,,1.1333,,,,,,,,,,,,,,,,,,,,,,60ff834ced6d44e459722347,61036c3227167b5fe2888614,2021-07-29_22h04.53.382,Simcolourproject_2stim_asymm_v5,2020.2.10,MacIntel,60,61025ae37ef11b136ea224fe,,,,,,,,,3626,-42.55078125,-79.5390625,1,0,0,response5disk,,3,-7.80078125,-9.16796875,1,0,0,rectangle,-7.80078125,-9.16796875,1,0,0,-7.80078125,-9.16796875,1,0,0,0,139,139,143,1,,,,,,,,
,,,,,,,,,,,,,FF,,,,,,,,1.3354,,,,,,,,,,,,,,,,,,,,,,60ff834ced6d44e459722347,61036c3227167b5fe2888614,2021-07-29_22h04.53.382,Simcolourproject_2stim_asymm_v5,2020.2.10,MacIntel,60,61025ae37ef11b136ea224fe,,,,,,,,,703,34.5234375,-50.0546875,1,0,0,response3disk,,4,13.59765625,-7.609375,1,0,0,rectangle,13.59765625,-7.609375,1,0,0,13.59765625,-7.609375,1,0,0,0,140,140,34,1,,,,,,,,
,,,,,,,,,,,,,FF,,,,,,,,1.8003,,,,,,,,,,,,,,,,,,,,,,60ff834ced6d44e459722347,61036c3227167b5fe2888614,2021-07-29_22h04.53.382,Simcolourproject_2stim_asymm_v5,2020.2.10,MacIntel,60,61025ae37ef11b136ea224fe,,,,,,,,,294,75.72265625,-44.265625,1,0,0,response3disk,,5,13.38671875,-3.9140625,1,0,0,rectangle,13.38671875,-3.9140625,1,0,0,13.38671875,-3.9140625,1,0,0,0,141,141,40,1,,,,,,,,
,,,,,,,,,,,,,FF,,,,,,,,0.9845,,,,,,,,,,,,,,,,,,,,,,60ff834ced6d44e459722347,61036c3227167b5fe2888614,2021-07-29_22h04.53.382,Simcolourproject_2stim_asymm_v5,2020.2.10,MacIntel,60,61025ae37ef11b136ea224fe,,,,,,,,,1330,47.453125,70.7421875,1,0,0,response1disk,,7,15.23828125,-3.6796875,1,0,0,rectangle,15.23828125,-3.6796875,1,0,0,15.23828125,-3.6796875,1,0,0,0,142,142,105,1,,,,,,,,
,,,,,,,,,,,,,FF,,,,,,,,1.6672,,,,,,,,,,,,,,,,,,,,,,60ff834ced6d44e459722347,61036c3227167b5fe2888614,2021-07-29_22h04.53.382,Simcolourproject_2stim_asymm_v5,2020.2.10,MacIntel,60,61025ae37ef11b136ea224fe,,,,,,,,,1431,54.1640625,35.5390625,1,0,0,response1disk,,6,9.25,-10.65625,1,0,0,rectangle,9.25,-10.65625,1,0,0,9.25,-10.65625,1,0,0,0,143,143,63,1,,,,,,,,
,,,,,,,,,,,,,FF,,,,,,,,0.9825,,,,,,,,,,,,,,,,,,,,,,60ff834ced6d44e459722347,61036c3227167b5fe2888614,2021-07-29_22h04.53.382,Simcolourproject_2stim_asymm_v5,2020.2.10,MacIntel,60,61025ae37ef11b136ea224fe,,,,,,,,,803,-83.640625,-44.13671875,1,0,0,response5disk,,2,8.3046875,-10.578125,1,0,0,rectangle,8.3046875,-10.578125,1,0,0,8.3046875,-10.578125,1,0,0,0,144,144,123,1,,,,,,,,
,,,,,,,,,,,,,FF,,,,,,,,0.6349,,,,,,,,,,,,,,,,,,,,,,60ff834ced6d44e459722347,61036c3227167b5fe2888614,2021-07-29_22h04.53.382,Simcolourproject_2stim_asymm_v5,2020.2.10,MacIntel,60,61025ae37ef11b136ea224fe,,,,,,,,,4305,-33.875,78.26953125,1,0,0,response7disk,,0,-9.2734375,-0.8203125,1,0,0,rectangle,-9.2734375,-0.8203125,1,0,0,-9.2734375,-0.8203125,1,0,0,0,145,145,59,1,,,,,,,,
,,,,,,,,,,,,,FF,,,,,,,,0.7479,,,,,,,,,,,,,,,,,,,,,,60ff834ced6d44e459722347,61036c3227167b5fe2888614,2021-07-29_22h04.53.382,Simcolourproject_2stim_asymm_v5,2020.2.10,MacIntel,60,61025ae37ef11b136ea224fe,,,,,,,,,989,-96.609375,41.34765625,1,0,0,response7disk,,1,-0.77734375,-4.28515625,1,0,0,rectangle,-0.77734375,-4.28515625,1,0,0,-0.77734375,-4.28515625,1,0,0,0,146,146,1,1,,,,,,,,
,,,,,,,,,,,,,FF,,,,,,,,1.434,,,,,,,,,,,,,,,,,,,,,,60ff834ced6d44e459722347,61036c3227167b5fe2888614,2021-07-29_22h04.53.382,Simcolourproject_2stim_asymm_v5,2020.2.10,MacIntel,60,61025ae37ef11b136ea224fe,,,,,,,,,2114,29.71484375,-84.84375,1,0,0,response3disk,,4,-0.14453125,4.1640625,1,0,0,rectangle,-0.14453125,4.1640625,1,0,0,-0.14453125,4.1640625,1,0,0,0,147,147,54,1,,,,,,,,
,,,,,,,,,,,,,FF,,,,,,,,0.8986,,,,,,,,,,,,,,,,,,,,,,60ff834ced6d44e459722347,61036c3227167b5fe2888614,2021-07-29_22h04.53.382,Simcolourproject_2stim_asymm_v5,2020.2.10,MacIntel,60,61025ae37ef11b136ea224fe,,,,,,,,,2156,52.1953125,-26.69921875,1,0,0,response3disk,,5,12.125,-6.48828125,1,0,0,rectangle,12.125,-6.48828125,1,0,0,12.125,-6.48828125,1,0,0,0,148,148,110,1,,,,,,,,
,,,,,,,,,,,,,FF,,,,,,,,1.1854,,,,,,,,,,,,,,,,,,,,,,60ff834ced6d44e459722347,61036c3227167b5fe2888614,2021-07-29_22h04.53.382,Simcolourproject_2stim_asymm_v5,2020.2.10,MacIntel,60,61025ae37ef11b136ea224fe,,,,,,,,,2750,71.02734375,32.875,1,0,0,response1disk,,6,14.48046875,7.7109375,1,0,0,rectangle,14.48046875,7.7109375,1,0,0,14.48046875,7.7109375,1,0,0,0,149,149,47,1,,,,,,,,
,,,,,,,,,,,,,FF,,,,,,,,0.8685,,,,,,,,,,,,,,,,,,,,,,60ff834ced6d44e459722347,61036c3227167b5fe2888614,2021-07-29_22h04.53.382,Simcolourproject_2stim_asymm_v5,2020.2.10,MacIntel,60,61025ae37ef11b136ea224fe,,,,,,,,,3132,48.93359375,75.55078125,1,0,0,response1disk,,7,11.30078125,-9.265625,1,0,0,rectangle,11.30078125,-9.265625,1,0,0,11.30078125,-9.265625,1,0,0,0,150,150,138,1,,,,,,,,
,,,,,,,,,,,,,FF,,,,,,,,1.0007,,,,,,,,,,,,,,,,,,,,,,60ff834ced6d44e459722347,61036c3227167b5fe2888614,2021-07-29_22h04.53.382,Simcolourproject_2stim_asymm_v5,2020.2.10,MacIntel,60,61025ae37ef11b136ea224fe,,,,,,,,,2606,-79.171875,-44.359375,1,0,0,response5disk,,2,-2.85546875,-6.7421875,1,0,0,rectangle,-2.85546875,-6.7421875,1,0,0,-2.85546875,-6.7421875,1,0,0,0,151,151,0,1,,,,,,,,
,,,,,,,,,,,,,FF,,,,,,,,0.8184,,,,,,,,,,,,,,,,,,,,,,60ff834ced6d44e459722347,61036c3227167b5fe2888614,2021-07-29_22h04.53.382,Simcolourproject_2stim_asymm_v5,2020.2.10,MacIntel,60,61025ae37ef11b136ea224fe,,,,,,,,,2591,57.1484375,90.18359375,1,0,0,response1disk,,7,19.7890625,-12.87890625,1,0,0,rectangle,19.7890625,-12.87890625,1,0,0,19.7890625,-12.87890625,1,0,0,0,152,152,133,1,,,,,,,,
,,,,,,,,,,,,,FF,,,,,,,,0.7688,,,,,,,,,,,,,,,,,,,,,,60ff834ced6d44e459722347,61036c3227167b5fe2888614,2021-07-29_22h04.53.382,Simcolourproject_2stim_asymm_v5,2020.2.10,MacIntel,60,61025ae37ef11b136ea224fe,,,,,,,,,4208,-56.8203125,28.8359375,1,0,0,response7disk,,1,1.18359375,-2.46875,1,0,0,rectangle,1.18359375,-2.46875,1,0,0,1.18359375,-2.46875,1,0,0,0,153,153,70,1,,,,,,,,
,,,,,,,,,,,,,FF,,,,,,,,1.0181,,,,,,,,,,,,,,,,,,,,,,60ff834ced6d44e459722347,61036c3227167b5fe2888614,2021-07-29_22h04.53.382,Simcolourproject_2stim_asymm_v5,2020.2.10,MacIntel,60,61025ae37ef11b136ea224fe,,,,,,,,,1184,35.7421875,69.8125,1,0,0,response1disk,,7,12.62890625,-7.4140625,1,0,0,rectangle,12.62890625,-7.4140625,1,0,0,12.62890625,-7.4140625,1,0,0,0,154,154,108,1,,,,,,,,
,,,,,,,,,,,,,FF,,,,,,,,0.686,,,,,,,,,,,,,,,,,,,,,,60ff834ced6d44e459722347,61036c3227167b5fe2888614,2021-07-29_22h04.53.382,Simcolourproject_2stim_asymm_v5,2020.2.10,MacIntel,60,61025ae37ef11b136ea224fe,,,,,,,,,2059,36.48828125,92.47265625,1,0,0,response1disk,,7,23.4140625,-0.4765625,1,0,0,rectangle,23.4140625,-0.4765625,1,0,0,23.4140625,-0.4765625,1,0,0,0,155,155,68,1,,,,,,,,
,,,,,,,,,,,,,FF,,,,,,,,0.981,,,,,,,,,,,,,,,,,,,,,,60ff834ced6d44e459722347,61036c3227167b5fe2888614,2021-07-29_22h04.53.382,Simcolourproject_2stim_asymm_v5,2020.2.10,MacIntel,60,61025ae37ef11b136ea224fe,,,,,,,,,2550,78.11328125,39.77734375,1,0,0,response1disk,,6,-13.734375,-8.87890625,1,0,0,rectangle,-13.734375,-8.87890625,1,0,0,-13.734375,-8.87890625,1,0,0,0,156,156,64,1,,,,,,,,
,,,,,,,,,,,,,FF,,,,,,,,1.3304,,,,,,,,,,,,,,,,,,,,,,60ff834ced6d44e459722347,61036c3227167b5fe2888614,2021-07-29_22h04.53.382,Simcolourproject_2stim_asymm_v5,2020.2.10,MacIntel,60,61025ae37ef11b136ea224fe,,,,,,,,,1665,75.203125,45.26171875,1,0,0,response1disk,,6,3.625,4.90625,1,0,0,rectangle,3.625,4.90625,1,0,0,3.625,4.90625,1,0,0,0,157,157,119,1,,,,,,,,
,,,,,,,,,,,,,FF,,,,,,,,1.3004,,,,,,,,,,,,,,,,,,,,,,60ff834ced6d44e459722347,61036c3227167b5fe2888614,2021-07-29_22h04.53.382,Simcolourproject_2stim_asymm_v5,2020.2.10,MacIntel,60,61025ae37ef11b136ea224fe,,,,,,,,,3094,-82.07421875,-42.00390625,1,0,0,response5disk,,2,-4.8671875,-6.515625,1,0,0,rectangle,-4.8671875,-6.515625,1,0,0,-4.8671875,-6.515625,1,0,0,0,158,158,132,1,,,,,,,,
,,,,,,,,,,,,,FF,,,,,,,,0.835,,,,,,,,,,,,,,,,,,,,,,60ff834ced6d44e459722347,61036c3227167b5fe2888614,2021-07-29_22h04.53.382,Simcolourproject_2stim_asymm_v5,2020.2.10,MacIntel,60,61025ae37ef11b136ea224fe,,,,,,,,,2533,27.70703125,-78.40625,1,0,0,response3disk,,4,6.78125,-6.07421875,1,0,0,rectangle,6.78125,-6.07421875,1,0,0,6.78125,-6.07421875,1,0,0,0,159,159,113,1,,,,,,,,
,,,,,,,,,,,,,FF,,,,,,,,0.6313,,,,,,,,,,,,,,,,,,,,,,60ff834ced6d44e459722347,61036c3227167b5fe2888614,2021-07-29_22h04.53.382,Simcolourproject_2stim_asymm_v5,2020.2.10,MacIntel,60,61025ae37ef11b136ea224fe,,,,,,,,,3936,-40.28515625,92.9453125,1,0,0,response7disk,,0,-7.42578125,3.14453125,1,0,0,rectangle,-7.42578125,3.14453125,1,0,0,-7.42578125,3.14453125,1,0,0,1,0,160,37,1,,,,,,,,
,,,,,,,,,,,,,FF,,,,,,,,1.2861,,,,,,,,,,,,,,,,,,,,,,60ff834ced6d44e459722347,61036c3227167b5fe2888614,2021-07-29_22h04.53.382,Simcolourproject_2stim_asymm_v5,2020.2.10,MacIntel,60,61025ae37ef11b136ea224fe,,,,,,,,,3360,31.40234375,75.703125,1,0,0,response1disk,,7,28.5703125,4.71484375,1,0,0,rectangle,28.5703125,4.71484375,1,0,0,28.5703125,4.71484375,1,0,0,1,1,161,52,1,,,,,,,,
,,,,,,,,,,,,,FF,,,,,,,,0.8005,,,,,,,,,,,,,,,,,,,,,,60ff834ced6d44e459722347,61036c3227167b5fe2888614,2021-07-29_22h04.53.382,Simcolourproject_2stim_asymm_v5,2020.2.10,MacIntel,60,61025ae37ef11b136ea224fe,,,,,,,,,3272,44.89453125,91.48828125,1,0,0,response1disk,,7,19.3828125,1.82421875,1,0,0,rectangle,70.59765625,-48.66796875,1,0,0,17.9296875,-6.30859375,1,0,0,1,2,162,159,1,,response3disk_3,TRUE,5,5,"[134,192,224,200,70,95,291,163,305,311,125,82,17,99,46,50,78,112,17,282]",1.3175,rectangle
,,,,,,,,,,,,,FF,,,,,,,,1.2859,,,,,,,,,,,,,,,,,,,,,,60ff834ced6d44e459722347,61036c3227167b5fe2888614,2021-07-29_22h04.53.382,Simcolourproject_2stim_asymm_v5,2020.2.10,MacIntel,60,61025ae37ef11b136ea224fe,,,,,,,,,2736,-47.72265625,-115.5390625,1,0,0,response5disk,,3,-17.421875,-2.7734375,1,0,0,rectangle,-17.421875,-2.7734375,1,0,0,-17.421875,-2.7734375,1,0,0,1,3,163,36,1,,,,,,,,
,,,,,,,,,,,,,FF,,,,,,,,1.0649,,,,,,,,,,,,,,,,,,,,,,60ff834ced6d44e459722347,61036c3227167b5fe2888614,2021-07-29_22h04.53.382,Simcolourproject_2stim_asymm_v5,2020.2.10,MacIntel,60,61025ae37ef11b136ea224fe,,,,,,,,,196,-40.140625,-81.29296875,1,0,0,response5disk,,3,-20.52734375,-6.07421875,1,0,0,rectangle,-20.52734375,-6.07421875,1,0,0,-20.52734375,-6.07421875,1,0,0,1,4,164,70,1,,,,,,,,
,,,,,,,,,,,,,FF,,,,,,,,0.7343,,,,,,,,,,,,,,,,,,,,,,60ff834ced6d44e459722347,61036c3227167b5fe2888614,2021-07-29_22h04.53.382,Simcolourproject_2stim_asymm_v5,2020.2.10,MacIntel,60,61025ae37ef11b136ea224fe,,,,,,,,,2721,-72.90625,-48.27734375,1,0,0,response5disk,,2,-13.59765625,-10.890625,1,0,0,rectangle,-13.59765625,-10.890625,1,0,0,-13.59765625,-10.890625,1,0,0,1,5,165,24,1,,,,,,,,
,,,,,,,,,,,,,FF,,,,,,,,0.7999,,,,,,,,,,,,,,,,,,,,,,60ff834ced6d44e459722347,61036c3227167b5fe2888614,2021-07-29_22h04.53.382,Simcolourproject_2stim_asymm_v5,2020.2.10,MacIntel,60,61025ae37ef11b136ea224fe,,,,,,,,,924,22.6953125,46.62890625,1,0,0,response1disk,,7,5.6953125,-6.46484375,1,0,0,rectangle,5.6953125,-6.46484375,1,0,0,5.6953125,-6.46484375,1,0,0,1,6,166,4,1,,,,,,,,
,,,,,,,,,,,,,FF,,,,,,,,1.5475,,,,,,,,,,,,,,,,,,,,,,60ff834ced6d44e459722347,61036c3227167b5fe2888614,2021-07-29_22h04.53.382,Simcolourproject_2stim_asymm_v5,2020.2.10,MacIntel,60,61025ae37ef11b136ea224fe,,,,,,,,,2429,60.71875,-76.37890625,1,0,0,response3disk,,4,26.6328125,-7.984375,1,0,0,rectangle,26.6328125,-7.984375,1,0,0,26.6328125,-7.984375,1,0,0,1,7,167,46,1,,,,,,,,
,,,,,,,,,,,,,FF,,,,,,,,0.7015,,,,,,,,,,,,,,,,,,,,,,60ff834ced6d44e459722347,61036c3227167b5fe2888614,2021-07-29_22h04.53.382,Simcolourproject_2stim_asymm_v5,2020.2.10,MacIntel,60,61025ae37ef11b136ea224fe,,,,,,,,,535,39.87109375,79.73046875,1,0,0,response1disk,,7,18.34375,9.19140625,1,0,0,rectangle,18.34375,9.19140625,1,0,0,18.34375,9.19140625,1,0,0,1,8,168,156,1,,,,,,,,
,,,,,,,,,,,,,FF,,,,,,,,1.3154,,,,,,,,,,,,,,,,,,,,,,60ff834ced6d44e459722347,61036c3227167b5fe2888614,2021-07-29_22h04.53.382,Simcolourproject_2stim_asymm_v5,2020.2.10,MacIntel,60,61025ae37ef11b136ea224fe,,,,,,,,,701,-40.234375,-97.11328125,1,0,0,response5disk,,3,-5.34375,-3.4921875,1,0,0,rectangle,-5.34375,-3.4921875,1,0,0,-5.34375,-3.4921875,1,0,0,1,9,169,151,1,,,,,,,,
,,,,,,,,,,,,,FF,,,,,,,,0.9496,,,,,,,,,,,,,,,,,,,,,,60ff834ced6d44e459722347,61036c3227167b5fe2888614,2021-07-29_22h04.53.382,Simcolourproject_2stim_asymm_v5,2020.2.10,MacIntel,60,61025ae37ef11b136ea224fe,,,,,,,,,4045,67.3671875,39.66796875,1,0,0,response1disk,,6,-10.6328125,-1.078125,1,0,0,rectangle,-10.6328125,-1.078125,1,0,0,-10.6328125,-1.078125,1,0,0,1,10,170,88,1,,,,,,,,
,,,,,,,,,,,,,FF,,,,,,,,0.9153,,,,,,,,,,,,,,,,,,,,,,60ff834ced6d44e459722347,61036c3227167b5fe2888614,2021-07-29_22h04.53.382,Simcolourproject_2stim_asymm_v5,2020.2.10,MacIntel,60,61025ae37ef11b136ea224fe,,,,,,,,,2236,-91.65625,-38.67578125,1,0,0,response5disk,,2,-4.984375,2.8125,1,0,0,rectangle,-4.984375,2.8125,1,0,0,-4.984375,2.8125,1,0,0,1,11,171,72,1,,,,,,,,
,,,,,,,,,,,,,FF,,,,,,,,0.7143,,,,,,,,,,,,,,,,,,,,,,60ff834ced6d44e459722347,61036c3227167b5fe2888614,2021-07-29_22h04.53.382,Simcolourproject_2stim_asymm_v5,2020.2.10,MacIntel,60,61025ae37ef11b136ea224fe,,,,,,,,,472,35.16796875,72.1640625,1,0,0,response1disk,,7,14.37890625,-10.02734375,1,0,0,rectangle,14.37890625,-10.02734375,1,0,0,14.37890625,-10.02734375,1,0,0,1,12,172,120,1,,,,,,,,
,,,,,,,,,,,,,FF,,,,,,,,1.5833,,,,,,,,,,,,,,,,,,,,,,60ff834ced6d44e459722347,61036c3227167b5fe2888614,2021-07-29_22h04.53.382,Simcolourproject_2stim_asymm_v5,2020.2.10,MacIntel,60,61025ae37ef11b136ea224fe,,,,,,,,,195,-40.52734375,-101.4882813,1,0,0,response5disk,,3,8.03125,0.75390625,1,0,0,rectangle,8.03125,0.75390625,1,0,0,8.03125,0.75390625,1,0,0,1,13,173,98,1,,,,,,,,
,,,,,,,,,,,,,FF,,,,,,,,1.9007,,,,,,,,,,,,,,,,,,,,,,60ff834ced6d44e459722347,61036c3227167b5fe2888614,2021-07-29_22h04.53.382,Simcolourproject_2stim_asymm_v5,2020.2.10,MacIntel,60,61025ae37ef11b136ea224fe,,,,,,,,,3999,-38.74609375,-74.890625,1,0,0,response5disk,,3,1.2265625,15.421875,1,0,0,rectangle,1.2265625,15.421875,1,0,0,1.2265625,15.421875,1,0,0,1,14,174,48,1,,,,,,,,
,,,,,,,,,,,,,FF,,,,,,,,1.0019,,,,,,,,,,,,,,,,,,,,,,60ff834ced6d44e459722347,61036c3227167b5fe2888614,2021-07-29_22h04.53.382,Simcolourproject_2stim_asymm_v5,2020.2.10,MacIntel,60,61025ae37ef11b136ea224fe,,,,,,,,,1463,30.2109375,-72.00390625,1,0,0,response3disk,,4,8.265625,3.87890625,1,0,0,rectangle,8.265625,3.87890625,1,0,0,8.265625,3.87890625,1,0,0,1,15,175,100,1,,,,,,,,
,,,,,,,,,,,,,FF,,,,,,,,2.3336,,,,,,,,,,,,,,,,,,,,,,60ff834ced6d44e459722347,61036c3227167b5fe2888614,2021-07-29_22h04.53.382,Simcolourproject_2stim_asymm_v5,2020.2.10,MacIntel,60,61025ae37ef11b136ea224fe,,,,,,,,,670,28.7890625,57.60546875,1,0,0,response1disk,,7,15.5703125,-7.77734375,1,0,0,rectangle,15.5703125,-7.77734375,1,0,0,15.5703125,-7.77734375,1,0,0,1,16,176,22,1,,,,,,,,
,,,,,,,,,,,,,FF,,,,,,,,1.1191,,,,,,,,,,,,,,,,,,,,,,60ff834ced6d44e459722347,61036c3227167b5fe2888614,2021-07-29_22h04.53.382,Simcolourproject_2stim_asymm_v5,2020.2.10,MacIntel,60,61025ae37ef11b136ea224fe,,,,,,,,,3064,64.17578125,-35.171875,1,0,0,response3disk,,5,5.25,8.421875,1,0,0,rectangle,5.25,8.421875,1,0,0,5.25,8.421875,1,0,0,1,17,177,102,1,,,,,,,,
,,,,,,,,,,,,,FF,,,,,,,,0.6989,,,,,,,,,,,,,,,,,,,,,,60ff834ced6d44e459722347,61036c3227167b5fe2888614,2021-07-29_22h04.53.382,Simcolourproject_2stim_asymm_v5,2020.2.10,MacIntel,60,61025ae37ef11b136ea224fe,,,,,,,,,2278,25.05859375,65.19140625,1,0,0,response1disk,,7,-9.3828125,-3.203125,1,0,0,rectangle,-9.3828125,-3.203125,1,0,0,-9.3828125,-3.203125,1,0,0,1,18,178,45,1,,,,,,,,
,,,,,,,,,,,,,FF,,,,,,,,1.7361,,,,,,,,,,,,,,,,,,,,,,60ff834ced6d44e459722347,61036c3227167b5fe2888614,2021-07-29_22h04.53.382,Simcolourproject_2stim_asymm_v5,2020.2.10,MacIntel,60,61025ae37ef11b136ea224fe,,,,,,,,,2796,83.734375,23.9140625,1,0,0,response1disk,,6,9.70703125,-3.1640625,1,0,0,rectangle,9.70703125,-3.1640625,1,0,0,9.70703125,-3.1640625,1,0,0,1,19,179,25,1,,,,,,,,
,,,,,,,,,,,,,FF,,,,,,,,1.3193,,,,,,,,,,,,,,,,,,,,,,60ff834ced6d44e459722347,61036c3227167b5fe2888614,2021-07-29_22h04.53.382,Simcolourproject_2stim_asymm_v5,2020.2.10,MacIntel,60,61025ae37ef11b136ea224fe,,,,,,,,,858,40.19140625,76.7109375,1,0,0,response1disk,,7,2.2890625,-3.35546875,1,0,0,rectangle,2.2890625,-3.35546875,1,0,0,2.2890625,-3.35546875,1,0,0,1,20,180,74,1,,,,,,,,
,,,,,,,,,,,,,FF,,,,,,,,0.951,,,,,,,,,,,,,,,,,,,,,,60ff834ced6d44e459722347,61036c3227167b5fe2888614,2021-07-29_22h04.53.382,Simcolourproject_2stim_asymm_v5,2020.2.10,MacIntel,60,61025ae37ef11b136ea224fe,,,,,,,,,2629,69.8828125,-46.625,1,0,0,response3disk,,5,8.15625,-4.34375,1,0,0,rectangle,8.15625,-4.34375,1,0,0,8.15625,-4.34375,1,0,0,1,21,181,12,1,,,,,,,,
,,,,,,,,,,,,,FF,,,,,,,,2.1834,,,,,,,,,,,,,,,,,,,,,,60ff834ced6d44e459722347,61036c3227167b5fe2888614,2021-07-29_22h04.53.382,Simcolourproject_2stim_asymm_v5,2020.2.10,MacIntel,60,61025ae37ef11b136ea224fe,,,,,,,,,704,37.5859375,-93.45703125,1,0,0,response3disk,,4,15.28125,-13.41015625,1,0,0,rectangle,15.28125,-13.41015625,1,0,0,15.28125,-13.41015625,1,0,0,1,22,182,82,1,,,,,,,,
,,,,,,,,,,,,,FF,,,,,,,,0.8699,,,,,,,,,,,,,,,,,,,,,,60ff834ced6d44e459722347,61036c3227167b5fe2888614,2021-07-29_22h04.53.382,Simcolourproject_2stim_asymm_v5,2020.2.10,MacIntel,60,61025ae37ef11b136ea224fe,,,,,,,,,4025,38.09765625,-75.1015625,1,0,0,response3disk,,4,11.6171875,1.78125,1,0,0,rectangle,11.6171875,1.78125,1,0,0,11.6171875,1.78125,1,0,0,1,23,183,80,1,,,,,,,,
,,,,,,,,,,,,,FF,,,,,,,,1.015,,,,,,,,,,,,,,,,,,,,,,60ff834ced6d44e459722347,61036c3227167b5fe2888614,2021-07-29_22h04.53.382,Simcolourproject_2stim_asymm_v5,2020.2.10,MacIntel,60,61025ae37ef11b136ea224fe,,,,,,,,,3060,51.7890625,-33.6484375,1,0,0,response3disk,,5,6.31640625,1.71484375,1,0,0,rectangle,6.31640625,1.71484375,1,0,0,6.31640625,1.71484375,1,0,0,1,24,184,134,1,,,,,,,,
,,,,,,,,,,,,,FF,,,,,,,,0.8167,,,,,,,,,,,,,,,,,,,,,,60ff834ced6d44e459722347,61036c3227167b5fe2888614,2021-07-29_22h04.53.382,Simcolourproject_2stim_asymm_v5,2020.2.10,MacIntel,60,61025ae37ef11b136ea224fe,,,,,,,,,2605,-53.65234375,-111.7773438,1,0,0,response5disk,,3,-17.79296875,-5.22265625,1,0,0,rectangle,-17.79296875,-5.22265625,1,0,0,-17.79296875,-5.22265625,1,0,0,1,25,185,105,1,,,,,,,,
,,,,,,,,,,,,,FF,,,,,,,,1.2472,,,,,,,,,,,,,,,,,,,,,,60ff834ced6d44e459722347,61036c3227167b5fe2888614,2021-07-29_22h04.53.382,Simcolourproject_2stim_asymm_v5,2020.2.10,MacIntel,60,61025ae37ef11b136ea224fe,,,,,,,,,2414,34.25,-82.05859375,1,0,0,response3disk,,4,16.30859375,6.12890625,1,0,0,rectangle,16.30859375,6.12890625,1,0,0,16.30859375,6.12890625,1,0,0,1,26,186,77,1,,,,,,,,
,,,,,,,,,,,,,FF,,,,,,,,1.1352,,,,,,,,,,,,,,,,,,,,,,60ff834ced6d44e459722347,61036c3227167b5fe2888614,2021-07-29_22h04.53.382,Simcolourproject_2stim_asymm_v5,2020.2.10,MacIntel,60,61025ae37ef11b136ea224fe,,,,,,,,,1641,85.6796875,43.21875,1,0,0,response1disk,,6,29.57421875,8.078125,1,0,0,rectangle,29.57421875,8.078125,1,0,0,29.57421875,8.078125,1,0,0,1,27,187,155,1,,,,,,,,
,,,,,,,,,,,,,FF,,,,,,,,2.6687,,,,,,,,,,,,,,,,,,,,,,60ff834ced6d44e459722347,61036c3227167b5fe2888614,2021-07-29_22h04.53.382,Simcolourproject_2stim_asymm_v5,2020.2.10,MacIntel,60,61025ae37ef11b136ea224fe,,,,,,,,,2257,111.7265625,53.3125,1,0,0,response1disk,,6,13.14453125,8.1875,1,0,0,rectangle,13.14453125,8.1875,1,0,0,13.14453125,8.1875,1,0,0,1,28,188,63,1,,,,,,,,
,,,,,,,,,,,,,FF,,,,,,,,0.8517,,,,,,,,,,,,,,,,,,,,,,60ff834ced6d44e459722347,61036c3227167b5fe2888614,2021-07-29_22h04.53.382,Simcolourproject_2stim_asymm_v5,2020.2.10,MacIntel,60,61025ae37ef11b136ea224fe,,,,,,,,,2535,83.42578125,-41.390625,1,0,0,response3disk,,5,11.51953125,-6.20703125,1,0,0,rectangle,11.51953125,-6.20703125,1,0,0,11.51953125,-6.20703125,1,0,0,1,29,189,114,1,,,,,,,,
,,,,,,,,,,,,,FF,,,,,,,,1.2515,,,,,,,,,,,,,,,,,,,,,,60ff834ced6d44e459722347,61036c3227167b5fe2888614,2021-07-29_22h04.53.382,Simcolourproject_2stim_asymm_v5,2020.2.10,MacIntel,60,61025ae37ef11b136ea224fe,,,,,,,,,3522,74.765625,-37.23046875,1,0,0,response3disk,,5,10.15234375,-0.26953125,1,0,0,rectangle,10.15234375,-0.26953125,1,0,0,10.15234375,-0.26953125,1,0,0,1,30,190,96,1,,,,,,,,
,,,,,,,,,,,,,FF,,,,,,,,0.8005,,,,,,,,,,,,,,,,,,,,,,60ff834ced6d44e459722347,61036c3227167b5fe2888614,2021-07-29_22h04.53.382,Simcolourproject_2stim_asymm_v5,2020.2.10,MacIntel,60,61025ae37ef11b136ea224fe,,,,,,,,,2055,98.65234375,-62.1484375,1,0,0,response3disk,,5,12.51171875,1.01953125,1,0,0,rectangle,81.51953125,56.16015625,1,0,0,16.43359375,0.44921875,1,0,0,1,31,191,124,1,,response1disk_3,TRUE,6,6,"[134,192,224,200,70,95,291,163,305,311,125,82,17,99,46,50,78,112,17,282]",1.4034,rectangle
,,,,,,,,,,,,,FF,,,,,,,,1.483,,,,,,,,,,,,,,,,,,,,,,60ff834ced6d44e459722347,61036c3227167b5fe2888614,2021-07-29_22h04.53.382,Simcolourproject_2stim_asymm_v5,2020.2.10,MacIntel,60,61025ae37ef11b136ea224fe,,,,,,,,,1775,97.08203125,59.12890625,1,0,0,response1disk,,6,13.21875,5.80078125,1,0,0,rectangle,13.21875,5.80078125,1,0,0,13.21875,5.80078125,1,0,0,1,32,192,78,1,,,,,,,,
,,,,,,,,,,,,,FF,,,,,,,,1.0161,,,,,,,,,,,,,,,,,,,,,,60ff834ced6d44e459722347,61036c3227167b5fe2888614,2021-07-29_22h04.53.382,Simcolourproject_2stim_asymm_v5,2020.2.10,MacIntel,60,61025ae37ef11b136ea224fe,,,,,,,,,1338,48.47265625,67.9921875,1,0,0,response1disk,,7,10.21875,-0.23046875,1,0,0,rectangle,10.21875,-0.23046875,1,0,0,10.21875,-0.23046875,1,0,0,1,33,193,61,1,,,,,,,,
,,,,,,,,,,,,,FF,,,,,,,,0.8844,,,,,,,,,,,,,,,,,,,,,,60ff834ced6d44e459722347,61036c3227167b5fe2888614,2021-07-29_22h04.53.382,Simcolourproject_2stim_asymm_v5,2020.2.10,MacIntel,60,61025ae37ef11b136ea224fe,,,,,,,,,4104,-56.89453125,-40.19140625,1,0,0,response5disk,,2,12.23828125,-1.80078125,1,0,0,rectangle,12.23828125,-1.80078125,1,0,0,12.23828125,-1.80078125,1,0,0,1,34,194,103,1,,,,,,,,
,,,,,,,,,,,,,FF,,,,,,,,0.9348,,,,,,,,,,,,,,,,,,,,,,60ff834ced6d44e459722347,61036c3227167b5fe2888614,2021-07-29_22h04.53.382,Simcolourproject_2stim_asymm_v5,2020.2.10,MacIntel,60,61025ae37ef11b136ea224fe,,,,,,,,,1896,-72.6484375,21.4296875,1,0,0,response7disk,,1,-2.65234375,-14.32421875,1,0,0,rectangle,-2.65234375,-14.32421875,1,0,0,-2.65234375,-14.32421875,1,0,0,1,35,195,149,1,,,,,,,,
,,,,,,,,,,,,,FF,,,,,,,,0.7334,,,,,,,,,,,,,,,,,,,,,,60ff834ced6d44e459722347,61036c3227167b5fe2888614,2021-07-29_22h04.53.382,Simcolourproject_2stim_asymm_v5,2020.2.10,MacIntel,60,61025ae37ef11b136ea224fe,,,,,,,,,3985,39.37109375,81.796875,1,0,0,response1disk,,7,8.671875,-0.45703125,1,0,0,rectangle,8.671875,-0.45703125,1,0,0,8.671875,-0.45703125,1,0,0,1,36,196,121,1,,,,,,,,
,,,,,,,,,,,,,FF,,,,,,,,0.9336,,,,,,,,,,,,,,,,,,,,,,60ff834ced6d44e459722347,61036c3227167b5fe2888614,2021-07-29_22h04.53.382,Simcolourproject_2stim_asymm_v5,2020.2.10,MacIntel,60,61025ae37ef11b136ea224fe,,,,,,,,,693,-43.703125,-95.875,1,0,0,response5disk,,3,1.1015625,-13.91015625,1,0,0,rectangle,1.1015625,-13.91015625,1,0,0,1.1015625,-13.91015625,1,0,0,1,37,197,129,1,,,,,,,,
,,,,,,,,,,,,,FF,,,,,,,,1.4824,,,,,,,,,,,,,,,,,,,,,,60ff834ced6d44e459722347,61036c3227167b5fe2888614,2021-07-29_22h04.53.382,Simcolourproject_2stim_asymm_v5,2020.2.10,MacIntel,60,61025ae37ef11b136ea224fe,,,,,,,,,4260,41.09375,81.109375,1,0,0,response1disk,,7,23.92578125,6.5859375,1,0,0,rectangle,23.92578125,6.5859375,1,0,0,23.92578125,6.5859375,1,0,0,1,38,198,137,1,,,,,,,,
,,,,,,,,,,,,,FF,,,,,,,,0.8668,,,,,,,,,,,,,,,,,,,,,,60ff834ced6d44e459722347,61036c3227167b5fe2888614,2021-07-29_22h04.53.382,Simcolourproject_2stim_asymm_v5,2020.2.10,MacIntel,60,61025ae37ef11b136ea224fe,,,,,,,,,1016,43.8671875,88.9765625,1,0,0,response1disk,,7,19.7265625,0.765625,1,0,0,rectangle,-16.4140625,-82.984375,1,0,0,3.7734375,3.62890625,1,0,0,1,39,199,104,1,,response5disk_3,TRUE,3,3,"[134,192,224,200,70,95,291,163,305,311,125,82,17,99,46,50,78,112,17,282]",1.3509,rectangle
,,,,,,,,,,,,,FF,,,,,,,,1.4165,,,,,,,,,,,,,,,,,,,,,,60ff834ced6d44e459722347,61036c3227167b5fe2888614,2021-07-29_22h04.53.382,Simcolourproject_2stim_asymm_v5,2020.2.10,MacIntel,60,61025ae37ef11b136ea224fe,,,,,,,,,3088,39.80859375,-86.45703125,1,0,0,response3disk,,4,12.578125,-4.0234375,1,0,0,rectangle,12.578125,-4.0234375,1,0,0,12.578125,-4.0234375,1,0,0,1,40,200,136,1,,,,,,,,
,,,,,,,,,,,,,FF,,,,,,,,1.0344,,,,,,,,,,,,,,,,,,,,,,60ff834ced6d44e459722347,61036c3227167b5fe2888614,2021-07-29_22h04.53.382,Simcolourproject_2stim_asymm_v5,2020.2.10,MacIntel,60,61025ae37ef11b136ea224fe,,,,,,,,,4065,84.73046875,-41.30859375,1,0,0,response3disk,,5,18.4140625,1.91015625,1,0,0,rectangle,18.4140625,1.91015625,1,0,0,18.4140625,1.91015625,1,0,0,1,41,201,51,1,,,,,,,,
,,,,,,,,,,,,,FF,,,,,,,,1.1836,,,,,,,,,,,,,,,,,,,,,,60ff834ced6d44e459722347,61036c3227167b5fe2888614,2021-07-29_22h04.53.382,Simcolourproject_2stim_asymm_v5,2020.2.10,MacIntel,60,61025ae37ef11b136ea224fe,,,,,,,,,2809,89.68359375,54.4375,1,0,0,response1disk,,6,-4.06640625,9.359375,1,0,0,rectangle,-4.06640625,9.359375,1,0,0,-4.06640625,9.359375,1,0,0,1,42,202,38,1,,,,,,,,
,,,,,,,,,,,,,FF,,,,,,,,0.9165,,,,,,,,,,,,,,,,,,,,,,60ff834ced6d44e459722347,61036c3227167b5fe2888614,2021-07-29_22h04.53.382,Simcolourproject_2stim_asymm_v5,2020.2.10,MacIntel,60,61025ae37ef11b136ea224fe,,,,,,,,,2268,43.2890625,83.50390625,1,0,0,response1disk,,7,18.94921875,-13.62890625,1,0,0,rectangle,18.94921875,-13.62890625,1,0,0,18.94921875,-13.62890625,1,0,0,1,43,203,60,1,,,,,,,,
,,,,,,,,,,,,,FF,,,,,,,,1.3476,,,,,,,,,,,,,,,,,,,,,,60ff834ced6d44e459722347,61036c3227167b5fe2888614,2021-07-29_22h04.53.382,Simcolourproject_2stim_asymm_v5,2020.2.10,MacIntel,60,61025ae37ef11b136ea224fe,,,,,,,,,881,33.53515625,67.734375,1,0,0,response1disk,,7,24.875,-16.19140625,1,0,0,rectangle,24.875,-16.19140625,1,0,0,24.875,-16.19140625,1,0,0,1,44,204,29,1,,,,,,,,
,,,,,,,,,,,,,FF,,,,,,,,0.8012,,,,,,,,,,,,,,,,,,,,,,60ff834ced6d44e459722347,61036c3227167b5fe2888614,2021-07-29_22h04.53.382,Simcolourproject_2stim_asymm_v5,2020.2.10,MacIntel,60,61025ae37ef11b136ea224fe,,,,,,,,,611,-43.01171875,-75.00390625,1,0,0,response5disk,,3,-13.48046875,-4.765625,1,0,0,rectangle,-13.48046875,-4.765625,1,0,0,-13.48046875,-4.765625,1,0,0,1,45,205,71,1,,,,,,,,
,,,,,,,,,,,,,FF,,,,,,,,1.4009,,,,,,,,,,,,,,,,,,,,,,60ff834ced6d44e459722347,61036c3227167b5fe2888614,2021-07-29_22h04.53.382,Simcolourproject_2stim_asymm_v5,2020.2.10,MacIntel,60,61025ae37ef11b136ea224fe,,,,,,,,,197,-41.8671875,-61.48046875,1,0,0,response5disk,,3,-10.98046875,-4,1,0,0,rectangle,-10.98046875,-4,1,0,0,-10.98046875,-4,1,0,0,1,46,206,97,1,,,,,,,,
,,,,,,,,,,,,,FF,,,,,,,,2.8006,,,,,,,,,,,,,,,,,,,,,,60ff834ced6d44e459722347,61036c3227167b5fe2888614,2021-07-29_22h04.53.382,Simcolourproject_2stim_asymm_v5,2020.2.10,MacIntel,60,61025ae37ef11b136ea224fe,,,,,,,,,3992,37.5703125,65.96484375,1,0,0,response1disk,,7,16.21484375,-2.5078125,1,0,0,rectangle,16.21484375,-2.5078125,1,0,0,16.21484375,-2.5078125,1,0,0,1,47,207,8,1,,,,,,,,
,,,,,,,,,,,,,FF,,,,,,,,0.7801,,,,,,,,,,,,,,,,,,,,,,60ff834ced6d44e459722347,61036c3227167b5fe2888614,2021-07-29_22h04.53.382,Simcolourproject_2stim_asymm_v5,2020.2.10,MacIntel,60,61025ae37ef11b136ea224fe,,,,,,,,,4287,33.4375,71.59765625,1,0,0,response1disk,,7,11.53515625,3.9375,1,0,0,rectangle,11.53515625,3.9375,1,0,0,11.53515625,3.9375,1,0,0,1,48,208,54,1,,,,,,,,
,,,,,,,,,,,,,FF,,,,,,,,0.7184,,,,,,,,,,,,,,,,,,,,,,60ff834ced6d44e459722347,61036c3227167b5fe2888614,2021-07-29_22h04.53.382,Simcolourproject_2stim_asymm_v5,2020.2.10,MacIntel,60,61025ae37ef11b136ea224fe,,,,,,,,,4234,29.15234375,79.359375,1,0,0,response1disk,,7,12.15234375,2.83984375,1,0,0,rectangle,12.15234375,2.83984375,1,0,0,12.15234375,2.83984375,1,0,0,1,49,209,123,1,,,,,,,,
,,,,,,,,,,,,,FF,,,,,,,,0.8318,,,,,,,,,,,,,,,,,,,,,,60ff834ced6d44e459722347,61036c3227167b5fe2888614,2021-07-29_22h04.53.382,Simcolourproject_2stim_asymm_v5,2020.2.10,MacIntel,60,61025ae37ef11b136ea224fe,,,,,,,,,3899,-73.6640625,45.6015625,1,0,0,response7disk,,1,-2.2421875,0.375,1,0,0,rectangle,-2.2421875,0.375,1,0,0,-2.2421875,0.375,1,0,0,1,50,210,56,1,,,,,,,,
,,,,,,,,,,,,,FF,,,,,,,,1.2317,,,,,,,,,,,,,,,,,,,,,,60ff834ced6d44e459722347,61036c3227167b5fe2888614,2021-07-29_22h04.53.382,Simcolourproject_2stim_asymm_v5,2020.2.10,MacIntel,60,61025ae37ef11b136ea224fe,,,,,,,,,3123,-29.98828125,-91.859375,1,0,0,response5disk,,3,2.9453125,-3.58984375,1,0,0,rectangle,2.9453125,-3.58984375,1,0,0,2.9453125,-3.58984375,1,0,0,1,51,211,20,1,,,,,,,,
,,,,,,,,,,,,,FF,,,,,,,,0.9479,,,,,,,,,,,,,,,,,,,,,,60ff834ced6d44e459722347,61036c3227167b5fe2888614,2021-07-29_22h04.53.382,Simcolourproject_2stim_asymm_v5,2020.2.10,MacIntel,60,61025ae37ef11b136ea224fe,,,,,,,,,4349,22.890625,99.9140625,1,0,0,response1disk,,7,6.97265625,-5.53515625,1,0,0,rectangle,6.97265625,-5.53515625,1,0,0,6.97265625,-5.53515625,1,0,0,1,52,212,113,1,,,,,,,,
,,,,,,,,,,,,,FF,,,,,,,,0.8978,,,,,,,,,,,,,,,,,,,,,,60ff834ced6d44e459722347,61036c3227167b5fe2888614,2021-07-29_22h04.53.382,Simcolourproject_2stim_asymm_v5,2020.2.10,MacIntel,60,61025ae37ef11b136ea224fe,,,,,,,,,1220,-67.8046875,50.01171875,1,0,0,response7disk,,1,-0.359375,12.0546875,1,0,0,rectangle,-0.359375,12.0546875,1,0,0,-0.359375,12.0546875,1,0,0,1,53,213,39,1,,,,,,,,
,,,,,,,,,,,,,FF,,,,,,,,0.6997,,,,,,,,,,,,,,,,,,,,,,60ff834ced6d44e459722347,61036c3227167b5fe2888614,2021-07-29_22h04.53.382,Simcolourproject_2stim_asymm_v5,2020.2.10,MacIntel,60,61025ae37ef11b136ea224fe,,,,,,,,,1982,21.57421875,56.515625,1,0,0,response1disk,,7,2.24609375,-3.49609375,1,0,0,rectangle,2.24609375,-3.49609375,1,0,0,2.24609375,-3.49609375,1,0,0,1,54,214,67,1,,,,,,,,
,,,,,,,,,,,,,FF,,,,,,,,0.8633,,,,,,,,,,,,,,,,,,,,,,60ff834ced6d44e459722347,61036c3227167b5fe2888614,2021-07-29_22h04.53.382,Simcolourproject_2stim_asymm_v5,2020.2.10,MacIntel,60,61025ae37ef11b136ea224fe,,,,,,,,,549,-75.92578125,31.94921875,1,0,0,response7disk,,1,9.328125,4.296875,1,0,0,rectangle,9.328125,4.296875,1,0,0,9.328125,4.296875,1,0,0,1,55,215,26,1,,,,,,,,
,,,,,,,,,,,,,FF,,,,,,,,1.0988,,,,,,,,,,,,,,,,,,,,,,60ff834ced6d44e459722347,61036c3227167b5fe2888614,2021-07-29_22h04.53.382,Simcolourproject_2stim_asymm_v5,2020.2.10,MacIntel,60,61025ae37ef11b136ea224fe,,,,,,,,,528,-98.41796875,-46.453125,1,0,0,response5disk,,2,16.8828125,-4.78515625,1,0,0,rectangle,16.8828125,-4.78515625,1,0,0,16.8828125,-4.78515625,1,0,0,1,56,216,83,1,,,,,,,,
,,,,,,,,,,,,,FF,,,,,,,,1.2137,,,,,,,,,,,,,,,,,,,,,,60ff834ced6d44e459722347,61036c3227167b5fe2888614,2021-07-29_22h04.53.382,Simcolourproject_2stim_asymm_v5,2020.2.10,MacIntel,60,61025ae37ef11b136ea224fe,,,,,,,,,2416,37.98828125,-80.95703125,1,0,0,response3disk,,4,7,2.13671875,1,0,0,rectangle,7,2.13671875,1,0,0,7,2.13671875,1,0,0,1,57,217,15,1,,,,,,,,
,,,,,,,,,,,,,FF,,,,,,,,2.2162,,,,,,,,,,,,,,,,,,,,,,60ff834ced6d44e459722347,61036c3227167b5fe2888614,2021-07-29_22h04.53.382,Simcolourproject_2stim_asymm_v5,2020.2.10,MacIntel,60,61025ae37ef11b136ea224fe,,,,,,,,,517,88.3984375,19.78125,1,0,0,response1disk,,6,-8.73046875,-3.65625,1,0,0,rectangle,-8.73046875,-3.65625,1,0,0,-8.73046875,-3.65625,1,0,0,1,58,218,43,1,,,,,,,,
,,,,,,,,,,,,,FF,,,,,,,,0.7184,,,,,,,,,,,,,,,,,,,,,,60ff834ced6d44e459722347,61036c3227167b5fe2888614,2021-07-29_22h04.53.382,Simcolourproject_2stim_asymm_v5,2020.2.10,MacIntel,60,61025ae37ef11b136ea224fe,,,,,,,,,3030,29.74609375,71.5546875,1,0,0,response1disk,,7,3.3515625,-2.921875,1,0,0,rectangle,3.3515625,-2.921875,1,0,0,3.3515625,-2.921875,1,0,0,1,59,219,108,1,,,,,,,,
,,,,,,,,,,,,,FF,,,,,,,,0.7152,,,,,,,,,,,,,,,,,,,,,,60ff834ced6d44e459722347,61036c3227167b5fe2888614,2021-07-29_22h04.53.382,Simcolourproject_2stim_asymm_v5,2020.2.10,MacIntel,60,61025ae37ef11b136ea224fe,,,,,,,,,3081,31.83984375,76.25390625,1,0,0,response1disk,,7,15.87109375,4.99609375,1,0,0,rectangle,15.87109375,4.99609375,1,0,0,15.87109375,4.99609375,1,0,0,1,60,220,140,1,,,,,,,,
,,,,,,,,,,,,,FF,,,,,,,,0.7328,,,,,,,,,,,,,,,,,,,,,,60ff834ced6d44e459722347,61036c3227167b5fe2888614,2021-07-29_22h04.53.382,Simcolourproject_2stim_asymm_v5,2020.2.10,MacIntel,60,61025ae37ef11b136ea224fe,,,,,,,,,2199,36.96875,74.5546875,1,0,0,response1disk,,7,13.93359375,-9.9765625,1,0,0,rectangle,13.93359375,-9.9765625,1,0,0,13.93359375,-9.9765625,1,0,0,1,61,221,92,1,,,,,,,,
,,,,,,,,,,,,,FF,,,,,,,,0.7664,,,,,,,,,,,,,,,,,,,,,,60ff834ced6d44e459722347,61036c3227167b5fe2888614,2021-07-29_22h04.53.382,Simcolourproject_2stim_asymm_v5,2020.2.10,MacIntel,60,61025ae37ef11b136ea224fe,,,,,,,,,1298,-56.1953125,81.45703125,1,0,0,response7disk,,0,-5.9765625,1.76953125,1,0,0,rectangle,-5.9765625,1.76953125,1,0,0,-5.9765625,1.76953125,1,0,0,1,62,222,13,1,,,,,,,,
,,,,,,,,,,,,,FF,,,,,,,,1.4652,,,,,,,,,,,,,,,,,,,,,,60ff834ced6d44e459722347,61036c3227167b5fe2888614,2021-07-29_22h04.53.382,Simcolourproject_2stim_asymm_v5,2020.2.10,MacIntel,60,61025ae37ef11b136ea224fe,,,,,,,,,4049,-78.92578125,53.67578125,1,0,0,response7disk,,1,0.97265625,10.98828125,1,0,0,rectangle,71.62890625,-33.8671875,1,0,0,18.48828125,-14.05859375,1,0,0,1,63,223,32,1,,response3disk_3,TRUE,5,5,"[134,192,224,200,70,95,291,163,305,311,125,82,17,99,46,50,78,112,17,282]",1.1524,rectangle
,,,,,,,,,,,,,FF,,,,,,,,1.5328,,,,,,,,,,,,,,,,,,,,,,60ff834ced6d44e459722347,61036c3227167b5fe2888614,2021-07-29_22h04.53.382,Simcolourproject_2stim_asymm_v5,2020.2.10,MacIntel,60,61025ae37ef11b136ea224fe,,,,,,,,,1946,38.421875,89.76953125,1,0,0,response1disk,,7,11.54296875,3.80859375,1,0,0,rectangle,11.54296875,3.80859375,1,0,0,11.54296875,3.80859375,1,0,0,1,64,224,87,1,,,,,,,,
,,,,,,,,,,,,,FF,,,,,,,,1.1155,,,,,,,,,,,,,,,,,,,,,,60ff834ced6d44e459722347,61036c3227167b5fe2888614,2021-07-29_22h04.53.382,Simcolourproject_2stim_asymm_v5,2020.2.10,MacIntel,60,61025ae37ef11b136ea224fe,,,,,,,,,4249,53.6796875,-79.5546875,1,0,0,response3disk,,4,22.90234375,4.80859375,1,0,0,rectangle,22.90234375,4.80859375,1,0,0,22.90234375,4.80859375,1,0,0,1,65,225,79,1,,,,,,,,
,,,,,,,,,,,,,FF,,,,,,,,0.682,,,,,,,,,,,,,,,,,,,,,,60ff834ced6d44e459722347,61036c3227167b5fe2888614,2021-07-29_22h04.53.382,Simcolourproject_2stim_asymm_v5,2020.2.10,MacIntel,60,61025ae37ef11b136ea224fe,,,,,,,,,1718,34.5859375,57.01171875,1,0,0,response1disk,,7,20.34375,-10.67578125,1,0,0,rectangle,20.34375,-10.67578125,1,0,0,20.34375,-10.67578125,1,0,0,1,66,226,89,1,,,,,,,,
,,,,,,,,,,,,,FF,,,,,,,,0.9189,,,,,,,,,,,,,,,,,,,,,,60ff834ced6d44e459722347,61036c3227167b5fe2888614,2021-07-29_22h04.53.382,Simcolourproject_2stim_asymm_v5,2020.2.10,MacIntel,60,61025ae37ef11b136ea224fe,,,,,,,,,4354,-34.08984375,-65.0703125,1,0,0,response5disk,,3,-2.38671875,-1.1015625,1,0,0,rectangle,-2.38671875,-1.1015625,1,0,0,-2.38671875,-1.1015625,1,0,0,1,67,227,17,1,,,,,,,,
,,,,,,,,,,,,,FF,,,,,,,,1.0801,,,,,,,,,,,,,,,,,,,,,,60ff834ced6d44e459722347,61036c3227167b5fe2888614,2021-07-29_22h04.53.382,Simcolourproject_2stim_asymm_v5,2020.2.10,MacIntel,60,61025ae37ef11b136ea224fe,,,,,,,,,3826,57.72265625,-16.22265625,1,0,0,response3disk,,5,10.3359375,2.0859375,1,0,0,rectangle,10.3359375,2.0859375,1,0,0,10.3359375,2.0859375,1,0,0,1,68,228,18,1,,,,,,,,
,,,,,,,,,,,,,FF,,,,,,,,2.016,,,,,,,,,,,,,,,,,,,,,,60ff834ced6d44e459722347,61036c3227167b5fe2888614,2021-07-29_22h04.53.382,Simcolourproject_2stim_asymm_v5,2020.2.10,MacIntel,60,61025ae37ef11b136ea224fe,,,,,,,,,1173,89.40234375,27.33984375,1,0,0,response1disk,,6,20.41796875,-8.7421875,1,0,0,rectangle,20.41796875,-8.7421875,1,0,0,20.41796875,-8.7421875,1,0,0,1,69,229,150,1,,,,,,,,
,,,,,,,,,,,,,FF,,,,,,,,0.8674,,,,,,,,,,,,,,,,,,,,,,60ff834ced6d44e459722347,61036c3227167b5fe2888614,2021-07-29_22h04.53.382,Simcolourproject_2stim_asymm_v5,2020.2.10,MacIntel,60,61025ae37ef11b136ea224fe,,,,,,,,,2837,-22.84375,-72.48828125,1,0,0,response5disk,,3,-3.296875,-11.87890625,1,0,0,rectangle,-3.296875,-11.87890625,1,0,0,-3.296875,-11.87890625,1,0,0,1,70,230,143,1,,,,,,,,
,,,,,,,,,,,,,FF,,,,,,,,0.781,,,,,,,,,,,,,,,,,,,,,,60ff834ced6d44e459722347,61036c3227167b5fe2888614,2021-07-29_22h04.53.382,Simcolourproject_2stim_asymm_v5,2020.2.10,MacIntel,60,61025ae37ef11b136ea224fe,,,,,,,,,1611,-27.66015625,-68.41015625,1,0,0,response5disk,,3,-1.1875,-15.4765625,1,0,0,rectangle,-1.1875,-15.4765625,1,0,0,-1.1875,-15.4765625,1,0,0,1,71,231,49,1,,,,,,,,
,,,,,,,,,,,,,FF,,,,,,,,0.6524,,,,,,,,,,,,,,,,,,,,,,60ff834ced6d44e459722347,61036c3227167b5fe2888614,2021-07-29_22h04.53.382,Simcolourproject_2stim_asymm_v5,2020.2.10,MacIntel,60,61025ae37ef11b136ea224fe,,,,,,,,,3186,50.30078125,86.24609375,1,0,0,response1disk,,7,19.203125,2.06640625,1,0,0,rectangle,19.203125,2.06640625,1,0,0,19.203125,2.06640625,1,0,0,1,72,232,146,1,,,,,,,,
,,,,,,,,,,,,,FF,,,,,,,,0.6827,,,,,,,,,,,,,,,,,,,,,,60ff834ced6d44e459722347,61036c3227167b5fe2888614,2021-07-29_22h04.53.382,Simcolourproject_2stim_asymm_v5,2020.2.10,MacIntel,60,61025ae37ef11b136ea224fe,,,,,,,,,3368,42.86328125,93.53125,1,0,0,response1disk,,7,19.36328125,2.5078125,1,0,0,rectangle,19.36328125,2.5078125,1,0,0,19.36328125,2.5078125,1,0,0,1,73,233,21,1,,,,,,,,
,,,,,,,,,,,,,FF,,,,,,,,0.6985,,,,,,,,,,,,,,,,,,,,,,60ff834ced6d44e459722347,61036c3227167b5fe2888614,2021-07-29_22h04.53.382,Simcolourproject_2stim_asymm_v5,2020.2.10,MacIntel,60,61025ae37ef11b136ea224fe,,,,,,,,,1875,46.85546875,78.3203125,1,0,0,response1disk,,7,12.12109375,4.9609375,1,0,0,rectangle,12.12109375,4.9609375,1,0,0,12.12109375,4.9609375,1,0,0,1,74,234,84,1,,,,,,,,
,,,,,,,,,,,,,FF,,,,,,,,0.734,,,,,,,,,,,,,,,,,,,,,,60ff834ced6d44e459722347,61036c3227167b5fe2888614,2021-07-29_22h04.53.382,Simcolourproject_2stim_asymm_v5,2020.2.10,MacIntel,60,61025ae37ef11b136ea224fe,,,,,,,,,4242,32.08984375,70.12109375,1,0,0,response1disk,,7,12.92578125,1.8359375,1,0,0,rectangle,12.92578125,1.8359375,1,0,0,12.92578125,1.8359375,1,0,0,1,75,235,44,1,,,,,,,,
,,,,,,,,,,,,,FF,,,,,,,,0.7501,,,,,,,,,,,,,,,,,,,,,,60ff834ced6d44e459722347,61036c3227167b5fe2888614,2021-07-29_22h04.53.382,Simcolourproject_2stim_asymm_v5,2020.2.10,MacIntel,60,61025ae37ef11b136ea224fe,,,,,,,,,120,82.98828125,51.21484375,1,0,0,response1disk,,6,5.21875,-2.13671875,1,0,0,rectangle,5.21875,-2.13671875,1,0,0,5.21875,-2.13671875,1,0,0,1,76,236,144,1,,,,,,,,
,,,,,,,,,,,,,FF,,,,,,,,0.9486,,,,,,,,,,,,,,,,,,,,,,60ff834ced6d44e459722347,61036c3227167b5fe2888614,2021-07-29_22h04.53.382,Simcolourproject_2stim_asymm_v5,2020.2.10,MacIntel,60,61025ae37ef11b136ea224fe,,,,,,,,,428,62.98046875,-28.1875,1,0,0,response3disk,,5,8.02734375,-1.97265625,1,0,0,rectangle,8.02734375,-1.97265625,1,0,0,8.02734375,-1.97265625,1,0,0,1,77,237,7,1,,,,,,,,
,,,,,,,,,,,,,FF,,,,,,,,0.9012,,,,,,,,,,,,,,,,,,,,,,60ff834ced6d44e459722347,61036c3227167b5fe2888614,2021-07-29_22h04.53.382,Simcolourproject_2stim_asymm_v5,2020.2.10,MacIntel,60,61025ae37ef11b136ea224fe,,,,,,,,,1155,58.96875,41.38671875,1,0,0,response1disk,,6,6.5546875,4.71484375,1,0,0,rectangle,6.5546875,4.71484375,1,0,0,6.5546875,4.71484375,1,0,0,1,78,238,9,1,,,,,,,,
,,,,,,,,,,,,,FF,,,,,,,,1.1971,,,,,,,,,,,,,,,,,,,,,,60ff834ced6d44e459722347,61036c3227167b5fe2888614,2021-07-29_22h04.53.382,Simcolourproject_2stim_asymm_v5,2020.2.10,MacIntel,60,61025ae37ef11b136ea224fe,,,,,,,,,3346,54.4140625,-46.1640625,1,0,0,response3disk,,5,7.80078125,1.5234375,1,0,0,rectangle,7.80078125,1.5234375,1,0,0,7.80078125,1.5234375,1,0,0,1,79,239,75,1,,,,,,,,
,,,,,,,,,,,,,FF,,,,,,,,0.7346,,,,,,,,,,,,,,,,,,,,,,60ff834ced6d44e459722347,61036c3227167b5fe2888614,2021-07-29_22h04.53.382,Simcolourproject_2stim_asymm_v5,2020.2.10,MacIntel,60,61025ae37ef11b136ea224fe,,,,,,,,,93,-25.69921875,56.65625,1,0,0,response7disk,,0,4.22265625,3.43359375,1,0,0,rectangle,4.22265625,3.43359375,1,0,0,4.22265625,3.43359375,1,0,0,1,80,240,27,1,,,,,,,,
,,,,,,,,,,,,,FF,,,,,,,,1.7322,,,,,,,,,,,,,,,,,,,,,,60ff834ced6d44e459722347,61036c3227167b5fe2888614,2021-07-29_22h04.53.382,Simcolourproject_2stim_asymm_v5,2020.2.10,MacIntel,60,61025ae37ef11b136ea224fe,,,,,,,,,4187,-82.328125,43.65625,1,0,0,response7disk,,1,-13.33203125,-4.6484375,1,0,0,rectangle,-13.33203125,-4.6484375,1,0,0,-13.33203125,-4.6484375,1,0,0,1,81,241,73,1,,,,,,,,
,,,,,,,,,,,,,FF,,,,,,,,0.9018,,,,,,,,,,,,,,,,,,,,,,60ff834ced6d44e459722347,61036c3227167b5fe2888614,2021-07-29_22h04.53.382,Simcolourproject_2stim_asymm_v5,2020.2.10,MacIntel,60,61025ae37ef11b136ea224fe,,,,,,,,,436,-65.98828125,29.76171875,1,0,0,response7disk,,1,4.4921875,1.28515625,1,0,0,rectangle,4.4921875,1.28515625,1,0,0,4.4921875,1.28515625,1,0,0,1,82,242,2,1,,,,,,,,
,,,,,,,,,,,,,FF,,,,,,,,1.6827,,,,,,,,,,,,,,,,,,,,,,60ff834ced6d44e459722347,61036c3227167b5fe2888614,2021-07-29_22h04.53.382,Simcolourproject_2stim_asymm_v5,2020.2.10,MacIntel,60,61025ae37ef11b136ea224fe,,,,,,,,,2609,-50.59765625,-61.53125,1,0,0,response5disk,,3,-13.484375,-1.93359375,1,0,0,rectangle,-13.484375,-1.93359375,1,0,0,-13.484375,-1.93359375,1,0,0,1,83,243,28,1,,,,,,,,
,,,,,,,,,,,,,FF,,,,,,,,0.7642,,,,,,,,,,,,,,,,,,,,,,60ff834ced6d44e459722347,61036c3227167b5fe2888614,2021-07-29_22h04.53.382,Simcolourproject_2stim_asymm_v5,2020.2.10,MacIntel,60,61025ae37ef11b136ea224fe,,,,,,,,,1276,-44.66015625,-89.0234375,1,0,0,response5disk,,3,-15.625,-12.18359375,1,0,0,rectangle,-15.625,-12.18359375,1,0,0,-15.625,-12.18359375,1,0,0,1,84,244,81,1,,,,,,,,
,,,,,,,,,,,,,FF,,,,,,,,0.749,,,,,,,,,,,,,,,,,,,,,,60ff834ced6d44e459722347,61036c3227167b5fe2888614,2021-07-29_22h04.53.382,Simcolourproject_2stim_asymm_v5,2020.2.10,MacIntel,60,61025ae37ef11b136ea224fe,,,,,,,,,84,27.0703125,64.9453125,1,0,0,response1disk,,7,-0.46875,1.79296875,1,0,0,rectangle,-0.46875,1.79296875,1,0,0,-0.46875,1.79296875,1,0,0,1,85,245,5,1,,,,,,,,
,,,,,,,,,,,,,FF,,,,,,,,1.0669,,,,,,,,,,,,,,,,,,,,,,60ff834ced6d44e459722347,61036c3227167b5fe2888614,2021-07-29_22h04.53.382,Simcolourproject_2stim_asymm_v5,2020.2.10,MacIntel,60,61025ae37ef11b136ea224fe,,,,,,,,,2641,44.01953125,65.1484375,1,0,0,response1disk,,7,17.41015625,8.83984375,1,0,0,rectangle,17.41015625,8.83984375,1,0,0,17.41015625,8.83984375,1,0,0,1,86,246,109,1,,,,,,,,
,,,,,,,,,,,,,FF,,,,,,,,0.7835,,,,,,,,,,,,,,,,,,,,,,60ff834ced6d44e459722347,61036c3227167b5fe2888614,2021-07-29_22h04.53.382,Simcolourproject_2stim_asymm_v5,2020.2.10,MacIntel,60,61025ae37ef11b136ea224fe,,,,,,,,,576,54.25390625,24.50390625,1,0,0,response1disk,,6,18.1953125,-7.13671875,1,0,0,rectangle,18.1953125,-7.13671875,1,0,0,18.1953125,-7.13671875,1,0,0,1,87,247,95,1,,,,,,,,
,,,,,,,,,,,,,FF,,,,,,,,0.9006,,,,,,,,,,,,,,,,,,,,,,60ff834ced6d44e459722347,61036c3227167b5fe2888614,2021-07-29_22h04.53.382,Simcolourproject_2stim_asymm_v5,2020.2.10,MacIntel,60,61025ae37ef11b136ea224fe,,,,,,,,,1028,46.68359375,77.0703125,1,0,0,response1disk,,7,22.81640625,15.78515625,1,0,0,rectangle,22.81640625,15.78515625,1,0,0,22.81640625,15.78515625,1,0,0,1,88,248,65,1,,,,,,,,
