key_resp.keys,key_resp.rt,key_resp_14.keys,key_resp_14.rt,key_resp_15.keys,key_resp_15.rt,key_resp_17.keys,key_resp_17.rt,key_resp_9.keys,key_resp_9.rt,key_resp_10.keys,key_resp_10.rt,practice_comparison,Ecc,mouse_5.x,mouse_5.y,mouse_5.leftButton,mouse_5.midButton,mouse_5.rightButton,mouse_5.clicked_name,pracsimilarity,response_time,mouse_10.x,mouse_10.y,mouse_10.leftButton,mouse_10.midButton,mouse_10.rightButton,mouse_10.clicked_name,mouse_7.x,mouse_7.y,mouse_7.leftButton,mouse_7.midButton,mouse_7.rightButton,mouse_6.x,mouse_6.y,mouse_6.leftButton,mouse_6.midButton,mouse_6.rightButton,duringprac.thisRepN,duringprac.thisTrialN,duringprac.thisN,duringprac.thisIndex,duringprac.ran,participant,session,date,expName,psychopyVersion,OS,frameRate,study_id,mouse_7.clicked_name,catchpracsimilarity,catch_response_time,catchnumberprac,catchtrialorderprac,mouse_6.clicked_name,key_resp_22.keys,key_resp_22.rt,realcomparison,mouse.x,mouse.y,mouse.leftButton,mouse.midButton,mouse.rightButton,mouse.clicked_name,Colour2,similarity,mouse_2.x,mouse_2.y,mouse_2.leftButton,mouse_2.midButton,mouse_2.rightButton,mouse_2.clicked_name,mouse_3.x,mouse_3.y,mouse_3.leftButton,mouse_3.midButton,mouse_3.rightButton,mouse_11.x,mouse_11.y,mouse_11.leftButton,mouse_11.midButton,mouse_11.rightButton,trials_2.thisRepN,trials_2.thisTrialN,trials_2.thisN,trials_2.thisIndex,trials_2.ran,Colour1,mouse_3.clicked_name,catchornah,catchsimilarity,catchnumber,catchtrialorder,catchRT,mouse_11.clicked_name
space,2.6517,space,11.1817,space,64.2276,space,7.7956,space,8.0868,space,4.547,107,PF,71,-68,1,0,0,response3disk_5,5,8.135,3,-4,1,0,0,rectangle_8,3,-4,1,0,0,3,-4,1,0,0,0,0,0,4,1,60ff488f1b3c9851177efd97,61036cc5ada89aa3a7128e5d,2021-07-29_23h22.44.832,Simcolourproject_2stim_asymm_v5,2020.2.10,Win32,60,61025ae37ef11b136ea224fe,,,,,,,,,,,,,,,,,,,,,,,,,,,,,,,,,,,,,,,,,,,,,,
,,,,,,,,,,,,35,FF,-47,-69,1,0,0,response5disk_5,3,6.273,-14,-9,1,0,0,rectangle_8,-102,36,1,0,0,-1,-4,1,0,0,0,1,1,0,1,60ff488f1b3c9851177efd97,61036cc5ada89aa3a7128e5d,2021-07-29_23h22.44.832,Simcolourproject_2stim_asymm_v5,2020.2.10,Win32,60,61025ae37ef11b136ea224fe,response7disk_7,1,4.9763,1,"[2,5]",rectangle_4,,,,,,,,,,,,,,,,,,,,,,,,,,,,,,,,,,,,,,,,
,,,,,,,,,,,,112,FF,-39,56,1,0,0,response7disk_5,0,5.3881,-11,5,1,0,0,rectangle_8,-11,5,1,0,0,-11,5,1,0,0,0,2,2,3,1,60ff488f1b3c9851177efd97,61036cc5ada89aa3a7128e5d,2021-07-29_23h22.44.832,Simcolourproject_2stim_asymm_v5,2020.2.10,Win32,60,61025ae37ef11b136ea224fe,,,,,,,,,,,,,,,,,,,,,,,,,,,,,,,,,,,,,,,,,,,,,,
,,,,,,,,,,,,47,FF,-30,-68,1,0,0,response5disk_5,3,3.6635,-2,3,1,0,0,rectangle_8,-2,3,1,0,0,-2,3,1,0,0,0,3,3,5,1,60ff488f1b3c9851177efd97,61036cc5ada89aa3a7128e5d,2021-07-29_23h22.44.832,Simcolourproject_2stim_asymm_v5,2020.2.10,Win32,60,61025ae37ef11b136ea224fe,,,,,,,,,,,,,,,,,,,,,,,,,,,,,,,,,,,,,,,,,,,,,,
,,,,,,,,,,,,58,PF,-101,-37,1,0,0,response5disk_5,2,9.1082,12,-1,1,0,0,rectangle_8,-72,39,1,0,0,-17,11,1,0,0,0,4,4,1,1,60ff488f1b3c9851177efd97,61036cc5ada89aa3a7128e5d,2021-07-29_23h22.44.832,Simcolourproject_2stim_asymm_v5,2020.2.10,Win32,60,61025ae37ef11b136ea224fe,response7disk_7,1,1.9749,1,"[2,5]",rectangle_4,,,,,,,,,,,,,,,,,,,,,,,,,,,,,,,,,,,,,,,,
,,,,,,,,,,,,33,PF,96,-43,1,0,0,response3disk_5,5,3.145,3,5,1,0,0,rectangle_8,3,5,1,0,0,3,5,1,0,0,0,5,5,2,1,60ff488f1b3c9851177efd97,61036cc5ada89aa3a7128e5d,2021-07-29_23h22.44.832,Simcolourproject_2stim_asymm_v5,2020.2.10,Win32,60,61025ae37ef11b136ea224fe,,,,,,,,,,,,,,,,,,,,,,,,,,,,,,,,,,,,,,,,,,,,,,
,,,,,,,,,,,,103,PF,87,-47,1,0,0,response3disk_5,5,3.431,19,4,1,0,0,rectangle_8,19,4,1,0,0,19,4,1,0,0,0,6,6,6,1,60ff488f1b3c9851177efd97,61036cc5ada89aa3a7128e5d,2021-07-29_23h22.44.832,Simcolourproject_2stim_asymm_v5,2020.2.10,Win32,60,61025ae37ef11b136ea224fe,,,,,,,,,,,,,,,,,,,,,,,,,,,,,,,,,,,,,,,,,,,,,,
,,,,,,,,,,,,,FF,,,,,,,,9.6156,,,,,,,,,,,,,,,,,,,,,,60ff488f1b3c9851177efd97,61036cc5ada89aa3a7128e5d,2021-07-29_23h22.44.832,Simcolourproject_2stim_asymm_v5,2020.2.10,Win32,60,61025ae37ef11b136ea224fe,,,,,,,space,3.4919,3163,43,-105,1,0,0,response3disk,,4,-4,10,1,0,0,rectangle,-4,10,1,0,0,-4,10,1,0,0,0,0,0,104,1,,,,,,,,
,,,,,,,,,,,,,FF,,,,,,,,7.0273,,,,,,,,,,,,,,,,,,,,,,60ff488f1b3c9851177efd97,61036cc5ada89aa3a7128e5d,2021-07-29_23h22.44.832,Simcolourproject_2stim_asymm_v5,2020.2.10,Win32,60,61025ae37ef11b136ea224fe,,,,,,,,,658,-77,-39,1,0,0,response5disk,,2,1,6,1,0,0,rectangle,1,6,1,0,0,1,6,1,0,0,0,1,1,106,1,,,,,,,,
,,,,,,,,,,,,,FF,,,,,,,,1.1886,,,,,,,,,,,,,,,,,,,,,,60ff488f1b3c9851177efd97,61036cc5ada89aa3a7128e5d,2021-07-29_23h22.44.832,Simcolourproject_2stim_asymm_v5,2020.2.10,Win32,60,61025ae37ef11b136ea224fe,,,,,,,,,4119,76,46,1,0,0,response1disk,,6,0,-6,1,0,0,rectangle,0,-6,1,0,0,0,-6,1,0,0,0,2,2,103,1,,,,,,,,
,,,,,,,,,,,,,FF,,,,,,,,1.5736,,,,,,,,,,,,,,,,,,,,,,60ff488f1b3c9851177efd97,61036cc5ada89aa3a7128e5d,2021-07-29_23h22.44.832,Simcolourproject_2stim_asymm_v5,2020.2.10,Win32,60,61025ae37ef11b136ea224fe,,,,,,,,,4128,65,39,1,0,0,response1disk,,6,3,-4,1,0,0,rectangle,3,-4,1,0,0,3,-4,1,0,0,0,3,3,24,1,,,,,,,,
,,,,,,,,,,,,,FF,,,,,,,,1.4733,,,,,,,,,,,,,,,,,,,,,,60ff488f1b3c9851177efd97,61036cc5ada89aa3a7128e5d,2021-07-29_23h22.44.832,Simcolourproject_2stim_asymm_v5,2020.2.10,Win32,60,61025ae37ef11b136ea224fe,,,,,,,,,3324,-68,-23,1,0,0,response5disk,,2,-5,5,1,0,0,rectangle,-5,5,1,0,0,-5,5,1,0,0,0,4,4,153,1,,,,,,,,
,,,,,,,,,,,,,FF,,,,,,,,1.0718,,,,,,,,,,,,,,,,,,,,,,60ff488f1b3c9851177efd97,61036cc5ada89aa3a7128e5d,2021-07-29_23h22.44.832,Simcolourproject_2stim_asymm_v5,2020.2.10,Win32,60,61025ae37ef11b136ea224fe,,,,,,,,,967,-38,73,1,0,0,response7disk,,0,6,-5,1,0,0,rectangle,6,-5,1,0,0,6,-5,1,0,0,0,5,5,118,1,,,,,,,,
,,,,,,,,,,,,,FF,,,,,,,,0.9214,,,,,,,,,,,,,,,,,,,,,,60ff488f1b3c9851177efd97,61036cc5ada89aa3a7128e5d,2021-07-29_23h22.44.832,Simcolourproject_2stim_asymm_v5,2020.2.10,Win32,60,61025ae37ef11b136ea224fe,,,,,,,,,1648,-41,66,1,0,0,response7disk,,0,-5,0,1,0,0,rectangle,-5,0,1,0,0,-5,0,1,0,0,0,6,6,52,1,,,,,,,,
,,,,,,,,,,,,,FF,,,,,,,,2.3267,,,,,,,,,,,,,,,,,,,,,,60ff488f1b3c9851177efd97,61036cc5ada89aa3a7128e5d,2021-07-29_23h22.44.832,Simcolourproject_2stim_asymm_v5,2020.2.10,Win32,60,61025ae37ef11b136ea224fe,,,,,,,,,2665,79,-36,1,0,0,response3disk,,5,9,-4,1,0,0,rectangle,9,-4,1,0,0,9,-4,1,0,0,0,7,7,110,1,,,,,,,,
,,,,,,,,,,,,,FF,,,,,,,,1.1386,,,,,,,,,,,,,,,,,,,,,,60ff488f1b3c9851177efd97,61036cc5ada89aa3a7128e5d,2021-07-29_23h22.44.832,Simcolourproject_2stim_asymm_v5,2020.2.10,Win32,60,61025ae37ef11b136ea224fe,,,,,,,,,3048,36,62,1,0,0,response1disk,,7,9,1,1,0,0,rectangle,9,1,1,0,0,9,1,1,0,0,0,8,8,54,1,,,,,,,,
,,,,,,,,,,,,,FF,,,,,,,,10.1893,,,,,,,,,,,,,,,,,,,,,,60ff488f1b3c9851177efd97,61036cc5ada89aa3a7128e5d,2021-07-29_23h22.44.832,Simcolourproject_2stim_asymm_v5,2020.2.10,Win32,60,61025ae37ef11b136ea224fe,,,,,,,,,2174,-32,76,1,0,0,response7disk,,0,2,3,1,0,0,rectangle,2,3,1,0,0,2,3,1,0,0,0,9,9,93,1,,,,,,,,
,,,,,,,,,,,,,FF,,,,,,,,2.1093,,,,,,,,,,,,,,,,,,,,,,60ff488f1b3c9851177efd97,61036cc5ada89aa3a7128e5d,2021-07-29_23h22.44.832,Simcolourproject_2stim_asymm_v5,2020.2.10,Win32,60,61025ae37ef11b136ea224fe,,,,,,,,,548,-49,102,1,0,0,response7disk,,0,-13,6,1,0,0,rectangle,-13,6,1,0,0,-13,6,1,0,0,0,10,10,102,1,,,,,,,,
,,,,,,,,,,,,,FF,,,,,,,,1.9403,,,,,,,,,,,,,,,,,,,,,,60ff488f1b3c9851177efd97,61036cc5ada89aa3a7128e5d,2021-07-29_23h22.44.832,Simcolourproject_2stim_asymm_v5,2020.2.10,Win32,60,61025ae37ef11b136ea224fe,,,,,,,,,1683,-84,31,1,0,0,response7disk,,1,-1,-3,1,0,0,rectangle,-1,-3,1,0,0,-1,-3,1,0,0,0,11,11,112,1,,,,,,,,
,,,,,,,,,,,,,FF,,,,,,,,2.7599,,,,,,,,,,,,,,,,,,,,,,60ff488f1b3c9851177efd97,61036cc5ada89aa3a7128e5d,2021-07-29_23h22.44.832,Simcolourproject_2stim_asymm_v5,2020.2.10,Win32,60,61025ae37ef11b136ea224fe,,,,,,,,,103,-50,-70,1,0,0,response5disk,,3,-7,1,1,0,0,rectangle,-7,1,1,0,0,-7,1,1,0,0,0,12,12,48,1,,,,,,,,
,,,,,,,,,,,,,FF,,,,,,,,2.6947,,,,,,,,,,,,,,,,,,,,,,60ff488f1b3c9851177efd97,61036cc5ada89aa3a7128e5d,2021-07-29_23h22.44.832,Simcolourproject_2stim_asymm_v5,2020.2.10,Win32,60,61025ae37ef11b136ea224fe,,,,,,,,,3066,79,-49,1,0,0,response3disk,,5,6,-11,1,0,0,rectangle,6,-11,1,0,0,6,-11,1,0,0,0,13,13,108,1,,,,,,,,
,,,,,,,,,,,,,FF,,,,,,,,2.4445,,,,,,,,,,,,,,,,,,,,,,60ff488f1b3c9851177efd97,61036cc5ada89aa3a7128e5d,2021-07-29_23h22.44.832,Simcolourproject_2stim_asymm_v5,2020.2.10,Win32,60,61025ae37ef11b136ea224fe,,,,,,,,,4256,47,-87,1,0,0,response3disk,,4,-8,4,1,0,0,rectangle,-8,4,1,0,0,-8,4,1,0,0,0,14,14,42,1,,,,,,,,
,,,,,,,,,,,,,FF,,,,,,,,2.4768,,,,,,,,,,,,,,,,,,,,,,60ff488f1b3c9851177efd97,61036cc5ada89aa3a7128e5d,2021-07-29_23h22.44.832,Simcolourproject_2stim_asymm_v5,2020.2.10,Win32,60,61025ae37ef11b136ea224fe,,,,,,,,,950,31,86,1,0,0,response1disk,,7,1,-7,1,0,0,rectangle,1,-7,1,0,0,1,-7,1,0,0,0,15,15,122,1,,,,,,,,
,,,,,,,,,,,,,FF,,,,,,,,1.0542,,,,,,,,,,,,,,,,,,,,,,60ff488f1b3c9851177efd97,61036cc5ada89aa3a7128e5d,2021-07-29_23h22.44.832,Simcolourproject_2stim_asymm_v5,2020.2.10,Win32,60,61025ae37ef11b136ea224fe,,,,,,,,,170,-35,-60,1,0,0,response5disk,,3,-9,6,1,0,0,rectangle,-9,6,1,0,0,-9,6,1,0,0,0,16,16,81,1,,,,,,,,
,,,,,,,,,,,,,FF,,,,,,,,0.7525,,,,,,,,,,,,,,,,,,,,,,60ff488f1b3c9851177efd97,61036cc5ada89aa3a7128e5d,2021-07-29_23h22.44.832,Simcolourproject_2stim_asymm_v5,2020.2.10,Win32,60,61025ae37ef11b136ea224fe,,,,,,,,,1084,37,79,1,0,0,response1disk,,7,9,-7,1,0,0,rectangle,9,-7,1,0,0,9,-7,1,0,0,0,17,17,26,1,,,,,,,,
,,,,,,,,,,,,,FF,,,,,,,,1.0869,,,,,,,,,,,,,,,,,,,,,,60ff488f1b3c9851177efd97,61036cc5ada89aa3a7128e5d,2021-07-29_23h22.44.832,Simcolourproject_2stim_asymm_v5,2020.2.10,Win32,60,61025ae37ef11b136ea224fe,,,,,,,,,2910,34,81,1,0,0,response1disk,,7,-3,0,1,0,0,rectangle,-3,0,1,0,0,-3,0,1,0,0,0,18,18,43,1,,,,,,,,
,,,,,,,,,,,,,FF,,,,,,,,0.9046,,,,,,,,,,,,,,,,,,,,,,60ff488f1b3c9851177efd97,61036cc5ada89aa3a7128e5d,2021-07-29_23h22.44.832,Simcolourproject_2stim_asymm_v5,2020.2.10,Win32,60,61025ae37ef11b136ea224fe,,,,,,,,,1982,50,84,1,0,0,response1disk,,7,-2,-2,1,0,0,rectangle,-2,-2,1,0,0,-2,-2,1,0,0,0,19,19,128,1,,,,,,,,
,,,,,,,,,,,,,FF,,,,,,,,5.2527,,,,,,,,,,,,,,,,,,,,,,60ff488f1b3c9851177efd97,61036cc5ada89aa3a7128e5d,2021-07-29_23h22.44.832,Simcolourproject_2stim_asymm_v5,2020.2.10,Win32,60,61025ae37ef11b136ea224fe,,,,,,,,,76,87,42,1,0,0,response1disk,,6,-7,5,1,0,0,rectangle,-7,5,1,0,0,-7,5,1,0,0,0,20,20,156,1,,,,,,,,
,,,,,,,,,,,,,FF,,,,,,,,0.7033,,,,,,,,,,,,,,,,,,,,,,60ff488f1b3c9851177efd97,61036cc5ada89aa3a7128e5d,2021-07-29_23h22.44.832,Simcolourproject_2stim_asymm_v5,2020.2.10,Win32,60,61025ae37ef11b136ea224fe,,,,,,,,,4257,33,102,1,0,0,response1disk,,7,18,-2,1,0,0,rectangle,18,-2,1,0,0,18,-2,1,0,0,0,21,21,151,1,,,,,,,,
,,,,,,,,,,,,,FF,,,,,,,,2.326,,,,,,,,,,,,,,,,,,,,,,60ff488f1b3c9851177efd97,61036cc5ada89aa3a7128e5d,2021-07-29_23h22.44.832,Simcolourproject_2stim_asymm_v5,2020.2.10,Win32,60,61025ae37ef11b136ea224fe,,,,,,,,,3502,75,-30,1,0,0,response3disk,,5,6,3,1,0,0,rectangle,6,3,1,0,0,6,3,1,0,0,0,22,22,134,1,,,,,,,,
,,,,,,,,,,,,,FF,,,,,,,,1.5726,,,,,,,,,,,,,,,,,,,,,,60ff488f1b3c9851177efd97,61036cc5ada89aa3a7128e5d,2021-07-29_23h22.44.832,Simcolourproject_2stim_asymm_v5,2020.2.10,Win32,60,61025ae37ef11b136ea224fe,,,,,,,,,2426,-31,-72,1,0,0,response5disk,,3,9,9,1,0,0,rectangle,9,9,1,0,0,9,9,1,0,0,0,23,23,148,1,,,,,,,,
,,,,,,,,,,,,,FF,,,,,,,,3.8646,,,,,,,,,,,,,,,,,,,,,,60ff488f1b3c9851177efd97,61036cc5ada89aa3a7128e5d,2021-07-29_23h22.44.832,Simcolourproject_2stim_asymm_v5,2020.2.10,Win32,60,61025ae37ef11b136ea224fe,,,,,,,,,994,77,-48,1,0,0,response3disk,,5,-8,-4,1,0,0,rectangle,-8,-4,1,0,0,-8,-4,1,0,0,0,24,24,119,1,,,,,,,,
,,,,,,,,,,,,,FF,,,,,,,,1.4714,,,,,,,,,,,,,,,,,,,,,,60ff488f1b3c9851177efd97,61036cc5ada89aa3a7128e5d,2021-07-29_23h22.44.832,Simcolourproject_2stim_asymm_v5,2020.2.10,Win32,60,61025ae37ef11b136ea224fe,,,,,,,,,4129,41,69,1,0,0,response1disk,,7,-3,-11,1,0,0,rectangle,-3,-11,1,0,0,-3,-11,1,0,0,0,25,25,66,1,,,,,,,,
,,,,,,,,,,,,,FF,,,,,,,,1.1721,,,,,,,,,,,,,,,,,,,,,,60ff488f1b3c9851177efd97,61036cc5ada89aa3a7128e5d,2021-07-29_23h22.44.832,Simcolourproject_2stim_asymm_v5,2020.2.10,Win32,60,61025ae37ef11b136ea224fe,,,,,,,,,3593,40,-68,1,0,0,response3disk,,4,4,0,1,0,0,rectangle,4,0,1,0,0,4,0,1,0,0,0,26,26,16,1,,,,,,,,
,,,,,,,,,,,,,FF,,,,,,,,1.7564,,,,,,,,,,,,,,,,,,,,,,60ff488f1b3c9851177efd97,61036cc5ada89aa3a7128e5d,2021-07-29_23h22.44.832,Simcolourproject_2stim_asymm_v5,2020.2.10,Win32,60,61025ae37ef11b136ea224fe,,,,,,,,,840,23,69,1,0,0,response1disk,,7,-6,-7,1,0,0,rectangle,-6,-7,1,0,0,-6,-7,1,0,0,0,27,27,58,1,,,,,,,,
,,,,,,,,,,,,,FF,,,,,,,,0.7531,,,,,,,,,,,,,,,,,,,,,,60ff488f1b3c9851177efd97,61036cc5ada89aa3a7128e5d,2021-07-29_23h22.44.832,Simcolourproject_2stim_asymm_v5,2020.2.10,Win32,60,61025ae37ef11b136ea224fe,,,,,,,,,739,24,52,1,0,0,response1disk,,7,3,1,1,0,0,rectangle,3,1,1,0,0,3,1,1,0,0,0,28,28,137,1,,,,,,,,
,,,,,,,,,,,,,FF,,,,,,,,2.4088,,,,,,,,,,,,,,,,,,,,,,60ff488f1b3c9851177efd97,61036cc5ada89aa3a7128e5d,2021-07-29_23h22.44.832,Simcolourproject_2stim_asymm_v5,2020.2.10,Win32,60,61025ae37ef11b136ea224fe,,,,,,,,,3833,65,17,1,0,0,response1disk,,6,1,-3,1,0,0,rectangle,1,-3,1,0,0,1,-3,1,0,0,0,29,29,77,1,,,,,,,,
,,,,,,,,,,,,,FF,,,,,,,,1.2879,,,,,,,,,,,,,,,,,,,,,,60ff488f1b3c9851177efd97,61036cc5ada89aa3a7128e5d,2021-07-29_23h22.44.832,Simcolourproject_2stim_asymm_v5,2020.2.10,Win32,60,61025ae37ef11b136ea224fe,,,,,,,,,2008,31,74,1,0,0,response1disk,,7,0,3,1,0,0,rectangle,0,3,1,0,0,0,3,1,0,0,0,30,30,70,1,,,,,,,,
,,,,,,,,,,,,,FF,,,,,,,,2.8271,,,,,,,,,,,,,,,,,,,,,,60ff488f1b3c9851177efd97,61036cc5ada89aa3a7128e5d,2021-07-29_23h22.44.832,Simcolourproject_2stim_asymm_v5,2020.2.10,Win32,60,61025ae37ef11b136ea224fe,,,,,,,,,4165,46,-80,1,0,0,response3disk,,4,11,-8,1,0,0,rectangle,11,-8,1,0,0,11,-8,1,0,0,0,31,31,129,1,,,,,,,,
,,,,,,,,,,,,,FF,,,,,,,,1.0203,,,,,,,,,,,,,,,,,,,,,,60ff488f1b3c9851177efd97,61036cc5ada89aa3a7128e5d,2021-07-29_23h22.44.832,Simcolourproject_2stim_asymm_v5,2020.2.10,Win32,60,61025ae37ef11b136ea224fe,,,,,,,,,18,83,45,1,0,0,response1disk,,6,5,6,1,0,0,rectangle,5,6,1,0,0,5,6,1,0,0,0,32,32,76,1,,,,,,,,
,,,,,,,,,,,,,FF,,,,,,,,1.0702,,,,,,,,,,,,,,,,,,,,,,60ff488f1b3c9851177efd97,61036cc5ada89aa3a7128e5d,2021-07-29_23h22.44.832,Simcolourproject_2stim_asymm_v5,2020.2.10,Win32,60,61025ae37ef11b136ea224fe,,,,,,,,,3401,-28,-60,1,0,0,response5disk,,3,-1,0,1,0,0,rectangle,-1,0,1,0,0,-1,0,1,0,0,0,33,33,107,1,,,,,,,,
,,,,,,,,,,,,,FF,,,,,,,,0.8684,,,,,,,,,,,,,,,,,,,,,,60ff488f1b3c9851177efd97,61036cc5ada89aa3a7128e5d,2021-07-29_23h22.44.832,Simcolourproject_2stim_asymm_v5,2020.2.10,Win32,60,61025ae37ef11b136ea224fe,,,,,,,,,2921,82,-40,1,0,0,response3disk,,5,-9,0,1,0,0,rectangle,-9,0,1,0,0,-9,0,1,0,0,0,34,34,141,1,,,,,,,,
,,,,,,,,,,,,,FF,,,,,,,,4.5822,,,,,,,,,,,,,,,,,,,,,,60ff488f1b3c9851177efd97,61036cc5ada89aa3a7128e5d,2021-07-29_23h22.44.832,Simcolourproject_2stim_asymm_v5,2020.2.10,Win32,60,61025ae37ef11b136ea224fe,,,,,,,,,85,27,91,1,0,0,response1disk,,7,9,-12,1,0,0,rectangle,83,-31,1,0,0,1,-3,1,0,0,0,35,35,85,1,,response3disk_3,TRUE,5,5,"[131,218,261,110,263,231,92,234,197,243,36,36,228,192,173,150,273,210,204,167]",3.8546,rectangle
,,,,,,,,,,,,,FF,,,,,,,,3.6638,,,,,,,,,,,,,,,,,,,,,,60ff488f1b3c9851177efd97,61036cc5ada89aa3a7128e5d,2021-07-29_23h22.44.832,Simcolourproject_2stim_asymm_v5,2020.2.10,Win32,60,61025ae37ef11b136ea224fe,,,,,,,,,1629,28,56,1,0,0,response1disk,,7,5,-11,1,0,0,rectangle,5,-11,1,0,0,5,-11,1,0,0,0,36,36,35,1,,,,,,,,
,,,,,,,,,,,,,FF,,,,,,,,4.8009,,,,,,,,,,,,,,,,,,,,,,60ff488f1b3c9851177efd97,61036cc5ada89aa3a7128e5d,2021-07-29_23h22.44.832,Simcolourproject_2stim_asymm_v5,2020.2.10,Win32,60,61025ae37ef11b136ea224fe,,,,,,,,,3042,35,65,1,0,0,response1disk,,7,1,5,1,0,0,rectangle,1,5,1,0,0,1,5,1,0,0,0,37,37,73,1,,,,,,,,
,,,,,,,,,,,,,FF,,,,,,,,2.2938,,,,,,,,,,,,,,,,,,,,,,60ff488f1b3c9851177efd97,61036cc5ada89aa3a7128e5d,2021-07-29_23h22.44.832,Simcolourproject_2stim_asymm_v5,2020.2.10,Win32,60,61025ae37ef11b136ea224fe,,,,,,,,,1573,37,76,1,0,0,response1disk,,7,-5,4,1,0,0,rectangle,-5,4,1,0,0,-5,4,1,0,0,0,38,38,114,1,,,,,,,,
,,,,,,,,,,,,,FF,,,,,,,,5.0187,,,,,,,,,,,,,,,,,,,,,,60ff488f1b3c9851177efd97,61036cc5ada89aa3a7128e5d,2021-07-29_23h22.44.832,Simcolourproject_2stim_asymm_v5,2020.2.10,Win32,60,61025ae37ef11b136ea224fe,,,,,,,,,3698,34,67,1,0,0,response1disk,,7,-8,-2,1,0,0,rectangle,-8,-2,1,0,0,-8,-2,1,0,0,0,39,39,71,1,,,,,,,,
,,,,,,,,,,,,,FF,,,,,,,,2.024,,,,,,,,,,,,,,,,,,,,,,60ff488f1b3c9851177efd97,61036cc5ada89aa3a7128e5d,2021-07-29_23h22.44.832,Simcolourproject_2stim_asymm_v5,2020.2.10,Win32,60,61025ae37ef11b136ea224fe,,,,,,,,,1678,-37,-82,1,0,0,response5disk,,3,-1,0,1,0,0,rectangle,-1,0,1,0,0,-1,0,1,0,0,0,40,40,21,1,,,,,,,,
,,,,,,,,,,,,,FF,,,,,,,,1.9905,,,,,,,,,,,,,,,,,,,,,,60ff488f1b3c9851177efd97,61036cc5ada89aa3a7128e5d,2021-07-29_23h22.44.832,Simcolourproject_2stim_asymm_v5,2020.2.10,Win32,60,61025ae37ef11b136ea224fe,,,,,,,,,324,43,77,1,0,0,response1disk,,7,3,4,1,0,0,rectangle,3,4,1,0,0,3,4,1,0,0,0,41,41,41,1,,,,,,,,
,,,,,,,,,,,,,FF,,,,,,,,0.8532,,,,,,,,,,,,,,,,,,,,,,60ff488f1b3c9851177efd97,61036cc5ada89aa3a7128e5d,2021-07-29_23h22.44.832,Simcolourproject_2stim_asymm_v5,2020.2.10,Win32,60,61025ae37ef11b136ea224fe,,,,,,,,,3024,32,74,1,0,0,response1disk,,7,0,1,1,0,0,rectangle,0,1,1,0,0,0,1,1,0,0,0,42,42,34,1,,,,,,,,
,,,,,,,,,,,,,FF,,,,,,,,2.0751,,,,,,,,,,,,,,,,,,,,,,60ff488f1b3c9851177efd97,61036cc5ada89aa3a7128e5d,2021-07-29_23h22.44.832,Simcolourproject_2stim_asymm_v5,2020.2.10,Win32,60,61025ae37ef11b136ea224fe,,,,,,,,,200,34,67,1,0,0,response1disk,,7,6,7,1,0,0,rectangle,6,7,1,0,0,6,7,1,0,0,0,43,43,152,1,,,,,,,,
,,,,,,,,,,,,,FF,,,,,,,,3.9657,,,,,,,,,,,,,,,,,,,,,,60ff488f1b3c9851177efd97,61036cc5ada89aa3a7128e5d,2021-07-29_23h22.44.832,Simcolourproject_2stim_asymm_v5,2020.2.10,Win32,60,61025ae37ef11b136ea224fe,,,,,,,,,3268,71,37,1,0,0,response1disk,,6,3,1,1,0,0,rectangle,3,1,1,0,0,3,1,1,0,0,0,44,44,8,1,,,,,,,,
,,,,,,,,,,,,,FF,,,,,,,,1.255,,,,,,,,,,,,,,,,,,,,,,60ff488f1b3c9851177efd97,61036cc5ada89aa3a7128e5d,2021-07-29_23h22.44.832,Simcolourproject_2stim_asymm_v5,2020.2.10,Win32,60,61025ae37ef11b136ea224fe,,,,,,,,,2041,74,35,1,0,0,response1disk,,6,-4,-7,1,0,0,rectangle,-4,-7,1,0,0,-4,-7,1,0,0,0,45,45,125,1,,,,,,,,
,,,,,,,,,,,,,FF,,,,,,,,1.0539,,,,,,,,,,,,,,,,,,,,,,60ff488f1b3c9851177efd97,61036cc5ada89aa3a7128e5d,2021-07-29_23h22.44.832,Simcolourproject_2stim_asymm_v5,2020.2.10,Win32,60,61025ae37ef11b136ea224fe,,,,,,,,,2239,61,23,1,0,0,response1disk,,6,-13,-1,1,0,0,rectangle,-13,-1,1,0,0,-13,-1,1,0,0,0,46,46,64,1,,,,,,,,
,,,,,,,,,,,,,FF,,,,,,,,1.3735,,,,,,,,,,,,,,,,,,,,,,60ff488f1b3c9851177efd97,61036cc5ada89aa3a7128e5d,2021-07-29_23h22.44.832,Simcolourproject_2stim_asymm_v5,2020.2.10,Win32,60,61025ae37ef11b136ea224fe,,,,,,,,,3987,38,57,1,0,0,response1disk,,7,6,3,1,0,0,rectangle,6,3,1,0,0,6,3,1,0,0,0,47,47,33,1,,,,,,,,
,,,,,,,,,,,,,FF,,,,,,,,2.1584,,,,,,,,,,,,,,,,,,,,,,60ff488f1b3c9851177efd97,61036cc5ada89aa3a7128e5d,2021-07-29_23h22.44.832,Simcolourproject_2stim_asymm_v5,2020.2.10,Win32,60,61025ae37ef11b136ea224fe,,,,,,,,,496,36,76,1,0,0,response1disk,,7,6,1,1,0,0,rectangle,6,1,1,0,0,6,1,1,0,0,0,48,48,91,1,,,,,,,,
,,,,,,,,,,,,,FF,,,,,,,,2.4746,,,,,,,,,,,,,,,,,,,,,,60ff488f1b3c9851177efd97,61036cc5ada89aa3a7128e5d,2021-07-29_23h22.44.832,Simcolourproject_2stim_asymm_v5,2020.2.10,Win32,60,61025ae37ef11b136ea224fe,,,,,,,,,2241,32,58,1,0,0,response1disk,,7,-4,-5,1,0,0,rectangle,-4,-5,1,0,0,-4,-5,1,0,0,0,49,49,126,1,,,,,,,,
,,,,,,,,,,,,,FF,,,,,,,,1.472,,,,,,,,,,,,,,,,,,,,,,60ff488f1b3c9851177efd97,61036cc5ada89aa3a7128e5d,2021-07-29_23h22.44.832,Simcolourproject_2stim_asymm_v5,2020.2.10,Win32,60,61025ae37ef11b136ea224fe,,,,,,,,,3462,61,-35,1,0,0,response3disk,,5,-3,-3,1,0,0,rectangle,-3,-3,1,0,0,-3,-3,1,0,0,0,50,50,146,1,,,,,,,,
,,,,,,,,,,,,,FF,,,,,,,,1.0207,,,,,,,,,,,,,,,,,,,,,,60ff488f1b3c9851177efd97,61036cc5ada89aa3a7128e5d,2021-07-29_23h22.44.832,Simcolourproject_2stim_asymm_v5,2020.2.10,Win32,60,61025ae37ef11b136ea224fe,,,,,,,,,4094,48,90,1,0,0,response1disk,,7,7,-1,1,0,0,rectangle,7,-1,1,0,0,7,-1,1,0,0,0,51,51,127,1,,,,,,,,
,,,,,,,,,,,,,FF,,,,,,,,1.523,,,,,,,,,,,,,,,,,,,,,,60ff488f1b3c9851177efd97,61036cc5ada89aa3a7128e5d,2021-07-29_23h22.44.832,Simcolourproject_2stim_asymm_v5,2020.2.10,Win32,60,61025ae37ef11b136ea224fe,,,,,,,,,643,80,36,1,0,0,response1disk,,6,-4,-2,1,0,0,rectangle,-4,-2,1,0,0,-4,-2,1,0,0,0,52,52,28,1,,,,,,,,
,,,,,,,,,,,,,FF,,,,,,,,1.6892,,,,,,,,,,,,,,,,,,,,,,60ff488f1b3c9851177efd97,61036cc5ada89aa3a7128e5d,2021-07-29_23h22.44.832,Simcolourproject_2stim_asymm_v5,2020.2.10,Win32,60,61025ae37ef11b136ea224fe,,,,,,,,,1580,29,73,1,0,0,response1disk,,7,6,-4,1,0,0,rectangle,6,-4,1,0,0,6,-4,1,0,0,0,53,53,68,1,,,,,,,,
,,,,,,,,,,,,,FF,,,,,,,,1.1367,,,,,,,,,,,,,,,,,,,,,,60ff488f1b3c9851177efd97,61036cc5ada89aa3a7128e5d,2021-07-29_23h22.44.832,Simcolourproject_2stim_asymm_v5,2020.2.10,Win32,60,61025ae37ef11b136ea224fe,,,,,,,,,3813,-41,-77,1,0,0,response5disk,,3,-14,7,1,0,0,rectangle,-14,7,1,0,0,-14,7,1,0,0,0,54,54,159,1,,,,,,,,
,,,,,,,,,,,,,FF,,,,,,,,2.4926,,,,,,,,,,,,,,,,,,,,,,60ff488f1b3c9851177efd97,61036cc5ada89aa3a7128e5d,2021-07-29_23h22.44.832,Simcolourproject_2stim_asymm_v5,2020.2.10,Win32,60,61025ae37ef11b136ea224fe,,,,,,,,,160,63,41,1,0,0,response1disk,,6,4,6,1,0,0,rectangle,4,6,1,0,0,4,6,1,0,0,0,55,55,155,1,,,,,,,,
,,,,,,,,,,,,,FF,,,,,,,,0.9852,,,,,,,,,,,,,,,,,,,,,,60ff488f1b3c9851177efd97,61036cc5ada89aa3a7128e5d,2021-07-29_23h22.44.832,Simcolourproject_2stim_asymm_v5,2020.2.10,Win32,60,61025ae37ef11b136ea224fe,,,,,,,,,499,24,66,1,0,0,response1disk,,7,-9,1,1,0,0,rectangle,-9,1,1,0,0,-9,1,1,0,0,0,56,56,99,1,,,,,,,,
,,,,,,,,,,,,,FF,,,,,,,,1.3544,,,,,,,,,,,,,,,,,,,,,,60ff488f1b3c9851177efd97,61036cc5ada89aa3a7128e5d,2021-07-29_23h22.44.832,Simcolourproject_2stim_asymm_v5,2020.2.10,Win32,60,61025ae37ef11b136ea224fe,,,,,,,,,3868,74,29,1,0,0,response1disk,,6,-1,1,1,0,0,rectangle,-1,1,1,0,0,-1,1,1,0,0,0,57,57,19,1,,,,,,,,
,,,,,,,,,,,,,FF,,,,,,,,1.1209,,,,,,,,,,,,,,,,,,,,,,60ff488f1b3c9851177efd97,61036cc5ada89aa3a7128e5d,2021-07-29_23h22.44.832,Simcolourproject_2stim_asymm_v5,2020.2.10,Win32,60,61025ae37ef11b136ea224fe,,,,,,,,,1655,40,80,1,0,0,response1disk,,7,3,-2,1,0,0,rectangle,3,-2,1,0,0,3,-2,1,0,0,0,58,58,5,1,,,,,,,,
,,,,,,,,,,,,,FF,,,,,,,,0.736,,,,,,,,,,,,,,,,,,,,,,60ff488f1b3c9851177efd97,61036cc5ada89aa3a7128e5d,2021-07-29_23h22.44.832,Simcolourproject_2stim_asymm_v5,2020.2.10,Win32,60,61025ae37ef11b136ea224fe,,,,,,,,,3309,34,90,1,0,0,response1disk,,7,4,-1,1,0,0,rectangle,4,-1,1,0,0,4,-1,1,0,0,0,59,59,82,1,,,,,,,,
,,,,,,,,,,,,,FF,,,,,,,,1.0729,,,,,,,,,,,,,,,,,,,,,,60ff488f1b3c9851177efd97,61036cc5ada89aa3a7128e5d,2021-07-29_23h22.44.832,Simcolourproject_2stim_asymm_v5,2020.2.10,Win32,60,61025ae37ef11b136ea224fe,,,,,,,,,2321,23,62,1,0,0,response1disk,,7,-2,-2,1,0,0,rectangle,-2,-2,1,0,0,-2,-2,1,0,0,0,60,60,13,1,,,,,,,,
,,,,,,,,,,,,,FF,,,,,,,,4.3324,,,,,,,,,,,,,,,,,,,,,,60ff488f1b3c9851177efd97,61036cc5ada89aa3a7128e5d,2021-07-29_23h22.44.832,Simcolourproject_2stim_asymm_v5,2020.2.10,Win32,60,61025ae37ef11b136ea224fe,,,,,,,,,3007,73,-31,1,0,0,response3disk,,5,-21,12,1,0,0,rectangle,-21,12,1,0,0,-21,12,1,0,0,0,61,61,50,1,,,,,,,,
,,,,,,,,,,,,,FF,,,,,,,,1.2051,,,,,,,,,,,,,,,,,,,,,,60ff488f1b3c9851177efd97,61036cc5ada89aa3a7128e5d,2021-07-29_23h22.44.832,Simcolourproject_2stim_asymm_v5,2020.2.10,Win32,60,61025ae37ef11b136ea224fe,,,,,,,,,1949,-30,-76,1,0,0,response5disk,,3,-10,-2,1,0,0,rectangle,-10,-2,1,0,0,-10,-2,1,0,0,0,62,62,31,1,,,,,,,,
,,,,,,,,,,,,,FF,,,,,,,,1.974,,,,,,,,,,,,,,,,,,,,,,60ff488f1b3c9851177efd97,61036cc5ada89aa3a7128e5d,2021-07-29_23h22.44.832,Simcolourproject_2stim_asymm_v5,2020.2.10,Win32,60,61025ae37ef11b136ea224fe,,,,,,,,,3386,-38,-65,1,0,0,response5disk,,3,-3,4,1,0,0,rectangle,-3,4,1,0,0,-3,4,1,0,0,0,63,63,154,1,,,,,,,,
,,,,,,,,,,,,,FF,,,,,,,,1.6902,,,,,,,,,,,,,,,,,,,,,,60ff488f1b3c9851177efd97,61036cc5ada89aa3a7128e5d,2021-07-29_23h22.44.832,Simcolourproject_2stim_asymm_v5,2020.2.10,Win32,60,61025ae37ef11b136ea224fe,,,,,,,,,3881,-32,-78,1,0,0,response5disk,,3,-7,3,1,0,0,rectangle,-7,3,1,0,0,-7,3,1,0,0,0,64,64,27,1,,,,,,,,
,,,,,,,,,,,,,FF,,,,,,,,1.2073,,,,,,,,,,,,,,,,,,,,,,60ff488f1b3c9851177efd97,61036cc5ada89aa3a7128e5d,2021-07-29_23h22.44.832,Simcolourproject_2stim_asymm_v5,2020.2.10,Win32,60,61025ae37ef11b136ea224fe,,,,,,,,,1776,81,26,1,0,0,response1disk,,6,-2,0,1,0,0,rectangle,-2,0,1,0,0,-2,0,1,0,0,0,65,65,116,1,,,,,,,,
,,,,,,,,,,,,,FF,,,,,,,,0.7193,,,,,,,,,,,,,,,,,,,,,,60ff488f1b3c9851177efd97,61036cc5ada89aa3a7128e5d,2021-07-29_23h22.44.832,Simcolourproject_2stim_asymm_v5,2020.2.10,Win32,60,61025ae37ef11b136ea224fe,,,,,,,,,3368,30,81,1,0,0,response1disk,,7,-4,5,1,0,0,rectangle,-4,5,1,0,0,-4,5,1,0,0,0,66,66,94,1,,,,,,,,
,,,,,,,,,,,,,FF,,,,,,,,2.9612,,,,,,,,,,,,,,,,,,,,,,60ff488f1b3c9851177efd97,61036cc5ada89aa3a7128e5d,2021-07-29_23h22.44.832,Simcolourproject_2stim_asymm_v5,2020.2.10,Win32,60,61025ae37ef11b136ea224fe,,,,,,,,,4346,-77,-40,1,0,0,response5disk,,2,6,4,1,0,0,rectangle,6,4,1,0,0,6,4,1,0,0,0,67,67,86,1,,,,,,,,
,,,,,,,,,,,,,FF,,,,,,,,0.8533,,,,,,,,,,,,,,,,,,,,,,60ff488f1b3c9851177efd97,61036cc5ada89aa3a7128e5d,2021-07-29_23h22.44.832,Simcolourproject_2stim_asymm_v5,2020.2.10,Win32,60,61025ae37ef11b136ea224fe,,,,,,,,,2780,-89,44,1,0,0,response7disk,,1,-11,6,1,0,0,rectangle,-11,6,1,0,0,-11,6,1,0,0,0,68,68,132,1,,,,,,,,
,,,,,,,,,,,,,FF,,,,,,,,0.7034,,,,,,,,,,,,,,,,,,,,,,60ff488f1b3c9851177efd97,61036cc5ada89aa3a7128e5d,2021-07-29_23h22.44.832,Simcolourproject_2stim_asymm_v5,2020.2.10,Win32,60,61025ae37ef11b136ea224fe,,,,,,,,,692,25,79,1,0,0,response1disk,,7,-3,-10,1,0,0,rectangle,-3,-10,1,0,0,-3,-10,1,0,0,0,69,69,115,1,,,,,,,,
,,,,,,,,,,,,,FF,,,,,,,,0.8533,,,,,,,,,,,,,,,,,,,,,,60ff488f1b3c9851177efd97,61036cc5ada89aa3a7128e5d,2021-07-29_23h22.44.832,Simcolourproject_2stim_asymm_v5,2020.2.10,Win32,60,61025ae37ef11b136ea224fe,,,,,,,,,1511,28,65,1,0,0,response1disk,,7,7,-3,1,0,0,rectangle,7,-3,1,0,0,7,-3,1,0,0,0,70,70,92,1,,,,,,,,
,,,,,,,,,,,,,FF,,,,,,,,1.6224,,,,,,,,,,,,,,,,,,,,,,60ff488f1b3c9851177efd97,61036cc5ada89aa3a7128e5d,2021-07-29_23h22.44.832,Simcolourproject_2stim_asymm_v5,2020.2.10,Win32,60,61025ae37ef11b136ea224fe,,,,,,,,,1008,29,67,1,0,0,response1disk,,7,7,8,1,0,0,rectangle,7,8,1,0,0,7,8,1,0,0,0,71,71,1,1,,,,,,,,
,,,,,,,,,,,,,FF,,,,,,,,1.6394,,,,,,,,,,,,,,,,,,,,,,60ff488f1b3c9851177efd97,61036cc5ada89aa3a7128e5d,2021-07-29_23h22.44.832,Simcolourproject_2stim_asymm_v5,2020.2.10,Win32,60,61025ae37ef11b136ea224fe,,,,,,,,,3394,56,-39,1,0,0,response3disk,,5,-8,0,1,0,0,rectangle,-8,0,1,0,0,-8,0,1,0,0,0,72,72,120,1,,,,,,,,
,,,,,,,,,,,,,FF,,,,,,,,3.1281,,,,,,,,,,,,,,,,,,,,,,60ff488f1b3c9851177efd97,61036cc5ada89aa3a7128e5d,2021-07-29_23h22.44.832,Simcolourproject_2stim_asymm_v5,2020.2.10,Win32,60,61025ae37ef11b136ea224fe,,,,,,,,,1767,53,39,1,0,0,response1disk,,6,7,5,1,0,0,rectangle,7,5,1,0,0,7,5,1,0,0,0,73,73,75,1,,,,,,,,
,,,,,,,,,,,,,FF,,,,,,,,0.803,,,,,,,,,,,,,,,,,,,,,,60ff488f1b3c9851177efd97,61036cc5ada89aa3a7128e5d,2021-07-29_23h22.44.832,Simcolourproject_2stim_asymm_v5,2020.2.10,Win32,60,61025ae37ef11b136ea224fe,,,,,,,,,2488,22,68,1,0,0,response1disk,,7,5,4,1,0,0,rectangle,5,4,1,0,0,5,4,1,0,0,0,74,74,25,1,,,,,,,,
,,,,,,,,,,,,,FF,,,,,,,,5.5373,,,,,,,,,,,,,,,,,,,,,,60ff488f1b3c9851177efd97,61036cc5ada89aa3a7128e5d,2021-07-29_23h22.44.832,Simcolourproject_2stim_asymm_v5,2020.2.10,Win32,60,61025ae37ef11b136ea224fe,,,,,,,,,903,33,60,1,0,0,response1disk,,7,9,3,1,0,0,rectangle,9,3,1,0,0,9,3,1,0,0,0,75,75,124,1,,,,,,,,
,,,,,,,,,,,,,FF,,,,,,,,1.9746,,,,,,,,,,,,,,,,,,,,,,60ff488f1b3c9851177efd97,61036cc5ada89aa3a7128e5d,2021-07-29_23h22.44.832,Simcolourproject_2stim_asymm_v5,2020.2.10,Win32,60,61025ae37ef11b136ea224fe,,,,,,,,,642,53,-87,1,0,0,response3disk,,4,10,-12,1,0,0,rectangle,10,-12,1,0,0,10,-12,1,0,0,0,76,76,121,1,,,,,,,,
,,,,,,,,,,,,,FF,,,,,,,,1.019,,,,,,,,,,,,,,,,,,,,,,60ff488f1b3c9851177efd97,61036cc5ada89aa3a7128e5d,2021-07-29_23h22.44.832,Simcolourproject_2stim_asymm_v5,2020.2.10,Win32,60,61025ae37ef11b136ea224fe,,,,,,,,,2982,88,34,1,0,0,response1disk,,6,0,-2,1,0,0,rectangle,0,-2,1,0,0,0,-2,1,0,0,0,77,77,11,1,,,,,,,,
,,,,,,,,,,,,,FF,,,,,,,,2.4779,,,,,,,,,,,,,,,,,,,,,,60ff488f1b3c9851177efd97,61036cc5ada89aa3a7128e5d,2021-07-29_23h22.44.832,Simcolourproject_2stim_asymm_v5,2020.2.10,Win32,60,61025ae37ef11b136ea224fe,,,,,,,,,2289,64,31,1,0,0,response1disk,,6,10,0,1,0,0,rectangle,10,0,1,0,0,10,0,1,0,0,0,78,78,29,1,,,,,,,,
,,,,,,,,,,,,,FF,,,,,,,,1.5748,,,,,,,,,,,,,,,,,,,,,,60ff488f1b3c9851177efd97,61036cc5ada89aa3a7128e5d,2021-07-29_23h22.44.832,Simcolourproject_2stim_asymm_v5,2020.2.10,Win32,60,61025ae37ef11b136ea224fe,,,,,,,,,680,77,30,1,0,0,response1disk,,6,-9,-6,1,0,0,rectangle,-9,-6,1,0,0,-9,-6,1,0,0,0,79,79,87,1,,,,,,,,
,,,,,,,,,,,,,FF,,,,,,,,2.1247,,,,,,,,,,,,,,,,,,,,,,60ff488f1b3c9851177efd97,61036cc5ada89aa3a7128e5d,2021-07-29_23h22.44.832,Simcolourproject_2stim_asymm_v5,2020.2.10,Win32,60,61025ae37ef11b136ea224fe,,,,,,,,,3736,35,71,1,0,0,response1disk,,7,21,1,1,0,0,rectangle,21,1,1,0,0,21,1,1,0,0,0,80,80,140,1,,,,,,,,
,,,,,,,,,,,,,FF,,,,,,,,1.1548,,,,,,,,,,,,,,,,,,,,,,60ff488f1b3c9851177efd97,61036cc5ada89aa3a7128e5d,2021-07-29_23h22.44.832,Simcolourproject_2stim_asymm_v5,2020.2.10,Win32,60,61025ae37ef11b136ea224fe,,,,,,,,,1336,22,61,1,0,0,response1disk,,7,7,-2,1,0,0,rectangle,7,-2,1,0,0,7,-2,1,0,0,0,81,81,53,1,,,,,,,,
,,,,,,,,,,,,,FF,,,,,,,,0.9064,,,,,,,,,,,,,,,,,,,,,,60ff488f1b3c9851177efd97,61036cc5ada89aa3a7128e5d,2021-07-29_23h22.44.832,Simcolourproject_2stim_asymm_v5,2020.2.10,Win32,60,61025ae37ef11b136ea224fe,,,,,,,,,1179,30,72,1,0,0,response1disk,,7,2,7,1,0,0,rectangle,2,7,1,0,0,2,7,1,0,0,0,82,82,105,1,,,,,,,,
,,,,,,,,,,,,,FF,,,,,,,,0.9034,,,,,,,,,,,,,,,,,,,,,,60ff488f1b3c9851177efd97,61036cc5ada89aa3a7128e5d,2021-07-29_23h22.44.832,Simcolourproject_2stim_asymm_v5,2020.2.10,Win32,60,61025ae37ef11b136ea224fe,,,,,,,,,3281,38,86,1,0,0,response1disk,,7,5,2,1,0,0,rectangle,5,2,1,0,0,5,2,1,0,0,0,83,83,131,1,,,,,,,,
,,,,,,,,,,,,,FF,,,,,,,,4.4001,,,,,,,,,,,,,,,,,,,,,,60ff488f1b3c9851177efd97,61036cc5ada89aa3a7128e5d,2021-07-29_23h22.44.832,Simcolourproject_2stim_asymm_v5,2020.2.10,Win32,60,61025ae37ef11b136ea224fe,,,,,,,,,463,93,-35,1,0,0,response3disk,,5,-1,-2,1,0,0,rectangle,-1,-2,1,0,0,-1,-2,1,0,0,0,84,84,0,1,,,,,,,,
,,,,,,,,,,,,,FF,,,,,,,,1.2213,,,,,,,,,,,,,,,,,,,,,,60ff488f1b3c9851177efd97,61036cc5ada89aa3a7128e5d,2021-07-29_23h22.44.832,Simcolourproject_2stim_asymm_v5,2020.2.10,Win32,60,61025ae37ef11b136ea224fe,,,,,,,,,337,20,76,1,0,0,response1disk,,7,-10,2,1,0,0,rectangle,-10,2,1,0,0,-10,2,1,0,0,0,85,85,149,1,,,,,,,,
,,,,,,,,,,,,,FF,,,,,,,,1.6897,,,,,,,,,,,,,,,,,,,,,,60ff488f1b3c9851177efd97,61036cc5ada89aa3a7128e5d,2021-07-29_23h22.44.832,Simcolourproject_2stim_asymm_v5,2020.2.10,Win32,60,61025ae37ef11b136ea224fe,,,,,,,,,2740,32,67,1,0,0,response1disk,,7,10,3,1,0,0,rectangle,10,3,1,0,0,10,3,1,0,0,0,86,86,49,1,,,,,,,,
,,,,,,,,,,,,,FF,,,,,,,,1.3552,,,,,,,,,,,,,,,,,,,,,,60ff488f1b3c9851177efd97,61036cc5ada89aa3a7128e5d,2021-07-29_23h22.44.832,Simcolourproject_2stim_asymm_v5,2020.2.10,Win32,60,61025ae37ef11b136ea224fe,,,,,,,,,1196,51,75,1,0,0,response1disk,,7,7,4,1,0,0,rectangle,7,4,1,0,0,7,4,1,0,0,0,87,87,12,1,,,,,,,,
,,,,,,,,,,,,,FF,,,,,,,,1.8733,,,,,,,,,,,,,,,,,,,,,,60ff488f1b3c9851177efd97,61036cc5ada89aa3a7128e5d,2021-07-29_23h22.44.832,Simcolourproject_2stim_asymm_v5,2020.2.10,Win32,60,61025ae37ef11b136ea224fe,,,,,,,,,804,-43,-91,1,0,0,response5disk,,3,-9,9,1,0,0,rectangle,-9,9,1,0,0,-9,9,1,0,0,0,88,88,78,1,,,,,,,,
,,,,,,,,,,,,,FF,,,,,,,,0.9213,,,,,,,,,,,,,,,,,,,,,,60ff488f1b3c9851177efd97,61036cc5ada89aa3a7128e5d,2021-07-29_23h22.44.832,Simcolourproject_2stim_asymm_v5,2020.2.10,Win32,60,61025ae37ef11b136ea224fe,,,,,,,,,4146,-92,-34,1,0,0,response5disk,,2,-3,8,1,0,0,rectangle,-3,8,1,0,0,-3,8,1,0,0,0,89,89,51,1,,,,,,,,
,,,,,,,,,,,,,FF,,,,,,,,1.9236,,,,,,,,,,,,,,,,,,,,,,60ff488f1b3c9851177efd97,61036cc5ada89aa3a7128e5d,2021-07-29_23h22.44.832,Simcolourproject_2stim_asymm_v5,2020.2.10,Win32,60,61025ae37ef11b136ea224fe,,,,,,,,,468,71,-44,1,0,0,response3disk,,5,12,-8,1,0,0,rectangle,12,-8,1,0,0,12,-8,1,0,0,0,90,90,6,1,,,,,,,,
,,,,,,,,,,,,,FF,,,,,,,,1.1054,,,,,,,,,,,,,,,,,,,,,,60ff488f1b3c9851177efd97,61036cc5ada89aa3a7128e5d,2021-07-29_23h22.44.832,Simcolourproject_2stim_asymm_v5,2020.2.10,Win32,60,61025ae37ef11b136ea224fe,,,,,,,,,2021,45,75,1,0,0,response1disk,,7,4,8,1,0,0,rectangle,35,-91,1,0,0,-11,-3,1,0,0,0,91,91,74,1,,response3disk_3,TRUE,4,4,"[131,218,261,110,263,231,92,234,197,243,36,36,228,192,173,150,273,210,204,167]",2.4986,rectangle
,,,,,,,,,,,,,FF,,,,,,,,8.9824,,,,,,,,,,,,,,,,,,,,,,60ff488f1b3c9851177efd97,61036cc5ada89aa3a7128e5d,2021-07-29_23h22.44.832,Simcolourproject_2stim_asymm_v5,2020.2.10,Win32,60,61025ae37ef11b136ea224fe,,,,,,,,,1974,77,-37,1,0,0,response3disk,,5,-8,-3,1,0,0,rectangle,-8,-3,1,0,0,-8,-3,1,0,0,0,92,92,61,1,,,,,,,,
,,,,,,,,,,,,,FF,,,,,,,,1.2886,,,,,,,,,,,,,,,,,,,,,,60ff488f1b3c9851177efd97,61036cc5ada89aa3a7128e5d,2021-07-29_23h22.44.832,Simcolourproject_2stim_asymm_v5,2020.2.10,Win32,60,61025ae37ef11b136ea224fe,,,,,,,,,2369,-85,-49,1,0,0,response5disk,,2,15,-1,1,0,0,rectangle,15,-1,1,0,0,15,-1,1,0,0,0,93,93,109,1,,,,,,,,
,,,,,,,,,,,,,FF,,,,,,,,1.4582,,,,,,,,,,,,,,,,,,,,,,60ff488f1b3c9851177efd97,61036cc5ada89aa3a7128e5d,2021-07-29_23h22.44.832,Simcolourproject_2stim_asymm_v5,2020.2.10,Win32,60,61025ae37ef11b136ea224fe,,,,,,,,,1281,26,73,1,0,0,response1disk,,7,9,4,1,0,0,rectangle,9,4,1,0,0,9,4,1,0,0,0,94,94,2,1,,,,,,,,
,,,,,,,,,,,,,FF,,,,,,,,2.1084,,,,,,,,,,,,,,,,,,,,,,60ff488f1b3c9851177efd97,61036cc5ada89aa3a7128e5d,2021-07-29_23h22.44.832,Simcolourproject_2stim_asymm_v5,2020.2.10,Win32,60,61025ae37ef11b136ea224fe,,,,,,,,,1672,-55,-91,1,0,0,response5disk,,3,10,7,1,0,0,rectangle,10,7,1,0,0,10,7,1,0,0,0,95,95,150,1,,,,,,,,
,,,,,,,,,,,,,FF,,,,,,,,1.2879,,,,,,,,,,,,,,,,,,,,,,60ff488f1b3c9851177efd97,61036cc5ada89aa3a7128e5d,2021-07-29_23h22.44.832,Simcolourproject_2stim_asymm_v5,2020.2.10,Win32,60,61025ae37ef11b136ea224fe,,,,,,,,,503,69,27,1,0,0,response1disk,,6,-3,-5,1,0,0,rectangle,-3,-5,1,0,0,-3,-5,1,0,0,0,96,96,123,1,,,,,,,,
,,,,,,,,,,,,,FF,,,,,,,,0.9224,,,,,,,,,,,,,,,,,,,,,,60ff488f1b3c9851177efd97,61036cc5ada89aa3a7128e5d,2021-07-29_23h22.44.832,Simcolourproject_2stim_asymm_v5,2020.2.10,Win32,60,61025ae37ef11b136ea224fe,,,,,,,,,2628,43,64,1,0,0,response1disk,,7,9,6,1,0,0,rectangle,9,6,1,0,0,9,6,1,0,0,0,97,97,95,1,,,,,,,,
,,,,,,,,,,,,,FF,,,,,,,,0.937,,,,,,,,,,,,,,,,,,,,,,60ff488f1b3c9851177efd97,61036cc5ada89aa3a7128e5d,2021-07-29_23h22.44.832,Simcolourproject_2stim_asymm_v5,2020.2.10,Win32,60,61025ae37ef11b136ea224fe,,,,,,,,,1004,34,78,1,0,0,response1disk,,7,9,2,1,0,0,rectangle,9,2,1,0,0,9,2,1,0,0,0,98,98,111,1,,,,,,,,
,,,,,,,,,,,,,FF,,,,,,,,1.1043,,,,,,,,,,,,,,,,,,,,,,60ff488f1b3c9851177efd97,61036cc5ada89aa3a7128e5d,2021-07-29_23h22.44.832,Simcolourproject_2stim_asymm_v5,2020.2.10,Win32,60,61025ae37ef11b136ea224fe,,,,,,,,,2068,31,58,1,0,0,response1disk,,7,6,2,1,0,0,rectangle,6,2,1,0,0,6,2,1,0,0,0,99,99,113,1,,,,,,,,
,,,,,,,,,,,,,FF,,,,,,,,3.6971,,,,,,,,,,,,,,,,,,,,,,60ff488f1b3c9851177efd97,61036cc5ada89aa3a7128e5d,2021-07-29_23h22.44.832,Simcolourproject_2stim_asymm_v5,2020.2.10,Win32,60,61025ae37ef11b136ea224fe,,,,,,,,,148,52,-40,1,0,0,response3disk,,5,18,5,1,0,0,rectangle,18,5,1,0,0,18,5,1,0,0,0,100,100,83,1,,,,,,,,
,,,,,,,,,,,,,FF,,,,,,,,1.9074,,,,,,,,,,,,,,,,,,,,,,60ff488f1b3c9851177efd97,61036cc5ada89aa3a7128e5d,2021-07-29_23h22.44.832,Simcolourproject_2stim_asymm_v5,2020.2.10,Win32,60,61025ae37ef11b136ea224fe,,,,,,,,,3645,64,31,1,0,0,response1disk,,6,11,7,1,0,0,rectangle,11,7,1,0,0,11,7,1,0,0,0,101,101,7,1,,,,,,,,
,,,,,,,,,,,,,FF,,,,,,,,1.3545,,,,,,,,,,,,,,,,,,,,,,60ff488f1b3c9851177efd97,61036cc5ada89aa3a7128e5d,2021-07-29_23h22.44.832,Simcolourproject_2stim_asymm_v5,2020.2.10,Win32,60,61025ae37ef11b136ea224fe,,,,,,,,,693,-37,-52,1,0,0,response5disk,,3,-11,3,1,0,0,rectangle,-11,3,1,0,0,-11,3,1,0,0,0,102,102,157,1,,,,,,,,
,,,,,,,,,,,,,FF,,,,,,,,2.1414,,,,,,,,,,,,,,,,,,,,,,60ff488f1b3c9851177efd97,61036cc5ada89aa3a7128e5d,2021-07-29_23h22.44.832,Simcolourproject_2stim_asymm_v5,2020.2.10,Win32,60,61025ae37ef11b136ea224fe,,,,,,,,,4267,50,-65,1,0,0,response3disk,,4,6,4,1,0,0,rectangle,6,4,1,0,0,6,4,1,0,0,0,103,103,72,1,,,,,,,,
,,,,,,,,,,,,,FF,,,,,,,,1.7415,,,,,,,,,,,,,,,,,,,,,,60ff488f1b3c9851177efd97,61036cc5ada89aa3a7128e5d,2021-07-29_23h22.44.832,Simcolourproject_2stim_asymm_v5,2020.2.10,Win32,60,61025ae37ef11b136ea224fe,,,,,,,,,2372,38,61,1,0,0,response1disk,,7,4,11,1,0,0,rectangle,4,11,1,0,0,4,11,1,0,0,0,104,104,45,1,,,,,,,,
,,,,,,,,,,,,,FF,,,,,,,,1.2065,,,,,,,,,,,,,,,,,,,,,,60ff488f1b3c9851177efd97,61036cc5ada89aa3a7128e5d,2021-07-29_23h22.44.832,Simcolourproject_2stim_asymm_v5,2020.2.10,Win32,60,61025ae37ef11b136ea224fe,,,,,,,,,1405,23,63,1,0,0,response1disk,,7,7,-1,1,0,0,rectangle,7,-1,1,0,0,7,-1,1,0,0,0,105,105,90,1,,,,,,,,
,,,,,,,,,,,,,FF,,,,,,,,0.8543,,,,,,,,,,,,,,,,,,,,,,60ff488f1b3c9851177efd97,61036cc5ada89aa3a7128e5d,2021-07-29_23h22.44.832,Simcolourproject_2stim_asymm_v5,2020.2.10,Win32,60,61025ae37ef11b136ea224fe,,,,,,,,,662,33,73,1,0,0,response1disk,,7,7,-4,1,0,0,rectangle,7,-4,1,0,0,7,-4,1,0,0,0,106,106,60,1,,,,,,,,
,,,,,,,,,,,,,FF,,,,,,,,3.0133,,,,,,,,,,,,,,,,,,,,,,60ff488f1b3c9851177efd97,61036cc5ada89aa3a7128e5d,2021-07-29_23h22.44.832,Simcolourproject_2stim_asymm_v5,2020.2.10,Win32,60,61025ae37ef11b136ea224fe,,,,,,,,,3889,27,-51,1,0,0,response3disk,,4,11,-2,1,0,0,rectangle,11,-2,1,0,0,11,-2,1,0,0,0,107,107,57,1,,,,,,,,
,,,,,,,,,,,,,FF,,,,,,,,2.7595,,,,,,,,,,,,,,,,,,,,,,60ff488f1b3c9851177efd97,61036cc5ada89aa3a7128e5d,2021-07-29_23h22.44.832,Simcolourproject_2stim_asymm_v5,2020.2.10,Win32,60,61025ae37ef11b136ea224fe,,,,,,,,,3077,71,39,1,0,0,response1disk,,6,10,-6,1,0,0,rectangle,10,-6,1,0,0,10,-6,1,0,0,0,108,108,9,1,,,,,,,,
,,,,,,,,,,,,,FF,,,,,,,,0.9557,,,,,,,,,,,,,,,,,,,,,,60ff488f1b3c9851177efd97,61036cc5ada89aa3a7128e5d,2021-07-29_23h22.44.832,Simcolourproject_2stim_asymm_v5,2020.2.10,Win32,60,61025ae37ef11b136ea224fe,,,,,,,,,1812,-51,-29,1,0,0,response5disk,,2,9,6,1,0,0,rectangle,-84,37,1,0,0,-6,7,1,0,0,0,109,109,39,1,,response7disk_3,TRUE,1,1,"[131,218,261,110,263,231,92,234,197,243,36,36,228,192,173,150,273,210,204,167]",1.7248,rectangle
,,,,,,,,,,,,,FF,,,,,,,,1.0712,,,,,,,,,,,,,,,,,,,,,,60ff488f1b3c9851177efd97,61036cc5ada89aa3a7128e5d,2021-07-29_23h22.44.832,Simcolourproject_2stim_asymm_v5,2020.2.10,Win32,60,61025ae37ef11b136ea224fe,,,,,,,,,3390,-47,83,1,0,0,response7disk,,0,7,-5,1,0,0,rectangle,7,-5,1,0,0,7,-5,1,0,0,0,110,110,62,1,,,,,,,,
,,,,,,,,,,,,,FF,,,,,,,,3.5299,,,,,,,,,,,,,,,,,,,,,,60ff488f1b3c9851177efd97,61036cc5ada89aa3a7128e5d,2021-07-29_23h22.44.832,Simcolourproject_2stim_asymm_v5,2020.2.10,Win32,60,61025ae37ef11b136ea224fe,,,,,,,,,4018,47,-77,1,0,0,response3disk,,4,-5,2,1,0,0,rectangle,-5,2,1,0,0,-5,2,1,0,0,0,111,111,84,1,,,,,,,,
,,,,,,,,,,,,,FF,,,,,,,,1.3718,,,,,,,,,,,,,,,,,,,,,,60ff488f1b3c9851177efd97,61036cc5ada89aa3a7128e5d,2021-07-29_23h22.44.832,Simcolourproject_2stim_asymm_v5,2020.2.10,Win32,60,61025ae37ef11b136ea224fe,,,,,,,,,2271,37,72,1,0,0,response1disk,,7,3,4,1,0,0,rectangle,3,4,1,0,0,3,4,1,0,0,0,112,112,40,1,,,,,,,,
,,,,,,,,,,,,,FF,,,,,,,,2.3583,,,,,,,,,,,,,,,,,,,,,,60ff488f1b3c9851177efd97,61036cc5ada89aa3a7128e5d,2021-07-29_23h22.44.832,Simcolourproject_2stim_asymm_v5,2020.2.10,Win32,60,61025ae37ef11b136ea224fe,,,,,,,,,3805,29,-79,1,0,0,response3disk,,4,-5,-1,1,0,0,rectangle,-5,-1,1,0,0,-5,-1,1,0,0,0,113,113,97,1,,,,,,,,
,,,,,,,,,,,,,FF,,,,,,,,1.6559,,,,,,,,,,,,,,,,,,,,,,60ff488f1b3c9851177efd97,61036cc5ada89aa3a7128e5d,2021-07-29_23h22.44.832,Simcolourproject_2stim_asymm_v5,2020.2.10,Win32,60,61025ae37ef11b136ea224fe,,,,,,,,,515,64,39,1,0,0,response1disk,,6,1,-1,1,0,0,rectangle,1,-1,1,0,0,1,-1,1,0,0,0,114,114,143,1,,,,,,,,
,,,,,,,,,,,,,FF,,,,,,,,2.4259,,,,,,,,,,,,,,,,,,,,,,60ff488f1b3c9851177efd97,61036cc5ada89aa3a7128e5d,2021-07-29_23h22.44.832,Simcolourproject_2stim_asymm_v5,2020.2.10,Win32,60,61025ae37ef11b136ea224fe,,,,,,,,,2435,58,33,1,0,0,response1disk,,6,6,3,1,0,0,rectangle,6,3,1,0,0,6,3,1,0,0,0,115,115,96,1,,,,,,,,
,,,,,,,,,,,,,FF,,,,,,,,2.5093,,,,,,,,,,,,,,,,,,,,,,60ff488f1b3c9851177efd97,61036cc5ada89aa3a7128e5d,2021-07-29_23h22.44.832,Simcolourproject_2stim_asymm_v5,2020.2.10,Win32,60,61025ae37ef11b136ea224fe,,,,,,,,,2803,50,-24,1,0,0,response3disk,,5,15,1,1,0,0,rectangle,15,1,1,0,0,15,1,1,0,0,0,116,116,133,1,,,,,,,,
,,,,,,,,,,,,,FF,,,,,,,,1.7911,,,,,,,,,,,,,,,,,,,,,,60ff488f1b3c9851177efd97,61036cc5ada89aa3a7128e5d,2021-07-29_23h22.44.832,Simcolourproject_2stim_asymm_v5,2020.2.10,Win32,60,61025ae37ef11b136ea224fe,,,,,,,,,2086,30,-57,1,0,0,response3disk,,4,-1,9,1,0,0,rectangle,-1,9,1,0,0,-1,9,1,0,0,0,117,117,144,1,,,,,,,,
,,,,,,,,,,,,,FF,,,,,,,,1.4716,,,,,,,,,,,,,,,,,,,,,,60ff488f1b3c9851177efd97,61036cc5ada89aa3a7128e5d,2021-07-29_23h22.44.832,Simcolourproject_2stim_asymm_v5,2020.2.10,Win32,60,61025ae37ef11b136ea224fe,,,,,,,,,2808,34,75,1,0,0,response1disk,,7,7,3,1,0,0,rectangle,7,3,1,0,0,7,3,1,0,0,0,118,118,142,1,,,,,,,,
,,,,,,,,,,,,,FF,,,,,,,,0.7369,,,,,,,,,,,,,,,,,,,,,,60ff488f1b3c9851177efd97,61036cc5ada89aa3a7128e5d,2021-07-29_23h22.44.832,Simcolourproject_2stim_asymm_v5,2020.2.10,Win32,60,61025ae37ef11b136ea224fe,,,,,,,,,2170,36,-60,1,0,0,response3disk,,4,-11,8,1,0,0,rectangle,-11,8,1,0,0,-11,8,1,0,0,0,119,119,22,1,,,,,,,,
,,,,,,,,,,,,,FF,,,,,,,,2.5595,,,,,,,,,,,,,,,,,,,,,,60ff488f1b3c9851177efd97,61036cc5ada89aa3a7128e5d,2021-07-29_23h22.44.832,Simcolourproject_2stim_asymm_v5,2020.2.10,Win32,60,61025ae37ef11b136ea224fe,,,,,,,,,2339,60,34,1,0,0,response1disk,,6,1,0,1,0,0,rectangle,1,0,1,0,0,1,0,1,0,0,0,120,120,79,1,,,,,,,,
,,,,,,,,,,,,,FF,,,,,,,,1.0705,,,,,,,,,,,,,,,,,,,,,,60ff488f1b3c9851177efd97,61036cc5ada89aa3a7128e5d,2021-07-29_23h22.44.832,Simcolourproject_2stim_asymm_v5,2020.2.10,Win32,60,61025ae37ef11b136ea224fe,,,,,,,,,3735,37,68,1,0,0,response1disk,,7,12,-3,1,0,0,rectangle,12,-3,1,0,0,12,-3,1,0,0,0,121,121,46,1,,,,,,,,
,,,,,,,,,,,,,FF,,,,,,,,1.8411,,,,,,,,,,,,,,,,,,,,,,60ff488f1b3c9851177efd97,61036cc5ada89aa3a7128e5d,2021-07-29_23h22.44.832,Simcolourproject_2stim_asymm_v5,2020.2.10,Win32,60,61025ae37ef11b136ea224fe,,,,,,,,,1505,46,69,1,0,0,response1disk,,7,18,2,1,0,0,rectangle,18,2,1,0,0,18,2,1,0,0,0,122,122,30,1,,,,,,,,
,,,,,,,,,,,,,FF,,,,,,,,1.191,,,,,,,,,,,,,,,,,,,,,,60ff488f1b3c9851177efd97,61036cc5ada89aa3a7128e5d,2021-07-29_23h22.44.832,Simcolourproject_2stim_asymm_v5,2020.2.10,Win32,60,61025ae37ef11b136ea224fe,,,,,,,,,3882,-32,56,1,0,0,response7disk,,0,0,0,1,0,0,rectangle,0,0,1,0,0,0,0,1,0,0,0,123,123,100,1,,,,,,,,
,,,,,,,,,,,,,FF,,,,,,,,0.9034,,,,,,,,,,,,,,,,,,,,,,60ff488f1b3c9851177efd97,61036cc5ada89aa3a7128e5d,2021-07-29_23h22.44.832,Simcolourproject_2stim_asymm_v5,2020.2.10,Win32,60,61025ae37ef11b136ea224fe,,,,,,,,,1296,-42,61,1,0,0,response7disk,,0,3,0,1,0,0,rectangle,3,0,1,0,0,3,0,1,0,0,0,124,124,158,1,,,,,,,,
,,,,,,,,,,,,,FF,,,,,,,,3.1955,,,,,,,,,,,,,,,,,,,,,,60ff488f1b3c9851177efd97,61036cc5ada89aa3a7128e5d,2021-07-29_23h22.44.832,Simcolourproject_2stim_asymm_v5,2020.2.10,Win32,60,61025ae37ef11b136ea224fe,,,,,,,,,3240,55,32,1,0,0,response1disk,,6,-5,1,1,0,0,rectangle,-5,1,1,0,0,-5,1,1,0,0,0,125,125,130,1,,,,,,,,
,,,,,,,,,,,,,FF,,,,,,,,5.1027,,,,,,,,,,,,,,,,,,,,,,60ff488f1b3c9851177efd97,61036cc5ada89aa3a7128e5d,2021-07-29_23h22.44.832,Simcolourproject_2stim_asymm_v5,2020.2.10,Win32,60,61025ae37ef11b136ea224fe,,,,,,,,,3362,71,-50,1,0,0,response3disk,,5,27,-3,1,0,0,rectangle,27,-3,1,0,0,27,-3,1,0,0,0,126,126,88,1,,,,,,,,
,,,,,,,,,,,,,FF,,,,,,,,0.7026,,,,,,,,,,,,,,,,,,,,,,60ff488f1b3c9851177efd97,61036cc5ada89aa3a7128e5d,2021-07-29_23h22.44.832,Simcolourproject_2stim_asymm_v5,2020.2.10,Win32,60,61025ae37ef11b136ea224fe,,,,,,,,,3810,-34,72,1,0,0,response7disk,,0,0,-5,1,0,0,rectangle,0,-5,1,0,0,0,-5,1,0,0,0,127,127,138,1,,,,,,,,
,,,,,,,,,,,,,FF,,,,,,,,2.3097,,,,,,,,,,,,,,,,,,,,,,60ff488f1b3c9851177efd97,61036cc5ada89aa3a7128e5d,2021-07-29_23h22.44.832,Simcolourproject_2stim_asymm_v5,2020.2.10,Win32,60,61025ae37ef11b136ea224fe,,,,,,,,,564,67,-26,1,0,0,response3disk,,5,2,3,1,0,0,rectangle,2,3,1,0,0,2,3,1,0,0,0,128,128,56,1,,,,,,,,
,,,,,,,,,,,,,FF,,,,,,,,1.8221,,,,,,,,,,,,,,,,,,,,,,60ff488f1b3c9851177efd97,61036cc5ada89aa3a7128e5d,2021-07-29_23h22.44.832,Simcolourproject_2stim_asymm_v5,2020.2.10,Win32,60,61025ae37ef11b136ea224fe,,,,,,,,,332,73,33,1,0,0,response1disk,,6,1,-7,1,0,0,rectangle,1,-7,1,0,0,1,-7,1,0,0,0,129,129,145,1,,,,,,,,
,,,,,,,,,,,,,FF,,,,,,,,1.8231,,,,,,,,,,,,,,,,,,,,,,60ff488f1b3c9851177efd97,61036cc5ada89aa3a7128e5d,2021-07-29_23h22.44.832,Simcolourproject_2stim_asymm_v5,2020.2.10,Win32,60,61025ae37ef11b136ea224fe,,,,,,,,,57,22,87,1,0,0,response1disk,,7,-1,0,1,0,0,rectangle,32,-83,1,0,0,-11,-2,1,0,0,0,130,130,65,1,,response3disk_3,TRUE,4,4,"[131,218,261,110,263,231,92,234,197,243,36,36,228,192,173,150,273,210,204,167]",1.8296,rectangle
,,,,,,,,,,,,,FF,,,,,,,,0.9866,,,,,,,,,,,,,,,,,,,,,,60ff488f1b3c9851177efd97,61036cc5ada89aa3a7128e5d,2021-07-29_23h22.44.832,Simcolourproject_2stim_asymm_v5,2020.2.10,Win32,60,61025ae37ef11b136ea224fe,,,,,,,,,2229,34,-66,1,0,0,response3disk,,4,10,-8,1,0,0,rectangle,10,-8,1,0,0,10,-8,1,0,0,0,131,131,135,1,,,,,,,,
,,,,,,,,,,,,,FF,,,,,,,,2.4929,,,,,,,,,,,,,,,,,,,,,,60ff488f1b3c9851177efd97,61036cc5ada89aa3a7128e5d,2021-07-29_23h22.44.832,Simcolourproject_2stim_asymm_v5,2020.2.10,Win32,60,61025ae37ef11b136ea224fe,,,,,,,,,158,70,-39,1,0,0,response3disk,,5,-11,0,1,0,0,rectangle,-11,0,1,0,0,-11,0,1,0,0,0,132,132,44,1,,,,,,,,
,,,,,,,,,,,,,FF,,,,,,,,1.2707,,,,,,,,,,,,,,,,,,,,,,60ff488f1b3c9851177efd97,61036cc5ada89aa3a7128e5d,2021-07-29_23h22.44.832,Simcolourproject_2stim_asymm_v5,2020.2.10,Win32,60,61025ae37ef11b136ea224fe,,,,,,,,,2370,74,-31,1,0,0,response3disk,,5,2,11,1,0,0,rectangle,2,11,1,0,0,2,11,1,0,0,0,133,133,89,1,,,,,,,,
,,,,,,,,,,,,,FF,,,,,,,,1.506,,,,,,,,,,,,,,,,,,,,,,60ff488f1b3c9851177efd97,61036cc5ada89aa3a7128e5d,2021-07-29_23h22.44.832,Simcolourproject_2stim_asymm_v5,2020.2.10,Win32,60,61025ae37ef11b136ea224fe,,,,,,,,,3351,36,90,1,0,0,response1disk,,7,-13,5,1,0,0,rectangle,-13,5,1,0,0,-13,5,1,0,0,0,134,134,98,1,,,,,,,,
,,,,,,,,,,,,,FF,,,,,,,,0.6527,,,,,,,,,,,,,,,,,,,,,,60ff488f1b3c9851177efd97,61036cc5ada89aa3a7128e5d,2021-07-29_23h22.44.832,Simcolourproject_2stim_asymm_v5,2020.2.10,Win32,60,61025ae37ef11b136ea224fe,,,,,,,,,2225,21,56,1,0,0,response1disk,,7,10,1,1,0,0,rectangle,10,1,1,0,0,10,1,1,0,0,0,135,135,47,1,,,,,,,,
,,,,,,,,,,,,,FF,,,,,,,,1.69,,,,,,,,,,,,,,,,,,,,,,60ff488f1b3c9851177efd97,61036cc5ada89aa3a7128e5d,2021-07-29_23h22.44.832,Simcolourproject_2stim_asymm_v5,2020.2.10,Win32,60,61025ae37ef11b136ea224fe,,,,,,,,,476,73,43,1,0,0,response1disk,,6,-23,0,1,0,0,rectangle,-23,0,1,0,0,-23,0,1,0,0,0,136,136,32,1,,,,,,,,
,,,,,,,,,,,,,FF,,,,,,,,0.987,,,,,,,,,,,,,,,,,,,,,,60ff488f1b3c9851177efd97,61036cc5ada89aa3a7128e5d,2021-07-29_23h22.44.832,Simcolourproject_2stim_asymm_v5,2020.2.10,Win32,60,61025ae37ef11b136ea224fe,,,,,,,,,3162,-28,-58,1,0,0,response5disk,,3,-3,5,1,0,0,rectangle,-3,5,1,0,0,-3,5,1,0,0,0,137,137,14,1,,,,,,,,
,,,,,,,,,,,,,FF,,,,,,,,1.1045,,,,,,,,,,,,,,,,,,,,,,60ff488f1b3c9851177efd97,61036cc5ada89aa3a7128e5d,2021-07-29_23h22.44.832,Simcolourproject_2stim_asymm_v5,2020.2.10,Win32,60,61025ae37ef11b136ea224fe,,,,,,,,,2384,47,77,1,0,0,response1disk,,7,14,-8,1,0,0,rectangle,14,-8,1,0,0,14,-8,1,0,0,0,138,138,10,1,,,,,,,,
,,,,,,,,,,,,,FF,,,,,,,,1.5562,,,,,,,,,,,,,,,,,,,,,,60ff488f1b3c9851177efd97,61036cc5ada89aa3a7128e5d,2021-07-29_23h22.44.832,Simcolourproject_2stim_asymm_v5,2020.2.10,Win32,60,61025ae37ef11b136ea224fe,,,,,,,,,3857,68,-30,1,0,0,response3disk,,5,14,-3,1,0,0,rectangle,14,-3,1,0,0,14,-3,1,0,0,0,139,139,15,1,,,,,,,,
,,,,,,,,,,,,,FF,,,,,,,,5.2699,,,,,,,,,,,,,,,,,,,,,,60ff488f1b3c9851177efd97,61036cc5ada89aa3a7128e5d,2021-07-29_23h22.44.832,Simcolourproject_2stim_asymm_v5,2020.2.10,Win32,60,61025ae37ef11b136ea224fe,,,,,,,,,2576,21,87,1,0,0,response1disk,,7,1,-13,1,0,0,rectangle,1,-13,1,0,0,1,-13,1,0,0,0,140,140,20,1,,,,,,,,
,,,,,,,,,,,,,FF,,,,,,,,1.005,,,,,,,,,,,,,,,,,,,,,,60ff488f1b3c9851177efd97,61036cc5ada89aa3a7128e5d,2021-07-29_23h22.44.832,Simcolourproject_2stim_asymm_v5,2020.2.10,Win32,60,61025ae37ef11b136ea224fe,,,,,,,,,1323,46,79,1,0,0,response1disk,,7,-9,1,1,0,0,rectangle,-9,1,1,0,0,-9,1,1,0,0,0,141,141,18,1,,,,,,,,
,,,,,,,,,,,,,FF,,,,,,,,1.7396,,,,,,,,,,,,,,,,,,,,,,60ff488f1b3c9851177efd97,61036cc5ada89aa3a7128e5d,2021-07-29_23h22.44.832,Simcolourproject_2stim_asymm_v5,2020.2.10,Win32,60,61025ae37ef11b136ea224fe,,,,,,,,,340,83,-46,1,0,0,response3disk,,5,18,-11,1,0,0,rectangle,18,-11,1,0,0,18,-11,1,0,0,0,142,142,63,1,,,,,,,,
,,,,,,,,,,,,,FF,,,,,,,,2.3422,,,,,,,,,,,,,,,,,,,,,,60ff488f1b3c9851177efd97,61036cc5ada89aa3a7128e5d,2021-07-29_23h22.44.832,Simcolourproject_2stim_asymm_v5,2020.2.10,Win32,60,61025ae37ef11b136ea224fe,,,,,,,,,4222,72,45,1,0,0,response1disk,,6,-1,9,1,0,0,rectangle,-1,9,1,0,0,-1,9,1,0,0,0,143,143,38,1,,,,,,,,
,,,,,,,,,,,,,FF,,,,,,,,2.3422,,,,,,,,,,,,,,,,,,,,,,60ff488f1b3c9851177efd97,61036cc5ada89aa3a7128e5d,2021-07-29_23h22.44.832,Simcolourproject_2stim_asymm_v5,2020.2.10,Win32,60,61025ae37ef11b136ea224fe,,,,,,,,,4040,26,51,1,0,0,response1disk,,7,12,12,1,0,0,rectangle,12,12,1,0,0,12,12,1,0,0,0,144,144,67,1,,,,,,,,
,,,,,,,,,,,,,FF,,,,,,,,1.2227,,,,,,,,,,,,,,,,,,,,,,60ff488f1b3c9851177efd97,61036cc5ada89aa3a7128e5d,2021-07-29_23h22.44.832,Simcolourproject_2stim_asymm_v5,2020.2.10,Win32,60,61025ae37ef11b136ea224fe,,,,,,,,,3562,-33,-58,1,0,0,response5disk,,3,-6,3,1,0,0,rectangle,-6,3,1,0,0,-6,3,1,0,0,0,145,145,117,1,,,,,,,,
,,,,,,,,,,,,,FF,,,,,,,,1.1395,,,,,,,,,,,,,,,,,,,,,,60ff488f1b3c9851177efd97,61036cc5ada89aa3a7128e5d,2021-07-29_23h22.44.832,Simcolourproject_2stim_asymm_v5,2020.2.10,Win32,60,61025ae37ef11b136ea224fe,,,,,,,,,2474,73,33,1,0,0,response1disk,,6,-3,3,1,0,0,rectangle,-3,3,1,0,0,-3,3,1,0,0,0,146,146,3,1,,,,,,,,
,,,,,,,,,,,,,FF,,,,,,,,1.2572,,,,,,,,,,,,,,,,,,,,,,60ff488f1b3c9851177efd97,61036cc5ada89aa3a7128e5d,2021-07-29_23h22.44.832,Simcolourproject_2stim_asymm_v5,2020.2.10,Win32,60,61025ae37ef11b136ea224fe,,,,,,,,,3955,60,-29,1,0,0,response3disk,,5,11,9,1,0,0,rectangle,11,9,1,0,0,11,9,1,0,0,0,147,147,37,1,,,,,,,,
,,,,,,,,,,,,,FF,,,,,,,,3.1113,,,,,,,,,,,,,,,,,,,,,,60ff488f1b3c9851177efd97,61036cc5ada89aa3a7128e5d,2021-07-29_23h22.44.832,Simcolourproject_2stim_asymm_v5,2020.2.10,Win32,60,61025ae37ef11b136ea224fe,,,,,,,,,1507,65,36,1,0,0,response1disk,,6,4,6,1,0,0,rectangle,4,6,1,0,0,4,6,1,0,0,0,148,148,36,1,,,,,,,,
,,,,,,,,,,,,,FF,,,,,,,,0.7547,,,,,,,,,,,,,,,,,,,,,,60ff488f1b3c9851177efd97,61036cc5ada89aa3a7128e5d,2021-07-29_23h22.44.832,Simcolourproject_2stim_asymm_v5,2020.2.10,Win32,60,61025ae37ef11b136ea224fe,,,,,,,,,4255,46,-24,1,0,0,response3disk,,5,10,-1,1,0,0,rectangle,25,-52,1,0,0,-11,-1,1,0,0,0,149,149,147,1,,response3disk_3,TRUE,4,4,"[131,218,261,110,263,231,92,234,197,243,36,36,228,192,173,150,273,210,204,167]",1.4223,rectangle
,,,,,,,,,,,,,FF,,,,,,,,2.0081,,,,,,,,,,,,,,,,,,,,,,60ff488f1b3c9851177efd97,61036cc5ada89aa3a7128e5d,2021-07-29_23h22.44.832,Simcolourproject_2stim_asymm_v5,2020.2.10,Win32,60,61025ae37ef11b136ea224fe,,,,,,,,,2679,48,-73,1,0,0,response3disk,,4,-7,-6,1,0,0,rectangle,-7,-6,1,0,0,-7,-6,1,0,0,0,150,150,80,1,,,,,,,,
,,,,,,,,,,,,,FF,,,,,,,,2.6604,,,,,,,,,,,,,,,,,,,,,,60ff488f1b3c9851177efd97,61036cc5ada89aa3a7128e5d,2021-07-29_23h22.44.832,Simcolourproject_2stim_asymm_v5,2020.2.10,Win32,60,61025ae37ef11b136ea224fe,,,,,,,,,2083,79,32,1,0,0,response1disk,,6,-1,7,1,0,0,rectangle,-1,7,1,0,0,-1,7,1,0,0,0,151,151,17,1,,,,,,,,
,,,,,,,,,,,,,FF,,,,,,,,1.6563,,,,,,,,,,,,,,,,,,,,,,60ff488f1b3c9851177efd97,61036cc5ada89aa3a7128e5d,2021-07-29_23h22.44.832,Simcolourproject_2stim_asymm_v5,2020.2.10,Win32,60,61025ae37ef11b136ea224fe,,,,,,,,,161,46,72,1,0,0,response1disk,,7,20,-7,1,0,0,rectangle,20,-7,1,0,0,20,-7,1,0,0,0,152,152,59,1,,,,,,,,
,,,,,,,,,,,,,FF,,,,,,,,1.2379,,,,,,,,,,,,,,,,,,,,,,60ff488f1b3c9851177efd97,61036cc5ada89aa3a7128e5d,2021-07-29_23h22.44.832,Simcolourproject_2stim_asymm_v5,2020.2.10,Win32,60,61025ae37ef11b136ea224fe,,,,,,,,,4204,31,-49,1,0,0,response3disk,,4,9,0,1,0,0,rectangle,9,0,1,0,0,9,0,1,0,0,0,153,153,69,1,,,,,,,,
,,,,,,,,,,,,,FF,,,,,,,,0.9219,,,,,,,,,,,,,,,,,,,,,,60ff488f1b3c9851177efd97,61036cc5ada89aa3a7128e5d,2021-07-29_23h22.44.832,Simcolourproject_2stim_asymm_v5,2020.2.10,Win32,60,61025ae37ef11b136ea224fe,,,,,,,,,2359,30,-65,1,0,0,response3disk,,4,-3,1,1,0,0,rectangle,-3,1,1,0,0,-3,1,1,0,0,0,154,154,55,1,,,,,,,,
,,,,,,,,,,,,,FF,,,,,,,,2.5428,,,,,,,,,,,,,,,,,,,,,,60ff488f1b3c9851177efd97,61036cc5ada89aa3a7128e5d,2021-07-29_23h22.44.832,Simcolourproject_2stim_asymm_v5,2020.2.10,Win32,60,61025ae37ef11b136ea224fe,,,,,,,,,2403,37,66,1,0,0,response1disk,,7,5,-1,1,0,0,rectangle,5,-1,1,0,0,5,-1,1,0,0,0,155,155,23,1,,,,,,,,
,,,,,,,,,,,,,FF,,,,,,,,0.7363,,,,,,,,,,,,,,,,,,,,,,60ff488f1b3c9851177efd97,61036cc5ada89aa3a7128e5d,2021-07-29_23h22.44.832,Simcolourproject_2stim_asymm_v5,2020.2.10,Win32,60,61025ae37ef11b136ea224fe,,,,,,,,,2145,39,65,1,0,0,response1disk,,7,4,0,1,0,0,rectangle,4,0,1,0,0,4,0,1,0,0,0,156,156,139,1,,,,,,,,
,,,,,,,,,,,,,FF,,,,,,,,0.7051,,,,,,,,,,,,,,,,,,,,,,60ff488f1b3c9851177efd97,61036cc5ada89aa3a7128e5d,2021-07-29_23h22.44.832,Simcolourproject_2stim_asymm_v5,2020.2.10,Win32,60,61025ae37ef11b136ea224fe,,,,,,,,,887,29,-70,1,0,0,response3disk,,4,-9,0,1,0,0,rectangle,-9,0,1,0,0,-9,0,1,0,0,0,157,157,101,1,,,,,,,,
,,,,,,,,,,,,,FF,,,,,,,,1.6394,,,,,,,,,,,,,,,,,,,,,,60ff488f1b3c9851177efd97,61036cc5ada89aa3a7128e5d,2021-07-29_23h22.44.832,Simcolourproject_2stim_asymm_v5,2020.2.10,Win32,60,61025ae37ef11b136ea224fe,,,,,,,,,2917,38,65,1,0,0,response1disk,,7,6,3,1,0,0,rectangle,6,3,1,0,0,6,3,1,0,0,0,158,158,4,1,,,,,,,,
,,,,,,,,,,,,,FF,,,,,,,,1.3216,,,,,,,,,,,,,,,,,,,,,,60ff488f1b3c9851177efd97,61036cc5ada89aa3a7128e5d,2021-07-29_23h22.44.832,Simcolourproject_2stim_asymm_v5,2020.2.10,Win32,60,61025ae37ef11b136ea224fe,,,,,,,,,220,36,78,1,0,0,response1disk,,7,7,-2,1,0,0,rectangle,7,-2,1,0,0,7,-2,1,0,0,0,159,159,136,1,,,,,,,,
,,,,,,,,,,,,,FF,,,,,,,,1.424,,,,,,,,,,,,,,,,,,,,,,60ff488f1b3c9851177efd97,61036cc5ada89aa3a7128e5d,2021-07-29_23h22.44.832,Simcolourproject_2stim_asymm_v5,2020.2.10,Win32,60,61025ae37ef11b136ea224fe,,,,,,,,,3163,34,-79,1,0,0,response3disk,,4,-4,2,1,0,0,rectangle,-4,2,1,0,0,-4,2,1,0,0,1,0,160,3,1,,,,,,,,
,,,,,,,,,,,,,FF,,,,,,,,1.6253,,,,,,,,,,,,,,,,,,,,,,60ff488f1b3c9851177efd97,61036cc5ada89aa3a7128e5d,2021-07-29_23h22.44.832,Simcolourproject_2stim_asymm_v5,2020.2.10,Win32,60,61025ae37ef11b136ea224fe,,,,,,,,,658,76,42,1,0,0,response1disk,,6,-11,-9,1,0,0,rectangle,-11,-9,1,0,0,-11,-9,1,0,0,1,1,161,25,1,,,,,,,,
,,,,,,,,,,,,,FF,,,,,,,,0.9205,,,,,,,,,,,,,,,,,,,,,,60ff488f1b3c9851177efd97,61036cc5ada89aa3a7128e5d,2021-07-29_23h22.44.832,Simcolourproject_2stim_asymm_v5,2020.2.10,Win32,60,61025ae37ef11b136ea224fe,,,,,,,,,4119,-44,-62,1,0,0,response5disk,,3,-12,3,1,0,0,rectangle,-12,3,1,0,0,-12,3,1,0,0,1,2,162,39,1,,,,,,,,
,,,,,,,,,,,,,FF,,,,,,,,5.3543,,,,,,,,,,,,,,,,,,,,,,60ff488f1b3c9851177efd97,61036cc5ada89aa3a7128e5d,2021-07-29_23h22.44.832,Simcolourproject_2stim_asymm_v5,2020.2.10,Win32,60,61025ae37ef11b136ea224fe,,,,,,,,,4128,77,-41,1,0,0,response3disk,,5,19,-2,1,0,0,rectangle,19,-2,1,0,0,19,-2,1,0,0,1,3,163,111,1,,,,,,,,
,,,,,,,,,,,,,FF,,,,,,,,2.6932,,,,,,,,,,,,,,,,,,,,,,60ff488f1b3c9851177efd97,61036cc5ada89aa3a7128e5d,2021-07-29_23h22.44.832,Simcolourproject_2stim_asymm_v5,2020.2.10,Win32,60,61025ae37ef11b136ea224fe,,,,,,,,,3324,20,58,1,0,0,response1disk,,7,3,-2,1,0,0,rectangle,3,-2,1,0,0,3,-2,1,0,0,1,4,164,152,1,,,,,,,,
,,,,,,,,,,,,,FF,,,,,,,,0.6856,,,,,,,,,,,,,,,,,,,,,,60ff488f1b3c9851177efd97,61036cc5ada89aa3a7128e5d,2021-07-29_23h22.44.832,Simcolourproject_2stim_asymm_v5,2020.2.10,Win32,60,61025ae37ef11b136ea224fe,,,,,,,,,967,36,68,1,0,0,response1disk,,7,7,-6,1,0,0,rectangle,7,-6,1,0,0,7,-6,1,0,0,1,5,165,32,1,,,,,,,,
,,,,,,,,,,,,,FF,,,,,,,,0.8222,,,,,,,,,,,,,,,,,,,,,,60ff488f1b3c9851177efd97,61036cc5ada89aa3a7128e5d,2021-07-29_23h22.44.832,Simcolourproject_2stim_asymm_v5,2020.2.10,Win32,60,61025ae37ef11b136ea224fe,,,,,,,,,1648,31,62,1,0,0,response1disk,,7,11,-11,1,0,0,rectangle,-42,65,1,0,0,-3,-13,1,0,0,1,6,166,108,1,,response7disk_3,TRUE,0,0,"[131,218,261,110,263,231,92,234,197,243,36,36,228,192,173,150,273,210,204,167]",1.6058,rectangle
,,,,,,,,,,,,,FF,,,,,,,,1.1543,,,,,,,,,,,,,,,,,,,,,,60ff488f1b3c9851177efd97,61036cc5ada89aa3a7128e5d,2021-07-29_23h22.44.832,Simcolourproject_2stim_asymm_v5,2020.2.10,Win32,60,61025ae37ef11b136ea224fe,,,,,,,,,2665,36,-84,1,0,0,response3disk,,4,1,-3,1,0,0,rectangle,1,-3,1,0,0,1,-3,1,0,0,1,7,167,104,1,,,,,,,,
,,,,,,,,,,,,,FF,,,,,,,,1.0037,,,,,,,,,,,,,,,,,,,,,,60ff488f1b3c9851177efd97,61036cc5ada89aa3a7128e5d,2021-07-29_23h22.44.832,Simcolourproject_2stim_asymm_v5,2020.2.10,Win32,60,61025ae37ef11b136ea224fe,,,,,,,,,3048,-36,-76,1,0,0,response5disk,,3,-14,3,1,0,0,rectangle,-14,3,1,0,0,-14,3,1,0,0,1,8,168,125,1,,,,,,,,
,,,,,,,,,,,,,FF,,,,,,,,0.8705,,,,,,,,,,,,,,,,,,,,,,60ff488f1b3c9851177efd97,61036cc5ada89aa3a7128e5d,2021-07-29_23h22.44.832,Simcolourproject_2stim_asymm_v5,2020.2.10,Win32,60,61025ae37ef11b136ea224fe,,,,,,,,,2174,-75,-42,1,0,0,response5disk,,2,-6,3,1,0,0,rectangle,-6,3,1,0,0,-6,3,1,0,0,1,9,169,94,1,,,,,,,,
,,,,,,,,,,,,,FF,,,,,,,,1.0554,,,,,,,,,,,,,,,,,,,,,,60ff488f1b3c9851177efd97,61036cc5ada89aa3a7128e5d,2021-07-29_23h22.44.832,Simcolourproject_2stim_asymm_v5,2020.2.10,Win32,60,61025ae37ef11b136ea224fe,,,,,,,,,548,-74,-29,1,0,0,response5disk,,2,-8,-1,1,0,0,rectangle,-8,-1,1,0,0,-8,-1,1,0,0,1,10,170,156,1,,,,,,,,
,,,,,,,,,,,,,FF,,,,,,,,1.1379,,,,,,,,,,,,,,,,,,,,,,60ff488f1b3c9851177efd97,61036cc5ada89aa3a7128e5d,2021-07-29_23h22.44.832,Simcolourproject_2stim_asymm_v5,2020.2.10,Win32,60,61025ae37ef11b136ea224fe,,,,,,,,,1683,-77,-40,1,0,0,response5disk,,2,0,-6,1,0,0,rectangle,0,-6,1,0,0,0,-6,1,0,0,1,11,171,90,1,,,,,,,,
,,,,,,,,,,,,,FF,,,,,,,,1.4054,,,,,,,,,,,,,,,,,,,,,,60ff488f1b3c9851177efd97,61036cc5ada89aa3a7128e5d,2021-07-29_23h22.44.832,Simcolourproject_2stim_asymm_v5,2020.2.10,Win32,60,61025ae37ef11b136ea224fe,,,,,,,,,103,68,33,1,0,0,response1disk,,6,-8,4,1,0,0,rectangle,-65,-35,1,0,0,-5,-11,1,0,0,1,12,172,18,1,,response5disk_3,TRUE,2,2,"[131,218,261,110,263,231,92,234,197,243,36,36,228,192,173,150,273,210,204,167]",1.17,rectangle
,,,,,,,,,,,,,FF,,,,,,,,4.8537,,,,,,,,,,,,,,,,,,,,,,60ff488f1b3c9851177efd97,61036cc5ada89aa3a7128e5d,2021-07-29_23h22.44.832,Simcolourproject_2stim_asymm_v5,2020.2.10,Win32,60,61025ae37ef11b136ea224fe,,,,,,,,,3066,36,-69,1,0,0,response3disk,,4,11,3,1,0,0,rectangle,11,3,1,0,0,11,3,1,0,0,1,13,173,34,1,,,,,,,,
,,,,,,,,,,,,,FF,,,,,,,,1.4571,,,,,,,,,,,,,,,,,,,,,,60ff488f1b3c9851177efd97,61036cc5ada89aa3a7128e5d,2021-07-29_23h22.44.832,Simcolourproject_2stim_asymm_v5,2020.2.10,Win32,60,61025ae37ef11b136ea224fe,,,,,,,,,4256,37,-80,1,0,0,response3disk,,4,-8,2,1,0,0,rectangle,-8,2,1,0,0,-8,2,1,0,0,1,14,174,71,1,,,,,,,,
,,,,,,,,,,,,,FF,,,,,,,,0.6359,,,,,,,,,,,,,,,,,,,,,,60ff488f1b3c9851177efd97,61036cc5ada89aa3a7128e5d,2021-07-29_23h22.44.832,Simcolourproject_2stim_asymm_v5,2020.2.10,Win32,60,61025ae37ef11b136ea224fe,,,,,,,,,950,40,67,1,0,0,response1disk,,7,5,-6,1,0,0,rectangle,5,-6,1,0,0,5,-6,1,0,0,1,15,175,40,1,,,,,,,,
,,,,,,,,,,,,,FF,,,,,,,,1.1715,,,,,,,,,,,,,,,,,,,,,,60ff488f1b3c9851177efd97,61036cc5ada89aa3a7128e5d,2021-07-29_23h22.44.832,Simcolourproject_2stim_asymm_v5,2020.2.10,Win32,60,61025ae37ef11b136ea224fe,,,,,,,,,170,-79,-46,1,0,0,response5disk,,2,-2,1,1,0,0,rectangle,-2,1,1,0,0,-2,1,1,0,0,1,16,176,153,1,,,,,,,,
,,,,,,,,,,,,,FF,,,,,,,,1.4888,,,,,,,,,,,,,,,,,,,,,,60ff488f1b3c9851177efd97,61036cc5ada89aa3a7128e5d,2021-07-29_23h22.44.832,Simcolourproject_2stim_asymm_v5,2020.2.10,Win32,60,61025ae37ef11b136ea224fe,,,,,,,,,1084,15,53,1,0,0,response1disk,,7,14,9,1,0,0,rectangle,14,9,1,0,0,14,9,1,0,0,1,17,177,116,1,,,,,,,,
,,,,,,,,,,,,,FF,,,,,,,,2.192,,,,,,,,,,,,,,,,,,,,,,60ff488f1b3c9851177efd97,61036cc5ada89aa3a7128e5d,2021-07-29_23h22.44.832,Simcolourproject_2stim_asymm_v5,2020.2.10,Win32,60,61025ae37ef11b136ea224fe,,,,,,,,,2910,21,48,1,0,0,response1disk,,7,11,7,1,0,0,rectangle,11,7,1,0,0,11,7,1,0,0,1,18,178,59,1,,,,,,,,
,,,,,,,,,,,,,FF,,,,,,,,0.736,,,,,,,,,,,,,,,,,,,,,,60ff488f1b3c9851177efd97,61036cc5ada89aa3a7128e5d,2021-07-29_23h22.44.832,Simcolourproject_2stim_asymm_v5,2020.2.10,Win32,60,61025ae37ef11b136ea224fe,,,,,,,,,1982,26,62,1,0,0,response1disk,,7,13,4,1,0,0,rectangle,13,4,1,0,0,13,4,1,0,0,1,19,179,45,1,,,,,,,,
,,,,,,,,,,,,,FF,,,,,,,,3.4801,,,,,,,,,,,,,,,,,,,,,,60ff488f1b3c9851177efd97,61036cc5ada89aa3a7128e5d,2021-07-29_23h22.44.832,Simcolourproject_2stim_asymm_v5,2020.2.10,Win32,60,61025ae37ef11b136ea224fe,,,,,,,,,76,80,-18,1,0,0,response3disk,,5,20,2,1,0,0,rectangle,20,2,1,0,0,20,2,1,0,0,1,20,180,103,1,,,,,,,,
,,,,,,,,,,,,,FF,,,,,,,,0.9702,,,,,,,,,,,,,,,,,,,,,,60ff488f1b3c9851177efd97,61036cc5ada89aa3a7128e5d,2021-07-29_23h22.44.832,Simcolourproject_2stim_asymm_v5,2020.2.10,Win32,60,61025ae37ef11b136ea224fe,,,,,,,,,4257,49,79,1,0,0,response1disk,,7,18,3,1,0,0,rectangle,18,3,1,0,0,18,3,1,0,0,1,21,181,19,1,,,,,,,,
,,,,,,,,,,,,,FF,,,,,,,,0.6696,,,,,,,,,,,,,,,,,,,,,,60ff488f1b3c9851177efd97,61036cc5ada89aa3a7128e5d,2021-07-29_23h22.44.832,Simcolourproject_2stim_asymm_v5,2020.2.10,Win32,60,61025ae37ef11b136ea224fe,,,,,,,,,3502,74,-32,1,0,0,response3disk,,5,16,8,1,0,0,rectangle,16,8,1,0,0,16,8,1,0,0,1,22,182,98,1,,,,,,,,
,,,,,,,,,,,,,FF,,,,,,,,0.8216,,,,,,,,,,,,,,,,,,,,,,60ff488f1b3c9851177efd97,61036cc5ada89aa3a7128e5d,2021-07-29_23h22.44.832,Simcolourproject_2stim_asymm_v5,2020.2.10,Win32,60,61025ae37ef11b136ea224fe,,,,,,,,,2426,102,-35,1,0,0,response3disk,,5,16,-4,1,0,0,rectangle,16,-4,1,0,0,16,-4,1,0,0,1,23,183,50,1,,,,,,,,
,,,,,,,,,,,,,FF,,,,,,,,0.6371,,,,,,,,,,,,,,,,,,,,,,60ff488f1b3c9851177efd97,61036cc5ada89aa3a7128e5d,2021-07-29_23h22.44.832,Simcolourproject_2stim_asymm_v5,2020.2.10,Win32,60,61025ae37ef11b136ea224fe,,,,,,,,,994,22,47,1,0,0,response1disk,,7,1,-7,1,0,0,rectangle,1,-7,1,0,0,1,-7,1,0,0,1,24,184,82,1,,,,,,,,
,,,,,,,,,,,,,FF,,,,,,,,1.7065,,,,,,,,,,,,,,,,,,,,,,60ff488f1b3c9851177efd97,61036cc5ada89aa3a7128e5d,2021-07-29_23h22.44.832,Simcolourproject_2stim_asymm_v5,2020.2.10,Win32,60,61025ae37ef11b136ea224fe,,,,,,,,,4129,70,-39,1,0,0,response3disk,,5,26,-8,1,0,0,rectangle,26,-8,1,0,0,26,-8,1,0,0,1,25,185,87,1,,,,,,,,
,,,,,,,,,,,,,FF,,,,,,,,1.4548,,,,,,,,,,,,,,,,,,,,,,60ff488f1b3c9851177efd97,61036cc5ada89aa3a7128e5d,2021-07-29_23h22.44.832,Simcolourproject_2stim_asymm_v5,2020.2.10,Win32,60,61025ae37ef11b136ea224fe,,,,,,,,,3593,-31,-55,1,0,0,response5disk,,3,-1,-3,1,0,0,rectangle,-1,-3,1,0,0,-1,-3,1,0,0,1,26,186,102,1,,,,,,,,
,,,,,,,,,,,,,FF,,,,,,,,1.238,,,,,,,,,,,,,,,,,,,,,,60ff488f1b3c9851177efd97,61036cc5ada89aa3a7128e5d,2021-07-29_23h22.44.832,Simcolourproject_2stim_asymm_v5,2020.2.10,Win32,60,61025ae37ef11b136ea224fe,,,,,,,,,840,36,52,1,0,0,response1disk,,7,4,2,1,0,0,rectangle,4,2,1,0,0,4,2,1,0,0,1,27,187,26,1,,,,,,,,
,,,,,,,,,,,,,FF,,,,,,,,2.2441,,,,,,,,,,,,,,,,,,,,,,60ff488f1b3c9851177efd97,61036cc5ada89aa3a7128e5d,2021-07-29_23h22.44.832,Simcolourproject_2stim_asymm_v5,2020.2.10,Win32,60,61025ae37ef11b136ea224fe,,,,,,,,,739,39,62,1,0,0,response1disk,,7,-9,-4,1,0,0,rectangle,-9,-4,1,0,0,-9,-4,1,0,0,1,28,188,72,1,,,,,,,,
,,,,,,,,,,,,,FF,,,,,,,,2.6435,,,,,,,,,,,,,,,,,,,,,,60ff488f1b3c9851177efd97,61036cc5ada89aa3a7128e5d,2021-07-29_23h22.44.832,Simcolourproject_2stim_asymm_v5,2020.2.10,Win32,60,61025ae37ef11b136ea224fe,,,,,,,,,3833,65,32,1,0,0,response1disk,,6,20,-1,1,0,0,rectangle,20,-1,1,0,0,20,-1,1,0,0,1,29,189,97,1,,,,,,,,
,,,,,,,,,,,,,FF,,,,,,,,1.1038,,,,,,,,,,,,,,,,,,,,,,60ff488f1b3c9851177efd97,61036cc5ada89aa3a7128e5d,2021-07-29_23h22.44.832,Simcolourproject_2stim_asymm_v5,2020.2.10,Win32,60,61025ae37ef11b136ea224fe,,,,,,,,,2008,29,66,1,0,0,response1disk,,7,-4,8,1,0,0,rectangle,-4,8,1,0,0,-4,8,1,0,0,1,30,190,74,1,,,,,,,,
,,,,,,,,,,,,,FF,,,,,,,,1.0377,,,,,,,,,,,,,,,,,,,,,,60ff488f1b3c9851177efd97,61036cc5ada89aa3a7128e5d,2021-07-29_23h22.44.832,Simcolourproject_2stim_asymm_v5,2020.2.10,Win32,60,61025ae37ef11b136ea224fe,,,,,,,,,4165,72,-40,1,0,0,response3disk,,5,10,-7,1,0,0,rectangle,-56,-24,1,0,0,25,-13,1,0,0,1,31,191,118,1,,response5disk_3,TRUE,2,2,"[131,218,261,110,263,231,92,234,197,243,36,36,228,192,173,150,273,210,204,167]",1.3886,rectangle
,,,,,,,,,,,,,FF,,,,,,,,3.2292,,,,,,,,,,,,,,,,,,,,,,60ff488f1b3c9851177efd97,61036cc5ada89aa3a7128e5d,2021-07-29_23h22.44.832,Simcolourproject_2stim_asymm_v5,2020.2.10,Win32,60,61025ae37ef11b136ea224fe,,,,,,,,,18,52,74,1,0,0,response1disk,,7,0,4,1,0,0,rectangle,0,4,1,0,0,0,4,1,0,0,1,32,192,41,1,,,,,,,,
,,,,,,,,,,,,,FF,,,,,,,,1.1038,,,,,,,,,,,,,,,,,,,,,,60ff488f1b3c9851177efd97,61036cc5ada89aa3a7128e5d,2021-07-29_23h22.44.832,Simcolourproject_2stim_asymm_v5,2020.2.10,Win32,60,61025ae37ef11b136ea224fe,,,,,,,,,3401,42,-66,1,0,0,response3disk,,4,-4,0,1,0,0,rectangle,-4,0,1,0,0,-4,0,1,0,0,1,33,193,140,1,,,,,,,,
,,,,,,,,,,,,,FF,,,,,,,,2.9444,,,,,,,,,,,,,,,,,,,,,,60ff488f1b3c9851177efd97,61036cc5ada89aa3a7128e5d,2021-07-29_23h22.44.832,Simcolourproject_2stim_asymm_v5,2020.2.10,Win32,60,61025ae37ef11b136ea224fe,,,,,,,,,2921,38,67,1,0,0,response1disk,,7,4,5,1,0,0,rectangle,4,5,1,0,0,4,5,1,0,0,1,34,194,136,1,,,,,,,,
,,,,,,,,,,,,,FF,,,,,,,,1.004,,,,,,,,,,,,,,,,,,,,,,60ff488f1b3c9851177efd97,61036cc5ada89aa3a7128e5d,2021-07-29_23h22.44.832,Simcolourproject_2stim_asymm_v5,2020.2.10,Win32,60,61025ae37ef11b136ea224fe,,,,,,,,,85,29,65,1,0,0,response1disk,,7,6,0,1,0,0,rectangle,6,0,1,0,0,6,0,1,0,0,1,35,195,33,1,,,,,,,,
,,,,,,,,,,,,,FF,,,,,,,,0.9868,,,,,,,,,,,,,,,,,,,,,,60ff488f1b3c9851177efd97,61036cc5ada89aa3a7128e5d,2021-07-29_23h22.44.832,Simcolourproject_2stim_asymm_v5,2020.2.10,Win32,60,61025ae37ef11b136ea224fe,,,,,,,,,1629,31,72,1,0,0,response1disk,,7,8,0,1,0,0,rectangle,-30,-52,1,0,0,-3,7,1,0,0,1,36,196,17,1,,response5disk_3,TRUE,3,3,"[131,218,261,110,263,231,92,234,197,243,36,36,228,192,173,150,273,210,204,167]",1.4216,rectangle
,,,,,,,,,,,,,FF,,,,,,,,6.3407,,,,,,,,,,,,,,,,,,,,,,60ff488f1b3c9851177efd97,61036cc5ada89aa3a7128e5d,2021-07-29_23h22.44.832,Simcolourproject_2stim_asymm_v5,2020.2.10,Win32,60,61025ae37ef11b136ea224fe,,,,,,,,,3042,27,-75,1,0,0,response3disk,,4,-5,-4,1,0,0,rectangle,-5,-4,1,0,0,-5,-4,1,0,0,1,37,197,88,1,,,,,,,,
,,,,,,,,,,,,,FF,,,,,,,,1.8394,,,,,,,,,,,,,,,,,,,,,,60ff488f1b3c9851177efd97,61036cc5ada89aa3a7128e5d,2021-07-29_23h22.44.832,Simcolourproject_2stim_asymm_v5,2020.2.10,Win32,60,61025ae37ef11b136ea224fe,,,,,,,,,1573,80,24,1,0,0,response1disk,,6,-17,-10,1,0,0,rectangle,-17,-10,1,0,0,-17,-10,1,0,0,1,38,198,151,1,,,,,,,,
,,,,,,,,,,,,,FF,,,,,,,,0.9534,,,,,,,,,,,,,,,,,,,,,,60ff488f1b3c9851177efd97,61036cc5ada89aa3a7128e5d,2021-07-29_23h22.44.832,Simcolourproject_2stim_asymm_v5,2020.2.10,Win32,60,61025ae37ef11b136ea224fe,,,,,,,,,3698,53,24,1,0,0,response1disk,,6,-12,-2,1,0,0,rectangle,-12,-2,1,0,0,-12,-2,1,0,0,1,39,199,78,1,,,,,,,,
,,,,,,,,,,,,,FF,,,,,,,,0.9538,,,,,,,,,,,,,,,,,,,,,,60ff488f1b3c9851177efd97,61036cc5ada89aa3a7128e5d,2021-07-29_23h22.44.832,Simcolourproject_2stim_asymm_v5,2020.2.10,Win32,60,61025ae37ef11b136ea224fe,,,,,,,,,1678,37,-86,1,0,0,response3disk,,4,0,3,1,0,0,rectangle,0,3,1,0,0,0,3,1,0,0,1,40,200,9,1,,,,,,,,
,,,,,,,,,,,,,FF,,,,,,,,0.7363,,,,,,,,,,,,,,,,,,,,,,60ff488f1b3c9851177efd97,61036cc5ada89aa3a7128e5d,2021-07-29_23h22.44.832,Simcolourproject_2stim_asymm_v5,2020.2.10,Win32,60,61025ae37ef11b136ea224fe,,,,,,,,,324,71,46,1,0,0,response1disk,,6,-5,3,1,0,0,rectangle,-5,3,1,0,0,-5,3,1,0,0,1,41,201,93,1,,,,,,,,
,,,,,,,,,,,,,FF,,,,,,,,1.2043,,,,,,,,,,,,,,,,,,,,,,60ff488f1b3c9851177efd97,61036cc5ada89aa3a7128e5d,2021-07-29_23h22.44.832,Simcolourproject_2stim_asymm_v5,2020.2.10,Win32,60,61025ae37ef11b136ea224fe,,,,,,,,,3024,77,54,1,0,0,response1disk,,6,6,-3,1,0,0,rectangle,6,-3,1,0,0,6,-3,1,0,0,1,42,202,36,1,,,,,,,,
,,,,,,,,,,,,,FF,,,,,,,,1.7736,,,,,,,,,,,,,,,,,,,,,,60ff488f1b3c9851177efd97,61036cc5ada89aa3a7128e5d,2021-07-29_23h22.44.832,Simcolourproject_2stim_asymm_v5,2020.2.10,Win32,60,61025ae37ef11b136ea224fe,,,,,,,,,200,68,50,1,0,0,response1disk,,6,8,1,1,0,0,rectangle,-99,-40,1,0,0,-5,-10,1,0,0,1,43,203,89,1,,response5disk_3,TRUE,2,2,"[131,218,261,110,263,231,92,234,197,243,36,36,228,192,173,150,273,210,204,167]",1.4381,rectangle
,,,,,,,,,,,,,FF,,,,,,,,3.0639,,,,,,,,,,,,,,,,,,,,,,60ff488f1b3c9851177efd97,61036cc5ada89aa3a7128e5d,2021-07-29_23h22.44.832,Simcolourproject_2stim_asymm_v5,2020.2.10,Win32,60,61025ae37ef11b136ea224fe,,,,,,,,,3268,56,23,1,0,0,response1disk,,6,22,3,1,0,0,rectangle,22,3,1,0,0,22,3,1,0,0,1,44,204,2,1,,,,,,,,
,,,,,,,,,,,,,FF,,,,,,,,0.8532,,,,,,,,,,,,,,,,,,,,,,60ff488f1b3c9851177efd97,61036cc5ada89aa3a7128e5d,2021-07-29_23h22.44.832,Simcolourproject_2stim_asymm_v5,2020.2.10,Win32,60,61025ae37ef11b136ea224fe,,,,,,,,,2041,-35,-78,1,0,0,response5disk,,3,11,7,1,0,0,rectangle,11,7,1,0,0,11,7,1,0,0,1,45,205,24,1,,,,,,,,
,,,,,,,,,,,,,FF,,,,,,,,1.1912,,,,,,,,,,,,,,,,,,,,,,60ff488f1b3c9851177efd97,61036cc5ada89aa3a7128e5d,2021-07-29_23h22.44.832,Simcolourproject_2stim_asymm_v5,2020.2.10,Win32,60,61025ae37ef11b136ea224fe,,,,,,,,,2239,28,-83,1,0,0,response3disk,,4,-2,-3,1,0,0,rectangle,-2,-3,1,0,0,-2,-3,1,0,0,1,46,206,129,1,,,,,,,,
,,,,,,,,,,,,,FF,,,,,,,,1.324,,,,,,,,,,,,,,,,,,,,,,60ff488f1b3c9851177efd97,61036cc5ada89aa3a7128e5d,2021-07-29_23h22.44.832,Simcolourproject_2stim_asymm_v5,2020.2.10,Win32,60,61025ae37ef11b136ea224fe,,,,,,,,,3987,73,28,1,0,0,response1disk,,6,17,4,1,0,0,rectangle,17,4,1,0,0,17,4,1,0,0,1,47,207,138,1,,,,,,,,
,,,,,,,,,,,,,FF,,,,,,,,0.8367,,,,,,,,,,,,,,,,,,,,,,60ff488f1b3c9851177efd97,61036cc5ada89aa3a7128e5d,2021-07-29_23h22.44.832,Simcolourproject_2stim_asymm_v5,2020.2.10,Win32,60,61025ae37ef11b136ea224fe,,,,,,,,,496,74,36,1,0,0,response1disk,,6,7,-3,1,0,0,rectangle,7,-3,1,0,0,7,-3,1,0,0,1,48,208,148,1,,,,,,,,
,,,,,,,,,,,,,FF,,,,,,,,1.3384,,,,,,,,,,,,,,,,,,,,,,60ff488f1b3c9851177efd97,61036cc5ada89aa3a7128e5d,2021-07-29_23h22.44.832,Simcolourproject_2stim_asymm_v5,2020.2.10,Win32,60,61025ae37ef11b136ea224fe,,,,,,,,,2241,43,-71,1,0,0,response3disk,,4,8,1,1,0,0,rectangle,64,78,1,0,0,-1,2,1,0,0,1,49,209,22,1,,response1disk_3,TRUE,7,7,"[131,218,261,110,263,231,92,234,197,243,36,36,228,192,173,150,273,210,204,167]",1.7407,rectangle
,,,,,,,,,,,,,FF,,,,,,,,1.8573,,,,,,,,,,,,,,,,,,,,,,60ff488f1b3c9851177efd97,61036cc5ada89aa3a7128e5d,2021-07-29_23h22.44.832,Simcolourproject_2stim_asymm_v5,2020.2.10,Win32,60,61025ae37ef11b136ea224fe,,,,,,,,,3462,-86,-26,1,0,0,response5disk,,2,3,3,1,0,0,rectangle,3,3,1,0,0,3,3,1,0,0,1,50,210,131,1,,,,,,,,
,,,,,,,,,,,,,FF,,,,,,,,0.6688,,,,,,,,,,,,,,,,,,,,,,60ff488f1b3c9851177efd97,61036cc5ada89aa3a7128e5d,2021-07-29_23h22.44.832,Simcolourproject_2stim_asymm_v5,2020.2.10,Win32,60,61025ae37ef11b136ea224fe,,,,,,,,,4094,33,70,1,0,0,response1disk,,7,17,12,1,0,0,rectangle,17,12,1,0,0,17,12,1,0,0,1,51,211,147,1,,,,,,,,
,,,,,,,,,,,,,FF,,,,,,,,1.8399,,,,,,,,,,,,,,,,,,,,,,60ff488f1b3c9851177efd97,61036cc5ada89aa3a7128e5d,2021-07-29_23h22.44.832,Simcolourproject_2stim_asymm_v5,2020.2.10,Win32,60,61025ae37ef11b136ea224fe,,,,,,,,,643,22,-83,1,0,0,response3disk,,4,1,4,1,0,0,rectangle,1,4,1,0,0,1,4,1,0,0,1,52,212,43,1,,,,,,,,
,,,,,,,,,,,,,FF,,,,,,,,1.9073,,,,,,,,,,,,,,,,,,,,,,60ff488f1b3c9851177efd97,61036cc5ada89aa3a7128e5d,2021-07-29_23h22.44.832,Simcolourproject_2stim_asymm_v5,2020.2.10,Win32,60,61025ae37ef11b136ea224fe,,,,,,,,,1580,36,-80,1,0,0,response3disk,,4,15,-10,1,0,0,rectangle,15,-10,1,0,0,15,-10,1,0,0,1,53,213,14,1,,,,,,,,
,,,,,,,,,,,,,FF,,,,,,,,1.1041,,,,,,,,,,,,,,,,,,,,,,60ff488f1b3c9851177efd97,61036cc5ada89aa3a7128e5d,2021-07-29_23h22.44.832,Simcolourproject_2stim_asymm_v5,2020.2.10,Win32,60,61025ae37ef11b136ea224fe,,,,,,,,,3813,-76,-35,1,0,0,response5disk,,2,12,-8,1,0,0,rectangle,12,-8,1,0,0,12,-8,1,0,0,1,54,214,4,1,,,,,,,,
,,,,,,,,,,,,,FF,,,,,,,,2.2256,,,,,,,,,,,,,,,,,,,,,,60ff488f1b3c9851177efd97,61036cc5ada89aa3a7128e5d,2021-07-29_23h22.44.832,Simcolourproject_2stim_asymm_v5,2020.2.10,Win32,60,61025ae37ef11b136ea224fe,,,,,,,,,160,63,33,1,0,0,response1disk,,6,3,0,1,0,0,rectangle,3,0,1,0,0,3,0,1,0,0,1,55,215,63,1,,,,,,,,
,,,,,,,,,,,,,FF,,,,,,,,0.886,,,,,,,,,,,,,,,,,,,,,,60ff488f1b3c9851177efd97,61036cc5ada89aa3a7128e5d,2021-07-29_23h22.44.832,Simcolourproject_2stim_asymm_v5,2020.2.10,Win32,60,61025ae37ef11b136ea224fe,,,,,,,,,499,75,33,1,0,0,response1disk,,6,8,3,1,0,0,rectangle,8,3,1,0,0,8,3,1,0,0,1,56,216,124,1,,,,,,,,
,,,,,,,,,,,,,FF,,,,,,,,1.121,,,,,,,,,,,,,,,,,,,,,,60ff488f1b3c9851177efd97,61036cc5ada89aa3a7128e5d,2021-07-29_23h22.44.832,Simcolourproject_2stim_asymm_v5,2020.2.10,Win32,60,61025ae37ef11b136ea224fe,,,,,,,,,3868,36,69,1,0,0,response1disk,,7,20,-11,1,0,0,rectangle,44,84,1,0,0,16,-4,1,0,0,1,57,217,157,1,,response1disk_3,TRUE,7,7,"[131,218,261,110,263,231,92,234,197,243,36,36,228,192,173,150,273,210,204,167]",1.1043,rectangle
,,,,,,,,,,,,,FF,,,,,,,,0.9226,,,,,,,,,,,,,,,,,,,,,,60ff488f1b3c9851177efd97,61036cc5ada89aa3a7128e5d,2021-07-29_23h22.44.832,Simcolourproject_2stim_asymm_v5,2020.2.10,Win32,60,61025ae37ef11b136ea224fe,,,,,,,,,1655,41,69,1,0,0,response1disk,,7,-13,2,1,0,0,rectangle,-13,2,1,0,0,-13,2,1,0,0,1,58,218,53,1,,,,,,,,
,,,,,,,,,,,,,FF,,,,,,,,1.2219,,,,,,,,,,,,,,,,,,,,,,60ff488f1b3c9851177efd97,61036cc5ada89aa3a7128e5d,2021-07-29_23h22.44.832,Simcolourproject_2stim_asymm_v5,2020.2.10,Win32,60,61025ae37ef11b136ea224fe,,,,,,,,,3309,69,27,1,0,0,response1disk,,6,5,11,1,0,0,rectangle,5,11,1,0,0,5,11,1,0,0,1,59,219,113,1,,,,,,,,
,,,,,,,,,,,,,FF,,,,,,,,0.6367,,,,,,,,,,,,,,,,,,,,,,60ff488f1b3c9851177efd97,61036cc5ada89aa3a7128e5d,2021-07-29_23h22.44.832,Simcolourproject_2stim_asymm_v5,2020.2.10,Win32,60,61025ae37ef11b136ea224fe,,,,,,,,,2321,22,63,1,0,0,response1disk,,7,-13,-4,1,0,0,rectangle,-13,-4,1,0,0,-13,-4,1,0,0,1,60,220,146,1,,,,,,,,
,,,,,,,,,,,,,FF,,,,,,,,1.1542,,,,,,,,,,,,,,,,,,,,,,60ff488f1b3c9851177efd97,61036cc5ada89aa3a7128e5d,2021-07-29_23h22.44.832,Simcolourproject_2stim_asymm_v5,2020.2.10,Win32,60,61025ae37ef11b136ea224fe,,,,,,,,,3007,-60,-39,1,0,0,response5disk,,2,-2,-1,1,0,0,rectangle,-2,-1,1,0,0,-2,-1,1,0,0,1,61,221,133,1,,,,,,,,
,,,,,,,,,,,,,FF,,,,,,,,1.4219,,,,,,,,,,,,,,,,,,,,,,60ff488f1b3c9851177efd97,61036cc5ada89aa3a7128e5d,2021-07-29_23h22.44.832,Simcolourproject_2stim_asymm_v5,2020.2.10,Win32,60,61025ae37ef11b136ea224fe,,,,,,,,,1949,35,-74,1,0,0,response3disk,,4,-6,2,1,0,0,rectangle,-6,2,1,0,0,-6,2,1,0,0,1,62,222,15,1,,,,,,,,
,,,,,,,,,,,,,FF,,,,,,,,0.9544,,,,,,,,,,,,,,,,,,,,,,60ff488f1b3c9851177efd97,61036cc5ada89aa3a7128e5d,2021-07-29_23h22.44.832,Simcolourproject_2stim_asymm_v5,2020.2.10,Win32,60,61025ae37ef11b136ea224fe,,,,,,,,,3386,44,-92,1,0,0,response3disk,,4,-9,3,1,0,0,rectangle,-9,3,1,0,0,-9,3,1,0,0,1,63,223,38,1,,,,,,,,
,,,,,,,,,,,,,FF,,,,,,,,1.3219,,,,,,,,,,,,,,,,,,,,,,60ff488f1b3c9851177efd97,61036cc5ada89aa3a7128e5d,2021-07-29_23h22.44.832,Simcolourproject_2stim_asymm_v5,2020.2.10,Win32,60,61025ae37ef11b136ea224fe,,,,,,,,,3881,40,-73,1,0,0,response3disk,,4,-9,-11,1,0,0,rectangle,-9,-11,1,0,0,-9,-11,1,0,0,1,64,224,135,1,,,,,,,,
,,,,,,,,,,,,,FF,,,,,,,,1.2566,,,,,,,,,,,,,,,,,,,,,,60ff488f1b3c9851177efd97,61036cc5ada89aa3a7128e5d,2021-07-29_23h22.44.832,Simcolourproject_2stim_asymm_v5,2020.2.10,Win32,60,61025ae37ef11b136ea224fe,,,,,,,,,1776,34,72,1,0,0,response1disk,,7,-10,1,1,0,0,rectangle,-10,1,1,0,0,-10,1,1,0,0,1,65,225,114,1,,,,,,,,
,,,,,,,,,,,,,FF,,,,,,,,0.7365,,,,,,,,,,,,,,,,,,,,,,60ff488f1b3c9851177efd97,61036cc5ada89aa3a7128e5d,2021-07-29_23h22.44.832,Simcolourproject_2stim_asymm_v5,2020.2.10,Win32,60,61025ae37ef11b136ea224fe,,,,,,,,,3368,29,65,1,0,0,response1disk,,7,-6,-7,1,0,0,rectangle,-6,-7,1,0,0,-6,-7,1,0,0,1,66,226,58,1,,,,,,,,
,,,,,,,,,,,,,FF,,,,,,,,0.9535,,,,,,,,,,,,,,,,,,,,,,60ff488f1b3c9851177efd97,61036cc5ada89aa3a7128e5d,2021-07-29_23h22.44.832,Simcolourproject_2stim_asymm_v5,2020.2.10,Win32,60,61025ae37ef11b136ea224fe,,,,,,,,,4346,-40,-88,1,0,0,response5disk,,3,-3,1,1,0,0,rectangle,-73,21,1,0,0,3,-11,1,0,0,1,67,227,105,1,,response7disk_3,TRUE,1,1,"[131,218,261,110,263,231,92,234,197,243,36,36,228,192,173,150,273,210,204,167]",1.2377,rectangle
,,,,,,,,,,,,,FF,,,,,,,,0.9202,,,,,,,,,,,,,,,,,,,,,,60ff488f1b3c9851177efd97,61036cc5ada89aa3a7128e5d,2021-07-29_23h22.44.832,Simcolourproject_2stim_asymm_v5,2020.2.10,Win32,60,61025ae37ef11b136ea224fe,,,,,,,,,2780,-30,78,1,0,0,response7disk,,0,1,-8,1,0,0,rectangle,1,-8,1,0,0,1,-8,1,0,0,1,68,228,30,1,,,,,,,,
,,,,,,,,,,,,,FF,,,,,,,,2.7601,,,,,,,,,,,,,,,,,,,,,,60ff488f1b3c9851177efd97,61036cc5ada89aa3a7128e5d,2021-07-29_23h22.44.832,Simcolourproject_2stim_asymm_v5,2020.2.10,Win32,60,61025ae37ef11b136ea224fe,,,,,,,,,692,74,36,1,0,0,response1disk,,6,-9,-6,1,0,0,rectangle,-9,-6,1,0,0,-9,-6,1,0,0,1,69,229,79,1,,,,,,,,
,,,,,,,,,,,,,FF,,,,,,,,0.8196,,,,,,,,,,,,,,,,,,,,,,60ff488f1b3c9851177efd97,61036cc5ada89aa3a7128e5d,2021-07-29_23h22.44.832,Simcolourproject_2stim_asymm_v5,2020.2.10,Win32,60,61025ae37ef11b136ea224fe,,,,,,,,,1511,34,69,1,0,0,response1disk,,7,6,-2,1,0,0,rectangle,42,69,1,0,0,2,-12,1,0,0,1,70,230,86,1,,response1disk_3,TRUE,7,7,"[131,218,261,110,263,231,92,234,197,243,36,36,228,192,173,150,273,210,204,167]",1.0711,rectangle
,,,,,,,,,,,,,FF,,,,,,,,0.9219,,,,,,,,,,,,,,,,,,,,,,60ff488f1b3c9851177efd97,61036cc5ada89aa3a7128e5d,2021-07-29_23h22.44.832,Simcolourproject_2stim_asymm_v5,2020.2.10,Win32,60,61025ae37ef11b136ea224fe,,,,,,,,,1008,76,38,1,0,0,response1disk,,6,10,-6,1,0,0,rectangle,10,-6,1,0,0,10,-6,1,0,0,1,71,231,80,1,,,,,,,,
,,,,,,,,,,,,,FF,,,,,,,,2.8271,,,,,,,,,,,,,,,,,,,,,,60ff488f1b3c9851177efd97,61036cc5ada89aa3a7128e5d,2021-07-29_23h22.44.832,Simcolourproject_2stim_asymm_v5,2020.2.10,Win32,60,61025ae37ef11b136ea224fe,,,,,,,,,3394,24,-64,1,0,0,response3disk,,4,-7,-2,1,0,0,rectangle,-7,-2,1,0,0,-7,-2,1,0,0,1,72,232,123,1,,,,,,,,
,,,,,,,,,,,,,FF,,,,,,,,0.8413,,,,,,,,,,,,,,,,,,,,,,60ff488f1b3c9851177efd97,61036cc5ada89aa3a7128e5d,2021-07-29_23h22.44.832,Simcolourproject_2stim_asymm_v5,2020.2.10,Win32,60,61025ae37ef11b136ea224fe,,,,,,,,,1767,59,38,1,0,0,response1disk,,6,-13,-3,1,0,0,rectangle,60,-30,1,0,0,0,0,1,0,0,1,73,233,49,1,,response3disk_3,TRUE,5,5,"[131,218,261,110,263,231,92,234,197,243,36,36,228,192,173,150,273,210,204,167]",1.2705,rectangle
,,,,,,,,,,,,,FF,,,,,,,,1.9068,,,,,,,,,,,,,,,,,,,,,,60ff488f1b3c9851177efd97,61036cc5ada89aa3a7128e5d,2021-07-29_23h22.44.832,Simcolourproject_2stim_asymm_v5,2020.2.10,Win32,60,61025ae37ef11b136ea224fe,,,,,,,,,2488,39,-78,1,0,0,response3disk,,4,12,-15,1,0,0,rectangle,12,-15,1,0,0,12,-15,1,0,0,1,74,234,100,1,,,,,,,,
,,,,,,,,,,,,,FF,,,,,,,,0.8871,,,,,,,,,,,,,,,,,,,,,,60ff488f1b3c9851177efd97,61036cc5ada89aa3a7128e5d,2021-07-29_23h22.44.832,Simcolourproject_2stim_asymm_v5,2020.2.10,Win32,60,61025ae37ef11b136ea224fe,,,,,,,,,903,38,70,1,0,0,response1disk,,7,-20,-5,1,0,0,rectangle,-20,-5,1,0,0,-20,-5,1,0,0,1,75,235,44,1,,,,,,,,
,,,,,,,,,,,,,FF,,,,,,,,1.7398,,,,,,,,,,,,,,,,,,,,,,60ff488f1b3c9851177efd97,61036cc5ada89aa3a7128e5d,2021-07-29_23h22.44.832,Simcolourproject_2stim_asymm_v5,2020.2.10,Win32,60,61025ae37ef11b136ea224fe,,,,,,,,,642,53,-29,1,0,0,response3disk,,5,5,-3,1,0,0,rectangle,5,-3,1,0,0,5,-3,1,0,0,1,76,236,20,1,,,,,,,,
,,,,,,,,,,,,,FF,,,,,,,,0.8363,,,,,,,,,,,,,,,,,,,,,,60ff488f1b3c9851177efd97,61036cc5ada89aa3a7128e5d,2021-07-29_23h22.44.832,Simcolourproject_2stim_asymm_v5,2020.2.10,Win32,60,61025ae37ef11b136ea224fe,,,,,,,,,2982,47,83,1,0,0,response1disk,,7,-6,3,1,0,0,rectangle,-6,3,1,0,0,-6,3,1,0,0,1,77,237,13,1,,,,,,,,
,,,,,,,,,,,,,FF,,,,,,,,1.7239,,,,,,,,,,,,,,,,,,,,,,60ff488f1b3c9851177efd97,61036cc5ada89aa3a7128e5d,2021-07-29_23h22.44.832,Simcolourproject_2stim_asymm_v5,2020.2.10,Win32,60,61025ae37ef11b136ea224fe,,,,,,,,,2289,50,39,1,0,0,response1disk,,6,6,3,1,0,0,rectangle,6,3,1,0,0,6,3,1,0,0,1,78,238,27,1,,,,,,,,
,,,,,,,,,,,,,FF,,,,,,,,0.9706,,,,,,,,,,,,,,,,,,,,,,60ff488f1b3c9851177efd97,61036cc5ada89aa3a7128e5d,2021-07-29_23h22.44.832,Simcolourproject_2stim_asymm_v5,2020.2.10,Win32,60,61025ae37ef11b136ea224fe,,,,,,,,,680,44,84,1,0,0,response1disk,,7,13,0,1,0,0,rectangle,13,0,1,0,0,13,0,1,0,0,1,79,239,143,1,,,,,,,,
,,,,,,,,,,,,,FF,,,,,,,,1.5562,,,,,,,,,,,,,,,,,,,,,,60ff488f1b3c9851177efd97,61036cc5ada89aa3a7128e5d,2021-07-29_23h22.44.832,Simcolourproject_2stim_asymm_v5,2020.2.10,Win32,60,61025ae37ef11b136ea224fe,,,,,,,,,3736,39,-76,1,0,0,response3disk,,4,20,5,1,0,0,rectangle,20,5,1,0,0,20,5,1,0,0,1,80,240,83,1,,,,,,,,
,,,,,,,,,,,,,FF,,,,,,,,0.8375,,,,,,,,,,,,,,,,,,,,,,60ff488f1b3c9851177efd97,61036cc5ada89aa3a7128e5d,2021-07-29_23h22.44.832,Simcolourproject_2stim_asymm_v5,2020.2.10,Win32,60,61025ae37ef11b136ea224fe,,,,,,,,,1336,24,68,1,0,0,response1disk,,7,15,3,1,0,0,rectangle,15,3,1,0,0,15,3,1,0,0,1,81,241,68,1,,,,,,,,
,,,,,,,,,,,,,FF,,,,,,,,1.8909,,,,,,,,,,,,,,,,,,,,,,60ff488f1b3c9851177efd97,61036cc5ada89aa3a7128e5d,2021-07-29_23h22.44.832,Simcolourproject_2stim_asymm_v5,2020.2.10,Win32,60,61025ae37ef11b136ea224fe,,,,,,,,,1179,42,62,1,0,0,response1disk,,7,-6,-2,1,0,0,rectangle,71,23,1,0,0,17,3,1,0,0,1,82,242,60,1,,response1disk_3,TRUE,6,6,"[131,218,261,110,263,231,92,234,197,243,36,36,228,192,173,150,273,210,204,167]",1.5052,rectangle
,,,,,,,,,,,,,FF,,,,,,,,0.7861,,,,,,,,,,,,,,,,,,,,,,60ff488f1b3c9851177efd97,61036cc5ada89aa3a7128e5d,2021-07-29_23h22.44.832,Simcolourproject_2stim_asymm_v5,2020.2.10,Win32,60,61025ae37ef11b136ea224fe,,,,,,,,,3281,35,79,1,0,0,response1disk,,7,21,12,1,0,0,rectangle,21,12,1,0,0,21,12,1,0,0,1,83,243,52,1,,,,,,,,
,,,,,,,,,,,,,FF,,,,,,,,1.2708,,,,,,,,,,,,,,,,,,,,,,60ff488f1b3c9851177efd97,61036cc5ada89aa3a7128e5d,2021-07-29_23h22.44.832,Simcolourproject_2stim_asymm_v5,2020.2.10,Win32,60,61025ae37ef11b136ea224fe,,,,,,,,,463,46,-59,1,0,0,response3disk,,4,3,-12,1,0,0,rectangle,3,-12,1,0,0,3,-12,1,0,0,1,84,244,128,1,,,,,,,,
,,,,,,,,,,,,,FF,,,,,,,,1.0533,,,,,,,,,,,,,,,,,,,,,,60ff488f1b3c9851177efd97,61036cc5ada89aa3a7128e5d,2021-07-29_23h22.44.832,Simcolourproject_2stim_asymm_v5,2020.2.10,Win32,60,61025ae37ef11b136ea224fe,,,,,,,,,337,46,87,1,0,0,response1disk,,7,13,-7,1,0,0,rectangle,13,-7,1,0,0,13,-7,1,0,0,1,85,245,76,1,,,,,,,,
,,,,,,,,,,,,,FF,,,,,,,,1.8398,,,,,,,,,,,,,,,,,,,,,,60ff488f1b3c9851177efd97,61036cc5ada89aa3a7128e5d,2021-07-29_23h22.44.832,Simcolourproject_2stim_asymm_v5,2020.2.10,Win32,60,61025ae37ef11b136ea224fe,,,,,,,,,2740,44,83,1,0,0,response1disk,,7,1,3,1,0,0,rectangle,1,3,1,0,0,1,3,1,0,0,1,86,246,154,1,,,,,,,,
,,,,,,,,,,,,,FF,,,,,,,,1.3054,,,,,,,,,,,,,,,,,,,,,,60ff488f1b3c9851177efd97,61036cc5ada89aa3a7128e5d,2021-07-29_23h22.44.832,Simcolourproject_2stim_asymm_v5,2020.2.10,Win32,60,61025ae37ef11b136ea224fe,,,,,,,,,1196,88,34,1,0,0,response1disk,,6,3,2,1,0,0,rectangle,3,2,1,0,0,3,2,1,0,0,1,87,247,28,1,,,,,,,,
,,,,,,,,,,,,,FF,,,,,,,,0.8214,,,,,,,,,,,,,,,,,,,,,,60ff488f1b3c9851177efd97,61036cc5ada89aa3a7128e5d,2021-07-29_23h22.44.832,Simcolourproject_2stim_asymm_v5,2020.2.10,Win32,60,61025ae37ef11b136ea224fe,,,,,,,,,804,27,-52,1,0,0,response3disk,,4,6,4,1,0,0,rectangle,6,4,1,0,0,6,4,1,0,0,1,88,248,117,1,,,,,,,,
,,,,,,,,,,,,,FF,,,,,,,,0.5857,,,,,,,,,,,,,,,,,,,,,,60ff488f1b3c9851177efd97,61036cc5ada89aa3a7128e5d,2021-07-29_23h22.44.832,Simcolourproject_2stim_asymm_v5,2020.2.10,Win32,60,61025ae37ef11b136ea224fe,,,,,,,,,4146,34,-62,1,0,0,response3disk,,4,-13,-3,1,0,0,rectangle,-13,-3,1,0,0,-13,-3,1,0,0,1,89,249,134,1,,,,,,,,
,,,,,,,,,,,,,FF,,,,,,,,2.4917,,,,,,,,,,,,,,,,,,,,,,60ff488f1b3c9851177efd97,61036cc5ada89aa3a7128e5d,2021-07-29_23h22.44.832,Simcolourproject_2stim_asymm_v5,2020.2.10,Win32,60,61025ae37ef11b136ea224fe,,,,,,,,,468,85,-27,1,0,0,response3disk,,5,7,12,1,0,0,rectangle,7,12,1,0,0,7,12,1,0,0,1,90,250,35,1,,,,,,,,
,,,,,,,,,,,,,FF,,,,,,,,0.9201,,,,,,,,,,,,,,,,,,,,,,60ff488f1b3c9851177efd97,61036cc5ada89aa3a7128e5d,2021-07-29_23h22.44.832,Simcolourproject_2stim_asymm_v5,2020.2.10,Win32,60,61025ae37ef11b136ea224fe,,,,,,,,,2021,44,75,1,0,0,response1disk,,7,-7,-4,1,0,0,rectangle,-7,-4,1,0,0,-7,-4,1,0,0,1,91,251,126,1,,,,,,,,
,,,,,,,,,,,,,FF,,,,,,,,2.4595,,,,,,,,,,,,,,,,,,,,,,60ff488f1b3c9851177efd97,61036cc5ada89aa3a7128e5d,2021-07-29_23h22.44.832,Simcolourproject_2stim_asymm_v5,2020.2.10,Win32,60,61025ae37ef11b136ea224fe,,,,,,,,,1974,33,57,1,0,0,response1disk,,7,14,3,1,0,0,rectangle,14,3,1,0,0,14,3,1,0,0,1,92,252,77,1,,,,,,,,
,,,,,,,,,,,,,FF,,,,,,,,1.9067,,,,,,,,,,,,,,,,,,,,,,60ff488f1b3c9851177efd97,61036cc5ada89aa3a7128e5d,2021-07-29_23h22.44.832,Simcolourproject_2stim_asymm_v5,2020.2.10,Win32,60,61025ae37ef11b136ea224fe,,,,,,,,,2369,24,-89,1,0,0,response3disk,,4,6,-2,1,0,0,rectangle,6,-2,1,0,0,6,-2,1,0,0,1,93,253,112,1,,,,,,,,
,,,,,,,,,,,,,FF,,,,,,,,0.6188,,,,,,,,,,,,,,,,,,,,,,60ff488f1b3c9851177efd97,61036cc5ada89aa3a7128e5d,2021-07-29_23h22.44.832,Simcolourproject_2stim_asymm_v5,2020.2.10,Win32,60,61025ae37ef11b136ea224fe,,,,,,,,,1281,26,78,1,0,0,response1disk,,7,-1,-8,1,0,0,rectangle,-1,-8,1,0,0,-1,-8,1,0,0,1,94,254,69,1,,,,,,,,
,,,,,,,,,,,,,FF,,,,,,,,1.8408,,,,,,,,,,,,,,,,,,,,,,60ff488f1b3c9851177efd97,61036cc5ada89aa3a7128e5d,2021-07-29_23h22.44.832,Simcolourproject_2stim_asymm_v5,2020.2.10,Win32,60,61025ae37ef11b136ea224fe,,,,,,,,,1672,44,-65,1,0,0,response3disk,,4,3,3,1,0,0,rectangle,3,3,1,0,0,3,3,1,0,0,1,95,255,42,1,,,,,,,,
,,,,,,,,,,,,,FF,,,,,,,,0.7861,,,,,,,,,,,,,,,,,,,,,,60ff488f1b3c9851177efd97,61036cc5ada89aa3a7128e5d,2021-07-29_23h22.44.832,Simcolourproject_2stim_asymm_v5,2020.2.10,Win32,60,61025ae37ef11b136ea224fe,,,,,,,,,503,20,79,1,0,0,response1disk,,7,5,-4,1,0,0,rectangle,5,-4,1,0,0,5,-4,1,0,0,1,96,256,47,1,,,,,,,,
,,,,,,,,,,,,,FF,,,,,,,,0.669,,,,,,,,,,,,,,,,,,,,,,60ff488f1b3c9851177efd97,61036cc5ada89aa3a7128e5d,2021-07-29_23h22.44.832,Simcolourproject_2stim_asymm_v5,2020.2.10,Win32,60,61025ae37ef11b136ea224fe,,,,,,,,,2628,41,89,1,0,0,response1disk,,7,1,-5,1,0,0,rectangle,1,-5,1,0,0,1,-5,1,0,0,1,97,257,48,1,,,,,,,,
,,,,,,,,,,,,,FF,,,,,,,,0.9364,,,,,,,,,,,,,,,,,,,,,,60ff488f1b3c9851177efd97,61036cc5ada89aa3a7128e5d,2021-07-29_23h22.44.832,Simcolourproject_2stim_asymm_v5,2020.2.10,Win32,60,61025ae37ef11b136ea224fe,,,,,,,,,1004,35,52,1,0,0,response1disk,,7,5,3,1,0,0,rectangle,5,3,1,0,0,5,3,1,0,0,1,98,258,120,1,,,,,,,,
,,,,,,,,,,,,,FF,,,,,,,,1.1377,,,,,,,,,,,,,,,,,,,,,,60ff488f1b3c9851177efd97,61036cc5ada89aa3a7128e5d,2021-07-29_23h22.44.832,Simcolourproject_2stim_asymm_v5,2020.2.10,Win32,60,61025ae37ef11b136ea224fe,,,,,,,,,2068,31,61,1,0,0,response1disk,,7,15,4,1,0,0,rectangle,15,4,1,0,0,15,4,1,0,0,1,99,259,21,1,,,,,,,,
,,,,,,,,,,,,,FF,,,,,,,,4.1841,,,,,,,,,,,,,,,,,,,,,,60ff488f1b3c9851177efd97,61036cc5ada89aa3a7128e5d,2021-07-29_23h22.44.832,Simcolourproject_2stim_asymm_v5,2020.2.10,Win32,60,61025ae37ef11b136ea224fe,,,,,,,,,148,93,45,1,0,0,response1disk,,6,10,13,1,0,0,rectangle,78,41,1,0,0,17,-4,1,0,0,1,100,260,144,1,,response1disk_3,TRUE,6,6,"[131,218,261,110,263,231,92,234,197,243,36,36,228,192,173,150,273,210,204,167]",1.1538,rectangle
,,,,,,,,,,,,,FF,,,,,,,,4.7365,,,,,,,,,,,,,,,,,,,,,,60ff488f1b3c9851177efd97,61036cc5ada89aa3a7128e5d,2021-07-29_23h22.44.832,Simcolourproject_2stim_asymm_v5,2020.2.10,Win32,60,61025ae37ef11b136ea224fe,,,,,,,,,3645,52,48,1,0,0,response1disk,,6,-6,-2,1,0,0,rectangle,-6,-2,1,0,0,-6,-2,1,0,0,1,101,261,10,1,,,,,,,,
,,,,,,,,,,,,,FF,,,,,,,,0.9367,,,,,,,,,,,,,,,,,,,,,,60ff488f1b3c9851177efd97,61036cc5ada89aa3a7128e5d,2021-07-29_23h22.44.832,Simcolourproject_2stim_asymm_v5,2020.2.10,Win32,60,61025ae37ef11b136ea224fe,,,,,,,,,693,-51,-95,1,0,0,response5disk,,3,-7,-6,1,0,0,rectangle,72,-46,1,0,0,1,0,1,0,0,1,102,262,99,1,,response3disk_3,TRUE,5,5,"[131,218,261,110,263,231,92,234,197,243,36,36,228,192,173,150,273,210,204,167]",1.4047,rectangle
,,,,,,,,,,,,,FF,,,,,,,,1.4386,,,,,,,,,,,,,,,,,,,,,,60ff488f1b3c9851177efd97,61036cc5ada89aa3a7128e5d,2021-07-29_23h22.44.832,Simcolourproject_2stim_asymm_v5,2020.2.10,Win32,60,61025ae37ef11b136ea224fe,,,,,,,,,4267,55,-86,1,0,0,response3disk,,4,-4,1,1,0,0,rectangle,-4,1,1,0,0,-4,1,1,0,0,1,103,263,5,1,,,,,,,,
,,,,,,,,,,,,,FF,,,,,,,,1.8067,,,,,,,,,,,,,,,,,,,,,,60ff488f1b3c9851177efd97,61036cc5ada89aa3a7128e5d,2021-07-29_23h22.44.832,Simcolourproject_2stim_asymm_v5,2020.2.10,Win32,60,61025ae37ef11b136ea224fe,,,,,,,,,2372,28,-77,1,0,0,response3disk,,4,-15,6,1,0,0,rectangle,-15,6,1,0,0,-15,6,1,0,0,1,104,264,73,1,,,,,,,,
,,,,,,,,,,,,,FF,,,,,,,,0.8548,,,,,,,,,,,,,,,,,,,,,,60ff488f1b3c9851177efd97,61036cc5ada89aa3a7128e5d,2021-07-29_23h22.44.832,Simcolourproject_2stim_asymm_v5,2020.2.10,Win32,60,61025ae37ef11b136ea224fe,,,,,,,,,1405,57,53,1,0,0,response1disk,,6,-2,3,1,0,0,rectangle,-2,3,1,0,0,-2,3,1,0,0,1,105,265,7,1,,,,,,,,
,,,,,,,,,,,,,FF,,,,,,,,1.155,,,,,,,,,,,,,,,,,,,,,,60ff488f1b3c9851177efd97,61036cc5ada89aa3a7128e5d,2021-07-29_23h22.44.832,Simcolourproject_2stim_asymm_v5,2020.2.10,Win32,60,61025ae37ef11b136ea224fe,,,,,,,,,662,73,19,1,0,0,response1disk,,6,0,-4,1,0,0,rectangle,0,-4,1,0,0,0,-4,1,0,0,1,106,266,85,1,,,,,,,,
,,,,,,,,,,,,,FF,,,,,,,,1.4892,,,,,,,,,,,,,,,,,,,,,,60ff488f1b3c9851177efd97,61036cc5ada89aa3a7128e5d,2021-07-29_23h22.44.832,Simcolourproject_2stim_asymm_v5,2020.2.10,Win32,60,61025ae37ef11b136ea224fe,,,,,,,,,3889,29,-75,1,0,0,response3disk,,4,-12,1,1,0,0,rectangle,-12,1,1,0,0,-12,1,1,0,0,1,107,267,101,1,,,,,,,,
,,,,,,,,,,,,,FF,,,,,,,,1.1482,,,,,,,,,,,,,,,,,,,,,,60ff488f1b3c9851177efd97,61036cc5ada89aa3a7128e5d,2021-07-29_23h22.44.832,Simcolourproject_2stim_asymm_v5,2020.2.10,Win32,60,61025ae37ef11b136ea224fe,,,,,,,,,3077,54,20,1,0,0,response1disk,,6,-11,-7,1,0,0,rectangle,-11,-7,1,0,0,-11,-7,1,0,0,1,108,268,23,1,,,,,,,,
,,,,,,,,,,,,,FF,,,,,,,,2.4087,,,,,,,,,,,,,,,,,,,,,,60ff488f1b3c9851177efd97,61036cc5ada89aa3a7128e5d,2021-07-29_23h22.44.832,Simcolourproject_2stim_asymm_v5,2020.2.10,Win32,60,61025ae37ef11b136ea224fe,,,,,,,,,1812,70,-49,1,0,0,response3disk,,5,19,4,1,0,0,rectangle,19,4,1,0,0,19,4,1,0,0,1,109,269,92,1,,,,,,,,
,,,,,,,,,,,,,FF,,,,,,,,1.1708,,,,,,,,,,,,,,,,,,,,,,60ff488f1b3c9851177efd97,61036cc5ada89aa3a7128e5d,2021-07-29_23h22.44.832,Simcolourproject_2stim_asymm_v5,2020.2.10,Win32,60,61025ae37ef11b136ea224fe,,,,,,,,,3390,-50,80,1,0,0,response7disk,,0,0,-2,1,0,0,rectangle,0,-2,1,0,0,0,-2,1,0,0,1,110,270,150,1,,,,,,,,
,,,,,,,,,,,,,FF,,,,,,,,2.7938,,,,,,,,,,,,,,,,,,,,,,60ff488f1b3c9851177efd97,61036cc5ada89aa3a7128e5d,2021-07-29_23h22.44.832,Simcolourproject_2stim_asymm_v5,2020.2.10,Win32,60,61025ae37ef11b136ea224fe,,,,,,,,,4018,63,27,1,0,0,response1disk,,6,11,-2,1,0,0,rectangle,11,-2,1,0,0,11,-2,1,0,0,1,111,271,115,1,,,,,,,,
,,,,,,,,,,,,,FF,,,,,,,,0.7361,,,,,,,,,,,,,,,,,,,,,,60ff488f1b3c9851177efd97,61036cc5ada89aa3a7128e5d,2021-07-29_23h22.44.832,Simcolourproject_2stim_asymm_v5,2020.2.10,Win32,60,61025ae37ef11b136ea224fe,,,,,,,,,2271,29,56,1,0,0,response1disk,,7,2,3,1,0,0,rectangle,43,72,1,0,0,9,1,1,0,0,1,112,272,46,1,,response1disk_3,TRUE,7,7,"[131,218,261,110,263,231,92,234,197,243,36,36,228,192,173,150,273,210,204,167]",1.0704,rectangle
,,,,,,,,,,,,,FF,,,,,,,,1.4047,,,,,,,,,,,,,,,,,,,,,,60ff488f1b3c9851177efd97,61036cc5ada89aa3a7128e5d,2021-07-29_23h22.44.832,Simcolourproject_2stim_asymm_v5,2020.2.10,Win32,60,61025ae37ef11b136ea224fe,,,,,,,,,3805,43,48,1,0,0,response1disk,,7,14,-7,1,0,0,rectangle,14,-7,1,0,0,14,-7,1,0,0,1,113,273,29,1,,,,,,,,
,,,,,,,,,,,,,FF,,,,,,,,2.1588,,,,,,,,,,,,,,,,,,,,,,60ff488f1b3c9851177efd97,61036cc5ada89aa3a7128e5d,2021-07-29_23h22.44.832,Simcolourproject_2stim_asymm_v5,2020.2.10,Win32,60,61025ae37ef11b136ea224fe,,,,,,,,,515,68,-30,1,0,0,response3disk,,5,15,-2,1,0,0,rectangle,15,-2,1,0,0,15,-2,1,0,0,1,114,274,55,1,,,,,,,,
,,,,,,,,,,,,,FF,,,,,,,,1.0889,,,,,,,,,,,,,,,,,,,,,,60ff488f1b3c9851177efd97,61036cc5ada89aa3a7128e5d,2021-07-29_23h22.44.832,Simcolourproject_2stim_asymm_v5,2020.2.10,Win32,60,61025ae37ef11b136ea224fe,,,,,,,,,2435,47,-21,1,0,0,response3disk,,5,-1,4,1,0,0,rectangle,-1,4,1,0,0,-1,4,1,0,0,1,115,275,16,1,,,,,,,,
,,,,,,,,,,,,,FF,,,,,,,,3.3955,,,,,,,,,,,,,,,,,,,,,,60ff488f1b3c9851177efd97,61036cc5ada89aa3a7128e5d,2021-07-29_23h22.44.832,Simcolourproject_2stim_asymm_v5,2020.2.10,Win32,60,61025ae37ef11b136ea224fe,,,,,,,,,2803,60,32,1,0,0,response1disk,,6,-7,12,1,0,0,rectangle,-7,12,1,0,0,-7,12,1,0,0,1,116,276,65,1,,,,,,,,
,,,,,,,,,,,,,FF,,,,,,,,1.189,,,,,,,,,,,,,,,,,,,,,,60ff488f1b3c9851177efd97,61036cc5ada89aa3a7128e5d,2021-07-29_23h22.44.832,Simcolourproject_2stim_asymm_v5,2020.2.10,Win32,60,61025ae37ef11b136ea224fe,,,,,,,,,2086,41,-66,1,0,0,response3disk,,4,-4,-1,1,0,0,rectangle,-4,-1,1,0,0,-4,-1,1,0,0,1,117,277,127,1,,,,,,,,
,,,,,,,,,,,,,FF,,,,,,,,1.8737,,,,,,,,,,,,,,,,,,,,,,60ff488f1b3c9851177efd97,61036cc5ada89aa3a7128e5d,2021-07-29_23h22.44.832,Simcolourproject_2stim_asymm_v5,2020.2.10,Win32,60,61025ae37ef11b136ea224fe,,,,,,,,,2808,58,23,1,0,0,response1disk,,6,8,6,1,0,0,rectangle,8,6,1,0,0,8,6,1,0,0,1,118,278,110,1,,,,,,,,
,,,,,,,,,,,,,FF,,,,,,,,2.8449,,,,,,,,,,,,,,,,,,,,,,60ff488f1b3c9851177efd97,61036cc5ada89aa3a7128e5d,2021-07-29_23h22.44.832,Simcolourproject_2stim_asymm_v5,2020.2.10,Win32,60,61025ae37ef11b136ea224fe,,,,,,,,,2170,47,-69,1,0,0,response3disk,,4,8,2,1,0,0,rectangle,8,2,1,0,0,8,2,1,0,0,1,119,279,75,1,,,,,,,,
,,,,,,,,,,,,,FF,,,,,,,,5.3864,,,,,,,,,,,,,,,,,,,,,,60ff488f1b3c9851177efd97,61036cc5ada89aa3a7128e5d,2021-07-29_23h22.44.832,Simcolourproject_2stim_asymm_v5,2020.2.10,Win32,60,61025ae37ef11b136ea224fe,,,,,,,,,2339,70,23,1,0,0,response1disk,,6,21,11,1,0,0,rectangle,21,11,1,0,0,21,11,1,0,0,1,120,280,132,1,,,,,,,,
,,,,,,,,,,,,,FF,,,,,,,,0.8702,,,,,,,,,,,,,,,,,,,,,,60ff488f1b3c9851177efd97,61036cc5ada89aa3a7128e5d,2021-07-29_23h22.44.832,Simcolourproject_2stim_asymm_v5,2020.2.10,Win32,60,61025ae37ef11b136ea224fe,,,,,,,,,3735,24,67,1,0,0,response1disk,,7,1,3,1,0,0,rectangle,1,3,1,0,0,1,3,1,0,0,1,121,281,70,1,,,,,,,,
,,,,,,,,,,,,,FF,,,,,,,,1.5734,,,,,,,,,,,,,,,,,,,,,,60ff488f1b3c9851177efd97,61036cc5ada89aa3a7128e5d,2021-07-29_23h22.44.832,Simcolourproject_2stim_asymm_v5,2020.2.10,Win32,60,61025ae37ef11b136ea224fe,,,,,,,,,1505,86,-28,1,0,0,response3disk,,5,28,-2,1,0,0,rectangle,28,-2,1,0,0,28,-2,1,0,0,1,122,282,139,1,,,,,,,,
,,,,,,,,,,,,,FF,,,,,,,,1.2548,,,,,,,,,,,,,,,,,,,,,,60ff488f1b3c9851177efd97,61036cc5ada89aa3a7128e5d,2021-07-29_23h22.44.832,Simcolourproject_2stim_asymm_v5,2020.2.10,Win32,60,61025ae37ef11b136ea224fe,,,,,,,,,3882,-31,67,1,0,0,response7disk,,0,3,-7,1,0,0,rectangle,3,-7,1,0,0,3,-7,1,0,0,1,123,283,56,1,,,,,,,,
,,,,,,,,,,,,,FF,,,,,,,,0.7697,,,,,,,,,,,,,,,,,,,,,,60ff488f1b3c9851177efd97,61036cc5ada89aa3a7128e5d,2021-07-29_23h22.44.832,Simcolourproject_2stim_asymm_v5,2020.2.10,Win32,60,61025ae37ef11b136ea224fe,,,,,,,,,1296,-34,81,1,0,0,response7disk,,0,10,-9,1,0,0,rectangle,10,-9,1,0,0,10,-9,1,0,0,1,124,284,145,1,,,,,,,,
,,,,,,,,,,,,,FF,,,,,,,,2.0575,,,,,,,,,,,,,,,,,,,,,,60ff488f1b3c9851177efd97,61036cc5ada89aa3a7128e5d,2021-07-29_23h22.44.832,Simcolourproject_2stim_asymm_v5,2020.2.10,Win32,60,61025ae37ef11b136ea224fe,,,,,,,,,3240,45,67,1,0,0,response1disk,,7,18,4,1,0,0,rectangle,18,4,1,0,0,18,4,1,0,0,1,125,285,96,1,,,,,,,,
,,,,,,,,,,,,,FF,,,,,,,,0.8194,,,,,,,,,,,,,,,,,,,,,,60ff488f1b3c9851177efd97,61036cc5ada89aa3a7128e5d,2021-07-29_23h22.44.832,Simcolourproject_2stim_asymm_v5,2020.2.10,Win32,60,61025ae37ef11b136ea224fe,,,,,,,,,3362,26,68,1,0,0,response1disk,,7,14,-2,1,0,0,rectangle,14,-2,1,0,0,14,-2,1,0,0,1,126,286,1,1,,,,,,,,
,,,,,,,,,,,,,FF,,,,,,,,0.6533,,,,,,,,,,,,,,,,,,,,,,60ff488f1b3c9851177efd97,61036cc5ada89aa3a7128e5d,2021-07-29_23h22.44.832,Simcolourproject_2stim_asymm_v5,2020.2.10,Win32,60,61025ae37ef11b136ea224fe,,,,,,,,,3810,-42,88,1,0,0,response7disk,,0,-7,0,1,0,0,rectangle,-7,0,1,0,0,-7,0,1,0,0,1,127,287,130,1,,,,,,,,
,,,,,,,,,,,,,FF,,,,,,,,1.2189,,,,,,,,,,,,,,,,,,,,,,60ff488f1b3c9851177efd97,61036cc5ada89aa3a7128e5d,2021-07-29_23h22.44.832,Simcolourproject_2stim_asymm_v5,2020.2.10,Win32,60,61025ae37ef11b136ea224fe,,,,,,,,,564,39,-75,1,0,0,response3disk,,4,5,-6,1,0,0,rectangle,5,-6,1,0,0,5,-6,1,0,0,1,128,288,84,1,,,,,,,,
,,,,,,,,,,,,,FF,,,,,,,,1.5057,,,,,,,,,,,,,,,,,,,,,,60ff488f1b3c9851177efd97,61036cc5ada89aa3a7128e5d,2021-07-29_23h22.44.832,Simcolourproject_2stim_asymm_v5,2020.2.10,Win32,60,61025ae37ef11b136ea224fe,,,,,,,,,332,36,72,1,0,0,response1disk,,7,9,0,1,0,0,rectangle,9,0,1,0,0,9,0,1,0,0,1,129,289,31,1,,,,,,,,
,,,,,,,,,,,,,FF,,,,,,,,1.0369,,,,,,,,,,,,,,,,,,,,,,60ff488f1b3c9851177efd97,61036cc5ada89aa3a7128e5d,2021-07-29_23h22.44.832,Simcolourproject_2stim_asymm_v5,2020.2.10,Win32,60,61025ae37ef11b136ea224fe,,,,,,,,,57,34,79,1,0,0,response1disk,,7,-2,4,1,0,0,rectangle,-2,4,1,0,0,-2,4,1,0,0,1,130,290,155,1,,,,,,,,
,,,,,,,,,,,,,FF,,,,,,,,1.4551,,,,,,,,,,,,,,,,,,,,,,60ff488f1b3c9851177efd97,61036cc5ada89aa3a7128e5d,2021-07-29_23h22.44.832,Simcolourproject_2stim_asymm_v5,2020.2.10,Win32,60,61025ae37ef11b136ea224fe,,,,,,,,,2229,22,-78,1,0,0,response3disk,,4,-7,-13,1,0,0,rectangle,-7,-13,1,0,0,-7,-13,1,0,0,1,131,291,54,1,,,,,,,,
,,,,,,,,,,,,,FF,,,,,,,,0.8886,,,,,,,,,,,,,,,,,,,,,,60ff488f1b3c9851177efd97,61036cc5ada89aa3a7128e5d,2021-07-29_23h22.44.832,Simcolourproject_2stim_asymm_v5,2020.2.10,Win32,60,61025ae37ef11b136ea224fe,,,,,,,,,158,26,39,1,0,0,response1disk,,7,11,3,1,0,0,rectangle,11,3,1,0,0,11,3,1,0,0,1,132,292,159,1,,,,,,,,
,,,,,,,,,,,,,FF,,,,,,,,0.752,,,,,,,,,,,,,,,,,,,,,,60ff488f1b3c9851177efd97,61036cc5ada89aa3a7128e5d,2021-07-29_23h22.44.832,Simcolourproject_2stim_asymm_v5,2020.2.10,Win32,60,61025ae37ef11b136ea224fe,,,,,,,,,2370,35,-67,1,0,0,response3disk,,4,-10,14,1,0,0,rectangle,-10,14,1,0,0,-10,14,1,0,0,1,133,293,37,1,,,,,,,,
,,,,,,,,,,,,,FF,,,,,,,,1.0371,,,,,,,,,,,,,,,,,,,,,,60ff488f1b3c9851177efd97,61036cc5ada89aa3a7128e5d,2021-07-29_23h22.44.832,Simcolourproject_2stim_asymm_v5,2020.2.10,Win32,60,61025ae37ef11b136ea224fe,,,,,,,,,3351,65,32,1,0,0,response1disk,,6,2,10,1,0,0,rectangle,2,10,1,0,0,2,10,1,0,0,1,134,294,0,1,,,,,,,,
,,,,,,,,,,,,,FF,,,,,,,,0.6524,,,,,,,,,,,,,,,,,,,,,,60ff488f1b3c9851177efd97,61036cc5ada89aa3a7128e5d,2021-07-29_23h22.44.832,Simcolourproject_2stim_asymm_v5,2020.2.10,Win32,60,61025ae37ef11b136ea224fe,,,,,,,,,2225,35,73,1,0,0,response1disk,,7,13,-6,1,0,0,rectangle,13,-6,1,0,0,13,-6,1,0,0,1,135,295,121,1,,,,,,,,
,,,,,,,,,,,,,FF,,,,,,,,0.6362,,,,,,,,,,,,,,,,,,,,,,60ff488f1b3c9851177efd97,61036cc5ada89aa3a7128e5d,2021-07-29_23h22.44.832,Simcolourproject_2stim_asymm_v5,2020.2.10,Win32,60,61025ae37ef11b136ea224fe,,,,,,,,,476,20,71,1,0,0,response1disk,,7,-5,9,1,0,0,rectangle,-5,9,1,0,0,-5,9,1,0,0,1,136,296,66,1,,,,,,,,
,,,,,,,,,,,,,FF,,,,,,,,1.0544,,,,,,,,,,,,,,,,,,,,,,60ff488f1b3c9851177efd97,61036cc5ada89aa3a7128e5d,2021-07-29_23h22.44.832,Simcolourproject_2stim_asymm_v5,2020.2.10,Win32,60,61025ae37ef11b136ea224fe,,,,,,,,,3162,-36,-74,1,0,0,response5disk,,3,0,4,1,0,0,rectangle,0,4,1,0,0,0,4,1,0,0,1,137,297,51,1,,,,,,,,
,,,,,,,,,,,,,FF,,,,,,,,0.6526,,,,,,,,,,,,,,,,,,,,,,60ff488f1b3c9851177efd97,61036cc5ada89aa3a7128e5d,2021-07-29_23h22.44.832,Simcolourproject_2stim_asymm_v5,2020.2.10,Win32,60,61025ae37ef11b136ea224fe,,,,,,,,,2384,36,65,1,0,0,response1disk,,7,3,-10,1,0,0,rectangle,3,-10,1,0,0,3,-10,1,0,0,1,138,298,141,1,,,,,,,,
,,,,,,,,,,,,,FF,,,,,,,,1.4224,,,,,,,,,,,,,,,,,,,,,,60ff488f1b3c9851177efd97,61036cc5ada89aa3a7128e5d,2021-07-29_23h22.44.832,Simcolourproject_2stim_asymm_v5,2020.2.10,Win32,60,61025ae37ef11b136ea224fe,,,,,,,,,3857,29,53,1,0,0,response1disk,,7,3,-3,1,0,0,rectangle,3,-3,1,0,0,3,-3,1,0,0,1,139,299,62,1,,,,,,,,
,,,,,,,,,,,,,FF,,,,,,,,2.6105,,,,,,,,,,,,,,,,,,,,,,60ff488f1b3c9851177efd97,61036cc5ada89aa3a7128e5d,2021-07-29_23h22.44.832,Simcolourproject_2stim_asymm_v5,2020.2.10,Win32,60,61025ae37ef11b136ea224fe,,,,,,,,,2576,35,70,1,0,0,response1disk,,7,13,15,1,0,0,rectangle,13,15,1,0,0,13,15,1,0,0,1,140,300,57,1,,,,,,,,
,,,,,,,,,,,,,FF,,,,,,,,0.8199,,,,,,,,,,,,,,,,,,,,,,60ff488f1b3c9851177efd97,61036cc5ada89aa3a7128e5d,2021-07-29_23h22.44.832,Simcolourproject_2stim_asymm_v5,2020.2.10,Win32,60,61025ae37ef11b136ea224fe,,,,,,,,,1323,41,73,1,0,0,response1disk,,7,9,-6,1,0,0,rectangle,9,-6,1,0,0,9,-6,1,0,0,1,141,301,106,1,,,,,,,,
,,,,,,,,,,,,,FF,,,,,,,,1.1705,,,,,,,,,,,,,,,,,,,,,,60ff488f1b3c9851177efd97,61036cc5ada89aa3a7128e5d,2021-07-29_23h22.44.832,Simcolourproject_2stim_asymm_v5,2020.2.10,Win32,60,61025ae37ef11b136ea224fe,,,,,,,,,340,73,-49,1,0,0,response3disk,,5,2,-4,1,0,0,rectangle,2,-4,1,0,0,2,-4,1,0,0,1,142,302,107,1,,,,,,,,
