key_resp.keys,key_resp.rt,key_resp_14.keys,key_resp_14.rt,key_resp_15.keys,key_resp_15.rt,key_resp_17.keys,key_resp_17.rt,key_resp_9.keys,key_resp_9.rt,key_resp_10.keys,key_resp_10.rt,practice_comparison,Ecc,mouse_5.x,mouse_5.y,mouse_5.leftButton,mouse_5.midButton,mouse_5.rightButton,mouse_5.clicked_name,pracsimilarity,response_time,mouse_10.x,mouse_10.y,mouse_10.leftButton,mouse_10.midButton,mouse_10.rightButton,mouse_10.clicked_name,mouse_7.x,mouse_7.y,mouse_7.leftButton,mouse_7.midButton,mouse_7.rightButton,mouse_6.x,mouse_6.y,mouse_6.leftButton,mouse_6.midButton,mouse_6.rightButton,duringprac.thisRepN,duringprac.thisTrialN,duringprac.thisN,duringprac.thisIndex,duringprac.ran,participant,session,date,expName,psychopyVersion,OS,frameRate,study_id,mouse_7.clicked_name,catchpracsimilarity,catch_response_time,catchnumberprac,catchtrialorderprac,mouse_6.clicked_name,key_resp_22.keys,key_resp_22.rt,realcomparison,mouse.x,mouse.y,mouse.leftButton,mouse.midButton,mouse.rightButton,mouse.clicked_name,Colour2,similarity,mouse_2.x,mouse_2.y,mouse_2.leftButton,mouse_2.midButton,mouse_2.rightButton,mouse_2.clicked_name,mouse_3.x,mouse_3.y,mouse_3.leftButton,mouse_3.midButton,mouse_3.rightButton,mouse_11.x,mouse_11.y,mouse_11.leftButton,mouse_11.midButton,mouse_11.rightButton,trials_2.thisRepN,trials_2.thisTrialN,trials_2.thisN,trials_2.thisIndex,trials_2.ran,Colour1,mouse_3.clicked_name,catchornah,catchsimilarity,catchnumber,catchtrialorder,catchRT,mouse_11.clicked_name
space,0.913,space,4.691,space,25.882,space,8.563,space,3.379,space,2.377,24,FF,-32,76,1,0,0,response7disk_5,0,11.319,-2,5,1,0,0,rectangle_8,-2,5,1,0,0,-2,5,1,0,0,0,0,0,0,1,60ff8d646f5ecca6f516a910,610377ecf215faab0a11fde0,2021-07-29_23h55.46.555,Simcolourproject_2stim_asymm_v5,2020.2.10,MacIntel,60,61025ae37ef11b136ea224fe,,,,,,,,,,,,,,,,,,,,,,,,,,,,,,,,,,,,,,,,,,,,,,
,,,,,,,,,,,,71,PF,-30,65,1,0,0,response7disk_5,0,1.85,14,-7,1,0,0,rectangle_8,45,-69,1,0,0,9,-5,1,0,0,0,1,1,2,1,60ff8d646f5ecca6f516a910,610377ecf215faab0a11fde0,2021-07-29_23h55.46.555,Simcolourproject_2stim_asymm_v5,2020.2.10,MacIntel,60,61025ae37ef11b136ea224fe,response3disk_7,4,2.65,4,"[2,5]",rectangle_4,,,,,,,,,,,,,,,,,,,,,,,,,,,,,,,,,,,,,,,,
,,,,,,,,,,,,86,PF,28,-48,1,0,0,response3disk_5,4,7.317,-6,0,1,0,0,rectangle_8,-6,0,1,0,0,-6,0,1,0,0,0,2,2,6,1,60ff8d646f5ecca6f516a910,610377ecf215faab0a11fde0,2021-07-29_23h55.46.555,Simcolourproject_2stim_asymm_v5,2020.2.10,MacIntel,60,61025ae37ef11b136ea224fe,,,,,,,,,,,,,,,,,,,,,,,,,,,,,,,,,,,,,,,,,,,,,,
,,,,,,,,,,,,8,PF,25,67,1,0,0,response1disk_5,7,3.833,-10,16,1,0,0,rectangle_8,-10,16,1,0,0,-10,16,1,0,0,0,3,3,4,1,60ff8d646f5ecca6f516a910,610377ecf215faab0a11fde0,2021-07-29_23h55.46.555,Simcolourproject_2stim_asymm_v5,2020.2.10,MacIntel,60,61025ae37ef11b136ea224fe,,,,,,,,,,,,,,,,,,,,,,,,,,,,,,,,,,,,,,,,,,,,,,
,,,,,,,,,,,,87,FF,29,64,1,0,0,response1disk_5,7,2.717,16,9,1,0,0,rectangle_8,43,-84,1,0,0,19,3,1,0,0,0,4,4,5,1,60ff8d646f5ecca6f516a910,610377ecf215faab0a11fde0,2021-07-29_23h55.46.555,Simcolourproject_2stim_asymm_v5,2020.2.10,MacIntel,60,61025ae37ef11b136ea224fe,response3disk_7,4,2.5,4,"[2,5]",rectangle_4,,,,,,,,,,,,,,,,,,,,,,,,,,,,,,,,,,,,,,,,
,,,,,,,,,,,,55,PF,-59,-42,1,0,0,response5disk_5,2,4.3,0,-1,1,0,0,rectangle_8,0,-1,1,0,0,0,-1,1,0,0,0,5,5,1,1,60ff8d646f5ecca6f516a910,610377ecf215faab0a11fde0,2021-07-29_23h55.46.555,Simcolourproject_2stim_asymm_v5,2020.2.10,MacIntel,60,61025ae37ef11b136ea224fe,,,,,,,,,,,,,,,,,,,,,,,,,,,,,,,,,,,,,,,,,,,,,,
,,,,,,,,,,,,142,FF,28,48,1,0,0,response1disk_5,7,2,12,-6,1,0,0,rectangle_8,12,-6,1,0,0,12,-6,1,0,0,0,6,6,3,1,60ff8d646f5ecca6f516a910,610377ecf215faab0a11fde0,2021-07-29_23h55.46.555,Simcolourproject_2stim_asymm_v5,2020.2.10,MacIntel,60,61025ae37ef11b136ea224fe,,,,,,,,,,,,,,,,,,,,,,,,,,,,,,,,,,,,,,,,,,,,,,
,,,,,,,,,,,,,FF,,,,,,,,2.867,,,,,,,,,,,,,,,,,,,,,,60ff8d646f5ecca6f516a910,610377ecf215faab0a11fde0,2021-07-29_23h55.46.555,Simcolourproject_2stim_asymm_v5,2020.2.10,MacIntel,60,61025ae37ef11b136ea224fe,,,,,,,space,2.758,4061,47,-27,1,0,0,response3disk,,5,2,4,1,0,0,rectangle,2,4,1,0,0,2,4,1,0,0,0,0,0,90,1,,,,,,,,
,,,,,,,,,,,,,FF,,,,,,,,2.867,,,,,,,,,,,,,,,,,,,,,,60ff8d646f5ecca6f516a910,610377ecf215faab0a11fde0,2021-07-29_23h55.46.555,Simcolourproject_2stim_asymm_v5,2020.2.10,MacIntel,60,61025ae37ef11b136ea224fe,,,,,,,,,528,76,37,1,0,0,response1disk,,6,22,7,1,0,0,rectangle,22,7,1,0,0,22,7,1,0,0,0,1,1,137,1,,,,,,,,
,,,,,,,,,,,,,FF,,,,,,,,0.833,,,,,,,,,,,,,,,,,,,,,,60ff8d646f5ecca6f516a910,610377ecf215faab0a11fde0,2021-07-29_23h55.46.555,Simcolourproject_2stim_asymm_v5,2020.2.10,MacIntel,60,61025ae37ef11b136ea224fe,,,,,,,,,886,27,76,1,0,0,response1disk,,7,13,7,1,0,0,rectangle,13,7,1,0,0,13,7,1,0,0,0,2,2,128,1,,,,,,,,
,,,,,,,,,,,,,FF,,,,,,,,2.068,,,,,,,,,,,,,,,,,,,,,,60ff8d646f5ecca6f516a910,610377ecf215faab0a11fde0,2021-07-29_23h55.46.555,Simcolourproject_2stim_asymm_v5,2020.2.10,MacIntel,60,61025ae37ef11b136ea224fe,,,,,,,,,622,38,-29,1,0,0,response3disk,,5,10,0,1,0,0,rectangle,10,0,1,0,0,10,0,1,0,0,0,3,3,58,1,,,,,,,,
,,,,,,,,,,,,,FF,,,,,,,,1.1,,,,,,,,,,,,,,,,,,,,,,60ff8d646f5ecca6f516a910,610377ecf215faab0a11fde0,2021-07-29_23h55.46.555,Simcolourproject_2stim_asymm_v5,2020.2.10,MacIntel,60,61025ae37ef11b136ea224fe,,,,,,,,,752,-30,-46,1,0,0,response5disk,,3,-2,1,1,0,0,rectangle,-2,1,1,0,0,-2,1,1,0,0,0,4,4,27,1,,,,,,,,
,,,,,,,,,,,,,FF,,,,,,,,9.349,,,,,,,,,,,,,,,,,,,,,,60ff8d646f5ecca6f516a910,610377ecf215faab0a11fde0,2021-07-29_23h55.46.555,Simcolourproject_2stim_asymm_v5,2020.2.10,MacIntel,60,61025ae37ef11b136ea224fe,,,,,,,,,3896,-25,-28,1,0,0,response5disk,,3,-9,-1,1,0,0,rectangle,-58,-40,1,0,0,-13,-2,1,0,0,0,5,5,98,1,,response5disk_3,TRUE,2,2,"[121,137,167,168,186,211,284,37,6,110,195,223,67,183,133,281,134,272,223,136]",1.649,rectangle
,,,,,,,,,,,,,FF,,,,,,,,4.1,,,,,,,,,,,,,,,,,,,,,,60ff8d646f5ecca6f516a910,610377ecf215faab0a11fde0,2021-07-29_23h55.46.555,Simcolourproject_2stim_asymm_v5,2020.2.10,MacIntel,60,61025ae37ef11b136ea224fe,,,,,,,,,2638,32,22,1,0,0,response1disk,,6,8,0,1,0,0,rectangle,8,0,1,0,0,8,0,1,0,0,0,6,6,154,1,,,,,,,,
,,,,,,,,,,,,,FF,,,,,,,,1.35,,,,,,,,,,,,,,,,,,,,,,60ff8d646f5ecca6f516a910,610377ecf215faab0a11fde0,2021-07-29_23h55.46.555,Simcolourproject_2stim_asymm_v5,2020.2.10,MacIntel,60,61025ae37ef11b136ea224fe,,,,,,,,,3441,-31,-38,1,0,0,response5disk,,3,-6,-3,1,0,0,rectangle,-6,-3,1,0,0,-6,-3,1,0,0,0,7,7,41,1,,,,,,,,
,,,,,,,,,,,,,FF,,,,,,,,0.95,,,,,,,,,,,,,,,,,,,,,,60ff8d646f5ecca6f516a910,610377ecf215faab0a11fde0,2021-07-29_23h55.46.555,Simcolourproject_2stim_asymm_v5,2020.2.10,MacIntel,60,61025ae37ef11b136ea224fe,,,,,,,,,226,44,70,1,0,0,response1disk,,7,20,9,1,0,0,rectangle,20,9,1,0,0,20,9,1,0,0,0,8,8,138,1,,,,,,,,
,,,,,,,,,,,,,FF,,,,,,,,0.866,,,,,,,,,,,,,,,,,,,,,,60ff8d646f5ecca6f516a910,610377ecf215faab0a11fde0,2021-07-29_23h55.46.555,Simcolourproject_2stim_asymm_v5,2020.2.10,MacIntel,60,61025ae37ef11b136ea224fe,,,,,,,,,2128,33,93,1,0,0,response1disk,,7,25,2,1,0,0,rectangle,25,2,1,0,0,25,2,1,0,0,0,9,9,127,1,,,,,,,,
,,,,,,,,,,,,,FF,,,,,,,,0.717,,,,,,,,,,,,,,,,,,,,,,60ff8d646f5ecca6f516a910,610377ecf215faab0a11fde0,2021-07-29_23h55.46.555,Simcolourproject_2stim_asymm_v5,2020.2.10,MacIntel,60,61025ae37ef11b136ea224fe,,,,,,,,,4287,34,75,1,0,0,response1disk,,7,22,8,1,0,0,rectangle,22,8,1,0,0,22,8,1,0,0,0,10,10,104,1,,,,,,,,
,,,,,,,,,,,,,FF,,,,,,,,2.8,,,,,,,,,,,,,,,,,,,,,,60ff8d646f5ecca6f516a910,610377ecf215faab0a11fde0,2021-07-29_23h55.46.555,Simcolourproject_2stim_asymm_v5,2020.2.10,MacIntel,60,61025ae37ef11b136ea224fe,,,,,,,,,326,61,31,1,0,0,response1disk,,6,11,-9,1,0,0,rectangle,11,-9,1,0,0,11,-9,1,0,0,0,11,11,54,1,,,,,,,,
,,,,,,,,,,,,,FF,,,,,,,,1.233,,,,,,,,,,,,,,,,,,,,,,60ff8d646f5ecca6f516a910,610377ecf215faab0a11fde0,2021-07-29_23h55.46.555,Simcolourproject_2stim_asymm_v5,2020.2.10,MacIntel,60,61025ae37ef11b136ea224fe,,,,,,,,,2722,-51,-68,1,0,0,response5disk,,3,-12,4,1,0,0,rectangle,-12,4,1,0,0,-12,4,1,0,0,0,12,12,144,1,,,,,,,,
,,,,,,,,,,,,,FF,,,,,,,,1.649,,,,,,,,,,,,,,,,,,,,,,60ff8d646f5ecca6f516a910,610377ecf215faab0a11fde0,2021-07-29_23h55.46.555,Simcolourproject_2stim_asymm_v5,2020.2.10,MacIntel,60,61025ae37ef11b136ea224fe,,,,,,,,,2073,28,64,1,0,0,response1disk,,7,20,-4,1,0,0,rectangle,20,-4,1,0,0,20,-4,1,0,0,0,13,13,97,1,,,,,,,,
,,,,,,,,,,,,,FF,,,,,,,,1.083,,,,,,,,,,,,,,,,,,,,,,60ff8d646f5ecca6f516a910,610377ecf215faab0a11fde0,2021-07-29_23h55.46.555,Simcolourproject_2stim_asymm_v5,2020.2.10,MacIntel,60,61025ae37ef11b136ea224fe,,,,,,,,,1822,-35,-90,1,0,0,response5disk,,3,0,3,1,0,0,rectangle,0,3,1,0,0,0,3,1,0,0,0,14,14,141,1,,,,,,,,
,,,,,,,,,,,,,FF,,,,,,,,1.051,,,,,,,,,,,,,,,,,,,,,,60ff8d646f5ecca6f516a910,610377ecf215faab0a11fde0,2021-07-29_23h55.46.555,Simcolourproject_2stim_asymm_v5,2020.2.10,MacIntel,60,61025ae37ef11b136ea224fe,,,,,,,,,3743,-48,-29,1,0,0,response5disk,,2,-3,0,1,0,0,rectangle,-3,0,1,0,0,-3,0,1,0,0,0,15,15,146,1,,,,,,,,
,,,,,,,,,,,,,FF,,,,,,,,1.516,,,,,,,,,,,,,,,,,,,,,,60ff8d646f5ecca6f516a910,610377ecf215faab0a11fde0,2021-07-29_23h55.46.555,Simcolourproject_2stim_asymm_v5,2020.2.10,MacIntel,60,61025ae37ef11b136ea224fe,,,,,,,,,1505,65,-41,1,0,0,response3disk,,5,13,0,1,0,0,rectangle,13,0,1,0,0,13,0,1,0,0,0,16,16,136,1,,,,,,,,
,,,,,,,,,,,,,FF,,,,,,,,1.349,,,,,,,,,,,,,,,,,,,,,,60ff8d646f5ecca6f516a910,610377ecf215faab0a11fde0,2021-07-29_23h55.46.555,Simcolourproject_2stim_asymm_v5,2020.2.10,MacIntel,60,61025ae37ef11b136ea224fe,,,,,,,,,1739,31,77,1,0,0,response1disk,,7,15,7,1,0,0,rectangle,15,7,1,0,0,15,7,1,0,0,0,17,17,131,1,,,,,,,,
,,,,,,,,,,,,,FF,,,,,,,,1.334,,,,,,,,,,,,,,,,,,,,,,60ff8d646f5ecca6f516a910,610377ecf215faab0a11fde0,2021-07-29_23h55.46.555,Simcolourproject_2stim_asymm_v5,2020.2.10,MacIntel,60,61025ae37ef11b136ea224fe,,,,,,,,,3701,38,26,1,0,0,response1disk,,6,25,6,1,0,0,rectangle,25,6,1,0,0,25,6,1,0,0,0,18,18,81,1,,,,,,,,
,,,,,,,,,,,,,FF,,,,,,,,1.116,,,,,,,,,,,,,,,,,,,,,,60ff8d646f5ecca6f516a910,610377ecf215faab0a11fde0,2021-07-29_23h55.46.555,Simcolourproject_2stim_asymm_v5,2020.2.10,MacIntel,60,61025ae37ef11b136ea224fe,,,,,,,,,641,26,-62,1,0,0,response3disk,,4,17,12,1,0,0,rectangle,17,12,1,0,0,17,12,1,0,0,0,19,19,45,1,,,,,,,,
,,,,,,,,,,,,,FF,,,,,,,,1.516,,,,,,,,,,,,,,,,,,,,,,60ff8d646f5ecca6f516a910,610377ecf215faab0a11fde0,2021-07-29_23h55.46.555,Simcolourproject_2stim_asymm_v5,2020.2.10,MacIntel,60,61025ae37ef11b136ea224fe,,,,,,,,,2287,41,99,1,0,0,response1disk,,7,28,5,1,0,0,rectangle,28,5,1,0,0,28,5,1,0,0,0,20,20,134,1,,,,,,,,
,,,,,,,,,,,,,FF,,,,,,,,1.95,,,,,,,,,,,,,,,,,,,,,,60ff8d646f5ecca6f516a910,610377ecf215faab0a11fde0,2021-07-29_23h55.46.555,Simcolourproject_2stim_asymm_v5,2020.2.10,MacIntel,60,61025ae37ef11b136ea224fe,,,,,,,,,1660,58,-71,1,0,0,response3disk,,4,16,-18,1,0,0,rectangle,16,-18,1,0,0,16,-18,1,0,0,0,21,21,75,1,,,,,,,,
,,,,,,,,,,,,,FF,,,,,,,,1.15,,,,,,,,,,,,,,,,,,,,,,60ff8d646f5ecca6f516a910,610377ecf215faab0a11fde0,2021-07-29_23h55.46.555,Simcolourproject_2stim_asymm_v5,2020.2.10,MacIntel,60,61025ae37ef11b136ea224fe,,,,,,,,,3883,43,69,1,0,0,response1disk,,7,33,-3,1,0,0,rectangle,33,-3,1,0,0,33,-3,1,0,0,0,22,22,39,1,,,,,,,,
,,,,,,,,,,,,,FF,,,,,,,,1.066,,,,,,,,,,,,,,,,,,,,,,60ff8d646f5ecca6f516a910,610377ecf215faab0a11fde0,2021-07-29_23h55.46.555,Simcolourproject_2stim_asymm_v5,2020.2.10,MacIntel,60,61025ae37ef11b136ea224fe,,,,,,,,,3151,39,-70,1,0,0,response3disk,,4,15,-18,1,0,0,rectangle,15,-18,1,0,0,15,-18,1,0,0,0,23,23,69,1,,,,,,,,
,,,,,,,,,,,,,FF,,,,,,,,2.317,,,,,,,,,,,,,,,,,,,,,,60ff8d646f5ecca6f516a910,610377ecf215faab0a11fde0,2021-07-29_23h55.46.555,Simcolourproject_2stim_asymm_v5,2020.2.10,MacIntel,60,61025ae37ef11b136ea224fe,,,,,,,,,3306,33,67,1,0,0,response1disk,,7,27,12,1,0,0,rectangle,27,12,1,0,0,27,12,1,0,0,0,24,24,94,1,,,,,,,,
,,,,,,,,,,,,,FF,,,,,,,,1.067,,,,,,,,,,,,,,,,,,,,,,60ff8d646f5ecca6f516a910,610377ecf215faab0a11fde0,2021-07-29_23h55.46.555,Simcolourproject_2stim_asymm_v5,2020.2.10,MacIntel,60,61025ae37ef11b136ea224fe,,,,,,,,,2320,51,100,1,0,0,response1disk,,7,15,3,1,0,0,rectangle,15,3,1,0,0,15,3,1,0,0,0,25,25,43,1,,,,,,,,
,,,,,,,,,,,,,FF,,,,,,,,1.083,,,,,,,,,,,,,,,,,,,,,,60ff8d646f5ecca6f516a910,610377ecf215faab0a11fde0,2021-07-29_23h55.46.555,Simcolourproject_2stim_asymm_v5,2020.2.10,MacIntel,60,61025ae37ef11b136ea224fe,,,,,,,,,2680,38,-44,1,0,0,response3disk,,4,19,6,1,0,0,rectangle,19,6,1,0,0,19,6,1,0,0,0,26,26,55,1,,,,,,,,
,,,,,,,,,,,,,FF,,,,,,,,1.235,,,,,,,,,,,,,,,,,,,,,,60ff8d646f5ecca6f516a910,610377ecf215faab0a11fde0,2021-07-29_23h55.46.555,Simcolourproject_2stim_asymm_v5,2020.2.10,MacIntel,60,61025ae37ef11b136ea224fe,,,,,,,,,3341,-37,-60,1,0,0,response5disk,,3,-4,2,1,0,0,rectangle,-4,2,1,0,0,-4,2,1,0,0,0,27,27,115,1,,,,,,,,
,,,,,,,,,,,,,FF,,,,,,,,1.151,,,,,,,,,,,,,,,,,,,,,,60ff8d646f5ecca6f516a910,610377ecf215faab0a11fde0,2021-07-29_23h55.46.555,Simcolourproject_2stim_asymm_v5,2020.2.10,MacIntel,60,61025ae37ef11b136ea224fe,,,,,,,,,3083,33,61,1,0,0,response1disk,,7,28,14,1,0,0,rectangle,28,14,1,0,0,28,14,1,0,0,0,28,28,143,1,,,,,,,,
,,,,,,,,,,,,,FF,,,,,,,,0.832,,,,,,,,,,,,,,,,,,,,,,60ff8d646f5ecca6f516a910,610377ecf215faab0a11fde0,2021-07-29_23h55.46.555,Simcolourproject_2stim_asymm_v5,2020.2.10,MacIntel,60,61025ae37ef11b136ea224fe,,,,,,,,,642,-29,-67,1,0,0,response5disk,,3,-14,-2,1,0,0,rectangle,-14,-2,1,0,0,-14,-2,1,0,0,0,29,29,50,1,,,,,,,,
,,,,,,,,,,,,,FF,,,,,,,,1.649,,,,,,,,,,,,,,,,,,,,,,60ff8d646f5ecca6f516a910,610377ecf215faab0a11fde0,2021-07-29_23h55.46.555,Simcolourproject_2stim_asymm_v5,2020.2.10,MacIntel,60,61025ae37ef11b136ea224fe,,,,,,,,,1611,-68,-32,1,0,0,response5disk,,2,-6,-4,1,0,0,rectangle,-6,-4,1,0,0,-6,-4,1,0,0,0,30,30,114,1,,,,,,,,
,,,,,,,,,,,,,FF,,,,,,,,0.635,,,,,,,,,,,,,,,,,,,,,,60ff8d646f5ecca6f516a910,610377ecf215faab0a11fde0,2021-07-29_23h55.46.555,Simcolourproject_2stim_asymm_v5,2020.2.10,MacIntel,60,61025ae37ef11b136ea224fe,,,,,,,,,3268,28,56,1,0,0,response1disk,,7,15,-10,1,0,0,rectangle,15,-10,1,0,0,15,-10,1,0,0,0,31,31,32,1,,,,,,,,
,,,,,,,,,,,,,FF,,,,,,,,1.032,,,,,,,,,,,,,,,,,,,,,,60ff8d646f5ecca6f516a910,610377ecf215faab0a11fde0,2021-07-29_23h55.46.555,Simcolourproject_2stim_asymm_v5,2020.2.10,MacIntel,60,61025ae37ef11b136ea224fe,,,,,,,,,67,-25,-59,1,0,0,response5disk,,3,-3,-1,1,0,0,rectangle,-3,-1,1,0,0,-3,-1,1,0,0,0,32,32,10,1,,,,,,,,
,,,,,,,,,,,,,FF,,,,,,,,0.983,,,,,,,,,,,,,,,,,,,,,,60ff8d646f5ecca6f516a910,610377ecf215faab0a11fde0,2021-07-29_23h55.46.555,Simcolourproject_2stim_asymm_v5,2020.2.10,MacIntel,60,61025ae37ef11b136ea224fe,,,,,,,,,1818,-85,37,1,0,0,response7disk,,1,-4,9,1,0,0,rectangle,-4,9,1,0,0,-4,9,1,0,0,0,33,33,117,1,,,,,,,,
,,,,,,,,,,,,,FF,,,,,,,,0.833,,,,,,,,,,,,,,,,,,,,,,60ff8d646f5ecca6f516a910,610377ecf215faab0a11fde0,2021-07-29_23h55.46.555,Simcolourproject_2stim_asymm_v5,2020.2.10,MacIntel,60,61025ae37ef11b136ea224fe,,,,,,,,,2404,33,84,1,0,0,response1disk,,7,5,4,1,0,0,rectangle,5,4,1,0,0,5,4,1,0,0,0,34,34,53,1,,,,,,,,
,,,,,,,,,,,,,FF,,,,,,,,1.683,,,,,,,,,,,,,,,,,,,,,,60ff8d646f5ecca6f516a910,610377ecf215faab0a11fde0,2021-07-29_23h55.46.555,Simcolourproject_2stim_asymm_v5,2020.2.10,MacIntel,60,61025ae37ef11b136ea224fe,,,,,,,,,3769,79,-27,1,0,0,response3disk,,5,-1,0,1,0,0,rectangle,-1,0,1,0,0,-1,0,1,0,0,0,35,35,93,1,,,,,,,,
,,,,,,,,,,,,,FF,,,,,,,,1.249,,,,,,,,,,,,,,,,,,,,,,60ff8d646f5ecca6f516a910,610377ecf215faab0a11fde0,2021-07-29_23h55.46.555,Simcolourproject_2stim_asymm_v5,2020.2.10,MacIntel,60,61025ae37ef11b136ea224fe,,,,,,,,,3253,61,27,1,0,0,response1disk,,6,22,-15,1,0,0,rectangle,32,62,1,0,0,13,-4,1,0,0,0,36,36,47,1,,response1disk_3,TRUE,7,7,"[121,137,167,168,186,211,284,37,6,110,195,223,67,183,133,281,134,272,223,136]",1.684,rectangle
,,,,,,,,,,,,,FF,,,,,,,,1.533,,,,,,,,,,,,,,,,,,,,,,60ff8d646f5ecca6f516a910,610377ecf215faab0a11fde0,2021-07-29_23h55.46.555,Simcolourproject_2stim_asymm_v5,2020.2.10,MacIntel,60,61025ae37ef11b136ea224fe,,,,,,,,,847,60,31,1,0,0,response1disk,,6,22,12,1,0,0,rectangle,22,12,1,0,0,22,12,1,0,0,0,37,37,36,1,,,,,,,,
,,,,,,,,,,,,,FF,,,,,,,,0.816,,,,,,,,,,,,,,,,,,,,,,60ff8d646f5ecca6f516a910,610377ecf215faab0a11fde0,2021-07-29_23h55.46.555,Simcolourproject_2stim_asymm_v5,2020.2.10,MacIntel,60,61025ae37ef11b136ea224fe,,,,,,,,,3734,51,32,1,0,0,response1disk,,6,28,10,1,0,0,rectangle,28,10,1,0,0,28,10,1,0,0,0,38,38,19,1,,,,,,,,
,,,,,,,,,,,,,FF,,,,,,,,0.666,,,,,,,,,,,,,,,,,,,,,,60ff8d646f5ecca6f516a910,610377ecf215faab0a11fde0,2021-07-29_23h55.46.555,Simcolourproject_2stim_asymm_v5,2020.2.10,MacIntel,60,61025ae37ef11b136ea224fe,,,,,,,,,513,39,28,1,0,0,response1disk,,6,31,12,1,0,0,rectangle,31,12,1,0,0,31,12,1,0,0,0,39,39,158,1,,,,,,,,
,,,,,,,,,,,,,FF,,,,,,,,0.95,,,,,,,,,,,,,,,,,,,,,,60ff8d646f5ecca6f516a910,610377ecf215faab0a11fde0,2021-07-29_23h55.46.555,Simcolourproject_2stim_asymm_v5,2020.2.10,MacIntel,60,61025ae37ef11b136ea224fe,,,,,,,,,4036,40,67,1,0,0,response1disk,,7,19,12,1,0,0,rectangle,19,12,1,0,0,19,12,1,0,0,0,40,40,147,1,,,,,,,,
,,,,,,,,,,,,,FF,,,,,,,,0.897,,,,,,,,,,,,,,,,,,,,,,60ff8d646f5ecca6f516a910,610377ecf215faab0a11fde0,2021-07-29_23h55.46.555,Simcolourproject_2stim_asymm_v5,2020.2.10,MacIntel,60,61025ae37ef11b136ea224fe,,,,,,,,,3547,52,-30,1,0,0,response3disk,,5,12,10,1,0,0,rectangle,12,10,1,0,0,12,10,1,0,0,0,41,41,14,1,,,,,,,,
,,,,,,,,,,,,,FF,,,,,,,,1.766,,,,,,,,,,,,,,,,,,,,,,60ff8d646f5ecca6f516a910,610377ecf215faab0a11fde0,2021-07-29_23h55.46.555,Simcolourproject_2stim_asymm_v5,2020.2.10,MacIntel,60,61025ae37ef11b136ea224fe,,,,,,,,,2043,24,-34,1,0,0,response3disk,,4,-1,-9,1,0,0,rectangle,-1,-9,1,0,0,-1,-9,1,0,0,0,42,42,61,1,,,,,,,,
,,,,,,,,,,,,,FF,,,,,,,,1.016,,,,,,,,,,,,,,,,,,,,,,60ff8d646f5ecca6f516a910,610377ecf215faab0a11fde0,2021-07-29_23h55.46.555,Simcolourproject_2stim_asymm_v5,2020.2.10,MacIntel,60,61025ae37ef11b136ea224fe,,,,,,,,,3910,-71,-38,1,0,0,response5disk,,2,-9,2,1,0,0,rectangle,-9,2,1,0,0,-9,2,1,0,0,0,43,43,85,1,,,,,,,,
,,,,,,,,,,,,,FF,,,,,,,,0.599,,,,,,,,,,,,,,,,,,,,,,60ff8d646f5ecca6f516a910,610377ecf215faab0a11fde0,2021-07-29_23h55.46.555,Simcolourproject_2stim_asymm_v5,2020.2.10,MacIntel,60,61025ae37ef11b136ea224fe,,,,,,,,,2584,31,64,1,0,0,response1disk,,7,1,-7,1,0,0,rectangle,1,-7,1,0,0,1,-7,1,0,0,0,44,44,156,1,,,,,,,,
,,,,,,,,,,,,,FF,,,,,,,,0.683,,,,,,,,,,,,,,,,,,,,,,60ff8d646f5ecca6f516a910,610377ecf215faab0a11fde0,2021-07-29_23h55.46.555,Simcolourproject_2stim_asymm_v5,2020.2.10,MacIntel,60,61025ae37ef11b136ea224fe,,,,,,,,,311,18,77,1,0,0,response1disk,,7,1,-8,1,0,0,rectangle,1,-8,1,0,0,1,-8,1,0,0,0,45,45,91,1,,,,,,,,
,,,,,,,,,,,,,FF,,,,,,,,0.833,,,,,,,,,,,,,,,,,,,,,,60ff8d646f5ecca6f516a910,610377ecf215faab0a11fde0,2021-07-29_23h55.46.555,Simcolourproject_2stim_asymm_v5,2020.2.10,MacIntel,60,61025ae37ef11b136ea224fe,,,,,,,,,3815,-30,-61,1,0,0,response5disk,,3,-14,-3,1,0,0,rectangle,-14,-3,1,0,0,-14,-3,1,0,0,0,46,46,151,1,,,,,,,,
,,,,,,,,,,,,,FF,,,,,,,,0.632,,,,,,,,,,,,,,,,,,,,,,60ff8d646f5ecca6f516a910,610377ecf215faab0a11fde0,2021-07-29_23h55.46.555,Simcolourproject_2stim_asymm_v5,2020.2.10,MacIntel,60,61025ae37ef11b136ea224fe,,,,,,,,,3673,-30,-54,1,0,0,response5disk,,3,-17,-7,1,0,0,rectangle,-17,-7,1,0,0,-17,-7,1,0,0,0,47,47,89,1,,,,,,,,
,,,,,,,,,,,,,FF,,,,,,,,0.966,,,,,,,,,,,,,,,,,,,,,,60ff8d646f5ecca6f516a910,610377ecf215faab0a11fde0,2021-07-29_23h55.46.555,Simcolourproject_2stim_asymm_v5,2020.2.10,MacIntel,60,61025ae37ef11b136ea224fe,,,,,,,,,940,24,65,1,0,0,response1disk,,7,1,-2,1,0,0,rectangle,1,-2,1,0,0,1,-2,1,0,0,0,48,48,37,1,,,,,,,,
,,,,,,,,,,,,,FF,,,,,,,,1.301,,,,,,,,,,,,,,,,,,,,,,60ff8d646f5ecca6f516a910,610377ecf215faab0a11fde0,2021-07-29_23h55.46.555,Simcolourproject_2stim_asymm_v5,2020.2.10,MacIntel,60,61025ae37ef11b136ea224fe,,,,,,,,,23,34,77,1,0,0,response1disk,,7,13,13,1,0,0,rectangle,13,13,1,0,0,13,13,1,0,0,0,49,49,129,1,,,,,,,,
,,,,,,,,,,,,,FF,,,,,,,,1.934,,,,,,,,,,,,,,,,,,,,,,60ff8d646f5ecca6f516a910,610377ecf215faab0a11fde0,2021-07-29_23h55.46.555,Simcolourproject_2stim_asymm_v5,2020.2.10,MacIntel,60,61025ae37ef11b136ea224fe,,,,,,,,,625,39,27,1,0,0,response1disk,,6,24,6,1,0,0,rectangle,24,6,1,0,0,24,6,1,0,0,0,50,50,95,1,,,,,,,,
,,,,,,,,,,,,,FF,,,,,,,,1.2,,,,,,,,,,,,,,,,,,,,,,60ff8d646f5ecca6f516a910,610377ecf215faab0a11fde0,2021-07-29_23h55.46.555,Simcolourproject_2stim_asymm_v5,2020.2.10,MacIntel,60,61025ae37ef11b136ea224fe,,,,,,,,,1350,58,40,1,0,0,response1disk,,6,23,9,1,0,0,rectangle,23,9,1,0,0,23,9,1,0,0,0,51,51,80,1,,,,,,,,
,,,,,,,,,,,,,FF,,,,,,,,0.933,,,,,,,,,,,,,,,,,,,,,,60ff8d646f5ecca6f516a910,610377ecf215faab0a11fde0,2021-07-29_23h55.46.555,Simcolourproject_2stim_asymm_v5,2020.2.10,MacIntel,60,61025ae37ef11b136ea224fe,,,,,,,,,1889,-39,-51,1,0,0,response5disk,,3,-8,1,1,0,0,rectangle,-8,1,1,0,0,-8,1,1,0,0,0,52,52,71,1,,,,,,,,
,,,,,,,,,,,,,FF,,,,,,,,1.184,,,,,,,,,,,,,,,,,,,,,,60ff8d646f5ecca6f516a910,610377ecf215faab0a11fde0,2021-07-29_23h55.46.555,Simcolourproject_2stim_asymm_v5,2020.2.10,MacIntel,60,61025ae37ef11b136ea224fe,,,,,,,,,814,36,-39,1,0,0,response3disk,,4,8,-7,1,0,0,rectangle,8,-7,1,0,0,8,-7,1,0,0,0,53,53,28,1,,,,,,,,
,,,,,,,,,,,,,FF,,,,,,,,0.717,,,,,,,,,,,,,,,,,,,,,,60ff8d646f5ecca6f516a910,610377ecf215faab0a11fde0,2021-07-29_23h55.46.555,Simcolourproject_2stim_asymm_v5,2020.2.10,MacIntel,60,61025ae37ef11b136ea224fe,,,,,,,,,1741,37,85,1,0,0,response1disk,,7,21,5,1,0,0,rectangle,21,5,1,0,0,21,5,1,0,0,0,54,54,21,1,,,,,,,,
,,,,,,,,,,,,,FF,,,,,,,,0.617,,,,,,,,,,,,,,,,,,,,,,60ff8d646f5ecca6f516a910,610377ecf215faab0a11fde0,2021-07-29_23h55.46.555,Simcolourproject_2stim_asymm_v5,2020.2.10,MacIntel,60,61025ae37ef11b136ea224fe,,,,,,,,,529,-30,-53,1,0,0,response5disk,,3,5,1,1,0,0,rectangle,5,1,1,0,0,5,1,1,0,0,0,55,55,111,1,,,,,,,,
,,,,,,,,,,,,,FF,,,,,,,,1.482,,,,,,,,,,,,,,,,,,,,,,60ff8d646f5ecca6f516a910,610377ecf215faab0a11fde0,2021-07-29_23h55.46.555,Simcolourproject_2stim_asymm_v5,2020.2.10,MacIntel,60,61025ae37ef11b136ea224fe,,,,,,,,,1028,40,93,1,0,0,response1disk,,7,13,-11,1,0,0,rectangle,13,-11,1,0,0,13,-11,1,0,0,0,56,56,18,1,,,,,,,,
,,,,,,,,,,,,,FF,,,,,,,,1.2,,,,,,,,,,,,,,,,,,,,,,60ff8d646f5ecca6f516a910,610377ecf215faab0a11fde0,2021-07-29_23h55.46.555,Simcolourproject_2stim_asymm_v5,2020.2.10,MacIntel,60,61025ae37ef11b136ea224fe,,,,,,,,,1853,35,49,1,0,0,response1disk,,7,21,9,1,0,0,rectangle,21,9,1,0,0,21,9,1,0,0,0,57,57,126,1,,,,,,,,
,,,,,,,,,,,,,FF,,,,,,,,0.649,,,,,,,,,,,,,,,,,,,,,,60ff8d646f5ecca6f516a910,610377ecf215faab0a11fde0,2021-07-29_23h55.46.555,Simcolourproject_2stim_asymm_v5,2020.2.10,MacIntel,60,61025ae37ef11b136ea224fe,,,,,,,,,1954,18,39,1,0,0,response1disk,,7,-3,-8,1,0,0,rectangle,-3,-8,1,0,0,-3,-8,1,0,0,0,58,58,68,1,,,,,,,,
,,,,,,,,,,,,,FF,,,,,,,,1.167,,,,,,,,,,,,,,,,,,,,,,60ff8d646f5ecca6f516a910,610377ecf215faab0a11fde0,2021-07-29_23h55.46.555,Simcolourproject_2stim_asymm_v5,2020.2.10,MacIntel,60,61025ae37ef11b136ea224fe,,,,,,,,,2206,45,-29,1,0,0,response3disk,,5,6,-2,1,0,0,rectangle,6,-2,1,0,0,6,-2,1,0,0,0,59,59,135,1,,,,,,,,
,,,,,,,,,,,,,FF,,,,,,,,0.717,,,,,,,,,,,,,,,,,,,,,,60ff8d646f5ecca6f516a910,610377ecf215faab0a11fde0,2021-07-29_23h55.46.555,Simcolourproject_2stim_asymm_v5,2020.2.10,MacIntel,60,61025ae37ef11b136ea224fe,,,,,,,,,2323,37,28,1,0,0,response1disk,,6,1,12,1,0,0,rectangle,1,12,1,0,0,1,12,1,0,0,0,60,60,67,1,,,,,,,,
,,,,,,,,,,,,,FF,,,,,,,,0.584,,,,,,,,,,,,,,,,,,,,,,60ff8d646f5ecca6f516a910,610377ecf215faab0a11fde0,2021-07-29_23h55.46.555,Simcolourproject_2stim_asymm_v5,2020.2.10,MacIntel,60,61025ae37ef11b136ea224fe,,,,,,,,,1465,25,30,1,0,0,response1disk,,7,14,4,1,0,0,rectangle,14,4,1,0,0,14,4,1,0,0,0,61,61,26,1,,,,,,,,
,,,,,,,,,,,,,FF,,,,,,,,1.132,,,,,,,,,,,,,,,,,,,,,,60ff8d646f5ecca6f516a910,610377ecf215faab0a11fde0,2021-07-29_23h55.46.555,Simcolourproject_2stim_asymm_v5,2020.2.10,MacIntel,60,61025ae37ef11b136ea224fe,,,,,,,,,2715,43,-30,1,0,0,response3disk,,5,10,-4,1,0,0,rectangle,10,-4,1,0,0,10,-4,1,0,0,0,62,62,48,1,,,,,,,,
,,,,,,,,,,,,,FF,,,,,,,,0.7,,,,,,,,,,,,,,,,,,,,,,60ff8d646f5ecca6f516a910,610377ecf215faab0a11fde0,2021-07-29_23h55.46.555,Simcolourproject_2stim_asymm_v5,2020.2.10,MacIntel,60,61025ae37ef11b136ea224fe,,,,,,,,,3886,25,41,1,0,0,response1disk,,7,13,13,1,0,0,rectangle,13,13,1,0,0,13,13,1,0,0,0,63,63,84,1,,,,,,,,
,,,,,,,,,,,,,FF,,,,,,,,1.583,,,,,,,,,,,,,,,,,,,,,,60ff8d646f5ecca6f516a910,610377ecf215faab0a11fde0,2021-07-29_23h55.46.555,Simcolourproject_2stim_asymm_v5,2020.2.10,MacIntel,60,61025ae37ef11b136ea224fe,,,,,,,,,3460,-28,-53,1,0,0,response5disk,,3,7,-9,1,0,0,rectangle,7,-9,1,0,0,7,-9,1,0,0,0,64,64,83,1,,,,,,,,
,,,,,,,,,,,,,FF,,,,,,,,0.699,,,,,,,,,,,,,,,,,,,,,,60ff8d646f5ecca6f516a910,610377ecf215faab0a11fde0,2021-07-29_23h55.46.555,Simcolourproject_2stim_asymm_v5,2020.2.10,MacIntel,60,61025ae37ef11b136ea224fe,,,,,,,,,3925,30,58,1,0,0,response1disk,,7,16,17,1,0,0,rectangle,16,17,1,0,0,16,17,1,0,0,0,65,65,72,1,,,,,,,,
,,,,,,,,,,,,,FF,,,,,,,,0.451,,,,,,,,,,,,,,,,,,,,,,60ff8d646f5ecca6f516a910,610377ecf215faab0a11fde0,2021-07-29_23h55.46.555,Simcolourproject_2stim_asymm_v5,2020.2.10,MacIntel,60,61025ae37ef11b136ea224fe,,,,,,,,,3077,30,42,1,0,0,response1disk,,7,20,4,1,0,0,rectangle,35,75,1,0,0,16,2,1,0,0,0,66,66,130,1,,response1disk_3,TRUE,7,7,"[121,137,167,168,186,211,284,37,6,110,195,223,67,183,133,281,134,272,223,136]",1.633,rectangle
,,,,,,,,,,,,,FF,,,,,,,,1.916,,,,,,,,,,,,,,,,,,,,,,60ff8d646f5ecca6f516a910,610377ecf215faab0a11fde0,2021-07-29_23h55.46.555,Simcolourproject_2stim_asymm_v5,2020.2.10,MacIntel,60,61025ae37ef11b136ea224fe,,,,,,,,,939,49,37,1,0,0,response1disk,,6,16,4,1,0,0,rectangle,16,4,1,0,0,16,4,1,0,0,0,67,67,88,1,,,,,,,,
,,,,,,,,,,,,,FF,,,,,,,,0.7,,,,,,,,,,,,,,,,,,,,,,60ff8d646f5ecca6f516a910,610377ecf215faab0a11fde0,2021-07-29_23h55.46.555,Simcolourproject_2stim_asymm_v5,2020.2.10,MacIntel,60,61025ae37ef11b136ea224fe,,,,,,,,,3655,31,77,1,0,0,response1disk,,7,11,13,1,0,0,rectangle,11,13,1,0,0,11,13,1,0,0,0,68,68,59,1,,,,,,,,
,,,,,,,,,,,,,FF,,,,,,,,0.433,,,,,,,,,,,,,,,,,,,,,,60ff8d646f5ecca6f516a910,610377ecf215faab0a11fde0,2021-07-29_23h55.46.555,Simcolourproject_2stim_asymm_v5,2020.2.10,MacIntel,60,61025ae37ef11b136ea224fe,,,,,,,,,337,38,48,1,0,0,response1disk,,7,21,-2,1,0,0,rectangle,21,-2,1,0,0,21,-2,1,0,0,0,69,69,108,1,,,,,,,,
,,,,,,,,,,,,,FF,,,,,,,,0.9,,,,,,,,,,,,,,,,,,,,,,60ff8d646f5ecca6f516a910,610377ecf215faab0a11fde0,2021-07-29_23h55.46.555,Simcolourproject_2stim_asymm_v5,2020.2.10,MacIntel,60,61025ae37ef11b136ea224fe,,,,,,,,,2543,52,-60,1,0,0,response3disk,,4,5,-1,1,0,0,rectangle,5,-1,1,0,0,5,-1,1,0,0,0,70,70,9,1,,,,,,,,
,,,,,,,,,,,,,FF,,,,,,,,0.617,,,,,,,,,,,,,,,,,,,,,,60ff8d646f5ecca6f516a910,610377ecf215faab0a11fde0,2021-07-29_23h55.46.555,Simcolourproject_2stim_asymm_v5,2020.2.10,MacIntel,60,61025ae37ef11b136ea224fe,,,,,,,,,1791,34,72,1,0,0,response1disk,,7,15,10,1,0,0,rectangle,15,10,1,0,0,15,10,1,0,0,0,71,71,22,1,,,,,,,,
,,,,,,,,,,,,,FF,,,,,,,,0.467,,,,,,,,,,,,,,,,,,,,,,60ff8d646f5ecca6f516a910,610377ecf215faab0a11fde0,2021-07-29_23h55.46.555,Simcolourproject_2stim_asymm_v5,2020.2.10,MacIntel,60,61025ae37ef11b136ea224fe,,,,,,,,,2523,47,67,1,0,0,response1disk,,7,28,10,1,0,0,rectangle,28,10,1,0,0,28,10,1,0,0,0,72,72,123,1,,,,,,,,
,,,,,,,,,,,,,FF,,,,,,,,1.334,,,,,,,,,,,,,,,,,,,,,,60ff8d646f5ecca6f516a910,610377ecf215faab0a11fde0,2021-07-29_23h55.46.555,Simcolourproject_2stim_asymm_v5,2020.2.10,MacIntel,60,61025ae37ef11b136ea224fe,,,,,,,,,3751,30,-55,1,0,0,response3disk,,4,16,-11,1,0,0,rectangle,16,-11,1,0,0,16,-11,1,0,0,0,73,73,109,1,,,,,,,,
,,,,,,,,,,,,,FF,,,,,,,,2.533,,,,,,,,,,,,,,,,,,,,,,60ff8d646f5ecca6f516a910,610377ecf215faab0a11fde0,2021-07-29_23h55.46.555,Simcolourproject_2stim_asymm_v5,2020.2.10,MacIntel,60,61025ae37ef11b136ea224fe,,,,,,,,,2609,62,-32,1,0,0,response3disk,,5,17,-11,1,0,0,rectangle,17,-11,1,0,0,17,-11,1,0,0,0,74,74,132,1,,,,,,,,
,,,,,,,,,,,,,FF,,,,,,,,4.517,,,,,,,,,,,,,,,,,,,,,,60ff8d646f5ecca6f516a910,610377ecf215faab0a11fde0,2021-07-29_23h55.46.555,Simcolourproject_2stim_asymm_v5,2020.2.10,MacIntel,60,61025ae37ef11b136ea224fe,,,,,,,,,950,66,-24,1,0,0,response3disk,,5,8,-13,1,0,0,rectangle,8,-13,1,0,0,8,-13,1,0,0,0,75,75,150,1,,,,,,,,
,,,,,,,,,,,,,FF,,,,,,,,3.1,,,,,,,,,,,,,,,,,,,,,,60ff8d646f5ecca6f516a910,610377ecf215faab0a11fde0,2021-07-29_23h55.46.555,Simcolourproject_2stim_asymm_v5,2020.2.10,MacIntel,60,61025ae37ef11b136ea224fe,,,,,,,,,3153,-33,69,1,0,0,response7disk,,0,0,2,1,0,0,rectangle,0,2,1,0,0,0,2,1,0,0,0,76,76,30,1,,,,,,,,
,,,,,,,,,,,,,FF,,,,,,,,0.617,,,,,,,,,,,,,,,,,,,,,,60ff8d646f5ecca6f516a910,610377ecf215faab0a11fde0,2021-07-29_23h55.46.555,Simcolourproject_2stim_asymm_v5,2020.2.10,MacIntel,60,61025ae37ef11b136ea224fe,,,,,,,,,1154,33,60,1,0,0,response1disk,,7,3,-4,1,0,0,rectangle,3,-4,1,0,0,3,-4,1,0,0,0,77,77,4,1,,,,,,,,
,,,,,,,,,,,,,FF,,,,,,,,0.583,,,,,,,,,,,,,,,,,,,,,,60ff8d646f5ecca6f516a910,610377ecf215faab0a11fde0,2021-07-29_23h55.46.555,Simcolourproject_2stim_asymm_v5,2020.2.10,MacIntel,60,61025ae37ef11b136ea224fe,,,,,,,,,3462,32,25,1,0,0,response1disk,,6,6,2,1,0,0,rectangle,6,2,1,0,0,6,2,1,0,0,0,78,78,116,1,,,,,,,,
,,,,,,,,,,,,,FF,,,,,,,,1.083,,,,,,,,,,,,,,,,,,,,,,60ff8d646f5ecca6f516a910,610377ecf215faab0a11fde0,2021-07-29_23h55.46.555,Simcolourproject_2stim_asymm_v5,2020.2.10,MacIntel,60,61025ae37ef11b136ea224fe,,,,,,,,,2201,39,72,1,0,0,response1disk,,7,15,-5,1,0,0,rectangle,15,-5,1,0,0,15,-5,1,0,0,0,79,79,73,1,,,,,,,,
,,,,,,,,,,,,,FF,,,,,,,,0.851,,,,,,,,,,,,,,,,,,,,,,60ff8d646f5ecca6f516a910,610377ecf215faab0a11fde0,2021-07-29_23h55.46.555,Simcolourproject_2stim_asymm_v5,2020.2.10,MacIntel,60,61025ae37ef11b136ea224fe,,,,,,,,,4298,26,-36,1,0,0,response3disk,,4,9,10,1,0,0,rectangle,9,10,1,0,0,9,10,1,0,0,0,80,80,25,1,,,,,,,,
,,,,,,,,,,,,,FF,,,,,,,,0.901,,,,,,,,,,,,,,,,,,,,,,60ff8d646f5ecca6f516a910,610377ecf215faab0a11fde0,2021-07-29_23h55.46.555,Simcolourproject_2stim_asymm_v5,2020.2.10,MacIntel,60,61025ae37ef11b136ea224fe,,,,,,,,,81,-77,36,1,0,0,response7disk,,1,22,-18,1,0,0,rectangle,22,-18,1,0,0,22,-18,1,0,0,0,81,81,105,1,,,,,,,,
,,,,,,,,,,,,,FF,,,,,,,,2.085,,,,,,,,,,,,,,,,,,,,,,60ff8d646f5ecca6f516a910,610377ecf215faab0a11fde0,2021-07-29_23h55.46.555,Simcolourproject_2stim_asymm_v5,2020.2.10,MacIntel,60,61025ae37ef11b136ea224fe,,,,,,,,,3484,-39,-77,1,0,0,response5disk,,3,0,9,1,0,0,rectangle,0,9,1,0,0,0,9,1,0,0,0,82,82,23,1,,,,,,,,
,,,,,,,,,,,,,FF,,,,,,,,1.583,,,,,,,,,,,,,,,,,,,,,,60ff8d646f5ecca6f516a910,610377ecf215faab0a11fde0,2021-07-29_23h55.46.555,Simcolourproject_2stim_asymm_v5,2020.2.10,MacIntel,60,61025ae37ef11b136ea224fe,,,,,,,,,2623,16,-46,1,0,0,response3disk,,4,1,3,1,0,0,rectangle,1,3,1,0,0,1,3,1,0,0,0,83,83,140,1,,,,,,,,
,,,,,,,,,,,,,FF,,,,,,,,0.95,,,,,,,,,,,,,,,,,,,,,,60ff8d646f5ecca6f516a910,610377ecf215faab0a11fde0,2021-07-29_23h55.46.555,Simcolourproject_2stim_asymm_v5,2020.2.10,MacIntel,60,61025ae37ef11b136ea224fe,,,,,,,,,1251,27,-25,1,0,0,response3disk,,5,2,8,1,0,0,rectangle,2,8,1,0,0,2,8,1,0,0,0,84,84,51,1,,,,,,,,
,,,,,,,,,,,,,FF,,,,,,,,1.251,,,,,,,,,,,,,,,,,,,,,,60ff8d646f5ecca6f516a910,610377ecf215faab0a11fde0,2021-07-29_23h55.46.555,Simcolourproject_2stim_asymm_v5,2020.2.10,MacIntel,60,61025ae37ef11b136ea224fe,,,,,,,,,2179,21,-52,1,0,0,response3disk,,4,-6,10,1,0,0,rectangle,-6,10,1,0,0,-6,10,1,0,0,0,85,85,103,1,,,,,,,,
,,,,,,,,,,,,,FF,,,,,,,,1.134,,,,,,,,,,,,,,,,,,,,,,60ff8d646f5ecca6f516a910,610377ecf215faab0a11fde0,2021-07-29_23h55.46.555,Simcolourproject_2stim_asymm_v5,2020.2.10,MacIntel,60,61025ae37ef11b136ea224fe,,,,,,,,,790,-42,-55,1,0,0,response5disk,,3,-12,0,1,0,0,rectangle,-12,0,1,0,0,-12,0,1,0,0,0,86,86,56,1,,,,,,,,
,,,,,,,,,,,,,FF,,,,,,,,0.933,,,,,,,,,,,,,,,,,,,,,,60ff8d646f5ecca6f516a910,610377ecf215faab0a11fde0,2021-07-29_23h55.46.555,Simcolourproject_2stim_asymm_v5,2020.2.10,MacIntel,60,61025ae37ef11b136ea224fe,,,,,,,,,231,53,57,1,0,0,response1disk,,7,7,-12,1,0,0,rectangle,7,-12,1,0,0,7,-12,1,0,0,0,87,87,13,1,,,,,,,,
,,,,,,,,,,,,,FF,,,,,,,,1.201,,,,,,,,,,,,,,,,,,,,,,60ff8d646f5ecca6f516a910,610377ecf215faab0a11fde0,2021-07-29_23h55.46.555,Simcolourproject_2stim_asymm_v5,2020.2.10,MacIntel,60,61025ae37ef11b136ea224fe,,,,,,,,,100,45,-57,1,0,0,response3disk,,4,11,-5,1,0,0,rectangle,11,-5,1,0,0,11,-5,1,0,0,0,88,88,106,1,,,,,,,,
,,,,,,,,,,,,,FF,,,,,,,,0.65,,,,,,,,,,,,,,,,,,,,,,60ff8d646f5ecca6f516a910,610377ecf215faab0a11fde0,2021-07-29_23h55.46.555,Simcolourproject_2stim_asymm_v5,2020.2.10,MacIntel,60,61025ae37ef11b136ea224fe,,,,,,,,,1436,23,85,1,0,0,response1disk,,7,17,11,1,0,0,rectangle,17,11,1,0,0,17,11,1,0,0,0,89,89,112,1,,,,,,,,
,,,,,,,,,,,,,FF,,,,,,,,1.432,,,,,,,,,,,,,,,,,,,,,,60ff8d646f5ecca6f516a910,610377ecf215faab0a11fde0,2021-07-29_23h55.46.555,Simcolourproject_2stim_asymm_v5,2020.2.10,MacIntel,60,61025ae37ef11b136ea224fe,,,,,,,,,2092,29,80,1,0,0,response1disk,,7,19,3,1,0,0,rectangle,19,3,1,0,0,19,3,1,0,0,0,90,90,40,1,,,,,,,,
,,,,,,,,,,,,,FF,,,,,,,,1.183,,,,,,,,,,,,,,,,,,,,,,60ff8d646f5ecca6f516a910,610377ecf215faab0a11fde0,2021-07-29_23h55.46.555,Simcolourproject_2stim_asymm_v5,2020.2.10,MacIntel,60,61025ae37ef11b136ea224fe,,,,,,,,,225,25,43,1,0,0,response1disk,,7,5,2,1,0,0,rectangle,5,2,1,0,0,5,2,1,0,0,0,91,91,29,1,,,,,,,,
,,,,,,,,,,,,,FF,,,,,,,,0.616,,,,,,,,,,,,,,,,,,,,,,60ff8d646f5ecca6f516a910,610377ecf215faab0a11fde0,2021-07-29_23h55.46.555,Simcolourproject_2stim_asymm_v5,2020.2.10,MacIntel,60,61025ae37ef11b136ea224fe,,,,,,,,,1503,23,58,1,0,0,response1disk,,7,-4,7,1,0,0,rectangle,-4,7,1,0,0,-4,7,1,0,0,0,92,92,149,1,,,,,,,,
,,,,,,,,,,,,,FF,,,,,,,,1.566,,,,,,,,,,,,,,,,,,,,,,60ff8d646f5ecca6f516a910,610377ecf215faab0a11fde0,2021-07-29_23h55.46.555,Simcolourproject_2stim_asymm_v5,2020.2.10,MacIntel,60,61025ae37ef11b136ea224fe,,,,,,,,,1319,27,54,1,0,0,response1disk,,7,5,9,1,0,0,rectangle,5,9,1,0,0,5,9,1,0,0,0,93,93,124,1,,,,,,,,
,,,,,,,,,,,,,FF,,,,,,,,0.899,,,,,,,,,,,,,,,,,,,,,,60ff8d646f5ecca6f516a910,610377ecf215faab0a11fde0,2021-07-29_23h55.46.555,Simcolourproject_2stim_asymm_v5,2020.2.10,MacIntel,60,61025ae37ef11b136ea224fe,,,,,,,,,3965,-53,91,1,0,0,response7disk,,0,-6,8,1,0,0,rectangle,-6,8,1,0,0,-6,8,1,0,0,0,94,94,5,1,,,,,,,,
,,,,,,,,,,,,,FF,,,,,,,,0.716,,,,,,,,,,,,,,,,,,,,,,60ff8d646f5ecca6f516a910,610377ecf215faab0a11fde0,2021-07-29_23h55.46.555,Simcolourproject_2stim_asymm_v5,2020.2.10,MacIntel,60,61025ae37ef11b136ea224fe,,,,,,,,,2114,53,105,1,0,0,response1disk,,7,-4,-2,1,0,0,rectangle,-4,-2,1,0,0,-4,-2,1,0,0,0,95,95,92,1,,,,,,,,
,,,,,,,,,,,,,FF,,,,,,,,0.565,,,,,,,,,,,,,,,,,,,,,,60ff8d646f5ecca6f516a910,610377ecf215faab0a11fde0,2021-07-29_23h55.46.555,Simcolourproject_2stim_asymm_v5,2020.2.10,MacIntel,60,61025ae37ef11b136ea224fe,,,,,,,,,302,27,60,1,0,0,response1disk,,7,0,1,1,0,0,rectangle,0,1,1,0,0,0,1,1,0,0,0,96,96,52,1,,,,,,,,
,,,,,,,,,,,,,FF,,,,,,,,1.084,,,,,,,,,,,,,,,,,,,,,,60ff8d646f5ecca6f516a910,610377ecf215faab0a11fde0,2021-07-29_23h55.46.555,Simcolourproject_2stim_asymm_v5,2020.2.10,MacIntel,60,61025ae37ef11b136ea224fe,,,,,,,,,3602,37,79,1,0,0,response1disk,,7,2,-2,1,0,0,rectangle,2,-2,1,0,0,2,-2,1,0,0,0,97,97,122,1,,,,,,,,
,,,,,,,,,,,,,FF,,,,,,,,0.9,,,,,,,,,,,,,,,,,,,,,,60ff8d646f5ecca6f516a910,610377ecf215faab0a11fde0,2021-07-29_23h55.46.555,Simcolourproject_2stim_asymm_v5,2020.2.10,MacIntel,60,61025ae37ef11b136ea224fe,,,,,,,,,3354,58,92,1,0,0,response1disk,,7,16,5,1,0,0,rectangle,16,5,1,0,0,16,5,1,0,0,0,98,98,100,1,,,,,,,,
,,,,,,,,,,,,,FF,,,,,,,,0.783,,,,,,,,,,,,,,,,,,,,,,60ff8d646f5ecca6f516a910,610377ecf215faab0a11fde0,2021-07-29_23h55.46.555,Simcolourproject_2stim_asymm_v5,2020.2.10,MacIntel,60,61025ae37ef11b136ea224fe,,,,,,,,,190,-64,-46,1,0,0,response5disk,,2,-4,-5,1,0,0,rectangle,-4,-5,1,0,0,-4,-5,1,0,0,0,99,99,3,1,,,,,,,,
,,,,,,,,,,,,,FF,,,,,,,,0.832,,,,,,,,,,,,,,,,,,,,,,60ff8d646f5ecca6f516a910,610377ecf215faab0a11fde0,2021-07-29_23h55.46.555,Simcolourproject_2stim_asymm_v5,2020.2.10,MacIntel,60,61025ae37ef11b136ea224fe,,,,,,,,,493,45,71,1,0,0,response1disk,,7,8,9,1,0,0,rectangle,8,9,1,0,0,8,9,1,0,0,0,100,100,12,1,,,,,,,,
,,,,,,,,,,,,,FF,,,,,,,,3.383,,,,,,,,,,,,,,,,,,,,,,60ff8d646f5ecca6f516a910,610377ecf215faab0a11fde0,2021-07-29_23h55.46.555,Simcolourproject_2stim_asymm_v5,2020.2.10,MacIntel,60,61025ae37ef11b136ea224fe,,,,,,,,,3168,28,-51,1,0,0,response3disk,,4,8,-6,1,0,0,rectangle,8,-6,1,0,0,8,-6,1,0,0,0,101,101,1,1,,,,,,,,
,,,,,,,,,,,,,FF,,,,,,,,1.382,,,,,,,,,,,,,,,,,,,,,,60ff8d646f5ecca6f516a910,610377ecf215faab0a11fde0,2021-07-29_23h55.46.555,Simcolourproject_2stim_asymm_v5,2020.2.10,MacIntel,60,61025ae37ef11b136ea224fe,,,,,,,,,3374,-58,-27,1,0,0,response5disk,,2,-4,-3,1,0,0,rectangle,-4,-3,1,0,0,-4,-3,1,0,0,0,102,102,159,1,,,,,,,,
,,,,,,,,,,,,,FF,,,,,,,,0.55,,,,,,,,,,,,,,,,,,,,,,60ff8d646f5ecca6f516a910,610377ecf215faab0a11fde0,2021-07-29_23h55.46.555,Simcolourproject_2stim_asymm_v5,2020.2.10,MacIntel,60,61025ae37ef11b136ea224fe,,,,,,,,,930,49,66,1,0,0,response1disk,,7,4,-3,1,0,0,rectangle,4,-3,1,0,0,4,-3,1,0,0,0,103,103,8,1,,,,,,,,
,,,,,,,,,,,,,FF,,,,,,,,0.734,,,,,,,,,,,,,,,,,,,,,,60ff8d646f5ecca6f516a910,610377ecf215faab0a11fde0,2021-07-29_23h55.46.555,Simcolourproject_2stim_asymm_v5,2020.2.10,MacIntel,60,61025ae37ef11b136ea224fe,,,,,,,,,2641,36,64,1,0,0,response1disk,,7,8,11,1,0,0,rectangle,8,11,1,0,0,8,11,1,0,0,0,104,104,82,1,,,,,,,,
,,,,,,,,,,,,,FF,,,,,,,,0.966,,,,,,,,,,,,,,,,,,,,,,60ff8d646f5ecca6f516a910,610377ecf215faab0a11fde0,2021-07-29_23h55.46.555,Simcolourproject_2stim_asymm_v5,2020.2.10,MacIntel,60,61025ae37ef11b136ea224fe,,,,,,,,,2768,-41,-71,1,0,0,response5disk,,3,-14,-6,1,0,0,rectangle,-14,-6,1,0,0,-14,-6,1,0,0,0,105,105,101,1,,,,,,,,
,,,,,,,,,,,,,FF,,,,,,,,0.632,,,,,,,,,,,,,,,,,,,,,,60ff8d646f5ecca6f516a910,610377ecf215faab0a11fde0,2021-07-29_23h55.46.555,Simcolourproject_2stim_asymm_v5,2020.2.10,MacIntel,60,61025ae37ef11b136ea224fe,,,,,,,,,1890,-31,-55,1,0,0,response5disk,,3,-11,-11,1,0,0,rectangle,-11,-11,1,0,0,-11,-11,1,0,0,0,106,106,102,1,,,,,,,,
,,,,,,,,,,,,,FF,,,,,,,,0.75,,,,,,,,,,,,,,,,,,,,,,60ff8d646f5ecca6f516a910,610377ecf215faab0a11fde0,2021-07-29_23h55.46.555,Simcolourproject_2stim_asymm_v5,2020.2.10,MacIntel,60,61025ae37ef11b136ea224fe,,,,,,,,,2632,71,65,1,0,0,response1disk,,6,5,-5,1,0,0,rectangle,5,-5,1,0,0,5,-5,1,0,0,0,107,107,148,1,,,,,,,,
,,,,,,,,,,,,,FF,,,,,,,,0.601,,,,,,,,,,,,,,,,,,,,,,60ff8d646f5ecca6f516a910,610377ecf215faab0a11fde0,2021-07-29_23h55.46.555,Simcolourproject_2stim_asymm_v5,2020.2.10,MacIntel,60,61025ae37ef11b136ea224fe,,,,,,,,,401,28,60,1,0,0,response1disk,,7,16,4,1,0,0,rectangle,16,4,1,0,0,16,4,1,0,0,0,108,108,79,1,,,,,,,,
,,,,,,,,,,,,,FF,,,,,,,,1.333,,,,,,,,,,,,,,,,,,,,,,60ff8d646f5ecca6f516a910,610377ecf215faab0a11fde0,2021-07-29_23h55.46.555,Simcolourproject_2stim_asymm_v5,2020.2.10,MacIntel,60,61025ae37ef11b136ea224fe,,,,,,,,,1548,37,-81,1,0,0,response3disk,,4,18,2,1,0,0,rectangle,30,76,1,0,0,10,1,1,0,0,0,109,109,34,1,,response1disk_3,TRUE,7,7,"[121,137,167,168,186,211,284,37,6,110,195,223,67,183,133,281,134,272,223,136]",1.349,rectangle
,,,,,,,,,,,,,FF,,,,,,,,1.065,,,,,,,,,,,,,,,,,,,,,,60ff8d646f5ecca6f516a910,610377ecf215faab0a11fde0,2021-07-29_23h55.46.555,Simcolourproject_2stim_asymm_v5,2020.2.10,MacIntel,60,61025ae37ef11b136ea224fe,,,,,,,,,3439,-22,-48,1,0,0,response5disk,,3,1,6,1,0,0,rectangle,1,6,1,0,0,1,6,1,0,0,0,110,110,49,1,,,,,,,,
,,,,,,,,,,,,,FF,,,,,,,,2.116,,,,,,,,,,,,,,,,,,,,,,60ff8d646f5ecca6f516a910,610377ecf215faab0a11fde0,2021-07-29_23h55.46.555,Simcolourproject_2stim_asymm_v5,2020.2.10,MacIntel,60,61025ae37ef11b136ea224fe,,,,,,,,,821,82,55,1,0,0,response1disk,,6,19,-6,1,0,0,rectangle,19,-6,1,0,0,19,-6,1,0,0,0,111,111,35,1,,,,,,,,
,,,,,,,,,,,,,FF,,,,,,,,1.317,,,,,,,,,,,,,,,,,,,,,,60ff8d646f5ecca6f516a910,610377ecf215faab0a11fde0,2021-07-29_23h55.46.555,Simcolourproject_2stim_asymm_v5,2020.2.10,MacIntel,60,61025ae37ef11b136ea224fe,,,,,,,,,796,75,51,1,0,0,response1disk,,6,14,12,1,0,0,rectangle,14,12,1,0,0,14,12,1,0,0,0,112,112,77,1,,,,,,,,
,,,,,,,,,,,,,FF,,,,,,,,1.316,,,,,,,,,,,,,,,,,,,,,,60ff8d646f5ecca6f516a910,610377ecf215faab0a11fde0,2021-07-29_23h55.46.555,Simcolourproject_2stim_asymm_v5,2020.2.10,MacIntel,60,61025ae37ef11b136ea224fe,,,,,,,,,2095,53,-63,1,0,0,response3disk,,4,20,4,1,0,0,rectangle,20,4,1,0,0,20,4,1,0,0,0,113,113,57,1,,,,,,,,
,,,,,,,,,,,,,FF,,,,,,,,0.816,,,,,,,,,,,,,,,,,,,,,,60ff8d646f5ecca6f516a910,610377ecf215faab0a11fde0,2021-07-29_23h55.46.555,Simcolourproject_2stim_asymm_v5,2020.2.10,MacIntel,60,61025ae37ef11b136ea224fe,,,,,,,,,2112,41,95,1,0,0,response1disk,,7,7,-7,1,0,0,rectangle,7,-7,1,0,0,7,-7,1,0,0,0,114,114,16,1,,,,,,,,
,,,,,,,,,,,,,FF,,,,,,,,2.216,,,,,,,,,,,,,,,,,,,,,,60ff8d646f5ecca6f516a910,610377ecf215faab0a11fde0,2021-07-29_23h55.46.555,Simcolourproject_2stim_asymm_v5,2020.2.10,MacIntel,60,61025ae37ef11b136ea224fe,,,,,,,,,3059,66,30,1,0,0,response1disk,,6,4,-2,1,0,0,rectangle,4,-2,1,0,0,4,-2,1,0,0,0,115,115,152,1,,,,,,,,
,,,,,,,,,,,,,FF,,,,,,,,0.783,,,,,,,,,,,,,,,,,,,,,,60ff8d646f5ecca6f516a910,610377ecf215faab0a11fde0,2021-07-29_23h55.46.555,Simcolourproject_2stim_asymm_v5,2020.2.10,MacIntel,60,61025ae37ef11b136ea224fe,,,,,,,,,3826,68,51,1,0,0,response1disk,,6,-22,-7,1,0,0,rectangle,-22,-7,1,0,0,-22,-7,1,0,0,0,116,116,64,1,,,,,,,,
,,,,,,,,,,,,,FF,,,,,,,,0.567,,,,,,,,,,,,,,,,,,,,,,60ff8d646f5ecca6f516a910,610377ecf215faab0a11fde0,2021-07-29_23h55.46.555,Simcolourproject_2stim_asymm_v5,2020.2.10,MacIntel,60,61025ae37ef11b136ea224fe,,,,,,,,,1432,46,81,1,0,0,response1disk,,7,7,3,1,0,0,rectangle,7,3,1,0,0,7,3,1,0,0,0,117,117,42,1,,,,,,,,
,,,,,,,,,,,,,FF,,,,,,,,0.667,,,,,,,,,,,,,,,,,,,,,,60ff8d646f5ecca6f516a910,610377ecf215faab0a11fde0,2021-07-29_23h55.46.555,Simcolourproject_2stim_asymm_v5,2020.2.10,MacIntel,60,61025ae37ef11b136ea224fe,,,,,,,,,1552,45,92,1,0,0,response1disk,,7,7,10,1,0,0,rectangle,7,10,1,0,0,7,10,1,0,0,0,118,118,65,1,,,,,,,,
,,,,,,,,,,,,,FF,,,,,,,,1.184,,,,,,,,,,,,,,,,,,,,,,60ff8d646f5ecca6f516a910,610377ecf215faab0a11fde0,2021-07-29_23h55.46.555,Simcolourproject_2stim_asymm_v5,2020.2.10,MacIntel,60,61025ae37ef11b136ea224fe,,,,,,,,,658,65,-38,1,0,0,response3disk,,5,5,0,1,0,0,rectangle,5,0,1,0,0,5,0,1,0,0,0,119,119,78,1,,,,,,,,
,,,,,,,,,,,,,FF,,,,,,,,0.967,,,,,,,,,,,,,,,,,,,,,,60ff8d646f5ecca6f516a910,610377ecf215faab0a11fde0,2021-07-29_23h55.46.555,Simcolourproject_2stim_asymm_v5,2020.2.10,MacIntel,60,61025ae37ef11b136ea224fe,,,,,,,,,2002,54,112,1,0,0,response1disk,,7,8,9,1,0,0,rectangle,20,-94,1,0,0,6,11,1,0,0,0,120,120,99,1,,response3disk_3,TRUE,4,4,"[121,137,167,168,186,211,284,37,6,110,195,223,67,183,133,281,134,272,223,136]",2.051,rectangle
,,,,,,,,,,,,,FF,,,,,,,,1.633,,,,,,,,,,,,,,,,,,,,,,60ff8d646f5ecca6f516a910,610377ecf215faab0a11fde0,2021-07-29_23h55.46.555,Simcolourproject_2stim_asymm_v5,2020.2.10,MacIntel,60,61025ae37ef11b136ea224fe,,,,,,,,,486,31,59,1,0,0,response1disk,,7,17,11,1,0,0,rectangle,17,11,1,0,0,17,11,1,0,0,0,121,121,142,1,,,,,,,,
,,,,,,,,,,,,,FF,,,,,,,,0.851,,,,,,,,,,,,,,,,,,,,,,60ff8d646f5ecca6f516a910,610377ecf215faab0a11fde0,2021-07-29_23h55.46.555,Simcolourproject_2stim_asymm_v5,2020.2.10,MacIntel,60,61025ae37ef11b136ea224fe,,,,,,,,,1094,39,73,1,0,0,response1disk,,7,10,6,1,0,0,rectangle,10,6,1,0,0,10,6,1,0,0,0,122,122,6,1,,,,,,,,
,,,,,,,,,,,,,FF,,,,,,,,1.468,,,,,,,,,,,,,,,,,,,,,,60ff8d646f5ecca6f516a910,610377ecf215faab0a11fde0,2021-07-29_23h55.46.555,Simcolourproject_2stim_asymm_v5,2020.2.10,MacIntel,60,61025ae37ef11b136ea224fe,,,,,,,,,2332,70,-47,1,0,0,response3disk,,5,4,9,1,0,0,rectangle,4,9,1,0,0,4,9,1,0,0,0,123,123,125,1,,,,,,,,
,,,,,,,,,,,,,FF,,,,,,,,1.183,,,,,,,,,,,,,,,,,,,,,,60ff8d646f5ecca6f516a910,610377ecf215faab0a11fde0,2021-07-29_23h55.46.555,Simcolourproject_2stim_asymm_v5,2020.2.10,MacIntel,60,61025ae37ef11b136ea224fe,,,,,,,,,710,86,35,1,0,0,response1disk,,6,10,-6,1,0,0,rectangle,10,-6,1,0,0,10,-6,1,0,0,0,124,124,119,1,,,,,,,,
,,,,,,,,,,,,,FF,,,,,,,,1.417,,,,,,,,,,,,,,,,,,,,,,60ff8d646f5ecca6f516a910,610377ecf215faab0a11fde0,2021-07-29_23h55.46.555,Simcolourproject_2stim_asymm_v5,2020.2.10,MacIntel,60,61025ae37ef11b136ea224fe,,,,,,,,,1962,-77,-35,1,0,0,response5disk,,2,5,-4,1,0,0,rectangle,5,-4,1,0,0,5,-4,1,0,0,0,125,125,20,1,,,,,,,,
,,,,,,,,,,,,,FF,,,,,,,,0.984,,,,,,,,,,,,,,,,,,,,,,60ff8d646f5ecca6f516a910,610377ecf215faab0a11fde0,2021-07-29_23h55.46.555,Simcolourproject_2stim_asymm_v5,2020.2.10,MacIntel,60,61025ae37ef11b136ea224fe,,,,,,,,,372,-47,-82,1,0,0,response5disk,,3,-6,3,1,0,0,rectangle,-6,3,1,0,0,-6,3,1,0,0,0,126,126,87,1,,,,,,,,
,,,,,,,,,,,,,FF,,,,,,,,0.699,,,,,,,,,,,,,,,,,,,,,,60ff8d646f5ecca6f516a910,610377ecf215faab0a11fde0,2021-07-29_23h55.46.555,Simcolourproject_2stim_asymm_v5,2020.2.10,MacIntel,60,61025ae37ef11b136ea224fe,,,,,,,,,1987,39,81,1,0,0,response1disk,,7,-13,6,1,0,0,rectangle,-13,6,1,0,0,-13,6,1,0,0,0,127,127,133,1,,,,,,,,
,,,,,,,,,,,,,FF,,,,,,,,3.249,,,,,,,,,,,,,,,,,,,,,,60ff8d646f5ecca6f516a910,610377ecf215faab0a11fde0,2021-07-29_23h55.46.555,Simcolourproject_2stim_asymm_v5,2020.2.10,MacIntel,60,61025ae37ef11b136ea224fe,,,,,,,,,2149,55,70,1,0,0,response1disk,,7,18,17,1,0,0,rectangle,18,17,1,0,0,18,17,1,0,0,0,128,128,145,1,,,,,,,,
,,,,,,,,,,,,,FF,,,,,,,,1.417,,,,,,,,,,,,,,,,,,,,,,60ff8d646f5ecca6f516a910,610377ecf215faab0a11fde0,2021-07-29_23h55.46.555,Simcolourproject_2stim_asymm_v5,2020.2.10,MacIntel,60,61025ae37ef11b136ea224fe,,,,,,,,,2755,41,79,1,0,0,response1disk,,7,5,-9,1,0,0,rectangle,5,-9,1,0,0,5,-9,1,0,0,0,129,129,2,1,,,,,,,,
,,,,,,,,,,,,,FF,,,,,,,,0.95,,,,,,,,,,,,,,,,,,,,,,60ff8d646f5ecca6f516a910,610377ecf215faab0a11fde0,2021-07-29_23h55.46.555,Simcolourproject_2stim_asymm_v5,2020.2.10,MacIntel,60,61025ae37ef11b136ea224fe,,,,,,,,,979,32,-72,1,0,0,response3disk,,4,10,-3,1,0,0,rectangle,10,-3,1,0,0,10,-3,1,0,0,0,130,130,139,1,,,,,,,,
,,,,,,,,,,,,,FF,,,,,,,,1.283,,,,,,,,,,,,,,,,,,,,,,60ff8d646f5ecca6f516a910,610377ecf215faab0a11fde0,2021-07-29_23h55.46.555,Simcolourproject_2stim_asymm_v5,2020.2.10,MacIntel,60,61025ae37ef11b136ea224fe,,,,,,,,,35,51,-74,1,0,0,response3disk,,4,10,-11,1,0,0,rectangle,10,-11,1,0,0,10,-11,1,0,0,0,131,131,7,1,,,,,,,,
,,,,,,,,,,,,,FF,,,,,,,,1.033,,,,,,,,,,,,,,,,,,,,,,60ff8d646f5ecca6f516a910,610377ecf215faab0a11fde0,2021-07-29_23h55.46.555,Simcolourproject_2stim_asymm_v5,2020.2.10,MacIntel,60,61025ae37ef11b136ea224fe,,,,,,,,,1053,-29,-85,1,0,0,response5disk,,3,-2,10,1,0,0,rectangle,-45,71,1,0,0,-4,7,1,0,0,0,132,132,11,1,,response7disk_3,TRUE,0,0,"[121,137,167,168,186,211,284,37,6,110,195,223,67,183,133,281,134,272,223,136]",1.416,rectangle
,,,,,,,,,,,,,FF,,,,,,,,1.117,,,,,,,,,,,,,,,,,,,,,,60ff8d646f5ecca6f516a910,610377ecf215faab0a11fde0,2021-07-29_23h55.46.555,Simcolourproject_2stim_asymm_v5,2020.2.10,MacIntel,60,61025ae37ef11b136ea224fe,,,,,,,,,2161,32,-48,1,0,0,response3disk,,4,23,10,1,0,0,rectangle,-97,-58,1,0,0,11,6,1,0,0,0,133,133,33,1,,response5disk_3,TRUE,2,2,"[121,137,167,168,186,211,284,37,6,110,195,223,67,183,133,281,134,272,223,136]",1.867,rectangle
,,,,,,,,,,,,,FF,,,,,,,,0.849,,,,,,,,,,,,,,,,,,,,,,60ff8d646f5ecca6f516a910,610377ecf215faab0a11fde0,2021-07-29_23h55.46.555,Simcolourproject_2stim_asymm_v5,2020.2.10,MacIntel,60,61025ae37ef11b136ea224fe,,,,,,,,,2028,27,-43,1,0,0,response3disk,,4,23,-6,1,0,0,rectangle,23,-6,1,0,0,23,-6,1,0,0,0,134,134,17,1,,,,,,,,
,,,,,,,,,,,,,FF,,,,,,,,1.583,,,,,,,,,,,,,,,,,,,,,,60ff8d646f5ecca6f516a910,610377ecf215faab0a11fde0,2021-07-29_23h55.46.555,Simcolourproject_2stim_asymm_v5,2020.2.10,MacIntel,60,61025ae37ef11b136ea224fe,,,,,,,,,905,41,71,1,0,0,response1disk,,7,8,-4,1,0,0,rectangle,90,56,1,0,0,6,-7,1,0,0,0,135,135,110,1,,response1disk_3,TRUE,6,6,"[121,137,167,168,186,211,284,37,6,110,195,223,67,183,133,281,134,272,223,136]",1.467,rectangle
,,,,,,,,,,,,,FF,,,,,,,,0.733,,,,,,,,,,,,,,,,,,,,,,60ff8d646f5ecca6f516a910,610377ecf215faab0a11fde0,2021-07-29_23h55.46.555,Simcolourproject_2stim_asymm_v5,2020.2.10,MacIntel,60,61025ae37ef11b136ea224fe,,,,,,,,,2908,67,51,1,0,0,response1disk,,6,6,4,1,0,0,rectangle,-87,22,1,0,0,9,1,1,0,0,0,136,136,60,1,,response7disk_3,TRUE,1,1,"[121,137,167,168,186,211,284,37,6,110,195,223,67,183,133,281,134,272,223,136]",1.382,rectangle
,,,,,,,,,,,,,FF,,,,,,,,2.066,,,,,,,,,,,,,,,,,,,,,,60ff8d646f5ecca6f516a910,610377ecf215faab0a11fde0,2021-07-29_23h55.46.555,Simcolourproject_2stim_asymm_v5,2020.2.10,MacIntel,60,61025ae37ef11b136ea224fe,,,,,,,,,1034,61,-32,1,0,0,response3disk,,5,-2,16,1,0,0,rectangle,-2,16,1,0,0,-2,16,1,0,0,0,137,137,118,1,,,,,,,,
,,,,,,,,,,,,,FF,,,,,,,,2.266,,,,,,,,,,,,,,,,,,,,,,60ff8d646f5ecca6f516a910,610377ecf215faab0a11fde0,2021-07-29_23h55.46.555,Simcolourproject_2stim_asymm_v5,2020.2.10,MacIntel,60,61025ae37ef11b136ea224fe,,,,,,,,,2397,28,57,1,0,0,response1disk,,7,3,5,1,0,0,rectangle,3,5,1,0,0,3,5,1,0,0,0,138,138,46,1,,,,,,,,
,,,,,,,,,,,,,FF,,,,,,,,2.551,,,,,,,,,,,,,,,,,,,,,,60ff8d646f5ecca6f516a910,610377ecf215faab0a11fde0,2021-07-29_23h55.46.555,Simcolourproject_2stim_asymm_v5,2020.2.10,MacIntel,60,61025ae37ef11b136ea224fe,,,,,,,,,959,58,97,1,0,0,response1disk,,7,6,-3,1,0,0,rectangle,6,-3,1,0,0,6,-3,1,0,0,0,139,139,121,1,,,,,,,,
,,,,,,,,,,,,,FF,,,,,,,,1.068,,,,,,,,,,,,,,,,,,,,,,60ff8d646f5ecca6f516a910,610377ecf215faab0a11fde0,2021-07-29_23h55.46.555,Simcolourproject_2stim_asymm_v5,2020.2.10,MacIntel,60,61025ae37ef11b136ea224fe,,,,,,,,,3985,39,92,1,0,0,response1disk,,7,1,-13,1,0,0,rectangle,1,-13,1,0,0,1,-13,1,0,0,0,140,140,155,1,,,,,,,,
,,,,,,,,,,,,,FF,,,,,,,,4.316,,,,,,,,,,,,,,,,,,,,,,60ff8d646f5ecca6f516a910,610377ecf215faab0a11fde0,2021-07-29_23h55.46.555,Simcolourproject_2stim_asymm_v5,2020.2.10,MacIntel,60,61025ae37ef11b136ea224fe,,,,,,,,,4122,61,33,1,0,0,response1disk,,6,19,9,1,0,0,rectangle,19,9,1,0,0,19,9,1,0,0,0,141,141,120,1,,,,,,,,
,,,,,,,,,,,,,FF,,,,,,,,1.032,,,,,,,,,,,,,,,,,,,,,,60ff8d646f5ecca6f516a910,610377ecf215faab0a11fde0,2021-07-29_23h55.46.555,Simcolourproject_2stim_asymm_v5,2020.2.10,MacIntel,60,61025ae37ef11b136ea224fe,,,,,,,,,2806,35,-17,1,0,0,response3disk,,5,13,2,1,0,0,rectangle,13,2,1,0,0,13,2,1,0,0,0,142,142,76,1,,,,,,,,
,,,,,,,,,,,,,FF,,,,,,,,2.567,,,,,,,,,,,,,,,,,,,,,,60ff8d646f5ecca6f516a910,610377ecf215faab0a11fde0,2021-07-29_23h55.46.555,Simcolourproject_2stim_asymm_v5,2020.2.10,MacIntel,60,61025ae37ef11b136ea224fe,,,,,,,,,1761,29,-49,1,0,0,response3disk,,4,17,-4,1,0,0,rectangle,17,-4,1,0,0,17,-4,1,0,0,0,143,143,66,1,,,,,,,,
,,,,,,,,,,,,,FF,,,,,,,,1.151,,,,,,,,,,,,,,,,,,,,,,60ff8d646f5ecca6f516a910,610377ecf215faab0a11fde0,2021-07-29_23h55.46.555,Simcolourproject_2stim_asymm_v5,2020.2.10,MacIntel,60,61025ae37ef11b136ea224fe,,,,,,,,,3679,34,-55,1,0,0,response3disk,,4,4,-4,1,0,0,rectangle,4,-4,1,0,0,4,-4,1,0,0,0,144,144,62,1,,,,,,,,
,,,,,,,,,,,,,FF,,,,,,,,0.749,,,,,,,,,,,,,,,,,,,,,,60ff8d646f5ecca6f516a910,610377ecf215faab0a11fde0,2021-07-29_23h55.46.555,Simcolourproject_2stim_asymm_v5,2020.2.10,MacIntel,60,61025ae37ef11b136ea224fe,,,,,,,,,1700,37,88,1,0,0,response1disk,,7,-10,2,1,0,0,rectangle,-10,2,1,0,0,-10,2,1,0,0,0,145,145,153,1,,,,,,,,
,,,,,,,,,,,,,FF,,,,,,,,1.367,,,,,,,,,,,,,,,,,,,,,,60ff8d646f5ecca6f516a910,610377ecf215faab0a11fde0,2021-07-29_23h55.46.555,Simcolourproject_2stim_asymm_v5,2020.2.10,MacIntel,60,61025ae37ef11b136ea224fe,,,,,,,,,1554,44,-29,1,0,0,response3disk,,5,-2,4,1,0,0,rectangle,-2,4,1,0,0,-2,4,1,0,0,0,146,146,96,1,,,,,,,,
,,,,,,,,,,,,,FF,,,,,,,,3.682,,,,,,,,,,,,,,,,,,,,,,60ff8d646f5ecca6f516a910,610377ecf215faab0a11fde0,2021-07-29_23h55.46.555,Simcolourproject_2stim_asymm_v5,2020.2.10,MacIntel,60,61025ae37ef11b136ea224fe,,,,,,,,,3180,41,106,1,0,0,response1disk,,7,3,5,1,0,0,rectangle,3,5,1,0,0,3,5,1,0,0,0,147,147,74,1,,,,,,,,
,,,,,,,,,,,,,FF,,,,,,,,1.016,,,,,,,,,,,,,,,,,,,,,,60ff8d646f5ecca6f516a910,610377ecf215faab0a11fde0,2021-07-29_23h55.46.555,Simcolourproject_2stim_asymm_v5,2020.2.10,MacIntel,60,61025ae37ef11b136ea224fe,,,,,,,,,2253,66,-26,1,0,0,response3disk,,5,-2,4,1,0,0,rectangle,-2,4,1,0,0,-2,4,1,0,0,0,148,148,113,1,,,,,,,,
,,,,,,,,,,,,,FF,,,,,,,,0.884,,,,,,,,,,,,,,,,,,,,,,60ff8d646f5ecca6f516a910,610377ecf215faab0a11fde0,2021-07-29_23h55.46.555,Simcolourproject_2stim_asymm_v5,2020.2.10,MacIntel,60,61025ae37ef11b136ea224fe,,,,,,,,,433,38,-55,1,0,0,response3disk,,4,0,3,1,0,0,rectangle,0,3,1,0,0,0,3,1,0,0,0,149,149,63,1,,,,,,,,
,,,,,,,,,,,,,FF,,,,,,,,1.849,,,,,,,,,,,,,,,,,,,,,,60ff8d646f5ecca6f516a910,610377ecf215faab0a11fde0,2021-07-29_23h55.46.555,Simcolourproject_2stim_asymm_v5,2020.2.10,MacIntel,60,61025ae37ef11b136ea224fe,,,,,,,,,4239,-31,-63,1,0,0,response5disk,,3,-10,5,1,0,0,rectangle,-10,5,1,0,0,-10,5,1,0,0,0,150,150,157,1,,,,,,,,
,,,,,,,,,,,,,FF,,,,,,,,0.668,,,,,,,,,,,,,,,,,,,,,,60ff8d646f5ecca6f516a910,610377ecf215faab0a11fde0,2021-07-29_23h55.46.555,Simcolourproject_2stim_asymm_v5,2020.2.10,MacIntel,60,61025ae37ef11b136ea224fe,,,,,,,,,802,-26,-46,1,0,0,response5disk,,3,3,4,1,0,0,rectangle,3,4,1,0,0,3,4,1,0,0,0,151,151,15,1,,,,,,,,
,,,,,,,,,,,,,FF,,,,,,,,0.616,,,,,,,,,,,,,,,,,,,,,,60ff8d646f5ecca6f516a910,610377ecf215faab0a11fde0,2021-07-29_23h55.46.555,Simcolourproject_2stim_asymm_v5,2020.2.10,MacIntel,60,61025ae37ef11b136ea224fe,,,,,,,,,4115,26,86,1,0,0,response1disk,,7,6,2,1,0,0,rectangle,6,2,1,0,0,6,2,1,0,0,0,152,152,0,1,,,,,,,,
,,,,,,,,,,,,,FF,,,,,,,,0.951,,,,,,,,,,,,,,,,,,,,,,60ff8d646f5ecca6f516a910,610377ecf215faab0a11fde0,2021-07-29_23h55.46.555,Simcolourproject_2stim_asymm_v5,2020.2.10,MacIntel,60,61025ae37ef11b136ea224fe,,,,,,,,,3773,37,67,1,0,0,response1disk,,7,-9,-11,1,0,0,rectangle,-9,-11,1,0,0,-9,-11,1,0,0,0,153,153,38,1,,,,,,,,
,,,,,,,,,,,,,FF,,,,,,,,0.683,,,,,,,,,,,,,,,,,,,,,,60ff8d646f5ecca6f516a910,610377ecf215faab0a11fde0,2021-07-29_23h55.46.555,Simcolourproject_2stim_asymm_v5,2020.2.10,MacIntel,60,61025ae37ef11b136ea224fe,,,,,,,,,740,-46,-47,1,0,0,response5disk,,3,-12,-2,1,0,0,rectangle,-12,-2,1,0,0,-12,-2,1,0,0,0,154,154,31,1,,,,,,,,
,,,,,,,,,,,,,FF,,,,,,,,0.833,,,,,,,,,,,,,,,,,,,,,,60ff8d646f5ecca6f516a910,610377ecf215faab0a11fde0,2021-07-29_23h55.46.555,Simcolourproject_2stim_asymm_v5,2020.2.10,MacIntel,60,61025ae37ef11b136ea224fe,,,,,,,,,973,-74,-18,1,0,0,response5disk,,2,-17,7,1,0,0,rectangle,-17,7,1,0,0,-17,7,1,0,0,0,155,155,70,1,,,,,,,,
,,,,,,,,,,,,,FF,,,,,,,,0.716,,,,,,,,,,,,,,,,,,,,,,60ff8d646f5ecca6f516a910,610377ecf215faab0a11fde0,2021-07-29_23h55.46.555,Simcolourproject_2stim_asymm_v5,2020.2.10,MacIntel,60,61025ae37ef11b136ea224fe,,,,,,,,,2138,42,84,1,0,0,response1disk,,7,-3,1,1,0,0,rectangle,-3,1,1,0,0,-3,1,1,0,0,0,156,156,24,1,,,,,,,,
,,,,,,,,,,,,,FF,,,,,,,,0.651,,,,,,,,,,,,,,,,,,,,,,60ff8d646f5ecca6f516a910,610377ecf215faab0a11fde0,2021-07-29_23h55.46.555,Simcolourproject_2stim_asymm_v5,2020.2.10,MacIntel,60,61025ae37ef11b136ea224fe,,,,,,,,,2292,-61,75,1,0,0,response7disk,,0,-2,4,1,0,0,rectangle,-2,4,1,0,0,-2,4,1,0,0,0,157,157,44,1,,,,,,,,
,,,,,,,,,,,,,FF,,,,,,,,0.717,,,,,,,,,,,,,,,,,,,,,,60ff8d646f5ecca6f516a910,610377ecf215faab0a11fde0,2021-07-29_23h55.46.555,Simcolourproject_2stim_asymm_v5,2020.2.10,MacIntel,60,61025ae37ef11b136ea224fe,,,,,,,,,4330,40,89,1,0,0,response1disk,,7,4,8,1,0,0,rectangle,4,8,1,0,0,4,8,1,0,0,0,158,158,107,1,,,,,,,,
,,,,,,,,,,,,,FF,,,,,,,,1.001,,,,,,,,,,,,,,,,,,,,,,60ff8d646f5ecca6f516a910,610377ecf215faab0a11fde0,2021-07-29_23h55.46.555,Simcolourproject_2stim_asymm_v5,2020.2.10,MacIntel,60,61025ae37ef11b136ea224fe,,,,,,,,,2229,40,-43,1,0,0,response3disk,,4,4,3,1,0,0,rectangle,4,3,1,0,0,4,3,1,0,0,0,159,159,86,1,,,,,,,,
,,,,,,,,,,,,,FF,,,,,,,,0.916,,,,,,,,,,,,,,,,,,,,,,60ff8d646f5ecca6f516a910,610377ecf215faab0a11fde0,2021-07-29_23h55.46.555,Simcolourproject_2stim_asymm_v5,2020.2.10,MacIntel,60,61025ae37ef11b136ea224fe,,,,,,,,,4061,-19,-46,1,0,0,response5disk,,3,5,-7,1,0,0,rectangle,5,-7,1,0,0,5,-7,1,0,0,1,0,160,39,1,,,,,,,,
,,,,,,,,,,,,,FF,,,,,,,,0.783,,,,,,,,,,,,,,,,,,,,,,60ff8d646f5ecca6f516a910,610377ecf215faab0a11fde0,2021-07-29_23h55.46.555,Simcolourproject_2stim_asymm_v5,2020.2.10,MacIntel,60,61025ae37ef11b136ea224fe,,,,,,,,,528,-28,-61,1,0,0,response5disk,,3,2,6,1,0,0,rectangle,2,6,1,0,0,2,6,1,0,0,1,1,161,69,1,,,,,,,,
,,,,,,,,,,,,,FF,,,,,,,,0.984,,,,,,,,,,,,,,,,,,,,,,60ff8d646f5ecca6f516a910,610377ecf215faab0a11fde0,2021-07-29_23h55.46.555,Simcolourproject_2stim_asymm_v5,2020.2.10,MacIntel,60,61025ae37ef11b136ea224fe,,,,,,,,,886,-64,33,1,0,0,response7disk,,1,1,4,1,0,0,rectangle,1,4,1,0,0,1,4,1,0,0,1,2,162,104,1,,,,,,,,
,,,,,,,,,,,,,FF,,,,,,,,1.049,,,,,,,,,,,,,,,,,,,,,,60ff8d646f5ecca6f516a910,610377ecf215faab0a11fde0,2021-07-29_23h55.46.555,Simcolourproject_2stim_asymm_v5,2020.2.10,MacIntel,60,61025ae37ef11b136ea224fe,,,,,,,,,622,49,26,1,0,0,response1disk,,6,-11,4,1,0,0,rectangle,-11,4,1,0,0,-11,4,1,0,0,1,3,163,53,1,,,,,,,,
,,,,,,,,,,,,,FF,,,,,,,,0.766,,,,,,,,,,,,,,,,,,,,,,60ff8d646f5ecca6f516a910,610377ecf215faab0a11fde0,2021-07-29_23h55.46.555,Simcolourproject_2stim_asymm_v5,2020.2.10,MacIntel,60,61025ae37ef11b136ea224fe,,,,,,,,,752,63,83,1,0,0,response1disk,,7,1,6,1,0,0,rectangle,1,6,1,0,0,1,6,1,0,0,1,4,164,30,1,,,,,,,,
,,,,,,,,,,,,,FF,,,,,,,,1.45,,,,,,,,,,,,,,,,,,,,,,60ff8d646f5ecca6f516a910,610377ecf215faab0a11fde0,2021-07-29_23h55.46.555,Simcolourproject_2stim_asymm_v5,2020.2.10,MacIntel,60,61025ae37ef11b136ea224fe,,,,,,,,,3896,30,-50,1,0,0,response3disk,,4,2,-2,1,0,0,rectangle,2,-2,1,0,0,2,-2,1,0,0,1,5,165,31,1,,,,,,,,
,,,,,,,,,,,,,FF,,,,,,,,0.933,,,,,,,,,,,,,,,,,,,,,,60ff8d646f5ecca6f516a910,610377ecf215faab0a11fde0,2021-07-29_23h55.46.555,Simcolourproject_2stim_asymm_v5,2020.2.10,MacIntel,60,61025ae37ef11b136ea224fe,,,,,,,,,2638,38,56,1,0,0,response1disk,,7,1,-1,1,0,0,rectangle,24,-54,1,0,0,12,0,1,0,0,1,6,166,61,1,,response3disk_3,TRUE,4,4,"[121,137,167,168,186,211,284,37,6,110,195,223,67,183,133,281,134,272,223,136]",1.249,rectangle
,,,,,,,,,,,,,FF,,,,,,,,0.717,,,,,,,,,,,,,,,,,,,,,,60ff8d646f5ecca6f516a910,610377ecf215faab0a11fde0,2021-07-29_23h55.46.555,Simcolourproject_2stim_asymm_v5,2020.2.10,MacIntel,60,61025ae37ef11b136ea224fe,,,,,,,,,3441,-38,-65,1,0,0,response5disk,,3,0,-5,1,0,0,rectangle,18,-51,1,0,0,15,16,1,0,0,1,7,167,125,1,,response3disk_3,TRUE,4,4,"[121,137,167,168,186,211,284,37,6,110,195,223,67,183,133,281,134,272,223,136]",1.533,rectangle
,,,,,,,,,,,,,FF,,,,,,,,0.801,,,,,,,,,,,,,,,,,,,,,,60ff8d646f5ecca6f516a910,610377ecf215faab0a11fde0,2021-07-29_23h55.46.555,Simcolourproject_2stim_asymm_v5,2020.2.10,MacIntel,60,61025ae37ef11b136ea224fe,,,,,,,,,226,38,81,1,0,0,response1disk,,7,0,-2,1,0,0,rectangle,0,-2,1,0,0,0,-2,1,0,0,1,8,168,76,1,,,,,,,,
,,,,,,,,,,,,,FF,,,,,,,,1.1,,,,,,,,,,,,,,,,,,,,,,60ff8d646f5ecca6f516a910,610377ecf215faab0a11fde0,2021-07-29_23h55.46.555,Simcolourproject_2stim_asymm_v5,2020.2.10,MacIntel,60,61025ae37ef11b136ea224fe,,,,,,,,,2128,43,107,1,0,0,response1disk,,7,-7,0,1,0,0,rectangle,-7,0,1,0,0,-7,0,1,0,0,1,9,169,77,1,,,,,,,,
,,,,,,,,,,,,,FF,,,,,,,,0.666,,,,,,,,,,,,,,,,,,,,,,60ff8d646f5ecca6f516a910,610377ecf215faab0a11fde0,2021-07-29_23h55.46.555,Simcolourproject_2stim_asymm_v5,2020.2.10,MacIntel,60,61025ae37ef11b136ea224fe,,,,,,,,,4287,40,96,1,0,0,response1disk,,7,-3,-6,1,0,0,rectangle,-3,-6,1,0,0,-3,-6,1,0,0,1,10,170,23,1,,,,,,,,
,,,,,,,,,,,,,FF,,,,,,,,0.517,,,,,,,,,,,,,,,,,,,,,,60ff8d646f5ecca6f516a910,610377ecf215faab0a11fde0,2021-07-29_23h55.46.555,Simcolourproject_2stim_asymm_v5,2020.2.10,MacIntel,60,61025ae37ef11b136ea224fe,,,,,,,,,326,45,68,1,0,0,response1disk,,7,4,-6,1,0,0,rectangle,4,-6,1,0,0,4,-6,1,0,0,1,11,171,36,1,,,,,,,,
,,,,,,,,,,,,,FF,,,,,,,,0.582,,,,,,,,,,,,,,,,,,,,,,60ff8d646f5ecca6f516a910,610377ecf215faab0a11fde0,2021-07-29_23h55.46.555,Simcolourproject_2stim_asymm_v5,2020.2.10,MacIntel,60,61025ae37ef11b136ea224fe,,,,,,,,,2722,-32,-52,1,0,0,response5disk,,3,-8,1,1,0,0,rectangle,-8,1,1,0,0,-8,1,1,0,0,1,12,172,127,1,,,,,,,,
,,,,,,,,,,,,,FF,,,,,,,,1.15,,,,,,,,,,,,,,,,,,,,,,60ff8d646f5ecca6f516a910,610377ecf215faab0a11fde0,2021-07-29_23h55.46.555,Simcolourproject_2stim_asymm_v5,2020.2.10,MacIntel,60,61025ae37ef11b136ea224fe,,,,,,,,,2073,32,57,1,0,0,response1disk,,7,-3,-14,1,0,0,rectangle,-3,-14,1,0,0,-3,-14,1,0,0,1,13,173,1,1,,,,,,,,
,,,,,,,,,,,,,FF,,,,,,,,0.833,,,,,,,,,,,,,,,,,,,,,,60ff8d646f5ecca6f516a910,610377ecf215faab0a11fde0,2021-07-29_23h55.46.555,Simcolourproject_2stim_asymm_v5,2020.2.10,MacIntel,60,61025ae37ef11b136ea224fe,,,,,,,,,1822,-52,34,1,0,0,response7disk,,1,-3,14,1,0,0,rectangle,-3,14,1,0,0,-3,14,1,0,0,1,14,174,148,1,,,,,,,,
,,,,,,,,,,,,,FF,,,,,,,,0.55,,,,,,,,,,,,,,,,,,,,,,60ff8d646f5ecca6f516a910,610377ecf215faab0a11fde0,2021-07-29_23h55.46.555,Simcolourproject_2stim_asymm_v5,2020.2.10,MacIntel,60,61025ae37ef11b136ea224fe,,,,,,,,,3743,-37,64,1,0,0,response7disk,,0,-15,7,1,0,0,rectangle,-15,7,1,0,0,-15,7,1,0,0,1,15,175,45,1,,,,,,,,
,,,,,,,,,,,,,FF,,,,,,,,1.099,,,,,,,,,,,,,,,,,,,,,,60ff8d646f5ecca6f516a910,610377ecf215faab0a11fde0,2021-07-29_23h55.46.555,Simcolourproject_2stim_asymm_v5,2020.2.10,MacIntel,60,61025ae37ef11b136ea224fe,,,,,,,,,1505,30,70,1,0,0,response1disk,,7,13,12,1,0,0,rectangle,13,12,1,0,0,13,12,1,0,0,1,16,176,83,1,,,,,,,,
,,,,,,,,,,,,,FF,,,,,,,,0.467,,,,,,,,,,,,,,,,,,,,,,60ff8d646f5ecca6f516a910,610377ecf215faab0a11fde0,2021-07-29_23h55.46.555,Simcolourproject_2stim_asymm_v5,2020.2.10,MacIntel,60,61025ae37ef11b136ea224fe,,,,,,,,,1739,34,59,1,0,0,response1disk,,7,7,6,1,0,0,rectangle,7,6,1,0,0,7,6,1,0,0,1,17,177,49,1,,,,,,,,
,,,,,,,,,,,,,FF,,,,,,,,0.5,,,,,,,,,,,,,,,,,,,,,,60ff8d646f5ecca6f516a910,610377ecf215faab0a11fde0,2021-07-29_23h55.46.555,Simcolourproject_2stim_asymm_v5,2020.2.10,MacIntel,60,61025ae37ef11b136ea224fe,,,,,,,,,3701,33,80,1,0,0,response1disk,,7,5,-3,1,0,0,rectangle,5,-3,1,0,0,5,-3,1,0,0,1,18,178,118,1,,,,,,,,
,,,,,,,,,,,,,FF,,,,,,,,0.483,,,,,,,,,,,,,,,,,,,,,,60ff8d646f5ecca6f516a910,610377ecf215faab0a11fde0,2021-07-29_23h55.46.555,Simcolourproject_2stim_asymm_v5,2020.2.10,MacIntel,60,61025ae37ef11b136ea224fe,,,,,,,,,641,32,54,1,0,0,response1disk,,7,5,3,1,0,0,rectangle,5,3,1,0,0,5,3,1,0,0,1,19,179,18,1,,,,,,,,
,,,,,,,,,,,,,FF,,,,,,,,1.334,,,,,,,,,,,,,,,,,,,,,,60ff8d646f5ecca6f516a910,610377ecf215faab0a11fde0,2021-07-29_23h55.46.555,Simcolourproject_2stim_asymm_v5,2020.2.10,MacIntel,60,61025ae37ef11b136ea224fe,,,,,,,,,2287,59,25,1,0,0,response1disk,,6,-6,10,1,0,0,rectangle,-6,10,1,0,0,-6,10,1,0,0,1,20,180,16,1,,,,,,,,
,,,,,,,,,,,,,FF,,,,,,,,0.533,,,,,,,,,,,,,,,,,,,,,,60ff8d646f5ecca6f516a910,610377ecf215faab0a11fde0,2021-07-29_23h55.46.555,Simcolourproject_2stim_asymm_v5,2020.2.10,MacIntel,60,61025ae37ef11b136ea224fe,,,,,,,,,1660,26,64,1,0,0,response1disk,,7,5,10,1,0,0,rectangle,5,10,1,0,0,5,10,1,0,0,1,21,181,120,1,,,,,,,,
,,,,,,,,,,,,,FF,,,,,,,,1.35,,,,,,,,,,,,,,,,,,,,,,60ff8d646f5ecca6f516a910,610377ecf215faab0a11fde0,2021-07-29_23h55.46.555,Simcolourproject_2stim_asymm_v5,2020.2.10,MacIntel,60,61025ae37ef11b136ea224fe,,,,,,,,,3883,72,22,1,0,0,response1disk,,6,-5,5,1,0,0,rectangle,-35,-71,1,0,0,1,3,1,0,0,1,22,182,55,1,,response5disk_3,TRUE,3,3,"[121,137,167,168,186,211,284,37,6,110,195,223,67,183,133,281,134,272,223,136]",1.466,rectangle
,,,,,,,,,,,,,FF,,,,,,,,0.886,,,,,,,,,,,,,,,,,,,,,,60ff8d646f5ecca6f516a910,610377ecf215faab0a11fde0,2021-07-29_23h55.46.555,Simcolourproject_2stim_asymm_v5,2020.2.10,MacIntel,60,61025ae37ef11b136ea224fe,,,,,,,,,3151,-38,-44,1,0,0,response5disk,,3,10,7,1,0,0,rectangle,10,7,1,0,0,10,7,1,0,0,1,23,183,6,1,,,,,,,,
,,,,,,,,,,,,,FF,,,,,,,,1.116,,,,,,,,,,,,,,,,,,,,,,60ff8d646f5ecca6f516a910,610377ecf215faab0a11fde0,2021-07-29_23h55.46.555,Simcolourproject_2stim_asymm_v5,2020.2.10,MacIntel,60,61025ae37ef11b136ea224fe,,,,,,,,,3306,39,28,1,0,0,response1disk,,6,2,4,1,0,0,rectangle,2,4,1,0,0,2,4,1,0,0,1,24,184,108,1,,,,,,,,
,,,,,,,,,,,,,FF,,,,,,,,0.783,,,,,,,,,,,,,,,,,,,,,,60ff8d646f5ecca6f516a910,610377ecf215faab0a11fde0,2021-07-29_23h55.46.555,Simcolourproject_2stim_asymm_v5,2020.2.10,MacIntel,60,61025ae37ef11b136ea224fe,,,,,,,,,2320,32,68,1,0,0,response1disk,,7,7,10,1,0,0,rectangle,64,-48,1,0,0,1,0,1,0,0,1,25,185,67,1,,response3disk_3,TRUE,5,5,"[121,137,167,168,186,211,284,37,6,110,195,223,67,183,133,281,134,272,223,136]",1.233,rectangle
,,,,,,,,,,,,,FF,,,,,,,,1.132,,,,,,,,,,,,,,,,,,,,,,60ff8d646f5ecca6f516a910,610377ecf215faab0a11fde0,2021-07-29_23h55.46.555,Simcolourproject_2stim_asymm_v5,2020.2.10,MacIntel,60,61025ae37ef11b136ea224fe,,,,,,,,,2680,29,-70,1,0,0,response3disk,,4,7,9,1,0,0,rectangle,7,9,1,0,0,7,9,1,0,0,1,26,186,48,1,,,,,,,,
,,,,,,,,,,,,,FF,,,,,,,,0.984,,,,,,,,,,,,,,,,,,,,,,60ff8d646f5ecca6f516a910,610377ecf215faab0a11fde0,2021-07-29_23h55.46.555,Simcolourproject_2stim_asymm_v5,2020.2.10,MacIntel,60,61025ae37ef11b136ea224fe,,,,,,,,,3341,-43,-75,1,0,0,response5disk,,3,1,2,1,0,0,rectangle,1,2,1,0,0,1,2,1,0,0,1,27,187,103,1,,,,,,,,
,,,,,,,,,,,,,FF,,,,,,,,0.933,,,,,,,,,,,,,,,,,,,,,,60ff8d646f5ecca6f516a910,610377ecf215faab0a11fde0,2021-07-29_23h55.46.555,Simcolourproject_2stim_asymm_v5,2020.2.10,MacIntel,60,61025ae37ef11b136ea224fe,,,,,,,,,3083,38,83,1,0,0,response1disk,,7,4,1,1,0,0,rectangle,4,1,1,0,0,4,1,1,0,0,1,28,188,145,1,,,,,,,,
,,,,,,,,,,,,,FF,,,,,,,,1.199,,,,,,,,,,,,,,,,,,,,,,60ff8d646f5ecca6f516a910,610377ecf215faab0a11fde0,2021-07-29_23h55.46.555,Simcolourproject_2stim_asymm_v5,2020.2.10,MacIntel,60,61025ae37ef11b136ea224fe,,,,,,,,,642,85,44,1,0,0,response1disk,,6,-5,3,1,0,0,rectangle,-5,3,1,0,0,-5,3,1,0,0,1,29,189,126,1,,,,,,,,
,,,,,,,,,,,,,FF,,,,,,,,1.116,,,,,,,,,,,,,,,,,,,,,,60ff8d646f5ecca6f516a910,610377ecf215faab0a11fde0,2021-07-29_23h55.46.555,Simcolourproject_2stim_asymm_v5,2020.2.10,MacIntel,60,61025ae37ef11b136ea224fe,,,,,,,,,1611,55,-68,1,0,0,response3disk,,4,0,8,1,0,0,rectangle,0,8,1,0,0,0,8,1,0,0,1,30,190,132,1,,,,,,,,
,,,,,,,,,,,,,FF,,,,,,,,0.633,,,,,,,,,,,,,,,,,,,,,,60ff8d646f5ecca6f516a910,610377ecf215faab0a11fde0,2021-07-29_23h55.46.555,Simcolourproject_2stim_asymm_v5,2020.2.10,MacIntel,60,61025ae37ef11b136ea224fe,,,,,,,,,3268,40,72,1,0,0,response1disk,,7,5,1,1,0,0,rectangle,5,1,1,0,0,5,1,1,0,0,1,31,191,139,1,,,,,,,,
,,,,,,,,,,,,,FF,,,,,,,,0.868,,,,,,,,,,,,,,,,,,,,,,60ff8d646f5ecca6f516a910,610377ecf215faab0a11fde0,2021-07-29_23h55.46.555,Simcolourproject_2stim_asymm_v5,2020.2.10,MacIntel,60,61025ae37ef11b136ea224fe,,,,,,,,,67,92,42,1,0,0,response1disk,,6,-1,-4,1,0,0,rectangle,-1,-4,1,0,0,-1,-4,1,0,0,1,32,192,155,1,,,,,,,,
,,,,,,,,,,,,,FF,,,,,,,,1.034,,,,,,,,,,,,,,,,,,,,,,60ff8d646f5ecca6f516a910,610377ecf215faab0a11fde0,2021-07-29_23h55.46.555,Simcolourproject_2stim_asymm_v5,2020.2.10,MacIntel,60,61025ae37ef11b136ea224fe,,,,,,,,,1818,38,-76,1,0,0,response3disk,,4,4,-2,1,0,0,rectangle,4,-2,1,0,0,4,-2,1,0,0,1,33,193,50,1,,,,,,,,
,,,,,,,,,,,,,FF,,,,,,,,0.8,,,,,,,,,,,,,,,,,,,,,,60ff8d646f5ecca6f516a910,610377ecf215faab0a11fde0,2021-07-29_23h55.46.555,Simcolourproject_2stim_asymm_v5,2020.2.10,MacIntel,60,61025ae37ef11b136ea224fe,,,,,,,,,2404,36,88,1,0,0,response1disk,,7,0,2,1,0,0,rectangle,70,-32,1,0,0,-2,5,1,0,0,1,34,194,144,1,,response3disk_3,TRUE,5,5,"[121,137,167,168,186,211,284,37,6,110,195,223,67,183,133,281,134,272,223,136]",1.084,rectangle
,,,,,,,,,,,,,FF,,,,,,,,1.75,,,,,,,,,,,,,,,,,,,,,,60ff8d646f5ecca6f516a910,610377ecf215faab0a11fde0,2021-07-29_23h55.46.555,Simcolourproject_2stim_asymm_v5,2020.2.10,MacIntel,60,61025ae37ef11b136ea224fe,,,,,,,,,3769,73,69,1,0,0,response1disk,,6,1,6,1,0,0,rectangle,1,6,1,0,0,1,6,1,0,0,1,35,195,5,1,,,,,,,,
,,,,,,,,,,,,,FF,,,,,,,,1.1,,,,,,,,,,,,,,,,,,,,,,60ff8d646f5ecca6f516a910,610377ecf215faab0a11fde0,2021-07-29_23h55.46.555,Simcolourproject_2stim_asymm_v5,2020.2.10,MacIntel,60,61025ae37ef11b136ea224fe,,,,,,,,,3253,90,36,1,0,0,response1disk,,6,1,15,1,0,0,rectangle,1,15,1,0,0,1,15,1,0,0,1,36,196,152,1,,,,,,,,
,,,,,,,,,,,,,FF,,,,,,,,0.749,,,,,,,,,,,,,,,,,,,,,,60ff8d646f5ecca6f516a910,610377ecf215faab0a11fde0,2021-07-29_23h55.46.555,Simcolourproject_2stim_asymm_v5,2020.2.10,MacIntel,60,61025ae37ef11b136ea224fe,,,,,,,,,847,59,-31,1,0,0,response3disk,,5,-1,4,1,0,0,rectangle,-1,4,1,0,0,-1,4,1,0,0,1,37,197,60,1,,,,,,,,
,,,,,,,,,,,,,FF,,,,,,,,1.451,,,,,,,,,,,,,,,,,,,,,,60ff8d646f5ecca6f516a910,610377ecf215faab0a11fde0,2021-07-29_23h55.46.555,Simcolourproject_2stim_asymm_v5,2020.2.10,MacIntel,60,61025ae37ef11b136ea224fe,,,,,,,,,3734,60,-35,1,0,0,response3disk,,5,-2,-5,1,0,0,rectangle,-2,-5,1,0,0,-2,-5,1,0,0,1,38,198,82,1,,,,,,,,
,,,,,,,,,,,,,FF,,,,,,,,1.117,,,,,,,,,,,,,,,,,,,,,,60ff8d646f5ecca6f516a910,610377ecf215faab0a11fde0,2021-07-29_23h55.46.555,Simcolourproject_2stim_asymm_v5,2020.2.10,MacIntel,60,61025ae37ef11b136ea224fe,,,,,,,,,513,96,60,1,0,0,response1disk,,6,5,1,1,0,0,rectangle,5,1,1,0,0,5,1,1,0,0,1,39,199,26,1,,,,,,,,
,,,,,,,,,,,,,FF,,,,,,,,1.033,,,,,,,,,,,,,,,,,,,,,,60ff8d646f5ecca6f516a910,610377ecf215faab0a11fde0,2021-07-29_23h55.46.555,Simcolourproject_2stim_asymm_v5,2020.2.10,MacIntel,60,61025ae37ef11b136ea224fe,,,,,,,,,4036,72,53,1,0,0,response1disk,,6,-14,11,1,0,0,rectangle,-14,11,1,0,0,-14,11,1,0,0,1,40,200,141,1,,,,,,,,
,,,,,,,,,,,,,FF,,,,,,,,0.966,,,,,,,,,,,,,,,,,,,,,,60ff8d646f5ecca6f516a910,610377ecf215faab0a11fde0,2021-07-29_23h55.46.555,Simcolourproject_2stim_asymm_v5,2020.2.10,MacIntel,60,61025ae37ef11b136ea224fe,,,,,,,,,3547,43,-65,1,0,0,response3disk,,4,-7,-5,1,0,0,rectangle,-7,-5,1,0,0,-7,-5,1,0,0,1,41,201,57,1,,,,,,,,
,,,,,,,,,,,,,FF,,,,,,,,0.75,,,,,,,,,,,,,,,,,,,,,,60ff8d646f5ecca6f516a910,610377ecf215faab0a11fde0,2021-07-29_23h55.46.555,Simcolourproject_2stim_asymm_v5,2020.2.10,MacIntel,60,61025ae37ef11b136ea224fe,,,,,,,,,2043,59,82,1,0,0,response1disk,,7,-1,-7,1,0,0,rectangle,-1,-7,1,0,0,-1,-7,1,0,0,1,42,202,12,1,,,,,,,,
,,,,,,,,,,,,,FF,,,,,,,,0.8,,,,,,,,,,,,,,,,,,,,,,60ff8d646f5ecca6f516a910,610377ecf215faab0a11fde0,2021-07-29_23h55.46.555,Simcolourproject_2stim_asymm_v5,2020.2.10,MacIntel,60,61025ae37ef11b136ea224fe,,,,,,,,,3910,36,-64,1,0,0,response3disk,,4,-4,8,1,0,0,rectangle,-4,8,1,0,0,-4,8,1,0,0,1,43,203,0,1,,,,,,,,
,,,,,,,,,,,,,FF,,,,,,,,0.533,,,,,,,,,,,,,,,,,,,,,,60ff8d646f5ecca6f516a910,610377ecf215faab0a11fde0,2021-07-29_23h55.46.555,Simcolourproject_2stim_asymm_v5,2020.2.10,MacIntel,60,61025ae37ef11b136ea224fe,,,,,,,,,2584,26,72,1,0,0,response1disk,,7,-5,2,1,0,0,rectangle,-5,2,1,0,0,-5,2,1,0,0,1,44,204,2,1,,,,,,,,
,,,,,,,,,,,,,FF,,,,,,,,0.599,,,,,,,,,,,,,,,,,,,,,,60ff8d646f5ecca6f516a910,610377ecf215faab0a11fde0,2021-07-29_23h55.46.555,Simcolourproject_2stim_asymm_v5,2020.2.10,MacIntel,60,61025ae37ef11b136ea224fe,,,,,,,,,311,75,30,1,0,0,response1disk,,6,14,5,1,0,0,rectangle,14,5,1,0,0,14,5,1,0,0,1,45,205,87,1,,,,,,,,
,,,,,,,,,,,,,FF,,,,,,,,1.084,,,,,,,,,,,,,,,,,,,,,,60ff8d646f5ecca6f516a910,610377ecf215faab0a11fde0,2021-07-29_23h55.46.555,Simcolourproject_2stim_asymm_v5,2020.2.10,MacIntel,60,61025ae37ef11b136ea224fe,,,,,,,,,3815,-25,-94,1,0,0,response5disk,,3,4,11,1,0,0,rectangle,4,11,1,0,0,4,11,1,0,0,1,46,206,122,1,,,,,,,,
,,,,,,,,,,,,,FF,,,,,,,,0.583,,,,,,,,,,,,,,,,,,,,,,60ff8d646f5ecca6f516a910,610377ecf215faab0a11fde0,2021-07-29_23h55.46.555,Simcolourproject_2stim_asymm_v5,2020.2.10,MacIntel,60,61025ae37ef11b136ea224fe,,,,,,,,,3673,-27,-56,1,0,0,response5disk,,3,1,-4,1,0,0,rectangle,1,-4,1,0,0,1,-4,1,0,0,1,47,207,29,1,,,,,,,,
,,,,,,,,,,,,,FF,,,,,,,,0.666,,,,,,,,,,,,,,,,,,,,,,60ff8d646f5ecca6f516a910,610377ecf215faab0a11fde0,2021-07-29_23h55.46.555,Simcolourproject_2stim_asymm_v5,2020.2.10,MacIntel,60,61025ae37ef11b136ea224fe,,,,,,,,,940,53,117,1,0,0,response1disk,,7,-5,-18,1,0,0,rectangle,-5,-18,1,0,0,-5,-18,1,0,0,1,48,208,81,1,,,,,,,,
,,,,,,,,,,,,,FF,,,,,,,,1.066,,,,,,,,,,,,,,,,,,,,,,60ff8d646f5ecca6f516a910,610377ecf215faab0a11fde0,2021-07-29_23h55.46.555,Simcolourproject_2stim_asymm_v5,2020.2.10,MacIntel,60,61025ae37ef11b136ea224fe,,,,,,,,,23,46,-29,1,0,0,response3disk,,5,-1,-14,1,0,0,rectangle,-1,-14,1,0,0,-1,-14,1,0,0,1,49,209,46,1,,,,,,,,
,,,,,,,,,,,,,FF,,,,,,,,0.583,,,,,,,,,,,,,,,,,,,,,,60ff8d646f5ecca6f516a910,610377ecf215faab0a11fde0,2021-07-29_23h55.46.555,Simcolourproject_2stim_asymm_v5,2020.2.10,MacIntel,60,61025ae37ef11b136ea224fe,,,,,,,,,625,35,98,1,0,0,response1disk,,7,10,8,1,0,0,rectangle,40,-77,1,0,0,6,6,1,0,0,1,50,210,63,1,,response3disk_3,TRUE,4,4,"[121,137,167,168,186,211,284,37,6,110,195,223,67,183,133,281,134,272,223,136]",1.15,rectangle
,,,,,,,,,,,,,FF,,,,,,,,1.3,,,,,,,,,,,,,,,,,,,,,,60ff8d646f5ecca6f516a910,610377ecf215faab0a11fde0,2021-07-29_23h55.46.555,Simcolourproject_2stim_asymm_v5,2020.2.10,MacIntel,60,61025ae37ef11b136ea224fe,,,,,,,,,1350,70,-17,1,0,0,response3disk,,5,7,4,1,0,0,rectangle,7,4,1,0,0,7,4,1,0,0,1,51,211,19,1,,,,,,,,
,,,,,,,,,,,,,FF,,,,,,,,0.784,,,,,,,,,,,,,,,,,,,,,,60ff8d646f5ecca6f516a910,610377ecf215faab0a11fde0,2021-07-29_23h55.46.555,Simcolourproject_2stim_asymm_v5,2020.2.10,MacIntel,60,61025ae37ef11b136ea224fe,,,,,,,,,1889,-48,-69,1,0,0,response5disk,,3,-8,2,1,0,0,rectangle,-8,2,1,0,0,-8,2,1,0,0,1,52,212,158,1,,,,,,,,
,,,,,,,,,,,,,FF,,,,,,,,0.55,,,,,,,,,,,,,,,,,,,,,,60ff8d646f5ecca6f516a910,610377ecf215faab0a11fde0,2021-07-29_23h55.46.555,Simcolourproject_2stim_asymm_v5,2020.2.10,MacIntel,60,61025ae37ef11b136ea224fe,,,,,,,,,814,23,78,1,0,0,response1disk,,7,-9,-8,1,0,0,rectangle,-9,-8,1,0,0,-9,-8,1,0,0,1,53,213,114,1,,,,,,,,
,,,,,,,,,,,,,FF,,,,,,,,0.533,,,,,,,,,,,,,,,,,,,,,,60ff8d646f5ecca6f516a910,610377ecf215faab0a11fde0,2021-07-29_23h55.46.555,Simcolourproject_2stim_asymm_v5,2020.2.10,MacIntel,60,61025ae37ef11b136ea224fe,,,,,,,,,1741,48,85,1,0,0,response1disk,,7,-3,-5,1,0,0,rectangle,-3,-5,1,0,0,-3,-5,1,0,0,1,54,214,135,1,,,,,,,,
,,,,,,,,,,,,,FF,,,,,,,,0.666,,,,,,,,,,,,,,,,,,,,,,60ff8d646f5ecca6f516a910,610377ecf215faab0a11fde0,2021-07-29_23h55.46.555,Simcolourproject_2stim_asymm_v5,2020.2.10,MacIntel,60,61025ae37ef11b136ea224fe,,,,,,,,,529,53,-41,1,0,0,response3disk,,5,5,-4,1,0,0,rectangle,5,-4,1,0,0,5,-4,1,0,0,1,55,215,32,1,,,,,,,,
,,,,,,,,,,,,,FF,,,,,,,,0.65,,,,,,,,,,,,,,,,,,,,,,60ff8d646f5ecca6f516a910,610377ecf215faab0a11fde0,2021-07-29_23h55.46.555,Simcolourproject_2stim_asymm_v5,2020.2.10,MacIntel,60,61025ae37ef11b136ea224fe,,,,,,,,,1028,49,106,1,0,0,response1disk,,7,7,13,1,0,0,rectangle,7,13,1,0,0,7,13,1,0,0,1,56,216,79,1,,,,,,,,
,,,,,,,,,,,,,FF,,,,,,,,0.916,,,,,,,,,,,,,,,,,,,,,,60ff8d646f5ecca6f516a910,610377ecf215faab0a11fde0,2021-07-29_23h55.46.555,Simcolourproject_2stim_asymm_v5,2020.2.10,MacIntel,60,61025ae37ef11b136ea224fe,,,,,,,,,1853,83,62,1,0,0,response1disk,,6,-9,4,1,0,0,rectangle,-9,4,1,0,0,-9,4,1,0,0,1,57,217,115,1,,,,,,,,
,,,,,,,,,,,,,FF,,,,,,,,0.567,,,,,,,,,,,,,,,,,,,,,,60ff8d646f5ecca6f516a910,610377ecf215faab0a11fde0,2021-07-29_23h55.46.555,Simcolourproject_2stim_asymm_v5,2020.2.10,MacIntel,60,61025ae37ef11b136ea224fe,,,,,,,,,1954,52,101,1,0,0,response1disk,,7,-6,-8,1,0,0,rectangle,-6,-8,1,0,0,-6,-8,1,0,0,1,58,218,105,1,,,,,,,,
,,,,,,,,,,,,,FF,,,,,,,,0.483,,,,,,,,,,,,,,,,,,,,,,60ff8d646f5ecca6f516a910,610377ecf215faab0a11fde0,2021-07-29_23h55.46.555,Simcolourproject_2stim_asymm_v5,2020.2.10,MacIntel,60,61025ae37ef11b136ea224fe,,,,,,,,,2206,27,58,1,0,0,response1disk,,7,-6,-7,1,0,0,rectangle,-6,-7,1,0,0,-6,-7,1,0,0,1,59,219,47,1,,,,,,,,
,,,,,,,,,,,,,FF,,,,,,,,0.883,,,,,,,,,,,,,,,,,,,,,,60ff8d646f5ecca6f516a910,610377ecf215faab0a11fde0,2021-07-29_23h55.46.555,Simcolourproject_2stim_asymm_v5,2020.2.10,MacIntel,60,61025ae37ef11b136ea224fe,,,,,,,,,2323,36,99,1,0,0,response1disk,,7,-2,5,1,0,0,rectangle,-2,5,1,0,0,-2,5,1,0,0,1,60,220,153,1,,,,,,,,
,,,,,,,,,,,,,FF,,,,,,,,0.849,,,,,,,,,,,,,,,,,,,,,,60ff8d646f5ecca6f516a910,610377ecf215faab0a11fde0,2021-07-29_23h55.46.555,Simcolourproject_2stim_asymm_v5,2020.2.10,MacIntel,60,61025ae37ef11b136ea224fe,,,,,,,,,1465,78,32,1,0,0,response1disk,,6,2,8,1,0,0,rectangle,2,8,1,0,0,2,8,1,0,0,1,61,221,84,1,,,,,,,,
,,,,,,,,,,,,,FF,,,,,,,,1.267,,,,,,,,,,,,,,,,,,,,,,60ff8d646f5ecca6f516a910,610377ecf215faab0a11fde0,2021-07-29_23h55.46.555,Simcolourproject_2stim_asymm_v5,2020.2.10,MacIntel,60,61025ae37ef11b136ea224fe,,,,,,,,,2715,-63,-57,1,0,0,response5disk,,2,-5,2,1,0,0,rectangle,26,79,1,0,0,4,4,1,0,0,1,62,222,107,1,,response1disk_3,TRUE,7,7,"[121,137,167,168,186,211,284,37,6,110,195,223,67,183,133,281,134,272,223,136]",1.3,rectangle
,,,,,,,,,,,,,FF,,,,,,,,0.917,,,,,,,,,,,,,,,,,,,,,,60ff8d646f5ecca6f516a910,610377ecf215faab0a11fde0,2021-07-29_23h55.46.555,Simcolourproject_2stim_asymm_v5,2020.2.10,MacIntel,60,61025ae37ef11b136ea224fe,,,,,,,,,3886,52,42,1,0,0,response1disk,,6,1,7,1,0,0,rectangle,1,7,1,0,0,1,7,1,0,0,1,63,223,128,1,,,,,,,,
,,,,,,,,,,,,,FF,,,,,,,,1.617,,,,,,,,,,,,,,,,,,,,,,60ff8d646f5ecca6f516a910,610377ecf215faab0a11fde0,2021-07-29_23h55.46.555,Simcolourproject_2stim_asymm_v5,2020.2.10,MacIntel,60,61025ae37ef11b136ea224fe,,,,,,,,,3460,84,45,1,0,0,response1disk,,6,12,4,1,0,0,rectangle,12,4,1,0,0,12,4,1,0,0,1,64,224,34,1,,,,,,,,
,,,,,,,,,,,,,FF,,,,,,,,0.95,,,,,,,,,,,,,,,,,,,,,,60ff8d646f5ecca6f516a910,610377ecf215faab0a11fde0,2021-07-29_23h55.46.555,Simcolourproject_2stim_asymm_v5,2020.2.10,MacIntel,60,61025ae37ef11b136ea224fe,,,,,,,,,3925,36,79,1,0,0,response1disk,,7,4,-3,1,0,0,rectangle,4,-3,1,0,0,4,-3,1,0,0,1,65,225,54,1,,,,,,,,
,,,,,,,,,,,,,FF,,,,,,,,0.485,,,,,,,,,,,,,,,,,,,,,,60ff8d646f5ecca6f516a910,610377ecf215faab0a11fde0,2021-07-29_23h55.46.555,Simcolourproject_2stim_asymm_v5,2020.2.10,MacIntel,60,61025ae37ef11b136ea224fe,,,,,,,,,3077,30,63,1,0,0,response1disk,,7,9,-3,1,0,0,rectangle,9,-3,1,0,0,9,-3,1,0,0,1,66,226,74,1,,,,,,,,
,,,,,,,,,,,,,FF,,,,,,,,0.717,,,,,,,,,,,,,,,,,,,,,,60ff8d646f5ecca6f516a910,610377ecf215faab0a11fde0,2021-07-29_23h55.46.555,Simcolourproject_2stim_asymm_v5,2020.2.10,MacIntel,60,61025ae37ef11b136ea224fe,,,,,,,,,939,46,86,1,0,0,response1disk,,7,9,16,1,0,0,rectangle,9,16,1,0,0,9,16,1,0,0,1,67,227,62,1,,,,,,,,
,,,,,,,,,,,,,FF,,,,,,,,0.682,,,,,,,,,,,,,,,,,,,,,,60ff8d646f5ecca6f516a910,610377ecf215faab0a11fde0,2021-07-29_23h55.46.555,Simcolourproject_2stim_asymm_v5,2020.2.10,MacIntel,60,61025ae37ef11b136ea224fe,,,,,,,,,3655,34,95,1,0,0,response1disk,,7,2,12,1,0,0,rectangle,2,12,1,0,0,2,12,1,0,0,1,68,228,121,1,,,,,,,,
,,,,,,,,,,,,,FF,,,,,,,,1.483,,,,,,,,,,,,,,,,,,,,,,60ff8d646f5ecca6f516a910,610377ecf215faab0a11fde0,2021-07-29_23h55.46.555,Simcolourproject_2stim_asymm_v5,2020.2.10,MacIntel,60,61025ae37ef11b136ea224fe,,,,,,,,,337,103,46,1,0,0,response1disk,,6,-26,-8,1,0,0,rectangle,-26,-8,1,0,0,-26,-8,1,0,0,1,69,229,73,1,,,,,,,,
,,,,,,,,,,,,,FF,,,,,,,,0.65,,,,,,,,,,,,,,,,,,,,,,60ff8d646f5ecca6f516a910,610377ecf215faab0a11fde0,2021-07-29_23h55.46.555,Simcolourproject_2stim_asymm_v5,2020.2.10,MacIntel,60,61025ae37ef11b136ea224fe,,,,,,,,,2543,55,-39,1,0,0,response3disk,,5,-5,-14,1,0,0,rectangle,-5,-14,1,0,0,-5,-14,1,0,0,1,70,230,96,1,,,,,,,,
,,,,,,,,,,,,,FF,,,,,,,,0.85,,,,,,,,,,,,,,,,,,,,,,60ff8d646f5ecca6f516a910,610377ecf215faab0a11fde0,2021-07-29_23h55.46.555,Simcolourproject_2stim_asymm_v5,2020.2.10,MacIntel,60,61025ae37ef11b136ea224fe,,,,,,,,,1791,71,23,1,0,0,response1disk,,6,17,9,1,0,0,rectangle,17,9,1,0,0,17,9,1,0,0,1,71,231,88,1,,,,,,,,
,,,,,,,,,,,,,FF,,,,,,,,0.817,,,,,,,,,,,,,,,,,,,,,,60ff8d646f5ecca6f516a910,610377ecf215faab0a11fde0,2021-07-29_23h55.46.555,Simcolourproject_2stim_asymm_v5,2020.2.10,MacIntel,60,61025ae37ef11b136ea224fe,,,,,,,,,2523,47,89,1,0,0,response1disk,,7,6,-5,1,0,0,rectangle,6,-5,1,0,0,6,-5,1,0,0,1,72,232,70,1,,,,,,,,
,,,,,,,,,,,,,FF,,,,,,,,0.716,,,,,,,,,,,,,,,,,,,,,,60ff8d646f5ecca6f516a910,610377ecf215faab0a11fde0,2021-07-29_23h55.46.555,Simcolourproject_2stim_asymm_v5,2020.2.10,MacIntel,60,61025ae37ef11b136ea224fe,,,,,,,,,3751,37,77,1,0,0,response1disk,,7,-2,11,1,0,0,rectangle,-2,11,1,0,0,-2,11,1,0,0,1,73,233,43,1,,,,,,,,
,,,,,,,,,,,,,FF,,,,,,,,0.733,,,,,,,,,,,,,,,,,,,,,,60ff8d646f5ecca6f516a910,610377ecf215faab0a11fde0,2021-07-29_23h55.46.555,Simcolourproject_2stim_asymm_v5,2020.2.10,MacIntel,60,61025ae37ef11b136ea224fe,,,,,,,,,2609,75,-18,1,0,0,response3disk,,5,-2,0,1,0,0,rectangle,-2,0,1,0,0,-2,0,1,0,0,1,74,234,142,1,,,,,,,,
,,,,,,,,,,,,,FF,,,,,,,,0.883,,,,,,,,,,,,,,,,,,,,,,60ff8d646f5ecca6f516a910,610377ecf215faab0a11fde0,2021-07-29_23h55.46.555,Simcolourproject_2stim_asymm_v5,2020.2.10,MacIntel,60,61025ae37ef11b136ea224fe,,,,,,,,,950,84,36,1,0,0,response1disk,,6,-14,8,1,0,0,rectangle,-14,8,1,0,0,-14,8,1,0,0,1,75,235,119,1,,,,,,,,
,,,,,,,,,,,,,FF,,,,,,,,1.017,,,,,,,,,,,,,,,,,,,,,,60ff8d646f5ecca6f516a910,610377ecf215faab0a11fde0,2021-07-29_23h55.46.555,Simcolourproject_2stim_asymm_v5,2020.2.10,MacIntel,60,61025ae37ef11b136ea224fe,,,,,,,,,3153,-36,-86,1,0,0,response5disk,,3,1,-6,1,0,0,rectangle,1,-6,1,0,0,1,-6,1,0,0,1,76,236,14,1,,,,,,,,
,,,,,,,,,,,,,FF,,,,,,,,1.383,,,,,,,,,,,,,,,,,,,,,,60ff8d646f5ecca6f516a910,610377ecf215faab0a11fde0,2021-07-29_23h55.46.555,Simcolourproject_2stim_asymm_v5,2020.2.10,MacIntel,60,61025ae37ef11b136ea224fe,,,,,,,,,1154,83,-41,1,0,0,response3disk,,5,-8,7,1,0,0,rectangle,-8,7,1,0,0,-8,7,1,0,0,1,77,237,91,1,,,,,,,,
,,,,,,,,,,,,,FF,,,,,,,,1.234,,,,,,,,,,,,,,,,,,,,,,60ff8d646f5ecca6f516a910,610377ecf215faab0a11fde0,2021-07-29_23h55.46.555,Simcolourproject_2stim_asymm_v5,2020.2.10,MacIntel,60,61025ae37ef11b136ea224fe,,,,,,,,,3462,86,-44,1,0,0,response3disk,,5,-7,-9,1,0,0,rectangle,-7,-9,1,0,0,-7,-9,1,0,0,1,78,238,44,1,,,,,,,,
,,,,,,,,,,,,,FF,,,,,,,,0.866,,,,,,,,,,,,,,,,,,,,,,60ff8d646f5ecca6f516a910,610377ecf215faab0a11fde0,2021-07-29_23h55.46.555,Simcolourproject_2stim_asymm_v5,2020.2.10,MacIntel,60,61025ae37ef11b136ea224fe,,,,,,,,,2201,45,72,1,0,0,response1disk,,7,4,-4,1,0,0,rectangle,4,-4,1,0,0,4,-4,1,0,0,1,79,239,110,1,,,,,,,,
,,,,,,,,,,,,,FF,,,,,,,,1.882,,,,,,,,,,,,,,,,,,,,,,60ff8d646f5ecca6f516a910,610377ecf215faab0a11fde0,2021-07-29_23h55.46.555,Simcolourproject_2stim_asymm_v5,2020.2.10,MacIntel,60,61025ae37ef11b136ea224fe,,,,,,,,,4298,38,52,1,0,0,response1disk,,7,-12,0,1,0,0,rectangle,-12,0,1,0,0,-12,0,1,0,0,1,80,240,85,1,,,,,,,,
,,,,,,,,,,,,,FF,,,,,,,,0.8,,,,,,,,,,,,,,,,,,,,,,60ff8d646f5ecca6f516a910,610377ecf215faab0a11fde0,2021-07-29_23h55.46.555,Simcolourproject_2stim_asymm_v5,2020.2.10,MacIntel,60,61025ae37ef11b136ea224fe,,,,,,,,,81,-70,-49,1,0,0,response5disk,,2,14,15,1,0,0,rectangle,14,15,1,0,0,14,15,1,0,0,1,81,241,40,1,,,,,,,,
,,,,,,,,,,,,,FF,,,,,,,,1.082,,,,,,,,,,,,,,,,,,,,,,60ff8d646f5ecca6f516a910,610377ecf215faab0a11fde0,2021-07-29_23h55.46.555,Simcolourproject_2stim_asymm_v5,2020.2.10,MacIntel,60,61025ae37ef11b136ea224fe,,,,,,,,,3484,62,-32,1,0,0,response3disk,,5,-7,-13,1,0,0,rectangle,-7,-13,1,0,0,-7,-13,1,0,0,1,82,242,68,1,,,,,,,,
,,,,,,,,,,,,,FF,,,,,,,,1,,,,,,,,,,,,,,,,,,,,,,60ff8d646f5ecca6f516a910,610377ecf215faab0a11fde0,2021-07-29_23h55.46.555,Simcolourproject_2stim_asymm_v5,2020.2.10,MacIntel,60,61025ae37ef11b136ea224fe,,,,,,,,,2623,57,-30,1,0,0,response3disk,,5,9,9,1,0,0,rectangle,9,9,1,0,0,9,9,1,0,0,1,83,243,89,1,,,,,,,,
,,,,,,,,,,,,,FF,,,,,,,,0.751,,,,,,,,,,,,,,,,,,,,,,60ff8d646f5ecca6f516a910,610377ecf215faab0a11fde0,2021-07-29_23h55.46.555,Simcolourproject_2stim_asymm_v5,2020.2.10,MacIntel,60,61025ae37ef11b136ea224fe,,,,,,,,,1251,66,46,1,0,0,response1disk,,6,5,8,1,0,0,rectangle,5,8,1,0,0,5,8,1,0,0,1,84,244,9,1,,,,,,,,
,,,,,,,,,,,,,FF,,,,,,,,0.7,,,,,,,,,,,,,,,,,,,,,,60ff8d646f5ecca6f516a910,610377ecf215faab0a11fde0,2021-07-29_23h55.46.555,Simcolourproject_2stim_asymm_v5,2020.2.10,MacIntel,60,61025ae37ef11b136ea224fe,,,,,,,,,2179,53,82,1,0,0,response1disk,,7,2,8,1,0,0,rectangle,2,8,1,0,0,2,8,1,0,0,1,85,245,86,1,,,,,,,,
,,,,,,,,,,,,,FF,,,,,,,,0.816,,,,,,,,,,,,,,,,,,,,,,60ff8d646f5ecca6f516a910,610377ecf215faab0a11fde0,2021-07-29_23h55.46.555,Simcolourproject_2stim_asymm_v5,2020.2.10,MacIntel,60,61025ae37ef11b136ea224fe,,,,,,,,,790,-40,-62,1,0,0,response5disk,,3,-15,-5,1,0,0,rectangle,-15,-5,1,0,0,-15,-5,1,0,0,1,86,246,133,1,,,,,,,,
,,,,,,,,,,,,,FF,,,,,,,,0.999,,,,,,,,,,,,,,,,,,,,,,60ff8d646f5ecca6f516a910,610377ecf215faab0a11fde0,2021-07-29_23h55.46.555,Simcolourproject_2stim_asymm_v5,2020.2.10,MacIntel,60,61025ae37ef11b136ea224fe,,,,,,,,,231,45,78,1,0,0,response1disk,,7,-7,-9,1,0,0,rectangle,-7,-9,1,0,0,-7,-9,1,0,0,1,87,247,106,1,,,,,,,,
,,,,,,,,,,,,,FF,,,,,,,,0.733,,,,,,,,,,,,,,,,,,,,,,60ff8d646f5ecca6f516a910,610377ecf215faab0a11fde0,2021-07-29_23h55.46.555,Simcolourproject_2stim_asymm_v5,2020.2.10,MacIntel,60,61025ae37ef11b136ea224fe,,,,,,,,,100,68,-47,1,0,0,response3disk,,5,6,6,1,0,0,rectangle,6,6,1,0,0,6,6,1,0,0,1,88,248,58,1,,,,,,,,
,,,,,,,,,,,,,FF,,,,,,,,0.633,,,,,,,,,,,,,,,,,,,,,,60ff8d646f5ecca6f516a910,610377ecf215faab0a11fde0,2021-07-29_23h55.46.555,Simcolourproject_2stim_asymm_v5,2020.2.10,MacIntel,60,61025ae37ef11b136ea224fe,,,,,,,,,1436,85,54,1,0,0,response1disk,,6,-2,2,1,0,0,rectangle,-2,2,1,0,0,-2,2,1,0,0,1,89,249,4,1,,,,,,,,
,,,,,,,,,,,,,FF,,,,,,,,0.617,,,,,,,,,,,,,,,,,,,,,,60ff8d646f5ecca6f516a910,610377ecf215faab0a11fde0,2021-07-29_23h55.46.555,Simcolourproject_2stim_asymm_v5,2020.2.10,MacIntel,60,61025ae37ef11b136ea224fe,,,,,,,,,2092,43,74,1,0,0,response1disk,,7,-1,12,1,0,0,rectangle,-1,12,1,0,0,-1,12,1,0,0,1,90,250,33,1,,,,,,,,
,,,,,,,,,,,,,FF,,,,,,,,0.884,,,,,,,,,,,,,,,,,,,,,,60ff8d646f5ecca6f516a910,610377ecf215faab0a11fde0,2021-07-29_23h55.46.555,Simcolourproject_2stim_asymm_v5,2020.2.10,MacIntel,60,61025ae37ef11b136ea224fe,,,,,,,,,225,67,46,1,0,0,response1disk,,6,10,1,1,0,0,rectangle,10,1,1,0,0,10,1,1,0,0,1,91,251,159,1,,,,,,,,
,,,,,,,,,,,,,FF,,,,,,,,0.733,,,,,,,,,,,,,,,,,,,,,,60ff8d646f5ecca6f516a910,610377ecf215faab0a11fde0,2021-07-29_23h55.46.555,Simcolourproject_2stim_asymm_v5,2020.2.10,MacIntel,60,61025ae37ef11b136ea224fe,,,,,,,,,1503,50,64,1,0,0,response1disk,,7,7,-15,1,0,0,rectangle,7,-15,1,0,0,7,-15,1,0,0,1,92,252,137,1,,,,,,,,
,,,,,,,,,,,,,FF,,,,,,,,0.866,,,,,,,,,,,,,,,,,,,,,,60ff8d646f5ecca6f516a910,610377ecf215faab0a11fde0,2021-07-29_23h55.46.555,Simcolourproject_2stim_asymm_v5,2020.2.10,MacIntel,60,61025ae37ef11b136ea224fe,,,,,,,,,1319,93,46,1,0,0,response1disk,,6,11,3,1,0,0,rectangle,11,3,1,0,0,11,3,1,0,0,1,93,253,28,1,,,,,,,,
,,,,,,,,,,,,,FF,,,,,,,,1.467,,,,,,,,,,,,,,,,,,,,,,60ff8d646f5ecca6f516a910,610377ecf215faab0a11fde0,2021-07-29_23h55.46.555,Simcolourproject_2stim_asymm_v5,2020.2.10,MacIntel,60,61025ae37ef11b136ea224fe,,,,,,,,,3965,-37,77,1,0,0,response7disk,,0,-7,2,1,0,0,rectangle,-7,2,1,0,0,-7,2,1,0,0,1,94,254,111,1,,,,,,,,
,,,,,,,,,,,,,FF,,,,,,,,0.803,,,,,,,,,,,,,,,,,,,,,,60ff8d646f5ecca6f516a910,610377ecf215faab0a11fde0,2021-07-29_23h55.46.555,Simcolourproject_2stim_asymm_v5,2020.2.10,MacIntel,60,61025ae37ef11b136ea224fe,,,,,,,,,2114,44,77,1,0,0,response1disk,,7,7,12,1,0,0,rectangle,7,12,1,0,0,7,12,1,0,0,1,95,255,22,1,,,,,,,,
,,,,,,,,,,,,,FF,,,,,,,,1.268,,,,,,,,,,,,,,,,,,,,,,60ff8d646f5ecca6f516a910,610377ecf215faab0a11fde0,2021-07-29_23h55.46.555,Simcolourproject_2stim_asymm_v5,2020.2.10,MacIntel,60,61025ae37ef11b136ea224fe,,,,,,,,,302,43,66,1,0,0,response1disk,,7,24,-6,1,0,0,rectangle,24,-6,1,0,0,24,-6,1,0,0,1,96,256,93,1,,,,,,,,
,,,,,,,,,,,,,FF,,,,,,,,0.701,,,,,,,,,,,,,,,,,,,,,,60ff8d646f5ecca6f516a910,610377ecf215faab0a11fde0,2021-07-29_23h55.46.555,Simcolourproject_2stim_asymm_v5,2020.2.10,MacIntel,60,61025ae37ef11b136ea224fe,,,,,,,,,3602,55,-39,1,0,0,response3disk,,5,13,0,1,0,0,rectangle,13,0,1,0,0,13,0,1,0,0,1,97,257,138,1,,,,,,,,
,,,,,,,,,,,,,FF,,,,,,,,1.149,,,,,,,,,,,,,,,,,,,,,,60ff8d646f5ecca6f516a910,610377ecf215faab0a11fde0,2021-07-29_23h55.46.555,Simcolourproject_2stim_asymm_v5,2020.2.10,MacIntel,60,61025ae37ef11b136ea224fe,,,,,,,,,3354,42,96,1,0,0,response1disk,,7,20,-1,1,0,0,rectangle,20,-1,1,0,0,20,-1,1,0,0,1,98,258,147,1,,,,,,,,
,,,,,,,,,,,,,FF,,,,,,,,0.866,,,,,,,,,,,,,,,,,,,,,,60ff8d646f5ecca6f516a910,610377ecf215faab0a11fde0,2021-07-29_23h55.46.555,Simcolourproject_2stim_asymm_v5,2020.2.10,MacIntel,60,61025ae37ef11b136ea224fe,,,,,,,,,190,36,-57,1,0,0,response3disk,,4,7,-6,1,0,0,rectangle,7,-6,1,0,0,7,-6,1,0,0,1,99,259,109,1,,,,,,,,
,,,,,,,,,,,,,FF,,,,,,,,1,,,,,,,,,,,,,,,,,,,,,,60ff8d646f5ecca6f516a910,610377ecf215faab0a11fde0,2021-07-29_23h55.46.555,Simcolourproject_2stim_asymm_v5,2020.2.10,MacIntel,60,61025ae37ef11b136ea224fe,,,,,,,,,493,69,44,1,0,0,response1disk,,6,7,-4,1,0,0,rectangle,7,-4,1,0,0,7,-4,1,0,0,1,100,260,124,1,,,,,,,,
,,,,,,,,,,,,,FF,,,,,,,,1.101,,,,,,,,,,,,,,,,,,,,,,60ff8d646f5ecca6f516a910,610377ecf215faab0a11fde0,2021-07-29_23h55.46.555,Simcolourproject_2stim_asymm_v5,2020.2.10,MacIntel,60,61025ae37ef11b136ea224fe,,,,,,,,,3168,42,73,1,0,0,response1disk,,7,27,9,1,0,0,rectangle,27,9,1,0,0,27,9,1,0,0,1,101,261,100,1,,,,,,,,
,,,,,,,,,,,,,FF,,,,,,,,1,,,,,,,,,,,,,,,,,,,,,,60ff8d646f5ecca6f516a910,610377ecf215faab0a11fde0,2021-07-29_23h55.46.555,Simcolourproject_2stim_asymm_v5,2020.2.10,MacIntel,60,61025ae37ef11b136ea224fe,,,,,,,,,3374,-76,-43,1,0,0,response5disk,,2,6,7,1,0,0,rectangle,6,7,1,0,0,6,7,1,0,0,1,102,262,149,1,,,,,,,,
,,,,,,,,,,,,,FF,,,,,,,,1.383,,,,,,,,,,,,,,,,,,,,,,60ff8d646f5ecca6f516a910,610377ecf215faab0a11fde0,2021-07-29_23h55.46.555,Simcolourproject_2stim_asymm_v5,2020.2.10,MacIntel,60,61025ae37ef11b136ea224fe,,,,,,,,,930,30,54,1,0,0,response1disk,,7,10,10,1,0,0,rectangle,10,10,1,0,0,10,10,1,0,0,1,103,263,90,1,,,,,,,,
,,,,,,,,,,,,,FF,,,,,,,,0.732,,,,,,,,,,,,,,,,,,,,,,60ff8d646f5ecca6f516a910,610377ecf215faab0a11fde0,2021-07-29_23h55.46.555,Simcolourproject_2stim_asymm_v5,2020.2.10,MacIntel,60,61025ae37ef11b136ea224fe,,,,,,,,,2641,43,-18,1,0,0,response3disk,,5,7,6,1,0,0,rectangle,7,6,1,0,0,7,6,1,0,0,1,104,264,102,1,,,,,,,,
,,,,,,,,,,,,,FF,,,,,,,,0.683,,,,,,,,,,,,,,,,,,,,,,60ff8d646f5ecca6f516a910,610377ecf215faab0a11fde0,2021-07-29_23h55.46.555,Simcolourproject_2stim_asymm_v5,2020.2.10,MacIntel,60,61025ae37ef11b136ea224fe,,,,,,,,,2768,-31,-59,1,0,0,response5disk,,3,5,1,1,0,0,rectangle,5,1,1,0,0,5,1,1,0,0,1,105,265,21,1,,,,,,,,
,,,,,,,,,,,,,FF,,,,,,,,1.067,,,,,,,,,,,,,,,,,,,,,,60ff8d646f5ecca6f516a910,610377ecf215faab0a11fde0,2021-07-29_23h55.46.555,Simcolourproject_2stim_asymm_v5,2020.2.10,MacIntel,60,61025ae37ef11b136ea224fe,,,,,,,,,1890,23,-47,1,0,0,response3disk,,4,8,-8,1,0,0,rectangle,8,-8,1,0,0,8,-8,1,0,0,1,106,266,41,1,,,,,,,,
,,,,,,,,,,,,,FF,,,,,,,,0.917,,,,,,,,,,,,,,,,,,,,,,60ff8d646f5ecca6f516a910,610377ecf215faab0a11fde0,2021-07-29_23h55.46.555,Simcolourproject_2stim_asymm_v5,2020.2.10,MacIntel,60,61025ae37ef11b136ea224fe,,,,,,,,,2632,46,81,1,0,0,response1disk,,7,12,5,1,0,0,rectangle,12,5,1,0,0,12,5,1,0,0,1,107,267,117,1,,,,,,,,
,,,,,,,,,,,,,FF,,,,,,,,2.484,,,,,,,,,,,,,,,,,,,,,,60ff8d646f5ecca6f516a910,610377ecf215faab0a11fde0,2021-07-29_23h55.46.555,Simcolourproject_2stim_asymm_v5,2020.2.10,MacIntel,60,61025ae37ef11b136ea224fe,,,,,,,,,401,68,85,1,0,0,response1disk,,7,-8,-5,1,0,0,rectangle,-8,-5,1,0,0,-8,-5,1,0,0,1,108,268,130,1,,,,,,,,
,,,,,,,,,,,,,FF,,,,,,,,1.183,,,,,,,,,,,,,,,,,,,,,,60ff8d646f5ecca6f516a910,610377ecf215faab0a11fde0,2021-07-29_23h55.46.555,Simcolourproject_2stim_asymm_v5,2020.2.10,MacIntel,60,61025ae37ef11b136ea224fe,,,,,,,,,1548,33,65,1,0,0,response1disk,,7,8,-4,1,0,0,rectangle,8,-4,1,0,0,8,-4,1,0,0,1,109,269,113,1,,,,,,,,
,,,,,,,,,,,,,FF,,,,,,,,0.583,,,,,,,,,,,,,,,,,,,,,,60ff8d646f5ecca6f516a910,610377ecf215faab0a11fde0,2021-07-29_23h55.46.555,Simcolourproject_2stim_asymm_v5,2020.2.10,MacIntel,60,61025ae37ef11b136ea224fe,,,,,,,,,3439,49,-68,1,0,0,response3disk,,4,15,-9,1,0,0,rectangle,15,-9,1,0,0,15,-9,1,0,0,1,110,270,150,1,,,,,,,,
,,,,,,,,,,,,,FF,,,,,,,,0.683,,,,,,,,,,,,,,,,,,,,,,60ff8d646f5ecca6f516a910,610377ecf215faab0a11fde0,2021-07-29_23h55.46.555,Simcolourproject_2stim_asymm_v5,2020.2.10,MacIntel,60,61025ae37ef11b136ea224fe,,,,,,,,,821,64,40,1,0,0,response1disk,,6,19,2,1,0,0,rectangle,40,-70,1,0,0,3,1,1,0,0,1,111,271,131,1,,response3disk_3,TRUE,4,4,"[121,137,167,168,186,211,284,37,6,110,195,223,67,183,133,281,134,272,223,136]",1.416,rectangle
,,,,,,,,,,,,,FF,,,,,,,,0.918,,,,,,,,,,,,,,,,,,,,,,60ff8d646f5ecca6f516a910,610377ecf215faab0a11fde0,2021-07-29_23h55.46.555,Simcolourproject_2stim_asymm_v5,2020.2.10,MacIntel,60,61025ae37ef11b136ea224fe,,,,,,,,,796,44,70,1,0,0,response1disk,,7,14,-13,1,0,0,rectangle,14,-13,1,0,0,14,-13,1,0,0,1,112,272,129,1,,,,,,,,
,,,,,,,,,,,,,FF,,,,,,,,1.033,,,,,,,,,,,,,,,,,,,,,,60ff8d646f5ecca6f516a910,610377ecf215faab0a11fde0,2021-07-29_23h55.46.555,Simcolourproject_2stim_asymm_v5,2020.2.10,MacIntel,60,61025ae37ef11b136ea224fe,,,,,,,,,2095,41,-81,1,0,0,response3disk,,4,7,-4,1,0,0,rectangle,7,-4,1,0,0,7,-4,1,0,0,1,113,273,42,1,,,,,,,,
,,,,,,,,,,,,,FF,,,,,,,,0.617,,,,,,,,,,,,,,,,,,,,,,60ff8d646f5ecca6f516a910,610377ecf215faab0a11fde0,2021-07-29_23h55.46.555,Simcolourproject_2stim_asymm_v5,2020.2.10,MacIntel,60,61025ae37ef11b136ea224fe,,,,,,,,,2112,34,69,1,0,0,response1disk,,7,23,8,1,0,0,rectangle,23,8,1,0,0,23,8,1,0,0,1,114,274,157,1,,,,,,,,
,,,,,,,,,,,,,FF,,,,,,,,0.818,,,,,,,,,,,,,,,,,,,,,,60ff8d646f5ecca6f516a910,610377ecf215faab0a11fde0,2021-07-29_23h55.46.555,Simcolourproject_2stim_asymm_v5,2020.2.10,MacIntel,60,61025ae37ef11b136ea224fe,,,,,,,,,3059,66,-48,1,0,0,response3disk,,5,7,-9,1,0,0,rectangle,7,-9,1,0,0,7,-9,1,0,0,1,115,275,97,1,,,,,,,,
,,,,,,,,,,,,,FF,,,,,,,,0.6,,,,,,,,,,,,,,,,,,,,,,60ff8d646f5ecca6f516a910,610377ecf215faab0a11fde0,2021-07-29_23h55.46.555,Simcolourproject_2stim_asymm_v5,2020.2.10,MacIntel,60,61025ae37ef11b136ea224fe,,,,,,,,,3826,35,84,1,0,0,response1disk,,7,6,-1,1,0,0,rectangle,6,-1,1,0,0,6,-1,1,0,0,1,116,276,17,1,,,,,,,,
,,,,,,,,,,,,,FF,,,,,,,,1.033,,,,,,,,,,,,,,,,,,,,,,60ff8d646f5ecca6f516a910,610377ecf215faab0a11fde0,2021-07-29_23h55.46.555,Simcolourproject_2stim_asymm_v5,2020.2.10,MacIntel,60,61025ae37ef11b136ea224fe,,,,,,,,,1432,57,31,1,0,0,response1disk,,6,16,10,1,0,0,rectangle,16,10,1,0,0,16,10,1,0,0,1,117,277,156,1,,,,,,,,
,,,,,,,,,,,,,FF,,,,,,,,0.601,,,,,,,,,,,,,,,,,,,,,,60ff8d646f5ecca6f516a910,610377ecf215faab0a11fde0,2021-07-29_23h55.46.555,Simcolourproject_2stim_asymm_v5,2020.2.10,MacIntel,60,61025ae37ef11b136ea224fe,,,,,,,,,1552,38,75,1,0,0,response1disk,,7,9,-1,1,0,0,rectangle,9,-1,1,0,0,9,-1,1,0,0,1,118,278,52,1,,,,,,,,
,,,,,,,,,,,,,FF,,,,,,,,0.867,,,,,,,,,,,,,,,,,,,,,,60ff8d646f5ecca6f516a910,610377ecf215faab0a11fde0,2021-07-29_23h55.46.555,Simcolourproject_2stim_asymm_v5,2020.2.10,MacIntel,60,61025ae37ef11b136ea224fe,,,,,,,,,658,65,-36,1,0,0,response3disk,,5,5,-11,1,0,0,rectangle,5,-11,1,0,0,5,-11,1,0,0,1,119,279,3,1,,,,,,,,
,,,,,,,,,,,,,FF,,,,,,,,0.683,,,,,,,,,,,,,,,,,,,,,,60ff8d646f5ecca6f516a910,610377ecf215faab0a11fde0,2021-07-29_23h55.46.555,Simcolourproject_2stim_asymm_v5,2020.2.10,MacIntel,60,61025ae37ef11b136ea224fe,,,,,,,,,2002,54,90,1,0,0,response1disk,,7,17,6,1,0,0,rectangle,-87,44,1,0,0,-7,0,1,0,0,1,120,280,56,1,,response7disk_3,TRUE,1,1,"[121,137,167,168,186,211,284,37,6,110,195,223,67,183,133,281,134,272,223,136]",1.532,rectangle
,,,,,,,,,,,,,FF,,,,,,,,1.117,,,,,,,,,,,,,,,,,,,,,,60ff8d646f5ecca6f516a910,610377ecf215faab0a11fde0,2021-07-29_23h55.46.555,Simcolourproject_2stim_asymm_v5,2020.2.10,MacIntel,60,61025ae37ef11b136ea224fe,,,,,,,,,486,27,81,1,0,0,response1disk,,7,1,11,1,0,0,rectangle,1,11,1,0,0,1,11,1,0,0,1,121,281,13,1,,,,,,,,
,,,,,,,,,,,,,FF,,,,,,,,0.532,,,,,,,,,,,,,,,,,,,,,,60ff8d646f5ecca6f516a910,610377ecf215faab0a11fde0,2021-07-29_23h55.46.555,Simcolourproject_2stim_asymm_v5,2020.2.10,MacIntel,60,61025ae37ef11b136ea224fe,,,,,,,,,1094,35,72,1,0,0,response1disk,,7,9,2,1,0,0,rectangle,9,2,1,0,0,9,2,1,0,0,1,122,282,99,1,,,,,,,,
,,,,,,,,,,,,,FF,,,,,,,,0.699,,,,,,,,,,,,,,,,,,,,,,60ff8d646f5ecca6f516a910,610377ecf215faab0a11fde0,2021-07-29_23h55.46.555,Simcolourproject_2stim_asymm_v5,2020.2.10,MacIntel,60,61025ae37ef11b136ea224fe,,,,,,,,,2332,65,47,1,0,0,response1disk,,6,10,14,1,0,0,rectangle,-92,-31,1,0,0,3,6,1,0,0,1,123,283,134,1,,response5disk_3,TRUE,2,2,"[121,137,167,168,186,211,284,37,6,110,195,223,67,183,133,281,134,272,223,136]",1.649,rectangle
,,,,,,,,,,,,,FF,,,,,,,,1.117,,,,,,,,,,,,,,,,,,,,,,60ff8d646f5ecca6f516a910,610377ecf215faab0a11fde0,2021-07-29_23h55.46.555,Simcolourproject_2stim_asymm_v5,2020.2.10,MacIntel,60,61025ae37ef11b136ea224fe,,,,,,,,,710,59,38,1,0,0,response1disk,,6,-2,1,1,0,0,rectangle,-2,1,1,0,0,-2,1,1,0,0,1,124,284,72,1,,,,,,,,
,,,,,,,,,,,,,FF,,,,,,,,1.1,,,,,,,,,,,,,,,,,,,,,,60ff8d646f5ecca6f516a910,610377ecf215faab0a11fde0,2021-07-29_23h55.46.555,Simcolourproject_2stim_asymm_v5,2020.2.10,MacIntel,60,61025ae37ef11b136ea224fe,,,,,,,,,1962,-90,-48,1,0,0,response5disk,,2,-3,-6,1,0,0,rectangle,-3,-6,1,0,0,-3,-6,1,0,0,1,125,285,75,1,,,,,,,,
,,,,,,,,,,,,,FF,,,,,,,,2.451,,,,,,,,,,,,,,,,,,,,,,60ff8d646f5ecca6f516a910,610377ecf215faab0a11fde0,2021-07-29_23h55.46.555,Simcolourproject_2stim_asymm_v5,2020.2.10,MacIntel,60,61025ae37ef11b136ea224fe,,,,,,,,,372,40,70,1,0,0,response1disk,,7,3,8,1,0,0,rectangle,3,8,1,0,0,3,8,1,0,0,1,126,286,10,1,,,,,,,,
,,,,,,,,,,,,,FF,,,,,,,,0.666,,,,,,,,,,,,,,,,,,,,,,60ff8d646f5ecca6f516a910,610377ecf215faab0a11fde0,2021-07-29_23h55.46.555,Simcolourproject_2stim_asymm_v5,2020.2.10,MacIntel,60,61025ae37ef11b136ea224fe,,,,,,,,,1987,39,69,1,0,0,response1disk,,7,9,2,1,0,0,rectangle,9,2,1,0,0,9,2,1,0,0,1,127,287,116,1,,,,,,,,
,,,,,,,,,,,,,FF,,,,,,,,0.567,,,,,,,,,,,,,,,,,,,,,,60ff8d646f5ecca6f516a910,610377ecf215faab0a11fde0,2021-07-29_23h55.46.555,Simcolourproject_2stim_asymm_v5,2020.2.10,MacIntel,60,61025ae37ef11b136ea224fe,,,,,,,,,2149,47,95,1,0,0,response1disk,,7,4,3,1,0,0,rectangle,4,3,1,0,0,4,3,1,0,0,1,128,288,146,1,,,,,,,,
,,,,,,,,,,,,,FF,,,,,,,,1.316,,,,,,,,,,,,,,,,,,,,,,60ff8d646f5ecca6f516a910,610377ecf215faab0a11fde0,2021-07-29_23h55.46.555,Simcolourproject_2stim_asymm_v5,2020.2.10,MacIntel,60,61025ae37ef11b136ea224fe,,,,,,,,,2755,27,97,1,0,0,response1disk,,7,1,-6,1,0,0,rectangle,1,-6,1,0,0,1,-6,1,0,0,1,129,289,35,1,,,,,,,,
,,,,,,,,,,,,,FF,,,,,,,,1.033,,,,,,,,,,,,,,,,,,,,,,60ff8d646f5ecca6f516a910,610377ecf215faab0a11fde0,2021-07-29_23h55.46.555,Simcolourproject_2stim_asymm_v5,2020.2.10,MacIntel,60,61025ae37ef11b136ea224fe,,,,,,,,,979,59,-61,1,0,0,response3disk,,4,11,6,1,0,0,rectangle,11,6,1,0,0,11,6,1,0,0,1,130,290,80,1,,,,,,,,
,,,,,,,,,,,,,FF,,,,,,,,1.533,,,,,,,,,,,,,,,,,,,,,,60ff8d646f5ecca6f516a910,610377ecf215faab0a11fde0,2021-07-29_23h55.46.555,Simcolourproject_2stim_asymm_v5,2020.2.10,MacIntel,60,61025ae37ef11b136ea224fe,,,,,,,,,35,106,59,1,0,0,response1disk,,6,4,-5,1,0,0,rectangle,4,-5,1,0,0,4,-5,1,0,0,1,131,291,8,1,,,,,,,,
,,,,,,,,,,,,,FF,,,,,,,,1.099,,,,,,,,,,,,,,,,,,,,,,60ff8d646f5ecca6f516a910,610377ecf215faab0a11fde0,2021-07-29_23h55.46.555,Simcolourproject_2stim_asymm_v5,2020.2.10,MacIntel,60,61025ae37ef11b136ea224fe,,,,,,,,,1053,31,-50,1,0,0,response3disk,,4,7,3,1,0,0,rectangle,7,3,1,0,0,7,3,1,0,0,1,132,292,101,1,,,,,,,,
,,,,,,,,,,,,,FF,,,,,,,,1.101,,,,,,,,,,,,,,,,,,,,,,60ff8d646f5ecca6f516a910,610377ecf215faab0a11fde0,2021-07-29_23h55.46.555,Simcolourproject_2stim_asymm_v5,2020.2.10,MacIntel,60,61025ae37ef11b136ea224fe,,,,,,,,,2161,29,64,1,0,0,response1disk,,7,-13,0,1,0,0,rectangle,-13,0,1,0,0,-13,0,1,0,0,1,133,293,66,1,,,,,,,,
,,,,,,,,,,,,,FF,,,,,,,,3.186,,,,,,,,,,,,,,,,,,,,,,60ff8d646f5ecca6f516a910,610377ecf215faab0a11fde0,2021-07-29_23h55.46.555,Simcolourproject_2stim_asymm_v5,2020.2.10,MacIntel,60,61025ae37ef11b136ea224fe,,,,,,,,,2028,41,66,1,0,0,response1disk,,7,5,6,1,0,0,rectangle,5,6,1,0,0,5,6,1,0,0,1,134,294,140,1,,,,,,,,
,,,,,,,,,,,,,FF,,,,,,,,1.017,,,,,,,,,,,,,,,,,,,,,,60ff8d646f5ecca6f516a910,610377ecf215faab0a11fde0,2021-07-29_23h55.46.555,Simcolourproject_2stim_asymm_v5,2020.2.10,MacIntel,60,61025ae37ef11b136ea224fe,,,,,,,,,905,56,-42,1,0,0,response3disk,,5,-11,1,1,0,0,rectangle,-11,1,1,0,0,-11,1,1,0,0,1,135,295,143,1,,,,,,,,
,,,,,,,,,,,,,FF,,,,,,,,0.617,,,,,,,,,,,,,,,,,,,,,,60ff8d646f5ecca6f516a910,610377ecf215faab0a11fde0,2021-07-29_23h55.46.555,Simcolourproject_2stim_asymm_v5,2020.2.10,MacIntel,60,61025ae37ef11b136ea224fe,,,,,,,,,2908,71,42,1,0,0,response1disk,,6,17,17,1,0,0,rectangle,17,17,1,0,0,17,17,1,0,0,1,136,296,37,1,,,,,,,,
,,,,,,,,,,,,,FF,,,,,,,,0.534,,,,,,,,,,,,,,,,,,,,,,60ff8d646f5ecca6f516a910,610377ecf215faab0a11fde0,2021-07-29_23h55.46.555,Simcolourproject_2stim_asymm_v5,2020.2.10,MacIntel,60,61025ae37ef11b136ea224fe,,,,,,,,,1034,76,31,1,0,0,response1disk,,6,10,3,1,0,0,rectangle,10,3,1,0,0,10,3,1,0,0,1,137,297,136,1,,,,,,,,
,,,,,,,,,,,,,FF,,,,,,,,0.767,,,,,,,,,,,,,,,,,,,,,,60ff8d646f5ecca6f516a910,610377ecf215faab0a11fde0,2021-07-29_23h55.46.555,Simcolourproject_2stim_asymm_v5,2020.2.10,MacIntel,60,61025ae37ef11b136ea224fe,,,,,,,,,2397,64,-32,1,0,0,response3disk,,5,-16,8,1,0,0,rectangle,-16,8,1,0,0,-16,8,1,0,0,1,138,298,98,1,,,,,,,,
,,,,,,,,,,,,,FF,,,,,,,,1.199,,,,,,,,,,,,,,,,,,,,,,60ff8d646f5ecca6f516a910,610377ecf215faab0a11fde0,2021-07-29_23h55.46.555,Simcolourproject_2stim_asymm_v5,2020.2.10,MacIntel,60,61025ae37ef11b136ea224fe,,,,,,,,,959,77,25,1,0,0,response1disk,,6,-7,0,1,0,0,rectangle,-7,0,1,0,0,-7,0,1,0,0,1,139,299,7,1,,,,,,,,
,,,,,,,,,,,,,FF,,,,,,,,0.749,,,,,,,,,,,,,,,,,,,,,,60ff8d646f5ecca6f516a910,610377ecf215faab0a11fde0,2021-07-29_23h55.46.555,Simcolourproject_2stim_asymm_v5,2020.2.10,MacIntel,60,61025ae37ef11b136ea224fe,,,,,,,,,3985,39,49,1,0,0,response1disk,,7,15,-3,1,0,0,rectangle,15,-3,1,0,0,15,-3,1,0,0,1,140,300,112,1,,,,,,,,
,,,,,,,,,,,,,FF,,,,,,,,0.884,,,,,,,,,,,,,,,,,,,,,,60ff8d646f5ecca6f516a910,610377ecf215faab0a11fde0,2021-07-29_23h55.46.555,Simcolourproject_2stim_asymm_v5,2020.2.10,MacIntel,60,61025ae37ef11b136ea224fe,,,,,,,,,4122,43,-59,1,0,0,response3disk,,4,-11,12,1,0,0,rectangle,-11,12,1,0,0,-11,12,1,0,0,1,141,301,20,1,,,,,,,,
