key_resp.keys,key_resp.rt,key_resp_14.keys,key_resp_14.rt,key_resp_15.keys,key_resp_15.rt,key_resp_17.keys,key_resp_17.rt,key_resp_9.keys,key_resp_9.rt,key_resp_10.keys,key_resp_10.rt,practice_comparison,Ecc,mouse_5.x,mouse_5.y,mouse_5.leftButton,mouse_5.midButton,mouse_5.rightButton,mouse_5.clicked_name,pracsimilarity,response_time,mouse_10.x,mouse_10.y,mouse_10.leftButton,mouse_10.midButton,mouse_10.rightButton,mouse_10.clicked_name,mouse_7.x,mouse_7.y,mouse_7.leftButton,mouse_7.midButton,mouse_7.rightButton,mouse_6.x,mouse_6.y,mouse_6.leftButton,mouse_6.midButton,mouse_6.rightButton,duringprac.thisRepN,duringprac.thisTrialN,duringprac.thisN,duringprac.thisIndex,duringprac.ran,participant,session,date,expName,psychopyVersion,OS,frameRate,study_id,mouse_7.clicked_name,catchpracsimilarity,catch_response_time,catchnumberprac,catchtrialorderprac,mouse_6.clicked_name,key_resp_22.keys,key_resp_22.rt,realcomparison,mouse.x,mouse.y,mouse.leftButton,mouse.midButton,mouse.rightButton,mouse.clicked_name,Colour2,similarity,mouse_2.x,mouse_2.y,mouse_2.leftButton,mouse_2.midButton,mouse_2.rightButton,mouse_2.clicked_name,mouse_3.x,mouse_3.y,mouse_3.leftButton,mouse_3.midButton,mouse_3.rightButton,mouse_11.x,mouse_11.y,mouse_11.leftButton,mouse_11.midButton,mouse_11.rightButton,trials_2.thisRepN,trials_2.thisTrialN,trials_2.thisN,trials_2.thisIndex,trials_2.ran,Colour1,mouse_3.clicked_name,catchornah,catchsimilarity,catchnumber,catchtrialorder,catchRT,mouse_11.clicked_name
space,1.376,space,60.6099,space,37.7085,space,16.3778,space,2.0485,space,8.4095,59,PF,42,-92.5,1,0,0,response3disk_5,4,8.5181,5.5,0,1,0,0,rectangle_8,5.5,0,1,0,0,5.5,0,1,0,0,0,0,0,2,1,60ff4de9a6090fa9b9f61bb7,61036e3366688e56b0721e9b,2021-07-29_23h15.37.193,Simcolourproject_2stim_asymm_v5,2020.2.10,Win32,60,61025ae37ef11b136ea224fe,,,,,,,,,,,,,,,,,,,,,,,,,,,,,,,,,,,,,,,,,,,,,,
,,,,,,,,,,,,148,FF,-31.5,106,1,0,0,response7disk_5,0,3.3348,3,-1.5,0,0,1,rectangle_8,-84.5,-39.5,0,0,1,4,3.5,1,0,0,0,1,1,0,1,60ff4de9a6090fa9b9f61bb7,61036e3366688e56b0721e9b,2021-07-29_23h15.37.193,Simcolourproject_2stim_asymm_v5,2020.2.10,Win32,60,61025ae37ef11b136ea224fe,response5disk_7,2,3.9499,2,"[2,5]",rectangle_4,,,,,,,,,,,,,,,,,,,,,,,,,,,,,,,,,,,,,,,,
,,,,,,,,,,,,104,FF,86.5,50.5,1,0,0,response1disk_5,6,4.6507,14,1.5,1,0,0,rectangle_8,14,1.5,1,0,0,14,1.5,1,0,0,0,2,2,3,1,60ff4de9a6090fa9b9f61bb7,61036e3366688e56b0721e9b,2021-07-29_23h15.37.193,Simcolourproject_2stim_asymm_v5,2020.2.10,Win32,60,61025ae37ef11b136ea224fe,,,,,,,,,,,,,,,,,,,,,,,,,,,,,,,,,,,,,,,,,,,,,,
,,,,,,,,,,,,79,PF,-42,-92,1,0,0,response5disk_5,3,5.7495,7,11,1,0,0,rectangle_8,7,11,1,0,0,7,11,1,0,0,0,3,3,6,1,60ff4de9a6090fa9b9f61bb7,61036e3366688e56b0721e9b,2021-07-29_23h15.37.193,Simcolourproject_2stim_asymm_v5,2020.2.10,Win32,60,61025ae37ef11b136ea224fe,,,,,,,,,,,,,,,,,,,,,,,,,,,,,,,,,,,,,,,,,,,,,,
,,,,,,,,,,,,66,PF,39,69.5,1,0,0,response1disk_5,7,2.8001,7.5,6.5,1,0,0,rectangle_8,-102,-39.5,1,0,0,-1,-2.5,1,0,0,0,4,4,1,1,60ff4de9a6090fa9b9f61bb7,61036e3366688e56b0721e9b,2021-07-29_23h15.37.193,Simcolourproject_2stim_asymm_v5,2020.2.10,Win32,60,61025ae37ef11b136ea224fe,response5disk_7,2,4.2487,2,"[2,5]",rectangle_4,,,,,,,,,,,,,,,,,,,,,,,,,,,,,,,,,,,,,,,,
,,,,,,,,,,,,97,FF,-74.5,-38.5,1,0,0,response5disk_5,2,3.6831,-4.5,2.5,1,0,0,rectangle_8,-4.5,2.5,1,0,0,-4.5,2.5,1,0,0,0,5,5,5,1,60ff4de9a6090fa9b9f61bb7,61036e3366688e56b0721e9b,2021-07-29_23h15.37.193,Simcolourproject_2stim_asymm_v5,2020.2.10,Win32,60,61025ae37ef11b136ea224fe,,,,,,,,,,,,,,,,,,,,,,,,,,,,,,,,,,,,,,,,,,,,,,
,,,,,,,,,,,,129,PF,-46,-77,1,0,0,response5disk_5,3,3.7377,5,7,1,0,0,rectangle_8,5,7,1,0,0,5,7,1,0,0,0,6,6,4,1,60ff4de9a6090fa9b9f61bb7,61036e3366688e56b0721e9b,2021-07-29_23h15.37.193,Simcolourproject_2stim_asymm_v5,2020.2.10,Win32,60,61025ae37ef11b136ea224fe,,,,,,,,,,,,,,,,,,,,,,,,,,,,,,,,,,,,,,,,,,,,,,
,,,,,,,,,,,,,FF,,,,,,,,4.0346,,,,,,,,,,,,,,,,,,,,,,60ff4de9a6090fa9b9f61bb7,61036e3366688e56b0721e9b,2021-07-29_23h15.37.193,Simcolourproject_2stim_asymm_v5,2020.2.10,Win32,60,61025ae37ef11b136ea224fe,,,,,,,space,21.3308,3438,79,-42,1,0,0,response3disk,,5,-1.5,3.5,1,0,0,rectangle,-1.5,3.5,1,0,0,-1.5,3.5,1,0,0,0,0,0,67,1,,,,,,,,
,,,,,,,,,,,,,FF,,,,,,,,29.6427,,,,,,,,,,,,,,,,,,,,,,60ff4de9a6090fa9b9f61bb7,61036e3366688e56b0721e9b,2021-07-29_23h15.37.193,Simcolourproject_2stim_asymm_v5,2020.2.10,Win32,60,61025ae37ef11b136ea224fe,,,,,,,,,521,52.5,-101,1,0,0,response3disk,,4,-2,6.5,1,0,0,rectangle,-2,6.5,1,0,0,-2,6.5,1,0,0,0,1,1,81,1,,,,,,,,
,,,,,,,,,,,,,FF,,,,,,,,2.7683,,,,,,,,,,,,,,,,,,,,,,60ff4de9a6090fa9b9f61bb7,61036e3366688e56b0721e9b,2021-07-29_23h15.37.193,Simcolourproject_2stim_asymm_v5,2020.2.10,Win32,60,61025ae37ef11b136ea224fe,,,,,,,,,531,-78.5,-51,1,0,0,response5disk,,2,9,8.5,1,0,0,rectangle,9,8.5,1,0,0,9,8.5,1,0,0,0,2,2,83,1,,,,,,,,
,,,,,,,,,,,,,FF,,,,,,,,3.1938,,,,,,,,,,,,,,,,,,,,,,60ff4de9a6090fa9b9f61bb7,61036e3366688e56b0721e9b,2021-07-29_23h15.37.193,Simcolourproject_2stim_asymm_v5,2020.2.10,Win32,60,61025ae37ef11b136ea224fe,,,,,,,,,213,57.5,-86,1,0,0,response3disk,,4,-10.5,-2,1,0,0,rectangle,-10.5,-2,1,0,0,-10.5,-2,1,0,0,0,3,3,29,1,,,,,,,,
,,,,,,,,,,,,,FF,,,,,,,,2.6739,,,,,,,,,,,,,,,,,,,,,,60ff4de9a6090fa9b9f61bb7,61036e3366688e56b0721e9b,2021-07-29_23h15.37.193,Simcolourproject_2stim_asymm_v5,2020.2.10,Win32,60,61025ae37ef11b136ea224fe,,,,,,,,,3688,29.5,88.5,1,0,0,response1disk,,7,0,1.5,1,0,0,rectangle,83,-35,1,0,0,6,9,1,0,0,0,4,4,15,1,,response3disk_3,TRUE,5,5,"[52,181,197,138,173,19,181,165,252,218,168,118,187,5,172,210,204,115,259,210]",2.9357,rectangle
,,,,,,,,,,,,,FF,,,,,,,,6.9593,,,,,,,,,,,,,,,,,,,,,,60ff4de9a6090fa9b9f61bb7,61036e3366688e56b0721e9b,2021-07-29_23h15.37.193,Simcolourproject_2stim_asymm_v5,2020.2.10,Win32,60,61025ae37ef11b136ea224fe,,,,,,,,,2238,-43.5,-89,1,0,0,response5disk,,3,-11.5,-1,1,0,0,rectangle,-11.5,-1,1,0,0,-11.5,-1,1,0,0,0,5,5,97,1,,,,,,,,
,,,,,,,,,,,,,FF,,,,,,,,2.7672,,,,,,,,,,,,,,,,,,,,,,60ff4de9a6090fa9b9f61bb7,61036e3366688e56b0721e9b,2021-07-29_23h15.37.193,Simcolourproject_2stim_asymm_v5,2020.2.10,Win32,60,61025ae37ef11b136ea224fe,,,,,,,,,1875,62.5,82.5,1,0,0,response1disk,,7,12,-1.5,1,0,0,rectangle,12,-1.5,1,0,0,12,-1.5,1,0,0,0,6,6,57,1,,,,,,,,
,,,,,,,,,,,,,FF,,,,,,,,2.4783,,,,,,,,,,,,,,,,,,,,,,60ff4de9a6090fa9b9f61bb7,61036e3366688e56b0721e9b,2021-07-29_23h15.37.193,Simcolourproject_2stim_asymm_v5,2020.2.10,Win32,60,61025ae37ef11b136ea224fe,,,,,,,,,3504,-84,-56,1,0,0,response5disk,,2,1,4.5,1,0,0,rectangle,1,4.5,1,0,0,1,4.5,1,0,0,0,7,7,100,1,,,,,,,,
,,,,,,,,,,,,,FF,,,,,,,,6.2159,,,,,,,,,,,,,,,,,,,,,,60ff4de9a6090fa9b9f61bb7,61036e3366688e56b0721e9b,2021-07-29_23h15.37.193,Simcolourproject_2stim_asymm_v5,2020.2.10,Win32,60,61025ae37ef11b136ea224fe,,,,,,,,,2019,32.5,-56.5,1,0,0,response3disk,,4,12,5,1,0,0,rectangle,12,5,1,0,0,12,5,1,0,0,0,8,8,21,1,,,,,,,,
,,,,,,,,,,,,,FF,,,,,,,,2.4839,,,,,,,,,,,,,,,,,,,,,,60ff4de9a6090fa9b9f61bb7,61036e3366688e56b0721e9b,2021-07-29_23h15.37.193,Simcolourproject_2stim_asymm_v5,2020.2.10,Win32,60,61025ae37ef11b136ea224fe,,,,,,,,,155,-30,-76.5,1,0,0,response5disk,,3,2.5,4,1,0,0,rectangle,2.5,4,1,0,0,2.5,4,1,0,0,0,9,9,96,1,,,,,,,,
,,,,,,,,,,,,,FF,,,,,,,,4.1234,,,,,,,,,,,,,,,,,,,,,,60ff4de9a6090fa9b9f61bb7,61036e3366688e56b0721e9b,2021-07-29_23h15.37.193,Simcolourproject_2stim_asymm_v5,2020.2.10,Win32,60,61025ae37ef11b136ea224fe,,,,,,,,,3940,-77.5,-41.5,1,0,0,response5disk,,2,-4.5,10,1,0,0,rectangle,-4.5,10,1,0,0,-4.5,10,1,0,0,0,10,10,151,1,,,,,,,,
,,,,,,,,,,,,,FF,,,,,,,,2.1499,,,,,,,,,,,,,,,,,,,,,,60ff4de9a6090fa9b9f61bb7,61036e3366688e56b0721e9b,2021-07-29_23h15.37.193,Simcolourproject_2stim_asymm_v5,2020.2.10,Win32,60,61025ae37ef11b136ea224fe,,,,,,,,,3215,63.5,79.5,1,0,0,response1disk,,7,2.5,4,1,0,0,rectangle,2.5,4,1,0,0,2.5,4,1,0,0,0,11,11,104,1,,,,,,,,
,,,,,,,,,,,,,FF,,,,,,,,3.7333,,,,,,,,,,,,,,,,,,,,,,60ff4de9a6090fa9b9f61bb7,61036e3366688e56b0721e9b,2021-07-29_23h15.37.193,Simcolourproject_2stim_asymm_v5,2020.2.10,Win32,60,61025ae37ef11b136ea224fe,,,,,,,,,2049,35,68.5,1,0,0,response1disk,,7,7.5,2,1,0,0,rectangle,7.5,2,1,0,0,7.5,2,1,0,0,0,12,12,55,1,,,,,,,,
,,,,,,,,,,,,,FF,,,,,,,,3.4999,,,,,,,,,,,,,,,,,,,,,,60ff4de9a6090fa9b9f61bb7,61036e3366688e56b0721e9b,2021-07-29_23h15.37.193,Simcolourproject_2stim_asymm_v5,2020.2.10,Win32,60,61025ae37ef11b136ea224fe,,,,,,,,,1615,-79,-29,1,0,0,response5disk,,2,-10.5,2,1,0,0,rectangle,-10.5,2,1,0,0,-10.5,2,1,0,0,0,13,13,27,1,,,,,,,,
,,,,,,,,,,,,,FF,,,,,,,,3.3666,,,,,,,,,,,,,,,,,,,,,,60ff4de9a6090fa9b9f61bb7,61036e3366688e56b0721e9b,2021-07-29_23h15.37.193,Simcolourproject_2stim_asymm_v5,2020.2.10,Win32,60,61025ae37ef11b136ea224fe,,,,,,,,,3441,-56,-77.5,1,0,0,response5disk,,3,11,5,1,0,0,rectangle,11,5,1,0,0,11,5,1,0,0,0,14,14,90,1,,,,,,,,
,,,,,,,,,,,,,FF,,,,,,,,4.0167,,,,,,,,,,,,,,,,,,,,,,60ff4de9a6090fa9b9f61bb7,61036e3366688e56b0721e9b,2021-07-29_23h15.37.193,Simcolourproject_2stim_asymm_v5,2020.2.10,Win32,60,61025ae37ef11b136ea224fe,,,,,,,,,1256,50,71.5,1,0,0,response1disk,,7,19,1.5,1,0,0,rectangle,19,1.5,1,0,0,19,1.5,1,0,0,0,15,15,157,1,,,,,,,,
,,,,,,,,,,,,,FF,,,,,,,,2.8834,,,,,,,,,,,,,,,,,,,,,,60ff4de9a6090fa9b9f61bb7,61036e3366688e56b0721e9b,2021-07-29_23h15.37.193,Simcolourproject_2stim_asymm_v5,2020.2.10,Win32,60,61025ae37ef11b136ea224fe,,,,,,,,,3842,77.5,55,1,0,0,response1disk,,6,5.5,-1.5,1,0,0,rectangle,5.5,-1.5,1,0,0,5.5,-1.5,1,0,0,0,16,16,141,1,,,,,,,,
,,,,,,,,,,,,,FF,,,,,,,,3.3999,,,,,,,,,,,,,,,,,,,,,,60ff4de9a6090fa9b9f61bb7,61036e3366688e56b0721e9b,2021-07-29_23h15.37.193,Simcolourproject_2stim_asymm_v5,2020.2.10,Win32,60,61025ae37ef11b136ea224fe,,,,,,,,,982,-78.5,-39.5,1,0,0,response5disk,,2,-15.5,0.5,1,0,0,rectangle,-15.5,0.5,1,0,0,-15.5,0.5,1,0,0,0,17,17,44,1,,,,,,,,
,,,,,,,,,,,,,FF,,,,,,,,1.5105,,,,,,,,,,,,,,,,,,,,,,60ff4de9a6090fa9b9f61bb7,61036e3366688e56b0721e9b,2021-07-29_23h15.37.193,Simcolourproject_2stim_asymm_v5,2020.2.10,Win32,60,61025ae37ef11b136ea224fe,,,,,,,,,3539,39,73.5,1,0,0,response1disk,,7,10,12,1,0,0,rectangle,-43.5,-89.5,1,0,0,17.5,4,1,0,0,0,18,18,65,1,,response5disk_3,TRUE,3,3,"[52,181,197,138,173,19,181,165,252,218,168,118,187,5,172,210,204,115,259,210]",2.6164,rectangle
,,,,,,,,,,,,,FF,,,,,,,,3.9832,,,,,,,,,,,,,,,,,,,,,,60ff4de9a6090fa9b9f61bb7,61036e3366688e56b0721e9b,2021-07-29_23h15.37.193,Simcolourproject_2stim_asymm_v5,2020.2.10,Win32,60,61025ae37ef11b136ea224fe,,,,,,,,,2555,40,-76.5,1,0,0,response3disk,,4,10,5,1,0,0,rectangle,10,5,1,0,0,10,5,1,0,0,0,19,19,109,1,,,,,,,,
,,,,,,,,,,,,,FF,,,,,,,,2.5335,,,,,,,,,,,,,,,,,,,,,,60ff4de9a6090fa9b9f61bb7,61036e3366688e56b0721e9b,2021-07-29_23h15.37.193,Simcolourproject_2stim_asymm_v5,2020.2.10,Win32,60,61025ae37ef11b136ea224fe,,,,,,,,,3253,61,35.5,1,0,0,response1disk,,6,2.5,-1.5,1,0,0,rectangle,2.5,-1.5,1,0,0,2.5,-1.5,1,0,0,0,20,20,113,1,,,,,,,,
,,,,,,,,,,,,,FF,,,,,,,,10.6421,,,,,,,,,,,,,,,,,,,,,,60ff4de9a6090fa9b9f61bb7,61036e3366688e56b0721e9b,2021-07-29_23h15.37.193,Simcolourproject_2stim_asymm_v5,2020.2.10,Win32,60,61025ae37ef11b136ea224fe,,,,,,,,,2430,73.5,44,1,0,0,response1disk,,6,-8.5,4.5,1,0,0,rectangle,-8.5,4.5,1,0,0,-8.5,4.5,1,0,0,0,21,21,20,1,,,,,,,,
,,,,,,,,,,,,,FF,,,,,,,,2.7843,,,,,,,,,,,,,,,,,,,,,,60ff4de9a6090fa9b9f61bb7,61036e3366688e56b0721e9b,2021-07-29_23h15.37.193,Simcolourproject_2stim_asymm_v5,2020.2.10,Win32,60,61025ae37ef11b136ea224fe,,,,,,,,,2962,-86.5,31,1,0,0,response7disk,,1,-2.5,-1.5,1,0,0,rectangle,-2.5,-1.5,1,0,0,-2.5,-1.5,1,0,0,0,22,22,108,1,,,,,,,,
,,,,,,,,,,,,,FF,,,,,,,,3.2055,,,,,,,,,,,,,,,,,,,,,,60ff4de9a6090fa9b9f61bb7,61036e3366688e56b0721e9b,2021-07-29_23h15.37.193,Simcolourproject_2stim_asymm_v5,2020.2.10,Win32,60,61025ae37ef11b136ea224fe,,,,,,,,,2859,28,-85.5,1,0,0,response3disk,,4,-4,4,1,0,0,rectangle,-4,4,1,0,0,-4,4,1,0,0,0,23,23,155,1,,,,,,,,
,,,,,,,,,,,,,FF,,,,,,,,3.3501,,,,,,,,,,,,,,,,,,,,,,60ff4de9a6090fa9b9f61bb7,61036e3366688e56b0721e9b,2021-07-29_23h15.37.193,Simcolourproject_2stim_asymm_v5,2020.2.10,Win32,60,61025ae37ef11b136ea224fe,,,,,,,,,2791,47.5,-87,1,0,0,response3disk,,4,-2.5,10.5,1,0,0,rectangle,-2.5,10.5,1,0,0,-2.5,10.5,1,0,0,0,24,24,82,1,,,,,,,,
,,,,,,,,,,,,,FF,,,,,,,,3.6664,,,,,,,,,,,,,,,,,,,,,,60ff4de9a6090fa9b9f61bb7,61036e3366688e56b0721e9b,2021-07-29_23h15.37.193,Simcolourproject_2stim_asymm_v5,2020.2.10,Win32,60,61025ae37ef11b136ea224fe,,,,,,,,,3219,89,48.5,1,0,0,response1disk,,6,5,0.5,1,0,0,rectangle,5,0.5,1,0,0,5,0.5,1,0,0,0,25,25,62,1,,,,,,,,
,,,,,,,,,,,,,FF,,,,,,,,3.2497,,,,,,,,,,,,,,,,,,,,,,60ff4de9a6090fa9b9f61bb7,61036e3366688e56b0721e9b,2021-07-29_23h15.37.193,Simcolourproject_2stim_asymm_v5,2020.2.10,Win32,60,61025ae37ef11b136ea224fe,,,,,,,,,1642,70,56,1,0,0,response1disk,,6,9.5,10,1,0,0,rectangle,9.5,10,1,0,0,9.5,10,1,0,0,0,26,26,79,1,,,,,,,,
,,,,,,,,,,,,,FF,,,,,,,,1.5337,,,,,,,,,,,,,,,,,,,,,,60ff4de9a6090fa9b9f61bb7,61036e3366688e56b0721e9b,2021-07-29_23h15.37.193,Simcolourproject_2stim_asymm_v5,2020.2.10,Win32,60,61025ae37ef11b136ea224fe,,,,,,,,,4315,44,98.5,1,0,0,response1disk,,7,-2.5,1,1,0,0,rectangle,-2.5,1,1,0,0,-2.5,1,1,0,0,0,27,27,77,1,,,,,,,,
,,,,,,,,,,,,,FF,,,,,,,,2.9834,,,,,,,,,,,,,,,,,,,,,,60ff4de9a6090fa9b9f61bb7,61036e3366688e56b0721e9b,2021-07-29_23h15.37.193,Simcolourproject_2stim_asymm_v5,2020.2.10,Win32,60,61025ae37ef11b136ea224fe,,,,,,,,,3917,35,-109.5,1,0,0,response3disk,,4,13,2.5,1,0,0,rectangle,13,2.5,1,0,0,13,2.5,1,0,0,0,28,28,86,1,,,,,,,,
,,,,,,,,,,,,,FF,,,,,,,,2.0668,,,,,,,,,,,,,,,,,,,,,,60ff4de9a6090fa9b9f61bb7,61036e3366688e56b0721e9b,2021-07-29_23h15.37.193,Simcolourproject_2stim_asymm_v5,2020.2.10,Win32,60,61025ae37ef11b136ea224fe,,,,,,,,,1553,34,76,1,0,0,response1disk,,7,5.5,6,1,0,0,rectangle,5.5,6,1,0,0,5.5,6,1,0,0,0,29,29,107,1,,,,,,,,
,,,,,,,,,,,,,FF,,,,,,,,3.7997,,,,,,,,,,,,,,,,,,,,,,60ff4de9a6090fa9b9f61bb7,61036e3366688e56b0721e9b,2021-07-29_23h15.37.193,Simcolourproject_2stim_asymm_v5,2020.2.10,Win32,60,61025ae37ef11b136ea224fe,,,,,,,,,2817,-33,-77.5,1,0,0,response5disk,,3,-2,11,1,0,0,rectangle,-2,11,1,0,0,-2,11,1,0,0,0,30,30,16,1,,,,,,,,
,,,,,,,,,,,,,FF,,,,,,,,3.3663,,,,,,,,,,,,,,,,,,,,,,60ff4de9a6090fa9b9f61bb7,61036e3366688e56b0721e9b,2021-07-29_23h15.37.193,Simcolourproject_2stim_asymm_v5,2020.2.10,Win32,60,61025ae37ef11b136ea224fe,,,,,,,,,1930,36,-92,1,0,0,response3disk,,4,5.5,2.5,1,0,0,rectangle,5.5,2.5,1,0,0,5.5,2.5,1,0,0,0,31,31,87,1,,,,,,,,
,,,,,,,,,,,,,FF,,,,,,,,5.0499,,,,,,,,,,,,,,,,,,,,,,60ff4de9a6090fa9b9f61bb7,61036e3366688e56b0721e9b,2021-07-29_23h15.37.193,Simcolourproject_2stim_asymm_v5,2020.2.10,Win32,60,61025ae37ef11b136ea224fe,,,,,,,,,2456,67,-29,1,0,0,response3disk,,5,7.5,7.5,1,0,0,rectangle,7.5,7.5,1,0,0,7.5,7.5,1,0,0,0,32,32,134,1,,,,,,,,
,,,,,,,,,,,,,FF,,,,,,,,2.2835,,,,,,,,,,,,,,,,,,,,,,60ff4de9a6090fa9b9f61bb7,61036e3366688e56b0721e9b,2021-07-29_23h15.37.193,Simcolourproject_2stim_asymm_v5,2020.2.10,Win32,60,61025ae37ef11b136ea224fe,,,,,,,,,2788,80.5,31,1,0,0,response1disk,,6,3.5,0.5,1,0,0,rectangle,3.5,0.5,1,0,0,3.5,0.5,1,0,0,0,33,33,135,1,,,,,,,,
,,,,,,,,,,,,,FF,,,,,,,,2.3829,,,,,,,,,,,,,,,,,,,,,,60ff4de9a6090fa9b9f61bb7,61036e3366688e56b0721e9b,2021-07-29_23h15.37.193,Simcolourproject_2stim_asymm_v5,2020.2.10,Win32,60,61025ae37ef11b136ea224fe,,,,,,,,,2098,-65,34.5,1,0,0,response7disk,,1,1.5,6,1,0,0,rectangle,1.5,6,1,0,0,1.5,6,1,0,0,0,34,34,66,1,,,,,,,,
,,,,,,,,,,,,,FF,,,,,,,,2.5831,,,,,,,,,,,,,,,,,,,,,,60ff4de9a6090fa9b9f61bb7,61036e3366688e56b0721e9b,2021-07-29_23h15.37.193,Simcolourproject_2stim_asymm_v5,2020.2.10,Win32,60,61025ae37ef11b136ea224fe,,,,,,,,,3196,-71.5,-33,1,0,0,response5disk,,2,-12,0.5,1,0,0,rectangle,-12,0.5,1,0,0,-12,0.5,1,0,0,0,35,35,26,1,,,,,,,,
,,,,,,,,,,,,,FF,,,,,,,,1.3842,,,,,,,,,,,,,,,,,,,,,,60ff4de9a6090fa9b9f61bb7,61036e3366688e56b0721e9b,2021-07-29_23h15.37.193,Simcolourproject_2stim_asymm_v5,2020.2.10,Win32,60,61025ae37ef11b136ea224fe,,,,,,,,,2721,-72.5,-29.5,1,0,0,response5disk,,2,2.5,6.5,1,0,0,rectangle,2.5,6.5,1,0,0,2.5,6.5,1,0,0,0,36,36,126,1,,,,,,,,
,,,,,,,,,,,,,FF,,,,,,,,1.6169,,,,,,,,,,,,,,,,,,,,,,60ff4de9a6090fa9b9f61bb7,61036e3366688e56b0721e9b,2021-07-29_23h15.37.193,Simcolourproject_2stim_asymm_v5,2020.2.10,Win32,60,61025ae37ef11b136ea224fe,,,,,,,,,28,-52,-93,1,0,0,response5disk,,3,4.5,6,1,0,0,rectangle,4.5,6,1,0,0,4.5,6,1,0,0,0,37,37,3,1,,,,,,,,
,,,,,,,,,,,,,FF,,,,,,,,2.8335,,,,,,,,,,,,,,,,,,,,,,60ff4de9a6090fa9b9f61bb7,61036e3366688e56b0721e9b,2021-07-29_23h15.37.193,Simcolourproject_2stim_asymm_v5,2020.2.10,Win32,60,61025ae37ef11b136ea224fe,,,,,,,,,34,77,-34.5,1,0,0,response3disk,,5,17.5,5.5,1,0,0,rectangle,17.5,5.5,1,0,0,17.5,5.5,1,0,0,0,38,38,145,1,,,,,,,,
,,,,,,,,,,,,,FF,,,,,,,,1.6,,,,,,,,,,,,,,,,,,,,,,60ff4de9a6090fa9b9f61bb7,61036e3366688e56b0721e9b,2021-07-29_23h15.37.193,Simcolourproject_2stim_asymm_v5,2020.2.10,Win32,60,61025ae37ef11b136ea224fe,,,,,,,,,589,74.5,-29.5,1,0,0,response3disk,,5,-1.5,14.5,1,0,0,rectangle,-1.5,14.5,1,0,0,-1.5,14.5,1,0,0,0,39,39,125,1,,,,,,,,
,,,,,,,,,,,,,FF,,,,,,,,5.1828,,,,,,,,,,,,,,,,,,,,,,60ff4de9a6090fa9b9f61bb7,61036e3366688e56b0721e9b,2021-07-29_23h15.37.193,Simcolourproject_2stim_asymm_v5,2020.2.10,Win32,60,61025ae37ef11b136ea224fe,,,,,,,,,3730,82,38,1,0,0,response1disk,,6,11,9.5,1,0,0,rectangle,11,9.5,1,0,0,11,9.5,1,0,0,0,40,40,92,1,,,,,,,,
,,,,,,,,,,,,,FF,,,,,,,,3.633,,,,,,,,,,,,,,,,,,,,,,60ff4de9a6090fa9b9f61bb7,61036e3366688e56b0721e9b,2021-07-29_23h15.37.193,Simcolourproject_2stim_asymm_v5,2020.2.10,Win32,60,61025ae37ef11b136ea224fe,,,,,,,,,857,75.5,32.5,1,0,0,response1disk,,6,16,7,1,0,0,rectangle,16,7,1,0,0,16,7,1,0,0,0,41,41,6,1,,,,,,,,
,,,,,,,,,,,,,FF,,,,,,,,2.3334,,,,,,,,,,,,,,,,,,,,,,60ff4de9a6090fa9b9f61bb7,61036e3366688e56b0721e9b,2021-07-29_23h15.37.193,Simcolourproject_2stim_asymm_v5,2020.2.10,Win32,60,61025ae37ef11b136ea224fe,,,,,,,,,312,67.5,58.5,1,0,0,response1disk,,6,-2,15.5,1,0,0,rectangle,-2,15.5,1,0,0,-2,15.5,1,0,0,0,42,42,146,1,,,,,,,,
,,,,,,,,,,,,,FF,,,,,,,,17.8313,,,,,,,,,,,,,,,,,,,,,,60ff4de9a6090fa9b9f61bb7,61036e3366688e56b0721e9b,2021-07-29_23h15.37.193,Simcolourproject_2stim_asymm_v5,2020.2.10,Win32,60,61025ae37ef11b136ea224fe,,,,,,,,,1699,-34.5,-83.5,1,0,0,response5disk,,3,12,-1,1,0,0,rectangle,12,-1,1,0,0,12,-1,1,0,0,0,43,43,78,1,,,,,,,,
,,,,,,,,,,,,,FF,,,,,,,,1.9667,,,,,,,,,,,,,,,,,,,,,,60ff4de9a6090fa9b9f61bb7,61036e3366688e56b0721e9b,2021-07-29_23h15.37.193,Simcolourproject_2stim_asymm_v5,2020.2.10,Win32,60,61025ae37ef11b136ea224fe,,,,,,,,,1769,72.5,-33,1,0,0,response3disk,,5,11,1,1,0,0,rectangle,11,1,1,0,0,11,1,1,0,0,0,44,44,153,1,,,,,,,,
,,,,,,,,,,,,,FF,,,,,,,,3.1333,,,,,,,,,,,,,,,,,,,,,,60ff4de9a6090fa9b9f61bb7,61036e3366688e56b0721e9b,2021-07-29_23h15.37.193,Simcolourproject_2stim_asymm_v5,2020.2.10,Win32,60,61025ae37ef11b136ea224fe,,,,,,,,,344,30.5,-80.5,1,0,0,response3disk,,4,-5.5,0.5,1,0,0,rectangle,-5.5,0.5,1,0,0,-5.5,0.5,1,0,0,0,45,45,84,1,,,,,,,,
,,,,,,,,,,,,,FF,,,,,,,,2.2167,,,,,,,,,,,,,,,,,,,,,,60ff4de9a6090fa9b9f61bb7,61036e3366688e56b0721e9b,2021-07-29_23h15.37.193,Simcolourproject_2stim_asymm_v5,2020.2.10,Win32,60,61025ae37ef11b136ea224fe,,,,,,,,,359,76.5,65.5,1,0,0,response1disk,,6,9,2,1,0,0,rectangle,9,2,1,0,0,9,2,1,0,0,0,46,46,34,1,,,,,,,,
,,,,,,,,,,,,,FF,,,,,,,,1.7333,,,,,,,,,,,,,,,,,,,,,,60ff4de9a6090fa9b9f61bb7,61036e3366688e56b0721e9b,2021-07-29_23h15.37.193,Simcolourproject_2stim_asymm_v5,2020.2.10,Win32,60,61025ae37ef11b136ea224fe,,,,,,,,,807,-83,-58,1,0,0,response5disk,,2,-2.5,6,1,0,0,rectangle,-2.5,6,1,0,0,-2.5,6,1,0,0,0,47,47,5,1,,,,,,,,
,,,,,,,,,,,,,FF,,,,,,,,5.9734,,,,,,,,,,,,,,,,,,,,,,60ff4de9a6090fa9b9f61bb7,61036e3366688e56b0721e9b,2021-07-29_23h15.37.193,Simcolourproject_2stim_asymm_v5,2020.2.10,Win32,60,61025ae37ef11b136ea224fe,,,,,,,,,125,52,-91.5,1,0,0,response3disk,,4,-1,7.5,1,0,0,rectangle,-1,7.5,1,0,0,-1,7.5,1,0,0,0,48,48,59,1,,,,,,,,
,,,,,,,,,,,,,FF,,,,,,,,1.4173,,,,,,,,,,,,,,,,,,,,,,60ff4de9a6090fa9b9f61bb7,61036e3366688e56b0721e9b,2021-07-29_23h15.37.193,Simcolourproject_2stim_asymm_v5,2020.2.10,Win32,60,61025ae37ef11b136ea224fe,,,,,,,,,1098,70,36,1,0,0,response1disk,,6,6,-6,1,0,0,rectangle,6,-6,1,0,0,6,-6,1,0,0,0,49,49,127,1,,,,,,,,
,,,,,,,,,,,,,FF,,,,,,,,2.0105,,,,,,,,,,,,,,,,,,,,,,60ff4de9a6090fa9b9f61bb7,61036e3366688e56b0721e9b,2021-07-29_23h15.37.193,Simcolourproject_2stim_asymm_v5,2020.2.10,Win32,60,61025ae37ef11b136ea224fe,,,,,,,,,2114,96.5,-41.5,1,0,0,response3disk,,5,2,2,1,0,0,rectangle,2,2,1,0,0,2,2,1,0,0,0,50,50,140,1,,,,,,,,
,,,,,,,,,,,,,FF,,,,,,,,1.8499,,,,,,,,,,,,,,,,,,,,,,60ff4de9a6090fa9b9f61bb7,61036e3366688e56b0721e9b,2021-07-29_23h15.37.193,Simcolourproject_2stim_asymm_v5,2020.2.10,Win32,60,61025ae37ef11b136ea224fe,,,,,,,,,2400,80.5,44.5,1,0,0,response1disk,,6,14,4,1,0,0,rectangle,-36.5,91.5,1,0,0,-1,4.5,1,0,0,0,51,51,32,1,,response7disk_3,TRUE,0,0,"[52,181,197,138,173,19,181,165,252,218,168,118,187,5,172,210,204,115,259,210]",1.6954,rectangle
,,,,,,,,,,,,,FF,,,,,,,,33.0031,,,,,,,,,,,,,,,,,,,,,,60ff4de9a6090fa9b9f61bb7,61036e3366688e56b0721e9b,2021-07-29_23h15.37.193,Simcolourproject_2stim_asymm_v5,2020.2.10,Win32,60,61025ae37ef11b136ea224fe,,,,,,,,,2403,52.5,-75,1,0,0,response3disk,,4,-1,6,1,0,0,rectangle,-1,6,1,0,0,-1,6,1,0,0,0,52,52,13,1,,,,,,,,
,,,,,,,,,,,,,FF,,,,,,,,1.4335,,,,,,,,,,,,,,,,,,,,,,60ff4de9a6090fa9b9f61bb7,61036e3366688e56b0721e9b,2021-07-29_23h15.37.193,Simcolourproject_2stim_asymm_v5,2020.2.10,Win32,60,61025ae37ef11b136ea224fe,,,,,,,,,3565,-88,-35.5,1,0,0,response5disk,,2,1.5,9,1,0,0,rectangle,1.5,9,1,0,0,1.5,9,1,0,0,0,53,53,63,1,,,,,,,,
,,,,,,,,,,,,,FF,,,,,,,,3.4667,,,,,,,,,,,,,,,,,,,,,,60ff4de9a6090fa9b9f61bb7,61036e3366688e56b0721e9b,2021-07-29_23h15.37.193,Simcolourproject_2stim_asymm_v5,2020.2.10,Win32,60,61025ae37ef11b136ea224fe,,,,,,,,,3387,-49,-86,1,0,0,response5disk,,3,1.5,14,1,0,0,rectangle,1.5,14,1,0,0,1.5,14,1,0,0,0,54,54,101,1,,,,,,,,
,,,,,,,,,,,,,FF,,,,,,,,2.9021,,,,,,,,,,,,,,,,,,,,,,60ff4de9a6090fa9b9f61bb7,61036e3366688e56b0721e9b,2021-07-29_23h15.37.193,Simcolourproject_2stim_asymm_v5,2020.2.10,Win32,60,61025ae37ef11b136ea224fe,,,,,,,,,4079,-35.5,-76,1,0,0,response5disk,,3,1,1,1,0,0,rectangle,1,1,1,0,0,1,1,1,0,0,0,55,55,35,1,,,,,,,,
,,,,,,,,,,,,,FF,,,,,,,,2.7602,,,,,,,,,,,,,,,,,,,,,,60ff4de9a6090fa9b9f61bb7,61036e3366688e56b0721e9b,2021-07-29_23h15.37.193,Simcolourproject_2stim_asymm_v5,2020.2.10,Win32,60,61025ae37ef11b136ea224fe,,,,,,,,,877,36.5,-91.5,1,0,0,response3disk,,4,2,6.5,1,0,0,rectangle,2,6.5,1,0,0,2,6.5,1,0,0,0,56,56,93,1,,,,,,,,
,,,,,,,,,,,,,FF,,,,,,,,4.8327,,,,,,,,,,,,,,,,,,,,,,60ff4de9a6090fa9b9f61bb7,61036e3366688e56b0721e9b,2021-07-29_23h15.37.193,Simcolourproject_2stim_asymm_v5,2020.2.10,Win32,60,61025ae37ef11b136ea224fe,,,,,,,,,1512,70.5,-30,1,0,0,response3disk,,5,-6,0.5,1,0,0,rectangle,-6,0.5,1,0,0,-6,0.5,1,0,0,0,57,57,48,1,,,,,,,,
,,,,,,,,,,,,,FF,,,,,,,,3.2398,,,,,,,,,,,,,,,,,,,,,,60ff4de9a6090fa9b9f61bb7,61036e3366688e56b0721e9b,2021-07-29_23h15.37.193,Simcolourproject_2stim_asymm_v5,2020.2.10,Win32,60,61025ae37ef11b136ea224fe,,,,,,,,,2050,96,-46.5,1,0,0,response3disk,,5,-10.5,-0.5,1,0,0,rectangle,-10.5,-0.5,1,0,0,-10.5,-0.5,1,0,0,0,58,58,142,1,,,,,,,,
,,,,,,,,,,,,,FF,,,,,,,,3.3003,,,,,,,,,,,,,,,,,,,,,,60ff4de9a6090fa9b9f61bb7,61036e3366688e56b0721e9b,2021-07-29_23h15.37.193,Simcolourproject_2stim_asymm_v5,2020.2.10,Win32,60,61025ae37ef11b136ea224fe,,,,,,,,,651,-58,-73,1,0,0,response5disk,,3,5,-3,1,0,0,rectangle,5,-3,1,0,0,5,-3,1,0,0,0,59,59,106,1,,,,,,,,
,,,,,,,,,,,,,FF,,,,,,,,2.1107,,,,,,,,,,,,,,,,,,,,,,60ff4de9a6090fa9b9f61bb7,61036e3366688e56b0721e9b,2021-07-29_23h15.37.193,Simcolourproject_2stim_asymm_v5,2020.2.10,Win32,60,61025ae37ef11b136ea224fe,,,,,,,,,4322,-50,-93.5,1,0,0,response5disk,,3,13.5,3.5,1,0,0,rectangle,13.5,3.5,1,0,0,13.5,3.5,1,0,0,0,60,60,149,1,,,,,,,,
,,,,,,,,,,,,,FF,,,,,,,,1.7618,,,,,,,,,,,,,,,,,,,,,,60ff4de9a6090fa9b9f61bb7,61036e3366688e56b0721e9b,2021-07-29_23h15.37.193,Simcolourproject_2stim_asymm_v5,2020.2.10,Win32,60,61025ae37ef11b136ea224fe,,,,,,,,,2836,-86,-28.5,1,0,0,response5disk,,2,-22.5,13,1,0,0,rectangle,-22.5,13,1,0,0,-22.5,13,1,0,0,0,61,61,119,1,,,,,,,,
,,,,,,,,,,,,,FF,,,,,,,,3.6331,,,,,,,,,,,,,,,,,,,,,,60ff4de9a6090fa9b9f61bb7,61036e3366688e56b0721e9b,2021-07-29_23h15.37.193,Simcolourproject_2stim_asymm_v5,2020.2.10,Win32,60,61025ae37ef11b136ea224fe,,,,,,,,,3901,-57.5,-75,1,0,0,response5disk,,3,4,5.5,1,0,0,rectangle,4,5.5,1,0,0,4,5.5,1,0,0,0,62,62,144,1,,,,,,,,
,,,,,,,,,,,,,FF,,,,,,,,4.8332,,,,,,,,,,,,,,,,,,,,,,60ff4de9a6090fa9b9f61bb7,61036e3366688e56b0721e9b,2021-07-29_23h15.37.193,Simcolourproject_2stim_asymm_v5,2020.2.10,Win32,60,61025ae37ef11b136ea224fe,,,,,,,,,2156,94.5,-32.5,1,0,0,response3disk,,5,3,3.5,1,0,0,rectangle,3,3.5,1,0,0,3,3.5,1,0,0,0,63,63,68,1,,,,,,,,
,,,,,,,,,,,,,FF,,,,,,,,1.3278,,,,,,,,,,,,,,,,,,,,,,60ff4de9a6090fa9b9f61bb7,61036e3366688e56b0721e9b,2021-07-29_23h15.37.193,Simcolourproject_2stim_asymm_v5,2020.2.10,Win32,60,61025ae37ef11b136ea224fe,,,,,,,,,3235,81.5,54,1,0,0,response1disk,,6,-2.5,-7,1,0,0,rectangle,-2.5,-7,1,0,0,-2.5,-7,1,0,0,0,64,64,72,1,,,,,,,,
,,,,,,,,,,,,,FF,,,,,,,,1.4735,,,,,,,,,,,,,,,,,,,,,,60ff4de9a6090fa9b9f61bb7,61036e3366688e56b0721e9b,2021-07-29_23h15.37.193,Simcolourproject_2stim_asymm_v5,2020.2.10,Win32,60,61025ae37ef11b136ea224fe,,,,,,,,,2815,34.5,27,1,0,0,response1disk,,6,-3,-6.5,1,0,0,rectangle,-3,-6.5,1,0,0,-3,-6.5,1,0,0,0,65,65,25,1,,,,,,,,
,,,,,,,,,,,,,FF,,,,,,,,1.2669,,,,,,,,,,,,,,,,,,,,,,60ff4de9a6090fa9b9f61bb7,61036e3366688e56b0721e9b,2021-07-29_23h15.37.193,Simcolourproject_2stim_asymm_v5,2020.2.10,Win32,60,61025ae37ef11b136ea224fe,,,,,,,,,4062,42.5,87,1,0,0,response1disk,,7,11.5,3,1,0,0,rectangle,11.5,3,1,0,0,11.5,3,1,0,0,0,66,66,2,1,,,,,,,,
,,,,,,,,,,,,,FF,,,,,,,,4.1067,,,,,,,,,,,,,,,,,,,,,,60ff4de9a6090fa9b9f61bb7,61036e3366688e56b0721e9b,2021-07-29_23h15.37.193,Simcolourproject_2stim_asymm_v5,2020.2.10,Win32,60,61025ae37ef11b136ea224fe,,,,,,,,,699,85.5,49,1,0,0,response1disk,,6,-2,-3,1,0,0,rectangle,-2,-3,1,0,0,-2,-3,1,0,0,0,67,67,36,1,,,,,,,,
,,,,,,,,,,,,,FF,,,,,,,,1.5839,,,,,,,,,,,,,,,,,,,,,,60ff4de9a6090fa9b9f61bb7,61036e3366688e56b0721e9b,2021-07-29_23h15.37.193,Simcolourproject_2stim_asymm_v5,2020.2.10,Win32,60,61025ae37ef11b136ea224fe,,,,,,,,,3624,-69,-29.5,1,0,0,response5disk,,2,-5.5,11,1,0,0,rectangle,-5.5,11,1,0,0,-5.5,11,1,0,0,0,68,68,154,1,,,,,,,,
,,,,,,,,,,,,,FF,,,,,,,,1.7444,,,,,,,,,,,,,,,,,,,,,,60ff4de9a6090fa9b9f61bb7,61036e3366688e56b0721e9b,2021-07-29_23h15.37.193,Simcolourproject_2stim_asymm_v5,2020.2.10,Win32,60,61025ae37ef11b136ea224fe,,,,,,,,,210,-72.5,-29.5,1,0,0,response5disk,,2,-17,3,1,0,0,rectangle,-17,3,1,0,0,-17,3,1,0,0,0,69,69,69,1,,,,,,,,
,,,,,,,,,,,,,FF,,,,,,,,2.9835,,,,,,,,,,,,,,,,,,,,,,60ff4de9a6090fa9b9f61bb7,61036e3366688e56b0721e9b,2021-07-29_23h15.37.193,Simcolourproject_2stim_asymm_v5,2020.2.10,Win32,60,61025ae37ef11b136ea224fe,,,,,,,,,85,79.5,49,1,0,0,response1disk,,6,8.5,3.5,1,0,0,rectangle,8.5,3.5,1,0,0,8.5,3.5,1,0,0,0,70,70,45,1,,,,,,,,
,,,,,,,,,,,,,FF,,,,,,,,1.6903,,,,,,,,,,,,,,,,,,,,,,60ff4de9a6090fa9b9f61bb7,61036e3366688e56b0721e9b,2021-07-29_23h15.37.193,Simcolourproject_2stim_asymm_v5,2020.2.10,Win32,60,61025ae37ef11b136ea224fe,,,,,,,,,723,-79.5,-27.5,1,0,0,response5disk,,2,-9,8.5,1,0,0,rectangle,-9,8.5,1,0,0,-9,8.5,1,0,0,0,71,71,42,1,,,,,,,,
,,,,,,,,,,,,,FF,,,,,,,,3.6001,,,,,,,,,,,,,,,,,,,,,,60ff4de9a6090fa9b9f61bb7,61036e3366688e56b0721e9b,2021-07-29_23h15.37.193,Simcolourproject_2stim_asymm_v5,2020.2.10,Win32,60,61025ae37ef11b136ea224fe,,,,,,,,,4194,80.5,53,1,0,0,response1disk,,6,7.5,-0.5,1,0,0,rectangle,7.5,-0.5,1,0,0,7.5,-0.5,1,0,0,0,72,72,23,1,,,,,,,,
,,,,,,,,,,,,,FF,,,,,,,,2.0572,,,,,,,,,,,,,,,,,,,,,,60ff4de9a6090fa9b9f61bb7,61036e3366688e56b0721e9b,2021-07-29_23h15.37.193,Simcolourproject_2stim_asymm_v5,2020.2.10,Win32,60,61025ae37ef11b136ea224fe,,,,,,,,,463,-86.5,40.5,1,0,0,response7disk,,1,-12,0,1,0,0,rectangle,-12,0,1,0,0,-12,0,1,0,0,0,73,73,105,1,,,,,,,,
,,,,,,,,,,,,,FF,,,,,,,,2.9569,,,,,,,,,,,,,,,,,,,,,,60ff4de9a6090fa9b9f61bb7,61036e3366688e56b0721e9b,2021-07-29_23h15.37.193,Simcolourproject_2stim_asymm_v5,2020.2.10,Win32,60,61025ae37ef11b136ea224fe,,,,,,,,,1077,66,33,1,0,0,response1disk,,6,-2,0.5,1,0,0,rectangle,-2,0.5,1,0,0,-2,0.5,1,0,0,0,74,74,139,1,,,,,,,,
,,,,,,,,,,,,,FF,,,,,,,,2.1504,,,,,,,,,,,,,,,,,,,,,,60ff4de9a6090fa9b9f61bb7,61036e3366688e56b0721e9b,2021-07-29_23h15.37.193,Simcolourproject_2stim_asymm_v5,2020.2.10,Win32,60,61025ae37ef11b136ea224fe,,,,,,,,,3992,-83.5,-33.5,1,0,0,response5disk,,2,0.5,15,1,0,0,rectangle,0.5,15,1,0,0,0.5,15,1,0,0,0,75,75,129,1,,,,,,,,
,,,,,,,,,,,,,FF,,,,,,,,1.8001,,,,,,,,,,,,,,,,,,,,,,60ff4de9a6090fa9b9f61bb7,61036e3366688e56b0721e9b,2021-07-29_23h15.37.193,Simcolourproject_2stim_asymm_v5,2020.2.10,Win32,60,61025ae37ef11b136ea224fe,,,,,,,,,950,-63,29,1,0,0,response7disk,,1,4.5,0,1,0,0,rectangle,4.5,0,1,0,0,4.5,0,1,0,0,0,76,76,148,1,,,,,,,,
,,,,,,,,,,,,,FF,,,,,,,,1.9733,,,,,,,,,,,,,,,,,,,,,,60ff4de9a6090fa9b9f61bb7,61036e3366688e56b0721e9b,2021-07-29_23h15.37.193,Simcolourproject_2stim_asymm_v5,2020.2.10,Win32,60,61025ae37ef11b136ea224fe,,,,,,,,,1279,21.5,-90,1,0,0,response3disk,,4,-10,16.5,1,0,0,rectangle,-10,16.5,1,0,0,-10,16.5,1,0,0,0,77,77,31,1,,,,,,,,
,,,,,,,,,,,,,FF,,,,,,,,2.0902,,,,,,,,,,,,,,,,,,,,,,60ff4de9a6090fa9b9f61bb7,61036e3366688e56b0721e9b,2021-07-29_23h15.37.193,Simcolourproject_2stim_asymm_v5,2020.2.10,Win32,60,61025ae37ef11b136ea224fe,,,,,,,,,596,73.5,38,1,0,0,response1disk,,6,-10,-2.5,1,0,0,rectangle,-10,-2.5,1,0,0,-10,-2.5,1,0,0,0,78,78,50,1,,,,,,,,
,,,,,,,,,,,,,FF,,,,,,,,1.267,,,,,,,,,,,,,,,,,,,,,,60ff4de9a6090fa9b9f61bb7,61036e3366688e56b0721e9b,2021-07-29_23h15.37.193,Simcolourproject_2stim_asymm_v5,2020.2.10,Win32,60,61025ae37ef11b136ea224fe,,,,,,,,,563,40,81.5,1,0,0,response1disk,,7,11,5,1,0,0,rectangle,11,5,1,0,0,11,5,1,0,0,0,79,79,98,1,,,,,,,,
,,,,,,,,,,,,,FF,,,,,,,,1.8574,,,,,,,,,,,,,,,,,,,,,,60ff4de9a6090fa9b9f61bb7,61036e3366688e56b0721e9b,2021-07-29_23h15.37.193,Simcolourproject_2stim_asymm_v5,2020.2.10,Win32,60,61025ae37ef11b136ea224fe,,,,,,,,,812,56.5,80.5,1,0,0,response1disk,,7,-3.5,-0.5,1,0,0,rectangle,-3.5,-0.5,1,0,0,-3.5,-0.5,1,0,0,0,80,80,10,1,,,,,,,,
,,,,,,,,,,,,,FF,,,,,,,,1.8608,,,,,,,,,,,,,,,,,,,,,,60ff4de9a6090fa9b9f61bb7,61036e3366688e56b0721e9b,2021-07-29_23h15.37.193,Simcolourproject_2stim_asymm_v5,2020.2.10,Win32,60,61025ae37ef11b136ea224fe,,,,,,,,,1054,-103,-46,1,0,0,response5disk,,2,3.5,12,1,0,0,rectangle,3.5,12,1,0,0,3.5,12,1,0,0,0,81,81,117,1,,,,,,,,
,,,,,,,,,,,,,FF,,,,,,,,2.2503,,,,,,,,,,,,,,,,,,,,,,60ff4de9a6090fa9b9f61bb7,61036e3366688e56b0721e9b,2021-07-29_23h15.37.193,Simcolourproject_2stim_asymm_v5,2020.2.10,Win32,60,61025ae37ef11b136ea224fe,,,,,,,,,584,-80.5,-41,1,0,0,response5disk,,2,1.5,7,1,0,0,rectangle,1.5,7,1,0,0,1.5,7,1,0,0,0,82,82,19,1,,,,,,,,
,,,,,,,,,,,,,FF,,,,,,,,1.1403,,,,,,,,,,,,,,,,,,,,,,60ff4de9a6090fa9b9f61bb7,61036e3366688e56b0721e9b,2021-07-29_23h15.37.193,Simcolourproject_2stim_asymm_v5,2020.2.10,Win32,60,61025ae37ef11b136ea224fe,,,,,,,,,4271,47,91,1,0,0,response1disk,,7,3.5,-8,1,0,0,rectangle,3.5,-8,1,0,0,3.5,-8,1,0,0,0,83,83,123,1,,,,,,,,
,,,,,,,,,,,,,FF,,,,,,,,1.6004,,,,,,,,,,,,,,,,,,,,,,60ff4de9a6090fa9b9f61bb7,61036e3366688e56b0721e9b,2021-07-29_23h15.37.193,Simcolourproject_2stim_asymm_v5,2020.2.10,Win32,60,61025ae37ef11b136ea224fe,,,,,,,,,4207,-38,72.5,1,0,0,response7disk,,0,-4.5,7,1,0,0,rectangle,-4.5,7,1,0,0,-4.5,7,1,0,0,0,84,84,53,1,,,,,,,,
,,,,,,,,,,,,,FF,,,,,,,,1.2338,,,,,,,,,,,,,,,,,,,,,,60ff4de9a6090fa9b9f61bb7,61036e3366688e56b0721e9b,2021-07-29_23h15.37.193,Simcolourproject_2stim_asymm_v5,2020.2.10,Win32,60,61025ae37ef11b136ea224fe,,,,,,,,,515,80.5,38.5,1,0,0,response1disk,,6,6,0.5,1,0,0,rectangle,6,0.5,1,0,0,6,0.5,1,0,0,0,85,85,159,1,,,,,,,,
,,,,,,,,,,,,,FF,,,,,,,,2.767,,,,,,,,,,,,,,,,,,,,,,60ff4de9a6090fa9b9f61bb7,61036e3366688e56b0721e9b,2021-07-29_23h15.37.193,Simcolourproject_2stim_asymm_v5,2020.2.10,Win32,60,61025ae37ef11b136ea224fe,,,,,,,,,4339,-55.5,-84.5,1,0,0,response5disk,,3,4.5,9,1,0,0,rectangle,4.5,9,1,0,0,4.5,9,1,0,0,0,86,86,156,1,,,,,,,,
,,,,,,,,,,,,,FF,,,,,,,,1.8171,,,,,,,,,,,,,,,,,,,,,,60ff4de9a6090fa9b9f61bb7,61036e3366688e56b0721e9b,2021-07-29_23h15.37.193,Simcolourproject_2stim_asymm_v5,2020.2.10,Win32,60,61025ae37ef11b136ea224fe,,,,,,,,,3400,-52,-75,1,0,0,response5disk,,3,12,11,1,0,0,rectangle,12,11,1,0,0,12,11,1,0,0,0,87,87,75,1,,,,,,,,
,,,,,,,,,,,,,FF,,,,,,,,2.6509,,,,,,,,,,,,,,,,,,,,,,60ff4de9a6090fa9b9f61bb7,61036e3366688e56b0721e9b,2021-07-29_23h15.37.193,Simcolourproject_2stim_asymm_v5,2020.2.10,Win32,60,61025ae37ef11b136ea224fe,,,,,,,,,172,-85,-29.5,1,0,0,response5disk,,2,0.5,7.5,1,0,0,rectangle,0.5,7.5,1,0,0,0.5,7.5,1,0,0,0,88,88,121,1,,,,,,,,
,,,,,,,,,,,,,FF,,,,,,,,3.3333,,,,,,,,,,,,,,,,,,,,,,60ff4de9a6090fa9b9f61bb7,61036e3366688e56b0721e9b,2021-07-29_23h15.37.193,Simcolourproject_2stim_asymm_v5,2020.2.10,Win32,60,61025ae37ef11b136ea224fe,,,,,,,,,49,42,-84,1,0,0,response3disk,,4,4,-2.5,1,0,0,rectangle,4,-2.5,1,0,0,4,-2.5,1,0,0,0,89,89,14,1,,,,,,,,
,,,,,,,,,,,,,FF,,,,,,,,1.7829,,,,,,,,,,,,,,,,,,,,,,60ff4de9a6090fa9b9f61bb7,61036e3366688e56b0721e9b,2021-07-29_23h15.37.193,Simcolourproject_2stim_asymm_v5,2020.2.10,Win32,60,61025ae37ef11b136ea224fe,,,,,,,,,3274,64,-39.5,1,0,0,response3disk,,5,7.5,6.5,1,0,0,rectangle,7.5,6.5,1,0,0,7.5,6.5,1,0,0,0,90,90,150,1,,,,,,,,
,,,,,,,,,,,,,FF,,,,,,,,2.3831,,,,,,,,,,,,,,,,,,,,,,60ff4de9a6090fa9b9f61bb7,61036e3366688e56b0721e9b,2021-07-29_23h15.37.193,Simcolourproject_2stim_asymm_v5,2020.2.10,Win32,60,61025ae37ef11b136ea224fe,,,,,,,,,925,75.5,86,1,0,0,response1disk,,7,-4.5,0,1,0,0,rectangle,-4.5,0,1,0,0,-4.5,0,1,0,0,0,91,91,112,1,,,,,,,,
,,,,,,,,,,,,,FF,,,,,,,,2.1168,,,,,,,,,,,,,,,,,,,,,,60ff4de9a6090fa9b9f61bb7,61036e3366688e56b0721e9b,2021-07-29_23h15.37.193,Simcolourproject_2stim_asymm_v5,2020.2.10,Win32,60,61025ae37ef11b136ea224fe,,,,,,,,,3038,-89.5,-38,1,0,0,response5disk,,2,7,6,1,0,0,rectangle,7,6,1,0,0,7,6,1,0,0,0,92,92,89,1,,,,,,,,
,,,,,,,,,,,,,FF,,,,,,,,1.3834,,,,,,,,,,,,,,,,,,,,,,60ff4de9a6090fa9b9f61bb7,61036e3366688e56b0721e9b,2021-07-29_23h15.37.193,Simcolourproject_2stim_asymm_v5,2020.2.10,Win32,60,61025ae37ef11b136ea224fe,,,,,,,,,2179,-58.5,28.5,1,0,0,response7disk,,1,0.5,-1,1,0,0,rectangle,0.5,-1,1,0,0,0.5,-1,1,0,0,0,93,93,99,1,,,,,,,,
,,,,,,,,,,,,,FF,,,,,,,,1.1002,,,,,,,,,,,,,,,,,,,,,,60ff4de9a6090fa9b9f61bb7,61036e3366688e56b0721e9b,2021-07-29_23h15.37.193,Simcolourproject_2stim_asymm_v5,2020.2.10,Win32,60,61025ae37ef11b136ea224fe,,,,,,,,,4281,-55,27,1,0,0,response7disk,,1,0,-17.5,1,0,0,rectangle,0,-17.5,1,0,0,0,-17.5,1,0,0,0,94,94,138,1,,,,,,,,
,,,,,,,,,,,,,FF,,,,,,,,3.4165,,,,,,,,,,,,,,,,,,,,,,60ff4de9a6090fa9b9f61bb7,61036e3366688e56b0721e9b,2021-07-29_23h15.37.193,Simcolourproject_2stim_asymm_v5,2020.2.10,Win32,60,61025ae37ef11b136ea224fe,,,,,,,,,350,-77.5,30,1,0,0,response7disk,,1,6.5,7.5,1,0,0,rectangle,6.5,7.5,1,0,0,6.5,7.5,1,0,0,0,95,95,56,1,,,,,,,,
,,,,,,,,,,,,,FF,,,,,,,,1.9501,,,,,,,,,,,,,,,,,,,,,,60ff4de9a6090fa9b9f61bb7,61036e3366688e56b0721e9b,2021-07-29_23h15.37.193,Simcolourproject_2stim_asymm_v5,2020.2.10,Win32,60,61025ae37ef11b136ea224fe,,,,,,,,,400,-55,-93,1,0,0,response5disk,,3,1,12.5,1,0,0,rectangle,1,12.5,1,0,0,1,12.5,1,0,0,0,96,96,18,1,,,,,,,,
,,,,,,,,,,,,,FF,,,,,,,,1.2836,,,,,,,,,,,,,,,,,,,,,,60ff4de9a6090fa9b9f61bb7,61036e3366688e56b0721e9b,2021-07-29_23h15.37.193,Simcolourproject_2stim_asymm_v5,2020.2.10,Win32,60,61025ae37ef11b136ea224fe,,,,,,,,,2604,-56,-83,1,0,0,response5disk,,3,3.5,8,1,0,0,rectangle,3.5,8,1,0,0,3.5,8,1,0,0,0,97,97,128,1,,,,,,,,
,,,,,,,,,,,,,FF,,,,,,,,3.1,,,,,,,,,,,,,,,,,,,,,,60ff4de9a6090fa9b9f61bb7,61036e3366688e56b0721e9b,2021-07-29_23h15.37.193,Simcolourproject_2stim_asymm_v5,2020.2.10,Win32,60,61025ae37ef11b136ea224fe,,,,,,,,,1097,67,46,1,0,0,response1disk,,6,-4.5,6,1,0,0,rectangle,-4.5,6,1,0,0,-4.5,6,1,0,0,0,98,98,47,1,,,,,,,,
,,,,,,,,,,,,,FF,,,,,,,,1.8832,,,,,,,,,,,,,,,,,,,,,,60ff4de9a6090fa9b9f61bb7,61036e3366688e56b0721e9b,2021-07-29_23h15.37.193,Simcolourproject_2stim_asymm_v5,2020.2.10,Win32,60,61025ae37ef11b136ea224fe,,,,,,,,,318,47.5,82,1,0,0,response1disk,,7,8,2,1,0,0,rectangle,8,2,1,0,0,8,2,1,0,0,0,99,99,122,1,,,,,,,,
,,,,,,,,,,,,,FF,,,,,,,,1.9,,,,,,,,,,,,,,,,,,,,,,60ff4de9a6090fa9b9f61bb7,61036e3366688e56b0721e9b,2021-07-29_23h15.37.193,Simcolourproject_2stim_asymm_v5,2020.2.10,Win32,60,61025ae37ef11b136ea224fe,,,,,,,,,4055,65,44.5,1,0,0,response1disk,,6,4,-5,1,0,0,rectangle,4,-5,1,0,0,4,-5,1,0,0,0,100,100,28,1,,,,,,,,
,,,,,,,,,,,,,FF,,,,,,,,1.5168,,,,,,,,,,,,,,,,,,,,,,60ff4de9a6090fa9b9f61bb7,61036e3366688e56b0721e9b,2021-07-29_23h15.37.193,Simcolourproject_2stim_asymm_v5,2020.2.10,Win32,60,61025ae37ef11b136ea224fe,,,,,,,,,366,-41.5,68.5,1,0,0,response7disk,,0,-5.5,6,1,0,0,rectangle,-5.5,6,1,0,0,-5.5,6,1,0,0,0,101,101,30,1,,,,,,,,
,,,,,,,,,,,,,FF,,,,,,,,1.3838,,,,,,,,,,,,,,,,,,,,,,60ff4de9a6090fa9b9f61bb7,61036e3366688e56b0721e9b,2021-07-29_23h15.37.193,Simcolourproject_2stim_asymm_v5,2020.2.10,Win32,60,61025ae37ef11b136ea224fe,,,,,,,,,2344,-30,62.5,1,0,0,response7disk,,0,5,-6.5,1,0,0,rectangle,5,-6.5,1,0,0,5,-6.5,1,0,0,0,102,102,137,1,,,,,,,,
,,,,,,,,,,,,,FF,,,,,,,,2.6834,,,,,,,,,,,,,,,,,,,,,,60ff4de9a6090fa9b9f61bb7,61036e3366688e56b0721e9b,2021-07-29_23h15.37.193,Simcolourproject_2stim_asymm_v5,2020.2.10,Win32,60,61025ae37ef11b136ea224fe,,,,,,,,,556,-85.5,39.5,1,0,0,response7disk,,1,-9,-7,1,0,0,rectangle,-9,-7,1,0,0,-9,-7,1,0,0,0,103,103,54,1,,,,,,,,
,,,,,,,,,,,,,FF,,,,,,,,1.8003,,,,,,,,,,,,,,,,,,,,,,60ff4de9a6090fa9b9f61bb7,61036e3366688e56b0721e9b,2021-07-29_23h15.37.193,Simcolourproject_2stim_asymm_v5,2020.2.10,Win32,60,61025ae37ef11b136ea224fe,,,,,,,,,114,-62.5,-71,1,0,0,response5disk,,3,-3.5,5.5,1,0,0,rectangle,-3.5,5.5,1,0,0,-3.5,5.5,1,0,0,0,104,104,41,1,,,,,,,,
,,,,,,,,,,,,,FF,,,,,,,,1.8837,,,,,,,,,,,,,,,,,,,,,,60ff4de9a6090fa9b9f61bb7,61036e3366688e56b0721e9b,2021-07-29_23h15.37.193,Simcolourproject_2stim_asymm_v5,2020.2.10,Win32,60,61025ae37ef11b136ea224fe,,,,,,,,,1877,47,83.5,1,0,0,response1disk,,7,10,-2,1,0,0,rectangle,10,-2,1,0,0,10,-2,1,0,0,0,105,105,17,1,,,,,,,,
,,,,,,,,,,,,,FF,,,,,,,,2.0664,,,,,,,,,,,,,,,,,,,,,,60ff4de9a6090fa9b9f61bb7,61036e3366688e56b0721e9b,2021-07-29_23h15.37.193,Simcolourproject_2stim_asymm_v5,2020.2.10,Win32,60,61025ae37ef11b136ea224fe,,,,,,,,,385,-33.5,-72,1,0,0,response5disk,,3,4.5,2.5,1,0,0,rectangle,4.5,2.5,1,0,0,4.5,2.5,1,0,0,0,106,106,9,1,,,,,,,,
,,,,,,,,,,,,,FF,,,,,,,,2.9668,,,,,,,,,,,,,,,,,,,,,,60ff4de9a6090fa9b9f61bb7,61036e3366688e56b0721e9b,2021-07-29_23h15.37.193,Simcolourproject_2stim_asymm_v5,2020.2.10,Win32,60,61025ae37ef11b136ea224fe,,,,,,,,,1839,35,-68,1,0,0,response3disk,,4,13,-2.5,1,0,0,rectangle,13,-2.5,1,0,0,13,-2.5,1,0,0,0,107,107,1,1,,,,,,,,
,,,,,,,,,,,,,FF,,,,,,,,1.9331,,,,,,,,,,,,,,,,,,,,,,60ff4de9a6090fa9b9f61bb7,61036e3366688e56b0721e9b,2021-07-29_23h15.37.193,Simcolourproject_2stim_asymm_v5,2020.2.10,Win32,60,61025ae37ef11b136ea224fe,,,,,,,,,1575,-39,-69.5,1,0,0,response5disk,,3,1,2.5,1,0,0,rectangle,1,2.5,1,0,0,1,2.5,1,0,0,0,108,108,152,1,,,,,,,,
,,,,,,,,,,,,,FF,,,,,,,,2,,,,,,,,,,,,,,,,,,,,,,60ff4de9a6090fa9b9f61bb7,61036e3366688e56b0721e9b,2021-07-29_23h15.37.193,Simcolourproject_2stim_asymm_v5,2020.2.10,Win32,60,61025ae37ef11b136ea224fe,,,,,,,,,946,73,45,1,0,0,response1disk,,6,2,0.5,1,0,0,rectangle,2,0.5,1,0,0,2,0.5,1,0,0,0,109,109,76,1,,,,,,,,
,,,,,,,,,,,,,FF,,,,,,,,1.7335,,,,,,,,,,,,,,,,,,,,,,60ff4de9a6090fa9b9f61bb7,61036e3366688e56b0721e9b,2021-07-29_23h15.37.193,Simcolourproject_2stim_asymm_v5,2020.2.10,Win32,60,61025ae37ef11b136ea224fe,,,,,,,,,3342,-53,-77,1,0,0,response5disk,,3,-2,13,1,0,0,rectangle,-2,13,1,0,0,-2,13,1,0,0,0,110,110,133,1,,,,,,,,
,,,,,,,,,,,,,FF,,,,,,,,1.5334,,,,,,,,,,,,,,,,,,,,,,60ff4de9a6090fa9b9f61bb7,61036e3366688e56b0721e9b,2021-07-29_23h15.37.193,Simcolourproject_2stim_asymm_v5,2020.2.10,Win32,60,61025ae37ef11b136ea224fe,,,,,,,,,3252,-68.5,-54,1,0,0,response5disk,,2,10,6.5,1,0,0,rectangle,10,6.5,1,0,0,10,6.5,1,0,0,0,111,111,103,1,,,,,,,,
,,,,,,,,,,,,,FF,,,,,,,,2.6667,,,,,,,,,,,,,,,,,,,,,,60ff4de9a6090fa9b9f61bb7,61036e3366688e56b0721e9b,2021-07-29_23h15.37.193,Simcolourproject_2stim_asymm_v5,2020.2.10,Win32,60,61025ae37ef11b136ea224fe,,,,,,,,,2978,71.5,-47.5,1,0,0,response3disk,,5,9.5,-6,1,0,0,rectangle,9.5,-6,1,0,0,9.5,-6,1,0,0,0,112,112,124,1,,,,,,,,
,,,,,,,,,,,,,FF,,,,,,,,1.6001,,,,,,,,,,,,,,,,,,,,,,60ff4de9a6090fa9b9f61bb7,61036e3366688e56b0721e9b,2021-07-29_23h15.37.193,Simcolourproject_2stim_asymm_v5,2020.2.10,Win32,60,61025ae37ef11b136ea224fe,,,,,,,,,449,-72,-79,1,0,0,response5disk,,3,-14.5,-2.5,1,0,0,rectangle,-14.5,-2.5,1,0,0,-14.5,-2.5,1,0,0,0,113,113,115,1,,,,,,,,
,,,,,,,,,,,,,FF,,,,,,,,1.5829,,,,,,,,,,,,,,,,,,,,,,60ff4de9a6090fa9b9f61bb7,61036e3366688e56b0721e9b,2021-07-29_23h15.37.193,Simcolourproject_2stim_asymm_v5,2020.2.10,Win32,60,61025ae37ef11b136ea224fe,,,,,,,,,2858,37,-66.5,1,0,0,response3disk,,4,6,3,1,0,0,rectangle,-105.5,-43,1,0,0,7.5,11.5,1,0,0,0,114,114,131,1,,response5disk_3,TRUE,2,2,"[52,181,197,138,173,19,181,165,252,218,168,118,187,5,172,210,204,115,259,210]",3.7003,rectangle
,,,,,,,,,,,,,FF,,,,,,,,11.5321,,,,,,,,,,,,,,,,,,,,,,60ff4de9a6090fa9b9f61bb7,61036e3366688e56b0721e9b,2021-07-29_23h15.37.193,Simcolourproject_2stim_asymm_v5,2020.2.10,Win32,60,61025ae37ef11b136ea224fe,,,,,,,,,1288,-38.5,-95,1,0,0,response5disk,,3,-5.5,2,1,0,0,rectangle,-5.5,2,1,0,0,-5.5,2,1,0,0,0,115,115,88,1,,,,,,,,
,,,,,,,,,,,,,FF,,,,,,,,1.5166,,,,,,,,,,,,,,,,,,,,,,60ff4de9a6090fa9b9f61bb7,61036e3366688e56b0721e9b,2021-07-29_23h15.37.193,Simcolourproject_2stim_asymm_v5,2020.2.10,Win32,60,61025ae37ef11b136ea224fe,,,,,,,,,3256,79.5,-32,1,0,0,response3disk,,5,-1,5.5,1,0,0,rectangle,-1,5.5,1,0,0,-1,5.5,1,0,0,0,116,116,49,1,,,,,,,,
,,,,,,,,,,,,,FF,,,,,,,,2.4013,,,,,,,,,,,,,,,,,,,,,,60ff4de9a6090fa9b9f61bb7,61036e3366688e56b0721e9b,2021-07-29_23h15.37.193,Simcolourproject_2stim_asymm_v5,2020.2.10,Win32,60,61025ae37ef11b136ea224fe,,,,,,,,,561,-47,-66.5,1,0,0,response5disk,,3,9.5,2,1,0,0,rectangle,-45.5,88,1,0,0,-12.5,1,1,0,0,0,117,117,80,1,,response7disk_3,TRUE,0,0,"[52,181,197,138,173,19,181,165,252,218,168,118,187,5,172,210,204,115,259,210]",10.1489,rectangle
,,,,,,,,,,,,,FF,,,,,,,,2.4501,,,,,,,,,,,,,,,,,,,,,,60ff4de9a6090fa9b9f61bb7,61036e3366688e56b0721e9b,2021-07-29_23h15.37.193,Simcolourproject_2stim_asymm_v5,2020.2.10,Win32,60,61025ae37ef11b136ea224fe,,,,,,,,,294,32,-73,1,0,0,response3disk,,4,-0.5,-2.5,1,0,0,rectangle,-0.5,-2.5,1,0,0,-0.5,-2.5,1,0,0,0,118,118,37,1,,,,,,,,
,,,,,,,,,,,,,FF,,,,,,,,3.6665,,,,,,,,,,,,,,,,,,,,,,60ff4de9a6090fa9b9f61bb7,61036e3366688e56b0721e9b,2021-07-29_23h15.37.193,Simcolourproject_2stim_asymm_v5,2020.2.10,Win32,60,61025ae37ef11b136ea224fe,,,,,,,,,3590,76,23.5,1,0,0,response1disk,,6,-0.5,6.5,1,0,0,rectangle,-0.5,6.5,1,0,0,-0.5,6.5,1,0,0,0,119,119,7,1,,,,,,,,
,,,,,,,,,,,,,FF,,,,,,,,1.667,,,,,,,,,,,,,,,,,,,,,,60ff4de9a6090fa9b9f61bb7,61036e3366688e56b0721e9b,2021-07-29_23h15.37.193,Simcolourproject_2stim_asymm_v5,2020.2.10,Win32,60,61025ae37ef11b136ea224fe,,,,,,,,,2560,88.5,42.5,1,0,0,response1disk,,6,6,-2,1,0,0,rectangle,6,-2,1,0,0,6,-2,1,0,0,0,120,120,95,1,,,,,,,,
,,,,,,,,,,,,,FF,,,,,,,,1.4838,,,,,,,,,,,,,,,,,,,,,,60ff4de9a6090fa9b9f61bb7,61036e3366688e56b0721e9b,2021-07-29_23h15.37.193,Simcolourproject_2stim_asymm_v5,2020.2.10,Win32,60,61025ae37ef11b136ea224fe,,,,,,,,,2222,40.5,-106,1,0,0,response3disk,,4,3.5,4,1,0,0,rectangle,3.5,4,1,0,0,3.5,4,1,0,0,0,121,121,24,1,,,,,,,,
,,,,,,,,,,,,,FF,,,,,,,,3.3503,,,,,,,,,,,,,,,,,,,,,,60ff4de9a6090fa9b9f61bb7,61036e3366688e56b0721e9b,2021-07-29_23h15.37.193,Simcolourproject_2stim_asymm_v5,2020.2.10,Win32,60,61025ae37ef11b136ea224fe,,,,,,,,,3367,72.5,51.5,1,0,0,response1disk,,6,3.5,7,1,0,0,rectangle,3.5,7,1,0,0,3.5,7,1,0,0,0,122,122,0,1,,,,,,,,
,,,,,,,,,,,,,FF,,,,,,,,1.8333,,,,,,,,,,,,,,,,,,,,,,60ff4de9a6090fa9b9f61bb7,61036e3366688e56b0721e9b,2021-07-29_23h15.37.193,Simcolourproject_2stim_asymm_v5,2020.2.10,Win32,60,61025ae37ef11b136ea224fe,,,,,,,,,661,80.5,-43.5,1,0,0,response3disk,,5,9,4.5,1,0,0,rectangle,9,4.5,1,0,0,9,4.5,1,0,0,0,123,123,91,1,,,,,,,,
,,,,,,,,,,,,,FF,,,,,,,,2.8168,,,,,,,,,,,,,,,,,,,,,,60ff4de9a6090fa9b9f61bb7,61036e3366688e56b0721e9b,2021-07-29_23h15.37.193,Simcolourproject_2stim_asymm_v5,2020.2.10,Win32,60,61025ae37ef11b136ea224fe,,,,,,,,,1190,83,51.5,1,0,0,response1disk,,6,12,10.5,1,0,0,rectangle,12,10.5,1,0,0,12,10.5,1,0,0,0,124,124,110,1,,,,,,,,
,,,,,,,,,,,,,FF,,,,,,,,1.1841,,,,,,,,,,,,,,,,,,,,,,60ff4de9a6090fa9b9f61bb7,61036e3366688e56b0721e9b,2021-07-29_23h15.37.193,Simcolourproject_2stim_asymm_v5,2020.2.10,Win32,60,61025ae37ef11b136ea224fe,,,,,,,,,811,82,43,1,0,0,response1disk,,6,13,2,1,0,0,rectangle,13,2,1,0,0,13,2,1,0,0,0,125,125,73,1,,,,,,,,
,,,,,,,,,,,,,FF,,,,,,,,1.3668,,,,,,,,,,,,,,,,,,,,,,60ff4de9a6090fa9b9f61bb7,61036e3366688e56b0721e9b,2021-07-29_23h15.37.193,Simcolourproject_2stim_asymm_v5,2020.2.10,Win32,60,61025ae37ef11b136ea224fe,,,,,,,,,3821,-54.5,-74,1,0,0,response5disk,,3,-4.5,-3.5,1,0,0,rectangle,-4.5,-3.5,1,0,0,-4.5,-3.5,1,0,0,0,126,126,111,1,,,,,,,,
,,,,,,,,,,,,,FF,,,,,,,,2.2999,,,,,,,,,,,,,,,,,,,,,,60ff4de9a6090fa9b9f61bb7,61036e3366688e56b0721e9b,2021-07-29_23h15.37.193,Simcolourproject_2stim_asymm_v5,2020.2.10,Win32,60,61025ae37ef11b136ea224fe,,,,,,,,,1491,57.5,69,1,0,0,response1disk,,7,11.5,-6.5,1,0,0,rectangle,11.5,-6.5,1,0,0,11.5,-6.5,1,0,0,0,127,127,120,1,,,,,,,,
,,,,,,,,,,,,,FF,,,,,,,,1.9334,,,,,,,,,,,,,,,,,,,,,,60ff4de9a6090fa9b9f61bb7,61036e3366688e56b0721e9b,2021-07-29_23h15.37.193,Simcolourproject_2stim_asymm_v5,2020.2.10,Win32,60,61025ae37ef11b136ea224fe,,,,,,,,,1552,90,58.5,1,0,0,response1disk,,6,12.5,10.5,1,0,0,rectangle,12.5,10.5,1,0,0,12.5,10.5,1,0,0,0,128,128,71,1,,,,,,,,
,,,,,,,,,,,,,FF,,,,,,,,1.1335,,,,,,,,,,,,,,,,,,,,,,60ff4de9a6090fa9b9f61bb7,61036e3366688e56b0721e9b,2021-07-29_23h15.37.193,Simcolourproject_2stim_asymm_v5,2020.2.10,Win32,60,61025ae37ef11b136ea224fe,,,,,,,,,384,73,46.5,1,0,0,response1disk,,6,5.5,5,1,0,0,rectangle,5.5,5,1,0,0,5.5,5,1,0,0,0,129,129,118,1,,,,,,,,
,,,,,,,,,,,,,FF,,,,,,,,2.7333,,,,,,,,,,,,,,,,,,,,,,60ff4de9a6090fa9b9f61bb7,61036e3366688e56b0721e9b,2021-07-29_23h15.37.193,Simcolourproject_2stim_asymm_v5,2020.2.10,Win32,60,61025ae37ef11b136ea224fe,,,,,,,,,2152,-40.5,-89,1,0,0,response5disk,,3,-9,-4.5,1,0,0,rectangle,-9,-4.5,1,0,0,-9,-4.5,1,0,0,0,130,130,114,1,,,,,,,,
,,,,,,,,,,,,,FF,,,,,,,,1.7167,,,,,,,,,,,,,,,,,,,,,,60ff4de9a6090fa9b9f61bb7,61036e3366688e56b0721e9b,2021-07-29_23h15.37.193,Simcolourproject_2stim_asymm_v5,2020.2.10,Win32,60,61025ae37ef11b136ea224fe,,,,,,,,,493,54,84.5,1,0,0,response1disk,,7,-1.5,0.5,1,0,0,rectangle,-1.5,0.5,1,0,0,-1.5,0.5,1,0,0,0,131,131,22,1,,,,,,,,
,,,,,,,,,,,,,FF,,,,,,,,2.95,,,,,,,,,,,,,,,,,,,,,,60ff4de9a6090fa9b9f61bb7,61036e3366688e56b0721e9b,2021-07-29_23h15.37.193,Simcolourproject_2stim_asymm_v5,2020.2.10,Win32,60,61025ae37ef11b136ea224fe,,,,,,,,,2336,61.5,63,1,0,0,response1disk,,7,13,0.5,1,0,0,rectangle,13,0.5,1,0,0,13,0.5,1,0,0,0,132,132,46,1,,,,,,,,
,,,,,,,,,,,,,FF,,,,,,,,3.2669,,,,,,,,,,,,,,,,,,,,,,60ff4de9a6090fa9b9f61bb7,61036e3366688e56b0721e9b,2021-07-29_23h15.37.193,Simcolourproject_2stim_asymm_v5,2020.2.10,Win32,60,61025ae37ef11b136ea224fe,,,,,,,,,218,77.5,48,1,0,0,response1disk,,6,11.5,-0.5,1,0,0,rectangle,11.5,-0.5,1,0,0,11.5,-0.5,1,0,0,0,133,133,158,1,,,,,,,,
,,,,,,,,,,,,,FF,,,,,,,,4.6339,,,,,,,,,,,,,,,,,,,,,,60ff4de9a6090fa9b9f61bb7,61036e3366688e56b0721e9b,2021-07-29_23h15.37.193,Simcolourproject_2stim_asymm_v5,2020.2.10,Win32,60,61025ae37ef11b136ea224fe,,,,,,,,,1376,-76.5,-51.5,1,0,0,response5disk,,2,-2.5,7,1,0,0,rectangle,-2.5,7,1,0,0,-2.5,7,1,0,0,0,134,134,102,1,,,,,,,,
,,,,,,,,,,,,,FF,,,,,,,,2.0666,,,,,,,,,,,,,,,,,,,,,,60ff4de9a6090fa9b9f61bb7,61036e3366688e56b0721e9b,2021-07-29_23h15.37.193,Simcolourproject_2stim_asymm_v5,2020.2.10,Win32,60,61025ae37ef11b136ea224fe,,,,,,,,,88,-55.5,-89.5,1,0,0,response5disk,,3,14.5,13,1,0,0,rectangle,14.5,13,1,0,0,14.5,13,1,0,0,0,135,135,94,1,,,,,,,,
,,,,,,,,,,,,,FF,,,,,,,,1.8835,,,,,,,,,,,,,,,,,,,,,,60ff4de9a6090fa9b9f61bb7,61036e3366688e56b0721e9b,2021-07-29_23h15.37.193,Simcolourproject_2stim_asymm_v5,2020.2.10,Win32,60,61025ae37ef11b136ea224fe,,,,,,,,,1298,-82.5,37.5,1,0,0,response7disk,,1,-17.5,-2.5,1,0,0,rectangle,-17.5,-2.5,1,0,0,-17.5,-2.5,1,0,0,0,136,136,64,1,,,,,,,,
,,,,,,,,,,,,,FF,,,,,,,,2.3001,,,,,,,,,,,,,,,,,,,,,,60ff4de9a6090fa9b9f61bb7,61036e3366688e56b0721e9b,2021-07-29_23h15.37.193,Simcolourproject_2stim_asymm_v5,2020.2.10,Win32,60,61025ae37ef11b136ea224fe,,,,,,,,,1878,92,-19,1,0,0,response3disk,,5,1.5,-2.5,1,0,0,rectangle,-83,45.5,1,0,0,9,-9.5,1,0,0,0,137,137,38,1,,response7disk_3,TRUE,1,1,"[52,181,197,138,173,19,181,165,252,218,168,118,187,5,172,210,204,115,259,210]",2.1504,rectangle
,,,,,,,,,,,,,FF,,,,,,,,1.7396,,,,,,,,,,,,,,,,,,,,,,60ff4de9a6090fa9b9f61bb7,61036e3366688e56b0721e9b,2021-07-29_23h15.37.193,Simcolourproject_2stim_asymm_v5,2020.2.10,Win32,60,61025ae37ef11b136ea224fe,,,,,,,,,787,-86,-49.5,1,0,0,response5disk,,2,-0.5,-4.5,1,0,0,rectangle,-0.5,-4.5,1,0,0,-0.5,-4.5,1,0,0,0,138,138,12,1,,,,,,,,
,,,,,,,,,,,,,FF,,,,,,,,4.1604,,,,,,,,,,,,,,,,,,,,,,60ff4de9a6090fa9b9f61bb7,61036e3366688e56b0721e9b,2021-07-29_23h15.37.193,Simcolourproject_2stim_asymm_v5,2020.2.10,Win32,60,61025ae37ef11b136ea224fe,,,,,,,,,1691,-64,41.5,1,0,0,response7disk,,1,3.5,0.5,1,0,0,rectangle,3.5,0.5,1,0,0,3.5,0.5,1,0,0,0,139,139,4,1,,,,,,,,
,,,,,,,,,,,,,FF,,,,,,,,1.967,,,,,,,,,,,,,,,,,,,,,,60ff4de9a6090fa9b9f61bb7,61036e3366688e56b0721e9b,2021-07-29_23h15.37.193,Simcolourproject_2stim_asymm_v5,2020.2.10,Win32,60,61025ae37ef11b136ea224fe,,,,,,,,,4077,-74.5,-84,1,0,0,response5disk,,3,-4,-0.5,1,0,0,rectangle,-4,-0.5,1,0,0,-4,-0.5,1,0,0,0,140,140,143,1,,,,,,,,
,,,,,,,,,,,,,FF,,,,,,,,2.567,,,,,,,,,,,,,,,,,,,,,,60ff4de9a6090fa9b9f61bb7,61036e3366688e56b0721e9b,2021-07-29_23h15.37.193,Simcolourproject_2stim_asymm_v5,2020.2.10,Win32,60,61025ae37ef11b136ea224fe,,,,,,,,,1372,47.5,-84,1,0,0,response3disk,,4,15,-4,1,0,0,rectangle,15,-4,1,0,0,15,-4,1,0,0,0,141,141,39,1,,,,,,,,
,,,,,,,,,,,,,FF,,,,,,,,2.0171,,,,,,,,,,,,,,,,,,,,,,60ff4de9a6090fa9b9f61bb7,61036e3366688e56b0721e9b,2021-07-29_23h15.37.193,Simcolourproject_2stim_asymm_v5,2020.2.10,Win32,60,61025ae37ef11b136ea224fe,,,,,,,,,495,91.5,35,1,0,0,response1disk,,6,19.5,-3.5,1,0,0,rectangle,19.5,-3.5,1,0,0,19.5,-3.5,1,0,0,0,142,142,8,1,,,,,,,,
,,,,,,,,,,,,,FF,,,,,,,,1.6668,,,,,,,,,,,,,,,,,,,,,,60ff4de9a6090fa9b9f61bb7,61036e3366688e56b0721e9b,2021-07-29_23h15.37.193,Simcolourproject_2stim_asymm_v5,2020.2.10,Win32,60,61025ae37ef11b136ea224fe,,,,,,,,,1758,-71.5,-34.5,1,0,0,response5disk,,2,-14.5,0,1,0,0,rectangle,-14.5,0,1,0,0,-14.5,0,1,0,0,0,143,143,136,1,,,,,,,,
,,,,,,,,,,,,,FF,,,,,,,,4.5831,,,,,,,,,,,,,,,,,,,,,,60ff4de9a6090fa9b9f61bb7,61036e3366688e56b0721e9b,2021-07-29_23h15.37.193,Simcolourproject_2stim_asymm_v5,2020.2.10,Win32,60,61025ae37ef11b136ea224fe,,,,,,,,,1975,-41,-92,1,0,0,response5disk,,3,3.5,2.5,1,0,0,rectangle,3.5,2.5,1,0,0,3.5,2.5,1,0,0,0,144,144,11,1,,,,,,,,
,,,,,,,,,,,,,FF,,,,,,,,1.8506,,,,,,,,,,,,,,,,,,,,,,60ff4de9a6090fa9b9f61bb7,61036e3366688e56b0721e9b,2021-07-29_23h15.37.193,Simcolourproject_2stim_asymm_v5,2020.2.10,Win32,60,61025ae37ef11b136ea224fe,,,,,,,,,1566,42,-82.5,1,0,0,response3disk,,4,-6,2.5,1,0,0,rectangle,-6,2.5,1,0,0,-6,2.5,1,0,0,0,145,145,116,1,,,,,,,,
,,,,,,,,,,,,,FF,,,,,,,,1.7666,,,,,,,,,,,,,,,,,,,,,,60ff4de9a6090fa9b9f61bb7,61036e3366688e56b0721e9b,2021-07-29_23h15.37.193,Simcolourproject_2stim_asymm_v5,2020.2.10,Win32,60,61025ae37ef11b136ea224fe,,,,,,,,,313,83,37,1,0,0,response1disk,,6,-2.5,3,1,0,0,rectangle,-2.5,3,1,0,0,-2.5,3,1,0,0,0,146,146,85,1,,,,,,,,
,,,,,,,,,,,,,FF,,,,,,,,10.2654,,,,,,,,,,,,,,,,,,,,,,60ff4de9a6090fa9b9f61bb7,61036e3366688e56b0721e9b,2021-07-29_23h15.37.193,Simcolourproject_2stim_asymm_v5,2020.2.10,Win32,60,61025ae37ef11b136ea224fe,,,,,,,,,758,68,-37.5,1,0,0,response3disk,,5,-9.5,4.5,1,0,0,rectangle,-9.5,4.5,1,0,0,-9.5,4.5,1,0,0,0,147,147,40,1,,,,,,,,
,,,,,,,,,,,,,FF,,,,,,,,1.117,,,,,,,,,,,,,,,,,,,,,,60ff4de9a6090fa9b9f61bb7,61036e3366688e56b0721e9b,2021-07-29_23h15.37.193,Simcolourproject_2stim_asymm_v5,2020.2.10,Win32,60,61025ae37ef11b136ea224fe,,,,,,,,,4280,-47,68.5,1,0,0,response7disk,,0,5,-0.5,1,0,0,rectangle,5,-0.5,1,0,0,5,-0.5,1,0,0,0,148,148,61,1,,,,,,,,
,,,,,,,,,,,,,FF,,,,,,,,2.1667,,,,,,,,,,,,,,,,,,,,,,60ff4de9a6090fa9b9f61bb7,61036e3366688e56b0721e9b,2021-07-29_23h15.37.193,Simcolourproject_2stim_asymm_v5,2020.2.10,Win32,60,61025ae37ef11b136ea224fe,,,,,,,,,465,-61.5,-69,1,0,0,response5disk,,3,-8.5,3.5,1,0,0,rectangle,-8.5,3.5,1,0,0,-8.5,3.5,1,0,0,0,149,149,52,1,,,,,,,,
,,,,,,,,,,,,,FF,,,,,,,,1.9666,,,,,,,,,,,,,,,,,,,,,,60ff4de9a6090fa9b9f61bb7,61036e3366688e56b0721e9b,2021-07-29_23h15.37.193,Simcolourproject_2stim_asymm_v5,2020.2.10,Win32,60,61025ae37ef11b136ea224fe,,,,,,,,,3315,74.5,24,1,0,0,response1disk,,6,24,-7,1,0,0,rectangle,24,-7,1,0,0,24,-7,1,0,0,0,150,150,43,1,,,,,,,,
,,,,,,,,,,,,,FF,,,,,,,,7.399,,,,,,,,,,,,,,,,,,,,,,60ff4de9a6090fa9b9f61bb7,61036e3366688e56b0721e9b,2021-07-29_23h15.37.193,Simcolourproject_2stim_asymm_v5,2020.2.10,Win32,60,61025ae37ef11b136ea224fe,,,,,,,,,898,-69,-94,1,0,0,response5disk,,3,7,2.5,1,0,0,rectangle,7,2.5,1,0,0,7,2.5,1,0,0,0,151,151,147,1,,,,,,,,
,,,,,,,,,,,,,FF,,,,,,,,1.0835,,,,,,,,,,,,,,,,,,,,,,60ff4de9a6090fa9b9f61bb7,61036e3366688e56b0721e9b,2021-07-29_23h15.37.193,Simcolourproject_2stim_asymm_v5,2020.2.10,Win32,60,61025ae37ef11b136ea224fe,,,,,,,,,2509,32.5,-71,1,0,0,response3disk,,4,-1,-0.5,1,0,0,rectangle,-1,-0.5,1,0,0,-1,-0.5,1,0,0,0,152,152,132,1,,,,,,,,
,,,,,,,,,,,,,FF,,,,,,,,2.2499,,,,,,,,,,,,,,,,,,,,,,60ff4de9a6090fa9b9f61bb7,61036e3366688e56b0721e9b,2021-07-29_23h15.37.193,Simcolourproject_2stim_asymm_v5,2020.2.10,Win32,60,61025ae37ef11b136ea224fe,,,,,,,,,3178,54,-48,1,0,0,response3disk,,5,10,6.5,1,0,0,rectangle,10,6.5,1,0,0,10,6.5,1,0,0,0,153,153,58,1,,,,,,,,
,,,,,,,,,,,,,FF,,,,,,,,1.6671,,,,,,,,,,,,,,,,,,,,,,60ff4de9a6090fa9b9f61bb7,61036e3366688e56b0721e9b,2021-07-29_23h15.37.193,Simcolourproject_2stim_asymm_v5,2020.2.10,Win32,60,61025ae37ef11b136ea224fe,,,,,,,,,1582,68.5,-39,1,0,0,response3disk,,5,9,6.5,1,0,0,rectangle,9,6.5,1,0,0,9,6.5,1,0,0,0,154,154,74,1,,,,,,,,
,,,,,,,,,,,,,FF,,,,,,,,2.2835,,,,,,,,,,,,,,,,,,,,,,60ff4de9a6090fa9b9f61bb7,61036e3366688e56b0721e9b,2021-07-29_23h15.37.193,Simcolourproject_2stim_asymm_v5,2020.2.10,Win32,60,61025ae37ef11b136ea224fe,,,,,,,,,4076,-91,33,1,0,0,response7disk,,1,-6.5,-10,1,0,0,rectangle,-6.5,-10,1,0,0,-6.5,-10,1,0,0,0,155,155,130,1,,,,,,,,
,,,,,,,,,,,,,FF,,,,,,,,1.2835,,,,,,,,,,,,,,,,,,,,,,60ff4de9a6090fa9b9f61bb7,61036e3366688e56b0721e9b,2021-07-29_23h15.37.193,Simcolourproject_2stim_asymm_v5,2020.2.10,Win32,60,61025ae37ef11b136ea224fe,,,,,,,,,3596,-88,-46,1,0,0,response5disk,,2,-9,-1,1,0,0,rectangle,-9,-1,1,0,0,-9,-1,1,0,0,0,156,156,33,1,,,,,,,,
,,,,,,,,,,,,,FF,,,,,,,,1.1335,,,,,,,,,,,,,,,,,,,,,,60ff4de9a6090fa9b9f61bb7,61036e3366688e56b0721e9b,2021-07-29_23h15.37.193,Simcolourproject_2stim_asymm_v5,2020.2.10,Win32,60,61025ae37ef11b136ea224fe,,,,,,,,,2830,-44.5,-85.5,1,0,0,response5disk,,3,-0.5,13,1,0,0,rectangle,-0.5,13,1,0,0,-0.5,13,1,0,0,0,157,157,51,1,,,,,,,,
,,,,,,,,,,,,,FF,,,,,,,,1.3171,,,,,,,,,,,,,,,,,,,,,,60ff4de9a6090fa9b9f61bb7,61036e3366688e56b0721e9b,2021-07-29_23h15.37.193,Simcolourproject_2stim_asymm_v5,2020.2.10,Win32,60,61025ae37ef11b136ea224fe,,,,,,,,,3593,99,-49.5,1,0,0,response3disk,,5,16,5,1,0,0,rectangle,16,5,1,0,0,16,5,1,0,0,0,158,158,70,1,,,,,,,,
,,,,,,,,,,,,,FF,,,,,,,,1.8002,,,,,,,,,,,,,,,,,,,,,,60ff4de9a6090fa9b9f61bb7,61036e3366688e56b0721e9b,2021-07-29_23h15.37.193,Simcolourproject_2stim_asymm_v5,2020.2.10,Win32,60,61025ae37ef11b136ea224fe,,,,,,,,,1827,89,24,1,0,0,response1disk,,6,8,4,1,0,0,rectangle,8,4,1,0,0,8,4,1,0,0,0,159,159,60,1,,,,,,,,
,,,,,,,,,,,,,FF,,,,,,,,1.3999,,,,,,,,,,,,,,,,,,,,,,60ff4de9a6090fa9b9f61bb7,61036e3366688e56b0721e9b,2021-07-29_23h15.37.193,Simcolourproject_2stim_asymm_v5,2020.2.10,Win32,60,61025ae37ef11b136ea224fe,,,,,,,,,3438,55.5,83.5,1,0,0,response1disk,,7,-8.5,-1,1,0,0,rectangle,-8.5,-1,1,0,0,-8.5,-1,1,0,0,1,0,160,145,1,,,,,,,,
,,,,,,,,,,,,,FF,,,,,,,,4.9497,,,,,,,,,,,,,,,,,,,,,,60ff4de9a6090fa9b9f61bb7,61036e3366688e56b0721e9b,2021-07-29_23h15.37.193,Simcolourproject_2stim_asymm_v5,2020.2.10,Win32,60,61025ae37ef11b136ea224fe,,,,,,,,,521,59,94.5,1,0,0,response1disk,,7,19.5,-6,1,0,0,rectangle,19.5,-6,1,0,0,19.5,-6,1,0,0,1,1,161,118,1,,,,,,,,
,,,,,,,,,,,,,FF,,,,,,,,1.7333,,,,,,,,,,,,,,,,,,,,,,60ff4de9a6090fa9b9f61bb7,61036e3366688e56b0721e9b,2021-07-29_23h15.37.193,Simcolourproject_2stim_asymm_v5,2020.2.10,Win32,60,61025ae37ef11b136ea224fe,,,,,,,,,531,-114.5,-58,1,0,0,response5disk,,2,10.5,5,1,0,0,rectangle,10.5,5,1,0,0,10.5,5,1,0,0,1,2,162,101,1,,,,,,,,
,,,,,,,,,,,,,FF,,,,,,,,4.4163,,,,,,,,,,,,,,,,,,,,,,60ff4de9a6090fa9b9f61bb7,61036e3366688e56b0721e9b,2021-07-29_23h15.37.193,Simcolourproject_2stim_asymm_v5,2020.2.10,Win32,60,61025ae37ef11b136ea224fe,,,,,,,,,213,-52.5,-66.5,1,0,0,response5disk,,3,-11,-4.5,1,0,0,rectangle,-11,-4.5,1,0,0,-11,-4.5,1,0,0,1,3,163,27,1,,,,,,,,
,,,,,,,,,,,,,FF,,,,,,,,1.3171,,,,,,,,,,,,,,,,,,,,,,60ff4de9a6090fa9b9f61bb7,61036e3366688e56b0721e9b,2021-07-29_23h15.37.193,Simcolourproject_2stim_asymm_v5,2020.2.10,Win32,60,61025ae37ef11b136ea224fe,,,,,,,,,3688,63,86.5,1,0,0,response1disk,,7,8,1,1,0,0,rectangle,87,44,1,0,0,3,3.5,1,0,0,1,4,164,140,1,,response1disk_3,TRUE,6,6,"[52,181,197,138,173,19,181,165,252,218,168,118,187,5,172,210,204,115,259,210]",2.2667,rectangle
,,,,,,,,,,,,,FF,,,,,,,,1.6666,,,,,,,,,,,,,,,,,,,,,,60ff4de9a6090fa9b9f61bb7,61036e3366688e56b0721e9b,2021-07-29_23h15.37.193,Simcolourproject_2stim_asymm_v5,2020.2.10,Win32,60,61025ae37ef11b136ea224fe,,,,,,,,,2238,30.5,-75,1,0,0,response3disk,,4,1.5,3,1,0,0,rectangle,1.5,3,1,0,0,1.5,3,1,0,0,1,5,165,53,1,,,,,,,,
,,,,,,,,,,,,,FF,,,,,,,,2.4006,,,,,,,,,,,,,,,,,,,,,,60ff4de9a6090fa9b9f61bb7,61036e3366688e56b0721e9b,2021-07-29_23h15.37.193,Simcolourproject_2stim_asymm_v5,2020.2.10,Win32,60,61025ae37ef11b136ea224fe,,,,,,,,,1875,74.5,-31.5,1,0,0,response3disk,,5,6.5,3,1,0,0,rectangle,6.5,3,1,0,0,6.5,3,1,0,0,1,6,166,37,1,,,,,,,,
,,,,,,,,,,,,,FF,,,,,,,,1.4006,,,,,,,,,,,,,,,,,,,,,,60ff4de9a6090fa9b9f61bb7,61036e3366688e56b0721e9b,2021-07-29_23h15.37.193,Simcolourproject_2stim_asymm_v5,2020.2.10,Win32,60,61025ae37ef11b136ea224fe,,,,,,,,,3504,70,31.5,1,0,0,response1disk,,6,10.5,-3.5,1,0,0,rectangle,42.5,-90.5,1,0,0,1,-5,1,0,0,1,7,167,8,1,,response3disk_3,TRUE,4,4,"[52,181,197,138,173,19,181,165,252,218,168,118,187,5,172,210,204,115,259,210]",2.334,rectangle
,,,,,,,,,,,,,FF,,,,,,,,3.2777,,,,,,,,,,,,,,,,,,,,,,60ff4de9a6090fa9b9f61bb7,61036e3366688e56b0721e9b,2021-07-29_23h15.37.193,Simcolourproject_2stim_asymm_v5,2020.2.10,Win32,60,61025ae37ef11b136ea224fe,,,,,,,,,2019,71,37.5,1,0,0,response1disk,,6,15.5,2,1,0,0,rectangle,15.5,2,1,0,0,15.5,2,1,0,0,1,8,168,96,1,,,,,,,,
,,,,,,,,,,,,,FF,,,,,,,,1.1669,,,,,,,,,,,,,,,,,,,,,,60ff4de9a6090fa9b9f61bb7,61036e3366688e56b0721e9b,2021-07-29_23h15.37.193,Simcolourproject_2stim_asymm_v5,2020.2.10,Win32,60,61025ae37ef11b136ea224fe,,,,,,,,,155,37.5,-80,1,0,0,response3disk,,4,-3,2,1,0,0,rectangle,-3,2,1,0,0,-3,2,1,0,0,1,9,169,146,1,,,,,,,,
,,,,,,,,,,,,,FF,,,,,,,,1.7569,,,,,,,,,,,,,,,,,,,,,,60ff4de9a6090fa9b9f61bb7,61036e3366688e56b0721e9b,2021-07-29_23h15.37.193,Simcolourproject_2stim_asymm_v5,2020.2.10,Win32,60,61025ae37ef11b136ea224fe,,,,,,,,,3940,75,-21.5,1,0,0,response3disk,,5,4,5.5,1,0,0,rectangle,4,5.5,1,0,0,4,5.5,1,0,0,1,10,170,134,1,,,,,,,,
,,,,,,,,,,,,,FF,,,,,,,,1.5903,,,,,,,,,,,,,,,,,,,,,,60ff4de9a6090fa9b9f61bb7,61036e3366688e56b0721e9b,2021-07-29_23h15.37.193,Simcolourproject_2stim_asymm_v5,2020.2.10,Win32,60,61025ae37ef11b136ea224fe,,,,,,,,,3215,86.5,36.5,1,0,0,response1disk,,6,12,0.5,1,0,0,rectangle,-47,98.5,1,0,0,-3.5,7.5,1,0,0,1,11,171,94,1,,response7disk_3,TRUE,0,0,"[52,181,197,138,173,19,181,165,252,218,168,118,187,5,172,210,204,115,259,210]",2.0768,rectangle
,,,,,,,,,,,,,FF,,,,,,,,3.0665,,,,,,,,,,,,,,,,,,,,,,60ff4de9a6090fa9b9f61bb7,61036e3366688e56b0721e9b,2021-07-29_23h15.37.193,Simcolourproject_2stim_asymm_v5,2020.2.10,Win32,60,61025ae37ef11b136ea224fe,,,,,,,,,2049,97.5,-56.5,1,0,0,response3disk,,5,11.5,3,1,0,0,rectangle,-41.5,78.5,1,0,0,-4,6,1,0,0,1,12,172,152,1,,response7disk_3,TRUE,0,0,"[52,181,197,138,173,19,181,165,252,218,168,118,187,5,172,210,204,115,259,210]",1.7603,rectangle
,,,,,,,,,,,,,FF,,,,,,,,2.517,,,,,,,,,,,,,,,,,,,,,,60ff4de9a6090fa9b9f61bb7,61036e3366688e56b0721e9b,2021-07-29_23h15.37.193,Simcolourproject_2stim_asymm_v5,2020.2.10,Win32,60,61025ae37ef11b136ea224fe,,,,,,,,,1615,-76,-56,1,0,0,response5disk,,2,-2.5,1.5,1,0,0,rectangle,-2.5,1.5,1,0,0,-2.5,1.5,1,0,0,1,13,173,38,1,,,,,,,,
,,,,,,,,,,,,,FF,,,,,,,,1.3497,,,,,,,,,,,,,,,,,,,,,,60ff4de9a6090fa9b9f61bb7,61036e3366688e56b0721e9b,2021-07-29_23h15.37.193,Simcolourproject_2stim_asymm_v5,2020.2.10,Win32,60,61025ae37ef11b136ea224fe,,,,,,,,,3441,45.5,-92.5,1,0,0,response3disk,,4,-11,-2.5,1,0,0,rectangle,-11,-2.5,1,0,0,-11,-2.5,1,0,0,1,14,174,52,1,,,,,,,,
,,,,,,,,,,,,,FF,,,,,,,,4.3176,,,,,,,,,,,,,,,,,,,,,,60ff4de9a6090fa9b9f61bb7,61036e3366688e56b0721e9b,2021-07-29_23h15.37.193,Simcolourproject_2stim_asymm_v5,2020.2.10,Win32,60,61025ae37ef11b136ea224fe,,,,,,,,,1256,90,-60,1,0,0,response3disk,,5,13,3.5,1,0,0,rectangle,13,3.5,1,0,0,13,3.5,1,0,0,1,15,175,156,1,,,,,,,,
,,,,,,,,,,,,,FF,,,,,,,,1.7831,,,,,,,,,,,,,,,,,,,,,,60ff4de9a6090fa9b9f61bb7,61036e3366688e56b0721e9b,2021-07-29_23h15.37.193,Simcolourproject_2stim_asymm_v5,2020.2.10,Win32,60,61025ae37ef11b136ea224fe,,,,,,,,,3842,70,37.5,1,0,0,response1disk,,6,17,1,1,0,0,rectangle,17,1,1,0,0,17,1,1,0,0,1,16,176,28,1,,,,,,,,
,,,,,,,,,,,,,FF,,,,,,,,1.974,,,,,,,,,,,,,,,,,,,,,,60ff4de9a6090fa9b9f61bb7,61036e3366688e56b0721e9b,2021-07-29_23h15.37.193,Simcolourproject_2stim_asymm_v5,2020.2.10,Win32,60,61025ae37ef11b136ea224fe,,,,,,,,,982,-81,-47,1,0,0,response5disk,,2,-9,-1,1,0,0,rectangle,-9,-1,1,0,0,-9,-1,1,0,0,1,17,177,81,1,,,,,,,,
,,,,,,,,,,,,,FF,,,,,,,,1.501,,,,,,,,,,,,,,,,,,,,,,60ff4de9a6090fa9b9f61bb7,61036e3366688e56b0721e9b,2021-07-29_23h15.37.193,Simcolourproject_2stim_asymm_v5,2020.2.10,Win32,60,61025ae37ef11b136ea224fe,,,,,,,,,3539,87.5,36.5,1,0,0,response1disk,,6,3,-3.5,1,0,0,rectangle,3,-3.5,1,0,0,3,-3.5,1,0,0,1,18,178,55,1,,,,,,,,
,,,,,,,,,,,,,FF,,,,,,,,1.4169,,,,,,,,,,,,,,,,,,,,,,60ff4de9a6090fa9b9f61bb7,61036e3366688e56b0721e9b,2021-07-29_23h15.37.193,Simcolourproject_2stim_asymm_v5,2020.2.10,Win32,60,61025ae37ef11b136ea224fe,,,,,,,,,2555,93.5,-37,1,0,0,response3disk,,5,20.5,-8.5,1,0,0,rectangle,20.5,-8.5,1,0,0,20.5,-8.5,1,0,0,1,19,179,3,1,,,,,,,,
,,,,,,,,,,,,,FF,,,,,,,,27.1304,,,,,,,,,,,,,,,,,,,,,,60ff4de9a6090fa9b9f61bb7,61036e3366688e56b0721e9b,2021-07-29_23h15.37.193,Simcolourproject_2stim_asymm_v5,2020.2.10,Win32,60,61025ae37ef11b136ea224fe,,,,,,,,,3253,57,-37.5,1,0,0,response3disk,,5,-2.5,0,1,0,0,rectangle,37.5,-77.5,1,0,0,-7,-4,1,0,0,1,20,180,95,1,,response3disk_3,TRUE,4,4,"[52,181,197,138,173,19,181,165,252,218,168,118,187,5,172,210,204,115,259,210]",1.6099,rectangle
,,,,,,,,,,,,,FF,,,,,,,,1.6008,,,,,,,,,,,,,,,,,,,,,,60ff4de9a6090fa9b9f61bb7,61036e3366688e56b0721e9b,2021-07-29_23h15.37.193,Simcolourproject_2stim_asymm_v5,2020.2.10,Win32,60,61025ae37ef11b136ea224fe,,,,,,,,,2430,34.5,-87.5,1,0,0,response3disk,,4,-6,1.5,1,0,0,rectangle,-6,1.5,1,0,0,-6,1.5,1,0,0,1,21,181,136,1,,,,,,,,
,,,,,,,,,,,,,FF,,,,,,,,1.1172,,,,,,,,,,,,,,,,,,,,,,60ff4de9a6090fa9b9f61bb7,61036e3366688e56b0721e9b,2021-07-29_23h15.37.193,Simcolourproject_2stim_asymm_v5,2020.2.10,Win32,60,61025ae37ef11b136ea224fe,,,,,,,,,2962,-76.5,-51.5,1,0,0,response5disk,,2,5.5,14,1,0,0,rectangle,5.5,14,1,0,0,5.5,14,1,0,0,1,22,182,70,1,,,,,,,,
,,,,,,,,,,,,,FF,,,,,,,,2.0162,,,,,,,,,,,,,,,,,,,,,,60ff4de9a6090fa9b9f61bb7,61036e3366688e56b0721e9b,2021-07-29_23h15.37.193,Simcolourproject_2stim_asymm_v5,2020.2.10,Win32,60,61025ae37ef11b136ea224fe,,,,,,,,,2859,41.5,-69.5,1,0,0,response3disk,,4,-0.5,3.5,1,0,0,rectangle,-0.5,3.5,1,0,0,-0.5,3.5,1,0,0,1,23,183,58,1,,,,,,,,
,,,,,,,,,,,,,FF,,,,,,,,1.7176,,,,,,,,,,,,,,,,,,,,,,60ff4de9a6090fa9b9f61bb7,61036e3366688e56b0721e9b,2021-07-29_23h15.37.193,Simcolourproject_2stim_asymm_v5,2020.2.10,Win32,60,61025ae37ef11b136ea224fe,,,,,,,,,2791,-78.5,-48,1,0,0,response5disk,,2,-3.5,-1,1,0,0,rectangle,-3.5,-1,1,0,0,-3.5,-1,1,0,0,1,24,184,97,1,,,,,,,,
,,,,,,,,,,,,,FF,,,,,,,,1.4232,,,,,,,,,,,,,,,,,,,,,,60ff4de9a6090fa9b9f61bb7,61036e3366688e56b0721e9b,2021-07-29_23h15.37.193,Simcolourproject_2stim_asymm_v5,2020.2.10,Win32,60,61025ae37ef11b136ea224fe,,,,,,,,,3219,55.5,-62,1,0,0,response3disk,,4,10,0.5,1,0,0,rectangle,10,0.5,1,0,0,10,0.5,1,0,0,1,25,185,13,1,,,,,,,,
,,,,,,,,,,,,,FF,,,,,,,,1.3505,,,,,,,,,,,,,,,,,,,,,,60ff4de9a6090fa9b9f61bb7,61036e3366688e56b0721e9b,2021-07-29_23h15.37.193,Simcolourproject_2stim_asymm_v5,2020.2.10,Win32,60,61025ae37ef11b136ea224fe,,,,,,,,,1642,70,46.5,1,0,0,response1disk,,6,-4,0.5,1,0,0,rectangle,-85.5,39.5,1,0,0,-18.5,3,1,0,0,1,26,186,44,1,,response7disk_3,TRUE,1,1,"[52,181,197,138,173,19,181,165,252,218,168,118,187,5,172,210,204,115,259,210]",1.6,rectangle
,,,,,,,,,,,,,FF,,,,,,,,1.6402,,,,,,,,,,,,,,,,,,,,,,60ff4de9a6090fa9b9f61bb7,61036e3366688e56b0721e9b,2021-07-29_23h15.37.193,Simcolourproject_2stim_asymm_v5,2020.2.10,Win32,60,61025ae37ef11b136ea224fe,,,,,,,,,4315,48.5,66,1,0,0,response1disk,,7,4.5,1.5,1,0,0,rectangle,4.5,1.5,1,0,0,4.5,1.5,1,0,0,1,27,187,23,1,,,,,,,,
,,,,,,,,,,,,,FF,,,,,,,,1.9833,,,,,,,,,,,,,,,,,,,,,,60ff4de9a6090fa9b9f61bb7,61036e3366688e56b0721e9b,2021-07-29_23h15.37.193,Simcolourproject_2stim_asymm_v5,2020.2.10,Win32,60,61025ae37ef11b136ea224fe,,,,,,,,,3917,-58,-74,1,0,0,response5disk,,3,-8,-8,1,0,0,rectangle,-8,-8,1,0,0,-8,-8,1,0,0,1,28,188,108,1,,,,,,,,
,,,,,,,,,,,,,FF,,,,,,,,5.067,,,,,,,,,,,,,,,,,,,,,,60ff4de9a6090fa9b9f61bb7,61036e3366688e56b0721e9b,2021-07-29_23h15.37.193,Simcolourproject_2stim_asymm_v5,2020.2.10,Win32,60,61025ae37ef11b136ea224fe,,,,,,,,,1553,52.5,-74,1,0,0,response3disk,,4,7.5,5.5,1,0,0,rectangle,7.5,5.5,1,0,0,7.5,5.5,1,0,0,1,29,189,25,1,,,,,,,,
,,,,,,,,,,,,,FF,,,,,,,,1.1939,,,,,,,,,,,,,,,,,,,,,,60ff4de9a6090fa9b9f61bb7,61036e3366688e56b0721e9b,2021-07-29_23h15.37.193,Simcolourproject_2stim_asymm_v5,2020.2.10,Win32,60,61025ae37ef11b136ea224fe,,,,,,,,,2817,64.5,-31,1,0,0,response3disk,,5,4,3.5,1,0,0,rectangle,4,3.5,1,0,0,4,3.5,1,0,0,1,30,190,72,1,,,,,,,,
,,,,,,,,,,,,,FF,,,,,,,,1.1577,,,,,,,,,,,,,,,,,,,,,,60ff4de9a6090fa9b9f61bb7,61036e3366688e56b0721e9b,2021-07-29_23h15.37.193,Simcolourproject_2stim_asymm_v5,2020.2.10,Win32,60,61025ae37ef11b136ea224fe,,,,,,,,,1930,60.5,-42,1,0,0,response3disk,,5,-1.5,-0.5,1,0,0,rectangle,-1.5,-0.5,1,0,0,-1.5,-0.5,1,0,0,1,31,191,131,1,,,,,,,,
,,,,,,,,,,,,,FF,,,,,,,,3.4,,,,,,,,,,,,,,,,,,,,,,60ff4de9a6090fa9b9f61bb7,61036e3366688e56b0721e9b,2021-07-29_23h15.37.193,Simcolourproject_2stim_asymm_v5,2020.2.10,Win32,60,61025ae37ef11b136ea224fe,,,,,,,,,2456,39,-93,1,0,0,response3disk,,4,-15.5,9,1,0,0,rectangle,-15.5,9,1,0,0,-15.5,9,1,0,0,1,32,192,33,1,,,,,,,,
,,,,,,,,,,,,,FF,,,,,,,,3.0335,,,,,,,,,,,,,,,,,,,,,,60ff4de9a6090fa9b9f61bb7,61036e3366688e56b0721e9b,2021-07-29_23h15.37.193,Simcolourproject_2stim_asymm_v5,2020.2.10,Win32,60,61025ae37ef11b136ea224fe,,,,,,,,,2788,85.5,35.5,1,0,0,response1disk,,6,12,1,1,0,0,rectangle,12,1,1,0,0,12,1,1,0,0,1,33,193,49,1,,,,,,,,
,,,,,,,,,,,,,FF,,,,,,,,1.7506,,,,,,,,,,,,,,,,,,,,,,60ff4de9a6090fa9b9f61bb7,61036e3366688e56b0721e9b,2021-07-29_23h15.37.193,Simcolourproject_2stim_asymm_v5,2020.2.10,Win32,60,61025ae37ef11b136ea224fe,,,,,,,,,2098,-95,42,1,0,0,response7disk,,1,-8,1.5,1,0,0,rectangle,-8,1.5,1,0,0,-8,1.5,1,0,0,1,34,194,6,1,,,,,,,,
,,,,,,,,,,,,,FF,,,,,,,,2.8068,,,,,,,,,,,,,,,,,,,,,,60ff4de9a6090fa9b9f61bb7,61036e3366688e56b0721e9b,2021-07-29_23h15.37.193,Simcolourproject_2stim_asymm_v5,2020.2.10,Win32,60,61025ae37ef11b136ea224fe,,,,,,,,,3196,-75,-36.5,1,0,0,response5disk,,2,7.5,8,1,0,0,rectangle,7.5,8,1,0,0,7.5,8,1,0,0,1,35,195,74,1,,,,,,,,
,,,,,,,,,,,,,FF,,,,,,,,1.0837,,,,,,,,,,,,,,,,,,,,,,60ff4de9a6090fa9b9f61bb7,61036e3366688e56b0721e9b,2021-07-29_23h15.37.193,Simcolourproject_2stim_asymm_v5,2020.2.10,Win32,60,61025ae37ef11b136ea224fe,,,,,,,,,2721,-70,-38,1,0,0,response5disk,,2,-3,0.5,1,0,0,rectangle,73.5,43.5,1,0,0,-7.5,-6,1,0,0,1,36,196,16,1,,response1disk_3,TRUE,6,6,"[52,181,197,138,173,19,181,165,252,218,168,118,187,5,172,210,204,115,259,210]",2.1838,rectangle
,,,,,,,,,,,,,FF,,,,,,,,2.7604,,,,,,,,,,,,,,,,,,,,,,60ff4de9a6090fa9b9f61bb7,61036e3366688e56b0721e9b,2021-07-29_23h15.37.193,Simcolourproject_2stim_asymm_v5,2020.2.10,Win32,60,61025ae37ef11b136ea224fe,,,,,,,,,28,42,-82.5,1,0,0,response3disk,,4,0.5,-2,1,0,0,rectangle,0.5,-2,1,0,0,0.5,-2,1,0,0,1,37,197,121,1,,,,,,,,
,,,,,,,,,,,,,FF,,,,,,,,3.3774,,,,,,,,,,,,,,,,,,,,,,60ff4de9a6090fa9b9f61bb7,61036e3366688e56b0721e9b,2021-07-29_23h15.37.193,Simcolourproject_2stim_asymm_v5,2020.2.10,Win32,60,61025ae37ef11b136ea224fe,,,,,,,,,34,87,-43.5,1,0,0,response3disk,,5,12,6,1,0,0,rectangle,12,6,1,0,0,12,6,1,0,0,1,38,198,63,1,,,,,,,,
,,,,,,,,,,,,,FF,,,,,,,,1.0904,,,,,,,,,,,,,,,,,,,,,,60ff4de9a6090fa9b9f61bb7,61036e3366688e56b0721e9b,2021-07-29_23h15.37.193,Simcolourproject_2stim_asymm_v5,2020.2.10,Win32,60,61025ae37ef11b136ea224fe,,,,,,,,,589,84.5,40,1,0,0,response1disk,,6,-1.5,2,1,0,0,rectangle,-1.5,2,1,0,0,-1.5,2,1,0,0,1,39,199,7,1,,,,,,,,
,,,,,,,,,,,,,FF,,,,,,,,4.6766,,,,,,,,,,,,,,,,,,,,,,60ff4de9a6090fa9b9f61bb7,61036e3366688e56b0721e9b,2021-07-29_23h15.37.193,Simcolourproject_2stim_asymm_v5,2020.2.10,Win32,60,61025ae37ef11b136ea224fe,,,,,,,,,3730,70,-31.5,1,0,0,response3disk,,5,26,2.5,1,0,0,rectangle,26,2.5,1,0,0,26,2.5,1,0,0,1,40,200,1,1,,,,,,,,
,,,,,,,,,,,,,FF,,,,,,,,1.3003,,,,,,,,,,,,,,,,,,,,,,60ff4de9a6090fa9b9f61bb7,61036e3366688e56b0721e9b,2021-07-29_23h15.37.193,Simcolourproject_2stim_asymm_v5,2020.2.10,Win32,60,61025ae37ef11b136ea224fe,,,,,,,,,857,-23.5,-86.5,1,0,0,response5disk,,3,-2,-4,1,0,0,rectangle,-2,-4,1,0,0,-2,-4,1,0,0,1,41,201,102,1,,,,,,,,
,,,,,,,,,,,,,FF,,,,,,,,0.9838,,,,,,,,,,,,,,,,,,,,,,60ff4de9a6090fa9b9f61bb7,61036e3366688e56b0721e9b,2021-07-29_23h15.37.193,Simcolourproject_2stim_asymm_v5,2020.2.10,Win32,60,61025ae37ef11b136ea224fe,,,,,,,,,312,-47.5,-66,1,0,0,response5disk,,3,-14,2.5,1,0,0,rectangle,-14,2.5,1,0,0,-14,2.5,1,0,0,1,42,202,111,1,,,,,,,,
,,,,,,,,,,,,,FF,,,,,,,,2.2171,,,,,,,,,,,,,,,,,,,,,,60ff4de9a6090fa9b9f61bb7,61036e3366688e56b0721e9b,2021-07-29_23h15.37.193,Simcolourproject_2stim_asymm_v5,2020.2.10,Win32,60,61025ae37ef11b136ea224fe,,,,,,,,,1699,40,74,1,0,0,response1disk,,7,-5,-7,1,0,0,rectangle,62,-32,1,0,0,-14,1,1,0,0,1,43,203,157,1,,response3disk_3,TRUE,5,5,"[52,181,197,138,173,19,181,165,252,218,168,118,187,5,172,210,204,115,259,210]",1.7436,rectangle
,,,,,,,,,,,,,FF,,,,,,,,2.7237,,,,,,,,,,,,,,,,,,,,,,60ff4de9a6090fa9b9f61bb7,61036e3366688e56b0721e9b,2021-07-29_23h15.37.193,Simcolourproject_2stim_asymm_v5,2020.2.10,Win32,60,61025ae37ef11b136ea224fe,,,,,,,,,1769,49,-92.5,1,0,0,response3disk,,4,10.5,-0.5,1,0,0,rectangle,10.5,-0.5,1,0,0,10.5,-0.5,1,0,0,1,44,204,29,1,,,,,,,,
,,,,,,,,,,,,,FF,,,,,,,,1.8239,,,,,,,,,,,,,,,,,,,,,,60ff4de9a6090fa9b9f61bb7,61036e3366688e56b0721e9b,2021-07-29_23h15.37.193,Simcolourproject_2stim_asymm_v5,2020.2.10,Win32,60,61025ae37ef11b136ea224fe,,,,,,,,,344,-47.5,-92,1,0,0,response5disk,,3,-15.5,4,1,0,0,rectangle,-15.5,4,1,0,0,-15.5,4,1,0,0,1,45,205,144,1,,,,,,,,
,,,,,,,,,,,,,FF,,,,,,,,1.4736,,,,,,,,,,,,,,,,,,,,,,60ff4de9a6090fa9b9f61bb7,61036e3366688e56b0721e9b,2021-07-29_23h15.37.193,Simcolourproject_2stim_asymm_v5,2020.2.10,Win32,60,61025ae37ef11b136ea224fe,,,,,,,,,359,76.5,44,1,0,0,response1disk,,6,4,0,1,0,0,rectangle,4,0,1,0,0,4,0,1,0,0,1,46,206,20,1,,,,,,,,
,,,,,,,,,,,,,FF,,,,,,,,1.8937,,,,,,,,,,,,,,,,,,,,,,60ff4de9a6090fa9b9f61bb7,61036e3366688e56b0721e9b,2021-07-29_23h15.37.193,Simcolourproject_2stim_asymm_v5,2020.2.10,Win32,60,61025ae37ef11b136ea224fe,,,,,,,,,807,-68,-55,1,0,0,response5disk,,2,9.5,5,1,0,0,rectangle,9.5,5,1,0,0,9.5,5,1,0,0,1,47,207,104,1,,,,,,,,
,,,,,,,,,,,,,FF,,,,,,,,2.1225,,,,,,,,,,,,,,,,,,,,,,60ff4de9a6090fa9b9f61bb7,61036e3366688e56b0721e9b,2021-07-29_23h15.37.193,Simcolourproject_2stim_asymm_v5,2020.2.10,Win32,60,61025ae37ef11b136ea224fe,,,,,,,,,125,79.5,41,1,0,0,response1disk,,6,20.5,12.5,1,0,0,rectangle,20.5,12.5,1,0,0,20.5,12.5,1,0,0,1,48,208,9,1,,,,,,,,
,,,,,,,,,,,,,FF,,,,,,,,1.5409,,,,,,,,,,,,,,,,,,,,,,60ff4de9a6090fa9b9f61bb7,61036e3366688e56b0721e9b,2021-07-29_23h15.37.193,Simcolourproject_2stim_asymm_v5,2020.2.10,Win32,60,61025ae37ef11b136ea224fe,,,,,,,,,1098,32.5,62.5,1,0,0,response1disk,,7,17.5,6.5,1,0,0,rectangle,34.5,-66,1,0,0,-12,9,1,0,0,1,49,209,143,1,,response3disk_3,TRUE,4,4,"[52,181,197,138,173,19,181,165,252,218,168,118,187,5,172,210,204,115,259,210]",2.0162,rectangle
,,,,,,,,,,,,,FF,,,,,,,,2.9335,,,,,,,,,,,,,,,,,,,,,,60ff4de9a6090fa9b9f61bb7,61036e3366688e56b0721e9b,2021-07-29_23h15.37.193,Simcolourproject_2stim_asymm_v5,2020.2.10,Win32,60,61025ae37ef11b136ea224fe,,,,,,,,,2114,70.5,-28,1,0,0,response3disk,,5,13,-3,1,0,0,rectangle,13,-3,1,0,0,13,-3,1,0,0,1,50,210,18,1,,,,,,,,
,,,,,,,,,,,,,FF,,,,,,,,1.8097,,,,,,,,,,,,,,,,,,,,,,60ff4de9a6090fa9b9f61bb7,61036e3366688e56b0721e9b,2021-07-29_23h15.37.193,Simcolourproject_2stim_asymm_v5,2020.2.10,Win32,60,61025ae37ef11b136ea224fe,,,,,,,,,2400,45.5,72.5,1,0,0,response1disk,,7,16.5,3,1,0,0,rectangle,16.5,3,1,0,0,16.5,3,1,0,0,1,51,211,119,1,,,,,,,,
,,,,,,,,,,,,,FF,,,,,,,,2.0171,,,,,,,,,,,,,,,,,,,,,,60ff4de9a6090fa9b9f61bb7,61036e3366688e56b0721e9b,2021-07-29_23h15.37.193,Simcolourproject_2stim_asymm_v5,2020.2.10,Win32,60,61025ae37ef11b136ea224fe,,,,,,,,,2403,-81,-30.5,1,0,0,response5disk,,2,-7,10,1,0,0,rectangle,-7,10,1,0,0,-7,10,1,0,0,1,52,212,21,1,,,,,,,,
,,,,,,,,,,,,,FF,,,,,,,,2.9666,,,,,,,,,,,,,,,,,,,,,,60ff4de9a6090fa9b9f61bb7,61036e3366688e56b0721e9b,2021-07-29_23h15.37.193,Simcolourproject_2stim_asymm_v5,2020.2.10,Win32,60,61025ae37ef11b136ea224fe,,,,,,,,,3565,-82,-53,1,0,0,response5disk,,2,-8.5,0,1,0,0,rectangle,-8.5,0,1,0,0,-8.5,0,1,0,0,1,53,213,127,1,,,,,,,,
,,,,,,,,,,,,,FF,,,,,,,,1.2673,,,,,,,,,,,,,,,,,,,,,,60ff4de9a6090fa9b9f61bb7,61036e3366688e56b0721e9b,2021-07-29_23h15.37.193,Simcolourproject_2stim_asymm_v5,2020.2.10,Win32,60,61025ae37ef11b136ea224fe,,,,,,,,,3387,31.5,-84.5,1,0,0,response3disk,,4,3.5,3.5,1,0,0,rectangle,3.5,3.5,1,0,0,3.5,3.5,1,0,0,1,54,214,139,1,,,,,,,,
,,,,,,,,,,,,,FF,,,,,,,,8.433,,,,,,,,,,,,,,,,,,,,,,60ff4de9a6090fa9b9f61bb7,61036e3366688e56b0721e9b,2021-07-29_23h15.37.193,Simcolourproject_2stim_asymm_v5,2020.2.10,Win32,60,61025ae37ef11b136ea224fe,,,,,,,,,4079,64.5,-79.5,1,0,0,response3disk,,4,1,0.5,1,0,0,rectangle,1,0.5,1,0,0,1,0.5,1,0,0,1,55,215,40,1,,,,,,,,
,,,,,,,,,,,,,FF,,,,,,,,2.161,,,,,,,,,,,,,,,,,,,,,,60ff4de9a6090fa9b9f61bb7,61036e3366688e56b0721e9b,2021-07-29_23h15.37.193,Simcolourproject_2stim_asymm_v5,2020.2.10,Win32,60,61025ae37ef11b136ea224fe,,,,,,,,,877,48,60,1,0,0,response1disk,,7,17,5,1,0,0,rectangle,17,5,1,0,0,17,5,1,0,0,1,56,216,4,1,,,,,,,,
,,,,,,,,,,,,,FF,,,,,,,,3.0504,,,,,,,,,,,,,,,,,,,,,,60ff4de9a6090fa9b9f61bb7,61036e3366688e56b0721e9b,2021-07-29_23h15.37.193,Simcolourproject_2stim_asymm_v5,2020.2.10,Win32,60,61025ae37ef11b136ea224fe,,,,,,,,,1512,41,76.5,1,0,0,response1disk,,7,8,1,1,0,0,rectangle,34.5,89.5,1,0,0,-5,4,1,0,0,1,57,217,50,1,,response1disk_3,TRUE,7,7,"[52,181,197,138,173,19,181,165,252,218,168,118,187,5,172,210,204,115,259,210]",1.8659,rectangle
,,,,,,,,,,,,,FF,,,,,,,,5.9425,,,,,,,,,,,,,,,,,,,,,,60ff4de9a6090fa9b9f61bb7,61036e3366688e56b0721e9b,2021-07-29_23h15.37.193,Simcolourproject_2stim_asymm_v5,2020.2.10,Win32,60,61025ae37ef11b136ea224fe,,,,,,,,,2050,56,-50.5,1,0,0,response3disk,,5,1,-1.5,1,0,0,rectangle,1,-1.5,1,0,0,1,-1.5,1,0,0,1,58,218,112,1,,,,,,,,
,,,,,,,,,,,,,FF,,,,,,,,1.1238,,,,,,,,,,,,,,,,,,,,,,60ff4de9a6090fa9b9f61bb7,61036e3366688e56b0721e9b,2021-07-29_23h15.37.193,Simcolourproject_2stim_asymm_v5,2020.2.10,Win32,60,61025ae37ef11b136ea224fe,,,,,,,,,651,-63,-81,1,0,0,response5disk,,3,-5,-1.5,1,0,0,rectangle,-5,-1.5,1,0,0,-5,-1.5,1,0,0,1,59,219,46,1,,,,,,,,
,,,,,,,,,,,,,FF,,,,,,,,1.6266,,,,,,,,,,,,,,,,,,,,,,60ff4de9a6090fa9b9f61bb7,61036e3366688e56b0721e9b,2021-07-29_23h15.37.193,Simcolourproject_2stim_asymm_v5,2020.2.10,Win32,60,61025ae37ef11b136ea224fe,,,,,,,,,4322,92,-55.5,1,0,0,response3disk,,5,14,-1.5,1,0,0,rectangle,14,-1.5,1,0,0,14,-1.5,1,0,0,1,60,220,86,1,,,,,,,,
,,,,,,,,,,,,,FF,,,,,,,,2.5272,,,,,,,,,,,,,,,,,,,,,,60ff4de9a6090fa9b9f61bb7,61036e3366688e56b0721e9b,2021-07-29_23h15.37.193,Simcolourproject_2stim_asymm_v5,2020.2.10,Win32,60,61025ae37ef11b136ea224fe,,,,,,,,,2836,-96,-46.5,1,0,0,response5disk,,2,-16,-2.5,1,0,0,rectangle,-16,-2.5,1,0,0,-16,-2.5,1,0,0,1,61,221,153,1,,,,,,,,
,,,,,,,,,,,,,FF,,,,,,,,2.1568,,,,,,,,,,,,,,,,,,,,,,60ff4de9a6090fa9b9f61bb7,61036e3366688e56b0721e9b,2021-07-29_23h15.37.193,Simcolourproject_2stim_asymm_v5,2020.2.10,Win32,60,61025ae37ef11b136ea224fe,,,,,,,,,3901,-34.5,-61.5,1,0,0,response5disk,,3,6,0,1,0,0,rectangle,6,0,1,0,0,6,0,1,0,0,1,62,222,41,1,,,,,,,,
,,,,,,,,,,,,,FF,,,,,,,,2.7938,,,,,,,,,,,,,,,,,,,,,,60ff4de9a6090fa9b9f61bb7,61036e3366688e56b0721e9b,2021-07-29_23h15.37.193,Simcolourproject_2stim_asymm_v5,2020.2.10,Win32,60,61025ae37ef11b136ea224fe,,,,,,,,,2156,64.5,-37.5,1,0,0,response3disk,,5,16.5,12.5,1,0,0,rectangle,16.5,12.5,1,0,0,16.5,12.5,1,0,0,1,63,223,159,1,,,,,,,,
,,,,,,,,,,,,,FF,,,,,,,,6.1996,,,,,,,,,,,,,,,,,,,,,,60ff4de9a6090fa9b9f61bb7,61036e3366688e56b0721e9b,2021-07-29_23h15.37.193,Simcolourproject_2stim_asymm_v5,2020.2.10,Win32,60,61025ae37ef11b136ea224fe,,,,,,,,,3235,69,-36.5,1,0,0,response3disk,,5,10.5,2.5,1,0,0,rectangle,10.5,2.5,1,0,0,10.5,2.5,1,0,0,1,64,224,24,1,,,,,,,,
,,,,,,,,,,,,,FF,,,,,,,,1.9503,,,,,,,,,,,,,,,,,,,,,,60ff4de9a6090fa9b9f61bb7,61036e3366688e56b0721e9b,2021-07-29_23h15.37.193,Simcolourproject_2stim_asymm_v5,2020.2.10,Win32,60,61025ae37ef11b136ea224fe,,,,,,,,,2815,-42.5,-89,1,0,0,response5disk,,3,12,-0.5,1,0,0,rectangle,12,-0.5,1,0,0,12,-0.5,1,0,0,1,65,225,68,1,,,,,,,,
,,,,,,,,,,,,,FF,,,,,,,,1.268,,,,,,,,,,,,,,,,,,,,,,60ff4de9a6090fa9b9f61bb7,61036e3366688e56b0721e9b,2021-07-29_23h15.37.193,Simcolourproject_2stim_asymm_v5,2020.2.10,Win32,60,61025ae37ef11b136ea224fe,,,,,,,,,4062,64.5,56,1,0,0,response1disk,,6,12,1.5,1,0,0,rectangle,12,1.5,1,0,0,12,1.5,1,0,0,1,66,226,10,1,,,,,,,,
,,,,,,,,,,,,,FF,,,,,,,,1.9828,,,,,,,,,,,,,,,,,,,,,,60ff4de9a6090fa9b9f61bb7,61036e3366688e56b0721e9b,2021-07-29_23h15.37.193,Simcolourproject_2stim_asymm_v5,2020.2.10,Win32,60,61025ae37ef11b136ea224fe,,,,,,,,,699,84,56.5,1,0,0,response1disk,,6,-4,-5,1,0,0,rectangle,-4,-5,1,0,0,-4,-5,1,0,0,1,67,227,26,1,,,,,,,,
,,,,,,,,,,,,,FF,,,,,,,,1.134,,,,,,,,,,,,,,,,,,,,,,60ff4de9a6090fa9b9f61bb7,61036e3366688e56b0721e9b,2021-07-29_23h15.37.193,Simcolourproject_2stim_asymm_v5,2020.2.10,Win32,60,61025ae37ef11b136ea224fe,,,,,,,,,3624,-34.5,-75,1,0,0,response5disk,,3,5.5,-0.5,1,0,0,rectangle,5.5,-0.5,1,0,0,5.5,-0.5,1,0,0,1,68,228,122,1,,,,,,,,
,,,,,,,,,,,,,FF,,,,,,,,2.2727,,,,,,,,,,,,,,,,,,,,,,60ff4de9a6090fa9b9f61bb7,61036e3366688e56b0721e9b,2021-07-29_23h15.37.193,Simcolourproject_2stim_asymm_v5,2020.2.10,Win32,60,61025ae37ef11b136ea224fe,,,,,,,,,210,55.5,-75.5,1,0,0,response3disk,,4,4.5,-7.5,1,0,0,rectangle,4.5,-7.5,1,0,0,4.5,-7.5,1,0,0,1,69,229,126,1,,,,,,,,
,,,,,,,,,,,,,FF,,,,,,,,1.1668,,,,,,,,,,,,,,,,,,,,,,60ff4de9a6090fa9b9f61bb7,61036e3366688e56b0721e9b,2021-07-29_23h15.37.193,Simcolourproject_2stim_asymm_v5,2020.2.10,Win32,60,61025ae37ef11b136ea224fe,,,,,,,,,85,70.5,28.5,1,0,0,response1disk,,6,-12,-17.5,1,0,0,rectangle,-12,-17.5,1,0,0,-12,-17.5,1,0,0,1,70,230,109,1,,,,,,,,
,,,,,,,,,,,,,FF,,,,,,,,6.7442,,,,,,,,,,,,,,,,,,,,,,60ff4de9a6090fa9b9f61bb7,61036e3366688e56b0721e9b,2021-07-29_23h15.37.193,Simcolourproject_2stim_asymm_v5,2020.2.10,Win32,60,61025ae37ef11b136ea224fe,,,,,,,,,723,-70,45.5,1,0,0,response7disk,,1,-2,-3,1,0,0,rectangle,-2,-3,1,0,0,-2,-3,1,0,0,1,71,231,114,1,,,,,,,,
,,,,,,,,,,,,,FF,,,,,,,,3.9059,,,,,,,,,,,,,,,,,,,,,,60ff4de9a6090fa9b9f61bb7,61036e3366688e56b0721e9b,2021-07-29_23h15.37.193,Simcolourproject_2stim_asymm_v5,2020.2.10,Win32,60,61025ae37ef11b136ea224fe,,,,,,,,,4194,87,-50,1,0,0,response3disk,,5,0.5,9.5,1,0,0,rectangle,0.5,9.5,1,0,0,0.5,9.5,1,0,0,1,72,232,36,1,,,,,,,,
,,,,,,,,,,,,,FF,,,,,,,,1.3437,,,,,,,,,,,,,,,,,,,,,,60ff4de9a6090fa9b9f61bb7,61036e3366688e56b0721e9b,2021-07-29_23h15.37.193,Simcolourproject_2stim_asymm_v5,2020.2.10,Win32,60,61025ae37ef11b136ea224fe,,,,,,,,,463,-69,57.5,1,0,0,response7disk,,1,-2.5,12.5,1,0,0,rectangle,-2.5,12.5,1,0,0,-2.5,12.5,1,0,0,1,73,233,89,1,,,,,,,,
,,,,,,,,,,,,,FF,,,,,,,,1.8572,,,,,,,,,,,,,,,,,,,,,,60ff4de9a6090fa9b9f61bb7,61036e3366688e56b0721e9b,2021-07-29_23h15.37.193,Simcolourproject_2stim_asymm_v5,2020.2.10,Win32,60,61025ae37ef11b136ea224fe,,,,,,,,,1077,-35,-42,1,0,0,response5disk,,3,-6,-3.5,1,0,0,rectangle,-6,-3.5,1,0,0,-6,-3.5,1,0,0,1,74,234,32,1,,,,,,,,
,,,,,,,,,,,,,FF,,,,,,,,1.8672,,,,,,,,,,,,,,,,,,,,,,60ff4de9a6090fa9b9f61bb7,61036e3366688e56b0721e9b,2021-07-29_23h15.37.193,Simcolourproject_2stim_asymm_v5,2020.2.10,Win32,60,61025ae37ef11b136ea224fe,,,,,,,,,3992,-84.5,-38.5,1,0,0,response5disk,,2,-4,-2.5,1,0,0,rectangle,-4,-2.5,1,0,0,-4,-2.5,1,0,0,1,75,235,80,1,,,,,,,,
,,,,,,,,,,,,,FF,,,,,,,,1.8235,,,,,,,,,,,,,,,,,,,,,,60ff4de9a6090fa9b9f61bb7,61036e3366688e56b0721e9b,2021-07-29_23h15.37.193,Simcolourproject_2stim_asymm_v5,2020.2.10,Win32,60,61025ae37ef11b136ea224fe,,,,,,,,,950,-79.5,-41.5,1,0,0,response5disk,,2,-4,-1.5,1,0,0,rectangle,-4,-1.5,1,0,0,-4,-1.5,1,0,0,1,76,236,110,1,,,,,,,,
,,,,,,,,,,,,,FF,,,,,,,,2.2742,,,,,,,,,,,,,,,,,,,,,,60ff4de9a6090fa9b9f61bb7,61036e3366688e56b0721e9b,2021-07-29_23h15.37.193,Simcolourproject_2stim_asymm_v5,2020.2.10,Win32,60,61025ae37ef11b136ea224fe,,,,,,,,,1279,-78,28.5,1,0,0,response7disk,,1,-30.5,0,1,0,0,rectangle,-30.5,0,1,0,0,-30.5,0,1,0,0,1,77,237,64,1,,,,,,,,
,,,,,,,,,,,,,FF,,,,,,,,1.1671,,,,,,,,,,,,,,,,,,,,,,60ff4de9a6090fa9b9f61bb7,61036e3366688e56b0721e9b,2021-07-29_23h15.37.193,Simcolourproject_2stim_asymm_v5,2020.2.10,Win32,60,61025ae37ef11b136ea224fe,,,,,,,,,596,97.5,66.5,1,0,0,response1disk,,6,8.5,3,1,0,0,rectangle,8.5,3,1,0,0,8.5,3,1,0,0,1,78,238,106,1,,,,,,,,
,,,,,,,,,,,,,FF,,,,,,,,1.1168,,,,,,,,,,,,,,,,,,,,,,60ff4de9a6090fa9b9f61bb7,61036e3366688e56b0721e9b,2021-07-29_23h15.37.193,Simcolourproject_2stim_asymm_v5,2020.2.10,Win32,60,61025ae37ef11b136ea224fe,,,,,,,,,563,-41.5,-60,1,0,0,response5disk,,3,3.5,8.5,1,0,0,rectangle,3.5,8.5,1,0,0,3.5,8.5,1,0,0,1,79,239,149,1,,,,,,,,
,,,,,,,,,,,,,FF,,,,,,,,1.4838,,,,,,,,,,,,,,,,,,,,,,60ff4de9a6090fa9b9f61bb7,61036e3366688e56b0721e9b,2021-07-29_23h15.37.193,Simcolourproject_2stim_asymm_v5,2020.2.10,Win32,60,61025ae37ef11b136ea224fe,,,,,,,,,812,-90,35,1,0,0,response7disk,,1,-16.5,3.5,1,0,0,rectangle,-16.5,3.5,1,0,0,-16.5,3.5,1,0,0,1,80,240,69,1,,,,,,,,
,,,,,,,,,,,,,FF,,,,,,,,1.417,,,,,,,,,,,,,,,,,,,,,,60ff4de9a6090fa9b9f61bb7,61036e3366688e56b0721e9b,2021-07-29_23h15.37.193,Simcolourproject_2stim_asymm_v5,2020.2.10,Win32,60,61025ae37ef11b136ea224fe,,,,,,,,,1054,-87,-48,1,0,0,response5disk,,2,-5,4,1,0,0,rectangle,-5,4,1,0,0,-5,4,1,0,0,1,81,241,11,1,,,,,,,,
,,,,,,,,,,,,,FF,,,,,,,,2.1167,,,,,,,,,,,,,,,,,,,,,,60ff4de9a6090fa9b9f61bb7,61036e3366688e56b0721e9b,2021-07-29_23h15.37.193,Simcolourproject_2stim_asymm_v5,2020.2.10,Win32,60,61025ae37ef11b136ea224fe,,,,,,,,,584,78.5,-55.5,1,0,0,response3disk,,5,4,-1,1,0,0,rectangle,4,-1,1,0,0,4,-1,1,0,0,1,82,242,158,1,,,,,,,,
,,,,,,,,,,,,,FF,,,,,,,,1.5942,,,,,,,,,,,,,,,,,,,,,,60ff4de9a6090fa9b9f61bb7,61036e3366688e56b0721e9b,2021-07-29_23h15.37.193,Simcolourproject_2stim_asymm_v5,2020.2.10,Win32,60,61025ae37ef11b136ea224fe,,,,,,,,,4271,50,78,1,0,0,response1disk,,7,2,-3.5,1,0,0,rectangle,2,-3.5,1,0,0,2,-3.5,1,0,0,1,83,243,124,1,,,,,,,,
,,,,,,,,,,,,,FF,,,,,,,,1.2337,,,,,,,,,,,,,,,,,,,,,,60ff4de9a6090fa9b9f61bb7,61036e3366688e56b0721e9b,2021-07-29_23h15.37.193,Simcolourproject_2stim_asymm_v5,2020.2.10,Win32,60,61025ae37ef11b136ea224fe,,,,,,,,,4207,-51,68,1,0,0,response7disk,,0,-6.5,12,1,0,0,rectangle,-6.5,12,1,0,0,-6.5,12,1,0,0,1,84,244,130,1,,,,,,,,
,,,,,,,,,,,,,FF,,,,,,,,1.807,,,,,,,,,,,,,,,,,,,,,,60ff4de9a6090fa9b9f61bb7,61036e3366688e56b0721e9b,2021-07-29_23h15.37.193,Simcolourproject_2stim_asymm_v5,2020.2.10,Win32,60,61025ae37ef11b136ea224fe,,,,,,,,,515,34.5,-76,1,0,0,response3disk,,4,5,-1,1,0,0,rectangle,5,-1,1,0,0,5,-1,1,0,0,1,85,245,77,1,,,,,,,,
,,,,,,,,,,,,,FF,,,,,,,,2.3668,,,,,,,,,,,,,,,,,,,,,,60ff4de9a6090fa9b9f61bb7,61036e3366688e56b0721e9b,2021-07-29_23h15.37.193,Simcolourproject_2stim_asymm_v5,2020.2.10,Win32,60,61025ae37ef11b136ea224fe,,,,,,,,,4339,61.5,-72,1,0,0,response3disk,,4,13.5,3,1,0,0,rectangle,13.5,3,1,0,0,13.5,3,1,0,0,1,86,246,105,1,,,,,,,,
,,,,,,,,,,,,,FF,,,,,,,,1.5604,,,,,,,,,,,,,,,,,,,,,,60ff4de9a6090fa9b9f61bb7,61036e3366688e56b0721e9b,2021-07-29_23h15.37.193,Simcolourproject_2stim_asymm_v5,2020.2.10,Win32,60,61025ae37ef11b136ea224fe,,,,,,,,,3400,76,-31,1,0,0,response3disk,,5,13.5,11,1,0,0,rectangle,13.5,11,1,0,0,13.5,11,1,0,0,1,87,247,61,1,,,,,,,,
,,,,,,,,,,,,,FF,,,,,,,,1.9003,,,,,,,,,,,,,,,,,,,,,,60ff4de9a6090fa9b9f61bb7,61036e3366688e56b0721e9b,2021-07-29_23h15.37.193,Simcolourproject_2stim_asymm_v5,2020.2.10,Win32,60,61025ae37ef11b136ea224fe,,,,,,,,,172,-81,34.5,1,0,0,response7disk,,1,-13,0.5,1,0,0,rectangle,-13,0.5,1,0,0,-13,0.5,1,0,0,1,88,248,132,1,,,,,,,,
,,,,,,,,,,,,,FF,,,,,,,,1.0504,,,,,,,,,,,,,,,,,,,,,,60ff4de9a6090fa9b9f61bb7,61036e3366688e56b0721e9b,2021-07-29_23h15.37.193,Simcolourproject_2stim_asymm_v5,2020.2.10,Win32,60,61025ae37ef11b136ea224fe,,,,,,,,,49,-69.5,-41.5,1,0,0,response5disk,,2,2.5,-4,1,0,0,rectangle,2.5,-4,1,0,0,2.5,-4,1,0,0,1,89,249,123,1,,,,,,,,
,,,,,,,,,,,,,FF,,,,,,,,1.3601,,,,,,,,,,,,,,,,,,,,,,60ff4de9a6090fa9b9f61bb7,61036e3366688e56b0721e9b,2021-07-29_23h15.37.193,Simcolourproject_2stim_asymm_v5,2020.2.10,Win32,60,61025ae37ef11b136ea224fe,,,,,,,,,3274,37,-84.5,1,0,0,response3disk,,4,12,1,1,0,0,rectangle,12,1,1,0,0,12,1,1,0,0,1,90,250,155,1,,,,,,,,
,,,,,,,,,,,,,FF,,,,,,,,2.1946,,,,,,,,,,,,,,,,,,,,,,60ff4de9a6090fa9b9f61bb7,61036e3366688e56b0721e9b,2021-07-29_23h15.37.193,Simcolourproject_2stim_asymm_v5,2020.2.10,Win32,60,61025ae37ef11b136ea224fe,,,,,,,,,925,-82.5,29.5,1,0,0,response7disk,,1,10.5,7,1,0,0,rectangle,-102.5,-37.5,1,0,0,-2.5,-1.5,1,0,0,1,91,251,54,1,,response5disk_3,TRUE,2,2,"[52,181,197,138,173,19,181,165,252,218,168,118,187,5,172,210,204,115,259,210]",2.6833,rectangle
,,,,,,,,,,,,,FF,,,,,,,,1.6666,,,,,,,,,,,,,,,,,,,,,,60ff4de9a6090fa9b9f61bb7,61036e3366688e56b0721e9b,2021-07-29_23h15.37.193,Simcolourproject_2stim_asymm_v5,2020.2.10,Win32,60,61025ae37ef11b136ea224fe,,,,,,,,,3038,-67.5,53,1,0,0,response7disk,,1,-14,17.5,1,0,0,rectangle,-14,17.5,1,0,0,-14,17.5,1,0,0,1,92,252,45,1,,,,,,,,
,,,,,,,,,,,,,FF,,,,,,,,1.5336,,,,,,,,,,,,,,,,,,,,,,60ff4de9a6090fa9b9f61bb7,61036e3366688e56b0721e9b,2021-07-29_23h15.37.193,Simcolourproject_2stim_asymm_v5,2020.2.10,Win32,60,61025ae37ef11b136ea224fe,,,,,,,,,2179,-82,-90,1,0,0,response5disk,,3,-19,-9,1,0,0,rectangle,-19,-9,1,0,0,-19,-9,1,0,0,1,93,253,91,1,,,,,,,,
,,,,,,,,,,,,,FF,,,,,,,,1.867,,,,,,,,,,,,,,,,,,,,,,60ff4de9a6090fa9b9f61bb7,61036e3366688e56b0721e9b,2021-07-29_23h15.37.193,Simcolourproject_2stim_asymm_v5,2020.2.10,Win32,60,61025ae37ef11b136ea224fe,,,,,,,,,4281,-73.5,-43,1,0,0,response5disk,,2,-3.5,0,1,0,0,rectangle,-3.5,0,1,0,0,-3.5,0,1,0,0,1,94,254,15,1,,,,,,,,
,,,,,,,,,,,,,FF,,,,,,,,2.2667,,,,,,,,,,,,,,,,,,,,,,60ff4de9a6090fa9b9f61bb7,61036e3366688e56b0721e9b,2021-07-29_23h15.37.193,Simcolourproject_2stim_asymm_v5,2020.2.10,Win32,60,61025ae37ef11b136ea224fe,,,,,,,,,350,-51,-85.5,1,0,0,response5disk,,3,8.5,-7,1,0,0,rectangle,8.5,-7,1,0,0,8.5,-7,1,0,0,1,95,255,117,1,,,,,,,,
,,,,,,,,,,,,,FF,,,,,,,,1.7266,,,,,,,,,,,,,,,,,,,,,,60ff4de9a6090fa9b9f61bb7,61036e3366688e56b0721e9b,2021-07-29_23h15.37.193,Simcolourproject_2stim_asymm_v5,2020.2.10,Win32,60,61025ae37ef11b136ea224fe,,,,,,,,,400,58,-78,1,0,0,response3disk,,4,14.5,4.5,1,0,0,rectangle,14.5,4.5,1,0,0,14.5,4.5,1,0,0,1,96,256,39,1,,,,,,,,
,,,,,,,,,,,,,FF,,,,,,,,4.857,,,,,,,,,,,,,,,,,,,,,,60ff4de9a6090fa9b9f61bb7,61036e3366688e56b0721e9b,2021-07-29_23h15.37.193,Simcolourproject_2stim_asymm_v5,2020.2.10,Win32,60,61025ae37ef11b136ea224fe,,,,,,,,,2604,-83,-47,1,0,0,response5disk,,2,14,7,1,0,0,rectangle,14,7,1,0,0,14,7,1,0,0,1,97,257,116,1,,,,,,,,
,,,,,,,,,,,,,FF,,,,,,,,1.3071,,,,,,,,,,,,,,,,,,,,,,60ff4de9a6090fa9b9f61bb7,61036e3366688e56b0721e9b,2021-07-29_23h15.37.193,Simcolourproject_2stim_asymm_v5,2020.2.10,Win32,60,61025ae37ef11b136ea224fe,,,,,,,,,1097,86,50.5,1,0,0,response1disk,,6,0.5,-7,1,0,0,rectangle,89,41,1,0,0,-10.5,1,1,0,0,1,98,258,51,1,,response1disk_3,TRUE,6,6,"[52,181,197,138,173,19,181,165,252,218,168,118,187,5,172,210,204,115,259,210]",1.717,rectangle
,,,,,,,,,,,,,FF,,,,,,,,4.3163,,,,,,,,,,,,,,,,,,,,,,60ff4de9a6090fa9b9f61bb7,61036e3366688e56b0721e9b,2021-07-29_23h15.37.193,Simcolourproject_2stim_asymm_v5,2020.2.10,Win32,60,61025ae37ef11b136ea224fe,,,,,,,,,318,81.5,39,1,0,0,response1disk,,6,-8,4.5,1,0,0,rectangle,-8,4.5,1,0,0,-8,4.5,1,0,0,1,99,259,43,1,,,,,,,,
,,,,,,,,,,,,,FF,,,,,,,,1.6004,,,,,,,,,,,,,,,,,,,,,,60ff4de9a6090fa9b9f61bb7,61036e3366688e56b0721e9b,2021-07-29_23h15.37.193,Simcolourproject_2stim_asymm_v5,2020.2.10,Win32,60,61025ae37ef11b136ea224fe,,,,,,,,,4055,-55.5,-76.5,1,0,0,response5disk,,3,1.5,4,1,0,0,rectangle,1.5,4,1,0,0,1.5,4,1,0,0,1,100,260,90,1,,,,,,,,
,,,,,,,,,,,,,FF,,,,,,,,1.5689,,,,,,,,,,,,,,,,,,,,,,60ff4de9a6090fa9b9f61bb7,61036e3366688e56b0721e9b,2021-07-29_23h15.37.193,Simcolourproject_2stim_asymm_v5,2020.2.10,Win32,60,61025ae37ef11b136ea224fe,,,,,,,,,366,-53.5,80.5,1,0,0,response7disk,,0,-5.5,4,1,0,0,rectangle,-5.5,4,1,0,0,-5.5,4,1,0,0,1,101,261,19,1,,,,,,,,
,,,,,,,,,,,,,FF,,,,,,,,1.8846,,,,,,,,,,,,,,,,,,,,,,60ff4de9a6090fa9b9f61bb7,61036e3366688e56b0721e9b,2021-07-29_23h15.37.193,Simcolourproject_2stim_asymm_v5,2020.2.10,Win32,60,61025ae37ef11b136ea224fe,,,,,,,,,2344,98.5,58,1,0,0,response1disk,,6,-1,8,1,0,0,rectangle,-1,8,1,0,0,-1,8,1,0,0,1,102,262,78,1,,,,,,,,
,,,,,,,,,,,,,FF,,,,,,,,1.3075,,,,,,,,,,,,,,,,,,,,,,60ff4de9a6090fa9b9f61bb7,61036e3366688e56b0721e9b,2021-07-29_23h15.37.193,Simcolourproject_2stim_asymm_v5,2020.2.10,Win32,60,61025ae37ef11b136ea224fe,,,,,,,,,556,-76,-42.5,1,0,0,response5disk,,2,-15,2,1,0,0,rectangle,-15,2,1,0,0,-15,2,1,0,0,1,103,263,59,1,,,,,,,,
,,,,,,,,,,,,,FF,,,,,,,,1.2045,,,,,,,,,,,,,,,,,,,,,,60ff4de9a6090fa9b9f61bb7,61036e3366688e56b0721e9b,2021-07-29_23h15.37.193,Simcolourproject_2stim_asymm_v5,2020.2.10,Win32,60,61025ae37ef11b136ea224fe,,,,,,,,,114,26,-62,1,0,0,response3disk,,4,0.5,-4,1,0,0,rectangle,0.5,-4,1,0,0,0.5,-4,1,0,0,1,104,264,34,1,,,,,,,,
,,,,,,,,,,,,,FF,,,,,,,,1.1165,,,,,,,,,,,,,,,,,,,,,,60ff4de9a6090fa9b9f61bb7,61036e3366688e56b0721e9b,2021-07-29_23h15.37.193,Simcolourproject_2stim_asymm_v5,2020.2.10,Win32,60,61025ae37ef11b136ea224fe,,,,,,,,,1877,89.5,48.5,1,0,0,response1disk,,6,13.5,9.5,1,0,0,rectangle,13.5,9.5,1,0,0,13.5,9.5,1,0,0,1,105,265,85,1,,,,,,,,
,,,,,,,,,,,,,FF,,,,,,,,1.7726,,,,,,,,,,,,,,,,,,,,,,60ff4de9a6090fa9b9f61bb7,61036e3366688e56b0721e9b,2021-07-29_23h15.37.193,Simcolourproject_2stim_asymm_v5,2020.2.10,Win32,60,61025ae37ef11b136ea224fe,,,,,,,,,385,-27,-65,1,0,0,response5disk,,3,0.5,3.5,1,0,0,rectangle,0.5,3.5,1,0,0,0.5,3.5,1,0,0,1,106,266,150,1,,,,,,,,
,,,,,,,,,,,,,FF,,,,,,,,1.4831,,,,,,,,,,,,,,,,,,,,,,60ff4de9a6090fa9b9f61bb7,61036e3366688e56b0721e9b,2021-07-29_23h15.37.193,Simcolourproject_2stim_asymm_v5,2020.2.10,Win32,60,61025ae37ef11b136ea224fe,,,,,,,,,1839,-74,-30.5,1,0,0,response5disk,,2,-13,7,1,0,0,rectangle,-13,7,1,0,0,-13,7,1,0,0,1,107,267,92,1,,,,,,,,
,,,,,,,,,,,,,FF,,,,,,,,1.0502,,,,,,,,,,,,,,,,,,,,,,60ff4de9a6090fa9b9f61bb7,61036e3366688e56b0721e9b,2021-07-29_23h15.37.193,Simcolourproject_2stim_asymm_v5,2020.2.10,Win32,60,61025ae37ef11b136ea224fe,,,,,,,,,1575,38.5,-65,1,0,0,response3disk,,4,2.5,10,1,0,0,rectangle,2.5,10,1,0,0,2.5,10,1,0,0,1,108,268,135,1,,,,,,,,
,,,,,,,,,,,,,FF,,,,,,,,1.6166,,,,,,,,,,,,,,,,,,,,,,60ff4de9a6090fa9b9f61bb7,61036e3366688e56b0721e9b,2021-07-29_23h15.37.193,Simcolourproject_2stim_asymm_v5,2020.2.10,Win32,60,61025ae37ef11b136ea224fe,,,,,,,,,946,98.5,43.5,1,0,0,response1disk,,6,-6.5,-0.5,1,0,0,rectangle,-6.5,-0.5,1,0,0,-6.5,-0.5,1,0,0,1,109,269,107,1,,,,,,,,
,,,,,,,,,,,,,FF,,,,,,,,1.0271,,,,,,,,,,,,,,,,,,,,,,60ff4de9a6090fa9b9f61bb7,61036e3366688e56b0721e9b,2021-07-29_23h15.37.193,Simcolourproject_2stim_asymm_v5,2020.2.10,Win32,60,61025ae37ef11b136ea224fe,,,,,,,,,3342,-93,-60.5,1,0,0,response5disk,,2,-19,-11,1,0,0,rectangle,-19,-11,1,0,0,-19,-11,1,0,0,1,110,270,147,1,,,,,,,,
,,,,,,,,,,,,,FF,,,,,,,,0.8169,,,,,,,,,,,,,,,,,,,,,,60ff4de9a6090fa9b9f61bb7,61036e3366688e56b0721e9b,2021-07-29_23h15.37.193,Simcolourproject_2stim_asymm_v5,2020.2.10,Win32,60,61025ae37ef11b136ea224fe,,,,,,,,,3252,-43,-65,1,0,0,response5disk,,3,1.5,2.5,1,0,0,rectangle,1.5,2.5,1,0,0,1.5,2.5,1,0,0,1,111,271,151,1,,,,,,,,
,,,,,,,,,,,,,FF,,,,,,,,1.1402,,,,,,,,,,,,,,,,,,,,,,60ff4de9a6090fa9b9f61bb7,61036e3366688e56b0721e9b,2021-07-29_23h15.37.193,Simcolourproject_2stim_asymm_v5,2020.2.10,Win32,60,61025ae37ef11b136ea224fe,,,,,,,,,2978,48,-80,1,0,0,response3disk,,4,9.5,10.5,1,0,0,rectangle,9.5,10.5,1,0,0,9.5,10.5,1,0,0,1,112,272,57,1,,,,,,,,
,,,,,,,,,,,,,FF,,,,,,,,2.0403,,,,,,,,,,,,,,,,,,,,,,60ff4de9a6090fa9b9f61bb7,61036e3366688e56b0721e9b,2021-07-29_23h15.37.193,Simcolourproject_2stim_asymm_v5,2020.2.10,Win32,60,61025ae37ef11b136ea224fe,,,,,,,,,449,-34,-87.5,1,0,0,response5disk,,3,3,4.5,1,0,0,rectangle,3,4.5,1,0,0,3,4.5,1,0,0,1,113,273,142,1,,,,,,,,
,,,,,,,,,,,,,FF,,,,,,,,3.1597,,,,,,,,,,,,,,,,,,,,,,60ff4de9a6090fa9b9f61bb7,61036e3366688e56b0721e9b,2021-07-29_23h15.37.193,Simcolourproject_2stim_asymm_v5,2020.2.10,Win32,60,61025ae37ef11b136ea224fe,,,,,,,,,2858,98,51.5,1,0,0,response1disk,,6,-0.5,4,1,0,0,rectangle,-0.5,4,1,0,0,-0.5,4,1,0,0,1,114,274,125,1,,,,,,,,
,,,,,,,,,,,,,FF,,,,,,,,2.507,,,,,,,,,,,,,,,,,,,,,,60ff4de9a6090fa9b9f61bb7,61036e3366688e56b0721e9b,2021-07-29_23h15.37.193,Simcolourproject_2stim_asymm_v5,2020.2.10,Win32,60,61025ae37ef11b136ea224fe,,,,,,,,,1288,-80.5,-35.5,1,0,0,response5disk,,2,-9,-1,1,0,0,rectangle,-9,-1,1,0,0,-9,-1,1,0,0,1,115,275,71,1,,,,,,,,
,,,,,,,,,,,,,FF,,,,,,,,2.2826,,,,,,,,,,,,,,,,,,,,,,60ff4de9a6090fa9b9f61bb7,61036e3366688e56b0721e9b,2021-07-29_23h15.37.193,Simcolourproject_2stim_asymm_v5,2020.2.10,Win32,60,61025ae37ef11b136ea224fe,,,,,,,,,3256,82,39,1,0,0,response1disk,,6,7.5,-8.5,1,0,0,rectangle,7.5,-8.5,1,0,0,7.5,-8.5,1,0,0,1,116,276,137,1,,,,,,,,
,,,,,,,,,,,,,FF,,,,,,,,2.3174,,,,,,,,,,,,,,,,,,,,,,60ff4de9a6090fa9b9f61bb7,61036e3366688e56b0721e9b,2021-07-29_23h15.37.193,Simcolourproject_2stim_asymm_v5,2020.2.10,Win32,60,61025ae37ef11b136ea224fe,,,,,,,,,561,-44.5,-91.5,1,0,0,response5disk,,3,-4,-1,1,0,0,rectangle,-4,-1,1,0,0,-4,-1,1,0,0,1,117,277,65,1,,,,,,,,
,,,,,,,,,,,,,FF,,,,,,,,1.8063,,,,,,,,,,,,,,,,,,,,,,60ff4de9a6090fa9b9f61bb7,61036e3366688e56b0721e9b,2021-07-29_23h15.37.193,Simcolourproject_2stim_asymm_v5,2020.2.10,Win32,60,61025ae37ef11b136ea224fe,,,,,,,,,294,68,-81.5,1,0,0,response3disk,,4,11,-6,1,0,0,rectangle,11,-6,1,0,0,11,-6,1,0,0,1,118,278,98,1,,,,,,,,
,,,,,,,,,,,,,FF,,,,,,,,1.6605,,,,,,,,,,,,,,,,,,,,,,60ff4de9a6090fa9b9f61bb7,61036e3366688e56b0721e9b,2021-07-29_23h15.37.193,Simcolourproject_2stim_asymm_v5,2020.2.10,Win32,60,61025ae37ef11b136ea224fe,,,,,,,,,3590,81,-30,1,0,0,response3disk,,5,13,3,1,0,0,rectangle,13,3,1,0,0,13,3,1,0,0,1,119,279,120,1,,,,,,,,
,,,,,,,,,,,,,FF,,,,,,,,1.9343,,,,,,,,,,,,,,,,,,,,,,60ff4de9a6090fa9b9f61bb7,61036e3366688e56b0721e9b,2021-07-29_23h15.37.193,Simcolourproject_2stim_asymm_v5,2020.2.10,Win32,60,61025ae37ef11b136ea224fe,,,,,,,,,2560,-24,-87,1,0,0,response5disk,,3,7.5,0.5,1,0,0,rectangle,7.5,0.5,1,0,0,7.5,0.5,1,0,0,1,120,280,128,1,,,,,,,,
,,,,,,,,,,,,,FF,,,,,,,,0.8896,,,,,,,,,,,,,,,,,,,,,,60ff4de9a6090fa9b9f61bb7,61036e3366688e56b0721e9b,2021-07-29_23h15.37.193,Simcolourproject_2stim_asymm_v5,2020.2.10,Win32,60,61025ae37ef11b136ea224fe,,,,,,,,,2222,47,-67,1,0,0,response3disk,,4,11,-9.5,1,0,0,rectangle,11,-9.5,1,0,0,11,-9.5,1,0,0,1,121,281,2,1,,,,,,,,
,,,,,,,,,,,,,FF,,,,,,,,2.8337,,,,,,,,,,,,,,,,,,,,,,60ff4de9a6090fa9b9f61bb7,61036e3366688e56b0721e9b,2021-07-29_23h15.37.193,Simcolourproject_2stim_asymm_v5,2020.2.10,Win32,60,61025ae37ef11b136ea224fe,,,,,,,,,3367,50.5,-65.5,1,0,0,response3disk,,4,10,-1,1,0,0,rectangle,10,-1,1,0,0,10,-1,1,0,0,1,122,282,47,1,,,,,,,,
,,,,,,,,,,,,,FF,,,,,,,,0.917,,,,,,,,,,,,,,,,,,,,,,60ff4de9a6090fa9b9f61bb7,61036e3366688e56b0721e9b,2021-07-29_23h15.37.193,Simcolourproject_2stim_asymm_v5,2020.2.10,Win32,60,61025ae37ef11b136ea224fe,,,,,,,,,661,70.5,-42,1,0,0,response3disk,,5,11.5,3.5,1,0,0,rectangle,11.5,3.5,1,0,0,11.5,3.5,1,0,0,1,123,283,88,1,,,,,,,,
,,,,,,,,,,,,,FF,,,,,,,,1.55,,,,,,,,,,,,,,,,,,,,,,60ff4de9a6090fa9b9f61bb7,61036e3366688e56b0721e9b,2021-07-29_23h15.37.193,Simcolourproject_2stim_asymm_v5,2020.2.10,Win32,60,61025ae37ef11b136ea224fe,,,,,,,,,1190,66.5,-49,1,0,0,response3disk,,5,5,4.5,1,0,0,rectangle,5,4.5,1,0,0,5,4.5,1,0,0,1,124,284,30,1,,,,,,,,
,,,,,,,,,,,,,FF,,,,,,,,1.1072,,,,,,,,,,,,,,,,,,,,,,60ff4de9a6090fa9b9f61bb7,61036e3366688e56b0721e9b,2021-07-29_23h15.37.193,Simcolourproject_2stim_asymm_v5,2020.2.10,Win32,60,61025ae37ef11b136ea224fe,,,,,,,,,811,94.5,-38,1,0,0,response3disk,,5,14,1,1,0,0,rectangle,14,1,1,0,0,14,1,1,0,0,1,125,285,60,1,,,,,,,,
,,,,,,,,,,,,,FF,,,,,,,,1.8189,,,,,,,,,,,,,,,,,,,,,,60ff4de9a6090fa9b9f61bb7,61036e3366688e56b0721e9b,2021-07-29_23h15.37.193,Simcolourproject_2stim_asymm_v5,2020.2.10,Win32,60,61025ae37ef11b136ea224fe,,,,,,,,,3821,-84.5,-53,1,0,0,response5disk,,2,-5.5,10,1,0,0,rectangle,-5.5,10,1,0,0,-5.5,10,1,0,0,1,126,286,148,1,,,,,,,,
,,,,,,,,,,,,,FF,,,,,,,,2.2575,,,,,,,,,,,,,,,,,,,,,,60ff4de9a6090fa9b9f61bb7,61036e3366688e56b0721e9b,2021-07-29_23h15.37.193,Simcolourproject_2stim_asymm_v5,2020.2.10,Win32,60,61025ae37ef11b136ea224fe,,,,,,,,,1491,42.5,-68,1,0,0,response3disk,,4,12,-0.5,1,0,0,rectangle,12,-0.5,1,0,0,12,-0.5,1,0,0,1,127,287,14,1,,,,,,,,
,,,,,,,,,,,,,FF,,,,,,,,1.2004,,,,,,,,,,,,,,,,,,,,,,60ff4de9a6090fa9b9f61bb7,61036e3366688e56b0721e9b,2021-07-29_23h15.37.193,Simcolourproject_2stim_asymm_v5,2020.2.10,Win32,60,61025ae37ef11b136ea224fe,,,,,,,,,1552,86,-36,1,0,0,response3disk,,5,8.5,6,1,0,0,rectangle,8.5,6,1,0,0,8.5,6,1,0,0,1,128,288,56,1,,,,,,,,
,,,,,,,,,,,,,FF,,,,,,,,2.3269,,,,,,,,,,,,,,,,,,,,,,60ff4de9a6090fa9b9f61bb7,61036e3366688e56b0721e9b,2021-07-29_23h15.37.193,Simcolourproject_2stim_asymm_v5,2020.2.10,Win32,60,61025ae37ef11b136ea224fe,,,,,,,,,384,88,-41,1,0,0,response3disk,,5,-0.5,11.5,1,0,0,rectangle,-0.5,11.5,1,0,0,-0.5,11.5,1,0,0,1,129,289,5,1,,,,,,,,
,,,,,,,,,,,,,FF,,,,,,,,1.2603,,,,,,,,,,,,,,,,,,,,,,60ff4de9a6090fa9b9f61bb7,61036e3366688e56b0721e9b,2021-07-29_23h15.37.193,Simcolourproject_2stim_asymm_v5,2020.2.10,Win32,60,61025ae37ef11b136ea224fe,,,,,,,,,2152,-70.5,-33.5,1,0,0,response5disk,,2,-11.5,2.5,1,0,0,rectangle,-11.5,2.5,1,0,0,-11.5,2.5,1,0,0,1,130,290,84,1,,,,,,,,
,,,,,,,,,,,,,FF,,,,,,,,1.4845,,,,,,,,,,,,,,,,,,,,,,60ff4de9a6090fa9b9f61bb7,61036e3366688e56b0721e9b,2021-07-29_23h15.37.193,Simcolourproject_2stim_asymm_v5,2020.2.10,Win32,60,61025ae37ef11b136ea224fe,,,,,,,,,493,-60.5,-97,1,0,0,response5disk,,3,-5,4.5,1,0,0,rectangle,-5,4.5,1,0,0,-5,4.5,1,0,0,1,131,291,35,1,,,,,,,,
,,,,,,,,,,,,,FF,,,,,,,,1.3231,,,,,,,,,,,,,,,,,,,,,,60ff4de9a6090fa9b9f61bb7,61036e3366688e56b0721e9b,2021-07-29_23h15.37.193,Simcolourproject_2stim_asymm_v5,2020.2.10,Win32,60,61025ae37ef11b136ea224fe,,,,,,,,,2336,36.5,-74.5,1,0,0,response3disk,,4,6.5,-3.5,1,0,0,rectangle,6.5,-3.5,1,0,0,6.5,-3.5,1,0,0,1,132,292,115,1,,,,,,,,
,,,,,,,,,,,,,FF,,,,,,,,1.3402,,,,,,,,,,,,,,,,,,,,,,60ff4de9a6090fa9b9f61bb7,61036e3366688e56b0721e9b,2021-07-29_23h15.37.193,Simcolourproject_2stim_asymm_v5,2020.2.10,Win32,60,61025ae37ef11b136ea224fe,,,,,,,,,218,-53,-37,1,0,0,response5disk,,2,14.5,12.5,1,0,0,rectangle,14.5,12.5,1,0,0,14.5,12.5,1,0,0,1,133,293,62,1,,,,,,,,
,,,,,,,,,,,,,FF,,,,,,,,0.9409,,,,,,,,,,,,,,,,,,,,,,60ff4de9a6090fa9b9f61bb7,61036e3366688e56b0721e9b,2021-07-29_23h15.37.193,Simcolourproject_2stim_asymm_v5,2020.2.10,Win32,60,61025ae37ef11b136ea224fe,,,,,,,,,1376,-73.5,-28.5,1,0,0,response5disk,,2,-2.5,16,1,0,0,rectangle,-2.5,16,1,0,0,-2.5,16,1,0,0,1,134,294,138,1,,,,,,,,
,,,,,,,,,,,,,FF,,,,,,,,1.0266,,,,,,,,,,,,,,,,,,,,,,60ff4de9a6090fa9b9f61bb7,61036e3366688e56b0721e9b,2021-07-29_23h15.37.193,Simcolourproject_2stim_asymm_v5,2020.2.10,Win32,60,61025ae37ef11b136ea224fe,,,,,,,,,88,-39,-76.5,1,0,0,response5disk,,3,3,3,1,0,0,rectangle,3,3,1,0,0,3,3,1,0,0,1,135,295,66,1,,,,,,,,
