key_resp.keys,key_resp.rt,key_resp_14.keys,key_resp_14.rt,key_resp_15.keys,key_resp_15.rt,key_resp_17.keys,key_resp_17.rt,key_resp_9.keys,key_resp_9.rt,key_resp_10.keys,key_resp_10.rt,practice_comparison,Ecc,mouse_5.x,mouse_5.y,mouse_5.leftButton,mouse_5.midButton,mouse_5.rightButton,mouse_5.clicked_name,pracsimilarity,response_time,mouse_10.x,mouse_10.y,mouse_10.leftButton,mouse_10.midButton,mouse_10.rightButton,mouse_10.clicked_name,mouse_7.x,mouse_7.y,mouse_7.leftButton,mouse_7.midButton,mouse_7.rightButton,mouse_6.x,mouse_6.y,mouse_6.leftButton,mouse_6.midButton,mouse_6.rightButton,duringprac.thisRepN,duringprac.thisTrialN,duringprac.thisN,duringprac.thisIndex,duringprac.ran,participant,session,date,expName,psychopyVersion,OS,frameRate,study_id,mouse_7.clicked_name,catchpracsimilarity,catch_response_time,catchnumberprac,catchtrialorderprac,mouse_6.clicked_name,key_resp_22.keys,key_resp_22.rt,realcomparison,mouse.x,mouse.y,mouse.leftButton,mouse.midButton,mouse.rightButton,mouse.clicked_name,Colour2,similarity,mouse_2.x,mouse_2.y,mouse_2.leftButton,mouse_2.midButton,mouse_2.rightButton,mouse_2.clicked_name,mouse_3.x,mouse_3.y,mouse_3.leftButton,mouse_3.midButton,mouse_3.rightButton,mouse_11.x,mouse_11.y,mouse_11.leftButton,mouse_11.midButton,mouse_11.rightButton,trials_2.thisRepN,trials_2.thisTrialN,trials_2.thisN,trials_2.thisIndex,trials_2.ran,Colour1,mouse_3.clicked_name,catchornah,catchsimilarity,catchnumber,catchtrialorder,catchRT,mouse_11.clicked_name
space,1.129,space,3.263,space,16.023,space,19.64,space,1.581,space,4.953,11,PF,73,47,1,0,0,response1disk_5,6,17.169,-3,7,1,0,0,rectangle_8,-3,7,1,0,0,-3,7,1,0,0,0,0,0,2,1,60ff0cbf221ffeac86a7efaf,610367dc3f003f2449a8b220,2021-07-29_22h46.22.676,Simcolourproject_2stim_asymm_v5,2020.2.10,MacIntel,60,61025ae37ef11b136ea224fe,,,,,,,,,,,,,,,,,,,,,,,,,,,,,,,,,,,,,,,,,,,,,,
,,,,,,,,,,,,2,PF,-78,40,1,0,0,response7disk_5,1,5.717,13,-1,1,0,0,rectangle_8,50,-115,1,0,0,11,2,1,0,0,0,1,1,4,1,60ff0cbf221ffeac86a7efaf,610367dc3f003f2449a8b220,2021-07-29_22h46.22.676,Simcolourproject_2stim_asymm_v5,2020.2.10,MacIntel,60,61025ae37ef11b136ea224fe,response3disk_7,4,5.532,2,"[2,5]",rectangle_4,,,,,,,,,,,,,,,,,,,,,,,,,,,,,,,,,,,,,,,,
,,,,,,,,,,,,77,PF,109,-48,1,0,0,response3disk_5,5,2.833,8,1,1,0,0,rectangle_8,8,1,1,0,0,8,1,1,0,0,0,2,2,6,1,60ff0cbf221ffeac86a7efaf,610367dc3f003f2449a8b220,2021-07-29_22h46.22.676,Simcolourproject_2stim_asymm_v5,2020.2.10,MacIntel,60,61025ae37ef11b136ea224fe,,,,,,,,,,,,,,,,,,,,,,,,,,,,,,,,,,,,,,,,,,,,,,
,,,,,,,,,,,,55,FF,87,-50,1,0,0,response3disk_5,5,4.235,-5,0,1,0,0,rectangle_8,-5,0,1,0,0,-5,0,1,0,0,0,3,3,0,1,60ff0cbf221ffeac86a7efaf,610367dc3f003f2449a8b220,2021-07-29_22h46.22.676,Simcolourproject_2stim_asymm_v5,2020.2.10,MacIntel,60,61025ae37ef11b136ea224fe,,,,,,,,,,,,,,,,,,,,,,,,,,,,,,,,,,,,,,,,,,,,,,
,,,,,,,,,,,,7,FF,87,37,1,0,0,response1disk_5,6,1.983,-4,-6,1,0,0,rectangle_8,-95,-44,1,0,0,-9,-3,1,0,0,0,4,4,5,1,60ff0cbf221ffeac86a7efaf,610367dc3f003f2449a8b220,2021-07-29_22h46.22.676,Simcolourproject_2stim_asymm_v5,2020.2.10,MacIntel,60,61025ae37ef11b136ea224fe,response5disk_7,2,3.282,2,"[2,5]",rectangle_4,,,,,,,,,,,,,,,,,,,,,,,,,,,,,,,,,,,,,,,,
,,,,,,,,,,,,67,PF,65,86,1,0,0,response1disk_5,7,1.884,1,2,1,0,0,rectangle_8,1,2,1,0,0,1,2,1,0,0,0,5,5,1,1,60ff0cbf221ffeac86a7efaf,610367dc3f003f2449a8b220,2021-07-29_22h46.22.676,Simcolourproject_2stim_asymm_v5,2020.2.10,MacIntel,60,61025ae37ef11b136ea224fe,,,,,,,,,,,,,,,,,,,,,,,,,,,,,,,,,,,,,,,,,,,,,,
,,,,,,,,,,,,35,FF,-38,-96,1,0,0,response5disk_5,3,1.883,0,3,1,0,0,rectangle_8,0,3,1,0,0,0,3,1,0,0,0,6,6,3,1,60ff0cbf221ffeac86a7efaf,610367dc3f003f2449a8b220,2021-07-29_22h46.22.676,Simcolourproject_2stim_asymm_v5,2020.2.10,MacIntel,60,61025ae37ef11b136ea224fe,,,,,,,,,,,,,,,,,,,,,,,,,,,,,,,,,,,,,,,,,,,,,,
,,,,,,,,,,,,,FF,,,,,,,,4.648,,,,,,,,,,,,,,,,,,,,,,60ff0cbf221ffeac86a7efaf,610367dc3f003f2449a8b220,2021-07-29_22h46.22.676,Simcolourproject_2stim_asymm_v5,2020.2.10,MacIntel,60,61025ae37ef11b136ea224fe,,,,,,,space,4.263,731,-59,-106,1,0,0,response5disk,,3,12,-2,1,0,0,rectangle,12,-2,1,0,0,12,-2,1,0,0,0,0,0,35,1,,,,,,,,
,,,,,,,,,,,,,FF,,,,,,,,1.649,,,,,,,,,,,,,,,,,,,,,,60ff0cbf221ffeac86a7efaf,610367dc3f003f2449a8b220,2021-07-29_22h46.22.676,Simcolourproject_2stim_asymm_v5,2020.2.10,MacIntel,60,61025ae37ef11b136ea224fe,,,,,,,,,2886,-36,87,1,0,0,response7disk,,0,1,-1,1,0,0,rectangle,1,-1,1,0,0,1,-1,1,0,0,0,1,1,89,1,,,,,,,,
,,,,,,,,,,,,,FF,,,,,,,,1.933,,,,,,,,,,,,,,,,,,,,,,60ff0cbf221ffeac86a7efaf,610367dc3f003f2449a8b220,2021-07-29_22h46.22.676,Simcolourproject_2stim_asymm_v5,2020.2.10,MacIntel,60,61025ae37ef11b136ea224fe,,,,,,,,,3283,-84,-32,1,0,0,response5disk,,2,-4,-3,1,0,0,rectangle,-4,-3,1,0,0,-4,-3,1,0,0,0,2,2,75,1,,,,,,,,
,,,,,,,,,,,,,FF,,,,,,,,1.199,,,,,,,,,,,,,,,,,,,,,,60ff0cbf221ffeac86a7efaf,610367dc3f003f2449a8b220,2021-07-29_22h46.22.676,Simcolourproject_2stim_asymm_v5,2020.2.10,MacIntel,60,61025ae37ef11b136ea224fe,,,,,,,,,1399,97,-52,1,0,0,response3disk,,5,-10,-3,1,0,0,rectangle,-10,-3,1,0,0,-10,-3,1,0,0,0,3,3,124,1,,,,,,,,
,,,,,,,,,,,,,FF,,,,,,,,1.701,,,,,,,,,,,,,,,,,,,,,,60ff0cbf221ffeac86a7efaf,610367dc3f003f2449a8b220,2021-07-29_22h46.22.676,Simcolourproject_2stim_asymm_v5,2020.2.10,MacIntel,60,61025ae37ef11b136ea224fe,,,,,,,,,4247,94,53,1,0,0,response1disk,,6,9,-2,1,0,0,rectangle,9,-2,1,0,0,9,-2,1,0,0,0,4,4,117,1,,,,,,,,
,,,,,,,,,,,,,FF,,,,,,,,1.617,,,,,,,,,,,,,,,,,,,,,,60ff0cbf221ffeac86a7efaf,610367dc3f003f2449a8b220,2021-07-29_22h46.22.676,Simcolourproject_2stim_asymm_v5,2020.2.10,MacIntel,60,61025ae37ef11b136ea224fe,,,,,,,,,2273,77,109,1,0,0,response1disk,,7,15,4,1,0,0,rectangle,15,4,1,0,0,15,4,1,0,0,0,5,5,21,1,,,,,,,,
,,,,,,,,,,,,,FF,,,,,,,,1,,,,,,,,,,,,,,,,,,,,,,60ff0cbf221ffeac86a7efaf,610367dc3f003f2449a8b220,2021-07-29_22h46.22.676,Simcolourproject_2stim_asymm_v5,2020.2.10,MacIntel,60,61025ae37ef11b136ea224fe,,,,,,,,,963,34,81,1,0,0,response1disk,,7,9,12,1,0,0,rectangle,9,12,1,0,0,9,12,1,0,0,0,6,6,38,1,,,,,,,,
,,,,,,,,,,,,,FF,,,,,,,,1.333,,,,,,,,,,,,,,,,,,,,,,60ff0cbf221ffeac86a7efaf,610367dc3f003f2449a8b220,2021-07-29_22h46.22.676,Simcolourproject_2stim_asymm_v5,2020.2.10,MacIntel,60,61025ae37ef11b136ea224fe,,,,,,,,,2269,89,-49,1,0,0,response3disk,,5,2,8,1,0,0,rectangle,2,8,1,0,0,2,8,1,0,0,0,7,7,100,1,,,,,,,,
,,,,,,,,,,,,,FF,,,,,,,,2.699,,,,,,,,,,,,,,,,,,,,,,60ff0cbf221ffeac86a7efaf,610367dc3f003f2449a8b220,2021-07-29_22h46.22.676,Simcolourproject_2stim_asymm_v5,2020.2.10,MacIntel,60,61025ae37ef11b136ea224fe,,,,,,,,,2075,86,-39,1,0,0,response3disk,,5,-2,0,1,0,0,rectangle,-2,0,1,0,0,-2,0,1,0,0,0,8,8,18,1,,,,,,,,
,,,,,,,,,,,,,FF,,,,,,,,1.466,,,,,,,,,,,,,,,,,,,,,,60ff0cbf221ffeac86a7efaf,610367dc3f003f2449a8b220,2021-07-29_22h46.22.676,Simcolourproject_2stim_asymm_v5,2020.2.10,MacIntel,60,61025ae37ef11b136ea224fe,,,,,,,,,3288,93,36,1,0,0,response1disk,,6,2,0,1,0,0,rectangle,2,0,1,0,0,2,0,1,0,0,0,9,9,106,1,,,,,,,,
,,,,,,,,,,,,,FF,,,,,,,,1.4,,,,,,,,,,,,,,,,,,,,,,60ff0cbf221ffeac86a7efaf,610367dc3f003f2449a8b220,2021-07-29_22h46.22.676,Simcolourproject_2stim_asymm_v5,2020.2.10,MacIntel,60,61025ae37ef11b136ea224fe,,,,,,,,,3123,90,35,1,0,0,response1disk,,6,17,-4,1,0,0,rectangle,17,-4,1,0,0,17,-4,1,0,0,0,10,10,109,1,,,,,,,,
,,,,,,,,,,,,,FF,,,,,,,,1.9,,,,,,,,,,,,,,,,,,,,,,60ff0cbf221ffeac86a7efaf,610367dc3f003f2449a8b220,2021-07-29_22h46.22.676,Simcolourproject_2stim_asymm_v5,2020.2.10,MacIntel,60,61025ae37ef11b136ea224fe,,,,,,,,,3068,52,-75,1,0,0,response3disk,,4,1,9,1,0,0,rectangle,1,9,1,0,0,1,9,1,0,0,0,11,11,128,1,,,,,,,,
,,,,,,,,,,,,,FF,,,,,,,,1.334,,,,,,,,,,,,,,,,,,,,,,60ff0cbf221ffeac86a7efaf,610367dc3f003f2449a8b220,2021-07-29_22h46.22.676,Simcolourproject_2stim_asymm_v5,2020.2.10,MacIntel,60,61025ae37ef11b136ea224fe,,,,,,,,,835,97,34,1,0,0,response1disk,,6,-2,-4,1,0,0,rectangle,-2,-4,1,0,0,-2,-4,1,0,0,0,12,12,30,1,,,,,,,,
,,,,,,,,,,,,,FF,,,,,,,,1.45,,,,,,,,,,,,,,,,,,,,,,60ff0cbf221ffeac86a7efaf,610367dc3f003f2449a8b220,2021-07-29_22h46.22.676,Simcolourproject_2stim_asymm_v5,2020.2.10,MacIntel,60,61025ae37ef11b136ea224fe,,,,,,,,,3673,-91,30,1,0,0,response7disk,,1,-13,-3,1,0,0,rectangle,-13,-3,1,0,0,-13,-3,1,0,0,0,13,13,88,1,,,,,,,,
,,,,,,,,,,,,,FF,,,,,,,,2.466,,,,,,,,,,,,,,,,,,,,,,60ff0cbf221ffeac86a7efaf,610367dc3f003f2449a8b220,2021-07-29_22h46.22.676,Simcolourproject_2stim_asymm_v5,2020.2.10,MacIntel,60,61025ae37ef11b136ea224fe,,,,,,,,,2016,94,34,1,0,0,response1disk,,6,17,8,1,0,0,rectangle,17,8,1,0,0,17,8,1,0,0,0,14,14,39,1,,,,,,,,
,,,,,,,,,,,,,FF,,,,,,,,1.3,,,,,,,,,,,,,,,,,,,,,,60ff0cbf221ffeac86a7efaf,610367dc3f003f2449a8b220,2021-07-29_22h46.22.676,Simcolourproject_2stim_asymm_v5,2020.2.10,MacIntel,60,61025ae37ef11b136ea224fe,,,,,,,,,50,80,-42,1,0,0,response3disk,,5,8,10,1,0,0,rectangle,8,10,1,0,0,8,10,1,0,0,0,15,15,111,1,,,,,,,,
,,,,,,,,,,,,,FF,,,,,,,,1.783,,,,,,,,,,,,,,,,,,,,,,60ff0cbf221ffeac86a7efaf,610367dc3f003f2449a8b220,2021-07-29_22h46.22.676,Simcolourproject_2stim_asymm_v5,2020.2.10,MacIntel,60,61025ae37ef11b136ea224fe,,,,,,,,,2133,93,16,1,0,0,response1disk,,6,-6,7,1,0,0,rectangle,-6,7,1,0,0,-6,7,1,0,0,0,16,16,68,1,,,,,,,,
,,,,,,,,,,,,,FF,,,,,,,,1.066,,,,,,,,,,,,,,,,,,,,,,60ff0cbf221ffeac86a7efaf,610367dc3f003f2449a8b220,2021-07-29_22h46.22.676,Simcolourproject_2stim_asymm_v5,2020.2.10,MacIntel,60,61025ae37ef11b136ea224fe,,,,,,,,,2119,104,44,1,0,0,response1disk,,6,7,-1,1,0,0,rectangle,7,-1,1,0,0,7,-1,1,0,0,0,17,17,126,1,,,,,,,,
,,,,,,,,,,,,,FF,,,,,,,,0.899,,,,,,,,,,,,,,,,,,,,,,60ff0cbf221ffeac86a7efaf,610367dc3f003f2449a8b220,2021-07-29_22h46.22.676,Simcolourproject_2stim_asymm_v5,2020.2.10,MacIntel,60,61025ae37ef11b136ea224fe,,,,,,,,,914,87,-45,1,0,0,response3disk,,5,-6,-4,1,0,0,rectangle,-6,-4,1,0,0,-6,-4,1,0,0,0,18,18,51,1,,,,,,,,
,,,,,,,,,,,,,FF,,,,,,,,1.533,,,,,,,,,,,,,,,,,,,,,,60ff0cbf221ffeac86a7efaf,610367dc3f003f2449a8b220,2021-07-29_22h46.22.676,Simcolourproject_2stim_asymm_v5,2020.2.10,MacIntel,60,61025ae37ef11b136ea224fe,,,,,,,,,1408,61,-38,1,0,0,response3disk,,5,9,-4,1,0,0,rectangle,9,-4,1,0,0,9,-4,1,0,0,0,19,19,24,1,,,,,,,,
,,,,,,,,,,,,,FF,,,,,,,,2.183,,,,,,,,,,,,,,,,,,,,,,60ff0cbf221ffeac86a7efaf,610367dc3f003f2449a8b220,2021-07-29_22h46.22.676,Simcolourproject_2stim_asymm_v5,2020.2.10,MacIntel,60,61025ae37ef11b136ea224fe,,,,,,,,,3728,32,-75,1,0,0,response3disk,,4,-5,-7,1,0,0,rectangle,-5,-7,1,0,0,-5,-7,1,0,0,0,20,20,80,1,,,,,,,,
,,,,,,,,,,,,,FF,,,,,,,,164.766,,,,,,,,,,,,,,,,,,,,,,60ff0cbf221ffeac86a7efaf,610367dc3f003f2449a8b220,2021-07-29_22h46.22.676,Simcolourproject_2stim_asymm_v5,2020.2.10,MacIntel,60,61025ae37ef11b136ea224fe,,,,,,,,,560,41,-63,1,0,0,response3disk,,4,1,-3,1,0,0,rectangle,1,-3,1,0,0,1,-3,1,0,0,0,21,21,36,1,,,,,,,,
,,,,,,,,,,,,,FF,,,,,,,,1.233,,,,,,,,,,,,,,,,,,,,,,60ff0cbf221ffeac86a7efaf,610367dc3f003f2449a8b220,2021-07-29_22h46.22.676,Simcolourproject_2stim_asymm_v5,2020.2.10,MacIntel,60,61025ae37ef11b136ea224fe,,,,,,,,,2066,111,-53,1,0,0,response3disk,,5,-12,-2,1,0,0,rectangle,-12,-2,1,0,0,-12,-2,1,0,0,0,22,22,98,1,,,,,,,,
,,,,,,,,,,,,,FF,,,,,,,,2.433,,,,,,,,,,,,,,,,,,,,,,60ff0cbf221ffeac86a7efaf,610367dc3f003f2449a8b220,2021-07-29_22h46.22.676,Simcolourproject_2stim_asymm_v5,2020.2.10,MacIntel,60,61025ae37ef11b136ea224fe,,,,,,,,,512,95,-30,1,0,0,response3disk,,5,12,4,1,0,0,rectangle,12,4,1,0,0,12,4,1,0,0,0,23,23,37,1,,,,,,,,
,,,,,,,,,,,,,FF,,,,,,,,1.116,,,,,,,,,,,,,,,,,,,,,,60ff0cbf221ffeac86a7efaf,610367dc3f003f2449a8b220,2021-07-29_22h46.22.676,Simcolourproject_2stim_asymm_v5,2020.2.10,MacIntel,60,61025ae37ef11b136ea224fe,,,,,,,,,2032,-24,-109,1,0,0,response5disk,,3,15,14,1,0,0,rectangle,15,14,1,0,0,15,14,1,0,0,0,24,24,125,1,,,,,,,,
,,,,,,,,,,,,,FF,,,,,,,,3.701,,,,,,,,,,,,,,,,,,,,,,60ff0cbf221ffeac86a7efaf,610367dc3f003f2449a8b220,2021-07-29_22h46.22.676,Simcolourproject_2stim_asymm_v5,2020.2.10,MacIntel,60,61025ae37ef11b136ea224fe,,,,,,,,,3117,56,-88,1,0,0,response3disk,,4,-5,4,1,0,0,rectangle,-5,4,1,0,0,-5,4,1,0,0,0,25,25,83,1,,,,,,,,
,,,,,,,,,,,,,FF,,,,,,,,1.366,,,,,,,,,,,,,,,,,,,,,,60ff0cbf221ffeac86a7efaf,610367dc3f003f2449a8b220,2021-07-29_22h46.22.676,Simcolourproject_2stim_asymm_v5,2020.2.10,MacIntel,60,61025ae37ef11b136ea224fe,,,,,,,,,1699,28,111,1,0,0,response1disk,,7,3,-9,1,0,0,rectangle,3,-9,1,0,0,3,-9,1,0,0,0,26,26,82,1,,,,,,,,
,,,,,,,,,,,,,FF,,,,,,,,1.083,,,,,,,,,,,,,,,,,,,,,,60ff0cbf221ffeac86a7efaf,610367dc3f003f2449a8b220,2021-07-29_22h46.22.676,Simcolourproject_2stim_asymm_v5,2020.2.10,MacIntel,60,61025ae37ef11b136ea224fe,,,,,,,,,1825,-90,-62,1,0,0,response5disk,,2,-6,3,1,0,0,rectangle,-66,97,1,0,0,11,-5,1,0,0,0,27,27,33,1,,response7disk_3,TRUE,0,0,"[310,306,301,40,315,307,161,78,270,42,312,60,206,277,119,28,277,102,167,276]",3.332,rectangle
,,,,,,,,,,,,,FF,,,,,,,,1.483,,,,,,,,,,,,,,,,,,,,,,60ff0cbf221ffeac86a7efaf,610367dc3f003f2449a8b220,2021-07-29_22h46.22.676,Simcolourproject_2stim_asymm_v5,2020.2.10,MacIntel,60,61025ae37ef11b136ea224fe,,,,,,,,,4298,-57,-101,1,0,0,response5disk,,3,2,6,1,0,0,rectangle,2,6,1,0,0,2,6,1,0,0,0,28,28,103,1,,,,,,,,
,,,,,,,,,,,,,FF,,,,,,,,1.183,,,,,,,,,,,,,,,,,,,,,,60ff0cbf221ffeac86a7efaf,610367dc3f003f2449a8b220,2021-07-29_22h46.22.676,Simcolourproject_2stim_asymm_v5,2020.2.10,MacIntel,60,61025ae37ef11b136ea224fe,,,,,,,,,3137,36,90,1,0,0,response1disk,,7,2,6,1,0,0,rectangle,2,6,1,0,0,2,6,1,0,0,0,29,29,95,1,,,,,,,,
,,,,,,,,,,,,,FF,,,,,,,,1.499,,,,,,,,,,,,,,,,,,,,,,60ff0cbf221ffeac86a7efaf,610367dc3f003f2449a8b220,2021-07-29_22h46.22.676,Simcolourproject_2stim_asymm_v5,2020.2.10,MacIntel,60,61025ae37ef11b136ea224fe,,,,,,,,,706,-38,-99,1,0,0,response5disk,,3,-18,9,1,0,0,rectangle,-18,9,1,0,0,-18,9,1,0,0,0,30,30,129,1,,,,,,,,
,,,,,,,,,,,,,FF,,,,,,,,0.916,,,,,,,,,,,,,,,,,,,,,,60ff0cbf221ffeac86a7efaf,610367dc3f003f2449a8b220,2021-07-29_22h46.22.676,Simcolourproject_2stim_asymm_v5,2020.2.10,MacIntel,60,61025ae37ef11b136ea224fe,,,,,,,,,194,-76,-66,1,0,0,response5disk,,2,-3,5,1,0,0,rectangle,-3,5,1,0,0,-3,5,1,0,0,0,31,31,122,1,,,,,,,,
,,,,,,,,,,,,,FF,,,,,,,,5.534,,,,,,,,,,,,,,,,,,,,,,60ff0cbf221ffeac86a7efaf,610367dc3f003f2449a8b220,2021-07-29_22h46.22.676,Simcolourproject_2stim_asymm_v5,2020.2.10,MacIntel,60,61025ae37ef11b136ea224fe,,,,,,,,,1244,92,-36,1,0,0,response3disk,,5,-14,5,1,0,0,rectangle,-14,5,1,0,0,-14,5,1,0,0,0,32,32,20,1,,,,,,,,
,,,,,,,,,,,,,FF,,,,,,,,1.85,,,,,,,,,,,,,,,,,,,,,,60ff0cbf221ffeac86a7efaf,610367dc3f003f2449a8b220,2021-07-29_22h46.22.676,Simcolourproject_2stim_asymm_v5,2020.2.10,MacIntel,60,61025ae37ef11b136ea224fe,,,,,,,,,2816,62,-100,1,0,0,response3disk,,4,2,4,1,0,0,rectangle,2,4,1,0,0,2,4,1,0,0,0,33,33,104,1,,,,,,,,
,,,,,,,,,,,,,FF,,,,,,,,1.2,,,,,,,,,,,,,,,,,,,,,,60ff0cbf221ffeac86a7efaf,610367dc3f003f2449a8b220,2021-07-29_22h46.22.676,Simcolourproject_2stim_asymm_v5,2020.2.10,MacIntel,60,61025ae37ef11b136ea224fe,,,,,,,,,354,-103,41,1,0,0,response7disk,,1,8,-4,1,0,0,rectangle,8,-4,1,0,0,8,-4,1,0,0,0,34,34,17,1,,,,,,,,
,,,,,,,,,,,,,FF,,,,,,,,1.616,,,,,,,,,,,,,,,,,,,,,,60ff0cbf221ffeac86a7efaf,610367dc3f003f2449a8b220,2021-07-29_22h46.22.676,Simcolourproject_2stim_asymm_v5,2020.2.10,MacIntel,60,61025ae37ef11b136ea224fe,,,,,,,,,2879,-40,-75,1,0,0,response5disk,,3,-9,10,1,0,0,rectangle,-9,10,1,0,0,-9,10,1,0,0,0,35,35,10,1,,,,,,,,
,,,,,,,,,,,,,FF,,,,,,,,1.332,,,,,,,,,,,,,,,,,,,,,,60ff0cbf221ffeac86a7efaf,610367dc3f003f2449a8b220,2021-07-29_22h46.22.676,Simcolourproject_2stim_asymm_v5,2020.2.10,MacIntel,60,61025ae37ef11b136ea224fe,,,,,,,,,815,-27,-80,1,0,0,response5disk,,3,-9,13,1,0,0,rectangle,-9,13,1,0,0,-9,13,1,0,0,0,36,36,155,1,,,,,,,,
,,,,,,,,,,,,,FF,,,,,,,,1.249,,,,,,,,,,,,,,,,,,,,,,60ff0cbf221ffeac86a7efaf,610367dc3f003f2449a8b220,2021-07-29_22h46.22.676,Simcolourproject_2stim_asymm_v5,2020.2.10,MacIntel,60,61025ae37ef11b136ea224fe,,,,,,,,,3799,41,-61,1,0,0,response3disk,,4,-2,15,1,0,0,rectangle,-2,15,1,0,0,-2,15,1,0,0,0,37,37,11,1,,,,,,,,
,,,,,,,,,,,,,FF,,,,,,,,1.2,,,,,,,,,,,,,,,,,,,,,,60ff0cbf221ffeac86a7efaf,610367dc3f003f2449a8b220,2021-07-29_22h46.22.676,Simcolourproject_2stim_asymm_v5,2020.2.10,MacIntel,60,61025ae37ef11b136ea224fe,,,,,,,,,3108,-87,-33,1,0,0,response5disk,,2,-6,-2,1,0,0,rectangle,-6,-2,1,0,0,-6,-2,1,0,0,0,38,38,142,1,,,,,,,,
,,,,,,,,,,,,,FF,,,,,,,,1.366,,,,,,,,,,,,,,,,,,,,,,60ff0cbf221ffeac86a7efaf,610367dc3f003f2449a8b220,2021-07-29_22h46.22.676,Simcolourproject_2stim_asymm_v5,2020.2.10,MacIntel,60,61025ae37ef11b136ea224fe,,,,,,,,,3101,-72,-48,1,0,0,response5disk,,2,-10,7,1,0,0,rectangle,-59,-95,1,0,0,4,-3,1,0,0,0,39,39,149,1,,response5disk_3,TRUE,3,3,"[310,306,301,40,315,307,161,78,270,42,312,60,206,277,119,28,277,102,167,276]",2.049,rectangle
,,,,,,,,,,,,,FF,,,,,,,,2.067,,,,,,,,,,,,,,,,,,,,,,60ff0cbf221ffeac86a7efaf,610367dc3f003f2449a8b220,2021-07-29_22h46.22.676,Simcolourproject_2stim_asymm_v5,2020.2.10,MacIntel,60,61025ae37ef11b136ea224fe,,,,,,,,,2858,93,47,1,0,0,response1disk,,6,12,7,1,0,0,rectangle,12,7,1,0,0,12,7,1,0,0,0,40,40,152,1,,,,,,,,
,,,,,,,,,,,,,FF,,,,,,,,1.717,,,,,,,,,,,,,,,,,,,,,,60ff0cbf221ffeac86a7efaf,610367dc3f003f2449a8b220,2021-07-29_22h46.22.676,Simcolourproject_2stim_asymm_v5,2020.2.10,MacIntel,60,61025ae37ef11b136ea224fe,,,,,,,,,3325,84,35,1,0,0,response1disk,,6,3,1,1,0,0,rectangle,-106,44,1,0,0,-12,1,1,0,0,0,41,41,73,1,,response7disk_3,TRUE,1,1,"[310,306,301,40,315,307,161,78,270,42,312,60,206,277,119,28,277,102,167,276]",1.815,rectangle
,,,,,,,,,,,,,FF,,,,,,,,1.049,,,,,,,,,,,,,,,,,,,,,,60ff0cbf221ffeac86a7efaf,610367dc3f003f2449a8b220,2021-07-29_22h46.22.676,Simcolourproject_2stim_asymm_v5,2020.2.10,MacIntel,60,61025ae37ef11b136ea224fe,,,,,,,,,2287,-38,-87,1,0,0,response5disk,,3,3,5,1,0,0,rectangle,3,5,1,0,0,3,5,1,0,0,0,42,42,140,1,,,,,,,,
,,,,,,,,,,,,,FF,,,,,,,,1.367,,,,,,,,,,,,,,,,,,,,,,60ff0cbf221ffeac86a7efaf,610367dc3f003f2449a8b220,2021-07-29_22h46.22.676,Simcolourproject_2stim_asymm_v5,2020.2.10,MacIntel,60,61025ae37ef11b136ea224fe,,,,,,,,,3995,-66,-43,1,0,0,response5disk,,2,-10,-3,1,0,0,rectangle,-10,-3,1,0,0,-10,-3,1,0,0,0,43,43,49,1,,,,,,,,
,,,,,,,,,,,,,FF,,,,,,,,1.116,,,,,,,,,,,,,,,,,,,,,,60ff0cbf221ffeac86a7efaf,610367dc3f003f2449a8b220,2021-07-29_22h46.22.676,Simcolourproject_2stim_asymm_v5,2020.2.10,MacIntel,60,61025ae37ef11b136ea224fe,,,,,,,,,4195,96,55,1,0,0,response1disk,,6,8,6,1,0,0,rectangle,8,6,1,0,0,8,6,1,0,0,0,44,44,57,1,,,,,,,,
,,,,,,,,,,,,,FF,,,,,,,,1.316,,,,,,,,,,,,,,,,,,,,,,60ff0cbf221ffeac86a7efaf,610367dc3f003f2449a8b220,2021-07-29_22h46.22.676,Simcolourproject_2stim_asymm_v5,2020.2.10,MacIntel,60,61025ae37ef11b136ea224fe,,,,,,,,,3874,35,77,1,0,0,response1disk,,7,-1,-8,1,0,0,rectangle,-1,-8,1,0,0,-1,-8,1,0,0,0,45,45,153,1,,,,,,,,
,,,,,,,,,,,,,FF,,,,,,,,0.983,,,,,,,,,,,,,,,,,,,,,,60ff0cbf221ffeac86a7efaf,610367dc3f003f2449a8b220,2021-07-29_22h46.22.676,Simcolourproject_2stim_asymm_v5,2020.2.10,MacIntel,60,61025ae37ef11b136ea224fe,,,,,,,,,1638,94,48,1,0,0,response1disk,,6,13,4,1,0,0,rectangle,13,4,1,0,0,13,4,1,0,0,0,46,46,135,1,,,,,,,,
,,,,,,,,,,,,,FF,,,,,,,,2.6,,,,,,,,,,,,,,,,,,,,,,60ff0cbf221ffeac86a7efaf,610367dc3f003f2449a8b220,2021-07-29_22h46.22.676,Simcolourproject_2stim_asymm_v5,2020.2.10,MacIntel,60,61025ae37ef11b136ea224fe,,,,,,,,,1503,74,-60,1,0,0,response3disk,,5,4,-8,1,0,0,rectangle,4,-8,1,0,0,4,-8,1,0,0,0,47,47,2,1,,,,,,,,
,,,,,,,,,,,,,FF,,,,,,,,1.066,,,,,,,,,,,,,,,,,,,,,,60ff0cbf221ffeac86a7efaf,610367dc3f003f2449a8b220,2021-07-29_22h46.22.676,Simcolourproject_2stim_asymm_v5,2020.2.10,MacIntel,60,61025ae37ef11b136ea224fe,,,,,,,,,3587,48,-86,1,0,0,response3disk,,4,-9,-2,1,0,0,rectangle,-9,-2,1,0,0,-9,-2,1,0,0,0,48,48,52,1,,,,,,,,
,,,,,,,,,,,,,FF,,,,,,,,1.6,,,,,,,,,,,,,,,,,,,,,,60ff0cbf221ffeac86a7efaf,610367dc3f003f2449a8b220,2021-07-29_22h46.22.676,Simcolourproject_2stim_asymm_v5,2020.2.10,MacIntel,60,61025ae37ef11b136ea224fe,,,,,,,,,614,26,-87,1,0,0,response3disk,,4,8,8,1,0,0,rectangle,8,8,1,0,0,8,8,1,0,0,0,49,49,12,1,,,,,,,,
,,,,,,,,,,,,,FF,,,,,,,,1.583,,,,,,,,,,,,,,,,,,,,,,60ff0cbf221ffeac86a7efaf,610367dc3f003f2449a8b220,2021-07-29_22h46.22.676,Simcolourproject_2stim_asymm_v5,2020.2.10,MacIntel,60,61025ae37ef11b136ea224fe,,,,,,,,,2686,88,-44,1,0,0,response3disk,,5,4,0,1,0,0,rectangle,4,0,1,0,0,4,0,1,0,0,0,50,50,131,1,,,,,,,,
,,,,,,,,,,,,,FF,,,,,,,,5.883,,,,,,,,,,,,,,,,,,,,,,60ff0cbf221ffeac86a7efaf,610367dc3f003f2449a8b220,2021-07-29_22h46.22.676,Simcolourproject_2stim_asymm_v5,2020.2.10,MacIntel,60,61025ae37ef11b136ea224fe,,,,,,,,,1662,48,-93,1,0,0,response3disk,,4,-13,9,1,0,0,rectangle,-13,9,1,0,0,-13,9,1,0,0,0,51,51,120,1,,,,,,,,
,,,,,,,,,,,,,FF,,,,,,,,0.949,,,,,,,,,,,,,,,,,,,,,,60ff0cbf221ffeac86a7efaf,610367dc3f003f2449a8b220,2021-07-29_22h46.22.676,Simcolourproject_2stim_asymm_v5,2020.2.10,MacIntel,60,61025ae37ef11b136ea224fe,,,,,,,,,394,71,-34,1,0,0,response3disk,,5,3,-14,1,0,0,rectangle,3,-14,1,0,0,3,-14,1,0,0,0,52,52,72,1,,,,,,,,
,,,,,,,,,,,,,FF,,,,,,,,1.332,,,,,,,,,,,,,,,,,,,,,,60ff0cbf221ffeac86a7efaf,610367dc3f003f2449a8b220,2021-07-29_22h46.22.676,Simcolourproject_2stim_asymm_v5,2020.2.10,MacIntel,60,61025ae37ef11b136ea224fe,,,,,,,,,3783,-96,-47,1,0,0,response5disk,,2,-8,-11,1,0,0,rectangle,-8,-11,1,0,0,-8,-11,1,0,0,0,53,53,134,1,,,,,,,,
,,,,,,,,,,,,,FF,,,,,,,,1.166,,,,,,,,,,,,,,,,,,,,,,60ff0cbf221ffeac86a7efaf,610367dc3f003f2449a8b220,2021-07-29_22h46.22.676,Simcolourproject_2stim_asymm_v5,2020.2.10,MacIntel,60,61025ae37ef11b136ea224fe,,,,,,,,,1798,71,-37,1,0,0,response3disk,,5,10,-1,1,0,0,rectangle,10,-1,1,0,0,10,-1,1,0,0,0,54,54,65,1,,,,,,,,
,,,,,,,,,,,,,FF,,,,,,,,0.882,,,,,,,,,,,,,,,,,,,,,,60ff0cbf221ffeac86a7efaf,610367dc3f003f2449a8b220,2021-07-29_22h46.22.676,Simcolourproject_2stim_asymm_v5,2020.2.10,MacIntel,60,61025ae37ef11b136ea224fe,,,,,,,,,3216,-44,-75,1,0,0,response5disk,,3,-8,1,1,0,0,rectangle,-8,1,1,0,0,-8,1,1,0,0,0,55,55,151,1,,,,,,,,
,,,,,,,,,,,,,FF,,,,,,,,4.466,,,,,,,,,,,,,,,,,,,,,,60ff0cbf221ffeac86a7efaf,610367dc3f003f2449a8b220,2021-07-29_22h46.22.676,Simcolourproject_2stim_asymm_v5,2020.2.10,MacIntel,60,61025ae37ef11b136ea224fe,,,,,,,,,269,96,55,1,0,0,response1disk,,6,16,4,1,0,0,rectangle,16,4,1,0,0,16,4,1,0,0,0,56,56,116,1,,,,,,,,
,,,,,,,,,,,,,FF,,,,,,,,1.083,,,,,,,,,,,,,,,,,,,,,,60ff0cbf221ffeac86a7efaf,610367dc3f003f2449a8b220,2021-07-29_22h46.22.676,Simcolourproject_2stim_asymm_v5,2020.2.10,MacIntel,60,61025ae37ef11b136ea224fe,,,,,,,,,2980,75,49,1,0,0,response1disk,,6,7,-4,1,0,0,rectangle,7,-4,1,0,0,7,-4,1,0,0,0,57,57,62,1,,,,,,,,
,,,,,,,,,,,,,FF,,,,,,,,0.799,,,,,,,,,,,,,,,,,,,,,,60ff0cbf221ffeac86a7efaf,610367dc3f003f2449a8b220,2021-07-29_22h46.22.676,Simcolourproject_2stim_asymm_v5,2020.2.10,MacIntel,60,61025ae37ef11b136ea224fe,,,,,,,,,2964,89,57,1,0,0,response1disk,,6,20,12,1,0,0,rectangle,20,12,1,0,0,20,12,1,0,0,0,58,58,19,1,,,,,,,,
,,,,,,,,,,,,,FF,,,,,,,,0.883,,,,,,,,,,,,,,,,,,,,,,60ff0cbf221ffeac86a7efaf,610367dc3f003f2449a8b220,2021-07-29_22h46.22.676,Simcolourproject_2stim_asymm_v5,2020.2.10,MacIntel,60,61025ae37ef11b136ea224fe,,,,,,,,,3275,59,-32,1,0,0,response3disk,,5,24,2,1,0,0,rectangle,-37,72,1,0,0,-2,-12,1,0,0,0,59,59,50,1,,response7disk_3,TRUE,0,0,"[310,306,301,40,315,307,161,78,270,42,312,60,206,277,119,28,277,102,167,276]",1.282,rectangle
,,,,,,,,,,,,,FF,,,,,,,,1.083,,,,,,,,,,,,,,,,,,,,,,60ff0cbf221ffeac86a7efaf,610367dc3f003f2449a8b220,2021-07-29_22h46.22.676,Simcolourproject_2stim_asymm_v5,2020.2.10,MacIntel,60,61025ae37ef11b136ea224fe,,,,,,,,,305,20,-84,1,0,0,response3disk,,4,1,-6,1,0,0,rectangle,1,-6,1,0,0,1,-6,1,0,0,0,60,60,58,1,,,,,,,,
,,,,,,,,,,,,,FF,,,,,,,,2.4,,,,,,,,,,,,,,,,,,,,,,60ff0cbf221ffeac86a7efaf,610367dc3f003f2449a8b220,2021-07-29_22h46.22.676,Simcolourproject_2stim_asymm_v5,2020.2.10,MacIntel,60,61025ae37ef11b136ea224fe,,,,,,,,,2823,-40,-82,1,0,0,response5disk,,3,-13,-9,1,0,0,rectangle,-13,-9,1,0,0,-13,-9,1,0,0,0,61,61,141,1,,,,,,,,
,,,,,,,,,,,,,FF,,,,,,,,0.95,,,,,,,,,,,,,,,,,,,,,,60ff0cbf221ffeac86a7efaf,610367dc3f003f2449a8b220,2021-07-29_22h46.22.676,Simcolourproject_2stim_asymm_v5,2020.2.10,MacIntel,60,61025ae37ef11b136ea224fe,,,,,,,,,2842,35,-69,1,0,0,response3disk,,4,14,5,1,0,0,rectangle,14,5,1,0,0,14,5,1,0,0,0,62,62,13,1,,,,,,,,
,,,,,,,,,,,,,FF,,,,,,,,2.384,,,,,,,,,,,,,,,,,,,,,,60ff0cbf221ffeac86a7efaf,610367dc3f003f2449a8b220,2021-07-29_22h46.22.676,Simcolourproject_2stim_asymm_v5,2020.2.10,MacIntel,60,61025ae37ef11b136ea224fe,,,,,,,,,1270,93,-28,1,0,0,response3disk,,5,-8,-8,1,0,0,rectangle,-8,-8,1,0,0,-8,-8,1,0,0,0,63,63,8,1,,,,,,,,
,,,,,,,,,,,,,FF,,,,,,,,1.115,,,,,,,,,,,,,,,,,,,,,,60ff0cbf221ffeac86a7efaf,610367dc3f003f2449a8b220,2021-07-29_22h46.22.676,Simcolourproject_2stim_asymm_v5,2020.2.10,MacIntel,60,61025ae37ef11b136ea224fe,,,,,,,,,901,51,-89,1,0,0,response3disk,,4,16,5,1,0,0,rectangle,16,5,1,0,0,16,5,1,0,0,0,64,64,1,1,,,,,,,,
,,,,,,,,,,,,,FF,,,,,,,,1.217,,,,,,,,,,,,,,,,,,,,,,60ff0cbf221ffeac86a7efaf,610367dc3f003f2449a8b220,2021-07-29_22h46.22.676,Simcolourproject_2stim_asymm_v5,2020.2.10,MacIntel,60,61025ae37ef11b136ea224fe,,,,,,,,,2937,54,-76,1,0,0,response3disk,,4,17,-3,1,0,0,rectangle,17,-3,1,0,0,17,-3,1,0,0,0,65,65,94,1,,,,,,,,
,,,,,,,,,,,,,FF,,,,,,,,1.381,,,,,,,,,,,,,,,,,,,,,,60ff0cbf221ffeac86a7efaf,610367dc3f003f2449a8b220,2021-07-29_22h46.22.676,Simcolourproject_2stim_asymm_v5,2020.2.10,MacIntel,60,61025ae37ef11b136ea224fe,,,,,,,,,2432,-51,-111,1,0,0,response5disk,,3,-11,2,1,0,0,rectangle,-11,2,1,0,0,-11,2,1,0,0,0,66,66,79,1,,,,,,,,
,,,,,,,,,,,,,FF,,,,,,,,2.166,,,,,,,,,,,,,,,,,,,,,,60ff0cbf221ffeac86a7efaf,610367dc3f003f2449a8b220,2021-07-29_22h46.22.676,Simcolourproject_2stim_asymm_v5,2020.2.10,MacIntel,60,61025ae37ef11b136ea224fe,,,,,,,,,136,51,-91,1,0,0,response3disk,,4,9,2,1,0,0,rectangle,9,2,1,0,0,9,2,1,0,0,0,67,67,41,1,,,,,,,,
,,,,,,,,,,,,,FF,,,,,,,,0.883,,,,,,,,,,,,,,,,,,,,,,60ff0cbf221ffeac86a7efaf,610367dc3f003f2449a8b220,2021-07-29_22h46.22.676,Simcolourproject_2stim_asymm_v5,2020.2.10,MacIntel,60,61025ae37ef11b136ea224fe,,,,,,,,,4205,-68,-40,1,0,0,response5disk,,2,-14,-1,1,0,0,rectangle,-14,-1,1,0,0,-14,-1,1,0,0,0,68,68,6,1,,,,,,,,
,,,,,,,,,,,,,FF,,,,,,,,2.999,,,,,,,,,,,,,,,,,,,,,,60ff0cbf221ffeac86a7efaf,610367dc3f003f2449a8b220,2021-07-29_22h46.22.676,Simcolourproject_2stim_asymm_v5,2020.2.10,MacIntel,60,61025ae37ef11b136ea224fe,,,,,,,,,572,32,89,1,0,0,response1disk,,7,12,-1,1,0,0,rectangle,12,-1,1,0,0,12,-1,1,0,0,0,69,69,7,1,,,,,,,,
,,,,,,,,,,,,,FF,,,,,,,,1,,,,,,,,,,,,,,,,,,,,,,60ff0cbf221ffeac86a7efaf,610367dc3f003f2449a8b220,2021-07-29_22h46.22.676,Simcolourproject_2stim_asymm_v5,2020.2.10,MacIntel,60,61025ae37ef11b136ea224fe,,,,,,,,,4175,63,113,1,0,0,response1disk,,7,-15,-12,1,0,0,rectangle,-15,-12,1,0,0,-15,-12,1,0,0,0,70,70,138,1,,,,,,,,
,,,,,,,,,,,,,FF,,,,,,,,1.284,,,,,,,,,,,,,,,,,,,,,,60ff0cbf221ffeac86a7efaf,610367dc3f003f2449a8b220,2021-07-29_22h46.22.676,Simcolourproject_2stim_asymm_v5,2020.2.10,MacIntel,60,61025ae37ef11b136ea224fe,,,,,,,,,4021,-104,-54,1,0,0,response5disk,,2,9,5,1,0,0,rectangle,9,5,1,0,0,9,5,1,0,0,0,71,71,77,1,,,,,,,,
,,,,,,,,,,,,,FF,,,,,,,,1.183,,,,,,,,,,,,,,,,,,,,,,60ff0cbf221ffeac86a7efaf,610367dc3f003f2449a8b220,2021-07-29_22h46.22.676,Simcolourproject_2stim_asymm_v5,2020.2.10,MacIntel,60,61025ae37ef11b136ea224fe,,,,,,,,,2236,-60,-95,1,0,0,response5disk,,3,6,2,1,0,0,rectangle,6,2,1,0,0,6,2,1,0,0,0,72,72,92,1,,,,,,,,
,,,,,,,,,,,,,FF,,,,,,,,0.883,,,,,,,,,,,,,,,,,,,,,,60ff0cbf221ffeac86a7efaf,610367dc3f003f2449a8b220,2021-07-29_22h46.22.676,Simcolourproject_2stim_asymm_v5,2020.2.10,MacIntel,60,61025ae37ef11b136ea224fe,,,,,,,,,2923,22,-80,1,0,0,response3disk,,4,-3,-4,1,0,0,rectangle,-3,-4,1,0,0,-3,-4,1,0,0,0,73,73,31,1,,,,,,,,
,,,,,,,,,,,,,FF,,,,,,,,1.651,,,,,,,,,,,,,,,,,,,,,,60ff0cbf221ffeac86a7efaf,610367dc3f003f2449a8b220,2021-07-29_22h46.22.676,Simcolourproject_2stim_asymm_v5,2020.2.10,MacIntel,60,61025ae37ef11b136ea224fe,,,,,,,,,2672,-47,-102,1,0,0,response5disk,,3,3,14,1,0,0,rectangle,3,14,1,0,0,3,14,1,0,0,0,74,74,81,1,,,,,,,,
,,,,,,,,,,,,,FF,,,,,,,,1.249,,,,,,,,,,,,,,,,,,,,,,60ff0cbf221ffeac86a7efaf,610367dc3f003f2449a8b220,2021-07-29_22h46.22.676,Simcolourproject_2stim_asymm_v5,2020.2.10,MacIntel,60,61025ae37ef11b136ea224fe,,,,,,,,,3352,52,-32,1,0,0,response3disk,,5,9,-9,1,0,0,rectangle,9,-9,1,0,0,9,-9,1,0,0,0,75,75,157,1,,,,,,,,
,,,,,,,,,,,,,FF,,,,,,,,1.716,,,,,,,,,,,,,,,,,,,,,,60ff0cbf221ffeac86a7efaf,610367dc3f003f2449a8b220,2021-07-29_22h46.22.676,Simcolourproject_2stim_asymm_v5,2020.2.10,MacIntel,60,61025ae37ef11b136ea224fe,,,,,,,,,1655,30,-73,1,0,0,response3disk,,4,6,4,1,0,0,rectangle,6,4,1,0,0,6,4,1,0,0,0,76,76,74,1,,,,,,,,
,,,,,,,,,,,,,FF,,,,,,,,1.133,,,,,,,,,,,,,,,,,,,,,,60ff0cbf221ffeac86a7efaf,610367dc3f003f2449a8b220,2021-07-29_22h46.22.676,Simcolourproject_2stim_asymm_v5,2020.2.10,MacIntel,60,61025ae37ef11b136ea224fe,,,,,,,,,1785,-45,-83,1,0,0,response5disk,,3,-15,4,1,0,0,rectangle,-94,53,1,0,0,-19,12,1,0,0,0,77,77,47,1,,response7disk_3,TRUE,1,1,"[310,306,301,40,315,307,161,78,270,42,312,60,206,277,119,28,277,102,167,276]",1.116,rectangle
,,,,,,,,,,,,,FF,,,,,,,,0.849,,,,,,,,,,,,,,,,,,,,,,60ff0cbf221ffeac86a7efaf,610367dc3f003f2449a8b220,2021-07-29_22h46.22.676,Simcolourproject_2stim_asymm_v5,2020.2.10,MacIntel,60,61025ae37ef11b136ea224fe,,,,,,,,,2769,-33,-55,1,0,0,response5disk,,3,-3,4,1,0,0,rectangle,-3,4,1,0,0,-3,4,1,0,0,0,78,78,119,1,,,,,,,,
,,,,,,,,,,,,,FF,,,,,,,,0.915,,,,,,,,,,,,,,,,,,,,,,60ff0cbf221ffeac86a7efaf,610367dc3f003f2449a8b220,2021-07-29_22h46.22.676,Simcolourproject_2stim_asymm_v5,2020.2.10,MacIntel,60,61025ae37ef11b136ea224fe,,,,,,,,,4168,-76,-36,1,0,0,response5disk,,2,-24,-6,1,0,0,rectangle,-24,-6,1,0,0,-24,-6,1,0,0,0,79,79,28,1,,,,,,,,
,,,,,,,,,,,,,FF,,,,,,,,1.401,,,,,,,,,,,,,,,,,,,,,,60ff0cbf221ffeac86a7efaf,610367dc3f003f2449a8b220,2021-07-29_22h46.22.676,Simcolourproject_2stim_asymm_v5,2020.2.10,MacIntel,60,61025ae37ef11b136ea224fe,,,,,,,,,2727,-82,-43,1,0,0,response5disk,,2,-8,1,1,0,0,rectangle,-8,1,1,0,0,-8,1,1,0,0,0,80,80,112,1,,,,,,,,
,,,,,,,,,,,,,FF,,,,,,,,1.383,,,,,,,,,,,,,,,,,,,,,,60ff0cbf221ffeac86a7efaf,610367dc3f003f2449a8b220,2021-07-29_22h46.22.676,Simcolourproject_2stim_asymm_v5,2020.2.10,MacIntel,60,61025ae37ef11b136ea224fe,,,,,,,,,575,73,-45,1,0,0,response3disk,,5,5,4,1,0,0,rectangle,5,4,1,0,0,5,4,1,0,0,0,81,81,40,1,,,,,,,,
,,,,,,,,,,,,,FF,,,,,,,,1.333,,,,,,,,,,,,,,,,,,,,,,60ff0cbf221ffeac86a7efaf,610367dc3f003f2449a8b220,2021-07-29_22h46.22.676,Simcolourproject_2stim_asymm_v5,2020.2.10,MacIntel,60,61025ae37ef11b136ea224fe,,,,,,,,,4282,-93,-22,1,0,0,response5disk,,2,0,9,1,0,0,rectangle,0,9,1,0,0,0,9,1,0,0,0,82,82,123,1,,,,,,,,
,,,,,,,,,,,,,FF,,,,,,,,1.2,,,,,,,,,,,,,,,,,,,,,,60ff0cbf221ffeac86a7efaf,610367dc3f003f2449a8b220,2021-07-29_22h46.22.676,Simcolourproject_2stim_asymm_v5,2020.2.10,MacIntel,60,61025ae37ef11b136ea224fe,,,,,,,,,3503,41,-70,1,0,0,response3disk,,4,15,14,1,0,0,rectangle,15,14,1,0,0,15,14,1,0,0,0,83,83,9,1,,,,,,,,
,,,,,,,,,,,,,FF,,,,,,,,1.717,,,,,,,,,,,,,,,,,,,,,,60ff0cbf221ffeac86a7efaf,610367dc3f003f2449a8b220,2021-07-29_22h46.22.676,Simcolourproject_2stim_asymm_v5,2020.2.10,MacIntel,60,61025ae37ef11b136ea224fe,,,,,,,,,1680,-34,-86,1,0,0,response5disk,,3,7,2,1,0,0,rectangle,7,2,1,0,0,7,2,1,0,0,0,84,84,34,1,,,,,,,,
,,,,,,,,,,,,,FF,,,,,,,,1.583,,,,,,,,,,,,,,,,,,,,,,60ff0cbf221ffeac86a7efaf,610367dc3f003f2449a8b220,2021-07-29_22h46.22.676,Simcolourproject_2stim_asymm_v5,2020.2.10,MacIntel,60,61025ae37ef11b136ea224fe,,,,,,,,,4202,35,-84,1,0,0,response3disk,,4,14,-13,1,0,0,rectangle,14,-13,1,0,0,14,-13,1,0,0,0,85,85,42,1,,,,,,,,
,,,,,,,,,,,,,FF,,,,,,,,2.465,,,,,,,,,,,,,,,,,,,,,,60ff0cbf221ffeac86a7efaf,610367dc3f003f2449a8b220,2021-07-29_22h46.22.676,Simcolourproject_2stim_asymm_v5,2020.2.10,MacIntel,60,61025ae37ef11b136ea224fe,,,,,,,,,1287,70,-42,1,0,0,response3disk,,5,19,9,1,0,0,rectangle,19,9,1,0,0,19,9,1,0,0,0,86,86,67,1,,,,,,,,
,,,,,,,,,,,,,FF,,,,,,,,0.983,,,,,,,,,,,,,,,,,,,,,,60ff0cbf221ffeac86a7efaf,610367dc3f003f2449a8b220,2021-07-29_22h46.22.676,Simcolourproject_2stim_asymm_v5,2020.2.10,MacIntel,60,61025ae37ef11b136ea224fe,,,,,,,,,1529,53,-69,1,0,0,response3disk,,4,16,11,1,0,0,rectangle,16,11,1,0,0,16,11,1,0,0,0,87,87,87,1,,,,,,,,
,,,,,,,,,,,,,FF,,,,,,,,2.283,,,,,,,,,,,,,,,,,,,,,,60ff0cbf221ffeac86a7efaf,610367dc3f003f2449a8b220,2021-07-29_22h46.22.676,Simcolourproject_2stim_asymm_v5,2020.2.10,MacIntel,60,61025ae37ef11b136ea224fe,,,,,,,,,3374,42,-86,1,0,0,response3disk,,4,-5,6,1,0,0,rectangle,-5,6,1,0,0,-5,6,1,0,0,0,88,88,15,1,,,,,,,,
,,,,,,,,,,,,,FF,,,,,,,,1.617,,,,,,,,,,,,,,,,,,,,,,60ff0cbf221ffeac86a7efaf,610367dc3f003f2449a8b220,2021-07-29_22h46.22.676,Simcolourproject_2stim_asymm_v5,2020.2.10,MacIntel,60,61025ae37ef11b136ea224fe,,,,,,,,,3347,82,-32,1,0,0,response3disk,,5,9,-5,1,0,0,rectangle,9,-5,1,0,0,9,-5,1,0,0,0,89,89,84,1,,,,,,,,
,,,,,,,,,,,,,FF,,,,,,,,0.867,,,,,,,,,,,,,,,,,,,,,,60ff0cbf221ffeac86a7efaf,610367dc3f003f2449a8b220,2021-07-29_22h46.22.676,Simcolourproject_2stim_asymm_v5,2020.2.10,MacIntel,60,61025ae37ef11b136ea224fe,,,,,,,,,3970,-44,-91,1,0,0,response5disk,,3,-1,3,1,0,0,rectangle,-1,3,1,0,0,-1,3,1,0,0,0,90,90,137,1,,,,,,,,
,,,,,,,,,,,,,FF,,,,,,,,1.283,,,,,,,,,,,,,,,,,,,,,,60ff0cbf221ffeac86a7efaf,610367dc3f003f2449a8b220,2021-07-29_22h46.22.676,Simcolourproject_2stim_asymm_v5,2020.2.10,MacIntel,60,61025ae37ef11b136ea224fe,,,,,,,,,404,85,56,1,0,0,response1disk,,6,-9,-17,1,0,0,rectangle,-9,-17,1,0,0,-9,-17,1,0,0,0,91,91,5,1,,,,,,,,
,,,,,,,,,,,,,FF,,,,,,,,1.416,,,,,,,,,,,,,,,,,,,,,,60ff0cbf221ffeac86a7efaf,610367dc3f003f2449a8b220,2021-07-29_22h46.22.676,Simcolourproject_2stim_asymm_v5,2020.2.10,MacIntel,60,61025ae37ef11b136ea224fe,,,,,,,,,446,32,82,1,0,0,response1disk,,7,13,15,1,0,0,rectangle,13,15,1,0,0,13,15,1,0,0,0,92,92,69,1,,,,,,,,
,,,,,,,,,,,,,FF,,,,,,,,1.915,,,,,,,,,,,,,,,,,,,,,,60ff0cbf221ffeac86a7efaf,610367dc3f003f2449a8b220,2021-07-29_22h46.22.676,Simcolourproject_2stim_asymm_v5,2020.2.10,MacIntel,60,61025ae37ef11b136ea224fe,,,,,,,,,31,82,-68,1,0,0,response3disk,,5,17,-4,1,0,0,rectangle,17,-4,1,0,0,17,-4,1,0,0,0,93,93,44,1,,,,,,,,
,,,,,,,,,,,,,FF,,,,,,,,1.032,,,,,,,,,,,,,,,,,,,,,,60ff0cbf221ffeac86a7efaf,610367dc3f003f2449a8b220,2021-07-29_22h46.22.676,Simcolourproject_2stim_asymm_v5,2020.2.10,MacIntel,60,61025ae37ef11b136ea224fe,,,,,,,,,2046,50,-80,1,0,0,response3disk,,4,6,2,1,0,0,rectangle,6,2,1,0,0,6,2,1,0,0,0,94,94,22,1,,,,,,,,
,,,,,,,,,,,,,FF,,,,,,,,8.316,,,,,,,,,,,,,,,,,,,,,,60ff0cbf221ffeac86a7efaf,610367dc3f003f2449a8b220,2021-07-29_22h46.22.676,Simcolourproject_2stim_asymm_v5,2020.2.10,MacIntel,60,61025ae37ef11b136ea224fe,,,,,,,,,3318,90,38,1,0,0,response1disk,,6,-2,-1,1,0,0,rectangle,-2,-1,1,0,0,-2,-1,1,0,0,0,95,95,132,1,,,,,,,,
,,,,,,,,,,,,,FF,,,,,,,,1.583,,,,,,,,,,,,,,,,,,,,,,60ff0cbf221ffeac86a7efaf,610367dc3f003f2449a8b220,2021-07-29_22h46.22.676,Simcolourproject_2stim_asymm_v5,2020.2.10,MacIntel,60,61025ae37ef11b136ea224fe,,,,,,,,,1900,-33,-99,1,0,0,response5disk,,3,10,4,1,0,0,rectangle,10,4,1,0,0,10,4,1,0,0,0,96,96,121,1,,,,,,,,
,,,,,,,,,,,,,FF,,,,,,,,1.483,,,,,,,,,,,,,,,,,,,,,,60ff0cbf221ffeac86a7efaf,610367dc3f003f2449a8b220,2021-07-29_22h46.22.676,Simcolourproject_2stim_asymm_v5,2020.2.10,MacIntel,60,61025ae37ef11b136ea224fe,,,,,,,,,3083,34,76,1,0,0,response1disk,,7,3,5,1,0,0,rectangle,3,5,1,0,0,3,5,1,0,0,0,97,97,66,1,,,,,,,,
,,,,,,,,,,,,,FF,,,,,,,,1.333,,,,,,,,,,,,,,,,,,,,,,60ff0cbf221ffeac86a7efaf,610367dc3f003f2449a8b220,2021-07-29_22h46.22.676,Simcolourproject_2stim_asymm_v5,2020.2.10,MacIntel,60,61025ae37ef11b136ea224fe,,,,,,,,,3446,-40,-62,1,0,0,response5disk,,3,2,1,1,0,0,rectangle,2,1,1,0,0,2,1,1,0,0,0,98,98,86,1,,,,,,,,
,,,,,,,,,,,,,FF,,,,,,,,2.648,,,,,,,,,,,,,,,,,,,,,,60ff0cbf221ffeac86a7efaf,610367dc3f003f2449a8b220,2021-07-29_22h46.22.676,Simcolourproject_2stim_asymm_v5,2020.2.10,MacIntel,60,61025ae37ef11b136ea224fe,,,,,,,,,3250,-20,-85,1,0,0,response5disk,,3,-1,15,1,0,0,rectangle,-1,15,1,0,0,-1,15,1,0,0,0,99,99,143,1,,,,,,,,
,,,,,,,,,,,,,FF,,,,,,,,1.365,,,,,,,,,,,,,,,,,,,,,,60ff0cbf221ffeac86a7efaf,610367dc3f003f2449a8b220,2021-07-29_22h46.22.676,Simcolourproject_2stim_asymm_v5,2020.2.10,MacIntel,60,61025ae37ef11b136ea224fe,,,,,,,,,1659,38,-85,1,0,0,response3disk,,4,15,-3,1,0,0,rectangle,15,-3,1,0,0,15,-3,1,0,0,0,100,100,136,1,,,,,,,,
,,,,,,,,,,,,,FF,,,,,,,,0.9,,,,,,,,,,,,,,,,,,,,,,60ff0cbf221ffeac86a7efaf,610367dc3f003f2449a8b220,2021-07-29_22h46.22.676,Simcolourproject_2stim_asymm_v5,2020.2.10,MacIntel,60,61025ae37ef11b136ea224fe,,,,,,,,,3962,90,51,1,0,0,response1disk,,6,20,9,1,0,0,rectangle,91,34,1,0,0,24,3,1,0,0,0,101,101,3,1,,response1disk_3,TRUE,6,6,"[310,306,301,40,315,307,161,78,270,42,312,60,206,277,119,28,277,102,167,276]",1.449,rectangle
,,,,,,,,,,,,,FF,,,,,,,,1.182,,,,,,,,,,,,,,,,,,,,,,60ff0cbf221ffeac86a7efaf,610367dc3f003f2449a8b220,2021-07-29_22h46.22.676,Simcolourproject_2stim_asymm_v5,2020.2.10,MacIntel,60,61025ae37ef11b136ea224fe,,,,,,,,,4072,71,-48,1,0,0,response3disk,,5,20,1,1,0,0,rectangle,20,1,1,0,0,20,1,1,0,0,0,102,102,148,1,,,,,,,,
,,,,,,,,,,,,,FF,,,,,,,,1.899,,,,,,,,,,,,,,,,,,,,,,60ff0cbf221ffeac86a7efaf,610367dc3f003f2449a8b220,2021-07-29_22h46.22.676,Simcolourproject_2stim_asymm_v5,2020.2.10,MacIntel,60,61025ae37ef11b136ea224fe,,,,,,,,,2533,48,-75,1,0,0,response3disk,,4,31,-11,1,0,0,rectangle,31,-11,1,0,0,31,-11,1,0,0,0,103,103,14,1,,,,,,,,
,,,,,,,,,,,,,FF,,,,,,,,1.066,,,,,,,,,,,,,,,,,,,,,,60ff0cbf221ffeac86a7efaf,610367dc3f003f2449a8b220,2021-07-29_22h46.22.676,Simcolourproject_2stim_asymm_v5,2020.2.10,MacIntel,60,61025ae37ef11b136ea224fe,,,,,,,,,1896,-37,-72,1,0,0,response5disk,,3,-4,6,1,0,0,rectangle,-4,6,1,0,0,-4,6,1,0,0,0,104,104,158,1,,,,,,,,
,,,,,,,,,,,,,FF,,,,,,,,1.266,,,,,,,,,,,,,,,,,,,,,,60ff0cbf221ffeac86a7efaf,610367dc3f003f2449a8b220,2021-07-29_22h46.22.676,Simcolourproject_2stim_asymm_v5,2020.2.10,MacIntel,60,61025ae37ef11b136ea224fe,,,,,,,,,1530,-44,-64,1,0,0,response5disk,,3,-12,14,1,0,0,rectangle,-12,14,1,0,0,-12,14,1,0,0,0,105,105,105,1,,,,,,,,
,,,,,,,,,,,,,FF,,,,,,,,1.383,,,,,,,,,,,,,,,,,,,,,,60ff0cbf221ffeac86a7efaf,610367dc3f003f2449a8b220,2021-07-29_22h46.22.676,Simcolourproject_2stim_asymm_v5,2020.2.10,MacIntel,60,61025ae37ef11b136ea224fe,,,,,,,,,176,54,80,1,0,0,response1disk,,7,17,15,1,0,0,rectangle,17,15,1,0,0,17,15,1,0,0,0,106,106,78,1,,,,,,,,
,,,,,,,,,,,,,FF,,,,,,,,1.865,,,,,,,,,,,,,,,,,,,,,,60ff0cbf221ffeac86a7efaf,610367dc3f003f2449a8b220,2021-07-29_22h46.22.676,Simcolourproject_2stim_asymm_v5,2020.2.10,MacIntel,60,61025ae37ef11b136ea224fe,,,,,,,,,2898,36,-116,1,0,0,response3disk,,4,18,0,1,0,0,rectangle,18,0,1,0,0,18,0,1,0,0,0,107,107,27,1,,,,,,,,
,,,,,,,,,,,,,FF,,,,,,,,0.917,,,,,,,,,,,,,,,,,,,,,,60ff0cbf221ffeac86a7efaf,610367dc3f003f2449a8b220,2021-07-29_22h46.22.676,Simcolourproject_2stim_asymm_v5,2020.2.10,MacIntel,60,61025ae37ef11b136ea224fe,,,,,,,,,3542,45,77,1,0,0,response1disk,,7,11,6,1,0,0,rectangle,11,6,1,0,0,11,6,1,0,0,0,108,108,156,1,,,,,,,,
,,,,,,,,,,,,,FF,,,,,,,,1.133,,,,,,,,,,,,,,,,,,,,,,60ff0cbf221ffeac86a7efaf,610367dc3f003f2449a8b220,2021-07-29_22h46.22.676,Simcolourproject_2stim_asymm_v5,2020.2.10,MacIntel,60,61025ae37ef11b136ea224fe,,,,,,,,,425,54,-43,1,0,0,response3disk,,5,22,-1,1,0,0,rectangle,22,-1,1,0,0,22,-1,1,0,0,0,109,109,127,1,,,,,,,,
,,,,,,,,,,,,,FF,,,,,,,,1.049,,,,,,,,,,,,,,,,,,,,,,60ff0cbf221ffeac86a7efaf,610367dc3f003f2449a8b220,2021-07-29_22h46.22.676,Simcolourproject_2stim_asymm_v5,2020.2.10,MacIntel,60,61025ae37ef11b136ea224fe,,,,,,,,,1746,-37,-66,1,0,0,response5disk,,3,-19,0,1,0,0,rectangle,-19,0,1,0,0,-19,0,1,0,0,0,110,110,90,1,,,,,,,,
,,,,,,,,,,,,,FF,,,,,,,,0.783,,,,,,,,,,,,,,,,,,,,,,60ff0cbf221ffeac86a7efaf,610367dc3f003f2449a8b220,2021-07-29_22h46.22.676,Simcolourproject_2stim_asymm_v5,2020.2.10,MacIntel,60,61025ae37ef11b136ea224fe,,,,,,,,,3979,-58,-28,1,0,0,response5disk,,2,-25,-7,1,0,0,rectangle,-25,-7,1,0,0,-25,-7,1,0,0,0,111,111,26,1,,,,,,,,
,,,,,,,,,,,,,FF,,,,,,,,1,,,,,,,,,,,,,,,,,,,,,,60ff0cbf221ffeac86a7efaf,610367dc3f003f2449a8b220,2021-07-29_22h46.22.676,Simcolourproject_2stim_asymm_v5,2020.2.10,MacIntel,60,61025ae37ef11b136ea224fe,,,,,,,,,2303,25,-101,1,0,0,response3disk,,4,17,-8,1,0,0,rectangle,17,-8,1,0,0,17,-8,1,0,0,0,112,112,115,1,,,,,,,,
,,,,,,,,,,,,,FF,,,,,,,,1.399,,,,,,,,,,,,,,,,,,,,,,60ff0cbf221ffeac86a7efaf,610367dc3f003f2449a8b220,2021-07-29_22h46.22.676,Simcolourproject_2stim_asymm_v5,2020.2.10,MacIntel,60,61025ae37ef11b136ea224fe,,,,,,,,,3802,48,-80,1,0,0,response3disk,,4,18,-1,1,0,0,rectangle,18,-1,1,0,0,18,-1,1,0,0,0,113,113,159,1,,,,,,,,
,,,,,,,,,,,,,FF,,,,,,,,0.833,,,,,,,,,,,,,,,,,,,,,,60ff0cbf221ffeac86a7efaf,610367dc3f003f2449a8b220,2021-07-29_22h46.22.676,Simcolourproject_2stim_asymm_v5,2020.2.10,MacIntel,60,61025ae37ef11b136ea224fe,,,,,,,,,5,-60,-40,1,0,0,response5disk,,2,-19,-13,1,0,0,rectangle,-19,-13,1,0,0,-19,-13,1,0,0,0,114,114,59,1,,,,,,,,
,,,,,,,,,,,,,FF,,,,,,,,1.182,,,,,,,,,,,,,,,,,,,,,,60ff0cbf221ffeac86a7efaf,610367dc3f003f2449a8b220,2021-07-29_22h46.22.676,Simcolourproject_2stim_asymm_v5,2020.2.10,MacIntel,60,61025ae37ef11b136ea224fe,,,,,,,,,2335,99,38,1,0,0,response1disk,,6,4,-2,1,0,0,rectangle,4,-2,1,0,0,4,-2,1,0,0,0,115,115,107,1,,,,,,,,
,,,,,,,,,,,,,FF,,,,,,,,1.232,,,,,,,,,,,,,,,,,,,,,,60ff0cbf221ffeac86a7efaf,610367dc3f003f2449a8b220,2021-07-29_22h46.22.676,Simcolourproject_2stim_asymm_v5,2020.2.10,MacIntel,60,61025ae37ef11b136ea224fe,,,,,,,,,879,34,74,1,0,0,response1disk,,7,0,6,1,0,0,rectangle,0,6,1,0,0,0,6,1,0,0,0,116,116,133,1,,,,,,,,
,,,,,,,,,,,,,FF,,,,,,,,0.95,,,,,,,,,,,,,,,,,,,,,,60ff0cbf221ffeac86a7efaf,610367dc3f003f2449a8b220,2021-07-29_22h46.22.676,Simcolourproject_2stim_asymm_v5,2020.2.10,MacIntel,60,61025ae37ef11b136ea224fe,,,,,,,,,2519,39,74,1,0,0,response1disk,,7,-9,10,1,0,0,rectangle,-9,10,1,0,0,-9,10,1,0,0,0,117,117,4,1,,,,,,,,
,,,,,,,,,,,,,FF,,,,,,,,0.965,,,,,,,,,,,,,,,,,,,,,,60ff0cbf221ffeac86a7efaf,610367dc3f003f2449a8b220,2021-07-29_22h46.22.676,Simcolourproject_2stim_asymm_v5,2020.2.10,MacIntel,60,61025ae37ef11b136ea224fe,,,,,,,,,167,-86,-42,1,0,0,response5disk,,2,-28,-9,1,0,0,rectangle,62,-49,1,0,0,0,9,1,0,0,0,118,118,29,1,,response3disk_3,TRUE,5,5,"[310,306,301,40,315,307,161,78,270,42,312,60,206,277,119,28,277,102,167,276]",1.299,rectangle
,,,,,,,,,,,,,FF,,,,,,,,1.001,,,,,,,,,,,,,,,,,,,,,,60ff0cbf221ffeac86a7efaf,610367dc3f003f2449a8b220,2021-07-29_22h46.22.676,Simcolourproject_2stim_asymm_v5,2020.2.10,MacIntel,60,61025ae37ef11b136ea224fe,,,,,,,,,2085,-45,-68,1,0,0,response5disk,,3,-4,0,1,0,0,rectangle,-4,0,1,0,0,-4,0,1,0,0,0,119,119,48,1,,,,,,,,
,,,,,,,,,,,,,FF,,,,,,,,1.066,,,,,,,,,,,,,,,,,,,,,,60ff0cbf221ffeac86a7efaf,610367dc3f003f2449a8b220,2021-07-29_22h46.22.676,Simcolourproject_2stim_asymm_v5,2020.2.10,MacIntel,60,61025ae37ef11b136ea224fe,,,,,,,,,897,95,-30,1,0,0,response3disk,,5,21,-4,1,0,0,rectangle,21,-4,1,0,0,21,-4,1,0,0,0,120,120,147,1,,,,,,,,
,,,,,,,,,,,,,FF,,,,,,,,0.85,,,,,,,,,,,,,,,,,,,,,,60ff0cbf221ffeac86a7efaf,610367dc3f003f2449a8b220,2021-07-29_22h46.22.676,Simcolourproject_2stim_asymm_v5,2020.2.10,MacIntel,60,61025ae37ef11b136ea224fe,,,,,,,,,2728,-62,-37,1,0,0,response5disk,,2,-9,-11,1,0,0,rectangle,-9,-11,1,0,0,-9,-11,1,0,0,0,121,121,97,1,,,,,,,,
,,,,,,,,,,,,,FF,,,,,,,,0.817,,,,,,,,,,,,,,,,,,,,,,60ff0cbf221ffeac86a7efaf,610367dc3f003f2449a8b220,2021-07-29_22h46.22.676,Simcolourproject_2stim_asymm_v5,2020.2.10,MacIntel,60,61025ae37ef11b136ea224fe,,,,,,,,,707,65,102,1,0,0,response1disk,,7,0,-2,1,0,0,rectangle,0,-2,1,0,0,0,-2,1,0,0,0,122,122,146,1,,,,,,,,
,,,,,,,,,,,,,FF,,,,,,,,0.984,,,,,,,,,,,,,,,,,,,,,,60ff0cbf221ffeac86a7efaf,610367dc3f003f2449a8b220,2021-07-29_22h46.22.676,Simcolourproject_2stim_asymm_v5,2020.2.10,MacIntel,60,61025ae37ef11b136ea224fe,,,,,,,,,1187,31,-60,1,0,0,response3disk,,4,16,1,1,0,0,rectangle,16,1,1,0,0,16,1,1,0,0,0,123,123,32,1,,,,,,,,
,,,,,,,,,,,,,FF,,,,,,,,6.317,,,,,,,,,,,,,,,,,,,,,,60ff0cbf221ffeac86a7efaf,610367dc3f003f2449a8b220,2021-07-29_22h46.22.676,Simcolourproject_2stim_asymm_v5,2020.2.10,MacIntel,60,61025ae37ef11b136ea224fe,,,,,,,,,3038,78,-37,1,0,0,response3disk,,5,-15,4,1,0,0,rectangle,-15,4,1,0,0,-15,4,1,0,0,0,124,124,114,1,,,,,,,,
,,,,,,,,,,,,,FF,,,,,,,,1.266,,,,,,,,,,,,,,,,,,,,,,60ff0cbf221ffeac86a7efaf,610367dc3f003f2449a8b220,2021-07-29_22h46.22.676,Simcolourproject_2stim_asymm_v5,2020.2.10,MacIntel,60,61025ae37ef11b136ea224fe,,,,,,,,,313,83,-38,1,0,0,response3disk,,5,-5,17,1,0,0,rectangle,-5,17,1,0,0,-5,17,1,0,0,0,125,125,64,1,,,,,,,,
,,,,,,,,,,,,,FF,,,,,,,,0.782,,,,,,,,,,,,,,,,,,,,,,60ff0cbf221ffeac86a7efaf,610367dc3f003f2449a8b220,2021-07-29_22h46.22.676,Simcolourproject_2stim_asymm_v5,2020.2.10,MacIntel,60,61025ae37ef11b136ea224fe,,,,,,,,,1636,75,95,1,0,0,response1disk,,7,8,-7,1,0,0,rectangle,8,-7,1,0,0,8,-7,1,0,0,0,126,126,101,1,,,,,,,,
,,,,,,,,,,,,,FF,,,,,,,,0.667,,,,,,,,,,,,,,,,,,,,,,60ff0cbf221ffeac86a7efaf,610367dc3f003f2449a8b220,2021-07-29_22h46.22.676,Simcolourproject_2stim_asymm_v5,2020.2.10,MacIntel,60,61025ae37ef11b136ea224fe,,,,,,,,,56,-64,-58,1,0,0,response5disk,,2,-23,-2,1,0,0,rectangle,-23,-2,1,0,0,-23,-2,1,0,0,0,127,127,91,1,,,,,,,,
,,,,,,,,,,,,,FF,,,,,,,,2.016,,,,,,,,,,,,,,,,,,,,,,60ff0cbf221ffeac86a7efaf,610367dc3f003f2449a8b220,2021-07-29_22h46.22.676,Simcolourproject_2stim_asymm_v5,2020.2.10,MacIntel,60,61025ae37ef11b136ea224fe,,,,,,,,,1049,89,59,1,0,0,response1disk,,6,25,4,1,0,0,rectangle,25,4,1,0,0,25,4,1,0,0,0,128,128,144,1,,,,,,,,
,,,,,,,,,,,,,FF,,,,,,,,1.85,,,,,,,,,,,,,,,,,,,,,,60ff0cbf221ffeac86a7efaf,610367dc3f003f2449a8b220,2021-07-29_22h46.22.676,Simcolourproject_2stim_asymm_v5,2020.2.10,MacIntel,60,61025ae37ef11b136ea224fe,,,,,,,,,1352,26,-108,1,0,0,response3disk,,4,-2,9,1,0,0,rectangle,-2,9,1,0,0,-2,9,1,0,0,0,129,129,55,1,,,,,,,,
,,,,,,,,,,,,,FF,,,,,,,,1.45,,,,,,,,,,,,,,,,,,,,,,60ff0cbf221ffeac86a7efaf,610367dc3f003f2449a8b220,2021-07-29_22h46.22.676,Simcolourproject_2stim_asymm_v5,2020.2.10,MacIntel,60,61025ae37ef11b136ea224fe,,,,,,,,,3105,-82,30,1,0,0,response7disk,,1,-9,-4,1,0,0,rectangle,-9,-4,1,0,0,-9,-4,1,0,0,0,130,130,61,1,,,,,,,,
,,,,,,,,,,,,,FF,,,,,,,,1.031,,,,,,,,,,,,,,,,,,,,,,60ff0cbf221ffeac86a7efaf,610367dc3f003f2449a8b220,2021-07-29_22h46.22.676,Simcolourproject_2stim_asymm_v5,2020.2.10,MacIntel,60,61025ae37ef11b136ea224fe,,,,,,,,,3580,72,30,1,0,0,response1disk,,6,-12,3,1,0,0,rectangle,-12,3,1,0,0,-12,3,1,0,0,0,131,131,113,1,,,,,,,,
,,,,,,,,,,,,,FF,,,,,,,,0.732,,,,,,,,,,,,,,,,,,,,,,60ff0cbf221ffeac86a7efaf,610367dc3f003f2449a8b220,2021-07-29_22h46.22.676,Simcolourproject_2stim_asymm_v5,2020.2.10,MacIntel,60,61025ae37ef11b136ea224fe,,,,,,,,,1209,29,95,1,0,0,response1disk,,7,13,3,1,0,0,rectangle,13,3,1,0,0,13,3,1,0,0,0,132,132,102,1,,,,,,,,
,,,,,,,,,,,,,FF,,,,,,,,1.716,,,,,,,,,,,,,,,,,,,,,,60ff0cbf221ffeac86a7efaf,610367dc3f003f2449a8b220,2021-07-29_22h46.22.676,Simcolourproject_2stim_asymm_v5,2020.2.10,MacIntel,60,61025ae37ef11b136ea224fe,,,,,,,,,184,-46,-92,1,0,0,response5disk,,3,-10,-3,1,0,0,rectangle,-10,-3,1,0,0,-10,-3,1,0,0,0,133,133,145,1,,,,,,,,
,,,,,,,,,,,,,FF,,,,,,,,1.467,,,,,,,,,,,,,,,,,,,,,,60ff0cbf221ffeac86a7efaf,610367dc3f003f2449a8b220,2021-07-29_22h46.22.676,Simcolourproject_2stim_asymm_v5,2020.2.10,MacIntel,60,61025ae37ef11b136ea224fe,,,,,,,,,3357,65,-40,1,0,0,response3disk,,5,-7,-5,1,0,0,rectangle,-7,-5,1,0,0,-7,-5,1,0,0,0,134,134,93,1,,,,,,,,
,,,,,,,,,,,,,FF,,,,,,,,1.367,,,,,,,,,,,,,,,,,,,,,,60ff0cbf221ffeac86a7efaf,610367dc3f003f2449a8b220,2021-07-29_22h46.22.676,Simcolourproject_2stim_asymm_v5,2020.2.10,MacIntel,60,61025ae37ef11b136ea224fe,,,,,,,,,329,72,42,1,0,0,response1disk,,6,-5,-3,1,0,0,rectangle,-5,-3,1,0,0,-5,-3,1,0,0,0,135,135,43,1,,,,,,,,
,,,,,,,,,,,,,FF,,,,,,,,0.866,,,,,,,,,,,,,,,,,,,,,,60ff0cbf221ffeac86a7efaf,610367dc3f003f2449a8b220,2021-07-29_22h46.22.676,Simcolourproject_2stim_asymm_v5,2020.2.10,MacIntel,60,61025ae37ef11b136ea224fe,,,,,,,,,1567,50,-100,1,0,0,response3disk,,4,0,-3,1,0,0,rectangle,0,-3,1,0,0,0,-3,1,0,0,0,136,136,110,1,,,,,,,,
,,,,,,,,,,,,,FF,,,,,,,,1.265,,,,,,,,,,,,,,,,,,,,,,60ff0cbf221ffeac86a7efaf,610367dc3f003f2449a8b220,2021-07-29_22h46.22.676,Simcolourproject_2stim_asymm_v5,2020.2.10,MacIntel,60,61025ae37ef11b136ea224fe,,,,,,,,,15,44,-81,1,0,0,response3disk,,4,13,-3,1,0,0,rectangle,13,-3,1,0,0,13,-3,1,0,0,0,137,137,76,1,,,,,,,,
,,,,,,,,,,,,,FF,,,,,,,,1.083,,,,,,,,,,,,,,,,,,,,,,60ff0cbf221ffeac86a7efaf,610367dc3f003f2449a8b220,2021-07-29_22h46.22.676,Simcolourproject_2stim_asymm_v5,2020.2.10,MacIntel,60,61025ae37ef11b136ea224fe,,,,,,,,,3138,-36,-76,1,0,0,response5disk,,3,-21,9,1,0,0,rectangle,-21,9,1,0,0,-21,9,1,0,0,0,138,138,45,1,,,,,,,,
,,,,,,,,,,,,,FF,,,,,,,,1.567,,,,,,,,,,,,,,,,,,,,,,60ff0cbf221ffeac86a7efaf,610367dc3f003f2449a8b220,2021-07-29_22h46.22.676,Simcolourproject_2stim_asymm_v5,2020.2.10,MacIntel,60,61025ae37ef11b136ea224fe,,,,,,,,,866,59,-35,1,0,0,response3disk,,5,7,8,1,0,0,rectangle,7,8,1,0,0,7,8,1,0,0,0,139,139,25,1,,,,,,,,
,,,,,,,,,,,,,FF,,,,,,,,0.767,,,,,,,,,,,,,,,,,,,,,,60ff0cbf221ffeac86a7efaf,610367dc3f003f2449a8b220,2021-07-29_22h46.22.676,Simcolourproject_2stim_asymm_v5,2020.2.10,MacIntel,60,61025ae37ef11b136ea224fe,,,,,,,,,1315,41,-89,1,0,0,response3disk,,4,-11,-1,1,0,0,rectangle,-11,-1,1,0,0,-11,-1,1,0,0,0,140,140,54,1,,,,,,,,
,,,,,,,,,,,,,FF,,,,,,,,1.016,,,,,,,,,,,,,,,,,,,,,,60ff0cbf221ffeac86a7efaf,610367dc3f003f2449a8b220,2021-07-29_22h46.22.676,Simcolourproject_2stim_asymm_v5,2020.2.10,MacIntel,60,61025ae37ef11b136ea224fe,,,,,,,,,1092,92,34,1,0,0,response1disk,,6,3,-8,1,0,0,rectangle,3,-8,1,0,0,3,-8,1,0,0,0,141,141,118,1,,,,,,,,
,,,,,,,,,,,,,FF,,,,,,,,2.65,,,,,,,,,,,,,,,,,,,,,,60ff0cbf221ffeac86a7efaf,610367dc3f003f2449a8b220,2021-07-29_22h46.22.676,Simcolourproject_2stim_asymm_v5,2020.2.10,MacIntel,60,61025ae37ef11b136ea224fe,,,,,,,,,4329,-45,-79,1,0,0,response5disk,,3,12,17,1,0,0,rectangle,12,17,1,0,0,12,17,1,0,0,0,142,142,108,1,,,,,,,,
,,,,,,,,,,,,,FF,,,,,,,,1.465,,,,,,,,,,,,,,,,,,,,,,60ff0cbf221ffeac86a7efaf,610367dc3f003f2449a8b220,2021-07-29_22h46.22.676,Simcolourproject_2stim_asymm_v5,2020.2.10,MacIntel,60,61025ae37ef11b136ea224fe,,,,,,,,,4130,83,-37,1,0,0,response3disk,,5,12,-3,1,0,0,rectangle,12,-3,1,0,0,12,-3,1,0,0,0,143,143,60,1,,,,,,,,
,,,,,,,,,,,,,FF,,,,,,,,1.133,,,,,,,,,,,,,,,,,,,,,,60ff0cbf221ffeac86a7efaf,610367dc3f003f2449a8b220,2021-07-29_22h46.22.676,Simcolourproject_2stim_asymm_v5,2020.2.10,MacIntel,60,61025ae37ef11b136ea224fe,,,,,,,,,449,-39,-83,1,0,0,response5disk,,3,-13,-7,1,0,0,rectangle,-13,-7,1,0,0,-13,-7,1,0,0,0,144,144,85,1,,,,,,,,
,,,,,,,,,,,,,FF,,,,,,,,1.332,,,,,,,,,,,,,,,,,,,,,,60ff0cbf221ffeac86a7efaf,610367dc3f003f2449a8b220,2021-07-29_22h46.22.676,Simcolourproject_2stim_asymm_v5,2020.2.10,MacIntel,60,61025ae37ef11b136ea224fe,,,,,,,,,2749,29,-79,1,0,0,response3disk,,4,6,2,1,0,0,rectangle,6,2,1,0,0,6,2,1,0,0,0,145,145,63,1,,,,,,,,
,,,,,,,,,,,,,FF,,,,,,,,1.266,,,,,,,,,,,,,,,,,,,,,,60ff0cbf221ffeac86a7efaf,610367dc3f003f2449a8b220,2021-07-29_22h46.22.676,Simcolourproject_2stim_asymm_v5,2020.2.10,MacIntel,60,61025ae37ef11b136ea224fe,,,,,,,,,1025,69,-34,1,0,0,response3disk,,5,12,-13,1,0,0,rectangle,12,-13,1,0,0,12,-13,1,0,0,0,146,146,154,1,,,,,,,,
,,,,,,,,,,,,,FF,,,,,,,,0.966,,,,,,,,,,,,,,,,,,,,,,60ff0cbf221ffeac86a7efaf,610367dc3f003f2449a8b220,2021-07-29_22h46.22.676,Simcolourproject_2stim_asymm_v5,2020.2.10,MacIntel,60,61025ae37ef11b136ea224fe,,,,,,,,,1548,83,47,1,0,0,response1disk,,6,2,3,1,0,0,rectangle,2,3,1,0,0,2,3,1,0,0,0,147,147,96,1,,,,,,,,
,,,,,,,,,,,,,FF,,,,,,,,1.083,,,,,,,,,,,,,,,,,,,,,,60ff0cbf221ffeac86a7efaf,610367dc3f003f2449a8b220,2021-07-29_22h46.22.676,Simcolourproject_2stim_asymm_v5,2020.2.10,MacIntel,60,61025ae37ef11b136ea224fe,,,,,,,,,109,88,41,1,0,0,response1disk,,6,-7,0,1,0,0,rectangle,-7,0,1,0,0,-7,0,1,0,0,0,148,148,139,1,,,,,,,,
,,,,,,,,,,,,,FF,,,,,,,,0.932,,,,,,,,,,,,,,,,,,,,,,60ff0cbf221ffeac86a7efaf,610367dc3f003f2449a8b220,2021-07-29_22h46.22.676,Simcolourproject_2stim_asymm_v5,2020.2.10,MacIntel,60,61025ae37ef11b136ea224fe,,,,,,,,,3095,-58,-82,1,0,0,response5disk,,3,-21,7,1,0,0,rectangle,-21,7,1,0,0,-21,7,1,0,0,0,149,149,99,1,,,,,,,,
,,,,,,,,,,,,,FF,,,,,,,,1.85,,,,,,,,,,,,,,,,,,,,,,60ff0cbf221ffeac86a7efaf,610367dc3f003f2449a8b220,2021-07-29_22h46.22.676,Simcolourproject_2stim_asymm_v5,2020.2.10,MacIntel,60,61025ae37ef11b136ea224fe,,,,,,,,,4172,90,29,1,0,0,response1disk,,6,5,13,1,0,0,rectangle,5,13,1,0,0,5,13,1,0,0,0,150,150,16,1,,,,,,,,
,,,,,,,,,,,,,FF,,,,,,,,0.867,,,,,,,,,,,,,,,,,,,,,,60ff0cbf221ffeac86a7efaf,610367dc3f003f2449a8b220,2021-07-29_22h46.22.676,Simcolourproject_2stim_asymm_v5,2020.2.10,MacIntel,60,61025ae37ef11b136ea224fe,,,,,,,,,3052,-77,-30,1,0,0,response5disk,,2,5,10,1,0,0,rectangle,5,10,1,0,0,5,10,1,0,0,0,151,151,46,1,,,,,,,,
,,,,,,,,,,,,,FF,,,,,,,,1.467,,,,,,,,,,,,,,,,,,,,,,60ff0cbf221ffeac86a7efaf,610367dc3f003f2449a8b220,2021-07-29_22h46.22.676,Simcolourproject_2stim_asymm_v5,2020.2.10,MacIntel,60,61025ae37ef11b136ea224fe,,,,,,,,,4077,-64,-37,1,0,0,response5disk,,2,-9,-3,1,0,0,rectangle,-9,-3,1,0,0,-9,-3,1,0,0,0,152,152,71,1,,,,,,,,
,,,,,,,,,,,,,FF,,,,,,,,1.483,,,,,,,,,,,,,,,,,,,,,,60ff0cbf221ffeac86a7efaf,610367dc3f003f2449a8b220,2021-07-29_22h46.22.676,Simcolourproject_2stim_asymm_v5,2020.2.10,MacIntel,60,61025ae37ef11b136ea224fe,,,,,,,,,3772,-34,-49,1,0,0,response5disk,,3,-22,-13,1,0,0,rectangle,-22,-13,1,0,0,-22,-13,1,0,0,0,153,153,0,1,,,,,,,,
,,,,,,,,,,,,,FF,,,,,,,,1.382,,,,,,,,,,,,,,,,,,,,,,60ff0cbf221ffeac86a7efaf,610367dc3f003f2449a8b220,2021-07-29_22h46.22.676,Simcolourproject_2stim_asymm_v5,2020.2.10,MacIntel,60,61025ae37ef11b136ea224fe,,,,,,,,,1739,40,85,1,0,0,response1disk,,7,8,11,1,0,0,rectangle,8,11,1,0,0,8,11,1,0,0,0,154,154,56,1,,,,,,,,
,,,,,,,,,,,,,FF,,,,,,,,1.766,,,,,,,,,,,,,,,,,,,,,,60ff0cbf221ffeac86a7efaf,610367dc3f003f2449a8b220,2021-07-29_22h46.22.676,Simcolourproject_2stim_asymm_v5,2020.2.10,MacIntel,60,61025ae37ef11b136ea224fe,,,,,,,,,1027,89,-64,1,0,0,response3disk,,5,13,-3,1,0,0,rectangle,13,-3,1,0,0,13,-3,1,0,0,0,155,155,150,1,,,,,,,,
,,,,,,,,,,,,,FF,,,,,,,,1.582,,,,,,,,,,,,,,,,,,,,,,60ff0cbf221ffeac86a7efaf,610367dc3f003f2449a8b220,2021-07-29_22h46.22.676,Simcolourproject_2stim_asymm_v5,2020.2.10,MacIntel,60,61025ae37ef11b136ea224fe,,,,,,,,,36,-44,-74,1,0,0,response5disk,,3,-20,0,1,0,0,rectangle,-20,0,1,0,0,-20,0,1,0,0,0,156,156,23,1,,,,,,,,
,,,,,,,,,,,,,FF,,,,,,,,1.249,,,,,,,,,,,,,,,,,,,,,,60ff0cbf221ffeac86a7efaf,610367dc3f003f2449a8b220,2021-07-29_22h46.22.676,Simcolourproject_2stim_asymm_v5,2020.2.10,MacIntel,60,61025ae37ef11b136ea224fe,,,,,,,,,2901,-45,-72,1,0,0,response5disk,,3,-31,6,1,0,0,rectangle,-31,6,1,0,0,-31,6,1,0,0,0,157,157,70,1,,,,,,,,
,,,,,,,,,,,,,FF,,,,,,,,2.832,,,,,,,,,,,,,,,,,,,,,,60ff0cbf221ffeac86a7efaf,610367dc3f003f2449a8b220,2021-07-29_22h46.22.676,Simcolourproject_2stim_asymm_v5,2020.2.10,MacIntel,60,61025ae37ef11b136ea224fe,,,,,,,,,687,48,-73,1,0,0,response3disk,,4,0,1,1,0,0,rectangle,0,1,1,0,0,0,1,1,0,0,0,158,158,53,1,,,,,,,,
,,,,,,,,,,,,,FF,,,,,,,,3.616,,,,,,,,,,,,,,,,,,,,,,60ff0cbf221ffeac86a7efaf,610367dc3f003f2449a8b220,2021-07-29_22h46.22.676,Simcolourproject_2stim_asymm_v5,2020.2.10,MacIntel,60,61025ae37ef11b136ea224fe,,,,,,,,,1856,101,-22,1,0,0,response3disk,,5,16,-3,1,0,0,rectangle,16,-3,1,0,0,16,-3,1,0,0,0,159,159,130,1,,,,,,,,
,,,,,,,,,,,,,FF,,,,,,,,4.25,,,,,,,,,,,,,,,,,,,,,,60ff0cbf221ffeac86a7efaf,610367dc3f003f2449a8b220,2021-07-29_22h46.22.676,Simcolourproject_2stim_asymm_v5,2020.2.10,MacIntel,60,61025ae37ef11b136ea224fe,,,,,,,,,731,53,-73,1,0,0,response3disk,,4,-8,3,1,0,0,rectangle,-55,-85,1,0,0,9,11,1,0,0,1,0,160,55,1,,response5disk_3,TRUE,3,3,"[310,306,301,40,315,307,161,78,270,42,312,60,206,277,119,28,277,102,167,276]",2.467,rectangle
,,,,,,,,,,,,,FF,,,,,,,,1.068,,,,,,,,,,,,,,,,,,,,,,60ff0cbf221ffeac86a7efaf,610367dc3f003f2449a8b220,2021-07-29_22h46.22.676,Simcolourproject_2stim_asymm_v5,2020.2.10,MacIntel,60,61025ae37ef11b136ea224fe,,,,,,,,,2886,-49,88,1,0,0,response7disk,,0,-8,15,1,0,0,rectangle,-8,15,1,0,0,-8,15,1,0,0,1,1,161,6,1,,,,,,,,
,,,,,,,,,,,,,FF,,,,,,,,1.548,,,,,,,,,,,,,,,,,,,,,,60ff0cbf221ffeac86a7efaf,610367dc3f003f2449a8b220,2021-07-29_22h46.22.676,Simcolourproject_2stim_asymm_v5,2020.2.10,MacIntel,60,61025ae37ef11b136ea224fe,,,,,,,,,3283,-93,30,1,0,0,response7disk,,1,-10,-1,1,0,0,rectangle,-10,-1,1,0,0,-10,-1,1,0,0,1,2,162,84,1,,,,,,,,
,,,,,,,,,,,,,FF,,,,,,,,20.617,,,,,,,,,,,,,,,,,,,,,,60ff0cbf221ffeac86a7efaf,610367dc3f003f2449a8b220,2021-07-29_22h46.22.676,Simcolourproject_2stim_asymm_v5,2020.2.10,MacIntel,60,61025ae37ef11b136ea224fe,,,,,,,,,1399,83,-67,1,0,0,response3disk,,5,-9,5,1,0,0,rectangle,-9,5,1,0,0,-9,5,1,0,0,1,3,163,109,1,,,,,,,,
,,,,,,,,,,,,,FF,,,,,,,,1.065,,,,,,,,,,,,,,,,,,,,,,60ff0cbf221ffeac86a7efaf,610367dc3f003f2449a8b220,2021-07-29_22h46.22.676,Simcolourproject_2stim_asymm_v5,2020.2.10,MacIntel,60,61025ae37ef11b136ea224fe,,,,,,,,,4247,51,-80,1,0,0,response3disk,,4,21,-14,1,0,0,rectangle,21,-14,1,0,0,21,-14,1,0,0,1,4,164,25,1,,,,,,,,
,,,,,,,,,,,,,FF,,,,,,,,1.1,,,,,,,,,,,,,,,,,,,,,,60ff0cbf221ffeac86a7efaf,610367dc3f003f2449a8b220,2021-07-29_22h46.22.676,Simcolourproject_2stim_asymm_v5,2020.2.10,MacIntel,60,61025ae37ef11b136ea224fe,,,,,,,,,2273,101,67,1,0,0,response1disk,,6,1,0,1,0,0,rectangle,1,0,1,0,0,1,0,1,0,0,1,5,165,41,1,,,,,,,,
,,,,,,,,,,,,,FF,,,,,,,,0.9,,,,,,,,,,,,,,,,,,,,,,60ff0cbf221ffeac86a7efaf,610367dc3f003f2449a8b220,2021-07-29_22h46.22.676,Simcolourproject_2stim_asymm_v5,2020.2.10,MacIntel,60,61025ae37ef11b136ea224fe,,,,,,,,,963,48,79,1,0,0,response1disk,,7,3,2,1,0,0,rectangle,-51,-84,1,0,0,14,-1,1,0,0,1,6,166,112,1,,response5disk_3,TRUE,3,3,"[310,306,301,40,315,307,161,78,270,42,312,60,206,277,119,28,277,102,167,276]",2.532,rectangle
,,,,,,,,,,,,,FF,,,,,,,,1.383,,,,,,,,,,,,,,,,,,,,,,60ff0cbf221ffeac86a7efaf,610367dc3f003f2449a8b220,2021-07-29_22h46.22.676,Simcolourproject_2stim_asymm_v5,2020.2.10,MacIntel,60,61025ae37ef11b136ea224fe,,,,,,,,,2269,36,-47,1,0,0,response3disk,,4,17,-14,1,0,0,rectangle,17,-14,1,0,0,17,-14,1,0,0,1,7,167,57,1,,,,,,,,
,,,,,,,,,,,,,FF,,,,,,,,1.016,,,,,,,,,,,,,,,,,,,,,,60ff0cbf221ffeac86a7efaf,610367dc3f003f2449a8b220,2021-07-29_22h46.22.676,Simcolourproject_2stim_asymm_v5,2020.2.10,MacIntel,60,61025ae37ef11b136ea224fe,,,,,,,,,2075,28,-42,1,0,0,response3disk,,4,19,1,1,0,0,rectangle,19,1,1,0,0,19,1,1,0,0,1,8,168,107,1,,,,,,,,
,,,,,,,,,,,,,FF,,,,,,,,1.682,,,,,,,,,,,,,,,,,,,,,,60ff0cbf221ffeac86a7efaf,610367dc3f003f2449a8b220,2021-07-29_22h46.22.676,Simcolourproject_2stim_asymm_v5,2020.2.10,MacIntel,60,61025ae37ef11b136ea224fe,,,,,,,,,3288,106,24,1,0,0,response1disk,,6,18,-7,1,0,0,rectangle,18,-7,1,0,0,18,-7,1,0,0,1,9,169,156,1,,,,,,,,
,,,,,,,,,,,,,FF,,,,,,,,0.982,,,,,,,,,,,,,,,,,,,,,,60ff0cbf221ffeac86a7efaf,610367dc3f003f2449a8b220,2021-07-29_22h46.22.676,Simcolourproject_2stim_asymm_v5,2020.2.10,MacIntel,60,61025ae37ef11b136ea224fe,,,,,,,,,3123,89,-32,1,0,0,response3disk,,5,16,4,1,0,0,rectangle,16,4,1,0,0,16,4,1,0,0,1,10,170,1,1,,,,,,,,
,,,,,,,,,,,,,FF,,,,,,,,1.798,,,,,,,,,,,,,,,,,,,,,,60ff0cbf221ffeac86a7efaf,610367dc3f003f2449a8b220,2021-07-29_22h46.22.676,Simcolourproject_2stim_asymm_v5,2020.2.10,MacIntel,60,61025ae37ef11b136ea224fe,,,,,,,,,3068,120,-34,1,0,0,response3disk,,5,1,-2,1,0,0,rectangle,1,-2,1,0,0,1,-2,1,0,0,1,11,171,143,1,,,,,,,,
,,,,,,,,,,,,,FF,,,,,,,,3.716,,,,,,,,,,,,,,,,,,,,,,60ff0cbf221ffeac86a7efaf,610367dc3f003f2449a8b220,2021-07-29_22h46.22.676,Simcolourproject_2stim_asymm_v5,2020.2.10,MacIntel,60,61025ae37ef11b136ea224fe,,,,,,,,,835,76,39,1,0,0,response1disk,,6,7,-7,1,0,0,rectangle,7,-7,1,0,0,7,-7,1,0,0,1,12,172,141,1,,,,,,,,
,,,,,,,,,,,,,FF,,,,,,,,0.9,,,,,,,,,,,,,,,,,,,,,,60ff0cbf221ffeac86a7efaf,610367dc3f003f2449a8b220,2021-07-29_22h46.22.676,Simcolourproject_2stim_asymm_v5,2020.2.10,MacIntel,60,61025ae37ef11b136ea224fe,,,,,,,,,3673,-63,-36,1,0,0,response5disk,,2,13,14,1,0,0,rectangle,13,14,1,0,0,13,14,1,0,0,1,13,173,58,1,,,,,,,,
,,,,,,,,,,,,,FF,,,,,,,,3.95,,,,,,,,,,,,,,,,,,,,,,60ff0cbf221ffeac86a7efaf,610367dc3f003f2449a8b220,2021-07-29_22h46.22.676,Simcolourproject_2stim_asymm_v5,2020.2.10,MacIntel,60,61025ae37ef11b136ea224fe,,,,,,,,,2016,93,-17,1,0,0,response3disk,,5,5,4,1,0,0,rectangle,5,4,1,0,0,5,4,1,0,0,1,14,174,37,1,,,,,,,,
,,,,,,,,,,,,,FF,,,,,,,,1.048,,,,,,,,,,,,,,,,,,,,,,60ff0cbf221ffeac86a7efaf,610367dc3f003f2449a8b220,2021-07-29_22h46.22.676,Simcolourproject_2stim_asymm_v5,2020.2.10,MacIntel,60,61025ae37ef11b136ea224fe,,,,,,,,,50,-78,-32,1,0,0,response5disk,,2,-26,-9,1,0,0,rectangle,-26,-9,1,0,0,-26,-9,1,0,0,1,15,175,134,1,,,,,,,,
,,,,,,,,,,,,,FF,,,,,,,,1.299,,,,,,,,,,,,,,,,,,,,,,60ff0cbf221ffeac86a7efaf,610367dc3f003f2449a8b220,2021-07-29_22h46.22.676,Simcolourproject_2stim_asymm_v5,2020.2.10,MacIntel,60,61025ae37ef11b136ea224fe,,,,,,,,,2133,97,59,1,0,0,response1disk,,6,16,2,1,0,0,rectangle,16,2,1,0,0,16,2,1,0,0,1,16,176,145,1,,,,,,,,
,,,,,,,,,,,,,FF,,,,,,,,0.917,,,,,,,,,,,,,,,,,,,,,,60ff0cbf221ffeac86a7efaf,610367dc3f003f2449a8b220,2021-07-29_22h46.22.676,Simcolourproject_2stim_asymm_v5,2020.2.10,MacIntel,60,61025ae37ef11b136ea224fe,,,,,,,,,2119,31,100,1,0,0,response1disk,,7,20,-5,1,0,0,rectangle,20,-5,1,0,0,20,-5,1,0,0,1,17,177,77,1,,,,,,,,
,,,,,,,,,,,,,FF,,,,,,,,1.017,,,,,,,,,,,,,,,,,,,,,,60ff0cbf221ffeac86a7efaf,610367dc3f003f2449a8b220,2021-07-29_22h46.22.676,Simcolourproject_2stim_asymm_v5,2020.2.10,MacIntel,60,61025ae37ef11b136ea224fe,,,,,,,,,914,33,-55,1,0,0,response3disk,,4,25,12,1,0,0,rectangle,25,12,1,0,0,25,12,1,0,0,1,18,178,149,1,,,,,,,,
,,,,,,,,,,,,,FF,,,,,,,,2.698,,,,,,,,,,,,,,,,,,,,,,60ff0cbf221ffeac86a7efaf,610367dc3f003f2449a8b220,2021-07-29_22h46.22.676,Simcolourproject_2stim_asymm_v5,2020.2.10,MacIntel,60,61025ae37ef11b136ea224fe,,,,,,,,,1408,30,-61,1,0,0,response3disk,,4,20,4,1,0,0,rectangle,20,4,1,0,0,20,4,1,0,0,1,19,179,121,1,,,,,,,,
,,,,,,,,,,,,,FF,,,,,,,,1.232,,,,,,,,,,,,,,,,,,,,,,60ff0cbf221ffeac86a7efaf,610367dc3f003f2449a8b220,2021-07-29_22h46.22.676,Simcolourproject_2stim_asymm_v5,2020.2.10,MacIntel,60,61025ae37ef11b136ea224fe,,,,,,,,,3728,39,93,1,0,0,response1disk,,7,15,3,1,0,0,rectangle,15,3,1,0,0,15,3,1,0,0,1,20,180,67,1,,,,,,,,
,,,,,,,,,,,,,FF,,,,,,,,1.333,,,,,,,,,,,,,,,,,,,,,,60ff0cbf221ffeac86a7efaf,610367dc3f003f2449a8b220,2021-07-29_22h46.22.676,Simcolourproject_2stim_asymm_v5,2020.2.10,MacIntel,60,61025ae37ef11b136ea224fe,,,,,,,,,560,89,45,1,0,0,response1disk,,6,13,-3,1,0,0,rectangle,13,-3,1,0,0,13,-3,1,0,0,1,21,181,65,1,,,,,,,,
,,,,,,,,,,,,,FF,,,,,,,,2.298,,,,,,,,,,,,,,,,,,,,,,60ff0cbf221ffeac86a7efaf,610367dc3f003f2449a8b220,2021-07-29_22h46.22.676,Simcolourproject_2stim_asymm_v5,2020.2.10,MacIntel,60,61025ae37ef11b136ea224fe,,,,,,,,,2066,66,45,1,0,0,response1disk,,6,14,14,1,0,0,rectangle,14,14,1,0,0,14,14,1,0,0,1,22,182,64,1,,,,,,,,
,,,,,,,,,,,,,FF,,,,,,,,2.198,,,,,,,,,,,,,,,,,,,,,,60ff0cbf221ffeac86a7efaf,610367dc3f003f2449a8b220,2021-07-29_22h46.22.676,Simcolourproject_2stim_asymm_v5,2020.2.10,MacIntel,60,61025ae37ef11b136ea224fe,,,,,,,,,512,48,-69,1,0,0,response3disk,,4,30,2,1,0,0,rectangle,30,2,1,0,0,30,2,1,0,0,1,23,183,103,1,,,,,,,,
,,,,,,,,,,,,,FF,,,,,,,,1.167,,,,,,,,,,,,,,,,,,,,,,60ff0cbf221ffeac86a7efaf,610367dc3f003f2449a8b220,2021-07-29_22h46.22.676,Simcolourproject_2stim_asymm_v5,2020.2.10,MacIntel,60,61025ae37ef11b136ea224fe,,,,,,,,,2032,-32,-90,1,0,0,response5disk,,3,-21,-3,1,0,0,rectangle,-21,-3,1,0,0,-21,-3,1,0,0,1,24,184,22,1,,,,,,,,
,,,,,,,,,,,,,FF,,,,,,,,2.4,,,,,,,,,,,,,,,,,,,,,,60ff0cbf221ffeac86a7efaf,610367dc3f003f2449a8b220,2021-07-29_22h46.22.676,Simcolourproject_2stim_asymm_v5,2020.2.10,MacIntel,60,61025ae37ef11b136ea224fe,,,,,,,,,3117,50,-63,1,0,0,response3disk,,4,22,-5,1,0,0,rectangle,22,-5,1,0,0,22,-5,1,0,0,1,25,185,97,1,,,,,,,,
,,,,,,,,,,,,,FF,,,,,,,,1.033,,,,,,,,,,,,,,,,,,,,,,60ff0cbf221ffeac86a7efaf,610367dc3f003f2449a8b220,2021-07-29_22h46.22.676,Simcolourproject_2stim_asymm_v5,2020.2.10,MacIntel,60,61025ae37ef11b136ea224fe,,,,,,,,,1699,40,99,1,0,0,response1disk,,7,15,7,1,0,0,rectangle,15,7,1,0,0,15,7,1,0,0,1,26,186,53,1,,,,,,,,
,,,,,,,,,,,,,FF,,,,,,,,2.066,,,,,,,,,,,,,,,,,,,,,,60ff0cbf221ffeac86a7efaf,610367dc3f003f2449a8b220,2021-07-29_22h46.22.676,Simcolourproject_2stim_asymm_v5,2020.2.10,MacIntel,60,61025ae37ef11b136ea224fe,,,,,,,,,1825,-35,-68,1,0,0,response5disk,,3,5,16,1,0,0,rectangle,5,16,1,0,0,5,16,1,0,0,1,27,187,96,1,,,,,,,,
,,,,,,,,,,,,,FF,,,,,,,,1.934,,,,,,,,,,,,,,,,,,,,,,60ff0cbf221ffeac86a7efaf,610367dc3f003f2449a8b220,2021-07-29_22h46.22.676,Simcolourproject_2stim_asymm_v5,2020.2.10,MacIntel,60,61025ae37ef11b136ea224fe,,,,,,,,,4298,23,-84,1,0,0,response3disk,,4,20,6,1,0,0,rectangle,20,6,1,0,0,20,6,1,0,0,1,28,188,130,1,,,,,,,,
,,,,,,,,,,,,,FF,,,,,,,,1.032,,,,,,,,,,,,,,,,,,,,,,60ff0cbf221ffeac86a7efaf,610367dc3f003f2449a8b220,2021-07-29_22h46.22.676,Simcolourproject_2stim_asymm_v5,2020.2.10,MacIntel,60,61025ae37ef11b136ea224fe,,,,,,,,,3137,32,65,1,0,0,response1disk,,7,18,7,1,0,0,rectangle,18,7,1,0,0,18,7,1,0,0,1,29,189,59,1,,,,,,,,
,,,,,,,,,,,,,FF,,,,,,,,2.315,,,,,,,,,,,,,,,,,,,,,,60ff0cbf221ffeac86a7efaf,610367dc3f003f2449a8b220,2021-07-29_22h46.22.676,Simcolourproject_2stim_asymm_v5,2020.2.10,MacIntel,60,61025ae37ef11b136ea224fe,,,,,,,,,706,-71,-37,1,0,0,response5disk,,2,-12,5,1,0,0,rectangle,-12,5,1,0,0,-12,5,1,0,0,1,30,190,32,1,,,,,,,,
,,,,,,,,,,,,,FF,,,,,,,,0.883,,,,,,,,,,,,,,,,,,,,,,60ff0cbf221ffeac86a7efaf,610367dc3f003f2449a8b220,2021-07-29_22h46.22.676,Simcolourproject_2stim_asymm_v5,2020.2.10,MacIntel,60,61025ae37ef11b136ea224fe,,,,,,,,,194,-45,-56,1,0,0,response5disk,,3,-3,5,1,0,0,rectangle,-3,5,1,0,0,-3,5,1,0,0,1,31,191,48,1,,,,,,,,
,,,,,,,,,,,,,FF,,,,,,,,1.784,,,,,,,,,,,,,,,,,,,,,,60ff0cbf221ffeac86a7efaf,610367dc3f003f2449a8b220,2021-07-29_22h46.22.676,Simcolourproject_2stim_asymm_v5,2020.2.10,MacIntel,60,61025ae37ef11b136ea224fe,,,,,,,,,1244,104,-38,1,0,0,response3disk,,5,7,1,1,0,0,rectangle,7,1,1,0,0,7,1,1,0,0,1,32,192,17,1,,,,,,,,
,,,,,,,,,,,,,FF,,,,,,,,2.184,,,,,,,,,,,,,,,,,,,,,,60ff0cbf221ffeac86a7efaf,610367dc3f003f2449a8b220,2021-07-29_22h46.22.676,Simcolourproject_2stim_asymm_v5,2020.2.10,MacIntel,60,61025ae37ef11b136ea224fe,,,,,,,,,2816,63,22,1,0,0,response1disk,,6,-26,-9,1,0,0,rectangle,-26,-9,1,0,0,-26,-9,1,0,0,1,33,193,122,1,,,,,,,,
,,,,,,,,,,,,,FF,,,,,,,,1.216,,,,,,,,,,,,,,,,,,,,,,60ff0cbf221ffeac86a7efaf,610367dc3f003f2449a8b220,2021-07-29_22h46.22.676,Simcolourproject_2stim_asymm_v5,2020.2.10,MacIntel,60,61025ae37ef11b136ea224fe,,,,,,,,,354,-53,-31,1,0,0,response5disk,,2,-12,-3,1,0,0,rectangle,-12,-3,1,0,0,-12,-3,1,0,0,1,34,194,29,1,,,,,,,,
,,,,,,,,,,,,,FF,,,,,,,,1.416,,,,,,,,,,,,,,,,,,,,,,60ff0cbf221ffeac86a7efaf,610367dc3f003f2449a8b220,2021-07-29_22h46.22.676,Simcolourproject_2stim_asymm_v5,2020.2.10,MacIntel,60,61025ae37ef11b136ea224fe,,,,,,,,,2879,-28,-70,1,0,0,response5disk,,3,7,6,1,0,0,rectangle,7,6,1,0,0,7,6,1,0,0,1,35,195,128,1,,,,,,,,
,,,,,,,,,,,,,FF,,,,,,,,1.283,,,,,,,,,,,,,,,,,,,,,,60ff0cbf221ffeac86a7efaf,610367dc3f003f2449a8b220,2021-07-29_22h46.22.676,Simcolourproject_2stim_asymm_v5,2020.2.10,MacIntel,60,61025ae37ef11b136ea224fe,,,,,,,,,815,-24,-32,1,0,0,response5disk,,3,3,-8,1,0,0,rectangle,3,-8,1,0,0,3,-8,1,0,0,1,36,196,36,1,,,,,,,,
,,,,,,,,,,,,,FF,,,,,,,,1.485,,,,,,,,,,,,,,,,,,,,,,60ff0cbf221ffeac86a7efaf,610367dc3f003f2449a8b220,2021-07-29_22h46.22.676,Simcolourproject_2stim_asymm_v5,2020.2.10,MacIntel,60,61025ae37ef11b136ea224fe,,,,,,,,,3799,50,-70,1,0,0,response3disk,,4,26,6,1,0,0,rectangle,26,6,1,0,0,26,6,1,0,0,1,37,197,23,1,,,,,,,,
,,,,,,,,,,,,,FF,,,,,,,,0.934,,,,,,,,,,,,,,,,,,,,,,60ff0cbf221ffeac86a7efaf,610367dc3f003f2449a8b220,2021-07-29_22h46.22.676,Simcolourproject_2stim_asymm_v5,2020.2.10,MacIntel,60,61025ae37ef11b136ea224fe,,,,,,,,,3108,-26,-74,1,0,0,response5disk,,3,16,16,1,0,0,rectangle,16,16,1,0,0,16,16,1,0,0,1,38,198,123,1,,,,,,,,
,,,,,,,,,,,,,FF,,,,,,,,0.933,,,,,,,,,,,,,,,,,,,,,,60ff0cbf221ffeac86a7efaf,610367dc3f003f2449a8b220,2021-07-29_22h46.22.676,Simcolourproject_2stim_asymm_v5,2020.2.10,MacIntel,60,61025ae37ef11b136ea224fe,,,,,,,,,3101,-34,-54,1,0,0,response5disk,,3,8,1,1,0,0,rectangle,8,1,1,0,0,8,1,1,0,0,1,39,199,60,1,,,,,,,,
,,,,,,,,,,,,,FF,,,,,,,,1.117,,,,,,,,,,,,,,,,,,,,,,60ff0cbf221ffeac86a7efaf,610367dc3f003f2449a8b220,2021-07-29_22h46.22.676,Simcolourproject_2stim_asymm_v5,2020.2.10,MacIntel,60,61025ae37ef11b136ea224fe,,,,,,,,,2858,83,-57,1,0,0,response3disk,,5,16,-13,1,0,0,rectangle,16,-13,1,0,0,16,-13,1,0,0,1,40,200,31,1,,,,,,,,
,,,,,,,,,,,,,FF,,,,,,,,1,,,,,,,,,,,,,,,,,,,,,,60ff0cbf221ffeac86a7efaf,610367dc3f003f2449a8b220,2021-07-29_22h46.22.676,Simcolourproject_2stim_asymm_v5,2020.2.10,MacIntel,60,61025ae37ef11b136ea224fe,,,,,,,,,3325,113,41,1,0,0,response1disk,,6,8,-3,1,0,0,rectangle,8,-3,1,0,0,8,-3,1,0,0,1,41,201,133,1,,,,,,,,
,,,,,,,,,,,,,FF,,,,,,,,1.851,,,,,,,,,,,,,,,,,,,,,,60ff0cbf221ffeac86a7efaf,610367dc3f003f2449a8b220,2021-07-29_22h46.22.676,Simcolourproject_2stim_asymm_v5,2020.2.10,MacIntel,60,61025ae37ef11b136ea224fe,,,,,,,,,2287,33,-51,1,0,0,response3disk,,4,5,-9,1,0,0,rectangle,5,-9,1,0,0,5,-9,1,0,0,1,42,202,19,1,,,,,,,,
,,,,,,,,,,,,,FF,,,,,,,,0.883,,,,,,,,,,,,,,,,,,,,,,60ff0cbf221ffeac86a7efaf,610367dc3f003f2449a8b220,2021-07-29_22h46.22.676,Simcolourproject_2stim_asymm_v5,2020.2.10,MacIntel,60,61025ae37ef11b136ea224fe,,,,,,,,,3995,-56,-37,1,0,0,response5disk,,2,-12,-4,1,0,0,rectangle,-12,-4,1,0,0,-12,-4,1,0,0,1,43,203,71,1,,,,,,,,
,,,,,,,,,,,,,FF,,,,,,,,1.983,,,,,,,,,,,,,,,,,,,,,,60ff0cbf221ffeac86a7efaf,610367dc3f003f2449a8b220,2021-07-29_22h46.22.676,Simcolourproject_2stim_asymm_v5,2020.2.10,MacIntel,60,61025ae37ef11b136ea224fe,,,,,,,,,4195,91,-26,1,0,0,response3disk,,5,17,7,1,0,0,rectangle,17,7,1,0,0,17,7,1,0,0,1,44,204,126,1,,,,,,,,
,,,,,,,,,,,,,FF,,,,,,,,1.134,,,,,,,,,,,,,,,,,,,,,,60ff0cbf221ffeac86a7efaf,610367dc3f003f2449a8b220,2021-07-29_22h46.22.676,Simcolourproject_2stim_asymm_v5,2020.2.10,MacIntel,60,61025ae37ef11b136ea224fe,,,,,,,,,3874,96,-32,1,0,0,response3disk,,5,-13,-8,1,0,0,rectangle,-68,-44,1,0,0,18,0,1,0,0,1,45,205,12,1,,response5disk_3,TRUE,2,2,"[310,306,301,40,315,307,161,78,270,42,312,60,206,277,119,28,277,102,167,276]",1.248,rectangle
,,,,,,,,,,,,,FF,,,,,,,,1.383,,,,,,,,,,,,,,,,,,,,,,60ff0cbf221ffeac86a7efaf,610367dc3f003f2449a8b220,2021-07-29_22h46.22.676,Simcolourproject_2stim_asymm_v5,2020.2.10,MacIntel,60,61025ae37ef11b136ea224fe,,,,,,,,,1638,45,88,1,0,0,response1disk,,7,3,2,1,0,0,rectangle,3,2,1,0,0,3,2,1,0,0,1,46,206,89,1,,,,,,,,
,,,,,,,,,,,,,FF,,,,,,,,0.967,,,,,,,,,,,,,,,,,,,,,,60ff0cbf221ffeac86a7efaf,610367dc3f003f2449a8b220,2021-07-29_22h46.22.676,Simcolourproject_2stim_asymm_v5,2020.2.10,MacIntel,60,61025ae37ef11b136ea224fe,,,,,,,,,1503,105,-39,1,0,0,response3disk,,5,-1,13,1,0,0,rectangle,-1,13,1,0,0,-1,13,1,0,0,1,47,207,91,1,,,,,,,,
,,,,,,,,,,,,,FF,,,,,,,,1.25,,,,,,,,,,,,,,,,,,,,,,60ff0cbf221ffeac86a7efaf,610367dc3f003f2449a8b220,2021-07-29_22h46.22.676,Simcolourproject_2stim_asymm_v5,2020.2.10,MacIntel,60,61025ae37ef11b136ea224fe,,,,,,,,,3587,26,-68,1,0,0,response3disk,,4,13,-5,1,0,0,rectangle,13,-5,1,0,0,13,-5,1,0,0,1,48,208,132,1,,,,,,,,
,,,,,,,,,,,,,FF,,,,,,,,0.984,,,,,,,,,,,,,,,,,,,,,,60ff0cbf221ffeac86a7efaf,610367dc3f003f2449a8b220,2021-07-29_22h46.22.676,Simcolourproject_2stim_asymm_v5,2020.2.10,MacIntel,60,61025ae37ef11b136ea224fe,,,,,,,,,614,-38,-81,1,0,0,response5disk,,3,10,10,1,0,0,rectangle,10,10,1,0,0,10,10,1,0,0,1,49,209,144,1,,,,,,,,
,,,,,,,,,,,,,FF,,,,,,,,1.5,,,,,,,,,,,,,,,,,,,,,,60ff0cbf221ffeac86a7efaf,610367dc3f003f2449a8b220,2021-07-29_22h46.22.676,Simcolourproject_2stim_asymm_v5,2020.2.10,MacIntel,60,61025ae37ef11b136ea224fe,,,,,,,,,2686,41,-79,1,0,0,response3disk,,4,31,2,1,0,0,rectangle,31,2,1,0,0,31,2,1,0,0,1,50,210,81,1,,,,,,,,
,,,,,,,,,,,,,FF,,,,,,,,1.517,,,,,,,,,,,,,,,,,,,,,,60ff0cbf221ffeac86a7efaf,610367dc3f003f2449a8b220,2021-07-29_22h46.22.676,Simcolourproject_2stim_asymm_v5,2020.2.10,MacIntel,60,61025ae37ef11b136ea224fe,,,,,,,,,1662,82,46,1,0,0,response1disk,,6,14,7,1,0,0,rectangle,14,7,1,0,0,14,7,1,0,0,1,51,211,18,1,,,,,,,,
,,,,,,,,,,,,,FF,,,,,,,,2.999,,,,,,,,,,,,,,,,,,,,,,60ff0cbf221ffeac86a7efaf,610367dc3f003f2449a8b220,2021-07-29_22h46.22.676,Simcolourproject_2stim_asymm_v5,2020.2.10,MacIntel,60,61025ae37ef11b136ea224fe,,,,,,,,,394,-32,-83,1,0,0,response5disk,,3,15,-4,1,0,0,rectangle,15,-4,1,0,0,15,-4,1,0,0,1,52,212,157,1,,,,,,,,
,,,,,,,,,,,,,FF,,,,,,,,1.332,,,,,,,,,,,,,,,,,,,,,,60ff0cbf221ffeac86a7efaf,610367dc3f003f2449a8b220,2021-07-29_22h46.22.676,Simcolourproject_2stim_asymm_v5,2020.2.10,MacIntel,60,61025ae37ef11b136ea224fe,,,,,,,,,3783,-67,36,1,0,0,response7disk,,1,1,3,1,0,0,rectangle,1,3,1,0,0,1,3,1,0,0,1,53,213,35,1,,,,,,,,
,,,,,,,,,,,,,FF,,,,,,,,0.967,,,,,,,,,,,,,,,,,,,,,,60ff0cbf221ffeac86a7efaf,610367dc3f003f2449a8b220,2021-07-29_22h46.22.676,Simcolourproject_2stim_asymm_v5,2020.2.10,MacIntel,60,61025ae37ef11b136ea224fe,,,,,,,,,1798,51,-55,1,0,0,response3disk,,4,3,-8,1,0,0,rectangle,3,-8,1,0,0,3,-8,1,0,0,1,54,214,52,1,,,,,,,,
,,,,,,,,,,,,,FF,,,,,,,,2.532,,,,,,,,,,,,,,,,,,,,,,60ff0cbf221ffeac86a7efaf,610367dc3f003f2449a8b220,2021-07-29_22h46.22.676,Simcolourproject_2stim_asymm_v5,2020.2.10,MacIntel,60,61025ae37ef11b136ea224fe,,,,,,,,,3216,79,-32,1,0,0,response3disk,,5,30,-5,1,0,0,rectangle,30,-5,1,0,0,30,-5,1,0,0,1,55,215,8,1,,,,,,,,
,,,,,,,,,,,,,FF,,,,,,,,1.383,,,,,,,,,,,,,,,,,,,,,,60ff0cbf221ffeac86a7efaf,610367dc3f003f2449a8b220,2021-07-29_22h46.22.676,Simcolourproject_2stim_asymm_v5,2020.2.10,MacIntel,60,61025ae37ef11b136ea224fe,,,,,,,,,269,65,-25,1,0,0,response3disk,,5,26,2,1,0,0,rectangle,26,2,1,0,0,26,2,1,0,0,1,56,216,86,1,,,,,,,,
,,,,,,,,,,,,,FF,,,,,,,,0.916,,,,,,,,,,,,,,,,,,,,,,60ff0cbf221ffeac86a7efaf,610367dc3f003f2449a8b220,2021-07-29_22h46.22.676,Simcolourproject_2stim_asymm_v5,2020.2.10,MacIntel,60,61025ae37ef11b136ea224fe,,,,,,,,,2980,107,49,1,0,0,response1disk,,6,-3,15,1,0,0,rectangle,-3,15,1,0,0,-3,15,1,0,0,1,57,217,46,1,,,,,,,,
,,,,,,,,,,,,,FF,,,,,,,,0.849,,,,,,,,,,,,,,,,,,,,,,60ff0cbf221ffeac86a7efaf,610367dc3f003f2449a8b220,2021-07-29_22h46.22.676,Simcolourproject_2stim_asymm_v5,2020.2.10,MacIntel,60,61025ae37ef11b136ea224fe,,,,,,,,,2964,111,48,1,0,0,response1disk,,6,10,-6,1,0,0,rectangle,10,-6,1,0,0,10,-6,1,0,0,1,58,218,78,1,,,,,,,,
,,,,,,,,,,,,,FF,,,,,,,,0.983,,,,,,,,,,,,,,,,,,,,,,60ff0cbf221ffeac86a7efaf,610367dc3f003f2449a8b220,2021-07-29_22h46.22.676,Simcolourproject_2stim_asymm_v5,2020.2.10,MacIntel,60,61025ae37ef11b136ea224fe,,,,,,,,,3275,-30,-58,1,0,0,response5disk,,3,-3,1,1,0,0,rectangle,-3,1,1,0,0,-3,1,1,0,0,1,59,219,82,1,,,,,,,,
,,,,,,,,,,,,,FF,,,,,,,,0.999,,,,,,,,,,,,,,,,,,,,,,60ff0cbf221ffeac86a7efaf,610367dc3f003f2449a8b220,2021-07-29_22h46.22.676,Simcolourproject_2stim_asymm_v5,2020.2.10,MacIntel,60,61025ae37ef11b136ea224fe,,,,,,,,,305,84,-51,1,0,0,response3disk,,5,2,4,1,0,0,rectangle,2,4,1,0,0,2,4,1,0,0,1,60,220,124,1,,,,,,,,
,,,,,,,,,,,,,FF,,,,,,,,1.066,,,,,,,,,,,,,,,,,,,,,,60ff0cbf221ffeac86a7efaf,610367dc3f003f2449a8b220,2021-07-29_22h46.22.676,Simcolourproject_2stim_asymm_v5,2020.2.10,MacIntel,60,61025ae37ef11b136ea224fe,,,,,,,,,2823,-56,-31,1,0,0,response5disk,,2,-7,-3,1,0,0,rectangle,-7,-3,1,0,0,-7,-3,1,0,0,1,61,221,11,1,,,,,,,,
,,,,,,,,,,,,,FF,,,,,,,,1.216,,,,,,,,,,,,,,,,,,,,,,60ff0cbf221ffeac86a7efaf,610367dc3f003f2449a8b220,2021-07-29_22h46.22.676,Simcolourproject_2stim_asymm_v5,2020.2.10,MacIntel,60,61025ae37ef11b136ea224fe,,,,,,,,,2842,-24,-39,1,0,0,response5disk,,3,-3,-5,1,0,0,rectangle,-3,-5,1,0,0,-3,-5,1,0,0,1,62,222,100,1,,,,,,,,
,,,,,,,,,,,,,FF,,,,,,,,1.183,,,,,,,,,,,,,,,,,,,,,,60ff0cbf221ffeac86a7efaf,610367dc3f003f2449a8b220,2021-07-29_22h46.22.676,Simcolourproject_2stim_asymm_v5,2020.2.10,MacIntel,60,61025ae37ef11b136ea224fe,,,,,,,,,1270,91,-50,1,0,0,response3disk,,5,13,1,1,0,0,rectangle,13,1,1,0,0,13,1,1,0,0,1,63,223,152,1,,,,,,,,
,,,,,,,,,,,,,FF,,,,,,,,0.966,,,,,,,,,,,,,,,,,,,,,,60ff0cbf221ffeac86a7efaf,610367dc3f003f2449a8b220,2021-07-29_22h46.22.676,Simcolourproject_2stim_asymm_v5,2020.2.10,MacIntel,60,61025ae37ef11b136ea224fe,,,,,,,,,901,-46,-87,1,0,0,response5disk,,3,2,3,1,0,0,rectangle,2,3,1,0,0,2,3,1,0,0,1,64,224,136,1,,,,,,,,
,,,,,,,,,,,,,FF,,,,,,,,1.6,,,,,,,,,,,,,,,,,,,,,,60ff0cbf221ffeac86a7efaf,610367dc3f003f2449a8b220,2021-07-29_22h46.22.676,Simcolourproject_2stim_asymm_v5,2020.2.10,MacIntel,60,61025ae37ef11b136ea224fe,,,,,,,,,2937,50,-79,1,0,0,response3disk,,4,25,-5,1,0,0,rectangle,25,-5,1,0,0,25,-5,1,0,0,1,65,225,51,1,,,,,,,,
,,,,,,,,,,,,,FF,,,,,,,,1.567,,,,,,,,,,,,,,,,,,,,,,60ff0cbf221ffeac86a7efaf,610367dc3f003f2449a8b220,2021-07-29_22h46.22.676,Simcolourproject_2stim_asymm_v5,2020.2.10,MacIntel,60,61025ae37ef11b136ea224fe,,,,,,,,,2432,-51,-64,1,0,0,response5disk,,3,3,-6,1,0,0,rectangle,3,-6,1,0,0,3,-6,1,0,0,1,66,226,93,1,,,,,,,,
,,,,,,,,,,,,,FF,,,,,,,,1.45,,,,,,,,,,,,,,,,,,,,,,60ff0cbf221ffeac86a7efaf,610367dc3f003f2449a8b220,2021-07-29_22h46.22.676,Simcolourproject_2stim_asymm_v5,2020.2.10,MacIntel,60,61025ae37ef11b136ea224fe,,,,,,,,,136,115,-31,1,0,0,response3disk,,5,-6,-3,1,0,0,rectangle,-6,-3,1,0,0,-6,-3,1,0,0,1,67,227,42,1,,,,,,,,
,,,,,,,,,,,,,FF,,,,,,,,0.7,,,,,,,,,,,,,,,,,,,,,,60ff0cbf221ffeac86a7efaf,610367dc3f003f2449a8b220,2021-07-29_22h46.22.676,Simcolourproject_2stim_asymm_v5,2020.2.10,MacIntel,60,61025ae37ef11b136ea224fe,,,,,,,,,4205,-81,-46,1,0,0,response5disk,,2,-16,-14,1,0,0,rectangle,-16,-14,1,0,0,-16,-14,1,0,0,1,68,228,146,1,,,,,,,,
,,,,,,,,,,,,,FF,,,,,,,,1.066,,,,,,,,,,,,,,,,,,,,,,60ff0cbf221ffeac86a7efaf,610367dc3f003f2449a8b220,2021-07-29_22h46.22.676,Simcolourproject_2stim_asymm_v5,2020.2.10,MacIntel,60,61025ae37ef11b136ea224fe,,,,,,,,,572,92,31,1,0,0,response1disk,,6,-7,6,1,0,0,rectangle,-7,6,1,0,0,-7,6,1,0,0,1,69,229,13,1,,,,,,,,
,,,,,,,,,,,,,FF,,,,,,,,0.783,,,,,,,,,,,,,,,,,,,,,,60ff0cbf221ffeac86a7efaf,610367dc3f003f2449a8b220,2021-07-29_22h46.22.676,Simcolourproject_2stim_asymm_v5,2020.2.10,MacIntel,60,61025ae37ef11b136ea224fe,,,,,,,,,4175,85,51,1,0,0,response1disk,,6,2,9,1,0,0,rectangle,2,9,1,0,0,2,9,1,0,0,1,70,230,129,1,,,,,,,,
,,,,,,,,,,,,,FF,,,,,,,,1.016,,,,,,,,,,,,,,,,,,,,,,60ff0cbf221ffeac86a7efaf,610367dc3f003f2449a8b220,2021-07-29_22h46.22.676,Simcolourproject_2stim_asymm_v5,2020.2.10,MacIntel,60,61025ae37ef11b136ea224fe,,,,,,,,,4021,-60,30,1,0,0,response7disk,,1,3,8,1,0,0,rectangle,3,8,1,0,0,3,8,1,0,0,1,71,231,69,1,,,,,,,,
,,,,,,,,,,,,,FF,,,,,,,,1.033,,,,,,,,,,,,,,,,,,,,,,60ff0cbf221ffeac86a7efaf,610367dc3f003f2449a8b220,2021-07-29_22h46.22.676,Simcolourproject_2stim_asymm_v5,2020.2.10,MacIntel,60,61025ae37ef11b136ea224fe,,,,,,,,,2236,-48,-44,1,0,0,response5disk,,2,-7,-4,1,0,0,rectangle,-7,-4,1,0,0,-7,-4,1,0,0,1,72,232,54,1,,,,,,,,
,,,,,,,,,,,,,FF,,,,,,,,1.066,,,,,,,,,,,,,,,,,,,,,,60ff0cbf221ffeac86a7efaf,610367dc3f003f2449a8b220,2021-07-29_22h46.22.676,Simcolourproject_2stim_asymm_v5,2020.2.10,MacIntel,60,61025ae37ef11b136ea224fe,,,,,,,,,2923,31,-45,1,0,0,response3disk,,4,13,-4,1,0,0,rectangle,13,-4,1,0,0,13,-4,1,0,0,1,73,233,2,1,,,,,,,,
,,,,,,,,,,,,,FF,,,,,,,,1.166,,,,,,,,,,,,,,,,,,,,,,60ff0cbf221ffeac86a7efaf,610367dc3f003f2449a8b220,2021-07-29_22h46.22.676,Simcolourproject_2stim_asymm_v5,2020.2.10,MacIntel,60,61025ae37ef11b136ea224fe,,,,,,,,,2672,45,-49,1,0,0,response3disk,,4,27,-8,1,0,0,rectangle,27,-8,1,0,0,27,-8,1,0,0,1,74,234,76,1,,,,,,,,
,,,,,,,,,,,,,FF,,,,,,,,0.999,,,,,,,,,,,,,,,,,,,,,,60ff0cbf221ffeac86a7efaf,610367dc3f003f2449a8b220,2021-07-29_22h46.22.676,Simcolourproject_2stim_asymm_v5,2020.2.10,MacIntel,60,61025ae37ef11b136ea224fe,,,,,,,,,3352,105,31,1,0,0,response1disk,,6,1,-3,1,0,0,rectangle,1,-3,1,0,0,1,-3,1,0,0,1,75,235,108,1,,,,,,,,
,,,,,,,,,,,,,FF,,,,,,,,2.733,,,,,,,,,,,,,,,,,,,,,,60ff0cbf221ffeac86a7efaf,610367dc3f003f2449a8b220,2021-07-29_22h46.22.676,Simcolourproject_2stim_asymm_v5,2020.2.10,MacIntel,60,61025ae37ef11b136ea224fe,,,,,,,,,1655,42,73,1,0,0,response1disk,,7,9,-3,1,0,0,rectangle,9,-3,1,0,0,9,-3,1,0,0,1,76,236,9,1,,,,,,,,
,,,,,,,,,,,,,FF,,,,,,,,1.334,,,,,,,,,,,,,,,,,,,,,,60ff0cbf221ffeac86a7efaf,610367dc3f003f2449a8b220,2021-07-29_22h46.22.676,Simcolourproject_2stim_asymm_v5,2020.2.10,MacIntel,60,61025ae37ef11b136ea224fe,,,,,,,,,1785,31,-77,1,0,0,response3disk,,4,31,8,1,0,0,rectangle,31,8,1,0,0,31,8,1,0,0,1,77,237,94,1,,,,,,,,
,,,,,,,,,,,,,FF,,,,,,,,0.999,,,,,,,,,,,,,,,,,,,,,,60ff0cbf221ffeac86a7efaf,610367dc3f003f2449a8b220,2021-07-29_22h46.22.676,Simcolourproject_2stim_asymm_v5,2020.2.10,MacIntel,60,61025ae37ef11b136ea224fe,,,,,,,,,2769,-33,-63,1,0,0,response5disk,,3,-9,7,1,0,0,rectangle,-9,7,1,0,0,-9,7,1,0,0,1,78,238,120,1,,,,,,,,
,,,,,,,,,,,,,FF,,,,,,,,1.367,,,,,,,,,,,,,,,,,,,,,,60ff0cbf221ffeac86a7efaf,610367dc3f003f2449a8b220,2021-07-29_22h46.22.676,Simcolourproject_2stim_asymm_v5,2020.2.10,MacIntel,60,61025ae37ef11b136ea224fe,,,,,,,,,4168,-76,33,1,0,0,response7disk,,1,-17,-1,1,0,0,rectangle,-17,-1,1,0,0,-17,-1,1,0,0,1,79,239,106,1,,,,,,,,
,,,,,,,,,,,,,FF,,,,,,,,0.933,,,,,,,,,,,,,,,,,,,,,,60ff0cbf221ffeac86a7efaf,610367dc3f003f2449a8b220,2021-07-29_22h46.22.676,Simcolourproject_2stim_asymm_v5,2020.2.10,MacIntel,60,61025ae37ef11b136ea224fe,,,,,,,,,2727,-55,41,1,0,0,response7disk,,1,-14,16,1,0,0,rectangle,-14,16,1,0,0,-14,16,1,0,0,1,80,240,21,1,,,,,,,,
,,,,,,,,,,,,,FF,,,,,,,,1.616,,,,,,,,,,,,,,,,,,,,,,60ff0cbf221ffeac86a7efaf,610367dc3f003f2449a8b220,2021-07-29_22h46.22.676,Simcolourproject_2stim_asymm_v5,2020.2.10,MacIntel,60,61025ae37ef11b136ea224fe,,,,,,,,,575,66,-48,1,0,0,response3disk,,5,-9,12,1,0,0,rectangle,-9,12,1,0,0,-9,12,1,0,0,1,81,241,4,1,,,,,,,,
,,,,,,,,,,,,,FF,,,,,,,,1.133,,,,,,,,,,,,,,,,,,,,,,60ff0cbf221ffeac86a7efaf,610367dc3f003f2449a8b220,2021-07-29_22h46.22.676,Simcolourproject_2stim_asymm_v5,2020.2.10,MacIntel,60,61025ae37ef11b136ea224fe,,,,,,,,,4282,-76,-39,1,0,0,response5disk,,2,6,13,1,0,0,rectangle,6,13,1,0,0,6,13,1,0,0,1,82,242,56,1,,,,,,,,
,,,,,,,,,,,,,FF,,,,,,,,1.117,,,,,,,,,,,,,,,,,,,,,,60ff0cbf221ffeac86a7efaf,610367dc3f003f2449a8b220,2021-07-29_22h46.22.676,Simcolourproject_2stim_asymm_v5,2020.2.10,MacIntel,60,61025ae37ef11b136ea224fe,,,,,,,,,3503,-38,-56,1,0,0,response5disk,,3,-8,1,1,0,0,rectangle,-8,1,1,0,0,-8,1,1,0,0,1,83,243,45,1,,,,,,,,
,,,,,,,,,,,,,FF,,,,,,,,1.167,,,,,,,,,,,,,,,,,,,,,,60ff0cbf221ffeac86a7efaf,610367dc3f003f2449a8b220,2021-07-29_22h46.22.676,Simcolourproject_2stim_asymm_v5,2020.2.10,MacIntel,60,61025ae37ef11b136ea224fe,,,,,,,,,1680,69,-31,1,0,0,response3disk,,5,-18,-11,1,0,0,rectangle,-18,-11,1,0,0,-18,-11,1,0,0,1,84,244,87,1,,,,,,,,
,,,,,,,,,,,,,FF,,,,,,,,0.898,,,,,,,,,,,,,,,,,,,,,,60ff0cbf221ffeac86a7efaf,610367dc3f003f2449a8b220,2021-07-29_22h46.22.676,Simcolourproject_2stim_asymm_v5,2020.2.10,MacIntel,60,61025ae37ef11b136ea224fe,,,,,,,,,4202,-39,-61,1,0,0,response5disk,,3,-15,-16,1,0,0,rectangle,-15,-16,1,0,0,-15,-16,1,0,0,1,85,245,7,1,,,,,,,,
,,,,,,,,,,,,,FF,,,,,,,,0.816,,,,,,,,,,,,,,,,,,,,,,60ff0cbf221ffeac86a7efaf,610367dc3f003f2449a8b220,2021-07-29_22h46.22.676,Simcolourproject_2stim_asymm_v5,2020.2.10,MacIntel,60,61025ae37ef11b136ea224fe,,,,,,,,,1287,-27,-39,1,0,0,response5disk,,3,-3,10,1,0,0,rectangle,-3,10,1,0,0,-3,10,1,0,0,1,86,246,137,1,,,,,,,,
,,,,,,,,,,,,,FF,,,,,,,,0.734,,,,,,,,,,,,,,,,,,,,,,60ff0cbf221ffeac86a7efaf,610367dc3f003f2449a8b220,2021-07-29_22h46.22.676,Simcolourproject_2stim_asymm_v5,2020.2.10,MacIntel,60,61025ae37ef11b136ea224fe,,,,,,,,,1529,-21,-50,1,0,0,response5disk,,3,-6,2,1,0,0,rectangle,-6,2,1,0,0,-6,2,1,0,0,1,87,247,92,1,,,,,,,,
,,,,,,,,,,,,,FF,,,,,,,,0.983,,,,,,,,,,,,,,,,,,,,,,60ff0cbf221ffeac86a7efaf,610367dc3f003f2449a8b220,2021-07-29_22h46.22.676,Simcolourproject_2stim_asymm_v5,2020.2.10,MacIntel,60,61025ae37ef11b136ea224fe,,,,,,,,,3374,-71,-28,1,0,0,response5disk,,2,-22,5,1,0,0,rectangle,-22,5,1,0,0,-22,5,1,0,0,1,88,248,62,1,,,,,,,,
,,,,,,,,,,,,,FF,,,,,,,,1.467,,,,,,,,,,,,,,,,,,,,,,60ff0cbf221ffeac86a7efaf,610367dc3f003f2449a8b220,2021-07-29_22h46.22.676,Simcolourproject_2stim_asymm_v5,2020.2.10,MacIntel,60,61025ae37ef11b136ea224fe,,,,,,,,,3347,111,-26,1,0,0,response3disk,,5,14,0,1,0,0,rectangle,14,0,1,0,0,14,0,1,0,0,1,89,249,150,1,,,,,,,,
,,,,,,,,,,,,,FF,,,,,,,,0.882,,,,,,,,,,,,,,,,,,,,,,60ff0cbf221ffeac86a7efaf,610367dc3f003f2449a8b220,2021-07-29_22h46.22.676,Simcolourproject_2stim_asymm_v5,2020.2.10,MacIntel,60,61025ae37ef11b136ea224fe,,,,,,,,,3970,-59,-25,1,0,0,response5disk,,2,-12,-12,1,0,0,rectangle,-12,-12,1,0,0,-12,-12,1,0,0,1,90,250,127,1,,,,,,,,
,,,,,,,,,,,,,FF,,,,,,,,1.183,,,,,,,,,,,,,,,,,,,,,,60ff0cbf221ffeac86a7efaf,610367dc3f003f2449a8b220,2021-07-29_22h46.22.676,Simcolourproject_2stim_asymm_v5,2020.2.10,MacIntel,60,61025ae37ef11b136ea224fe,,,,,,,,,404,96,39,1,0,0,response1disk,,6,27,9,1,0,0,rectangle,27,9,1,0,0,27,9,1,0,0,1,91,251,79,1,,,,,,,,
,,,,,,,,,,,,,FF,,,,,,,,3.75,,,,,,,,,,,,,,,,,,,,,,60ff0cbf221ffeac86a7efaf,610367dc3f003f2449a8b220,2021-07-29_22h46.22.676,Simcolourproject_2stim_asymm_v5,2020.2.10,MacIntel,60,61025ae37ef11b136ea224fe,,,,,,,,,446,-60,-69,1,0,0,response5disk,,3,-10,3,1,0,0,rectangle,-10,3,1,0,0,-10,3,1,0,0,1,92,252,38,1,,,,,,,,
,,,,,,,,,,,,,FF,,,,,,,,1.033,,,,,,,,,,,,,,,,,,,,,,60ff0cbf221ffeac86a7efaf,610367dc3f003f2449a8b220,2021-07-29_22h46.22.676,Simcolourproject_2stim_asymm_v5,2020.2.10,MacIntel,60,61025ae37ef11b136ea224fe,,,,,,,,,31,80,-51,1,0,0,response3disk,,5,5,-8,1,0,0,rectangle,5,-8,1,0,0,5,-8,1,0,0,1,93,253,61,1,,,,,,,,
,,,,,,,,,,,,,FF,,,,,,,,1.916,,,,,,,,,,,,,,,,,,,,,,60ff0cbf221ffeac86a7efaf,610367dc3f003f2449a8b220,2021-07-29_22h46.22.676,Simcolourproject_2stim_asymm_v5,2020.2.10,MacIntel,60,61025ae37ef11b136ea224fe,,,,,,,,,2046,-34,-65,1,0,0,response5disk,,3,-17,14,1,0,0,rectangle,-17,14,1,0,0,-17,14,1,0,0,1,94,254,28,1,,,,,,,,
,,,,,,,,,,,,,FF,,,,,,,,3.183,,,,,,,,,,,,,,,,,,,,,,60ff0cbf221ffeac86a7efaf,610367dc3f003f2449a8b220,2021-07-29_22h46.22.676,Simcolourproject_2stim_asymm_v5,2020.2.10,MacIntel,60,61025ae37ef11b136ea224fe,,,,,,,,,3318,73,-34,1,0,0,response3disk,,5,-4,11,1,0,0,rectangle,-4,11,1,0,0,-4,11,1,0,0,1,95,255,26,1,,,,,,,,
,,,,,,,,,,,,,FF,,,,,,,,1.317,,,,,,,,,,,,,,,,,,,,,,60ff0cbf221ffeac86a7efaf,610367dc3f003f2449a8b220,2021-07-29_22h46.22.676,Simcolourproject_2stim_asymm_v5,2020.2.10,MacIntel,60,61025ae37ef11b136ea224fe,,,,,,,,,1900,58,-51,1,0,0,response3disk,,5,12,3,1,0,0,rectangle,12,3,1,0,0,12,3,1,0,0,1,96,256,90,1,,,,,,,,
,,,,,,,,,,,,,FF,,,,,,,,0.749,,,,,,,,,,,,,,,,,,,,,,60ff0cbf221ffeac86a7efaf,610367dc3f003f2449a8b220,2021-07-29_22h46.22.676,Simcolourproject_2stim_asymm_v5,2020.2.10,MacIntel,60,61025ae37ef11b136ea224fe,,,,,,,,,3083,88,-23,1,0,0,response3disk,,5,28,-4,1,0,0,rectangle,28,-4,1,0,0,28,-4,1,0,0,1,97,257,66,1,,,,,,,,
,,,,,,,,,,,,,FF,,,,,,,,0.816,,,,,,,,,,,,,,,,,,,,,,60ff0cbf221ffeac86a7efaf,610367dc3f003f2449a8b220,2021-07-29_22h46.22.676,Simcolourproject_2stim_asymm_v5,2020.2.10,MacIntel,60,61025ae37ef11b136ea224fe,,,,,,,,,3446,-41,-60,1,0,0,response5disk,,3,-19,-11,1,0,0,rectangle,-19,-11,1,0,0,-19,-11,1,0,0,1,98,258,140,1,,,,,,,,
,,,,,,,,,,,,,FF,,,,,,,,0.965,,,,,,,,,,,,,,,,,,,,,,60ff0cbf221ffeac86a7efaf,610367dc3f003f2449a8b220,2021-07-29_22h46.22.676,Simcolourproject_2stim_asymm_v5,2020.2.10,MacIntel,60,61025ae37ef11b136ea224fe,,,,,,,,,3250,-67,-34,1,0,0,response5disk,,2,-17,-5,1,0,0,rectangle,-17,-5,1,0,0,-17,-5,1,0,0,1,99,259,101,1,,,,,,,,
,,,,,,,,,,,,,FF,,,,,,,,0.867,,,,,,,,,,,,,,,,,,,,,,60ff0cbf221ffeac86a7efaf,610367dc3f003f2449a8b220,2021-07-29_22h46.22.676,Simcolourproject_2stim_asymm_v5,2020.2.10,MacIntel,60,61025ae37ef11b136ea224fe,,,,,,,,,1659,66,-25,1,0,0,response3disk,,5,14,-4,1,0,0,rectangle,14,-4,1,0,0,14,-4,1,0,0,1,100,260,34,1,,,,,,,,
,,,,,,,,,,,,,FF,,,,,,,,2.417,,,,,,,,,,,,,,,,,,,,,,60ff0cbf221ffeac86a7efaf,610367dc3f003f2449a8b220,2021-07-29_22h46.22.676,Simcolourproject_2stim_asymm_v5,2020.2.10,MacIntel,60,61025ae37ef11b136ea224fe,,,,,,,,,3962,76,50,1,0,0,response1disk,,6,9,8,1,0,0,rectangle,9,8,1,0,0,9,8,1,0,0,1,101,261,148,1,,,,,,,,
,,,,,,,,,,,,,FF,,,,,,,,1.45,,,,,,,,,,,,,,,,,,,,,,60ff0cbf221ffeac86a7efaf,610367dc3f003f2449a8b220,2021-07-29_22h46.22.676,Simcolourproject_2stim_asymm_v5,2020.2.10,MacIntel,60,61025ae37ef11b136ea224fe,,,,,,,,,4072,76,-38,1,0,0,response3disk,,5,22,-3,1,0,0,rectangle,22,-3,1,0,0,22,-3,1,0,0,1,102,262,10,1,,,,,,,,
,,,,,,,,,,,,,FF,,,,,,,,1.117,,,,,,,,,,,,,,,,,,,,,,60ff0cbf221ffeac86a7efaf,610367dc3f003f2449a8b220,2021-07-29_22h46.22.676,Simcolourproject_2stim_asymm_v5,2020.2.10,MacIntel,60,61025ae37ef11b136ea224fe,,,,,,,,,2533,-73,-35,1,0,0,response5disk,,2,-15,-5,1,0,0,rectangle,-15,-5,1,0,0,-15,-5,1,0,0,1,103,263,73,1,,,,,,,,
,,,,,,,,,,,,,FF,,,,,,,,1.333,,,,,,,,,,,,,,,,,,,,,,60ff0cbf221ffeac86a7efaf,610367dc3f003f2449a8b220,2021-07-29_22h46.22.676,Simcolourproject_2stim_asymm_v5,2020.2.10,MacIntel,60,61025ae37ef11b136ea224fe,,,,,,,,,1896,31,-64,1,0,0,response3disk,,4,19,2,1,0,0,rectangle,19,2,1,0,0,19,2,1,0,0,1,104,264,154,1,,,,,,,,
,,,,,,,,,,,,,FF,,,,,,,,1.133,,,,,,,,,,,,,,,,,,,,,,60ff0cbf221ffeac86a7efaf,610367dc3f003f2449a8b220,2021-07-29_22h46.22.676,Simcolourproject_2stim_asymm_v5,2020.2.10,MacIntel,60,61025ae37ef11b136ea224fe,,,,,,,,,1530,-36,-57,1,0,0,response5disk,,3,-6,5,1,0,0,rectangle,-6,5,1,0,0,-6,5,1,0,0,1,105,265,138,1,,,,,,,,
,,,,,,,,,,,,,FF,,,,,,,,0.8,,,,,,,,,,,,,,,,,,,,,,60ff0cbf221ffeac86a7efaf,610367dc3f003f2449a8b220,2021-07-29_22h46.22.676,Simcolourproject_2stim_asymm_v5,2020.2.10,MacIntel,60,61025ae37ef11b136ea224fe,,,,,,,,,176,91,33,1,0,0,response1disk,,6,4,-6,1,0,0,rectangle,4,-6,1,0,0,4,-6,1,0,0,1,106,266,80,1,,,,,,,,
,,,,,,,,,,,,,FF,,,,,,,,0.833,,,,,,,,,,,,,,,,,,,,,,60ff0cbf221ffeac86a7efaf,610367dc3f003f2449a8b220,2021-07-29_22h46.22.676,Simcolourproject_2stim_asymm_v5,2020.2.10,MacIntel,60,61025ae37ef11b136ea224fe,,,,,,,,,2898,-28,-44,1,0,0,response5disk,,3,-4,11,1,0,0,rectangle,-4,11,1,0,0,-4,11,1,0,0,1,107,267,102,1,,,,,,,,
,,,,,,,,,,,,,FF,,,,,,,,0.716,,,,,,,,,,,,,,,,,,,,,,60ff0cbf221ffeac86a7efaf,610367dc3f003f2449a8b220,2021-07-29_22h46.22.676,Simcolourproject_2stim_asymm_v5,2020.2.10,MacIntel,60,61025ae37ef11b136ea224fe,,,,,,,,,3542,30,99,1,0,0,response1disk,,7,15,2,1,0,0,rectangle,15,2,1,0,0,15,2,1,0,0,1,108,268,158,1,,,,,,,,
,,,,,,,,,,,,,FF,,,,,,,,0.999,,,,,,,,,,,,,,,,,,,,,,60ff0cbf221ffeac86a7efaf,610367dc3f003f2449a8b220,2021-07-29_22h46.22.676,Simcolourproject_2stim_asymm_v5,2020.2.10,MacIntel,60,61025ae37ef11b136ea224fe,,,,,,,,,425,46,-76,1,0,0,response3disk,,4,10,8,1,0,0,rectangle,74,-28,1,0,0,-13,6,1,0,0,1,109,269,70,1,,response3disk_3,TRUE,5,5,"[310,306,301,40,315,307,161,78,270,42,312,60,206,277,119,28,277,102,167,276]",1.065,rectangle
,,,,,,,,,,,,,FF,,,,,,,,0.966,,,,,,,,,,,,,,,,,,,,,,60ff0cbf221ffeac86a7efaf,610367dc3f003f2449a8b220,2021-07-29_22h46.22.676,Simcolourproject_2stim_asymm_v5,2020.2.10,MacIntel,60,61025ae37ef11b136ea224fe,,,,,,,,,1746,-64,-35,1,0,0,response5disk,,2,-25,-3,1,0,0,rectangle,-25,-3,1,0,0,-25,-3,1,0,0,1,110,270,47,1,,,,,,,,
,,,,,,,,,,,,,FF,,,,,,,,0.883,,,,,,,,,,,,,,,,,,,,,,60ff0cbf221ffeac86a7efaf,610367dc3f003f2449a8b220,2021-07-29_22h46.22.676,Simcolourproject_2stim_asymm_v5,2020.2.10,MacIntel,60,61025ae37ef11b136ea224fe,,,,,,,,,3979,21,-63,1,0,0,response3disk,,4,5,1,1,0,0,rectangle,5,1,1,0,0,5,1,1,0,0,1,111,271,39,1,,,,,,,,
,,,,,,,,,,,,,FF,,,,,,,,0.948,,,,,,,,,,,,,,,,,,,,,,60ff0cbf221ffeac86a7efaf,610367dc3f003f2449a8b220,2021-07-29_22h46.22.676,Simcolourproject_2stim_asymm_v5,2020.2.10,MacIntel,60,61025ae37ef11b136ea224fe,,,,,,,,,2303,84,-19,1,0,0,response3disk,,5,-6,6,1,0,0,rectangle,-6,6,1,0,0,-6,6,1,0,0,1,112,272,85,1,,,,,,,,
,,,,,,,,,,,,,FF,,,,,,,,0.85,,,,,,,,,,,,,,,,,,,,,,60ff0cbf221ffeac86a7efaf,610367dc3f003f2449a8b220,2021-07-29_22h46.22.676,Simcolourproject_2stim_asymm_v5,2020.2.10,MacIntel,60,61025ae37ef11b136ea224fe,,,,,,,,,3802,40,59,1,0,0,response1disk,,7,17,7,1,0,0,rectangle,17,7,1,0,0,17,7,1,0,0,1,113,273,68,1,,,,,,,,
,,,,,,,,,,,,,FF,,,,,,,,1.334,,,,,,,,,,,,,,,,,,,,,,60ff0cbf221ffeac86a7efaf,610367dc3f003f2449a8b220,2021-07-29_22h46.22.676,Simcolourproject_2stim_asymm_v5,2020.2.10,MacIntel,60,61025ae37ef11b136ea224fe,,,,,,,,,5,-72,-40,1,0,0,response5disk,,2,-24,-10,1,0,0,rectangle,-24,-10,1,0,0,-24,-10,1,0,0,1,114,274,142,1,,,,,,,,
,,,,,,,,,,,,,FF,,,,,,,,1.25,,,,,,,,,,,,,,,,,,,,,,60ff0cbf221ffeac86a7efaf,610367dc3f003f2449a8b220,2021-07-29_22h46.22.676,Simcolourproject_2stim_asymm_v5,2020.2.10,MacIntel,60,61025ae37ef11b136ea224fe,,,,,,,,,2335,85,-48,1,0,0,response3disk,,5,22,-12,1,0,0,rectangle,-83,33,1,0,0,11,-1,1,0,0,1,115,275,110,1,,response7disk_3,TRUE,1,1,"[310,306,301,40,315,307,161,78,270,42,312,60,206,277,119,28,277,102,167,276]",1.249,rectangle
,,,,,,,,,,,,,FF,,,,,,,,1.1,,,,,,,,,,,,,,,,,,,,,,60ff0cbf221ffeac86a7efaf,610367dc3f003f2449a8b220,2021-07-29_22h46.22.676,Simcolourproject_2stim_asymm_v5,2020.2.10,MacIntel,60,61025ae37ef11b136ea224fe,,,,,,,,,879,38,-72,1,0,0,response3disk,,4,20,-14,1,0,0,rectangle,33,105,1,0,0,5,7,1,0,0,1,116,276,44,1,,response1disk_3,TRUE,7,7,"[310,306,301,40,315,307,161,78,270,42,312,60,206,277,119,28,277,102,167,276]",1.299,rectangle
,,,,,,,,,,,,,FF,,,,,,,,1.433,,,,,,,,,,,,,,,,,,,,,,60ff0cbf221ffeac86a7efaf,610367dc3f003f2449a8b220,2021-07-29_22h46.22.676,Simcolourproject_2stim_asymm_v5,2020.2.10,MacIntel,60,61025ae37ef11b136ea224fe,,,,,,,,,2519,72,49,1,0,0,response1disk,,6,14,2,1,0,0,rectangle,14,2,1,0,0,14,2,1,0,0,1,117,277,113,1,,,,,,,,
,,,,,,,,,,,,,FF,,,,,,,,0.967,,,,,,,,,,,,,,,,,,,,,,60ff0cbf221ffeac86a7efaf,610367dc3f003f2449a8b220,2021-07-29_22h46.22.676,Simcolourproject_2stim_asymm_v5,2020.2.10,MacIntel,60,61025ae37ef11b136ea224fe,,,,,,,,,167,-67,-71,1,0,0,response5disk,,3,4,15,1,0,0,rectangle,4,15,1,0,0,4,15,1,0,0,1,118,278,33,1,,,,,,,,
,,,,,,,,,,,,,FF,,,,,,,,1.066,,,,,,,,,,,,,,,,,,,,,,60ff0cbf221ffeac86a7efaf,610367dc3f003f2449a8b220,2021-07-29_22h46.22.676,Simcolourproject_2stim_asymm_v5,2020.2.10,MacIntel,60,61025ae37ef11b136ea224fe,,,,,,,,,2085,-50,-33,1,0,0,response5disk,,2,-19,0,1,0,0,rectangle,-19,0,1,0,0,-19,0,1,0,0,1,119,279,0,1,,,,,,,,
,,,,,,,,,,,,,FF,,,,,,,,0.917,,,,,,,,,,,,,,,,,,,,,,60ff0cbf221ffeac86a7efaf,610367dc3f003f2449a8b220,2021-07-29_22h46.22.676,Simcolourproject_2stim_asymm_v5,2020.2.10,MacIntel,60,61025ae37ef11b136ea224fe,,,,,,,,,897,27,-66,1,0,0,response3disk,,4,12,-5,1,0,0,rectangle,12,-5,1,0,0,12,-5,1,0,0,1,120,280,139,1,,,,,,,,
,,,,,,,,,,,,,FF,,,,,,,,0.882,,,,,,,,,,,,,,,,,,,,,,60ff0cbf221ffeac86a7efaf,610367dc3f003f2449a8b220,2021-07-29_22h46.22.676,Simcolourproject_2stim_asymm_v5,2020.2.10,MacIntel,60,61025ae37ef11b136ea224fe,,,,,,,,,2728,-78,-49,1,0,0,response5disk,,2,-17,-12,1,0,0,rectangle,-17,-12,1,0,0,-17,-12,1,0,0,1,121,281,118,1,,,,,,,,
,,,,,,,,,,,,,FF,,,,,,,,0.749,,,,,,,,,,,,,,,,,,,,,,60ff0cbf221ffeac86a7efaf,610367dc3f003f2449a8b220,2021-07-29_22h46.22.676,Simcolourproject_2stim_asymm_v5,2020.2.10,MacIntel,60,61025ae37ef11b136ea224fe,,,,,,,,,707,42,82,1,0,0,response1disk,,7,12,8,1,0,0,rectangle,12,8,1,0,0,12,8,1,0,0,1,122,282,147,1,,,,,,,,
,,,,,,,,,,,,,FF,,,,,,,,1.351,,,,,,,,,,,,,,,,,,,,,,60ff0cbf221ffeac86a7efaf,610367dc3f003f2449a8b220,2021-07-29_22h46.22.676,Simcolourproject_2stim_asymm_v5,2020.2.10,MacIntel,60,61025ae37ef11b136ea224fe,,,,,,,,,1187,51,-64,1,0,0,response3disk,,4,9,1,1,0,0,rectangle,9,1,1,0,0,9,1,1,0,0,1,123,283,43,1,,,,,,,,
,,,,,,,,,,,,,FF,,,,,,,,0.817,,,,,,,,,,,,,,,,,,,,,,60ff0cbf221ffeac86a7efaf,610367dc3f003f2449a8b220,2021-07-29_22h46.22.676,Simcolourproject_2stim_asymm_v5,2020.2.10,MacIntel,60,61025ae37ef11b136ea224fe,,,,,,,,,3038,-69,-32,1,0,0,response5disk,,2,-19,-6,1,0,0,rectangle,-19,-6,1,0,0,-19,-6,1,0,0,1,124,284,72,1,,,,,,,,
,,,,,,,,,,,,,FF,,,,,,,,1.499,,,,,,,,,,,,,,,,,,,,,,60ff0cbf221ffeac86a7efaf,610367dc3f003f2449a8b220,2021-07-29_22h46.22.676,Simcolourproject_2stim_asymm_v5,2020.2.10,MacIntel,60,61025ae37ef11b136ea224fe,,,,,,,,,313,-40,-78,1,0,0,response5disk,,3,-22,-8,1,0,0,rectangle,-22,-8,1,0,0,-22,-8,1,0,0,1,125,285,16,1,,,,,,,,
,,,,,,,,,,,,,FF,,,,,,,,1.266,,,,,,,,,,,,,,,,,,,,,,60ff0cbf221ffeac86a7efaf,610367dc3f003f2449a8b220,2021-07-29_22h46.22.676,Simcolourproject_2stim_asymm_v5,2020.2.10,MacIntel,60,61025ae37ef11b136ea224fe,,,,,,,,,1636,89,46,1,0,0,response1disk,,6,7,-1,1,0,0,rectangle,7,-1,1,0,0,7,-1,1,0,0,1,126,286,50,1,,,,,,,,
,,,,,,,,,,,,,FF,,,,,,,,1.215,,,,,,,,,,,,,,,,,,,,,,60ff0cbf221ffeac86a7efaf,610367dc3f003f2449a8b220,2021-07-29_22h46.22.676,Simcolourproject_2stim_asymm_v5,2020.2.10,MacIntel,60,61025ae37ef11b136ea224fe,,,,,,,,,56,-23,-64,1,0,0,response5disk,,3,-11,6,1,0,0,rectangle,-11,6,1,0,0,-11,6,1,0,0,1,127,287,104,1,,,,,,,,
,,,,,,,,,,,,,FF,,,,,,,,2.199,,,,,,,,,,,,,,,,,,,,,,60ff0cbf221ffeac86a7efaf,610367dc3f003f2449a8b220,2021-07-29_22h46.22.676,Simcolourproject_2stim_asymm_v5,2020.2.10,MacIntel,60,61025ae37ef11b136ea224fe,,,,,,,,,1049,36,105,1,0,0,response1disk,,7,24,13,1,0,0,rectangle,24,13,1,0,0,24,13,1,0,0,1,128,288,151,1,,,,,,,,
,,,,,,,,,,,,,FF,,,,,,,,1.217,,,,,,,,,,,,,,,,,,,,,,60ff0cbf221ffeac86a7efaf,610367dc3f003f2449a8b220,2021-07-29_22h46.22.676,Simcolourproject_2stim_asymm_v5,2020.2.10,MacIntel,60,61025ae37ef11b136ea224fe,,,,,,,,,1352,48,-28,1,0,0,response3disk,,5,27,-6,1,0,0,rectangle,27,-6,1,0,0,27,-6,1,0,0,1,129,289,114,1,,,,,,,,
,,,,,,,,,,,,,FF,,,,,,,,0.998,,,,,,,,,,,,,,,,,,,,,,60ff0cbf221ffeac86a7efaf,610367dc3f003f2449a8b220,2021-07-29_22h46.22.676,Simcolourproject_2stim_asymm_v5,2020.2.10,MacIntel,60,61025ae37ef11b136ea224fe,,,,,,,,,3105,-73,24,1,0,0,response7disk,,1,-9,16,1,0,0,rectangle,-9,16,1,0,0,-9,16,1,0,0,1,130,290,116,1,,,,,,,,
,,,,,,,,,,,,,FF,,,,,,,,1.033,,,,,,,,,,,,,,,,,,,,,,60ff0cbf221ffeac86a7efaf,610367dc3f003f2449a8b220,2021-07-29_22h46.22.676,Simcolourproject_2stim_asymm_v5,2020.2.10,MacIntel,60,61025ae37ef11b136ea224fe,,,,,,,,,3580,101,-30,1,0,0,response3disk,,5,-15,12,1,0,0,rectangle,-15,12,1,0,0,-15,12,1,0,0,1,131,291,5,1,,,,,,,,
,,,,,,,,,,,,,FF,,,,,,,,1.05,,,,,,,,,,,,,,,,,,,,,,60ff0cbf221ffeac86a7efaf,610367dc3f003f2449a8b220,2021-07-29_22h46.22.676,Simcolourproject_2stim_asymm_v5,2020.2.10,MacIntel,60,61025ae37ef11b136ea224fe,,,,,,,,,1209,63,40,1,0,0,response1disk,,6,10,15,1,0,0,rectangle,10,15,1,0,0,10,15,1,0,0,1,132,292,135,1,,,,,,,,
,,,,,,,,,,,,,FF,,,,,,,,1.965,,,,,,,,,,,,,,,,,,,,,,60ff0cbf221ffeac86a7efaf,610367dc3f003f2449a8b220,2021-07-29_22h46.22.676,Simcolourproject_2stim_asymm_v5,2020.2.10,MacIntel,60,61025ae37ef11b136ea224fe,,,,,,,,,184,30,-76,1,0,0,response3disk,,4,23,16,1,0,0,rectangle,23,16,1,0,0,23,16,1,0,0,1,133,293,153,1,,,,,,,,
,,,,,,,,,,,,,FF,,,,,,,,1.383,,,,,,,,,,,,,,,,,,,,,,60ff0cbf221ffeac86a7efaf,610367dc3f003f2449a8b220,2021-07-29_22h46.22.676,Simcolourproject_2stim_asymm_v5,2020.2.10,MacIntel,60,61025ae37ef11b136ea224fe,,,,,,,,,3357,-29,-58,1,0,0,response5disk,,3,-5,3,1,0,0,rectangle,-5,3,1,0,0,-5,3,1,0,0,1,134,294,125,1,,,,,,,,
,,,,,,,,,,,,,FF,,,,,,,,0.866,,,,,,,,,,,,,,,,,,,,,,60ff0cbf221ffeac86a7efaf,610367dc3f003f2449a8b220,2021-07-29_22h46.22.676,Simcolourproject_2stim_asymm_v5,2020.2.10,MacIntel,60,61025ae37ef11b136ea224fe,,,,,,,,,329,87,55,1,0,0,response1disk,,6,8,16,1,0,0,rectangle,8,16,1,0,0,8,16,1,0,0,1,135,295,159,1,,,,,,,,
,,,,,,,,,,,,,FF,,,,,,,,0.916,,,,,,,,,,,,,,,,,,,,,,60ff0cbf221ffeac86a7efaf,610367dc3f003f2449a8b220,2021-07-29_22h46.22.676,Simcolourproject_2stim_asymm_v5,2020.2.10,MacIntel,60,61025ae37ef11b136ea224fe,,,,,,,,,1567,58,-32,1,0,0,response3disk,,5,7,-1,1,0,0,rectangle,7,-1,1,0,0,7,-1,1,0,0,1,136,296,3,1,,,,,,,,
,,,,,,,,,,,,,FF,,,,,,,,1.051,,,,,,,,,,,,,,,,,,,,,,60ff0cbf221ffeac86a7efaf,610367dc3f003f2449a8b220,2021-07-29_22h46.22.676,Simcolourproject_2stim_asymm_v5,2020.2.10,MacIntel,60,61025ae37ef11b136ea224fe,,,,,,,,,15,33,-51,1,0,0,response3disk,,4,3,17,1,0,0,rectangle,3,17,1,0,0,3,17,1,0,0,1,137,297,95,1,,,,,,,,
,,,,,,,,,,,,,FF,,,,,,,,1.95,,,,,,,,,,,,,,,,,,,,,,60ff0cbf221ffeac86a7efaf,610367dc3f003f2449a8b220,2021-07-29_22h46.22.676,Simcolourproject_2stim_asymm_v5,2020.2.10,MacIntel,60,61025ae37ef11b136ea224fe,,,,,,,,,3138,-16,-54,1,0,0,response5disk,,3,0,0,1,0,0,rectangle,0,0,1,0,0,0,0,1,0,0,1,138,298,49,1,,,,,,,,
,,,,,,,,,,,,,FF,,,,,,,,2.133,,,,,,,,,,,,,,,,,,,,,,60ff0cbf221ffeac86a7efaf,610367dc3f003f2449a8b220,2021-07-29_22h46.22.676,Simcolourproject_2stim_asymm_v5,2020.2.10,MacIntel,60,61025ae37ef11b136ea224fe,,,,,,,,,866,73,-23,1,0,0,response3disk,,5,15,1,1,0,0,rectangle,15,1,1,0,0,15,1,1,0,0,1,139,299,155,1,,,,,,,,
,,,,,,,,,,,,,FF,,,,,,,,2.266,,,,,,,,,,,,,,,,,,,,,,60ff0cbf221ffeac86a7efaf,610367dc3f003f2449a8b220,2021-07-29_22h46.22.676,Simcolourproject_2stim_asymm_v5,2020.2.10,MacIntel,60,61025ae37ef11b136ea224fe,,,,,,,,,1315,85,-36,1,0,0,response3disk,,5,4,-4,1,0,0,rectangle,-74,-40,1,0,0,25,8,1,0,0,1,140,300,75,1,,response5disk_3,TRUE,2,2,"[310,306,301,40,315,307,161,78,270,42,312,60,206,277,119,28,277,102,167,276]",1.45,rectangle
,,,,,,,,,,,,,FF,,,,,,,,1.25,,,,,,,,,,,,,,,,,,,,,,60ff0cbf221ffeac86a7efaf,610367dc3f003f2449a8b220,2021-07-29_22h46.22.676,Simcolourproject_2stim_asymm_v5,2020.2.10,MacIntel,60,61025ae37ef11b136ea224fe,,,,,,,,,1092,93,65,1,0,0,response1disk,,6,11,5,1,0,0,rectangle,11,5,1,0,0,11,5,1,0,0,1,141,301,74,1,,,,,,,,
