key_resp.keys,key_resp.rt,key_resp_14.keys,key_resp_14.rt,key_resp_15.keys,key_resp_15.rt,key_resp_17.keys,key_resp_17.rt,key_resp_9.keys,key_resp_9.rt,key_resp_10.keys,key_resp_10.rt,practice_comparison,Ecc,mouse_5.x,mouse_5.y,mouse_5.leftButton,mouse_5.midButton,mouse_5.rightButton,mouse_5.clicked_name,pracsimilarity,response_time,mouse_10.x,mouse_10.y,mouse_10.leftButton,mouse_10.midButton,mouse_10.rightButton,mouse_10.clicked_name,mouse_7.x,mouse_7.y,mouse_7.leftButton,mouse_7.midButton,mouse_7.rightButton,mouse_6.x,mouse_6.y,mouse_6.leftButton,mouse_6.midButton,mouse_6.rightButton,duringprac.thisRepN,duringprac.thisTrialN,duringprac.thisN,duringprac.thisIndex,duringprac.ran,participant,session,date,expName,psychopyVersion,OS,frameRate,study_id,mouse_7.clicked_name,catchpracsimilarity,catch_response_time,catchnumberprac,catchtrialorderprac,mouse_6.clicked_name,key_resp_22.keys,key_resp_22.rt,realcomparison,mouse.x,mouse.y,mouse.leftButton,mouse.midButton,mouse.rightButton,mouse.clicked_name,Colour2,similarity,mouse_2.x,mouse_2.y,mouse_2.leftButton,mouse_2.midButton,mouse_2.rightButton,mouse_2.clicked_name,mouse_3.x,mouse_3.y,mouse_3.leftButton,mouse_3.midButton,mouse_3.rightButton,mouse_11.x,mouse_11.y,mouse_11.leftButton,mouse_11.midButton,mouse_11.rightButton,trials_2.thisRepN,trials_2.thisTrialN,trials_2.thisN,trials_2.thisIndex,trials_2.ran,Colour1,mouse_3.clicked_name,catchornah,catchsimilarity,catchnumber,catchtrialorder,catchRT,mouse_11.clicked_name
space,1.19561,space,1.465105,space,10.470275,space,1.970205,space,0.56146,space,2.262145,5,FF,41.31640625,78.73046875,1,0,0,response1disk_5,7,6.505195,6.19921875,-2.984375,1,0,0,rectangle_8,6.19921875,-2.984375,1,0,0,6.19921875,-2.984375,1,0,0,0,0,0,0,1,60ff76d6c604411be3f09861,61036d7cdaa4d7d2a8d929b4,2021-07-29_23h16.09.825,Simcolourproject_2stim_asymm_v5,2020.2.10,MacIntel,60,61025ae37ef11b136ea224fe,,,,,,,,,,,,,,,,,,,,,,,,,,,,,,,,,,,,,,,,,,,,,,
,,,,,,,,,,,,108,FF,78.42578125,-59.765625,1,0,0,response3disk_5,5,8.60206,-4.30859375,0.3203125,1,0,0,rectangle_8,37.625,-106.6132813,1,0,0,7.34765625,3.31640625,1,0,0,0,1,1,5,1,60ff76d6c604411be3f09861,61036d7cdaa4d7d2a8d929b4,2021-07-29_23h16.09.825,Simcolourproject_2stim_asymm_v5,2020.2.10,MacIntel,60,61025ae37ef11b136ea224fe,response3disk_7,4,2.401175,4,"[2,5]",rectangle_4,,,,,,,,,,,,,,,,,,,,,,,,,,,,,,,,,,,,,,,,
,,,,,,,,,,,,111,PF,63.9296875,-103.0195313,1,0,0,response3disk_5,4,6.750435,0.85546875,14.1953125,1,0,0,rectangle_8,0.85546875,14.1953125,1,0,0,0.85546875,14.1953125,1,0,0,0,2,2,6,1,60ff76d6c604411be3f09861,61036d7cdaa4d7d2a8d929b4,2021-07-29_23h16.09.825,Simcolourproject_2stim_asymm_v5,2020.2.10,MacIntel,60,61025ae37ef11b136ea224fe,,,,,,,,,,,,,,,,,,,,,,,,,,,,,,,,,,,,,,,,,,,,,,
,,,,,,,,,,,,70,PF,47.921875,94.31640625,1,0,0,response1disk_5,7,1.24878,-5.9375,-10.3984375,1,0,0,rectangle_8,-5.9375,-10.3984375,1,0,0,-5.9375,-10.3984375,1,0,0,0,3,3,4,1,60ff76d6c604411be3f09861,61036d7cdaa4d7d2a8d929b4,2021-07-29_23h16.09.825,Simcolourproject_2stim_asymm_v5,2020.2.10,MacIntel,60,61025ae37ef11b136ea224fe,,,,,,,,,,,,,,,,,,,,,,,,,,,,,,,,,,,,,,,,,,,,,,
,,,,,,,,,,,,56,PF,74.69921875,-54.44140625,1,0,0,response3disk_5,5,2.931945,-13.3125,1.453125,1,0,0,rectangle_8,51.57421875,-115.7382813,1,0,0,14.12890625,-12.515625,1,0,0,0,4,4,2,1,60ff76d6c604411be3f09861,61036d7cdaa4d7d2a8d929b4,2021-07-29_23h16.09.825,Simcolourproject_2stim_asymm_v5,2020.2.10,MacIntel,60,61025ae37ef11b136ea224fe,response3disk_7,4,1.93349,4,"[2,5]",rectangle_4,,,,,,,,,,,,,,,,,,,,,,,,,,,,,,,,,,,,,,,,
,,,,,,,,,,,,89,PF,58.4453125,72.109375,1,0,0,response1disk_5,7,1.436275,-7.50390625,3.61328125,1,0,0,rectangle_8,-7.50390625,3.61328125,1,0,0,-7.50390625,3.61328125,1,0,0,0,5,5,1,1,60ff76d6c604411be3f09861,61036d7cdaa4d7d2a8d929b4,2021-07-29_23h16.09.825,Simcolourproject_2stim_asymm_v5,2020.2.10,MacIntel,60,61025ae37ef11b136ea224fe,,,,,,,,,,,,,,,,,,,,,,,,,,,,,,,,,,,,,,,,,,,,,,
,,,,,,,,,,,,27,FF,33.79296875,-96.2265625,1,0,0,response3disk_5,4,2.61724,-2.296875,2.71484375,1,0,0,rectangle_8,-2.296875,2.71484375,1,0,0,-2.296875,2.71484375,1,0,0,0,6,6,3,1,60ff76d6c604411be3f09861,61036d7cdaa4d7d2a8d929b4,2021-07-29_23h16.09.825,Simcolourproject_2stim_asymm_v5,2020.2.10,MacIntel,60,61025ae37ef11b136ea224fe,,,,,,,,,,,,,,,,,,,,,,,,,,,,,,,,,,,,,,,,,,,,,,
,,,,,,,,,,,,,FF,,,,,,,,1.25058,,,,,,,,,,,,,,,,,,,,,,60ff76d6c604411be3f09861,61036d7cdaa4d7d2a8d929b4,2021-07-29_23h16.09.825,Simcolourproject_2stim_asymm_v5,2020.2.10,MacIntel,60,61025ae37ef11b136ea224fe,,,,,,,space,2.079695,2016,43.359375,68.07421875,1,0,0,response1disk,,7,4.44140625,-3.33984375,1,0,0,rectangle,4.44140625,-3.33984375,1,0,0,4.44140625,-3.33984375,1,0,0,0,0,0,145,1,,,,,,,,
,,,,,,,,,,,,,FF,,,,,,,,2.400615,,,,,,,,,,,,,,,,,,,,,,60ff76d6c604411be3f09861,61036d7cdaa4d7d2a8d929b4,2021-07-29_23h16.09.825,Simcolourproject_2stim_asymm_v5,2020.2.10,MacIntel,60,61025ae37ef11b136ea224fe,,,,,,,,,4060,40.15625,-106.3632813,1,0,0,response3disk,,4,-0.36328125,-5.05859375,1,0,0,rectangle,-0.36328125,-5.05859375,1,0,0,-0.36328125,-5.05859375,1,0,0,0,1,1,128,1,,,,,,,,
,,,,,,,,,,,,,FF,,,,,,,,2.8344,,,,,,,,,,,,,,,,,,,,,,60ff76d6c604411be3f09861,61036d7cdaa4d7d2a8d929b4,2021-07-29_23h16.09.825,Simcolourproject_2stim_asymm_v5,2020.2.10,MacIntel,60,61025ae37ef11b136ea224fe,,,,,,,,,2276,87.15625,-53.92578125,1,0,0,response3disk,,5,-10.13671875,8.3671875,1,0,0,rectangle,-10.13671875,8.3671875,1,0,0,-10.13671875,8.3671875,1,0,0,0,2,2,85,1,,,,,,,,
,,,,,,,,,,,,,FF,,,,,,,,1.78271,,,,,,,,,,,,,,,,,,,,,,60ff76d6c604411be3f09861,61036d7cdaa4d7d2a8d929b4,2021-07-29_23h16.09.825,Simcolourproject_2stim_asymm_v5,2020.2.10,MacIntel,60,61025ae37ef11b136ea224fe,,,,,,,,,2542,-71.46875,37.81640625,1,0,0,response7disk,,1,-10.52734375,-3.3359375,1,0,0,rectangle,-10.52734375,-3.3359375,1,0,0,-10.52734375,-3.3359375,1,0,0,0,3,3,142,1,,,,,,,,
,,,,,,,,,,,,,FF,,,,,,,,2.15245,,,,,,,,,,,,,,,,,,,,,,60ff76d6c604411be3f09861,61036d7cdaa4d7d2a8d929b4,2021-07-29_23h16.09.825,Simcolourproject_2stim_asymm_v5,2020.2.10,MacIntel,60,61025ae37ef11b136ea224fe,,,,,,,,,1001,-49.16015625,-107.703125,1,0,0,response5disk,,3,-5.48828125,1.2890625,1,0,0,rectangle,-5.48828125,1.2890625,1,0,0,-5.48828125,1.2890625,1,0,0,0,4,4,0,1,,,,,,,,
,,,,,,,,,,,,,FF,,,,,,,,1.11687,,,,,,,,,,,,,,,,,,,,,,60ff76d6c604411be3f09861,61036d7cdaa4d7d2a8d929b4,2021-07-29_23h16.09.825,Simcolourproject_2stim_asymm_v5,2020.2.10,MacIntel,60,61025ae37ef11b136ea224fe,,,,,,,,,3309,24.6484375,53.375,1,0,0,response1disk,,7,-14.62109375,-8.3828125,1,0,0,rectangle,-14.62109375,-8.3828125,1,0,0,-14.62109375,-8.3828125,1,0,0,0,5,5,29,1,,,,,,,,
,,,,,,,,,,,,,FF,,,,,,,,1.41649,,,,,,,,,,,,,,,,,,,,,,60ff76d6c604411be3f09861,61036d7cdaa4d7d2a8d929b4,2021-07-29_23h16.09.825,Simcolourproject_2stim_asymm_v5,2020.2.10,MacIntel,60,61025ae37ef11b136ea224fe,,,,,,,,,4085,-44.078125,-75.27734375,1,0,0,response5disk,,3,1.44140625,-1.83984375,1,0,0,rectangle,1.44140625,-1.83984375,1,0,0,1.44140625,-1.83984375,1,0,0,0,6,6,36,1,,,,,,,,
,,,,,,,,,,,,,FF,,,,,,,,1.78303,,,,,,,,,,,,,,,,,,,,,,60ff76d6c604411be3f09861,61036d7cdaa4d7d2a8d929b4,2021-07-29_23h16.09.825,Simcolourproject_2stim_asymm_v5,2020.2.10,MacIntel,60,61025ae37ef11b136ea224fe,,,,,,,,,4105,36.73828125,-88.45703125,1,0,0,response3disk,,4,1.6875,6.21484375,1,0,0,rectangle,1.6875,6.21484375,1,0,0,1.6875,6.21484375,1,0,0,0,7,7,78,1,,,,,,,,
,,,,,,,,,,,,,FF,,,,,,,,0.999895,,,,,,,,,,,,,,,,,,,,,,60ff76d6c604411be3f09861,61036d7cdaa4d7d2a8d929b4,2021-07-29_23h16.09.825,Simcolourproject_2stim_asymm_v5,2020.2.10,MacIntel,60,61025ae37ef11b136ea224fe,,,,,,,,,3655,29.9453125,69.6640625,1,0,0,response1disk,,7,8.76171875,10.8046875,1,0,0,rectangle,8.76171875,10.8046875,1,0,0,8.76171875,10.8046875,1,0,0,0,8,8,10,1,,,,,,,,
,,,,,,,,,,,,,FF,,,,,,,,2.166765,,,,,,,,,,,,,,,,,,,,,,60ff76d6c604411be3f09861,61036d7cdaa4d7d2a8d929b4,2021-07-29_23h16.09.825,Simcolourproject_2stim_asymm_v5,2020.2.10,MacIntel,60,61025ae37ef11b136ea224fe,,,,,,,,,3739,78.84375,-43.43359375,1,0,0,response3disk,,5,-9.08984375,1.5546875,1,0,0,rectangle,-9.08984375,1.5546875,1,0,0,-9.08984375,1.5546875,1,0,0,0,9,9,81,1,,,,,,,,
,,,,,,,,,,,,,FF,,,,,,,,1.649785,,,,,,,,,,,,,,,,,,,,,,60ff76d6c604411be3f09861,61036d7cdaa4d7d2a8d929b4,2021-07-29_23h16.09.825,Simcolourproject_2stim_asymm_v5,2020.2.10,MacIntel,60,61025ae37ef11b136ea224fe,,,,,,,,,1029,69.28515625,-31.875,1,0,0,response3disk,,5,10.80859375,-2.1796875,1,0,0,rectangle,10.80859375,-2.1796875,1,0,0,10.80859375,-2.1796875,1,0,0,0,10,10,127,1,,,,,,,,
,,,,,,,,,,,,,FF,,,,,,,,3.433795,,,,,,,,,,,,,,,,,,,,,,60ff76d6c604411be3f09861,61036d7cdaa4d7d2a8d929b4,2021-07-29_23h16.09.825,Simcolourproject_2stim_asymm_v5,2020.2.10,MacIntel,60,61025ae37ef11b136ea224fe,,,,,,,,,3941,76.9296875,-33.109375,1,0,0,response3disk,,5,28.51953125,-2.34375,1,0,0,rectangle,28.51953125,-2.34375,1,0,0,28.51953125,-2.34375,1,0,0,0,11,11,153,1,,,,,,,,
,,,,,,,,,,,,,FF,,,,,,,,1.933885,,,,,,,,,,,,,,,,,,,,,,60ff76d6c604411be3f09861,61036d7cdaa4d7d2a8d929b4,2021-07-29_23h16.09.825,Simcolourproject_2stim_asymm_v5,2020.2.10,MacIntel,60,61025ae37ef11b136ea224fe,,,,,,,,,4223,-41.90625,-106.0390625,1,0,0,response5disk,,3,-9.671875,-12.0703125,1,0,0,rectangle,-9.671875,-12.0703125,1,0,0,-9.671875,-12.0703125,1,0,0,0,12,12,91,1,,,,,,,,
,,,,,,,,,,,,,FF,,,,,,,,1.084815,,,,,,,,,,,,,,,,,,,,,,60ff76d6c604411be3f09861,61036d7cdaa4d7d2a8d929b4,2021-07-29_23h16.09.825,Simcolourproject_2stim_asymm_v5,2020.2.10,MacIntel,60,61025ae37ef11b136ea224fe,,,,,,,,,1420,34.2421875,-71.78515625,1,0,0,response3disk,,4,0.30078125,7.37109375,1,0,0,rectangle,0.30078125,7.37109375,1,0,0,0.30078125,7.37109375,1,0,0,0,13,13,61,1,,,,,,,,
,,,,,,,,,,,,,FF,,,,,,,,1.784335,,,,,,,,,,,,,,,,,,,,,,60ff76d6c604411be3f09861,61036d7cdaa4d7d2a8d929b4,2021-07-29_23h16.09.825,Simcolourproject_2stim_asymm_v5,2020.2.10,MacIntel,60,61025ae37ef11b136ea224fe,,,,,,,,,331,80.58984375,44.20703125,1,0,0,response1disk,,6,13.91796875,14.78125,1,0,0,rectangle,13.91796875,14.78125,1,0,0,13.91796875,14.78125,1,0,0,0,14,14,31,1,,,,,,,,
,,,,,,,,,,,,,FF,,,,,,,,1.665725,,,,,,,,,,,,,,,,,,,,,,60ff76d6c604411be3f09861,61036d7cdaa4d7d2a8d929b4,2021-07-29_23h16.09.825,Simcolourproject_2stim_asymm_v5,2020.2.10,MacIntel,60,61025ae37ef11b136ea224fe,,,,,,,,,3991,78.0859375,-42.78515625,1,0,0,response3disk,,5,14.515625,-7.62890625,1,0,0,rectangle,14.515625,-7.62890625,1,0,0,14.515625,-7.62890625,1,0,0,0,15,15,116,1,,,,,,,,
,,,,,,,,,,,,,FF,,,,,,,,7.316985,,,,,,,,,,,,,,,,,,,,,,60ff76d6c604411be3f09861,61036d7cdaa4d7d2a8d929b4,2021-07-29_23h16.09.825,Simcolourproject_2stim_asymm_v5,2020.2.10,MacIntel,60,61025ae37ef11b136ea224fe,,,,,,,,,1595,86.72265625,-38.01953125,1,0,0,response3disk,,5,8.6484375,3.60546875,1,0,0,rectangle,8.6484375,3.60546875,1,0,0,8.6484375,3.60546875,1,0,0,0,16,16,110,1,,,,,,,,
,,,,,,,,,,,,,FF,,,,,,,,3.53411,,,,,,,,,,,,,,,,,,,,,,60ff76d6c604411be3f09861,61036d7cdaa4d7d2a8d929b4,2021-07-29_23h16.09.825,Simcolourproject_2stim_asymm_v5,2020.2.10,MacIntel,60,61025ae37ef11b136ea224fe,,,,,,,,,901,-33.14453125,-69.09375,1,0,0,response5disk,,3,-13.40234375,2.0859375,1,0,0,rectangle,-13.40234375,2.0859375,1,0,0,-13.40234375,2.0859375,1,0,0,0,17,17,82,1,,,,,,,,
,,,,,,,,,,,,,FF,,,,,,,,4.23287,,,,,,,,,,,,,,,,,,,,,,60ff76d6c604411be3f09861,61036d7cdaa4d7d2a8d929b4,2021-07-29_23h16.09.825,Simcolourproject_2stim_asymm_v5,2020.2.10,MacIntel,60,61025ae37ef11b136ea224fe,,,,,,,,,2048,58.4765625,-111.9257813,1,0,0,response3disk,,4,-4.1328125,4.140625,1,0,0,rectangle,-4.1328125,4.140625,1,0,0,-4.1328125,4.140625,1,0,0,0,18,18,155,1,,,,,,,,
,,,,,,,,,,,,,FF,,,,,,,,2.53463,,,,,,,,,,,,,,,,,,,,,,60ff76d6c604411be3f09861,61036d7cdaa4d7d2a8d929b4,2021-07-29_23h16.09.825,Simcolourproject_2stim_asymm_v5,2020.2.10,MacIntel,60,61025ae37ef11b136ea224fe,,,,,,,,,2561,92.7578125,38.40625,1,0,0,response1disk,,6,-0.125,15.53125,1,0,0,rectangle,-0.125,15.53125,1,0,0,-0.125,15.53125,1,0,0,0,19,19,11,1,,,,,,,,
,,,,,,,,,,,,,FF,,,,,,,,1.26671,,,,,,,,,,,,,,,,,,,,,,60ff76d6c604411be3f09861,61036d7cdaa4d7d2a8d929b4,2021-07-29_23h16.09.825,Simcolourproject_2stim_asymm_v5,2020.2.10,MacIntel,60,61025ae37ef11b136ea224fe,,,,,,,,,3705,-46.21484375,95.015625,1,0,0,response7disk,,0,13.796875,-0.4609375,1,0,0,rectangle,13.796875,-0.4609375,1,0,0,13.796875,-0.4609375,1,0,0,0,20,20,118,1,,,,,,,,
,,,,,,,,,,,,,FF,,,,,,,,1.23326,,,,,,,,,,,,,,,,,,,,,,60ff76d6c604411be3f09861,61036d7cdaa4d7d2a8d929b4,2021-07-29_23h16.09.825,Simcolourproject_2stim_asymm_v5,2020.2.10,MacIntel,60,61025ae37ef11b136ea224fe,,,,,,,,,1827,-55.3359375,-31.80859375,1,0,0,response5disk,,2,-4.3203125,-3.2734375,1,0,0,rectangle,-4.3203125,-3.2734375,1,0,0,-4.3203125,-3.2734375,1,0,0,0,21,21,131,1,,,,,,,,
,,,,,,,,,,,,,FF,,,,,,,,0.93253,,,,,,,,,,,,,,,,,,,,,,60ff76d6c604411be3f09861,61036d7cdaa4d7d2a8d929b4,2021-07-29_23h16.09.825,Simcolourproject_2stim_asymm_v5,2020.2.10,MacIntel,60,61025ae37ef11b136ea224fe,,,,,,,,,1676,-69.546875,-24.09375,1,0,0,response5disk,,2,-12.58984375,-3.6796875,1,0,0,rectangle,35.359375,78.04296875,1,0,0,-7.05078125,-3.83984375,1,0,0,0,22,22,122,1,,response1disk_3,TRUE,7,7,"[286,23,27,108,290,276,150,292,233,39,177,242,223,244,119,246,155,39,179,59]",2.251195,rectangle
,,,,,,,,,,,,,FF,,,,,,,,3.202155,,,,,,,,,,,,,,,,,,,,,,60ff76d6c604411be3f09861,61036d7cdaa4d7d2a8d929b4,2021-07-29_23h16.09.825,Simcolourproject_2stim_asymm_v5,2020.2.10,MacIntel,60,61025ae37ef11b136ea224fe,,,,,,,,,273,-24.3359375,-67.640625,1,0,0,response5disk,,3,12.86328125,-9.3671875,1,0,0,rectangle,12.86328125,-9.3671875,1,0,0,12.86328125,-9.3671875,1,0,0,0,23,23,126,1,,,,,,,,
,,,,,,,,,,,,,FF,,,,,,,,1.29933,,,,,,,,,,,,,,,,,,,,,,60ff76d6c604411be3f09861,61036d7cdaa4d7d2a8d929b4,2021-07-29_23h16.09.825,Simcolourproject_2stim_asymm_v5,2020.2.10,MacIntel,60,61025ae37ef11b136ea224fe,,,,,,,,,2820,64.0703125,31.96875,1,0,0,response1disk,,6,18.1328125,-1.71484375,1,0,0,rectangle,18.1328125,-1.71484375,1,0,0,18.1328125,-1.71484375,1,0,0,0,24,24,93,1,,,,,,,,
,,,,,,,,,,,,,FF,,,,,,,,2.3503,,,,,,,,,,,,,,,,,,,,,,60ff76d6c604411be3f09861,61036d7cdaa4d7d2a8d929b4,2021-07-29_23h16.09.825,Simcolourproject_2stim_asymm_v5,2020.2.10,MacIntel,60,61025ae37ef11b136ea224fe,,,,,,,,,3134,79.4609375,23.203125,1,0,0,response1disk,,6,7.08984375,2.39453125,1,0,0,rectangle,7.08984375,2.39453125,1,0,0,7.08984375,2.39453125,1,0,0,0,25,25,135,1,,,,,,,,
,,,,,,,,,,,,,FF,,,,,,,,1.182355,,,,,,,,,,,,,,,,,,,,,,60ff76d6c604411be3f09861,61036d7cdaa4d7d2a8d929b4,2021-07-29_23h16.09.825,Simcolourproject_2stim_asymm_v5,2020.2.10,MacIntel,60,61025ae37ef11b136ea224fe,,,,,,,,,3039,-40.31640625,-85.3515625,1,0,0,response5disk,,3,-5.328125,-10.765625,1,0,0,rectangle,-80.890625,-49.65234375,1,0,0,-1.390625,1.51171875,1,0,0,0,26,26,88,1,,response5disk_3,TRUE,2,2,"[286,23,27,108,290,276,150,292,233,39,177,242,223,244,119,246,155,39,179,59]",2.067335,rectangle
,,,,,,,,,,,,,FF,,,,,,,,1.83239,,,,,,,,,,,,,,,,,,,,,,60ff76d6c604411be3f09861,61036d7cdaa4d7d2a8d929b4,2021-07-29_23h16.09.825,Simcolourproject_2stim_asymm_v5,2020.2.10,MacIntel,60,61025ae37ef11b136ea224fe,,,,,,,,,3632,-29.20703125,-75.171875,1,0,0,response5disk,,3,-2.16796875,4.64453125,1,0,0,rectangle,-2.16796875,4.64453125,1,0,0,-2.16796875,4.64453125,1,0,0,0,27,27,1,1,,,,,,,,
,,,,,,,,,,,,,FF,,,,,,,,2.067475,,,,,,,,,,,,,,,,,,,,,,60ff76d6c604411be3f09861,61036d7cdaa4d7d2a8d929b4,2021-07-29_23h16.09.825,Simcolourproject_2stim_asymm_v5,2020.2.10,MacIntel,60,61025ae37ef11b136ea224fe,,,,,,,,,256,-27.63671875,-61.859375,1,0,0,response5disk,,3,11.609375,-4.765625,1,0,0,rectangle,11.609375,-4.765625,1,0,0,11.609375,-4.765625,1,0,0,0,28,28,32,1,,,,,,,,
,,,,,,,,,,,,,FF,,,,,,,,1.566145,,,,,,,,,,,,,,,,,,,,,,60ff76d6c604411be3f09861,61036d7cdaa4d7d2a8d929b4,2021-07-29_23h16.09.825,Simcolourproject_2stim_asymm_v5,2020.2.10,MacIntel,60,61025ae37ef11b136ea224fe,,,,,,,,,2133,37.30859375,72.6171875,1,0,0,response1disk,,7,-0.60546875,-6.9453125,1,0,0,rectangle,-0.60546875,-6.9453125,1,0,0,-0.60546875,-6.9453125,1,0,0,0,29,29,65,1,,,,,,,,
,,,,,,,,,,,,,FF,,,,,,,,1.568515,,,,,,,,,,,,,,,,,,,,,,60ff76d6c604411be3f09861,61036d7cdaa4d7d2a8d929b4,2021-07-29_23h16.09.825,Simcolourproject_2stim_asymm_v5,2020.2.10,MacIntel,60,61025ae37ef11b136ea224fe,,,,,,,,,3579,36.48828125,-86.3828125,1,0,0,response3disk,,4,3.19921875,6.57421875,1,0,0,rectangle,3.19921875,6.57421875,1,0,0,3.19921875,6.57421875,1,0,0,0,30,30,4,1,,,,,,,,
,,,,,,,,,,,,,FF,,,,,,,,1.550425,,,,,,,,,,,,,,,,,,,,,,60ff76d6c604411be3f09861,61036d7cdaa4d7d2a8d929b4,2021-07-29_23h16.09.825,Simcolourproject_2stim_asymm_v5,2020.2.10,MacIntel,60,61025ae37ef11b136ea224fe,,,,,,,,,3249,-41.1796875,-101.7773438,1,0,0,response5disk,,3,8.25,-2.78125,1,0,0,rectangle,8.25,-2.78125,1,0,0,8.25,-2.78125,1,0,0,0,31,31,125,1,,,,,,,,
,,,,,,,,,,,,,FF,,,,,,,,5.03369,,,,,,,,,,,,,,,,,,,,,,60ff76d6c604411be3f09861,61036d7cdaa4d7d2a8d929b4,2021-07-29_23h16.09.825,Simcolourproject_2stim_asymm_v5,2020.2.10,MacIntel,60,61025ae37ef11b136ea224fe,,,,,,,,,1000,71.140625,-47.81640625,1,0,0,response3disk,,5,-5.37109375,-0.13671875,1,0,0,rectangle,-5.37109375,-0.13671875,1,0,0,-5.37109375,-0.13671875,1,0,0,0,32,32,109,1,,,,,,,,
,,,,,,,,,,,,,FF,,,,,,,,1.100015,,,,,,,,,,,,,,,,,,,,,,60ff76d6c604411be3f09861,61036d7cdaa4d7d2a8d929b4,2021-07-29_23h16.09.825,Simcolourproject_2stim_asymm_v5,2020.2.10,MacIntel,60,61025ae37ef11b136ea224fe,,,,,,,,,4361,-34.9296875,70.5859375,1,0,0,response7disk,,0,-4.85546875,3.953125,1,0,0,rectangle,-4.85546875,3.953125,1,0,0,-4.85546875,3.953125,1,0,0,0,33,33,98,1,,,,,,,,
,,,,,,,,,,,,,FF,,,,,,,,2.16596,,,,,,,,,,,,,,,,,,,,,,60ff76d6c604411be3f09861,61036d7cdaa4d7d2a8d929b4,2021-07-29_23h16.09.825,Simcolourproject_2stim_asymm_v5,2020.2.10,MacIntel,60,61025ae37ef11b136ea224fe,,,,,,,,,3465,44.77734375,-80.890625,1,0,0,response3disk,,4,2.27734375,-6.69921875,1,0,0,rectangle,2.27734375,-6.69921875,1,0,0,2.27734375,-6.69921875,1,0,0,0,34,34,68,1,,,,,,,,
,,,,,,,,,,,,,FF,,,,,,,,3.10164,,,,,,,,,,,,,,,,,,,,,,60ff76d6c604411be3f09861,61036d7cdaa4d7d2a8d929b4,2021-07-29_23h16.09.825,Simcolourproject_2stim_asymm_v5,2020.2.10,MacIntel,60,61025ae37ef11b136ea224fe,,,,,,,,,2109,110.9882813,-32.890625,1,0,0,response3disk,,5,16.703125,13.796875,1,0,0,rectangle,16.703125,13.796875,1,0,0,16.703125,13.796875,1,0,0,0,35,35,19,1,,,,,,,,
,,,,,,,,,,,,,FF,,,,,,,,1.333655,,,,,,,,,,,,,,,,,,,,,,60ff76d6c604411be3f09861,61036d7cdaa4d7d2a8d929b4,2021-07-29_23h16.09.825,Simcolourproject_2stim_asymm_v5,2020.2.10,MacIntel,60,61025ae37ef11b136ea224fe,,,,,,,,,1387,47.796875,-59.02734375,1,0,0,response3disk,,4,20.640625,2.58984375,1,0,0,rectangle,20.640625,2.58984375,1,0,0,20.640625,2.58984375,1,0,0,0,36,36,134,1,,,,,,,,
,,,,,,,,,,,,,FF,,,,,,,,1.116875,,,,,,,,,,,,,,,,,,,,,,60ff76d6c604411be3f09861,61036d7cdaa4d7d2a8d929b4,2021-07-29_23h16.09.825,Simcolourproject_2stim_asymm_v5,2020.2.10,MacIntel,60,61025ae37ef11b136ea224fe,,,,,,,,,3052,-48.27734375,-102.703125,1,0,0,response5disk,,3,-6.703125,-16.1015625,1,0,0,rectangle,-6.703125,-16.1015625,1,0,0,-6.703125,-16.1015625,1,0,0,0,37,37,146,1,,,,,,,,
,,,,,,,,,,,,,FF,,,,,,,,1.384115,,,,,,,,,,,,,,,,,,,,,,60ff76d6c604411be3f09861,61036d7cdaa4d7d2a8d929b4,2021-07-29_23h16.09.825,Simcolourproject_2stim_asymm_v5,2020.2.10,MacIntel,60,61025ae37ef11b136ea224fe,,,,,,,,,3549,-20.66796875,-59.6484375,1,0,0,response5disk,,3,4.0546875,-5.01953125,1,0,0,rectangle,29.51171875,-81.5546875,1,0,0,0.84765625,10.31640625,1,0,0,0,38,38,42,1,,response3disk_3,TRUE,4,4,"[286,23,27,108,290,276,150,292,233,39,177,242,223,244,119,246,155,39,179,59]",35.10564,rectangle
,,,,,,,,,,,,,FF,,,,,,,,1.417465,,,,,,,,,,,,,,,,,,,,,,60ff76d6c604411be3f09861,61036d7cdaa4d7d2a8d929b4,2021-07-29_23h16.09.825,Simcolourproject_2stim_asymm_v5,2020.2.10,MacIntel,60,61025ae37ef11b136ea224fe,,,,,,,,,921,76.4921875,-37.02734375,1,0,0,response3disk,,5,1.4140625,5.13671875,1,0,0,rectangle,1.4140625,5.13671875,1,0,0,1.4140625,5.13671875,1,0,0,0,39,39,108,1,,,,,,,,
,,,,,,,,,,,,,FF,,,,,,,,2.58374,,,,,,,,,,,,,,,,,,,,,,60ff76d6c604411be3f09861,61036d7cdaa4d7d2a8d929b4,2021-07-29_23h16.09.825,Simcolourproject_2stim_asymm_v5,2020.2.10,MacIntel,60,61025ae37ef11b136ea224fe,,,,,,,,,725,75.2578125,-41.125,1,0,0,response3disk,,5,20.65625,-6.68359375,1,0,0,rectangle,20.65625,-6.68359375,1,0,0,20.65625,-6.68359375,1,0,0,0,40,40,143,1,,,,,,,,
,,,,,,,,,,,,,FF,,,,,,,,1.484565,,,,,,,,,,,,,,,,,,,,,,60ff76d6c604411be3f09861,61036d7cdaa4d7d2a8d929b4,2021-07-29_23h16.09.825,Simcolourproject_2stim_asymm_v5,2020.2.10,MacIntel,60,61025ae37ef11b136ea224fe,,,,,,,,,4082,66.7109375,26.125,1,0,0,response1disk,,6,9.38671875,-15.8671875,1,0,0,rectangle,9.38671875,-15.8671875,1,0,0,9.38671875,-15.8671875,1,0,0,0,41,41,71,1,,,,,,,,
,,,,,,,,,,,,,FF,,,,,,,,0.900085,,,,,,,,,,,,,,,,,,,,,,60ff76d6c604411be3f09861,61036d7cdaa4d7d2a8d929b4,2021-07-29_23h16.09.825,Simcolourproject_2stim_asymm_v5,2020.2.10,MacIntel,60,61025ae37ef11b136ea224fe,,,,,,,,,1996,35.609375,84.1328125,1,0,0,response1disk,,7,17.19921875,6.328125,1,0,0,rectangle,17.19921875,6.328125,1,0,0,17.19921875,6.328125,1,0,0,0,42,42,133,1,,,,,,,,
,,,,,,,,,,,,,FF,,,,,,,,4.900185,,,,,,,,,,,,,,,,,,,,,,60ff76d6c604411be3f09861,61036d7cdaa4d7d2a8d929b4,2021-07-29_23h16.09.825,Simcolourproject_2stim_asymm_v5,2020.2.10,MacIntel,60,61025ae37ef11b136ea224fe,,,,,,,,,3452,74.546875,32.62109375,1,0,0,response1disk,,6,6.4609375,0.19140625,1,0,0,rectangle,6.4609375,0.19140625,1,0,0,6.4609375,0.19140625,1,0,0,0,43,43,107,1,,,,,,,,
,,,,,,,,,,,,,FF,,,,,,,,1.41614,,,,,,,,,,,,,,,,,,,,,,60ff76d6c604411be3f09861,61036d7cdaa4d7d2a8d929b4,2021-07-29_23h16.09.825,Simcolourproject_2stim_asymm_v5,2020.2.10,MacIntel,60,61025ae37ef11b136ea224fe,,,,,,,,,558,80.63671875,42.96484375,1,0,0,response1disk,,6,10.96875,10.64453125,1,0,0,rectangle,10.96875,10.64453125,1,0,0,10.96875,10.64453125,1,0,0,0,44,44,28,1,,,,,,,,
,,,,,,,,,,,,,FF,,,,,,,,1.567185,,,,,,,,,,,,,,,,,,,,,,60ff76d6c604411be3f09861,61036d7cdaa4d7d2a8d929b4,2021-07-29_23h16.09.825,Simcolourproject_2stim_asymm_v5,2020.2.10,MacIntel,60,61025ae37ef11b136ea224fe,,,,,,,,,269,79.34375,-25.92578125,1,0,0,response3disk,,5,6.17578125,-1.76953125,1,0,0,rectangle,6.17578125,-1.76953125,1,0,0,6.17578125,-1.76953125,1,0,0,0,45,45,64,1,,,,,,,,
,,,,,,,,,,,,,FF,,,,,,,,1.283575,,,,,,,,,,,,,,,,,,,,,,60ff76d6c604411be3f09861,61036d7cdaa4d7d2a8d929b4,2021-07-29_23h16.09.825,Simcolourproject_2stim_asymm_v5,2020.2.10,MacIntel,60,61025ae37ef11b136ea224fe,,,,,,,,,3885,68.11328125,-41.3984375,1,0,0,response3disk,,5,14.25390625,-13.8671875,1,0,0,rectangle,14.25390625,-13.8671875,1,0,0,14.25390625,-13.8671875,1,0,0,0,46,46,15,1,,,,,,,,
,,,,,,,,,,,,,FF,,,,,,,,1.16644,,,,,,,,,,,,,,,,,,,,,,60ff76d6c604411be3f09861,61036d7cdaa4d7d2a8d929b4,2021-07-29_23h16.09.825,Simcolourproject_2stim_asymm_v5,2020.2.10,MacIntel,60,61025ae37ef11b136ea224fe,,,,,,,,,54,32.62890625,-75.94921875,1,0,0,response3disk,,4,10.984375,1.71875,1,0,0,rectangle,10.984375,1.71875,1,0,0,10.984375,1.71875,1,0,0,0,47,47,140,1,,,,,,,,
,,,,,,,,,,,,,FF,,,,,,,,1.93476,,,,,,,,,,,,,,,,,,,,,,60ff76d6c604411be3f09861,61036d7cdaa4d7d2a8d929b4,2021-07-29_23h16.09.825,Simcolourproject_2stim_asymm_v5,2020.2.10,MacIntel,60,61025ae37ef11b136ea224fe,,,,,,,,,3570,89.4375,-24.3828125,1,0,0,response3disk,,5,0.484375,15.6171875,1,0,0,rectangle,0.484375,15.6171875,1,0,0,0.484375,15.6171875,1,0,0,0,48,48,18,1,,,,,,,,
,,,,,,,,,,,,,FF,,,,,,,,1.000715,,,,,,,,,,,,,,,,,,,,,,60ff76d6c604411be3f09861,61036d7cdaa4d7d2a8d929b4,2021-07-29_23h16.09.825,Simcolourproject_2stim_asymm_v5,2020.2.10,MacIntel,60,61025ae37ef11b136ea224fe,,,,,,,,,1082,48.265625,67.91796875,1,0,0,response1disk,,7,17.06640625,-2.68359375,1,0,0,rectangle,17.06640625,-2.68359375,1,0,0,17.06640625,-2.68359375,1,0,0,0,49,49,79,1,,,,,,,,
,,,,,,,,,,,,,FF,,,,,,,,1.55161,,,,,,,,,,,,,,,,,,,,,,60ff76d6c604411be3f09861,61036d7cdaa4d7d2a8d929b4,2021-07-29_23h16.09.825,Simcolourproject_2stim_asymm_v5,2020.2.10,MacIntel,60,61025ae37ef11b136ea224fe,,,,,,,,,3664,41.625,93.078125,1,0,0,response1disk,,7,7.12109375,10.3359375,1,0,0,rectangle,7.12109375,10.3359375,1,0,0,7.12109375,10.3359375,1,0,0,0,50,50,70,1,,,,,,,,
,,,,,,,,,,,,,FF,,,,,,,,2.03516,,,,,,,,,,,,,,,,,,,,,,60ff76d6c604411be3f09861,61036d7cdaa4d7d2a8d929b4,2021-07-29_23h16.09.825,Simcolourproject_2stim_asymm_v5,2020.2.10,MacIntel,60,61025ae37ef11b136ea224fe,,,,,,,,,1891,-33.42578125,-74.13671875,1,0,0,response5disk,,3,-8.953125,-12.48046875,1,0,0,rectangle,-8.953125,-12.48046875,1,0,0,-8.953125,-12.48046875,1,0,0,0,51,51,103,1,,,,,,,,
,,,,,,,,,,,,,FF,,,,,,,,0.798975,,,,,,,,,,,,,,,,,,,,,,60ff76d6c604411be3f09861,61036d7cdaa4d7d2a8d929b4,2021-07-29_23h16.09.825,Simcolourproject_2stim_asymm_v5,2020.2.10,MacIntel,60,61025ae37ef11b136ea224fe,,,,,,,,,503,50.33203125,72.28125,1,0,0,response1disk,,7,22.2109375,0.9375,1,0,0,rectangle,22.2109375,0.9375,1,0,0,22.2109375,0.9375,1,0,0,0,52,52,129,1,,,,,,,,
,,,,,,,,,,,,,FF,,,,,,,,1.149365,,,,,,,,,,,,,,,,,,,,,,60ff76d6c604411be3f09861,61036d7cdaa4d7d2a8d929b4,2021-07-29_23h16.09.825,Simcolourproject_2stim_asymm_v5,2020.2.10,MacIntel,60,61025ae37ef11b136ea224fe,,,,,,,,,1715,25.73046875,43.40234375,1,0,0,response1disk,,7,1.33984375,-4.453125,1,0,0,rectangle,1.33984375,-4.453125,1,0,0,1.33984375,-4.453125,1,0,0,0,53,53,130,1,,,,,,,,
,,,,,,,,,,,,,FF,,,,,,,,1.69957,,,,,,,,,,,,,,,,,,,,,,60ff76d6c604411be3f09861,61036d7cdaa4d7d2a8d929b4,2021-07-29_23h16.09.825,Simcolourproject_2stim_asymm_v5,2020.2.10,MacIntel,60,61025ae37ef11b136ea224fe,,,,,,,,,3204,-77.8046875,-35.45703125,1,0,0,response5disk,,2,-17.40625,-4.99609375,1,0,0,rectangle,-17.40625,-4.99609375,1,0,0,-17.40625,-4.99609375,1,0,0,0,54,54,123,1,,,,,,,,
,,,,,,,,,,,,,FF,,,,,,,,3.316835,,,,,,,,,,,,,,,,,,,,,,60ff76d6c604411be3f09861,61036d7cdaa4d7d2a8d929b4,2021-07-29_23h16.09.825,Simcolourproject_2stim_asymm_v5,2020.2.10,MacIntel,60,61025ae37ef11b136ea224fe,,,,,,,,,1283,50.9609375,-25.9921875,1,0,0,response3disk,,5,14.9921875,-0.1953125,1,0,0,rectangle,14.9921875,-0.1953125,1,0,0,14.9921875,-0.1953125,1,0,0,0,55,55,3,1,,,,,,,,
,,,,,,,,,,,,,FF,,,,,,,,0.882345,,,,,,,,,,,,,,,,,,,,,,60ff76d6c604411be3f09861,61036d7cdaa4d7d2a8d929b4,2021-07-29_23h16.09.825,Simcolourproject_2stim_asymm_v5,2020.2.10,MacIntel,60,61025ae37ef11b136ea224fe,,,,,,,,,733,89.90234375,-36.93359375,1,0,0,response3disk,,5,21.90234375,-0.40625,1,0,0,rectangle,21.90234375,-0.40625,1,0,0,21.90234375,-0.40625,1,0,0,0,56,56,95,1,,,,,,,,
,,,,,,,,,,,,,FF,,,,,,,,1.10023,,,,,,,,,,,,,,,,,,,,,,60ff76d6c604411be3f09861,61036d7cdaa4d7d2a8d929b4,2021-07-29_23h16.09.825,Simcolourproject_2stim_asymm_v5,2020.2.10,MacIntel,60,61025ae37ef11b136ea224fe,,,,,,,,,936,38.99609375,74.09375,1,0,0,response1disk,,7,9.27734375,-2.97265625,1,0,0,rectangle,9.27734375,-2.97265625,1,0,0,9.27734375,-2.97265625,1,0,0,0,57,57,58,1,,,,,,,,
,,,,,,,,,,,,,FF,,,,,,,,3.183945,,,,,,,,,,,,,,,,,,,,,,60ff76d6c604411be3f09861,61036d7cdaa4d7d2a8d929b4,2021-07-29_23h16.09.825,Simcolourproject_2stim_asymm_v5,2020.2.10,MacIntel,60,61025ae37ef11b136ea224fe,,,,,,,,,2275,80.2109375,31.8046875,1,0,0,response1disk,,6,-6.53125,-7.62890625,1,0,0,rectangle,-88.93359375,32.87109375,1,0,0,7.88671875,-0.546875,1,0,0,0,58,58,144,1,,response7disk_3,TRUE,1,1,"[286,23,27,108,290,276,150,292,233,39,177,242,223,244,119,246,155,39,179,59]",1.71708,rectangle
,,,,,,,,,,,,,FF,,,,,,,,2.33448,,,,,,,,,,,,,,,,,,,,,,60ff76d6c604411be3f09861,61036d7cdaa4d7d2a8d929b4,2021-07-29_23h16.09.825,Simcolourproject_2stim_asymm_v5,2020.2.10,MacIntel,60,61025ae37ef11b136ea224fe,,,,,,,,,566,32.73046875,65.6640625,1,0,0,response1disk,,7,2.97265625,-2.75,1,0,0,rectangle,2.97265625,-2.75,1,0,0,2.97265625,-2.75,1,0,0,0,59,59,94,1,,,,,,,,
,,,,,,,,,,,,,FF,,,,,,,,3.01649,,,,,,,,,,,,,,,,,,,,,,60ff76d6c604411be3f09861,61036d7cdaa4d7d2a8d929b4,2021-07-29_23h16.09.825,Simcolourproject_2stim_asymm_v5,2020.2.10,MacIntel,60,61025ae37ef11b136ea224fe,,,,,,,,,1047,62.1484375,25.28515625,1,0,0,response1disk,,6,10.07421875,15.125,1,0,0,rectangle,10.07421875,15.125,1,0,0,10.07421875,15.125,1,0,0,0,60,60,41,1,,,,,,,,
,,,,,,,,,,,,,FF,,,,,,,,1.98265,,,,,,,,,,,,,,,,,,,,,,60ff76d6c604411be3f09861,61036d7cdaa4d7d2a8d929b4,2021-07-29_23h16.09.825,Simcolourproject_2stim_asymm_v5,2020.2.10,MacIntel,60,61025ae37ef11b136ea224fe,,,,,,,,,1315,62.25390625,-33.7265625,1,0,0,response3disk,,5,2.4609375,2.9921875,1,0,0,rectangle,2.4609375,2.9921875,1,0,0,2.4609375,2.9921875,1,0,0,0,61,61,22,1,,,,,,,,
,,,,,,,,,,,,,FF,,,,,,,,2.300255,,,,,,,,,,,,,,,,,,,,,,60ff76d6c604411be3f09861,61036d7cdaa4d7d2a8d929b4,2021-07-29_23h16.09.825,Simcolourproject_2stim_asymm_v5,2020.2.10,MacIntel,60,61025ae37ef11b136ea224fe,,,,,,,,,3952,82.2109375,-48.5390625,1,0,0,response3disk,,5,9.984375,8.7109375,1,0,0,rectangle,9.984375,8.7109375,1,0,0,9.984375,8.7109375,1,0,0,0,62,62,14,1,,,,,,,,
,,,,,,,,,,,,,FF,,,,,,,,1.60111,,,,,,,,,,,,,,,,,,,,,,60ff76d6c604411be3f09861,61036d7cdaa4d7d2a8d929b4,2021-07-29_23h16.09.825,Simcolourproject_2stim_asymm_v5,2020.2.10,MacIntel,60,61025ae37ef11b136ea224fe,,,,,,,,,3815,-68.95703125,37.84375,1,0,0,response7disk,,1,-15.28515625,10.875,1,0,0,rectangle,-15.28515625,10.875,1,0,0,-15.28515625,10.875,1,0,0,0,63,63,86,1,,,,,,,,
,,,,,,,,,,,,,FF,,,,,,,,0.91708,,,,,,,,,,,,,,,,,,,,,,60ff76d6c604411be3f09861,61036d7cdaa4d7d2a8d929b4,2021-07-29_23h16.09.825,Simcolourproject_2stim_asymm_v5,2020.2.10,MacIntel,60,61025ae37ef11b136ea224fe,,,,,,,,,3677,-64.39453125,23.7421875,1,0,0,response7disk,,1,-4.19140625,-0.078125,1,0,0,rectangle,-4.19140625,-0.078125,1,0,0,-4.19140625,-0.078125,1,0,0,0,64,64,27,1,,,,,,,,
,,,,,,,,,,,,,FF,,,,,,,,1.166795,,,,,,,,,,,,,,,,,,,,,,60ff76d6c604411be3f09861,61036d7cdaa4d7d2a8d929b4,2021-07-29_23h16.09.825,Simcolourproject_2stim_asymm_v5,2020.2.10,MacIntel,60,61025ae37ef11b136ea224fe,,,,,,,,,3458,39.98046875,82.0859375,1,0,0,response1disk,,7,11.9609375,1.890625,1,0,0,rectangle,11.9609375,1.890625,1,0,0,11.9609375,1.890625,1,0,0,0,65,65,21,1,,,,,,,,
,,,,,,,,,,,,,FF,,,,,,,,2.417565,,,,,,,,,,,,,,,,,,,,,,60ff76d6c604411be3f09861,61036d7cdaa4d7d2a8d929b4,2021-07-29_23h16.09.825,Simcolourproject_2stim_asymm_v5,2020.2.10,MacIntel,60,61025ae37ef11b136ea224fe,,,,,,,,,3220,80.68359375,35.28125,1,0,0,response1disk,,6,-6.9453125,0.17578125,1,0,0,rectangle,-6.9453125,0.17578125,1,0,0,-6.9453125,0.17578125,1,0,0,0,66,66,147,1,,,,,,,,
,,,,,,,,,,,,,FF,,,,,,,,2.06598,,,,,,,,,,,,,,,,,,,,,,60ff76d6c604411be3f09861,61036d7cdaa4d7d2a8d929b4,2021-07-29_23h16.09.825,Simcolourproject_2stim_asymm_v5,2020.2.10,MacIntel,60,61025ae37ef11b136ea224fe,,,,,,,,,1976,74.0625,27.57421875,1,0,0,response1disk,,6,7.828125,11.2109375,1,0,0,rectangle,7.828125,11.2109375,1,0,0,7.828125,11.2109375,1,0,0,0,67,67,37,1,,,,,,,,
,,,,,,,,,,,,,FF,,,,,,,,3.499445,,,,,,,,,,,,,,,,,,,,,,60ff76d6c604411be3f09861,61036d7cdaa4d7d2a8d929b4,2021-07-29_23h16.09.825,Simcolourproject_2stim_asymm_v5,2020.2.10,MacIntel,60,61025ae37ef11b136ea224fe,,,,,,,,,3378,36.95703125,61.26171875,1,0,0,response1disk,,7,-3.50390625,4.609375,1,0,0,rectangle,-3.50390625,4.609375,1,0,0,-3.50390625,4.609375,1,0,0,0,68,68,111,1,,,,,,,,
,,,,,,,,,,,,,FF,,,,,,,,1.71789,,,,,,,,,,,,,,,,,,,,,,60ff76d6c604411be3f09861,61036d7cdaa4d7d2a8d929b4,2021-07-29_23h16.09.825,Simcolourproject_2stim_asymm_v5,2020.2.10,MacIntel,60,61025ae37ef11b136ea224fe,,,,,,,,,2134,25.375,47.6015625,1,0,0,response1disk,,7,4.90625,0.234375,1,0,0,rectangle,4.90625,0.234375,1,0,0,4.90625,0.234375,1,0,0,0,69,69,73,1,,,,,,,,
,,,,,,,,,,,,,FF,,,,,,,,6.55093,,,,,,,,,,,,,,,,,,,,,,60ff76d6c604411be3f09861,61036d7cdaa4d7d2a8d929b4,2021-07-29_23h16.09.825,Simcolourproject_2stim_asymm_v5,2020.2.10,MacIntel,60,61025ae37ef11b136ea224fe,,,,,,,,,2458,88.68359375,-69.19921875,1,0,0,response3disk,,5,18.17578125,-3.0234375,1,0,0,rectangle,18.17578125,-3.0234375,1,0,0,18.17578125,-3.0234375,1,0,0,0,70,70,138,1,,,,,,,,
,,,,,,,,,,,,,FF,,,,,,,,1.48271,,,,,,,,,,,,,,,,,,,,,,60ff76d6c604411be3f09861,61036d7cdaa4d7d2a8d929b4,2021-07-29_23h16.09.825,Simcolourproject_2stim_asymm_v5,2020.2.10,MacIntel,60,61025ae37ef11b136ea224fe,,,,,,,,,1224,39.56640625,-89.32421875,1,0,0,response3disk,,4,-10.8046875,-1.58203125,1,0,0,rectangle,-10.8046875,-1.58203125,1,0,0,-10.8046875,-1.58203125,1,0,0,0,71,71,12,1,,,,,,,,
,,,,,,,,,,,,,FF,,,,,,,,1.850685,,,,,,,,,,,,,,,,,,,,,,60ff76d6c604411be3f09861,61036d7cdaa4d7d2a8d929b4,2021-07-29_23h16.09.825,Simcolourproject_2stim_asymm_v5,2020.2.10,MacIntel,60,61025ae37ef11b136ea224fe,,,,,,,,,1919,63.61328125,27.0859375,1,0,0,response1disk,,6,6.5546875,2.3046875,1,0,0,rectangle,6.5546875,2.3046875,1,0,0,6.5546875,2.3046875,1,0,0,0,72,72,20,1,,,,,,,,
,,,,,,,,,,,,,FF,,,,,,,,0.732685,,,,,,,,,,,,,,,,,,,,,,60ff76d6c604411be3f09861,61036d7cdaa4d7d2a8d929b4,2021-07-29_23h16.09.825,Simcolourproject_2stim_asymm_v5,2020.2.10,MacIntel,60,61025ae37ef11b136ea224fe,,,,,,,,,3320,28.51953125,56.4296875,1,0,0,response1disk,,7,-0.0625,-4.8828125,1,0,0,rectangle,-0.0625,-4.8828125,1,0,0,-0.0625,-4.8828125,1,0,0,0,73,73,114,1,,,,,,,,
,,,,,,,,,,,,,FF,,,,,,,,1.73234,,,,,,,,,,,,,,,,,,,,,,60ff76d6c604411be3f09861,61036d7cdaa4d7d2a8d929b4,2021-07-29_23h16.09.825,Simcolourproject_2stim_asymm_v5,2020.2.10,MacIntel,60,61025ae37ef11b136ea224fe,,,,,,,,,889,-29.453125,-62.2109375,1,0,0,response5disk,,3,5.49609375,-8.29296875,1,0,0,rectangle,5.49609375,-8.29296875,1,0,0,5.49609375,-8.29296875,1,0,0,0,74,74,57,1,,,,,,,,
,,,,,,,,,,,,,FF,,,,,,,,1.84912,,,,,,,,,,,,,,,,,,,,,,60ff76d6c604411be3f09861,61036d7cdaa4d7d2a8d929b4,2021-07-29_23h16.09.825,Simcolourproject_2stim_asymm_v5,2020.2.10,MacIntel,60,61025ae37ef11b136ea224fe,,,,,,,,,3181,51.73828125,-89.5859375,1,0,0,response3disk,,4,2.046875,3.51953125,1,0,0,rectangle,2.046875,3.51953125,1,0,0,2.046875,3.51953125,1,0,0,0,75,75,17,1,,,,,,,,
,,,,,,,,,,,,,FF,,,,,,,,1.700675,,,,,,,,,,,,,,,,,,,,,,60ff76d6c604411be3f09861,61036d7cdaa4d7d2a8d929b4,2021-07-29_23h16.09.825,Simcolourproject_2stim_asymm_v5,2020.2.10,MacIntel,60,61025ae37ef11b136ea224fe,,,,,,,,,2092,28.0703125,37.8125,1,0,0,response1disk,,7,-4.015625,-15.85546875,1,0,0,rectangle,-4.015625,-15.85546875,1,0,0,-4.015625,-15.85546875,1,0,0,0,76,76,66,1,,,,,,,,
,,,,,,,,,,,,,FF,,,,,,,,1.73368,,,,,,,,,,,,,,,,,,,,,,60ff76d6c604411be3f09861,61036d7cdaa4d7d2a8d929b4,2021-07-29_23h16.09.825,Simcolourproject_2stim_asymm_v5,2020.2.10,MacIntel,60,61025ae37ef11b136ea224fe,,,,,,,,,3404,61.55078125,-33.97265625,1,0,0,response3disk,,5,-5.30859375,3.71484375,1,0,0,rectangle,-5.30859375,3.71484375,1,0,0,-5.30859375,3.71484375,1,0,0,0,77,77,99,1,,,,,,,,
,,,,,,,,,,,,,FF,,,,,,,,1.166975,,,,,,,,,,,,,,,,,,,,,,60ff76d6c604411be3f09861,61036d7cdaa4d7d2a8d929b4,2021-07-29_23h16.09.825,Simcolourproject_2stim_asymm_v5,2020.2.10,MacIntel,60,61025ae37ef11b136ea224fe,,,,,,,,,115,62.9375,28.74609375,1,0,0,response1disk,,6,13.94140625,11.53515625,1,0,0,rectangle,13.94140625,11.53515625,1,0,0,13.94140625,11.53515625,1,0,0,0,78,78,89,1,,,,,,,,
,,,,,,,,,,,,,FF,,,,,,,,2.20089,,,,,,,,,,,,,,,,,,,,,,60ff76d6c604411be3f09861,61036d7cdaa4d7d2a8d929b4,2021-07-29_23h16.09.825,Simcolourproject_2stim_asymm_v5,2020.2.10,MacIntel,60,61025ae37ef11b136ea224fe,,,,,,,,,2531,65.4140625,-36.8046875,1,0,0,response3disk,,5,13.78515625,-11.4375,1,0,0,rectangle,13.78515625,-11.4375,1,0,0,13.78515625,-11.4375,1,0,0,0,79,79,60,1,,,,,,,,
,,,,,,,,,,,,,FF,,,,,,,,2.08354,,,,,,,,,,,,,,,,,,,,,,60ff76d6c604411be3f09861,61036d7cdaa4d7d2a8d929b4,2021-07-29_23h16.09.825,Simcolourproject_2stim_asymm_v5,2020.2.10,MacIntel,60,61025ae37ef11b136ea224fe,,,,,,,,,2950,70.91015625,30.00390625,1,0,0,response1disk,,6,4.953125,1.82421875,1,0,0,rectangle,4.953125,1.82421875,1,0,0,4.953125,1.82421875,1,0,0,0,80,80,49,1,,,,,,,,
,,,,,,,,,,,,,FF,,,,,,,,2.96743,,,,,,,,,,,,,,,,,,,,,,60ff76d6c604411be3f09861,61036d7cdaa4d7d2a8d929b4,2021-07-29_23h16.09.825,Simcolourproject_2stim_asymm_v5,2020.2.10,MacIntel,60,61025ae37ef11b136ea224fe,,,,,,,,,190,-79.32421875,-43.8046875,1,0,0,response5disk,,2,11.66796875,-0.3359375,1,0,0,rectangle,11.66796875,-0.3359375,1,0,0,11.66796875,-0.3359375,1,0,0,0,81,81,124,1,,,,,,,,
,,,,,,,,,,,,,FF,,,,,,,,2.16658,,,,,,,,,,,,,,,,,,,,,,60ff76d6c604411be3f09861,61036d7cdaa4d7d2a8d929b4,2021-07-29_23h16.09.825,Simcolourproject_2stim_asymm_v5,2020.2.10,MacIntel,60,61025ae37ef11b136ea224fe,,,,,,,,,3959,28.8671875,34.28125,1,0,0,response1disk,,7,3.96875,-14.296875,1,0,0,rectangle,3.96875,-14.296875,1,0,0,3.96875,-14.296875,1,0,0,0,82,82,34,1,,,,,,,,
,,,,,,,,,,,,,FF,,,,,,,,1.151565,,,,,,,,,,,,,,,,,,,,,,60ff76d6c604411be3f09861,61036d7cdaa4d7d2a8d929b4,2021-07-29_23h16.09.825,Simcolourproject_2stim_asymm_v5,2020.2.10,MacIntel,60,61025ae37ef11b136ea224fe,,,,,,,,,2316,51.46875,-37.5,1,0,0,response3disk,,5,5.60546875,-14.3203125,1,0,0,rectangle,5.60546875,-14.3203125,1,0,0,5.60546875,-14.3203125,1,0,0,0,83,83,52,1,,,,,,,,
,,,,,,,,,,,,,FF,,,,,,,,0.918115,,,,,,,,,,,,,,,,,,,,,,60ff76d6c604411be3f09861,61036d7cdaa4d7d2a8d929b4,2021-07-29_23h16.09.825,Simcolourproject_2stim_asymm_v5,2020.2.10,MacIntel,60,61025ae37ef11b136ea224fe,,,,,,,,,1131,-38.76171875,62.92578125,1,0,0,response7disk,,0,-9.828125,-2.9296875,1,0,0,rectangle,-9.828125,-2.9296875,1,0,0,-9.828125,-2.9296875,1,0,0,0,84,84,113,1,,,,,,,,
,,,,,,,,,,,,,FF,,,,,,,,2.800755,,,,,,,,,,,,,,,,,,,,,,60ff76d6c604411be3f09861,61036d7cdaa4d7d2a8d929b4,2021-07-29_23h16.09.825,Simcolourproject_2stim_asymm_v5,2020.2.10,MacIntel,60,61025ae37ef11b136ea224fe,,,,,,,,,4016,47.53125,34.27734375,1,0,0,response1disk,,6,5.859375,5.72265625,1,0,0,rectangle,5.859375,5.72265625,1,0,0,5.859375,5.72265625,1,0,0,0,85,85,159,1,,,,,,,,
,,,,,,,,,,,,,FF,,,,,,,,1.93364,,,,,,,,,,,,,,,,,,,,,,60ff76d6c604411be3f09861,61036d7cdaa4d7d2a8d929b4,2021-07-29_23h16.09.825,Simcolourproject_2stim_asymm_v5,2020.2.10,MacIntel,60,61025ae37ef11b136ea224fe,,,,,,,,,257,-82.95703125,-59.328125,1,0,0,response5disk,,2,-7.25390625,-5.86328125,1,0,0,rectangle,-7.25390625,-5.86328125,1,0,0,-7.25390625,-5.86328125,1,0,0,0,86,86,100,1,,,,,,,,
,,,,,,,,,,,,,FF,,,,,,,,1.91704,,,,,,,,,,,,,,,,,,,,,,60ff76d6c604411be3f09861,61036d7cdaa4d7d2a8d929b4,2021-07-29_23h16.09.825,Simcolourproject_2stim_asymm_v5,2020.2.10,MacIntel,60,61025ae37ef11b136ea224fe,,,,,,,,,1360,41.97265625,-82.55078125,1,0,0,response3disk,,4,1.171875,-0.6796875,1,0,0,rectangle,1.171875,-0.6796875,1,0,0,1.171875,-0.6796875,1,0,0,0,87,87,158,1,,,,,,,,
,,,,,,,,,,,,,FF,,,,,,,,2.016365,,,,,,,,,,,,,,,,,,,,,,60ff76d6c604411be3f09861,61036d7cdaa4d7d2a8d929b4,2021-07-29_23h16.09.825,Simcolourproject_2stim_asymm_v5,2020.2.10,MacIntel,60,61025ae37ef11b136ea224fe,,,,,,,,,1260,23.34765625,-68.0390625,1,0,0,response3disk,,4,-2.27734375,-16.203125,1,0,0,rectangle,-2.27734375,-16.203125,1,0,0,-2.27734375,-16.203125,1,0,0,0,88,88,45,1,,,,,,,,
,,,,,,,,,,,,,FF,,,,,,,,2.515775,,,,,,,,,,,,,,,,,,,,,,60ff76d6c604411be3f09861,61036d7cdaa4d7d2a8d929b4,2021-07-29_23h16.09.825,Simcolourproject_2stim_asymm_v5,2020.2.10,MacIntel,60,61025ae37ef11b136ea224fe,,,,,,,,,3034,61.796875,52.21484375,1,0,0,response1disk,,6,5.50390625,-2.15625,1,0,0,rectangle,5.50390625,-2.15625,1,0,0,5.50390625,-2.15625,1,0,0,0,89,89,97,1,,,,,,,,
,,,,,,,,,,,,,FF,,,,,,,,2.450965,,,,,,,,,,,,,,,,,,,,,,60ff76d6c604411be3f09861,61036d7cdaa4d7d2a8d929b4,2021-07-29_23h16.09.825,Simcolourproject_2stim_asymm_v5,2020.2.10,MacIntel,60,61025ae37ef11b136ea224fe,,,,,,,,,3982,46.59765625,23.6015625,1,0,0,response1disk,,6,12.46484375,3.94140625,1,0,0,rectangle,12.46484375,3.94140625,1,0,0,12.46484375,3.94140625,1,0,0,0,90,90,152,1,,,,,,,,
,,,,,,,,,,,,,FF,,,,,,,,1.234805,,,,,,,,,,,,,,,,,,,,,,60ff76d6c604411be3f09861,61036d7cdaa4d7d2a8d929b4,2021-07-29_23h16.09.825,Simcolourproject_2stim_asymm_v5,2020.2.10,MacIntel,60,61025ae37ef11b136ea224fe,,,,,,,,,2919,-41.74609375,-110.3515625,1,0,0,response5disk,,3,2.6015625,-10.08203125,1,0,0,rectangle,2.6015625,-10.08203125,1,0,0,2.6015625,-10.08203125,1,0,0,0,91,91,157,1,,,,,,,,
,,,,,,,,,,,,,FF,,,,,,,,3.50123,,,,,,,,,,,,,,,,,,,,,,60ff76d6c604411be3f09861,61036d7cdaa4d7d2a8d929b4,2021-07-29_23h16.09.825,Simcolourproject_2stim_asymm_v5,2020.2.10,MacIntel,60,61025ae37ef11b136ea224fe,,,,,,,,,2582,68.9140625,-29.93359375,1,0,0,response3disk,,5,18.921875,-12.9609375,1,0,0,rectangle,18.921875,-12.9609375,1,0,0,18.921875,-12.9609375,1,0,0,0,92,92,53,1,,,,,,,,
,,,,,,,,,,,,,FF,,,,,,,,1.96699,,,,,,,,,,,,,,,,,,,,,,60ff76d6c604411be3f09861,61036d7cdaa4d7d2a8d929b4,2021-07-29_23h16.09.825,Simcolourproject_2stim_asymm_v5,2020.2.10,MacIntel,60,61025ae37ef11b136ea224fe,,,,,,,,,1155,78.6640625,50.19921875,1,0,0,response1disk,,6,6.796875,3.23046875,1,0,0,rectangle,6.796875,3.23046875,1,0,0,6.796875,3.23046875,1,0,0,0,93,93,30,1,,,,,,,,
,,,,,,,,,,,,,FF,,,,,,,,3.716035,,,,,,,,,,,,,,,,,,,,,,60ff76d6c604411be3f09861,61036d7cdaa4d7d2a8d929b4,2021-07-29_23h16.09.825,Simcolourproject_2stim_asymm_v5,2020.2.10,MacIntel,60,61025ae37ef11b136ea224fe,,,,,,,,,3892,61.48046875,36.82421875,1,0,0,response1disk,,6,3.57421875,6.49609375,1,0,0,rectangle,3.57421875,6.49609375,1,0,0,3.57421875,6.49609375,1,0,0,0,94,94,44,1,,,,,,,,
,,,,,,,,,,,,,FF,,,,,,,,1.915935,,,,,,,,,,,,,,,,,,,,,,60ff76d6c604411be3f09861,61036d7cdaa4d7d2a8d929b4,2021-07-29_23h16.09.825,Simcolourproject_2stim_asymm_v5,2020.2.10,MacIntel,60,61025ae37ef11b136ea224fe,,,,,,,,,2313,75.2421875,29.98828125,1,0,0,response1disk,,6,24.2109375,1.2890625,1,0,0,rectangle,24.2109375,1.2890625,1,0,0,24.2109375,1.2890625,1,0,0,0,95,95,9,1,,,,,,,,
,,,,,,,,,,,,,FF,,,,,,,,1.21689,,,,,,,,,,,,,,,,,,,,,,60ff76d6c604411be3f09861,61036d7cdaa4d7d2a8d929b4,2021-07-29_23h16.09.825,Simcolourproject_2stim_asymm_v5,2020.2.10,MacIntel,60,61025ae37ef11b136ea224fe,,,,,,,,,2787,-44.39453125,-74.28515625,1,0,0,response5disk,,3,1.4453125,5.3203125,1,0,0,rectangle,1.4453125,5.3203125,1,0,0,1.4453125,5.3203125,1,0,0,0,96,96,23,1,,,,,,,,
,,,,,,,,,,,,,FF,,,,,,,,4.53412,,,,,,,,,,,,,,,,,,,,,,60ff76d6c604411be3f09861,61036d7cdaa4d7d2a8d929b4,2021-07-29_23h16.09.825,Simcolourproject_2stim_asymm_v5,2020.2.10,MacIntel,60,61025ae37ef11b136ea224fe,,,,,,,,,2965,84.390625,59.23046875,1,0,0,response1disk,,6,1.15625,11.0546875,1,0,0,rectangle,1.15625,11.0546875,1,0,0,1.15625,11.0546875,1,0,0,0,97,97,96,1,,,,,,,,
,,,,,,,,,,,,,FF,,,,,,,,0.850175,,,,,,,,,,,,,,,,,,,,,,60ff76d6c604411be3f09861,61036d7cdaa4d7d2a8d929b4,2021-07-29_23h16.09.825,Simcolourproject_2stim_asymm_v5,2020.2.10,MacIntel,60,61025ae37ef11b136ea224fe,,,,,,,,,2660,-21.13671875,77.4921875,1,0,0,response7disk,,0,-8.55859375,6.50390625,1,0,0,rectangle,-8.55859375,6.50390625,1,0,0,-8.55859375,6.50390625,1,0,0,0,98,98,120,1,,,,,,,,
,,,,,,,,,,,,,FF,,,,,,,,3.684425,,,,,,,,,,,,,,,,,,,,,,60ff76d6c604411be3f09861,61036d7cdaa4d7d2a8d929b4,2021-07-29_23h16.09.825,Simcolourproject_2stim_asymm_v5,2020.2.10,MacIntel,60,61025ae37ef11b136ea224fe,,,,,,,,,949,66.6953125,34.9453125,1,0,0,response1disk,,6,16.484375,-8.0703125,1,0,0,rectangle,16.484375,-8.0703125,1,0,0,16.484375,-8.0703125,1,0,0,0,99,99,92,1,,,,,,,,
,,,,,,,,,,,,,FF,,,,,,,,1.551655,,,,,,,,,,,,,,,,,,,,,,60ff76d6c604411be3f09861,61036d7cdaa4d7d2a8d929b4,2021-07-29_23h16.09.825,Simcolourproject_2stim_asymm_v5,2020.2.10,MacIntel,60,61025ae37ef11b136ea224fe,,,,,,,,,2934,-70.625,26.36328125,1,0,0,response7disk,,1,-14.58984375,9.34765625,1,0,0,rectangle,-14.58984375,9.34765625,1,0,0,-14.58984375,9.34765625,1,0,0,0,100,100,51,1,,,,,,,,
,,,,,,,,,,,,,FF,,,,,,,,3.90061,,,,,,,,,,,,,,,,,,,,,,60ff76d6c604411be3f09861,61036d7cdaa4d7d2a8d929b4,2021-07-29_23h16.09.825,Simcolourproject_2stim_asymm_v5,2020.2.10,MacIntel,60,61025ae37ef11b136ea224fe,,,,,,,,,2064,52.62109375,37.859375,1,0,0,response1disk,,6,-0.28125,-1.109375,1,0,0,rectangle,-0.28125,-1.109375,1,0,0,-0.28125,-1.109375,1,0,0,0,101,101,38,1,,,,,,,,
,,,,,,,,,,,,,FF,,,,,,,,1.43385,,,,,,,,,,,,,,,,,,,,,,60ff76d6c604411be3f09861,61036d7cdaa4d7d2a8d929b4,2021-07-29_23h16.09.825,Simcolourproject_2stim_asymm_v5,2020.2.10,MacIntel,60,61025ae37ef11b136ea224fe,,,,,,,,,2995,-38.31640625,-79.1953125,1,0,0,response5disk,,3,4.6015625,3.80859375,1,0,0,rectangle,4.6015625,3.80859375,1,0,0,4.6015625,3.80859375,1,0,0,0,102,102,117,1,,,,,,,,
,,,,,,,,,,,,,FF,,,,,,,,1.650875,,,,,,,,,,,,,,,,,,,,,,60ff76d6c604411be3f09861,61036d7cdaa4d7d2a8d929b4,2021-07-29_23h16.09.825,Simcolourproject_2stim_asymm_v5,2020.2.10,MacIntel,60,61025ae37ef11b136ea224fe,,,,,,,,,2174,-85.60546875,-36.90234375,1,0,0,response5disk,,2,-0.015625,5.94140625,1,0,0,rectangle,-0.015625,5.94140625,1,0,0,-0.015625,5.94140625,1,0,0,0,103,103,67,1,,,,,,,,
,,,,,,,,,,,,,FF,,,,,,,,1.30036,,,,,,,,,,,,,,,,,,,,,,60ff76d6c604411be3f09861,61036d7cdaa4d7d2a8d929b4,2021-07-29_23h16.09.825,Simcolourproject_2stim_asymm_v5,2020.2.10,MacIntel,60,61025ae37ef11b136ea224fe,,,,,,,,,379,67.23828125,-40.48046875,1,0,0,response3disk,,5,6.11328125,-0.34765625,1,0,0,rectangle,6.11328125,-0.34765625,1,0,0,6.11328125,-0.34765625,1,0,0,0,104,104,87,1,,,,,,,,
,,,,,,,,,,,,,FF,,,,,,,,1.30083,,,,,,,,,,,,,,,,,,,,,,60ff76d6c604411be3f09861,61036d7cdaa4d7d2a8d929b4,2021-07-29_23h16.09.825,Simcolourproject_2stim_asymm_v5,2020.2.10,MacIntel,60,61025ae37ef11b136ea224fe,,,,,,,,,385,82.375,21.8359375,1,0,0,response1disk,,6,30.578125,10.16796875,1,0,0,rectangle,30.578125,10.16796875,1,0,0,30.578125,10.16796875,1,0,0,0,105,105,62,1,,,,,,,,
,,,,,,,,,,,,,FF,,,,,,,,1.616955,,,,,,,,,,,,,,,,,,,,,,60ff76d6c604411be3f09861,61036d7cdaa4d7d2a8d929b4,2021-07-29_23h16.09.825,Simcolourproject_2stim_asymm_v5,2020.2.10,MacIntel,60,61025ae37ef11b136ea224fe,,,,,,,,,2232,80.21875,-36.5234375,1,0,0,response3disk,,5,6.23828125,6.31640625,1,0,0,rectangle,6.23828125,6.31640625,1,0,0,6.23828125,6.31640625,1,0,0,0,106,106,148,1,,,,,,,,
,,,,,,,,,,,,,FF,,,,,,,,2.250155,,,,,,,,,,,,,,,,,,,,,,60ff76d6c604411be3f09861,61036d7cdaa4d7d2a8d929b4,2021-07-29_23h16.09.825,Simcolourproject_2stim_asymm_v5,2020.2.10,MacIntel,60,61025ae37ef11b136ea224fe,,,,,,,,,4055,55.37109375,-34.2890625,1,0,0,response3disk,,5,8.48046875,-12.66015625,1,0,0,rectangle,40.02734375,-91.70703125,1,0,0,1.32421875,-3.671875,1,0,0,0,107,107,26,1,,response3disk_3,TRUE,4,6,"[286,23,27,108,290,276,150,292,233,39,177,242,223,244,119,246,155,39,179,59]",1.38399,rectangle
,,,,,,,,,,,,,FF,,,,,,,,2.117005,,,,,,,,,,,,,,,,,,,,,,60ff76d6c604411be3f09861,61036d7cdaa4d7d2a8d929b4,2021-07-29_23h16.09.825,Simcolourproject_2stim_asymm_v5,2020.2.10,MacIntel,60,61025ae37ef11b136ea224fe,,,,,,,,,2826,-34.4296875,-69.90234375,1,0,0,response5disk,,3,9.86328125,6.12109375,1,0,0,rectangle,9.86328125,6.12109375,1,0,0,9.86328125,6.12109375,1,0,0,0,108,108,137,1,,,,,,,,
,,,,,,,,,,,,,FF,,,,,,,,2.034765,,,,,,,,,,,,,,,,,,,,,,60ff76d6c604411be3f09861,61036d7cdaa4d7d2a8d929b4,2021-07-29_23h16.09.825,Simcolourproject_2stim_asymm_v5,2020.2.10,MacIntel,60,61025ae37ef11b136ea224fe,,,,,,,,,2923,31.54296875,-79.9453125,1,0,0,response3disk,,4,4.203125,4.1171875,1,0,0,rectangle,4.203125,4.1171875,1,0,0,4.203125,4.1171875,1,0,0,0,109,109,136,1,,,,,,,,
,,,,,,,,,,,,,FF,,,,,,,,1.300015,,,,,,,,,,,,,,,,,,,,,,60ff76d6c604411be3f09861,61036d7cdaa4d7d2a8d929b4,2021-07-29_23h16.09.825,Simcolourproject_2stim_asymm_v5,2020.2.10,MacIntel,60,61025ae37ef11b136ea224fe,,,,,,,,,2725,-75.0234375,26.3671875,1,0,0,response7disk,,1,-13.921875,12.9453125,1,0,0,rectangle,-13.921875,12.9453125,1,0,0,-13.921875,12.9453125,1,0,0,0,110,110,80,1,,,,,,,,
,,,,,,,,,,,,,FF,,,,,,,,1.667105,,,,,,,,,,,,,,,,,,,,,,60ff76d6c604411be3f09861,61036d7cdaa4d7d2a8d929b4,2021-07-29_23h16.09.825,Simcolourproject_2stim_asymm_v5,2020.2.10,MacIntel,60,61025ae37ef11b136ea224fe,,,,,,,,,1115,79.89453125,-40.84375,1,0,0,response3disk,,5,-1.05859375,-3.49609375,1,0,0,rectangle,-1.05859375,-3.49609375,1,0,0,-1.05859375,-3.49609375,1,0,0,0,111,111,77,1,,,,,,,,
,,,,,,,,,,,,,FF,,,,,,,,1.684365,,,,,,,,,,,,,,,,,,,,,,60ff76d6c604411be3f09861,61036d7cdaa4d7d2a8d929b4,2021-07-29_23h16.09.825,Simcolourproject_2stim_asymm_v5,2020.2.10,MacIntel,60,61025ae37ef11b136ea224fe,,,,,,,,,2358,74.05078125,-44.82421875,1,0,0,response3disk,,5,-10.33203125,-7.13671875,1,0,0,rectangle,-10.33203125,-7.13671875,1,0,0,-10.33203125,-7.13671875,1,0,0,0,112,112,101,1,,,,,,,,
,,,,,,,,,,,,,FF,,,,,,,,1.400455,,,,,,,,,,,,,,,,,,,,,,60ff76d6c604411be3f09861,61036d7cdaa4d7d2a8d929b4,2021-07-29_23h16.09.825,Simcolourproject_2stim_asymm_v5,2020.2.10,MacIntel,60,61025ae37ef11b136ea224fe,,,,,,,,,278,-78.30859375,23.98046875,1,0,0,response7disk,,1,-10.30859375,13.38671875,1,0,0,rectangle,-10.30859375,13.38671875,1,0,0,-10.30859375,13.38671875,1,0,0,0,113,113,141,1,,,,,,,,
,,,,,,,,,,,,,FF,,,,,,,,1.08374,,,,,,,,,,,,,,,,,,,,,,60ff76d6c604411be3f09861,61036d7cdaa4d7d2a8d929b4,2021-07-29_23h16.09.825,Simcolourproject_2stim_asymm_v5,2020.2.10,MacIntel,60,61025ae37ef11b136ea224fe,,,,,,,,,3665,-51.39453125,22.2734375,1,0,0,response7disk,,1,19.0390625,15.09765625,1,0,0,rectangle,19.0390625,15.09765625,1,0,0,19.0390625,15.09765625,1,0,0,0,114,114,56,1,,,,,,,,
,,,,,,,,,,,,,FF,,,,,,,,2.984395,,,,,,,,,,,,,,,,,,,,,,60ff76d6c604411be3f09861,61036d7cdaa4d7d2a8d929b4,2021-07-29_23h16.09.825,Simcolourproject_2stim_asymm_v5,2020.2.10,MacIntel,60,61025ae37ef11b136ea224fe,,,,,,,,,2507,42.1484375,79.86328125,1,0,0,response1disk,,7,-17.1015625,-3.47265625,1,0,0,rectangle,-17.1015625,-3.47265625,1,0,0,-17.1015625,-3.47265625,1,0,0,0,115,115,48,1,,,,,,,,
,,,,,,,,,,,,,FF,,,,,,,,1.468265,,,,,,,,,,,,,,,,,,,,,,60ff76d6c604411be3f09861,61036d7cdaa4d7d2a8d929b4,2021-07-29_23h16.09.825,Simcolourproject_2stim_asymm_v5,2020.2.10,MacIntel,60,61025ae37ef11b136ea224fe,,,,,,,,,4359,-66.07421875,-27.33984375,1,0,0,response5disk,,2,-2.859375,15.375,1,0,0,rectangle,-2.859375,15.375,1,0,0,-2.859375,15.375,1,0,0,0,116,116,84,1,,,,,,,,
,,,,,,,,,,,,,FF,,,,,,,,2.51685,,,,,,,,,,,,,,,,,,,,,,60ff76d6c604411be3f09861,61036d7cdaa4d7d2a8d929b4,2021-07-29_23h16.09.825,Simcolourproject_2stim_asymm_v5,2020.2.10,MacIntel,60,61025ae37ef11b136ea224fe,,,,,,,,,728,66.1484375,-37.42578125,1,0,0,response3disk,,5,-3.234375,5.3671875,1,0,0,rectangle,-3.234375,5.3671875,1,0,0,-3.234375,5.3671875,1,0,0,0,117,117,154,1,,,,,,,,
,,,,,,,,,,,,,FF,,,,,,,,1.21796,,,,,,,,,,,,,,,,,,,,,,60ff76d6c604411be3f09861,61036d7cdaa4d7d2a8d929b4,2021-07-29_23h16.09.825,Simcolourproject_2stim_asymm_v5,2020.2.10,MacIntel,60,61025ae37ef11b136ea224fe,,,,,,,,,2845,84.36328125,24.96484375,1,0,0,response1disk,,6,29.3125,-5.4453125,1,0,0,rectangle,92.58203125,43.80859375,1,0,0,-1.69921875,-9.3125,1,0,0,0,118,118,156,1,,response1disk_3,TRUE,6,6,"[286,23,27,108,290,276,150,292,233,39,177,242,223,244,119,246,155,39,179,59]",1.367105,rectangle
,,,,,,,,,,,,,FF,,,,,,,,1.13568,,,,,,,,,,,,,,,,,,,,,,60ff76d6c604411be3f09861,61036d7cdaa4d7d2a8d929b4,2021-07-29_23h16.09.825,Simcolourproject_2stim_asymm_v5,2020.2.10,MacIntel,60,61025ae37ef11b136ea224fe,,,,,,,,,3522,-75.37890625,37.4375,1,0,0,response7disk,,1,-10.21484375,13.97265625,1,0,0,rectangle,-10.21484375,13.97265625,1,0,0,-10.21484375,13.97265625,1,0,0,0,119,119,55,1,,,,,,,,
,,,,,,,,,,,,,FF,,,,,,,,1.181985,,,,,,,,,,,,,,,,,,,,,,60ff76d6c604411be3f09861,61036d7cdaa4d7d2a8d929b4,2021-07-29_23h16.09.825,Simcolourproject_2stim_asymm_v5,2020.2.10,MacIntel,60,61025ae37ef11b136ea224fe,,,,,,,,,1245,39.78515625,74.93359375,1,0,0,response1disk,,7,9.16015625,12.75390625,1,0,0,rectangle,9.16015625,12.75390625,1,0,0,9.16015625,12.75390625,1,0,0,0,120,120,74,1,,,,,,,,
,,,,,,,,,,,,,FF,,,,,,,,0.833295,,,,,,,,,,,,,,,,,,,,,,60ff76d6c604411be3f09861,61036d7cdaa4d7d2a8d929b4,2021-07-29_23h16.09.825,Simcolourproject_2stim_asymm_v5,2020.2.10,MacIntel,60,61025ae37ef11b136ea224fe,,,,,,,,,4289,41.90234375,68.66015625,1,0,0,response1disk,,7,8.6015625,-15.13671875,1,0,0,rectangle,8.6015625,-15.13671875,1,0,0,8.6015625,-15.13671875,1,0,0,0,121,121,47,1,,,,,,,,
,,,,,,,,,,,,,FF,,,,,,,,1.24999,,,,,,,,,,,,,,,,,,,,,,60ff76d6c604411be3f09861,61036d7cdaa4d7d2a8d929b4,2021-07-29_23h16.09.825,Simcolourproject_2stim_asymm_v5,2020.2.10,MacIntel,60,61025ae37ef11b136ea224fe,,,,,,,,,1042,66.4765625,45.6015625,1,0,0,response1disk,,6,8.66015625,-0.5546875,1,0,0,rectangle,8.66015625,-0.5546875,1,0,0,8.66015625,-0.5546875,1,0,0,0,122,122,40,1,,,,,,,,
,,,,,,,,,,,,,FF,,,,,,,,2.000595,,,,,,,,,,,,,,,,,,,,,,60ff76d6c604411be3f09861,61036d7cdaa4d7d2a8d929b4,2021-07-29_23h16.09.825,Simcolourproject_2stim_asymm_v5,2020.2.10,MacIntel,60,61025ae37ef11b136ea224fe,,,,,,,,,3108,82.7890625,-37.09375,1,0,0,response3disk,,5,0.671875,4.390625,1,0,0,rectangle,0.671875,4.390625,1,0,0,0.671875,4.390625,1,0,0,0,123,123,121,1,,,,,,,,
,,,,,,,,,,,,,FF,,,,,,,,1.13465,,,,,,,,,,,,,,,,,,,,,,60ff76d6c604411be3f09861,61036d7cdaa4d7d2a8d929b4,2021-07-29_23h16.09.825,Simcolourproject_2stim_asymm_v5,2020.2.10,MacIntel,60,61025ae37ef11b136ea224fe,,,,,,,,,1674,31.94921875,-69.5078125,1,0,0,response3disk,,4,4.42578125,-15.7578125,1,0,0,rectangle,4.42578125,-15.7578125,1,0,0,4.42578125,-15.7578125,1,0,0,0,124,124,139,1,,,,,,,,
,,,,,,,,,,,,,FF,,,,,,,,1.45175,,,,,,,,,,,,,,,,,,,,,,60ff76d6c604411be3f09861,61036d7cdaa4d7d2a8d929b4,2021-07-29_23h16.09.825,Simcolourproject_2stim_asymm_v5,2020.2.10,MacIntel,60,61025ae37ef11b136ea224fe,,,,,,,,,17,74.54296875,39.94921875,1,0,0,response1disk,,6,2.77734375,1.5859375,1,0,0,rectangle,2.77734375,1.5859375,1,0,0,2.77734375,1.5859375,1,0,0,0,125,125,6,1,,,,,,,,
,,,,,,,,,,,,,FF,,,,,,,,1.01751,,,,,,,,,,,,,,,,,,,,,,60ff76d6c604411be3f09861,61036d7cdaa4d7d2a8d929b4,2021-07-29_23h16.09.825,Simcolourproject_2stim_asymm_v5,2020.2.10,MacIntel,60,61025ae37ef11b136ea224fe,,,,,,,,,2645,69.9921875,32.56640625,1,0,0,response1disk,,6,8.27734375,4.16015625,1,0,0,rectangle,8.27734375,4.16015625,1,0,0,8.27734375,4.16015625,1,0,0,0,126,126,69,1,,,,,,,,
,,,,,,,,,,,,,FF,,,,,,,,1.68426,,,,,,,,,,,,,,,,,,,,,,60ff76d6c604411be3f09861,61036d7cdaa4d7d2a8d929b4,2021-07-29_23h16.09.825,Simcolourproject_2stim_asymm_v5,2020.2.10,MacIntel,60,61025ae37ef11b136ea224fe,,,,,,,,,591,31.23828125,67.55078125,1,0,0,response1disk,,7,-3.65625,-8.421875,1,0,0,rectangle,-3.65625,-8.421875,1,0,0,-3.65625,-8.421875,1,0,0,0,127,127,75,1,,,,,,,,
,,,,,,,,,,,,,FF,,,,,,,,3.184245,,,,,,,,,,,,,,,,,,,,,,60ff76d6c604411be3f09861,61036d7cdaa4d7d2a8d929b4,2021-07-29_23h16.09.825,Simcolourproject_2stim_asymm_v5,2020.2.10,MacIntel,60,61025ae37ef11b136ea224fe,,,,,,,,,196,44.3828125,36.7421875,1,0,0,response1disk,,6,2.5078125,-6.078125,1,0,0,rectangle,2.5078125,-6.078125,1,0,0,2.5078125,-6.078125,1,0,0,0,128,128,102,1,,,,,,,,
,,,,,,,,,,,,,FF,,,,,,,,2.217295,,,,,,,,,,,,,,,,,,,,,,60ff76d6c604411be3f09861,61036d7cdaa4d7d2a8d929b4,2021-07-29_23h16.09.825,Simcolourproject_2stim_asymm_v5,2020.2.10,MacIntel,60,61025ae37ef11b136ea224fe,,,,,,,,,3833,36.59375,91.39453125,1,0,0,response1disk,,7,11.63671875,12.62109375,1,0,0,rectangle,11.63671875,12.62109375,1,0,0,11.63671875,12.62109375,1,0,0,0,129,129,2,1,,,,,,,,
,,,,,,,,,,,,,FF,,,,,,,,0.76807,,,,,,,,,,,,,,,,,,,,,,60ff76d6c604411be3f09861,61036d7cdaa4d7d2a8d929b4,2021-07-29_23h16.09.825,Simcolourproject_2stim_asymm_v5,2020.2.10,MacIntel,60,61025ae37ef11b136ea224fe,,,,,,,,,2811,42.8515625,89.1171875,1,0,0,response1disk,,7,23.19921875,10.80078125,1,0,0,rectangle,23.19921875,10.80078125,1,0,0,23.19921875,10.80078125,1,0,0,0,130,130,132,1,,,,,,,,
,,,,,,,,,,,,,FF,,,,,,,,1.284545,,,,,,,,,,,,,,,,,,,,,,60ff76d6c604411be3f09861,61036d7cdaa4d7d2a8d929b4,2021-07-29_23h16.09.825,Simcolourproject_2stim_asymm_v5,2020.2.10,MacIntel,60,61025ae37ef11b136ea224fe,,,,,,,,,2127,27.546875,63.27734375,1,0,0,response1disk,,7,11.04296875,-4.59765625,1,0,0,rectangle,11.04296875,-4.59765625,1,0,0,11.04296875,-4.59765625,1,0,0,0,131,131,151,1,,,,,,,,
,,,,,,,,,,,,,FF,,,,,,,,2.98364,,,,,,,,,,,,,,,,,,,,,,60ff76d6c604411be3f09861,61036d7cdaa4d7d2a8d929b4,2021-07-29_23h16.09.825,Simcolourproject_2stim_asymm_v5,2020.2.10,MacIntel,60,61025ae37ef11b136ea224fe,,,,,,,,,3024,84.03515625,32.68359375,1,0,0,response1disk,,6,27.3984375,14.546875,1,0,0,rectangle,27.3984375,14.546875,1,0,0,27.3984375,14.546875,1,0,0,0,132,132,54,1,,,,,,,,
,,,,,,,,,,,,,FF,,,,,,,,1.733525,,,,,,,,,,,,,,,,,,,,,,60ff76d6c604411be3f09861,61036d7cdaa4d7d2a8d929b4,2021-07-29_23h16.09.825,Simcolourproject_2stim_asymm_v5,2020.2.10,MacIntel,60,61025ae37ef11b136ea224fe,,,,,,,,,3867,95.375,-34.61328125,1,0,0,response3disk,,5,28.44921875,-9.87109375,1,0,0,rectangle,28.44921875,-9.87109375,1,0,0,28.44921875,-9.87109375,1,0,0,0,133,133,90,1,,,,,,,,
,,,,,,,,,,,,,FF,,,,,,,,2.2832,,,,,,,,,,,,,,,,,,,,,,60ff76d6c604411be3f09861,61036d7cdaa4d7d2a8d929b4,2021-07-29_23h16.09.825,Simcolourproject_2stim_asymm_v5,2020.2.10,MacIntel,60,61025ae37ef11b136ea224fe,,,,,,,,,216,100.9257813,35.7734375,1,0,0,response1disk,,6,17.78515625,2.26953125,1,0,0,rectangle,17.78515625,2.26953125,1,0,0,17.78515625,2.26953125,1,0,0,0,134,134,13,1,,,,,,,,
,,,,,,,,,,,,,FF,,,,,,,,0.84928,,,,,,,,,,,,,,,,,,,,,,60ff76d6c604411be3f09861,61036d7cdaa4d7d2a8d929b4,2021-07-29_23h16.09.825,Simcolourproject_2stim_asymm_v5,2020.2.10,MacIntel,60,61025ae37ef11b136ea224fe,,,,,,,,,717,-25.93359375,58.6015625,1,0,0,response7disk,,0,3.34765625,-11.890625,1,0,0,rectangle,3.34765625,-11.890625,1,0,0,3.34765625,-11.890625,1,0,0,0,135,135,8,1,,,,,,,,
,,,,,,,,,,,,,FF,,,,,,,,2.56783,,,,,,,,,,,,,,,,,,,,,,60ff76d6c604411be3f09861,61036d7cdaa4d7d2a8d929b4,2021-07-29_23h16.09.825,Simcolourproject_2stim_asymm_v5,2020.2.10,MacIntel,60,61025ae37ef11b136ea224fe,,,,,,,,,266,29.13671875,-53.36328125,1,0,0,response3disk,,4,15.828125,-8.453125,1,0,0,rectangle,15.828125,-8.453125,1,0,0,15.828125,-8.453125,1,0,0,0,136,136,149,1,,,,,,,,
,,,,,,,,,,,,,FF,,,,,,,,1.851645,,,,,,,,,,,,,,,,,,,,,,60ff76d6c604411be3f09861,61036d7cdaa4d7d2a8d929b4,2021-07-29_23h16.09.825,Simcolourproject_2stim_asymm_v5,2020.2.10,MacIntel,60,61025ae37ef11b136ea224fe,,,,,,,,,1871,82.6640625,-38.07421875,1,0,0,response3disk,,5,1.765625,-6.97265625,1,0,0,rectangle,1.765625,-6.97265625,1,0,0,1.765625,-6.97265625,1,0,0,0,137,137,16,1,,,,,,,,
,,,,,,,,,,,,,FF,,,,,,,,1.98367,,,,,,,,,,,,,,,,,,,,,,60ff76d6c604411be3f09861,61036d7cdaa4d7d2a8d929b4,2021-07-29_23h16.09.825,Simcolourproject_2stim_asymm_v5,2020.2.10,MacIntel,60,61025ae37ef11b136ea224fe,,,,,,,,,517,78.76953125,-40.67578125,1,0,0,response3disk,,5,16.4140625,0.8046875,1,0,0,rectangle,16.4140625,0.8046875,1,0,0,16.4140625,0.8046875,1,0,0,0,138,138,105,1,,,,,,,,
,,,,,,,,,,,,,FF,,,,,,,,3.266045,,,,,,,,,,,,,,,,,,,,,,60ff76d6c604411be3f09861,61036d7cdaa4d7d2a8d929b4,2021-07-29_23h16.09.825,Simcolourproject_2stim_asymm_v5,2020.2.10,MacIntel,60,61025ae37ef11b136ea224fe,,,,,,,,,4348,77.3359375,31.5859375,1,0,0,response1disk,,6,-2.1328125,8.08984375,1,0,0,rectangle,-2.1328125,8.08984375,1,0,0,-2.1328125,8.08984375,1,0,0,0,139,139,39,1,,,,,,,,
,,,,,,,,,,,,,FF,,,,,,,,1.300295,,,,,,,,,,,,,,,,,,,,,,60ff76d6c604411be3f09861,61036d7cdaa4d7d2a8d929b4,2021-07-29_23h16.09.825,Simcolourproject_2stim_asymm_v5,2020.2.10,MacIntel,60,61025ae37ef11b136ea224fe,,,,,,,,,1644,41.64453125,85.65625,1,0,0,response1disk,,7,9.03515625,-11.84375,1,0,0,rectangle,9.03515625,-11.84375,1,0,0,9.03515625,-11.84375,1,0,0,0,140,140,50,1,,,,,,,,
,,,,,,,,,,,,,FF,,,,,,,,1.417025,,,,,,,,,,,,,,,,,,,,,,60ff76d6c604411be3f09861,61036d7cdaa4d7d2a8d929b4,2021-07-29_23h16.09.825,Simcolourproject_2stim_asymm_v5,2020.2.10,MacIntel,60,61025ae37ef11b136ea224fe,,,,,,,,,1269,77.609375,16.28515625,1,0,0,response1disk,,6,-3.2265625,-14.41015625,1,0,0,rectangle,-3.2265625,-14.41015625,1,0,0,-3.2265625,-14.41015625,1,0,0,0,141,141,7,1,,,,,,,,
,,,,,,,,,,,,,FF,,,,,,,,4.583115,,,,,,,,,,,,,,,,,,,,,,60ff76d6c604411be3f09861,61036d7cdaa4d7d2a8d929b4,2021-07-29_23h16.09.825,Simcolourproject_2stim_asymm_v5,2020.2.10,MacIntel,60,61025ae37ef11b136ea224fe,,,,,,,,,1847,94.171875,34.09375,1,0,0,response1disk,,6,9.53515625,5.484375,1,0,0,rectangle,9.53515625,5.484375,1,0,0,9.53515625,5.484375,1,0,0,0,142,142,104,1,,,,,,,,
,,,,,,,,,,,,,FF,,,,,,,,1.550195,,,,,,,,,,,,,,,,,,,,,,60ff76d6c604411be3f09861,61036d7cdaa4d7d2a8d929b4,2021-07-29_23h16.09.825,Simcolourproject_2stim_asymm_v5,2020.2.10,MacIntel,60,61025ae37ef11b136ea224fe,,,,,,,,,2773,66.73828125,35.8828125,1,0,0,response1disk,,6,11.765625,10.94921875,1,0,0,rectangle,11.765625,10.94921875,1,0,0,11.765625,10.94921875,1,0,0,0,143,143,63,1,,,,,,,,
,,,,,,,,,,,,,FF,,,,,,,,1.68475,,,,,,,,,,,,,,,,,,,,,,60ff76d6c604411be3f09861,61036d7cdaa4d7d2a8d929b4,2021-07-29_23h16.09.825,Simcolourproject_2stim_asymm_v5,2020.2.10,MacIntel,60,61025ae37ef11b136ea224fe,,,,,,,,,3148,-34.578125,-69.09375,1,0,0,response5disk,,3,-3.4296875,-0.69140625,1,0,0,rectangle,-3.4296875,-0.69140625,1,0,0,-3.4296875,-0.69140625,1,0,0,0,144,144,119,1,,,,,,,,
,,,,,,,,,,,,,FF,,,,,,,,1.066125,,,,,,,,,,,,,,,,,,,,,,60ff76d6c604411be3f09861,61036d7cdaa4d7d2a8d929b4,2021-07-29_23h16.09.825,Simcolourproject_2stim_asymm_v5,2020.2.10,MacIntel,60,61025ae37ef11b136ea224fe,,,,,,,,,2664,-32.5859375,-79.9609375,1,0,0,response5disk,,3,-15.9765625,12.3515625,1,0,0,rectangle,-15.9765625,12.3515625,1,0,0,-15.9765625,12.3515625,1,0,0,0,145,145,35,1,,,,,,,,
,,,,,,,,,,,,,FF,,,,,,,,0.90076,,,,,,,,,,,,,,,,,,,,,,60ff76d6c604411be3f09861,61036d7cdaa4d7d2a8d929b4,2021-07-29_23h16.09.825,Simcolourproject_2stim_asymm_v5,2020.2.10,MacIntel,60,61025ae37ef11b136ea224fe,,,,,,,,,1730,29.953125,82.87890625,1,0,0,response1disk,,7,4.0859375,8.67578125,1,0,0,rectangle,4.0859375,8.67578125,1,0,0,4.0859375,8.67578125,1,0,0,0,146,146,5,1,,,,,,,,
,,,,,,,,,,,,,FF,,,,,,,,0.85014,,,,,,,,,,,,,,,,,,,,,,60ff76d6c604411be3f09861,61036d7cdaa4d7d2a8d929b4,2021-07-29_23h16.09.825,Simcolourproject_2stim_asymm_v5,2020.2.10,MacIntel,60,61025ae37ef11b136ea224fe,,,,,,,,,2949,26.58984375,60.88671875,1,0,0,response1disk,,7,-1.6640625,0.4765625,1,0,0,rectangle,-1.6640625,0.4765625,1,0,0,-1.6640625,0.4765625,1,0,0,0,147,147,43,1,,,,,,,,
,,,,,,,,,,,,,FF,,,,,,,,3.515995,,,,,,,,,,,,,,,,,,,,,,60ff76d6c604411be3f09861,61036d7cdaa4d7d2a8d929b4,2021-07-29_23h16.09.825,Simcolourproject_2stim_asymm_v5,2020.2.10,MacIntel,60,61025ae37ef11b136ea224fe,,,,,,,,,12,79.86328125,26.984375,1,0,0,response1disk,,6,19.19921875,10.9453125,1,0,0,rectangle,19.19921875,10.9453125,1,0,0,19.19921875,10.9453125,1,0,0,0,148,148,24,1,,,,,,,,
,,,,,,,,,,,,,FF,,,,,,,,2.166245,,,,,,,,,,,,,,,,,,,,,,60ff76d6c604411be3f09861,61036d7cdaa4d7d2a8d929b4,2021-07-29_23h16.09.825,Simcolourproject_2stim_asymm_v5,2020.2.10,MacIntel,60,61025ae37ef11b136ea224fe,,,,,,,,,739,44.42578125,-64.03125,1,0,0,response3disk,,4,17.37109375,-10.4296875,1,0,0,rectangle,-35.83203125,80.13671875,1,0,0,-8.36328125,6.84765625,1,0,0,0,149,149,112,1,,response7disk_3,TRUE,0,0,"[286,23,27,108,290,276,150,292,233,39,177,242,223,244,119,246,155,39,179,59]",1.80061,rectangle
,,,,,,,,,,,,,FF,,,,,,,,3.584345,,,,,,,,,,,,,,,,,,,,,,60ff76d6c604411be3f09861,61036d7cdaa4d7d2a8d929b4,2021-07-29_23h16.09.825,Simcolourproject_2stim_asymm_v5,2020.2.10,MacIntel,60,61025ae37ef11b136ea224fe,,,,,,,,,396,28.171875,-83.2734375,1,0,0,response3disk,,4,8.0390625,-0.41796875,1,0,0,rectangle,8.0390625,-0.41796875,1,0,0,8.0390625,-0.41796875,1,0,0,0,150,150,76,1,,,,,,,,
,,,,,,,,,,,,,FF,,,,,,,,2.23385,,,,,,,,,,,,,,,,,,,,,,60ff76d6c604411be3f09861,61036d7cdaa4d7d2a8d929b4,2021-07-29_23h16.09.825,Simcolourproject_2stim_asymm_v5,2020.2.10,MacIntel,60,61025ae37ef11b136ea224fe,,,,,,,,,1586,32.99609375,-79.4921875,1,0,0,response3disk,,4,14.625,0.09375,1,0,0,rectangle,14.625,0.09375,1,0,0,14.625,0.09375,1,0,0,0,151,151,33,1,,,,,,,,
,,,,,,,,,,,,,FF,,,,,,,,1.251565,,,,,,,,,,,,,,,,,,,,,,60ff76d6c604411be3f09861,61036d7cdaa4d7d2a8d929b4,2021-07-29_23h16.09.825,Simcolourproject_2stim_asymm_v5,2020.2.10,MacIntel,60,61025ae37ef11b136ea224fe,,,,,,,,,3086,32.4609375,73.54296875,1,0,0,response1disk,,7,14.87109375,5.34765625,1,0,0,rectangle,14.87109375,5.34765625,1,0,0,14.87109375,5.34765625,1,0,0,0,152,152,25,1,,,,,,,,
,,,,,,,,,,,,,FF,,,,,,,,2.08236,,,,,,,,,,,,,,,,,,,,,,60ff76d6c604411be3f09861,61036d7cdaa4d7d2a8d929b4,2021-07-29_23h16.09.825,Simcolourproject_2stim_asymm_v5,2020.2.10,MacIntel,60,61025ae37ef11b136ea224fe,,,,,,,,,3014,92.65625,-62.7734375,1,0,0,response3disk,,5,22.60546875,-13.484375,1,0,0,rectangle,22.60546875,-13.484375,1,0,0,22.60546875,-13.484375,1,0,0,0,153,153,106,1,,,,,,,,
,,,,,,,,,,,,,FF,,,,,,,,1.01692,,,,,,,,,,,,,,,,,,,,,,60ff76d6c604411be3f09861,61036d7cdaa4d7d2a8d929b4,2021-07-29_23h16.09.825,Simcolourproject_2stim_asymm_v5,2020.2.10,MacIntel,60,61025ae37ef11b136ea224fe,,,,,,,,,2321,36.34765625,66,1,0,0,response1disk,,7,18.37890625,-0.6015625,1,0,0,rectangle,42.66796875,-94.01171875,1,0,0,14.6015625,-5.7265625,1,0,0,0,154,154,46,1,,response3disk_3,TRUE,4,4,"[286,23,27,108,290,276,150,292,233,39,177,242,223,244,119,246,155,39,179,59]",1.34997,rectangle
,,,,,,,,,,,,,FF,,,,,,,,2.75054,,,,,,,,,,,,,,,,,,,,,,60ff76d6c604411be3f09861,61036d7cdaa4d7d2a8d929b4,2021-07-29_23h16.09.825,Simcolourproject_2stim_asymm_v5,2020.2.10,MacIntel,60,61025ae37ef11b136ea224fe,,,,,,,,,1731,80.6171875,26.16796875,1,0,0,response1disk,,6,20.765625,15.25390625,1,0,0,rectangle,20.765625,15.25390625,1,0,0,20.765625,15.25390625,1,0,0,0,155,155,83,1,,,,,,,,
,,,,,,,,,,,,,FF,,,,,,,,2.15022,,,,,,,,,,,,,,,,,,,,,,60ff76d6c604411be3f09861,61036d7cdaa4d7d2a8d929b4,2021-07-29_23h16.09.825,Simcolourproject_2stim_asymm_v5,2020.2.10,MacIntel,60,61025ae37ef11b136ea224fe,,,,,,,,,2236,46.28125,-66.28125,1,0,0,response3disk,,4,5.37890625,-10.32421875,1,0,0,rectangle,5.37890625,-10.32421875,1,0,0,5.37890625,-10.32421875,1,0,0,0,156,156,72,1,,,,,,,,
,,,,,,,,,,,,,FF,,,,,,,,1.399125,,,,,,,,,,,,,,,,,,,,,,60ff76d6c604411be3f09861,61036d7cdaa4d7d2a8d929b4,2021-07-29_23h16.09.825,Simcolourproject_2stim_asymm_v5,2020.2.10,MacIntel,60,61025ae37ef11b136ea224fe,,,,,,,,,1474,36.17578125,71.76171875,1,0,0,response1disk,,7,20.30078125,11.68359375,1,0,0,rectangle,20.30078125,11.68359375,1,0,0,20.30078125,11.68359375,1,0,0,0,157,157,115,1,,,,,,,,
,,,,,,,,,,,,,FF,,,,,,,,1.199875,,,,,,,,,,,,,,,,,,,,,,60ff76d6c604411be3f09861,61036d7cdaa4d7d2a8d929b4,2021-07-29_23h16.09.825,Simcolourproject_2stim_asymm_v5,2020.2.10,MacIntel,60,61025ae37ef11b136ea224fe,,,,,,,,,3433,-77.1875,-26.80859375,1,0,0,response5disk,,2,-3.2734375,1.91796875,1,0,0,rectangle,-3.2734375,1.91796875,1,0,0,-3.2734375,1.91796875,1,0,0,0,158,158,59,1,,,,,,,,
,,,,,,,,,,,,,FF,,,,,,,,1.183515,,,,,,,,,,,,,,,,,,,,,,60ff76d6c604411be3f09861,61036d7cdaa4d7d2a8d929b4,2021-07-29_23h16.09.825,Simcolourproject_2stim_asymm_v5,2020.2.10,MacIntel,60,61025ae37ef11b136ea224fe,,,,,,,,,2821,24.42578125,64.19921875,1,0,0,response1disk,,7,-3.90625,-5.69921875,1,0,0,rectangle,-3.90625,-5.69921875,1,0,0,-3.90625,-5.69921875,1,0,0,0,159,159,150,1,,,,,,,,
,,,,,,,,,,,,,FF,,,,,,,,0.883525,,,,,,,,,,,,,,,,,,,,,,60ff76d6c604411be3f09861,61036d7cdaa4d7d2a8d929b4,2021-07-29_23h16.09.825,Simcolourproject_2stim_asymm_v5,2020.2.10,MacIntel,60,61025ae37ef11b136ea224fe,,,,,,,,,2016,37.53515625,90.16796875,1,0,0,response1disk,,7,5.62890625,-0.60546875,1,0,0,rectangle,5.62890625,-0.60546875,1,0,0,5.62890625,-0.60546875,1,0,0,1,0,160,140,1,,,,,,,,
,,,,,,,,,,,,,FF,,,,,,,,1.35046,,,,,,,,,,,,,,,,,,,,,,60ff76d6c604411be3f09861,61036d7cdaa4d7d2a8d929b4,2021-07-29_23h16.09.825,Simcolourproject_2stim_asymm_v5,2020.2.10,MacIntel,60,61025ae37ef11b136ea224fe,,,,,,,,,4060,49.1875,-74.35546875,1,0,0,response3disk,,4,13.078125,-16.140625,1,0,0,rectangle,13.078125,-16.140625,1,0,0,13.078125,-16.140625,1,0,0,1,1,161,155,1,,,,,,,,
,,,,,,,,,,,,,FF,,,,,,,,1.41825,,,,,,,,,,,,,,,,,,,,,,60ff76d6c604411be3f09861,61036d7cdaa4d7d2a8d929b4,2021-07-29_23h16.09.825,Simcolourproject_2stim_asymm_v5,2020.2.10,MacIntel,60,61025ae37ef11b136ea224fe,,,,,,,,,2276,23.6328125,49.05078125,1,0,0,response1disk,,7,3.27734375,-6.23046875,1,0,0,rectangle,3.27734375,-6.23046875,1,0,0,3.27734375,-6.23046875,1,0,0,1,2,162,29,1,,,,,,,,
,,,,,,,,,,,,,FF,,,,,,,,1.23273,,,,,,,,,,,,,,,,,,,,,,60ff76d6c604411be3f09861,61036d7cdaa4d7d2a8d929b4,2021-07-29_23h16.09.825,Simcolourproject_2stim_asymm_v5,2020.2.10,MacIntel,60,61025ae37ef11b136ea224fe,,,,,,,,,2542,-71.50390625,29.73828125,1,0,0,response7disk,,1,-5.7890625,11.4453125,1,0,0,rectangle,-5.7890625,11.4453125,1,0,0,-5.7890625,11.4453125,1,0,0,1,3,163,44,1,,,,,,,,
,,,,,,,,,,,,,FF,,,,,,,,1.166905,,,,,,,,,,,,,,,,,,,,,,60ff76d6c604411be3f09861,61036d7cdaa4d7d2a8d929b4,2021-07-29_23h16.09.825,Simcolourproject_2stim_asymm_v5,2020.2.10,MacIntel,60,61025ae37ef11b136ea224fe,,,,,,,,,1001,83.98046875,-44.90625,1,0,0,response3disk,,5,-5.51171875,13.21484375,1,0,0,rectangle,-5.51171875,13.21484375,1,0,0,-5.51171875,13.21484375,1,0,0,1,4,164,90,1,,,,,,,,
,,,,,,,,,,,,,FF,,,,,,,,1.11641,,,,,,,,,,,,,,,,,,,,,,60ff76d6c604411be3f09861,61036d7cdaa4d7d2a8d929b4,2021-07-29_23h16.09.825,Simcolourproject_2stim_asymm_v5,2020.2.10,MacIntel,60,61025ae37ef11b136ea224fe,,,,,,,,,3309,62.2109375,40.17578125,1,0,0,response1disk,,6,16.578125,12.07421875,1,0,0,rectangle,16.578125,12.07421875,1,0,0,16.578125,12.07421875,1,0,0,1,5,165,18,1,,,,,,,,
,,,,,,,,,,,,,FF,,,,,,,,1.1167,,,,,,,,,,,,,,,,,,,,,,60ff76d6c604411be3f09861,61036d7cdaa4d7d2a8d929b4,2021-07-29_23h16.09.825,Simcolourproject_2stim_asymm_v5,2020.2.10,MacIntel,60,61025ae37ef11b136ea224fe,,,,,,,,,4085,-36.44921875,-88.91796875,1,0,0,response5disk,,3,-3.0546875,-5.10546875,1,0,0,rectangle,-3.0546875,-5.10546875,1,0,0,-3.0546875,-5.10546875,1,0,0,1,6,166,28,1,,,,,,,,
,,,,,,,,,,,,,FF,,,,,,,,1.9832,,,,,,,,,,,,,,,,,,,,,,60ff76d6c604411be3f09861,61036d7cdaa4d7d2a8d929b4,2021-07-29_23h16.09.825,Simcolourproject_2stim_asymm_v5,2020.2.10,MacIntel,60,61025ae37ef11b136ea224fe,,,,,,,,,4105,34.5546875,-66.40625,1,0,0,response3disk,,4,10.80078125,1.80078125,1,0,0,rectangle,10.80078125,1.80078125,1,0,0,10.80078125,1.80078125,1,0,0,1,7,167,88,1,,,,,,,,
,,,,,,,,,,,,,FF,,,,,,,,0.950125,,,,,,,,,,,,,,,,,,,,,,60ff76d6c604411be3f09861,61036d7cdaa4d7d2a8d929b4,2021-07-29_23h16.09.825,Simcolourproject_2stim_asymm_v5,2020.2.10,MacIntel,60,61025ae37ef11b136ea224fe,,,,,,,,,3655,39.109375,95.6171875,1,0,0,response1disk,,7,-5.28125,4.49609375,1,0,0,rectangle,-5.28125,4.49609375,1,0,0,-5.28125,4.49609375,1,0,0,1,8,168,112,1,,,,,,,,
,,,,,,,,,,,,,FF,,,,,,,,2.401315,,,,,,,,,,,,,,,,,,,,,,60ff76d6c604411be3f09861,61036d7cdaa4d7d2a8d929b4,2021-07-29_23h16.09.825,Simcolourproject_2stim_asymm_v5,2020.2.10,MacIntel,60,61025ae37ef11b136ea224fe,,,,,,,,,3739,91.37109375,32.12109375,1,0,0,response1disk,,6,8.32421875,-7.6171875,1,0,0,rectangle,8.32421875,-7.6171875,1,0,0,8.32421875,-7.6171875,1,0,0,1,9,169,139,1,,,,,,,,
,,,,,,,,,,,,,FF,,,,,,,,1.268135,,,,,,,,,,,,,,,,,,,,,,60ff76d6c604411be3f09861,61036d7cdaa4d7d2a8d929b4,2021-07-29_23h16.09.825,Simcolourproject_2stim_asymm_v5,2020.2.10,MacIntel,60,61025ae37ef11b136ea224fe,,,,,,,,,1029,-45.0390625,-99.171875,1,0,0,response5disk,,3,-5.19921875,-3.97265625,1,0,0,rectangle,-5.19921875,-3.97265625,1,0,0,-5.19921875,-3.97265625,1,0,0,1,10,170,83,1,,,,,,,,
,,,,,,,,,,,,,FF,,,,,,,,1.2154,,,,,,,,,,,,,,,,,,,,,,60ff76d6c604411be3f09861,61036d7cdaa4d7d2a8d929b4,2021-07-29_23h16.09.825,Simcolourproject_2stim_asymm_v5,2020.2.10,MacIntel,60,61025ae37ef11b136ea224fe,,,,,,,,,3941,-42.8046875,-87.12890625,1,0,0,response5disk,,3,-2.02734375,0.99609375,1,0,0,rectangle,-2.02734375,0.99609375,1,0,0,-2.02734375,0.99609375,1,0,0,1,11,171,0,1,,,,,,,,
,,,,,,,,,,,,,FF,,,,,,,,1.183395,,,,,,,,,,,,,,,,,,,,,,60ff76d6c604411be3f09861,61036d7cdaa4d7d2a8d929b4,2021-07-29_23h16.09.825,Simcolourproject_2stim_asymm_v5,2020.2.10,MacIntel,60,61025ae37ef11b136ea224fe,,,,,,,,,4223,-67.46484375,-48.73828125,1,0,0,response5disk,,2,-5.97265625,-16.2578125,1,0,0,rectangle,-5.97265625,-16.2578125,1,0,0,-5.97265625,-16.2578125,1,0,0,1,12,172,101,1,,,,,,,,
,,,,,,,,,,,,,FF,,,,,,,,1.333235,,,,,,,,,,,,,,,,,,,,,,60ff76d6c604411be3f09861,61036d7cdaa4d7d2a8d929b4,2021-07-29_23h16.09.825,Simcolourproject_2stim_asymm_v5,2020.2.10,MacIntel,60,61025ae37ef11b136ea224fe,,,,,,,,,1420,83.6484375,-50.203125,1,0,0,response3disk,,5,5.40625,-0.37109375,1,0,0,rectangle,5.40625,-0.37109375,1,0,0,5.40625,-0.37109375,1,0,0,1,13,173,24,1,,,,,,,,
,,,,,,,,,,,,,FF,,,,,,,,1.668265,,,,,,,,,,,,,,,,,,,,,,60ff76d6c604411be3f09861,61036d7cdaa4d7d2a8d929b4,2021-07-29_23h16.09.825,Simcolourproject_2stim_asymm_v5,2020.2.10,MacIntel,60,61025ae37ef11b136ea224fe,,,,,,,,,331,65.8671875,32.2265625,1,0,0,response1disk,,6,-1.671875,5.0546875,1,0,0,rectangle,-1.671875,5.0546875,1,0,0,-1.671875,5.0546875,1,0,0,1,14,174,3,1,,,,,,,,
,,,,,,,,,,,,,FF,,,,,,,,2.534125,,,,,,,,,,,,,,,,,,,,,,60ff76d6c604411be3f09861,61036d7cdaa4d7d2a8d929b4,2021-07-29_23h16.09.825,Simcolourproject_2stim_asymm_v5,2020.2.10,MacIntel,60,61025ae37ef11b136ea224fe,,,,,,,,,3991,85.83984375,36.875,1,0,0,response1disk,,6,31.12109375,8.14453125,1,0,0,rectangle,31.12109375,8.14453125,1,0,0,31.12109375,8.14453125,1,0,0,1,15,175,69,1,,,,,,,,
,,,,,,,,,,,,,FF,,,,,,,,0.85001,,,,,,,,,,,,,,,,,,,,,,60ff76d6c604411be3f09861,61036d7cdaa4d7d2a8d929b4,2021-07-29_23h16.09.825,Simcolourproject_2stim_asymm_v5,2020.2.10,MacIntel,60,61025ae37ef11b136ea224fe,,,,,,,,,1595,36.109375,72.23046875,1,0,0,response1disk,,7,-0.046875,-5.98828125,1,0,0,rectangle,26.984375,83.26953125,1,0,0,4.140625,4.0390625,1,0,0,1,16,176,142,1,,response1disk_3,TRUE,7,7,"[286,23,27,108,290,276,150,292,233,39,177,242,223,244,119,246,155,39,179,59]",1.4668,rectangle
,,,,,,,,,,,,,FF,,,,,,,,2.41764,,,,,,,,,,,,,,,,,,,,,,60ff76d6c604411be3f09861,61036d7cdaa4d7d2a8d929b4,2021-07-29_23h16.09.825,Simcolourproject_2stim_asymm_v5,2020.2.10,MacIntel,60,61025ae37ef11b136ea224fe,,,,,,,,,901,73.4921875,-43.06640625,1,0,0,response3disk,,5,-1.79296875,-9.890625,1,0,0,rectangle,-1.79296875,-9.890625,1,0,0,-1.79296875,-9.890625,1,0,0,1,17,177,81,1,,,,,,,,
,,,,,,,,,,,,,FF,,,,,,,,1.750325,,,,,,,,,,,,,,,,,,,,,,60ff76d6c604411be3f09861,61036d7cdaa4d7d2a8d929b4,2021-07-29_23h16.09.825,Simcolourproject_2stim_asymm_v5,2020.2.10,MacIntel,60,61025ae37ef11b136ea224fe,,,,,,,,,2048,75.4140625,-42.8828125,1,0,0,response3disk,,5,14.171875,13.46875,1,0,0,rectangle,-89.3046875,39.80078125,1,0,0,-3.30078125,9.078125,1,0,0,1,18,178,50,1,,response7disk_3,TRUE,1,1,"[286,23,27,108,290,276,150,292,233,39,177,242,223,244,119,246,155,39,179,59]",1.198745,rectangle
,,,,,,,,,,,,,FF,,,,,,,,3.86706,,,,,,,,,,,,,,,,,,,,,,60ff76d6c604411be3f09861,61036d7cdaa4d7d2a8d929b4,2021-07-29_23h16.09.825,Simcolourproject_2stim_asymm_v5,2020.2.10,MacIntel,60,61025ae37ef11b136ea224fe,,,,,,,,,2561,79.953125,37.62890625,1,0,0,response1disk,,6,24.30859375,-3.69921875,1,0,0,rectangle,24.30859375,-3.69921875,1,0,0,24.30859375,-3.69921875,1,0,0,1,19,179,122,1,,,,,,,,
,,,,,,,,,,,,,FF,,,,,,,,0.833185,,,,,,,,,,,,,,,,,,,,,,60ff76d6c604411be3f09861,61036d7cdaa4d7d2a8d929b4,2021-07-29_23h16.09.825,Simcolourproject_2stim_asymm_v5,2020.2.10,MacIntel,60,61025ae37ef11b136ea224fe,,,,,,,,,3705,-29.69921875,57.64453125,1,0,0,response7disk,,0,3.78515625,-2.83984375,1,0,0,rectangle,3.78515625,-2.83984375,1,0,0,3.78515625,-2.83984375,1,0,0,1,20,180,98,1,,,,,,,,
,,,,,,,,,,,,,FF,,,,,,,,2.20042,,,,,,,,,,,,,,,,,,,,,,60ff76d6c604411be3f09861,61036d7cdaa4d7d2a8d929b4,2021-07-29_23h16.09.825,Simcolourproject_2stim_asymm_v5,2020.2.10,MacIntel,60,61025ae37ef11b136ea224fe,,,,,,,,,1827,39.8515625,-57.75,1,0,0,response3disk,,4,11.53125,4.74609375,1,0,0,rectangle,11.53125,4.74609375,1,0,0,11.53125,4.74609375,1,0,0,1,21,181,120,1,,,,,,,,
,,,,,,,,,,,,,FF,,,,,,,,1.516355,,,,,,,,,,,,,,,,,,,,,,60ff76d6c604411be3f09861,61036d7cdaa4d7d2a8d929b4,2021-07-29_23h16.09.825,Simcolourproject_2stim_asymm_v5,2020.2.10,MacIntel,60,61025ae37ef11b136ea224fe,,,,,,,,,1676,-69.890625,-28.84765625,1,0,0,response5disk,,2,-4.2421875,4.59765625,1,0,0,rectangle,-4.2421875,4.59765625,1,0,0,-4.2421875,4.59765625,1,0,0,1,22,182,25,1,,,,,,,,
,,,,,,,,,,,,,FF,,,,,,,,1.366165,,,,,,,,,,,,,,,,,,,,,,60ff76d6c604411be3f09861,61036d7cdaa4d7d2a8d929b4,2021-07-29_23h16.09.825,Simcolourproject_2stim_asymm_v5,2020.2.10,MacIntel,60,61025ae37ef11b136ea224fe,,,,,,,,,273,67.859375,26.03515625,1,0,0,response1disk,,6,7.41015625,4.5078125,1,0,0,rectangle,7.41015625,4.5078125,1,0,0,7.41015625,4.5078125,1,0,0,1,23,183,80,1,,,,,,,,
,,,,,,,,,,,,,FF,,,,,,,,1.117135,,,,,,,,,,,,,,,,,,,,,,60ff76d6c604411be3f09861,61036d7cdaa4d7d2a8d929b4,2021-07-29_23h16.09.825,Simcolourproject_2stim_asymm_v5,2020.2.10,MacIntel,60,61025ae37ef11b136ea224fe,,,,,,,,,2820,84.69140625,35.1953125,1,0,0,response1disk,,6,15.78515625,12.375,1,0,0,rectangle,15.78515625,12.375,1,0,0,15.78515625,12.375,1,0,0,1,24,184,91,1,,,,,,,,
,,,,,,,,,,,,,FF,,,,,,,,0.851575,,,,,,,,,,,,,,,,,,,,,,60ff76d6c604411be3f09861,61036d7cdaa4d7d2a8d929b4,2021-07-29_23h16.09.825,Simcolourproject_2stim_asymm_v5,2020.2.10,MacIntel,60,61025ae37ef11b136ea224fe,,,,,,,,,3134,78.89453125,41.99609375,1,0,0,response1disk,,6,1.9453125,17.24609375,1,0,0,rectangle,1.9453125,17.24609375,1,0,0,1.9453125,17.24609375,1,0,0,1,25,185,128,1,,,,,,,,
,,,,,,,,,,,,,FF,,,,,,,,1.13476,,,,,,,,,,,,,,,,,,,,,,60ff76d6c604411be3f09861,61036d7cdaa4d7d2a8d929b4,2021-07-29_23h16.09.825,Simcolourproject_2stim_asymm_v5,2020.2.10,MacIntel,60,61025ae37ef11b136ea224fe,,,,,,,,,3039,50.19921875,-78.59375,1,0,0,response3disk,,4,22.22265625,-0.12109375,1,0,0,rectangle,22.22265625,-0.12109375,1,0,0,22.22265625,-0.12109375,1,0,0,1,26,186,4,1,,,,,,,,
,,,,,,,,,,,,,FF,,,,,,,,2.55045,,,,,,,,,,,,,,,,,,,,,,60ff76d6c604411be3f09861,61036d7cdaa4d7d2a8d929b4,2021-07-29_23h16.09.825,Simcolourproject_2stim_asymm_v5,2020.2.10,MacIntel,60,61025ae37ef11b136ea224fe,,,,,,,,,3632,69.28125,39.421875,1,0,0,response1disk,,6,-6.0234375,3.5078125,1,0,0,rectangle,-6.0234375,3.5078125,1,0,0,-6.0234375,3.5078125,1,0,0,1,27,187,93,1,,,,,,,,
,,,,,,,,,,,,,FF,,,,,,,,1.349115,,,,,,,,,,,,,,,,,,,,,,60ff76d6c604411be3f09861,61036d7cdaa4d7d2a8d929b4,2021-07-29_23h16.09.825,Simcolourproject_2stim_asymm_v5,2020.2.10,MacIntel,60,61025ae37ef11b136ea224fe,,,,,,,,,256,-30.04296875,-64.16015625,1,0,0,response5disk,,3,9.04296875,8.3359375,1,0,0,rectangle,9.04296875,8.3359375,1,0,0,9.04296875,8.3359375,1,0,0,1,28,188,132,1,,,,,,,,
,,,,,,,,,,,,,FF,,,,,,,,0.850285,,,,,,,,,,,,,,,,,,,,,,60ff76d6c604411be3f09861,61036d7cdaa4d7d2a8d929b4,2021-07-29_23h16.09.825,Simcolourproject_2stim_asymm_v5,2020.2.10,MacIntel,60,61025ae37ef11b136ea224fe,,,,,,,,,2133,33.234375,83.4453125,1,0,0,response1disk,,7,-0.109375,-3.55859375,1,0,0,rectangle,-0.109375,-3.55859375,1,0,0,-0.109375,-3.55859375,1,0,0,1,29,189,129,1,,,,,,,,
,,,,,,,,,,,,,FF,,,,,,,,1.817205,,,,,,,,,,,,,,,,,,,,,,60ff76d6c604411be3f09861,61036d7cdaa4d7d2a8d929b4,2021-07-29_23h16.09.825,Simcolourproject_2stim_asymm_v5,2020.2.10,MacIntel,60,61025ae37ef11b136ea224fe,,,,,,,,,3579,68.67578125,-45.5546875,1,0,0,response3disk,,5,-4.5859375,-4.61328125,1,0,0,rectangle,-4.5859375,-4.61328125,1,0,0,-4.5859375,-4.61328125,1,0,0,1,30,190,157,1,,,,,,,,
,,,,,,,,,,,,,FF,,,,,,,,1.11545,,,,,,,,,,,,,,,,,,,,,,60ff76d6c604411be3f09861,61036d7cdaa4d7d2a8d929b4,2021-07-29_23h16.09.825,Simcolourproject_2stim_asymm_v5,2020.2.10,MacIntel,60,61025ae37ef11b136ea224fe,,,,,,,,,3249,39.3125,-66.77734375,1,0,0,response3disk,,4,3.8984375,-12.41796875,1,0,0,rectangle,3.8984375,-12.41796875,1,0,0,3.8984375,-12.41796875,1,0,0,1,31,191,42,1,,,,,,,,
,,,,,,,,,,,,,FF,,,,,,,,3.55139,,,,,,,,,,,,,,,,,,,,,,60ff76d6c604411be3f09861,61036d7cdaa4d7d2a8d929b4,2021-07-29_23h16.09.825,Simcolourproject_2stim_asymm_v5,2020.2.10,MacIntel,60,61025ae37ef11b136ea224fe,,,,,,,,,1000,84.63671875,-42.53515625,1,0,0,response3disk,,5,-29.8046875,3.3359375,1,0,0,rectangle,-29.8046875,3.3359375,1,0,0,-29.8046875,3.3359375,1,0,0,1,32,192,63,1,,,,,,,,
,,,,,,,,,,,,,FF,,,,,,,,0.800005,,,,,,,,,,,,,,,,,,,,,,60ff76d6c604411be3f09861,61036d7cdaa4d7d2a8d929b4,2021-07-29_23h16.09.825,Simcolourproject_2stim_asymm_v5,2020.2.10,MacIntel,60,61025ae37ef11b136ea224fe,,,,,,,,,4361,-32.77734375,77.50390625,1,0,0,response7disk,,0,-21.92578125,6.67578125,1,0,0,rectangle,-21.92578125,6.67578125,1,0,0,-21.92578125,6.67578125,1,0,0,1,33,193,55,1,,,,,,,,
,,,,,,,,,,,,,FF,,,,,,,,2.433595,,,,,,,,,,,,,,,,,,,,,,60ff76d6c604411be3f09861,61036d7cdaa4d7d2a8d929b4,2021-07-29_23h16.09.825,Simcolourproject_2stim_asymm_v5,2020.2.10,MacIntel,60,61025ae37ef11b136ea224fe,,,,,,,,,3465,-42.7265625,-66.16015625,1,0,0,response5disk,,3,-6.92578125,-3.23046875,1,0,0,rectangle,-6.92578125,-3.23046875,1,0,0,-6.92578125,-3.23046875,1,0,0,1,34,194,20,1,,,,,,,,
,,,,,,,,,,,,,FF,,,,,,,,2.251705,,,,,,,,,,,,,,,,,,,,,,60ff76d6c604411be3f09861,61036d7cdaa4d7d2a8d929b4,2021-07-29_23h16.09.825,Simcolourproject_2stim_asymm_v5,2020.2.10,MacIntel,60,61025ae37ef11b136ea224fe,,,,,,,,,2109,41.87890625,-87.6328125,1,0,0,response3disk,,4,20.76171875,0.45703125,1,0,0,rectangle,20.76171875,0.45703125,1,0,0,20.76171875,0.45703125,1,0,0,1,35,195,70,1,,,,,,,,
,,,,,,,,,,,,,FF,,,,,,,,1.10001,,,,,,,,,,,,,,,,,,,,,,60ff76d6c604411be3f09861,61036d7cdaa4d7d2a8d929b4,2021-07-29_23h16.09.825,Simcolourproject_2stim_asymm_v5,2020.2.10,MacIntel,60,61025ae37ef11b136ea224fe,,,,,,,,,1387,-21.1328125,-79.80859375,1,0,0,response5disk,,3,-11.3046875,-9.3046875,1,0,0,rectangle,-11.3046875,-9.3046875,1,0,0,-11.3046875,-9.3046875,1,0,0,1,36,196,47,1,,,,,,,,
,,,,,,,,,,,,,FF,,,,,,,,0.91678,,,,,,,,,,,,,,,,,,,,,,60ff76d6c604411be3f09861,61036d7cdaa4d7d2a8d929b4,2021-07-29_23h16.09.825,Simcolourproject_2stim_asymm_v5,2020.2.10,MacIntel,60,61025ae37ef11b136ea224fe,,,,,,,,,3052,-64.01171875,-44.90625,1,0,0,response5disk,,2,-16.58203125,-16.21875,1,0,0,rectangle,-16.58203125,-16.21875,1,0,0,-16.58203125,-16.21875,1,0,0,1,37,197,92,1,,,,,,,,
,,,,,,,,,,,,,FF,,,,,,,,2.2009,,,,,,,,,,,,,,,,,,,,,,60ff76d6c604411be3f09861,61036d7cdaa4d7d2a8d929b4,2021-07-29_23h16.09.825,Simcolourproject_2stim_asymm_v5,2020.2.10,MacIntel,60,61025ae37ef11b136ea224fe,,,,,,,,,3549,43.16015625,-98.29296875,1,0,0,response3disk,,4,0.07421875,-5.12890625,1,0,0,rectangle,0.07421875,-5.12890625,1,0,0,0.07421875,-5.12890625,1,0,0,1,38,198,149,1,,,,,,,,
,,,,,,,,,,,,,FF,,,,,,,,2.33496,,,,,,,,,,,,,,,,,,,,,,60ff76d6c604411be3f09861,61036d7cdaa4d7d2a8d929b4,2021-07-29_23h16.09.825,Simcolourproject_2stim_asymm_v5,2020.2.10,MacIntel,60,61025ae37ef11b136ea224fe,,,,,,,,,921,71.87890625,-48.625,1,0,0,response3disk,,5,-6.68359375,0.515625,1,0,0,rectangle,-6.68359375,0.515625,1,0,0,-6.68359375,0.515625,1,0,0,1,39,199,94,1,,,,,,,,
,,,,,,,,,,,,,FF,,,,,,,,3.76599,,,,,,,,,,,,,,,,,,,,,,60ff76d6c604411be3f09861,61036d7cdaa4d7d2a8d929b4,2021-07-29_23h16.09.825,Simcolourproject_2stim_asymm_v5,2020.2.10,MacIntel,60,61025ae37ef11b136ea224fe,,,,,,,,,725,44.80859375,-68.16015625,1,0,0,response3disk,,4,6.05859375,-2.4140625,1,0,0,rectangle,6.05859375,-2.4140625,1,0,0,6.05859375,-2.4140625,1,0,0,1,40,200,136,1,,,,,,,,
,,,,,,,,,,,,,FF,,,,,,,,2.617375,,,,,,,,,,,,,,,,,,,,,,60ff76d6c604411be3f09861,61036d7cdaa4d7d2a8d929b4,2021-07-29_23h16.09.825,Simcolourproject_2stim_asymm_v5,2020.2.10,MacIntel,60,61025ae37ef11b136ea224fe,,,,,,,,,4082,56.72265625,-75.7578125,1,0,0,response3disk,,4,10.91015625,7.421875,1,0,0,rectangle,10.91015625,7.421875,1,0,0,10.91015625,7.421875,1,0,0,1,41,201,97,1,,,,,,,,
,,,,,,,,,,,,,FF,,,,,,,,0.950955,,,,,,,,,,,,,,,,,,,,,,60ff76d6c604411be3f09861,61036d7cdaa4d7d2a8d929b4,2021-07-29_23h16.09.825,Simcolourproject_2stim_asymm_v5,2020.2.10,MacIntel,60,61025ae37ef11b136ea224fe,,,,,,,,,1996,29.984375,80.63671875,1,0,0,response1disk,,7,2.69140625,-12.6171875,1,0,0,rectangle,2.69140625,-12.6171875,1,0,0,2.69140625,-12.6171875,1,0,0,1,42,202,96,1,,,,,,,,
,,,,,,,,,,,,,FF,,,,,,,,1.75041,,,,,,,,,,,,,,,,,,,,,,60ff76d6c604411be3f09861,61036d7cdaa4d7d2a8d929b4,2021-07-29_23h16.09.825,Simcolourproject_2stim_asymm_v5,2020.2.10,MacIntel,60,61025ae37ef11b136ea224fe,,,,,,,,,3452,91.16015625,-46.39453125,1,0,0,response3disk,,5,6.19921875,9.3828125,1,0,0,rectangle,6.19921875,9.3828125,1,0,0,6.19921875,9.3828125,1,0,0,1,43,203,106,1,,,,,,,,
,,,,,,,,,,,,,FF,,,,,,,,5.40167,,,,,,,,,,,,,,,,,,,,,,60ff76d6c604411be3f09861,61036d7cdaa4d7d2a8d929b4,2021-07-29_23h16.09.825,Simcolourproject_2stim_asymm_v5,2020.2.10,MacIntel,60,61025ae37ef11b136ea224fe,,,,,,,,,558,78.6875,-44.1484375,1,0,0,response3disk,,5,7.09765625,-2.07421875,1,0,0,rectangle,7.09765625,-2.07421875,1,0,0,7.09765625,-2.07421875,1,0,0,1,44,204,43,1,,,,,,,,
,,,,,,,,,,,,,FF,,,,,,,,2.66756,,,,,,,,,,,,,,,,,,,,,,60ff76d6c604411be3f09861,61036d7cdaa4d7d2a8d929b4,2021-07-29_23h16.09.825,Simcolourproject_2stim_asymm_v5,2020.2.10,MacIntel,60,61025ae37ef11b136ea224fe,,,,,,,,,269,57.078125,-95.2578125,1,0,0,response3disk,,4,12.53515625,0.578125,1,0,0,rectangle,12.53515625,0.578125,1,0,0,12.53515625,0.578125,1,0,0,1,45,205,51,1,,,,,,,,
,,,,,,,,,,,,,FF,,,,,,,,1.06626,,,,,,,,,,,,,,,,,,,,,,60ff76d6c604411be3f09861,61036d7cdaa4d7d2a8d929b4,2021-07-29_23h16.09.825,Simcolourproject_2stim_asymm_v5,2020.2.10,MacIntel,60,61025ae37ef11b136ea224fe,,,,,,,,,3885,38.8125,-66.86328125,1,0,0,response3disk,,4,17.0546875,-1.0625,1,0,0,rectangle,17.0546875,-1.0625,1,0,0,17.0546875,-1.0625,1,0,0,1,46,206,113,1,,,,,,,,
,,,,,,,,,,,,,FF,,,,,,,,2.183535,,,,,,,,,,,,,,,,,,,,,,60ff76d6c604411be3f09861,61036d7cdaa4d7d2a8d929b4,2021-07-29_23h16.09.825,Simcolourproject_2stim_asymm_v5,2020.2.10,MacIntel,60,61025ae37ef11b136ea224fe,,,,,,,,,54,38.3046875,-102.6367188,1,0,0,response3disk,,4,-4.4609375,5.12109375,1,0,0,rectangle,-4.4609375,5.12109375,1,0,0,-4.4609375,5.12109375,1,0,0,1,47,207,79,1,,,,,,,,
,,,,,,,,,,,,,FF,,,,,,,,1.701135,,,,,,,,,,,,,,,,,,,,,,60ff76d6c604411be3f09861,61036d7cdaa4d7d2a8d929b4,2021-07-29_23h16.09.825,Simcolourproject_2stim_asymm_v5,2020.2.10,MacIntel,60,61025ae37ef11b136ea224fe,,,,,,,,,3570,37.51171875,-66.78125,1,0,0,response3disk,,4,6.3359375,3.60546875,1,0,0,rectangle,6.3359375,3.60546875,1,0,0,6.3359375,3.60546875,1,0,0,1,48,208,145,1,,,,,,,,
,,,,,,,,,,,,,FF,,,,,,,,3.067005,,,,,,,,,,,,,,,,,,,,,,60ff76d6c604411be3f09861,61036d7cdaa4d7d2a8d929b4,2021-07-29_23h16.09.825,Simcolourproject_2stim_asymm_v5,2020.2.10,MacIntel,60,61025ae37ef11b136ea224fe,,,,,,,,,1082,75.64453125,21.94140625,1,0,0,response1disk,,6,7.7265625,-10.92578125,1,0,0,rectangle,7.7265625,-10.92578125,1,0,0,7.7265625,-10.92578125,1,0,0,1,49,209,74,1,,,,,,,,
,,,,,,,,,,,,,FF,,,,,,,,4.332745,,,,,,,,,,,,,,,,,,,,,,60ff76d6c604411be3f09861,61036d7cdaa4d7d2a8d929b4,2021-07-29_23h16.09.825,Simcolourproject_2stim_asymm_v5,2020.2.10,MacIntel,60,61025ae37ef11b136ea224fe,,,,,,,,,3664,56.48046875,-94.6796875,1,0,0,response3disk,,4,0.44140625,2.375,1,0,0,rectangle,0.44140625,2.375,1,0,0,0.44140625,2.375,1,0,0,1,50,210,73,1,,,,,,,,
,,,,,,,,,,,,,FF,,,,,,,,1.048935,,,,,,,,,,,,,,,,,,,,,,60ff76d6c604411be3f09861,61036d7cdaa4d7d2a8d929b4,2021-07-29_23h16.09.825,Simcolourproject_2stim_asymm_v5,2020.2.10,MacIntel,60,61025ae37ef11b136ea224fe,,,,,,,,,1891,-24.69140625,-95.9609375,1,0,0,response5disk,,3,-10.12109375,-1.66796875,1,0,0,rectangle,-10.12109375,-1.66796875,1,0,0,-10.12109375,-1.66796875,1,0,0,1,51,211,52,1,,,,,,,,
,,,,,,,,,,,,,FF,,,,,,,,1.483585,,,,,,,,,,,,,,,,,,,,,,60ff76d6c604411be3f09861,61036d7cdaa4d7d2a8d929b4,2021-07-29_23h16.09.825,Simcolourproject_2stim_asymm_v5,2020.2.10,MacIntel,60,61025ae37ef11b136ea224fe,,,,,,,,,503,68.703125,-34.39453125,1,0,0,response3disk,,5,0.62109375,10.625,1,0,0,rectangle,0.62109375,10.625,1,0,0,0.62109375,10.625,1,0,0,1,52,212,89,1,,,,,,,,
,,,,,,,,,,,,,FF,,,,,,,,1.23202,,,,,,,,,,,,,,,,,,,,,,60ff76d6c604411be3f09861,61036d7cdaa4d7d2a8d929b4,2021-07-29_23h16.09.825,Simcolourproject_2stim_asymm_v5,2020.2.10,MacIntel,60,61025ae37ef11b136ea224fe,,,,,,,,,1715,56.6484375,39.8828125,1,0,0,response1disk,,6,16.17578125,9.6640625,1,0,0,rectangle,16.17578125,9.6640625,1,0,0,16.17578125,9.6640625,1,0,0,1,53,213,38,1,,,,,,,,
,,,,,,,,,,,,,FF,,,,,,,,1.166935,,,,,,,,,,,,,,,,,,,,,,60ff76d6c604411be3f09861,61036d7cdaa4d7d2a8d929b4,2021-07-29_23h16.09.825,Simcolourproject_2stim_asymm_v5,2020.2.10,MacIntel,60,61025ae37ef11b136ea224fe,,,,,,,,,3204,-86.3046875,37.8828125,1,0,0,response7disk,,1,10.7734375,5.03515625,1,0,0,rectangle,10.7734375,5.03515625,1,0,0,10.7734375,5.03515625,1,0,0,1,54,214,126,1,,,,,,,,
,,,,,,,,,,,,,FF,,,,,,,,1.66692,,,,,,,,,,,,,,,,,,,,,,60ff76d6c604411be3f09861,61036d7cdaa4d7d2a8d929b4,2021-07-29_23h16.09.825,Simcolourproject_2stim_asymm_v5,2020.2.10,MacIntel,60,61025ae37ef11b136ea224fe,,,,,,,,,1283,33.15625,-76.7265625,1,0,0,response3disk,,4,5.63671875,-6.84765625,1,0,0,rectangle,5.63671875,-6.84765625,1,0,0,5.63671875,-6.84765625,1,0,0,1,55,215,137,1,,,,,,,,
,,,,,,,,,,,,,FF,,,,,,,,1.08377,,,,,,,,,,,,,,,,,,,,,,60ff76d6c604411be3f09861,61036d7cdaa4d7d2a8d929b4,2021-07-29_23h16.09.825,Simcolourproject_2stim_asymm_v5,2020.2.10,MacIntel,60,61025ae37ef11b136ea224fe,,,,,,,,,733,34.00390625,-64.00390625,1,0,0,response3disk,,4,1.12890625,-14.46875,1,0,0,rectangle,1.12890625,-14.46875,1,0,0,1.12890625,-14.46875,1,0,0,1,56,216,116,1,,,,,,,,
,,,,,,,,,,,,,FF,,,,,,,,1.883715,,,,,,,,,,,,,,,,,,,,,,60ff76d6c604411be3f09861,61036d7cdaa4d7d2a8d929b4,2021-07-29_23h16.09.825,Simcolourproject_2stim_asymm_v5,2020.2.10,MacIntel,60,61025ae37ef11b136ea224fe,,,,,,,,,936,64.44921875,40.74609375,1,0,0,response1disk,,6,12.578125,8.55078125,1,0,0,rectangle,12.578125,8.55078125,1,0,0,12.578125,8.55078125,1,0,0,1,57,217,46,1,,,,,,,,
,,,,,,,,,,,,,FF,,,,,,,,1.349975,,,,,,,,,,,,,,,,,,,,,,60ff76d6c604411be3f09861,61036d7cdaa4d7d2a8d929b4,2021-07-29_23h16.09.825,Simcolourproject_2stim_asymm_v5,2020.2.10,MacIntel,60,61025ae37ef11b136ea224fe,,,,,,,,,2275,33.12109375,72.8515625,1,0,0,response1disk,,7,23.4140625,11.41796875,1,0,0,rectangle,23.4140625,11.41796875,1,0,0,23.4140625,11.41796875,1,0,0,1,58,218,85,1,,,,,,,,
,,,,,,,,,,,,,FF,,,,,,,,3.483635,,,,,,,,,,,,,,,,,,,,,,60ff76d6c604411be3f09861,61036d7cdaa4d7d2a8d929b4,2021-07-29_23h16.09.825,Simcolourproject_2stim_asymm_v5,2020.2.10,MacIntel,60,61025ae37ef11b136ea224fe,,,,,,,,,566,84.49609375,-34.78515625,1,0,0,response3disk,,5,10.28125,-5.37890625,1,0,0,rectangle,10.28125,-5.37890625,1,0,0,10.28125,-5.37890625,1,0,0,1,59,219,6,1,,,,,,,,
,,,,,,,,,,,,,FF,,,,,,,,1.28397,,,,,,,,,,,,,,,,,,,,,,60ff76d6c604411be3f09861,61036d7cdaa4d7d2a8d929b4,2021-07-29_23h16.09.825,Simcolourproject_2stim_asymm_v5,2020.2.10,MacIntel,60,61025ae37ef11b136ea224fe,,,,,,,,,1047,47.3828125,19.796875,1,0,0,response1disk,,6,8.24609375,-11.3046875,1,0,0,rectangle,8.24609375,-11.3046875,1,0,0,8.24609375,-11.3046875,1,0,0,1,60,220,58,1,,,,,,,,
,,,,,,,,,,,,,FF,,,,,,,,1.532475,,,,,,,,,,,,,,,,,,,,,,60ff76d6c604411be3f09861,61036d7cdaa4d7d2a8d929b4,2021-07-29_23h16.09.825,Simcolourproject_2stim_asymm_v5,2020.2.10,MacIntel,60,61025ae37ef11b136ea224fe,,,,,,,,,1315,81.7421875,-15.38671875,1,0,0,response3disk,,5,-6.52734375,10.42578125,1,0,0,rectangle,-6.52734375,10.42578125,1,0,0,-6.52734375,10.42578125,1,0,0,1,61,221,77,1,,,,,,,,
,,,,,,,,,,,,,FF,,,,,,,,1.71603,,,,,,,,,,,,,,,,,,,,,,60ff76d6c604411be3f09861,61036d7cdaa4d7d2a8d929b4,2021-07-29_23h16.09.825,Simcolourproject_2stim_asymm_v5,2020.2.10,MacIntel,60,61025ae37ef11b136ea224fe,,,,,,,,,3952,69.76953125,37.80859375,1,0,0,response1disk,,6,27.6015625,11.9453125,1,0,0,rectangle,-43.09765625,93.61328125,1,0,0,-5.8984375,6.8984375,1,0,0,1,62,222,21,1,,response7disk_3,TRUE,0,0,"[286,23,27,108,290,276,150,292,233,39,177,242,223,244,119,246,155,39,179,59]",1.78409,rectangle
,,,,,,,,,,,,,FF,,,,,,,,1.350185,,,,,,,,,,,,,,,,,,,,,,60ff76d6c604411be3f09861,61036d7cdaa4d7d2a8d929b4,2021-07-29_23h16.09.825,Simcolourproject_2stim_asymm_v5,2020.2.10,MacIntel,60,61025ae37ef11b136ea224fe,,,,,,,,,3815,-88.1171875,-23.73828125,1,0,0,response5disk,,2,-3.65234375,5.97265625,1,0,0,rectangle,-3.65234375,5.97265625,1,0,0,-3.65234375,5.97265625,1,0,0,1,63,223,156,1,,,,,,,,
,,,,,,,,,,,,,FF,,,,,,,,1.134225,,,,,,,,,,,,,,,,,,,,,,60ff76d6c604411be3f09861,61036d7cdaa4d7d2a8d929b4,2021-07-29_23h16.09.825,Simcolourproject_2stim_asymm_v5,2020.2.10,MacIntel,60,61025ae37ef11b136ea224fe,,,,,,,,,3677,-38.96484375,-76.8515625,1,0,0,response5disk,,3,-14.8515625,2.57421875,1,0,0,rectangle,-14.8515625,2.57421875,1,0,0,-14.8515625,2.57421875,1,0,0,1,64,224,61,1,,,,,,,,
,,,,,,,,,,,,,FF,,,,,,,,0.954795,,,,,,,,,,,,,,,,,,,,,,60ff76d6c604411be3f09861,61036d7cdaa4d7d2a8d929b4,2021-07-29_23h16.09.825,Simcolourproject_2stim_asymm_v5,2020.2.10,MacIntel,60,61025ae37ef11b136ea224fe,,,,,,,,,3458,37.40625,78.08984375,1,0,0,response1disk,,7,-0.7421875,-16.90234375,1,0,0,rectangle,-0.7421875,-16.90234375,1,0,0,-0.7421875,-16.90234375,1,0,0,1,65,225,14,1,,,,,,,,
,,,,,,,,,,,,,FF,,,,,,,,1.468365,,,,,,,,,,,,,,,,,,,,,,60ff76d6c604411be3f09861,61036d7cdaa4d7d2a8d929b4,2021-07-29_23h16.09.825,Simcolourproject_2stim_asymm_v5,2020.2.10,MacIntel,60,61025ae37ef11b136ea224fe,,,,,,,,,3220,29.77734375,52.15625,1,0,0,response1disk,,7,19.07421875,5.8046875,1,0,0,rectangle,19.07421875,5.8046875,1,0,0,19.07421875,5.8046875,1,0,0,1,66,226,65,1,,,,,,,,
,,,,,,,,,,,,,FF,,,,,,,,1.065985,,,,,,,,,,,,,,,,,,,,,,60ff76d6c604411be3f09861,61036d7cdaa4d7d2a8d929b4,2021-07-29_23h16.09.825,Simcolourproject_2stim_asymm_v5,2020.2.10,MacIntel,60,61025ae37ef11b136ea224fe,,,,,,,,,1976,66.55078125,31.26171875,1,0,0,response1disk,,6,1.578125,-12.93359375,1,0,0,rectangle,1.578125,-12.93359375,1,0,0,1.578125,-12.93359375,1,0,0,1,67,227,32,1,,,,,,,,
,,,,,,,,,,,,,FF,,,,,,,,2.784285,,,,,,,,,,,,,,,,,,,,,,60ff76d6c604411be3f09861,61036d7cdaa4d7d2a8d929b4,2021-07-29_23h16.09.825,Simcolourproject_2stim_asymm_v5,2020.2.10,MacIntel,60,61025ae37ef11b136ea224fe,,,,,,,,,3378,78.046875,34.8125,1,0,0,response1disk,,6,18.25390625,9.57421875,1,0,0,rectangle,18.25390625,9.57421875,1,0,0,18.25390625,9.57421875,1,0,0,1,68,228,19,1,,,,,,,,
,,,,,,,,,,,,,FF,,,,,,,,1.38331,,,,,,,,,,,,,,,,,,,,,,60ff76d6c604411be3f09861,61036d7cdaa4d7d2a8d929b4,2021-07-29_23h16.09.825,Simcolourproject_2stim_asymm_v5,2020.2.10,MacIntel,60,61025ae37ef11b136ea224fe,,,,,,,,,2134,27.12890625,54.97265625,1,0,0,response1disk,,7,3.171875,-8.4921875,1,0,0,rectangle,3.171875,-8.4921875,1,0,0,3.171875,-8.4921875,1,0,0,1,69,229,150,1,,,,,,,,
,,,,,,,,,,,,,FF,,,,,,,,0.93341,,,,,,,,,,,,,,,,,,,,,,60ff76d6c604411be3f09861,61036d7cdaa4d7d2a8d929b4,2021-07-29_23h16.09.825,Simcolourproject_2stim_asymm_v5,2020.2.10,MacIntel,60,61025ae37ef11b136ea224fe,,,,,,,,,2458,31.19140625,57.44921875,1,0,0,response1disk,,7,8.8671875,6.93359375,1,0,0,rectangle,8.8671875,6.93359375,1,0,0,8.8671875,6.93359375,1,0,0,1,70,230,16,1,,,,,,,,
,,,,,,,,,,,,,FF,,,,,,,,2.083475,,,,,,,,,,,,,,,,,,,,,,60ff76d6c604411be3f09861,61036d7cdaa4d7d2a8d929b4,2021-07-29_23h16.09.825,Simcolourproject_2stim_asymm_v5,2020.2.10,MacIntel,60,61025ae37ef11b136ea224fe,,,,,,,,,1224,25.4296875,50.68359375,1,0,0,response1disk,,7,18.39453125,4.90625,1,0,0,rectangle,18.39453125,4.90625,1,0,0,18.39453125,4.90625,1,0,0,1,71,231,141,1,,,,,,,,
,,,,,,,,,,,,,FF,,,,,,,,1.050765,,,,,,,,,,,,,,,,,,,,,,60ff76d6c604411be3f09861,61036d7cdaa4d7d2a8d929b4,2021-07-29_23h16.09.825,Simcolourproject_2stim_asymm_v5,2020.2.10,MacIntel,60,61025ae37ef11b136ea224fe,,,,,,,,,1919,67.55859375,32.87109375,1,0,0,response1disk,,6,22.68359375,3.4765625,1,0,0,rectangle,75.640625,42.49609375,1,0,0,22.55859375,5.91796875,1,0,0,1,72,232,118,1,,response1disk_3,TRUE,6,6,"[286,23,27,108,290,276,150,292,233,39,177,242,223,244,119,246,155,39,179,59]",1.34985,rectangle
,,,,,,,,,,,,,FF,,,,,,,,1.917235,,,,,,,,,,,,,,,,,,,,,,60ff76d6c604411be3f09861,61036d7cdaa4d7d2a8d929b4,2021-07-29_23h16.09.825,Simcolourproject_2stim_asymm_v5,2020.2.10,MacIntel,60,61025ae37ef11b136ea224fe,,,,,,,,,3320,81.078125,30.75390625,1,0,0,response1disk,,6,28.4453125,-0.91015625,1,0,0,rectangle,28.4453125,-0.91015625,1,0,0,28.4453125,-0.91015625,1,0,0,1,73,233,119,1,,,,,,,,
,,,,,,,,,,,,,FF,,,,,,,,1.28367,,,,,,,,,,,,,,,,,,,,,,60ff76d6c604411be3f09861,61036d7cdaa4d7d2a8d929b4,2021-07-29_23h16.09.825,Simcolourproject_2stim_asymm_v5,2020.2.10,MacIntel,60,61025ae37ef11b136ea224fe,,,,,,,,,889,41.8203125,-86.93359375,1,0,0,response3disk,,4,10.7890625,1.8125,1,0,0,rectangle,10.7890625,1.8125,1,0,0,10.7890625,1.8125,1,0,0,1,74,234,144,1,,,,,,,,
,,,,,,,,,,,,,FF,,,,,,,,2.01726,,,,,,,,,,,,,,,,,,,,,,60ff76d6c604411be3f09861,61036d7cdaa4d7d2a8d929b4,2021-07-29_23h16.09.825,Simcolourproject_2stim_asymm_v5,2020.2.10,MacIntel,60,61025ae37ef11b136ea224fe,,,,,,,,,3181,97.71484375,35.49609375,1,0,0,response1disk,,6,6.05859375,-5.17578125,1,0,0,rectangle,6.05859375,-5.17578125,1,0,0,6.05859375,-5.17578125,1,0,0,1,75,235,133,1,,,,,,,,
,,,,,,,,,,,,,FF,,,,,,,,0.96688,,,,,,,,,,,,,,,,,,,,,,60ff76d6c604411be3f09861,61036d7cdaa4d7d2a8d929b4,2021-07-29_23h16.09.825,Simcolourproject_2stim_asymm_v5,2020.2.10,MacIntel,60,61025ae37ef11b136ea224fe,,,,,,,,,2092,25.875,77.58984375,1,0,0,response1disk,,7,-1.453125,7.4609375,1,0,0,rectangle,-1.453125,7.4609375,1,0,0,-1.453125,7.4609375,1,0,0,1,76,236,57,1,,,,,,,,
,,,,,,,,,,,,,FF,,,,,,,,1.648265,,,,,,,,,,,,,,,,,,,,,,60ff76d6c604411be3f09861,61036d7cdaa4d7d2a8d929b4,2021-07-29_23h16.09.825,Simcolourproject_2stim_asymm_v5,2020.2.10,MacIntel,60,61025ae37ef11b136ea224fe,,,,,,,,,3404,95.4453125,-45.23046875,1,0,0,response3disk,,5,3.00390625,-2.30078125,1,0,0,rectangle,3.00390625,-2.30078125,1,0,0,3.00390625,-2.30078125,1,0,0,1,77,237,146,1,,,,,,,,
,,,,,,,,,,,,,FF,,,,,,,,2.10096,,,,,,,,,,,,,,,,,,,,,,60ff76d6c604411be3f09861,61036d7cdaa4d7d2a8d929b4,2021-07-29_23h16.09.825,Simcolourproject_2stim_asymm_v5,2020.2.10,MacIntel,60,61025ae37ef11b136ea224fe,,,,,,,,,115,85.10546875,38.76171875,1,0,0,response1disk,,6,20.984375,11.96875,1,0,0,rectangle,20.984375,11.96875,1,0,0,20.984375,11.96875,1,0,0,1,78,238,95,1,,,,,,,,
,,,,,,,,,,,,,FF,,,,,,,,2.96802,,,,,,,,,,,,,,,,,,,,,,60ff76d6c604411be3f09861,61036d7cdaa4d7d2a8d929b4,2021-07-29_23h16.09.825,Simcolourproject_2stim_asymm_v5,2020.2.10,MacIntel,60,61025ae37ef11b136ea224fe,,,,,,,,,2531,59.2890625,28.90234375,1,0,0,response1disk,,6,19.1640625,3.68359375,1,0,0,rectangle,19.1640625,3.68359375,1,0,0,19.1640625,3.68359375,1,0,0,1,79,239,78,1,,,,,,,,
,,,,,,,,,,,,,FF,,,,,,,,1.316165,,,,,,,,,,,,,,,,,,,,,,60ff76d6c604411be3f09861,61036d7cdaa4d7d2a8d929b4,2021-07-29_23h16.09.825,Simcolourproject_2stim_asymm_v5,2020.2.10,MacIntel,60,61025ae37ef11b136ea224fe,,,,,,,,,2950,88.7421875,-34.92578125,1,0,0,response3disk,,5,6.765625,-0.84375,1,0,0,rectangle,6.765625,-0.84375,1,0,0,6.765625,-0.84375,1,0,0,1,80,240,54,1,,,,,,,,
,,,,,,,,,,,,,FF,,,,,,,,1.467465,,,,,,,,,,,,,,,,,,,,,,60ff76d6c604411be3f09861,61036d7cdaa4d7d2a8d929b4,2021-07-29_23h16.09.825,Simcolourproject_2stim_asymm_v5,2020.2.10,MacIntel,60,61025ae37ef11b136ea224fe,,,,,,,,,190,-44.43359375,-102.15625,1,0,0,response5disk,,3,-0.734375,-4.5703125,1,0,0,rectangle,-46.7890625,-95.2265625,1,0,0,-8.078125,-1.15625,1,0,0,1,81,241,123,1,,response5disk_3,TRUE,3,3,"[286,23,27,108,290,276,150,292,233,39,177,242,223,244,119,246,155,39,179,59]",1.66749,rectangle
,,,,,,,,,,,,,FF,,,,,,,,2.366475,,,,,,,,,,,,,,,,,,,,,,60ff76d6c604411be3f09861,61036d7cdaa4d7d2a8d929b4,2021-07-29_23h16.09.825,Simcolourproject_2stim_asymm_v5,2020.2.10,MacIntel,60,61025ae37ef11b136ea224fe,,,,,,,,,3959,91.734375,-28.234375,1,0,0,response3disk,,5,15.765625,-6.390625,1,0,0,rectangle,15.765625,-6.390625,1,0,0,15.765625,-6.390625,1,0,0,1,82,242,75,1,,,,,,,,
,,,,,,,,,,,,,FF,,,,,,,,2.10057,,,,,,,,,,,,,,,,,,,,,,60ff76d6c604411be3f09861,61036d7cdaa4d7d2a8d929b4,2021-07-29_23h16.09.825,Simcolourproject_2stim_asymm_v5,2020.2.10,MacIntel,60,61025ae37ef11b136ea224fe,,,,,,,,,2316,-36.1171875,-83.03125,1,0,0,response5disk,,3,0.69921875,-6.66015625,1,0,0,rectangle,-78.984375,41.3515625,1,0,0,-2.1015625,-1.796875,1,0,0,1,83,243,49,1,,response7disk_3,TRUE,1,1,"[286,23,27,108,290,276,150,292,233,39,177,242,223,244,119,246,155,39,179,59]",1.749445,rectangle
,,,,,,,,,,,,,FF,,,,,,,,0.933755,,,,,,,,,,,,,,,,,,,,,,60ff76d6c604411be3f09861,61036d7cdaa4d7d2a8d929b4,2021-07-29_23h16.09.825,Simcolourproject_2stim_asymm_v5,2020.2.10,MacIntel,60,61025ae37ef11b136ea224fe,,,,,,,,,1131,-26.33203125,67.0625,1,0,0,response7disk,,0,-11.234375,6.56640625,1,0,0,rectangle,-11.234375,6.56640625,1,0,0,-11.234375,6.56640625,1,0,0,1,84,244,45,1,,,,,,,,
,,,,,,,,,,,,,FF,,,,,,,,2.249545,,,,,,,,,,,,,,,,,,,,,,60ff76d6c604411be3f09861,61036d7cdaa4d7d2a8d929b4,2021-07-29_23h16.09.825,Simcolourproject_2stim_asymm_v5,2020.2.10,MacIntel,60,61025ae37ef11b136ea224fe,,,,,,,,,4016,68.40234375,38.4765625,1,0,0,response1disk,,6,-6.3671875,1.0546875,1,0,0,rectangle,-65.375,44.46875,1,0,0,-4.6875,1.39453125,1,0,0,1,85,245,82,1,,response7disk_3,TRUE,1,1,"[286,23,27,108,290,276,150,292,233,39,177,242,223,244,119,246,155,39,179,59]",1.332565,rectangle
,,,,,,,,,,,,,FF,,,,,,,,1.5666,,,,,,,,,,,,,,,,,,,,,,60ff76d6c604411be3f09861,61036d7cdaa4d7d2a8d929b4,2021-07-29_23h16.09.825,Simcolourproject_2stim_asymm_v5,2020.2.10,MacIntel,60,61025ae37ef11b136ea224fe,,,,,,,,,257,-67.4140625,-43.08203125,1,0,0,response5disk,,2,-3.8515625,-2.71484375,1,0,0,rectangle,-3.8515625,-2.71484375,1,0,0,-3.8515625,-2.71484375,1,0,0,1,86,246,9,1,,,,,,,,
