key_resp.keys,key_resp.rt,key_resp_14.keys,key_resp_14.rt,key_resp_15.keys,key_resp_15.rt,key_resp_17.keys,key_resp_17.rt,key_resp_9.keys,key_resp_9.rt,key_resp_10.keys,key_resp_10.rt,practice_comparison,Ecc,mouse_5.x,mouse_5.y,mouse_5.leftButton,mouse_5.midButton,mouse_5.rightButton,mouse_5.clicked_name,pracsimilarity,response_time,mouse_10.x,mouse_10.y,mouse_10.leftButton,mouse_10.midButton,mouse_10.rightButton,mouse_10.clicked_name,mouse_7.x,mouse_7.y,mouse_7.leftButton,mouse_7.midButton,mouse_7.rightButton,mouse_6.x,mouse_6.y,mouse_6.leftButton,mouse_6.midButton,mouse_6.rightButton,duringprac.thisRepN,duringprac.thisTrialN,duringprac.thisN,duringprac.thisIndex,duringprac.ran,participant,session,date,expName,psychopyVersion,OS,frameRate,study_id,mouse_7.clicked_name,catchpracsimilarity,catch_response_time,catchnumberprac,catchtrialorderprac,mouse_6.clicked_name,key_resp_22.keys,key_resp_22.rt,realcomparison,mouse.x,mouse.y,mouse.leftButton,mouse.midButton,mouse.rightButton,mouse.clicked_name,Colour2,similarity,mouse_2.x,mouse_2.y,mouse_2.leftButton,mouse_2.midButton,mouse_2.rightButton,mouse_2.clicked_name,mouse_3.x,mouse_3.y,mouse_3.leftButton,mouse_3.midButton,mouse_3.rightButton,mouse_11.x,mouse_11.y,mouse_11.leftButton,mouse_11.midButton,mouse_11.rightButton,trials_2.thisRepN,trials_2.thisTrialN,trials_2.thisN,trials_2.thisIndex,trials_2.ran,Colour1,mouse_3.clicked_name,catchornah,catchsimilarity,catchnumber,catchtrialorder,catchRT,mouse_11.clicked_name
space,3.3364,space,10.923,space,12.7429,space,8.0676,space,1.3764,space,2.84,129,FF,-57,-132,1,0,0,response5disk_5,3,9.6835,6,5,1,0,0,rectangle_8,6,5,1,0,0,6,5,1,0,0,0,0,0,5,1,60ff1ca8414d34df01312124,6103775e6d97b3a2a315b056,2021-07-29_23h05.52.363,Simcolourproject_2stim_asymm_v5,2020.2.10,Win32,60,61025ae37ef11b136ea224fe,,,,,,,,,,,,,,,,,,,,,,,,,,,,,,,,,,,,,,,,,,,,,,
,,,,,,,,,,,,155,PF,-65,-119,1,0,0,response5disk_5,3,2.0499,4,-15,1,0,0,rectangle_8,109,40,1,0,0,-6,5,1,0,0,0,1,1,1,1,60ff1ca8414d34df01312124,6103775e6d97b3a2a315b056,2021-07-29_23h05.52.363,Simcolourproject_2stim_asymm_v5,2020.2.10,Win32,60,61025ae37ef11b136ea224fe,response1disk_7,6,2.334,6,"[2,5]",rectangle_4,,,,,,,,,,,,,,,,,,,,,,,,,,,,,,,,,,,,,,,,
,,,,,,,,,,,,156,FF,-82,54,1,0,0,response7disk_5,1,1.2502,10,11,1,0,0,rectangle_8,10,11,1,0,0,10,11,1,0,0,0,2,2,0,1,60ff1ca8414d34df01312124,6103775e6d97b3a2a315b056,2021-07-29_23h05.52.363,Simcolourproject_2stim_asymm_v5,2020.2.10,Win32,60,61025ae37ef11b136ea224fe,,,,,,,,,,,,,,,,,,,,,,,,,,,,,,,,,,,,,,,,,,,,,,
,,,,,,,,,,,,43,PF,34,-85,1,0,0,response3disk_5,4,0.9834,-9,0,1,0,0,rectangle_8,-9,0,1,0,0,-9,0,1,0,0,0,3,3,4,1,60ff1ca8414d34df01312124,6103775e6d97b3a2a315b056,2021-07-29_23h05.52.363,Simcolourproject_2stim_asymm_v5,2020.2.10,Win32,60,61025ae37ef11b136ea224fe,,,,,,,,,,,,,,,,,,,,,,,,,,,,,,,,,,,,,,,,,,,,,,
,,,,,,,,,,,,69,PF,107,-69,1,0,0,response3disk_5,5,1.1665,12,-9,1,0,0,rectangle_8,130,33,1,0,0,3,6,1,0,0,0,4,4,6,1,60ff1ca8414d34df01312124,6103775e6d97b3a2a315b056,2021-07-29_23h05.52.363,Simcolourproject_2stim_asymm_v5,2020.2.10,Win32,60,61025ae37ef11b136ea224fe,response1disk_7,6,1.9164,6,"[2,5]",rectangle_4,,,,,,,,,,,,,,,,,,,,,,,,,,,,,,,,,,,,,,,,
,,,,,,,,,,,,106,FF,105,-70,1,0,0,response3disk_5,5,1.25,11,-6,1,0,0,rectangle_8,11,-6,1,0,0,11,-6,1,0,0,0,5,5,3,1,60ff1ca8414d34df01312124,6103775e6d97b3a2a315b056,2021-07-29_23h05.52.363,Simcolourproject_2stim_asymm_v5,2020.2.10,Win32,60,61025ae37ef11b136ea224fe,,,,,,,,,,,,,,,,,,,,,,,,,,,,,,,,,,,,,,,,,,,,,,
,,,,,,,,,,,,152,PF,67,130,1,0,0,response1disk_5,7,3.4333,10,5,1,0,0,rectangle_8,10,5,1,0,0,10,5,1,0,0,0,6,6,2,1,60ff1ca8414d34df01312124,6103775e6d97b3a2a315b056,2021-07-29_23h05.52.363,Simcolourproject_2stim_asymm_v5,2020.2.10,Win32,60,61025ae37ef11b136ea224fe,,,,,,,,,,,,,,,,,,,,,,,,,,,,,,,,,,,,,,,,,,,,,,
,,,,,,,,,,,,,FF,,,,,,,,1.7336,,,,,,,,,,,,,,,,,,,,,,60ff1ca8414d34df01312124,6103775e6d97b3a2a315b056,2021-07-29_23h05.52.363,Simcolourproject_2stim_asymm_v5,2020.2.10,Win32,60,61025ae37ef11b136ea224fe,,,,,,,space,1.8345,1112,118,-60,1,0,0,response3disk,,5,-11,19,1,0,0,rectangle,-11,19,1,0,0,-11,19,1,0,0,0,0,0,89,1,,,,,,,,
,,,,,,,,,,,,,FF,,,,,,,,1.3832,,,,,,,,,,,,,,,,,,,,,,60ff1ca8414d34df01312124,6103775e6d97b3a2a315b056,2021-07-29_23h05.52.363,Simcolourproject_2stim_asymm_v5,2020.2.10,Win32,60,61025ae37ef11b136ea224fe,,,,,,,,,3988,105,55,1,0,0,response1disk,,6,2,7,1,0,0,rectangle,2,7,1,0,0,2,7,1,0,0,0,1,1,130,1,,,,,,,,
,,,,,,,,,,,,,FF,,,,,,,,1.4834,,,,,,,,,,,,,,,,,,,,,,60ff1ca8414d34df01312124,6103775e6d97b3a2a315b056,2021-07-29_23h05.52.363,Simcolourproject_2stim_asymm_v5,2020.2.10,Win32,60,61025ae37ef11b136ea224fe,,,,,,,,,830,145,37,1,0,0,response1disk,,6,9,-6,1,0,0,rectangle,9,-6,1,0,0,9,-6,1,0,0,0,2,2,13,1,,,,,,,,
,,,,,,,,,,,,,FF,,,,,,,,2,,,,,,,,,,,,,,,,,,,,,,60ff1ca8414d34df01312124,6103775e6d97b3a2a315b056,2021-07-29_23h05.52.363,Simcolourproject_2stim_asymm_v5,2020.2.10,Win32,60,61025ae37ef11b136ea224fe,,,,,,,,,1775,95,-42,1,0,0,response3disk,,5,5,2,1,0,0,rectangle,5,2,1,0,0,5,2,1,0,0,0,3,3,19,1,,,,,,,,
,,,,,,,,,,,,,FF,,,,,,,,0.8832,,,,,,,,,,,,,,,,,,,,,,60ff1ca8414d34df01312124,6103775e6d97b3a2a315b056,2021-07-29_23h05.52.363,Simcolourproject_2stim_asymm_v5,2020.2.10,Win32,60,61025ae37ef11b136ea224fe,,,,,,,,,768,110,-37,1,0,0,response3disk,,5,8,-12,1,0,0,rectangle,-105,57,1,0,0,-18,0,1,0,0,0,4,4,146,1,,response7disk_3,TRUE,1,1,"[125,179,126,22,303,286,98,156,39,299,5,124,232,132,147,65,100,198,27,136]",2.0002,rectangle
,,,,,,,,,,,,,FF,,,,,,,,3.15,,,,,,,,,,,,,,,,,,,,,,60ff1ca8414d34df01312124,6103775e6d97b3a2a315b056,2021-07-29_23h05.52.363,Simcolourproject_2stim_asymm_v5,2020.2.10,Win32,60,61025ae37ef11b136ea224fe,,,,,,,,,866,-73,-91,1,0,0,response5disk,,3,6,-14,1,0,0,rectangle,6,-14,1,0,0,6,-14,1,0,0,0,5,5,115,1,,,,,,,,
,,,,,,,,,,,,,FF,,,,,,,,0.5832,,,,,,,,,,,,,,,,,,,,,,60ff1ca8414d34df01312124,6103775e6d97b3a2a315b056,2021-07-29_23h05.52.363,Simcolourproject_2stim_asymm_v5,2020.2.10,Win32,60,61025ae37ef11b136ea224fe,,,,,,,,,471,81,-47,1,0,0,response3disk,,5,-10,0,1,0,0,rectangle,-10,0,1,0,0,-10,0,1,0,0,0,6,6,36,1,,,,,,,,
,,,,,,,,,,,,,FF,,,,,,,,0.8499,,,,,,,,,,,,,,,,,,,,,,60ff1ca8414d34df01312124,6103775e6d97b3a2a315b056,2021-07-29_23h05.52.363,Simcolourproject_2stim_asymm_v5,2020.2.10,Win32,60,61025ae37ef11b136ea224fe,,,,,,,,,4355,94,47,1,0,0,response1disk,,6,9,10,1,0,0,rectangle,9,10,1,0,0,9,10,1,0,0,0,7,7,138,1,,,,,,,,
,,,,,,,,,,,,,FF,,,,,,,,0.9501,,,,,,,,,,,,,,,,,,,,,,60ff1ca8414d34df01312124,6103775e6d97b3a2a315b056,2021-07-29_23h05.52.363,Simcolourproject_2stim_asymm_v5,2020.2.10,Win32,60,61025ae37ef11b136ea224fe,,,,,,,,,2097,-68,-58,1,0,0,response5disk,,2,17,-20,1,0,0,rectangle,17,-20,1,0,0,17,-20,1,0,0,0,8,8,108,1,,,,,,,,
,,,,,,,,,,,,,FF,,,,,,,,1.1001,,,,,,,,,,,,,,,,,,,,,,60ff1ca8414d34df01312124,6103775e6d97b3a2a315b056,2021-07-29_23h05.52.363,Simcolourproject_2stim_asymm_v5,2020.2.10,Win32,60,61025ae37ef11b136ea224fe,,,,,,,,,1174,102,-51,1,0,0,response3disk,,5,-16,-1,1,0,0,rectangle,-16,-1,1,0,0,-16,-1,1,0,0,0,9,9,104,1,,,,,,,,
,,,,,,,,,,,,,FF,,,,,,,,1.0665,,,,,,,,,,,,,,,,,,,,,,60ff1ca8414d34df01312124,6103775e6d97b3a2a315b056,2021-07-29_23h05.52.363,Simcolourproject_2stim_asymm_v5,2020.2.10,Win32,60,61025ae37ef11b136ea224fe,,,,,,,,,2618,-25,-109,1,0,0,response5disk,,3,21,-8,1,0,0,rectangle,21,-8,1,0,0,21,-8,1,0,0,0,10,10,44,1,,,,,,,,
,,,,,,,,,,,,,FF,,,,,,,,2.7334,,,,,,,,,,,,,,,,,,,,,,60ff1ca8414d34df01312124,6103775e6d97b3a2a315b056,2021-07-29_23h05.52.363,Simcolourproject_2stim_asymm_v5,2020.2.10,Win32,60,61025ae37ef11b136ea224fe,,,,,,,,,1001,-40,-93,1,0,0,response5disk,,3,-7,-4,1,0,0,rectangle,-7,-4,1,0,0,-7,-4,1,0,0,0,11,11,8,1,,,,,,,,
,,,,,,,,,,,,,FF,,,,,,,,0.7001,,,,,,,,,,,,,,,,,,,,,,60ff1ca8414d34df01312124,6103775e6d97b3a2a315b056,2021-07-29_23h05.52.363,Simcolourproject_2stim_asymm_v5,2020.2.10,Win32,60,61025ae37ef11b136ea224fe,,,,,,,,,4160,55,-84,1,0,0,response3disk,,4,4,0,1,0,0,rectangle,4,0,1,0,0,4,0,1,0,0,0,12,12,106,1,,,,,,,,
,,,,,,,,,,,,,FF,,,,,,,,0.8001,,,,,,,,,,,,,,,,,,,,,,60ff1ca8414d34df01312124,6103775e6d97b3a2a315b056,2021-07-29_23h05.52.363,Simcolourproject_2stim_asymm_v5,2020.2.10,Win32,60,61025ae37ef11b136ea224fe,,,,,,,,,2225,112,70,1,0,0,response1disk,,6,5,-2,1,0,0,rectangle,5,-2,1,0,0,5,-2,1,0,0,0,13,13,97,1,,,,,,,,
,,,,,,,,,,,,,FF,,,,,,,,0.6666,,,,,,,,,,,,,,,,,,,,,,60ff1ca8414d34df01312124,6103775e6d97b3a2a315b056,2021-07-29_23h05.52.363,Simcolourproject_2stim_asymm_v5,2020.2.10,Win32,60,61025ae37ef11b136ea224fe,,,,,,,,,338,35,-82,1,0,0,response3disk,,4,15,6,1,0,0,rectangle,15,6,1,0,0,15,6,1,0,0,0,14,14,46,1,,,,,,,,
,,,,,,,,,,,,,FF,,,,,,,,0.9832,,,,,,,,,,,,,,,,,,,,,,60ff1ca8414d34df01312124,6103775e6d97b3a2a315b056,2021-07-29_23h05.52.363,Simcolourproject_2stim_asymm_v5,2020.2.10,Win32,60,61025ae37ef11b136ea224fe,,,,,,,,,4101,47,-97,1,0,0,response3disk,,4,9,-15,1,0,0,rectangle,9,-15,1,0,0,9,-15,1,0,0,0,15,15,81,1,,,,,,,,
,,,,,,,,,,,,,FF,,,,,,,,1.25,,,,,,,,,,,,,,,,,,,,,,60ff1ca8414d34df01312124,6103775e6d97b3a2a315b056,2021-07-29_23h05.52.363,Simcolourproject_2stim_asymm_v5,2020.2.10,Win32,60,61025ae37ef11b136ea224fe,,,,,,,,,493,89,58,1,0,0,response1disk,,6,28,12,1,0,0,rectangle,28,12,1,0,0,28,12,1,0,0,0,16,16,134,1,,,,,,,,
,,,,,,,,,,,,,FF,,,,,,,,0.9832,,,,,,,,,,,,,,,,,,,,,,60ff1ca8414d34df01312124,6103775e6d97b3a2a315b056,2021-07-29_23h05.52.363,Simcolourproject_2stim_asymm_v5,2020.2.10,Win32,60,61025ae37ef11b136ea224fe,,,,,,,,,2903,97,46,1,0,0,response1disk,,6,34,-14,1,0,0,rectangle,34,-14,1,0,0,34,-14,1,0,0,0,17,17,158,1,,,,,,,,
,,,,,,,,,,,,,FF,,,,,,,,1.0496,,,,,,,,,,,,,,,,,,,,,,60ff1ca8414d34df01312124,6103775e6d97b3a2a315b056,2021-07-29_23h05.52.363,Simcolourproject_2stim_asymm_v5,2020.2.10,Win32,60,61025ae37ef11b136ea224fe,,,,,,,,,3529,54,93,1,0,0,response1disk,,7,17,7,1,0,0,rectangle,17,7,1,0,0,17,7,1,0,0,0,18,18,48,1,,,,,,,,
,,,,,,,,,,,,,FF,,,,,,,,0.5165,,,,,,,,,,,,,,,,,,,,,,60ff1ca8414d34df01312124,6103775e6d97b3a2a315b056,2021-07-29_23h05.52.363,Simcolourproject_2stim_asymm_v5,2020.2.10,Win32,60,61025ae37ef11b136ea224fe,,,,,,,,,3077,45,77,1,0,0,response1disk,,7,18,-1,1,0,0,rectangle,18,-1,1,0,0,18,-1,1,0,0,0,19,19,95,1,,,,,,,,
,,,,,,,,,,,,,FF,,,,,,,,0.6166,,,,,,,,,,,,,,,,,,,,,,60ff1ca8414d34df01312124,6103775e6d97b3a2a315b056,2021-07-29_23h05.52.363,Simcolourproject_2stim_asymm_v5,2020.2.10,Win32,60,61025ae37ef11b136ea224fe,,,,,,,,,1920,50,75,1,0,0,response1disk,,7,15,-14,1,0,0,rectangle,15,-14,1,0,0,15,-14,1,0,0,0,20,20,153,1,,,,,,,,
,,,,,,,,,,,,,FF,,,,,,,,1.3999,,,,,,,,,,,,,,,,,,,,,,60ff1ca8414d34df01312124,6103775e6d97b3a2a315b056,2021-07-29_23h05.52.363,Simcolourproject_2stim_asymm_v5,2020.2.10,Win32,60,61025ae37ef11b136ea224fe,,,,,,,,,2722,-57,-116,1,0,0,response5disk,,3,-4,11,1,0,0,rectangle,-44,121,1,0,0,1,-4,1,0,0,0,21,21,84,1,,response7disk_3,TRUE,0,0,"[125,179,126,22,303,286,98,156,39,299,5,124,232,132,147,65,100,198,27,136]",1.7498,rectangle
,,,,,,,,,,,,,FF,,,,,,,,2.15,,,,,,,,,,,,,,,,,,,,,,60ff1ca8414d34df01312124,6103775e6d97b3a2a315b056,2021-07-29_23h05.52.363,Simcolourproject_2stim_asymm_v5,2020.2.10,Win32,60,61025ae37ef11b136ea224fe,,,,,,,,,109,108,-60,1,0,0,response3disk,,5,2,-4,1,0,0,rectangle,2,-4,1,0,0,2,-4,1,0,0,0,22,22,50,1,,,,,,,,
,,,,,,,,,,,,,FF,,,,,,,,0.8168,,,,,,,,,,,,,,,,,,,,,,60ff1ca8414d34df01312124,6103775e6d97b3a2a315b056,2021-07-29_23h05.52.363,Simcolourproject_2stim_asymm_v5,2020.2.10,Win32,60,61025ae37ef11b136ea224fe,,,,,,,,,1950,98,-44,1,0,0,response3disk,,5,-15,2,1,0,0,rectangle,-15,2,1,0,0,-15,2,1,0,0,0,23,23,65,1,,,,,,,,
,,,,,,,,,,,,,FF,,,,,,,,1.7167,,,,,,,,,,,,,,,,,,,,,,60ff1ca8414d34df01312124,6103775e6d97b3a2a315b056,2021-07-29_23h05.52.363,Simcolourproject_2stim_asymm_v5,2020.2.10,Win32,60,61025ae37ef11b136ea224fe,,,,,,,,,3672,-109,-51,1,0,0,response5disk,,2,6,18,1,0,0,rectangle,6,18,1,0,0,6,18,1,0,0,0,24,24,10,1,,,,,,,,
,,,,,,,,,,,,,FF,,,,,,,,0.5497,,,,,,,,,,,,,,,,,,,,,,60ff1ca8414d34df01312124,6103775e6d97b3a2a315b056,2021-07-29_23h05.52.363,Simcolourproject_2stim_asymm_v5,2020.2.10,Win32,60,61025ae37ef11b136ea224fe,,,,,,,,,130,84,-42,1,0,0,response3disk,,5,-4,-9,1,0,0,rectangle,-4,-9,1,0,0,-4,-9,1,0,0,0,25,25,117,1,,,,,,,,
,,,,,,,,,,,,,FF,,,,,,,,0.9167,,,,,,,,,,,,,,,,,,,,,,60ff1ca8414d34df01312124,6103775e6d97b3a2a315b056,2021-07-29_23h05.52.363,Simcolourproject_2stim_asymm_v5,2020.2.10,Win32,60,61025ae37ef11b136ea224fe,,,,,,,,,2241,-88,-41,1,0,0,response5disk,,2,23,3,1,0,0,rectangle,103,34,1,0,0,35,-1,1,0,0,0,26,26,142,1,,response1disk_3,TRUE,6,6,"[125,179,126,22,303,286,98,156,39,299,5,124,232,132,147,65,100,198,27,136]",1.5328,rectangle
,,,,,,,,,,,,,FF,,,,,,,,0.7168,,,,,,,,,,,,,,,,,,,,,,60ff1ca8414d34df01312124,6103775e6d97b3a2a315b056,2021-07-29_23h05.52.363,Simcolourproject_2stim_asymm_v5,2020.2.10,Win32,60,61025ae37ef11b136ea224fe,,,,,,,,,1511,102,39,1,0,0,response1disk,,6,5,4,1,0,0,rectangle,5,4,1,0,0,5,4,1,0,0,0,27,27,143,1,,,,,,,,
,,,,,,,,,,,,,FF,,,,,,,,0.7501,,,,,,,,,,,,,,,,,,,,,,60ff1ca8414d34df01312124,6103775e6d97b3a2a315b056,2021-07-29_23h05.52.363,Simcolourproject_2stim_asymm_v5,2020.2.10,Win32,60,61025ae37ef11b136ea224fe,,,,,,,,,1712,91,37,1,0,0,response1disk,,6,-12,2,1,0,0,rectangle,-12,2,1,0,0,-12,2,1,0,0,0,28,28,159,1,,,,,,,,
,,,,,,,,,,,,,FF,,,,,,,,0.7168,,,,,,,,,,,,,,,,,,,,,,60ff1ca8414d34df01312124,6103775e6d97b3a2a315b056,2021-07-29_23h05.52.363,Simcolourproject_2stim_asymm_v5,2020.2.10,Win32,60,61025ae37ef11b136ea224fe,,,,,,,,,4126,-103,-33,1,0,0,response5disk,,2,44,9,1,0,0,rectangle,44,9,1,0,0,44,9,1,0,0,0,29,29,66,1,,,,,,,,
,,,,,,,,,,,,,FF,,,,,,,,0.5998,,,,,,,,,,,,,,,,,,,,,,60ff1ca8414d34df01312124,6103775e6d97b3a2a315b056,2021-07-29_23h05.52.363,Simcolourproject_2stim_asymm_v5,2020.2.10,Win32,60,61025ae37ef11b136ea224fe,,,,,,,,,3895,80,-45,1,0,0,response3disk,,5,-13,-8,1,0,0,rectangle,-13,-8,1,0,0,-13,-8,1,0,0,0,30,30,80,1,,,,,,,,
,,,,,,,,,,,,,FF,,,,,,,,0.7334,,,,,,,,,,,,,,,,,,,,,,60ff1ca8414d34df01312124,6103775e6d97b3a2a315b056,2021-07-29_23h05.52.363,Simcolourproject_2stim_asymm_v5,2020.2.10,Win32,60,61025ae37ef11b136ea224fe,,,,,,,,,1384,-61,-30,1,0,0,response5disk,,2,38,2,1,0,0,rectangle,38,2,1,0,0,38,2,1,0,0,0,31,31,110,1,,,,,,,,
,,,,,,,,,,,,,FF,,,,,,,,0.7169,,,,,,,,,,,,,,,,,,,,,,60ff1ca8414d34df01312124,6103775e6d97b3a2a315b056,2021-07-29_23h05.52.363,Simcolourproject_2stim_asymm_v5,2020.2.10,Win32,60,61025ae37ef11b136ea224fe,,,,,,,,,3103,-90,-33,1,0,0,response5disk,,2,2,-15,1,0,0,rectangle,2,-15,1,0,0,2,-15,1,0,0,0,32,32,25,1,,,,,,,,
,,,,,,,,,,,,,FF,,,,,,,,1.4833,,,,,,,,,,,,,,,,,,,,,,60ff1ca8414d34df01312124,6103775e6d97b3a2a315b056,2021-07-29_23h05.52.363,Simcolourproject_2stim_asymm_v5,2020.2.10,Win32,60,61025ae37ef11b136ea224fe,,,,,,,,,3360,56,-70,1,0,0,response3disk,,4,16,7,1,0,0,rectangle,16,7,1,0,0,16,7,1,0,0,0,33,33,86,1,,,,,,,,
,,,,,,,,,,,,,FF,,,,,,,,0.5167,,,,,,,,,,,,,,,,,,,,,,60ff1ca8414d34df01312124,6103775e6d97b3a2a315b056,2021-07-29_23h05.52.363,Simcolourproject_2stim_asymm_v5,2020.2.10,Win32,60,61025ae37ef11b136ea224fe,,,,,,,,,2200,108,-44,1,0,0,response3disk,,5,-3,-7,1,0,0,rectangle,-3,-7,1,0,0,-3,-7,1,0,0,0,34,34,30,1,,,,,,,,
,,,,,,,,,,,,,FF,,,,,,,,0.5666,,,,,,,,,,,,,,,,,,,,,,60ff1ca8414d34df01312124,6103775e6d97b3a2a315b056,2021-07-29_23h05.52.363,Simcolourproject_2stim_asymm_v5,2020.2.10,Win32,60,61025ae37ef11b136ea224fe,,,,,,,,,938,68,45,1,0,0,response1disk,,6,12,-7,1,0,0,rectangle,12,-7,1,0,0,12,-7,1,0,0,0,35,35,63,1,,,,,,,,
,,,,,,,,,,,,,FF,,,,,,,,1.1833,,,,,,,,,,,,,,,,,,,,,,60ff1ca8414d34df01312124,6103775e6d97b3a2a315b056,2021-07-29_23h05.52.363,Simcolourproject_2stim_asymm_v5,2020.2.10,Win32,60,61025ae37ef11b136ea224fe,,,,,,,,,2936,-38,-92,1,0,0,response5disk,,3,21,-3,1,0,0,rectangle,21,-3,1,0,0,21,-3,1,0,0,0,36,36,92,1,,,,,,,,
,,,,,,,,,,,,,FF,,,,,,,,0.5166,,,,,,,,,,,,,,,,,,,,,,60ff1ca8414d34df01312124,6103775e6d97b3a2a315b056,2021-07-29_23h05.52.363,Simcolourproject_2stim_asymm_v5,2020.2.10,Win32,60,61025ae37ef11b136ea224fe,,,,,,,,,2594,67,-74,1,0,0,response3disk,,4,20,5,1,0,0,rectangle,20,5,1,0,0,20,5,1,0,0,0,37,37,116,1,,,,,,,,
,,,,,,,,,,,,,FF,,,,,,,,0.5662,,,,,,,,,,,,,,,,,,,,,,60ff1ca8414d34df01312124,6103775e6d97b3a2a315b056,2021-07-29_23h05.52.363,Simcolourproject_2stim_asymm_v5,2020.2.10,Win32,60,61025ae37ef11b136ea224fe,,,,,,,,,3606,96,-52,1,0,0,response3disk,,5,12,4,1,0,0,rectangle,128,32,1,0,0,19,0,1,0,0,0,38,38,128,1,,response1disk_3,TRUE,6,6,"[125,179,126,22,303,286,98,156,39,299,5,124,232,132,147,65,100,198,27,136]",1.5166,rectangle
,,,,,,,,,,,,,FF,,,,,,,,0.5664,,,,,,,,,,,,,,,,,,,,,,60ff1ca8414d34df01312124,6103775e6d97b3a2a315b056,2021-07-29_23h05.52.363,Simcolourproject_2stim_asymm_v5,2020.2.10,Win32,60,61025ae37ef11b136ea224fe,,,,,,,,,521,74,-64,1,0,0,response3disk,,5,4,3,1,0,0,rectangle,4,3,1,0,0,4,3,1,0,0,0,39,39,15,1,,,,,,,,
,,,,,,,,,,,,,FF,,,,,,,,0.6001,,,,,,,,,,,,,,,,,,,,,,60ff1ca8414d34df01312124,6103775e6d97b3a2a315b056,2021-07-29_23h05.52.363,Simcolourproject_2stim_asymm_v5,2020.2.10,Win32,60,61025ae37ef11b136ea224fe,,,,,,,,,3764,78,38,1,0,0,response1disk,,6,12,-10,1,0,0,rectangle,12,-10,1,0,0,12,-10,1,0,0,0,40,40,121,1,,,,,,,,
,,,,,,,,,,,,,FF,,,,,,,,0.8331,,,,,,,,,,,,,,,,,,,,,,60ff1ca8414d34df01312124,6103775e6d97b3a2a315b056,2021-07-29_23h05.52.363,Simcolourproject_2stim_asymm_v5,2020.2.10,Win32,60,61025ae37ef11b136ea224fe,,,,,,,,,3915,-42,-74,1,0,0,response5disk,,3,-6,5,1,0,0,rectangle,-6,5,1,0,0,-6,5,1,0,0,0,41,41,17,1,,,,,,,,
,,,,,,,,,,,,,FF,,,,,,,,0.8339,,,,,,,,,,,,,,,,,,,,,,60ff1ca8414d34df01312124,6103775e6d97b3a2a315b056,2021-07-29_23h05.52.363,Simcolourproject_2stim_asymm_v5,2020.2.10,Win32,60,61025ae37ef11b136ea224fe,,,,,,,,,1574,124,45,1,0,0,response1disk,,6,-4,3,1,0,0,rectangle,-4,3,1,0,0,-4,3,1,0,0,0,42,42,1,1,,,,,,,,
,,,,,,,,,,,,,FF,,,,,,,,0.5832,,,,,,,,,,,,,,,,,,,,,,60ff1ca8414d34df01312124,6103775e6d97b3a2a315b056,2021-07-29_23h05.52.363,Simcolourproject_2stim_asymm_v5,2020.2.10,Win32,60,61025ae37ef11b136ea224fe,,,,,,,,,3723,82,37,1,0,0,response1disk,,6,-7,-7,1,0,0,rectangle,-7,-7,1,0,0,-7,-7,1,0,0,0,43,43,23,1,,,,,,,,
,,,,,,,,,,,,,FF,,,,,,,,0.3668,,,,,,,,,,,,,,,,,,,,,,60ff1ca8414d34df01312124,6103775e6d97b3a2a315b056,2021-07-29_23h05.52.363,Simcolourproject_2stim_asymm_v5,2020.2.10,Win32,60,61025ae37ef11b136ea224fe,,,,,,,,,962,141,46,1,0,0,response1disk,,6,14,-4,1,0,0,rectangle,14,-4,1,0,0,14,-4,1,0,0,0,44,44,6,1,,,,,,,,
,,,,,,,,,,,,,FF,,,,,,,,0.5166,,,,,,,,,,,,,,,,,,,,,,60ff1ca8414d34df01312124,6103775e6d97b3a2a315b056,2021-07-29_23h05.52.363,Simcolourproject_2stim_asymm_v5,2020.2.10,Win32,60,61025ae37ef11b136ea224fe,,,,,,,,,2447,123,43,1,0,0,response1disk,,6,11,-2,1,0,0,rectangle,11,-2,1,0,0,11,-2,1,0,0,0,45,45,28,1,,,,,,,,
,,,,,,,,,,,,,FF,,,,,,,,0.5329,,,,,,,,,,,,,,,,,,,,,,60ff1ca8414d34df01312124,6103775e6d97b3a2a315b056,2021-07-29_23h05.52.363,Simcolourproject_2stim_asymm_v5,2020.2.10,Win32,60,61025ae37ef11b136ea224fe,,,,,,,,,2195,115,68,1,0,0,response1disk,,6,-14,7,1,0,0,rectangle,-14,7,1,0,0,-14,7,1,0,0,0,46,46,156,1,,,,,,,,
,,,,,,,,,,,,,FF,,,,,,,,0.5168,,,,,,,,,,,,,,,,,,,,,,60ff1ca8414d34df01312124,6103775e6d97b3a2a315b056,2021-07-29_23h05.52.363,Simcolourproject_2stim_asymm_v5,2020.2.10,Win32,60,61025ae37ef11b136ea224fe,,,,,,,,,1336,52,94,1,0,0,response1disk,,7,11,9,1,0,0,rectangle,11,9,1,0,0,11,9,1,0,0,0,47,47,139,1,,,,,,,,
,,,,,,,,,,,,,FF,,,,,,,,0.6166,,,,,,,,,,,,,,,,,,,,,,60ff1ca8414d34df01312124,6103775e6d97b3a2a315b056,2021-07-29_23h05.52.363,Simcolourproject_2stim_asymm_v5,2020.2.10,Win32,60,61025ae37ef11b136ea224fe,,,,,,,,,4273,106,43,1,0,0,response1disk,,6,39,9,1,0,0,rectangle,39,9,1,0,0,39,9,1,0,0,0,48,48,0,1,,,,,,,,
,,,,,,,,,,,,,FF,,,,,,,,1.2167,,,,,,,,,,,,,,,,,,,,,,60ff1ca8414d34df01312124,6103775e6d97b3a2a315b056,2021-07-29_23h05.52.363,Simcolourproject_2stim_asymm_v5,2020.2.10,Win32,60,61025ae37ef11b136ea224fe,,,,,,,,,3179,105,46,1,0,0,response1disk,,6,11,-9,1,0,0,rectangle,11,-9,1,0,0,11,-9,1,0,0,0,49,49,85,1,,,,,,,,
,,,,,,,,,,,,,FF,,,,,,,,0.8666,,,,,,,,,,,,,,,,,,,,,,60ff1ca8414d34df01312124,6103775e6d97b3a2a315b056,2021-07-29_23h05.52.363,Simcolourproject_2stim_asymm_v5,2020.2.10,Win32,60,61025ae37ef11b136ea224fe,,,,,,,,,1194,-52,-88,1,0,0,response5disk,,3,10,20,1,0,0,rectangle,10,20,1,0,0,10,20,1,0,0,0,50,50,5,1,,,,,,,,
,,,,,,,,,,,,,FF,,,,,,,,0.9501,,,,,,,,,,,,,,,,,,,,,,60ff1ca8414d34df01312124,6103775e6d97b3a2a315b056,2021-07-29_23h05.52.363,Simcolourproject_2stim_asymm_v5,2020.2.10,Win32,60,61025ae37ef11b136ea224fe,,,,,,,,,4030,104,40,1,0,0,response1disk,,6,39,-21,1,0,0,rectangle,39,-21,1,0,0,39,-21,1,0,0,0,51,51,67,1,,,,,,,,
,,,,,,,,,,,,,FF,,,,,,,,0.9334,,,,,,,,,,,,,,,,,,,,,,60ff1ca8414d34df01312124,6103775e6d97b3a2a315b056,2021-07-29_23h05.52.363,Simcolourproject_2stim_asymm_v5,2020.2.10,Win32,60,61025ae37ef11b136ea224fe,,,,,,,,,3143,76,-90,1,0,0,response3disk,,4,8,2,1,0,0,rectangle,8,2,1,0,0,8,2,1,0,0,0,52,52,94,1,,,,,,,,
,,,,,,,,,,,,,FF,,,,,,,,0.6335,,,,,,,,,,,,,,,,,,,,,,60ff1ca8414d34df01312124,6103775e6d97b3a2a315b056,2021-07-29_23h05.52.363,Simcolourproject_2stim_asymm_v5,2020.2.10,Win32,60,61025ae37ef11b136ea224fe,,,,,,,,,524,34,-80,1,0,0,response3disk,,4,-21,-5,1,0,0,rectangle,-21,-5,1,0,0,-21,-5,1,0,0,0,53,53,112,1,,,,,,,,
,,,,,,,,,,,,,FF,,,,,,,,0.4998,,,,,,,,,,,,,,,,,,,,,,60ff1ca8414d34df01312124,6103775e6d97b3a2a315b056,2021-07-29_23h05.52.363,Simcolourproject_2stim_asymm_v5,2020.2.10,Win32,60,61025ae37ef11b136ea224fe,,,,,,,,,1759,-56,-77,1,0,0,response5disk,,3,-17,6,1,0,0,rectangle,-17,6,1,0,0,-17,6,1,0,0,0,54,54,152,1,,,,,,,,
,,,,,,,,,,,,,FF,,,,,,,,0.4834,,,,,,,,,,,,,,,,,,,,,,60ff1ca8414d34df01312124,6103775e6d97b3a2a315b056,2021-07-29_23h05.52.363,Simcolourproject_2stim_asymm_v5,2020.2.10,Win32,60,61025ae37ef11b136ea224fe,,,,,,,,,463,47,-85,1,0,0,response3disk,,4,23,-8,1,0,0,rectangle,23,-8,1,0,0,23,-8,1,0,0,0,55,55,78,1,,,,,,,,
,,,,,,,,,,,,,FF,,,,,,,,0.8831,,,,,,,,,,,,,,,,,,,,,,60ff1ca8414d34df01312124,6103775e6d97b3a2a315b056,2021-07-29_23h05.52.363,Simcolourproject_2stim_asymm_v5,2020.2.10,Win32,60,61025ae37ef11b136ea224fe,,,,,,,,,2951,24,-90,1,0,0,response3disk,,4,0,17,1,0,0,rectangle,0,17,1,0,0,0,17,1,0,0,0,56,56,35,1,,,,,,,,
,,,,,,,,,,,,,FF,,,,,,,,0.7664,,,,,,,,,,,,,,,,,,,,,,60ff1ca8414d34df01312124,6103775e6d97b3a2a315b056,2021-07-29_23h05.52.363,Simcolourproject_2stim_asymm_v5,2020.2.10,Win32,60,61025ae37ef11b136ea224fe,,,,,,,,,235,95,86,1,0,0,response1disk,,6,-3,6,1,0,0,rectangle,-3,6,1,0,0,-3,6,1,0,0,0,57,57,113,1,,,,,,,,
,,,,,,,,,,,,,FF,,,,,,,,0.4501,,,,,,,,,,,,,,,,,,,,,,60ff1ca8414d34df01312124,6103775e6d97b3a2a315b056,2021-07-29_23h05.52.363,Simcolourproject_2stim_asymm_v5,2020.2.10,Win32,60,61025ae37ef11b136ea224fe,,,,,,,,,89,81,35,1,0,0,response1disk,,6,-23,-7,1,0,0,rectangle,-23,-7,1,0,0,-23,-7,1,0,0,0,58,58,99,1,,,,,,,,
,,,,,,,,,,,,,FF,,,,,,,,0.8499,,,,,,,,,,,,,,,,,,,,,,60ff1ca8414d34df01312124,6103775e6d97b3a2a315b056,2021-07-29_23h05.52.363,Simcolourproject_2stim_asymm_v5,2020.2.10,Win32,60,61025ae37ef11b136ea224fe,,,,,,,,,4345,29,-83,1,0,0,response3disk,,4,-9,5,1,0,0,rectangle,-9,5,1,0,0,-9,5,1,0,0,0,59,59,37,1,,,,,,,,
,,,,,,,,,,,,,FF,,,,,,,,0.4998,,,,,,,,,,,,,,,,,,,,,,60ff1ca8414d34df01312124,6103775e6d97b3a2a315b056,2021-07-29_23h05.52.363,Simcolourproject_2stim_asymm_v5,2020.2.10,Win32,60,61025ae37ef11b136ea224fe,,,,,,,,,4243,92,50,1,0,0,response1disk,,6,-4,-2,1,0,0,rectangle,-4,-2,1,0,0,-4,-2,1,0,0,0,60,60,14,1,,,,,,,,
,,,,,,,,,,,,,FF,,,,,,,,0.9498,,,,,,,,,,,,,,,,,,,,,,60ff1ca8414d34df01312124,6103775e6d97b3a2a315b056,2021-07-29_23h05.52.363,Simcolourproject_2stim_asymm_v5,2020.2.10,Win32,60,61025ae37ef11b136ea224fe,,,,,,,,,3472,42,-89,1,0,0,response3disk,,4,4,-2,1,0,0,rectangle,4,-2,1,0,0,4,-2,1,0,0,0,61,61,7,1,,,,,,,,
,,,,,,,,,,,,,FF,,,,,,,,0.6998,,,,,,,,,,,,,,,,,,,,,,60ff1ca8414d34df01312124,6103775e6d97b3a2a315b056,2021-07-29_23h05.52.363,Simcolourproject_2stim_asymm_v5,2020.2.10,Win32,60,61025ae37ef11b136ea224fe,,,,,,,,,2733,52,-85,1,0,0,response3disk,,4,3,2,1,0,0,rectangle,3,2,1,0,0,3,2,1,0,0,0,62,62,151,1,,,,,,,,
,,,,,,,,,,,,,FF,,,,,,,,0.4999,,,,,,,,,,,,,,,,,,,,,,60ff1ca8414d34df01312124,6103775e6d97b3a2a315b056,2021-07-29_23h05.52.363,Simcolourproject_2stim_asymm_v5,2020.2.10,Win32,60,61025ae37ef11b136ea224fe,,,,,,,,,3801,62,114,1,0,0,response1disk,,7,11,13,1,0,0,rectangle,11,13,1,0,0,11,13,1,0,0,0,63,63,102,1,,,,,,,,
,,,,,,,,,,,,,FF,,,,,,,,1.1498,,,,,,,,,,,,,,,,,,,,,,60ff1ca8414d34df01312124,6103775e6d97b3a2a315b056,2021-07-29_23h05.52.363,Simcolourproject_2stim_asymm_v5,2020.2.10,Win32,60,61025ae37ef11b136ea224fe,,,,,,,,,3912,99,58,1,0,0,response1disk,,6,27,-9,1,0,0,rectangle,-78,-48,1,0,0,13,-9,1,0,0,0,64,64,140,1,,response5disk_3,TRUE,2,2,"[125,179,126,22,303,286,98,156,39,299,5,124,232,132,147,65,100,198,27,136]",1.6335,rectangle
,,,,,,,,,,,,,FF,,,,,,,,0.5002,,,,,,,,,,,,,,,,,,,,,,60ff1ca8414d34df01312124,6103775e6d97b3a2a315b056,2021-07-29_23h05.52.363,Simcolourproject_2stim_asymm_v5,2020.2.10,Win32,60,61025ae37ef11b136ea224fe,,,,,,,,,2583,101,28,1,0,0,response1disk,,6,23,-7,1,0,0,rectangle,23,-7,1,0,0,23,-7,1,0,0,0,65,65,77,1,,,,,,,,
,,,,,,,,,,,,,FF,,,,,,,,0.7664,,,,,,,,,,,,,,,,,,,,,,60ff1ca8414d34df01312124,6103775e6d97b3a2a315b056,2021-07-29_23h05.52.363,Simcolourproject_2stim_asymm_v5,2020.2.10,Win32,60,61025ae37ef11b136ea224fe,,,,,,,,,3787,53,-119,1,0,0,response3disk,,4,3,-21,1,0,0,rectangle,3,-21,1,0,0,3,-21,1,0,0,0,66,66,40,1,,,,,,,,
,,,,,,,,,,,,,FF,,,,,,,,0.6834,,,,,,,,,,,,,,,,,,,,,,60ff1ca8414d34df01312124,6103775e6d97b3a2a315b056,2021-07-29_23h05.52.363,Simcolourproject_2stim_asymm_v5,2020.2.10,Win32,60,61025ae37ef11b136ea224fe,,,,,,,,,1883,67,-100,1,0,0,response3disk,,4,1,7,1,0,0,rectangle,1,7,1,0,0,1,7,1,0,0,0,67,67,41,1,,,,,,,,
,,,,,,,,,,,,,FF,,,,,,,,0.45,,,,,,,,,,,,,,,,,,,,,,60ff1ca8414d34df01312124,6103775e6d97b3a2a315b056,2021-07-29_23h05.52.363,Simcolourproject_2stim_asymm_v5,2020.2.10,Win32,60,61025ae37ef11b136ea224fe,,,,,,,,,1098,95,29,1,0,0,response1disk,,6,11,-1,1,0,0,rectangle,11,-1,1,0,0,11,-1,1,0,0,0,68,68,33,1,,,,,,,,
,,,,,,,,,,,,,FF,,,,,,,,0.3667,,,,,,,,,,,,,,,,,,,,,,60ff1ca8414d34df01312124,6103775e6d97b3a2a315b056,2021-07-29_23h05.52.363,Simcolourproject_2stim_asymm_v5,2020.2.10,Win32,60,61025ae37ef11b136ea224fe,,,,,,,,,1504,93,34,1,0,0,response1disk,,6,18,0,1,0,0,rectangle,18,0,1,0,0,18,0,1,0,0,0,69,69,83,1,,,,,,,,
,,,,,,,,,,,,,FF,,,,,,,,0.633,,,,,,,,,,,,,,,,,,,,,,60ff1ca8414d34df01312124,6103775e6d97b3a2a315b056,2021-07-29_23h05.52.363,Simcolourproject_2stim_asymm_v5,2020.2.10,Win32,60,61025ae37ef11b136ea224fe,,,,,,,,,1881,56,-78,1,0,0,response3disk,,4,1,8,1,0,0,rectangle,1,8,1,0,0,1,8,1,0,0,0,70,70,132,1,,,,,,,,
,,,,,,,,,,,,,FF,,,,,,,,0.5333,,,,,,,,,,,,,,,,,,,,,,60ff1ca8414d34df01312124,6103775e6d97b3a2a315b056,2021-07-29_23h05.52.363,Simcolourproject_2stim_asymm_v5,2020.2.10,Win32,60,61025ae37ef11b136ea224fe,,,,,,,,,3094,50,-91,1,0,0,response3disk,,4,10,-5,1,0,0,rectangle,10,-5,1,0,0,10,-5,1,0,0,0,71,71,98,1,,,,,,,,
,,,,,,,,,,,,,FF,,,,,,,,0.6002,,,,,,,,,,,,,,,,,,,,,,60ff1ca8414d34df01312124,6103775e6d97b3a2a315b056,2021-07-29_23h05.52.363,Simcolourproject_2stim_asymm_v5,2020.2.10,Win32,60,61025ae37ef11b136ea224fe,,,,,,,,,209,109,40,1,0,0,response1disk,,6,14,-11,1,0,0,rectangle,14,-11,1,0,0,14,-11,1,0,0,0,72,72,45,1,,,,,,,,
,,,,,,,,,,,,,FF,,,,,,,,0.45,,,,,,,,,,,,,,,,,,,,,,60ff1ca8414d34df01312124,6103775e6d97b3a2a315b056,2021-07-29_23h05.52.363,Simcolourproject_2stim_asymm_v5,2020.2.10,Win32,60,61025ae37ef11b136ea224fe,,,,,,,,,2231,95,-49,1,0,0,response3disk,,5,1,-6,1,0,0,rectangle,1,-6,1,0,0,1,-6,1,0,0,0,73,73,133,1,,,,,,,,
,,,,,,,,,,,,,FF,,,,,,,,0.7168,,,,,,,,,,,,,,,,,,,,,,60ff1ca8414d34df01312124,6103775e6d97b3a2a315b056,2021-07-29_23h05.52.363,Simcolourproject_2stim_asymm_v5,2020.2.10,Win32,60,61025ae37ef11b136ea224fe,,,,,,,,,815,47,-91,1,0,0,response3disk,,4,35,4,1,0,0,rectangle,35,4,1,0,0,35,4,1,0,0,0,74,74,114,1,,,,,,,,
,,,,,,,,,,,,,FF,,,,,,,,0.7999,,,,,,,,,,,,,,,,,,,,,,60ff1ca8414d34df01312124,6103775e6d97b3a2a315b056,2021-07-29_23h05.52.363,Simcolourproject_2stim_asymm_v5,2020.2.10,Win32,60,61025ae37ef11b136ea224fe,,,,,,,,,3612,91,42,1,0,0,response1disk,,6,28,-5,1,0,0,rectangle,28,-5,1,0,0,28,-5,1,0,0,0,75,75,111,1,,,,,,,,
,,,,,,,,,,,,,FF,,,,,,,,0.5998,,,,,,,,,,,,,,,,,,,,,,60ff1ca8414d34df01312124,6103775e6d97b3a2a315b056,2021-07-29_23h05.52.363,Simcolourproject_2stim_asymm_v5,2020.2.10,Win32,60,61025ae37ef11b136ea224fe,,,,,,,,,3328,-41,-64,1,0,0,response5disk,,3,-2,18,1,0,0,rectangle,-2,18,1,0,0,-2,18,1,0,0,0,76,76,120,1,,,,,,,,
,,,,,,,,,,,,,FF,,,,,,,,0.683,,,,,,,,,,,,,,,,,,,,,,60ff1ca8414d34df01312124,6103775e6d97b3a2a315b056,2021-07-29_23h05.52.363,Simcolourproject_2stim_asymm_v5,2020.2.10,Win32,60,61025ae37ef11b136ea224fe,,,,,,,,,1228,54,-66,1,0,0,response3disk,,4,11,17,1,0,0,rectangle,11,17,1,0,0,11,17,1,0,0,0,77,77,9,1,,,,,,,,
,,,,,,,,,,,,,FF,,,,,,,,0.4831,,,,,,,,,,,,,,,,,,,,,,60ff1ca8414d34df01312124,6103775e6d97b3a2a315b056,2021-07-29_23h05.52.363,Simcolourproject_2stim_asymm_v5,2020.2.10,Win32,60,61025ae37ef11b136ea224fe,,,,,,,,,915,98,44,1,0,0,response1disk,,6,-10,-6,1,0,0,rectangle,-10,-6,1,0,0,-10,-6,1,0,0,0,78,78,32,1,,,,,,,,
,,,,,,,,,,,,,FF,,,,,,,,0.5167,,,,,,,,,,,,,,,,,,,,,,60ff1ca8414d34df01312124,6103775e6d97b3a2a315b056,2021-07-29_23h05.52.363,Simcolourproject_2stim_asymm_v5,2020.2.10,Win32,60,61025ae37ef11b136ea224fe,,,,,,,,,787,31,-63,1,0,0,response3disk,,4,-11,17,1,0,0,rectangle,-11,17,1,0,0,-11,17,1,0,0,0,79,79,155,1,,,,,,,,
,,,,,,,,,,,,,FF,,,,,,,,0.5997,,,,,,,,,,,,,,,,,,,,,,60ff1ca8414d34df01312124,6103775e6d97b3a2a315b056,2021-07-29_23h05.52.363,Simcolourproject_2stim_asymm_v5,2020.2.10,Win32,60,61025ae37ef11b136ea224fe,,,,,,,,,3137,46,-59,1,0,0,response3disk,,4,11,-3,1,0,0,rectangle,11,-3,1,0,0,11,-3,1,0,0,0,80,80,72,1,,,,,,,,
,,,,,,,,,,,,,FF,,,,,,,,0.8,,,,,,,,,,,,,,,,,,,,,,60ff1ca8414d34df01312124,6103775e6d97b3a2a315b056,2021-07-29_23h05.52.363,Simcolourproject_2stim_asymm_v5,2020.2.10,Win32,60,61025ae37ef11b136ea224fe,,,,,,,,,2799,63,-86,1,0,0,response3disk,,4,-1,0,1,0,0,rectangle,-1,0,1,0,0,-1,0,1,0,0,0,81,81,122,1,,,,,,,,
,,,,,,,,,,,,,FF,,,,,,,,1.1665,,,,,,,,,,,,,,,,,,,,,,60ff1ca8414d34df01312124,6103775e6d97b3a2a315b056,2021-07-29_23h05.52.363,Simcolourproject_2stim_asymm_v5,2020.2.10,Win32,60,61025ae37ef11b136ea224fe,,,,,,,,,3559,-87,-60,1,0,0,response5disk,,2,-21,-3,1,0,0,rectangle,-21,-3,1,0,0,-21,-3,1,0,0,0,82,82,11,1,,,,,,,,
,,,,,,,,,,,,,FF,,,,,,,,1.533,,,,,,,,,,,,,,,,,,,,,,60ff1ca8414d34df01312124,6103775e6d97b3a2a315b056,2021-07-29_23h05.52.363,Simcolourproject_2stim_asymm_v5,2020.2.10,Win32,60,61025ae37ef11b136ea224fe,,,,,,,,,4028,-35,-91,1,0,0,response5disk,,3,0,-12,1,0,0,rectangle,0,-12,1,0,0,0,-12,1,0,0,0,83,83,131,1,,,,,,,,
,,,,,,,,,,,,,FF,,,,,,,,0.7665,,,,,,,,,,,,,,,,,,,,,,60ff1ca8414d34df01312124,6103775e6d97b3a2a315b056,2021-07-29_23h05.52.363,Simcolourproject_2stim_asymm_v5,2020.2.10,Win32,60,61025ae37ef11b136ea224fe,,,,,,,,,2061,94,38,1,0,0,response1disk,,6,14,-2,1,0,0,rectangle,14,-2,1,0,0,14,-2,1,0,0,0,84,84,12,1,,,,,,,,
,,,,,,,,,,,,,FF,,,,,,,,0.7001,,,,,,,,,,,,,,,,,,,,,,60ff1ca8414d34df01312124,6103775e6d97b3a2a315b056,2021-07-29_23h05.52.363,Simcolourproject_2stim_asymm_v5,2020.2.10,Win32,60,61025ae37ef11b136ea224fe,,,,,,,,,3229,102,57,1,0,0,response1disk,,6,15,7,1,0,0,rectangle,15,7,1,0,0,15,7,1,0,0,0,85,85,149,1,,,,,,,,
,,,,,,,,,,,,,FF,,,,,,,,0.9329,,,,,,,,,,,,,,,,,,,,,,60ff1ca8414d34df01312124,6103775e6d97b3a2a315b056,2021-07-29_23h05.52.363,Simcolourproject_2stim_asymm_v5,2020.2.10,Win32,60,61025ae37ef11b136ea224fe,,,,,,,,,2038,-61,-81,1,0,0,response5disk,,3,-3,4,1,0,0,rectangle,-3,4,1,0,0,-3,4,1,0,0,0,86,86,150,1,,,,,,,,
,,,,,,,,,,,,,FF,,,,,,,,0.4831,,,,,,,,,,,,,,,,,,,,,,60ff1ca8414d34df01312124,6103775e6d97b3a2a315b056,2021-07-29_23h05.52.363,Simcolourproject_2stim_asymm_v5,2020.2.10,Win32,60,61025ae37ef11b136ea224fe,,,,,,,,,2387,46,-92,1,0,0,response3disk,,4,14,-13,1,0,0,rectangle,14,-13,1,0,0,14,-13,1,0,0,0,87,87,42,1,,,,,,,,
,,,,,,,,,,,,,FF,,,,,,,,0.5166,,,,,,,,,,,,,,,,,,,,,,60ff1ca8414d34df01312124,6103775e6d97b3a2a315b056,2021-07-29_23h05.52.363,Simcolourproject_2stim_asymm_v5,2020.2.10,Win32,60,61025ae37ef11b136ea224fe,,,,,,,,,2274,100,60,1,0,0,response1disk,,6,-7,5,1,0,0,rectangle,-7,5,1,0,0,-7,5,1,0,0,0,88,88,119,1,,,,,,,,
,,,,,,,,,,,,,FF,,,,,,,,0.5166,,,,,,,,,,,,,,,,,,,,,,60ff1ca8414d34df01312124,6103775e6d97b3a2a315b056,2021-07-29_23h05.52.363,Simcolourproject_2stim_asymm_v5,2020.2.10,Win32,60,61025ae37ef11b136ea224fe,,,,,,,,,3617,103,51,1,0,0,response1disk,,6,3,2,1,0,0,rectangle,3,2,1,0,0,3,2,1,0,0,0,89,89,136,1,,,,,,,,
,,,,,,,,,,,,,FF,,,,,,,,0.5665,,,,,,,,,,,,,,,,,,,,,,60ff1ca8414d34df01312124,6103775e6d97b3a2a315b056,2021-07-29_23h05.52.363,Simcolourproject_2stim_asymm_v5,2020.2.10,Win32,60,61025ae37ef11b136ea224fe,,,,,,,,,2896,23,-81,1,0,0,response3disk,,4,0,-7,1,0,0,rectangle,0,-7,1,0,0,0,-7,1,0,0,0,90,90,71,1,,,,,,,,
,,,,,,,,,,,,,FF,,,,,,,,0.5998,,,,,,,,,,,,,,,,,,,,,,60ff1ca8414d34df01312124,6103775e6d97b3a2a315b056,2021-07-29_23h05.52.363,Simcolourproject_2stim_asymm_v5,2020.2.10,Win32,60,61025ae37ef11b136ea224fe,,,,,,,,,1830,-36,-98,1,0,0,response5disk,,3,4,13,1,0,0,rectangle,4,13,1,0,0,4,13,1,0,0,0,91,91,144,1,,,,,,,,
,,,,,,,,,,,,,FF,,,,,,,,0.7667,,,,,,,,,,,,,,,,,,,,,,60ff1ca8414d34df01312124,6103775e6d97b3a2a315b056,2021-07-29_23h05.52.363,Simcolourproject_2stim_asymm_v5,2020.2.10,Win32,60,61025ae37ef11b136ea224fe,,,,,,,,,2114,48,-109,1,0,0,response3disk,,4,-16,-8,1,0,0,rectangle,-16,-8,1,0,0,-16,-8,1,0,0,0,92,92,137,1,,,,,,,,
,,,,,,,,,,,,,FF,,,,,,,,0.4331,,,,,,,,,,,,,,,,,,,,,,60ff1ca8414d34df01312124,6103775e6d97b3a2a315b056,2021-07-29_23h05.52.363,Simcolourproject_2stim_asymm_v5,2020.2.10,Win32,60,61025ae37ef11b136ea224fe,,,,,,,,,2699,105,46,1,0,0,response1disk,,6,-3,-6,1,0,0,rectangle,-3,-6,1,0,0,-3,-6,1,0,0,0,93,93,43,1,,,,,,,,
,,,,,,,,,,,,,FF,,,,,,,,0.6332,,,,,,,,,,,,,,,,,,,,,,60ff1ca8414d34df01312124,6103775e6d97b3a2a315b056,2021-07-29_23h05.52.363,Simcolourproject_2stim_asymm_v5,2020.2.10,Win32,60,61025ae37ef11b136ea224fe,,,,,,,,,3295,-59,-109,1,0,0,response5disk,,3,-2,-9,1,0,0,rectangle,-2,-9,1,0,0,-2,-9,1,0,0,0,94,94,90,1,,,,,,,,
,,,,,,,,,,,,,FF,,,,,,,,0.7496,,,,,,,,,,,,,,,,,,,,,,60ff1ca8414d34df01312124,6103775e6d97b3a2a315b056,2021-07-29_23h05.52.363,Simcolourproject_2stim_asymm_v5,2020.2.10,Win32,60,61025ae37ef11b136ea224fe,,,,,,,,,2752,82,89,1,0,0,response1disk,,7,17,-9,1,0,0,rectangle,17,-9,1,0,0,17,-9,1,0,0,0,95,95,20,1,,,,,,,,
,,,,,,,,,,,,,FF,,,,,,,,0.7497,,,,,,,,,,,,,,,,,,,,,,60ff1ca8414d34df01312124,6103775e6d97b3a2a315b056,2021-07-29_23h05.52.363,Simcolourproject_2stim_asymm_v5,2020.2.10,Win32,60,61025ae37ef11b136ea224fe,,,,,,,,,4201,-112,-38,1,0,0,response5disk,,2,-13,2,1,0,0,rectangle,-13,2,1,0,0,-13,2,1,0,0,0,96,96,34,1,,,,,,,,
,,,,,,,,,,,,,FF,,,,,,,,0.5996,,,,,,,,,,,,,,,,,,,,,,60ff1ca8414d34df01312124,6103775e6d97b3a2a315b056,2021-07-29_23h05.52.363,Simcolourproject_2stim_asymm_v5,2020.2.10,Win32,60,61025ae37ef11b136ea224fe,,,,,,,,,1261,57,-106,1,0,0,response3disk,,4,14,-1,1,0,0,rectangle,-82,60,1,0,0,-1,-8,1,0,0,0,97,97,100,1,,response7disk_3,TRUE,1,1,"[125,179,126,22,303,286,98,156,39,299,5,124,232,132,147,65,100,198,27,136]",1.3001,rectangle
,,,,,,,,,,,,,FF,,,,,,,,0.5337,,,,,,,,,,,,,,,,,,,,,,60ff1ca8414d34df01312124,6103775e6d97b3a2a315b056,2021-07-29_23h05.52.363,Simcolourproject_2stim_asymm_v5,2020.2.10,Win32,60,61025ae37ef11b136ea224fe,,,,,,,,,514,110,-63,1,0,0,response3disk,,5,19,-10,1,0,0,rectangle,19,-10,1,0,0,19,-10,1,0,0,0,98,98,93,1,,,,,,,,
,,,,,,,,,,,,,FF,,,,,,,,0.4833,,,,,,,,,,,,,,,,,,,,,,60ff1ca8414d34df01312124,6103775e6d97b3a2a315b056,2021-07-29_23h05.52.363,Simcolourproject_2stim_asymm_v5,2020.2.10,Win32,60,61025ae37ef11b136ea224fe,,,,,,,,,1737,100,-42,1,0,0,response3disk,,5,-23,15,1,0,0,rectangle,39,71,1,0,0,-15,-7,1,0,0,0,99,99,4,1,,response1disk_3,TRUE,7,7,"[125,179,126,22,303,286,98,156,39,299,5,124,232,132,147,65,100,198,27,136]",1.4163,rectangle
,,,,,,,,,,,,,FF,,,,,,,,0.6503,,,,,,,,,,,,,,,,,,,,,,60ff1ca8414d34df01312124,6103775e6d97b3a2a315b056,2021-07-29_23h05.52.363,Simcolourproject_2stim_asymm_v5,2020.2.10,Win32,60,61025ae37ef11b136ea224fe,,,,,,,,,2432,59,-98,1,0,0,response3disk,,4,4,-18,1,0,0,rectangle,4,-18,1,0,0,4,-18,1,0,0,0,100,100,39,1,,,,,,,,
,,,,,,,,,,,,,FF,,,,,,,,0.45,,,,,,,,,,,,,,,,,,,,,,60ff1ca8414d34df01312124,6103775e6d97b3a2a315b056,2021-07-29_23h05.52.363,Simcolourproject_2stim_asymm_v5,2020.2.10,Win32,60,61025ae37ef11b136ea224fe,,,,,,,,,2765,104,51,1,0,0,response1disk,,6,16,-5,1,0,0,rectangle,16,-5,1,0,0,16,-5,1,0,0,0,101,101,79,1,,,,,,,,
,,,,,,,,,,,,,FF,,,,,,,,0.3332,,,,,,,,,,,,,,,,,,,,,,60ff1ca8414d34df01312124,6103775e6d97b3a2a315b056,2021-07-29_23h05.52.363,Simcolourproject_2stim_asymm_v5,2020.2.10,Win32,60,61025ae37ef11b136ea224fe,,,,,,,,,1046,92,55,1,0,0,response1disk,,6,-7,10,1,0,0,rectangle,-7,10,1,0,0,-7,10,1,0,0,0,102,102,87,1,,,,,,,,
,,,,,,,,,,,,,FF,,,,,,,,0.4997,,,,,,,,,,,,,,,,,,,,,,60ff1ca8414d34df01312124,6103775e6d97b3a2a315b056,2021-07-29_23h05.52.363,Simcolourproject_2stim_asymm_v5,2020.2.10,Win32,60,61025ae37ef11b136ea224fe,,,,,,,,,552,46,-63,1,0,0,response3disk,,4,0,17,1,0,0,rectangle,0,17,1,0,0,0,17,1,0,0,0,103,103,125,1,,,,,,,,
,,,,,,,,,,,,,FF,,,,,,,,0.3667,,,,,,,,,,,,,,,,,,,,,,60ff1ca8414d34df01312124,6103775e6d97b3a2a315b056,2021-07-29_23h05.52.363,Simcolourproject_2stim_asymm_v5,2020.2.10,Win32,60,61025ae37ef11b136ea224fe,,,,,,,,,412,109,37,1,0,0,response1disk,,6,-11,-21,1,0,0,rectangle,-11,-21,1,0,0,-11,-21,1,0,0,0,104,104,101,1,,,,,,,,
,,,,,,,,,,,,,FF,,,,,,,,0.6164,,,,,,,,,,,,,,,,,,,,,,60ff1ca8414d34df01312124,6103775e6d97b3a2a315b056,2021-07-29_23h05.52.363,Simcolourproject_2stim_asymm_v5,2020.2.10,Win32,60,61025ae37ef11b136ea224fe,,,,,,,,,364,41,72,1,0,0,response1disk,,7,1,-13,1,0,0,rectangle,1,-13,1,0,0,1,-13,1,0,0,0,105,105,96,1,,,,,,,,
,,,,,,,,,,,,,FF,,,,,,,,0.3999,,,,,,,,,,,,,,,,,,,,,,60ff1ca8414d34df01312124,6103775e6d97b3a2a315b056,2021-07-29_23h05.52.363,Simcolourproject_2stim_asymm_v5,2020.2.10,Win32,60,61025ae37ef11b136ea224fe,,,,,,,,,1530,62,-99,1,0,0,response3disk,,4,-12,14,1,0,0,rectangle,-12,14,1,0,0,-12,14,1,0,0,0,106,106,47,1,,,,,,,,
,,,,,,,,,,,,,FF,,,,,,,,0.5666,,,,,,,,,,,,,,,,,,,,,,60ff1ca8414d34df01312124,6103775e6d97b3a2a315b056,2021-07-29_23h05.52.363,Simcolourproject_2stim_asymm_v5,2020.2.10,Win32,60,61025ae37ef11b136ea224fe,,,,,,,,,101,-33,-104,1,0,0,response5disk,,3,20,-8,1,0,0,rectangle,20,-8,1,0,0,20,-8,1,0,0,0,107,107,145,1,,,,,,,,
,,,,,,,,,,,,,FF,,,,,,,,1.0333,,,,,,,,,,,,,,,,,,,,,,60ff1ca8414d34df01312124,6103775e6d97b3a2a315b056,2021-07-29_23h05.52.363,Simcolourproject_2stim_asymm_v5,2020.2.10,Win32,60,61025ae37ef11b136ea224fe,,,,,,,,,2542,-89,30,1,0,0,response7disk,,1,10,10,1,0,0,rectangle,10,10,1,0,0,10,10,1,0,0,0,108,108,38,1,,,,,,,,
,,,,,,,,,,,,,FF,,,,,,,,0.8163,,,,,,,,,,,,,,,,,,,,,,60ff1ca8414d34df01312124,6103775e6d97b3a2a315b056,2021-07-29_23h05.52.363,Simcolourproject_2stim_asymm_v5,2020.2.10,Win32,60,61025ae37ef11b136ea224fe,,,,,,,,,3188,-83,-38,1,0,0,response5disk,,2,-14,-4,1,0,0,rectangle,-14,-4,1,0,0,-14,-4,1,0,0,0,109,109,141,1,,,,,,,,
,,,,,,,,,,,,,FF,,,,,,,,0.75,,,,,,,,,,,,,,,,,,,,,,60ff1ca8414d34df01312124,6103775e6d97b3a2a315b056,2021-07-29_23h05.52.363,Simcolourproject_2stim_asymm_v5,2020.2.10,Win32,60,61025ae37ef11b136ea224fe,,,,,,,,,1893,-91,-50,1,0,0,response5disk,,2,-13,-13,1,0,0,rectangle,-13,-13,1,0,0,-13,-13,1,0,0,0,110,110,68,1,,,,,,,,
,,,,,,,,,,,,,FF,,,,,,,,0.5997,,,,,,,,,,,,,,,,,,,,,,60ff1ca8414d34df01312124,6103775e6d97b3a2a315b056,2021-07-29_23h05.52.363,Simcolourproject_2stim_asymm_v5,2020.2.10,Win32,60,61025ae37ef11b136ea224fe,,,,,,,,,3760,47,-97,1,0,0,response3disk,,4,-20,14,1,0,0,rectangle,-20,14,1,0,0,-20,14,1,0,0,0,111,111,88,1,,,,,,,,
,,,,,,,,,,,,,FF,,,,,,,,0.3998,,,,,,,,,,,,,,,,,,,,,,60ff1ca8414d34df01312124,6103775e6d97b3a2a315b056,2021-07-29_23h05.52.363,Simcolourproject_2stim_asymm_v5,2020.2.10,Win32,60,61025ae37ef11b136ea224fe,,,,,,,,,1247,93,-47,1,0,0,response3disk,,5,-4,7,1,0,0,rectangle,-4,7,1,0,0,-4,7,1,0,0,0,112,112,91,1,,,,,,,,
,,,,,,,,,,,,,FF,,,,,,,,0.7501,,,,,,,,,,,,,,,,,,,,,,60ff1ca8414d34df01312124,6103775e6d97b3a2a315b056,2021-07-29_23h05.52.363,Simcolourproject_2stim_asymm_v5,2020.2.10,Win32,60,61025ae37ef11b136ea224fe,,,,,,,,,2705,92,52,1,0,0,response1disk,,6,-22,-4,1,0,0,rectangle,-22,-4,1,0,0,-22,-4,1,0,0,0,113,113,52,1,,,,,,,,
,,,,,,,,,,,,,FF,,,,,,,,0.4165,,,,,,,,,,,,,,,,,,,,,,60ff1ca8414d34df01312124,6103775e6d97b3a2a315b056,2021-07-29_23h05.52.363,Simcolourproject_2stim_asymm_v5,2020.2.10,Win32,60,61025ae37ef11b136ea224fe,,,,,,,,,2907,72,81,1,0,0,response1disk,,7,21,-4,1,0,0,rectangle,21,-4,1,0,0,21,-4,1,0,0,0,114,114,16,1,,,,,,,,
,,,,,,,,,,,,,FF,,,,,,,,0.3667,,,,,,,,,,,,,,,,,,,,,,60ff1ca8414d34df01312124,6103775e6d97b3a2a315b056,2021-07-29_23h05.52.363,Simcolourproject_2stim_asymm_v5,2020.2.10,Win32,60,61025ae37ef11b136ea224fe,,,,,,,,,1155,122,56,1,0,0,response1disk,,6,19,-4,1,0,0,rectangle,19,-4,1,0,0,19,-4,1,0,0,0,115,115,21,1,,,,,,,,
,,,,,,,,,,,,,FF,,,,,,,,0.883,,,,,,,,,,,,,,,,,,,,,,60ff1ca8414d34df01312124,6103775e6d97b3a2a315b056,2021-07-29_23h05.52.363,Simcolourproject_2stim_asymm_v5,2020.2.10,Win32,60,61025ae37ef11b136ea224fe,,,,,,,,,1877,86,-41,1,0,0,response3disk,,5,6,-9,1,0,0,rectangle,6,-9,1,0,0,6,-9,1,0,0,0,116,116,69,1,,,,,,,,
,,,,,,,,,,,,,FF,,,,,,,,0.4331,,,,,,,,,,,,,,,,,,,,,,60ff1ca8414d34df01312124,6103775e6d97b3a2a315b056,2021-07-29_23h05.52.363,Simcolourproject_2stim_asymm_v5,2020.2.10,Win32,60,61025ae37ef11b136ea224fe,,,,,,,,,2503,133,57,1,0,0,response1disk,,6,15,9,1,0,0,rectangle,15,9,1,0,0,15,9,1,0,0,0,117,117,56,1,,,,,,,,
,,,,,,,,,,,,,FF,,,,,,,,0.3997,,,,,,,,,,,,,,,,,,,,,,60ff1ca8414d34df01312124,6103775e6d97b3a2a315b056,2021-07-29_23h05.52.363,Simcolourproject_2stim_asymm_v5,2020.2.10,Win32,60,61025ae37ef11b136ea224fe,,,,,,,,,4110,115,45,1,0,0,response1disk,,6,-3,-5,1,0,0,rectangle,-3,-5,1,0,0,-3,-5,1,0,0,0,118,118,53,1,,,,,,,,
,,,,,,,,,,,,,FF,,,,,,,,0.6836,,,,,,,,,,,,,,,,,,,,,,60ff1ca8414d34df01312124,6103775e6d97b3a2a315b056,2021-07-29_23h05.52.363,Simcolourproject_2stim_asymm_v5,2020.2.10,Win32,60,61025ae37ef11b136ea224fe,,,,,,,,,3478,-72,-64,1,0,0,response5disk,,2,-6,11,1,0,0,rectangle,-6,11,1,0,0,-6,11,1,0,0,0,119,119,29,1,,,,,,,,
,,,,,,,,,,,,,FF,,,,,,,,0.5001,,,,,,,,,,,,,,,,,,,,,,60ff1ca8414d34df01312124,6103775e6d97b3a2a315b056,2021-07-29_23h05.52.363,Simcolourproject_2stim_asymm_v5,2020.2.10,Win32,60,61025ae37ef11b136ea224fe,,,,,,,,,535,71,-71,1,0,0,response3disk,,5,29,-17,1,0,0,rectangle,29,-17,1,0,0,29,-17,1,0,0,0,120,120,59,1,,,,,,,,
,,,,,,,,,,,,,FF,,,,,,,,0.7166,,,,,,,,,,,,,,,,,,,,,,60ff1ca8414d34df01312124,6103775e6d97b3a2a315b056,2021-07-29_23h05.52.363,Simcolourproject_2stim_asymm_v5,2020.2.10,Win32,60,61025ae37ef11b136ea224fe,,,,,,,,,1785,79,-31,1,0,0,response3disk,,5,17,9,1,0,0,rectangle,17,9,1,0,0,17,9,1,0,0,0,121,121,123,1,,,,,,,,
,,,,,,,,,,,,,FF,,,,,,,,0.8501,,,,,,,,,,,,,,,,,,,,,,60ff1ca8414d34df01312124,6103775e6d97b3a2a315b056,2021-07-29_23h05.52.363,Simcolourproject_2stim_asymm_v5,2020.2.10,Win32,60,61025ae37ef11b136ea224fe,,,,,,,,,8,-44,-116,1,0,0,response5disk,,3,14,-12,1,0,0,rectangle,14,-12,1,0,0,14,-12,1,0,0,0,122,122,127,1,,,,,,,,
,,,,,,,,,,,,,FF,,,,,,,,0.3998,,,,,,,,,,,,,,,,,,,,,,60ff1ca8414d34df01312124,6103775e6d97b3a2a315b056,2021-07-29_23h05.52.363,Simcolourproject_2stim_asymm_v5,2020.2.10,Win32,60,61025ae37ef11b136ea224fe,,,,,,,,,2837,-30,-105,1,0,0,response5disk,,3,2,-8,1,0,0,rectangle,-90,-53,1,0,0,-13,-13,1,0,0,0,123,123,58,1,,response5disk_3,TRUE,2,2,"[125,179,126,22,303,286,98,156,39,299,5,124,232,132,147,65,100,198,27,136]",1.25,rectangle
,,,,,,,,,,,,,FF,,,,,,,,0.4335,,,,,,,,,,,,,,,,,,,,,,60ff1ca8414d34df01312124,6103775e6d97b3a2a315b056,2021-07-29_23h05.52.363,Simcolourproject_2stim_asymm_v5,2020.2.10,Win32,60,61025ae37ef11b136ea224fe,,,,,,,,,2199,34,-99,1,0,0,response3disk,,4,-4,3,1,0,0,rectangle,47,115,1,0,0,-6,4,1,0,0,0,124,124,27,1,,response1disk_3,TRUE,7,7,"[125,179,126,22,303,286,98,156,39,299,5,124,232,132,147,65,100,198,27,136]",1.9165,rectangle
,,,,,,,,,,,,,FF,,,,,,,,0.6998,,,,,,,,,,,,,,,,,,,,,,60ff1ca8414d34df01312124,6103775e6d97b3a2a315b056,2021-07-29_23h05.52.363,Simcolourproject_2stim_asymm_v5,2020.2.10,Win32,60,61025ae37ef11b136ea224fe,,,,,,,,,1370,-98,-58,1,0,0,response5disk,,2,-24,-11,1,0,0,rectangle,78,-58,1,0,0,4,1,1,0,0,0,125,125,3,1,,response3disk_3,TRUE,5,5,"[125,179,126,22,303,286,98,156,39,299,5,124,232,132,147,65,100,198,27,136]",1.633,rectangle
,,,,,,,,,,,,,FF,,,,,,,,0.6166,,,,,,,,,,,,,,,,,,,,,,60ff1ca8414d34df01312124,6103775e6d97b3a2a315b056,2021-07-29_23h05.52.363,Simcolourproject_2stim_asymm_v5,2020.2.10,Win32,60,61025ae37ef11b136ea224fe,,,,,,,,,1931,113,-55,1,0,0,response3disk,,5,-30,-5,1,0,0,rectangle,-30,-5,1,0,0,-30,-5,1,0,0,0,126,126,74,1,,,,,,,,
,,,,,,,,,,,,,FF,,,,,,,,0.3334,,,,,,,,,,,,,,,,,,,,,,60ff1ca8414d34df01312124,6103775e6d97b3a2a315b056,2021-07-29_23h05.52.363,Simcolourproject_2stim_asymm_v5,2020.2.10,Win32,60,61025ae37ef11b136ea224fe,,,,,,,,,1635,92,-90,1,0,0,response3disk,,5,18,-2,1,0,0,rectangle,18,-2,1,0,0,18,-2,1,0,0,0,127,127,57,1,,,,,,,,
,,,,,,,,,,,,,FF,,,,,,,,0.4999,,,,,,,,,,,,,,,,,,,,,,60ff1ca8414d34df01312124,6103775e6d97b3a2a315b056,2021-07-29_23h05.52.363,Simcolourproject_2stim_asymm_v5,2020.2.10,Win32,60,61025ae37ef11b136ea224fe,,,,,,,,,3260,133,50,1,0,0,response1disk,,6,47,2,1,0,0,rectangle,47,2,1,0,0,47,2,1,0,0,0,128,128,135,1,,,,,,,,
,,,,,,,,,,,,,FF,,,,,,,,0.7002,,,,,,,,,,,,,,,,,,,,,,60ff1ca8414d34df01312124,6103775e6d97b3a2a315b056,2021-07-29_23h05.52.363,Simcolourproject_2stim_asymm_v5,2020.2.10,Win32,60,61025ae37ef11b136ea224fe,,,,,,,,,1754,-53,-62,1,0,0,response5disk,,3,10,14,1,0,0,rectangle,10,14,1,0,0,10,14,1,0,0,0,129,129,55,1,,,,,,,,
,,,,,,,,,,,,,FF,,,,,,,,0.7662,,,,,,,,,,,,,,,,,,,,,,60ff1ca8414d34df01312124,6103775e6d97b3a2a315b056,2021-07-29_23h05.52.363,Simcolourproject_2stim_asymm_v5,2020.2.10,Win32,60,61025ae37ef11b136ea224fe,,,,,,,,,4337,-111,65,1,0,0,response7disk,,1,3,6,1,0,0,rectangle,3,6,1,0,0,3,6,1,0,0,0,130,130,61,1,,,,,,,,
,,,,,,,,,,,,,FF,,,,,,,,0.6163,,,,,,,,,,,,,,,,,,,,,,60ff1ca8414d34df01312124,6103775e6d97b3a2a315b056,2021-07-29_23h05.52.363,Simcolourproject_2stim_asymm_v5,2020.2.10,Win32,60,61025ae37ef11b136ea224fe,,,,,,,,,3934,-114,-50,1,0,0,response5disk,,2,1,-1,1,0,0,rectangle,124,-71,1,0,0,7,-13,1,0,0,0,131,131,70,1,,response3disk_3,TRUE,5,5,"[125,179,126,22,303,286,98,156,39,299,5,124,232,132,147,65,100,198,27,136]",1.5663,rectangle
,,,,,,,,,,,,,FF,,,,,,,,0.7668,,,,,,,,,,,,,,,,,,,,,,60ff1ca8414d34df01312124,6103775e6d97b3a2a315b056,2021-07-29_23h05.52.363,Simcolourproject_2stim_asymm_v5,2020.2.10,Win32,60,61025ae37ef11b136ea224fe,,,,,,,,,3978,-82,-51,1,0,0,response5disk,,2,-11,-14,1,0,0,rectangle,-11,-14,1,0,0,-11,-14,1,0,0,0,132,132,147,1,,,,,,,,
,,,,,,,,,,,,,FF,,,,,,,,0.5833,,,,,,,,,,,,,,,,,,,,,,60ff1ca8414d34df01312124,6103775e6d97b3a2a315b056,2021-07-29_23h05.52.363,Simcolourproject_2stim_asymm_v5,2020.2.10,Win32,60,61025ae37ef11b136ea224fe,,,,,,,,,3299,57,-102,1,0,0,response3disk,,4,-15,-8,1,0,0,rectangle,-15,-8,1,0,0,-15,-8,1,0,0,0,133,133,103,1,,,,,,,,
,,,,,,,,,,,,,FF,,,,,,,,0.4332,,,,,,,,,,,,,,,,,,,,,,60ff1ca8414d34df01312124,6103775e6d97b3a2a315b056,2021-07-29_23h05.52.363,Simcolourproject_2stim_asymm_v5,2020.2.10,Win32,60,61025ae37ef11b136ea224fe,,,,,,,,,453,105,-47,1,0,0,response3disk,,5,-38,21,1,0,0,rectangle,-38,21,1,0,0,-38,21,1,0,0,0,134,134,129,1,,,,,,,,
,,,,,,,,,,,,,FF,,,,,,,,0.6334,,,,,,,,,,,,,,,,,,,,,,60ff1ca8414d34df01312124,6103775e6d97b3a2a315b056,2021-07-29_23h05.52.363,Simcolourproject_2stim_asymm_v5,2020.2.10,Win32,60,61025ae37ef11b136ea224fe,,,,,,,,,2569,91,48,1,0,0,response1disk,,6,-8,-16,1,0,0,rectangle,-42,94,1,0,0,-7,8,1,0,0,0,135,135,22,1,,response7disk_3,TRUE,0,0,"[125,179,126,22,303,286,98,156,39,299,5,124,232,132,147,65,100,198,27,136]",1.3495,rectangle
,,,,,,,,,,,,,FF,,,,,,,,0.6167,,,,,,,,,,,,,,,,,,,,,,60ff1ca8414d34df01312124,6103775e6d97b3a2a315b056,2021-07-29_23h05.52.363,Simcolourproject_2stim_asymm_v5,2020.2.10,Win32,60,61025ae37ef11b136ea224fe,,,,,,,,,1487,87,41,1,0,0,response1disk,,6,-11,1,1,0,0,rectangle,-11,1,1,0,0,-11,1,1,0,0,0,136,136,76,1,,,,,,,,
,,,,,,,,,,,,,FF,,,,,,,,0.7663,,,,,,,,,,,,,,,,,,,,,,60ff1ca8414d34df01312124,6103775e6d97b3a2a315b056,2021-07-29_23h05.52.363,Simcolourproject_2stim_asymm_v5,2020.2.10,Win32,60,61025ae37ef11b136ea224fe,,,,,,,,,2020,56,-72,1,0,0,response3disk,,4,-11,-10,1,0,0,rectangle,-11,-10,1,0,0,-11,-10,1,0,0,0,137,137,49,1,,,,,,,,
,,,,,,,,,,,,,FF,,,,,,,,0.4167,,,,,,,,,,,,,,,,,,,,,,60ff1ca8414d34df01312124,6103775e6d97b3a2a315b056,2021-07-29_23h05.52.363,Simcolourproject_2stim_asymm_v5,2020.2.10,Win32,60,61025ae37ef11b136ea224fe,,,,,,,,,1425,84,33,1,0,0,response1disk,,6,-14,-19,1,0,0,rectangle,-14,-19,1,0,0,-14,-19,1,0,0,0,138,138,126,1,,,,,,,,
,,,,,,,,,,,,,FF,,,,,,,,0.4167,,,,,,,,,,,,,,,,,,,,,,60ff1ca8414d34df01312124,6103775e6d97b3a2a315b056,2021-07-29_23h05.52.363,Simcolourproject_2stim_asymm_v5,2020.2.10,Win32,60,61025ae37ef11b136ea224fe,,,,,,,,,134,85,34,1,0,0,response1disk,,6,-8,-17,1,0,0,rectangle,-8,-17,1,0,0,-8,-17,1,0,0,0,139,139,31,1,,,,,,,,
,,,,,,,,,,,,,FF,,,,,,,,0.3334,,,,,,,,,,,,,,,,,,,,,,60ff1ca8414d34df01312124,6103775e6d97b3a2a315b056,2021-07-29_23h05.52.363,Simcolourproject_2stim_asymm_v5,2020.2.10,Win32,60,61025ae37ef11b136ea224fe,,,,,,,,,986,39,57,1,0,0,response1disk,,7,5,-12,1,0,0,rectangle,5,-12,1,0,0,5,-12,1,0,0,0,140,140,107,1,,,,,,,,
,,,,,,,,,,,,,FF,,,,,,,,0.2832,,,,,,,,,,,,,,,,,,,,,,60ff1ca8414d34df01312124,6103775e6d97b3a2a315b056,2021-07-29_23h05.52.363,Simcolourproject_2stim_asymm_v5,2020.2.10,Win32,60,61025ae37ef11b136ea224fe,,,,,,,,,542,61,78,1,0,0,response1disk,,7,18,-4,1,0,0,rectangle,18,-4,1,0,0,18,-4,1,0,0,0,141,141,154,1,,,,,,,,
,,,,,,,,,,,,,FF,,,,,,,,0.2496,,,,,,,,,,,,,,,,,,,,,,60ff1ca8414d34df01312124,6103775e6d97b3a2a315b056,2021-07-29_23h05.52.363,Simcolourproject_2stim_asymm_v5,2020.2.10,Win32,60,61025ae37ef11b136ea224fe,,,,,,,,,1107,61,89,1,0,0,response1disk,,7,41,-4,1,0,0,rectangle,41,-4,1,0,0,41,-4,1,0,0,0,142,142,148,1,,,,,,,,
,,,,,,,,,,,,,FF,,,,,,,,0.8499,,,,,,,,,,,,,,,,,,,,,,60ff1ca8414d34df01312124,6103775e6d97b3a2a315b056,2021-07-29_23h05.52.363,Simcolourproject_2stim_asymm_v5,2020.2.10,Win32,60,61025ae37ef11b136ea224fe,,,,,,,,,2115,74,-81,1,0,0,response3disk,,4,2,18,1,0,0,rectangle,2,18,1,0,0,2,18,1,0,0,0,143,143,62,1,,,,,,,,
,,,,,,,,,,,,,FF,,,,,,,,0.4163,,,,,,,,,,,,,,,,,,,,,,60ff1ca8414d34df01312124,6103775e6d97b3a2a315b056,2021-07-29_23h05.52.363,Simcolourproject_2stim_asymm_v5,2020.2.10,Win32,60,61025ae37ef11b136ea224fe,,,,,,,,,1910,38,-87,1,0,0,response3disk,,4,-18,0,1,0,0,rectangle,-18,0,1,0,0,-18,0,1,0,0,0,144,144,109,1,,,,,,,,
,,,,,,,,,,,,,FF,,,,,,,,0.8666,,,,,,,,,,,,,,,,,,,,,,60ff1ca8414d34df01312124,6103775e6d97b3a2a315b056,2021-07-29_23h05.52.363,Simcolourproject_2stim_asymm_v5,2020.2.10,Win32,60,61025ae37ef11b136ea224fe,,,,,,,,,1743,-48,98,1,0,0,response7disk,,0,-11,18,1,0,0,rectangle,-11,18,1,0,0,-11,18,1,0,0,0,145,145,18,1,,,,,,,,
,,,,,,,,,,,,,FF,,,,,,,,0.6167,,,,,,,,,,,,,,,,,,,,,,60ff1ca8414d34df01312124,6103775e6d97b3a2a315b056,2021-07-29_23h05.52.363,Simcolourproject_2stim_asymm_v5,2020.2.10,Win32,60,61025ae37ef11b136ea224fe,,,,,,,,,1816,-90,56,1,0,0,response7disk,,1,44,0,1,0,0,rectangle,68,-104,1,0,0,6,-10,1,0,0,0,146,146,26,1,,response3disk_3,TRUE,4,4,"[125,179,126,22,303,286,98,156,39,299,5,124,232,132,147,65,100,198,27,136]",1.3832,rectangle
,,,,,,,,,,,,,FF,,,,,,,,0.5669,,,,,,,,,,,,,,,,,,,,,,60ff1ca8414d34df01312124,6103775e6d97b3a2a315b056,2021-07-29_23h05.52.363,Simcolourproject_2stim_asymm_v5,2020.2.10,Win32,60,61025ae37ef11b136ea224fe,,,,,,,,,3310,104,-53,1,0,0,response3disk,,5,-15,-11,1,0,0,rectangle,-15,-11,1,0,0,-15,-11,1,0,0,0,147,147,124,1,,,,,,,,
,,,,,,,,,,,,,FF,,,,,,,,0.6498,,,,,,,,,,,,,,,,,,,,,,60ff1ca8414d34df01312124,6103775e6d97b3a2a315b056,2021-07-29_23h05.52.363,Simcolourproject_2stim_asymm_v5,2020.2.10,Win32,60,61025ae37ef11b136ea224fe,,,,,,,,,149,110,-62,1,0,0,response3disk,,5,-7,-2,1,0,0,rectangle,-7,-2,1,0,0,-7,-2,1,0,0,0,148,148,60,1,,,,,,,,
,,,,,,,,,,,,,FF,,,,,,,,0.3165,,,,,,,,,,,,,,,,,,,,,,60ff1ca8414d34df01312124,6103775e6d97b3a2a315b056,2021-07-29_23h05.52.363,Simcolourproject_2stim_asymm_v5,2020.2.10,Win32,60,61025ae37ef11b136ea224fe,,,,,,,,,939,123,-44,1,0,0,response3disk,,5,16,-11,1,0,0,rectangle,16,-11,1,0,0,16,-11,1,0,0,0,149,149,51,1,,,,,,,,
,,,,,,,,,,,,,FF,,,,,,,,0.7165,,,,,,,,,,,,,,,,,,,,,,60ff1ca8414d34df01312124,6103775e6d97b3a2a315b056,2021-07-29_23h05.52.363,Simcolourproject_2stim_asymm_v5,2020.2.10,Win32,60,61025ae37ef11b136ea224fe,,,,,,,,,208,53,89,1,0,0,response1disk,,7,17,11,1,0,0,rectangle,17,11,1,0,0,17,11,1,0,0,0,150,150,118,1,,,,,,,,
,,,,,,,,,,,,,FF,,,,,,,,0.5332,,,,,,,,,,,,,,,,,,,,,,60ff1ca8414d34df01312124,6103775e6d97b3a2a315b056,2021-07-29_23h05.52.363,Simcolourproject_2stim_asymm_v5,2020.2.10,Win32,60,61025ae37ef11b136ea224fe,,,,,,,,,2350,82,49,1,0,0,response1disk,,6,8,1,1,0,0,rectangle,8,1,1,0,0,8,1,1,0,0,0,151,151,24,1,,,,,,,,
,,,,,,,,,,,,,FF,,,,,,,,0.533,,,,,,,,,,,,,,,,,,,,,,60ff1ca8414d34df01312124,6103775e6d97b3a2a315b056,2021-07-29_23h05.52.363,Simcolourproject_2stim_asymm_v5,2020.2.10,Win32,60,61025ae37ef11b136ea224fe,,,,,,,,,625,103,47,1,0,0,response1disk,,6,29,0,1,0,0,rectangle,29,0,1,0,0,29,0,1,0,0,0,152,152,105,1,,,,,,,,
,,,,,,,,,,,,,FF,,,,,,,,0.533,,,,,,,,,,,,,,,,,,,,,,60ff1ca8414d34df01312124,6103775e6d97b3a2a315b056,2021-07-29_23h05.52.363,Simcolourproject_2stim_asymm_v5,2020.2.10,Win32,60,61025ae37ef11b136ea224fe,,,,,,,,,1976,63,-89,1,0,0,response3disk,,4,23,17,1,0,0,rectangle,23,17,1,0,0,23,17,1,0,0,0,153,153,73,1,,,,,,,,
,,,,,,,,,,,,,FF,,,,,,,,0.3328,,,,,,,,,,,,,,,,,,,,,,60ff1ca8414d34df01312124,6103775e6d97b3a2a315b056,2021-07-29_23h05.52.363,Simcolourproject_2stim_asymm_v5,2020.2.10,Win32,60,61025ae37ef11b136ea224fe,,,,,,,,,1990,131,44,1,0,0,response1disk,,6,43,-12,1,0,0,rectangle,43,-12,1,0,0,43,-12,1,0,0,0,154,154,157,1,,,,,,,,
,,,,,,,,,,,,,FF,,,,,,,,1.0163,,,,,,,,,,,,,,,,,,,,,,60ff1ca8414d34df01312124,6103775e6d97b3a2a315b056,2021-07-29_23h05.52.363,Simcolourproject_2stim_asymm_v5,2020.2.10,Win32,60,61025ae37ef11b136ea224fe,,,,,,,,,3855,-35,-89,1,0,0,response5disk,,3,8,11,1,0,0,rectangle,38,88,1,0,0,24,-8,1,0,0,0,155,155,64,1,,response1disk_3,TRUE,7,7,"[125,179,126,22,303,286,98,156,39,299,5,124,232,132,147,65,100,198,27,136]",1.5668,rectangle
,,,,,,,,,,,,,FF,,,,,,,,0.6333,,,,,,,,,,,,,,,,,,,,,,60ff1ca8414d34df01312124,6103775e6d97b3a2a315b056,2021-07-29_23h05.52.363,Simcolourproject_2stim_asymm_v5,2020.2.10,Win32,60,61025ae37ef11b136ea224fe,,,,,,,,,3998,-85,42,1,0,0,response7disk,,1,9,-6,1,0,0,rectangle,9,-6,1,0,0,9,-6,1,0,0,0,156,156,82,1,,,,,,,,
,,,,,,,,,,,,,FF,,,,,,,,0.3999,,,,,,,,,,,,,,,,,,,,,,60ff1ca8414d34df01312124,6103775e6d97b3a2a315b056,2021-07-29_23h05.52.363,Simcolourproject_2stim_asymm_v5,2020.2.10,Win32,60,61025ae37ef11b136ea224fe,,,,,,,,,466,60,-59,1,0,0,response3disk,,5,0,21,1,0,0,rectangle,0,21,1,0,0,0,21,1,0,0,0,157,157,2,1,,,,,,,,
,,,,,,,,,,,,,FF,,,,,,,,0.3166,,,,,,,,,,,,,,,,,,,,,,60ff1ca8414d34df01312124,6103775e6d97b3a2a315b056,2021-07-29_23h05.52.363,Simcolourproject_2stim_asymm_v5,2020.2.10,Win32,60,61025ae37ef11b136ea224fe,,,,,,,,,581,45,-69,1,0,0,response3disk,,4,1,4,1,0,0,rectangle,1,4,1,0,0,1,4,1,0,0,0,158,158,54,1,,,,,,,,
,,,,,,,,,,,,,FF,,,,,,,,0.6997,,,,,,,,,,,,,,,,,,,,,,60ff1ca8414d34df01312124,6103775e6d97b3a2a315b056,2021-07-29_23h05.52.363,Simcolourproject_2stim_asymm_v5,2020.2.10,Win32,60,61025ae37ef11b136ea224fe,,,,,,,,,3730,103,51,1,0,0,response1disk,,6,-4,-10,1,0,0,rectangle,-4,-10,1,0,0,-4,-10,1,0,0,0,159,159,75,1,,,,,,,,
,,,,,,,,,,,,,FF,,,,,,,,0.4164,,,,,,,,,,,,,,,,,,,,,,60ff1ca8414d34df01312124,6103775e6d97b3a2a315b056,2021-07-29_23h05.52.363,Simcolourproject_2stim_asymm_v5,2020.2.10,Win32,60,61025ae37ef11b136ea224fe,,,,,,,,,1112,98,51,1,0,0,response1disk,,6,6,0,1,0,0,rectangle,6,0,1,0,0,6,0,1,0,0,1,0,160,3,1,,,,,,,,
,,,,,,,,,,,,,FF,,,,,,,,1.2996,,,,,,,,,,,,,,,,,,,,,,60ff1ca8414d34df01312124,6103775e6d97b3a2a315b056,2021-07-29_23h05.52.363,Simcolourproject_2stim_asymm_v5,2020.2.10,Win32,60,61025ae37ef11b136ea224fe,,,,,,,,,3988,64,-36,1,0,0,response3disk,,5,4,-2,1,0,0,rectangle,4,-2,1,0,0,4,-2,1,0,0,1,1,161,15,1,,,,,,,,
,,,,,,,,,,,,,FF,,,,,,,,0.4833,,,,,,,,,,,,,,,,,,,,,,60ff1ca8414d34df01312124,6103775e6d97b3a2a315b056,2021-07-29_23h05.52.363,Simcolourproject_2stim_asymm_v5,2020.2.10,Win32,60,61025ae37ef11b136ea224fe,,,,,,,,,830,63,-38,1,0,0,response3disk,,5,23,-3,1,0,0,rectangle,23,-3,1,0,0,23,-3,1,0,0,1,2,162,56,1,,,,,,,,
,,,,,,,,,,,,,FF,,,,,,,,1.3004,,,,,,,,,,,,,,,,,,,,,,60ff1ca8414d34df01312124,6103775e6d97b3a2a315b056,2021-07-29_23h05.52.363,Simcolourproject_2stim_asymm_v5,2020.2.10,Win32,60,61025ae37ef11b136ea224fe,,,,,,,,,1775,48,-89,1,0,0,response3disk,,4,8,-15,1,0,0,rectangle,8,-15,1,0,0,8,-15,1,0,0,1,3,163,91,1,,,,,,,,
,,,,,,,,,,,,,FF,,,,,,,,1.2498,,,,,,,,,,,,,,,,,,,,,,60ff1ca8414d34df01312124,6103775e6d97b3a2a315b056,2021-07-29_23h05.52.363,Simcolourproject_2stim_asymm_v5,2020.2.10,Win32,60,61025ae37ef11b136ea224fe,,,,,,,,,768,85,34,1,0,0,response1disk,,6,2,3,1,0,0,rectangle,2,3,1,0,0,2,3,1,0,0,1,4,164,54,1,,,,,,,,
,,,,,,,,,,,,,FF,,,,,,,,0.6331,,,,,,,,,,,,,,,,,,,,,,60ff1ca8414d34df01312124,6103775e6d97b3a2a315b056,2021-07-29_23h05.52.363,Simcolourproject_2stim_asymm_v5,2020.2.10,Win32,60,61025ae37ef11b136ea224fe,,,,,,,,,866,-42,-72,1,0,0,response5disk,,3,12,-8,1,0,0,rectangle,12,-8,1,0,0,12,-8,1,0,0,1,5,165,86,1,,,,,,,,
,,,,,,,,,,,,,FF,,,,,,,,0.2832,,,,,,,,,,,,,,,,,,,,,,60ff1ca8414d34df01312124,6103775e6d97b3a2a315b056,2021-07-29_23h05.52.363,Simcolourproject_2stim_asymm_v5,2020.2.10,Win32,60,61025ae37ef11b136ea224fe,,,,,,,,,471,77,-87,1,0,0,response3disk,,4,20,-11,1,0,0,rectangle,20,-11,1,0,0,20,-11,1,0,0,1,6,166,66,1,,,,,,,,
,,,,,,,,,,,,,FF,,,,,,,,0.8667,,,,,,,,,,,,,,,,,,,,,,60ff1ca8414d34df01312124,6103775e6d97b3a2a315b056,2021-07-29_23h05.52.363,Simcolourproject_2stim_asymm_v5,2020.2.10,Win32,60,61025ae37ef11b136ea224fe,,,,,,,,,4355,92,40,1,0,0,response1disk,,6,7,-21,1,0,0,rectangle,7,-21,1,0,0,7,-21,1,0,0,1,7,167,79,1,,,,,,,,
,,,,,,,,,,,,,FF,,,,,,,,0.616,,,,,,,,,,,,,,,,,,,,,,60ff1ca8414d34df01312124,6103775e6d97b3a2a315b056,2021-07-29_23h05.52.363,Simcolourproject_2stim_asymm_v5,2020.2.10,Win32,60,61025ae37ef11b136ea224fe,,,,,,,,,2097,-53,-62,1,0,0,response5disk,,3,9,1,1,0,0,rectangle,9,1,1,0,0,9,1,1,0,0,1,8,168,62,1,,,,,,,,
,,,,,,,,,,,,,FF,,,,,,,,0.35,,,,,,,,,,,,,,,,,,,,,,60ff1ca8414d34df01312124,6103775e6d97b3a2a315b056,2021-07-29_23h05.52.363,Simcolourproject_2stim_asymm_v5,2020.2.10,Win32,60,61025ae37ef11b136ea224fe,,,,,,,,,1174,121,42,1,0,0,response1disk,,6,14,-7,1,0,0,rectangle,14,-7,1,0,0,14,-7,1,0,0,1,9,169,87,1,,,,,,,,
,,,,,,,,,,,,,FF,,,,,,,,0.783,,,,,,,,,,,,,,,,,,,,,,60ff1ca8414d34df01312124,6103775e6d97b3a2a315b056,2021-07-29_23h05.52.363,Simcolourproject_2stim_asymm_v5,2020.2.10,Win32,60,61025ae37ef11b136ea224fe,,,,,,,,,2618,-38,-75,1,0,0,response5disk,,3,-2,-9,1,0,0,rectangle,-2,-9,1,0,0,-2,-9,1,0,0,1,10,170,122,1,,,,,,,,
,,,,,,,,,,,,,FF,,,,,,,,0.5667,,,,,,,,,,,,,,,,,,,,,,60ff1ca8414d34df01312124,6103775e6d97b3a2a315b056,2021-07-29_23h05.52.363,Simcolourproject_2stim_asymm_v5,2020.2.10,Win32,60,61025ae37ef11b136ea224fe,,,,,,,,,1001,40,77,1,0,0,response1disk,,7,12,1,1,0,0,rectangle,12,1,1,0,0,12,1,1,0,0,1,11,171,109,1,,,,,,,,
,,,,,,,,,,,,,FF,,,,,,,,0.2994,,,,,,,,,,,,,,,,,,,,,,60ff1ca8414d34df01312124,6103775e6d97b3a2a315b056,2021-07-29_23h05.52.363,Simcolourproject_2stim_asymm_v5,2020.2.10,Win32,60,61025ae37ef11b136ea224fe,,,,,,,,,4160,63,67,1,0,0,response1disk,,7,30,-14,1,0,0,rectangle,30,-14,1,0,0,30,-14,1,0,0,1,12,172,103,1,,,,,,,,
,,,,,,,,,,,,,FF,,,,,,,,0.4997,,,,,,,,,,,,,,,,,,,,,,60ff1ca8414d34df01312124,6103775e6d97b3a2a315b056,2021-07-29_23h05.52.363,Simcolourproject_2stim_asymm_v5,2020.2.10,Win32,60,61025ae37ef11b136ea224fe,,,,,,,,,2225,41,58,1,0,0,response1disk,,7,-3,-4,1,0,0,rectangle,-3,-4,1,0,0,-3,-4,1,0,0,1,13,173,100,1,,,,,,,,
,,,,,,,,,,,,,FF,,,,,,,,0.3831,,,,,,,,,,,,,,,,,,,,,,60ff1ca8414d34df01312124,6103775e6d97b3a2a315b056,2021-07-29_23h05.52.363,Simcolourproject_2stim_asymm_v5,2020.2.10,Win32,60,61025ae37ef11b136ea224fe,,,,,,,,,338,44,72,1,0,0,response1disk,,7,8,-6,1,0,0,rectangle,8,-6,1,0,0,8,-6,1,0,0,1,14,174,61,1,,,,,,,,
,,,,,,,,,,,,,FF,,,,,,,,0.5163,,,,,,,,,,,,,,,,,,,,,,60ff1ca8414d34df01312124,6103775e6d97b3a2a315b056,2021-07-29_23h05.52.363,Simcolourproject_2stim_asymm_v5,2020.2.10,Win32,60,61025ae37ef11b136ea224fe,,,,,,,,,4101,40,59,1,0,0,response1disk,,7,9,5,1,0,0,rectangle,9,5,1,0,0,9,5,1,0,0,1,15,175,19,1,,,,,,,,
,,,,,,,,,,,,,FF,,,,,,,,0.7164,,,,,,,,,,,,,,,,,,,,,,60ff1ca8414d34df01312124,6103775e6d97b3a2a315b056,2021-07-29_23h05.52.363,Simcolourproject_2stim_asymm_v5,2020.2.10,Win32,60,61025ae37ef11b136ea224fe,,,,,,,,,493,26,60,1,0,0,response1disk,,7,1,3,1,0,0,rectangle,1,3,1,0,0,1,3,1,0,0,1,16,176,148,1,,,,,,,,
,,,,,,,,,,,,,FF,,,,,,,,0.4001,,,,,,,,,,,,,,,,,,,,,,60ff1ca8414d34df01312124,6103775e6d97b3a2a315b056,2021-07-29_23h05.52.363,Simcolourproject_2stim_asymm_v5,2020.2.10,Win32,60,61025ae37ef11b136ea224fe,,,,,,,,,2903,29,80,1,0,0,response1disk,,7,-15,4,1,0,0,rectangle,-15,4,1,0,0,-15,4,1,0,0,1,17,177,9,1,,,,,,,,
,,,,,,,,,,,,,FF,,,,,,,,0.5834,,,,,,,,,,,,,,,,,,,,,,60ff1ca8414d34df01312124,6103775e6d97b3a2a315b056,2021-07-29_23h05.52.363,Simcolourproject_2stim_asymm_v5,2020.2.10,Win32,60,61025ae37ef11b136ea224fe,,,,,,,,,3529,55,74,1,0,0,response1disk,,7,13,-7,1,0,0,rectangle,-84,38,1,0,0,1,-8,1,0,0,1,18,178,101,1,,response7disk_3,TRUE,1,1,"[125,179,126,22,303,286,98,156,39,299,5,124,232,132,147,65,100,198,27,136]",1.2001,rectangle
,,,,,,,,,,,,,FF,,,,,,,,0.8,,,,,,,,,,,,,,,,,,,,,,60ff1ca8414d34df01312124,6103775e6d97b3a2a315b056,2021-07-29_23h05.52.363,Simcolourproject_2stim_asymm_v5,2020.2.10,Win32,60,61025ae37ef11b136ea224fe,,,,,,,,,3077,45,-84,1,0,0,response3disk,,4,-19,17,1,0,0,rectangle,-19,17,1,0,0,-19,17,1,0,0,1,19,179,114,1,,,,,,,,
,,,,,,,,,,,,,FF,,,,,,,,0.5499,,,,,,,,,,,,,,,,,,,,,,60ff1ca8414d34df01312124,6103775e6d97b3a2a315b056,2021-07-29_23h05.52.363,Simcolourproject_2stim_asymm_v5,2020.2.10,Win32,60,61025ae37ef11b136ea224fe,,,,,,,,,1920,78,-60,1,0,0,response3disk,,5,1,2,1,0,0,rectangle,1,2,1,0,0,1,2,1,0,0,1,20,180,42,1,,,,,,,,
,,,,,,,,,,,,,FF,,,,,,,,0.8998,,,,,,,,,,,,,,,,,,,,,,60ff1ca8414d34df01312124,6103775e6d97b3a2a315b056,2021-07-29_23h05.52.363,Simcolourproject_2stim_asymm_v5,2020.2.10,Win32,60,61025ae37ef11b136ea224fe,,,,,,,,,2722,-57,-79,1,0,0,response5disk,,3,-1,5,1,0,0,rectangle,-1,5,1,0,0,-1,5,1,0,0,1,21,181,136,1,,,,,,,,
,,,,,,,,,,,,,FF,,,,,,,,0.6165,,,,,,,,,,,,,,,,,,,,,,60ff1ca8414d34df01312124,6103775e6d97b3a2a315b056,2021-07-29_23h05.52.363,Simcolourproject_2stim_asymm_v5,2020.2.10,Win32,60,61025ae37ef11b136ea224fe,,,,,,,,,109,25,-86,1,0,0,response3disk,,4,-8,5,1,0,0,rectangle,-8,5,1,0,0,-8,5,1,0,0,1,22,182,26,1,,,,,,,,
,,,,,,,,,,,,,FF,,,,,,,,1.2331,,,,,,,,,,,,,,,,,,,,,,60ff1ca8414d34df01312124,6103775e6d97b3a2a315b056,2021-07-29_23h05.52.363,Simcolourproject_2stim_asymm_v5,2020.2.10,Win32,60,61025ae37ef11b136ea224fe,,,,,,,,,1950,109,43,1,0,0,response1disk,,6,27,-6,1,0,0,rectangle,27,-6,1,0,0,27,-6,1,0,0,1,23,183,24,1,,,,,,,,
,,,,,,,,,,,,,FF,,,,,,,,0.6332,,,,,,,,,,,,,,,,,,,,,,60ff1ca8414d34df01312124,6103775e6d97b3a2a315b056,2021-07-29_23h05.52.363,Simcolourproject_2stim_asymm_v5,2020.2.10,Win32,60,61025ae37ef11b136ea224fe,,,,,,,,,3672,-103,-59,1,0,0,response5disk,,2,-18,-7,1,0,0,rectangle,-18,-7,1,0,0,-18,-7,1,0,0,1,24,184,107,1,,,,,,,,
,,,,,,,,,,,,,FF,,,,,,,,0.5827,,,,,,,,,,,,,,,,,,,,,,60ff1ca8414d34df01312124,6103775e6d97b3a2a315b056,2021-07-29_23h05.52.363,Simcolourproject_2stim_asymm_v5,2020.2.10,Win32,60,61025ae37ef11b136ea224fe,,,,,,,,,130,53,-79,1,0,0,response3disk,,4,-8,7,1,0,0,rectangle,-8,7,1,0,0,-8,7,1,0,0,1,25,185,75,1,,,,,,,,
,,,,,,,,,,,,,FF,,,,,,,,0.5665,,,,,,,,,,,,,,,,,,,,,,60ff1ca8414d34df01312124,6103775e6d97b3a2a315b056,2021-07-29_23h05.52.363,Simcolourproject_2stim_asymm_v5,2020.2.10,Win32,60,61025ae37ef11b136ea224fe,,,,,,,,,2241,-84,-41,1,0,0,response5disk,,2,6,-12,1,0,0,rectangle,6,-12,1,0,0,6,-12,1,0,0,1,26,186,12,1,,,,,,,,
,,,,,,,,,,,,,FF,,,,,,,,0.9332,,,,,,,,,,,,,,,,,,,,,,60ff1ca8414d34df01312124,6103775e6d97b3a2a315b056,2021-07-29_23h05.52.363,Simcolourproject_2stim_asymm_v5,2020.2.10,Win32,60,61025ae37ef11b136ea224fe,,,,,,,,,1511,-49,-86,1,0,0,response5disk,,3,10,13,1,0,0,rectangle,10,13,1,0,0,10,13,1,0,0,1,27,187,106,1,,,,,,,,
,,,,,,,,,,,,,FF,,,,,,,,0.7168,,,,,,,,,,,,,,,,,,,,,,60ff1ca8414d34df01312124,6103775e6d97b3a2a315b056,2021-07-29_23h05.52.363,Simcolourproject_2stim_asymm_v5,2020.2.10,Win32,60,61025ae37ef11b136ea224fe,,,,,,,,,1712,61,103,1,0,0,response1disk,,7,15,5,1,0,0,rectangle,15,5,1,0,0,15,5,1,0,0,1,28,188,74,1,,,,,,,,
,,,,,,,,,,,,,FF,,,,,,,,0.9667,,,,,,,,,,,,,,,,,,,,,,60ff1ca8414d34df01312124,6103775e6d97b3a2a315b056,2021-07-29_23h05.52.363,Simcolourproject_2stim_asymm_v5,2020.2.10,Win32,60,61025ae37ef11b136ea224fe,,,,,,,,,4126,-42,-90,1,0,0,response5disk,,3,-2,12,1,0,0,rectangle,-2,12,1,0,0,-2,12,1,0,0,1,29,189,98,1,,,,,,,,
,,,,,,,,,,,,,FF,,,,,,,,1.0499,,,,,,,,,,,,,,,,,,,,,,60ff1ca8414d34df01312124,6103775e6d97b3a2a315b056,2021-07-29_23h05.52.363,Simcolourproject_2stim_asymm_v5,2020.2.10,Win32,60,61025ae37ef11b136ea224fe,,,,,,,,,3895,89,36,1,0,0,response1disk,,6,26,-10,1,0,0,rectangle,26,-10,1,0,0,26,-10,1,0,0,1,30,190,30,1,,,,,,,,
,,,,,,,,,,,,,FF,,,,,,,,0.8332,,,,,,,,,,,,,,,,,,,,,,60ff1ca8414d34df01312124,6103775e6d97b3a2a315b056,2021-07-29_23h05.52.363,Simcolourproject_2stim_asymm_v5,2020.2.10,Win32,60,61025ae37ef11b136ea224fe,,,,,,,,,1384,65,-87,1,0,0,response3disk,,4,1,18,1,0,0,rectangle,1,18,1,0,0,1,18,1,0,0,1,31,191,41,1,,,,,,,,
,,,,,,,,,,,,,FF,,,,,,,,0.7334,,,,,,,,,,,,,,,,,,,,,,60ff1ca8414d34df01312124,6103775e6d97b3a2a315b056,2021-07-29_23h05.52.363,Simcolourproject_2stim_asymm_v5,2020.2.10,Win32,60,61025ae37ef11b136ea224fe,,,,,,,,,3103,-107,-57,1,0,0,response5disk,,2,-12,5,1,0,0,rectangle,-12,5,1,0,0,-12,5,1,0,0,1,32,192,2,1,,,,,,,,
,,,,,,,,,,,,,FF,,,,,,,,0.9166,,,,,,,,,,,,,,,,,,,,,,60ff1ca8414d34df01312124,6103775e6d97b3a2a315b056,2021-07-29_23h05.52.363,Simcolourproject_2stim_asymm_v5,2020.2.10,Win32,60,61025ae37ef11b136ea224fe,,,,,,,,,3360,108,57,1,0,0,response1disk,,6,30,-6,1,0,0,rectangle,30,-6,1,0,0,30,-6,1,0,0,1,33,193,53,1,,,,,,,,
,,,,,,,,,,,,,FF,,,,,,,,0.5499,,,,,,,,,,,,,,,,,,,,,,60ff1ca8414d34df01312124,6103775e6d97b3a2a315b056,2021-07-29_23h05.52.363,Simcolourproject_2stim_asymm_v5,2020.2.10,Win32,60,61025ae37ef11b136ea224fe,,,,,,,,,2200,36,50,1,0,0,response1disk,,7,17,-9,1,0,0,rectangle,17,-9,1,0,0,17,-9,1,0,0,1,34,194,35,1,,,,,,,,
,,,,,,,,,,,,,FF,,,,,,,,0.4499,,,,,,,,,,,,,,,,,,,,,,60ff1ca8414d34df01312124,6103775e6d97b3a2a315b056,2021-07-29_23h05.52.363,Simcolourproject_2stim_asymm_v5,2020.2.10,Win32,60,61025ae37ef11b136ea224fe,,,,,,,,,938,41,59,1,0,0,response1disk,,7,19,-8,1,0,0,rectangle,19,-8,1,0,0,19,-8,1,0,0,1,35,195,46,1,,,,,,,,
,,,,,,,,,,,,,FF,,,,,,,,0.95,,,,,,,,,,,,,,,,,,,,,,60ff1ca8414d34df01312124,6103775e6d97b3a2a315b056,2021-07-29_23h05.52.363,Simcolourproject_2stim_asymm_v5,2020.2.10,Win32,60,61025ae37ef11b136ea224fe,,,,,,,,,2936,42,-102,1,0,0,response3disk,,4,-6,-8,1,0,0,rectangle,-6,-8,1,0,0,-6,-8,1,0,0,1,36,196,116,1,,,,,,,,
,,,,,,,,,,,,,FF,,,,,,,,0.7834,,,,,,,,,,,,,,,,,,,,,,60ff1ca8414d34df01312124,6103775e6d97b3a2a315b056,2021-07-29_23h05.52.363,Simcolourproject_2stim_asymm_v5,2020.2.10,Win32,60,61025ae37ef11b136ea224fe,,,,,,,,,2594,30,65,1,0,0,response1disk,,7,14,11,1,0,0,rectangle,96,-41,1,0,0,18,-5,1,0,0,1,37,197,70,1,,response3disk_3,TRUE,5,5,"[125,179,126,22,303,286,98,156,39,299,5,124,232,132,147,65,100,198,27,136]",1.1166,rectangle
,,,,,,,,,,,,,FF,,,,,,,,0.6002,,,,,,,,,,,,,,,,,,,,,,60ff1ca8414d34df01312124,6103775e6d97b3a2a315b056,2021-07-29_23h05.52.363,Simcolourproject_2stim_asymm_v5,2020.2.10,Win32,60,61025ae37ef11b136ea224fe,,,,,,,,,3606,93,-31,1,0,0,response3disk,,5,-1,-8,1,0,0,rectangle,-1,-8,1,0,0,-1,-8,1,0,0,1,38,198,146,1,,,,,,,,
,,,,,,,,,,,,,FF,,,,,,,,0.483,,,,,,,,,,,,,,,,,,,,,,60ff1ca8414d34df01312124,6103775e6d97b3a2a315b056,2021-07-29_23h05.52.363,Simcolourproject_2stim_asymm_v5,2020.2.10,Win32,60,61025ae37ef11b136ea224fe,,,,,,,,,521,44,-75,1,0,0,response3disk,,4,-8,-7,1,0,0,rectangle,-8,-7,1,0,0,-8,-7,1,0,0,1,39,199,105,1,,,,,,,,
,,,,,,,,,,,,,FF,,,,,,,,0.85,,,,,,,,,,,,,,,,,,,,,,60ff1ca8414d34df01312124,6103775e6d97b3a2a315b056,2021-07-29_23h05.52.363,Simcolourproject_2stim_asymm_v5,2020.2.10,Win32,60,61025ae37ef11b136ea224fe,,,,,,,,,3764,90,-44,1,0,0,response3disk,,5,13,0,1,0,0,rectangle,13,0,1,0,0,13,0,1,0,0,1,40,200,73,1,,,,,,,,
,,,,,,,,,,,,,FF,,,,,,,,0.75,,,,,,,,,,,,,,,,,,,,,,60ff1ca8414d34df01312124,6103775e6d97b3a2a315b056,2021-07-29_23h05.52.363,Simcolourproject_2stim_asymm_v5,2020.2.10,Win32,60,61025ae37ef11b136ea224fe,,,,,,,,,3915,-96,-39,1,0,0,response5disk,,2,-11,-3,1,0,0,rectangle,-11,-3,1,0,0,-11,-3,1,0,0,1,41,201,151,1,,,,,,,,
,,,,,,,,,,,,,FF,,,,,,,,1.1832,,,,,,,,,,,,,,,,,,,,,,60ff1ca8414d34df01312124,6103775e6d97b3a2a315b056,2021-07-29_23h05.52.363,Simcolourproject_2stim_asymm_v5,2020.2.10,Win32,60,61025ae37ef11b136ea224fe,,,,,,,,,1574,107,-28,1,0,0,response3disk,,5,9,1,1,0,0,rectangle,9,1,1,0,0,9,1,1,0,0,1,42,202,97,1,,,,,,,,
,,,,,,,,,,,,,FF,,,,,,,,0.4498,,,,,,,,,,,,,,,,,,,,,,60ff1ca8414d34df01312124,6103775e6d97b3a2a315b056,2021-07-29_23h05.52.363,Simcolourproject_2stim_asymm_v5,2020.2.10,Win32,60,61025ae37ef11b136ea224fe,,,,,,,,,3723,99,-45,1,0,0,response3disk,,5,3,0,1,0,0,rectangle,3,0,1,0,0,3,0,1,0,0,1,43,203,4,1,,,,,,,,
,,,,,,,,,,,,,FF,,,,,,,,0.5664,,,,,,,,,,,,,,,,,,,,,,60ff1ca8414d34df01312124,6103775e6d97b3a2a315b056,2021-07-29_23h05.52.363,Simcolourproject_2stim_asymm_v5,2020.2.10,Win32,60,61025ae37ef11b136ea224fe,,,,,,,,,962,78,44,1,0,0,response1disk,,6,9,-5,1,0,0,rectangle,9,-5,1,0,0,9,-5,1,0,0,1,44,204,131,1,,,,,,,,
,,,,,,,,,,,,,FF,,,,,,,,0.6669,,,,,,,,,,,,,,,,,,,,,,60ff1ca8414d34df01312124,6103775e6d97b3a2a315b056,2021-07-29_23h05.52.363,Simcolourproject_2stim_asymm_v5,2020.2.10,Win32,60,61025ae37ef11b136ea224fe,,,,,,,,,2447,36,71,1,0,0,response1disk,,7,17,-1,1,0,0,rectangle,17,-1,1,0,0,17,-1,1,0,0,1,45,205,124,1,,,,,,,,
,,,,,,,,,,,,,FF,,,,,,,,0.3834,,,,,,,,,,,,,,,,,,,,,,60ff1ca8414d34df01312124,6103775e6d97b3a2a315b056,2021-07-29_23h05.52.363,Simcolourproject_2stim_asymm_v5,2020.2.10,Win32,60,61025ae37ef11b136ea224fe,,,,,,,,,2195,35,63,1,0,0,response1disk,,7,22,-4,1,0,0,rectangle,22,-4,1,0,0,22,-4,1,0,0,1,46,206,115,1,,,,,,,,
,,,,,,,,,,,,,FF,,,,,,,,0.3502,,,,,,,,,,,,,,,,,,,,,,60ff1ca8414d34df01312124,6103775e6d97b3a2a315b056,2021-07-29_23h05.52.363,Simcolourproject_2stim_asymm_v5,2020.2.10,Win32,60,61025ae37ef11b136ea224fe,,,,,,,,,1336,44,67,1,0,0,response1disk,,7,14,4,1,0,0,rectangle,14,4,1,0,0,14,4,1,0,0,1,47,207,88,1,,,,,,,,
,,,,,,,,,,,,,FF,,,,,,,,0.2832,,,,,,,,,,,,,,,,,,,,,,60ff1ca8414d34df01312124,6103775e6d97b3a2a315b056,2021-07-29_23h05.52.363,Simcolourproject_2stim_asymm_v5,2020.2.10,Win32,60,61025ae37ef11b136ea224fe,,,,,,,,,4273,42,70,1,0,0,response1disk,,7,27,-11,1,0,0,rectangle,27,-11,1,0,0,27,-11,1,0,0,1,48,208,67,1,,,,,,,,
,,,,,,,,,,,,,FF,,,,,,,,0.6668,,,,,,,,,,,,,,,,,,,,,,60ff1ca8414d34df01312124,6103775e6d97b3a2a315b056,2021-07-29_23h05.52.363,Simcolourproject_2stim_asymm_v5,2020.2.10,Win32,60,61025ae37ef11b136ea224fe,,,,,,,,,3179,43,65,1,0,0,response1disk,,7,9,4,1,0,0,rectangle,9,4,1,0,0,9,4,1,0,0,1,49,209,92,1,,,,,,,,
,,,,,,,,,,,,,FF,,,,,,,,0.9667,,,,,,,,,,,,,,,,,,,,,,60ff1ca8414d34df01312124,6103775e6d97b3a2a315b056,2021-07-29_23h05.52.363,Simcolourproject_2stim_asymm_v5,2020.2.10,Win32,60,61025ae37ef11b136ea224fe,,,,,,,,,1194,-82,-57,1,0,0,response5disk,,2,-16,3,1,0,0,rectangle,-16,3,1,0,0,-16,3,1,0,0,1,50,210,23,1,,,,,,,,
,,,,,,,,,,,,,FF,,,,,,,,0.5001,,,,,,,,,,,,,,,,,,,,,,60ff1ca8414d34df01312124,6103775e6d97b3a2a315b056,2021-07-29_23h05.52.363,Simcolourproject_2stim_asymm_v5,2020.2.10,Win32,60,61025ae37ef11b136ea224fe,,,,,,,,,4030,-48,-88,1,0,0,response5disk,,3,0,5,1,0,0,rectangle,0,5,1,0,0,0,5,1,0,0,1,51,211,125,1,,,,,,,,
,,,,,,,,,,,,,FF,,,,,,,,0.8005,,,,,,,,,,,,,,,,,,,,,,60ff1ca8414d34df01312124,6103775e6d97b3a2a315b056,2021-07-29_23h05.52.363,Simcolourproject_2stim_asymm_v5,2020.2.10,Win32,60,61025ae37ef11b136ea224fe,,,,,,,,,3143,108,-66,1,0,0,response3disk,,5,-8,2,1,0,0,rectangle,-8,2,1,0,0,-8,2,1,0,0,1,52,212,34,1,,,,,,,,
,,,,,,,,,,,,,FF,,,,,,,,1.2168,,,,,,,,,,,,,,,,,,,,,,60ff1ca8414d34df01312124,6103775e6d97b3a2a315b056,2021-07-29_23h05.52.363,Simcolourproject_2stim_asymm_v5,2020.2.10,Win32,60,61025ae37ef11b136ea224fe,,,,,,,,,524,-52,-108,1,0,0,response5disk,,3,-3,-5,1,0,0,rectangle,-3,-5,1,0,0,-3,-5,1,0,0,1,53,213,149,1,,,,,,,,
,,,,,,,,,,,,,FF,,,,,,,,0.4,,,,,,,,,,,,,,,,,,,,,,60ff1ca8414d34df01312124,6103775e6d97b3a2a315b056,2021-07-29_23h05.52.363,Simcolourproject_2stim_asymm_v5,2020.2.10,Win32,60,61025ae37ef11b136ea224fe,,,,,,,,,1759,-45,-149,1,0,0,response5disk,,3,12,2,1,0,0,rectangle,12,2,1,0,0,12,2,1,0,0,1,54,214,118,1,,,,,,,,
,,,,,,,,,,,,,FF,,,,,,,,0.5499,,,,,,,,,,,,,,,,,,,,,,60ff1ca8414d34df01312124,6103775e6d97b3a2a315b056,2021-07-29_23h05.52.363,Simcolourproject_2stim_asymm_v5,2020.2.10,Win32,60,61025ae37ef11b136ea224fe,,,,,,,,,463,33,-107,1,0,0,response3disk,,4,-2,-16,1,0,0,rectangle,-2,-16,1,0,0,-2,-16,1,0,0,1,55,215,139,1,,,,,,,,
,,,,,,,,,,,,,FF,,,,,,,,0.4497,,,,,,,,,,,,,,,,,,,,,,60ff1ca8414d34df01312124,6103775e6d97b3a2a315b056,2021-07-29_23h05.52.363,Simcolourproject_2stim_asymm_v5,2020.2.10,Win32,60,61025ae37ef11b136ea224fe,,,,,,,,,2951,48,-85,1,0,0,response3disk,,4,-10,4,1,0,0,rectangle,-10,4,1,0,0,-10,4,1,0,0,1,56,216,150,1,,,,,,,,
,,,,,,,,,,,,,FF,,,,,,,,0.7662,,,,,,,,,,,,,,,,,,,,,,60ff1ca8414d34df01312124,6103775e6d97b3a2a315b056,2021-07-29_23h05.52.363,Simcolourproject_2stim_asymm_v5,2020.2.10,Win32,60,61025ae37ef11b136ea224fe,,,,,,,,,235,81,48,1,0,0,response1disk,,6,-10,-6,1,0,0,rectangle,-10,-6,1,0,0,-10,-6,1,0,0,1,57,217,132,1,,,,,,,,
,,,,,,,,,,,,,FF,,,,,,,,0.5165,,,,,,,,,,,,,,,,,,,,,,60ff1ca8414d34df01312124,6103775e6d97b3a2a315b056,2021-07-29_23h05.52.363,Simcolourproject_2stim_asymm_v5,2020.2.10,Win32,60,61025ae37ef11b136ea224fe,,,,,,,,,89,61,46,1,0,0,response1disk,,6,11,-1,1,0,0,rectangle,11,-1,1,0,0,11,-1,1,0,0,1,58,218,143,1,,,,,,,,
,,,,,,,,,,,,,FF,,,,,,,,0.7,,,,,,,,,,,,,,,,,,,,,,60ff1ca8414d34df01312124,6103775e6d97b3a2a315b056,2021-07-29_23h05.52.363,Simcolourproject_2stim_asymm_v5,2020.2.10,Win32,60,61025ae37ef11b136ea224fe,,,,,,,,,4345,-100,-45,1,0,0,response5disk,,2,30,6,1,0,0,rectangle,30,6,1,0,0,30,6,1,0,0,1,59,219,39,1,,,,,,,,
,,,,,,,,,,,,,FF,,,,,,,,0.533,,,,,,,,,,,,,,,,,,,,,,60ff1ca8414d34df01312124,6103775e6d97b3a2a315b056,2021-07-29_23h05.52.363,Simcolourproject_2stim_asymm_v5,2020.2.10,Win32,60,61025ae37ef11b136ea224fe,,,,,,,,,4243,98,47,1,0,0,response1disk,,6,-10,-3,1,0,0,rectangle,-10,-3,1,0,0,-10,-3,1,0,0,1,60,220,50,1,,,,,,,,
,,,,,,,,,,,,,FF,,,,,,,,0.7166,,,,,,,,,,,,,,,,,,,,,,60ff1ca8414d34df01312124,6103775e6d97b3a2a315b056,2021-07-29_23h05.52.363,Simcolourproject_2stim_asymm_v5,2020.2.10,Win32,60,61025ae37ef11b136ea224fe,,,,,,,,,3472,-40,-89,1,0,0,response5disk,,3,1,-8,1,0,0,rectangle,1,-8,1,0,0,1,-8,1,0,0,1,61,221,147,1,,,,,,,,
,,,,,,,,,,,,,FF,,,,,,,,0.5672,,,,,,,,,,,,,,,,,,,,,,60ff1ca8414d34df01312124,6103775e6d97b3a2a315b056,2021-07-29_23h05.52.363,Simcolourproject_2stim_asymm_v5,2020.2.10,Win32,60,61025ae37ef11b136ea224fe,,,,,,,,,2733,-61,-68,1,0,0,response5disk,,3,-7,10,1,0,0,rectangle,-7,10,1,0,0,-7,10,1,0,0,1,62,222,11,1,,,,,,,,
,,,,,,,,,,,,,FF,,,,,,,,0.4999,,,,,,,,,,,,,,,,,,,,,,60ff1ca8414d34df01312124,6103775e6d97b3a2a315b056,2021-07-29_23h05.52.363,Simcolourproject_2stim_asymm_v5,2020.2.10,Win32,60,61025ae37ef11b136ea224fe,,,,,,,,,3801,42,85,1,0,0,response1disk,,7,5,-15,1,0,0,rectangle,5,-15,1,0,0,5,-15,1,0,0,1,63,223,138,1,,,,,,,,
,,,,,,,,,,,,,FF,,,,,,,,0.6666,,,,,,,,,,,,,,,,,,,,,,60ff1ca8414d34df01312124,6103775e6d97b3a2a315b056,2021-07-29_23h05.52.363,Simcolourproject_2stim_asymm_v5,2020.2.10,Win32,60,61025ae37ef11b136ea224fe,,,,,,,,,3912,48,-87,1,0,0,response3disk,,4,-11,1,1,0,0,rectangle,-11,1,1,0,0,-11,1,1,0,0,1,64,224,82,1,,,,,,,,
,,,,,,,,,,,,,FF,,,,,,,,0.65,,,,,,,,,,,,,,,,,,,,,,60ff1ca8414d34df01312124,6103775e6d97b3a2a315b056,2021-07-29_23h05.52.363,Simcolourproject_2stim_asymm_v5,2020.2.10,Win32,60,61025ae37ef11b136ea224fe,,,,,,,,,2583,27,66,1,0,0,response1disk,,7,14,0,1,0,0,rectangle,14,0,1,0,0,14,0,1,0,0,1,65,225,13,1,,,,,,,,
,,,,,,,,,,,,,FF,,,,,,,,0.7004,,,,,,,,,,,,,,,,,,,,,,60ff1ca8414d34df01312124,6103775e6d97b3a2a315b056,2021-07-29_23h05.52.363,Simcolourproject_2stim_asymm_v5,2020.2.10,Win32,60,61025ae37ef11b136ea224fe,,,,,,,,,3787,-91,-42,1,0,0,response5disk,,2,15,7,1,0,0,rectangle,15,7,1,0,0,15,7,1,0,0,1,66,226,47,1,,,,,,,,
,,,,,,,,,,,,,FF,,,,,,,,0.4998,,,,,,,,,,,,,,,,,,,,,,60ff1ca8414d34df01312124,6103775e6d97b3a2a315b056,2021-07-29_23h05.52.363,Simcolourproject_2stim_asymm_v5,2020.2.10,Win32,60,61025ae37ef11b136ea224fe,,,,,,,,,1883,30,63,1,0,0,response1disk,,7,11,-8,1,0,0,rectangle,11,-8,1,0,0,11,-8,1,0,0,1,67,227,110,1,,,,,,,,
,,,,,,,,,,,,,FF,,,,,,,,0.4666,,,,,,,,,,,,,,,,,,,,,,60ff1ca8414d34df01312124,6103775e6d97b3a2a315b056,2021-07-29_23h05.52.363,Simcolourproject_2stim_asymm_v5,2020.2.10,Win32,60,61025ae37ef11b136ea224fe,,,,,,,,,1098,30,71,1,0,0,response1disk,,7,3,-2,1,0,0,rectangle,3,-2,1,0,0,3,-2,1,0,0,1,68,228,159,1,,,,,,,,
,,,,,,,,,,,,,FF,,,,,,,,0.5,,,,,,,,,,,,,,,,,,,,,,60ff1ca8414d34df01312124,6103775e6d97b3a2a315b056,2021-07-29_23h05.52.363,Simcolourproject_2stim_asymm_v5,2020.2.10,Win32,60,61025ae37ef11b136ea224fe,,,,,,,,,1504,43,62,1,0,0,response1disk,,7,19,8,1,0,0,rectangle,19,8,1,0,0,19,8,1,0,0,1,69,229,155,1,,,,,,,,
,,,,,,,,,,,,,FF,,,,,,,,0.5503,,,,,,,,,,,,,,,,,,,,,,60ff1ca8414d34df01312124,6103775e6d97b3a2a315b056,2021-07-29_23h05.52.363,Simcolourproject_2stim_asymm_v5,2020.2.10,Win32,60,61025ae37ef11b136ea224fe,,,,,,,,,1881,33,-66,1,0,0,response3disk,,4,6,14,1,0,0,rectangle,6,14,1,0,0,6,14,1,0,0,1,70,230,16,1,,,,,,,,
,,,,,,,,,,,,,FF,,,,,,,,0.5334,,,,,,,,,,,,,,,,,,,,,,60ff1ca8414d34df01312124,6103775e6d97b3a2a315b056,2021-07-29_23h05.52.363,Simcolourproject_2stim_asymm_v5,2020.2.10,Win32,60,61025ae37ef11b136ea224fe,,,,,,,,,3094,46,-71,1,0,0,response3disk,,4,3,13,1,0,0,rectangle,39,87,1,0,0,20,18,1,0,0,1,71,231,37,1,,response1disk_3,TRUE,7,7,"[125,179,126,22,303,286,98,156,39,299,5,124,232,132,147,65,100,198,27,136]",1.15,rectangle
,,,,,,,,,,,,,FF,,,,,,,,0.5166,,,,,,,,,,,,,,,,,,,,,,60ff1ca8414d34df01312124,6103775e6d97b3a2a315b056,2021-07-29_23h05.52.363,Simcolourproject_2stim_asymm_v5,2020.2.10,Win32,60,61025ae37ef11b136ea224fe,,,,,,,,,209,24,66,1,0,0,response1disk,,7,-5,-9,1,0,0,rectangle,-5,-9,1,0,0,-5,-9,1,0,0,1,72,232,25,1,,,,,,,,
,,,,,,,,,,,,,FF,,,,,,,,0.6001,,,,,,,,,,,,,,,,,,,,,,60ff1ca8414d34df01312124,6103775e6d97b3a2a315b056,2021-07-29_23h05.52.363,Simcolourproject_2stim_asymm_v5,2020.2.10,Win32,60,61025ae37ef11b136ea224fe,,,,,,,,,2231,-49,-104,1,0,0,response5disk,,3,-14,-21,1,0,0,rectangle,-14,-21,1,0,0,-14,-21,1,0,0,1,73,233,17,1,,,,,,,,
,,,,,,,,,,,,,FF,,,,,,,,0.499,,,,,,,,,,,,,,,,,,,,,,60ff1ca8414d34df01312124,6103775e6d97b3a2a315b056,2021-07-29_23h05.52.363,Simcolourproject_2stim_asymm_v5,2020.2.10,Win32,60,61025ae37ef11b136ea224fe,,,,,,,,,815,-35,-115,1,0,0,response5disk,,3,12,-1,1,0,0,rectangle,12,-1,1,0,0,12,-1,1,0,0,1,74,234,81,1,,,,,,,,
,,,,,,,,,,,,,FF,,,,,,,,0.3497,,,,,,,,,,,,,,,,,,,,,,60ff1ca8414d34df01312124,6103775e6d97b3a2a315b056,2021-07-29_23h05.52.363,Simcolourproject_2stim_asymm_v5,2020.2.10,Win32,60,61025ae37ef11b136ea224fe,,,,,,,,,3612,31,-81,1,0,0,response3disk,,4,-3,-1,1,0,0,rectangle,-3,-1,1,0,0,-3,-1,1,0,0,1,75,235,99,1,,,,,,,,
,,,,,,,,,,,,,FF,,,,,,,,0.4166,,,,,,,,,,,,,,,,,,,,,,60ff1ca8414d34df01312124,6103775e6d97b3a2a315b056,2021-07-29_23h05.52.363,Simcolourproject_2stim_asymm_v5,2020.2.10,Win32,60,61025ae37ef11b136ea224fe,,,,,,,,,3328,-59,-100,1,0,0,response5disk,,3,4,19,1,0,0,rectangle,4,19,1,0,0,4,19,1,0,0,1,76,236,126,1,,,,,,,,
,,,,,,,,,,,,,FF,,,,,,,,0.7166,,,,,,,,,,,,,,,,,,,,,,60ff1ca8414d34df01312124,6103775e6d97b3a2a315b056,2021-07-29_23h05.52.363,Simcolourproject_2stim_asymm_v5,2020.2.10,Win32,60,61025ae37ef11b136ea224fe,,,,,,,,,1228,-45,-87,1,0,0,response5disk,,3,-33,0,1,0,0,rectangle,-33,0,1,0,0,-33,0,1,0,0,1,77,237,52,1,,,,,,,,
,,,,,,,,,,,,,FF,,,,,,,,0.4499,,,,,,,,,,,,,,,,,,,,,,60ff1ca8414d34df01312124,6103775e6d97b3a2a315b056,2021-07-29_23h05.52.363,Simcolourproject_2stim_asymm_v5,2020.2.10,Win32,60,61025ae37ef11b136ea224fe,,,,,,,,,915,81,-31,1,0,0,response3disk,,5,13,-5,1,0,0,rectangle,13,-5,1,0,0,13,-5,1,0,0,1,78,238,6,1,,,,,,,,
,,,,,,,,,,,,,FF,,,,,,,,0.5832,,,,,,,,,,,,,,,,,,,,,,60ff1ca8414d34df01312124,6103775e6d97b3a2a315b056,2021-07-29_23h05.52.363,Simcolourproject_2stim_asymm_v5,2020.2.10,Win32,60,61025ae37ef11b136ea224fe,,,,,,,,,787,26,-90,1,0,0,response3disk,,4,2,8,1,0,0,rectangle,2,8,1,0,0,2,8,1,0,0,1,79,239,10,1,,,,,,,,
,,,,,,,,,,,,,FF,,,,,,,,1.4663,,,,,,,,,,,,,,,,,,,,,,60ff1ca8414d34df01312124,6103775e6d97b3a2a315b056,2021-07-29_23h05.52.363,Simcolourproject_2stim_asymm_v5,2020.2.10,Win32,60,61025ae37ef11b136ea224fe,,,,,,,,,3137,52,-84,1,0,0,response3disk,,4,-7,-11,1,0,0,rectangle,-7,-11,1,0,0,-7,-11,1,0,0,1,80,240,28,1,,,,,,,,
,,,,,,,,,,,,,FF,,,,,,,,0.7666,,,,,,,,,,,,,,,,,,,,,,60ff1ca8414d34df01312124,6103775e6d97b3a2a315b056,2021-07-29_23h05.52.363,Simcolourproject_2stim_asymm_v5,2020.2.10,Win32,60,61025ae37ef11b136ea224fe,,,,,,,,,2799,107,40,1,0,0,response1disk,,6,11,-5,1,0,0,rectangle,11,-5,1,0,0,11,-5,1,0,0,1,81,241,20,1,,,,,,,,
,,,,,,,,,,,,,FF,,,,,,,,0.6996,,,,,,,,,,,,,,,,,,,,,,60ff1ca8414d34df01312124,6103775e6d97b3a2a315b056,2021-07-29_23h05.52.363,Simcolourproject_2stim_asymm_v5,2020.2.10,Win32,60,61025ae37ef11b136ea224fe,,,,,,,,,3559,-25,-92,1,0,0,response5disk,,3,10,6,1,0,0,rectangle,10,6,1,0,0,10,6,1,0,0,1,82,242,94,1,,,,,,,,
,,,,,,,,,,,,,FF,,,,,,,,0.4,,,,,,,,,,,,,,,,,,,,,,60ff1ca8414d34df01312124,6103775e6d97b3a2a315b056,2021-07-29_23h05.52.363,Simcolourproject_2stim_asymm_v5,2020.2.10,Win32,60,61025ae37ef11b136ea224fe,,,,,,,,,4028,-103,-45,1,0,0,response5disk,,2,-13,8,1,0,0,rectangle,-13,8,1,0,0,-13,8,1,0,0,1,83,243,121,1,,,,,,,,
,,,,,,,,,,,,,FF,,,,,,,,0.5665,,,,,,,,,,,,,,,,,,,,,,60ff1ca8414d34df01312124,6103775e6d97b3a2a315b056,2021-07-29_23h05.52.363,Simcolourproject_2stim_asymm_v5,2020.2.10,Win32,60,61025ae37ef11b136ea224fe,,,,,,,,,2061,73,77,1,0,0,response1disk,,7,15,-1,1,0,0,rectangle,15,-1,1,0,0,15,-1,1,0,0,1,84,244,27,1,,,,,,,,
,,,,,,,,,,,,,FF,,,,,,,,0.7502,,,,,,,,,,,,,,,,,,,,,,60ff1ca8414d34df01312124,6103775e6d97b3a2a315b056,2021-07-29_23h05.52.363,Simcolourproject_2stim_asymm_v5,2020.2.10,Win32,60,61025ae37ef11b136ea224fe,,,,,,,,,3229,54,61,1,0,0,response1disk,,7,19,-9,1,0,0,rectangle,19,-9,1,0,0,19,-9,1,0,0,1,85,245,123,1,,,,,,,,
,,,,,,,,,,,,,FF,,,,,,,,0.6,,,,,,,,,,,,,,,,,,,,,,60ff1ca8414d34df01312124,6103775e6d97b3a2a315b056,2021-07-29_23h05.52.363,Simcolourproject_2stim_asymm_v5,2020.2.10,Win32,60,61025ae37ef11b136ea224fe,,,,,,,,,2038,-70,-36,1,0,0,response5disk,,2,1,1,1,0,0,rectangle,1,1,1,0,0,1,1,1,0,0,1,86,246,14,1,,,,,,,,
,,,,,,,,,,,,,FF,,,,,,,,0.3498,,,,,,,,,,,,,,,,,,,,,,60ff1ca8414d34df01312124,6103775e6d97b3a2a315b056,2021-07-29_23h05.52.363,Simcolourproject_2stim_asymm_v5,2020.2.10,Win32,60,61025ae37ef11b136ea224fe,,,,,,,,,2387,28,63,1,0,0,response1disk,,7,4,-1,1,0,0,rectangle,4,-1,1,0,0,4,-1,1,0,0,1,87,247,157,1,,,,,,,,
,,,,,,,,,,,,,FF,,,,,,,,0.5001,,,,,,,,,,,,,,,,,,,,,,60ff1ca8414d34df01312124,6103775e6d97b3a2a315b056,2021-07-29_23h05.52.363,Simcolourproject_2stim_asymm_v5,2020.2.10,Win32,60,61025ae37ef11b136ea224fe,,,,,,,,,2274,37,60,1,0,0,response1disk,,7,2,-20,1,0,0,rectangle,2,-20,1,0,0,2,-20,1,0,0,1,88,248,7,1,,,,,,,,
,,,,,,,,,,,,,FF,,,,,,,,0.3665,,,,,,,,,,,,,,,,,,,,,,60ff1ca8414d34df01312124,6103775e6d97b3a2a315b056,2021-07-29_23h05.52.363,Simcolourproject_2stim_asymm_v5,2020.2.10,Win32,60,61025ae37ef11b136ea224fe,,,,,,,,,3617,42,61,1,0,0,response1disk,,7,14,11,1,0,0,rectangle,14,11,1,0,0,14,11,1,0,0,1,89,249,48,1,,,,,,,,
,,,,,,,,,,,,,FF,,,,,,,,0.7664,,,,,,,,,,,,,,,,,,,,,,60ff1ca8414d34df01312124,6103775e6d97b3a2a315b056,2021-07-29_23h05.52.363,Simcolourproject_2stim_asymm_v5,2020.2.10,Win32,60,61025ae37ef11b136ea224fe,,,,,,,,,2896,-24,-59,1,0,0,response5disk,,3,-8,1,1,0,0,rectangle,-8,1,1,0,0,-8,1,1,0,0,1,90,250,76,1,,,,,,,,
,,,,,,,,,,,,,FF,,,,,,,,1.0832,,,,,,,,,,,,,,,,,,,,,,60ff1ca8414d34df01312124,6103775e6d97b3a2a315b056,2021-07-29_23h05.52.363,Simcolourproject_2stim_asymm_v5,2020.2.10,Win32,60,61025ae37ef11b136ea224fe,,,,,,,,,1830,-34,-79,1,0,0,response5disk,,3,0,-7,1,0,0,rectangle,0,-7,1,0,0,0,-7,1,0,0,1,91,251,21,1,,,,,,,,
,,,,,,,,,,,,,FF,,,,,,,,1.1334,,,,,,,,,,,,,,,,,,,,,,60ff1ca8414d34df01312124,6103775e6d97b3a2a315b056,2021-07-29_23h05.52.363,Simcolourproject_2stim_asymm_v5,2020.2.10,Win32,60,61025ae37ef11b136ea224fe,,,,,,,,,2114,49,-92,1,0,0,response3disk,,4,4,7,1,0,0,rectangle,4,7,1,0,0,4,7,1,0,0,1,92,252,38,1,,,,,,,,
,,,,,,,,,,,,,FF,,,,,,,,0.3665,,,,,,,,,,,,,,,,,,,,,,60ff1ca8414d34df01312124,6103775e6d97b3a2a315b056,2021-07-29_23h05.52.363,Simcolourproject_2stim_asymm_v5,2020.2.10,Win32,60,61025ae37ef11b136ea224fe,,,,,,,,,2699,71,28,1,0,0,response1disk,,6,14,1,1,0,0,rectangle,14,1,1,0,0,14,1,1,0,0,1,93,253,71,1,,,,,,,,
,,,,,,,,,,,,,FF,,,,,,,,0.5999,,,,,,,,,,,,,,,,,,,,,,60ff1ca8414d34df01312124,6103775e6d97b3a2a315b056,2021-07-29_23h05.52.363,Simcolourproject_2stim_asymm_v5,2020.2.10,Win32,60,61025ae37ef11b136ea224fe,,,,,,,,,3295,46,-99,1,0,0,response3disk,,4,3,-8,1,0,0,rectangle,3,-8,1,0,0,3,-8,1,0,0,1,94,254,85,1,,,,,,,,
,,,,,,,,,,,,,FF,,,,,,,,0.417,,,,,,,,,,,,,,,,,,,,,,60ff1ca8414d34df01312124,6103775e6d97b3a2a315b056,2021-07-29_23h05.52.363,Simcolourproject_2stim_asymm_v5,2020.2.10,Win32,60,61025ae37ef11b136ea224fe,,,,,,,,,2752,92,39,1,0,0,response1disk,,6,21,-1,1,0,0,rectangle,21,-1,1,0,0,21,-1,1,0,0,1,95,255,77,1,,,,,,,,
,,,,,,,,,,,,,FF,,,,,,,,0.6329,,,,,,,,,,,,,,,,,,,,,,60ff1ca8414d34df01312124,6103775e6d97b3a2a315b056,2021-07-29_23h05.52.363,Simcolourproject_2stim_asymm_v5,2020.2.10,Win32,60,61025ae37ef11b136ea224fe,,,,,,,,,4201,-73,-40,1,0,0,response5disk,,2,8,-3,1,0,0,rectangle,8,-3,1,0,0,8,-3,1,0,0,1,96,256,128,1,,,,,,,,
,,,,,,,,,,,,,FF,,,,,,,,0.4001,,,,,,,,,,,,,,,,,,,,,,60ff1ca8414d34df01312124,6103775e6d97b3a2a315b056,2021-07-29_23h05.52.363,Simcolourproject_2stim_asymm_v5,2020.2.10,Win32,60,61025ae37ef11b136ea224fe,,,,,,,,,1261,88,42,1,0,0,response1disk,,6,20,1,1,0,0,rectangle,20,1,1,0,0,20,1,1,0,0,1,97,257,111,1,,,,,,,,
,,,,,,,,,,,,,FF,,,,,,,,0.4499,,,,,,,,,,,,,,,,,,,,,,60ff1ca8414d34df01312124,6103775e6d97b3a2a315b056,2021-07-29_23h05.52.363,Simcolourproject_2stim_asymm_v5,2020.2.10,Win32,60,61025ae37ef11b136ea224fe,,,,,,,,,514,112,44,1,0,0,response1disk,,6,18,-8,1,0,0,rectangle,18,-8,1,0,0,18,-8,1,0,0,1,98,258,64,1,,,,,,,,
,,,,,,,,,,,,,FF,,,,,,,,0.6334,,,,,,,,,,,,,,,,,,,,,,60ff1ca8414d34df01312124,6103775e6d97b3a2a315b056,2021-07-29_23h05.52.363,Simcolourproject_2stim_asymm_v5,2020.2.10,Win32,60,61025ae37ef11b136ea224fe,,,,,,,,,1737,93,-46,1,0,0,response3disk,,5,2,13,1,0,0,rectangle,2,13,1,0,0,2,13,1,0,0,1,99,259,104,1,,,,,,,,
,,,,,,,,,,,,,FF,,,,,,,,0.6664,,,,,,,,,,,,,,,,,,,,,,60ff1ca8414d34df01312124,6103775e6d97b3a2a315b056,2021-07-29_23h05.52.363,Simcolourproject_2stim_asymm_v5,2020.2.10,Win32,60,61025ae37ef11b136ea224fe,,,,,,,,,2432,116,-53,1,0,0,response3disk,,5,17,-5,1,0,0,rectangle,17,-5,1,0,0,17,-5,1,0,0,1,100,260,152,1,,,,,,,,
,,,,,,,,,,,,,FF,,,,,,,,0.9164,,,,,,,,,,,,,,,,,,,,,,60ff1ca8414d34df01312124,6103775e6d97b3a2a315b056,2021-07-29_23h05.52.363,Simcolourproject_2stim_asymm_v5,2020.2.10,Win32,60,61025ae37ef11b136ea224fe,,,,,,,,,2765,57,90,1,0,0,response1disk,,7,24,7,1,0,0,rectangle,24,7,1,0,0,24,7,1,0,0,1,101,261,89,1,,,,,,,,
,,,,,,,,,,,,,FF,,,,,,,,0.65,,,,,,,,,,,,,,,,,,,,,,60ff1ca8414d34df01312124,6103775e6d97b3a2a315b056,2021-07-29_23h05.52.363,Simcolourproject_2stim_asymm_v5,2020.2.10,Win32,60,61025ae37ef11b136ea224fe,,,,,,,,,1046,46,74,1,0,0,response1disk,,7,18,4,1,0,0,rectangle,18,4,1,0,0,18,4,1,0,0,1,102,262,57,1,,,,,,,,
,,,,,,,,,,,,,FF,,,,,,,,0.4166,,,,,,,,,,,,,,,,,,,,,,60ff1ca8414d34df01312124,6103775e6d97b3a2a315b056,2021-07-29_23h05.52.363,Simcolourproject_2stim_asymm_v5,2020.2.10,Win32,60,61025ae37ef11b136ea224fe,,,,,,,,,552,52,83,1,0,0,response1disk,,7,28,-1,1,0,0,rectangle,28,-1,1,0,0,28,-1,1,0,0,1,103,263,65,1,,,,,,,,
,,,,,,,,,,,,,FF,,,,,,,,0.5999,,,,,,,,,,,,,,,,,,,,,,60ff1ca8414d34df01312124,6103775e6d97b3a2a315b056,2021-07-29_23h05.52.363,Simcolourproject_2stim_asymm_v5,2020.2.10,Win32,60,61025ae37ef11b136ea224fe,,,,,,,,,412,45,63,1,0,0,response1disk,,7,7,-2,1,0,0,rectangle,7,-2,1,0,0,7,-2,1,0,0,1,104,264,102,1,,,,,,,,
,,,,,,,,,,,,,FF,,,,,,,,1.0001,,,,,,,,,,,,,,,,,,,,,,60ff1ca8414d34df01312124,6103775e6d97b3a2a315b056,2021-07-29_23h05.52.363,Simcolourproject_2stim_asymm_v5,2020.2.10,Win32,60,61025ae37ef11b136ea224fe,,,,,,,,,364,98,56,1,0,0,response1disk,,6,25,7,1,0,0,rectangle,25,7,1,0,0,25,7,1,0,0,1,105,265,18,1,,,,,,,,
,,,,,,,,,,,,,FF,,,,,,,,0.5833,,,,,,,,,,,,,,,,,,,,,,60ff1ca8414d34df01312124,6103775e6d97b3a2a315b056,2021-07-29_23h05.52.363,Simcolourproject_2stim_asymm_v5,2020.2.10,Win32,60,61025ae37ef11b136ea224fe,,,,,,,,,1530,62,-112,1,0,0,response3disk,,4,3,6,1,0,0,rectangle,3,6,1,0,0,3,6,1,0,0,1,106,266,144,1,,,,,,,,
,,,,,,,,,,,,,FF,,,,,,,,0.8664,,,,,,,,,,,,,,,,,,,,,,60ff1ca8414d34df01312124,6103775e6d97b3a2a315b056,2021-07-29_23h05.52.363,Simcolourproject_2stim_asymm_v5,2020.2.10,Win32,60,61025ae37ef11b136ea224fe,,,,,,,,,101,-34,-98,1,0,0,response5disk,,3,16,2,1,0,0,rectangle,16,2,1,0,0,16,2,1,0,0,1,107,267,145,1,,,,,,,,
,,,,,,,,,,,,,FF,,,,,,,,0.8165,,,,,,,,,,,,,,,,,,,,,,60ff1ca8414d34df01312124,6103775e6d97b3a2a315b056,2021-07-29_23h05.52.363,Simcolourproject_2stim_asymm_v5,2020.2.10,Win32,60,61025ae37ef11b136ea224fe,,,,,,,,,2542,-93,61,1,0,0,response7disk,,1,-6,4,1,0,0,rectangle,-6,4,1,0,0,-6,4,1,0,0,1,108,268,127,1,,,,,,,,
,,,,,,,,,,,,,FF,,,,,,,,0.8166,,,,,,,,,,,,,,,,,,,,,,60ff1ca8414d34df01312124,6103775e6d97b3a2a315b056,2021-07-29_23h05.52.363,Simcolourproject_2stim_asymm_v5,2020.2.10,Win32,60,61025ae37ef11b136ea224fe,,,,,,,,,3188,-51,-96,1,0,0,response5disk,,3,-7,-2,1,0,0,rectangle,-7,-2,1,0,0,-7,-2,1,0,0,1,109,269,58,1,,,,,,,,
,,,,,,,,,,,,,FF,,,,,,,,0.4668,,,,,,,,,,,,,,,,,,,,,,60ff1ca8414d34df01312124,6103775e6d97b3a2a315b056,2021-07-29_23h05.52.363,Simcolourproject_2stim_asymm_v5,2020.2.10,Win32,60,61025ae37ef11b136ea224fe,,,,,,,,,1893,-40,-82,1,0,0,response5disk,,3,9,2,1,0,0,rectangle,9,2,1,0,0,9,2,1,0,0,1,110,270,134,1,,,,,,,,
,,,,,,,,,,,,,FF,,,,,,,,0.8662,,,,,,,,,,,,,,,,,,,,,,60ff1ca8414d34df01312124,6103775e6d97b3a2a315b056,2021-07-29_23h05.52.363,Simcolourproject_2stim_asymm_v5,2020.2.10,Win32,60,61025ae37ef11b136ea224fe,,,,,,,,,3760,82,42,1,0,0,response1disk,,6,-7,-6,1,0,0,rectangle,-7,-6,1,0,0,-7,-6,1,0,0,1,111,271,80,1,,,,,,,,
,,,,,,,,,,,,,FF,,,,,,,,1.5999,,,,,,,,,,,,,,,,,,,,,,60ff1ca8414d34df01312124,6103775e6d97b3a2a315b056,2021-07-29_23h05.52.363,Simcolourproject_2stim_asymm_v5,2020.2.10,Win32,60,61025ae37ef11b136ea224fe,,,,,,,,,1247,78,38,1,0,0,response1disk,,6,23,11,1,0,0,rectangle,23,11,1,0,0,23,11,1,0,0,1,112,272,142,1,,,,,,,,
,,,,,,,,,,,,,FF,,,,,,,,1.0665,,,,,,,,,,,,,,,,,,,,,,60ff1ca8414d34df01312124,6103775e6d97b3a2a315b056,2021-07-29_23h05.52.363,Simcolourproject_2stim_asymm_v5,2020.2.10,Win32,60,61025ae37ef11b136ea224fe,,,,,,,,,2705,98,-54,1,0,0,response3disk,,5,0,-2,1,0,0,rectangle,0,-2,1,0,0,0,-2,1,0,0,1,113,273,135,1,,,,,,,,
,,,,,,,,,,,,,FF,,,,,,,,0.4834,,,,,,,,,,,,,,,,,,,,,,60ff1ca8414d34df01312124,6103775e6d97b3a2a315b056,2021-07-29_23h05.52.363,Simcolourproject_2stim_asymm_v5,2020.2.10,Win32,60,61025ae37ef11b136ea224fe,,,,,,,,,2907,51,-72,1,0,0,response3disk,,4,1,-6,1,0,0,rectangle,1,-6,1,0,0,1,-6,1,0,0,1,114,274,154,1,,,,,,,,
,,,,,,,,,,,,,FF,,,,,,,,0.7499,,,,,,,,,,,,,,,,,,,,,,60ff1ca8414d34df01312124,6103775e6d97b3a2a315b056,2021-07-29_23h05.52.363,Simcolourproject_2stim_asymm_v5,2020.2.10,Win32,60,61025ae37ef11b136ea224fe,,,,,,,,,1155,104,-42,1,0,0,response3disk,,5,-5,10,1,0,0,rectangle,-5,10,1,0,0,-5,10,1,0,0,1,115,275,68,1,,,,,,,,
,,,,,,,,,,,,,FF,,,,,,,,0.5664,,,,,,,,,,,,,,,,,,,,,,60ff1ca8414d34df01312124,6103775e6d97b3a2a315b056,2021-07-29_23h05.52.363,Simcolourproject_2stim_asymm_v5,2020.2.10,Win32,60,61025ae37ef11b136ea224fe,,,,,,,,,1877,59,-70,1,0,0,response3disk,,4,13,5,1,0,0,rectangle,13,5,1,0,0,13,5,1,0,0,1,116,276,44,1,,,,,,,,
,,,,,,,,,,,,,FF,,,,,,,,0.5164,,,,,,,,,,,,,,,,,,,,,,60ff1ca8414d34df01312124,6103775e6d97b3a2a315b056,2021-07-29_23h05.52.363,Simcolourproject_2stim_asymm_v5,2020.2.10,Win32,60,61025ae37ef11b136ea224fe,,,,,,,,,2503,76,44,1,0,0,response1disk,,6,22,-4,1,0,0,rectangle,22,-4,1,0,0,22,-4,1,0,0,1,117,277,43,1,,,,,,,,
,,,,,,,,,,,,,FF,,,,,,,,0.5,,,,,,,,,,,,,,,,,,,,,,60ff1ca8414d34df01312124,6103775e6d97b3a2a315b056,2021-07-29_23h05.52.363,Simcolourproject_2stim_asymm_v5,2020.2.10,Win32,60,61025ae37ef11b136ea224fe,,,,,,,,,4110,42,87,1,0,0,response1disk,,7,11,14,1,0,0,rectangle,11,14,1,0,0,11,14,1,0,0,1,118,278,60,1,,,,,,,,
,,,,,,,,,,,,,FF,,,,,,,,0.5663,,,,,,,,,,,,,,,,,,,,,,60ff1ca8414d34df01312124,6103775e6d97b3a2a315b056,2021-07-29_23h05.52.363,Simcolourproject_2stim_asymm_v5,2020.2.10,Win32,60,61025ae37ef11b136ea224fe,,,,,,,,,3478,-23,-76,1,0,0,response5disk,,3,5,-3,1,0,0,rectangle,5,-3,1,0,0,5,-3,1,0,0,1,119,279,108,1,,,,,,,,
,,,,,,,,,,,,,FF,,,,,,,,0.9333,,,,,,,,,,,,,,,,,,,,,,60ff1ca8414d34df01312124,6103775e6d97b3a2a315b056,2021-07-29_23h05.52.363,Simcolourproject_2stim_asymm_v5,2020.2.10,Win32,60,61025ae37ef11b136ea224fe,,,,,,,,,535,52,77,1,0,0,response1disk,,7,24,-9,1,0,0,rectangle,24,-9,1,0,0,24,-9,1,0,0,1,120,280,158,1,,,,,,,,
,,,,,,,,,,,,,FF,,,,,,,,0.8999,,,,,,,,,,,,,,,,,,,,,,60ff1ca8414d34df01312124,6103775e6d97b3a2a315b056,2021-07-29_23h05.52.363,Simcolourproject_2stim_asymm_v5,2020.2.10,Win32,60,61025ae37ef11b136ea224fe,,,,,,,,,1785,48,-84,1,0,0,response3disk,,4,13,17,1,0,0,rectangle,13,17,1,0,0,13,17,1,0,0,1,121,281,78,1,,,,,,,,
,,,,,,,,,,,,,FF,,,,,,,,0.7001,,,,,,,,,,,,,,,,,,,,,,60ff1ca8414d34df01312124,6103775e6d97b3a2a315b056,2021-07-29_23h05.52.363,Simcolourproject_2stim_asymm_v5,2020.2.10,Win32,60,61025ae37ef11b136ea224fe,,,,,,,,,8,51,-82,1,0,0,response3disk,,4,7,-1,1,0,0,rectangle,7,-1,1,0,0,7,-1,1,0,0,1,122,282,49,1,,,,,,,,
,,,,,,,,,,,,,FF,,,,,,,,0.7001,,,,,,,,,,,,,,,,,,,,,,60ff1ca8414d34df01312124,6103775e6d97b3a2a315b056,2021-07-29_23h05.52.363,Simcolourproject_2stim_asymm_v5,2020.2.10,Win32,60,61025ae37ef11b136ea224fe,,,,,,,,,2837,52,-89,1,0,0,response3disk,,4,6,-3,1,0,0,rectangle,6,-3,1,0,0,6,-3,1,0,0,1,123,283,112,1,,,,,,,,
,,,,,,,,,,,,,FF,,,,,,,,0.4994,,,,,,,,,,,,,,,,,,,,,,60ff1ca8414d34df01312124,6103775e6d97b3a2a315b056,2021-07-29_23h05.52.363,Simcolourproject_2stim_asymm_v5,2020.2.10,Win32,60,61025ae37ef11b136ea224fe,,,,,,,,,2199,61,110,1,0,0,response1disk,,7,9,13,1,0,0,rectangle,9,13,1,0,0,9,13,1,0,0,1,124,284,113,1,,,,,,,,
,,,,,,,,,,,,,FF,,,,,,,,0.8334,,,,,,,,,,,,,,,,,,,,,,60ff1ca8414d34df01312124,6103775e6d97b3a2a315b056,2021-07-29_23h05.52.363,Simcolourproject_2stim_asymm_v5,2020.2.10,Win32,60,61025ae37ef11b136ea224fe,,,,,,,,,1370,-93,-49,1,0,0,response5disk,,2,-7,-4,1,0,0,rectangle,51,-113,1,0,0,4,6,1,0,0,1,125,285,90,1,,response3disk_3,TRUE,4,4,"[125,179,126,22,303,286,98,156,39,299,5,124,232,132,147,65,100,198,27,136]",1.6333,rectangle
,,,,,,,,,,,,,FF,,,,,,,,1.3,,,,,,,,,,,,,,,,,,,,,,60ff1ca8414d34df01312124,6103775e6d97b3a2a315b056,2021-07-29_23h05.52.363,Simcolourproject_2stim_asymm_v5,2020.2.10,Win32,60,61025ae37ef11b136ea224fe,,,,,,,,,1931,68,-38,1,0,0,response3disk,,5,-13,1,1,0,0,rectangle,-13,1,1,0,0,-13,1,1,0,0,1,126,286,84,1,,,,,,,,
,,,,,,,,,,,,,FF,,,,,,,,0.3831,,,,,,,,,,,,,,,,,,,,,,60ff1ca8414d34df01312124,6103775e6d97b3a2a315b056,2021-07-29_23h05.52.363,Simcolourproject_2stim_asymm_v5,2020.2.10,Win32,60,61025ae37ef11b136ea224fe,,,,,,,,,1635,96,-29,1,0,0,response3disk,,5,29,6,1,0,0,rectangle,29,6,1,0,0,29,6,1,0,0,1,127,287,55,1,,,,,,,,
,,,,,,,,,,,,,FF,,,,,,,,0.3667,,,,,,,,,,,,,,,,,,,,,,60ff1ca8414d34df01312124,6103775e6d97b3a2a315b056,2021-07-29_23h05.52.363,Simcolourproject_2stim_asymm_v5,2020.2.10,Win32,60,61025ae37ef11b136ea224fe,,,,,,,,,3260,30,61,1,0,0,response1disk,,7,15,8,1,0,0,rectangle,15,8,1,0,0,15,8,1,0,0,1,128,288,36,1,,,,,,,,
,,,,,,,,,,,,,FF,,,,,,,,0.4999,,,,,,,,,,,,,,,,,,,,,,60ff1ca8414d34df01312124,6103775e6d97b3a2a315b056,2021-07-29_23h05.52.363,Simcolourproject_2stim_asymm_v5,2020.2.10,Win32,60,61025ae37ef11b136ea224fe,,,,,,,,,1754,-43,-86,1,0,0,response5disk,,3,-5,3,1,0,0,rectangle,-5,3,1,0,0,-5,3,1,0,0,1,129,289,5,1,,,,,,,,
,,,,,,,,,,,,,FF,,,,,,,,0.6833,,,,,,,,,,,,,,,,,,,,,,60ff1ca8414d34df01312124,6103775e6d97b3a2a315b056,2021-07-29_23h05.52.363,Simcolourproject_2stim_asymm_v5,2020.2.10,Win32,60,61025ae37ef11b136ea224fe,,,,,,,,,4337,-91,-47,1,0,0,response5disk,,2,-10,-15,1,0,0,rectangle,-10,-15,1,0,0,-10,-15,1,0,0,1,130,290,33,1,,,,,,,,
,,,,,,,,,,,,,FF,,,,,,,,0.7832,,,,,,,,,,,,,,,,,,,,,,60ff1ca8414d34df01312124,6103775e6d97b3a2a315b056,2021-07-29_23h05.52.363,Simcolourproject_2stim_asymm_v5,2020.2.10,Win32,60,61025ae37ef11b136ea224fe,,,,,,,,,3934,-89,-70,1,0,0,response5disk,,2,-34,-12,1,0,0,rectangle,-34,-12,1,0,0,-34,-12,1,0,0,1,131,291,72,1,,,,,,,,
,,,,,,,,,,,,,FF,,,,,,,,0.4665,,,,,,,,,,,,,,,,,,,,,,60ff1ca8414d34df01312124,6103775e6d97b3a2a315b056,2021-07-29_23h05.52.363,Simcolourproject_2stim_asymm_v5,2020.2.10,Win32,60,61025ae37ef11b136ea224fe,,,,,,,,,3978,-91,-52,1,0,0,response5disk,,2,2,-8,1,0,0,rectangle,2,-8,1,0,0,2,-8,1,0,0,1,132,292,83,1,,,,,,,,
,,,,,,,,,,,,,FF,,,,,,,,0.4835,,,,,,,,,,,,,,,,,,,,,,60ff1ca8414d34df01312124,6103775e6d97b3a2a315b056,2021-07-29_23h05.52.363,Simcolourproject_2stim_asymm_v5,2020.2.10,Win32,60,61025ae37ef11b136ea224fe,,,,,,,,,3299,35,-65,1,0,0,response3disk,,4,-1,-5,1,0,0,rectangle,-1,-5,1,0,0,-1,-5,1,0,0,1,133,293,140,1,,,,,,,,
,,,,,,,,,,,,,FF,,,,,,,,0.7836,,,,,,,,,,,,,,,,,,,,,,60ff1ca8414d34df01312124,6103775e6d97b3a2a315b056,2021-07-29_23h05.52.363,Simcolourproject_2stim_asymm_v5,2020.2.10,Win32,60,61025ae37ef11b136ea224fe,,,,,,,,,453,85,40,1,0,0,response1disk,,6,-16,-20,1,0,0,rectangle,-16,-20,1,0,0,-16,-20,1,0,0,1,134,294,32,1,,,,,,,,
,,,,,,,,,,,,,FF,,,,,,,,0.5166,,,,,,,,,,,,,,,,,,,,,,60ff1ca8414d34df01312124,6103775e6d97b3a2a315b056,2021-07-29_23h05.52.363,Simcolourproject_2stim_asymm_v5,2020.2.10,Win32,60,61025ae37ef11b136ea224fe,,,,,,,,,2569,31,88,1,0,0,response1disk,,7,-4,3,1,0,0,rectangle,-4,3,1,0,0,-4,3,1,0,0,1,135,295,29,1,,,,,,,,
,,,,,,,,,,,,,FF,,,,,,,,0.3831,,,,,,,,,,,,,,,,,,,,,,60ff1ca8414d34df01312124,6103775e6d97b3a2a315b056,2021-07-29_23h05.52.363,Simcolourproject_2stim_asymm_v5,2020.2.10,Win32,60,61025ae37ef11b136ea224fe,,,,,,,,,1487,46,63,1,0,0,response1disk,,7,-2,-10,1,0,0,rectangle,-2,-10,1,0,0,-2,-10,1,0,0,1,136,296,117,1,,,,,,,,
,,,,,,,,,,,,,FF,,,,,,,,0.6163,,,,,,,,,,,,,,,,,,,,,,60ff1ca8414d34df01312124,6103775e6d97b3a2a315b056,2021-07-29_23h05.52.363,Simcolourproject_2stim_asymm_v5,2020.2.10,Win32,60,61025ae37ef11b136ea224fe,,,,,,,,,2020,84,-38,1,0,0,response3disk,,5,12,9,1,0,0,rectangle,12,9,1,0,0,12,9,1,0,0,1,137,297,22,1,,,,,,,,
,,,,,,,,,,,,,FF,,,,,,,,0.4502,,,,,,,,,,,,,,,,,,,,,,60ff1ca8414d34df01312124,6103775e6d97b3a2a315b056,2021-07-29_23h05.52.363,Simcolourproject_2stim_asymm_v5,2020.2.10,Win32,60,61025ae37ef11b136ea224fe,,,,,,,,,1425,36,61,1,0,0,response1disk,,7,16,12,1,0,0,rectangle,108,61,1,0,0,31,-6,1,0,0,1,138,298,63,1,,response1disk_3,TRUE,6,6,"[125,179,126,22,303,286,98,156,39,299,5,124,232,132,147,65,100,198,27,136]",1.4,rectangle
,,,,,,,,,,,,,FF,,,,,,,,0.6167,,,,,,,,,,,,,,,,,,,,,,60ff1ca8414d34df01312124,6103775e6d97b3a2a315b056,2021-07-29_23h05.52.363,Simcolourproject_2stim_asymm_v5,2020.2.10,Win32,60,61025ae37ef11b136ea224fe,,,,,,,,,134,38,73,1,0,0,response1disk,,7,8,-2,1,0,0,rectangle,8,-2,1,0,0,8,-2,1,0,0,1,139,299,130,1,,,,,,,,
,,,,,,,,,,,,,FF,,,,,,,,0.2999,,,,,,,,,,,,,,,,,,,,,,60ff1ca8414d34df01312124,6103775e6d97b3a2a315b056,2021-07-29_23h05.52.363,Simcolourproject_2stim_asymm_v5,2020.2.10,Win32,60,61025ae37ef11b136ea224fe,,,,,,,,,986,29,75,1,0,0,response1disk,,7,11,3,1,0,0,rectangle,11,3,1,0,0,11,3,1,0,0,1,140,300,129,1,,,,,,,,
,,,,,,,,,,,,,FF,,,,,,,,0.467,,,,,,,,,,,,,,,,,,,,,,60ff1ca8414d34df01312124,6103775e6d97b3a2a315b056,2021-07-29_23h05.52.363,Simcolourproject_2stim_asymm_v5,2020.2.10,Win32,60,61025ae37ef11b136ea224fe,,,,,,,,,542,39,82,1,0,0,response1disk,,7,8,-1,1,0,0,rectangle,8,-1,1,0,0,8,-1,1,0,0,1,141,301,69,1,,,,,,,,
