key_resp.keys,key_resp.rt,key_resp_14.keys,key_resp_14.rt,key_resp_15.keys,key_resp_15.rt,key_resp_17.keys,key_resp_17.rt,key_resp_9.keys,key_resp_9.rt,key_resp_10.keys,key_resp_10.rt,practice_comparison,Ecc,mouse_5.x,mouse_5.y,mouse_5.leftButton,mouse_5.midButton,mouse_5.rightButton,mouse_5.clicked_name,pracsimilarity,response_time,mouse_10.x,mouse_10.y,mouse_10.leftButton,mouse_10.midButton,mouse_10.rightButton,mouse_10.clicked_name,mouse_7.x,mouse_7.y,mouse_7.leftButton,mouse_7.midButton,mouse_7.rightButton,mouse_6.x,mouse_6.y,mouse_6.leftButton,mouse_6.midButton,mouse_6.rightButton,duringprac.thisRepN,duringprac.thisTrialN,duringprac.thisN,duringprac.thisIndex,duringprac.ran,participant,session,date,expName,psychopyVersion,OS,frameRate,study_id,mouse_7.clicked_name,catchpracsimilarity,catch_response_time,catchnumberprac,catchtrialorderprac,mouse_6.clicked_name,key_resp_22.keys,key_resp_22.rt,realcomparison,mouse.x,mouse.y,mouse.leftButton,mouse.midButton,mouse.rightButton,mouse.clicked_name,Colour2,similarity,mouse_2.x,mouse_2.y,mouse_2.leftButton,mouse_2.midButton,mouse_2.rightButton,mouse_2.clicked_name,mouse_3.x,mouse_3.y,mouse_3.leftButton,mouse_3.midButton,mouse_3.rightButton,mouse_11.x,mouse_11.y,mouse_11.leftButton,mouse_11.midButton,mouse_11.rightButton,trials_2.thisRepN,trials_2.thisTrialN,trials_2.thisN,trials_2.thisIndex,trials_2.ran,Colour1,mouse_3.clicked_name,catchornah,catchsimilarity,catchnumber,catchtrialorder,catchRT,mouse_11.clicked_name
space,0.9233,space,3.8405,space,21.6659,space,2.9325,space,0.7721,space,4.7827,125,PF,112.0000131,-37.600007,1,0,0,response3disk_5,5,6.2466,-21.19998887,10.39999372,1,0,0,rectangle_8,-21.19998887,10.39999372,1,0,0,-21.19998887,10.39999372,1,0,0,0,0,0,4,1,60ff6ff478334d71a1b1378b,61036c5466688e56b0721e84,2021-07-29_23h11.48.480,Simcolourproject_2stim_asymm_v5,2020.2.10,Win32,60,61025ae37ef11b136ea224fe,,,,,,,,,,,,,,,,,,,,,,,,,,,,,,,,,,,,,,,,,,,,,,
,,,,,,,,,,,,23,FF,45.60006095,95.19997057,1,0,0,response1disk_5,7,5.4002,-1.59998858,-4.800006509,1,0,0,rectangle_8,-114.3999414,26.39999396,1,0,0,4.800011516,-14.40000665,1,0,0,0,1,1,3,1,60ff6ff478334d71a1b1378b,61036c5466688e56b0721e84,2021-07-29_23h11.48.480,Simcolourproject_2stim_asymm_v5,2020.2.10,Win32,60,61025ae37ef11b136ea224fe,response7disk_7,1,7.335,1,"[2,5]",rectangle_4,,,,,,,,,,,,,,,,,,,,,,,,,,,,,,,,,,,,,,,,
,,,,,,,,,,,,25,PF,-37.59998912,-70.80000749,1,0,0,response5disk_5,3,5.6488,2.800011486,6.399993658,1,0,0,rectangle_8,2.800011486,6.399993658,1,0,0,2.800011486,6.399993658,1,0,0,0,2,2,2,1,60ff6ff478334d71a1b1378b,61036c5466688e56b0721e84,2021-07-29_23h11.48.480,Simcolourproject_2stim_asymm_v5,2020.2.10,Win32,60,61025ae37ef11b136ea224fe,,,,,,,,,,,,,,,,,,,,,,,,,,,,,,,,,,,,,,,,,,,,,,
,,,,,,,,,,,,124,FF,104.000013,53.19996994,1,0,0,response1disk_5,6,4.2672,-10.39993988,10.79999372,1,0,0,rectangle_8,-10.39993988,10.79999372,1,0,0,-10.39993988,10.79999372,1,0,0,0,3,3,0,1,60ff6ff478334d71a1b1378b,61036c5466688e56b0721e84,2021-07-29_23h11.48.480,Simcolourproject_2stim_asymm_v5,2020.2.10,Win32,60,61025ae37ef11b136ea224fe,,,,,,,,,,,,,,,,,,,,,,,,,,,,,,,,,,,,,,,,,,,,,,
,,,,,,,,,,,,41,FF,-90.39994107,-58.80000731,1,0,0,response5disk_5,2,3.7162,29.60006071,4.799993634,1,0,0,rectangle_8,-89.19998989,50.79999432,1,0,0,2.40001148,-5.200006515,1,0,0,0,4,4,5,1,60ff6ff478334d71a1b1378b,61036c5466688e56b0721e84,2021-07-29_23h11.48.480,Simcolourproject_2stim_asymm_v5,2020.2.10,Win32,60,61025ae37ef11b136ea224fe,response7disk_7,1,2.0666,1,"[2,5]",rectangle_4,,,,,,,,,,,,,,,,,,,,,,,,,,,,,,,,,,,,,,,,
,,,,,,,,,,,,48,PF,21.20001176,-88.00000775,1,0,0,response3disk_5,4,5.0999,5.600060356,-0.800006449,1,0,0,rectangle_8,5.600060356,-0.800006449,1,0,0,5.600060356,-0.800006449,1,0,0,0,5,5,1,1,60ff6ff478334d71a1b1378b,61036c5466688e56b0721e84,2021-07-29_23h11.48.480,Simcolourproject_2stim_asymm_v5,2020.2.10,Win32,60,61025ae37ef11b136ea224fe,,,,,,,,,,,,,,,,,,,,,,,,,,,,,,,,,,,,,,,,,,,,,,
,,,,,,,,,,,,43,PF,-60.39994063,112.3999952,1,0,0,response7disk_5,0,3.5305,18.00001171,-4.800006509,1,0,0,rectangle_8,18.00001171,-4.800006509,1,0,0,18.00001171,-4.800006509,1,0,0,0,6,6,6,1,60ff6ff478334d71a1b1378b,61036c5466688e56b0721e84,2021-07-29_23h11.48.480,Simcolourproject_2stim_asymm_v5,2020.2.10,Win32,60,61025ae37ef11b136ea224fe,,,,,,,,,,,,,,,,,,,,,,,,,,,,,,,,,,,,,,,,,,,,,,
,,,,,,,,,,,,,FF,,,,,,,,3.9996,,,,,,,,,,,,,,,,,,,,,,60ff6ff478334d71a1b1378b,61036c5466688e56b0721e84,2021-07-29_23h11.48.480,Simcolourproject_2stim_asymm_v5,2020.2.10,Win32,60,61025ae37ef11b136ea224fe,,,,,,,space,3.2471,4160,122.0000133,35.19996967,1,0,0,response1disk,,6,3.200011492,-3.600006491,1,0,0,rectangle,3.200011492,-3.600006491,1,0,0,3.200011492,-3.600006491,1,0,0,0,0,0,111,1,,,,,,,,
,,,,,,,,,,,,,FF,,,,,,,,2.868,,,,,,,,,,,,,,,,,,,,,,60ff6ff478334d71a1b1378b,61036c5466688e56b0721e84,2021-07-29_23h11.48.480,Simcolourproject_2stim_asymm_v5,2020.2.10,Win32,60,61025ae37ef11b136ea224fe,,,,,,,,,3651,116.8000132,40.79999417,1,0,0,response1disk,,6,-9.199988693,12.79999375,1,0,0,rectangle,-9.199988693,12.79999375,1,0,0,-9.199988693,12.79999375,1,0,0,0,1,1,134,1,,,,,,,,
,,,,,,,,,,,,,FF,,,,,,,,2.5178,,,,,,,,,,,,,,,,,,,,,,60ff6ff478334d71a1b1378b,61036c5466688e56b0721e84,2021-07-29_23h11.48.480,Simcolourproject_2stim_asymm_v5,2020.2.10,Win32,60,61025ae37ef11b136ea224fe,,,,,,,,,2309,-69.9999896,-104.000008,1,0,0,response5disk,,3,1.200011462,-7.200006545,1,0,0,rectangle,-77.59998971,-33.60000694,1,0,0,26.80001184,-0.800006449,1,0,0,0,2,2,104,1,,response5disk_3,TRUE,2,1,"[10,236,28,267,3,99,211,258,5,15,276,75,239,284,103,247,273,33,223,213]",2.758,rectangle
,,,,,,,,,,,,,FF,,,,,,,,1.7669,,,,,,,,,,,,,,,,,,,,,,60ff6ff478334d71a1b1378b,61036c5466688e56b0721e84,2021-07-29_23h11.48.480,Simcolourproject_2stim_asymm_v5,2020.2.10,Win32,60,61025ae37ef11b136ea224fe,,,,,,,,,3548,34.00001195,-93.20000783,1,0,0,response3disk,,4,3.600060326,0.399993569,1,0,0,rectangle,3.600060326,0.399993569,1,0,0,3.600060326,0.399993569,1,0,0,0,3,3,63,1,,,,,,,,
,,,,,,,,,,,,,FF,,,,,,,,6.8165,,,,,,,,,,,,,,,,,,,,,,60ff6ff478334d71a1b1378b,61036c5466688e56b0721e84,2021-07-29_23h11.48.480,Simcolourproject_2stim_asymm_v5,2020.2.10,Win32,60,61025ae37ef11b136ea224fe,,,,,,,,,3229,107.600013,-22.80000678,1,0,0,response3disk,,5,12.00001162,13.99999377,1,0,0,rectangle,52.40001222,-108.000008,1,0,0,-8.399939853,15.9999938,1,0,0,0,4,4,62,1,,response3disk_3,TRUE,4,4,"[10,236,28,267,3,99,211,258,5,15,276,75,239,284,103,247,273,33,223,213]",2.4665,rectangle
,,,,,,,,,,,,,FF,,,,,,,,1.9333,,,,,,,,,,,,,,,,,,,,,,60ff6ff478334d71a1b1378b,61036c5466688e56b0721e84,2021-07-29_23h11.48.480,Simcolourproject_2stim_asymm_v5,2020.2.10,Win32,60,61025ae37ef11b136ea224fe,,,,,,,,,3686,-101.9999901,-43.60000709,1,0,0,response5disk,,2,28.80001187,-1.200006455,1,0,0,rectangle,28.80001187,-1.200006455,1,0,0,28.80001187,-1.200006455,1,0,0,0,5,5,24,1,,,,,,,,
,,,,,,,,,,,,,FF,,,,,,,,3.0335,,,,,,,,,,,,,,,,,,,,,,60ff6ff478334d71a1b1378b,61036c5466688e56b0721e84,2021-07-29_23h11.48.480,Simcolourproject_2stim_asymm_v5,2020.2.10,Win32,60,61025ae37ef11b136ea224fe,,,,,,,,,3960,134.8000135,-69.60000747,1,0,0,response3disk,,5,6.800011545,15.5999938,1,0,0,rectangle,6.800011545,15.5999938,1,0,0,6.800011545,15.5999938,1,0,0,0,6,6,116,1,,,,,,,,
,,,,,,,,,,,,,FF,,,,,,,,1.1336,,,,,,,,,,,,,,,,,,,,,,60ff6ff478334d71a1b1378b,61036c5466688e56b0721e84,2021-07-29_23h11.48.480,Simcolourproject_2stim_asymm_v5,2020.2.10,Win32,60,61025ae37ef11b136ea224fe,,,,,,,,,3222,99.60001293,41.59999418,1,0,0,response1disk,,6,-14.79998878,-5.600006521,1,0,0,rectangle,-14.79998878,-5.600006521,1,0,0,-14.79998878,-5.600006521,1,0,0,0,7,7,75,1,,,,,,,,
,,,,,,,,,,,,,FF,,,,,,,,2.4335,,,,,,,,,,,,,,,,,,,,,,60ff6ff478334d71a1b1378b,61036c5466688e56b0721e84,2021-07-29_23h11.48.480,Simcolourproject_2stim_asymm_v5,2020.2.10,Win32,60,61025ae37ef11b136ea224fe,,,,,,,,,200,-103.9999901,57.19997,1,0,0,response7disk,,1,-11.19998872,-6.400006533,1,0,0,rectangle,-11.19998872,-6.400006533,1,0,0,-11.19998872,-6.400006533,1,0,0,0,8,8,99,1,,,,,,,,
,,,,,,,,,,,,,FF,,,,,,,,4.4007,,,,,,,,,,,,,,,,,,,,,,60ff6ff478334d71a1b1378b,61036c5466688e56b0721e84,2021-07-29_23h11.48.480,Simcolourproject_2stim_asymm_v5,2020.2.10,Win32,60,61025ae37ef11b136ea224fe,,,,,,,,,3526,-33.19998905,-104.400008,1,0,0,response5disk,,3,6.400011539,15.19999379,1,0,0,rectangle,-75.99998969,-45.20000711,1,0,0,-15.99998879,-3.600006491,1,0,0,0,9,9,28,1,,response5disk_3,TRUE,2,2,"[10,236,28,267,3,99,211,258,5,15,276,75,239,284,103,247,273,33,223,213]",1.9766,rectangle
,,,,,,,,,,,,,FF,,,,,,,,1.8494,,,,,,,,,,,,,,,,,,,,,,60ff6ff478334d71a1b1378b,61036c5466688e56b0721e84,2021-07-29_23h11.48.480,Simcolourproject_2stim_asymm_v5,2020.2.10,Win32,60,61025ae37ef11b136ea224fe,,,,,,,,,2764,108.8000131,87.99999487,1,0,0,response1disk,,6,22.80001178,3.19999361,1,0,0,rectangle,22.80001178,3.19999361,1,0,0,22.80001178,3.19999361,1,0,0,0,10,10,45,1,,,,,,,,
,,,,,,,,,,,,,FF,,,,,,,,3.4168,,,,,,,,,,,,,,,,,,,,,,60ff6ff478334d71a1b1378b,61036c5466688e56b0721e84,2021-07-29_23h11.48.480,Simcolourproject_2stim_asymm_v5,2020.2.10,Win32,60,61025ae37ef11b136ea224fe,,,,,,,,,2916,83.20001268,-67.20000744,1,0,0,response3disk,,5,-3.199988604,12.79999375,1,0,0,rectangle,-3.199988604,12.79999375,1,0,0,-3.199988604,12.79999375,1,0,0,0,11,11,150,1,,,,,,,,
,,,,,,,,,,,,,FF,,,,,,,,1.2914,,,,,,,,,,,,,,,,,,,,,,60ff6ff478334d71a1b1378b,61036c5466688e56b0721e84,2021-07-29_23h11.48.480,Simcolourproject_2stim_asymm_v5,2020.2.10,Win32,60,61025ae37ef11b136ea224fe,,,,,,,,,1676,-78.3999409,35.59999409,1,0,0,response7disk,,1,1.600060296,-6.000006527,1,0,0,rectangle,1.600060296,-6.000006527,1,0,0,1.600060296,-6.000006527,1,0,0,0,12,12,132,1,,,,,,,,
,,,,,,,,,,,,,FF,,,,,,,,1.8505,,,,,,,,,,,,,,,,,,,,,,60ff6ff478334d71a1b1378b,61036c5466688e56b0721e84,2021-07-29_23h11.48.480,Simcolourproject_2stim_asymm_v5,2020.2.10,Win32,60,61025ae37ef11b136ea224fe,,,,,,,,,2286,-56.39994057,-94.80000785,1,0,0,response5disk,,3,-9.199988693,9.599993706,1,0,0,rectangle,-9.199988693,9.599993706,1,0,0,-9.199988693,9.599993706,1,0,0,0,13,13,101,1,,,,,,,,
,,,,,,,,,,,,,FF,,,,,,,,1.2597,,,,,,,,,,,,,,,,,,,,,,60ff6ff478334d71a1b1378b,61036c5466688e56b0721e84,2021-07-29_23h11.48.480,Simcolourproject_2stim_asymm_v5,2020.2.10,Win32,60,61025ae37ef11b136ea224fe,,,,,,,,,3434,-87.19998986,62.39999449,1,0,0,response7disk,,1,14.40001166,-6.4373E-06,1,0,0,rectangle,24.80001181,-124.4000083,1,0,0,2.800011486,-10.8000066,1,0,0,0,14,14,114,1,,response3disk_3,TRUE,4,4,"[10,236,28,267,3,99,211,258,5,15,276,75,239,284,103,247,273,33,223,213]",2.0503,rectangle
,,,,,,,,,,,,,FF,,,,,,,,1.1004,,,,,,,,,,,,,,,,,,,,,,60ff6ff478334d71a1b1378b,61036c5466688e56b0721e84,2021-07-29_23h11.48.480,Simcolourproject_2stim_asymm_v5,2020.2.10,Win32,60,61025ae37ef11b136ea224fe,,,,,,,,,528,-76.39994087,38.79999414,1,0,0,response7disk,,1,2.000011474,1.599993587,1,0,0,rectangle,2.000011474,1.599993587,1,0,0,2.000011474,1.599993587,1,0,0,0,15,15,98,1,,,,,,,,
,,,,,,,,,,,,,FF,,,,,,,,1.2336,,,,,,,,,,,,,,,,,,,,,,60ff6ff478334d71a1b1378b,61036c5466688e56b0721e84,2021-07-29_23h11.48.480,Simcolourproject_2stim_asymm_v5,2020.2.10,Win32,60,61025ae37ef11b136ea224fe,,,,,,,,,3442,-63.5999895,-38.000007,1,0,0,response5disk,,2,14.00001165,1.599993587,1,0,0,rectangle,14.00001165,1.599993587,1,0,0,14.00001165,1.599993587,1,0,0,0,16,16,40,1,,,,,,,,
,,,,,,,,,,,,,FF,,,,,,,,1.6337,,,,,,,,,,,,,,,,,,,,,,60ff6ff478334d71a1b1378b,61036c5466688e56b0721e84,2021-07-29_23h11.48.480,Simcolourproject_2stim_asymm_v5,2020.2.10,Win32,60,61025ae37ef11b136ea224fe,,,,,,,,,1205,61.20001236,-105.6000568,1,0,0,response3disk,,4,4.40001151,3.599993616,1,0,0,rectangle,4.40001151,3.599993616,1,0,0,4.40001151,3.599993616,1,0,0,0,17,17,39,1,,,,,,,,
,,,,,,,,,,,,,FF,,,,,,,,1.167,,,,,,,,,,,,,,,,,,,,,,60ff6ff478334d71a1b1378b,61036c5466688e56b0721e84,2021-07-29_23h11.48.480,Simcolourproject_2stim_asymm_v5,2020.2.10,Win32,60,61025ae37ef11b136ea224fe,,,,,,,,,982,-47.19998926,-88.80000776,1,0,0,response5disk,,3,-14.39993994,-6.4373E-06,1,0,0,rectangle,-14.39993994,-6.4373E-06,1,0,0,-14.39993994,-6.4373E-06,1,0,0,0,18,18,89,1,,,,,,,,
,,,,,,,,,,,,,FF,,,,,,,,1.2834,,,,,,,,,,,,,,,,,,,,,,60ff6ff478334d71a1b1378b,61036c5466688e56b0721e84,2021-07-29_23h11.48.480,Simcolourproject_2stim_asymm_v5,2020.2.10,Win32,60,61025ae37ef11b136ea224fe,,,,,,,,,1923,112.4000131,-77.20000759,1,0,0,response3disk,,5,17.60006053,12.79999375,1,0,0,rectangle,17.60006053,12.79999375,1,0,0,17.60006053,12.79999375,1,0,0,0,19,19,13,1,,,,,,,,
,,,,,,,,,,,,,FF,,,,,,,,1.2004,,,,,,,,,,,,,,,,,,,,,,60ff6ff478334d71a1b1378b,61036c5466688e56b0721e84,2021-07-29_23h11.48.480,Simcolourproject_2stim_asymm_v5,2020.2.10,Win32,60,61025ae37ef11b136ea224fe,,,,,,,,,1655,111.6000131,47.19996985,1,0,0,response1disk,,6,22.40001178,8.399993688,1,0,0,rectangle,22.40001178,8.399993688,1,0,0,22.40001178,8.399993688,1,0,0,0,20,20,103,1,,,,,,,,
,,,,,,,,,,,,,FF,,,,,,,,1.2668,,,,,,,,,,,,,,,,,,,,,,60ff6ff478334d71a1b1378b,61036c5466688e56b0721e84,2021-07-29_23h11.48.480,Simcolourproject_2stim_asymm_v5,2020.2.10,Win32,60,61025ae37ef11b136ea224fe,,,,,,,,,3528,100.0000129,35.59999409,1,0,0,response1disk,,6,-7.999988675,12.79999375,1,0,0,rectangle,-7.999988675,12.79999375,1,0,0,-7.999988675,12.79999375,1,0,0,0,21,21,149,1,,,,,,,,
,,,,,,,,,,,,,FF,,,,,,,,4.3249,,,,,,,,,,,,,,,,,,,,,,60ff6ff478334d71a1b1378b,61036c5466688e56b0721e84,2021-07-29_23h11.48.480,Simcolourproject_2stim_asymm_v5,2020.2.10,Win32,60,61025ae37ef11b136ea224fe,,,,,,,,,135,116.8000132,67.19997015,1,0,0,response1disk,,6,-11.59998873,-7.600006551,1,0,0,rectangle,-11.59998873,-7.600006551,1,0,0,-11.59998873,-7.600006551,1,0,0,0,22,22,54,1,,,,,,,,
,,,,,,,,,,,,,FF,,,,,,,,1.1166,,,,,,,,,,,,,,,,,,,,,,60ff6ff478334d71a1b1378b,61036c5466688e56b0721e84,2021-07-29_23h11.48.480,Simcolourproject_2stim_asymm_v5,2020.2.10,Win32,60,61025ae37ef11b136ea224fe,,,,,,,,,849,49.60006101,124.3999954,1,0,0,response1disk,,7,1.600060296,-2.400006473,1,0,0,rectangle,1.600060296,-2.400006473,1,0,0,1.600060296,-2.400006473,1,0,0,0,23,23,159,1,,,,,,,,
,,,,,,,,,,,,,FF,,,,,,,,3.2341,,,,,,,,,,,,,,,,,,,,,,60ff6ff478334d71a1b1378b,61036c5466688e56b0721e84,2021-07-29_23h11.48.480,Simcolourproject_2stim_asymm_v5,2020.2.10,Win32,60,61025ae37ef11b136ea224fe,,,,,,,,,1668,118.0000132,48.39999428,1,0,0,response1disk,,6,-2.799988598,-5.600006521,1,0,0,rectangle,-2.799988598,-5.600006521,1,0,0,-2.799988598,-5.600006521,1,0,0,0,24,24,135,1,,,,,,,,
,,,,,,,,,,,,,FF,,,,,,,,1.1003,,,,,,,,,,,,,,,,,,,,,,60ff6ff478334d71a1b1378b,61036c5466688e56b0721e84,2021-07-29_23h11.48.480,Simcolourproject_2stim_asymm_v5,2020.2.10,Win32,60,61025ae37ef11b136ea224fe,,,,,,,,,2991,72.40001252,-34.40000695,1,0,0,response3disk,,5,18.80001172,3.999993622,1,0,0,rectangle,18.80001172,3.999993622,1,0,0,18.80001172,3.999993622,1,0,0,0,25,25,69,1,,,,,,,,
,,,,,,,,,,,,,FF,,,,,,,,1.4502,,,,,,,,,,,,,,,,,,,,,,60ff6ff478334d71a1b1378b,61036c5466688e56b0721e84,2021-07-29_23h11.48.480,Simcolourproject_2stim_asymm_v5,2020.2.10,Win32,60,61025ae37ef11b136ea224fe,,,,,,,,,1564,110.8000131,87.19997045,1,0,0,response1disk,,6,27.20001185,-4.800006509,1,0,0,rectangle,27.20001185,-4.800006509,1,0,0,27.20001185,-4.800006509,1,0,0,0,26,26,34,1,,,,,,,,
,,,,,,,,,,,,,FF,,,,,,,,3.4681,,,,,,,,,,,,,,,,,,,,,,60ff6ff478334d71a1b1378b,61036c5466688e56b0721e84,2021-07-29_23h11.48.480,Simcolourproject_2stim_asymm_v5,2020.2.10,Win32,60,61025ae37ef11b136ea224fe,,,,,,,,,3790,43.20001209,-67.20000744,1,0,0,response3disk,,4,9.200011581,-7.600006551,1,0,0,rectangle,56.00001228,-115.2000082,1,0,0,17.60006053,0.799993575,1,0,0,0,27,27,57,1,,response3disk_3,TRUE,4,4,"[10,236,28,267,3,99,211,258,5,15,276,75,239,284,103,247,273,33,223,213]",1.5166,rectangle
,,,,,,,,,,,,,FF,,,,,,,,4.4169,,,,,,,,,,,,,,,,,,,,,,60ff6ff478334d71a1b1378b,61036c5466688e56b0721e84,2021-07-29_23h11.48.480,Simcolourproject_2stim_asymm_v5,2020.2.10,Win32,60,61025ae37ef11b136ea224fe,,,,,,,,,1802,103.200013,-31.60000691,1,0,0,response3disk,,5,14.00001165,3.599993616,1,0,0,rectangle,14.00001165,3.599993616,1,0,0,14.00001165,3.599993616,1,0,0,0,28,28,30,1,,,,,,,,
,,,,,,,,,,,,,FF,,,,,,,,1.4992,,,,,,,,,,,,,,,,,,,,,,60ff6ff478334d71a1b1378b,61036c5466688e56b0721e84,2021-07-29_23h11.48.480,Simcolourproject_2stim_asymm_v5,2020.2.10,Win32,60,61025ae37ef11b136ea224fe,,,,,,,,,700,-61.59998947,-108.4000081,1,0,0,response5disk,,3,-13.99998876,17.19999382,1,0,0,rectangle,-13.99998876,17.19999382,1,0,0,-13.99998876,17.19999382,1,0,0,0,29,29,100,1,,,,,,,,
,,,,,,,,,,,,,FF,,,,,,,,1.5329,,,,,,,,,,,,,,,,,,,,,,60ff6ff478334d71a1b1378b,61036c5466688e56b0721e84,2021-07-29_23h11.48.480,Simcolourproject_2stim_asymm_v5,2020.2.10,Win32,60,61025ae37ef11b136ea224fe,,,,,,,,,649,28.40001187,-80.00000763,1,0,0,response3disk,,4,-3.59998861,13.19999376,1,0,0,rectangle,-3.59998861,13.19999376,1,0,0,-3.59998861,13.19999376,1,0,0,0,30,30,107,1,,,,,,,,
,,,,,,,,,,,,,FF,,,,,,,,2.0006,,,,,,,,,,,,,,,,,,,,,,60ff6ff478334d71a1b1378b,61036c5466688e56b0721e84,2021-07-29_23h11.48.480,Simcolourproject_2stim_asymm_v5,2020.2.10,Win32,60,61025ae37ef11b136ea224fe,,,,,,,,,3124,68.80001247,-50.80000719,1,0,0,response3disk,,5,22.40001178,-5.200006515,1,0,0,rectangle,22.40001178,-5.200006515,1,0,0,22.40001178,-5.200006515,1,0,0,0,31,31,80,1,,,,,,,,
,,,,,,,,,,,,,FF,,,,,,,,0.9338,,,,,,,,,,,,,,,,,,,,,,60ff6ff478334d71a1b1378b,61036c5466688e56b0721e84,2021-07-29_23h11.48.480,Simcolourproject_2stim_asymm_v5,2020.2.10,Win32,60,61025ae37ef11b136ea224fe,,,,,,,,,2094,-61.19998947,35.9999941,1,0,0,response7disk,,1,14.80001166,-9.60000658,1,0,0,rectangle,91.2000128,-56.00000727,1,0,0,20.00001174,-4.400006503,1,0,0,0,32,32,17,1,,response3disk_3,TRUE,5,5,"[10,236,28,267,3,99,211,258,5,15,276,75,239,284,103,247,273,33,223,213]",1.46,rectangle
,,,,,,,,,,,,,FF,,,,,,,,1.0173,,,,,,,,,,,,,,,,,,,,,,60ff6ff478334d71a1b1378b,61036c5466688e56b0721e84,2021-07-29_23h11.48.480,Simcolourproject_2stim_asymm_v5,2020.2.10,Win32,60,61025ae37ef11b136ea224fe,,,,,,,,,3428,-95.19998997,58.39999443,1,0,0,response7disk,,1,-16.39993997,5.19999364,1,0,0,rectangle,-16.39993997,5.19999364,1,0,0,-16.39993997,5.19999364,1,0,0,0,33,33,82,1,,,,,,,,
,,,,,,,,,,,,,FF,,,,,,,,2.4,,,,,,,,,,,,,,,,,,,,,,60ff6ff478334d71a1b1378b,61036c5466688e56b0721e84,2021-07-29_23h11.48.480,Simcolourproject_2stim_asymm_v5,2020.2.10,Win32,60,61025ae37ef11b136ea224fe,,,,,,,,,1045,99.60001293,-86.40000772,1,0,0,response3disk,,5,-5.199988633,4.799993634,1,0,0,rectangle,-5.199988633,4.799993634,1,0,0,-5.199988633,4.799993634,1,0,0,0,34,34,56,1,,,,,,,,
,,,,,,,,,,,,,FF,,,,,,,,1.3505,,,,,,,,,,,,,,,,,,,,,,60ff6ff478334d71a1b1378b,61036c5466688e56b0721e84,2021-07-29_23h11.48.480,Simcolourproject_2stim_asymm_v5,2020.2.10,Win32,60,61025ae37ef11b136ea224fe,,,,,,,,,1426,124.8000133,39.99999416,1,0,0,response1disk,,6,6.400011539,-2.000006467,1,0,0,rectangle,6.400011539,-2.000006467,1,0,0,6.400011539,-2.000006467,1,0,0,0,35,35,145,1,,,,,,,,
,,,,,,,,,,,,,FF,,,,,,,,1.0664,,,,,,,,,,,,,,,,,,,,,,60ff6ff478334d71a1b1378b,61036c5466688e56b0721e84,2021-07-29_23h11.48.480,Simcolourproject_2stim_asymm_v5,2020.2.10,Win32,60,61025ae37ef11b136ea224fe,,,,,,,,,2750,85.20001271,-36.00000697,1,0,0,response3disk,,5,13.60006047,4.399993628,1,0,0,rectangle,13.60006047,4.399993628,1,0,0,13.60006047,4.399993628,1,0,0,0,36,36,136,1,,,,,,,,
,,,,,,,,,,,,,FF,,,,,,,,1.8332,,,,,,,,,,,,,,,,,,,,,,60ff6ff478334d71a1b1378b,61036c5466688e56b0721e84,2021-07-29_23h11.48.480,Simcolourproject_2stim_asymm_v5,2020.2.10,Win32,60,61025ae37ef11b136ea224fe,,,,,,,,,990,-105.5999901,-52.40000722,1,0,0,response5disk,,2,-11.59998873,-9.200006574,1,0,0,rectangle,-11.59998873,-9.200006574,1,0,0,-11.59998873,-9.200006574,1,0,0,0,37,37,61,1,,,,,,,,
,,,,,,,,,,,,,FF,,,,,,,,2.0337,,,,,,,,,,,,,,,,,,,,,,60ff6ff478334d71a1b1378b,61036c5466688e56b0721e84,2021-07-29_23h11.48.480,Simcolourproject_2stim_asymm_v5,2020.2.10,Win32,60,61025ae37ef11b136ea224fe,,,,,,,,,1037,29.20001188,-90.00000778,1,0,0,response3disk,,4,4.000011504,9.1999937,1,0,0,rectangle,4.000011504,9.1999937,1,0,0,4.000011504,9.1999937,1,0,0,0,38,38,64,1,,,,,,,,
,,,,,,,,,,,,,FF,,,,,,,,3.867,,,,,,,,,,,,,,,,,,,,,,60ff6ff478334d71a1b1378b,61036c5466688e56b0721e84,2021-07-29_23h11.48.480,Simcolourproject_2stim_asymm_v5,2020.2.10,Win32,60,61025ae37ef11b136ea224fe,,,,,,,,,4355,-48.39994045,-90.40000778,1,0,0,response5disk,,3,3.600060326,9.1999937,1,0,0,rectangle,3.600060326,9.1999937,1,0,0,3.600060326,9.1999937,1,0,0,0,39,39,7,1,,,,,,,,
,,,,,,,,,,,,,FF,,,,,,,,3.384,,,,,,,,,,,,,,,,,,,,,,60ff6ff478334d71a1b1378b,61036c5466688e56b0721e84,2021-07-29_23h11.48.480,Simcolourproject_2stim_asymm_v5,2020.2.10,Win32,60,61025ae37ef11b136ea224fe,,,,,,,,,4086,90.00001279,-50.00000718,1,0,0,response3disk,,5,25.20001182,-9.60000658,1,0,0,rectangle,25.20001182,-9.60000658,1,0,0,25.20001182,-9.60000658,1,0,0,0,40,40,41,1,,,,,,,,
,,,,,,,,,,,,,FF,,,,,,,,1.5672,,,,,,,,,,,,,,,,,,,,,,60ff6ff478334d71a1b1378b,61036c5466688e56b0721e84,2021-07-29_23h11.48.480,Simcolourproject_2stim_asymm_v5,2020.2.10,Win32,60,61025ae37ef11b136ea224fe,,,,,,,,,2237,-93.19998994,-43.20000708,1,0,0,response5disk,,2,-18.79998884,-2.800006479,1,0,0,rectangle,-18.79998884,-2.800006479,1,0,0,-18.79998884,-2.800006479,1,0,0,0,41,41,79,1,,,,,,,,
,,,,,,,,,,,,,FF,,,,,,,,2.2666,,,,,,,,,,,,,,,,,,,,,,60ff6ff478334d71a1b1378b,61036c5466688e56b0721e84,2021-07-29_23h11.48.480,Simcolourproject_2stim_asymm_v5,2020.2.10,Win32,60,61025ae37ef11b136ea224fe,,,,,,,,,4332,-57.99998942,-33.20000693,1,0,0,response5disk,,2,-7.199988663,-4.000006497,1,0,0,rectangle,-7.199988663,-4.000006497,1,0,0,-7.199988663,-4.000006497,1,0,0,0,42,42,84,1,,,,,,,,
,,,,,,,,,,,,,FF,,,,,,,,4.1491,,,,,,,,,,,,,,,,,,,,,,60ff6ff478334d71a1b1378b,61036c5466688e56b0721e84,2021-07-29_23h11.48.480,Simcolourproject_2stim_asymm_v5,2020.2.10,Win32,60,61025ae37ef11b136ea224fe,,,,,,,,,2201,100.8000129,-44.8000071,1,0,0,response3disk,,5,-4.799988627,8.399993688,1,0,0,rectangle,-4.799988627,8.399993688,1,0,0,-4.799988627,8.399993688,1,0,0,0,43,43,66,1,,,,,,,,
,,,,,,,,,,,,,FF,,,,,,,,1.5502,,,,,,,,,,,,,,,,,,,,,,60ff6ff478334d71a1b1378b,61036c5466688e56b0721e84,2021-07-29_23h11.48.480,Simcolourproject_2stim_asymm_v5,2020.2.10,Win32,60,61025ae37ef11b136ea224fe,,,,,,,,,1727,116.8000132,-33.20000693,1,0,0,response3disk,,5,2.800011486,12.79999375,1,0,0,rectangle,2.800011486,12.79999375,1,0,0,2.800011486,12.79999375,1,0,0,0,44,44,133,1,,,,,,,,
,,,,,,,,,,,,,FF,,,,,,,,2.467,,,,,,,,,,,,,,,,,,,,,,60ff6ff478334d71a1b1378b,61036c5466688e56b0721e84,2021-07-29_23h11.48.480,Simcolourproject_2stim_asymm_v5,2020.2.10,Win32,60,61025ae37ef11b136ea224fe,,,,,,,,,4179,98.0000129,32.79999405,1,0,0,response1disk,,6,-24.79998893,13.19999376,1,0,0,rectangle,-24.79998893,13.19999376,1,0,0,-24.79998893,13.19999376,1,0,0,0,45,45,18,1,,,,,,,,
,,,,,,,,,,,,,FF,,,,,,,,1.6076,,,,,,,,,,,,,,,,,,,,,,60ff6ff478334d71a1b1378b,61036c5466688e56b0721e84,2021-07-29_23h11.48.480,Simcolourproject_2stim_asymm_v5,2020.2.10,Win32,60,61025ae37ef11b136ea224fe,,,,,,,,,2829,-56.39994057,-62.80000737,1,0,0,response5disk,,3,-13.19998875,-0.800006449,1,0,0,rectangle,-13.19998875,-0.800006449,1,0,0,-13.19998875,-0.800006449,1,0,0,0,46,46,2,1,,,,,,,,
,,,,,,,,,,,,,FF,,,,,,,,2.1666,,,,,,,,,,,,,,,,,,,,,,60ff6ff478334d71a1b1378b,61036c5466688e56b0721e84,2021-07-29_23h11.48.480,Simcolourproject_2stim_asymm_v5,2020.2.10,Win32,60,61025ae37ef11b136ea224fe,,,,,,,,,1327,18.00001171,-70.80000749,1,0,0,response3disk,,4,-5.999988645,-6.400006533,1,0,0,rectangle,-5.999988645,-6.400006533,1,0,0,-5.999988645,-6.400006533,1,0,0,0,47,47,90,1,,,,,,,,
,,,,,,,,,,,,,FF,,,,,,,,2.1915,,,,,,,,,,,,,,,,,,,,,,60ff6ff478334d71a1b1378b,61036c5466688e56b0721e84,2021-07-29_23h11.48.480,Simcolourproject_2stim_asymm_v5,2020.2.10,Win32,60,61025ae37ef11b136ea224fe,,,,,,,,,3572,84.0000127,-91.60005663,1,0,0,response3disk,,4,4.800011516,-7.200006545,1,0,0,rectangle,4.800011516,-7.200006545,1,0,0,4.800011516,-7.200006545,1,0,0,0,48,48,1,1,,,,,,,,
,,,,,,,,,,,,,FF,,,,,,,,1.4675,,,,,,,,,,,,,,,,,,,,,,60ff6ff478334d71a1b1378b,61036c5466688e56b0721e84,2021-07-29_23h11.48.480,Simcolourproject_2stim_asymm_v5,2020.2.10,Win32,60,61025ae37ef11b136ea224fe,,,,,,,,,4221,-101.9999901,49.5999943,1,0,0,response7disk,,1,36.00001198,-6.4373E-06,1,0,0,rectangle,36.00001198,-6.4373E-06,1,0,0,36.00001198,-6.4373E-06,1,0,0,0,49,49,70,1,,,,,,,,
,,,,,,,,,,,,,FF,,,,,,,,2.3754,,,,,,,,,,,,,,,,,,,,,,60ff6ff478334d71a1b1378b,61036c5466688e56b0721e84,2021-07-29_23h11.48.480,Simcolourproject_2stim_asymm_v5,2020.2.10,Win32,60,61025ae37ef11b136ea224fe,,,,,,,,,3276,85.60001272,-31.60000691,1,0,0,response3disk,,5,20.80001175,-5.600006521,1,0,0,rectangle,20.80001175,-5.600006521,1,0,0,20.80001175,-5.600006521,1,0,0,0,50,50,122,1,,,,,,,,
,,,,,,,,,,,,,FF,,,,,,,,2.6497,,,,,,,,,,,,,,,,,,,,,,60ff6ff478334d71a1b1378b,61036c5466688e56b0721e84,2021-07-29_23h11.48.480,Simcolourproject_2stim_asymm_v5,2020.2.10,Win32,60,61025ae37ef11b136ea224fe,,,,,,,,,302,41.20001206,-102.800008,1,0,0,response3disk,,4,-9.999988705,3.599993616,1,0,0,rectangle,-9.999988705,3.599993616,1,0,0,-9.999988705,3.599993616,1,0,0,0,51,51,81,1,,,,,,,,
,,,,,,,,,,,,,FF,,,,,,,,1.1835,,,,,,,,,,,,,,,,,,,,,,60ff6ff478334d71a1b1378b,61036c5466688e56b0721e84,2021-07-29_23h11.48.480,Simcolourproject_2stim_asymm_v5,2020.2.10,Win32,60,61025ae37ef11b136ea224fe,,,,,,,,,3320,93.20001283,-45.60000712,1,0,0,response3disk,,5,-4.799988627,-0.800006449,1,0,0,rectangle,-4.799988627,-0.800006449,1,0,0,-4.799988627,-0.800006449,1,0,0,0,52,52,35,1,,,,,,,,
,,,,,,,,,,,,,FF,,,,,,,,1.3001,,,,,,,,,,,,,,,,,,,,,,60ff6ff478334d71a1b1378b,61036c5466688e56b0721e84,2021-07-29_23h11.48.480,Simcolourproject_2stim_asymm_v5,2020.2.10,Win32,60,61025ae37ef11b136ea224fe,,,,,,,,,255,-102.7999901,-75.60000756,1,0,0,response5disk,,2,-8.799988687,3.999993622,1,0,0,rectangle,-8.799988687,3.999993622,1,0,0,-8.799988687,3.999993622,1,0,0,0,53,53,27,1,,,,,,,,
,,,,,,,,,,,,,FF,,,,,,,,1.6836,,,,,,,,,,,,,,,,,,,,,,60ff6ff478334d71a1b1378b,61036c5466688e56b0721e84,2021-07-29_23h11.48.480,Simcolourproject_2stim_asymm_v5,2020.2.10,Win32,60,61025ae37ef11b136ea224fe,,,,,,,,,2635,116.8000132,-52.00000721,1,0,0,response3disk,,5,-21.59998888,7.19999367,1,0,0,rectangle,-21.59998888,7.19999367,1,0,0,-21.59998888,7.19999367,1,0,0,0,54,54,95,1,,,,,,,,
,,,,,,,,,,,,,FF,,,,,,,,2.1336,,,,,,,,,,,,,,,,,,,,,,60ff6ff478334d71a1b1378b,61036c5466688e56b0721e84,2021-07-29_23h11.48.480,Simcolourproject_2stim_asymm_v5,2020.2.10,Win32,60,61025ae37ef11b136ea224fe,,,,,,,,,1030,-21.59998888,-91.60005663,1,0,0,response5disk,,3,3.200011492,-8.000006557,1,0,0,rectangle,3.200011492,-8.000006557,1,0,0,3.200011492,-8.000006557,1,0,0,0,55,55,146,1,,,,,,,,
,,,,,,,,,,,,,FF,,,,,,,,1.3996,,,,,,,,,,,,,,,,,,,,,,60ff6ff478334d71a1b1378b,61036c5466688e56b0721e84,2021-07-29_23h11.48.480,Simcolourproject_2stim_asymm_v5,2020.2.10,Win32,60,61025ae37ef11b136ea224fe,,,,,,,,,4230,90.40001279,-60.00000733,1,0,0,response3disk,,5,-0.799988568,-12.40000662,1,0,0,rectangle,-0.799988568,-12.40000662,1,0,0,-0.799988568,-12.40000662,1,0,0,0,56,56,26,1,,,,,,,,
,,,,,,,,,,,,,FF,,,,,,,,1.916,,,,,,,,,,,,,,,,,,,,,,60ff6ff478334d71a1b1378b,61036c5466688e56b0721e84,2021-07-29_23h11.48.480,Simcolourproject_2stim_asymm_v5,2020.2.10,Win32,60,61025ae37ef11b136ea224fe,,,,,,,,,4056,84.4000127,-58.80000731,1,0,0,response3disk,,5,15.6000605,-4.000006497,1,0,0,rectangle,15.6000605,-4.000006497,1,0,0,15.6000605,-4.000006497,1,0,0,0,57,57,141,1,,,,,,,,
,,,,,,,,,,,,,FF,,,,,,,,1.0502,,,,,,,,,,,,,,,,,,,,,,60ff6ff478334d71a1b1378b,61036c5466688e56b0721e84,2021-07-29_23h11.48.480,Simcolourproject_2stim_asymm_v5,2020.2.10,Win32,60,61025ae37ef11b136ea224fe,,,,,,,,,3608,34.40001196,-102.800008,1,0,0,response3disk,,4,-6.399939823,-14.40000665,1,0,0,rectangle,-6.399939823,-14.40000665,1,0,0,-6.399939823,-14.40000665,1,0,0,0,58,58,65,1,,,,,,,,
,,,,,,,,,,,,,FF,,,,,,,,1.783,,,,,,,,,,,,,,,,,,,,,,60ff6ff478334d71a1b1378b,61036c5466688e56b0721e84,2021-07-29_23h11.48.480,Simcolourproject_2stim_asymm_v5,2020.2.10,Win32,60,61025ae37ef11b136ea224fe,,,,,,,,,915,-130.7999905,-31.2000069,1,0,0,response5disk,,2,-14.39993994,7.599993676,1,0,0,rectangle,-14.39993994,7.599993676,1,0,0,-14.39993994,7.599993676,1,0,0,0,59,59,154,1,,,,,,,,
,,,,,,,,,,,,,FF,,,,,,,,1.2508,,,,,,,,,,,,,,,,,,,,,,60ff6ff478334d71a1b1378b,61036c5466688e56b0721e84,2021-07-29_23h11.48.480,Simcolourproject_2stim_asymm_v5,2020.2.10,Win32,60,61025ae37ef11b136ea224fe,,,,,,,,,1290,-44.39994039,125.5999954,1,0,0,response7disk,,0,1.14441E-05,-9.60000658,1,0,0,rectangle,1.14441E-05,-9.60000658,1,0,0,1.14441E-05,-9.60000658,1,0,0,0,60,60,108,1,,,,,,,,
,,,,,,,,,,,,,FF,,,,,,,,2.634,,,,,,,,,,,,,,,,,,,,,,60ff6ff478334d71a1b1378b,61036c5466688e56b0721e84,2021-07-29_23h11.48.480,Simcolourproject_2stim_asymm_v5,2020.2.10,Win32,60,61025ae37ef11b136ea224fe,,,,,,,,,1002,80.80001265,-50.80000719,1,0,0,response3disk,,5,12.40001163,-12.80000663,1,0,0,rectangle,12.40001163,-12.80000663,1,0,0,12.40001163,-12.80000663,1,0,0,0,61,61,15,1,,,,,,,,
,,,,,,,,,,,,,FF,,,,,,,,1.8554,,,,,,,,,,,,,,,,,,,,,,60ff6ff478334d71a1b1378b,61036c5466688e56b0721e84,2021-07-29_23h11.48.480,Simcolourproject_2stim_asymm_v5,2020.2.10,Win32,60,61025ae37ef11b136ea224fe,,,,,,,,,1569,72.00001252,35.59999409,1,0,0,response1disk,,6,4.40001151,-8.800006568,1,0,0,rectangle,4.40001151,-8.800006568,1,0,0,4.40001151,-8.800006568,1,0,0,0,62,62,156,1,,,,,,,,
,,,,,,,,,,,,,FF,,,,,,,,1.2668,,,,,,,,,,,,,,,,,,,,,,60ff6ff478334d71a1b1378b,61036c5466688e56b0721e84,2021-07-29_23h11.48.480,Simcolourproject_2stim_asymm_v5,2020.2.10,Win32,60,61025ae37ef11b136ea224fe,,,,,,,,,2310,-84.79998982,-63.20000738,1,0,0,response5disk,,2,-9.599988699,-13.60000664,1,0,0,rectangle,-9.599988699,-13.60000664,1,0,0,-9.599988699,-13.60000664,1,0,0,0,63,63,131,1,,,,,,,,
,,,,,,,,,,,,,FF,,,,,,,,1.7164,,,,,,,,,,,,,,,,,,,,,,60ff6ff478334d71a1b1378b,61036c5466688e56b0721e84,2021-07-29_23h11.48.480,Simcolourproject_2stim_asymm_v5,2020.2.10,Win32,60,61025ae37ef11b136ea224fe,,,,,,,,,1433,72.40001252,-86.40000772,1,0,0,response3disk,,4,20.40001175,1.599993587,1,0,0,rectangle,20.40001175,1.599993587,1,0,0,20.40001175,1.599993587,1,0,0,0,64,64,76,1,,,,,,,,
,,,,,,,,,,,,,FF,,,,,,,,1.0768,,,,,,,,,,,,,,,,,,,,,,60ff6ff478334d71a1b1378b,61036c5466688e56b0721e84,2021-07-29_23h11.48.480,Simcolourproject_2stim_asymm_v5,2020.2.10,Win32,60,61025ae37ef11b136ea224fe,,,,,,,,,981,-31.19998902,-87.60005657,1,0,0,response5disk,,3,8.000011563,2.399993598,1,0,0,rectangle,8.000011563,2.399993598,1,0,0,8.000011563,2.399993598,1,0,0,0,65,65,127,1,,,,,,,,
,,,,,,,,,,,,,FF,,,,,,,,1.2336,,,,,,,,,,,,,,,,,,,,,,60ff6ff478334d71a1b1378b,61036c5466688e56b0721e84,2021-07-29_23h11.48.480,Simcolourproject_2stim_asymm_v5,2020.2.10,Win32,60,61025ae37ef11b136ea224fe,,,,,,,,,3714,-121.5999904,-38.000007,1,0,0,response5disk,,2,-1.199988574,-1.200006455,1,0,0,rectangle,-1.199988574,-1.200006455,1,0,0,-1.199988574,-1.200006455,1,0,0,0,66,66,59,1,,,,,,,,
,,,,,,,,,,,,,FF,,,,,,,,1.0337,,,,,,,,,,,,,,,,,,,,,,60ff6ff478334d71a1b1378b,61036c5466688e56b0721e84,2021-07-29_23h11.48.480,Simcolourproject_2stim_asymm_v5,2020.2.10,Win32,60,61025ae37ef11b136ea224fe,,,,,,,,,3075,74.80001256,-23.60000679,1,0,0,response3disk,,5,23.20001179,-11.60000661,1,0,0,rectangle,23.20001179,-11.60000661,1,0,0,23.20001179,-11.60000661,1,0,0,0,67,67,68,1,,,,,,,,
,,,,,,,,,,,,,FF,,,,,,,,2.1665,,,,,,,,,,,,,,,,,,,,,,60ff6ff478334d71a1b1378b,61036c5466688e56b0721e84,2021-07-29_23h11.48.480,Simcolourproject_2stim_asymm_v5,2020.2.10,Win32,60,61025ae37ef11b136ea224fe,,,,,,,,,2562,36.00001198,-85.60005654,1,0,0,response3disk,,4,-2.799988598,-13.60000664,1,0,0,rectangle,-2.799988598,-13.60000664,1,0,0,-2.799988598,-13.60000664,1,0,0,0,68,68,91,1,,,,,,,,
,,,,,,,,,,,,,FF,,,,,,,,1.2833,,,,,,,,,,,,,,,,,,,,,,60ff6ff478334d71a1b1378b,61036c5466688e56b0721e84,2021-07-29_23h11.48.480,Simcolourproject_2stim_asymm_v5,2020.2.10,Win32,60,61025ae37ef11b136ea224fe,,,,,,,,,1960,-84.79998982,-55.20000726,1,0,0,response5disk,,2,11.60006045,1.999993593,1,0,0,rectangle,11.60006045,1.999993593,1,0,0,11.60006045,1.999993593,1,0,0,0,69,69,46,1,,,,,,,,
,,,,,,,,,,,,,FF,,,,,,,,1.3844,,,,,,,,,,,,,,,,,,,,,,60ff6ff478334d71a1b1378b,61036c5466688e56b0721e84,2021-07-29_23h11.48.480,Simcolourproject_2stim_asymm_v5,2020.2.10,Win32,60,61025ae37ef11b136ea224fe,,,,,,,,,4300,115.2000132,-56.80000728,1,0,0,response3disk,,5,-27.99998897,4.799993634,1,0,0,rectangle,-27.99998897,4.799993634,1,0,0,-27.99998897,4.799993634,1,0,0,0,70,70,126,1,,,,,,,,
,,,,,,,,,,,,,FF,,,,,,,,2.2841,,,,,,,,,,,,,,,,,,,,,,60ff6ff478334d71a1b1378b,61036c5466688e56b0721e84,2021-07-29_23h11.48.480,Simcolourproject_2stim_asymm_v5,2020.2.10,Win32,60,61025ae37ef11b136ea224fe,,,,,,,,,1972,-97.19999,-32.00000691,1,0,0,response5disk,,2,-21.99998888,8.799993694,1,0,0,rectangle,-21.99998888,8.799993694,1,0,0,-21.99998888,8.799993694,1,0,0,0,71,71,9,1,,,,,,,,
,,,,,,,,,,,,,FF,,,,,,,,1.7503,,,,,,,,,,,,,,,,,,,,,,60ff6ff478334d71a1b1378b,61036c5466688e56b0721e84,2021-07-29_23h11.48.480,Simcolourproject_2stim_asymm_v5,2020.2.10,Win32,60,61025ae37ef11b136ea224fe,,,,,,,,,566,32.00001192,-93.60005666,1,0,0,response3disk,,4,7.600060385,-10.40000659,1,0,0,rectangle,7.600060385,-10.40000659,1,0,0,7.600060385,-10.40000659,1,0,0,0,72,72,74,1,,,,,,,,
,,,,,,,,,,,,,FF,,,,,,,,2.3106,,,,,,,,,,,,,,,,,,,,,,60ff6ff478334d71a1b1378b,61036c5466688e56b0721e84,2021-07-29_23h11.48.480,Simcolourproject_2stim_asymm_v5,2020.2.10,Win32,60,61025ae37ef11b136ea224fe,,,,,,,,,2221,103.600013,19.19999385,1,0,0,response1disk,,6,21.60006059,5.19999364,1,0,0,rectangle,21.60006059,5.19999364,1,0,0,21.60006059,5.19999364,1,0,0,0,73,73,144,1,,,,,,,,
,,,,,,,,,,,,,FF,,,,,,,,1.1432,,,,,,,,,,,,,,,,,,,,,,60ff6ff478334d71a1b1378b,61036c5466688e56b0721e84,2021-07-29_23h11.48.480,Simcolourproject_2stim_asymm_v5,2020.2.10,Win32,60,61025ae37ef11b136ea224fe,,,,,,,,,221,74.00001255,-34.00000694,1,0,0,response3disk,,5,15.6000605,1.999993593,1,0,0,rectangle,-132.3999417,68.39999458,1,0,0,-8.399939853,9.599993706,1,0,0,0,74,74,86,1,,response7disk_3,TRUE,1,1,"[10,236,28,267,3,99,211,258,5,15,276,75,239,284,103,247,273,33,223,213]",2.4017,rectangle
,,,,,,,,,,,,,FF,,,,,,,,1.6005,,,,,,,,,,,,,,,,,,,,,,60ff6ff478334d71a1b1378b,61036c5466688e56b0721e84,2021-07-29_23h11.48.480,Simcolourproject_2stim_asymm_v5,2020.2.10,Win32,60,61025ae37ef11b136ea224fe,,,,,,,,,3892,120.4000132,112.7999952,1,0,0,response1disk,,6,0.800011456,-0.400006443,1,0,0,rectangle,0.800011456,-0.400006443,1,0,0,0.800011456,-0.400006443,1,0,0,0,75,75,77,1,,,,,,,,
,,,,,,,,,,,,,FF,,,,,,,,1.818,,,,,,,,,,,,,,,,,,,,,,60ff6ff478334d71a1b1378b,61036c5466688e56b0721e84,2021-07-29_23h11.48.480,Simcolourproject_2stim_asymm_v5,2020.2.10,Win32,60,61025ae37ef11b136ea224fe,,,,,,,,,979,36.00001198,-89.6000566,1,0,0,response3disk,,4,8.000011563,-11.2000066,1,0,0,rectangle,8.000011563,-11.2000066,1,0,0,8.000011563,-11.2000066,1,0,0,0,76,76,106,1,,,,,,,,
,,,,,,,,,,,,,FF,,,,,,,,2.4333,,,,,,,,,,,,,,,,,,,,,,60ff6ff478334d71a1b1378b,61036c5466688e56b0721e84,2021-07-29_23h11.48.480,Simcolourproject_2stim_asymm_v5,2020.2.10,Win32,60,61025ae37ef11b136ea224fe,,,,,,,,,1487,118.8000132,-46.80000713,1,0,0,response3disk,,5,-4.799988627,6.399993658,1,0,0,rectangle,-4.799988627,6.399993658,1,0,0,-4.799988627,6.399993658,1,0,0,0,77,77,147,1,,,,,,,,
,,,,,,,,,,,,,FF,,,,,,,,2.3169,,,,,,,,,,,,,,,,,,,,,,60ff6ff478334d71a1b1378b,61036c5466688e56b0721e84,2021-07-29_23h11.48.480,Simcolourproject_2stim_asymm_v5,2020.2.10,Win32,60,61025ae37ef11b136ea224fe,,,,,,,,,1475,55.60001227,-86.80000773,1,0,0,response3disk,,4,-11.99998873,-6.800006539,1,0,0,rectangle,-11.99998873,-6.800006539,1,0,0,-11.99998873,-6.800006539,1,0,0,0,78,78,93,1,,,,,,,,
,,,,,,,,,,,,,FF,,,,,,,,2.5397,,,,,,,,,,,,,,,,,,,,,,60ff6ff478334d71a1b1378b,61036c5466688e56b0721e84,2021-07-29_23h11.48.480,Simcolourproject_2stim_asymm_v5,2020.2.10,Win32,60,61025ae37ef11b136ea224fe,,,,,,,,,3806,-58.3999406,-100.8000079,1,0,0,response5disk,,3,-6.799988657,-5.600006521,1,0,0,rectangle,-6.799988657,-5.600006521,1,0,0,-6.799988657,-5.600006521,1,0,0,0,79,79,88,1,,,,,,,,
,,,,,,,,,,,,,FF,,,,,,,,0.8677,,,,,,,,,,,,,,,,,,,,,,60ff6ff478334d71a1b1378b,61036c5466688e56b0721e84,2021-07-29_23h11.48.480,Simcolourproject_2stim_asymm_v5,2020.2.10,Win32,60,61025ae37ef11b136ea224fe,,,,,,,,,1377,-106.7999901,-34.00000694,1,0,0,response5disk,,2,-3.199988604,-6.800006539,1,0,0,rectangle,-3.199988604,-6.800006539,1,0,0,-3.199988604,-6.800006539,1,0,0,0,80,80,123,1,,,,,,,,
,,,,,,,,,,,,,FF,,,,,,,,1.7675,,,,,,,,,,,,,,,,,,,,,,60ff6ff478334d71a1b1378b,61036c5466688e56b0721e84,2021-07-29_23h11.48.480,Simcolourproject_2stim_asymm_v5,2020.2.10,Win32,60,61025ae37ef11b136ea224fe,,,,,,,,,2152,100.8000129,-83.60005651,1,0,0,response3disk,,5,6.800011545,1.199993581,1,0,0,rectangle,6.800011545,1.199993581,1,0,0,6.800011545,1.199993581,1,0,0,0,81,81,105,1,,,,,,,,
,,,,,,,,,,,,,FF,,,,,,,,1.4008,,,,,,,,,,,,,,,,,,,,,,60ff6ff478334d71a1b1378b,61036c5466688e56b0721e84,2021-07-29_23h11.48.480,Simcolourproject_2stim_asymm_v5,2020.2.10,Win32,60,61025ae37ef11b136ea224fe,,,,,,,,,3238,-92.79998994,-26.80000684,1,0,0,response5disk,,2,-24.79998893,11.99999374,1,0,0,rectangle,-24.79998893,11.99999374,1,0,0,-24.79998893,11.99999374,1,0,0,0,82,82,37,1,,,,,,,,
,,,,,,,,,,,,,FF,,,,,,,,1.3665,,,,,,,,,,,,,,,,,,,,,,60ff6ff478334d71a1b1378b,61036c5466688e56b0721e84,2021-07-29_23h11.48.480,Simcolourproject_2stim_asymm_v5,2020.2.10,Win32,60,61025ae37ef11b136ea224fe,,,,,,,,,4114,47.60006098,-107.200008,1,0,0,response3disk,,4,2.000011474,8.399993688,1,0,0,rectangle,2.000011474,8.399993688,1,0,0,2.000011474,8.399993688,1,0,0,0,83,83,43,1,,,,,,,,
,,,,,,,,,,,,,FF,,,,,,,,1.2168,,,,,,,,,,,,,,,,,,,,,,60ff6ff478334d71a1b1378b,61036c5466688e56b0721e84,2021-07-29_23h11.48.480,Simcolourproject_2stim_asymm_v5,2020.2.10,Win32,60,61025ae37ef11b136ea224fe,,,,,,,,,1252,108.0000131,59.99999446,1,0,0,response1disk,,6,20.40001175,2.799993604,1,0,0,rectangle,20.40001175,2.799993604,1,0,0,20.40001175,2.799993604,1,0,0,0,84,84,48,1,,,,,,,,
,,,,,,,,,,,,,FF,,,,,,,,2.0342,,,,,,,,,,,,,,,,,,,,,,60ff6ff478334d71a1b1378b,61036c5466688e56b0721e84,2021-07-29_23h11.48.480,Simcolourproject_2stim_asymm_v5,2020.2.10,Win32,60,61025ae37ef11b136ea224fe,,,,,,,,,3704,-79.99998975,-63.20000738,1,0,0,response5disk,,2,1.600060296,16.79999381,1,0,0,rectangle,1.600060296,16.79999381,1,0,0,1.600060296,16.79999381,1,0,0,0,85,85,129,1,,,,,,,,
,,,,,,,,,,,,,FF,,,,,,,,1.5337,,,,,,,,,,,,,,,,,,,,,,60ff6ff478334d71a1b1378b,61036c5466688e56b0721e84,2021-07-29_23h11.48.480,Simcolourproject_2stim_asymm_v5,2020.2.10,Win32,60,61025ae37ef11b136ea224fe,,,,,,,,,4118,-49.19998929,114.7999953,1,0,0,response7disk,,0,5.200011522,12.79999375,1,0,0,rectangle,5.200011522,12.79999375,1,0,0,5.200011522,12.79999375,1,0,0,0,86,86,94,1,,,,,,,,
,,,,,,,,,,,,,FF,,,,,,,,1.884,,,,,,,,,,,,,,,,,,,,,,60ff6ff478334d71a1b1378b,61036c5466688e56b0721e84,2021-07-29_23h11.48.480,Simcolourproject_2stim_asymm_v5,2020.2.10,Win32,60,61025ae37ef11b136ea224fe,,,,,,,,,2636,124.0000133,37.1999697,1,0,0,response1disk,,6,13.20001164,-13.20000663,1,0,0,rectangle,13.20001164,-13.20000663,1,0,0,13.20001164,-13.20000663,1,0,0,0,87,87,148,1,,,,,,,,
,,,,,,,,,,,,,FF,,,,,,,,1.1669,,,,,,,,,,,,,,,,,,,,,,60ff6ff478334d71a1b1378b,61036c5466688e56b0721e84,2021-07-29_23h11.48.480,Simcolourproject_2stim_asymm_v5,2020.2.10,Win32,60,61025ae37ef11b136ea224fe,,,,,,,,,3148,-93.99998996,23.59999391,1,0,0,response7disk,,1,-6.399939823,0.399993569,1,0,0,rectangle,-6.399939823,0.399993569,1,0,0,-6.399939823,0.399993569,1,0,0,0,88,88,44,1,,,,,,,,
,,,,,,,,,,,,,FF,,,,,,,,1.1181,,,,,,,,,,,,,,,,,,,,,,60ff6ff478334d71a1b1378b,61036c5466688e56b0721e84,2021-07-29_23h11.48.480,Simcolourproject_2stim_asymm_v5,2020.2.10,Win32,60,61025ae37ef11b136ea224fe,,,,,,,,,1411,52.40001222,112.7999952,1,0,0,response1disk,,7,13.20001164,9.1999937,1,0,0,rectangle,13.20001164,9.1999937,1,0,0,13.20001164,9.1999937,1,0,0,0,89,89,113,1,,,,,,,,
,,,,,,,,,,,,,FF,,,,,,,,2.0668,,,,,,,,,,,,,,,,,,,,,,60ff6ff478334d71a1b1378b,61036c5466688e56b0721e84,2021-07-29_23h11.48.480,Simcolourproject_2stim_asymm_v5,2020.2.10,Win32,60,61025ae37ef11b136ea224fe,,,,,,,,,1948,-49.9999893,-70.80000749,1,0,0,response5disk,,3,-8.799988687,-4.000006497,1,0,0,rectangle,-8.799988687,-4.000006497,1,0,0,-8.799988687,-4.000006497,1,0,0,0,90,90,23,1,,,,,,,,
,,,,,,,,,,,,,FF,,,,,,,,1.35,,,,,,,,,,,,,,,,,,,,,,60ff6ff478334d71a1b1378b,61036c5466688e56b0721e84,2021-07-29_23h11.48.480,Simcolourproject_2stim_asymm_v5,2020.2.10,Win32,60,61025ae37ef11b136ea224fe,,,,,,,,,2066,66.80001244,90.39999491,1,0,0,response1disk,,7,11.60006045,8.799993694,1,0,0,rectangle,11.60006045,8.799993694,1,0,0,11.60006045,8.799993694,1,0,0,0,91,91,118,1,,,,,,,,
,,,,,,,,,,,,,FF,,,,,,,,4.7503,,,,,,,,,,,,,,,,,,,,,,60ff6ff478334d71a1b1378b,61036c5466688e56b0721e84,2021-07-29_23h11.48.480,Simcolourproject_2stim_asymm_v5,2020.2.10,Win32,60,61025ae37ef11b136ea224fe,,,,,,,,,331,56.40001228,-34.00000694,1,0,0,response3disk,,5,-7.199988663,-7.200006545,1,0,0,rectangle,-7.199988663,-7.200006545,1,0,0,-7.199988663,-7.200006545,1,0,0,0,92,92,155,1,,,,,,,,
,,,,,,,,,,,,,FF,,,,,,,,2.1601,,,,,,,,,,,,,,,,,,,,,,60ff6ff478334d71a1b1378b,61036c5466688e56b0721e84,2021-07-29_23h11.48.480,Simcolourproject_2stim_asymm_v5,2020.2.10,Win32,60,61025ae37ef11b136ea224fe,,,,,,,,,4329,120.0000132,70.79999462,1,0,0,response1disk,,6,-6.399939823,-5.600006521,1,0,0,rectangle,-6.399939823,-5.600006521,1,0,0,-6.399939823,-5.600006521,1,0,0,0,93,93,3,1,,,,,,,,
,,,,,,,,,,,,,FF,,,,,,,,5.5336,,,,,,,,,,,,,,,,,,,,,,60ff6ff478334d71a1b1378b,61036c5466688e56b0721e84,2021-07-29_23h11.48.480,Simcolourproject_2stim_asymm_v5,2020.2.10,Win32,60,61025ae37ef11b136ea224fe,,,,,,,,,1155,86.00001273,-88.40000775,1,0,0,response3disk,,4,14.80001166,-6.800006539,1,0,0,rectangle,14.80001166,-6.800006539,1,0,0,14.80001166,-6.800006539,1,0,0,0,94,94,16,1,,,,,,,,
,,,,,,,,,,,,,FF,,,,,,,,3.3835,,,,,,,,,,,,,,,,,,,,,,60ff6ff478334d71a1b1378b,61036c5466688e56b0721e84,2021-07-29_23h11.48.480,Simcolourproject_2stim_asymm_v5,2020.2.10,Win32,60,61025ae37ef11b136ea224fe,,,,,,,,,2795,54.40001225,-78.0000076,1,0,0,response3disk,,4,6.400011539,-4.000006497,1,0,0,rectangle,6.400011539,-4.000006497,1,0,0,6.400011539,-4.000006497,1,0,0,0,95,95,157,1,,,,,,,,
,,,,,,,,,,,,,FF,,,,,,,,1.584,,,,,,,,,,,,,,,,,,,,,,60ff6ff478334d71a1b1378b,61036c5466688e56b0721e84,2021-07-29_23h11.48.480,Simcolourproject_2stim_asymm_v5,2020.2.10,Win32,60,61025ae37ef11b136ea224fe,,,,,,,,,10,90.8000128,-61.20000735,1,0,0,response3disk,,5,-3.59998861,14.39999378,1,0,0,rectangle,-3.59998861,14.39999378,1,0,0,-3.59998861,14.39999378,1,0,0,0,96,96,109,1,,,,,,,,
,,,,,,,,,,,,,FF,,,,,,,,1.7672,,,,,,,,,,,,,,,,,,,,,,60ff6ff478334d71a1b1378b,61036c5466688e56b0721e84,2021-07-29_23h11.48.480,Simcolourproject_2stim_asymm_v5,2020.2.10,Win32,60,61025ae37ef11b136ea224fe,,,,,,,,,2748,88.00001276,51.59999433,1,0,0,response1disk,,6,-11.59998873,-11.2000066,1,0,0,rectangle,-11.59998873,-11.2000066,1,0,0,-11.59998873,-11.2000066,1,0,0,0,97,97,97,1,,,,,,,,
,,,,,,,,,,,,,FF,,,,,,,,1.1938,,,,,,,,,,,,,,,,,,,,,,60ff6ff478334d71a1b1378b,61036c5466688e56b0721e84,2021-07-29_23h11.48.480,Simcolourproject_2stim_asymm_v5,2020.2.10,Win32,60,61025ae37ef11b136ea224fe,,,,,,,,,3969,-109.1999902,-64.8000074,1,0,0,response5disk,,2,-3.199988604,9.999993712,1,0,0,rectangle,46.00001213,86.39999485,1,0,0,25.60006065,15.5999938,1,0,0,0,98,98,92,1,,response1disk_3,TRUE,7,7,"[10,236,28,267,3,99,211,258,5,15,276,75,239,284,103,247,273,33,223,213]",1.7344,rectangle
,,,,,,,,,,,,,FF,,,,,,,,2.1498,,,,,,,,,,,,,,,,,,,,,,60ff6ff478334d71a1b1378b,61036c5466688e56b0721e84,2021-07-29_23h11.48.480,Simcolourproject_2stim_asymm_v5,2020.2.10,Win32,60,61025ae37ef11b136ea224fe,,,,,,,,,3520,-105.9999901,47.99999428,1,0,0,response7disk,,1,-11.99998873,-0.400006443,1,0,0,rectangle,-11.99998873,-0.400006443,1,0,0,-11.99998873,-0.400006443,1,0,0,0,99,99,36,1,,,,,,,,
,,,,,,,,,,,,,FF,,,,,,,,1.4173,,,,,,,,,,,,,,,,,,,,,,60ff6ff478334d71a1b1378b,61036c5466688e56b0721e84,2021-07-29_23h11.48.480,Simcolourproject_2stim_asymm_v5,2020.2.10,Win32,60,61025ae37ef11b136ea224fe,,,,,,,,,1173,87.20001274,-23.20000678,1,0,0,response3disk,,5,27.60006068,-2.000006467,1,0,0,rectangle,27.60006068,-2.000006467,1,0,0,27.60006068,-2.000006467,1,0,0,0,100,100,140,1,,,,,,,,
,,,,,,,,,,,,,FF,,,,,,,,1.0421,,,,,,,,,,,,,,,,,,,,,,60ff6ff478334d71a1b1378b,61036c5466688e56b0721e84,2021-07-29_23h11.48.480,Simcolourproject_2stim_asymm_v5,2020.2.10,Win32,60,61025ae37ef11b136ea224fe,,,,,,,,,3264,37.60006083,-98.80000791,1,0,0,response3disk,,4,5.600060356,-10.40000659,1,0,0,rectangle,5.600060356,-10.40000659,1,0,0,5.600060356,-10.40000659,1,0,0,0,101,101,60,1,,,,,,,,
,,,,,,,,,,,,,FF,,,,,,,,2.6331,,,,,,,,,,,,,,,,,,,,,,60ff6ff478334d71a1b1378b,61036c5466688e56b0721e84,2021-07-29_23h11.48.480,Simcolourproject_2stim_asymm_v5,2020.2.10,Win32,60,61025ae37ef11b136ea224fe,,,,,,,,,2969,117.6000132,61.19997006,1,0,0,response1disk,,6,14.40001166,-10.8000066,1,0,0,rectangle,-97.19999,46.39999425,1,0,0,28.00001186,4.399993628,1,0,0,0,102,102,58,1,,response7disk_3,TRUE,1,1,"[10,236,28,267,3,99,211,258,5,15,276,75,239,284,103,247,273,33,223,213]",2.2669,rectangle
,,,,,,,,,,,,,FF,,,,,,,,1.2839,,,,,,,,,,,,,,,,,,,,,,60ff6ff478334d71a1b1378b,61036c5466688e56b0721e84,2021-07-29_23h11.48.480,Simcolourproject_2stim_asymm_v5,2020.2.10,Win32,60,61025ae37ef11b136ea224fe,,,,,,,,,2199,48.40001217,90.79999492,1,0,0,response1disk,,7,-8.799988687,-11.60000661,1,0,0,rectangle,-8.799988687,-11.60000661,1,0,0,-8.799988687,-11.60000661,1,0,0,0,103,103,137,1,,,,,,,,
,,,,,,,,,,,,,FF,,,,,,,,1.4421,,,,,,,,,,,,,,,,,,,,,,60ff6ff478334d71a1b1378b,61036c5466688e56b0721e84,2021-07-29_23h11.48.480,Simcolourproject_2stim_asymm_v5,2020.2.10,Win32,60,61025ae37ef11b136ea224fe,,,,,,,,,1800,120.0000132,-50.40000719,1,0,0,response3disk,,5,-17.59998882,6.399993658,1,0,0,rectangle,-17.59998882,6.399993658,1,0,0,-17.59998882,6.399993658,1,0,0,0,104,104,143,1,,,,,,,,
,,,,,,,,,,,,,FF,,,,,,,,2.7336,,,,,,,,,,,,,,,,,,,,,,60ff6ff478334d71a1b1378b,61036c5466688e56b0721e84,2021-07-29_23h11.48.480,Simcolourproject_2stim_asymm_v5,2020.2.10,Win32,60,61025ae37ef11b136ea224fe,,,,,,,,,1845,41.60006089,-109.6000569,1,0,0,response3disk,,4,-7.599988669,0.799993575,1,0,0,rectangle,-7.599988669,0.799993575,1,0,0,-7.599988669,0.799993575,1,0,0,0,105,105,31,1,,,,,,,,
,,,,,,,,,,,,,FF,,,,,,,,1.2505,,,,,,,,,,,,,,,,,,,,,,60ff6ff478334d71a1b1378b,61036c5466688e56b0721e84,2021-07-29_23h11.48.480,Simcolourproject_2stim_asymm_v5,2020.2.10,Win32,60,61025ae37ef11b136ea224fe,,,,,,,,,389,111.6000131,70.79999462,1,0,0,response1disk,,6,7.200011551,-12.40000662,1,0,0,rectangle,7.200011551,-12.40000662,1,0,0,7.200011551,-12.40000662,1,0,0,0,106,106,21,1,,,,,,,,
,,,,,,,,,,,,,FF,,,,,,,,1.0828,,,,,,,,,,,,,,,,,,,,,,60ff6ff478334d71a1b1378b,61036c5466688e56b0721e84,2021-07-29_23h11.48.480,Simcolourproject_2stim_asymm_v5,2020.2.10,Win32,60,61025ae37ef11b136ea224fe,,,,,,,,,90,-49.5999893,-102.000008,1,0,0,response5disk,,3,9.200011581,3.599993616,1,0,0,rectangle,9.200011581,3.599993616,1,0,0,9.200011581,3.599993616,1,0,0,0,107,107,110,1,,,,,,,,
,,,,,,,,,,,,,FF,,,,,,,,0.9676,,,,,,,,,,,,,,,,,,,,,,60ff6ff478334d71a1b1378b,61036c5466688e56b0721e84,2021-07-29_23h11.48.480,Simcolourproject_2stim_asymm_v5,2020.2.10,Win32,60,61025ae37ef11b136ea224fe,,,,,,,,,684,48.80001217,-80.40000764,1,0,0,response3disk,,4,8.000011563,-16.40000668,1,0,0,rectangle,8.000011563,-16.40000668,1,0,0,8.000011563,-16.40000668,1,0,0,0,108,108,38,1,,,,,,,,
,,,,,,,,,,,,,FF,,,,,,,,1.0339,,,,,,,,,,,,,,,,,,,,,,60ff6ff478334d71a1b1378b,61036c5466688e56b0721e84,2021-07-29_23h11.48.480,Simcolourproject_2stim_asymm_v5,2020.2.10,Win32,60,61025ae37ef11b136ea224fe,,,,,,,,,337,111.2000131,-29.20000687,1,0,0,response3disk,,5,11.20001161,-4.400006503,1,0,0,rectangle,11.20001161,-4.400006503,1,0,0,11.20001161,-4.400006503,1,0,0,0,109,109,120,1,,,,,,,,
,,,,,,,,,,,,,FF,,,,,,,,0.9834,,,,,,,,,,,,,,,,,,,,,,60ff6ff478334d71a1b1378b,61036c5466688e56b0721e84,2021-07-29_23h11.48.480,Simcolourproject_2stim_asymm_v5,2020.2.10,Win32,60,61025ae37ef11b136ea224fe,,,,,,,,,1826,-69.9999896,37.99999413,1,0,0,response7disk,,1,14.80001166,-2.400006473,1,0,0,rectangle,14.80001166,-2.400006473,1,0,0,14.80001166,-2.400006473,1,0,0,0,110,110,51,1,,,,,,,,
,,,,,,,,,,,,,FF,,,,,,,,1.1173,,,,,,,,,,,,,,,,,,,,,,60ff6ff478334d71a1b1378b,61036c5466688e56b0721e84,2021-07-29_23h11.48.480,Simcolourproject_2stim_asymm_v5,2020.2.10,Win32,60,61025ae37ef11b136ea224fe,,,,,,,,,1999,66.40001243,60.39999446,1,0,0,response1disk,,6,-11.59998873,1.199993581,1,0,0,rectangle,-11.59998873,1.199993581,1,0,0,-11.59998873,1.199993581,1,0,0,0,111,111,158,1,,,,,,,,
,,,,,,,,,,,,,FF,,,,,,,,2.2172,,,,,,,,,,,,,,,,,,,,,,60ff6ff478334d71a1b1378b,61036c5466688e56b0721e84,2021-07-29_23h11.48.480,Simcolourproject_2stim_asymm_v5,2020.2.10,Win32,60,61025ae37ef11b136ea224fe,,,,,,,,,818,-62.79998949,-111.6000569,1,0,0,response5disk,,3,9.200011581,9.599993706,1,0,0,rectangle,9.200011581,9.599993706,1,0,0,9.200011581,9.599993706,1,0,0,0,112,112,50,1,,,,,,,,
,,,,,,,,,,,,,FF,,,,,,,,0.9504,,,,,,,,,,,,,,,,,,,,,,60ff6ff478334d71a1b1378b,61036c5466688e56b0721e84,2021-07-29_23h11.48.480,Simcolourproject_2stim_asymm_v5,2020.2.10,Win32,60,61025ae37ef11b136ea224fe,,,,,,,,,1814,-99.19999003,-56.40000728,1,0,0,response5disk,,2,-9.999988705,2.399993598,1,0,0,rectangle,-9.999988705,2.399993598,1,0,0,-9.999988705,2.399993598,1,0,0,0,113,113,6,1,,,,,,,,
,,,,,,,,,,,,,FF,,,,,,,,1.3006,,,,,,,,,,,,,,,,,,,,,,60ff6ff478334d71a1b1378b,61036c5466688e56b0721e84,2021-07-29_23h11.48.480,Simcolourproject_2stim_asymm_v5,2020.2.10,Win32,60,61025ae37ef11b136ea224fe,,,,,,,,,3160,-71.19998962,-36.00000697,1,0,0,response5disk,,2,14.80001166,2.799993604,1,0,0,rectangle,14.80001166,2.799993604,1,0,0,14.80001166,2.799993604,1,0,0,0,114,114,4,1,,,,,,,,
,,,,,,,,,,,,,FF,,,,,,,,1.2835,,,,,,,,,,,,,,,,,,,,,,60ff6ff478334d71a1b1378b,61036c5466688e56b0721e84,2021-07-29_23h11.48.480,Simcolourproject_2stim_asymm_v5,2020.2.10,Win32,60,61025ae37ef11b136ea224fe,,,,,,,,,2391,74.40001255,129.1999711,1,0,0,response1disk,,7,-5.999988645,-3.200006485,1,0,0,rectangle,-5.999988645,-3.200006485,1,0,0,-5.999988645,-3.200006485,1,0,0,0,115,115,152,1,,,,,,,,
,,,,,,,,,,,,,FF,,,,,,,,1.75,,,,,,,,,,,,,,,,,,,,,,60ff6ff478334d71a1b1378b,61036c5466688e56b0721e84,2021-07-29_23h11.48.480,Simcolourproject_2stim_asymm_v5,2020.2.10,Win32,60,61025ae37ef11b136ea224fe,,,,,,,,,61,109.2000131,-33.20000693,1,0,0,response3disk,,5,28.80001187,-7.200006545,1,0,0,rectangle,28.80001187,-7.200006545,1,0,0,28.80001187,-7.200006545,1,0,0,0,116,116,49,1,,,,,,,,
,,,,,,,,,,,,,FF,,,,,,,,1.1835,,,,,,,,,,,,,,,,,,,,,,60ff6ff478334d71a1b1378b,61036c5466688e56b0721e84,2021-07-29_23h11.48.480,Simcolourproject_2stim_asymm_v5,2020.2.10,Win32,60,61025ae37ef11b136ea224fe,,,,,,,,,2265,136.0000135,78.39999473,1,0,0,response1disk,,6,-15.99998879,-14.00000665,1,0,0,rectangle,-15.99998879,-14.00000665,1,0,0,-15.99998879,-14.00000665,1,0,0,0,117,117,138,1,,,,,,,,
,,,,,,,,,,,,,FF,,,,,,,,2.741,,,,,,,,,,,,,,,,,,,,,,60ff6ff478334d71a1b1378b,61036c5466688e56b0721e84,2021-07-29_23h11.48.480,Simcolourproject_2stim_asymm_v5,2020.2.10,Win32,60,61025ae37ef11b136ea224fe,,,,,,,,,1715,132.0000134,-37.20000699,1,0,0,response3disk,,5,-2.399939764,0.399993569,1,0,0,rectangle,-2.399939764,0.399993569,1,0,0,-2.399939764,0.399993569,1,0,0,0,118,118,151,1,,,,,,,,
,,,,,,,,,,,,,FF,,,,,,,,1.8832,,,,,,,,,,,,,,,,,,,,,,60ff6ff478334d71a1b1378b,61036c5466688e56b0721e84,2021-07-29_23h11.48.480,Simcolourproject_2stim_asymm_v5,2020.2.10,Win32,60,61025ae37ef11b136ea224fe,,,,,,,,,1580,46.00001213,-85.20000771,1,0,0,response3disk,,4,-2.799988598,-7.600006551,1,0,0,rectangle,-2.799988598,-7.600006551,1,0,0,-2.799988598,-7.600006551,1,0,0,0,119,119,42,1,,,,,,,,
,,,,,,,,,,,,,FF,,,,,,,,1.4986,,,,,,,,,,,,,,,,,,,,,,60ff6ff478334d71a1b1378b,61036c5466688e56b0721e84,2021-07-29_23h11.48.480,Simcolourproject_2stim_asymm_v5,2020.2.10,Win32,60,61025ae37ef11b136ea224fe,,,,,,,,,707,-31.19998902,-83.20000768,1,0,0,response5disk,,3,2.000011474,-9.200006574,1,0,0,rectangle,2.000011474,-9.200006574,1,0,0,2.000011474,-9.200006574,1,0,0,0,120,120,73,1,,,,,,,,
,,,,,,,,,,,,,FF,,,,,,,,4.0154,,,,,,,,,,,,,,,,,,,,,,60ff6ff478334d71a1b1378b,61036c5466688e56b0721e84,2021-07-29_23h11.48.480,Simcolourproject_2stim_asymm_v5,2020.2.10,Win32,60,61025ae37ef11b136ea224fe,,,,,,,,,325,41.20001206,-75.60000756,1,0,0,response3disk,,4,5.600060356,-6.800006539,1,0,0,rectangle,5.600060356,-6.800006539,1,0,0,5.600060356,-6.800006539,1,0,0,0,121,121,85,1,,,,,,,,
,,,,,,,,,,,,,FF,,,,,,,,0.9667,,,,,,,,,,,,,,,,,,,,,,60ff6ff478334d71a1b1378b,61036c5466688e56b0721e84,2021-07-29_23h11.48.480,Simcolourproject_2stim_asymm_v5,2020.2.10,Win32,60,61025ae37ef11b136ea224fe,,,,,,,,,1117,-21.19998887,-48.40000716,1,0,0,response5disk,,3,7.200011551,17.19999382,1,0,0,rectangle,7.200011551,17.19999382,1,0,0,7.200011551,17.19999382,1,0,0,0,122,122,14,1,,,,,,,,
,,,,,,,,,,,,,FF,,,,,,,,1.2003,,,,,,,,,,,,,,,,,,,,,,60ff6ff478334d71a1b1378b,61036c5466688e56b0721e84,2021-07-29_23h11.48.480,Simcolourproject_2stim_asymm_v5,2020.2.10,Win32,60,61025ae37ef11b136ea224fe,,,,,,,,,713,-77.99998972,-41.60000706,1,0,0,response5disk,,2,-7.599988669,-6.4373E-06,1,0,0,rectangle,-7.599988669,-6.4373E-06,1,0,0,-7.599988669,-6.4373E-06,1,0,0,0,123,123,53,1,,,,,,,,
,,,,,,,,,,,,,FF,,,,,,,,2.184,,,,,,,,,,,,,,,,,,,,,,60ff6ff478334d71a1b1378b,61036c5466688e56b0721e84,2021-07-29_23h11.48.480,Simcolourproject_2stim_asymm_v5,2020.2.10,Win32,60,61025ae37ef11b136ea224fe,,,,,,,,,1354,95.60001287,-43.60000709,1,0,0,response3disk,,5,11.20001161,8.799993694,1,0,0,rectangle,11.20001161,8.799993694,1,0,0,11.20001161,8.799993694,1,0,0,0,124,124,29,1,,,,,,,,
,,,,,,,,,,,,,FF,,,,,,,,1.967,,,,,,,,,,,,,,,,,,,,,,60ff6ff478334d71a1b1378b,61036c5466688e56b0721e84,2021-07-29_23h11.48.480,Simcolourproject_2stim_asymm_v5,2020.2.10,Win32,60,61025ae37ef11b136ea224fe,,,,,,,,,3450,113.6000131,67.19997015,1,0,0,response1disk,,6,20.00001174,6.399993658,1,0,0,rectangle,20.00001174,6.399993658,1,0,0,20.00001174,6.399993658,1,0,0,0,125,125,55,1,,,,,,,,
,,,,,,,,,,,,,FF,,,,,,,,1.2838,,,,,,,,,,,,,,,,,,,,,,60ff6ff478334d71a1b1378b,61036c5466688e56b0721e84,2021-07-29_23h11.48.480,Simcolourproject_2stim_asymm_v5,2020.2.10,Win32,60,61025ae37ef11b136ea224fe,,,,,,,,,348,-103.5999901,49.19996988,1,0,0,response7disk,,1,11.60006045,-6.000006527,1,0,0,rectangle,11.60006045,-6.000006527,1,0,0,11.60006045,-6.000006527,1,0,0,0,126,126,78,1,,,,,,,,
,,,,,,,,,,,,,FF,,,,,,,,1.4673,,,,,,,,,,,,,,,,,,,,,,60ff6ff478334d71a1b1378b,61036c5466688e56b0721e84,2021-07-29_23h11.48.480,Simcolourproject_2stim_asymm_v5,2020.2.10,Win32,60,61025ae37ef11b136ea224fe,,,,,,,,,2462,104.400013,52.79999435,1,0,0,response1disk,,6,14.00001165,9.999993712,1,0,0,rectangle,14.00001165,9.999993712,1,0,0,14.00001165,9.999993712,1,0,0,0,127,127,153,1,,,,,,,,
,,,,,,,,,,,,,FF,,,,,,,,1.7335,,,,,,,,,,,,,,,,,,,,,,60ff6ff478334d71a1b1378b,61036c5466688e56b0721e84,2021-07-29_23h11.48.480,Simcolourproject_2stim_asymm_v5,2020.2.10,Win32,60,61025ae37ef11b136ea224fe,,,,,,,,,188,-110.3999414,-50.00000718,1,0,0,response5disk,,2,-19.59998885,3.999993622,1,0,0,rectangle,-19.59998885,3.999993622,1,0,0,-19.59998885,3.999993622,1,0,0,0,128,128,22,1,,,,,,,,
,,,,,,,,,,,,,FF,,,,,,,,4.4488,,,,,,,,,,,,,,,,,,,,,,60ff6ff478334d71a1b1378b,61036c5466688e56b0721e84,2021-07-29_23h11.48.480,Simcolourproject_2stim_asymm_v5,2020.2.10,Win32,60,61025ae37ef11b136ea224fe,,,,,,,,,183,-21.99998888,-89.6000566,1,0,0,response5disk,,3,5.600060356,-3.200006485,1,0,0,rectangle,5.600060356,-3.200006485,1,0,0,5.600060356,-3.200006485,1,0,0,0,129,129,33,1,,,,,,,,
,,,,,,,,,,,,,FF,,,,,,,,0.9665,,,,,,,,,,,,,,,,,,,,,,60ff6ff478334d71a1b1378b,61036c5466688e56b0721e84,2021-07-29_23h11.48.480,Simcolourproject_2stim_asymm_v5,2020.2.10,Win32,60,61025ae37ef11b136ea224fe,,,,,,,,,3153,-95.99998999,51.59999433,1,0,0,response7disk,,1,-4.399939793,15.9999938,1,0,0,rectangle,-4.399939793,15.9999938,1,0,0,-4.399939793,15.9999938,1,0,0,0,130,130,52,1,,,,,,,,
,,,,,,,,,,,,,FF,,,,,,,,1.0502,,,,,,,,,,,,,,,,,,,,,,60ff6ff478334d71a1b1378b,61036c5466688e56b0721e84,2021-07-29_23h11.48.480,Simcolourproject_2stim_asymm_v5,2020.2.10,Win32,60,61025ae37ef11b136ea224fe,,,,,,,,,2414,-89.59998989,-48.40000716,1,0,0,response5disk,,2,-15.59998879,3.19999361,1,0,0,rectangle,-15.59998879,3.19999361,1,0,0,-15.59998879,3.19999361,1,0,0,0,131,131,119,1,,,,,,,,
,,,,,,,,,,,,,FF,,,,,,,,1.1836,,,,,,,,,,,,,,,,,,,,,,60ff6ff478334d71a1b1378b,61036c5466688e56b0721e84,2021-07-29_23h11.48.480,Simcolourproject_2stim_asymm_v5,2020.2.10,Win32,60,61025ae37ef11b136ea224fe,,,,,,,,,1440,72.00001252,-66.40000743,1,0,0,response3disk,,5,-11.99998873,-2.000006467,1,0,0,rectangle,-11.99998873,-2.000006467,1,0,0,-11.99998873,-2.000006467,1,0,0,0,132,132,11,1,,,,,,,,
,,,,,,,,,,,,,FF,,,,,,,,1.0834,,,,,,,,,,,,,,,,,,,,,,60ff6ff478334d71a1b1378b,61036c5466688e56b0721e84,2021-07-29_23h11.48.480,Simcolourproject_2stim_asymm_v5,2020.2.10,Win32,60,61025ae37ef11b136ea224fe,,,,,,,,,549,-51.59998932,-81.60005648,1,0,0,response5disk,,3,-6.399939823,-6.400006533,1,0,0,rectangle,-6.399939823,-6.400006533,1,0,0,-6.399939823,-6.400006533,1,0,0,0,133,133,10,1,,,,,,,,
,,,,,,,,,,,,,FF,,,,,,,,1.6835,,,,,,,,,,,,,,,,,,,,,,60ff6ff478334d71a1b1378b,61036c5466688e56b0721e84,2021-07-29_23h11.48.480,Simcolourproject_2stim_asymm_v5,2020.2.10,Win32,60,61025ae37ef11b136ea224fe,,,,,,,,,933,106.400013,49.99999431,1,0,0,response1disk,,6,1.600060296,-8.400006562,1,0,0,rectangle,1.600060296,-8.400006562,1,0,0,1.600060296,-8.400006562,1,0,0,0,134,134,87,1,,,,,,,,
,,,,,,,,,,,,,FF,,,,,,,,2.233,,,,,,,,,,,,,,,,,,,,,,60ff6ff478334d71a1b1378b,61036c5466688e56b0721e84,2021-07-29_23h11.48.480,Simcolourproject_2stim_asymm_v5,2020.2.10,Win32,60,61025ae37ef11b136ea224fe,,,,,,,,,1428,99.60001293,68.39999458,1,0,0,response1disk,,6,-6.399939823,-3.200006485,1,0,0,rectangle,-6.399939823,-3.200006485,1,0,0,-6.399939823,-3.200006485,1,0,0,0,135,135,128,1,,,,,,,,
,,,,,,,,,,,,,FF,,,,,,,,2.3675,,,,,,,,,,,,,,,,,,,,,,60ff6ff478334d71a1b1378b,61036c5466688e56b0721e84,2021-07-29_23h11.48.480,Simcolourproject_2stim_asymm_v5,2020.2.10,Win32,60,61025ae37ef11b136ea224fe,,,,,,,,,3532,113.6000131,40.39999416,1,0,0,response1disk,,6,-2.399939764,15.9999938,1,0,0,rectangle,-2.399939764,15.9999938,1,0,0,-2.399939764,15.9999938,1,0,0,0,136,136,130,1,,,,,,,,
,,,,,,,,,,,,,FF,,,,,,,,1.7336,,,,,,,,,,,,,,,,,,,,,,60ff6ff478334d71a1b1378b,61036c5466688e56b0721e84,2021-07-29_23h11.48.480,Simcolourproject_2stim_asymm_v5,2020.2.10,Win32,60,61025ae37ef11b136ea224fe,,,,,,,,,843,94.00001284,59.19997003,1,0,0,response1disk,,6,32.00001192,-6.4373E-06,1,0,0,rectangle,32.00001192,-6.4373E-06,1,0,0,32.00001192,-6.4373E-06,1,0,0,0,137,137,117,1,,,,,,,,
,,,,,,,,,,,,,FF,,,,,,,,0.8995,,,,,,,,,,,,,,,,,,,,,,60ff6ff478334d71a1b1378b,61036c5466688e56b0721e84,2021-07-29_23h11.48.480,Simcolourproject_2stim_asymm_v5,2020.2.10,Win32,60,61025ae37ef11b136ea224fe,,,,,,,,,355,-111.9999902,-42.40000707,1,0,0,response5disk,,2,2.40001148,13.19999376,1,0,0,rectangle,2.40001148,13.19999376,1,0,0,2.40001148,13.19999376,1,0,0,0,138,138,19,1,,,,,,,,
,,,,,,,,,,,,,FF,,,,,,,,1.5839,,,,,,,,,,,,,,,,,,,,,,60ff6ff478334d71a1b1378b,61036c5466688e56b0721e84,2021-07-29_23h11.48.480,Simcolourproject_2stim_asymm_v5,2020.2.10,Win32,60,61025ae37ef11b136ea224fe,,,,,,,,,1933,110.0000131,-43.20000708,1,0,0,response3disk,,5,20.00001174,-0.400006443,1,0,0,rectangle,20.00001174,-0.400006443,1,0,0,20.00001174,-0.400006443,1,0,0,0,139,139,115,1,,,,,,,,
,,,,,,,,,,,,,FF,,,,,,,,1.1999,,,,,,,,,,,,,,,,,,,,,,60ff6ff478334d71a1b1378b,61036c5466688e56b0721e84,2021-07-29_23h11.48.480,Simcolourproject_2stim_asymm_v5,2020.2.10,Win32,60,61025ae37ef11b136ea224fe,,,,,,,,,543,-25.59998894,104.3999951,1,0,0,response7disk,,0,-2.799988598,15.19999379,1,0,0,rectangle,-2.799988598,15.19999379,1,0,0,-2.799988598,15.19999379,1,0,0,0,140,140,12,1,,,,,,,,
,,,,,,,,,,,,,FF,,,,,,,,1.6168,,,,,,,,,,,,,,,,,,,,,,60ff6ff478334d71a1b1378b,61036c5466688e56b0721e84,2021-07-29_23h11.48.480,Simcolourproject_2stim_asymm_v5,2020.2.10,Win32,60,61025ae37ef11b136ea224fe,,,,,,,,,2394,106.000013,-29.20000687,1,0,0,response3disk,,5,18.80001172,-10.00000659,1,0,0,rectangle,18.80001172,-10.00000659,1,0,0,18.80001172,-10.00000659,1,0,0,0,141,141,67,1,,,,,,,,
,,,,,,,,,,,,,FF,,,,,,,,1.1336,,,,,,,,,,,,,,,,,,,,,,60ff6ff478334d71a1b1378b,61036c5466688e56b0721e84,2021-07-29_23h11.48.480,Simcolourproject_2stim_asymm_v5,2020.2.10,Win32,60,61025ae37ef11b136ea224fe,,,,,,,,,873,-48.39994045,-79.20000762,1,0,0,response5disk,,3,4.800011516,-2.800006479,1,0,0,rectangle,4.800011516,-2.800006479,1,0,0,4.800011516,-2.800006479,1,0,0,0,142,142,20,1,,,,,,,,
,,,,,,,,,,,,,FF,,,,,,,,1.0497,,,,,,,,,,,,,,,,,,,,,,60ff6ff478334d71a1b1378b,61036c5466688e56b0721e84,2021-07-29_23h11.48.480,Simcolourproject_2stim_asymm_v5,2020.2.10,Win32,60,61025ae37ef11b136ea224fe,,,,,,,,,643,60.00001234,-100.4000079,1,0,0,response3disk,,4,11.20001161,-6.000006527,1,0,0,rectangle,11.20001161,-6.000006527,1,0,0,11.20001161,-6.000006527,1,0,0,0,143,143,25,1,,,,,,,,
,,,,,,,,,,,,,FF,,,,,,,,2.6333,,,,,,,,,,,,,,,,,,,,,,60ff6ff478334d71a1b1378b,61036c5466688e56b0721e84,2021-07-29_23h11.48.480,Simcolourproject_2stim_asymm_v5,2020.2.10,Win32,60,61025ae37ef11b136ea224fe,,,,,,,,,2441,94.80001286,-24.4000068,1,0,0,response3disk,,5,4.40001151,-6.400006533,1,0,0,rectangle,4.40001151,-6.400006533,1,0,0,4.40001151,-6.400006533,1,0,0,0,144,144,72,1,,,,,,,,
,,,,,,,,,,,,,FF,,,,,,,,0.9337,,,,,,,,,,,,,,,,,,,,,,60ff6ff478334d71a1b1378b,61036c5466688e56b0721e84,2021-07-29_23h11.48.480,Simcolourproject_2stim_asymm_v5,2020.2.10,Win32,60,61025ae37ef11b136ea224fe,,,,,,,,,2215,97.6000129,41.99999419,1,0,0,response1disk,,6,-6.799988657,-10.40000659,1,0,0,rectangle,-6.799988657,-10.40000659,1,0,0,-6.799988657,-10.40000659,1,0,0,0,145,145,5,1,,,,,,,,
,,,,,,,,,,,,,FF,,,,,,,,1.9327,,,,,,,,,,,,,,,,,,,,,,60ff6ff478334d71a1b1378b,61036c5466688e56b0721e84,2021-07-29_23h11.48.480,Simcolourproject_2stim_asymm_v5,2020.2.10,Win32,60,61025ae37ef11b136ea224fe,,,,,,,,,780,89.20001277,-33.20000693,1,0,0,response3disk,,5,28.80001187,-7.200006545,1,0,0,rectangle,28.80001187,-7.200006545,1,0,0,28.80001187,-7.200006545,1,0,0,0,146,146,112,1,,,,,,,,
,,,,,,,,,,,,,FF,,,,,,,,0.9513,,,,,,,,,,,,,,,,,,,,,,60ff6ff478334d71a1b1378b,61036c5466688e56b0721e84,2021-07-29_23h11.48.480,Simcolourproject_2stim_asymm_v5,2020.2.10,Win32,60,61025ae37ef11b136ea224fe,,,,,,,,,2574,42.00001207,-66.80000743,1,0,0,response3disk,,4,-2.399939764,-4.400006503,1,0,0,rectangle,-2.399939764,-4.400006503,1,0,0,-2.399939764,-4.400006503,1,0,0,0,147,147,139,1,,,,,,,,
,,,,,,,,,,,,,FF,,,,,,,,1.2594,,,,,,,,,,,,,,,,,,,,,,60ff6ff478334d71a1b1378b,61036c5466688e56b0721e84,2021-07-29_23h11.48.480,Simcolourproject_2stim_asymm_v5,2020.2.10,Win32,60,61025ae37ef11b136ea224fe,,,,,,,,,3342,-89.19998989,-34.00000694,1,0,0,response5disk,,2,-25.59998894,-0.800006449,1,0,0,rectangle,-25.59998894,-0.800006449,1,0,0,-25.59998894,-0.800006449,1,0,0,0,148,148,121,1,,,,,,,,
,,,,,,,,,,,,,FF,,,,,,,,1.15,,,,,,,,,,,,,,,,,,,,,,60ff6ff478334d71a1b1378b,61036c5466688e56b0721e84,2021-07-29_23h11.48.480,Simcolourproject_2stim_asymm_v5,2020.2.10,Win32,60,61025ae37ef11b136ea224fe,,,,,,,,,1353,127.2000133,-18.40000671,1,0,0,response3disk,,5,27.60006068,-7.200006545,1,0,0,rectangle,27.60006068,-7.200006545,1,0,0,27.60006068,-7.200006545,1,0,0,0,149,149,32,1,,,,,,,,
,,,,,,,,,,,,,FF,,,,,,,,1.3171,,,,,,,,,,,,,,,,,,,,,,60ff6ff478334d71a1b1378b,61036c5466688e56b0721e84,2021-07-29_23h11.48.480,Simcolourproject_2stim_asymm_v5,2020.2.10,Win32,60,61025ae37ef11b136ea224fe,,,,,,,,,3878,47.20001215,-115.2000082,1,0,0,response3disk,,4,-9.199988693,-0.400006443,1,0,0,rectangle,-9.199988693,-0.400006443,1,0,0,-9.199988693,-0.400006443,1,0,0,0,150,150,125,1,,,,,,,,
,,,,,,,,,,,,,FF,,,,,,,,1.217,,,,,,,,,,,,,,,,,,,,,,60ff6ff478334d71a1b1378b,61036c5466688e56b0721e84,2021-07-29_23h11.48.480,Simcolourproject_2stim_asymm_v5,2020.2.10,Win32,60,61025ae37ef11b136ea224fe,,,,,,,,,3663,-82.79998979,-52.80000722,1,0,0,response5disk,,2,-15.59998879,7.19999367,1,0,0,rectangle,-15.59998879,7.19999367,1,0,0,-15.59998879,7.19999367,1,0,0,0,151,151,96,1,,,,,,,,
,,,,,,,,,,,,,FF,,,,,,,,1.3829,,,,,,,,,,,,,,,,,,,,,,60ff6ff478334d71a1b1378b,61036c5466688e56b0721e84,2021-07-29_23h11.48.480,Simcolourproject_2stim_asymm_v5,2020.2.10,Win32,60,61025ae37ef11b136ea224fe,,,,,,,,,354,-95.19998997,-29.60000688,1,0,0,response5disk,,2,12.40001163,0.799993575,1,0,0,rectangle,12.40001163,0.799993575,1,0,0,12.40001163,0.799993575,1,0,0,0,152,152,0,1,,,,,,,,
,,,,,,,,,,,,,FF,,,,,,,,1.2003,,,,,,,,,,,,,,,,,,,,,,60ff6ff478334d71a1b1378b,61036c5466688e56b0721e84,2021-07-29_23h11.48.480,Simcolourproject_2stim_asymm_v5,2020.2.10,Win32,60,61025ae37ef11b136ea224fe,,,,,,,,,4264,21.60006059,-98.80000791,1,0,0,response3disk,,4,-22.39994006,-8.800006568,1,0,0,rectangle,-22.39994006,-8.800006568,1,0,0,-22.39994006,-8.800006568,1,0,0,0,153,153,83,1,,,,,,,,
,,,,,,,,,,,,,FF,,,,,,,,1.1689,,,,,,,,,,,,,,,,,,,,,,60ff6ff478334d71a1b1378b,61036c5466688e56b0721e84,2021-07-29_23h11.48.480,Simcolourproject_2stim_asymm_v5,2020.2.10,Win32,60,61025ae37ef11b136ea224fe,,,,,,,,,2098,-98.79999003,19.99999386,1,0,0,response7disk,,1,12.80001163,-4.400006503,1,0,0,rectangle,12.80001163,-4.400006503,1,0,0,12.80001163,-4.400006503,1,0,0,0,154,154,102,1,,,,,,,,
,,,,,,,,,,,,,FF,,,,,,,,3.15,,,,,,,,,,,,,,,,,,,,,,60ff6ff478334d71a1b1378b,61036c5466688e56b0721e84,2021-07-29_23h11.48.480,Simcolourproject_2stim_asymm_v5,2020.2.10,Win32,60,61025ae37ef11b136ea224fe,,,,,,,,,2119,30.00001189,-56.40000728,1,0,0,response3disk,,4,2.000011474,-10.40000659,1,0,0,rectangle,2.000011474,-10.40000659,1,0,0,2.000011474,-10.40000659,1,0,0,0,155,155,71,1,,,,,,,,
,,,,,,,,,,,,,FF,,,,,,,,0.9098,,,,,,,,,,,,,,,,,,,,,,60ff6ff478334d71a1b1378b,61036c5466688e56b0721e84,2021-07-29_23h11.48.480,Simcolourproject_2stim_asymm_v5,2020.2.10,Win32,60,61025ae37ef11b136ea224fe,,,,,,,,,2728,-70.79998961,-34.40000695,1,0,0,response5disk,,2,-11.59998873,-5.200006515,1,0,0,rectangle,-11.59998873,-5.200006515,1,0,0,-11.59998873,-5.200006515,1,0,0,0,156,156,142,1,,,,,,,,
,,,,,,,,,,,,,FF,,,,,,,,1.0005,,,,,,,,,,,,,,,,,,,,,,60ff6ff478334d71a1b1378b,61036c5466688e56b0721e84,2021-07-29_23h11.48.480,Simcolourproject_2stim_asymm_v5,2020.2.10,Win32,60,61025ae37ef11b136ea224fe,,,,,,,,,2002,123.6000133,-72.00000751,1,0,0,response3disk,,5,-12.79998875,10.79999372,1,0,0,rectangle,-12.79998875,10.79999372,1,0,0,-12.79998875,10.79999372,1,0,0,0,157,157,8,1,,,,,,,,
,,,,,,,,,,,,,FF,,,,,,,,0.9664,,,,,,,,,,,,,,,,,,,,,,60ff6ff478334d71a1b1378b,61036c5466688e56b0721e84,2021-07-29_23h11.48.480,Simcolourproject_2stim_asymm_v5,2020.2.10,Win32,60,61025ae37ef11b136ea224fe,,,,,,,,,3451,62.00001237,-108.000008,1,0,0,response3disk,,4,4.000011504,-11.60000661,1,0,0,rectangle,4.000011504,-11.60000661,1,0,0,4.000011504,-11.60000661,1,0,0,0,158,158,47,1,,,,,,,,
,,,,,,,,,,,,,FF,,,,,,,,1.4835,,,,,,,,,,,,,,,,,,,,,,60ff6ff478334d71a1b1378b,61036c5466688e56b0721e84,2021-07-29_23h11.48.480,Simcolourproject_2stim_asymm_v5,2020.2.10,Win32,60,61025ae37ef11b136ea224fe,,,,,,,,,3802,78.80001262,-54.00000724,1,0,0,response3disk,,5,11.60006045,-5.600006521,1,0,0,rectangle,11.60006045,-5.600006521,1,0,0,11.60006045,-5.600006521,1,0,0,0,159,159,124,1,,,,,,,,
,,,,,,,,,,,,,FF,,,,,,,,1.2007,,,,,,,,,,,,,,,,,,,,,,60ff6ff478334d71a1b1378b,61036c5466688e56b0721e84,2021-07-29_23h11.48.480,Simcolourproject_2stim_asymm_v5,2020.2.10,Win32,60,61025ae37ef11b136ea224fe,,,,,,,,,4160,35.20001197,-128.8000084,1,0,0,response3disk,,4,-21.59998888,7.19999367,1,0,0,rectangle,-21.59998888,7.19999367,1,0,0,-21.59998888,7.19999367,1,0,0,1,0,160,155,1,,,,,,,,
,,,,,,,,,,,,,FF,,,,,,,,1.5499,,,,,,,,,,,,,,,,,,,,,,60ff6ff478334d71a1b1378b,61036c5466688e56b0721e84,2021-07-29_23h11.48.480,Simcolourproject_2stim_asymm_v5,2020.2.10,Win32,60,61025ae37ef11b136ea224fe,,,,,,,,,3651,101.600013,27.99999398,1,0,0,response1disk,,6,28.00001186,-8.000006557,1,0,0,rectangle,28.00001186,-8.000006557,1,0,0,28.00001186,-8.000006557,1,0,0,1,1,161,59,1,,,,,,,,
,,,,,,,,,,,,,FF,,,,,,,,2.1166,,,,,,,,,,,,,,,,,,,,,,60ff6ff478334d71a1b1378b,61036c5466688e56b0721e84,2021-07-29_23h11.48.480,Simcolourproject_2stim_asymm_v5,2020.2.10,Win32,60,61025ae37ef11b136ea224fe,,,,,,,,,2309,22.80001178,-50.80000719,1,0,0,response3disk,,4,6.000011533,-9.200006574,1,0,0,rectangle,6.000011533,-9.200006574,1,0,0,6.000011533,-9.200006574,1,0,0,1,2,162,93,1,,,,,,,,
,,,,,,,,,,,,,FF,,,,,,,,1.1337,,,,,,,,,,,,,,,,,,,,,,60ff6ff478334d71a1b1378b,61036c5466688e56b0721e84,2021-07-29_23h11.48.480,Simcolourproject_2stim_asymm_v5,2020.2.10,Win32,60,61025ae37ef11b136ea224fe,,,,,,,,,3548,-91.59998992,-42.40000707,1,0,0,response5disk,,2,-20.39994003,-4.400006503,1,0,0,rectangle,-20.39994003,-4.400006503,1,0,0,-20.39994003,-4.400006503,1,0,0,1,3,163,3,1,,,,,,,,
,,,,,,,,,,,,,FF,,,,,,,,1.4668,,,,,,,,,,,,,,,,,,,,,,60ff6ff478334d71a1b1378b,61036c5466688e56b0721e84,2021-07-29_23h11.48.480,Simcolourproject_2stim_asymm_v5,2020.2.10,Win32,60,61025ae37ef11b136ea224fe,,,,,,,,,3229,60.80001235,-86.00000772,1,0,0,response3disk,,4,10.80001161,-16.00000668,1,0,0,rectangle,10.80001161,-16.00000668,1,0,0,10.80001161,-16.00000668,1,0,0,1,4,164,158,1,,,,,,,,
,,,,,,,,,,,,,FF,,,,,,,,1.0679,,,,,,,,,,,,,,,,,,,,,,60ff6ff478334d71a1b1378b,61036c5466688e56b0721e84,2021-07-29_23h11.48.480,Simcolourproject_2stim_asymm_v5,2020.2.10,Win32,60,61025ae37ef11b136ea224fe,,,,,,,,,3686,-30.39994018,-80.40000764,1,0,0,response5disk,,3,1.14441E-05,-9.200006574,1,0,0,rectangle,1.14441E-05,-9.200006574,1,0,0,1.14441E-05,-9.200006574,1,0,0,1,5,165,56,1,,,,,,,,
,,,,,,,,,,,,,FF,,,,,,,,1.6,,,,,,,,,,,,,,,,,,,,,,60ff6ff478334d71a1b1378b,61036c5466688e56b0721e84,2021-07-29_23h11.48.480,Simcolourproject_2stim_asymm_v5,2020.2.10,Win32,60,61025ae37ef11b136ea224fe,,,,,,,,,3960,120.0000132,-50.80000719,1,0,0,response3disk,,5,16.40001169,1.999993593,1,0,0,rectangle,16.40001169,1.999993593,1,0,0,16.40001169,1.999993593,1,0,0,1,6,166,78,1,,,,,,,,
,,,,,,,,,,,,,FF,,,,,,,,1.1832,,,,,,,,,,,,,,,,,,,,,,60ff6ff478334d71a1b1378b,61036c5466688e56b0721e84,2021-07-29_23h11.48.480,Simcolourproject_2stim_asymm_v5,2020.2.10,Win32,60,61025ae37ef11b136ea224fe,,,,,,,,,3222,73.60001254,-112.8000081,1,0,0,response3disk,,4,-17.59998882,14.79999378,1,0,0,rectangle,-17.59998882,14.79999378,1,0,0,-17.59998882,14.79999378,1,0,0,1,7,167,0,1,,,,,,,,
,,,,,,,,,,,,,FF,,,,,,,,2.1503,,,,,,,,,,,,,,,,,,,,,,60ff6ff478334d71a1b1378b,61036c5466688e56b0721e84,2021-07-29_23h11.48.480,Simcolourproject_2stim_asymm_v5,2020.2.10,Win32,60,61025ae37ef11b136ea224fe,,,,,,,,,200,78.00001261,-54.40000725,1,0,0,response3disk,,5,6.400011539,-1.600006461,1,0,0,rectangle,6.400011539,-1.600006461,1,0,0,6.400011539,-1.600006461,1,0,0,1,8,168,1,1,,,,,,,,
,,,,,,,,,,,,,FF,,,,,,,,0.9838,,,,,,,,,,,,,,,,,,,,,,60ff6ff478334d71a1b1378b,61036c5466688e56b0721e84,2021-07-29_23h11.48.480,Simcolourproject_2stim_asymm_v5,2020.2.10,Win32,60,61025ae37ef11b136ea224fe,,,,,,,,,3526,52.80001223,-91.60005663,1,0,0,response3disk,,4,-6.799988657,1.599993587,1,0,0,rectangle,-6.799988657,1.599993587,1,0,0,-6.799988657,1.599993587,1,0,0,1,9,169,25,1,,,,,,,,
,,,,,,,,,,,,,FF,,,,,,,,1.2256,,,,,,,,,,,,,,,,,,,,,,60ff6ff478334d71a1b1378b,61036c5466688e56b0721e84,2021-07-29_23h11.48.480,Simcolourproject_2stim_asymm_v5,2020.2.10,Win32,60,61025ae37ef11b136ea224fe,,,,,,,,,2764,85.20001271,-59.60000733,1,0,0,response3disk,,5,34.80001196,4.399993628,1,0,0,rectangle,34.80001196,4.399993628,1,0,0,34.80001196,4.399993628,1,0,0,1,10,170,143,1,,,,,,,,
,,,,,,,,,,,,,FF,,,,,,,,0.9675,,,,,,,,,,,,,,,,,,,,,,60ff6ff478334d71a1b1378b,61036c5466688e56b0721e84,2021-07-29_23h11.48.480,Simcolourproject_2stim_asymm_v5,2020.2.10,Win32,60,61025ae37ef11b136ea224fe,,,,,,,,,2916,109.6000131,42.39999419,1,0,0,response1disk,,6,12.00001162,-2.000006467,1,0,0,rectangle,12.00001162,-2.000006467,1,0,0,12.00001162,-2.000006467,1,0,0,1,11,171,94,1,,,,,,,,
,,,,,,,,,,,,,FF,,,,,,,,1.0505,,,,,,,,,,,,,,,,,,,,,,60ff6ff478334d71a1b1378b,61036c5466688e56b0721e84,2021-07-29_23h11.48.480,Simcolourproject_2stim_asymm_v5,2020.2.10,Win32,60,61025ae37ef11b136ea224fe,,,,,,,,,1676,-121.9999904,-28.80000687,1,0,0,response5disk,,2,5.200011522,17.19999382,1,0,0,rectangle,5.200011522,17.19999382,1,0,0,5.200011522,17.19999382,1,0,0,1,12,172,133,1,,,,,,,,
,,,,,,,,,,,,,FF,,,,,,,,1.6172,,,,,,,,,,,,,,,,,,,,,,60ff6ff478334d71a1b1378b,61036c5466688e56b0721e84,2021-07-29_23h11.48.480,Simcolourproject_2stim_asymm_v5,2020.2.10,Win32,60,61025ae37ef11b136ea224fe,,,,,,,,,2286,18.40001172,-82.80000767,1,0,0,response3disk,,4,-14.39993994,-3.600006491,1,0,0,rectangle,-14.39993994,-3.600006491,1,0,0,-14.39993994,-3.600006491,1,0,0,1,13,173,49,1,,,,,,,,
,,,,,,,,,,,,,FF,,,,,,,,1.1339,,,,,,,,,,,,,,,,,,,,,,60ff6ff478334d71a1b1378b,61036c5466688e56b0721e84,2021-07-29_23h11.48.480,Simcolourproject_2stim_asymm_v5,2020.2.10,Win32,60,61025ae37ef11b136ea224fe,,,,,,,,,3434,-72.79998964,32.39999405,1,0,0,response7disk,,1,8.400011569,15.5999938,1,0,0,rectangle,8.400011569,15.5999938,1,0,0,8.400011569,15.5999938,1,0,0,1,14,174,128,1,,,,,,,,
,,,,,,,,,,,,,FF,,,,,,,,0.8502,,,,,,,,,,,,,,,,,,,,,,60ff6ff478334d71a1b1378b,61036c5466688e56b0721e84,2021-07-29_23h11.48.480,Simcolourproject_2stim_asymm_v5,2020.2.10,Win32,60,61025ae37ef11b136ea224fe,,,,,,,,,528,-84.79998982,-52.40000722,1,0,0,response5disk,,2,-11.99998873,1.199993581,1,0,0,rectangle,-11.99998873,1.199993581,1,0,0,-11.99998873,1.199993581,1,0,0,1,15,175,123,1,,,,,,,,
,,,,,,,,,,,,,FF,,,,,,,,0.9837,,,,,,,,,,,,,,,,,,,,,,60ff6ff478334d71a1b1378b,61036c5466688e56b0721e84,2021-07-29_23h11.48.480,Simcolourproject_2stim_asymm_v5,2020.2.10,Win32,60,61025ae37ef11b136ea224fe,,,,,,,,,3442,-29.599989,-87.20000774,1,0,0,response5disk,,3,0.800011456,-6.400006533,1,0,0,rectangle,0.800011456,-6.400006533,1,0,0,0.800011456,-6.400006533,1,0,0,1,16,176,91,1,,,,,,,,
,,,,,,,,,,,,,FF,,,,,,,,1.5499,,,,,,,,,,,,,,,,,,,,,,60ff6ff478334d71a1b1378b,61036c5466688e56b0721e84,2021-07-29_23h11.48.480,Simcolourproject_2stim_asymm_v5,2020.2.10,Win32,60,61025ae37ef11b136ea224fe,,,,,,,,,1205,103.200013,-30.40000689,1,0,0,response3disk,,5,17.60006053,-3.200006485,1,0,0,rectangle,17.60006053,-3.200006485,1,0,0,17.60006053,-3.200006485,1,0,0,1,17,177,127,1,,,,,,,,
,,,,,,,,,,,,,FF,,,,,,,,1.017,,,,,,,,,,,,,,,,,,,,,,60ff6ff478334d71a1b1378b,61036c5466688e56b0721e84,2021-07-29_23h11.48.480,Simcolourproject_2stim_asymm_v5,2020.2.10,Win32,60,61025ae37ef11b136ea224fe,,,,,,,,,982,24.40001181,-62.80000737,1,0,0,response3disk,,4,-14.39993994,-0.800006449,1,0,0,rectangle,-14.39993994,-0.800006449,1,0,0,-14.39993994,-0.800006449,1,0,0,1,18,178,84,1,,,,,,,,
,,,,,,,,,,,,,FF,,,,,,,,1.167,,,,,,,,,,,,,,,,,,,,,,60ff6ff478334d71a1b1378b,61036c5466688e56b0721e84,2021-07-29_23h11.48.480,Simcolourproject_2stim_asymm_v5,2020.2.10,Win32,60,61025ae37ef11b136ea224fe,,,,,,,,,1923,100.0000129,58.39999443,1,0,0,response1disk,,6,-12.79998875,-5.600006521,1,0,0,rectangle,-12.79998875,-5.600006521,1,0,0,-12.79998875,-5.600006521,1,0,0,1,19,179,21,1,,,,,,,,
,,,,,,,,,,,,,FF,,,,,,,,1.433,,,,,,,,,,,,,,,,,,,,,,60ff6ff478334d71a1b1378b,61036c5466688e56b0721e84,2021-07-29_23h11.48.480,Simcolourproject_2stim_asymm_v5,2020.2.10,Win32,60,61025ae37ef11b136ea224fe,,,,,,,,,1655,58.40001231,-67.20000744,1,0,0,response3disk,,4,-7.199988663,-6.4373E-06,1,0,0,rectangle,-7.199988663,-6.4373E-06,1,0,0,-7.199988663,-6.4373E-06,1,0,0,1,20,180,145,1,,,,,,,,
,,,,,,,,,,,,,FF,,,,,,,,1.8665,,,,,,,,,,,,,,,,,,,,,,60ff6ff478334d71a1b1378b,61036c5466688e56b0721e84,2021-07-29_23h11.48.480,Simcolourproject_2stim_asymm_v5,2020.2.10,Win32,60,61025ae37ef11b136ea224fe,,,,,,,,,3528,60.00001234,-108.000008,1,0,0,response3disk,,4,11.60006045,-13.20000663,1,0,0,rectangle,11.60006045,-13.20000663,1,0,0,11.60006045,-13.20000663,1,0,0,1,21,181,82,1,,,,,,,,
,,,,,,,,,,,,,FF,,,,,,,,1.5769,,,,,,,,,,,,,,,,,,,,,,60ff6ff478334d71a1b1378b,61036c5466688e56b0721e84,2021-07-29_23h11.48.480,Simcolourproject_2stim_asymm_v5,2020.2.10,Win32,60,61025ae37ef11b136ea224fe,,,,,,,,,135,89.60001278,26.79999396,1,0,0,response1disk,,6,28.00001186,-12.00000662,1,0,0,rectangle,28.00001186,-12.00000662,1,0,0,28.00001186,-12.00000662,1,0,0,1,22,182,28,1,,,,,,,,
,,,,,,,,,,,,,FF,,,,,,,,1.6003,,,,,,,,,,,,,,,,,,,,,,60ff6ff478334d71a1b1378b,61036c5466688e56b0721e84,2021-07-29_23h11.48.480,Simcolourproject_2stim_asymm_v5,2020.2.10,Win32,60,61025ae37ef11b136ea224fe,,,,,,,,,849,40.40001205,52.39999434,1,0,0,response1disk,,7,5.600060356,5.19999364,1,0,0,rectangle,5.600060356,5.19999364,1,0,0,5.600060356,5.19999364,1,0,0,1,23,183,41,1,,,,,,,,
,,,,,,,,,,,,,FF,,,,,,,,1.6328,,,,,,,,,,,,,,,,,,,,,,60ff6ff478334d71a1b1378b,61036c5466688e56b0721e84,2021-07-29_23h11.48.480,Simcolourproject_2stim_asymm_v5,2020.2.10,Win32,60,61025ae37ef11b136ea224fe,,,,,,,,,1668,90.00001279,-60.40000734,1,0,0,response3disk,,5,11.60006045,7.599993676,1,0,0,rectangle,11.60006045,7.599993676,1,0,0,11.60006045,7.599993676,1,0,0,1,24,184,87,1,,,,,,,,
,,,,,,,,,,,,,FF,,,,,,,,1.5177,,,,,,,,,,,,,,,,,,,,,,60ff6ff478334d71a1b1378b,61036c5466688e56b0721e84,2021-07-29_23h11.48.480,Simcolourproject_2stim_asymm_v5,2020.2.10,Win32,60,61025ae37ef11b136ea224fe,,,,,,,,,2991,57.2000123,-51.60000721,1,0,0,response3disk,,5,14.80001166,-10.00000659,1,0,0,rectangle,14.80001166,-10.00000659,1,0,0,14.80001166,-10.00000659,1,0,0,1,25,185,150,1,,,,,,,,
,,,,,,,,,,,,,FF,,,,,,,,1.034,,,,,,,,,,,,,,,,,,,,,,60ff6ff478334d71a1b1378b,61036c5466688e56b0721e84,2021-07-29_23h11.48.480,Simcolourproject_2stim_asymm_v5,2020.2.10,Win32,60,61025ae37ef11b136ea224fe,,,,,,,,,1564,68.80001247,42.7999942,1,0,0,response1disk,,6,-15.19998878,-10.8000066,1,0,0,rectangle,-15.19998878,-10.8000066,1,0,0,-15.19998878,-10.8000066,1,0,0,1,26,186,101,1,,,,,,,,
,,,,,,,,,,,,,FF,,,,,,,,1.3839,,,,,,,,,,,,,,,,,,,,,,60ff6ff478334d71a1b1378b,61036c5466688e56b0721e84,2021-07-29_23h11.48.480,Simcolourproject_2stim_asymm_v5,2020.2.10,Win32,60,61025ae37ef11b136ea224fe,,,,,,,,,3790,84.4000127,-47.20000714,1,0,0,response3disk,,5,4.40001151,7.19999367,1,0,0,rectangle,4.40001151,7.19999367,1,0,0,4.40001151,7.19999367,1,0,0,1,27,187,117,1,,,,,,,,
,,,,,,,,,,,,,FF,,,,,,,,2.2507,,,,,,,,,,,,,,,,,,,,,,60ff6ff478334d71a1b1378b,61036c5466688e56b0721e84,2021-07-29_23h11.48.480,Simcolourproject_2stim_asymm_v5,2020.2.10,Win32,60,61025ae37ef11b136ea224fe,,,,,,,,,1802,87.20001274,42.39999419,1,0,0,response1disk,,6,6.000011533,-12.00000662,1,0,0,rectangle,6.000011533,-12.00000662,1,0,0,6.000011533,-12.00000662,1,0,0,1,28,188,154,1,,,,,,,,
,,,,,,,,,,,,,FF,,,,,,,,1.4841,,,,,,,,,,,,,,,,,,,,,,60ff6ff478334d71a1b1378b,61036c5466688e56b0721e84,2021-07-29_23h11.48.480,Simcolourproject_2stim_asymm_v5,2020.2.10,Win32,60,61025ae37ef11b136ea224fe,,,,,,,,,700,50.00001219,-56.00000727,1,0,0,response3disk,,4,15.6000605,-4.800006509,1,0,0,rectangle,15.6000605,-4.800006509,1,0,0,15.6000605,-4.800006509,1,0,0,1,29,189,132,1,,,,,,,,
,,,,,,,,,,,,,FF,,,,,,,,1.3004,,,,,,,,,,,,,,,,,,,,,,60ff6ff478334d71a1b1378b,61036c5466688e56b0721e84,2021-07-29_23h11.48.480,Simcolourproject_2stim_asymm_v5,2020.2.10,Win32,60,61025ae37ef11b136ea224fe,,,,,,,,,649,44.40001211,-60.00000733,1,0,0,response3disk,,4,8.800011575,-10.40000659,1,0,0,rectangle,8.800011575,-10.40000659,1,0,0,8.800011575,-10.40000659,1,0,0,1,30,190,115,1,,,,,,,,
,,,,,,,,,,,,,FF,,,,,,,,2.0169,,,,,,,,,,,,,,,,,,,,,,60ff6ff478334d71a1b1378b,61036c5466688e56b0721e84,2021-07-29_23h11.48.480,Simcolourproject_2stim_asymm_v5,2020.2.10,Win32,60,61025ae37ef11b136ea224fe,,,,,,,,,3124,105.600013,-26.00000682,1,0,0,response3disk,,5,18.40001172,-2.000006467,1,0,0,rectangle,18.40001172,-2.000006467,1,0,0,18.40001172,-2.000006467,1,0,0,1,31,191,98,1,,,,,,,,
,,,,,,,,,,,,,FF,,,,,,,,1.1494,,,,,,,,,,,,,,,,,,,,,,60ff6ff478334d71a1b1378b,61036c5466688e56b0721e84,2021-07-29_23h11.48.480,Simcolourproject_2stim_asymm_v5,2020.2.10,Win32,60,61025ae37ef11b136ea224fe,,,,,,,,,2094,-80.39994093,48.79999429,1,0,0,response7disk,,1,-19.99998885,-1.600006461,1,0,0,rectangle,-19.99998885,-1.600006461,1,0,0,-19.99998885,-1.600006461,1,0,0,1,32,192,47,1,,,,,,,,
,,,,,,,,,,,,,FF,,,,,,,,1.4677,,,,,,,,,,,,,,,,,,,,,,60ff6ff478334d71a1b1378b,61036c5466688e56b0721e84,2021-07-29_23h11.48.480,Simcolourproject_2stim_asymm_v5,2020.2.10,Win32,60,61025ae37ef11b136ea224fe,,,,,,,,,3428,-97.59999001,31.19996961,1,0,0,response7disk,,1,-0.399939734,11.59999374,1,0,0,rectangle,-0.399939734,11.59999374,1,0,0,-0.399939734,11.59999374,1,0,0,1,33,193,125,1,,,,,,,,
,,,,,,,,,,,,,FF,,,,,,,,0.9666,,,,,,,,,,,,,,,,,,,,,,60ff6ff478334d71a1b1378b,61036c5466688e56b0721e84,2021-07-29_23h11.48.480,Simcolourproject_2stim_asymm_v5,2020.2.10,Win32,60,61025ae37ef11b136ea224fe,,,,,,,,,1045,70.8000125,-41.20000705,1,0,0,response3disk,,5,12.00001162,-10.00000659,1,0,0,rectangle,12.00001162,-10.00000659,1,0,0,12.00001162,-10.00000659,1,0,0,1,34,194,147,1,,,,,,,,
,,,,,,,,,,,,,FF,,,,,,,,2.3335,,,,,,,,,,,,,,,,,,,,,,60ff6ff478334d71a1b1378b,61036c5466688e56b0721e84,2021-07-29_23h11.48.480,Simcolourproject_2stim_asymm_v5,2020.2.10,Win32,60,61025ae37ef11b136ea224fe,,,,,,,,,1426,82.00001267,38.39999413,1,0,0,response1disk,,6,21.60006059,-6.4373E-06,1,0,0,rectangle,21.60006059,-6.4373E-06,1,0,0,21.60006059,-6.4373E-06,1,0,0,1,35,195,111,1,,,,,,,,
,,,,,,,,,,,,,FF,,,,,,,,0.8665,,,,,,,,,,,,,,,,,,,,,,60ff6ff478334d71a1b1378b,61036c5466688e56b0721e84,2021-07-29_23h11.48.480,Simcolourproject_2stim_asymm_v5,2020.2.10,Win32,60,61025ae37ef11b136ea224fe,,,,,,,,,2750,54.00001225,-33.60000694,1,0,0,response3disk,,5,-1.59998858,-1.200006455,1,0,0,rectangle,-1.59998858,-1.200006455,1,0,0,-1.59998858,-1.200006455,1,0,0,1,36,196,50,1,,,,,,,,
,,,,,,,,,,,,,FF,,,,,,,,2.4171,,,,,,,,,,,,,,,,,,,,,,60ff6ff478334d71a1b1378b,61036c5466688e56b0721e84,2021-07-29_23h11.48.480,Simcolourproject_2stim_asymm_v5,2020.2.10,Win32,60,61025ae37ef11b136ea224fe,,,,,,,,,990,47.60006098,-72.40000752,1,0,0,response3disk,,4,3.200011492,-7.600006551,1,0,0,rectangle,3.200011492,-7.600006551,1,0,0,3.200011492,-7.600006551,1,0,0,1,37,197,10,1,,,,,,,,
,,,,,,,,,,,,,FF,,,,,,,,1.0006,,,,,,,,,,,,,,,,,,,,,,60ff6ff478334d71a1b1378b,61036c5466688e56b0721e84,2021-07-29_23h11.48.480,Simcolourproject_2stim_asymm_v5,2020.2.10,Win32,60,61025ae37ef11b136ea224fe,,,,,,,,,1037,76.80001259,-40.80000705,1,0,0,response3disk,,5,20.80001175,-10.00000659,1,0,0,rectangle,20.80001175,-10.00000659,1,0,0,20.80001175,-10.00000659,1,0,0,1,38,198,72,1,,,,,,,,
,,,,,,,,,,,,,FF,,,,,,,,0.9341,,,,,,,,,,,,,,,,,,,,,,60ff6ff478334d71a1b1378b,61036c5466688e56b0721e84,2021-07-29_23h11.48.480,Simcolourproject_2stim_asymm_v5,2020.2.10,Win32,60,61025ae37ef11b136ea224fe,,,,,,,,,4355,31.60006074,-87.60005657,1,0,0,response3disk,,4,-5.999988645,-8.000006557,1,0,0,rectangle,-5.999988645,-8.000006557,1,0,0,-5.999988645,-8.000006557,1,0,0,1,39,199,43,1,,,,,,,,
,,,,,,,,,,,,,FF,,,,,,,,1.1667,,,,,,,,,,,,,,,,,,,,,,60ff6ff478334d71a1b1378b,61036c5466688e56b0721e84,2021-07-29_23h11.48.480,Simcolourproject_2stim_asymm_v5,2020.2.10,Win32,60,61025ae37ef11b136ea224fe,,,,,,,,,4086,48.80001217,102.3999951,1,0,0,response1disk,,7,7.200011551,10.79999372,1,0,0,rectangle,7.200011551,10.79999372,1,0,0,7.200011551,10.79999372,1,0,0,1,40,200,90,1,,,,,,,,
,,,,,,,,,,,,,FF,,,,,,,,1.1669,,,,,,,,,,,,,,,,,,,,,,60ff6ff478334d71a1b1378b,61036c5466688e56b0721e84,2021-07-29_23h11.48.480,Simcolourproject_2stim_asymm_v5,2020.2.10,Win32,60,61025ae37ef11b136ea224fe,,,,,,,,,2237,-97.19999,33.99999407,1,0,0,response7disk,,1,-13.59998876,-2.800006479,1,0,0,rectangle,-13.59998876,-2.800006479,1,0,0,-13.59998876,-2.800006479,1,0,0,1,41,201,45,1,,,,,,,,
,,,,,,,,,,,,,FF,,,,,,,,1.7001,,,,,,,,,,,,,,,,,,,,,,60ff6ff478334d71a1b1378b,61036c5466688e56b0721e84,2021-07-29_23h11.48.480,Simcolourproject_2stim_asymm_v5,2020.2.10,Win32,60,61025ae37ef11b136ea224fe,,,,,,,,,4332,-65.99998954,-87.60005657,1,0,0,response5disk,,3,6.800011545,13.59999377,1,0,0,rectangle,6.800011545,13.59999377,1,0,0,6.800011545,13.59999377,1,0,0,1,42,202,39,1,,,,,,,,
,,,,,,,,,,,,,FF,,,,,,,,1.1339,,,,,,,,,,,,,,,,,,,,,,60ff6ff478334d71a1b1378b,61036c5466688e56b0721e84,2021-07-29_23h11.48.480,Simcolourproject_2stim_asymm_v5,2020.2.10,Win32,60,61025ae37ef11b136ea224fe,,,,,,,,,2201,87.20001274,47.19996985,1,0,0,response1disk,,6,23.60006062,6.799993664,1,0,0,rectangle,23.60006062,6.799993664,1,0,0,23.60006062,6.799993664,1,0,0,1,43,203,73,1,,,,,,,,
,,,,,,,,,,,,,FF,,,,,,,,1.6666,,,,,,,,,,,,,,,,,,,,,,60ff6ff478334d71a1b1378b,61036c5466688e56b0721e84,2021-07-29_23h11.48.480,Simcolourproject_2stim_asymm_v5,2020.2.10,Win32,60,61025ae37ef11b136ea224fe,,,,,,,,,1727,89.20001277,53.59999436,1,0,0,response1disk,,6,8.400011569,5.599993646,1,0,0,rectangle,8.400011569,5.599993646,1,0,0,8.400011569,5.599993646,1,0,0,1,44,204,48,1,,,,,,,,
,,,,,,,,,,,,,FF,,,,,,,,1.2336,,,,,,,,,,,,,,,,,,,,,,60ff6ff478334d71a1b1378b,61036c5466688e56b0721e84,2021-07-29_23h11.48.480,Simcolourproject_2stim_asymm_v5,2020.2.10,Win32,60,61025ae37ef11b136ea224fe,,,,,,,,,4179,35.20001197,-97.60005672,1,0,0,response3disk,,4,-7.599988669,-3.600006491,1,0,0,rectangle,-7.599988669,-3.600006491,1,0,0,-7.599988669,-3.600006491,1,0,0,1,45,205,69,1,,,,,,,,
,,,,,,,,,,,,,FF,,,,,,,,1.7168,,,,,,,,,,,,,,,,,,,,,,60ff6ff478334d71a1b1378b,61036c5466688e56b0721e84,2021-07-29_23h11.48.480,Simcolourproject_2stim_asymm_v5,2020.2.10,Win32,60,61025ae37ef11b136ea224fe,,,,,,,,,2829,-62.79998949,-84.8000077,1,0,0,response5disk,,3,-7.599988669,-4.400006503,1,0,0,rectangle,-7.599988669,-4.400006503,1,0,0,-7.599988669,-4.400006503,1,0,0,1,46,206,64,1,,,,,,,,
,,,,,,,,,,,,,FF,,,,,,,,1.917,,,,,,,,,,,,,,,,,,,,,,60ff6ff478334d71a1b1378b,61036c5466688e56b0721e84,2021-07-29_23h11.48.480,Simcolourproject_2stim_asymm_v5,2020.2.10,Win32,60,61025ae37ef11b136ea224fe,,,,,,,,,1327,124.0000133,-59.60000733,1,0,0,response3disk,,5,19.60006056,-10.40000659,1,0,0,rectangle,19.60006056,-10.40000659,1,0,0,19.60006056,-10.40000659,1,0,0,1,47,207,103,1,,,,,,,,
,,,,,,,,,,,,,FF,,,,,,,,1.3494,,,,,,,,,,,,,,,,,,,,,,60ff6ff478334d71a1b1378b,61036c5466688e56b0721e84,2021-07-29_23h11.48.480,Simcolourproject_2stim_asymm_v5,2020.2.10,Win32,60,61025ae37ef11b136ea224fe,,,,,,,,,3572,85.60001272,-67.60000744,1,0,0,response3disk,,5,4.40001151,-6.4373E-06,1,0,0,rectangle,4.40001151,-6.4373E-06,1,0,0,4.40001151,-6.4373E-06,1,0,0,1,48,208,29,1,,,,,,,,
,,,,,,,,,,,,,FF,,,,,,,,1.5337,,,,,,,,,,,,,,,,,,,,,,60ff6ff478334d71a1b1378b,61036c5466688e56b0721e84,2021-07-29_23h11.48.480,Simcolourproject_2stim_asymm_v5,2020.2.10,Win32,60,61025ae37ef11b136ea224fe,,,,,,,,,4221,-59.19998944,-88.00000775,1,0,0,response5disk,,3,-0.799988568,-1.200006455,1,0,0,rectangle,-0.799988568,-1.200006455,1,0,0,-0.799988568,-1.200006455,1,0,0,1,49,209,54,1,,,,,,,,
,,,,,,,,,,,,,FF,,,,,,,,1.7672,,,,,,,,,,,,,,,,,,,,,,60ff6ff478334d71a1b1378b,61036c5466688e56b0721e84,2021-07-29_23h11.48.480,Simcolourproject_2stim_asymm_v5,2020.2.10,Win32,60,61025ae37ef11b136ea224fe,,,,,,,,,3276,58.80001232,-30.00000688,1,0,0,response3disk,,5,13.60006047,-1.200006455,1,0,0,rectangle,-27.59998897,87.59999487,1,0,0,-15.19998878,-7.600006551,1,0,0,1,50,210,74,1,,response7disk_3,TRUE,0,0,"[10,236,28,267,3,99,211,258,5,15,276,75,239,284,103,247,273,33,223,213]",1.9005,rectangle
,,,,,,,,,,,,,FF,,,,,,,,1.9669,,,,,,,,,,,,,,,,,,,,,,60ff6ff478334d71a1b1378b,61036c5466688e56b0721e84,2021-07-29_23h11.48.480,Simcolourproject_2stim_asymm_v5,2020.2.10,Win32,60,61025ae37ef11b136ea224fe,,,,,,,,,302,89.60001278,-46.40000713,1,0,0,response3disk,,5,16.00001168,2.399993598,1,0,0,rectangle,16.00001168,2.399993598,1,0,0,16.00001168,2.399993598,1,0,0,1,51,211,46,1,,,,,,,,
,,,,,,,,,,,,,FF,,,,,,,,0.9837,,,,,,,,,,,,,,,,,,,,,,60ff6ff478334d71a1b1378b,61036c5466688e56b0721e84,2021-07-29_23h11.48.480,Simcolourproject_2stim_asymm_v5,2020.2.10,Win32,60,61025ae37ef11b136ea224fe,,,,,,,,,3320,76.00001258,53.59999436,1,0,0,response1disk,,6,14.00001165,4.399993628,1,0,0,rectangle,44.80001211,120.7999954,1,0,0,8.000011563,-11.60000661,1,0,0,1,52,212,60,1,,response1disk_3,TRUE,7,7,"[10,236,28,267,3,99,211,258,5,15,276,75,239,284,103,247,273,33,223,213]",1.7665,rectangle
,,,,,,,,,,,,,FF,,,,,,,,1.284,,,,,,,,,,,,,,,,,,,,,,60ff6ff478334d71a1b1378b,61036c5466688e56b0721e84,2021-07-29_23h11.48.480,Simcolourproject_2stim_asymm_v5,2020.2.10,Win32,60,61025ae37ef11b136ea224fe,,,,,,,,,255,-60.39994063,-66.40000743,1,0,0,response5disk,,3,-3.999988616,-1.200006455,1,0,0,rectangle,-3.999988616,-1.200006455,1,0,0,-3.999988616,-1.200006455,1,0,0,1,53,213,97,1,,,,,,,,
,,,,,,,,,,,,,FF,,,,,,,,1.3668,,,,,,,,,,,,,,,,,,,,,,60ff6ff478334d71a1b1378b,61036c5466688e56b0721e84,2021-07-29_23h11.48.480,Simcolourproject_2stim_asymm_v5,2020.2.10,Win32,60,61025ae37ef11b136ea224fe,,,,,,,,,2635,104.800013,46.39999425,1,0,0,response1disk,,6,2.000011474,-10.00000659,1,0,0,rectangle,2.000011474,-10.00000659,1,0,0,2.000011474,-10.00000659,1,0,0,1,54,214,85,1,,,,,,,,
,,,,,,,,,,,,,FF,,,,,,,,1.9999,,,,,,,,,,,,,,,,,,,,,,60ff6ff478334d71a1b1378b,61036c5466688e56b0721e84,2021-07-29_23h11.48.480,Simcolourproject_2stim_asymm_v5,2020.2.10,Win32,60,61025ae37ef11b136ea224fe,,,,,,,,,1030,120.8000132,57.99999443,1,0,0,response1disk,,6,14.40001166,-13.60000664,1,0,0,rectangle,14.40001166,-13.60000664,1,0,0,14.40001166,-13.60000664,1,0,0,1,55,215,18,1,,,,,,,,
,,,,,,,,,,,,,FF,,,,,,,,3.4171,,,,,,,,,,,,,,,,,,,,,,60ff6ff478334d71a1b1378b,61036c5466688e56b0721e84,2021-07-29_23h11.48.480,Simcolourproject_2stim_asymm_v5,2020.2.10,Win32,60,61025ae37ef11b136ea224fe,,,,,,,,,4230,90.00001279,-32.40000692,1,0,0,response3disk,,5,12.40001163,3.599993616,1,0,0,rectangle,12.40001163,3.599993616,1,0,0,12.40001163,3.599993616,1,0,0,1,56,216,89,1,,,,,,,,
,,,,,,,,,,,,,FF,,,,,,,,1.5669,,,,,,,,,,,,,,,,,,,,,,60ff6ff478334d71a1b1378b,61036c5466688e56b0721e84,2021-07-29_23h11.48.480,Simcolourproject_2stim_asymm_v5,2020.2.10,Win32,60,61025ae37ef11b136ea224fe,,,,,,,,,4056,86.40001273,-65.20000741,1,0,0,response3disk,,5,6.800011545,-3.600006491,1,0,0,rectangle,6.800011545,-3.600006491,1,0,0,6.800011545,-3.600006491,1,0,0,1,57,217,96,1,,,,,,,,
,,,,,,,,,,,,,FF,,,,,,,,1.9503,,,,,,,,,,,,,,,,,,,,,,60ff6ff478334d71a1b1378b,61036c5466688e56b0721e84,2021-07-29_23h11.48.480,Simcolourproject_2stim_asymm_v5,2020.2.10,Win32,60,61025ae37ef11b136ea224fe,,,,,,,,,3608,74.80001256,-46.40000713,1,0,0,response3disk,,5,14.40001166,-14.80000666,1,0,0,rectangle,14.40001166,-14.80000666,1,0,0,14.40001166,-14.80000666,1,0,0,1,58,218,30,1,,,,,,,,
,,,,,,,,,,,,,FF,,,,,,,,1.5005,,,,,,,,,,,,,,,,,,,,,,60ff6ff478334d71a1b1378b,61036c5466688e56b0721e84,2021-07-29_23h11.48.480,Simcolourproject_2stim_asymm_v5,2020.2.10,Win32,60,61025ae37ef11b136ea224fe,,,,,,,,,915,46.40001214,-105.200008,1,0,0,response3disk,,4,-3.999988616,-10.40000659,1,0,0,rectangle,-3.999988616,-10.40000659,1,0,0,-3.999988616,-10.40000659,1,0,0,1,59,219,140,1,,,,,,,,
,,,,,,,,,,,,,FF,,,,,,,,1.0002,,,,,,,,,,,,,,,,,,,,,,60ff6ff478334d71a1b1378b,61036c5466688e56b0721e84,2021-07-29_23h11.48.480,Simcolourproject_2stim_asymm_v5,2020.2.10,Win32,60,61025ae37ef11b136ea224fe,,,,,,,,,1290,-46.39994042,105.5999951,1,0,0,response7disk,,0,-0.399939734,7.999993682,1,0,0,rectangle,-0.399939734,7.999993682,1,0,0,-0.399939734,7.999993682,1,0,0,1,60,220,12,1,,,,,,,,
,,,,,,,,,,,,,FF,,,,,,,,1.6833,,,,,,,,,,,,,,,,,,,,,,60ff6ff478334d71a1b1378b,61036c5466688e56b0721e84,2021-07-29_23h11.48.480,Simcolourproject_2stim_asymm_v5,2020.2.10,Win32,60,61025ae37ef11b136ea224fe,,,,,,,,,1002,74.80001256,-24.80000681,1,0,0,response3disk,,5,23.20001179,6.799993664,1,0,0,rectangle,23.20001179,6.799993664,1,0,0,23.20001179,6.799993664,1,0,0,1,61,221,153,1,,,,,,,,
,,,,,,,,,,,,,FF,,,,,,,,1.2176,,,,,,,,,,,,,,,,,,,,,,60ff6ff478334d71a1b1378b,61036c5466688e56b0721e84,2021-07-29_23h11.48.480,Simcolourproject_2stim_asymm_v5,2020.2.10,Win32,60,61025ae37ef11b136ea224fe,,,,,,,,,1569,94.40001285,23.99999392,1,0,0,response1disk,,6,24.40001181,-1.200006455,1,0,0,rectangle,118.0000132,51.59999433,1,0,0,3.200011492,-10.40000659,1,0,0,1,62,222,37,1,,response1disk_3,TRUE,6,6,"[10,236,28,267,3,99,211,258,5,15,276,75,239,284,103,247,273,33,223,213]",3.2672,rectangle
,,,,,,,,,,,,,FF,,,,,,,,2.0001,,,,,,,,,,,,,,,,,,,,,,60ff6ff478334d71a1b1378b,61036c5466688e56b0721e84,2021-07-29_23h11.48.480,Simcolourproject_2stim_asymm_v5,2020.2.10,Win32,60,61025ae37ef11b136ea224fe,,,,,,,,,2310,36.40001199,-98.80000791,1,0,0,response3disk,,4,3.200011492,-4.000006497,1,0,0,rectangle,3.200011492,-4.000006497,1,0,0,3.200011492,-4.000006497,1,0,0,1,63,223,51,1,,,,,,,,
,,,,,,,,,,,,,FF,,,,,,,,1.3338,,,,,,,,,,,,,,,,,,,,,,60ff6ff478334d71a1b1378b,61036c5466688e56b0721e84,2021-07-29_23h11.48.480,Simcolourproject_2stim_asymm_v5,2020.2.10,Win32,60,61025ae37ef11b136ea224fe,,,,,,,,,1433,74.40001255,-37.20000699,1,0,0,response3disk,,5,-0.799988568,3.999993622,1,0,0,rectangle,-0.799988568,3.999993622,1,0,0,-0.799988568,3.999993622,1,0,0,1,64,224,11,1,,,,,,,,
,,,,,,,,,,,,,FF,,,,,,,,1.9668,,,,,,,,,,,,,,,,,,,,,,60ff6ff478334d71a1b1378b,61036c5466688e56b0721e84,2021-07-29_23h11.48.480,Simcolourproject_2stim_asymm_v5,2020.2.10,Win32,60,61025ae37ef11b136ea224fe,,,,,,,,,981,105.200013,-46.00000712,1,0,0,response3disk,,5,24.0000118,-5.600006521,1,0,0,rectangle,24.0000118,-5.600006521,1,0,0,24.0000118,-5.600006521,1,0,0,1,65,225,139,1,,,,,,,,
,,,,,,,,,,,,,FF,,,,,,,,1.9001,,,,,,,,,,,,,,,,,,,,,,60ff6ff478334d71a1b1378b,61036c5466688e56b0721e84,2021-07-29_23h11.48.480,Simcolourproject_2stim_asymm_v5,2020.2.10,Win32,60,61025ae37ef11b136ea224fe,,,,,,,,,3714,-79.99998975,-36.40000698,1,0,0,response5disk,,2,-7.999988675,2.399993598,1,0,0,rectangle,-7.999988675,2.399993598,1,0,0,-7.999988675,2.399993598,1,0,0,1,66,226,38,1,,,,,,,,
,,,,,,,,,,,,,FF,,,,,,,,2.5413,,,,,,,,,,,,,,,,,,,,,,60ff6ff478334d71a1b1378b,61036c5466688e56b0721e84,2021-07-29_23h11.48.480,Simcolourproject_2stim_asymm_v5,2020.2.10,Win32,60,61025ae37ef11b136ea224fe,,,,,,,,,3075,106.400013,-29.60000688,1,0,0,response3disk,,5,23.60006062,-4.800006509,1,0,0,rectangle,23.60006062,-4.800006509,1,0,0,23.60006062,-4.800006509,1,0,0,1,67,227,65,1,,,,,,,,
,,,,,,,,,,,,,FF,,,,,,,,1.0833,,,,,,,,,,,,,,,,,,,,,,60ff6ff478334d71a1b1378b,61036c5466688e56b0721e84,2021-07-29_23h11.48.480,Simcolourproject_2stim_asymm_v5,2020.2.10,Win32,60,61025ae37ef11b136ea224fe,,,,,,,,,2562,52.00001222,-134.4000084,1,0,0,response3disk,,4,6.000011533,-3.200006485,1,0,0,rectangle,6.000011533,-3.200006485,1,0,0,6.000011533,-3.200006485,1,0,0,1,68,228,31,1,,,,,,,,
,,,,,,,,,,,,,FF,,,,,,,,2.6173,,,,,,,,,,,,,,,,,,,,,,60ff6ff478334d71a1b1378b,61036c5466688e56b0721e84,2021-07-29_23h11.48.480,Simcolourproject_2stim_asymm_v5,2020.2.10,Win32,60,61025ae37ef11b136ea224fe,,,,,,,,,1960,-81.59998977,-43.60000709,1,0,0,response5disk,,2,-10.39993988,-3.200006485,1,0,0,rectangle,-10.39993988,-3.200006485,1,0,0,-10.39993988,-3.200006485,1,0,0,1,69,229,9,1,,,,,,,,
,,,,,,,,,,,,,FF,,,,,,,,1.3494,,,,,,,,,,,,,,,,,,,,,,60ff6ff478334d71a1b1378b,61036c5466688e56b0721e84,2021-07-29_23h11.48.480,Simcolourproject_2stim_asymm_v5,2020.2.10,Win32,60,61025ae37ef11b136ea224fe,,,,,,,,,4300,112.8000131,-31.60000691,1,0,0,response3disk,,5,29.20001188,-13.20000663,1,0,0,rectangle,29.20001188,-13.20000663,1,0,0,29.20001188,-13.20000663,1,0,0,1,70,230,92,1,,,,,,,,
,,,,,,,,,,,,,FF,,,,,,,,1.2592,,,,,,,,,,,,,,,,,,,,,,60ff6ff478334d71a1b1378b,61036c5466688e56b0721e84,2021-07-29_23h11.48.480,Simcolourproject_2stim_asymm_v5,2020.2.10,Win32,60,61025ae37ef11b136ea224fe,,,,,,,,,1972,-66.79998955,-43.20000708,1,0,0,response5disk,,2,-16.79998881,-8.400006562,1,0,0,rectangle,-16.79998881,-8.400006562,1,0,0,-16.79998881,-8.400006562,1,0,0,1,71,231,146,1,,,,,,,,
,,,,,,,,,,,,,FF,,,,,,,,2.3999,,,,,,,,,,,,,,,,,,,,,,60ff6ff478334d71a1b1378b,61036c5466688e56b0721e84,2021-07-29_23h11.48.480,Simcolourproject_2stim_asymm_v5,2020.2.10,Win32,60,61025ae37ef11b136ea224fe,,,,,,,,,566,114.8000132,-34.40000695,1,0,0,response3disk,,5,14.00001165,-6.4373E-06,1,0,0,rectangle,14.00001165,-6.4373E-06,1,0,0,14.00001165,-6.4373E-06,1,0,0,1,72,232,80,1,,,,,,,,
,,,,,,,,,,,,,FF,,,,,,,,1.7332,,,,,,,,,,,,,,,,,,,,,,60ff6ff478334d71a1b1378b,61036c5466688e56b0721e84,2021-07-29_23h11.48.480,Simcolourproject_2stim_asymm_v5,2020.2.10,Win32,60,61025ae37ef11b136ea224fe,,,,,,,,,2221,100.4000129,-74.80000755,1,0,0,response3disk,,5,2.800011486,9.999993712,1,0,0,rectangle,2.800011486,9.999993712,1,0,0,2.800011486,9.999993712,1,0,0,1,73,233,148,1,,,,,,,,
,,,,,,,,,,,,,FF,,,,,,,,1.1685,,,,,,,,,,,,,,,,,,,,,,60ff6ff478334d71a1b1378b,61036c5466688e56b0721e84,2021-07-29_23h11.48.480,Simcolourproject_2stim_asymm_v5,2020.2.10,Win32,60,61025ae37ef11b136ea224fe,,,,,,,,,221,54.40001225,-93.20000783,1,0,0,response3disk,,4,-11.99998873,-5.600006521,1,0,0,rectangle,-11.99998873,-5.600006521,1,0,0,-11.99998873,-5.600006521,1,0,0,1,74,234,24,1,,,,,,,,
,,,,,,,,,,,,,FF,,,,,,,,1.0934,,,,,,,,,,,,,,,,,,,,,,60ff6ff478334d71a1b1378b,61036c5466688e56b0721e84,2021-07-29_23h11.48.480,Simcolourproject_2stim_asymm_v5,2020.2.10,Win32,60,61025ae37ef11b136ea224fe,,,,,,,,,3892,96.40001288,-34.00000694,1,0,0,response3disk,,5,9.600060415,4.799993634,1,0,0,rectangle,82.40001267,-117.600057,1,0,0,4.40001151,2.799993604,1,0,0,1,75,235,156,1,,response3disk_3,TRUE,4,4,"[10,236,28,267,3,99,211,258,5,15,276,75,239,284,103,247,273,33,223,213]",2.2443,rectangle
,,,,,,,,,,,,,FF,,,,,,,,1.6336,,,,,,,,,,,,,,,,,,,,,,60ff6ff478334d71a1b1378b,61036c5466688e56b0721e84,2021-07-29_23h11.48.480,Simcolourproject_2stim_asymm_v5,2020.2.10,Win32,60,61025ae37ef11b136ea224fe,,,,,,,,,979,-40.39994033,-83.60005651,1,0,0,response5disk,,3,-8.399939853,-4.400006503,1,0,0,rectangle,-8.399939853,-4.400006503,1,0,0,-8.399939853,-4.400006503,1,0,0,1,76,236,36,1,,,,,,,,
,,,,,,,,,,,,,FF,,,,,,,,1.5675,,,,,,,,,,,,,,,,,,,,,,60ff6ff478334d71a1b1378b,61036c5466688e56b0721e84,2021-07-29_23h11.48.480,Simcolourproject_2stim_asymm_v5,2020.2.10,Win32,60,61025ae37ef11b136ea224fe,,,,,,,,,1487,81.60001266,49.5999943,1,0,0,response1disk,,6,-2.399939764,1.999993593,1,0,0,rectangle,-2.399939764,1.999993593,1,0,0,-2.399939764,1.999993593,1,0,0,1,77,237,70,1,,,,,,,,
,,,,,,,,,,,,,FF,,,,,,,,2.0597,,,,,,,,,,,,,,,,,,,,,,60ff6ff478334d71a1b1378b,61036c5466688e56b0721e84,2021-07-29_23h11.48.480,Simcolourproject_2stim_asymm_v5,2020.2.10,Win32,60,61025ae37ef11b136ea224fe,,,,,,,,,1475,43.60006092,-70.80000749,1,0,0,response3disk,,4,-0.799988568,0.799993575,1,0,0,rectangle,94.40001285,-31.60000691,1,0,0,23.20001179,-3.600006491,1,0,0,1,78,238,67,1,,response3disk_3,TRUE,5,5,"[10,236,28,267,3,99,211,258,5,15,276,75,239,284,103,247,273,33,223,213]",1.7504,rectangle
,,,,,,,,,,,,,FF,,,,,,,,1.35,,,,,,,,,,,,,,,,,,,,,,60ff6ff478334d71a1b1378b,61036c5466688e56b0721e84,2021-07-29_23h11.48.480,Simcolourproject_2stim_asymm_v5,2020.2.10,Win32,60,61025ae37ef11b136ea224fe,,,,,,,,,3806,-57.19998941,-106.800008,1,0,0,response5disk,,3,-6.399939823,1.599993587,1,0,0,rectangle,-6.399939823,1.599993587,1,0,0,-6.399939823,1.599993587,1,0,0,1,79,239,108,1,,,,,,,,
,,,,,,,,,,,,,FF,,,,,,,,1.0838,,,,,,,,,,,,,,,,,,,,,,60ff6ff478334d71a1b1378b,61036c5466688e56b0721e84,2021-07-29_23h11.48.480,Simcolourproject_2stim_asymm_v5,2020.2.10,Win32,60,61025ae37ef11b136ea224fe,,,,,,,,,1377,-41.59998918,-79.60000762,1,0,0,response5disk,,3,-1.199988574,-2.000006467,1,0,0,rectangle,-1.199988574,-2.000006467,1,0,0,-1.199988574,-2.000006467,1,0,0,1,80,240,129,1,,,,,,,,
,,,,,,,,,,,,,FF,,,,,,,,1.6495,,,,,,,,,,,,,,,,,,,,,,60ff6ff478334d71a1b1378b,61036c5466688e56b0721e84,2021-07-29_23h11.48.480,Simcolourproject_2stim_asymm_v5,2020.2.10,Win32,60,61025ae37ef11b136ea224fe,,,,,,,,,2152,82.40001267,-38.40000701,1,0,0,response3disk,,5,26.80001184,-1.200006455,1,0,0,rectangle,26.80001184,-1.200006455,1,0,0,26.80001184,-1.200006455,1,0,0,1,81,241,79,1,,,,,,,,
,,,,,,,,,,,,,FF,,,,,,,,1.2505,,,,,,,,,,,,,,,,,,,,,,60ff6ff478334d71a1b1378b,61036c5466688e56b0721e84,2021-07-29_23h11.48.480,Simcolourproject_2stim_asymm_v5,2020.2.10,Win32,60,61025ae37ef11b136ea224fe,,,,,,,,,3238,-77.59998971,-39.60000703,1,0,0,response5disk,,2,-13.19998875,-2.000006467,1,0,0,rectangle,-13.19998875,-2.000006467,1,0,0,-13.19998875,-2.000006467,1,0,0,1,82,242,134,1,,,,,,,,
