key_resp.keys,key_resp.rt,key_resp_14.keys,key_resp_14.rt,key_resp_15.keys,key_resp_15.rt,key_resp_17.keys,key_resp_17.rt,key_resp_9.keys,key_resp_9.rt,key_resp_10.keys,key_resp_10.rt,practice_comparison,Ecc,mouse_5.x,mouse_5.y,mouse_5.leftButton,mouse_5.midButton,mouse_5.rightButton,mouse_5.clicked_name,pracsimilarity,response_time,mouse_10.x,mouse_10.y,mouse_10.leftButton,mouse_10.midButton,mouse_10.rightButton,mouse_10.clicked_name,mouse_7.x,mouse_7.y,mouse_7.leftButton,mouse_7.midButton,mouse_7.rightButton,mouse_6.x,mouse_6.y,mouse_6.leftButton,mouse_6.midButton,mouse_6.rightButton,duringprac.thisRepN,duringprac.thisTrialN,duringprac.thisN,duringprac.thisIndex,duringprac.ran,participant,session,date,expName,psychopyVersion,OS,frameRate,study_id,mouse_7.clicked_name,catchpracsimilarity,catch_response_time,catchnumberprac,catchtrialorderprac,mouse_6.clicked_name,key_resp_22.keys,key_resp_22.rt,realcomparison,mouse.x,mouse.y,mouse.leftButton,mouse.midButton,mouse.rightButton,mouse.clicked_name,Colour2,similarity,mouse_2.x,mouse_2.y,mouse_2.leftButton,mouse_2.midButton,mouse_2.rightButton,mouse_2.clicked_name,mouse_3.x,mouse_3.y,mouse_3.leftButton,mouse_3.midButton,mouse_3.rightButton,mouse_11.x,mouse_11.y,mouse_11.leftButton,mouse_11.midButton,mouse_11.rightButton,trials_2.thisRepN,trials_2.thisTrialN,trials_2.thisN,trials_2.thisIndex,trials_2.ran,Colour1,mouse_3.clicked_name,catchornah,catchsimilarity,catchnumber,catchtrialorder,catchRT,mouse_11.clicked_name
space,8.355,space,0.793,space,1.694,space,3.93,space,1.278,space,2.319,157,FF,36,-66,1,0,0,response3disk_5,4,22.483,-10,3,1,0,0,rectangle_8,-10,3,1,0,0,-10,3,1,0,0,0,0,0,0,1,60ff42c367f96f0df9a03e25,61036b06b49c043f5f0b1b4f,2021-07-29_23h01.48.602,Simcolourproject_2stim_asymm_v5,2020.2.10,MacIntel,60,61025ae37ef11b136ea224fe,,,,,,,,,,,,,,,,,,,,,,,,,,,,,,,,,,,,,,,,,,,,,,
,,,,,,,,,,,,130,PF,25,56,1,0,0,response1disk_5,7,4.45,-5,7,1,0,0,rectangle_8,28,-61,1,0,0,-35,4,1,0,0,0,1,1,4,1,60ff42c367f96f0df9a03e25,61036b06b49c043f5f0b1b4f,2021-07-29_23h01.48.602,Simcolourproject_2stim_asymm_v5,2020.2.10,MacIntel,60,61025ae37ef11b136ea224fe,response3disk_7,4,6.351,4,"[2,5]",rectangle_4,,,,,,,,,,,,,,,,,,,,,,,,,,,,,,,,,,,,,,,,
,,,,,,,,,,,,84,FF,26,38,1,0,0,response1disk_5,7,6.067,4,0,1,0,0,rectangle_8,4,0,1,0,0,4,0,1,0,0,0,2,2,5,1,60ff42c367f96f0df9a03e25,61036b06b49c043f5f0b1b4f,2021-07-29_23h01.48.602,Simcolourproject_2stim_asymm_v5,2020.2.10,MacIntel,60,61025ae37ef11b136ea224fe,,,,,,,,,,,,,,,,,,,,,,,,,,,,,,,,,,,,,,,,,,,,,,
,,,,,,,,,,,,115,PF,20,53,1,0,0,response1disk_5,7,3.967,15,8,1,0,0,rectangle_8,15,8,1,0,0,15,8,1,0,0,0,3,3,6,1,60ff42c367f96f0df9a03e25,61036b06b49c043f5f0b1b4f,2021-07-29_23h01.48.602,Simcolourproject_2stim_asymm_v5,2020.2.10,MacIntel,60,61025ae37ef11b136ea224fe,,,,,,,,,,,,,,,,,,,,,,,,,,,,,,,,,,,,,,,,,,,,,,
,,,,,,,,,,,,116,PF,-28,52,1,0,0,response7disk_5,0,1.751,-7,15,1,0,0,rectangle_8,-34,-46,1,0,0,-4,10,1,0,0,0,4,4,2,1,60ff42c367f96f0df9a03e25,61036b06b49c043f5f0b1b4f,2021-07-29_23h01.48.602,Simcolourproject_2stim_asymm_v5,2020.2.10,MacIntel,60,61025ae37ef11b136ea224fe,response5disk_7,3,3.266,4,"[2,5]",rectangle_4,,,,,,,,,,,,,,,,,,,,,,,,,,,,,,,,,,,,,,,,
,,,,,,,,,,,,119,PF,22,42,1,0,0,response1disk_5,7,4.234,2,-11,1,0,0,rectangle_8,2,-11,1,0,0,2,-11,1,0,0,0,5,5,1,1,60ff42c367f96f0df9a03e25,61036b06b49c043f5f0b1b4f,2021-07-29_23h01.48.602,Simcolourproject_2stim_asymm_v5,2020.2.10,MacIntel,60,61025ae37ef11b136ea224fe,,,,,,,,,,,,,,,,,,,,,,,,,,,,,,,,,,,,,,,,,,,,,,
,,,,,,,,,,,,70,FF,23,39,1,0,0,response1disk_5,7,2.649,17,-5,1,0,0,rectangle_8,17,-5,1,0,0,17,-5,1,0,0,0,6,6,3,1,60ff42c367f96f0df9a03e25,61036b06b49c043f5f0b1b4f,2021-07-29_23h01.48.602,Simcolourproject_2stim_asymm_v5,2020.2.10,MacIntel,60,61025ae37ef11b136ea224fe,,,,,,,,,,,,,,,,,,,,,,,,,,,,,,,,,,,,,,,,,,,,,,
,,,,,,,,,,,,,FF,,,,,,,,1.201,,,,,,,,,,,,,,,,,,,,,,60ff42c367f96f0df9a03e25,61036b06b49c043f5f0b1b4f,2021-07-29_23h01.48.602,Simcolourproject_2stim_asymm_v5,2020.2.10,MacIntel,60,61025ae37ef11b136ea224fe,,,,,,,space,23.678,2796,18,50,1,0,0,response1disk,,7,13,-5,1,0,0,rectangle,13,-5,1,0,0,13,-5,1,0,0,0,0,0,108,1,,,,,,,,
,,,,,,,,,,,,,FF,,,,,,,,1.149,,,,,,,,,,,,,,,,,,,,,,60ff42c367f96f0df9a03e25,61036b06b49c043f5f0b1b4f,2021-07-29_23h01.48.602,Simcolourproject_2stim_asymm_v5,2020.2.10,MacIntel,60,61025ae37ef11b136ea224fe,,,,,,,,,841,18,65,1,0,0,response1disk,,7,-5,12,1,0,0,rectangle,-5,12,1,0,0,-5,12,1,0,0,0,1,1,81,1,,,,,,,,
,,,,,,,,,,,,,FF,,,,,,,,0.682,,,,,,,,,,,,,,,,,,,,,,60ff42c367f96f0df9a03e25,61036b06b49c043f5f0b1b4f,2021-07-29_23h01.48.602,Simcolourproject_2stim_asymm_v5,2020.2.10,MacIntel,60,61025ae37ef11b136ea224fe,,,,,,,,,4216,20,38,1,0,0,response1disk,,7,20,13,1,0,0,rectangle,20,13,1,0,0,20,13,1,0,0,0,2,2,114,1,,,,,,,,
,,,,,,,,,,,,,FF,,,,,,,,0.85,,,,,,,,,,,,,,,,,,,,,,60ff42c367f96f0df9a03e25,61036b06b49c043f5f0b1b4f,2021-07-29_23h01.48.602,Simcolourproject_2stim_asymm_v5,2020.2.10,MacIntel,60,61025ae37ef11b136ea224fe,,,,,,,,,3198,-32,48,1,0,0,response7disk,,0,-15,4,1,0,0,rectangle,-15,4,1,0,0,-15,4,1,0,0,0,3,3,145,1,,,,,,,,
,,,,,,,,,,,,,FF,,,,,,,,0.733,,,,,,,,,,,,,,,,,,,,,,60ff42c367f96f0df9a03e25,61036b06b49c043f5f0b1b4f,2021-07-29_23h01.48.602,Simcolourproject_2stim_asymm_v5,2020.2.10,MacIntel,60,61025ae37ef11b136ea224fe,,,,,,,,,1682,-30,52,1,0,0,response7disk,,0,-9,9,1,0,0,rectangle,-9,9,1,0,0,-9,9,1,0,0,0,4,4,140,1,,,,,,,,
,,,,,,,,,,,,,FF,,,,,,,,1.935,,,,,,,,,,,,,,,,,,,,,,60ff42c367f96f0df9a03e25,61036b06b49c043f5f0b1b4f,2021-07-29_23h01.48.602,Simcolourproject_2stim_asymm_v5,2020.2.10,MacIntel,60,61025ae37ef11b136ea224fe,,,,,,,,,4029,28,58,1,0,0,response1disk,,7,-2,13,1,0,0,rectangle,-2,13,1,0,0,-2,13,1,0,0,0,5,5,15,1,,,,,,,,
,,,,,,,,,,,,,FF,,,,,,,,0.617,,,,,,,,,,,,,,,,,,,,,,60ff42c367f96f0df9a03e25,61036b06b49c043f5f0b1b4f,2021-07-29_23h01.48.602,Simcolourproject_2stim_asymm_v5,2020.2.10,MacIntel,60,61025ae37ef11b136ea224fe,,,,,,,,,570,30,57,1,0,0,response1disk,,7,8,10,1,0,0,rectangle,8,10,1,0,0,8,10,1,0,0,0,6,6,95,1,,,,,,,,
,,,,,,,,,,,,,FF,,,,,,,,0.583,,,,,,,,,,,,,,,,,,,,,,60ff42c367f96f0df9a03e25,61036b06b49c043f5f0b1b4f,2021-07-29_23h01.48.602,Simcolourproject_2stim_asymm_v5,2020.2.10,MacIntel,60,61025ae37ef11b136ea224fe,,,,,,,,,1445,-29,43,1,0,0,response7disk,,0,-15,-1,1,0,0,rectangle,-15,-1,1,0,0,-15,-1,1,0,0,0,7,7,125,1,,,,,,,,
,,,,,,,,,,,,,FF,,,,,,,,0.666,,,,,,,,,,,,,,,,,,,,,,60ff42c367f96f0df9a03e25,61036b06b49c043f5f0b1b4f,2021-07-29_23h01.48.602,Simcolourproject_2stim_asymm_v5,2020.2.10,MacIntel,60,61025ae37ef11b136ea224fe,,,,,,,,,2857,10,30,1,0,0,response1disk,,7,10,4,1,0,0,rectangle,10,4,1,0,0,10,4,1,0,0,0,8,8,77,1,,,,,,,,
,,,,,,,,,,,,,FF,,,,,,,,0.733,,,,,,,,,,,,,,,,,,,,,,60ff42c367f96f0df9a03e25,61036b06b49c043f5f0b1b4f,2021-07-29_23h01.48.602,Simcolourproject_2stim_asymm_v5,2020.2.10,MacIntel,60,61025ae37ef11b136ea224fe,,,,,,,,,3757,17,53,1,0,0,response1disk,,7,10,7,1,0,0,rectangle,10,7,1,0,0,10,7,1,0,0,0,9,9,28,1,,,,,,,,
,,,,,,,,,,,,,FF,,,,,,,,0.466,,,,,,,,,,,,,,,,,,,,,,60ff42c367f96f0df9a03e25,61036b06b49c043f5f0b1b4f,2021-07-29_23h01.48.602,Simcolourproject_2stim_asymm_v5,2020.2.10,MacIntel,60,61025ae37ef11b136ea224fe,,,,,,,,,3872,19,33,1,0,0,response1disk,,7,8,-2,1,0,0,rectangle,8,-2,1,0,0,8,-2,1,0,0,0,10,10,134,1,,,,,,,,
,,,,,,,,,,,,,FF,,,,,,,,4.017,,,,,,,,,,,,,,,,,,,,,,60ff42c367f96f0df9a03e25,61036b06b49c043f5f0b1b4f,2021-07-29_23h01.48.602,Simcolourproject_2stim_asymm_v5,2020.2.10,MacIntel,60,61025ae37ef11b136ea224fe,,,,,,,,,466,20,60,1,0,0,response1disk,,7,-3,6,1,0,0,rectangle,-3,6,1,0,0,-3,6,1,0,0,0,11,11,23,1,,,,,,,,
,,,,,,,,,,,,,FF,,,,,,,,0.568,,,,,,,,,,,,,,,,,,,,,,60ff42c367f96f0df9a03e25,61036b06b49c043f5f0b1b4f,2021-07-29_23h01.48.602,Simcolourproject_2stim_asymm_v5,2020.2.10,MacIntel,60,61025ae37ef11b136ea224fe,,,,,,,,,1412,37,57,1,0,0,response1disk,,7,-3,3,1,0,0,rectangle,-3,3,1,0,0,-3,3,1,0,0,0,12,12,88,1,,,,,,,,
,,,,,,,,,,,,,FF,,,,,,,,0.549,,,,,,,,,,,,,,,,,,,,,,60ff42c367f96f0df9a03e25,61036b06b49c043f5f0b1b4f,2021-07-29_23h01.48.602,Simcolourproject_2stim_asymm_v5,2020.2.10,MacIntel,60,61025ae37ef11b136ea224fe,,,,,,,,,2046,20,40,1,0,0,response1disk,,7,7,2,1,0,0,rectangle,7,2,1,0,0,7,2,1,0,0,0,13,13,109,1,,,,,,,,
,,,,,,,,,,,,,FF,,,,,,,,0.55,,,,,,,,,,,,,,,,,,,,,,60ff42c367f96f0df9a03e25,61036b06b49c043f5f0b1b4f,2021-07-29_23h01.48.602,Simcolourproject_2stim_asymm_v5,2020.2.10,MacIntel,60,61025ae37ef11b136ea224fe,,,,,,,,,2515,18,33,1,0,0,response1disk,,7,-1,-2,1,0,0,rectangle,-1,-2,1,0,0,-1,-2,1,0,0,0,14,14,86,1,,,,,,,,
,,,,,,,,,,,,,FF,,,,,,,,0.868,,,,,,,,,,,,,,,,,,,,,,60ff42c367f96f0df9a03e25,61036b06b49c043f5f0b1b4f,2021-07-29_23h01.48.602,Simcolourproject_2stim_asymm_v5,2020.2.10,MacIntel,60,61025ae37ef11b136ea224fe,,,,,,,,,973,-25,53,1,0,0,response7disk,,0,-16,5,1,0,0,rectangle,-16,5,1,0,0,-16,5,1,0,0,0,15,15,41,1,,,,,,,,
,,,,,,,,,,,,,FF,,,,,,,,0.483,,,,,,,,,,,,,,,,,,,,,,60ff42c367f96f0df9a03e25,61036b06b49c043f5f0b1b4f,2021-07-29_23h01.48.602,Simcolourproject_2stim_asymm_v5,2020.2.10,MacIntel,60,61025ae37ef11b136ea224fe,,,,,,,,,2817,22,33,1,0,0,response1disk,,7,5,-2,1,0,0,rectangle,5,-2,1,0,0,5,-2,1,0,0,0,16,16,51,1,,,,,,,,
,,,,,,,,,,,,,FF,,,,,,,,0.584,,,,,,,,,,,,,,,,,,,,,,60ff42c367f96f0df9a03e25,61036b06b49c043f5f0b1b4f,2021-07-29_23h01.48.602,Simcolourproject_2stim_asymm_v5,2020.2.10,MacIntel,60,61025ae37ef11b136ea224fe,,,,,,,,,4251,-34,62,1,0,0,response7disk,,0,-14,4,1,0,0,rectangle,-14,4,1,0,0,-14,4,1,0,0,0,17,17,90,1,,,,,,,,
,,,,,,,,,,,,,FF,,,,,,,,0.6,,,,,,,,,,,,,,,,,,,,,,60ff42c367f96f0df9a03e25,61036b06b49c043f5f0b1b4f,2021-07-29_23h01.48.602,Simcolourproject_2stim_asymm_v5,2020.2.10,MacIntel,60,61025ae37ef11b136ea224fe,,,,,,,,,3726,18,48,1,0,0,response1disk,,7,6,13,1,0,0,rectangle,6,13,1,0,0,6,13,1,0,0,0,18,18,2,1,,,,,,,,
,,,,,,,,,,,,,FF,,,,,,,,0.468,,,,,,,,,,,,,,,,,,,,,,60ff42c367f96f0df9a03e25,61036b06b49c043f5f0b1b4f,2021-07-29_23h01.48.602,Simcolourproject_2stim_asymm_v5,2020.2.10,MacIntel,60,61025ae37ef11b136ea224fe,,,,,,,,,3363,30,42,1,0,0,response1disk,,7,2,2,1,0,0,rectangle,2,2,1,0,0,2,2,1,0,0,0,19,19,130,1,,,,,,,,
,,,,,,,,,,,,,FF,,,,,,,,0.433,,,,,,,,,,,,,,,,,,,,,,60ff42c367f96f0df9a03e25,61036b06b49c043f5f0b1b4f,2021-07-29_23h01.48.602,Simcolourproject_2stim_asymm_v5,2020.2.10,MacIntel,60,61025ae37ef11b136ea224fe,,,,,,,,,2585,17,44,1,0,0,response1disk,,7,11,6,1,0,0,rectangle,11,6,1,0,0,11,6,1,0,0,0,20,20,57,1,,,,,,,,
,,,,,,,,,,,,,FF,,,,,,,,9.166,,,,,,,,,,,,,,,,,,,,,,60ff42c367f96f0df9a03e25,61036b06b49c043f5f0b1b4f,2021-07-29_23h01.48.602,Simcolourproject_2stim_asymm_v5,2020.2.10,MacIntel,60,61025ae37ef11b136ea224fe,,,,,,,,,2168,25,55,1,0,0,response1disk,,7,-2,-4,1,0,0,rectangle,-2,-4,1,0,0,-2,-4,1,0,0,0,21,21,22,1,,,,,,,,
,,,,,,,,,,,,,FF,,,,,,,,0.467,,,,,,,,,,,,,,,,,,,,,,60ff42c367f96f0df9a03e25,61036b06b49c043f5f0b1b4f,2021-07-29_23h01.48.602,Simcolourproject_2stim_asymm_v5,2020.2.10,MacIntel,60,61025ae37ef11b136ea224fe,,,,,,,,,651,20,45,1,0,0,response1disk,,7,4,1,1,0,0,rectangle,4,1,1,0,0,4,1,1,0,0,0,22,22,56,1,,,,,,,,
,,,,,,,,,,,,,FF,,,,,,,,0.417,,,,,,,,,,,,,,,,,,,,,,60ff42c367f96f0df9a03e25,61036b06b49c043f5f0b1b4f,2021-07-29_23h01.48.602,Simcolourproject_2stim_asymm_v5,2020.2.10,MacIntel,60,61025ae37ef11b136ea224fe,,,,,,,,,1657,30,43,1,0,0,response1disk,,7,12,3,1,0,0,rectangle,12,3,1,0,0,12,3,1,0,0,0,23,23,76,1,,,,,,,,
,,,,,,,,,,,,,FF,,,,,,,,0.5,,,,,,,,,,,,,,,,,,,,,,60ff42c367f96f0df9a03e25,61036b06b49c043f5f0b1b4f,2021-07-29_23h01.48.602,Simcolourproject_2stim_asymm_v5,2020.2.10,MacIntel,60,61025ae37ef11b136ea224fe,,,,,,,,,1517,19,39,1,0,0,response1disk,,7,4,-3,1,0,0,rectangle,4,-3,1,0,0,4,-3,1,0,0,0,24,24,159,1,,,,,,,,
,,,,,,,,,,,,,FF,,,,,,,,2.05,,,,,,,,,,,,,,,,,,,,,,60ff42c367f96f0df9a03e25,61036b06b49c043f5f0b1b4f,2021-07-29_23h01.48.602,Simcolourproject_2stim_asymm_v5,2020.2.10,MacIntel,60,61025ae37ef11b136ea224fe,,,,,,,,,1492,20,45,1,0,0,response1disk,,7,11,16,1,0,0,rectangle,11,16,1,0,0,11,16,1,0,0,0,25,25,62,1,,,,,,,,
,,,,,,,,,,,,,FF,,,,,,,,0.383,,,,,,,,,,,,,,,,,,,,,,60ff42c367f96f0df9a03e25,61036b06b49c043f5f0b1b4f,2021-07-29_23h01.48.602,Simcolourproject_2stim_asymm_v5,2020.2.10,MacIntel,60,61025ae37ef11b136ea224fe,,,,,,,,,956,28,45,1,0,0,response1disk,,7,8,1,1,0,0,rectangle,8,1,1,0,0,8,1,1,0,0,0,26,26,7,1,,,,,,,,
,,,,,,,,,,,,,FF,,,,,,,,0.385,,,,,,,,,,,,,,,,,,,,,,60ff42c367f96f0df9a03e25,61036b06b49c043f5f0b1b4f,2021-07-29_23h01.48.602,Simcolourproject_2stim_asymm_v5,2020.2.10,MacIntel,60,61025ae37ef11b136ea224fe,,,,,,,,,3493,21,44,1,0,0,response1disk,,7,12,7,1,0,0,rectangle,12,7,1,0,0,12,7,1,0,0,0,27,27,66,1,,,,,,,,
,,,,,,,,,,,,,FF,,,,,,,,0.384,,,,,,,,,,,,,,,,,,,,,,60ff42c367f96f0df9a03e25,61036b06b49c043f5f0b1b4f,2021-07-29_23h01.48.602,Simcolourproject_2stim_asymm_v5,2020.2.10,MacIntel,60,61025ae37ef11b136ea224fe,,,,,,,,,2394,32,54,1,0,0,response1disk,,7,12,1,1,0,0,rectangle,12,1,1,0,0,12,1,1,0,0,0,28,28,33,1,,,,,,,,
,,,,,,,,,,,,,FF,,,,,,,,0.351,,,,,,,,,,,,,,,,,,,,,,60ff42c367f96f0df9a03e25,61036b06b49c043f5f0b1b4f,2021-07-29_23h01.48.602,Simcolourproject_2stim_asymm_v5,2020.2.10,MacIntel,60,61025ae37ef11b136ea224fe,,,,,,,,,270,17,30,1,0,0,response1disk,,7,7,-3,1,0,0,rectangle,7,-3,1,0,0,7,-3,1,0,0,0,29,29,107,1,,,,,,,,
,,,,,,,,,,,,,FF,,,,,,,,0.35,,,,,,,,,,,,,,,,,,,,,,60ff42c367f96f0df9a03e25,61036b06b49c043f5f0b1b4f,2021-07-29_23h01.48.602,Simcolourproject_2stim_asymm_v5,2020.2.10,MacIntel,60,61025ae37ef11b136ea224fe,,,,,,,,,2808,19,41,1,0,0,response1disk,,7,13,2,1,0,0,rectangle,13,2,1,0,0,13,2,1,0,0,0,30,30,126,1,,,,,,,,
,,,,,,,,,,,,,FF,,,,,,,,0.499,,,,,,,,,,,,,,,,,,,,,,60ff42c367f96f0df9a03e25,61036b06b49c043f5f0b1b4f,2021-07-29_23h01.48.602,Simcolourproject_2stim_asymm_v5,2020.2.10,MacIntel,60,61025ae37ef11b136ea224fe,,,,,,,,,2216,16,36,1,0,0,response1disk,,7,13,10,1,0,0,rectangle,13,10,1,0,0,13,10,1,0,0,0,31,31,49,1,,,,,,,,
,,,,,,,,,,,,,FF,,,,,,,,0.367,,,,,,,,,,,,,,,,,,,,,,60ff42c367f96f0df9a03e25,61036b06b49c043f5f0b1b4f,2021-07-29_23h01.48.602,Simcolourproject_2stim_asymm_v5,2020.2.10,MacIntel,60,61025ae37ef11b136ea224fe,,,,,,,,,992,28,34,1,0,0,response1disk,,7,5,-4,1,0,0,rectangle,5,-4,1,0,0,5,-4,1,0,0,0,32,32,91,1,,,,,,,,
,,,,,,,,,,,,,FF,,,,,,,,0.501,,,,,,,,,,,,,,,,,,,,,,60ff42c367f96f0df9a03e25,61036b06b49c043f5f0b1b4f,2021-07-29_23h01.48.602,Simcolourproject_2stim_asymm_v5,2020.2.10,MacIntel,60,61025ae37ef11b136ea224fe,,,,,,,,,1428,13,43,1,0,0,response1disk,,7,10,3,1,0,0,rectangle,10,3,1,0,0,10,3,1,0,0,0,33,33,39,1,,,,,,,,
,,,,,,,,,,,,,FF,,,,,,,,1.501,,,,,,,,,,,,,,,,,,,,,,60ff42c367f96f0df9a03e25,61036b06b49c043f5f0b1b4f,2021-07-29_23h01.48.602,Simcolourproject_2stim_asymm_v5,2020.2.10,MacIntel,60,61025ae37ef11b136ea224fe,,,,,,,,,3104,-23,51,1,0,0,response7disk,,0,-19,7,1,0,0,rectangle,-19,7,1,0,0,-19,7,1,0,0,0,34,34,135,1,,,,,,,,
,,,,,,,,,,,,,FF,,,,,,,,0.351,,,,,,,,,,,,,,,,,,,,,,60ff42c367f96f0df9a03e25,61036b06b49c043f5f0b1b4f,2021-07-29_23h01.48.602,Simcolourproject_2stim_asymm_v5,2020.2.10,MacIntel,60,61025ae37ef11b136ea224fe,,,,,,,,,2152,29,43,1,0,0,response1disk,,7,-2,-5,1,0,0,rectangle,-2,-5,1,0,0,-2,-5,1,0,0,0,35,35,8,1,,,,,,,,
,,,,,,,,,,,,,FF,,,,,,,,0.351,,,,,,,,,,,,,,,,,,,,,,60ff42c367f96f0df9a03e25,61036b06b49c043f5f0b1b4f,2021-07-29_23h01.48.602,Simcolourproject_2stim_asymm_v5,2020.2.10,MacIntel,60,61025ae37ef11b136ea224fe,,,,,,,,,312,18,37,1,0,0,response1disk,,7,8,3,1,0,0,rectangle,8,3,1,0,0,8,3,1,0,0,0,36,36,87,1,,,,,,,,
,,,,,,,,,,,,,FF,,,,,,,,0.368,,,,,,,,,,,,,,,,,,,,,,60ff42c367f96f0df9a03e25,61036b06b49c043f5f0b1b4f,2021-07-29_23h01.48.602,Simcolourproject_2stim_asymm_v5,2020.2.10,MacIntel,60,61025ae37ef11b136ea224fe,,,,,,,,,2401,26,45,1,0,0,response1disk,,7,16,4,1,0,0,rectangle,16,4,1,0,0,16,4,1,0,0,0,37,37,47,1,,,,,,,,
,,,,,,,,,,,,,FF,,,,,,,,0.416,,,,,,,,,,,,,,,,,,,,,,60ff42c367f96f0df9a03e25,61036b06b49c043f5f0b1b4f,2021-07-29_23h01.48.602,Simcolourproject_2stim_asymm_v5,2020.2.10,MacIntel,60,61025ae37ef11b136ea224fe,,,,,,,,,4128,14,39,1,0,0,response1disk,,7,12,2,1,0,0,rectangle,12,2,1,0,0,12,2,1,0,0,0,38,38,14,1,,,,,,,,
,,,,,,,,,,,,,FF,,,,,,,,0.366,,,,,,,,,,,,,,,,,,,,,,60ff42c367f96f0df9a03e25,61036b06b49c043f5f0b1b4f,2021-07-29_23h01.48.602,Simcolourproject_2stim_asymm_v5,2020.2.10,MacIntel,60,61025ae37ef11b136ea224fe,,,,,,,,,2573,28,46,1,0,0,response1disk,,7,3,8,1,0,0,rectangle,3,8,1,0,0,3,8,1,0,0,0,39,39,154,1,,,,,,,,
,,,,,,,,,,,,,FF,,,,,,,,0.416,,,,,,,,,,,,,,,,,,,,,,60ff42c367f96f0df9a03e25,61036b06b49c043f5f0b1b4f,2021-07-29_23h01.48.602,Simcolourproject_2stim_asymm_v5,2020.2.10,MacIntel,60,61025ae37ef11b136ea224fe,,,,,,,,,2221,17,44,1,0,0,response1disk,,7,6,5,1,0,0,rectangle,6,5,1,0,0,6,5,1,0,0,0,40,40,121,1,,,,,,,,
,,,,,,,,,,,,,FF,,,,,,,,0.417,,,,,,,,,,,,,,,,,,,,,,60ff42c367f96f0df9a03e25,61036b06b49c043f5f0b1b4f,2021-07-29_23h01.48.602,Simcolourproject_2stim_asymm_v5,2020.2.10,MacIntel,60,61025ae37ef11b136ea224fe,,,,,,,,,239,28,47,1,0,0,response1disk,,7,10,9,1,0,0,rectangle,10,9,1,0,0,10,9,1,0,0,0,41,41,11,1,,,,,,,,
,,,,,,,,,,,,,FF,,,,,,,,0.317,,,,,,,,,,,,,,,,,,,,,,60ff42c367f96f0df9a03e25,61036b06b49c043f5f0b1b4f,2021-07-29_23h01.48.602,Simcolourproject_2stim_asymm_v5,2020.2.10,MacIntel,60,61025ae37ef11b136ea224fe,,,,,,,,,4264,17,36,1,0,0,response1disk,,7,8,-2,1,0,0,rectangle,8,-2,1,0,0,8,-2,1,0,0,0,42,42,55,1,,,,,,,,
,,,,,,,,,,,,,FF,,,,,,,,0.4,,,,,,,,,,,,,,,,,,,,,,60ff42c367f96f0df9a03e25,61036b06b49c043f5f0b1b4f,2021-07-29_23h01.48.602,Simcolourproject_2stim_asymm_v5,2020.2.10,MacIntel,60,61025ae37ef11b136ea224fe,,,,,,,,,3547,28,43,1,0,0,response1disk,,7,9,6,1,0,0,rectangle,9,6,1,0,0,9,6,1,0,0,0,43,43,10,1,,,,,,,,
,,,,,,,,,,,,,FF,,,,,,,,0.5,,,,,,,,,,,,,,,,,,,,,,60ff42c367f96f0df9a03e25,61036b06b49c043f5f0b1b4f,2021-07-29_23h01.48.602,Simcolourproject_2stim_asymm_v5,2020.2.10,MacIntel,60,61025ae37ef11b136ea224fe,,,,,,,,,885,-32,42,1,0,0,response7disk,,0,-4,0,1,0,0,rectangle,-27,-60,1,0,0,-8,7,1,0,0,0,44,44,133,1,,response5disk_3,TRUE,3,3,"[209,55,222,140,177,110,294,176,110,122,45,46,273,139,244,237,159,70,230,283]",3.299,rectangle
,,,,,,,,,,,,,FF,,,,,,,,2.217,,,,,,,,,,,,,,,,,,,,,,60ff42c367f96f0df9a03e25,61036b06b49c043f5f0b1b4f,2021-07-29_23h01.48.602,Simcolourproject_2stim_asymm_v5,2020.2.10,MacIntel,60,61025ae37ef11b136ea224fe,,,,,,,,,2978,22,54,1,0,0,response1disk,,7,-4,-8,1,0,0,rectangle,-32,57,1,0,0,10,8,1,0,0,0,45,45,65,1,,response7disk_3,TRUE,0,0,"[209,55,222,140,177,110,294,176,110,122,45,46,273,139,244,237,159,70,230,283]",3.399,rectangle
,,,,,,,,,,,,,FF,,,,,,,,0.584,,,,,,,,,,,,,,,,,,,,,,60ff42c367f96f0df9a03e25,61036b06b49c043f5f0b1b4f,2021-07-29_23h01.48.602,Simcolourproject_2stim_asymm_v5,2020.2.10,MacIntel,60,61025ae37ef11b136ea224fe,,,,,,,,,3304,15,39,1,0,0,response1disk,,7,9,2,1,0,0,rectangle,9,2,1,0,0,9,2,1,0,0,0,46,46,37,1,,,,,,,,
,,,,,,,,,,,,,FF,,,,,,,,0.666,,,,,,,,,,,,,,,,,,,,,,60ff42c367f96f0df9a03e25,61036b06b49c043f5f0b1b4f,2021-07-29_23h01.48.602,Simcolourproject_2stim_asymm_v5,2020.2.10,MacIntel,60,61025ae37ef11b136ea224fe,,,,,,,,,2145,25,39,1,0,0,response1disk,,7,12,2,1,0,0,rectangle,12,2,1,0,0,12,2,1,0,0,0,47,47,26,1,,,,,,,,
,,,,,,,,,,,,,FF,,,,,,,,0.601,,,,,,,,,,,,,,,,,,,,,,60ff42c367f96f0df9a03e25,61036b06b49c043f5f0b1b4f,2021-07-29_23h01.48.602,Simcolourproject_2stim_asymm_v5,2020.2.10,MacIntel,60,61025ae37ef11b136ea224fe,,,,,,,,,3529,17,27,1,0,0,response1disk,,7,13,5,1,0,0,rectangle,13,5,1,0,0,13,5,1,0,0,0,48,48,24,1,,,,,,,,
,,,,,,,,,,,,,FF,,,,,,,,0.633,,,,,,,,,,,,,,,,,,,,,,60ff42c367f96f0df9a03e25,61036b06b49c043f5f0b1b4f,2021-07-29_23h01.48.602,Simcolourproject_2stim_asymm_v5,2020.2.10,MacIntel,60,61025ae37ef11b136ea224fe,,,,,,,,,1983,13,36,1,0,0,response1disk,,7,13,7,1,0,0,rectangle,13,7,1,0,0,13,7,1,0,0,0,49,49,99,1,,,,,,,,
,,,,,,,,,,,,,FF,,,,,,,,0.817,,,,,,,,,,,,,,,,,,,,,,60ff42c367f96f0df9a03e25,61036b06b49c043f5f0b1b4f,2021-07-29_23h01.48.602,Simcolourproject_2stim_asymm_v5,2020.2.10,MacIntel,60,61025ae37ef11b136ea224fe,,,,,,,,,4326,-16,43,1,0,0,response7disk,,0,-13,4,1,0,0,rectangle,-13,4,1,0,0,-13,4,1,0,0,0,50,50,35,1,,,,,,,,
,,,,,,,,,,,,,FF,,,,,,,,0.882,,,,,,,,,,,,,,,,,,,,,,60ff42c367f96f0df9a03e25,61036b06b49c043f5f0b1b4f,2021-07-29_23h01.48.602,Simcolourproject_2stim_asymm_v5,2020.2.10,MacIntel,60,61025ae37ef11b136ea224fe,,,,,,,,,242,26,56,1,0,0,response1disk,,7,14,15,1,0,0,rectangle,14,15,1,0,0,14,15,1,0,0,0,51,51,96,1,,,,,,,,
,,,,,,,,,,,,,FF,,,,,,,,0.418,,,,,,,,,,,,,,,,,,,,,,60ff42c367f96f0df9a03e25,61036b06b49c043f5f0b1b4f,2021-07-29_23h01.48.602,Simcolourproject_2stim_asymm_v5,2020.2.10,MacIntel,60,61025ae37ef11b136ea224fe,,,,,,,,,3541,30,48,1,0,0,response1disk,,7,11,-1,1,0,0,rectangle,11,-1,1,0,0,11,-1,1,0,0,0,52,52,61,1,,,,,,,,
,,,,,,,,,,,,,FF,,,,,,,,0.433,,,,,,,,,,,,,,,,,,,,,,60ff42c367f96f0df9a03e25,61036b06b49c043f5f0b1b4f,2021-07-29_23h01.48.602,Simcolourproject_2stim_asymm_v5,2020.2.10,MacIntel,60,61025ae37ef11b136ea224fe,,,,,,,,,3023,16,33,1,0,0,response1disk,,7,3,-2,1,0,0,rectangle,3,-2,1,0,0,3,-2,1,0,0,0,53,53,16,1,,,,,,,,
,,,,,,,,,,,,,FF,,,,,,,,0.433,,,,,,,,,,,,,,,,,,,,,,60ff42c367f96f0df9a03e25,61036b06b49c043f5f0b1b4f,2021-07-29_23h01.48.602,Simcolourproject_2stim_asymm_v5,2020.2.10,MacIntel,60,61025ae37ef11b136ea224fe,,,,,,,,,2395,17,40,1,0,0,response1disk,,7,-2,2,1,0,0,rectangle,-52,29,1,0,0,-10,5,1,0,0,0,54,54,94,1,,response7disk_3,TRUE,1,1,"[209,55,222,140,177,110,294,176,110,122,45,46,273,139,244,237,159,70,230,283]",1.916,rectangle
,,,,,,,,,,,,,FF,,,,,,,,1.349,,,,,,,,,,,,,,,,,,,,,,60ff42c367f96f0df9a03e25,61036b06b49c043f5f0b1b4f,2021-07-29_23h01.48.602,Simcolourproject_2stim_asymm_v5,2020.2.10,MacIntel,60,61025ae37ef11b136ea224fe,,,,,,,,,3635,13,49,1,0,0,response1disk,,7,8,-1,1,0,0,rectangle,8,-1,1,0,0,8,-1,1,0,0,0,55,55,54,1,,,,,,,,
,,,,,,,,,,,,,FF,,,,,,,,0.4,,,,,,,,,,,,,,,,,,,,,,60ff42c367f96f0df9a03e25,61036b06b49c043f5f0b1b4f,2021-07-29_23h01.48.602,Simcolourproject_2stim_asymm_v5,2020.2.10,MacIntel,60,61025ae37ef11b136ea224fe,,,,,,,,,2399,26,48,1,0,0,response1disk,,7,7,-8,1,0,0,rectangle,7,-8,1,0,0,7,-8,1,0,0,0,56,56,68,1,,,,,,,,
,,,,,,,,,,,,,FF,,,,,,,,0.383,,,,,,,,,,,,,,,,,,,,,,60ff42c367f96f0df9a03e25,61036b06b49c043f5f0b1b4f,2021-07-29_23h01.48.602,Simcolourproject_2stim_asymm_v5,2020.2.10,MacIntel,60,61025ae37ef11b136ea224fe,,,,,,,,,214,35,58,1,0,0,response1disk,,7,-11,4,1,0,0,rectangle,-11,4,1,0,0,-11,4,1,0,0,0,57,57,123,1,,,,,,,,
,,,,,,,,,,,,,FF,,,,,,,,0.599,,,,,,,,,,,,,,,,,,,,,,60ff42c367f96f0df9a03e25,61036b06b49c043f5f0b1b4f,2021-07-29_23h01.48.602,Simcolourproject_2stim_asymm_v5,2020.2.10,MacIntel,60,61025ae37ef11b136ea224fe,,,,,,,,,3367,18,56,1,0,0,response1disk,,7,-2,1,1,0,0,rectangle,-2,1,1,0,0,-2,1,1,0,0,0,58,58,118,1,,,,,,,,
,,,,,,,,,,,,,FF,,,,,,,,0.567,,,,,,,,,,,,,,,,,,,,,,60ff42c367f96f0df9a03e25,61036b06b49c043f5f0b1b4f,2021-07-29_23h01.48.602,Simcolourproject_2stim_asymm_v5,2020.2.10,MacIntel,60,61025ae37ef11b136ea224fe,,,,,,,,,3901,17,39,1,0,0,response1disk,,7,-3,-2,1,0,0,rectangle,-3,-2,1,0,0,-3,-2,1,0,0,0,59,59,48,1,,,,,,,,
,,,,,,,,,,,,,FF,,,,,,,,0.383,,,,,,,,,,,,,,,,,,,,,,60ff42c367f96f0df9a03e25,61036b06b49c043f5f0b1b4f,2021-07-29_23h01.48.602,Simcolourproject_2stim_asymm_v5,2020.2.10,MacIntel,60,61025ae37ef11b136ea224fe,,,,,,,,,4314,23,44,1,0,0,response1disk,,7,10,-7,1,0,0,rectangle,10,-7,1,0,0,10,-7,1,0,0,0,60,60,147,1,,,,,,,,
,,,,,,,,,,,,,FF,,,,,,,,0.5,,,,,,,,,,,,,,,,,,,,,,60ff42c367f96f0df9a03e25,61036b06b49c043f5f0b1b4f,2021-07-29_23h01.48.602,Simcolourproject_2stim_asymm_v5,2020.2.10,MacIntel,60,61025ae37ef11b136ea224fe,,,,,,,,,3824,18,39,1,0,0,response1disk,,7,7,4,1,0,0,rectangle,7,4,1,0,0,7,4,1,0,0,0,61,61,122,1,,,,,,,,
,,,,,,,,,,,,,FF,,,,,,,,0.417,,,,,,,,,,,,,,,,,,,,,,60ff42c367f96f0df9a03e25,61036b06b49c043f5f0b1b4f,2021-07-29_23h01.48.602,Simcolourproject_2stim_asymm_v5,2020.2.10,MacIntel,60,61025ae37ef11b136ea224fe,,,,,,,,,2938,22,48,1,0,0,response1disk,,7,4,9,1,0,0,rectangle,4,9,1,0,0,4,9,1,0,0,0,62,62,52,1,,,,,,,,
,,,,,,,,,,,,,FF,,,,,,,,0.517,,,,,,,,,,,,,,,,,,,,,,60ff42c367f96f0df9a03e25,61036b06b49c043f5f0b1b4f,2021-07-29_23h01.48.602,Simcolourproject_2stim_asymm_v5,2020.2.10,MacIntel,60,61025ae37ef11b136ea224fe,,,,,,,,,475,22,44,1,0,0,response1disk,,7,1,-11,1,0,0,rectangle,1,-11,1,0,0,1,-11,1,0,0,0,63,63,63,1,,,,,,,,
,,,,,,,,,,,,,FF,,,,,,,,0.567,,,,,,,,,,,,,,,,,,,,,,60ff42c367f96f0df9a03e25,61036b06b49c043f5f0b1b4f,2021-07-29_23h01.48.602,Simcolourproject_2stim_asymm_v5,2020.2.10,MacIntel,60,61025ae37ef11b136ea224fe,,,,,,,,,2750,21,37,1,0,0,response1disk,,7,5,1,1,0,0,rectangle,5,1,1,0,0,5,1,1,0,0,0,64,64,119,1,,,,,,,,
,,,,,,,,,,,,,FF,,,,,,,,0.4,,,,,,,,,,,,,,,,,,,,,,60ff42c367f96f0df9a03e25,61036b06b49c043f5f0b1b4f,2021-07-29_23h01.48.602,Simcolourproject_2stim_asymm_v5,2020.2.10,MacIntel,60,61025ae37ef11b136ea224fe,,,,,,,,,1266,27,50,1,0,0,response1disk,,7,2,2,1,0,0,rectangle,2,2,1,0,0,2,2,1,0,0,0,65,65,82,1,,,,,,,,
,,,,,,,,,,,,,FF,,,,,,,,0.483,,,,,,,,,,,,,,,,,,,,,,60ff42c367f96f0df9a03e25,61036b06b49c043f5f0b1b4f,2021-07-29_23h01.48.602,Simcolourproject_2stim_asymm_v5,2020.2.10,MacIntel,60,61025ae37ef11b136ea224fe,,,,,,,,,1228,29,49,1,0,0,response1disk,,7,-2,-5,1,0,0,rectangle,-2,-5,1,0,0,-2,-5,1,0,0,0,66,66,40,1,,,,,,,,
,,,,,,,,,,,,,FF,,,,,,,,0.317,,,,,,,,,,,,,,,,,,,,,,60ff42c367f96f0df9a03e25,61036b06b49c043f5f0b1b4f,2021-07-29_23h01.48.602,Simcolourproject_2stim_asymm_v5,2020.2.10,MacIntel,60,61025ae37ef11b136ea224fe,,,,,,,,,2293,17,44,1,0,0,response1disk,,7,4,2,1,0,0,rectangle,4,2,1,0,0,4,2,1,0,0,0,67,67,93,1,,,,,,,,
,,,,,,,,,,,,,FF,,,,,,,,0.384,,,,,,,,,,,,,,,,,,,,,,60ff42c367f96f0df9a03e25,61036b06b49c043f5f0b1b4f,2021-07-29_23h01.48.602,Simcolourproject_2stim_asymm_v5,2020.2.10,MacIntel,60,61025ae37ef11b136ea224fe,,,,,,,,,1591,20,36,1,0,0,response1disk,,7,2,3,1,0,0,rectangle,2,3,1,0,0,2,3,1,0,0,0,68,68,156,1,,,,,,,,
,,,,,,,,,,,,,FF,,,,,,,,0.417,,,,,,,,,,,,,,,,,,,,,,60ff42c367f96f0df9a03e25,61036b06b49c043f5f0b1b4f,2021-07-29_23h01.48.602,Simcolourproject_2stim_asymm_v5,2020.2.10,MacIntel,60,61025ae37ef11b136ea224fe,,,,,,,,,3555,11,41,1,0,0,response1disk,,7,-4,-2,1,0,0,rectangle,-28,-35,1,0,0,-10,2,1,0,0,0,69,69,141,1,,response5disk_3,TRUE,3,3,"[209,55,222,140,177,110,294,176,110,122,45,46,273,139,244,237,159,70,230,283]",2.366,rectangle
,,,,,,,,,,,,,FF,,,,,,,,0.916,,,,,,,,,,,,,,,,,,,,,,60ff42c367f96f0df9a03e25,61036b06b49c043f5f0b1b4f,2021-07-29_23h01.48.602,Simcolourproject_2stim_asymm_v5,2020.2.10,MacIntel,60,61025ae37ef11b136ea224fe,,,,,,,,,1667,10,44,1,0,0,response1disk,,7,-2,-2,1,0,0,rectangle,-2,-2,1,0,0,-2,-2,1,0,0,0,70,70,31,1,,,,,,,,
,,,,,,,,,,,,,FF,,,,,,,,0.55,,,,,,,,,,,,,,,,,,,,,,60ff42c367f96f0df9a03e25,61036b06b49c043f5f0b1b4f,2021-07-29_23h01.48.602,Simcolourproject_2stim_asymm_v5,2020.2.10,MacIntel,60,61025ae37ef11b136ea224fe,,,,,,,,,770,20,43,1,0,0,response1disk,,7,6,4,1,0,0,rectangle,6,4,1,0,0,6,4,1,0,0,0,71,71,4,1,,,,,,,,
,,,,,,,,,,,,,FF,,,,,,,,0.55,,,,,,,,,,,,,,,,,,,,,,60ff42c367f96f0df9a03e25,61036b06b49c043f5f0b1b4f,2021-07-29_23h01.48.602,Simcolourproject_2stim_asymm_v5,2020.2.10,MacIntel,60,61025ae37ef11b136ea224fe,,,,,,,,,2866,19,42,1,0,0,response1disk,,7,-6,2,1,0,0,rectangle,-6,2,1,0,0,-6,2,1,0,0,0,72,72,85,1,,,,,,,,
,,,,,,,,,,,,,FF,,,,,,,,0.368,,,,,,,,,,,,,,,,,,,,,,60ff42c367f96f0df9a03e25,61036b06b49c043f5f0b1b4f,2021-07-29_23h01.48.602,Simcolourproject_2stim_asymm_v5,2020.2.10,MacIntel,60,61025ae37ef11b136ea224fe,,,,,,,,,2140,19,42,1,0,0,response1disk,,7,1,5,1,0,0,rectangle,1,5,1,0,0,1,5,1,0,0,0,73,73,149,1,,,,,,,,
,,,,,,,,,,,,,FF,,,,,,,,0.435,,,,,,,,,,,,,,,,,,,,,,60ff42c367f96f0df9a03e25,61036b06b49c043f5f0b1b4f,2021-07-29_23h01.48.602,Simcolourproject_2stim_asymm_v5,2020.2.10,MacIntel,60,61025ae37ef11b136ea224fe,,,,,,,,,666,19,40,1,0,0,response1disk,,7,9,1,1,0,0,rectangle,9,1,1,0,0,9,1,1,0,0,0,74,74,27,1,,,,,,,,
,,,,,,,,,,,,,FF,,,,,,,,0.484,,,,,,,,,,,,,,,,,,,,,,60ff42c367f96f0df9a03e25,61036b06b49c043f5f0b1b4f,2021-07-29_23h01.48.602,Simcolourproject_2stim_asymm_v5,2020.2.10,MacIntel,60,61025ae37ef11b136ea224fe,,,,,,,,,1364,19,47,1,0,0,response1disk,,7,14,11,1,0,0,rectangle,14,11,1,0,0,14,11,1,0,0,0,75,75,158,1,,,,,,,,
,,,,,,,,,,,,,FF,,,,,,,,0.584,,,,,,,,,,,,,,,,,,,,,,60ff42c367f96f0df9a03e25,61036b06b49c043f5f0b1b4f,2021-07-29_23h01.48.602,Simcolourproject_2stim_asymm_v5,2020.2.10,MacIntel,60,61025ae37ef11b136ea224fe,,,,,,,,,2917,24,46,1,0,0,response1disk,,7,-12,-15,1,0,0,rectangle,-12,-15,1,0,0,-12,-15,1,0,0,0,76,76,1,1,,,,,,,,
,,,,,,,,,,,,,FF,,,,,,,,0.466,,,,,,,,,,,,,,,,,,,,,,60ff42c367f96f0df9a03e25,61036b06b49c043f5f0b1b4f,2021-07-29_23h01.48.602,Simcolourproject_2stim_asymm_v5,2020.2.10,MacIntel,60,61025ae37ef11b136ea224fe,,,,,,,,,2572,27,33,1,0,0,response1disk,,7,4,1,1,0,0,rectangle,4,1,1,0,0,4,1,1,0,0,0,77,77,60,1,,,,,,,,
,,,,,,,,,,,,,FF,,,,,,,,1.482,,,,,,,,,,,,,,,,,,,,,,60ff42c367f96f0df9a03e25,61036b06b49c043f5f0b1b4f,2021-07-29_23h01.48.602,Simcolourproject_2stim_asymm_v5,2020.2.10,MacIntel,60,61025ae37ef11b136ea224fe,,,,,,,,,4268,20,62,1,0,0,response1disk,,7,-4,-3,1,0,0,rectangle,-4,-3,1,0,0,-4,-3,1,0,0,0,78,78,115,1,,,,,,,,
,,,,,,,,,,,,,FF,,,,,,,,0.552,,,,,,,,,,,,,,,,,,,,,,60ff42c367f96f0df9a03e25,61036b06b49c043f5f0b1b4f,2021-07-29_23h01.48.602,Simcolourproject_2stim_asymm_v5,2020.2.10,MacIntel,60,61025ae37ef11b136ea224fe,,,,,,,,,1885,9,38,1,0,0,response1disk,,7,7,12,1,0,0,rectangle,7,12,1,0,0,7,12,1,0,0,0,79,79,113,1,,,,,,,,
,,,,,,,,,,,,,FF,,,,,,,,0.517,,,,,,,,,,,,,,,,,,,,,,60ff42c367f96f0df9a03e25,61036b06b49c043f5f0b1b4f,2021-07-29_23h01.48.602,Simcolourproject_2stim_asymm_v5,2020.2.10,MacIntel,60,61025ae37ef11b136ea224fe,,,,,,,,,3445,31,49,1,0,0,response1disk,,7,6,3,1,0,0,rectangle,6,3,1,0,0,6,3,1,0,0,0,80,80,150,1,,,,,,,,
,,,,,,,,,,,,,FF,,,,,,,,0.467,,,,,,,,,,,,,,,,,,,,,,60ff42c367f96f0df9a03e25,61036b06b49c043f5f0b1b4f,2021-07-29_23h01.48.602,Simcolourproject_2stim_asymm_v5,2020.2.10,MacIntel,60,61025ae37ef11b136ea224fe,,,,,,,,,4178,20,49,1,0,0,response1disk,,7,-14,2,1,0,0,rectangle,-14,2,1,0,0,-14,2,1,0,0,0,81,81,128,1,,,,,,,,
,,,,,,,,,,,,,FF,,,,,,,,0.466,,,,,,,,,,,,,,,,,,,,,,60ff42c367f96f0df9a03e25,61036b06b49c043f5f0b1b4f,2021-07-29_23h01.48.602,Simcolourproject_2stim_asymm_v5,2020.2.10,MacIntel,60,61025ae37ef11b136ea224fe,,,,,,,,,1429,15,41,1,0,0,response1disk,,7,0,2,1,0,0,rectangle,0,2,1,0,0,0,2,1,0,0,0,82,82,92,1,,,,,,,,
,,,,,,,,,,,,,FF,,,,,,,,0.45,,,,,,,,,,,,,,,,,,,,,,60ff42c367f96f0df9a03e25,61036b06b49c043f5f0b1b4f,2021-07-29_23h01.48.602,Simcolourproject_2stim_asymm_v5,2020.2.10,MacIntel,60,61025ae37ef11b136ea224fe,,,,,,,,,3019,25,44,1,0,0,response1disk,,7,4,12,1,0,0,rectangle,4,12,1,0,0,4,12,1,0,0,0,83,83,148,1,,,,,,,,
,,,,,,,,,,,,,FF,,,,,,,,0.466,,,,,,,,,,,,,,,,,,,,,,60ff42c367f96f0df9a03e25,61036b06b49c043f5f0b1b4f,2021-07-29_23h01.48.602,Simcolourproject_2stim_asymm_v5,2020.2.10,MacIntel,60,61025ae37ef11b136ea224fe,,,,,,,,,2958,23,63,1,0,0,response1disk,,7,-5,-5,1,0,0,rectangle,-5,-5,1,0,0,-5,-5,1,0,0,0,84,84,132,1,,,,,,,,
,,,,,,,,,,,,,FF,,,,,,,,0.483,,,,,,,,,,,,,,,,,,,,,,60ff42c367f96f0df9a03e25,61036b06b49c043f5f0b1b4f,2021-07-29_23h01.48.602,Simcolourproject_2stim_asymm_v5,2020.2.10,MacIntel,60,61025ae37ef11b136ea224fe,,,,,,,,,2790,25,33,1,0,0,response1disk,,7,1,-11,1,0,0,rectangle,1,-11,1,0,0,1,-11,1,0,0,0,85,85,83,1,,,,,,,,
,,,,,,,,,,,,,FF,,,,,,,,0.766,,,,,,,,,,,,,,,,,,,,,,60ff42c367f96f0df9a03e25,61036b06b49c043f5f0b1b4f,2021-07-29_23h01.48.602,Simcolourproject_2stim_asymm_v5,2020.2.10,MacIntel,60,61025ae37ef11b136ea224fe,,,,,,,,,2310,20,36,1,0,0,response1disk,,7,20,8,1,0,0,rectangle,20,8,1,0,0,20,8,1,0,0,0,86,86,32,1,,,,,,,,
,,,,,,,,,,,,,FF,,,,,,,,0.517,,,,,,,,,,,,,,,,,,,,,,60ff42c367f96f0df9a03e25,61036b06b49c043f5f0b1b4f,2021-07-29_23h01.48.602,Simcolourproject_2stim_asymm_v5,2020.2.10,MacIntel,60,61025ae37ef11b136ea224fe,,,,,,,,,608,17,44,1,0,0,response1disk,,7,5,11,1,0,0,rectangle,5,11,1,0,0,5,11,1,0,0,0,87,87,75,1,,,,,,,,
,,,,,,,,,,,,,FF,,,,,,,,0.467,,,,,,,,,,,,,,,,,,,,,,60ff42c367f96f0df9a03e25,61036b06b49c043f5f0b1b4f,2021-07-29_23h01.48.602,Simcolourproject_2stim_asymm_v5,2020.2.10,MacIntel,60,61025ae37ef11b136ea224fe,,,,,,,,,237,27,40,1,0,0,response1disk,,7,-2,-1,1,0,0,rectangle,-2,-1,1,0,0,-2,-1,1,0,0,0,88,88,97,1,,,,,,,,
,,,,,,,,,,,,,FF,,,,,,,,0.6,,,,,,,,,,,,,,,,,,,,,,60ff42c367f96f0df9a03e25,61036b06b49c043f5f0b1b4f,2021-07-29_23h01.48.602,Simcolourproject_2stim_asymm_v5,2020.2.10,MacIntel,60,61025ae37ef11b136ea224fe,,,,,,,,,3668,-30,47,1,0,0,response7disk,,0,-21,0,1,0,0,rectangle,-21,0,1,0,0,-21,0,1,0,0,0,89,89,136,1,,,,,,,,
,,,,,,,,,,,,,FF,,,,,,,,0.351,,,,,,,,,,,,,,,,,,,,,,60ff42c367f96f0df9a03e25,61036b06b49c043f5f0b1b4f,2021-07-29_23h01.48.602,Simcolourproject_2stim_asymm_v5,2020.2.10,MacIntel,60,61025ae37ef11b136ea224fe,,,,,,,,,2569,31,45,1,0,0,response1disk,,7,1,-2,1,0,0,rectangle,1,-2,1,0,0,1,-2,1,0,0,0,90,90,46,1,,,,,,,,
,,,,,,,,,,,,,FF,,,,,,,,0.467,,,,,,,,,,,,,,,,,,,,,,60ff42c367f96f0df9a03e25,61036b06b49c043f5f0b1b4f,2021-07-29_23h01.48.602,Simcolourproject_2stim_asymm_v5,2020.2.10,MacIntel,60,61025ae37ef11b136ea224fe,,,,,,,,,2115,22,58,1,0,0,response1disk,,7,2,7,1,0,0,rectangle,2,7,1,0,0,2,7,1,0,0,0,91,91,146,1,,,,,,,,
,,,,,,,,,,,,,FF,,,,,,,,0.333,,,,,,,,,,,,,,,,,,,,,,60ff42c367f96f0df9a03e25,61036b06b49c043f5f0b1b4f,2021-07-29_23h01.48.602,Simcolourproject_2stim_asymm_v5,2020.2.10,MacIntel,60,61025ae37ef11b136ea224fe,,,,,,,,,3753,16,49,1,0,0,response1disk,,7,14,8,1,0,0,rectangle,14,8,1,0,0,14,8,1,0,0,0,92,92,30,1,,,,,,,,
,,,,,,,,,,,,,FF,,,,,,,,0.667,,,,,,,,,,,,,,,,,,,,,,60ff42c367f96f0df9a03e25,61036b06b49c043f5f0b1b4f,2021-07-29_23h01.48.602,Simcolourproject_2stim_asymm_v5,2020.2.10,MacIntel,60,61025ae37ef11b136ea224fe,,,,,,,,,3436,9,51,1,0,0,response1disk,,7,13,11,1,0,0,rectangle,13,11,1,0,0,13,11,1,0,0,0,93,93,59,1,,,,,,,,
,,,,,,,,,,,,,FF,,,,,,,,0.484,,,,,,,,,,,,,,,,,,,,,,60ff42c367f96f0df9a03e25,61036b06b49c043f5f0b1b4f,2021-07-29_23h01.48.602,Simcolourproject_2stim_asymm_v5,2020.2.10,MacIntel,60,61025ae37ef11b136ea224fe,,,,,,,,,558,18,41,1,0,0,response1disk,,7,14,-5,1,0,0,rectangle,14,-5,1,0,0,14,-5,1,0,0,0,94,94,131,1,,,,,,,,
,,,,,,,,,,,,,FF,,,,,,,,0.516,,,,,,,,,,,,,,,,,,,,,,60ff42c367f96f0df9a03e25,61036b06b49c043f5f0b1b4f,2021-07-29_23h01.48.602,Simcolourproject_2stim_asymm_v5,2020.2.10,MacIntel,60,61025ae37ef11b136ea224fe,,,,,,,,,2111,21,49,1,0,0,response1disk,,7,8,12,1,0,0,rectangle,8,12,1,0,0,8,12,1,0,0,0,95,95,104,1,,,,,,,,
,,,,,,,,,,,,,FF,,,,,,,,0.517,,,,,,,,,,,,,,,,,,,,,,60ff42c367f96f0df9a03e25,61036b06b49c043f5f0b1b4f,2021-07-29_23h01.48.602,Simcolourproject_2stim_asymm_v5,2020.2.10,MacIntel,60,61025ae37ef11b136ea224fe,,,,,,,,,1420,25,50,1,0,0,response1disk,,7,-10,-2,1,0,0,rectangle,-10,-2,1,0,0,-10,-2,1,0,0,0,96,96,17,1,,,,,,,,
,,,,,,,,,,,,,FF,,,,,,,,2.399,,,,,,,,,,,,,,,,,,,,,,60ff42c367f96f0df9a03e25,61036b06b49c043f5f0b1b4f,2021-07-29_23h01.48.602,Simcolourproject_2stim_asymm_v5,2020.2.10,MacIntel,60,61025ae37ef11b136ea224fe,,,,,,,,,1338,21,56,1,0,0,response1disk,,7,10,9,1,0,0,rectangle,10,9,1,0,0,10,9,1,0,0,0,97,97,143,1,,,,,,,,
,,,,,,,,,,,,,FF,,,,,,,,0.299,,,,,,,,,,,,,,,,,,,,,,60ff42c367f96f0df9a03e25,61036b06b49c043f5f0b1b4f,2021-07-29_23h01.48.602,Simcolourproject_2stim_asymm_v5,2020.2.10,MacIntel,60,61025ae37ef11b136ea224fe,,,,,,,,,3167,19,49,1,0,0,response1disk,,7,-6,-5,1,0,0,rectangle,-6,-5,1,0,0,-6,-5,1,0,0,0,98,98,12,1,,,,,,,,
,,,,,,,,,,,,,FF,,,,,,,,0.468,,,,,,,,,,,,,,,,,,,,,,60ff42c367f96f0df9a03e25,61036b06b49c043f5f0b1b4f,2021-07-29_23h01.48.602,Simcolourproject_2stim_asymm_v5,2020.2.10,MacIntel,60,61025ae37ef11b136ea224fe,,,,,,,,,4054,15,40,1,0,0,response1disk,,7,8,13,1,0,0,rectangle,8,13,1,0,0,8,13,1,0,0,0,99,99,106,1,,,,,,,,
,,,,,,,,,,,,,FF,,,,,,,,0.483,,,,,,,,,,,,,,,,,,,,,,60ff42c367f96f0df9a03e25,61036b06b49c043f5f0b1b4f,2021-07-29_23h01.48.602,Simcolourproject_2stim_asymm_v5,2020.2.10,MacIntel,60,61025ae37ef11b136ea224fe,,,,,,,,,1304,19,42,1,0,0,response1disk,,7,4,6,1,0,0,rectangle,4,6,1,0,0,4,6,1,0,0,0,100,100,142,1,,,,,,,,
,,,,,,,,,,,,,FF,,,,,,,,0.4,,,,,,,,,,,,,,,,,,,,,,60ff42c367f96f0df9a03e25,61036b06b49c043f5f0b1b4f,2021-07-29_23h01.48.602,Simcolourproject_2stim_asymm_v5,2020.2.10,MacIntel,60,61025ae37ef11b136ea224fe,,,,,,,,,3093,24,48,1,0,0,response1disk,,7,13,7,1,0,0,rectangle,13,7,1,0,0,13,7,1,0,0,0,101,101,3,1,,,,,,,,
,,,,,,,,,,,,,FF,,,,,,,,0.467,,,,,,,,,,,,,,,,,,,,,,60ff42c367f96f0df9a03e25,61036b06b49c043f5f0b1b4f,2021-07-29_23h01.48.602,Simcolourproject_2stim_asymm_v5,2020.2.10,MacIntel,60,61025ae37ef11b136ea224fe,,,,,,,,,470,13,43,1,0,0,response1disk,,7,3,-3,1,0,0,rectangle,3,-3,1,0,0,3,-3,1,0,0,0,102,102,64,1,,,,,,,,
,,,,,,,,,,,,,FF,,,,,,,,0.385,,,,,,,,,,,,,,,,,,,,,,60ff42c367f96f0df9a03e25,61036b06b49c043f5f0b1b4f,2021-07-29_23h01.48.602,Simcolourproject_2stim_asymm_v5,2020.2.10,MacIntel,60,61025ae37ef11b136ea224fe,,,,,,,,,4214,23,43,1,0,0,response1disk,,7,2,-12,1,0,0,rectangle,2,-12,1,0,0,2,-12,1,0,0,0,103,103,44,1,,,,,,,,
,,,,,,,,,,,,,FF,,,,,,,,0.435,,,,,,,,,,,,,,,,,,,,,,60ff42c367f96f0df9a03e25,61036b06b49c043f5f0b1b4f,2021-07-29_23h01.48.602,Simcolourproject_2stim_asymm_v5,2020.2.10,MacIntel,60,61025ae37ef11b136ea224fe,,,,,,,,,1019,19,40,1,0,0,response1disk,,7,1,0,1,0,0,rectangle,1,0,1,0,0,1,0,1,0,0,0,104,104,58,1,,,,,,,,
,,,,,,,,,,,,,FF,,,,,,,,0.417,,,,,,,,,,,,,,,,,,,,,,60ff42c367f96f0df9a03e25,61036b06b49c043f5f0b1b4f,2021-07-29_23h01.48.602,Simcolourproject_2stim_asymm_v5,2020.2.10,MacIntel,60,61025ae37ef11b136ea224fe,,,,,,,,,1914,22,46,1,0,0,response1disk,,7,8,-3,1,0,0,rectangle,8,-3,1,0,0,8,-3,1,0,0,0,105,105,18,1,,,,,,,,
,,,,,,,,,,,,,FF,,,,,,,,0.501,,,,,,,,,,,,,,,,,,,,,,60ff42c367f96f0df9a03e25,61036b06b49c043f5f0b1b4f,2021-07-29_23h01.48.602,Simcolourproject_2stim_asymm_v5,2020.2.10,MacIntel,60,61025ae37ef11b136ea224fe,,,,,,,,,1164,19,46,1,0,0,response1disk,,7,-1,-9,1,0,0,rectangle,-1,-9,1,0,0,-1,-9,1,0,0,0,106,106,144,1,,,,,,,,
,,,,,,,,,,,,,FF,,,,,,,,0.433,,,,,,,,,,,,,,,,,,,,,,60ff42c367f96f0df9a03e25,61036b06b49c043f5f0b1b4f,2021-07-29_23h01.48.602,Simcolourproject_2stim_asymm_v5,2020.2.10,MacIntel,60,61025ae37ef11b136ea224fe,,,,,,,,,3332,15,40,1,0,0,response1disk,,7,6,-11,1,0,0,rectangle,6,-11,1,0,0,6,-11,1,0,0,0,107,107,117,1,,,,,,,,
,,,,,,,,,,,,,FF,,,,,,,,0.984,,,,,,,,,,,,,,,,,,,,,,60ff42c367f96f0df9a03e25,61036b06b49c043f5f0b1b4f,2021-07-29_23h01.48.602,Simcolourproject_2stim_asymm_v5,2020.2.10,MacIntel,60,61025ae37ef11b136ea224fe,,,,,,,,,3802,20,40,1,0,0,response1disk,,7,-4,1,1,0,0,rectangle,-4,1,1,0,0,-4,1,1,0,0,0,108,108,139,1,,,,,,,,
,,,,,,,,,,,,,FF,,,,,,,,0.433,,,,,,,,,,,,,,,,,,,,,,60ff42c367f96f0df9a03e25,61036b06b49c043f5f0b1b4f,2021-07-29_23h01.48.602,Simcolourproject_2stim_asymm_v5,2020.2.10,MacIntel,60,61025ae37ef11b136ea224fe,,,,,,,,,3903,24,47,1,0,0,response1disk,,7,10,14,1,0,0,rectangle,-30,52,1,0,0,-10,6,1,0,0,0,109,109,50,1,,response7disk_3,TRUE,0,0,"[209,55,222,140,177,110,294,176,110,122,45,46,273,139,244,237,159,70,230,283]",2.317,rectangle
,,,,,,,,,,,,,FF,,,,,,,,1.067,,,,,,,,,,,,,,,,,,,,,,60ff42c367f96f0df9a03e25,61036b06b49c043f5f0b1b4f,2021-07-29_23h01.48.602,Simcolourproject_2stim_asymm_v5,2020.2.10,MacIntel,60,61025ae37ef11b136ea224fe,,,,,,,,,2679,15,33,1,0,0,response1disk,,7,9,4,1,0,0,rectangle,9,4,1,0,0,9,4,1,0,0,0,110,110,89,1,,,,,,,,
,,,,,,,,,,,,,FF,,,,,,,,2.517,,,,,,,,,,,,,,,,,,,,,,60ff42c367f96f0df9a03e25,61036b06b49c043f5f0b1b4f,2021-07-29_23h01.48.602,Simcolourproject_2stim_asymm_v5,2020.2.10,MacIntel,60,61025ae37ef11b136ea224fe,,,,,,,,,3663,23,60,1,0,0,response1disk,,7,6,20,1,0,0,rectangle,6,20,1,0,0,6,20,1,0,0,0,111,111,13,1,,,,,,,,
,,,,,,,,,,,,,FF,,,,,,,,0.416,,,,,,,,,,,,,,,,,,,,,,60ff42c367f96f0df9a03e25,61036b06b49c043f5f0b1b4f,2021-07-29_23h01.48.602,Simcolourproject_2stim_asymm_v5,2020.2.10,MacIntel,60,61025ae37ef11b136ea224fe,,,,,,,,,559,30,66,1,0,0,response1disk,,7,3,6,1,0,0,rectangle,3,6,1,0,0,3,6,1,0,0,0,112,112,84,1,,,,,,,,
,,,,,,,,,,,,,FF,,,,,,,,0.367,,,,,,,,,,,,,,,,,,,,,,60ff42c367f96f0df9a03e25,61036b06b49c043f5f0b1b4f,2021-07-29_23h01.48.602,Simcolourproject_2stim_asymm_v5,2020.2.10,MacIntel,60,61025ae37ef11b136ea224fe,,,,,,,,,4232,13,52,1,0,0,response1disk,,7,-1,-2,1,0,0,rectangle,-1,-2,1,0,0,-1,-2,1,0,0,0,113,113,73,1,,,,,,,,
,,,,,,,,,,,,,FF,,,,,,,,0.516,,,,,,,,,,,,,,,,,,,,,,60ff42c367f96f0df9a03e25,61036b06b49c043f5f0b1b4f,2021-07-29_23h01.48.602,Simcolourproject_2stim_asymm_v5,2020.2.10,MacIntel,60,61025ae37ef11b136ea224fe,,,,,,,,,2099,-31,39,1,0,0,response7disk,,0,-11,4,1,0,0,rectangle,-11,4,1,0,0,-11,4,1,0,0,0,114,114,157,1,,,,,,,,
,,,,,,,,,,,,,FF,,,,,,,,0.451,,,,,,,,,,,,,,,,,,,,,,60ff42c367f96f0df9a03e25,61036b06b49c043f5f0b1b4f,2021-07-29_23h01.48.602,Simcolourproject_2stim_asymm_v5,2020.2.10,MacIntel,60,61025ae37ef11b136ea224fe,,,,,,,,,4215,25,39,1,0,0,response1disk,,7,4,1,1,0,0,rectangle,4,1,1,0,0,4,1,1,0,0,0,115,115,71,1,,,,,,,,
,,,,,,,,,,,,,FF,,,,,,,,0.983,,,,,,,,,,,,,,,,,,,,,,60ff42c367f96f0df9a03e25,61036b06b49c043f5f0b1b4f,2021-07-29_23h01.48.602,Simcolourproject_2stim_asymm_v5,2020.2.10,MacIntel,60,61025ae37ef11b136ea224fe,,,,,,,,,1888,-14,38,1,0,0,response7disk,,0,-4,0,1,0,0,rectangle,-4,0,1,0,0,-4,0,1,0,0,0,116,116,105,1,,,,,,,,
,,,,,,,,,,,,,FF,,,,,,,,0.484,,,,,,,,,,,,,,,,,,,,,,60ff42c367f96f0df9a03e25,61036b06b49c043f5f0b1b4f,2021-07-29_23h01.48.602,Simcolourproject_2stim_asymm_v5,2020.2.10,MacIntel,60,61025ae37ef11b136ea224fe,,,,,,,,,1135,13,50,1,0,0,response1disk,,7,3,3,1,0,0,rectangle,3,3,1,0,0,3,3,1,0,0,0,117,117,110,1,,,,,,,,
,,,,,,,,,,,,,FF,,,,,,,,0.466,,,,,,,,,,,,,,,,,,,,,,60ff42c367f96f0df9a03e25,61036b06b49c043f5f0b1b4f,2021-07-29_23h01.48.602,Simcolourproject_2stim_asymm_v5,2020.2.10,MacIntel,60,61025ae37ef11b136ea224fe,,,,,,,,,623,20,42,1,0,0,response1disk,,7,7,-8,1,0,0,rectangle,7,-8,1,0,0,7,-8,1,0,0,0,118,118,80,1,,,,,,,,
,,,,,,,,,,,,,FF,,,,,,,,0.516,,,,,,,,,,,,,,,,,,,,,,60ff42c367f96f0df9a03e25,61036b06b49c043f5f0b1b4f,2021-07-29_23h01.48.602,Simcolourproject_2stim_asymm_v5,2020.2.10,MacIntel,60,61025ae37ef11b136ea224fe,,,,,,,,,3771,20,41,1,0,0,response1disk,,7,4,-5,1,0,0,rectangle,4,-5,1,0,0,4,-5,1,0,0,0,119,119,69,1,,,,,,,,
,,,,,,,,,,,,,FF,,,,,,,,0.4,,,,,,,,,,,,,,,,,,,,,,60ff42c367f96f0df9a03e25,61036b06b49c043f5f0b1b4f,2021-07-29_23h01.48.602,Simcolourproject_2stim_asymm_v5,2020.2.10,MacIntel,60,61025ae37ef11b136ea224fe,,,,,,,,,1156,15,45,1,0,0,response1disk,,7,4,10,1,0,0,rectangle,4,10,1,0,0,4,10,1,0,0,0,120,120,100,1,,,,,,,,
,,,,,,,,,,,,,FF,,,,,,,,0.351,,,,,,,,,,,,,,,,,,,,,,60ff42c367f96f0df9a03e25,61036b06b49c043f5f0b1b4f,2021-07-29_23h01.48.602,Simcolourproject_2stim_asymm_v5,2020.2.10,MacIntel,60,61025ae37ef11b136ea224fe,,,,,,,,,1478,36,50,1,0,0,response1disk,,7,13,-5,1,0,0,rectangle,-55,-29,1,0,0,11,1,1,0,0,0,121,121,5,1,,response5disk_3,TRUE,2,2,"[209,55,222,140,177,110,294,176,110,122,45,46,273,139,244,237,159,70,230,283]",2.818,rectangle
,,,,,,,,,,,,,FF,,,,,,,,0.6,,,,,,,,,,,,,,,,,,,,,,60ff42c367f96f0df9a03e25,61036b06b49c043f5f0b1b4f,2021-07-29_23h01.48.602,Simcolourproject_2stim_asymm_v5,2020.2.10,MacIntel,60,61025ae37ef11b136ea224fe,,,,,,,,,458,16,43,1,0,0,response1disk,,7,-24,-2,1,0,0,rectangle,-24,-2,1,0,0,-24,-2,1,0,0,0,122,122,151,1,,,,,,,,
,,,,,,,,,,,,,FF,,,,,,,,0.434,,,,,,,,,,,,,,,,,,,,,,60ff42c367f96f0df9a03e25,61036b06b49c043f5f0b1b4f,2021-07-29_23h01.48.602,Simcolourproject_2stim_asymm_v5,2020.2.10,MacIntel,60,61025ae37ef11b136ea224fe,,,,,,,,,3479,15,44,1,0,0,response1disk,,7,1,-12,1,0,0,rectangle,1,-12,1,0,0,1,-12,1,0,0,0,123,123,155,1,,,,,,,,
,,,,,,,,,,,,,FF,,,,,,,,0.45,,,,,,,,,,,,,,,,,,,,,,60ff42c367f96f0df9a03e25,61036b06b49c043f5f0b1b4f,2021-07-29_23h01.48.602,Simcolourproject_2stim_asymm_v5,2020.2.10,MacIntel,60,61025ae37ef11b136ea224fe,,,,,,,,,1173,22,44,1,0,0,response1disk,,7,6,7,1,0,0,rectangle,6,7,1,0,0,6,7,1,0,0,0,124,124,34,1,,,,,,,,
,,,,,,,,,,,,,FF,,,,,,,,0.417,,,,,,,,,,,,,,,,,,,,,,60ff42c367f96f0df9a03e25,61036b06b49c043f5f0b1b4f,2021-07-29_23h01.48.602,Simcolourproject_2stim_asymm_v5,2020.2.10,MacIntel,60,61025ae37ef11b136ea224fe,,,,,,,,,4065,11,40,1,0,0,response1disk,,7,-6,-6,1,0,0,rectangle,-6,-6,1,0,0,-6,-6,1,0,0,0,125,125,36,1,,,,,,,,
,,,,,,,,,,,,,FF,,,,,,,,0.499,,,,,,,,,,,,,,,,,,,,,,60ff42c367f96f0df9a03e25,61036b06b49c043f5f0b1b4f,2021-07-29_23h01.48.602,Simcolourproject_2stim_asymm_v5,2020.2.10,MacIntel,60,61025ae37ef11b136ea224fe,,,,,,,,,2372,22,44,1,0,0,response1disk,,7,9,5,1,0,0,rectangle,9,5,1,0,0,9,5,1,0,0,0,126,126,120,1,,,,,,,,
,,,,,,,,,,,,,FF,,,,,,,,0.467,,,,,,,,,,,,,,,,,,,,,,60ff42c367f96f0df9a03e25,61036b06b49c043f5f0b1b4f,2021-07-29_23h01.48.602,Simcolourproject_2stim_asymm_v5,2020.2.10,MacIntel,60,61025ae37ef11b136ea224fe,,,,,,,,,3103,20,37,1,0,0,response1disk,,7,7,7,1,0,0,rectangle,7,7,1,0,0,7,7,1,0,0,0,127,127,116,1,,,,,,,,
,,,,,,,,,,,,,FF,,,,,,,,0.3,,,,,,,,,,,,,,,,,,,,,,60ff42c367f96f0df9a03e25,61036b06b49c043f5f0b1b4f,2021-07-29_23h01.48.602,Simcolourproject_2stim_asymm_v5,2020.2.10,MacIntel,60,61025ae37ef11b136ea224fe,,,,,,,,,1327,16,40,1,0,0,response1disk,,7,4,-13,1,0,0,rectangle,4,-13,1,0,0,4,-13,1,0,0,0,128,128,42,1,,,,,,,,
,,,,,,,,,,,,,FF,,,,,,,,0.449,,,,,,,,,,,,,,,,,,,,,,60ff42c367f96f0df9a03e25,61036b06b49c043f5f0b1b4f,2021-07-29_23h01.48.602,Simcolourproject_2stim_asymm_v5,2020.2.10,MacIntel,60,61025ae37ef11b136ea224fe,,,,,,,,,1206,25,33,1,0,0,response1disk,,7,11,6,1,0,0,rectangle,11,6,1,0,0,11,6,1,0,0,0,129,129,6,1,,,,,,,,
,,,,,,,,,,,,,FF,,,,,,,,0.417,,,,,,,,,,,,,,,,,,,,,,60ff42c367f96f0df9a03e25,61036b06b49c043f5f0b1b4f,2021-07-29_23h01.48.602,Simcolourproject_2stim_asymm_v5,2020.2.10,MacIntel,60,61025ae37ef11b136ea224fe,,,,,,,,,4100,25,48,1,0,0,response1disk,,7,8,-2,1,0,0,rectangle,8,-2,1,0,0,8,-2,1,0,0,0,130,130,98,1,,,,,,,,
,,,,,,,,,,,,,FF,,,,,,,,0.333,,,,,,,,,,,,,,,,,,,,,,60ff42c367f96f0df9a03e25,61036b06b49c043f5f0b1b4f,2021-07-29_23h01.48.602,Simcolourproject_2stim_asymm_v5,2020.2.10,MacIntel,60,61025ae37ef11b136ea224fe,,,,,,,,,3067,21,43,1,0,0,response1disk,,7,-2,-2,1,0,0,rectangle,-2,-2,1,0,0,-2,-2,1,0,0,0,131,131,129,1,,,,,,,,
,,,,,,,,,,,,,FF,,,,,,,,0.367,,,,,,,,,,,,,,,,,,,,,,60ff42c367f96f0df9a03e25,61036b06b49c043f5f0b1b4f,2021-07-29_23h01.48.602,Simcolourproject_2stim_asymm_v5,2020.2.10,MacIntel,60,61025ae37ef11b136ea224fe,,,,,,,,,2445,19,39,1,0,0,response1disk,,7,7,3,1,0,0,rectangle,7,3,1,0,0,7,3,1,0,0,0,132,132,152,1,,,,,,,,
,,,,,,,,,,,,,FF,,,,,,,,0.416,,,,,,,,,,,,,,,,,,,,,,60ff42c367f96f0df9a03e25,61036b06b49c043f5f0b1b4f,2021-07-29_23h01.48.602,Simcolourproject_2stim_asymm_v5,2020.2.10,MacIntel,60,61025ae37ef11b136ea224fe,,,,,,,,,4013,18,42,1,0,0,response1disk,,7,4,-8,1,0,0,rectangle,4,-8,1,0,0,4,-8,1,0,0,0,133,133,74,1,,,,,,,,
,,,,,,,,,,,,,FF,,,,,,,,0.451,,,,,,,,,,,,,,,,,,,,,,60ff42c367f96f0df9a03e25,61036b06b49c043f5f0b1b4f,2021-07-29_23h01.48.602,Simcolourproject_2stim_asymm_v5,2020.2.10,MacIntel,60,61025ae37ef11b136ea224fe,,,,,,,,,3484,28,47,1,0,0,response1disk,,7,15,7,1,0,0,rectangle,15,7,1,0,0,15,7,1,0,0,0,134,134,19,1,,,,,,,,
,,,,,,,,,,,,,FF,,,,,,,,0.883,,,,,,,,,,,,,,,,,,,,,,60ff42c367f96f0df9a03e25,61036b06b49c043f5f0b1b4f,2021-07-29_23h01.48.602,Simcolourproject_2stim_asymm_v5,2020.2.10,MacIntel,60,61025ae37ef11b136ea224fe,,,,,,,,,997,17,51,1,0,0,response1disk,,7,8,5,1,0,0,rectangle,8,5,1,0,0,8,5,1,0,0,0,135,135,137,1,,,,,,,,
,,,,,,,,,,,,,FF,,,,,,,,0.4,,,,,,,,,,,,,,,,,,,,,,60ff42c367f96f0df9a03e25,61036b06b49c043f5f0b1b4f,2021-07-29_23h01.48.602,Simcolourproject_2stim_asymm_v5,2020.2.10,MacIntel,60,61025ae37ef11b136ea224fe,,,,,,,,,526,32,40,1,0,0,response1disk,,7,14,20,1,0,0,rectangle,14,20,1,0,0,14,20,1,0,0,0,136,136,29,1,,,,,,,,
,,,,,,,,,,,,,FF,,,,,,,,0.4,,,,,,,,,,,,,,,,,,,,,,60ff42c367f96f0df9a03e25,61036b06b49c043f5f0b1b4f,2021-07-29_23h01.48.602,Simcolourproject_2stim_asymm_v5,2020.2.10,MacIntel,60,61025ae37ef11b136ea224fe,,,,,,,,,1949,18,40,1,0,0,response1disk,,7,7,-7,1,0,0,rectangle,7,-7,1,0,0,7,-7,1,0,0,0,137,137,25,1,,,,,,,,
,,,,,,,,,,,,,FF,,,,,,,,0.284,,,,,,,,,,,,,,,,,,,,,,60ff42c367f96f0df9a03e25,61036b06b49c043f5f0b1b4f,2021-07-29_23h01.48.602,Simcolourproject_2stim_asymm_v5,2020.2.10,MacIntel,60,61025ae37ef11b136ea224fe,,,,,,,,,1701,22,41,1,0,0,response1disk,,7,6,-11,1,0,0,rectangle,67,35,1,0,0,-1,-3,1,0,0,0,138,138,45,1,,response1disk_3,TRUE,6,6,"[209,55,222,140,177,110,294,176,110,122,45,46,273,139,244,237,159,70,230,283]",2.567,rectangle
,,,,,,,,,,,,,FF,,,,,,,,0.468,,,,,,,,,,,,,,,,,,,,,,60ff42c367f96f0df9a03e25,61036b06b49c043f5f0b1b4f,2021-07-29_23h01.48.602,Simcolourproject_2stim_asymm_v5,2020.2.10,MacIntel,60,61025ae37ef11b136ea224fe,,,,,,,,,1725,16,36,1,0,0,response1disk,,7,-5,-2,1,0,0,rectangle,51,31,1,0,0,10,4,1,0,0,0,139,139,72,1,,response1disk_3,TRUE,6,6,"[209,55,222,140,177,110,294,176,110,122,45,46,273,139,244,237,159,70,230,283]",2.568,rectangle
,,,,,,,,,,,,,FF,,,,,,,,0.785,,,,,,,,,,,,,,,,,,,,,,60ff42c367f96f0df9a03e25,61036b06b49c043f5f0b1b4f,2021-07-29_23h01.48.602,Simcolourproject_2stim_asymm_v5,2020.2.10,MacIntel,60,61025ae37ef11b136ea224fe,,,,,,,,,4193,18,41,1,0,0,response1disk,,7,-1,8,1,0,0,rectangle,-1,8,1,0,0,-1,8,1,0,0,0,140,140,153,1,,,,,,,,
,,,,,,,,,,,,,FF,,,,,,,,0.466,,,,,,,,,,,,,,,,,,,,,,60ff42c367f96f0df9a03e25,61036b06b49c043f5f0b1b4f,2021-07-29_23h01.48.602,Simcolourproject_2stim_asymm_v5,2020.2.10,MacIntel,60,61025ae37ef11b136ea224fe,,,,,,,,,3225,33,48,1,0,0,response1disk,,7,-9,0,1,0,0,rectangle,-9,0,1,0,0,-9,0,1,0,0,0,141,141,38,1,,,,,,,,
,,,,,,,,,,,,,FF,,,,,,,,0.367,,,,,,,,,,,,,,,,,,,,,,60ff42c367f96f0df9a03e25,61036b06b49c043f5f0b1b4f,2021-07-29_23h01.48.602,Simcolourproject_2stim_asymm_v5,2020.2.10,MacIntel,60,61025ae37ef11b136ea224fe,,,,,,,,,690,26,52,1,0,0,response1disk,,7,2,-2,1,0,0,rectangle,2,-2,1,0,0,2,-2,1,0,0,0,142,142,9,1,,,,,,,,
,,,,,,,,,,,,,FF,,,,,,,,0.401,,,,,,,,,,,,,,,,,,,,,,60ff42c367f96f0df9a03e25,61036b06b49c043f5f0b1b4f,2021-07-29_23h01.48.602,Simcolourproject_2stim_asymm_v5,2020.2.10,MacIntel,60,61025ae37ef11b136ea224fe,,,,,,,,,2672,27,47,1,0,0,response1disk,,7,7,-1,1,0,0,rectangle,7,-1,1,0,0,7,-1,1,0,0,0,143,143,53,1,,,,,,,,
,,,,,,,,,,,,,FF,,,,,,,,0.35,,,,,,,,,,,,,,,,,,,,,,60ff42c367f96f0df9a03e25,61036b06b49c043f5f0b1b4f,2021-07-29_23h01.48.602,Simcolourproject_2stim_asymm_v5,2020.2.10,MacIntel,60,61025ae37ef11b136ea224fe,,,,,,,,,1180,31,48,1,0,0,response1disk,,7,4,-7,1,0,0,rectangle,4,-7,1,0,0,4,-7,1,0,0,0,144,144,102,1,,,,,,,,
,,,,,,,,,,,,,FF,,,,,,,,0.334,,,,,,,,,,,,,,,,,,,,,,60ff42c367f96f0df9a03e25,61036b06b49c043f5f0b1b4f,2021-07-29_23h01.48.602,Simcolourproject_2stim_asymm_v5,2020.2.10,MacIntel,60,61025ae37ef11b136ea224fe,,,,,,,,,4175,33,47,1,0,0,response1disk,,7,4,4,1,0,0,rectangle,4,4,1,0,0,4,4,1,0,0,0,145,145,0,1,,,,,,,,
,,,,,,,,,,,,,FF,,,,,,,,0.368,,,,,,,,,,,,,,,,,,,,,,60ff42c367f96f0df9a03e25,61036b06b49c043f5f0b1b4f,2021-07-29_23h01.48.602,Simcolourproject_2stim_asymm_v5,2020.2.10,MacIntel,60,61025ae37ef11b136ea224fe,,,,,,,,,780,16,39,1,0,0,response1disk,,7,-7,-12,1,0,0,rectangle,-7,-12,1,0,0,-7,-12,1,0,0,0,146,146,43,1,,,,,,,,
,,,,,,,,,,,,,FF,,,,,,,,0.7,,,,,,,,,,,,,,,,,,,,,,60ff42c367f96f0df9a03e25,61036b06b49c043f5f0b1b4f,2021-07-29_23h01.48.602,Simcolourproject_2stim_asymm_v5,2020.2.10,MacIntel,60,61025ae37ef11b136ea224fe,,,,,,,,,4263,11,33,1,0,0,response1disk,,7,-5,-7,1,0,0,rectangle,-5,-7,1,0,0,-5,-7,1,0,0,0,147,147,21,1,,,,,,,,
,,,,,,,,,,,,,FF,,,,,,,,0.549,,,,,,,,,,,,,,,,,,,,,,60ff42c367f96f0df9a03e25,61036b06b49c043f5f0b1b4f,2021-07-29_23h01.48.602,Simcolourproject_2stim_asymm_v5,2020.2.10,MacIntel,60,61025ae37ef11b136ea224fe,,,,,,,,,2960,10,34,1,0,0,response1disk,,7,2,-2,1,0,0,rectangle,2,-2,1,0,0,2,-2,1,0,0,0,148,148,70,1,,,,,,,,
,,,,,,,,,,,,,FF,,,,,,,,0.45,,,,,,,,,,,,,,,,,,,,,,60ff42c367f96f0df9a03e25,61036b06b49c043f5f0b1b4f,2021-07-29_23h01.48.602,Simcolourproject_2stim_asymm_v5,2020.2.10,MacIntel,60,61025ae37ef11b136ea224fe,,,,,,,,,748,23,42,1,0,0,response1disk,,7,-3,12,1,0,0,rectangle,-3,12,1,0,0,-3,12,1,0,0,0,149,149,101,1,,,,,,,,
,,,,,,,,,,,,,FF,,,,,,,,0.417,,,,,,,,,,,,,,,,,,,,,,60ff42c367f96f0df9a03e25,61036b06b49c043f5f0b1b4f,2021-07-29_23h01.48.602,Simcolourproject_2stim_asymm_v5,2020.2.10,MacIntel,60,61025ae37ef11b136ea224fe,,,,,,,,,1847,24,51,1,0,0,response1disk,,7,8,5,1,0,0,rectangle,8,5,1,0,0,8,5,1,0,0,0,150,150,111,1,,,,,,,,
,,,,,,,,,,,,,FF,,,,,,,,0.167,,,,,,,,,,,,,,,,,,,,,,60ff42c367f96f0df9a03e25,61036b06b49c043f5f0b1b4f,2021-07-29_23h01.48.602,Simcolourproject_2stim_asymm_v5,2020.2.10,MacIntel,60,61025ae37ef11b136ea224fe,,,,,,,,,1875,12,30,1,0,0,response1disk,,7,-7,-19,1,0,0,rectangle,-7,-19,1,0,0,-7,-19,1,0,0,0,151,151,20,1,,,,,,,,
,,,,,,,,,,,,,FF,,,,,,,,0.667,,,,,,,,,,,,,,,,,,,,,,60ff42c367f96f0df9a03e25,61036b06b49c043f5f0b1b4f,2021-07-29_23h01.48.602,Simcolourproject_2stim_asymm_v5,2020.2.10,MacIntel,60,61025ae37ef11b136ea224fe,,,,,,,,,4235,-16,54,1,0,0,response7disk,,0,-5,-19,1,0,0,rectangle,-5,-19,1,0,0,-5,-19,1,0,0,0,152,152,79,1,,,,,,,,
,,,,,,,,,,,,,FF,,,,,,,,0.467,,,,,,,,,,,,,,,,,,,,,,60ff42c367f96f0df9a03e25,61036b06b49c043f5f0b1b4f,2021-07-29_23h01.48.602,Simcolourproject_2stim_asymm_v5,2020.2.10,MacIntel,60,61025ae37ef11b136ea224fe,,,,,,,,,1851,25,41,1,0,0,response1disk,,7,15,4,1,0,0,rectangle,15,4,1,0,0,15,4,1,0,0,0,153,153,138,1,,,,,,,,
,,,,,,,,,,,,,FF,,,,,,,,0.333,,,,,,,,,,,,,,,,,,,,,,60ff42c367f96f0df9a03e25,61036b06b49c043f5f0b1b4f,2021-07-29_23h01.48.602,Simcolourproject_2stim_asymm_v5,2020.2.10,MacIntel,60,61025ae37ef11b136ea224fe,,,,,,,,,691,21,42,1,0,0,response1disk,,7,11,-16,1,0,0,rectangle,11,-16,1,0,0,11,-16,1,0,0,0,154,154,124,1,,,,,,,,
,,,,,,,,,,,,,FF,,,,,,,,0.483,,,,,,,,,,,,,,,,,,,,,,60ff42c367f96f0df9a03e25,61036b06b49c043f5f0b1b4f,2021-07-29_23h01.48.602,Simcolourproject_2stim_asymm_v5,2020.2.10,MacIntel,60,61025ae37ef11b136ea224fe,,,,,,,,,2893,-13,36,1,0,0,response7disk,,0,-6,-14,1,0,0,rectangle,-6,-14,1,0,0,-6,-14,1,0,0,0,155,155,78,1,,,,,,,,
,,,,,,,,,,,,,FF,,,,,,,,0.316,,,,,,,,,,,,,,,,,,,,,,60ff42c367f96f0df9a03e25,61036b06b49c043f5f0b1b4f,2021-07-29_23h01.48.602,Simcolourproject_2stim_asymm_v5,2020.2.10,MacIntel,60,61025ae37ef11b136ea224fe,,,,,,,,,1727,34,46,1,0,0,response1disk,,7,4,-10,1,0,0,rectangle,4,-10,1,0,0,4,-10,1,0,0,0,156,156,103,1,,,,,,,,
,,,,,,,,,,,,,FF,,,,,,,,0.667,,,,,,,,,,,,,,,,,,,,,,60ff42c367f96f0df9a03e25,61036b06b49c043f5f0b1b4f,2021-07-29_23h01.48.602,Simcolourproject_2stim_asymm_v5,2020.2.10,MacIntel,60,61025ae37ef11b136ea224fe,,,,,,,,,620,-15,46,1,0,0,response7disk,,0,-13,-7,1,0,0,rectangle,-13,-7,1,0,0,-13,-7,1,0,0,0,157,157,67,1,,,,,,,,
,,,,,,,,,,,,,FF,,,,,,,,0.383,,,,,,,,,,,,,,,,,,,,,,60ff42c367f96f0df9a03e25,61036b06b49c043f5f0b1b4f,2021-07-29_23h01.48.602,Simcolourproject_2stim_asymm_v5,2020.2.10,MacIntel,60,61025ae37ef11b136ea224fe,,,,,,,,,1231,22,39,1,0,0,response1disk,,7,4,1,1,0,0,rectangle,-52,31,1,0,0,-6,8,1,0,0,0,158,158,112,1,,response7disk_3,TRUE,1,1,"[209,55,222,140,177,110,294,176,110,122,45,46,273,139,244,237,159,70,230,283]",1.599,rectangle
,,,,,,,,,,,,,FF,,,,,,,,0.817,,,,,,,,,,,,,,,,,,,,,,60ff42c367f96f0df9a03e25,61036b06b49c043f5f0b1b4f,2021-07-29_23h01.48.602,Simcolourproject_2stim_asymm_v5,2020.2.10,MacIntel,60,61025ae37ef11b136ea224fe,,,,,,,,,3087,24,52,1,0,0,response1disk,,7,-11,-6,1,0,0,rectangle,-11,-6,1,0,0,-11,-6,1,0,0,0,159,159,127,1,,,,,,,,
,,,,,,,,,,,,,FF,,,,,,,,0.634,,,,,,,,,,,,,,,,,,,,,,60ff42c367f96f0df9a03e25,61036b06b49c043f5f0b1b4f,2021-07-29_23h01.48.602,Simcolourproject_2stim_asymm_v5,2020.2.10,MacIntel,60,61025ae37ef11b136ea224fe,,,,,,,,,2796,20,43,1,0,0,response1disk,,7,5,3,1,0,0,rectangle,5,3,1,0,0,5,3,1,0,0,1,0,160,45,1,,,,,,,,
,,,,,,,,,,,,,FF,,,,,,,,1.467,,,,,,,,,,,,,,,,,,,,,,60ff42c367f96f0df9a03e25,61036b06b49c043f5f0b1b4f,2021-07-29_23h01.48.602,Simcolourproject_2stim_asymm_v5,2020.2.10,MacIntel,60,61025ae37ef11b136ea224fe,,,,,,,,,841,16,46,1,0,0,response1disk,,7,4,2,1,0,0,rectangle,4,2,1,0,0,4,2,1,0,0,1,1,161,17,1,,,,,,,,
,,,,,,,,,,,,,FF,,,,,,,,0.399,,,,,,,,,,,,,,,,,,,,,,60ff42c367f96f0df9a03e25,61036b06b49c043f5f0b1b4f,2021-07-29_23h01.48.602,Simcolourproject_2stim_asymm_v5,2020.2.10,MacIntel,60,61025ae37ef11b136ea224fe,,,,,,,,,4216,19,37,1,0,0,response1disk,,7,-1,-10,1,0,0,rectangle,-1,-10,1,0,0,-1,-10,1,0,0,1,2,162,113,1,,,,,,,,
,,,,,,,,,,,,,FF,,,,,,,,0.867,,,,,,,,,,,,,,,,,,,,,,60ff42c367f96f0df9a03e25,61036b06b49c043f5f0b1b4f,2021-07-29_23h01.48.602,Simcolourproject_2stim_asymm_v5,2020.2.10,MacIntel,60,61025ae37ef11b136ea224fe,,,,,,,,,3198,22,45,1,0,0,response1disk,,7,-4,-12,1,0,0,rectangle,-4,-12,1,0,0,-4,-12,1,0,0,1,3,163,108,1,,,,,,,,
,,,,,,,,,,,,,FF,,,,,,,,1.05,,,,,,,,,,,,,,,,,,,,,,60ff42c367f96f0df9a03e25,61036b06b49c043f5f0b1b4f,2021-07-29_23h01.48.602,Simcolourproject_2stim_asymm_v5,2020.2.10,MacIntel,60,61025ae37ef11b136ea224fe,,,,,,,,,1682,18,42,1,0,0,response1disk,,7,4,3,1,0,0,rectangle,4,3,1,0,0,4,3,1,0,0,1,4,164,76,1,,,,,,,,
,,,,,,,,,,,,,FF,,,,,,,,0.45,,,,,,,,,,,,,,,,,,,,,,60ff42c367f96f0df9a03e25,61036b06b49c043f5f0b1b4f,2021-07-29_23h01.48.602,Simcolourproject_2stim_asymm_v5,2020.2.10,MacIntel,60,61025ae37ef11b136ea224fe,,,,,,,,,4029,27,45,1,0,0,response1disk,,7,8,-1,1,0,0,rectangle,8,-1,1,0,0,8,-1,1,0,0,1,5,165,125,1,,,,,,,,
,,,,,,,,,,,,,FF,,,,,,,,0.4,,,,,,,,,,,,,,,,,,,,,,60ff42c367f96f0df9a03e25,61036b06b49c043f5f0b1b4f,2021-07-29_23h01.48.602,Simcolourproject_2stim_asymm_v5,2020.2.10,MacIntel,60,61025ae37ef11b136ea224fe,,,,,,,,,570,17,35,1,0,0,response1disk,,7,7,-11,1,0,0,rectangle,7,-11,1,0,0,7,-11,1,0,0,1,6,166,56,1,,,,,,,,
,,,,,,,,,,,,,FF,,,,,,,,0.483,,,,,,,,,,,,,,,,,,,,,,60ff42c367f96f0df9a03e25,61036b06b49c043f5f0b1b4f,2021-07-29_23h01.48.602,Simcolourproject_2stim_asymm_v5,2020.2.10,MacIntel,60,61025ae37ef11b136ea224fe,,,,,,,,,1445,-23,37,1,0,0,response7disk,,0,-3,-9,1,0,0,rectangle,-3,-9,1,0,0,-3,-9,1,0,0,1,7,167,33,1,,,,,,,,
,,,,,,,,,,,,,FF,,,,,,,,0.833,,,,,,,,,,,,,,,,,,,,,,60ff42c367f96f0df9a03e25,61036b06b49c043f5f0b1b4f,2021-07-29_23h01.48.602,Simcolourproject_2stim_asymm_v5,2020.2.10,MacIntel,60,61025ae37ef11b136ea224fe,,,,,,,,,2857,16,41,1,0,0,response1disk,,7,-2,-7,1,0,0,rectangle,-2,-7,1,0,0,-2,-7,1,0,0,1,8,168,8,1,,,,,,,,
,,,,,,,,,,,,,FF,,,,,,,,0.434,,,,,,,,,,,,,,,,,,,,,,60ff42c367f96f0df9a03e25,61036b06b49c043f5f0b1b4f,2021-07-29_23h01.48.602,Simcolourproject_2stim_asymm_v5,2020.2.10,MacIntel,60,61025ae37ef11b136ea224fe,,,,,,,,,3757,23,49,1,0,0,response1disk,,7,8,-8,1,0,0,rectangle,8,-8,1,0,0,8,-8,1,0,0,1,9,169,81,1,,,,,,,,
,,,,,,,,,,,,,FF,,,,,,,,0.433,,,,,,,,,,,,,,,,,,,,,,60ff42c367f96f0df9a03e25,61036b06b49c043f5f0b1b4f,2021-07-29_23h01.48.602,Simcolourproject_2stim_asymm_v5,2020.2.10,MacIntel,60,61025ae37ef11b136ea224fe,,,,,,,,,3872,20,32,1,0,0,response1disk,,7,1,-8,1,0,0,rectangle,1,-8,1,0,0,1,-8,1,0,0,1,10,170,74,1,,,,,,,,
,,,,,,,,,,,,,FF,,,,,,,,0.466,,,,,,,,,,,,,,,,,,,,,,60ff42c367f96f0df9a03e25,61036b06b49c043f5f0b1b4f,2021-07-29_23h01.48.602,Simcolourproject_2stim_asymm_v5,2020.2.10,MacIntel,60,61025ae37ef11b136ea224fe,,,,,,,,,466,17,41,1,0,0,response1disk,,7,8,-8,1,0,0,rectangle,8,-8,1,0,0,8,-8,1,0,0,1,11,171,101,1,,,,,,,,
,,,,,,,,,,,,,FF,,,,,,,,0.333,,,,,,,,,,,,,,,,,,,,,,60ff42c367f96f0df9a03e25,61036b06b49c043f5f0b1b4f,2021-07-29_23h01.48.602,Simcolourproject_2stim_asymm_v5,2020.2.10,MacIntel,60,61025ae37ef11b136ea224fe,,,,,,,,,1412,17,39,1,0,0,response1disk,,7,16,-14,1,0,0,rectangle,16,-14,1,0,0,16,-14,1,0,0,1,12,172,50,1,,,,,,,,
,,,,,,,,,,,,,FF,,,,,,,,0.382,,,,,,,,,,,,,,,,,,,,,,60ff42c367f96f0df9a03e25,61036b06b49c043f5f0b1b4f,2021-07-29_23h01.48.602,Simcolourproject_2stim_asymm_v5,2020.2.10,MacIntel,60,61025ae37ef11b136ea224fe,,,,,,,,,2046,17,36,1,0,0,response1disk,,7,11,-7,1,0,0,rectangle,11,-7,1,0,0,11,-7,1,0,0,1,13,173,158,1,,,,,,,,
,,,,,,,,,,,,,FF,,,,,,,,0.401,,,,,,,,,,,,,,,,,,,,,,60ff42c367f96f0df9a03e25,61036b06b49c043f5f0b1b4f,2021-07-29_23h01.48.602,Simcolourproject_2stim_asymm_v5,2020.2.10,MacIntel,60,61025ae37ef11b136ea224fe,,,,,,,,,2515,18,35,1,0,0,response1disk,,7,15,-5,1,0,0,rectangle,15,-5,1,0,0,15,-5,1,0,0,1,14,174,95,1,,,,,,,,
,,,,,,,,,,,,,FF,,,,,,,,0.55,,,,,,,,,,,,,,,,,,,,,,60ff42c367f96f0df9a03e25,61036b06b49c043f5f0b1b4f,2021-07-29_23h01.48.602,Simcolourproject_2stim_asymm_v5,2020.2.10,MacIntel,60,61025ae37ef11b136ea224fe,,,,,,,,,973,-14,41,1,0,0,response7disk,,0,-8,9,1,0,0,rectangle,53,-25,1,0,0,11,8,1,0,0,1,15,175,71,1,,response3disk_3,TRUE,5,5,"[209,55,222,140,177,110,294,176,110,122,45,46,273,139,244,237,159,70,230,283]",3.116,rectangle
,,,,,,,,,,,,,FF,,,,,,,,1.033,,,,,,,,,,,,,,,,,,,,,,60ff42c367f96f0df9a03e25,61036b06b49c043f5f0b1b4f,2021-07-29_23h01.48.602,Simcolourproject_2stim_asymm_v5,2020.2.10,MacIntel,60,61025ae37ef11b136ea224fe,,,,,,,,,2817,15,39,1,0,0,response1disk,,7,0,-7,1,0,0,rectangle,22,49,1,0,0,-16,1,1,0,0,1,16,176,118,1,,response1disk_3,TRUE,7,3,"[209,55,222,140,177,110,294,176,110,122,45,46,273,139,244,237,159,70,230,283]",1.116,rectangle
,,,,,,,,,,,,,FF,,,,,,,,0.718,,,,,,,,,,,,,,,,,,,,,,60ff42c367f96f0df9a03e25,61036b06b49c043f5f0b1b4f,2021-07-29_23h01.48.602,Simcolourproject_2stim_asymm_v5,2020.2.10,MacIntel,60,61025ae37ef11b136ea224fe,,,,,,,,,4251,-24,40,1,0,0,response7disk,,0,-10,-5,1,0,0,rectangle,-10,-5,1,0,0,-10,-5,1,0,0,1,17,177,146,1,,,,,,,,
,,,,,,,,,,,,,FF,,,,,,,,0.433,,,,,,,,,,,,,,,,,,,,,,60ff42c367f96f0df9a03e25,61036b06b49c043f5f0b1b4f,2021-07-29_23h01.48.602,Simcolourproject_2stim_asymm_v5,2020.2.10,MacIntel,60,61025ae37ef11b136ea224fe,,,,,,,,,3726,21,42,1,0,0,response1disk,,7,12,12,1,0,0,rectangle,12,12,1,0,0,12,12,1,0,0,1,18,178,78,1,,,,,,,,
,,,,,,,,,,,,,FF,,,,,,,,0.367,,,,,,,,,,,,,,,,,,,,,,60ff42c367f96f0df9a03e25,61036b06b49c043f5f0b1b4f,2021-07-29_23h01.48.602,Simcolourproject_2stim_asymm_v5,2020.2.10,MacIntel,60,61025ae37ef11b136ea224fe,,,,,,,,,3363,17,39,1,0,0,response1disk,,7,7,-5,1,0,0,rectangle,7,-5,1,0,0,7,-5,1,0,0,1,19,179,112,1,,,,,,,,
,,,,,,,,,,,,,FF,,,,,,,,0.35,,,,,,,,,,,,,,,,,,,,,,60ff42c367f96f0df9a03e25,61036b06b49c043f5f0b1b4f,2021-07-29_23h01.48.602,Simcolourproject_2stim_asymm_v5,2020.2.10,MacIntel,60,61025ae37ef11b136ea224fe,,,,,,,,,2585,18,35,1,0,0,response1disk,,7,-1,0,1,0,0,rectangle,-1,0,1,0,0,-1,0,1,0,0,1,20,180,140,1,,,,,,,,
,,,,,,,,,,,,,FF,,,,,,,,0.65,,,,,,,,,,,,,,,,,,,,,,60ff42c367f96f0df9a03e25,61036b06b49c043f5f0b1b4f,2021-07-29_23h01.48.602,Simcolourproject_2stim_asymm_v5,2020.2.10,MacIntel,60,61025ae37ef11b136ea224fe,,,,,,,,,2168,24,53,1,0,0,response1disk,,7,6,5,1,0,0,rectangle,6,5,1,0,0,6,5,1,0,0,1,21,181,151,1,,,,,,,,
,,,,,,,,,,,,,FF,,,,,,,,0.418,,,,,,,,,,,,,,,,,,,,,,60ff42c367f96f0df9a03e25,61036b06b49c043f5f0b1b4f,2021-07-29_23h01.48.602,Simcolourproject_2stim_asymm_v5,2020.2.10,MacIntel,60,61025ae37ef11b136ea224fe,,,,,,,,,651,26,44,1,0,0,response1disk,,7,7,-11,1,0,0,rectangle,7,-11,1,0,0,7,-11,1,0,0,1,22,182,79,1,,,,,,,,
,,,,,,,,,,,,,FF,,,,,,,,0.334,,,,,,,,,,,,,,,,,,,,,,60ff42c367f96f0df9a03e25,61036b06b49c043f5f0b1b4f,2021-07-29_23h01.48.602,Simcolourproject_2stim_asymm_v5,2020.2.10,MacIntel,60,61025ae37ef11b136ea224fe,,,,,,,,,1657,21,39,1,0,0,response1disk,,7,10,-5,1,0,0,rectangle,10,-5,1,0,0,10,-5,1,0,0,1,23,183,2,1,,,,,,,,
,,,,,,,,,,,,,FF,,,,,,,,0.417,,,,,,,,,,,,,,,,,,,,,,60ff42c367f96f0df9a03e25,61036b06b49c043f5f0b1b4f,2021-07-29_23h01.48.602,Simcolourproject_2stim_asymm_v5,2020.2.10,MacIntel,60,61025ae37ef11b136ea224fe,,,,,,,,,1517,19,48,1,0,0,response1disk,,7,11,-2,1,0,0,rectangle,11,-2,1,0,0,11,-2,1,0,0,1,24,184,77,1,,,,,,,,
,,,,,,,,,,,,,FF,,,,,,,,0.35,,,,,,,,,,,,,,,,,,,,,,60ff42c367f96f0df9a03e25,61036b06b49c043f5f0b1b4f,2021-07-29_23h01.48.602,Simcolourproject_2stim_asymm_v5,2020.2.10,MacIntel,60,61025ae37ef11b136ea224fe,,,,,,,,,1492,17,38,1,0,0,response1disk,,7,5,-1,1,0,0,rectangle,5,-1,1,0,0,5,-1,1,0,0,1,25,185,69,1,,,,,,,,
,,,,,,,,,,,,,FF,,,,,,,,0.35,,,,,,,,,,,,,,,,,,,,,,60ff42c367f96f0df9a03e25,61036b06b49c043f5f0b1b4f,2021-07-29_23h01.48.602,Simcolourproject_2stim_asymm_v5,2020.2.10,MacIntel,60,61025ae37ef11b136ea224fe,,,,,,,,,956,13,35,1,0,0,response1disk,,7,12,-3,1,0,0,rectangle,12,-3,1,0,0,12,-3,1,0,0,1,26,186,23,1,,,,,,,,
,,,,,,,,,,,,,FF,,,,,,,,0.333,,,,,,,,,,,,,,,,,,,,,,60ff42c367f96f0df9a03e25,61036b06b49c043f5f0b1b4f,2021-07-29_23h01.48.602,Simcolourproject_2stim_asymm_v5,2020.2.10,MacIntel,60,61025ae37ef11b136ea224fe,,,,,,,,,3493,25,37,1,0,0,response1disk,,7,9,-5,1,0,0,rectangle,9,-5,1,0,0,9,-5,1,0,0,1,27,187,120,1,,,,,,,,
,,,,,,,,,,,,,FF,,,,,,,,0.333,,,,,,,,,,,,,,,,,,,,,,60ff42c367f96f0df9a03e25,61036b06b49c043f5f0b1b4f,2021-07-29_23h01.48.602,Simcolourproject_2stim_asymm_v5,2020.2.10,MacIntel,60,61025ae37ef11b136ea224fe,,,,,,,,,2394,23,44,1,0,0,response1disk,,7,12,-4,1,0,0,rectangle,12,-4,1,0,0,12,-4,1,0,0,1,28,188,36,1,,,,,,,,
,,,,,,,,,,,,,FF,,,,,,,,0.334,,,,,,,,,,,,,,,,,,,,,,60ff42c367f96f0df9a03e25,61036b06b49c043f5f0b1b4f,2021-07-29_23h01.48.602,Simcolourproject_2stim_asymm_v5,2020.2.10,MacIntel,60,61025ae37ef11b136ea224fe,,,,,,,,,270,17,40,1,0,0,response1disk,,7,11,-12,1,0,0,rectangle,11,-12,1,0,0,11,-12,1,0,0,1,29,189,100,1,,,,,,,,
,,,,,,,,,,,,,FF,,,,,,,,0.333,,,,,,,,,,,,,,,,,,,,,,60ff42c367f96f0df9a03e25,61036b06b49c043f5f0b1b4f,2021-07-29_23h01.48.602,Simcolourproject_2stim_asymm_v5,2020.2.10,MacIntel,60,61025ae37ef11b136ea224fe,,,,,,,,,2808,23,41,1,0,0,response1disk,,7,10,-11,1,0,0,rectangle,10,-11,1,0,0,10,-11,1,0,0,1,30,190,127,1,,,,,,,,
,,,,,,,,,,,,,FF,,,,,,,,0.416,,,,,,,,,,,,,,,,,,,,,,60ff42c367f96f0df9a03e25,61036b06b49c043f5f0b1b4f,2021-07-29_23h01.48.602,Simcolourproject_2stim_asymm_v5,2020.2.10,MacIntel,60,61025ae37ef11b136ea224fe,,,,,,,,,2216,20,41,1,0,0,response1disk,,7,13,-3,1,0,0,rectangle,13,-3,1,0,0,13,-3,1,0,0,1,31,191,82,1,,,,,,,,
,,,,,,,,,,,,,FF,,,,,,,,0.383,,,,,,,,,,,,,,,,,,,,,,60ff42c367f96f0df9a03e25,61036b06b49c043f5f0b1b4f,2021-07-29_23h01.48.602,Simcolourproject_2stim_asymm_v5,2020.2.10,MacIntel,60,61025ae37ef11b136ea224fe,,,,,,,,,992,15,46,1,0,0,response1disk,,7,7,1,1,0,0,rectangle,7,1,1,0,0,7,1,1,0,0,1,32,192,104,1,,,,,,,,
,,,,,,,,,,,,,FF,,,,,,,,0.349,,,,,,,,,,,,,,,,,,,,,,60ff42c367f96f0df9a03e25,61036b06b49c043f5f0b1b4f,2021-07-29_23h01.48.602,Simcolourproject_2stim_asymm_v5,2020.2.10,MacIntel,60,61025ae37ef11b136ea224fe,,,,,,,,,1428,15,34,1,0,0,response1disk,,7,14,9,1,0,0,rectangle,14,9,1,0,0,14,9,1,0,0,1,33,193,107,1,,,,,,,,
,,,,,,,,,,,,,FF,,,,,,,,1.133,,,,,,,,,,,,,,,,,,,,,,60ff42c367f96f0df9a03e25,61036b06b49c043f5f0b1b4f,2021-07-29_23h01.48.602,Simcolourproject_2stim_asymm_v5,2020.2.10,MacIntel,60,61025ae37ef11b136ea224fe,,,,,,,,,3104,-9,44,1,0,0,response7disk,,0,-6,-10,1,0,0,rectangle,-6,-10,1,0,0,-6,-10,1,0,0,1,34,194,105,1,,,,,,,,
,,,,,,,,,,,,,FF,,,,,,,,0.284,,,,,,,,,,,,,,,,,,,,,,60ff42c367f96f0df9a03e25,61036b06b49c043f5f0b1b4f,2021-07-29_23h01.48.602,Simcolourproject_2stim_asymm_v5,2020.2.10,MacIntel,60,61025ae37ef11b136ea224fe,,,,,,,,,2152,18,33,1,0,0,response1disk,,7,9,3,1,0,0,rectangle,9,3,1,0,0,9,3,1,0,0,1,35,195,41,1,,,,,,,,
,,,,,,,,,,,,,FF,,,,,,,,0.317,,,,,,,,,,,,,,,,,,,,,,60ff42c367f96f0df9a03e25,61036b06b49c043f5f0b1b4f,2021-07-29_23h01.48.602,Simcolourproject_2stim_asymm_v5,2020.2.10,MacIntel,60,61025ae37ef11b136ea224fe,,,,,,,,,312,16,36,1,0,0,response1disk,,7,3,-4,1,0,0,rectangle,3,-4,1,0,0,3,-4,1,0,0,1,36,196,12,1,,,,,,,,
,,,,,,,,,,,,,FF,,,,,,,,0.3,,,,,,,,,,,,,,,,,,,,,,60ff42c367f96f0df9a03e25,61036b06b49c043f5f0b1b4f,2021-07-29_23h01.48.602,Simcolourproject_2stim_asymm_v5,2020.2.10,MacIntel,60,61025ae37ef11b136ea224fe,,,,,,,,,2401,20,34,1,0,0,response1disk,,7,9,1,1,0,0,rectangle,9,1,1,0,0,9,1,1,0,0,1,37,197,94,1,,,,,,,,
,,,,,,,,,,,,,FF,,,,,,,,0.3,,,,,,,,,,,,,,,,,,,,,,60ff42c367f96f0df9a03e25,61036b06b49c043f5f0b1b4f,2021-07-29_23h01.48.602,Simcolourproject_2stim_asymm_v5,2020.2.10,MacIntel,60,61025ae37ef11b136ea224fe,,,,,,,,,4128,24,41,1,0,0,response1disk,,7,16,1,1,0,0,rectangle,16,1,1,0,0,16,1,1,0,0,1,38,198,93,1,,,,,,,,
,,,,,,,,,,,,,FF,,,,,,,,0.166,,,,,,,,,,,,,,,,,,,,,,60ff42c367f96f0df9a03e25,61036b06b49c043f5f0b1b4f,2021-07-29_23h01.48.602,Simcolourproject_2stim_asymm_v5,2020.2.10,MacIntel,60,61025ae37ef11b136ea224fe,,,,,,,,,2573,23,33,1,0,0,response1disk,,7,7,-10,1,0,0,rectangle,7,-10,1,0,0,7,-10,1,0,0,1,39,199,126,1,,,,,,,,
,,,,,,,,,,,,,FF,,,,,,,,0.333,,,,,,,,,,,,,,,,,,,,,,60ff42c367f96f0df9a03e25,61036b06b49c043f5f0b1b4f,2021-07-29_23h01.48.602,Simcolourproject_2stim_asymm_v5,2020.2.10,MacIntel,60,61025ae37ef11b136ea224fe,,,,,,,,,2221,16,34,1,0,0,response1disk,,7,15,-3,1,0,0,rectangle,15,-3,1,0,0,15,-3,1,0,0,1,40,200,132,1,,,,,,,,
,,,,,,,,,,,,,FF,,,,,,,,0.35,,,,,,,,,,,,,,,,,,,,,,60ff42c367f96f0df9a03e25,61036b06b49c043f5f0b1b4f,2021-07-29_23h01.48.602,Simcolourproject_2stim_asymm_v5,2020.2.10,MacIntel,60,61025ae37ef11b136ea224fe,,,,,,,,,239,18,33,1,0,0,response1disk,,7,17,-10,1,0,0,rectangle,17,-10,1,0,0,17,-10,1,0,0,1,41,201,70,1,,,,,,,,
,,,,,,,,,,,,,FF,,,,,,,,0.317,,,,,,,,,,,,,,,,,,,,,,60ff42c367f96f0df9a03e25,61036b06b49c043f5f0b1b4f,2021-07-29_23h01.48.602,Simcolourproject_2stim_asymm_v5,2020.2.10,MacIntel,60,61025ae37ef11b136ea224fe,,,,,,,,,4264,27,41,1,0,0,response1disk,,7,9,-7,1,0,0,rectangle,9,-7,1,0,0,9,-7,1,0,0,1,42,202,51,1,,,,,,,,
,,,,,,,,,,,,,FF,,,,,,,,0.316,,,,,,,,,,,,,,,,,,,,,,60ff42c367f96f0df9a03e25,61036b06b49c043f5f0b1b4f,2021-07-29_23h01.48.602,Simcolourproject_2stim_asymm_v5,2020.2.10,MacIntel,60,61025ae37ef11b136ea224fe,,,,,,,,,3547,14,41,1,0,0,response1disk,,7,12,5,1,0,0,rectangle,12,5,1,0,0,12,5,1,0,0,1,43,203,102,1,,,,,,,,
,,,,,,,,,,,,,FF,,,,,,,,0.684,,,,,,,,,,,,,,,,,,,,,,60ff42c367f96f0df9a03e25,61036b06b49c043f5f0b1b4f,2021-07-29_23h01.48.602,Simcolourproject_2stim_asymm_v5,2020.2.10,MacIntel,60,61025ae37ef11b136ea224fe,,,,,,,,,885,-13,46,1,0,0,response7disk,,0,-10,-6,1,0,0,rectangle,-10,-6,1,0,0,-10,-6,1,0,0,1,44,204,1,1,,,,,,,,
,,,,,,,,,,,,,FF,,,,,,,,0.168,,,,,,,,,,,,,,,,,,,,,,60ff42c367f96f0df9a03e25,61036b06b49c043f5f0b1b4f,2021-07-29_23h01.48.602,Simcolourproject_2stim_asymm_v5,2020.2.10,MacIntel,60,61025ae37ef11b136ea224fe,,,,,,,,,2978,24,35,1,0,0,response1disk,,7,16,11,1,0,0,rectangle,16,11,1,0,0,16,11,1,0,0,1,45,205,83,1,,,,,,,,
,,,,,,,,,,,,,FF,,,,,,,,0.333,,,,,,,,,,,,,,,,,,,,,,60ff42c367f96f0df9a03e25,61036b06b49c043f5f0b1b4f,2021-07-29_23h01.48.602,Simcolourproject_2stim_asymm_v5,2020.2.10,MacIntel,60,61025ae37ef11b136ea224fe,,,,,,,,,3304,17,41,1,0,0,response1disk,,7,11,10,1,0,0,rectangle,11,10,1,0,0,11,10,1,0,0,1,46,206,85,1,,,,,,,,
,,,,,,,,,,,,,FF,,,,,,,,0.217,,,,,,,,,,,,,,,,,,,,,,60ff42c367f96f0df9a03e25,61036b06b49c043f5f0b1b4f,2021-07-29_23h01.48.602,Simcolourproject_2stim_asymm_v5,2020.2.10,MacIntel,60,61025ae37ef11b136ea224fe,,,,,,,,,2145,29,36,1,0,0,response1disk,,7,11,9,1,0,0,rectangle,11,9,1,0,0,11,9,1,0,0,1,47,207,110,1,,,,,,,,
,,,,,,,,,,,,,FF,,,,,,,,0.333,,,,,,,,,,,,,,,,,,,,,,60ff42c367f96f0df9a03e25,61036b06b49c043f5f0b1b4f,2021-07-29_23h01.48.602,Simcolourproject_2stim_asymm_v5,2020.2.10,MacIntel,60,61025ae37ef11b136ea224fe,,,,,,,,,3529,25,51,1,0,0,response1disk,,7,17,2,1,0,0,rectangle,-33,-61,1,0,0,-9,5,1,0,0,1,48,208,159,1,,response5disk_3,TRUE,3,3,"[209,55,222,140,177,110,294,176,110,122,45,46,273,139,244,237,159,70,230,283]",1.834,rectangle
,,,,,,,,,,,,,FF,,,,,,,,2.6,,,,,,,,,,,,,,,,,,,,,,60ff42c367f96f0df9a03e25,61036b06b49c043f5f0b1b4f,2021-07-29_23h01.48.602,Simcolourproject_2stim_asymm_v5,2020.2.10,MacIntel,60,61025ae37ef11b136ea224fe,,,,,,,,,1983,17,41,1,0,0,response1disk,,7,5,1,1,0,0,rectangle,5,1,1,0,0,5,1,1,0,0,1,49,209,122,1,,,,,,,,
,,,,,,,,,,,,,FF,,,,,,,,1.167,,,,,,,,,,,,,,,,,,,,,,60ff42c367f96f0df9a03e25,61036b06b49c043f5f0b1b4f,2021-07-29_23h01.48.602,Simcolourproject_2stim_asymm_v5,2020.2.10,MacIntel,60,61025ae37ef11b136ea224fe,,,,,,,,,4326,-20,40,1,0,0,response7disk,,0,5,-11,1,0,0,rectangle,5,-11,1,0,0,5,-11,1,0,0,1,50,210,137,1,,,,,,,,
,,,,,,,,,,,,,FF,,,,,,,,0.367,,,,,,,,,,,,,,,,,,,,,,60ff42c367f96f0df9a03e25,61036b06b49c043f5f0b1b4f,2021-07-29_23h01.48.602,Simcolourproject_2stim_asymm_v5,2020.2.10,MacIntel,60,61025ae37ef11b136ea224fe,,,,,,,,,242,22,31,1,0,0,response1disk,,7,3,-13,1,0,0,rectangle,3,-13,1,0,0,3,-13,1,0,0,1,51,211,43,1,,,,,,,,
,,,,,,,,,,,,,FF,,,,,,,,0.332,,,,,,,,,,,,,,,,,,,,,,60ff42c367f96f0df9a03e25,61036b06b49c043f5f0b1b4f,2021-07-29_23h01.48.602,Simcolourproject_2stim_asymm_v5,2020.2.10,MacIntel,60,61025ae37ef11b136ea224fe,,,,,,,,,3541,24,44,1,0,0,response1disk,,7,15,-16,1,0,0,rectangle,15,-16,1,0,0,15,-16,1,0,0,1,52,212,143,1,,,,,,,,
,,,,,,,,,,,,,FF,,,,,,,,0.433,,,,,,,,,,,,,,,,,,,,,,60ff42c367f96f0df9a03e25,61036b06b49c043f5f0b1b4f,2021-07-29_23h01.48.602,Simcolourproject_2stim_asymm_v5,2020.2.10,MacIntel,60,61025ae37ef11b136ea224fe,,,,,,,,,3023,29,32,1,0,0,response1disk,,7,1,-16,1,0,0,rectangle,1,-16,1,0,0,1,-16,1,0,0,1,53,213,20,1,,,,,,,,
,,,,,,,,,,,,,FF,,,,,,,,0.35,,,,,,,,,,,,,,,,,,,,,,60ff42c367f96f0df9a03e25,61036b06b49c043f5f0b1b4f,2021-07-29_23h01.48.602,Simcolourproject_2stim_asymm_v5,2020.2.10,MacIntel,60,61025ae37ef11b136ea224fe,,,,,,,,,2395,29,57,1,0,0,response1disk,,7,10,9,1,0,0,rectangle,10,9,1,0,0,10,9,1,0,0,1,54,214,40,1,,,,,,,,
,,,,,,,,,,,,,FF,,,,,,,,0.318,,,,,,,,,,,,,,,,,,,,,,60ff42c367f96f0df9a03e25,61036b06b49c043f5f0b1b4f,2021-07-29_23h01.48.602,Simcolourproject_2stim_asymm_v5,2020.2.10,MacIntel,60,61025ae37ef11b136ea224fe,,,,,,,,,3635,23,39,1,0,0,response1disk,,7,13,3,1,0,0,rectangle,13,3,1,0,0,13,3,1,0,0,1,55,215,16,1,,,,,,,,
,,,,,,,,,,,,,FF,,,,,,,,0.434,,,,,,,,,,,,,,,,,,,,,,60ff42c367f96f0df9a03e25,61036b06b49c043f5f0b1b4f,2021-07-29_23h01.48.602,Simcolourproject_2stim_asymm_v5,2020.2.10,MacIntel,60,61025ae37ef11b136ea224fe,,,,,,,,,2399,26,40,1,0,0,response1disk,,7,17,6,1,0,0,rectangle,17,6,1,0,0,17,6,1,0,0,1,56,216,11,1,,,,,,,,
,,,,,,,,,,,,,FF,,,,,,,,0.335,,,,,,,,,,,,,,,,,,,,,,60ff42c367f96f0df9a03e25,61036b06b49c043f5f0b1b4f,2021-07-29_23h01.48.602,Simcolourproject_2stim_asymm_v5,2020.2.10,MacIntel,60,61025ae37ef11b136ea224fe,,,,,,,,,214,31,49,1,0,0,response1disk,,7,22,18,1,0,0,rectangle,22,18,1,0,0,22,18,1,0,0,1,57,217,61,1,,,,,,,,
,,,,,,,,,,,,,FF,,,,,,,,0.301,,,,,,,,,,,,,,,,,,,,,,60ff42c367f96f0df9a03e25,61036b06b49c043f5f0b1b4f,2021-07-29_23h01.48.602,Simcolourproject_2stim_asymm_v5,2020.2.10,MacIntel,60,61025ae37ef11b136ea224fe,,,,,,,,,3367,29,54,1,0,0,response1disk,,7,11,3,1,0,0,rectangle,11,3,1,0,0,11,3,1,0,0,1,58,218,99,1,,,,,,,,
,,,,,,,,,,,,,FF,,,,,,,,0.383,,,,,,,,,,,,,,,,,,,,,,60ff42c367f96f0df9a03e25,61036b06b49c043f5f0b1b4f,2021-07-29_23h01.48.602,Simcolourproject_2stim_asymm_v5,2020.2.10,MacIntel,60,61025ae37ef11b136ea224fe,,,,,,,,,3901,23,43,1,0,0,response1disk,,7,12,5,1,0,0,rectangle,12,5,1,0,0,12,5,1,0,0,1,59,219,38,1,,,,,,,,
,,,,,,,,,,,,,FF,,,,,,,,0.3,,,,,,,,,,,,,,,,,,,,,,60ff42c367f96f0df9a03e25,61036b06b49c043f5f0b1b4f,2021-07-29_23h01.48.602,Simcolourproject_2stim_asymm_v5,2020.2.10,MacIntel,60,61025ae37ef11b136ea224fe,,,,,,,,,4314,26,41,1,0,0,response1disk,,7,5,-9,1,0,0,rectangle,5,-9,1,0,0,5,-9,1,0,0,1,60,220,39,1,,,,,,,,
,,,,,,,,,,,,,FF,,,,,,,,0.217,,,,,,,,,,,,,,,,,,,,,,60ff42c367f96f0df9a03e25,61036b06b49c043f5f0b1b4f,2021-07-29_23h01.48.602,Simcolourproject_2stim_asymm_v5,2020.2.10,MacIntel,60,61025ae37ef11b136ea224fe,,,,,,,,,3824,31,43,1,0,0,response1disk,,7,19,8,1,0,0,rectangle,31,50,1,0,0,-6,13,1,0,0,1,61,221,75,1,,response1disk_3,TRUE,7,3,"[209,55,222,140,177,110,294,176,110,122,45,46,273,139,244,237,159,70,230,283]",0.466,rectangle
,,,,,,,,,,,,,FF,,,,,,,,0.45,,,,,,,,,,,,,,,,,,,,,,60ff42c367f96f0df9a03e25,61036b06b49c043f5f0b1b4f,2021-07-29_23h01.48.602,Simcolourproject_2stim_asymm_v5,2020.2.10,MacIntel,60,61025ae37ef11b136ea224fe,,,,,,,,,2938,17,37,1,0,0,response1disk,,7,-4,-2,1,0,0,rectangle,-4,-2,1,0,0,-4,-2,1,0,0,1,62,222,24,1,,,,,,,,
,,,,,,,,,,,,,FF,,,,,,,,0.299,,,,,,,,,,,,,,,,,,,,,,60ff42c367f96f0df9a03e25,61036b06b49c043f5f0b1b4f,2021-07-29_23h01.48.602,Simcolourproject_2stim_asymm_v5,2020.2.10,MacIntel,60,61025ae37ef11b136ea224fe,,,,,,,,,475,20,34,1,0,0,response1disk,,7,2,-6,1,0,0,rectangle,2,-6,1,0,0,2,-6,1,0,0,1,63,223,7,1,,,,,,,,
,,,,,,,,,,,,,FF,,,,,,,,0.1,,,,,,,,,,,,,,,,,,,,,,60ff42c367f96f0df9a03e25,61036b06b49c043f5f0b1b4f,2021-07-29_23h01.48.602,Simcolourproject_2stim_asymm_v5,2020.2.10,MacIntel,60,61025ae37ef11b136ea224fe,,,,,,,,,2750,19,35,1,0,0,response1disk,,7,8,-5,1,0,0,rectangle,8,-5,1,0,0,8,-5,1,0,0,1,64,224,67,1,,,,,,,,
,,,,,,,,,,,,,FF,,,,,,,,0.318,,,,,,,,,,,,,,,,,,,,,,60ff42c367f96f0df9a03e25,61036b06b49c043f5f0b1b4f,2021-07-29_23h01.48.602,Simcolourproject_2stim_asymm_v5,2020.2.10,MacIntel,60,61025ae37ef11b136ea224fe,,,,,,,,,1266,15,32,1,0,0,response1disk,,7,10,-19,1,0,0,rectangle,10,-19,1,0,0,10,-19,1,0,0,1,65,225,106,1,,,,,,,,
,,,,,,,,,,,,,FF,,,,,,,,0.151,,,,,,,,,,,,,,,,,,,,,,60ff42c367f96f0df9a03e25,61036b06b49c043f5f0b1b4f,2021-07-29_23h01.48.602,Simcolourproject_2stim_asymm_v5,2020.2.10,MacIntel,60,61025ae37ef11b136ea224fe,,,,,,,,,1228,32,39,1,0,0,response1disk,,7,15,4,1,0,0,rectangle,15,4,1,0,0,15,4,1,0,0,1,66,226,148,1,,,,,,,,
,,,,,,,,,,,,,FF,,,,,,,,0.332,,,,,,,,,,,,,,,,,,,,,,60ff42c367f96f0df9a03e25,61036b06b49c043f5f0b1b4f,2021-07-29_23h01.48.602,Simcolourproject_2stim_asymm_v5,2020.2.10,MacIntel,60,61025ae37ef11b136ea224fe,,,,,,,,,2293,15,39,1,0,0,response1disk,,7,14,-2,1,0,0,rectangle,14,-2,1,0,0,14,-2,1,0,0,1,67,227,31,1,,,,,,,,
,,,,,,,,,,,,,FF,,,,,,,,0.337,,,,,,,,,,,,,,,,,,,,,,60ff42c367f96f0df9a03e25,61036b06b49c043f5f0b1b4f,2021-07-29_23h01.48.602,Simcolourproject_2stim_asymm_v5,2020.2.10,MacIntel,60,61025ae37ef11b136ea224fe,,,,,,,,,1591,36,34,1,0,0,response1disk,,6,20,1,1,0,0,rectangle,20,1,1,0,0,20,1,1,0,0,1,68,228,63,1,,,,,,,,
,,,,,,,,,,,,,FF,,,,,,,,0.434,,,,,,,,,,,,,,,,,,,,,,60ff42c367f96f0df9a03e25,61036b06b49c043f5f0b1b4f,2021-07-29_23h01.48.602,Simcolourproject_2stim_asymm_v5,2020.2.10,MacIntel,60,61025ae37ef11b136ea224fe,,,,,,,,,3555,19,36,1,0,0,response1disk,,7,9,-3,1,0,0,rectangle,-25,-43,1,0,0,-13,-10,1,0,0,1,69,229,14,1,,response5disk_3,TRUE,3,3,"[209,55,222,140,177,110,294,176,110,122,45,46,273,139,244,237,159,70,230,283]",1.516,rectangle
,,,,,,,,,,,,,FF,,,,,,,,1.235,,,,,,,,,,,,,,,,,,,,,,60ff42c367f96f0df9a03e25,61036b06b49c043f5f0b1b4f,2021-07-29_23h01.48.602,Simcolourproject_2stim_asymm_v5,2020.2.10,MacIntel,60,61025ae37ef11b136ea224fe,,,,,,,,,1667,10,31,1,0,0,response1disk,,7,1,-10,1,0,0,rectangle,1,-10,1,0,0,1,-10,1,0,0,1,70,230,131,1,,,,,,,,
,,,,,,,,,,,,,FF,,,,,,,,0.25,,,,,,,,,,,,,,,,,,,,,,60ff42c367f96f0df9a03e25,61036b06b49c043f5f0b1b4f,2021-07-29_23h01.48.602,Simcolourproject_2stim_asymm_v5,2020.2.10,MacIntel,60,61025ae37ef11b136ea224fe,,,,,,,,,770,21,37,1,0,0,response1disk,,7,12,-6,1,0,0,rectangle,12,-6,1,0,0,12,-6,1,0,0,1,71,231,141,1,,,,,,,,
,,,,,,,,,,,,,FF,,,,,,,,0.116,,,,,,,,,,,,,,,,,,,,,,60ff42c367f96f0df9a03e25,61036b06b49c043f5f0b1b4f,2021-07-29_23h01.48.602,Simcolourproject_2stim_asymm_v5,2020.2.10,MacIntel,60,61025ae37ef11b136ea224fe,,,,,,,,,2866,21,42,1,0,0,response1disk,,7,16,3,1,0,0,rectangle,16,3,1,0,0,16,3,1,0,0,1,72,232,155,1,,,,,,,,
,,,,,,,,,,,,,FF,,,,,,,,0.283,,,,,,,,,,,,,,,,,,,,,,60ff42c367f96f0df9a03e25,61036b06b49c043f5f0b1b4f,2021-07-29_23h01.48.602,Simcolourproject_2stim_asymm_v5,2020.2.10,MacIntel,60,61025ae37ef11b136ea224fe,,,,,,,,,2140,22,42,1,0,0,response1disk,,7,21,-7,1,0,0,rectangle,21,-7,1,0,0,21,-7,1,0,0,1,73,233,66,1,,,,,,,,
,,,,,,,,,,,,,FF,,,,,,,,0.383,,,,,,,,,,,,,,,,,,,,,,60ff42c367f96f0df9a03e25,61036b06b49c043f5f0b1b4f,2021-07-29_23h01.48.602,Simcolourproject_2stim_asymm_v5,2020.2.10,MacIntel,60,61025ae37ef11b136ea224fe,,,,,,,,,666,27,42,1,0,0,response1disk,,7,22,-13,1,0,0,rectangle,22,-13,1,0,0,22,-13,1,0,0,1,74,234,133,1,,,,,,,,
,,,,,,,,,,,,,FF,,,,,,,,0.3,,,,,,,,,,,,,,,,,,,,,,60ff42c367f96f0df9a03e25,61036b06b49c043f5f0b1b4f,2021-07-29_23h01.48.602,Simcolourproject_2stim_asymm_v5,2020.2.10,MacIntel,60,61025ae37ef11b136ea224fe,,,,,,,,,1364,22,34,1,0,0,response1disk,,7,15,2,1,0,0,rectangle,15,2,1,0,0,15,2,1,0,0,1,75,235,18,1,,,,,,,,
,,,,,,,,,,,,,FF,,,,,,,,0.149,,,,,,,,,,,,,,,,,,,,,,60ff42c367f96f0df9a03e25,61036b06b49c043f5f0b1b4f,2021-07-29_23h01.48.602,Simcolourproject_2stim_asymm_v5,2020.2.10,MacIntel,60,61025ae37ef11b136ea224fe,,,,,,,,,2917,25,43,1,0,0,response1disk,,7,23,-2,1,0,0,rectangle,-22,46,1,0,0,-8,-7,1,0,0,1,76,236,44,1,,response7disk_3,TRUE,0,0,"[209,55,222,140,177,110,294,176,110,122,45,46,273,139,244,237,159,70,230,283]",1.749,rectangle
,,,,,,,,,,,,,FF,,,,,,,,0.417,,,,,,,,,,,,,,,,,,,,,,60ff42c367f96f0df9a03e25,61036b06b49c043f5f0b1b4f,2021-07-29_23h01.48.602,Simcolourproject_2stim_asymm_v5,2020.2.10,MacIntel,60,61025ae37ef11b136ea224fe,,,,,,,,,2572,14,34,1,0,0,response1disk,,7,1,-5,1,0,0,rectangle,1,-5,1,0,0,1,-5,1,0,0,1,77,237,60,1,,,,,,,,
,,,,,,,,,,,,,FF,,,,,,,,0.132,,,,,,,,,,,,,,,,,,,,,,60ff42c367f96f0df9a03e25,61036b06b49c043f5f0b1b4f,2021-07-29_23h01.48.602,Simcolourproject_2stim_asymm_v5,2020.2.10,MacIntel,60,61025ae37ef11b136ea224fe,,,,,,,,,4268,14,35,1,0,0,response1disk,,7,8,-1,1,0,0,rectangle,8,-1,1,0,0,8,-1,1,0,0,1,78,238,0,1,,,,,,,,
,,,,,,,,,,,,,FF,,,,,,,,0.301,,,,,,,,,,,,,,,,,,,,,,60ff42c367f96f0df9a03e25,61036b06b49c043f5f0b1b4f,2021-07-29_23h01.48.602,Simcolourproject_2stim_asymm_v5,2020.2.10,MacIntel,60,61025ae37ef11b136ea224fe,,,,,,,,,1885,17,41,1,0,0,response1disk,,7,8,-2,1,0,0,rectangle,8,-2,1,0,0,8,-2,1,0,0,1,79,239,53,1,,,,,,,,
,,,,,,,,,,,,,FF,,,,,,,,0.233,,,,,,,,,,,,,,,,,,,,,,60ff42c367f96f0df9a03e25,61036b06b49c043f5f0b1b4f,2021-07-29_23h01.48.602,Simcolourproject_2stim_asymm_v5,2020.2.10,MacIntel,60,61025ae37ef11b136ea224fe,,,,,,,,,3445,27,33,1,0,0,response1disk,,7,13,-9,1,0,0,rectangle,13,-9,1,0,0,13,-9,1,0,0,1,80,240,65,1,,,,,,,,
,,,,,,,,,,,,,FF,,,,,,,,0.334,,,,,,,,,,,,,,,,,,,,,,60ff42c367f96f0df9a03e25,61036b06b49c043f5f0b1b4f,2021-07-29_23h01.48.602,Simcolourproject_2stim_asymm_v5,2020.2.10,MacIntel,60,61025ae37ef11b136ea224fe,,,,,,,,,4178,21,44,1,0,0,response1disk,,7,12,-6,1,0,0,rectangle,12,-6,1,0,0,12,-6,1,0,0,1,81,241,57,1,,,,,,,,
,,,,,,,,,,,,,FF,,,,,,,,0.317,,,,,,,,,,,,,,,,,,,,,,60ff42c367f96f0df9a03e25,61036b06b49c043f5f0b1b4f,2021-07-29_23h01.48.602,Simcolourproject_2stim_asymm_v5,2020.2.10,MacIntel,60,61025ae37ef11b136ea224fe,,,,,,,,,1429,24,44,1,0,0,response1disk,,7,21,-7,1,0,0,rectangle,21,-7,1,0,0,21,-7,1,0,0,1,82,242,28,1,,,,,,,,
,,,,,,,,,,,,,FF,,,,,,,,0.316,,,,,,,,,,,,,,,,,,,,,,60ff42c367f96f0df9a03e25,61036b06b49c043f5f0b1b4f,2021-07-29_23h01.48.602,Simcolourproject_2stim_asymm_v5,2020.2.10,MacIntel,60,61025ae37ef11b136ea224fe,,,,,,,,,3019,28,38,1,0,0,response1disk,,7,17,-15,1,0,0,rectangle,-49,19,1,0,0,-16,-9,1,0,0,1,83,243,62,1,,response7disk_3,TRUE,1,1,"[209,55,222,140,177,110,294,176,110,122,45,46,273,139,244,237,159,70,230,283]",1.316,rectangle
,,,,,,,,,,,,,FF,,,,,,,,0.417,,,,,,,,,,,,,,,,,,,,,,60ff42c367f96f0df9a03e25,61036b06b49c043f5f0b1b4f,2021-07-29_23h01.48.602,Simcolourproject_2stim_asymm_v5,2020.2.10,MacIntel,60,61025ae37ef11b136ea224fe,,,,,,,,,2958,13,29,1,0,0,response1disk,,7,-9,-14,1,0,0,rectangle,-9,-14,1,0,0,-9,-14,1,0,0,1,84,244,58,1,,,,,,,,
,,,,,,,,,,,,,FF,,,,,,,,0.3,,,,,,,,,,,,,,,,,,,,,,60ff42c367f96f0df9a03e25,61036b06b49c043f5f0b1b4f,2021-07-29_23h01.48.602,Simcolourproject_2stim_asymm_v5,2020.2.10,MacIntel,60,61025ae37ef11b136ea224fe,,,,,,,,,2790,27,46,1,0,0,response1disk,,7,1,3,1,0,0,rectangle,1,3,1,0,0,1,3,1,0,0,1,85,245,6,1,,,,,,,,
,,,,,,,,,,,,,FF,,,,,,,,0.3,,,,,,,,,,,,,,,,,,,,,,60ff42c367f96f0df9a03e25,61036b06b49c043f5f0b1b4f,2021-07-29_23h01.48.602,Simcolourproject_2stim_asymm_v5,2020.2.10,MacIntel,60,61025ae37ef11b136ea224fe,,,,,,,,,2310,20,48,1,0,0,response1disk,,7,11,5,1,0,0,rectangle,11,5,1,0,0,11,5,1,0,0,1,86,246,139,1,,,,,,,,
,,,,,,,,,,,,,FF,,,,,,,,0.284,,,,,,,,,,,,,,,,,,,,,,60ff42c367f96f0df9a03e25,61036b06b49c043f5f0b1b4f,2021-07-29_23h01.48.602,Simcolourproject_2stim_asymm_v5,2020.2.10,MacIntel,60,61025ae37ef11b136ea224fe,,,,,,,,,608,29,45,1,0,0,response1disk,,7,15,-11,1,0,0,rectangle,15,-11,1,0,0,15,-11,1,0,0,1,87,247,13,1,,,,,,,,
,,,,,,,,,,,,,FF,,,,,,,,0.216,,,,,,,,,,,,,,,,,,,,,,60ff42c367f96f0df9a03e25,61036b06b49c043f5f0b1b4f,2021-07-29_23h01.48.602,Simcolourproject_2stim_asymm_v5,2020.2.10,MacIntel,60,61025ae37ef11b136ea224fe,,,,,,,,,237,19,37,1,0,0,response1disk,,7,18,2,1,0,0,rectangle,18,2,1,0,0,18,2,1,0,0,1,88,248,142,1,,,,,,,,
,,,,,,,,,,,,,FF,,,,,,,,0.617,,,,,,,,,,,,,,,,,,,,,,60ff42c367f96f0df9a03e25,61036b06b49c043f5f0b1b4f,2021-07-29_23h01.48.602,Simcolourproject_2stim_asymm_v5,2020.2.10,MacIntel,60,61025ae37ef11b136ea224fe,,,,,,,,,3668,-11,38,1,0,0,response7disk,,0,-4,-11,1,0,0,rectangle,-4,-11,1,0,0,-4,-11,1,0,0,1,89,249,150,1,,,,,,,,
,,,,,,,,,,,,,FF,,,,,,,,0.483,,,,,,,,,,,,,,,,,,,,,,60ff42c367f96f0df9a03e25,61036b06b49c043f5f0b1b4f,2021-07-29_23h01.48.602,Simcolourproject_2stim_asymm_v5,2020.2.10,MacIntel,60,61025ae37ef11b136ea224fe,,,,,,,,,2569,24,52,1,0,0,response1disk,,7,4,3,1,0,0,rectangle,4,3,1,0,0,4,3,1,0,0,1,90,250,3,1,,,,,,,,
,,,,,,,,,,,,,FF,,,,,,,,0.466,,,,,,,,,,,,,,,,,,,,,,60ff42c367f96f0df9a03e25,61036b06b49c043f5f0b1b4f,2021-07-29_23h01.48.602,Simcolourproject_2stim_asymm_v5,2020.2.10,MacIntel,60,61025ae37ef11b136ea224fe,,,,,,,,,2115,12,42,1,0,0,response1disk,,7,-6,-10,1,0,0,rectangle,-6,-10,1,0,0,-6,-10,1,0,0,1,91,251,117,1,,,,,,,,
,,,,,,,,,,,,,FF,,,,,,,,0.4,,,,,,,,,,,,,,,,,,,,,,60ff42c367f96f0df9a03e25,61036b06b49c043f5f0b1b4f,2021-07-29_23h01.48.602,Simcolourproject_2stim_asymm_v5,2020.2.10,MacIntel,60,61025ae37ef11b136ea224fe,,,,,,,,,3753,24,48,1,0,0,response1disk,,7,-3,9,1,0,0,rectangle,-3,9,1,0,0,-3,9,1,0,0,1,92,252,87,1,,,,,,,,
,,,,,,,,,,,,,FF,,,,,,,,0.334,,,,,,,,,,,,,,,,,,,,,,60ff42c367f96f0df9a03e25,61036b06b49c043f5f0b1b4f,2021-07-29_23h01.48.602,Simcolourproject_2stim_asymm_v5,2020.2.10,MacIntel,60,61025ae37ef11b136ea224fe,,,,,,,,,3436,25,42,1,0,0,response1disk,,7,2,-3,1,0,0,rectangle,2,-3,1,0,0,2,-3,1,0,0,1,93,253,149,1,,,,,,,,
,,,,,,,,,,,,,FF,,,,,,,,0.649,,,,,,,,,,,,,,,,,,,,,,60ff42c367f96f0df9a03e25,61036b06b49c043f5f0b1b4f,2021-07-29_23h01.48.602,Simcolourproject_2stim_asymm_v5,2020.2.10,MacIntel,60,61025ae37ef11b136ea224fe,,,,,,,,,558,17,32,1,0,0,response1disk,,7,1,-8,1,0,0,rectangle,1,-8,1,0,0,1,-8,1,0,0,1,94,254,10,1,,,,,,,,
,,,,,,,,,,,,,FF,,,,,,,,0.334,,,,,,,,,,,,,,,,,,,,,,60ff42c367f96f0df9a03e25,61036b06b49c043f5f0b1b4f,2021-07-29_23h01.48.602,Simcolourproject_2stim_asymm_v5,2020.2.10,MacIntel,60,61025ae37ef11b136ea224fe,,,,,,,,,2111,26,34,1,0,0,response1disk,,7,3,5,1,0,0,rectangle,3,5,1,0,0,3,5,1,0,0,1,95,255,92,1,,,,,,,,
,,,,,,,,,,,,,FF,,,,,,,,0.334,,,,,,,,,,,,,,,,,,,,,,60ff42c367f96f0df9a03e25,61036b06b49c043f5f0b1b4f,2021-07-29_23h01.48.602,Simcolourproject_2stim_asymm_v5,2020.2.10,MacIntel,60,61025ae37ef11b136ea224fe,,,,,,,,,1420,19,37,1,0,0,response1disk,,7,5,0,1,0,0,rectangle,5,0,1,0,0,5,0,1,0,0,1,96,256,129,1,,,,,,,,
,,,,,,,,,,,,,FF,,,,,,,,0.266,,,,,,,,,,,,,,,,,,,,,,60ff42c367f96f0df9a03e25,61036b06b49c043f5f0b1b4f,2021-07-29_23h01.48.602,Simcolourproject_2stim_asymm_v5,2020.2.10,MacIntel,60,61025ae37ef11b136ea224fe,,,,,,,,,1338,24,45,1,0,0,response1disk,,7,7,-5,1,0,0,rectangle,7,-5,1,0,0,7,-5,1,0,0,1,97,257,15,1,,,,,,,,
,,,,,,,,,,,,,FF,,,,,,,,0.316,,,,,,,,,,,,,,,,,,,,,,60ff42c367f96f0df9a03e25,61036b06b49c043f5f0b1b4f,2021-07-29_23h01.48.602,Simcolourproject_2stim_asymm_v5,2020.2.10,MacIntel,60,61025ae37ef11b136ea224fe,,,,,,,,,3167,21,40,1,0,0,response1disk,,7,2,-13,1,0,0,rectangle,2,-13,1,0,0,2,-13,1,0,0,1,98,258,30,1,,,,,,,,
,,,,,,,,,,,,,FF,,,,,,,,0.282,,,,,,,,,,,,,,,,,,,,,,60ff42c367f96f0df9a03e25,61036b06b49c043f5f0b1b4f,2021-07-29_23h01.48.602,Simcolourproject_2stim_asymm_v5,2020.2.10,MacIntel,60,61025ae37ef11b136ea224fe,,,,,,,,,4054,24,46,1,0,0,response1disk,,7,15,8,1,0,0,rectangle,15,8,1,0,0,15,8,1,0,0,1,99,259,80,1,,,,,,,,
,,,,,,,,,,,,,FF,,,,,,,,0.3,,,,,,,,,,,,,,,,,,,,,,60ff42c367f96f0df9a03e25,61036b06b49c043f5f0b1b4f,2021-07-29_23h01.48.602,Simcolourproject_2stim_asymm_v5,2020.2.10,MacIntel,60,61025ae37ef11b136ea224fe,,,,,,,,,1304,22,47,1,0,0,response1disk,,7,10,2,1,0,0,rectangle,10,2,1,0,0,10,2,1,0,0,1,100,260,25,1,,,,,,,,
,,,,,,,,,,,,,FF,,,,,,,,0.217,,,,,,,,,,,,,,,,,,,,,,60ff42c367f96f0df9a03e25,61036b06b49c043f5f0b1b4f,2021-07-29_23h01.48.602,Simcolourproject_2stim_asymm_v5,2020.2.10,MacIntel,60,61025ae37ef11b136ea224fe,,,,,,,,,3093,24,41,1,0,0,response1disk,,7,8,-3,1,0,0,rectangle,8,-3,1,0,0,8,-3,1,0,0,1,101,261,32,1,,,,,,,,
,,,,,,,,,,,,,FF,,,,,,,,0.55,,,,,,,,,,,,,,,,,,,,,,60ff42c367f96f0df9a03e25,61036b06b49c043f5f0b1b4f,2021-07-29_23h01.48.602,Simcolourproject_2stim_asymm_v5,2020.2.10,MacIntel,60,61025ae37ef11b136ea224fe,,,,,,,,,470,18,40,1,0,0,response1disk,,7,0,-3,1,0,0,rectangle,0,-3,1,0,0,0,-3,1,0,0,1,102,262,35,1,,,,,,,,
,,,,,,,,,,,,,FF,,,,,,,,0.317,,,,,,,,,,,,,,,,,,,,,,60ff42c367f96f0df9a03e25,61036b06b49c043f5f0b1b4f,2021-07-29_23h01.48.602,Simcolourproject_2stim_asymm_v5,2020.2.10,MacIntel,60,61025ae37ef11b136ea224fe,,,,,,,,,4214,19,38,1,0,0,response1disk,,7,-7,-6,1,0,0,rectangle,-7,-6,1,0,0,-7,-6,1,0,0,1,103,263,21,1,,,,,,,,
,,,,,,,,,,,,,FF,,,,,,,,0.317,,,,,,,,,,,,,,,,,,,,,,60ff42c367f96f0df9a03e25,61036b06b49c043f5f0b1b4f,2021-07-29_23h01.48.602,Simcolourproject_2stim_asymm_v5,2020.2.10,MacIntel,60,61025ae37ef11b136ea224fe,,,,,,,,,1019,23,38,1,0,0,response1disk,,7,9,-4,1,0,0,rectangle,9,-4,1,0,0,9,-4,1,0,0,1,104,264,72,1,,,,,,,,
,,,,,,,,,,,,,FF,,,,,,,,0.301,,,,,,,,,,,,,,,,,,,,,,60ff42c367f96f0df9a03e25,61036b06b49c043f5f0b1b4f,2021-07-29_23h01.48.602,Simcolourproject_2stim_asymm_v5,2020.2.10,MacIntel,60,61025ae37ef11b136ea224fe,,,,,,,,,1914,16,38,1,0,0,response1disk,,7,9,6,1,0,0,rectangle,9,6,1,0,0,9,6,1,0,0,1,105,265,19,1,,,,,,,,
,,,,,,,,,,,,,FF,,,,,,,,0.3,,,,,,,,,,,,,,,,,,,,,,60ff42c367f96f0df9a03e25,61036b06b49c043f5f0b1b4f,2021-07-29_23h01.48.602,Simcolourproject_2stim_asymm_v5,2020.2.10,MacIntel,60,61025ae37ef11b136ea224fe,,,,,,,,,1164,26,51,1,0,0,response1disk,,7,12,-4,1,0,0,rectangle,12,-4,1,0,0,12,-4,1,0,0,1,106,266,116,1,,,,,,,,
,,,,,,,,,,,,,FF,,,,,,,,0.151,,,,,,,,,,,,,,,,,,,,,,60ff42c367f96f0df9a03e25,61036b06b49c043f5f0b1b4f,2021-07-29_23h01.48.602,Simcolourproject_2stim_asymm_v5,2020.2.10,MacIntel,60,61025ae37ef11b136ea224fe,,,,,,,,,3332,18,42,1,0,0,response1disk,,7,10,11,1,0,0,rectangle,10,11,1,0,0,10,11,1,0,0,1,107,267,86,1,,,,,,,,
,,,,,,,,,,,,,FF,,,,,,,,0.249,,,,,,,,,,,,,,,,,,,,,,60ff42c367f96f0df9a03e25,61036b06b49c043f5f0b1b4f,2021-07-29_23h01.48.602,Simcolourproject_2stim_asymm_v5,2020.2.10,MacIntel,60,61025ae37ef11b136ea224fe,,,,,,,,,3802,23,47,1,0,0,response1disk,,7,6,-9,1,0,0,rectangle,6,-9,1,0,0,6,-9,1,0,0,1,108,268,136,1,,,,,,,,
,,,,,,,,,,,,,FF,,,,,,,,0.184,,,,,,,,,,,,,,,,,,,,,,60ff42c367f96f0df9a03e25,61036b06b49c043f5f0b1b4f,2021-07-29_23h01.48.602,Simcolourproject_2stim_asymm_v5,2020.2.10,MacIntel,60,61025ae37ef11b136ea224fe,,,,,,,,,3903,23,47,1,0,0,response1disk,,7,9,5,1,0,0,rectangle,9,5,1,0,0,9,5,1,0,0,1,109,269,84,1,,,,,,,,
,,,,,,,,,,,,,FF,,,,,,,,0.315,,,,,,,,,,,,,,,,,,,,,,60ff42c367f96f0df9a03e25,61036b06b49c043f5f0b1b4f,2021-07-29_23h01.48.602,Simcolourproject_2stim_asymm_v5,2020.2.10,MacIntel,60,61025ae37ef11b136ea224fe,,,,,,,,,2679,11,47,1,0,0,response1disk,,7,2,-16,1,0,0,rectangle,2,-16,1,0,0,2,-16,1,0,0,1,110,270,34,1,,,,,,,,
,,,,,,,,,,,,,FF,,,,,,,,0.301,,,,,,,,,,,,,,,,,,,,,,60ff42c367f96f0df9a03e25,61036b06b49c043f5f0b1b4f,2021-07-29_23h01.48.602,Simcolourproject_2stim_asymm_v5,2020.2.10,MacIntel,60,61025ae37ef11b136ea224fe,,,,,,,,,3663,16,42,1,0,0,response1disk,,7,6,-11,1,0,0,rectangle,6,-11,1,0,0,6,-11,1,0,0,1,111,271,153,1,,,,,,,,
,,,,,,,,,,,,,FF,,,,,,,,0.4,,,,,,,,,,,,,,,,,,,,,,60ff42c367f96f0df9a03e25,61036b06b49c043f5f0b1b4f,2021-07-29_23h01.48.602,Simcolourproject_2stim_asymm_v5,2020.2.10,MacIntel,60,61025ae37ef11b136ea224fe,,,,,,,,,559,28,59,1,0,0,response1disk,,7,-4,-10,1,0,0,rectangle,-32,49,1,0,0,-10,-1,1,0,0,1,112,272,22,1,,response7disk_3,TRUE,0,0,"[209,55,222,140,177,110,294,176,110,122,45,46,273,139,244,237,159,70,230,283]",1.665,rectangle
,,,,,,,,,,,,,FF,,,,,,,,1.183,,,,,,,,,,,,,,,,,,,,,,60ff42c367f96f0df9a03e25,61036b06b49c043f5f0b1b4f,2021-07-29_23h01.48.602,Simcolourproject_2stim_asymm_v5,2020.2.10,MacIntel,60,61025ae37ef11b136ea224fe,,,,,,,,,4232,17,40,1,0,0,response1disk,,7,0,-4,1,0,0,rectangle,0,-4,1,0,0,0,-4,1,0,0,1,113,273,147,1,,,,,,,,
,,,,,,,,,,,,,FF,,,,,,,,0.567,,,,,,,,,,,,,,,,,,,,,,60ff42c367f96f0df9a03e25,61036b06b49c043f5f0b1b4f,2021-07-29_23h01.48.602,Simcolourproject_2stim_asymm_v5,2020.2.10,MacIntel,60,61025ae37ef11b136ea224fe,,,,,,,,,2099,-12,45,1,0,0,response7disk,,0,1,-5,1,0,0,rectangle,1,-5,1,0,0,1,-5,1,0,0,1,114,274,48,1,,,,,,,,
,,,,,,,,,,,,,FF,,,,,,,,0.416,,,,,,,,,,,,,,,,,,,,,,60ff42c367f96f0df9a03e25,61036b06b49c043f5f0b1b4f,2021-07-29_23h01.48.602,Simcolourproject_2stim_asymm_v5,2020.2.10,MacIntel,60,61025ae37ef11b136ea224fe,,,,,,,,,4215,20,44,1,0,0,response1disk,,7,4,-2,1,0,0,rectangle,4,-2,1,0,0,4,-2,1,0,0,1,115,275,119,1,,,,,,,,
,,,,,,,,,,,,,FF,,,,,,,,0.666,,,,,,,,,,,,,,,,,,,,,,60ff42c367f96f0df9a03e25,61036b06b49c043f5f0b1b4f,2021-07-29_23h01.48.602,Simcolourproject_2stim_asymm_v5,2020.2.10,MacIntel,60,61025ae37ef11b136ea224fe,,,,,,,,,1888,-20,41,1,0,0,response7disk,,0,0,-7,1,0,0,rectangle,0,-7,1,0,0,0,-7,1,0,0,1,116,276,97,1,,,,,,,,
,,,,,,,,,,,,,FF,,,,,,,,0.217,,,,,,,,,,,,,,,,,,,,,,60ff42c367f96f0df9a03e25,61036b06b49c043f5f0b1b4f,2021-07-29_23h01.48.602,Simcolourproject_2stim_asymm_v5,2020.2.10,MacIntel,60,61025ae37ef11b136ea224fe,,,,,,,,,1135,25,45,1,0,0,response1disk,,7,18,9,1,0,0,rectangle,18,9,1,0,0,18,9,1,0,0,1,117,277,54,1,,,,,,,,
,,,,,,,,,,,,,FF,,,,,,,,0.301,,,,,,,,,,,,,,,,,,,,,,60ff42c367f96f0df9a03e25,61036b06b49c043f5f0b1b4f,2021-07-29_23h01.48.602,Simcolourproject_2stim_asymm_v5,2020.2.10,MacIntel,60,61025ae37ef11b136ea224fe,,,,,,,,,623,26,43,1,0,0,response1disk,,7,8,-12,1,0,0,rectangle,8,-12,1,0,0,8,-12,1,0,0,1,118,278,42,1,,,,,,,,
,,,,,,,,,,,,,FF,,,,,,,,0.45,,,,,,,,,,,,,,,,,,,,,,60ff42c367f96f0df9a03e25,61036b06b49c043f5f0b1b4f,2021-07-29_23h01.48.602,Simcolourproject_2stim_asymm_v5,2020.2.10,MacIntel,60,61025ae37ef11b136ea224fe,,,,,,,,,3771,26,51,1,0,0,response1disk,,7,-3,-11,1,0,0,rectangle,-3,-11,1,0,0,-3,-11,1,0,0,1,119,279,5,1,,,,,,,,
,,,,,,,,,,,,,FF,,,,,,,,0.334,,,,,,,,,,,,,,,,,,,,,,60ff42c367f96f0df9a03e25,61036b06b49c043f5f0b1b4f,2021-07-29_23h01.48.602,Simcolourproject_2stim_asymm_v5,2020.2.10,MacIntel,60,61025ae37ef11b136ea224fe,,,,,,,,,1156,20,42,1,0,0,response1disk,,7,18,10,1,0,0,rectangle,18,10,1,0,0,18,10,1,0,0,1,120,280,88,1,,,,,,,,
,,,,,,,,,,,,,FF,,,,,,,,0.334,,,,,,,,,,,,,,,,,,,,,,60ff42c367f96f0df9a03e25,61036b06b49c043f5f0b1b4f,2021-07-29_23h01.48.602,Simcolourproject_2stim_asymm_v5,2020.2.10,MacIntel,60,61025ae37ef11b136ea224fe,,,,,,,,,1478,26,45,1,0,0,response1disk,,7,-1,1,1,0,0,rectangle,-1,1,1,0,0,-1,1,1,0,0,1,121,281,49,1,,,,,,,,
,,,,,,,,,,,,,FF,,,,,,,,0.3,,,,,,,,,,,,,,,,,,,,,,60ff42c367f96f0df9a03e25,61036b06b49c043f5f0b1b4f,2021-07-29_23h01.48.602,Simcolourproject_2stim_asymm_v5,2020.2.10,MacIntel,60,61025ae37ef11b136ea224fe,,,,,,,,,458,23,48,1,0,0,response1disk,,7,9,6,1,0,0,rectangle,-38,-40,1,0,0,8,5,1,0,0,1,122,282,59,1,,response5disk_3,TRUE,3,3,"[209,55,222,140,177,110,294,176,110,122,45,46,273,139,244,237,159,70,230,283]",1.517,rectangle
,,,,,,,,,,,,,FF,,,,,,,,0.383,,,,,,,,,,,,,,,,,,,,,,60ff42c367f96f0df9a03e25,61036b06b49c043f5f0b1b4f,2021-07-29_23h01.48.602,Simcolourproject_2stim_asymm_v5,2020.2.10,MacIntel,60,61025ae37ef11b136ea224fe,,,,,,,,,3479,33,45,1,0,0,response1disk,,7,0,0,1,0,0,rectangle,0,0,1,0,0,0,0,1,0,0,1,123,283,29,1,,,,,,,,
,,,,,,,,,,,,,FF,,,,,,,,0.284,,,,,,,,,,,,,,,,,,,,,,60ff42c367f96f0df9a03e25,61036b06b49c043f5f0b1b4f,2021-07-29_23h01.48.602,Simcolourproject_2stim_asymm_v5,2020.2.10,MacIntel,60,61025ae37ef11b136ea224fe,,,,,,,,,1173,15,39,1,0,0,response1disk,,7,4,5,1,0,0,rectangle,4,5,1,0,0,4,5,1,0,0,1,124,284,157,1,,,,,,,,
,,,,,,,,,,,,,FF,,,,,,,,0.117,,,,,,,,,,,,,,,,,,,,,,60ff42c367f96f0df9a03e25,61036b06b49c043f5f0b1b4f,2021-07-29_23h01.48.602,Simcolourproject_2stim_asymm_v5,2020.2.10,MacIntel,60,61025ae37ef11b136ea224fe,,,,,,,,,4065,26,41,1,0,0,response1disk,,7,7,11,1,0,0,rectangle,7,11,1,0,0,7,11,1,0,0,1,125,285,123,1,,,,,,,,
,,,,,,,,,,,,,FF,,,,,,,,0.233,,,,,,,,,,,,,,,,,,,,,,60ff42c367f96f0df9a03e25,61036b06b49c043f5f0b1b4f,2021-07-29_23h01.48.602,Simcolourproject_2stim_asymm_v5,2020.2.10,MacIntel,60,61025ae37ef11b136ea224fe,,,,,,,,,2372,27,47,1,0,0,response1disk,,7,11,1,1,0,0,rectangle,11,1,1,0,0,11,1,1,0,0,1,126,286,55,1,,,,,,,,
,,,,,,,,,,,,,FF,,,,,,,,0.183,,,,,,,,,,,,,,,,,,,,,,60ff42c367f96f0df9a03e25,61036b06b49c043f5f0b1b4f,2021-07-29_23h01.48.602,Simcolourproject_2stim_asymm_v5,2020.2.10,MacIntel,60,61025ae37ef11b136ea224fe,,,,,,,,,3103,19,32,1,0,0,response1disk,,7,10,-8,1,0,0,rectangle,10,-8,1,0,0,10,-8,1,0,0,1,127,287,52,1,,,,,,,,
,,,,,,,,,,,,,FF,,,,,,,,0.551,,,,,,,,,,,,,,,,,,,,,,60ff42c367f96f0df9a03e25,61036b06b49c043f5f0b1b4f,2021-07-29_23h01.48.602,Simcolourproject_2stim_asymm_v5,2020.2.10,MacIntel,60,61025ae37ef11b136ea224fe,,,,,,,,,1327,25,34,1,0,0,response1disk,,7,1,-4,1,0,0,rectangle,1,-4,1,0,0,1,-4,1,0,0,1,128,288,47,1,,,,,,,,
,,,,,,,,,,,,,FF,,,,,,,,0.317,,,,,,,,,,,,,,,,,,,,,,60ff42c367f96f0df9a03e25,61036b06b49c043f5f0b1b4f,2021-07-29_23h01.48.602,Simcolourproject_2stim_asymm_v5,2020.2.10,MacIntel,60,61025ae37ef11b136ea224fe,,,,,,,,,1206,19,43,1,0,0,response1disk,,7,4,-8,1,0,0,rectangle,4,-8,1,0,0,4,-8,1,0,0,1,129,289,138,1,,,,,,,,
,,,,,,,,,,,,,FF,,,,,,,,0.117,,,,,,,,,,,,,,,,,,,,,,60ff42c367f96f0df9a03e25,61036b06b49c043f5f0b1b4f,2021-07-29_23h01.48.602,Simcolourproject_2stim_asymm_v5,2020.2.10,MacIntel,60,61025ae37ef11b136ea224fe,,,,,,,,,4100,37,58,1,0,0,response1disk,,7,20,18,1,0,0,rectangle,20,18,1,0,0,20,18,1,0,0,1,130,290,154,1,,,,,,,,
,,,,,,,,,,,,,FF,,,,,,,,0.1,,,,,,,,,,,,,,,,,,,,,,60ff42c367f96f0df9a03e25,61036b06b49c043f5f0b1b4f,2021-07-29_23h01.48.602,Simcolourproject_2stim_asymm_v5,2020.2.10,MacIntel,60,61025ae37ef11b136ea224fe,,,,,,,,,3067,30,54,1,0,0,response1disk,,7,10,2,1,0,0,rectangle,10,2,1,0,0,10,2,1,0,0,1,131,291,145,1,,,,,,,,
,,,,,,,,,,,,,FF,,,,,,,,0.1,,,,,,,,,,,,,,,,,,,,,,60ff42c367f96f0df9a03e25,61036b06b49c043f5f0b1b4f,2021-07-29_23h01.48.602,Simcolourproject_2stim_asymm_v5,2020.2.10,MacIntel,60,61025ae37ef11b136ea224fe,,,,,,,,,2445,28,50,1,0,0,response1disk,,7,12,3,1,0,0,rectangle,12,3,1,0,0,12,3,1,0,0,1,132,292,114,1,,,,,,,,
,,,,,,,,,,,,,FF,,,,,,,,0.151,,,,,,,,,,,,,,,,,,,,,,60ff42c367f96f0df9a03e25,61036b06b49c043f5f0b1b4f,2021-07-29_23h01.48.602,Simcolourproject_2stim_asymm_v5,2020.2.10,MacIntel,60,61025ae37ef11b136ea224fe,,,,,,,,,4013,34,49,1,0,0,response1disk,,7,12,5,1,0,0,rectangle,45,31,1,0,0,39,9,1,0,0,1,133,293,37,1,,response1disk_3,TRUE,6,6,"[209,55,222,140,177,110,294,176,110,122,45,46,273,139,244,237,159,70,230,283]",1.817,rectangle
,,,,,,,,,,,,,FF,,,,,,,,0.6,,,,,,,,,,,,,,,,,,,,,,60ff42c367f96f0df9a03e25,61036b06b49c043f5f0b1b4f,2021-07-29_23h01.48.602,Simcolourproject_2stim_asymm_v5,2020.2.10,MacIntel,60,61025ae37ef11b136ea224fe,,,,,,,,,3484,18,45,1,0,0,response1disk,,7,8,-5,1,0,0,rectangle,8,-5,1,0,0,8,-5,1,0,0,1,134,294,135,1,,,,,,,,
,,,,,,,,,,,,,FF,,,,,,,,0.233,,,,,,,,,,,,,,,,,,,,,,60ff42c367f96f0df9a03e25,61036b06b49c043f5f0b1b4f,2021-07-29_23h01.48.602,Simcolourproject_2stim_asymm_v5,2020.2.10,MacIntel,60,61025ae37ef11b136ea224fe,,,,,,,,,997,20,46,1,0,0,response1disk,,7,-6,-3,1,0,0,rectangle,-6,-3,1,0,0,-6,-3,1,0,0,1,135,295,9,1,,,,,,,,
,,,,,,,,,,,,,FF,,,,,,,,0.317,,,,,,,,,,,,,,,,,,,,,,60ff42c367f96f0df9a03e25,61036b06b49c043f5f0b1b4f,2021-07-29_23h01.48.602,Simcolourproject_2stim_asymm_v5,2020.2.10,MacIntel,60,61025ae37ef11b136ea224fe,,,,,,,,,526,16,39,1,0,0,response1disk,,7,-2,-6,1,0,0,rectangle,-2,-6,1,0,0,-2,-6,1,0,0,1,136,296,90,1,,,,,,,,
,,,,,,,,,,,,,FF,,,,,,,,0.268,,,,,,,,,,,,,,,,,,,,,,60ff42c367f96f0df9a03e25,61036b06b49c043f5f0b1b4f,2021-07-29_23h01.48.602,Simcolourproject_2stim_asymm_v5,2020.2.10,MacIntel,60,61025ae37ef11b136ea224fe,,,,,,,,,1949,14,36,1,0,0,response1disk,,7,3,0,1,0,0,rectangle,3,0,1,0,0,3,0,1,0,0,1,137,297,64,1,,,,,,,,
,,,,,,,,,,,,,FF,,,,,,,,0.333,,,,,,,,,,,,,,,,,,,,,,60ff42c367f96f0df9a03e25,61036b06b49c043f5f0b1b4f,2021-07-29_23h01.48.602,Simcolourproject_2stim_asymm_v5,2020.2.10,MacIntel,60,61025ae37ef11b136ea224fe,,,,,,,,,1701,21,33,1,0,0,response1disk,,7,-1,-6,1,0,0,rectangle,-1,-6,1,0,0,-1,-6,1,0,0,1,138,298,27,1,,,,,,,,
,,,,,,,,,,,,,FF,,,,,,,,0.467,,,,,,,,,,,,,,,,,,,,,,60ff42c367f96f0df9a03e25,61036b06b49c043f5f0b1b4f,2021-07-29_23h01.48.602,Simcolourproject_2stim_asymm_v5,2020.2.10,MacIntel,60,61025ae37ef11b136ea224fe,,,,,,,,,1725,21,42,1,0,0,response1disk,,7,5,6,1,0,0,rectangle,5,6,1,0,0,5,6,1,0,0,1,139,299,89,1,,,,,,,,
,,,,,,,,,,,,,FF,,,,,,,,0.183,,,,,,,,,,,,,,,,,,,,,,60ff42c367f96f0df9a03e25,61036b06b49c043f5f0b1b4f,2021-07-29_23h01.48.602,Simcolourproject_2stim_asymm_v5,2020.2.10,MacIntel,60,61025ae37ef11b136ea224fe,,,,,,,,,4193,23,45,1,0,0,response1disk,,7,7,-6,1,0,0,rectangle,7,-6,1,0,0,7,-6,1,0,0,1,140,300,91,1,,,,,,,,
,,,,,,,,,,,,,FF,,,,,,,,0.333,,,,,,,,,,,,,,,,,,,,,,60ff42c367f96f0df9a03e25,61036b06b49c043f5f0b1b4f,2021-07-29_23h01.48.602,Simcolourproject_2stim_asymm_v5,2020.2.10,MacIntel,60,61025ae37ef11b136ea224fe,,,,,,,,,3225,24,42,1,0,0,response1disk,,7,5,-3,1,0,0,rectangle,5,-3,1,0,0,5,-3,1,0,0,1,141,301,115,1,,,,,,,,
