key_resp.keys,key_resp.rt,key_resp_14.keys,key_resp_14.rt,key_resp_15.keys,key_resp_15.rt,key_resp_17.keys,key_resp_17.rt,key_resp_9.keys,key_resp_9.rt,key_resp_10.keys,key_resp_10.rt,practice_comparison,Ecc,mouse_5.x,mouse_5.y,mouse_5.leftButton,mouse_5.midButton,mouse_5.rightButton,mouse_5.clicked_name,pracsimilarity,response_time,mouse_10.x,mouse_10.y,mouse_10.leftButton,mouse_10.midButton,mouse_10.rightButton,mouse_10.clicked_name,mouse_7.x,mouse_7.y,mouse_7.leftButton,mouse_7.midButton,mouse_7.rightButton,mouse_6.x,mouse_6.y,mouse_6.leftButton,mouse_6.midButton,mouse_6.rightButton,duringprac.thisRepN,duringprac.thisTrialN,duringprac.thisN,duringprac.thisIndex,duringprac.ran,participant,session,date,expName,psychopyVersion,OS,frameRate,study_id,mouse_7.clicked_name,catchpracsimilarity,catch_response_time,catchnumberprac,catchtrialorderprac,mouse_6.clicked_name,key_resp_22.keys,key_resp_22.rt,realcomparison,mouse.x,mouse.y,mouse.leftButton,mouse.midButton,mouse.rightButton,mouse.clicked_name,Colour2,similarity,mouse_2.x,mouse_2.y,mouse_2.leftButton,mouse_2.midButton,mouse_2.rightButton,mouse_2.clicked_name,mouse_3.x,mouse_3.y,mouse_3.leftButton,mouse_3.midButton,mouse_3.rightButton,mouse_11.x,mouse_11.y,mouse_11.leftButton,mouse_11.midButton,mouse_11.rightButton,trials_2.thisRepN,trials_2.thisTrialN,trials_2.thisN,trials_2.thisIndex,trials_2.ran,Colour1,mouse_3.clicked_name,catchornah,catchsimilarity,catchnumber,catchtrialorder,catchRT,mouse_11.clicked_name
space,115.2127,space,555.5822,space,13.9496,space,4.8001,space,1.4002,space,4.1505,122,FF,60,-135,1,0,0,response3disk_5,4,5.751,1,5,1,0,0,rectangle_8,1,5,1,0,0,1,5,1,0,0,0,0,0,0,1,60ff447048f1d7c26cfcdefa,61036fb6c799215fa2f5a2a9,2021-07-30_15h28.36.283,Simcolourproject_2stim_asymm_v5,2020.2.10,Win32,60,61025ae37ef11b136ea224fe,,,,,,,,,,,,,,,,,,,,,,,,,,,,,,,,,,,,,,,,,,,,,,
,,,,,,,,,,,,67,PF,112,-61,1,0,0,response3disk_5,5,6.0659,-17,-6,1,0,0,rectangle_8,111,42,1,0,0,-7,1,1,0,0,0,1,1,4,1,60ff447048f1d7c26cfcdefa,61036fb6c799215fa2f5a2a9,2021-07-30_15h28.36.283,Simcolourproject_2stim_asymm_v5,2020.2.10,Win32,60,61025ae37ef11b136ea224fe,response1disk_7,6,2.3176,6,"[2,5]",rectangle_4,,,,,,,,,,,,,,,,,,,,,,,,,,,,,,,,,,,,,,,,
,,,,,,,,,,,,60,FF,41,-97,1,0,0,response3disk_5,4,2.4183,-7,2,1,0,0,rectangle_8,-7,2,1,0,0,-7,2,1,0,0,0,2,2,3,1,60ff447048f1d7c26cfcdefa,61036fb6c799215fa2f5a2a9,2021-07-30_15h28.36.283,Simcolourproject_2stim_asymm_v5,2020.2.10,Win32,60,61025ae37ef11b136ea224fe,,,,,,,,,,,,,,,,,,,,,,,,,,,,,,,,,,,,,,,,,,,,,,
,,,,,,,,,,,,139,PF,-61,-104,1,0,0,response5disk_5,3,2.8668,-10,2,1,0,0,rectangle_8,-10,2,1,0,0,-10,2,1,0,0,0,3,3,6,1,60ff447048f1d7c26cfcdefa,61036fb6c799215fa2f5a2a9,2021-07-30_15h28.36.283,Simcolourproject_2stim_asymm_v5,2020.2.10,Win32,60,61025ae37ef11b136ea224fe,,,,,,,,,,,,,,,,,,,,,,,,,,,,,,,,,,,,,,,,,,,,,,
,,,,,,,,,,,,83,PF,-59,-103,1,0,0,response5disk_5,3,1.408,1,-5,1,0,0,rectangle_8,134,40,1,0,0,-17,0,1,0,0,0,4,4,2,1,60ff447048f1d7c26cfcdefa,61036fb6c799215fa2f5a2a9,2021-07-30_15h28.36.283,Simcolourproject_2stim_asymm_v5,2020.2.10,Win32,60,61025ae37ef11b136ea224fe,response1disk_7,6,1.8005,6,"[2,5]",rectangle_4,,,,,,,,,,,,,,,,,,,,,,,,,,,,,,,,,,,,,,,,
,,,,,,,,,,,,59,FF,97,-52,1,0,0,response3disk_5,5,1.8337,4,-4,1,0,0,rectangle_8,4,-4,1,0,0,4,-4,1,0,0,0,5,5,5,1,60ff447048f1d7c26cfcdefa,61036fb6c799215fa2f5a2a9,2021-07-30_15h28.36.283,Simcolourproject_2stim_asymm_v5,2020.2.10,Win32,60,61025ae37ef11b136ea224fe,,,,,,,,,,,,,,,,,,,,,,,,,,,,,,,,,,,,,,,,,,,,,,
,,,,,,,,,,,,145,PF,-31,-97,1,0,0,response5disk_5,3,1.9668,8,1,1,0,0,rectangle_8,8,1,1,0,0,8,1,1,0,0,0,6,6,1,1,60ff447048f1d7c26cfcdefa,61036fb6c799215fa2f5a2a9,2021-07-30_15h28.36.283,Simcolourproject_2stim_asymm_v5,2020.2.10,Win32,60,61025ae37ef11b136ea224fe,,,,,,,,,,,,,,,,,,,,,,,,,,,,,,,,,,,,,,,,,,,,,,
,,,,,,,,,,,,,FF,,,,,,,,4.5336,,,,,,,,,,,,,,,,,,,,,,60ff447048f1d7c26cfcdefa,61036fb6c799215fa2f5a2a9,2021-07-30_15h28.36.283,Simcolourproject_2stim_asymm_v5,2020.2.10,Win32,60,61025ae37ef11b136ea224fe,,,,,,,space,2.7275,2829,67,-100,1,0,0,response3disk,,4,1,-2,1,0,0,rectangle,1,-2,1,0,0,1,-2,1,0,0,0,0,0,87,1,,,,,,,,
,,,,,,,,,,,,,FF,,,,,,,,2.5337,,,,,,,,,,,,,,,,,,,,,,60ff447048f1d7c26cfcdefa,61036fb6c799215fa2f5a2a9,2021-07-30_15h28.36.283,Simcolourproject_2stim_asymm_v5,2020.2.10,Win32,60,61025ae37ef11b136ea224fe,,,,,,,,,2948,-100,51,1,0,0,response7disk,,1,-4,0,1,0,0,rectangle,-4,0,1,0,0,-4,0,1,0,0,0,1,1,65,1,,,,,,,,
,,,,,,,,,,,,,FF,,,,,,,,2.8677,,,,,,,,,,,,,,,,,,,,,,60ff447048f1d7c26cfcdefa,61036fb6c799215fa2f5a2a9,2021-07-30_15h28.36.283,Simcolourproject_2stim_asymm_v5,2020.2.10,Win32,60,61025ae37ef11b136ea224fe,,,,,,,,,58,76,-85,1,0,0,response3disk,,4,-12,0,1,0,0,rectangle,-12,0,1,0,0,-12,0,1,0,0,0,2,2,90,1,,,,,,,,
,,,,,,,,,,,,,FF,,,,,,,,1.1171,,,,,,,,,,,,,,,,,,,,,,60ff447048f1d7c26cfcdefa,61036fb6c799215fa2f5a2a9,2021-07-30_15h28.36.283,Simcolourproject_2stim_asymm_v5,2020.2.10,Win32,60,61025ae37ef11b136ea224fe,,,,,,,,,2609,-59,-92,1,0,0,response5disk,,3,-18,-3,1,0,0,rectangle,-18,-3,1,0,0,-18,-3,1,0,0,0,3,3,155,1,,,,,,,,
,,,,,,,,,,,,,FF,,,,,,,,1.5835,,,,,,,,,,,,,,,,,,,,,,60ff447048f1d7c26cfcdefa,61036fb6c799215fa2f5a2a9,2021-07-30_15h28.36.283,Simcolourproject_2stim_asymm_v5,2020.2.10,Win32,60,61025ae37ef11b136ea224fe,,,,,,,,,1312,-50,-90,1,0,0,response5disk,,3,2,3,1,0,0,rectangle,2,3,1,0,0,2,3,1,0,0,0,4,4,86,1,,,,,,,,
,,,,,,,,,,,,,FF,,,,,,,,1.1002,,,,,,,,,,,,,,,,,,,,,,60ff447048f1d7c26cfcdefa,61036fb6c799215fa2f5a2a9,2021-07-30_15h28.36.283,Simcolourproject_2stim_asymm_v5,2020.2.10,Win32,60,61025ae37ef11b136ea224fe,,,,,,,,,2457,112,-50,1,0,0,response3disk,,5,-4,7,1,0,0,rectangle,-54,117,1,0,0,-3,7,1,0,0,0,5,5,137,1,,response7disk_3,TRUE,0,0,"[180,89,6,57,315,281,101,154,235,20,271,308,169,157,205,142,200,145,253,86]",2.3003,rectangle
,,,,,,,,,,,,,FF,,,,,,,,1.7507,,,,,,,,,,,,,,,,,,,,,,60ff447048f1d7c26cfcdefa,61036fb6c799215fa2f5a2a9,2021-07-30_15h28.36.283,Simcolourproject_2stim_asymm_v5,2020.2.10,Win32,60,61025ae37ef11b136ea224fe,,,,,,,,,619,-99,-49,1,0,0,response5disk,,2,18,-1,1,0,0,rectangle,18,-1,1,0,0,18,-1,1,0,0,0,6,6,79,1,,,,,,,,
,,,,,,,,,,,,,FF,,,,,,,,1.1668,,,,,,,,,,,,,,,,,,,,,,60ff447048f1d7c26cfcdefa,61036fb6c799215fa2f5a2a9,2021-07-30_15h28.36.283,Simcolourproject_2stim_asymm_v5,2020.2.10,Win32,60,61025ae37ef11b136ea224fe,,,,,,,,,1251,100,48,1,0,0,response1disk,,6,3,8,1,0,0,rectangle,3,8,1,0,0,3,8,1,0,0,0,7,7,117,1,,,,,,,,
,,,,,,,,,,,,,FF,,,,,,,,1.1503,,,,,,,,,,,,,,,,,,,,,,60ff447048f1d7c26cfcdefa,61036fb6c799215fa2f5a2a9,2021-07-30_15h28.36.283,Simcolourproject_2stim_asymm_v5,2020.2.10,Win32,60,61025ae37ef11b136ea224fe,,,,,,,,,4205,-99,47,1,0,0,response7disk,,1,-13,3,1,0,0,rectangle,-13,3,1,0,0,-13,3,1,0,0,0,8,8,141,1,,,,,,,,
,,,,,,,,,,,,,FF,,,,,,,,0.7001,,,,,,,,,,,,,,,,,,,,,,60ff447048f1d7c26cfcdefa,61036fb6c799215fa2f5a2a9,2021-07-30_15h28.36.283,Simcolourproject_2stim_asymm_v5,2020.2.10,Win32,60,61025ae37ef11b136ea224fe,,,,,,,,,528,-84,42,1,0,0,response7disk,,1,0,5,1,0,0,rectangle,0,5,1,0,0,0,5,1,0,0,0,9,9,74,1,,,,,,,,
,,,,,,,,,,,,,FF,,,,,,,,1.0331,,,,,,,,,,,,,,,,,,,,,,60ff447048f1d7c26cfcdefa,61036fb6c799215fa2f5a2a9,2021-07-30_15h28.36.283,Simcolourproject_2stim_asymm_v5,2020.2.10,Win32,60,61025ae37ef11b136ea224fe,,,,,,,,,688,52,-64,1,0,0,response3disk,,4,-4,9,1,0,0,rectangle,-4,9,1,0,0,-4,9,1,0,0,0,10,10,30,1,,,,,,,,
,,,,,,,,,,,,,FF,,,,,,,,0.8174,,,,,,,,,,,,,,,,,,,,,,60ff447048f1d7c26cfcdefa,61036fb6c799215fa2f5a2a9,2021-07-30_15h28.36.283,Simcolourproject_2stim_asymm_v5,2020.2.10,Win32,60,61025ae37ef11b136ea224fe,,,,,,,,,110,-54,-94,1,0,0,response5disk,,3,3,-5,1,0,0,rectangle,3,-5,1,0,0,3,-5,1,0,0,0,11,11,0,1,,,,,,,,
,,,,,,,,,,,,,FF,,,,,,,,1.3004,,,,,,,,,,,,,,,,,,,,,,60ff447048f1d7c26cfcdefa,61036fb6c799215fa2f5a2a9,2021-07-30_15h28.36.283,Simcolourproject_2stim_asymm_v5,2020.2.10,Win32,60,61025ae37ef11b136ea224fe,,,,,,,,,3675,-135,-58,1,0,0,response5disk,,2,-15,5,1,0,0,rectangle,-15,5,1,0,0,-15,5,1,0,0,0,12,12,124,1,,,,,,,,
,,,,,,,,,,,,,FF,,,,,,,,1.6167,,,,,,,,,,,,,,,,,,,,,,60ff447048f1d7c26cfcdefa,61036fb6c799215fa2f5a2a9,2021-07-30_15h28.36.283,Simcolourproject_2stim_asymm_v5,2020.2.10,Win32,60,61025ae37ef11b136ea224fe,,,,,,,,,3562,24,-81,1,0,0,response3disk,,4,7,4,1,0,0,rectangle,7,4,1,0,0,7,4,1,0,0,0,13,13,45,1,,,,,,,,
,,,,,,,,,,,,,FF,,,,,,,,0.9167,,,,,,,,,,,,,,,,,,,,,,60ff447048f1d7c26cfcdefa,61036fb6c799215fa2f5a2a9,2021-07-30_15h28.36.283,Simcolourproject_2stim_asymm_v5,2020.2.10,Win32,60,61025ae37ef11b136ea224fe,,,,,,,,,3168,144,-46,1,0,0,response3disk,,5,16,4,1,0,0,rectangle,16,4,1,0,0,16,4,1,0,0,0,14,14,41,1,,,,,,,,
,,,,,,,,,,,,,FF,,,,,,,,1.3005,,,,,,,,,,,,,,,,,,,,,,60ff447048f1d7c26cfcdefa,61036fb6c799215fa2f5a2a9,2021-07-30_15h28.36.283,Simcolourproject_2stim_asymm_v5,2020.2.10,Win32,60,61025ae37ef11b136ea224fe,,,,,,,,,2845,-45,-86,1,0,0,response5disk,,3,24,-4,1,0,0,rectangle,24,-4,1,0,0,24,-4,1,0,0,0,15,15,59,1,,,,,,,,
,,,,,,,,,,,,,FF,,,,,,,,1.2668,,,,,,,,,,,,,,,,,,,,,,60ff447048f1d7c26cfcdefa,61036fb6c799215fa2f5a2a9,2021-07-30_15h28.36.283,Simcolourproject_2stim_asymm_v5,2020.2.10,Win32,60,61025ae37ef11b136ea224fe,,,,,,,,,1732,144,82,1,0,0,response1disk,,6,5,2,1,0,0,rectangle,5,2,1,0,0,5,2,1,0,0,0,16,16,127,1,,,,,,,,
,,,,,,,,,,,,,FF,,,,,,,,0.8646,,,,,,,,,,,,,,,,,,,,,,60ff447048f1d7c26cfcdefa,61036fb6c799215fa2f5a2a9,2021-07-30_15h28.36.283,Simcolourproject_2stim_asymm_v5,2020.2.10,Win32,60,61025ae37ef11b136ea224fe,,,,,,,,,1095,50,84,1,0,0,response1disk,,7,-3,6,1,0,0,rectangle,-3,6,1,0,0,-3,6,1,0,0,0,17,17,69,1,,,,,,,,
,,,,,,,,,,,,,FF,,,,,,,,1.0835,,,,,,,,,,,,,,,,,,,,,,60ff447048f1d7c26cfcdefa,61036fb6c799215fa2f5a2a9,2021-07-30_15h28.36.283,Simcolourproject_2stim_asymm_v5,2020.2.10,Win32,60,61025ae37ef11b136ea224fe,,,,,,,,,545,-95,-41,1,0,0,response5disk,,2,8,6,1,0,0,rectangle,8,6,1,0,0,8,6,1,0,0,0,18,18,33,1,,,,,,,,
,,,,,,,,,,,,,FF,,,,,,,,1.0672,,,,,,,,,,,,,,,,,,,,,,60ff447048f1d7c26cfcdefa,61036fb6c799215fa2f5a2a9,2021-07-30_15h28.36.283,Simcolourproject_2stim_asymm_v5,2020.2.10,Win32,60,61025ae37ef11b136ea224fe,,,,,,,,,1052,-113,-48,1,0,0,response5disk,,2,-6,3,1,0,0,rectangle,-78,53,1,0,0,-1,11,1,0,0,0,19,19,26,1,,response7disk_3,TRUE,1,1,"[180,89,6,57,315,281,101,154,235,20,271,308,169,157,205,142,200,145,253,86]",1.3165,rectangle
,,,,,,,,,,,,,FF,,,,,,,,1.2503,,,,,,,,,,,,,,,,,,,,,,60ff447048f1d7c26cfcdefa,61036fb6c799215fa2f5a2a9,2021-07-30_15h28.36.283,Simcolourproject_2stim_asymm_v5,2020.2.10,Win32,60,61025ae37ef11b136ea224fe,,,,,,,,,3209,40,-100,1,0,0,response3disk,,4,22,5,1,0,0,rectangle,22,5,1,0,0,22,5,1,0,0,0,20,20,104,1,,,,,,,,
,,,,,,,,,,,,,FF,,,,,,,,1.0833,,,,,,,,,,,,,,,,,,,,,,60ff447048f1d7c26cfcdefa,61036fb6c799215fa2f5a2a9,2021-07-30_15h28.36.283,Simcolourproject_2stim_asymm_v5,2020.2.10,Win32,60,61025ae37ef11b136ea224fe,,,,,,,,,2014,91,-72,1,0,0,response3disk,,5,-10,-11,1,0,0,rectangle,-10,-11,1,0,0,-10,-11,1,0,0,0,21,21,64,1,,,,,,,,
,,,,,,,,,,,,,FF,,,,,,,,1.0505,,,,,,,,,,,,,,,,,,,,,,60ff447048f1d7c26cfcdefa,61036fb6c799215fa2f5a2a9,2021-07-30_15h28.36.283,Simcolourproject_2stim_asymm_v5,2020.2.10,Win32,60,61025ae37ef11b136ea224fe,,,,,,,,,3736,83,-30,1,0,0,response3disk,,5,5,16,1,0,0,rectangle,5,16,1,0,0,5,16,1,0,0,0,22,22,2,1,,,,,,,,
,,,,,,,,,,,,,FF,,,,,,,,1.0169,,,,,,,,,,,,,,,,,,,,,,60ff447048f1d7c26cfcdefa,61036fb6c799215fa2f5a2a9,2021-07-30_15h28.36.283,Simcolourproject_2stim_asymm_v5,2020.2.10,Win32,60,61025ae37ef11b136ea224fe,,,,,,,,,2851,77,-46,1,0,0,response3disk,,5,-15,-6,1,0,0,rectangle,-15,-6,1,0,0,-15,-6,1,0,0,0,23,23,80,1,,,,,,,,
,,,,,,,,,,,,,FF,,,,,,,,0.9501,,,,,,,,,,,,,,,,,,,,,,60ff447048f1d7c26cfcdefa,61036fb6c799215fa2f5a2a9,2021-07-30_15h28.36.283,Simcolourproject_2stim_asymm_v5,2020.2.10,Win32,60,61025ae37ef11b136ea224fe,,,,,,,,,1986,48,-80,1,0,0,response3disk,,4,-1,-7,1,0,0,rectangle,-1,-7,1,0,0,-1,-7,1,0,0,0,24,24,77,1,,,,,,,,
,,,,,,,,,,,,,FF,,,,,,,,1.7337,,,,,,,,,,,,,,,,,,,,,,60ff447048f1d7c26cfcdefa,61036fb6c799215fa2f5a2a9,2021-07-30_15h28.36.283,Simcolourproject_2stim_asymm_v5,2020.2.10,Win32,60,61025ae37ef11b136ea224fe,,,,,,,,,1591,91,-47,1,0,0,response3disk,,5,14,-1,1,0,0,rectangle,14,-1,1,0,0,14,-1,1,0,0,0,25,25,154,1,,,,,,,,
,,,,,,,,,,,,,FF,,,,,,,,1.5166,,,,,,,,,,,,,,,,,,,,,,60ff447048f1d7c26cfcdefa,61036fb6c799215fa2f5a2a9,2021-07-30_15h28.36.283,Simcolourproject_2stim_asymm_v5,2020.2.10,Win32,60,61025ae37ef11b136ea224fe,,,,,,,,,656,40,-75,1,0,0,response3disk,,4,4,-4,1,0,0,rectangle,4,-4,1,0,0,4,-4,1,0,0,0,26,26,135,1,,,,,,,,
,,,,,,,,,,,,,FF,,,,,,,,1.3169,,,,,,,,,,,,,,,,,,,,,,60ff447048f1d7c26cfcdefa,61036fb6c799215fa2f5a2a9,2021-07-30_15h28.36.283,Simcolourproject_2stim_asymm_v5,2020.2.10,Win32,60,61025ae37ef11b136ea224fe,,,,,,,,,1719,127,71,1,0,0,response1disk,,6,18,5,1,0,0,rectangle,18,5,1,0,0,18,5,1,0,0,0,27,27,43,1,,,,,,,,
,,,,,,,,,,,,,FF,,,,,,,,0.784,,,,,,,,,,,,,,,,,,,,,,60ff447048f1d7c26cfcdefa,61036fb6c799215fa2f5a2a9,2021-07-30_15h28.36.283,Simcolourproject_2stim_asymm_v5,2020.2.10,Win32,60,61025ae37ef11b136ea224fe,,,,,,,,,2561,70,-50,1,0,0,response3disk,,5,4,-11,1,0,0,rectangle,4,-11,1,0,0,4,-11,1,0,0,0,28,28,60,1,,,,,,,,
,,,,,,,,,,,,,FF,,,,,,,,1.117,,,,,,,,,,,,,,,,,,,,,,60ff447048f1d7c26cfcdefa,61036fb6c799215fa2f5a2a9,2021-07-30_15h28.36.283,Simcolourproject_2stim_asymm_v5,2020.2.10,Win32,60,61025ae37ef11b136ea224fe,,,,,,,,,2304,-97,-59,1,0,0,response5disk,,2,-6,-3,1,0,0,rectangle,-6,-3,1,0,0,-6,-3,1,0,0,0,29,29,34,1,,,,,,,,
,,,,,,,,,,,,,FF,,,,,,,,1.184,,,,,,,,,,,,,,,,,,,,,,60ff447048f1d7c26cfcdefa,61036fb6c799215fa2f5a2a9,2021-07-30_15h28.36.283,Simcolourproject_2stim_asymm_v5,2020.2.10,Win32,60,61025ae37ef11b136ea224fe,,,,,,,,,323,99,-39,1,0,0,response3disk,,5,1,-1,1,0,0,rectangle,1,-1,1,0,0,1,-1,1,0,0,0,30,30,102,1,,,,,,,,
,,,,,,,,,,,,,FF,,,,,,,,1.5169,,,,,,,,,,,,,,,,,,,,,,60ff447048f1d7c26cfcdefa,61036fb6c799215fa2f5a2a9,2021-07-30_15h28.36.283,Simcolourproject_2stim_asymm_v5,2020.2.10,Win32,60,61025ae37ef11b136ea224fe,,,,,,,,,640,-57,-88,1,0,0,response5disk,,3,11,4,1,0,0,rectangle,11,4,1,0,0,11,4,1,0,0,0,31,31,112,1,,,,,,,,
,,,,,,,,,,,,,FF,,,,,,,,0.9336,,,,,,,,,,,,,,,,,,,,,,60ff447048f1d7c26cfcdefa,61036fb6c799215fa2f5a2a9,2021-07-30_15h28.36.283,Simcolourproject_2stim_asymm_v5,2020.2.10,Win32,60,61025ae37ef11b136ea224fe,,,,,,,,,520,-45,-82,1,0,0,response5disk,,3,20,-4,1,0,0,rectangle,20,-4,1,0,0,20,-4,1,0,0,0,32,32,91,1,,,,,,,,
,,,,,,,,,,,,,FF,,,,,,,,0.7501,,,,,,,,,,,,,,,,,,,,,,60ff447048f1d7c26cfcdefa,61036fb6c799215fa2f5a2a9,2021-07-30_15h28.36.283,Simcolourproject_2stim_asymm_v5,2020.2.10,Win32,60,61025ae37ef11b136ea224fe,,,,,,,,,1244,121,-36,1,0,0,response3disk,,5,10,2,1,0,0,rectangle,10,2,1,0,0,10,2,1,0,0,0,33,33,93,1,,,,,,,,
,,,,,,,,,,,,,FF,,,,,,,,0.9001,,,,,,,,,,,,,,,,,,,,,,60ff447048f1d7c26cfcdefa,61036fb6c799215fa2f5a2a9,2021-07-30_15h28.36.283,Simcolourproject_2stim_asymm_v5,2020.2.10,Win32,60,61025ae37ef11b136ea224fe,,,,,,,,,2973,54,110,1,0,0,response1disk,,7,8,-5,1,0,0,rectangle,8,-5,1,0,0,8,-5,1,0,0,0,34,34,48,1,,,,,,,,
,,,,,,,,,,,,,FF,,,,,,,,1.1502,,,,,,,,,,,,,,,,,,,,,,60ff447048f1d7c26cfcdefa,61036fb6c799215fa2f5a2a9,2021-07-30_15h28.36.283,Simcolourproject_2stim_asymm_v5,2020.2.10,Win32,60,61025ae37ef11b136ea224fe,,,,,,,,,1406,93,-51,1,0,0,response3disk,,5,-13,5,1,0,0,rectangle,-13,5,1,0,0,-13,5,1,0,0,0,35,35,39,1,,,,,,,,
,,,,,,,,,,,,,FF,,,,,,,,1.7168,,,,,,,,,,,,,,,,,,,,,,60ff447048f1d7c26cfcdefa,61036fb6c799215fa2f5a2a9,2021-07-30_15h28.36.283,Simcolourproject_2stim_asymm_v5,2020.2.10,Win32,60,61025ae37ef11b136ea224fe,,,,,,,,,89,75,-36,1,0,0,response3disk,,5,-12,1,1,0,0,rectangle,-12,1,1,0,0,-12,1,1,0,0,0,36,36,121,1,,,,,,,,
,,,,,,,,,,,,,FF,,,,,,,,1.4334,,,,,,,,,,,,,,,,,,,,,,60ff447048f1d7c26cfcdefa,61036fb6c799215fa2f5a2a9,2021-07-30_15h28.36.283,Simcolourproject_2stim_asymm_v5,2020.2.10,Win32,60,61025ae37ef11b136ea224fe,,,,,,,,,751,41,108,1,0,0,response1disk,,7,-4,8,1,0,0,rectangle,-4,8,1,0,0,-4,8,1,0,0,0,37,37,108,1,,,,,,,,
,,,,,,,,,,,,,FF,,,,,,,,0.6836,,,,,,,,,,,,,,,,,,,,,,60ff447048f1d7c26cfcdefa,61036fb6c799215fa2f5a2a9,2021-07-30_15h28.36.283,Simcolourproject_2stim_asymm_v5,2020.2.10,Win32,60,61025ae37ef11b136ea224fe,,,,,,,,,2913,55,111,1,0,0,response1disk,,7,-8,2,1,0,0,rectangle,-8,2,1,0,0,-8,2,1,0,0,0,38,38,147,1,,,,,,,,
,,,,,,,,,,,,,FF,,,,,,,,0.7001,,,,,,,,,,,,,,,,,,,,,,60ff447048f1d7c26cfcdefa,61036fb6c799215fa2f5a2a9,2021-07-30_15h28.36.283,Simcolourproject_2stim_asymm_v5,2020.2.10,Win32,60,61025ae37ef11b136ea224fe,,,,,,,,,2585,49,95,1,0,0,response1disk,,7,2,-9,1,0,0,rectangle,2,-9,1,0,0,2,-9,1,0,0,0,39,39,142,1,,,,,,,,
,,,,,,,,,,,,,FF,,,,,,,,1.617,,,,,,,,,,,,,,,,,,,,,,60ff447048f1d7c26cfcdefa,61036fb6c799215fa2f5a2a9,2021-07-30_15h28.36.283,Simcolourproject_2stim_asymm_v5,2020.2.10,Win32,60,61025ae37ef11b136ea224fe,,,,,,,,,1992,59,94,1,0,0,response1disk,,7,4,-7,1,0,0,rectangle,4,-7,1,0,0,4,-7,1,0,0,0,40,40,32,1,,,,,,,,
,,,,,,,,,,,,,FF,,,,,,,,1.3167,,,,,,,,,,,,,,,,,,,,,,60ff447048f1d7c26cfcdefa,61036fb6c799215fa2f5a2a9,2021-07-30_15h28.36.283,Simcolourproject_2stim_asymm_v5,2020.2.10,Win32,60,61025ae37ef11b136ea224fe,,,,,,,,,2094,-117,-58,1,0,0,response5disk,,2,-15,6,1,0,0,rectangle,-15,6,1,0,0,-15,6,1,0,0,0,41,41,159,1,,,,,,,,
,,,,,,,,,,,,,FF,,,,,,,,0.7169,,,,,,,,,,,,,,,,,,,,,,60ff447048f1d7c26cfcdefa,61036fb6c799215fa2f5a2a9,2021-07-30_15h28.36.283,Simcolourproject_2stim_asymm_v5,2020.2.10,Win32,60,61025ae37ef11b136ea224fe,,,,,,,,,284,-95,-51,1,0,0,response5disk,,2,0,-10,1,0,0,rectangle,0,-10,1,0,0,0,-10,1,0,0,0,42,42,42,1,,,,,,,,
,,,,,,,,,,,,,FF,,,,,,,,0.6835,,,,,,,,,,,,,,,,,,,,,,60ff447048f1d7c26cfcdefa,61036fb6c799215fa2f5a2a9,2021-07-30_15h28.36.283,Simcolourproject_2stim_asymm_v5,2020.2.10,Win32,60,61025ae37ef11b136ea224fe,,,,,,,,,1672,-95,-41,1,0,0,response5disk,,2,-1,0,1,0,0,rectangle,-1,0,1,0,0,-1,0,1,0,0,0,43,43,52,1,,,,,,,,
,,,,,,,,,,,,,FF,,,,,,,,0.8003,,,,,,,,,,,,,,,,,,,,,,60ff447048f1d7c26cfcdefa,61036fb6c799215fa2f5a2a9,2021-07-30_15h28.36.283,Simcolourproject_2stim_asymm_v5,2020.2.10,Win32,60,61025ae37ef11b136ea224fe,,,,,,,,,1800,47,-77,1,0,0,response3disk,,4,-10,-7,1,0,0,rectangle,-10,-7,1,0,0,-10,-7,1,0,0,0,44,44,3,1,,,,,,,,
,,,,,,,,,,,,,FF,,,,,,,,1.6167,,,,,,,,,,,,,,,,,,,,,,60ff447048f1d7c26cfcdefa,61036fb6c799215fa2f5a2a9,2021-07-30_15h28.36.283,Simcolourproject_2stim_asymm_v5,2020.2.10,Win32,60,61025ae37ef11b136ea224fe,,,,,,,,,3877,76,-103,1,0,0,response3disk,,4,-29,9,1,0,0,rectangle,-29,9,1,0,0,-29,9,1,0,0,0,45,45,1,1,,,,,,,,
,,,,,,,,,,,,,FF,,,,,,,,1.1667,,,,,,,,,,,,,,,,,,,,,,60ff447048f1d7c26cfcdefa,61036fb6c799215fa2f5a2a9,2021-07-30_15h28.36.283,Simcolourproject_2stim_asymm_v5,2020.2.10,Win32,60,61025ae37ef11b136ea224fe,,,,,,,,,9,-47,-89,1,0,0,response5disk,,3,-21,-13,1,0,0,rectangle,-21,-13,1,0,0,-21,-13,1,0,0,0,46,46,15,1,,,,,,,,
,,,,,,,,,,,,,FF,,,,,,,,1.0833,,,,,,,,,,,,,,,,,,,,,,60ff447048f1d7c26cfcdefa,61036fb6c799215fa2f5a2a9,2021-07-30_15h28.36.283,Simcolourproject_2stim_asymm_v5,2020.2.10,Win32,60,61025ae37ef11b136ea224fe,,,,,,,,,749,124,-43,1,0,0,response3disk,,5,5,10,1,0,0,rectangle,5,10,1,0,0,5,10,1,0,0,0,47,47,83,1,,,,,,,,
,,,,,,,,,,,,,FF,,,,,,,,0.6505,,,,,,,,,,,,,,,,,,,,,,60ff447048f1d7c26cfcdefa,61036fb6c799215fa2f5a2a9,2021-07-30_15h28.36.283,Simcolourproject_2stim_asymm_v5,2020.2.10,Win32,60,61025ae37ef11b136ea224fe,,,,,,,,,1722,76,-58,1,0,0,response3disk,,5,-16,-5,1,0,0,rectangle,-16,-5,1,0,0,-16,-5,1,0,0,0,48,48,24,1,,,,,,,,
,,,,,,,,,,,,,FF,,,,,,,,0.7169,,,,,,,,,,,,,,,,,,,,,,60ff447048f1d7c26cfcdefa,61036fb6c799215fa2f5a2a9,2021-07-30_15h28.36.283,Simcolourproject_2stim_asymm_v5,2020.2.10,Win32,60,61025ae37ef11b136ea224fe,,,,,,,,,2240,-58,-72,1,0,0,response5disk,,3,-40,14,1,0,0,rectangle,-40,14,1,0,0,-40,14,1,0,0,0,49,49,81,1,,,,,,,,
,,,,,,,,,,,,,FF,,,,,,,,1.3333,,,,,,,,,,,,,,,,,,,,,,60ff447048f1d7c26cfcdefa,61036fb6c799215fa2f5a2a9,2021-07-30_15h28.36.283,Simcolourproject_2stim_asymm_v5,2020.2.10,Win32,60,61025ae37ef11b136ea224fe,,,,,,,,,4007,39,-105,1,0,0,response3disk,,4,-20,-7,1,0,0,rectangle,-20,-7,1,0,0,-20,-7,1,0,0,0,50,50,66,1,,,,,,,,
,,,,,,,,,,,,,FF,,,,,,,,0.8175,,,,,,,,,,,,,,,,,,,,,,60ff447048f1d7c26cfcdefa,61036fb6c799215fa2f5a2a9,2021-07-30_15h28.36.283,Simcolourproject_2stim_asymm_v5,2020.2.10,Win32,60,61025ae37ef11b136ea224fe,,,,,,,,,823,29,-98,1,0,0,response3disk,,4,-14,-4,1,0,0,rectangle,-14,-4,1,0,0,-14,-4,1,0,0,0,51,51,72,1,,,,,,,,
,,,,,,,,,,,,,FF,,,,,,,,0.5166,,,,,,,,,,,,,,,,,,,,,,60ff447048f1d7c26cfcdefa,61036fb6c799215fa2f5a2a9,2021-07-30_15h28.36.283,Simcolourproject_2stim_asymm_v5,2020.2.10,Win32,60,61025ae37ef11b136ea224fe,,,,,,,,,2678,62,-105,1,0,0,response3disk,,4,-3,4,1,0,0,rectangle,-3,4,1,0,0,-3,4,1,0,0,0,52,52,7,1,,,,,,,,
,,,,,,,,,,,,,FF,,,,,,,,1.1001,,,,,,,,,,,,,,,,,,,,,,60ff447048f1d7c26cfcdefa,61036fb6c799215fa2f5a2a9,2021-07-30_15h28.36.283,Simcolourproject_2stim_asymm_v5,2020.2.10,Win32,60,61025ae37ef11b136ea224fe,,,,,,,,,3893,114,39,1,0,0,response1disk,,6,6,-13,1,0,0,rectangle,6,-13,1,0,0,6,-13,1,0,0,0,53,53,46,1,,,,,,,,
,,,,,,,,,,,,,FF,,,,,,,,0.9002,,,,,,,,,,,,,,,,,,,,,,60ff447048f1d7c26cfcdefa,61036fb6c799215fa2f5a2a9,2021-07-30_15h28.36.283,Simcolourproject_2stim_asymm_v5,2020.2.10,Win32,60,61025ae37ef11b136ea224fe,,,,,,,,,3098,-91,48,1,0,0,response7disk,,1,-10,0,1,0,0,rectangle,-10,0,1,0,0,-10,0,1,0,0,0,54,54,22,1,,,,,,,,
,,,,,,,,,,,,,FF,,,,,,,,2.2843,,,,,,,,,,,,,,,,,,,,,,60ff447048f1d7c26cfcdefa,61036fb6c799215fa2f5a2a9,2021-07-30_15h28.36.283,Simcolourproject_2stim_asymm_v5,2020.2.10,Win32,60,61025ae37ef11b136ea224fe,,,,,,,,,4031,44,-108,1,0,0,response3disk,,4,-11,-9,1,0,0,rectangle,-11,-9,1,0,0,-11,-9,1,0,0,0,55,55,31,1,,,,,,,,
,,,,,,,,,,,,,FF,,,,,,,,0.768,,,,,,,,,,,,,,,,,,,,,,60ff447048f1d7c26cfcdefa,61036fb6c799215fa2f5a2a9,2021-07-30_15h28.36.283,Simcolourproject_2stim_asymm_v5,2020.2.10,Win32,60,61025ae37ef11b136ea224fe,,,,,,,,,1061,50,-97,1,0,0,response3disk,,4,-5,-9,1,0,0,rectangle,-110,-54,1,0,0,1,-5,1,0,0,0,56,56,54,1,,response5disk_3,TRUE,2,2,"[180,89,6,57,315,281,101,154,235,20,271,308,169,157,205,142,200,145,253,86]",1.5175,rectangle
,,,,,,,,,,,,,FF,,,,,,,,0.9352,,,,,,,,,,,,,,,,,,,,,,60ff447048f1d7c26cfcdefa,61036fb6c799215fa2f5a2a9,2021-07-30_15h28.36.283,Simcolourproject_2stim_asymm_v5,2020.2.10,Win32,60,61025ae37ef11b136ea224fe,,,,,,,,,1673,-50,-99,1,0,0,response5disk,,3,20,9,1,0,0,rectangle,20,9,1,0,0,20,9,1,0,0,0,57,57,145,1,,,,,,,,
,,,,,,,,,,,,,FF,,,,,,,,0.8002,,,,,,,,,,,,,,,,,,,,,,60ff447048f1d7c26cfcdefa,61036fb6c799215fa2f5a2a9,2021-07-30_15h28.36.283,Simcolourproject_2stim_asymm_v5,2020.2.10,Win32,60,61025ae37ef11b136ea224fe,,,,,,,,,128,62,-95,1,0,0,response3disk,,4,13,10,1,0,0,rectangle,13,10,1,0,0,13,10,1,0,0,0,58,58,122,1,,,,,,,,
,,,,,,,,,,,,,FF,,,,,,,,0.8839,,,,,,,,,,,,,,,,,,,,,,60ff447048f1d7c26cfcdefa,61036fb6c799215fa2f5a2a9,2021-07-30_15h28.36.283,Simcolourproject_2stim_asymm_v5,2020.2.10,Win32,60,61025ae37ef11b136ea224fe,,,,,,,,,2196,61,100,1,0,0,response1disk,,7,22,-2,1,0,0,rectangle,22,-2,1,0,0,22,-2,1,0,0,0,59,59,5,1,,,,,,,,
,,,,,,,,,,,,,FF,,,,,,,,1.7833,,,,,,,,,,,,,,,,,,,,,,60ff447048f1d7c26cfcdefa,61036fb6c799215fa2f5a2a9,2021-07-30_15h28.36.283,Simcolourproject_2stim_asymm_v5,2020.2.10,Win32,60,61025ae37ef11b136ea224fe,,,,,,,,,3318,43,103,1,0,0,response1disk,,7,4,1,1,0,0,rectangle,4,1,1,0,0,4,1,1,0,0,0,60,60,25,1,,,,,,,,
,,,,,,,,,,,,,FF,,,,,,,,2.4004,,,,,,,,,,,,,,,,,,,,,,60ff447048f1d7c26cfcdefa,61036fb6c799215fa2f5a2a9,2021-07-30_15h28.36.283,Simcolourproject_2stim_asymm_v5,2020.2.10,Win32,60,61025ae37ef11b136ea224fe,,,,,,,,,218,104,52,1,0,0,response1disk,,6,20,0,1,0,0,rectangle,20,0,1,0,0,20,0,1,0,0,0,61,61,82,1,,,,,,,,
,,,,,,,,,,,,,FF,,,,,,,,0.9501,,,,,,,,,,,,,,,,,,,,,,60ff447048f1d7c26cfcdefa,61036fb6c799215fa2f5a2a9,2021-07-30_15h28.36.283,Simcolourproject_2stim_asymm_v5,2020.2.10,Win32,60,61025ae37ef11b136ea224fe,,,,,,,,,96,-57,-97,1,0,0,response5disk,,3,-21,-4,1,0,0,rectangle,-21,-4,1,0,0,-21,-4,1,0,0,0,62,62,38,1,,,,,,,,
,,,,,,,,,,,,,FF,,,,,,,,0.7174,,,,,,,,,,,,,,,,,,,,,,60ff447048f1d7c26cfcdefa,61036fb6c799215fa2f5a2a9,2021-07-30_15h28.36.283,Simcolourproject_2stim_asymm_v5,2020.2.10,Win32,60,61025ae37ef11b136ea224fe,,,,,,,,,1449,-124,-52,1,0,0,response5disk,,2,-9,-1,1,0,0,rectangle,-9,-1,1,0,0,-9,-1,1,0,0,0,63,63,98,1,,,,,,,,
,,,,,,,,,,,,,FF,,,,,,,,1.3854,,,,,,,,,,,,,,,,,,,,,,60ff447048f1d7c26cfcdefa,61036fb6c799215fa2f5a2a9,2021-07-30_15h28.36.283,Simcolourproject_2stim_asymm_v5,2020.2.10,Win32,60,61025ae37ef11b136ea224fe,,,,,,,,,2175,60,-86,1,0,0,response3disk,,4,-5,-5,1,0,0,rectangle,-5,-5,1,0,0,-5,-5,1,0,0,0,64,64,23,1,,,,,,,,
,,,,,,,,,,,,,FF,,,,,,,,0.6678,,,,,,,,,,,,,,,,,,,,,,60ff447048f1d7c26cfcdefa,61036fb6c799215fa2f5a2a9,2021-07-30_15h28.36.283,Simcolourproject_2stim_asymm_v5,2020.2.10,Win32,60,61025ae37ef11b136ea224fe,,,,,,,,,3881,52,-82,1,0,0,response3disk,,4,-13,9,1,0,0,rectangle,-13,9,1,0,0,-13,9,1,0,0,0,65,65,21,1,,,,,,,,
,,,,,,,,,,,,,FF,,,,,,,,0.6824,,,,,,,,,,,,,,,,,,,,,,60ff447048f1d7c26cfcdefa,61036fb6c799215fa2f5a2a9,2021-07-30_15h28.36.283,Simcolourproject_2stim_asymm_v5,2020.2.10,Win32,60,61025ae37ef11b136ea224fe,,,,,,,,,2919,29,-117,1,0,0,response3disk,,4,-6,8,1,0,0,rectangle,-6,8,1,0,0,-6,8,1,0,0,0,66,66,16,1,,,,,,,,
,,,,,,,,,,,,,FF,,,,,,,,0.9847,,,,,,,,,,,,,,,,,,,,,,60ff447048f1d7c26cfcdefa,61036fb6c799215fa2f5a2a9,2021-07-30_15h28.36.283,Simcolourproject_2stim_asymm_v5,2020.2.10,Win32,60,61025ae37ef11b136ea224fe,,,,,,,,,690,118,-69,1,0,0,response3disk,,5,-26,4,1,0,0,rectangle,-26,4,1,0,0,-26,4,1,0,0,0,67,67,84,1,,,,,,,,
,,,,,,,,,,,,,FF,,,,,,,,0.9666,,,,,,,,,,,,,,,,,,,,,,60ff447048f1d7c26cfcdefa,61036fb6c799215fa2f5a2a9,2021-07-30_15h28.36.283,Simcolourproject_2stim_asymm_v5,2020.2.10,Win32,60,61025ae37ef11b136ea224fe,,,,,,,,,2630,60,94,1,0,0,response1disk,,7,18,12,1,0,0,rectangle,18,12,1,0,0,18,12,1,0,0,0,68,68,109,1,,,,,,,,
,,,,,,,,,,,,,FF,,,,,,,,1.451,,,,,,,,,,,,,,,,,,,,,,60ff447048f1d7c26cfcdefa,61036fb6c799215fa2f5a2a9,2021-07-30_15h28.36.283,Simcolourproject_2stim_asymm_v5,2020.2.10,Win32,60,61025ae37ef11b136ea224fe,,,,,,,,,958,32,-70,1,0,0,response3disk,,4,-28,-3,1,0,0,rectangle,-28,-3,1,0,0,-28,-3,1,0,0,0,69,69,62,1,,,,,,,,
,,,,,,,,,,,,,FF,,,,,,,,1.0192,,,,,,,,,,,,,,,,,,,,,,60ff447048f1d7c26cfcdefa,61036fb6c799215fa2f5a2a9,2021-07-30_15h28.36.283,Simcolourproject_2stim_asymm_v5,2020.2.10,Win32,60,61025ae37ef11b136ea224fe,,,,,,,,,3979,62,-75,1,0,0,response3disk,,4,8,-5,1,0,0,rectangle,8,-5,1,0,0,8,-5,1,0,0,0,70,70,55,1,,,,,,,,
,,,,,,,,,,,,,FF,,,,,,,,1.4012,,,,,,,,,,,,,,,,,,,,,,60ff447048f1d7c26cfcdefa,61036fb6c799215fa2f5a2a9,2021-07-30_15h28.36.283,Simcolourproject_2stim_asymm_v5,2020.2.10,Win32,60,61025ae37ef11b136ea224fe,,,,,,,,,736,43,-58,1,0,0,response3disk,,4,-18,4,1,0,0,rectangle,-18,4,1,0,0,-18,4,1,0,0,0,71,71,100,1,,,,,,,,
,,,,,,,,,,,,,FF,,,,,,,,1.0978,,,,,,,,,,,,,,,,,,,,,,60ff447048f1d7c26cfcdefa,61036fb6c799215fa2f5a2a9,2021-07-30_15h28.36.283,Simcolourproject_2stim_asymm_v5,2020.2.10,Win32,60,61025ae37ef11b136ea224fe,,,,,,,,,231,103,52,1,0,0,response1disk,,6,7,4,1,0,0,rectangle,7,4,1,0,0,7,4,1,0,0,0,72,72,92,1,,,,,,,,
,,,,,,,,,,,,,FF,,,,,,,,0.8169,,,,,,,,,,,,,,,,,,,,,,60ff447048f1d7c26cfcdefa,61036fb6c799215fa2f5a2a9,2021-07-30_15h28.36.283,Simcolourproject_2stim_asymm_v5,2020.2.10,Win32,60,61025ae37ef11b136ea224fe,,,,,,,,,1914,94,43,1,0,0,response1disk,,6,21,0,1,0,0,rectangle,21,0,1,0,0,21,0,1,0,0,0,73,73,89,1,,,,,,,,
,,,,,,,,,,,,,FF,,,,,,,,1.0814,,,,,,,,,,,,,,,,,,,,,,60ff447048f1d7c26cfcdefa,61036fb6c799215fa2f5a2a9,2021-07-30_15h28.36.283,Simcolourproject_2stim_asymm_v5,2020.2.10,Win32,60,61025ae37ef11b136ea224fe,,,,,,,,,1325,47,-116,1,0,0,response3disk,,4,-11,-6,1,0,0,rectangle,-11,-6,1,0,0,-11,-6,1,0,0,0,74,74,143,1,,,,,,,,
,,,,,,,,,,,,,FF,,,,,,,,1.1323,,,,,,,,,,,,,,,,,,,,,,60ff447048f1d7c26cfcdefa,61036fb6c799215fa2f5a2a9,2021-07-30_15h28.36.283,Simcolourproject_2stim_asymm_v5,2020.2.10,Win32,60,61025ae37ef11b136ea224fe,,,,,,,,,2695,46,-81,1,0,0,response3disk,,4,-9,-7,1,0,0,rectangle,-9,-7,1,0,0,-9,-7,1,0,0,0,75,75,128,1,,,,,,,,
,,,,,,,,,,,,,FF,,,,,,,,0.8685,,,,,,,,,,,,,,,,,,,,,,60ff447048f1d7c26cfcdefa,61036fb6c799215fa2f5a2a9,2021-07-30_15h28.36.283,Simcolourproject_2stim_asymm_v5,2020.2.10,Win32,60,61025ae37ef11b136ea224fe,,,,,,,,,4222,-39,-89,1,0,0,response5disk,,3,20,13,1,0,0,rectangle,20,13,1,0,0,20,13,1,0,0,0,76,76,140,1,,,,,,,,
,,,,,,,,,,,,,FF,,,,,,,,0.554,,,,,,,,,,,,,,,,,,,,,,60ff447048f1d7c26cfcdefa,61036fb6c799215fa2f5a2a9,2021-07-30_15h28.36.283,Simcolourproject_2stim_asymm_v5,2020.2.10,Win32,60,61025ae37ef11b136ea224fe,,,,,,,,,4165,-87,-53,1,0,0,response5disk,,2,-22,6,1,0,0,rectangle,-22,6,1,0,0,-22,6,1,0,0,0,77,77,130,1,,,,,,,,
,,,,,,,,,,,,,FF,,,,,,,,1.0494,,,,,,,,,,,,,,,,,,,,,,60ff447048f1d7c26cfcdefa,61036fb6c799215fa2f5a2a9,2021-07-30_15h28.36.283,Simcolourproject_2stim_asymm_v5,2020.2.10,Win32,60,61025ae37ef11b136ea224fe,,,,,,,,,1984,97,-71,1,0,0,response3disk,,5,-10,2,1,0,0,rectangle,-10,2,1,0,0,-10,2,1,0,0,0,78,78,37,1,,,,,,,,
,,,,,,,,,,,,,FF,,,,,,,,5.4835,,,,,,,,,,,,,,,,,,,,,,60ff447048f1d7c26cfcdefa,61036fb6c799215fa2f5a2a9,2021-07-30_15h28.36.283,Simcolourproject_2stim_asymm_v5,2020.2.10,Win32,60,61025ae37ef11b136ea224fe,,,,,,,,,2979,-36,-103,1,0,0,response5disk,,3,-3,4,1,0,0,rectangle,-3,4,1,0,0,-3,4,1,0,0,0,79,79,158,1,,,,,,,,
,,,,,,,,,,,,,FF,,,,,,,,1.3999,,,,,,,,,,,,,,,,,,,,,,60ff447048f1d7c26cfcdefa,61036fb6c799215fa2f5a2a9,2021-07-30_15h28.36.283,Simcolourproject_2stim_asymm_v5,2020.2.10,Win32,60,61025ae37ef11b136ea224fe,,,,,,,,,3041,93,-102,1,0,0,response3disk,,4,-1,2,1,0,0,rectangle,-1,2,1,0,0,-1,2,1,0,0,0,80,80,153,1,,,,,,,,
,,,,,,,,,,,,,FF,,,,,,,,1.0003,,,,,,,,,,,,,,,,,,,,,,60ff447048f1d7c26cfcdefa,61036fb6c799215fa2f5a2a9,2021-07-30_15h28.36.283,Simcolourproject_2stim_asymm_v5,2020.2.10,Win32,60,61025ae37ef11b136ea224fe,,,,,,,,,1713,121,-32,1,0,0,response3disk,,5,28,-5,1,0,0,rectangle,28,-5,1,0,0,28,-5,1,0,0,0,81,81,99,1,,,,,,,,
,,,,,,,,,,,,,FF,,,,,,,,0.8336,,,,,,,,,,,,,,,,,,,,,,60ff447048f1d7c26cfcdefa,61036fb6c799215fa2f5a2a9,2021-07-30_15h28.36.283,Simcolourproject_2stim_asymm_v5,2020.2.10,Win32,60,61025ae37ef11b136ea224fe,,,,,,,,,221,29,-94,1,0,0,response3disk,,4,4,8,1,0,0,rectangle,4,8,1,0,0,4,8,1,0,0,0,82,82,14,1,,,,,,,,
,,,,,,,,,,,,,FF,,,,,,,,0.6836,,,,,,,,,,,,,,,,,,,,,,60ff447048f1d7c26cfcdefa,61036fb6c799215fa2f5a2a9,2021-07-30_15h28.36.283,Simcolourproject_2stim_asymm_v5,2020.2.10,Win32,60,61025ae37ef11b136ea224fe,,,,,,,,,1660,70,-100,1,0,0,response3disk,,4,-26,7,1,0,0,rectangle,-26,7,1,0,0,-26,7,1,0,0,0,83,83,44,1,,,,,,,,
,,,,,,,,,,,,,FF,,,,,,,,0.6333,,,,,,,,,,,,,,,,,,,,,,60ff447048f1d7c26cfcdefa,61036fb6c799215fa2f5a2a9,2021-07-30_15h28.36.283,Simcolourproject_2stim_asymm_v5,2020.2.10,Win32,60,61025ae37ef11b136ea224fe,,,,,,,,,1299,-46,-106,1,0,0,response5disk,,3,10,9,1,0,0,rectangle,10,9,1,0,0,10,9,1,0,0,0,84,84,36,1,,,,,,,,
,,,,,,,,,,,,,FF,,,,,,,,0.5335,,,,,,,,,,,,,,,,,,,,,,60ff447048f1d7c26cfcdefa,61036fb6c799215fa2f5a2a9,2021-07-30_15h28.36.283,Simcolourproject_2stim_asymm_v5,2020.2.10,Win32,60,61025ae37ef11b136ea224fe,,,,,,,,,273,56,-79,1,0,0,response3disk,,4,-18,3,1,0,0,rectangle,-68,-126,1,0,0,-2,9,1,0,0,0,85,85,12,1,,response5disk_3,TRUE,3,3,"[180,89,6,57,315,281,101,154,235,20,271,308,169,157,205,142,200,145,253,86]",1.7664,rectangle
,,,,,,,,,,,,,FF,,,,,,,,0.9338,,,,,,,,,,,,,,,,,,,,,,60ff447048f1d7c26cfcdefa,61036fb6c799215fa2f5a2a9,2021-07-30_15h28.36.283,Simcolourproject_2stim_asymm_v5,2020.2.10,Win32,60,61025ae37ef11b136ea224fe,,,,,,,,,2227,-96,33,1,0,0,response7disk,,1,4,-11,1,0,0,rectangle,4,-11,1,0,0,4,-11,1,0,0,0,86,86,20,1,,,,,,,,
,,,,,,,,,,,,,FF,,,,,,,,1.1168,,,,,,,,,,,,,,,,,,,,,,60ff447048f1d7c26cfcdefa,61036fb6c799215fa2f5a2a9,2021-07-30_15h28.36.283,Simcolourproject_2stim_asymm_v5,2020.2.10,Win32,60,61025ae37ef11b136ea224fe,,,,,,,,,3518,-94,-41,1,0,0,response5disk,,2,-4,18,1,0,0,rectangle,-4,18,1,0,0,-4,18,1,0,0,0,87,87,96,1,,,,,,,,
,,,,,,,,,,,,,FF,,,,,,,,1.15,,,,,,,,,,,,,,,,,,,,,,60ff447048f1d7c26cfcdefa,61036fb6c799215fa2f5a2a9,2021-07-30_15h28.36.283,Simcolourproject_2stim_asymm_v5,2020.2.10,Win32,60,61025ae37ef11b136ea224fe,,,,,,,,,554,-68,-112,1,0,0,response5disk,,3,-31,8,1,0,0,rectangle,125,75,1,0,0,-24,-6,1,0,0,0,88,88,88,1,,response1disk_3,TRUE,6,6,"[180,89,6,57,315,281,101,154,235,20,271,308,169,157,205,142,200,145,253,86]",1.4837,rectangle
,,,,,,,,,,,,,FF,,,,,,,,1.6838,,,,,,,,,,,,,,,,,,,,,,60ff447048f1d7c26cfcdefa,61036fb6c799215fa2f5a2a9,2021-07-30_15h28.36.283,Simcolourproject_2stim_asymm_v5,2020.2.10,Win32,60,61025ae37ef11b136ea224fe,,,,,,,,,3376,25,-116,1,0,0,response3disk,,4,-10,-1,1,0,0,rectangle,-10,-1,1,0,0,-10,-1,1,0,0,0,89,89,57,1,,,,,,,,
,,,,,,,,,,,,,FF,,,,,,,,1.1002,,,,,,,,,,,,,,,,,,,,,,60ff447048f1d7c26cfcdefa,61036fb6c799215fa2f5a2a9,2021-07-30_15h28.36.283,Simcolourproject_2stim_asymm_v5,2020.2.10,Win32,60,61025ae37ef11b136ea224fe,,,,,,,,,2544,32,-105,1,0,0,response3disk,,4,-23,7,1,0,0,rectangle,-23,7,1,0,0,-23,7,1,0,0,0,90,90,29,1,,,,,,,,
,,,,,,,,,,,,,FF,,,,,,,,2.6667,,,,,,,,,,,,,,,,,,,,,,60ff447048f1d7c26cfcdefa,61036fb6c799215fa2f5a2a9,2021-07-30_15h28.36.283,Simcolourproject_2stim_asymm_v5,2020.2.10,Win32,60,61025ae37ef11b136ea224fe,,,,,,,,,1066,60,-103,1,0,0,response3disk,,4,-6,-11,1,0,0,rectangle,-6,-11,1,0,0,-6,-11,1,0,0,0,91,91,17,1,,,,,,,,
,,,,,,,,,,,,,FF,,,,,,,,1.3835,,,,,,,,,,,,,,,,,,,,,,60ff447048f1d7c26cfcdefa,61036fb6c799215fa2f5a2a9,2021-07-30_15h28.36.283,Simcolourproject_2stim_asymm_v5,2020.2.10,Win32,60,61025ae37ef11b136ea224fe,,,,,,,,,2115,39,-119,1,0,0,response3disk,,4,-22,-2,1,0,0,rectangle,-22,-2,1,0,0,-22,-2,1,0,0,0,92,92,78,1,,,,,,,,
,,,,,,,,,,,,,FF,,,,,,,,1.2835,,,,,,,,,,,,,,,,,,,,,,60ff447048f1d7c26cfcdefa,61036fb6c799215fa2f5a2a9,2021-07-30_15h28.36.283,Simcolourproject_2stim_asymm_v5,2020.2.10,Win32,60,61025ae37ef11b136ea224fe,,,,,,,,,2820,106,49,1,0,0,response1disk,,6,-4,-19,1,0,0,rectangle,-4,-19,1,0,0,-4,-19,1,0,0,0,93,93,151,1,,,,,,,,
,,,,,,,,,,,,,FF,,,,,,,,0.8998,,,,,,,,,,,,,,,,,,,,,,60ff447048f1d7c26cfcdefa,61036fb6c799215fa2f5a2a9,2021-07-30_15h28.36.283,Simcolourproject_2stim_asymm_v5,2020.2.10,Win32,60,61025ae37ef11b136ea224fe,,,,,,,,,1422,73,-89,1,0,0,response3disk,,4,-19,-10,1,0,0,rectangle,-19,-10,1,0,0,-19,-10,1,0,0,0,94,94,61,1,,,,,,,,
,,,,,,,,,,,,,FF,,,,,,,,0.8837,,,,,,,,,,,,,,,,,,,,,,60ff447048f1d7c26cfcdefa,61036fb6c799215fa2f5a2a9,2021-07-30_15h28.36.283,Simcolourproject_2stim_asymm_v5,2020.2.10,Win32,60,61025ae37ef11b136ea224fe,,,,,,,,,4335,-46,112,1,0,0,response7disk,,0,2,2,1,0,0,rectangle,2,2,1,0,0,2,2,1,0,0,0,95,95,105,1,,,,,,,,
,,,,,,,,,,,,,FF,,,,,,,,1.9168,,,,,,,,,,,,,,,,,,,,,,60ff447048f1d7c26cfcdefa,61036fb6c799215fa2f5a2a9,2021-07-30_15h28.36.283,Simcolourproject_2stim_asymm_v5,2020.2.10,Win32,60,61025ae37ef11b136ea224fe,,,,,,,,,822,74,-131,1,0,0,response3disk,,4,-24,1,1,0,0,rectangle,-24,1,1,0,0,-24,1,1,0,0,0,96,96,75,1,,,,,,,,
,,,,,,,,,,,,,FF,,,,,,,,0.7504,,,,,,,,,,,,,,,,,,,,,,60ff447048f1d7c26cfcdefa,61036fb6c799215fa2f5a2a9,2021-07-30_15h28.36.283,Simcolourproject_2stim_asymm_v5,2020.2.10,Win32,60,61025ae37ef11b136ea224fe,,,,,,,,,2403,107,-61,1,0,0,response3disk,,5,1,-4,1,0,0,rectangle,1,-4,1,0,0,1,-4,1,0,0,0,97,97,51,1,,,,,,,,
,,,,,,,,,,,,,FF,,,,,,,,0.7998,,,,,,,,,,,,,,,,,,,,,,60ff447048f1d7c26cfcdefa,61036fb6c799215fa2f5a2a9,2021-07-30_15h28.36.283,Simcolourproject_2stim_asymm_v5,2020.2.10,Win32,60,61025ae37ef11b136ea224fe,,,,,,,,,1711,36,109,1,0,0,response1disk,,7,12,-5,1,0,0,rectangle,12,-5,1,0,0,12,-5,1,0,0,0,98,98,146,1,,,,,,,,
,,,,,,,,,,,,,FF,,,,,,,,1.2836,,,,,,,,,,,,,,,,,,,,,,60ff447048f1d7c26cfcdefa,61036fb6c799215fa2f5a2a9,2021-07-30_15h28.36.283,Simcolourproject_2stim_asymm_v5,2020.2.10,Win32,60,61025ae37ef11b136ea224fe,,,,,,,,,1123,114,-44,1,0,0,response3disk,,5,-22,8,1,0,0,rectangle,-22,8,1,0,0,-22,8,1,0,0,0,99,99,101,1,,,,,,,,
,,,,,,,,,,,,,FF,,,,,,,,2.9667,,,,,,,,,,,,,,,,,,,,,,60ff447048f1d7c26cfcdefa,61036fb6c799215fa2f5a2a9,2021-07-30_15h28.36.283,Simcolourproject_2stim_asymm_v5,2020.2.10,Win32,60,61025ae37ef11b136ea224fe,,,,,,,,,1656,120,-51,1,0,0,response3disk,,5,11,0,1,0,0,rectangle,125,-47,1,0,0,-5,-5,1,0,0,0,100,100,118,1,,response3disk_3,TRUE,5,5,"[180,89,6,57,315,281,101,154,235,20,271,308,169,157,205,142,200,145,253,86]",1.45,rectangle
,,,,,,,,,,,,,FF,,,,,,,,1.6668,,,,,,,,,,,,,,,,,,,,,,60ff447048f1d7c26cfcdefa,61036fb6c799215fa2f5a2a9,2021-07-30_15h28.36.283,Simcolourproject_2stim_asymm_v5,2020.2.10,Win32,60,61025ae37ef11b136ea224fe,,,,,,,,,2445,58,-110,1,0,0,response3disk,,4,-5,6,1,0,0,rectangle,-5,6,1,0,0,-5,6,1,0,0,0,101,101,70,1,,,,,,,,
,,,,,,,,,,,,,FF,,,,,,,,0.9501,,,,,,,,,,,,,,,,,,,,,,60ff447048f1d7c26cfcdefa,61036fb6c799215fa2f5a2a9,2021-07-30_15h28.36.283,Simcolourproject_2stim_asymm_v5,2020.2.10,Win32,60,61025ae37ef11b136ea224fe,,,,,,,,,865,56,-88,1,0,0,response3disk,,4,11,-2,1,0,0,rectangle,11,-2,1,0,0,11,-2,1,0,0,0,102,102,10,1,,,,,,,,
,,,,,,,,,,,,,FF,,,,,,,,0.5492,,,,,,,,,,,,,,,,,,,,,,60ff447048f1d7c26cfcdefa,61036fb6c799215fa2f5a2a9,2021-07-30_15h28.36.283,Simcolourproject_2stim_asymm_v5,2020.2.10,Win32,60,61025ae37ef11b136ea224fe,,,,,,,,,856,50,-73,1,0,0,response3disk,,4,-3,17,1,0,0,rectangle,-3,17,1,0,0,-3,17,1,0,0,0,103,103,4,1,,,,,,,,
,,,,,,,,,,,,,FF,,,,,,,,0.9001,,,,,,,,,,,,,,,,,,,,,,60ff447048f1d7c26cfcdefa,61036fb6c799215fa2f5a2a9,2021-07-30_15h28.36.283,Simcolourproject_2stim_asymm_v5,2020.2.10,Win32,60,61025ae37ef11b136ea224fe,,,,,,,,,454,44,98,1,0,0,response1disk,,7,12,11,1,0,0,rectangle,12,11,1,0,0,12,11,1,0,0,0,104,104,35,1,,,,,,,,
,,,,,,,,,,,,,FF,,,,,,,,0.9502,,,,,,,,,,,,,,,,,,,,,,60ff447048f1d7c26cfcdefa,61036fb6c799215fa2f5a2a9,2021-07-30_15h28.36.283,Simcolourproject_2stim_asymm_v5,2020.2.10,Win32,60,61025ae37ef11b136ea224fe,,,,,,,,,4214,94,63,1,0,0,response1disk,,6,31,-10,1,0,0,rectangle,31,-10,1,0,0,31,-10,1,0,0,0,105,105,97,1,,,,,,,,
,,,,,,,,,,,,,FF,,,,,,,,1.2005,,,,,,,,,,,,,,,,,,,,,,60ff447048f1d7c26cfcdefa,61036fb6c799215fa2f5a2a9,2021-07-30_15h28.36.283,Simcolourproject_2stim_asymm_v5,2020.2.10,Win32,60,61025ae37ef11b136ea224fe,,,,,,,,,941,109,51,1,0,0,response1disk,,6,-9,-14,1,0,0,rectangle,-9,-14,1,0,0,-9,-14,1,0,0,0,106,106,63,1,,,,,,,,
,,,,,,,,,,,,,FF,,,,,,,,2.0837,,,,,,,,,,,,,,,,,,,,,,60ff447048f1d7c26cfcdefa,61036fb6c799215fa2f5a2a9,2021-07-30_15h28.36.283,Simcolourproject_2stim_asymm_v5,2020.2.10,Win32,60,61025ae37ef11b136ea224fe,,,,,,,,,1793,133,-74,1,0,0,response3disk,,5,-12,-4,1,0,0,rectangle,-12,-4,1,0,0,-12,-4,1,0,0,0,107,107,9,1,,,,,,,,
,,,,,,,,,,,,,FF,,,,,,,,1.7838,,,,,,,,,,,,,,,,,,,,,,60ff447048f1d7c26cfcdefa,61036fb6c799215fa2f5a2a9,2021-07-30_15h28.36.283,Simcolourproject_2stim_asymm_v5,2020.2.10,Win32,60,61025ae37ef11b136ea224fe,,,,,,,,,4265,111,-53,1,0,0,response3disk,,5,-10,-4,1,0,0,rectangle,-10,-4,1,0,0,-10,-4,1,0,0,0,108,108,115,1,,,,,,,,
,,,,,,,,,,,,,FF,,,,,,,,0.9332,,,,,,,,,,,,,,,,,,,,,,60ff447048f1d7c26cfcdefa,61036fb6c799215fa2f5a2a9,2021-07-30_15h28.36.283,Simcolourproject_2stim_asymm_v5,2020.2.10,Win32,60,61025ae37ef11b136ea224fe,,,,,,,,,263,-131,-73,1,0,0,response5disk,,2,-37,2,1,0,0,rectangle,-37,2,1,0,0,-37,2,1,0,0,0,109,109,85,1,,,,,,,,
,,,,,,,,,,,,,FF,,,,,,,,0.8667,,,,,,,,,,,,,,,,,,,,,,60ff447048f1d7c26cfcdefa,61036fb6c799215fa2f5a2a9,2021-07-30_15h28.36.283,Simcolourproject_2stim_asymm_v5,2020.2.10,Win32,60,61025ae37ef11b136ea224fe,,,,,,,,,1222,-55,-98,1,0,0,response5disk,,3,-26,-6,1,0,0,rectangle,-26,-6,1,0,0,-26,-6,1,0,0,0,110,110,28,1,,,,,,,,
,,,,,,,,,,,,,FF,,,,,,,,1.3837,,,,,,,,,,,,,,,,,,,,,,60ff447048f1d7c26cfcdefa,61036fb6c799215fa2f5a2a9,2021-07-30_15h28.36.283,Simcolourproject_2stim_asymm_v5,2020.2.10,Win32,60,61025ae37ef11b136ea224fe,,,,,,,,,4278,80,-54,1,0,0,response3disk,,5,-19,14,1,0,0,rectangle,-19,14,1,0,0,-19,14,1,0,0,0,111,111,56,1,,,,,,,,
,,,,,,,,,,,,,FF,,,,,,,,0.9497,,,,,,,,,,,,,,,,,,,,,,60ff447048f1d7c26cfcdefa,61036fb6c799215fa2f5a2a9,2021-07-30_15h28.36.283,Simcolourproject_2stim_asymm_v5,2020.2.10,Win32,60,61025ae37ef11b136ea224fe,,,,,,,,,2596,103,61,1,0,0,response1disk,,6,17,5,1,0,0,rectangle,17,5,1,0,0,17,5,1,0,0,0,112,112,94,1,,,,,,,,
,,,,,,,,,,,,,FF,,,,,,,,0.6832,,,,,,,,,,,,,,,,,,,,,,60ff447048f1d7c26cfcdefa,61036fb6c799215fa2f5a2a9,2021-07-30_15h28.36.283,Simcolourproject_2stim_asymm_v5,2020.2.10,Win32,60,61025ae37ef11b136ea224fe,,,,,,,,,1705,83,62,1,0,0,response1disk,,6,25,12,1,0,0,rectangle,25,12,1,0,0,25,12,1,0,0,0,113,113,53,1,,,,,,,,
,,,,,,,,,,,,,FF,,,,,,,,1.1994,,,,,,,,,,,,,,,,,,,,,,60ff447048f1d7c26cfcdefa,61036fb6c799215fa2f5a2a9,2021-07-30_15h28.36.283,Simcolourproject_2stim_asymm_v5,2020.2.10,Win32,60,61025ae37ef11b136ea224fe,,,,,,,,,3249,-119,-52,1,0,0,response5disk,,2,-24,-5,1,0,0,rectangle,-24,-5,1,0,0,-24,-5,1,0,0,0,114,114,156,1,,,,,,,,
,,,,,,,,,,,,,FF,,,,,,,,1.2002,,,,,,,,,,,,,,,,,,,,,,60ff447048f1d7c26cfcdefa,61036fb6c799215fa2f5a2a9,2021-07-30_15h28.36.283,Simcolourproject_2stim_asymm_v5,2020.2.10,Win32,60,61025ae37ef11b136ea224fe,,,,,,,,,3160,-43,-94,1,0,0,response5disk,,3,13,9,1,0,0,rectangle,13,9,1,0,0,13,9,1,0,0,0,115,115,136,1,,,,,,,,
,,,,,,,,,,,,,FF,,,,,,,,1.0513,,,,,,,,,,,,,,,,,,,,,,60ff447048f1d7c26cfcdefa,61036fb6c799215fa2f5a2a9,2021-07-30_15h28.36.283,Simcolourproject_2stim_asymm_v5,2020.2.10,Win32,60,61025ae37ef11b136ea224fe,,,,,,,,,1863,96,-51,1,0,0,response3disk,,5,12,4,1,0,0,rectangle,12,4,1,0,0,12,4,1,0,0,0,116,116,131,1,,,,,,,,
,,,,,,,,,,,,,FF,,,,,,,,1.3169,,,,,,,,,,,,,,,,,,,,,,60ff447048f1d7c26cfcdefa,61036fb6c799215fa2f5a2a9,2021-07-30_15h28.36.283,Simcolourproject_2stim_asymm_v5,2020.2.10,Win32,60,61025ae37ef11b136ea224fe,,,,,,,,,4008,74,-112,1,0,0,response3disk,,4,-12,9,1,0,0,rectangle,-12,9,1,0,0,-12,9,1,0,0,0,117,117,18,1,,,,,,,,
,,,,,,,,,,,,,FF,,,,,,,,1.2158,,,,,,,,,,,,,,,,,,,,,,60ff447048f1d7c26cfcdefa,61036fb6c799215fa2f5a2a9,2021-07-30_15h28.36.283,Simcolourproject_2stim_asymm_v5,2020.2.10,Win32,60,61025ae37ef11b136ea224fe,,,,,,,,,1706,101,55,1,0,0,response1disk,,6,-15,-5,1,0,0,rectangle,-15,-5,1,0,0,-15,-5,1,0,0,0,118,118,120,1,,,,,,,,
,,,,,,,,,,,,,FF,,,,,,,,0.6167,,,,,,,,,,,,,,,,,,,,,,60ff447048f1d7c26cfcdefa,61036fb6c799215fa2f5a2a9,2021-07-30_15h28.36.283,Simcolourproject_2stim_asymm_v5,2020.2.10,Win32,60,61025ae37ef11b136ea224fe,,,,,,,,,1007,39,85,1,0,0,response1disk,,7,8,13,1,0,0,rectangle,8,13,1,0,0,8,13,1,0,0,0,119,119,76,1,,,,,,,,
,,,,,,,,,,,,,FF,,,,,,,,0.7672,,,,,,,,,,,,,,,,,,,,,,60ff447048f1d7c26cfcdefa,61036fb6c799215fa2f5a2a9,2021-07-30_15h28.36.283,Simcolourproject_2stim_asymm_v5,2020.2.10,Win32,60,61025ae37ef11b136ea224fe,,,,,,,,,1240,57,102,1,0,0,response1disk,,7,10,8,1,0,0,rectangle,10,8,1,0,0,10,8,1,0,0,0,120,120,116,1,,,,,,,,
,,,,,,,,,,,,,FF,,,,,,,,0.6506,,,,,,,,,,,,,,,,,,,,,,60ff447048f1d7c26cfcdefa,61036fb6c799215fa2f5a2a9,2021-07-30_15h28.36.283,Simcolourproject_2stim_asymm_v5,2020.2.10,Win32,60,61025ae37ef11b136ea224fe,,,,,,,,,2515,67,108,1,0,0,response1disk,,7,15,-4,1,0,0,rectangle,15,-4,1,0,0,15,-4,1,0,0,0,121,121,126,1,,,,,,,,
,,,,,,,,,,,,,FF,,,,,,,,0.55,,,,,,,,,,,,,,,,,,,,,,60ff447048f1d7c26cfcdefa,61036fb6c799215fa2f5a2a9,2021-07-30_15h28.36.283,Simcolourproject_2stim_asymm_v5,2020.2.10,Win32,60,61025ae37ef11b136ea224fe,,,,,,,,,20,60,103,1,0,0,response1disk,,7,18,10,1,0,0,rectangle,18,10,1,0,0,18,10,1,0,0,0,122,122,134,1,,,,,,,,
,,,,,,,,,,,,,FF,,,,,,,,1.4831,,,,,,,,,,,,,,,,,,,,,,60ff447048f1d7c26cfcdefa,61036fb6c799215fa2f5a2a9,2021-07-30_15h28.36.283,Simcolourproject_2stim_asymm_v5,2020.2.10,Win32,60,61025ae37ef11b136ea224fe,,,,,,,,,899,41,-111,1,0,0,response3disk,,4,-7,10,1,0,0,rectangle,-7,10,1,0,0,-7,10,1,0,0,0,123,123,6,1,,,,,,,,
,,,,,,,,,,,,,FF,,,,,,,,1.6503,,,,,,,,,,,,,,,,,,,,,,60ff447048f1d7c26cfcdefa,61036fb6c799215fa2f5a2a9,2021-07-30_15h28.36.283,Simcolourproject_2stim_asymm_v5,2020.2.10,Win32,60,61025ae37ef11b136ea224fe,,,,,,,,,2287,104,-44,1,0,0,response3disk,,5,23,3,1,0,0,rectangle,23,3,1,0,0,23,3,1,0,0,0,124,124,125,1,,,,,,,,
,,,,,,,,,,,,,FF,,,,,,,,0.7002,,,,,,,,,,,,,,,,,,,,,,60ff447048f1d7c26cfcdefa,61036fb6c799215fa2f5a2a9,2021-07-30_15h28.36.283,Simcolourproject_2stim_asymm_v5,2020.2.10,Win32,60,61025ae37ef11b136ea224fe,,,,,,,,,4134,86,68,1,0,0,response1disk,,6,-1,-8,1,0,0,rectangle,-1,-8,1,0,0,-1,-8,1,0,0,0,125,125,13,1,,,,,,,,
,,,,,,,,,,,,,FF,,,,,,,,0.9335,,,,,,,,,,,,,,,,,,,,,,60ff447048f1d7c26cfcdefa,61036fb6c799215fa2f5a2a9,2021-07-30_15h28.36.283,Simcolourproject_2stim_asymm_v5,2020.2.10,Win32,60,61025ae37ef11b136ea224fe,,,,,,,,,1635,55,115,1,0,0,response1disk,,7,15,1,1,0,0,rectangle,15,1,1,0,0,15,1,1,0,0,0,126,126,40,1,,,,,,,,
,,,,,,,,,,,,,FF,,,,,,,,0.4671,,,,,,,,,,,,,,,,,,,,,,60ff447048f1d7c26cfcdefa,61036fb6c799215fa2f5a2a9,2021-07-30_15h28.36.283,Simcolourproject_2stim_asymm_v5,2020.2.10,Win32,60,61025ae37ef11b136ea224fe,,,,,,,,,851,78,105,1,0,0,response1disk,,7,13,-5,1,0,0,rectangle,13,-5,1,0,0,13,-5,1,0,0,0,127,127,133,1,,,,,,,,
,,,,,,,,,,,,,FF,,,,,,,,0.5335,,,,,,,,,,,,,,,,,,,,,,60ff447048f1d7c26cfcdefa,61036fb6c799215fa2f5a2a9,2021-07-30_15h28.36.283,Simcolourproject_2stim_asymm_v5,2020.2.10,Win32,60,61025ae37ef11b136ea224fe,,,,,,,,,578,53,112,1,0,0,response1disk,,7,-7,-9,1,0,0,rectangle,-7,-9,1,0,0,-7,-9,1,0,0,0,128,128,8,1,,,,,,,,
,,,,,,,,,,,,,FF,,,,,,,,1.65,,,,,,,,,,,,,,,,,,,,,,60ff447048f1d7c26cfcdefa,61036fb6c799215fa2f5a2a9,2021-07-30_15h28.36.283,Simcolourproject_2stim_asymm_v5,2020.2.10,Win32,60,61025ae37ef11b136ea224fe,,,,,,,,,1689,-58,-104,1,0,0,response5disk,,3,-7,-11,1,0,0,rectangle,-7,-11,1,0,0,-7,-11,1,0,0,0,129,129,150,1,,,,,,,,
,,,,,,,,,,,,,FF,,,,,,,,1.2169,,,,,,,,,,,,,,,,,,,,,,60ff447048f1d7c26cfcdefa,61036fb6c799215fa2f5a2a9,2021-07-30_15h28.36.283,Simcolourproject_2stim_asymm_v5,2020.2.10,Win32,60,61025ae37ef11b136ea224fe,,,,,,,,,2637,100,47,1,0,0,response1disk,,6,5,-2,1,0,0,rectangle,5,-2,1,0,0,5,-2,1,0,0,0,130,130,11,1,,,,,,,,
,,,,,,,,,,,,,FF,,,,,,,,0.7836,,,,,,,,,,,,,,,,,,,,,,60ff447048f1d7c26cfcdefa,61036fb6c799215fa2f5a2a9,2021-07-30_15h28.36.283,Simcolourproject_2stim_asymm_v5,2020.2.10,Win32,60,61025ae37ef11b136ea224fe,,,,,,,,,1608,-39,-101,1,0,0,response5disk,,3,4,2,1,0,0,rectangle,4,2,1,0,0,4,2,1,0,0,0,131,131,67,1,,,,,,,,
,,,,,,,,,,,,,FF,,,,,,,,0.5335,,,,,,,,,,,,,,,,,,,,,,60ff447048f1d7c26cfcdefa,61036fb6c799215fa2f5a2a9,2021-07-30_15h28.36.283,Simcolourproject_2stim_asymm_v5,2020.2.10,Win32,60,61025ae37ef11b136ea224fe,,,,,,,,,728,-36,-85,1,0,0,response5disk,,3,7,7,1,0,0,rectangle,7,7,1,0,0,7,7,1,0,0,0,132,132,149,1,,,,,,,,
,,,,,,,,,,,,,FF,,,,,,,,0.9669,,,,,,,,,,,,,,,,,,,,,,60ff447048f1d7c26cfcdefa,61036fb6c799215fa2f5a2a9,2021-07-30_15h28.36.283,Simcolourproject_2stim_asymm_v5,2020.2.10,Win32,60,61025ae37ef11b136ea224fe,,,,,,,,,2209,117,-66,1,0,0,response3disk,,5,19,-14,1,0,0,rectangle,19,-14,1,0,0,19,-14,1,0,0,0,133,133,68,1,,,,,,,,
,,,,,,,,,,,,,FF,,,,,,,,0.7496,,,,,,,,,,,,,,,,,,,,,,60ff447048f1d7c26cfcdefa,61036fb6c799215fa2f5a2a9,2021-07-30_15h28.36.283,Simcolourproject_2stim_asymm_v5,2020.2.10,Win32,60,61025ae37ef11b136ea224fe,,,,,,,,,3580,50,101,1,0,0,response1disk,,7,38,-4,1,0,0,rectangle,38,-4,1,0,0,38,-4,1,0,0,0,134,134,148,1,,,,,,,,
,,,,,,,,,,,,,FF,,,,,,,,1.1669,,,,,,,,,,,,,,,,,,,,,,60ff447048f1d7c26cfcdefa,61036fb6c799215fa2f5a2a9,2021-07-30_15h28.36.283,Simcolourproject_2stim_asymm_v5,2020.2.10,Win32,60,61025ae37ef11b136ea224fe,,,,,,,,,461,49,-106,1,0,0,response3disk,,4,-26,-2,1,0,0,rectangle,-26,-2,1,0,0,-26,-2,1,0,0,0,135,135,113,1,,,,,,,,
,,,,,,,,,,,,,FF,,,,,,,,0.7,,,,,,,,,,,,,,,,,,,,,,60ff447048f1d7c26cfcdefa,61036fb6c799215fa2f5a2a9,2021-07-30_15h28.36.283,Simcolourproject_2stim_asymm_v5,2020.2.10,Win32,60,61025ae37ef11b136ea224fe,,,,,,,,,946,83,-109,1,0,0,response3disk,,4,7,9,1,0,0,rectangle,7,9,1,0,0,7,9,1,0,0,0,136,136,119,1,,,,,,,,
,,,,,,,,,,,,,FF,,,,,,,,0.8515,,,,,,,,,,,,,,,,,,,,,,60ff447048f1d7c26cfcdefa,61036fb6c799215fa2f5a2a9,2021-07-30_15h28.36.283,Simcolourproject_2stim_asymm_v5,2020.2.10,Win32,60,61025ae37ef11b136ea224fe,,,,,,,,,1501,75,82,1,0,0,response1disk,,7,10,0,1,0,0,rectangle,10,0,1,0,0,10,0,1,0,0,0,137,137,129,1,,,,,,,,
,,,,,,,,,,,,,FF,,,,,,,,1.3,,,,,,,,,,,,,,,,,,,,,,60ff447048f1d7c26cfcdefa,61036fb6c799215fa2f5a2a9,2021-07-30_15h28.36.283,Simcolourproject_2stim_asymm_v5,2020.2.10,Win32,60,61025ae37ef11b136ea224fe,,,,,,,,,4190,-118,46,1,0,0,response7disk,,1,4,13,1,0,0,rectangle,4,13,1,0,0,4,13,1,0,0,0,138,138,138,1,,,,,,,,
,,,,,,,,,,,,,FF,,,,,,,,1.0171,,,,,,,,,,,,,,,,,,,,,,60ff447048f1d7c26cfcdefa,61036fb6c799215fa2f5a2a9,2021-07-30_15h28.36.283,Simcolourproject_2stim_asymm_v5,2020.2.10,Win32,60,61025ae37ef11b136ea224fe,,,,,,,,,4238,-147,39,1,0,0,response7disk,,1,13,-11,1,0,0,rectangle,13,-11,1,0,0,13,-11,1,0,0,0,139,139,49,1,,,,,,,,
,,,,,,,,,,,,,FF,,,,,,,,0.4998,,,,,,,,,,,,,,,,,,,,,,60ff447048f1d7c26cfcdefa,61036fb6c799215fa2f5a2a9,2021-07-30_15h28.36.283,Simcolourproject_2stim_asymm_v5,2020.2.10,Win32,60,61025ae37ef11b136ea224fe,,,,,,,,,1556,88,-51,1,0,0,response3disk,,5,14,17,1,0,0,rectangle,14,17,1,0,0,14,17,1,0,0,0,140,140,132,1,,,,,,,,
,,,,,,,,,,,,,FF,,,,,,,,0.667,,,,,,,,,,,,,,,,,,,,,,60ff447048f1d7c26cfcdefa,61036fb6c799215fa2f5a2a9,2021-07-30_15h28.36.283,Simcolourproject_2stim_asymm_v5,2020.2.10,Win32,60,61025ae37ef11b136ea224fe,,,,,,,,,2961,65,-60,1,0,0,response3disk,,5,1,-17,1,0,0,rectangle,-35,-93,1,0,0,-19,2,1,0,0,0,141,141,107,1,,response5disk_3,TRUE,3,3,"[180,89,6,57,315,281,101,154,235,20,271,308,169,157,205,142,200,145,253,86]",2.45,rectangle
,,,,,,,,,,,,,FF,,,,,,,,1.3335,,,,,,,,,,,,,,,,,,,,,,60ff447048f1d7c26cfcdefa,61036fb6c799215fa2f5a2a9,2021-07-30_15h28.36.283,Simcolourproject_2stim_asymm_v5,2020.2.10,Win32,60,61025ae37ef11b136ea224fe,,,,,,,,,2525,43,-98,1,0,0,response3disk,,4,-11,2,1,0,0,rectangle,-11,2,1,0,0,-11,2,1,0,0,0,142,142,50,1,,,,,,,,
,,,,,,,,,,,,,FF,,,,,,,,0.9164,,,,,,,,,,,,,,,,,,,,,,60ff447048f1d7c26cfcdefa,61036fb6c799215fa2f5a2a9,2021-07-30_15h28.36.283,Simcolourproject_2stim_asymm_v5,2020.2.10,Win32,60,61025ae37ef11b136ea224fe,,,,,,,,,768,108,-34,1,0,0,response3disk,,5,32,-8,1,0,0,rectangle,32,-8,1,0,0,32,-8,1,0,0,0,143,143,103,1,,,,,,,,
,,,,,,,,,,,,,FF,,,,,,,,1.3169,,,,,,,,,,,,,,,,,,,,,,60ff447048f1d7c26cfcdefa,61036fb6c799215fa2f5a2a9,2021-07-30_15h28.36.283,Simcolourproject_2stim_asymm_v5,2020.2.10,Win32,60,61025ae37ef11b136ea224fe,,,,,,,,,4196,83,-44,1,0,0,response3disk,,5,14,-9,1,0,0,rectangle,-52,-110,1,0,0,-2,14,1,0,0,0,144,144,19,1,,response5disk_3,TRUE,3,3,"[180,89,6,57,315,281,101,154,235,20,271,308,169,157,205,142,200,145,253,86]",1.6333,rectangle
,,,,,,,,,,,,,FF,,,,,,,,1.4831,,,,,,,,,,,,,,,,,,,,,,60ff447048f1d7c26cfcdefa,61036fb6c799215fa2f5a2a9,2021-07-30_15h28.36.283,Simcolourproject_2stim_asymm_v5,2020.2.10,Win32,60,61025ae37ef11b136ea224fe,,,,,,,,,2242,-65,-110,1,0,0,response5disk,,3,23,15,1,0,0,rectangle,23,15,1,0,0,23,15,1,0,0,0,145,145,152,1,,,,,,,,
,,,,,,,,,,,,,FF,,,,,,,,1.385,,,,,,,,,,,,,,,,,,,,,,60ff447048f1d7c26cfcdefa,61036fb6c799215fa2f5a2a9,2021-07-30_15h28.36.283,Simcolourproject_2stim_asymm_v5,2020.2.10,Win32,60,61025ae37ef11b136ea224fe,,,,,,,,,1088,31,96,1,0,0,response1disk,,7,8,-9,1,0,0,rectangle,8,-9,1,0,0,8,-9,1,0,0,0,146,146,139,1,,,,,,,,
,,,,,,,,,,,,,FF,,,,,,,,0.9328,,,,,,,,,,,,,,,,,,,,,,60ff447048f1d7c26cfcdefa,61036fb6c799215fa2f5a2a9,2021-07-30_15h28.36.283,Simcolourproject_2stim_asymm_v5,2020.2.10,Win32,60,61025ae37ef11b136ea224fe,,,,,,,,,1417,73,-60,1,0,0,response3disk,,5,-19,1,1,0,0,rectangle,-19,1,1,0,0,-19,1,1,0,0,0,147,147,144,1,,,,,,,,
,,,,,,,,,,,,,FF,,,,,,,,0.5503,,,,,,,,,,,,,,,,,,,,,,60ff447048f1d7c26cfcdefa,61036fb6c799215fa2f5a2a9,2021-07-30_15h28.36.283,Simcolourproject_2stim_asymm_v5,2020.2.10,Win32,60,61025ae37ef11b136ea224fe,,,,,,,,,3397,66,-37,1,0,0,response3disk,,5,-13,-3,1,0,0,rectangle,-13,-3,1,0,0,-13,-3,1,0,0,0,148,148,27,1,,,,,,,,
,,,,,,,,,,,,,FF,,,,,,,,1.6506,,,,,,,,,,,,,,,,,,,,,,60ff447048f1d7c26cfcdefa,61036fb6c799215fa2f5a2a9,2021-07-30_15h28.36.283,Simcolourproject_2stim_asymm_v5,2020.2.10,Win32,60,61025ae37ef11b136ea224fe,,,,,,,,,3530,28,75,1,0,0,response1disk,,7,-8,-3,1,0,0,rectangle,-8,-3,1,0,0,-8,-3,1,0,0,0,149,149,95,1,,,,,,,,
,,,,,,,,,,,,,FF,,,,,,,,0.8686,,,,,,,,,,,,,,,,,,,,,,60ff447048f1d7c26cfcdefa,61036fb6c799215fa2f5a2a9,2021-07-30_15h28.36.283,Simcolourproject_2stim_asymm_v5,2020.2.10,Win32,60,61025ae37ef11b136ea224fe,,,,,,,,,3919,-90,-92,1,0,0,response5disk,,3,-9,11,1,0,0,rectangle,-9,11,1,0,0,-9,11,1,0,0,0,150,150,73,1,,,,,,,,
,,,,,,,,,,,,,FF,,,,,,,,0.8003,,,,,,,,,,,,,,,,,,,,,,60ff447048f1d7c26cfcdefa,61036fb6c799215fa2f5a2a9,2021-07-30_15h28.36.283,Simcolourproject_2stim_asymm_v5,2020.2.10,Win32,60,61025ae37ef11b136ea224fe,,,,,,,,,789,-42,-131,1,0,0,response5disk,,3,3,6,1,0,0,rectangle,3,6,1,0,0,3,6,1,0,0,0,151,151,123,1,,,,,,,,
,,,,,,,,,,,,,FF,,,,,,,,0.5184,,,,,,,,,,,,,,,,,,,,,,60ff447048f1d7c26cfcdefa,61036fb6c799215fa2f5a2a9,2021-07-30_15h28.36.283,Simcolourproject_2stim_asymm_v5,2020.2.10,Win32,60,61025ae37ef11b136ea224fe,,,,,,,,,3489,60,-101,1,0,0,response3disk,,4,6,11,1,0,0,rectangle,6,11,1,0,0,6,11,1,0,0,0,152,152,110,1,,,,,,,,
,,,,,,,,,,,,,FF,,,,,,,,0.6506,,,,,,,,,,,,,,,,,,,,,,60ff447048f1d7c26cfcdefa,61036fb6c799215fa2f5a2a9,2021-07-30_15h28.36.283,Simcolourproject_2stim_asymm_v5,2020.2.10,Win32,60,61025ae37ef11b136ea224fe,,,,,,,,,2709,41,146,1,0,0,response1disk,,7,-6,-8,1,0,0,rectangle,93,-49,1,0,0,21,8,1,0,0,0,153,153,71,1,,response3disk_3,TRUE,5,5,"[180,89,6,57,315,281,101,154,235,20,271,308,169,157,205,142,200,145,253,86]",1.2163,rectangle
,,,,,,,,,,,,,FF,,,,,,,,0.7501,,,,,,,,,,,,,,,,,,,,,,60ff447048f1d7c26cfcdefa,61036fb6c799215fa2f5a2a9,2021-07-30_15h28.36.283,Simcolourproject_2stim_asymm_v5,2020.2.10,Win32,60,61025ae37ef11b136ea224fe,,,,,,,,,2889,-85,-48,1,0,0,response5disk,,2,-30,-3,1,0,0,rectangle,-30,-3,1,0,0,-30,-3,1,0,0,0,154,154,47,1,,,,,,,,
,,,,,,,,,,,,,FF,,,,,,,,0.9837,,,,,,,,,,,,,,,,,,,,,,60ff447048f1d7c26cfcdefa,61036fb6c799215fa2f5a2a9,2021-07-30_15h28.36.283,Simcolourproject_2stim_asymm_v5,2020.2.10,Win32,60,61025ae37ef11b136ea224fe,,,,,,,,,4039,67,-89,1,0,0,response3disk,,4,18,-3,1,0,0,rectangle,18,-3,1,0,0,18,-3,1,0,0,0,155,155,114,1,,,,,,,,
,,,,,,,,,,,,,FF,,,,,,,,0.6849,,,,,,,,,,,,,,,,,,,,,,60ff447048f1d7c26cfcdefa,61036fb6c799215fa2f5a2a9,2021-07-30_15h28.36.283,Simcolourproject_2stim_asymm_v5,2020.2.10,Win32,60,61025ae37ef11b136ea224fe,,,,,,,,,1453,-71,-102,1,0,0,response5disk,,3,-26,-14,1,0,0,rectangle,85,-48,1,0,0,9,4,1,0,0,0,156,156,157,1,,response3disk_3,TRUE,5,5,"[180,89,6,57,315,281,101,154,235,20,271,308,169,157,205,142,200,145,253,86]",1.0999,rectangle
,,,,,,,,,,,,,FF,,,,,,,,1.7003,,,,,,,,,,,,,,,,,,,,,,60ff447048f1d7c26cfcdefa,61036fb6c799215fa2f5a2a9,2021-07-30_15h28.36.283,Simcolourproject_2stim_asymm_v5,2020.2.10,Win32,60,61025ae37ef11b136ea224fe,,,,,,,,,1868,72,119,1,0,0,response1disk,,7,-8,-10,1,0,0,rectangle,-8,-10,1,0,0,-8,-10,1,0,0,0,157,157,106,1,,,,,,,,
,,,,,,,,,,,,,FF,,,,,,,,1.2846,,,,,,,,,,,,,,,,,,,,,,60ff447048f1d7c26cfcdefa,61036fb6c799215fa2f5a2a9,2021-07-30_15h28.36.283,Simcolourproject_2stim_asymm_v5,2020.2.10,Win32,60,61025ae37ef11b136ea224fe,,,,,,,,,2086,117,-31,1,0,0,response3disk,,5,8,1,1,0,0,rectangle,8,1,1,0,0,8,1,1,0,0,0,158,158,111,1,,,,,,,,
,,,,,,,,,,,,,FF,,,,,,,,0.5161,,,,,,,,,,,,,,,,,,,,,,60ff447048f1d7c26cfcdefa,61036fb6c799215fa2f5a2a9,2021-07-30_15h28.36.283,Simcolourproject_2stim_asymm_v5,2020.2.10,Win32,60,61025ae37ef11b136ea224fe,,,,,,,,,3863,83,58,1,0,0,response1disk,,6,8,10,1,0,0,rectangle,8,10,1,0,0,8,10,1,0,0,0,159,159,58,1,,,,,,,,
,,,,,,,,,,,,,FF,,,,,,,,0.6433,,,,,,,,,,,,,,,,,,,,,,60ff447048f1d7c26cfcdefa,61036fb6c799215fa2f5a2a9,2021-07-30_15h28.36.283,Simcolourproject_2stim_asymm_v5,2020.2.10,Win32,60,61025ae37ef11b136ea224fe,,,,,,,,,2829,84,39,1,0,0,response1disk,,6,33,8,1,0,0,rectangle,33,8,1,0,0,33,8,1,0,0,1,0,160,14,1,,,,,,,,
,,,,,,,,,,,,,FF,,,,,,,,0.7659,,,,,,,,,,,,,,,,,,,,,,60ff447048f1d7c26cfcdefa,61036fb6c799215fa2f5a2a9,2021-07-30_15h28.36.283,Simcolourproject_2stim_asymm_v5,2020.2.10,Win32,60,61025ae37ef11b136ea224fe,,,,,,,,,2948,-108,-67,1,0,0,response5disk,,2,-12,1,1,0,0,rectangle,-12,1,1,0,0,-12,1,1,0,0,1,1,161,10,1,,,,,,,,
,,,,,,,,,,,,,FF,,,,,,,,0.683,,,,,,,,,,,,,,,,,,,,,,60ff447048f1d7c26cfcdefa,61036fb6c799215fa2f5a2a9,2021-07-30_15h28.36.283,Simcolourproject_2stim_asymm_v5,2020.2.10,Win32,60,61025ae37ef11b136ea224fe,,,,,,,,,58,87,39,1,0,0,response1disk,,6,14,0,1,0,0,rectangle,14,0,1,0,0,14,0,1,0,0,1,2,162,13,1,,,,,,,,
,,,,,,,,,,,,,FF,,,,,,,,0.8011,,,,,,,,,,,,,,,,,,,,,,60ff447048f1d7c26cfcdefa,61036fb6c799215fa2f5a2a9,2021-07-30_15h28.36.283,Simcolourproject_2stim_asymm_v5,2020.2.10,Win32,60,61025ae37ef11b136ea224fe,,,,,,,,,2609,-89,-45,1,0,0,response5disk,,2,-6,15,1,0,0,rectangle,-6,15,1,0,0,-6,15,1,0,0,1,3,163,7,1,,,,,,,,
,,,,,,,,,,,,,FF,,,,,,,,0.7176,,,,,,,,,,,,,,,,,,,,,,60ff447048f1d7c26cfcdefa,61036fb6c799215fa2f5a2a9,2021-07-30_15h28.36.283,Simcolourproject_2stim_asymm_v5,2020.2.10,Win32,60,61025ae37ef11b136ea224fe,,,,,,,,,1312,85,-35,1,0,0,response3disk,,5,13,3,1,0,0,rectangle,13,3,1,0,0,13,3,1,0,0,1,4,164,73,1,,,,,,,,
,,,,,,,,,,,,,FF,,,,,,,,0.8668,,,,,,,,,,,,,,,,,,,,,,60ff447048f1d7c26cfcdefa,61036fb6c799215fa2f5a2a9,2021-07-30_15h28.36.283,Simcolourproject_2stim_asymm_v5,2020.2.10,Win32,60,61025ae37ef11b136ea224fe,,,,,,,,,2457,55,-37,1,0,0,response3disk,,5,17,-4,1,0,0,rectangle,17,-4,1,0,0,17,-4,1,0,0,1,5,165,103,1,,,,,,,,
,,,,,,,,,,,,,FF,,,,,,,,1.0645,,,,,,,,,,,,,,,,,,,,,,60ff447048f1d7c26cfcdefa,61036fb6c799215fa2f5a2a9,2021-07-30_15h28.36.283,Simcolourproject_2stim_asymm_v5,2020.2.10,Win32,60,61025ae37ef11b136ea224fe,,,,,,,,,619,-130,60,1,0,0,response7disk,,1,-7,1,1,0,0,rectangle,-7,1,1,0,0,-7,1,1,0,0,1,6,166,37,1,,,,,,,,
,,,,,,,,,,,,,FF,,,,,,,,2.6836,,,,,,,,,,,,,,,,,,,,,,60ff447048f1d7c26cfcdefa,61036fb6c799215fa2f5a2a9,2021-07-30_15h28.36.283,Simcolourproject_2stim_asymm_v5,2020.2.10,Win32,60,61025ae37ef11b136ea224fe,,,,,,,,,1251,50,-95,1,0,0,response3disk,,4,-4,-2,1,0,0,rectangle,-4,-2,1,0,0,-4,-2,1,0,0,1,7,167,26,1,,,,,,,,
,,,,,,,,,,,,,FF,,,,,,,,0.7499,,,,,,,,,,,,,,,,,,,,,,60ff447048f1d7c26cfcdefa,61036fb6c799215fa2f5a2a9,2021-07-30_15h28.36.283,Simcolourproject_2stim_asymm_v5,2020.2.10,Win32,60,61025ae37ef11b136ea224fe,,,,,,,,,4205,-114,47,1,0,0,response7disk,,1,-9,-11,1,0,0,rectangle,59,-97,1,0,0,9,2,1,0,0,1,8,168,142,1,,response3disk_3,TRUE,4,4,"[180,89,6,57,315,281,101,154,235,20,271,308,169,157,205,142,200,145,253,86]",1.0156,rectangle
,,,,,,,,,,,,,FF,,,,,,,,3.3,,,,,,,,,,,,,,,,,,,,,,60ff447048f1d7c26cfcdefa,61036fb6c799215fa2f5a2a9,2021-07-30_15h28.36.283,Simcolourproject_2stim_asymm_v5,2020.2.10,Win32,60,61025ae37ef11b136ea224fe,,,,,,,,,528,55,-66,1,0,0,response3disk,,4,4,4,1,0,0,rectangle,4,4,1,0,0,4,4,1,0,0,1,9,169,121,1,,,,,,,,
,,,,,,,,,,,,,FF,,,,,,,,0.8338,,,,,,,,,,,,,,,,,,,,,,60ff447048f1d7c26cfcdefa,61036fb6c799215fa2f5a2a9,2021-07-30_15h28.36.283,Simcolourproject_2stim_asymm_v5,2020.2.10,Win32,60,61025ae37ef11b136ea224fe,,,,,,,,,688,38,-70,1,0,0,response3disk,,4,-7,14,1,0,0,rectangle,-7,14,1,0,0,-7,14,1,0,0,1,10,170,144,1,,,,,,,,
,,,,,,,,,,,,,FF,,,,,,,,1.1004,,,,,,,,,,,,,,,,,,,,,,60ff447048f1d7c26cfcdefa,61036fb6c799215fa2f5a2a9,2021-07-30_15h28.36.283,Simcolourproject_2stim_asymm_v5,2020.2.10,Win32,60,61025ae37ef11b136ea224fe,,,,,,,,,110,-32,-88,1,0,0,response5disk,,3,-12,-9,1,0,0,rectangle,-12,-9,1,0,0,-12,-9,1,0,0,1,11,171,92,1,,,,,,,,
,,,,,,,,,,,,,FF,,,,,,,,0.6668,,,,,,,,,,,,,,,,,,,,,,60ff447048f1d7c26cfcdefa,61036fb6c799215fa2f5a2a9,2021-07-30_15h28.36.283,Simcolourproject_2stim_asymm_v5,2020.2.10,Win32,60,61025ae37ef11b136ea224fe,,,,,,,,,3675,-47,-90,1,0,0,response5disk,,3,-18,-4,1,0,0,rectangle,-18,-4,1,0,0,-18,-4,1,0,0,1,12,172,88,1,,,,,,,,
,,,,,,,,,,,,,FF,,,,,,,,1.1505,,,,,,,,,,,,,,,,,,,,,,60ff447048f1d7c26cfcdefa,61036fb6c799215fa2f5a2a9,2021-07-30_15h28.36.283,Simcolourproject_2stim_asymm_v5,2020.2.10,Win32,60,61025ae37ef11b136ea224fe,,,,,,,,,3562,54,-98,1,0,0,response3disk,,4,20,-11,1,0,0,rectangle,20,-11,1,0,0,20,-11,1,0,0,1,13,173,49,1,,,,,,,,
,,,,,,,,,,,,,FF,,,,,,,,1.0501,,,,,,,,,,,,,,,,,,,,,,60ff447048f1d7c26cfcdefa,61036fb6c799215fa2f5a2a9,2021-07-30_15h28.36.283,Simcolourproject_2stim_asymm_v5,2020.2.10,Win32,60,61025ae37ef11b136ea224fe,,,,,,,,,3168,25,106,1,0,0,response1disk,,7,-13,19,1,0,0,rectangle,-13,19,1,0,0,-13,19,1,0,0,1,14,174,149,1,,,,,,,,
,,,,,,,,,,,,,FF,,,,,,,,1.1166,,,,,,,,,,,,,,,,,,,,,,60ff447048f1d7c26cfcdefa,61036fb6c799215fa2f5a2a9,2021-07-30_15h28.36.283,Simcolourproject_2stim_asymm_v5,2020.2.10,Win32,60,61025ae37ef11b136ea224fe,,,,,,,,,2845,-50,-90,1,0,0,response5disk,,3,-28,-5,1,0,0,rectangle,-28,-5,1,0,0,-28,-5,1,0,0,1,15,175,107,1,,,,,,,,
,,,,,,,,,,,,,FF,,,,,,,,1.6172,,,,,,,,,,,,,,,,,,,,,,60ff447048f1d7c26cfcdefa,61036fb6c799215fa2f5a2a9,2021-07-30_15h28.36.283,Simcolourproject_2stim_asymm_v5,2020.2.10,Win32,60,61025ae37ef11b136ea224fe,,,,,,,,,1732,93,-108,1,0,0,response3disk,,4,-9,8,1,0,0,rectangle,-9,8,1,0,0,-9,8,1,0,0,1,16,176,158,1,,,,,,,,
,,,,,,,,,,,,,FF,,,,,,,,0.667,,,,,,,,,,,,,,,,,,,,,,60ff447048f1d7c26cfcdefa,61036fb6c799215fa2f5a2a9,2021-07-30_15h28.36.283,Simcolourproject_2stim_asymm_v5,2020.2.10,Win32,60,61025ae37ef11b136ea224fe,,,,,,,,,1095,68,125,1,0,0,response1disk,,7,32,1,1,0,0,rectangle,32,1,1,0,0,32,1,1,0,0,1,17,177,44,1,,,,,,,,
,,,,,,,,,,,,,FF,,,,,,,,1.1505,,,,,,,,,,,,,,,,,,,,,,60ff447048f1d7c26cfcdefa,61036fb6c799215fa2f5a2a9,2021-07-30_15h28.36.283,Simcolourproject_2stim_asymm_v5,2020.2.10,Win32,60,61025ae37ef11b136ea224fe,,,,,,,,,545,-80,-85,1,0,0,response5disk,,3,-28,-8,1,0,0,rectangle,-28,-8,1,0,0,-28,-8,1,0,0,1,18,178,138,1,,,,,,,,
,,,,,,,,,,,,,FF,,,,,,,,0.5502,,,,,,,,,,,,,,,,,,,,,,60ff447048f1d7c26cfcdefa,61036fb6c799215fa2f5a2a9,2021-07-30_15h28.36.283,Simcolourproject_2stim_asymm_v5,2020.2.10,Win32,60,61025ae37ef11b136ea224fe,,,,,,,,,1052,-81,-34,1,0,0,response5disk,,2,7,-1,1,0,0,rectangle,43,-110,1,0,0,13,5,1,0,0,1,19,179,33,1,,response3disk_3,TRUE,4,4,"[180,89,6,57,315,281,101,154,235,20,271,308,169,157,205,142,200,145,253,86]",1.0834,rectangle
,,,,,,,,,,,,,FF,,,,,,,,0.9502,,,,,,,,,,,,,,,,,,,,,,60ff447048f1d7c26cfcdefa,61036fb6c799215fa2f5a2a9,2021-07-30_15h28.36.283,Simcolourproject_2stim_asymm_v5,2020.2.10,Win32,60,61025ae37ef11b136ea224fe,,,,,,,,,3209,41,127,1,0,0,response1disk,,7,-22,-9,1,0,0,rectangle,-22,-9,1,0,0,-22,-9,1,0,0,1,20,180,94,1,,,,,,,,
,,,,,,,,,,,,,FF,,,,,,,,0.6503,,,,,,,,,,,,,,,,,,,,,,60ff447048f1d7c26cfcdefa,61036fb6c799215fa2f5a2a9,2021-07-30_15h28.36.283,Simcolourproject_2stim_asymm_v5,2020.2.10,Win32,60,61025ae37ef11b136ea224fe,,,,,,,,,2014,54,110,1,0,0,response1disk,,7,10,0,1,0,0,rectangle,10,0,1,0,0,10,0,1,0,0,1,21,181,61,1,,,,,,,,
,,,,,,,,,,,,,FF,,,,,,,,1.4172,,,,,,,,,,,,,,,,,,,,,,60ff447048f1d7c26cfcdefa,61036fb6c799215fa2f5a2a9,2021-07-30_15h28.36.283,Simcolourproject_2stim_asymm_v5,2020.2.10,Win32,60,61025ae37ef11b136ea224fe,,,,,,,,,3736,135,56,1,0,0,response1disk,,6,11,3,1,0,0,rectangle,11,3,1,0,0,11,3,1,0,0,1,22,182,143,1,,,,,,,,
,,,,,,,,,,,,,FF,,,,,,,,1.1834,,,,,,,,,,,,,,,,,,,,,,60ff447048f1d7c26cfcdefa,61036fb6c799215fa2f5a2a9,2021-07-30_15h28.36.283,Simcolourproject_2stim_asymm_v5,2020.2.10,Win32,60,61025ae37ef11b136ea224fe,,,,,,,,,2851,99,-32,1,0,0,response3disk,,5,13,-5,1,0,0,rectangle,13,-5,1,0,0,13,-5,1,0,0,1,23,183,85,1,,,,,,,,
,,,,,,,,,,,,,FF,,,,,,,,1.4501,,,,,,,,,,,,,,,,,,,,,,60ff447048f1d7c26cfcdefa,61036fb6c799215fa2f5a2a9,2021-07-30_15h28.36.283,Simcolourproject_2stim_asymm_v5,2020.2.10,Win32,60,61025ae37ef11b136ea224fe,,,,,,,,,1986,88,38,1,0,0,response1disk,,6,-8,-11,1,0,0,rectangle,-8,-11,1,0,0,-8,-11,1,0,0,1,24,184,146,1,,,,,,,,
,,,,,,,,,,,,,FF,,,,,,,,0.9171,,,,,,,,,,,,,,,,,,,,,,60ff447048f1d7c26cfcdefa,61036fb6c799215fa2f5a2a9,2021-07-30_15h28.36.283,Simcolourproject_2stim_asymm_v5,2020.2.10,Win32,60,61025ae37ef11b136ea224fe,,,,,,,,,1591,95,47,1,0,0,response1disk,,6,17,-5,1,0,0,rectangle,17,-5,1,0,0,17,-5,1,0,0,1,25,185,114,1,,,,,,,,
,,,,,,,,,,,,,FF,,,,,,,,1.6004,,,,,,,,,,,,,,,,,,,,,,60ff447048f1d7c26cfcdefa,61036fb6c799215fa2f5a2a9,2021-07-30_15h28.36.283,Simcolourproject_2stim_asymm_v5,2020.2.10,Win32,60,61025ae37ef11b136ea224fe,,,,,,,,,656,66,-82,1,0,0,response3disk,,4,0,2,1,0,0,rectangle,0,2,1,0,0,0,2,1,0,0,1,26,186,54,1,,,,,,,,
,,,,,,,,,,,,,FF,,,,,,,,1.4672,,,,,,,,,,,,,,,,,,,,,,60ff447048f1d7c26cfcdefa,61036fb6c799215fa2f5a2a9,2021-07-30_15h28.36.283,Simcolourproject_2stim_asymm_v5,2020.2.10,Win32,60,61025ae37ef11b136ea224fe,,,,,,,,,1719,80,-51,1,0,0,response3disk,,5,10,-12,1,0,0,rectangle,10,-12,1,0,0,10,-12,1,0,0,1,27,187,66,1,,,,,,,,
,,,,,,,,,,,,,FF,,,,,,,,1.1504,,,,,,,,,,,,,,,,,,,,,,60ff447048f1d7c26cfcdefa,61036fb6c799215fa2f5a2a9,2021-07-30_15h28.36.283,Simcolourproject_2stim_asymm_v5,2020.2.10,Win32,60,61025ae37ef11b136ea224fe,,,,,,,,,2561,100,34,1,0,0,response1disk,,6,37,7,1,0,0,rectangle,37,7,1,0,0,37,7,1,0,0,1,28,188,106,1,,,,,,,,
,,,,,,,,,,,,,FF,,,,,,,,1.7172,,,,,,,,,,,,,,,,,,,,,,60ff447048f1d7c26cfcdefa,61036fb6c799215fa2f5a2a9,2021-07-30_15h28.36.283,Simcolourproject_2stim_asymm_v5,2020.2.10,Win32,60,61025ae37ef11b136ea224fe,,,,,,,,,2304,-39,-119,1,0,0,response5disk,,3,-10,-16,1,0,0,rectangle,-10,-16,1,0,0,-10,-16,1,0,0,1,29,189,111,1,,,,,,,,
,,,,,,,,,,,,,FF,,,,,,,,4.8999,,,,,,,,,,,,,,,,,,,,,,60ff447048f1d7c26cfcdefa,61036fb6c799215fa2f5a2a9,2021-07-30_15h28.36.283,Simcolourproject_2stim_asymm_v5,2020.2.10,Win32,60,61025ae37ef11b136ea224fe,,,,,,,,,323,90,-54,1,0,0,response3disk,,5,8,-16,1,0,0,rectangle,8,-16,1,0,0,8,-16,1,0,0,1,30,190,18,1,,,,,,,,
,,,,,,,,,,,,,FF,,,,,,,,1.7668,,,,,,,,,,,,,,,,,,,,,,60ff447048f1d7c26cfcdefa,61036fb6c799215fa2f5a2a9,2021-07-30_15h28.36.283,Simcolourproject_2stim_asymm_v5,2020.2.10,Win32,60,61025ae37ef11b136ea224fe,,,,,,,,,640,-48,-108,1,0,0,response5disk,,3,-2,-17,1,0,0,rectangle,-2,-17,1,0,0,-2,-17,1,0,0,1,31,191,20,1,,,,,,,,
,,,,,,,,,,,,,FF,,,,,,,,0.9004,,,,,,,,,,,,,,,,,,,,,,60ff447048f1d7c26cfcdefa,61036fb6c799215fa2f5a2a9,2021-07-30_15h28.36.283,Simcolourproject_2stim_asymm_v5,2020.2.10,Win32,60,61025ae37ef11b136ea224fe,,,,,,,,,520,-50,-95,1,0,0,response5disk,,3,6,-3,1,0,0,rectangle,6,-3,1,0,0,6,-3,1,0,0,1,32,192,63,1,,,,,,,,
,,,,,,,,,,,,,FF,,,,,,,,1.3004,,,,,,,,,,,,,,,,,,,,,,60ff447048f1d7c26cfcdefa,61036fb6c799215fa2f5a2a9,2021-07-30_15h28.36.283,Simcolourproject_2stim_asymm_v5,2020.2.10,Win32,60,61025ae37ef11b136ea224fe,,,,,,,,,1244,148,-48,1,0,0,response3disk,,5,2,-16,1,0,0,rectangle,2,-16,1,0,0,2,-16,1,0,0,1,33,193,29,1,,,,,,,,
,,,,,,,,,,,,,FF,,,,,,,,0.7166,,,,,,,,,,,,,,,,,,,,,,60ff447048f1d7c26cfcdefa,61036fb6c799215fa2f5a2a9,2021-07-30_15h28.36.283,Simcolourproject_2stim_asymm_v5,2020.2.10,Win32,60,61025ae37ef11b136ea224fe,,,,,,,,,2973,54,116,1,0,0,response1disk,,7,19,13,1,0,0,rectangle,19,13,1,0,0,19,13,1,0,0,1,34,194,70,1,,,,,,,,
,,,,,,,,,,,,,FF,,,,,,,,1.0834,,,,,,,,,,,,,,,,,,,,,,60ff447048f1d7c26cfcdefa,61036fb6c799215fa2f5a2a9,2021-07-30_15h28.36.283,Simcolourproject_2stim_asymm_v5,2020.2.10,Win32,60,61025ae37ef11b136ea224fe,,,,,,,,,1406,83,-59,1,0,0,response3disk,,5,12,1,1,0,0,rectangle,12,1,1,0,0,12,1,1,0,0,1,35,195,21,1,,,,,,,,
,,,,,,,,,,,,,FF,,,,,,,,0.967,,,,,,,,,,,,,,,,,,,,,,60ff447048f1d7c26cfcdefa,61036fb6c799215fa2f5a2a9,2021-07-30_15h28.36.283,Simcolourproject_2stim_asymm_v5,2020.2.10,Win32,60,61025ae37ef11b136ea224fe,,,,,,,,,89,74,87,1,0,0,response1disk,,7,39,2,1,0,0,rectangle,39,2,1,0,0,39,2,1,0,0,1,36,196,43,1,,,,,,,,
,,,,,,,,,,,,,FF,,,,,,,,0.7832,,,,,,,,,,,,,,,,,,,,,,60ff447048f1d7c26cfcdefa,61036fb6c799215fa2f5a2a9,2021-07-30_15h28.36.283,Simcolourproject_2stim_asymm_v5,2020.2.10,Win32,60,61025ae37ef11b136ea224fe,,,,,,,,,751,57,111,1,0,0,response1disk,,7,8,7,1,0,0,rectangle,8,7,1,0,0,8,7,1,0,0,1,37,197,25,1,,,,,,,,
,,,,,,,,,,,,,FF,,,,,,,,0.5503,,,,,,,,,,,,,,,,,,,,,,60ff447048f1d7c26cfcdefa,61036fb6c799215fa2f5a2a9,2021-07-30_15h28.36.283,Simcolourproject_2stim_asymm_v5,2020.2.10,Win32,60,61025ae37ef11b136ea224fe,,,,,,,,,2913,51,85,1,0,0,response1disk,,7,18,8,1,0,0,rectangle,18,8,1,0,0,18,8,1,0,0,1,38,198,64,1,,,,,,,,
,,,,,,,,,,,,,FF,,,,,,,,0.5002,,,,,,,,,,,,,,,,,,,,,,60ff447048f1d7c26cfcdefa,61036fb6c799215fa2f5a2a9,2021-07-30_15h28.36.283,Simcolourproject_2stim_asymm_v5,2020.2.10,Win32,60,61025ae37ef11b136ea224fe,,,,,,,,,2585,45,78,1,0,0,response1disk,,7,7,0,1,0,0,rectangle,-106,-57,1,0,0,-11,-1,1,0,0,1,39,199,112,1,,response5disk_3,TRUE,2,2,"[180,89,6,57,315,281,101,154,235,20,271,308,169,157,205,142,200,145,253,86]",1.499,rectangle
,,,,,,,,,,,,,FF,,,,,,,,1.1169,,,,,,,,,,,,,,,,,,,,,,60ff447048f1d7c26cfcdefa,61036fb6c799215fa2f5a2a9,2021-07-30_15h28.36.283,Simcolourproject_2stim_asymm_v5,2020.2.10,Win32,60,61025ae37ef11b136ea224fe,,,,,,,,,1992,64,98,1,0,0,response1disk,,7,23,6,1,0,0,rectangle,23,6,1,0,0,23,6,1,0,0,1,40,200,102,1,,,,,,,,
,,,,,,,,,,,,,FF,,,,,,,,1.1672,,,,,,,,,,,,,,,,,,,,,,60ff447048f1d7c26cfcdefa,61036fb6c799215fa2f5a2a9,2021-07-30_15h28.36.283,Simcolourproject_2stim_asymm_v5,2020.2.10,Win32,60,61025ae37ef11b136ea224fe,,,,,,,,,2094,-112,22,1,0,0,response7disk,,1,-10,-3,1,0,0,rectangle,-10,-3,1,0,0,-10,-3,1,0,0,1,41,201,45,1,,,,,,,,
,,,,,,,,,,,,,FF,,,,,,,,0.717,,,,,,,,,,,,,,,,,,,,,,60ff447048f1d7c26cfcdefa,61036fb6c799215fa2f5a2a9,2021-07-30_15h28.36.283,Simcolourproject_2stim_asymm_v5,2020.2.10,Win32,60,61025ae37ef11b136ea224fe,,,,,,,,,284,-91,42,1,0,0,response7disk,,1,0,-14,1,0,0,rectangle,0,-14,1,0,0,0,-14,1,0,0,1,42,202,9,1,,,,,,,,
,,,,,,,,,,,,,FF,,,,,,,,0.7002,,,,,,,,,,,,,,,,,,,,,,60ff447048f1d7c26cfcdefa,61036fb6c799215fa2f5a2a9,2021-07-30_15h28.36.283,Simcolourproject_2stim_asymm_v5,2020.2.10,Win32,60,61025ae37ef11b136ea224fe,,,,,,,,,1672,-97,-44,1,0,0,response5disk,,2,-9,-2,1,0,0,rectangle,-9,-2,1,0,0,-9,-2,1,0,0,1,43,203,90,1,,,,,,,,
,,,,,,,,,,,,,FF,,,,,,,,1.2169,,,,,,,,,,,,,,,,,,,,,,60ff447048f1d7c26cfcdefa,61036fb6c799215fa2f5a2a9,2021-07-30_15h28.36.283,Simcolourproject_2stim_asymm_v5,2020.2.10,Win32,60,61025ae37ef11b136ea224fe,,,,,,,,,1800,55,-82,1,0,0,response3disk,,4,-17,-9,1,0,0,rectangle,-62,114,1,0,0,-13,-4,1,0,0,1,44,204,75,1,,response7disk_3,TRUE,0,0,"[180,89,6,57,315,281,101,154,235,20,271,308,169,157,205,142,200,145,253,86]",1.3661,rectangle
,,,,,,,,,,,,,FF,,,,,,,,1.0672,,,,,,,,,,,,,,,,,,,,,,60ff447048f1d7c26cfcdefa,61036fb6c799215fa2f5a2a9,2021-07-30_15h28.36.283,Simcolourproject_2stim_asymm_v5,2020.2.10,Win32,60,61025ae37ef11b136ea224fe,,,,,,,,,3877,-34,-72,1,0,0,response5disk,,3,2,12,1,0,0,rectangle,2,12,1,0,0,2,12,1,0,0,1,45,205,132,1,,,,,,,,
,,,,,,,,,,,,,FF,,,,,,,,0.6331,,,,,,,,,,,,,,,,,,,,,,60ff447048f1d7c26cfcdefa,61036fb6c799215fa2f5a2a9,2021-07-30_15h28.36.283,Simcolourproject_2stim_asymm_v5,2020.2.10,Win32,60,61025ae37ef11b136ea224fe,,,,,,,,,9,-51,-81,1,0,0,response5disk,,3,-10,2,1,0,0,rectangle,-10,2,1,0,0,-10,2,1,0,0,1,46,206,108,1,,,,,,,,
,,,,,,,,,,,,,FF,,,,,,,,0.8341,,,,,,,,,,,,,,,,,,,,,,60ff447048f1d7c26cfcdefa,61036fb6c799215fa2f5a2a9,2021-07-30_15h28.36.283,Simcolourproject_2stim_asymm_v5,2020.2.10,Win32,60,61025ae37ef11b136ea224fe,,,,,,,,,749,131,-64,1,0,0,response3disk,,5,-8,-20,1,0,0,rectangle,-8,-20,1,0,0,-8,-20,1,0,0,1,47,207,2,1,,,,,,,,
,,,,,,,,,,,,,FF,,,,,,,,3.8334,,,,,,,,,,,,,,,,,,,,,,60ff447048f1d7c26cfcdefa,61036fb6c799215fa2f5a2a9,2021-07-30_15h28.36.283,Simcolourproject_2stim_asymm_v5,2020.2.10,Win32,60,61025ae37ef11b136ea224fe,,,,,,,,,1722,46,-106,1,0,0,response3disk,,4,-3,-2,1,0,0,rectangle,-3,-2,1,0,0,-3,-2,1,0,0,1,48,208,77,1,,,,,,,,
,,,,,,,,,,,,,FF,,,,,,,,1.068,,,,,,,,,,,,,,,,,,,,,,60ff447048f1d7c26cfcdefa,61036fb6c799215fa2f5a2a9,2021-07-30_15h28.36.283,Simcolourproject_2stim_asymm_v5,2020.2.10,Win32,60,61025ae37ef11b136ea224fe,,,,,,,,,2240,-122,-67,1,0,0,response5disk,,2,6,-11,1,0,0,rectangle,6,-11,1,0,0,6,-11,1,0,0,1,49,209,0,1,,,,,,,,
,,,,,,,,,,,,,FF,,,,,,,,0.7002,,,,,,,,,,,,,,,,,,,,,,60ff447048f1d7c26cfcdefa,61036fb6c799215fa2f5a2a9,2021-07-30_15h28.36.283,Simcolourproject_2stim_asymm_v5,2020.2.10,Win32,60,61025ae37ef11b136ea224fe,,,,,,,,,4007,-62,-125,1,0,0,response5disk,,3,6,3,1,0,0,rectangle,6,3,1,0,0,6,3,1,0,0,1,50,210,80,1,,,,,,,,
,,,,,,,,,,,,,FF,,,,,,,,0.9001,,,,,,,,,,,,,,,,,,,,,,60ff447048f1d7c26cfcdefa,61036fb6c799215fa2f5a2a9,2021-07-30_15h28.36.283,Simcolourproject_2stim_asymm_v5,2020.2.10,Win32,60,61025ae37ef11b136ea224fe,,,,,,,,,823,-71,-113,1,0,0,response5disk,,3,-26,-7,1,0,0,rectangle,-26,-7,1,0,0,-26,-7,1,0,0,1,51,211,97,1,,,,,,,,
,,,,,,,,,,,,,FF,,,,,,,,1.317,,,,,,,,,,,,,,,,,,,,,,60ff447048f1d7c26cfcdefa,61036fb6c799215fa2f5a2a9,2021-07-30_15h28.36.283,Simcolourproject_2stim_asymm_v5,2020.2.10,Win32,60,61025ae37ef11b136ea224fe,,,,,,,,,2678,45,-96,1,0,0,response3disk,,4,16,-7,1,0,0,rectangle,16,-7,1,0,0,16,-7,1,0,0,1,52,212,79,1,,,,,,,,
,,,,,,,,,,,,,FF,,,,,,,,1.4833,,,,,,,,,,,,,,,,,,,,,,60ff447048f1d7c26cfcdefa,61036fb6c799215fa2f5a2a9,2021-07-30_15h28.36.283,Simcolourproject_2stim_asymm_v5,2020.2.10,Win32,60,61025ae37ef11b136ea224fe,,,,,,,,,3893,124,65,1,0,0,response1disk,,6,-1,14,1,0,0,rectangle,-1,14,1,0,0,-1,14,1,0,0,1,53,213,140,1,,,,,,,,
,,,,,,,,,,,,,FF,,,,,,,,7.5342,,,,,,,,,,,,,,,,,,,,,,60ff447048f1d7c26cfcdefa,61036fb6c799215fa2f5a2a9,2021-07-30_15h28.36.283,Simcolourproject_2stim_asymm_v5,2020.2.10,Win32,60,61025ae37ef11b136ea224fe,,,,,,,,,3098,55,-113,1,0,0,response3disk,,4,-14,-2,1,0,0,rectangle,-14,-2,1,0,0,-14,-2,1,0,0,1,54,214,123,1,,,,,,,,
,,,,,,,,,,,,,FF,,,,,,,,1.6823,,,,,,,,,,,,,,,,,,,,,,60ff447048f1d7c26cfcdefa,61036fb6c799215fa2f5a2a9,2021-07-30_15h28.36.283,Simcolourproject_2stim_asymm_v5,2020.2.10,Win32,60,61025ae37ef11b136ea224fe,,,,,,,,,4031,44,-118,1,0,0,response3disk,,4,6,-10,1,0,0,rectangle,6,-10,1,0,0,6,-10,1,0,0,1,55,215,154,1,,,,,,,,
,,,,,,,,,,,,,FF,,,,,,,,0.6816,,,,,,,,,,,,,,,,,,,,,,60ff447048f1d7c26cfcdefa,61036fb6c799215fa2f5a2a9,2021-07-30_15h28.36.283,Simcolourproject_2stim_asymm_v5,2020.2.10,Win32,60,61025ae37ef11b136ea224fe,,,,,,,,,1061,-77,-101,1,0,0,response5disk,,3,-8,8,1,0,0,rectangle,-8,8,1,0,0,-8,8,1,0,0,1,56,216,101,1,,,,,,,,
,,,,,,,,,,,,,FF,,,,,,,,0.5,,,,,,,,,,,,,,,,,,,,,,60ff447048f1d7c26cfcdefa,61036fb6c799215fa2f5a2a9,2021-07-30_15h28.36.283,Simcolourproject_2stim_asymm_v5,2020.2.10,Win32,60,61025ae37ef11b136ea224fe,,,,,,,,,1673,-79,-110,1,0,0,response5disk,,3,-15,-4,1,0,0,rectangle,-15,-4,1,0,0,-15,-4,1,0,0,1,57,217,84,1,,,,,,,,
,,,,,,,,,,,,,FF,,,,,,,,0.9168,,,,,,,,,,,,,,,,,,,,,,60ff447048f1d7c26cfcdefa,61036fb6c799215fa2f5a2a9,2021-07-30_15h28.36.283,Simcolourproject_2stim_asymm_v5,2020.2.10,Win32,60,61025ae37ef11b136ea224fe,,,,,,,,,128,113,-74,1,0,0,response3disk,,5,-12,5,1,0,0,rectangle,-12,5,1,0,0,-12,5,1,0,0,1,58,218,81,1,,,,,,,,
,,,,,,,,,,,,,FF,,,,,,,,0.9004,,,,,,,,,,,,,,,,,,,,,,60ff447048f1d7c26cfcdefa,61036fb6c799215fa2f5a2a9,2021-07-30_15h28.36.283,Simcolourproject_2stim_asymm_v5,2020.2.10,Win32,60,61025ae37ef11b136ea224fe,,,,,,,,,2196,53,92,1,0,0,response1disk,,7,9,4,1,0,0,rectangle,9,4,1,0,0,9,4,1,0,0,1,59,219,116,1,,,,,,,,
,,,,,,,,,,,,,FF,,,,,,,,0.8166,,,,,,,,,,,,,,,,,,,,,,60ff447048f1d7c26cfcdefa,61036fb6c799215fa2f5a2a9,2021-07-30_15h28.36.283,Simcolourproject_2stim_asymm_v5,2020.2.10,Win32,60,61025ae37ef11b136ea224fe,,,,,,,,,3318,50,96,1,0,0,response1disk,,7,-5,-2,1,0,0,rectangle,-5,-2,1,0,0,-5,-2,1,0,0,1,60,220,125,1,,,,,,,,
,,,,,,,,,,,,,FF,,,,,,,,0.9326,,,,,,,,,,,,,,,,,,,,,,60ff447048f1d7c26cfcdefa,61036fb6c799215fa2f5a2a9,2021-07-30_15h28.36.283,Simcolourproject_2stim_asymm_v5,2020.2.10,Win32,60,61025ae37ef11b136ea224fe,,,,,,,,,218,92,-46,1,0,0,response3disk,,5,-2,-2,1,0,0,rectangle,-2,-2,1,0,0,-2,-2,1,0,0,1,61,221,153,1,,,,,,,,
,,,,,,,,,,,,,FF,,,,,,,,1.5336,,,,,,,,,,,,,,,,,,,,,,60ff447048f1d7c26cfcdefa,61036fb6c799215fa2f5a2a9,2021-07-30_15h28.36.283,Simcolourproject_2stim_asymm_v5,2020.2.10,Win32,60,61025ae37ef11b136ea224fe,,,,,,,,,96,-50,-97,1,0,0,response5disk,,3,-27,-11,1,0,0,rectangle,-27,-11,1,0,0,-27,-11,1,0,0,1,62,222,48,1,,,,,,,,
,,,,,,,,,,,,,FF,,,,,,,,1.018,,,,,,,,,,,,,,,,,,,,,,60ff447048f1d7c26cfcdefa,61036fb6c799215fa2f5a2a9,2021-07-30_15h28.36.283,Simcolourproject_2stim_asymm_v5,2020.2.10,Win32,60,61025ae37ef11b136ea224fe,,,,,,,,,1449,-55,-103,1,0,0,response5disk,,3,-27,-9,1,0,0,rectangle,-27,-9,1,0,0,-27,-9,1,0,0,1,63,223,1,1,,,,,,,,
,,,,,,,,,,,,,FF,,,,,,,,0.8841,,,,,,,,,,,,,,,,,,,,,,60ff447048f1d7c26cfcdefa,61036fb6c799215fa2f5a2a9,2021-07-30_15h28.36.283,Simcolourproject_2stim_asymm_v5,2020.2.10,Win32,60,61025ae37ef11b136ea224fe,,,,,,,,,2175,48,-115,1,0,0,response3disk,,4,9,-4,1,0,0,rectangle,9,-4,1,0,0,9,-4,1,0,0,1,64,224,68,1,,,,,,,,
,,,,,,,,,,,,,FF,,,,,,,,1.45,,,,,,,,,,,,,,,,,,,,,,60ff447048f1d7c26cfcdefa,61036fb6c799215fa2f5a2a9,2021-07-30_15h28.36.283,Simcolourproject_2stim_asymm_v5,2020.2.10,Win32,60,61025ae37ef11b136ea224fe,,,,,,,,,3881,105,-50,1,0,0,response3disk,,5,-2,-3,1,0,0,rectangle,-2,-3,1,0,0,-2,-3,1,0,0,1,65,225,147,1,,,,,,,,
,,,,,,,,,,,,,FF,,,,,,,,0.8169,,,,,,,,,,,,,,,,,,,,,,60ff447048f1d7c26cfcdefa,61036fb6c799215fa2f5a2a9,2021-07-30_15h28.36.283,Simcolourproject_2stim_asymm_v5,2020.2.10,Win32,60,61025ae37ef11b136ea224fe,,,,,,,,,2919,38,77,1,0,0,response1disk,,7,-12,-3,1,0,0,rectangle,-12,-3,1,0,0,-12,-3,1,0,0,1,66,226,159,1,,,,,,,,
,,,,,,,,,,,,,FF,,,,,,,,1.0335,,,,,,,,,,,,,,,,,,,,,,60ff447048f1d7c26cfcdefa,61036fb6c799215fa2f5a2a9,2021-07-30_15h28.36.283,Simcolourproject_2stim_asymm_v5,2020.2.10,Win32,60,61025ae37ef11b136ea224fe,,,,,,,,,690,53,85,1,0,0,response1disk,,7,39,-7,1,0,0,rectangle,39,-7,1,0,0,39,-7,1,0,0,1,67,227,24,1,,,,,,,,
,,,,,,,,,,,,,FF,,,,,,,,0.6002,,,,,,,,,,,,,,,,,,,,,,60ff447048f1d7c26cfcdefa,61036fb6c799215fa2f5a2a9,2021-07-30_15h28.36.283,Simcolourproject_2stim_asymm_v5,2020.2.10,Win32,60,61025ae37ef11b136ea224fe,,,,,,,,,2630,33,86,1,0,0,response1disk,,7,-12,9,1,0,0,rectangle,-12,9,1,0,0,-12,9,1,0,0,1,68,228,52,1,,,,,,,,
,,,,,,,,,,,,,FF,,,,,,,,0.8172,,,,,,,,,,,,,,,,,,,,,,60ff447048f1d7c26cfcdefa,61036fb6c799215fa2f5a2a9,2021-07-30_15h28.36.283,Simcolourproject_2stim_asymm_v5,2020.2.10,Win32,60,61025ae37ef11b136ea224fe,,,,,,,,,958,47,-70,1,0,0,response3disk,,4,-18,-2,1,0,0,rectangle,-18,-2,1,0,0,-18,-2,1,0,0,1,69,229,6,1,,,,,,,,
,,,,,,,,,,,,,FF,,,,,,,,0.7004,,,,,,,,,,,,,,,,,,,,,,60ff447048f1d7c26cfcdefa,61036fb6c799215fa2f5a2a9,2021-07-30_15h28.36.283,Simcolourproject_2stim_asymm_v5,2020.2.10,Win32,60,61025ae37ef11b136ea224fe,,,,,,,,,3979,-44,-74,1,0,0,response5disk,,3,27,15,1,0,0,rectangle,27,15,1,0,0,27,15,1,0,0,1,70,230,28,1,,,,,,,,
,,,,,,,,,,,,,FF,,,,,,,,1.5169,,,,,,,,,,,,,,,,,,,,,,60ff447048f1d7c26cfcdefa,61036fb6c799215fa2f5a2a9,2021-07-30_15h28.36.283,Simcolourproject_2stim_asymm_v5,2020.2.10,Win32,60,61025ae37ef11b136ea224fe,,,,,,,,,736,53,-97,1,0,0,response3disk,,4,1,3,1,0,0,rectangle,1,3,1,0,0,1,3,1,0,0,1,71,231,148,1,,,,,,,,
,,,,,,,,,,,,,FF,,,,,,,,0.7338,,,,,,,,,,,,,,,,,,,,,,60ff447048f1d7c26cfcdefa,61036fb6c799215fa2f5a2a9,2021-07-30_15h28.36.283,Simcolourproject_2stim_asymm_v5,2020.2.10,Win32,60,61025ae37ef11b136ea224fe,,,,,,,,,231,81,-48,1,0,0,response3disk,,5,0,11,1,0,0,rectangle,0,11,1,0,0,0,11,1,0,0,1,72,232,136,1,,,,,,,,
,,,,,,,,,,,,,FF,,,,,,,,0.8329,,,,,,,,,,,,,,,,,,,,,,60ff447048f1d7c26cfcdefa,61036fb6c799215fa2f5a2a9,2021-07-30_15h28.36.283,Simcolourproject_2stim_asymm_v5,2020.2.10,Win32,60,61025ae37ef11b136ea224fe,,,,,,,,,1914,107,-37,1,0,0,response3disk,,5,16,9,1,0,0,rectangle,16,9,1,0,0,16,9,1,0,0,1,73,233,96,1,,,,,,,,
,,,,,,,,,,,,,FF,,,,,,,,0.4003,,,,,,,,,,,,,,,,,,,,,,60ff447048f1d7c26cfcdefa,61036fb6c799215fa2f5a2a9,2021-07-30_15h28.36.283,Simcolourproject_2stim_asymm_v5,2020.2.10,Win32,60,61025ae37ef11b136ea224fe,,,,,,,,,1325,114,-68,1,0,0,response3disk,,5,6,1,1,0,0,rectangle,-88,55,1,0,0,-16,-5,1,0,0,1,74,234,32,1,,response7disk_3,TRUE,1,1,"[180,89,6,57,315,281,101,154,235,20,271,308,169,157,205,142,200,145,253,86]",1.0003,rectangle
,,,,,,,,,,,,,FF,,,,,,,,3.2488,,,,,,,,,,,,,,,,,,,,,,60ff447048f1d7c26cfcdefa,61036fb6c799215fa2f5a2a9,2021-07-30_15h28.36.283,Simcolourproject_2stim_asymm_v5,2020.2.10,Win32,60,61025ae37ef11b136ea224fe,,,,,,,,,2695,86,-122,1,0,0,response3disk,,4,-2,-14,1,0,0,rectangle,-2,-14,1,0,0,-2,-14,1,0,0,1,75,235,41,1,,,,,,,,
,,,,,,,,,,,,,FF,,,,,,,,0.8513,,,,,,,,,,,,,,,,,,,,,,60ff447048f1d7c26cfcdefa,61036fb6c799215fa2f5a2a9,2021-07-30_15h28.36.283,Simcolourproject_2stim_asymm_v5,2020.2.10,Win32,60,61025ae37ef11b136ea224fe,,,,,,,,,4222,-127,-71,1,0,0,response5disk,,2,-28,0,1,0,0,rectangle,-28,0,1,0,0,-28,0,1,0,0,1,76,236,15,1,,,,,,,,
,,,,,,,,,,,,,FF,,,,,,,,0.532,,,,,,,,,,,,,,,,,,,,,,60ff447048f1d7c26cfcdefa,61036fb6c799215fa2f5a2a9,2021-07-30_15h28.36.283,Simcolourproject_2stim_asymm_v5,2020.2.10,Win32,60,61025ae37ef11b136ea224fe,,,,,,,,,4165,-112,-63,1,0,0,response5disk,,2,-8,2,1,0,0,rectangle,-8,2,1,0,0,-8,2,1,0,0,1,77,237,78,1,,,,,,,,
,,,,,,,,,,,,,FF,,,,,,,,0.6704,,,,,,,,,,,,,,,,,,,,,,60ff447048f1d7c26cfcdefa,61036fb6c799215fa2f5a2a9,2021-07-30_15h28.36.283,Simcolourproject_2stim_asymm_v5,2020.2.10,Win32,60,61025ae37ef11b136ea224fe,,,,,,,,,1984,66,-90,1,0,0,response3disk,,4,2,10,1,0,0,rectangle,2,10,1,0,0,2,10,1,0,0,1,78,238,134,1,,,,,,,,
,,,,,,,,,,,,,FF,,,,,,,,0.5492,,,,,,,,,,,,,,,,,,,,,,60ff447048f1d7c26cfcdefa,61036fb6c799215fa2f5a2a9,2021-07-30_15h28.36.283,Simcolourproject_2stim_asymm_v5,2020.2.10,Win32,60,61025ae37ef11b136ea224fe,,,,,,,,,2979,104,-50,1,0,0,response3disk,,5,17,5,1,0,0,rectangle,17,5,1,0,0,17,5,1,0,0,1,79,239,17,1,,,,,,,,
,,,,,,,,,,,,,FF,,,,,,,,1.2356,,,,,,,,,,,,,,,,,,,,,,60ff447048f1d7c26cfcdefa,61036fb6c799215fa2f5a2a9,2021-07-30_15h28.36.283,Simcolourproject_2stim_asymm_v5,2020.2.10,Win32,60,61025ae37ef11b136ea224fe,,,,,,,,,3041,131,-59,1,0,0,response3disk,,5,-2,1,1,0,0,rectangle,-2,1,1,0,0,-2,1,1,0,0,1,80,240,115,1,,,,,,,,
,,,,,,,,,,,,,FF,,,,,,,,1.0174,,,,,,,,,,,,,,,,,,,,,,60ff447048f1d7c26cfcdefa,61036fb6c799215fa2f5a2a9,2021-07-30_15h28.36.283,Simcolourproject_2stim_asymm_v5,2020.2.10,Win32,60,61025ae37ef11b136ea224fe,,,,,,,,,1713,52,101,1,0,0,response1disk,,7,2,6,1,0,0,rectangle,2,6,1,0,0,2,6,1,0,0,1,81,241,50,1,,,,,,,,
,,,,,,,,,,,,,FF,,,,,,,,0.9517,,,,,,,,,,,,,,,,,,,,,,60ff447048f1d7c26cfcdefa,61036fb6c799215fa2f5a2a9,2021-07-30_15h28.36.283,Simcolourproject_2stim_asymm_v5,2020.2.10,Win32,60,61025ae37ef11b136ea224fe,,,,,,,,,221,49,-85,1,0,0,response3disk,,4,19,17,1,0,0,rectangle,19,17,1,0,0,19,17,1,0,0,1,82,242,76,1,,,,,,,,
,,,,,,,,,,,,,FF,,,,,,,,0.6354,,,,,,,,,,,,,,,,,,,,,,60ff447048f1d7c26cfcdefa,61036fb6c799215fa2f5a2a9,2021-07-30_15h28.36.283,Simcolourproject_2stim_asymm_v5,2020.2.10,Win32,60,61025ae37ef11b136ea224fe,,,,,,,,,1660,87,-42,1,0,0,response3disk,,5,-10,9,1,0,0,rectangle,-10,9,1,0,0,-10,9,1,0,0,1,83,243,57,1,,,,,,,,
,,,,,,,,,,,,,FF,,,,,,,,0.8159,,,,,,,,,,,,,,,,,,,,,,60ff447048f1d7c26cfcdefa,61036fb6c799215fa2f5a2a9,2021-07-30_15h28.36.283,Simcolourproject_2stim_asymm_v5,2020.2.10,Win32,60,61025ae37ef11b136ea224fe,,,,,,,,,1299,-74,-97,1,0,0,response5disk,,3,-11,-11,1,0,0,rectangle,-11,-11,1,0,0,-11,-11,1,0,0,1,84,244,19,1,,,,,,,,
,,,,,,,,,,,,,FF,,,,,,,,0.7505,,,,,,,,,,,,,,,,,,,,,,60ff447048f1d7c26cfcdefa,61036fb6c799215fa2f5a2a9,2021-07-30_15h28.36.283,Simcolourproject_2stim_asymm_v5,2020.2.10,Win32,60,61025ae37ef11b136ea224fe,,,,,,,,,273,64,-81,1,0,0,response3disk,,4,8,-8,1,0,0,rectangle,8,-8,1,0,0,8,-8,1,0,0,1,85,245,34,1,,,,,,,,
,,,,,,,,,,,,,FF,,,,,,,,1.6682,,,,,,,,,,,,,,,,,,,,,,60ff447048f1d7c26cfcdefa,61036fb6c799215fa2f5a2a9,2021-07-30_15h28.36.283,Simcolourproject_2stim_asymm_v5,2020.2.10,Win32,60,61025ae37ef11b136ea224fe,,,,,,,,,2227,43,-113,1,0,0,response3disk,,4,-34,-2,1,0,0,rectangle,-34,-2,1,0,0,-34,-2,1,0,0,1,86,246,42,1,,,,,,,,
,,,,,,,,,,,,,FF,,,,,,,,1.6757,,,,,,,,,,,,,,,,,,,,,,60ff447048f1d7c26cfcdefa,61036fb6c799215fa2f5a2a9,2021-07-30_15h28.36.283,Simcolourproject_2stim_asymm_v5,2020.2.10,Win32,60,61025ae37ef11b136ea224fe,,,,,,,,,3518,-34,-79,1,0,0,response5disk,,3,-17,2,1,0,0,rectangle,-17,2,1,0,0,-17,2,1,0,0,1,87,247,47,1,,,,,,,,
,,,,,,,,,,,,,FF,,,,,,,,1.0006,,,,,,,,,,,,,,,,,,,,,,60ff447048f1d7c26cfcdefa,61036fb6c799215fa2f5a2a9,2021-07-30_15h28.36.283,Simcolourproject_2stim_asymm_v5,2020.2.10,Win32,60,61025ae37ef11b136ea224fe,,,,,,,,,554,-114,-43,1,0,0,response5disk,,2,-25,-9,1,0,0,rectangle,-25,-9,1,0,0,-25,-9,1,0,0,1,88,248,89,1,,,,,,,,
,,,,,,,,,,,,,FF,,,,,,,,1.2993,,,,,,,,,,,,,,,,,,,,,,60ff447048f1d7c26cfcdefa,61036fb6c799215fa2f5a2a9,2021-07-30_15h28.36.283,Simcolourproject_2stim_asymm_v5,2020.2.10,Win32,60,61025ae37ef11b136ea224fe,,,,,,,,,3376,78,-38,1,0,0,response3disk,,5,15,19,1,0,0,rectangle,15,19,1,0,0,15,19,1,0,0,1,89,249,72,1,,,,,,,,
,,,,,,,,,,,,,FF,,,,,,,,1.2509,,,,,,,,,,,,,,,,,,,,,,60ff447048f1d7c26cfcdefa,61036fb6c799215fa2f5a2a9,2021-07-30_15h28.36.283,Simcolourproject_2stim_asymm_v5,2020.2.10,Win32,60,61025ae37ef11b136ea224fe,,,,,,,,,2544,-59,-88,1,0,0,response5disk,,3,-13,9,1,0,0,rectangle,-13,9,1,0,0,-13,9,1,0,0,1,90,250,40,1,,,,,,,,
,,,,,,,,,,,,,FF,,,,,,,,0.6682,,,,,,,,,,,,,,,,,,,,,,60ff447048f1d7c26cfcdefa,61036fb6c799215fa2f5a2a9,2021-07-30_15h28.36.283,Simcolourproject_2stim_asymm_v5,2020.2.10,Win32,60,61025ae37ef11b136ea224fe,,,,,,,,,1066,29,-66,1,0,0,response3disk,,4,14,0,1,0,0,rectangle,14,0,1,0,0,14,0,1,0,0,1,91,251,109,1,,,,,,,,
,,,,,,,,,,,,,FF,,,,,,,,3.9988,,,,,,,,,,,,,,,,,,,,,,60ff447048f1d7c26cfcdefa,61036fb6c799215fa2f5a2a9,2021-07-30_15h28.36.283,Simcolourproject_2stim_asymm_v5,2020.2.10,Win32,60,61025ae37ef11b136ea224fe,,,,,,,,,2115,105,-63,1,0,0,response3disk,,5,25,-2,1,0,0,rectangle,39,-66,1,0,0,12,12,1,0,0,1,92,252,139,1,,response3disk_3,TRUE,4,6,"[180,89,6,57,315,281,101,154,235,20,271,308,169,157,205,142,200,145,253,86]",12.4667,rectangle
,,,,,,,,,,,,,FF,,,,,,,,0.7503,,,,,,,,,,,,,,,,,,,,,,60ff447048f1d7c26cfcdefa,61036fb6c799215fa2f5a2a9,2021-07-30_15h28.36.283,Simcolourproject_2stim_asymm_v5,2020.2.10,Win32,60,61025ae37ef11b136ea224fe,,,,,,,,,2820,123,-49,1,0,0,response3disk,,5,-1,10,1,0,0,rectangle,-1,10,1,0,0,-1,10,1,0,0,1,93,253,31,1,,,,,,,,
,,,,,,,,,,,,,FF,,,,,,,,7.867,,,,,,,,,,,,,,,,,,,,,,60ff447048f1d7c26cfcdefa,61036fb6c799215fa2f5a2a9,2021-07-30_15h28.36.283,Simcolourproject_2stim_asymm_v5,2020.2.10,Win32,60,61025ae37ef11b136ea224fe,,,,,,,,,1422,60,-94,1,0,0,response3disk,,4,-17,-15,1,0,0,rectangle,-17,-15,1,0,0,-17,-15,1,0,0,1,94,254,113,1,,,,,,,,
,,,,,,,,,,,,,FF,,,,,,,,0.6832,,,,,,,,,,,,,,,,,,,,,,60ff447048f1d7c26cfcdefa,61036fb6c799215fa2f5a2a9,2021-07-30_15h28.36.283,Simcolourproject_2stim_asymm_v5,2020.2.10,Win32,60,61025ae37ef11b136ea224fe,,,,,,,,,4335,-67,116,1,0,0,response7disk,,0,-4,13,1,0,0,rectangle,-4,13,1,0,0,-4,13,1,0,0,1,95,255,150,1,,,,,,,,
,,,,,,,,,,,,,FF,,,,,,,,1.416,,,,,,,,,,,,,,,,,,,,,,60ff447048f1d7c26cfcdefa,61036fb6c799215fa2f5a2a9,2021-07-30_15h28.36.283,Simcolourproject_2stim_asymm_v5,2020.2.10,Win32,60,61025ae37ef11b136ea224fe,,,,,,,,,822,-28,-88,1,0,0,response5disk,,3,7,-12,1,0,0,rectangle,7,-12,1,0,0,7,-12,1,0,0,1,96,256,22,1,,,,,,,,
,,,,,,,,,,,,,FF,,,,,,,,1.0167,,,,,,,,,,,,,,,,,,,,,,60ff447048f1d7c26cfcdefa,61036fb6c799215fa2f5a2a9,2021-07-30_15h28.36.283,Simcolourproject_2stim_asymm_v5,2020.2.10,Win32,60,61025ae37ef11b136ea224fe,,,,,,,,,2403,42,-83,1,0,0,response3disk,,4,8,5,1,0,0,rectangle,8,5,1,0,0,8,5,1,0,0,1,97,257,137,1,,,,,,,,
,,,,,,,,,,,,,FF,,,,,,,,0.5836,,,,,,,,,,,,,,,,,,,,,,60ff447048f1d7c26cfcdefa,61036fb6c799215fa2f5a2a9,2021-07-30_15h28.36.283,Simcolourproject_2stim_asymm_v5,2020.2.10,Win32,60,61025ae37ef11b136ea224fe,,,,,,,,,1711,47,95,1,0,0,response1disk,,7,8,7,1,0,0,rectangle,8,7,1,0,0,8,7,1,0,0,1,98,258,56,1,,,,,,,,
,,,,,,,,,,,,,FF,,,,,,,,0.6004,,,,,,,,,,,,,,,,,,,,,,60ff447048f1d7c26cfcdefa,61036fb6c799215fa2f5a2a9,2021-07-30_15h28.36.283,Simcolourproject_2stim_asymm_v5,2020.2.10,Win32,60,61025ae37ef11b136ea224fe,,,,,,,,,1123,25,78,1,0,0,response1disk,,7,-4,11,1,0,0,rectangle,-4,11,1,0,0,-4,11,1,0,0,1,99,259,16,1,,,,,,,,
,,,,,,,,,,,,,FF,,,,,,,,0.75,,,,,,,,,,,,,,,,,,,,,,60ff447048f1d7c26cfcdefa,61036fb6c799215fa2f5a2a9,2021-07-30_15h28.36.283,Simcolourproject_2stim_asymm_v5,2020.2.10,Win32,60,61025ae37ef11b136ea224fe,,,,,,,,,1656,52,92,1,0,0,response1disk,,7,19,13,1,0,0,rectangle,19,13,1,0,0,19,13,1,0,0,1,100,260,130,1,,,,,,,,
,,,,,,,,,,,,,FF,,,,,,,,0.5504,,,,,,,,,,,,,,,,,,,,,,60ff447048f1d7c26cfcdefa,61036fb6c799215fa2f5a2a9,2021-07-30_15h28.36.283,Simcolourproject_2stim_asymm_v5,2020.2.10,Win32,60,61025ae37ef11b136ea224fe,,,,,,,,,2445,57,94,1,0,0,response1disk,,7,-4,-20,1,0,0,rectangle,-4,-20,1,0,0,-4,-20,1,0,0,1,101,261,55,1,,,,,,,,
,,,,,,,,,,,,,FF,,,,,,,,1.0336,,,,,,,,,,,,,,,,,,,,,,60ff447048f1d7c26cfcdefa,61036fb6c799215fa2f5a2a9,2021-07-30_15h28.36.283,Simcolourproject_2stim_asymm_v5,2020.2.10,Win32,60,61025ae37ef11b136ea224fe,,,,,,,,,865,80,-37,1,0,0,response3disk,,5,-11,-5,1,0,0,rectangle,-11,-5,1,0,0,-11,-5,1,0,0,1,102,262,118,1,,,,,,,,
,,,,,,,,,,,,,FF,,,,,,,,0.8337,,,,,,,,,,,,,,,,,,,,,,60ff447048f1d7c26cfcdefa,61036fb6c799215fa2f5a2a9,2021-07-30_15h28.36.283,Simcolourproject_2stim_asymm_v5,2020.2.10,Win32,60,61025ae37ef11b136ea224fe,,,,,,,,,856,32,67,1,0,0,response1disk,,7,6,0,1,0,0,rectangle,6,0,1,0,0,6,0,1,0,0,1,103,263,151,1,,,,,,,,
,,,,,,,,,,,,,FF,,,,,,,,0.6675,,,,,,,,,,,,,,,,,,,,,,60ff447048f1d7c26cfcdefa,61036fb6c799215fa2f5a2a9,2021-07-30_15h28.36.283,Simcolourproject_2stim_asymm_v5,2020.2.10,Win32,60,61025ae37ef11b136ea224fe,,,,,,,,,454,57,85,1,0,0,response1disk,,7,9,12,1,0,0,rectangle,9,12,1,0,0,9,12,1,0,0,1,104,264,67,1,,,,,,,,
,,,,,,,,,,,,,FF,,,,,,,,0.7168,,,,,,,,,,,,,,,,,,,,,,60ff447048f1d7c26cfcdefa,61036fb6c799215fa2f5a2a9,2021-07-30_15h28.36.283,Simcolourproject_2stim_asymm_v5,2020.2.10,Win32,60,61025ae37ef11b136ea224fe,,,,,,,,,4214,34,73,1,0,0,response1disk,,7,0,11,1,0,0,rectangle,0,11,1,0,0,0,11,1,0,0,1,105,265,71,1,,,,,,,,
,,,,,,,,,,,,,FF,,,,,,,,1.4002,,,,,,,,,,,,,,,,,,,,,,60ff447048f1d7c26cfcdefa,61036fb6c799215fa2f5a2a9,2021-07-30_15h28.36.283,Simcolourproject_2stim_asymm_v5,2020.2.10,Win32,60,61025ae37ef11b136ea224fe,,,,,,,,,941,74,30,1,0,0,response1disk,,6,10,-14,1,0,0,rectangle,10,-14,1,0,0,10,-14,1,0,0,1,106,266,51,1,,,,,,,,
,,,,,,,,,,,,,FF,,,,,,,,0.967,,,,,,,,,,,,,,,,,,,,,,60ff447048f1d7c26cfcdefa,61036fb6c799215fa2f5a2a9,2021-07-30_15h28.36.283,Simcolourproject_2stim_asymm_v5,2020.2.10,Win32,60,61025ae37ef11b136ea224fe,,,,,,,,,1793,95,-43,1,0,0,response3disk,,5,-8,-5,1,0,0,rectangle,-8,-5,1,0,0,-8,-5,1,0,0,1,107,267,4,1,,,,,,,,
,,,,,,,,,,,,,FF,,,,,,,,0.7171,,,,,,,,,,,,,,,,,,,,,,60ff447048f1d7c26cfcdefa,61036fb6c799215fa2f5a2a9,2021-07-30_15h28.36.283,Simcolourproject_2stim_asymm_v5,2020.2.10,Win32,60,61025ae37ef11b136ea224fe,,,,,,,,,4265,41,117,1,0,0,response1disk,,7,-10,1,1,0,0,rectangle,-10,1,1,0,0,-10,1,1,0,0,1,108,268,99,1,,,,,,,,
,,,,,,,,,,,,,FF,,,,,,,,0.8499,,,,,,,,,,,,,,,,,,,,,,60ff447048f1d7c26cfcdefa,61036fb6c799215fa2f5a2a9,2021-07-30_15h28.36.283,Simcolourproject_2stim_asymm_v5,2020.2.10,Win32,60,61025ae37ef11b136ea224fe,,,,,,,,,263,-109,-56,1,0,0,response5disk,,2,-10,-6,1,0,0,rectangle,-10,-6,1,0,0,-10,-6,1,0,0,1,109,269,119,1,,,,,,,,
,,,,,,,,,,,,,FF,,,,,,,,1.2667,,,,,,,,,,,,,,,,,,,,,,60ff447048f1d7c26cfcdefa,61036fb6c799215fa2f5a2a9,2021-07-30_15h28.36.283,Simcolourproject_2stim_asymm_v5,2020.2.10,Win32,60,61025ae37ef11b136ea224fe,,,,,,,,,1222,36,-84,1,0,0,response3disk,,4,-13,10,1,0,0,rectangle,-121,-57,1,0,0,-11,0,1,0,0,1,110,270,122,1,,response5disk_3,TRUE,2,2,"[180,89,6,57,315,281,101,154,235,20,271,308,169,157,205,142,200,145,253,86]",1.266,rectangle
,,,,,,,,,,,,,FF,,,,,,,,1.2667,,,,,,,,,,,,,,,,,,,,,,60ff447048f1d7c26cfcdefa,61036fb6c799215fa2f5a2a9,2021-07-30_15h28.36.283,Simcolourproject_2stim_asymm_v5,2020.2.10,Win32,60,61025ae37ef11b136ea224fe,,,,,,,,,4278,95,-103,1,0,0,response3disk,,4,-2,5,1,0,0,rectangle,-2,5,1,0,0,-2,5,1,0,0,1,111,271,133,1,,,,,,,,
,,,,,,,,,,,,,FF,,,,,,,,0.8681,,,,,,,,,,,,,,,,,,,,,,60ff447048f1d7c26cfcdefa,61036fb6c799215fa2f5a2a9,2021-07-30_15h28.36.283,Simcolourproject_2stim_asymm_v5,2020.2.10,Win32,60,61025ae37ef11b136ea224fe,,,,,,,,,2596,68,-100,1,0,0,response3disk,,4,8,4,1,0,0,rectangle,8,4,1,0,0,8,4,1,0,0,1,112,272,86,1,,,,,,,,
,,,,,,,,,,,,,FF,,,,,,,,0.5501,,,,,,,,,,,,,,,,,,,,,,60ff447048f1d7c26cfcdefa,61036fb6c799215fa2f5a2a9,2021-07-30_15h28.36.283,Simcolourproject_2stim_asymm_v5,2020.2.10,Win32,60,61025ae37ef11b136ea224fe,,,,,,,,,1705,42,-70,1,0,0,response3disk,,4,-2,7,1,0,0,rectangle,-2,7,1,0,0,-2,7,1,0,0,1,113,273,152,1,,,,,,,,
,,,,,,,,,,,,,FF,,,,,,,,0.717,,,,,,,,,,,,,,,,,,,,,,60ff447048f1d7c26cfcdefa,61036fb6c799215fa2f5a2a9,2021-07-30_15h28.36.283,Simcolourproject_2stim_asymm_v5,2020.2.10,Win32,60,61025ae37ef11b136ea224fe,,,,,,,,,3249,-40,-95,1,0,0,response5disk,,3,18,0,1,0,0,rectangle,18,0,1,0,0,18,0,1,0,0,1,114,274,105,1,,,,,,,,
,,,,,,,,,,,,,FF,,,,,,,,0.8169,,,,,,,,,,,,,,,,,,,,,,60ff447048f1d7c26cfcdefa,61036fb6c799215fa2f5a2a9,2021-07-30_15h28.36.283,Simcolourproject_2stim_asymm_v5,2020.2.10,Win32,60,61025ae37ef11b136ea224fe,,,,,,,,,3160,44,-99,1,0,0,response3disk,,4,0,1,1,0,0,rectangle,0,1,1,0,0,0,1,1,0,0,1,115,275,131,1,,,,,,,,
,,,,,,,,,,,,,FF,,,,,,,,0.6172,,,,,,,,,,,,,,,,,,,,,,60ff447048f1d7c26cfcdefa,61036fb6c799215fa2f5a2a9,2021-07-30_15h28.36.283,Simcolourproject_2stim_asymm_v5,2020.2.10,Win32,60,61025ae37ef11b136ea224fe,,,,,,,,,1863,42,-81,1,0,0,response3disk,,4,-4,2,1,0,0,rectangle,-4,2,1,0,0,-4,2,1,0,0,1,116,276,155,1,,,,,,,,
,,,,,,,,,,,,,FF,,,,,,,,1.1671,,,,,,,,,,,,,,,,,,,,,,60ff447048f1d7c26cfcdefa,61036fb6c799215fa2f5a2a9,2021-07-30_15h28.36.283,Simcolourproject_2stim_asymm_v5,2020.2.10,Win32,60,61025ae37ef11b136ea224fe,,,,,,,,,4008,37,-77,1,0,0,response3disk,,4,-14,2,1,0,0,rectangle,-14,2,1,0,0,-14,2,1,0,0,1,117,277,30,1,,,,,,,,
,,,,,,,,,,,,,FF,,,,,,,,0.6335,,,,,,,,,,,,,,,,,,,,,,60ff447048f1d7c26cfcdefa,61036fb6c799215fa2f5a2a9,2021-07-30_15h28.36.283,Simcolourproject_2stim_asymm_v5,2020.2.10,Win32,60,61025ae37ef11b136ea224fe,,,,,,,,,1706,56,92,1,0,0,response1disk,,7,1,10,1,0,0,rectangle,1,10,1,0,0,1,10,1,0,0,1,118,278,46,1,,,,,,,,
,,,,,,,,,,,,,FF,,,,,,,,0.5504,,,,,,,,,,,,,,,,,,,,,,60ff447048f1d7c26cfcdefa,61036fb6c799215fa2f5a2a9,2021-07-30_15h28.36.283,Simcolourproject_2stim_asymm_v5,2020.2.10,Win32,60,61025ae37ef11b136ea224fe,,,,,,,,,1007,45,73,1,0,0,response1disk,,7,12,11,1,0,0,rectangle,12,11,1,0,0,12,11,1,0,0,1,119,279,60,1,,,,,,,,
,,,,,,,,,,,,,FF,,,,,,,,0.517,,,,,,,,,,,,,,,,,,,,,,60ff447048f1d7c26cfcdefa,61036fb6c799215fa2f5a2a9,2021-07-30_15h28.36.283,Simcolourproject_2stim_asymm_v5,2020.2.10,Win32,60,61025ae37ef11b136ea224fe,,,,,,,,,1240,56,93,1,0,0,response1disk,,7,4,16,1,0,0,rectangle,-106,-56,1,0,0,-27,11,1,0,0,1,120,280,83,1,,response5disk_3,TRUE,2,2,"[180,89,6,57,315,281,101,154,235,20,271,308,169,157,205,142,200,145,253,86]",1.1669,rectangle
,,,,,,,,,,,,,FF,,,,,,,,1.6334,,,,,,,,,,,,,,,,,,,,,,60ff447048f1d7c26cfcdefa,61036fb6c799215fa2f5a2a9,2021-07-30_15h28.36.283,Simcolourproject_2stim_asymm_v5,2020.2.10,Win32,60,61025ae37ef11b136ea224fe,,,,,,,,,2515,33,83,1,0,0,response1disk,,7,-8,-9,1,0,0,rectangle,-8,-9,1,0,0,-8,-9,1,0,0,1,121,281,157,1,,,,,,,,
,,,,,,,,,,,,,FF,,,,,,,,1.1668,,,,,,,,,,,,,,,,,,,,,,60ff447048f1d7c26cfcdefa,61036fb6c799215fa2f5a2a9,2021-07-30_15h28.36.283,Simcolourproject_2stim_asymm_v5,2020.2.10,Win32,60,61025ae37ef11b136ea224fe,,,,,,,,,20,92,-56,1,0,0,response3disk,,5,-21,1,1,0,0,rectangle,-21,1,1,0,0,-21,1,1,0,0,1,122,282,145,1,,,,,,,,
,,,,,,,,,,,,,FF,,,,,,,,1.0502,,,,,,,,,,,,,,,,,,,,,,60ff447048f1d7c26cfcdefa,61036fb6c799215fa2f5a2a9,2021-07-30_15h28.36.283,Simcolourproject_2stim_asymm_v5,2020.2.10,Win32,60,61025ae37ef11b136ea224fe,,,,,,,,,899,48,-75,1,0,0,response3disk,,4,-14,-1,1,0,0,rectangle,-14,-1,1,0,0,-14,-1,1,0,0,1,123,283,3,1,,,,,,,,
,,,,,,,,,,,,,FF,,,,,,,,0.7503,,,,,,,,,,,,,,,,,,,,,,60ff447048f1d7c26cfcdefa,61036fb6c799215fa2f5a2a9,2021-07-30_15h28.36.283,Simcolourproject_2stim_asymm_v5,2020.2.10,Win32,60,61025ae37ef11b136ea224fe,,,,,,,,,2287,46,-82,1,0,0,response3disk,,4,-10,3,1,0,0,rectangle,-10,3,1,0,0,-10,3,1,0,0,1,124,284,53,1,,,,,,,,
,,,,,,,,,,,,,FF,,,,,,,,0.8666,,,,,,,,,,,,,,,,,,,,,,60ff447048f1d7c26cfcdefa,61036fb6c799215fa2f5a2a9,2021-07-30_15h28.36.283,Simcolourproject_2stim_asymm_v5,2020.2.10,Win32,60,61025ae37ef11b136ea224fe,,,,,,,,,4134,110,35,1,0,0,response1disk,,6,6,-4,1,0,0,rectangle,6,-4,1,0,0,6,-4,1,0,0,1,125,285,126,1,,,,,,,,
,,,,,,,,,,,,,FF,,,,,,,,0.7836,,,,,,,,,,,,,,,,,,,,,,60ff447048f1d7c26cfcdefa,61036fb6c799215fa2f5a2a9,2021-07-30_15h28.36.283,Simcolourproject_2stim_asymm_v5,2020.2.10,Win32,60,61025ae37ef11b136ea224fe,,,,,,,,,1635,116,33,1,0,0,response1disk,,6,-12,-1,1,0,0,rectangle,-12,-1,1,0,0,-12,-1,1,0,0,1,126,286,38,1,,,,,,,,
,,,,,,,,,,,,,FF,,,,,,,,0.5667,,,,,,,,,,,,,,,,,,,,,,60ff447048f1d7c26cfcdefa,61036fb6c799215fa2f5a2a9,2021-07-30_15h28.36.283,Simcolourproject_2stim_asymm_v5,2020.2.10,Win32,60,61025ae37ef11b136ea224fe,,,,,,,,,851,61,82,1,0,0,response1disk,,7,0,-1,1,0,0,rectangle,0,-1,1,0,0,0,-1,1,0,0,1,127,287,35,1,,,,,,,,
,,,,,,,,,,,,,FF,,,,,,,,0.9002,,,,,,,,,,,,,,,,,,,,,,60ff447048f1d7c26cfcdefa,61036fb6c799215fa2f5a2a9,2021-07-30_15h28.36.283,Simcolourproject_2stim_asymm_v5,2020.2.10,Win32,60,61025ae37ef11b136ea224fe,,,,,,,,,578,90,-43,1,0,0,response3disk,,5,-10,-16,1,0,0,rectangle,-10,-16,1,0,0,-10,-16,1,0,0,1,128,288,5,1,,,,,,,,
,,,,,,,,,,,,,FF,,,,,,,,0.8503,,,,,,,,,,,,,,,,,,,,,,60ff447048f1d7c26cfcdefa,61036fb6c799215fa2f5a2a9,2021-07-30_15h28.36.283,Simcolourproject_2stim_asymm_v5,2020.2.10,Win32,60,61025ae37ef11b136ea224fe,,,,,,,,,1689,51,-63,1,0,0,response3disk,,4,-14,3,1,0,0,rectangle,-14,3,1,0,0,-14,3,1,0,0,1,129,289,12,1,,,,,,,,
,,,,,,,,,,,,,FF,,,,,,,,0.9996,,,,,,,,,,,,,,,,,,,,,,60ff447048f1d7c26cfcdefa,61036fb6c799215fa2f5a2a9,2021-07-30_15h28.36.283,Simcolourproject_2stim_asymm_v5,2020.2.10,Win32,60,61025ae37ef11b136ea224fe,,,,,,,,,2637,108,-32,1,0,0,response3disk,,5,-8,8,1,0,0,rectangle,-8,8,1,0,0,-8,8,1,0,0,1,130,290,23,1,,,,,,,,
,,,,,,,,,,,,,FF,,,,,,,,0.6334,,,,,,,,,,,,,,,,,,,,,,60ff447048f1d7c26cfcdefa,61036fb6c799215fa2f5a2a9,2021-07-30_15h28.36.283,Simcolourproject_2stim_asymm_v5,2020.2.10,Win32,60,61025ae37ef11b136ea224fe,,,,,,,,,1608,-46,-77,1,0,0,response5disk,,3,4,2,1,0,0,rectangle,4,2,1,0,0,4,2,1,0,0,1,131,291,36,1,,,,,,,,
,,,,,,,,,,,,,FF,,,,,,,,1.0335,,,,,,,,,,,,,,,,,,,,,,60ff447048f1d7c26cfcdefa,61036fb6c799215fa2f5a2a9,2021-07-30_15h28.36.283,Simcolourproject_2stim_asymm_v5,2020.2.10,Win32,60,61025ae37ef11b136ea224fe,,,,,,,,,728,-49,-101,1,0,0,response5disk,,3,-1,2,1,0,0,rectangle,-1,2,1,0,0,-1,2,1,0,0,1,132,292,62,1,,,,,,,,
,,,,,,,,,,,,,FF,,,,,,,,1.4831,,,,,,,,,,,,,,,,,,,,,,60ff447048f1d7c26cfcdefa,61036fb6c799215fa2f5a2a9,2021-07-30_15h28.36.283,Simcolourproject_2stim_asymm_v5,2020.2.10,Win32,60,61025ae37ef11b136ea224fe,,,,,,,,,2209,25,-86,1,0,0,response3disk,,4,-24,-5,1,0,0,rectangle,-24,-5,1,0,0,-24,-5,1,0,0,1,133,293,120,1,,,,,,,,
,,,,,,,,,,,,,FF,,,,,,,,1.8834,,,,,,,,,,,,,,,,,,,,,,60ff447048f1d7c26cfcdefa,61036fb6c799215fa2f5a2a9,2021-07-30_15h28.36.283,Simcolourproject_2stim_asymm_v5,2020.2.10,Win32,60,61025ae37ef11b136ea224fe,,,,,,,,,3580,101,36,1,0,0,response1disk,,6,-1,-2,1,0,0,rectangle,-1,-2,1,0,0,-1,-2,1,0,0,1,134,294,69,1,,,,,,,,
,,,,,,,,,,,,,FF,,,,,,,,0.9836,,,,,,,,,,,,,,,,,,,,,,60ff447048f1d7c26cfcdefa,61036fb6c799215fa2f5a2a9,2021-07-30_15h28.36.283,Simcolourproject_2stim_asymm_v5,2020.2.10,Win32,60,61025ae37ef11b136ea224fe,,,,,,,,,461,-33,-101,1,0,0,response5disk,,3,21,-4,1,0,0,rectangle,21,-4,1,0,0,21,-4,1,0,0,1,135,295,8,1,,,,,,,,
,,,,,,,,,,,,,FF,,,,,,,,0.7337,,,,,,,,,,,,,,,,,,,,,,60ff447048f1d7c26cfcdefa,61036fb6c799215fa2f5a2a9,2021-07-30_15h28.36.283,Simcolourproject_2stim_asymm_v5,2020.2.10,Win32,60,61025ae37ef11b136ea224fe,,,,,,,,,946,40,-95,1,0,0,response3disk,,4,-21,1,1,0,0,rectangle,-21,1,1,0,0,-21,1,1,0,0,1,136,296,93,1,,,,,,,,
,,,,,,,,,,,,,FF,,,,,,,,0.8361,,,,,,,,,,,,,,,,,,,,,,60ff447048f1d7c26cfcdefa,61036fb6c799215fa2f5a2a9,2021-07-30_15h28.36.283,Simcolourproject_2stim_asymm_v5,2020.2.10,Win32,60,61025ae37ef11b136ea224fe,,,,,,,,,1501,76,-49,1,0,0,response3disk,,5,10,1,1,0,0,rectangle,10,1,1,0,0,10,1,1,0,0,1,137,297,82,1,,,,,,,,
,,,,,,,,,,,,,FF,,,,,,,,0.7,,,,,,,,,,,,,,,,,,,,,,60ff447048f1d7c26cfcdefa,61036fb6c799215fa2f5a2a9,2021-07-30_15h28.36.283,Simcolourproject_2stim_asymm_v5,2020.2.10,Win32,60,61025ae37ef11b136ea224fe,,,,,,,,,4190,-45,-87,1,0,0,response5disk,,3,1,4,1,0,0,rectangle,1,4,1,0,0,1,4,1,0,0,1,138,298,95,1,,,,,,,,
,,,,,,,,,,,,,FF,,,,,,,,2.1501,,,,,,,,,,,,,,,,,,,,,,60ff447048f1d7c26cfcdefa,61036fb6c799215fa2f5a2a9,2021-07-30_15h28.36.283,Simcolourproject_2stim_asymm_v5,2020.2.10,Win32,60,61025ae37ef11b136ea224fe,,,,,,,,,4238,-93,-53,1,0,0,response5disk,,2,-1,-11,1,0,0,rectangle,-1,-11,1,0,0,-1,-11,1,0,0,1,139,299,58,1,,,,,,,,
,,,,,,,,,,,,,FF,,,,,,,,0.5326,,,,,,,,,,,,,,,,,,,,,,60ff447048f1d7c26cfcdefa,61036fb6c799215fa2f5a2a9,2021-07-30_15h28.36.283,Simcolourproject_2stim_asymm_v5,2020.2.10,Win32,60,61025ae37ef11b136ea224fe,,,,,,,,,1556,89,-47,1,0,0,response3disk,,5,-10,4,1,0,0,rectangle,-10,4,1,0,0,-10,4,1,0,0,1,140,300,100,1,,,,,,,,
,,,,,,,,,,,,,FF,,,,,,,,0.4993,,,,,,,,,,,,,,,,,,,,,,60ff447048f1d7c26cfcdefa,61036fb6c799215fa2f5a2a9,2021-07-30_15h28.36.283,Simcolourproject_2stim_asymm_v5,2020.2.10,Win32,60,61025ae37ef11b136ea224fe,,,,,,,,,2961,81,-34,1,0,0,response3disk,,5,13,-1,1,0,0,rectangle,13,-1,1,0,0,13,-1,1,0,0,1,141,301,135,1,,,,,,,,
