key_resp.keys,key_resp.rt,key_resp_14.keys,key_resp_14.rt,key_resp_15.keys,key_resp_15.rt,key_resp_17.keys,key_resp_17.rt,key_resp_9.keys,key_resp_9.rt,key_resp_10.keys,key_resp_10.rt,practice_comparison,Ecc,mouse_5.x,mouse_5.y,mouse_5.leftButton,mouse_5.midButton,mouse_5.rightButton,mouse_5.clicked_name,pracsimilarity,response_time,mouse_10.x,mouse_10.y,mouse_10.leftButton,mouse_10.midButton,mouse_10.rightButton,mouse_10.clicked_name,mouse_7.x,mouse_7.y,mouse_7.leftButton,mouse_7.midButton,mouse_7.rightButton,mouse_6.x,mouse_6.y,mouse_6.leftButton,mouse_6.midButton,mouse_6.rightButton,duringprac.thisRepN,duringprac.thisTrialN,duringprac.thisN,duringprac.thisIndex,duringprac.ran,participant,session,date,expName,psychopyVersion,OS,frameRate,study_id,mouse_7.clicked_name,catchpracsimilarity,catch_response_time,catchnumberprac,catchtrialorderprac,mouse_6.clicked_name,key_resp_22.keys,key_resp_22.rt,realcomparison,mouse.x,mouse.y,mouse.leftButton,mouse.midButton,mouse.rightButton,mouse.clicked_name,Colour2,similarity,mouse_2.x,mouse_2.y,mouse_2.leftButton,mouse_2.midButton,mouse_2.rightButton,mouse_2.clicked_name,mouse_3.x,mouse_3.y,mouse_3.leftButton,mouse_3.midButton,mouse_3.rightButton,mouse_11.x,mouse_11.y,mouse_11.leftButton,mouse_11.midButton,mouse_11.rightButton,trials_2.thisRepN,trials_2.thisTrialN,trials_2.thisN,trials_2.thisIndex,trials_2.ran,Colour1,mouse_3.clicked_name,catchornah,catchsimilarity,catchnumber,catchtrialorder,catchRT,mouse_11.clicked_name
space,1.101,space,1.982,space,9.285,space,2.113,space,0.528,space,2.298,75,PF,81,52,1,0,0,response1disk_5,6,12.016,14,6,1,0,0,rectangle_8,14,6,1,0,0,14,6,1,0,0,0,0,0,6,1,60ff3497dffa67c464bc2368,61036ef53c221507b344c669,2021-07-29_22h16.55.918,Simcolourproject_2stim_asymm_v5,2020.2.10,MacIntel,60,61025ae37ef11b136ea224fe,,,,,,,,,,,,,,,,,,,,,,,,,,,,,,,,,,,,,,,,,,,,,,
,,,,,,,,,,,,75,FF,76,32,1,0,0,response1disk_5,6,2.2,-5,-1,1,0,0,rectangle_8,-32,72,1,0,0,-8,3,1,0,0,0,1,1,5,1,60ff3497dffa67c464bc2368,61036ef53c221507b344c669,2021-07-29_22h16.55.918,Simcolourproject_2stim_asymm_v5,2020.2.10,MacIntel,60,61025ae37ef11b136ea224fe,response7disk_7,0,2.617,0,"[2,5]",rectangle_4,,,,,,,,,,,,,,,,,,,,,,,,,,,,,,,,,,,,,,,,
,,,,,,,,,,,,30,FF,21,46,1,0,0,response1disk_5,7,2.099,4,-7,1,0,0,rectangle_8,4,-7,1,0,0,4,-7,1,0,0,0,2,2,0,1,60ff3497dffa67c464bc2368,61036ef53c221507b344c669,2021-07-29_22h16.55.918,Simcolourproject_2stim_asymm_v5,2020.2.10,MacIntel,60,61025ae37ef11b136ea224fe,,,,,,,,,,,,,,,,,,,,,,,,,,,,,,,,,,,,,,,,,,,,,,
,,,,,,,,,,,,38,PF,-28,-58,1,0,0,response5disk_5,3,2.117,-1,-2,1,0,0,rectangle_8,-1,-2,1,0,0,-1,-2,1,0,0,0,3,3,1,1,60ff3497dffa67c464bc2368,61036ef53c221507b344c669,2021-07-29_22h16.55.918,Simcolourproject_2stim_asymm_v5,2020.2.10,MacIntel,60,61025ae37ef11b136ea224fe,,,,,,,,,,,,,,,,,,,,,,,,,,,,,,,,,,,,,,,,,,,,,,
,,,,,,,,,,,,49,PF,19,-65,1,0,0,response3disk_5,4,2.516,-16,11,1,0,0,rectangle_8,-25,60,1,0,0,-10,8,1,0,0,0,4,4,4,1,60ff3497dffa67c464bc2368,61036ef53c221507b344c669,2021-07-29_22h16.55.918,Simcolourproject_2stim_asymm_v5,2020.2.10,MacIntel,60,61025ae37ef11b136ea224fe,response7disk_7,0,1.584,0,"[2,5]",rectangle_4,,,,,,,,,,,,,,,,,,,,,,,,,,,,,,,,,,,,,,,,
,,,,,,,,,,,,113,FF,-31,-45,1,0,0,response5disk_5,3,1.832,-2,-4,1,0,0,rectangle_8,-2,-4,1,0,0,-2,-4,1,0,0,0,5,5,3,1,60ff3497dffa67c464bc2368,61036ef53c221507b344c669,2021-07-29_22h16.55.918,Simcolourproject_2stim_asymm_v5,2020.2.10,MacIntel,60,61025ae37ef11b136ea224fe,,,,,,,,,,,,,,,,,,,,,,,,,,,,,,,,,,,,,,,,,,,,,,
,,,,,,,,,,,,115,PF,81,34,1,0,0,response1disk_5,6,4.484,11,11,1,0,0,rectangle_8,11,11,1,0,0,11,11,1,0,0,0,6,6,2,1,60ff3497dffa67c464bc2368,61036ef53c221507b344c669,2021-07-29_22h16.55.918,Simcolourproject_2stim_asymm_v5,2020.2.10,MacIntel,60,61025ae37ef11b136ea224fe,,,,,,,,,,,,,,,,,,,,,,,,,,,,,,,,,,,,,,,,,,,,,,
,,,,,,,,,,,,,FF,,,,,,,,2.25,,,,,,,,,,,,,,,,,,,,,,60ff3497dffa67c464bc2368,61036ef53c221507b344c669,2021-07-29_22h16.55.918,Simcolourproject_2stim_asymm_v5,2020.2.10,MacIntel,60,61025ae37ef11b136ea224fe,,,,,,,space,2.467,196,-31,-59,1,0,0,response5disk,,3,-12,-5,1,0,0,rectangle,-12,-5,1,0,0,-12,-5,1,0,0,0,0,0,104,1,,,,,,,,
,,,,,,,,,,,,,FF,,,,,,,,2.849,,,,,,,,,,,,,,,,,,,,,,60ff3497dffa67c464bc2368,61036ef53c221507b344c669,2021-07-29_22h16.55.918,Simcolourproject_2stim_asymm_v5,2020.2.10,MacIntel,60,61025ae37ef11b136ea224fe,,,,,,,,,3218,78,25,1,0,0,response1disk,,6,11,1,1,0,0,rectangle,11,1,1,0,0,11,1,1,0,0,0,1,1,126,1,,,,,,,,
,,,,,,,,,,,,,FF,,,,,,,,1.415,,,,,,,,,,,,,,,,,,,,,,60ff3497dffa67c464bc2368,61036ef53c221507b344c669,2021-07-29_22h16.55.918,Simcolourproject_2stim_asymm_v5,2020.2.10,MacIntel,60,61025ae37ef11b136ea224fe,,,,,,,,,458,-65,26,1,0,0,response7disk,,1,-20,-4,1,0,0,rectangle,-20,-4,1,0,0,-20,-4,1,0,0,0,2,2,125,1,,,,,,,,
,,,,,,,,,,,,,FF,,,,,,,,3.6,,,,,,,,,,,,,,,,,,,,,,60ff3497dffa67c464bc2368,61036ef53c221507b344c669,2021-07-29_22h16.55.918,Simcolourproject_2stim_asymm_v5,2020.2.10,MacIntel,60,61025ae37ef11b136ea224fe,,,,,,,,,3253,-23,-101,1,0,0,response5disk,,3,-16,-2,1,0,0,rectangle,-16,-2,1,0,0,-16,-2,1,0,0,0,3,3,57,1,,,,,,,,
,,,,,,,,,,,,,FF,,,,,,,,4.999,,,,,,,,,,,,,,,,,,,,,,60ff3497dffa67c464bc2368,61036ef53c221507b344c669,2021-07-29_22h16.55.918,Simcolourproject_2stim_asymm_v5,2020.2.10,MacIntel,60,61025ae37ef11b136ea224fe,,,,,,,,,2801,21,-66,1,0,0,response3disk,,4,14,6,1,0,0,rectangle,14,6,1,0,0,14,6,1,0,0,0,4,4,8,1,,,,,,,,
,,,,,,,,,,,,,FF,,,,,,,,1.549,,,,,,,,,,,,,,,,,,,,,,60ff3497dffa67c464bc2368,61036ef53c221507b344c669,2021-07-29_22h16.55.918,Simcolourproject_2stim_asymm_v5,2020.2.10,MacIntel,60,61025ae37ef11b136ea224fe,,,,,,,,,4052,-44,71,1,0,0,response7disk,,0,-17,0,1,0,0,rectangle,-17,0,1,0,0,-17,0,1,0,0,0,5,5,128,1,,,,,,,,
,,,,,,,,,,,,,FF,,,,,,,,1.466,,,,,,,,,,,,,,,,,,,,,,60ff3497dffa67c464bc2368,61036ef53c221507b344c669,2021-07-29_22h16.55.918,Simcolourproject_2stim_asymm_v5,2020.2.10,MacIntel,60,61025ae37ef11b136ea224fe,,,,,,,,,1982,-32,-46,1,0,0,response5disk,,3,-16,-10,1,0,0,rectangle,-16,-10,1,0,0,-16,-10,1,0,0,0,6,6,29,1,,,,,,,,
,,,,,,,,,,,,,FF,,,,,,,,1.2,,,,,,,,,,,,,,,,,,,,,,60ff3497dffa67c464bc2368,61036ef53c221507b344c669,2021-07-29_22h16.55.918,Simcolourproject_2stim_asymm_v5,2020.2.10,MacIntel,60,61025ae37ef11b136ea224fe,,,,,,,,,953,-54,-31,1,0,0,response5disk,,2,9,-9,1,0,0,rectangle,9,-9,1,0,0,9,-9,1,0,0,0,7,7,43,1,,,,,,,,
,,,,,,,,,,,,,FF,,,,,,,,1.916,,,,,,,,,,,,,,,,,,,,,,60ff3497dffa67c464bc2368,61036ef53c221507b344c669,2021-07-29_22h16.55.918,Simcolourproject_2stim_asymm_v5,2020.2.10,MacIntel,60,61025ae37ef11b136ea224fe,,,,,,,,,777,34,59,1,0,0,response1disk,,7,10,13,1,0,0,rectangle,10,13,1,0,0,10,13,1,0,0,0,8,8,135,1,,,,,,,,
,,,,,,,,,,,,,FF,,,,,,,,1.433,,,,,,,,,,,,,,,,,,,,,,60ff3497dffa67c464bc2368,61036ef53c221507b344c669,2021-07-29_22h16.55.918,Simcolourproject_2stim_asymm_v5,2020.2.10,MacIntel,60,61025ae37ef11b136ea224fe,,,,,,,,,4123,-27,-55,1,0,0,response5disk,,3,-17,11,1,0,0,rectangle,-17,11,1,0,0,-17,11,1,0,0,0,9,9,141,1,,,,,,,,
,,,,,,,,,,,,,FF,,,,,,,,1.717,,,,,,,,,,,,,,,,,,,,,,60ff3497dffa67c464bc2368,61036ef53c221507b344c669,2021-07-29_22h16.55.918,Simcolourproject_2stim_asymm_v5,2020.2.10,MacIntel,60,61025ae37ef11b136ea224fe,,,,,,,,,800,83,19,1,0,0,response1disk,,6,9,13,1,0,0,rectangle,9,13,1,0,0,9,13,1,0,0,0,10,10,36,1,,,,,,,,
,,,,,,,,,,,,,FF,,,,,,,,1.965,,,,,,,,,,,,,,,,,,,,,,60ff3497dffa67c464bc2368,61036ef53c221507b344c669,2021-07-29_22h16.55.918,Simcolourproject_2stim_asymm_v5,2020.2.10,MacIntel,60,61025ae37ef11b136ea224fe,,,,,,,,,3016,30,54,1,0,0,response1disk,,7,11,16,1,0,0,rectangle,11,16,1,0,0,11,16,1,0,0,0,11,11,92,1,,,,,,,,
,,,,,,,,,,,,,FF,,,,,,,,0.784,,,,,,,,,,,,,,,,,,,,,,60ff3497dffa67c464bc2368,61036ef53c221507b344c669,2021-07-29_22h16.55.918,Simcolourproject_2stim_asymm_v5,2020.2.10,MacIntel,60,61025ae37ef11b136ea224fe,,,,,,,,,3989,37,65,1,0,0,response1disk,,7,13,5,1,0,0,rectangle,13,5,1,0,0,13,5,1,0,0,0,12,12,154,1,,,,,,,,
,,,,,,,,,,,,,FF,,,,,,,,2.399,,,,,,,,,,,,,,,,,,,,,,60ff3497dffa67c464bc2368,61036ef53c221507b344c669,2021-07-29_22h16.55.918,Simcolourproject_2stim_asymm_v5,2020.2.10,MacIntel,60,61025ae37ef11b136ea224fe,,,,,,,,,1812,21,-79,1,0,0,response3disk,,4,8,-7,1,0,0,rectangle,8,-7,1,0,0,8,-7,1,0,0,0,13,13,18,1,,,,,,,,
,,,,,,,,,,,,,FF,,,,,,,,1.183,,,,,,,,,,,,,,,,,,,,,,60ff3497dffa67c464bc2368,61036ef53c221507b344c669,2021-07-29_22h16.55.918,Simcolourproject_2stim_asymm_v5,2020.2.10,MacIntel,60,61025ae37ef11b136ea224fe,,,,,,,,,2874,53,33,1,0,0,response1disk,,6,6,-1,1,0,0,rectangle,6,-1,1,0,0,6,-1,1,0,0,0,14,14,6,1,,,,,,,,
,,,,,,,,,,,,,FF,,,,,,,,1.766,,,,,,,,,,,,,,,,,,,,,,60ff3497dffa67c464bc2368,61036ef53c221507b344c669,2021-07-29_22h16.55.918,Simcolourproject_2stim_asymm_v5,2020.2.10,MacIntel,60,61025ae37ef11b136ea224fe,,,,,,,,,2028,-24,-49,1,0,0,response5disk,,3,-24,3,1,0,0,rectangle,-24,3,1,0,0,-24,3,1,0,0,0,15,15,63,1,,,,,,,,
,,,,,,,,,,,,,FF,,,,,,,,1.651,,,,,,,,,,,,,,,,,,,,,,60ff3497dffa67c464bc2368,61036ef53c221507b344c669,2021-07-29_22h16.55.918,Simcolourproject_2stim_asymm_v5,2020.2.10,MacIntel,60,61025ae37ef11b136ea224fe,,,,,,,,,3711,-67,-30,1,0,0,response5disk,,2,-20,5,1,0,0,rectangle,-20,5,1,0,0,-20,5,1,0,0,0,16,16,119,1,,,,,,,,
,,,,,,,,,,,,,FF,,,,,,,,1.6,,,,,,,,,,,,,,,,,,,,,,60ff3497dffa67c464bc2368,61036ef53c221507b344c669,2021-07-29_22h16.55.918,Simcolourproject_2stim_asymm_v5,2020.2.10,MacIntel,60,61025ae37ef11b136ea224fe,,,,,,,,,3788,-59,30,1,0,0,response7disk,,1,-22,12,1,0,0,rectangle,-22,12,1,0,0,-22,12,1,0,0,0,17,17,69,1,,,,,,,,
,,,,,,,,,,,,,FF,,,,,,,,1.217,,,,,,,,,,,,,,,,,,,,,,60ff3497dffa67c464bc2368,61036ef53c221507b344c669,2021-07-29_22h16.55.918,Simcolourproject_2stim_asymm_v5,2020.2.10,MacIntel,60,61025ae37ef11b136ea224fe,,,,,,,,,172,-61,39,1,0,0,response7disk,,1,-10,-4,1,0,0,rectangle,-10,-4,1,0,0,-10,-4,1,0,0,0,18,18,156,1,,,,,,,,
,,,,,,,,,,,,,FF,,,,,,,,0.984,,,,,,,,,,,,,,,,,,,,,,60ff3497dffa67c464bc2368,61036ef53c221507b344c669,2021-07-29_22h16.55.918,Simcolourproject_2stim_asymm_v5,2020.2.10,MacIntel,60,61025ae37ef11b136ea224fe,,,,,,,,,782,70,-36,1,0,0,response3disk,,5,-2,-6,1,0,0,rectangle,-2,-6,1,0,0,-2,-6,1,0,0,0,19,19,82,1,,,,,,,,
,,,,,,,,,,,,,FF,,,,,,,,0.949,,,,,,,,,,,,,,,,,,,,,,60ff3497dffa67c464bc2368,61036ef53c221507b344c669,2021-07-29_22h16.55.918,Simcolourproject_2stim_asymm_v5,2020.2.10,MacIntel,60,61025ae37ef11b136ea224fe,,,,,,,,,2927,45,-26,1,0,0,response3disk,,5,14,-6,1,0,0,rectangle,14,-6,1,0,0,14,-6,1,0,0,0,20,20,58,1,,,,,,,,
,,,,,,,,,,,,,FF,,,,,,,,1.483,,,,,,,,,,,,,,,,,,,,,,60ff3497dffa67c464bc2368,61036ef53c221507b344c669,2021-07-29_22h16.55.918,Simcolourproject_2stim_asymm_v5,2020.2.10,MacIntel,60,61025ae37ef11b136ea224fe,,,,,,,,,1002,38,-76,1,0,0,response3disk,,4,5,-10,1,0,0,rectangle,5,-10,1,0,0,5,-10,1,0,0,0,21,21,130,1,,,,,,,,
,,,,,,,,,,,,,FF,,,,,,,,1.017,,,,,,,,,,,,,,,,,,,,,,60ff3497dffa67c464bc2368,61036ef53c221507b344c669,2021-07-29_22h16.55.918,Simcolourproject_2stim_asymm_v5,2020.2.10,MacIntel,60,61025ae37ef11b136ea224fe,,,,,,,,,1036,-72,-20,1,0,0,response5disk,,2,-20,7,1,0,0,rectangle,-20,7,1,0,0,-20,7,1,0,0,0,22,22,26,1,,,,,,,,
,,,,,,,,,,,,,FF,,,,,,,,1.483,,,,,,,,,,,,,,,,,,,,,,60ff3497dffa67c464bc2368,61036ef53c221507b344c669,2021-07-29_22h16.55.918,Simcolourproject_2stim_asymm_v5,2020.2.10,MacIntel,60,61025ae37ef11b136ea224fe,,,,,,,,,4186,-24,-77,1,0,0,response5disk,,3,-20,-8,1,0,0,rectangle,-20,-8,1,0,0,-20,-8,1,0,0,0,23,23,113,1,,,,,,,,
,,,,,,,,,,,,,FF,,,,,,,,1.516,,,,,,,,,,,,,,,,,,,,,,60ff3497dffa67c464bc2368,61036ef53c221507b344c669,2021-07-29_22h16.55.918,Simcolourproject_2stim_asymm_v5,2020.2.10,MacIntel,60,61025ae37ef11b136ea224fe,,,,,,,,,1759,-71,51,1,0,0,response7disk,,1,-7,17,1,0,0,rectangle,-7,17,1,0,0,-7,17,1,0,0,0,24,24,10,1,,,,,,,,
,,,,,,,,,,,,,FF,,,,,,,,0.967,,,,,,,,,,,,,,,,,,,,,,60ff3497dffa67c464bc2368,61036ef53c221507b344c669,2021-07-29_22h16.55.918,Simcolourproject_2stim_asymm_v5,2020.2.10,MacIntel,60,61025ae37ef11b136ea224fe,,,,,,,,,2800,-56,-30,1,0,0,response5disk,,2,-13,-4,1,0,0,rectangle,-13,-4,1,0,0,-13,-4,1,0,0,0,25,25,40,1,,,,,,,,
,,,,,,,,,,,,,FF,,,,,,,,0.97,,,,,,,,,,,,,,,,,,,,,,60ff3497dffa67c464bc2368,61036ef53c221507b344c669,2021-07-29_22h16.55.918,Simcolourproject_2stim_asymm_v5,2020.2.10,MacIntel,60,61025ae37ef11b136ea224fe,,,,,,,,,3172,66,-31,1,0,0,response3disk,,5,20,4,1,0,0,rectangle,20,4,1,0,0,20,4,1,0,0,0,26,26,30,1,,,,,,,,
,,,,,,,,,,,,,FF,,,,,,,,0.782,,,,,,,,,,,,,,,,,,,,,,60ff3497dffa67c464bc2368,61036ef53c221507b344c669,2021-07-29_22h16.55.918,Simcolourproject_2stim_asymm_v5,2020.2.10,MacIntel,60,61025ae37ef11b136ea224fe,,,,,,,,,651,-45,-26,1,0,0,response5disk,,2,-26,-6,1,0,0,rectangle,-26,-6,1,0,0,-26,-6,1,0,0,0,27,27,47,1,,,,,,,,
,,,,,,,,,,,,,FF,,,,,,,,1.316,,,,,,,,,,,,,,,,,,,,,,60ff3497dffa67c464bc2368,61036ef53c221507b344c669,2021-07-29_22h16.55.918,Simcolourproject_2stim_asymm_v5,2020.2.10,MacIntel,60,61025ae37ef11b136ea224fe,,,,,,,,,2894,-48,61,1,0,0,response7disk,,0,-32,-2,1,0,0,rectangle,-32,-2,1,0,0,-32,-2,1,0,0,0,28,28,2,1,,,,,,,,
,,,,,,,,,,,,,FF,,,,,,,,0.965,,,,,,,,,,,,,,,,,,,,,,60ff3497dffa67c464bc2368,61036ef53c221507b344c669,2021-07-29_22h16.55.918,Simcolourproject_2stim_asymm_v5,2020.2.10,MacIntel,60,61025ae37ef11b136ea224fe,,,,,,,,,2019,-52,-35,1,0,0,response5disk,,2,-16,-1,1,0,0,rectangle,-16,-1,1,0,0,-16,-1,1,0,0,0,29,29,85,1,,,,,,,,
,,,,,,,,,,,,,FF,,,,,,,,0.866,,,,,,,,,,,,,,,,,,,,,,60ff3497dffa67c464bc2368,61036ef53c221507b344c669,2021-07-29_22h16.55.918,Simcolourproject_2stim_asymm_v5,2020.2.10,MacIntel,60,61025ae37ef11b136ea224fe,,,,,,,,,539,58,41,1,0,0,response1disk,,6,32,15,1,0,0,rectangle,32,15,1,0,0,32,15,1,0,0,0,30,30,60,1,,,,,,,,
,,,,,,,,,,,,,FF,,,,,,,,0.701,,,,,,,,,,,,,,,,,,,,,,60ff3497dffa67c464bc2368,61036ef53c221507b344c669,2021-07-29_22h16.55.918,Simcolourproject_2stim_asymm_v5,2020.2.10,MacIntel,60,61025ae37ef11b136ea224fe,,,,,,,,,2335,55,29,1,0,0,response1disk,,6,-3,-1,1,0,0,rectangle,-3,-1,1,0,0,-3,-1,1,0,0,0,31,31,142,1,,,,,,,,
,,,,,,,,,,,,,FF,,,,,,,,1.034,,,,,,,,,,,,,,,,,,,,,,60ff3497dffa67c464bc2368,61036ef53c221507b344c669,2021-07-29_22h16.55.918,Simcolourproject_2stim_asymm_v5,2020.2.10,MacIntel,60,61025ae37ef11b136ea224fe,,,,,,,,,1657,30,-52,1,0,0,response3disk,,4,8,-12,1,0,0,rectangle,8,-12,1,0,0,8,-12,1,0,0,0,32,32,124,1,,,,,,,,
,,,,,,,,,,,,,FF,,,,,,,,0.884,,,,,,,,,,,,,,,,,,,,,,60ff3497dffa67c464bc2368,61036ef53c221507b344c669,2021-07-29_22h16.55.918,Simcolourproject_2stim_asymm_v5,2020.2.10,MacIntel,60,61025ae37ef11b136ea224fe,,,,,,,,,3685,41,-22,1,0,0,response3disk,,5,16,-2,1,0,0,rectangle,16,-2,1,0,0,16,-2,1,0,0,0,33,33,68,1,,,,,,,,
,,,,,,,,,,,,,FF,,,,,,,,1.149,,,,,,,,,,,,,,,,,,,,,,60ff3497dffa67c464bc2368,61036ef53c221507b344c669,2021-07-29_22h16.55.918,Simcolourproject_2stim_asymm_v5,2020.2.10,MacIntel,60,61025ae37ef11b136ea224fe,,,,,,,,,1784,-21,-34,1,0,0,response5disk,,3,-19,-4,1,0,0,rectangle,-19,-4,1,0,0,-19,-4,1,0,0,0,34,34,72,1,,,,,,,,
,,,,,,,,,,,,,FF,,,,,,,,0.933,,,,,,,,,,,,,,,,,,,,,,60ff3497dffa67c464bc2368,61036ef53c221507b344c669,2021-07-29_22h16.55.918,Simcolourproject_2stim_asymm_v5,2020.2.10,MacIntel,60,61025ae37ef11b136ea224fe,,,,,,,,,2129,39,-53,1,0,0,response3disk,,4,31,-13,1,0,0,rectangle,31,-13,1,0,0,31,-13,1,0,0,0,35,35,19,1,,,,,,,,
,,,,,,,,,,,,,FF,,,,,,,,1.099,,,,,,,,,,,,,,,,,,,,,,60ff3497dffa67c464bc2368,61036ef53c221507b344c669,2021-07-29_22h16.55.918,Simcolourproject_2stim_asymm_v5,2020.2.10,MacIntel,60,61025ae37ef11b136ea224fe,,,,,,,,,4199,30,62,1,0,0,response1disk,,7,13,15,1,0,0,rectangle,13,15,1,0,0,13,15,1,0,0,0,36,36,64,1,,,,,,,,
,,,,,,,,,,,,,FF,,,,,,,,0.917,,,,,,,,,,,,,,,,,,,,,,60ff3497dffa67c464bc2368,61036ef53c221507b344c669,2021-07-29_22h16.55.918,Simcolourproject_2stim_asymm_v5,2020.2.10,MacIntel,60,61025ae37ef11b136ea224fe,,,,,,,,,3200,-70,-28,1,0,0,response5disk,,2,-14,6,1,0,0,rectangle,-14,6,1,0,0,-14,6,1,0,0,0,37,37,111,1,,,,,,,,
,,,,,,,,,,,,,FF,,,,,,,,1.133,,,,,,,,,,,,,,,,,,,,,,60ff3497dffa67c464bc2368,61036ef53c221507b344c669,2021-07-29_22h16.55.918,Simcolourproject_2stim_asymm_v5,2020.2.10,MacIntel,60,61025ae37ef11b136ea224fe,,,,,,,,,737,-56,-58,1,0,0,response5disk,,3,-18,1,1,0,0,rectangle,-18,1,1,0,0,-18,1,1,0,0,0,38,38,153,1,,,,,,,,
,,,,,,,,,,,,,FF,,,,,,,,0.833,,,,,,,,,,,,,,,,,,,,,,60ff3497dffa67c464bc2368,61036ef53c221507b344c669,2021-07-29_22h16.55.918,Simcolourproject_2stim_asymm_v5,2020.2.10,MacIntel,60,61025ae37ef11b136ea224fe,,,,,,,,,787,-81,-34,1,0,0,response5disk,,2,-25,-10,1,0,0,rectangle,-25,-10,1,0,0,-25,-10,1,0,0,0,39,39,121,1,,,,,,,,
,,,,,,,,,,,,,FF,,,,,,,,1.051,,,,,,,,,,,,,,,,,,,,,,60ff3497dffa67c464bc2368,61036ef53c221507b344c669,2021-07-29_22h16.55.918,Simcolourproject_2stim_asymm_v5,2020.2.10,MacIntel,60,61025ae37ef11b136ea224fe,,,,,,,,,3775,-27,-17,1,0,0,response5disk,,2,-25,0,1,0,0,rectangle,-25,0,1,0,0,-25,0,1,0,0,0,40,40,27,1,,,,,,,,
,,,,,,,,,,,,,FF,,,,,,,,1.283,,,,,,,,,,,,,,,,,,,,,,60ff3497dffa67c464bc2368,61036ef53c221507b344c669,2021-07-29_22h16.55.918,Simcolourproject_2stim_asymm_v5,2020.2.10,MacIntel,60,61025ae37ef11b136ea224fe,,,,,,,,,3824,-25,-58,1,0,0,response5disk,,3,-3,-10,1,0,0,rectangle,-3,-10,1,0,0,-3,-10,1,0,0,0,41,41,109,1,,,,,,,,
,,,,,,,,,,,,,FF,,,,,,,,0.782,,,,,,,,,,,,,,,,,,,,,,60ff3497dffa67c464bc2368,61036ef53c221507b344c669,2021-07-29_22h16.55.918,Simcolourproject_2stim_asymm_v5,2020.2.10,MacIntel,60,61025ae37ef11b136ea224fe,,,,,,,,,2255,-43,-63,1,0,0,response5disk,,3,-21,-3,1,0,0,rectangle,-21,-3,1,0,0,-21,-3,1,0,0,0,42,42,138,1,,,,,,,,
,,,,,,,,,,,,,FF,,,,,,,,1.483,,,,,,,,,,,,,,,,,,,,,,60ff3497dffa67c464bc2368,61036ef53c221507b344c669,2021-07-29_22h16.55.918,Simcolourproject_2stim_asymm_v5,2020.2.10,MacIntel,60,61025ae37ef11b136ea224fe,,,,,,,,,2981,58,-41,1,0,0,response3disk,,5,18,-13,1,0,0,rectangle,18,-13,1,0,0,18,-13,1,0,0,0,43,43,95,1,,,,,,,,
,,,,,,,,,,,,,FF,,,,,,,,0.75,,,,,,,,,,,,,,,,,,,,,,60ff3497dffa67c464bc2368,61036ef53c221507b344c669,2021-07-29_22h16.55.918,Simcolourproject_2stim_asymm_v5,2020.2.10,MacIntel,60,61025ae37ef11b136ea224fe,,,,,,,,,1580,32,-25,1,0,0,response3disk,,5,10,-4,1,0,0,rectangle,10,-4,1,0,0,10,-4,1,0,0,0,44,44,149,1,,,,,,,,
,,,,,,,,,,,,,FF,,,,,,,,0.75,,,,,,,,,,,,,,,,,,,,,,60ff3497dffa67c464bc2368,61036ef53c221507b344c669,2021-07-29_22h16.55.918,Simcolourproject_2stim_asymm_v5,2020.2.10,MacIntel,60,61025ae37ef11b136ea224fe,,,,,,,,,3060,-45,-38,1,0,0,response5disk,,2,-30,-14,1,0,0,rectangle,-30,-14,1,0,0,-30,-14,1,0,0,0,45,45,4,1,,,,,,,,
,,,,,,,,,,,,,FF,,,,,,,,0.883,,,,,,,,,,,,,,,,,,,,,,60ff3497dffa67c464bc2368,61036ef53c221507b344c669,2021-07-29_22h16.55.918,Simcolourproject_2stim_asymm_v5,2020.2.10,MacIntel,60,61025ae37ef11b136ea224fe,,,,,,,,,1095,67,28,1,0,0,response1disk,,6,7,0,1,0,0,rectangle,7,0,1,0,0,7,0,1,0,0,0,46,46,133,1,,,,,,,,
,,,,,,,,,,,,,FF,,,,,,,,0.982,,,,,,,,,,,,,,,,,,,,,,60ff3497dffa67c464bc2368,61036ef53c221507b344c669,2021-07-29_22h16.55.918,Simcolourproject_2stim_asymm_v5,2020.2.10,MacIntel,60,61025ae37ef11b136ea224fe,,,,,,,,,3034,25,-74,1,0,0,response3disk,,4,10,-16,1,0,0,rectangle,10,-16,1,0,0,10,-16,1,0,0,0,47,47,137,1,,,,,,,,
,,,,,,,,,,,,,FF,,,,,,,,0.984,,,,,,,,,,,,,,,,,,,,,,60ff3497dffa67c464bc2368,61036ef53c221507b344c669,2021-07-29_22h16.55.918,Simcolourproject_2stim_asymm_v5,2020.2.10,MacIntel,60,61025ae37ef11b136ea224fe,,,,,,,,,3221,80,-18,1,0,0,response3disk,,5,6,3,1,0,0,rectangle,6,3,1,0,0,6,3,1,0,0,0,48,48,93,1,,,,,,,,
,,,,,,,,,,,,,FF,,,,,,,,0.767,,,,,,,,,,,,,,,,,,,,,,60ff3497dffa67c464bc2368,61036ef53c221507b344c669,2021-07-29_22h16.55.918,Simcolourproject_2stim_asymm_v5,2020.2.10,MacIntel,60,61025ae37ef11b136ea224fe,,,,,,,,,2189,32,34,1,0,0,response1disk,,7,10,7,1,0,0,rectangle,10,7,1,0,0,10,7,1,0,0,0,49,49,21,1,,,,,,,,
,,,,,,,,,,,,,FF,,,,,,,,1.049,,,,,,,,,,,,,,,,,,,,,,60ff3497dffa67c464bc2368,61036ef53c221507b344c669,2021-07-29_22h16.55.918,Simcolourproject_2stim_asymm_v5,2020.2.10,MacIntel,60,61025ae37ef11b136ea224fe,,,,,,,,,2611,-58,-16,1,0,0,response5disk,,2,-24,-8,1,0,0,rectangle,-24,-8,1,0,0,-24,-8,1,0,0,0,50,50,23,1,,,,,,,,
,,,,,,,,,,,,,FF,,,,,,,,0.784,,,,,,,,,,,,,,,,,,,,,,60ff3497dffa67c464bc2368,61036ef53c221507b344c669,2021-07-29_22h16.55.918,Simcolourproject_2stim_asymm_v5,2020.2.10,MacIntel,60,61025ae37ef11b136ea224fe,,,,,,,,,2022,-32,-56,1,0,0,response5disk,,3,-32,-16,1,0,0,rectangle,-32,-16,1,0,0,-32,-16,1,0,0,0,51,51,147,1,,,,,,,,
,,,,,,,,,,,,,FF,,,,,,,,0.733,,,,,,,,,,,,,,,,,,,,,,60ff3497dffa67c464bc2368,61036ef53c221507b344c669,2021-07-29_22h16.55.918,Simcolourproject_2stim_asymm_v5,2020.2.10,MacIntel,60,61025ae37ef11b136ea224fe,,,,,,,,,1216,-32,-16,1,0,0,response5disk,,2,-23,-11,1,0,0,rectangle,-23,-11,1,0,0,-23,-11,1,0,0,0,52,52,38,1,,,,,,,,
,,,,,,,,,,,,,FF,,,,,,,,0.966,,,,,,,,,,,,,,,,,,,,,,60ff3497dffa67c464bc2368,61036ef53c221507b344c669,2021-07-29_22h16.55.918,Simcolourproject_2stim_asymm_v5,2020.2.10,MacIntel,60,61025ae37ef11b136ea224fe,,,,,,,,,262,-50,55,1,0,0,response7disk,,0,-19,3,1,0,0,rectangle,-19,3,1,0,0,-19,3,1,0,0,0,53,53,118,1,,,,,,,,
,,,,,,,,,,,,,FF,,,,,,,,0.717,,,,,,,,,,,,,,,,,,,,,,60ff3497dffa67c464bc2368,61036ef53c221507b344c669,2021-07-29_22h16.55.918,Simcolourproject_2stim_asymm_v5,2020.2.10,MacIntel,60,61025ae37ef11b136ea224fe,,,,,,,,,613,-55,26,1,0,0,response7disk,,1,-13,-6,1,0,0,rectangle,-13,-6,1,0,0,-13,-6,1,0,0,0,54,54,105,1,,,,,,,,
,,,,,,,,,,,,,FF,,,,,,,,1.749,,,,,,,,,,,,,,,,,,,,,,60ff3497dffa67c464bc2368,61036ef53c221507b344c669,2021-07-29_22h16.55.918,Simcolourproject_2stim_asymm_v5,2020.2.10,MacIntel,60,61025ae37ef11b136ea224fe,,,,,,,,,4334,17,80,1,0,0,response1disk,,7,14,-6,1,0,0,rectangle,14,-6,1,0,0,14,-6,1,0,0,0,55,55,86,1,,,,,,,,
,,,,,,,,,,,,,FF,,,,,,,,1.05,,,,,,,,,,,,,,,,,,,,,,60ff3497dffa67c464bc2368,61036ef53c221507b344c669,2021-07-29_22h16.55.918,Simcolourproject_2stim_asymm_v5,2020.2.10,MacIntel,60,61025ae37ef11b136ea224fe,,,,,,,,,3760,35,-73,1,0,0,response3disk,,4,21,7,1,0,0,rectangle,21,7,1,0,0,21,7,1,0,0,0,56,56,61,1,,,,,,,,
,,,,,,,,,,,,,FF,,,,,,,,0.984,,,,,,,,,,,,,,,,,,,,,,60ff3497dffa67c464bc2368,61036ef53c221507b344c669,2021-07-29_22h16.55.918,Simcolourproject_2stim_asymm_v5,2020.2.10,MacIntel,60,61025ae37ef11b136ea224fe,,,,,,,,,162,-61,-18,1,0,0,response5disk,,2,-20,-2,1,0,0,rectangle,-20,-2,1,0,0,-20,-2,1,0,0,0,57,57,140,1,,,,,,,,
,,,,,,,,,,,,,FF,,,,,,,,0.867,,,,,,,,,,,,,,,,,,,,,,60ff3497dffa67c464bc2368,61036ef53c221507b344c669,2021-07-29_22h16.55.918,Simcolourproject_2stim_asymm_v5,2020.2.10,MacIntel,60,61025ae37ef11b136ea224fe,,,,,,,,,761,73,35,1,0,0,response1disk,,6,29,14,1,0,0,rectangle,29,14,1,0,0,29,14,1,0,0,0,58,58,122,1,,,,,,,,
,,,,,,,,,,,,,FF,,,,,,,,1.282,,,,,,,,,,,,,,,,,,,,,,60ff3497dffa67c464bc2368,61036ef53c221507b344c669,2021-07-29_22h16.55.918,Simcolourproject_2stim_asymm_v5,2020.2.10,MacIntel,60,61025ae37ef11b136ea224fe,,,,,,,,,599,-23,-47,1,0,0,response5disk,,3,-25,-2,1,0,0,rectangle,-25,-2,1,0,0,-25,-2,1,0,0,0,59,59,91,1,,,,,,,,
,,,,,,,,,,,,,FF,,,,,,,,0.883,,,,,,,,,,,,,,,,,,,,,,60ff3497dffa67c464bc2368,61036ef53c221507b344c669,2021-07-29_22h16.55.918,Simcolourproject_2stim_asymm_v5,2020.2.10,MacIntel,60,61025ae37ef11b136ea224fe,,,,,,,,,4241,-23,-60,1,0,0,response5disk,,3,-18,-8,1,0,0,rectangle,-18,-8,1,0,0,-18,-8,1,0,0,0,60,60,56,1,,,,,,,,
,,,,,,,,,,,,,FF,,,,,,,,1.365,,,,,,,,,,,,,,,,,,,,,,60ff3497dffa67c464bc2368,61036ef53c221507b344c669,2021-07-29_22h16.55.918,Simcolourproject_2stim_asymm_v5,2020.2.10,MacIntel,60,61025ae37ef11b136ea224fe,,,,,,,,,1837,-64,30,1,0,0,response7disk,,1,-21,-1,1,0,0,rectangle,-21,-1,1,0,0,-21,-1,1,0,0,0,61,61,76,1,,,,,,,,
,,,,,,,,,,,,,FF,,,,,,,,0.783,,,,,,,,,,,,,,,,,,,,,,60ff3497dffa67c464bc2368,61036ef53c221507b344c669,2021-07-29_22h16.55.918,Simcolourproject_2stim_asymm_v5,2020.2.10,MacIntel,60,61025ae37ef11b136ea224fe,,,,,,,,,2511,79,-43,1,0,0,response3disk,,5,11,-5,1,0,0,rectangle,11,-5,1,0,0,11,-5,1,0,0,0,62,62,7,1,,,,,,,,
,,,,,,,,,,,,,FF,,,,,,,,0.8,,,,,,,,,,,,,,,,,,,,,,60ff3497dffa67c464bc2368,61036ef53c221507b344c669,2021-07-29_22h16.55.918,Simcolourproject_2stim_asymm_v5,2020.2.10,MacIntel,60,61025ae37ef11b136ea224fe,,,,,,,,,1361,63,36,1,0,0,response1disk,,6,7,7,1,0,0,rectangle,7,7,1,0,0,7,7,1,0,0,0,63,63,123,1,,,,,,,,
,,,,,,,,,,,,,FF,,,,,,,,1.084,,,,,,,,,,,,,,,,,,,,,,60ff3497dffa67c464bc2368,61036ef53c221507b344c669,2021-07-29_22h16.55.918,Simcolourproject_2stim_asymm_v5,2020.2.10,MacIntel,60,61025ae37ef11b136ea224fe,,,,,,,,,2435,-32,-74,1,0,0,response5disk,,3,-15,-13,1,0,0,rectangle,-15,-13,1,0,0,-15,-13,1,0,0,0,64,64,150,1,,,,,,,,
,,,,,,,,,,,,,FF,,,,,,,,0.782,,,,,,,,,,,,,,,,,,,,,,60ff3497dffa67c464bc2368,61036ef53c221507b344c669,2021-07-29_22h16.55.918,Simcolourproject_2stim_asymm_v5,2020.2.10,MacIntel,60,61025ae37ef11b136ea224fe,,,,,,,,,3394,-56,-25,1,0,0,response5disk,,2,-20,0,1,0,0,rectangle,-20,0,1,0,0,-20,0,1,0,0,0,65,65,94,1,,,,,,,,
,,,,,,,,,,,,,FF,,,,,,,,0.733,,,,,,,,,,,,,,,,,,,,,,60ff3497dffa67c464bc2368,61036ef53c221507b344c669,2021-07-29_22h16.55.918,Simcolourproject_2stim_asymm_v5,2020.2.10,MacIntel,60,61025ae37ef11b136ea224fe,,,,,,,,,298,74,-59,1,0,0,response3disk,,5,30,-14,1,0,0,rectangle,-38,-88,1,0,0,-12,-10,1,0,0,0,66,66,66,1,,response5disk_3,TRUE,3,3,"[298,145,284,92,67,183,200,312,277,273,262,179,261,124,206,315,110,67,217,299]",2.299,rectangle
,,,,,,,,,,,,,FF,,,,,,,,0.916,,,,,,,,,,,,,,,,,,,,,,60ff3497dffa67c464bc2368,61036ef53c221507b344c669,2021-07-29_22h16.55.918,Simcolourproject_2stim_asymm_v5,2020.2.10,MacIntel,60,61025ae37ef11b136ea224fe,,,,,,,,,189,-45,-25,1,0,0,response5disk,,2,-27,-9,1,0,0,rectangle,-27,-9,1,0,0,-27,-9,1,0,0,0,67,67,46,1,,,,,,,,
,,,,,,,,,,,,,FF,,,,,,,,0.632,,,,,,,,,,,,,,,,,,,,,,60ff3497dffa67c464bc2368,61036ef53c221507b344c669,2021-07-29_22h16.55.918,Simcolourproject_2stim_asymm_v5,2020.2.10,MacIntel,60,61025ae37ef11b136ea224fe,,,,,,,,,2810,37,-72,1,0,0,response3disk,,4,16,-4,1,0,0,rectangle,16,-4,1,0,0,16,-4,1,0,0,0,68,68,90,1,,,,,,,,
,,,,,,,,,,,,,FF,,,,,,,,0.683,,,,,,,,,,,,,,,,,,,,,,60ff3497dffa67c464bc2368,61036ef53c221507b344c669,2021-07-29_22h16.55.918,Simcolourproject_2stim_asymm_v5,2020.2.10,MacIntel,60,61025ae37ef11b136ea224fe,,,,,,,,,3764,56,-30,1,0,0,response3disk,,5,5,1,1,0,0,rectangle,5,1,1,0,0,5,1,1,0,0,0,69,69,148,1,,,,,,,,
,,,,,,,,,,,,,FF,,,,,,,,0.667,,,,,,,,,,,,,,,,,,,,,,60ff3497dffa67c464bc2368,61036ef53c221507b344c669,2021-07-29_22h16.55.918,Simcolourproject_2stim_asymm_v5,2020.2.10,MacIntel,60,61025ae37ef11b136ea224fe,,,,,,,,,2820,60,37,1,0,0,response1disk,,6,8,10,1,0,0,rectangle,8,10,1,0,0,8,10,1,0,0,0,70,70,99,1,,,,,,,,
,,,,,,,,,,,,,FF,,,,,,,,1.565,,,,,,,,,,,,,,,,,,,,,,60ff3497dffa67c464bc2368,61036ef53c221507b344c669,2021-07-29_22h16.55.918,Simcolourproject_2stim_asymm_v5,2020.2.10,MacIntel,60,61025ae37ef11b136ea224fe,,,,,,,,,4297,67,-45,1,0,0,response3disk,,5,-17,5,1,0,0,rectangle,-17,5,1,0,0,-17,5,1,0,0,0,71,71,78,1,,,,,,,,
,,,,,,,,,,,,,FF,,,,,,,,1.133,,,,,,,,,,,,,,,,,,,,,,60ff3497dffa67c464bc2368,61036ef53c221507b344c669,2021-07-29_22h16.55.918,Simcolourproject_2stim_asymm_v5,2020.2.10,MacIntel,60,61025ae37ef11b136ea224fe,,,,,,,,,3337,25,-58,1,0,0,response3disk,,4,1,-4,1,0,0,rectangle,1,-4,1,0,0,1,-4,1,0,0,0,72,72,22,1,,,,,,,,
,,,,,,,,,,,,,FF,,,,,,,,1,,,,,,,,,,,,,,,,,,,,,,60ff3497dffa67c464bc2368,61036ef53c221507b344c669,2021-07-29_22h16.55.918,Simcolourproject_2stim_asymm_v5,2020.2.10,MacIntel,60,61025ae37ef11b136ea224fe,,,,,,,,,3320,30,51,1,0,0,response1disk,,7,16,9,1,0,0,rectangle,16,9,1,0,0,16,9,1,0,0,0,73,73,120,1,,,,,,,,
,,,,,,,,,,,,,FF,,,,,,,,1.183,,,,,,,,,,,,,,,,,,,,,,60ff3497dffa67c464bc2368,61036ef53c221507b344c669,2021-07-29_22h16.55.918,Simcolourproject_2stim_asymm_v5,2020.2.10,MacIntel,60,61025ae37ef11b136ea224fe,,,,,,,,,677,37,-60,1,0,0,response3disk,,4,28,-6,1,0,0,rectangle,28,-6,1,0,0,28,-6,1,0,0,0,74,74,15,1,,,,,,,,
,,,,,,,,,,,,,FF,,,,,,,,0.984,,,,,,,,,,,,,,,,,,,,,,60ff3497dffa67c464bc2368,61036ef53c221507b344c669,2021-07-29_22h16.55.918,Simcolourproject_2stim_asymm_v5,2020.2.10,MacIntel,60,61025ae37ef11b136ea224fe,,,,,,,,,1199,-25,-64,1,0,0,response5disk,,3,-24,-8,1,0,0,rectangle,-24,-8,1,0,0,-24,-8,1,0,0,0,75,75,0,1,,,,,,,,
,,,,,,,,,,,,,FF,,,,,,,,0.832,,,,,,,,,,,,,,,,,,,,,,60ff3497dffa67c464bc2368,61036ef53c221507b344c669,2021-07-29_22h16.55.918,Simcolourproject_2stim_asymm_v5,2020.2.10,MacIntel,60,61025ae37ef11b136ea224fe,,,,,,,,,1409,83,-30,1,0,0,response3disk,,5,6,-9,1,0,0,rectangle,6,-9,1,0,0,6,-9,1,0,0,0,76,76,102,1,,,,,,,,
,,,,,,,,,,,,,FF,,,,,,,,0.949,,,,,,,,,,,,,,,,,,,,,,60ff3497dffa67c464bc2368,61036ef53c221507b344c669,2021-07-29_22h16.55.918,Simcolourproject_2stim_asymm_v5,2020.2.10,MacIntel,60,61025ae37ef11b136ea224fe,,,,,,,,,1412,30,-69,1,0,0,response3disk,,4,11,-14,1,0,0,rectangle,11,-14,1,0,0,11,-14,1,0,0,0,77,77,73,1,,,,,,,,
,,,,,,,,,,,,,FF,,,,,,,,0.767,,,,,,,,,,,,,,,,,,,,,,60ff3497dffa67c464bc2368,61036ef53c221507b344c669,2021-07-29_22h16.55.918,Simcolourproject_2stim_asymm_v5,2020.2.10,MacIntel,60,61025ae37ef11b136ea224fe,,,,,,,,,3019,24,-34,1,0,0,response3disk,,4,4,-6,1,0,0,rectangle,4,-6,1,0,0,4,-6,1,0,0,0,78,78,31,1,,,,,,,,
,,,,,,,,,,,,,FF,,,,,,,,1.667,,,,,,,,,,,,,,,,,,,,,,60ff3497dffa67c464bc2368,61036ef53c221507b344c669,2021-07-29_22h16.55.918,Simcolourproject_2stim_asymm_v5,2020.2.10,MacIntel,60,61025ae37ef11b136ea224fe,,,,,,,,,107,50,42,1,0,0,response1disk,,6,10,0,1,0,0,rectangle,10,0,1,0,0,10,0,1,0,0,0,79,79,116,1,,,,,,,,
,,,,,,,,,,,,,FF,,,,,,,,0.884,,,,,,,,,,,,,,,,,,,,,,60ff3497dffa67c464bc2368,61036ef53c221507b344c669,2021-07-29_22h16.55.918,Simcolourproject_2stim_asymm_v5,2020.2.10,MacIntel,60,61025ae37ef11b136ea224fe,,,,,,,,,1568,51,-28,1,0,0,response3disk,,5,18,6,1,0,0,rectangle,18,6,1,0,0,18,6,1,0,0,0,80,80,13,1,,,,,,,,
,,,,,,,,,,,,,FF,,,,,,,,1.85,,,,,,,,,,,,,,,,,,,,,,60ff3497dffa67c464bc2368,61036ef53c221507b344c669,2021-07-29_22h16.55.918,Simcolourproject_2stim_asymm_v5,2020.2.10,MacIntel,60,61025ae37ef11b136ea224fe,,,,,,,,,4305,-52,63,1,0,0,response7disk,,0,-23,3,1,0,0,rectangle,-23,3,1,0,0,-23,3,1,0,0,0,81,81,74,1,,,,,,,,
,,,,,,,,,,,,,FF,,,,,,,,1.051,,,,,,,,,,,,,,,,,,,,,,60ff3497dffa67c464bc2368,61036ef53c221507b344c669,2021-07-29_22h16.55.918,Simcolourproject_2stim_asymm_v5,2020.2.10,MacIntel,60,61025ae37ef11b136ea224fe,,,,,,,,,795,64,-56,1,0,0,response3disk,,5,-11,-2,1,0,0,rectangle,-11,-2,1,0,0,-11,-2,1,0,0,0,82,82,44,1,,,,,,,,
,,,,,,,,,,,,,FF,,,,,,,,0.932,,,,,,,,,,,,,,,,,,,,,,60ff3497dffa67c464bc2368,61036ef53c221507b344c669,2021-07-29_22h16.55.918,Simcolourproject_2stim_asymm_v5,2020.2.10,MacIntel,60,61025ae37ef11b136ea224fe,,,,,,,,,2475,33,-77,1,0,0,response3disk,,4,3,1,1,0,0,rectangle,3,1,1,0,0,3,1,1,0,0,0,83,83,39,1,,,,,,,,
,,,,,,,,,,,,,FF,,,,,,,,0.9,,,,,,,,,,,,,,,,,,,,,,60ff3497dffa67c464bc2368,61036ef53c221507b344c669,2021-07-29_22h16.55.918,Simcolourproject_2stim_asymm_v5,2020.2.10,MacIntel,60,61025ae37ef11b136ea224fe,,,,,,,,,1283,62,-30,1,0,0,response3disk,,5,12,-2,1,0,0,rectangle,12,-2,1,0,0,12,-2,1,0,0,0,84,84,54,1,,,,,,,,
,,,,,,,,,,,,,FF,,,,,,,,0.867,,,,,,,,,,,,,,,,,,,,,,60ff3497dffa67c464bc2368,61036ef53c221507b344c669,2021-07-29_22h16.55.918,Simcolourproject_2stim_asymm_v5,2020.2.10,MacIntel,60,61025ae37ef11b136ea224fe,,,,,,,,,4167,-85,-32,1,0,0,response5disk,,2,-36,3,1,0,0,rectangle,-36,3,1,0,0,-36,3,1,0,0,0,85,85,71,1,,,,,,,,
,,,,,,,,,,,,,FF,,,,,,,,1.133,,,,,,,,,,,,,,,,,,,,,,60ff3497dffa67c464bc2368,61036ef53c221507b344c669,2021-07-29_22h16.55.918,Simcolourproject_2stim_asymm_v5,2020.2.10,MacIntel,60,61025ae37ef11b136ea224fe,,,,,,,,,3606,55,-53,1,0,0,response3disk,,5,11,-9,1,0,0,rectangle,11,-9,1,0,0,11,-9,1,0,0,0,86,86,12,1,,,,,,,,
,,,,,,,,,,,,,FF,,,,,,,,0.949,,,,,,,,,,,,,,,,,,,,,,60ff3497dffa67c464bc2368,61036ef53c221507b344c669,2021-07-29_22h16.55.918,Simcolourproject_2stim_asymm_v5,2020.2.10,MacIntel,60,61025ae37ef11b136ea224fe,,,,,,,,,1654,74,24,1,0,0,response1disk,,6,13,15,1,0,0,rectangle,13,15,1,0,0,13,15,1,0,0,0,87,87,110,1,,,,,,,,
,,,,,,,,,,,,,FF,,,,,,,,1.583,,,,,,,,,,,,,,,,,,,,,,60ff3497dffa67c464bc2368,61036ef53c221507b344c669,2021-07-29_22h16.55.918,Simcolourproject_2stim_asymm_v5,2020.2.10,MacIntel,60,61025ae37ef11b136ea224fe,,,,,,,,,289,55,-45,1,0,0,response3disk,,5,-17,-3,1,0,0,rectangle,-17,-3,1,0,0,-17,-3,1,0,0,0,88,88,131,1,,,,,,,,
,,,,,,,,,,,,,FF,,,,,,,,0.85,,,,,,,,,,,,,,,,,,,,,,60ff3497dffa67c464bc2368,61036ef53c221507b344c669,2021-07-29_22h16.55.918,Simcolourproject_2stim_asymm_v5,2020.2.10,MacIntel,60,61025ae37ef11b136ea224fe,,,,,,,,,1527,-53,-30,1,0,0,response5disk,,2,-27,6,1,0,0,rectangle,-27,6,1,0,0,-27,6,1,0,0,0,89,89,9,1,,,,,,,,
,,,,,,,,,,,,,FF,,,,,,,,0.784,,,,,,,,,,,,,,,,,,,,,,60ff3497dffa67c464bc2368,61036ef53c221507b344c669,2021-07-29_22h16.55.918,Simcolourproject_2stim_asymm_v5,2020.2.10,MacIntel,60,61025ae37ef11b136ea224fe,,,,,,,,,3371,62,-32,1,0,0,response3disk,,5,-3,-13,1,0,0,rectangle,-3,-13,1,0,0,-3,-13,1,0,0,0,90,90,115,1,,,,,,,,
,,,,,,,,,,,,,FF,,,,,,,,0.784,,,,,,,,,,,,,,,,,,,,,,60ff3497dffa67c464bc2368,61036ef53c221507b344c669,2021-07-29_22h16.55.918,Simcolourproject_2stim_asymm_v5,2020.2.10,MacIntel,60,61025ae37ef11b136ea224fe,,,,,,,,,3718,-30,-57,1,0,0,response5disk,,3,-26,-4,1,0,0,rectangle,38,72,1,0,0,9,3,1,0,0,0,91,91,129,1,,response1disk_3,TRUE,7,7,"[298,145,284,92,67,183,200,312,277,273,262,179,261,124,206,315,110,67,217,299]",2.881,rectangle
,,,,,,,,,,,,,FF,,,,,,,,1.566,,,,,,,,,,,,,,,,,,,,,,60ff3497dffa67c464bc2368,61036ef53c221507b344c669,2021-07-29_22h16.55.918,Simcolourproject_2stim_asymm_v5,2020.2.10,MacIntel,60,61025ae37ef11b136ea224fe,,,,,,,,,3765,59,-52,1,0,0,response3disk,,5,-5,-11,1,0,0,rectangle,-5,-11,1,0,0,-5,-11,1,0,0,0,92,92,51,1,,,,,,,,
,,,,,,,,,,,,,FF,,,,,,,,0.951,,,,,,,,,,,,,,,,,,,,,,60ff3497dffa67c464bc2368,61036ef53c221507b344c669,2021-07-29_22h16.55.918,Simcolourproject_2stim_asymm_v5,2020.2.10,MacIntel,60,61025ae37ef11b136ea224fe,,,,,,,,,4286,50,20,1,0,0,response1disk,,6,-6,-2,1,0,0,rectangle,-6,-2,1,0,0,-6,-2,1,0,0,0,93,93,151,1,,,,,,,,
,,,,,,,,,,,,,FF,,,,,,,,0.784,,,,,,,,,,,,,,,,,,,,,,60ff3497dffa67c464bc2368,61036ef53c221507b344c669,2021-07-29_22h16.55.918,Simcolourproject_2stim_asymm_v5,2020.2.10,MacIntel,60,61025ae37ef11b136ea224fe,,,,,,,,,2884,43,-27,1,0,0,response3disk,,5,-7,-5,1,0,0,rectangle,-7,-5,1,0,0,-7,-5,1,0,0,0,94,94,14,1,,,,,,,,
,,,,,,,,,,,,,FF,,,,,,,,0.684,,,,,,,,,,,,,,,,,,,,,,60ff3497dffa67c464bc2368,61036ef53c221507b344c669,2021-07-29_22h16.55.918,Simcolourproject_2stim_asymm_v5,2020.2.10,MacIntel,60,61025ae37ef11b136ea224fe,,,,,,,,,2116,27,-65,1,0,0,response3disk,,4,-4,3,1,0,0,rectangle,-4,3,1,0,0,-4,3,1,0,0,0,95,95,157,1,,,,,,,,
,,,,,,,,,,,,,FF,,,,,,,,0.533,,,,,,,,,,,,,,,,,,,,,,60ff3497dffa67c464bc2368,61036ef53c221507b344c669,2021-07-29_22h16.55.918,Simcolourproject_2stim_asymm_v5,2020.2.10,MacIntel,60,61025ae37ef11b136ea224fe,,,,,,,,,3408,33,-60,1,0,0,response3disk,,4,12,-4,1,0,0,rectangle,12,-4,1,0,0,12,-4,1,0,0,0,96,96,52,1,,,,,,,,
,,,,,,,,,,,,,FF,,,,,,,,0.983,,,,,,,,,,,,,,,,,,,,,,60ff3497dffa67c464bc2368,61036ef53c221507b344c669,2021-07-29_22h16.55.918,Simcolourproject_2stim_asymm_v5,2020.2.10,MacIntel,60,61025ae37ef11b136ea224fe,,,,,,,,,2883,-82,-23,1,0,0,response5disk,,2,-18,2,1,0,0,rectangle,-18,2,1,0,0,-18,2,1,0,0,0,97,97,83,1,,,,,,,,
,,,,,,,,,,,,,FF,,,,,,,,0.733,,,,,,,,,,,,,,,,,,,,,,60ff3497dffa67c464bc2368,61036ef53c221507b344c669,2021-07-29_22h16.55.918,Simcolourproject_2stim_asymm_v5,2020.2.10,MacIntel,60,61025ae37ef11b136ea224fe,,,,,,,,,927,64,31,1,0,0,response1disk,,6,11,8,1,0,0,rectangle,11,8,1,0,0,11,8,1,0,0,0,98,98,145,1,,,,,,,,
,,,,,,,,,,,,,FF,,,,,,,,0.716,,,,,,,,,,,,,,,,,,,,,,60ff3497dffa67c464bc2368,61036ef53c221507b344c669,2021-07-29_22h16.55.918,Simcolourproject_2stim_asymm_v5,2020.2.10,MacIntel,60,61025ae37ef11b136ea224fe,,,,,,,,,1980,-28,-56,1,0,0,response5disk,,3,-3,-10,1,0,0,rectangle,-3,-10,1,0,0,-3,-10,1,0,0,0,99,99,24,1,,,,,,,,
,,,,,,,,,,,,,FF,,,,,,,,0.753,,,,,,,,,,,,,,,,,,,,,,60ff3497dffa67c464bc2368,61036ef53c221507b344c669,2021-07-29_22h16.55.918,Simcolourproject_2stim_asymm_v5,2020.2.10,MacIntel,60,61025ae37ef11b136ea224fe,,,,,,,,,1692,-54,-28,1,0,0,response5disk,,2,-8,5,1,0,0,rectangle,-8,5,1,0,0,-8,5,1,0,0,0,100,100,101,1,,,,,,,,
,,,,,,,,,,,,,FF,,,,,,,,0.667,,,,,,,,,,,,,,,,,,,,,,60ff3497dffa67c464bc2368,61036ef53c221507b344c669,2021-07-29_22h16.55.918,Simcolourproject_2stim_asymm_v5,2020.2.10,MacIntel,60,61025ae37ef11b136ea224fe,,,,,,,,,2961,64,-42,1,0,0,response3disk,,5,0,1,1,0,0,rectangle,0,1,1,0,0,0,1,1,0,0,0,101,101,132,1,,,,,,,,
,,,,,,,,,,,,,FF,,,,,,,,0.917,,,,,,,,,,,,,,,,,,,,,,60ff3497dffa67c464bc2368,61036ef53c221507b344c669,2021-07-29_22h16.55.918,Simcolourproject_2stim_asymm_v5,2020.2.10,MacIntel,60,61025ae37ef11b136ea224fe,,,,,,,,,392,27,-69,1,0,0,response3disk,,4,7,-9,1,0,0,rectangle,7,-9,1,0,0,7,-9,1,0,0,0,102,102,25,1,,,,,,,,
,,,,,,,,,,,,,FF,,,,,,,,0.599,,,,,,,,,,,,,,,,,,,,,,60ff3497dffa67c464bc2368,61036ef53c221507b344c669,2021-07-29_22h16.55.918,Simcolourproject_2stim_asymm_v5,2020.2.10,MacIntel,60,61025ae37ef11b136ea224fe,,,,,,,,,2285,-39,-60,1,0,0,response5disk,,3,-18,-14,1,0,0,rectangle,-18,-14,1,0,0,-18,-14,1,0,0,0,103,103,62,1,,,,,,,,
,,,,,,,,,,,,,FF,,,,,,,,0.665,,,,,,,,,,,,,,,,,,,,,,60ff3497dffa67c464bc2368,61036ef53c221507b344c669,2021-07-29_22h16.55.918,Simcolourproject_2stim_asymm_v5,2020.2.10,MacIntel,60,61025ae37ef11b136ea224fe,,,,,,,,,2749,51,-31,1,0,0,response3disk,,5,4,-7,1,0,0,rectangle,4,-7,1,0,0,4,-7,1,0,0,0,104,104,65,1,,,,,,,,
,,,,,,,,,,,,,FF,,,,,,,,0.782,,,,,,,,,,,,,,,,,,,,,,60ff3497dffa67c464bc2368,61036ef53c221507b344c669,2021-07-29_22h16.55.918,Simcolourproject_2stim_asymm_v5,2020.2.10,MacIntel,60,61025ae37ef11b136ea224fe,,,,,,,,,3431,-42,39,1,0,0,response7disk,,1,7,-2,1,0,0,rectangle,7,-2,1,0,0,7,-2,1,0,0,0,105,105,17,1,,,,,,,,
,,,,,,,,,,,,,FF,,,,,,,,1.584,,,,,,,,,,,,,,,,,,,,,,60ff3497dffa67c464bc2368,61036ef53c221507b344c669,2021-07-29_22h16.55.918,Simcolourproject_2stim_asymm_v5,2020.2.10,MacIntel,60,61025ae37ef11b136ea224fe,,,,,,,,,4022,-50,-34,1,0,0,response5disk,,2,-19,-12,1,0,0,rectangle,-19,-12,1,0,0,-19,-12,1,0,0,0,106,106,96,1,,,,,,,,
,,,,,,,,,,,,,FF,,,,,,,,0.784,,,,,,,,,,,,,,,,,,,,,,60ff3497dffa67c464bc2368,61036ef53c221507b344c669,2021-07-29_22h16.55.918,Simcolourproject_2stim_asymm_v5,2020.2.10,MacIntel,60,61025ae37ef11b136ea224fe,,,,,,,,,810,-64,29,1,0,0,response7disk,,1,-11,7,1,0,0,rectangle,-11,7,1,0,0,-11,7,1,0,0,0,107,107,81,1,,,,,,,,
,,,,,,,,,,,,,FF,,,,,,,,0.666,,,,,,,,,,,,,,,,,,,,,,60ff3497dffa67c464bc2368,61036ef53c221507b344c669,2021-07-29_22h16.55.918,Simcolourproject_2stim_asymm_v5,2020.2.10,MacIntel,60,61025ae37ef11b136ea224fe,,,,,,,,,2099,-29,48,1,0,0,response7disk,,0,-13,0,1,0,0,rectangle,-13,0,1,0,0,-13,0,1,0,0,0,108,108,20,1,,,,,,,,
,,,,,,,,,,,,,FF,,,,,,,,1.334,,,,,,,,,,,,,,,,,,,,,,60ff3497dffa67c464bc2368,61036ef53c221507b344c669,2021-07-29_22h16.55.918,Simcolourproject_2stim_asymm_v5,2020.2.10,MacIntel,60,61025ae37ef11b136ea224fe,,,,,,,,,3214,61,40,1,0,0,response1disk,,6,12,1,1,0,0,rectangle,-29,-64,1,0,0,1,-7,1,0,0,0,109,109,1,1,,response5disk_3,TRUE,3,3,"[298,145,284,92,67,183,200,312,277,273,262,179,261,124,206,315,110,67,217,299]",1.632,rectangle
,,,,,,,,,,,,,FF,,,,,,,,1.067,,,,,,,,,,,,,,,,,,,,,,60ff3497dffa67c464bc2368,61036ef53c221507b344c669,2021-07-29_22h16.55.918,Simcolourproject_2stim_asymm_v5,2020.2.10,MacIntel,60,61025ae37ef11b136ea224fe,,,,,,,,,3351,-66,-31,1,0,0,response5disk,,2,10,-6,1,0,0,rectangle,10,-6,1,0,0,10,-6,1,0,0,0,110,110,53,1,,,,,,,,
,,,,,,,,,,,,,FF,,,,,,,,1.099,,,,,,,,,,,,,,,,,,,,,,60ff3497dffa67c464bc2368,61036ef53c221507b344c669,2021-07-29_22h16.55.918,Simcolourproject_2stim_asymm_v5,2020.2.10,MacIntel,60,61025ae37ef11b136ea224fe,,,,,,,,,232,-33,-65,1,0,0,response5disk,,3,-12,-14,1,0,0,rectangle,-12,-14,1,0,0,-12,-14,1,0,0,0,111,111,158,1,,,,,,,,
,,,,,,,,,,,,,FF,,,,,,,,0.834,,,,,,,,,,,,,,,,,,,,,,60ff3497dffa67c464bc2368,61036ef53c221507b344c669,2021-07-29_22h16.55.918,Simcolourproject_2stim_asymm_v5,2020.2.10,MacIntel,60,61025ae37ef11b136ea224fe,,,,,,,,,890,-29,55,1,0,0,response7disk,,0,-10,7,1,0,0,rectangle,-10,7,1,0,0,-10,7,1,0,0,0,112,112,143,1,,,,,,,,
,,,,,,,,,,,,,FF,,,,,,,,1.067,,,,,,,,,,,,,,,,,,,,,,60ff3497dffa67c464bc2368,61036ef53c221507b344c669,2021-07-29_22h16.55.918,Simcolourproject_2stim_asymm_v5,2020.2.10,MacIntel,60,61025ae37ef11b136ea224fe,,,,,,,,,2017,-25,-46,1,0,0,response5disk,,3,-8,-12,1,0,0,rectangle,-8,-12,1,0,0,-8,-12,1,0,0,0,113,113,50,1,,,,,,,,
,,,,,,,,,,,,,FF,,,,,,,,1.318,,,,,,,,,,,,,,,,,,,,,,60ff3497dffa67c464bc2368,61036ef53c221507b344c669,2021-07-29_22h16.55.918,Simcolourproject_2stim_asymm_v5,2020.2.10,MacIntel,60,61025ae37ef11b136ea224fe,,,,,,,,,197,42,-63,1,0,0,response3disk,,4,15,-5,1,0,0,rectangle,15,-5,1,0,0,15,-5,1,0,0,0,114,114,152,1,,,,,,,,
,,,,,,,,,,,,,FF,,,,,,,,1,,,,,,,,,,,,,,,,,,,,,,60ff3497dffa67c464bc2368,61036ef53c221507b344c669,2021-07-29_22h16.55.918,Simcolourproject_2stim_asymm_v5,2020.2.10,MacIntel,60,61025ae37ef11b136ea224fe,,,,,,,,,2400,57,40,1,0,0,response1disk,,6,20,13,1,0,0,rectangle,20,13,1,0,0,20,13,1,0,0,0,115,115,159,1,,,,,,,,
,,,,,,,,,,,,,FF,,,,,,,,0.982,,,,,,,,,,,,,,,,,,,,,,60ff3497dffa67c464bc2368,61036ef53c221507b344c669,2021-07-29_22h16.55.918,Simcolourproject_2stim_asymm_v5,2020.2.10,MacIntel,60,61025ae37ef11b136ea224fe,,,,,,,,,3494,37,61,1,0,0,response1disk,,7,25,-16,1,0,0,rectangle,25,-16,1,0,0,25,-16,1,0,0,0,116,116,32,1,,,,,,,,
,,,,,,,,,,,,,FF,,,,,,,,1.033,,,,,,,,,,,,,,,,,,,,,,60ff3497dffa67c464bc2368,61036ef53c221507b344c669,2021-07-29_22h16.55.918,Simcolourproject_2stim_asymm_v5,2020.2.10,MacIntel,60,61025ae37ef11b136ea224fe,,,,,,,,,3990,29,-46,1,0,0,response3disk,,4,15,-3,1,0,0,rectangle,15,-3,1,0,0,15,-3,1,0,0,0,117,117,75,1,,,,,,,,
,,,,,,,,,,,,,FF,,,,,,,,1.066,,,,,,,,,,,,,,,,,,,,,,60ff3497dffa67c464bc2368,61036ef53c221507b344c669,2021-07-29_22h16.55.918,Simcolourproject_2stim_asymm_v5,2020.2.10,MacIntel,60,61025ae37ef11b136ea224fe,,,,,,,,,547,-59,-40,1,0,0,response5disk,,2,-28,-9,1,0,0,rectangle,-28,-9,1,0,0,-28,-9,1,0,0,0,118,118,3,1,,,,,,,,
,,,,,,,,,,,,,FF,,,,,,,,0.934,,,,,,,,,,,,,,,,,,,,,,60ff3497dffa67c464bc2368,61036ef53c221507b344c669,2021-07-29_22h16.55.918,Simcolourproject_2stim_asymm_v5,2020.2.10,MacIntel,60,61025ae37ef11b136ea224fe,,,,,,,,,3387,-44,-21,1,0,0,response5disk,,2,-15,7,1,0,0,rectangle,-15,7,1,0,0,-15,7,1,0,0,0,119,119,28,1,,,,,,,,
,,,,,,,,,,,,,FF,,,,,,,,1,,,,,,,,,,,,,,,,,,,,,,60ff3497dffa67c464bc2368,61036ef53c221507b344c669,2021-07-29_22h16.55.918,Simcolourproject_2stim_asymm_v5,2020.2.10,MacIntel,60,61025ae37ef11b136ea224fe,,,,,,,,,3687,56,-29,1,0,0,response3disk,,5,7,-3,1,0,0,rectangle,7,-3,1,0,0,7,-3,1,0,0,0,120,120,88,1,,,,,,,,
,,,,,,,,,,,,,FF,,,,,,,,0.883,,,,,,,,,,,,,,,,,,,,,,60ff3497dffa67c464bc2368,61036ef53c221507b344c669,2021-07-29_22h16.55.918,Simcolourproject_2stim_asymm_v5,2020.2.10,MacIntel,60,61025ae37ef11b136ea224fe,,,,,,,,,2036,-52,15,1,0,0,response7disk,,1,-15,-3,1,0,0,rectangle,-15,-3,1,0,0,-15,-3,1,0,0,0,121,121,77,1,,,,,,,,
,,,,,,,,,,,,,FF,,,,,,,,0.816,,,,,,,,,,,,,,,,,,,,,,60ff3497dffa67c464bc2368,61036ef53c221507b344c669,2021-07-29_22h16.55.918,Simcolourproject_2stim_asymm_v5,2020.2.10,MacIntel,60,61025ae37ef11b136ea224fe,,,,,,,,,4327,-61,26,1,0,0,response7disk,,1,-10,-9,1,0,0,rectangle,-10,-9,1,0,0,-10,-9,1,0,0,0,122,122,146,1,,,,,,,,
,,,,,,,,,,,,,FF,,,,,,,,0.8,,,,,,,,,,,,,,,,,,,,,,60ff3497dffa67c464bc2368,61036ef53c221507b344c669,2021-07-29_22h16.55.918,Simcolourproject_2stim_asymm_v5,2020.2.10,MacIntel,60,61025ae37ef11b136ea224fe,,,,,,,,,1791,52,-49,1,0,0,response3disk,,5,-2,-14,1,0,0,rectangle,75,-32,1,0,0,18,-10,1,0,0,0,123,123,33,1,,response3disk_3,TRUE,5,5,"[298,145,284,92,67,183,200,312,277,273,262,179,261,124,206,315,110,67,217,299]",2.2,rectangle
,,,,,,,,,,,,,FF,,,,,,,,1.016,,,,,,,,,,,,,,,,,,,,,,60ff3497dffa67c464bc2368,61036ef53c221507b344c669,2021-07-29_22h16.55.918,Simcolourproject_2stim_asymm_v5,2020.2.10,MacIntel,60,61025ae37ef11b136ea224fe,,,,,,,,,83,-30,-28,1,0,0,response5disk,,2,-26,-4,1,0,0,rectangle,-26,-4,1,0,0,-26,-4,1,0,0,0,124,124,48,1,,,,,,,,
,,,,,,,,,,,,,FF,,,,,,,,0.751,,,,,,,,,,,,,,,,,,,,,,60ff3497dffa67c464bc2368,61036ef53c221507b344c669,2021-07-29_22h16.55.918,Simcolourproject_2stim_asymm_v5,2020.2.10,MacIntel,60,61025ae37ef11b136ea224fe,,,,,,,,,3599,-55,-25,1,0,0,response5disk,,2,-13,2,1,0,0,rectangle,-13,2,1,0,0,-13,2,1,0,0,0,125,125,45,1,,,,,,,,
,,,,,,,,,,,,,FF,,,,,,,,0.867,,,,,,,,,,,,,,,,,,,,,,60ff3497dffa67c464bc2368,61036ef53c221507b344c669,2021-07-29_22h16.55.918,Simcolourproject_2stim_asymm_v5,2020.2.10,MacIntel,60,61025ae37ef11b136ea224fe,,,,,,,,,3286,26,-61,1,0,0,response3disk,,4,5,6,1,0,0,rectangle,5,6,1,0,0,5,6,1,0,0,0,126,126,41,1,,,,,,,,
,,,,,,,,,,,,,FF,,,,,,,,0.883,,,,,,,,,,,,,,,,,,,,,,60ff3497dffa67c464bc2368,61036ef53c221507b344c669,2021-07-29_22h16.55.918,Simcolourproject_2stim_asymm_v5,2020.2.10,MacIntel,60,61025ae37ef11b136ea224fe,,,,,,,,,3038,-71,-32,1,0,0,response5disk,,2,-20,-1,1,0,0,rectangle,-20,-1,1,0,0,-20,-1,1,0,0,0,127,127,11,1,,,,,,,,
,,,,,,,,,,,,,FF,,,,,,,,0.784,,,,,,,,,,,,,,,,,,,,,,60ff3497dffa67c464bc2368,61036ef53c221507b344c669,2021-07-29_22h16.55.918,Simcolourproject_2stim_asymm_v5,2020.2.10,MacIntel,60,61025ae37ef11b136ea224fe,,,,,,,,,46,55,-32,1,0,0,response3disk,,5,4,-5,1,0,0,rectangle,4,-5,1,0,0,4,-5,1,0,0,0,128,128,87,1,,,,,,,,
,,,,,,,,,,,,,FF,,,,,,,,1.316,,,,,,,,,,,,,,,,,,,,,,60ff3497dffa67c464bc2368,61036ef53c221507b344c669,2021-07-29_22h16.55.918,Simcolourproject_2stim_asymm_v5,2020.2.10,MacIntel,60,61025ae37ef11b136ea224fe,,,,,,,,,2254,56,30,1,0,0,response1disk,,6,12,6,1,0,0,rectangle,12,6,1,0,0,12,6,1,0,0,0,129,129,136,1,,,,,,,,
,,,,,,,,,,,,,FF,,,,,,,,0.866,,,,,,,,,,,,,,,,,,,,,,60ff3497dffa67c464bc2368,61036ef53c221507b344c669,2021-07-29_22h16.55.918,Simcolourproject_2stim_asymm_v5,2020.2.10,MacIntel,60,61025ae37ef11b136ea224fe,,,,,,,,,345,-63,-22,1,0,0,response5disk,,2,-4,11,1,0,0,rectangle,-4,11,1,0,0,-4,11,1,0,0,0,130,130,139,1,,,,,,,,
,,,,,,,,,,,,,FF,,,,,,,,1.4,,,,,,,,,,,,,,,,,,,,,,60ff3497dffa67c464bc2368,61036ef53c221507b344c669,2021-07-29_22h16.55.918,Simcolourproject_2stim_asymm_v5,2020.2.10,MacIntel,60,61025ae37ef11b136ea224fe,,,,,,,,,3567,27,-68,1,0,0,response3disk,,4,6,-8,1,0,0,rectangle,6,-8,1,0,0,6,-8,1,0,0,0,131,131,59,1,,,,,,,,
,,,,,,,,,,,,,FF,,,,,,,,0.882,,,,,,,,,,,,,,,,,,,,,,60ff3497dffa67c464bc2368,61036ef53c221507b344c669,2021-07-29_22h16.55.918,Simcolourproject_2stim_asymm_v5,2020.2.10,MacIntel,60,61025ae37ef11b136ea224fe,,,,,,,,,1344,60,33,1,0,0,response1disk,,6,3,11,1,0,0,rectangle,3,11,1,0,0,3,11,1,0,0,0,132,132,49,1,,,,,,,,
,,,,,,,,,,,,,FF,,,,,,,,0.783,,,,,,,,,,,,,,,,,,,,,,60ff3497dffa67c464bc2368,61036ef53c221507b344c669,2021-07-29_22h16.55.918,Simcolourproject_2stim_asymm_v5,2020.2.10,MacIntel,60,61025ae37ef11b136ea224fe,,,,,,,,,161,43,-69,1,0,0,response3disk,,4,10,-13,1,0,0,rectangle,10,-13,1,0,0,10,-13,1,0,0,0,133,133,42,1,,,,,,,,
,,,,,,,,,,,,,FF,,,,,,,,0.782,,,,,,,,,,,,,,,,,,,,,,60ff3497dffa67c464bc2368,61036ef53c221507b344c669,2021-07-29_22h16.55.918,Simcolourproject_2stim_asymm_v5,2020.2.10,MacIntel,60,61025ae37ef11b136ea224fe,,,,,,,,,3960,55,-23,1,0,0,response3disk,,5,-8,-3,1,0,0,rectangle,-8,-3,1,0,0,-8,-3,1,0,0,0,134,134,80,1,,,,,,,,
,,,,,,,,,,,,,FF,,,,,,,,0.549,,,,,,,,,,,,,,,,,,,,,,60ff3497dffa67c464bc2368,61036ef53c221507b344c669,2021-07-29_22h16.55.918,Simcolourproject_2stim_asymm_v5,2020.2.10,MacIntel,60,61025ae37ef11b136ea224fe,,,,,,,,,1948,-29,-58,1,0,0,response5disk,,3,-19,-9,1,0,0,rectangle,-19,-9,1,0,0,-19,-9,1,0,0,0,135,135,79,1,,,,,,,,
,,,,,,,,,,,,,FF,,,,,,,,0.8,,,,,,,,,,,,,,,,,,,,,,60ff3497dffa67c464bc2368,61036ef53c221507b344c669,2021-07-29_22h16.55.918,Simcolourproject_2stim_asymm_v5,2020.2.10,MacIntel,60,61025ae37ef11b136ea224fe,,,,,,,,,3712,-54,-25,1,0,0,response5disk,,2,-17,4,1,0,0,rectangle,-17,4,1,0,0,-17,4,1,0,0,0,136,136,155,1,,,,,,,,
,,,,,,,,,,,,,FF,,,,,,,,0.785,,,,,,,,,,,,,,,,,,,,,,60ff3497dffa67c464bc2368,61036ef53c221507b344c669,2021-07-29_22h16.55.918,Simcolourproject_2stim_asymm_v5,2020.2.10,MacIntel,60,61025ae37ef11b136ea224fe,,,,,,,,,3773,31,-63,1,0,0,response3disk,,4,0,-3,1,0,0,rectangle,0,-3,1,0,0,0,-3,1,0,0,0,137,137,103,1,,,,,,,,
,,,,,,,,,,,,,FF,,,,,,,,0.782,,,,,,,,,,,,,,,,,,,,,,60ff3497dffa67c464bc2368,61036ef53c221507b344c669,2021-07-29_22h16.55.918,Simcolourproject_2stim_asymm_v5,2020.2.10,MacIntel,60,61025ae37ef11b136ea224fe,,,,,,,,,241,51,19,1,0,0,response1disk,,6,-16,0,1,0,0,rectangle,-16,0,1,0,0,-16,0,1,0,0,0,138,138,16,1,,,,,,,,
,,,,,,,,,,,,,FF,,,,,,,,1.384,,,,,,,,,,,,,,,,,,,,,,60ff3497dffa67c464bc2368,61036ef53c221507b344c669,2021-07-29_22h16.55.918,Simcolourproject_2stim_asymm_v5,2020.2.10,MacIntel,60,61025ae37ef11b136ea224fe,,,,,,,,,1065,-72,-39,1,0,0,response5disk,,2,-19,-10,1,0,0,rectangle,-19,-10,1,0,0,-19,-10,1,0,0,0,139,139,97,1,,,,,,,,
,,,,,,,,,,,,,FF,,,,,,,,1.468,,,,,,,,,,,,,,,,,,,,,,60ff3497dffa67c464bc2368,61036ef53c221507b344c669,2021-07-29_22h16.55.918,Simcolourproject_2stim_asymm_v5,2020.2.10,MacIntel,60,61025ae37ef11b136ea224fe,,,,,,,,,3878,56,-45,1,0,0,response3disk,,5,-9,-3,1,0,0,rectangle,-9,-3,1,0,0,-9,-3,1,0,0,0,140,140,106,1,,,,,,,,
,,,,,,,,,,,,,FF,,,,,,,,0.866,,,,,,,,,,,,,,,,,,,,,,60ff3497dffa67c464bc2368,61036ef53c221507b344c669,2021-07-29_22h16.55.918,Simcolourproject_2stim_asymm_v5,2020.2.10,MacIntel,60,61025ae37ef11b136ea224fe,,,,,,,,,3569,32,-63,1,0,0,response3disk,,4,-17,4,1,0,0,rectangle,-17,4,1,0,0,-17,4,1,0,0,0,141,141,5,1,,,,,,,,
,,,,,,,,,,,,,FF,,,,,,,,1.066,,,,,,,,,,,,,,,,,,,,,,60ff3497dffa67c464bc2368,61036ef53c221507b344c669,2021-07-29_22h16.55.918,Simcolourproject_2stim_asymm_v5,2020.2.10,MacIntel,60,61025ae37ef11b136ea224fe,,,,,,,,,3655,32,63,1,0,0,response1disk,,7,10,-3,1,0,0,rectangle,10,-3,1,0,0,10,-3,1,0,0,0,142,142,37,1,,,,,,,,
,,,,,,,,,,,,,FF,,,,,,,,0.882,,,,,,,,,,,,,,,,,,,,,,60ff3497dffa67c464bc2368,61036ef53c221507b344c669,2021-07-29_22h16.55.918,Simcolourproject_2stim_asymm_v5,2020.2.10,MacIntel,60,61025ae37ef11b136ea224fe,,,,,,,,,1251,67,28,1,0,0,response1disk,,6,13,-2,1,0,0,rectangle,13,-2,1,0,0,13,-2,1,0,0,0,143,143,100,1,,,,,,,,
,,,,,,,,,,,,,FF,,,,,,,,0.933,,,,,,,,,,,,,,,,,,,,,,60ff3497dffa67c464bc2368,61036ef53c221507b344c669,2021-07-29_22h16.55.918,Simcolourproject_2stim_asymm_v5,2020.2.10,MacIntel,60,61025ae37ef11b136ea224fe,,,,,,,,,3291,-68,-22,1,0,0,response5disk,,2,-8,1,1,0,0,rectangle,75,29,1,0,0,6,12,1,0,0,0,144,144,98,1,,response1disk_3,TRUE,6,6,"[298,145,284,92,67,183,200,312,277,273,262,179,261,124,206,315,110,67,217,299]",1.883,rectangle
,,,,,,,,,,,,,FF,,,,,,,,1.151,,,,,,,,,,,,,,,,,,,,,,60ff3497dffa67c464bc2368,61036ef53c221507b344c669,2021-07-29_22h16.55.918,Simcolourproject_2stim_asymm_v5,2020.2.10,MacIntel,60,61025ae37ef11b136ea224fe,,,,,,,,,4121,-33,60,1,0,0,response7disk,,0,-12,3,1,0,0,rectangle,-12,3,1,0,0,-12,3,1,0,0,0,145,145,35,1,,,,,,,,
,,,,,,,,,,,,,FF,,,,,,,,1.215,,,,,,,,,,,,,,,,,,,,,,60ff3497dffa67c464bc2368,61036ef53c221507b344c669,2021-07-29_22h16.55.918,Simcolourproject_2stim_asymm_v5,2020.2.10,MacIntel,60,61025ae37ef11b136ea224fe,,,,,,,,,4370,-38,59,1,0,0,response7disk,,0,-23,0,1,0,0,rectangle,-23,0,1,0,0,-23,0,1,0,0,0,146,146,89,1,,,,,,,,
,,,,,,,,,,,,,FF,,,,,,,,0.649,,,,,,,,,,,,,,,,,,,,,,60ff3497dffa67c464bc2368,61036ef53c221507b344c669,2021-07-29_22h16.55.918,Simcolourproject_2stim_asymm_v5,2020.2.10,MacIntel,60,61025ae37ef11b136ea224fe,,,,,,,,,3551,-27,37,1,0,0,response7disk,,0,-8,-6,1,0,0,rectangle,-8,-6,1,0,0,-8,-6,1,0,0,0,147,147,114,1,,,,,,,,
,,,,,,,,,,,,,FF,,,,,,,,0.965,,,,,,,,,,,,,,,,,,,,,,60ff3497dffa67c464bc2368,61036ef53c221507b344c669,2021-07-29_22h16.55.918,Simcolourproject_2stim_asymm_v5,2020.2.10,MacIntel,60,61025ae37ef11b136ea224fe,,,,,,,,,3334,23,67,1,0,0,response1disk,,7,9,7,1,0,0,rectangle,9,7,1,0,0,9,7,1,0,0,0,148,148,144,1,,,,,,,,
,,,,,,,,,,,,,FF,,,,,,,,0.949,,,,,,,,,,,,,,,,,,,,,,60ff3497dffa67c464bc2368,61036ef53c221507b344c669,2021-07-29_22h16.55.918,Simcolourproject_2stim_asymm_v5,2020.2.10,MacIntel,60,61025ae37ef11b136ea224fe,,,,,,,,,1936,25,60,1,0,0,response1disk,,7,5,-8,1,0,0,rectangle,5,-8,1,0,0,5,-8,1,0,0,0,149,149,127,1,,,,,,,,
,,,,,,,,,,,,,FF,,,,,,,,0.683,,,,,,,,,,,,,,,,,,,,,,60ff3497dffa67c464bc2368,61036ef53c221507b344c669,2021-07-29_22h16.55.918,Simcolourproject_2stim_asymm_v5,2020.2.10,MacIntel,60,61025ae37ef11b136ea224fe,,,,,,,,,1241,60,-53,1,0,0,response3disk,,5,8,-16,1,0,0,rectangle,8,-16,1,0,0,8,-16,1,0,0,0,150,150,84,1,,,,,,,,
,,,,,,,,,,,,,FF,,,,,,,,0.849,,,,,,,,,,,,,,,,,,,,,,60ff3497dffa67c464bc2368,61036ef53c221507b344c669,2021-07-29_22h16.55.918,Simcolourproject_2stim_asymm_v5,2020.2.10,MacIntel,60,61025ae37ef11b136ea224fe,,,,,,,,,1920,44,17,1,0,0,response1disk,,6,-8,11,1,0,0,rectangle,-8,11,1,0,0,-8,11,1,0,0,0,151,151,117,1,,,,,,,,
,,,,,,,,,,,,,FF,,,,,,,,1.267,,,,,,,,,,,,,,,,,,,,,,60ff3497dffa67c464bc2368,61036ef53c221507b344c669,2021-07-29_22h16.55.918,Simcolourproject_2stim_asymm_v5,2020.2.10,MacIntel,60,61025ae37ef11b136ea224fe,,,,,,,,,4173,20,46,1,0,0,response1disk,,7,14,5,1,0,0,rectangle,14,5,1,0,0,14,5,1,0,0,0,152,152,34,1,,,,,,,,
,,,,,,,,,,,,,FF,,,,,,,,1.45,,,,,,,,,,,,,,,,,,,,,,60ff3497dffa67c464bc2368,61036ef53c221507b344c669,2021-07-29_22h16.55.918,Simcolourproject_2stim_asymm_v5,2020.2.10,MacIntel,60,61025ae37ef11b136ea224fe,,,,,,,,,2066,15,73,1,0,0,response1disk,,7,0,8,1,0,0,rectangle,0,8,1,0,0,0,8,1,0,0,0,153,153,55,1,,,,,,,,
,,,,,,,,,,,,,FF,,,,,,,,0.932,,,,,,,,,,,,,,,,,,,,,,60ff3497dffa67c464bc2368,61036ef53c221507b344c669,2021-07-29_22h16.55.918,Simcolourproject_2stim_asymm_v5,2020.2.10,MacIntel,60,61025ae37ef11b136ea224fe,,,,,,,,,1345,38,-67,1,0,0,response3disk,,4,19,-3,1,0,0,rectangle,19,-3,1,0,0,19,-3,1,0,0,0,154,154,112,1,,,,,,,,
,,,,,,,,,,,,,FF,,,,,,,,0.832,,,,,,,,,,,,,,,,,,,,,,60ff3497dffa67c464bc2368,61036ef53c221507b344c669,2021-07-29_22h16.55.918,Simcolourproject_2stim_asymm_v5,2020.2.10,MacIntel,60,61025ae37ef11b136ea224fe,,,,,,,,,973,-60,-41,1,0,0,response5disk,,2,-14,6,1,0,0,rectangle,-14,6,1,0,0,-14,6,1,0,0,0,155,155,107,1,,,,,,,,
,,,,,,,,,,,,,FF,,,,,,,,0.75,,,,,,,,,,,,,,,,,,,,,,60ff3497dffa67c464bc2368,61036ef53c221507b344c669,2021-07-29_22h16.55.918,Simcolourproject_2stim_asymm_v5,2020.2.10,MacIntel,60,61025ae37ef11b136ea224fe,,,,,,,,,364,60,-29,1,0,0,response3disk,,5,3,0,1,0,0,rectangle,3,0,1,0,0,3,0,1,0,0,0,156,156,67,1,,,,,,,,
,,,,,,,,,,,,,FF,,,,,,,,0.55,,,,,,,,,,,,,,,,,,,,,,60ff3497dffa67c464bc2368,61036ef53c221507b344c669,2021-07-29_22h16.55.918,Simcolourproject_2stim_asymm_v5,2020.2.10,MacIntel,60,61025ae37ef11b136ea224fe,,,,,,,,,2751,39,-20,1,0,0,response3disk,,5,-1,-3,1,0,0,rectangle,-1,-3,1,0,0,-1,-3,1,0,0,0,157,157,108,1,,,,,,,,
,,,,,,,,,,,,,FF,,,,,,,,0.617,,,,,,,,,,,,,,,,,,,,,,60ff3497dffa67c464bc2368,61036ef53c221507b344c669,2021-07-29_22h16.55.918,Simcolourproject_2stim_asymm_v5,2020.2.10,MacIntel,60,61025ae37ef11b136ea224fe,,,,,,,,,4323,68,-37,1,0,0,response3disk,,5,13,-9,1,0,0,rectangle,13,-9,1,0,0,13,-9,1,0,0,0,158,158,70,1,,,,,,,,
,,,,,,,,,,,,,FF,,,,,,,,0.934,,,,,,,,,,,,,,,,,,,,,,60ff3497dffa67c464bc2368,61036ef53c221507b344c669,2021-07-29_22h16.55.918,Simcolourproject_2stim_asymm_v5,2020.2.10,MacIntel,60,61025ae37ef11b136ea224fe,,,,,,,,,64,19,-93,1,0,0,response3disk,,4,-9,-11,1,0,0,rectangle,-9,-11,1,0,0,-9,-11,1,0,0,0,159,159,134,1,,,,,,,,
,,,,,,,,,,,,,FF,,,,,,,,1.067,,,,,,,,,,,,,,,,,,,,,,60ff3497dffa67c464bc2368,61036ef53c221507b344c669,2021-07-29_22h16.55.918,Simcolourproject_2stim_asymm_v5,2020.2.10,MacIntel,60,61025ae37ef11b136ea224fe,,,,,,,,,196,-24,-57,1,0,0,response5disk,,3,-16,-7,1,0,0,rectangle,-16,-7,1,0,0,-16,-7,1,0,0,1,0,160,22,1,,,,,,,,
,,,,,,,,,,,,,FF,,,,,,,,0.616,,,,,,,,,,,,,,,,,,,,,,60ff3497dffa67c464bc2368,61036ef53c221507b344c669,2021-07-29_22h16.55.918,Simcolourproject_2stim_asymm_v5,2020.2.10,MacIntel,60,61025ae37ef11b136ea224fe,,,,,,,,,3218,-18,-44,1,0,0,response5disk,,3,-10,-7,1,0,0,rectangle,-10,-7,1,0,0,-10,-7,1,0,0,1,1,161,9,1,,,,,,,,
,,,,,,,,,,,,,FF,,,,,,,,0.55,,,,,,,,,,,,,,,,,,,,,,60ff3497dffa67c464bc2368,61036ef53c221507b344c669,2021-07-29_22h16.55.918,Simcolourproject_2stim_asymm_v5,2020.2.10,MacIntel,60,61025ae37ef11b136ea224fe,,,,,,,,,458,-61,-30,1,0,0,response5disk,,2,-16,-8,1,0,0,rectangle,-16,-8,1,0,0,-16,-8,1,0,0,1,2,162,34,1,,,,,,,,
,,,,,,,,,,,,,FF,,,,,,,,0.55,,,,,,,,,,,,,,,,,,,,,,60ff3497dffa67c464bc2368,61036ef53c221507b344c669,2021-07-29_22h16.55.918,Simcolourproject_2stim_asymm_v5,2020.2.10,MacIntel,60,61025ae37ef11b136ea224fe,,,,,,,,,3253,60,-43,1,0,0,response3disk,,5,16,-10,1,0,0,rectangle,16,-10,1,0,0,16,-10,1,0,0,1,3,163,20,1,,,,,,,,
,,,,,,,,,,,,,FF,,,,,,,,0.833,,,,,,,,,,,,,,,,,,,,,,60ff3497dffa67c464bc2368,61036ef53c221507b344c669,2021-07-29_22h16.55.918,Simcolourproject_2stim_asymm_v5,2020.2.10,MacIntel,60,61025ae37ef11b136ea224fe,,,,,,,,,2801,30,-59,1,0,0,response3disk,,4,7,-3,1,0,0,rectangle,7,-3,1,0,0,7,-3,1,0,0,1,4,164,84,1,,,,,,,,
,,,,,,,,,,,,,FF,,,,,,,,0.867,,,,,,,,,,,,,,,,,,,,,,60ff3497dffa67c464bc2368,61036ef53c221507b344c669,2021-07-29_22h16.55.918,Simcolourproject_2stim_asymm_v5,2020.2.10,MacIntel,60,61025ae37ef11b136ea224fe,,,,,,,,,4052,-58,40,1,0,0,response7disk,,1,-17,16,1,0,0,rectangle,-17,16,1,0,0,-17,16,1,0,0,1,5,165,133,1,,,,,,,,
,,,,,,,,,,,,,FF,,,,,,,,1.234,,,,,,,,,,,,,,,,,,,,,,60ff3497dffa67c464bc2368,61036ef53c221507b344c669,2021-07-29_22h16.55.918,Simcolourproject_2stim_asymm_v5,2020.2.10,MacIntel,60,61025ae37ef11b136ea224fe,,,,,,,,,1982,26,-57,1,0,0,response3disk,,4,18,-8,1,0,0,rectangle,18,-8,1,0,0,18,-8,1,0,0,1,6,166,139,1,,,,,,,,
,,,,,,,,,,,,,FF,,,,,,,,1.032,,,,,,,,,,,,,,,,,,,,,,60ff3497dffa67c464bc2368,61036ef53c221507b344c669,2021-07-29_22h16.55.918,Simcolourproject_2stim_asymm_v5,2020.2.10,MacIntel,60,61025ae37ef11b136ea224fe,,,,,,,,,953,-24,-39,1,0,0,response5disk,,3,-9,-6,1,0,0,rectangle,-9,-6,1,0,0,-9,-6,1,0,0,1,7,167,142,1,,,,,,,,
,,,,,,,,,,,,,FF,,,,,,,,0.699,,,,,,,,,,,,,,,,,,,,,,60ff3497dffa67c464bc2368,61036ef53c221507b344c669,2021-07-29_22h16.55.918,Simcolourproject_2stim_asymm_v5,2020.2.10,MacIntel,60,61025ae37ef11b136ea224fe,,,,,,,,,777,48,-37,1,0,0,response3disk,,5,5,-9,1,0,0,rectangle,5,-9,1,0,0,5,-9,1,0,0,1,8,168,40,1,,,,,,,,
,,,,,,,,,,,,,FF,,,,,,,,0.8,,,,,,,,,,,,,,,,,,,,,,60ff3497dffa67c464bc2368,61036ef53c221507b344c669,2021-07-29_22h16.55.918,Simcolourproject_2stim_asymm_v5,2020.2.10,MacIntel,60,61025ae37ef11b136ea224fe,,,,,,,,,4123,-46,-27,1,0,0,response5disk,,2,-17,-10,1,0,0,rectangle,-17,-10,1,0,0,-17,-10,1,0,0,1,9,169,17,1,,,,,,,,
,,,,,,,,,,,,,FF,,,,,,,,0.866,,,,,,,,,,,,,,,,,,,,,,60ff3497dffa67c464bc2368,61036ef53c221507b344c669,2021-07-29_22h16.55.918,Simcolourproject_2stim_asymm_v5,2020.2.10,MacIntel,60,61025ae37ef11b136ea224fe,,,,,,,,,800,41,22,1,0,0,response1disk,,6,-4,9,1,0,0,rectangle,-4,9,1,0,0,-4,9,1,0,0,1,10,170,104,1,,,,,,,,
,,,,,,,,,,,,,FF,,,,,,,,1.016,,,,,,,,,,,,,,,,,,,,,,60ff3497dffa67c464bc2368,61036ef53c221507b344c669,2021-07-29_22h16.55.918,Simcolourproject_2stim_asymm_v5,2020.2.10,MacIntel,60,61025ae37ef11b136ea224fe,,,,,,,,,3016,65,-43,1,0,0,response3disk,,5,12,1,1,0,0,rectangle,12,1,1,0,0,12,1,1,0,0,1,11,171,4,1,,,,,,,,
,,,,,,,,,,,,,FF,,,,,,,,0.9,,,,,,,,,,,,,,,,,,,,,,60ff3497dffa67c464bc2368,61036ef53c221507b344c669,2021-07-29_22h16.55.918,Simcolourproject_2stim_asymm_v5,2020.2.10,MacIntel,60,61025ae37ef11b136ea224fe,,,,,,,,,3989,34,-60,1,0,0,response3disk,,4,21,-4,1,0,0,rectangle,21,-4,1,0,0,21,-4,1,0,0,1,12,172,99,1,,,,,,,,
,,,,,,,,,,,,,FF,,,,,,,,1.083,,,,,,,,,,,,,,,,,,,,,,60ff3497dffa67c464bc2368,61036ef53c221507b344c669,2021-07-29_22h16.55.918,Simcolourproject_2stim_asymm_v5,2020.2.10,MacIntel,60,61025ae37ef11b136ea224fe,,,,,,,,,1812,-58,-25,1,0,0,response5disk,,2,-12,-18,1,0,0,rectangle,-12,-18,1,0,0,-12,-18,1,0,0,1,13,173,97,1,,,,,,,,
,,,,,,,,,,,,,FF,,,,,,,,0.832,,,,,,,,,,,,,,,,,,,,,,60ff3497dffa67c464bc2368,61036ef53c221507b344c669,2021-07-29_22h16.55.918,Simcolourproject_2stim_asymm_v5,2020.2.10,MacIntel,60,61025ae37ef11b136ea224fe,,,,,,,,,2874,44,28,1,0,0,response1disk,,6,-6,8,1,0,0,rectangle,-6,8,1,0,0,-6,8,1,0,0,1,14,174,117,1,,,,,,,,
,,,,,,,,,,,,,FF,,,,,,,,0.683,,,,,,,,,,,,,,,,,,,,,,60ff3497dffa67c464bc2368,61036ef53c221507b344c669,2021-07-29_22h16.55.918,Simcolourproject_2stim_asymm_v5,2020.2.10,MacIntel,60,61025ae37ef11b136ea224fe,,,,,,,,,2028,-45,25,1,0,0,response7disk,,1,-7,12,1,0,0,rectangle,-7,12,1,0,0,-7,12,1,0,0,1,15,175,57,1,,,,,,,,
,,,,,,,,,,,,,FF,,,,,,,,0.916,,,,,,,,,,,,,,,,,,,,,,60ff3497dffa67c464bc2368,61036ef53c221507b344c669,2021-07-29_22h16.55.918,Simcolourproject_2stim_asymm_v5,2020.2.10,MacIntel,60,61025ae37ef11b136ea224fe,,,,,,,,,3711,-44,52,1,0,0,response7disk,,0,-14,3,1,0,0,rectangle,-14,3,1,0,0,-14,3,1,0,0,1,16,176,7,1,,,,,,,,
,,,,,,,,,,,,,FF,,,,,,,,1.167,,,,,,,,,,,,,,,,,,,,,,60ff3497dffa67c464bc2368,61036ef53c221507b344c669,2021-07-29_22h16.55.918,Simcolourproject_2stim_asymm_v5,2020.2.10,MacIntel,60,61025ae37ef11b136ea224fe,,,,,,,,,3788,-41,-28,1,0,0,response5disk,,2,-9,-18,1,0,0,rectangle,-9,-18,1,0,0,-9,-18,1,0,0,1,17,177,41,1,,,,,,,,
,,,,,,,,,,,,,FF,,,,,,,,0.9,,,,,,,,,,,,,,,,,,,,,,60ff3497dffa67c464bc2368,61036ef53c221507b344c669,2021-07-29_22h16.55.918,Simcolourproject_2stim_asymm_v5,2020.2.10,MacIntel,60,61025ae37ef11b136ea224fe,,,,,,,,,172,-50,15,1,0,0,response7disk,,1,-10,-2,1,0,0,rectangle,76,42,1,0,0,35,17,1,0,0,1,18,178,113,1,,response1disk_3,TRUE,6,6,"[298,145,284,92,67,183,200,312,277,273,262,179,261,124,206,315,110,67,217,299]",1.816,rectangle
,,,,,,,,,,,,,FF,,,,,,,,1.083,,,,,,,,,,,,,,,,,,,,,,60ff3497dffa67c464bc2368,61036ef53c221507b344c669,2021-07-29_22h16.55.918,Simcolourproject_2stim_asymm_v5,2020.2.10,MacIntel,60,61025ae37ef11b136ea224fe,,,,,,,,,782,47,-28,1,0,0,response3disk,,5,18,-4,1,0,0,rectangle,18,-4,1,0,0,18,-4,1,0,0,1,19,179,46,1,,,,,,,,
,,,,,,,,,,,,,FF,,,,,,,,0.799,,,,,,,,,,,,,,,,,,,,,,60ff3497dffa67c464bc2368,61036ef53c221507b344c669,2021-07-29_22h16.55.918,Simcolourproject_2stim_asymm_v5,2020.2.10,MacIntel,60,61025ae37ef11b136ea224fe,,,,,,,,,2927,59,23,1,0,0,response1disk,,6,8,-3,1,0,0,rectangle,8,-3,1,0,0,8,-3,1,0,0,1,20,180,49,1,,,,,,,,
,,,,,,,,,,,,,FF,,,,,,,,0.716,,,,,,,,,,,,,,,,,,,,,,60ff3497dffa67c464bc2368,61036ef53c221507b344c669,2021-07-29_22h16.55.918,Simcolourproject_2stim_asymm_v5,2020.2.10,MacIntel,60,61025ae37ef11b136ea224fe,,,,,,,,,1002,31,-39,1,0,0,response3disk,,4,-3,-1,1,0,0,rectangle,-3,-1,1,0,0,-3,-1,1,0,0,1,21,181,128,1,,,,,,,,
,,,,,,,,,,,,,FF,,,,,,,,0.75,,,,,,,,,,,,,,,,,,,,,,60ff3497dffa67c464bc2368,61036ef53c221507b344c669,2021-07-29_22h16.55.918,Simcolourproject_2stim_asymm_v5,2020.2.10,MacIntel,60,61025ae37ef11b136ea224fe,,,,,,,,,1036,-30,-51,1,0,0,response5disk,,3,-11,-8,1,0,0,rectangle,-74,50,1,0,0,-19,3,1,0,0,1,22,182,76,1,,response7disk_3,TRUE,1,1,"[298,145,284,92,67,183,200,312,277,273,262,179,261,124,206,315,110,67,217,299]",1.666,rectangle
,,,,,,,,,,,,,FF,,,,,,,,0.834,,,,,,,,,,,,,,,,,,,,,,60ff3497dffa67c464bc2368,61036ef53c221507b344c669,2021-07-29_22h16.55.918,Simcolourproject_2stim_asymm_v5,2020.2.10,MacIntel,60,61025ae37ef11b136ea224fe,,,,,,,,,4186,-29,-61,1,0,0,response5disk,,3,-13,-11,1,0,0,rectangle,-13,-11,1,0,0,-13,-11,1,0,0,1,23,183,1,1,,,,,,,,
,,,,,,,,,,,,,FF,,,,,,,,0.834,,,,,,,,,,,,,,,,,,,,,,60ff3497dffa67c464bc2368,61036ef53c221507b344c669,2021-07-29_22h16.55.918,Simcolourproject_2stim_asymm_v5,2020.2.10,MacIntel,60,61025ae37ef11b136ea224fe,,,,,,,,,1759,-66,-28,1,0,0,response5disk,,2,-27,-6,1,0,0,rectangle,-27,-6,1,0,0,-27,-6,1,0,0,1,24,184,96,1,,,,,,,,
,,,,,,,,,,,,,FF,,,,,,,,0.966,,,,,,,,,,,,,,,,,,,,,,60ff3497dffa67c464bc2368,61036ef53c221507b344c669,2021-07-29_22h16.55.918,Simcolourproject_2stim_asymm_v5,2020.2.10,MacIntel,60,61025ae37ef11b136ea224fe,,,,,,,,,2800,-52,16,1,0,0,response7disk,,1,-16,6,1,0,0,rectangle,-16,6,1,0,0,-16,6,1,0,0,1,25,185,5,1,,,,,,,,
,,,,,,,,,,,,,FF,,,,,,,,0.783,,,,,,,,,,,,,,,,,,,,,,60ff3497dffa67c464bc2368,61036ef53c221507b344c669,2021-07-29_22h16.55.918,Simcolourproject_2stim_asymm_v5,2020.2.10,MacIntel,60,61025ae37ef11b136ea224fe,,,,,,,,,3172,75,-53,1,0,0,response3disk,,5,12,-9,1,0,0,rectangle,12,-9,1,0,0,12,-9,1,0,0,1,26,186,68,1,,,,,,,,
,,,,,,,,,,,,,FF,,,,,,,,1.167,,,,,,,,,,,,,,,,,,,,,,60ff3497dffa67c464bc2368,61036ef53c221507b344c669,2021-07-29_22h16.55.918,Simcolourproject_2stim_asymm_v5,2020.2.10,MacIntel,60,61025ae37ef11b136ea224fe,,,,,,,,,651,18,-71,1,0,0,response3disk,,4,-5,-13,1,0,0,rectangle,-5,-13,1,0,0,-5,-13,1,0,0,1,27,187,131,1,,,,,,,,
,,,,,,,,,,,,,FF,,,,,,,,1.017,,,,,,,,,,,,,,,,,,,,,,60ff3497dffa67c464bc2368,61036ef53c221507b344c669,2021-07-29_22h16.55.918,Simcolourproject_2stim_asymm_v5,2020.2.10,MacIntel,60,61025ae37ef11b136ea224fe,,,,,,,,,2894,-50,61,1,0,0,response7disk,,0,-15,7,1,0,0,rectangle,-15,7,1,0,0,-15,7,1,0,0,1,28,188,62,1,,,,,,,,
,,,,,,,,,,,,,FF,,,,,,,,0.883,,,,,,,,,,,,,,,,,,,,,,60ff3497dffa67c464bc2368,61036ef53c221507b344c669,2021-07-29_22h16.55.918,Simcolourproject_2stim_asymm_v5,2020.2.10,MacIntel,60,61025ae37ef11b136ea224fe,,,,,,,,,2019,-33,-32,1,0,0,response5disk,,2,-31,8,1,0,0,rectangle,-31,8,1,0,0,-31,8,1,0,0,1,29,189,132,1,,,,,,,,
,,,,,,,,,,,,,FF,,,,,,,,0.884,,,,,,,,,,,,,,,,,,,,,,60ff3497dffa67c464bc2368,61036ef53c221507b344c669,2021-07-29_22h16.55.918,Simcolourproject_2stim_asymm_v5,2020.2.10,MacIntel,60,61025ae37ef11b136ea224fe,,,,,,,,,539,58,45,1,0,0,response1disk,,6,-7,2,1,0,0,rectangle,-7,2,1,0,0,-7,2,1,0,0,1,30,190,16,1,,,,,,,,
,,,,,,,,,,,,,FF,,,,,,,,0.632,,,,,,,,,,,,,,,,,,,,,,60ff3497dffa67c464bc2368,61036ef53c221507b344c669,2021-07-29_22h16.55.918,Simcolourproject_2stim_asymm_v5,2020.2.10,MacIntel,60,61025ae37ef11b136ea224fe,,,,,,,,,2335,24,57,1,0,0,response1disk,,7,5,0,1,0,0,rectangle,5,0,1,0,0,5,0,1,0,0,1,31,191,89,1,,,,,,,,
,,,,,,,,,,,,,FF,,,,,,,,0.734,,,,,,,,,,,,,,,,,,,,,,60ff3497dffa67c464bc2368,61036ef53c221507b344c669,2021-07-29_22h16.55.918,Simcolourproject_2stim_asymm_v5,2020.2.10,MacIntel,60,61025ae37ef11b136ea224fe,,,,,,,,,1657,52,-43,1,0,0,response3disk,,5,-25,0,1,0,0,rectangle,-25,0,1,0,0,-25,0,1,0,0,1,32,192,30,1,,,,,,,,
,,,,,,,,,,,,,FF,,,,,,,,0.698,,,,,,,,,,,,,,,,,,,,,,60ff3497dffa67c464bc2368,61036ef53c221507b344c669,2021-07-29_22h16.55.918,Simcolourproject_2stim_asymm_v5,2020.2.10,MacIntel,60,61025ae37ef11b136ea224fe,,,,,,,,,3685,63,-35,1,0,0,response3disk,,5,14,0,1,0,0,rectangle,14,0,1,0,0,14,0,1,0,0,1,33,193,64,1,,,,,,,,
,,,,,,,,,,,,,FF,,,,,,,,0.7,,,,,,,,,,,,,,,,,,,,,,60ff3497dffa67c464bc2368,61036ef53c221507b344c669,2021-07-29_22h16.55.918,Simcolourproject_2stim_asymm_v5,2020.2.10,MacIntel,60,61025ae37ef11b136ea224fe,,,,,,,,,1784,31,-65,1,0,0,response3disk,,4,18,-5,1,0,0,rectangle,18,-5,1,0,0,18,-5,1,0,0,1,34,194,59,1,,,,,,,,
,,,,,,,,,,,,,FF,,,,,,,,0.517,,,,,,,,,,,,,,,,,,,,,,60ff3497dffa67c464bc2368,61036ef53c221507b344c669,2021-07-29_22h16.55.918,Simcolourproject_2stim_asymm_v5,2020.2.10,MacIntel,60,61025ae37ef11b136ea224fe,,,,,,,,,2129,41,-55,1,0,0,response3disk,,4,28,-11,1,0,0,rectangle,28,-11,1,0,0,28,-11,1,0,0,1,35,195,31,1,,,,,,,,
,,,,,,,,,,,,,FF,,,,,,,,0.449,,,,,,,,,,,,,,,,,,,,,,60ff3497dffa67c464bc2368,61036ef53c221507b344c669,2021-07-29_22h16.55.918,Simcolourproject_2stim_asymm_v5,2020.2.10,MacIntel,60,61025ae37ef11b136ea224fe,,,,,,,,,4199,43,-68,1,0,0,response3disk,,4,25,-7,1,0,0,rectangle,25,-7,1,0,0,25,-7,1,0,0,1,36,196,71,1,,,,,,,,
,,,,,,,,,,,,,FF,,,,,,,,0.867,,,,,,,,,,,,,,,,,,,,,,60ff3497dffa67c464bc2368,61036ef53c221507b344c669,2021-07-29_22h16.55.918,Simcolourproject_2stim_asymm_v5,2020.2.10,MacIntel,60,61025ae37ef11b136ea224fe,,,,,,,,,3200,-77,-28,1,0,0,response5disk,,2,-25,-2,1,0,0,rectangle,-25,-2,1,0,0,-25,-2,1,0,0,1,37,197,44,1,,,,,,,,
,,,,,,,,,,,,,FF,,,,,,,,1.415,,,,,,,,,,,,,,,,,,,,,,60ff3497dffa67c464bc2368,61036ef53c221507b344c669,2021-07-29_22h16.55.918,Simcolourproject_2stim_asymm_v5,2020.2.10,MacIntel,60,61025ae37ef11b136ea224fe,,,,,,,,,737,-49,-67,1,0,0,response5disk,,3,-16,1,1,0,0,rectangle,-16,1,1,0,0,-16,1,1,0,0,1,38,198,45,1,,,,,,,,
,,,,,,,,,,,,,FF,,,,,,,,0.817,,,,,,,,,,,,,,,,,,,,,,60ff3497dffa67c464bc2368,61036ef53c221507b344c669,2021-07-29_22h16.55.918,Simcolourproject_2stim_asymm_v5,2020.2.10,MacIntel,60,61025ae37ef11b136ea224fe,,,,,,,,,787,-25,-70,1,0,0,response5disk,,3,-16,5,1,0,0,rectangle,-64,-21,1,0,0,-27,-10,1,0,0,1,39,199,94,1,,response5disk_3,TRUE,2,2,"[298,145,284,92,67,183,200,312,277,273,262,179,261,124,206,315,110,67,217,299]",1.533,rectangle
,,,,,,,,,,,,,FF,,,,,,,,1.049,,,,,,,,,,,,,,,,,,,,,,60ff3497dffa67c464bc2368,61036ef53c221507b344c669,2021-07-29_22h16.55.918,Simcolourproject_2stim_asymm_v5,2020.2.10,MacIntel,60,61025ae37ef11b136ea224fe,,,,,,,,,3775,49,-30,1,0,0,response3disk,,5,-16,-7,1,0,0,rectangle,-16,-7,1,0,0,-16,-7,1,0,0,1,40,200,144,1,,,,,,,,
,,,,,,,,,,,,,FF,,,,,,,,0.651,,,,,,,,,,,,,,,,,,,,,,60ff3497dffa67c464bc2368,61036ef53c221507b344c669,2021-07-29_22h16.55.918,Simcolourproject_2stim_asymm_v5,2020.2.10,MacIntel,60,61025ae37ef11b136ea224fe,,,,,,,,,3824,-16,-54,1,0,0,response5disk,,3,-11,3,1,0,0,rectangle,-11,3,1,0,0,-11,3,1,0,0,1,41,201,110,1,,,,,,,,
,,,,,,,,,,,,,FF,,,,,,,,0.733,,,,,,,,,,,,,,,,,,,,,,60ff3497dffa67c464bc2368,61036ef53c221507b344c669,2021-07-29_22h16.55.918,Simcolourproject_2stim_asymm_v5,2020.2.10,MacIntel,60,61025ae37ef11b136ea224fe,,,,,,,,,2255,55,-74,1,0,0,response3disk,,4,26,0,1,0,0,rectangle,26,0,1,0,0,26,0,1,0,0,1,42,202,23,1,,,,,,,,
,,,,,,,,,,,,,FF,,,,,,,,0.699,,,,,,,,,,,,,,,,,,,,,,60ff3497dffa67c464bc2368,61036ef53c221507b344c669,2021-07-29_22h16.55.918,Simcolourproject_2stim_asymm_v5,2020.2.10,MacIntel,60,61025ae37ef11b136ea224fe,,,,,,,,,2981,60,-33,1,0,0,response3disk,,5,2,3,1,0,0,rectangle,2,3,1,0,0,2,3,1,0,0,1,43,203,95,1,,,,,,,,
,,,,,,,,,,,,,FF,,,,,,,,0.768,,,,,,,,,,,,,,,,,,,,,,60ff3497dffa67c464bc2368,61036ef53c221507b344c669,2021-07-29_22h16.55.918,Simcolourproject_2stim_asymm_v5,2020.2.10,MacIntel,60,61025ae37ef11b136ea224fe,,,,,,,,,1580,-27,-49,1,0,0,response5disk,,3,-17,5,1,0,0,rectangle,-17,5,1,0,0,-17,5,1,0,0,1,44,204,58,1,,,,,,,,
,,,,,,,,,,,,,FF,,,,,,,,0.733,,,,,,,,,,,,,,,,,,,,,,60ff3497dffa67c464bc2368,61036ef53c221507b344c669,2021-07-29_22h16.55.918,Simcolourproject_2stim_asymm_v5,2020.2.10,MacIntel,60,61025ae37ef11b136ea224fe,,,,,,,,,3060,-52,-21,1,0,0,response5disk,,2,-12,1,1,0,0,rectangle,-30,58,1,0,0,-10,1,1,0,0,1,45,205,65,1,,response7disk_3,TRUE,0,0,"[298,145,284,92,67,183,200,312,277,273,262,179,261,124,206,315,110,67,217,299]",1.832,rectangle
,,,,,,,,,,,,,FF,,,,,,,,0.999,,,,,,,,,,,,,,,,,,,,,,60ff3497dffa67c464bc2368,61036ef53c221507b344c669,2021-07-29_22h16.55.918,Simcolourproject_2stim_asymm_v5,2020.2.10,MacIntel,60,61025ae37ef11b136ea224fe,,,,,,,,,1095,54,30,1,0,0,response1disk,,6,7,-1,1,0,0,rectangle,7,-1,1,0,0,7,-1,1,0,0,1,46,206,72,1,,,,,,,,
,,,,,,,,,,,,,FF,,,,,,,,0.999,,,,,,,,,,,,,,,,,,,,,,60ff3497dffa67c464bc2368,61036ef53c221507b344c669,2021-07-29_22h16.55.918,Simcolourproject_2stim_asymm_v5,2020.2.10,MacIntel,60,61025ae37ef11b136ea224fe,,,,,,,,,3034,-36,-50,1,0,0,response5disk,,3,-16,-3,1,0,0,rectangle,-16,-3,1,0,0,-16,-3,1,0,0,1,47,207,78,1,,,,,,,,
,,,,,,,,,,,,,FF,,,,,,,,1.183,,,,,,,,,,,,,,,,,,,,,,60ff3497dffa67c464bc2368,61036ef53c221507b344c669,2021-07-29_22h16.55.918,Simcolourproject_2stim_asymm_v5,2020.2.10,MacIntel,60,61025ae37ef11b136ea224fe,,,,,,,,,3221,61,32,1,0,0,response1disk,,6,18,6,1,0,0,rectangle,18,6,1,0,0,18,6,1,0,0,1,48,208,2,1,,,,,,,,
,,,,,,,,,,,,,FF,,,,,,,,0.801,,,,,,,,,,,,,,,,,,,,,,60ff3497dffa67c464bc2368,61036ef53c221507b344c669,2021-07-29_22h16.55.918,Simcolourproject_2stim_asymm_v5,2020.2.10,MacIntel,60,61025ae37ef11b136ea224fe,,,,,,,,,2189,46,-61,1,0,0,response3disk,,4,20,14,1,0,0,rectangle,20,14,1,0,0,20,14,1,0,0,1,49,209,21,1,,,,,,,,
,,,,,,,,,,,,,FF,,,,,,,,0.899,,,,,,,,,,,,,,,,,,,,,,60ff3497dffa67c464bc2368,61036ef53c221507b344c669,2021-07-29_22h16.55.918,Simcolourproject_2stim_asymm_v5,2020.2.10,MacIntel,60,61025ae37ef11b136ea224fe,,,,,,,,,2611,-41,43,1,0,0,response7disk,,0,-1,9,1,0,0,rectangle,-1,9,1,0,0,-1,9,1,0,0,1,50,210,48,1,,,,,,,,
,,,,,,,,,,,,,FF,,,,,,,,1.016,,,,,,,,,,,,,,,,,,,,,,60ff3497dffa67c464bc2368,61036ef53c221507b344c669,2021-07-29_22h16.55.918,Simcolourproject_2stim_asymm_v5,2020.2.10,MacIntel,60,61025ae37ef11b136ea224fe,,,,,,,,,2022,-27,-79,1,0,0,response5disk,,3,-16,-4,1,0,0,rectangle,-16,-4,1,0,0,-16,-4,1,0,0,1,51,211,148,1,,,,,,,,
,,,,,,,,,,,,,FF,,,,,,,,1.267,,,,,,,,,,,,,,,,,,,,,,60ff3497dffa67c464bc2368,61036ef53c221507b344c669,2021-07-29_22h16.55.918,Simcolourproject_2stim_asymm_v5,2020.2.10,MacIntel,60,61025ae37ef11b136ea224fe,,,,,,,,,1216,-25,-62,1,0,0,response5disk,,3,-8,-6,1,0,0,rectangle,-8,-6,1,0,0,-8,-6,1,0,0,1,52,212,154,1,,,,,,,,
,,,,,,,,,,,,,FF,,,,,,,,1.117,,,,,,,,,,,,,,,,,,,,,,60ff3497dffa67c464bc2368,61036ef53c221507b344c669,2021-07-29_22h16.55.918,Simcolourproject_2stim_asymm_v5,2020.2.10,MacIntel,60,61025ae37ef11b136ea224fe,,,,,,,,,262,-46,26,1,0,0,response7disk,,1,-23,13,1,0,0,rectangle,-23,13,1,0,0,-23,13,1,0,0,1,53,213,90,1,,,,,,,,
,,,,,,,,,,,,,FF,,,,,,,,1.45,,,,,,,,,,,,,,,,,,,,,,60ff3497dffa67c464bc2368,61036ef53c221507b344c669,2021-07-29_22h16.55.918,Simcolourproject_2stim_asymm_v5,2020.2.10,MacIntel,60,61025ae37ef11b136ea224fe,,,,,,,,,613,-56,30,1,0,0,response7disk,,1,-20,-18,1,0,0,rectangle,-20,-18,1,0,0,-20,-18,1,0,0,1,54,214,146,1,,,,,,,,
,,,,,,,,,,,,,FF,,,,,,,,0.833,,,,,,,,,,,,,,,,,,,,,,60ff3497dffa67c464bc2368,61036ef53c221507b344c669,2021-07-29_22h16.55.918,Simcolourproject_2stim_asymm_v5,2020.2.10,MacIntel,60,61025ae37ef11b136ea224fe,,,,,,,,,4334,26,52,1,0,0,response1disk,,7,5,8,1,0,0,rectangle,5,8,1,0,0,5,8,1,0,0,1,55,215,100,1,,,,,,,,
,,,,,,,,,,,,,FF,,,,,,,,0.733,,,,,,,,,,,,,,,,,,,,,,60ff3497dffa67c464bc2368,61036ef53c221507b344c669,2021-07-29_22h16.55.918,Simcolourproject_2stim_asymm_v5,2020.2.10,MacIntel,60,61025ae37ef11b136ea224fe,,,,,,,,,3760,35,-47,1,0,0,response3disk,,4,5,12,1,0,0,rectangle,-57,32,1,0,0,-15,0,1,0,0,1,56,216,18,1,,response7disk_3,TRUE,1,1,"[298,145,284,92,67,183,200,312,277,273,262,179,261,124,206,315,110,67,217,299]",1.832,rectangle
,,,,,,,,,,,,,FF,,,,,,,,1.001,,,,,,,,,,,,,,,,,,,,,,60ff3497dffa67c464bc2368,61036ef53c221507b344c669,2021-07-29_22h16.55.918,Simcolourproject_2stim_asymm_v5,2020.2.10,MacIntel,60,61025ae37ef11b136ea224fe,,,,,,,,,162,-42,-21,1,0,0,response5disk,,2,-16,-13,1,0,0,rectangle,-16,-13,1,0,0,-16,-13,1,0,0,1,57,217,91,1,,,,,,,,
,,,,,,,,,,,,,FF,,,,,,,,0.899,,,,,,,,,,,,,,,,,,,,,,60ff3497dffa67c464bc2368,61036ef53c221507b344c669,2021-07-29_22h16.55.918,Simcolourproject_2stim_asymm_v5,2020.2.10,MacIntel,60,61025ae37ef11b136ea224fe,,,,,,,,,761,45,19,1,0,0,response1disk,,6,8,3,1,0,0,rectangle,8,3,1,0,0,8,3,1,0,0,1,58,218,85,1,,,,,,,,
,,,,,,,,,,,,,FF,,,,,,,,0.916,,,,,,,,,,,,,,,,,,,,,,60ff3497dffa67c464bc2368,61036ef53c221507b344c669,2021-07-29_22h16.55.918,Simcolourproject_2stim_asymm_v5,2020.2.10,MacIntel,60,61025ae37ef11b136ea224fe,,,,,,,,,599,-31,-42,1,0,0,response5disk,,3,-29,-8,1,0,0,rectangle,-29,-8,1,0,0,-29,-8,1,0,0,1,59,219,38,1,,,,,,,,
,,,,,,,,,,,,,FF,,,,,,,,0.851,,,,,,,,,,,,,,,,,,,,,,60ff3497dffa67c464bc2368,61036ef53c221507b344c669,2021-07-29_22h16.55.918,Simcolourproject_2stim_asymm_v5,2020.2.10,MacIntel,60,61025ae37ef11b136ea224fe,,,,,,,,,4241,-26,-45,1,0,0,response5disk,,3,-23,14,1,0,0,rectangle,-23,14,1,0,0,-23,14,1,0,0,1,60,220,122,1,,,,,,,,
,,,,,,,,,,,,,FF,,,,,,,,0.768,,,,,,,,,,,,,,,,,,,,,,60ff3497dffa67c464bc2368,61036ef53c221507b344c669,2021-07-29_22h16.55.918,Simcolourproject_2stim_asymm_v5,2020.2.10,MacIntel,60,61025ae37ef11b136ea224fe,,,,,,,,,1837,-24,-47,1,0,0,response5disk,,3,-23,-5,1,0,0,rectangle,-23,-5,1,0,0,-23,-5,1,0,0,1,61,221,11,1,,,,,,,,
,,,,,,,,,,,,,FF,,,,,,,,0.867,,,,,,,,,,,,,,,,,,,,,,60ff3497dffa67c464bc2368,61036ef53c221507b344c669,2021-07-29_22h16.55.918,Simcolourproject_2stim_asymm_v5,2020.2.10,MacIntel,60,61025ae37ef11b136ea224fe,,,,,,,,,2511,62,29,1,0,0,response1disk,,6,20,6,1,0,0,rectangle,20,6,1,0,0,20,6,1,0,0,1,62,222,0,1,,,,,,,,
,,,,,,,,,,,,,FF,,,,,,,,4.066,,,,,,,,,,,,,,,,,,,,,,60ff3497dffa67c464bc2368,61036ef53c221507b344c669,2021-07-29_22h16.55.918,Simcolourproject_2stim_asymm_v5,2020.2.10,MacIntel,60,61025ae37ef11b136ea224fe,,,,,,,,,1361,28,-75,1,0,0,response3disk,,4,11,-8,1,0,0,rectangle,11,-8,1,0,0,11,-8,1,0,0,1,63,223,107,1,,,,,,,,
,,,,,,,,,,,,,FF,,,,,,,,0.849,,,,,,,,,,,,,,,,,,,,,,60ff3497dffa67c464bc2368,61036ef53c221507b344c669,2021-07-29_22h16.55.918,Simcolourproject_2stim_asymm_v5,2020.2.10,MacIntel,60,61025ae37ef11b136ea224fe,,,,,,,,,2435,44,-28,1,0,0,response3disk,,5,6,1,1,0,0,rectangle,6,1,1,0,0,6,1,1,0,0,1,64,224,150,1,,,,,,,,
,,,,,,,,,,,,,FF,,,,,,,,1.5,,,,,,,,,,,,,,,,,,,,,,60ff3497dffa67c464bc2368,61036ef53c221507b344c669,2021-07-29_22h16.55.918,Simcolourproject_2stim_asymm_v5,2020.2.10,MacIntel,60,61025ae37ef11b136ea224fe,,,,,,,,,3394,-57,-52,1,0,0,response5disk,,2,-16,-1,1,0,0,rectangle,-16,-1,1,0,0,-16,-1,1,0,0,1,65,225,153,1,,,,,,,,
,,,,,,,,,,,,,FF,,,,,,,,1,,,,,,,,,,,,,,,,,,,,,,60ff3497dffa67c464bc2368,61036ef53c221507b344c669,2021-07-29_22h16.55.918,Simcolourproject_2stim_asymm_v5,2020.2.10,MacIntel,60,61025ae37ef11b136ea224fe,,,,,,,,,298,49,-34,1,0,0,response3disk,,5,-15,-12,1,0,0,rectangle,-15,-12,1,0,0,-15,-12,1,0,0,1,66,226,51,1,,,,,,,,
,,,,,,,,,,,,,FF,,,,,,,,1.749,,,,,,,,,,,,,,,,,,,,,,60ff3497dffa67c464bc2368,61036ef53c221507b344c669,2021-07-29_22h16.55.918,Simcolourproject_2stim_asymm_v5,2020.2.10,MacIntel,60,61025ae37ef11b136ea224fe,,,,,,,,,189,36,-67,1,0,0,response3disk,,4,13,-9,1,0,0,rectangle,13,-9,1,0,0,13,-9,1,0,0,1,67,227,56,1,,,,,,,,
,,,,,,,,,,,,,FF,,,,,,,,0.749,,,,,,,,,,,,,,,,,,,,,,60ff3497dffa67c464bc2368,61036ef53c221507b344c669,2021-07-29_22h16.55.918,Simcolourproject_2stim_asymm_v5,2020.2.10,MacIntel,60,61025ae37ef11b136ea224fe,,,,,,,,,2810,-22,-46,1,0,0,response5disk,,3,-17,-11,1,0,0,rectangle,-17,-11,1,0,0,-17,-11,1,0,0,1,68,228,159,1,,,,,,,,
,,,,,,,,,,,,,FF,,,,,,,,1.25,,,,,,,,,,,,,,,,,,,,,,60ff3497dffa67c464bc2368,61036ef53c221507b344c669,2021-07-29_22h16.55.918,Simcolourproject_2stim_asymm_v5,2020.2.10,MacIntel,60,61025ae37ef11b136ea224fe,,,,,,,,,3764,35,-45,1,0,0,response3disk,,4,26,-5,1,0,0,rectangle,26,-5,1,0,0,26,-5,1,0,0,1,69,229,24,1,,,,,,,,
,,,,,,,,,,,,,FF,,,,,,,,0.6,,,,,,,,,,,,,,,,,,,,,,60ff3497dffa67c464bc2368,61036ef53c221507b344c669,2021-07-29_22h16.55.918,Simcolourproject_2stim_asymm_v5,2020.2.10,MacIntel,60,61025ae37ef11b136ea224fe,,,,,,,,,2820,70,27,1,0,0,response1disk,,6,30,11,1,0,0,rectangle,30,11,1,0,0,30,11,1,0,0,1,70,230,14,1,,,,,,,,
,,,,,,,,,,,,,FF,,,,,,,,0.967,,,,,,,,,,,,,,,,,,,,,,60ff3497dffa67c464bc2368,61036ef53c221507b344c669,2021-07-29_22h16.55.918,Simcolourproject_2stim_asymm_v5,2020.2.10,MacIntel,60,61025ae37ef11b136ea224fe,,,,,,,,,4297,36,-61,1,0,0,response3disk,,4,28,-3,1,0,0,rectangle,28,-3,1,0,0,28,-3,1,0,0,1,71,231,42,1,,,,,,,,
,,,,,,,,,,,,,FF,,,,,,,,0.715,,,,,,,,,,,,,,,,,,,,,,60ff3497dffa67c464bc2368,61036ef53c221507b344c669,2021-07-29_22h16.55.918,Simcolourproject_2stim_asymm_v5,2020.2.10,MacIntel,60,61025ae37ef11b136ea224fe,,,,,,,,,3337,-14,-49,1,0,0,response5disk,,3,-14,-3,1,0,0,rectangle,-14,-3,1,0,0,-14,-3,1,0,0,1,72,232,158,1,,,,,,,,
,,,,,,,,,,,,,FF,,,,,,,,1.101,,,,,,,,,,,,,,,,,,,,,,60ff3497dffa67c464bc2368,61036ef53c221507b344c669,2021-07-29_22h16.55.918,Simcolourproject_2stim_asymm_v5,2020.2.10,MacIntel,60,61025ae37ef11b136ea224fe,,,,,,,,,3320,40,76,1,0,0,response1disk,,7,15,10,1,0,0,rectangle,15,10,1,0,0,15,10,1,0,0,1,73,233,79,1,,,,,,,,
,,,,,,,,,,,,,FF,,,,,,,,1.034,,,,,,,,,,,,,,,,,,,,,,60ff3497dffa67c464bc2368,61036ef53c221507b344c669,2021-07-29_22h16.55.918,Simcolourproject_2stim_asymm_v5,2020.2.10,MacIntel,60,61025ae37ef11b136ea224fe,,,,,,,,,677,44,-39,1,0,0,response3disk,,5,-24,-2,1,0,0,rectangle,-24,-2,1,0,0,-24,-2,1,0,0,1,74,234,73,1,,,,,,,,
,,,,,,,,,,,,,FF,,,,,,,,0.65,,,,,,,,,,,,,,,,,,,,,,60ff3497dffa67c464bc2368,61036ef53c221507b344c669,2021-07-29_22h16.55.918,Simcolourproject_2stim_asymm_v5,2020.2.10,MacIntel,60,61025ae37ef11b136ea224fe,,,,,,,,,1199,-27,-52,1,0,0,response5disk,,3,-14,5,1,0,0,rectangle,-14,5,1,0,0,-14,5,1,0,0,1,75,235,32,1,,,,,,,,
,,,,,,,,,,,,,FF,,,,,,,,1.184,,,,,,,,,,,,,,,,,,,,,,60ff3497dffa67c464bc2368,61036ef53c221507b344c669,2021-07-29_22h16.55.918,Simcolourproject_2stim_asymm_v5,2020.2.10,MacIntel,60,61025ae37ef11b136ea224fe,,,,,,,,,1409,77,37,1,0,0,response1disk,,6,20,6,1,0,0,rectangle,20,6,1,0,0,20,6,1,0,0,1,76,236,81,1,,,,,,,,
,,,,,,,,,,,,,FF,,,,,,,,0.683,,,,,,,,,,,,,,,,,,,,,,60ff3497dffa67c464bc2368,61036ef53c221507b344c669,2021-07-29_22h16.55.918,Simcolourproject_2stim_asymm_v5,2020.2.10,MacIntel,60,61025ae37ef11b136ea224fe,,,,,,,,,1412,25,-56,1,0,0,response3disk,,4,9,-6,1,0,0,rectangle,9,-6,1,0,0,9,-6,1,0,0,1,77,237,129,1,,,,,,,,
,,,,,,,,,,,,,FF,,,,,,,,0.667,,,,,,,,,,,,,,,,,,,,,,60ff3497dffa67c464bc2368,61036ef53c221507b344c669,2021-07-29_22h16.55.918,Simcolourproject_2stim_asymm_v5,2020.2.10,MacIntel,60,61025ae37ef11b136ea224fe,,,,,,,,,3019,32,-45,1,0,0,response3disk,,4,11,0,1,0,0,rectangle,11,0,1,0,0,11,0,1,0,0,1,78,238,140,1,,,,,,,,
,,,,,,,,,,,,,FF,,,,,,,,0.717,,,,,,,,,,,,,,,,,,,,,,60ff3497dffa67c464bc2368,61036ef53c221507b344c669,2021-07-29_22h16.55.918,Simcolourproject_2stim_asymm_v5,2020.2.10,MacIntel,60,61025ae37ef11b136ea224fe,,,,,,,,,107,-22,-54,1,0,0,response5disk,,3,-12,-12,1,0,0,rectangle,-12,-12,1,0,0,-12,-12,1,0,0,1,79,239,86,1,,,,,,,,
,,,,,,,,,,,,,FF,,,,,,,,0.967,,,,,,,,,,,,,,,,,,,,,,60ff3497dffa67c464bc2368,61036ef53c221507b344c669,2021-07-29_22h16.55.918,Simcolourproject_2stim_asymm_v5,2020.2.10,MacIntel,60,61025ae37ef11b136ea224fe,,,,,,,,,1568,56,20,1,0,0,response1disk,,6,21,1,1,0,0,rectangle,21,1,1,0,0,21,1,1,0,0,1,80,240,54,1,,,,,,,,
,,,,,,,,,,,,,FF,,,,,,,,0.865,,,,,,,,,,,,,,,,,,,,,,60ff3497dffa67c464bc2368,61036ef53c221507b344c669,2021-07-29_22h16.55.918,Simcolourproject_2stim_asymm_v5,2020.2.10,MacIntel,60,61025ae37ef11b136ea224fe,,,,,,,,,4305,-35,62,1,0,0,response7disk,,0,-13,-1,1,0,0,rectangle,-13,-1,1,0,0,-13,-1,1,0,0,1,81,241,37,1,,,,,,,,
,,,,,,,,,,,,,FF,,,,,,,,0.75,,,,,,,,,,,,,,,,,,,,,,60ff3497dffa67c464bc2368,61036ef53c221507b344c669,2021-07-29_22h16.55.918,Simcolourproject_2stim_asymm_v5,2020.2.10,MacIntel,60,61025ae37ef11b136ea224fe,,,,,,,,,795,47,-49,1,0,0,response3disk,,4,6,-13,1,0,0,rectangle,6,-13,1,0,0,6,-13,1,0,0,1,82,242,26,1,,,,,,,,
,,,,,,,,,,,,,FF,,,,,,,,0.884,,,,,,,,,,,,,,,,,,,,,,60ff3497dffa67c464bc2368,61036ef53c221507b344c669,2021-07-29_22h16.55.918,Simcolourproject_2stim_asymm_v5,2020.2.10,MacIntel,60,61025ae37ef11b136ea224fe,,,,,,,,,2475,-24,-57,1,0,0,response5disk,,3,-19,-9,1,0,0,rectangle,-19,-9,1,0,0,-19,-9,1,0,0,1,83,243,157,1,,,,,,,,
,,,,,,,,,,,,,FF,,,,,,,,0.715,,,,,,,,,,,,,,,,,,,,,,60ff3497dffa67c464bc2368,61036ef53c221507b344c669,2021-07-29_22h16.55.918,Simcolourproject_2stim_asymm_v5,2020.2.10,MacIntel,60,61025ae37ef11b136ea224fe,,,,,,,,,1283,36,-66,1,0,0,response3disk,,4,11,-2,1,0,0,rectangle,11,-2,1,0,0,11,-2,1,0,0,1,84,244,102,1,,,,,,,,
,,,,,,,,,,,,,FF,,,,,,,,0.832,,,,,,,,,,,,,,,,,,,,,,60ff3497dffa67c464bc2368,61036ef53c221507b344c669,2021-07-29_22h16.55.918,Simcolourproject_2stim_asymm_v5,2020.2.10,MacIntel,60,61025ae37ef11b136ea224fe,,,,,,,,,4167,-63,-35,1,0,0,response5disk,,2,-21,1,1,0,0,rectangle,-21,1,1,0,0,-21,1,1,0,0,1,85,245,136,1,,,,,,,,
,,,,,,,,,,,,,FF,,,,,,,,0.816,,,,,,,,,,,,,,,,,,,,,,60ff3497dffa67c464bc2368,61036ef53c221507b344c669,2021-07-29_22h16.55.918,Simcolourproject_2stim_asymm_v5,2020.2.10,MacIntel,60,61025ae37ef11b136ea224fe,,,,,,,,,3606,57,-45,1,0,0,response3disk,,5,12,-2,1,0,0,rectangle,12,-2,1,0,0,12,-2,1,0,0,1,86,246,25,1,,,,,,,,
,,,,,,,,,,,,,FF,,,,,,,,1.217,,,,,,,,,,,,,,,,,,,,,,60ff3497dffa67c464bc2368,61036ef53c221507b344c669,2021-07-29_22h16.55.918,Simcolourproject_2stim_asymm_v5,2020.2.10,MacIntel,60,61025ae37ef11b136ea224fe,,,,,,,,,1654,56,39,1,0,0,response1disk,,6,18,4,1,0,0,rectangle,18,4,1,0,0,18,4,1,0,0,1,87,247,80,1,,,,,,,,
,,,,,,,,,,,,,FF,,,,,,,,1.067,,,,,,,,,,,,,,,,,,,,,,60ff3497dffa67c464bc2368,61036ef53c221507b344c669,2021-07-29_22h16.55.918,Simcolourproject_2stim_asymm_v5,2020.2.10,MacIntel,60,61025ae37ef11b136ea224fe,,,,,,,,,289,29,-67,1,0,0,response3disk,,4,11,6,1,0,0,rectangle,11,6,1,0,0,11,6,1,0,0,1,88,248,8,1,,,,,,,,
,,,,,,,,,,,,,FF,,,,,,,,1.433,,,,,,,,,,,,,,,,,,,,,,60ff3497dffa67c464bc2368,61036ef53c221507b344c669,2021-07-29_22h16.55.918,Simcolourproject_2stim_asymm_v5,2020.2.10,MacIntel,60,61025ae37ef11b136ea224fe,,,,,,,,,1527,-48,22,1,0,0,response7disk,,1,-23,0,1,0,0,rectangle,-23,0,1,0,0,-23,0,1,0,0,1,89,249,36,1,,,,,,,,
,,,,,,,,,,,,,FF,,,,,,,,0.967,,,,,,,,,,,,,,,,,,,,,,60ff3497dffa67c464bc2368,61036ef53c221507b344c669,2021-07-29_22h16.55.918,Simcolourproject_2stim_asymm_v5,2020.2.10,MacIntel,60,61025ae37ef11b136ea224fe,,,,,,,,,3371,60,20,1,0,0,response1disk,,6,21,-4,1,0,0,rectangle,21,-4,1,0,0,21,-4,1,0,0,1,90,250,127,1,,,,,,,,
,,,,,,,,,,,,,FF,,,,,,,,0.833,,,,,,,,,,,,,,,,,,,,,,60ff3497dffa67c464bc2368,61036ef53c221507b344c669,2021-07-29_22h16.55.918,Simcolourproject_2stim_asymm_v5,2020.2.10,MacIntel,60,61025ae37ef11b136ea224fe,,,,,,,,,3718,-62,-33,1,0,0,response5disk,,2,-15,-10,1,0,0,rectangle,-15,-10,1,0,0,-15,-10,1,0,0,1,91,251,138,1,,,,,,,,
,,,,,,,,,,,,,FF,,,,,,,,1.132,,,,,,,,,,,,,,,,,,,,,,60ff3497dffa67c464bc2368,61036ef53c221507b344c669,2021-07-29_22h16.55.918,Simcolourproject_2stim_asymm_v5,2020.2.10,MacIntel,60,61025ae37ef11b136ea224fe,,,,,,,,,3765,57,-38,1,0,0,response3disk,,5,0,7,1,0,0,rectangle,0,7,1,0,0,0,7,1,0,0,1,92,252,27,1,,,,,,,,
,,,,,,,,,,,,,FF,,,,,,,,1.166,,,,,,,,,,,,,,,,,,,,,,60ff3497dffa67c464bc2368,61036ef53c221507b344c669,2021-07-29_22h16.55.918,Simcolourproject_2stim_asymm_v5,2020.2.10,MacIntel,60,61025ae37ef11b136ea224fe,,,,,,,,,4286,48,31,1,0,0,response1disk,,6,15,-1,1,0,0,rectangle,15,-1,1,0,0,15,-1,1,0,0,1,93,253,70,1,,,,,,,,
,,,,,,,,,,,,,FF,,,,,,,,1.549,,,,,,,,,,,,,,,,,,,,,,60ff3497dffa67c464bc2368,61036ef53c221507b344c669,2021-07-29_22h16.55.918,Simcolourproject_2stim_asymm_v5,2020.2.10,MacIntel,60,61025ae37ef11b136ea224fe,,,,,,,,,2884,-36,-59,1,0,0,response5disk,,3,-21,-7,1,0,0,rectangle,-21,-7,1,0,0,-21,-7,1,0,0,1,94,254,151,1,,,,,,,,
,,,,,,,,,,,,,FF,,,,,,,,1.083,,,,,,,,,,,,,,,,,,,,,,60ff3497dffa67c464bc2368,61036ef53c221507b344c669,2021-07-29_22h16.55.918,Simcolourproject_2stim_asymm_v5,2020.2.10,MacIntel,60,61025ae37ef11b136ea224fe,,,,,,,,,2116,27,-57,1,0,0,response3disk,,4,8,-16,1,0,0,rectangle,8,-16,1,0,0,8,-16,1,0,0,1,95,255,145,1,,,,,,,,
,,,,,,,,,,,,,FF,,,,,,,,0.684,,,,,,,,,,,,,,,,,,,,,,60ff3497dffa67c464bc2368,61036ef53c221507b344c669,2021-07-29_22h16.55.918,Simcolourproject_2stim_asymm_v5,2020.2.10,MacIntel,60,61025ae37ef11b136ea224fe,,,,,,,,,3408,62,-29,1,0,0,response3disk,,5,21,-10,1,0,0,rectangle,21,-10,1,0,0,21,-10,1,0,0,1,96,256,101,1,,,,,,,,
,,,,,,,,,,,,,FF,,,,,,,,0.916,,,,,,,,,,,,,,,,,,,,,,60ff3497dffa67c464bc2368,61036ef53c221507b344c669,2021-07-29_22h16.55.918,Simcolourproject_2stim_asymm_v5,2020.2.10,MacIntel,60,61025ae37ef11b136ea224fe,,,,,,,,,2883,48,18,1,0,0,response1disk,,6,3,-14,1,0,0,rectangle,3,-14,1,0,0,3,-14,1,0,0,1,97,257,33,1,,,,,,,,
,,,,,,,,,,,,,FF,,,,,,,,1.616,,,,,,,,,,,,,,,,,,,,,,60ff3497dffa67c464bc2368,61036ef53c221507b344c669,2021-07-29_22h16.55.918,Simcolourproject_2stim_asymm_v5,2020.2.10,MacIntel,60,61025ae37ef11b136ea224fe,,,,,,,,,927,68,21,1,0,0,response1disk,,6,14,-2,1,0,0,rectangle,14,-2,1,0,0,14,-2,1,0,0,1,98,258,63,1,,,,,,,,
,,,,,,,,,,,,,FF,,,,,,,,1.35,,,,,,,,,,,,,,,,,,,,,,60ff3497dffa67c464bc2368,61036ef53c221507b344c669,2021-07-29_22h16.55.918,Simcolourproject_2stim_asymm_v5,2020.2.10,MacIntel,60,61025ae37ef11b136ea224fe,,,,,,,,,1980,30,-61,1,0,0,response3disk,,4,10,-4,1,0,0,rectangle,10,-4,1,0,0,10,-4,1,0,0,1,99,259,3,1,,,,,,,,
,,,,,,,,,,,,,FF,,,,,,,,0.767,,,,,,,,,,,,,,,,,,,,,,60ff3497dffa67c464bc2368,61036ef53c221507b344c669,2021-07-29_22h16.55.918,Simcolourproject_2stim_asymm_v5,2020.2.10,MacIntel,60,61025ae37ef11b136ea224fe,,,,,,,,,1692,-31,-44,1,0,0,response5disk,,3,-14,5,1,0,0,rectangle,26,75,1,0,0,4,-3,1,0,0,1,100,260,137,1,,response1disk_3,TRUE,7,7,"[298,145,284,92,67,183,200,312,277,273,262,179,261,124,206,315,110,67,217,299]",1.683,rectangle
,,,,,,,,,,,,,FF,,,,,,,,0.85,,,,,,,,,,,,,,,,,,,,,,60ff3497dffa67c464bc2368,61036ef53c221507b344c669,2021-07-29_22h16.55.918,Simcolourproject_2stim_asymm_v5,2020.2.10,MacIntel,60,61025ae37ef11b136ea224fe,,,,,,,,,2961,37,-35,1,0,0,response3disk,,5,12,-2,1,0,0,rectangle,-54,-26,1,0,0,-17,-10,1,0,0,1,101,261,106,1,,response5disk_3,TRUE,2,2,"[298,145,284,92,67,183,200,312,277,273,262,179,261,124,206,315,110,67,217,299]",1.615,rectangle
,,,,,,,,,,,,,FF,,,,,,,,0.784,,,,,,,,,,,,,,,,,,,,,,60ff3497dffa67c464bc2368,61036ef53c221507b344c669,2021-07-29_22h16.55.918,Simcolourproject_2stim_asymm_v5,2020.2.10,MacIntel,60,61025ae37ef11b136ea224fe,,,,,,,,,392,17,-54,1,0,0,response3disk,,4,-2,-9,1,0,0,rectangle,-2,-9,1,0,0,-2,-9,1,0,0,1,102,262,66,1,,,,,,,,
,,,,,,,,,,,,,FF,,,,,,,,0.599,,,,,,,,,,,,,,,,,,,,,,60ff3497dffa67c464bc2368,61036ef53c221507b344c669,2021-07-29_22h16.55.918,Simcolourproject_2stim_asymm_v5,2020.2.10,MacIntel,60,61025ae37ef11b136ea224fe,,,,,,,,,2285,-15,-48,1,0,0,response5disk,,3,-7,-4,1,0,0,rectangle,-7,-4,1,0,0,-7,-4,1,0,0,1,103,263,109,1,,,,,,,,
,,,,,,,,,,,,,FF,,,,,,,,0.949,,,,,,,,,,,,,,,,,,,,,,60ff3497dffa67c464bc2368,61036ef53c221507b344c669,2021-07-29_22h16.55.918,Simcolourproject_2stim_asymm_v5,2020.2.10,MacIntel,60,61025ae37ef11b136ea224fe,,,,,,,,,2749,26,56,1,0,0,response1disk,,7,-1,5,1,0,0,rectangle,-1,5,1,0,0,-1,5,1,0,0,1,104,264,116,1,,,,,,,,
,,,,,,,,,,,,,FF,,,,,,,,1.049,,,,,,,,,,,,,,,,,,,,,,60ff3497dffa67c464bc2368,61036ef53c221507b344c669,2021-07-29_22h16.55.918,Simcolourproject_2stim_asymm_v5,2020.2.10,MacIntel,60,61025ae37ef11b136ea224fe,,,,,,,,,3431,-28,-56,1,0,0,response5disk,,3,-28,0,1,0,0,rectangle,-28,0,1,0,0,-28,0,1,0,0,1,105,265,155,1,,,,,,,,
,,,,,,,,,,,,,FF,,,,,,,,1.368,,,,,,,,,,,,,,,,,,,,,,60ff3497dffa67c464bc2368,61036ef53c221507b344c669,2021-07-29_22h16.55.918,Simcolourproject_2stim_asymm_v5,2020.2.10,MacIntel,60,61025ae37ef11b136ea224fe,,,,,,,,,4022,-60,26,1,0,0,response7disk,,1,-34,12,1,0,0,rectangle,-34,12,1,0,0,-34,12,1,0,0,1,106,266,39,1,,,,,,,,
,,,,,,,,,,,,,FF,,,,,,,,0.934,,,,,,,,,,,,,,,,,,,,,,60ff3497dffa67c464bc2368,61036ef53c221507b344c669,2021-07-29_22h16.55.918,Simcolourproject_2stim_asymm_v5,2020.2.10,MacIntel,60,61025ae37ef11b136ea224fe,,,,,,,,,810,-74,50,1,0,0,response7disk,,1,-28,13,1,0,0,rectangle,-28,13,1,0,0,-28,13,1,0,0,1,107,267,124,1,,,,,,,,
,,,,,,,,,,,,,FF,,,,,,,,0.55,,,,,,,,,,,,,,,,,,,,,,60ff3497dffa67c464bc2368,61036ef53c221507b344c669,2021-07-29_22h16.55.918,Simcolourproject_2stim_asymm_v5,2020.2.10,MacIntel,60,61025ae37ef11b136ea224fe,,,,,,,,,2099,-45,23,1,0,0,response7disk,,1,-17,5,1,0,0,rectangle,-17,5,1,0,0,-17,5,1,0,0,1,108,268,114,1,,,,,,,,
,,,,,,,,,,,,,FF,,,,,,,,0.934,,,,,,,,,,,,,,,,,,,,,,60ff3497dffa67c464bc2368,61036ef53c221507b344c669,2021-07-29_22h16.55.918,Simcolourproject_2stim_asymm_v5,2020.2.10,MacIntel,60,61025ae37ef11b136ea224fe,,,,,,,,,3214,55,-38,1,0,0,response3disk,,5,-3,6,1,0,0,rectangle,-3,6,1,0,0,-3,6,1,0,0,1,109,269,112,1,,,,,,,,
,,,,,,,,,,,,,FF,,,,,,,,0.717,,,,,,,,,,,,,,,,,,,,,,60ff3497dffa67c464bc2368,61036ef53c221507b344c669,2021-07-29_22h16.55.918,Simcolourproject_2stim_asymm_v5,2020.2.10,MacIntel,60,61025ae37ef11b136ea224fe,,,,,,,,,3351,42,34,1,0,0,response1disk,,6,7,14,1,0,0,rectangle,7,14,1,0,0,7,14,1,0,0,1,110,270,50,1,,,,,,,,
,,,,,,,,,,,,,FF,,,,,,,,0.833,,,,,,,,,,,,,,,,,,,,,,60ff3497dffa67c464bc2368,61036ef53c221507b344c669,2021-07-29_22h16.55.918,Simcolourproject_2stim_asymm_v5,2020.2.10,MacIntel,60,61025ae37ef11b136ea224fe,,,,,,,,,232,28,-64,1,0,0,response3disk,,4,6,-1,1,0,0,rectangle,6,-1,1,0,0,6,-1,1,0,0,1,111,271,105,1,,,,,,,,
,,,,,,,,,,,,,FF,,,,,,,,0.816,,,,,,,,,,,,,,,,,,,,,,60ff3497dffa67c464bc2368,61036ef53c221507b344c669,2021-07-29_22h16.55.918,Simcolourproject_2stim_asymm_v5,2020.2.10,MacIntel,60,61025ae37ef11b136ea224fe,,,,,,,,,890,-85,-39,1,0,0,response5disk,,2,-15,3,1,0,0,rectangle,-55,27,1,0,0,9,-3,1,0,0,1,112,272,135,1,,response7disk_3,TRUE,1,1,"[298,145,284,92,67,183,200,312,277,273,262,179,261,124,206,315,110,67,217,299]",1.883,rectangle
,,,,,,,,,,,,,FF,,,,,,,,0.832,,,,,,,,,,,,,,,,,,,,,,60ff3497dffa67c464bc2368,61036ef53c221507b344c669,2021-07-29_22h16.55.918,Simcolourproject_2stim_asymm_v5,2020.2.10,MacIntel,60,61025ae37ef11b136ea224fe,,,,,,,,,2017,80,31,1,0,0,response1disk,,6,25,2,1,0,0,rectangle,25,2,1,0,0,25,2,1,0,0,1,113,273,87,1,,,,,,,,
,,,,,,,,,,,,,FF,,,,,,,,0.75,,,,,,,,,,,,,,,,,,,,,,60ff3497dffa67c464bc2368,61036ef53c221507b344c669,2021-07-29_22h16.55.918,Simcolourproject_2stim_asymm_v5,2020.2.10,MacIntel,60,61025ae37ef11b136ea224fe,,,,,,,,,197,51,-40,1,0,0,response3disk,,5,-16,1,1,0,0,rectangle,-16,1,1,0,0,-16,1,1,0,0,1,114,274,75,1,,,,,,,,
,,,,,,,,,,,,,FF,,,,,,,,0.849,,,,,,,,,,,,,,,,,,,,,,60ff3497dffa67c464bc2368,61036ef53c221507b344c669,2021-07-29_22h16.55.918,Simcolourproject_2stim_asymm_v5,2020.2.10,MacIntel,60,61025ae37ef11b136ea224fe,,,,,,,,,2400,-27,63,1,0,0,response7disk,,0,-15,-3,1,0,0,rectangle,-15,-3,1,0,0,-15,-3,1,0,0,1,115,275,130,1,,,,,,,,
,,,,,,,,,,,,,FF,,,,,,,,0.834,,,,,,,,,,,,,,,,,,,,,,60ff3497dffa67c464bc2368,61036ef53c221507b344c669,2021-07-29_22h16.55.918,Simcolourproject_2stim_asymm_v5,2020.2.10,MacIntel,60,61025ae37ef11b136ea224fe,,,,,,,,,3494,-48,-22,1,0,0,response5disk,,2,-20,10,1,0,0,rectangle,19,72,1,0,0,-3,-4,1,0,0,1,116,276,115,1,,response1disk_3,TRUE,7,7,"[298,145,284,92,67,183,200,312,277,273,262,179,261,124,206,315,110,67,217,299]",1.316,rectangle
,,,,,,,,,,,,,FF,,,,,,,,1.834,,,,,,,,,,,,,,,,,,,,,,60ff3497dffa67c464bc2368,61036ef53c221507b344c669,2021-07-29_22h16.55.918,Simcolourproject_2stim_asymm_v5,2020.2.10,MacIntel,60,61025ae37ef11b136ea224fe,,,,,,,,,3990,-22,-68,1,0,0,response5disk,,3,-11,-11,1,0,0,rectangle,-11,-11,1,0,0,-11,-11,1,0,0,1,117,277,28,1,,,,,,,,
,,,,,,,,,,,,,FF,,,,,,,,1,,,,,,,,,,,,,,,,,,,,,,60ff3497dffa67c464bc2368,61036ef53c221507b344c669,2021-07-29_22h16.55.918,Simcolourproject_2stim_asymm_v5,2020.2.10,MacIntel,60,61025ae37ef11b136ea224fe,,,,,,,,,547,-67,38,1,0,0,response7disk,,1,-25,3,1,0,0,rectangle,-25,3,1,0,0,-25,3,1,0,0,1,118,278,120,1,,,,,,,,
,,,,,,,,,,,,,FF,,,,,,,,1.15,,,,,,,,,,,,,,,,,,,,,,60ff3497dffa67c464bc2368,61036ef53c221507b344c669,2021-07-29_22h16.55.918,Simcolourproject_2stim_asymm_v5,2020.2.10,MacIntel,60,61025ae37ef11b136ea224fe,,,,,,,,,3387,-49,20,1,0,0,response7disk,,1,1,-8,1,0,0,rectangle,1,-8,1,0,0,1,-8,1,0,0,1,119,279,147,1,,,,,,,,
,,,,,,,,,,,,,FF,,,,,,,,0.669,,,,,,,,,,,,,,,,,,,,,,60ff3497dffa67c464bc2368,61036ef53c221507b344c669,2021-07-29_22h16.55.918,Simcolourproject_2stim_asymm_v5,2020.2.10,MacIntel,60,61025ae37ef11b136ea224fe,,,,,,,,,3687,57,-28,1,0,0,response3disk,,5,11,10,1,0,0,rectangle,11,10,1,0,0,11,10,1,0,0,1,120,280,141,1,,,,,,,,
,,,,,,,,,,,,,FF,,,,,,,,0.733,,,,,,,,,,,,,,,,,,,,,,60ff3497dffa67c464bc2368,61036ef53c221507b344c669,2021-07-29_22h16.55.918,Simcolourproject_2stim_asymm_v5,2020.2.10,MacIntel,60,61025ae37ef11b136ea224fe,,,,,,,,,2036,-50,-30,1,0,0,response5disk,,2,-2,-6,1,0,0,rectangle,-2,-6,1,0,0,-2,-6,1,0,0,1,121,281,74,1,,,,,,,,
,,,,,,,,,,,,,FF,,,,,,,,0.932,,,,,,,,,,,,,,,,,,,,,,60ff3497dffa67c464bc2368,61036ef53c221507b344c669,2021-07-29_22h16.55.918,Simcolourproject_2stim_asymm_v5,2020.2.10,MacIntel,60,61025ae37ef11b136ea224fe,,,,,,,,,4327,-57,38,1,0,0,response7disk,,1,-17,13,1,0,0,rectangle,-17,13,1,0,0,-17,13,1,0,0,1,122,282,77,1,,,,,,,,
,,,,,,,,,,,,,FF,,,,,,,,0.649,,,,,,,,,,,,,,,,,,,,,,60ff3497dffa67c464bc2368,61036ef53c221507b344c669,2021-07-29_22h16.55.918,Simcolourproject_2stim_asymm_v5,2020.2.10,MacIntel,60,61025ae37ef11b136ea224fe,,,,,,,,,1791,59,-37,1,0,0,response3disk,,5,4,3,1,0,0,rectangle,68,-34,1,0,0,24,9,1,0,0,1,123,283,69,1,,response3disk_3,TRUE,5,5,"[298,145,284,92,67,183,200,312,277,273,262,179,261,124,206,315,110,67,217,299]",1.683,rectangle
,,,,,,,,,,,,,FF,,,,,,,,0.883,,,,,,,,,,,,,,,,,,,,,,60ff3497dffa67c464bc2368,61036ef53c221507b344c669,2021-07-29_22h16.55.918,Simcolourproject_2stim_asymm_v5,2020.2.10,MacIntel,60,61025ae37ef11b136ea224fe,,,,,,,,,83,-59,-21,1,0,0,response5disk,,2,-9,-8,1,0,0,rectangle,-9,-8,1,0,0,-9,-8,1,0,0,1,124,284,29,1,,,,,,,,
,,,,,,,,,,,,,FF,,,,,,,,0.718,,,,,,,,,,,,,,,,,,,,,,60ff3497dffa67c464bc2368,61036ef53c221507b344c669,2021-07-29_22h16.55.918,Simcolourproject_2stim_asymm_v5,2020.2.10,MacIntel,60,61025ae37ef11b136ea224fe,,,,,,,,,3599,-58,33,1,0,0,response7disk,,1,-13,7,1,0,0,rectangle,-13,7,1,0,0,-13,7,1,0,0,1,125,285,15,1,,,,,,,,
,,,,,,,,,,,,,FF,,,,,,,,1.051,,,,,,,,,,,,,,,,,,,,,,60ff3497dffa67c464bc2368,61036ef53c221507b344c669,2021-07-29_22h16.55.918,Simcolourproject_2stim_asymm_v5,2020.2.10,MacIntel,60,61025ae37ef11b136ea224fe,,,,,,,,,3286,-33,-55,1,0,0,response5disk,,3,-14,-7,1,0,0,rectangle,-14,-7,1,0,0,-14,-7,1,0,0,1,126,286,55,1,,,,,,,,
,,,,,,,,,,,,,FF,,,,,,,,0.751,,,,,,,,,,,,,,,,,,,,,,60ff3497dffa67c464bc2368,61036ef53c221507b344c669,2021-07-29_22h16.55.918,Simcolourproject_2stim_asymm_v5,2020.2.10,MacIntel,60,61025ae37ef11b136ea224fe,,,,,,,,,3038,-52,25,1,0,0,response7disk,,1,-12,-3,1,0,0,rectangle,-12,-3,1,0,0,-12,-3,1,0,0,1,127,287,143,1,,,,,,,,
,,,,,,,,,,,,,FF,,,,,,,,0.85,,,,,,,,,,,,,,,,,,,,,,60ff3497dffa67c464bc2368,61036ef53c221507b344c669,2021-07-29_22h16.55.918,Simcolourproject_2stim_asymm_v5,2020.2.10,MacIntel,60,61025ae37ef11b136ea224fe,,,,,,,,,46,70,-35,1,0,0,response3disk,,5,13,-13,1,0,0,rectangle,13,-13,1,0,0,13,-13,1,0,0,1,128,288,88,1,,,,,,,,
,,,,,,,,,,,,,FF,,,,,,,,0.649,,,,,,,,,,,,,,,,,,,,,,60ff3497dffa67c464bc2368,61036ef53c221507b344c669,2021-07-29_22h16.55.918,Simcolourproject_2stim_asymm_v5,2020.2.10,MacIntel,60,61025ae37ef11b136ea224fe,,,,,,,,,2254,59,39,1,0,0,response1disk,,6,18,5,1,0,0,rectangle,18,5,1,0,0,18,5,1,0,0,1,129,289,13,1,,,,,,,,
,,,,,,,,,,,,,FF,,,,,,,,1.016,,,,,,,,,,,,,,,,,,,,,,60ff3497dffa67c464bc2368,61036ef53c221507b344c669,2021-07-29_22h16.55.918,Simcolourproject_2stim_asymm_v5,2020.2.10,MacIntel,60,61025ae37ef11b136ea224fe,,,,,,,,,345,-43,-27,1,0,0,response5disk,,2,-10,-2,1,0,0,rectangle,-10,-2,1,0,0,-10,-2,1,0,0,1,130,290,93,1,,,,,,,,
,,,,,,,,,,,,,FF,,,,,,,,1.266,,,,,,,,,,,,,,,,,,,,,,60ff3497dffa67c464bc2368,61036ef53c221507b344c669,2021-07-29_22h16.55.918,Simcolourproject_2stim_asymm_v5,2020.2.10,MacIntel,60,61025ae37ef11b136ea224fe,,,,,,,,,3567,-51,-38,1,0,0,response5disk,,2,-15,-12,1,0,0,rectangle,-15,-12,1,0,0,-15,-12,1,0,0,1,131,291,149,1,,,,,,,,
,,,,,,,,,,,,,FF,,,,,,,,0.966,,,,,,,,,,,,,,,,,,,,,,60ff3497dffa67c464bc2368,61036ef53c221507b344c669,2021-07-29_22h16.55.918,Simcolourproject_2stim_asymm_v5,2020.2.10,MacIntel,60,61025ae37ef11b136ea224fe,,,,,,,,,1344,82,-36,1,0,0,response3disk,,5,12,-16,1,0,0,rectangle,12,-16,1,0,0,12,-16,1,0,0,1,132,292,53,1,,,,,,,,
,,,,,,,,,,,,,FF,,,,,,,,0.9,,,,,,,,,,,,,,,,,,,,,,60ff3497dffa67c464bc2368,61036ef53c221507b344c669,2021-07-29_22h16.55.918,Simcolourproject_2stim_asymm_v5,2020.2.10,MacIntel,60,61025ae37ef11b136ea224fe,,,,,,,,,161,-42,-48,1,0,0,response5disk,,3,-30,0,1,0,0,rectangle,-30,0,1,0,0,-30,0,1,0,0,1,133,293,156,1,,,,,,,,
,,,,,,,,,,,,,FF,,,,,,,,0.983,,,,,,,,,,,,,,,,,,,,,,60ff3497dffa67c464bc2368,61036ef53c221507b344c669,2021-07-29_22h16.55.918,Simcolourproject_2stim_asymm_v5,2020.2.10,MacIntel,60,61025ae37ef11b136ea224fe,,,,,,,,,3960,62,-29,1,0,0,response3disk,,5,2,13,1,0,0,rectangle,2,13,1,0,0,2,13,1,0,0,1,134,294,125,1,,,,,,,,
,,,,,,,,,,,,,FF,,,,,,,,0.584,,,,,,,,,,,,,,,,,,,,,,60ff3497dffa67c464bc2368,61036ef53c221507b344c669,2021-07-29_22h16.55.918,Simcolourproject_2stim_asymm_v5,2020.2.10,MacIntel,60,61025ae37ef11b136ea224fe,,,,,,,,,1948,-24,-29,1,0,0,response5disk,,3,-20,-1,1,0,0,rectangle,-20,-1,1,0,0,-20,-1,1,0,0,1,135,295,123,1,,,,,,,,
,,,,,,,,,,,,,FF,,,,,,,,0.649,,,,,,,,,,,,,,,,,,,,,,60ff3497dffa67c464bc2368,61036ef53c221507b344c669,2021-07-29_22h16.55.918,Simcolourproject_2stim_asymm_v5,2020.2.10,MacIntel,60,61025ae37ef11b136ea224fe,,,,,,,,,3712,-61,-24,1,0,0,response5disk,,2,-24,-3,1,0,0,rectangle,-24,-3,1,0,0,-24,-3,1,0,0,1,136,296,12,1,,,,,,,,
,,,,,,,,,,,,,FF,,,,,,,,0.766,,,,,,,,,,,,,,,,,,,,,,60ff3497dffa67c464bc2368,61036ef53c221507b344c669,2021-07-29_22h16.55.918,Simcolourproject_2stim_asymm_v5,2020.2.10,MacIntel,60,61025ae37ef11b136ea224fe,,,,,,,,,3773,53,27,1,0,0,response1disk,,6,11,12,1,0,0,rectangle,-32,-73,1,0,0,-8,-1,1,0,0,1,137,297,134,1,,response5disk_3,TRUE,3,3,"[298,145,284,92,67,183,200,312,277,273,262,179,261,124,206,315,110,67,217,299]",1.999,rectangle
,,,,,,,,,,,,,FF,,,,,,,,0.833,,,,,,,,,,,,,,,,,,,,,,60ff3497dffa67c464bc2368,61036ef53c221507b344c669,2021-07-29_22h16.55.918,Simcolourproject_2stim_asymm_v5,2020.2.10,MacIntel,60,61025ae37ef11b136ea224fe,,,,,,,,,241,46,-26,1,0,0,response3disk,,5,7,-5,1,0,0,rectangle,57,-28,1,0,0,25,-10,1,0,0,1,138,298,92,1,,response3disk_3,TRUE,5,5,"[298,145,284,92,67,183,200,312,277,273,262,179,261,124,206,315,110,67,217,299]",1.433,rectangle
