key_resp.keys,key_resp.rt,key_resp_14.keys,key_resp_14.rt,key_resp_15.keys,key_resp_15.rt,key_resp_17.keys,key_resp_17.rt,key_resp_9.keys,key_resp_9.rt,key_resp_10.keys,key_resp_10.rt,practice_comparison,Ecc,mouse_5.x,mouse_5.y,mouse_5.leftButton,mouse_5.midButton,mouse_5.rightButton,mouse_5.clicked_name,pracsimilarity,response_time,mouse_10.x,mouse_10.y,mouse_10.leftButton,mouse_10.midButton,mouse_10.rightButton,mouse_10.clicked_name,mouse_7.x,mouse_7.y,mouse_7.leftButton,mouse_7.midButton,mouse_7.rightButton,mouse_6.x,mouse_6.y,mouse_6.leftButton,mouse_6.midButton,mouse_6.rightButton,duringprac.thisRepN,duringprac.thisTrialN,duringprac.thisN,duringprac.thisIndex,duringprac.ran,participant,session,date,expName,psychopyVersion,OS,frameRate,study_id,mouse_7.clicked_name,catchpracsimilarity,catch_response_time,catchnumberprac,catchtrialorderprac,mouse_6.clicked_name,key_resp_22.keys,key_resp_22.rt,realcomparison,mouse.x,mouse.y,mouse.leftButton,mouse.midButton,mouse.rightButton,mouse.clicked_name,Colour2,similarity,mouse_2.x,mouse_2.y,mouse_2.leftButton,mouse_2.midButton,mouse_2.rightButton,mouse_2.clicked_name,mouse_3.x,mouse_3.y,mouse_3.leftButton,mouse_3.midButton,mouse_3.rightButton,mouse_11.x,mouse_11.y,mouse_11.leftButton,mouse_11.midButton,mouse_11.rightButton,trials_2.thisRepN,trials_2.thisTrialN,trials_2.thisN,trials_2.thisIndex,trials_2.ran,Colour1,mouse_3.clicked_name,catchornah,catchsimilarity,catchnumber,catchtrialorder,catchRT,mouse_11.clicked_name
space,1.5298,space,23.443,space,31.17,space,5.252,space,3.4681,space,4.7876,11,PF,34.66479492,-81.71017456,1,0,0,response3disk_5,4,12.8939,10.84411621,-5.453582764,1,0,0,rectangle_8,10.84411621,-5.453582764,1,0,0,10.84411621,-5.453582764,1,0,0,0,0,0,2,1,60ff390c957f2ba44d3ff87a,61036a480bca9b6bb0ab1217,2021-07-29_20h57.50.650,Simcolourproject_2stim_asymm_v5,2020.2.10,MacIntel,60,61025ae37ef11b136ea224fe,,,,,,,,,,,,,,,,,,,,,,,,,,,,,,,,,,,,,,,,,,,,,,
,,,,,,,,,,,,72,FF,32.97338867,74.83987427,1,0,0,response1disk_5,7,3.1689,-3.236938477,-0.285217285,1,0,0,rectangle_8,80.22589111,-43.65951538,1,0,0,-10.56292725,-0.346557617,1,0,0,0,1,1,3,1,60ff390c957f2ba44d3ff87a,61036a480bca9b6bb0ab1217,2021-07-29_20h57.50.650,Simcolourproject_2stim_asymm_v5,2020.2.10,MacIntel,60,61025ae37ef11b136ea224fe,response3disk_7,5,3.8873,5,"[2,5]",rectangle_4,,,,,,,,,,,,,,,,,,,,,,,,,,,,,,,,,,,,,,,,
,,,,,,,,,,,,147,FF,-43.76556396,-73.9458313,1,0,0,response5disk_5,3,2.1492,5.738220215,2.422821045,1,0,0,rectangle_8,5.738220215,2.422821045,1,0,0,5.738220215,2.422821045,1,0,0,0,2,2,5,1,60ff390c957f2ba44d3ff87a,61036a480bca9b6bb0ab1217,2021-07-29_20h57.50.650,Simcolourproject_2stim_asymm_v5,2020.2.10,MacIntel,60,61025ae37ef11b136ea224fe,,,,,,,,,,,,,,,,,,,,,,,,,,,,,,,,,,,,,,,,,,,,,,
,,,,,,,,,,,,134,PF,58.7310791,-89.15368652,1,0,0,response3disk_5,4,2.2018,21.99676514,-3.036499023,1,0,0,rectangle_8,21.99676514,-3.036499023,1,0,0,21.99676514,-3.036499023,1,0,0,0,3,3,4,1,60ff390c957f2ba44d3ff87a,61036a480bca9b6bb0ab1217,2021-07-29_20h57.50.650,Simcolourproject_2stim_asymm_v5,2020.2.10,MacIntel,60,61025ae37ef11b136ea224fe,,,,,,,,,,,,,,,,,,,,,,,,,,,,,,,,,,,,,,,,,,,,,,
,,,,,,,,,,,,53,PF,-41.1449585,-83.12182617,1,0,0,response5disk_5,3,3.9342,5.750793457,8.274200439,1,0,0,rectangle_8,80.5491333,-47.75042725,1,0,0,10.27984619,0.55078125,1,0,0,0,4,4,6,1,60ff390c957f2ba44d3ff87a,61036a480bca9b6bb0ab1217,2021-07-29_20h57.50.650,Simcolourproject_2stim_asymm_v5,2020.2.10,MacIntel,60,61025ae37ef11b136ea224fe,response3disk_7,5,2.2178,5,"[2,5]",rectangle_4,,,,,,,,,,,,,,,,,,,,,,,,,,,,,,,,,,,,,,,,
,,,,,,,,,,,,97,FF,-70.31347656,-43.18112183,1,0,0,response5disk_5,2,1.1186,5.677185059,-4.50479126,1,0,0,rectangle_8,5.677185059,-4.50479126,1,0,0,5.677185059,-4.50479126,1,0,0,0,5,5,0,1,60ff390c957f2ba44d3ff87a,61036a480bca9b6bb0ab1217,2021-07-29_20h57.50.650,Simcolourproject_2stim_asymm_v5,2020.2.10,MacIntel,60,61025ae37ef11b136ea224fe,,,,,,,,,,,,,,,,,,,,,,,,,,,,,,,,,,,,,,,,,,,,,,
,,,,,,,,,,,,140,PF,36.08306885,-97.96502686,1,0,0,response3disk_5,4,4.1198,-1.039611816,12.4526062,1,0,0,rectangle_8,-1.039611816,12.4526062,1,0,0,-1.039611816,12.4526062,1,0,0,0,6,6,1,1,60ff390c957f2ba44d3ff87a,61036a480bca9b6bb0ab1217,2021-07-29_20h57.50.650,Simcolourproject_2stim_asymm_v5,2020.2.10,MacIntel,60,61025ae37ef11b136ea224fe,,,,,,,,,,,,,,,,,,,,,,,,,,,,,,,,,,,,,,,,,,,,,,
,,,,,,,,,,,,,FF,,,,,,,,2.718,,,,,,,,,,,,,,,,,,,,,,60ff390c957f2ba44d3ff87a,61036a480bca9b6bb0ab1217,2021-07-29_20h57.50.650,Simcolourproject_2stim_asymm_v5,2020.2.10,MacIntel,60,61025ae37ef11b136ea224fe,,,,,,,space,24.5138,3747,-37.94024658,-87.41241455,1,0,0,response5disk,,3,-9.640441895,3.674224854,1,0,0,rectangle,-9.640441895,3.674224854,1,0,0,-9.640441895,3.674224854,1,0,0,0,0,0,18,1,,,,,,,,
,,,,,,,,,,,,,FF,,,,,,,,1.3342,,,,,,,,,,,,,,,,,,,,,,60ff390c957f2ba44d3ff87a,61036a480bca9b6bb0ab1217,2021-07-29_20h57.50.650,Simcolourproject_2stim_asymm_v5,2020.2.10,MacIntel,60,61025ae37ef11b136ea224fe,,,,,,,,,2257,58.99835205,-43.57092285,1,0,0,response3disk,,5,8.847229004,0.222747803,1,0,0,rectangle,8.847229004,0.222747803,1,0,0,8.847229004,0.222747803,1,0,0,0,1,1,106,1,,,,,,,,
,,,,,,,,,,,,,FF,,,,,,,,3.4331,,,,,,,,,,,,,,,,,,,,,,60ff390c957f2ba44d3ff87a,61036a480bca9b6bb0ab1217,2021-07-29_20h57.50.650,Simcolourproject_2stim_asymm_v5,2020.2.10,MacIntel,60,61025ae37ef11b136ea224fe,,,,,,,,,4118,-37.97125244,81.73455811,1,0,0,response7disk,,0,-1.223937988,-8.116668701,1,0,0,rectangle,-1.223937988,-8.116668701,1,0,0,-1.223937988,-8.116668701,1,0,0,0,2,2,30,1,,,,,,,,
,,,,,,,,,,,,,FF,,,,,,,,1.2674,,,,,,,,,,,,,,,,,,,,,,60ff390c957f2ba44d3ff87a,61036a480bca9b6bb0ab1217,2021-07-29_20h57.50.650,Simcolourproject_2stim_asymm_v5,2020.2.10,MacIntel,60,61025ae37ef11b136ea224fe,,,,,,,,,839,71.38330078,-60.681427,1,0,0,response3disk,,5,14.54095459,-7.444671631,1,0,0,rectangle,14.54095459,-7.444671631,1,0,0,14.54095459,-7.444671631,1,0,0,0,3,3,82,1,,,,,,,,
,,,,,,,,,,,,,FF,,,,,,,,1.6349,,,,,,,,,,,,,,,,,,,,,,60ff390c957f2ba44d3ff87a,61036a480bca9b6bb0ab1217,2021-07-29_20h57.50.650,Simcolourproject_2stim_asymm_v5,2020.2.10,MacIntel,60,61025ae37ef11b136ea224fe,,,,,,,,,513,64.09838867,27.98526001,1,0,0,response1disk,,6,4.340148926,4.122711182,1,0,0,rectangle,4.340148926,4.122711182,1,0,0,4.340148926,4.122711182,1,0,0,0,4,4,101,1,,,,,,,,
,,,,,,,,,,,,,FF,,,,,,,,1.4506,,,,,,,,,,,,,,,,,,,,,,60ff390c957f2ba44d3ff87a,61036a480bca9b6bb0ab1217,2021-07-29_20h57.50.650,Simcolourproject_2stim_asymm_v5,2020.2.10,MacIntel,60,61025ae37ef11b136ea224fe,,,,,,,,,1959,-67.63641357,-32.51904297,1,0,0,response5disk,,2,-3.146911621,-12.39654541,1,0,0,rectangle,-3.146911621,-12.39654541,1,0,0,-3.146911621,-12.39654541,1,0,0,0,5,5,135,1,,,,,,,,
,,,,,,,,,,,,,FF,,,,,,,,1.1174,,,,,,,,,,,,,,,,,,,,,,60ff390c957f2ba44d3ff87a,61036a480bca9b6bb0ab1217,2021-07-29_20h57.50.650,Simcolourproject_2stim_asymm_v5,2020.2.10,MacIntel,60,61025ae37ef11b136ea224fe,,,,,,,,,685,53.5925293,-70.38238525,1,0,0,response3disk,,4,17.22753906,-9.328491211,1,0,0,rectangle,17.22753906,-9.328491211,1,0,0,17.22753906,-9.328491211,1,0,0,0,6,6,95,1,,,,,,,,
,,,,,,,,,,,,,FF,,,,,,,,1.0166,,,,,,,,,,,,,,,,,,,,,,60ff390c957f2ba44d3ff87a,61036a480bca9b6bb0ab1217,2021-07-29_20h57.50.650,Simcolourproject_2stim_asymm_v5,2020.2.10,MacIntel,60,61025ae37ef11b136ea224fe,,,,,,,,,37,-45.64453125,-73.88891602,1,0,0,response5disk,,3,-8.324401855,0.357818604,1,0,0,rectangle,-8.324401855,0.357818604,1,0,0,-8.324401855,0.357818604,1,0,0,0,7,7,1,1,,,,,,,,
,,,,,,,,,,,,,FF,,,,,,,,0.9327,,,,,,,,,,,,,,,,,,,,,,60ff390c957f2ba44d3ff87a,61036a480bca9b6bb0ab1217,2021-07-29_20h57.50.650,Simcolourproject_2stim_asymm_v5,2020.2.10,MacIntel,60,61025ae37ef11b136ea224fe,,,,,,,,,98,-69.03137207,-33.18734741,1,0,0,response5disk,,2,-14.81207275,-6.553344727,1,0,0,rectangle,-14.81207275,-6.553344727,1,0,0,-14.81207275,-6.553344727,1,0,0,0,8,8,103,1,,,,,,,,
,,,,,,,,,,,,,FF,,,,,,,,1.4502,,,,,,,,,,,,,,,,,,,,,,60ff390c957f2ba44d3ff87a,61036a480bca9b6bb0ab1217,2021-07-29_20h57.50.650,Simcolourproject_2stim_asymm_v5,2020.2.10,MacIntel,60,61025ae37ef11b136ea224fe,,,,,,,,,2717,-49.38244629,-41.14749146,1,0,0,response5disk,,2,3.459411621,-8.307495117,1,0,0,rectangle,3.459411621,-8.307495117,1,0,0,3.459411621,-8.307495117,1,0,0,0,9,9,16,1,,,,,,,,
,,,,,,,,,,,,,FF,,,,,,,,1.1343,,,,,,,,,,,,,,,,,,,,,,60ff390c957f2ba44d3ff87a,61036a480bca9b6bb0ab1217,2021-07-29_20h57.50.650,Simcolourproject_2stim_asymm_v5,2020.2.10,MacIntel,60,61025ae37ef11b136ea224fe,,,,,,,,,567,96.81311035,-45.37765503,1,0,0,response3disk,,5,6.958068848,-6.801452637,1,0,0,rectangle,6.958068848,-6.801452637,1,0,0,6.958068848,-6.801452637,1,0,0,0,10,10,136,1,,,,,,,,
,,,,,,,,,,,,,FF,,,,,,,,1.451,,,,,,,,,,,,,,,,,,,,,,60ff390c957f2ba44d3ff87a,61036a480bca9b6bb0ab1217,2021-07-29_20h57.50.650,Simcolourproject_2stim_asymm_v5,2020.2.10,MacIntel,60,61025ae37ef11b136ea224fe,,,,,,,,,340,74.59619141,-43.10983276,1,0,0,response3disk,,5,-8.210876465,5.742858887,1,0,0,rectangle,-8.210876465,5.742858887,1,0,0,-8.210876465,5.742858887,1,0,0,0,11,11,105,1,,,,,,,,
,,,,,,,,,,,,,FF,,,,,,,,1.3338,,,,,,,,,,,,,,,,,,,,,,60ff390c957f2ba44d3ff87a,61036a480bca9b6bb0ab1217,2021-07-29_20h57.50.650,Simcolourproject_2stim_asymm_v5,2020.2.10,MacIntel,60,61025ae37ef11b136ea224fe,,,,,,,,,3510,-45.3651123,74.04656982,1,0,0,response7disk,,0,4.595703125,-8.502319336,1,0,0,rectangle,4.595703125,-8.502319336,1,0,0,4.595703125,-8.502319336,1,0,0,0,12,12,17,1,,,,,,,,
,,,,,,,,,,,,,FF,,,,,,,,2.2516,,,,,,,,,,,,,,,,,,,,,,60ff390c957f2ba44d3ff87a,61036a480bca9b6bb0ab1217,2021-07-29_20h57.50.650,Simcolourproject_2stim_asymm_v5,2020.2.10,MacIntel,60,61025ae37ef11b136ea224fe,,,,,,,,,1768,-54.24786377,-75.78952026,1,0,0,response5disk,,3,-4.079162598,-10.45773315,1,0,0,rectangle,-4.079162598,-10.45773315,1,0,0,-4.079162598,-10.45773315,1,0,0,0,13,13,83,1,,,,,,,,
,,,,,,,,,,,,,FF,,,,,,,,3.2856,,,,,,,,,,,,,,,,,,,,,,60ff390c957f2ba44d3ff87a,61036a480bca9b6bb0ab1217,2021-07-29_20h57.50.650,Simcolourproject_2stim_asymm_v5,2020.2.10,MacIntel,60,61025ae37ef11b136ea224fe,,,,,,,,,2297,-59.08172607,-36.09545898,1,0,0,response5disk,,2,-3.717895508,1.56741333,1,0,0,rectangle,-3.717895508,1.56741333,1,0,0,-3.717895508,1.56741333,1,0,0,0,14,14,89,1,,,,,,,,
,,,,,,,,,,,,,FF,,,,,,,,2.4859,,,,,,,,,,,,,,,,,,,,,,60ff390c957f2ba44d3ff87a,61036a480bca9b6bb0ab1217,2021-07-29_20h57.50.650,Simcolourproject_2stim_asymm_v5,2020.2.10,MacIntel,60,61025ae37ef11b136ea224fe,,,,,,,,,1698,-46.98022461,-63.01678467,1,0,0,response5disk,,3,-4.07623291,-0.290802002,1,0,0,rectangle,-4.07623291,-0.290802002,1,0,0,-4.07623291,-0.290802002,1,0,0,0,15,15,97,1,,,,,,,,
,,,,,,,,,,,,,FF,,,,,,,,1.5671,,,,,,,,,,,,,,,,,,,,,,60ff390c957f2ba44d3ff87a,61036a480bca9b6bb0ab1217,2021-07-29_20h57.50.650,Simcolourproject_2stim_asymm_v5,2020.2.10,MacIntel,60,61025ae37ef11b136ea224fe,,,,,,,,,609,28.65441895,-71.20803833,1,0,0,response3disk,,4,18.27740479,-5.277954102,1,0,0,rectangle,18.27740479,-5.277954102,1,0,0,18.27740479,-5.277954102,1,0,0,0,16,16,154,1,,,,,,,,
,,,,,,,,,,,,,FF,,,,,,,,0.917,,,,,,,,,,,,,,,,,,,,,,60ff390c957f2ba44d3ff87a,61036a480bca9b6bb0ab1217,2021-07-29_20h57.50.650,Simcolourproject_2stim_asymm_v5,2020.2.10,MacIntel,60,61025ae37ef11b136ea224fe,,,,,,,,,1001,83.19897461,-34.96395874,1,0,0,response3disk,,5,13.36083984,1.142669678,1,0,0,rectangle,13.36083984,1.142669678,1,0,0,13.36083984,1.142669678,1,0,0,0,17,17,70,1,,,,,,,,
,,,,,,,,,,,,,FF,,,,,,,,1.7178,,,,,,,,,,,,,,,,,,,,,,60ff390c957f2ba44d3ff87a,61036a480bca9b6bb0ab1217,2021-07-29_20h57.50.650,Simcolourproject_2stim_asymm_v5,2020.2.10,MacIntel,60,61025ae37ef11b136ea224fe,,,,,,,,,141,103.8740845,52.15045166,1,0,0,response1disk,,6,-2.394042969,-3.080413818,1,0,0,rectangle,-2.394042969,-3.080413818,1,0,0,-2.394042969,-3.080413818,1,0,0,0,18,18,109,1,,,,,,,,
,,,,,,,,,,,,,FF,,,,,,,,0.8842,,,,,,,,,,,,,,,,,,,,,,60ff390c957f2ba44d3ff87a,61036a480bca9b6bb0ab1217,2021-07-29_20h57.50.650,Simcolourproject_2stim_asymm_v5,2020.2.10,MacIntel,60,61025ae37ef11b136ea224fe,,,,,,,,,3707,-33.47662354,52.68896484,1,0,0,response7disk,,0,-10.24163818,0.314880371,1,0,0,rectangle,-10.24163818,0.314880371,1,0,0,-10.24163818,0.314880371,1,0,0,0,19,19,112,1,,,,,,,,
,,,,,,,,,,,,,FF,,,,,,,,1.5662,,,,,,,,,,,,,,,,,,,,,,60ff390c957f2ba44d3ff87a,61036a480bca9b6bb0ab1217,2021-07-29_20h57.50.650,Simcolourproject_2stim_asymm_v5,2020.2.10,MacIntel,60,61025ae37ef11b136ea224fe,,,,,,,,,1372,-45.36291504,-75.4251709,1,0,0,response5disk,,3,1.331848145,-5.038024902,1,0,0,rectangle,1.331848145,-5.038024902,1,0,0,1.331848145,-5.038024902,1,0,0,0,20,20,96,1,,,,,,,,
,,,,,,,,,,,,,FF,,,,,,,,4.9525,,,,,,,,,,,,,,,,,,,,,,60ff390c957f2ba44d3ff87a,61036a480bca9b6bb0ab1217,2021-07-29_20h57.50.650,Simcolourproject_2stim_asymm_v5,2020.2.10,MacIntel,60,61025ae37ef11b136ea224fe,,,,,,,,,971,-68.67724609,-71.69665527,1,0,0,response5disk,,3,2.338867188,-3.250671387,1,0,0,rectangle,2.338867188,-3.250671387,1,0,0,2.338867188,-3.250671387,1,0,0,0,21,21,119,1,,,,,,,,
,,,,,,,,,,,,,FF,,,,,,,,1.0492,,,,,,,,,,,,,,,,,,,,,,60ff390c957f2ba44d3ff87a,61036a480bca9b6bb0ab1217,2021-07-29_20h57.50.650,Simcolourproject_2stim_asymm_v5,2020.2.10,MacIntel,60,61025ae37ef11b136ea224fe,,,,,,,,,399,90.72198486,38.39486694,1,0,0,response1disk,,6,14.90808105,6.698944092,1,0,0,rectangle,14.90808105,6.698944092,1,0,0,14.90808105,6.698944092,1,0,0,0,22,22,69,1,,,,,,,,
,,,,,,,,,,,,,FF,,,,,,,,1.9177,,,,,,,,,,,,,,,,,,,,,,60ff390c957f2ba44d3ff87a,61036a480bca9b6bb0ab1217,2021-07-29_20h57.50.650,Simcolourproject_2stim_asymm_v5,2020.2.10,MacIntel,60,61025ae37ef11b136ea224fe,,,,,,,,,3813,-70.41210938,33.3114624,1,0,0,response7disk,,1,8.201965332,3.499053955,1,0,0,rectangle,8.201965332,3.499053955,1,0,0,8.201965332,3.499053955,1,0,0,0,23,23,9,1,,,,,,,,
,,,,,,,,,,,,,FF,,,,,,,,0.9846,,,,,,,,,,,,,,,,,,,,,,60ff390c957f2ba44d3ff87a,61036a480bca9b6bb0ab1217,2021-07-29_20h57.50.650,Simcolourproject_2stim_asymm_v5,2020.2.10,MacIntel,60,61025ae37ef11b136ea224fe,,,,,,,,,3288,61.1449585,-41.56768799,1,0,0,response3disk,,5,18.55499268,-1.395721436,1,0,0,rectangle,18.55499268,-1.395721436,1,0,0,18.55499268,-1.395721436,1,0,0,0,24,24,155,1,,,,,,,,
,,,,,,,,,,,,,FF,,,,,,,,1.3348,,,,,,,,,,,,,,,,,,,,,,60ff390c957f2ba44d3ff87a,61036a480bca9b6bb0ab1217,2021-07-29_20h57.50.650,Simcolourproject_2stim_asymm_v5,2020.2.10,MacIntel,60,61025ae37ef11b136ea224fe,,,,,,,,,3329,-75.04364014,-47.92559814,1,0,0,response5disk,,2,20.21722412,1.697631836,1,0,0,rectangle,20.21722412,1.697631836,1,0,0,20.21722412,1.697631836,1,0,0,0,25,25,122,1,,,,,,,,
,,,,,,,,,,,,,FF,,,,,,,,0.9848,,,,,,,,,,,,,,,,,,,,,,60ff390c957f2ba44d3ff87a,61036a480bca9b6bb0ab1217,2021-07-29_20h57.50.650,Simcolourproject_2stim_asymm_v5,2020.2.10,MacIntel,60,61025ae37ef11b136ea224fe,,,,,,,,,1827,-42.38818359,-81.14862061,1,0,0,response5disk,,3,12.42980957,-0.432556152,1,0,0,rectangle,12.42980957,-0.432556152,1,0,0,12.42980957,-0.432556152,1,0,0,0,26,26,99,1,,,,,,,,
,,,,,,,,,,,,,FF,,,,,,,,1.0178,,,,,,,,,,,,,,,,,,,,,,60ff390c957f2ba44d3ff87a,61036a480bca9b6bb0ab1217,2021-07-29_20h57.50.650,Simcolourproject_2stim_asymm_v5,2020.2.10,MacIntel,60,61025ae37ef11b136ea224fe,,,,,,,,,202,60.42095947,30.50393677,1,0,0,response1disk,,6,2.623535156,8.377746582,1,0,0,rectangle,2.623535156,8.377746582,1,0,0,2.623535156,8.377746582,1,0,0,0,27,27,134,1,,,,,,,,
,,,,,,,,,,,,,FF,,,,,,,,2.2186,,,,,,,,,,,,,,,,,,,,,,60ff390c957f2ba44d3ff87a,61036a480bca9b6bb0ab1217,2021-07-29_20h57.50.650,Simcolourproject_2stim_asymm_v5,2020.2.10,MacIntel,60,61025ae37ef11b136ea224fe,,,,,,,,,789,75.1151123,-35.06704712,1,0,0,response3disk,,5,1.09777832,10.78753662,1,0,0,rectangle,1.09777832,10.78753662,1,0,0,1.09777832,10.78753662,1,0,0,0,28,28,48,1,,,,,,,,
,,,,,,,,,,,,,FF,,,,,,,,2.1185,,,,,,,,,,,,,,,,,,,,,,60ff390c957f2ba44d3ff87a,61036a480bca9b6bb0ab1217,2021-07-29_20h57.50.650,Simcolourproject_2stim_asymm_v5,2020.2.10,MacIntel,60,61025ae37ef11b136ea224fe,,,,,,,,,420,31.73071289,76.52383423,1,0,0,response1disk,,7,-3.739013672,-11.87081909,1,0,0,rectangle,-3.739013672,-11.87081909,1,0,0,-3.739013672,-11.87081909,1,0,0,0,29,29,107,1,,,,,,,,
,,,,,,,,,,,,,FF,,,,,,,,1.0343,,,,,,,,,,,,,,,,,,,,,,60ff390c957f2ba44d3ff87a,61036a480bca9b6bb0ab1217,2021-07-29_20h57.50.650,Simcolourproject_2stim_asymm_v5,2020.2.10,MacIntel,60,61025ae37ef11b136ea224fe,,,,,,,,,1572,97.20874023,-43.17825317,1,0,0,response3disk,,5,9.374206543,-4.979705811,1,0,0,rectangle,9.374206543,-4.979705811,1,0,0,9.374206543,-4.979705811,1,0,0,0,30,30,26,1,,,,,,,,
,,,,,,,,,,,,,FF,,,,,,,,1.6835,,,,,,,,,,,,,,,,,,,,,,60ff390c957f2ba44d3ff87a,61036a480bca9b6bb0ab1217,2021-07-29_20h57.50.650,Simcolourproject_2stim_asymm_v5,2020.2.10,MacIntel,60,61025ae37ef11b136ea224fe,,,,,,,,,773,82.29516602,50.63534546,1,0,0,response1disk,,6,9.946838379,12.0524292,1,0,0,rectangle,9.946838379,12.0524292,1,0,0,9.946838379,12.0524292,1,0,0,0,31,31,148,1,,,,,,,,
,,,,,,,,,,,,,FF,,,,,,,,0.9351,,,,,,,,,,,,,,,,,,,,,,60ff390c957f2ba44d3ff87a,61036a480bca9b6bb0ab1217,2021-07-29_20h57.50.650,Simcolourproject_2stim_asymm_v5,2020.2.10,MacIntel,60,61025ae37ef11b136ea224fe,,,,,,,,,1761,-43.78179932,-83.70367432,1,0,0,response5disk,,3,-5.437927246,3.951690674,1,0,0,rectangle,-5.437927246,3.951690674,1,0,0,-5.437927246,3.951690674,1,0,0,0,32,32,52,1,,,,,,,,
,,,,,,,,,,,,,FF,,,,,,,,2.1003,,,,,,,,,,,,,,,,,,,,,,60ff390c957f2ba44d3ff87a,61036a480bca9b6bb0ab1217,2021-07-29_20h57.50.650,Simcolourproject_2stim_asymm_v5,2020.2.10,MacIntel,60,61025ae37ef11b136ea224fe,,,,,,,,,2649,37.47009277,94.99325562,1,0,0,response1disk,,7,-20.56445313,-1.451446533,1,0,0,rectangle,-20.56445313,-1.451446533,1,0,0,-20.56445313,-1.451446533,1,0,0,0,33,33,147,1,,,,,,,,
,,,,,,,,,,,,,FF,,,,,,,,1.7191,,,,,,,,,,,,,,,,,,,,,,60ff390c957f2ba44d3ff87a,61036a480bca9b6bb0ab1217,2021-07-29_20h57.50.650,Simcolourproject_2stim_asymm_v5,2020.2.10,MacIntel,60,61025ae37ef11b136ea224fe,,,,,,,,,3627,-75.49865723,-42.37518311,1,0,0,response5disk,,2,2.375976563,-4.145446777,1,0,0,rectangle,2.375976563,-4.145446777,1,0,0,2.375976563,-4.145446777,1,0,0,0,34,34,126,1,,,,,,,,
,,,,,,,,,,,,,FF,,,,,,,,0.9849,,,,,,,,,,,,,,,,,,,,,,60ff390c957f2ba44d3ff87a,61036a480bca9b6bb0ab1217,2021-07-29_20h57.50.650,Simcolourproject_2stim_asymm_v5,2020.2.10,MacIntel,60,61025ae37ef11b136ea224fe,,,,,,,,,3558,-72.39825439,40.87857056,1,0,0,response7disk,,1,-14.86529541,5.730438232,1,0,0,rectangle,-14.86529541,5.730438232,1,0,0,-14.86529541,5.730438232,1,0,0,0,35,35,4,1,,,,,,,,
,,,,,,,,,,,,,FF,,,,,,,,0.9667,,,,,,,,,,,,,,,,,,,,,,60ff390c957f2ba44d3ff87a,61036a480bca9b6bb0ab1217,2021-07-29_20h57.50.650,Simcolourproject_2stim_asymm_v5,2020.2.10,MacIntel,60,61025ae37ef11b136ea224fe,,,,,,,,,4231,52.25250244,67.8928833,1,0,0,response1disk,,7,-5.298950195,2.747314453,1,0,0,rectangle,94.08551025,-40.92803955,1,0,0,-0.063049316,5.408569336,1,0,0,0,36,36,53,1,,response3disk_3,TRUE,5,5,"[235,256,37,319,127,135,62,55,121,304,195,263,264,168,286,98,202,88,115,180]",2.4338,rectangle
,,,,,,,,,,,,,FF,,,,,,,,4.5867,,,,,,,,,,,,,,,,,,,,,,60ff390c957f2ba44d3ff87a,61036a480bca9b6bb0ab1217,2021-07-29_20h57.50.650,Simcolourproject_2stim_asymm_v5,2020.2.10,MacIntel,60,61025ae37ef11b136ea224fe,,,,,,,,,3426,-95.97601318,21.34283447,1,0,0,response7disk,,1,13.60253906,-3.342803955,1,0,0,rectangle,13.60253906,-3.342803955,1,0,0,13.60253906,-3.342803955,1,0,0,0,37,37,27,1,,,,,,,,
,,,,,,,,,,,,,FF,,,,,,,,1.183,,,,,,,,,,,,,,,,,,,,,,60ff390c957f2ba44d3ff87a,61036a480bca9b6bb0ab1217,2021-07-29_20h57.50.650,Simcolourproject_2stim_asymm_v5,2020.2.10,MacIntel,60,61025ae37ef11b136ea224fe,,,,,,,,,302,34.98950195,72.68911743,1,0,0,response1disk,,7,15.40240479,0.451293945,1,0,0,rectangle,15.40240479,0.451293945,1,0,0,15.40240479,0.451293945,1,0,0,0,38,38,49,1,,,,,,,,
,,,,,,,,,,,,,FF,,,,,,,,2.3514,,,,,,,,,,,,,,,,,,,,,,60ff390c957f2ba44d3ff87a,61036a480bca9b6bb0ab1217,2021-07-29_20h57.50.650,Simcolourproject_2stim_asymm_v5,2020.2.10,MacIntel,60,61025ae37ef11b136ea224fe,,,,,,,,,3238,-67.08251953,-23.19750977,1,0,0,response5disk,,2,-17.41204834,2.125610352,1,0,0,rectangle,-17.41204834,2.125610352,1,0,0,-17.41204834,2.125610352,1,0,0,0,39,39,20,1,,,,,,,,
,,,,,,,,,,,,,FF,,,,,,,,1.9169,,,,,,,,,,,,,,,,,,,,,,60ff390c957f2ba44d3ff87a,61036a480bca9b6bb0ab1217,2021-07-29_20h57.50.650,Simcolourproject_2stim_asymm_v5,2020.2.10,MacIntel,60,61025ae37ef11b136ea224fe,,,,,,,,,3370,48.62701416,73.54168701,1,0,0,response1disk,,7,6.758605957,1.982513428,1,0,0,rectangle,6.758605957,1.982513428,1,0,0,6.758605957,1.982513428,1,0,0,0,40,40,43,1,,,,,,,,
,,,,,,,,,,,,,FF,,,,,,,,0.8169,,,,,,,,,,,,,,,,,,,,,,60ff390c957f2ba44d3ff87a,61036a480bca9b6bb0ab1217,2021-07-29_20h57.50.650,Simcolourproject_2stim_asymm_v5,2020.2.10,MacIntel,60,61025ae37ef11b136ea224fe,,,,,,,,,3477,-54.91741943,38.84606934,1,0,0,response7disk,,1,-14.14282227,-4.873046875,1,0,0,rectangle,-14.14282227,-4.873046875,1,0,0,-14.14282227,-4.873046875,1,0,0,0,41,41,0,1,,,,,,,,
,,,,,,,,,,,,,FF,,,,,,,,0.834,,,,,,,,,,,,,,,,,,,,,,60ff390c957f2ba44d3ff87a,61036a480bca9b6bb0ab1217,2021-07-29_20h57.50.650,Simcolourproject_2stim_asymm_v5,2020.2.10,MacIntel,60,61025ae37ef11b136ea224fe,,,,,,,,,2093,-37.62121582,84.24041748,1,0,0,response7disk,,0,0.541809082,3.027282715,1,0,0,rectangle,0.541809082,3.027282715,1,0,0,0.541809082,3.027282715,1,0,0,0,42,42,45,1,,,,,,,,
,,,,,,,,,,,,,FF,,,,,,,,2.5687,,,,,,,,,,,,,,,,,,,,,,60ff390c957f2ba44d3ff87a,61036a480bca9b6bb0ab1217,2021-07-29_20h57.50.650,Simcolourproject_2stim_asymm_v5,2020.2.10,MacIntel,60,61025ae37ef11b136ea224fe,,,,,,,,,2054,63.90307617,-93.11004639,1,0,0,response3disk,,4,12.11987305,-3.202056885,1,0,0,rectangle,12.11987305,-3.202056885,1,0,0,12.11987305,-3.202056885,1,0,0,0,43,43,90,1,,,,,,,,
,,,,,,,,,,,,,FF,,,,,,,,0.9022,,,,,,,,,,,,,,,,,,,,,,60ff390c957f2ba44d3ff87a,61036a480bca9b6bb0ab1217,2021-07-29_20h57.50.650,Simcolourproject_2stim_asymm_v5,2020.2.10,MacIntel,60,61025ae37ef11b136ea224fe,,,,,,,,,1456,-78.85552979,-35.60006714,1,0,0,response5disk,,2,5.13671875,-2.790466309,1,0,0,rectangle,5.13671875,-2.790466309,1,0,0,5.13671875,-2.790466309,1,0,0,0,44,44,21,1,,,,,,,,
,,,,,,,,,,,,,FF,,,,,,,,3.1346,,,,,,,,,,,,,,,,,,,,,,60ff390c957f2ba44d3ff87a,61036a480bca9b6bb0ab1217,2021-07-29_20h57.50.650,Simcolourproject_2stim_asymm_v5,2020.2.10,MacIntel,60,61025ae37ef11b136ea224fe,,,,,,,,,3078,67.50970459,25.05621338,1,0,0,response1disk,,6,0.308349609,-2.403320313,1,0,0,rectangle,0.308349609,-2.403320313,1,0,0,0.308349609,-2.403320313,1,0,0,0,45,45,98,1,,,,,,,,
,,,,,,,,,,,,,FF,,,,,,,,1.2012,,,,,,,,,,,,,,,,,,,,,,60ff390c957f2ba44d3ff87a,61036a480bca9b6bb0ab1217,2021-07-29_20h57.50.650,Simcolourproject_2stim_asymm_v5,2020.2.10,MacIntel,60,61025ae37ef11b136ea224fe,,,,,,,,,2250,-66.06359863,-37.21551514,1,0,0,response5disk,,2,7.178161621,-3.048217773,1,0,0,rectangle,7.178161621,-3.048217773,1,0,0,7.178161621,-3.048217773,1,0,0,0,46,46,152,1,,,,,,,,
,,,,,,,,,,,,,FF,,,,,,,,1.1835,,,,,,,,,,,,,,,,,,,,,,60ff390c957f2ba44d3ff87a,61036a480bca9b6bb0ab1217,2021-07-29_20h57.50.650,Simcolourproject_2stim_asymm_v5,2020.2.10,MacIntel,60,61025ae37ef11b136ea224fe,,,,,,,,,2844,38.59466553,-83.90682983,1,0,0,response3disk,,4,22.05895996,-1.554473877,1,0,0,rectangle,22.05895996,-1.554473877,1,0,0,22.05895996,-1.554473877,1,0,0,0,47,47,116,1,,,,,,,,
,,,,,,,,,,,,,FF,,,,,,,,0.9188,,,,,,,,,,,,,,,,,,,,,,60ff390c957f2ba44d3ff87a,61036a480bca9b6bb0ab1217,2021-07-29_20h57.50.650,Simcolourproject_2stim_asymm_v5,2020.2.10,MacIntel,60,61025ae37ef11b136ea224fe,,,,,,,,,3332,-34.33972168,-66.64691162,1,0,0,response5disk,,3,-6.680847168,3.797943115,1,0,0,rectangle,-6.680847168,3.797943115,1,0,0,-6.680847168,3.797943115,1,0,0,0,48,48,140,1,,,,,,,,
,,,,,,,,,,,,,FF,,,,,,,,0.9496,,,,,,,,,,,,,,,,,,,,,,60ff390c957f2ba44d3ff87a,61036a480bca9b6bb0ab1217,2021-07-29_20h57.50.650,Simcolourproject_2stim_asymm_v5,2020.2.10,MacIntel,60,61025ae37ef11b136ea224fe,,,,,,,,,892,92.85986328,-22.58203125,1,0,0,response3disk,,5,6.250427246,-1.674407959,1,0,0,rectangle,6.250427246,-1.674407959,1,0,0,6.250427246,-1.674407959,1,0,0,0,49,49,124,1,,,,,,,,
,,,,,,,,,,,,,FF,,,,,,,,0.9173,,,,,,,,,,,,,,,,,,,,,,60ff390c957f2ba44d3ff87a,61036a480bca9b6bb0ab1217,2021-07-29_20h57.50.650,Simcolourproject_2stim_asymm_v5,2020.2.10,MacIntel,60,61025ae37ef11b136ea224fe,,,,,,,,,2068,66.01519775,43.03729248,1,0,0,response1disk,,6,-14.8157959,-3.463623047,1,0,0,rectangle,-14.8157959,-3.463623047,1,0,0,-14.8157959,-3.463623047,1,0,0,0,50,50,63,1,,,,,,,,
,,,,,,,,,,,,,FF,,,,,,,,1.1675,,,,,,,,,,,,,,,,,,,,,,60ff390c957f2ba44d3ff87a,61036a480bca9b6bb0ab1217,2021-07-29_20h57.50.650,Simcolourproject_2stim_asymm_v5,2020.2.10,MacIntel,60,61025ae37ef11b136ea224fe,,,,,,,,,819,67.73950195,26.45635986,1,0,0,response1disk,,6,-6.097473145,-6.990783691,1,0,0,rectangle,-6.097473145,-6.990783691,1,0,0,-6.097473145,-6.990783691,1,0,0,0,51,51,146,1,,,,,,,,
,,,,,,,,,,,,,FF,,,,,,,,1.3178,,,,,,,,,,,,,,,,,,,,,,60ff390c957f2ba44d3ff87a,61036a480bca9b6bb0ab1217,2021-07-29_20h57.50.650,Simcolourproject_2stim_asymm_v5,2020.2.10,MacIntel,60,61025ae37ef11b136ea224fe,,,,,,,,,2790,50.03375244,-69.15768433,1,0,0,response3disk,,4,10.74072266,-2.381256104,1,0,0,rectangle,10.74072266,-2.381256104,1,0,0,10.74072266,-2.381256104,1,0,0,0,52,52,123,1,,,,,,,,
,,,,,,,,,,,,,FF,,,,,,,,1.0672,,,,,,,,,,,,,,,,,,,,,,60ff390c957f2ba44d3ff87a,61036a480bca9b6bb0ab1217,2021-07-29_20h57.50.650,Simcolourproject_2stim_asymm_v5,2020.2.10,MacIntel,60,61025ae37ef11b136ea224fe,,,,,,,,,2347,70.47338867,44.47052002,1,0,0,response1disk,,6,5.406433105,-2.626525879,1,0,0,rectangle,5.406433105,-2.626525879,1,0,0,5.406433105,-2.626525879,1,0,0,0,53,53,139,1,,,,,,,,
,,,,,,,,,,,,,FF,,,,,,,,1.0165,,,,,,,,,,,,,,,,,,,,,,60ff390c957f2ba44d3ff87a,61036a480bca9b6bb0ab1217,2021-07-29_20h57.50.650,Simcolourproject_2stim_asymm_v5,2020.2.10,MacIntel,60,61025ae37ef11b136ea224fe,,,,,,,,,1533,88.82208252,33.35012817,1,0,0,response1disk,,6,-13.92773438,-5.637268066,1,0,0,rectangle,89.17401123,-44.57943726,1,0,0,8.647094727,-1.703430176,1,0,0,0,54,54,133,1,,response3disk_3,TRUE,5,5,"[235,256,37,319,127,135,62,55,121,304,195,263,264,168,286,98,202,88,115,180]",2.2842,rectangle
,,,,,,,,,,,,,FF,,,,,,,,1.3841,,,,,,,,,,,,,,,,,,,,,,60ff390c957f2ba44d3ff87a,61036a480bca9b6bb0ab1217,2021-07-29_20h57.50.650,Simcolourproject_2stim_asymm_v5,2020.2.10,MacIntel,60,61025ae37ef11b136ea224fe,,,,,,,,,181,58.39398193,-37.91436768,1,0,0,response3disk,,5,17.78631592,-5.494720459,1,0,0,rectangle,17.78631592,-5.494720459,1,0,0,17.78631592,-5.494720459,1,0,0,0,55,55,128,1,,,,,,,,
,,,,,,,,,,,,,FF,,,,,,,,0.8515,,,,,,,,,,,,,,,,,,,,,,60ff390c957f2ba44d3ff87a,61036a480bca9b6bb0ab1217,2021-07-29_20h57.50.650,Simcolourproject_2stim_asymm_v5,2020.2.10,MacIntel,60,61025ae37ef11b136ea224fe,,,,,,,,,2384,75.84075928,22.82299805,1,0,0,response1disk,,6,11.28192139,4.490203857,1,0,0,rectangle,11.28192139,4.490203857,1,0,0,11.28192139,4.490203857,1,0,0,0,56,56,121,1,,,,,,,,
,,,,,,,,,,,,,FF,,,,,,,,1.0996,,,,,,,,,,,,,,,,,,,,,,60ff390c957f2ba44d3ff87a,61036a480bca9b6bb0ab1217,2021-07-29_20h57.50.650,Simcolourproject_2stim_asymm_v5,2020.2.10,MacIntel,60,61025ae37ef11b136ea224fe,,,,,,,,,3981,38.07775879,-80.89523315,1,0,0,response3disk,,4,-11.1373291,7.373352051,1,0,0,rectangle,-11.1373291,7.373352051,1,0,0,-11.1373291,7.373352051,1,0,0,0,57,57,88,1,,,,,,,,
,,,,,,,,,,,,,FF,,,,,,,,3.0509,,,,,,,,,,,,,,,,,,,,,,60ff390c957f2ba44d3ff87a,61036a480bca9b6bb0ab1217,2021-07-29_20h57.50.650,Simcolourproject_2stim_asymm_v5,2020.2.10,MacIntel,60,61025ae37ef11b136ea224fe,,,,,,,,,705,56.34924316,-28.16427612,1,0,0,response3disk,,5,4.786499023,2.128417969,1,0,0,rectangle,4.786499023,2.128417969,1,0,0,4.786499023,2.128417969,1,0,0,0,58,58,117,1,,,,,,,,
,,,,,,,,,,,,,FF,,,,,,,,1.0677,,,,,,,,,,,,,,,,,,,,,,60ff390c957f2ba44d3ff87a,61036a480bca9b6bb0ab1217,2021-07-29_20h57.50.650,Simcolourproject_2stim_asymm_v5,2020.2.10,MacIntel,60,61025ae37ef11b136ea224fe,,,,,,,,,3605,-39.35638428,-81.21307373,1,0,0,response5disk,,3,-27.90472412,12.23135376,1,0,0,rectangle,-27.90472412,12.23135376,1,0,0,-27.90472412,12.23135376,1,0,0,0,59,59,59,1,,,,,,,,
,,,,,,,,,,,,,FF,,,,,,,,4.8015,,,,,,,,,,,,,,,,,,,,,,60ff390c957f2ba44d3ff87a,61036a480bca9b6bb0ab1217,2021-07-29_20h57.50.650,Simcolourproject_2stim_asymm_v5,2020.2.10,MacIntel,60,61025ae37ef11b136ea224fe,,,,,,,,,2807,47.17541504,-91.60299683,1,0,0,response3disk,,4,12.00695801,-6.18548584,1,0,0,rectangle,12.00695801,-6.18548584,1,0,0,12.00695801,-6.18548584,1,0,0,0,60,60,67,1,,,,,,,,
,,,,,,,,,,,,,FF,,,,,,,,0.8004,,,,,,,,,,,,,,,,,,,,,,60ff390c957f2ba44d3ff87a,61036a480bca9b6bb0ab1217,2021-07-29_20h57.50.650,Simcolourproject_2stim_asymm_v5,2020.2.10,MacIntel,60,61025ae37ef11b136ea224fe,,,,,,,,,2204,78.06555176,-38.38607788,1,0,0,response3disk,,5,9.301940918,2.476013184,1,0,0,rectangle,27.42895508,87.57055664,1,0,0,2.398620605,-1.999359131,1,0,0,0,61,61,65,1,,response1disk_3,TRUE,7,7,"[235,256,37,319,127,135,62,55,121,304,195,263,264,168,286,98,202,88,115,180]",2.1329,rectangle
,,,,,,,,,,,,,FF,,,,,,,,2.3001,,,,,,,,,,,,,,,,,,,,,,60ff390c957f2ba44d3ff87a,61036a480bca9b6bb0ab1217,2021-07-29_20h57.50.650,Simcolourproject_2stim_asymm_v5,2020.2.10,MacIntel,60,61025ae37ef11b136ea224fe,,,,,,,,,3324,51.18182373,36.63079834,1,0,0,response1disk,,6,-5.61340332,2.597808838,1,0,0,rectangle,-5.61340332,2.597808838,1,0,0,-5.61340332,2.597808838,1,0,0,0,62,62,102,1,,,,,,,,
,,,,,,,,,,,,,FF,,,,,,,,1.0178,,,,,,,,,,,,,,,,,,,,,,60ff390c957f2ba44d3ff87a,61036a480bca9b6bb0ab1217,2021-07-29_20h57.50.650,Simcolourproject_2stim_asymm_v5,2020.2.10,MacIntel,60,61025ae37ef11b136ea224fe,,,,,,,,,254,33.79681396,-58.07305908,1,0,0,response3disk,,4,17.89880371,-10.63476563,1,0,0,rectangle,17.89880371,-10.63476563,1,0,0,17.89880371,-10.63476563,1,0,0,0,63,63,125,1,,,,,,,,
,,,,,,,,,,,,,FF,,,,,,,,7.4857,,,,,,,,,,,,,,,,,,,,,,60ff390c957f2ba44d3ff87a,61036a480bca9b6bb0ab1217,2021-07-29_20h57.50.650,Simcolourproject_2stim_asymm_v5,2020.2.10,MacIntel,60,61025ae37ef11b136ea224fe,,,,,,,,,1760,-52.50872803,-69.32913208,1,0,0,response5disk,,3,-9.951904297,5.884216309,1,0,0,rectangle,-9.951904297,5.884216309,1,0,0,-9.951904297,5.884216309,1,0,0,0,64,64,3,1,,,,,,,,
,,,,,,,,,,,,,FF,,,,,,,,1.0838,,,,,,,,,,,,,,,,,,,,,,60ff390c957f2ba44d3ff87a,61036a480bca9b6bb0ab1217,2021-07-29_20h57.50.650,Simcolourproject_2stim_asymm_v5,2020.2.10,MacIntel,60,61025ae37ef11b136ea224fe,,,,,,,,,214,100.3737793,-55.33538818,1,0,0,response3disk,,5,5.944580078,0.969909668,1,0,0,rectangle,5.944580078,0.969909668,1,0,0,5.944580078,0.969909668,1,0,0,0,65,65,60,1,,,,,,,,
,,,,,,,,,,,,,FF,,,,,,,,1.7,,,,,,,,,,,,,,,,,,,,,,60ff390c957f2ba44d3ff87a,61036a480bca9b6bb0ab1217,2021-07-29_20h57.50.650,Simcolourproject_2stim_asymm_v5,2020.2.10,MacIntel,60,61025ae37ef11b136ea224fe,,,,,,,,,450,83.59161377,-46.94598389,1,0,0,response3disk,,5,-3.967895508,4.900238037,1,0,0,rectangle,-3.967895508,4.900238037,1,0,0,-3.967895508,4.900238037,1,0,0,0,66,66,94,1,,,,,,,,
,,,,,,,,,,,,,FF,,,,,,,,1.3841,,,,,,,,,,,,,,,,,,,,,,60ff390c957f2ba44d3ff87a,61036a480bca9b6bb0ab1217,2021-07-29_20h57.50.650,Simcolourproject_2stim_asymm_v5,2020.2.10,MacIntel,60,61025ae37ef11b136ea224fe,,,,,,,,,2393,24.62567139,-59.13763428,1,0,0,response3disk,,4,10.09887695,-0.592803955,1,0,0,rectangle,10.09887695,-0.592803955,1,0,0,10.09887695,-0.592803955,1,0,0,0,67,67,42,1,,,,,,,,
,,,,,,,,,,,,,FF,,,,,,,,1.1321,,,,,,,,,,,,,,,,,,,,,,60ff390c957f2ba44d3ff87a,61036a480bca9b6bb0ab1217,2021-07-29_20h57.50.650,Simcolourproject_2stim_asymm_v5,2020.2.10,MacIntel,60,61025ae37ef11b136ea224fe,,,,,,,,,928,82.22851563,27.84893799,1,0,0,response1disk,,6,13.50500488,1.64855957,1,0,0,rectangle,13.50500488,1.64855957,1,0,0,13.50500488,1.64855957,1,0,0,0,68,68,25,1,,,,,,,,
,,,,,,,,,,,,,FF,,,,,,,,1.5008,,,,,,,,,,,,,,,,,,,,,,60ff390c957f2ba44d3ff87a,61036a480bca9b6bb0ab1217,2021-07-29_20h57.50.650,Simcolourproject_2stim_asymm_v5,2020.2.10,MacIntel,60,61025ae37ef11b136ea224fe,,,,,,,,,959,26.20281982,75.37582397,1,0,0,response1disk,,7,-0.586975098,4.183166504,1,0,0,rectangle,-0.586975098,4.183166504,1,0,0,-0.586975098,4.183166504,1,0,0,0,69,69,7,1,,,,,,,,
,,,,,,,,,,,,,FF,,,,,,,,0.9334,,,,,,,,,,,,,,,,,,,,,,60ff390c957f2ba44d3ff87a,61036a480bca9b6bb0ab1217,2021-07-29_20h57.50.650,Simcolourproject_2stim_asymm_v5,2020.2.10,MacIntel,60,61025ae37ef11b136ea224fe,,,,,,,,,4077,33.66265869,78.27749634,1,0,0,response1disk,,7,4.926879883,0.946624756,1,0,0,rectangle,4.926879883,0.946624756,1,0,0,4.926879883,0.946624756,1,0,0,0,70,70,127,1,,,,,,,,
,,,,,,,,,,,,,FF,,,,,,,,1.2178,,,,,,,,,,,,,,,,,,,,,,60ff390c957f2ba44d3ff87a,61036a480bca9b6bb0ab1217,2021-07-29_20h57.50.650,Simcolourproject_2stim_asymm_v5,2020.2.10,MacIntel,60,61025ae37ef11b136ea224fe,,,,,,,,,4358,-72.76257324,30.82324219,1,0,0,response7disk,,1,4.999450684,-10.38626099,1,0,0,rectangle,4.999450684,-10.38626099,1,0,0,4.999450684,-10.38626099,1,0,0,0,71,71,80,1,,,,,,,,
,,,,,,,,,,,,,FF,,,,,,,,0.8335,,,,,,,,,,,,,,,,,,,,,,60ff390c957f2ba44d3ff87a,61036a480bca9b6bb0ab1217,2021-07-29_20h57.50.650,Simcolourproject_2stim_asymm_v5,2020.2.10,MacIntel,60,61025ae37ef11b136ea224fe,,,,,,,,,4331,36.503479,57.23370361,1,0,0,response1disk,,7,20.01385498,4.83190918,1,0,0,rectangle,20.01385498,4.83190918,1,0,0,20.01385498,4.83190918,1,0,0,0,72,72,149,1,,,,,,,,
,,,,,,,,,,,,,FF,,,,,,,,0.9673,,,,,,,,,,,,,,,,,,,,,,60ff390c957f2ba44d3ff87a,61036a480bca9b6bb0ab1217,2021-07-29_20h57.50.650,Simcolourproject_2stim_asymm_v5,2020.2.10,MacIntel,60,61025ae37ef11b136ea224fe,,,,,,,,,807,-26.25469971,-76.24499512,1,0,0,response5disk,,3,11.93432617,4.149963379,1,0,0,rectangle,11.93432617,4.149963379,1,0,0,11.93432617,4.149963379,1,0,0,0,73,73,87,1,,,,,,,,
,,,,,,,,,,,,,FF,,,,,,,,1.3341,,,,,,,,,,,,,,,,,,,,,,60ff390c957f2ba44d3ff87a,61036a480bca9b6bb0ab1217,2021-07-29_20h57.50.650,Simcolourproject_2stim_asymm_v5,2020.2.10,MacIntel,60,61025ae37ef11b136ea224fe,,,,,,,,,3002,35.55053711,-85.22827148,1,0,0,response3disk,,4,4.242919922,2.920318604,1,0,0,rectangle,4.242919922,2.920318604,1,0,0,4.242919922,2.920318604,1,0,0,0,74,74,34,1,,,,,,,,
,,,,,,,,,,,,,FF,,,,,,,,1.501,,,,,,,,,,,,,,,,,,,,,,60ff390c957f2ba44d3ff87a,61036a480bca9b6bb0ab1217,2021-07-29_20h57.50.650,Simcolourproject_2stim_asymm_v5,2020.2.10,MacIntel,60,61025ae37ef11b136ea224fe,,,,,,,,,2937,44.75946045,-91.78808594,1,0,0,response3disk,,4,9.784057617,6.616363525,1,0,0,rectangle,9.784057617,6.616363525,1,0,0,9.784057617,6.616363525,1,0,0,0,75,75,29,1,,,,,,,,
,,,,,,,,,,,,,FF,,,,,,,,3.5348,,,,,,,,,,,,,,,,,,,,,,60ff390c957f2ba44d3ff87a,61036a480bca9b6bb0ab1217,2021-07-29_20h57.50.650,Simcolourproject_2stim_asymm_v5,2020.2.10,MacIntel,60,61025ae37ef11b136ea224fe,,,,,,,,,68,88.60992432,-45.76873779,1,0,0,response3disk,,5,-5.794006348,0.693756104,1,0,0,rectangle,-5.794006348,0.693756104,1,0,0,-5.794006348,0.693756104,1,0,0,0,76,76,5,1,,,,,,,,
,,,,,,,,,,,,,FF,,,,,,,,1.4177,,,,,,,,,,,,,,,,,,,,,,60ff390c957f2ba44d3ff87a,61036a480bca9b6bb0ab1217,2021-07-29_20h57.50.650,Simcolourproject_2stim_asymm_v5,2020.2.10,MacIntel,60,61025ae37ef11b136ea224fe,,,,,,,,,3010,81.70129395,29.05654907,1,0,0,response1disk,,6,-18.02728271,4.469818115,1,0,0,rectangle,-18.02728271,4.469818115,1,0,0,-18.02728271,4.469818115,1,0,0,0,77,77,62,1,,,,,,,,
,,,,,,,,,,,,,FF,,,,,,,,1.1172,,,,,,,,,,,,,,,,,,,,,,60ff390c957f2ba44d3ff87a,61036a480bca9b6bb0ab1217,2021-07-29_20h57.50.650,Simcolourproject_2stim_asymm_v5,2020.2.10,MacIntel,60,61025ae37ef11b136ea224fe,,,,,,,,,2216,88.0824585,24.60131836,1,0,0,response1disk,,6,-5.921447754,-3.45123291,1,0,0,rectangle,-5.921447754,-3.45123291,1,0,0,-5.921447754,-3.45123291,1,0,0,0,78,78,132,1,,,,,,,,
,,,,,,,,,,,,,FF,,,,,,,,1.235,,,,,,,,,,,,,,,,,,,,,,60ff390c957f2ba44d3ff87a,61036a480bca9b6bb0ab1217,2021-07-29_20h57.50.650,Simcolourproject_2stim_asymm_v5,2020.2.10,MacIntel,60,61025ae37ef11b136ea224fe,,,,,,,,,4084,71.67272949,39.84909058,1,0,0,response1disk,,6,-0.479980469,4.833465576,1,0,0,rectangle,-0.479980469,4.833465576,1,0,0,-0.479980469,4.833465576,1,0,0,0,79,79,57,1,,,,,,,,
,,,,,,,,,,,,,FF,,,,,,,,0.9836,,,,,,,,,,,,,,,,,,,,,,60ff390c957f2ba44d3ff87a,61036a480bca9b6bb0ab1217,2021-07-29_20h57.50.650,Simcolourproject_2stim_asymm_v5,2020.2.10,MacIntel,60,61025ae37ef11b136ea224fe,,,,,,,,,1965,-60.11431885,41.60134888,1,0,0,response7disk,,1,4.698913574,4.651519775,1,0,0,rectangle,4.698913574,4.651519775,1,0,0,4.698913574,4.651519775,1,0,0,0,80,80,61,1,,,,,,,,
,,,,,,,,,,,,,FF,,,,,,,,3.1511,,,,,,,,,,,,,,,,,,,,,,60ff390c957f2ba44d3ff87a,61036a480bca9b6bb0ab1217,2021-07-29_20h57.50.650,Simcolourproject_2stim_asymm_v5,2020.2.10,MacIntel,60,61025ae37ef11b136ea224fe,,,,,,,,,1679,77.30114746,29.05227661,1,0,0,response1disk,,6,7.780883789,4.170684814,1,0,0,rectangle,7.780883789,4.170684814,1,0,0,7.780883789,4.170684814,1,0,0,0,81,81,85,1,,,,,,,,
,,,,,,,,,,,,,FF,,,,,,,,2.467,,,,,,,,,,,,,,,,,,,,,,60ff390c957f2ba44d3ff87a,61036a480bca9b6bb0ab1217,2021-07-29_20h57.50.650,Simcolourproject_2stim_asymm_v5,2020.2.10,MacIntel,60,61025ae37ef11b136ea224fe,,,,,,,,,3500,44.73913574,76.88418579,1,0,0,response1disk,,7,-3.35559082,-0.871276855,1,0,0,rectangle,-3.35559082,-0.871276855,1,0,0,-3.35559082,-0.871276855,1,0,0,0,82,82,68,1,,,,,,,,
,,,,,,,,,,,,,FF,,,,,,,,1.0013,,,,,,,,,,,,,,,,,,,,,,60ff390c957f2ba44d3ff87a,61036a480bca9b6bb0ab1217,2021-07-29_20h57.50.650,Simcolourproject_2stim_asymm_v5,2020.2.10,MacIntel,60,61025ae37ef11b136ea224fe,,,,,,,,,1060,95.55389404,42.70803833,1,0,0,response1disk,,6,16.31243896,2.862457275,1,0,0,rectangle,16.31243896,2.862457275,1,0,0,16.31243896,2.862457275,1,0,0,0,83,83,56,1,,,,,,,,
,,,,,,,,,,,,,FF,,,,,,,,1.3011,,,,,,,,,,,,,,,,,,,,,,60ff390c957f2ba44d3ff87a,61036a480bca9b6bb0ab1217,2021-07-29_20h57.50.650,Simcolourproject_2stim_asymm_v5,2020.2.10,MacIntel,60,61025ae37ef11b136ea224fe,,,,,,,,,3622,-45.15710449,-75.19055176,1,0,0,response5disk,,3,-1.807189941,9.630310059,1,0,0,rectangle,-1.807189941,9.630310059,1,0,0,-1.807189941,9.630310059,1,0,0,0,84,84,13,1,,,,,,,,
,,,,,,,,,,,,,FF,,,,,,,,0.982,,,,,,,,,,,,,,,,,,,,,,60ff390c957f2ba44d3ff87a,61036a480bca9b6bb0ab1217,2021-07-29_20h57.50.650,Simcolourproject_2stim_asymm_v5,2020.2.10,MacIntel,60,61025ae37ef11b136ea224fe,,,,,,,,,3908,-64.3092041,25.95758057,1,0,0,response7disk,,1,2.657348633,-1.145446777,1,0,0,rectangle,2.657348633,-1.145446777,1,0,0,2.657348633,-1.145446777,1,0,0,0,85,85,130,1,,,,,,,,
,,,,,,,,,,,,,FF,,,,,,,,1.1334,,,,,,,,,,,,,,,,,,,,,,60ff390c957f2ba44d3ff87a,61036a480bca9b6bb0ab1217,2021-07-29_20h57.50.650,Simcolourproject_2stim_asymm_v5,2020.2.10,MacIntel,60,61025ae37ef11b136ea224fe,,,,,,,,,215,44.32226563,-65.18618774,1,0,0,response3disk,,4,13.33660889,-6.573974609,1,0,0,rectangle,13.33660889,-6.573974609,1,0,0,13.33660889,-6.573974609,1,0,0,0,86,86,10,1,,,,,,,,
,,,,,,,,,,,,,FF,,,,,,,,1.2503,,,,,,,,,,,,,,,,,,,,,,60ff390c957f2ba44d3ff87a,61036a480bca9b6bb0ab1217,2021-07-29_20h57.50.650,Simcolourproject_2stim_asymm_v5,2020.2.10,MacIntel,60,61025ae37ef11b136ea224fe,,,,,,,,,3986,39.65240479,-57.46279907,1,0,0,response3disk,,4,11.87353516,-2.571990967,1,0,0,rectangle,-40.7557373,86.3213501,1,0,0,-3.559509277,5.175262451,1,0,0,0,87,87,159,1,,response7disk_3,TRUE,0,0,"[235,256,37,319,127,135,62,55,121,304,195,263,264,168,286,98,202,88,115,180]",2.6003,rectangle
,,,,,,,,,,,,,FF,,,,,,,,3.4854,,,,,,,,,,,,,,,,,,,,,,60ff390c957f2ba44d3ff87a,61036a480bca9b6bb0ab1217,2021-07-29_20h57.50.650,Simcolourproject_2stim_asymm_v5,2020.2.10,MacIntel,60,61025ae37ef11b136ea224fe,,,,,,,,,1302,30.75524902,-82.37530518,1,0,0,response3disk,,4,15.84094238,3.991271973,1,0,0,rectangle,15.84094238,3.991271973,1,0,0,15.84094238,3.991271973,1,0,0,0,88,88,142,1,,,,,,,,
,,,,,,,,,,,,,FF,,,,,,,,1.0659,,,,,,,,,,,,,,,,,,,,,,60ff390c957f2ba44d3ff87a,61036a480bca9b6bb0ab1217,2021-07-29_20h57.50.650,Simcolourproject_2stim_asymm_v5,2020.2.10,MacIntel,60,61025ae37ef11b136ea224fe,,,,,,,,,453,78.75701904,-38.51187134,1,0,0,response3disk,,5,-2.668029785,-10.45556641,1,0,0,rectangle,-2.668029785,-10.45556641,1,0,0,-2.668029785,-10.45556641,1,0,0,0,89,89,8,1,,,,,,,,
,,,,,,,,,,,,,FF,,,,,,,,2.3998,,,,,,,,,,,,,,,,,,,,,,60ff390c957f2ba44d3ff87a,61036a480bca9b6bb0ab1217,2021-07-29_20h57.50.650,Simcolourproject_2stim_asymm_v5,2020.2.10,MacIntel,60,61025ae37ef11b136ea224fe,,,,,,,,,1177,44.55755615,97.6282959,1,0,0,response1disk,,7,7.36920166,-0.353637695,1,0,0,rectangle,7.36920166,-0.353637695,1,0,0,7.36920166,-0.353637695,1,0,0,0,90,90,23,1,,,,,,,,
,,,,,,,,,,,,,FF,,,,,,,,0.8818,,,,,,,,,,,,,,,,,,,,,,60ff390c957f2ba44d3ff87a,61036a480bca9b6bb0ab1217,2021-07-29_20h57.50.650,Simcolourproject_2stim_asymm_v5,2020.2.10,MacIntel,60,61025ae37ef11b136ea224fe,,,,,,,,,1609,-46.99377441,83.29983521,1,0,0,response7disk,,0,-8.063476563,3.462036133,1,0,0,rectangle,-8.063476563,3.462036133,1,0,0,-8.063476563,3.462036133,1,0,0,0,91,91,84,1,,,,,,,,
,,,,,,,,,,,,,FF,,,,,,,,1.1007,,,,,,,,,,,,,,,,,,,,,,60ff390c957f2ba44d3ff87a,61036a480bca9b6bb0ab1217,2021-07-29_20h57.50.650,Simcolourproject_2stim_asymm_v5,2020.2.10,MacIntel,60,61025ae37ef11b136ea224fe,,,,,,,,,1975,-23.04852295,-69.07876587,1,0,0,response5disk,,3,8.15423584,1.378845215,1,0,0,rectangle,8.15423584,1.378845215,1,0,0,8.15423584,1.378845215,1,0,0,0,92,92,156,1,,,,,,,,
,,,,,,,,,,,,,FF,,,,,,,,0.9005,,,,,,,,,,,,,,,,,,,,,,60ff390c957f2ba44d3ff87a,61036a480bca9b6bb0ab1217,2021-07-29_20h57.50.650,Simcolourproject_2stim_asymm_v5,2020.2.10,MacIntel,60,61025ae37ef11b136ea224fe,,,,,,,,,678,23.87268066,-78.57342529,1,0,0,response3disk,,4,8.278503418,2.223236084,1,0,0,rectangle,8.278503418,2.223236084,1,0,0,8.278503418,2.223236084,1,0,0,0,93,93,104,1,,,,,,,,
,,,,,,,,,,,,,FF,,,,,,,,1.3175,,,,,,,,,,,,,,,,,,,,,,60ff390c957f2ba44d3ff87a,61036a480bca9b6bb0ab1217,2021-07-29_20h57.50.650,Simcolourproject_2stim_asymm_v5,2020.2.10,MacIntel,60,61025ae37ef11b136ea224fe,,,,,,,,,1560,78.02154541,-32.03372192,1,0,0,response3disk,,5,18.33978271,-0.480621338,1,0,0,rectangle,18.33978271,-0.480621338,1,0,0,18.33978271,-0.480621338,1,0,0,0,94,94,120,1,,,,,,,,
,,,,,,,,,,,,,FF,,,,,,,,1.034,,,,,,,,,,,,,,,,,,,,,,60ff390c957f2ba44d3ff87a,61036a480bca9b6bb0ab1217,2021-07-29_20h57.50.650,Simcolourproject_2stim_asymm_v5,2020.2.10,MacIntel,60,61025ae37ef11b136ea224fe,,,,,,,,,2820,86.91564941,34.1060791,1,0,0,response1disk,,6,-14.44329834,-2.535339355,1,0,0,rectangle,-14.44329834,-2.535339355,1,0,0,-14.44329834,-2.535339355,1,0,0,0,95,95,51,1,,,,,,,,
,,,,,,,,,,,,,FF,,,,,,,,0.85,,,,,,,,,,,,,,,,,,,,,,60ff390c957f2ba44d3ff87a,61036a480bca9b6bb0ab1217,2021-07-29_20h57.50.650,Simcolourproject_2stim_asymm_v5,2020.2.10,MacIntel,60,61025ae37ef11b136ea224fe,,,,,,,,,337,36.58428955,70.39953613,1,0,0,response1disk,,7,10.73272705,6.677276611,1,0,0,rectangle,10.73272705,6.677276611,1,0,0,10.73272705,6.677276611,1,0,0,0,96,96,115,1,,,,,,,,
,,,,,,,,,,,,,FF,,,,,,,,1.5668,,,,,,,,,,,,,,,,,,,,,,60ff390c957f2ba44d3ff87a,61036a480bca9b6bb0ab1217,2021-07-29_20h57.50.650,Simcolourproject_2stim_asymm_v5,2020.2.10,MacIntel,60,61025ae37ef11b136ea224fe,,,,,,,,,2053,83.65472412,-35.43173218,1,0,0,response3disk,,5,-4.15802002,-7.02255249,1,0,0,rectangle,47.40783691,-70.29699707,1,0,0,11.58911133,-3.432647705,1,0,0,0,97,97,86,1,,response3disk_3,TRUE,4,4,"[235,256,37,319,127,135,62,55,121,304,195,263,264,168,286,98,202,88,115,180]",2.3511,rectangle
,,,,,,,,,,,,,FF,,,,,,,,3.8676,,,,,,,,,,,,,,,,,,,,,,60ff390c957f2ba44d3ff87a,61036a480bca9b6bb0ab1217,2021-07-29_20h57.50.650,Simcolourproject_2stim_asymm_v5,2020.2.10,MacIntel,60,61025ae37ef11b136ea224fe,,,,,,,,,4354,36.52697754,-70.6137085,1,0,0,response3disk,,4,2.93170166,8.506866455,1,0,0,rectangle,2.93170166,8.506866455,1,0,0,2.93170166,8.506866455,1,0,0,0,98,98,118,1,,,,,,,,
,,,,,,,,,,,,,FF,,,,,,,,1.8513,,,,,,,,,,,,,,,,,,,,,,60ff390c957f2ba44d3ff87a,61036a480bca9b6bb0ab1217,2021-07-29_20h57.50.650,Simcolourproject_2stim_asymm_v5,2020.2.10,MacIntel,60,61025ae37ef11b136ea224fe,,,,,,,,,775,92.31854248,-54.71380615,1,0,0,response3disk,,5,-5.989562988,1.747436523,1,0,0,rectangle,-5.989562988,1.747436523,1,0,0,-5.989562988,1.747436523,1,0,0,0,99,99,41,1,,,,,,,,
,,,,,,,,,,,,,FF,,,,,,,,2.8693,,,,,,,,,,,,,,,,,,,,,,60ff390c957f2ba44d3ff87a,61036a480bca9b6bb0ab1217,2021-07-29_20h57.50.650,Simcolourproject_2stim_asymm_v5,2020.2.10,MacIntel,60,61025ae37ef11b136ea224fe,,,,,,,,,1239,69.81201172,-41.74459839,1,0,0,response3disk,,5,-2.866149902,10.49545288,1,0,0,rectangle,-2.866149902,10.49545288,1,0,0,-2.866149902,10.49545288,1,0,0,0,100,100,19,1,,,,,,,,
,,,,,,,,,,,,,FF,,,,,,,,0.9502,,,,,,,,,,,,,,,,,,,,,,60ff390c957f2ba44d3ff87a,61036a480bca9b6bb0ab1217,2021-07-29_20h57.50.650,Simcolourproject_2stim_asymm_v5,2020.2.10,MacIntel,60,61025ae37ef11b136ea224fe,,,,,,,,,260,-86.76281738,-38.05838013,1,0,0,response5disk,,2,0.668945313,1.630279541,1,0,0,rectangle,0.668945313,1.630279541,1,0,0,0.668945313,1.630279541,1,0,0,0,101,101,54,1,,,,,,,,
,,,,,,,,,,,,,FF,,,,,,,,0.9989,,,,,,,,,,,,,,,,,,,,,,60ff390c957f2ba44d3ff87a,61036a480bca9b6bb0ab1217,2021-07-29_20h57.50.650,Simcolourproject_2stim_asymm_v5,2020.2.10,MacIntel,60,61025ae37ef11b136ea224fe,,,,,,,,,2067,30.46307373,-62.36123657,1,0,0,response3disk,,4,3.944213867,3.801239014,1,0,0,rectangle,3.944213867,3.801239014,1,0,0,3.944213867,3.801239014,1,0,0,0,102,102,32,1,,,,,,,,
,,,,,,,,,,,,,FF,,,,,,,,0.9666,,,,,,,,,,,,,,,,,,,,,,60ff390c957f2ba44d3ff87a,61036a480bca9b6bb0ab1217,2021-07-29_20h57.50.650,Simcolourproject_2stim_asymm_v5,2020.2.10,MacIntel,60,61025ae37ef11b136ea224fe,,,,,,,,,27,89.14373779,-40.40588379,1,0,0,response3disk,,5,-1.050598145,2.259124756,1,0,0,rectangle,-1.050598145,2.259124756,1,0,0,-1.050598145,2.259124756,1,0,0,0,103,103,110,1,,,,,,,,
,,,,,,,,,,,,,FF,,,,,,,,1.3177,,,,,,,,,,,,,,,,,,,,,,60ff390c957f2ba44d3ff87a,61036a480bca9b6bb0ab1217,2021-07-29_20h57.50.650,Simcolourproject_2stim_asymm_v5,2020.2.10,MacIntel,60,61025ae37ef11b136ea224fe,,,,,,,,,1534,53.71417236,-92.97860718,1,0,0,response3disk,,4,0.170349121,1.037445068,1,0,0,rectangle,0.170349121,1.037445068,1,0,0,0.170349121,1.037445068,1,0,0,0,104,104,28,1,,,,,,,,
,,,,,,,,,,,,,FF,,,,,,,,1.5169,,,,,,,,,,,,,,,,,,,,,,60ff390c957f2ba44d3ff87a,61036a480bca9b6bb0ab1217,2021-07-29_20h57.50.650,Simcolourproject_2stim_asymm_v5,2020.2.10,MacIntel,60,61025ae37ef11b136ea224fe,,,,,,,,,2532,81.35400391,51.58575439,1,0,0,response1disk,,6,-1.577453613,8.120330811,1,0,0,rectangle,-1.577453613,8.120330811,1,0,0,-1.577453613,8.120330811,1,0,0,0,105,105,50,1,,,,,,,,
,,,,,,,,,,,,,FF,,,,,,,,0.7344,,,,,,,,,,,,,,,,,,,,,,60ff390c957f2ba44d3ff87a,61036a480bca9b6bb0ab1217,2021-07-29_20h57.50.650,Simcolourproject_2stim_asymm_v5,2020.2.10,MacIntel,60,61025ae37ef11b136ea224fe,,,,,,,,,313,31.30810547,63.19799805,1,0,0,response1disk,,7,2.547607422,5.232147217,1,0,0,rectangle,2.547607422,5.232147217,1,0,0,2.547607422,5.232147217,1,0,0,0,106,106,40,1,,,,,,,,
,,,,,,,,,,,,,FF,,,,,,,,1.9007,,,,,,,,,,,,,,,,,,,,,,60ff390c957f2ba44d3ff87a,61036a480bca9b6bb0ab1217,2021-07-29_20h57.50.650,Simcolourproject_2stim_asymm_v5,2020.2.10,MacIntel,60,61025ae37ef11b136ea224fe,,,,,,,,,4032,62.27209473,31.88378906,1,0,0,response1disk,,6,18.2277832,12.03710938,1,0,0,rectangle,18.2277832,12.03710938,1,0,0,18.2277832,12.03710938,1,0,0,0,107,107,72,1,,,,,,,,
,,,,,,,,,,,,,FF,,,,,,,,1.2501,,,,,,,,,,,,,,,,,,,,,,60ff390c957f2ba44d3ff87a,61036a480bca9b6bb0ab1217,2021-07-29_20h57.50.650,Simcolourproject_2stim_asymm_v5,2020.2.10,MacIntel,60,61025ae37ef11b136ea224fe,,,,,,,,,743,66.63848877,-29.28878784,1,0,0,response3disk,,5,9.79083252,3.140258789,1,0,0,rectangle,9.79083252,3.140258789,1,0,0,9.79083252,3.140258789,1,0,0,0,108,108,58,1,,,,,,,,
,,,,,,,,,,,,,FF,,,,,,,,2.0352,,,,,,,,,,,,,,,,,,,,,,60ff390c957f2ba44d3ff87a,61036a480bca9b6bb0ab1217,2021-07-29_20h57.50.650,Simcolourproject_2stim_asymm_v5,2020.2.10,MacIntel,60,61025ae37ef11b136ea224fe,,,,,,,,,4129,86.0770874,-48.10638428,1,0,0,response3disk,,5,3.639892578,0.652770996,1,0,0,rectangle,3.639892578,0.652770996,1,0,0,3.639892578,0.652770996,1,0,0,0,109,109,12,1,,,,,,,,
,,,,,,,,,,,,,FF,,,,,,,,1.3684,,,,,,,,,,,,,,,,,,,,,,60ff390c957f2ba44d3ff87a,61036a480bca9b6bb0ab1217,2021-07-29_20h57.50.650,Simcolourproject_2stim_asymm_v5,2020.2.10,MacIntel,60,61025ae37ef11b136ea224fe,,,,,,,,,3063,-37.64227295,-63.22601318,1,0,0,response5disk,,3,-5.866088867,7.625030518,1,0,0,rectangle,-5.866088867,7.625030518,1,0,0,-5.866088867,7.625030518,1,0,0,0,110,110,47,1,,,,,,,,
,,,,,,,,,,,,,FF,,,,,,,,1.1003,,,,,,,,,,,,,,,,,,,,,,60ff390c957f2ba44d3ff87a,61036a480bca9b6bb0ab1217,2021-07-29_20h57.50.650,Simcolourproject_2stim_asymm_v5,2020.2.10,MacIntel,60,61025ae37ef11b136ea224fe,,,,,,,,,2516,80.9050293,-21.17956543,1,0,0,response3disk,,5,27.72894287,-4.415313721,1,0,0,rectangle,27.72894287,-4.415313721,1,0,0,27.72894287,-4.415313721,1,0,0,0,111,111,75,1,,,,,,,,
,,,,,,,,,,,,,FF,,,,,,,,1.3339,,,,,,,,,,,,,,,,,,,,,,60ff390c957f2ba44d3ff87a,61036a480bca9b6bb0ab1217,2021-07-29_20h57.50.650,Simcolourproject_2stim_asymm_v5,2020.2.10,MacIntel,60,61025ae37ef11b136ea224fe,,,,,,,,,2695,-35.23052979,-72.72332764,1,0,0,response5disk,,3,0.185119629,-0.377624512,1,0,0,rectangle,0.185119629,-0.377624512,1,0,0,0.185119629,-0.377624512,1,0,0,0,112,112,38,1,,,,,,,,
,,,,,,,,,,,,,FF,,,,,,,,1.5169,,,,,,,,,,,,,,,,,,,,,,60ff390c957f2ba44d3ff87a,61036a480bca9b6bb0ab1217,2021-07-29_20h57.50.650,Simcolourproject_2stim_asymm_v5,2020.2.10,MacIntel,60,61025ae37ef11b136ea224fe,,,,,,,,,3375,-79.38800049,-49.42739868,1,0,0,response5disk,,2,-0.30657959,-4.803985596,1,0,0,rectangle,-0.30657959,-4.803985596,1,0,0,-0.30657959,-4.803985596,1,0,0,0,113,113,138,1,,,,,,,,
,,,,,,,,,,,,,FF,,,,,,,,1.0844,,,,,,,,,,,,,,,,,,,,,,60ff390c957f2ba44d3ff87a,61036a480bca9b6bb0ab1217,2021-07-29_20h57.50.650,Simcolourproject_2stim_asymm_v5,2020.2.10,MacIntel,60,61025ae37ef11b136ea224fe,,,,,,,,,170,-56.90734863,46.3500061,1,0,0,response7disk,,1,11.15753174,-2.404144287,1,0,0,rectangle,73.87976074,44.34997559,1,0,0,-4.985778809,1.297973633,1,0,0,0,114,114,64,1,,response1disk_3,TRUE,6,6,"[235,256,37,319,127,135,62,55,121,304,195,263,264,168,286,98,202,88,115,180]",1.9338,rectangle
,,,,,,,,,,,,,FF,,,,,,,,1.184,,,,,,,,,,,,,,,,,,,,,,60ff390c957f2ba44d3ff87a,61036a480bca9b6bb0ab1217,2021-07-29_20h57.50.650,Simcolourproject_2stim_asymm_v5,2020.2.10,MacIntel,60,61025ae37ef11b136ea224fe,,,,,,,,,2513,34.54943848,92.00088501,1,0,0,response1disk,,7,8.055541992,-1.705505371,1,0,0,rectangle,8.055541992,-1.705505371,1,0,0,8.055541992,-1.705505371,1,0,0,0,115,115,36,1,,,,,,,,
,,,,,,,,,,,,,FF,,,,,,,,1.0346,,,,,,,,,,,,,,,,,,,,,,60ff390c957f2ba44d3ff87a,61036a480bca9b6bb0ab1217,2021-07-29_20h57.50.650,Simcolourproject_2stim_asymm_v5,2020.2.10,MacIntel,60,61025ae37ef11b136ea224fe,,,,,,,,,1981,26.87426758,54.77038574,1,0,0,response1disk,,7,9.568969727,1.808380127,1,0,0,rectangle,9.568969727,1.808380127,1,0,0,9.568969727,1.808380127,1,0,0,0,116,116,81,1,,,,,,,,
,,,,,,,,,,,,,FF,,,,,,,,1.4351,,,,,,,,,,,,,,,,,,,,,,60ff390c957f2ba44d3ff87a,61036a480bca9b6bb0ab1217,2021-07-29_20h57.50.650,Simcolourproject_2stim_asymm_v5,2020.2.10,MacIntel,60,61025ae37ef11b136ea224fe,,,,,,,,,2039,63.53570557,-41.08395386,1,0,0,response3disk,,5,-2.344360352,5.73248291,1,0,0,rectangle,-2.344360352,5.73248291,1,0,0,-2.344360352,5.73248291,1,0,0,0,117,117,100,1,,,,,,,,
,,,,,,,,,,,,,FF,,,,,,,,1.0845,,,,,,,,,,,,,,,,,,,,,,60ff390c957f2ba44d3ff87a,61036a480bca9b6bb0ab1217,2021-07-29_20h57.50.650,Simcolourproject_2stim_asymm_v5,2020.2.10,MacIntel,60,61025ae37ef11b136ea224fe,,,,,,,,,3276,21.43353271,-49.42330933,1,0,0,response3disk,,4,2.926391602,-0.027770996,1,0,0,rectangle,2.926391602,-0.027770996,1,0,0,2.926391602,-0.027770996,1,0,0,0,118,118,24,1,,,,,,,,
,,,,,,,,,,,,,FF,,,,,,,,1.7839,,,,,,,,,,,,,,,,,,,,,,60ff390c957f2ba44d3ff87a,61036a480bca9b6bb0ab1217,2021-07-29_20h57.50.650,Simcolourproject_2stim_asymm_v5,2020.2.10,MacIntel,60,61025ae37ef11b136ea224fe,,,,,,,,,582,27.70233154,71.66494751,1,0,0,response1disk,,7,11.67553711,2.868682861,1,0,0,rectangle,11.67553711,2.868682861,1,0,0,11.67553711,2.868682861,1,0,0,0,119,119,111,1,,,,,,,,
,,,,,,,,,,,,,FF,,,,,,,,6.4847,,,,,,,,,,,,,,,,,,,,,,60ff390c957f2ba44d3ff87a,61036a480bca9b6bb0ab1217,2021-07-29_20h57.50.650,Simcolourproject_2stim_asymm_v5,2020.2.10,MacIntel,60,61025ae37ef11b136ea224fe,,,,,,,,,3164,72.89489746,24.95635986,1,0,0,response1disk,,6,-1.550598145,3.306884766,1,0,0,rectangle,29.37817383,-72.94140625,1,0,0,8.276733398,-0.185028076,1,0,0,0,120,120,158,1,,response3disk_3,TRUE,4,4,"[235,256,37,319,127,135,62,55,121,304,195,263,264,168,286,98,202,88,115,180]",2.6683,rectangle
,,,,,,,,,,,,,FF,,,,,,,,1.2008,,,,,,,,,,,,,,,,,,,,,,60ff390c957f2ba44d3ff87a,61036a480bca9b6bb0ab1217,2021-07-29_20h57.50.650,Simcolourproject_2stim_asymm_v5,2020.2.10,MacIntel,60,61025ae37ef11b136ea224fe,,,,,,,,,4277,-27.55432129,-51.58514404,1,0,0,response5disk,,3,-4.265869141,3.66998291,1,0,0,rectangle,-4.265869141,3.66998291,1,0,0,-4.265869141,3.66998291,1,0,0,0,121,121,93,1,,,,,,,,
,,,,,,,,,,,,,FF,,,,,,,,3.0846,,,,,,,,,,,,,,,,,,,,,,60ff390c957f2ba44d3ff87a,61036a480bca9b6bb0ab1217,2021-07-29_20h57.50.650,Simcolourproject_2stim_asymm_v5,2020.2.10,MacIntel,60,61025ae37ef11b136ea224fe,,,,,,,,,1841,44.42486572,-52.74404907,1,0,0,response3disk,,4,1.917724609,15.05917358,1,0,0,rectangle,1.917724609,15.05917358,1,0,0,1.917724609,15.05917358,1,0,0,0,122,122,150,1,,,,,,,,
,,,,,,,,,,,,,FF,,,,,,,,4.0027,,,,,,,,,,,,,,,,,,,,,,60ff390c957f2ba44d3ff87a,61036a480bca9b6bb0ab1217,2021-07-29_20h57.50.650,Simcolourproject_2stim_asymm_v5,2020.2.10,MacIntel,60,61025ae37ef11b136ea224fe,,,,,,,,,4233,42.26599121,78.70166016,1,0,0,response1disk,,7,17.40362549,-1.907623291,1,0,0,rectangle,17.40362549,-1.907623291,1,0,0,17.40362549,-1.907623291,1,0,0,0,123,123,14,1,,,,,,,,
,,,,,,,,,,,,,FF,,,,,,,,1.7178,,,,,,,,,,,,,,,,,,,,,,60ff390c957f2ba44d3ff87a,61036a480bca9b6bb0ab1217,2021-07-29_20h57.50.650,Simcolourproject_2stim_asymm_v5,2020.2.10,MacIntel,60,61025ae37ef11b136ea224fe,,,,,,,,,2930,68.09320068,28.70547485,1,0,0,response1disk,,6,-0.451171875,-1.353363037,1,0,0,rectangle,-0.451171875,-1.353363037,1,0,0,-0.451171875,-1.353363037,1,0,0,0,124,124,66,1,,,,,,,,
,,,,,,,,,,,,,FF,,,,,,,,1.0165,,,,,,,,,,,,,,,,,,,,,,60ff390c957f2ba44d3ff87a,61036a480bca9b6bb0ab1217,2021-07-29_20h57.50.650,Simcolourproject_2stim_asymm_v5,2020.2.10,MacIntel,60,61025ae37ef11b136ea224fe,,,,,,,,,2460,36.9574585,80.31750488,1,0,0,response1disk,,7,8.901977539,1.807281494,1,0,0,rectangle,8.901977539,1.807281494,1,0,0,8.901977539,1.807281494,1,0,0,0,125,125,137,1,,,,,,,,
,,,,,,,,,,,,,FF,,,,,,,,0.6676,,,,,,,,,,,,,,,,,,,,,,60ff390c957f2ba44d3ff87a,61036a480bca9b6bb0ab1217,2021-07-29_20h57.50.650,Simcolourproject_2stim_asymm_v5,2020.2.10,MacIntel,60,61025ae37ef11b136ea224fe,,,,,,,,,1659,40.50909424,69.69558716,1,0,0,response1disk,,7,12.86120605,-2.637268066,1,0,0,rectangle,-42.63000488,-84.95809937,1,0,0,10.46936035,3.578338623,1,0,0,0,126,126,76,1,,response5disk_3,TRUE,3,3,"[235,256,37,319,127,135,62,55,121,304,195,263,264,168,286,98,202,88,115,180]",1.8512,rectangle
,,,,,,,,,,,,,FF,,,,,,,,0.9843,,,,,,,,,,,,,,,,,,,,,,60ff390c957f2ba44d3ff87a,61036a480bca9b6bb0ab1217,2021-07-29_20h57.50.650,Simcolourproject_2stim_asymm_v5,2020.2.10,MacIntel,60,61025ae37ef11b136ea224fe,,,,,,,,,2762,28.89794922,77.76376343,1,0,0,response1disk,,7,9.862792969,-2.754638672,1,0,0,rectangle,9.862792969,-2.754638672,1,0,0,9.862792969,-2.754638672,1,0,0,0,127,127,37,1,,,,,,,,
,,,,,,,,,,,,,FF,,,,,,,,1.2847,,,,,,,,,,,,,,,,,,,,,,60ff390c957f2ba44d3ff87a,61036a480bca9b6bb0ab1217,2021-07-29_20h57.50.650,Simcolourproject_2stim_asymm_v5,2020.2.10,MacIntel,60,61025ae37ef11b136ea224fe,,,,,,,,,3464,78.30474854,-44.10934448,1,0,0,response3disk,,5,0.977355957,1.469116211,1,0,0,rectangle,0.977355957,1.469116211,1,0,0,0.977355957,1.469116211,1,0,0,0,128,128,143,1,,,,,,,,
,,,,,,,,,,,,,FF,,,,,,,,0.7848,,,,,,,,,,,,,,,,,,,,,,60ff390c957f2ba44d3ff87a,61036a480bca9b6bb0ab1217,2021-07-29_20h57.50.650,Simcolourproject_2stim_asymm_v5,2020.2.10,MacIntel,60,61025ae37ef11b136ea224fe,,,,,,,,,578,22.01641846,103.9057617,1,0,0,response1disk,,7,8.882751465,3.717926025,1,0,0,rectangle,8.882751465,3.717926025,1,0,0,8.882751465,3.717926025,1,0,0,0,129,129,131,1,,,,,,,,
,,,,,,,,,,,,,FF,,,,,,,,0.8508,,,,,,,,,,,,,,,,,,,,,,60ff390c957f2ba44d3ff87a,61036a480bca9b6bb0ab1217,2021-07-29_20h57.50.650,Simcolourproject_2stim_asymm_v5,2020.2.10,MacIntel,60,61025ae37ef11b136ea224fe,,,,,,,,,1763,77.82202148,44.17248535,1,0,0,response1disk,,6,12.66107178,3.937866211,1,0,0,rectangle,12.66107178,3.937866211,1,0,0,12.66107178,3.937866211,1,0,0,0,130,130,91,1,,,,,,,,
,,,,,,,,,,,,,FF,,,,,,,,0.7502,,,,,,,,,,,,,,,,,,,,,,60ff390c957f2ba44d3ff87a,61036a480bca9b6bb0ab1217,2021-07-29_20h57.50.650,Simcolourproject_2stim_asymm_v5,2020.2.10,MacIntel,60,61025ae37ef11b136ea224fe,,,,,,,,,3085,25.99407959,80.95129395,1,0,0,response1disk,,7,5.543579102,1.335632324,1,0,0,rectangle,5.543579102,1.335632324,1,0,0,5.543579102,1.335632324,1,0,0,0,131,131,141,1,,,,,,,,
,,,,,,,,,,,,,FF,,,,,,,,0.8675,,,,,,,,,,,,,,,,,,,,,,60ff390c957f2ba44d3ff87a,61036a480bca9b6bb0ab1217,2021-07-29_20h57.50.650,Simcolourproject_2stim_asymm_v5,2020.2.10,MacIntel,60,61025ae37ef11b136ea224fe,,,,,,,,,2805,77.16802979,-46.27578735,1,0,0,response3disk,,5,13.1305542,6.472839355,1,0,0,rectangle,13.1305542,6.472839355,1,0,0,13.1305542,6.472839355,1,0,0,0,132,132,77,1,,,,,,,,
,,,,,,,,,,,,,FF,,,,,,,,1.1841,,,,,,,,,,,,,,,,,,,,,,60ff390c957f2ba44d3ff87a,61036a480bca9b6bb0ab1217,2021-07-29_20h57.50.650,Simcolourproject_2stim_asymm_v5,2020.2.10,MacIntel,60,61025ae37ef11b136ea224fe,,,,,,,,,3906,-45.09375,85.82357788,1,0,0,response7disk,,0,-7.972045898,1.804107666,1,0,0,rectangle,-7.972045898,1.804107666,1,0,0,-7.972045898,1.804107666,1,0,0,0,133,133,151,1,,,,,,,,
,,,,,,,,,,,,,FF,,,,,,,,2.3336,,,,,,,,,,,,,,,,,,,,,,60ff390c957f2ba44d3ff87a,61036a480bca9b6bb0ab1217,2021-07-29_20h57.50.650,Simcolourproject_2stim_asymm_v5,2020.2.10,MacIntel,60,61025ae37ef11b136ea224fe,,,,,,,,,2435,84.3414917,-33.74990845,1,0,0,response3disk,,5,-7.449707031,3.092132568,1,0,0,rectangle,40.41625977,-85.71615601,1,0,0,5.974243164,3.117248535,1,0,0,0,134,134,114,1,,response3disk_3,TRUE,4,4,"[235,256,37,319,127,135,62,55,121,304,195,263,264,168,286,98,202,88,115,180]",3.7352,rectangle
,,,,,,,,,,,,,FF,,,,,,,,1.1845,,,,,,,,,,,,,,,,,,,,,,60ff390c957f2ba44d3ff87a,61036a480bca9b6bb0ab1217,2021-07-29_20h57.50.650,Simcolourproject_2stim_asymm_v5,2020.2.10,MacIntel,60,61025ae37ef11b136ea224fe,,,,,,,,,2786,-49.71960449,-67.8324585,1,0,0,response5disk,,3,-4.743225098,0.494354248,1,0,0,rectangle,-4.743225098,0.494354248,1,0,0,-4.743225098,0.494354248,1,0,0,0,135,135,145,1,,,,,,,,
,,,,,,,,,,,,,FF,,,,,,,,2.8178,,,,,,,,,,,,,,,,,,,,,,60ff390c957f2ba44d3ff87a,61036a480bca9b6bb0ab1217,2021-07-29_20h57.50.650,Simcolourproject_2stim_asymm_v5,2020.2.10,MacIntel,60,61025ae37ef11b136ea224fe,,,,,,,,,4047,-22.64996338,-69.56585693,1,0,0,response5disk,,3,-3.752258301,-3.402404785,1,0,0,rectangle,-3.752258301,-3.402404785,1,0,0,-3.752258301,-3.402404785,1,0,0,0,136,136,144,1,,,,,,,,
,,,,,,,,,,,,,FF,,,,,,,,0.9177,,,,,,,,,,,,,,,,,,,,,,60ff390c957f2ba44d3ff87a,61036a480bca9b6bb0ab1217,2021-07-29_20h57.50.650,Simcolourproject_2stim_asymm_v5,2020.2.10,MacIntel,60,61025ae37ef11b136ea224fe,,,,,,,,,1713,33.24853516,74.85055542,1,0,0,response1disk,,7,6.954650879,-1.763183594,1,0,0,rectangle,6.954650879,-1.763183594,1,0,0,6.954650879,-1.763183594,1,0,0,0,137,137,2,1,,,,,,,,
,,,,,,,,,,,,,FF,,,,,,,,1.5168,,,,,,,,,,,,,,,,,,,,,,60ff390c957f2ba44d3ff87a,61036a480bca9b6bb0ab1217,2021-07-29_20h57.50.650,Simcolourproject_2stim_asymm_v5,2020.2.10,MacIntel,60,61025ae37ef11b136ea224fe,,,,,,,,,3652,78.46484375,22.64321899,1,0,0,response1disk,,6,8.199829102,-6.792327881,1,0,0,rectangle,8.199829102,-6.792327881,1,0,0,8.199829102,-6.792327881,1,0,0,0,138,138,11,1,,,,,,,,
,,,,,,,,,,,,,FF,,,,,,,,2.8513,,,,,,,,,,,,,,,,,,,,,,60ff390c957f2ba44d3ff87a,61036a480bca9b6bb0ab1217,2021-07-29_20h57.50.650,Simcolourproject_2stim_asymm_v5,2020.2.10,MacIntel,60,61025ae37ef11b136ea224fe,,,,,,,,,1872,83.86077881,-59.58377075,1,0,0,response3disk,,5,10.97888184,5.871337891,1,0,0,rectangle,10.97888184,5.871337891,1,0,0,10.97888184,5.871337891,1,0,0,0,139,139,71,1,,,,,,,,
,,,,,,,,,,,,,FF,,,,,,,,2.3504,,,,,,,,,,,,,,,,,,,,,,60ff390c957f2ba44d3ff87a,61036a480bca9b6bb0ab1217,2021-07-29_20h57.50.650,Simcolourproject_2stim_asymm_v5,2020.2.10,MacIntel,60,61025ae37ef11b136ea224fe,,,,,,,,,3796,36.36871338,-67.61517334,1,0,0,response3disk,,4,-2.110595703,5.813720703,1,0,0,rectangle,-2.110595703,5.813720703,1,0,0,-2.110595703,5.813720703,1,0,0,0,140,140,78,1,,,,,,,,
,,,,,,,,,,,,,FF,,,,,,,,1.784,,,,,,,,,,,,,,,,,,,,,,60ff390c957f2ba44d3ff87a,61036a480bca9b6bb0ab1217,2021-07-29_20h57.50.650,Simcolourproject_2stim_asymm_v5,2020.2.10,MacIntel,60,61025ae37ef11b136ea224fe,,,,,,,,,1972,-71.51391602,-30.47488403,1,0,0,response5disk,,2,4.298706055,0.274932861,1,0,0,rectangle,4.298706055,0.274932861,1,0,0,4.298706055,0.274932861,1,0,0,0,141,141,39,1,,,,,,,,
,,,,,,,,,,,,,FF,,,,,,,,1.0842,,,,,,,,,,,,,,,,,,,,,,60ff390c957f2ba44d3ff87a,61036a480bca9b6bb0ab1217,2021-07-29_20h57.50.650,Simcolourproject_2stim_asymm_v5,2020.2.10,MacIntel,60,61025ae37ef11b136ea224fe,,,,,,,,,3065,-33.80474854,-102.1966553,1,0,0,response5disk,,3,3.197814941,-0.719024658,1,0,0,rectangle,3.197814941,-0.719024658,1,0,0,3.197814941,-0.719024658,1,0,0,0,142,142,44,1,,,,,,,,
,,,,,,,,,,,,,FF,,,,,,,,0.9174,,,,,,,,,,,,,,,,,,,,,,60ff390c957f2ba44d3ff87a,61036a480bca9b6bb0ab1217,2021-07-29_20h57.50.650,Simcolourproject_2stim_asymm_v5,2020.2.10,MacIntel,60,61025ae37ef11b136ea224fe,,,,,,,,,1388,29.4197998,-82.40045166,1,0,0,response3disk,,4,-4.523498535,7.715087891,1,0,0,rectangle,-4.523498535,7.715087891,1,0,0,-4.523498535,7.715087891,1,0,0,0,143,143,46,1,,,,,,,,
,,,,,,,,,,,,,FF,,,,,,,,2.5691,,,,,,,,,,,,,,,,,,,,,,60ff390c957f2ba44d3ff87a,61036a480bca9b6bb0ab1217,2021-07-29_20h57.50.650,Simcolourproject_2stim_asymm_v5,2020.2.10,MacIntel,60,61025ae37ef11b136ea224fe,,,,,,,,,2419,-55.88580322,-103.915863,1,0,0,response5disk,,3,12.00006104,7.650909424,1,0,0,rectangle,12.00006104,7.650909424,1,0,0,12.00006104,7.650909424,1,0,0,0,144,144,74,1,,,,,,,,
,,,,,,,,,,,,,FF,,,,,,,,1.5674,,,,,,,,,,,,,,,,,,,,,,60ff390c957f2ba44d3ff87a,61036a480bca9b6bb0ab1217,2021-07-29_20h57.50.650,Simcolourproject_2stim_asymm_v5,2020.2.10,MacIntel,60,61025ae37ef11b136ea224fe,,,,,,,,,2304,-64.73736572,-108.3881531,1,0,0,response5disk,,3,3.394836426,-1.70993042,1,0,0,rectangle,3.394836426,-1.70993042,1,0,0,3.394836426,-1.70993042,1,0,0,0,145,145,55,1,,,,,,,,
,,,,,,,,,,,,,FF,,,,,,,,3.6847,,,,,,,,,,,,,,,,,,,,,,60ff390c957f2ba44d3ff87a,61036a480bca9b6bb0ab1217,2021-07-29_20h57.50.650,Simcolourproject_2stim_asymm_v5,2020.2.10,MacIntel,60,61025ae37ef11b136ea224fe,,,,,,,,,3791,34.6963501,-63.70715332,1,0,0,response3disk,,4,17.88104248,1.566650391,1,0,0,rectangle,17.88104248,1.566650391,1,0,0,17.88104248,1.566650391,1,0,0,0,146,146,113,1,,,,,,,,
,,,,,,,,,,,,,FF,,,,,,,,0.8665,,,,,,,,,,,,,,,,,,,,,,60ff390c957f2ba44d3ff87a,61036a480bca9b6bb0ab1217,2021-07-29_20h57.50.650,Simcolourproject_2stim_asymm_v5,2020.2.10,MacIntel,60,61025ae37ef11b136ea224fe,,,,,,,,,3959,101.576416,-44.57620239,1,0,0,response3disk,,5,22.30737305,-0.76776123,1,0,0,rectangle,22.30737305,-0.76776123,1,0,0,22.30737305,-0.76776123,1,0,0,0,147,147,157,1,,,,,,,,
,,,,,,,,,,,,,FF,,,,,,,,0.8837,,,,,,,,,,,,,,,,,,,,,,60ff390c957f2ba44d3ff87a,61036a480bca9b6bb0ab1217,2021-07-29_20h57.50.650,Simcolourproject_2stim_asymm_v5,2020.2.10,MacIntel,60,61025ae37ef11b136ea224fe,,,,,,,,,405,22.46258545,104.9638977,1,0,0,response1disk,,7,6.873718262,-9.328948975,1,0,0,rectangle,6.873718262,-9.328948975,1,0,0,6.873718262,-9.328948975,1,0,0,0,148,148,79,1,,,,,,,,
,,,,,,,,,,,,,FF,,,,,,,,1.5999,,,,,,,,,,,,,,,,,,,,,,60ff390c957f2ba44d3ff87a,61036a480bca9b6bb0ab1217,2021-07-29_20h57.50.650,Simcolourproject_2stim_asymm_v5,2020.2.10,MacIntel,60,61025ae37ef11b136ea224fe,,,,,,,,,2766,40.27587891,73.44638062,1,0,0,response1disk,,7,2.818603516,13.35928345,1,0,0,rectangle,2.818603516,13.35928345,1,0,0,2.818603516,13.35928345,1,0,0,0,149,149,6,1,,,,,,,,
,,,,,,,,,,,,,FF,,,,,,,,1.7179,,,,,,,,,,,,,,,,,,,,,,60ff390c957f2ba44d3ff87a,61036a480bca9b6bb0ab1217,2021-07-29_20h57.50.650,Simcolourproject_2stim_asymm_v5,2020.2.10,MacIntel,60,61025ae37ef11b136ea224fe,,,,,,,,,3143,52.67523193,-68.18942261,1,0,0,response3disk,,4,12.2144165,-4.120635986,1,0,0,rectangle,12.2144165,-4.120635986,1,0,0,12.2144165,-4.120635986,1,0,0,0,150,150,15,1,,,,,,,,
,,,,,,,,,,,,,FF,,,,,,,,0.9009,,,,,,,,,,,,,,,,,,,,,,60ff390c957f2ba44d3ff87a,61036a480bca9b6bb0ab1217,2021-07-29_20h57.50.650,Simcolourproject_2stim_asymm_v5,2020.2.10,MacIntel,60,61025ae37ef11b136ea224fe,,,,,,,,,116,43.13104248,75.73248291,1,0,0,response1disk,,7,-2.831359863,7.084106445,1,0,0,rectangle,-2.831359863,7.084106445,1,0,0,-2.831359863,7.084106445,1,0,0,0,151,151,92,1,,,,,,,,
,,,,,,,,,,,,,FF,,,,,,,,2.5509,,,,,,,,,,,,,,,,,,,,,,60ff390c957f2ba44d3ff87a,61036a480bca9b6bb0ab1217,2021-07-29_20h57.50.650,Simcolourproject_2stim_asymm_v5,2020.2.10,MacIntel,60,61025ae37ef11b136ea224fe,,,,,,,,,2774,93.22314453,-38.52630615,1,0,0,response3disk,,5,5.573913574,1.348968506,1,0,0,rectangle,5.573913574,1.348968506,1,0,0,5.573913574,1.348968506,1,0,0,0,152,152,129,1,,,,,,,,
,,,,,,,,,,,,,FF,,,,,,,,2.6846,,,,,,,,,,,,,,,,,,,,,,60ff390c957f2ba44d3ff87a,61036a480bca9b6bb0ab1217,2021-07-29_20h57.50.650,Simcolourproject_2stim_asymm_v5,2020.2.10,MacIntel,60,61025ae37ef11b136ea224fe,,,,,,,,,1357,97.35223389,23.36642456,1,0,0,response1disk,,6,0.437133789,0.417053223,1,0,0,rectangle,0.437133789,0.417053223,1,0,0,0.437133789,0.417053223,1,0,0,0,153,153,35,1,,,,,,,,
,,,,,,,,,,,,,FF,,,,,,,,3.6356,,,,,,,,,,,,,,,,,,,,,,60ff390c957f2ba44d3ff87a,61036a480bca9b6bb0ab1217,2021-07-29_20h57.50.650,Simcolourproject_2stim_asymm_v5,2020.2.10,MacIntel,60,61025ae37ef11b136ea224fe,,,,,,,,,2033,-58.17626953,33.72320557,1,0,0,response7disk,,1,23.66729736,-12.64044189,1,0,0,rectangle,23.66729736,-12.64044189,1,0,0,23.66729736,-12.64044189,1,0,0,0,154,154,153,1,,,,,,,,
,,,,,,,,,,,,,FF,,,,,,,,0.9608,,,,,,,,,,,,,,,,,,,,,,60ff390c957f2ba44d3ff87a,61036a480bca9b6bb0ab1217,2021-07-29_20h57.50.650,Simcolourproject_2stim_asymm_v5,2020.2.10,MacIntel,60,61025ae37ef11b136ea224fe,,,,,,,,,2497,27.07159424,83.21420288,1,0,0,response1disk,,7,4.180480957,10.32699585,1,0,0,rectangle,4.180480957,10.32699585,1,0,0,4.180480957,10.32699585,1,0,0,0,155,155,31,1,,,,,,,,
,,,,,,,,,,,,,FF,,,,,,,,2.1011,,,,,,,,,,,,,,,,,,,,,,60ff390c957f2ba44d3ff87a,61036a480bca9b6bb0ab1217,2021-07-29_20h57.50.650,Simcolourproject_2stim_asymm_v5,2020.2.10,MacIntel,60,61025ae37ef11b136ea224fe,,,,,,,,,3704,-75.50793457,-34.31484985,1,0,0,response5disk,,2,6.182922363,4.00793457,1,0,0,rectangle,6.182922363,4.00793457,1,0,0,6.182922363,4.00793457,1,0,0,0,156,156,33,1,,,,,,,,
,,,,,,,,,,,,,FF,,,,,,,,1.5842,,,,,,,,,,,,,,,,,,,,,,60ff390c957f2ba44d3ff87a,61036a480bca9b6bb0ab1217,2021-07-29_20h57.50.650,Simcolourproject_2stim_asymm_v5,2020.2.10,MacIntel,60,61025ae37ef11b136ea224fe,,,,,,,,,2655,-57.296875,39.21032715,1,0,0,response7disk,,1,-5.302429199,-0.603759766,1,0,0,rectangle,-5.302429199,-0.603759766,1,0,0,-5.302429199,-0.603759766,1,0,0,0,157,157,108,1,,,,,,,,
,,,,,,,,,,,,,FF,,,,,,,,3.2354,,,,,,,,,,,,,,,,,,,,,,60ff390c957f2ba44d3ff87a,61036a480bca9b6bb0ab1217,2021-07-29_20h57.50.650,Simcolourproject_2stim_asymm_v5,2020.2.10,MacIntel,60,61025ae37ef11b136ea224fe,,,,,,,,,2777,83.34094238,30.55453491,1,0,0,response1disk,,6,-9.159545898,-1.383117676,1,0,0,rectangle,-9.159545898,-1.383117676,1,0,0,-9.159545898,-1.383117676,1,0,0,0,158,158,22,1,,,,,,,,
,,,,,,,,,,,,,FF,,,,,,,,2.4018,,,,,,,,,,,,,,,,,,,,,,60ff390c957f2ba44d3ff87a,61036a480bca9b6bb0ab1217,2021-07-29_20h57.50.650,Simcolourproject_2stim_asymm_v5,2020.2.10,MacIntel,60,61025ae37ef11b136ea224fe,,,,,,,,,289,-42.68969727,-73.88745117,1,0,0,response5disk,,3,-3.529602051,0.938171387,1,0,0,rectangle,-3.529602051,0.938171387,1,0,0,-3.529602051,0.938171387,1,0,0,0,159,159,73,1,,,,,,,,
,,,,,,,,,,,,,FF,,,,,,,,1.3325,,,,,,,,,,,,,,,,,,,,,,60ff390c957f2ba44d3ff87a,61036a480bca9b6bb0ab1217,2021-07-29_20h57.50.650,Simcolourproject_2stim_asymm_v5,2020.2.10,MacIntel,60,61025ae37ef11b136ea224fe,,,,,,,,,3747,-82.84832764,-36.88800049,1,0,0,response5disk,,2,16.30853271,1.171600342,1,0,0,rectangle,16.30853271,1.171600342,1,0,0,16.30853271,1.171600342,1,0,0,1,0,160,123,1,,,,,,,,
,,,,,,,,,,,,,FF,,,,,,,,0.9167,,,,,,,,,,,,,,,,,,,,,,60ff390c957f2ba44d3ff87a,61036a480bca9b6bb0ab1217,2021-07-29_20h57.50.650,Simcolourproject_2stim_asymm_v5,2020.2.10,MacIntel,60,61025ae37ef11b136ea224fe,,,,,,,,,2257,34.96728516,-83.21502686,1,0,0,response3disk,,4,-3.96270752,6.732849121,1,0,0,rectangle,-3.96270752,6.732849121,1,0,0,-3.96270752,6.732849121,1,0,0,1,1,161,101,1,,,,,,,,
,,,,,,,,,,,,,FF,,,,,,,,3.0505,,,,,,,,,,,,,,,,,,,,,,60ff390c957f2ba44d3ff87a,61036a480bca9b6bb0ab1217,2021-07-29_20h57.50.650,Simcolourproject_2stim_asymm_v5,2020.2.10,MacIntel,60,61025ae37ef11b136ea224fe,,,,,,,,,4118,-35.71398926,66.58001709,1,0,0,response7disk,,0,-0.444152832,4.937652588,1,0,0,rectangle,-0.444152832,4.937652588,1,0,0,-0.444152832,4.937652588,1,0,0,1,2,162,95,1,,,,,,,,
,,,,,,,,,,,,,FF,,,,,,,,1.2873,,,,,,,,,,,,,,,,,,,,,,60ff390c957f2ba44d3ff87a,61036a480bca9b6bb0ab1217,2021-07-29_20h57.50.650,Simcolourproject_2stim_asymm_v5,2020.2.10,MacIntel,60,61025ae37ef11b136ea224fe,,,,,,,,,839,88.32537842,-27.93731689,1,0,0,response3disk,,5,18.7734375,7.097717285,1,0,0,rectangle,18.7734375,7.097717285,1,0,0,18.7734375,7.097717285,1,0,0,1,3,163,136,1,,,,,,,,
,,,,,,,,,,,,,FF,,,,,,,,0.8167,,,,,,,,,,,,,,,,,,,,,,60ff390c957f2ba44d3ff87a,61036a480bca9b6bb0ab1217,2021-07-29_20h57.50.650,Simcolourproject_2stim_asymm_v5,2020.2.10,MacIntel,60,61025ae37ef11b136ea224fe,,,,,,,,,513,41.61419678,82.13739014,1,0,0,response1disk,,7,-6.75402832,-2.754547119,1,0,0,rectangle,-6.75402832,-2.754547119,1,0,0,-6.75402832,-2.754547119,1,0,0,1,4,164,15,1,,,,,,,,
,,,,,,,,,,,,,FF,,,,,,,,1.3172,,,,,,,,,,,,,,,,,,,,,,60ff390c957f2ba44d3ff87a,61036a480bca9b6bb0ab1217,2021-07-29_20h57.50.650,Simcolourproject_2stim_asymm_v5,2020.2.10,MacIntel,60,61025ae37ef11b136ea224fe,,,,,,,,,1959,-47.35113525,-57.43051147,1,0,0,response5disk,,3,7.739990234,13.04153442,1,0,0,rectangle,7.739990234,13.04153442,1,0,0,7.739990234,13.04153442,1,0,0,1,5,165,84,1,,,,,,,,
,,,,,,,,,,,,,FF,,,,,,,,6.3853,,,,,,,,,,,,,,,,,,,,,,60ff390c957f2ba44d3ff87a,61036a480bca9b6bb0ab1217,2021-07-29_20h57.50.650,Simcolourproject_2stim_asymm_v5,2020.2.10,MacIntel,60,61025ae37ef11b136ea224fe,,,,,,,,,685,86.70397949,26.71255493,1,0,0,response1disk,,6,-7.297058105,3.262329102,1,0,0,rectangle,-7.297058105,3.262329102,1,0,0,-7.297058105,3.262329102,1,0,0,1,6,166,131,1,,,,,,,,
,,,,,,,,,,,,,FF,,,,,,,,1.1667,,,,,,,,,,,,,,,,,,,,,,60ff390c957f2ba44d3ff87a,61036a480bca9b6bb0ab1217,2021-07-29_20h57.50.650,Simcolourproject_2stim_asymm_v5,2020.2.10,MacIntel,60,61025ae37ef11b136ea224fe,,,,,,,,,37,96.28137207,-56.02157593,1,0,0,response3disk,,5,-22.85479736,12.22894287,1,0,0,rectangle,-74.26696777,-44.1824646,1,0,0,1.587097168,-3.320648193,1,0,0,1,7,167,31,1,,response5disk_3,TRUE,2,2,"[235,256,37,319,127,135,62,55,121,304,195,263,264,168,286,98,202,88,115,180]",1.8839,rectangle
,,,,,,,,,,,,,FF,,,,,,,,1.0841,,,,,,,,,,,,,,,,,,,,,,60ff390c957f2ba44d3ff87a,61036a480bca9b6bb0ab1217,2021-07-29_20h57.50.650,Simcolourproject_2stim_asymm_v5,2020.2.10,MacIntel,60,61025ae37ef11b136ea224fe,,,,,,,,,98,-21.90979004,-85.37463379,1,0,0,response5disk,,3,17.55419922,1.71194458,1,0,0,rectangle,17.55419922,1.71194458,1,0,0,17.55419922,1.71194458,1,0,0,1,8,168,36,1,,,,,,,,
,,,,,,,,,,,,,FF,,,,,,,,0.8501,,,,,,,,,,,,,,,,,,,,,,60ff390c957f2ba44d3ff87a,61036a480bca9b6bb0ab1217,2021-07-29_20h57.50.650,Simcolourproject_2stim_asymm_v5,2020.2.10,MacIntel,60,61025ae37ef11b136ea224fe,,,,,,,,,2717,-36.24743652,-87.19519043,1,0,0,response5disk,,3,2.87121582,-7.800872803,1,0,0,rectangle,2.87121582,-7.800872803,1,0,0,2.87121582,-7.800872803,1,0,0,1,9,169,56,1,,,,,,,,
,,,,,,,,,,,,,FF,,,,,,,,0.95,,,,,,,,,,,,,,,,,,,,,,60ff390c957f2ba44d3ff87a,61036a480bca9b6bb0ab1217,2021-07-29_20h57.50.650,Simcolourproject_2stim_asymm_v5,2020.2.10,MacIntel,60,61025ae37ef11b136ea224fe,,,,,,,,,567,102.9208374,-65.01550293,1,0,0,response3disk,,5,5.121398926,12.10317993,1,0,0,rectangle,5.121398926,12.10317993,1,0,0,5.121398926,12.10317993,1,0,0,1,10,170,121,1,,,,,,,,
,,,,,,,,,,,,,FF,,,,,,,,0.8667,,,,,,,,,,,,,,,,,,,,,,60ff390c957f2ba44d3ff87a,61036a480bca9b6bb0ab1217,2021-07-29_20h57.50.650,Simcolourproject_2stim_asymm_v5,2020.2.10,MacIntel,60,61025ae37ef11b136ea224fe,,,,,,,,,340,98.6015625,-52.7517395,1,0,0,response3disk,,5,4.407714844,-7.482727051,1,0,0,rectangle,4.407714844,-7.482727051,1,0,0,4.407714844,-7.482727051,1,0,0,1,11,171,24,1,,,,,,,,
,,,,,,,,,,,,,FF,,,,,,,,0.8174,,,,,,,,,,,,,,,,,,,,,,60ff390c957f2ba44d3ff87a,61036a480bca9b6bb0ab1217,2021-07-29_20h57.50.650,Simcolourproject_2stim_asymm_v5,2020.2.10,MacIntel,60,61025ae37ef11b136ea224fe,,,,,,,,,3510,-49.34466553,92.29849243,1,0,0,response7disk,,0,-3.192871094,3.063568115,1,0,0,rectangle,-3.192871094,3.063568115,1,0,0,-3.192871094,3.063568115,1,0,0,1,12,172,119,1,,,,,,,,
,,,,,,,,,,,,,FF,,,,,,,,2.7358,,,,,,,,,,,,,,,,,,,,,,60ff390c957f2ba44d3ff87a,61036a480bca9b6bb0ab1217,2021-07-29_20h57.50.650,Simcolourproject_2stim_asymm_v5,2020.2.10,MacIntel,60,61025ae37ef11b136ea224fe,,,,,,,,,1768,48.20751953,-85.46072388,1,0,0,response3disk,,4,10.37420654,3.437774658,1,0,0,rectangle,10.37420654,3.437774658,1,0,0,10.37420654,3.437774658,1,0,0,1,13,173,38,1,,,,,,,,
,,,,,,,,,,,,,FF,,,,,,,,1.0502,,,,,,,,,,,,,,,,,,,,,,60ff390c957f2ba44d3ff87a,61036a480bca9b6bb0ab1217,2021-07-29_20h57.50.650,Simcolourproject_2stim_asymm_v5,2020.2.10,MacIntel,60,61025ae37ef11b136ea224fe,,,,,,,,,2297,-38.64111328,-68.10766602,1,0,0,response5disk,,3,1.083068848,-0.081085205,1,0,0,rectangle,1.083068848,-0.081085205,1,0,0,1.083068848,-0.081085205,1,0,0,1,14,174,47,1,,,,,,,,
,,,,,,,,,,,,,FF,,,,,,,,1.6335,,,,,,,,,,,,,,,,,,,,,,60ff390c957f2ba44d3ff87a,61036a480bca9b6bb0ab1217,2021-07-29_20h57.50.650,Simcolourproject_2stim_asymm_v5,2020.2.10,MacIntel,60,61025ae37ef11b136ea224fe,,,,,,,,,1698,-31.96856689,-85.45864868,1,0,0,response5disk,,3,-5.405578613,-5.238220215,1,0,0,rectangle,-5.405578613,-5.238220215,1,0,0,-5.405578613,-5.238220215,1,0,0,1,15,175,46,1,,,,,,,,
,,,,,,,,,,,,,FF,,,,,,,,2.0178,,,,,,,,,,,,,,,,,,,,,,60ff390c957f2ba44d3ff87a,61036a480bca9b6bb0ab1217,2021-07-29_20h57.50.650,Simcolourproject_2stim_asymm_v5,2020.2.10,MacIntel,60,61025ae37ef11b136ea224fe,,,,,,,,,609,47.03723145,-91.50949097,1,0,0,response3disk,,4,-4.851867676,4.945373535,1,0,0,rectangle,-4.851867676,4.945373535,1,0,0,-4.851867676,4.945373535,1,0,0,1,16,176,19,1,,,,,,,,
,,,,,,,,,,,,,FF,,,,,,,,1.8341,,,,,,,,,,,,,,,,,,,,,,60ff390c957f2ba44d3ff87a,61036a480bca9b6bb0ab1217,2021-07-29_20h57.50.650,Simcolourproject_2stim_asymm_v5,2020.2.10,MacIntel,60,61025ae37ef11b136ea224fe,,,,,,,,,1001,82.15130615,43.74612427,1,0,0,response1disk,,6,10.69140625,4.231018066,1,0,0,rectangle,10.69140625,4.231018066,1,0,0,10.69140625,4.231018066,1,0,0,1,17,177,44,1,,,,,,,,
,,,,,,,,,,,,,FF,,,,,,,,1.1348,,,,,,,,,,,,,,,,,,,,,,60ff390c957f2ba44d3ff87a,61036a480bca9b6bb0ab1217,2021-07-29_20h57.50.650,Simcolourproject_2stim_asymm_v5,2020.2.10,MacIntel,60,61025ae37ef11b136ea224fe,,,,,,,,,141,48.68066406,95.12808228,1,0,0,response1disk,,7,-0.40423584,2.201324463,1,0,0,rectangle,-0.40423584,2.201324463,1,0,0,-0.40423584,2.201324463,1,0,0,1,18,178,61,1,,,,,,,,
,,,,,,,,,,,,,FF,,,,,,,,0.8336,,,,,,,,,,,,,,,,,,,,,,60ff390c957f2ba44d3ff87a,61036a480bca9b6bb0ab1217,2021-07-29_20h57.50.650,Simcolourproject_2stim_asymm_v5,2020.2.10,MacIntel,60,61025ae37ef11b136ea224fe,,,,,,,,,3707,-27.81896973,78.57711792,1,0,0,response7disk,,0,-6.03125,-11.88452148,1,0,0,rectangle,-34.23779297,59.84915161,1,0,0,-1.258666992,-5.545013428,1,0,0,1,19,179,6,1,,response7disk_3,TRUE,0,0,"[235,256,37,319,127,135,62,55,121,304,195,263,264,168,286,98,202,88,115,180]",1.7013,rectangle
,,,,,,,,,,,,,FF,,,,,,,,16.9737,,,,,,,,,,,,,,,,,,,,,,60ff390c957f2ba44d3ff87a,61036a480bca9b6bb0ab1217,2021-07-29_20h57.50.650,Simcolourproject_2stim_asymm_v5,2020.2.10,MacIntel,60,61025ae37ef11b136ea224fe,,,,,,,,,1372,84.05426025,-58.07568359,1,0,0,response3disk,,5,8.136413574,-2.922821045,1,0,0,rectangle,8.136413574,-2.922821045,1,0,0,8.136413574,-2.922821045,1,0,0,1,20,180,132,1,,,,,,,,
,,,,,,,,,,,,,FF,,,,,,,,2.7524,,,,,,,,,,,,,,,,,,,,,,60ff390c957f2ba44d3ff87a,61036a480bca9b6bb0ab1217,2021-07-29_20h57.50.650,Simcolourproject_2stim_asymm_v5,2020.2.10,MacIntel,60,61025ae37ef11b136ea224fe,,,,,,,,,971,-40.68035889,-85.88778687,1,0,0,response5disk,,3,6.381713867,5.899230957,1,0,0,rectangle,6.381713867,5.899230957,1,0,0,6.381713867,5.899230957,1,0,0,1,21,181,34,1,,,,,,,,
,,,,,,,,,,,,,FF,,,,,,,,2.7513,,,,,,,,,,,,,,,,,,,,,,60ff390c957f2ba44d3ff87a,61036a480bca9b6bb0ab1217,2021-07-29_20h57.50.650,Simcolourproject_2stim_asymm_v5,2020.2.10,MacIntel,60,61025ae37ef11b136ea224fe,,,,,,,,,399,29.41589355,-79.82495117,1,0,0,response3disk,,4,-8.391845703,4.385620117,1,0,0,rectangle,-8.391845703,4.385620117,1,0,0,-8.391845703,4.385620117,1,0,0,1,22,182,49,1,,,,,,,,
,,,,,,,,,,,,,FF,,,,,,,,1.2008,,,,,,,,,,,,,,,,,,,,,,60ff390c957f2ba44d3ff87a,61036a480bca9b6bb0ab1217,2021-07-29_20h57.50.650,Simcolourproject_2stim_asymm_v5,2020.2.10,MacIntel,60,61025ae37ef11b136ea224fe,,,,,,,,,3813,-78.93572998,50.83157349,1,0,0,response7disk,,1,-19.76849365,7.18371582,1,0,0,rectangle,-19.76849365,7.18371582,1,0,0,-19.76849365,7.18371582,1,0,0,1,23,183,110,1,,,,,,,,
,,,,,,,,,,,,,FF,,,,,,,,0.8684,,,,,,,,,,,,,,,,,,,,,,60ff390c957f2ba44d3ff87a,61036a480bca9b6bb0ab1217,2021-07-29_20h57.50.650,Simcolourproject_2stim_asymm_v5,2020.2.10,MacIntel,60,61025ae37ef11b136ea224fe,,,,,,,,,3288,-60.07537842,-34.53561401,1,0,0,response5disk,,2,4.741455078,1.012115479,1,0,0,rectangle,4.741455078,1.012115479,1,0,0,4.741455078,1.012115479,1,0,0,1,24,184,104,1,,,,,,,,
,,,,,,,,,,,,,FF,,,,,,,,1.0163,,,,,,,,,,,,,,,,,,,,,,60ff390c957f2ba44d3ff87a,61036a480bca9b6bb0ab1217,2021-07-29_20h57.50.650,Simcolourproject_2stim_asymm_v5,2020.2.10,MacIntel,60,61025ae37ef11b136ea224fe,,,,,,,,,3329,-75.64910889,-45.59631348,1,0,0,response5disk,,2,-14.03430176,2.997802734,1,0,0,rectangle,-14.03430176,2.997802734,1,0,0,-14.03430176,2.997802734,1,0,0,1,25,185,135,1,,,,,,,,
,,,,,,,,,,,,,FF,,,,,,,,1.1675,,,,,,,,,,,,,,,,,,,,,,60ff390c957f2ba44d3ff87a,61036a480bca9b6bb0ab1217,2021-07-29_20h57.50.650,Simcolourproject_2stim_asymm_v5,2020.2.10,MacIntel,60,61025ae37ef11b136ea224fe,,,,,,,,,1827,-67.69915771,-36.54815674,1,0,0,response5disk,,2,7.851806641,-1.351989746,1,0,0,rectangle,7.851806641,-1.351989746,1,0,0,7.851806641,-1.351989746,1,0,0,1,26,186,109,1,,,,,,,,
,,,,,,,,,,,,,FF,,,,,,,,1.0692,,,,,,,,,,,,,,,,,,,,,,60ff390c957f2ba44d3ff87a,61036a480bca9b6bb0ab1217,2021-07-29_20h57.50.650,Simcolourproject_2stim_asymm_v5,2020.2.10,MacIntel,60,61025ae37ef11b136ea224fe,,,,,,,,,202,92.80859375,-58.83505249,1,0,0,response3disk,,5,-9.620727539,6.718414307,1,0,0,rectangle,-9.620727539,6.718414307,1,0,0,-9.620727539,6.718414307,1,0,0,1,27,187,128,1,,,,,,,,
,,,,,,,,,,,,,FF,,,,,,,,1.2167,,,,,,,,,,,,,,,,,,,,,,60ff390c957f2ba44d3ff87a,61036a480bca9b6bb0ab1217,2021-07-29_20h57.50.650,Simcolourproject_2stim_asymm_v5,2020.2.10,MacIntel,60,61025ae37ef11b136ea224fe,,,,,,,,,789,71.05407715,22.5256958,1,0,0,response1disk,,6,11.23406982,-8.049133301,1,0,0,rectangle,11.23406982,-8.049133301,1,0,0,11.23406982,-8.049133301,1,0,0,1,28,188,9,1,,,,,,,,
,,,,,,,,,,,,,FF,,,,,,,,0.8674,,,,,,,,,,,,,,,,,,,,,,60ff390c957f2ba44d3ff87a,61036a480bca9b6bb0ab1217,2021-07-29_20h57.50.650,Simcolourproject_2stim_asymm_v5,2020.2.10,MacIntel,60,61025ae37ef11b136ea224fe,,,,,,,,,420,38.72784424,66.99334717,1,0,0,response1disk,,7,5.09362793,-4.662353516,1,0,0,rectangle,5.09362793,-4.662353516,1,0,0,5.09362793,-4.662353516,1,0,0,1,29,189,33,1,,,,,,,,
,,,,,,,,,,,,,FF,,,,,,,,0.9008,,,,,,,,,,,,,,,,,,,,,,60ff390c957f2ba44d3ff87a,61036a480bca9b6bb0ab1217,2021-07-29_20h57.50.650,Simcolourproject_2stim_asymm_v5,2020.2.10,MacIntel,60,61025ae37ef11b136ea224fe,,,,,,,,,1572,97.35253906,33.22122192,1,0,0,response1disk,,6,-8.098632813,0.404541016,1,0,0,rectangle,-8.098632813,0.404541016,1,0,0,-8.098632813,0.404541016,1,0,0,1,30,190,42,1,,,,,,,,
,,,,,,,,,,,,,FF,,,,,,,,1.1507,,,,,,,,,,,,,,,,,,,,,,60ff390c957f2ba44d3ff87a,61036a480bca9b6bb0ab1217,2021-07-29_20h57.50.650,Simcolourproject_2stim_asymm_v5,2020.2.10,MacIntel,60,61025ae37ef11b136ea224fe,,,,,,,,,773,45.61694336,-73.14880371,1,0,0,response3disk,,4,10.02624512,-10.86419678,1,0,0,rectangle,10.02624512,-10.86419678,1,0,0,10.02624512,-10.86419678,1,0,0,1,31,191,40,1,,,,,,,,
,,,,,,,,,,,,,FF,,,,,,,,1.0348,,,,,,,,,,,,,,,,,,,,,,60ff390c957f2ba44d3ff87a,61036a480bca9b6bb0ab1217,2021-07-29_20h57.50.650,Simcolourproject_2stim_asymm_v5,2020.2.10,MacIntel,60,61025ae37ef11b136ea224fe,,,,,,,,,1761,62.34735107,-77.80026245,1,0,0,response3disk,,4,13.09381104,-4.915252686,1,0,0,rectangle,13.09381104,-4.915252686,1,0,0,13.09381104,-4.915252686,1,0,0,1,32,192,72,1,,,,,,,,
,,,,,,,,,,,,,FF,,,,,,,,0.7504,,,,,,,,,,,,,,,,,,,,,,60ff390c957f2ba44d3ff87a,61036a480bca9b6bb0ab1217,2021-07-29_20h57.50.650,Simcolourproject_2stim_asymm_v5,2020.2.10,MacIntel,60,61025ae37ef11b136ea224fe,,,,,,,,,2649,29.77905273,110.476532,1,0,0,response1disk,,7,8.905761719,-5.58215332,1,0,0,rectangle,8.905761719,-5.58215332,1,0,0,8.905761719,-5.58215332,1,0,0,1,33,193,37,1,,,,,,,,
,,,,,,,,,,,,,FF,,,,,,,,2.2172,,,,,,,,,,,,,,,,,,,,,,60ff390c957f2ba44d3ff87a,61036a480bca9b6bb0ab1217,2021-07-29_20h57.50.650,Simcolourproject_2stim_asymm_v5,2020.2.10,MacIntel,60,61025ae37ef11b136ea224fe,,,,,,,,,3627,76.58398438,19.05929565,1,0,0,response1disk,,6,-7.080688477,-5.267974854,1,0,0,rectangle,38.10754395,-79.21481323,1,0,0,11.31524658,-10.30374146,1,0,0,1,34,194,8,1,,response3disk_3,TRUE,4,4,"[235,256,37,319,127,135,62,55,121,304,195,263,264,168,286,98,202,88,115,180]",1.7161,rectangle
,,,,,,,,,,,,,FF,,,,,,,,0.8671,,,,,,,,,,,,,,,,,,,,,,60ff390c957f2ba44d3ff87a,61036a480bca9b6bb0ab1217,2021-07-29_20h57.50.650,Simcolourproject_2stim_asymm_v5,2020.2.10,MacIntel,60,61025ae37ef11b136ea224fe,,,,,,,,,3558,-56.48742676,27.22824097,1,0,0,response7disk,,1,15.9543457,0.49307251,1,0,0,rectangle,15.9543457,0.49307251,1,0,0,15.9543457,0.49307251,1,0,0,1,35,195,50,1,,,,,,,,
,,,,,,,,,,,,,FF,,,,,,,,2.7168,,,,,,,,,,,,,,,,,,,,,,60ff390c957f2ba44d3ff87a,61036a480bca9b6bb0ab1217,2021-07-29_20h57.50.650,Simcolourproject_2stim_asymm_v5,2020.2.10,MacIntel,60,61025ae37ef11b136ea224fe,,,,,,,,,4231,38.26324463,73.5932312,1,0,0,response1disk,,7,3.872253418,-1.49319458,1,0,0,rectangle,3.872253418,-1.49319458,1,0,0,3.872253418,-1.49319458,1,0,0,1,36,196,152,1,,,,,,,,
,,,,,,,,,,,,,FF,,,,,,,,4.7697,,,,,,,,,,,,,,,,,,,,,,60ff390c957f2ba44d3ff87a,61036a480bca9b6bb0ab1217,2021-07-29_20h57.50.650,Simcolourproject_2stim_asymm_v5,2020.2.10,MacIntel,60,61025ae37ef11b136ea224fe,,,,,,,,,3426,-79.13848877,44.27645874,1,0,0,response7disk,,1,9.872497559,-12.76593018,1,0,0,rectangle,9.872497559,-12.76593018,1,0,0,9.872497559,-12.76593018,1,0,0,1,37,197,98,1,,,,,,,,
,,,,,,,,,,,,,FF,,,,,,,,1.0152,,,,,,,,,,,,,,,,,,,,,,60ff390c957f2ba44d3ff87a,61036a480bca9b6bb0ab1217,2021-07-29_20h57.50.650,Simcolourproject_2stim_asymm_v5,2020.2.10,MacIntel,60,61025ae37ef11b136ea224fe,,,,,,,,,302,44.27075195,83.17700195,1,0,0,response1disk,,7,4.100952148,3.33026123,1,0,0,rectangle,4.100952148,3.33026123,1,0,0,4.100952148,3.33026123,1,0,0,1,38,198,86,1,,,,,,,,
,,,,,,,,,,,,,FF,,,,,,,,2.2685,,,,,,,,,,,,,,,,,,,,,,60ff390c957f2ba44d3ff87a,61036a480bca9b6bb0ab1217,2021-07-29_20h57.50.650,Simcolourproject_2stim_asymm_v5,2020.2.10,MacIntel,60,61025ae37ef11b136ea224fe,,,,,,,,,3238,80.38989258,42.60794067,1,0,0,response1disk,,6,-5.294006348,-3.061279297,1,0,0,rectangle,-5.294006348,-3.061279297,1,0,0,-5.294006348,-3.061279297,1,0,0,1,39,199,26,1,,,,,,,,
,,,,,,,,,,,,,FF,,,,,,,,1.7659,,,,,,,,,,,,,,,,,,,,,,60ff390c957f2ba44d3ff87a,61036a480bca9b6bb0ab1217,2021-07-29_20h57.50.650,Simcolourproject_2stim_asymm_v5,2020.2.10,MacIntel,60,61025ae37ef11b136ea224fe,,,,,,,,,3370,39.47875977,67.22344971,1,0,0,response1disk,,7,-2.053405762,-5.688812256,1,0,0,rectangle,-2.053405762,-5.688812256,1,0,0,-2.053405762,-5.688812256,1,0,0,1,40,200,63,1,,,,,,,,
,,,,,,,,,,,,,FF,,,,,,,,2.3517,,,,,,,,,,,,,,,,,,,,,,60ff390c957f2ba44d3ff87a,61036a480bca9b6bb0ab1217,2021-07-29_20h57.50.650,Simcolourproject_2stim_asymm_v5,2020.2.10,MacIntel,60,61025ae37ef11b136ea224fe,,,,,,,,,3477,55.52087402,25.59420776,1,0,0,response1disk,,6,5.619506836,-1.962249756,1,0,0,rectangle,-42.25366211,-74.68212891,1,0,0,16.75634766,1.118774414,1,0,0,1,41,201,27,1,,response5disk_3,TRUE,3,3,"[235,256,37,319,127,135,62,55,121,304,195,263,264,168,286,98,202,88,115,180]",2.133,rectangle
,,,,,,,,,,,,,FF,,,,,,,,1.4851,,,,,,,,,,,,,,,,,,,,,,60ff390c957f2ba44d3ff87a,61036a480bca9b6bb0ab1217,2021-07-29_20h57.50.650,Simcolourproject_2stim_asymm_v5,2020.2.10,MacIntel,60,61025ae37ef11b136ea224fe,,,,,,,,,2093,-50.90509033,75.51870728,1,0,0,response7disk,,0,-5.026367188,-4.024963379,1,0,0,rectangle,-5.026367188,-4.024963379,1,0,0,-5.026367188,-4.024963379,1,0,0,1,42,202,141,1,,,,,,,,
,,,,,,,,,,,,,FF,,,,,,,,0.9054,,,,,,,,,,,,,,,,,,,,,,60ff390c957f2ba44d3ff87a,61036a480bca9b6bb0ab1217,2021-07-29_20h57.50.650,Simcolourproject_2stim_asymm_v5,2020.2.10,MacIntel,60,61025ae37ef11b136ea224fe,,,,,,,,,2054,84.35522461,19.34243774,1,0,0,response1disk,,6,14.42901611,-3.153778076,1,0,0,rectangle,14.42901611,-3.153778076,1,0,0,14.42901611,-3.153778076,1,0,0,1,43,203,64,1,,,,,,,,
,,,,,,,,,,,,,FF,,,,,,,,1.034,,,,,,,,,,,,,,,,,,,,,,60ff390c957f2ba44d3ff87a,61036a480bca9b6bb0ab1217,2021-07-29_20h57.50.650,Simcolourproject_2stim_asymm_v5,2020.2.10,MacIntel,60,61025ae37ef11b136ea224fe,,,,,,,,,1456,42.54211426,-73.28344727,1,0,0,response3disk,,4,-1.007507324,-4.505401611,1,0,0,rectangle,-1.007507324,-4.505401611,1,0,0,-1.007507324,-4.505401611,1,0,0,1,44,204,105,1,,,,,,,,
,,,,,,,,,,,,,FF,,,,,,,,0.9834,,,,,,,,,,,,,,,,,,,,,,60ff390c957f2ba44d3ff87a,61036a480bca9b6bb0ab1217,2021-07-29_20h57.50.650,Simcolourproject_2stim_asymm_v5,2020.2.10,MacIntel,60,61025ae37ef11b136ea224fe,,,,,,,,,3078,73.76635742,-40.49887085,1,0,0,response3disk,,5,13.91217041,-0.157684326,1,0,0,rectangle,13.91217041,-0.157684326,1,0,0,13.91217041,-0.157684326,1,0,0,1,45,205,89,1,,,,,,,,
,,,,,,,,,,,,,FF,,,,,,,,0.7018,,,,,,,,,,,,,,,,,,,,,,60ff390c957f2ba44d3ff87a,61036a480bca9b6bb0ab1217,2021-07-29_20h57.50.650,Simcolourproject_2stim_asymm_v5,2020.2.10,MacIntel,60,61025ae37ef11b136ea224fe,,,,,,,,,2250,72.27685547,-23.18173218,1,0,0,response3disk,,5,-20.73712158,6.872772217,1,0,0,rectangle,-20.73712158,6.872772217,1,0,0,-20.73712158,6.872772217,1,0,0,1,46,206,5,1,,,,,,,,
,,,,,,,,,,,,,FF,,,,,,,,1.2352,,,,,,,,,,,,,,,,,,,,,,60ff390c957f2ba44d3ff87a,61036a480bca9b6bb0ab1217,2021-07-29_20h57.50.650,Simcolourproject_2stim_asymm_v5,2020.2.10,MacIntel,60,61025ae37ef11b136ea224fe,,,,,,,,,2844,90.48303223,33.972229,1,0,0,response1disk,,6,5.901428223,-4.915008545,1,0,0,rectangle,5.901428223,-4.915008545,1,0,0,5.901428223,-4.915008545,1,0,0,1,47,207,147,1,,,,,,,,
,,,,,,,,,,,,,FF,,,,,,,,1.5169,,,,,,,,,,,,,,,,,,,,,,60ff390c957f2ba44d3ff87a,61036a480bca9b6bb0ab1217,2021-07-29_20h57.50.650,Simcolourproject_2stim_asymm_v5,2020.2.10,MacIntel,60,61025ae37ef11b136ea224fe,,,,,,,,,3332,-33.88043213,-73.29443359,1,0,0,response5disk,,3,8.270446777,15.57632446,1,0,0,rectangle,8.270446777,15.57632446,1,0,0,8.270446777,15.57632446,1,0,0,1,48,208,54,1,,,,,,,,
,,,,,,,,,,,,,FF,,,,,,,,1.0169,,,,,,,,,,,,,,,,,,,,,,60ff390c957f2ba44d3ff87a,61036a480bca9b6bb0ab1217,2021-07-29_20h57.50.650,Simcolourproject_2stim_asymm_v5,2020.2.10,MacIntel,60,61025ae37ef11b136ea224fe,,,,,,,,,892,78.93347168,-60.53961182,1,0,0,response3disk,,5,9.471435547,-6.849182129,1,0,0,rectangle,9.471435547,-6.849182129,1,0,0,9.471435547,-6.849182129,1,0,0,1,49,209,102,1,,,,,,,,
,,,,,,,,,,,,,FF,,,,,,,,0.8477,,,,,,,,,,,,,,,,,,,,,,60ff390c957f2ba44d3ff87a,61036a480bca9b6bb0ab1217,2021-07-29_20h57.50.650,Simcolourproject_2stim_asymm_v5,2020.2.10,MacIntel,60,61025ae37ef11b136ea224fe,,,,,,,,,2068,95.40716553,-58.84115601,1,0,0,response3disk,,5,4.171813965,-0.109893799,1,0,0,rectangle,4.171813965,-0.109893799,1,0,0,4.171813965,-0.109893799,1,0,0,1,50,210,2,1,,,,,,,,
,,,,,,,,,,,,,FF,,,,,,,,1.0339,,,,,,,,,,,,,,,,,,,,,,60ff390c957f2ba44d3ff87a,61036a480bca9b6bb0ab1217,2021-07-29_20h57.50.650,Simcolourproject_2stim_asymm_v5,2020.2.10,MacIntel,60,61025ae37ef11b136ea224fe,,,,,,,,,819,92.06872559,-55.44564819,1,0,0,response3disk,,5,7.590332031,3.934234619,1,0,0,rectangle,7.590332031,3.934234619,1,0,0,7.590332031,3.934234619,1,0,0,1,51,211,103,1,,,,,,,,
,,,,,,,,,,,,,FF,,,,,,,,1.2664,,,,,,,,,,,,,,,,,,,,,,60ff390c957f2ba44d3ff87a,61036a480bca9b6bb0ab1217,2021-07-29_20h57.50.650,Simcolourproject_2stim_asymm_v5,2020.2.10,MacIntel,60,61025ae37ef11b136ea224fe,,,,,,,,,2790,-73.31170654,-47.0710144,1,0,0,response5disk,,2,8.036682129,1.978729248,1,0,0,rectangle,8.036682129,1.978729248,1,0,0,8.036682129,1.978729248,1,0,0,1,52,212,85,1,,,,,,,,
,,,,,,,,,,,,,FF,,,,,,,,1.2012,,,,,,,,,,,,,,,,,,,,,,60ff390c957f2ba44d3ff87a,61036a480bca9b6bb0ab1217,2021-07-29_20h57.50.650,Simcolourproject_2stim_asymm_v5,2020.2.10,MacIntel,60,61025ae37ef11b136ea224fe,,,,,,,,,2347,26.43127441,-89.66485596,1,0,0,response3disk,,4,16.07891846,2.892333984,1,0,0,rectangle,16.07891846,2.892333984,1,0,0,16.07891846,2.892333984,1,0,0,1,53,213,4,1,,,,,,,,
,,,,,,,,,,,,,FF,,,,,,,,1.3833,,,,,,,,,,,,,,,,,,,,,,60ff390c957f2ba44d3ff87a,61036a480bca9b6bb0ab1217,2021-07-29_20h57.50.650,Simcolourproject_2stim_asymm_v5,2020.2.10,MacIntel,60,61025ae37ef11b136ea224fe,,,,,,,,,1533,46.33514404,-99.10968018,1,0,0,response3disk,,4,5.465270996,-0.441589355,1,0,0,rectangle,5.465270996,-0.441589355,1,0,0,5.465270996,-0.441589355,1,0,0,1,54,214,117,1,,,,,,,,
,,,,,,,,,,,,,FF,,,,,,,,3.0002,,,,,,,,,,,,,,,,,,,,,,60ff390c957f2ba44d3ff87a,61036a480bca9b6bb0ab1217,2021-07-29_20h57.50.650,Simcolourproject_2stim_asymm_v5,2020.2.10,MacIntel,60,61025ae37ef11b136ea224fe,,,,,,,,,181,37.8638916,-65.34701538,1,0,0,response3disk,,4,5.997375488,-8.467956543,1,0,0,rectangle,5.997375488,-8.467956543,1,0,0,5.997375488,-8.467956543,1,0,0,1,55,215,130,1,,,,,,,,
,,,,,,,,,,,,,FF,,,,,,,,0.7829,,,,,,,,,,,,,,,,,,,,,,60ff390c957f2ba44d3ff87a,61036a480bca9b6bb0ab1217,2021-07-29_20h57.50.650,Simcolourproject_2stim_asymm_v5,2020.2.10,MacIntel,60,61025ae37ef11b136ea224fe,,,,,,,,,2384,68.72216797,14.27255249,1,0,0,response1disk,,6,-0.373535156,3.734680176,1,0,0,rectangle,-0.373535156,3.734680176,1,0,0,-0.373535156,3.734680176,1,0,0,1,56,216,20,1,,,,,,,,
,,,,,,,,,,,,,FF,,,,,,,,1.117,,,,,,,,,,,,,,,,,,,,,,60ff390c957f2ba44d3ff87a,61036a480bca9b6bb0ab1217,2021-07-29_20h57.50.650,Simcolourproject_2stim_asymm_v5,2020.2.10,MacIntel,60,61025ae37ef11b136ea224fe,,,,,,,,,3981,89.62316895,-58.9637146,1,0,0,response3disk,,5,5.355957031,2.145965576,1,0,0,rectangle,5.355957031,2.145965576,1,0,0,5.355957031,2.145965576,1,0,0,1,57,217,83,1,,,,,,,,
,,,,,,,,,,,,,FF,,,,,,,,0.9832,,,,,,,,,,,,,,,,,,,,,,60ff390c957f2ba44d3ff87a,61036a480bca9b6bb0ab1217,2021-07-29_20h57.50.650,Simcolourproject_2stim_asymm_v5,2020.2.10,MacIntel,60,61025ae37ef11b136ea224fe,,,,,,,,,705,98.30560303,-55.92199707,1,0,0,response3disk,,5,-3.023010254,4.512329102,1,0,0,rectangle,-3.023010254,4.512329102,1,0,0,-3.023010254,4.512329102,1,0,0,1,58,218,69,1,,,,,,,,
,,,,,,,,,,,,,FF,,,,,,,,0.9334,,,,,,,,,,,,,,,,,,,,,,60ff390c957f2ba44d3ff87a,61036a480bca9b6bb0ab1217,2021-07-29_20h57.50.650,Simcolourproject_2stim_asymm_v5,2020.2.10,MacIntel,60,61025ae37ef11b136ea224fe,,,,,,,,,3605,80.09344482,-37.10473633,1,0,0,response3disk,,5,11.83685303,-4.322875977,1,0,0,rectangle,11.83685303,-4.322875977,1,0,0,11.83685303,-4.322875977,1,0,0,1,59,219,11,1,,,,,,,,
,,,,,,,,,,,,,FF,,,,,,,,1.3509,,,,,,,,,,,,,,,,,,,,,,60ff390c957f2ba44d3ff87a,61036a480bca9b6bb0ab1217,2021-07-29_20h57.50.650,Simcolourproject_2stim_asymm_v5,2020.2.10,MacIntel,60,61025ae37ef11b136ea224fe,,,,,,,,,2807,58.56396484,20.12997437,1,0,0,response1disk,,6,-8.181762695,5.249633789,1,0,0,rectangle,-8.181762695,5.249633789,1,0,0,-8.181762695,5.249633789,1,0,0,1,60,220,87,1,,,,,,,,
,,,,,,,,,,,,,FF,,,,,,,,1.3175,,,,,,,,,,,,,,,,,,,,,,60ff390c957f2ba44d3ff87a,61036a480bca9b6bb0ab1217,2021-07-29_20h57.50.650,Simcolourproject_2stim_asymm_v5,2020.2.10,MacIntel,60,61025ae37ef11b136ea224fe,,,,,,,,,2204,33.50494385,98.19042969,1,0,0,response1disk,,7,13.57720947,10.54394531,1,0,0,rectangle,13.57720947,10.54394531,1,0,0,13.57720947,10.54394531,1,0,0,1,61,221,23,1,,,,,,,,
,,,,,,,,,,,,,FF,,,,,,,,0.8677,,,,,,,,,,,,,,,,,,,,,,60ff390c957f2ba44d3ff87a,61036a480bca9b6bb0ab1217,2021-07-29_20h57.50.650,Simcolourproject_2stim_asymm_v5,2020.2.10,MacIntel,60,61025ae37ef11b136ea224fe,,,,,,,,,3324,40.41253662,79.5531311,1,0,0,response1disk,,7,-4.803894043,9.442047119,1,0,0,rectangle,-4.803894043,9.442047119,1,0,0,-4.803894043,9.442047119,1,0,0,1,62,222,58,1,,,,,,,,
,,,,,,,,,,,,,FF,,,,,,,,0.9501,,,,,,,,,,,,,,,,,,,,,,60ff390c957f2ba44d3ff87a,61036a480bca9b6bb0ab1217,2021-07-29_20h57.50.650,Simcolourproject_2stim_asymm_v5,2020.2.10,MacIntel,60,61025ae37ef11b136ea224fe,,,,,,,,,254,28.99963379,-63.97903442,1,0,0,response3disk,,4,-9.397949219,0.394042969,1,0,0,rectangle,-9.397949219,0.394042969,1,0,0,-9.397949219,0.394042969,1,0,0,1,63,223,13,1,,,,,,,,
,,,,,,,,,,,,,FF,,,,,,,,0.8844,,,,,,,,,,,,,,,,,,,,,,60ff390c957f2ba44d3ff87a,61036a480bca9b6bb0ab1217,2021-07-29_20h57.50.650,Simcolourproject_2stim_asymm_v5,2020.2.10,MacIntel,60,61025ae37ef11b136ea224fe,,,,,,,,,1760,-38.13769531,-64.36346436,1,0,0,response5disk,,3,-1.678100586,1.527893066,1,0,0,rectangle,-1.678100586,1.527893066,1,0,0,-1.678100586,1.527893066,1,0,0,1,64,224,129,1,,,,,,,,
,,,,,,,,,,,,,FF,,,,,,,,0.9336,,,,,,,,,,,,,,,,,,,,,,60ff390c957f2ba44d3ff87a,61036a480bca9b6bb0ab1217,2021-07-29_20h57.50.650,Simcolourproject_2stim_asymm_v5,2020.2.10,MacIntel,60,61025ae37ef11b136ea224fe,,,,,,,,,214,30.42321777,-57.89300537,1,0,0,response3disk,,4,9.270446777,-6.909057617,1,0,0,rectangle,9.270446777,-6.909057617,1,0,0,9.270446777,-6.909057617,1,0,0,1,65,225,108,1,,,,,,,,
,,,,,,,,,,,,,FF,,,,,,,,2.5169,,,,,,,,,,,,,,,,,,,,,,60ff390c957f2ba44d3ff87a,61036a480bca9b6bb0ab1217,2021-07-29_20h57.50.650,Simcolourproject_2stim_asymm_v5,2020.2.10,MacIntel,60,61025ae37ef11b136ea224fe,,,,,,,,,450,74.11981201,-35.55389404,1,0,0,response3disk,,5,11.92730713,-3.801727295,1,0,0,rectangle,11.92730713,-3.801727295,1,0,0,11.92730713,-3.801727295,1,0,0,1,66,226,25,1,,,,,,,,
,,,,,,,,,,,,,FF,,,,,,,,1.1839,,,,,,,,,,,,,,,,,,,,,,60ff390c957f2ba44d3ff87a,61036a480bca9b6bb0ab1217,2021-07-29_20h57.50.650,Simcolourproject_2stim_asymm_v5,2020.2.10,MacIntel,60,61025ae37ef11b136ea224fe,,,,,,,,,2393,77.05725098,27.71218872,1,0,0,response1disk,,6,3.851013184,-3.491821289,1,0,0,rectangle,3.851013184,-3.491821289,1,0,0,3.851013184,-3.491821289,1,0,0,1,67,227,92,1,,,,,,,,
,,,,,,,,,,,,,FF,,,,,,,,1.0994,,,,,,,,,,,,,,,,,,,,,,60ff390c957f2ba44d3ff87a,61036a480bca9b6bb0ab1217,2021-07-29_20h57.50.650,Simcolourproject_2stim_asymm_v5,2020.2.10,MacIntel,60,61025ae37ef11b136ea224fe,,,,,,,,,928,42.50976563,74.28689575,1,0,0,response1disk,,7,-5.291137695,-9.207000732,1,0,0,rectangle,-5.291137695,-9.207000732,1,0,0,-5.291137695,-9.207000732,1,0,0,1,68,228,144,1,,,,,,,,
,,,,,,,,,,,,,FF,,,,,,,,0.6502,,,,,,,,,,,,,,,,,,,,,,60ff390c957f2ba44d3ff87a,61036a480bca9b6bb0ab1217,2021-07-29_20h57.50.650,Simcolourproject_2stim_asymm_v5,2020.2.10,MacIntel,60,61025ae37ef11b136ea224fe,,,,,,,,,959,47.07946777,75.53582764,1,0,0,response1disk,,7,-2.231750488,0.403137207,1,0,0,rectangle,-2.231750488,0.403137207,1,0,0,-2.231750488,0.403137207,1,0,0,1,69,229,148,1,,,,,,,,
,,,,,,,,,,,,,FF,,,,,,,,1.2173,,,,,,,,,,,,,,,,,,,,,,60ff390c957f2ba44d3ff87a,61036a480bca9b6bb0ab1217,2021-07-29_20h57.50.650,Simcolourproject_2stim_asymm_v5,2020.2.10,MacIntel,60,61025ae37ef11b136ea224fe,,,,,,,,,4077,38.69281006,77.86190796,1,0,0,response1disk,,7,9.600708008,8.225219727,1,0,0,rectangle,9.600708008,8.225219727,1,0,0,9.600708008,8.225219727,1,0,0,1,70,230,114,1,,,,,,,,
,,,,,,,,,,,,,FF,,,,,,,,1.3176,,,,,,,,,,,,,,,,,,,,,,60ff390c957f2ba44d3ff87a,61036a480bca9b6bb0ab1217,2021-07-29_20h57.50.650,Simcolourproject_2stim_asymm_v5,2020.2.10,MacIntel,60,61025ae37ef11b136ea224fe,,,,,,,,,4358,-106.7640381,37.12841797,1,0,0,response7disk,,1,-11.95391846,-0.015808105,1,0,0,rectangle,-11.95391846,-0.015808105,1,0,0,-11.95391846,-0.015808105,1,0,0,1,71,231,53,1,,,,,,,,
,,,,,,,,,,,,,FF,,,,,,,,1.6006,,,,,,,,,,,,,,,,,,,,,,60ff390c957f2ba44d3ff87a,61036a480bca9b6bb0ab1217,2021-07-29_20h57.50.650,Simcolourproject_2stim_asymm_v5,2020.2.10,MacIntel,60,61025ae37ef11b136ea224fe,,,,,,,,,4331,39.36065674,75.58358765,1,0,0,response1disk,,7,-2.07434082,1.967895508,1,0,0,rectangle,-2.07434082,1.967895508,1,0,0,-2.07434082,1.967895508,1,0,0,1,72,232,127,1,,,,,,,,
,,,,,,,,,,,,,FF,,,,,,,,1.589,,,,,,,,,,,,,,,,,,,,,,60ff390c957f2ba44d3ff87a,61036a480bca9b6bb0ab1217,2021-07-29_20h57.50.650,Simcolourproject_2stim_asymm_v5,2020.2.10,MacIntel,60,61025ae37ef11b136ea224fe,,,,,,,,,807,-81.75769043,28.85305786,1,0,0,response7disk,,1,-13.69244385,3.084228516,1,0,0,rectangle,-13.69244385,3.084228516,1,0,0,-13.69244385,3.084228516,1,0,0,1,73,233,52,1,,,,,,,,
,,,,,,,,,,,,,FF,,,,,,,,1.2006,,,,,,,,,,,,,,,,,,,,,,60ff390c957f2ba44d3ff87a,61036a480bca9b6bb0ab1217,2021-07-29_20h57.50.650,Simcolourproject_2stim_asymm_v5,2020.2.10,MacIntel,60,61025ae37ef11b136ea224fe,,,,,,,,,3002,-29.02838135,-54.62335205,1,0,0,response5disk,,3,-6.187011719,-12.21670532,1,0,0,rectangle,-90.88537598,40.56936646,1,0,0,1.449401855,7.395904541,1,0,0,1,74,234,154,1,,response7disk_3,TRUE,1,1,"[235,256,37,319,127,135,62,55,121,304,195,263,264,168,286,98,202,88,115,180]",1.8497,rectangle
,,,,,,,,,,,,,FF,,,,,,,,0.9005,,,,,,,,,,,,,,,,,,,,,,60ff390c957f2ba44d3ff87a,61036a480bca9b6bb0ab1217,2021-07-29_20h57.50.650,Simcolourproject_2stim_asymm_v5,2020.2.10,MacIntel,60,61025ae37ef11b136ea224fe,,,,,,,,,2937,-27.13653564,-74.25302124,1,0,0,response5disk,,3,15.81921387,5.48840332,1,0,0,rectangle,15.81921387,5.48840332,1,0,0,15.81921387,5.48840332,1,0,0,1,75,235,60,1,,,,,,,,
,,,,,,,,,,,,,FF,,,,,,,,0.9676,,,,,,,,,,,,,,,,,,,,,,60ff390c957f2ba44d3ff87a,61036a480bca9b6bb0ab1217,2021-07-29_20h57.50.650,Simcolourproject_2stim_asymm_v5,2020.2.10,MacIntel,60,61025ae37ef11b136ea224fe,,,,,,,,,68,102.5791016,-35.68209839,1,0,0,response3disk,,5,6.147460938,-3.112915039,1,0,0,rectangle,6.147460938,-3.112915039,1,0,0,6.147460938,-3.112915039,1,0,0,1,76,236,118,1,,,,,,,,
,,,,,,,,,,,,,FF,,,,,,,,2.2347,,,,,,,,,,,,,,,,,,,,,,60ff390c957f2ba44d3ff87a,61036a480bca9b6bb0ab1217,2021-07-29_20h57.50.650,Simcolourproject_2stim_asymm_v5,2020.2.10,MacIntel,60,61025ae37ef11b136ea224fe,,,,,,,,,3010,65.98864746,38.31289673,1,0,0,response1disk,,6,-3.875366211,-1.31652832,1,0,0,rectangle,-3.875366211,-1.31652832,1,0,0,-3.875366211,-1.31652832,1,0,0,1,77,237,120,1,,,,,,,,
,,,,,,,,,,,,,FF,,,,,,,,1.2336,,,,,,,,,,,,,,,,,,,,,,60ff390c957f2ba44d3ff87a,61036a480bca9b6bb0ab1217,2021-07-29_20h57.50.650,Simcolourproject_2stim_asymm_v5,2020.2.10,MacIntel,60,61025ae37ef11b136ea224fe,,,,,,,,,2216,94.72485352,43.38745117,1,0,0,response1disk,,6,2.109130859,-10.12969971,1,0,0,rectangle,2.109130859,-10.12969971,1,0,0,2.109130859,-10.12969971,1,0,0,1,78,238,133,1,,,,,,,,
,,,,,,,,,,,,,FF,,,,,,,,0.9213,,,,,,,,,,,,,,,,,,,,,,60ff390c957f2ba44d3ff87a,61036a480bca9b6bb0ab1217,2021-07-29_20h57.50.650,Simcolourproject_2stim_asymm_v5,2020.2.10,MacIntel,60,61025ae37ef11b136ea224fe,,,,,,,,,4084,83.73687744,-43.98858643,1,0,0,response3disk,,5,18.97540283,8.141326904,1,0,0,rectangle,18.97540283,8.141326904,1,0,0,18.97540283,8.141326904,1,0,0,1,79,239,7,1,,,,,,,,
,,,,,,,,,,,,,FF,,,,,,,,1.784,,,,,,,,,,,,,,,,,,,,,,60ff390c957f2ba44d3ff87a,61036a480bca9b6bb0ab1217,2021-07-29_20h57.50.650,Simcolourproject_2stim_asymm_v5,2020.2.10,MacIntel,60,61025ae37ef11b136ea224fe,,,,,,,,,1965,-67.2310791,38.75921631,1,0,0,response7disk,,1,4.844543457,2.190338135,1,0,0,rectangle,4.844543457,2.190338135,1,0,0,4.844543457,2.190338135,1,0,0,1,80,240,139,1,,,,,,,,
,,,,,,,,,,,,,FF,,,,,,,,5.4695,,,,,,,,,,,,,,,,,,,,,,60ff390c957f2ba44d3ff87a,61036a480bca9b6bb0ab1217,2021-07-29_20h57.50.650,Simcolourproject_2stim_asymm_v5,2020.2.10,MacIntel,60,61025ae37ef11b136ea224fe,,,,,,,,,1679,71.64624023,-38.4979248,1,0,0,response3disk,,5,8.805725098,-5.56439209,1,0,0,rectangle,8.805725098,-5.56439209,1,0,0,8.805725098,-5.56439209,1,0,0,1,81,241,142,1,,,,,,,,
