key_resp.keys,key_resp.rt,key_resp_14.keys,key_resp_14.rt,key_resp_15.keys,key_resp_15.rt,key_resp_17.keys,key_resp_17.rt,key_resp_9.keys,key_resp_9.rt,key_resp_10.keys,key_resp_10.rt,practice_comparison,Ecc,mouse_5.x,mouse_5.y,mouse_5.leftButton,mouse_5.midButton,mouse_5.rightButton,mouse_5.clicked_name,pracsimilarity,response_time,mouse_10.x,mouse_10.y,mouse_10.leftButton,mouse_10.midButton,mouse_10.rightButton,mouse_10.clicked_name,mouse_7.x,mouse_7.y,mouse_7.leftButton,mouse_7.midButton,mouse_7.rightButton,mouse_6.x,mouse_6.y,mouse_6.leftButton,mouse_6.midButton,mouse_6.rightButton,duringprac.thisRepN,duringprac.thisTrialN,duringprac.thisN,duringprac.thisIndex,duringprac.ran,participant,session,date,expName,psychopyVersion,OS,frameRate,study_id,mouse_7.clicked_name,catchpracsimilarity,catch_response_time,catchnumberprac,catchtrialorderprac,mouse_6.clicked_name,key_resp_22.keys,key_resp_22.rt,realcomparison,mouse.x,mouse.y,mouse.leftButton,mouse.midButton,mouse.rightButton,mouse.clicked_name,Colour2,similarity,mouse_2.x,mouse_2.y,mouse_2.leftButton,mouse_2.midButton,mouse_2.rightButton,mouse_2.clicked_name,mouse_3.x,mouse_3.y,mouse_3.leftButton,mouse_3.midButton,mouse_3.rightButton,mouse_11.x,mouse_11.y,mouse_11.leftButton,mouse_11.midButton,mouse_11.rightButton,trials_2.thisRepN,trials_2.thisTrialN,trials_2.thisN,trials_2.thisIndex,trials_2.ran,Colour1,mouse_3.clicked_name,catchornah,catchsimilarity,catchnumber,catchtrialorder,catchRT,mouse_11.clicked_name
space,1.38,space,6.064,space,8.9512,space,5.4855,space,1.3513,space,4.4997,51,FF,28.29296875,-111.9804688,1,0,0,response3disk_5,4,14.254,2.62890625,-2.65625,1,0,0,rectangle_8,2.62890625,-2.65625,1,0,0,2.62890625,-2.65625,1,0,0,0,0,0,3,1,60ff6156666321187979ea94,610372b6f8c4e38188a34e35,2021-07-30_01h06.19.981,Simcolourproject_2stim_asymm_v5,2020.2.10,MacIntel,60,61025ae37ef11b136ea224fe,,,,,,,,,,,,,,,,,,,,,,,,,,,,,,,,,,,,,,,,,,,,,,
,,,,,,,,,,,,50,PF,-86.97265625,-61.6015625,1,0,0,response5disk_5,2,9.8174,-8.03515625,-7.64453125,1,0,0,rectangle_8,88.06640625,-45.62109375,1,0,0,-1.52734375,-2.50390625,1,0,0,0,1,1,2,1,60ff6156666321187979ea94,610372b6f8c4e38188a34e35,2021-07-30_01h06.19.981,Simcolourproject_2stim_asymm_v5,2020.2.10,MacIntel,60,61025ae37ef11b136ea224fe,response3disk_7,5,3.8176,5,"[2,5]",rectangle_4,,,,,,,,,,,,,,,,,,,,,,,,,,,,,,,,,,,,,,,,
,,,,,,,,,,,,7,FF,51.24609375,91.3984375,1,0,0,response1disk_5,7,2.6167,7.296875,-1.59765625,1,0,0,rectangle_8,7.296875,-1.59765625,1,0,0,7.296875,-1.59765625,1,0,0,0,2,2,0,1,60ff6156666321187979ea94,610372b6f8c4e38188a34e35,2021-07-30_01h06.19.981,Simcolourproject_2stim_asymm_v5,2020.2.10,MacIntel,60,61025ae37ef11b136ea224fe,,,,,,,,,,,,,,,,,,,,,,,,,,,,,,,,,,,,,,,,,,,,,,
,,,,,,,,,,,,56,PF,-29.28125,-82.76171875,1,0,0,response5disk_5,3,2.117,7.328125,0.0546875,1,0,0,rectangle_8,7.328125,0.0546875,1,0,0,7.328125,0.0546875,1,0,0,0,3,3,1,1,60ff6156666321187979ea94,610372b6f8c4e38188a34e35,2021-07-30_01h06.19.981,Simcolourproject_2stim_asymm_v5,2020.2.10,MacIntel,60,61025ae37ef11b136ea224fe,,,,,,,,,,,,,,,,,,,,,,,,,,,,,,,,,,,,,,,,,,,,,,
,,,,,,,,,,,,108,PF,46.4453125,74.078125,1,0,0,response1disk_5,7,2.7823,5.51953125,-3.29296875,1,0,0,rectangle_8,68.29296875,-47.6484375,1,0,0,3.01953125,-8.6875,1,0,0,0,4,4,6,1,60ff6156666321187979ea94,610372b6f8c4e38188a34e35,2021-07-30_01h06.19.981,Simcolourproject_2stim_asymm_v5,2020.2.10,MacIntel,60,61025ae37ef11b136ea224fe,response3disk_7,5,1.834,5,"[2,5]",rectangle_4,,,,,,,,,,,,,,,,,,,,,,,,,,,,,,,,,,,,,,,,
,,,,,,,,,,,,59,PF,113.0507813,41.94921875,1,0,0,response1disk_5,6,2.0178,-0.13671875,-5.29296875,1,0,0,rectangle_8,-0.13671875,-5.29296875,1,0,0,-0.13671875,-5.29296875,1,0,0,0,5,5,4,1,60ff6156666321187979ea94,610372b6f8c4e38188a34e35,2021-07-30_01h06.19.981,Simcolourproject_2stim_asymm_v5,2020.2.10,MacIntel,60,61025ae37ef11b136ea224fe,,,,,,,,,,,,,,,,,,,,,,,,,,,,,,,,,,,,,,,,,,,,,,
,,,,,,,,,,,,27,FF,-69.04296875,35.84375,1,0,0,response7disk_5,1,1.4835,21.81640625,2.1328125,1,0,0,rectangle_8,21.81640625,2.1328125,1,0,0,21.81640625,2.1328125,1,0,0,0,6,6,5,1,60ff6156666321187979ea94,610372b6f8c4e38188a34e35,2021-07-30_01h06.19.981,Simcolourproject_2stim_asymm_v5,2020.2.10,MacIntel,60,61025ae37ef11b136ea224fe,,,,,,,,,,,,,,,,,,,,,,,,,,,,,,,,,,,,,,,,,,,,,,
,,,,,,,,,,,,,FF,,,,,,,,5.2862,,,,,,,,,,,,,,,,,,,,,,60ff6156666321187979ea94,610372b6f8c4e38188a34e35,2021-07-30_01h06.19.981,Simcolourproject_2stim_asymm_v5,2020.2.10,MacIntel,60,61025ae37ef11b136ea224fe,,,,,,,space,2.9559,2782,-88.515625,45.5078125,1,0,0,response7disk,,1,6.6875,-8.19921875,1,0,0,rectangle,6.6875,-8.19921875,1,0,0,6.6875,-8.19921875,1,0,0,0,0,0,153,1,,,,,,,,
,,,,,,,,,,,,,FF,,,,,,,,3.9845,,,,,,,,,,,,,,,,,,,,,,60ff6156666321187979ea94,610372b6f8c4e38188a34e35,2021-07-30_01h06.19.981,Simcolourproject_2stim_asymm_v5,2020.2.10,MacIntel,60,61025ae37ef11b136ea224fe,,,,,,,,,3747,-90.890625,-66.7734375,1,0,0,response5disk,,2,9.6328125,-8.79296875,1,0,0,rectangle,9.6328125,-8.79296875,1,0,0,9.6328125,-8.79296875,1,0,0,0,1,1,140,1,,,,,,,,
,,,,,,,,,,,,,FF,,,,,,,,1.9666,,,,,,,,,,,,,,,,,,,,,,60ff6156666321187979ea94,610372b6f8c4e38188a34e35,2021-07-30_01h06.19.981,Simcolourproject_2stim_asymm_v5,2020.2.10,MacIntel,60,61025ae37ef11b136ea224fe,,,,,,,,,1301,-51.84765625,-101.8828125,1,0,0,response5disk,,3,1.40625,-6.9453125,1,0,0,rectangle,1.40625,-6.9453125,1,0,0,1.40625,-6.9453125,1,0,0,0,2,2,95,1,,,,,,,,
,,,,,,,,,,,,,FF,,,,,,,,2.6,,,,,,,,,,,,,,,,,,,,,,60ff6156666321187979ea94,610372b6f8c4e38188a34e35,2021-07-30_01h06.19.981,Simcolourproject_2stim_asymm_v5,2020.2.10,MacIntel,60,61025ae37ef11b136ea224fe,,,,,,,,,3361,53.33984375,96.05859375,1,0,0,response1disk,,7,5.3671875,1.20703125,1,0,0,rectangle,5.3671875,1.20703125,1,0,0,5.3671875,1.20703125,1,0,0,0,3,3,137,1,,,,,,,,
,,,,,,,,,,,,,FF,,,,,,,,1.4351,,,,,,,,,,,,,,,,,,,,,,60ff6156666321187979ea94,610372b6f8c4e38188a34e35,2021-07-30_01h06.19.981,Simcolourproject_2stim_asymm_v5,2020.2.10,MacIntel,60,61025ae37ef11b136ea224fe,,,,,,,,,2743,44.71875,63.56640625,1,0,0,response1disk,,7,6.69921875,-12.3828125,1,0,0,rectangle,6.69921875,-12.3828125,1,0,0,6.69921875,-12.3828125,1,0,0,0,4,4,26,1,,,,,,,,
,,,,,,,,,,,,,FF,,,,,,,,1.0664,,,,,,,,,,,,,,,,,,,,,,60ff6156666321187979ea94,610372b6f8c4e38188a34e35,2021-07-30_01h06.19.981,Simcolourproject_2stim_asymm_v5,2020.2.10,MacIntel,60,61025ae37ef11b136ea224fe,,,,,,,,,86,42.85546875,75.78125,1,0,0,response1disk,,7,3.80078125,-3.78125,1,0,0,rectangle,3.80078125,-3.78125,1,0,0,3.80078125,-3.78125,1,0,0,0,5,5,125,1,,,,,,,,
,,,,,,,,,,,,,FF,,,,,,,,1.7499,,,,,,,,,,,,,,,,,,,,,,60ff6156666321187979ea94,610372b6f8c4e38188a34e35,2021-07-30_01h06.19.981,Simcolourproject_2stim_asymm_v5,2020.2.10,MacIntel,60,61025ae37ef11b136ea224fe,,,,,,,,,2262,38.63671875,66.83984375,1,0,0,response1disk,,7,2.953125,3.15625,1,0,0,rectangle,2.953125,3.15625,1,0,0,2.953125,3.15625,1,0,0,0,6,6,63,1,,,,,,,,
,,,,,,,,,,,,,FF,,,,,,,,1.0499,,,,,,,,,,,,,,,,,,,,,,60ff6156666321187979ea94,610372b6f8c4e38188a34e35,2021-07-30_01h06.19.981,Simcolourproject_2stim_asymm_v5,2020.2.10,MacIntel,60,61025ae37ef11b136ea224fe,,,,,,,,,3136,45.546875,80.265625,1,0,0,response1disk,,7,7.23046875,3.859375,1,0,0,rectangle,7.23046875,3.859375,1,0,0,7.23046875,3.859375,1,0,0,0,7,7,49,1,,,,,,,,
,,,,,,,,,,,,,FF,,,,,,,,1.3665,,,,,,,,,,,,,,,,,,,,,,60ff6156666321187979ea94,610372b6f8c4e38188a34e35,2021-07-30_01h06.19.981,Simcolourproject_2stim_asymm_v5,2020.2.10,MacIntel,60,61025ae37ef11b136ea224fe,,,,,,,,,1464,-58.5625,-89.96484375,1,0,0,response5disk,,3,-8.5,-10.29296875,1,0,0,rectangle,-8.5,-10.29296875,1,0,0,-8.5,-10.29296875,1,0,0,0,8,8,20,1,,,,,,,,
,,,,,,,,,,,,,FF,,,,,,,,1.6685,,,,,,,,,,,,,,,,,,,,,,60ff6156666321187979ea94,610372b6f8c4e38188a34e35,2021-07-30_01h06.19.981,Simcolourproject_2stim_asymm_v5,2020.2.10,MacIntel,60,61025ae37ef11b136ea224fe,,,,,,,,,2900,-79.21875,-33.26953125,1,0,0,response5disk,,2,-16.48046875,-5.9375,1,0,0,rectangle,-16.48046875,-5.9375,1,0,0,-16.48046875,-5.9375,1,0,0,0,9,9,67,1,,,,,,,,
,,,,,,,,,,,,,FF,,,,,,,,1.0004,,,,,,,,,,,,,,,,,,,,,,60ff6156666321187979ea94,610372b6f8c4e38188a34e35,2021-07-30_01h06.19.981,Simcolourproject_2stim_asymm_v5,2020.2.10,MacIntel,60,61025ae37ef11b136ea224fe,,,,,,,,,2408,100.828125,54.94921875,1,0,0,response1disk,,6,11.05859375,3.9296875,1,0,0,rectangle,-84.890625,-48.1171875,1,0,0,4.52734375,1.20703125,1,0,0,0,10,10,45,1,,response5disk_3,TRUE,2,2,"[275,215,295,173,91,276,78,317,11,21,229,128,312,152,11,14,31,152,180,112]",2.1668,rectangle
,,,,,,,,,,,,,FF,,,,,,,,1.5166,,,,,,,,,,,,,,,,,,,,,,60ff6156666321187979ea94,610372b6f8c4e38188a34e35,2021-07-30_01h06.19.981,Simcolourproject_2stim_asymm_v5,2020.2.10,MacIntel,60,61025ae37ef11b136ea224fe,,,,,,,,,1470,-44.9921875,-86.80078125,1,0,0,response5disk,,3,10.05859375,0.94921875,1,0,0,rectangle,10.05859375,0.94921875,1,0,0,10.05859375,0.94921875,1,0,0,0,11,11,27,1,,,,,,,,
,,,,,,,,,,,,,FF,,,,,,,,1.6333,,,,,,,,,,,,,,,,,,,,,,60ff6156666321187979ea94,610372b6f8c4e38188a34e35,2021-07-30_01h06.19.981,Simcolourproject_2stim_asymm_v5,2020.2.10,MacIntel,60,61025ae37ef11b136ea224fe,,,,,,,,,2644,49.78125,79.73828125,1,0,0,response1disk,,7,-2.90625,-13.80078125,1,0,0,rectangle,-2.90625,-13.80078125,1,0,0,-2.90625,-13.80078125,1,0,0,0,12,12,156,1,,,,,,,,
,,,,,,,,,,,,,FF,,,,,,,,1.0816,,,,,,,,,,,,,,,,,,,,,,60ff6156666321187979ea94,610372b6f8c4e38188a34e35,2021-07-30_01h06.19.981,Simcolourproject_2stim_asymm_v5,2020.2.10,MacIntel,60,61025ae37ef11b136ea224fe,,,,,,,,,711,49.5859375,77.28515625,1,0,0,response1disk,,7,5.66796875,-7.69921875,1,0,0,rectangle,-94.5078125,42.83984375,1,0,0,16.15234375,-5.24609375,1,0,0,0,13,13,80,1,,response7disk_3,TRUE,1,1,"[275,215,295,173,91,276,78,317,11,21,229,128,312,152,11,14,31,152,180,112]",1.6679,rectangle
,,,,,,,,,,,,,FF,,,,,,,,1.617,,,,,,,,,,,,,,,,,,,,,,60ff6156666321187979ea94,610372b6f8c4e38188a34e35,2021-07-30_01h06.19.981,Simcolourproject_2stim_asymm_v5,2020.2.10,MacIntel,60,61025ae37ef11b136ea224fe,,,,,,,,,3133,72.4296875,99.83203125,1,0,0,response1disk,,7,-5.48828125,2.89453125,1,0,0,rectangle,-5.48828125,2.89453125,1,0,0,-5.48828125,2.89453125,1,0,0,0,14,14,8,1,,,,,,,,
,,,,,,,,,,,,,FF,,,,,,,,0.9181,,,,,,,,,,,,,,,,,,,,,,60ff6156666321187979ea94,610372b6f8c4e38188a34e35,2021-07-30_01h06.19.981,Simcolourproject_2stim_asymm_v5,2020.2.10,MacIntel,60,61025ae37ef11b136ea224fe,,,,,,,,,145,43.24609375,100.3085938,1,0,0,response1disk,,7,3.22265625,5.21875,1,0,0,rectangle,3.22265625,5.21875,1,0,0,3.22265625,5.21875,1,0,0,0,15,15,99,1,,,,,,,,
,,,,,,,,,,,,,FF,,,,,,,,1.0179,,,,,,,,,,,,,,,,,,,,,,60ff6156666321187979ea94,610372b6f8c4e38188a34e35,2021-07-30_01h06.19.981,Simcolourproject_2stim_asymm_v5,2020.2.10,MacIntel,60,61025ae37ef11b136ea224fe,,,,,,,,,1766,-42.9453125,-76.12890625,1,0,0,response5disk,,3,-10.609375,-8.9453125,1,0,0,rectangle,-10.609375,-8.9453125,1,0,0,-10.609375,-8.9453125,1,0,0,0,16,16,100,1,,,,,,,,
,,,,,,,,,,,,,FF,,,,,,,,3.8664,,,,,,,,,,,,,,,,,,,,,,60ff6156666321187979ea94,610372b6f8c4e38188a34e35,2021-07-30_01h06.19.981,Simcolourproject_2stim_asymm_v5,2020.2.10,MacIntel,60,61025ae37ef11b136ea224fe,,,,,,,,,2032,-68.6328125,44.2578125,1,0,0,response7disk,,1,-9.359375,-0.84375,1,0,0,rectangle,-9.359375,-0.84375,1,0,0,-9.359375,-0.84375,1,0,0,0,17,17,116,1,,,,,,,,
,,,,,,,,,,,,,FF,,,,,,,,1.3495,,,,,,,,,,,,,,,,,,,,,,60ff6156666321187979ea94,610372b6f8c4e38188a34e35,2021-07-30_01h06.19.981,Simcolourproject_2stim_asymm_v5,2020.2.10,MacIntel,60,61025ae37ef11b136ea224fe,,,,,,,,,789,44.84375,-82.140625,1,0,0,response3disk,,4,8.2734375,8.4296875,1,0,0,rectangle,8.2734375,8.4296875,1,0,0,8.2734375,8.4296875,1,0,0,0,18,18,70,1,,,,,,,,
,,,,,,,,,,,,,FF,,,,,,,,1.2676,,,,,,,,,,,,,,,,,,,,,,60ff6156666321187979ea94,610372b6f8c4e38188a34e35,2021-07-30_01h06.19.981,Simcolourproject_2stim_asymm_v5,2020.2.10,MacIntel,60,61025ae37ef11b136ea224fe,,,,,,,,,1732,68.99609375,89.05859375,1,0,0,response1disk,,7,14.8671875,11.08984375,1,0,0,rectangle,14.8671875,11.08984375,1,0,0,14.8671875,11.08984375,1,0,0,0,19,19,150,1,,,,,,,,
,,,,,,,,,,,,,FF,,,,,,,,0.8001,,,,,,,,,,,,,,,,,,,,,,60ff6156666321187979ea94,610372b6f8c4e38188a34e35,2021-07-30_01h06.19.981,Simcolourproject_2stim_asymm_v5,2020.2.10,MacIntel,60,61025ae37ef11b136ea224fe,,,,,,,,,1436,42.00390625,73.08203125,1,0,0,response1disk,,7,3.38671875,3.57421875,1,0,0,rectangle,-83.93359375,30.0234375,1,0,0,-4.80078125,-7.8046875,1,0,0,0,20,20,105,1,,response7disk_3,TRUE,1,1,"[275,215,295,173,91,276,78,317,11,21,229,128,312,152,11,14,31,152,180,112]",2.1658,rectangle
,,,,,,,,,,,,,FF,,,,,,,,1.5846,,,,,,,,,,,,,,,,,,,,,,60ff6156666321187979ea94,610372b6f8c4e38188a34e35,2021-07-30_01h06.19.981,Simcolourproject_2stim_asymm_v5,2020.2.10,MacIntel,60,61025ae37ef11b136ea224fe,,,,,,,,,4244,65.59765625,96.05859375,1,0,0,response1disk,,7,-3.27734375,-5.1015625,1,0,0,rectangle,-3.27734375,-5.1015625,1,0,0,-3.27734375,-5.1015625,1,0,0,0,21,21,119,1,,,,,,,,
,,,,,,,,,,,,,FF,,,,,,,,2.9178,,,,,,,,,,,,,,,,,,,,,,60ff6156666321187979ea94,610372b6f8c4e38188a34e35,2021-07-30_01h06.19.981,Simcolourproject_2stim_asymm_v5,2020.2.10,MacIntel,60,61025ae37ef11b136ea224fe,,,,,,,,,1221,-60.2265625,-37.2890625,1,0,0,response5disk,,2,-0.91015625,-5.046875,1,0,0,rectangle,-0.91015625,-5.046875,1,0,0,-0.91015625,-5.046875,1,0,0,0,22,22,72,1,,,,,,,,
,,,,,,,,,,,,,FF,,,,,,,,0.9822,,,,,,,,,,,,,,,,,,,,,,60ff6156666321187979ea94,610372b6f8c4e38188a34e35,2021-07-30_01h06.19.981,Simcolourproject_2stim_asymm_v5,2020.2.10,MacIntel,60,61025ae37ef11b136ea224fe,,,,,,,,,1994,64.25390625,126.5,1,0,0,response1disk,,7,1.3046875,-4.20703125,1,0,0,rectangle,1.3046875,-4.20703125,1,0,0,1.3046875,-4.20703125,1,0,0,0,23,23,101,1,,,,,,,,
,,,,,,,,,,,,,FF,,,,,,,,1.0669,,,,,,,,,,,,,,,,,,,,,,60ff6156666321187979ea94,610372b6f8c4e38188a34e35,2021-07-30_01h06.19.981,Simcolourproject_2stim_asymm_v5,2020.2.10,MacIntel,60,61025ae37ef11b136ea224fe,,,,,,,,,4277,44.8515625,66.14453125,1,0,0,response1disk,,7,-8.3359375,-8.265625,1,0,0,rectangle,-8.3359375,-8.265625,1,0,0,-8.3359375,-8.265625,1,0,0,0,24,24,133,1,,,,,,,,
,,,,,,,,,,,,,FF,,,,,,,,0.884,,,,,,,,,,,,,,,,,,,,,,60ff6156666321187979ea94,610372b6f8c4e38188a34e35,2021-07-30_01h06.19.981,Simcolourproject_2stim_asymm_v5,2020.2.10,MacIntel,60,61025ae37ef11b136ea224fe,,,,,,,,,3280,42.51171875,79.66015625,1,0,0,response1disk,,7,-3.01953125,-3.62109375,1,0,0,rectangle,-3.01953125,-3.62109375,1,0,0,-3.01953125,-3.62109375,1,0,0,0,25,25,17,1,,,,,,,,
,,,,,,,,,,,,,FF,,,,,,,,2.7166,,,,,,,,,,,,,,,,,,,,,,60ff6156666321187979ea94,610372b6f8c4e38188a34e35,2021-07-30_01h06.19.981,Simcolourproject_2stim_asymm_v5,2020.2.10,MacIntel,60,61025ae37ef11b136ea224fe,,,,,,,,,3851,30.30859375,58.09375,1,0,0,response1disk,,7,-2.1953125,-4.83984375,1,0,0,rectangle,-2.1953125,-4.83984375,1,0,0,-2.1953125,-4.83984375,1,0,0,0,26,26,41,1,,,,,,,,
,,,,,,,,,,,,,FF,,,,,,,,2.6338,,,,,,,,,,,,,,,,,,,,,,60ff6156666321187979ea94,610372b6f8c4e38188a34e35,2021-07-30_01h06.19.981,Simcolourproject_2stim_asymm_v5,2020.2.10,MacIntel,60,61025ae37ef11b136ea224fe,,,,,,,,,1973,-72.2734375,-43.46484375,1,0,0,response5disk,,2,-2.6171875,-5.7890625,1,0,0,rectangle,-2.6171875,-5.7890625,1,0,0,-2.6171875,-5.7890625,1,0,0,0,27,27,16,1,,,,,,,,
,,,,,,,,,,,,,FF,,,,,,,,0.8982,,,,,,,,,,,,,,,,,,,,,,60ff6156666321187979ea94,610372b6f8c4e38188a34e35,2021-07-30_01h06.19.981,Simcolourproject_2stim_asymm_v5,2020.2.10,MacIntel,60,61025ae37ef11b136ea224fe,,,,,,,,,3667,41.26953125,80.36328125,1,0,0,response1disk,,7,11.72265625,2.96484375,1,0,0,rectangle,11.72265625,2.96484375,1,0,0,11.72265625,2.96484375,1,0,0,0,28,28,88,1,,,,,,,,
,,,,,,,,,,,,,FF,,,,,,,,0.9335,,,,,,,,,,,,,,,,,,,,,,60ff6156666321187979ea94,610372b6f8c4e38188a34e35,2021-07-30_01h06.19.981,Simcolourproject_2stim_asymm_v5,2020.2.10,MacIntel,60,61025ae37ef11b136ea224fe,,,,,,,,,1793,44.91015625,82.53515625,1,0,0,response1disk,,7,14.4765625,3.7109375,1,0,0,rectangle,14.4765625,3.7109375,1,0,0,14.4765625,3.7109375,1,0,0,0,29,29,91,1,,,,,,,,
,,,,,,,,,,,,,FF,,,,,,,,0.8673,,,,,,,,,,,,,,,,,,,,,,60ff6156666321187979ea94,610372b6f8c4e38188a34e35,2021-07-30_01h06.19.981,Simcolourproject_2stim_asymm_v5,2020.2.10,MacIntel,60,61025ae37ef11b136ea224fe,,,,,,,,,1668,49.43359375,90.51171875,1,0,0,response1disk,,7,0.89453125,-10.03125,1,0,0,rectangle,85.64453125,-43.4296875,1,0,0,1.5390625,-6.29296875,1,0,0,0,30,30,109,1,,response3disk_3,TRUE,5,5,"[275,215,295,173,91,276,78,317,11,21,229,128,312,152,11,14,31,152,180,112]",1.5177,rectangle
,,,,,,,,,,,,,FF,,,,,,,,2.5171,,,,,,,,,,,,,,,,,,,,,,60ff6156666321187979ea94,610372b6f8c4e38188a34e35,2021-07-30_01h06.19.981,Simcolourproject_2stim_asymm_v5,2020.2.10,MacIntel,60,61025ae37ef11b136ea224fe,,,,,,,,,2768,-43.14453125,-83.24609375,1,0,0,response5disk,,3,0.58203125,1.14453125,1,0,0,rectangle,0.58203125,1.14453125,1,0,0,0.58203125,1.14453125,1,0,0,0,31,31,92,1,,,,,,,,
,,,,,,,,,,,,,FF,,,,,,,,4.0342,,,,,,,,,,,,,,,,,,,,,,60ff6156666321187979ea94,610372b6f8c4e38188a34e35,2021-07-30_01h06.19.981,Simcolourproject_2stim_asymm_v5,2020.2.10,MacIntel,60,61025ae37ef11b136ea224fe,,,,,,,,,3981,-52.66015625,-83.4375,1,0,0,response5disk,,3,-0.12109375,1.25390625,1,0,0,rectangle,-0.12109375,1.25390625,1,0,0,-0.12109375,1.25390625,1,0,0,0,32,32,124,1,,,,,,,,
,,,,,,,,,,,,,FF,,,,,,,,0.8965,,,,,,,,,,,,,,,,,,,,,,60ff6156666321187979ea94,610372b6f8c4e38188a34e35,2021-07-30_01h06.19.981,Simcolourproject_2stim_asymm_v5,2020.2.10,MacIntel,60,61025ae37ef11b136ea224fe,,,,,,,,,3018,37.4375,66.86328125,1,0,0,response1disk,,7,-2.625,-4.71875,1,0,0,rectangle,-2.625,-4.71875,1,0,0,-2.625,-4.71875,1,0,0,0,33,33,29,1,,,,,,,,
,,,,,,,,,,,,,FF,,,,,,,,1.4513,,,,,,,,,,,,,,,,,,,,,,60ff6156666321187979ea94,610372b6f8c4e38188a34e35,2021-07-30_01h06.19.981,Simcolourproject_2stim_asymm_v5,2020.2.10,MacIntel,60,61025ae37ef11b136ea224fe,,,,,,,,,1701,93.40625,-35.09765625,1,0,0,response3disk,,5,0.2734375,-6.37109375,1,0,0,rectangle,0.2734375,-6.37109375,1,0,0,0.2734375,-6.37109375,1,0,0,0,34,34,93,1,,,,,,,,
,,,,,,,,,,,,,FF,,,,,,,,1.8004,,,,,,,,,,,,,,,,,,,,,,60ff6156666321187979ea94,610372b6f8c4e38188a34e35,2021-07-30_01h06.19.981,Simcolourproject_2stim_asymm_v5,2020.2.10,MacIntel,60,61025ae37ef11b136ea224fe,,,,,,,,,3484,35.21484375,-100.3085938,1,0,0,response3disk,,4,8.65625,1.11328125,1,0,0,rectangle,8.65625,1.11328125,1,0,0,8.65625,1.11328125,1,0,0,0,35,35,34,1,,,,,,,,
,,,,,,,,,,,,,FF,,,,,,,,1.1837,,,,,,,,,,,,,,,,,,,,,,60ff6156666321187979ea94,610372b6f8c4e38188a34e35,2021-07-30_01h06.19.981,Simcolourproject_2stim_asymm_v5,2020.2.10,MacIntel,60,61025ae37ef11b136ea224fe,,,,,,,,,1574,57.3203125,74.671875,1,0,0,response1disk,,7,1.515625,-17.87109375,1,0,0,rectangle,1.515625,-17.87109375,1,0,0,1.515625,-17.87109375,1,0,0,0,36,36,120,1,,,,,,,,
,,,,,,,,,,,,,FF,,,,,,,,2.7994,,,,,,,,,,,,,,,,,,,,,,60ff6156666321187979ea94,610372b6f8c4e38188a34e35,2021-07-30_01h06.19.981,Simcolourproject_2stim_asymm_v5,2020.2.10,MacIntel,60,61025ae37ef11b136ea224fe,,,,,,,,,1306,-55.5625,-74.30078125,1,0,0,response5disk,,3,-18.8984375,-17.859375,1,0,0,rectangle,-18.8984375,-17.859375,1,0,0,-18.8984375,-17.859375,1,0,0,0,37,37,103,1,,,,,,,,
,,,,,,,,,,,,,FF,,,,,,,,3.2831,,,,,,,,,,,,,,,,,,,,,,60ff6156666321187979ea94,610372b6f8c4e38188a34e35,2021-07-30_01h06.19.981,Simcolourproject_2stim_asymm_v5,2020.2.10,MacIntel,60,61025ae37ef11b136ea224fe,,,,,,,,,3013,107.0351563,45.15625,1,0,0,response1disk,,6,-4.24609375,-4.0390625,1,0,0,rectangle,-4.24609375,-4.0390625,1,0,0,-4.24609375,-4.0390625,1,0,0,0,38,38,135,1,,,,,,,,
,,,,,,,,,,,,,FF,,,,,,,,0.9983,,,,,,,,,,,,,,,,,,,,,,60ff6156666321187979ea94,610372b6f8c4e38188a34e35,2021-07-30_01h06.19.981,Simcolourproject_2stim_asymm_v5,2020.2.10,MacIntel,60,61025ae37ef11b136ea224fe,,,,,,,,,2803,45,72.08984375,1,0,0,response1disk,,7,8.046875,5.64453125,1,0,0,rectangle,8.046875,5.64453125,1,0,0,8.046875,5.64453125,1,0,0,0,39,39,149,1,,,,,,,,
,,,,,,,,,,,,,FF,,,,,,,,2.7661,,,,,,,,,,,,,,,,,,,,,,60ff6156666321187979ea94,610372b6f8c4e38188a34e35,2021-07-30_01h06.19.981,Simcolourproject_2stim_asymm_v5,2020.2.10,MacIntel,60,61025ae37ef11b136ea224fe,,,,,,,,,1765,-35.5078125,-84.60546875,1,0,0,response5disk,,3,5.83203125,-0.53515625,1,0,0,rectangle,5.83203125,-0.53515625,1,0,0,5.83203125,-0.53515625,1,0,0,0,40,40,66,1,,,,,,,,
,,,,,,,,,,,,,FF,,,,,,,,2.2835,,,,,,,,,,,,,,,,,,,,,,60ff6156666321187979ea94,610372b6f8c4e38188a34e35,2021-07-30_01h06.19.981,Simcolourproject_2stim_asymm_v5,2020.2.10,MacIntel,60,61025ae37ef11b136ea224fe,,,,,,,,,44,98.95703125,26.6015625,1,0,0,response1disk,,6,9.27734375,1.05078125,1,0,0,rectangle,9.27734375,1.05078125,1,0,0,9.27734375,1.05078125,1,0,0,0,41,41,6,1,,,,,,,,
,,,,,,,,,,,,,FF,,,,,,,,2.167,,,,,,,,,,,,,,,,,,,,,,60ff6156666321187979ea94,610372b6f8c4e38188a34e35,2021-07-30_01h06.19.981,Simcolourproject_2stim_asymm_v5,2020.2.10,MacIntel,60,61025ae37ef11b136ea224fe,,,,,,,,,1384,-71.2109375,24.09375,1,0,0,response7disk,,1,-9.7265625,-2.015625,1,0,0,rectangle,-9.7265625,-2.015625,1,0,0,-9.7265625,-2.015625,1,0,0,0,42,42,90,1,,,,,,,,
,,,,,,,,,,,,,FF,,,,,,,,1.9811,,,,,,,,,,,,,,,,,,,,,,60ff6156666321187979ea94,610372b6f8c4e38188a34e35,2021-07-30_01h06.19.981,Simcolourproject_2stim_asymm_v5,2020.2.10,MacIntel,60,61025ae37ef11b136ea224fe,,,,,,,,,2173,-99.859375,-36.48828125,1,0,0,response5disk,,2,-6.71875,-10.33203125,1,0,0,rectangle,-6.71875,-10.33203125,1,0,0,-6.71875,-10.33203125,1,0,0,0,43,43,1,1,,,,,,,,
,,,,,,,,,,,,,FF,,,,,,,,1.1824,,,,,,,,,,,,,,,,,,,,,,60ff6156666321187979ea94,610372b6f8c4e38188a34e35,2021-07-30_01h06.19.981,Simcolourproject_2stim_asymm_v5,2020.2.10,MacIntel,60,61025ae37ef11b136ea224fe,,,,,,,,,282,-56.3671875,-40.69921875,1,0,0,response5disk,,2,-3.15234375,-8.09375,1,0,0,rectangle,-3.15234375,-8.09375,1,0,0,-3.15234375,-8.09375,1,0,0,0,44,44,24,1,,,,,,,,
,,,,,,,,,,,,,FF,,,,,,,,1.0661,,,,,,,,,,,,,,,,,,,,,,60ff6156666321187979ea94,610372b6f8c4e38188a34e35,2021-07-30_01h06.19.981,Simcolourproject_2stim_asymm_v5,2020.2.10,MacIntel,60,61025ae37ef11b136ea224fe,,,,,,,,,4120,-73.703125,33.14453125,1,0,0,response7disk,,1,-5.8515625,-1.33984375,1,0,0,rectangle,-5.8515625,-1.33984375,1,0,0,-5.8515625,-1.33984375,1,0,0,0,45,45,141,1,,,,,,,,
,,,,,,,,,,,,,FF,,,,,,,,1.15,,,,,,,,,,,,,,,,,,,,,,60ff6156666321187979ea94,610372b6f8c4e38188a34e35,2021-07-30_01h06.19.981,Simcolourproject_2stim_asymm_v5,2020.2.10,MacIntel,60,61025ae37ef11b136ea224fe,,,,,,,,,359,56.625,80.3828125,1,0,0,response1disk,,7,5.08203125,3.765625,1,0,0,rectangle,5.08203125,3.765625,1,0,0,5.08203125,3.765625,1,0,0,0,46,46,114,1,,,,,,,,
,,,,,,,,,,,,,FF,,,,,,,,0.9165,,,,,,,,,,,,,,,,,,,,,,60ff6156666321187979ea94,610372b6f8c4e38188a34e35,2021-07-30_01h06.19.981,Simcolourproject_2stim_asymm_v5,2020.2.10,MacIntel,60,61025ae37ef11b136ea224fe,,,,,,,,,3768,31.4296875,58.19140625,1,0,0,response1disk,,7,0.41015625,-1.34765625,1,0,0,rectangle,0.41015625,-1.34765625,1,0,0,0.41015625,-1.34765625,1,0,0,0,47,47,104,1,,,,,,,,
,,,,,,,,,,,,,FF,,,,,,,,2.0664,,,,,,,,,,,,,,,,,,,,,,60ff6156666321187979ea94,610372b6f8c4e38188a34e35,2021-07-30_01h06.19.981,Simcolourproject_2stim_asymm_v5,2020.2.10,MacIntel,60,61025ae37ef11b136ea224fe,,,,,,,,,446,108.6601563,42.390625,1,0,0,response1disk,,6,-1.05859375,-6.78515625,1,0,0,rectangle,-1.05859375,-6.78515625,1,0,0,-1.05859375,-6.78515625,1,0,0,0,48,48,117,1,,,,,,,,
,,,,,,,,,,,,,FF,,,,,,,,2.1007,,,,,,,,,,,,,,,,,,,,,,60ff6156666321187979ea94,610372b6f8c4e38188a34e35,2021-07-30_01h06.19.981,Simcolourproject_2stim_asymm_v5,2020.2.10,MacIntel,60,61025ae37ef11b136ea224fe,,,,,,,,,2294,-60.91796875,33.03515625,1,0,0,response7disk,,1,24.078125,5.55859375,1,0,0,rectangle,24.078125,5.55859375,1,0,0,24.078125,5.55859375,1,0,0,0,49,49,94,1,,,,,,,,
,,,,,,,,,,,,,FF,,,,,,,,3.0176,,,,,,,,,,,,,,,,,,,,,,60ff6156666321187979ea94,610372b6f8c4e38188a34e35,2021-07-30_01h06.19.981,Simcolourproject_2stim_asymm_v5,2020.2.10,MacIntel,60,61025ae37ef11b136ea224fe,,,,,,,,,976,85.89453125,-34.5625,1,0,0,response3disk,,5,5.34375,9.41796875,1,0,0,rectangle,5.34375,9.41796875,1,0,0,5.34375,9.41796875,1,0,0,0,50,50,38,1,,,,,,,,
,,,,,,,,,,,,,FF,,,,,,,,0.9166,,,,,,,,,,,,,,,,,,,,,,60ff6156666321187979ea94,610372b6f8c4e38188a34e35,2021-07-30_01h06.19.981,Simcolourproject_2stim_asymm_v5,2020.2.10,MacIntel,60,61025ae37ef11b136ea224fe,,,,,,,,,2185,49.1953125,75.59375,1,0,0,response1disk,,7,8.6640625,2.23828125,1,0,0,rectangle,8.6640625,2.23828125,1,0,0,8.6640625,2.23828125,1,0,0,0,51,51,134,1,,,,,,,,
,,,,,,,,,,,,,FF,,,,,,,,1.8336,,,,,,,,,,,,,,,,,,,,,,60ff6156666321187979ea94,610372b6f8c4e38188a34e35,2021-07-30_01h06.19.981,Simcolourproject_2stim_asymm_v5,2020.2.10,MacIntel,60,61025ae37ef11b136ea224fe,,,,,,,,,1951,89.96875,41.26171875,1,0,0,response1disk,,6,3.58984375,17.6328125,1,0,0,rectangle,3.58984375,17.6328125,1,0,0,3.58984375,17.6328125,1,0,0,0,52,52,61,1,,,,,,,,
,,,,,,,,,,,,,FF,,,,,,,,4.7034,,,,,,,,,,,,,,,,,,,,,,60ff6156666321187979ea94,610372b6f8c4e38188a34e35,2021-07-30_01h06.19.981,Simcolourproject_2stim_asymm_v5,2020.2.10,MacIntel,60,61025ae37ef11b136ea224fe,,,,,,,,,3925,87.046875,-63.1171875,1,0,0,response3disk,,5,22.98828125,-4.15625,1,0,0,rectangle,22.98828125,-4.15625,1,0,0,22.98828125,-4.15625,1,0,0,0,53,53,83,1,,,,,,,,
,,,,,,,,,,,,,FF,,,,,,,,10.7493,,,,,,,,,,,,,,,,,,,,,,60ff6156666321187979ea94,610372b6f8c4e38188a34e35,2021-07-30_01h06.19.981,Simcolourproject_2stim_asymm_v5,2020.2.10,MacIntel,60,61025ae37ef11b136ea224fe,,,,,,,,,1813,-45.90234375,-92.6796875,1,0,0,response5disk,,3,3.84375,-8.65234375,1,0,0,rectangle,3.84375,-8.65234375,1,0,0,3.84375,-8.65234375,1,0,0,0,54,54,86,1,,,,,,,,
,,,,,,,,,,,,,FF,,,,,,,,1.4007,,,,,,,,,,,,,,,,,,,,,,60ff6156666321187979ea94,610372b6f8c4e38188a34e35,2021-07-30_01h06.19.981,Simcolourproject_2stim_asymm_v5,2020.2.10,MacIntel,60,61025ae37ef11b136ea224fe,,,,,,,,,1508,36.72265625,65.06640625,1,0,0,response1disk,,7,5.84765625,-13.5546875,1,0,0,rectangle,5.84765625,-13.5546875,1,0,0,5.84765625,-13.5546875,1,0,0,0,55,55,19,1,,,,,,,,
,,,,,,,,,,,,,FF,,,,,,,,1.817,,,,,,,,,,,,,,,,,,,,,,60ff6156666321187979ea94,610372b6f8c4e38188a34e35,2021-07-30_01h06.19.981,Simcolourproject_2stim_asymm_v5,2020.2.10,MacIntel,60,61025ae37ef11b136ea224fe,,,,,,,,,3734,29.17578125,-84.37890625,1,0,0,response3disk,,4,-2.23828125,3.3515625,1,0,0,rectangle,-2.23828125,3.3515625,1,0,0,-2.23828125,3.3515625,1,0,0,0,56,56,87,1,,,,,,,,
,,,,,,,,,,,,,FF,,,,,,,,2.2501,,,,,,,,,,,,,,,,,,,,,,60ff6156666321187979ea94,610372b6f8c4e38188a34e35,2021-07-30_01h06.19.981,Simcolourproject_2stim_asymm_v5,2020.2.10,MacIntel,60,61025ae37ef11b136ea224fe,,,,,,,,,559,53.66015625,-88.5546875,1,0,0,response3disk,,4,-3.40234375,8.41015625,1,0,0,rectangle,-3.40234375,8.41015625,1,0,0,-3.40234375,8.41015625,1,0,0,0,57,57,10,1,,,,,,,,
,,,,,,,,,,,,,FF,,,,,,,,3.8323,,,,,,,,,,,,,,,,,,,,,,60ff6156666321187979ea94,610372b6f8c4e38188a34e35,2021-07-30_01h06.19.981,Simcolourproject_2stim_asymm_v5,2020.2.10,MacIntel,60,61025ae37ef11b136ea224fe,,,,,,,,,3282,-80.69921875,39.33203125,1,0,0,response7disk,,1,-10.0703125,-0.546875,1,0,0,rectangle,-10.0703125,-0.546875,1,0,0,-10.0703125,-0.546875,1,0,0,0,58,58,18,1,,,,,,,,
,,,,,,,,,,,,,FF,,,,,,,,2.2825,,,,,,,,,,,,,,,,,,,,,,60ff6156666321187979ea94,610372b6f8c4e38188a34e35,2021-07-30_01h06.19.981,Simcolourproject_2stim_asymm_v5,2020.2.10,MacIntel,60,61025ae37ef11b136ea224fe,,,,,,,,,1002,88.3203125,30.125,1,0,0,response1disk,,6,17.9765625,-0.5625,1,0,0,rectangle,17.9765625,-0.5625,1,0,0,17.9765625,-0.5625,1,0,0,0,59,59,118,1,,,,,,,,
,,,,,,,,,,,,,FF,,,,,,,,2.2981,,,,,,,,,,,,,,,,,,,,,,60ff6156666321187979ea94,610372b6f8c4e38188a34e35,2021-07-30_01h06.19.981,Simcolourproject_2stim_asymm_v5,2020.2.10,MacIntel,60,61025ae37ef11b136ea224fe,,,,,,,,,3026,37.875,-72.1484375,1,0,0,response3disk,,4,-2.6484375,-14.875,1,0,0,rectangle,-2.6484375,-14.875,1,0,0,-2.6484375,-14.875,1,0,0,0,60,60,123,1,,,,,,,,
,,,,,,,,,,,,,FF,,,,,,,,3.2001,,,,,,,,,,,,,,,,,,,,,,60ff6156666321187979ea94,610372b6f8c4e38188a34e35,2021-07-30_01h06.19.981,Simcolourproject_2stim_asymm_v5,2020.2.10,MacIntel,60,61025ae37ef11b136ea224fe,,,,,,,,,2017,43.03125,-86.0234375,1,0,0,response3disk,,4,2.2578125,-9.52734375,1,0,0,rectangle,2.2578125,-9.52734375,1,0,0,2.2578125,-9.52734375,1,0,0,0,61,61,51,1,,,,,,,,
,,,,,,,,,,,,,FF,,,,,,,,1.4673,,,,,,,,,,,,,,,,,,,,,,60ff6156666321187979ea94,610372b6f8c4e38188a34e35,2021-07-30_01h06.19.981,Simcolourproject_2stim_asymm_v5,2020.2.10,MacIntel,60,61025ae37ef11b136ea224fe,,,,,,,,,735,98.2890625,45.640625,1,0,0,response1disk,,6,15.01953125,-11.23828125,1,0,0,rectangle,15.01953125,-11.23828125,1,0,0,15.01953125,-11.23828125,1,0,0,0,62,62,48,1,,,,,,,,
,,,,,,,,,,,,,FF,,,,,,,,2.6499,,,,,,,,,,,,,,,,,,,,,,60ff6156666321187979ea94,610372b6f8c4e38188a34e35,2021-07-30_01h06.19.981,Simcolourproject_2stim_asymm_v5,2020.2.10,MacIntel,60,61025ae37ef11b136ea224fe,,,,,,,,,46,32.58203125,64.3359375,1,0,0,response1disk,,7,21.890625,-0.87109375,1,0,0,rectangle,21.890625,-0.87109375,1,0,0,21.890625,-0.87109375,1,0,0,0,63,63,4,1,,,,,,,,
,,,,,,,,,,,,,FF,,,,,,,,2.5002,,,,,,,,,,,,,,,,,,,,,,60ff6156666321187979ea94,610372b6f8c4e38188a34e35,2021-07-30_01h06.19.981,Simcolourproject_2stim_asymm_v5,2020.2.10,MacIntel,60,61025ae37ef11b136ea224fe,,,,,,,,,1227,-36.97265625,-88.94140625,1,0,0,response5disk,,3,14.28125,-4.0390625,1,0,0,rectangle,14.28125,-4.0390625,1,0,0,14.28125,-4.0390625,1,0,0,0,64,64,98,1,,,,,,,,
,,,,,,,,,,,,,FF,,,,,,,,2.1512,,,,,,,,,,,,,,,,,,,,,,60ff6156666321187979ea94,610372b6f8c4e38188a34e35,2021-07-30_01h06.19.981,Simcolourproject_2stim_asymm_v5,2020.2.10,MacIntel,60,61025ae37ef11b136ea224fe,,,,,,,,,1316,51.19140625,77.80859375,1,0,0,response1disk,,7,19.64453125,3.703125,1,0,0,rectangle,19.64453125,3.703125,1,0,0,19.64453125,3.703125,1,0,0,0,65,65,85,1,,,,,,,,
,,,,,,,,,,,,,FF,,,,,,,,1.8653,,,,,,,,,,,,,,,,,,,,,,60ff6156666321187979ea94,610372b6f8c4e38188a34e35,2021-07-30_01h06.19.981,Simcolourproject_2stim_asymm_v5,2020.2.10,MacIntel,60,61025ae37ef11b136ea224fe,,,,,,,,,3772,46.16796875,-84.72265625,1,0,0,response3disk,,4,-11.39453125,-5.34765625,1,0,0,rectangle,-11.39453125,-5.34765625,1,0,0,-11.39453125,-5.34765625,1,0,0,0,66,66,53,1,,,,,,,,
,,,,,,,,,,,,,FF,,,,,,,,1.5666,,,,,,,,,,,,,,,,,,,,,,60ff6156666321187979ea94,610372b6f8c4e38188a34e35,2021-07-30_01h06.19.981,Simcolourproject_2stim_asymm_v5,2020.2.10,MacIntel,60,61025ae37ef11b136ea224fe,,,,,,,,,8,-52.57421875,-75.05078125,1,0,0,response5disk,,3,3.35546875,-6.70703125,1,0,0,rectangle,3.35546875,-6.70703125,1,0,0,3.35546875,-6.70703125,1,0,0,0,67,67,121,1,,,,,,,,
,,,,,,,,,,,,,FF,,,,,,,,2.4023,,,,,,,,,,,,,,,,,,,,,,60ff6156666321187979ea94,610372b6f8c4e38188a34e35,2021-07-30_01h06.19.981,Simcolourproject_2stim_asymm_v5,2020.2.10,MacIntel,60,61025ae37ef11b136ea224fe,,,,,,,,,1402,41.65234375,99.6484375,1,0,0,response1disk,,7,11.6640625,5.8046875,1,0,0,rectangle,11.6640625,5.8046875,1,0,0,11.6640625,5.8046875,1,0,0,0,68,68,23,1,,,,,,,,
,,,,,,,,,,,,,FF,,,,,,,,1.8173,,,,,,,,,,,,,,,,,,,,,,60ff6156666321187979ea94,610372b6f8c4e38188a34e35,2021-07-30_01h06.19.981,Simcolourproject_2stim_asymm_v5,2020.2.10,MacIntel,60,61025ae37ef11b136ea224fe,,,,,,,,,3800,53.65625,-86.875,1,0,0,response3disk,,4,9.81640625,-15.296875,1,0,0,rectangle,9.81640625,-15.296875,1,0,0,9.81640625,-15.296875,1,0,0,0,69,69,5,1,,,,,,,,
,,,,,,,,,,,,,FF,,,,,,,,1.7336,,,,,,,,,,,,,,,,,,,,,,60ff6156666321187979ea94,610372b6f8c4e38188a34e35,2021-07-30_01h06.19.981,Simcolourproject_2stim_asymm_v5,2020.2.10,MacIntel,60,61025ae37ef11b136ea224fe,,,,,,,,,2778,-93.62109375,-42.94921875,1,0,0,response5disk,,2,-7.6953125,-3.0859375,1,0,0,rectangle,-7.6953125,-3.0859375,1,0,0,-7.6953125,-3.0859375,1,0,0,0,70,70,31,1,,,,,,,,
,,,,,,,,,,,,,FF,,,,,,,,2.8163,,,,,,,,,,,,,,,,,,,,,,60ff6156666321187979ea94,610372b6f8c4e38188a34e35,2021-07-30_01h06.19.981,Simcolourproject_2stim_asymm_v5,2020.2.10,MacIntel,60,61025ae37ef11b136ea224fe,,,,,,,,,3992,101.6875,52.11328125,1,0,0,response1disk,,6,33.265625,3.75390625,1,0,0,rectangle,33.265625,3.75390625,1,0,0,33.265625,3.75390625,1,0,0,0,71,71,32,1,,,,,,,,
,,,,,,,,,,,,,FF,,,,,,,,0.9511,,,,,,,,,,,,,,,,,,,,,,60ff6156666321187979ea94,610372b6f8c4e38188a34e35,2021-07-30_01h06.19.981,Simcolourproject_2stim_asymm_v5,2020.2.10,MacIntel,60,61025ae37ef11b136ea224fe,,,,,,,,,3352,51.3046875,72.18359375,1,0,0,response1disk,,7,16.3203125,6.203125,1,0,0,rectangle,16.3203125,6.203125,1,0,0,16.3203125,6.203125,1,0,0,0,72,72,13,1,,,,,,,,
,,,,,,,,,,,,,FF,,,,,,,,1.5997,,,,,,,,,,,,,,,,,,,,,,60ff6156666321187979ea94,610372b6f8c4e38188a34e35,2021-07-30_01h06.19.981,Simcolourproject_2stim_asymm_v5,2020.2.10,MacIntel,60,61025ae37ef11b136ea224fe,,,,,,,,,3583,-80.9140625,-59.50390625,1,0,0,response5disk,,2,-15.87109375,-10.82421875,1,0,0,rectangle,-15.87109375,-10.82421875,1,0,0,-15.87109375,-10.82421875,1,0,0,0,73,73,159,1,,,,,,,,
,,,,,,,,,,,,,FF,,,,,,,,1.1513,,,,,,,,,,,,,,,,,,,,,,60ff6156666321187979ea94,610372b6f8c4e38188a34e35,2021-07-30_01h06.19.981,Simcolourproject_2stim_asymm_v5,2020.2.10,MacIntel,60,61025ae37ef11b136ea224fe,,,,,,,,,3678,-76.984375,-31.7265625,1,0,0,response5disk,,2,-8.9765625,-11.30859375,1,0,0,rectangle,-8.9765625,-11.30859375,1,0,0,-8.9765625,-11.30859375,1,0,0,0,74,74,69,1,,,,,,,,
,,,,,,,,,,,,,FF,,,,,,,,4.7693,,,,,,,,,,,,,,,,,,,,,,60ff6156666321187979ea94,610372b6f8c4e38188a34e35,2021-07-30_01h06.19.981,Simcolourproject_2stim_asymm_v5,2020.2.10,MacIntel,60,61025ae37ef11b136ea224fe,,,,,,,,,577,98.46484375,-24.109375,1,0,0,response3disk,,5,10.71484375,6.54296875,1,0,0,rectangle,10.71484375,6.54296875,1,0,0,10.71484375,6.54296875,1,0,0,0,75,75,50,1,,,,,,,,
,,,,,,,,,,,,,FF,,,,,,,,0.8165,,,,,,,,,,,,,,,,,,,,,,60ff6156666321187979ea94,610372b6f8c4e38188a34e35,2021-07-30_01h06.19.981,Simcolourproject_2stim_asymm_v5,2020.2.10,MacIntel,60,61025ae37ef11b136ea224fe,,,,,,,,,3032,37.26171875,76.015625,1,0,0,response1disk,,7,5.67578125,5.296875,1,0,0,rectangle,5.67578125,5.296875,1,0,0,5.67578125,5.296875,1,0,0,0,76,76,21,1,,,,,,,,
,,,,,,,,,,,,,FF,,,,,,,,1.6347,,,,,,,,,,,,,,,,,,,,,,60ff6156666321187979ea94,610372b6f8c4e38188a34e35,2021-07-30_01h06.19.981,Simcolourproject_2stim_asymm_v5,2020.2.10,MacIntel,60,61025ae37ef11b136ea224fe,,,,,,,,,3708,-73.7890625,-43.234375,1,0,0,response5disk,,2,-1.35546875,-3.1875,1,0,0,rectangle,97.53125,-36.796875,1,0,0,23.39453125,-9.29296875,1,0,0,0,77,77,139,1,,response3disk_3,TRUE,5,5,"[275,215,295,173,91,276,78,317,11,21,229,128,312,152,11,14,31,152,180,112]",1.4839,rectangle
,,,,,,,,,,,,,FF,,,,,,,,1.9665,,,,,,,,,,,,,,,,,,,,,,60ff6156666321187979ea94,610372b6f8c4e38188a34e35,2021-07-30_01h06.19.981,Simcolourproject_2stim_asymm_v5,2020.2.10,MacIntel,60,61025ae37ef11b136ea224fe,,,,,,,,,379,-33.95703125,-88.01171875,1,0,0,response5disk,,3,-0.41796875,-2.2265625,1,0,0,rectangle,-0.41796875,-2.2265625,1,0,0,-0.41796875,-2.2265625,1,0,0,0,78,78,47,1,,,,,,,,
,,,,,,,,,,,,,FF,,,,,,,,1.0831,,,,,,,,,,,,,,,,,,,,,,60ff6156666321187979ea94,610372b6f8c4e38188a34e35,2021-07-30_01h06.19.981,Simcolourproject_2stim_asymm_v5,2020.2.10,MacIntel,60,61025ae37ef11b136ea224fe,,,,,,,,,3875,-20.3203125,68.68359375,1,0,0,response7disk,,0,4.55078125,-2.93359375,1,0,0,rectangle,4.55078125,-2.93359375,1,0,0,4.55078125,-2.93359375,1,0,0,0,79,79,59,1,,,,,,,,
,,,,,,,,,,,,,FF,,,,,,,,2.3836,,,,,,,,,,,,,,,,,,,,,,60ff6156666321187979ea94,610372b6f8c4e38188a34e35,2021-07-30_01h06.19.981,Simcolourproject_2stim_asymm_v5,2020.2.10,MacIntel,60,61025ae37ef11b136ea224fe,,,,,,,,,3422,101.3789063,37.84375,1,0,0,response1disk,,6,12.37109375,-0.64453125,1,0,0,rectangle,12.37109375,-0.64453125,1,0,0,12.37109375,-0.64453125,1,0,0,0,80,80,46,1,,,,,,,,
,,,,,,,,,,,,,FF,,,,,,,,1.1211,,,,,,,,,,,,,,,,,,,,,,60ff6156666321187979ea94,610372b6f8c4e38188a34e35,2021-07-30_01h06.19.981,Simcolourproject_2stim_asymm_v5,2020.2.10,MacIntel,60,61025ae37ef11b136ea224fe,,,,,,,,,920,33.6015625,64.57421875,1,0,0,response1disk,,7,4.47265625,3.1484375,1,0,0,rectangle,4.47265625,3.1484375,1,0,0,4.47265625,3.1484375,1,0,0,0,81,81,147,1,,,,,,,,
,,,,,,,,,,,,,FF,,,,,,,,1.2836,,,,,,,,,,,,,,,,,,,,,,60ff6156666321187979ea94,610372b6f8c4e38188a34e35,2021-07-30_01h06.19.981,Simcolourproject_2stim_asymm_v5,2020.2.10,MacIntel,60,61025ae37ef11b136ea224fe,,,,,,,,,3070,34.09765625,61.34375,1,0,0,response1disk,,7,5.4921875,-10.71875,1,0,0,rectangle,5.4921875,-10.71875,1,0,0,5.4921875,-10.71875,1,0,0,0,82,82,107,1,,,,,,,,
,,,,,,,,,,,,,FF,,,,,,,,1.1348,,,,,,,,,,,,,,,,,,,,,,60ff6156666321187979ea94,610372b6f8c4e38188a34e35,2021-07-30_01h06.19.981,Simcolourproject_2stim_asymm_v5,2020.2.10,MacIntel,60,61025ae37ef11b136ea224fe,,,,,,,,,1977,47.25390625,-78.234375,1,0,0,response3disk,,4,10.46875,2.42578125,1,0,0,rectangle,10.46875,2.42578125,1,0,0,10.46875,2.42578125,1,0,0,0,83,83,15,1,,,,,,,,
,,,,,,,,,,,,,FF,,,,,,,,1.1502,,,,,,,,,,,,,,,,,,,,,,60ff6156666321187979ea94,610372b6f8c4e38188a34e35,2021-07-30_01h06.19.981,Simcolourproject_2stim_asymm_v5,2020.2.10,MacIntel,60,61025ae37ef11b136ea224fe,,,,,,,,,2418,-23.68359375,85.53515625,1,0,0,response7disk,,0,9.2265625,1.03515625,1,0,0,rectangle,9.2265625,1.03515625,1,0,0,9.2265625,1.03515625,1,0,0,0,84,84,12,1,,,,,,,,
,,,,,,,,,,,,,FF,,,,,,,,1.5834,,,,,,,,,,,,,,,,,,,,,,60ff6156666321187979ea94,610372b6f8c4e38188a34e35,2021-07-30_01h06.19.981,Simcolourproject_2stim_asymm_v5,2020.2.10,MacIntel,60,61025ae37ef11b136ea224fe,,,,,,,,,1980,74.0625,-41.94921875,1,0,0,response3disk,,5,8.52734375,-10.40625,1,0,0,rectangle,8.52734375,-10.40625,1,0,0,8.52734375,-10.40625,1,0,0,0,85,85,28,1,,,,,,,,
,,,,,,,,,,,,,FF,,,,,,,,1.171,,,,,,,,,,,,,,,,,,,,,,60ff6156666321187979ea94,610372b6f8c4e38188a34e35,2021-07-30_01h06.19.981,Simcolourproject_2stim_asymm_v5,2020.2.10,MacIntel,60,61025ae37ef11b136ea224fe,,,,,,,,,188,-82.20703125,-39.30078125,1,0,0,response5disk,,2,-3.9921875,-13.90234375,1,0,0,rectangle,-3.9921875,-13.90234375,1,0,0,-3.9921875,-13.90234375,1,0,0,0,86,86,44,1,,,,,,,,
,,,,,,,,,,,,,FF,,,,,,,,0.9835,,,,,,,,,,,,,,,,,,,,,,60ff6156666321187979ea94,610372b6f8c4e38188a34e35,2021-07-30_01h06.19.981,Simcolourproject_2stim_asymm_v5,2020.2.10,MacIntel,60,61025ae37ef11b136ea224fe,,,,,,,,,680,95.328125,47.23046875,1,0,0,response1disk,,6,10.0859375,0.12890625,1,0,0,rectangle,10.0859375,0.12890625,1,0,0,10.0859375,0.12890625,1,0,0,0,87,87,158,1,,,,,,,,
,,,,,,,,,,,,,FF,,,,,,,,0.8008,,,,,,,,,,,,,,,,,,,,,,60ff6156666321187979ea94,610372b6f8c4e38188a34e35,2021-07-30_01h06.19.981,Simcolourproject_2stim_asymm_v5,2020.2.10,MacIntel,60,61025ae37ef11b136ea224fe,,,,,,,,,918,38.46875,70.22265625,1,0,0,response1disk,,7,6.71875,1.734375,1,0,0,rectangle,6.71875,1.734375,1,0,0,6.71875,1.734375,1,0,0,0,88,88,143,1,,,,,,,,
,,,,,,,,,,,,,FF,,,,,,,,1.2834,,,,,,,,,,,,,,,,,,,,,,60ff6156666321187979ea94,610372b6f8c4e38188a34e35,2021-07-30_01h06.19.981,Simcolourproject_2stim_asymm_v5,2020.2.10,MacIntel,60,61025ae37ef11b136ea224fe,,,,,,,,,636,-45.93359375,-84.52734375,1,0,0,response5disk,,3,-2.15625,-5.94140625,1,0,0,rectangle,-2.15625,-5.94140625,1,0,0,-2.15625,-5.94140625,1,0,0,0,89,89,154,1,,,,,,,,
,,,,,,,,,,,,,FF,,,,,,,,0.9175,,,,,,,,,,,,,,,,,,,,,,60ff6156666321187979ea94,610372b6f8c4e38188a34e35,2021-07-30_01h06.19.981,Simcolourproject_2stim_asymm_v5,2020.2.10,MacIntel,60,61025ae37ef11b136ea224fe,,,,,,,,,2494,-45.07421875,-86.42578125,1,0,0,response5disk,,3,-0.7265625,-14.109375,1,0,0,rectangle,-94.33203125,48.29296875,1,0,0,-5.2109375,-1.4453125,1,0,0,0,90,90,33,1,,response7disk_3,TRUE,1,1,"[275,215,295,173,91,276,78,317,11,21,229,128,312,152,11,14,31,152,180,112]",2.019,rectangle
,,,,,,,,,,,,,FF,,,,,,,,0.9001,,,,,,,,,,,,,,,,,,,,,,60ff6156666321187979ea94,610372b6f8c4e38188a34e35,2021-07-30_01h06.19.981,Simcolourproject_2stim_asymm_v5,2020.2.10,MacIntel,60,61025ae37ef11b136ea224fe,,,,,,,,,3965,-38.43359375,109.7734375,1,0,0,response7disk,,0,-2.76171875,15.13671875,1,0,0,rectangle,-2.76171875,15.13671875,1,0,0,-2.76171875,15.13671875,1,0,0,0,91,91,81,1,,,,,,,,
,,,,,,,,,,,,,FF,,,,,,,,1.3332,,,,,,,,,,,,,,,,,,,,,,60ff6156666321187979ea94,610372b6f8c4e38188a34e35,2021-07-30_01h06.19.981,Simcolourproject_2stim_asymm_v5,2020.2.10,MacIntel,60,61025ae37ef11b136ea224fe,,,,,,,,,2354,47.04296875,83.55078125,1,0,0,response1disk,,7,-10.1484375,-6.921875,1,0,0,rectangle,-10.1484375,-6.921875,1,0,0,-10.1484375,-6.921875,1,0,0,0,92,92,131,1,,,,,,,,
,,,,,,,,,,,,,FF,,,,,,,,2.0154,,,,,,,,,,,,,,,,,,,,,,60ff6156666321187979ea94,610372b6f8c4e38188a34e35,2021-07-30_01h06.19.981,Simcolourproject_2stim_asymm_v5,2020.2.10,MacIntel,60,61025ae37ef11b136ea224fe,,,,,,,,,2750,48.7734375,74.1171875,1,0,0,response1disk,,7,13.64453125,10.16015625,1,0,0,rectangle,13.64453125,10.16015625,1,0,0,13.64453125,10.16015625,1,0,0,0,93,93,43,1,,,,,,,,
,,,,,,,,,,,,,FF,,,,,,,,0.7175,,,,,,,,,,,,,,,,,,,,,,60ff6156666321187979ea94,610372b6f8c4e38188a34e35,2021-07-30_01h06.19.981,Simcolourproject_2stim_asymm_v5,2020.2.10,MacIntel,60,61025ae37ef11b136ea224fe,,,,,,,,,3613,44.84375,69.859375,1,0,0,response1disk,,7,13.99609375,13.63671875,1,0,0,rectangle,13.99609375,13.63671875,1,0,0,13.99609375,13.63671875,1,0,0,0,94,94,36,1,,,,,,,,
,,,,,,,,,,,,,FF,,,,,,,,1.2312,,,,,,,,,,,,,,,,,,,,,,60ff6156666321187979ea94,610372b6f8c4e38188a34e35,2021-07-30_01h06.19.981,Simcolourproject_2stim_asymm_v5,2020.2.10,MacIntel,60,61025ae37ef11b136ea224fe,,,,,,,,,2090,62.05078125,-38.97265625,1,0,0,response3disk,,5,1.50390625,-4.70703125,1,0,0,rectangle,1.50390625,-4.70703125,1,0,0,1.50390625,-4.70703125,1,0,0,0,95,95,111,1,,,,,,,,
,,,,,,,,,,,,,FF,,,,,,,,0.9647,,,,,,,,,,,,,,,,,,,,,,60ff6156666321187979ea94,610372b6f8c4e38188a34e35,2021-07-30_01h06.19.981,Simcolourproject_2stim_asymm_v5,2020.2.10,MacIntel,60,61025ae37ef11b136ea224fe,,,,,,,,,2343,46.70703125,75.0625,1,0,0,response1disk,,7,8.84375,-2.12109375,1,0,0,rectangle,8.84375,-2.12109375,1,0,0,8.84375,-2.12109375,1,0,0,0,96,96,106,1,,,,,,,,
,,,,,,,,,,,,,FF,,,,,,,,1.7329,,,,,,,,,,,,,,,,,,,,,,60ff6156666321187979ea94,610372b6f8c4e38188a34e35,2021-07-30_01h06.19.981,Simcolourproject_2stim_asymm_v5,2020.2.10,MacIntel,60,61025ae37ef11b136ea224fe,,,,,,,,,3438,98.67578125,38.71875,1,0,0,response1disk,,6,18.48828125,6.25,1,0,0,rectangle,18.48828125,6.25,1,0,0,18.48828125,6.25,1,0,0,0,97,97,78,1,,,,,,,,
,,,,,,,,,,,,,FF,,,,,,,,1.0846,,,,,,,,,,,,,,,,,,,,,,60ff6156666321187979ea94,610372b6f8c4e38188a34e35,2021-07-30_01h06.19.981,Simcolourproject_2stim_asymm_v5,2020.2.10,MacIntel,60,61025ae37ef11b136ea224fe,,,,,,,,,695,81.59375,-49.33203125,1,0,0,response3disk,,5,2.8125,-14.94140625,1,0,0,rectangle,2.8125,-14.94140625,1,0,0,2.8125,-14.94140625,1,0,0,0,98,98,73,1,,,,,,,,
,,,,,,,,,,,,,FF,,,,,,,,2.9018,,,,,,,,,,,,,,,,,,,,,,60ff6156666321187979ea94,610372b6f8c4e38188a34e35,2021-07-30_01h06.19.981,Simcolourproject_2stim_asymm_v5,2020.2.10,MacIntel,60,61025ae37ef11b136ea224fe,,,,,,,,,2651,-37.45703125,-88.0625,1,0,0,response5disk,,3,4.1328125,-9.1015625,1,0,0,rectangle,4.1328125,-9.1015625,1,0,0,4.1328125,-9.1015625,1,0,0,0,99,99,0,1,,,,,,,,
,,,,,,,,,,,,,FF,,,,,,,,1.0519,,,,,,,,,,,,,,,,,,,,,,60ff6156666321187979ea94,610372b6f8c4e38188a34e35,2021-07-30_01h06.19.981,Simcolourproject_2stim_asymm_v5,2020.2.10,MacIntel,60,61025ae37ef11b136ea224fe,,,,,,,,,941,68.578125,87.3125,1,0,0,response1disk,,7,12.70703125,10.3359375,1,0,0,rectangle,12.70703125,10.3359375,1,0,0,12.70703125,10.3359375,1,0,0,0,100,100,148,1,,,,,,,,
,,,,,,,,,,,,,FF,,,,,,,,1.2669,,,,,,,,,,,,,,,,,,,,,,60ff6156666321187979ea94,610372b6f8c4e38188a34e35,2021-07-30_01h06.19.981,Simcolourproject_2stim_asymm_v5,2020.2.10,MacIntel,60,61025ae37ef11b136ea224fe,,,,,,,,,3526,31.69140625,72.62890625,1,0,0,response1disk,,7,-1.96484375,-7.45703125,1,0,0,rectangle,-1.96484375,-7.45703125,1,0,0,-1.96484375,-7.45703125,1,0,0,0,101,101,60,1,,,,,,,,
,,,,,,,,,,,,,FF,,,,,,,,1.3339,,,,,,,,,,,,,,,,,,,,,,60ff6156666321187979ea94,610372b6f8c4e38188a34e35,2021-07-30_01h06.19.981,Simcolourproject_2stim_asymm_v5,2020.2.10,MacIntel,60,61025ae37ef11b136ea224fe,,,,,,,,,1759,45.609375,-91.8359375,1,0,0,response3disk,,4,4.32421875,-5.29296875,1,0,0,rectangle,4.32421875,-5.29296875,1,0,0,4.32421875,-5.29296875,1,0,0,0,102,102,22,1,,,,,,,,
,,,,,,,,,,,,,FF,,,,,,,,1.1659,,,,,,,,,,,,,,,,,,,,,,60ff6156666321187979ea94,610372b6f8c4e38188a34e35,2021-07-30_01h06.19.981,Simcolourproject_2stim_asymm_v5,2020.2.10,MacIntel,60,61025ae37ef11b136ea224fe,,,,,,,,,2850,44.71484375,69.4921875,1,0,0,response1disk,,7,3.40234375,-2.36328125,1,0,0,rectangle,3.40234375,-2.36328125,1,0,0,3.40234375,-2.36328125,1,0,0,0,103,103,14,1,,,,,,,,
,,,,,,,,,,,,,FF,,,,,,,,0.9021,,,,,,,,,,,,,,,,,,,,,,60ff6156666321187979ea94,610372b6f8c4e38188a34e35,2021-07-30_01h06.19.981,Simcolourproject_2stim_asymm_v5,2020.2.10,MacIntel,60,61025ae37ef11b136ea224fe,,,,,,,,,228,35.63671875,61.94140625,1,0,0,response1disk,,7,3.20703125,-11.16796875,1,0,0,rectangle,3.20703125,-11.16796875,1,0,0,3.20703125,-11.16796875,1,0,0,0,104,104,62,1,,,,,,,,
,,,,,,,,,,,,,FF,,,,,,,,1.284,,,,,,,,,,,,,,,,,,,,,,60ff6156666321187979ea94,610372b6f8c4e38188a34e35,2021-07-30_01h06.19.981,Simcolourproject_2stim_asymm_v5,2020.2.10,MacIntel,60,61025ae37ef11b136ea224fe,,,,,,,,,1105,100.375,-45.19921875,1,0,0,response3disk,,5,3.875,-11.97265625,1,0,0,rectangle,3.875,-11.97265625,1,0,0,3.875,-11.97265625,1,0,0,0,105,105,7,1,,,,,,,,
,,,,,,,,,,,,,FF,,,,,,,,2.151,,,,,,,,,,,,,,,,,,,,,,60ff6156666321187979ea94,610372b6f8c4e38188a34e35,2021-07-30_01h06.19.981,Simcolourproject_2stim_asymm_v5,2020.2.10,MacIntel,60,61025ae37ef11b136ea224fe,,,,,,,,,1363,48.94921875,80.4921875,1,0,0,response1disk,,7,3.75,12.86328125,1,0,0,rectangle,3.75,12.86328125,1,0,0,3.75,12.86328125,1,0,0,0,106,106,126,1,,,,,,,,
,,,,,,,,,,,,,FF,,,,,,,,0.7512,,,,,,,,,,,,,,,,,,,,,,60ff6156666321187979ea94,610372b6f8c4e38188a34e35,2021-07-30_01h06.19.981,Simcolourproject_2stim_asymm_v5,2020.2.10,MacIntel,60,61025ae37ef11b136ea224fe,,,,,,,,,3765,42.1171875,78.6875,1,0,0,response1disk,,7,7.8515625,7.4609375,1,0,0,rectangle,7.8515625,7.4609375,1,0,0,7.8515625,7.4609375,1,0,0,0,107,107,129,1,,,,,,,,
,,,,,,,,,,,,,FF,,,,,,,,0.6335,,,,,,,,,,,,,,,,,,,,,,60ff6156666321187979ea94,610372b6f8c4e38188a34e35,2021-07-30_01h06.19.981,Simcolourproject_2stim_asymm_v5,2020.2.10,MacIntel,60,61025ae37ef11b136ea224fe,,,,,,,,,3365,43.32421875,67.58984375,1,0,0,response1disk,,7,9.359375,-5.71484375,1,0,0,rectangle,9.359375,-5.71484375,1,0,0,9.359375,-5.71484375,1,0,0,0,108,108,144,1,,,,,,,,
,,,,,,,,,,,,,FF,,,,,,,,1.4,,,,,,,,,,,,,,,,,,,,,,60ff6156666321187979ea94,610372b6f8c4e38188a34e35,2021-07-30_01h06.19.981,Simcolourproject_2stim_asymm_v5,2020.2.10,MacIntel,60,61025ae37ef11b136ea224fe,,,,,,,,,2175,85.0625,-41.1796875,1,0,0,response3disk,,5,4.359375,-1.7265625,1,0,0,rectangle,4.359375,-1.7265625,1,0,0,4.359375,-1.7265625,1,0,0,0,109,109,155,1,,,,,,,,
,,,,,,,,,,,,,FF,,,,,,,,1.5493,,,,,,,,,,,,,,,,,,,,,,60ff6156666321187979ea94,610372b6f8c4e38188a34e35,2021-07-30_01h06.19.981,Simcolourproject_2stim_asymm_v5,2020.2.10,MacIntel,60,61025ae37ef11b136ea224fe,,,,,,,,,3210,85.75390625,-44.34765625,1,0,0,response3disk,,5,5.3359375,-2.05078125,1,0,0,rectangle,5.3359375,-2.05078125,1,0,0,5.3359375,-2.05078125,1,0,0,0,110,110,9,1,,,,,,,,
,,,,,,,,,,,,,FF,,,,,,,,1.2495,,,,,,,,,,,,,,,,,,,,,,60ff6156666321187979ea94,610372b6f8c4e38188a34e35,2021-07-30_01h06.19.981,Simcolourproject_2stim_asymm_v5,2020.2.10,MacIntel,60,61025ae37ef11b136ea224fe,,,,,,,,,2322,39.1171875,59.1953125,1,0,0,response1disk,,7,11.91015625,-3.40234375,1,0,0,rectangle,97.37109375,59.25,1,0,0,6.671875,-6.953125,1,0,0,0,111,111,35,1,,response1disk_3,TRUE,6,6,"[275,215,295,173,91,276,78,317,11,21,229,128,312,152,11,14,31,152,180,112]",1.8333,rectangle
,,,,,,,,,,,,,FF,,,,,,,,3.9997,,,,,,,,,,,,,,,,,,,,,,60ff6156666321187979ea94,610372b6f8c4e38188a34e35,2021-07-30_01h06.19.981,Simcolourproject_2stim_asymm_v5,2020.2.10,MacIntel,60,61025ae37ef11b136ea224fe,,,,,,,,,3904,66.09375,93.5078125,1,0,0,response1disk,,7,14.203125,9.0859375,1,0,0,rectangle,14.203125,9.0859375,1,0,0,14.203125,9.0859375,1,0,0,0,112,112,108,1,,,,,,,,
,,,,,,,,,,,,,FF,,,,,,,,1.7999,,,,,,,,,,,,,,,,,,,,,,60ff6156666321187979ea94,610372b6f8c4e38188a34e35,2021-07-30_01h06.19.981,Simcolourproject_2stim_asymm_v5,2020.2.10,MacIntel,60,61025ae37ef11b136ea224fe,,,,,,,,,456,-83.82421875,31.73828125,1,0,0,response7disk,,1,4.921875,0.75,1,0,0,rectangle,4.921875,0.75,1,0,0,4.921875,0.75,1,0,0,0,113,113,138,1,,,,,,,,
,,,,,,,,,,,,,FF,,,,,,,,1.733,,,,,,,,,,,,,,,,,,,,,,60ff6156666321187979ea94,610372b6f8c4e38188a34e35,2021-07-30_01h06.19.981,Simcolourproject_2stim_asymm_v5,2020.2.10,MacIntel,60,61025ae37ef11b136ea224fe,,,,,,,,,3932,54.62109375,76.43359375,1,0,0,response1disk,,7,11.6328125,-3.97265625,1,0,0,rectangle,11.6328125,-3.97265625,1,0,0,11.6328125,-3.97265625,1,0,0,0,114,114,58,1,,,,,,,,
,,,,,,,,,,,,,FF,,,,,,,,2.2165,,,,,,,,,,,,,,,,,,,,,,60ff6156666321187979ea94,610372b6f8c4e38188a34e35,2021-07-30_01h06.19.981,Simcolourproject_2stim_asymm_v5,2020.2.10,MacIntel,60,61025ae37ef11b136ea224fe,,,,,,,,,809,32.5,41.7421875,1,0,0,response1disk,,7,7.06640625,-8.0078125,1,0,0,rectangle,7.06640625,-8.0078125,1,0,0,7.06640625,-8.0078125,1,0,0,0,115,115,110,1,,,,,,,,
,,,,,,,,,,,,,FF,,,,,,,,0.9004,,,,,,,,,,,,,,,,,,,,,,60ff6156666321187979ea94,610372b6f8c4e38188a34e35,2021-07-30_01h06.19.981,Simcolourproject_2stim_asymm_v5,2020.2.10,MacIntel,60,61025ae37ef11b136ea224fe,,,,,,,,,699,-32.3671875,-79.421875,1,0,0,response5disk,,3,4.70703125,-12.0078125,1,0,0,rectangle,4.70703125,-12.0078125,1,0,0,4.70703125,-12.0078125,1,0,0,0,116,116,82,1,,,,,,,,
,,,,,,,,,,,,,FF,,,,,,,,0.8672,,,,,,,,,,,,,,,,,,,,,,60ff6156666321187979ea94,610372b6f8c4e38188a34e35,2021-07-30_01h06.19.981,Simcolourproject_2stim_asymm_v5,2020.2.10,MacIntel,60,61025ae37ef11b136ea224fe,,,,,,,,,2497,38.80078125,64.59765625,1,0,0,response1disk,,7,20.109375,4.2421875,1,0,0,rectangle,20.109375,4.2421875,1,0,0,20.109375,4.2421875,1,0,0,0,117,117,145,1,,,,,,,,
,,,,,,,,,,,,,FF,,,,,,,,0.9341,,,,,,,,,,,,,,,,,,,,,,60ff6156666321187979ea94,610372b6f8c4e38188a34e35,2021-07-30_01h06.19.981,Simcolourproject_2stim_asymm_v5,2020.2.10,MacIntel,60,61025ae37ef11b136ea224fe,,,,,,,,,618,-71.3828125,-41.296875,1,0,0,response5disk,,2,-20.82421875,-8.82421875,1,0,0,rectangle,-20.82421875,-8.82421875,1,0,0,-20.82421875,-8.82421875,1,0,0,0,118,118,142,1,,,,,,,,
,,,,,,,,,,,,,FF,,,,,,,,0.9349,,,,,,,,,,,,,,,,,,,,,,60ff6156666321187979ea94,610372b6f8c4e38188a34e35,2021-07-30_01h06.19.981,Simcolourproject_2stim_asymm_v5,2020.2.10,MacIntel,60,61025ae37ef11b136ea224fe,,,,,,,,,4316,-44.7421875,87.41015625,1,0,0,response7disk,,0,-5.26953125,10.4765625,1,0,0,rectangle,-5.26953125,10.4765625,1,0,0,-5.26953125,10.4765625,1,0,0,0,119,119,97,1,,,,,,,,
,,,,,,,,,,,,,FF,,,,,,,,1.4814,,,,,,,,,,,,,,,,,,,,,,60ff6156666321187979ea94,610372b6f8c4e38188a34e35,2021-07-30_01h06.19.981,Simcolourproject_2stim_asymm_v5,2020.2.10,MacIntel,60,61025ae37ef11b136ea224fe,,,,,,,,,2038,-84.109375,33.51953125,1,0,0,response7disk,,1,6.4765625,7.34765625,1,0,0,rectangle,6.4765625,7.34765625,1,0,0,6.4765625,7.34765625,1,0,0,0,120,120,146,1,,,,,,,,
,,,,,,,,,,,,,FF,,,,,,,,2.1835,,,,,,,,,,,,,,,,,,,,,,60ff6156666321187979ea94,610372b6f8c4e38188a34e35,2021-07-30_01h06.19.981,Simcolourproject_2stim_asymm_v5,2020.2.10,MacIntel,60,61025ae37ef11b136ea224fe,,,,,,,,,1621,-34.578125,-85.671875,1,0,0,response5disk,,3,2.8828125,-1.65234375,1,0,0,rectangle,2.8828125,-1.65234375,1,0,0,2.8828125,-1.65234375,1,0,0,0,121,121,151,1,,,,,,,,
,,,,,,,,,,,,,FF,,,,,,,,1.4991,,,,,,,,,,,,,,,,,,,,,,60ff6156666321187979ea94,610372b6f8c4e38188a34e35,2021-07-30_01h06.19.981,Simcolourproject_2stim_asymm_v5,2020.2.10,MacIntel,60,61025ae37ef11b136ea224fe,,,,,,,,,3393,-67.01953125,-78.32421875,1,0,0,response5disk,,3,-5.53515625,3.54296875,1,0,0,rectangle,-5.53515625,3.54296875,1,0,0,-5.53515625,3.54296875,1,0,0,0,122,122,75,1,,,,,,,,
,,,,,,,,,,,,,FF,,,,,,,,1.5509,,,,,,,,,,,,,,,,,,,,,,60ff6156666321187979ea94,610372b6f8c4e38188a34e35,2021-07-30_01h06.19.981,Simcolourproject_2stim_asymm_v5,2020.2.10,MacIntel,60,61025ae37ef11b136ea224fe,,,,,,,,,2937,96.265625,35.54296875,1,0,0,response1disk,,6,-6.22265625,8.5234375,1,0,0,rectangle,-6.22265625,8.5234375,1,0,0,-6.22265625,8.5234375,1,0,0,0,123,123,132,1,,,,,,,,
,,,,,,,,,,,,,FF,,,,,,,,1.5171,,,,,,,,,,,,,,,,,,,,,,60ff6156666321187979ea94,610372b6f8c4e38188a34e35,2021-07-30_01h06.19.981,Simcolourproject_2stim_asymm_v5,2020.2.10,MacIntel,60,61025ae37ef11b136ea224fe,,,,,,,,,2074,25.37109375,64.38671875,1,0,0,response1disk,,7,7.5625,-3.8359375,1,0,0,rectangle,7.5625,-3.8359375,1,0,0,7.5625,-3.8359375,1,0,0,0,124,124,77,1,,,,,,,,
,,,,,,,,,,,,,FF,,,,,,,,1.0667,,,,,,,,,,,,,,,,,,,,,,60ff6156666321187979ea94,610372b6f8c4e38188a34e35,2021-07-30_01h06.19.981,Simcolourproject_2stim_asymm_v5,2020.2.10,MacIntel,60,61025ae37ef11b136ea224fe,,,,,,,,,1971,-38.65625,-77.48046875,1,0,0,response5disk,,3,2.62890625,0.9453125,1,0,0,rectangle,2.62890625,0.9453125,1,0,0,2.62890625,0.9453125,1,0,0,0,125,125,76,1,,,,,,,,
,,,,,,,,,,,,,FF,,,,,,,,1.9845,,,,,,,,,,,,,,,,,,,,,,60ff6156666321187979ea94,610372b6f8c4e38188a34e35,2021-07-30_01h06.19.981,Simcolourproject_2stim_asymm_v5,2020.2.10,MacIntel,60,61025ae37ef11b136ea224fe,,,,,,,,,1228,44.796875,-81.5546875,1,0,0,response3disk,,4,3.09765625,-15.2734375,1,0,0,rectangle,3.09765625,-15.2734375,1,0,0,3.09765625,-15.2734375,1,0,0,0,126,126,2,1,,,,,,,,
,,,,,,,,,,,,,FF,,,,,,,,0.8207,,,,,,,,,,,,,,,,,,,,,,60ff6156666321187979ea94,610372b6f8c4e38188a34e35,2021-07-30_01h06.19.981,Simcolourproject_2stim_asymm_v5,2020.2.10,MacIntel,60,61025ae37ef11b136ea224fe,,,,,,,,,630,-32.65234375,51.78125,1,0,0,response7disk,,0,1.984375,2.9921875,1,0,0,rectangle,-37.3125,-77.1640625,1,0,0,10.54296875,-0.6171875,1,0,0,0,127,127,84,1,,response5disk_3,TRUE,3,3,"[275,215,295,173,91,276,78,317,11,21,229,128,312,152,11,14,31,152,180,112]",1.833,rectangle
,,,,,,,,,,,,,FF,,,,,,,,1.1504,,,,,,,,,,,,,,,,,,,,,,60ff6156666321187979ea94,610372b6f8c4e38188a34e35,2021-07-30_01h06.19.981,Simcolourproject_2stim_asymm_v5,2020.2.10,MacIntel,60,61025ae37ef11b136ea224fe,,,,,,,,,1597,-24.40234375,63.48046875,1,0,0,response7disk,,0,2.75390625,6.7109375,1,0,0,rectangle,2.75390625,6.7109375,1,0,0,2.75390625,6.7109375,1,0,0,0,128,128,102,1,,,,,,,,
,,,,,,,,,,,,,FF,,,,,,,,1.7649,,,,,,,,,,,,,,,,,,,,,,60ff6156666321187979ea94,610372b6f8c4e38188a34e35,2021-07-30_01h06.19.981,Simcolourproject_2stim_asymm_v5,2020.2.10,MacIntel,60,61025ae37ef11b136ea224fe,,,,,,,,,3024,44.3125,75.17578125,1,0,0,response1disk,,7,1.0546875,3.9609375,1,0,0,rectangle,1.0546875,3.9609375,1,0,0,1.0546875,3.9609375,1,0,0,0,129,129,113,1,,,,,,,,
,,,,,,,,,,,,,FF,,,,,,,,0.9498,,,,,,,,,,,,,,,,,,,,,,60ff6156666321187979ea94,610372b6f8c4e38188a34e35,2021-07-30_01h06.19.981,Simcolourproject_2stim_asymm_v5,2020.2.10,MacIntel,60,61025ae37ef11b136ea224fe,,,,,,,,,2069,33.0234375,61.6484375,1,0,0,response1disk,,7,10.2890625,-0.99609375,1,0,0,rectangle,10.2890625,-0.99609375,1,0,0,10.2890625,-0.99609375,1,0,0,0,130,130,25,1,,,,,,,,
,,,,,,,,,,,,,FF,,,,,,,,0.8171,,,,,,,,,,,,,,,,,,,,,,60ff6156666321187979ea94,610372b6f8c4e38188a34e35,2021-07-30_01h06.19.981,Simcolourproject_2stim_asymm_v5,2020.2.10,MacIntel,60,61025ae37ef11b136ea224fe,,,,,,,,,3620,39.484375,61.9296875,1,0,0,response1disk,,7,13.9140625,0.5234375,1,0,0,rectangle,13.9140625,0.5234375,1,0,0,13.9140625,0.5234375,1,0,0,0,131,131,112,1,,,,,,,,
,,,,,,,,,,,,,FF,,,,,,,,2.0664,,,,,,,,,,,,,,,,,,,,,,60ff6156666321187979ea94,610372b6f8c4e38188a34e35,2021-07-30_01h06.19.981,Simcolourproject_2stim_asymm_v5,2020.2.10,MacIntel,60,61025ae37ef11b136ea224fe,,,,,,,,,738,34.3671875,50.1953125,1,0,0,response1disk,,7,19.8984375,4.8203125,1,0,0,rectangle,19.8984375,4.8203125,1,0,0,19.8984375,4.8203125,1,0,0,0,132,132,37,1,,,,,,,,
,,,,,,,,,,,,,FF,,,,,,,,4.0502,,,,,,,,,,,,,,,,,,,,,,60ff6156666321187979ea94,610372b6f8c4e38188a34e35,2021-07-30_01h06.19.981,Simcolourproject_2stim_asymm_v5,2020.2.10,MacIntel,60,61025ae37ef11b136ea224fe,,,,,,,,,545,-22.03125,-80.60546875,1,0,0,response5disk,,3,21.90234375,-5.58203125,1,0,0,rectangle,21.90234375,-5.58203125,1,0,0,21.90234375,-5.58203125,1,0,0,0,133,133,57,1,,,,,,,,
,,,,,,,,,,,,,FF,,,,,,,,1.0002,,,,,,,,,,,,,,,,,,,,,,60ff6156666321187979ea94,610372b6f8c4e38188a34e35,2021-07-30_01h06.19.981,Simcolourproject_2stim_asymm_v5,2020.2.10,MacIntel,60,61025ae37ef11b136ea224fe,,,,,,,,,1173,106.6328125,36.4296875,1,0,0,response1disk,,6,0.48046875,-4.5234375,1,0,0,rectangle,0.48046875,-4.5234375,1,0,0,0.48046875,-4.5234375,1,0,0,0,134,134,64,1,,,,,,,,
,,,,,,,,,,,,,FF,,,,,,,,1.8826,,,,,,,,,,,,,,,,,,,,,,60ff6156666321187979ea94,610372b6f8c4e38188a34e35,2021-07-30_01h06.19.981,Simcolourproject_2stim_asymm_v5,2020.2.10,MacIntel,60,61025ae37ef11b136ea224fe,,,,,,,,,2086,94.59765625,46.2734375,1,0,0,response1disk,,6,23.640625,-1.578125,1,0,0,rectangle,23.640625,-1.578125,1,0,0,23.640625,-1.578125,1,0,0,0,135,135,65,1,,,,,,,,
,,,,,,,,,,,,,FF,,,,,,,,1.1336,,,,,,,,,,,,,,,,,,,,,,60ff6156666321187979ea94,610372b6f8c4e38188a34e35,2021-07-30_01h06.19.981,Simcolourproject_2stim_asymm_v5,2020.2.10,MacIntel,60,61025ae37ef11b136ea224fe,,,,,,,,,647,43.02734375,63.46875,1,0,0,response1disk,,7,7.875,-5.59375,1,0,0,rectangle,7.875,-5.59375,1,0,0,7.875,-5.59375,1,0,0,0,136,136,122,1,,,,,,,,
,,,,,,,,,,,,,FF,,,,,,,,0.6517,,,,,,,,,,,,,,,,,,,,,,60ff6156666321187979ea94,610372b6f8c4e38188a34e35,2021-07-30_01h06.19.981,Simcolourproject_2stim_asymm_v5,2020.2.10,MacIntel,60,61025ae37ef11b136ea224fe,,,,,,,,,3083,24.59765625,39.00390625,1,0,0,response1disk,,7,16.0859375,6.796875,1,0,0,rectangle,16.0859375,6.796875,1,0,0,16.0859375,6.796875,1,0,0,0,137,137,11,1,,,,,,,,
,,,,,,,,,,,,,FF,,,,,,,,1.5499,,,,,,,,,,,,,,,,,,,,,,60ff6156666321187979ea94,610372b6f8c4e38188a34e35,2021-07-30_01h06.19.981,Simcolourproject_2stim_asymm_v5,2020.2.10,MacIntel,60,61025ae37ef11b136ea224fe,,,,,,,,,1576,43.37109375,65.96875,1,0,0,response1disk,,7,11.1875,4.46484375,1,0,0,rectangle,11.1875,4.46484375,1,0,0,11.1875,4.46484375,1,0,0,0,138,138,30,1,,,,,,,,
,,,,,,,,,,,,,FF,,,,,,,,1.435,,,,,,,,,,,,,,,,,,,,,,60ff6156666321187979ea94,610372b6f8c4e38188a34e35,2021-07-30_01h06.19.981,Simcolourproject_2stim_asymm_v5,2020.2.10,MacIntel,60,61025ae37ef11b136ea224fe,,,,,,,,,3401,38.24609375,59.57421875,1,0,0,response1disk,,7,11.5390625,6.703125,1,0,0,rectangle,11.5390625,6.703125,1,0,0,11.5390625,6.703125,1,0,0,0,139,139,74,1,,,,,,,,
,,,,,,,,,,,,,FF,,,,,,,,0.6665,,,,,,,,,,,,,,,,,,,,,,60ff6156666321187979ea94,610372b6f8c4e38188a34e35,2021-07-30_01h06.19.981,Simcolourproject_2stim_asymm_v5,2020.2.10,MacIntel,60,61025ae37ef11b136ea224fe,,,,,,,,,2816,34.37109375,52.4296875,1,0,0,response1disk,,7,15.16015625,7.35546875,1,0,0,rectangle,15.16015625,7.35546875,1,0,0,15.16015625,7.35546875,1,0,0,0,140,140,39,1,,,,,,,,
,,,,,,,,,,,,,FF,,,,,,,,1.3173,,,,,,,,,,,,,,,,,,,,,,60ff6156666321187979ea94,610372b6f8c4e38188a34e35,2021-07-30_01h06.19.981,Simcolourproject_2stim_asymm_v5,2020.2.10,MacIntel,60,61025ae37ef11b136ea224fe,,,,,,,,,1276,91.58984375,-49.5625,1,0,0,response3disk,,5,3.49609375,-7.3125,1,0,0,rectangle,3.49609375,-7.3125,1,0,0,3.49609375,-7.3125,1,0,0,0,141,141,152,1,,,,,,,,
,,,,,,,,,,,,,FF,,,,,,,,1.1504,,,,,,,,,,,,,,,,,,,,,,60ff6156666321187979ea94,610372b6f8c4e38188a34e35,2021-07-30_01h06.19.981,Simcolourproject_2stim_asymm_v5,2020.2.10,MacIntel,60,61025ae37ef11b136ea224fe,,,,,,,,,1385,67.90234375,-45.7421875,1,0,0,response3disk,,5,10.35546875,-8.06640625,1,0,0,rectangle,10.35546875,-8.06640625,1,0,0,10.35546875,-8.06640625,1,0,0,0,142,142,56,1,,,,,,,,
,,,,,,,,,,,,,FF,,,,,,,,1.1487,,,,,,,,,,,,,,,,,,,,,,60ff6156666321187979ea94,610372b6f8c4e38188a34e35,2021-07-30_01h06.19.981,Simcolourproject_2stim_asymm_v5,2020.2.10,MacIntel,60,61025ae37ef11b136ea224fe,,,,,,,,,3554,31.421875,-77.38671875,1,0,0,response3disk,,4,0.375,-3.9453125,1,0,0,rectangle,0.375,-3.9453125,1,0,0,0.375,-3.9453125,1,0,0,0,143,143,157,1,,,,,,,,
,,,,,,,,,,,,,FF,,,,,,,,1.9665,,,,,,,,,,,,,,,,,,,,,,60ff6156666321187979ea94,610372b6f8c4e38188a34e35,2021-07-30_01h06.19.981,Simcolourproject_2stim_asymm_v5,2020.2.10,MacIntel,60,61025ae37ef11b136ea224fe,,,,,,,,,213,87.09375,40.2734375,1,0,0,response1disk,,6,2.74609375,1.1640625,1,0,0,rectangle,2.74609375,1.1640625,1,0,0,2.74609375,1.1640625,1,0,0,0,144,144,96,1,,,,,,,,
,,,,,,,,,,,,,FF,,,,,,,,0.8166,,,,,,,,,,,,,,,,,,,,,,60ff6156666321187979ea94,610372b6f8c4e38188a34e35,2021-07-30_01h06.19.981,Simcolourproject_2stim_asymm_v5,2020.2.10,MacIntel,60,61025ae37ef11b136ea224fe,,,,,,,,,1743,-37.6796875,74.70703125,1,0,0,response7disk,,0,-3.90234375,1.72265625,1,0,0,rectangle,-3.90234375,1.72265625,1,0,0,-3.90234375,1.72265625,1,0,0,0,145,145,40,1,,,,,,,,
,,,,,,,,,,,,,FF,,,,,,,,3.3007,,,,,,,,,,,,,,,,,,,,,,60ff6156666321187979ea94,610372b6f8c4e38188a34e35,2021-07-30_01h06.19.981,Simcolourproject_2stim_asymm_v5,2020.2.10,MacIntel,60,61025ae37ef11b136ea224fe,,,,,,,,,2493,78.7578125,-57.04296875,1,0,0,response3disk,,5,10.72265625,-10.48828125,1,0,0,rectangle,10.72265625,-10.48828125,1,0,0,10.72265625,-10.48828125,1,0,0,0,146,146,127,1,,,,,,,,
,,,,,,,,,,,,,FF,,,,,,,,0.8677,,,,,,,,,,,,,,,,,,,,,,60ff6156666321187979ea94,610372b6f8c4e38188a34e35,2021-07-30_01h06.19.981,Simcolourproject_2stim_asymm_v5,2020.2.10,MacIntel,60,61025ae37ef11b136ea224fe,,,,,,,,,2073,42.4921875,84.5234375,1,0,0,response1disk,,7,14.96875,0.953125,1,0,0,rectangle,14.96875,0.953125,1,0,0,14.96875,0.953125,1,0,0,0,147,147,128,1,,,,,,,,
,,,,,,,,,,,,,FF,,,,,,,,0.8339,,,,,,,,,,,,,,,,,,,,,,60ff6156666321187979ea94,610372b6f8c4e38188a34e35,2021-07-30_01h06.19.981,Simcolourproject_2stim_asymm_v5,2020.2.10,MacIntel,60,61025ae37ef11b136ea224fe,,,,,,,,,2160,-39.0546875,69.8984375,1,0,0,response7disk,,0,3.93359375,-4.8828125,1,0,0,rectangle,3.93359375,-4.8828125,1,0,0,3.93359375,-4.8828125,1,0,0,0,148,148,68,1,,,,,,,,
,,,,,,,,,,,,,FF,,,,,,,,1.5832,,,,,,,,,,,,,,,,,,,,,,60ff6156666321187979ea94,610372b6f8c4e38188a34e35,2021-07-30_01h06.19.981,Simcolourproject_2stim_asymm_v5,2020.2.10,MacIntel,60,61025ae37ef11b136ea224fe,,,,,,,,,2594,91.53125,-50.26171875,1,0,0,response3disk,,5,1.5,7.96484375,1,0,0,rectangle,1.5,7.96484375,1,0,0,1.5,7.96484375,1,0,0,0,149,149,79,1,,,,,,,,
,,,,,,,,,,,,,FF,,,,,,,,2.3172,,,,,,,,,,,,,,,,,,,,,,60ff6156666321187979ea94,610372b6f8c4e38188a34e35,2021-07-30_01h06.19.981,Simcolourproject_2stim_asymm_v5,2020.2.10,MacIntel,60,61025ae37ef11b136ea224fe,,,,,,,,,3191,50.4453125,-85.70703125,1,0,0,response3disk,,4,7.15625,-13.98046875,1,0,0,rectangle,7.15625,-13.98046875,1,0,0,7.15625,-13.98046875,1,0,0,0,150,150,54,1,,,,,,,,
,,,,,,,,,,,,,FF,,,,,,,,1.5009,,,,,,,,,,,,,,,,,,,,,,60ff6156666321187979ea94,610372b6f8c4e38188a34e35,2021-07-30_01h06.19.981,Simcolourproject_2stim_asymm_v5,2020.2.10,MacIntel,60,61025ae37ef11b136ea224fe,,,,,,,,,1693,109.4609375,45.87890625,1,0,0,response1disk,,6,12.61328125,4.93359375,1,0,0,rectangle,46.98828125,-93.30859375,1,0,0,18.375,-4.4453125,1,0,0,0,151,151,115,1,,response3disk_3,TRUE,4,4,"[275,215,295,173,91,276,78,317,11,21,229,128,312,152,11,14,31,152,180,112]",1.3488,rectangle
,,,,,,,,,,,,,FF,,,,,,,,1.884,,,,,,,,,,,,,,,,,,,,,,60ff6156666321187979ea94,610372b6f8c4e38188a34e35,2021-07-30_01h06.19.981,Simcolourproject_2stim_asymm_v5,2020.2.10,MacIntel,60,61025ae37ef11b136ea224fe,,,,,,,,,2709,41.1328125,78.4921875,1,0,0,response1disk,,7,12.62109375,6.51953125,1,0,0,rectangle,12.62109375,6.51953125,1,0,0,12.62109375,6.51953125,1,0,0,0,152,152,89,1,,,,,,,,
