key_resp.keys,key_resp.rt,key_resp_14.keys,key_resp_14.rt,key_resp_15.keys,key_resp_15.rt,key_resp_17.keys,key_resp_17.rt,key_resp_9.keys,key_resp_9.rt,key_resp_10.keys,key_resp_10.rt,practice_comparison,Ecc,mouse_5.x,mouse_5.y,mouse_5.leftButton,mouse_5.midButton,mouse_5.rightButton,mouse_5.clicked_name,pracsimilarity,response_time,mouse_10.x,mouse_10.y,mouse_10.leftButton,mouse_10.midButton,mouse_10.rightButton,mouse_10.clicked_name,mouse_7.x,mouse_7.y,mouse_7.leftButton,mouse_7.midButton,mouse_7.rightButton,mouse_6.x,mouse_6.y,mouse_6.leftButton,mouse_6.midButton,mouse_6.rightButton,duringprac.thisRepN,duringprac.thisTrialN,duringprac.thisN,duringprac.thisIndex,duringprac.ran,participant,session,date,expName,psychopyVersion,OS,frameRate,study_id,mouse_7.clicked_name,catchpracsimilarity,catch_response_time,catchnumberprac,catchtrialorderprac,mouse_6.clicked_name,key_resp_22.keys,key_resp_22.rt,realcomparison,mouse.x,mouse.y,mouse.leftButton,mouse.midButton,mouse.rightButton,mouse.clicked_name,Colour2,similarity,mouse_2.x,mouse_2.y,mouse_2.leftButton,mouse_2.midButton,mouse_2.rightButton,mouse_2.clicked_name,mouse_3.x,mouse_3.y,mouse_3.leftButton,mouse_3.midButton,mouse_3.rightButton,mouse_11.x,mouse_11.y,mouse_11.leftButton,mouse_11.midButton,mouse_11.rightButton,trials_2.thisRepN,trials_2.thisTrialN,trials_2.thisN,trials_2.thisIndex,trials_2.ran,Colour1,mouse_3.clicked_name,catchornah,catchsimilarity,catchnumber,catchtrialorder,catchRT,mouse_11.clicked_name
space,0.9711,space,12.831725,space,18.14963,space,7.982625,space,0.4394,space,3.64935,110,PF,52.359375,-118.4960938,1,0,0,response3disk_5,4,2.850055,-5.1484375,7.12890625,1,0,0,rectangle_8,-5.1484375,7.12890625,1,0,0,-5.1484375,7.12890625,1,0,0,0,0,0,6,1,60ff20504c4a7476b051901f,61036e803a8cf79310e47e80,2021-07-29_23h14.47.111,Simcolourproject_2stim_asymm_v5,2020.2.10,MacIntel,60,61025ae37ef11b136ea224fe,,,,,,,,,,,,,,,,,,,,,,,,,,,,,,,,,,,,,,,,,,,,,,
,,,,,,,,,,,,26,FF,-82.6328125,-50.38671875,1,0,0,response5disk_5,2,4.400555,-4.7421875,4.1484375,1,0,0,rectangle_8,-46.77734375,81.61328125,1,0,0,-3.7578125,0.2890625,1,0,0,0,1,1,3,1,60ff20504c4a7476b051901f,61036e803a8cf79310e47e80,2021-07-29_23h14.47.111,Simcolourproject_2stim_asymm_v5,2020.2.10,MacIntel,60,61025ae37ef11b136ea224fe,response7disk_7,0,2.150325,0,"[2,5]",rectangle_4,,,,,,,,,,,,,,,,,,,,,,,,,,,,,,,,,,,,,,,,
,,,,,,,,,,,,4,PF,96.32421875,-39.78515625,1,0,0,response3disk_5,5,1.934185,-14.57421875,0.51171875,1,0,0,rectangle_8,-14.57421875,0.51171875,1,0,0,-14.57421875,0.51171875,1,0,0,0,2,2,1,1,60ff20504c4a7476b051901f,61036e803a8cf79310e47e80,2021-07-29_23h14.47.111,Simcolourproject_2stim_asymm_v5,2020.2.10,MacIntel,60,61025ae37ef11b136ea224fe,,,,,,,,,,,,,,,,,,,,,,,,,,,,,,,,,,,,,,,,,,,,,,
,,,,,,,,,,,,142,FF,-79.50390625,33.54296875,1,0,0,response7disk_5,1,1.49993,-5.390625,-1.0546875,1,0,0,rectangle_8,-5.390625,-1.0546875,1,0,0,-5.390625,-1.0546875,1,0,0,0,3,3,5,1,60ff20504c4a7476b051901f,61036e803a8cf79310e47e80,2021-07-29_23h14.47.111,Simcolourproject_2stim_asymm_v5,2020.2.10,MacIntel,60,61025ae37ef11b136ea224fe,,,,,,,,,,,,,,,,,,,,,,,,,,,,,,,,,,,,,,,,,,,,,,
,,,,,,,,,,,,86,FF,-66.91796875,-21.99609375,1,0,0,response5disk_5,2,1.5839,-2.79296875,0.5703125,1,0,0,rectangle_8,-20.83984375,58.52734375,1,0,0,2.39453125,-2.28515625,1,0,0,0,4,4,0,1,60ff20504c4a7476b051901f,61036e803a8cf79310e47e80,2021-07-29_23h14.47.111,Simcolourproject_2stim_asymm_v5,2020.2.10,MacIntel,60,61025ae37ef11b136ea224fe,response7disk_7,0,1.784295,0,"[2,5]",rectangle_4,,,,,,,,,,,,,,,,,,,,,,,,,,,,,,,,,,,,,,,,
,,,,,,,,,,,,122,PF,-39.44921875,-64.9921875,1,0,0,response5disk_5,3,1.14974,-12.484375,-7.48046875,1,0,0,rectangle_8,-12.484375,-7.48046875,1,0,0,-12.484375,-7.48046875,1,0,0,0,5,5,2,1,60ff20504c4a7476b051901f,61036e803a8cf79310e47e80,2021-07-29_23h14.47.111,Simcolourproject_2stim_asymm_v5,2020.2.10,MacIntel,60,61025ae37ef11b136ea224fe,,,,,,,,,,,,,,,,,,,,,,,,,,,,,,,,,,,,,,,,,,,,,,
,,,,,,,,,,,,105,PF,43.86328125,-77.94921875,1,0,0,response3disk_5,4,1.89957,10.85546875,-12.203125,1,0,0,rectangle_8,10.85546875,-12.203125,1,0,0,10.85546875,-12.203125,1,0,0,0,6,6,4,1,60ff20504c4a7476b051901f,61036e803a8cf79310e47e80,2021-07-29_23h14.47.111,Simcolourproject_2stim_asymm_v5,2020.2.10,MacIntel,60,61025ae37ef11b136ea224fe,,,,,,,,,,,,,,,,,,,,,,,,,,,,,,,,,,,,,,,,,,,,,,
,,,,,,,,,,,,,FF,,,,,,,,1.16663,,,,,,,,,,,,,,,,,,,,,,60ff20504c4a7476b051901f,61036e803a8cf79310e47e80,2021-07-29_23h14.47.111,Simcolourproject_2stim_asymm_v5,2020.2.10,MacIntel,60,61025ae37ef11b136ea224fe,,,,,,,space,2.620215,2341,91.4609375,16.40625,1,0,0,response1disk,,6,20.4375,0.32421875,1,0,0,rectangle,20.4375,0.32421875,1,0,0,20.4375,0.32421875,1,0,0,0,0,0,99,1,,,,,,,,
,,,,,,,,,,,,,FF,,,,,,,,0.966055,,,,,,,,,,,,,,,,,,,,,,60ff20504c4a7476b051901f,61036e803a8cf79310e47e80,2021-07-29_23h14.47.111,Simcolourproject_2stim_asymm_v5,2020.2.10,MacIntel,60,61025ae37ef11b136ea224fe,,,,,,,,,457,37.27734375,-62.33203125,1,0,0,response3disk,,4,15.359375,7.37890625,1,0,0,rectangle,15.359375,7.37890625,1,0,0,15.359375,7.37890625,1,0,0,0,1,1,117,1,,,,,,,,
,,,,,,,,,,,,,FF,,,,,,,,1.017115,,,,,,,,,,,,,,,,,,,,,,60ff20504c4a7476b051901f,61036e803a8cf79310e47e80,2021-07-29_23h14.47.111,Simcolourproject_2stim_asymm_v5,2020.2.10,MacIntel,60,61025ae37ef11b136ea224fe,,,,,,,,,3414,92.34765625,24.29296875,1,0,0,response1disk,,6,5.078125,-1.54296875,1,0,0,rectangle,5.078125,-1.54296875,1,0,0,5.078125,-1.54296875,1,0,0,0,2,2,19,1,,,,,,,,
,,,,,,,,,,,,,FF,,,,,,,,0.94996,,,,,,,,,,,,,,,,,,,,,,60ff20504c4a7476b051901f,61036e803a8cf79310e47e80,2021-07-29_23h14.47.111,Simcolourproject_2stim_asymm_v5,2020.2.10,MacIntel,60,61025ae37ef11b136ea224fe,,,,,,,,,2304,27.3125,-70.42578125,1,0,0,response3disk,,4,2.47265625,8.20703125,1,0,0,rectangle,2.47265625,8.20703125,1,0,0,2.47265625,8.20703125,1,0,0,0,3,3,103,1,,,,,,,,
,,,,,,,,,,,,,FF,,,,,,,,0.96704,,,,,,,,,,,,,,,,,,,,,,60ff20504c4a7476b051901f,61036e803a8cf79310e47e80,2021-07-29_23h14.47.111,Simcolourproject_2stim_asymm_v5,2020.2.10,MacIntel,60,61025ae37ef11b136ea224fe,,,,,,,,,1363,64.7109375,41.83203125,1,0,0,response1disk,,6,17.0390625,8.66015625,1,0,0,rectangle,17.0390625,8.66015625,1,0,0,17.0390625,8.66015625,1,0,0,0,4,4,79,1,,,,,,,,
,,,,,,,,,,,,,FF,,,,,,,,1.300885,,,,,,,,,,,,,,,,,,,,,,60ff20504c4a7476b051901f,61036e803a8cf79310e47e80,2021-07-29_23h14.47.111,Simcolourproject_2stim_asymm_v5,2020.2.10,MacIntel,60,61025ae37ef11b136ea224fe,,,,,,,,,1071,82.234375,-33.26171875,1,0,0,response3disk,,5,13.94921875,4.41796875,1,0,0,rectangle,13.94921875,4.41796875,1,0,0,13.94921875,4.41796875,1,0,0,0,5,5,66,1,,,,,,,,
,,,,,,,,,,,,,FF,,,,,,,,1.55054,,,,,,,,,,,,,,,,,,,,,,60ff20504c4a7476b051901f,61036e803a8cf79310e47e80,2021-07-29_23h14.47.111,Simcolourproject_2stim_asymm_v5,2020.2.10,MacIntel,60,61025ae37ef11b136ea224fe,,,,,,,,,953,36.078125,-59.671875,1,0,0,response3disk,,4,6.4375,-4.12109375,1,0,0,rectangle,-73.87890625,-37.1796875,1,0,0,23.953125,0.9609375,1,0,0,0,6,6,20,1,,response5disk_3,TRUE,2,2,"[189,7,60,257,308,20,306,34,319,53,164,242,135,300,151,157,137,122,136,206]",1.566425,rectangle
,,,,,,,,,,,,,FF,,,,,,,,1.59814,,,,,,,,,,,,,,,,,,,,,,60ff20504c4a7476b051901f,61036e803a8cf79310e47e80,2021-07-29_23h14.47.111,Simcolourproject_2stim_asymm_v5,2020.2.10,MacIntel,60,61025ae37ef11b136ea224fe,,,,,,,,,2922,67.4375,-48.46484375,1,0,0,response3disk,,5,6.37109375,4.20703125,1,0,0,rectangle,6.37109375,4.20703125,1,0,0,6.37109375,4.20703125,1,0,0,0,7,7,83,1,,,,,,,,
,,,,,,,,,,,,,FF,,,,,,,,1.19886,,,,,,,,,,,,,,,,,,,,,,60ff20504c4a7476b051901f,61036e803a8cf79310e47e80,2021-07-29_23h14.47.111,Simcolourproject_2stim_asymm_v5,2020.2.10,MacIntel,60,61025ae37ef11b136ea224fe,,,,,,,,,2973,80.75390625,38.03125,1,0,0,response1disk,,6,0.62890625,-12.3125,1,0,0,rectangle,0.62890625,-12.3125,1,0,0,0.62890625,-12.3125,1,0,0,0,8,8,54,1,,,,,,,,
,,,,,,,,,,,,,FF,,,,,,,,1.26629,,,,,,,,,,,,,,,,,,,,,,60ff20504c4a7476b051901f,61036e803a8cf79310e47e80,2021-07-29_23h14.47.111,Simcolourproject_2stim_asymm_v5,2020.2.10,MacIntel,60,61025ae37ef11b136ea224fe,,,,,,,,,501,95.07421875,57.73828125,1,0,0,response1disk,,6,29.2421875,4.8125,1,0,0,rectangle,29.2421875,4.8125,1,0,0,29.2421875,4.8125,1,0,0,0,9,9,70,1,,,,,,,,
,,,,,,,,,,,,,FF,,,,,,,,1.70008,,,,,,,,,,,,,,,,,,,,,,60ff20504c4a7476b051901f,61036e803a8cf79310e47e80,2021-07-29_23h14.47.111,Simcolourproject_2stim_asymm_v5,2020.2.10,MacIntel,60,61025ae37ef11b136ea224fe,,,,,,,,,1853,33.4375,60.5,1,0,0,response1disk,,7,9.62890625,1.65234375,1,0,0,rectangle,9.62890625,1.65234375,1,0,0,9.62890625,1.65234375,1,0,0,0,10,10,97,1,,,,,,,,
,,,,,,,,,,,,,FF,,,,,,,,1.18367,,,,,,,,,,,,,,,,,,,,,,60ff20504c4a7476b051901f,61036e803a8cf79310e47e80,2021-07-29_23h14.47.111,Simcolourproject_2stim_asymm_v5,2020.2.10,MacIntel,60,61025ae37ef11b136ea224fe,,,,,,,,,555,59.828125,-74.15234375,1,0,0,response3disk,,4,13.62890625,2.15234375,1,0,0,rectangle,13.62890625,2.15234375,1,0,0,13.62890625,2.15234375,1,0,0,0,11,11,122,1,,,,,,,,
,,,,,,,,,,,,,FF,,,,,,,,0.949925,,,,,,,,,,,,,,,,,,,,,,60ff20504c4a7476b051901f,61036e803a8cf79310e47e80,2021-07-29_23h14.47.111,Simcolourproject_2stim_asymm_v5,2020.2.10,MacIntel,60,61025ae37ef11b136ea224fe,,,,,,,,,3168,60.23828125,71.0859375,1,0,0,response1disk,,7,18.02734375,5.7265625,1,0,0,rectangle,18.02734375,5.7265625,1,0,0,18.02734375,5.7265625,1,0,0,0,12,12,149,1,,,,,,,,
,,,,,,,,,,,,,FF,,,,,,,,1.48357,,,,,,,,,,,,,,,,,,,,,,60ff20504c4a7476b051901f,61036e803a8cf79310e47e80,2021-07-29_23h14.47.111,Simcolourproject_2stim_asymm_v5,2020.2.10,MacIntel,60,61025ae37ef11b136ea224fe,,,,,,,,,3422,82.91015625,-21.4921875,1,0,0,response3disk,,5,21.921875,3.80859375,1,0,0,rectangle,21.921875,3.80859375,1,0,0,21.921875,3.80859375,1,0,0,0,13,13,136,1,,,,,,,,
,,,,,,,,,,,,,FF,,,,,,,,1.20087,,,,,,,,,,,,,,,,,,,,,,60ff20504c4a7476b051901f,61036e803a8cf79310e47e80,2021-07-29_23h14.47.111,Simcolourproject_2stim_asymm_v5,2020.2.10,MacIntel,60,61025ae37ef11b136ea224fe,,,,,,,,,762,61.4765625,102.7070313,1,0,0,response1disk,,7,15.546875,9.55859375,1,0,0,rectangle,15.546875,9.55859375,1,0,0,15.546875,9.55859375,1,0,0,0,14,14,27,1,,,,,,,,
,,,,,,,,,,,,,FF,,,,,,,,0.78343,,,,,,,,,,,,,,,,,,,,,,60ff20504c4a7476b051901f,61036e803a8cf79310e47e80,2021-07-29_23h14.47.111,Simcolourproject_2stim_asymm_v5,2020.2.10,MacIntel,60,61025ae37ef11b136ea224fe,,,,,,,,,4325,31.69140625,63.88671875,1,0,0,response1disk,,7,7.69921875,-4.57421875,1,0,0,rectangle,7.69921875,-4.57421875,1,0,0,7.69921875,-4.57421875,1,0,0,0,15,15,104,1,,,,,,,,
,,,,,,,,,,,,,FF,,,,,,,,1.134765,,,,,,,,,,,,,,,,,,,,,,60ff20504c4a7476b051901f,61036e803a8cf79310e47e80,2021-07-29_23h14.47.111,Simcolourproject_2stim_asymm_v5,2020.2.10,MacIntel,60,61025ae37ef11b136ea224fe,,,,,,,,,4116,81.609375,27.88671875,1,0,0,response1disk,,6,0.75,2.3359375,1,0,0,rectangle,0.75,2.3359375,1,0,0,0.75,2.3359375,1,0,0,0,16,16,105,1,,,,,,,,
,,,,,,,,,,,,,FF,,,,,,,,2.00012,,,,,,,,,,,,,,,,,,,,,,60ff20504c4a7476b051901f,61036e803a8cf79310e47e80,2021-07-29_23h14.47.111,Simcolourproject_2stim_asymm_v5,2020.2.10,MacIntel,60,61025ae37ef11b136ea224fe,,,,,,,,,4193,32.35546875,46.65234375,1,0,0,response1disk,,7,19.61328125,4.9296875,1,0,0,rectangle,19.61328125,4.9296875,1,0,0,19.61328125,4.9296875,1,0,0,0,17,17,147,1,,,,,,,,
,,,,,,,,,,,,,FF,,,,,,,,1.082845,,,,,,,,,,,,,,,,,,,,,,60ff20504c4a7476b051901f,61036e803a8cf79310e47e80,2021-07-29_23h14.47.111,Simcolourproject_2stim_asymm_v5,2020.2.10,MacIntel,60,61025ae37ef11b136ea224fe,,,,,,,,,802,-35.67578125,-62.7109375,1,0,0,response5disk,,3,-16.8984375,7.33203125,1,0,0,rectangle,-16.8984375,7.33203125,1,0,0,-16.8984375,7.33203125,1,0,0,0,18,18,23,1,,,,,,,,
,,,,,,,,,,,,,FF,,,,,,,,1.31695,,,,,,,,,,,,,,,,,,,,,,60ff20504c4a7476b051901f,61036e803a8cf79310e47e80,2021-07-29_23h14.47.111,Simcolourproject_2stim_asymm_v5,2020.2.10,MacIntel,60,61025ae37ef11b136ea224fe,,,,,,,,,3738,51.08984375,-24,1,0,0,response3disk,,5,13.6328125,-1.99609375,1,0,0,rectangle,-28.73046875,-81.30078125,1,0,0,-11.91015625,9.4140625,1,0,0,0,19,19,63,1,,response5disk_3,TRUE,3,3,"[189,7,60,257,308,20,306,34,319,53,164,242,135,300,151,157,137,122,136,206]",2.067765,rectangle
,,,,,,,,,,,,,FF,,,,,,,,0.95038,,,,,,,,,,,,,,,,,,,,,,60ff20504c4a7476b051901f,61036e803a8cf79310e47e80,2021-07-29_23h14.47.111,Simcolourproject_2stim_asymm_v5,2020.2.10,MacIntel,60,61025ae37ef11b136ea224fe,,,,,,,,,5,-33.42578125,-70.25390625,1,0,0,response5disk,,3,-11.24609375,-4.4140625,1,0,0,rectangle,-11.24609375,-4.4140625,1,0,0,-11.24609375,-4.4140625,1,0,0,0,20,20,4,1,,,,,,,,
,,,,,,,,,,,,,FF,,,,,,,,1.316845,,,,,,,,,,,,,,,,,,,,,,60ff20504c4a7476b051901f,61036e803a8cf79310e47e80,2021-07-29_23h14.47.111,Simcolourproject_2stim_asymm_v5,2020.2.10,MacIntel,60,61025ae37ef11b136ea224fe,,,,,,,,,3015,42.5234375,84.07421875,1,0,0,response1disk,,7,16.375,6.26953125,1,0,0,rectangle,16.375,6.26953125,1,0,0,16.375,6.26953125,1,0,0,0,21,21,29,1,,,,,,,,
,,,,,,,,,,,,,FF,,,,,,,,1.767605,,,,,,,,,,,,,,,,,,,,,,60ff20504c4a7476b051901f,61036e803a8cf79310e47e80,2021-07-29_23h14.47.111,Simcolourproject_2stim_asymm_v5,2020.2.10,MacIntel,60,61025ae37ef11b136ea224fe,,,,,,,,,777,-22.34375,-68.59765625,1,0,0,response5disk,,3,-12.515625,4.91015625,1,0,0,rectangle,-12.515625,4.91015625,1,0,0,-12.515625,4.91015625,1,0,0,0,22,22,87,1,,,,,,,,
,,,,,,,,,,,,,FF,,,,,,,,0.96588,,,,,,,,,,,,,,,,,,,,,,60ff20504c4a7476b051901f,61036e803a8cf79310e47e80,2021-07-29_23h14.47.111,Simcolourproject_2stim_asymm_v5,2020.2.10,MacIntel,60,61025ae37ef11b136ea224fe,,,,,,,,,3087,25.62890625,-40.25,1,0,0,response3disk,,4,10.8671875,-5.9921875,1,0,0,rectangle,10.8671875,-5.9921875,1,0,0,10.8671875,-5.9921875,1,0,0,0,23,23,65,1,,,,,,,,
,,,,,,,,,,,,,FF,,,,,,,,1.016435,,,,,,,,,,,,,,,,,,,,,,60ff20504c4a7476b051901f,61036e803a8cf79310e47e80,2021-07-29_23h14.47.111,Simcolourproject_2stim_asymm_v5,2020.2.10,MacIntel,60,61025ae37ef11b136ea224fe,,,,,,,,,2463,57.69140625,-25.17578125,1,0,0,response3disk,,5,23.53125,-3.47265625,1,0,0,rectangle,23.53125,-3.47265625,1,0,0,23.53125,-3.47265625,1,0,0,0,24,24,89,1,,,,,,,,
,,,,,,,,,,,,,FF,,,,,,,,0.716725,,,,,,,,,,,,,,,,,,,,,,60ff20504c4a7476b051901f,61036e803a8cf79310e47e80,2021-07-29_23h14.47.111,Simcolourproject_2stim_asymm_v5,2020.2.10,MacIntel,60,61025ae37ef11b136ea224fe,,,,,,,,,3909,18.98828125,-56.12890625,1,0,0,response3disk,,4,13.21875,0.68359375,1,0,0,rectangle,13.21875,0.68359375,1,0,0,13.21875,0.68359375,1,0,0,0,25,25,114,1,,,,,,,,
,,,,,,,,,,,,,FF,,,,,,,,0.91567,,,,,,,,,,,,,,,,,,,,,,60ff20504c4a7476b051901f,61036e803a8cf79310e47e80,2021-07-29_23h14.47.111,Simcolourproject_2stim_asymm_v5,2020.2.10,MacIntel,60,61025ae37ef11b136ea224fe,,,,,,,,,1760,-30.0078125,-52.5390625,1,0,0,response5disk,,3,-10.4609375,-3.98828125,1,0,0,rectangle,-10.4609375,-3.98828125,1,0,0,-10.4609375,-3.98828125,1,0,0,0,26,26,60,1,,,,,,,,
,,,,,,,,,,,,,FF,,,,,,,,1.10049,,,,,,,,,,,,,,,,,,,,,,60ff20504c4a7476b051901f,61036e803a8cf79310e47e80,2021-07-29_23h14.47.111,Simcolourproject_2stim_asymm_v5,2020.2.10,MacIntel,60,61025ae37ef11b136ea224fe,,,,,,,,,3,-70.4609375,-33.6953125,1,0,0,response5disk,,2,-6.39453125,3.71484375,1,0,0,rectangle,-6.39453125,3.71484375,1,0,0,-6.39453125,3.71484375,1,0,0,0,27,27,101,1,,,,,,,,
,,,,,,,,,,,,,FF,,,,,,,,1.03241,,,,,,,,,,,,,,,,,,,,,,60ff20504c4a7476b051901f,61036e803a8cf79310e47e80,2021-07-29_23h14.47.111,Simcolourproject_2stim_asymm_v5,2020.2.10,MacIntel,60,61025ae37ef11b136ea224fe,,,,,,,,,108,27.28125,-50.6171875,1,0,0,response3disk,,4,12.08203125,-3.6640625,1,0,0,rectangle,12.08203125,-3.6640625,1,0,0,12.08203125,-3.6640625,1,0,0,0,28,28,120,1,,,,,,,,
,,,,,,,,,,,,,FF,,,,,,,,0.7844,,,,,,,,,,,,,,,,,,,,,,60ff20504c4a7476b051901f,61036e803a8cf79310e47e80,2021-07-29_23h14.47.111,Simcolourproject_2stim_asymm_v5,2020.2.10,MacIntel,60,61025ae37ef11b136ea224fe,,,,,,,,,4341,30.91796875,60.3203125,1,0,0,response1disk,,7,12.9609375,-1.10546875,1,0,0,rectangle,12.9609375,-1.10546875,1,0,0,12.9609375,-1.10546875,1,0,0,0,29,29,115,1,,,,,,,,
,,,,,,,,,,,,,FF,,,,,,,,1.299765,,,,,,,,,,,,,,,,,,,,,,60ff20504c4a7476b051901f,61036e803a8cf79310e47e80,2021-07-29_23h14.47.111,Simcolourproject_2stim_asymm_v5,2020.2.10,MacIntel,60,61025ae37ef11b136ea224fe,,,,,,,,,353,-17.2890625,-42.21484375,1,0,0,response5disk,,3,-17.2890625,-3.99609375,1,0,0,rectangle,-17.2890625,-3.99609375,1,0,0,-17.2890625,-3.99609375,1,0,0,0,30,30,92,1,,,,,,,,
,,,,,,,,,,,,,FF,,,,,,,,0.99979,,,,,,,,,,,,,,,,,,,,,,60ff20504c4a7476b051901f,61036e803a8cf79310e47e80,2021-07-29_23h14.47.111,Simcolourproject_2stim_asymm_v5,2020.2.10,MacIntel,60,61025ae37ef11b136ea224fe,,,,,,,,,294,32.7421875,61.0546875,1,0,0,response1disk,,7,0.94140625,6.40625,1,0,0,rectangle,0.94140625,6.40625,1,0,0,0.94140625,6.40625,1,0,0,0,31,31,25,1,,,,,,,,
,,,,,,,,,,,,,FF,,,,,,,,1.08476,,,,,,,,,,,,,,,,,,,,,,60ff20504c4a7476b051901f,61036e803a8cf79310e47e80,2021-07-29_23h14.47.111,Simcolourproject_2stim_asymm_v5,2020.2.10,MacIntel,60,61025ae37ef11b136ea224fe,,,,,,,,,3785,71.37890625,-19.42578125,1,0,0,response3disk,,5,23.9609375,-1.828125,1,0,0,rectangle,23.9609375,-1.828125,1,0,0,23.9609375,-1.828125,1,0,0,0,32,32,159,1,,,,,,,,
,,,,,,,,,,,,,FF,,,,,,,,1.13419,,,,,,,,,,,,,,,,,,,,,,60ff20504c4a7476b051901f,61036e803a8cf79310e47e80,2021-07-29_23h14.47.111,Simcolourproject_2stim_asymm_v5,2020.2.10,MacIntel,60,61025ae37ef11b136ea224fe,,,,,,,,,106,66.9296875,-31.078125,1,0,0,response3disk,,5,14.55078125,-10.75390625,1,0,0,rectangle,-41.47265625,-78.5703125,1,0,0,10.59375,6.125,1,0,0,0,33,33,127,1,,response5disk_3,TRUE,3,3,"[189,7,60,257,308,20,306,34,319,53,164,242,135,300,151,157,137,122,136,206]",1.832735,rectangle
,,,,,,,,,,,,,FF,,,,,,,,1.51712,,,,,,,,,,,,,,,,,,,,,,60ff20504c4a7476b051901f,61036e803a8cf79310e47e80,2021-07-29_23h14.47.111,Simcolourproject_2stim_asymm_v5,2020.2.10,MacIntel,60,61025ae37ef11b136ea224fe,,,,,,,,,491,68.640625,-26.31640625,1,0,0,response3disk,,5,-1.0234375,-2.07421875,1,0,0,rectangle,-1.0234375,-2.07421875,1,0,0,-1.0234375,-2.07421875,1,0,0,0,34,34,94,1,,,,,,,,
,,,,,,,,,,,,,FF,,,,,,,,0.73348,,,,,,,,,,,,,,,,,,,,,,60ff20504c4a7476b051901f,61036e803a8cf79310e47e80,2021-07-29_23h14.47.111,Simcolourproject_2stim_asymm_v5,2020.2.10,MacIntel,60,61025ae37ef11b136ea224fe,,,,,,,,,3767,41.046875,72.84765625,1,0,0,response1disk,,7,-5.29296875,-5.5859375,1,0,0,rectangle,-5.29296875,-5.5859375,1,0,0,-5.29296875,-5.5859375,1,0,0,0,35,35,116,1,,,,,,,,
,,,,,,,,,,,,,FF,,,,,,,,1.14904,,,,,,,,,,,,,,,,,,,,,,60ff20504c4a7476b051901f,61036e803a8cf79310e47e80,2021-07-29_23h14.47.111,Simcolourproject_2stim_asymm_v5,2020.2.10,MacIntel,60,61025ae37ef11b136ea224fe,,,,,,,,,4188,-57.90625,-37.75390625,1,0,0,response5disk,,2,-8.3515625,-1.30859375,1,0,0,rectangle,-8.3515625,-1.30859375,1,0,0,-8.3515625,-1.30859375,1,0,0,0,36,36,143,1,,,,,,,,
,,,,,,,,,,,,,FF,,,,,,,,0.95132,,,,,,,,,,,,,,,,,,,,,,60ff20504c4a7476b051901f,61036e803a8cf79310e47e80,2021-07-29_23h14.47.111,Simcolourproject_2stim_asymm_v5,2020.2.10,MacIntel,60,61025ae37ef11b136ea224fe,,,,,,,,,3255,68.453125,18.9765625,1,0,0,response1disk,,6,1.48046875,-1.84375,1,0,0,rectangle,1.48046875,-1.84375,1,0,0,1.48046875,-1.84375,1,0,0,0,37,37,152,1,,,,,,,,
,,,,,,,,,,,,,FF,,,,,,,,0.73314,,,,,,,,,,,,,,,,,,,,,,60ff20504c4a7476b051901f,61036e803a8cf79310e47e80,2021-07-29_23h14.47.111,Simcolourproject_2stim_asymm_v5,2020.2.10,MacIntel,60,61025ae37ef11b136ea224fe,,,,,,,,,3891,60.85546875,41.71875,1,0,0,response1disk,,6,24.40234375,14.08984375,1,0,0,rectangle,24.40234375,14.08984375,1,0,0,24.40234375,14.08984375,1,0,0,0,38,38,72,1,,,,,,,,
,,,,,,,,,,,,,FF,,,,,,,,0.799745,,,,,,,,,,,,,,,,,,,,,,60ff20504c4a7476b051901f,61036e803a8cf79310e47e80,2021-07-29_23h14.47.111,Simcolourproject_2stim_asymm_v5,2020.2.10,MacIntel,60,61025ae37ef11b136ea224fe,,,,,,,,,574,28.26171875,62.703125,1,0,0,response1disk,,7,23.125,8.23046875,1,0,0,rectangle,23.125,8.23046875,1,0,0,23.125,8.23046875,1,0,0,0,39,39,86,1,,,,,,,,
,,,,,,,,,,,,,FF,,,,,,,,0.96713,,,,,,,,,,,,,,,,,,,,,,60ff20504c4a7476b051901f,61036e803a8cf79310e47e80,2021-07-29_23h14.47.111,Simcolourproject_2stim_asymm_v5,2020.2.10,MacIntel,60,61025ae37ef11b136ea224fe,,,,,,,,,2722,18.53515625,-72.40234375,1,0,0,response3disk,,4,6.21484375,-11.9296875,1,0,0,rectangle,6.21484375,-11.9296875,1,0,0,6.21484375,-11.9296875,1,0,0,0,40,40,17,1,,,,,,,,
,,,,,,,,,,,,,FF,,,,,,,,1.082465,,,,,,,,,,,,,,,,,,,,,,60ff20504c4a7476b051901f,61036e803a8cf79310e47e80,2021-07-29_23h14.47.111,Simcolourproject_2stim_asymm_v5,2020.2.10,MacIntel,60,61025ae37ef11b136ea224fe,,,,,,,,,3493,49.84375,44.17578125,1,0,0,response1disk,,6,13.046875,-12.28515625,1,0,0,rectangle,13.046875,-12.28515625,1,0,0,13.046875,-12.28515625,1,0,0,0,41,41,34,1,,,,,,,,
,,,,,,,,,,,,,FF,,,,,,,,1.06638,,,,,,,,,,,,,,,,,,,,,,60ff20504c4a7476b051901f,61036e803a8cf79310e47e80,2021-07-29_23h14.47.111,Simcolourproject_2stim_asymm_v5,2020.2.10,MacIntel,60,61025ae37ef11b136ea224fe,,,,,,,,,2247,27.859375,53.984375,1,0,0,response1disk,,7,21.7421875,3.05859375,1,0,0,rectangle,21.7421875,3.05859375,1,0,0,21.7421875,3.05859375,1,0,0,0,42,42,154,1,,,,,,,,
,,,,,,,,,,,,,FF,,,,,,,,0.749475,,,,,,,,,,,,,,,,,,,,,,60ff20504c4a7476b051901f,61036e803a8cf79310e47e80,2021-07-29_23h14.47.111,Simcolourproject_2stim_asymm_v5,2020.2.10,MacIntel,60,61025ae37ef11b136ea224fe,,,,,,,,,1009,26.66015625,49.94140625,1,0,0,response1disk,,7,23.765625,9.60546875,1,0,0,rectangle,23.765625,9.60546875,1,0,0,23.765625,9.60546875,1,0,0,0,43,43,93,1,,,,,,,,
,,,,,,,,,,,,,FF,,,,,,,,1.233795,,,,,,,,,,,,,,,,,,,,,,60ff20504c4a7476b051901f,61036e803a8cf79310e47e80,2021-07-29_23h14.47.111,Simcolourproject_2stim_asymm_v5,2020.2.10,MacIntel,60,61025ae37ef11b136ea224fe,,,,,,,,,1162,65.8828125,-20.921875,1,0,0,response3disk,,5,-1.72265625,2.546875,1,0,0,rectangle,-1.72265625,2.546875,1,0,0,-1.72265625,2.546875,1,0,0,0,44,44,142,1,,,,,,,,
,,,,,,,,,,,,,FF,,,,,,,,1.20034,,,,,,,,,,,,,,,,,,,,,,60ff20504c4a7476b051901f,61036e803a8cf79310e47e80,2021-07-29_23h14.47.111,Simcolourproject_2stim_asymm_v5,2020.2.10,MacIntel,60,61025ae37ef11b136ea224fe,,,,,,,,,310,27.72265625,58.58984375,1,0,0,response1disk,,7,12.6328125,14.0625,1,0,0,rectangle,12.6328125,14.0625,1,0,0,12.6328125,14.0625,1,0,0,0,45,45,123,1,,,,,,,,
,,,,,,,,,,,,,FF,,,,,,,,1.382275,,,,,,,,,,,,,,,,,,,,,,60ff20504c4a7476b051901f,61036e803a8cf79310e47e80,2021-07-29_23h14.47.111,Simcolourproject_2stim_asymm_v5,2020.2.10,MacIntel,60,61025ae37ef11b136ea224fe,,,,,,,,,977,59.87109375,-20.63671875,1,0,0,response3disk,,5,12.984375,-1.7890625,1,0,0,rectangle,12.984375,-1.7890625,1,0,0,12.984375,-1.7890625,1,0,0,0,46,46,91,1,,,,,,,,
,,,,,,,,,,,,,FF,,,,,,,,0.866845,,,,,,,,,,,,,,,,,,,,,,60ff20504c4a7476b051901f,61036e803a8cf79310e47e80,2021-07-29_23h14.47.111,Simcolourproject_2stim_asymm_v5,2020.2.10,MacIntel,60,61025ae37ef11b136ea224fe,,,,,,,,,4155,25.15234375,45.265625,1,0,0,response1disk,,7,16.27734375,11.234375,1,0,0,rectangle,16.27734375,11.234375,1,0,0,16.27734375,11.234375,1,0,0,0,47,47,130,1,,,,,,,,
,,,,,,,,,,,,,FF,,,,,,,,0.90187,,,,,,,,,,,,,,,,,,,,,,60ff20504c4a7476b051901f,61036e803a8cf79310e47e80,2021-07-29_23h14.47.111,Simcolourproject_2stim_asymm_v5,2020.2.10,MacIntel,60,61025ae37ef11b136ea224fe,,,,,,,,,2444,31.0859375,75.3828125,1,0,0,response1disk,,7,18.6953125,8.875,1,0,0,rectangle,18.6953125,8.875,1,0,0,18.6953125,8.875,1,0,0,0,48,48,13,1,,,,,,,,
,,,,,,,,,,,,,FF,,,,,,,,0.731665,,,,,,,,,,,,,,,,,,,,,,60ff20504c4a7476b051901f,61036e803a8cf79310e47e80,2021-07-29_23h14.47.111,Simcolourproject_2stim_asymm_v5,2020.2.10,MacIntel,60,61025ae37ef11b136ea224fe,,,,,,,,,3577,33.3984375,75.5078125,1,0,0,response1disk,,7,24.0234375,8.72265625,1,0,0,rectangle,24.0234375,8.72265625,1,0,0,24.0234375,8.72265625,1,0,0,0,49,49,26,1,,,,,,,,
,,,,,,,,,,,,,FF,,,,,,,,1.384485,,,,,,,,,,,,,,,,,,,,,,60ff20504c4a7476b051901f,61036e803a8cf79310e47e80,2021-07-29_23h14.47.111,Simcolourproject_2stim_asymm_v5,2020.2.10,MacIntel,60,61025ae37ef11b136ea224fe,,,,,,,,,8,51.13671875,-73.14453125,1,0,0,response3disk,,4,-16.54296875,13.77734375,1,0,0,rectangle,-16.54296875,13.77734375,1,0,0,-16.54296875,13.77734375,1,0,0,0,50,50,0,1,,,,,,,,
,,,,,,,,,,,,,FF,,,,,,,,1.36771,,,,,,,,,,,,,,,,,,,,,,60ff20504c4a7476b051901f,61036e803a8cf79310e47e80,2021-07-29_23h14.47.111,Simcolourproject_2stim_asymm_v5,2020.2.10,MacIntel,60,61025ae37ef11b136ea224fe,,,,,,,,,693,17.90234375,-57.796875,1,0,0,response3disk,,4,7.40625,1.390625,1,0,0,rectangle,7.40625,1.390625,1,0,0,7.40625,1.390625,1,0,0,0,51,51,137,1,,,,,,,,
,,,,,,,,,,,,,FF,,,,,,,,1.20277,,,,,,,,,,,,,,,,,,,,,,60ff20504c4a7476b051901f,61036e803a8cf79310e47e80,2021-07-29_23h14.47.111,Simcolourproject_2stim_asymm_v5,2020.2.10,MacIntel,60,61025ae37ef11b136ea224fe,,,,,,,,,4105,29.12890625,-55.6015625,1,0,0,response3disk,,4,11.12109375,-2.8828125,1,0,0,rectangle,78.1171875,26.1328125,1,0,0,16.953125,7.17578125,1,0,0,0,52,52,106,1,,response1disk_3,TRUE,6,6,"[189,7,60,257,308,20,306,34,319,53,164,242,135,300,151,157,137,122,136,206]",1.86643,rectangle
,,,,,,,,,,,,,FF,,,,,,,,1.20063,,,,,,,,,,,,,,,,,,,,,,60ff20504c4a7476b051901f,61036e803a8cf79310e47e80,2021-07-29_23h14.47.111,Simcolourproject_2stim_asymm_v5,2020.2.10,MacIntel,60,61025ae37ef11b136ea224fe,,,,,,,,,3496,49.8359375,33.58203125,1,0,0,response1disk,,6,15.47265625,6.5,1,0,0,rectangle,15.47265625,6.5,1,0,0,15.47265625,6.5,1,0,0,0,53,53,21,1,,,,,,,,
,,,,,,,,,,,,,FF,,,,,,,,0.64913,,,,,,,,,,,,,,,,,,,,,,60ff20504c4a7476b051901f,61036e803a8cf79310e47e80,2021-07-29_23h14.47.111,Simcolourproject_2stim_asymm_v5,2020.2.10,MacIntel,60,61025ae37ef11b136ea224fe,,,,,,,,,3486,69.859375,35.41015625,1,0,0,response1disk,,6,20.12890625,10.62890625,1,0,0,rectangle,20.12890625,10.62890625,1,0,0,20.12890625,10.62890625,1,0,0,0,54,54,58,1,,,,,,,,
,,,,,,,,,,,,,FF,,,,,,,,0.966385,,,,,,,,,,,,,,,,,,,,,,60ff20504c4a7476b051901f,61036e803a8cf79310e47e80,2021-07-29_23h14.47.111,Simcolourproject_2stim_asymm_v5,2020.2.10,MacIntel,60,61025ae37ef11b136ea224fe,,,,,,,,,2224,57.98046875,-30.8984375,1,0,0,response3disk,,5,26.1640625,-6.73828125,1,0,0,rectangle,26.1640625,-6.73828125,1,0,0,26.1640625,-6.73828125,1,0,0,0,55,55,111,1,,,,,,,,
,,,,,,,,,,,,,FF,,,,,,,,1.149915,,,,,,,,,,,,,,,,,,,,,,60ff20504c4a7476b051901f,61036e803a8cf79310e47e80,2021-07-29_23h14.47.111,Simcolourproject_2stim_asymm_v5,2020.2.10,MacIntel,60,61025ae37ef11b136ea224fe,,,,,,,,,3779,35.609375,53.140625,1,0,0,response1disk,,7,17.73828125,-3.74609375,1,0,0,rectangle,17.73828125,-3.74609375,1,0,0,17.73828125,-3.74609375,1,0,0,0,56,56,82,1,,,,,,,,
,,,,,,,,,,,,,FF,,,,,,,,2.30084,,,,,,,,,,,,,,,,,,,,,,60ff20504c4a7476b051901f,61036e803a8cf79310e47e80,2021-07-29_23h14.47.111,Simcolourproject_2stim_asymm_v5,2020.2.10,MacIntel,60,61025ae37ef11b136ea224fe,,,,,,,,,3463,19.33984375,46.359375,1,0,0,response1disk,,7,19.33984375,-8.7578125,1,0,0,rectangle,19.33984375,-8.7578125,1,0,0,19.33984375,-8.7578125,1,0,0,0,57,57,42,1,,,,,,,,
,,,,,,,,,,,,,FF,,,,,,,,1.099265,,,,,,,,,,,,,,,,,,,,,,60ff20504c4a7476b051901f,61036e803a8cf79310e47e80,2021-07-29_23h14.47.111,Simcolourproject_2stim_asymm_v5,2020.2.10,MacIntel,60,61025ae37ef11b136ea224fe,,,,,,,,,4159,40.13671875,76.484375,1,0,0,response1disk,,7,18.7109375,15.18359375,1,0,0,rectangle,18.7109375,15.18359375,1,0,0,18.7109375,15.18359375,1,0,0,0,58,58,80,1,,,,,,,,
,,,,,,,,,,,,,FF,,,,,,,,1.11729,,,,,,,,,,,,,,,,,,,,,,60ff20504c4a7476b051901f,61036e803a8cf79310e47e80,2021-07-29_23h14.47.111,Simcolourproject_2stim_asymm_v5,2020.2.10,MacIntel,60,61025ae37ef11b136ea224fe,,,,,,,,,3856,67.56640625,41.96875,1,0,0,response1disk,,6,-4.8359375,-3.34375,1,0,0,rectangle,70.5625,40.30859375,1,0,0,23.34375,13.3515625,1,0,0,0,59,59,126,1,,response1disk_3,TRUE,6,6,"[189,7,60,257,308,20,306,34,319,53,164,242,135,300,151,157,137,122,136,206]",1.199285,rectangle
,,,,,,,,,,,,,FF,,,,,,,,1.867475,,,,,,,,,,,,,,,,,,,,,,60ff20504c4a7476b051901f,61036e803a8cf79310e47e80,2021-07-29_23h14.47.111,Simcolourproject_2stim_asymm_v5,2020.2.10,MacIntel,60,61025ae37ef11b136ea224fe,,,,,,,,,655,37.9140625,-51.37890625,1,0,0,response3disk,,4,12.9453125,-6.44140625,1,0,0,rectangle,12.9453125,-6.44140625,1,0,0,12.9453125,-6.44140625,1,0,0,0,60,60,157,1,,,,,,,,
,,,,,,,,,,,,,FF,,,,,,,,1.684565,,,,,,,,,,,,,,,,,,,,,,60ff20504c4a7476b051901f,61036e803a8cf79310e47e80,2021-07-29_23h14.47.111,Simcolourproject_2stim_asymm_v5,2020.2.10,MacIntel,60,61025ae37ef11b136ea224fe,,,,,,,,,1194,-23.86328125,-54.234375,1,0,0,response5disk,,3,-16.29296875,-11.53515625,1,0,0,rectangle,-16.29296875,-11.53515625,1,0,0,-16.29296875,-11.53515625,1,0,0,0,61,61,96,1,,,,,,,,
,,,,,,,,,,,,,FF,,,,,,,,1.887055,,,,,,,,,,,,,,,,,,,,,,60ff20504c4a7476b051901f,61036e803a8cf79310e47e80,2021-07-29_23h14.47.111,Simcolourproject_2stim_asymm_v5,2020.2.10,MacIntel,60,61025ae37ef11b136ea224fe,,,,,,,,,2852,34.39453125,62.796875,1,0,0,response1disk,,7,-1.1875,-0.53515625,1,0,0,rectangle,-1.1875,-0.53515625,1,0,0,-1.1875,-0.53515625,1,0,0,0,62,62,68,1,,,,,,,,
,,,,,,,,,,,,,FF,,,,,,,,0.799305,,,,,,,,,,,,,,,,,,,,,,60ff20504c4a7476b051901f,61036e803a8cf79310e47e80,2021-07-29_23h14.47.111,Simcolourproject_2stim_asymm_v5,2020.2.10,MacIntel,60,61025ae37ef11b136ea224fe,,,,,,,,,4178,28.11328125,52.2109375,1,0,0,response1disk,,7,4.8984375,-2.73046875,1,0,0,rectangle,4.8984375,-2.73046875,1,0,0,4.8984375,-2.73046875,1,0,0,0,63,63,74,1,,,,,,,,
,,,,,,,,,,,,,FF,,,,,,,,1.319505,,,,,,,,,,,,,,,,,,,,,,60ff20504c4a7476b051901f,61036e803a8cf79310e47e80,2021-07-29_23h14.47.111,Simcolourproject_2stim_asymm_v5,2020.2.10,MacIntel,60,61025ae37ef11b136ea224fe,,,,,,,,,3784,70.40234375,35.4609375,1,0,0,response1disk,,6,2.828125,6.96875,1,0,0,rectangle,2.828125,6.96875,1,0,0,2.828125,6.96875,1,0,0,0,64,64,61,1,,,,,,,,
,,,,,,,,,,,,,FF,,,,,,,,2.133155,,,,,,,,,,,,,,,,,,,,,,60ff20504c4a7476b051901f,61036e803a8cf79310e47e80,2021-07-29_23h14.47.111,Simcolourproject_2stim_asymm_v5,2020.2.10,MacIntel,60,61025ae37ef11b136ea224fe,,,,,,,,,912,53.17578125,41.8828125,1,0,0,response1disk,,6,21.23828125,0.21875,1,0,0,rectangle,21.23828125,0.21875,1,0,0,21.23828125,0.21875,1,0,0,0,65,65,85,1,,,,,,,,
,,,,,,,,,,,,,FF,,,,,,,,1.383115,,,,,,,,,,,,,,,,,,,,,,60ff20504c4a7476b051901f,61036e803a8cf79310e47e80,2021-07-29_23h14.47.111,Simcolourproject_2stim_asymm_v5,2020.2.10,MacIntel,60,61025ae37ef11b136ea224fe,,,,,,,,,1954,60.171875,69.3984375,1,0,0,response1disk,,7,7.4921875,-10.76953125,1,0,0,rectangle,7.4921875,-10.76953125,1,0,0,7.4921875,-10.76953125,1,0,0,0,66,66,9,1,,,,,,,,
,,,,,,,,,,,,,FF,,,,,,,,1.68258,,,,,,,,,,,,,,,,,,,,,,60ff20504c4a7476b051901f,61036e803a8cf79310e47e80,2021-07-29_23h14.47.111,Simcolourproject_2stim_asymm_v5,2020.2.10,MacIntel,60,61025ae37ef11b136ea224fe,,,,,,,,,338,80.4375,51.7109375,1,0,0,response1disk,,6,6.8671875,3.734375,1,0,0,rectangle,6.8671875,3.734375,1,0,0,6.8671875,3.734375,1,0,0,0,67,67,113,1,,,,,,,,
,,,,,,,,,,,,,FF,,,,,,,,0.618915,,,,,,,,,,,,,,,,,,,,,,60ff20504c4a7476b051901f,61036e803a8cf79310e47e80,2021-07-29_23h14.47.111,Simcolourproject_2stim_asymm_v5,2020.2.10,MacIntel,60,61025ae37ef11b136ea224fe,,,,,,,,,4301,45.00390625,78.79296875,1,0,0,response1disk,,7,8.515625,4.69140625,1,0,0,rectangle,8.515625,4.69140625,1,0,0,8.515625,4.69140625,1,0,0,0,68,68,59,1,,,,,,,,
,,,,,,,,,,,,,FF,,,,,,,,0.86734,,,,,,,,,,,,,,,,,,,,,,60ff20504c4a7476b051901f,61036e803a8cf79310e47e80,2021-07-29_23h14.47.111,Simcolourproject_2stim_asymm_v5,2020.2.10,MacIntel,60,61025ae37ef11b136ea224fe,,,,,,,,,356,75.3515625,-19.34375,1,0,0,response3disk,,5,12.80859375,-1.953125,1,0,0,rectangle,12.80859375,-1.953125,1,0,0,12.80859375,-1.953125,1,0,0,0,69,69,53,1,,,,,,,,
,,,,,,,,,,,,,FF,,,,,,,,0.883525,,,,,,,,,,,,,,,,,,,,,,60ff20504c4a7476b051901f,61036e803a8cf79310e47e80,2021-07-29_23h14.47.111,Simcolourproject_2stim_asymm_v5,2020.2.10,MacIntel,60,61025ae37ef11b136ea224fe,,,,,,,,,1947,31.09765625,-47.59765625,1,0,0,response3disk,,4,18.20703125,0.47265625,1,0,0,rectangle,18.20703125,0.47265625,1,0,0,18.20703125,0.47265625,1,0,0,0,70,70,88,1,,,,,,,,
,,,,,,,,,,,,,FF,,,,,,,,1.36513,,,,,,,,,,,,,,,,,,,,,,60ff20504c4a7476b051901f,61036e803a8cf79310e47e80,2021-07-29_23h14.47.111,Simcolourproject_2stim_asymm_v5,2020.2.10,MacIntel,60,61025ae37ef11b136ea224fe,,,,,,,,,4287,35.73046875,52.5546875,1,0,0,response1disk,,7,19.55859375,9.2109375,1,0,0,rectangle,19.55859375,9.2109375,1,0,0,19.55859375,9.2109375,1,0,0,0,71,71,33,1,,,,,,,,
,,,,,,,,,,,,,FF,,,,,,,,2.267295,,,,,,,,,,,,,,,,,,,,,,60ff20504c4a7476b051901f,61036e803a8cf79310e47e80,2021-07-29_23h14.47.111,Simcolourproject_2stim_asymm_v5,2020.2.10,MacIntel,60,61025ae37ef11b136ea224fe,,,,,,,,,1211,-37.8359375,68.0859375,1,0,0,response7disk,,0,11.75,2.09375,1,0,0,rectangle,11.75,2.09375,1,0,0,11.75,2.09375,1,0,0,0,72,72,2,1,,,,,,,,
,,,,,,,,,,,,,FF,,,,,,,,0.78337,,,,,,,,,,,,,,,,,,,,,,60ff20504c4a7476b051901f,61036e803a8cf79310e47e80,2021-07-29_23h14.47.111,Simcolourproject_2stim_asymm_v5,2020.2.10,MacIntel,60,61025ae37ef11b136ea224fe,,,,,,,,,225,38.42578125,66.51171875,1,0,0,response1disk,,7,6.2890625,-2.68359375,1,0,0,rectangle,6.2890625,-2.68359375,1,0,0,6.2890625,-2.68359375,1,0,0,0,73,73,135,1,,,,,,,,
,,,,,,,,,,,,,FF,,,,,,,,0.91648,,,,,,,,,,,,,,,,,,,,,,60ff20504c4a7476b051901f,61036e803a8cf79310e47e80,2021-07-29_23h14.47.111,Simcolourproject_2stim_asymm_v5,2020.2.10,MacIntel,60,61025ae37ef11b136ea224fe,,,,,,,,,1228,-59.55859375,-27.6015625,1,0,0,response5disk,,2,5.07421875,4.2421875,1,0,0,rectangle,5.07421875,4.2421875,1,0,0,5.07421875,4.2421875,1,0,0,0,74,74,55,1,,,,,,,,
,,,,,,,,,,,,,FF,,,,,,,,1.199595,,,,,,,,,,,,,,,,,,,,,,60ff20504c4a7476b051901f,61036e803a8cf79310e47e80,2021-07-29_23h14.47.111,Simcolourproject_2stim_asymm_v5,2020.2.10,MacIntel,60,61025ae37ef11b136ea224fe,,,,,,,,,3440,33.015625,60.91796875,1,0,0,response1disk,,7,7.921875,-1.765625,1,0,0,rectangle,7.921875,-1.765625,1,0,0,7.921875,-1.765625,1,0,0,0,75,75,14,1,,,,,,,,
,,,,,,,,,,,,,FF,,,,,,,,0.899585,,,,,,,,,,,,,,,,,,,,,,60ff20504c4a7476b051901f,61036e803a8cf79310e47e80,2021-07-29_23h14.47.111,Simcolourproject_2stim_asymm_v5,2020.2.10,MacIntel,60,61025ae37ef11b136ea224fe,,,,,,,,,1748,-65.7890625,-41.46484375,1,0,0,response5disk,,2,3.48046875,8.765625,1,0,0,rectangle,3.48046875,8.765625,1,0,0,3.48046875,8.765625,1,0,0,0,76,76,95,1,,,,,,,,
,,,,,,,,,,,,,FF,,,,,,,,1.73314,,,,,,,,,,,,,,,,,,,,,,60ff20504c4a7476b051901f,61036e803a8cf79310e47e80,2021-07-29_23h14.47.111,Simcolourproject_2stim_asymm_v5,2020.2.10,MacIntel,60,61025ae37ef11b136ea224fe,,,,,,,,,3935,-43.0078125,-89.01953125,1,0,0,response5disk,,3,-10.1875,-0.16796875,1,0,0,rectangle,-10.1875,-0.16796875,1,0,0,-10.1875,-0.16796875,1,0,0,0,77,77,128,1,,,,,,,,
,,,,,,,,,,,,,FF,,,,,,,,0.833405,,,,,,,,,,,,,,,,,,,,,,60ff20504c4a7476b051901f,61036e803a8cf79310e47e80,2021-07-29_23h14.47.111,Simcolourproject_2stim_asymm_v5,2020.2.10,MacIntel,60,61025ae37ef11b136ea224fe,,,,,,,,,3020,57.19921875,79.98046875,1,0,0,response1disk,,7,-9.82421875,-8.13671875,1,0,0,rectangle,-9.82421875,-8.13671875,1,0,0,-9.82421875,-8.13671875,1,0,0,0,78,78,52,1,,,,,,,,
,,,,,,,,,,,,,FF,,,,,,,,1.00098,,,,,,,,,,,,,,,,,,,,,,60ff20504c4a7476b051901f,61036e803a8cf79310e47e80,2021-07-29_23h14.47.111,Simcolourproject_2stim_asymm_v5,2020.2.10,MacIntel,60,61025ae37ef11b136ea224fe,,,,,,,,,2663,42.12109375,-56.4609375,1,0,0,response3disk,,4,9.4609375,-4.359375,1,0,0,rectangle,9.4609375,-4.359375,1,0,0,9.4609375,-4.359375,1,0,0,0,79,79,140,1,,,,,,,,
,,,,,,,,,,,,,FF,,,,,,,,0.80012,,,,,,,,,,,,,,,,,,,,,,60ff20504c4a7476b051901f,61036e803a8cf79310e47e80,2021-07-29_23h14.47.111,Simcolourproject_2stim_asymm_v5,2020.2.10,MacIntel,60,61025ae37ef11b136ea224fe,,,,,,,,,3263,26.57421875,51.171875,1,0,0,response1disk,,7,8.05078125,-4.93359375,1,0,0,rectangle,8.05078125,-4.93359375,1,0,0,8.05078125,-4.93359375,1,0,0,0,80,80,107,1,,,,,,,,
,,,,,,,,,,,,,FF,,,,,,,,0.66589,,,,,,,,,,,,,,,,,,,,,,60ff20504c4a7476b051901f,61036e803a8cf79310e47e80,2021-07-29_23h14.47.111,Simcolourproject_2stim_asymm_v5,2020.2.10,MacIntel,60,61025ae37ef11b136ea224fe,,,,,,,,,1389,65.203125,33.75390625,1,0,0,response1disk,,6,-0.6328125,11.89453125,1,0,0,rectangle,-0.6328125,11.89453125,1,0,0,-0.6328125,11.89453125,1,0,0,0,81,81,24,1,,,,,,,,
,,,,,,,,,,,,,FF,,,,,,,,1.286085,,,,,,,,,,,,,,,,,,,,,,60ff20504c4a7476b051901f,61036e803a8cf79310e47e80,2021-07-29_23h14.47.111,Simcolourproject_2stim_asymm_v5,2020.2.10,MacIntel,60,61025ae37ef11b136ea224fe,,,,,,,,,248,54.3828125,-34.0078125,1,0,0,response3disk,,5,22.4921875,-5.6953125,1,0,0,rectangle,22.4921875,-5.6953125,1,0,0,22.4921875,-5.6953125,1,0,0,0,82,82,41,1,,,,,,,,
,,,,,,,,,,,,,FF,,,,,,,,2.28477,,,,,,,,,,,,,,,,,,,,,,60ff20504c4a7476b051901f,61036e803a8cf79310e47e80,2021-07-29_23h14.47.111,Simcolourproject_2stim_asymm_v5,2020.2.10,MacIntel,60,61025ae37ef11b136ea224fe,,,,,,,,,1160,54.7421875,22.08203125,1,0,0,response1disk,,6,6.21484375,4.7265625,1,0,0,rectangle,6.21484375,4.7265625,1,0,0,6.21484375,4.7265625,1,0,0,0,83,83,50,1,,,,,,,,
,,,,,,,,,,,,,FF,,,,,,,,0.917315,,,,,,,,,,,,,,,,,,,,,,60ff20504c4a7476b051901f,61036e803a8cf79310e47e80,2021-07-29_23h14.47.111,Simcolourproject_2stim_asymm_v5,2020.2.10,MacIntel,60,61025ae37ef11b136ea224fe,,,,,,,,,2047,25.328125,-45.140625,1,0,0,response3disk,,4,4.83984375,5.08203125,1,0,0,rectangle,4.83984375,5.08203125,1,0,0,4.83984375,5.08203125,1,0,0,0,84,84,69,1,,,,,,,,
,,,,,,,,,,,,,FF,,,,,,,,1.31716,,,,,,,,,,,,,,,,,,,,,,60ff20504c4a7476b051901f,61036e803a8cf79310e47e80,2021-07-29_23h14.47.111,Simcolourproject_2stim_asymm_v5,2020.2.10,MacIntel,60,61025ae37ef11b136ea224fe,,,,,,,,,1934,84.19921875,17.72265625,1,0,0,response1disk,,6,18.3671875,-6.41796875,1,0,0,rectangle,18.3671875,-6.41796875,1,0,0,18.3671875,-6.41796875,1,0,0,0,85,85,43,1,,,,,,,,
,,,,,,,,,,,,,FF,,,,,,,,1.015705,,,,,,,,,,,,,,,,,,,,,,60ff20504c4a7476b051901f,61036e803a8cf79310e47e80,2021-07-29_23h14.47.111,Simcolourproject_2stim_asymm_v5,2020.2.10,MacIntel,60,61025ae37ef11b136ea224fe,,,,,,,,,1114,35.33984375,-57.37109375,1,0,0,response3disk,,4,6.34375,6.06640625,1,0,0,rectangle,6.34375,6.06640625,1,0,0,6.34375,6.06640625,1,0,0,0,86,86,30,1,,,,,,,,
,,,,,,,,,,,,,FF,,,,,,,,0.600955,,,,,,,,,,,,,,,,,,,,,,60ff20504c4a7476b051901f,61036e803a8cf79310e47e80,2021-07-29_23h14.47.111,Simcolourproject_2stim_asymm_v5,2020.2.10,MacIntel,60,61025ae37ef11b136ea224fe,,,,,,,,,1409,-35.9375,-57.76171875,1,0,0,response5disk,,3,-16.34765625,-1.4921875,1,0,0,rectangle,-16.34765625,-1.4921875,1,0,0,-16.34765625,-1.4921875,1,0,0,0,87,87,7,1,,,,,,,,
,,,,,,,,,,,,,FF,,,,,,,,1.686585,,,,,,,,,,,,,,,,,,,,,,60ff20504c4a7476b051901f,61036e803a8cf79310e47e80,2021-07-29_23h14.47.111,Simcolourproject_2stim_asymm_v5,2020.2.10,MacIntel,60,61025ae37ef11b136ea224fe,,,,,,,,,798,67.12109375,28.06640625,1,0,0,response1disk,,6,-2.05859375,-12.9453125,1,0,0,rectangle,-2.05859375,-12.9453125,1,0,0,-2.05859375,-12.9453125,1,0,0,0,88,88,151,1,,,,,,,,
,,,,,,,,,,,,,FF,,,,,,,,1.316,,,,,,,,,,,,,,,,,,,,,,60ff20504c4a7476b051901f,61036e803a8cf79310e47e80,2021-07-29_23h14.47.111,Simcolourproject_2stim_asymm_v5,2020.2.10,MacIntel,60,61025ae37ef11b136ea224fe,,,,,,,,,3868,62.53125,42.34765625,1,0,0,response1disk,,6,-0.92578125,0.5078125,1,0,0,rectangle,-0.92578125,0.5078125,1,0,0,-0.92578125,0.5078125,1,0,0,0,89,89,90,1,,,,,,,,
,,,,,,,,,,,,,FF,,,,,,,,0.699765,,,,,,,,,,,,,,,,,,,,,,60ff20504c4a7476b051901f,61036e803a8cf79310e47e80,2021-07-29_23h14.47.111,Simcolourproject_2stim_asymm_v5,2020.2.10,MacIntel,60,61025ae37ef11b136ea224fe,,,,,,,,,1330,66.12109375,-24.96484375,1,0,0,response3disk,,5,18.25390625,4.1015625,1,0,0,rectangle,18.25390625,4.1015625,1,0,0,18.25390625,4.1015625,1,0,0,0,90,90,100,1,,,,,,,,
,,,,,,,,,,,,,FF,,,,,,,,0.549995,,,,,,,,,,,,,,,,,,,,,,60ff20504c4a7476b051901f,61036e803a8cf79310e47e80,2021-07-29_23h14.47.111,Simcolourproject_2stim_asymm_v5,2020.2.10,MacIntel,60,61025ae37ef11b136ea224fe,,,,,,,,,136,20.40234375,42.88671875,1,0,0,response1disk,,7,19.71484375,17.72265625,1,0,0,rectangle,19.71484375,17.72265625,1,0,0,19.71484375,17.72265625,1,0,0,0,91,91,11,1,,,,,,,,
,,,,,,,,,,,,,FF,,,,,,,,0.783555,,,,,,,,,,,,,,,,,,,,,,60ff20504c4a7476b051901f,61036e803a8cf79310e47e80,2021-07-29_23h14.47.111,Simcolourproject_2stim_asymm_v5,2020.2.10,MacIntel,60,61025ae37ef11b136ea224fe,,,,,,,,,1820,26.59375,-43.1484375,1,0,0,response3disk,,4,13.33984375,8.13671875,1,0,0,rectangle,13.33984375,8.13671875,1,0,0,13.33984375,8.13671875,1,0,0,0,92,92,38,1,,,,,,,,
,,,,,,,,,,,,,FF,,,,,,,,0.700685,,,,,,,,,,,,,,,,,,,,,,60ff20504c4a7476b051901f,61036e803a8cf79310e47e80,2021-07-29_23h14.47.111,Simcolourproject_2stim_asymm_v5,2020.2.10,MacIntel,60,61025ae37ef11b136ea224fe,,,,,,,,,1680,18.75390625,-45.796875,1,0,0,response3disk,,4,10.63671875,-5.8671875,1,0,0,rectangle,10.63671875,-5.8671875,1,0,0,10.63671875,-5.8671875,1,0,0,0,93,93,15,1,,,,,,,,
,,,,,,,,,,,,,FF,,,,,,,,1.983605,,,,,,,,,,,,,,,,,,,,,,60ff20504c4a7476b051901f,61036e803a8cf79310e47e80,2021-07-29_23h14.47.111,Simcolourproject_2stim_asymm_v5,2020.2.10,MacIntel,60,61025ae37ef11b136ea224fe,,,,,,,,,3031,48.796875,20.08984375,1,0,0,response1disk,,6,-4.375,-1.453125,1,0,0,rectangle,-4.375,-1.453125,1,0,0,-4.375,-1.453125,1,0,0,0,94,94,39,1,,,,,,,,
,,,,,,,,,,,,,FF,,,,,,,,0.716605,,,,,,,,,,,,,,,,,,,,,,60ff20504c4a7476b051901f,61036e803a8cf79310e47e80,2021-07-29_23h14.47.111,Simcolourproject_2stim_asymm_v5,2020.2.10,MacIntel,60,61025ae37ef11b136ea224fe,,,,,,,,,2685,25.70703125,70.30859375,1,0,0,response1disk,,7,7.1875,-4.23828125,1,0,0,rectangle,7.1875,-4.23828125,1,0,0,7.1875,-4.23828125,1,0,0,0,95,95,155,1,,,,,,,,
,,,,,,,,,,,,,FF,,,,,,,,0.66673,,,,,,,,,,,,,,,,,,,,,,60ff20504c4a7476b051901f,61036e803a8cf79310e47e80,2021-07-29_23h14.47.111,Simcolourproject_2stim_asymm_v5,2020.2.10,MacIntel,60,61025ae37ef11b136ea224fe,,,,,,,,,2317,66.65234375,29.0078125,1,0,0,response1disk,,6,12.5859375,-10.07421875,1,0,0,rectangle,12.5859375,-10.07421875,1,0,0,12.5859375,-10.07421875,1,0,0,0,96,96,31,1,,,,,,,,
,,,,,,,,,,,,,FF,,,,,,,,0.999085,,,,,,,,,,,,,,,,,,,,,,60ff20504c4a7476b051901f,61036e803a8cf79310e47e80,2021-07-29_23h14.47.111,Simcolourproject_2stim_asymm_v5,2020.2.10,MacIntel,60,61025ae37ef11b136ea224fe,,,,,,,,,387,71.31640625,-31.7265625,1,0,0,response3disk,,5,13.8984375,-2.62109375,1,0,0,rectangle,13.8984375,-2.62109375,1,0,0,13.8984375,-2.62109375,1,0,0,0,97,97,78,1,,,,,,,,
,,,,,,,,,,,,,FF,,,,,,,,1.75131,,,,,,,,,,,,,,,,,,,,,,60ff20504c4a7476b051901f,61036e803a8cf79310e47e80,2021-07-29_23h14.47.111,Simcolourproject_2stim_asymm_v5,2020.2.10,MacIntel,60,61025ae37ef11b136ea224fe,,,,,,,,,891,-29.68359375,-45.87890625,1,0,0,response5disk,,3,-15.35546875,-7.3984375,1,0,0,rectangle,-15.35546875,-7.3984375,1,0,0,-15.35546875,-7.3984375,1,0,0,0,98,98,131,1,,,,,,,,
,,,,,,,,,,,,,FF,,,,,,,,0.650525,,,,,,,,,,,,,,,,,,,,,,60ff20504c4a7476b051901f,61036e803a8cf79310e47e80,2021-07-29_23h14.47.111,Simcolourproject_2stim_asymm_v5,2020.2.10,MacIntel,60,61025ae37ef11b136ea224fe,,,,,,,,,718,-63.29296875,-37.77734375,1,0,0,response5disk,,2,11.2421875,-10.34765625,1,0,0,rectangle,11.2421875,-10.34765625,1,0,0,11.2421875,-10.34765625,1,0,0,0,99,99,37,1,,,,,,,,
,,,,,,,,,,,,,FF,,,,,,,,0.932995,,,,,,,,,,,,,,,,,,,,,,60ff20504c4a7476b051901f,61036e803a8cf79310e47e80,2021-07-29_23h14.47.111,Simcolourproject_2stim_asymm_v5,2020.2.10,MacIntel,60,61025ae37ef11b136ea224fe,,,,,,,,,4051,30.26953125,-52.16796875,1,0,0,response3disk,,4,12.06640625,-3.40234375,1,0,0,rectangle,12.06640625,-3.40234375,1,0,0,12.06640625,-3.40234375,1,0,0,0,100,100,148,1,,,,,,,,
,,,,,,,,,,,,,FF,,,,,,,,0.600345,,,,,,,,,,,,,,,,,,,,,,60ff20504c4a7476b051901f,61036e803a8cf79310e47e80,2021-07-29_23h14.47.111,Simcolourproject_2stim_asymm_v5,2020.2.10,MacIntel,60,61025ae37ef11b136ea224fe,,,,,,,,,134,17.77734375,52.8828125,1,0,0,response1disk,,7,17.77734375,-5.2890625,1,0,0,rectangle,17.77734375,-5.2890625,1,0,0,17.77734375,-5.2890625,1,0,0,0,101,101,45,1,,,,,,,,
,,,,,,,,,,,,,FF,,,,,,,,0.732675,,,,,,,,,,,,,,,,,,,,,,60ff20504c4a7476b051901f,61036e803a8cf79310e47e80,2021-07-29_23h14.47.111,Simcolourproject_2stim_asymm_v5,2020.2.10,MacIntel,60,61025ae37ef11b136ea224fe,,,,,,,,,1535,64.16796875,28.44140625,1,0,0,response1disk,,6,14.21875,4.921875,1,0,0,rectangle,14.21875,4.921875,1,0,0,14.21875,4.921875,1,0,0,0,102,102,129,1,,,,,,,,
,,,,,,,,,,,,,FF,,,,,,,,0.816075,,,,,,,,,,,,,,,,,,,,,,60ff20504c4a7476b051901f,61036e803a8cf79310e47e80,2021-07-29_23h14.47.111,Simcolourproject_2stim_asymm_v5,2020.2.10,MacIntel,60,61025ae37ef11b136ea224fe,,,,,,,,,2348,52.69140625,33.75,1,0,0,response1disk,,6,-2.41015625,-3.453125,1,0,0,rectangle,-2.41015625,-3.453125,1,0,0,-2.41015625,-3.453125,1,0,0,0,103,103,5,1,,,,,,,,
,,,,,,,,,,,,,FF,,,,,,,,0.91706,,,,,,,,,,,,,,,,,,,,,,60ff20504c4a7476b051901f,61036e803a8cf79310e47e80,2021-07-29_23h14.47.111,Simcolourproject_2stim_asymm_v5,2020.2.10,MacIntel,60,61025ae37ef11b136ea224fe,,,,,,,,,2355,-35.94921875,66.390625,1,0,0,response7disk,,0,-7.1796875,6.10546875,1,0,0,rectangle,-7.1796875,6.10546875,1,0,0,-7.1796875,6.10546875,1,0,0,0,104,104,144,1,,,,,,,,
,,,,,,,,,,,,,FF,,,,,,,,3.568175,,,,,,,,,,,,,,,,,,,,,,60ff20504c4a7476b051901f,61036e803a8cf79310e47e80,2021-07-29_23h14.47.111,Simcolourproject_2stim_asymm_v5,2020.2.10,MacIntel,60,61025ae37ef11b136ea224fe,,,,,,,,,956,-27.203125,-50.46875,1,0,0,response5disk,,3,-13.58984375,-9.5546875,1,0,0,rectangle,-13.58984375,-9.5546875,1,0,0,-13.58984375,-9.5546875,1,0,0,0,105,105,102,1,,,,,,,,
,,,,,,,,,,,,,FF,,,,,,,,0.79899,,,,,,,,,,,,,,,,,,,,,,60ff20504c4a7476b051901f,61036e803a8cf79310e47e80,2021-07-29_23h14.47.111,Simcolourproject_2stim_asymm_v5,2020.2.10,MacIntel,60,61025ae37ef11b136ea224fe,,,,,,,,,4250,17.5703125,-62.9609375,1,0,0,response3disk,,4,4.44140625,-0.9453125,1,0,0,rectangle,4.44140625,-0.9453125,1,0,0,4.44140625,-0.9453125,1,0,0,0,106,106,40,1,,,,,,,,
,,,,,,,,,,,,,FF,,,,,,,,0.799245,,,,,,,,,,,,,,,,,,,,,,60ff20504c4a7476b051901f,61036e803a8cf79310e47e80,2021-07-29_23h14.47.111,Simcolourproject_2stim_asymm_v5,2020.2.10,MacIntel,60,61025ae37ef11b136ea224fe,,,,,,,,,1903,27.8203125,-41.8125,1,0,0,response3disk,,4,14.109375,-1.40234375,1,0,0,rectangle,14.109375,-1.40234375,1,0,0,14.109375,-1.40234375,1,0,0,0,107,107,18,1,,,,,,,,
,,,,,,,,,,,,,FF,,,,,,,,1.33318,,,,,,,,,,,,,,,,,,,,,,60ff20504c4a7476b051901f,61036e803a8cf79310e47e80,2021-07-29_23h14.47.111,Simcolourproject_2stim_asymm_v5,2020.2.10,MacIntel,60,61025ae37ef11b136ea224fe,,,,,,,,,1311,63.48046875,-33.01953125,1,0,0,response3disk,,5,12.24609375,-2.4453125,1,0,0,rectangle,12.24609375,-2.4453125,1,0,0,12.24609375,-2.4453125,1,0,0,0,108,108,73,1,,,,,,,,
,,,,,,,,,,,,,FF,,,,,,,,0.63317,,,,,,,,,,,,,,,,,,,,,,60ff20504c4a7476b051901f,61036e803a8cf79310e47e80,2021-07-29_23h14.47.111,Simcolourproject_2stim_asymm_v5,2020.2.10,MacIntel,60,61025ae37ef11b136ea224fe,,,,,,,,,1018,37.23828125,56.90234375,1,0,0,response1disk,,7,23.58984375,9.86328125,1,0,0,rectangle,23.58984375,9.86328125,1,0,0,23.58984375,9.86328125,1,0,0,0,109,109,6,1,,,,,,,,
,,,,,,,,,,,,,FF,,,,,,,,1.39952,,,,,,,,,,,,,,,,,,,,,,60ff20504c4a7476b051901f,61036e803a8cf79310e47e80,2021-07-29_23h14.47.111,Simcolourproject_2stim_asymm_v5,2020.2.10,MacIntel,60,61025ae37ef11b136ea224fe,,,,,,,,,1497,38.9296875,25.9921875,1,0,0,response1disk,,6,6.38671875,2.3828125,1,0,0,rectangle,6.38671875,2.3828125,1,0,0,6.38671875,2.3828125,1,0,0,0,110,110,138,1,,,,,,,,
,,,,,,,,,,,,,FF,,,,,,,,1.03265,,,,,,,,,,,,,,,,,,,,,,60ff20504c4a7476b051901f,61036e803a8cf79310e47e80,2021-07-29_23h14.47.111,Simcolourproject_2stim_asymm_v5,2020.2.10,MacIntel,60,61025ae37ef11b136ea224fe,,,,,,,,,374,59.84375,-26.73828125,1,0,0,response3disk,,5,5.234375,3.8203125,1,0,0,rectangle,5.234375,3.8203125,1,0,0,5.234375,3.8203125,1,0,0,0,111,111,64,1,,,,,,,,
,,,,,,,,,,,,,FF,,,,,,,,0.849665,,,,,,,,,,,,,,,,,,,,,,60ff20504c4a7476b051901f,61036e803a8cf79310e47e80,2021-07-29_23h14.47.111,Simcolourproject_2stim_asymm_v5,2020.2.10,MacIntel,60,61025ae37ef11b136ea224fe,,,,,,,,,3951,32.26171875,-45.0390625,1,0,0,response3disk,,4,19.00390625,-0.15234375,1,0,0,rectangle,19.00390625,-0.15234375,1,0,0,19.00390625,-0.15234375,1,0,0,0,112,112,62,1,,,,,,,,
,,,,,,,,,,,,,FF,,,,,,,,0.51718,,,,,,,,,,,,,,,,,,,,,,60ff20504c4a7476b051901f,61036e803a8cf79310e47e80,2021-07-29_23h14.47.111,Simcolourproject_2stim_asymm_v5,2020.2.10,MacIntel,60,61025ae37ef11b136ea224fe,,,,,,,,,3713,36.3203125,-61.9140625,1,0,0,response3disk,,4,22.9296875,-15.1796875,1,0,0,rectangle,22.9296875,-15.1796875,1,0,0,22.9296875,-15.1796875,1,0,0,0,113,113,16,1,,,,,,,,
,,,,,,,,,,,,,FF,,,,,,,,1.000165,,,,,,,,,,,,,,,,,,,,,,60ff20504c4a7476b051901f,61036e803a8cf79310e47e80,2021-07-29_23h14.47.111,Simcolourproject_2stim_asymm_v5,2020.2.10,MacIntel,60,61025ae37ef11b136ea224fe,,,,,,,,,3453,41.91796875,65.8828125,1,0,0,response1disk,,7,29.0078125,10.9609375,1,0,0,rectangle,29.0078125,10.9609375,1,0,0,29.0078125,10.9609375,1,0,0,0,114,114,81,1,,,,,,,,
,,,,,,,,,,,,,FF,,,,,,,,1.115635,,,,,,,,,,,,,,,,,,,,,,60ff20504c4a7476b051901f,61036e803a8cf79310e47e80,2021-07-29_23h14.47.111,Simcolourproject_2stim_asymm_v5,2020.2.10,MacIntel,60,61025ae37ef11b136ea224fe,,,,,,,,,856,28.2890625,56.79296875,1,0,0,response1disk,,7,17.28125,0.72265625,1,0,0,rectangle,17.28125,0.72265625,1,0,0,17.28125,0.72265625,1,0,0,0,115,115,134,1,,,,,,,,
,,,,,,,,,,,,,FF,,,,,,,,1.833535,,,,,,,,,,,,,,,,,,,,,,60ff20504c4a7476b051901f,61036e803a8cf79310e47e80,2021-07-29_23h14.47.111,Simcolourproject_2stim_asymm_v5,2020.2.10,MacIntel,60,61025ae37ef11b136ea224fe,,,,,,,,,3181,24.11328125,61.15625,1,0,0,response1disk,,7,22.359375,-16.4453125,1,0,0,rectangle,22.359375,-16.4453125,1,0,0,22.359375,-16.4453125,1,0,0,0,116,116,118,1,,,,,,,,
,,,,,,,,,,,,,FF,,,,,,,,0.933375,,,,,,,,,,,,,,,,,,,,,,60ff20504c4a7476b051901f,61036e803a8cf79310e47e80,2021-07-29_23h14.47.111,Simcolourproject_2stim_asymm_v5,2020.2.10,MacIntel,60,61025ae37ef11b136ea224fe,,,,,,,,,1310,69.02734375,-25.0625,1,0,0,response3disk,,5,16.8125,-6.12890625,1,0,0,rectangle,16.8125,-6.12890625,1,0,0,16.8125,-6.12890625,1,0,0,0,117,117,153,1,,,,,,,,
,,,,,,,,,,,,,FF,,,,,,,,0.616995,,,,,,,,,,,,,,,,,,,,,,60ff20504c4a7476b051901f,61036e803a8cf79310e47e80,2021-07-29_23h14.47.111,Simcolourproject_2stim_asymm_v5,2020.2.10,MacIntel,60,61025ae37ef11b136ea224fe,,,,,,,,,3203,64.1953125,-25.16796875,1,0,0,response3disk,,5,22.3046875,2.1328125,1,0,0,rectangle,22.3046875,2.1328125,1,0,0,22.3046875,2.1328125,1,0,0,0,118,118,121,1,,,,,,,,
,,,,,,,,,,,,,FF,,,,,,,,0.9667,,,,,,,,,,,,,,,,,,,,,,60ff20504c4a7476b051901f,61036e803a8cf79310e47e80,2021-07-29_23h14.47.111,Simcolourproject_2stim_asymm_v5,2020.2.10,MacIntel,60,61025ae37ef11b136ea224fe,,,,,,,,,886,-60.70703125,30.05859375,1,0,0,response7disk,,1,5.44921875,-4.28125,1,0,0,rectangle,5.44921875,-4.28125,1,0,0,5.44921875,-4.28125,1,0,0,0,119,119,158,1,,,,,,,,
,,,,,,,,,,,,,FF,,,,,,,,0.81602,,,,,,,,,,,,,,,,,,,,,,60ff20504c4a7476b051901f,61036e803a8cf79310e47e80,2021-07-29_23h14.47.111,Simcolourproject_2stim_asymm_v5,2020.2.10,MacIntel,60,61025ae37ef11b136ea224fe,,,,,,,,,1145,-70.3671875,43.3359375,1,0,0,response7disk,,1,5.01953125,9.82421875,1,0,0,rectangle,5.01953125,9.82421875,1,0,0,5.01953125,9.82421875,1,0,0,0,120,120,32,1,,,,,,,,
,,,,,,,,,,,,,FF,,,,,,,,0.533945,,,,,,,,,,,,,,,,,,,,,,60ff20504c4a7476b051901f,61036e803a8cf79310e47e80,2021-07-29_23h14.47.111,Simcolourproject_2stim_asymm_v5,2020.2.10,MacIntel,60,61025ae37ef11b136ea224fe,,,,,,,,,3230,23.41015625,68.5390625,1,0,0,response1disk,,7,14.8203125,5.42578125,1,0,0,rectangle,27.6015625,90.70703125,1,0,0,13.32421875,12.64453125,1,0,0,0,121,121,10,1,,response1disk_3,TRUE,7,7,"[189,7,60,257,308,20,306,34,319,53,164,242,135,300,151,157,137,122,136,206]",1.18311,rectangle
,,,,,,,,,,,,,FF,,,,,,,,1.217265,,,,,,,,,,,,,,,,,,,,,,60ff20504c4a7476b051901f,61036e803a8cf79310e47e80,2021-07-29_23h14.47.111,Simcolourproject_2stim_asymm_v5,2020.2.10,MacIntel,60,61025ae37ef11b136ea224fe,,,,,,,,,2943,43.796875,-36.13671875,1,0,0,response3disk,,5,11.5,7.1875,1,0,0,rectangle,11.5,7.1875,1,0,0,11.5,7.1875,1,0,0,0,122,122,67,1,,,,,,,,
,,,,,,,,,,,,,FF,,,,,,,,1.016165,,,,,,,,,,,,,,,,,,,,,,60ff20504c4a7476b051901f,61036e803a8cf79310e47e80,2021-07-29_23h14.47.111,Simcolourproject_2stim_asymm_v5,2020.2.10,MacIntel,60,61025ae37ef11b136ea224fe,,,,,,,,,1577,80.3359375,33.625,1,0,0,response1disk,,6,13.69140625,-8.7421875,1,0,0,rectangle,13.69140625,-8.7421875,1,0,0,13.69140625,-8.7421875,1,0,0,0,123,123,3,1,,,,,,,,
,,,,,,,,,,,,,FF,,,,,,,,0.866985,,,,,,,,,,,,,,,,,,,,,,60ff20504c4a7476b051901f,61036e803a8cf79310e47e80,2021-07-29_23h14.47.111,Simcolourproject_2stim_asymm_v5,2020.2.10,MacIntel,60,61025ae37ef11b136ea224fe,,,,,,,,,3658,34.1796875,76.9921875,1,0,0,response1disk,,7,6.25390625,11.54296875,1,0,0,rectangle,6.25390625,11.54296875,1,0,0,6.25390625,11.54296875,1,0,0,0,124,124,47,1,,,,,,,,
,,,,,,,,,,,,,FF,,,,,,,,0.516995,,,,,,,,,,,,,,,,,,,,,,60ff20504c4a7476b051901f,61036e803a8cf79310e47e80,2021-07-29_23h14.47.111,Simcolourproject_2stim_asymm_v5,2020.2.10,MacIntel,60,61025ae37ef11b136ea224fe,,,,,,,,,2131,44.984375,62.8828125,1,0,0,response1disk,,7,23.578125,11.68359375,1,0,0,rectangle,23.578125,11.68359375,1,0,0,23.578125,11.68359375,1,0,0,0,125,125,133,1,,,,,,,,
,,,,,,,,,,,,,FF,,,,,,,,0.981925,,,,,,,,,,,,,,,,,,,,,,60ff20504c4a7476b051901f,61036e803a8cf79310e47e80,2021-07-29_23h14.47.111,Simcolourproject_2stim_asymm_v5,2020.2.10,MacIntel,60,61025ae37ef11b136ea224fe,,,,,,,,,969,-31.7734375,-74.8203125,1,0,0,response5disk,,3,-9.953125,-1.2109375,1,0,0,rectangle,-9.953125,-1.2109375,1,0,0,-9.953125,-1.2109375,1,0,0,0,126,126,146,1,,,,,,,,
,,,,,,,,,,,,,FF,,,,,,,,1.877605,,,,,,,,,,,,,,,,,,,,,,60ff20504c4a7476b051901f,61036e803a8cf79310e47e80,2021-07-29_23h14.47.111,Simcolourproject_2stim_asymm_v5,2020.2.10,MacIntel,60,61025ae37ef11b136ea224fe,,,,,,,,,18,80.921875,-32.50390625,1,0,0,response3disk,,5,5.45703125,7.734375,1,0,0,rectangle,5.45703125,7.734375,1,0,0,5.45703125,7.734375,1,0,0,0,127,127,56,1,,,,,,,,
,,,,,,,,,,,,,FF,,,,,,,,1.033075,,,,,,,,,,,,,,,,,,,,,,60ff20504c4a7476b051901f,61036e803a8cf79310e47e80,2021-07-29_23h14.47.111,Simcolourproject_2stim_asymm_v5,2020.2.10,MacIntel,60,61025ae37ef11b136ea224fe,,,,,,,,,343,52.44921875,-57.94921875,1,0,0,response3disk,,4,15.96875,14.90625,1,0,0,rectangle,15.96875,14.90625,1,0,0,15.96875,14.90625,1,0,0,0,128,128,109,1,,,,,,,,
,,,,,,,,,,,,,FF,,,,,,,,0.953295,,,,,,,,,,,,,,,,,,,,,,60ff20504c4a7476b051901f,61036e803a8cf79310e47e80,2021-07-29_23h14.47.111,Simcolourproject_2stim_asymm_v5,2020.2.10,MacIntel,60,61025ae37ef11b136ea224fe,,,,,,,,,3104,-38.4609375,-54.44921875,1,0,0,response5disk,,3,-16.02734375,0.2109375,1,0,0,rectangle,-16.02734375,0.2109375,1,0,0,-16.02734375,0.2109375,1,0,0,0,129,129,119,1,,,,,,,,
,,,,,,,,,,,,,FF,,,,,,,,0.78265,,,,,,,,,,,,,,,,,,,,,,60ff20504c4a7476b051901f,61036e803a8cf79310e47e80,2021-07-29_23h14.47.111,Simcolourproject_2stim_asymm_v5,2020.2.10,MacIntel,60,61025ae37ef11b136ea224fe,,,,,,,,,2522,38.8828125,91.26953125,1,0,0,response1disk,,7,12.921875,4.3984375,1,0,0,rectangle,12.921875,4.3984375,1,0,0,12.921875,4.3984375,1,0,0,0,130,130,71,1,,,,,,,,
,,,,,,,,,,,,,FF,,,,,,,,0.83317,,,,,,,,,,,,,,,,,,,,,,60ff20504c4a7476b051901f,61036e803a8cf79310e47e80,2021-07-29_23h14.47.111,Simcolourproject_2stim_asymm_v5,2020.2.10,MacIntel,60,61025ae37ef11b136ea224fe,,,,,,,,,2679,-25.16796875,-51.0234375,1,0,0,response5disk,,3,-10.7265625,-8.43359375,1,0,0,rectangle,-10.7265625,-8.43359375,1,0,0,-10.7265625,-8.43359375,1,0,0,0,131,131,8,1,,,,,,,,
,,,,,,,,,,,,,FF,,,,,,,,1.117095,,,,,,,,,,,,,,,,,,,,,,60ff20504c4a7476b051901f,61036e803a8cf79310e47e80,2021-07-29_23h14.47.111,Simcolourproject_2stim_asymm_v5,2020.2.10,MacIntel,60,61025ae37ef11b136ea224fe,,,,,,,,,2438,74.77734375,-32.9765625,1,0,0,response3disk,,5,12.25,-2.06640625,1,0,0,rectangle,12.25,-2.06640625,1,0,0,12.25,-2.06640625,1,0,0,0,132,132,112,1,,,,,,,,
,,,,,,,,,,,,,FF,,,,,,,,0.416365,,,,,,,,,,,,,,,,,,,,,,60ff20504c4a7476b051901f,61036e803a8cf79310e47e80,2021-07-29_23h14.47.111,Simcolourproject_2stim_asymm_v5,2020.2.10,MacIntel,60,61025ae37ef11b136ea224fe,,,,,,,,,1984,59.08203125,-34.0078125,1,0,0,response3disk,,5,7.9375,5.4609375,1,0,0,rectangle,7.9375,5.4609375,1,0,0,7.9375,5.4609375,1,0,0,0,133,133,51,1,,,,,,,,
,,,,,,,,,,,,,FF,,,,,,,,0.76665,,,,,,,,,,,,,,,,,,,,,,60ff20504c4a7476b051901f,61036e803a8cf79310e47e80,2021-07-29_23h14.47.111,Simcolourproject_2stim_asymm_v5,2020.2.10,MacIntel,60,61025ae37ef11b136ea224fe,,,,,,,,,3339,66.3984375,-44.0546875,1,0,0,response3disk,,5,9.03125,5.66796875,1,0,0,rectangle,-34.66015625,82.08203125,1,0,0,-3.68359375,6.90625,1,0,0,0,134,134,108,1,,response7disk_3,TRUE,0,0,"[189,7,60,257,308,20,306,34,319,53,164,242,135,300,151,157,137,122,136,206]",1.466565,rectangle
,,,,,,,,,,,,,FF,,,,,,,,0.70005,,,,,,,,,,,,,,,,,,,,,,60ff20504c4a7476b051901f,61036e803a8cf79310e47e80,2021-07-29_23h14.47.111,Simcolourproject_2stim_asymm_v5,2020.2.10,MacIntel,60,61025ae37ef11b136ea224fe,,,,,,,,,1174,41.7578125,59.83984375,1,0,0,response1disk,,7,8.51953125,4.0625,1,0,0,rectangle,-34.87890625,-75.9296875,1,0,0,-10.5625,0.359375,1,0,0,0,135,135,46,1,,response5disk_3,TRUE,3,3,"[189,7,60,257,308,20,306,34,319,53,164,242,135,300,151,157,137,122,136,206]",1.38474,rectangle
,,,,,,,,,,,,,FF,,,,,,,,1.300705,,,,,,,,,,,,,,,,,,,,,,60ff20504c4a7476b051901f,61036e803a8cf79310e47e80,2021-07-29_23h14.47.111,Simcolourproject_2stim_asymm_v5,2020.2.10,MacIntel,60,61025ae37ef11b136ea224fe,,,,,,,,,3623,68.0703125,31.6875,1,0,0,response1disk,,6,16.82421875,1.9296875,1,0,0,rectangle,-28.91796875,-55.46484375,1,0,0,-0.05078125,-2.4453125,1,0,0,0,136,136,35,1,,response5disk_3,TRUE,3,3,"[189,7,60,257,308,20,306,34,319,53,164,242,135,300,151,157,137,122,136,206]",1.58248,rectangle
,,,,,,,,,,,,,FF,,,,,,,,1.11664,,,,,,,,,,,,,,,,,,,,,,60ff20504c4a7476b051901f,61036e803a8cf79310e47e80,2021-07-29_23h14.47.111,Simcolourproject_2stim_asymm_v5,2020.2.10,MacIntel,60,61025ae37ef11b136ea224fe,,,,,,,,,615,24.62890625,-71.4609375,1,0,0,response3disk,,4,8.453125,-5.6640625,1,0,0,rectangle,8.453125,-5.6640625,1,0,0,8.453125,-5.6640625,1,0,0,0,137,137,57,1,,,,,,,,
,,,,,,,,,,,,,FF,,,,,,,,1.583345,,,,,,,,,,,,,,,,,,,,,,60ff20504c4a7476b051901f,61036e803a8cf79310e47e80,2021-07-29_23h14.47.111,Simcolourproject_2stim_asymm_v5,2020.2.10,MacIntel,60,61025ae37ef11b136ea224fe,,,,,,,,,881,65.04296875,33.6484375,1,0,0,response1disk,,6,13.98828125,-15.93359375,1,0,0,rectangle,13.98828125,-15.93359375,1,0,0,13.98828125,-15.93359375,1,0,0,0,138,138,145,1,,,,,,,,
,,,,,,,,,,,,,FF,,,,,,,,1.38342,,,,,,,,,,,,,,,,,,,,,,60ff20504c4a7476b051901f,61036e803a8cf79310e47e80,2021-07-29_23h14.47.111,Simcolourproject_2stim_asymm_v5,2020.2.10,MacIntel,60,61025ae37ef11b136ea224fe,,,,,,,,,182,61.9140625,38.70703125,1,0,0,response1disk,,6,11.2109375,10.58984375,1,0,0,rectangle,11.2109375,10.58984375,1,0,0,11.2109375,10.58984375,1,0,0,0,139,139,44,1,,,,,,,,
,,,,,,,,,,,,,FF,,,,,,,,0.567505,,,,,,,,,,,,,,,,,,,,,,60ff20504c4a7476b051901f,61036e803a8cf79310e47e80,2021-07-29_23h14.47.111,Simcolourproject_2stim_asymm_v5,2020.2.10,MacIntel,60,61025ae37ef11b136ea224fe,,,,,,,,,154,67.64453125,48.79296875,1,0,0,response1disk,,6,12.22265625,7.546875,1,0,0,rectangle,12.22265625,7.546875,1,0,0,12.22265625,7.546875,1,0,0,0,140,140,75,1,,,,,,,,
,,,,,,,,,,,,,FF,,,,,,,,0.817125,,,,,,,,,,,,,,,,,,,,,,60ff20504c4a7476b051901f,61036e803a8cf79310e47e80,2021-07-29_23h14.47.111,Simcolourproject_2stim_asymm_v5,2020.2.10,MacIntel,60,61025ae37ef11b136ea224fe,,,,,,,,,4225,-55.1171875,-40.671875,1,0,0,response5disk,,2,17.19140625,4.890625,1,0,0,rectangle,17.19140625,4.890625,1,0,0,17.19140625,4.890625,1,0,0,0,141,141,1,1,,,,,,,,
,,,,,,,,,,,,,FF,,,,,,,,1.38404,,,,,,,,,,,,,,,,,,,,,,60ff20504c4a7476b051901f,61036e803a8cf79310e47e80,2021-07-29_23h14.47.111,Simcolourproject_2stim_asymm_v5,2020.2.10,MacIntel,60,61025ae37ef11b136ea224fe,,,,,,,,,3743,-53.87890625,-21.6328125,1,0,0,response5disk,,2,-16.31640625,-13.5234375,1,0,0,rectangle,-16.31640625,-13.5234375,1,0,0,-16.31640625,-13.5234375,1,0,0,0,142,142,98,1,,,,,,,,
,,,,,,,,,,,,,FF,,,,,,,,1.036455,,,,,,,,,,,,,,,,,,,,,,60ff20504c4a7476b051901f,61036e803a8cf79310e47e80,2021-07-29_23h14.47.111,Simcolourproject_2stim_asymm_v5,2020.2.10,MacIntel,60,61025ae37ef11b136ea224fe,,,,,,,,,2303,57.2265625,-54.5625,1,0,0,response3disk,,5,-4.203125,-13.8984375,1,0,0,rectangle,-4.203125,-13.8984375,1,0,0,-4.203125,-13.8984375,1,0,0,0,143,143,139,1,,,,,,,,
,,,,,,,,,,,,,FF,,,,,,,,0.667,,,,,,,,,,,,,,,,,,,,,,60ff20504c4a7476b051901f,61036e803a8cf79310e47e80,2021-07-29_23h14.47.111,Simcolourproject_2stim_asymm_v5,2020.2.10,MacIntel,60,61025ae37ef11b136ea224fe,,,,,,,,,472,47.79296875,107.5976563,1,0,0,response1disk,,7,9.10546875,0.94140625,1,0,0,rectangle,9.10546875,0.94140625,1,0,0,9.10546875,0.94140625,1,0,0,0,144,144,125,1,,,,,,,,
,,,,,,,,,,,,,FF,,,,,,,,0.50046,,,,,,,,,,,,,,,,,,,,,,60ff20504c4a7476b051901f,61036e803a8cf79310e47e80,2021-07-29_23h14.47.111,Simcolourproject_2stim_asymm_v5,2020.2.10,MacIntel,60,61025ae37ef11b136ea224fe,,,,,,,,,3441,61.90234375,104.1445313,1,0,0,response1disk,,7,11.6484375,-5.82421875,1,0,0,rectangle,11.6484375,-5.82421875,1,0,0,11.6484375,-5.82421875,1,0,0,0,145,145,141,1,,,,,,,,
,,,,,,,,,,,,,FF,,,,,,,,0.50021,,,,,,,,,,,,,,,,,,,,,,60ff20504c4a7476b051901f,61036e803a8cf79310e47e80,2021-07-29_23h14.47.111,Simcolourproject_2stim_asymm_v5,2020.2.10,MacIntel,60,61025ae37ef11b136ea224fe,,,,,,,,,395,25.3984375,61.515625,1,0,0,response1disk,,7,6.0859375,-12.43359375,1,0,0,rectangle,6.0859375,-12.43359375,1,0,0,6.0859375,-12.43359375,1,0,0,0,146,146,49,1,,,,,,,,
,,,,,,,,,,,,,FF,,,,,,,,0.60052,,,,,,,,,,,,,,,,,,,,,,60ff20504c4a7476b051901f,61036e803a8cf79310e47e80,2021-07-29_23h14.47.111,Simcolourproject_2stim_asymm_v5,2020.2.10,MacIntel,60,61025ae37ef11b136ea224fe,,,,,,,,,3408,27.30859375,54.15625,1,0,0,response1disk,,7,-12.3515625,-7.54296875,1,0,0,rectangle,-12.3515625,-7.54296875,1,0,0,-12.3515625,-7.54296875,1,0,0,0,147,147,76,1,,,,,,,,
,,,,,,,,,,,,,FF,,,,,,,,0.833165,,,,,,,,,,,,,,,,,,,,,,60ff20504c4a7476b051901f,61036e803a8cf79310e47e80,2021-07-29_23h14.47.111,Simcolourproject_2stim_asymm_v5,2020.2.10,MacIntel,60,61025ae37ef11b136ea224fe,,,,,,,,,4017,31.85546875,59.8515625,1,0,0,response1disk,,7,19.97265625,8.80859375,1,0,0,rectangle,19.97265625,8.80859375,1,0,0,19.97265625,8.80859375,1,0,0,0,148,148,150,1,,,,,,,,
,,,,,,,,,,,,,FF,,,,,,,,1.18299,,,,,,,,,,,,,,,,,,,,,,60ff20504c4a7476b051901f,61036e803a8cf79310e47e80,2021-07-29_23h14.47.111,Simcolourproject_2stim_asymm_v5,2020.2.10,MacIntel,60,61025ae37ef11b136ea224fe,,,,,,,,,3332,30.9140625,-66.19140625,1,0,0,response3disk,,4,20.515625,-11.7265625,1,0,0,rectangle,20.515625,-11.7265625,1,0,0,20.515625,-11.7265625,1,0,0,0,149,149,84,1,,,,,,,,
,,,,,,,,,,,,,FF,,,,,,,,0.84967,,,,,,,,,,,,,,,,,,,,,,60ff20504c4a7476b051901f,61036e803a8cf79310e47e80,2021-07-29_23h14.47.111,Simcolourproject_2stim_asymm_v5,2020.2.10,MacIntel,60,61025ae37ef11b136ea224fe,,,,,,,,,3026,34.859375,61.921875,1,0,0,response1disk,,7,6.03515625,-6.578125,1,0,0,rectangle,-29.96875,-67.203125,1,0,0,-1.9375,-2.73046875,1,0,0,0,150,150,156,1,,response5disk_3,TRUE,3,3,"[189,7,60,257,308,20,306,34,319,53,164,242,135,300,151,157,137,122,136,206]",1.416035,rectangle
,,,,,,,,,,,,,FF,,,,,,,,1.08423,,,,,,,,,,,,,,,,,,,,,,60ff20504c4a7476b051901f,61036e803a8cf79310e47e80,2021-07-29_23h14.47.111,Simcolourproject_2stim_asymm_v5,2020.2.10,MacIntel,60,61025ae37ef11b136ea224fe,,,,,,,,,686,60.3359375,-23.58203125,1,0,0,response3disk,,5,7.6328125,8.390625,1,0,0,rectangle,7.6328125,8.390625,1,0,0,7.6328125,8.390625,1,0,0,0,151,151,132,1,,,,,,,,
,,,,,,,,,,,,,FF,,,,,,,,1.26744,,,,,,,,,,,,,,,,,,,,,,60ff20504c4a7476b051901f,61036e803a8cf79310e47e80,2021-07-29_23h14.47.111,Simcolourproject_2stim_asymm_v5,2020.2.10,MacIntel,60,61025ae37ef11b136ea224fe,,,,,,,,,1124,42.8984375,-82.27734375,1,0,0,response3disk,,4,23.98828125,0.7421875,1,0,0,rectangle,23.98828125,0.7421875,1,0,0,23.98828125,0.7421875,1,0,0,0,152,152,12,1,,,,,,,,
,,,,,,,,,,,,,FF,,,,,,,,0.65023,,,,,,,,,,,,,,,,,,,,,,60ff20504c4a7476b051901f,61036e803a8cf79310e47e80,2021-07-29_23h14.47.111,Simcolourproject_2stim_asymm_v5,2020.2.10,MacIntel,60,61025ae37ef11b136ea224fe,,,,,,,,,3588,-60.6328125,-64.65625,1,0,0,response5disk,,3,-22.2734375,5.2578125,1,0,0,rectangle,-22.2734375,5.2578125,1,0,0,-22.2734375,5.2578125,1,0,0,0,153,153,28,1,,,,,,,,
,,,,,,,,,,,,,FF,,,,,,,,2.567135,,,,,,,,,,,,,,,,,,,,,,60ff20504c4a7476b051901f,61036e803a8cf79310e47e80,2021-07-29_23h14.47.111,Simcolourproject_2stim_asymm_v5,2020.2.10,MacIntel,60,61025ae37ef11b136ea224fe,,,,,,,,,3953,47.8984375,40.2578125,1,0,0,response1disk,,6,-16.80078125,-4.34375,1,0,0,rectangle,-16.80078125,-4.34375,1,0,0,-16.80078125,-4.34375,1,0,0,0,154,154,110,1,,,,,,,,
,,,,,,,,,,,,,FF,,,,,,,,1.51695,,,,,,,,,,,,,,,,,,,,,,60ff20504c4a7476b051901f,61036e803a8cf79310e47e80,2021-07-29_23h14.47.111,Simcolourproject_2stim_asymm_v5,2020.2.10,MacIntel,60,61025ae37ef11b136ea224fe,,,,,,,,,1679,58.6484375,-42.8828125,1,0,0,response3disk,,5,-6.40625,-7.4296875,1,0,0,rectangle,-6.40625,-7.4296875,1,0,0,-6.40625,-7.4296875,1,0,0,0,155,155,22,1,,,,,,,,
,,,,,,,,,,,,,FF,,,,,,,,0.483295,,,,,,,,,,,,,,,,,,,,,,60ff20504c4a7476b051901f,61036e803a8cf79310e47e80,2021-07-29_23h14.47.111,Simcolourproject_2stim_asymm_v5,2020.2.10,MacIntel,60,61025ae37ef11b136ea224fe,,,,,,,,,844,33.67578125,44.7421875,1,0,0,response1disk,,7,10.43359375,15.390625,1,0,0,rectangle,-73.85546875,33.09375,1,0,0,6.34765625,7.09765625,1,0,0,0,156,156,48,1,,response7disk_3,TRUE,1,1,"[189,7,60,257,308,20,306,34,319,53,164,242,135,300,151,157,137,122,136,206]",2.10246,rectangle
,,,,,,,,,,,,,FF,,,,,,,,0.949255,,,,,,,,,,,,,,,,,,,,,,60ff20504c4a7476b051901f,61036e803a8cf79310e47e80,2021-07-29_23h14.47.111,Simcolourproject_2stim_asymm_v5,2020.2.10,MacIntel,60,61025ae37ef11b136ea224fe,,,,,,,,,2161,-38.5,-64.91015625,1,0,0,response5disk,,3,0.08203125,5.26171875,1,0,0,rectangle,0.08203125,5.26171875,1,0,0,0.08203125,5.26171875,1,0,0,0,157,157,124,1,,,,,,,,
,,,,,,,,,,,,,FF,,,,,,,,2.24938,,,,,,,,,,,,,,,,,,,,,,60ff20504c4a7476b051901f,61036e803a8cf79310e47e80,2021-07-29_23h14.47.111,Simcolourproject_2stim_asymm_v5,2020.2.10,MacIntel,60,61025ae37ef11b136ea224fe,,,,,,,,,3004,77.18359375,-39.28515625,1,0,0,response3disk,,5,17.33203125,4.859375,1,0,0,rectangle,17.33203125,4.859375,1,0,0,17.33203125,4.859375,1,0,0,0,158,158,36,1,,,,,,,,
,,,,,,,,,,,,,FF,,,,,,,,0.732745,,,,,,,,,,,,,,,,,,,,,,60ff20504c4a7476b051901f,61036e803a8cf79310e47e80,2021-07-29_23h14.47.111,Simcolourproject_2stim_asymm_v5,2020.2.10,MacIntel,60,61025ae37ef11b136ea224fe,,,,,,,,,2866,52.83203125,68.98046875,1,0,0,response1disk,,7,3.93359375,-8.2734375,1,0,0,rectangle,3.93359375,-8.2734375,1,0,0,3.93359375,-8.2734375,1,0,0,0,159,159,77,1,,,,,,,,
,,,,,,,,,,,,,FF,,,,,,,,1.267915,,,,,,,,,,,,,,,,,,,,,,60ff20504c4a7476b051901f,61036e803a8cf79310e47e80,2021-07-29_23h14.47.111,Simcolourproject_2stim_asymm_v5,2020.2.10,MacIntel,60,61025ae37ef11b136ea224fe,,,,,,,,,2341,71.6484375,30.078125,1,0,0,response1disk,,6,7.1484375,-2.296875,1,0,0,rectangle,7.1484375,-2.296875,1,0,0,7.1484375,-2.296875,1,0,0,1,0,160,3,1,,,,,,,,
,,,,,,,,,,,,,FF,,,,,,,,2.01806,,,,,,,,,,,,,,,,,,,,,,60ff20504c4a7476b051901f,61036e803a8cf79310e47e80,2021-07-29_23h14.47.111,Simcolourproject_2stim_asymm_v5,2020.2.10,MacIntel,60,61025ae37ef11b136ea224fe,,,,,,,,,457,29.34765625,-57.875,1,0,0,response3disk,,4,6.17578125,7.73828125,1,0,0,rectangle,6.17578125,7.73828125,1,0,0,6.17578125,7.73828125,1,0,0,1,1,161,78,1,,,,,,,,
,,,,,,,,,,,,,FF,,,,,,,,2.285335,,,,,,,,,,,,,,,,,,,,,,60ff20504c4a7476b051901f,61036e803a8cf79310e47e80,2021-07-29_23h14.47.111,Simcolourproject_2stim_asymm_v5,2020.2.10,MacIntel,60,61025ae37ef11b136ea224fe,,,,,,,,,3414,50.73046875,64.2265625,1,0,0,response1disk,,7,7.3671875,-1.19140625,1,0,0,rectangle,7.3671875,-1.19140625,1,0,0,7.3671875,-1.19140625,1,0,0,1,2,162,4,1,,,,,,,,
,,,,,,,,,,,,,FF,,,,,,,,0.982825,,,,,,,,,,,,,,,,,,,,,,60ff20504c4a7476b051901f,61036e803a8cf79310e47e80,2021-07-29_23h14.47.111,Simcolourproject_2stim_asymm_v5,2020.2.10,MacIntel,60,61025ae37ef11b136ea224fe,,,,,,,,,2304,52.84375,-36.609375,1,0,0,response3disk,,5,-1.94140625,-2.640625,1,0,0,rectangle,80.43359375,43.25,1,0,0,12.59765625,5.390625,1,0,0,1,3,163,84,1,,response1disk_3,TRUE,6,6,"[189,7,60,257,308,20,306,34,319,53,164,242,135,300,151,157,137,122,136,206]",1.699455,rectangle
,,,,,,,,,,,,,FF,,,,,,,,1.399215,,,,,,,,,,,,,,,,,,,,,,60ff20504c4a7476b051901f,61036e803a8cf79310e47e80,2021-07-29_23h14.47.111,Simcolourproject_2stim_asymm_v5,2020.2.10,MacIntel,60,61025ae37ef11b136ea224fe,,,,,,,,,1363,30.6484375,54.26953125,1,0,0,response1disk,,7,17.41015625,16.8046875,1,0,0,rectangle,17.41015625,16.8046875,1,0,0,17.41015625,16.8046875,1,0,0,1,4,164,157,1,,,,,,,,
,,,,,,,,,,,,,FF,,,,,,,,0.533565,,,,,,,,,,,,,,,,,,,,,,60ff20504c4a7476b051901f,61036e803a8cf79310e47e80,2021-07-29_23h14.47.111,Simcolourproject_2stim_asymm_v5,2020.2.10,MacIntel,60,61025ae37ef11b136ea224fe,,,,,,,,,1071,29.05078125,52.08984375,1,0,0,response1disk,,7,29.05078125,7.953125,1,0,0,rectangle,29.05078125,7.953125,1,0,0,29.05078125,7.953125,1,0,0,1,5,165,7,1,,,,,,,,
,,,,,,,,,,,,,FF,,,,,,,,0.73423,,,,,,,,,,,,,,,,,,,,,,60ff20504c4a7476b051901f,61036e803a8cf79310e47e80,2021-07-29_23h14.47.111,Simcolourproject_2stim_asymm_v5,2020.2.10,MacIntel,60,61025ae37ef11b136ea224fe,,,,,,,,,953,78.796875,43.171875,1,0,0,response1disk,,6,27.125,5.6953125,1,0,0,rectangle,27.125,5.6953125,1,0,0,27.125,5.6953125,1,0,0,1,6,166,51,1,,,,,,,,
,,,,,,,,,,,,,FF,,,,,,,,0.75054,,,,,,,,,,,,,,,,,,,,,,60ff20504c4a7476b051901f,61036e803a8cf79310e47e80,2021-07-29_23h14.47.111,Simcolourproject_2stim_asymm_v5,2020.2.10,MacIntel,60,61025ae37ef11b136ea224fe,,,,,,,,,2922,35.3125,73.05078125,1,0,0,response1disk,,7,9.97265625,-2,1,0,0,rectangle,9.97265625,-2,1,0,0,9.97265625,-2,1,0,0,1,7,167,122,1,,,,,,,,
,,,,,,,,,,,,,FF,,,,,,,,0.516875,,,,,,,,,,,,,,,,,,,,,,60ff20504c4a7476b051901f,61036e803a8cf79310e47e80,2021-07-29_23h14.47.111,Simcolourproject_2stim_asymm_v5,2020.2.10,MacIntel,60,61025ae37ef11b136ea224fe,,,,,,,,,2973,25.734375,43.12109375,1,0,0,response1disk,,7,18.04296875,6.8671875,1,0,0,rectangle,18.04296875,6.8671875,1,0,0,18.04296875,6.8671875,1,0,0,1,8,168,114,1,,,,,,,,
,,,,,,,,,,,,,FF,,,,,,,,1.41548,,,,,,,,,,,,,,,,,,,,,,60ff20504c4a7476b051901f,61036e803a8cf79310e47e80,2021-07-29_23h14.47.111,Simcolourproject_2stim_asymm_v5,2020.2.10,MacIntel,60,61025ae37ef11b136ea224fe,,,,,,,,,501,31.7109375,72.3984375,1,0,0,response1disk,,7,27.1875,15.875,1,0,0,rectangle,27.1875,15.875,1,0,0,27.1875,15.875,1,0,0,1,9,169,43,1,,,,,,,,
,,,,,,,,,,,,,FF,,,,,,,,0.498735,,,,,,,,,,,,,,,,,,,,,,60ff20504c4a7476b051901f,61036e803a8cf79310e47e80,2021-07-29_23h14.47.111,Simcolourproject_2stim_asymm_v5,2020.2.10,MacIntel,60,61025ae37ef11b136ea224fe,,,,,,,,,1853,24.8828125,51.640625,1,0,0,response1disk,,7,24.8828125,3.484375,1,0,0,rectangle,24.8828125,3.484375,1,0,0,24.8828125,3.484375,1,0,0,1,10,170,24,1,,,,,,,,
,,,,,,,,,,,,,FF,,,,,,,,0.900415,,,,,,,,,,,,,,,,,,,,,,60ff20504c4a7476b051901f,61036e803a8cf79310e47e80,2021-07-29_23h14.47.111,Simcolourproject_2stim_asymm_v5,2020.2.10,MacIntel,60,61025ae37ef11b136ea224fe,,,,,,,,,555,33.76171875,-56.1328125,1,0,0,response3disk,,4,2.4296875,-6.16796875,1,0,0,rectangle,2.4296875,-6.16796875,1,0,0,2.4296875,-6.16796875,1,0,0,1,11,171,16,1,,,,,,,,
,,,,,,,,,,,,,FF,,,,,,,,1.15005,,,,,,,,,,,,,,,,,,,,,,60ff20504c4a7476b051901f,61036e803a8cf79310e47e80,2021-07-29_23h14.47.111,Simcolourproject_2stim_asymm_v5,2020.2.10,MacIntel,60,61025ae37ef11b136ea224fe,,,,,,,,,3168,32.921875,58.2890625,1,0,0,response1disk,,7,20.6875,8.77734375,1,0,0,rectangle,20.6875,8.77734375,1,0,0,20.6875,8.77734375,1,0,0,1,12,172,133,1,,,,,,,,
,,,,,,,,,,,,,FF,,,,,,,,1.082945,,,,,,,,,,,,,,,,,,,,,,60ff20504c4a7476b051901f,61036e803a8cf79310e47e80,2021-07-29_23h14.47.111,Simcolourproject_2stim_asymm_v5,2020.2.10,MacIntel,60,61025ae37ef11b136ea224fe,,,,,,,,,3422,28.4375,68,1,0,0,response1disk,,7,13.125,4.8984375,1,0,0,rectangle,13.125,4.8984375,1,0,0,13.125,4.8984375,1,0,0,1,13,173,33,1,,,,,,,,
,,,,,,,,,,,,,FF,,,,,,,,1.500635,,,,,,,,,,,,,,,,,,,,,,60ff20504c4a7476b051901f,61036e803a8cf79310e47e80,2021-07-29_23h14.47.111,Simcolourproject_2stim_asymm_v5,2020.2.10,MacIntel,60,61025ae37ef11b136ea224fe,,,,,,,,,762,30.11328125,52.06640625,1,0,0,response1disk,,7,10.68359375,9.10546875,1,0,0,rectangle,10.68359375,9.10546875,1,0,0,10.68359375,9.10546875,1,0,0,1,14,174,67,1,,,,,,,,
,,,,,,,,,,,,,FF,,,,,,,,0.716495,,,,,,,,,,,,,,,,,,,,,,60ff20504c4a7476b051901f,61036e803a8cf79310e47e80,2021-07-29_23h14.47.111,Simcolourproject_2stim_asymm_v5,2020.2.10,MacIntel,60,61025ae37ef11b136ea224fe,,,,,,,,,4325,32.9609375,88.40625,1,0,0,response1disk,,7,-2.88671875,-4.57421875,1,0,0,rectangle,-2.88671875,-4.57421875,1,0,0,-2.88671875,-4.57421875,1,0,0,1,15,175,99,1,,,,,,,,
,,,,,,,,,,,,,FF,,,,,,,,1.30116,,,,,,,,,,,,,,,,,,,,,,60ff20504c4a7476b051901f,61036e803a8cf79310e47e80,2021-07-29_23h14.47.111,Simcolourproject_2stim_asymm_v5,2020.2.10,MacIntel,60,61025ae37ef11b136ea224fe,,,,,,,,,4116,37.0390625,-65.5,1,0,0,response3disk,,4,4.79296875,-12.58203125,1,0,0,rectangle,4.79296875,-12.58203125,1,0,0,4.79296875,-12.58203125,1,0,0,1,16,176,129,1,,,,,,,,
,,,,,,,,,,,,,FF,,,,,,,,1.11678,,,,,,,,,,,,,,,,,,,,,,60ff20504c4a7476b051901f,61036e803a8cf79310e47e80,2021-07-29_23h14.47.111,Simcolourproject_2stim_asymm_v5,2020.2.10,MacIntel,60,61025ae37ef11b136ea224fe,,,,,,,,,4193,91.9609375,44.13671875,1,0,0,response1disk,,6,30.78515625,13.265625,1,0,0,rectangle,30.78515625,13.265625,1,0,0,30.78515625,13.265625,1,0,0,1,17,177,128,1,,,,,,,,
,,,,,,,,,,,,,FF,,,,,,,,1.333005,,,,,,,,,,,,,,,,,,,,,,60ff20504c4a7476b051901f,61036e803a8cf79310e47e80,2021-07-29_23h14.47.111,Simcolourproject_2stim_asymm_v5,2020.2.10,MacIntel,60,61025ae37ef11b136ea224fe,,,,,,,,,802,20.0078125,-58.75,1,0,0,response3disk,,4,10.72265625,0.56640625,1,0,0,rectangle,10.72265625,0.56640625,1,0,0,10.72265625,0.56640625,1,0,0,1,18,178,52,1,,,,,,,,
,,,,,,,,,,,,,FF,,,,,,,,1.650745,,,,,,,,,,,,,,,,,,,,,,60ff20504c4a7476b051901f,61036e803a8cf79310e47e80,2021-07-29_23h14.47.111,Simcolourproject_2stim_asymm_v5,2020.2.10,MacIntel,60,61025ae37ef11b136ea224fe,,,,,,,,,3738,39.3515625,-63.53125,1,0,0,response3disk,,4,21.93359375,11.39453125,1,0,0,rectangle,21.93359375,11.39453125,1,0,0,21.93359375,11.39453125,1,0,0,1,19,179,117,1,,,,,,,,
,,,,,,,,,,,,,FF,,,,,,,,0.983415,,,,,,,,,,,,,,,,,,,,,,60ff20504c4a7476b051901f,61036e803a8cf79310e47e80,2021-07-29_23h14.47.111,Simcolourproject_2stim_asymm_v5,2020.2.10,MacIntel,60,61025ae37ef11b136ea224fe,,,,,,,,,5,29.671875,-62.29296875,1,0,0,response3disk,,4,-4.7734375,8.2421875,1,0,0,rectangle,-4.7734375,8.2421875,1,0,0,-4.7734375,8.2421875,1,0,0,1,20,180,110,1,,,,,,,,
,,,,,,,,,,,,,FF,,,,,,,,1.16691,,,,,,,,,,,,,,,,,,,,,,60ff20504c4a7476b051901f,61036e803a8cf79310e47e80,2021-07-29_23h14.47.111,Simcolourproject_2stim_asymm_v5,2020.2.10,MacIntel,60,61025ae37ef11b136ea224fe,,,,,,,,,3015,50.3984375,75.92578125,1,0,0,response1disk,,7,8.23828125,2.94140625,1,0,0,rectangle,8.23828125,2.94140625,1,0,0,8.23828125,2.94140625,1,0,0,1,21,181,29,1,,,,,,,,
,,,,,,,,,,,,,FF,,,,,,,,0.833075,,,,,,,,,,,,,,,,,,,,,,60ff20504c4a7476b051901f,61036e803a8cf79310e47e80,2021-07-29_23h14.47.111,Simcolourproject_2stim_asymm_v5,2020.2.10,MacIntel,60,61025ae37ef11b136ea224fe,,,,,,,,,777,42.828125,-55.08203125,1,0,0,response3disk,,4,7.109375,-14.71875,1,0,0,rectangle,7.109375,-14.71875,1,0,0,7.109375,-14.71875,1,0,0,1,22,182,25,1,,,,,,,,
,,,,,,,,,,,,,FF,,,,,,,,1.21595,,,,,,,,,,,,,,,,,,,,,,60ff20504c4a7476b051901f,61036e803a8cf79310e47e80,2021-07-29_23h14.47.111,Simcolourproject_2stim_asymm_v5,2020.2.10,MacIntel,60,61025ae37ef11b136ea224fe,,,,,,,,,3087,72.07421875,51.08984375,1,0,0,response1disk,,6,9.47265625,7.16796875,1,0,0,rectangle,9.47265625,7.16796875,1,0,0,9.47265625,7.16796875,1,0,0,1,23,183,23,1,,,,,,,,
,,,,,,,,,,,,,FF,,,,,,,,0.800375,,,,,,,,,,,,,,,,,,,,,,60ff20504c4a7476b051901f,61036e803a8cf79310e47e80,2021-07-29_23h14.47.111,Simcolourproject_2stim_asymm_v5,2020.2.10,MacIntel,60,61025ae37ef11b136ea224fe,,,,,,,,,2463,28.3359375,53.078125,1,0,0,response1disk,,7,19.2890625,15.203125,1,0,0,rectangle,19.2890625,15.203125,1,0,0,19.2890625,15.203125,1,0,0,1,24,184,93,1,,,,,,,,
,,,,,,,,,,,,,FF,,,,,,,,1.24985,,,,,,,,,,,,,,,,,,,,,,60ff20504c4a7476b051901f,61036e803a8cf79310e47e80,2021-07-29_23h14.47.111,Simcolourproject_2stim_asymm_v5,2020.2.10,MacIntel,60,61025ae37ef11b136ea224fe,,,,,,,,,3909,-23.1171875,-49.328125,1,0,0,response5disk,,3,-6.734375,-10.4453125,1,0,0,rectangle,-6.734375,-10.4453125,1,0,0,-6.734375,-10.4453125,1,0,0,1,25,185,152,1,,,,,,,,
,,,,,,,,,,,,,FF,,,,,,,,1.8331,,,,,,,,,,,,,,,,,,,,,,60ff20504c4a7476b051901f,61036e803a8cf79310e47e80,2021-07-29_23h14.47.111,Simcolourproject_2stim_asymm_v5,2020.2.10,MacIntel,60,61025ae37ef11b136ea224fe,,,,,,,,,1760,28.73828125,-63.36328125,1,0,0,response3disk,,4,17.953125,-9.265625,1,0,0,rectangle,17.953125,-9.265625,1,0,0,17.953125,-9.265625,1,0,0,1,26,186,130,1,,,,,,,,
,,,,,,,,,,,,,FF,,,,,,,,0.86706,,,,,,,,,,,,,,,,,,,,,,60ff20504c4a7476b051901f,61036e803a8cf79310e47e80,2021-07-29_23h14.47.111,Simcolourproject_2stim_asymm_v5,2020.2.10,MacIntel,60,61025ae37ef11b136ea224fe,,,,,,,,,3,15.69140625,-53.453125,1,0,0,response3disk,,4,10.765625,3.26953125,1,0,0,rectangle,10.765625,3.26953125,1,0,0,10.765625,3.26953125,1,0,0,1,27,187,32,1,,,,,,,,
,,,,,,,,,,,,,FF,,,,,,,,0.81731,,,,,,,,,,,,,,,,,,,,,,60ff20504c4a7476b051901f,61036e803a8cf79310e47e80,2021-07-29_23h14.47.111,Simcolourproject_2stim_asymm_v5,2020.2.10,MacIntel,60,61025ae37ef11b136ea224fe,,,,,,,,,108,60.25390625,-32.55859375,1,0,0,response3disk,,5,-9.89453125,6.09375,1,0,0,rectangle,51.546875,94.01953125,1,0,0,-5.94140625,6.1796875,1,0,0,1,28,188,106,1,,response1disk_3,TRUE,7,7,"[189,7,60,257,308,20,306,34,319,53,164,242,135,300,151,157,137,122,136,206]",1.466685,rectangle
,,,,,,,,,,,,,FF,,,,,,,,1.083745,,,,,,,,,,,,,,,,,,,,,,60ff20504c4a7476b051901f,61036e803a8cf79310e47e80,2021-07-29_23h14.47.111,Simcolourproject_2stim_asymm_v5,2020.2.10,MacIntel,60,61025ae37ef11b136ea224fe,,,,,,,,,4341,75.640625,25.328125,1,0,0,response1disk,,6,5.00390625,-11.90625,1,0,0,rectangle,5.00390625,-11.90625,1,0,0,5.00390625,-11.90625,1,0,0,1,29,189,136,1,,,,,,,,
,,,,,,,,,,,,,FF,,,,,,,,1.084645,,,,,,,,,,,,,,,,,,,,,,60ff20504c4a7476b051901f,61036e803a8cf79310e47e80,2021-07-29_23h14.47.111,Simcolourproject_2stim_asymm_v5,2020.2.10,MacIntel,60,61025ae37ef11b136ea224fe,,,,,,,,,353,-62.9609375,27.00390625,1,0,0,response7disk,,1,3.9296875,13.5546875,1,0,0,rectangle,3.9296875,13.5546875,1,0,0,3.9296875,13.5546875,1,0,0,1,30,190,18,1,,,,,,,,
,,,,,,,,,,,,,FF,,,,,,,,0.816395,,,,,,,,,,,,,,,,,,,,,,60ff20504c4a7476b051901f,61036e803a8cf79310e47e80,2021-07-29_23h14.47.111,Simcolourproject_2stim_asymm_v5,2020.2.10,MacIntel,60,61025ae37ef11b136ea224fe,,,,,,,,,294,20.796875,62.34765625,1,0,0,response1disk,,7,5.2265625,12.62890625,1,0,0,rectangle,5.2265625,12.62890625,1,0,0,5.2265625,12.62890625,1,0,0,1,31,191,90,1,,,,,,,,
,,,,,,,,,,,,,FF,,,,,,,,1.750635,,,,,,,,,,,,,,,,,,,,,,60ff20504c4a7476b051901f,61036e803a8cf79310e47e80,2021-07-29_23h14.47.111,Simcolourproject_2stim_asymm_v5,2020.2.10,MacIntel,60,61025ae37ef11b136ea224fe,,,,,,,,,3785,69.62890625,-29.140625,1,0,0,response3disk,,5,15.60546875,-6.5390625,1,0,0,rectangle,15.60546875,-6.5390625,1,0,0,15.60546875,-6.5390625,1,0,0,1,32,192,8,1,,,,,,,,
,,,,,,,,,,,,,FF,,,,,,,,0.73322,,,,,,,,,,,,,,,,,,,,,,60ff20504c4a7476b051901f,61036e803a8cf79310e47e80,2021-07-29_23h14.47.111,Simcolourproject_2stim_asymm_v5,2020.2.10,MacIntel,60,61025ae37ef11b136ea224fe,,,,,,,,,106,27.41796875,-52.3359375,1,0,0,response3disk,,4,21.62890625,-11.42578125,1,0,0,rectangle,21.62890625,-11.42578125,1,0,0,21.62890625,-11.42578125,1,0,0,1,33,193,72,1,,,,,,,,
,,,,,,,,,,,,,FF,,,,,,,,3.45013,,,,,,,,,,,,,,,,,,,,,,60ff20504c4a7476b051901f,61036e803a8cf79310e47e80,2021-07-29_23h14.47.111,Simcolourproject_2stim_asymm_v5,2020.2.10,MacIntel,60,61025ae37ef11b136ea224fe,,,,,,,,,491,86.67578125,43.5234375,1,0,0,response1disk,,6,14.57421875,15.41796875,1,0,0,rectangle,14.57421875,15.41796875,1,0,0,14.57421875,15.41796875,1,0,0,1,34,194,46,1,,,,,,,,
,,,,,,,,,,,,,FF,,,,,,,,3.06603,,,,,,,,,,,,,,,,,,,,,,60ff20504c4a7476b051901f,61036e803a8cf79310e47e80,2021-07-29_23h14.47.111,Simcolourproject_2stim_asymm_v5,2020.2.10,MacIntel,60,61025ae37ef11b136ea224fe,,,,,,,,,3767,66.7109375,43.09765625,1,0,0,response1disk,,6,-3.46875,-8.0078125,1,0,0,rectangle,-3.46875,-8.0078125,1,0,0,-3.46875,-8.0078125,1,0,0,1,35,195,15,1,,,,,,,,
,,,,,,,,,,,,,FF,,,,,,,,1.316085,,,,,,,,,,,,,,,,,,,,,,60ff20504c4a7476b051901f,61036e803a8cf79310e47e80,2021-07-29_23h14.47.111,Simcolourproject_2stim_asymm_v5,2020.2.10,MacIntel,60,61025ae37ef11b136ea224fe,,,,,,,,,4188,-85.7109375,30.53125,1,0,0,response7disk,,1,-22.15625,2.6953125,1,0,0,rectangle,-22.15625,2.6953125,1,0,0,-22.15625,2.6953125,1,0,0,1,36,196,147,1,,,,,,,,
,,,,,,,,,,,,,FF,,,,,,,,1.39901,,,,,,,,,,,,,,,,,,,,,,60ff20504c4a7476b051901f,61036e803a8cf79310e47e80,2021-07-29_23h14.47.111,Simcolourproject_2stim_asymm_v5,2020.2.10,MacIntel,60,61025ae37ef11b136ea224fe,,,,,,,,,3255,35.12109375,54.43359375,1,0,0,response1disk,,7,15.23046875,6.15234375,1,0,0,rectangle,15.23046875,6.15234375,1,0,0,15.23046875,6.15234375,1,0,0,1,37,197,126,1,,,,,,,,
,,,,,,,,,,,,,FF,,,,,,,,0.517235,,,,,,,,,,,,,,,,,,,,,,60ff20504c4a7476b051901f,61036e803a8cf79310e47e80,2021-07-29_23h14.47.111,Simcolourproject_2stim_asymm_v5,2020.2.10,MacIntel,60,61025ae37ef11b136ea224fe,,,,,,,,,3891,24.8125,64.625,1,0,0,response1disk,,7,20.1171875,12.20703125,1,0,0,rectangle,20.1171875,12.20703125,1,0,0,20.1171875,12.20703125,1,0,0,1,38,198,135,1,,,,,,,,
,,,,,,,,,,,,,FF,,,,,,,,0.53296,,,,,,,,,,,,,,,,,,,,,,60ff20504c4a7476b051901f,61036e803a8cf79310e47e80,2021-07-29_23h14.47.111,Simcolourproject_2stim_asymm_v5,2020.2.10,MacIntel,60,61025ae37ef11b136ea224fe,,,,,,,,,574,46,76.203125,1,0,0,response1disk,,7,26.97265625,6.24609375,1,0,0,rectangle,26.97265625,6.24609375,1,0,0,26.97265625,6.24609375,1,0,0,1,39,199,113,1,,,,,,,,
,,,,,,,,,,,,,FF,,,,,,,,1.54972,,,,,,,,,,,,,,,,,,,,,,60ff20504c4a7476b051901f,61036e803a8cf79310e47e80,2021-07-29_23h14.47.111,Simcolourproject_2stim_asymm_v5,2020.2.10,MacIntel,60,61025ae37ef11b136ea224fe,,,,,,,,,2722,71.70703125,-34.70703125,1,0,0,response3disk,,5,-5.8359375,-4.33984375,1,0,0,rectangle,-5.8359375,-4.33984375,1,0,0,-5.8359375,-4.33984375,1,0,0,1,40,200,19,1,,,,,,,,
,,,,,,,,,,,,,FF,,,,,,,,0.68383,,,,,,,,,,,,,,,,,,,,,,60ff20504c4a7476b051901f,61036e803a8cf79310e47e80,2021-07-29_23h14.47.111,Simcolourproject_2stim_asymm_v5,2020.2.10,MacIntel,60,61025ae37ef11b136ea224fe,,,,,,,,,3493,45.75390625,65.671875,1,0,0,response1disk,,7,27.453125,6.62109375,1,0,0,rectangle,27.453125,6.62109375,1,0,0,27.453125,6.62109375,1,0,0,1,41,201,131,1,,,,,,,,
,,,,,,,,,,,,,FF,,,,,,,,0.70106,,,,,,,,,,,,,,,,,,,,,,60ff20504c4a7476b051901f,61036e803a8cf79310e47e80,2021-07-29_23h14.47.111,Simcolourproject_2stim_asymm_v5,2020.2.10,MacIntel,60,61025ae37ef11b136ea224fe,,,,,,,,,2247,75.64453125,37.5546875,1,0,0,response1disk,,6,30.75390625,7.1640625,1,0,0,rectangle,30.75390625,7.1640625,1,0,0,30.75390625,7.1640625,1,0,0,1,42,202,145,1,,,,,,,,
,,,,,,,,,,,,,FF,,,,,,,,0.60055,,,,,,,,,,,,,,,,,,,,,,60ff20504c4a7476b051901f,61036e803a8cf79310e47e80,2021-07-29_23h14.47.111,Simcolourproject_2stim_asymm_v5,2020.2.10,MacIntel,60,61025ae37ef11b136ea224fe,,,,,,,,,1009,27.7265625,61.4375,1,0,0,response1disk,,7,27.2421875,6.97265625,1,0,0,rectangle,27.2421875,6.97265625,1,0,0,27.2421875,6.97265625,1,0,0,1,43,203,65,1,,,,,,,,
,,,,,,,,,,,,,FF,,,,,,,,0.54989,,,,,,,,,,,,,,,,,,,,,,60ff20504c4a7476b051901f,61036e803a8cf79310e47e80,2021-07-29_23h14.47.111,Simcolourproject_2stim_asymm_v5,2020.2.10,MacIntel,60,61025ae37ef11b136ea224fe,,,,,,,,,1162,36.5078125,56.8125,1,0,0,response1disk,,7,28.85546875,9.38671875,1,0,0,rectangle,28.85546875,9.38671875,1,0,0,28.85546875,9.38671875,1,0,0,1,44,204,10,1,,,,,,,,
,,,,,,,,,,,,,FF,,,,,,,,0.551115,,,,,,,,,,,,,,,,,,,,,,60ff20504c4a7476b051901f,61036e803a8cf79310e47e80,2021-07-29_23h14.47.111,Simcolourproject_2stim_asymm_v5,2020.2.10,MacIntel,60,61025ae37ef11b136ea224fe,,,,,,,,,310,30.12109375,36.96875,1,0,0,response1disk,,7,22.10546875,11.15625,1,0,0,rectangle,41.59765625,-84.39453125,1,0,0,-2.6640625,7.03125,1,0,0,1,45,205,61,1,,response3disk_3,TRUE,4,4,"[189,7,60,257,308,20,306,34,319,53,164,242,135,300,151,157,137,122,136,206]",1.56735,rectangle
,,,,,,,,,,,,,FF,,,,,,,,1.68495,,,,,,,,,,,,,,,,,,,,,,60ff20504c4a7476b051901f,61036e803a8cf79310e47e80,2021-07-29_23h14.47.111,Simcolourproject_2stim_asymm_v5,2020.2.10,MacIntel,60,61025ae37ef11b136ea224fe,,,,,,,,,977,74.37890625,-30.5703125,1,0,0,response3disk,,5,-19.55078125,3.41015625,1,0,0,rectangle,-19.55078125,3.41015625,1,0,0,-19.55078125,3.41015625,1,0,0,1,46,206,125,1,,,,,,,,
,,,,,,,,,,,,,FF,,,,,,,,0.51653,,,,,,,,,,,,,,,,,,,,,,60ff20504c4a7476b051901f,61036e803a8cf79310e47e80,2021-07-29_23h14.47.111,Simcolourproject_2stim_asymm_v5,2020.2.10,MacIntel,60,61025ae37ef11b136ea224fe,,,,,,,,,4155,15.44140625,53.03515625,1,0,0,response1disk,,7,2.8671875,0.31640625,1,0,0,rectangle,2.8671875,0.31640625,1,0,0,2.8671875,0.31640625,1,0,0,1,47,207,63,1,,,,,,,,
,,,,,,,,,,,,,FF,,,,,,,,1.30066,,,,,,,,,,,,,,,,,,,,,,60ff20504c4a7476b051901f,61036e803a8cf79310e47e80,2021-07-29_23h14.47.111,Simcolourproject_2stim_asymm_v5,2020.2.10,MacIntel,60,61025ae37ef11b136ea224fe,,,,,,,,,2444,38.39453125,48.25,1,0,0,response1disk,,7,2.73046875,-15.46875,1,0,0,rectangle,2.73046875,-15.46875,1,0,0,2.73046875,-15.46875,1,0,0,1,48,208,81,1,,,,,,,,
,,,,,,,,,,,,,FF,,,,,,,,0.9827,,,,,,,,,,,,,,,,,,,,,,60ff20504c4a7476b051901f,61036e803a8cf79310e47e80,2021-07-29_23h14.47.111,Simcolourproject_2stim_asymm_v5,2020.2.10,MacIntel,60,61025ae37ef11b136ea224fe,,,,,,,,,3577,119.8398438,56.26953125,1,0,0,response1disk,,6,-19.078125,-7.87109375,1,0,0,rectangle,-19.078125,-7.87109375,1,0,0,-19.078125,-7.87109375,1,0,0,1,49,209,137,1,,,,,,,,
,,,,,,,,,,,,,FF,,,,,,,,1.13305,,,,,,,,,,,,,,,,,,,,,,60ff20504c4a7476b051901f,61036e803a8cf79310e47e80,2021-07-29_23h14.47.111,Simcolourproject_2stim_asymm_v5,2020.2.10,MacIntel,60,61025ae37ef11b136ea224fe,,,,,,,,,8,87.03125,-40.4765625,1,0,0,response3disk,,5,13.56640625,-5.40625,1,0,0,rectangle,13.56640625,-5.40625,1,0,0,13.56640625,-5.40625,1,0,0,1,50,210,143,1,,,,,,,,
,,,,,,,,,,,,,FF,,,,,,,,0.498725,,,,,,,,,,,,,,,,,,,,,,60ff20504c4a7476b051901f,61036e803a8cf79310e47e80,2021-07-29_23h14.47.111,Simcolourproject_2stim_asymm_v5,2020.2.10,MacIntel,60,61025ae37ef11b136ea224fe,,,,,,,,,693,64.08984375,-29.14453125,1,0,0,response3disk,,5,15.48046875,-6.43359375,1,0,0,rectangle,15.48046875,-6.43359375,1,0,0,15.48046875,-6.43359375,1,0,0,1,51,211,87,1,,,,,,,,
,,,,,,,,,,,,,FF,,,,,,,,0.95095,,,,,,,,,,,,,,,,,,,,,,60ff20504c4a7476b051901f,61036e803a8cf79310e47e80,2021-07-29_23h14.47.111,Simcolourproject_2stim_asymm_v5,2020.2.10,MacIntel,60,61025ae37ef11b136ea224fe,,,,,,,,,4105,92.421875,-34.28125,1,0,0,response3disk,,5,24.546875,0.6171875,1,0,0,rectangle,24.546875,0.6171875,1,0,0,24.546875,0.6171875,1,0,0,1,52,212,105,1,,,,,,,,
,,,,,,,,,,,,,FF,,,,,,,,0.8169,,,,,,,,,,,,,,,,,,,,,,60ff20504c4a7476b051901f,61036e803a8cf79310e47e80,2021-07-29_23h14.47.111,Simcolourproject_2stim_asymm_v5,2020.2.10,MacIntel,60,61025ae37ef11b136ea224fe,,,,,,,,,3496,54.20703125,111.5976563,1,0,0,response1disk,,7,9.58984375,-1.95703125,1,0,0,rectangle,9.58984375,-1.95703125,1,0,0,9.58984375,-1.95703125,1,0,0,1,53,213,77,1,,,,,,,,
,,,,,,,,,,,,,FF,,,,,,,,0.567345,,,,,,,,,,,,,,,,,,,,,,60ff20504c4a7476b051901f,61036e803a8cf79310e47e80,2021-07-29_23h14.47.111,Simcolourproject_2stim_asymm_v5,2020.2.10,MacIntel,60,61025ae37ef11b136ea224fe,,,,,,,,,3486,41.72265625,57.3671875,1,0,0,response1disk,,7,18.49609375,7.33984375,1,0,0,rectangle,18.49609375,7.33984375,1,0,0,18.49609375,7.33984375,1,0,0,1,54,214,55,1,,,,,,,,
,,,,,,,,,,,,,FF,,,,,,,,0.816435,,,,,,,,,,,,,,,,,,,,,,60ff20504c4a7476b051901f,61036e803a8cf79310e47e80,2021-07-29_23h14.47.111,Simcolourproject_2stim_asymm_v5,2020.2.10,MacIntel,60,61025ae37ef11b136ea224fe,,,,,,,,,2224,53.34375,25.5078125,1,0,0,response1disk,,6,-6.21484375,-2.11328125,1,0,0,rectangle,-6.21484375,-2.11328125,1,0,0,-6.21484375,-2.11328125,1,0,0,1,55,215,76,1,,,,,,,,
,,,,,,,,,,,,,FF,,,,,,,,1.25181,,,,,,,,,,,,,,,,,,,,,,60ff20504c4a7476b051901f,61036e803a8cf79310e47e80,2021-07-29_23h14.47.111,Simcolourproject_2stim_asymm_v5,2020.2.10,MacIntel,60,61025ae37ef11b136ea224fe,,,,,,,,,3779,27.30859375,52.50390625,1,0,0,response1disk,,7,19.91015625,14.96484375,1,0,0,rectangle,19.91015625,14.96484375,1,0,0,19.91015625,14.96484375,1,0,0,1,56,216,40,1,,,,,,,,
,,,,,,,,,,,,,FF,,,,,,,,1.05102,,,,,,,,,,,,,,,,,,,,,,60ff20504c4a7476b051901f,61036e803a8cf79310e47e80,2021-07-29_23h14.47.111,Simcolourproject_2stim_asymm_v5,2020.2.10,MacIntel,60,61025ae37ef11b136ea224fe,,,,,,,,,3463,28.23828125,58.8515625,1,0,0,response1disk,,7,8.83203125,17.8515625,1,0,0,rectangle,8.83203125,17.8515625,1,0,0,8.83203125,17.8515625,1,0,0,1,57,217,50,1,,,,,,,,
,,,,,,,,,,,,,FF,,,,,,,,0.767515,,,,,,,,,,,,,,,,,,,,,,60ff20504c4a7476b051901f,61036e803a8cf79310e47e80,2021-07-29_23h14.47.111,Simcolourproject_2stim_asymm_v5,2020.2.10,MacIntel,60,61025ae37ef11b136ea224fe,,,,,,,,,4159,76.03515625,34.21875,1,0,0,response1disk,,6,-10.8359375,4.89453125,1,0,0,rectangle,-10.8359375,4.89453125,1,0,0,-10.8359375,4.89453125,1,0,0,1,58,218,132,1,,,,,,,,
,,,,,,,,,,,,,FF,,,,,,,,0.50087,,,,,,,,,,,,,,,,,,,,,,60ff20504c4a7476b051901f,61036e803a8cf79310e47e80,2021-07-29_23h14.47.111,Simcolourproject_2stim_asymm_v5,2020.2.10,MacIntel,60,61025ae37ef11b136ea224fe,,,,,,,,,3856,54.2578125,35.4375,1,0,0,response1disk,,6,15.21875,12.75,1,0,0,rectangle,15.21875,12.75,1,0,0,15.21875,12.75,1,0,0,1,59,219,56,1,,,,,,,,
,,,,,,,,,,,,,FF,,,,,,,,0.799275,,,,,,,,,,,,,,,,,,,,,,60ff20504c4a7476b051901f,61036e803a8cf79310e47e80,2021-07-29_23h14.47.111,Simcolourproject_2stim_asymm_v5,2020.2.10,MacIntel,60,61025ae37ef11b136ea224fe,,,,,,,,,655,57.66796875,-29.13671875,1,0,0,response3disk,,5,12.78515625,-1.41015625,1,0,0,rectangle,12.78515625,-1.41015625,1,0,0,12.78515625,-1.41015625,1,0,0,1,60,220,118,1,,,,,,,,
,,,,,,,,,,,,,FF,,,,,,,,0.65071,,,,,,,,,,,,,,,,,,,,,,60ff20504c4a7476b051901f,61036e803a8cf79310e47e80,2021-07-29_23h14.47.111,Simcolourproject_2stim_asymm_v5,2020.2.10,MacIntel,60,61025ae37ef11b136ea224fe,,,,,,,,,1194,72.82421875,-39.3671875,1,0,0,response3disk,,5,28.3515625,-6.5625,1,0,0,rectangle,28.3515625,-6.5625,1,0,0,28.3515625,-6.5625,1,0,0,1,61,221,88,1,,,,,,,,
,,,,,,,,,,,,,FF,,,,,,,,1.79981,,,,,,,,,,,,,,,,,,,,,,60ff20504c4a7476b051901f,61036e803a8cf79310e47e80,2021-07-29_23h14.47.111,Simcolourproject_2stim_asymm_v5,2020.2.10,MacIntel,60,61025ae37ef11b136ea224fe,,,,,,,,,2852,23.68359375,41.54296875,1,0,0,response1disk,,7,3.640625,2.9140625,1,0,0,rectangle,3.640625,2.9140625,1,0,0,3.640625,2.9140625,1,0,0,1,62,222,12,1,,,,,,,,
,,,,,,,,,,,,,FF,,,,,,,,1.36658,,,,,,,,,,,,,,,,,,,,,,60ff20504c4a7476b051901f,61036e803a8cf79310e47e80,2021-07-29_23h14.47.111,Simcolourproject_2stim_asymm_v5,2020.2.10,MacIntel,60,61025ae37ef11b136ea224fe,,,,,,,,,4178,36.1875,65.8125,1,0,0,response1disk,,7,9.07421875,1.34375,1,0,0,rectangle,9.07421875,1.34375,1,0,0,9.07421875,1.34375,1,0,0,1,63,223,156,1,,,,,,,,
,,,,,,,,,,,,,FF,,,,,,,,0.634515,,,,,,,,,,,,,,,,,,,,,,60ff20504c4a7476b051901f,61036e803a8cf79310e47e80,2021-07-29_23h14.47.111,Simcolourproject_2stim_asymm_v5,2020.2.10,MacIntel,60,61025ae37ef11b136ea224fe,,,,,,,,,3784,61.95703125,39.71484375,1,0,0,response1disk,,6,5.2578125,2.0703125,1,0,0,rectangle,5.2578125,2.0703125,1,0,0,5.2578125,2.0703125,1,0,0,1,64,224,139,1,,,,,,,,
,,,,,,,,,,,,,FF,,,,,,,,2.05047,,,,,,,,,,,,,,,,,,,,,,60ff20504c4a7476b051901f,61036e803a8cf79310e47e80,2021-07-29_23h14.47.111,Simcolourproject_2stim_asymm_v5,2020.2.10,MacIntel,60,61025ae37ef11b136ea224fe,,,,,,,,,912,34.91796875,66.359375,1,0,0,response1disk,,7,10.52734375,3.65234375,1,0,0,rectangle,10.52734375,3.65234375,1,0,0,10.52734375,3.65234375,1,0,0,1,65,225,5,1,,,,,,,,
,,,,,,,,,,,,,FF,,,,,,,,0.733875,,,,,,,,,,,,,,,,,,,,,,60ff20504c4a7476b051901f,61036e803a8cf79310e47e80,2021-07-29_23h14.47.111,Simcolourproject_2stim_asymm_v5,2020.2.10,MacIntel,60,61025ae37ef11b136ea224fe,,,,,,,,,1954,75.50390625,-28.484375,1,0,0,response3disk,,5,-12.203125,-11.62890625,1,0,0,rectangle,-12.203125,-11.62890625,1,0,0,-12.203125,-11.62890625,1,0,0,1,66,226,98,1,,,,,,,,
,,,,,,,,,,,,,FF,,,,,,,,1.798805,,,,,,,,,,,,,,,,,,,,,,60ff20504c4a7476b051901f,61036e803a8cf79310e47e80,2021-07-29_23h14.47.111,Simcolourproject_2stim_asymm_v5,2020.2.10,MacIntel,60,61025ae37ef11b136ea224fe,,,,,,,,,338,52.55859375,-28.2578125,1,0,0,response3disk,,5,7.2734375,-10.3359375,1,0,0,rectangle,7.2734375,-10.3359375,1,0,0,7.2734375,-10.3359375,1,0,0,1,67,227,112,1,,,,,,,,
,,,,,,,,,,,,,FF,,,,,,,,0.583085,,,,,,,,,,,,,,,,,,,,,,60ff20504c4a7476b051901f,61036e803a8cf79310e47e80,2021-07-29_23h14.47.111,Simcolourproject_2stim_asymm_v5,2020.2.10,MacIntel,60,61025ae37ef11b136ea224fe,,,,,,,,,4301,31.83984375,43.3984375,1,0,0,response1disk,,7,20.01171875,15.77734375,1,0,0,rectangle,20.01171875,15.77734375,1,0,0,20.01171875,15.77734375,1,0,0,1,68,228,34,1,,,,,,,,
,,,,,,,,,,,,,FF,,,,,,,,0.483095,,,,,,,,,,,,,,,,,,,,,,60ff20504c4a7476b051901f,61036e803a8cf79310e47e80,2021-07-29_23h14.47.111,Simcolourproject_2stim_asymm_v5,2020.2.10,MacIntel,60,61025ae37ef11b136ea224fe,,,,,,,,,356,27.328125,59.203125,1,0,0,response1disk,,7,13.6328125,12.41015625,1,0,0,rectangle,13.6328125,12.41015625,1,0,0,13.6328125,12.41015625,1,0,0,1,69,229,62,1,,,,,,,,
,,,,,,,,,,,,,FF,,,,,,,,1.183745,,,,,,,,,,,,,,,,,,,,,,60ff20504c4a7476b051901f,61036e803a8cf79310e47e80,2021-07-29_23h14.47.111,Simcolourproject_2stim_asymm_v5,2020.2.10,MacIntel,60,61025ae37ef11b136ea224fe,,,,,,,,,1947,79.203125,-35.01171875,1,0,0,response3disk,,5,0.1171875,-3.828125,1,0,0,rectangle,0.1171875,-3.828125,1,0,0,0.1171875,-3.828125,1,0,0,1,70,230,111,1,,,,,,,,
,,,,,,,,,,,,,FF,,,,,,,,0.699145,,,,,,,,,,,,,,,,,,,,,,60ff20504c4a7476b051901f,61036e803a8cf79310e47e80,2021-07-29_23h14.47.111,Simcolourproject_2stim_asymm_v5,2020.2.10,MacIntel,60,61025ae37ef11b136ea224fe,,,,,,,,,4287,19.32421875,58.5078125,1,0,0,response1disk,,7,15.9140625,7,1,0,0,rectangle,15.9140625,7,1,0,0,15.9140625,7,1,0,0,1,71,231,120,1,,,,,,,,
,,,,,,,,,,,,,FF,,,,,,,,1.16651,,,,,,,,,,,,,,,,,,,,,,60ff20504c4a7476b051901f,61036e803a8cf79310e47e80,2021-07-29_23h14.47.111,Simcolourproject_2stim_asymm_v5,2020.2.10,MacIntel,60,61025ae37ef11b136ea224fe,,,,,,,,,1211,-33.71484375,55.1640625,1,0,0,response7disk,,0,19.4921875,-2.61328125,1,0,0,rectangle,19.4921875,-2.61328125,1,0,0,19.4921875,-2.61328125,1,0,0,1,72,232,68,1,,,,,,,,
,,,,,,,,,,,,,FF,,,,,,,,1.34993,,,,,,,,,,,,,,,,,,,,,,60ff20504c4a7476b051901f,61036e803a8cf79310e47e80,2021-07-29_23h14.47.111,Simcolourproject_2stim_asymm_v5,2020.2.10,MacIntel,60,61025ae37ef11b136ea224fe,,,,,,,,,225,39.73828125,73.8125,1,0,0,response1disk,,7,0.546875,17.359375,1,0,0,rectangle,0.546875,17.359375,1,0,0,0.546875,17.359375,1,0,0,1,73,233,94,1,,,,,,,,
,,,,,,,,,,,,,FF,,,,,,,,1.049995,,,,,,,,,,,,,,,,,,,,,,60ff20504c4a7476b051901f,61036e803a8cf79310e47e80,2021-07-29_23h14.47.111,Simcolourproject_2stim_asymm_v5,2020.2.10,MacIntel,60,61025ae37ef11b136ea224fe,,,,,,,,,1228,75.4453125,-34.24609375,1,0,0,response3disk,,5,25.4140625,-10.734375,1,0,0,rectangle,25.4140625,-10.734375,1,0,0,25.4140625,-10.734375,1,0,0,1,74,234,153,1,,,,,,,,
,,,,,,,,,,,,,FF,,,,,,,,1.33387,,,,,,,,,,,,,,,,,,,,,,60ff20504c4a7476b051901f,61036e803a8cf79310e47e80,2021-07-29_23h14.47.111,Simcolourproject_2stim_asymm_v5,2020.2.10,MacIntel,60,61025ae37ef11b136ea224fe,,,,,,,,,3440,34.43359375,61.42578125,1,0,0,response1disk,,7,11.1484375,5.82421875,1,0,0,rectangle,11.1484375,5.82421875,1,0,0,11.1484375,5.82421875,1,0,0,1,75,235,79,1,,,,,,,,
,,,,,,,,,,,,,FF,,,,,,,,0.73331,,,,,,,,,,,,,,,,,,,,,,60ff20504c4a7476b051901f,61036e803a8cf79310e47e80,2021-07-29_23h14.47.111,Simcolourproject_2stim_asymm_v5,2020.2.10,MacIntel,60,61025ae37ef11b136ea224fe,,,,,,,,,1748,73.15234375,-26.08984375,1,0,0,response3disk,,5,5.140625,-7.3984375,1,0,0,rectangle,5.140625,-7.3984375,1,0,0,5.140625,-7.3984375,1,0,0,1,76,236,75,1,,,,,,,,
,,,,,,,,,,,,,FF,,,,,,,,0.900135,,,,,,,,,,,,,,,,,,,,,,60ff20504c4a7476b051901f,61036e803a8cf79310e47e80,2021-07-29_23h14.47.111,Simcolourproject_2stim_asymm_v5,2020.2.10,MacIntel,60,61025ae37ef11b136ea224fe,,,,,,,,,3935,-70.859375,37.01953125,1,0,0,response7disk,,1,1.89453125,7.5234375,1,0,0,rectangle,1.89453125,7.5234375,1,0,0,1.89453125,7.5234375,1,0,0,1,77,237,101,1,,,,,,,,
,,,,,,,,,,,,,FF,,,,,,,,1.483115,,,,,,,,,,,,,,,,,,,,,,60ff20504c4a7476b051901f,61036e803a8cf79310e47e80,2021-07-29_23h14.47.111,Simcolourproject_2stim_asymm_v5,2020.2.10,MacIntel,60,61025ae37ef11b136ea224fe,,,,,,,,,3020,30.8984375,71.109375,1,0,0,response1disk,,7,4.44140625,-5.421875,1,0,0,rectangle,4.44140625,-5.421875,1,0,0,4.44140625,-5.421875,1,0,0,1,78,238,91,1,,,,,,,,
,,,,,,,,,,,,,FF,,,,,,,,0.9501,,,,,,,,,,,,,,,,,,,,,,60ff20504c4a7476b051901f,61036e803a8cf79310e47e80,2021-07-29_23h14.47.111,Simcolourproject_2stim_asymm_v5,2020.2.10,MacIntel,60,61025ae37ef11b136ea224fe,,,,,,,,,2663,89.875,40.109375,1,0,0,response1disk,,6,-24.73828125,-9.6796875,1,0,0,rectangle,-24.73828125,-9.6796875,1,0,0,-24.73828125,-9.6796875,1,0,0,1,79,239,159,1,,,,,,,,
,,,,,,,,,,,,,FF,,,,,,,,0.766905,,,,,,,,,,,,,,,,,,,,,,60ff20504c4a7476b051901f,61036e803a8cf79310e47e80,2021-07-29_23h14.47.111,Simcolourproject_2stim_asymm_v5,2020.2.10,MacIntel,60,61025ae37ef11b136ea224fe,,,,,,,,,3263,24.33203125,65.12109375,1,0,0,response1disk,,7,16.17578125,13.67578125,1,0,0,rectangle,16.17578125,13.67578125,1,0,0,16.17578125,13.67578125,1,0,0,1,80,240,138,1,,,,,,,,
,,,,,,,,,,,,,FF,,,,,,,,0.7831,,,,,,,,,,,,,,,,,,,,,,60ff20504c4a7476b051901f,61036e803a8cf79310e47e80,2021-07-29_23h14.47.111,Simcolourproject_2stim_asymm_v5,2020.2.10,MacIntel,60,61025ae37ef11b136ea224fe,,,,,,,,,1389,64.42578125,32.46875,1,0,0,response1disk,,6,9.671875,5.1875,1,0,0,rectangle,-54.78125,-27.6015625,1,0,0,-1.2578125,-2.67578125,1,0,0,1,81,241,17,1,,response5disk_3,TRUE,2,2,"[189,7,60,257,308,20,306,34,319,53,164,242,135,300,151,157,137,122,136,206]",1.96811,rectangle
,,,,,,,,,,,,,FF,,,,,,,,1.400005,,,,,,,,,,,,,,,,,,,,,,60ff20504c4a7476b051901f,61036e803a8cf79310e47e80,2021-07-29_23h14.47.111,Simcolourproject_2stim_asymm_v5,2020.2.10,MacIntel,60,61025ae37ef11b136ea224fe,,,,,,,,,248,-48.16015625,-73.04296875,1,0,0,response5disk,,3,-26.16015625,-0.6640625,1,0,0,rectangle,-26.16015625,-0.6640625,1,0,0,-26.16015625,-0.6640625,1,0,0,1,82,242,71,1,,,,,,,,
,,,,,,,,,,,,,FF,,,,,,,,2.56737,,,,,,,,,,,,,,,,,,,,,,60ff20504c4a7476b051901f,61036e803a8cf79310e47e80,2021-07-29_23h14.47.111,Simcolourproject_2stim_asymm_v5,2020.2.10,MacIntel,60,61025ae37ef11b136ea224fe,,,,,,,,,1160,37.05078125,-56.9296875,1,0,0,response3disk,,4,16.1796875,-11.98046875,1,0,0,rectangle,16.1796875,-11.98046875,1,0,0,16.1796875,-11.98046875,1,0,0,1,83,243,86,1,,,,,,,,
,,,,,,,,,,,,,FF,,,,,,,,0.549255,,,,,,,,,,,,,,,,,,,,,,60ff20504c4a7476b051901f,61036e803a8cf79310e47e80,2021-07-29_23h14.47.111,Simcolourproject_2stim_asymm_v5,2020.2.10,MacIntel,60,61025ae37ef11b136ea224fe,,,,,,,,,2047,27.7890625,-56.6640625,1,0,0,response3disk,,4,19.72265625,-13.8203125,1,0,0,rectangle,19.72265625,-13.8203125,1,0,0,19.72265625,-13.8203125,1,0,0,1,84,244,31,1,,,,,,,,
,,,,,,,,,,,,,FF,,,,,,,,1.90034,,,,,,,,,,,,,,,,,,,,,,60ff20504c4a7476b051901f,61036e803a8cf79310e47e80,2021-07-29_23h14.47.111,Simcolourproject_2stim_asymm_v5,2020.2.10,MacIntel,60,61025ae37ef11b136ea224fe,,,,,,,,,1934,63.98828125,37.64453125,1,0,0,response1disk,,6,0.75,-2.90234375,1,0,0,rectangle,0.75,-2.90234375,1,0,0,0.75,-2.90234375,1,0,0,1,85,245,13,1,,,,,,,,
,,,,,,,,,,,,,FF,,,,,,,,0.96689,,,,,,,,,,,,,,,,,,,,,,60ff20504c4a7476b051901f,61036e803a8cf79310e47e80,2021-07-29_23h14.47.111,Simcolourproject_2stim_asymm_v5,2020.2.10,MacIntel,60,61025ae37ef11b136ea224fe,,,,,,,,,1114,68.63671875,-35.92578125,1,0,0,response3disk,,5,12.4921875,-2.6875,1,0,0,rectangle,12.4921875,-2.6875,1,0,0,12.4921875,-2.6875,1,0,0,1,86,246,41,1,,,,,,,,
,,,,,,,,,,,,,FF,,,,,,,,0.48288,,,,,,,,,,,,,,,,,,,,,,60ff20504c4a7476b051901f,61036e803a8cf79310e47e80,2021-07-29_23h14.47.111,Simcolourproject_2stim_asymm_v5,2020.2.10,MacIntel,60,61025ae37ef11b136ea224fe,,,,,,,,,1409,29.5234375,50.3515625,1,0,0,response1disk,,7,13.80859375,-1.8203125,1,0,0,rectangle,13.80859375,-1.8203125,1,0,0,13.80859375,-1.8203125,1,0,0,1,87,247,48,1,,,,,,,,
