key_resp.keys,key_resp.rt,key_resp_14.keys,key_resp_14.rt,key_resp_15.keys,key_resp_15.rt,key_resp_17.keys,key_resp_17.rt,key_resp_9.keys,key_resp_9.rt,key_resp_10.keys,key_resp_10.rt,practice_comparison,Ecc,mouse_5.x,mouse_5.y,mouse_5.leftButton,mouse_5.midButton,mouse_5.rightButton,mouse_5.clicked_name,pracsimilarity,response_time,mouse_10.x,mouse_10.y,mouse_10.leftButton,mouse_10.midButton,mouse_10.rightButton,mouse_10.clicked_name,mouse_7.x,mouse_7.y,mouse_7.leftButton,mouse_7.midButton,mouse_7.rightButton,mouse_6.x,mouse_6.y,mouse_6.leftButton,mouse_6.midButton,mouse_6.rightButton,duringprac.thisRepN,duringprac.thisTrialN,duringprac.thisN,duringprac.thisIndex,duringprac.ran,participant,session,date,expName,psychopyVersion,OS,frameRate,study_id,mouse_7.clicked_name,catchpracsimilarity,catch_response_time,catchnumberprac,catchtrialorderprac,mouse_6.clicked_name,key_resp_22.keys,key_resp_22.rt,realcomparison,mouse.x,mouse.y,mouse.leftButton,mouse.midButton,mouse.rightButton,mouse.clicked_name,Colour2,similarity,mouse_2.x,mouse_2.y,mouse_2.leftButton,mouse_2.midButton,mouse_2.rightButton,mouse_2.clicked_name,mouse_3.x,mouse_3.y,mouse_3.leftButton,mouse_3.midButton,mouse_3.rightButton,mouse_11.x,mouse_11.y,mouse_11.leftButton,mouse_11.midButton,mouse_11.rightButton,trials_2.thisRepN,trials_2.thisTrialN,trials_2.thisN,trials_2.thisIndex,trials_2.ran,Colour1,mouse_3.clicked_name,catchornah,catchsimilarity,catchnumber,catchtrialorder,catchRT,mouse_11.clicked_name
space,1.63,space,7.579,space,24.604,space,20.27,space,1.982,space,4.961,125,FF,155,-109,1,0,0,response3disk_5,5,16.454,25,-9,1,0,0,rectangle_8,25,-9,1,0,0,25,-9,1,0,0,0,0,0,0,1,60ff4f91b86e87a141a6686e,61036cace5b336bf7d3152d0,2021-07-29_22h06.40.486,Simcolourproject_2stim_asymm_v5,2020.2.10,MacIntel,60,61025ae37ef11b136ea224fe,,,,,,,,,,,,,,,,,,,,,,,,,,,,,,,,,,,,,,,,,,,,,,
,,,,,,,,,,,,124,PF,94,-81,1,0,0,response3disk_5,5,10.669,-26,0,1,0,0,rectangle_8,130,-110,1,0,0,17,9,1,0,0,0,1,1,2,1,60ff4f91b86e87a141a6686e,61036cace5b336bf7d3152d0,2021-07-29_22h06.40.486,Simcolourproject_2stim_asymm_v5,2020.2.10,MacIntel,60,61025ae37ef11b136ea224fe,response3disk_7,5,3.385,5,"[2,5]",rectangle_4,,,,,,,,,,,,,,,,,,,,,,,,,,,,,,,,,,,,,,,,
,,,,,,,,,,,,148,FF,76,-128,1,0,0,response3disk_5,4,7.219,-19,0,1,0,0,rectangle_8,-19,0,1,0,0,-19,0,1,0,0,0,2,2,5,1,60ff4f91b86e87a141a6686e,61036cace5b336bf7d3152d0,2021-07-29_22h06.40.486,Simcolourproject_2stim_asymm_v5,2020.2.10,MacIntel,60,61025ae37ef11b136ea224fe,,,,,,,,,,,,,,,,,,,,,,,,,,,,,,,,,,,,,,,,,,,,,,
,,,,,,,,,,,,108,FF,-128,-65,1,0,0,response5disk_5,2,4.418,-20,0,1,0,0,rectangle_8,-20,0,1,0,0,-20,0,1,0,0,0,3,3,3,1,60ff4f91b86e87a141a6686e,61036cace5b336bf7d3152d0,2021-07-29_22h06.40.486,Simcolourproject_2stim_asymm_v5,2020.2.10,MacIntel,60,61025ae37ef11b136ea224fe,,,,,,,,,,,,,,,,,,,,,,,,,,,,,,,,,,,,,,,,,,,,,,
,,,,,,,,,,,,147,PF,-119,-61,1,0,0,response5disk_5,2,1.316,-39,-12,1,0,0,rectangle_8,130,-74,1,0,0,-15,-8,1,0,0,0,4,4,1,1,60ff4f91b86e87a141a6686e,61036cace5b336bf7d3152d0,2021-07-29_22h06.40.486,Simcolourproject_2stim_asymm_v5,2020.2.10,MacIntel,60,61025ae37ef11b136ea224fe,response3disk_7,5,3.218,5,"[2,5]",rectangle_4,,,,,,,,,,,,,,,,,,,,,,,,,,,,,,,,,,,,,,,,
,,,,,,,,,,,,102,PF,89,-69,1,0,0,response3disk_5,5,3.285,4,-11,1,0,0,rectangle_8,4,-11,1,0,0,4,-11,1,0,0,0,5,5,6,1,60ff4f91b86e87a141a6686e,61036cace5b336bf7d3152d0,2021-07-29_22h06.40.486,Simcolourproject_2stim_asymm_v5,2020.2.10,MacIntel,60,61025ae37ef11b136ea224fe,,,,,,,,,,,,,,,,,,,,,,,,,,,,,,,,,,,,,,,,,,,,,,
,,,,,,,,,,,,63,PF,-135,-72,1,0,0,response5disk_5,2,1.568,9,21,1,0,0,rectangle_8,9,21,1,0,0,9,21,1,0,0,0,6,6,4,1,60ff4f91b86e87a141a6686e,61036cace5b336bf7d3152d0,2021-07-29_22h06.40.486,Simcolourproject_2stim_asymm_v5,2020.2.10,MacIntel,60,61025ae37ef11b136ea224fe,,,,,,,,,,,,,,,,,,,,,,,,,,,,,,,,,,,,,,,,,,,,,,
,,,,,,,,,,,,,FF,,,,,,,,4.235,,,,,,,,,,,,,,,,,,,,,,60ff4f91b86e87a141a6686e,61036cace5b336bf7d3152d0,2021-07-29_22h06.40.486,Simcolourproject_2stim_asymm_v5,2020.2.10,MacIntel,60,61025ae37ef11b136ea224fe,,,,,,,space,3.247,3149,-117,-142,1,0,0,response5disk,,3,28,12,1,0,0,rectangle,28,12,1,0,0,28,12,1,0,0,0,0,0,158,1,,,,,,,,
,,,,,,,,,,,,,FF,,,,,,,,3.351,,,,,,,,,,,,,,,,,,,,,,60ff4f91b86e87a141a6686e,61036cace5b336bf7d3152d0,2021-07-29_22h06.40.486,Simcolourproject_2stim_asymm_v5,2020.2.10,MacIntel,60,61025ae37ef11b136ea224fe,,,,,,,,,3713,-74,-171,1,0,0,response5disk,,3,-4,8,1,0,0,rectangle,152,-48,1,0,0,15,-1,1,0,0,0,1,1,89,1,,response3disk_3,TRUE,5,5,"[256,205,42,215,7,135,194,99,47,272,222,28,308,3,46,185,2,174,118,79]",3.316,rectangle
,,,,,,,,,,,,,FF,,,,,,,,1.668,,,,,,,,,,,,,,,,,,,,,,60ff4f91b86e87a141a6686e,61036cace5b336bf7d3152d0,2021-07-29_22h06.40.486,Simcolourproject_2stim_asymm_v5,2020.2.10,MacIntel,60,61025ae37ef11b136ea224fe,,,,,,,,,771,110,-156,1,0,0,response3disk,,4,10,-7,1,0,0,rectangle,101,173,1,0,0,26,7,1,0,0,0,2,2,50,1,,response1disk_3,TRUE,7,7,"[256,205,42,215,7,135,194,99,47,272,222,28,308,3,46,185,2,174,118,79]",2.384,rectangle
,,,,,,,,,,,,,FF,,,,,,,,1.3,,,,,,,,,,,,,,,,,,,,,,60ff4f91b86e87a141a6686e,61036cace5b336bf7d3152d0,2021-07-29_22h06.40.486,Simcolourproject_2stim_asymm_v5,2020.2.10,MacIntel,60,61025ae37ef11b136ea224fe,,,,,,,,,3966,-168,-66,1,0,0,response5disk,,2,-37,6,1,0,0,rectangle,-37,6,1,0,0,-37,6,1,0,0,0,3,3,113,1,,,,,,,,
,,,,,,,,,,,,,FF,,,,,,,,1.868,,,,,,,,,,,,,,,,,,,,,,60ff4f91b86e87a141a6686e,61036cace5b336bf7d3152d0,2021-07-29_22h06.40.486,Simcolourproject_2stim_asymm_v5,2020.2.10,MacIntel,60,61025ae37ef11b136ea224fe,,,,,,,,,1149,77,-171,1,0,0,response3disk,,4,-23,-11,1,0,0,rectangle,-23,-11,1,0,0,-23,-11,1,0,0,0,4,4,104,1,,,,,,,,
,,,,,,,,,,,,,FF,,,,,,,,2.817,,,,,,,,,,,,,,,,,,,,,,60ff4f91b86e87a141a6686e,61036cace5b336bf7d3152d0,2021-07-29_22h06.40.486,Simcolourproject_2stim_asymm_v5,2020.2.10,MacIntel,60,61025ae37ef11b136ea224fe,,,,,,,,,4328,116,-106,1,0,0,response3disk,,5,17,0,1,0,0,rectangle,17,0,1,0,0,17,0,1,0,0,0,5,5,31,1,,,,,,,,
,,,,,,,,,,,,,FF,,,,,,,,2.035,,,,,,,,,,,,,,,,,,,,,,60ff4f91b86e87a141a6686e,61036cace5b336bf7d3152d0,2021-07-29_22h06.40.486,Simcolourproject_2stim_asymm_v5,2020.2.10,MacIntel,60,61025ae37ef11b136ea224fe,,,,,,,,,145,140,44,1,0,0,response1disk,,6,4,-9,1,0,0,rectangle,-82,-179,1,0,0,4,-14,1,0,0,0,6,6,24,1,,response5disk_3,TRUE,3,3,"[256,205,42,215,7,135,194,99,47,272,222,28,308,3,46,185,2,174,118,79]",2.05,rectangle
,,,,,,,,,,,,,FF,,,,,,,,1.117,,,,,,,,,,,,,,,,,,,,,,60ff4f91b86e87a141a6686e,61036cace5b336bf7d3152d0,2021-07-29_22h06.40.486,Simcolourproject_2stim_asymm_v5,2020.2.10,MacIntel,60,61025ae37ef11b136ea224fe,,,,,,,,,3294,64,-138,1,0,0,response3disk,,4,-10,-2,1,0,0,rectangle,-10,-2,1,0,0,-10,-2,1,0,0,0,7,7,80,1,,,,,,,,
,,,,,,,,,,,,,FF,,,,,,,,1.283,,,,,,,,,,,,,,,,,,,,,,60ff4f91b86e87a141a6686e,61036cace5b336bf7d3152d0,2021-07-29_22h06.40.486,Simcolourproject_2stim_asymm_v5,2020.2.10,MacIntel,60,61025ae37ef11b136ea224fe,,,,,,,,,1671,35,-160,1,0,0,response3disk,,4,-2,23,1,0,0,rectangle,-2,23,1,0,0,-2,23,1,0,0,0,8,8,91,1,,,,,,,,
,,,,,,,,,,,,,FF,,,,,,,,1.217,,,,,,,,,,,,,,,,,,,,,,60ff4f91b86e87a141a6686e,61036cace5b336bf7d3152d0,2021-07-29_22h06.40.486,Simcolourproject_2stim_asymm_v5,2020.2.10,MacIntel,60,61025ae37ef11b136ea224fe,,,,,,,,,3067,104,149,1,0,0,response1disk,,7,-14,6,1,0,0,rectangle,-14,6,1,0,0,-14,6,1,0,0,0,9,9,78,1,,,,,,,,
,,,,,,,,,,,,,FF,,,,,,,,1.117,,,,,,,,,,,,,,,,,,,,,,60ff4f91b86e87a141a6686e,61036cace5b336bf7d3152d0,2021-07-29_22h06.40.486,Simcolourproject_2stim_asymm_v5,2020.2.10,MacIntel,60,61025ae37ef11b136ea224fe,,,,,,,,,3786,70,105,1,0,0,response1disk,,7,36,-3,1,0,0,rectangle,36,-3,1,0,0,36,-3,1,0,0,0,10,10,110,1,,,,,,,,
,,,,,,,,,,,,,FF,,,,,,,,1.018,,,,,,,,,,,,,,,,,,,,,,60ff4f91b86e87a141a6686e,61036cace5b336bf7d3152d0,2021-07-29_22h06.40.486,Simcolourproject_2stim_asymm_v5,2020.2.10,MacIntel,60,61025ae37ef11b136ea224fe,,,,,,,,,77,-85,47,1,0,0,response7disk,,1,15,-4,1,0,0,rectangle,15,-4,1,0,0,15,-4,1,0,0,0,11,11,25,1,,,,,,,,
,,,,,,,,,,,,,FF,,,,,,,,2.033,,,,,,,,,,,,,,,,,,,,,,60ff4f91b86e87a141a6686e,61036cace5b336bf7d3152d0,2021-07-29_22h06.40.486,Simcolourproject_2stim_asymm_v5,2020.2.10,MacIntel,60,61025ae37ef11b136ea224fe,,,,,,,,,1565,120,-61,1,0,0,response3disk,,5,38,-6,1,0,0,rectangle,38,-6,1,0,0,38,-6,1,0,0,0,12,12,146,1,,,,,,,,
,,,,,,,,,,,,,FF,,,,,,,,1.201,,,,,,,,,,,,,,,,,,,,,,60ff4f91b86e87a141a6686e,61036cace5b336bf7d3152d0,2021-07-29_22h06.40.486,Simcolourproject_2stim_asymm_v5,2020.2.10,MacIntel,60,61025ae37ef11b136ea224fe,,,,,,,,,100,89,-53,1,0,0,response3disk,,5,-13,-22,1,0,0,rectangle,-13,-22,1,0,0,-13,-22,1,0,0,0,13,13,40,1,,,,,,,,
,,,,,,,,,,,,,FF,,,,,,,,0.8,,,,,,,,,,,,,,,,,,,,,,60ff4f91b86e87a141a6686e,61036cace5b336bf7d3152d0,2021-07-29_22h06.40.486,Simcolourproject_2stim_asymm_v5,2020.2.10,MacIntel,60,61025ae37ef11b136ea224fe,,,,,,,,,1591,165,48,1,0,0,response1disk,,6,38,0,1,0,0,rectangle,38,0,1,0,0,38,0,1,0,0,0,14,14,48,1,,,,,,,,
,,,,,,,,,,,,,FF,,,,,,,,1.1,,,,,,,,,,,,,,,,,,,,,,60ff4f91b86e87a141a6686e,61036cace5b336bf7d3152d0,2021-07-29_22h06.40.486,Simcolourproject_2stim_asymm_v5,2020.2.10,MacIntel,60,61025ae37ef11b136ea224fe,,,,,,,,,3102,52,-111,1,0,0,response3disk,,4,12,-19,1,0,0,rectangle,12,-19,1,0,0,12,-19,1,0,0,0,15,15,54,1,,,,,,,,
,,,,,,,,,,,,,FF,,,,,,,,0.883,,,,,,,,,,,,,,,,,,,,,,60ff4f91b86e87a141a6686e,61036cace5b336bf7d3152d0,2021-07-29_22h06.40.486,Simcolourproject_2stim_asymm_v5,2020.2.10,MacIntel,60,61025ae37ef11b136ea224fe,,,,,,,,,1641,142,156,1,0,0,response1disk,,7,-24,4,1,0,0,rectangle,-24,4,1,0,0,-24,4,1,0,0,0,16,16,98,1,,,,,,,,
,,,,,,,,,,,,,FF,,,,,,,,0.967,,,,,,,,,,,,,,,,,,,,,,60ff4f91b86e87a141a6686e,61036cace5b336bf7d3152d0,2021-07-29_22h06.40.486,Simcolourproject_2stim_asymm_v5,2020.2.10,MacIntel,60,61025ae37ef11b136ea224fe,,,,,,,,,1665,48,113,1,0,0,response1disk,,7,-13,0,1,0,0,rectangle,-13,0,1,0,0,-13,0,1,0,0,0,17,17,108,1,,,,,,,,
,,,,,,,,,,,,,FF,,,,,,,,0.899,,,,,,,,,,,,,,,,,,,,,,60ff4f91b86e87a141a6686e,61036cace5b336bf7d3152d0,2021-07-29_22h06.40.486,Simcolourproject_2stim_asymm_v5,2020.2.10,MacIntel,60,61025ae37ef11b136ea224fe,,,,,,,,,1295,63,84,1,0,0,response1disk,,7,-5,11,1,0,0,rectangle,-5,11,1,0,0,-5,11,1,0,0,0,18,18,11,1,,,,,,,,
,,,,,,,,,,,,,FF,,,,,,,,0.616,,,,,,,,,,,,,,,,,,,,,,60ff4f91b86e87a141a6686e,61036cace5b336bf7d3152d0,2021-07-29_22h06.40.486,Simcolourproject_2stim_asymm_v5,2020.2.10,MacIntel,60,61025ae37ef11b136ea224fe,,,,,,,,,1651,79,128,1,0,0,response1disk,,7,14,16,1,0,0,rectangle,14,16,1,0,0,14,16,1,0,0,0,19,19,81,1,,,,,,,,
,,,,,,,,,,,,,FF,,,,,,,,1.333,,,,,,,,,,,,,,,,,,,,,,60ff4f91b86e87a141a6686e,61036cace5b336bf7d3152d0,2021-07-29_22h06.40.486,Simcolourproject_2stim_asymm_v5,2020.2.10,MacIntel,60,61025ae37ef11b136ea224fe,,,,,,,,,465,49,76,1,0,0,response1disk,,7,7,19,1,0,0,rectangle,7,19,1,0,0,7,19,1,0,0,0,20,20,34,1,,,,,,,,
,,,,,,,,,,,,,FF,,,,,,,,0.716,,,,,,,,,,,,,,,,,,,,,,60ff4f91b86e87a141a6686e,61036cace5b336bf7d3152d0,2021-07-29_22h06.40.486,Simcolourproject_2stim_asymm_v5,2020.2.10,MacIntel,60,61025ae37ef11b136ea224fe,,,,,,,,,2535,75,96,1,0,0,response1disk,,7,20,19,1,0,0,rectangle,20,19,1,0,0,20,19,1,0,0,0,21,21,65,1,,,,,,,,
,,,,,,,,,,,,,FF,,,,,,,,0.717,,,,,,,,,,,,,,,,,,,,,,60ff4f91b86e87a141a6686e,61036cace5b336bf7d3152d0,2021-07-29_22h06.40.486,Simcolourproject_2stim_asymm_v5,2020.2.10,MacIntel,60,61025ae37ef11b136ea224fe,,,,,,,,,1527,42,75,1,0,0,response1disk,,7,8,-5,1,0,0,rectangle,8,-5,1,0,0,8,-5,1,0,0,0,22,22,35,1,,,,,,,,
,,,,,,,,,,,,,FF,,,,,,,,0.784,,,,,,,,,,,,,,,,,,,,,,60ff4f91b86e87a141a6686e,61036cace5b336bf7d3152d0,2021-07-29_22h06.40.486,Simcolourproject_2stim_asymm_v5,2020.2.10,MacIntel,60,61025ae37ef11b136ea224fe,,,,,,,,,2905,45,60,1,0,0,response1disk,,7,-2,-5,1,0,0,rectangle,-2,-5,1,0,0,-2,-5,1,0,0,0,23,23,85,1,,,,,,,,
,,,,,,,,,,,,,FF,,,,,,,,0.85,,,,,,,,,,,,,,,,,,,,,,60ff4f91b86e87a141a6686e,61036cace5b336bf7d3152d0,2021-07-29_22h06.40.486,Simcolourproject_2stim_asymm_v5,2020.2.10,MacIntel,60,61025ae37ef11b136ea224fe,,,,,,,,,3379,54,71,1,0,0,response1disk,,7,14,-8,1,0,0,rectangle,14,-8,1,0,0,14,-8,1,0,0,0,24,24,20,1,,,,,,,,
,,,,,,,,,,,,,FF,,,,,,,,0.683,,,,,,,,,,,,,,,,,,,,,,60ff4f91b86e87a141a6686e,61036cace5b336bf7d3152d0,2021-07-29_22h06.40.486,Simcolourproject_2stim_asymm_v5,2020.2.10,MacIntel,60,61025ae37ef11b136ea224fe,,,,,,,,,2347,51,68,1,0,0,response1disk,,7,26,-4,1,0,0,rectangle,26,-4,1,0,0,26,-4,1,0,0,0,25,25,99,1,,,,,,,,
,,,,,,,,,,,,,FF,,,,,,,,0.768,,,,,,,,,,,,,,,,,,,,,,60ff4f91b86e87a141a6686e,61036cace5b336bf7d3152d0,2021-07-29_22h06.40.486,Simcolourproject_2stim_asymm_v5,2020.2.10,MacIntel,60,61025ae37ef11b136ea224fe,,,,,,,,,1652,43,79,1,0,0,response1disk,,7,4,-12,1,0,0,rectangle,4,-12,1,0,0,4,-12,1,0,0,0,26,26,96,1,,,,,,,,
,,,,,,,,,,,,,FF,,,,,,,,0.65,,,,,,,,,,,,,,,,,,,,,,60ff4f91b86e87a141a6686e,61036cace5b336bf7d3152d0,2021-07-29_22h06.40.486,Simcolourproject_2stim_asymm_v5,2020.2.10,MacIntel,60,61025ae37ef11b136ea224fe,,,,,,,,,781,73,100,1,0,0,response1disk,,7,9,-2,1,0,0,rectangle,-119,-178,1,0,0,-1,23,1,0,0,0,27,27,159,1,,response5disk_3,TRUE,3,3,"[256,205,42,215,7,135,194,99,47,272,222,28,308,3,46,185,2,174,118,79]",2.002,rectangle
,,,,,,,,,,,,,FF,,,,,,,,1.284,,,,,,,,,,,,,,,,,,,,,,60ff4f91b86e87a141a6686e,61036cace5b336bf7d3152d0,2021-07-29_22h06.40.486,Simcolourproject_2stim_asymm_v5,2020.2.10,MacIntel,60,61025ae37ef11b136ea224fe,,,,,,,,,1108,127,145,1,0,0,response1disk,,7,-4,1,1,0,0,rectangle,-4,1,1,0,0,-4,1,1,0,0,0,28,28,49,1,,,,,,,,
,,,,,,,,,,,,,FF,,,,,,,,1.517,,,,,,,,,,,,,,,,,,,,,,60ff4f91b86e87a141a6686e,61036cace5b336bf7d3152d0,2021-07-29_22h06.40.486,Simcolourproject_2stim_asymm_v5,2020.2.10,MacIntel,60,61025ae37ef11b136ea224fe,,,,,,,,,4359,-110,47,1,0,0,response7disk,,1,-44,-8,1,0,0,rectangle,-44,-8,1,0,0,-44,-8,1,0,0,0,29,29,53,1,,,,,,,,
,,,,,,,,,,,,,FF,,,,,,,,2.083,,,,,,,,,,,,,,,,,,,,,,60ff4f91b86e87a141a6686e,61036cace5b336bf7d3152d0,2021-07-29_22h06.40.486,Simcolourproject_2stim_asymm_v5,2020.2.10,MacIntel,60,61025ae37ef11b136ea224fe,,,,,,,,,2283,64,120,1,0,0,response1disk,,7,14,23,1,0,0,rectangle,14,23,1,0,0,14,23,1,0,0,0,30,30,103,1,,,,,,,,
,,,,,,,,,,,,,FF,,,,,,,,1.034,,,,,,,,,,,,,,,,,,,,,,60ff4f91b86e87a141a6686e,61036cace5b336bf7d3152d0,2021-07-29_22h06.40.486,Simcolourproject_2stim_asymm_v5,2020.2.10,MacIntel,60,61025ae37ef11b136ea224fe,,,,,,,,,3754,42,-134,1,0,0,response3disk,,4,-6,-4,1,0,0,rectangle,-6,-4,1,0,0,-6,-4,1,0,0,0,31,31,29,1,,,,,,,,
,,,,,,,,,,,,,FF,,,,,,,,1.067,,,,,,,,,,,,,,,,,,,,,,60ff4f91b86e87a141a6686e,61036cace5b336bf7d3152d0,2021-07-29_22h06.40.486,Simcolourproject_2stim_asymm_v5,2020.2.10,MacIntel,60,61025ae37ef11b136ea224fe,,,,,,,,,1554,45,172,1,0,0,response1disk,,7,0,23,1,0,0,rectangle,0,23,1,0,0,0,23,1,0,0,0,32,32,84,1,,,,,,,,
,,,,,,,,,,,,,FF,,,,,,,,0.983,,,,,,,,,,,,,,,,,,,,,,60ff4f91b86e87a141a6686e,61036cace5b336bf7d3152d0,2021-07-29_22h06.40.486,Simcolourproject_2stim_asymm_v5,2020.2.10,MacIntel,60,61025ae37ef11b136ea224fe,,,,,,,,,3157,110,42,1,0,0,response1disk,,6,15,-15,1,0,0,rectangle,15,-15,1,0,0,15,-15,1,0,0,0,33,33,62,1,,,,,,,,
,,,,,,,,,,,,,FF,,,,,,,,1.101,,,,,,,,,,,,,,,,,,,,,,60ff4f91b86e87a141a6686e,61036cace5b336bf7d3152d0,2021-07-29_22h06.40.486,Simcolourproject_2stim_asymm_v5,2020.2.10,MacIntel,60,61025ae37ef11b136ea224fe,,,,,,,,,1956,-91,134,1,0,0,response7disk,,0,4,-20,1,0,0,rectangle,4,-20,1,0,0,4,-20,1,0,0,0,34,34,26,1,,,,,,,,
,,,,,,,,,,,,,FF,,,,,,,,1.484,,,,,,,,,,,,,,,,,,,,,,60ff4f91b86e87a141a6686e,61036cace5b336bf7d3152d0,2021-07-29_22h06.40.486,Simcolourproject_2stim_asymm_v5,2020.2.10,MacIntel,60,61025ae37ef11b136ea224fe,,,,,,,,,2037,137,-92,1,0,0,response3disk,,5,39,-27,1,0,0,rectangle,39,-27,1,0,0,39,-27,1,0,0,0,35,35,71,1,,,,,,,,
,,,,,,,,,,,,,FF,,,,,,,,1.366,,,,,,,,,,,,,,,,,,,,,,60ff4f91b86e87a141a6686e,61036cace5b336bf7d3152d0,2021-07-29_22h06.40.486,Simcolourproject_2stim_asymm_v5,2020.2.10,MacIntel,60,61025ae37ef11b136ea224fe,,,,,,,,,522,178,-39,1,0,0,response3disk,,5,15,7,1,0,0,rectangle,15,7,1,0,0,15,7,1,0,0,0,36,36,16,1,,,,,,,,
,,,,,,,,,,,,,FF,,,,,,,,1.534,,,,,,,,,,,,,,,,,,,,,,60ff4f91b86e87a141a6686e,61036cace5b336bf7d3152d0,2021-07-29_22h06.40.486,Simcolourproject_2stim_asymm_v5,2020.2.10,MacIntel,60,61025ae37ef11b136ea224fe,,,,,,,,,2098,-111,50,1,0,0,response7disk,,1,-20,-15,1,0,0,rectangle,-20,-15,1,0,0,-20,-15,1,0,0,0,37,37,134,1,,,,,,,,
,,,,,,,,,,,,,FF,,,,,,,,1.101,,,,,,,,,,,,,,,,,,,,,,60ff4f91b86e87a141a6686e,61036cace5b336bf7d3152d0,2021-07-29_22h06.40.486,Simcolourproject_2stim_asymm_v5,2020.2.10,MacIntel,60,61025ae37ef11b136ea224fe,,,,,,,,,3556,-101,44,1,0,0,response7disk,,1,-17,7,1,0,0,rectangle,-17,7,1,0,0,-17,7,1,0,0,0,38,38,127,1,,,,,,,,
,,,,,,,,,,,,,FF,,,,,,,,0.633,,,,,,,,,,,,,,,,,,,,,,60ff4f91b86e87a141a6686e,61036cace5b336bf7d3152d0,2021-07-29_22h06.40.486,Simcolourproject_2stim_asymm_v5,2020.2.10,MacIntel,60,61025ae37ef11b136ea224fe,,,,,,,,,4305,-61,148,1,0,0,response7disk,,0,-24,0,1,0,0,rectangle,-24,0,1,0,0,-24,0,1,0,0,0,39,39,18,1,,,,,,,,
,,,,,,,,,,,,,FF,,,,,,,,1.284,,,,,,,,,,,,,,,,,,,,,,60ff4f91b86e87a141a6686e,61036cace5b336bf7d3152d0,2021-07-29_22h06.40.486,Simcolourproject_2stim_asymm_v5,2020.2.10,MacIntel,60,61025ae37ef11b136ea224fe,,,,,,,,,1431,60,-188,1,0,0,response3disk,,4,-13,2,1,0,0,rectangle,-13,2,1,0,0,-13,2,1,0,0,0,40,40,148,1,,,,,,,,
,,,,,,,,,,,,,FF,,,,,,,,0.984,,,,,,,,,,,,,,,,,,,,,,60ff4f91b86e87a141a6686e,61036cace5b336bf7d3152d0,2021-07-29_22h06.40.486,Simcolourproject_2stim_asymm_v5,2020.2.10,MacIntel,60,61025ae37ef11b136ea224fe,,,,,,,,,1602,-69,-120,1,0,0,response5disk,,3,-9,-6,1,0,0,rectangle,84,-122,1,0,0,21,-5,1,0,0,0,41,41,102,1,,response3disk_3,TRUE,4,4,"[256,205,42,215,7,135,194,99,47,272,222,28,308,3,46,185,2,174,118,79]",1.484,rectangle
,,,,,,,,,,,,,FF,,,,,,,,5.835,,,,,,,,,,,,,,,,,,,,,,60ff4f91b86e87a141a6686e,61036cace5b336bf7d3152d0,2021-07-29_22h06.40.486,Simcolourproject_2stim_asymm_v5,2020.2.10,MacIntel,60,61025ae37ef11b136ea224fe,,,,,,,,,1973,-37,-179,1,0,0,response5disk,,3,1,-15,1,0,0,rectangle,1,-15,1,0,0,1,-15,1,0,0,0,42,42,19,1,,,,,,,,
,,,,,,,,,,,,,FF,,,,,,,,1.583,,,,,,,,,,,,,,,,,,,,,,60ff4f91b86e87a141a6686e,61036cace5b336bf7d3152d0,2021-07-29_22h06.40.486,Simcolourproject_2stim_asymm_v5,2020.2.10,MacIntel,60,61025ae37ef11b136ea224fe,,,,,,,,,2665,174,59,1,0,0,response1disk,,6,-29,1,1,0,0,rectangle,-29,1,1,0,0,-29,1,1,0,0,0,43,43,124,1,,,,,,,,
,,,,,,,,,,,,,FF,,,,,,,,0.8,,,,,,,,,,,,,,,,,,,,,,60ff4f91b86e87a141a6686e,61036cace5b336bf7d3152d0,2021-07-29_22h06.40.486,Simcolourproject_2stim_asymm_v5,2020.2.10,MacIntel,60,61025ae37ef11b136ea224fe,,,,,,,,,72,-122,82,1,0,0,response7disk,,1,-3,-16,1,0,0,rectangle,-3,-16,1,0,0,-3,-16,1,0,0,0,44,44,22,1,,,,,,,,
,,,,,,,,,,,,,FF,,,,,,,,2.983,,,,,,,,,,,,,,,,,,,,,,60ff4f91b86e87a141a6686e,61036cace5b336bf7d3152d0,2021-07-29_22h06.40.486,Simcolourproject_2stim_asymm_v5,2020.2.10,MacIntel,60,61025ae37ef11b136ea224fe,,,,,,,,,994,116,57,1,0,0,response1disk,,6,13,5,1,0,0,rectangle,170,64,1,0,0,23,-18,1,0,0,0,45,45,114,1,,response1disk_3,TRUE,6,6,"[256,205,42,215,7,135,194,99,47,272,222,28,308,3,46,185,2,174,118,79]",1.584,rectangle
,,,,,,,,,,,,,FF,,,,,,,,1.135,,,,,,,,,,,,,,,,,,,,,,60ff4f91b86e87a141a6686e,61036cace5b336bf7d3152d0,2021-07-29_22h06.40.486,Simcolourproject_2stim_asymm_v5,2020.2.10,MacIntel,60,61025ae37ef11b136ea224fe,,,,,,,,,1176,108,44,1,0,0,response1disk,,6,24,-16,1,0,0,rectangle,159,-70,1,0,0,56,1,1,0,0,0,46,46,150,1,,response3disk_3,TRUE,5,5,"[256,205,42,215,7,135,194,99,47,272,222,28,308,3,46,185,2,174,118,79]",1.517,rectangle
,,,,,,,,,,,,,FF,,,,,,,,0.833,,,,,,,,,,,,,,,,,,,,,,60ff4f91b86e87a141a6686e,61036cace5b336bf7d3152d0,2021-07-29_22h06.40.486,Simcolourproject_2stim_asymm_v5,2020.2.10,MacIntel,60,61025ae37ef11b136ea224fe,,,,,,,,,2854,103,45,1,0,0,response1disk,,6,57,-1,1,0,0,rectangle,57,-1,1,0,0,57,-1,1,0,0,0,47,47,97,1,,,,,,,,
,,,,,,,,,,,,,FF,,,,,,,,0.851,,,,,,,,,,,,,,,,,,,,,,60ff4f91b86e87a141a6686e,61036cace5b336bf7d3152d0,2021-07-29_22h06.40.486,Simcolourproject_2stim_asymm_v5,2020.2.10,MacIntel,60,61025ae37ef11b136ea224fe,,,,,,,,,2286,56,130,1,0,0,response1disk,,7,21,1,1,0,0,rectangle,21,1,1,0,0,21,1,1,0,0,0,48,48,128,1,,,,,,,,
,,,,,,,,,,,,,FF,,,,,,,,0.583,,,,,,,,,,,,,,,,,,,,,,60ff4f91b86e87a141a6686e,61036cace5b336bf7d3152d0,2021-07-29_22h06.40.486,Simcolourproject_2stim_asymm_v5,2020.2.10,MacIntel,60,61025ae37ef11b136ea224fe,,,,,,,,,3213,73,130,1,0,0,response1disk,,7,23,-9,1,0,0,rectangle,23,-9,1,0,0,23,-9,1,0,0,0,49,49,155,1,,,,,,,,
,,,,,,,,,,,,,FF,,,,,,,,0.55,,,,,,,,,,,,,,,,,,,,,,60ff4f91b86e87a141a6686e,61036cace5b336bf7d3152d0,2021-07-29_22h06.40.486,Simcolourproject_2stim_asymm_v5,2020.2.10,MacIntel,60,61025ae37ef11b136ea224fe,,,,,,,,,128,55,99,1,0,0,response1disk,,7,28,8,1,0,0,rectangle,28,8,1,0,0,28,8,1,0,0,0,50,50,30,1,,,,,,,,
,,,,,,,,,,,,,FF,,,,,,,,0.483,,,,,,,,,,,,,,,,,,,,,,60ff4f91b86e87a141a6686e,61036cace5b336bf7d3152d0,2021-07-29_22h06.40.486,Simcolourproject_2stim_asymm_v5,2020.2.10,MacIntel,60,61025ae37ef11b136ea224fe,,,,,,,,,2470,75,92,1,0,0,response1disk,,7,29,-3,1,0,0,rectangle,29,-3,1,0,0,29,-3,1,0,0,0,51,51,0,1,,,,,,,,
,,,,,,,,,,,,,FF,,,,,,,,1.733,,,,,,,,,,,,,,,,,,,,,,60ff4f91b86e87a141a6686e,61036cace5b336bf7d3152d0,2021-07-29_22h06.40.486,Simcolourproject_2stim_asymm_v5,2020.2.10,MacIntel,60,61025ae37ef11b136ea224fe,,,,,,,,,7,122,-166,1,0,0,response3disk,,4,37,19,1,0,0,rectangle,37,19,1,0,0,37,19,1,0,0,0,52,52,68,1,,,,,,,,
,,,,,,,,,,,,,FF,,,,,,,,1.533,,,,,,,,,,,,,,,,,,,,,,60ff4f91b86e87a141a6686e,61036cace5b336bf7d3152d0,2021-07-29_22h06.40.486,Simcolourproject_2stim_asymm_v5,2020.2.10,MacIntel,60,61025ae37ef11b136ea224fe,,,,,,,,,3915,37,-109,1,0,0,response3disk,,4,7,11,1,0,0,rectangle,7,11,1,0,0,7,11,1,0,0,0,53,53,157,1,,,,,,,,
,,,,,,,,,,,,,FF,,,,,,,,0.833,,,,,,,,,,,,,,,,,,,,,,60ff4f91b86e87a141a6686e,61036cace5b336bf7d3152d0,2021-07-29_22h06.40.486,Simcolourproject_2stim_asymm_v5,2020.2.10,MacIntel,60,61025ae37ef11b136ea224fe,,,,,,,,,954,133,153,1,0,0,response1disk,,7,24,-1,1,0,0,rectangle,24,-1,1,0,0,24,-1,1,0,0,0,54,54,64,1,,,,,,,,
,,,,,,,,,,,,,FF,,,,,,,,0.55,,,,,,,,,,,,,,,,,,,,,,60ff4f91b86e87a141a6686e,61036cace5b336bf7d3152d0,2021-07-29_22h06.40.486,Simcolourproject_2stim_asymm_v5,2020.2.10,MacIntel,60,61025ae37ef11b136ea224fe,,,,,,,,,4081,58,97,1,0,0,response1disk,,7,-8,-1,1,0,0,rectangle,-8,-1,1,0,0,-8,-1,1,0,0,0,55,55,2,1,,,,,,,,
,,,,,,,,,,,,,FF,,,,,,,,0.551,,,,,,,,,,,,,,,,,,,,,,60ff4f91b86e87a141a6686e,61036cace5b336bf7d3152d0,2021-07-29_22h06.40.486,Simcolourproject_2stim_asymm_v5,2020.2.10,MacIntel,60,61025ae37ef11b136ea224fe,,,,,,,,,1389,48,79,1,0,0,response1disk,,7,-8,-7,1,0,0,rectangle,-8,-7,1,0,0,-8,-7,1,0,0,0,56,56,141,1,,,,,,,,
,,,,,,,,,,,,,FF,,,,,,,,0.65,,,,,,,,,,,,,,,,,,,,,,60ff4f91b86e87a141a6686e,61036cace5b336bf7d3152d0,2021-07-29_22h06.40.486,Simcolourproject_2stim_asymm_v5,2020.2.10,MacIntel,60,61025ae37ef11b136ea224fe,,,,,,,,,213,30,70,1,0,0,response1disk,,7,5,3,1,0,0,rectangle,5,3,1,0,0,5,3,1,0,0,0,57,57,6,1,,,,,,,,
,,,,,,,,,,,,,FF,,,,,,,,0.483,,,,,,,,,,,,,,,,,,,,,,60ff4f91b86e87a141a6686e,61036cace5b336bf7d3152d0,2021-07-29_22h06.40.486,Simcolourproject_2stim_asymm_v5,2020.2.10,MacIntel,60,61025ae37ef11b136ea224fe,,,,,,,,,1410,67,109,1,0,0,response1disk,,7,24,-21,1,0,0,rectangle,24,-21,1,0,0,24,-21,1,0,0,0,58,58,131,1,,,,,,,,
,,,,,,,,,,,,,FF,,,,,,,,0.783,,,,,,,,,,,,,,,,,,,,,,60ff4f91b86e87a141a6686e,61036cace5b336bf7d3152d0,2021-07-29_22h06.40.486,Simcolourproject_2stim_asymm_v5,2020.2.10,MacIntel,60,61025ae37ef11b136ea224fe,,,,,,,,,384,47,92,1,0,0,response1disk,,7,6,-9,1,0,0,rectangle,6,-9,1,0,0,6,-9,1,0,0,0,59,59,82,1,,,,,,,,
,,,,,,,,,,,,,FF,,,,,,,,0.7,,,,,,,,,,,,,,,,,,,,,,60ff4f91b86e87a141a6686e,61036cace5b336bf7d3152d0,2021-07-29_22h06.40.486,Simcolourproject_2stim_asymm_v5,2020.2.10,MacIntel,60,61025ae37ef11b136ea224fe,,,,,,,,,3039,50,100,1,0,0,response1disk,,7,11,18,1,0,0,rectangle,11,18,1,0,0,11,18,1,0,0,0,60,60,47,1,,,,,,,,
,,,,,,,,,,,,,FF,,,,,,,,1.217,,,,,,,,,,,,,,,,,,,,,,60ff4f91b86e87a141a6686e,61036cace5b336bf7d3152d0,2021-07-29_22h06.40.486,Simcolourproject_2stim_asymm_v5,2020.2.10,MacIntel,60,61025ae37ef11b136ea224fe,,,,,,,,,356,95,-59,1,0,0,response3disk,,5,26,-5,1,0,0,rectangle,26,-5,1,0,0,26,-5,1,0,0,0,61,61,45,1,,,,,,,,
,,,,,,,,,,,,,FF,,,,,,,,0.966,,,,,,,,,,,,,,,,,,,,,,60ff4f91b86e87a141a6686e,61036cace5b336bf7d3152d0,2021-07-29_22h06.40.486,Simcolourproject_2stim_asymm_v5,2020.2.10,MacIntel,60,61025ae37ef11b136ea224fe,,,,,,,,,3214,101,51,1,0,0,response1disk,,6,2,7,1,0,0,rectangle,2,7,1,0,0,2,7,1,0,0,0,62,62,126,1,,,,,,,,
,,,,,,,,,,,,,FF,,,,,,,,1.184,,,,,,,,,,,,,,,,,,,,,,60ff4f91b86e87a141a6686e,61036cace5b336bf7d3152d0,2021-07-29_22h06.40.486,Simcolourproject_2stim_asymm_v5,2020.2.10,MacIntel,60,61025ae37ef11b136ea224fe,,,,,,,,,1747,70,96,1,0,0,response1disk,,7,48,-9,1,0,0,rectangle,48,-9,1,0,0,48,-9,1,0,0,0,63,63,70,1,,,,,,,,
,,,,,,,,,,,,,FF,,,,,,,,0.751,,,,,,,,,,,,,,,,,,,,,,60ff4f91b86e87a141a6686e,61036cace5b336bf7d3152d0,2021-07-29_22h06.40.486,Simcolourproject_2stim_asymm_v5,2020.2.10,MacIntel,60,61025ae37ef11b136ea224fe,,,,,,,,,2480,-69,96,1,0,0,response7disk,,0,-6,-10,1,0,0,rectangle,-6,-10,1,0,0,-6,-10,1,0,0,0,64,64,136,1,,,,,,,,
,,,,,,,,,,,,,FF,,,,,,,,1.334,,,,,,,,,,,,,,,,,,,,,,60ff4f91b86e87a141a6686e,61036cace5b336bf7d3152d0,2021-07-29_22h06.40.486,Simcolourproject_2stim_asymm_v5,2020.2.10,MacIntel,60,61025ae37ef11b136ea224fe,,,,,,,,,4126,119,43,1,0,0,response1disk,,6,10,21,1,0,0,rectangle,10,21,1,0,0,10,21,1,0,0,0,65,65,51,1,,,,,,,,
,,,,,,,,,,,,,FF,,,,,,,,0.783,,,,,,,,,,,,,,,,,,,,,,60ff4f91b86e87a141a6686e,61036cace5b336bf7d3152d0,2021-07-29_22h06.40.486,Simcolourproject_2stim_asymm_v5,2020.2.10,MacIntel,60,61025ae37ef11b136ea224fe,,,,,,,,,33,75,59,1,0,0,response1disk,,6,-2,19,1,0,0,rectangle,-2,19,1,0,0,-2,19,1,0,0,0,66,66,145,1,,,,,,,,
,,,,,,,,,,,,,FF,,,,,,,,0.567,,,,,,,,,,,,,,,,,,,,,,60ff4f91b86e87a141a6686e,61036cace5b336bf7d3152d0,2021-07-29_22h06.40.486,Simcolourproject_2stim_asymm_v5,2020.2.10,MacIntel,60,61025ae37ef11b136ea224fe,,,,,,,,,3158,67,114,1,0,0,response1disk,,7,5,9,1,0,0,rectangle,5,9,1,0,0,5,9,1,0,0,0,67,67,94,1,,,,,,,,
,,,,,,,,,,,,,FF,,,,,,,,1.249,,,,,,,,,,,,,,,,,,,,,,60ff4f91b86e87a141a6686e,61036cace5b336bf7d3152d0,2021-07-29_22h06.40.486,Simcolourproject_2stim_asymm_v5,2020.2.10,MacIntel,60,61025ae37ef11b136ea224fe,,,,,,,,,1550,94,43,1,0,0,response1disk,,6,-9,-22,1,0,0,rectangle,-9,-22,1,0,0,-9,-22,1,0,0,0,68,68,17,1,,,,,,,,
,,,,,,,,,,,,,FF,,,,,,,,0.617,,,,,,,,,,,,,,,,,,,,,,60ff4f91b86e87a141a6686e,61036cace5b336bf7d3152d0,2021-07-29_22h06.40.486,Simcolourproject_2stim_asymm_v5,2020.2.10,MacIntel,60,61025ae37ef11b136ea224fe,,,,,,,,,2407,75,102,1,0,0,response1disk,,7,22,14,1,0,0,rectangle,22,14,1,0,0,22,14,1,0,0,0,69,69,95,1,,,,,,,,
,,,,,,,,,,,,,FF,,,,,,,,1.417,,,,,,,,,,,,,,,,,,,,,,60ff4f91b86e87a141a6686e,61036cace5b336bf7d3152d0,2021-07-29_22h06.40.486,Simcolourproject_2stim_asymm_v5,2020.2.10,MacIntel,60,61025ae37ef11b136ea224fe,,,,,,,,,1813,97,107,1,0,0,response1disk,,7,46,20,1,0,0,rectangle,46,20,1,0,0,46,20,1,0,0,0,70,70,57,1,,,,,,,,
,,,,,,,,,,,,,FF,,,,,,,,0.501,,,,,,,,,,,,,,,,,,,,,,60ff4f91b86e87a141a6686e,61036cace5b336bf7d3152d0,2021-07-29_22h06.40.486,Simcolourproject_2stim_asymm_v5,2020.2.10,MacIntel,60,61025ae37ef11b136ea224fe,,,,,,,,,2325,62,101,1,0,0,response1disk,,7,34,21,1,0,0,rectangle,34,21,1,0,0,34,21,1,0,0,0,71,71,13,1,,,,,,,,
,,,,,,,,,,,,,FF,,,,,,,,0.583,,,,,,,,,,,,,,,,,,,,,,60ff4f91b86e87a141a6686e,61036cace5b336bf7d3152d0,2021-07-29_22h06.40.486,Simcolourproject_2stim_asymm_v5,2020.2.10,MacIntel,60,61025ae37ef11b136ea224fe,,,,,,,,,1492,79,109,1,0,0,response1disk,,7,32,8,1,0,0,rectangle,32,8,1,0,0,32,8,1,0,0,0,72,72,14,1,,,,,,,,
,,,,,,,,,,,,,FF,,,,,,,,0.617,,,,,,,,,,,,,,,,,,,,,,60ff4f91b86e87a141a6686e,61036cace5b336bf7d3152d0,2021-07-29_22h06.40.486,Simcolourproject_2stim_asymm_v5,2020.2.10,MacIntel,60,61025ae37ef11b136ea224fe,,,,,,,,,1235,90,108,1,0,0,response1disk,,7,27,10,1,0,0,rectangle,27,10,1,0,0,27,10,1,0,0,0,73,73,83,1,,,,,,,,
,,,,,,,,,,,,,FF,,,,,,,,0.417,,,,,,,,,,,,,,,,,,,,,,60ff4f91b86e87a141a6686e,61036cace5b336bf7d3152d0,2021-07-29_22h06.40.486,Simcolourproject_2stim_asymm_v5,2020.2.10,MacIntel,60,61025ae37ef11b136ea224fe,,,,,,,,,623,62,109,1,0,0,response1disk,,7,33,21,1,0,0,rectangle,33,21,1,0,0,33,21,1,0,0,0,74,74,137,1,,,,,,,,
,,,,,,,,,,,,,FF,,,,,,,,0.417,,,,,,,,,,,,,,,,,,,,,,60ff4f91b86e87a141a6686e,61036cace5b336bf7d3152d0,2021-07-29_22h06.40.486,Simcolourproject_2stim_asymm_v5,2020.2.10,MacIntel,60,61025ae37ef11b136ea224fe,,,,,,,,,2345,39,103,1,0,0,response1disk,,7,19,5,1,0,0,rectangle,19,5,1,0,0,19,5,1,0,0,0,75,75,151,1,,,,,,,,
,,,,,,,,,,,,,FF,,,,,,,,0.401,,,,,,,,,,,,,,,,,,,,,,60ff4f91b86e87a141a6686e,61036cace5b336bf7d3152d0,2021-07-29_22h06.40.486,Simcolourproject_2stim_asymm_v5,2020.2.10,MacIntel,60,61025ae37ef11b136ea224fe,,,,,,,,,2767,70,81,1,0,0,response1disk,,7,26,24,1,0,0,rectangle,26,24,1,0,0,26,24,1,0,0,0,76,76,37,1,,,,,,,,
,,,,,,,,,,,,,FF,,,,,,,,0.517,,,,,,,,,,,,,,,,,,,,,,60ff4f91b86e87a141a6686e,61036cace5b336bf7d3152d0,2021-07-29_22h06.40.486,Simcolourproject_2stim_asymm_v5,2020.2.10,MacIntel,60,61025ae37ef11b136ea224fe,,,,,,,,,2211,50,71,1,0,0,response1disk,,7,22,-13,1,0,0,rectangle,22,-13,1,0,0,22,-13,1,0,0,0,77,77,100,1,,,,,,,,
,,,,,,,,,,,,,FF,,,,,,,,0.45,,,,,,,,,,,,,,,,,,,,,,60ff4f91b86e87a141a6686e,61036cace5b336bf7d3152d0,2021-07-29_22h06.40.486,Simcolourproject_2stim_asymm_v5,2020.2.10,MacIntel,60,61025ae37ef11b136ea224fe,,,,,,,,,3768,31,69,1,0,0,response1disk,,7,19,2,1,0,0,rectangle,-121,-36,1,0,0,2,8,1,0,0,0,78,78,143,1,,response5disk_3,TRUE,2,2,"[256,205,42,215,7,135,194,99,47,272,222,28,308,3,46,185,2,174,118,79]",1.734,rectangle
,,,,,,,,,,,,,FF,,,,,,,,1.533,,,,,,,,,,,,,,,,,,,,,,60ff4f91b86e87a141a6686e,61036cace5b336bf7d3152d0,2021-07-29_22h06.40.486,Simcolourproject_2stim_asymm_v5,2020.2.10,MacIntel,60,61025ae37ef11b136ea224fe,,,,,,,,,1229,159,-75,1,0,0,response3disk,,5,-15,8,1,0,0,rectangle,-15,8,1,0,0,-15,8,1,0,0,0,79,79,4,1,,,,,,,,
,,,,,,,,,,,,,FF,,,,,,,,0.817,,,,,,,,,,,,,,,,,,,,,,60ff4f91b86e87a141a6686e,61036cace5b336bf7d3152d0,2021-07-29_22h06.40.486,Simcolourproject_2stim_asymm_v5,2020.2.10,MacIntel,60,61025ae37ef11b136ea224fe,,,,,,,,,2341,104,138,1,0,0,response1disk,,7,-5,7,1,0,0,rectangle,-5,7,1,0,0,-5,7,1,0,0,0,80,80,55,1,,,,,,,,
,,,,,,,,,,,,,FF,,,,,,,,0.501,,,,,,,,,,,,,,,,,,,,,,60ff4f91b86e87a141a6686e,61036cace5b336bf7d3152d0,2021-07-29_22h06.40.486,Simcolourproject_2stim_asymm_v5,2020.2.10,MacIntel,60,61025ae37ef11b136ea224fe,,,,,,,,,1708,52,104,1,0,0,response1disk,,7,5,24,1,0,0,rectangle,5,24,1,0,0,5,24,1,0,0,0,81,81,12,1,,,,,,,,
,,,,,,,,,,,,,FF,,,,,,,,0.584,,,,,,,,,,,,,,,,,,,,,,60ff4f91b86e87a141a6686e,61036cace5b336bf7d3152d0,2021-07-29_22h06.40.486,Simcolourproject_2stim_asymm_v5,2020.2.10,MacIntel,60,61025ae37ef11b136ea224fe,,,,,,,,,3829,102,131,1,0,0,response1disk,,7,-39,-7,1,0,0,rectangle,-39,-7,1,0,0,-39,-7,1,0,0,0,82,82,87,1,,,,,,,,
,,,,,,,,,,,,,FF,,,,,,,,0.935,,,,,,,,,,,,,,,,,,,,,,60ff4f91b86e87a141a6686e,61036cace5b336bf7d3152d0,2021-07-29_22h06.40.486,Simcolourproject_2stim_asymm_v5,2020.2.10,MacIntel,60,61025ae37ef11b136ea224fe,,,,,,,,,3839,53,78,1,0,0,response1disk,,7,10,19,1,0,0,rectangle,10,19,1,0,0,10,19,1,0,0,0,83,83,93,1,,,,,,,,
,,,,,,,,,,,,,FF,,,,,,,,0.583,,,,,,,,,,,,,,,,,,,,,,60ff4f91b86e87a141a6686e,61036cace5b336bf7d3152d0,2021-07-29_22h06.40.486,Simcolourproject_2stim_asymm_v5,2020.2.10,MacIntel,60,61025ae37ef11b136ea224fe,,,,,,,,,4209,82,144,1,0,0,response1disk,,7,14,19,1,0,0,rectangle,14,19,1,0,0,14,19,1,0,0,0,84,84,147,1,,,,,,,,
,,,,,,,,,,,,,FF,,,,,,,,0.984,,,,,,,,,,,,,,,,,,,,,,60ff4f91b86e87a141a6686e,61036cace5b336bf7d3152d0,2021-07-29_22h06.40.486,Simcolourproject_2stim_asymm_v5,2020.2.10,MacIntel,60,61025ae37ef11b136ea224fe,,,,,,,,,3833,70,114,1,0,0,response1disk,,7,16,21,1,0,0,rectangle,16,21,1,0,0,16,21,1,0,0,0,85,85,21,1,,,,,,,,
,,,,,,,,,,,,,FF,,,,,,,,1.05,,,,,,,,,,,,,,,,,,,,,,60ff4f91b86e87a141a6686e,61036cace5b336bf7d3152d0,2021-07-29_22h06.40.486,Simcolourproject_2stim_asymm_v5,2020.2.10,MacIntel,60,61025ae37ef11b136ea224fe,,,,,,,,,3825,83,34,1,0,0,response1disk,,6,-9,0,1,0,0,rectangle,-9,0,1,0,0,-9,0,1,0,0,0,86,86,129,1,,,,,,,,
,,,,,,,,,,,,,FF,,,,,,,,0.784,,,,,,,,,,,,,,,,,,,,,,60ff4f91b86e87a141a6686e,61036cace5b336bf7d3152d0,2021-07-29_22h06.40.486,Simcolourproject_2stim_asymm_v5,2020.2.10,MacIntel,60,61025ae37ef11b136ea224fe,,,,,,,,,2549,89,35,1,0,0,response1disk,,6,45,3,1,0,0,rectangle,45,3,1,0,0,45,3,1,0,0,0,87,87,116,1,,,,,,,,
,,,,,,,,,,,,,FF,,,,,,,,0.667,,,,,,,,,,,,,,,,,,,,,,60ff4f91b86e87a141a6686e,61036cace5b336bf7d3152d0,2021-07-29_22h06.40.486,Simcolourproject_2stim_asymm_v5,2020.2.10,MacIntel,60,61025ae37ef11b136ea224fe,,,,,,,,,154,54,76,1,0,0,response1disk,,7,21,10,1,0,0,rectangle,21,10,1,0,0,21,10,1,0,0,0,88,88,140,1,,,,,,,,
,,,,,,,,,,,,,FF,,,,,,,,0.951,,,,,,,,,,,,,,,,,,,,,,60ff4f91b86e87a141a6686e,61036cace5b336bf7d3152d0,2021-07-29_22h06.40.486,Simcolourproject_2stim_asymm_v5,2020.2.10,MacIntel,60,61025ae37ef11b136ea224fe,,,,,,,,,2336,125,109,1,0,0,response1disk,,6,14,9,1,0,0,rectangle,14,9,1,0,0,14,9,1,0,0,0,89,89,10,1,,,,,,,,
,,,,,,,,,,,,,FF,,,,,,,,0.618,,,,,,,,,,,,,,,,,,,,,,60ff4f91b86e87a141a6686e,61036cace5b336bf7d3152d0,2021-07-29_22h06.40.486,Simcolourproject_2stim_asymm_v5,2020.2.10,MacIntel,60,61025ae37ef11b136ea224fe,,,,,,,,,1091,90,101,1,0,0,response1disk,,7,28,19,1,0,0,rectangle,28,19,1,0,0,28,19,1,0,0,0,90,90,154,1,,,,,,,,
,,,,,,,,,,,,,FF,,,,,,,,0.517,,,,,,,,,,,,,,,,,,,,,,60ff4f91b86e87a141a6686e,61036cace5b336bf7d3152d0,2021-07-29_22h06.40.486,Simcolourproject_2stim_asymm_v5,2020.2.10,MacIntel,60,61025ae37ef11b136ea224fe,,,,,,,,,3231,77,109,1,0,0,response1disk,,7,-5,3,1,0,0,rectangle,-5,3,1,0,0,-5,3,1,0,0,0,91,91,72,1,,,,,,,,
,,,,,,,,,,,,,FF,,,,,,,,1.133,,,,,,,,,,,,,,,,,,,,,,60ff4f91b86e87a141a6686e,61036cace5b336bf7d3152d0,2021-07-29_22h06.40.486,Simcolourproject_2stim_asymm_v5,2020.2.10,MacIntel,60,61025ae37ef11b136ea224fe,,,,,,,,,351,-80,-124,1,0,0,response5disk,,3,-31,-21,1,0,0,rectangle,-31,-21,1,0,0,-31,-21,1,0,0,0,92,92,27,1,,,,,,,,
,,,,,,,,,,,,,FF,,,,,,,,2.802,,,,,,,,,,,,,,,,,,,,,,60ff4f91b86e87a141a6686e,61036cace5b336bf7d3152d0,2021-07-29_22h06.40.486,Simcolourproject_2stim_asymm_v5,2020.2.10,MacIntel,60,61025ae37ef11b136ea224fe,,,,,,,,,1937,91,219,1,0,0,response1disk,,7,-1,-2,1,0,0,rectangle,-1,-2,1,0,0,-1,-2,1,0,0,0,93,93,58,1,,,,,,,,
,,,,,,,,,,,,,FF,,,,,,,,2.65,,,,,,,,,,,,,,,,,,,,,,60ff4f91b86e87a141a6686e,61036cace5b336bf7d3152d0,2021-07-29_22h06.40.486,Simcolourproject_2stim_asymm_v5,2020.2.10,MacIntel,60,61025ae37ef11b136ea224fe,,,,,,,,,1015,96,53,1,0,0,response1disk,,6,-8,7,1,0,0,rectangle,-8,7,1,0,0,-8,7,1,0,0,0,94,94,3,1,,,,,,,,
,,,,,,,,,,,,,FF,,,,,,,,0.8,,,,,,,,,,,,,,,,,,,,,,60ff4f91b86e87a141a6686e,61036cace5b336bf7d3152d0,2021-07-29_22h06.40.486,Simcolourproject_2stim_asymm_v5,2020.2.10,MacIntel,60,61025ae37ef11b136ea224fe,,,,,,,,,4156,51,71,1,0,0,response1disk,,7,19,6,1,0,0,rectangle,19,6,1,0,0,19,6,1,0,0,0,95,95,118,1,,,,,,,,
,,,,,,,,,,,,,FF,,,,,,,,0.6,,,,,,,,,,,,,,,,,,,,,,60ff4f91b86e87a141a6686e,61036cace5b336bf7d3152d0,2021-07-29_22h06.40.486,Simcolourproject_2stim_asymm_v5,2020.2.10,MacIntel,60,61025ae37ef11b136ea224fe,,,,,,,,,2698,48,63,1,0,0,response1disk,,7,3,-11,1,0,0,rectangle,3,-11,1,0,0,3,-11,1,0,0,0,96,96,23,1,,,,,,,,
,,,,,,,,,,,,,FF,,,,,,,,0.951,,,,,,,,,,,,,,,,,,,,,,60ff4f91b86e87a141a6686e,61036cace5b336bf7d3152d0,2021-07-29_22h06.40.486,Simcolourproject_2stim_asymm_v5,2020.2.10,MacIntel,60,61025ae37ef11b136ea224fe,,,,,,,,,1495,58,80,1,0,0,response1disk,,7,13,14,1,0,0,rectangle,13,14,1,0,0,13,14,1,0,0,0,97,97,66,1,,,,,,,,
,,,,,,,,,,,,,FF,,,,,,,,1.2,,,,,,,,,,,,,,,,,,,,,,60ff4f91b86e87a141a6686e,61036cace5b336bf7d3152d0,2021-07-29_22h06.40.486,Simcolourproject_2stim_asymm_v5,2020.2.10,MacIntel,60,61025ae37ef11b136ea224fe,,,,,,,,,2640,38,87,1,0,0,response1disk,,7,12,-1,1,0,0,rectangle,83,-163,1,0,0,53,-25,1,0,0,0,98,98,52,1,,response3disk_3,TRUE,4,4,"[256,205,42,215,7,135,194,99,47,272,222,28,308,3,46,185,2,174,118,79]",1.617,rectangle
,,,,,,,,,,,,,FF,,,,,,,,0.617,,,,,,,,,,,,,,,,,,,,,,60ff4f91b86e87a141a6686e,61036cace5b336bf7d3152d0,2021-07-29_22h06.40.486,Simcolourproject_2stim_asymm_v5,2020.2.10,MacIntel,60,61025ae37ef11b136ea224fe,,,,,,,,,2910,99,47,1,0,0,response1disk,,6,39,12,1,0,0,rectangle,39,12,1,0,0,39,12,1,0,0,0,99,99,39,1,,,,,,,,
,,,,,,,,,,,,,FF,,,,,,,,0.584,,,,,,,,,,,,,,,,,,,,,,60ff4f91b86e87a141a6686e,61036cace5b336bf7d3152d0,2021-07-29_22h06.40.486,Simcolourproject_2stim_asymm_v5,2020.2.10,MacIntel,60,61025ae37ef11b136ea224fe,,,,,,,,,363,75,69,1,0,0,response1disk,,6,-1,-2,1,0,0,rectangle,-1,-2,1,0,0,-1,-2,1,0,0,0,100,100,60,1,,,,,,,,
,,,,,,,,,,,,,FF,,,,,,,,0.516,,,,,,,,,,,,,,,,,,,,,,60ff4f91b86e87a141a6686e,61036cace5b336bf7d3152d0,2021-07-29_22h06.40.486,Simcolourproject_2stim_asymm_v5,2020.2.10,MacIntel,60,61025ae37ef11b136ea224fe,,,,,,,,,1642,36,66,1,0,0,response1disk,,7,-9,-11,1,0,0,rectangle,-9,-11,1,0,0,-9,-11,1,0,0,0,101,101,1,1,,,,,,,,
,,,,,,,,,,,,,FF,,,,,,,,0.5,,,,,,,,,,,,,,,,,,,,,,60ff4f91b86e87a141a6686e,61036cace5b336bf7d3152d0,2021-07-29_22h06.40.486,Simcolourproject_2stim_asymm_v5,2020.2.10,MacIntel,60,61025ae37ef11b136ea224fe,,,,,,,,,664,33,93,1,0,0,response1disk,,7,-1,10,1,0,0,rectangle,-1,10,1,0,0,-1,10,1,0,0,0,102,102,77,1,,,,,,,,
,,,,,,,,,,,,,FF,,,,,,,,0.533,,,,,,,,,,,,,,,,,,,,,,60ff4f91b86e87a141a6686e,61036cace5b336bf7d3152d0,2021-07-29_22h06.40.486,Simcolourproject_2stim_asymm_v5,2020.2.10,MacIntel,60,61025ae37ef11b136ea224fe,,,,,,,,,3613,53,70,1,0,0,response1disk,,7,9,-4,1,0,0,rectangle,9,-4,1,0,0,9,-4,1,0,0,0,103,103,112,1,,,,,,,,
,,,,,,,,,,,,,FF,,,,,,,,1.367,,,,,,,,,,,,,,,,,,,,,,60ff4f91b86e87a141a6686e,61036cace5b336bf7d3152d0,2021-07-29_22h06.40.486,Simcolourproject_2stim_asymm_v5,2020.2.10,MacIntel,60,61025ae37ef11b136ea224fe,,,,,,,,,548,116,-52,1,0,0,response3disk,,5,3,-8,1,0,0,rectangle,3,-8,1,0,0,3,-8,1,0,0,0,104,104,56,1,,,,,,,,
,,,,,,,,,,,,,FF,,,,,,,,0.617,,,,,,,,,,,,,,,,,,,,,,60ff4f91b86e87a141a6686e,61036cace5b336bf7d3152d0,2021-07-29_22h06.40.486,Simcolourproject_2stim_asymm_v5,2020.2.10,MacIntel,60,61025ae37ef11b136ea224fe,,,,,,,,,2246,104,46,1,0,0,response1disk,,6,-8,-18,1,0,0,rectangle,-8,-18,1,0,0,-8,-18,1,0,0,0,105,105,75,1,,,,,,,,
,,,,,,,,,,,,,FF,,,,,,,,1.65,,,,,,,,,,,,,,,,,,,,,,60ff4f91b86e87a141a6686e,61036cace5b336bf7d3152d0,2021-07-29_22h06.40.486,Simcolourproject_2stim_asymm_v5,2020.2.10,MacIntel,60,61025ae37ef11b136ea224fe,,,,,,,,,997,89,131,1,0,0,response1disk,,7,45,22,1,0,0,rectangle,45,22,1,0,0,45,22,1,0,0,0,106,106,73,1,,,,,,,,
,,,,,,,,,,,,,FF,,,,,,,,0.483,,,,,,,,,,,,,,,,,,,,,,60ff4f91b86e87a141a6686e,61036cace5b336bf7d3152d0,2021-07-29_22h06.40.486,Simcolourproject_2stim_asymm_v5,2020.2.10,MacIntel,60,61025ae37ef11b136ea224fe,,,,,,,,,2958,61,102,1,0,0,response1disk,,7,21,-27,1,0,0,rectangle,21,-27,1,0,0,21,-27,1,0,0,0,107,107,133,1,,,,,,,,
,,,,,,,,,,,,,FF,,,,,,,,1.865,,,,,,,,,,,,,,,,,,,,,,60ff4f91b86e87a141a6686e,61036cace5b336bf7d3152d0,2021-07-29_22h06.40.486,Simcolourproject_2stim_asymm_v5,2020.2.10,MacIntel,60,61025ae37ef11b136ea224fe,,,,,,,,,557,59,125,1,0,0,response1disk,,7,33,11,1,0,0,rectangle,33,11,1,0,0,33,11,1,0,0,0,108,108,117,1,,,,,,,,
,,,,,,,,,,,,,FF,,,,,,,,1.185,,,,,,,,,,,,,,,,,,,,,,60ff4f91b86e87a141a6686e,61036cace5b336bf7d3152d0,2021-07-29_22h06.40.486,Simcolourproject_2stim_asymm_v5,2020.2.10,MacIntel,60,61025ae37ef11b136ea224fe,,,,,,,,,971,-132,34,1,0,0,response7disk,,1,-11,19,1,0,0,rectangle,-11,19,1,0,0,-11,19,1,0,0,0,109,109,120,1,,,,,,,,
,,,,,,,,,,,,,FF,,,,,,,,0.934,,,,,,,,,,,,,,,,,,,,,,60ff4f91b86e87a141a6686e,61036cace5b336bf7d3152d0,2021-07-29_22h06.40.486,Simcolourproject_2stim_asymm_v5,2020.2.10,MacIntel,60,61025ae37ef11b136ea224fe,,,,,,,,,3777,-155,43,1,0,0,response7disk,,1,0,0,1,0,0,rectangle,0,0,1,0,0,0,0,1,0,0,0,110,110,63,1,,,,,,,,
,,,,,,,,,,,,,FF,,,,,,,,0.767,,,,,,,,,,,,,,,,,,,,,,60ff4f91b86e87a141a6686e,61036cace5b336bf7d3152d0,2021-07-29_22h06.40.486,Simcolourproject_2stim_asymm_v5,2020.2.10,MacIntel,60,61025ae37ef11b136ea224fe,,,,,,,,,3929,91,119,1,0,0,response1disk,,7,23,4,1,0,0,rectangle,23,4,1,0,0,23,4,1,0,0,0,111,111,69,1,,,,,,,,
,,,,,,,,,,,,,FF,,,,,,,,0.583,,,,,,,,,,,,,,,,,,,,,,60ff4f91b86e87a141a6686e,61036cace5b336bf7d3152d0,2021-07-29_22h06.40.486,Simcolourproject_2stim_asymm_v5,2020.2.10,MacIntel,60,61025ae37ef11b136ea224fe,,,,,,,,,242,110,44,1,0,0,response1disk,,6,33,-13,1,0,0,rectangle,33,-13,1,0,0,33,-13,1,0,0,0,112,112,7,1,,,,,,,,
,,,,,,,,,,,,,FF,,,,,,,,0.883,,,,,,,,,,,,,,,,,,,,,,60ff4f91b86e87a141a6686e,61036cace5b336bf7d3152d0,2021-07-29_22h06.40.486,Simcolourproject_2stim_asymm_v5,2020.2.10,MacIntel,60,61025ae37ef11b136ea224fe,,,,,,,,,3395,56,83,1,0,0,response1disk,,7,15,-17,1,0,0,rectangle,15,-17,1,0,0,15,-17,1,0,0,0,113,113,67,1,,,,,,,,
,,,,,,,,,,,,,FF,,,,,,,,2.034,,,,,,,,,,,,,,,,,,,,,,60ff4f91b86e87a141a6686e,61036cace5b336bf7d3152d0,2021-07-29_22h06.40.486,Simcolourproject_2stim_asymm_v5,2020.2.10,MacIntel,60,61025ae37ef11b136ea224fe,,,,,,,,,784,161,66,1,0,0,response1disk,,6,35,-6,1,0,0,rectangle,35,-6,1,0,0,35,-6,1,0,0,0,114,114,139,1,,,,,,,,
,,,,,,,,,,,,,FF,,,,,,,,0.633,,,,,,,,,,,,,,,,,,,,,,60ff4f91b86e87a141a6686e,61036cace5b336bf7d3152d0,2021-07-29_22h06.40.486,Simcolourproject_2stim_asymm_v5,2020.2.10,MacIntel,60,61025ae37ef11b136ea224fe,,,,,,,,,3688,48,63,1,0,0,response1disk,,7,9,-2,1,0,0,rectangle,9,-2,1,0,0,9,-2,1,0,0,0,115,115,42,1,,,,,,,,
,,,,,,,,,,,,,FF,,,,,,,,0.749,,,,,,,,,,,,,,,,,,,,,,60ff4f91b86e87a141a6686e,61036cace5b336bf7d3152d0,2021-07-29_22h06.40.486,Simcolourproject_2stim_asymm_v5,2020.2.10,MacIntel,60,61025ae37ef11b136ea224fe,,,,,,,,,3707,-40,99,1,0,0,response7disk,,0,9,6,1,0,0,rectangle,9,6,1,0,0,9,6,1,0,0,0,116,116,9,1,,,,,,,,
,,,,,,,,,,,,,FF,,,,,,,,2.035,,,,,,,,,,,,,,,,,,,,,,60ff4f91b86e87a141a6686e,61036cace5b336bf7d3152d0,2021-07-29_22h06.40.486,Simcolourproject_2stim_asymm_v5,2020.2.10,MacIntel,60,61025ae37ef11b136ea224fe,,,,,,,,,3247,36,-126,1,0,0,response3disk,,4,22,9,1,0,0,rectangle,-105,-84,1,0,0,-29,-1,1,0,0,0,117,117,138,1,,response5disk_3,TRUE,2,2,"[256,205,42,215,7,135,194,99,47,272,222,28,308,3,46,185,2,174,118,79]",1.75,rectangle
,,,,,,,,,,,,,FF,,,,,,,,0.967,,,,,,,,,,,,,,,,,,,,,,60ff4f91b86e87a141a6686e,61036cace5b336bf7d3152d0,2021-07-29_22h06.40.486,Simcolourproject_2stim_asymm_v5,2020.2.10,MacIntel,60,61025ae37ef11b136ea224fe,,,,,,,,,4106,-73,-167,1,0,0,response5disk,,3,12,-11,1,0,0,rectangle,12,-11,1,0,0,12,-11,1,0,0,0,118,118,32,1,,,,,,,,
,,,,,,,,,,,,,FF,,,,,,,,1.466,,,,,,,,,,,,,,,,,,,,,,60ff4f91b86e87a141a6686e,61036cace5b336bf7d3152d0,2021-07-29_22h06.40.486,Simcolourproject_2stim_asymm_v5,2020.2.10,MacIntel,60,61025ae37ef11b136ea224fe,,,,,,,,,2981,55,133,1,0,0,response1disk,,7,15,-4,1,0,0,rectangle,15,-4,1,0,0,15,-4,1,0,0,0,119,119,79,1,,,,,,,,
,,,,,,,,,,,,,FF,,,,,,,,2.086,,,,,,,,,,,,,,,,,,,,,,60ff4f91b86e87a141a6686e,61036cace5b336bf7d3152d0,2021-07-29_22h06.40.486,Simcolourproject_2stim_asymm_v5,2020.2.10,MacIntel,60,61025ae37ef11b136ea224fe,,,,,,,,,906,125,69,1,0,0,response1disk,,6,1,-1,1,0,0,rectangle,1,-1,1,0,0,1,-1,1,0,0,0,120,120,111,1,,,,,,,,
,,,,,,,,,,,,,FF,,,,,,,,1.137,,,,,,,,,,,,,,,,,,,,,,60ff4f91b86e87a141a6686e,61036cace5b336bf7d3152d0,2021-07-29_22h06.40.486,Simcolourproject_2stim_asymm_v5,2020.2.10,MacIntel,60,61025ae37ef11b136ea224fe,,,,,,,,,3400,96,50,1,0,0,response1disk,,6,39,-22,1,0,0,rectangle,39,-22,1,0,0,39,-22,1,0,0,0,121,121,135,1,,,,,,,,
,,,,,,,,,,,,,FF,,,,,,,,0.868,,,,,,,,,,,,,,,,,,,,,,60ff4f91b86e87a141a6686e,61036cace5b336bf7d3152d0,2021-07-29_22h06.40.486,Simcolourproject_2stim_asymm_v5,2020.2.10,MacIntel,60,61025ae37ef11b136ea224fe,,,,,,,,,344,121,70,1,0,0,response1disk,,6,-12,9,1,0,0,rectangle,-12,9,1,0,0,-12,9,1,0,0,0,122,122,5,1,,,,,,,,
,,,,,,,,,,,,,FF,,,,,,,,0.6,,,,,,,,,,,,,,,,,,,,,,60ff4f91b86e87a141a6686e,61036cace5b336bf7d3152d0,2021-07-29_22h06.40.486,Simcolourproject_2stim_asymm_v5,2020.2.10,MacIntel,60,61025ae37ef11b136ea224fe,,,,,,,,,4130,129,58,1,0,0,response1disk,,6,26,9,1,0,0,rectangle,26,9,1,0,0,26,9,1,0,0,0,123,123,152,1,,,,,,,,
,,,,,,,,,,,,,FF,,,,,,,,0.65,,,,,,,,,,,,,,,,,,,,,,60ff4f91b86e87a141a6686e,61036cace5b336bf7d3152d0,2021-07-29_22h06.40.486,Simcolourproject_2stim_asymm_v5,2020.2.10,MacIntel,60,61025ae37ef11b136ea224fe,,,,,,,,,2059,50,90,1,0,0,response1disk,,7,22,12,1,0,0,rectangle,22,12,1,0,0,22,12,1,0,0,0,124,124,142,1,,,,,,,,
,,,,,,,,,,,,,FF,,,,,,,,0.651,,,,,,,,,,,,,,,,,,,,,,60ff4f91b86e87a141a6686e,61036cace5b336bf7d3152d0,2021-07-29_22h06.40.486,Simcolourproject_2stim_asymm_v5,2020.2.10,MacIntel,60,61025ae37ef11b136ea224fe,,,,,,,,,3176,50,109,1,0,0,response1disk,,7,4,3,1,0,0,rectangle,4,3,1,0,0,4,3,1,0,0,0,125,125,28,1,,,,,,,,
,,,,,,,,,,,,,FF,,,,,,,,0.6,,,,,,,,,,,,,,,,,,,,,,60ff4f91b86e87a141a6686e,61036cace5b336bf7d3152d0,2021-07-29_22h06.40.486,Simcolourproject_2stim_asymm_v5,2020.2.10,MacIntel,60,61025ae37ef11b136ea224fe,,,,,,,,,3733,57,100,1,0,0,response1disk,,7,-6,-5,1,0,0,rectangle,-6,-5,1,0,0,-6,-5,1,0,0,0,126,126,33,1,,,,,,,,
,,,,,,,,,,,,,FF,,,,,,,,0.834,,,,,,,,,,,,,,,,,,,,,,60ff4f91b86e87a141a6686e,61036cace5b336bf7d3152d0,2021-07-29_22h06.40.486,Simcolourproject_2stim_asymm_v5,2020.2.10,MacIntel,60,61025ae37ef11b136ea224fe,,,,,,,,,1799,172,48,1,0,0,response1disk,,6,43,-12,1,0,0,rectangle,43,-12,1,0,0,43,-12,1,0,0,0,127,127,130,1,,,,,,,,
,,,,,,,,,,,,,FF,,,,,,,,0.6,,,,,,,,,,,,,,,,,,,,,,60ff4f91b86e87a141a6686e,61036cace5b336bf7d3152d0,2021-07-29_22h06.40.486,Simcolourproject_2stim_asymm_v5,2020.2.10,MacIntel,60,61025ae37ef11b136ea224fe,,,,,,,,,3653,50,85,1,0,0,response1disk,,7,44,7,1,0,0,rectangle,44,7,1,0,0,44,7,1,0,0,0,128,128,38,1,,,,,,,,
,,,,,,,,,,,,,FF,,,,,,,,0.567,,,,,,,,,,,,,,,,,,,,,,60ff4f91b86e87a141a6686e,61036cace5b336bf7d3152d0,2021-07-29_22h06.40.486,Simcolourproject_2stim_asymm_v5,2020.2.10,MacIntel,60,61025ae37ef11b136ea224fe,,,,,,,,,3031,62,111,1,0,0,response1disk,,7,3,14,1,0,0,rectangle,3,14,1,0,0,3,14,1,0,0,0,129,129,8,1,,,,,,,,
,,,,,,,,,,,,,FF,,,,,,,,1.016,,,,,,,,,,,,,,,,,,,,,,60ff4f91b86e87a141a6686e,61036cace5b336bf7d3152d0,2021-07-29_22h06.40.486,Simcolourproject_2stim_asymm_v5,2020.2.10,MacIntel,60,61025ae37ef11b136ea224fe,,,,,,,,,279,47,-145,1,0,0,response3disk,,4,-59,-2,1,0,0,rectangle,-59,-2,1,0,0,-59,-2,1,0,0,0,130,130,44,1,,,,,,,,
,,,,,,,,,,,,,FF,,,,,,,,0.952,,,,,,,,,,,,,,,,,,,,,,60ff4f91b86e87a141a6686e,61036cace5b336bf7d3152d0,2021-07-29_22h06.40.486,Simcolourproject_2stim_asymm_v5,2020.2.10,MacIntel,60,61025ae37ef11b136ea224fe,,,,,,,,,324,93,110,1,0,0,response1disk,,7,60,19,1,0,0,rectangle,60,19,1,0,0,60,19,1,0,0,0,131,131,90,1,,,,,,,,
,,,,,,,,,,,,,FF,,,,,,,,0.633,,,,,,,,,,,,,,,,,,,,,,60ff4f91b86e87a141a6686e,61036cace5b336bf7d3152d0,2021-07-29_22h06.40.486,Simcolourproject_2stim_asymm_v5,2020.2.10,MacIntel,60,61025ae37ef11b136ea224fe,,,,,,,,,1314,85,57,1,0,0,response1disk,,6,40,24,1,0,0,rectangle,40,24,1,0,0,40,24,1,0,0,0,132,132,74,1,,,,,,,,
,,,,,,,,,,,,,FF,,,,,,,,0.984,,,,,,,,,,,,,,,,,,,,,,60ff4f91b86e87a141a6686e,61036cace5b336bf7d3152d0,2021-07-29_22h06.40.486,Simcolourproject_2stim_asymm_v5,2020.2.10,MacIntel,60,61025ae37ef11b136ea224fe,,,,,,,,,431,117,71,1,0,0,response1disk,,6,13,-3,1,0,0,rectangle,13,-3,1,0,0,13,-3,1,0,0,0,133,133,59,1,,,,,,,,
,,,,,,,,,,,,,FF,,,,,,,,0.568,,,,,,,,,,,,,,,,,,,,,,60ff4f91b86e87a141a6686e,61036cace5b336bf7d3152d0,2021-07-29_22h06.40.486,Simcolourproject_2stim_asymm_v5,2020.2.10,MacIntel,60,61025ae37ef11b136ea224fe,,,,,,,,,964,45,63,1,0,0,response1disk,,7,1,9,1,0,0,rectangle,-117,66,1,0,0,12,7,1,0,0,0,134,134,144,1,,response7disk_3,TRUE,1,1,"[256,205,42,215,7,135,194,99,47,272,222,28,308,3,46,185,2,174,118,79]",1.584,rectangle
,,,,,,,,,,,,,FF,,,,,,,,0.784,,,,,,,,,,,,,,,,,,,,,,60ff4f91b86e87a141a6686e,61036cace5b336bf7d3152d0,2021-07-29_22h06.40.486,Simcolourproject_2stim_asymm_v5,2020.2.10,MacIntel,60,61025ae37ef11b136ea224fe,,,,,,,,,3529,94,119,1,0,0,response1disk,,7,-23,-16,1,0,0,rectangle,-23,-16,1,0,0,-23,-16,1,0,0,0,135,135,92,1,,,,,,,,
,,,,,,,,,,,,,FF,,,,,,,,0.952,,,,,,,,,,,,,,,,,,,,,,60ff4f91b86e87a141a6686e,61036cace5b336bf7d3152d0,2021-07-29_22h06.40.486,Simcolourproject_2stim_asymm_v5,2020.2.10,MacIntel,60,61025ae37ef11b136ea224fe,,,,,,,,,1797,45,67,1,0,0,response1disk,,7,-6,-8,1,0,0,rectangle,-6,-8,1,0,0,-6,-8,1,0,0,0,136,136,46,1,,,,,,,,
,,,,,,,,,,,,,FF,,,,,,,,0.483,,,,,,,,,,,,,,,,,,,,,,60ff4f91b86e87a141a6686e,61036cace5b336bf7d3152d0,2021-07-29_22h06.40.486,Simcolourproject_2stim_asymm_v5,2020.2.10,MacIntel,60,61025ae37ef11b136ea224fe,,,,,,,,,2051,36,98,1,0,0,response1disk,,7,5,12,1,0,0,rectangle,5,12,1,0,0,5,12,1,0,0,0,137,137,121,1,,,,,,,,
,,,,,,,,,,,,,FF,,,,,,,,0.383,,,,,,,,,,,,,,,,,,,,,,60ff4f91b86e87a141a6686e,61036cace5b336bf7d3152d0,2021-07-29_22h06.40.486,Simcolourproject_2stim_asymm_v5,2020.2.10,MacIntel,60,61025ae37ef11b136ea224fe,,,,,,,,,821,54,87,1,0,0,response1disk,,7,13,-4,1,0,0,rectangle,13,-4,1,0,0,13,-4,1,0,0,0,138,138,76,1,,,,,,,,
,,,,,,,,,,,,,FF,,,,,,,,0.684,,,,,,,,,,,,,,,,,,,,,,60ff4f91b86e87a141a6686e,61036cace5b336bf7d3152d0,2021-07-29_22h06.40.486,Simcolourproject_2stim_asymm_v5,2020.2.10,MacIntel,60,61025ae37ef11b136ea224fe,,,,,,,,,1281,63,86,1,0,0,response1disk,,7,38,16,1,0,0,rectangle,38,16,1,0,0,38,16,1,0,0,0,139,139,88,1,,,,,,,,
,,,,,,,,,,,,,FF,,,,,,,,0.5,,,,,,,,,,,,,,,,,,,,,,60ff4f91b86e87a141a6686e,61036cace5b336bf7d3152d0,2021-07-29_22h06.40.486,Simcolourproject_2stim_asymm_v5,2020.2.10,MacIntel,60,61025ae37ef11b136ea224fe,,,,,,,,,760,51,137,1,0,0,response1disk,,7,-3,18,1,0,0,rectangle,-3,18,1,0,0,-3,18,1,0,0,0,140,140,86,1,,,,,,,,
,,,,,,,,,,,,,FF,,,,,,,,0.467,,,,,,,,,,,,,,,,,,,,,,60ff4f91b86e87a141a6686e,61036cace5b336bf7d3152d0,2021-07-29_22h06.40.486,Simcolourproject_2stim_asymm_v5,2020.2.10,MacIntel,60,61025ae37ef11b136ea224fe,,,,,,,,,504,48,104,1,0,0,response1disk,,7,13,17,1,0,0,rectangle,13,17,1,0,0,13,17,1,0,0,0,141,141,43,1,,,,,,,,
,,,,,,,,,,,,,FF,,,,,,,,0.433,,,,,,,,,,,,,,,,,,,,,,60ff4f91b86e87a141a6686e,61036cace5b336bf7d3152d0,2021-07-29_22h06.40.486,Simcolourproject_2stim_asymm_v5,2020.2.10,MacIntel,60,61025ae37ef11b136ea224fe,,,,,,,,,1870,38,89,1,0,0,response1disk,,7,2,-9,1,0,0,rectangle,2,-9,1,0,0,2,-9,1,0,0,0,142,142,132,1,,,,,,,,
,,,,,,,,,,,,,FF,,,,,,,,0.566,,,,,,,,,,,,,,,,,,,,,,60ff4f91b86e87a141a6686e,61036cace5b336bf7d3152d0,2021-07-29_22h06.40.486,Simcolourproject_2stim_asymm_v5,2020.2.10,MacIntel,60,61025ae37ef11b136ea224fe,,,,,,,,,1880,57,119,1,0,0,response1disk,,7,14,17,1,0,0,rectangle,14,17,1,0,0,14,17,1,0,0,0,143,143,41,1,,,,,,,,
,,,,,,,,,,,,,FF,,,,,,,,0.649,,,,,,,,,,,,,,,,,,,,,,60ff4f91b86e87a141a6686e,61036cace5b336bf7d3152d0,2021-07-29_22h06.40.486,Simcolourproject_2stim_asymm_v5,2020.2.10,MacIntel,60,61025ae37ef11b136ea224fe,,,,,,,,,2809,59,92,1,0,0,response1disk,,7,31,20,1,0,0,rectangle,31,20,1,0,0,31,20,1,0,0,0,144,144,107,1,,,,,,,,
,,,,,,,,,,,,,FF,,,,,,,,0.516,,,,,,,,,,,,,,,,,,,,,,60ff4f91b86e87a141a6686e,61036cace5b336bf7d3152d0,2021-07-29_22h06.40.486,Simcolourproject_2stim_asymm_v5,2020.2.10,MacIntel,60,61025ae37ef11b136ea224fe,,,,,,,,,2476,64,79,1,0,0,response1disk,,7,3,2,1,0,0,rectangle,3,2,1,0,0,3,2,1,0,0,0,145,145,61,1,,,,,,,,
,,,,,,,,,,,,,FF,,,,,,,,0.801,,,,,,,,,,,,,,,,,,,,,,60ff4f91b86e87a141a6686e,61036cace5b336bf7d3152d0,2021-07-29_22h06.40.486,Simcolourproject_2stim_asymm_v5,2020.2.10,MacIntel,60,61025ae37ef11b136ea224fe,,,,,,,,,3186,35,74,1,0,0,response1disk,,7,-7,-1,1,0,0,rectangle,-7,-1,1,0,0,-7,-1,1,0,0,0,146,146,122,1,,,,,,,,
,,,,,,,,,,,,,FF,,,,,,,,1.316,,,,,,,,,,,,,,,,,,,,,,60ff4f91b86e87a141a6686e,61036cace5b336bf7d3152d0,2021-07-29_22h06.40.486,Simcolourproject_2stim_asymm_v5,2020.2.10,MacIntel,60,61025ae37ef11b136ea224fe,,,,,,,,,2416,50,110,1,0,0,response1disk,,7,48,-1,1,0,0,rectangle,48,-1,1,0,0,48,-1,1,0,0,0,147,147,109,1,,,,,,,,
,,,,,,,,,,,,,FF,,,,,,,,0.516,,,,,,,,,,,,,,,,,,,,,,60ff4f91b86e87a141a6686e,61036cace5b336bf7d3152d0,2021-07-29_22h06.40.486,Simcolourproject_2stim_asymm_v5,2020.2.10,MacIntel,60,61025ae37ef11b136ea224fe,,,,,,,,,184,50,68,1,0,0,response1disk,,7,10,-1,1,0,0,rectangle,10,-1,1,0,0,10,-1,1,0,0,0,148,148,153,1,,,,,,,,
,,,,,,,,,,,,,FF,,,,,,,,0.534,,,,,,,,,,,,,,,,,,,,,,60ff4f91b86e87a141a6686e,61036cace5b336bf7d3152d0,2021-07-29_22h06.40.486,Simcolourproject_2stim_asymm_v5,2020.2.10,MacIntel,60,61025ae37ef11b136ea224fe,,,,,,,,,2699,31,107,1,0,0,response1disk,,7,17,27,1,0,0,rectangle,17,27,1,0,0,17,27,1,0,0,0,149,149,15,1,,,,,,,,
,,,,,,,,,,,,,FF,,,,,,,,0.834,,,,,,,,,,,,,,,,,,,,,,60ff4f91b86e87a141a6686e,61036cace5b336bf7d3152d0,2021-07-29_22h06.40.486,Simcolourproject_2stim_asymm_v5,2020.2.10,MacIntel,60,61025ae37ef11b136ea224fe,,,,,,,,,3425,-96,139,1,0,0,response7disk,,0,-1,5,1,0,0,rectangle,-1,5,1,0,0,-1,5,1,0,0,0,150,150,125,1,,,,,,,,
,,,,,,,,,,,,,FF,,,,,,,,0.649,,,,,,,,,,,,,,,,,,,,,,60ff4f91b86e87a141a6686e,61036cace5b336bf7d3152d0,2021-07-29_22h06.40.486,Simcolourproject_2stim_asymm_v5,2020.2.10,MacIntel,60,61025ae37ef11b136ea224fe,,,,,,,,,4342,83,45,1,0,0,response1disk,,6,19,-2,1,0,0,rectangle,19,-2,1,0,0,19,-2,1,0,0,0,151,151,119,1,,,,,,,,
,,,,,,,,,,,,,FF,,,,,,,,0.484,,,,,,,,,,,,,,,,,,,,,,60ff4f91b86e87a141a6686e,61036cace5b336bf7d3152d0,2021-07-29_22h06.40.486,Simcolourproject_2stim_asymm_v5,2020.2.10,MacIntel,60,61025ae37ef11b136ea224fe,,,,,,,,,1169,66,58,1,0,0,response1disk,,6,19,28,1,0,0,rectangle,19,28,1,0,0,19,28,1,0,0,0,152,152,156,1,,,,,,,,
,,,,,,,,,,,,,FF,,,,,,,,0.584,,,,,,,,,,,,,,,,,,,,,,60ff4f91b86e87a141a6686e,61036cace5b336bf7d3152d0,2021-07-29_22h06.40.486,Simcolourproject_2stim_asymm_v5,2020.2.10,MacIntel,60,61025ae37ef11b136ea224fe,,,,,,,,,3861,44,92,1,0,0,response1disk,,7,33,1,1,0,0,rectangle,33,1,1,0,0,33,1,1,0,0,0,153,153,123,1,,,,,,,,
,,,,,,,,,,,,,FF,,,,,,,,2.001,,,,,,,,,,,,,,,,,,,,,,60ff4f91b86e87a141a6686e,61036cace5b336bf7d3152d0,2021-07-29_22h06.40.486,Simcolourproject_2stim_asymm_v5,2020.2.10,MacIntel,60,61025ae37ef11b136ea224fe,,,,,,,,,452,145,171,1,0,0,response1disk,,7,-10,2,1,0,0,rectangle,-10,2,1,0,0,-10,2,1,0,0,0,154,154,105,1,,,,,,,,
,,,,,,,,,,,,,FF,,,,,,,,0.499,,,,,,,,,,,,,,,,,,,,,,60ff4f91b86e87a141a6686e,61036cace5b336bf7d3152d0,2021-07-29_22h06.40.486,Simcolourproject_2stim_asymm_v5,2020.2.10,MacIntel,60,61025ae37ef11b136ea224fe,,,,,,,,,2983,130,137,1,0,0,response1disk,,7,10,2,1,0,0,rectangle,10,2,1,0,0,10,2,1,0,0,0,155,155,106,1,,,,,,,,
,,,,,,,,,,,,,FF,,,,,,,,0.817,,,,,,,,,,,,,,,,,,,,,,60ff4f91b86e87a141a6686e,61036cace5b336bf7d3152d0,2021-07-29_22h06.40.486,Simcolourproject_2stim_asymm_v5,2020.2.10,MacIntel,60,61025ae37ef11b136ea224fe,,,,,,,,,2275,68,104,1,0,0,response1disk,,7,20,8,1,0,0,rectangle,20,8,1,0,0,20,8,1,0,0,0,156,156,36,1,,,,,,,,
,,,,,,,,,,,,,FF,,,,,,,,1.333,,,,,,,,,,,,,,,,,,,,,,60ff4f91b86e87a141a6686e,61036cace5b336bf7d3152d0,2021-07-29_22h06.40.486,Simcolourproject_2stim_asymm_v5,2020.2.10,MacIntel,60,61025ae37ef11b136ea224fe,,,,,,,,,1746,34,-117,1,0,0,response3disk,,4,-5,9,1,0,0,rectangle,-5,9,1,0,0,-5,9,1,0,0,0,157,157,101,1,,,,,,,,
,,,,,,,,,,,,,FF,,,,,,,,0.566,,,,,,,,,,,,,,,,,,,,,,60ff4f91b86e87a141a6686e,61036cace5b336bf7d3152d0,2021-07-29_22h06.40.486,Simcolourproject_2stim_asymm_v5,2020.2.10,MacIntel,60,61025ae37ef11b136ea224fe,,,,,,,,,606,46,107,1,0,0,response1disk,,7,0,14,1,0,0,rectangle,0,14,1,0,0,0,14,1,0,0,0,158,158,115,1,,,,,,,,
,,,,,,,,,,,,,FF,,,,,,,,1.151,,,,,,,,,,,,,,,,,,,,,,60ff4f91b86e87a141a6686e,61036cace5b336bf7d3152d0,2021-07-29_22h06.40.486,Simcolourproject_2stim_asymm_v5,2020.2.10,MacIntel,60,61025ae37ef11b136ea224fe,,,,,,,,,719,-82,32,1,0,0,response7disk,,1,-37,-8,1,0,0,rectangle,-37,-8,1,0,0,-37,-8,1,0,0,0,159,159,149,1,,,,,,,,
,,,,,,,,,,,,,FF,,,,,,,,0.95,,,,,,,,,,,,,,,,,,,,,,60ff4f91b86e87a141a6686e,61036cace5b336bf7d3152d0,2021-07-29_22h06.40.486,Simcolourproject_2stim_asymm_v5,2020.2.10,MacIntel,60,61025ae37ef11b136ea224fe,,,,,,,,,3149,-121,54,1,0,0,response7disk,,1,-50,23,1,0,0,rectangle,-50,23,1,0,0,-50,23,1,0,0,1,0,160,63,1,,,,,,,,
,,,,,,,,,,,,,FF,,,,,,,,1.166,,,,,,,,,,,,,,,,,,,,,,60ff4f91b86e87a141a6686e,61036cace5b336bf7d3152d0,2021-07-29_22h06.40.486,Simcolourproject_2stim_asymm_v5,2020.2.10,MacIntel,60,61025ae37ef11b136ea224fe,,,,,,,,,3713,-48,-143,1,0,0,response5disk,,3,-11,9,1,0,0,rectangle,-11,9,1,0,0,-11,9,1,0,0,1,1,161,151,1,,,,,,,,
,,,,,,,,,,,,,FF,,,,,,,,0.8,,,,,,,,,,,,,,,,,,,,,,60ff4f91b86e87a141a6686e,61036cace5b336bf7d3152d0,2021-07-29_22h06.40.486,Simcolourproject_2stim_asymm_v5,2020.2.10,MacIntel,60,61025ae37ef11b136ea224fe,,,,,,,,,771,50,94,1,0,0,response1disk,,7,-14,-14,1,0,0,rectangle,-14,-14,1,0,0,-14,-14,1,0,0,1,2,162,129,1,,,,,,,,
,,,,,,,,,,,,,FF,,,,,,,,0.751,,,,,,,,,,,,,,,,,,,,,,60ff4f91b86e87a141a6686e,61036cace5b336bf7d3152d0,2021-07-29_22h06.40.486,Simcolourproject_2stim_asymm_v5,2020.2.10,MacIntel,60,61025ae37ef11b136ea224fe,,,,,,,,,3966,-152,83,1,0,0,response7disk,,1,-50,18,1,0,0,rectangle,-50,18,1,0,0,-50,18,1,0,0,1,3,163,85,1,,,,,,,,
,,,,,,,,,,,,,FF,,,,,,,,1.268,,,,,,,,,,,,,,,,,,,,,,60ff4f91b86e87a141a6686e,61036cace5b336bf7d3152d0,2021-07-29_22h06.40.486,Simcolourproject_2stim_asymm_v5,2020.2.10,MacIntel,60,61025ae37ef11b136ea224fe,,,,,,,,,1149,69,86,1,0,0,response1disk,,7,25,3,1,0,0,rectangle,25,3,1,0,0,25,3,1,0,0,1,4,164,52,1,,,,,,,,
,,,,,,,,,,,,,FF,,,,,,,,0.516,,,,,,,,,,,,,,,,,,,,,,60ff4f91b86e87a141a6686e,61036cace5b336bf7d3152d0,2021-07-29_22h06.40.486,Simcolourproject_2stim_asymm_v5,2020.2.10,MacIntel,60,61025ae37ef11b136ea224fe,,,,,,,,,4328,72,87,1,0,0,response1disk,,7,11,-4,1,0,0,rectangle,11,-4,1,0,0,11,-4,1,0,0,1,5,165,92,1,,,,,,,,
,,,,,,,,,,,,,FF,,,,,,,,0.883,,,,,,,,,,,,,,,,,,,,,,60ff4f91b86e87a141a6686e,61036cace5b336bf7d3152d0,2021-07-29_22h06.40.486,Simcolourproject_2stim_asymm_v5,2020.2.10,MacIntel,60,61025ae37ef11b136ea224fe,,,,,,,,,145,53,75,1,0,0,response1disk,,7,-5,-21,1,0,0,rectangle,-5,-21,1,0,0,-5,-21,1,0,0,1,6,166,102,1,,,,,,,,
,,,,,,,,,,,,,FF,,,,,,,,0.984,,,,,,,,,,,,,,,,,,,,,,60ff4f91b86e87a141a6686e,61036cace5b336bf7d3152d0,2021-07-29_22h06.40.486,Simcolourproject_2stim_asymm_v5,2020.2.10,MacIntel,60,61025ae37ef11b136ea224fe,,,,,,,,,3294,-85,-131,1,0,0,response5disk,,3,-19,-18,1,0,0,rectangle,-19,-18,1,0,0,-19,-18,1,0,0,1,7,167,152,1,,,,,,,,
,,,,,,,,,,,,,FF,,,,,,,,1.617,,,,,,,,,,,,,,,,,,,,,,60ff4f91b86e87a141a6686e,61036cace5b336bf7d3152d0,2021-07-29_22h06.40.486,Simcolourproject_2stim_asymm_v5,2020.2.10,MacIntel,60,61025ae37ef11b136ea224fe,,,,,,,,,1671,173,-73,1,0,0,response3disk,,5,-17,17,1,0,0,rectangle,-17,17,1,0,0,-17,17,1,0,0,1,8,168,64,1,,,,,,,,
,,,,,,,,,,,,,FF,,,,,,,,1.351,,,,,,,,,,,,,,,,,,,,,,60ff4f91b86e87a141a6686e,61036cace5b336bf7d3152d0,2021-07-29_22h06.40.486,Simcolourproject_2stim_asymm_v5,2020.2.10,MacIntel,60,61025ae37ef11b136ea224fe,,,,,,,,,3067,29,-90,1,0,0,response3disk,,4,26,-7,1,0,0,rectangle,26,-7,1,0,0,26,-7,1,0,0,1,9,169,43,1,,,,,,,,
,,,,,,,,,,,,,FF,,,,,,,,1.367,,,,,,,,,,,,,,,,,,,,,,60ff4f91b86e87a141a6686e,61036cace5b336bf7d3152d0,2021-07-29_22h06.40.486,Simcolourproject_2stim_asymm_v5,2020.2.10,MacIntel,60,61025ae37ef11b136ea224fe,,,,,,,,,3786,50,-96,1,0,0,response3disk,,4,29,7,1,0,0,rectangle,29,7,1,0,0,29,7,1,0,0,1,10,170,144,1,,,,,,,,
,,,,,,,,,,,,,FF,,,,,,,,0.85,,,,,,,,,,,,,,,,,,,,,,60ff4f91b86e87a141a6686e,61036cace5b336bf7d3152d0,2021-07-29_22h06.40.486,Simcolourproject_2stim_asymm_v5,2020.2.10,MacIntel,60,61025ae37ef11b136ea224fe,,,,,,,,,77,-63,88,1,0,0,response7disk,,0,-36,15,1,0,0,rectangle,-36,15,1,0,0,-36,15,1,0,0,1,11,171,51,1,,,,,,,,
,,,,,,,,,,,,,FF,,,,,,,,0.816,,,,,,,,,,,,,,,,,,,,,,60ff4f91b86e87a141a6686e,61036cace5b336bf7d3152d0,2021-07-29_22h06.40.486,Simcolourproject_2stim_asymm_v5,2020.2.10,MacIntel,60,61025ae37ef11b136ea224fe,,,,,,,,,1565,86,97,1,0,0,response1disk,,7,18,-15,1,0,0,rectangle,18,-15,1,0,0,18,-15,1,0,0,1,12,172,126,1,,,,,,,,
,,,,,,,,,,,,,FF,,,,,,,,0.683,,,,,,,,,,,,,,,,,,,,,,60ff4f91b86e87a141a6686e,61036cace5b336bf7d3152d0,2021-07-29_22h06.40.486,Simcolourproject_2stim_asymm_v5,2020.2.10,MacIntel,60,61025ae37ef11b136ea224fe,,,,,,,,,100,53,100,1,0,0,response1disk,,7,-27,-5,1,0,0,rectangle,113,130,1,0,0,16,-16,1,0,0,1,13,173,50,1,,response1disk_3,TRUE,7,7,"[256,205,42,215,7,135,194,99,47,272,222,28,308,3,46,185,2,174,118,79]",3.034,rectangle
,,,,,,,,,,,,,FF,,,,,,,,1.251,,,,,,,,,,,,,,,,,,,,,,60ff4f91b86e87a141a6686e,61036cace5b336bf7d3152d0,2021-07-29_22h06.40.486,Simcolourproject_2stim_asymm_v5,2020.2.10,MacIntel,60,61025ae37ef11b136ea224fe,,,,,,,,,1591,60,168,1,0,0,response1disk,,7,6,-7,1,0,0,rectangle,6,-7,1,0,0,6,-7,1,0,0,1,14,174,157,1,,,,,,,,
,,,,,,,,,,,,,FF,,,,,,,,4.85,,,,,,,,,,,,,,,,,,,,,,60ff4f91b86e87a141a6686e,61036cace5b336bf7d3152d0,2021-07-29_22h06.40.486,Simcolourproject_2stim_asymm_v5,2020.2.10,MacIntel,60,61025ae37ef11b136ea224fe,,,,,,,,,3102,45,136,1,0,0,response1disk,,7,17,-12,1,0,0,rectangle,17,-12,1,0,0,17,-12,1,0,0,1,15,175,122,1,,,,,,,,
,,,,,,,,,,,,,FF,,,,,,,,0.917,,,,,,,,,,,,,,,,,,,,,,60ff4f91b86e87a141a6686e,61036cace5b336bf7d3152d0,2021-07-29_22h06.40.486,Simcolourproject_2stim_asymm_v5,2020.2.10,MacIntel,60,61025ae37ef11b136ea224fe,,,,,,,,,1641,44,96,1,0,0,response1disk,,7,-26,-6,1,0,0,rectangle,-26,-6,1,0,0,-26,-6,1,0,0,1,16,176,40,1,,,,,,,,
,,,,,,,,,,,,,FF,,,,,,,,0.784,,,,,,,,,,,,,,,,,,,,,,60ff4f91b86e87a141a6686e,61036cace5b336bf7d3152d0,2021-07-29_22h06.40.486,Simcolourproject_2stim_asymm_v5,2020.2.10,MacIntel,60,61025ae37ef11b136ea224fe,,,,,,,,,1665,55,97,1,0,0,response1disk,,7,1,3,1,0,0,rectangle,1,3,1,0,0,1,3,1,0,0,1,17,177,139,1,,,,,,,,
,,,,,,,,,,,,,FF,,,,,,,,0.467,,,,,,,,,,,,,,,,,,,,,,60ff4f91b86e87a141a6686e,61036cace5b336bf7d3152d0,2021-07-29_22h06.40.486,Simcolourproject_2stim_asymm_v5,2020.2.10,MacIntel,60,61025ae37ef11b136ea224fe,,,,,,,,,1295,34,68,1,0,0,response1disk,,7,7,5,1,0,0,rectangle,7,5,1,0,0,7,5,1,0,0,1,18,178,116,1,,,,,,,,
,,,,,,,,,,,,,FF,,,,,,,,0.75,,,,,,,,,,,,,,,,,,,,,,60ff4f91b86e87a141a6686e,61036cace5b336bf7d3152d0,2021-07-29_22h06.40.486,Simcolourproject_2stim_asymm_v5,2020.2.10,MacIntel,60,61025ae37ef11b136ea224fe,,,,,,,,,1651,43,75,1,0,0,response1disk,,7,21,9,1,0,0,rectangle,21,9,1,0,0,21,9,1,0,0,1,19,179,156,1,,,,,,,,
,,,,,,,,,,,,,FF,,,,,,,,0.6,,,,,,,,,,,,,,,,,,,,,,60ff4f91b86e87a141a6686e,61036cace5b336bf7d3152d0,2021-07-29_22h06.40.486,Simcolourproject_2stim_asymm_v5,2020.2.10,MacIntel,60,61025ae37ef11b136ea224fe,,,,,,,,,465,53,92,1,0,0,response1disk,,7,5,9,1,0,0,rectangle,5,9,1,0,0,5,9,1,0,0,1,20,180,79,1,,,,,,,,
,,,,,,,,,,,,,FF,,,,,,,,0.633,,,,,,,,,,,,,,,,,,,,,,60ff4f91b86e87a141a6686e,61036cace5b336bf7d3152d0,2021-07-29_22h06.40.486,Simcolourproject_2stim_asymm_v5,2020.2.10,MacIntel,60,61025ae37ef11b136ea224fe,,,,,,,,,2535,78,119,1,0,0,response1disk,,7,20,17,1,0,0,rectangle,20,17,1,0,0,20,17,1,0,0,1,21,181,1,1,,,,,,,,
,,,,,,,,,,,,,FF,,,,,,,,0.583,,,,,,,,,,,,,,,,,,,,,,60ff4f91b86e87a141a6686e,61036cace5b336bf7d3152d0,2021-07-29_22h06.40.486,Simcolourproject_2stim_asymm_v5,2020.2.10,MacIntel,60,61025ae37ef11b136ea224fe,,,,,,,,,1527,71,85,1,0,0,response1disk,,7,11,1,1,0,0,rectangle,11,1,1,0,0,11,1,1,0,0,1,22,182,69,1,,,,,,,,
,,,,,,,,,,,,,FF,,,,,,,,0.535,,,,,,,,,,,,,,,,,,,,,,60ff4f91b86e87a141a6686e,61036cace5b336bf7d3152d0,2021-07-29_22h06.40.486,Simcolourproject_2stim_asymm_v5,2020.2.10,MacIntel,60,61025ae37ef11b136ea224fe,,,,,,,,,2905,54,85,1,0,0,response1disk,,7,5,-11,1,0,0,rectangle,5,-11,1,0,0,5,-11,1,0,0,1,23,183,147,1,,,,,,,,
,,,,,,,,,,,,,FF,,,,,,,,0.616,,,,,,,,,,,,,,,,,,,,,,60ff4f91b86e87a141a6686e,61036cace5b336bf7d3152d0,2021-07-29_22h06.40.486,Simcolourproject_2stim_asymm_v5,2020.2.10,MacIntel,60,61025ae37ef11b136ea224fe,,,,,,,,,3379,45,77,1,0,0,response1disk,,7,-10,-14,1,0,0,rectangle,-48,-146,1,0,0,-53,-12,1,0,0,1,24,184,105,1,,response5disk_3,TRUE,3,3,"[256,205,42,215,7,135,194,99,47,272,222,28,308,3,46,185,2,174,118,79]",1.484,rectangle
,,,,,,,,,,,,,FF,,,,,,,,1.268,,,,,,,,,,,,,,,,,,,,,,60ff4f91b86e87a141a6686e,61036cace5b336bf7d3152d0,2021-07-29_22h06.40.486,Simcolourproject_2stim_asymm_v5,2020.2.10,MacIntel,60,61025ae37ef11b136ea224fe,,,,,,,,,2347,78,103,1,0,0,response1disk,,7,19,-5,1,0,0,rectangle,19,-5,1,0,0,19,-5,1,0,0,1,25,185,72,1,,,,,,,,
,,,,,,,,,,,,,FF,,,,,,,,0.663,,,,,,,,,,,,,,,,,,,,,,60ff4f91b86e87a141a6686e,61036cace5b336bf7d3152d0,2021-07-29_22h06.40.486,Simcolourproject_2stim_asymm_v5,2020.2.10,MacIntel,60,61025ae37ef11b136ea224fe,,,,,,,,,1652,46,64,1,0,0,response1disk,,7,27,-5,1,0,0,rectangle,27,-5,1,0,0,27,-5,1,0,0,1,26,186,149,1,,,,,,,,
,,,,,,,,,,,,,FF,,,,,,,,0.5,,,,,,,,,,,,,,,,,,,,,,60ff4f91b86e87a141a6686e,61036cace5b336bf7d3152d0,2021-07-29_22h06.40.486,Simcolourproject_2stim_asymm_v5,2020.2.10,MacIntel,60,61025ae37ef11b136ea224fe,,,,,,,,,781,37,66,1,0,0,response1disk,,7,16,6,1,0,0,rectangle,16,6,1,0,0,16,6,1,0,0,1,27,187,142,1,,,,,,,,
,,,,,,,,,,,,,FF,,,,,,,,0.451,,,,,,,,,,,,,,,,,,,,,,60ff4f91b86e87a141a6686e,61036cace5b336bf7d3152d0,2021-07-29_22h06.40.486,Simcolourproject_2stim_asymm_v5,2020.2.10,MacIntel,60,61025ae37ef11b136ea224fe,,,,,,,,,1108,40,76,1,0,0,response1disk,,7,8,9,1,0,0,rectangle,8,9,1,0,0,8,9,1,0,0,1,28,188,121,1,,,,,,,,
,,,,,,,,,,,,,FF,,,,,,,,1.2,,,,,,,,,,,,,,,,,,,,,,60ff4f91b86e87a141a6686e,61036cace5b336bf7d3152d0,2021-07-29_22h06.40.486,Simcolourproject_2stim_asymm_v5,2020.2.10,MacIntel,60,61025ae37ef11b136ea224fe,,,,,,,,,4359,-83,-51,1,0,0,response5disk,,2,5,14,1,0,0,rectangle,5,14,1,0,0,5,14,1,0,0,1,29,189,103,1,,,,,,,,
,,,,,,,,,,,,,FF,,,,,,,,1.234,,,,,,,,,,,,,,,,,,,,,,60ff4f91b86e87a141a6686e,61036cace5b336bf7d3152d0,2021-07-29_22h06.40.486,Simcolourproject_2stim_asymm_v5,2020.2.10,MacIntel,60,61025ae37ef11b136ea224fe,,,,,,,,,2283,121,-61,1,0,0,response3disk,,5,0,17,1,0,0,rectangle,0,17,1,0,0,0,17,1,0,0,1,30,190,104,1,,,,,,,,
,,,,,,,,,,,,,FF,,,,,,,,1.467,,,,,,,,,,,,,,,,,,,,,,60ff4f91b86e87a141a6686e,61036cace5b336bf7d3152d0,2021-07-29_22h06.40.486,Simcolourproject_2stim_asymm_v5,2020.2.10,MacIntel,60,61025ae37ef11b136ea224fe,,,,,,,,,3754,85,-46,1,0,0,response3disk,,5,33,-6,1,0,0,rectangle,33,-6,1,0,0,33,-6,1,0,0,1,31,191,9,1,,,,,,,,
,,,,,,,,,,,,,FF,,,,,,,,0.8,,,,,,,,,,,,,,,,,,,,,,60ff4f91b86e87a141a6686e,61036cace5b336bf7d3152d0,2021-07-29_22h06.40.486,Simcolourproject_2stim_asymm_v5,2020.2.10,MacIntel,60,61025ae37ef11b136ea224fe,,,,,,,,,1554,60,133,1,0,0,response1disk,,7,11,12,1,0,0,rectangle,11,12,1,0,0,11,12,1,0,0,1,32,192,57,1,,,,,,,,
,,,,,,,,,,,,,FF,,,,,,,,1.935,,,,,,,,,,,,,,,,,,,,,,60ff4f91b86e87a141a6686e,61036cace5b336bf7d3152d0,2021-07-29_22h06.40.486,Simcolourproject_2stim_asymm_v5,2020.2.10,MacIntel,60,61025ae37ef11b136ea224fe,,,,,,,,,3157,58,-180,1,0,0,response3disk,,4,13,-9,1,0,0,rectangle,-140,-116,1,0,0,48,-21,1,0,0,1,33,193,148,1,,response5disk_3,TRUE,2,2,"[256,205,42,215,7,135,194,99,47,272,222,28,308,3,46,185,2,174,118,79]",1.667,rectangle
,,,,,,,,,,,,,FF,,,,,,,,0.65,,,,,,,,,,,,,,,,,,,,,,60ff4f91b86e87a141a6686e,61036cace5b336bf7d3152d0,2021-07-29_22h06.40.486,Simcolourproject_2stim_asymm_v5,2020.2.10,MacIntel,60,61025ae37ef11b136ea224fe,,,,,,,,,1956,-87,209,1,0,0,response7disk,,0,7,15,1,0,0,rectangle,7,15,1,0,0,7,15,1,0,0,1,34,194,145,1,,,,,,,,
,,,,,,,,,,,,,FF,,,,,,,,0.866,,,,,,,,,,,,,,,,,,,,,,60ff4f91b86e87a141a6686e,61036cace5b336bf7d3152d0,2021-07-29_22h06.40.486,Simcolourproject_2stim_asymm_v5,2020.2.10,MacIntel,60,61025ae37ef11b136ea224fe,,,,,,,,,2037,161,63,1,0,0,response1disk,,6,29,10,1,0,0,rectangle,29,10,1,0,0,29,10,1,0,0,1,35,195,15,1,,,,,,,,
,,,,,,,,,,,,,FF,,,,,,,,1.2,,,,,,,,,,,,,,,,,,,,,,60ff4f91b86e87a141a6686e,61036cace5b336bf7d3152d0,2021-07-29_22h06.40.486,Simcolourproject_2stim_asymm_v5,2020.2.10,MacIntel,60,61025ae37ef11b136ea224fe,,,,,,,,,522,173,70,1,0,0,response1disk,,6,0,-9,1,0,0,rectangle,0,-9,1,0,0,0,-9,1,0,0,1,36,196,73,1,,,,,,,,
,,,,,,,,,,,,,FF,,,,,,,,0.716,,,,,,,,,,,,,,,,,,,,,,60ff4f91b86e87a141a6686e,61036cace5b336bf7d3152d0,2021-07-29_22h06.40.486,Simcolourproject_2stim_asymm_v5,2020.2.10,MacIntel,60,61025ae37ef11b136ea224fe,,,,,,,,,2098,-64,121,1,0,0,response7disk,,0,-30,16,1,0,0,rectangle,-30,16,1,0,0,-30,16,1,0,0,1,37,197,101,1,,,,,,,,
,,,,,,,,,,,,,FF,,,,,,,,0.833,,,,,,,,,,,,,,,,,,,,,,60ff4f91b86e87a141a6686e,61036cace5b336bf7d3152d0,2021-07-29_22h06.40.486,Simcolourproject_2stim_asymm_v5,2020.2.10,MacIntel,60,61025ae37ef11b136ea224fe,,,,,,,,,3556,-60,122,1,0,0,response7disk,,0,-1,8,1,0,0,rectangle,-1,8,1,0,0,-1,8,1,0,0,1,38,198,17,1,,,,,,,,
,,,,,,,,,,,,,FF,,,,,,,,0.584,,,,,,,,,,,,,,,,,,,,,,60ff4f91b86e87a141a6686e,61036cace5b336bf7d3152d0,2021-07-29_22h06.40.486,Simcolourproject_2stim_asymm_v5,2020.2.10,MacIntel,60,61025ae37ef11b136ea224fe,,,,,,,,,4305,-58,122,1,0,0,response7disk,,0,9,-14,1,0,0,rectangle,9,-14,1,0,0,9,-14,1,0,0,1,39,199,27,1,,,,,,,,
,,,,,,,,,,,,,FF,,,,,,,,1.083,,,,,,,,,,,,,,,,,,,,,,60ff4f91b86e87a141a6686e,61036cace5b336bf7d3152d0,2021-07-29_22h06.40.486,Simcolourproject_2stim_asymm_v5,2020.2.10,MacIntel,60,61025ae37ef11b136ea224fe,,,,,,,,,1431,97,128,1,0,0,response1disk,,7,32,0,1,0,0,rectangle,32,0,1,0,0,32,0,1,0,0,1,40,200,154,1,,,,,,,,
,,,,,,,,,,,,,FF,,,,,,,,1.184,,,,,,,,,,,,,,,,,,,,,,60ff4f91b86e87a141a6686e,61036cace5b336bf7d3152d0,2021-07-29_22h06.40.486,Simcolourproject_2stim_asymm_v5,2020.2.10,MacIntel,60,61025ae37ef11b136ea224fe,,,,,,,,,1602,-69,-161,1,0,0,response5disk,,3,10,-14,1,0,0,rectangle,10,-14,1,0,0,10,-14,1,0,0,1,41,201,155,1,,,,,,,,
,,,,,,,,,,,,,FF,,,,,,,,0.933,,,,,,,,,,,,,,,,,,,,,,60ff4f91b86e87a141a6686e,61036cace5b336bf7d3152d0,2021-07-29_22h06.40.486,Simcolourproject_2stim_asymm_v5,2020.2.10,MacIntel,60,61025ae37ef11b136ea224fe,,,,,,,,,1973,71,112,1,0,0,response1disk,,7,-26,5,1,0,0,rectangle,-26,5,1,0,0,-26,5,1,0,0,1,42,202,42,1,,,,,,,,
,,,,,,,,,,,,,FF,,,,,,,,1.001,,,,,,,,,,,,,,,,,,,,,,60ff4f91b86e87a141a6686e,61036cace5b336bf7d3152d0,2021-07-29_22h06.40.486,Simcolourproject_2stim_asymm_v5,2020.2.10,MacIntel,60,61025ae37ef11b136ea224fe,,,,,,,,,2665,-52,-151,1,0,0,response5disk,,3,19,-9,1,0,0,rectangle,19,-9,1,0,0,19,-9,1,0,0,1,43,203,94,1,,,,,,,,
,,,,,,,,,,,,,FF,,,,,,,,0.883,,,,,,,,,,,,,,,,,,,,,,60ff4f91b86e87a141a6686e,61036cace5b336bf7d3152d0,2021-07-29_22h06.40.486,Simcolourproject_2stim_asymm_v5,2020.2.10,MacIntel,60,61025ae37ef11b136ea224fe,,,,,,,,,72,-68,-103,1,0,0,response5disk,,3,-42,-10,1,0,0,rectangle,165,81,1,0,0,55,-4,1,0,0,1,44,204,99,1,,response1disk_3,TRUE,6,6,"[256,205,42,215,7,135,194,99,47,272,222,28,308,3,46,185,2,174,118,79]",1.567,rectangle
,,,,,,,,,,,,,FF,,,,,,,,1.034,,,,,,,,,,,,,,,,,,,,,,60ff4f91b86e87a141a6686e,61036cace5b336bf7d3152d0,2021-07-29_22h06.40.486,Simcolourproject_2stim_asymm_v5,2020.2.10,MacIntel,60,61025ae37ef11b136ea224fe,,,,,,,,,994,84,130,1,0,0,response1disk,,7,25,22,1,0,0,rectangle,25,22,1,0,0,25,22,1,0,0,1,45,205,118,1,,,,,,,,
,,,,,,,,,,,,,FF,,,,,,,,0.48,,,,,,,,,,,,,,,,,,,,,,60ff4f91b86e87a141a6686e,61036cace5b336bf7d3152d0,2021-07-29_22h06.40.486,Simcolourproject_2stim_asymm_v5,2020.2.10,MacIntel,60,61025ae37ef11b136ea224fe,,,,,,,,,1176,43,109,1,0,0,response1disk,,7,6,9,1,0,0,rectangle,6,9,1,0,0,6,9,1,0,0,1,46,206,96,1,,,,,,,,
,,,,,,,,,,,,,FF,,,,,,,,0.517,,,,,,,,,,,,,,,,,,,,,,60ff4f91b86e87a141a6686e,61036cace5b336bf7d3152d0,2021-07-29_22h06.40.486,Simcolourproject_2stim_asymm_v5,2020.2.10,MacIntel,60,61025ae37ef11b136ea224fe,,,,,,,,,2854,61,102,1,0,0,response1disk,,7,2,-7,1,0,0,rectangle,2,-7,1,0,0,2,-7,1,0,0,1,47,207,7,1,,,,,,,,
,,,,,,,,,,,,,FF,,,,,,,,0.733,,,,,,,,,,,,,,,,,,,,,,60ff4f91b86e87a141a6686e,61036cace5b336bf7d3152d0,2021-07-29_22h06.40.486,Simcolourproject_2stim_asymm_v5,2020.2.10,MacIntel,60,61025ae37ef11b136ea224fe,,,,,,,,,2286,34,99,1,0,0,response1disk,,7,-19,-16,1,0,0,rectangle,-19,-16,1,0,0,-19,-16,1,0,0,1,48,208,97,1,,,,,,,,
,,,,,,,,,,,,,FF,,,,,,,,0.517,,,,,,,,,,,,,,,,,,,,,,60ff4f91b86e87a141a6686e,61036cace5b336bf7d3152d0,2021-07-29_22h06.40.486,Simcolourproject_2stim_asymm_v5,2020.2.10,MacIntel,60,61025ae37ef11b136ea224fe,,,,,,,,,3213,63,117,1,0,0,response1disk,,7,-5,7,1,0,0,rectangle,-5,7,1,0,0,-5,7,1,0,0,1,49,209,128,1,,,,,,,,
,,,,,,,,,,,,,FF,,,,,,,,0.483,,,,,,,,,,,,,,,,,,,,,,60ff4f91b86e87a141a6686e,61036cace5b336bf7d3152d0,2021-07-29_22h06.40.486,Simcolourproject_2stim_asymm_v5,2020.2.10,MacIntel,60,61025ae37ef11b136ea224fe,,,,,,,,,128,89,103,1,0,0,response1disk,,7,-47,-28,1,0,0,rectangle,-47,-28,1,0,0,-47,-28,1,0,0,1,50,210,81,1,,,,,,,,
,,,,,,,,,,,,,FF,,,,,,,,0.598,,,,,,,,,,,,,,,,,,,,,,60ff4f91b86e87a141a6686e,61036cace5b336bf7d3152d0,2021-07-29_22h06.40.486,Simcolourproject_2stim_asymm_v5,2020.2.10,MacIntel,60,61025ae37ef11b136ea224fe,,,,,,,,,2470,67,109,1,0,0,response1disk,,7,-13,-3,1,0,0,rectangle,-13,-3,1,0,0,-13,-3,1,0,0,1,51,211,75,1,,,,,,,,
,,,,,,,,,,,,,FF,,,,,,,,1.1,,,,,,,,,,,,,,,,,,,,,,60ff4f91b86e87a141a6686e,61036cace5b336bf7d3152d0,2021-07-29_22h06.40.486,Simcolourproject_2stim_asymm_v5,2020.2.10,MacIntel,60,61025ae37ef11b136ea224fe,,,,,,,,,7,-83,-124,1,0,0,response5disk,,3,-19,-23,1,0,0,rectangle,-19,-23,1,0,0,-19,-23,1,0,0,1,52,212,34,1,,,,,,,,
,,,,,,,,,,,,,FF,,,,,,,,1.217,,,,,,,,,,,,,,,,,,,,,,60ff4f91b86e87a141a6686e,61036cace5b336bf7d3152d0,2021-07-29_22h06.40.486,Simcolourproject_2stim_asymm_v5,2020.2.10,MacIntel,60,61025ae37ef11b136ea224fe,,,,,,,,,3915,72,-129,1,0,0,response3disk,,4,57,-12,1,0,0,rectangle,57,-12,1,0,0,57,-12,1,0,0,1,53,213,31,1,,,,,,,,
,,,,,,,,,,,,,FF,,,,,,,,0.751,,,,,,,,,,,,,,,,,,,,,,60ff4f91b86e87a141a6686e,61036cace5b336bf7d3152d0,2021-07-29_22h06.40.486,Simcolourproject_2stim_asymm_v5,2020.2.10,MacIntel,60,61025ae37ef11b136ea224fe,,,,,,,,,954,79,122,1,0,0,response1disk,,7,29,-16,1,0,0,rectangle,-130,70,1,0,0,-30,12,1,0,0,1,54,214,136,1,,response7disk_3,TRUE,1,1,"[256,205,42,215,7,135,194,99,47,272,222,28,308,3,46,185,2,174,118,79]",1.417,rectangle
,,,,,,,,,,,,,FF,,,,,,,,0.551,,,,,,,,,,,,,,,,,,,,,,60ff4f91b86e87a141a6686e,61036cace5b336bf7d3152d0,2021-07-29_22h06.40.486,Simcolourproject_2stim_asymm_v5,2020.2.10,MacIntel,60,61025ae37ef11b136ea224fe,,,,,,,,,4081,51,121,1,0,0,response1disk,,7,-18,14,1,0,0,rectangle,-18,14,1,0,0,-18,14,1,0,0,1,55,215,25,1,,,,,,,,
,,,,,,,,,,,,,FF,,,,,,,,0.783,,,,,,,,,,,,,,,,,,,,,,60ff4f91b86e87a141a6686e,61036cace5b336bf7d3152d0,2021-07-29_22h06.40.486,Simcolourproject_2stim_asymm_v5,2020.2.10,MacIntel,60,61025ae37ef11b136ea224fe,,,,,,,,,1389,59,101,1,0,0,response1disk,,7,15,-5,1,0,0,rectangle,15,-5,1,0,0,15,-5,1,0,0,1,56,216,48,1,,,,,,,,
,,,,,,,,,,,,,FF,,,,,,,,0.466,,,,,,,,,,,,,,,,,,,,,,60ff4f91b86e87a141a6686e,61036cace5b336bf7d3152d0,2021-07-29_22h06.40.486,Simcolourproject_2stim_asymm_v5,2020.2.10,MacIntel,60,61025ae37ef11b136ea224fe,,,,,,,,,213,63,95,1,0,0,response1disk,,7,13,17,1,0,0,rectangle,13,17,1,0,0,13,17,1,0,0,1,57,217,6,1,,,,,,,,
,,,,,,,,,,,,,FF,,,,,,,,0.85,,,,,,,,,,,,,,,,,,,,,,60ff4f91b86e87a141a6686e,61036cace5b336bf7d3152d0,2021-07-29_22h06.40.486,Simcolourproject_2stim_asymm_v5,2020.2.10,MacIntel,60,61025ae37ef11b136ea224fe,,,,,,,,,1410,45,91,1,0,0,response1disk,,7,-11,5,1,0,0,rectangle,-11,5,1,0,0,-11,5,1,0,0,1,58,218,67,1,,,,,,,,
,,,,,,,,,,,,,FF,,,,,,,,0.55,,,,,,,,,,,,,,,,,,,,,,60ff4f91b86e87a141a6686e,61036cace5b336bf7d3152d0,2021-07-29_22h06.40.486,Simcolourproject_2stim_asymm_v5,2020.2.10,MacIntel,60,61025ae37ef11b136ea224fe,,,,,,,,,384,48,69,1,0,0,response1disk,,7,1,-10,1,0,0,rectangle,1,-10,1,0,0,1,-10,1,0,0,1,59,219,93,1,,,,,,,,
,,,,,,,,,,,,,FF,,,,,,,,1.32,,,,,,,,,,,,,,,,,,,,,,60ff4f91b86e87a141a6686e,61036cace5b336bf7d3152d0,2021-07-29_22h06.40.486,Simcolourproject_2stim_asymm_v5,2020.2.10,MacIntel,60,61025ae37ef11b136ea224fe,,,,,,,,,3039,35,-119,1,0,0,response3disk,,4,2,-15,1,0,0,rectangle,2,-15,1,0,0,2,-15,1,0,0,1,60,220,89,1,,,,,,,,
,,,,,,,,,,,,,FF,,,,,,,,1.168,,,,,,,,,,,,,,,,,,,,,,60ff4f91b86e87a141a6686e,61036cace5b336bf7d3152d0,2021-07-29_22h06.40.486,Simcolourproject_2stim_asymm_v5,2020.2.10,MacIntel,60,61025ae37ef11b136ea224fe,,,,,,,,,356,-84,-127,1,0,0,response5disk,,3,-63,-14,1,0,0,rectangle,-52,121,1,0,0,26,-16,1,0,0,1,61,221,131,1,,response7disk_3,TRUE,0,0,"[256,205,42,215,7,135,194,99,47,272,222,28,308,3,46,185,2,174,118,79]",1.566,rectangle
,,,,,,,,,,,,,FF,,,,,,,,0.666,,,,,,,,,,,,,,,,,,,,,,60ff4f91b86e87a141a6686e,61036cace5b336bf7d3152d0,2021-07-29_22h06.40.486,Simcolourproject_2stim_asymm_v5,2020.2.10,MacIntel,60,61025ae37ef11b136ea224fe,,,,,,,,,3214,59,133,1,0,0,response1disk,,7,-23,28,1,0,0,rectangle,-23,28,1,0,0,-23,28,1,0,0,1,62,222,78,1,,,,,,,,
,,,,,,,,,,,,,FF,,,,,,,,1.018,,,,,,,,,,,,,,,,,,,,,,60ff4f91b86e87a141a6686e,61036cace5b336bf7d3152d0,2021-07-29_22h06.40.486,Simcolourproject_2stim_asymm_v5,2020.2.10,MacIntel,60,61025ae37ef11b136ea224fe,,,,,,,,,1747,-93,-56,1,0,0,response5disk,,2,10,-14,1,0,0,rectangle,10,-14,1,0,0,10,-14,1,0,0,1,63,223,112,1,,,,,,,,
,,,,,,,,,,,,,FF,,,,,,,,0.817,,,,,,,,,,,,,,,,,,,,,,60ff4f91b86e87a141a6686e,61036cace5b336bf7d3152d0,2021-07-29_22h06.40.486,Simcolourproject_2stim_asymm_v5,2020.2.10,MacIntel,60,61025ae37ef11b136ea224fe,,,,,,,,,2480,-99,66,1,0,0,response7disk,,1,-10,-10,1,0,0,rectangle,-10,-10,1,0,0,-10,-10,1,0,0,1,64,224,117,1,,,,,,,,
,,,,,,,,,,,,,FF,,,,,,,,0.768,,,,,,,,,,,,,,,,,,,,,,60ff4f91b86e87a141a6686e,61036cace5b336bf7d3152d0,2021-07-29_22h06.40.486,Simcolourproject_2stim_asymm_v5,2020.2.10,MacIntel,60,61025ae37ef11b136ea224fe,,,,,,,,,4126,-53,-107,1,0,0,response5disk,,3,2,24,1,0,0,rectangle,2,24,1,0,0,2,24,1,0,0,1,65,225,146,1,,,,,,,,
,,,,,,,,,,,,,FF,,,,,,,,0.716,,,,,,,,,,,,,,,,,,,,,,60ff4f91b86e87a141a6686e,61036cace5b336bf7d3152d0,2021-07-29_22h06.40.486,Simcolourproject_2stim_asymm_v5,2020.2.10,MacIntel,60,61025ae37ef11b136ea224fe,,,,,,,,,33,106,147,1,0,0,response1disk,,7,15,12,1,0,0,rectangle,15,12,1,0,0,15,12,1,0,0,1,66,226,39,1,,,,,,,,
,,,,,,,,,,,,,FF,,,,,,,,1,,,,,,,,,,,,,,,,,,,,,,60ff4f91b86e87a141a6686e,61036cace5b336bf7d3152d0,2021-07-29_22h06.40.486,Simcolourproject_2stim_asymm_v5,2020.2.10,MacIntel,60,61025ae37ef11b136ea224fe,,,,,,,,,3158,98,-71,1,0,0,response3disk,,5,32,7,1,0,0,rectangle,32,7,1,0,0,32,7,1,0,0,1,67,227,88,1,,,,,,,,
,,,,,,,,,,,,,FF,,,,,,,,0.666,,,,,,,,,,,,,,,,,,,,,,60ff4f91b86e87a141a6686e,61036cace5b336bf7d3152d0,2021-07-29_22h06.40.486,Simcolourproject_2stim_asymm_v5,2020.2.10,MacIntel,60,61025ae37ef11b136ea224fe,,,,,,,,,1550,34,132,1,0,0,response1disk,,7,-19,15,1,0,0,rectangle,-19,15,1,0,0,-19,15,1,0,0,1,68,228,82,1,,,,,,,,
,,,,,,,,,,,,,FF,,,,,,,,0.434,,,,,,,,,,,,,,,,,,,,,,60ff4f91b86e87a141a6686e,61036cace5b336bf7d3152d0,2021-07-29_22h06.40.486,Simcolourproject_2stim_asymm_v5,2020.2.10,MacIntel,60,61025ae37ef11b136ea224fe,,,,,,,,,2407,43,113,1,0,0,response1disk,,7,5,-11,1,0,0,rectangle,5,-11,1,0,0,5,-11,1,0,0,1,69,229,55,1,,,,,,,,
,,,,,,,,,,,,,FF,,,,,,,,1.267,,,,,,,,,,,,,,,,,,,,,,60ff4f91b86e87a141a6686e,61036cace5b336bf7d3152d0,2021-07-29_22h06.40.486,Simcolourproject_2stim_asymm_v5,2020.2.10,MacIntel,60,61025ae37ef11b136ea224fe,,,,,,,,,1813,133,-86,1,0,0,response3disk,,5,9,-3,1,0,0,rectangle,9,-3,1,0,0,9,-3,1,0,0,1,70,230,60,1,,,,,,,,
,,,,,,,,,,,,,FF,,,,,,,,0.616,,,,,,,,,,,,,,,,,,,,,,60ff4f91b86e87a141a6686e,61036cace5b336bf7d3152d0,2021-07-29_22h06.40.486,Simcolourproject_2stim_asymm_v5,2020.2.10,MacIntel,60,61025ae37ef11b136ea224fe,,,,,,,,,2325,120,131,1,0,0,response1disk,,7,21,24,1,0,0,rectangle,21,24,1,0,0,21,24,1,0,0,1,71,231,38,1,,,,,,,,
,,,,,,,,,,,,,FF,,,,,,,,3.218,,,,,,,,,,,,,,,,,,,,,,60ff4f91b86e87a141a6686e,61036cace5b336bf7d3152d0,2021-07-29_22h06.40.486,Simcolourproject_2stim_asymm_v5,2020.2.10,MacIntel,60,61025ae37ef11b136ea224fe,,,,,,,,,1492,69,130,1,0,0,response1disk,,7,-19,-20,1,0,0,rectangle,-19,-20,1,0,0,-19,-20,1,0,0,1,72,232,53,1,,,,,,,,
,,,,,,,,,,,,,FF,,,,,,,,0.716,,,,,,,,,,,,,,,,,,,,,,60ff4f91b86e87a141a6686e,61036cace5b336bf7d3152d0,2021-07-29_22h06.40.486,Simcolourproject_2stim_asymm_v5,2020.2.10,MacIntel,60,61025ae37ef11b136ea224fe,,,,,,,,,1235,45,142,1,0,0,response1disk,,7,25,-15,1,0,0,rectangle,25,-15,1,0,0,25,-15,1,0,0,1,73,233,4,1,,,,,,,,
,,,,,,,,,,,,,FF,,,,,,,,0.616,,,,,,,,,,,,,,,,,,,,,,60ff4f91b86e87a141a6686e,61036cace5b336bf7d3152d0,2021-07-29_22h06.40.486,Simcolourproject_2stim_asymm_v5,2020.2.10,MacIntel,60,61025ae37ef11b136ea224fe,,,,,,,,,623,47,75,1,0,0,response1disk,,7,27,8,1,0,0,rectangle,27,8,1,0,0,27,8,1,0,0,1,74,234,134,1,,,,,,,,
,,,,,,,,,,,,,FF,,,,,,,,0.634,,,,,,,,,,,,,,,,,,,,,,60ff4f91b86e87a141a6686e,61036cace5b336bf7d3152d0,2021-07-29_22h06.40.486,Simcolourproject_2stim_asymm_v5,2020.2.10,MacIntel,60,61025ae37ef11b136ea224fe,,,,,,,,,2345,66,99,1,0,0,response1disk,,7,46,1,1,0,0,rectangle,46,1,1,0,0,46,1,1,0,0,1,75,235,29,1,,,,,,,,
,,,,,,,,,,,,,FF,,,,,,,,0.432,,,,,,,,,,,,,,,,,,,,,,60ff4f91b86e87a141a6686e,61036cace5b336bf7d3152d0,2021-07-29_22h06.40.486,Simcolourproject_2stim_asymm_v5,2020.2.10,MacIntel,60,61025ae37ef11b136ea224fe,,,,,,,,,2767,51,64,1,0,0,response1disk,,7,19,-2,1,0,0,rectangle,19,-2,1,0,0,19,-2,1,0,0,1,76,236,37,1,,,,,,,,
,,,,,,,,,,,,,FF,,,,,,,,0.466,,,,,,,,,,,,,,,,,,,,,,60ff4f91b86e87a141a6686e,61036cace5b336bf7d3152d0,2021-07-29_22h06.40.486,Simcolourproject_2stim_asymm_v5,2020.2.10,MacIntel,60,61025ae37ef11b136ea224fe,,,,,,,,,2211,86,95,1,0,0,response1disk,,7,23,-25,1,0,0,rectangle,23,-25,1,0,0,23,-25,1,0,0,1,77,237,153,1,,,,,,,,
,,,,,,,,,,,,,FF,,,,,,,,0.451,,,,,,,,,,,,,,,,,,,,,,60ff4f91b86e87a141a6686e,61036cace5b336bf7d3152d0,2021-07-29_22h06.40.486,Simcolourproject_2stim_asymm_v5,2020.2.10,MacIntel,60,61025ae37ef11b136ea224fe,,,,,,,,,3768,40,67,1,0,0,response1disk,,7,14,-1,1,0,0,rectangle,14,-1,1,0,0,14,-1,1,0,0,1,78,238,86,1,,,,,,,,
,,,,,,,,,,,,,FF,,,,,,,,1.266,,,,,,,,,,,,,,,,,,,,,,60ff4f91b86e87a141a6686e,61036cace5b336bf7d3152d0,2021-07-29_22h06.40.486,Simcolourproject_2stim_asymm_v5,2020.2.10,MacIntel,60,61025ae37ef11b136ea224fe,,,,,,,,,1229,-118,-96,1,0,0,response5disk,,2,12,-4,1,0,0,rectangle,12,-4,1,0,0,12,-4,1,0,0,1,79,239,44,1,,,,,,,,
,,,,,,,,,,,,,FF,,,,,,,,0.634,,,,,,,,,,,,,,,,,,,,,,60ff4f91b86e87a141a6686e,61036cace5b336bf7d3152d0,2021-07-29_22h06.40.486,Simcolourproject_2stim_asymm_v5,2020.2.10,MacIntel,60,61025ae37ef11b136ea224fe,,,,,,,,,2341,80,112,1,0,0,response1disk,,7,6,-25,1,0,0,rectangle,6,-25,1,0,0,6,-25,1,0,0,1,80,240,109,1,,,,,,,,
,,,,,,,,,,,,,FF,,,,,,,,0.55,,,,,,,,,,,,,,,,,,,,,,60ff4f91b86e87a141a6686e,61036cace5b336bf7d3152d0,2021-07-29_22h06.40.486,Simcolourproject_2stim_asymm_v5,2020.2.10,MacIntel,60,61025ae37ef11b136ea224fe,,,,,,,,,1708,36,79,1,0,0,response1disk,,7,7,25,1,0,0,rectangle,7,25,1,0,0,7,25,1,0,0,1,81,241,46,1,,,,,,,,
,,,,,,,,,,,,,FF,,,,,,,,0.634,,,,,,,,,,,,,,,,,,,,,,60ff4f91b86e87a141a6686e,61036cace5b336bf7d3152d0,2021-07-29_22h06.40.486,Simcolourproject_2stim_asymm_v5,2020.2.10,MacIntel,60,61025ae37ef11b136ea224fe,,,,,,,,,3829,42,88,1,0,0,response1disk,,7,18,6,1,0,0,rectangle,18,6,1,0,0,18,6,1,0,0,1,82,242,107,1,,,,,,,,
,,,,,,,,,,,,,FF,,,,,,,,0.566,,,,,,,,,,,,,,,,,,,,,,60ff4f91b86e87a141a6686e,61036cace5b336bf7d3152d0,2021-07-29_22h06.40.486,Simcolourproject_2stim_asymm_v5,2020.2.10,MacIntel,60,61025ae37ef11b136ea224fe,,,,,,,,,3839,48,57,1,0,0,response1disk,,7,20,16,1,0,0,rectangle,20,16,1,0,0,20,16,1,0,0,1,83,243,33,1,,,,,,,,
,,,,,,,,,,,,,FF,,,,,,,,0.517,,,,,,,,,,,,,,,,,,,,,,60ff4f91b86e87a141a6686e,61036cace5b336bf7d3152d0,2021-07-29_22h06.40.486,Simcolourproject_2stim_asymm_v5,2020.2.10,MacIntel,60,61025ae37ef11b136ea224fe,,,,,,,,,4209,45,75,1,0,0,response1disk,,7,3,4,1,0,0,rectangle,3,4,1,0,0,3,4,1,0,0,1,84,244,18,1,,,,,,,,
,,,,,,,,,,,,,FF,,,,,,,,0.534,,,,,,,,,,,,,,,,,,,,,,60ff4f91b86e87a141a6686e,61036cace5b336bf7d3152d0,2021-07-29_22h06.40.486,Simcolourproject_2stim_asymm_v5,2020.2.10,MacIntel,60,61025ae37ef11b136ea224fe,,,,,,,,,3833,31,81,1,0,0,response1disk,,7,9,4,1,0,0,rectangle,9,4,1,0,0,9,4,1,0,0,1,85,245,36,1,,,,,,,,
,,,,,,,,,,,,,FF,,,,,,,,0.533,,,,,,,,,,,,,,,,,,,,,,60ff4f91b86e87a141a6686e,61036cace5b336bf7d3152d0,2021-07-29_22h06.40.486,Simcolourproject_2stim_asymm_v5,2020.2.10,MacIntel,60,61025ae37ef11b136ea224fe,,,,,,,,,3825,71,75,1,0,0,response1disk,,7,23,8,1,0,0,rectangle,23,8,1,0,0,23,8,1,0,0,1,86,246,58,1,,,,,,,,
,,,,,,,,,,,,,FF,,,,,,,,0.401,,,,,,,,,,,,,,,,,,,,,,60ff4f91b86e87a141a6686e,61036cace5b336bf7d3152d0,2021-07-29_22h06.40.486,Simcolourproject_2stim_asymm_v5,2020.2.10,MacIntel,60,61025ae37ef11b136ea224fe,,,,,,,,,2549,29,71,1,0,0,response1disk,,7,10,7,1,0,0,rectangle,10,7,1,0,0,10,7,1,0,0,1,87,247,127,1,,,,,,,,
,,,,,,,,,,,,,FF,,,,,,,,0.483,,,,,,,,,,,,,,,,,,,,,,60ff4f91b86e87a141a6686e,61036cace5b336bf7d3152d0,2021-07-29_22h06.40.486,Simcolourproject_2stim_asymm_v5,2020.2.10,MacIntel,60,61025ae37ef11b136ea224fe,,,,,,,,,154,38,65,1,0,0,response1disk,,7,16,8,1,0,0,rectangle,16,8,1,0,0,16,8,1,0,0,1,88,248,30,1,,,,,,,,
,,,,,,,,,,,,,FF,,,,,,,,0.366,,,,,,,,,,,,,,,,,,,,,,60ff4f91b86e87a141a6686e,61036cace5b336bf7d3152d0,2021-07-29_22h06.40.486,Simcolourproject_2stim_asymm_v5,2020.2.10,MacIntel,60,61025ae37ef11b136ea224fe,,,,,,,,,2336,60,79,1,0,0,response1disk,,7,5,1,1,0,0,rectangle,5,1,1,0,0,5,1,1,0,0,1,89,249,16,1,,,,,,,,
,,,,,,,,,,,,,FF,,,,,,,,0.35,,,,,,,,,,,,,,,,,,,,,,60ff4f91b86e87a141a6686e,61036cace5b336bf7d3152d0,2021-07-29_22h06.40.486,Simcolourproject_2stim_asymm_v5,2020.2.10,MacIntel,60,61025ae37ef11b136ea224fe,,,,,,,,,1091,30,62,1,0,0,response1disk,,7,22,22,1,0,0,rectangle,22,22,1,0,0,22,22,1,0,0,1,90,250,8,1,,,,,,,,
,,,,,,,,,,,,,FF,,,,,,,,0.483,,,,,,,,,,,,,,,,,,,,,,60ff4f91b86e87a141a6686e,61036cace5b336bf7d3152d0,2021-07-29_22h06.40.486,Simcolourproject_2stim_asymm_v5,2020.2.10,MacIntel,60,61025ae37ef11b136ea224fe,,,,,,,,,3231,68,112,1,0,0,response1disk,,7,16,18,1,0,0,rectangle,16,18,1,0,0,16,18,1,0,0,1,91,251,113,1,,,,,,,,
,,,,,,,,,,,,,FF,,,,,,,,1.234,,,,,,,,,,,,,,,,,,,,,,60ff4f91b86e87a141a6686e,61036cace5b336bf7d3152d0,2021-07-29_22h06.40.486,Simcolourproject_2stim_asymm_v5,2020.2.10,MacIntel,60,61025ae37ef11b136ea224fe,,,,,,,,,351,-136,-69,1,0,0,response5disk,,2,-11,-20,1,0,0,rectangle,-11,-20,1,0,0,-11,-20,1,0,0,1,92,252,114,1,,,,,,,,
,,,,,,,,,,,,,FF,,,,,,,,0.601,,,,,,,,,,,,,,,,,,,,,,60ff4f91b86e87a141a6686e,61036cace5b336bf7d3152d0,2021-07-29_22h06.40.486,Simcolourproject_2stim_asymm_v5,2020.2.10,MacIntel,60,61025ae37ef11b136ea224fe,,,,,,,,,1937,44,120,1,0,0,response1disk,,7,10,8,1,0,0,rectangle,10,8,1,0,0,10,8,1,0,0,1,93,253,66,1,,,,,,,,
,,,,,,,,,,,,,FF,,,,,,,,0.432,,,,,,,,,,,,,,,,,,,,,,60ff4f91b86e87a141a6686e,61036cace5b336bf7d3152d0,2021-07-29_22h06.40.486,Simcolourproject_2stim_asymm_v5,2020.2.10,MacIntel,60,61025ae37ef11b136ea224fe,,,,,,,,,1015,64,111,1,0,0,response1disk,,7,10,3,1,0,0,rectangle,10,3,1,0,0,10,3,1,0,0,1,94,254,115,1,,,,,,,,
,,,,,,,,,,,,,FF,,,,,,,,0.45,,,,,,,,,,,,,,,,,,,,,,60ff4f91b86e87a141a6686e,61036cace5b336bf7d3152d0,2021-07-29_22h06.40.486,Simcolourproject_2stim_asymm_v5,2020.2.10,MacIntel,60,61025ae37ef11b136ea224fe,,,,,,,,,4156,43,81,1,0,0,response1disk,,7,0,-11,1,0,0,rectangle,-66,-162,1,0,0,-27,3,1,0,0,1,95,255,65,1,,response5disk_3,TRUE,3,3,"[256,205,42,215,7,135,194,99,47,272,222,28,308,3,46,185,2,174,118,79]",2.198,rectangle
,,,,,,,,,,,,,FF,,,,,,,,3.168,,,,,,,,,,,,,,,,,,,,,,60ff4f91b86e87a141a6686e,61036cace5b336bf7d3152d0,2021-07-29_22h06.40.486,Simcolourproject_2stim_asymm_v5,2020.2.10,MacIntel,60,61025ae37ef11b136ea224fe,,,,,,,,,2698,-147,-75,1,0,0,response5disk,,2,58,-11,1,0,0,rectangle,58,-11,1,0,0,58,-11,1,0,0,1,96,256,106,1,,,,,,,,
,,,,,,,,,,,,,FF,,,,,,,,1.05,,,,,,,,,,,,,,,,,,,,,,60ff4f91b86e87a141a6686e,61036cace5b336bf7d3152d0,2021-07-29_22h06.40.486,Simcolourproject_2stim_asymm_v5,2020.2.10,MacIntel,60,61025ae37ef11b136ea224fe,,,,,,,,,1495,50,90,1,0,0,response1disk,,7,34,-21,1,0,0,rectangle,34,-21,1,0,0,34,-21,1,0,0,1,97,257,26,1,,,,,,,,
,,,,,,,,,,,,,FF,,,,,,,,0.667,,,,,,,,,,,,,,,,,,,,,,60ff4f91b86e87a141a6686e,61036cace5b336bf7d3152d0,2021-07-29_22h06.40.486,Simcolourproject_2stim_asymm_v5,2020.2.10,MacIntel,60,61025ae37ef11b136ea224fe,,,,,,,,,2640,37,99,1,0,0,response1disk,,7,6,-1,1,0,0,rectangle,6,-1,1,0,0,6,-1,1,0,0,1,98,258,150,1,,,,,,,,
,,,,,,,,,,,,,FF,,,,,,,,0.417,,,,,,,,,,,,,,,,,,,,,,60ff4f91b86e87a141a6686e,61036cace5b336bf7d3152d0,2021-07-29_22h06.40.486,Simcolourproject_2stim_asymm_v5,2020.2.10,MacIntel,60,61025ae37ef11b136ea224fe,,,,,,,,,2910,47,81,1,0,0,response1disk,,7,0,-19,1,0,0,rectangle,0,-19,1,0,0,0,-19,1,0,0,1,99,259,87,1,,,,,,,,
,,,,,,,,,,,,,FF,,,,,,,,0.4,,,,,,,,,,,,,,,,,,,,,,60ff4f91b86e87a141a6686e,61036cace5b336bf7d3152d0,2021-07-29_22h06.40.486,Simcolourproject_2stim_asymm_v5,2020.2.10,MacIntel,60,61025ae37ef11b136ea224fe,,,,,,,,,363,50,113,1,0,0,response1disk,,7,34,1,1,0,0,rectangle,34,1,1,0,0,34,1,1,0,0,1,100,260,2,1,,,,,,,,
,,,,,,,,,,,,,FF,,,,,,,,0.467,,,,,,,,,,,,,,,,,,,,,,60ff4f91b86e87a141a6686e,61036cace5b336bf7d3152d0,2021-07-29_22h06.40.486,Simcolourproject_2stim_asymm_v5,2020.2.10,MacIntel,60,61025ae37ef11b136ea224fe,,,,,,,,,1642,53,74,1,0,0,response1disk,,7,8,-11,1,0,0,rectangle,8,-11,1,0,0,8,-11,1,0,0,1,101,261,140,1,,,,,,,,
,,,,,,,,,,,,,FF,,,,,,,,0.7,,,,,,,,,,,,,,,,,,,,,,60ff4f91b86e87a141a6686e,61036cace5b336bf7d3152d0,2021-07-29_22h06.40.486,Simcolourproject_2stim_asymm_v5,2020.2.10,MacIntel,60,61025ae37ef11b136ea224fe,,,,,,,,,664,52,73,1,0,0,response1disk,,7,19,24,1,0,0,rectangle,19,24,1,0,0,19,24,1,0,0,1,102,262,13,1,,,,,,,,
,,,,,,,,,,,,,FF,,,,,,,,0.549,,,,,,,,,,,,,,,,,,,,,,60ff4f91b86e87a141a6686e,61036cace5b336bf7d3152d0,2021-07-29_22h06.40.486,Simcolourproject_2stim_asymm_v5,2020.2.10,MacIntel,60,61025ae37ef11b136ea224fe,,,,,,,,,3613,50,101,1,0,0,response1disk,,7,16,25,1,0,0,rectangle,16,25,1,0,0,16,25,1,0,0,1,103,263,95,1,,,,,,,,
,,,,,,,,,,,,,FF,,,,,,,,2,,,,,,,,,,,,,,,,,,,,,,60ff4f91b86e87a141a6686e,61036cace5b336bf7d3152d0,2021-07-29_22h06.40.486,Simcolourproject_2stim_asymm_v5,2020.2.10,MacIntel,60,61025ae37ef11b136ea224fe,,,,,,,,,548,-41,-157,1,0,0,response5disk,,3,-41,11,1,0,0,rectangle,-41,11,1,0,0,-41,11,1,0,0,1,104,264,91,1,,,,,,,,
,,,,,,,,,,,,,FF,,,,,,,,1.7,,,,,,,,,,,,,,,,,,,,,,60ff4f91b86e87a141a6686e,61036cace5b336bf7d3152d0,2021-07-29_22h06.40.486,Simcolourproject_2stim_asymm_v5,2020.2.10,MacIntel,60,61025ae37ef11b136ea224fe,,,,,,,,,2246,59,134,1,0,0,response1disk,,7,-17,27,1,0,0,rectangle,-17,27,1,0,0,-17,27,1,0,0,1,105,265,100,1,,,,,,,,
,,,,,,,,,,,,,FF,,,,,,,,0.4,,,,,,,,,,,,,,,,,,,,,,60ff4f91b86e87a141a6686e,61036cace5b336bf7d3152d0,2021-07-29_22h06.40.486,Simcolourproject_2stim_asymm_v5,2020.2.10,MacIntel,60,61025ae37ef11b136ea224fe,,,,,,,,,997,45,114,1,0,0,response1disk,,7,3,-8,1,0,0,rectangle,3,-8,1,0,0,3,-8,1,0,0,1,106,266,19,1,,,,,,,,
,,,,,,,,,,,,,FF,,,,,,,,0.4,,,,,,,,,,,,,,,,,,,,,,60ff4f91b86e87a141a6686e,61036cace5b336bf7d3152d0,2021-07-29_22h06.40.486,Simcolourproject_2stim_asymm_v5,2020.2.10,MacIntel,60,61025ae37ef11b136ea224fe,,,,,,,,,2958,47,58,1,0,0,response1disk,,7,13,4,1,0,0,rectangle,13,4,1,0,0,13,4,1,0,0,1,107,267,56,1,,,,,,,,
,,,,,,,,,,,,,FF,,,,,,,,1.251,,,,,,,,,,,,,,,,,,,,,,60ff4f91b86e87a141a6686e,61036cace5b336bf7d3152d0,2021-07-29_22h06.40.486,Simcolourproject_2stim_asymm_v5,2020.2.10,MacIntel,60,61025ae37ef11b136ea224fe,,,,,,,,,557,44,94,1,0,0,response1disk,,7,21,0,1,0,0,rectangle,21,0,1,0,0,21,0,1,0,0,1,108,268,71,1,,,,,,,,
,,,,,,,,,,,,,FF,,,,,,,,1.133,,,,,,,,,,,,,,,,,,,,,,60ff4f91b86e87a141a6686e,61036cace5b336bf7d3152d0,2021-07-29_22h06.40.486,Simcolourproject_2stim_asymm_v5,2020.2.10,MacIntel,60,61025ae37ef11b136ea224fe,,,,,,,,,971,-155,-95,1,0,0,response5disk,,2,-18,11,1,0,0,rectangle,-18,11,1,0,0,-18,11,1,0,0,1,109,269,70,1,,,,,,,,
,,,,,,,,,,,,,FF,,,,,,,,1.151,,,,,,,,,,,,,,,,,,,,,,60ff4f91b86e87a141a6686e,61036cace5b336bf7d3152d0,2021-07-29_22h06.40.486,Simcolourproject_2stim_asymm_v5,2020.2.10,MacIntel,60,61025ae37ef11b136ea224fe,,,,,,,,,3777,-164,44,1,0,0,response7disk,,1,4,-12,1,0,0,rectangle,4,-12,1,0,0,4,-12,1,0,0,1,110,270,143,1,,,,,,,,
,,,,,,,,,,,,,FF,,,,,,,,1.467,,,,,,,,,,,,,,,,,,,,,,60ff4f91b86e87a141a6686e,61036cace5b336bf7d3152d0,2021-07-29_22h06.40.486,Simcolourproject_2stim_asymm_v5,2020.2.10,MacIntel,60,61025ae37ef11b136ea224fe,,,,,,,,,3929,77,59,1,0,0,response1disk,,6,-15,8,1,0,0,rectangle,73,176,1,0,0,-4,5,1,0,0,1,111,271,21,1,,response1disk_3,TRUE,7,7,"[256,205,42,215,7,135,194,99,47,272,222,28,308,3,46,185,2,174,118,79]",1.584,rectangle
,,,,,,,,,,,,,FF,,,,,,,,0.7,,,,,,,,,,,,,,,,,,,,,,60ff4f91b86e87a141a6686e,61036cace5b336bf7d3152d0,2021-07-29_22h06.40.486,Simcolourproject_2stim_asymm_v5,2020.2.10,MacIntel,60,61025ae37ef11b136ea224fe,,,,,,,,,242,75,121,1,0,0,response1disk,,7,7,-9,1,0,0,rectangle,7,-9,1,0,0,7,-9,1,0,0,1,112,272,59,1,,,,,,,,
,,,,,,,,,,,,,FF,,,,,,,,0.5,,,,,,,,,,,,,,,,,,,,,,60ff4f91b86e87a141a6686e,61036cace5b336bf7d3152d0,2021-07-29_22h06.40.486,Simcolourproject_2stim_asymm_v5,2020.2.10,MacIntel,60,61025ae37ef11b136ea224fe,,,,,,,,,3395,41,114,1,0,0,response1disk,,7,7,2,1,0,0,rectangle,7,2,1,0,0,7,2,1,0,0,1,113,273,138,1,,,,,,,,
,,,,,,,,,,,,,FF,,,,,,,,0.651,,,,,,,,,,,,,,,,,,,,,,60ff4f91b86e87a141a6686e,61036cace5b336bf7d3152d0,2021-07-29_22h06.40.486,Simcolourproject_2stim_asymm_v5,2020.2.10,MacIntel,60,61025ae37ef11b136ea224fe,,,,,,,,,784,48,101,1,0,0,response1disk,,7,11,-8,1,0,0,rectangle,11,-8,1,0,0,11,-8,1,0,0,1,114,274,133,1,,,,,,,,
,,,,,,,,,,,,,FF,,,,,,,,0.434,,,,,,,,,,,,,,,,,,,,,,60ff4f91b86e87a141a6686e,61036cace5b336bf7d3152d0,2021-07-29_22h06.40.486,Simcolourproject_2stim_asymm_v5,2020.2.10,MacIntel,60,61025ae37ef11b136ea224fe,,,,,,,,,3688,42,86,1,0,0,response1disk,,7,8,4,1,0,0,rectangle,8,4,1,0,0,8,4,1,0,0,1,115,275,90,1,,,,,,,,
,,,,,,,,,,,,,FF,,,,,,,,0.817,,,,,,,,,,,,,,,,,,,,,,60ff4f91b86e87a141a6686e,61036cace5b336bf7d3152d0,2021-07-29_22h06.40.486,Simcolourproject_2stim_asymm_v5,2020.2.10,MacIntel,60,61025ae37ef11b136ea224fe,,,,,,,,,3707,-83,117,1,0,0,response7disk,,0,-41,-13,1,0,0,rectangle,-41,-13,1,0,0,-41,-13,1,0,0,1,116,276,124,1,,,,,,,,
,,,,,,,,,,,,,FF,,,,,,,,1.068,,,,,,,,,,,,,,,,,,,,,,60ff4f91b86e87a141a6686e,61036cace5b336bf7d3152d0,2021-07-29_22h06.40.486,Simcolourproject_2stim_asymm_v5,2020.2.10,MacIntel,60,61025ae37ef11b136ea224fe,,,,,,,,,3247,-128,-86,1,0,0,response5disk,,2,-14,-12,1,0,0,rectangle,-14,-12,1,0,0,-14,-12,1,0,0,1,117,277,24,1,,,,,,,,
,,,,,,,,,,,,,FF,,,,,,,,0.967,,,,,,,,,,,,,,,,,,,,,,60ff4f91b86e87a141a6686e,61036cace5b336bf7d3152d0,2021-07-29_22h06.40.486,Simcolourproject_2stim_asymm_v5,2020.2.10,MacIntel,60,61025ae37ef11b136ea224fe,,,,,,,,,4106,-110,44,1,0,0,response7disk,,1,-50,6,1,0,0,rectangle,-50,6,1,0,0,-50,6,1,0,0,1,118,278,83,1,,,,,,,,
,,,,,,,,,,,,,FF,,,,,,,,0.984,,,,,,,,,,,,,,,,,,,,,,60ff4f91b86e87a141a6686e,61036cace5b336bf7d3152d0,2021-07-29_22h06.40.486,Simcolourproject_2stim_asymm_v5,2020.2.10,MacIntel,60,61025ae37ef11b136ea224fe,,,,,,,,,2981,82,126,1,0,0,response1disk,,7,8,-4,1,0,0,rectangle,8,-4,1,0,0,8,-4,1,0,0,1,119,279,10,1,,,,,,,,
,,,,,,,,,,,,,FF,,,,,,,,1.067,,,,,,,,,,,,,,,,,,,,,,60ff4f91b86e87a141a6686e,61036cace5b336bf7d3152d0,2021-07-29_22h06.40.486,Simcolourproject_2stim_asymm_v5,2020.2.10,MacIntel,60,61025ae37ef11b136ea224fe,,,,,,,,,906,48,110,1,0,0,response1disk,,7,4,5,1,0,0,rectangle,4,5,1,0,0,4,5,1,0,0,1,120,280,98,1,,,,,,,,
,,,,,,,,,,,,,FF,,,,,,,,1.718,,,,,,,,,,,,,,,,,,,,,,60ff4f91b86e87a141a6686e,61036cace5b336bf7d3152d0,2021-07-29_22h06.40.486,Simcolourproject_2stim_asymm_v5,2020.2.10,MacIntel,60,61025ae37ef11b136ea224fe,,,,,,,,,3400,71,-60,1,0,0,response3disk,,5,-12,0,1,0,0,rectangle,-12,0,1,0,0,-12,0,1,0,0,1,121,281,28,1,,,,,,,,
,,,,,,,,,,,,,FF,,,,,,,,0.567,,,,,,,,,,,,,,,,,,,,,,60ff4f91b86e87a141a6686e,61036cace5b336bf7d3152d0,2021-07-29_22h06.40.486,Simcolourproject_2stim_asymm_v5,2020.2.10,MacIntel,60,61025ae37ef11b136ea224fe,,,,,,,,,344,37,93,1,0,0,response1disk,,7,5,23,1,0,0,rectangle,5,23,1,0,0,5,23,1,0,0,1,122,282,137,1,,,,,,,,
,,,,,,,,,,,,,FF,,,,,,,,0.533,,,,,,,,,,,,,,,,,,,,,,60ff4f91b86e87a141a6686e,61036cace5b336bf7d3152d0,2021-07-29_22h06.40.486,Simcolourproject_2stim_asymm_v5,2020.2.10,MacIntel,60,61025ae37ef11b136ea224fe,,,,,,,,,4130,65,118,1,0,0,response1disk,,7,21,3,1,0,0,rectangle,21,3,1,0,0,21,3,1,0,0,1,123,283,77,1,,,,,,,,
,,,,,,,,,,,,,FF,,,,,,,,0.567,,,,,,,,,,,,,,,,,,,,,,60ff4f91b86e87a141a6686e,61036cace5b336bf7d3152d0,2021-07-29_22h06.40.486,Simcolourproject_2stim_asymm_v5,2020.2.10,MacIntel,60,61025ae37ef11b136ea224fe,,,,,,,,,2059,71,110,1,0,0,response1disk,,7,42,17,1,0,0,rectangle,42,17,1,0,0,42,17,1,0,0,1,124,284,11,1,,,,,,,,
,,,,,,,,,,,,,FF,,,,,,,,0.617,,,,,,,,,,,,,,,,,,,,,,60ff4f91b86e87a141a6686e,61036cace5b336bf7d3152d0,2021-07-29_22h06.40.486,Simcolourproject_2stim_asymm_v5,2020.2.10,MacIntel,60,61025ae37ef11b136ea224fe,,,,,,,,,3176,58,124,1,0,0,response1disk,,7,-39,6,1,0,0,rectangle,-39,6,1,0,0,-39,6,1,0,0,1,125,285,12,1,,,,,,,,
,,,,,,,,,,,,,FF,,,,,,,,0.517,,,,,,,,,,,,,,,,,,,,,,60ff4f91b86e87a141a6686e,61036cace5b336bf7d3152d0,2021-07-29_22h06.40.486,Simcolourproject_2stim_asymm_v5,2020.2.10,MacIntel,60,61025ae37ef11b136ea224fe,,,,,,,,,3733,48,83,1,0,0,response1disk,,7,8,-2,1,0,0,rectangle,8,-2,1,0,0,8,-2,1,0,0,1,126,286,45,1,,,,,,,,
,,,,,,,,,,,,,FF,,,,,,,,0.584,,,,,,,,,,,,,,,,,,,,,,60ff4f91b86e87a141a6686e,61036cace5b336bf7d3152d0,2021-07-29_22h06.40.486,Simcolourproject_2stim_asymm_v5,2020.2.10,MacIntel,60,61025ae37ef11b136ea224fe,,,,,,,,,1799,41,81,1,0,0,response1disk,,7,-19,-22,1,0,0,rectangle,-19,-22,1,0,0,-19,-22,1,0,0,1,127,287,119,1,,,,,,,,
,,,,,,,,,,,,,FF,,,,,,,,0.385,,,,,,,,,,,,,,,,,,,,,,60ff4f91b86e87a141a6686e,61036cace5b336bf7d3152d0,2021-07-29_22h06.40.486,Simcolourproject_2stim_asymm_v5,2020.2.10,MacIntel,60,61025ae37ef11b136ea224fe,,,,,,,,,3653,65,100,1,0,0,response1disk,,7,38,21,1,0,0,rectangle,38,21,1,0,0,38,21,1,0,0,1,128,288,62,1,,,,,,,,
,,,,,,,,,,,,,FF,,,,,,,,0.333,,,,,,,,,,,,,,,,,,,,,,60ff4f91b86e87a141a6686e,61036cace5b336bf7d3152d0,2021-07-29_22h06.40.486,Simcolourproject_2stim_asymm_v5,2020.2.10,MacIntel,60,61025ae37ef11b136ea224fe,,,,,,,,,3031,55,109,1,0,0,response1disk,,7,-3,-20,1,0,0,rectangle,-3,-20,1,0,0,-3,-20,1,0,0,1,129,289,130,1,,,,,,,,
,,,,,,,,,,,,,FF,,,,,,,,1.502,,,,,,,,,,,,,,,,,,,,,,60ff4f91b86e87a141a6686e,61036cace5b336bf7d3152d0,2021-07-29_22h06.40.486,Simcolourproject_2stim_asymm_v5,2020.2.10,MacIntel,60,61025ae37ef11b136ea224fe,,,,,,,,,279,-66,-197,1,0,0,response5disk,,3,0,-15,1,0,0,rectangle,0,-15,1,0,0,0,-15,1,0,0,1,130,290,61,1,,,,,,,,
,,,,,,,,,,,,,FF,,,,,,,,0.566,,,,,,,,,,,,,,,,,,,,,,60ff4f91b86e87a141a6686e,61036cace5b336bf7d3152d0,2021-07-29_22h06.40.486,Simcolourproject_2stim_asymm_v5,2020.2.10,MacIntel,60,61025ae37ef11b136ea224fe,,,,,,,,,324,38,107,1,0,0,response1disk,,7,12,21,1,0,0,rectangle,12,21,1,0,0,12,21,1,0,0,1,131,291,125,1,,,,,,,,
,,,,,,,,,,,,,FF,,,,,,,,0.518,,,,,,,,,,,,,,,,,,,,,,60ff4f91b86e87a141a6686e,61036cace5b336bf7d3152d0,2021-07-29_22h06.40.486,Simcolourproject_2stim_asymm_v5,2020.2.10,MacIntel,60,61025ae37ef11b136ea224fe,,,,,,,,,1314,54,88,1,0,0,response1disk,,7,9,13,1,0,0,rectangle,9,13,1,0,0,9,13,1,0,0,1,132,292,108,1,,,,,,,,
,,,,,,,,,,,,,FF,,,,,,,,0.701,,,,,,,,,,,,,,,,,,,,,,60ff4f91b86e87a141a6686e,61036cace5b336bf7d3152d0,2021-07-29_22h06.40.486,Simcolourproject_2stim_asymm_v5,2020.2.10,MacIntel,60,61025ae37ef11b136ea224fe,,,,,,,,,431,57,81,1,0,0,response1disk,,7,26,10,1,0,0,rectangle,26,10,1,0,0,26,10,1,0,0,1,133,293,3,1,,,,,,,,
,,,,,,,,,,,,,FF,,,,,,,,0.467,,,,,,,,,,,,,,,,,,,,,,60ff4f91b86e87a141a6686e,61036cace5b336bf7d3152d0,2021-07-29_22h06.40.486,Simcolourproject_2stim_asymm_v5,2020.2.10,MacIntel,60,61025ae37ef11b136ea224fe,,,,,,,,,964,54,67,1,0,0,response1disk,,7,7,2,1,0,0,rectangle,7,2,1,0,0,7,2,1,0,0,1,134,294,23,1,,,,,,,,
,,,,,,,,,,,,,FF,,,,,,,,0.584,,,,,,,,,,,,,,,,,,,,,,60ff4f91b86e87a141a6686e,61036cace5b336bf7d3152d0,2021-07-29_22h06.40.486,Simcolourproject_2stim_asymm_v5,2020.2.10,MacIntel,60,61025ae37ef11b136ea224fe,,,,,,,,,3529,51,90,1,0,0,response1disk,,7,19,19,1,0,0,rectangle,19,19,1,0,0,19,19,1,0,0,1,135,295,68,1,,,,,,,,
,,,,,,,,,,,,,FF,,,,,,,,0.316,,,,,,,,,,,,,,,,,,,,,,60ff4f91b86e87a141a6686e,61036cace5b336bf7d3152d0,2021-07-29_22h06.40.486,Simcolourproject_2stim_asymm_v5,2020.2.10,MacIntel,60,61025ae37ef11b136ea224fe,,,,,,,,,1797,50,102,1,0,0,response1disk,,7,24,1,1,0,0,rectangle,24,1,1,0,0,24,1,1,0,0,1,136,296,135,1,,,,,,,,
,,,,,,,,,,,,,FF,,,,,,,,0.417,,,,,,,,,,,,,,,,,,,,,,60ff4f91b86e87a141a6686e,61036cace5b336bf7d3152d0,2021-07-29_22h06.40.486,Simcolourproject_2stim_asymm_v5,2020.2.10,MacIntel,60,61025ae37ef11b136ea224fe,,,,,,,,,2051,49,164,1,0,0,response1disk,,7,1,-1,1,0,0,rectangle,1,-1,1,0,0,1,-1,1,0,0,1,137,297,76,1,,,,,,,,
,,,,,,,,,,,,,FF,,,,,,,,0.65,,,,,,,,,,,,,,,,,,,,,,60ff4f91b86e87a141a6686e,61036cace5b336bf7d3152d0,2021-07-29_22h06.40.486,Simcolourproject_2stim_asymm_v5,2020.2.10,MacIntel,60,61025ae37ef11b136ea224fe,,,,,,,,,821,83,109,1,0,0,response1disk,,7,10,-8,1,0,0,rectangle,10,-8,1,0,0,10,-8,1,0,0,1,138,298,123,1,,,,,,,,
,,,,,,,,,,,,,FF,,,,,,,,0.533,,,,,,,,,,,,,,,,,,,,,,60ff4f91b86e87a141a6686e,61036cace5b336bf7d3152d0,2021-07-29_22h06.40.486,Simcolourproject_2stim_asymm_v5,2020.2.10,MacIntel,60,61025ae37ef11b136ea224fe,,,,,,,,,1281,36,80,1,0,0,response1disk,,7,4,-15,1,0,0,rectangle,4,-15,1,0,0,4,-15,1,0,0,1,139,299,111,1,,,,,,,,
