key_resp.keys,key_resp.rt,key_resp_14.keys,key_resp_14.rt,key_resp_15.keys,key_resp_15.rt,key_resp_17.keys,key_resp_17.rt,key_resp_9.keys,key_resp_9.rt,key_resp_10.keys,key_resp_10.rt,practice_comparison,Ecc,mouse_5.x,mouse_5.y,mouse_5.leftButton,mouse_5.midButton,mouse_5.rightButton,mouse_5.clicked_name,pracsimilarity,response_time,mouse_10.x,mouse_10.y,mouse_10.leftButton,mouse_10.midButton,mouse_10.rightButton,mouse_10.clicked_name,mouse_7.x,mouse_7.y,mouse_7.leftButton,mouse_7.midButton,mouse_7.rightButton,mouse_6.x,mouse_6.y,mouse_6.leftButton,mouse_6.midButton,mouse_6.rightButton,duringprac.thisRepN,duringprac.thisTrialN,duringprac.thisN,duringprac.thisIndex,duringprac.ran,participant,session,date,expName,psychopyVersion,OS,frameRate,study_id,mouse_7.clicked_name,catchpracsimilarity,catch_response_time,catchnumberprac,catchtrialorderprac,mouse_6.clicked_name,key_resp_22.keys,key_resp_22.rt,realcomparison,mouse.x,mouse.y,mouse.leftButton,mouse.midButton,mouse.rightButton,mouse.clicked_name,Colour2,similarity,mouse_2.x,mouse_2.y,mouse_2.leftButton,mouse_2.midButton,mouse_2.rightButton,mouse_2.clicked_name,mouse_3.x,mouse_3.y,mouse_3.leftButton,mouse_3.midButton,mouse_3.rightButton,mouse_11.x,mouse_11.y,mouse_11.leftButton,mouse_11.midButton,mouse_11.rightButton,trials_2.thisRepN,trials_2.thisTrialN,trials_2.thisN,trials_2.thisIndex,trials_2.ran,Colour1,mouse_3.clicked_name,catchornah,catchsimilarity,catchnumber,catchtrialorder,catchRT,mouse_11.clicked_name
space,1.282,space,13.1645,space,29.597,space,10.2186,space,2.0332,space,5.3606,73,FF,-30.046875,-86.5390625,1,0,0,response5disk_5,3,2.0498,-2.19921875,6.375,1,0,0,rectangle_8,-2.19921875,6.375,1,0,0,-2.19921875,6.375,1,0,0,0,0,0,5,1,60ff24bf3e0082c513062186,61036f3222b2f12b331285d9,2021-07-29_20h17.34.327,Simcolourproject_2stim_asymm_v5,2020.2.10,MacIntel,60,61025ae37ef11b136ea224fe,,,,,,,,,,,,,,,,,,,,,,,,,,,,,,,,,,,,,,,,,,,,,,
,,,,,,,,,,,,70,FF,-57.9609375,-42.75390625,1,0,0,response5disk_5,2,1.2834,-3.328125,-10.9375,1,0,0,rectangle_8,-78.3671875,-41.95703125,1,0,0,-9.80859375,-10.57421875,1,0,0,0,1,1,3,1,60ff24bf3e0082c513062186,61036f3222b2f12b331285d9,2021-07-29_20h17.34.327,Simcolourproject_2stim_asymm_v5,2020.2.10,MacIntel,60,61025ae37ef11b136ea224fe,response5disk_7,2,3.3,2,"[2,5]",rectangle_4,,,,,,,,,,,,,,,,,,,,,,,,,,,,,,,,,,,,,,,,
,,,,,,,,,,,,117,PF,-33.65234375,44.70703125,1,0,0,response7disk_5,0,1.1324,0.13671875,-9.53125,1,0,0,rectangle_8,0.13671875,-9.53125,1,0,0,0.13671875,-9.53125,1,0,0,0,2,2,2,1,60ff24bf3e0082c513062186,61036f3222b2f12b331285d9,2021-07-29_20h17.34.327,Simcolourproject_2stim_asymm_v5,2020.2.10,MacIntel,60,61025ae37ef11b136ea224fe,,,,,,,,,,,,,,,,,,,,,,,,,,,,,,,,,,,,,,,,,,,,,,
,,,,,,,,,,,,86,PF,102.3945313,54.1328125,1,0,0,response1disk_5,6,1.0836,6.46484375,4.81640625,1,0,0,rectangle_8,6.46484375,4.81640625,1,0,0,6.46484375,4.81640625,1,0,0,0,3,3,6,1,60ff24bf3e0082c513062186,61036f3222b2f12b331285d9,2021-07-29_20h17.34.327,Simcolourproject_2stim_asymm_v5,2020.2.10,MacIntel,60,61025ae37ef11b136ea224fe,,,,,,,,,,,,,,,,,,,,,,,,,,,,,,,,,,,,,,,,,,,,,,
,,,,,,,,,,,,14,FF,-70.28125,-33.37109375,1,0,0,response5disk_5,2,1.4505,-4.93359375,-17.5390625,1,0,0,rectangle_8,-83.09375,-51.0859375,1,0,0,-16.1640625,-12.02734375,1,0,0,0,4,4,0,1,60ff24bf3e0082c513062186,61036f3222b2f12b331285d9,2021-07-29_20h17.34.327,Simcolourproject_2stim_asymm_v5,2020.2.10,MacIntel,60,61025ae37ef11b136ea224fe,response5disk_7,2,2.1333,2,"[2,5]",rectangle_4,,,,,,,,,,,,,,,,,,,,,,,,,,,,,,,,,,,,,,,,
,,,,,,,,,,,,53,PF,88.15625,-44.12109375,1,0,0,response3disk_5,5,1.0349,-1.01953125,1.65234375,1,0,0,rectangle_8,-1.01953125,1.65234375,1,0,0,-1.01953125,1.65234375,1,0,0,0,5,5,1,1,60ff24bf3e0082c513062186,61036f3222b2f12b331285d9,2021-07-29_20h17.34.327,Simcolourproject_2stim_asymm_v5,2020.2.10,MacIntel,60,61025ae37ef11b136ea224fe,,,,,,,,,,,,,,,,,,,,,,,,,,,,,,,,,,,,,,,,,,,,,,
,,,,,,,,,,,,92,PF,-56.43359375,39.23828125,1,0,0,response7disk_5,1,1.1004,3.3671875,6.39453125,1,0,0,rectangle_8,3.3671875,6.39453125,1,0,0,3.3671875,6.39453125,1,0,0,0,6,6,4,1,60ff24bf3e0082c513062186,61036f3222b2f12b331285d9,2021-07-29_20h17.34.327,Simcolourproject_2stim_asymm_v5,2020.2.10,MacIntel,60,61025ae37ef11b136ea224fe,,,,,,,,,,,,,,,,,,,,,,,,,,,,,,,,,,,,,,,,,,,,,,
,,,,,,,,,,,,,FF,,,,,,,,1.2497,,,,,,,,,,,,,,,,,,,,,,60ff24bf3e0082c513062186,61036f3222b2f12b331285d9,2021-07-29_20h17.34.327,Simcolourproject_2stim_asymm_v5,2020.2.10,MacIntel,60,61025ae37ef11b136ea224fe,,,,,,,space,3.404,1743,48.6328125,90.14453125,1,0,0,response1disk,,7,0.56640625,-8.40625,1,0,0,rectangle,0.56640625,-8.40625,1,0,0,0.56640625,-8.40625,1,0,0,0,0,0,71,1,,,,,,,,
,,,,,,,,,,,,,FF,,,,,,,,1.0658,,,,,,,,,,,,,,,,,,,,,,60ff24bf3e0082c513062186,61036f3222b2f12b331285d9,2021-07-29_20h17.34.327,Simcolourproject_2stim_asymm_v5,2020.2.10,MacIntel,60,61025ae37ef11b136ea224fe,,,,,,,,,2981,-52.53125,-82.8203125,1,0,0,response5disk,,3,0.4140625,3.44140625,1,0,0,rectangle,0.4140625,3.44140625,1,0,0,0.4140625,3.44140625,1,0,0,0,1,1,151,1,,,,,,,,
,,,,,,,,,,,,,FF,,,,,,,,0.8513,,,,,,,,,,,,,,,,,,,,,,60ff24bf3e0082c513062186,61036f3222b2f12b331285d9,2021-07-29_20h17.34.327,Simcolourproject_2stim_asymm_v5,2020.2.10,MacIntel,60,61025ae37ef11b136ea224fe,,,,,,,,,983,86.12109375,-49.43359375,1,0,0,response3disk,,5,6.578125,-5.6875,1,0,0,rectangle,6.578125,-5.6875,1,0,0,6.578125,-5.6875,1,0,0,0,2,2,111,1,,,,,,,,
,,,,,,,,,,,,,FF,,,,,,,,0.8,,,,,,,,,,,,,,,,,,,,,,60ff24bf3e0082c513062186,61036f3222b2f12b331285d9,2021-07-29_20h17.34.327,Simcolourproject_2stim_asymm_v5,2020.2.10,MacIntel,60,61025ae37ef11b136ea224fe,,,,,,,,,3929,-33.14453125,49.16796875,1,0,0,response7disk,,0,-11.3828125,5.671875,1,0,0,rectangle,-11.3828125,5.671875,1,0,0,-11.3828125,5.671875,1,0,0,0,3,3,86,1,,,,,,,,
,,,,,,,,,,,,,FF,,,,,,,,1.1013,,,,,,,,,,,,,,,,,,,,,,60ff24bf3e0082c513062186,61036f3222b2f12b331285d9,2021-07-29_20h17.34.327,Simcolourproject_2stim_asymm_v5,2020.2.10,MacIntel,60,61025ae37ef11b136ea224fe,,,,,,,,,3877,76.3046875,22.82421875,1,0,0,response1disk,,6,14.7734375,3.62109375,1,0,0,rectangle,14.7734375,3.62109375,1,0,0,14.7734375,3.62109375,1,0,0,0,4,4,134,1,,,,,,,,
,,,,,,,,,,,,,FF,,,,,,,,0.901,,,,,,,,,,,,,,,,,,,,,,60ff24bf3e0082c513062186,61036f3222b2f12b331285d9,2021-07-29_20h17.34.327,Simcolourproject_2stim_asymm_v5,2020.2.10,MacIntel,60,61025ae37ef11b136ea224fe,,,,,,,,,4340,53.63671875,32.4609375,1,0,0,response1disk,,6,8.65234375,0.6171875,1,0,0,rectangle,-44.7578125,-67.0625,1,0,0,-5.34375,-4.96875,1,0,0,0,5,5,130,1,,response5disk_3,TRUE,3,3,"[152,67,270,132,278,263,217,168,23,6,233,20,314,283,144,209,196,283,7,155]",1.7185,rectangle
,,,,,,,,,,,,,FF,,,,,,,,2.0503,,,,,,,,,,,,,,,,,,,,,,60ff24bf3e0082c513062186,61036f3222b2f12b331285d9,2021-07-29_20h17.34.327,Simcolourproject_2stim_asymm_v5,2020.2.10,MacIntel,60,61025ae37ef11b136ea224fe,,,,,,,,,268,-37.9921875,-68.75,1,0,0,response5disk,,3,-8.55859375,0.2109375,1,0,0,rectangle,-42.20703125,80.75,1,0,0,-5.35546875,2.12109375,1,0,0,0,6,6,1,1,,response7disk_3,TRUE,0,0,"[152,67,270,132,278,263,217,168,23,6,233,20,314,283,144,209,196,283,7,155]",1.8663,rectangle
,,,,,,,,,,,,,FF,,,,,,,,1.0484,,,,,,,,,,,,,,,,,,,,,,60ff24bf3e0082c513062186,61036f3222b2f12b331285d9,2021-07-29_20h17.34.327,Simcolourproject_2stim_asymm_v5,2020.2.10,MacIntel,60,61025ae37ef11b136ea224fe,,,,,,,,,1313,81.86328125,37.69921875,1,0,0,response1disk,,6,6.4765625,5.09375,1,0,0,rectangle,6.4765625,5.09375,1,0,0,6.4765625,5.09375,1,0,0,0,7,7,152,1,,,,,,,,
,,,,,,,,,,,,,FF,,,,,,,,1.7017,,,,,,,,,,,,,,,,,,,,,,60ff24bf3e0082c513062186,61036f3222b2f12b331285d9,2021-07-29_20h17.34.327,Simcolourproject_2stim_asymm_v5,2020.2.10,MacIntel,60,61025ae37ef11b136ea224fe,,,,,,,,,3959,-31.5546875,-66.671875,1,0,0,response5disk,,3,1.63671875,7.28515625,1,0,0,rectangle,1.63671875,7.28515625,1,0,0,1.63671875,7.28515625,1,0,0,0,8,8,83,1,,,,,,,,
,,,,,,,,,,,,,FF,,,,,,,,1.0666,,,,,,,,,,,,,,,,,,,,,,60ff24bf3e0082c513062186,61036f3222b2f12b331285d9,2021-07-29_20h17.34.327,Simcolourproject_2stim_asymm_v5,2020.2.10,MacIntel,60,61025ae37ef11b136ea224fe,,,,,,,,,1038,81.21875,-41.5234375,1,0,0,response3disk,,5,-4.80078125,-9.2421875,1,0,0,rectangle,-4.80078125,-9.2421875,1,0,0,-4.80078125,-9.2421875,1,0,0,0,9,9,120,1,,,,,,,,
,,,,,,,,,,,,,FF,,,,,,,,1.365,,,,,,,,,,,,,,,,,,,,,,60ff24bf3e0082c513062186,61036f3222b2f12b331285d9,2021-07-29_20h17.34.327,Simcolourproject_2stim_asymm_v5,2020.2.10,MacIntel,60,61025ae37ef11b136ea224fe,,,,,,,,,1725,-58.58203125,-47.546875,1,0,0,response5disk,,2,21.69921875,13.58984375,1,0,0,rectangle,21.69921875,13.58984375,1,0,0,21.69921875,13.58984375,1,0,0,0,10,10,32,1,,,,,,,,
,,,,,,,,,,,,,FF,,,,,,,,1.6008,,,,,,,,,,,,,,,,,,,,,,60ff24bf3e0082c513062186,61036f3222b2f12b331285d9,2021-07-29_20h17.34.327,Simcolourproject_2stim_asymm_v5,2020.2.10,MacIntel,60,61025ae37ef11b136ea224fe,,,,,,,,,4274,-75.52734375,-39.25390625,1,0,0,response5disk,,2,-4.10546875,-7.8125,1,0,0,rectangle,-4.10546875,-7.8125,1,0,0,-4.10546875,-7.8125,1,0,0,0,11,11,100,1,,,,,,,,
,,,,,,,,,,,,,FF,,,,,,,,1.0669,,,,,,,,,,,,,,,,,,,,,,60ff24bf3e0082c513062186,61036f3222b2f12b331285d9,2021-07-29_20h17.34.327,Simcolourproject_2stim_asymm_v5,2020.2.10,MacIntel,60,61025ae37ef11b136ea224fe,,,,,,,,,419,-63.26171875,35.765625,1,0,0,response7disk,,1,-1.84375,6.54296875,1,0,0,rectangle,-1.84375,6.54296875,1,0,0,-1.84375,6.54296875,1,0,0,0,12,12,144,1,,,,,,,,
,,,,,,,,,,,,,FF,,,,,,,,0.9159,,,,,,,,,,,,,,,,,,,,,,60ff24bf3e0082c513062186,61036f3222b2f12b331285d9,2021-07-29_20h17.34.327,Simcolourproject_2stim_asymm_v5,2020.2.10,MacIntel,60,61025ae37ef11b136ea224fe,,,,,,,,,431,91.45703125,34.5546875,1,0,0,response1disk,,6,17.70703125,-3.04296875,1,0,0,rectangle,17.70703125,-3.04296875,1,0,0,17.70703125,-3.04296875,1,0,0,0,13,13,28,1,,,,,,,,
,,,,,,,,,,,,,FF,,,,,,,,0.9647,,,,,,,,,,,,,,,,,,,,,,60ff24bf3e0082c513062186,61036f3222b2f12b331285d9,2021-07-29_20h17.34.327,Simcolourproject_2stim_asymm_v5,2020.2.10,MacIntel,60,61025ae37ef11b136ea224fe,,,,,,,,,2340,-79.54296875,-46.89453125,1,0,0,response5disk,,2,-6.25390625,-9.6484375,1,0,0,rectangle,-6.25390625,-9.6484375,1,0,0,-6.25390625,-9.6484375,1,0,0,0,14,14,97,1,,,,,,,,
,,,,,,,,,,,,,FF,,,,,,,,0.8337,,,,,,,,,,,,,,,,,,,,,,60ff24bf3e0082c513062186,61036f3222b2f12b331285d9,2021-07-29_20h17.34.327,Simcolourproject_2stim_asymm_v5,2020.2.10,MacIntel,60,61025ae37ef11b136ea224fe,,,,,,,,,182,-26.0390625,37.4140625,1,0,0,response7disk,,0,-6.28125,2.203125,1,0,0,rectangle,-6.28125,2.203125,1,0,0,-6.28125,2.203125,1,0,0,0,15,15,10,1,,,,,,,,
,,,,,,,,,,,,,FF,,,,,,,,1.0174,,,,,,,,,,,,,,,,,,,,,,60ff24bf3e0082c513062186,61036f3222b2f12b331285d9,2021-07-29_20h17.34.327,Simcolourproject_2stim_asymm_v5,2020.2.10,MacIntel,60,61025ae37ef11b136ea224fe,,,,,,,,,2613,78.5546875,-39.171875,1,0,0,response3disk,,5,12.36328125,-4.70703125,1,0,0,rectangle,12.36328125,-4.70703125,1,0,0,12.36328125,-4.70703125,1,0,0,0,16,16,158,1,,,,,,,,
,,,,,,,,,,,,,FF,,,,,,,,0.982,,,,,,,,,,,,,,,,,,,,,,60ff24bf3e0082c513062186,61036f3222b2f12b331285d9,2021-07-29_20h17.34.327,Simcolourproject_2stim_asymm_v5,2020.2.10,MacIntel,60,61025ae37ef11b136ea224fe,,,,,,,,,203,-53.546875,-26.66015625,1,0,0,response5disk,,2,-8.30859375,-5.89453125,1,0,0,rectangle,-8.30859375,-5.89453125,1,0,0,-8.30859375,-5.89453125,1,0,0,0,17,17,119,1,,,,,,,,
,,,,,,,,,,,,,FF,,,,,,,,1.017,,,,,,,,,,,,,,,,,,,,,,60ff24bf3e0082c513062186,61036f3222b2f12b331285d9,2021-07-29_20h17.34.327,Simcolourproject_2stim_asymm_v5,2020.2.10,MacIntel,60,61025ae37ef11b136ea224fe,,,,,,,,,2759,-25.671875,39.109375,1,0,0,response7disk,,0,-3.71484375,4.828125,1,0,0,rectangle,-3.71484375,4.828125,1,0,0,-3.71484375,4.828125,1,0,0,0,18,18,16,1,,,,,,,,
,,,,,,,,,,,,,FF,,,,,,,,1.1003,,,,,,,,,,,,,,,,,,,,,,60ff24bf3e0082c513062186,61036f3222b2f12b331285d9,2021-07-29_20h17.34.327,Simcolourproject_2stim_asymm_v5,2020.2.10,MacIntel,60,61025ae37ef11b136ea224fe,,,,,,,,,3604,87.9296875,-35.06640625,1,0,0,response3disk,,5,24.24609375,-7.91796875,1,0,0,rectangle,102.7851563,31.921875,1,0,0,-3.7578125,-1.90234375,1,0,0,0,19,19,105,1,,response1disk_3,TRUE,6,6,"[152,67,270,132,278,263,217,168,23,6,233,20,314,283,144,209,196,283,7,155]",1.7496,rectangle
,,,,,,,,,,,,,FF,,,,,,,,1.3167,,,,,,,,,,,,,,,,,,,,,,60ff24bf3e0082c513062186,61036f3222b2f12b331285d9,2021-07-29_20h17.34.327,Simcolourproject_2stim_asymm_v5,2020.2.10,MacIntel,60,61025ae37ef11b136ea224fe,,,,,,,,,3845,73.30859375,35.9765625,1,0,0,response1disk,,6,17.890625,8.1796875,1,0,0,rectangle,17.890625,8.1796875,1,0,0,17.890625,8.1796875,1,0,0,0,20,20,38,1,,,,,,,,
,,,,,,,,,,,,,FF,,,,,,,,0.8347,,,,,,,,,,,,,,,,,,,,,,60ff24bf3e0082c513062186,61036f3222b2f12b331285d9,2021-07-29_20h17.34.327,Simcolourproject_2stim_asymm_v5,2020.2.10,MacIntel,60,61025ae37ef11b136ea224fe,,,,,,,,,2477,92.7734375,30.375,1,0,0,response1disk,,6,24.7578125,13,1,0,0,rectangle,24.7578125,13,1,0,0,24.7578125,13,1,0,0,0,21,21,90,1,,,,,,,,
,,,,,,,,,,,,,FF,,,,,,,,0.9517,,,,,,,,,,,,,,,,,,,,,,60ff24bf3e0082c513062186,61036f3222b2f12b331285d9,2021-07-29_20h17.34.327,Simcolourproject_2stim_asymm_v5,2020.2.10,MacIntel,60,61025ae37ef11b136ea224fe,,,,,,,,,3789,-57.07421875,-61.30859375,1,0,0,response5disk,,3,-14.80078125,-3.2578125,1,0,0,rectangle,-30.87890625,-65.50390625,1,0,0,-5.46484375,-1.9296875,1,0,0,0,22,22,126,1,,response5disk_3,TRUE,3,3,"[152,67,270,132,278,263,217,168,23,6,233,20,314,283,144,209,196,283,7,155]",1.6169,rectangle
,,,,,,,,,,,,,FF,,,,,,,,0.9484,,,,,,,,,,,,,,,,,,,,,,60ff24bf3e0082c513062186,61036f3222b2f12b331285d9,2021-07-29_20h17.34.327,Simcolourproject_2stim_asymm_v5,2020.2.10,MacIntel,60,61025ae37ef11b136ea224fe,,,,,,,,,2182,41.4296875,32.40625,1,0,0,response1disk,,6,17.8203125,6.4609375,1,0,0,rectangle,17.8203125,6.4609375,1,0,0,17.8203125,6.4609375,1,0,0,0,23,23,75,1,,,,,,,,
,,,,,,,,,,,,,FF,,,,,,,,0.8005,,,,,,,,,,,,,,,,,,,,,,60ff24bf3e0082c513062186,61036f3222b2f12b331285d9,2021-07-29_20h17.34.327,Simcolourproject_2stim_asymm_v5,2020.2.10,MacIntel,60,61025ae37ef11b136ea224fe,,,,,,,,,284,75.05078125,50.06640625,1,0,0,response1disk,,6,10.4375,4,1,0,0,rectangle,10.4375,4,1,0,0,10.4375,4,1,0,0,0,24,24,127,1,,,,,,,,
,,,,,,,,,,,,,FF,,,,,,,,0.7334,,,,,,,,,,,,,,,,,,,,,,60ff24bf3e0082c513062186,61036f3222b2f12b331285d9,2021-07-29_20h17.34.327,Simcolourproject_2stim_asymm_v5,2020.2.10,MacIntel,60,61025ae37ef11b136ea224fe,,,,,,,,,79,25.98828125,54.6640625,1,0,0,response1disk,,7,15.7265625,-6.6640625,1,0,0,rectangle,15.7265625,-6.6640625,1,0,0,15.7265625,-6.6640625,1,0,0,0,25,25,49,1,,,,,,,,
,,,,,,,,,,,,,FF,,,,,,,,1.1167,,,,,,,,,,,,,,,,,,,,,,60ff24bf3e0082c513062186,61036f3222b2f12b331285d9,2021-07-29_20h17.34.327,Simcolourproject_2stim_asymm_v5,2020.2.10,MacIntel,60,61025ae37ef11b136ea224fe,,,,,,,,,2452,-59.4140625,-38.703125,1,0,0,response5disk,,2,20.96875,10.3828125,1,0,0,rectangle,20.96875,10.3828125,1,0,0,20.96875,10.3828125,1,0,0,0,26,26,57,1,,,,,,,,
,,,,,,,,,,,,,FF,,,,,,,,0.9156,,,,,,,,,,,,,,,,,,,,,,60ff24bf3e0082c513062186,61036f3222b2f12b331285d9,2021-07-29_20h17.34.327,Simcolourproject_2stim_asymm_v5,2020.2.10,MacIntel,60,61025ae37ef11b136ea224fe,,,,,,,,,715,-21.36328125,36.23046875,1,0,0,response7disk,,0,-0.80078125,-5.1640625,1,0,0,rectangle,-0.80078125,-5.1640625,1,0,0,-0.80078125,-5.1640625,1,0,0,0,27,27,8,1,,,,,,,,
,,,,,,,,,,,,,FF,,,,,,,,0.8344,,,,,,,,,,,,,,,,,,,,,,60ff24bf3e0082c513062186,61036f3222b2f12b331285d9,2021-07-29_20h17.34.327,Simcolourproject_2stim_asymm_v5,2020.2.10,MacIntel,60,61025ae37ef11b136ea224fe,,,,,,,,,1730,-17.61328125,33.46484375,1,0,0,response7disk,,0,-3.46875,5.95703125,1,0,0,rectangle,-3.46875,5.95703125,1,0,0,-3.46875,5.95703125,1,0,0,0,28,28,149,1,,,,,,,,
,,,,,,,,,,,,,FF,,,,,,,,1.0336,,,,,,,,,,,,,,,,,,,,,,60ff24bf3e0082c513062186,61036f3222b2f12b331285d9,2021-07-29_20h17.34.327,Simcolourproject_2stim_asymm_v5,2020.2.10,MacIntel,60,61025ae37ef11b136ea224fe,,,,,,,,,2620,41.8984375,-57.97265625,1,0,0,response3disk,,4,20.85546875,3.6953125,1,0,0,rectangle,20.85546875,3.6953125,1,0,0,20.85546875,3.6953125,1,0,0,0,29,29,36,1,,,,,,,,
,,,,,,,,,,,,,FF,,,,,,,,1.2816,,,,,,,,,,,,,,,,,,,,,,60ff24bf3e0082c513062186,61036f3222b2f12b331285d9,2021-07-29_20h17.34.327,Simcolourproject_2stim_asymm_v5,2020.2.10,MacIntel,60,61025ae37ef11b136ea224fe,,,,,,,,,901,35.59375,-49.5,1,0,0,response3disk,,4,20.98828125,-14.515625,1,0,0,rectangle,20.98828125,-14.515625,1,0,0,20.98828125,-14.515625,1,0,0,0,30,30,156,1,,,,,,,,
,,,,,,,,,,,,,FF,,,,,,,,0.7656,,,,,,,,,,,,,,,,,,,,,,60ff24bf3e0082c513062186,61036f3222b2f12b331285d9,2021-07-29_20h17.34.327,Simcolourproject_2stim_asymm_v5,2020.2.10,MacIntel,60,61025ae37ef11b136ea224fe,,,,,,,,,2002,-75.07421875,37.62890625,1,0,0,response7disk,,1,-3.8984375,7.87890625,1,0,0,rectangle,-3.8984375,7.87890625,1,0,0,-3.8984375,7.87890625,1,0,0,0,31,31,55,1,,,,,,,,
,,,,,,,,,,,,,FF,,,,,,,,0.7485,,,,,,,,,,,,,,,,,,,,,,60ff24bf3e0082c513062186,61036f3222b2f12b331285d9,2021-07-29_20h17.34.327,Simcolourproject_2stim_asymm_v5,2020.2.10,MacIntel,60,61025ae37ef11b136ea224fe,,,,,,,,,3146,43.26953125,65.23828125,1,0,0,response1disk,,7,20.18359375,0.55859375,1,0,0,rectangle,20.18359375,0.55859375,1,0,0,20.18359375,0.55859375,1,0,0,0,32,32,58,1,,,,,,,,
,,,,,,,,,,,,,FF,,,,,,,,1.1844,,,,,,,,,,,,,,,,,,,,,,60ff24bf3e0082c513062186,61036f3222b2f12b331285d9,2021-07-29_20h17.34.327,Simcolourproject_2stim_asymm_v5,2020.2.10,MacIntel,60,61025ae37ef11b136ea224fe,,,,,,,,,486,-72.46484375,-36.24609375,1,0,0,response5disk,,2,-11.359375,-12.5625,1,0,0,rectangle,-11.359375,-12.5625,1,0,0,-11.359375,-12.5625,1,0,0,0,33,33,139,1,,,,,,,,
,,,,,,,,,,,,,FF,,,,,,,,1.1164,,,,,,,,,,,,,,,,,,,,,,60ff24bf3e0082c513062186,61036f3222b2f12b331285d9,2021-07-29_20h17.34.327,Simcolourproject_2stim_asymm_v5,2020.2.10,MacIntel,60,61025ae37ef11b136ea224fe,,,,,,,,,3087,-45.55078125,-104.0976563,1,0,0,response5disk,,3,-9.6328125,-15.32421875,1,0,0,rectangle,-9.6328125,-15.32421875,1,0,0,-9.6328125,-15.32421875,1,0,0,0,34,34,63,1,,,,,,,,
,,,,,,,,,,,,,FF,,,,,,,,0.8992,,,,,,,,,,,,,,,,,,,,,,60ff24bf3e0082c513062186,61036f3222b2f12b331285d9,2021-07-29_20h17.34.327,Simcolourproject_2stim_asymm_v5,2020.2.10,MacIntel,60,61025ae37ef11b136ea224fe,,,,,,,,,418,-49.66796875,25.984375,1,0,0,response7disk,,1,-22.82421875,9.90625,1,0,0,rectangle,-22.82421875,9.90625,1,0,0,-22.82421875,9.90625,1,0,0,0,35,35,73,1,,,,,,,,
,,,,,,,,,,,,,FF,,,,,,,,0.8322,,,,,,,,,,,,,,,,,,,,,,60ff24bf3e0082c513062186,61036f3222b2f12b331285d9,2021-07-29_20h17.34.327,Simcolourproject_2stim_asymm_v5,2020.2.10,MacIntel,60,61025ae37ef11b136ea224fe,,,,,,,,,516,-55.5078125,26.7890625,1,0,0,response7disk,,1,-18.79296875,1.875,1,0,0,rectangle,-18.79296875,1.875,1,0,0,-18.79296875,1.875,1,0,0,0,36,36,131,1,,,,,,,,
,,,,,,,,,,,,,FF,,,,,,,,1.0844,,,,,,,,,,,,,,,,,,,,,,60ff24bf3e0082c513062186,61036f3222b2f12b331285d9,2021-07-29_20h17.34.327,Simcolourproject_2stim_asymm_v5,2020.2.10,MacIntel,60,61025ae37ef11b136ea224fe,,,,,,,,,1959,51.53515625,-32.7734375,1,0,0,response3disk,,5,2.84765625,7.44140625,1,0,0,rectangle,2.84765625,7.44140625,1,0,0,2.84765625,7.44140625,1,0,0,0,37,37,157,1,,,,,,,,
,,,,,,,,,,,,,FF,,,,,,,,0.6994,,,,,,,,,,,,,,,,,,,,,,60ff24bf3e0082c513062186,61036f3222b2f12b331285d9,2021-07-29_20h17.34.327,Simcolourproject_2stim_asymm_v5,2020.2.10,MacIntel,60,61025ae37ef11b136ea224fe,,,,,,,,,1493,-50.0703125,33.04296875,1,0,0,response7disk,,1,-11.21875,4.640625,1,0,0,rectangle,-11.21875,4.640625,1,0,0,-11.21875,4.640625,1,0,0,0,38,38,30,1,,,,,,,,
,,,,,,,,,,,,,FF,,,,,,,,0.8485,,,,,,,,,,,,,,,,,,,,,,60ff24bf3e0082c513062186,61036f3222b2f12b331285d9,2021-07-29_20h17.34.327,Simcolourproject_2stim_asymm_v5,2020.2.10,MacIntel,60,61025ae37ef11b136ea224fe,,,,,,,,,2056,-58.28515625,29.234375,1,0,0,response7disk,,1,-5.92578125,2.078125,1,0,0,rectangle,-5.92578125,2.078125,1,0,0,-5.92578125,2.078125,1,0,0,0,39,39,103,1,,,,,,,,
,,,,,,,,,,,,,FF,,,,,,,,0.716,,,,,,,,,,,,,,,,,,,,,,60ff24bf3e0082c513062186,61036f3222b2f12b331285d9,2021-07-29_20h17.34.327,Simcolourproject_2stim_asymm_v5,2020.2.10,MacIntel,60,61025ae37ef11b136ea224fe,,,,,,,,,3361,-55.375,29.14453125,1,0,0,response7disk,,1,-16.75,-3.8984375,1,0,0,rectangle,-16.75,-3.8984375,1,0,0,-16.75,-3.8984375,1,0,0,0,40,40,61,1,,,,,,,,
,,,,,,,,,,,,,FF,,,,,,,,0.6668,,,,,,,,,,,,,,,,,,,,,,60ff24bf3e0082c513062186,61036f3222b2f12b331285d9,2021-07-29_20h17.34.327,Simcolourproject_2stim_asymm_v5,2020.2.10,MacIntel,60,61025ae37ef11b136ea224fe,,,,,,,,,2384,-49.78125,27.53515625,1,0,0,response7disk,,1,-21.21484375,-7.02734375,1,0,0,rectangle,-21.21484375,-7.02734375,1,0,0,-21.21484375,-7.02734375,1,0,0,0,41,41,117,1,,,,,,,,
,,,,,,,,,,,,,FF,,,,,,,,0.8848,,,,,,,,,,,,,,,,,,,,,,60ff24bf3e0082c513062186,61036f3222b2f12b331285d9,2021-07-29_20h17.34.327,Simcolourproject_2stim_asymm_v5,2020.2.10,MacIntel,60,61025ae37ef11b136ea224fe,,,,,,,,,1445,27.3515625,49.23046875,1,0,0,response1disk,,7,17.8359375,2.46484375,1,0,0,rectangle,17.8359375,2.46484375,1,0,0,17.8359375,2.46484375,1,0,0,0,42,42,40,1,,,,,,,,
,,,,,,,,,,,,,FF,,,,,,,,0.867,,,,,,,,,,,,,,,,,,,,,,60ff24bf3e0082c513062186,61036f3222b2f12b331285d9,2021-07-29_20h17.34.327,Simcolourproject_2stim_asymm_v5,2020.2.10,MacIntel,60,61025ae37ef11b136ea224fe,,,,,,,,,2885,-23.53515625,45.97265625,1,0,0,response7disk,,0,-15.21875,6.69921875,1,0,0,rectangle,-15.21875,6.69921875,1,0,0,-15.21875,6.69921875,1,0,0,0,43,43,129,1,,,,,,,,
,,,,,,,,,,,,,FF,,,,,,,,0.9002,,,,,,,,,,,,,,,,,,,,,,60ff24bf3e0082c513062186,61036f3222b2f12b331285d9,2021-07-29_20h17.34.327,Simcolourproject_2stim_asymm_v5,2020.2.10,MacIntel,60,61025ae37ef11b136ea224fe,,,,,,,,,2231,76.2109375,23.1796875,1,0,0,response1disk,,6,8.83984375,4.0703125,1,0,0,rectangle,8.83984375,4.0703125,1,0,0,8.83984375,4.0703125,1,0,0,0,44,44,96,1,,,,,,,,
,,,,,,,,,,,,,FF,,,,,,,,1.3211,,,,,,,,,,,,,,,,,,,,,,60ff24bf3e0082c513062186,61036f3222b2f12b331285d9,2021-07-29_20h17.34.327,Simcolourproject_2stim_asymm_v5,2020.2.10,MacIntel,60,61025ae37ef11b136ea224fe,,,,,,,,,3666,-26.77734375,-49.90234375,1,0,0,response5disk,,3,-7.4296875,0.203125,1,0,0,rectangle,-7.4296875,0.203125,1,0,0,-7.4296875,0.203125,1,0,0,0,45,45,150,1,,,,,,,,
,,,,,,,,,,,,,FF,,,,,,,,0.749,,,,,,,,,,,,,,,,,,,,,,60ff24bf3e0082c513062186,61036f3222b2f12b331285d9,2021-07-29_20h17.34.327,Simcolourproject_2stim_asymm_v5,2020.2.10,MacIntel,60,61025ae37ef11b136ea224fe,,,,,,,,,188,70.59765625,23.2578125,1,0,0,response1disk,,6,9.78125,2.2109375,1,0,0,rectangle,9.78125,2.2109375,1,0,0,9.78125,2.2109375,1,0,0,0,46,46,154,1,,,,,,,,
,,,,,,,,,,,,,FF,,,,,,,,0.7846,,,,,,,,,,,,,,,,,,,,,,60ff24bf3e0082c513062186,61036f3222b2f12b331285d9,2021-07-29_20h17.34.327,Simcolourproject_2stim_asymm_v5,2020.2.10,MacIntel,60,61025ae37ef11b136ea224fe,,,,,,,,,3559,23.87890625,34.91015625,1,0,0,response1disk,,7,10.1875,-2.32421875,1,0,0,rectangle,10.1875,-2.32421875,1,0,0,10.1875,-2.32421875,1,0,0,0,47,47,81,1,,,,,,,,
,,,,,,,,,,,,,FF,,,,,,,,0.7338,,,,,,,,,,,,,,,,,,,,,,60ff24bf3e0082c513062186,61036f3222b2f12b331285d9,2021-07-29_20h17.34.327,Simcolourproject_2stim_asymm_v5,2020.2.10,MacIntel,60,61025ae37ef11b136ea224fe,,,,,,,,,2588,-54.97265625,25.58984375,1,0,0,response7disk,,1,-12.80859375,1.7734375,1,0,0,rectangle,-12.80859375,1.7734375,1,0,0,-12.80859375,1.7734375,1,0,0,0,48,48,45,1,,,,,,,,
,,,,,,,,,,,,,FF,,,,,,,,0.7155,,,,,,,,,,,,,,,,,,,,,,60ff24bf3e0082c513062186,61036f3222b2f12b331285d9,2021-07-29_20h17.34.327,Simcolourproject_2stim_asymm_v5,2020.2.10,MacIntel,60,61025ae37ef11b136ea224fe,,,,,,,,,1798,-44.125,27.76171875,1,0,0,response7disk,,1,2.859375,-4.91796875,1,0,0,rectangle,2.859375,-4.91796875,1,0,0,2.859375,-4.91796875,1,0,0,0,49,49,24,1,,,,,,,,
,,,,,,,,,,,,,FF,,,,,,,,0.7658,,,,,,,,,,,,,,,,,,,,,,60ff24bf3e0082c513062186,61036f3222b2f12b331285d9,2021-07-29_20h17.34.327,Simcolourproject_2stim_asymm_v5,2020.2.10,MacIntel,60,61025ae37ef11b136ea224fe,,,,,,,,,3755,-37.796875,-59.4296875,1,0,0,response5disk,,3,-8.9375,-0.3203125,1,0,0,rectangle,-8.9375,-0.3203125,1,0,0,-8.9375,-0.3203125,1,0,0,0,50,50,50,1,,,,,,,,
,,,,,,,,,,,,,FF,,,,,,,,0.7343,,,,,,,,,,,,,,,,,,,,,,60ff24bf3e0082c513062186,61036f3222b2f12b331285d9,2021-07-29_20h17.34.327,Simcolourproject_2stim_asymm_v5,2020.2.10,MacIntel,60,61025ae37ef11b136ea224fe,,,,,,,,,3037,55.31640625,27.60546875,1,0,0,response1disk,,6,-7.50390625,0.58984375,1,0,0,rectangle,-7.50390625,0.58984375,1,0,0,-7.50390625,0.58984375,1,0,0,0,51,51,39,1,,,,,,,,
,,,,,,,,,,,,,FF,,,,,,,,1.6335,,,,,,,,,,,,,,,,,,,,,,60ff24bf3e0082c513062186,61036f3222b2f12b331285d9,2021-07-29_20h17.34.327,Simcolourproject_2stim_asymm_v5,2020.2.10,MacIntel,60,61025ae37ef11b136ea224fe,,,,,,,,,3902,64.90625,-28.84375,1,0,0,response3disk,,5,17.17578125,2.64453125,1,0,0,rectangle,17.17578125,2.64453125,1,0,0,17.17578125,2.64453125,1,0,0,0,52,52,143,1,,,,,,,,
,,,,,,,,,,,,,FF,,,,,,,,1.1325,,,,,,,,,,,,,,,,,,,,,,60ff24bf3e0082c513062186,61036f3222b2f12b331285d9,2021-07-29_20h17.34.327,Simcolourproject_2stim_asymm_v5,2020.2.10,MacIntel,60,61025ae37ef11b136ea224fe,,,,,,,,,4002,62.51953125,31.02734375,1,0,0,response1disk,,6,18.67578125,4.9765625,1,0,0,rectangle,18.67578125,4.9765625,1,0,0,18.67578125,4.9765625,1,0,0,0,53,53,145,1,,,,,,,,
,,,,,,,,,,,,,FF,,,,,,,,0.7484,,,,,,,,,,,,,,,,,,,,,,60ff24bf3e0082c513062186,61036f3222b2f12b331285d9,2021-07-29_20h17.34.327,Simcolourproject_2stim_asymm_v5,2020.2.10,MacIntel,60,61025ae37ef11b136ea224fe,,,,,,,,,2648,-65.4765625,-28.921875,1,0,0,response5disk,,2,5.31640625,0.609375,1,0,0,rectangle,5.31640625,0.609375,1,0,0,5.31640625,0.609375,1,0,0,0,54,54,133,1,,,,,,,,
,,,,,,,,,,,,,FF,,,,,,,,0.6335,,,,,,,,,,,,,,,,,,,,,,60ff24bf3e0082c513062186,61036f3222b2f12b331285d9,2021-07-29_20h17.34.327,Simcolourproject_2stim_asymm_v5,2020.2.10,MacIntel,60,61025ae37ef11b136ea224fe,,,,,,,,,3387,53.30078125,18.265625,1,0,0,response1disk,,6,19.59375,5.52734375,1,0,0,rectangle,19.59375,5.52734375,1,0,0,19.59375,5.52734375,1,0,0,0,55,55,35,1,,,,,,,,
,,,,,,,,,,,,,FF,,,,,,,,0.7347,,,,,,,,,,,,,,,,,,,,,,60ff24bf3e0082c513062186,61036f3222b2f12b331285d9,2021-07-29_20h17.34.327,Simcolourproject_2stim_asymm_v5,2020.2.10,MacIntel,60,61025ae37ef11b136ea224fe,,,,,,,,,1592,-51.27734375,28.58203125,1,0,0,response7disk,,1,-13.16015625,4.73828125,1,0,0,rectangle,-13.16015625,4.73828125,1,0,0,-13.16015625,4.73828125,1,0,0,0,56,56,147,1,,,,,,,,
,,,,,,,,,,,,,FF,,,,,,,,0.9015,,,,,,,,,,,,,,,,,,,,,,60ff24bf3e0082c513062186,61036f3222b2f12b331285d9,2021-07-29_20h17.34.327,Simcolourproject_2stim_asymm_v5,2020.2.10,MacIntel,60,61025ae37ef11b136ea224fe,,,,,,,,,3719,-43.16015625,-40.84375,1,0,0,response5disk,,2,5.96484375,-5.62890625,1,0,0,rectangle,5.96484375,-5.62890625,1,0,0,5.96484375,-5.62890625,1,0,0,0,57,57,34,1,,,,,,,,
,,,,,,,,,,,,,FF,,,,,,,,1.133,,,,,,,,,,,,,,,,,,,,,,60ff24bf3e0082c513062186,61036f3222b2f12b331285d9,2021-07-29_20h17.34.327,Simcolourproject_2stim_asymm_v5,2020.2.10,MacIntel,60,61025ae37ef11b136ea224fe,,,,,,,,,57,35.83203125,-58.64453125,1,0,0,response3disk,,4,15.31640625,-1.90625,1,0,0,rectangle,15.31640625,-1.90625,1,0,0,15.31640625,-1.90625,1,0,0,0,58,58,52,1,,,,,,,,
,,,,,,,,,,,,,FF,,,,,,,,0.9506,,,,,,,,,,,,,,,,,,,,,,60ff24bf3e0082c513062186,61036f3222b2f12b331285d9,2021-07-29_20h17.34.327,Simcolourproject_2stim_asymm_v5,2020.2.10,MacIntel,60,61025ae37ef11b136ea224fe,,,,,,,,,2737,74.05859375,-43.78125,1,0,0,response3disk,,5,12.76953125,0.375,1,0,0,rectangle,12.76953125,0.375,1,0,0,12.76953125,0.375,1,0,0,0,59,59,48,1,,,,,,,,
,,,,,,,,,,,,,FF,,,,,,,,0.6824,,,,,,,,,,,,,,,,,,,,,,60ff24bf3e0082c513062186,61036f3222b2f12b331285d9,2021-07-29_20h17.34.327,Simcolourproject_2stim_asymm_v5,2020.2.10,MacIntel,60,61025ae37ef11b136ea224fe,,,,,,,,,3698,-21.97265625,-62.6328125,1,0,0,response5disk,,3,-2.6484375,-3.78125,1,0,0,rectangle,-2.6484375,-3.78125,1,0,0,-2.6484375,-3.78125,1,0,0,0,60,60,138,1,,,,,,,,
,,,,,,,,,,,,,FF,,,,,,,,0.7504,,,,,,,,,,,,,,,,,,,,,,60ff24bf3e0082c513062186,61036f3222b2f12b331285d9,2021-07-29_20h17.34.327,Simcolourproject_2stim_asymm_v5,2020.2.10,MacIntel,60,61025ae37ef11b136ea224fe,,,,,,,,,1494,-52.1640625,-34.609375,1,0,0,response5disk,,2,12.3125,-9.3359375,1,0,0,rectangle,12.3125,-9.3359375,1,0,0,12.3125,-9.3359375,1,0,0,0,61,61,6,1,,,,,,,,
,,,,,,,,,,,,,FF,,,,,,,,0.7503,,,,,,,,,,,,,,,,,,,,,,60ff24bf3e0082c513062186,61036f3222b2f12b331285d9,2021-07-29_20h17.34.327,Simcolourproject_2stim_asymm_v5,2020.2.10,MacIntel,60,61025ae37ef11b136ea224fe,,,,,,,,,2480,41.2421875,59.01953125,1,0,0,response1disk,,7,21.55078125,3.578125,1,0,0,rectangle,21.55078125,3.578125,1,0,0,21.55078125,3.578125,1,0,0,0,62,62,65,1,,,,,,,,
,,,,,,,,,,,,,FF,,,,,,,,1.2997,,,,,,,,,,,,,,,,,,,,,,60ff24bf3e0082c513062186,61036f3222b2f12b331285d9,2021-07-29_20h17.34.327,Simcolourproject_2stim_asymm_v5,2020.2.10,MacIntel,60,61025ae37ef11b136ea224fe,,,,,,,,,3078,-82.98046875,30.61328125,1,0,0,response7disk,,1,-17.69140625,4.84375,1,0,0,rectangle,-17.69140625,4.84375,1,0,0,-17.69140625,4.84375,1,0,0,0,63,63,21,1,,,,,,,,
,,,,,,,,,,,,,FF,,,,,,,,0.7317,,,,,,,,,,,,,,,,,,,,,,60ff24bf3e0082c513062186,61036f3222b2f12b331285d9,2021-07-29_20h17.34.327,Simcolourproject_2stim_asymm_v5,2020.2.10,MacIntel,60,61025ae37ef11b136ea224fe,,,,,,,,,2333,-49.03125,28.33984375,1,0,0,response7disk,,1,-0.5703125,-12.6015625,1,0,0,rectangle,-0.5703125,-12.6015625,1,0,0,-0.5703125,-12.6015625,1,0,0,0,64,64,0,1,,,,,,,,
,,,,,,,,,,,,,FF,,,,,,,,0.6511,,,,,,,,,,,,,,,,,,,,,,60ff24bf3e0082c513062186,61036f3222b2f12b331285d9,2021-07-29_20h17.34.327,Simcolourproject_2stim_asymm_v5,2020.2.10,MacIntel,60,61025ae37ef11b136ea224fe,,,,,,,,,3083,-49.01953125,-33.1875,1,0,0,response5disk,,2,-7.13671875,-4.7734375,1,0,0,rectangle,-7.13671875,-4.7734375,1,0,0,-7.13671875,-4.7734375,1,0,0,0,65,65,88,1,,,,,,,,
,,,,,,,,,,,,,FF,,,,,,,,0.6498,,,,,,,,,,,,,,,,,,,,,,60ff24bf3e0082c513062186,61036f3222b2f12b331285d9,2021-07-29_20h17.34.327,Simcolourproject_2stim_asymm_v5,2020.2.10,MacIntel,60,61025ae37ef11b136ea224fe,,,,,,,,,854,-48.88671875,-24.421875,1,0,0,response5disk,,2,-10.98828125,-0.1171875,1,0,0,rectangle,25.37109375,-92.296875,1,0,0,3.453125,-9.609375,1,0,0,0,66,66,123,1,,response3disk_3,TRUE,4,4,"[152,67,270,132,278,263,217,168,23,6,233,20,314,283,144,209,196,283,7,155]",1.4674,rectangle
,,,,,,,,,,,,,FF,,,,,,,,0.9685,,,,,,,,,,,,,,,,,,,,,,60ff24bf3e0082c513062186,61036f3222b2f12b331285d9,2021-07-29_20h17.34.327,Simcolourproject_2stim_asymm_v5,2020.2.10,MacIntel,60,61025ae37ef11b136ea224fe,,,,,,,,,3347,64.84765625,37.33203125,1,0,0,response1disk,,6,23.23828125,-6.51953125,1,0,0,rectangle,23.23828125,-6.51953125,1,0,0,23.23828125,-6.51953125,1,0,0,0,67,67,125,1,,,,,,,,
,,,,,,,,,,,,,FF,,,,,,,,0.8995,,,,,,,,,,,,,,,,,,,,,,60ff24bf3e0082c513062186,61036f3222b2f12b331285d9,2021-07-29_20h17.34.327,Simcolourproject_2stim_asymm_v5,2020.2.10,MacIntel,60,61025ae37ef11b136ea224fe,,,,,,,,,2488,75.28515625,36.82421875,1,0,0,response1disk,,6,2.05078125,-4.59375,1,0,0,rectangle,2.05078125,-4.59375,1,0,0,2.05078125,-4.59375,1,0,0,0,68,68,44,1,,,,,,,,
,,,,,,,,,,,,,FF,,,,,,,,0.7174,,,,,,,,,,,,,,,,,,,,,,60ff24bf3e0082c513062186,61036f3222b2f12b331285d9,2021-07-29_20h17.34.327,Simcolourproject_2stim_asymm_v5,2020.2.10,MacIntel,60,61025ae37ef11b136ea224fe,,,,,,,,,4161,21.57421875,51.328125,1,0,0,response1disk,,7,6.36328125,-13.65234375,1,0,0,rectangle,6.36328125,-13.65234375,1,0,0,6.36328125,-13.65234375,1,0,0,0,69,69,25,1,,,,,,,,
,,,,,,,,,,,,,FF,,,,,,,,0.7154,,,,,,,,,,,,,,,,,,,,,,60ff24bf3e0082c513062186,61036f3222b2f12b331285d9,2021-07-29_20h17.34.327,Simcolourproject_2stim_asymm_v5,2020.2.10,MacIntel,60,61025ae37ef11b136ea224fe,,,,,,,,,25,-58,-37.11328125,1,0,0,response5disk,,2,-8.96484375,-9.94921875,1,0,0,rectangle,-8.96484375,-9.94921875,1,0,0,-8.96484375,-9.94921875,1,0,0,0,70,70,3,1,,,,,,,,
,,,,,,,,,,,,,FF,,,,,,,,0.8664,,,,,,,,,,,,,,,,,,,,,,60ff24bf3e0082c513062186,61036f3222b2f12b331285d9,2021-07-29_20h17.34.327,Simcolourproject_2stim_asymm_v5,2020.2.10,MacIntel,60,61025ae37ef11b136ea224fe,,,,,,,,,80,59.94140625,-35.8359375,1,0,0,response3disk,,5,12.03515625,-6.88671875,1,0,0,rectangle,12.03515625,-6.88671875,1,0,0,12.03515625,-6.88671875,1,0,0,0,71,71,33,1,,,,,,,,
,,,,,,,,,,,,,FF,,,,,,,,0.6673,,,,,,,,,,,,,,,,,,,,,,60ff24bf3e0082c513062186,61036f3222b2f12b331285d9,2021-07-29_20h17.34.327,Simcolourproject_2stim_asymm_v5,2020.2.10,MacIntel,60,61025ae37ef11b136ea224fe,,,,,,,,,902,36.609375,-52.33203125,1,0,0,response3disk,,4,17.46484375,0.453125,1,0,0,rectangle,17.46484375,0.453125,1,0,0,17.46484375,0.453125,1,0,0,0,72,72,66,1,,,,,,,,
,,,,,,,,,,,,,FF,,,,,,,,0.6668,,,,,,,,,,,,,,,,,,,,,,60ff24bf3e0082c513062186,61036f3222b2f12b331285d9,2021-07-29_20h17.34.327,Simcolourproject_2stim_asymm_v5,2020.2.10,MacIntel,60,61025ae37ef11b136ea224fe,,,,,,,,,678,-71.42578125,-31.13671875,1,0,0,response5disk,,2,-9.16015625,-11.234375,1,0,0,rectangle,-9.16015625,-11.234375,1,0,0,-9.16015625,-11.234375,1,0,0,0,73,73,54,1,,,,,,,,
,,,,,,,,,,,,,FF,,,,,,,,0.9674,,,,,,,,,,,,,,,,,,,,,,60ff24bf3e0082c513062186,61036f3222b2f12b331285d9,2021-07-29_20h17.34.327,Simcolourproject_2stim_asymm_v5,2020.2.10,MacIntel,60,61025ae37ef11b136ea224fe,,,,,,,,,2625,-63.5546875,30.1484375,1,0,0,response7disk,,1,-9.91015625,-3.765625,1,0,0,rectangle,-9.91015625,-3.765625,1,0,0,-9.91015625,-3.765625,1,0,0,0,74,74,77,1,,,,,,,,
,,,,,,,,,,,,,FF,,,,,,,,0.7843,,,,,,,,,,,,,,,,,,,,,,60ff24bf3e0082c513062186,61036f3222b2f12b331285d9,2021-07-29_20h17.34.327,Simcolourproject_2stim_asymm_v5,2020.2.10,MacIntel,60,61025ae37ef11b136ea224fe,,,,,,,,,2617,60.3515625,-47.8515625,1,0,0,response3disk,,5,11.48828125,-6.3046875,1,0,0,rectangle,11.48828125,-6.3046875,1,0,0,11.48828125,-6.3046875,1,0,0,0,75,75,112,1,,,,,,,,
,,,,,,,,,,,,,FF,,,,,,,,0.6175,,,,,,,,,,,,,,,,,,,,,,60ff24bf3e0082c513062186,61036f3222b2f12b331285d9,2021-07-29_20h17.34.327,Simcolourproject_2stim_asymm_v5,2020.2.10,MacIntel,60,61025ae37ef11b136ea224fe,,,,,,,,,1849,-68.92578125,-46.9140625,1,0,0,response5disk,,2,-12.35546875,-6.9375,1,0,0,rectangle,-12.35546875,-6.9375,1,0,0,-12.35546875,-6.9375,1,0,0,0,76,76,95,1,,,,,,,,
,,,,,,,,,,,,,FF,,,,,,,,0.7007,,,,,,,,,,,,,,,,,,,,,,60ff24bf3e0082c513062186,61036f3222b2f12b331285d9,2021-07-29_20h17.34.327,Simcolourproject_2stim_asymm_v5,2020.2.10,MacIntel,60,61025ae37ef11b136ea224fe,,,,,,,,,101,-28.51953125,-44.5859375,1,0,0,response5disk,,3,-2.1171875,5.45703125,1,0,0,rectangle,-2.1171875,5.45703125,1,0,0,-2.1171875,5.45703125,1,0,0,0,77,77,12,1,,,,,,,,
,,,,,,,,,,,,,FF,,,,,,,,0.8173,,,,,,,,,,,,,,,,,,,,,,60ff24bf3e0082c513062186,61036f3222b2f12b331285d9,2021-07-29_20h17.34.327,Simcolourproject_2stim_asymm_v5,2020.2.10,MacIntel,60,61025ae37ef11b136ea224fe,,,,,,,,,1076,-31.984375,-60.13671875,1,0,0,response5disk,,3,-7.20703125,-6.3203125,1,0,0,rectangle,-7.20703125,-6.3203125,1,0,0,-7.20703125,-6.3203125,1,0,0,0,78,78,70,1,,,,,,,,
,,,,,,,,,,,,,FF,,,,,,,,0.6816,,,,,,,,,,,,,,,,,,,,,,60ff24bf3e0082c513062186,61036f3222b2f12b331285d9,2021-07-29_20h17.34.327,Simcolourproject_2stim_asymm_v5,2020.2.10,MacIntel,60,61025ae37ef11b136ea224fe,,,,,,,,,86,-53.4140625,-25.8671875,1,0,0,response5disk,,2,-5.85546875,-3.91796875,1,0,0,rectangle,-5.85546875,-3.91796875,1,0,0,-5.85546875,-3.91796875,1,0,0,0,79,79,135,1,,,,,,,,
,,,,,,,,,,,,,FF,,,,,,,,0.6997,,,,,,,,,,,,,,,,,,,,,,60ff24bf3e0082c513062186,61036f3222b2f12b331285d9,2021-07-29_20h17.34.327,Simcolourproject_2stim_asymm_v5,2020.2.10,MacIntel,60,61025ae37ef11b136ea224fe,,,,,,,,,2396,-47.57421875,-22.140625,1,0,0,response5disk,,2,4.8125,-2.015625,1,0,0,rectangle,4.8125,-2.015625,1,0,0,4.8125,-2.015625,1,0,0,0,80,80,113,1,,,,,,,,
,,,,,,,,,,,,,FF,,,,,,,,0.7324,,,,,,,,,,,,,,,,,,,,,,60ff24bf3e0082c513062186,61036f3222b2f12b331285d9,2021-07-29_20h17.34.327,Simcolourproject_2stim_asymm_v5,2020.2.10,MacIntel,60,61025ae37ef11b136ea224fe,,,,,,,,,2820,-50.95703125,-36.1953125,1,0,0,response5disk,,2,-0.75,-2.40625,1,0,0,rectangle,-0.75,-2.40625,1,0,0,-0.75,-2.40625,1,0,0,0,81,81,132,1,,,,,,,,
,,,,,,,,,,,,,FF,,,,,,,,0.9177,,,,,,,,,,,,,,,,,,,,,,60ff24bf3e0082c513062186,61036f3222b2f12b331285d9,2021-07-29_20h17.34.327,Simcolourproject_2stim_asymm_v5,2020.2.10,MacIntel,60,61025ae37ef11b136ea224fe,,,,,,,,,3463,25.3984375,-45.13671875,1,0,0,response3disk,,4,13.5546875,-13.8203125,1,0,0,rectangle,13.5546875,-13.8203125,1,0,0,13.5546875,-13.8203125,1,0,0,0,82,82,122,1,,,,,,,,
,,,,,,,,,,,,,FF,,,,,,,,1.2996,,,,,,,,,,,,,,,,,,,,,,60ff24bf3e0082c513062186,61036f3222b2f12b331285d9,2021-07-29_20h17.34.327,Simcolourproject_2stim_asymm_v5,2020.2.10,MacIntel,60,61025ae37ef11b136ea224fe,,,,,,,,,2130,-68.64453125,38.3671875,1,0,0,response7disk,,1,-13.1640625,8.26953125,1,0,0,rectangle,-13.1640625,8.26953125,1,0,0,-13.1640625,8.26953125,1,0,0,0,83,83,46,1,,,,,,,,
,,,,,,,,,,,,,FF,,,,,,,,0.7001,,,,,,,,,,,,,,,,,,,,,,60ff24bf3e0082c513062186,61036f3222b2f12b331285d9,2021-07-29_20h17.34.327,Simcolourproject_2stim_asymm_v5,2020.2.10,MacIntel,60,61025ae37ef11b136ea224fe,,,,,,,,,223,-54.46875,25.515625,1,0,0,response7disk,,1,-3.6953125,2.4140625,1,0,0,rectangle,-3.6953125,2.4140625,1,0,0,-3.6953125,2.4140625,1,0,0,0,84,84,15,1,,,,,,,,
,,,,,,,,,,,,,FF,,,,,,,,0.8512,,,,,,,,,,,,,,,,,,,,,,60ff24bf3e0082c513062186,61036f3222b2f12b331285d9,2021-07-29_20h17.34.327,Simcolourproject_2stim_asymm_v5,2020.2.10,MacIntel,60,61025ae37ef11b136ea224fe,,,,,,,,,1775,-32.5,-60.671875,1,0,0,response5disk,,3,-2.3125,3.09375,1,0,0,rectangle,-2.3125,3.09375,1,0,0,-2.3125,3.09375,1,0,0,0,85,85,140,1,,,,,,,,
,,,,,,,,,,,,,FF,,,,,,,,1.0345,,,,,,,,,,,,,,,,,,,,,,60ff24bf3e0082c513062186,61036f3222b2f12b331285d9,2021-07-29_20h17.34.327,Simcolourproject_2stim_asymm_v5,2020.2.10,MacIntel,60,61025ae37ef11b136ea224fe,,,,,,,,,3475,62.82421875,71.72265625,1,0,0,response1disk,,7,-6.03125,-12.0078125,1,0,0,rectangle,-6.03125,-12.0078125,1,0,0,-6.03125,-12.0078125,1,0,0,0,86,86,7,1,,,,,,,,
,,,,,,,,,,,,,FF,,,,,,,,1.4177,,,,,,,,,,,,,,,,,,,,,,60ff24bf3e0082c513062186,61036f3222b2f12b331285d9,2021-07-29_20h17.34.327,Simcolourproject_2stim_asymm_v5,2020.2.10,MacIntel,60,61025ae37ef11b136ea224fe,,,,,,,,,3377,48.66796875,-43.1953125,1,0,0,response3disk,,5,10.24609375,-12.8515625,1,0,0,rectangle,10.24609375,-12.8515625,1,0,0,10.24609375,-12.8515625,1,0,0,0,87,87,37,1,,,,,,,,
,,,,,,,,,,,,,FF,,,,,,,,1.934,,,,,,,,,,,,,,,,,,,,,,60ff24bf3e0082c513062186,61036f3222b2f12b331285d9,2021-07-29_20h17.34.327,Simcolourproject_2stim_asymm_v5,2020.2.10,MacIntel,60,61025ae37ef11b136ea224fe,,,,,,,,,2834,55.046875,23.78515625,1,0,0,response1disk,,6,-3.8828125,-15.2421875,1,0,0,rectangle,-3.8828125,-15.2421875,1,0,0,-3.8828125,-15.2421875,1,0,0,0,88,88,92,1,,,,,,,,
,,,,,,,,,,,,,FF,,,,,,,,0.9662,,,,,,,,,,,,,,,,,,,,,,60ff24bf3e0082c513062186,61036f3222b2f12b331285d9,2021-07-29_20h17.34.327,Simcolourproject_2stim_asymm_v5,2020.2.10,MacIntel,60,61025ae37ef11b136ea224fe,,,,,,,,,2858,-61.546875,-39.26953125,1,0,0,response5disk,,2,10.90234375,-10.765625,1,0,0,rectangle,10.90234375,-10.765625,1,0,0,10.90234375,-10.765625,1,0,0,0,89,89,18,1,,,,,,,,
,,,,,,,,,,,,,FF,,,,,,,,1.083,,,,,,,,,,,,,,,,,,,,,,60ff24bf3e0082c513062186,61036f3222b2f12b331285d9,2021-07-29_20h17.34.327,Simcolourproject_2stim_asymm_v5,2020.2.10,MacIntel,60,61025ae37ef11b136ea224fe,,,,,,,,,3671,46.9921875,68.6796875,1,0,0,response1disk,,7,5.06640625,-5.90234375,1,0,0,rectangle,5.06640625,-5.90234375,1,0,0,5.06640625,-5.90234375,1,0,0,0,90,90,93,1,,,,,,,,
,,,,,,,,,,,,,FF,,,,,,,,0.8166,,,,,,,,,,,,,,,,,,,,,,60ff24bf3e0082c513062186,61036f3222b2f12b331285d9,2021-07-29_20h17.34.327,Simcolourproject_2stim_asymm_v5,2020.2.10,MacIntel,60,61025ae37ef11b136ea224fe,,,,,,,,,2139,-36.94140625,61.08203125,1,0,0,response7disk,,0,-21.90625,6.015625,1,0,0,rectangle,-21.90625,6.015625,1,0,0,-21.90625,6.015625,1,0,0,0,91,91,72,1,,,,,,,,
,,,,,,,,,,,,,FF,,,,,,,,0.6486,,,,,,,,,,,,,,,,,,,,,,60ff24bf3e0082c513062186,61036f3222b2f12b331285d9,2021-07-29_20h17.34.327,Simcolourproject_2stim_asymm_v5,2020.2.10,MacIntel,60,61025ae37ef11b136ea224fe,,,,,,,,,2578,-21.4296875,42.27734375,1,0,0,response7disk,,0,-12.046875,0.10546875,1,0,0,rectangle,-12.046875,0.10546875,1,0,0,-12.046875,0.10546875,1,0,0,0,92,92,62,1,,,,,,,,
,,,,,,,,,,,,,FF,,,,,,,,1.4165,,,,,,,,,,,,,,,,,,,,,,60ff24bf3e0082c513062186,61036f3222b2f12b331285d9,2021-07-29_20h17.34.327,Simcolourproject_2stim_asymm_v5,2020.2.10,MacIntel,60,61025ae37ef11b136ea224fe,,,,,,,,,3766,-75.86328125,-42.59375,1,0,0,response5disk,,2,-5.83203125,-14.6171875,1,0,0,rectangle,-5.83203125,-14.6171875,1,0,0,-5.83203125,-14.6171875,1,0,0,0,93,93,155,1,,,,,,,,
,,,,,,,,,,,,,FF,,,,,,,,0.866,,,,,,,,,,,,,,,,,,,,,,60ff24bf3e0082c513062186,61036f3222b2f12b331285d9,2021-07-29_20h17.34.327,Simcolourproject_2stim_asymm_v5,2020.2.10,MacIntel,60,61025ae37ef11b136ea224fe,,,,,,,,,952,-37.57421875,25.33984375,1,0,0,response7disk,,1,-11.5703125,0.80078125,1,0,0,rectangle,-11.5703125,0.80078125,1,0,0,-11.5703125,0.80078125,1,0,0,0,94,94,64,1,,,,,,,,
,,,,,,,,,,,,,FF,,,,,,,,1.1152,,,,,,,,,,,,,,,,,,,,,,60ff24bf3e0082c513062186,61036f3222b2f12b331285d9,2021-07-29_20h17.34.327,Simcolourproject_2stim_asymm_v5,2020.2.10,MacIntel,60,61025ae37ef11b136ea224fe,,,,,,,,,2441,-26.2734375,-44.671875,1,0,0,response5disk,,3,-11.3984375,4.53515625,1,0,0,rectangle,-11.3984375,4.53515625,1,0,0,-11.3984375,4.53515625,1,0,0,0,95,95,26,1,,,,,,,,
,,,,,,,,,,,,,FF,,,,,,,,0.5492,,,,,,,,,,,,,,,,,,,,,,60ff24bf3e0082c513062186,61036f3222b2f12b331285d9,2021-07-29_20h17.34.327,Simcolourproject_2stim_asymm_v5,2020.2.10,MacIntel,60,61025ae37ef11b136ea224fe,,,,,,,,,3496,-19.83984375,48.60546875,1,0,0,response7disk,,0,-9.453125,5.25,1,0,0,rectangle,-9.453125,5.25,1,0,0,-9.453125,5.25,1,0,0,0,96,96,74,1,,,,,,,,
,,,,,,,,,,,,,FF,,,,,,,,1.5827,,,,,,,,,,,,,,,,,,,,,,60ff24bf3e0082c513062186,61036f3222b2f12b331285d9,2021-07-29_20h17.34.327,Simcolourproject_2stim_asymm_v5,2020.2.10,MacIntel,60,61025ae37ef11b136ea224fe,,,,,,,,,3412,-63.9765625,-32.38671875,1,0,0,response5disk,,2,-16.90234375,-9.39453125,1,0,0,rectangle,-16.90234375,-9.39453125,1,0,0,-16.90234375,-9.39453125,1,0,0,0,97,97,42,1,,,,,,,,
,,,,,,,,,,,,,FF,,,,,,,,0.867,,,,,,,,,,,,,,,,,,,,,,60ff24bf3e0082c513062186,61036f3222b2f12b331285d9,2021-07-29_20h17.34.327,Simcolourproject_2stim_asymm_v5,2020.2.10,MacIntel,60,61025ae37ef11b136ea224fe,,,,,,,,,661,-21.1953125,-36.265625,1,0,0,response5disk,,3,-14.625,-8.765625,1,0,0,rectangle,-14.625,-8.765625,1,0,0,-14.625,-8.765625,1,0,0,0,98,98,101,1,,,,,,,,
,,,,,,,,,,,,,FF,,,,,,,,0.6678,,,,,,,,,,,,,,,,,,,,,,60ff24bf3e0082c513062186,61036f3222b2f12b331285d9,2021-07-29_20h17.34.327,Simcolourproject_2stim_asymm_v5,2020.2.10,MacIntel,60,61025ae37ef11b136ea224fe,,,,,,,,,4263,-25.6953125,38.6328125,1,0,0,response7disk,,0,-4.296875,2.16015625,1,0,0,rectangle,-4.296875,2.16015625,1,0,0,-4.296875,2.16015625,1,0,0,0,99,99,13,1,,,,,,,,
,,,,,,,,,,,,,FF,,,,,,,,0.8181,,,,,,,,,,,,,,,,,,,,,,60ff24bf3e0082c513062186,61036f3222b2f12b331285d9,2021-07-29_20h17.34.327,Simcolourproject_2stim_asymm_v5,2020.2.10,MacIntel,60,61025ae37ef11b136ea224fe,,,,,,,,,2362,66.8359375,59.703125,1,0,0,response1disk,,6,12.95703125,7.828125,1,0,0,rectangle,12.95703125,7.828125,1,0,0,12.95703125,7.828125,1,0,0,0,100,100,31,1,,,,,,,,
,,,,,,,,,,,,,FF,,,,,,,,0.8838,,,,,,,,,,,,,,,,,,,,,,60ff24bf3e0082c513062186,61036f3222b2f12b331285d9,2021-07-29_20h17.34.327,Simcolourproject_2stim_asymm_v5,2020.2.10,MacIntel,60,61025ae37ef11b136ea224fe,,,,,,,,,4264,-22.734375,39.07421875,1,0,0,response7disk,,0,-16.99609375,0.73046875,1,0,0,rectangle,-16.99609375,0.73046875,1,0,0,-16.99609375,0.73046875,1,0,0,0,101,101,108,1,,,,,,,,
,,,,,,,,,,,,,FF,,,,,,,,0.8168,,,,,,,,,,,,,,,,,,,,,,60ff24bf3e0082c513062186,61036f3222b2f12b331285d9,2021-07-29_20h17.34.327,Simcolourproject_2stim_asymm_v5,2020.2.10,MacIntel,60,61025ae37ef11b136ea224fe,,,,,,,,,808,32.62109375,53.6640625,1,0,0,response1disk,,7,16.92578125,-1.8984375,1,0,0,rectangle,16.92578125,-1.8984375,1,0,0,16.92578125,-1.8984375,1,0,0,0,102,102,27,1,,,,,,,,
,,,,,,,,,,,,,FF,,,,,,,,0.8501,,,,,,,,,,,,,,,,,,,,,,60ff24bf3e0082c513062186,61036f3222b2f12b331285d9,2021-07-29_20h17.34.327,Simcolourproject_2stim_asymm_v5,2020.2.10,MacIntel,60,61025ae37ef11b136ea224fe,,,,,,,,,2670,65.23046875,37.140625,1,0,0,response1disk,,6,4.58203125,-0.3984375,1,0,0,rectangle,4.58203125,-0.3984375,1,0,0,4.58203125,-0.3984375,1,0,0,0,103,103,60,1,,,,,,,,
,,,,,,,,,,,,,FF,,,,,,,,0.9494,,,,,,,,,,,,,,,,,,,,,,60ff24bf3e0082c513062186,61036f3222b2f12b331285d9,2021-07-29_20h17.34.327,Simcolourproject_2stim_asymm_v5,2020.2.10,MacIntel,60,61025ae37ef11b136ea224fe,,,,,,,,,615,53.2265625,-35.56640625,1,0,0,response3disk,,5,19.4375,-13.83203125,1,0,0,rectangle,19.4375,-13.83203125,1,0,0,19.4375,-13.83203125,1,0,0,0,104,104,116,1,,,,,,,,
,,,,,,,,,,,,,FF,,,,,,,,1.1167,,,,,,,,,,,,,,,,,,,,,,60ff24bf3e0082c513062186,61036f3222b2f12b331285d9,2021-07-29_20h17.34.327,Simcolourproject_2stim_asymm_v5,2020.2.10,MacIntel,60,61025ae37ef11b136ea224fe,,,,,,,,,857,-38.19140625,43.1640625,1,0,0,response7disk,,0,-2.51171875,4.796875,1,0,0,rectangle,-2.51171875,4.796875,1,0,0,-2.51171875,4.796875,1,0,0,0,105,105,121,1,,,,,,,,
,,,,,,,,,,,,,FF,,,,,,,,0.7337,,,,,,,,,,,,,,,,,,,,,,60ff24bf3e0082c513062186,61036f3222b2f12b331285d9,2021-07-29_20h17.34.327,Simcolourproject_2stim_asymm_v5,2020.2.10,MacIntel,60,61025ae37ef11b136ea224fe,,,,,,,,,3189,69.20703125,31.17578125,1,0,0,response1disk,,6,18.35546875,1.6953125,1,0,0,rectangle,18.35546875,1.6953125,1,0,0,18.35546875,1.6953125,1,0,0,0,106,106,87,1,,,,,,,,
,,,,,,,,,,,,,FF,,,,,,,,0.6834,,,,,,,,,,,,,,,,,,,,,,60ff24bf3e0082c513062186,61036f3222b2f12b331285d9,2021-07-29_20h17.34.327,Simcolourproject_2stim_asymm_v5,2020.2.10,MacIntel,60,61025ae37ef11b136ea224fe,,,,,,,,,1561,-24.3125,49.34375,1,0,0,response7disk,,0,-9.64453125,12.15625,1,0,0,rectangle,-9.64453125,12.15625,1,0,0,-9.64453125,12.15625,1,0,0,0,107,107,69,1,,,,,,,,
,,,,,,,,,,,,,FF,,,,,,,,1.1829,,,,,,,,,,,,,,,,,,,,,,60ff24bf3e0082c513062186,61036f3222b2f12b331285d9,2021-07-29_20h17.34.327,Simcolourproject_2stim_asymm_v5,2020.2.10,MacIntel,60,61025ae37ef11b136ea224fe,,,,,,,,,3922,55.0078125,-35.5390625,1,0,0,response3disk,,5,11.2578125,-6.8046875,1,0,0,rectangle,11.2578125,-6.8046875,1,0,0,11.2578125,-6.8046875,1,0,0,0,108,108,78,1,,,,,,,,
,,,,,,,,,,,,,FF,,,,,,,,0.9014,,,,,,,,,,,,,,,,,,,,,,60ff24bf3e0082c513062186,61036f3222b2f12b331285d9,2021-07-29_20h17.34.327,Simcolourproject_2stim_asymm_v5,2020.2.10,MacIntel,60,61025ae37ef11b136ea224fe,,,,,,,,,2790,63.7734375,-35.0625,1,0,0,response3disk,,5,27.66796875,-14.35546875,1,0,0,rectangle,27.66796875,-14.35546875,1,0,0,27.66796875,-14.35546875,1,0,0,0,109,109,76,1,,,,,,,,
,,,,,,,,,,,,,FF,,,,,,,,0.7841,,,,,,,,,,,,,,,,,,,,,,60ff24bf3e0082c513062186,61036f3222b2f12b331285d9,2021-07-29_20h17.34.327,Simcolourproject_2stim_asymm_v5,2020.2.10,MacIntel,60,61025ae37ef11b136ea224fe,,,,,,,,,4197,-30.29296875,41.5625,1,0,0,response7disk,,0,-23.1796875,12.8203125,1,0,0,rectangle,-23.1796875,12.8203125,1,0,0,-23.1796875,12.8203125,1,0,0,0,110,110,53,1,,,,,,,,
,,,,,,,,,,,,,FF,,,,,,,,0.6346,,,,,,,,,,,,,,,,,,,,,,60ff24bf3e0082c513062186,61036f3222b2f12b331285d9,2021-07-29_20h17.34.327,Simcolourproject_2stim_asymm_v5,2020.2.10,MacIntel,60,61025ae37ef11b136ea224fe,,,,,,,,,1804,56.24609375,30.4375,1,0,0,response1disk,,6,18.01953125,5.5234375,1,0,0,rectangle,18.01953125,5.5234375,1,0,0,18.01953125,5.5234375,1,0,0,0,111,111,89,1,,,,,,,,
,,,,,,,,,,,,,FF,,,,,,,,0.9002,,,,,,,,,,,,,,,,,,,,,,60ff24bf3e0082c513062186,61036f3222b2f12b331285d9,2021-07-29_20h17.34.327,Simcolourproject_2stim_asymm_v5,2020.2.10,MacIntel,60,61025ae37ef11b136ea224fe,,,,,,,,,1651,-58.38671875,23.5390625,1,0,0,response7disk,,1,13.6171875,0.5,1,0,0,rectangle,13.6171875,0.5,1,0,0,13.6171875,0.5,1,0,0,0,112,112,29,1,,,,,,,,
,,,,,,,,,,,,,FF,,,,,,,,0.6491,,,,,,,,,,,,,,,,,,,,,,60ff24bf3e0082c513062186,61036f3222b2f12b331285d9,2021-07-29_20h17.34.327,Simcolourproject_2stim_asymm_v5,2020.2.10,MacIntel,60,61025ae37ef11b136ea224fe,,,,,,,,,1669,-56.7578125,27.8046875,1,0,0,response7disk,,1,-16.8046875,9.140625,1,0,0,rectangle,-16.8046875,9.140625,1,0,0,-16.8046875,9.140625,1,0,0,0,113,113,128,1,,,,,,,,
,,,,,,,,,,,,,FF,,,,,,,,0.9834,,,,,,,,,,,,,,,,,,,,,,60ff24bf3e0082c513062186,61036f3222b2f12b331285d9,2021-07-29_20h17.34.327,Simcolourproject_2stim_asymm_v5,2020.2.10,MacIntel,60,61025ae37ef11b136ea224fe,,,,,,,,,2311,-33.8828125,-61.03515625,1,0,0,response5disk,,3,0.453125,12.515625,1,0,0,rectangle,0.453125,12.515625,1,0,0,0.453125,12.515625,1,0,0,0,114,114,68,1,,,,,,,,
,,,,,,,,,,,,,FF,,,,,,,,1.5512,,,,,,,,,,,,,,,,,,,,,,60ff24bf3e0082c513062186,61036f3222b2f12b331285d9,2021-07-29_20h17.34.327,Simcolourproject_2stim_asymm_v5,2020.2.10,MacIntel,60,61025ae37ef11b136ea224fe,,,,,,,,,1575,-50.1328125,-26.171875,1,0,0,response5disk,,2,-6.28515625,-4.78515625,1,0,0,rectangle,-6.28515625,-4.78515625,1,0,0,-6.28515625,-4.78515625,1,0,0,0,115,115,79,1,,,,,,,,
,,,,,,,,,,,,,FF,,,,,,,,0.7166,,,,,,,,,,,,,,,,,,,,,,60ff24bf3e0082c513062186,61036f3222b2f12b331285d9,2021-07-29_20h17.34.327,Simcolourproject_2stim_asymm_v5,2020.2.10,MacIntel,60,61025ae37ef11b136ea224fe,,,,,,,,,1053,33.02734375,-43.54296875,1,0,0,response3disk,,4,30.16796875,-4.90234375,1,0,0,rectangle,30.16796875,-4.90234375,1,0,0,30.16796875,-4.90234375,1,0,0,0,116,116,22,1,,,,,,,,
,,,,,,,,,,,,,FF,,,,,,,,0.8322,,,,,,,,,,,,,,,,,,,,,,60ff24bf3e0082c513062186,61036f3222b2f12b331285d9,2021-07-29_20h17.34.327,Simcolourproject_2stim_asymm_v5,2020.2.10,MacIntel,60,61025ae37ef11b136ea224fe,,,,,,,,,4179,-26.0859375,50.41015625,1,0,0,response7disk,,0,-20.9140625,7.58203125,1,0,0,rectangle,-20.9140625,7.58203125,1,0,0,-20.9140625,7.58203125,1,0,0,0,117,117,124,1,,,,,,,,
,,,,,,,,,,,,,FF,,,,,,,,0.7175,,,,,,,,,,,,,,,,,,,,,,60ff24bf3e0082c513062186,61036f3222b2f12b331285d9,2021-07-29_20h17.34.327,Simcolourproject_2stim_asymm_v5,2020.2.10,MacIntel,60,61025ae37ef11b136ea224fe,,,,,,,,,3041,70.453125,26.92578125,1,0,0,response1disk,,6,9.453125,1.4375,1,0,0,rectangle,9.453125,1.4375,1,0,0,9.453125,1.4375,1,0,0,0,118,118,102,1,,,,,,,,
,,,,,,,,,,,,,FF,,,,,,,,0.5503,,,,,,,,,,,,,,,,,,,,,,60ff24bf3e0082c513062186,61036f3222b2f12b331285d9,2021-07-29_20h17.34.327,Simcolourproject_2stim_asymm_v5,2020.2.10,MacIntel,60,61025ae37ef11b136ea224fe,,,,,,,,,2489,56.2421875,27.22265625,1,0,0,response1disk,,6,12.5859375,4.03515625,1,0,0,rectangle,12.5859375,4.03515625,1,0,0,12.5859375,4.03515625,1,0,0,0,119,119,142,1,,,,,,,,
,,,,,,,,,,,,,FF,,,,,,,,0.65,,,,,,,,,,,,,,,,,,,,,,60ff24bf3e0082c513062186,61036f3222b2f12b331285d9,2021-07-29_20h17.34.327,Simcolourproject_2stim_asymm_v5,2020.2.10,MacIntel,60,61025ae37ef11b136ea224fe,,,,,,,,,3568,-44.7734375,-21.16796875,1,0,0,response5disk,,2,-2.7734375,-10.515625,1,0,0,rectangle,-2.7734375,-10.515625,1,0,0,-2.7734375,-10.515625,1,0,0,0,120,120,98,1,,,,,,,,
,,,,,,,,,,,,,FF,,,,,,,,1.0506,,,,,,,,,,,,,,,,,,,,,,60ff24bf3e0082c513062186,61036f3222b2f12b331285d9,2021-07-29_20h17.34.327,Simcolourproject_2stim_asymm_v5,2020.2.10,MacIntel,60,61025ae37ef11b136ea224fe,,,,,,,,,4151,-25.71484375,-64.91796875,1,0,0,response5disk,,3,-0.578125,-1.984375,1,0,0,rectangle,-0.578125,-1.984375,1,0,0,-0.578125,-1.984375,1,0,0,0,121,121,85,1,,,,,,,,
,,,,,,,,,,,,,FF,,,,,,,,0.6657,,,,,,,,,,,,,,,,,,,,,,60ff24bf3e0082c513062186,61036f3222b2f12b331285d9,2021-07-29_20h17.34.327,Simcolourproject_2stim_asymm_v5,2020.2.10,MacIntel,60,61025ae37ef11b136ea224fe,,,,,,,,,3933,-25.83203125,29.37109375,1,0,0,response7disk,,0,3.30078125,-1.1796875,1,0,0,rectangle,3.30078125,-1.1796875,1,0,0,3.30078125,-1.1796875,1,0,0,0,122,122,59,1,,,,,,,,
,,,,,,,,,,,,,FF,,,,,,,,0.7486,,,,,,,,,,,,,,,,,,,,,,60ff24bf3e0082c513062186,61036f3222b2f12b331285d9,2021-07-29_20h17.34.327,Simcolourproject_2stim_asymm_v5,2020.2.10,MacIntel,60,61025ae37ef11b136ea224fe,,,,,,,,,3610,-21.7109375,30.2421875,1,0,0,response7disk,,0,-15.75,4.953125,1,0,0,rectangle,-15.75,4.953125,1,0,0,-15.75,4.953125,1,0,0,0,123,123,94,1,,,,,,,,
,,,,,,,,,,,,,FF,,,,,,,,0.9167,,,,,,,,,,,,,,,,,,,,,,60ff24bf3e0082c513062186,61036f3222b2f12b331285d9,2021-07-29_20h17.34.327,Simcolourproject_2stim_asymm_v5,2020.2.10,MacIntel,60,61025ae37ef11b136ea224fe,,,,,,,,,1745,61.71484375,-33.546875,1,0,0,response3disk,,5,26.0078125,-1.1328125,1,0,0,rectangle,26.0078125,-1.1328125,1,0,0,26.0078125,-1.1328125,1,0,0,0,124,124,4,1,,,,,,,,
,,,,,,,,,,,,,FF,,,,,,,,0.7325,,,,,,,,,,,,,,,,,,,,,,60ff24bf3e0082c513062186,61036f3222b2f12b331285d9,2021-07-29_20h17.34.327,Simcolourproject_2stim_asymm_v5,2020.2.10,MacIntel,60,61025ae37ef11b136ea224fe,,,,,,,,,8,-46.03125,-34.22265625,1,0,0,response5disk,,2,-17.3125,-10.1171875,1,0,0,rectangle,-17.3125,-10.1171875,1,0,0,-17.3125,-10.1171875,1,0,0,0,125,125,80,1,,,,,,,,
,,,,,,,,,,,,,FF,,,,,,,,1.1489,,,,,,,,,,,,,,,,,,,,,,60ff24bf3e0082c513062186,61036f3222b2f12b331285d9,2021-07-29_20h17.34.327,Simcolourproject_2stim_asymm_v5,2020.2.10,MacIntel,60,61025ae37ef11b136ea224fe,,,,,,,,,3881,57.53125,-18.94140625,1,0,0,response3disk,,5,-11.06640625,1.09765625,1,0,0,rectangle,-11.06640625,1.09765625,1,0,0,-11.06640625,1.09765625,1,0,0,0,126,126,146,1,,,,,,,,
,,,,,,,,,,,,,FF,,,,,,,,0.8824,,,,,,,,,,,,,,,,,,,,,,60ff24bf3e0082c513062186,61036f3222b2f12b331285d9,2021-07-29_20h17.34.327,Simcolourproject_2stim_asymm_v5,2020.2.10,MacIntel,60,61025ae37ef11b136ea224fe,,,,,,,,,3390,52.94921875,24.96484375,1,0,0,response1disk,,6,21.44140625,2.70703125,1,0,0,rectangle,21.44140625,2.70703125,1,0,0,21.44140625,2.70703125,1,0,0,0,127,127,136,1,,,,,,,,
,,,,,,,,,,,,,FF,,,,,,,,0.9168,,,,,,,,,,,,,,,,,,,,,,60ff24bf3e0082c513062186,61036f3222b2f12b331285d9,2021-07-29_20h17.34.327,Simcolourproject_2stim_asymm_v5,2020.2.10,MacIntel,60,61025ae37ef11b136ea224fe,,,,,,,,,3735,31.08203125,-51.25390625,1,0,0,response3disk,,4,15.046875,-9.33203125,1,0,0,rectangle,15.046875,-9.33203125,1,0,0,15.046875,-9.33203125,1,0,0,0,128,128,137,1,,,,,,,,
,,,,,,,,,,,,,FF,,,,,,,,0.8334,,,,,,,,,,,,,,,,,,,,,,60ff24bf3e0082c513062186,61036f3222b2f12b331285d9,2021-07-29_20h17.34.327,Simcolourproject_2stim_asymm_v5,2020.2.10,MacIntel,60,61025ae37ef11b136ea224fe,,,,,,,,,3515,67.30859375,-34.66015625,1,0,0,response3disk,,5,21.5546875,-11.66015625,1,0,0,rectangle,21.5546875,-11.66015625,1,0,0,21.5546875,-11.66015625,1,0,0,0,129,129,51,1,,,,,,,,
,,,,,,,,,,,,,FF,,,,,,,,1.2337,,,,,,,,,,,,,,,,,,,,,,60ff24bf3e0082c513062186,61036f3222b2f12b331285d9,2021-07-29_20h17.34.327,Simcolourproject_2stim_asymm_v5,2020.2.10,MacIntel,60,61025ae37ef11b136ea224fe,,,,,,,,,9,-24.9453125,-54.0625,1,0,0,response5disk,,3,-10.29296875,3.90625,1,0,0,rectangle,-10.29296875,3.90625,1,0,0,-10.29296875,3.90625,1,0,0,0,130,130,148,1,,,,,,,,
,,,,,,,,,,,,,FF,,,,,,,,1.5663,,,,,,,,,,,,,,,,,,,,,,60ff24bf3e0082c513062186,61036f3222b2f12b331285d9,2021-07-29_20h17.34.327,Simcolourproject_2stim_asymm_v5,2020.2.10,MacIntel,60,61025ae37ef11b136ea224fe,,,,,,,,,3975,-38.4921875,-71.3203125,1,0,0,response5disk,,3,-2.46875,-15.40625,1,0,0,rectangle,85.125,40.86328125,1,0,0,10.09765625,-2.1328125,1,0,0,0,131,131,56,1,,response1disk_3,TRUE,6,6,"[152,67,270,132,278,263,217,168,23,6,233,20,314,283,144,209,196,283,7,155]",2.4995,rectangle
,,,,,,,,,,,,,FF,,,,,,,,1.5834,,,,,,,,,,,,,,,,,,,,,,60ff24bf3e0082c513062186,61036f3222b2f12b331285d9,2021-07-29_20h17.34.327,Simcolourproject_2stim_asymm_v5,2020.2.10,MacIntel,60,61025ae37ef11b136ea224fe,,,,,,,,,883,-38.19921875,57.2578125,1,0,0,response7disk,,0,-8.796875,-3.40234375,1,0,0,rectangle,-8.796875,-3.40234375,1,0,0,-8.796875,-3.40234375,1,0,0,0,132,132,114,1,,,,,,,,
,,,,,,,,,,,,,FF,,,,,,,,0.916,,,,,,,,,,,,,,,,,,,,,,60ff24bf3e0082c513062186,61036f3222b2f12b331285d9,2021-07-29_20h17.34.327,Simcolourproject_2stim_asymm_v5,2020.2.10,MacIntel,60,61025ae37ef11b136ea224fe,,,,,,,,,879,-43.62109375,-53.34375,1,0,0,response5disk,,3,2.34375,-6.69140625,1,0,0,rectangle,2.34375,-6.69140625,1,0,0,2.34375,-6.69140625,1,0,0,0,133,133,41,1,,,,,,,,
,,,,,,,,,,,,,FF,,,,,,,,1.2335,,,,,,,,,,,,,,,,,,,,,,60ff24bf3e0082c513062186,61036f3222b2f12b331285d9,2021-07-29_20h17.34.327,Simcolourproject_2stim_asymm_v5,2020.2.10,MacIntel,60,61025ae37ef11b136ea224fe,,,,,,,,,106,23.234375,-55,1,0,0,response3disk,,4,5.203125,10.453125,1,0,0,rectangle,5.203125,10.453125,1,0,0,5.203125,10.453125,1,0,0,0,134,134,118,1,,,,,,,,
,,,,,,,,,,,,,FF,,,,,,,,0.868,,,,,,,,,,,,,,,,,,,,,,60ff24bf3e0082c513062186,61036f3222b2f12b331285d9,2021-07-29_20h17.34.327,Simcolourproject_2stim_asymm_v5,2020.2.10,MacIntel,60,61025ae37ef11b136ea224fe,,,,,,,,,2119,-23.16796875,-35.05859375,1,0,0,response5disk,,3,-12.2734375,-2.359375,1,0,0,rectangle,-12.2734375,-2.359375,1,0,0,-12.2734375,-2.359375,1,0,0,0,135,135,115,1,,,,,,,,
,,,,,,,,,,,,,FF,,,,,,,,1.201,,,,,,,,,,,,,,,,,,,,,,60ff24bf3e0082c513062186,61036f3222b2f12b331285d9,2021-07-29_20h17.34.327,Simcolourproject_2stim_asymm_v5,2020.2.10,MacIntel,60,61025ae37ef11b136ea224fe,,,,,,,,,1160,-71.078125,-27.84765625,1,0,0,response5disk,,2,1.87890625,-10.33984375,1,0,0,rectangle,1.87890625,-10.33984375,1,0,0,1.87890625,-10.33984375,1,0,0,0,136,136,99,1,,,,,,,,
,,,,,,,,,,,,,FF,,,,,,,,1.4156,,,,,,,,,,,,,,,,,,,,,,60ff24bf3e0082c513062186,61036f3222b2f12b331285d9,2021-07-29_20h17.34.327,Simcolourproject_2stim_asymm_v5,2020.2.10,MacIntel,60,61025ae37ef11b136ea224fe,,,,,,,,,226,-51,-22.8515625,1,0,0,response5disk,,2,1.36328125,0.76953125,1,0,0,rectangle,1.36328125,0.76953125,1,0,0,1.36328125,0.76953125,1,0,0,0,137,137,2,1,,,,,,,,
,,,,,,,,,,,,,FF,,,,,,,,0.8989,,,,,,,,,,,,,,,,,,,,,,60ff24bf3e0082c513062186,61036f3222b2f12b331285d9,2021-07-29_20h17.34.327,Simcolourproject_2stim_asymm_v5,2020.2.10,MacIntel,60,61025ae37ef11b136ea224fe,,,,,,,,,2413,25.15625,-51.98046875,1,0,0,response3disk,,4,14.84375,0.1484375,1,0,0,rectangle,14.84375,0.1484375,1,0,0,14.84375,0.1484375,1,0,0,0,138,138,11,1,,,,,,,,
,,,,,,,,,,,,,FF,,,,,,,,0.6337,,,,,,,,,,,,,,,,,,,,,,60ff24bf3e0082c513062186,61036f3222b2f12b331285d9,2021-07-29_20h17.34.327,Simcolourproject_2stim_asymm_v5,2020.2.10,MacIntel,60,61025ae37ef11b136ea224fe,,,,,,,,,971,30.48046875,-63.69921875,1,0,0,response3disk,,4,4.04296875,1.1953125,1,0,0,rectangle,4.04296875,1.1953125,1,0,0,4.04296875,1.1953125,1,0,0,0,139,139,84,1,,,,,,,,
,,,,,,,,,,,,,FF,,,,,,,,0.7167,,,,,,,,,,,,,,,,,,,,,,60ff24bf3e0082c513062186,61036f3222b2f12b331285d9,2021-07-29_20h17.34.327,Simcolourproject_2stim_asymm_v5,2020.2.10,MacIntel,60,61025ae37ef11b136ea224fe,,,,,,,,,3068,-37.7734375,-45.01953125,1,0,0,response5disk,,3,-20.94140625,-7.984375,1,0,0,rectangle,-20.94140625,-7.984375,1,0,0,-20.94140625,-7.984375,1,0,0,0,140,140,47,1,,,,,,,,
,,,,,,,,,,,,,FF,,,,,,,,0.717,,,,,,,,,,,,,,,,,,,,,,60ff24bf3e0082c513062186,61036f3222b2f12b331285d9,2021-07-29_20h17.34.327,Simcolourproject_2stim_asymm_v5,2020.2.10,MacIntel,60,61025ae37ef11b136ea224fe,,,,,,,,,894,41.46875,-68.07421875,1,0,0,response3disk,,4,17.67578125,-6.07421875,1,0,0,rectangle,17.67578125,-6.07421875,1,0,0,17.67578125,-6.07421875,1,0,0,0,141,141,91,1,,,,,,,,
,,,,,,,,,,,,,FF,,,,,,,,0.7181,,,,,,,,,,,,,,,,,,,,,,60ff24bf3e0082c513062186,61036f3222b2f12b331285d9,2021-07-29_20h17.34.327,Simcolourproject_2stim_asymm_v5,2020.2.10,MacIntel,60,61025ae37ef11b136ea224fe,,,,,,,,,4006,61.14453125,-42.5078125,1,0,0,response3disk,,5,15.90234375,-1.1953125,1,0,0,rectangle,15.90234375,-1.1953125,1,0,0,15.90234375,-1.1953125,1,0,0,0,142,142,17,1,,,,,,,,
,,,,,,,,,,,,,FF,,,,,,,,0.7328,,,,,,,,,,,,,,,,,,,,,,60ff24bf3e0082c513062186,61036f3222b2f12b331285d9,2021-07-29_20h17.34.327,Simcolourproject_2stim_asymm_v5,2020.2.10,MacIntel,60,61025ae37ef11b136ea224fe,,,,,,,,,1007,-55.4453125,-24.05078125,1,0,0,response5disk,,2,11.171875,10.1171875,1,0,0,rectangle,-88.875,48.26953125,1,0,0,8.12109375,-7.05078125,1,0,0,0,143,143,5,1,,response7disk_3,TRUE,1,1,"[152,67,270,132,278,263,217,168,23,6,233,20,314,283,144,209,196,283,7,155]",1.9325,rectangle
,,,,,,,,,,,,,FF,,,,,,,,1.9833,,,,,,,,,,,,,,,,,,,,,,60ff24bf3e0082c513062186,61036f3222b2f12b331285d9,2021-07-29_20h17.34.327,Simcolourproject_2stim_asymm_v5,2020.2.10,MacIntel,60,61025ae37ef11b136ea224fe,,,,,,,,,3007,87.609375,44.7109375,1,0,0,response1disk,,6,5.17578125,-1.99609375,1,0,0,rectangle,5.17578125,-1.99609375,1,0,0,5.17578125,-1.99609375,1,0,0,0,144,144,23,1,,,,,,,,
,,,,,,,,,,,,,FF,,,,,,,,1.1488,,,,,,,,,,,,,,,,,,,,,,60ff24bf3e0082c513062186,61036f3222b2f12b331285d9,2021-07-29_20h17.34.327,Simcolourproject_2stim_asymm_v5,2020.2.10,MacIntel,60,61025ae37ef11b136ea224fe,,,,,,,,,700,-61.71875,-42.26953125,1,0,0,response5disk,,2,1.58984375,5.3984375,1,0,0,rectangle,1.58984375,5.3984375,1,0,0,1.58984375,5.3984375,1,0,0,0,145,145,141,1,,,,,,,,
,,,,,,,,,,,,,FF,,,,,,,,0.801,,,,,,,,,,,,,,,,,,,,,,60ff24bf3e0082c513062186,61036f3222b2f12b331285d9,2021-07-29_20h17.34.327,Simcolourproject_2stim_asymm_v5,2020.2.10,MacIntel,60,61025ae37ef11b136ea224fe,,,,,,,,,90,-29.37890625,46.99609375,1,0,0,response7disk,,0,-12.17578125,4,1,0,0,rectangle,-12.17578125,4,1,0,0,-12.17578125,4,1,0,0,0,146,146,43,1,,,,,,,,
,,,,,,,,,,,,,FF,,,,,,,,0.6663,,,,,,,,,,,,,,,,,,,,,,60ff24bf3e0082c513062186,61036f3222b2f12b331285d9,2021-07-29_20h17.34.327,Simcolourproject_2stim_asymm_v5,2020.2.10,MacIntel,60,61025ae37ef11b136ea224fe,,,,,,,,,3876,-23.76953125,34.16796875,1,0,0,response7disk,,0,-10.33203125,-6.4296875,1,0,0,rectangle,-10.33203125,-6.4296875,1,0,0,-10.33203125,-6.4296875,1,0,0,0,147,147,14,1,,,,,,,,
,,,,,,,,,,,,,FF,,,,,,,,0.8334,,,,,,,,,,,,,,,,,,,,,,60ff24bf3e0082c513062186,61036f3222b2f12b331285d9,2021-07-29_20h17.34.327,Simcolourproject_2stim_asymm_v5,2020.2.10,MacIntel,60,61025ae37ef11b136ea224fe,,,,,,,,,3178,-55.14453125,45.1953125,1,0,0,response7disk,,1,-13.59765625,10.69921875,1,0,0,rectangle,-13.59765625,10.69921875,1,0,0,-13.59765625,10.69921875,1,0,0,0,148,148,19,1,,,,,,,,
,,,,,,,,,,,,,FF,,,,,,,,0.6325,,,,,,,,,,,,,,,,,,,,,,60ff24bf3e0082c513062186,61036f3222b2f12b331285d9,2021-07-29_20h17.34.327,Simcolourproject_2stim_asymm_v5,2020.2.10,MacIntel,60,61025ae37ef11b136ea224fe,,,,,,,,,34,-20.78515625,35.625,1,0,0,response7disk,,0,-4.0625,-1.31640625,1,0,0,rectangle,-4.0625,-1.31640625,1,0,0,-4.0625,-1.31640625,1,0,0,0,149,149,106,1,,,,,,,,
,,,,,,,,,,,,,FF,,,,,,,,0.85,,,,,,,,,,,,,,,,,,,,,,60ff24bf3e0082c513062186,61036f3222b2f12b331285d9,2021-07-29_20h17.34.327,Simcolourproject_2stim_asymm_v5,2020.2.10,MacIntel,60,61025ae37ef11b136ea224fe,,,,,,,,,426,-24.8359375,-40.3515625,1,0,0,response5disk,,3,-1.96484375,-2.19921875,1,0,0,rectangle,-1.96484375,-2.19921875,1,0,0,-1.96484375,-2.19921875,1,0,0,0,150,150,9,1,,,,,,,,
,,,,,,,,,,,,,FF,,,,,,,,0.8837,,,,,,,,,,,,,,,,,,,,,,60ff24bf3e0082c513062186,61036f3222b2f12b331285d9,2021-07-29_20h17.34.327,Simcolourproject_2stim_asymm_v5,2020.2.10,MacIntel,60,61025ae37ef11b136ea224fe,,,,,,,,,772,-44.80078125,45.26171875,1,0,0,response7disk,,0,-12.58203125,6.46484375,1,0,0,rectangle,49.56640625,75.7890625,1,0,0,12.1484375,1.87109375,1,0,0,0,151,151,159,1,,response1disk_3,TRUE,7,7,"[152,67,270,132,278,263,217,168,23,6,233,20,314,283,144,209,196,283,7,155]",1.9489,rectangle
,,,,,,,,,,,,,FF,,,,,,,,0.7666,,,,,,,,,,,,,,,,,,,,,,60ff24bf3e0082c513062186,61036f3222b2f12b331285d9,2021-07-29_20h17.34.327,Simcolourproject_2stim_asymm_v5,2020.2.10,MacIntel,60,61025ae37ef11b136ea224fe,,,,,,,,,4037,-44.13671875,46.59765625,1,0,0,response7disk,,0,-7.90625,-5.375,1,0,0,rectangle,-7.90625,-5.375,1,0,0,-7.90625,-5.375,1,0,0,0,152,152,104,1,,,,,,,,
,,,,,,,,,,,,,FF,,,,,,,,0.7012,,,,,,,,,,,,,,,,,,,,,,60ff24bf3e0082c513062186,61036f3222b2f12b331285d9,2021-07-29_20h17.34.327,Simcolourproject_2stim_asymm_v5,2020.2.10,MacIntel,60,61025ae37ef11b136ea224fe,,,,,,,,,2546,96.7421875,41.91796875,1,0,0,response1disk,,6,20.5859375,6.65625,1,0,0,rectangle,20.5859375,6.65625,1,0,0,20.5859375,6.65625,1,0,0,0,153,153,109,1,,,,,,,,
,,,,,,,,,,,,,FF,,,,,,,,0.9499,,,,,,,,,,,,,,,,,,,,,,60ff24bf3e0082c513062186,61036f3222b2f12b331285d9,2021-07-29_20h17.34.327,Simcolourproject_2stim_asymm_v5,2020.2.10,MacIntel,60,61025ae37ef11b136ea224fe,,,,,,,,,4147,55.953125,26.20703125,1,0,0,response1disk,,6,9.2890625,1.19921875,1,0,0,rectangle,34.01953125,-88.703125,1,0,0,5.56640625,0.1484375,1,0,0,0,154,154,82,1,,response3disk_3,TRUE,4,4,"[152,67,270,132,278,263,217,168,23,6,233,20,314,283,144,209,196,283,7,155]",1.5825,rectangle
,,,,,,,,,,,,,FF,,,,,,,,0.6833,,,,,,,,,,,,,,,,,,,,,,60ff24bf3e0082c513062186,61036f3222b2f12b331285d9,2021-07-29_20h17.34.327,Simcolourproject_2stim_asymm_v5,2020.2.10,MacIntel,60,61025ae37ef11b136ea224fe,,,,,,,,,3581,-35.64453125,56.375,1,0,0,response7disk,,0,-17.89453125,7.78515625,1,0,0,rectangle,-17.89453125,7.78515625,1,0,0,-17.89453125,7.78515625,1,0,0,0,155,155,107,1,,,,,,,,
,,,,,,,,,,,,,FF,,,,,,,,0.7318,,,,,,,,,,,,,,,,,,,,,,60ff24bf3e0082c513062186,61036f3222b2f12b331285d9,2021-07-29_20h17.34.327,Simcolourproject_2stim_asymm_v5,2020.2.10,MacIntel,60,61025ae37ef11b136ea224fe,,,,,,,,,953,-33.94921875,-44.72265625,1,0,0,response5disk,,3,-5.62890625,-5.796875,1,0,0,rectangle,-5.62890625,-5.796875,1,0,0,-5.62890625,-5.796875,1,0,0,0,156,156,153,1,,,,,,,,
,,,,,,,,,,,,,FF,,,,,,,,0.9169,,,,,,,,,,,,,,,,,,,,,,60ff24bf3e0082c513062186,61036f3222b2f12b331285d9,2021-07-29_20h17.34.327,Simcolourproject_2stim_asymm_v5,2020.2.10,MacIntel,60,61025ae37ef11b136ea224fe,,,,,,,,,3220,-38.27734375,-26.0703125,1,0,0,response5disk,,2,3.9765625,0.8125,1,0,0,rectangle,3.9765625,0.8125,1,0,0,3.9765625,0.8125,1,0,0,0,157,157,20,1,,,,,,,,
,,,,,,,,,,,,,FF,,,,,,,,0.7158,,,,,,,,,,,,,,,,,,,,,,60ff24bf3e0082c513062186,61036f3222b2f12b331285d9,2021-07-29_20h17.34.327,Simcolourproject_2stim_asymm_v5,2020.2.10,MacIntel,60,61025ae37ef11b136ea224fe,,,,,,,,,3159,46.5546875,-35.57421875,1,0,0,response3disk,,5,-0.56640625,3.44921875,1,0,0,rectangle,-0.56640625,3.44921875,1,0,0,-0.56640625,3.44921875,1,0,0,0,158,158,110,1,,,,,,,,
,,,,,,,,,,,,,FF,,,,,,,,0.8494,,,,,,,,,,,,,,,,,,,,,,60ff24bf3e0082c513062186,61036f3222b2f12b331285d9,2021-07-29_20h17.34.327,Simcolourproject_2stim_asymm_v5,2020.2.10,MacIntel,60,61025ae37ef11b136ea224fe,,,,,,,,,2882,48.23828125,-65.4453125,1,0,0,response3disk,,4,15.8125,-8.265625,1,0,0,rectangle,15.8125,-8.265625,1,0,0,15.8125,-8.265625,1,0,0,0,159,159,67,1,,,,,,,,
,,,,,,,,,,,,,FF,,,,,,,,0.7652,,,,,,,,,,,,,,,,,,,,,,60ff24bf3e0082c513062186,61036f3222b2f12b331285d9,2021-07-29_20h17.34.327,Simcolourproject_2stim_asymm_v5,2020.2.10,MacIntel,60,61025ae37ef11b136ea224fe,,,,,,,,,1743,26.2109375,55.875,1,0,0,response1disk,,7,5.6328125,-4.61328125,1,0,0,rectangle,5.6328125,-4.61328125,1,0,0,5.6328125,-4.61328125,1,0,0,1,0,160,94,1,,,,,,,,
,,,,,,,,,,,,,FF,,,,,,,,0.9316,,,,,,,,,,,,,,,,,,,,,,60ff24bf3e0082c513062186,61036f3222b2f12b331285d9,2021-07-29_20h17.34.327,Simcolourproject_2stim_asymm_v5,2020.2.10,MacIntel,60,61025ae37ef11b136ea224fe,,,,,,,,,2981,-55.54296875,21.62890625,1,0,0,response7disk,,1,-16.0078125,-8.6640625,1,0,0,rectangle,-16.0078125,-8.6640625,1,0,0,-16.0078125,-8.6640625,1,0,0,1,1,161,84,1,,,,,,,,
,,,,,,,,,,,,,FF,,,,,,,,0.6678,,,,,,,,,,,,,,,,,,,,,,60ff24bf3e0082c513062186,61036f3222b2f12b331285d9,2021-07-29_20h17.34.327,Simcolourproject_2stim_asymm_v5,2020.2.10,MacIntel,60,61025ae37ef11b136ea224fe,,,,,,,,,983,-18.90625,-55.9921875,1,0,0,response5disk,,3,1.828125,4.2734375,1,0,0,rectangle,1.828125,4.2734375,1,0,0,1.828125,4.2734375,1,0,0,1,2,162,2,1,,,,,,,,
,,,,,,,,,,,,,FF,,,,,,,,0.85,,,,,,,,,,,,,,,,,,,,,,60ff24bf3e0082c513062186,61036f3222b2f12b331285d9,2021-07-29_20h17.34.327,Simcolourproject_2stim_asymm_v5,2020.2.10,MacIntel,60,61025ae37ef11b136ea224fe,,,,,,,,,3929,-22.890625,25.58984375,1,0,0,response7disk,,0,-13.28125,-8.26953125,1,0,0,rectangle,-13.28125,-8.26953125,1,0,0,-13.28125,-8.26953125,1,0,0,1,3,163,14,1,,,,,,,,
,,,,,,,,,,,,,FF,,,,,,,,1.1835,,,,,,,,,,,,,,,,,,,,,,60ff24bf3e0082c513062186,61036f3222b2f12b331285d9,2021-07-29_20h17.34.327,Simcolourproject_2stim_asymm_v5,2020.2.10,MacIntel,60,61025ae37ef11b136ea224fe,,,,,,,,,3877,26.8203125,-72.71484375,1,0,0,response3disk,,4,17.296875,-10.140625,1,0,0,rectangle,17.296875,-10.140625,1,0,0,17.296875,-10.140625,1,0,0,1,4,164,16,1,,,,,,,,
,,,,,,,,,,,,,FF,,,,,,,,1.1326,,,,,,,,,,,,,,,,,,,,,,60ff24bf3e0082c513062186,61036f3222b2f12b331285d9,2021-07-29_20h17.34.327,Simcolourproject_2stim_asymm_v5,2020.2.10,MacIntel,60,61025ae37ef11b136ea224fe,,,,,,,,,4340,-23.4296875,-51.03515625,1,0,0,response5disk,,3,-9.86328125,7.1171875,1,0,0,rectangle,-9.86328125,7.1171875,1,0,0,-9.86328125,7.1171875,1,0,0,1,5,165,62,1,,,,,,,,
,,,,,,,,,,,,,FF,,,,,,,,0.6011,,,,,,,,,,,,,,,,,,,,,,60ff24bf3e0082c513062186,61036f3222b2f12b331285d9,2021-07-29_20h17.34.327,Simcolourproject_2stim_asymm_v5,2020.2.10,MacIntel,60,61025ae37ef11b136ea224fe,,,,,,,,,268,-25.11328125,45.58984375,1,0,0,response7disk,,0,-17.1171875,4.5546875,1,0,0,rectangle,-17.1171875,4.5546875,1,0,0,-17.1171875,4.5546875,1,0,0,1,6,166,151,1,,,,,,,,
,,,,,,,,,,,,,FF,,,,,,,,0.9338,,,,,,,,,,,,,,,,,,,,,,60ff24bf3e0082c513062186,61036f3222b2f12b331285d9,2021-07-29_20h17.34.327,Simcolourproject_2stim_asymm_v5,2020.2.10,MacIntel,60,61025ae37ef11b136ea224fe,,,,,,,,,1313,78.7265625,-38.85546875,1,0,0,response3disk,,5,24.77734375,-5.53515625,1,0,0,rectangle,34.80859375,70.46484375,1,0,0,19.328125,-4.90625,1,0,0,1,7,167,109,1,,response1disk_3,TRUE,7,7,"[152,67,270,132,278,263,217,168,23,6,233,20,314,283,144,209,196,283,7,155]",2.1651,rectangle
,,,,,,,,,,,,,FF,,,,,,,,0.9494,,,,,,,,,,,,,,,,,,,,,,60ff24bf3e0082c513062186,61036f3222b2f12b331285d9,2021-07-29_20h17.34.327,Simcolourproject_2stim_asymm_v5,2020.2.10,MacIntel,60,61025ae37ef11b136ea224fe,,,,,,,,,3959,-27.37890625,-49.9765625,1,0,0,response5disk,,3,-10.86328125,-0.44921875,1,0,0,rectangle,-10.86328125,-0.44921875,1,0,0,-10.86328125,-0.44921875,1,0,0,1,8,168,74,1,,,,,,,,
,,,,,,,,,,,,,FF,,,,,,,,0.7658,,,,,,,,,,,,,,,,,,,,,,60ff24bf3e0082c513062186,61036f3222b2f12b331285d9,2021-07-29_20h17.34.327,Simcolourproject_2stim_asymm_v5,2020.2.10,MacIntel,60,61025ae37ef11b136ea224fe,,,,,,,,,1038,18.52734375,-52.36328125,1,0,0,response3disk,,4,10.08203125,0.13671875,1,0,0,rectangle,10.08203125,0.13671875,1,0,0,10.08203125,0.13671875,1,0,0,1,9,169,123,1,,,,,,,,
,,,,,,,,,,,,,FF,,,,,,,,0.8997,,,,,,,,,,,,,,,,,,,,,,60ff24bf3e0082c513062186,61036f3222b2f12b331285d9,2021-07-29_20h17.34.327,Simcolourproject_2stim_asymm_v5,2020.2.10,MacIntel,60,61025ae37ef11b136ea224fe,,,,,,,,,1725,-43.86328125,-29.7890625,1,0,0,response5disk,,2,3.109375,-8.24609375,1,0,0,rectangle,3.109375,-8.24609375,1,0,0,3.109375,-8.24609375,1,0,0,1,10,170,125,1,,,,,,,,
,,,,,,,,,,,,,FF,,,,,,,,0.7481,,,,,,,,,,,,,,,,,,,,,,60ff24bf3e0082c513062186,61036f3222b2f12b331285d9,2021-07-29_20h17.34.327,Simcolourproject_2stim_asymm_v5,2020.2.10,MacIntel,60,61025ae37ef11b136ea224fe,,,,,,,,,4274,-15.99609375,-37.41796875,1,0,0,response5disk,,3,-6.90625,-8.578125,1,0,0,rectangle,-6.90625,-8.578125,1,0,0,-6.90625,-8.578125,1,0,0,1,11,171,58,1,,,,,,,,
,,,,,,,,,,,,,FF,,,,,,,,0.5819,,,,,,,,,,,,,,,,,,,,,,60ff24bf3e0082c513062186,61036f3222b2f12b331285d9,2021-07-29_20h17.34.327,Simcolourproject_2stim_asymm_v5,2020.2.10,MacIntel,60,61025ae37ef11b136ea224fe,,,,,,,,,419,-26.4765625,45.41015625,1,0,0,response7disk,,0,-5.90625,-2.80859375,1,0,0,rectangle,-5.90625,-2.80859375,1,0,0,-5.90625,-2.80859375,1,0,0,1,12,172,150,1,,,,,,,,
,,,,,,,,,,,,,FF,,,,,,,,0.8484,,,,,,,,,,,,,,,,,,,,,,60ff24bf3e0082c513062186,61036f3222b2f12b331285d9,2021-07-29_20h17.34.327,Simcolourproject_2stim_asymm_v5,2020.2.10,MacIntel,60,61025ae37ef11b136ea224fe,,,,,,,,,431,40.90234375,-17.23828125,1,0,0,response3disk,,5,15.65625,-5.33984375,1,0,0,rectangle,15.65625,-5.33984375,1,0,0,15.65625,-5.33984375,1,0,0,1,13,173,86,1,,,,,,,,
,,,,,,,,,,,,,FF,,,,,,,,0.7485,,,,,,,,,,,,,,,,,,,,,,60ff24bf3e0082c513062186,61036f3222b2f12b331285d9,2021-07-29_20h17.34.327,Simcolourproject_2stim_asymm_v5,2020.2.10,MacIntel,60,61025ae37ef11b136ea224fe,,,,,,,,,2340,-32.91015625,-24.73828125,1,0,0,response5disk,,2,-2.41796875,6.8203125,1,0,0,rectangle,-2.41796875,6.8203125,1,0,0,-2.41796875,6.8203125,1,0,0,1,14,174,136,1,,,,,,,,
,,,,,,,,,,,,,FF,,,,,,,,0.6331,,,,,,,,,,,,,,,,,,,,,,60ff24bf3e0082c513062186,61036f3222b2f12b331285d9,2021-07-29_20h17.34.327,Simcolourproject_2stim_asymm_v5,2020.2.10,MacIntel,60,61025ae37ef11b136ea224fe,,,,,,,,,182,-30.76171875,38.13671875,1,0,0,response7disk,,0,-16.04296875,8.25390625,1,0,0,rectangle,-16.04296875,8.25390625,1,0,0,-16.04296875,8.25390625,1,0,0,1,15,175,24,1,,,,,,,,
,,,,,,,,,,,,,FF,,,,,,,,1.4188,,,,,,,,,,,,,,,,,,,,,,60ff24bf3e0082c513062186,61036f3222b2f12b331285d9,2021-07-29_20h17.34.327,Simcolourproject_2stim_asymm_v5,2020.2.10,MacIntel,60,61025ae37ef11b136ea224fe,,,,,,,,,2613,65.13671875,34.8671875,1,0,0,response1disk,,6,7.88671875,5.34375,1,0,0,rectangle,7.88671875,5.34375,1,0,0,7.88671875,5.34375,1,0,0,1,16,176,37,1,,,,,,,,
,,,,,,,,,,,,,FF,,,,,,,,0.5984,,,,,,,,,,,,,,,,,,,,,,60ff24bf3e0082c513062186,61036f3222b2f12b331285d9,2021-07-29_20h17.34.327,Simcolourproject_2stim_asymm_v5,2020.2.10,MacIntel,60,61025ae37ef11b136ea224fe,,,,,,,,,203,-29.55859375,36.6484375,1,0,0,response7disk,,0,-13.93359375,-8.69921875,1,0,0,rectangle,-13.93359375,-8.69921875,1,0,0,-13.93359375,-8.69921875,1,0,0,1,17,177,98,1,,,,,,,,
,,,,,,,,,,,,,FF,,,,,,,,0.8495,,,,,,,,,,,,,,,,,,,,,,60ff24bf3e0082c513062186,61036f3222b2f12b331285d9,2021-07-29_20h17.34.327,Simcolourproject_2stim_asymm_v5,2020.2.10,MacIntel,60,61025ae37ef11b136ea224fe,,,,,,,,,2759,-38.20703125,55.359375,1,0,0,response7disk,,0,-17.3984375,-8.78125,1,0,0,rectangle,-17.3984375,-8.78125,1,0,0,-17.3984375,-8.78125,1,0,0,1,18,178,79,1,,,,,,,,
,,,,,,,,,,,,,FF,,,,,,,,0.8844,,,,,,,,,,,,,,,,,,,,,,60ff24bf3e0082c513062186,61036f3222b2f12b331285d9,2021-07-29_20h17.34.327,Simcolourproject_2stim_asymm_v5,2020.2.10,MacIntel,60,61025ae37ef11b136ea224fe,,,,,,,,,3604,33.48828125,-77.3046875,1,0,0,response3disk,,4,1.89453125,7.0546875,1,0,0,rectangle,1.89453125,7.0546875,1,0,0,1.89453125,7.0546875,1,0,0,1,19,179,144,1,,,,,,,,
,,,,,,,,,,,,,FF,,,,,,,,0.7664,,,,,,,,,,,,,,,,,,,,,,60ff24bf3e0082c513062186,61036f3222b2f12b331285d9,2021-07-29_20h17.34.327,Simcolourproject_2stim_asymm_v5,2020.2.10,MacIntel,60,61025ae37ef11b136ea224fe,,,,,,,,,3845,-37.14453125,-25.92578125,1,0,0,response5disk,,2,10.36328125,7.5546875,1,0,0,rectangle,10.36328125,7.5546875,1,0,0,10.36328125,7.5546875,1,0,0,1,20,180,133,1,,,,,,,,
,,,,,,,,,,,,,FF,,,,,,,,2.884,,,,,,,,,,,,,,,,,,,,,,60ff24bf3e0082c513062186,61036f3222b2f12b331285d9,2021-07-29_20h17.34.327,Simcolourproject_2stim_asymm_v5,2020.2.10,MacIntel,60,61025ae37ef11b136ea224fe,,,,,,,,,2477,47.21484375,21.23046875,1,0,0,response1disk,,6,10.28515625,-5.9296875,1,0,0,rectangle,10.28515625,-5.9296875,1,0,0,10.28515625,-5.9296875,1,0,0,1,21,181,49,1,,,,,,,,
,,,,,,,,,,,,,FF,,,,,,,,0.9997,,,,,,,,,,,,,,,,,,,,,,60ff24bf3e0082c513062186,61036f3222b2f12b331285d9,2021-07-29_20h17.34.327,Simcolourproject_2stim_asymm_v5,2020.2.10,MacIntel,60,61025ae37ef11b136ea224fe,,,,,,,,,3789,50.79296875,28.2265625,1,0,0,response1disk,,6,25.01171875,6.86328125,1,0,0,rectangle,25.01171875,6.86328125,1,0,0,25.01171875,6.86328125,1,0,0,1,22,182,120,1,,,,,,,,
,,,,,,,,,,,,,FF,,,,,,,,0.8489,,,,,,,,,,,,,,,,,,,,,,60ff24bf3e0082c513062186,61036f3222b2f12b331285d9,2021-07-29_20h17.34.327,Simcolourproject_2stim_asymm_v5,2020.2.10,MacIntel,60,61025ae37ef11b136ea224fe,,,,,,,,,2182,-30.7734375,-55.2890625,1,0,0,response5disk,,3,-12.23046875,-4.33203125,1,0,0,rectangle,-12.23046875,-4.33203125,1,0,0,-12.23046875,-4.33203125,1,0,0,1,23,183,22,1,,,,,,,,
,,,,,,,,,,,,,FF,,,,,,,,0.7148,,,,,,,,,,,,,,,,,,,,,,60ff24bf3e0082c513062186,61036f3222b2f12b331285d9,2021-07-29_20h17.34.327,Simcolourproject_2stim_asymm_v5,2020.2.10,MacIntel,60,61025ae37ef11b136ea224fe,,,,,,,,,284,35.47265625,-47.0546875,1,0,0,response3disk,,4,18.20703125,-9.0625,1,0,0,rectangle,18.20703125,-9.0625,1,0,0,18.20703125,-9.0625,1,0,0,1,24,184,8,1,,,,,,,,
,,,,,,,,,,,,,FF,,,,,,,,1.1996,,,,,,,,,,,,,,,,,,,,,,60ff24bf3e0082c513062186,61036f3222b2f12b331285d9,2021-07-29_20h17.34.327,Simcolourproject_2stim_asymm_v5,2020.2.10,MacIntel,60,61025ae37ef11b136ea224fe,,,,,,,,,79,56.34375,39.58984375,1,0,0,response1disk,,6,13.59765625,-0.2578125,1,0,0,rectangle,13.59765625,-0.2578125,1,0,0,13.59765625,-0.2578125,1,0,0,1,25,185,32,1,,,,,,,,
,,,,,,,,,,,,,FF,,,,,,,,0.8165,,,,,,,,,,,,,,,,,,,,,,60ff24bf3e0082c513062186,61036f3222b2f12b331285d9,2021-07-29_20h17.34.327,Simcolourproject_2stim_asymm_v5,2020.2.10,MacIntel,60,61025ae37ef11b136ea224fe,,,,,,,,,2452,-42.50390625,-38.34375,1,0,0,response5disk,,2,-2.50390625,-7.9375,1,0,0,rectangle,-2.50390625,-7.9375,1,0,0,-2.50390625,-7.9375,1,0,0,1,26,186,40,1,,,,,,,,
,,,,,,,,,,,,,FF,,,,,,,,0.7991,,,,,,,,,,,,,,,,,,,,,,60ff24bf3e0082c513062186,61036f3222b2f12b331285d9,2021-07-29_20h17.34.327,Simcolourproject_2stim_asymm_v5,2020.2.10,MacIntel,60,61025ae37ef11b136ea224fe,,,,,,,,,715,-23.83203125,30.05859375,1,0,0,response7disk,,0,5.34765625,4.1953125,1,0,0,rectangle,5.34765625,4.1953125,1,0,0,5.34765625,4.1953125,1,0,0,1,27,187,119,1,,,,,,,,
,,,,,,,,,,,,,FF,,,,,,,,0.6148,,,,,,,,,,,,,,,,,,,,,,60ff24bf3e0082c513062186,61036f3222b2f12b331285d9,2021-07-29_20h17.34.327,Simcolourproject_2stim_asymm_v5,2020.2.10,MacIntel,60,61025ae37ef11b136ea224fe,,,,,,,,,1730,-28.41015625,42.59765625,1,0,0,response7disk,,0,-12.8359375,10.4453125,1,0,0,rectangle,-12.8359375,10.4453125,1,0,0,-12.8359375,10.4453125,1,0,0,1,28,188,126,1,,,,,,,,
,,,,,,,,,,,,,FF,,,,,,,,0.7325,,,,,,,,,,,,,,,,,,,,,,60ff24bf3e0082c513062186,61036f3222b2f12b331285d9,2021-07-29_20h17.34.327,Simcolourproject_2stim_asymm_v5,2020.2.10,MacIntel,60,61025ae37ef11b136ea224fe,,,,,,,,,2620,65.67578125,-31.80859375,1,0,0,response3disk,,5,13.375,-0.171875,1,0,0,rectangle,13.375,-0.171875,1,0,0,13.375,-0.171875,1,0,0,1,29,189,141,1,,,,,,,,
,,,,,,,,,,,,,FF,,,,,,,,0.8325,,,,,,,,,,,,,,,,,,,,,,60ff24bf3e0082c513062186,61036f3222b2f12b331285d9,2021-07-29_20h17.34.327,Simcolourproject_2stim_asymm_v5,2020.2.10,MacIntel,60,61025ae37ef11b136ea224fe,,,,,,,,,901,57.1875,26.18359375,1,0,0,response1disk,,6,1.171875,-16.47265625,1,0,0,rectangle,1.171875,-16.47265625,1,0,0,1.171875,-16.47265625,1,0,0,1,30,190,52,1,,,,,,,,
,,,,,,,,,,,,,FF,,,,,,,,1.2672,,,,,,,,,,,,,,,,,,,,,,60ff24bf3e0082c513062186,61036f3222b2f12b331285d9,2021-07-29_20h17.34.327,Simcolourproject_2stim_asymm_v5,2020.2.10,MacIntel,60,61025ae37ef11b136ea224fe,,,,,,,,,2002,-58.25,-37.36328125,1,0,0,response5disk,,2,-13.51171875,-3.99609375,1,0,0,rectangle,-13.51171875,-3.99609375,1,0,0,-13.51171875,-3.99609375,1,0,0,1,31,191,143,1,,,,,,,,
,,,,,,,,,,,,,FF,,,,,,,,0.8496,,,,,,,,,,,,,,,,,,,,,,60ff24bf3e0082c513062186,61036f3222b2f12b331285d9,2021-07-29_20h17.34.327,Simcolourproject_2stim_asymm_v5,2020.2.10,MacIntel,60,61025ae37ef11b136ea224fe,,,,,,,,,3146,30.52734375,68.3125,1,0,0,response1disk,,7,11.16796875,9.3515625,1,0,0,rectangle,11.16796875,9.3515625,1,0,0,11.16796875,9.3515625,1,0,0,1,32,192,157,1,,,,,,,,
,,,,,,,,,,,,,FF,,,,,,,,1.3488,,,,,,,,,,,,,,,,,,,,,,60ff24bf3e0082c513062186,61036f3222b2f12b331285d9,2021-07-29_20h17.34.327,Simcolourproject_2stim_asymm_v5,2020.2.10,MacIntel,60,61025ae37ef11b136ea224fe,,,,,,,,,486,-46.8046875,-30.140625,1,0,0,response5disk,,2,-5.6328125,-3.515625,1,0,0,rectangle,-5.6328125,-3.515625,1,0,0,-5.6328125,-3.515625,1,0,0,1,33,193,153,1,,,,,,,,
,,,,,,,,,,,,,FF,,,,,,,,0.7501,,,,,,,,,,,,,,,,,,,,,,60ff24bf3e0082c513062186,61036f3222b2f12b331285d9,2021-07-29_20h17.34.327,Simcolourproject_2stim_asymm_v5,2020.2.10,MacIntel,60,61025ae37ef11b136ea224fe,,,,,,,,,3087,-23.5234375,37.78125,1,0,0,response7disk,,0,-17.07421875,-0.56640625,1,0,0,rectangle,-17.07421875,-0.56640625,1,0,0,-17.07421875,-0.56640625,1,0,0,1,34,194,142,1,,,,,,,,
,,,,,,,,,,,,,FF,,,,,,,,0.998,,,,,,,,,,,,,,,,,,,,,,60ff24bf3e0082c513062186,61036f3222b2f12b331285d9,2021-07-29_20h17.34.327,Simcolourproject_2stim_asymm_v5,2020.2.10,MacIntel,60,61025ae37ef11b136ea224fe,,,,,,,,,418,-46.9921875,29.9375,1,0,0,response7disk,,1,-16.32421875,7.73828125,1,0,0,rectangle,-36.85546875,-63.8046875,1,0,0,2.23046875,-5.05078125,1,0,0,1,35,195,101,1,,response5disk_3,TRUE,3,3,"[152,67,270,132,278,263,217,168,23,6,233,20,314,283,144,209,196,283,7,155]",1.2864,rectangle
,,,,,,,,,,,,,FF,,,,,,,,0.8158,,,,,,,,,,,,,,,,,,,,,,60ff24bf3e0082c513062186,61036f3222b2f12b331285d9,2021-07-29_20h17.34.327,Simcolourproject_2stim_asymm_v5,2020.2.10,MacIntel,60,61025ae37ef11b136ea224fe,,,,,,,,,516,32.71484375,-50.71875,1,0,0,response3disk,,4,16.99609375,-4,1,0,0,rectangle,16.99609375,-4,1,0,0,16.99609375,-4,1,0,0,1,36,196,64,1,,,,,,,,
,,,,,,,,,,,,,FF,,,,,,,,0.7157,,,,,,,,,,,,,,,,,,,,,,60ff24bf3e0082c513062186,61036f3222b2f12b331285d9,2021-07-29_20h17.34.327,Simcolourproject_2stim_asymm_v5,2020.2.10,MacIntel,60,61025ae37ef11b136ea224fe,,,,,,,,,1959,52.77734375,36.2890625,1,0,0,response1disk,,6,10.3125,-5.04296875,1,0,0,rectangle,10.3125,-5.04296875,1,0,0,10.3125,-5.04296875,1,0,0,1,37,197,158,1,,,,,,,,
,,,,,,,,,,,,,FF,,,,,,,,0.8319,,,,,,,,,,,,,,,,,,,,,,60ff24bf3e0082c513062186,61036f3222b2f12b331285d9,2021-07-29_20h17.34.327,Simcolourproject_2stim_asymm_v5,2020.2.10,MacIntel,60,61025ae37ef11b136ea224fe,,,,,,,,,1493,-19.6328125,37.98828125,1,0,0,response7disk,,0,-11.5234375,4.22265625,1,0,0,rectangle,-11.5234375,4.22265625,1,0,0,-11.5234375,4.22265625,1,0,0,1,38,198,118,1,,,,,,,,
,,,,,,,,,,,,,FF,,,,,,,,0.6836,,,,,,,,,,,,,,,,,,,,,,60ff24bf3e0082c513062186,61036f3222b2f12b331285d9,2021-07-29_20h17.34.327,Simcolourproject_2stim_asymm_v5,2020.2.10,MacIntel,60,61025ae37ef11b136ea224fe,,,,,,,,,2056,-50.96484375,28.40234375,1,0,0,response7disk,,1,-26.5703125,-0.54296875,1,0,0,rectangle,-26.5703125,-0.54296875,1,0,0,-26.5703125,-0.54296875,1,0,0,1,39,199,50,1,,,,,,,,
,,,,,,,,,,,,,FF,,,,,,,,0.6997,,,,,,,,,,,,,,,,,,,,,,60ff24bf3e0082c513062186,61036f3222b2f12b331285d9,2021-07-29_20h17.34.327,Simcolourproject_2stim_asymm_v5,2020.2.10,MacIntel,60,61025ae37ef11b136ea224fe,,,,,,,,,3361,-47.25390625,-26.6796875,1,0,0,response5disk,,2,-8.90625,-16.29296875,1,0,0,rectangle,-8.90625,-16.29296875,1,0,0,-8.90625,-16.29296875,1,0,0,1,40,200,51,1,,,,,,,,
,,,,,,,,,,,,,FF,,,,,,,,0.8148,,,,,,,,,,,,,,,,,,,,,,60ff24bf3e0082c513062186,61036f3222b2f12b331285d9,2021-07-29_20h17.34.327,Simcolourproject_2stim_asymm_v5,2020.2.10,MacIntel,60,61025ae37ef11b136ea224fe,,,,,,,,,2384,-21.05078125,32.578125,1,0,0,response7disk,,0,-13.41796875,-3.3046875,1,0,0,rectangle,-13.41796875,-3.3046875,1,0,0,-13.41796875,-3.3046875,1,0,0,1,41,201,26,1,,,,,,,,
,,,,,,,,,,,,,FF,,,,,,,,5.4499,,,,,,,,,,,,,,,,,,,,,,60ff24bf3e0082c513062186,61036f3222b2f12b331285d9,2021-07-29_20h17.34.327,Simcolourproject_2stim_asymm_v5,2020.2.10,MacIntel,60,61025ae37ef11b136ea224fe,,,,,,,,,1445,-35.140625,-42.6171875,1,0,0,response5disk,,3,-8.46484375,-6.4609375,1,0,0,rectangle,-8.46484375,-6.4609375,1,0,0,-8.46484375,-6.4609375,1,0,0,1,42,202,18,1,,,,,,,,
,,,,,,,,,,,,,FF,,,,,,,,1.1678,,,,,,,,,,,,,,,,,,,,,,60ff24bf3e0082c513062186,61036f3222b2f12b331285d9,2021-07-29_20h17.34.327,Simcolourproject_2stim_asymm_v5,2020.2.10,MacIntel,60,61025ae37ef11b136ea224fe,,,,,,,,,2885,-33.23046875,29.99609375,1,0,0,response7disk,,1,-10.125,-4.6484375,1,0,0,rectangle,-10.125,-4.6484375,1,0,0,-10.125,-4.6484375,1,0,0,1,43,203,69,1,,,,,,,,
,,,,,,,,,,,,,FF,,,,,,,,2.0505,,,,,,,,,,,,,,,,,,,,,,60ff24bf3e0082c513062186,61036f3222b2f12b331285d9,2021-07-29_20h17.34.327,Simcolourproject_2stim_asymm_v5,2020.2.10,MacIntel,60,61025ae37ef11b136ea224fe,,,,,,,,,2231,62.7109375,25.51171875,1,0,0,response1disk,,6,11.86328125,2.875,1,0,0,rectangle,11.86328125,2.875,1,0,0,11.86328125,2.875,1,0,0,1,44,204,29,1,,,,,,,,
,,,,,,,,,,,,,FF,,,,,,,,0.6502,,,,,,,,,,,,,,,,,,,,,,60ff24bf3e0082c513062186,61036f3222b2f12b331285d9,2021-07-29_20h17.34.327,Simcolourproject_2stim_asymm_v5,2020.2.10,MacIntel,60,61025ae37ef11b136ea224fe,,,,,,,,,3666,-22.0703125,44.7890625,1,0,0,response7disk,,0,-16.3125,6.8515625,1,0,0,rectangle,-16.3125,6.8515625,1,0,0,-16.3125,6.8515625,1,0,0,1,45,205,107,1,,,,,,,,
,,,,,,,,,,,,,FF,,,,,,,,0.8153,,,,,,,,,,,,,,,,,,,,,,60ff24bf3e0082c513062186,61036f3222b2f12b331285d9,2021-07-29_20h17.34.327,Simcolourproject_2stim_asymm_v5,2020.2.10,MacIntel,60,61025ae37ef11b136ea224fe,,,,,,,,,188,30.6171875,-42.22265625,1,0,0,response3disk,,4,17.2578125,-10.10546875,1,0,0,rectangle,17.2578125,-10.10546875,1,0,0,17.2578125,-10.10546875,1,0,0,1,46,206,130,1,,,,,,,,
,,,,,,,,,,,,,FF,,,,,,,,0.8832,,,,,,,,,,,,,,,,,,,,,,60ff24bf3e0082c513062186,61036f3222b2f12b331285d9,2021-07-29_20h17.34.327,Simcolourproject_2stim_asymm_v5,2020.2.10,MacIntel,60,61025ae37ef11b136ea224fe,,,,,,,,,3559,32.03515625,55.359375,1,0,0,response1disk,,7,12.99609375,-3.8203125,1,0,0,rectangle,12.99609375,-3.8203125,1,0,0,12.99609375,-3.8203125,1,0,0,1,47,207,111,1,,,,,,,,
,,,,,,,,,,,,,FF,,,,,,,,0.6845,,,,,,,,,,,,,,,,,,,,,,60ff24bf3e0082c513062186,61036f3222b2f12b331285d9,2021-07-29_20h17.34.327,Simcolourproject_2stim_asymm_v5,2020.2.10,MacIntel,60,61025ae37ef11b136ea224fe,,,,,,,,,2588,-49.04296875,-41.16015625,1,0,0,response5disk,,2,-0.796875,-7.80859375,1,0,0,rectangle,-26.92578125,-58.60546875,1,0,0,-7.87109375,-3.09375,1,0,0,1,48,208,135,1,,response5disk_3,TRUE,3,3,"[152,67,270,132,278,263,217,168,23,6,233,20,314,283,144,209,196,283,7,155]",1.5484,rectangle
,,,,,,,,,,,,,FF,,,,,,,,0.7333,,,,,,,,,,,,,,,,,,,,,,60ff24bf3e0082c513062186,61036f3222b2f12b331285d9,2021-07-29_20h17.34.327,Simcolourproject_2stim_asymm_v5,2020.2.10,MacIntel,60,61025ae37ef11b136ea224fe,,,,,,,,,1798,-23.890625,41.15234375,1,0,0,response7disk,,0,-8.1796875,-6.92578125,1,0,0,rectangle,-8.1796875,-6.92578125,1,0,0,-8.1796875,-6.92578125,1,0,0,1,49,209,147,1,,,,,,,,
,,,,,,,,,,,,,FF,,,,,,,,0.7599,,,,,,,,,,,,,,,,,,,,,,60ff24bf3e0082c513062186,61036f3222b2f12b331285d9,2021-07-29_20h17.34.327,Simcolourproject_2stim_asymm_v5,2020.2.10,MacIntel,60,61025ae37ef11b136ea224fe,,,,,,,,,3755,-34.66796875,-55.25,1,0,0,response5disk,,3,-4.015625,2.2734375,1,0,0,rectangle,-4.015625,2.2734375,1,0,0,-4.015625,2.2734375,1,0,0,1,50,210,61,1,,,,,,,,
,,,,,,,,,,,,,FF,,,,,,,,0.6329,,,,,,,,,,,,,,,,,,,,,,60ff24bf3e0082c513062186,61036f3222b2f12b331285d9,2021-07-29_20h17.34.327,Simcolourproject_2stim_asymm_v5,2020.2.10,MacIntel,60,61025ae37ef11b136ea224fe,,,,,,,,,3037,69.1484375,54.46875,1,0,0,response1disk,,6,12.24609375,-6.07421875,1,0,0,rectangle,12.24609375,-6.07421875,1,0,0,12.24609375,-6.07421875,1,0,0,1,51,211,93,1,,,,,,,,
,,,,,,,,,,,,,FF,,,,,,,,0.6648,,,,,,,,,,,,,,,,,,,,,,60ff24bf3e0082c513062186,61036f3222b2f12b331285d9,2021-07-29_20h17.34.327,Simcolourproject_2stim_asymm_v5,2020.2.10,MacIntel,60,61025ae37ef11b136ea224fe,,,,,,,,,3902,36.53515625,-54.27734375,1,0,0,response3disk,,4,14.72265625,-9.41796875,1,0,0,rectangle,14.72265625,-9.41796875,1,0,0,14.72265625,-9.41796875,1,0,0,1,52,212,75,1,,,,,,,,
,,,,,,,,,,,,,FF,,,,,,,,0.6173,,,,,,,,,,,,,,,,,,,,,,60ff24bf3e0082c513062186,61036f3222b2f12b331285d9,2021-07-29_20h17.34.327,Simcolourproject_2stim_asymm_v5,2020.2.10,MacIntel,60,61025ae37ef11b136ea224fe,,,,,,,,,4002,52.37109375,-39.734375,1,0,0,response3disk,,5,19.11328125,-5.9609375,1,0,0,rectangle,19.11328125,-5.9609375,1,0,0,19.11328125,-5.9609375,1,0,0,1,53,213,59,1,,,,,,,,
,,,,,,,,,,,,,FF,,,,,,,,0.6855,,,,,,,,,,,,,,,,,,,,,,60ff24bf3e0082c513062186,61036f3222b2f12b331285d9,2021-07-29_20h17.34.327,Simcolourproject_2stim_asymm_v5,2020.2.10,MacIntel,60,61025ae37ef11b136ea224fe,,,,,,,,,2648,-50.83203125,-32.9609375,1,0,0,response5disk,,2,-14.16015625,1.82421875,1,0,0,rectangle,-14.16015625,1.82421875,1,0,0,-14.16015625,1.82421875,1,0,0,1,54,214,35,1,,,,,,,,
,,,,,,,,,,,,,FF,,,,,,,,0.9173,,,,,,,,,,,,,,,,,,,,,,60ff24bf3e0082c513062186,61036f3222b2f12b331285d9,2021-07-29_20h17.34.327,Simcolourproject_2stim_asymm_v5,2020.2.10,MacIntel,60,61025ae37ef11b136ea224fe,,,,,,,,,3387,-42.11328125,-67.359375,1,0,0,response5disk,,3,18.91796875,0.71484375,1,0,0,rectangle,18.91796875,0.71484375,1,0,0,18.91796875,0.71484375,1,0,0,1,55,215,60,1,,,,,,,,
,,,,,,,,,,,,,FF,,,,,,,,1.5675,,,,,,,,,,,,,,,,,,,,,,60ff24bf3e0082c513062186,61036f3222b2f12b331285d9,2021-07-29_20h17.34.327,Simcolourproject_2stim_asymm_v5,2020.2.10,MacIntel,60,61025ae37ef11b136ea224fe,,,,,,,,,1592,-57.5,-39.14453125,1,0,0,response5disk,,2,-20.59765625,-14.08203125,1,0,0,rectangle,-60.34765625,25.5,1,0,0,10.7109375,5.234375,1,0,0,1,56,216,92,1,,response7disk_3,TRUE,1,1,"[152,67,270,132,278,263,217,168,23,6,233,20,314,283,144,209,196,283,7,155]",1.5164,rectangle
,,,,,,,,,,,,,FF,,,,,,,,0.851,,,,,,,,,,,,,,,,,,,,,,60ff24bf3e0082c513062186,61036f3222b2f12b331285d9,2021-07-29_20h17.34.327,Simcolourproject_2stim_asymm_v5,2020.2.10,MacIntel,60,61025ae37ef11b136ea224fe,,,,,,,,,3719,32.07421875,-38.5625,1,0,0,response3disk,,4,8.5625,-4.24609375,1,0,0,rectangle,8.5625,-4.24609375,1,0,0,8.5625,-4.24609375,1,0,0,1,57,217,96,1,,,,,,,,
,,,,,,,,,,,,,FF,,,,,,,,0.8006,,,,,,,,,,,,,,,,,,,,,,60ff24bf3e0082c513062186,61036f3222b2f12b331285d9,2021-07-29_20h17.34.327,Simcolourproject_2stim_asymm_v5,2020.2.10,MacIntel,60,61025ae37ef11b136ea224fe,,,,,,,,,57,-34.81640625,-33.71484375,1,0,0,response5disk,,2,10.1015625,15.12109375,1,0,0,rectangle,10.1015625,15.12109375,1,0,0,10.1015625,15.12109375,1,0,0,1,58,218,42,1,,,,,,,,
,,,,,,,,,,,,,FF,,,,,,,,0.7992,,,,,,,,,,,,,,,,,,,,,,60ff24bf3e0082c513062186,61036f3222b2f12b331285d9,2021-07-29_20h17.34.327,Simcolourproject_2stim_asymm_v5,2020.2.10,MacIntel,60,61025ae37ef11b136ea224fe,,,,,,,,,2737,57.1796875,-44.6484375,1,0,0,response3disk,,5,24.08984375,-9.59375,1,0,0,rectangle,24.08984375,-9.59375,1,0,0,24.08984375,-9.59375,1,0,0,1,59,219,159,1,,,,,,,,
,,,,,,,,,,,,,FF,,,,,,,,0.7993,,,,,,,,,,,,,,,,,,,,,,60ff24bf3e0082c513062186,61036f3222b2f12b331285d9,2021-07-29_20h17.34.327,Simcolourproject_2stim_asymm_v5,2020.2.10,MacIntel,60,61025ae37ef11b136ea224fe,,,,,,,,,3698,-40.3671875,-24.5234375,1,0,0,response5disk,,2,2.890625,3.33984375,1,0,0,rectangle,2.890625,3.33984375,1,0,0,2.890625,3.33984375,1,0,0,1,60,220,117,1,,,,,,,,
,,,,,,,,,,,,,FF,,,,,,,,0.6326,,,,,,,,,,,,,,,,,,,,,,60ff24bf3e0082c513062186,61036f3222b2f12b331285d9,2021-07-29_20h17.34.327,Simcolourproject_2stim_asymm_v5,2020.2.10,MacIntel,60,61025ae37ef11b136ea224fe,,,,,,,,,1494,-34.546875,41.28515625,1,0,0,response7disk,,0,-11.00390625,6.06640625,1,0,0,rectangle,-11.00390625,6.06640625,1,0,0,-11.00390625,6.06640625,1,0,0,1,61,221,41,1,,,,,,,,
,,,,,,,,,,,,,FF,,,,,,,,0.7492,,,,,,,,,,,,,,,,,,,,,,60ff24bf3e0082c513062186,61036f3222b2f12b331285d9,2021-07-29_20h17.34.327,Simcolourproject_2stim_asymm_v5,2020.2.10,MacIntel,60,61025ae37ef11b136ea224fe,,,,,,,,,2480,17.36328125,49.60546875,1,0,0,response1disk,,7,13.421875,-6.41796875,1,0,0,rectangle,13.421875,-6.41796875,1,0,0,13.421875,-6.41796875,1,0,0,1,62,222,99,1,,,,,,,,
,,,,,,,,,,,,,FF,,,,,,,,1.0857,,,,,,,,,,,,,,,,,,,,,,60ff24bf3e0082c513062186,61036f3222b2f12b331285d9,2021-07-29_20h17.34.327,Simcolourproject_2stim_asymm_v5,2020.2.10,MacIntel,60,61025ae37ef11b136ea224fe,,,,,,,,,3078,-29.37109375,-35.04296875,1,0,0,response5disk,,3,0.6875,-2.86328125,1,0,0,rectangle,0.6875,-2.86328125,1,0,0,0.6875,-2.86328125,1,0,0,1,63,223,89,1,,,,,,,,
,,,,,,,,,,,,,FF,,,,,,,,0.7819,,,,,,,,,,,,,,,,,,,,,,60ff24bf3e0082c513062186,61036f3222b2f12b331285d9,2021-07-29_20h17.34.327,Simcolourproject_2stim_asymm_v5,2020.2.10,MacIntel,60,61025ae37ef11b136ea224fe,,,,,,,,,2333,-33.4296875,23.83984375,1,0,0,response7disk,,1,-0.21875,-8.65234375,1,0,0,rectangle,-0.21875,-8.65234375,1,0,0,-0.21875,-8.65234375,1,0,0,1,64,224,80,1,,,,,,,,
,,,,,,,,,,,,,FF,,,,,,,,0.7144,,,,,,,,,,,,,,,,,,,,,,60ff24bf3e0082c513062186,61036f3222b2f12b331285d9,2021-07-29_20h17.34.327,Simcolourproject_2stim_asymm_v5,2020.2.10,MacIntel,60,61025ae37ef11b136ea224fe,,,,,,,,,3083,-43.02734375,33.34765625,1,0,0,response7disk,,1,-12.92578125,3.07421875,1,0,0,rectangle,-12.92578125,3.07421875,1,0,0,-12.92578125,3.07421875,1,0,0,1,65,225,21,1,,,,,,,,
,,,,,,,,,,,,,FF,,,,,,,,1.666,,,,,,,,,,,,,,,,,,,,,,60ff24bf3e0082c513062186,61036f3222b2f12b331285d9,2021-07-29_20h17.34.327,Simcolourproject_2stim_asymm_v5,2020.2.10,MacIntel,60,61025ae37ef11b136ea224fe,,,,,,,,,854,41.28125,-44.61328125,1,0,0,response3disk,,4,12.9453125,-9.31640625,1,0,0,rectangle,12.9453125,-9.31640625,1,0,0,12.9453125,-9.31640625,1,0,0,1,66,226,140,1,,,,,,,,
,,,,,,,,,,,,,FF,,,,,,,,0.9997,,,,,,,,,,,,,,,,,,,,,,60ff24bf3e0082c513062186,61036f3222b2f12b331285d9,2021-07-29_20h17.34.327,Simcolourproject_2stim_asymm_v5,2020.2.10,MacIntel,60,61025ae37ef11b136ea224fe,,,,,,,,,3347,-37.18359375,22.6171875,1,0,0,response7disk,,1,10.27734375,1.796875,1,0,0,rectangle,10.27734375,1.796875,1,0,0,10.27734375,1.796875,1,0,0,1,67,227,88,1,,,,,,,,
,,,,,,,,,,,,,FF,,,,,,,,0.6174,,,,,,,,,,,,,,,,,,,,,,60ff24bf3e0082c513062186,61036f3222b2f12b331285d9,2021-07-29_20h17.34.327,Simcolourproject_2stim_asymm_v5,2020.2.10,MacIntel,60,61025ae37ef11b136ea224fe,,,,,,,,,2488,64.7421875,57.17578125,1,0,0,response1disk,,6,14.984375,6.94140625,1,0,0,rectangle,14.984375,6.94140625,1,0,0,14.984375,6.94140625,1,0,0,1,68,228,97,1,,,,,,,,
,,,,,,,,,,,,,FF,,,,,,,,0.6668,,,,,,,,,,,,,,,,,,,,,,60ff24bf3e0082c513062186,61036f3222b2f12b331285d9,2021-07-29_20h17.34.327,Simcolourproject_2stim_asymm_v5,2020.2.10,MacIntel,60,61025ae37ef11b136ea224fe,,,,,,,,,4161,23.4375,59.2734375,1,0,0,response1disk,,7,4.80078125,-0.69140625,1,0,0,rectangle,4.80078125,-0.69140625,1,0,0,4.80078125,-0.69140625,1,0,0,1,69,229,113,1,,,,,,,,
,,,,,,,,,,,,,FF,,,,,,,,0.6517,,,,,,,,,,,,,,,,,,,,,,60ff24bf3e0082c513062186,61036f3222b2f12b331285d9,2021-07-29_20h17.34.327,Simcolourproject_2stim_asymm_v5,2020.2.10,MacIntel,60,61025ae37ef11b136ea224fe,,,,,,,,,25,-34.3203125,-45.24609375,1,0,0,response5disk,,3,9.78125,11.53515625,1,0,0,rectangle,9.78125,11.53515625,1,0,0,9.78125,11.53515625,1,0,0,1,70,230,108,1,,,,,,,,
,,,,,,,,,,,,,FF,,,,,,,,0.6487,,,,,,,,,,,,,,,,,,,,,,60ff24bf3e0082c513062186,61036f3222b2f12b331285d9,2021-07-29_20h17.34.327,Simcolourproject_2stim_asymm_v5,2020.2.10,MacIntel,60,61025ae37ef11b136ea224fe,,,,,,,,,80,65.50390625,-57.55859375,1,0,0,response3disk,,5,20.06640625,-11.83203125,1,0,0,rectangle,20.06640625,-11.83203125,1,0,0,20.06640625,-11.83203125,1,0,0,1,71,231,116,1,,,,,,,,
,,,,,,,,,,,,,FF,,,,,,,,0.6689,,,,,,,,,,,,,,,,,,,,,,60ff24bf3e0082c513062186,61036f3222b2f12b331285d9,2021-07-29_20h17.34.327,Simcolourproject_2stim_asymm_v5,2020.2.10,MacIntel,60,61025ae37ef11b136ea224fe,,,,,,,,,902,63,-27.296875,1,0,0,response3disk,,5,18.96484375,-9.87890625,1,0,0,rectangle,-68.44921875,-42.08984375,1,0,0,2.953125,-10.0625,1,0,0,1,72,232,71,1,,response5disk_3,TRUE,2,2,"[152,67,270,132,278,263,217,168,23,6,233,20,314,283,144,209,196,283,7,155]",1.6999,rectangle
,,,,,,,,,,,,,FF,,,,,,,,0.7886,,,,,,,,,,,,,,,,,,,,,,60ff24bf3e0082c513062186,61036f3222b2f12b331285d9,2021-07-29_20h17.34.327,Simcolourproject_2stim_asymm_v5,2020.2.10,MacIntel,60,61025ae37ef11b136ea224fe,,,,,,,,,678,58.4765625,-41.80078125,1,0,0,response3disk,,5,12.61328125,-14.375,1,0,0,rectangle,12.61328125,-14.375,1,0,0,12.61328125,-14.375,1,0,0,1,73,233,139,1,,,,,,,,
,,,,,,,,,,,,,FF,,,,,,,,0.5507,,,,,,,,,,,,,,,,,,,,,,60ff24bf3e0082c513062186,61036f3222b2f12b331285d9,2021-07-29_20h17.34.327,Simcolourproject_2stim_asymm_v5,2020.2.10,MacIntel,60,61025ae37ef11b136ea224fe,,,,,,,,,2625,-44.10546875,-29.87109375,1,0,0,response5disk,,2,-0.5390625,-3.515625,1,0,0,rectangle,-0.5390625,-3.515625,1,0,0,-0.5390625,-3.515625,1,0,0,1,74,234,25,1,,,,,,,,
,,,,,,,,,,,,,FF,,,,,,,,0.8999,,,,,,,,,,,,,,,,,,,,,,60ff24bf3e0082c513062186,61036f3222b2f12b331285d9,2021-07-29_20h17.34.327,Simcolourproject_2stim_asymm_v5,2020.2.10,MacIntel,60,61025ae37ef11b136ea224fe,,,,,,,,,2617,58.3515625,-29.56640625,1,0,0,response3disk,,5,-0.28125,4.2734375,1,0,0,rectangle,-0.28125,4.2734375,1,0,0,-0.28125,4.2734375,1,0,0,1,75,235,149,1,,,,,,,,
,,,,,,,,,,,,,FF,,,,,,,,0.6381,,,,,,,,,,,,,,,,,,,,,,60ff24bf3e0082c513062186,61036f3222b2f12b331285d9,2021-07-29_20h17.34.327,Simcolourproject_2stim_asymm_v5,2020.2.10,MacIntel,60,61025ae37ef11b136ea224fe,,,,,,,,,1849,-45.76171875,37.0859375,1,0,0,response7disk,,1,10.50390625,-11.140625,1,0,0,rectangle,10.50390625,-11.140625,1,0,0,10.50390625,-11.140625,1,0,0,1,76,236,30,1,,,,,,,,
,,,,,,,,,,,,,FF,,,,,,,,0.6153,,,,,,,,,,,,,,,,,,,,,,60ff24bf3e0082c513062186,61036f3222b2f12b331285d9,2021-07-29_20h17.34.327,Simcolourproject_2stim_asymm_v5,2020.2.10,MacIntel,60,61025ae37ef11b136ea224fe,,,,,,,,,101,73.62109375,-41.02734375,1,0,0,response3disk,,5,17.5625,-6.1328125,1,0,0,rectangle,17.5625,-6.1328125,1,0,0,17.5625,-6.1328125,1,0,0,1,77,237,91,1,,,,,,,,
,,,,,,,,,,,,,FF,,,,,,,,0.6685,,,,,,,,,,,,,,,,,,,,,,60ff24bf3e0082c513062186,61036f3222b2f12b331285d9,2021-07-29_20h17.34.327,Simcolourproject_2stim_asymm_v5,2020.2.10,MacIntel,60,61025ae37ef11b136ea224fe,,,,,,,,,1076,-33.75390625,-32.65234375,1,0,0,response5disk,,2,-5.1796875,0.8828125,1,0,0,rectangle,-5.1796875,0.8828125,1,0,0,-5.1796875,0.8828125,1,0,0,1,78,238,105,1,,,,,,,,
,,,,,,,,,,,,,FF,,,,,,,,0.5681,,,,,,,,,,,,,,,,,,,,,,60ff24bf3e0082c513062186,61036f3222b2f12b331285d9,2021-07-29_20h17.34.327,Simcolourproject_2stim_asymm_v5,2020.2.10,MacIntel,60,61025ae37ef11b136ea224fe,,,,,,,,,86,-45.47265625,52.96875,1,0,0,response7disk,,0,-7.23828125,0.8046875,1,0,0,rectangle,-7.23828125,0.8046875,1,0,0,-7.23828125,0.8046875,1,0,0,1,79,239,102,1,,,,,,,,
,,,,,,,,,,,,,FF,,,,,,,,1.7181,,,,,,,,,,,,,,,,,,,,,,60ff24bf3e0082c513062186,61036f3222b2f12b331285d9,2021-07-29_20h17.34.327,Simcolourproject_2stim_asymm_v5,2020.2.10,MacIntel,60,61025ae37ef11b136ea224fe,,,,,,,,,2396,-20.08984375,-28.1875,1,0,0,response5disk,,3,-4.46875,-13.98828125,1,0,0,rectangle,-4.46875,-13.98828125,1,0,0,-4.46875,-13.98828125,1,0,0,1,80,240,43,1,,,,,,,,
,,,,,,,,,,,,,FF,,,,,,,,0.716,,,,,,,,,,,,,,,,,,,,,,60ff24bf3e0082c513062186,61036f3222b2f12b331285d9,2021-07-29_20h17.34.327,Simcolourproject_2stim_asymm_v5,2020.2.10,MacIntel,60,61025ae37ef11b136ea224fe,,,,,,,,,2820,-40.37109375,26.4765625,1,0,0,response7disk,,1,-0.4609375,-2.296875,1,0,0,rectangle,-0.4609375,-2.296875,1,0,0,-0.4609375,-2.296875,1,0,0,1,81,241,28,1,,,,,,,,
,,,,,,,,,,,,,FF,,,,,,,,0.6987,,,,,,,,,,,,,,,,,,,,,,60ff24bf3e0082c513062186,61036f3222b2f12b331285d9,2021-07-29_20h17.34.327,Simcolourproject_2stim_asymm_v5,2020.2.10,MacIntel,60,61025ae37ef11b136ea224fe,,,,,,,,,3463,59.34375,-33.1171875,1,0,0,response3disk,,5,16.93359375,-14.65625,1,0,0,rectangle,16.93359375,-14.65625,1,0,0,16.93359375,-14.65625,1,0,0,1,82,242,81,1,,,,,,,,
,,,,,,,,,,,,,FF,,,,,,,,0.6493,,,,,,,,,,,,,,,,,,,,,,60ff24bf3e0082c513062186,61036f3222b2f12b331285d9,2021-07-29_20h17.34.327,Simcolourproject_2stim_asymm_v5,2020.2.10,MacIntel,60,61025ae37ef11b136ea224fe,,,,,,,,,2130,-47.55859375,-26.84765625,1,0,0,response5disk,,2,-10.40625,-2.5078125,1,0,0,rectangle,-10.40625,-2.5078125,1,0,0,-10.40625,-2.5078125,1,0,0,1,83,243,31,1,,,,,,,,
,,,,,,,,,,,,,FF,,,,,,,,2.6662,,,,,,,,,,,,,,,,,,,,,,60ff24bf3e0082c513062186,61036f3222b2f12b331285d9,2021-07-29_20h17.34.327,Simcolourproject_2stim_asymm_v5,2020.2.10,MacIntel,60,61025ae37ef11b136ea224fe,,,,,,,,,223,-42.16796875,25.80859375,1,0,0,response7disk,,1,4.97265625,-9.9921875,1,0,0,rectangle,4.97265625,-9.9921875,1,0,0,4.97265625,-9.9921875,1,0,0,1,84,244,129,1,,,,,,,,
,,,,,,,,,,,,,FF,,,,,,,,0.6997,,,,,,,,,,,,,,,,,,,,,,60ff24bf3e0082c513062186,61036f3222b2f12b331285d9,2021-07-29_20h17.34.327,Simcolourproject_2stim_asymm_v5,2020.2.10,MacIntel,60,61025ae37ef11b136ea224fe,,,,,,,,,1775,-68.6328125,-40.09765625,1,0,0,response5disk,,2,-0.73828125,-15.125,1,0,0,rectangle,-0.73828125,-15.125,1,0,0,-0.73828125,-15.125,1,0,0,1,85,245,73,1,,,,,,,,
,,,,,,,,,,,,,FF,,,,,,,,1.0179,,,,,,,,,,,,,,,,,,,,,,60ff24bf3e0082c513062186,61036f3222b2f12b331285d9,2021-07-29_20h17.34.327,Simcolourproject_2stim_asymm_v5,2020.2.10,MacIntel,60,61025ae37ef11b136ea224fe,,,,,,,,,3475,69.89453125,27.91796875,1,0,0,response1disk,,6,-5.23046875,0.8125,1,0,0,rectangle,-5.23046875,0.8125,1,0,0,-5.23046875,0.8125,1,0,0,1,86,246,152,1,,,,,,,,
,,,,,,,,,,,,,FF,,,,,,,,1.7832,,,,,,,,,,,,,,,,,,,,,,60ff24bf3e0082c513062186,61036f3222b2f12b331285d9,2021-07-29_20h17.34.327,Simcolourproject_2stim_asymm_v5,2020.2.10,MacIntel,60,61025ae37ef11b136ea224fe,,,,,,,,,3377,79.27734375,39.2109375,1,0,0,response1disk,,6,4.9609375,-7.9765625,1,0,0,rectangle,4.9609375,-7.9765625,1,0,0,4.9609375,-7.9765625,1,0,0,1,87,247,115,1,,,,,,,,
,,,,,,,,,,,,,FF,,,,,,,,0.6157,,,,,,,,,,,,,,,,,,,,,,60ff24bf3e0082c513062186,61036f3222b2f12b331285d9,2021-07-29_20h17.34.327,Simcolourproject_2stim_asymm_v5,2020.2.10,MacIntel,60,61025ae37ef11b136ea224fe,,,,,,,,,2834,65.359375,49.828125,1,0,0,response1disk,,6,6.82421875,-1.76953125,1,0,0,rectangle,6.82421875,-1.76953125,1,0,0,6.82421875,-1.76953125,1,0,0,1,88,248,104,1,,,,,,,,
