key_resp.keys,key_resp.rt,key_resp_14.keys,key_resp_14.rt,key_resp_15.keys,key_resp_15.rt,key_resp_17.keys,key_resp_17.rt,key_resp_9.keys,key_resp_9.rt,key_resp_10.keys,key_resp_10.rt,practice_comparison,Ecc,mouse_5.x,mouse_5.y,mouse_5.leftButton,mouse_5.midButton,mouse_5.rightButton,mouse_5.clicked_name,pracsimilarity,response_time,mouse_10.x,mouse_10.y,mouse_10.leftButton,mouse_10.midButton,mouse_10.rightButton,mouse_10.clicked_name,mouse_7.x,mouse_7.y,mouse_7.leftButton,mouse_7.midButton,mouse_7.rightButton,mouse_6.x,mouse_6.y,mouse_6.leftButton,mouse_6.midButton,mouse_6.rightButton,duringprac.thisRepN,duringprac.thisTrialN,duringprac.thisN,duringprac.thisIndex,duringprac.ran,participant,session,date,expName,psychopyVersion,OS,frameRate,study_id,mouse_7.clicked_name,catchpracsimilarity,catch_response_time,catchnumberprac,catchtrialorderprac,mouse_6.clicked_name,key_resp_22.keys,key_resp_22.rt,realcomparison,mouse.x,mouse.y,mouse.leftButton,mouse.midButton,mouse.rightButton,mouse.clicked_name,Colour2,similarity,mouse_2.x,mouse_2.y,mouse_2.leftButton,mouse_2.midButton,mouse_2.rightButton,mouse_2.clicked_name,mouse_3.x,mouse_3.y,mouse_3.leftButton,mouse_3.midButton,mouse_3.rightButton,mouse_11.x,mouse_11.y,mouse_11.leftButton,mouse_11.midButton,mouse_11.rightButton,trials_2.thisRepN,trials_2.thisTrialN,trials_2.thisN,trials_2.thisIndex,trials_2.ran,Colour1,mouse_3.clicked_name,catchornah,catchsimilarity,catchnumber,catchtrialorder,catchRT,mouse_11.clicked_name
space,2.0171,space,3.0734,space,24.2332,space,9.0171,space,0.6886,space,2.833,31,PF,-19.10778809,-78.07565308,1,0,0,response5disk_5,3,6.6299,3.058227539,-7.335998535,1,0,0,rectangle_8,3.058227539,-7.335998535,1,0,0,3.058227539,-7.335998535,1,0,0,0,0,0,6,1,60ff433f89a507a83fb365d4,610377de1cf4f1d223482c78,2021-07-29_23h55.16.199,Simcolourproject_2stim_asymm_v5,2020.2.10,MacIntel,60,61025ae37ef11b136ea224fe,,,,,,,,,,,,,,,,,,,,,,,,,,,,,,,,,,,,,,,,,,,,,,
,,,,,,,,,,,,99,FF,16.75463867,-40.14099121,1,0,0,response3disk_5,4,1.9538,1.076599121,-4.498748779,1,0,0,rectangle_8,-64.71325684,-35.612854,1,0,0,1.951171875,-7.363830566,1,0,0,0,1,1,5,1,60ff433f89a507a83fb365d4,610377de1cf4f1d223482c78,2021-07-29_23h55.16.199,Simcolourproject_2stim_asymm_v5,2020.2.10,MacIntel,60,61025ae37ef11b136ea224fe,response5disk_7,2,2.8186,2,"[2,5]",rectangle_4,,,,,,,,,,,,,,,,,,,,,,,,,,,,,,,,,,,,,,,,
,,,,,,,,,,,,104,PF,-56.61364746,-23.19415283,1,0,0,response5disk_5,2,3.0179,-6.146972656,-5.467468262,1,0,0,rectangle_8,-6.146972656,-5.467468262,1,0,0,-6.146972656,-5.467468262,1,0,0,0,2,2,2,1,60ff433f89a507a83fb365d4,610377de1cf4f1d223482c78,2021-07-29_23h55.16.199,Simcolourproject_2stim_asymm_v5,2020.2.10,MacIntel,60,61025ae37ef11b136ea224fe,,,,,,,,,,,,,,,,,,,,,,,,,,,,,,,,,,,,,,,,,,,,,,
,,,,,,,,,,,,62,FF,-38.04827881,52.84780884,1,0,0,response7disk_5,0,1.1177,9.495117188,-9.149261475,1,0,0,rectangle_8,9.495117188,-9.149261475,1,0,0,9.495117188,-9.149261475,1,0,0,0,3,3,3,1,60ff433f89a507a83fb365d4,610377de1cf4f1d223482c78,2021-07-29_23h55.16.199,Simcolourproject_2stim_asymm_v5,2020.2.10,MacIntel,60,61025ae37ef11b136ea224fe,,,,,,,,,,,,,,,,,,,,,,,,,,,,,,,,,,,,,,,,,,,,,,
,,,,,,,,,,,,71,PF,-63.48156738,23.38632202,1,0,0,response7disk_5,1,1.333,-4.962158203,-5.401153564,1,0,0,rectangle_8,-55.52111816,-14.55551147,1,0,0,-18.51593018,-12.49179077,1,0,0,0,4,4,4,1,60ff433f89a507a83fb365d4,610377de1cf4f1d223482c78,2021-07-29_23h55.16.199,Simcolourproject_2stim_asymm_v5,2020.2.10,MacIntel,60,61025ae37ef11b136ea224fe,response5disk_7,2,2.0346,2,"[2,5]",rectangle_4,,,,,,,,,,,,,,,,,,,,,,,,,,,,,,,,,,,,,,,,
,,,,,,,,,,,,49,PF,-26.26617432,-29.76855469,1,0,0,response5disk_5,3,1.5009,-0.937744141,-13.34945679,1,0,0,rectangle_8,-0.937744141,-13.34945679,1,0,0,-0.937744141,-13.34945679,1,0,0,0,5,5,1,1,60ff433f89a507a83fb365d4,610377de1cf4f1d223482c78,2021-07-29_23h55.16.199,Simcolourproject_2stim_asymm_v5,2020.2.10,MacIntel,60,61025ae37ef11b136ea224fe,,,,,,,,,,,,,,,,,,,,,,,,,,,,,,,,,,,,,,,,,,,,,,
,,,,,,,,,,,,157,FF,-44.80310059,-29.47564697,1,0,0,response5disk_5,2,2.6587,-15.72802734,-13.55218506,1,0,0,rectangle_8,-15.72802734,-13.55218506,1,0,0,-15.72802734,-13.55218506,1,0,0,0,6,6,0,1,60ff433f89a507a83fb365d4,610377de1cf4f1d223482c78,2021-07-29_23h55.16.199,Simcolourproject_2stim_asymm_v5,2020.2.10,MacIntel,60,61025ae37ef11b136ea224fe,,,,,,,,,,,,,,,,,,,,,,,,,,,,,,,,,,,,,,,,,,,,,,
,,,,,,,,,,,,,FF,,,,,,,,1.1172,,,,,,,,,,,,,,,,,,,,,,60ff433f89a507a83fb365d4,610377de1cf4f1d223482c78,2021-07-29_23h55.16.199,Simcolourproject_2stim_asymm_v5,2020.2.10,MacIntel,60,61025ae37ef11b136ea224fe,,,,,,,space,2.2847,4095,12.68884277,95.19799805,1,0,0,response1disk,,7,1.045898438,0.477813721,1,0,0,rectangle,1.045898438,0.477813721,1,0,0,1.045898438,0.477813721,1,0,0,0,0,0,155,1,,,,,,,,
,,,,,,,,,,,,,FF,,,,,,,,1.5014,,,,,,,,,,,,,,,,,,,,,,60ff433f89a507a83fb365d4,610377de1cf4f1d223482c78,2021-07-29_23h55.16.199,Simcolourproject_2stim_asymm_v5,2020.2.10,MacIntel,60,61025ae37ef11b136ea224fe,,,,,,,,,1584,16.46063232,-58.51525879,1,0,0,response3disk,,4,1.825561523,-4.296112061,1,0,0,rectangle,1.825561523,-4.296112061,1,0,0,1.825561523,-4.296112061,1,0,0,0,1,1,151,1,,,,,,,,
,,,,,,,,,,,,,FF,,,,,,,,1.05,,,,,,,,,,,,,,,,,,,,,,60ff433f89a507a83fb365d4,610377de1cf4f1d223482c78,2021-07-29_23h55.16.199,Simcolourproject_2stim_asymm_v5,2020.2.10,MacIntel,60,61025ae37ef11b136ea224fe,,,,,,,,,4343,38.98150635,71.20101929,1,0,0,response1disk,,7,16.19061279,3.444610596,1,0,0,rectangle,16.19061279,3.444610596,1,0,0,16.19061279,3.444610596,1,0,0,0,2,2,105,1,,,,,,,,
,,,,,,,,,,,,,FF,,,,,,,,1.1014,,,,,,,,,,,,,,,,,,,,,,60ff433f89a507a83fb365d4,610377de1cf4f1d223482c78,2021-07-29_23h55.16.199,Simcolourproject_2stim_asymm_v5,2020.2.10,MacIntel,60,61025ae37ef11b136ea224fe,,,,,,,,,1754,67.362854,-26.88317871,1,0,0,response3disk,,5,13.48120117,-3.584075928,1,0,0,rectangle,13.48120117,-3.584075928,1,0,0,13.48120117,-3.584075928,1,0,0,0,3,3,48,1,,,,,,,,
,,,,,,,,,,,,,FF,,,,,,,,1.0833,,,,,,,,,,,,,,,,,,,,,,60ff433f89a507a83fb365d4,610377de1cf4f1d223482c78,2021-07-29_23h55.16.199,Simcolourproject_2stim_asymm_v5,2020.2.10,MacIntel,60,61025ae37ef11b136ea224fe,,,,,,,,,3658,-43.42773438,-61.98287964,1,0,0,response5disk,,3,-13.89697266,-7.321472168,1,0,0,rectangle,-13.89697266,-7.321472168,1,0,0,-13.89697266,-7.321472168,1,0,0,0,4,4,84,1,,,,,,,,
,,,,,,,,,,,,,FF,,,,,,,,1.2483,,,,,,,,,,,,,,,,,,,,,,60ff433f89a507a83fb365d4,610377de1cf4f1d223482c78,2021-07-29_23h55.16.199,Simcolourproject_2stim_asymm_v5,2020.2.10,MacIntel,60,61025ae37ef11b136ea224fe,,,,,,,,,2484,45.91583252,-53.30288696,1,0,0,response3disk,,4,11.89245605,4.940734863,1,0,0,rectangle,11.89245605,4.940734863,1,0,0,11.89245605,4.940734863,1,0,0,0,5,5,58,1,,,,,,,,
,,,,,,,,,,,,,FF,,,,,,,,1.53,,,,,,,,,,,,,,,,,,,,,,60ff433f89a507a83fb365d4,610377de1cf4f1d223482c78,2021-07-29_23h55.16.199,Simcolourproject_2stim_asymm_v5,2020.2.10,MacIntel,60,61025ae37ef11b136ea224fe,,,,,,,,,2968,-63.19622803,-25.5038147,1,0,0,response5disk,,2,-9.54296875,7.050140381,1,0,0,rectangle,-31.59179688,-67.9453125,1,0,0,-7.634460449,-5.909210205,1,0,0,0,6,6,4,1,,response5disk_3,TRUE,3,3,"[215,142,120,137,7,39,134,251,11,103,64,284,195,61,85,105,304,62,20,62]",1.8389,rectangle
,,,,,,,,,,,,,FF,,,,,,,,1.4452,,,,,,,,,,,,,,,,,,,,,,60ff433f89a507a83fb365d4,610377de1cf4f1d223482c78,2021-07-29_23h55.16.199,Simcolourproject_2stim_asymm_v5,2020.2.10,MacIntel,60,61025ae37ef11b136ea224fe,,,,,,,,,4152,-51.84967041,34.79312134,1,0,0,response7disk,,1,-6.900512695,-0.63583374,1,0,0,rectangle,-6.900512695,-0.63583374,1,0,0,-6.900512695,-0.63583374,1,0,0,0,7,7,65,1,,,,,,,,
,,,,,,,,,,,,,FF,,,,,,,,1.0806,,,,,,,,,,,,,,,,,,,,,,60ff433f89a507a83fb365d4,610377de1cf4f1d223482c78,2021-07-29_23h55.16.199,Simcolourproject_2stim_asymm_v5,2020.2.10,MacIntel,60,61025ae37ef11b136ea224fe,,,,,,,,,3019,-60.28820801,25.35595703,1,0,0,response7disk,,1,7.383911133,-2.420532227,1,0,0,rectangle,7.383911133,-2.420532227,1,0,0,7.383911133,-2.420532227,1,0,0,0,8,8,11,1,,,,,,,,
,,,,,,,,,,,,,FF,,,,,,,,0.7526,,,,,,,,,,,,,,,,,,,,,,60ff433f89a507a83fb365d4,610377de1cf4f1d223482c78,2021-07-29_23h55.16.199,Simcolourproject_2stim_asymm_v5,2020.2.10,MacIntel,60,61025ae37ef11b136ea224fe,,,,,,,,,2150,-55.23254395,-26.19213867,1,0,0,response5disk,,2,-14.13366699,3.863189697,1,0,0,rectangle,-14.13366699,3.863189697,1,0,0,-14.13366699,3.863189697,1,0,0,0,9,9,33,1,,,,,,,,
,,,,,,,,,,,,,FF,,,,,,,,1.1011,,,,,,,,,,,,,,,,,,,,,,60ff433f89a507a83fb365d4,610377de1cf4f1d223482c78,2021-07-29_23h55.16.199,Simcolourproject_2stim_asymm_v5,2020.2.10,MacIntel,60,61025ae37ef11b136ea224fe,,,,,,,,,3859,39.9475708,-58.31619263,1,0,0,response3disk,,4,26.05841064,-0.626708984,1,0,0,rectangle,-55.98413086,-31.16522217,1,0,0,-19.91491699,-14.28887939,1,0,0,0,10,10,64,1,,response5disk_3,TRUE,2,2,"[215,142,120,137,7,39,134,251,11,103,64,284,195,61,85,105,304,62,20,62]",1.4535,rectangle
,,,,,,,,,,,,,FF,,,,,,,,1.8843,,,,,,,,,,,,,,,,,,,,,,60ff433f89a507a83fb365d4,610377de1cf4f1d223482c78,2021-07-29_23h55.16.199,Simcolourproject_2stim_asymm_v5,2020.2.10,MacIntel,60,61025ae37ef11b136ea224fe,,,,,,,,,650,-14.86175537,-76.94158936,1,0,0,response5disk,,3,-14.12432861,8.012664795,1,0,0,rectangle,-14.12432861,8.012664795,1,0,0,-14.12432861,8.012664795,1,0,0,0,11,11,51,1,,,,,,,,
,,,,,,,,,,,,,FF,,,,,,,,0.7336,,,,,,,,,,,,,,,,,,,,,,60ff433f89a507a83fb365d4,610377de1cf4f1d223482c78,2021-07-29_23h55.16.199,Simcolourproject_2stim_asymm_v5,2020.2.10,MacIntel,60,61025ae37ef11b136ea224fe,,,,,,,,,1064,-25.22167969,-52.45318604,1,0,0,response5disk,,3,0.14239502,-3.699768066,1,0,0,rectangle,0.14239502,-3.699768066,1,0,0,0.14239502,-3.699768066,1,0,0,0,12,12,156,1,,,,,,,,
,,,,,,,,,,,,,FF,,,,,,,,0.9177,,,,,,,,,,,,,,,,,,,,,,60ff433f89a507a83fb365d4,610377de1cf4f1d223482c78,2021-07-29_23h55.16.199,Simcolourproject_2stim_asymm_v5,2020.2.10,MacIntel,60,61025ae37ef11b136ea224fe,,,,,,,,,2784,73.71411133,20.14779663,1,0,0,response1disk,,6,3.547180176,-5.647064209,1,0,0,rectangle,3.547180176,-5.647064209,1,0,0,3.547180176,-5.647064209,1,0,0,0,13,13,23,1,,,,,,,,
,,,,,,,,,,,,,FF,,,,,,,,1.0672,,,,,,,,,,,,,,,,,,,,,,60ff433f89a507a83fb365d4,610377de1cf4f1d223482c78,2021-07-29_23h55.16.199,Simcolourproject_2stim_asymm_v5,2020.2.10,MacIntel,60,61025ae37ef11b136ea224fe,,,,,,,,,3929,-29.84832764,-68.0244751,1,0,0,response5disk,,3,-11.67352295,-10.68908691,1,0,0,rectangle,-11.67352295,-10.68908691,1,0,0,-11.67352295,-10.68908691,1,0,0,0,14,14,146,1,,,,,,,,
,,,,,,,,,,,,,FF,,,,,,,,0.8494,,,,,,,,,,,,,,,,,,,,,,60ff433f89a507a83fb365d4,610377de1cf4f1d223482c78,2021-07-29_23h55.16.199,Simcolourproject_2stim_asymm_v5,2020.2.10,MacIntel,60,61025ae37ef11b136ea224fe,,,,,,,,,2836,56.26507568,-36.04284668,1,0,0,response3disk,,5,9.676574707,-11.64071655,1,0,0,rectangle,9.676574707,-11.64071655,1,0,0,9.676574707,-11.64071655,1,0,0,0,15,15,126,1,,,,,,,,
,,,,,,,,,,,,,FF,,,,,,,,0.8748,,,,,,,,,,,,,,,,,,,,,,60ff433f89a507a83fb365d4,610377de1cf4f1d223482c78,2021-07-29_23h55.16.199,Simcolourproject_2stim_asymm_v5,2020.2.10,MacIntel,60,61025ae37ef11b136ea224fe,,,,,,,,,3746,71.55963135,28.42593384,1,0,0,response1disk,,6,3.81640625,-0.328308105,1,0,0,rectangle,3.81640625,-0.328308105,1,0,0,3.81640625,-0.328308105,1,0,0,0,16,16,158,1,,,,,,,,
,,,,,,,,,,,,,FF,,,,,,,,1.7019,,,,,,,,,,,,,,,,,,,,,,60ff433f89a507a83fb365d4,610377de1cf4f1d223482c78,2021-07-29_23h55.16.199,Simcolourproject_2stim_asymm_v5,2020.2.10,MacIntel,60,61025ae37ef11b136ea224fe,,,,,,,,,3527,-29.94146729,-80.16503906,1,0,0,response5disk,,3,-13.52282715,6.302062988,1,0,0,rectangle,-13.52282715,6.302062988,1,0,0,-13.52282715,6.302062988,1,0,0,0,17,17,2,1,,,,,,,,
,,,,,,,,,,,,,FF,,,,,,,,0.7678,,,,,,,,,,,,,,,,,,,,,,60ff433f89a507a83fb365d4,610377de1cf4f1d223482c78,2021-07-29_23h55.16.199,Simcolourproject_2stim_asymm_v5,2020.2.10,MacIntel,60,61025ae37ef11b136ea224fe,,,,,,,,,3798,-71.51043701,-35.63174438,1,0,0,response5disk,,2,-14.18054199,11.74749756,1,0,0,rectangle,-14.18054199,11.74749756,1,0,0,-14.18054199,11.74749756,1,0,0,0,18,18,27,1,,,,,,,,
,,,,,,,,,,,,,FF,,,,,,,,0.8178,,,,,,,,,,,,,,,,,,,,,,60ff433f89a507a83fb365d4,610377de1cf4f1d223482c78,2021-07-29_23h55.16.199,Simcolourproject_2stim_asymm_v5,2020.2.10,MacIntel,60,61025ae37ef11b136ea224fe,,,,,,,,,2323,-56.18463135,40.84915161,1,0,0,response7disk,,1,-16.29382324,-15.78024292,1,0,0,rectangle,18.59368896,45.89089966,1,0,0,4.810974121,-2.528717041,1,0,0,0,19,19,148,1,,response1disk_3,TRUE,7,7,"[215,142,120,137,7,39,134,251,11,103,64,284,195,61,85,105,304,62,20,62]",1.6681,rectangle
,,,,,,,,,,,,,FF,,,,,,,,0.9671,,,,,,,,,,,,,,,,,,,,,,60ff433f89a507a83fb365d4,610377de1cf4f1d223482c78,2021-07-29_23h55.16.199,Simcolourproject_2stim_asymm_v5,2020.2.10,MacIntel,60,61025ae37ef11b136ea224fe,,,,,,,,,2038,75.01965332,37.25680542,1,0,0,response1disk,,6,5.152709961,2.126220703,1,0,0,rectangle,5.152709961,2.126220703,1,0,0,5.152709961,2.126220703,1,0,0,0,20,20,80,1,,,,,,,,
,,,,,,,,,,,,,FF,,,,,,,,0.8031,,,,,,,,,,,,,,,,,,,,,,60ff433f89a507a83fb365d4,610377de1cf4f1d223482c78,2021-07-29_23h55.16.199,Simcolourproject_2stim_asymm_v5,2020.2.10,MacIntel,60,61025ae37ef11b136ea224fe,,,,,,,,,2933,71.91540527,21.69024658,1,0,0,response1disk,,6,-1.795410156,-2.534240723,1,0,0,rectangle,-1.795410156,-2.534240723,1,0,0,-1.795410156,-2.534240723,1,0,0,0,21,21,95,1,,,,,,,,
,,,,,,,,,,,,,FF,,,,,,,,1.1853,,,,,,,,,,,,,,,,,,,,,,60ff433f89a507a83fb365d4,610377de1cf4f1d223482c78,2021-07-29_23h55.16.199,Simcolourproject_2stim_asymm_v5,2020.2.10,MacIntel,60,61025ae37ef11b136ea224fe,,,,,,,,,627,-56.19299316,-45.52645874,1,0,0,response5disk,,2,-9.018920898,2.653289795,1,0,0,rectangle,-9.018920898,2.653289795,1,0,0,-9.018920898,2.653289795,1,0,0,0,22,22,57,1,,,,,,,,
,,,,,,,,,,,,,FF,,,,,,,,1.3962,,,,,,,,,,,,,,,,,,,,,,60ff433f89a507a83fb365d4,610377de1cf4f1d223482c78,2021-07-29_23h55.16.199,Simcolourproject_2stim_asymm_v5,2020.2.10,MacIntel,60,61025ae37ef11b136ea224fe,,,,,,,,,737,-21.66259766,-49.715271,1,0,0,response5disk,,3,-8.734008789,-3.452972412,1,0,0,rectangle,-8.734008789,-3.452972412,1,0,0,-8.734008789,-3.452972412,1,0,0,0,23,23,82,1,,,,,,,,
,,,,,,,,,,,,,FF,,,,,,,,0.8026,,,,,,,,,,,,,,,,,,,,,,60ff433f89a507a83fb365d4,610377de1cf4f1d223482c78,2021-07-29_23h55.16.199,Simcolourproject_2stim_asymm_v5,2020.2.10,MacIntel,60,61025ae37ef11b136ea224fe,,,,,,,,,4106,22.94262695,-60.87878418,1,0,0,response3disk,,4,19.96954346,-4.388183594,1,0,0,rectangle,19.96954346,-4.388183594,1,0,0,19.96954346,-4.388183594,1,0,0,0,24,24,137,1,,,,,,,,
,,,,,,,,,,,,,FF,,,,,,,,1.1005,,,,,,,,,,,,,,,,,,,,,,60ff433f89a507a83fb365d4,610377de1cf4f1d223482c78,2021-07-29_23h55.16.199,Simcolourproject_2stim_asymm_v5,2020.2.10,MacIntel,60,61025ae37ef11b136ea224fe,,,,,,,,,1460,67.93737793,42.07748413,1,0,0,response1disk,,6,7.557617188,3.625091553,1,0,0,rectangle,7.557617188,3.625091553,1,0,0,7.557617188,3.625091553,1,0,0,0,25,25,92,1,,,,,,,,
,,,,,,,,,,,,,FF,,,,,,,,0.9172,,,,,,,,,,,,,,,,,,,,,,60ff433f89a507a83fb365d4,610377de1cf4f1d223482c78,2021-07-29_23h55.16.199,Simcolourproject_2stim_asymm_v5,2020.2.10,MacIntel,60,61025ae37ef11b136ea224fe,,,,,,,,,3220,-26.67126465,-52.84106445,1,0,0,response5disk,,3,-12.9407959,-12.27874756,1,0,0,rectangle,-12.9407959,-12.27874756,1,0,0,-12.9407959,-12.27874756,1,0,0,0,26,26,59,1,,,,,,,,
,,,,,,,,,,,,,FF,,,,,,,,1.4519,,,,,,,,,,,,,,,,,,,,,,60ff433f89a507a83fb365d4,610377de1cf4f1d223482c78,2021-07-29_23h55.16.199,Simcolourproject_2stim_asymm_v5,2020.2.10,MacIntel,60,61025ae37ef11b136ea224fe,,,,,,,,,817,61.35009766,-42.21365356,1,0,0,response3disk,,5,16.38116455,-11.78952026,1,0,0,rectangle,16.38116455,-11.78952026,1,0,0,16.38116455,-11.78952026,1,0,0,0,27,27,141,1,,,,,,,,
,,,,,,,,,,,,,FF,,,,,,,,0.6961,,,,,,,,,,,,,,,,,,,,,,60ff433f89a507a83fb365d4,610377de1cf4f1d223482c78,2021-07-29_23h55.16.199,Simcolourproject_2stim_asymm_v5,2020.2.10,MacIntel,60,61025ae37ef11b136ea224fe,,,,,,,,,4077,71.67675781,-31.67752075,1,0,0,response3disk,,5,26.04785156,5.036651611,1,0,0,rectangle,26.04785156,5.036651611,1,0,0,26.04785156,5.036651611,1,0,0,0,28,28,37,1,,,,,,,,
,,,,,,,,,,,,,FF,,,,,,,,1.2501,,,,,,,,,,,,,,,,,,,,,,60ff433f89a507a83fb365d4,610377de1cf4f1d223482c78,2021-07-29_23h55.16.199,Simcolourproject_2stim_asymm_v5,2020.2.10,MacIntel,60,61025ae37ef11b136ea224fe,,,,,,,,,1244,-19.66638184,-63.7371521,1,0,0,response5disk,,3,-1.86340332,-6.123901367,1,0,0,rectangle,-1.86340332,-6.123901367,1,0,0,-1.86340332,-6.123901367,1,0,0,0,29,29,47,1,,,,,,,,
,,,,,,,,,,,,,FF,,,,,,,,1.4842,,,,,,,,,,,,,,,,,,,,,,60ff433f89a507a83fb365d4,610377de1cf4f1d223482c78,2021-07-29_23h55.16.199,Simcolourproject_2stim_asymm_v5,2020.2.10,MacIntel,60,61025ae37ef11b136ea224fe,,,,,,,,,204,-63.84619141,-41.07546997,1,0,0,response5disk,,2,-6.274597168,-10.26617432,1,0,0,rectangle,-6.274597168,-10.26617432,1,0,0,-6.274597168,-10.26617432,1,0,0,0,30,30,99,1,,,,,,,,
,,,,,,,,,,,,,FF,,,,,,,,1.3517,,,,,,,,,,,,,,,,,,,,,,60ff433f89a507a83fb365d4,610377de1cf4f1d223482c78,2021-07-29_23h55.16.199,Simcolourproject_2stim_asymm_v5,2020.2.10,MacIntel,60,61025ae37ef11b136ea224fe,,,,,,,,,4337,72.70245361,-24.93161011,1,0,0,response3disk,,5,10.16534424,10.05102539,1,0,0,rectangle,10.16534424,10.05102539,1,0,0,10.16534424,10.05102539,1,0,0,0,31,31,157,1,,,,,,,,
,,,,,,,,,,,,,FF,,,,,,,,0.767,,,,,,,,,,,,,,,,,,,,,,60ff433f89a507a83fb365d4,610377de1cf4f1d223482c78,2021-07-29_23h55.16.199,Simcolourproject_2stim_asymm_v5,2020.2.10,MacIntel,60,61025ae37ef11b136ea224fe,,,,,,,,,3819,77.74932861,-22.13180542,1,0,0,response3disk,,5,3.039550781,1.629638672,1,0,0,rectangle,3.039550781,1.629638672,1,0,0,3.039550781,1.629638672,1,0,0,0,32,32,73,1,,,,,,,,
,,,,,,,,,,,,,FF,,,,,,,,0.8499,,,,,,,,,,,,,,,,,,,,,,60ff433f89a507a83fb365d4,610377de1cf4f1d223482c78,2021-07-29_23h55.16.199,Simcolourproject_2stim_asymm_v5,2020.2.10,MacIntel,60,61025ae37ef11b136ea224fe,,,,,,,,,3326,-36.38098145,-57.04995728,1,0,0,response5disk,,3,-16.45324707,-6.690734863,1,0,0,rectangle,-16.45324707,-6.690734863,1,0,0,-16.45324707,-6.690734863,1,0,0,0,33,33,69,1,,,,,,,,
,,,,,,,,,,,,,FF,,,,,,,,0.8505,,,,,,,,,,,,,,,,,,,,,,60ff433f89a507a83fb365d4,610377de1cf4f1d223482c78,2021-07-29_23h55.16.199,Simcolourproject_2stim_asymm_v5,2020.2.10,MacIntel,60,61025ae37ef11b136ea224fe,,,,,,,,,3793,-69.16333008,-20.42626953,1,0,0,response5disk,,2,0.975402832,8.691589355,1,0,0,rectangle,0.975402832,8.691589355,1,0,0,0.975402832,8.691589355,1,0,0,0,34,34,44,1,,,,,,,,
,,,,,,,,,,,,,FF,,,,,,,,1.5337,,,,,,,,,,,,,,,,,,,,,,60ff433f89a507a83fb365d4,610377de1cf4f1d223482c78,2021-07-29_23h55.16.199,Simcolourproject_2stim_asymm_v5,2020.2.10,MacIntel,60,61025ae37ef11b136ea224fe,,,,,,,,,3272,-32.60247803,60.02719116,1,0,0,response7disk,,0,-18.36401367,3.236877441,1,0,0,rectangle,-18.36401367,3.236877441,1,0,0,-18.36401367,3.236877441,1,0,0,0,35,35,34,1,,,,,,,,
,,,,,,,,,,,,,FF,,,,,,,,1.3722,,,,,,,,,,,,,,,,,,,,,,60ff433f89a507a83fb365d4,610377de1cf4f1d223482c78,2021-07-29_23h55.16.199,Simcolourproject_2stim_asymm_v5,2020.2.10,MacIntel,60,61025ae37ef11b136ea224fe,,,,,,,,,1868,-43.85656738,54.01712036,1,0,0,response7disk,,0,-19.30462646,7.164093018,1,0,0,rectangle,-19.30462646,7.164093018,1,0,0,-19.30462646,7.164093018,1,0,0,0,36,36,124,1,,,,,,,,
,,,,,,,,,,,,,FF,,,,,,,,1.1673,,,,,,,,,,,,,,,,,,,,,,60ff433f89a507a83fb365d4,610377de1cf4f1d223482c78,2021-07-29_23h55.16.199,Simcolourproject_2stim_asymm_v5,2020.2.10,MacIntel,60,61025ae37ef11b136ea224fe,,,,,,,,,806,76.71569824,22.57049561,1,0,0,response1disk,,6,4.94543457,5.057495117,1,0,0,rectangle,4.94543457,5.057495117,1,0,0,4.94543457,5.057495117,1,0,0,0,37,37,45,1,,,,,,,,
,,,,,,,,,,,,,FF,,,,,,,,1.0678,,,,,,,,,,,,,,,,,,,,,,60ff433f89a507a83fb365d4,610377de1cf4f1d223482c78,2021-07-29_23h55.16.199,Simcolourproject_2stim_asymm_v5,2020.2.10,MacIntel,60,61025ae37ef11b136ea224fe,,,,,,,,,1741,-23.41210938,-59.50405884,1,0,0,response5disk,,3,-4.135192871,-6.556030273,1,0,0,rectangle,-33.08691406,-54.65835571,1,0,0,-10.71435547,0.684082031,1,0,0,0,38,38,5,1,,response5disk_3,TRUE,3,3,"[215,142,120,137,7,39,134,251,11,103,64,284,195,61,85,105,304,62,20,62]",1.3005,rectangle
,,,,,,,,,,,,,FF,,,,,,,,1.1843,,,,,,,,,,,,,,,,,,,,,,60ff433f89a507a83fb365d4,610377de1cf4f1d223482c78,2021-07-29_23h55.16.199,Simcolourproject_2stim_asymm_v5,2020.2.10,MacIntel,60,61025ae37ef11b136ea224fe,,,,,,,,,3520,72.46148682,-40.4430542,1,0,0,response3disk,,5,28.56774902,5.846588135,1,0,0,rectangle,28.56774902,5.846588135,1,0,0,28.56774902,5.846588135,1,0,0,0,39,39,115,1,,,,,,,,
,,,,,,,,,,,,,FF,,,,,,,,0.8677,,,,,,,,,,,,,,,,,,,,,,60ff433f89a507a83fb365d4,610377de1cf4f1d223482c78,2021-07-29_23h55.16.199,Simcolourproject_2stim_asymm_v5,2020.2.10,MacIntel,60,61025ae37ef11b136ea224fe,,,,,,,,,4317,43.53582764,-39.73672485,1,0,0,response3disk,,5,6.342346191,6.608276367,1,0,0,rectangle,6.342346191,6.608276367,1,0,0,6.342346191,6.608276367,1,0,0,0,40,40,102,1,,,,,,,,
,,,,,,,,,,,,,FF,,,,,,,,1.3006,,,,,,,,,,,,,,,,,,,,,,60ff433f89a507a83fb365d4,610377de1cf4f1d223482c78,2021-07-29_23h55.16.199,Simcolourproject_2stim_asymm_v5,2020.2.10,MacIntel,60,61025ae37ef11b136ea224fe,,,,,,,,,1009,-67.73339844,-29.0177002,1,0,0,response5disk,,2,-10.45471191,-1.59173584,1,0,0,rectangle,-10.45471191,-1.59173584,1,0,0,-10.45471191,-1.59173584,1,0,0,0,41,41,66,1,,,,,,,,
,,,,,,,,,,,,,FF,,,,,,,,1.168,,,,,,,,,,,,,,,,,,,,,,60ff433f89a507a83fb365d4,610377de1cf4f1d223482c78,2021-07-29_23h55.16.199,Simcolourproject_2stim_asymm_v5,2020.2.10,MacIntel,60,61025ae37ef11b136ea224fe,,,,,,,,,192,66.97106934,-30.59494019,1,0,0,response3disk,,5,-5.838012695,-14.11087036,1,0,0,rectangle,-5.838012695,-14.11087036,1,0,0,-5.838012695,-14.11087036,1,0,0,0,42,42,49,1,,,,,,,,
,,,,,,,,,,,,,FF,,,,,,,,1.0009,,,,,,,,,,,,,,,,,,,,,,60ff433f89a507a83fb365d4,610377de1cf4f1d223482c78,2021-07-29_23h55.16.199,Simcolourproject_2stim_asymm_v5,2020.2.10,MacIntel,60,61025ae37ef11b136ea224fe,,,,,,,,,1913,-60.89855957,-49.35647583,1,0,0,response5disk,,2,-3.455749512,-3.247253418,1,0,0,rectangle,-3.455749512,-3.247253418,1,0,0,-3.455749512,-3.247253418,1,0,0,0,43,43,125,1,,,,,,,,
,,,,,,,,,,,,,FF,,,,,,,,0.5502,,,,,,,,,,,,,,,,,,,,,,60ff433f89a507a83fb365d4,610377de1cf4f1d223482c78,2021-07-29_23h55.16.199,Simcolourproject_2stim_asymm_v5,2020.2.10,MacIntel,60,61025ae37ef11b136ea224fe,,,,,,,,,1341,-61.32037354,-37.33804321,1,0,0,response5disk,,2,-11.6038208,0.959869385,1,0,0,rectangle,-11.6038208,0.959869385,1,0,0,-11.6038208,0.959869385,1,0,0,0,44,44,55,1,,,,,,,,
,,,,,,,,,,,,,FF,,,,,,,,3.0169,,,,,,,,,,,,,,,,,,,,,,60ff433f89a507a83fb365d4,610377de1cf4f1d223482c78,2021-07-29_23h55.16.199,Simcolourproject_2stim_asymm_v5,2020.2.10,MacIntel,60,61025ae37ef11b136ea224fe,,,,,,,,,2052,-41.67938232,-78.28598022,1,0,0,response5disk,,3,-13.85070801,-3.094726563,1,0,0,rectangle,-13.85070801,-3.094726563,1,0,0,-13.85070801,-3.094726563,1,0,0,0,45,45,113,1,,,,,,,,
,,,,,,,,,,,,,FF,,,,,,,,1.3018,,,,,,,,,,,,,,,,,,,,,,60ff433f89a507a83fb365d4,610377de1cf4f1d223482c78,2021-07-29_23h55.16.199,Simcolourproject_2stim_asymm_v5,2020.2.10,MacIntel,60,61025ae37ef11b136ea224fe,,,,,,,,,2640,-53.33721924,-26.75973511,1,0,0,response5disk,,2,-6.406982422,8.408813477,1,0,0,rectangle,-6.406982422,8.408813477,1,0,0,-6.406982422,8.408813477,1,0,0,0,46,46,136,1,,,,,,,,
,,,,,,,,,,,,,FF,,,,,,,,0.8171,,,,,,,,,,,,,,,,,,,,,,60ff433f89a507a83fb365d4,610377de1cf4f1d223482c78,2021-07-29_23h55.16.199,Simcolourproject_2stim_asymm_v5,2020.2.10,MacIntel,60,61025ae37ef11b136ea224fe,,,,,,,,,2508,-68.45819092,-33.5645752,1,0,0,response5disk,,2,-10.04425049,0.194549561,1,0,0,rectangle,-10.04425049,0.194549561,1,0,0,-10.04425049,0.194549561,1,0,0,0,47,47,38,1,,,,,,,,
,,,,,,,,,,,,,FF,,,,,,,,0.7169,,,,,,,,,,,,,,,,,,,,,,60ff433f89a507a83fb365d4,610377de1cf4f1d223482c78,2021-07-29_23h55.16.199,Simcolourproject_2stim_asymm_v5,2020.2.10,MacIntel,60,61025ae37ef11b136ea224fe,,,,,,,,,618,71.72485352,-22.15551758,1,0,0,response3disk,,5,19.14337158,-2.040466309,1,0,0,rectangle,19.14337158,-2.040466309,1,0,0,19.14337158,-2.040466309,1,0,0,0,48,48,13,1,,,,,,,,
,,,,,,,,,,,,,FF,,,,,,,,0.783,,,,,,,,,,,,,,,,,,,,,,60ff433f89a507a83fb365d4,610377de1cf4f1d223482c78,2021-07-29_23h55.16.199,Simcolourproject_2stim_asymm_v5,2020.2.10,MacIntel,60,61025ae37ef11b136ea224fe,,,,,,,,,2828,75.95568848,24.46380615,1,0,0,response1disk,,6,10.24902344,13.29019165,1,0,0,rectangle,10.24902344,13.29019165,1,0,0,10.24902344,13.29019165,1,0,0,0,49,49,29,1,,,,,,,,
,,,,,,,,,,,,,FF,,,,,,,,0.801,,,,,,,,,,,,,,,,,,,,,,60ff433f89a507a83fb365d4,610377de1cf4f1d223482c78,2021-07-29_23h55.16.199,Simcolourproject_2stim_asymm_v5,2020.2.10,MacIntel,60,61025ae37ef11b136ea224fe,,,,,,,,,3914,60.34991455,-32.04013062,1,0,0,response3disk,,5,-2.877990723,-5.916320801,1,0,0,rectangle,-2.877990723,-5.916320801,1,0,0,-2.877990723,-5.916320801,1,0,0,0,50,50,143,1,,,,,,,,
,,,,,,,,,,,,,FF,,,,,,,,0.8167,,,,,,,,,,,,,,,,,,,,,,60ff433f89a507a83fb365d4,610377de1cf4f1d223482c78,2021-07-29_23h55.16.199,Simcolourproject_2stim_asymm_v5,2020.2.10,MacIntel,60,61025ae37ef11b136ea224fe,,,,,,,,,3134,-57.6361084,-44.31375122,1,0,0,response5disk,,2,-4.715820313,-7.860656738,1,0,0,rectangle,-4.715820313,-7.860656738,1,0,0,-4.715820313,-7.860656738,1,0,0,0,51,51,106,1,,,,,,,,
,,,,,,,,,,,,,FF,,,,,,,,0.9406,,,,,,,,,,,,,,,,,,,,,,60ff433f89a507a83fb365d4,610377de1cf4f1d223482c78,2021-07-29_23h55.16.199,Simcolourproject_2stim_asymm_v5,2020.2.10,MacIntel,60,61025ae37ef11b136ea224fe,,,,,,,,,773,-32.47473145,-73.38491821,1,0,0,response5disk,,3,-4.527404785,-10.80004883,1,0,0,rectangle,-4.527404785,-10.80004883,1,0,0,-4.527404785,-10.80004883,1,0,0,0,52,52,118,1,,,,,,,,
,,,,,,,,,,,,,FF,,,,,,,,0.6837,,,,,,,,,,,,,,,,,,,,,,60ff433f89a507a83fb365d4,610377de1cf4f1d223482c78,2021-07-29_23h55.16.199,Simcolourproject_2stim_asymm_v5,2020.2.10,MacIntel,60,61025ae37ef11b136ea224fe,,,,,,,,,2312,-33.94140625,-48.16815186,1,0,0,response5disk,,3,-20.22717285,-13.07272339,1,0,0,rectangle,-20.22717285,-13.07272339,1,0,0,-20.22717285,-13.07272339,1,0,0,0,53,53,154,1,,,,,,,,
,,,,,,,,,,,,,FF,,,,,,,,0.7597,,,,,,,,,,,,,,,,,,,,,,60ff433f89a507a83fb365d4,610377de1cf4f1d223482c78,2021-07-29_23h55.16.199,Simcolourproject_2stim_asymm_v5,2020.2.10,MacIntel,60,61025ae37ef11b136ea224fe,,,,,,,,,3185,-80.14465332,20.05007935,1,0,0,response7disk,,1,4.483093262,5.308258057,1,0,0,rectangle,4.483093262,5.308258057,1,0,0,4.483093262,5.308258057,1,0,0,0,54,54,101,1,,,,,,,,
,,,,,,,,,,,,,FF,,,,,,,,1.184,,,,,,,,,,,,,,,,,,,,,,60ff433f89a507a83fb365d4,610377de1cf4f1d223482c78,2021-07-29_23h55.16.199,Simcolourproject_2stim_asymm_v5,2020.2.10,MacIntel,60,61025ae37ef11b136ea224fe,,,,,,,,,2470,-63.62512207,33.69616699,1,0,0,response7disk,,1,9.073547363,7.825500488,1,0,0,rectangle,9.073547363,7.825500488,1,0,0,9.073547363,7.825500488,1,0,0,0,55,55,87,1,,,,,,,,
,,,,,,,,,,,,,FF,,,,,,,,0.7337,,,,,,,,,,,,,,,,,,,,,,60ff433f89a507a83fb365d4,610377de1cf4f1d223482c78,2021-07-29_23h55.16.199,Simcolourproject_2stim_asymm_v5,2020.2.10,MacIntel,60,61025ae37ef11b136ea224fe,,,,,,,,,1088,-30.56433105,66.09188843,1,0,0,response7disk,,0,-9.791992188,-3.070465088,1,0,0,rectangle,-9.791992188,-3.070465088,1,0,0,-9.791992188,-3.070465088,1,0,0,0,56,56,79,1,,,,,,,,
,,,,,,,,,,,,,FF,,,,,,,,1.517,,,,,,,,,,,,,,,,,,,,,,60ff433f89a507a83fb365d4,610377de1cf4f1d223482c78,2021-07-29_23h55.16.199,Simcolourproject_2stim_asymm_v5,2020.2.10,MacIntel,60,61025ae37ef11b136ea224fe,,,,,,,,,2726,76.71228027,35.81121826,1,0,0,response1disk,,6,4.594726563,0.304229736,1,0,0,rectangle,4.594726563,0.304229736,1,0,0,4.594726563,0.304229736,1,0,0,0,57,57,9,1,,,,,,,,
,,,,,,,,,,,,,FF,,,,,,,,1.8379,,,,,,,,,,,,,,,,,,,,,,60ff433f89a507a83fb365d4,610377de1cf4f1d223482c78,2021-07-29_23h55.16.199,Simcolourproject_2stim_asymm_v5,2020.2.10,MacIntel,60,61025ae37ef11b136ea224fe,,,,,,,,,271,33.25231934,-45.5038147,1,0,0,response3disk,,4,8.995300293,-14.83181763,1,0,0,rectangle,8.995300293,-14.83181763,1,0,0,8.995300293,-14.83181763,1,0,0,0,58,58,28,1,,,,,,,,
,,,,,,,,,,,,,FF,,,,,,,,0.7672,,,,,,,,,,,,,,,,,,,,,,60ff433f89a507a83fb365d4,610377de1cf4f1d223482c78,2021-07-29_23h55.16.199,Simcolourproject_2stim_asymm_v5,2020.2.10,MacIntel,60,61025ae37ef11b136ea224fe,,,,,,,,,2367,34.10772705,-56.55715942,1,0,0,response3disk,,4,13.26251221,-12.70223999,1,0,0,rectangle,13.26251221,-12.70223999,1,0,0,13.26251221,-12.70223999,1,0,0,0,59,59,17,1,,,,,,,,
,,,,,,,,,,,,,FF,,,,,,,,0.9181,,,,,,,,,,,,,,,,,,,,,,60ff433f89a507a83fb365d4,610377de1cf4f1d223482c78,2021-07-29_23h55.16.199,Simcolourproject_2stim_asymm_v5,2020.2.10,MacIntel,60,61025ae37ef11b136ea224fe,,,,,,,,,1250,-34.15148926,-55.64645386,1,0,0,response5disk,,3,-10.91192627,1.757629395,1,0,0,rectangle,41.43951416,-68.69448853,1,0,0,11.71936035,-6.830352783,1,0,0,0,60,60,133,1,,response3disk_3,TRUE,4,4,"[215,142,120,137,7,39,134,251,11,103,64,284,195,61,85,105,304,62,20,62]",1.5548,rectangle
,,,,,,,,,,,,,FF,,,,,,,,0.8881,,,,,,,,,,,,,,,,,,,,,,60ff433f89a507a83fb365d4,610377de1cf4f1d223482c78,2021-07-29_23h55.16.199,Simcolourproject_2stim_asymm_v5,2020.2.10,MacIntel,60,61025ae37ef11b136ea224fe,,,,,,,,,4187,68.27056885,-21.33544922,1,0,0,response3disk,,5,7.538818359,-3.821777344,1,0,0,rectangle,-31.42645264,72.39556885,1,0,0,-16.43951416,8.439025879,1,0,0,0,61,61,98,1,,response7disk_3,TRUE,0,0,"[215,142,120,137,7,39,134,251,11,103,64,284,195,61,85,105,304,62,20,62]",1.6013,rectangle
,,,,,,,,,,,,,FF,,,,,,,,1.2242,,,,,,,,,,,,,,,,,,,,,,60ff433f89a507a83fb365d4,610377de1cf4f1d223482c78,2021-07-29_23h55.16.199,Simcolourproject_2stim_asymm_v5,2020.2.10,MacIntel,60,61025ae37ef11b136ea224fe,,,,,,,,,2528,-84.13897705,-41.86856079,1,0,0,response5disk,,2,6.570007324,-2.071533203,1,0,0,rectangle,6.570007324,-2.071533203,1,0,0,6.570007324,-2.071533203,1,0,0,0,62,62,122,1,,,,,,,,
,,,,,,,,,,,,,FF,,,,,,,,1.1176,,,,,,,,,,,,,,,,,,,,,,60ff433f89a507a83fb365d4,610377de1cf4f1d223482c78,2021-07-29_23h55.16.199,Simcolourproject_2stim_asymm_v5,2020.2.10,MacIntel,60,61025ae37ef11b136ea224fe,,,,,,,,,454,-47.04864502,39.16796875,1,0,0,response7disk,,1,-3.998718262,5.285308838,1,0,0,rectangle,-32.71704102,-58.13223267,1,0,0,-10.53741455,-9.137451172,1,0,0,0,63,63,135,1,,response5disk_3,TRUE,3,3,"[215,142,120,137,7,39,134,251,11,103,64,284,195,61,85,105,304,62,20,62]",1.0844,rectangle
,,,,,,,,,,,,,FF,,,,,,,,1.2506,,,,,,,,,,,,,,,,,,,,,,60ff433f89a507a83fb365d4,610377de1cf4f1d223482c78,2021-07-29_23h55.16.199,Simcolourproject_2stim_asymm_v5,2020.2.10,MacIntel,60,61025ae37ef11b136ea224fe,,,,,,,,,3588,76.51226807,-41.62890625,1,0,0,response3disk,,5,-2.832641602,-9.051147461,1,0,0,rectangle,-2.832641602,-9.051147461,1,0,0,-2.832641602,-9.051147461,1,0,0,0,64,64,30,1,,,,,,,,
,,,,,,,,,,,,,FF,,,,,,,,1.6014,,,,,,,,,,,,,,,,,,,,,,60ff433f89a507a83fb365d4,610377de1cf4f1d223482c78,2021-07-29_23h55.16.199,Simcolourproject_2stim_asymm_v5,2020.2.10,MacIntel,60,61025ae37ef11b136ea224fe,,,,,,,,,542,-66.65301514,-32.69168091,1,0,0,response5disk,,2,6.740112305,8.650787354,1,0,0,rectangle,6.740112305,8.650787354,1,0,0,6.740112305,8.650787354,1,0,0,0,65,65,90,1,,,,,,,,
,,,,,,,,,,,,,FF,,,,,,,,0.6837,,,,,,,,,,,,,,,,,,,,,,60ff433f89a507a83fb365d4,610377de1cf4f1d223482c78,2021-07-29_23h55.16.199,Simcolourproject_2stim_asymm_v5,2020.2.10,MacIntel,60,61025ae37ef11b136ea224fe,,,,,,,,,149,-63.31689453,-25.70336914,1,0,0,response5disk,,2,-0.685058594,2.918029785,1,0,0,rectangle,-0.685058594,2.918029785,1,0,0,-0.685058594,2.918029785,1,0,0,0,66,66,83,1,,,,,,,,
,,,,,,,,,,,,,FF,,,,,,,,0.6837,,,,,,,,,,,,,,,,,,,,,,60ff433f89a507a83fb365d4,610377de1cf4f1d223482c78,2021-07-29_23h55.16.199,Simcolourproject_2stim_asymm_v5,2020.2.10,MacIntel,60,61025ae37ef11b136ea224fe,,,,,,,,,1784,-50.26806641,32.14089966,1,0,0,response7disk,,1,-5.029052734,5.108398438,1,0,0,rectangle,-5.029052734,5.108398438,1,0,0,-5.029052734,5.108398438,1,0,0,0,67,67,68,1,,,,,,,,
,,,,,,,,,,,,,FF,,,,,,,,0.7445,,,,,,,,,,,,,,,,,,,,,,60ff433f89a507a83fb365d4,610377de1cf4f1d223482c78,2021-07-29_23h55.16.199,Simcolourproject_2stim_asymm_v5,2020.2.10,MacIntel,60,61025ae37ef11b136ea224fe,,,,,,,,,1876,-53.86450195,-26.78253174,1,0,0,response5disk,,2,-2.725280762,-5.640899658,1,0,0,rectangle,-2.725280762,-5.640899658,1,0,0,-2.725280762,-5.640899658,1,0,0,0,68,68,89,1,,,,,,,,
,,,,,,,,,,,,,FF,,,,,,,,1.1674,,,,,,,,,,,,,,,,,,,,,,60ff433f89a507a83fb365d4,610377de1cf4f1d223482c78,2021-07-29_23h55.16.199,Simcolourproject_2stim_asymm_v5,2020.2.10,MacIntel,60,61025ae37ef11b136ea224fe,,,,,,,,,1809,-21.45544434,-55.23068237,1,0,0,response5disk,,3,-2.016845703,-9.186645508,1,0,0,rectangle,-2.016845703,-9.186645508,1,0,0,-2.016845703,-9.186645508,1,0,0,0,69,69,74,1,,,,,,,,
,,,,,,,,,,,,,FF,,,,,,,,2.0505,,,,,,,,,,,,,,,,,,,,,,60ff433f89a507a83fb365d4,610377de1cf4f1d223482c78,2021-07-29_23h55.16.199,Simcolourproject_2stim_asymm_v5,2020.2.10,MacIntel,60,61025ae37ef11b136ea224fe,,,,,,,,,3700,-67.46337891,-29.29022217,1,0,0,response5disk,,2,-14.51428223,-14.02035522,1,0,0,rectangle,-14.51428223,-14.02035522,1,0,0,-14.51428223,-14.02035522,1,0,0,0,70,70,107,1,,,,,,,,
,,,,,,,,,,,,,FF,,,,,,,,1.2023,,,,,,,,,,,,,,,,,,,,,,60ff433f89a507a83fb365d4,610377de1cf4f1d223482c78,2021-07-29_23h55.16.199,Simcolourproject_2stim_asymm_v5,2020.2.10,MacIntel,60,61025ae37ef11b136ea224fe,,,,,,,,,3797,-74.12091064,25.92050171,1,0,0,response7disk,,1,-9.10144043,-5.694976807,1,0,0,rectangle,-9.10144043,-5.694976807,1,0,0,-9.10144043,-5.694976807,1,0,0,0,71,71,159,1,,,,,,,,
,,,,,,,,,,,,,FF,,,,,,,,0.7363,,,,,,,,,,,,,,,,,,,,,,60ff433f89a507a83fb365d4,610377de1cf4f1d223482c78,2021-07-29_23h55.16.199,Simcolourproject_2stim_asymm_v5,2020.2.10,MacIntel,60,61025ae37ef11b136ea224fe,,,,,,,,,3230,-26.87451172,70.1305542,1,0,0,response7disk,,0,-23.90771484,1.167053223,1,0,0,rectangle,-23.90771484,1.167053223,1,0,0,-23.90771484,1.167053223,1,0,0,0,72,72,78,1,,,,,,,,
,,,,,,,,,,,,,FF,,,,,,,,1,,,,,,,,,,,,,,,,,,,,,,60ff433f89a507a83fb365d4,610377de1cf4f1d223482c78,2021-07-29_23h55.16.199,Simcolourproject_2stim_asymm_v5,2020.2.10,MacIntel,60,61025ae37ef11b136ea224fe,,,,,,,,,409,-49.03436279,70.37075806,1,0,0,response7disk,,0,-26.83410645,14.91741943,1,0,0,rectangle,-26.83410645,14.91741943,1,0,0,-26.83410645,14.91741943,1,0,0,0,73,73,24,1,,,,,,,,
,,,,,,,,,,,,,FF,,,,,,,,0.7503,,,,,,,,,,,,,,,,,,,,,,60ff433f89a507a83fb365d4,610377de1cf4f1d223482c78,2021-07-29_23h55.16.199,Simcolourproject_2stim_asymm_v5,2020.2.10,MacIntel,60,61025ae37ef11b136ea224fe,,,,,,,,,1547,-70.15270996,-25.07781982,1,0,0,response5disk,,2,-2.991638184,-3.399169922,1,0,0,rectangle,-2.991638184,-3.399169922,1,0,0,-2.991638184,-3.399169922,1,0,0,0,74,74,110,1,,,,,,,,
,,,,,,,,,,,,,FF,,,,,,,,0.7835,,,,,,,,,,,,,,,,,,,,,,60ff433f89a507a83fb365d4,610377de1cf4f1d223482c78,2021-07-29_23h55.16.199,Simcolourproject_2stim_asymm_v5,2020.2.10,MacIntel,60,61025ae37ef11b136ea224fe,,,,,,,,,2514,-24.75036621,90.40579224,1,0,0,response7disk,,0,-14.04400635,5.97253418,1,0,0,rectangle,-14.04400635,5.97253418,1,0,0,-14.04400635,5.97253418,1,0,0,0,75,75,153,1,,,,,,,,
,,,,,,,,,,,,,FF,,,,,,,,1.0185,,,,,,,,,,,,,,,,,,,,,,60ff433f89a507a83fb365d4,610377de1cf4f1d223482c78,2021-07-29_23h55.16.199,Simcolourproject_2stim_asymm_v5,2020.2.10,MacIntel,60,61025ae37ef11b136ea224fe,,,,,,,,,2911,-32.19946289,68.04919434,1,0,0,response7disk,,0,-3.426269531,-5.650024414,1,0,0,rectangle,-3.426269531,-5.650024414,1,0,0,-3.426269531,-5.650024414,1,0,0,0,76,76,116,1,,,,,,,,
,,,,,,,,,,,,,FF,,,,,,,,1.5004,,,,,,,,,,,,,,,,,,,,,,60ff433f89a507a83fb365d4,610377de1cf4f1d223482c78,2021-07-29_23h55.16.199,Simcolourproject_2stim_asymm_v5,2020.2.10,MacIntel,60,61025ae37ef11b136ea224fe,,,,,,,,,3159,-68.68670654,-33.25891113,1,0,0,response5disk,,2,-5.194580078,-4.379760742,1,0,0,rectangle,-5.194580078,-4.379760742,1,0,0,-5.194580078,-4.379760742,1,0,0,0,77,77,103,1,,,,,,,,
,,,,,,,,,,,,,FF,,,,,,,,1.0787,,,,,,,,,,,,,,,,,,,,,,60ff433f89a507a83fb365d4,610377de1cf4f1d223482c78,2021-07-29_23h55.16.199,Simcolourproject_2stim_asymm_v5,2020.2.10,MacIntel,60,61025ae37ef11b136ea224fe,,,,,,,,,3302,-58.25805664,-29.11712646,1,0,0,response5disk,,2,-9.917419434,-11.53689575,1,0,0,rectangle,-9.917419434,-11.53689575,1,0,0,-9.917419434,-11.53689575,1,0,0,0,78,78,25,1,,,,,,,,
,,,,,,,,,,,,,FF,,,,,,,,0.9481,,,,,,,,,,,,,,,,,,,,,,60ff433f89a507a83fb365d4,610377de1cf4f1d223482c78,2021-07-29_23h55.16.199,Simcolourproject_2stim_asymm_v5,2020.2.10,MacIntel,60,61025ae37ef11b136ea224fe,,,,,,,,,2216,-63.35339355,-44.31903076,1,0,0,response5disk,,2,-4.960327148,-2.250732422,1,0,0,rectangle,-4.960327148,-2.250732422,1,0,0,-4.960327148,-2.250732422,1,0,0,0,79,79,86,1,,,,,,,,
,,,,,,,,,,,,,FF,,,,,,,,1.0043,,,,,,,,,,,,,,,,,,,,,,60ff433f89a507a83fb365d4,610377de1cf4f1d223482c78,2021-07-29_23h55.16.199,Simcolourproject_2stim_asymm_v5,2020.2.10,MacIntel,60,61025ae37ef11b136ea224fe,,,,,,,,,3732,-37.02880859,68.73092651,1,0,0,response7disk,,0,-17.7746582,11.05993652,1,0,0,rectangle,-17.7746582,11.05993652,1,0,0,-17.7746582,11.05993652,1,0,0,0,80,80,60,1,,,,,,,,
,,,,,,,,,,,,,FF,,,,,,,,1.4188,,,,,,,,,,,,,,,,,,,,,,60ff433f89a507a83fb365d4,610377de1cf4f1d223482c78,2021-07-29_23h55.16.199,Simcolourproject_2stim_asymm_v5,2020.2.10,MacIntel,60,61025ae37ef11b136ea224fe,,,,,,,,,921,-75.53277588,-26.75195313,1,0,0,response5disk,,2,-23.38269043,-2.0440979,1,0,0,rectangle,-23.38269043,-2.0440979,1,0,0,-23.38269043,-2.0440979,1,0,0,0,81,81,62,1,,,,,,,,
,,,,,,,,,,,,,FF,,,,,,,,1.1507,,,,,,,,,,,,,,,,,,,,,,60ff433f89a507a83fb365d4,610377de1cf4f1d223482c78,2021-07-29_23h55.16.199,Simcolourproject_2stim_asymm_v5,2020.2.10,MacIntel,60,61025ae37ef11b136ea224fe,,,,,,,,,37,-57.09472656,36.33822632,1,0,0,response7disk,,1,-8.980895996,-0.601104736,1,0,0,rectangle,-8.980895996,-0.601104736,1,0,0,-8.980895996,-0.601104736,1,0,0,0,82,82,138,1,,,,,,,,
,,,,,,,,,,,,,FF,,,,,,,,0.5002,,,,,,,,,,,,,,,,,,,,,,60ff433f89a507a83fb365d4,610377de1cf4f1d223482c78,2021-07-29_23h55.16.199,Simcolourproject_2stim_asymm_v5,2020.2.10,MacIntel,60,61025ae37ef11b136ea224fe,,,,,,,,,604,-67.91149902,43.95657349,1,0,0,response7disk,,1,-14.57702637,1.197265625,1,0,0,rectangle,-14.57702637,1.197265625,1,0,0,-14.57702637,1.197265625,1,0,0,0,83,83,15,1,,,,,,,,
,,,,,,,,,,,,,FF,,,,,,,,1.3237,,,,,,,,,,,,,,,,,,,,,,60ff433f89a507a83fb365d4,610377de1cf4f1d223482c78,2021-07-29_23h55.16.199,Simcolourproject_2stim_asymm_v5,2020.2.10,MacIntel,60,61025ae37ef11b136ea224fe,,,,,,,,,1666,-22.80682373,-68.17068481,1,0,0,response5disk,,3,16.39904785,1.177276611,1,0,0,rectangle,36.73352051,61.65292358,1,0,0,27.51989746,-10.72412109,1,0,0,0,84,84,140,1,,response1disk_3,TRUE,7,7,"[215,142,120,137,7,39,134,251,11,103,64,284,195,61,85,105,304,62,20,62]",1.6858,rectangle
,,,,,,,,,,,,,FF,,,,,,,,0.932,,,,,,,,,,,,,,,,,,,,,,60ff433f89a507a83fb365d4,610377de1cf4f1d223482c78,2021-07-29_23h55.16.199,Simcolourproject_2stim_asymm_v5,2020.2.10,MacIntel,60,61025ae37ef11b136ea224fe,,,,,,,,,763,-67.89215088,-41.34820557,1,0,0,response5disk,,2,-5.340515137,-1.728240967,1,0,0,rectangle,-5.340515137,-1.728240967,1,0,0,-5.340515137,-1.728240967,1,0,0,0,85,85,71,1,,,,,,,,
,,,,,,,,,,,,,FF,,,,,,,,1.2745,,,,,,,,,,,,,,,,,,,,,,60ff433f89a507a83fb365d4,610377de1cf4f1d223482c78,2021-07-29_23h55.16.199,Simcolourproject_2stim_asymm_v5,2020.2.10,MacIntel,60,61025ae37ef11b136ea224fe,,,,,,,,,3339,75.85491943,-40.29379272,1,0,0,response3disk,,5,2.101074219,-2.891326904,1,0,0,rectangle,2.101074219,-2.891326904,1,0,0,2.101074219,-2.891326904,1,0,0,0,86,86,41,1,,,,,,,,
,,,,,,,,,,,,,FF,,,,,,,,1.4007,,,,,,,,,,,,,,,,,,,,,,60ff433f89a507a83fb365d4,610377de1cf4f1d223482c78,2021-07-29_23h55.16.199,Simcolourproject_2stim_asymm_v5,2020.2.10,MacIntel,60,61025ae37ef11b136ea224fe,,,,,,,,,1031,-65.12133789,30.50033569,1,0,0,response7disk,,1,-27.20355225,-1.917388916,1,0,0,rectangle,-27.20355225,-1.917388916,1,0,0,-27.20355225,-1.917388916,1,0,0,0,87,87,104,1,,,,,,,,
,,,,,,,,,,,,,FF,,,,,,,,0.5516,,,,,,,,,,,,,,,,,,,,,,60ff433f89a507a83fb365d4,610377de1cf4f1d223482c78,2021-07-29_23h55.16.199,Simcolourproject_2stim_asymm_v5,2020.2.10,MacIntel,60,61025ae37ef11b136ea224fe,,,,,,,,,938,-54.8416748,26.97070313,1,0,0,response7disk,,1,-5.335083008,3.395019531,1,0,0,rectangle,-5.335083008,3.395019531,1,0,0,-5.335083008,3.395019531,1,0,0,0,88,88,129,1,,,,,,,,
,,,,,,,,,,,,,FF,,,,,,,,1.0512,,,,,,,,,,,,,,,,,,,,,,60ff433f89a507a83fb365d4,610377de1cf4f1d223482c78,2021-07-29_23h55.16.199,Simcolourproject_2stim_asymm_v5,2020.2.10,MacIntel,60,61025ae37ef11b136ea224fe,,,,,,,,,1327,-68.20397949,52.99581909,1,0,0,response7disk,,1,-29.14135742,13.94137573,1,0,0,rectangle,-29.14135742,13.94137573,1,0,0,-29.14135742,13.94137573,1,0,0,0,89,89,0,1,,,,,,,,
,,,,,,,,,,,,,FF,,,,,,,,0.7912,,,,,,,,,,,,,,,,,,,,,,60ff433f89a507a83fb365d4,610377de1cf4f1d223482c78,2021-07-29_23h55.16.199,Simcolourproject_2stim_asymm_v5,2020.2.10,MacIntel,60,61025ae37ef11b136ea224fe,,,,,,,,,2399,-69.73266602,28.62957764,1,0,0,response7disk,,1,-8.276367188,4.078063965,1,0,0,rectangle,-8.276367188,4.078063965,1,0,0,-8.276367188,4.078063965,1,0,0,0,90,90,31,1,,,,,,,,
,,,,,,,,,,,,,FF,,,,,,,,1.2338,,,,,,,,,,,,,,,,,,,,,,60ff433f89a507a83fb365d4,610377de1cf4f1d223482c78,2021-07-29_23h55.16.199,Simcolourproject_2stim_asymm_v5,2020.2.10,MacIntel,60,61025ae37ef11b136ea224fe,,,,,,,,,3656,-59.76062012,29.16162109,1,0,0,response7disk,,1,-8.115356445,7.890930176,1,0,0,rectangle,-8.115356445,7.890930176,1,0,0,-8.115356445,7.890930176,1,0,0,0,91,91,94,1,,,,,,,,
,,,,,,,,,,,,,FF,,,,,,,,0.6199,,,,,,,,,,,,,,,,,,,,,,60ff433f89a507a83fb365d4,610377de1cf4f1d223482c78,2021-07-29_23h55.16.199,Simcolourproject_2stim_asymm_v5,2020.2.10,MacIntel,60,61025ae37ef11b136ea224fe,,,,,,,,,2634,-43.76281738,22.78729248,1,0,0,response7disk,,1,-7.014526367,1.623291016,1,0,0,rectangle,-7.014526367,1.623291016,1,0,0,-7.014526367,1.623291016,1,0,0,0,92,92,39,1,,,,,,,,
,,,,,,,,,,,,,FF,,,,,,,,0.9186,,,,,,,,,,,,,,,,,,,,,,60ff433f89a507a83fb365d4,610377de1cf4f1d223482c78,2021-07-29_23h55.16.199,Simcolourproject_2stim_asymm_v5,2020.2.10,MacIntel,60,61025ae37ef11b136ea224fe,,,,,,,,,3043,-29.5324707,61.05679321,1,0,0,response7disk,,0,-19.58251953,13.87091064,1,0,0,rectangle,-19.58251953,13.87091064,1,0,0,-19.58251953,13.87091064,1,0,0,0,93,93,134,1,,,,,,,,
,,,,,,,,,,,,,FF,,,,,,,,0.668,,,,,,,,,,,,,,,,,,,,,,60ff433f89a507a83fb365d4,610377de1cf4f1d223482c78,2021-07-29_23h55.16.199,Simcolourproject_2stim_asymm_v5,2020.2.10,MacIntel,60,61025ae37ef11b136ea224fe,,,,,,,,,290,-30.18353271,56.98471069,1,0,0,response7disk,,0,-23.92749023,6.093139648,1,0,0,rectangle,-23.92749023,6.093139648,1,0,0,-23.92749023,6.093139648,1,0,0,0,94,94,32,1,,,,,,,,
,,,,,,,,,,,,,FF,,,,,,,,0.9015,,,,,,,,,,,,,,,,,,,,,,60ff433f89a507a83fb365d4,610377de1cf4f1d223482c78,2021-07-29_23h55.16.199,Simcolourproject_2stim_asymm_v5,2020.2.10,MacIntel,60,61025ae37ef11b136ea224fe,,,,,,,,,3442,-84.17059326,30.30633545,1,0,0,response7disk,,1,-21.43518066,4.54486084,1,0,0,rectangle,-21.43518066,4.54486084,1,0,0,-21.43518066,4.54486084,1,0,0,0,95,95,121,1,,,,,,,,
,,,,,,,,,,,,,FF,,,,,,,,0.9926,,,,,,,,,,,,,,,,,,,,,,60ff433f89a507a83fb365d4,610377de1cf4f1d223482c78,2021-07-29_23h55.16.199,Simcolourproject_2stim_asymm_v5,2020.2.10,MacIntel,60,61025ae37ef11b136ea224fe,,,,,,,,,2297,31.48840332,-53.57339478,1,0,0,response3disk,,4,23.98858643,-5.278259277,1,0,0,rectangle,23.98858643,-5.278259277,1,0,0,23.98858643,-5.278259277,1,0,0,0,96,96,81,1,,,,,,,,
,,,,,,,,,,,,,FF,,,,,,,,1.0675,,,,,,,,,,,,,,,,,,,,,,60ff433f89a507a83fb365d4,610377de1cf4f1d223482c78,2021-07-29_23h55.16.199,Simcolourproject_2stim_asymm_v5,2020.2.10,MacIntel,60,61025ae37ef11b136ea224fe,,,,,,,,,1420,-70.80371094,25.64804077,1,0,0,response7disk,,1,-16.73999023,-9.003204346,1,0,0,rectangle,-16.73999023,-9.003204346,1,0,0,-16.73999023,-9.003204346,1,0,0,0,97,97,131,1,,,,,,,,
,,,,,,,,,,,,,FF,,,,,,,,0.7674,,,,,,,,,,,,,,,,,,,,,,60ff433f89a507a83fb365d4,610377de1cf4f1d223482c78,2021-07-29_23h55.16.199,Simcolourproject_2stim_asymm_v5,2020.2.10,MacIntel,60,61025ae37ef11b136ea224fe,,,,,,,,,4259,-27.61553955,53.59436035,1,0,0,response7disk,,0,-14.27081299,5.513946533,1,0,0,rectangle,-14.27081299,5.513946533,1,0,0,-14.27081299,5.513946533,1,0,0,0,98,98,97,1,,,,,,,,
,,,,,,,,,,,,,FF,,,,,,,,1.0503,,,,,,,,,,,,,,,,,,,,,,60ff433f89a507a83fb365d4,610377de1cf4f1d223482c78,2021-07-29_23h55.16.199,Simcolourproject_2stim_asymm_v5,2020.2.10,MacIntel,60,61025ae37ef11b136ea224fe,,,,,,,,,1893,80.19555664,23.97470093,1,0,0,response1disk,,6,12.7947998,9.246002197,1,0,0,rectangle,12.7947998,9.246002197,1,0,0,12.7947998,9.246002197,1,0,0,0,99,99,40,1,,,,,,,,
,,,,,,,,,,,,,FF,,,,,,,,2.2525,,,,,,,,,,,,,,,,,,,,,,60ff433f89a507a83fb365d4,610377de1cf4f1d223482c78,2021-07-29_23h55.16.199,Simcolourproject_2stim_asymm_v5,2020.2.10,MacIntel,60,61025ae37ef11b136ea224fe,,,,,,,,,681,-76.54138184,-50.84674072,1,0,0,response5disk,,2,-2.142822266,-6.816436768,1,0,0,rectangle,-2.142822266,-6.816436768,1,0,0,-2.142822266,-6.816436768,1,0,0,0,100,100,149,1,,,,,,,,
,,,,,,,,,,,,,FF,,,,,,,,0.9019,,,,,,,,,,,,,,,,,,,,,,60ff433f89a507a83fb365d4,610377de1cf4f1d223482c78,2021-07-29_23h55.16.199,Simcolourproject_2stim_asymm_v5,2020.2.10,MacIntel,60,61025ae37ef11b136ea224fe,,,,,,,,,1761,33.82476807,-49.89794922,1,0,0,response3disk,,4,16.43249512,-0.325714111,1,0,0,rectangle,16.43249512,-0.325714111,1,0,0,16.43249512,-0.325714111,1,0,0,0,101,101,130,1,,,,,,,,
,,,,,,,,,,,,,FF,,,,,,,,1.2051,,,,,,,,,,,,,,,,,,,,,,60ff433f89a507a83fb365d4,610377de1cf4f1d223482c78,2021-07-29_23h55.16.199,Simcolourproject_2stim_asymm_v5,2020.2.10,MacIntel,60,61025ae37ef11b136ea224fe,,,,,,,,,110,-69.09460449,-26.89712524,1,0,0,response5disk,,2,-16.26434326,-14.98736572,1,0,0,rectangle,-32.61767578,51.24835205,1,0,0,-19.04504395,-2.923858643,1,0,0,0,102,102,112,1,,response7disk_3,TRUE,0,0,"[215,142,120,137,7,39,134,251,11,103,64,284,195,61,85,105,304,62,20,62]",1.1185,rectangle
,,,,,,,,,,,,,FF,,,,,,,,1.0005,,,,,,,,,,,,,,,,,,,,,,60ff433f89a507a83fb365d4,610377de1cf4f1d223482c78,2021-07-29_23h55.16.199,Simcolourproject_2stim_asymm_v5,2020.2.10,MacIntel,60,61025ae37ef11b136ea224fe,,,,,,,,,4302,-75.17749023,25.46429443,1,0,0,response7disk,,1,-17.35900879,-7.482147217,1,0,0,rectangle,-17.35900879,-7.482147217,1,0,0,-17.35900879,-7.482147217,1,0,0,0,103,103,96,1,,,,,,,,
,,,,,,,,,,,,,FF,,,,,,,,1.1359,,,,,,,,,,,,,,,,,,,,,,60ff433f89a507a83fb365d4,610377de1cf4f1d223482c78,2021-07-29_23h55.16.199,Simcolourproject_2stim_asymm_v5,2020.2.10,MacIntel,60,61025ae37ef11b136ea224fe,,,,,,,,,1846,-21.88391113,-73.02838135,1,0,0,response5disk,,3,-8.424804688,-9.362609863,1,0,0,rectangle,72.13342285,-32.97229004,1,0,0,-10.12097168,-13.33718872,1,0,0,0,104,104,3,1,,response3disk_3,TRUE,5,5,"[215,142,120,137,7,39,134,251,11,103,64,284,195,61,85,105,304,62,20,62]",1.3355,rectangle
,,,,,,,,,,,,,FF,,,,,,,,2.2359,,,,,,,,,,,,,,,,,,,,,,60ff433f89a507a83fb365d4,610377de1cf4f1d223482c78,2021-07-29_23h55.16.199,Simcolourproject_2stim_asymm_v5,2020.2.10,MacIntel,60,61025ae37ef11b136ea224fe,,,,,,,,,3468,69.06628418,38.05117798,1,0,0,response1disk,,6,5.31652832,5.870300293,1,0,0,rectangle,5.31652832,5.870300293,1,0,0,5.31652832,5.870300293,1,0,0,0,105,105,56,1,,,,,,,,
,,,,,,,,,,,,,FF,,,,,,,,1.4016,,,,,,,,,,,,,,,,,,,,,,60ff433f89a507a83fb365d4,610377de1cf4f1d223482c78,2021-07-29_23h55.16.199,Simcolourproject_2stim_asymm_v5,2020.2.10,MacIntel,60,61025ae37ef11b136ea224fe,,,,,,,,,36,-62.21173096,-41.54452515,1,0,0,response5disk,,2,-5.936828613,4.527893066,1,0,0,rectangle,-5.936828613,4.527893066,1,0,0,-5.936828613,4.527893066,1,0,0,0,106,106,88,1,,,,,,,,
,,,,,,,,,,,,,FF,,,,,,,,1.1378,,,,,,,,,,,,,,,,,,,,,,60ff433f89a507a83fb365d4,610377de1cf4f1d223482c78,2021-07-29_23h55.16.199,Simcolourproject_2stim_asymm_v5,2020.2.10,MacIntel,60,61025ae37ef11b136ea224fe,,,,,,,,,1331,-18.44433594,74.6111145,1,0,0,response7disk,,0,-16.7376709,-0.171447754,1,0,0,rectangle,-16.7376709,-0.171447754,1,0,0,-16.7376709,-0.171447754,1,0,0,0,107,107,22,1,,,,,,,,
,,,,,,,,,,,,,FF,,,,,,,,0.8819,,,,,,,,,,,,,,,,,,,,,,60ff433f89a507a83fb365d4,610377de1cf4f1d223482c78,2021-07-29_23h55.16.199,Simcolourproject_2stim_asymm_v5,2020.2.10,MacIntel,60,61025ae37ef11b136ea224fe,,,,,,,,,6,-70.17150879,24.86242676,1,0,0,response7disk,,1,-22.14544678,3.598388672,1,0,0,rectangle,-22.14544678,3.598388672,1,0,0,-22.14544678,3.598388672,1,0,0,0,108,108,6,1,,,,,,,,
,,,,,,,,,,,,,FF,,,,,,,,1.3333,,,,,,,,,,,,,,,,,,,,,,60ff433f89a507a83fb365d4,610377de1cf4f1d223482c78,2021-07-29_23h55.16.199,Simcolourproject_2stim_asymm_v5,2020.2.10,MacIntel,60,61025ae37ef11b136ea224fe,,,,,,,,,3790,-80.53601074,-27.91986084,1,0,0,response5disk,,2,-22.84783936,-10.41729736,1,0,0,rectangle,-22.84783936,-10.41729736,1,0,0,-22.84783936,-10.41729736,1,0,0,0,109,109,75,1,,,,,,,,
,,,,,,,,,,,,,FF,,,,,,,,1.887,,,,,,,,,,,,,,,,,,,,,,60ff433f89a507a83fb365d4,610377de1cf4f1d223482c78,2021-07-29_23h55.16.199,Simcolourproject_2stim_asymm_v5,2020.2.10,MacIntel,60,61025ae37ef11b136ea224fe,,,,,,,,,1347,-25.99328613,-71.33279419,1,0,0,response5disk,,3,-5.976501465,3.144439697,1,0,0,rectangle,-5.976501465,3.144439697,1,0,0,-5.976501465,3.144439697,1,0,0,0,110,110,52,1,,,,,,,,
,,,,,,,,,,,,,FF,,,,,,,,0.8857,,,,,,,,,,,,,,,,,,,,,,60ff433f89a507a83fb365d4,610377de1cf4f1d223482c78,2021-07-29_23h55.16.199,Simcolourproject_2stim_asymm_v5,2020.2.10,MacIntel,60,61025ae37ef11b136ea224fe,,,,,,,,,1302,33.74914551,-50.30502319,1,0,0,response3disk,,4,15.69787598,-13.37924194,1,0,0,rectangle,15.69787598,-13.37924194,1,0,0,15.69787598,-13.37924194,1,0,0,0,111,111,119,1,,,,,,,,
,,,,,,,,,,,,,FF,,,,,,,,1.3365,,,,,,,,,,,,,,,,,,,,,,60ff433f89a507a83fb365d4,610377de1cf4f1d223482c78,2021-07-29_23h55.16.199,Simcolourproject_2stim_asymm_v5,2020.2.10,MacIntel,60,61025ae37ef11b136ea224fe,,,,,,,,,190,76.15325928,-29.05645752,1,0,0,response3disk,,5,7.07434082,0.914916992,1,0,0,rectangle,7.07434082,0.914916992,1,0,0,7.07434082,0.914916992,1,0,0,0,112,112,50,1,,,,,,,,
,,,,,,,,,,,,,FF,,,,,,,,0.8366,,,,,,,,,,,,,,,,,,,,,,60ff433f89a507a83fb365d4,610377de1cf4f1d223482c78,2021-07-29_23h55.16.199,Simcolourproject_2stim_asymm_v5,2020.2.10,MacIntel,60,61025ae37ef11b136ea224fe,,,,,,,,,4203,69.5213623,-30.10266113,1,0,0,response3disk,,5,-14.10717773,13.96517944,1,0,0,rectangle,-14.10717773,13.96517944,1,0,0,-14.10717773,13.96517944,1,0,0,0,113,113,100,1,,,,,,,,
,,,,,,,,,,,,,FF,,,,,,,,0.9453,,,,,,,,,,,,,,,,,,,,,,60ff433f89a507a83fb365d4,610377de1cf4f1d223482c78,2021-07-29_23h55.16.199,Simcolourproject_2stim_asymm_v5,2020.2.10,MacIntel,60,61025ae37ef11b136ea224fe,,,,,,,,,2477,-39.171875,-52.67468262,1,0,0,response5disk,,3,-23.96777344,-10.44348145,1,0,0,rectangle,-23.96777344,-10.44348145,1,0,0,-23.96777344,-10.44348145,1,0,0,0,114,114,85,1,,,,,,,,
,,,,,,,,,,,,,FF,,,,,,,,0.6392,,,,,,,,,,,,,,,,,,,,,,60ff433f89a507a83fb365d4,610377de1cf4f1d223482c78,2021-07-29_23h55.16.199,Simcolourproject_2stim_asymm_v5,2020.2.10,MacIntel,60,61025ae37ef11b136ea224fe,,,,,,,,,1665,-29.39111328,-41.50308228,1,0,0,response5disk,,3,-16.00756836,5.826477051,1,0,0,rectangle,-16.00756836,5.826477051,1,0,0,-16.00756836,5.826477051,1,0,0,0,115,115,61,1,,,,,,,,
,,,,,,,,,,,,,FF,,,,,,,,0.8366,,,,,,,,,,,,,,,,,,,,,,60ff433f89a507a83fb365d4,610377de1cf4f1d223482c78,2021-07-29_23h55.16.199,Simcolourproject_2stim_asymm_v5,2020.2.10,MacIntel,60,61025ae37ef11b136ea224fe,,,,,,,,,563,-30.3795166,-58.11935425,1,0,0,response5disk,,3,-8.518920898,-5.372650146,1,0,0,rectangle,-8.518920898,-5.372650146,1,0,0,-8.518920898,-5.372650146,1,0,0,0,116,116,76,1,,,,,,,,
,,,,,,,,,,,,,FF,,,,,,,,1.2364,,,,,,,,,,,,,,,,,,,,,,60ff433f89a507a83fb365d4,610377de1cf4f1d223482c78,2021-07-29_23h55.16.199,Simcolourproject_2stim_asymm_v5,2020.2.10,MacIntel,60,61025ae37ef11b136ea224fe,,,,,,,,,911,-55.08856201,-40.53598022,1,0,0,response5disk,,2,-16.30126953,-6.953887939,1,0,0,rectangle,-16.30126953,-6.953887939,1,0,0,-16.30126953,-6.953887939,1,0,0,0,117,117,145,1,,,,,,,,
,,,,,,,,,,,,,FF,,,,,,,,1.6017,,,,,,,,,,,,,,,,,,,,,,60ff433f89a507a83fb365d4,610377de1cf4f1d223482c78,2021-07-29_23h55.16.199,Simcolourproject_2stim_asymm_v5,2020.2.10,MacIntel,60,61025ae37ef11b136ea224fe,,,,,,,,,584,-60.96038818,17.20635986,1,0,0,response7disk,,1,-20.75622559,10.09848022,1,0,0,rectangle,-20.75622559,10.09848022,1,0,0,-20.75622559,10.09848022,1,0,0,0,118,118,26,1,,,,,,,,
,,,,,,,,,,,,,FF,,,,,,,,0.7177,,,,,,,,,,,,,,,,,,,,,,60ff433f89a507a83fb365d4,610377de1cf4f1d223482c78,2021-07-29_23h55.16.199,Simcolourproject_2stim_asymm_v5,2020.2.10,MacIntel,60,61025ae37ef11b136ea224fe,,,,,,,,,2215,-56.87567139,26.61691284,1,0,0,response7disk,,1,9.839904785,4.420013428,1,0,0,rectangle,65.30682373,14.70513916,1,0,0,2.490234375,-1.101715088,1,0,0,0,119,119,53,1,,response1disk_3,TRUE,6,6,"[215,142,120,137,7,39,134,251,11,103,64,284,195,61,85,105,304,62,20,62]",1.2674,rectangle
,,,,,,,,,,,,,FF,,,,,,,,1.4699,,,,,,,,,,,,,,,,,,,,,,60ff433f89a507a83fb365d4,610377de1cf4f1d223482c78,2021-07-29_23h55.16.199,Simcolourproject_2stim_asymm_v5,2020.2.10,MacIntel,60,61025ae37ef11b136ea224fe,,,,,,,,,3853,68.09954834,-36.07562256,1,0,0,response3disk,,5,8.615539551,8.195007324,1,0,0,rectangle,8.615539551,8.195007324,1,0,0,8.615539551,8.195007324,1,0,0,0,120,120,8,1,,,,,,,,
,,,,,,,,,,,,,FF,,,,,,,,1.1335,,,,,,,,,,,,,,,,,,,,,,60ff433f89a507a83fb365d4,610377de1cf4f1d223482c78,2021-07-29_23h55.16.199,Simcolourproject_2stim_asymm_v5,2020.2.10,MacIntel,60,61025ae37ef11b136ea224fe,,,,,,,,,32,-71.74432373,20.15621948,1,0,0,response7disk,,1,-29.26885986,-4.846740723,1,0,0,rectangle,-29.26885986,-4.846740723,1,0,0,-29.26885986,-4.846740723,1,0,0,0,121,121,21,1,,,,,,,,
,,,,,,,,,,,,,FF,,,,,,,,0.6367,,,,,,,,,,,,,,,,,,,,,,60ff433f89a507a83fb365d4,610377de1cf4f1d223482c78,2021-07-29_23h55.16.199,Simcolourproject_2stim_asymm_v5,2020.2.10,MacIntel,60,61025ae37ef11b136ea224fe,,,,,,,,,3510,40.6965332,78.11651611,1,0,0,response1disk,,7,16.54217529,2.664611816,1,0,0,rectangle,16.54217529,2.664611816,1,0,0,16.54217529,2.664611816,1,0,0,0,122,122,150,1,,,,,,,,
,,,,,,,,,,,,,FF,,,,,,,,1.3861,,,,,,,,,,,,,,,,,,,,,,60ff433f89a507a83fb365d4,610377de1cf4f1d223482c78,2021-07-29_23h55.16.199,Simcolourproject_2stim_asymm_v5,2020.2.10,MacIntel,60,61025ae37ef11b136ea224fe,,,,,,,,,2443,-60.14013672,-51.73654175,1,0,0,response5disk,,2,-12.82873535,-11.57229614,1,0,0,rectangle,-12.82873535,-11.57229614,1,0,0,-12.82873535,-11.57229614,1,0,0,0,123,123,144,1,,,,,,,,
,,,,,,,,,,,,,FF,,,,,,,,1.4332,,,,,,,,,,,,,,,,,,,,,,60ff433f89a507a83fb365d4,610377de1cf4f1d223482c78,2021-07-29_23h55.16.199,Simcolourproject_2stim_asymm_v5,2020.2.10,MacIntel,60,61025ae37ef11b136ea224fe,,,,,,,,,816,22.43231201,-58.61428833,1,0,0,response3disk,,4,8.80267334,-2.752502441,1,0,0,rectangle,8.80267334,-2.752502441,1,0,0,8.80267334,-2.752502441,1,0,0,0,124,124,67,1,,,,,,,,
,,,,,,,,,,,,,FF,,,,,,,,1.3509,,,,,,,,,,,,,,,,,,,,,,60ff433f89a507a83fb365d4,610377de1cf4f1d223482c78,2021-07-29_23h55.16.199,Simcolourproject_2stim_asymm_v5,2020.2.10,MacIntel,60,61025ae37ef11b136ea224fe,,,,,,,,,2617,23.59552002,-58.25854492,1,0,0,response3disk,,4,6.413085938,-5.392608643,1,0,0,rectangle,6.413085938,-5.392608643,1,0,0,6.413085938,-5.392608643,1,0,0,0,125,125,142,1,,,,,,,,
,,,,,,,,,,,,,FF,,,,,,,,1.6676,,,,,,,,,,,,,,,,,,,,,,60ff433f89a507a83fb365d4,610377de1cf4f1d223482c78,2021-07-29_23h55.16.199,Simcolourproject_2stim_asymm_v5,2020.2.10,MacIntel,60,61025ae37ef11b136ea224fe,,,,,,,,,3961,-85.45019531,-32.14944458,1,0,0,response5disk,,2,-26.10986328,-3.196746826,1,0,0,rectangle,-26.10986328,-3.196746826,1,0,0,-26.10986328,-3.196746826,1,0,0,0,126,126,147,1,,,,,,,,
,,,,,,,,,,,,,FF,,,,,,,,0.7503,,,,,,,,,,,,,,,,,,,,,,60ff433f89a507a83fb365d4,610377de1cf4f1d223482c78,2021-07-29_23h55.16.199,Simcolourproject_2stim_asymm_v5,2020.2.10,MacIntel,60,61025ae37ef11b136ea224fe,,,,,,,,,3486,-42.98260498,-54.79449463,1,0,0,response5disk,,3,-31.52978516,-5.101257324,1,0,0,rectangle,-31.52978516,-5.101257324,1,0,0,-31.52978516,-5.101257324,1,0,0,0,127,127,152,1,,,,,,,,
,,,,,,,,,,,,,FF,,,,,,,,0.7353,,,,,,,,,,,,,,,,,,,,,,60ff433f89a507a83fb365d4,610377de1cf4f1d223482c78,2021-07-29_23h55.16.199,Simcolourproject_2stim_asymm_v5,2020.2.10,MacIntel,60,61025ae37ef11b136ea224fe,,,,,,,,,3311,-42.25476074,-56.15887451,1,0,0,response5disk,,3,-21.26330566,3.0859375,1,0,0,rectangle,-21.26330566,3.0859375,1,0,0,-21.26330566,3.0859375,1,0,0,0,128,128,43,1,,,,,,,,
,,,,,,,,,,,,,FF,,,,,,,,0.9798,,,,,,,,,,,,,,,,,,,,,,60ff433f89a507a83fb365d4,610377de1cf4f1d223482c78,2021-07-29_23h55.16.199,Simcolourproject_2stim_asymm_v5,2020.2.10,MacIntel,60,61025ae37ef11b136ea224fe,,,,,,,,,1687,-25.23657227,-57.35568237,1,0,0,response5disk,,3,-10.40576172,2.65020752,1,0,0,rectangle,-10.40576172,2.65020752,1,0,0,-10.40576172,2.65020752,1,0,0,0,129,129,46,1,,,,,,,,
,,,,,,,,,,,,,FF,,,,,,,,1.757,,,,,,,,,,,,,,,,,,,,,,60ff433f89a507a83fb365d4,610377de1cf4f1d223482c78,2021-07-29_23h55.16.199,Simcolourproject_2stim_asymm_v5,2020.2.10,MacIntel,60,61025ae37ef11b136ea224fe,,,,,,,,,131,-56.58251953,36.60784912,1,0,0,response7disk,,1,-26.07287598,12.3354187,1,0,0,rectangle,-26.07287598,12.3354187,1,0,0,-26.07287598,12.3354187,1,0,0,0,130,130,7,1,,,,,,,,
,,,,,,,,,,,,,FF,,,,,,,,0.7511,,,,,,,,,,,,,,,,,,,,,,60ff433f89a507a83fb365d4,610377de1cf4f1d223482c78,2021-07-29_23h55.16.199,Simcolourproject_2stim_asymm_v5,2020.2.10,MacIntel,60,61025ae37ef11b136ea224fe,,,,,,,,,1668,-63.16101074,34.97686768,1,0,0,response7disk,,1,-19.92260742,6.973876953,1,0,0,rectangle,-19.92260742,6.973876953,1,0,0,-19.92260742,6.973876953,1,0,0,0,131,131,123,1,,,,,,,,
,,,,,,,,,,,,,FF,,,,,,,,0.6331,,,,,,,,,,,,,,,,,,,,,,60ff433f89a507a83fb365d4,610377de1cf4f1d223482c78,2021-07-29_23h55.16.199,Simcolourproject_2stim_asymm_v5,2020.2.10,MacIntel,60,61025ae37ef11b136ea224fe,,,,,,,,,1272,-61.86956787,-26.66098022,1,0,0,response5disk,,2,-17.00189209,0.937316895,1,0,0,rectangle,-17.00189209,0.937316895,1,0,0,-17.00189209,0.937316895,1,0,0,0,132,132,117,1,,,,,,,,
,,,,,,,,,,,,,FF,,,,,,,,1.0844,,,,,,,,,,,,,,,,,,,,,,60ff433f89a507a83fb365d4,610377de1cf4f1d223482c78,2021-07-29_23h55.16.199,Simcolourproject_2stim_asymm_v5,2020.2.10,MacIntel,60,61025ae37ef11b136ea224fe,,,,,,,,,2386,-59.21130371,36.68511963,1,0,0,response7disk,,1,-20.82550049,1.165222168,1,0,0,rectangle,45.62194824,-39.6852417,1,0,0,3.274536133,-8.966247559,1,0,0,0,133,133,114,1,,response3disk_3,TRUE,5,5,"[215,142,120,137,7,39,134,251,11,103,64,284,195,61,85,105,304,62,20,62]",1.2502,rectangle
,,,,,,,,,,,,,FF,,,,,,,,0.7675,,,,,,,,,,,,,,,,,,,,,,60ff433f89a507a83fb365d4,610377de1cf4f1d223482c78,2021-07-29_23h55.16.199,Simcolourproject_2stim_asymm_v5,2020.2.10,MacIntel,60,61025ae37ef11b136ea224fe,,,,,,,,,4369,27.60955811,60.54031372,1,0,0,response1disk,,7,22.21630859,10.62744141,1,0,0,rectangle,22.21630859,10.62744141,1,0,0,22.21630859,10.62744141,1,0,0,0,134,134,18,1,,,,,,,,
,,,,,,,,,,,,,FF,,,,,,,,0.6494,,,,,,,,,,,,,,,,,,,,,,60ff433f89a507a83fb365d4,610377de1cf4f1d223482c78,2021-07-29_23h55.16.199,Simcolourproject_2stim_asymm_v5,2020.2.10,MacIntel,60,61025ae37ef11b136ea224fe,,,,,,,,,802,60.38360596,28.67428589,1,0,0,response1disk,,6,26.84869385,11.18225098,1,0,0,rectangle,26.84869385,11.18225098,1,0,0,26.84869385,11.18225098,1,0,0,0,135,135,14,1,,,,,,,,
,,,,,,,,,,,,,FF,,,,,,,,0.7511,,,,,,,,,,,,,,,,,,,,,,60ff433f89a507a83fb365d4,610377de1cf4f1d223482c78,2021-07-29_23h55.16.199,Simcolourproject_2stim_asymm_v5,2020.2.10,MacIntel,60,61025ae37ef11b136ea224fe,,,,,,,,,461,62.58789063,29.99145508,1,0,0,response1disk,,6,10.91259766,1.598876953,1,0,0,rectangle,-23.60198975,57.32189941,1,0,0,-16.63580322,-3.792633057,1,0,0,0,136,136,54,1,,response7disk_3,TRUE,0,0,"[215,142,120,137,7,39,134,251,11,103,64,284,195,61,85,105,304,62,20,62]",1.0181,rectangle
,,,,,,,,,,,,,FF,,,,,,,,1.285,,,,,,,,,,,,,,,,,,,,,,60ff433f89a507a83fb365d4,610377de1cf4f1d223482c78,2021-07-29_23h55.16.199,Simcolourproject_2stim_asymm_v5,2020.2.10,MacIntel,60,61025ae37ef11b136ea224fe,,,,,,,,,2772,27.87347412,-62.34918213,1,0,0,response3disk,,4,16.06958008,-6.490539551,1,0,0,rectangle,16.06958008,-6.490539551,1,0,0,16.06958008,-6.490539551,1,0,0,0,137,137,127,1,,,,,,,,
,,,,,,,,,,,,,FF,,,,,,,,0.6681,,,,,,,,,,,,,,,,,,,,,,60ff433f89a507a83fb365d4,610377de1cf4f1d223482c78,2021-07-29_23h55.16.199,Simcolourproject_2stim_asymm_v5,2020.2.10,MacIntel,60,61025ae37ef11b136ea224fe,,,,,,,,,1300,60.78405762,-27.98361206,1,0,0,response3disk,,5,15.94702148,-0.539367676,1,0,0,rectangle,15.94702148,-0.539367676,1,0,0,15.94702148,-0.539367676,1,0,0,0,138,138,91,1,,,,,,,,
,,,,,,,,,,,,,FF,,,,,,,,1.3682,,,,,,,,,,,,,,,,,,,,,,60ff433f89a507a83fb365d4,610377de1cf4f1d223482c78,2021-07-29_23h55.16.199,Simcolourproject_2stim_asymm_v5,2020.2.10,MacIntel,60,61025ae37ef11b136ea224fe,,,,,,,,,4002,37.39385986,-58.33581543,1,0,0,response3disk,,4,20.76605225,-7.66418457,1,0,0,rectangle,20.76605225,-7.66418457,1,0,0,20.76605225,-7.66418457,1,0,0,0,139,139,139,1,,,,,,,,
,,,,,,,,,,,,,FF,,,,,,,,0.8177,,,,,,,,,,,,,,,,,,,,,,60ff433f89a507a83fb365d4,610377de1cf4f1d223482c78,2021-07-29_23h55.16.199,Simcolourproject_2stim_asymm_v5,2020.2.10,MacIntel,60,61025ae37ef11b136ea224fe,,,,,,,,,2124,-53.35595703,-25.67874146,1,0,0,response5disk,,2,-20.57446289,8.140991211,1,0,0,rectangle,-20.57446289,8.140991211,1,0,0,-20.57446289,8.140991211,1,0,0,0,140,140,120,1,,,,,,,,
,,,,,,,,,,,,,FF,,,,,,,,1.0171,,,,,,,,,,,,,,,,,,,,,,60ff433f89a507a83fb365d4,610377de1cf4f1d223482c78,2021-07-29_23h55.16.199,Simcolourproject_2stim_asymm_v5,2020.2.10,MacIntel,60,61025ae37ef11b136ea224fe,,,,,,,,,2984,-29.4083252,-55.43380737,1,0,0,response5disk,,3,-5.941467285,-3.142791748,1,0,0,rectangle,-22.08282471,-58.4324646,1,0,0,-5.206176758,10.17932129,1,0,0,0,141,141,128,1,,response5disk_3,TRUE,3,3,"[215,142,120,137,7,39,134,251,11,103,64,284,195,61,85,105,304,62,20,62]",1.1841,rectangle
,,,,,,,,,,,,,FF,,,,,,,,1.1686,,,,,,,,,,,,,,,,,,,,,,60ff433f89a507a83fb365d4,610377de1cf4f1d223482c78,2021-07-29_23h55.16.199,Simcolourproject_2stim_asymm_v5,2020.2.10,MacIntel,60,61025ae37ef11b136ea224fe,,,,,,,,,1171,-65.85491943,-38.57125854,1,0,0,response5disk,,2,5.650756836,-6.100830078,1,0,0,rectangle,5.650756836,-6.100830078,1,0,0,5.650756836,-6.100830078,1,0,0,0,142,142,111,1,,,,,,,,
,,,,,,,,,,,,,FF,,,,,,,,0.7783,,,,,,,,,,,,,,,,,,,,,,60ff433f89a507a83fb365d4,610377de1cf4f1d223482c78,2021-07-29_23h55.16.199,Simcolourproject_2stim_asymm_v5,2020.2.10,MacIntel,60,61025ae37ef11b136ea224fe,,,,,,,,,1424,-70.71179199,-46.58319092,1,0,0,response5disk,,2,-2.901733398,-5.059967041,1,0,0,rectangle,-2.901733398,-5.059967041,1,0,0,-2.901733398,-5.059967041,1,0,0,0,143,143,1,1,,,,,,,,
,,,,,,,,,,,,,FF,,,,,,,,0.5673,,,,,,,,,,,,,,,,,,,,,,60ff433f89a507a83fb365d4,610377de1cf4f1d223482c78,2021-07-29_23h55.16.199,Simcolourproject_2stim_asymm_v5,2020.2.10,MacIntel,60,61025ae37ef11b136ea224fe,,,,,,,,,1677,37.85449219,53.99609375,1,0,0,response1disk,,7,31.10327148,13.38061523,1,0,0,rectangle,31.10327148,13.38061523,1,0,0,31.10327148,13.38061523,1,0,0,0,144,144,77,1,,,,,,,,
,,,,,,,,,,,,,FF,,,,,,,,2.4667,,,,,,,,,,,,,,,,,,,,,,60ff433f89a507a83fb365d4,610377de1cf4f1d223482c78,2021-07-29_23h55.16.199,Simcolourproject_2stim_asymm_v5,2020.2.10,MacIntel,60,61025ae37ef11b136ea224fe,,,,,,,,,3960,-60.48431396,25.70202637,1,0,0,response7disk,,1,-17.97650146,3.278503418,1,0,0,rectangle,-17.97650146,3.278503418,1,0,0,-17.97650146,3.278503418,1,0,0,0,145,145,42,1,,,,,,,,
,,,,,,,,,,,,,FF,,,,,,,,1.2018,,,,,,,,,,,,,,,,,,,,,,60ff433f89a507a83fb365d4,610377de1cf4f1d223482c78,2021-07-29_23h55.16.199,Simcolourproject_2stim_asymm_v5,2020.2.10,MacIntel,60,61025ae37ef11b136ea224fe,,,,,,,,,1292,65.02783203,-36.47964478,1,0,0,response3disk,,5,21.1986084,2.767364502,1,0,0,rectangle,21.1986084,2.767364502,1,0,0,21.1986084,2.767364502,1,0,0,0,146,146,35,1,,,,,,,,
,,,,,,,,,,,,,FF,,,,,,,,0.9572,,,,,,,,,,,,,,,,,,,,,,60ff433f89a507a83fb365d4,610377de1cf4f1d223482c78,2021-07-29_23h55.16.199,Simcolourproject_2stim_asymm_v5,2020.2.10,MacIntel,60,61025ae37ef11b136ea224fe,,,,,,,,,1887,74.62384033,47.73587036,1,0,0,response1disk,,6,2.231323242,-1.831420898,1,0,0,rectangle,2.231323242,-1.831420898,1,0,0,2.231323242,-1.831420898,1,0,0,0,147,147,12,1,,,,,,,,
,,,,,,,,,,,,,FF,,,,,,,,0.8002,,,,,,,,,,,,,,,,,,,,,,60ff433f89a507a83fb365d4,610377de1cf4f1d223482c78,2021-07-29_23h55.16.199,Simcolourproject_2stim_asymm_v5,2020.2.10,MacIntel,60,61025ae37ef11b136ea224fe,,,,,,,,,1894,40.16168213,77.02069092,1,0,0,response1disk,,7,8.534179688,7.479705811,1,0,0,rectangle,8.534179688,7.479705811,1,0,0,8.534179688,7.479705811,1,0,0,0,148,148,36,1,,,,,,,,
,,,,,,,,,,,,,FF,,,,,,,,2.0999,,,,,,,,,,,,,,,,,,,,,,60ff433f89a507a83fb365d4,610377de1cf4f1d223482c78,2021-07-29_23h55.16.199,Simcolourproject_2stim_asymm_v5,2020.2.10,MacIntel,60,61025ae37ef11b136ea224fe,,,,,,,,,2471,50.12915039,-55.76306152,1,0,0,response3disk,,4,17.22027588,-7.846008301,1,0,0,rectangle,17.22027588,-7.846008301,1,0,0,17.22027588,-7.846008301,1,0,0,0,149,149,19,1,,,,,,,,
,,,,,,,,,,,,,FF,,,,,,,,0.9509,,,,,,,,,,,,,,,,,,,,,,60ff433f89a507a83fb365d4,610377de1cf4f1d223482c78,2021-07-29_23h55.16.199,Simcolourproject_2stim_asymm_v5,2020.2.10,MacIntel,60,61025ae37ef11b136ea224fe,,,,,,,,,3304,28.02770996,-59.12408447,1,0,0,response3disk,,4,13.21429443,-6.268463135,1,0,0,rectangle,13.21429443,-6.268463135,1,0,0,13.21429443,-6.268463135,1,0,0,0,150,150,108,1,,,,,,,,
,,,,,,,,,,,,,FF,,,,,,,,0.8542,,,,,,,,,,,,,,,,,,,,,,60ff433f89a507a83fb365d4,610377de1cf4f1d223482c78,2021-07-29_23h55.16.199,Simcolourproject_2stim_asymm_v5,2020.2.10,MacIntel,60,61025ae37ef11b136ea224fe,,,,,,,,,1572,-33.00396729,-68.21472168,1,0,0,response5disk,,3,-11.46984863,-6.823028564,1,0,0,rectangle,-11.46984863,-6.823028564,1,0,0,-11.46984863,-6.823028564,1,0,0,0,151,151,93,1,,,,,,,,
,,,,,,,,,,,,,FF,,,,,,,,1.047,,,,,,,,,,,,,,,,,,,,,,60ff433f89a507a83fb365d4,610377de1cf4f1d223482c78,2021-07-29_23h55.16.199,Simcolourproject_2stim_asymm_v5,2020.2.10,MacIntel,60,61025ae37ef11b136ea224fe,,,,,,,,,2658,-69.39343262,-32.06182861,1,0,0,response5disk,,2,-16.09893799,7.347839355,1,0,0,rectangle,-16.09893799,7.347839355,1,0,0,-16.09893799,7.347839355,1,0,0,0,152,152,72,1,,,,,,,,
,,,,,,,,,,,,,FF,,,,,,,,0.8497,,,,,,,,,,,,,,,,,,,,,,60ff433f89a507a83fb365d4,610377de1cf4f1d223482c78,2021-07-29_23h55.16.199,Simcolourproject_2stim_asymm_v5,2020.2.10,MacIntel,60,61025ae37ef11b136ea224fe,,,,,,,,,549,83.10986328,21.59396362,1,0,0,response1disk,,6,6.598632813,-10.9984436,1,0,0,rectangle,6.598632813,-10.9984436,1,0,0,6.598632813,-10.9984436,1,0,0,0,153,153,20,1,,,,,,,,
,,,,,,,,,,,,,FF,,,,,,,,0.8194,,,,,,,,,,,,,,,,,,,,,,60ff433f89a507a83fb365d4,610377de1cf4f1d223482c78,2021-07-29_23h55.16.199,Simcolourproject_2stim_asymm_v5,2020.2.10,MacIntel,60,61025ae37ef11b136ea224fe,,,,,,,,,3622,53.2791748,-26.84423828,1,0,0,response3disk,,5,8.548461914,-7.27456665,1,0,0,rectangle,8.548461914,-7.27456665,1,0,0,8.548461914,-7.27456665,1,0,0,0,154,154,70,1,,,,,,,,
,,,,,,,,,,,,,FF,,,,,,,,1.7375,,,,,,,,,,,,,,,,,,,,,,60ff433f89a507a83fb365d4,610377de1cf4f1d223482c78,2021-07-29_23h55.16.199,Simcolourproject_2stim_asymm_v5,2020.2.10,MacIntel,60,61025ae37ef11b136ea224fe,,,,,,,,,234,-43.96813965,-65.73727417,1,0,0,response5disk,,3,-5.018737793,-2.011047363,1,0,0,rectangle,-5.018737793,-2.011047363,1,0,0,-5.018737793,-2.011047363,1,0,0,0,155,155,16,1,,,,,,,,
,,,,,,,,,,,,,FF,,,,,,,,0.9001,,,,,,,,,,,,,,,,,,,,,,60ff433f89a507a83fb365d4,610377de1cf4f1d223482c78,2021-07-29_23h55.16.199,Simcolourproject_2stim_asymm_v5,2020.2.10,MacIntel,60,61025ae37ef11b136ea224fe,,,,,,,,,3208,-34.86157227,-63.86032104,1,0,0,response5disk,,3,-4.678771973,-11.95010376,1,0,0,rectangle,-4.678771973,-11.95010376,1,0,0,-4.678771973,-11.95010376,1,0,0,0,156,156,63,1,,,,,,,,
,,,,,,,,,,,,,FF,,,,,,,,1.4253,,,,,,,,,,,,,,,,,,,,,,60ff433f89a507a83fb365d4,610377de1cf4f1d223482c78,2021-07-29_23h55.16.199,Simcolourproject_2stim_asymm_v5,2020.2.10,MacIntel,60,61025ae37ef11b136ea224fe,,,,,,,,,3918,-62.66589355,-42.03842163,1,0,0,response5disk,,2,-5.428222656,-2.25769043,1,0,0,rectangle,-5.428222656,-2.25769043,1,0,0,-5.428222656,-2.25769043,1,0,0,0,157,157,10,1,,,,,,,,
,,,,,,,,,,,,,FF,,,,,,,,0.8168,,,,,,,,,,,,,,,,,,,,,,60ff433f89a507a83fb365d4,610377de1cf4f1d223482c78,2021-07-29_23h55.16.199,Simcolourproject_2stim_asymm_v5,2020.2.10,MacIntel,60,61025ae37ef11b136ea224fe,,,,,,,,,3685,-51.53833008,25.83462524,1,0,0,response7disk,,1,-10.15991211,10.97415161,1,0,0,rectangle,-10.15991211,10.97415161,1,0,0,-10.15991211,10.97415161,1,0,0,0,158,158,132,1,,,,,,,,
,,,,,,,,,,,,,FF,,,,,,,,0.9173,,,,,,,,,,,,,,,,,,,,,,60ff433f89a507a83fb365d4,610377de1cf4f1d223482c78,2021-07-29_23h55.16.199,Simcolourproject_2stim_asymm_v5,2020.2.10,MacIntel,60,61025ae37ef11b136ea224fe,,,,,,,,,3706,76.59356689,27.20724487,1,0,0,response1disk,,6,19.40612793,8.677612305,1,0,0,rectangle,19.40612793,8.677612305,1,0,0,19.40612793,8.677612305,1,0,0,0,159,159,109,1,,,,,,,,
,,,,,,,,,,,,,FF,,,,,,,,0.7512,,,,,,,,,,,,,,,,,,,,,,60ff433f89a507a83fb365d4,610377de1cf4f1d223482c78,2021-07-29_23h55.16.199,Simcolourproject_2stim_asymm_v5,2020.2.10,MacIntel,60,61025ae37ef11b136ea224fe,,,,,,,,,4095,26.46130371,58.05230713,1,0,0,response1disk,,7,15.48425293,8.228302002,1,0,0,rectangle,15.48425293,8.228302002,1,0,0,15.48425293,8.228302002,1,0,0,1,0,160,75,1,,,,,,,,
,,,,,,,,,,,,,FF,,,,,,,,0.7207,,,,,,,,,,,,,,,,,,,,,,60ff433f89a507a83fb365d4,610377de1cf4f1d223482c78,2021-07-29_23h55.16.199,Simcolourproject_2stim_asymm_v5,2020.2.10,MacIntel,60,61025ae37ef11b136ea224fe,,,,,,,,,1584,73.52246094,23.68096924,1,0,0,response1disk,,6,14.41418457,-4.65536499,1,0,0,rectangle,14.41418457,-4.65536499,1,0,0,14.41418457,-4.65536499,1,0,0,1,1,161,43,1,,,,,,,,
,,,,,,,,,,,,,FF,,,,,,,,0.6305,,,,,,,,,,,,,,,,,,,,,,60ff433f89a507a83fb365d4,610377de1cf4f1d223482c78,2021-07-29_23h55.16.199,Simcolourproject_2stim_asymm_v5,2020.2.10,MacIntel,60,61025ae37ef11b136ea224fe,,,,,,,,,4343,66.22277832,76.30056763,1,0,0,response1disk,,7,17.01092529,4.97845459,1,0,0,rectangle,17.01092529,4.97845459,1,0,0,17.01092529,4.97845459,1,0,0,1,2,162,150,1,,,,,,,,
,,,,,,,,,,,,,FF,,,,,,,,0.915,,,,,,,,,,,,,,,,,,,,,,60ff433f89a507a83fb365d4,610377de1cf4f1d223482c78,2021-07-29_23h55.16.199,Simcolourproject_2stim_asymm_v5,2020.2.10,MacIntel,60,61025ae37ef11b136ea224fe,,,,,,,,,1754,49.19610596,-46.70089722,1,0,0,response3disk,,5,10.29699707,-14.89755249,1,0,0,rectangle,10.29699707,-14.89755249,1,0,0,10.29699707,-14.89755249,1,0,0,1,3,163,86,1,,,,,,,,
,,,,,,,,,,,,,FF,,,,,,,,0.95,,,,,,,,,,,,,,,,,,,,,,60ff433f89a507a83fb365d4,610377de1cf4f1d223482c78,2021-07-29_23h55.16.199,Simcolourproject_2stim_asymm_v5,2020.2.10,MacIntel,60,61025ae37ef11b136ea224fe,,,,,,,,,3658,-45.45056152,-55.96026611,1,0,0,response5disk,,3,-5.342407227,3.292816162,1,0,0,rectangle,-5.342407227,3.292816162,1,0,0,-5.342407227,3.292816162,1,0,0,1,4,164,15,1,,,,,,,,
,,,,,,,,,,,,,FF,,,,,,,,0.7675,,,,,,,,,,,,,,,,,,,,,,60ff433f89a507a83fb365d4,610377de1cf4f1d223482c78,2021-07-29_23h55.16.199,Simcolourproject_2stim_asymm_v5,2020.2.10,MacIntel,60,61025ae37ef11b136ea224fe,,,,,,,,,2484,-25.82336426,-56.85592651,1,0,0,response5disk,,3,-1.06829834,-2.938720703,1,0,0,rectangle,-1.06829834,-2.938720703,1,0,0,-1.06829834,-2.938720703,1,0,0,1,5,165,39,1,,,,,,,,
,,,,,,,,,,,,,FF,,,,,,,,1.3167,,,,,,,,,,,,,,,,,,,,,,60ff433f89a507a83fb365d4,610377de1cf4f1d223482c78,2021-07-29_23h55.16.199,Simcolourproject_2stim_asymm_v5,2020.2.10,MacIntel,60,61025ae37ef11b136ea224fe,,,,,,,,,2968,-54.10723877,-47.28375244,1,0,0,response5disk,,2,-5.182617188,-3.125823975,1,0,0,rectangle,-5.182617188,-3.125823975,1,0,0,-5.182617188,-3.125823975,1,0,0,1,6,166,117,1,,,,,,,,
,,,,,,,,,,,,,FF,,,,,,,,1.1191,,,,,,,,,,,,,,,,,,,,,,60ff433f89a507a83fb365d4,610377de1cf4f1d223482c78,2021-07-29_23h55.16.199,Simcolourproject_2stim_asymm_v5,2020.2.10,MacIntel,60,61025ae37ef11b136ea224fe,,,,,,,,,4152,-59.28057861,32.99206543,1,0,0,response7disk,,1,-12.22644043,10.50234985,1,0,0,rectangle,-12.22644043,10.50234985,1,0,0,-12.22644043,10.50234985,1,0,0,1,7,167,88,1,,,,,,,,
,,,,,,,,,,,,,FF,,,,,,,,2.2345,,,,,,,,,,,,,,,,,,,,,,60ff433f89a507a83fb365d4,610377de1cf4f1d223482c78,2021-07-29_23h55.16.199,Simcolourproject_2stim_asymm_v5,2020.2.10,MacIntel,60,61025ae37ef11b136ea224fe,,,,,,,,,3019,-69.7925415,39.70092773,1,0,0,response7disk,,1,-21.5369873,3.500152588,1,0,0,rectangle,-21.5369873,3.500152588,1,0,0,-21.5369873,3.500152588,1,0,0,1,8,168,153,1,,,,,,,,
,,,,,,,,,,,,,FF,,,,,,,,0.8505,,,,,,,,,,,,,,,,,,,,,,60ff433f89a507a83fb365d4,610377de1cf4f1d223482c78,2021-07-29_23h55.16.199,Simcolourproject_2stim_asymm_v5,2020.2.10,MacIntel,60,61025ae37ef11b136ea224fe,,,,,,,,,2150,-56.05639648,-16.0015564,1,0,0,response5disk,,2,-14.10784912,-4.837677002,1,0,0,rectangle,-14.10784912,-4.837677002,1,0,0,-14.10784912,-4.837677002,1,0,0,1,9,169,21,1,,,,,,,,
,,,,,,,,,,,,,FF,,,,,,,,0.7462,,,,,,,,,,,,,,,,,,,,,,60ff433f89a507a83fb365d4,610377de1cf4f1d223482c78,2021-07-29_23h55.16.199,Simcolourproject_2stim_asymm_v5,2020.2.10,MacIntel,60,61025ae37ef11b136ea224fe,,,,,,,,,3859,-56.12780762,-25.67825317,1,0,0,response5disk,,2,-14.89416504,-8.083709717,1,0,0,rectangle,-14.89416504,-8.083709717,1,0,0,-14.89416504,-8.083709717,1,0,0,1,10,170,131,1,,,,,,,,
,,,,,,,,,,,,,FF,,,,,,,,1.3006,,,,,,,,,,,,,,,,,,,,,,60ff433f89a507a83fb365d4,610377de1cf4f1d223482c78,2021-07-29_23h55.16.199,Simcolourproject_2stim_asymm_v5,2020.2.10,MacIntel,60,61025ae37ef11b136ea224fe,,,,,,,,,650,-64.27966309,-47.95727539,1,0,0,response5disk,,2,17.81097412,7.140106201,1,0,0,rectangle,17.81097412,7.140106201,1,0,0,17.81097412,7.140106201,1,0,0,1,11,171,126,1,,,,,,,,
,,,,,,,,,,,,,FF,,,,,,,,1.1008,,,,,,,,,,,,,,,,,,,,,,60ff433f89a507a83fb365d4,610377de1cf4f1d223482c78,2021-07-29_23h55.16.199,Simcolourproject_2stim_asymm_v5,2020.2.10,MacIntel,60,61025ae37ef11b136ea224fe,,,,,,,,,1064,66.61437988,-35.91757202,1,0,0,response3disk,,5,-1.280151367,-13.20349121,1,0,0,rectangle,-1.280151367,-13.20349121,1,0,0,-1.280151367,-13.20349121,1,0,0,1,12,172,144,1,,,,,,,,
,,,,,,,,,,,,,FF,,,,,,,,1.3506,,,,,,,,,,,,,,,,,,,,,,60ff433f89a507a83fb365d4,610377de1cf4f1d223482c78,2021-07-29_23h55.16.199,Simcolourproject_2stim_asymm_v5,2020.2.10,MacIntel,60,61025ae37ef11b136ea224fe,,,,,,,,,2784,67.63830566,-24.37780762,1,0,0,response3disk,,5,3.005065918,-0.501678467,1,0,0,rectangle,3.005065918,-0.501678467,1,0,0,3.005065918,-0.501678467,1,0,0,1,13,173,17,1,,,,,,,,
,,,,,,,,,,,,,FF,,,,,,,,1.0871,,,,,,,,,,,,,,,,,,,,,,60ff433f89a507a83fb365d4,610377de1cf4f1d223482c78,2021-07-29_23h55.16.199,Simcolourproject_2stim_asymm_v5,2020.2.10,MacIntel,60,61025ae37ef11b136ea224fe,,,,,,,,,3929,-77.59967041,-45.31451416,1,0,0,response5disk,,2,5.52557373,9.673309326,1,0,0,rectangle,5.52557373,9.673309326,1,0,0,5.52557373,9.673309326,1,0,0,1,14,174,110,1,,,,,,,,
,,,,,,,,,,,,,FF,,,,,,,,0.6174,,,,,,,,,,,,,,,,,,,,,,60ff433f89a507a83fb365d4,610377de1cf4f1d223482c78,2021-07-29_23h55.16.199,Simcolourproject_2stim_asymm_v5,2020.2.10,MacIntel,60,61025ae37ef11b136ea224fe,,,,,,,,,2836,-32.43359375,-69.56512451,1,0,0,response5disk,,3,3.850524902,1.480957031,1,0,0,rectangle,3.850524902,1.480957031,1,0,0,3.850524902,1.480957031,1,0,0,1,15,175,42,1,,,,,,,,
,,,,,,,,,,,,,FF,,,,,,,,0.9744,,,,,,,,,,,,,,,,,,,,,,60ff433f89a507a83fb365d4,610377de1cf4f1d223482c78,2021-07-29_23h55.16.199,Simcolourproject_2stim_asymm_v5,2020.2.10,MacIntel,60,61025ae37ef11b136ea224fe,,,,,,,,,3746,81.0112915,-17.5796814,1,0,0,response3disk,,5,21.74542236,12.96017456,1,0,0,rectangle,21.74542236,12.96017456,1,0,0,21.74542236,12.96017456,1,0,0,1,16,176,121,1,,,,,,,,
,,,,,,,,,,,,,FF,,,,,,,,2.0245,,,,,,,,,,,,,,,,,,,,,,60ff433f89a507a83fb365d4,610377de1cf4f1d223482c78,2021-07-29_23h55.16.199,Simcolourproject_2stim_asymm_v5,2020.2.10,MacIntel,60,61025ae37ef11b136ea224fe,,,,,,,,,3527,-68.51977539,-50.38269043,1,0,0,response5disk,,2,5.249206543,-1.253723145,1,0,0,rectangle,5.249206543,-1.253723145,1,0,0,5.249206543,-1.253723145,1,0,0,1,17,177,136,1,,,,,,,,
,,,,,,,,,,,,,FF,,,,,,,,1.8002,,,,,,,,,,,,,,,,,,,,,,60ff433f89a507a83fb365d4,610377de1cf4f1d223482c78,2021-07-29_23h55.16.199,Simcolourproject_2stim_asymm_v5,2020.2.10,MacIntel,60,61025ae37ef11b136ea224fe,,,,,,,,,3798,-62.95336914,36.84857178,1,0,0,response7disk,,1,-25.68334961,11.06253052,1,0,0,rectangle,-25.68334961,11.06253052,1,0,0,-25.68334961,11.06253052,1,0,0,1,18,178,58,1,,,,,,,,
,,,,,,,,,,,,,FF,,,,,,,,0.9331,,,,,,,,,,,,,,,,,,,,,,60ff433f89a507a83fb365d4,610377de1cf4f1d223482c78,2021-07-29_23h55.16.199,Simcolourproject_2stim_asymm_v5,2020.2.10,MacIntel,60,61025ae37ef11b136ea224fe,,,,,,,,,2323,-65.51708984,37.22323608,1,0,0,response7disk,,1,-23.36865234,-5.558319092,1,0,0,rectangle,-23.36865234,-5.558319092,1,0,0,-23.36865234,-5.558319092,1,0,0,1,19,179,22,1,,,,,,,,
,,,,,,,,,,,,,FF,,,,,,,,0.9347,,,,,,,,,,,,,,,,,,,,,,60ff433f89a507a83fb365d4,610377de1cf4f1d223482c78,2021-07-29_23h55.16.199,Simcolourproject_2stim_asymm_v5,2020.2.10,MacIntel,60,61025ae37ef11b136ea224fe,,,,,,,,,2038,83.08837891,-35.66418457,1,0,0,response3disk,,5,14.53088379,-11.644104,1,0,0,rectangle,14.53088379,-11.644104,1,0,0,14.53088379,-11.644104,1,0,0,1,20,180,79,1,,,,,,,,
,,,,,,,,,,,,,FF,,,,,,,,0.5998,,,,,,,,,,,,,,,,,,,,,,60ff433f89a507a83fb365d4,610377de1cf4f1d223482c78,2021-07-29_23h55.16.199,Simcolourproject_2stim_asymm_v5,2020.2.10,MacIntel,60,61025ae37ef11b136ea224fe,,,,,,,,,2933,74.39611816,33.07287598,1,0,0,response1disk,,6,0.518066406,5.478363037,1,0,0,rectangle,0.518066406,5.478363037,1,0,0,0.518066406,5.478363037,1,0,0,1,21,181,78,1,,,,,,,,
,,,,,,,,,,,,,FF,,,,,,,,1.1899,,,,,,,,,,,,,,,,,,,,,,60ff433f89a507a83fb365d4,610377de1cf4f1d223482c78,2021-07-29_23h55.16.199,Simcolourproject_2stim_asymm_v5,2020.2.10,MacIntel,60,61025ae37ef11b136ea224fe,,,,,,,,,627,-61.72143555,17.88635254,1,0,0,response7disk,,1,-27.39898682,1.260498047,1,0,0,rectangle,-27.39898682,1.260498047,1,0,0,-27.39898682,1.260498047,1,0,0,1,22,182,154,1,,,,,,,,
,,,,,,,,,,,,,FF,,,,,,,,0.6665,,,,,,,,,,,,,,,,,,,,,,60ff433f89a507a83fb365d4,610377de1cf4f1d223482c78,2021-07-29_23h55.16.199,Simcolourproject_2stim_asymm_v5,2020.2.10,MacIntel,60,61025ae37ef11b136ea224fe,,,,,,,,,737,-50.47106934,-24.3104248,1,0,0,response5disk,,2,-8.555419922,-9.245056152,1,0,0,rectangle,-8.555419922,-9.245056152,1,0,0,-8.555419922,-9.245056152,1,0,0,1,23,183,119,1,,,,,,,,
,,,,,,,,,,,,,FF,,,,,,,,1.0504,,,,,,,,,,,,,,,,,,,,,,60ff433f89a507a83fb365d4,610377de1cf4f1d223482c78,2021-07-29_23h55.16.199,Simcolourproject_2stim_asymm_v5,2020.2.10,MacIntel,60,61025ae37ef11b136ea224fe,,,,,,,,,4106,27.86022949,-60.62268066,1,0,0,response3disk,,4,10.35595703,-15.37017822,1,0,0,rectangle,10.35595703,-15.37017822,1,0,0,10.35595703,-15.37017822,1,0,0,1,24,184,20,1,,,,,,,,
,,,,,,,,,,,,,FF,,,,,,,,1.018,,,,,,,,,,,,,,,,,,,,,,60ff433f89a507a83fb365d4,610377de1cf4f1d223482c78,2021-07-29_23h55.16.199,Simcolourproject_2stim_asymm_v5,2020.2.10,MacIntel,60,61025ae37ef11b136ea224fe,,,,,,,,,1460,83.98419189,44.57489014,1,0,0,response1disk,,6,12.54711914,4.196044922,1,0,0,rectangle,12.54711914,4.196044922,1,0,0,12.54711914,4.196044922,1,0,0,1,25,185,127,1,,,,,,,,
,,,,,,,,,,,,,FF,,,,,,,,1.404,,,,,,,,,,,,,,,,,,,,,,60ff433f89a507a83fb365d4,610377de1cf4f1d223482c78,2021-07-29_23h55.16.199,Simcolourproject_2stim_asymm_v5,2020.2.10,MacIntel,60,61025ae37ef11b136ea224fe,,,,,,,,,3220,-63.6126709,18.27572632,1,0,0,response7disk,,1,-22.62457275,3.105926514,1,0,0,rectangle,-22.62457275,3.105926514,1,0,0,-22.62457275,3.105926514,1,0,0,1,26,186,64,1,,,,,,,,
,,,,,,,,,,,,,FF,,,,,,,,0.9005,,,,,,,,,,,,,,,,,,,,,,60ff433f89a507a83fb365d4,610377de1cf4f1d223482c78,2021-07-29_23h55.16.199,Simcolourproject_2stim_asymm_v5,2020.2.10,MacIntel,60,61025ae37ef11b136ea224fe,,,,,,,,,817,-32.36706543,-62.49111938,1,0,0,response5disk,,3,-9.756591797,-13.81027222,1,0,0,rectangle,-9.756591797,-13.81027222,1,0,0,-9.756591797,-13.81027222,1,0,0,1,27,187,12,1,,,,,,,,
,,,,,,,,,,,,,FF,,,,,,,,0.8834,,,,,,,,,,,,,,,,,,,,,,60ff433f89a507a83fb365d4,610377de1cf4f1d223482c78,2021-07-29_23h55.16.199,Simcolourproject_2stim_asymm_v5,2020.2.10,MacIntel,60,61025ae37ef11b136ea224fe,,,,,,,,,4077,64.5244751,-36.57479858,1,0,0,response3disk,,5,10.4465332,-9.860412598,1,0,0,rectangle,10.4465332,-9.860412598,1,0,0,10.4465332,-9.860412598,1,0,0,1,28,188,35,1,,,,,,,,
,,,,,,,,,,,,,FF,,,,,,,,1.0173,,,,,,,,,,,,,,,,,,,,,,60ff433f89a507a83fb365d4,610377de1cf4f1d223482c78,2021-07-29_23h55.16.199,Simcolourproject_2stim_asymm_v5,2020.2.10,MacIntel,60,61025ae37ef11b136ea224fe,,,,,,,,,1244,-63.16009521,-40.29251099,1,0,0,response5disk,,2,-19.53271484,-7.278381348,1,0,0,rectangle,-19.53271484,-7.278381348,1,0,0,-19.53271484,-7.278381348,1,0,0,1,29,189,145,1,,,,,,,,
,,,,,,,,,,,,,FF,,,,,,,,1.6512,,,,,,,,,,,,,,,,,,,,,,60ff433f89a507a83fb365d4,610377de1cf4f1d223482c78,2021-07-29_23h55.16.199,Simcolourproject_2stim_asymm_v5,2020.2.10,MacIntel,60,61025ae37ef11b136ea224fe,,,,,,,,,204,-83.90771484,-23.87084961,1,0,0,response5disk,,2,-26.52624512,-0.115478516,1,0,0,rectangle,-26.52624512,-0.115478516,1,0,0,-26.52624512,-0.115478516,1,0,0,1,30,190,4,1,,,,,,,,
,,,,,,,,,,,,,FF,,,,,,,,0.9671,,,,,,,,,,,,,,,,,,,,,,60ff433f89a507a83fb365d4,610377de1cf4f1d223482c78,2021-07-29_23h55.16.199,Simcolourproject_2stim_asymm_v5,2020.2.10,MacIntel,60,61025ae37ef11b136ea224fe,,,,,,,,,4337,90.61224365,29.81976318,1,0,0,response1disk,,6,15.6229248,-5.96875,1,0,0,rectangle,15.6229248,-5.96875,1,0,0,15.6229248,-5.96875,1,0,0,1,31,191,68,1,,,,,,,,
,,,,,,,,,,,,,FF,,,,,,,,1.2171,,,,,,,,,,,,,,,,,,,,,,60ff433f89a507a83fb365d4,610377de1cf4f1d223482c78,2021-07-29_23h55.16.199,Simcolourproject_2stim_asymm_v5,2020.2.10,MacIntel,60,61025ae37ef11b136ea224fe,,,,,,,,,3819,-51.42736816,-68.05618286,1,0,0,response5disk,,3,-16.61077881,-4.184112549,1,0,0,rectangle,-16.61077881,-4.184112549,1,0,0,-16.61077881,-4.184112549,1,0,0,1,32,192,155,1,,,,,,,,
,,,,,,,,,,,,,FF,,,,,,,,1.0496,,,,,,,,,,,,,,,,,,,,,,60ff433f89a507a83fb365d4,610377de1cf4f1d223482c78,2021-07-29_23h55.16.199,Simcolourproject_2stim_asymm_v5,2020.2.10,MacIntel,60,61025ae37ef11b136ea224fe,,,,,,,,,3326,-59.34954834,-30.34915161,1,0,0,response5disk,,2,-22.6036377,-4.065979004,1,0,0,rectangle,-22.6036377,-4.065979004,1,0,0,-22.6036377,-4.065979004,1,0,0,1,33,193,48,1,,,,,,,,
,,,,,,,,,,,,,FF,,,,,,,,1.6177,,,,,,,,,,,,,,,,,,,,,,60ff433f89a507a83fb365d4,610377de1cf4f1d223482c78,2021-07-29_23h55.16.199,Simcolourproject_2stim_asymm_v5,2020.2.10,MacIntel,60,61025ae37ef11b136ea224fe,,,,,,,,,3793,-73.73449707,-26.02319336,1,0,0,response5disk,,2,-17.82843018,-1.318786621,1,0,0,rectangle,-25.70855713,60.27398682,1,0,0,2.792724609,-3.946502686,1,0,0,1,34,194,133,1,,response7disk_3,TRUE,0,6,"[215,142,120,137,7,39,134,251,11,103,64,284,195,61,85,105,304,62,20,62]",1.3673,rectangle
,,,,,,,,,,,,,FF,,,,,,,,5.7363,,,,,,,,,,,,,,,,,,,,,,60ff433f89a507a83fb365d4,610377de1cf4f1d223482c78,2021-07-29_23h55.16.199,Simcolourproject_2stim_asymm_v5,2020.2.10,MacIntel,60,61025ae37ef11b136ea224fe,,,,,,,,,3272,-53.12304688,-23.69415283,1,0,0,response5disk,,2,-4.557434082,0.624481201,1,0,0,rectangle,-4.557434082,0.624481201,1,0,0,-4.557434082,0.624481201,1,0,0,1,35,195,3,1,,,,,,,,
,,,,,,,,,,,,,FF,,,,,,,,1.2331,,,,,,,,,,,,,,,,,,,,,,60ff433f89a507a83fb365d4,610377de1cf4f1d223482c78,2021-07-29_23h55.16.199,Simcolourproject_2stim_asymm_v5,2020.2.10,MacIntel,60,61025ae37ef11b136ea224fe,,,,,,,,,1868,-25.57043457,-42.45623779,1,0,0,response5disk,,3,-14.10632324,-4.573394775,1,0,0,rectangle,-14.10632324,-4.573394775,1,0,0,-14.10632324,-4.573394775,1,0,0,1,36,196,137,1,,,,,,,,
,,,,,,,,,,,,,FF,,,,,,,,0.8904,,,,,,,,,,,,,,,,,,,,,,60ff433f89a507a83fb365d4,610377de1cf4f1d223482c78,2021-07-29_23h55.16.199,Simcolourproject_2stim_asymm_v5,2020.2.10,MacIntel,60,61025ae37ef11b136ea224fe,,,,,,,,,806,70.27880859,-22.50378418,1,0,0,response3disk,,5,8.635864258,-2.208618164,1,0,0,rectangle,8.635864258,-2.208618164,1,0,0,8.635864258,-2.208618164,1,0,0,1,37,197,2,1,,,,,,,,
,,,,,,,,,,,,,FF,,,,,,,,0.8661,,,,,,,,,,,,,,,,,,,,,,60ff433f89a507a83fb365d4,610377de1cf4f1d223482c78,2021-07-29_23h55.16.199,Simcolourproject_2stim_asymm_v5,2020.2.10,MacIntel,60,61025ae37ef11b136ea224fe,,,,,,,,,1741,-46.41931152,19.66696167,1,0,0,response7disk,,1,-18.59521484,-2.590057373,1,0,0,rectangle,-18.59521484,-2.590057373,1,0,0,-18.59521484,-2.590057373,1,0,0,1,38,198,71,1,,,,,,,,
,,,,,,,,,,,,,FF,,,,,,,,0.9178,,,,,,,,,,,,,,,,,,,,,,60ff433f89a507a83fb365d4,610377de1cf4f1d223482c78,2021-07-29_23h55.16.199,Simcolourproject_2stim_asymm_v5,2020.2.10,MacIntel,60,61025ae37ef11b136ea224fe,,,,,,,,,3520,37.6652832,-65.39434814,1,0,0,response3disk,,4,4.852600098,-14.45230103,1,0,0,rectangle,4.852600098,-14.45230103,1,0,0,4.852600098,-14.45230103,1,0,0,1,39,199,103,1,,,,,,,,
,,,,,,,,,,,,,FF,,,,,,,,1.4863,,,,,,,,,,,,,,,,,,,,,,60ff433f89a507a83fb365d4,610377de1cf4f1d223482c78,2021-07-29_23h55.16.199,Simcolourproject_2stim_asymm_v5,2020.2.10,MacIntel,60,61025ae37ef11b136ea224fe,,,,,,,,,4317,85.61364746,-44.24050903,1,0,0,response3disk,,5,8.876281738,-0.943023682,1,0,0,rectangle,8.876281738,-0.943023682,1,0,0,8.876281738,-0.943023682,1,0,0,1,40,200,72,1,,,,,,,,
,,,,,,,,,,,,,FF,,,,,,,,1.6535,,,,,,,,,,,,,,,,,,,,,,60ff433f89a507a83fb365d4,610377de1cf4f1d223482c78,2021-07-29_23h55.16.199,Simcolourproject_2stim_asymm_v5,2020.2.10,MacIntel,60,61025ae37ef11b136ea224fe,,,,,,,,,1009,-56.88696289,32.4203186,1,0,0,response7disk,,1,-19.03137207,10.58963013,1,0,0,rectangle,-19.03137207,10.58963013,1,0,0,-19.03137207,10.58963013,1,0,0,1,41,201,99,1,,,,,,,,
,,,,,,,,,,,,,FF,,,,,,,,1.3865,,,,,,,,,,,,,,,,,,,,,,60ff433f89a507a83fb365d4,610377de1cf4f1d223482c78,2021-07-29_23h55.16.199,Simcolourproject_2stim_asymm_v5,2020.2.10,MacIntel,60,61025ae37ef11b136ea224fe,,,,,,,,,192,86.60577393,53.2180481,1,0,0,response1disk,,6,14.472229,-2.972900391,1,0,0,rectangle,14.472229,-2.972900391,1,0,0,14.472229,-2.972900391,1,0,0,1,42,202,105,1,,,,,,,,
,,,,,,,,,,,,,FF,,,,,,,,1.5335,,,,,,,,,,,,,,,,,,,,,,60ff433f89a507a83fb365d4,610377de1cf4f1d223482c78,2021-07-29_23h55.16.199,Simcolourproject_2stim_asymm_v5,2020.2.10,MacIntel,60,61025ae37ef11b136ea224fe,,,,,,,,,1913,-21.49328613,-68.93444824,1,0,0,response5disk,,3,13.70294189,6.249023438,1,0,0,rectangle,13.70294189,6.249023438,1,0,0,13.70294189,6.249023438,1,0,0,1,43,203,36,1,,,,,,,,
,,,,,,,,,,,,,FF,,,,,,,,1.0347,,,,,,,,,,,,,,,,,,,,,,60ff433f89a507a83fb365d4,610377de1cf4f1d223482c78,2021-07-29_23h55.16.199,Simcolourproject_2stim_asymm_v5,2020.2.10,MacIntel,60,61025ae37ef11b136ea224fe,,,,,,,,,1341,-27.44799805,54.0597229,1,0,0,response7disk,,0,-7.781005859,3.593688965,1,0,0,rectangle,-7.781005859,3.593688965,1,0,0,-7.781005859,3.593688965,1,0,0,1,44,204,30,1,,,,,,,,
,,,,,,,,,,,,,FF,,,,,,,,1.121,,,,,,,,,,,,,,,,,,,,,,60ff433f89a507a83fb365d4,610377de1cf4f1d223482c78,2021-07-29_23h55.16.199,Simcolourproject_2stim_asymm_v5,2020.2.10,MacIntel,60,61025ae37ef11b136ea224fe,,,,,,,,,2052,-64.96661377,26.51144409,1,0,0,response7disk,,1,-13.48022461,2.674560547,1,0,0,rectangle,-13.48022461,2.674560547,1,0,0,-13.48022461,2.674560547,1,0,0,1,45,205,112,1,,,,,,,,
,,,,,,,,,,,,,FF,,,,,,,,0.7543,,,,,,,,,,,,,,,,,,,,,,60ff433f89a507a83fb365d4,610377de1cf4f1d223482c78,2021-07-29_23h55.16.199,Simcolourproject_2stim_asymm_v5,2020.2.10,MacIntel,60,61025ae37ef11b136ea224fe,,,,,,,,,2640,-59.07647705,32.0696106,1,0,0,response7disk,,1,-2.448608398,-3.487182617,1,0,0,rectangle,-2.448608398,-3.487182617,1,0,0,-2.448608398,-3.487182617,1,0,0,1,46,206,135,1,,,,,,,,
,,,,,,,,,,,,,FF,,,,,,,,0.5838,,,,,,,,,,,,,,,,,,,,,,60ff433f89a507a83fb365d4,610377de1cf4f1d223482c78,2021-07-29_23h55.16.199,Simcolourproject_2stim_asymm_v5,2020.2.10,MacIntel,60,61025ae37ef11b136ea224fe,,,,,,,,,2508,-59.47949219,38.91375732,1,0,0,response7disk,,1,-0.275878906,10.58987427,1,0,0,rectangle,-0.275878906,10.58987427,1,0,0,-0.275878906,10.58987427,1,0,0,1,47,207,63,1,,,,,,,,
,,,,,,,,,,,,,FF,,,,,,,,0.8062,,,,,,,,,,,,,,,,,,,,,,60ff433f89a507a83fb365d4,610377de1cf4f1d223482c78,2021-07-29_23h55.16.199,Simcolourproject_2stim_asymm_v5,2020.2.10,MacIntel,60,61025ae37ef11b136ea224fe,,,,,,,,,618,68.83032227,-32.93994141,1,0,0,response3disk,,5,18.60595703,-6.010070801,1,0,0,rectangle,18.60595703,-6.010070801,1,0,0,18.60595703,-6.010070801,1,0,0,1,48,208,90,1,,,,,,,,
,,,,,,,,,,,,,FF,,,,,,,,0.9909,,,,,,,,,,,,,,,,,,,,,,60ff433f89a507a83fb365d4,610377de1cf4f1d223482c78,2021-07-29_23h55.16.199,Simcolourproject_2stim_asymm_v5,2020.2.10,MacIntel,60,61025ae37ef11b136ea224fe,,,,,,,,,2828,74.58685303,-30.40536499,1,0,0,response3disk,,5,8.625610352,5.147613525,1,0,0,rectangle,8.625610352,5.147613525,1,0,0,8.625610352,5.147613525,1,0,0,1,49,209,92,1,,,,,,,,
,,,,,,,,,,,,,FF,,,,,,,,0.8089,,,,,,,,,,,,,,,,,,,,,,60ff433f89a507a83fb365d4,610377de1cf4f1d223482c78,2021-07-29_23h55.16.199,Simcolourproject_2stim_asymm_v5,2020.2.10,MacIntel,60,61025ae37ef11b136ea224fe,,,,,,,,,3914,31.64801025,-45.912323,1,0,0,response3disk,,4,26.39343262,-3.598083496,1,0,0,rectangle,26.39343262,-3.598083496,1,0,0,26.39343262,-3.598083496,1,0,0,1,50,210,89,1,,,,,,,,
,,,,,,,,,,,,,FF,,,,,,,,1.4513,,,,,,,,,,,,,,,,,,,,,,60ff433f89a507a83fb365d4,610377de1cf4f1d223482c78,2021-07-29_23h55.16.199,Simcolourproject_2stim_asymm_v5,2020.2.10,MacIntel,60,61025ae37ef11b136ea224fe,,,,,,,,,3134,-27.58630371,54.63851929,1,0,0,response7disk,,0,-20.83203125,4.22354126,1,0,0,rectangle,-20.83203125,4.22354126,1,0,0,-20.83203125,4.22354126,1,0,0,1,51,211,66,1,,,,,,,,
,,,,,,,,,,,,,FF,,,,,,,,0.7614,,,,,,,,,,,,,,,,,,,,,,60ff433f89a507a83fb365d4,610377de1cf4f1d223482c78,2021-07-29_23h55.16.199,Simcolourproject_2stim_asymm_v5,2020.2.10,MacIntel,60,61025ae37ef11b136ea224fe,,,,,,,,,773,-47.34674072,33.3600769,1,0,0,response7disk,,1,-19.87554932,15.51293945,1,0,0,rectangle,-19.87554932,15.51293945,1,0,0,-19.87554932,15.51293945,1,0,0,1,52,212,104,1,,,,,,,,
,,,,,,,,,,,,,FF,,,,,,,,1.2338,,,,,,,,,,,,,,,,,,,,,,60ff433f89a507a83fb365d4,610377de1cf4f1d223482c78,2021-07-29_23h55.16.199,Simcolourproject_2stim_asymm_v5,2020.2.10,MacIntel,60,61025ae37ef11b136ea224fe,,,,,,,,,2312,-55.87268066,25.47671509,1,0,0,response7disk,,1,-8.437866211,-9.032867432,1,0,0,rectangle,-8.437866211,-9.032867432,1,0,0,-8.437866211,-9.032867432,1,0,0,1,53,213,116,1,,,,,,,,
,,,,,,,,,,,,,FF,,,,,,,,0.8311,,,,,,,,,,,,,,,,,,,,,,60ff433f89a507a83fb365d4,610377de1cf4f1d223482c78,2021-07-29_23h55.16.199,Simcolourproject_2stim_asymm_v5,2020.2.10,MacIntel,60,61025ae37ef11b136ea224fe,,,,,,,,,3185,-25.55883789,60.6506958,1,0,0,response7disk,,0,-13.39367676,-1.311218262,1,0,0,rectangle,-70.93029785,27.3817749,1,0,0,-25.43103027,10.90637207,1,0,0,1,54,214,148,1,,response7disk_3,TRUE,1,1,"[215,142,120,137,7,39,134,251,11,103,64,284,195,61,85,105,304,62,20,62]",1.0495,rectangle
,,,,,,,,,,,,,FF,,,,,,,,2.1216,,,,,,,,,,,,,,,,,,,,,,60ff433f89a507a83fb365d4,610377de1cf4f1d223482c78,2021-07-29_23h55.16.199,Simcolourproject_2stim_asymm_v5,2020.2.10,MacIntel,60,61025ae37ef11b136ea224fe,,,,,,,,,2470,-56.09680176,-34.36810303,1,0,0,response5disk,,2,-17.91821289,0.581634521,1,0,0,rectangle,-17.91821289,0.581634521,1,0,0,-17.91821289,0.581634521,1,0,0,1,55,215,123,1,,,,,,,,
,,,,,,,,,,,,,FF,,,,,,,,0.9575,,,,,,,,,,,,,,,,,,,,,,60ff433f89a507a83fb365d4,610377de1cf4f1d223482c78,2021-07-29_23h55.16.199,Simcolourproject_2stim_asymm_v5,2020.2.10,MacIntel,60,61025ae37ef11b136ea224fe,,,,,,,,,1088,-25.29748535,46.00344849,1,0,0,response7disk,,0,-21.16461182,11.22265625,1,0,0,rectangle,-21.16461182,11.22265625,1,0,0,-21.16461182,11.22265625,1,0,0,1,56,216,128,1,,,,,,,,
,,,,,,,,,,,,,FF,,,,,,,,1.2527,,,,,,,,,,,,,,,,,,,,,,60ff433f89a507a83fb365d4,610377de1cf4f1d223482c78,2021-07-29_23h55.16.199,Simcolourproject_2stim_asymm_v5,2020.2.10,MacIntel,60,61025ae37ef11b136ea224fe,,,,,,,,,2726,88.34155273,39.50292969,1,0,0,response1disk,,6,-4.964904785,-13.89804077,1,0,0,rectangle,-4.964904785,-13.89804077,1,0,0,-4.964904785,-13.89804077,1,0,0,1,57,217,113,1,,,,,,,,
,,,,,,,,,,,,,FF,,,,,,,,2.3845,,,,,,,,,,,,,,,,,,,,,,60ff433f89a507a83fb365d4,610377de1cf4f1d223482c78,2021-07-29_23h55.16.199,Simcolourproject_2stim_asymm_v5,2020.2.10,MacIntel,60,61025ae37ef11b136ea224fe,,,,,,,,,271,-55.65197754,-27.53222656,1,0,0,response5disk,,2,-0.536254883,8.23739624,1,0,0,rectangle,-0.536254883,8.23739624,1,0,0,-0.536254883,8.23739624,1,0,0,1,58,218,74,1,,,,,,,,
,,,,,,,,,,,,,FF,,,,,,,,1.1077,,,,,,,,,,,,,,,,,,,,,,60ff433f89a507a83fb365d4,610377de1cf4f1d223482c78,2021-07-29_23h55.16.199,Simcolourproject_2stim_asymm_v5,2020.2.10,MacIntel,60,61025ae37ef11b136ea224fe,,,,,,,,,2367,-53.20635986,-32.71224976,1,0,0,response5disk,,2,8.765258789,9.721740723,1,0,0,rectangle,8.765258789,9.721740723,1,0,0,8.765258789,9.721740723,1,0,0,1,59,219,151,1,,,,,,,,
,,,,,,,,,,,,,FF,,,,,,,,0.7171,,,,,,,,,,,,,,,,,,,,,,60ff433f89a507a83fb365d4,610377de1cf4f1d223482c78,2021-07-29_23h55.16.199,Simcolourproject_2stim_asymm_v5,2020.2.10,MacIntel,60,61025ae37ef11b136ea224fe,,,,,,,,,1250,-26.56738281,-36.32009888,1,0,0,response5disk,,3,-17.84014893,-0.004882813,1,0,0,rectangle,-17.84014893,-0.004882813,1,0,0,-17.84014893,-0.004882813,1,0,0,1,60,220,140,1,,,,,,,,
,,,,,,,,,,,,,FF,,,,,,,,0.8416,,,,,,,,,,,,,,,,,,,,,,60ff433f89a507a83fb365d4,610377de1cf4f1d223482c78,2021-07-29_23h55.16.199,Simcolourproject_2stim_asymm_v5,2020.2.10,MacIntel,60,61025ae37ef11b136ea224fe,,,,,,,,,4187,37.52270508,-44.87078857,1,0,0,response3disk,,4,17.48754883,14.83511353,1,0,0,rectangle,17.48754883,14.83511353,1,0,0,17.48754883,14.83511353,1,0,0,1,61,221,10,1,,,,,,,,
,,,,,,,,,,,,,FF,,,,,,,,1.7515,,,,,,,,,,,,,,,,,,,,,,60ff433f89a507a83fb365d4,610377de1cf4f1d223482c78,2021-07-29_23h55.16.199,Simcolourproject_2stim_asymm_v5,2020.2.10,MacIntel,60,61025ae37ef11b136ea224fe,,,,,,,,,2528,-58.77929688,26.03274536,1,0,0,response7disk,,1,-28.52856445,15.96429443,1,0,0,rectangle,-28.52856445,15.96429443,1,0,0,-28.52856445,15.96429443,1,0,0,1,62,222,118,1,,,,,,,,
,,,,,,,,,,,,,FF,,,,,,,,1.0689,,,,,,,,,,,,,,,,,,,,,,60ff433f89a507a83fb365d4,610377de1cf4f1d223482c78,2021-07-29_23h55.16.199,Simcolourproject_2stim_asymm_v5,2020.2.10,MacIntel,60,61025ae37ef11b136ea224fe,,,,,,,,,454,-31.77435303,35.81970215,1,0,0,response7disk,,0,-20.69055176,8.354492188,1,0,0,rectangle,-20.69055176,8.354492188,1,0,0,-20.69055176,8.354492188,1,0,0,1,63,223,46,1,,,,,,,,
,,,,,,,,,,,,,FF,,,,,,,,1.501,,,,,,,,,,,,,,,,,,,,,,60ff433f89a507a83fb365d4,610377de1cf4f1d223482c78,2021-07-29_23h55.16.199,Simcolourproject_2stim_asymm_v5,2020.2.10,MacIntel,60,61025ae37ef11b136ea224fe,,,,,,,,,3588,73.49090576,-21.04321289,1,0,0,response3disk,,5,9.446044922,-3.935852051,1,0,0,rectangle,9.446044922,-3.935852051,1,0,0,9.446044922,-3.935852051,1,0,0,1,64,224,59,1,,,,,,,,
,,,,,,,,,,,,,FF,,,,,,,,1.7507,,,,,,,,,,,,,,,,,,,,,,60ff433f89a507a83fb365d4,610377de1cf4f1d223482c78,2021-07-29_23h55.16.199,Simcolourproject_2stim_asymm_v5,2020.2.10,MacIntel,60,61025ae37ef11b136ea224fe,,,,,,,,,542,-64.67852783,23.29629517,1,0,0,response7disk,,1,-14.00274658,-5.429779053,1,0,0,rectangle,-14.00274658,-5.429779053,1,0,0,-14.00274658,-5.429779053,1,0,0,1,65,225,50,1,,,,,,,,
,,,,,,,,,,,,,FF,,,,,,,,0.7669,,,,,,,,,,,,,,,,,,,,,,60ff433f89a507a83fb365d4,610377de1cf4f1d223482c78,2021-07-29_23h55.16.199,Simcolourproject_2stim_asymm_v5,2020.2.10,MacIntel,60,61025ae37ef11b136ea224fe,,,,,,,,,149,-61.17034912,21.33319092,1,0,0,response7disk,,1,-2.760375977,-2.176208496,1,0,0,rectangle,-2.760375977,-2.176208496,1,0,0,-2.760375977,-2.176208496,1,0,0,1,66,226,52,1,,,,,,,,
,,,,,,,,,,,,,FF,,,,,,,,0.9518,,,,,,,,,,,,,,,,,,,,,,60ff433f89a507a83fb365d4,610377de1cf4f1d223482c78,2021-07-29_23h55.16.199,Simcolourproject_2stim_asymm_v5,2020.2.10,MacIntel,60,61025ae37ef11b136ea224fe,,,,,,,,,1784,-53.14031982,25.11367798,1,0,0,response7disk,,1,-15.3927002,9.024078369,1,0,0,rectangle,-15.3927002,9.024078369,1,0,0,-15.3927002,9.024078369,1,0,0,1,67,227,130,1,,,,,,,,
,,,,,,,,,,,,,FF,,,,,,,,0.7996,,,,,,,,,,,,,,,,,,,,,,60ff433f89a507a83fb365d4,610377de1cf4f1d223482c78,2021-07-29_23h55.16.199,Simcolourproject_2stim_asymm_v5,2020.2.10,MacIntel,60,61025ae37ef11b136ea224fe,,,,,,,,,1876,-58.69567871,34.89123535,1,0,0,response7disk,,1,-21.04614258,8.470947266,1,0,0,rectangle,-21.04614258,8.470947266,1,0,0,-21.04614258,8.470947266,1,0,0,1,68,228,134,1,,,,,,,,
,,,,,,,,,,,,,FF,,,,,,,,2.3349,,,,,,,,,,,,,,,,,,,,,,60ff433f89a507a83fb365d4,610377de1cf4f1d223482c78,2021-07-29_23h55.16.199,Simcolourproject_2stim_asymm_v5,2020.2.10,MacIntel,60,61025ae37ef11b136ea224fe,,,,,,,,,1809,-65.06152344,-41.41836548,1,0,0,response5disk,,2,-11.73913574,-12.04537964,1,0,0,rectangle,-11.73913574,-12.04537964,1,0,0,-11.73913574,-12.04537964,1,0,0,1,69,229,40,1,,,,,,,,
,,,,,,,,,,,,,FF,,,,,,,,2.2357,,,,,,,,,,,,,,,,,,,,,,60ff433f89a507a83fb365d4,610377de1cf4f1d223482c78,2021-07-29_23h55.16.199,Simcolourproject_2stim_asymm_v5,2020.2.10,MacIntel,60,61025ae37ef11b136ea224fe,,,,,,,,,3700,-75.91308594,21.00784302,1,0,0,response7disk,,1,-22.17883301,-0.882629395,1,0,0,rectangle,-22.17883301,-0.882629395,1,0,0,-22.17883301,-0.882629395,1,0,0,1,70,230,73,1,,,,,,,,
,,,,,,,,,,,,,FF,,,,,,,,1.0551,,,,,,,,,,,,,,,,,,,,,,60ff433f89a507a83fb365d4,610377de1cf4f1d223482c78,2021-07-29_23h55.16.199,Simcolourproject_2stim_asymm_v5,2020.2.10,MacIntel,60,61025ae37ef11b136ea224fe,,,,,,,,,3797,-72.93554688,36.73526001,1,0,0,response7disk,,1,-6.320922852,2.40914917,1,0,0,rectangle,-6.320922852,2.40914917,1,0,0,-6.320922852,2.40914917,1,0,0,1,71,231,76,1,,,,,,,,
,,,,,,,,,,,,,FF,,,,,,,,0.819,,,,,,,,,,,,,,,,,,,,,,60ff433f89a507a83fb365d4,610377de1cf4f1d223482c78,2021-07-29_23h55.16.199,Simcolourproject_2stim_asymm_v5,2020.2.10,MacIntel,60,61025ae37ef11b136ea224fe,,,,,,,,,3230,-33.2310791,73.77453613,1,0,0,response7disk,,0,3.869995117,-1.0859375,1,0,0,rectangle,3.869995117,-1.0859375,1,0,0,3.869995117,-1.0859375,1,0,0,1,72,232,26,1,,,,,,,,
,,,,,,,,,,,,,FF,,,,,,,,1.4896,,,,,,,,,,,,,,,,,,,,,,60ff433f89a507a83fb365d4,610377de1cf4f1d223482c78,2021-07-29_23h55.16.199,Simcolourproject_2stim_asymm_v5,2020.2.10,MacIntel,60,61025ae37ef11b136ea224fe,,,,,,,,,409,-21.81988525,63.81060791,1,0,0,response7disk,,0,-16.05859375,5.637359619,1,0,0,rectangle,-16.05859375,5.637359619,1,0,0,-16.05859375,5.637359619,1,0,0,1,73,233,70,1,,,,,,,,
,,,,,,,,,,,,,FF,,,,,,,,0.9181,,,,,,,,,,,,,,,,,,,,,,60ff433f89a507a83fb365d4,610377de1cf4f1d223482c78,2021-07-29_23h55.16.199,Simcolourproject_2stim_asymm_v5,2020.2.10,MacIntel,60,61025ae37ef11b136ea224fe,,,,,,,,,1547,-55.72961426,21.76980591,1,0,0,response7disk,,1,-18.61279297,0.263366699,1,0,0,rectangle,-18.61279297,0.263366699,1,0,0,-18.61279297,0.263366699,1,0,0,1,74,234,120,1,,,,,,,,
,,,,,,,,,,,,,FF,,,,,,,,0.8,,,,,,,,,,,,,,,,,,,,,,60ff433f89a507a83fb365d4,610377de1cf4f1d223482c78,2021-07-29_23h55.16.199,Simcolourproject_2stim_asymm_v5,2020.2.10,MacIntel,60,61025ae37ef11b136ea224fe,,,,,,,,,2514,-31.76696777,78.02401733,1,0,0,response7disk,,0,-12.87689209,13.05957031,1,0,0,rectangle,-12.87689209,13.05957031,1,0,0,-12.87689209,13.05957031,1,0,0,1,75,235,115,1,,,,,,,,
,,,,,,,,,,,,,FF,,,,,,,,1.0195,,,,,,,,,,,,,,,,,,,,,,60ff433f89a507a83fb365d4,610377de1cf4f1d223482c78,2021-07-29_23h55.16.199,Simcolourproject_2stim_asymm_v5,2020.2.10,MacIntel,60,61025ae37ef11b136ea224fe,,,,,,,,,2911,-21.25476074,61.54315186,1,0,0,response7disk,,0,-18.13482666,-2.543914795,1,0,0,rectangle,-18.13482666,-2.543914795,1,0,0,-18.13482666,-2.543914795,1,0,0,1,76,236,159,1,,,,,,,,
,,,,,,,,,,,,,FF,,,,,,,,1.4509,,,,,,,,,,,,,,,,,,,,,,60ff433f89a507a83fb365d4,610377de1cf4f1d223482c78,2021-07-29_23h55.16.199,Simcolourproject_2stim_asymm_v5,2020.2.10,MacIntel,60,61025ae37ef11b136ea224fe,,,,,,,,,3159,-26.69116211,67.70840454,1,0,0,response7disk,,0,-13.58361816,5.954620361,1,0,0,rectangle,-13.58361816,5.954620361,1,0,0,-13.58361816,5.954620361,1,0,0,1,77,237,11,1,,,,,,,,
,,,,,,,,,,,,,FF,,,,,,,,0.832,,,,,,,,,,,,,,,,,,,,,,60ff433f89a507a83fb365d4,610377de1cf4f1d223482c78,2021-07-29_23h55.16.199,Simcolourproject_2stim_asymm_v5,2020.2.10,MacIntel,60,61025ae37ef11b136ea224fe,,,,,,,,,3302,-63.19946289,27.4798584,1,0,0,response7disk,,1,-18.33520508,-3.529907227,1,0,0,rectangle,-18.33520508,-3.529907227,1,0,0,-18.33520508,-3.529907227,1,0,0,1,78,238,146,1,,,,,,,,
,,,,,,,,,,,,,FF,,,,,,,,1.1846,,,,,,,,,,,,,,,,,,,,,,60ff433f89a507a83fb365d4,610377de1cf4f1d223482c78,2021-07-29_23h55.16.199,Simcolourproject_2stim_asymm_v5,2020.2.10,MacIntel,60,61025ae37ef11b136ea224fe,,,,,,,,,2216,-40.27478027,-60.18765259,1,0,0,response5disk,,3,-7.185424805,-5.940002441,1,0,0,rectangle,-7.185424805,-5.940002441,1,0,0,-7.185424805,-5.940002441,1,0,0,1,79,239,106,1,,,,,,,,
