key_resp.keys,key_resp.rt,key_resp_14.keys,key_resp_14.rt,key_resp_15.keys,key_resp_15.rt,key_resp_17.keys,key_resp_17.rt,key_resp_9.keys,key_resp_9.rt,key_resp_10.keys,key_resp_10.rt,practice_comparison,Ecc,mouse_5.x,mouse_5.y,mouse_5.leftButton,mouse_5.midButton,mouse_5.rightButton,mouse_5.clicked_name,pracsimilarity,response_time,mouse_10.x,mouse_10.y,mouse_10.leftButton,mouse_10.midButton,mouse_10.rightButton,mouse_10.clicked_name,mouse_7.x,mouse_7.y,mouse_7.leftButton,mouse_7.midButton,mouse_7.rightButton,mouse_6.x,mouse_6.y,mouse_6.leftButton,mouse_6.midButton,mouse_6.rightButton,duringprac.thisRepN,duringprac.thisTrialN,duringprac.thisN,duringprac.thisIndex,duringprac.ran,participant,session,date,expName,psychopyVersion,OS,frameRate,study_id,mouse_7.clicked_name,catchpracsimilarity,catch_response_time,catchnumberprac,catchtrialorderprac,mouse_6.clicked_name,key_resp_22.keys,key_resp_22.rt,realcomparison,mouse.x,mouse.y,mouse.leftButton,mouse.midButton,mouse.rightButton,mouse.clicked_name,Colour2,similarity,mouse_2.x,mouse_2.y,mouse_2.leftButton,mouse_2.midButton,mouse_2.rightButton,mouse_2.clicked_name,mouse_3.x,mouse_3.y,mouse_3.leftButton,mouse_3.midButton,mouse_3.rightButton,mouse_11.x,mouse_11.y,mouse_11.leftButton,mouse_11.midButton,mouse_11.rightButton,trials_2.thisRepN,trials_2.thisTrialN,trials_2.thisN,trials_2.thisIndex,trials_2.ran,Colour1,mouse_3.clicked_name,catchornah,catchsimilarity,catchnumber,catchtrialorder,catchRT,mouse_11.clicked_name
space,1.50856,space,19.537925,space,30.11018,space,7.55878,space,3.550395,space,4.617965,133,PF,-78.2019043,-50.76376343,1,0,0,response5disk_5,2,2.95023,0.081604004,3.162780762,1,0,0,rectangle_8,0.081604004,3.162780762,1,0,0,0.081604004,3.162780762,1,0,0,0,0,0,4,1,60ff2b522b3a8ba205a30f1c,61036e6cd7f05ec17b7b7790,2021-07-29_23h14.55.819,Simcolourproject_2stim_asymm_v5,2020.2.10,MacIntel,60,61025ae37ef11b136ea224fe,,,,,,,,,,,,,,,,,,,,,,,,,,,,,,,,,,,,,,,,,,,,,,
,,,,,,,,,,,,42,FF,-33.07287598,-68.20269775,1,0,0,response5disk_5,3,2.03322,-4.206604004,1.262390137,1,0,0,rectangle_8,-36.54125977,-89.74353027,1,0,0,-9.950744629,-7.575378418,1,0,0,0,1,1,5,1,60ff2b522b3a8ba205a30f1c,61036e6cd7f05ec17b7b7790,2021-07-29_23h14.55.819,Simcolourproject_2stim_asymm_v5,2020.2.10,MacIntel,60,61025ae37ef11b136ea224fe,response5disk_7,3,3.36581,3,"[2,5]",rectangle_4,,,,,,,,,,,,,,,,,,,,,,,,,,,,,,,,,,,,,,,,
,,,,,,,,,,,,143,FF,51.74768066,-71.81054688,1,0,0,response3disk_5,4,2.299955,-1.198303223,-7.343261719,1,0,0,rectangle_8,-1.198303223,-7.343261719,1,0,0,-1.198303223,-7.343261719,1,0,0,0,2,2,3,1,60ff2b522b3a8ba205a30f1c,61036e6cd7f05ec17b7b7790,2021-07-29_23h14.55.819,Simcolourproject_2stim_asymm_v5,2020.2.10,MacIntel,60,61025ae37ef11b136ea224fe,,,,,,,,,,,,,,,,,,,,,,,,,,,,,,,,,,,,,,,,,,,,,,
,,,,,,,,,,,,80,PF,91.55450439,57.49346924,1,0,0,response1disk_5,6,1.48316,-4.413269043,7.525085449,1,0,0,rectangle_8,-4.413269043,7.525085449,1,0,0,-4.413269043,7.525085449,1,0,0,0,3,3,6,1,60ff2b522b3a8ba205a30f1c,61036e6cd7f05ec17b7b7790,2021-07-29_23h14.55.819,Simcolourproject_2stim_asymm_v5,2020.2.10,MacIntel,60,61025ae37ef11b136ea224fe,,,,,,,,,,,,,,,,,,,,,,,,,,,,,,,,,,,,,,,,,,,,,,
,,,,,,,,,,,,126,FF,79.84399414,38.28424072,1,0,0,response1disk_5,6,1.06636,22.03631592,5.097198486,1,0,0,rectangle_8,-40.37341309,-97.01751709,1,0,0,8.541687012,0.771240234,1,0,0,0,4,4,0,1,60ff2b522b3a8ba205a30f1c,61036e6cd7f05ec17b7b7790,2021-07-29_23h14.55.819,Simcolourproject_2stim_asymm_v5,2020.2.10,MacIntel,60,61025ae37ef11b136ea224fe,response5disk_7,3,1.91759,3,"[2,5]",rectangle_4,,,,,,,,,,,,,,,,,,,,,,,,,,,,,,,,,,,,,,,,
,,,,,,,,,,,,41,PF,42.734375,-86.13360596,1,0,0,response3disk_5,4,1.83221,6.045043945,-0.653747559,1,0,0,rectangle_8,6.045043945,-0.653747559,1,0,0,6.045043945,-0.653747559,1,0,0,0,5,5,1,1,60ff2b522b3a8ba205a30f1c,61036e6cd7f05ec17b7b7790,2021-07-29_23h14.55.819,Simcolourproject_2stim_asymm_v5,2020.2.10,MacIntel,60,61025ae37ef11b136ea224fe,,,,,,,,,,,,,,,,,,,,,,,,,,,,,,,,,,,,,,,,,,,,,,
,,,,,,,,,,,,129,PF,-25.15112305,-82.67333984,1,0,0,response5disk_5,3,1.149535,17.94311523,13.13861084,1,0,0,rectangle_8,17.94311523,13.13861084,1,0,0,17.94311523,13.13861084,1,0,0,0,6,6,2,1,60ff2b522b3a8ba205a30f1c,61036e6cd7f05ec17b7b7790,2021-07-29_23h14.55.819,Simcolourproject_2stim_asymm_v5,2020.2.10,MacIntel,60,61025ae37ef11b136ea224fe,,,,,,,,,,,,,,,,,,,,,,,,,,,,,,,,,,,,,,,,,,,,,,
,,,,,,,,,,,,,FF,,,,,,,,1.18316,,,,,,,,,,,,,,,,,,,,,,60ff2b522b3a8ba205a30f1c,61036e6cd7f05ec17b7b7790,2021-07-29_23h14.55.819,Simcolourproject_2stim_asymm_v5,2020.2.10,MacIntel,60,61025ae37ef11b136ea224fe,,,,,,,space,2.84336,3268,101.2896118,-56.43994141,1,0,0,response3disk,,5,26.08752441,-0.786193848,1,0,0,rectangle,26.08752441,-0.786193848,1,0,0,26.08752441,-0.786193848,1,0,0,0,0,0,22,1,,,,,,,,
,,,,,,,,,,,,,FF,,,,,,,,1.05013,,,,,,,,,,,,,,,,,,,,,,60ff2b522b3a8ba205a30f1c,61036e6cd7f05ec17b7b7790,2021-07-29_23h14.55.819,Simcolourproject_2stim_asymm_v5,2020.2.10,MacIntel,60,61025ae37ef11b136ea224fe,,,,,,,,,3956,24.29168701,79.0854187,1,0,0,response1disk,,7,6.905029297,-2.320587158,1,0,0,rectangle,6.905029297,-2.320587158,1,0,0,6.905029297,-2.320587158,1,0,0,0,1,1,92,1,,,,,,,,
,,,,,,,,,,,,,FF,,,,,,,,1.348675,,,,,,,,,,,,,,,,,,,,,,60ff2b522b3a8ba205a30f1c,61036e6cd7f05ec17b7b7790,2021-07-29_23h14.55.819,Simcolourproject_2stim_asymm_v5,2020.2.10,MacIntel,60,61025ae37ef11b136ea224fe,,,,,,,,,3714,-80.3927002,35.30776978,1,0,0,response7disk,,1,-12.43054199,-2.223205566,1,0,0,rectangle,-12.43054199,-2.223205566,1,0,0,-12.43054199,-2.223205566,1,0,0,0,2,2,70,1,,,,,,,,
,,,,,,,,,,,,,FF,,,,,,,,1.73338,,,,,,,,,,,,,,,,,,,,,,60ff2b522b3a8ba205a30f1c,61036e6cd7f05ec17b7b7790,2021-07-29_23h14.55.819,Simcolourproject_2stim_asymm_v5,2020.2.10,MacIntel,60,61025ae37ef11b136ea224fe,,,,,,,,,63,-33.2689209,-83.12835693,1,0,0,response5disk,,3,-15.49755859,16.97698975,1,0,0,rectangle,-15.49755859,16.97698975,1,0,0,-15.49755859,16.97698975,1,0,0,0,3,3,148,1,,,,,,,,
,,,,,,,,,,,,,FF,,,,,,,,0.951675,,,,,,,,,,,,,,,,,,,,,,60ff2b522b3a8ba205a30f1c,61036e6cd7f05ec17b7b7790,2021-07-29_23h14.55.819,Simcolourproject_2stim_asymm_v5,2020.2.10,MacIntel,60,61025ae37ef11b136ea224fe,,,,,,,,,4111,89.51641846,-61.6932373,1,0,0,response3disk,,5,-1.641479492,3.600158691,1,0,0,rectangle,-1.641479492,3.600158691,1,0,0,-1.641479492,3.600158691,1,0,0,0,4,4,143,1,,,,,,,,
,,,,,,,,,,,,,FF,,,,,,,,1.666775,,,,,,,,,,,,,,,,,,,,,,60ff2b522b3a8ba205a30f1c,61036e6cd7f05ec17b7b7790,2021-07-29_23h14.55.819,Simcolourproject_2stim_asymm_v5,2020.2.10,MacIntel,60,61025ae37ef11b136ea224fe,,,,,,,,,3899,-51.82629395,-73.56365967,1,0,0,response5disk,,3,-10.26159668,-13.13677979,1,0,0,rectangle,-10.26159668,-13.13677979,1,0,0,-10.26159668,-13.13677979,1,0,0,0,5,5,90,1,,,,,,,,
,,,,,,,,,,,,,FF,,,,,,,,3.433695,,,,,,,,,,,,,,,,,,,,,,60ff2b522b3a8ba205a30f1c,61036e6cd7f05ec17b7b7790,2021-07-29_23h14.55.819,Simcolourproject_2stim_asymm_v5,2020.2.10,MacIntel,60,61025ae37ef11b136ea224fe,,,,,,,,,3469,-50.17376709,70.23550415,1,0,0,response7disk,,0,7.350708008,-15.27990723,1,0,0,rectangle,7.350708008,-15.27990723,1,0,0,7.350708008,-15.27990723,1,0,0,0,6,6,136,1,,,,,,,,
,,,,,,,,,,,,,FF,,,,,,,,1.383205,,,,,,,,,,,,,,,,,,,,,,60ff2b522b3a8ba205a30f1c,61036e6cd7f05ec17b7b7790,2021-07-29_23h14.55.819,Simcolourproject_2stim_asymm_v5,2020.2.10,MacIntel,60,61025ae37ef11b136ea224fe,,,,,,,,,1756,-74.79858398,-65.13238525,1,0,0,response5disk,,2,0.312683105,13.37896729,1,0,0,rectangle,0.312683105,13.37896729,1,0,0,0.312683105,13.37896729,1,0,0,0,7,7,50,1,,,,,,,,
,,,,,,,,,,,,,FF,,,,,,,,1.69969,,,,,,,,,,,,,,,,,,,,,,60ff2b522b3a8ba205a30f1c,61036e6cd7f05ec17b7b7790,2021-07-29_23h14.55.819,Simcolourproject_2stim_asymm_v5,2020.2.10,MacIntel,60,61025ae37ef11b136ea224fe,,,,,,,,,3162,26.42944336,-81.9934082,1,0,0,response3disk,,4,-1.732788086,-6.237365723,1,0,0,rectangle,-1.732788086,-6.237365723,1,0,0,-1.732788086,-6.237365723,1,0,0,0,8,8,139,1,,,,,,,,
,,,,,,,,,,,,,FF,,,,,,,,0.7668,,,,,,,,,,,,,,,,,,,,,,60ff2b522b3a8ba205a30f1c,61036e6cd7f05ec17b7b7790,2021-07-29_23h14.55.819,Simcolourproject_2stim_asymm_v5,2020.2.10,MacIntel,60,61025ae37ef11b136ea224fe,,,,,,,,,3328,-26.28405762,-73.27990723,1,0,0,response5disk,,3,16.75891113,-2.590240479,1,0,0,rectangle,16.75891113,-2.590240479,1,0,0,16.75891113,-2.590240479,1,0,0,0,9,9,88,1,,,,,,,,
,,,,,,,,,,,,,FF,,,,,,,,1.85049,,,,,,,,,,,,,,,,,,,,,,60ff2b522b3a8ba205a30f1c,61036e6cd7f05ec17b7b7790,2021-07-29_23h14.55.819,Simcolourproject_2stim_asymm_v5,2020.2.10,MacIntel,60,61025ae37ef11b136ea224fe,,,,,,,,,32,83.28308105,-51.16351318,1,0,0,response3disk,,5,-0.095703125,2.084442139,1,0,0,rectangle,-0.095703125,2.084442139,1,0,0,-0.095703125,2.084442139,1,0,0,0,10,10,84,1,,,,,,,,
,,,,,,,,,,,,,FF,,,,,,,,0.83276,,,,,,,,,,,,,,,,,,,,,,60ff2b522b3a8ba205a30f1c,61036e6cd7f05ec17b7b7790,2021-07-29_23h14.55.819,Simcolourproject_2stim_asymm_v5,2020.2.10,MacIntel,60,61025ae37ef11b136ea224fe,,,,,,,,,1248,34.55389404,-87.59906006,1,0,0,response3disk,,4,8.249450684,-2.269592285,1,0,0,rectangle,8.249450684,-2.269592285,1,0,0,8.249450684,-2.269592285,1,0,0,0,11,11,9,1,,,,,,,,
,,,,,,,,,,,,,FF,,,,,,,,0.81618,,,,,,,,,,,,,,,,,,,,,,60ff2b522b3a8ba205a30f1c,61036e6cd7f05ec17b7b7790,2021-07-29_23h14.55.819,Simcolourproject_2stim_asymm_v5,2020.2.10,MacIntel,60,61025ae37ef11b136ea224fe,,,,,,,,,3007,-40.81256104,-101.3196411,1,0,0,response5disk,,3,-0.380493164,-0.995391846,1,0,0,rectangle,-0.380493164,-0.995391846,1,0,0,-0.380493164,-0.995391846,1,0,0,0,12,12,8,1,,,,,,,,
,,,,,,,,,,,,,FF,,,,,,,,1.08389,,,,,,,,,,,,,,,,,,,,,,60ff2b522b3a8ba205a30f1c,61036e6cd7f05ec17b7b7790,2021-07-29_23h14.55.819,Simcolourproject_2stim_asymm_v5,2020.2.10,MacIntel,60,61025ae37ef11b136ea224fe,,,,,,,,,3686,13.26397705,-83.37561035,1,0,0,response3disk,,4,1.371582031,2.724761963,1,0,0,rectangle,1.371582031,2.724761963,1,0,0,1.371582031,2.724761963,1,0,0,0,13,13,157,1,,,,,,,,
,,,,,,,,,,,,,FF,,,,,,,,2.999565,,,,,,,,,,,,,,,,,,,,,,60ff2b522b3a8ba205a30f1c,61036e6cd7f05ec17b7b7790,2021-07-29_23h14.55.819,Simcolourproject_2stim_asymm_v5,2020.2.10,MacIntel,60,61025ae37ef11b136ea224fe,,,,,,,,,1802,35.08972168,-57.10574341,1,0,0,response3disk,,4,-12.13061523,-5.781677246,1,0,0,rectangle,-12.13061523,-5.781677246,1,0,0,-12.13061523,-5.781677246,1,0,0,0,14,14,140,1,,,,,,,,
,,,,,,,,,,,,,FF,,,,,,,,0.80005,,,,,,,,,,,,,,,,,,,,,,60ff2b522b3a8ba205a30f1c,61036e6cd7f05ec17b7b7790,2021-07-29_23h14.55.819,Simcolourproject_2stim_asymm_v5,2020.2.10,MacIntel,60,61025ae37ef11b136ea224fe,,,,,,,,,4319,33.79919434,-93.5133667,1,0,0,response3disk,,4,0.763427734,1.2605896,1,0,0,rectangle,0.763427734,1.2605896,1,0,0,0.763427734,1.2605896,1,0,0,0,15,15,115,1,,,,,,,,
,,,,,,,,,,,,,FF,,,,,,,,1.21791,,,,,,,,,,,,,,,,,,,,,,60ff2b522b3a8ba205a30f1c,61036e6cd7f05ec17b7b7790,2021-07-29_23h14.55.819,Simcolourproject_2stim_asymm_v5,2020.2.10,MacIntel,60,61025ae37ef11b136ea224fe,,,,,,,,,329,57.47521973,-27.32962036,1,0,0,response3disk,,5,-16.81079102,-14.01495361,1,0,0,rectangle,-16.81079102,-14.01495361,1,0,0,-16.81079102,-14.01495361,1,0,0,0,16,16,86,1,,,,,,,,
,,,,,,,,,,,,,FF,,,,,,,,0.849975,,,,,,,,,,,,,,,,,,,,,,60ff2b522b3a8ba205a30f1c,61036e6cd7f05ec17b7b7790,2021-07-29_23h14.55.819,Simcolourproject_2stim_asymm_v5,2020.2.10,MacIntel,60,61025ae37ef11b136ea224fe,,,,,,,,,2977,70.90856934,55.0262146,1,0,0,response1disk,,6,4.523498535,12.06152344,1,0,0,rectangle,4.523498535,12.06152344,1,0,0,4.523498535,12.06152344,1,0,0,0,17,17,14,1,,,,,,,,
,,,,,,,,,,,,,FF,,,,,,,,0.784375,,,,,,,,,,,,,,,,,,,,,,60ff2b522b3a8ba205a30f1c,61036e6cd7f05ec17b7b7790,2021-07-29_23h14.55.819,Simcolourproject_2stim_asymm_v5,2020.2.10,MacIntel,60,61025ae37ef11b136ea224fe,,,,,,,,,2384,70.58721924,29.33917236,1,0,0,response1disk,,6,-1.110900879,-6.922058105,1,0,0,rectangle,-1.110900879,-6.922058105,1,0,0,-1.110900879,-6.922058105,1,0,0,0,18,18,69,1,,,,,,,,
,,,,,,,,,,,,,FF,,,,,,,,0.866755,,,,,,,,,,,,,,,,,,,,,,60ff2b522b3a8ba205a30f1c,61036e6cd7f05ec17b7b7790,2021-07-29_23h14.55.819,Simcolourproject_2stim_asymm_v5,2020.2.10,MacIntel,60,61025ae37ef11b136ea224fe,,,,,,,,,2967,69.24609375,-16.01968384,1,0,0,response3disk,,5,26.21386719,-3.13949585,1,0,0,rectangle,26.21386719,-3.13949585,1,0,0,26.21386719,-3.13949585,1,0,0,0,19,19,17,1,,,,,,,,
,,,,,,,,,,,,,FF,,,,,,,,0.932975,,,,,,,,,,,,,,,,,,,,,,60ff2b522b3a8ba205a30f1c,61036e6cd7f05ec17b7b7790,2021-07-29_23h14.55.819,Simcolourproject_2stim_asymm_v5,2020.2.10,MacIntel,60,61025ae37ef11b136ea224fe,,,,,,,,,1383,-38.21600342,-83.28497314,1,0,0,response5disk,,3,9.180419922,6.407714844,1,0,0,rectangle,9.180419922,6.407714844,1,0,0,9.180419922,6.407714844,1,0,0,0,20,20,91,1,,,,,,,,
,,,,,,,,,,,,,FF,,,,,,,,1.066525,,,,,,,,,,,,,,,,,,,,,,60ff2b522b3a8ba205a30f1c,61036e6cd7f05ec17b7b7790,2021-07-29_23h14.55.819,Simcolourproject_2stim_asymm_v5,2020.2.10,MacIntel,60,61025ae37ef11b136ea224fe,,,,,,,,,3472,-49.93115234,-86.11791992,1,0,0,response5disk,,3,-12.09954834,3.576873779,1,0,0,rectangle,-12.09954834,3.576873779,1,0,0,-12.09954834,3.576873779,1,0,0,0,21,21,154,1,,,,,,,,
,,,,,,,,,,,,,FF,,,,,,,,1.199945,,,,,,,,,,,,,,,,,,,,,,60ff2b522b3a8ba205a30f1c,61036e6cd7f05ec17b7b7790,2021-07-29_23h14.55.819,Simcolourproject_2stim_asymm_v5,2020.2.10,MacIntel,60,61025ae37ef11b136ea224fe,,,,,,,,,399,75.85253906,47.9798584,1,0,0,response1disk,,6,22.15917969,-6.672912598,1,0,0,rectangle,22.15917969,-6.672912598,1,0,0,22.15917969,-6.672912598,1,0,0,0,22,22,124,1,,,,,,,,
,,,,,,,,,,,,,FF,,,,,,,,1.35001,,,,,,,,,,,,,,,,,,,,,,60ff2b522b3a8ba205a30f1c,61036e6cd7f05ec17b7b7790,2021-07-29_23h14.55.819,Simcolourproject_2stim_asymm_v5,2020.2.10,MacIntel,60,61025ae37ef11b136ea224fe,,,,,,,,,1208,22.74121094,76.90475464,1,0,0,response1disk,,7,2.441955566,4.273498535,1,0,0,rectangle,2.441955566,4.273498535,1,0,0,2.441955566,4.273498535,1,0,0,0,23,23,119,1,,,,,,,,
,,,,,,,,,,,,,FF,,,,,,,,0.71629,,,,,,,,,,,,,,,,,,,,,,60ff2b522b3a8ba205a30f1c,61036e6cd7f05ec17b7b7790,2021-07-29_23h14.55.819,Simcolourproject_2stim_asymm_v5,2020.2.10,MacIntel,60,61025ae37ef11b136ea224fe,,,,,,,,,681,73.27032471,35.875,1,0,0,response1disk,,6,17.9821167,7.745178223,1,0,0,rectangle,17.9821167,7.745178223,1,0,0,17.9821167,7.745178223,1,0,0,0,24,24,10,1,,,,,,,,
,,,,,,,,,,,,,FF,,,,,,,,1.83359,,,,,,,,,,,,,,,,,,,,,,60ff2b522b3a8ba205a30f1c,61036e6cd7f05ec17b7b7790,2021-07-29_23h14.55.819,Simcolourproject_2stim_asymm_v5,2020.2.10,MacIntel,60,61025ae37ef11b136ea224fe,,,,,,,,,3901,73.92004395,-47.40405273,1,0,0,response3disk,,5,5.905090332,-13.20098877,1,0,0,rectangle,5.905090332,-13.20098877,1,0,0,5.905090332,-13.20098877,1,0,0,0,25,25,107,1,,,,,,,,
,,,,,,,,,,,,,FF,,,,,,,,0.650005,,,,,,,,,,,,,,,,,,,,,,60ff2b522b3a8ba205a30f1c,61036e6cd7f05ec17b7b7790,2021-07-29_23h14.55.819,Simcolourproject_2stim_asymm_v5,2020.2.10,MacIntel,60,61025ae37ef11b136ea224fe,,,,,,,,,4273,51.73266602,-30.77630615,1,0,0,response3disk,,5,25.640625,-9.621520996,1,0,0,rectangle,25.640625,-9.621520996,1,0,0,25.640625,-9.621520996,1,0,0,0,26,26,151,1,,,,,,,,
,,,,,,,,,,,,,FF,,,,,,,,0.96684,,,,,,,,,,,,,,,,,,,,,,60ff2b522b3a8ba205a30f1c,61036e6cd7f05ec17b7b7790,2021-07-29_23h14.55.819,Simcolourproject_2stim_asymm_v5,2020.2.10,MacIntel,60,61025ae37ef11b136ea224fe,,,,,,,,,115,63.61633301,-34.72955322,1,0,0,response3disk,,5,16.14678955,13.70132446,1,0,0,rectangle,16.14678955,13.70132446,1,0,0,16.14678955,13.70132446,1,0,0,0,27,27,83,1,,,,,,,,
,,,,,,,,,,,,,FF,,,,,,,,0.85027,,,,,,,,,,,,,,,,,,,,,,60ff2b522b3a8ba205a30f1c,61036e6cd7f05ec17b7b7790,2021-07-29_23h14.55.819,Simcolourproject_2stim_asymm_v5,2020.2.10,MacIntel,60,61025ae37ef11b136ea224fe,,,,,,,,,947,30.42993164,-92.26464844,1,0,0,response3disk,,4,3.866699219,-8.653594971,1,0,0,rectangle,3.866699219,-8.653594971,1,0,0,3.866699219,-8.653594971,1,0,0,0,28,28,67,1,,,,,,,,
,,,,,,,,,,,,,FF,,,,,,,,0.699675,,,,,,,,,,,,,,,,,,,,,,60ff2b522b3a8ba205a30f1c,61036e6cd7f05ec17b7b7790,2021-07-29_23h14.55.819,Simcolourproject_2stim_asymm_v5,2020.2.10,MacIntel,60,61025ae37ef11b136ea224fe,,,,,,,,,1877,78.47131348,34.35852051,1,0,0,response1disk,,6,2.553771973,-2.723449707,1,0,0,rectangle,2.553771973,-2.723449707,1,0,0,2.553771973,-2.723449707,1,0,0,0,29,29,47,1,,,,,,,,
,,,,,,,,,,,,,FF,,,,,,,,0.99961,,,,,,,,,,,,,,,,,,,,,,60ff2b522b3a8ba205a30f1c,61036e6cd7f05ec17b7b7790,2021-07-29_23h14.55.819,Simcolourproject_2stim_asymm_v5,2020.2.10,MacIntel,60,61025ae37ef11b136ea224fe,,,,,,,,,974,24.36126709,-92.63745117,1,0,0,response3disk,,4,-5.441650391,-0.504089355,1,0,0,rectangle,32.95935059,79.49743652,1,0,0,1.465209961,3.965911865,1,0,0,0,30,30,29,1,,response1disk_3,TRUE,7,7,"[211,31,266,174,244,205,94,67,216,152,169,268,199,73,320,222,295,68,83,72]",2.566585,rectangle
,,,,,,,,,,,,,FF,,,,,,,,1.01666,,,,,,,,,,,,,,,,,,,,,,60ff2b522b3a8ba205a30f1c,61036e6cd7f05ec17b7b7790,2021-07-29_23h14.55.819,Simcolourproject_2stim_asymm_v5,2020.2.10,MacIntel,60,61025ae37ef11b136ea224fe,,,,,,,,,591,57.99072266,-37.86297607,1,0,0,response3disk,,5,6.105895996,-10.77508545,1,0,0,rectangle,6.105895996,-10.77508545,1,0,0,6.105895996,-10.77508545,1,0,0,0,31,31,3,1,,,,,,,,
,,,,,,,,,,,,,FF,,,,,,,,0.700375,,,,,,,,,,,,,,,,,,,,,,60ff2b522b3a8ba205a30f1c,61036e6cd7f05ec17b7b7790,2021-07-29_23h14.55.819,Simcolourproject_2stim_asymm_v5,2020.2.10,MacIntel,60,61025ae37ef11b136ea224fe,,,,,,,,,1592,58.28027344,-42.20166016,1,0,0,response3disk,,5,12.54443359,-14.81439209,1,0,0,rectangle,12.54443359,-14.81439209,1,0,0,12.54443359,-14.81439209,1,0,0,0,32,32,127,1,,,,,,,,
,,,,,,,,,,,,,FF,,,,,,,,1.10021,,,,,,,,,,,,,,,,,,,,,,60ff2b522b3a8ba205a30f1c,61036e6cd7f05ec17b7b7790,2021-07-29_23h14.55.819,Simcolourproject_2stim_asymm_v5,2020.2.10,MacIntel,60,61025ae37ef11b136ea224fe,,,,,,,,,3567,56.82720947,-35.2755127,1,0,0,response3disk,,5,20.52563477,-1.156555176,1,0,0,rectangle,20.52563477,-1.156555176,1,0,0,20.52563477,-1.156555176,1,0,0,0,33,33,43,1,,,,,,,,
,,,,,,,,,,,,,FF,,,,,,,,0.68353,,,,,,,,,,,,,,,,,,,,,,60ff2b522b3a8ba205a30f1c,61036e6cd7f05ec17b7b7790,2021-07-29_23h14.55.819,Simcolourproject_2stim_asymm_v5,2020.2.10,MacIntel,60,61025ae37ef11b136ea224fe,,,,,,,,,1328,98.4831543,-28.65628052,1,0,0,response3disk,,5,0.15612793,-7.096923828,1,0,0,rectangle,0.15612793,-7.096923828,1,0,0,0.15612793,-7.096923828,1,0,0,0,34,34,28,1,,,,,,,,
,,,,,,,,,,,,,FF,,,,,,,,0.68393,,,,,,,,,,,,,,,,,,,,,,60ff2b522b3a8ba205a30f1c,61036e6cd7f05ec17b7b7790,2021-07-29_23h14.55.819,Simcolourproject_2stim_asymm_v5,2020.2.10,MacIntel,60,61025ae37ef11b136ea224fe,,,,,,,,,3325,64.05633545,49.46990967,1,0,0,response1disk,,6,3.467712402,10.23907471,1,0,0,rectangle,3.467712402,10.23907471,1,0,0,3.467712402,10.23907471,1,0,0,0,35,35,102,1,,,,,,,,
,,,,,,,,,,,,,FF,,,,,,,,1.800235,,,,,,,,,,,,,,,,,,,,,,60ff2b522b3a8ba205a30f1c,61036e6cd7f05ec17b7b7790,2021-07-29_23h14.55.819,Simcolourproject_2stim_asymm_v5,2020.2.10,MacIntel,60,61025ae37ef11b136ea224fe,,,,,,,,,569,25.59277344,-82.24237061,1,0,0,response3disk,,4,19.55126953,-8.042419434,1,0,0,rectangle,19.55126953,-8.042419434,1,0,0,19.55126953,-8.042419434,1,0,0,0,36,36,122,1,,,,,,,,
,,,,,,,,,,,,,FF,,,,,,,,1.150115,,,,,,,,,,,,,,,,,,,,,,60ff2b522b3a8ba205a30f1c,61036e6cd7f05ec17b7b7790,2021-07-29_23h14.55.819,Simcolourproject_2stim_asymm_v5,2020.2.10,MacIntel,60,61025ae37ef11b136ea224fe,,,,,,,,,1148,29.80596924,-78.078125,1,0,0,response3disk,,4,4.919189453,3.635253906,1,0,0,rectangle,4.919189453,3.635253906,1,0,0,4.919189453,3.635253906,1,0,0,0,37,37,0,1,,,,,,,,
,,,,,,,,,,,,,FF,,,,,,,,0.68307,,,,,,,,,,,,,,,,,,,,,,60ff2b522b3a8ba205a30f1c,61036e6cd7f05ec17b7b7790,2021-07-29_23h14.55.819,Simcolourproject_2stim_asymm_v5,2020.2.10,MacIntel,60,61025ae37ef11b136ea224fe,,,,,,,,,211,73.79077148,-33.89837646,1,0,0,response3disk,,5,27.15057373,-13.63525391,1,0,0,rectangle,27.15057373,-13.63525391,1,0,0,27.15057373,-13.63525391,1,0,0,0,38,38,137,1,,,,,,,,
,,,,,,,,,,,,,FF,,,,,,,,1.00002,,,,,,,,,,,,,,,,,,,,,,60ff2b522b3a8ba205a30f1c,61036e6cd7f05ec17b7b7790,2021-07-29_23h14.55.819,Simcolourproject_2stim_asymm_v5,2020.2.10,MacIntel,60,61025ae37ef11b136ea224fe,,,,,,,,,3266,49.67962646,20.38549805,1,0,0,response1disk,,6,-15.11260986,16.69195557,1,0,0,rectangle,-15.11260986,16.69195557,1,0,0,-15.11260986,16.69195557,1,0,0,0,39,39,52,1,,,,,,,,
,,,,,,,,,,,,,FF,,,,,,,,0.882185,,,,,,,,,,,,,,,,,,,,,,60ff2b522b3a8ba205a30f1c,61036e6cd7f05ec17b7b7790,2021-07-29_23h14.55.819,Simcolourproject_2stim_asymm_v5,2020.2.10,MacIntel,60,61025ae37ef11b136ea224fe,,,,,,,,,3786,55.62640381,-40.36322021,1,0,0,response3disk,,5,17.52514648,-12.33303833,1,0,0,rectangle,17.52514648,-12.33303833,1,0,0,17.52514648,-12.33303833,1,0,0,0,40,40,58,1,,,,,,,,
,,,,,,,,,,,,,FF,,,,,,,,0.783175,,,,,,,,,,,,,,,,,,,,,,60ff2b522b3a8ba205a30f1c,61036e6cd7f05ec17b7b7790,2021-07-29_23h14.55.819,Simcolourproject_2stim_asymm_v5,2020.2.10,MacIntel,60,61025ae37ef11b136ea224fe,,,,,,,,,812,33.9041748,-71.75048828,1,0,0,response3disk,,4,16.32495117,-14.33728027,1,0,0,rectangle,16.32495117,-14.33728027,1,0,0,16.32495117,-14.33728027,1,0,0,0,41,41,13,1,,,,,,,,
,,,,,,,,,,,,,FF,,,,,,,,0.634155,,,,,,,,,,,,,,,,,,,,,,60ff2b522b3a8ba205a30f1c,61036e6cd7f05ec17b7b7790,2021-07-29_23h14.55.819,Simcolourproject_2stim_asymm_v5,2020.2.10,MacIntel,60,61025ae37ef11b136ea224fe,,,,,,,,,2219,58.72766113,-38.7800293,1,0,0,response3disk,,5,-1.567626953,-1.934265137,1,0,0,rectangle,-1.567626953,-1.934265137,1,0,0,-1.567626953,-1.934265137,1,0,0,0,42,42,85,1,,,,,,,,
,,,,,,,,,,,,,FF,,,,,,,,0.801795,,,,,,,,,,,,,,,,,,,,,,60ff2b522b3a8ba205a30f1c,61036e6cd7f05ec17b7b7790,2021-07-29_23h14.55.819,Simcolourproject_2stim_asymm_v5,2020.2.10,MacIntel,60,61025ae37ef11b136ea224fe,,,,,,,,,933,29.53527832,107.2371826,1,0,0,response1disk,,7,18.10076904,12.14654541,1,0,0,rectangle,18.10076904,12.14654541,1,0,0,18.10076904,12.14654541,1,0,0,0,43,43,32,1,,,,,,,,
,,,,,,,,,,,,,FF,,,,,,,,1.03343,,,,,,,,,,,,,,,,,,,,,,60ff2b522b3a8ba205a30f1c,61036e6cd7f05ec17b7b7790,2021-07-29_23h14.55.819,Simcolourproject_2stim_asymm_v5,2020.2.10,MacIntel,60,61025ae37ef11b136ea224fe,,,,,,,,,652,52.99072266,-42.38067627,1,0,0,response3disk,,5,4.184143066,-15.30236816,1,0,0,rectangle,4.184143066,-15.30236816,1,0,0,4.184143066,-15.30236816,1,0,0,0,44,44,33,1,,,,,,,,
,,,,,,,,,,,,,FF,,,,,,,,0.68265,,,,,,,,,,,,,,,,,,,,,,60ff2b522b3a8ba205a30f1c,61036e6cd7f05ec17b7b7790,2021-07-29_23h14.55.819,Simcolourproject_2stim_asymm_v5,2020.2.10,MacIntel,60,61025ae37ef11b136ea224fe,,,,,,,,,448,73.1751709,19.62689209,1,0,0,response1disk,,6,-0.450195313,-3.552703857,1,0,0,rectangle,-0.450195313,-3.552703857,1,0,0,-0.450195313,-3.552703857,1,0,0,0,45,45,114,1,,,,,,,,
,,,,,,,,,,,,,FF,,,,,,,,1.050545,,,,,,,,,,,,,,,,,,,,,,60ff2b522b3a8ba205a30f1c,61036e6cd7f05ec17b7b7790,2021-07-29_23h14.55.819,Simcolourproject_2stim_asymm_v5,2020.2.10,MacIntel,60,61025ae37ef11b136ea224fe,,,,,,,,,2170,65.30078125,-48.51049805,1,0,0,response3disk,,5,11.11456299,-2.592895508,1,0,0,rectangle,11.11456299,-2.592895508,1,0,0,11.11456299,-2.592895508,1,0,0,0,46,46,66,1,,,,,,,,
,,,,,,,,,,,,,FF,,,,,,,,0.85073,,,,,,,,,,,,,,,,,,,,,,60ff2b522b3a8ba205a30f1c,61036e6cd7f05ec17b7b7790,2021-07-29_23h14.55.819,Simcolourproject_2stim_asymm_v5,2020.2.10,MacIntel,60,61025ae37ef11b136ea224fe,,,,,,,,,2789,44.95812988,-51.40936279,1,0,0,response3disk,,4,15.08496094,0.12310791,1,0,0,rectangle,15.08496094,0.12310791,1,0,0,15.08496094,0.12310791,1,0,0,0,47,47,57,1,,,,,,,,
,,,,,,,,,,,,,FF,,,,,,,,1.09931,,,,,,,,,,,,,,,,,,,,,,60ff2b522b3a8ba205a30f1c,61036e6cd7f05ec17b7b7790,2021-07-29_23h14.55.819,Simcolourproject_2stim_asymm_v5,2020.2.10,MacIntel,60,61025ae37ef11b136ea224fe,,,,,,,,,1296,-66.84234619,-16.68811035,1,0,0,response5disk,,2,-21.58837891,4.272796631,1,0,0,rectangle,-21.58837891,4.272796631,1,0,0,-21.58837891,4.272796631,1,0,0,0,48,48,23,1,,,,,,,,
,,,,,,,,,,,,,FF,,,,,,,,0.7001,,,,,,,,,,,,,,,,,,,,,,60ff2b522b3a8ba205a30f1c,61036e6cd7f05ec17b7b7790,2021-07-29_23h14.55.819,Simcolourproject_2stim_asymm_v5,2020.2.10,MacIntel,60,61025ae37ef11b136ea224fe,,,,,,,,,4256,-29.05609131,-75.78076172,1,0,0,response5disk,,3,-25.23651123,6.808410645,1,0,0,rectangle,-25.23651123,6.808410645,1,0,0,-25.23651123,6.808410645,1,0,0,0,49,49,131,1,,,,,,,,
,,,,,,,,,,,,,FF,,,,,,,,0.716405,,,,,,,,,,,,,,,,,,,,,,60ff2b522b3a8ba205a30f1c,61036e6cd7f05ec17b7b7790,2021-07-29_23h14.55.819,Simcolourproject_2stim_asymm_v5,2020.2.10,MacIntel,60,61025ae37ef11b136ea224fe,,,,,,,,,1705,94.06488037,-38.90240479,1,0,0,response3disk,,5,7.307250977,-5.006347656,1,0,0,rectangle,7.307250977,-5.006347656,1,0,0,7.307250977,-5.006347656,1,0,0,0,50,50,147,1,,,,,,,,
,,,,,,,,,,,,,FF,,,,,,,,0.98359,,,,,,,,,,,,,,,,,,,,,,60ff2b522b3a8ba205a30f1c,61036e6cd7f05ec17b7b7790,2021-07-29_23h14.55.819,Simcolourproject_2stim_asymm_v5,2020.2.10,MacIntel,60,61025ae37ef11b136ea224fe,,,,,,,,,1938,70.91802979,50.53479004,1,0,0,response1disk,,6,10.3493042,-12.62640381,1,0,0,rectangle,10.3493042,-12.62640381,1,0,0,10.3493042,-12.62640381,1,0,0,0,51,51,72,1,,,,,,,,
,,,,,,,,,,,,,FF,,,,,,,,1.18336,,,,,,,,,,,,,,,,,,,,,,60ff2b522b3a8ba205a30f1c,61036e6cd7f05ec17b7b7790,2021-07-29_23h14.55.819,Simcolourproject_2stim_asymm_v5,2020.2.10,MacIntel,60,61025ae37ef11b136ea224fe,,,,,,,,,333,60.41375732,47.16812134,1,0,0,response1disk,,6,23.86737061,4.862030029,1,0,0,rectangle,23.86737061,4.862030029,1,0,0,23.86737061,4.862030029,1,0,0,0,52,52,82,1,,,,,,,,
,,,,,,,,,,,,,FF,,,,,,,,0.96677,,,,,,,,,,,,,,,,,,,,,,60ff2b522b3a8ba205a30f1c,61036e6cd7f05ec17b7b7790,2021-07-29_23h14.55.819,Simcolourproject_2stim_asymm_v5,2020.2.10,MacIntel,60,61025ae37ef11b136ea224fe,,,,,,,,,1313,-71.92919922,-38.54486084,1,0,0,response5disk,,2,-15.41625977,-5.542755127,1,0,0,rectangle,-15.41625977,-5.542755127,1,0,0,-15.41625977,-5.542755127,1,0,0,0,53,53,11,1,,,,,,,,
,,,,,,,,,,,,,FF,,,,,,,,1.03349,,,,,,,,,,,,,,,,,,,,,,60ff2b522b3a8ba205a30f1c,61036e6cd7f05ec17b7b7790,2021-07-29_23h14.55.819,Simcolourproject_2stim_asymm_v5,2020.2.10,MacIntel,60,61025ae37ef11b136ea224fe,,,,,,,,,2025,-36.56713867,73.22595215,1,0,0,response7disk,,0,-2.840637207,13.54580688,1,0,0,rectangle,-2.840637207,13.54580688,1,0,0,-2.840637207,13.54580688,1,0,0,0,54,54,97,1,,,,,,,,
,,,,,,,,,,,,,FF,,,,,,,,3.06653,,,,,,,,,,,,,,,,,,,,,,60ff2b522b3a8ba205a30f1c,61036e6cd7f05ec17b7b7790,2021-07-29_23h14.55.819,Simcolourproject_2stim_asymm_v5,2020.2.10,MacIntel,60,61025ae37ef11b136ea224fe,,,,,,,,,2430,-17.92596436,-64.32421875,1,0,0,response5disk,,3,5.254211426,-3.81930542,1,0,0,rectangle,5.254211426,-3.81930542,1,0,0,5.254211426,-3.81930542,1,0,0,0,55,55,26,1,,,,,,,,
,,,,,,,,,,,,,FF,,,,,,,,0.883875,,,,,,,,,,,,,,,,,,,,,,60ff2b522b3a8ba205a30f1c,61036e6cd7f05ec17b7b7790,2021-07-29_23h14.55.819,Simcolourproject_2stim_asymm_v5,2020.2.10,MacIntel,60,61025ae37ef11b136ea224fe,,,,,,,,,2604,-33.84216309,-79.03240967,1,0,0,response5disk,,3,-17.25427246,-7.131164551,1,0,0,rectangle,-17.25427246,-7.131164551,1,0,0,-17.25427246,-7.131164551,1,0,0,0,56,56,74,1,,,,,,,,
,,,,,,,,,,,,,FF,,,,,,,,1.11588,,,,,,,,,,,,,,,,,,,,,,60ff2b522b3a8ba205a30f1c,61036e6cd7f05ec17b7b7790,2021-07-29_23h14.55.819,Simcolourproject_2stim_asymm_v5,2020.2.10,MacIntel,60,61025ae37ef11b136ea224fe,,,,,,,,,4186,-76.05712891,-56.89154053,1,0,0,response5disk,,2,-1.835021973,6.735626221,1,0,0,rectangle,-1.835021973,6.735626221,1,0,0,-1.835021973,6.735626221,1,0,0,0,57,57,120,1,,,,,,,,
,,,,,,,,,,,,,FF,,,,,,,,0.7999,,,,,,,,,,,,,,,,,,,,,,60ff2b522b3a8ba205a30f1c,61036e6cd7f05ec17b7b7790,2021-07-29_23h14.55.819,Simcolourproject_2stim_asymm_v5,2020.2.10,MacIntel,60,61025ae37ef11b136ea224fe,,,,,,,,,478,75.74737549,51.69311523,1,0,0,response1disk,,6,22.50848389,8.338256836,1,0,0,rectangle,22.50848389,8.338256836,1,0,0,22.50848389,8.338256836,1,0,0,0,58,58,89,1,,,,,,,,
,,,,,,,,,,,,,FF,,,,,,,,0.95007,,,,,,,,,,,,,,,,,,,,,,60ff2b522b3a8ba205a30f1c,61036e6cd7f05ec17b7b7790,2021-07-29_23h14.55.819,Simcolourproject_2stim_asymm_v5,2020.2.10,MacIntel,60,61025ae37ef11b136ea224fe,,,,,,,,,3898,50.62524414,-66.77471924,1,0,0,response3disk,,4,27.69250488,-14.71514893,1,0,0,rectangle,27.69250488,-14.71514893,1,0,0,27.69250488,-14.71514893,1,0,0,0,59,59,6,1,,,,,,,,
,,,,,,,,,,,,,FF,,,,,,,,0.666615,,,,,,,,,,,,,,,,,,,,,,60ff2b522b3a8ba205a30f1c,61036e6cd7f05ec17b7b7790,2021-07-29_23h14.55.819,Simcolourproject_2stim_asymm_v5,2020.2.10,MacIntel,60,61025ae37ef11b136ea224fe,,,,,,,,,2956,35.79614258,85.55770874,1,0,0,response1disk,,7,12.43121338,-6.952575684,1,0,0,rectangle,12.43121338,-6.952575684,1,0,0,12.43121338,-6.952575684,1,0,0,0,60,60,134,1,,,,,,,,
,,,,,,,,,,,,,FF,,,,,,,,0.89953,,,,,,,,,,,,,,,,,,,,,,60ff2b522b3a8ba205a30f1c,61036e6cd7f05ec17b7b7790,2021-07-29_23h14.55.819,Simcolourproject_2stim_asymm_v5,2020.2.10,MacIntel,60,61025ae37ef11b136ea224fe,,,,,,,,,2707,33.63720703,60.16751099,1,0,0,response1disk,,7,10.51184082,-16.5723877,1,0,0,rectangle,10.51184082,-16.5723877,1,0,0,10.51184082,-16.5723877,1,0,0,0,61,61,95,1,,,,,,,,
,,,,,,,,,,,,,FF,,,,,,,,1.19967,,,,,,,,,,,,,,,,,,,,,,60ff2b522b3a8ba205a30f1c,61036e6cd7f05ec17b7b7790,2021-07-29_23h14.55.819,Simcolourproject_2stim_asymm_v5,2020.2.10,MacIntel,60,61025ae37ef11b136ea224fe,,,,,,,,,2475,53.91442871,-29.76889038,1,0,0,response3disk,,5,15.46679688,0.829040527,1,0,0,rectangle,15.46679688,0.829040527,1,0,0,15.46679688,0.829040527,1,0,0,0,62,62,15,1,,,,,,,,
,,,,,,,,,,,,,FF,,,,,,,,0.81657,,,,,,,,,,,,,,,,,,,,,,60ff2b522b3a8ba205a30f1c,61036e6cd7f05ec17b7b7790,2021-07-29_23h14.55.819,Simcolourproject_2stim_asymm_v5,2020.2.10,MacIntel,60,61025ae37ef11b136ea224fe,,,,,,,,,2004,47.78363037,89.19488525,1,0,0,response1disk,,7,31.28869629,15.88592529,1,0,0,rectangle,31.28869629,15.88592529,1,0,0,31.28869629,15.88592529,1,0,0,0,63,63,152,1,,,,,,,,
,,,,,,,,,,,,,FF,,,,,,,,0.74988,,,,,,,,,,,,,,,,,,,,,,60ff2b522b3a8ba205a30f1c,61036e6cd7f05ec17b7b7790,2021-07-29_23h14.55.819,Simcolourproject_2stim_asymm_v5,2020.2.10,MacIntel,60,61025ae37ef11b136ea224fe,,,,,,,,,1303,-51.37042236,-75.85107422,1,0,0,response5disk,,3,-5.095336914,14.1427002,1,0,0,rectangle,-5.095336914,14.1427002,1,0,0,-5.095336914,14.1427002,1,0,0,0,64,64,103,1,,,,,,,,
,,,,,,,,,,,,,FF,,,,,,,,0.784365,,,,,,,,,,,,,,,,,,,,,,60ff2b522b3a8ba205a30f1c,61036e6cd7f05ec17b7b7790,2021-07-29_23h14.55.819,Simcolourproject_2stim_asymm_v5,2020.2.10,MacIntel,60,61025ae37ef11b136ea224fe,,,,,,,,,4308,70.21533203,25.69195557,1,0,0,response1disk,,6,-0.37286377,2.082336426,1,0,0,rectangle,-0.37286377,2.082336426,1,0,0,-0.37286377,2.082336426,1,0,0,0,65,65,41,1,,,,,,,,
,,,,,,,,,,,,,FF,,,,,,,,0.94987,,,,,,,,,,,,,,,,,,,,,,60ff2b522b3a8ba205a30f1c,61036e6cd7f05ec17b7b7790,2021-07-29_23h14.55.819,Simcolourproject_2stim_asymm_v5,2020.2.10,MacIntel,60,61025ae37ef11b136ea224fe,,,,,,,,,1551,56.00146484,43.53570557,1,0,0,response1disk,,6,15.09753418,9.927703857,1,0,0,rectangle,56.64605713,-37.14535522,1,0,0,27.0234375,0.219177246,1,0,0,0,66,66,49,1,,response3disk_3,TRUE,5,5,"[211,31,266,174,244,205,94,67,216,152,169,268,199,73,320,222,295,68,83,72]",1.983165,rectangle
,,,,,,,,,,,,,FF,,,,,,,,1.03298,,,,,,,,,,,,,,,,,,,,,,60ff2b522b3a8ba205a30f1c,61036e6cd7f05ec17b7b7790,2021-07-29_23h14.55.819,Simcolourproject_2stim_asymm_v5,2020.2.10,MacIntel,60,61025ae37ef11b136ea224fe,,,,,,,,,517,40.16223145,-72.94104004,1,0,0,response3disk,,4,-5.961425781,2.731506348,1,0,0,rectangle,52.23413086,69.90380859,1,0,0,32.81036377,-0.032043457,1,0,0,0,67,67,24,1,,response1disk_3,TRUE,7,7,"[211,31,266,174,244,205,94,67,216,152,169,268,199,73,320,222,295,68,83,72]",1.615915,rectangle
,,,,,,,,,,,,,FF,,,,,,,,1.183755,,,,,,,,,,,,,,,,,,,,,,60ff2b522b3a8ba205a30f1c,61036e6cd7f05ec17b7b7790,2021-07-29_23h14.55.819,Simcolourproject_2stim_asymm_v5,2020.2.10,MacIntel,60,61025ae37ef11b136ea224fe,,,,,,,,,1123,54.81359863,24.05093384,1,0,0,response1disk,,6,0.592712402,-8.024047852,1,0,0,rectangle,0.592712402,-8.024047852,1,0,0,0.592712402,-8.024047852,1,0,0,0,68,68,121,1,,,,,,,,
,,,,,,,,,,,,,FF,,,,,,,,0.93335,,,,,,,,,,,,,,,,,,,,,,60ff2b522b3a8ba205a30f1c,61036e6cd7f05ec17b7b7790,2021-07-29_23h14.55.819,Simcolourproject_2stim_asymm_v5,2020.2.10,MacIntel,60,61025ae37ef11b136ea224fe,,,,,,,,,1612,46.52648926,-74.38726807,1,0,0,response3disk,,4,5.790283203,6.318878174,1,0,0,rectangle,5.790283203,6.318878174,1,0,0,5.790283203,6.318878174,1,0,0,0,69,69,138,1,,,,,,,,
,,,,,,,,,,,,,FF,,,,,,,,0.83323,,,,,,,,,,,,,,,,,,,,,,60ff2b522b3a8ba205a30f1c,61036e6cd7f05ec17b7b7790,2021-07-29_23h14.55.819,Simcolourproject_2stim_asymm_v5,2020.2.10,MacIntel,60,61025ae37ef11b136ea224fe,,,,,,,,,3603,56.46435547,-26.92788696,1,0,0,response3disk,,5,7.550048828,8.98059082,1,0,0,rectangle,7.550048828,8.98059082,1,0,0,7.550048828,8.98059082,1,0,0,0,70,70,59,1,,,,,,,,
,,,,,,,,,,,,,FF,,,,,,,,0.83292,,,,,,,,,,,,,,,,,,,,,,60ff2b522b3a8ba205a30f1c,61036e6cd7f05ec17b7b7790,2021-07-29_23h14.55.819,Simcolourproject_2stim_asymm_v5,2020.2.10,MacIntel,60,61025ae37ef11b136ea224fe,,,,,,,,,66,-34.76202393,-57.540802,1,0,0,response5disk,,3,-7.016662598,12.5461731,1,0,0,rectangle,-70.11914063,-30.19338989,1,0,0,-17.64263916,-9.650817871,1,0,0,0,71,71,78,1,,response5disk_3,TRUE,2,2,"[211,31,266,174,244,205,94,67,216,152,169,268,199,73,320,222,295,68,83,72]",1.8991,rectangle
,,,,,,,,,,,,,FF,,,,,,,,0.966415,,,,,,,,,,,,,,,,,,,,,,60ff2b522b3a8ba205a30f1c,61036e6cd7f05ec17b7b7790,2021-07-29_23h14.55.819,Simcolourproject_2stim_asymm_v5,2020.2.10,MacIntel,60,61025ae37ef11b136ea224fe,,,,,,,,,610,79.04754639,-30.78479004,1,0,0,response3disk,,5,2.642028809,-9.375061035,1,0,0,rectangle,-48.91333008,82.48486328,1,0,0,-1.137573242,5.996032715,1,0,0,0,72,72,135,1,,response7disk_3,TRUE,0,0,"[211,31,266,174,244,205,94,67,216,152,169,268,199,73,320,222,295,68,83,72]",2.016395,rectangle
,,,,,,,,,,,,,FF,,,,,,,,0.767405,,,,,,,,,,,,,,,,,,,,,,60ff2b522b3a8ba205a30f1c,61036e6cd7f05ec17b7b7790,2021-07-29_23h14.55.819,Simcolourproject_2stim_asymm_v5,2020.2.10,MacIntel,60,61025ae37ef11b136ea224fe,,,,,,,,,1833,-15.91070557,-73.89886475,1,0,0,response5disk,,3,-5.562011719,-11.41149902,1,0,0,rectangle,-5.562011719,-11.41149902,1,0,0,-5.562011719,-11.41149902,1,0,0,0,73,73,80,1,,,,,,,,
,,,,,,,,,,,,,FF,,,,,,,,0.63449,,,,,,,,,,,,,,,,,,,,,,60ff2b522b3a8ba205a30f1c,61036e6cd7f05ec17b7b7790,2021-07-29_23h14.55.819,Simcolourproject_2stim_asymm_v5,2020.2.10,MacIntel,60,61025ae37ef11b136ea224fe,,,,,,,,,4286,74.43798828,33.87884521,1,0,0,response1disk,,6,18.99749756,6.211608887,1,0,0,rectangle,18.99749756,6.211608887,1,0,0,18.99749756,6.211608887,1,0,0,0,74,74,61,1,,,,,,,,
,,,,,,,,,,,,,FF,,,,,,,,0.91645,,,,,,,,,,,,,,,,,,,,,,60ff2b522b3a8ba205a30f1c,61036e6cd7f05ec17b7b7790,2021-07-29_23h14.55.819,Simcolourproject_2stim_asymm_v5,2020.2.10,MacIntel,60,61025ae37ef11b136ea224fe,,,,,,,,,520,-63.85974121,-96.578125,1,0,0,response5disk,,3,-2.164428711,8.988677979,1,0,0,rectangle,-2.164428711,8.988677979,1,0,0,-2.164428711,8.988677979,1,0,0,0,75,75,39,1,,,,,,,,
,,,,,,,,,,,,,FF,,,,,,,,1.401385,,,,,,,,,,,,,,,,,,,,,,60ff2b522b3a8ba205a30f1c,61036e6cd7f05ec17b7b7790,2021-07-29_23h14.55.819,Simcolourproject_2stim_asymm_v5,2020.2.10,MacIntel,60,61025ae37ef11b136ea224fe,,,,,,,,,2602,-78.18469238,-47.19775391,1,0,0,response5disk,,2,-15.56298828,1.321411133,1,0,0,rectangle,-15.56298828,1.321411133,1,0,0,-15.56298828,1.321411133,1,0,0,0,76,76,45,1,,,,,,,,
,,,,,,,,,,,,,FF,,,,,,,,0.682885,,,,,,,,,,,,,,,,,,,,,,60ff2b522b3a8ba205a30f1c,61036e6cd7f05ec17b7b7790,2021-07-29_23h14.55.819,Simcolourproject_2stim_asymm_v5,2020.2.10,MacIntel,60,61025ae37ef11b136ea224fe,,,,,,,,,3414,67.41485596,-19.49111938,1,0,0,response3disk,,5,15.37133789,-2.83392334,1,0,0,rectangle,15.37133789,-2.83392334,1,0,0,15.37133789,-2.83392334,1,0,0,0,77,77,96,1,,,,,,,,
,,,,,,,,,,,,,FF,,,,,,,,0.816425,,,,,,,,,,,,,,,,,,,,,,60ff2b522b3a8ba205a30f1c,61036e6cd7f05ec17b7b7790,2021-07-29_23h14.55.819,Simcolourproject_2stim_asymm_v5,2020.2.10,MacIntel,60,61025ae37ef11b136ea224fe,,,,,,,,,3957,57.8302002,-25.57940674,1,0,0,response3disk,,5,-4.836120605,-2.57421875,1,0,0,rectangle,-4.836120605,-2.57421875,1,0,0,-4.836120605,-2.57421875,1,0,0,0,78,78,93,1,,,,,,,,
,,,,,,,,,,,,,FF,,,,,,,,0.650315,,,,,,,,,,,,,,,,,,,,,,60ff2b522b3a8ba205a30f1c,61036e6cd7f05ec17b7b7790,2021-07-29_23h14.55.819,Simcolourproject_2stim_asymm_v5,2020.2.10,MacIntel,60,61025ae37ef11b136ea224fe,,,,,,,,,1135,-26.22277832,-69.10412598,1,0,0,response5disk,,3,-3.338928223,1.180084229,1,0,0,rectangle,-3.338928223,1.180084229,1,0,0,-3.338928223,1.180084229,1,0,0,0,79,79,51,1,,,,,,,,
,,,,,,,,,,,,,FF,,,,,,,,0.632805,,,,,,,,,,,,,,,,,,,,,,60ff2b522b3a8ba205a30f1c,61036e6cd7f05ec17b7b7790,2021-07-29_23h14.55.819,Simcolourproject_2stim_asymm_v5,2020.2.10,MacIntel,60,61025ae37ef11b136ea224fe,,,,,,,,,3650,64.10302734,57.70477295,1,0,0,response1disk,,6,0.692138672,1.777832031,1,0,0,rectangle,0.692138672,1.777832031,1,0,0,0.692138672,1.777832031,1,0,0,0,80,80,40,1,,,,,,,,
,,,,,,,,,,,,,FF,,,,,,,,0.7169,,,,,,,,,,,,,,,,,,,,,,60ff2b522b3a8ba205a30f1c,61036e6cd7f05ec17b7b7790,2021-07-29_23h14.55.819,Simcolourproject_2stim_asymm_v5,2020.2.10,MacIntel,60,61025ae37ef11b136ea224fe,,,,,,,,,4334,42.50439453,76.38165283,1,0,0,response1disk,,7,25.37182617,5.589416504,1,0,0,rectangle,25.37182617,5.589416504,1,0,0,25.37182617,5.589416504,1,0,0,0,81,81,31,1,,,,,,,,
,,,,,,,,,,,,,FF,,,,,,,,0.916755,,,,,,,,,,,,,,,,,,,,,,60ff2b522b3a8ba205a30f1c,61036e6cd7f05ec17b7b7790,2021-07-29_23h14.55.819,Simcolourproject_2stim_asymm_v5,2020.2.10,MacIntel,60,61025ae37ef11b136ea224fe,,,,,,,,,2815,85.6003418,-36.05340576,1,0,0,response3disk,,5,18.2767334,-8.428771973,1,0,0,rectangle,59.65307617,34.12844849,1,0,0,5.889038086,6.980834961,1,0,0,0,82,82,2,1,,response1disk_3,TRUE,6,6,"[211,31,266,174,244,205,94,67,216,152,169,268,199,73,320,222,295,68,83,72]",1.55055,rectangle
,,,,,,,,,,,,,FF,,,,,,,,0.78347,,,,,,,,,,,,,,,,,,,,,,60ff2b522b3a8ba205a30f1c,61036e6cd7f05ec17b7b7790,2021-07-29_23h14.55.819,Simcolourproject_2stim_asymm_v5,2020.2.10,MacIntel,60,61025ae37ef11b136ea224fe,,,,,,,,,2097,-17.65014648,-74.50476074,1,0,0,response5disk,,3,4.738708496,3.82244873,1,0,0,rectangle,4.738708496,3.82244873,1,0,0,4.738708496,3.82244873,1,0,0,0,83,83,126,1,,,,,,,,
,,,,,,,,,,,,,FF,,,,,,,,0.665165,,,,,,,,,,,,,,,,,,,,,,60ff2b522b3a8ba205a30f1c,61036e6cd7f05ec17b7b7790,2021-07-29_23h14.55.819,Simcolourproject_2stim_asymm_v5,2020.2.10,MacIntel,60,61025ae37ef11b136ea224fe,,,,,,,,,4301,60.56030273,-22.97387695,1,0,0,response3disk,,5,3.239440918,-3.644836426,1,0,0,rectangle,3.239440918,-3.644836426,1,0,0,3.239440918,-3.644836426,1,0,0,0,84,84,123,1,,,,,,,,
,,,,,,,,,,,,,FF,,,,,,,,0.96642,,,,,,,,,,,,,,,,,,,,,,60ff2b522b3a8ba205a30f1c,61036e6cd7f05ec17b7b7790,2021-07-29_23h14.55.819,Simcolourproject_2stim_asymm_v5,2020.2.10,MacIntel,60,61025ae37ef11b136ea224fe,,,,,,,,,1202,59.33044434,45.88964844,1,0,0,response1disk,,6,3.124023438,6.681884766,1,0,0,rectangle,3.124023438,6.681884766,1,0,0,3.124023438,6.681884766,1,0,0,0,85,85,18,1,,,,,,,,
,,,,,,,,,,,,,FF,,,,,,,,2.415885,,,,,,,,,,,,,,,,,,,,,,60ff2b522b3a8ba205a30f1c,61036e6cd7f05ec17b7b7790,2021-07-29_23h14.55.819,Simcolourproject_2stim_asymm_v5,2020.2.10,MacIntel,60,61025ae37ef11b136ea224fe,,,,,,,,,3688,60.26324463,37.20367432,1,0,0,response1disk,,6,-6.905090332,1.475646973,1,0,0,rectangle,-6.905090332,1.475646973,1,0,0,-6.905090332,1.475646973,1,0,0,0,86,86,110,1,,,,,,,,
,,,,,,,,,,,,,FF,,,,,,,,4.26612,,,,,,,,,,,,,,,,,,,,,,60ff2b522b3a8ba205a30f1c,61036e6cd7f05ec17b7b7790,2021-07-29_23h14.55.819,Simcolourproject_2stim_asymm_v5,2020.2.10,MacIntel,60,61025ae37ef11b136ea224fe,,,,,,,,,48,94.27050781,72.63009644,1,0,0,response1disk,,6,6.824035645,-5.154541016,1,0,0,rectangle,6.824035645,-5.154541016,1,0,0,6.824035645,-5.154541016,1,0,0,0,87,87,54,1,,,,,,,,
,,,,,,,,,,,,,FF,,,,,,,,0.567445,,,,,,,,,,,,,,,,,,,,,,60ff2b522b3a8ba205a30f1c,61036e6cd7f05ec17b7b7790,2021-07-29_23h14.55.819,Simcolourproject_2stim_asymm_v5,2020.2.10,MacIntel,60,61025ae37ef11b136ea224fe,,,,,,,,,1617,-33.0894165,-54.92932129,1,0,0,response5disk,,3,-17.92382813,-6.924621582,1,0,0,rectangle,-17.92382813,-6.924621582,1,0,0,-17.92382813,-6.924621582,1,0,0,0,88,88,77,1,,,,,,,,
,,,,,,,,,,,,,FF,,,,,,,,0.850065,,,,,,,,,,,,,,,,,,,,,,60ff2b522b3a8ba205a30f1c,61036e6cd7f05ec17b7b7790,2021-07-29_23h14.55.819,Simcolourproject_2stim_asymm_v5,2020.2.10,MacIntel,60,61025ae37ef11b136ea224fe,,,,,,,,,1633,58.60913086,-38.98419189,1,0,0,response3disk,,5,8.946777344,-11.52423096,1,0,0,rectangle,8.946777344,-11.52423096,1,0,0,8.946777344,-11.52423096,1,0,0,0,89,89,106,1,,,,,,,,
,,,,,,,,,,,,,FF,,,,,,,,1.599525,,,,,,,,,,,,,,,,,,,,,,60ff2b522b3a8ba205a30f1c,61036e6cd7f05ec17b7b7790,2021-07-29_23h14.55.819,Simcolourproject_2stim_asymm_v5,2020.2.10,MacIntel,60,61025ae37ef11b136ea224fe,,,,,,,,,1215,-41.81640625,-69.05297852,1,0,0,response5disk,,3,-14.96356201,4.250915527,1,0,0,rectangle,-14.96356201,4.250915527,1,0,0,-14.96356201,4.250915527,1,0,0,0,90,90,112,1,,,,,,,,
,,,,,,,,,,,,,FF,,,,,,,,0.633805,,,,,,,,,,,,,,,,,,,,,,60ff2b522b3a8ba205a30f1c,61036e6cd7f05ec17b7b7790,2021-07-29_23h14.55.819,Simcolourproject_2stim_asymm_v5,2020.2.10,MacIntel,60,61025ae37ef11b136ea224fe,,,,,,,,,4305,-32.4944458,82.6991272,1,0,0,response7disk,,0,-4.131469727,3.05065918,1,0,0,rectangle,-4.131469727,3.05065918,1,0,0,-4.131469727,3.05065918,1,0,0,0,91,91,116,1,,,,,,,,
,,,,,,,,,,,,,FF,,,,,,,,0.950595,,,,,,,,,,,,,,,,,,,,,,60ff2b522b3a8ba205a30f1c,61036e6cd7f05ec17b7b7790,2021-07-29_23h14.55.819,Simcolourproject_2stim_asymm_v5,2020.2.10,MacIntel,60,61025ae37ef11b136ea224fe,,,,,,,,,678,73.25756836,43.94836426,1,0,0,response1disk,,6,6.944091797,-2.547607422,1,0,0,rectangle,6.944091797,-2.547607422,1,0,0,6.944091797,-2.547607422,1,0,0,0,92,92,146,1,,,,,,,,
,,,,,,,,,,,,,FF,,,,,,,,0.650285,,,,,,,,,,,,,,,,,,,,,,60ff2b522b3a8ba205a30f1c,61036e6cd7f05ec17b7b7790,2021-07-29_23h14.55.819,Simcolourproject_2stim_asymm_v5,2020.2.10,MacIntel,60,61025ae37ef11b136ea224fe,,,,,,,,,3241,63.26098633,29.78790283,1,0,0,response1disk,,6,12.99591064,2.40032959,1,0,0,rectangle,76.38476563,48.94763184,1,0,0,9.566955566,16.3838501,1,0,0,0,93,93,34,1,,response1disk_3,TRUE,6,6,"[211,31,266,174,244,205,94,67,216,152,169,268,199,73,320,222,295,68,83,72]",2.08319,rectangle
,,,,,,,,,,,,,FF,,,,,,,,1.283435,,,,,,,,,,,,,,,,,,,,,,60ff2b522b3a8ba205a30f1c,61036e6cd7f05ec17b7b7790,2021-07-29_23h14.55.819,Simcolourproject_2stim_asymm_v5,2020.2.10,MacIntel,60,61025ae37ef11b136ea224fe,,,,,,,,,1863,22.23321533,87.20108032,1,0,0,response1disk,,7,6.657897949,9.70715332,1,0,0,rectangle,6.657897949,9.70715332,1,0,0,6.657897949,9.70715332,1,0,0,0,94,94,20,1,,,,,,,,
,,,,,,,,,,,,,FF,,,,,,,,1.05061,,,,,,,,,,,,,,,,,,,,,,60ff2b522b3a8ba205a30f1c,61036e6cd7f05ec17b7b7790,2021-07-29_23h14.55.819,Simcolourproject_2stim_asymm_v5,2020.2.10,MacIntel,60,61025ae37ef11b136ea224fe,,,,,,,,,445,-67.17510986,22.5489502,1,0,0,response7disk,,1,-24.31115723,6.231628418,1,0,0,rectangle,-24.31115723,6.231628418,1,0,0,-24.31115723,6.231628418,1,0,0,0,95,95,65,1,,,,,,,,
,,,,,,,,,,,,,FF,,,,,,,,1.49962,,,,,,,,,,,,,,,,,,,,,,60ff2b522b3a8ba205a30f1c,61036e6cd7f05ec17b7b7790,2021-07-29_23h14.55.819,Simcolourproject_2stim_asymm_v5,2020.2.10,MacIntel,60,61025ae37ef11b136ea224fe,,,,,,,,,2129,19.64929199,-55.07498169,1,0,0,response3disk,,4,10.09100342,-10.47399902,1,0,0,rectangle,10.09100342,-10.47399902,1,0,0,10.09100342,-10.47399902,1,0,0,0,96,96,155,1,,,,,,,,
,,,,,,,,,,,,,FF,,,,,,,,0.834425,,,,,,,,,,,,,,,,,,,,,,60ff2b522b3a8ba205a30f1c,61036e6cd7f05ec17b7b7790,2021-07-29_23h14.55.819,Simcolourproject_2stim_asymm_v5,2020.2.10,MacIntel,60,61025ae37ef11b136ea224fe,,,,,,,,,2941,-80.32440186,49.53369141,1,0,0,response7disk,,1,-2.950866699,1.958007813,1,0,0,rectangle,-2.950866699,1.958007813,1,0,0,-2.950866699,1.958007813,1,0,0,0,97,97,27,1,,,,,,,,
,,,,,,,,,,,,,FF,,,,,,,,2.83306,,,,,,,,,,,,,,,,,,,,,,60ff2b522b3a8ba205a30f1c,61036e6cd7f05ec17b7b7790,2021-07-29_23h14.55.819,Simcolourproject_2stim_asymm_v5,2020.2.10,MacIntel,60,61025ae37ef11b136ea224fe,,,,,,,,,3205,-84.73657227,34.6307373,1,0,0,response7disk,,1,-9.165649414,-1.926391602,1,0,0,rectangle,-9.165649414,-1.926391602,1,0,0,-9.165649414,-1.926391602,1,0,0,0,98,98,118,1,,,,,,,,
,,,,,,,,,,,,,FF,,,,,,,,0.650185,,,,,,,,,,,,,,,,,,,,,,60ff2b522b3a8ba205a30f1c,61036e6cd7f05ec17b7b7790,2021-07-29_23h14.55.819,Simcolourproject_2stim_asymm_v5,2020.2.10,MacIntel,60,61025ae37ef11b136ea224fe,,,,,,,,,3777,-77.9901123,30.61535645,1,0,0,response7disk,,1,-25.70837402,5.276855469,1,0,0,rectangle,-25.70837402,5.276855469,1,0,0,-25.70837402,5.276855469,1,0,0,0,99,99,30,1,,,,,,,,
,,,,,,,,,,,,,FF,,,,,,,,0.84934,,,,,,,,,,,,,,,,,,,,,,60ff2b522b3a8ba205a30f1c,61036e6cd7f05ec17b7b7790,2021-07-29_23h14.55.819,Simcolourproject_2stim_asymm_v5,2020.2.10,MacIntel,60,61025ae37ef11b136ea224fe,,,,,,,,,3375,-66.04571533,-39.8298645,1,0,0,response5disk,,2,-13.19549561,-1.732666016,1,0,0,rectangle,-13.19549561,-1.732666016,1,0,0,-13.19549561,-1.732666016,1,0,0,0,100,100,73,1,,,,,,,,
,,,,,,,,,,,,,FF,,,,,,,,0.867885,,,,,,,,,,,,,,,,,,,,,,60ff2b522b3a8ba205a30f1c,61036e6cd7f05ec17b7b7790,2021-07-29_23h14.55.819,Simcolourproject_2stim_asymm_v5,2020.2.10,MacIntel,60,61025ae37ef11b136ea224fe,,,,,,,,,1828,-51.94213867,-77.29937744,1,0,0,response5disk,,3,-22.82214355,-13.42327881,1,0,0,rectangle,-22.82214355,-13.42327881,1,0,0,-22.82214355,-13.42327881,1,0,0,0,101,101,60,1,,,,,,,,
,,,,,,,,,,,,,FF,,,,,,,,0.750195,,,,,,,,,,,,,,,,,,,,,,60ff2b522b3a8ba205a30f1c,61036e6cd7f05ec17b7b7790,2021-07-29_23h14.55.819,Simcolourproject_2stim_asymm_v5,2020.2.10,MacIntel,60,61025ae37ef11b136ea224fe,,,,,,,,,2801,83.41748047,-43.37792969,1,0,0,response3disk,,5,13.934021,-11.690979,1,0,0,rectangle,13.934021,-11.690979,1,0,0,13.934021,-11.690979,1,0,0,0,102,102,150,1,,,,,,,,
,,,,,,,,,,,,,FF,,,,,,,,0.9831,,,,,,,,,,,,,,,,,,,,,,60ff2b522b3a8ba205a30f1c,61036e6cd7f05ec17b7b7790,2021-07-29_23h14.55.819,Simcolourproject_2stim_asymm_v5,2020.2.10,MacIntel,60,61025ae37ef11b136ea224fe,,,,,,,,,621,67.63256836,34.6449585,1,0,0,response1disk,,6,5.513183594,2.396728516,1,0,0,rectangle,5.513183594,2.396728516,1,0,0,5.513183594,2.396728516,1,0,0,0,103,103,81,1,,,,,,,,
,,,,,,,,,,,,,FF,,,,,,,,0.983315,,,,,,,,,,,,,,,,,,,,,,60ff2b522b3a8ba205a30f1c,61036e6cd7f05ec17b7b7790,2021-07-29_23h14.55.819,Simcolourproject_2stim_asymm_v5,2020.2.10,MacIntel,60,61025ae37ef11b136ea224fe,,,,,,,,,2156,58.13928223,29.16744995,1,0,0,response1disk,,6,13.39013672,0.928955078,1,0,0,rectangle,13.39013672,0.928955078,1,0,0,13.39013672,0.928955078,1,0,0,0,104,104,153,1,,,,,,,,
,,,,,,,,,,,,,FF,,,,,,,,0.983015,,,,,,,,,,,,,,,,,,,,,,60ff2b522b3a8ba205a30f1c,61036e6cd7f05ec17b7b7790,2021-07-29_23h14.55.819,Simcolourproject_2stim_asymm_v5,2020.2.10,MacIntel,60,61025ae37ef11b136ea224fe,,,,,,,,,1169,17.95410156,109.7337341,1,0,0,response1disk,,7,-2.737854004,-4.510375977,1,0,0,rectangle,-2.737854004,-4.510375977,1,0,0,-2.737854004,-4.510375977,1,0,0,0,105,105,117,1,,,,,,,,
,,,,,,,,,,,,,FF,,,,,,,,1.116895,,,,,,,,,,,,,,,,,,,,,,60ff2b522b3a8ba205a30f1c,61036e6cd7f05ec17b7b7790,2021-07-29_23h14.55.819,Simcolourproject_2stim_asymm_v5,2020.2.10,MacIntel,60,61025ae37ef11b136ea224fe,,,,,,,,,4304,60.87890625,-25.80529785,1,0,0,response3disk,,5,2.689331055,-5.246612549,1,0,0,rectangle,2.689331055,-5.246612549,1,0,0,2.689331055,-5.246612549,1,0,0,0,106,106,128,1,,,,,,,,
,,,,,,,,,,,,,FF,,,,,,,,1.300535,,,,,,,,,,,,,,,,,,,,,,60ff2b522b3a8ba205a30f1c,61036e6cd7f05ec17b7b7790,2021-07-29_23h14.55.819,Simcolourproject_2stim_asymm_v5,2020.2.10,MacIntel,60,61025ae37ef11b136ea224fe,,,,,,,,,570,33.84179688,-72.36682129,1,0,0,response3disk,,4,9.342529297,-13.0062561,1,0,0,rectangle,9.342529297,-13.0062561,1,0,0,9.342529297,-13.0062561,1,0,0,0,107,107,37,1,,,,,,,,
,,,,,,,,,,,,,FF,,,,,,,,0.91717,,,,,,,,,,,,,,,,,,,,,,60ff2b522b3a8ba205a30f1c,61036e6cd7f05ec17b7b7790,2021-07-29_23h14.55.819,Simcolourproject_2stim_asymm_v5,2020.2.10,MacIntel,60,61025ae37ef11b136ea224fe,,,,,,,,,1142,33.49621582,-62.97662354,1,0,0,response3disk,,4,16.72570801,17.66369629,1,0,0,rectangle,16.72570801,17.66369629,1,0,0,16.72570801,17.66369629,1,0,0,0,108,108,125,1,,,,,,,,
,,,,,,,,,,,,,FF,,,,,,,,0.950105,,,,,,,,,,,,,,,,,,,,,,60ff2b522b3a8ba205a30f1c,61036e6cd7f05ec17b7b7790,2021-07-29_23h14.55.819,Simcolourproject_2stim_asymm_v5,2020.2.10,MacIntel,60,61025ae37ef11b136ea224fe,,,,,,,,,4126,-85.11987305,-25.83352661,1,0,0,response5disk,,2,-5.594726563,0.097473145,1,0,0,rectangle,-5.594726563,0.097473145,1,0,0,-5.594726563,0.097473145,1,0,0,0,109,109,132,1,,,,,,,,
,,,,,,,,,,,,,FF,,,,,,,,0.73394,,,,,,,,,,,,,,,,,,,,,,60ff2b522b3a8ba205a30f1c,61036e6cd7f05ec17b7b7790,2021-07-29_23h14.55.819,Simcolourproject_2stim_asymm_v5,2020.2.10,MacIntel,60,61025ae37ef11b136ea224fe,,,,,,,,,1673,-48.45739746,-73.5871582,1,0,0,response5disk,,3,-15.22320557,-16.68835449,1,0,0,rectangle,-15.22320557,-16.68835449,1,0,0,-15.22320557,-16.68835449,1,0,0,0,110,110,98,1,,,,,,,,
,,,,,,,,,,,,,FF,,,,,,,,1.066355,,,,,,,,,,,,,,,,,,,,,,60ff2b522b3a8ba205a30f1c,61036e6cd7f05ec17b7b7790,2021-07-29_23h14.55.819,Simcolourproject_2stim_asymm_v5,2020.2.10,MacIntel,60,61025ae37ef11b136ea224fe,,,,,,,,,1524,-81.01550293,-37.00454712,1,0,0,response5disk,,2,-17.8949585,-1.89630127,1,0,0,rectangle,-17.8949585,-1.89630127,1,0,0,-17.8949585,-1.89630127,1,0,0,0,111,111,94,1,,,,,,,,
,,,,,,,,,,,,,FF,,,,,,,,0.63366,,,,,,,,,,,,,,,,,,,,,,60ff2b522b3a8ba205a30f1c,61036e6cd7f05ec17b7b7790,2021-07-29_23h14.55.819,Simcolourproject_2stim_asymm_v5,2020.2.10,MacIntel,60,61025ae37ef11b136ea224fe,,,,,,,,,1570,74.90655518,-39.11346436,1,0,0,response3disk,,5,14.17926025,-0.343353271,1,0,0,rectangle,14.17926025,-0.343353271,1,0,0,14.17926025,-0.343353271,1,0,0,0,112,112,16,1,,,,,,,,
,,,,,,,,,,,,,FF,,,,,,,,0.666515,,,,,,,,,,,,,,,,,,,,,,60ff2b522b3a8ba205a30f1c,61036e6cd7f05ec17b7b7790,2021-07-29_23h14.55.819,Simcolourproject_2stim_asymm_v5,2020.2.10,MacIntel,60,61025ae37ef11b136ea224fe,,,,,,,,,4313,76.47674561,30.91900635,1,0,0,response1disk,,6,-1.398254395,13.57061768,1,0,0,rectangle,-1.398254395,13.57061768,1,0,0,-1.398254395,13.57061768,1,0,0,0,113,113,62,1,,,,,,,,
,,,,,,,,,,,,,FF,,,,,,,,0.68361,,,,,,,,,,,,,,,,,,,,,,60ff2b522b3a8ba205a30f1c,61036e6cd7f05ec17b7b7790,2021-07-29_23h14.55.819,Simcolourproject_2stim_asymm_v5,2020.2.10,MacIntel,60,61025ae37ef11b136ea224fe,,,,,,,,,3044,16.35638428,85.45675659,1,0,0,response1disk,,7,-1.94921875,-0.039550781,1,0,0,rectangle,-1.94921875,-0.039550781,1,0,0,-1.94921875,-0.039550781,1,0,0,0,114,114,1,1,,,,,,,,
,,,,,,,,,,,,,FF,,,,,,,,0.9839,,,,,,,,,,,,,,,,,,,,,,60ff2b522b3a8ba205a30f1c,61036e6cd7f05ec17b7b7790,2021-07-29_23h14.55.819,Simcolourproject_2stim_asymm_v5,2020.2.10,MacIntel,60,61025ae37ef11b136ea224fe,,,,,,,,,3911,-40.23803711,-91.52874756,1,0,0,response5disk,,3,-6.866455078,-5.824462891,1,0,0,rectangle,-6.866455078,-5.824462891,1,0,0,-6.866455078,-5.824462891,1,0,0,0,115,115,129,1,,,,,,,,
,,,,,,,,,,,,,FF,,,,,,,,0.617525,,,,,,,,,,,,,,,,,,,,,,60ff2b522b3a8ba205a30f1c,61036e6cd7f05ec17b7b7790,2021-07-29_23h14.55.819,Simcolourproject_2stim_asymm_v5,2020.2.10,MacIntel,60,61025ae37ef11b136ea224fe,,,,,,,,,3943,-68.90246582,-52.93286133,1,0,0,response5disk,,2,-7.712524414,-11.34173584,1,0,0,rectangle,-7.712524414,-11.34173584,1,0,0,-7.712524414,-11.34173584,1,0,0,0,116,116,130,1,,,,,,,,
,,,,,,,,,,,,,FF,,,,,,,,0.633605,,,,,,,,,,,,,,,,,,,,,,60ff2b522b3a8ba205a30f1c,61036e6cd7f05ec17b7b7790,2021-07-29_23h14.55.819,Simcolourproject_2stim_asymm_v5,2020.2.10,MacIntel,60,61025ae37ef11b136ea224fe,,,,,,,,,3842,64.4161377,-24.21487427,1,0,0,response3disk,,5,2.160888672,-8.656311035,1,0,0,rectangle,2.160888672,-8.656311035,1,0,0,2.160888672,-8.656311035,1,0,0,0,117,117,48,1,,,,,,,,
,,,,,,,,,,,,,FF,,,,,,,,0.83337,,,,,,,,,,,,,,,,,,,,,,60ff2b522b3a8ba205a30f1c,61036e6cd7f05ec17b7b7790,2021-07-29_23h14.55.819,Simcolourproject_2stim_asymm_v5,2020.2.10,MacIntel,60,61025ae37ef11b136ea224fe,,,,,,,,,86,60.24279785,87.17538452,1,0,0,response1disk,,7,5.125,7.872558594,1,0,0,rectangle,5.125,7.872558594,1,0,0,5.125,7.872558594,1,0,0,0,118,118,133,1,,,,,,,,
,,,,,,,,,,,,,FF,,,,,,,,1.183235,,,,,,,,,,,,,,,,,,,,,,60ff2b522b3a8ba205a30f1c,61036e6cd7f05ec17b7b7790,2021-07-29_23h14.55.819,Simcolourproject_2stim_asymm_v5,2020.2.10,MacIntel,60,61025ae37ef11b136ea224fe,,,,,,,,,425,60.26116943,-30.87298584,1,0,0,response3disk,,5,10.34564209,-6.83972168,1,0,0,rectangle,10.34564209,-6.83972168,1,0,0,10.34564209,-6.83972168,1,0,0,0,119,119,159,1,,,,,,,,
,,,,,,,,,,,,,FF,,,,,,,,0.89953,,,,,,,,,,,,,,,,,,,,,,60ff2b522b3a8ba205a30f1c,61036e6cd7f05ec17b7b7790,2021-07-29_23h14.55.819,Simcolourproject_2stim_asymm_v5,2020.2.10,MacIntel,60,61025ae37ef11b136ea224fe,,,,,,,,,1660,82.88415527,40.86364746,1,0,0,response1disk,,6,22.85449219,6.943054199,1,0,0,rectangle,22.85449219,6.943054199,1,0,0,22.85449219,6.943054199,1,0,0,0,120,120,25,1,,,,,,,,
,,,,,,,,,,,,,FF,,,,,,,,0.816385,,,,,,,,,,,,,,,,,,,,,,60ff2b522b3a8ba205a30f1c,61036e6cd7f05ec17b7b7790,2021-07-29_23h14.55.819,Simcolourproject_2stim_asymm_v5,2020.2.10,MacIntel,60,61025ae37ef11b136ea224fe,,,,,,,,,4128,-54.90429688,-77.8717041,1,0,0,response5disk,,3,-9.790527344,-4.203338623,1,0,0,rectangle,-9.790527344,-4.203338623,1,0,0,-9.790527344,-4.203338623,1,0,0,0,121,121,53,1,,,,,,,,
,,,,,,,,,,,,,FF,,,,,,,,0.550505,,,,,,,,,,,,,,,,,,,,,,60ff2b522b3a8ba205a30f1c,61036e6cd7f05ec17b7b7790,2021-07-29_23h14.55.819,Simcolourproject_2stim_asymm_v5,2020.2.10,MacIntel,60,61025ae37ef11b136ea224fe,,,,,,,,,2010,64.66925049,-31.57235718,1,0,0,response3disk,,5,3.077880859,-1.839782715,1,0,0,rectangle,3.077880859,-1.839782715,1,0,0,3.077880859,-1.839782715,1,0,0,0,122,122,111,1,,,,,,,,
,,,,,,,,,,,,,FF,,,,,,,,0.933405,,,,,,,,,,,,,,,,,,,,,,60ff2b522b3a8ba205a30f1c,61036e6cd7f05ec17b7b7790,2021-07-29_23h14.55.819,Simcolourproject_2stim_asymm_v5,2020.2.10,MacIntel,60,61025ae37ef11b136ea224fe,,,,,,,,,1302,22.38458252,-77.34173584,1,0,0,response3disk,,4,-7.87298584,1.028503418,1,0,0,rectangle,-7.87298584,1.028503418,1,0,0,-7.87298584,1.028503418,1,0,0,0,123,123,109,1,,,,,,,,
,,,,,,,,,,,,,FF,,,,,,,,0.848585,,,,,,,,,,,,,,,,,,,,,,60ff2b522b3a8ba205a30f1c,61036e6cd7f05ec17b7b7790,2021-07-29_23h14.55.819,Simcolourproject_2stim_asymm_v5,2020.2.10,MacIntel,60,61025ae37ef11b136ea224fe,,,,,,,,,1263,98.26989746,48.98059082,1,0,0,response1disk,,6,-0.339477539,-13.76068115,1,0,0,rectangle,-0.339477539,-13.76068115,1,0,0,-0.339477539,-13.76068115,1,0,0,0,124,124,44,1,,,,,,,,
,,,,,,,,,,,,,FF,,,,,,,,0.65077,,,,,,,,,,,,,,,,,,,,,,60ff2b522b3a8ba205a30f1c,61036e6cd7f05ec17b7b7790,2021-07-29_23h14.55.819,Simcolourproject_2stim_asymm_v5,2020.2.10,MacIntel,60,61025ae37ef11b136ea224fe,,,,,,,,,2302,-32.36816406,-55.60900879,1,0,0,response5disk,,3,-28.2444458,16.4772644,1,0,0,rectangle,-28.2444458,16.4772644,1,0,0,-28.2444458,16.4772644,1,0,0,0,125,125,149,1,,,,,,,,
,,,,,,,,,,,,,FF,,,,,,,,0.600995,,,,,,,,,,,,,,,,,,,,,,60ff2b522b3a8ba205a30f1c,61036e6cd7f05ec17b7b7790,2021-07-29_23h14.55.819,Simcolourproject_2stim_asymm_v5,2020.2.10,MacIntel,60,61025ae37ef11b136ea224fe,,,,,,,,,2406,56.17150879,-46.36224365,1,0,0,response3disk,,5,-0.739807129,-12.43069458,1,0,0,rectangle,-0.739807129,-12.43069458,1,0,0,-0.739807129,-12.43069458,1,0,0,0,126,126,35,1,,,,,,,,
,,,,,,,,,,,,,FF,,,,,,,,1.2677,,,,,,,,,,,,,,,,,,,,,,60ff2b522b3a8ba205a30f1c,61036e6cd7f05ec17b7b7790,2021-07-29_23h14.55.819,Simcolourproject_2stim_asymm_v5,2020.2.10,MacIntel,60,61025ae37ef11b136ea224fe,,,,,,,,,3983,-32.87207031,-77.2286377,1,0,0,response5disk,,3,-11.42773438,7.758972168,1,0,0,rectangle,-11.42773438,7.758972168,1,0,0,-11.42773438,7.758972168,1,0,0,0,127,127,19,1,,,,,,,,
,,,,,,,,,,,,,FF,,,,,,,,0.866355,,,,,,,,,,,,,,,,,,,,,,60ff2b522b3a8ba205a30f1c,61036e6cd7f05ec17b7b7790,2021-07-29_23h14.55.819,Simcolourproject_2stim_asymm_v5,2020.2.10,MacIntel,60,61025ae37ef11b136ea224fe,,,,,,,,,563,35.99383545,-94.96795654,1,0,0,response3disk,,4,13.81719971,-5.539337158,1,0,0,rectangle,13.81719971,-5.539337158,1,0,0,13.81719971,-5.539337158,1,0,0,0,128,128,7,1,,,,,,,,
,,,,,,,,,,,,,FF,,,,,,,,0.93403,,,,,,,,,,,,,,,,,,,,,,60ff2b522b3a8ba205a30f1c,61036e6cd7f05ec17b7b7790,2021-07-29_23h14.55.819,Simcolourproject_2stim_asymm_v5,2020.2.10,MacIntel,60,61025ae37ef11b136ea224fe,,,,,,,,,4354,68.3682251,-13.50759888,1,0,0,response3disk,,5,10.04486084,2.139801025,1,0,0,rectangle,10.04486084,2.139801025,1,0,0,10.04486084,2.139801025,1,0,0,0,129,129,76,1,,,,,,,,
,,,,,,,,,,,,,FF,,,,,,,,1.28382,,,,,,,,,,,,,,,,,,,,,,60ff2b522b3a8ba205a30f1c,61036e6cd7f05ec17b7b7790,2021-07-29_23h14.55.819,Simcolourproject_2stim_asymm_v5,2020.2.10,MacIntel,60,61025ae37ef11b136ea224fe,,,,,,,,,758,27.76904297,75.3861084,1,0,0,response1disk,,7,20.09136963,12.16693115,1,0,0,rectangle,20.09136963,12.16693115,1,0,0,20.09136963,12.16693115,1,0,0,0,130,130,104,1,,,,,,,,
,,,,,,,,,,,,,FF,,,,,,,,0.933165,,,,,,,,,,,,,,,,,,,,,,60ff2b522b3a8ba205a30f1c,61036e6cd7f05ec17b7b7790,2021-07-29_23h14.55.819,Simcolourproject_2stim_asymm_v5,2020.2.10,MacIntel,60,61025ae37ef11b136ea224fe,,,,,,,,,856,38.89074707,83.09848022,1,0,0,response1disk,,7,16.04681396,3.286865234,1,0,0,rectangle,16.04681396,3.286865234,1,0,0,16.04681396,3.286865234,1,0,0,0,131,131,4,1,,,,,,,,
,,,,,,,,,,,,,FF,,,,,,,,0.88344,,,,,,,,,,,,,,,,,,,,,,60ff2b522b3a8ba205a30f1c,61036e6cd7f05ec17b7b7790,2021-07-29_23h14.55.819,Simcolourproject_2stim_asymm_v5,2020.2.10,MacIntel,60,61025ae37ef11b136ea224fe,,,,,,,,,3117,48.55419922,74.56536865,1,0,0,response1disk,,7,17.35461426,6.632019043,1,0,0,rectangle,17.35461426,6.632019043,1,0,0,17.35461426,6.632019043,1,0,0,0,132,132,87,1,,,,,,,,
,,,,,,,,,,,,,FF,,,,,,,,1.100205,,,,,,,,,,,,,,,,,,,,,,60ff2b522b3a8ba205a30f1c,61036e6cd7f05ec17b7b7790,2021-07-29_23h14.55.819,Simcolourproject_2stim_asymm_v5,2020.2.10,MacIntel,60,61025ae37ef11b136ea224fe,,,,,,,,,785,69.80474854,-38.2154541,1,0,0,response3disk,,5,11.75061035,-14.15228271,1,0,0,rectangle,11.75061035,-14.15228271,1,0,0,11.75061035,-14.15228271,1,0,0,0,133,133,12,1,,,,,,,,
,,,,,,,,,,,,,FF,,,,,,,,0.71686,,,,,,,,,,,,,,,,,,,,,,60ff2b522b3a8ba205a30f1c,61036e6cd7f05ec17b7b7790,2021-07-29_23h14.55.819,Simcolourproject_2stim_asymm_v5,2020.2.10,MacIntel,60,61025ae37ef11b136ea224fe,,,,,,,,,884,43.49957275,86.99728394,1,0,0,response1disk,,7,16.00244141,11.50921631,1,0,0,rectangle,16.00244141,11.50921631,1,0,0,16.00244141,11.50921631,1,0,0,0,134,134,42,1,,,,,,,,
,,,,,,,,,,,,,FF,,,,,,,,0.68324,,,,,,,,,,,,,,,,,,,,,,60ff2b522b3a8ba205a30f1c,61036e6cd7f05ec17b7b7790,2021-07-29_23h14.55.819,Simcolourproject_2stim_asymm_v5,2020.2.10,MacIntel,60,61025ae37ef11b136ea224fe,,,,,,,,,3288,61.52947998,19.00604248,1,0,0,response1disk,,6,2.758300781,-4.665405273,1,0,0,rectangle,2.758300781,-4.665405273,1,0,0,2.758300781,-4.665405273,1,0,0,0,135,135,142,1,,,,,,,,
,,,,,,,,,,,,,FF,,,,,,,,1.6989,,,,,,,,,,,,,,,,,,,,,,60ff2b522b3a8ba205a30f1c,61036e6cd7f05ec17b7b7790,2021-07-29_23h14.55.819,Simcolourproject_2stim_asymm_v5,2020.2.10,MacIntel,60,61025ae37ef11b136ea224fe,,,,,,,,,1682,-78.93615723,-34.98626709,1,0,0,response5disk,,2,-10.59552002,-1.450622559,1,0,0,rectangle,-10.59552002,-1.450622559,1,0,0,-10.59552002,-1.450622559,1,0,0,0,136,136,46,1,,,,,,,,
,,,,,,,,,,,,,FF,,,,,,,,0.66683,,,,,,,,,,,,,,,,,,,,,,60ff2b522b3a8ba205a30f1c,61036e6cd7f05ec17b7b7790,2021-07-29_23h14.55.819,Simcolourproject_2stim_asymm_v5,2020.2.10,MacIntel,60,61025ae37ef11b136ea224fe,,,,,,,,,1470,69.45373535,-22.38446045,1,0,0,response3disk,,5,2.852416992,-1.64239502,1,0,0,rectangle,2.852416992,-1.64239502,1,0,0,2.852416992,-1.64239502,1,0,0,0,137,137,113,1,,,,,,,,
,,,,,,,,,,,,,FF,,,,,,,,0.699675,,,,,,,,,,,,,,,,,,,,,,60ff2b522b3a8ba205a30f1c,61036e6cd7f05ec17b7b7790,2021-07-29_23h14.55.819,Simcolourproject_2stim_asymm_v5,2020.2.10,MacIntel,60,61025ae37ef11b136ea224fe,,,,,,,,,2163,-21.98547363,-55.43447876,1,0,0,response5disk,,3,-3.729675293,-14.38751221,1,0,0,rectangle,-3.729675293,-14.38751221,1,0,0,-3.729675293,-14.38751221,1,0,0,0,138,138,99,1,,,,,,,,
,,,,,,,,,,,,,FF,,,,,,,,0.63328,,,,,,,,,,,,,,,,,,,,,,60ff2b522b3a8ba205a30f1c,61036e6cd7f05ec17b7b7790,2021-07-29_23h14.55.819,Simcolourproject_2stim_asymm_v5,2020.2.10,MacIntel,60,61025ae37ef11b136ea224fe,,,,,,,,,2134,63.10748291,-21.65734863,1,0,0,response3disk,,5,18.35418701,-5.063476563,1,0,0,rectangle,18.35418701,-5.063476563,1,0,0,18.35418701,-5.063476563,1,0,0,0,139,139,55,1,,,,,,,,
,,,,,,,,,,,,,FF,,,,,,,,1.06625,,,,,,,,,,,,,,,,,,,,,,60ff2b522b3a8ba205a30f1c,61036e6cd7f05ec17b7b7790,2021-07-29_23h14.55.819,Simcolourproject_2stim_asymm_v5,2020.2.10,MacIntel,60,61025ae37ef11b136ea224fe,,,,,,,,,1512,-93.11431885,-46.7088623,1,0,0,response5disk,,2,-27.83032227,-14.18658447,1,0,0,rectangle,-27.83032227,-14.18658447,1,0,0,-27.83032227,-14.18658447,1,0,0,0,140,140,68,1,,,,,,,,
,,,,,,,,,,,,,FF,,,,,,,,0.700825,,,,,,,,,,,,,,,,,,,,,,60ff2b522b3a8ba205a30f1c,61036e6cd7f05ec17b7b7790,2021-07-29_23h14.55.819,Simcolourproject_2stim_asymm_v5,2020.2.10,MacIntel,60,61025ae37ef11b136ea224fe,,,,,,,,,3959,76.33032227,50.58746338,1,0,0,response1disk,,6,2.844482422,10.21850586,1,0,0,rectangle,2.844482422,10.21850586,1,0,0,2.844482422,10.21850586,1,0,0,0,141,141,100,1,,,,,,,,
,,,,,,,,,,,,,FF,,,,,,,,0.683395,,,,,,,,,,,,,,,,,,,,,,60ff2b522b3a8ba205a30f1c,61036e6cd7f05ec17b7b7790,2021-07-29_23h14.55.819,Simcolourproject_2stim_asymm_v5,2020.2.10,MacIntel,60,61025ae37ef11b136ea224fe,,,,,,,,,2380,57.33026123,16.91949463,1,0,0,response1disk,,6,2.820922852,13.87527466,1,0,0,rectangle,2.820922852,13.87527466,1,0,0,2.820922852,13.87527466,1,0,0,0,142,142,38,1,,,,,,,,
,,,,,,,,,,,,,FF,,,,,,,,1.36643,,,,,,,,,,,,,,,,,,,,,,60ff2b522b3a8ba205a30f1c,61036e6cd7f05ec17b7b7790,2021-07-29_23h14.55.819,Simcolourproject_2stim_asymm_v5,2020.2.10,MacIntel,60,61025ae37ef11b136ea224fe,,,,,,,,,2717,23.14794922,-59.50585938,1,0,0,response3disk,,4,-4.248291016,-11.09881592,1,0,0,rectangle,-4.248291016,-11.09881592,1,0,0,-4.248291016,-11.09881592,1,0,0,0,143,143,36,1,,,,,,,,
,,,,,,,,,,,,,FF,,,,,,,,0.867645,,,,,,,,,,,,,,,,,,,,,,60ff2b522b3a8ba205a30f1c,61036e6cd7f05ec17b7b7790,2021-07-29_23h14.55.819,Simcolourproject_2stim_asymm_v5,2020.2.10,MacIntel,60,61025ae37ef11b136ea224fe,,,,,,,,,1799,95.24560547,50.61126709,1,0,0,response1disk,,6,6.308776855,7.082824707,1,0,0,rectangle,6.308776855,7.082824707,1,0,0,6.308776855,7.082824707,1,0,0,0,144,144,158,1,,,,,,,,
,,,,,,,,,,,,,FF,,,,,,,,0.749615,,,,,,,,,,,,,,,,,,,,,,60ff2b522b3a8ba205a30f1c,61036e6cd7f05ec17b7b7790,2021-07-29_23h14.55.819,Simcolourproject_2stim_asymm_v5,2020.2.10,MacIntel,60,61025ae37ef11b136ea224fe,,,,,,,,,2522,71.15991211,-55.6463623,1,0,0,response3disk,,5,8.429931641,-14.35955811,1,0,0,rectangle,8.429931641,-14.35955811,1,0,0,8.429931641,-14.35955811,1,0,0,0,145,145,79,1,,,,,,,,
,,,,,,,,,,,,,FF,,,,,,,,0.950495,,,,,,,,,,,,,,,,,,,,,,60ff2b522b3a8ba205a30f1c,61036e6cd7f05ec17b7b7790,2021-07-29_23h14.55.819,Simcolourproject_2stim_asymm_v5,2020.2.10,MacIntel,60,61025ae37ef11b136ea224fe,,,,,,,,,3828,13.88580322,-74.25421143,1,0,0,response3disk,,4,-0.263305664,1.848632813,1,0,0,rectangle,-0.263305664,1.848632813,1,0,0,-0.263305664,1.848632813,1,0,0,0,146,146,64,1,,,,,,,,
,,,,,,,,,,,,,FF,,,,,,,,0.832795,,,,,,,,,,,,,,,,,,,,,,60ff2b522b3a8ba205a30f1c,61036e6cd7f05ec17b7b7790,2021-07-29_23h14.55.819,Simcolourproject_2stim_asymm_v5,2020.2.10,MacIntel,60,61025ae37ef11b136ea224fe,,,,,,,,,808,-55.99145508,-49.57122803,1,0,0,response5disk,,2,-8.189575195,2.46673584,1,0,0,rectangle,-8.189575195,2.46673584,1,0,0,-8.189575195,2.46673584,1,0,0,0,147,147,105,1,,,,,,,,
,,,,,,,,,,,,,FF,,,,,,,,0.683195,,,,,,,,,,,,,,,,,,,,,,60ff2b522b3a8ba205a30f1c,61036e6cd7f05ec17b7b7790,2021-07-29_23h14.55.819,Simcolourproject_2stim_asymm_v5,2020.2.10,MacIntel,60,61025ae37ef11b136ea224fe,,,,,,,,,3676,-69.19946289,19.52688599,1,0,0,response7disk,,1,-7.748901367,10.09130859,1,0,0,rectangle,-7.748901367,10.09130859,1,0,0,-7.748901367,10.09130859,1,0,0,0,148,148,145,1,,,,,,,,
,,,,,,,,,,,,,FF,,,,,,,,0.78409,,,,,,,,,,,,,,,,,,,,,,60ff2b522b3a8ba205a30f1c,61036e6cd7f05ec17b7b7790,2021-07-29_23h14.55.819,Simcolourproject_2stim_asymm_v5,2020.2.10,MacIntel,60,61025ae37ef11b136ea224fe,,,,,,,,,2725,-82.23980713,-47.87799072,1,0,0,response5disk,,2,-20.62774658,7.058502197,1,0,0,rectangle,-20.62774658,7.058502197,1,0,0,-20.62774658,7.058502197,1,0,0,0,149,149,75,1,,,,,,,,
,,,,,,,,,,,,,FF,,,,,,,,0.76647,,,,,,,,,,,,,,,,,,,,,,60ff2b522b3a8ba205a30f1c,61036e6cd7f05ec17b7b7790,2021-07-29_23h14.55.819,Simcolourproject_2stim_asymm_v5,2020.2.10,MacIntel,60,61025ae37ef11b136ea224fe,,,,,,,,,4281,-71.6651001,37.60388184,1,0,0,response7disk,,1,-4.069580078,1.803771973,1,0,0,rectangle,-4.069580078,1.803771973,1,0,0,-4.069580078,1.803771973,1,0,0,0,150,150,5,1,,,,,,,,
,,,,,,,,,,,,,FF,,,,,,,,1.28267,,,,,,,,,,,,,,,,,,,,,,60ff2b522b3a8ba205a30f1c,61036e6cd7f05ec17b7b7790,2021-07-29_23h14.55.819,Simcolourproject_2stim_asymm_v5,2020.2.10,MacIntel,60,61025ae37ef11b136ea224fe,,,,,,,,,1437,81.42053223,-39.61752319,1,0,0,response3disk,,5,10.362854,-12.8961792,1,0,0,rectangle,-38.98370361,-76.40472412,1,0,0,-10.23352051,-12.06988525,1,0,0,0,151,151,101,1,,response5disk_3,TRUE,3,3,"[211,31,266,174,244,205,94,67,216,152,169,268,199,73,320,222,295,68,83,72]",1.482375,rectangle
,,,,,,,,,,,,,FF,,,,,,,,0.75013,,,,,,,,,,,,,,,,,,,,,,60ff2b522b3a8ba205a30f1c,61036e6cd7f05ec17b7b7790,2021-07-29_23h14.55.819,Simcolourproject_2stim_asymm_v5,2020.2.10,MacIntel,60,61025ae37ef11b136ea224fe,,,,,,,,,2634,69.59423828,31.25628662,1,0,0,response1disk,,6,9.512390137,-9.236633301,1,0,0,rectangle,9.512390137,-9.236633301,1,0,0,9.512390137,-9.236633301,1,0,0,0,152,152,108,1,,,,,,,,
,,,,,,,,,,,,,FF,,,,,,,,0.782005,,,,,,,,,,,,,,,,,,,,,,60ff2b522b3a8ba205a30f1c,61036e6cd7f05ec17b7b7790,2021-07-29_23h14.55.819,Simcolourproject_2stim_asymm_v5,2020.2.10,MacIntel,60,61025ae37ef11b136ea224fe,,,,,,,,,3850,-75.7678833,-26.64456177,1,0,0,response5disk,,2,-2.785522461,10.50744629,1,0,0,rectangle,-2.785522461,10.50744629,1,0,0,-2.785522461,10.50744629,1,0,0,0,153,153,144,1,,,,,,,,
,,,,,,,,,,,,,FF,,,,,,,,0.682955,,,,,,,,,,,,,,,,,,,,,,60ff2b522b3a8ba205a30f1c,61036e6cd7f05ec17b7b7790,2021-07-29_23h14.55.819,Simcolourproject_2stim_asymm_v5,2020.2.10,MacIntel,60,61025ae37ef11b136ea224fe,,,,,,,,,2541,-32.00915527,57.32208252,1,0,0,response7disk,,0,-11.86773682,3.833862305,1,0,0,rectangle,-11.86773682,3.833862305,1,0,0,-11.86773682,3.833862305,1,0,0,0,154,154,56,1,,,,,,,,
,,,,,,,,,,,,,FF,,,,,,,,1.18311,,,,,,,,,,,,,,,,,,,,,,60ff2b522b3a8ba205a30f1c,61036e6cd7f05ec17b7b7790,2021-07-29_23h14.55.819,Simcolourproject_2stim_asymm_v5,2020.2.10,MacIntel,60,61025ae37ef11b136ea224fe,,,,,,,,,2157,64.61773682,32.15118408,1,0,0,response1disk,,6,3.184204102,-1.168151855,1,0,0,rectangle,3.184204102,-1.168151855,1,0,0,3.184204102,-1.168151855,1,0,0,0,155,155,141,1,,,,,,,,
,,,,,,,,,,,,,FF,,,,,,,,0.766505,,,,,,,,,,,,,,,,,,,,,,60ff2b522b3a8ba205a30f1c,61036e6cd7f05ec17b7b7790,2021-07-29_23h14.55.819,Simcolourproject_2stim_asymm_v5,2020.2.10,MacIntel,60,61025ae37ef11b136ea224fe,,,,,,,,,3965,-63.89581299,82.53527832,1,0,0,response7disk,,0,-11.0357666,13.41741943,1,0,0,rectangle,-11.0357666,13.41741943,1,0,0,-11.0357666,13.41741943,1,0,0,0,156,156,156,1,,,,,,,,
,,,,,,,,,,,,,FF,,,,,,,,0.68332,,,,,,,,,,,,,,,,,,,,,,60ff2b522b3a8ba205a30f1c,61036e6cd7f05ec17b7b7790,2021-07-29_23h14.55.819,Simcolourproject_2stim_asymm_v5,2020.2.10,MacIntel,60,61025ae37ef11b136ea224fe,,,,,,,,,217,76.43322754,34.04998779,1,0,0,response1disk,,6,18.28735352,3.74029541,1,0,0,rectangle,18.28735352,3.74029541,1,0,0,18.28735352,3.74029541,1,0,0,0,157,157,71,1,,,,,,,,
,,,,,,,,,,,,,FF,,,,,,,,0.90009,,,,,,,,,,,,,,,,,,,,,,60ff2b522b3a8ba205a30f1c,61036e6cd7f05ec17b7b7790,2021-07-29_23h14.55.819,Simcolourproject_2stim_asymm_v5,2020.2.10,MacIntel,60,61025ae37ef11b136ea224fe,,,,,,,,,254,-69.72741699,-57.53955078,1,0,0,response5disk,,2,-15.86535645,-8.190307617,1,0,0,rectangle,-15.86535645,-8.190307617,1,0,0,-15.86535645,-8.190307617,1,0,0,0,158,158,63,1,,,,,,,,
,,,,,,,,,,,,,FF,,,,,,,,0.58362,,,,,,,,,,,,,,,,,,,,,,60ff2b522b3a8ba205a30f1c,61036e6cd7f05ec17b7b7790,2021-07-29_23h14.55.819,Simcolourproject_2stim_asymm_v5,2020.2.10,MacIntel,60,61025ae37ef11b136ea224fe,,,,,,,,,3449,79.29949951,-39.7270813,1,0,0,response3disk,,5,4.809204102,-15.69360352,1,0,0,rectangle,4.809204102,-15.69360352,1,0,0,4.809204102,-15.69360352,1,0,0,0,159,159,21,1,,,,,,,,
,,,,,,,,,,,,,FF,,,,,,,,0.667075,,,,,,,,,,,,,,,,,,,,,,60ff2b522b3a8ba205a30f1c,61036e6cd7f05ec17b7b7790,2021-07-29_23h14.55.819,Simcolourproject_2stim_asymm_v5,2020.2.10,MacIntel,60,61025ae37ef11b136ea224fe,,,,,,,,,3268,50.92700195,-41.12661743,1,0,0,response3disk,,5,-0.827209473,3.775390625,1,0,0,rectangle,-0.827209473,3.775390625,1,0,0,-0.827209473,3.775390625,1,0,0,1,0,160,55,1,,,,,,,,
,,,,,,,,,,,,,FF,,,,,,,,0.71612,,,,,,,,,,,,,,,,,,,,,,60ff2b522b3a8ba205a30f1c,61036e6cd7f05ec17b7b7790,2021-07-29_23h14.55.819,Simcolourproject_2stim_asymm_v5,2020.2.10,MacIntel,60,61025ae37ef11b136ea224fe,,,,,,,,,3956,48.95239258,82.47348022,1,0,0,response1disk,,7,9.185668945,-15.6227417,1,0,0,rectangle,9.185668945,-15.6227417,1,0,0,9.185668945,-15.6227417,1,0,0,1,1,161,153,1,,,,,,,,
,,,,,,,,,,,,,FF,,,,,,,,1.233285,,,,,,,,,,,,,,,,,,,,,,60ff2b522b3a8ba205a30f1c,61036e6cd7f05ec17b7b7790,2021-07-29_23h14.55.819,Simcolourproject_2stim_asymm_v5,2020.2.10,MacIntel,60,61025ae37ef11b136ea224fe,,,,,,,,,3714,-77.94940186,28.93728638,1,0,0,response7disk,,1,-19.41162109,12.83673096,1,0,0,rectangle,-19.41162109,12.83673096,1,0,0,-19.41162109,12.83673096,1,0,0,1,2,162,52,1,,,,,,,,
,,,,,,,,,,,,,FF,,,,,,,,0.88333,,,,,,,,,,,,,,,,,,,,,,60ff2b522b3a8ba205a30f1c,61036e6cd7f05ec17b7b7790,2021-07-29_23h14.55.819,Simcolourproject_2stim_asymm_v5,2020.2.10,MacIntel,60,61025ae37ef11b136ea224fe,,,,,,,,,63,31.67810059,-37.67263794,1,0,0,response3disk,,4,13.12213135,-13.65368652,1,0,0,rectangle,13.12213135,-13.65368652,1,0,0,13.12213135,-13.65368652,1,0,0,1,3,163,143,1,,,,,,,,
,,,,,,,,,,,,,FF,,,,,,,,0.68165,,,,,,,,,,,,,,,,,,,,,,60ff2b522b3a8ba205a30f1c,61036e6cd7f05ec17b7b7790,2021-07-29_23h14.55.819,Simcolourproject_2stim_asymm_v5,2020.2.10,MacIntel,60,61025ae37ef11b136ea224fe,,,,,,,,,4111,57.19720459,-22.87286377,1,0,0,response3disk,,5,17.95941162,7.633911133,1,0,0,rectangle,17.95941162,7.633911133,1,0,0,17.95941162,7.633911133,1,0,0,1,4,164,144,1,,,,,,,,
,,,,,,,,,,,,,FF,,,,,,,,0.748255,,,,,,,,,,,,,,,,,,,,,,60ff2b522b3a8ba205a30f1c,61036e6cd7f05ec17b7b7790,2021-07-29_23h14.55.819,Simcolourproject_2stim_asymm_v5,2020.2.10,MacIntel,60,61025ae37ef11b136ea224fe,,,,,,,,,3899,-55.87567139,-82.96307373,1,0,0,response5disk,,3,-16.55444336,-16.41668701,1,0,0,rectangle,-16.55444336,-16.41668701,1,0,0,-16.55444336,-16.41668701,1,0,0,1,5,165,86,1,,,,,,,,
,,,,,,,,,,,,,FF,,,,,,,,0.74974,,,,,,,,,,,,,,,,,,,,,,60ff2b522b3a8ba205a30f1c,61036e6cd7f05ec17b7b7790,2021-07-29_23h14.55.819,Simcolourproject_2stim_asymm_v5,2020.2.10,MacIntel,60,61025ae37ef11b136ea224fe,,,,,,,,,3469,-70.24926758,35.46765137,1,0,0,response7disk,,1,-7.171691895,8.446685791,1,0,0,rectangle,-7.171691895,8.446685791,1,0,0,-7.171691895,8.446685791,1,0,0,1,6,166,123,1,,,,,,,,
,,,,,,,,,,,,,FF,,,,,,,,0.69994,,,,,,,,,,,,,,,,,,,,,,60ff2b522b3a8ba205a30f1c,61036e6cd7f05ec17b7b7790,2021-07-29_23h14.55.819,Simcolourproject_2stim_asymm_v5,2020.2.10,MacIntel,60,61025ae37ef11b136ea224fe,,,,,,,,,1756,-85.86834717,-40.27151489,1,0,0,response5disk,,2,-21.24493408,-12.32489014,1,0,0,rectangle,-21.24493408,-12.32489014,1,0,0,-21.24493408,-12.32489014,1,0,0,1,7,167,33,1,,,,,,,,
,,,,,,,,,,,,,FF,,,,,,,,0.783365,,,,,,,,,,,,,,,,,,,,,,60ff2b522b3a8ba205a30f1c,61036e6cd7f05ec17b7b7790,2021-07-29_23h14.55.819,Simcolourproject_2stim_asymm_v5,2020.2.10,MacIntel,60,61025ae37ef11b136ea224fe,,,,,,,,,3162,-77.4642334,-40.71127319,1,0,0,response5disk,,2,2.28503418,-7.866638184,1,0,0,rectangle,37.31842041,80.25695801,1,0,0,-0.429443359,0.264801025,1,0,0,1,8,168,36,1,,response1disk_3,TRUE,7,7,"[211,31,266,174,244,205,94,67,216,152,169,268,199,73,320,222,295,68,83,72]",1.35003,rectangle
,,,,,,,,,,,,,FF,,,,,,,,1.183095,,,,,,,,,,,,,,,,,,,,,,60ff2b522b3a8ba205a30f1c,61036e6cd7f05ec17b7b7790,2021-07-29_23h14.55.819,Simcolourproject_2stim_asymm_v5,2020.2.10,MacIntel,60,61025ae37ef11b136ea224fe,,,,,,,,,3328,88.24945068,51.08059692,1,0,0,response1disk,,6,2.830688477,3.542175293,1,0,0,rectangle,2.830688477,3.542175293,1,0,0,2.830688477,3.542175293,1,0,0,1,9,169,107,1,,,,,,,,
,,,,,,,,,,,,,FF,,,,,,,,0.749895,,,,,,,,,,,,,,,,,,,,,,60ff2b522b3a8ba205a30f1c,61036e6cd7f05ec17b7b7790,2021-07-29_23h14.55.819,Simcolourproject_2stim_asymm_v5,2020.2.10,MacIntel,60,61025ae37ef11b136ea224fe,,,,,,,,,32,44.24517822,-42.17733765,1,0,0,response3disk,,5,2.676696777,-7.356445313,1,0,0,rectangle,2.676696777,-7.356445313,1,0,0,2.676696777,-7.356445313,1,0,0,1,10,170,14,1,,,,,,,,
,,,,,,,,,,,,,FF,,,,,,,,0.665965,,,,,,,,,,,,,,,,,,,,,,60ff2b522b3a8ba205a30f1c,61036e6cd7f05ec17b7b7790,2021-07-29_23h14.55.819,Simcolourproject_2stim_asymm_v5,2020.2.10,MacIntel,60,61025ae37ef11b136ea224fe,,,,,,,,,1248,56.36212158,-26.91223145,1,0,0,response3disk,,5,16.47674561,1.456481934,1,0,0,rectangle,16.47674561,1.456481934,1,0,0,16.47674561,1.456481934,1,0,0,1,11,171,3,1,,,,,,,,
,,,,,,,,,,,,,FF,,,,,,,,0.80061,,,,,,,,,,,,,,,,,,,,,,60ff2b522b3a8ba205a30f1c,61036e6cd7f05ec17b7b7790,2021-07-29_23h14.55.819,Simcolourproject_2stim_asymm_v5,2020.2.10,MacIntel,60,61025ae37ef11b136ea224fe,,,,,,,,,3007,-41.15704346,-81.25146484,1,0,0,response5disk,,3,-5.879272461,-14.83325195,1,0,0,rectangle,-5.879272461,-14.83325195,1,0,0,-5.879272461,-14.83325195,1,0,0,1,12,172,129,1,,,,,,,,
,,,,,,,,,,,,,FF,,,,,,,,0.98319,,,,,,,,,,,,,,,,,,,,,,60ff2b522b3a8ba205a30f1c,61036e6cd7f05ec17b7b7790,2021-07-29_23h14.55.819,Simcolourproject_2stim_asymm_v5,2020.2.10,MacIntel,60,61025ae37ef11b136ea224fe,,,,,,,,,3686,57.40985107,-46.25427246,1,0,0,response3disk,,5,-2.516540527,-10.97363281,1,0,0,rectangle,-67.328125,54.80834961,1,0,0,-18.94512939,6.315734863,1,0,0,1,13,173,50,1,,response7disk_3,TRUE,1,1,"[211,31,266,174,244,205,94,67,216,152,169,268,199,73,320,222,295,68,83,72]",1.316105,rectangle
,,,,,,,,,,,,,FF,,,,,,,,0.73397,,,,,,,,,,,,,,,,,,,,,,60ff2b522b3a8ba205a30f1c,61036e6cd7f05ec17b7b7790,2021-07-29_23h14.55.819,Simcolourproject_2stim_asymm_v5,2020.2.10,MacIntel,60,61025ae37ef11b136ea224fe,,,,,,,,,1802,60.44134521,19.10888672,1,0,0,response1disk,,6,-4.681274414,-0.711791992,1,0,0,rectangle,-4.681274414,-0.711791992,1,0,0,-4.681274414,-0.711791992,1,0,0,1,14,174,65,1,,,,,,,,
,,,,,,,,,,,,,FF,,,,,,,,0.916875,,,,,,,,,,,,,,,,,,,,,,60ff2b522b3a8ba205a30f1c,61036e6cd7f05ec17b7b7790,2021-07-29_23h14.55.819,Simcolourproject_2stim_asymm_v5,2020.2.10,MacIntel,60,61025ae37ef11b136ea224fe,,,,,,,,,4319,60.72851563,20.81503296,1,0,0,response1disk,,6,17.73736572,13.43844604,1,0,0,rectangle,17.73736572,13.43844604,1,0,0,17.73736572,13.43844604,1,0,0,1,15,175,155,1,,,,,,,,
,,,,,,,,,,,,,FF,,,,,,,,0.8163,,,,,,,,,,,,,,,,,,,,,,60ff2b522b3a8ba205a30f1c,61036e6cd7f05ec17b7b7790,2021-07-29_23h14.55.819,Simcolourproject_2stim_asymm_v5,2020.2.10,MacIntel,60,61025ae37ef11b136ea224fe,,,,,,,,,329,61.4564209,40.51824951,1,0,0,response1disk,,6,9.660522461,6.528625488,1,0,0,rectangle,9.660522461,6.528625488,1,0,0,9.660522461,6.528625488,1,0,0,1,16,176,133,1,,,,,,,,
,,,,,,,,,,,,,FF,,,,,,,,0.55466,,,,,,,,,,,,,,,,,,,,,,60ff2b522b3a8ba205a30f1c,61036e6cd7f05ec17b7b7790,2021-07-29_23h14.55.819,Simcolourproject_2stim_asymm_v5,2020.2.10,MacIntel,60,61025ae37ef11b136ea224fe,,,,,,,,,2977,61.75836182,17.6703186,1,0,0,response1disk,,6,-19.82495117,2.112121582,1,0,0,rectangle,-19.82495117,2.112121582,1,0,0,-19.82495117,2.112121582,1,0,0,1,17,177,35,1,,,,,,,,
,,,,,,,,,,,,,FF,,,,,,,,0.900495,,,,,,,,,,,,,,,,,,,,,,60ff2b522b3a8ba205a30f1c,61036e6cd7f05ec17b7b7790,2021-07-29_23h14.55.819,Simcolourproject_2stim_asymm_v5,2020.2.10,MacIntel,60,61025ae37ef11b136ea224fe,,,,,,,,,2384,63.17260742,41.89904785,1,0,0,response1disk,,6,15.40802002,6.582977295,1,0,0,rectangle,15.40802002,6.582977295,1,0,0,15.40802002,6.582977295,1,0,0,1,18,178,63,1,,,,,,,,
,,,,,,,,,,,,,FF,,,,,,,,0.567485,,,,,,,,,,,,,,,,,,,,,,60ff2b522b3a8ba205a30f1c,61036e6cd7f05ec17b7b7790,2021-07-29_23h14.55.819,Simcolourproject_2stim_asymm_v5,2020.2.10,MacIntel,60,61025ae37ef11b136ea224fe,,,,,,,,,2967,44.24853516,16.83526611,1,0,0,response1disk,,6,3.378662109,1.610717773,1,0,0,rectangle,3.378662109,1.610717773,1,0,0,3.378662109,1.610717773,1,0,0,1,19,179,115,1,,,,,,,,
,,,,,,,,,,,,,FF,,,,,,,,0.85004,,,,,,,,,,,,,,,,,,,,,,60ff2b522b3a8ba205a30f1c,61036e6cd7f05ec17b7b7790,2021-07-29_23h14.55.819,Simcolourproject_2stim_asymm_v5,2020.2.10,MacIntel,60,61025ae37ef11b136ea224fe,,,,,,,,,1383,-62.03637695,-80.77130127,1,0,0,response5disk,,3,-19.24475098,5.316345215,1,0,0,rectangle,-19.24475098,5.316345215,1,0,0,-19.24475098,5.316345215,1,0,0,1,20,180,62,1,,,,,,,,
,,,,,,,,,,,,,FF,,,,,,,,0.71524,,,,,,,,,,,,,,,,,,,,,,60ff2b522b3a8ba205a30f1c,61036e6cd7f05ec17b7b7790,2021-07-29_23h14.55.819,Simcolourproject_2stim_asymm_v5,2020.2.10,MacIntel,60,61025ae37ef11b136ea224fe,,,,,,,,,3472,-85.46716309,-49.13446045,1,0,0,response5disk,,2,-8.926513672,-2.345153809,1,0,0,rectangle,-8.926513672,-2.345153809,1,0,0,-8.926513672,-2.345153809,1,0,0,1,21,181,134,1,,,,,,,,
,,,,,,,,,,,,,FF,,,,,,,,0.66628,,,,,,,,,,,,,,,,,,,,,,60ff2b522b3a8ba205a30f1c,61036e6cd7f05ec17b7b7790,2021-07-29_23h14.55.819,Simcolourproject_2stim_asymm_v5,2020.2.10,MacIntel,60,61025ae37ef11b136ea224fe,,,,,,,,,399,75.42877197,-57.6206665,1,0,0,response3disk,,5,-0.669006348,-1.862976074,1,0,0,rectangle,-0.669006348,-1.862976074,1,0,0,-0.669006348,-1.862976074,1,0,0,1,22,182,90,1,,,,,,,,
,,,,,,,,,,,,,FF,,,,,,,,0.6833,,,,,,,,,,,,,,,,,,,,,,60ff2b522b3a8ba205a30f1c,61036e6cd7f05ec17b7b7790,2021-07-29_23h14.55.819,Simcolourproject_2stim_asymm_v5,2020.2.10,MacIntel,60,61025ae37ef11b136ea224fe,,,,,,,,,1208,72.30029297,-73.97607422,1,0,0,response3disk,,4,21.22357178,-13.08129883,1,0,0,rectangle,21.22357178,-13.08129883,1,0,0,21.22357178,-13.08129883,1,0,0,1,23,183,118,1,,,,,,,,
,,,,,,,,,,,,,FF,,,,,,,,0.68302,,,,,,,,,,,,,,,,,,,,,,60ff2b522b3a8ba205a30f1c,61036e6cd7f05ec17b7b7790,2021-07-29_23h14.55.819,Simcolourproject_2stim_asymm_v5,2020.2.10,MacIntel,60,61025ae37ef11b136ea224fe,,,,,,,,,681,50.7253418,-30.49560547,1,0,0,response3disk,,5,-10.25793457,-3.383117676,1,0,0,rectangle,-10.25793457,-3.383117676,1,0,0,-10.25793457,-3.383117676,1,0,0,1,24,184,58,1,,,,,,,,
,,,,,,,,,,,,,FF,,,,,,,,1.05008,,,,,,,,,,,,,,,,,,,,,,60ff2b522b3a8ba205a30f1c,61036e6cd7f05ec17b7b7790,2021-07-29_23h14.55.819,Simcolourproject_2stim_asymm_v5,2020.2.10,MacIntel,60,61025ae37ef11b136ea224fe,,,,,,,,,3901,-44.29876709,-88.47271729,1,0,0,response5disk,,3,-2.72869873,15.59194946,1,0,0,rectangle,-2.72869873,15.59194946,1,0,0,-2.72869873,15.59194946,1,0,0,1,25,185,57,1,,,,,,,,
,,,,,,,,,,,,,FF,,,,,,,,1.033025,,,,,,,,,,,,,,,,,,,,,,60ff2b522b3a8ba205a30f1c,61036e6cd7f05ec17b7b7790,2021-07-29_23h14.55.819,Simcolourproject_2stim_asymm_v5,2020.2.10,MacIntel,60,61025ae37ef11b136ea224fe,,,,,,,,,4273,83.83270264,-22.82830811,1,0,0,response3disk,,5,26.4130249,9.082458496,1,0,0,rectangle,26.4130249,9.082458496,1,0,0,26.4130249,9.082458496,1,0,0,1,26,186,100,1,,,,,,,,
,,,,,,,,,,,,,FF,,,,,,,,0.967455,,,,,,,,,,,,,,,,,,,,,,60ff2b522b3a8ba205a30f1c,61036e6cd7f05ec17b7b7790,2021-07-29_23h14.55.819,Simcolourproject_2stim_asymm_v5,2020.2.10,MacIntel,60,61025ae37ef11b136ea224fe,,,,,,,,,115,58.6449585,-27.58892822,1,0,0,response3disk,,5,8.227844238,16.75494385,1,0,0,rectangle,8.227844238,16.75494385,1,0,0,8.227844238,16.75494385,1,0,0,1,27,187,34,1,,,,,,,,
,,,,,,,,,,,,,FF,,,,,,,,0.6496,,,,,,,,,,,,,,,,,,,,,,60ff2b522b3a8ba205a30f1c,61036e6cd7f05ec17b7b7790,2021-07-29_23h14.55.819,Simcolourproject_2stim_asymm_v5,2020.2.10,MacIntel,60,61025ae37ef11b136ea224fe,,,,,,,,,947,63.9619751,-18.16766357,1,0,0,response3disk,,5,-19.53381348,2.956542969,1,0,0,rectangle,-19.53381348,2.956542969,1,0,0,-19.53381348,2.956542969,1,0,0,1,28,188,147,1,,,,,,,,
,,,,,,,,,,,,,FF,,,,,,,,1.000115,,,,,,,,,,,,,,,,,,,,,,60ff2b522b3a8ba205a30f1c,61036e6cd7f05ec17b7b7790,2021-07-29_23h14.55.819,Simcolourproject_2stim_asymm_v5,2020.2.10,MacIntel,60,61025ae37ef11b136ea224fe,,,,,,,,,1877,33.83166504,77.97232056,1,0,0,response1disk,,7,19.5020752,-3.467010498,1,0,0,rectangle,19.5020752,-3.467010498,1,0,0,19.5020752,-3.467010498,1,0,0,1,29,189,145,1,,,,,,,,
,,,,,,,,,,,,,FF,,,,,,,,0.94948,,,,,,,,,,,,,,,,,,,,,,60ff2b522b3a8ba205a30f1c,61036e6cd7f05ec17b7b7790,2021-07-29_23h14.55.819,Simcolourproject_2stim_asymm_v5,2020.2.10,MacIntel,60,61025ae37ef11b136ea224fe,,,,,,,,,974,-36.39031982,-68.309021,1,0,0,response5disk,,3,-3.693786621,-3.593231201,1,0,0,rectangle,-3.693786621,-3.593231201,1,0,0,-3.693786621,-3.593231201,1,0,0,1,30,190,42,1,,,,,,,,
,,,,,,,,,,,,,FF,,,,,,,,0.53438,,,,,,,,,,,,,,,,,,,,,,60ff2b522b3a8ba205a30f1c,61036e6cd7f05ec17b7b7790,2021-07-29_23h14.55.819,Simcolourproject_2stim_asymm_v5,2020.2.10,MacIntel,60,61025ae37ef11b136ea224fe,,,,,,,,,591,82.00256348,-37.02331543,1,0,0,response3disk,,5,17.57629395,6.018768311,1,0,0,rectangle,17.57629395,6.018768311,1,0,0,17.57629395,6.018768311,1,0,0,1,31,191,101,1,,,,,,,,
,,,,,,,,,,,,,FF,,,,,,,,0.63462,,,,,,,,,,,,,,,,,,,,,,60ff2b522b3a8ba205a30f1c,61036e6cd7f05ec17b7b7790,2021-07-29_23h14.55.819,Simcolourproject_2stim_asymm_v5,2020.2.10,MacIntel,60,61025ae37ef11b136ea224fe,,,,,,,,,1592,61.92633057,20.91879272,1,0,0,response1disk,,6,3.056274414,2.800231934,1,0,0,rectangle,3.056274414,2.800231934,1,0,0,3.056274414,2.800231934,1,0,0,1,32,192,70,1,,,,,,,,
,,,,,,,,,,,,,FF,,,,,,,,0.63364,,,,,,,,,,,,,,,,,,,,,,60ff2b522b3a8ba205a30f1c,61036e6cd7f05ec17b7b7790,2021-07-29_23h14.55.819,Simcolourproject_2stim_asymm_v5,2020.2.10,MacIntel,60,61025ae37ef11b136ea224fe,,,,,,,,,3567,84.16412354,40.62103271,1,0,0,response1disk,,6,20.60205078,17.3359375,1,0,0,rectangle,20.60205078,17.3359375,1,0,0,20.60205078,17.3359375,1,0,0,1,33,193,7,1,,,,,,,,
,,,,,,,,,,,,,FF,,,,,,,,0.567525,,,,,,,,,,,,,,,,,,,,,,60ff2b522b3a8ba205a30f1c,61036e6cd7f05ec17b7b7790,2021-07-29_23h14.55.819,Simcolourproject_2stim_asymm_v5,2020.2.10,MacIntel,60,61025ae37ef11b136ea224fe,,,,,,,,,1328,67.91845703,23.67059326,1,0,0,response1disk,,6,-2.856994629,0.574829102,1,0,0,rectangle,-2.856994629,0.574829102,1,0,0,-2.856994629,0.574829102,1,0,0,1,34,194,97,1,,,,,,,,
,,,,,,,,,,,,,FF,,,,,,,,0.700385,,,,,,,,,,,,,,,,,,,,,,60ff2b522b3a8ba205a30f1c,61036e6cd7f05ec17b7b7790,2021-07-29_23h14.55.819,Simcolourproject_2stim_asymm_v5,2020.2.10,MacIntel,60,61025ae37ef11b136ea224fe,,,,,,,,,3325,64.79595947,22.67785645,1,0,0,response1disk,,6,0.891723633,4.916381836,1,0,0,rectangle,0.891723633,4.916381836,1,0,0,0.891723633,4.916381836,1,0,0,1,35,195,116,1,,,,,,,,
,,,,,,,,,,,,,FF,,,,,,,,1.10013,,,,,,,,,,,,,,,,,,,,,,60ff2b522b3a8ba205a30f1c,61036e6cd7f05ec17b7b7790,2021-07-29_23h14.55.819,Simcolourproject_2stim_asymm_v5,2020.2.10,MacIntel,60,61025ae37ef11b136ea224fe,,,,,,,,,569,35.56408691,-64.71105957,1,0,0,response3disk,,4,11.949646,-0.940429688,1,0,0,rectangle,11.949646,-0.940429688,1,0,0,11.949646,-0.940429688,1,0,0,1,36,196,136,1,,,,,,,,
,,,,,,,,,,,,,FF,,,,,,,,0.649445,,,,,,,,,,,,,,,,,,,,,,60ff2b522b3a8ba205a30f1c,61036e6cd7f05ec17b7b7790,2021-07-29_23h14.55.819,Simcolourproject_2stim_asymm_v5,2020.2.10,MacIntel,60,61025ae37ef11b136ea224fe,,,,,,,,,1148,69.87774658,-39.37503052,1,0,0,response3disk,,5,5.223144531,11.91040039,1,0,0,rectangle,5.223144531,11.91040039,1,0,0,5.223144531,11.91040039,1,0,0,1,37,197,140,1,,,,,,,,
,,,,,,,,,,,,,FF,,,,,,,,0.766725,,,,,,,,,,,,,,,,,,,,,,60ff2b522b3a8ba205a30f1c,61036e6cd7f05ec17b7b7790,2021-07-29_23h14.55.819,Simcolourproject_2stim_asymm_v5,2020.2.10,MacIntel,60,61025ae37ef11b136ea224fe,,,,,,,,,211,72.08361816,-31.26098633,1,0,0,response3disk,,5,-7.237915039,4.792175293,1,0,0,rectangle,-68.81481934,45.29815674,1,0,0,-18.8270874,2.97467041,1,0,0,1,38,198,44,1,,response7disk_3,TRUE,1,1,"[211,31,266,174,244,205,94,67,216,152,169,268,199,73,320,222,295,68,83,72]",1.34967,rectangle
,,,,,,,,,,,,,FF,,,,,,,,0.683395,,,,,,,,,,,,,,,,,,,,,,60ff2b522b3a8ba205a30f1c,61036e6cd7f05ec17b7b7790,2021-07-29_23h14.55.819,Simcolourproject_2stim_asymm_v5,2020.2.10,MacIntel,60,61025ae37ef11b136ea224fe,,,,,,,,,3266,50.25164795,29.71563721,1,0,0,response1disk,,6,-3.384765625,6.104125977,1,0,0,rectangle,-3.384765625,6.104125977,1,0,0,-3.384765625,6.104125977,1,0,0,1,39,199,72,1,,,,,,,,
,,,,,,,,,,,,,FF,,,,,,,,1.649785,,,,,,,,,,,,,,,,,,,,,,60ff2b522b3a8ba205a30f1c,61036e6cd7f05ec17b7b7790,2021-07-29_23h14.55.819,Simcolourproject_2stim_asymm_v5,2020.2.10,MacIntel,60,61025ae37ef11b136ea224fe,,,,,,,,,3786,54.57885742,37.68505859,1,0,0,response1disk,,6,10.40148926,12.14459229,1,0,0,rectangle,10.40148926,12.14459229,1,0,0,10.40148926,12.14459229,1,0,0,1,40,200,141,1,,,,,,,,
,,,,,,,,,,,,,FF,,,,,,,,0.949985,,,,,,,,,,,,,,,,,,,,,,60ff2b522b3a8ba205a30f1c,61036e6cd7f05ec17b7b7790,2021-07-29_23h14.55.819,Simcolourproject_2stim_asymm_v5,2020.2.10,MacIntel,60,61025ae37ef11b136ea224fe,,,,,,,,,812,33.25091553,-73.30895996,1,0,0,response3disk,,4,0.816589355,2.990356445,1,0,0,rectangle,0.816589355,2.990356445,1,0,0,0.816589355,2.990356445,1,0,0,1,41,201,54,1,,,,,,,,
,,,,,,,,,,,,,FF,,,,,,,,0.58286,,,,,,,,,,,,,,,,,,,,,,60ff2b522b3a8ba205a30f1c,61036e6cd7f05ec17b7b7790,2021-07-29_23h14.55.819,Simcolourproject_2stim_asymm_v5,2020.2.10,MacIntel,60,61025ae37ef11b136ea224fe,,,,,,,,,2219,63.80657959,-28.97238159,1,0,0,response3disk,,5,-25.24633789,1.362243652,1,0,0,rectangle,-25.24633789,1.362243652,1,0,0,-25.24633789,1.362243652,1,0,0,1,42,202,83,1,,,,,,,,
,,,,,,,,,,,,,FF,,,,,,,,0.79885,,,,,,,,,,,,,,,,,,,,,,60ff2b522b3a8ba205a30f1c,61036e6cd7f05ec17b7b7790,2021-07-29_23h14.55.819,Simcolourproject_2stim_asymm_v5,2020.2.10,MacIntel,60,61025ae37ef11b136ea224fe,,,,,,,,,933,74.66552734,53.52874756,1,0,0,response1disk,,6,-4.936340332,-11.58111572,1,0,0,rectangle,-4.936340332,-11.58111572,1,0,0,-4.936340332,-11.58111572,1,0,0,1,43,203,152,1,,,,,,,,
,,,,,,,,,,,,,FF,,,,,,,,0.933875,,,,,,,,,,,,,,,,,,,,,,60ff2b522b3a8ba205a30f1c,61036e6cd7f05ec17b7b7790,2021-07-29_23h14.55.819,Simcolourproject_2stim_asymm_v5,2020.2.10,MacIntel,60,61025ae37ef11b136ea224fe,,,,,,,,,652,77.84014893,-21.5423584,1,0,0,response3disk,,5,17.45062256,-6.255310059,1,0,0,rectangle,29.74420166,-66.89782715,1,0,0,9.742126465,17.78753662,1,0,0,1,44,204,71,1,,response3disk_3,TRUE,4,4,"[211,31,266,174,244,205,94,67,216,152,169,268,199,73,320,222,295,68,83,72]",1.63379,rectangle
,,,,,,,,,,,,,FF,,,,,,,,0.817145,,,,,,,,,,,,,,,,,,,,,,60ff2b522b3a8ba205a30f1c,61036e6cd7f05ec17b7b7790,2021-07-29_23h14.55.819,Simcolourproject_2stim_asymm_v5,2020.2.10,MacIntel,60,61025ae37ef11b136ea224fe,,,,,,,,,448,54.82250977,-33.45825195,1,0,0,response3disk,,5,-5.177124023,-9.890930176,1,0,0,rectangle,-5.177124023,-9.890930176,1,0,0,-5.177124023,-9.890930176,1,0,0,1,45,205,0,1,,,,,,,,
,,,,,,,,,,,,,FF,,,,,,,,0.76638,,,,,,,,,,,,,,,,,,,,,,60ff2b522b3a8ba205a30f1c,61036e6cd7f05ec17b7b7790,2021-07-29_23h14.55.819,Simcolourproject_2stim_asymm_v5,2020.2.10,MacIntel,60,61025ae37ef11b136ea224fe,,,,,,,,,2170,-15.28997803,-57.13476563,1,0,0,response5disk,,3,-5.03503418,-15.03866577,1,0,0,rectangle,-5.03503418,-15.03866577,1,0,0,-5.03503418,-15.03866577,1,0,0,1,46,206,56,1,,,,,,,,
,,,,,,,,,,,,,FF,,,,,,,,0.949465,,,,,,,,,,,,,,,,,,,,,,60ff2b522b3a8ba205a30f1c,61036e6cd7f05ec17b7b7790,2021-07-29_23h14.55.819,Simcolourproject_2stim_asymm_v5,2020.2.10,MacIntel,60,61025ae37ef11b136ea224fe,,,,,,,,,2789,-80.58776855,-37.93722534,1,0,0,response5disk,,2,-4.096374512,0.323120117,1,0,0,rectangle,-4.096374512,0.323120117,1,0,0,-4.096374512,0.323120117,1,0,0,1,47,207,9,1,,,,,,,,
,,,,,,,,,,,,,FF,,,,,,,,1.084005,,,,,,,,,,,,,,,,,,,,,,60ff2b522b3a8ba205a30f1c,61036e6cd7f05ec17b7b7790,2021-07-29_23h14.55.819,Simcolourproject_2stim_asymm_v5,2020.2.10,MacIntel,60,61025ae37ef11b136ea224fe,,,,,,,,,1296,-73.34234619,-31.01733398,1,0,0,response5disk,,2,-11.21704102,0.035125732,1,0,0,rectangle,-11.21704102,0.035125732,1,0,0,-11.21704102,0.035125732,1,0,0,1,48,208,149,1,,,,,,,,
,,,,,,,,,,,,,FF,,,,,,,,0.63331,,,,,,,,,,,,,,,,,,,,,,60ff2b522b3a8ba205a30f1c,61036e6cd7f05ec17b7b7790,2021-07-29_23h14.55.819,Simcolourproject_2stim_asymm_v5,2020.2.10,MacIntel,60,61025ae37ef11b136ea224fe,,,,,,,,,4256,-36.42138672,-73.3805542,1,0,0,response5disk,,3,-33.68408203,6.845214844,1,0,0,rectangle,-33.68408203,6.845214844,1,0,0,-33.68408203,6.845214844,1,0,0,1,49,209,31,1,,,,,,,,
,,,,,,,,,,,,,FF,,,,,,,,0.63301,,,,,,,,,,,,,,,,,,,,,,60ff2b522b3a8ba205a30f1c,61036e6cd7f05ec17b7b7790,2021-07-29_23h14.55.819,Simcolourproject_2stim_asymm_v5,2020.2.10,MacIntel,60,61025ae37ef11b136ea224fe,,,,,,,,,1705,64.86706543,-49.3190918,1,0,0,response3disk,,5,-2.207214355,-0.295715332,1,0,0,rectangle,71.06066895,30.80157471,1,0,0,24.05987549,11.59365845,1,0,0,1,50,210,120,1,,response1disk_3,TRUE,6,6,"[211,31,266,174,244,205,94,67,216,152,169,268,199,73,320,222,295,68,83,72]",1.33284,rectangle
,,,,,,,,,,,,,FF,,,,,,,,0.732885,,,,,,,,,,,,,,,,,,,,,,60ff2b522b3a8ba205a30f1c,61036e6cd7f05ec17b7b7790,2021-07-29_23h14.55.819,Simcolourproject_2stim_asymm_v5,2020.2.10,MacIntel,60,61025ae37ef11b136ea224fe,,,,,,,,,1938,68.54858398,-30.07922363,1,0,0,response3disk,,5,7.746154785,-9.092895508,1,0,0,rectangle,7.746154785,-9.092895508,1,0,0,7.746154785,-9.092895508,1,0,0,1,51,211,151,1,,,,,,,,
,,,,,,,,,,,,,FF,,,,,,,,1.651,,,,,,,,,,,,,,,,,,,,,,60ff2b522b3a8ba205a30f1c,61036e6cd7f05ec17b7b7790,2021-07-29_23h14.55.819,Simcolourproject_2stim_asymm_v5,2020.2.10,MacIntel,60,61025ae37ef11b136ea224fe,,,,,,,,,333,83.71099854,-21.81240845,1,0,0,response3disk,,5,10.87750244,-9.649291992,1,0,0,rectangle,10.87750244,-9.649291992,1,0,0,10.87750244,-9.649291992,1,0,0,1,52,212,23,1,,,,,,,,
,,,,,,,,,,,,,FF,,,,,,,,0.700605,,,,,,,,,,,,,,,,,,,,,,60ff2b522b3a8ba205a30f1c,61036e6cd7f05ec17b7b7790,2021-07-29_23h14.55.819,Simcolourproject_2stim_asymm_v5,2020.2.10,MacIntel,60,61025ae37ef11b136ea224fe,,,,,,,,,1313,-35.69824219,-78.54241943,1,0,0,response5disk,,3,16.53961182,-4.125732422,1,0,0,rectangle,16.53961182,-4.125732422,1,0,0,16.53961182,-4.125732422,1,0,0,1,53,213,103,1,,,,,,,,
,,,,,,,,,,,,,FF,,,,,,,,0.683915,,,,,,,,,,,,,,,,,,,,,,60ff2b522b3a8ba205a30f1c,61036e6cd7f05ec17b7b7790,2021-07-29_23h14.55.819,Simcolourproject_2stim_asymm_v5,2020.2.10,MacIntel,60,61025ae37ef11b136ea224fe,,,,,,,,,2025,-29.67785645,66.71936035,1,0,0,response7disk,,0,-6.866027832,10.79425049,1,0,0,rectangle,-6.866027832,10.79425049,1,0,0,-6.866027832,10.79425049,1,0,0,1,54,214,109,1,,,,,,,,
,,,,,,,,,,,,,FF,,,,,,,,0.899865,,,,,,,,,,,,,,,,,,,,,,60ff2b522b3a8ba205a30f1c,61036e6cd7f05ec17b7b7790,2021-07-29_23h14.55.819,Simcolourproject_2stim_asymm_v5,2020.2.10,MacIntel,60,61025ae37ef11b136ea224fe,,,,,,,,,2430,40.27459717,-56.76080322,1,0,0,response3disk,,4,15.67242432,17.41210938,1,0,0,rectangle,-79.43798828,22.51434326,1,0,0,-20.78161621,9.255004883,1,0,0,1,55,215,17,1,,response7disk_3,TRUE,1,1,"[211,31,266,174,244,205,94,67,216,152,169,268,199,73,320,222,295,68,83,72]",1.148655,rectangle
,,,,,,,,,,,,,FF,,,,,,,,0.883555,,,,,,,,,,,,,,,,,,,,,,60ff2b522b3a8ba205a30f1c,61036e6cd7f05ec17b7b7790,2021-07-29_23h14.55.819,Simcolourproject_2stim_asymm_v5,2020.2.10,MacIntel,60,61025ae37ef11b136ea224fe,,,,,,,,,2604,-29.36779785,-67.19726563,1,0,0,response5disk,,3,-0.919006348,-2.573059082,1,0,0,rectangle,-0.919006348,-2.573059082,1,0,0,-0.919006348,-2.573059082,1,0,0,1,56,216,46,1,,,,,,,,
,,,,,,,,,,,,,FF,,,,,,,,0.650715,,,,,,,,,,,,,,,,,,,,,,60ff2b522b3a8ba205a30f1c,61036e6cd7f05ec17b7b7790,2021-07-29_23h14.55.819,Simcolourproject_2stim_asymm_v5,2020.2.10,MacIntel,60,61025ae37ef11b136ea224fe,,,,,,,,,4186,-34.59204102,-48.82305908,1,0,0,response5disk,,3,-5.740478516,11.89709473,1,0,0,rectangle,-5.740478516,11.89709473,1,0,0,-5.740478516,11.89709473,1,0,0,1,57,217,6,1,,,,,,,,
,,,,,,,,,,,,,FF,,,,,,,,0.61755,,,,,,,,,,,,,,,,,,,,,,60ff2b522b3a8ba205a30f1c,61036e6cd7f05ec17b7b7790,2021-07-29_23h14.55.819,Simcolourproject_2stim_asymm_v5,2020.2.10,MacIntel,60,61025ae37ef11b136ea224fe,,,,,,,,,478,56.94830322,-22.50192261,1,0,0,response3disk,,5,6.235839844,-3.51776123,1,0,0,rectangle,6.235839844,-3.51776123,1,0,0,6.235839844,-3.51776123,1,0,0,1,58,218,95,1,,,,,,,,
,,,,,,,,,,,,,FF,,,,,,,,0.91635,,,,,,,,,,,,,,,,,,,,,,60ff2b522b3a8ba205a30f1c,61036e6cd7f05ec17b7b7790,2021-07-29_23h14.55.819,Simcolourproject_2stim_asymm_v5,2020.2.10,MacIntel,60,61025ae37ef11b136ea224fe,,,,,,,,,3898,68.21228027,-39.60101318,1,0,0,response3disk,,5,-1.062255859,-6.827514648,1,0,0,rectangle,-1.062255859,-6.827514648,1,0,0,-1.062255859,-6.827514648,1,0,0,1,59,219,2,1,,,,,,,,
,,,,,,,,,,,,,FF,,,,,,,,0.90065,,,,,,,,,,,,,,,,,,,,,,60ff2b522b3a8ba205a30f1c,61036e6cd7f05ec17b7b7790,2021-07-29_23h14.55.819,Simcolourproject_2stim_asymm_v5,2020.2.10,MacIntel,60,61025ae37ef11b136ea224fe,,,,,,,,,2956,76.06994629,35.54229736,1,0,0,response1disk,,6,25.82733154,4.91973877,1,0,0,rectangle,25.82733154,4.91973877,1,0,0,25.82733154,4.91973877,1,0,0,1,60,220,99,1,,,,,,,,
,,,,,,,,,,,,,FF,,,,,,,,0.698685,,,,,,,,,,,,,,,,,,,,,,60ff2b522b3a8ba205a30f1c,61036e6cd7f05ec17b7b7790,2021-07-29_23h14.55.819,Simcolourproject_2stim_asymm_v5,2020.2.10,MacIntel,60,61025ae37ef11b136ea224fe,,,,,,,,,2707,72.91619873,-47.08880615,1,0,0,response3disk,,5,-6.999145508,-7.622619629,1,0,0,rectangle,79.29711914,30.10015869,1,0,0,22.08654785,13.29943848,1,0,0,1,61,221,49,1,,response1disk_3,TRUE,6,6,"[211,31,266,174,244,205,94,67,216,152,169,268,199,73,320,222,295,68,83,72]",1.216875,rectangle
,,,,,,,,,,,,,FF,,,,,,,,0.81729,,,,,,,,,,,,,,,,,,,,,,60ff2b522b3a8ba205a30f1c,61036e6cd7f05ec17b7b7790,2021-07-29_23h14.55.819,Simcolourproject_2stim_asymm_v5,2020.2.10,MacIntel,60,61025ae37ef11b136ea224fe,,,,,,,,,2475,38.72399902,-77.1361084,1,0,0,response3disk,,4,6.951965332,-17.92788696,1,0,0,rectangle,6.951965332,-17.92788696,1,0,0,6.951965332,-17.92788696,1,0,0,1,62,222,87,1,,,,,,,,
,,,,,,,,,,,,,FF,,,,,,,,0.75017,,,,,,,,,,,,,,,,,,,,,,60ff2b522b3a8ba205a30f1c,61036e6cd7f05ec17b7b7790,2021-07-29_23h14.55.819,Simcolourproject_2stim_asymm_v5,2020.2.10,MacIntel,60,61025ae37ef11b136ea224fe,,,,,,,,,2004,84.07507324,25.74523926,1,0,0,response1disk,,6,-0.384155273,-0.850524902,1,0,0,rectangle,-0.384155273,-0.850524902,1,0,0,-0.384155273,-0.850524902,1,0,0,1,63,223,69,1,,,,,,,,
,,,,,,,,,,,,,FF,,,,,,,,0.749795,,,,,,,,,,,,,,,,,,,,,,60ff2b522b3a8ba205a30f1c,61036e6cd7f05ec17b7b7790,2021-07-29_23h14.55.819,Simcolourproject_2stim_asymm_v5,2020.2.10,MacIntel,60,61025ae37ef11b136ea224fe,,,,,,,,,1303,-93.96331787,-44.17956543,1,0,0,response5disk,,2,-13.17266846,-2.594512939,1,0,0,rectangle,-13.17266846,-2.594512939,1,0,0,-13.17266846,-2.594512939,1,0,0,1,64,224,20,1,,,,,,,,
,,,,,,,,,,,,,FF,,,,,,,,1.15385,,,,,,,,,,,,,,,,,,,,,,60ff2b522b3a8ba205a30f1c,61036e6cd7f05ec17b7b7790,2021-07-29_23h14.55.819,Simcolourproject_2stim_asymm_v5,2020.2.10,MacIntel,60,61025ae37ef11b136ea224fe,,,,,,,,,4308,82.11761475,-30.19619751,1,0,0,response3disk,,5,10.77862549,-8.065490723,1,0,0,rectangle,10.77862549,-8.065490723,1,0,0,10.77862549,-8.065490723,1,0,0,1,65,225,13,1,,,,,,,,
,,,,,,,,,,,,,FF,,,,,,,,0.717,,,,,,,,,,,,,,,,,,,,,,60ff2b522b3a8ba205a30f1c,61036e6cd7f05ec17b7b7790,2021-07-29_23h14.55.819,Simcolourproject_2stim_asymm_v5,2020.2.10,MacIntel,60,61025ae37ef11b136ea224fe,,,,,,,,,1551,82.91369629,26.22497559,1,0,0,response1disk,,6,3.185180664,6.971710205,1,0,0,rectangle,3.185180664,6.971710205,1,0,0,3.185180664,6.971710205,1,0,0,1,66,226,110,1,,,,,,,,
,,,,,,,,,,,,,FF,,,,,,,,1.132915,,,,,,,,,,,,,,,,,,,,,,60ff2b522b3a8ba205a30f1c,61036e6cd7f05ec17b7b7790,2021-07-29_23h14.55.819,Simcolourproject_2stim_asymm_v5,2020.2.10,MacIntel,60,61025ae37ef11b136ea224fe,,,,,,,,,517,81.77508545,-43.48556519,1,0,0,response3disk,,5,-0.764770508,-9.174804688,1,0,0,rectangle,-0.764770508,-9.174804688,1,0,0,-0.764770508,-9.174804688,1,0,0,1,67,227,142,1,,,,,,,,
,,,,,,,,,,,,,FF,,,,,,,,1.34928,,,,,,,,,,,,,,,,,,,,,,60ff2b522b3a8ba205a30f1c,61036e6cd7f05ec17b7b7790,2021-07-29_23h14.55.819,Simcolourproject_2stim_asymm_v5,2020.2.10,MacIntel,60,61025ae37ef11b136ea224fe,,,,,,,,,1123,-54.85681152,-69.2623291,1,0,0,response5disk,,3,-3.970214844,1.279907227,1,0,0,rectangle,-3.970214844,1.279907227,1,0,0,-3.970214844,1.279907227,1,0,0,1,68,228,67,1,,,,,,,,
,,,,,,,,,,,,,FF,,,,,,,,0.74907,,,,,,,,,,,,,,,,,,,,,,60ff2b522b3a8ba205a30f1c,61036e6cd7f05ec17b7b7790,2021-07-29_23h14.55.819,Simcolourproject_2stim_asymm_v5,2020.2.10,MacIntel,60,61025ae37ef11b136ea224fe,,,,,,,,,1612,32.39593506,-54.23913574,1,0,0,response3disk,,4,7.243530273,7.734283447,1,0,0,rectangle,7.243530273,7.734283447,1,0,0,7.243530273,7.734283447,1,0,0,1,69,229,91,1,,,,,,,,
,,,,,,,,,,,,,FF,,,,,,,,0.88343,,,,,,,,,,,,,,,,,,,,,,60ff2b522b3a8ba205a30f1c,61036e6cd7f05ec17b7b7790,2021-07-29_23h14.55.819,Simcolourproject_2stim_asymm_v5,2020.2.10,MacIntel,60,61025ae37ef11b136ea224fe,,,,,,,,,3603,73.55065918,35.72686768,1,0,0,response1disk,,6,3.618713379,4.316894531,1,0,0,rectangle,3.618713379,4.316894531,1,0,0,3.618713379,4.316894531,1,0,0,1,70,230,130,1,,,,,,,,
,,,,,,,,,,,,,FF,,,,,,,,0.916525,,,,,,,,,,,,,,,,,,,,,,60ff2b522b3a8ba205a30f1c,61036e6cd7f05ec17b7b7790,2021-07-29_23h14.55.819,Simcolourproject_2stim_asymm_v5,2020.2.10,MacIntel,60,61025ae37ef11b136ea224fe,,,,,,,,,66,-49.91882324,-78.7755127,1,0,0,response5disk,,3,-9.510131836,-13.05682373,1,0,0,rectangle,-9.510131836,-13.05682373,1,0,0,-9.510131836,-13.05682373,1,0,0,1,71,231,18,1,,,,,,,,
,,,,,,,,,,,,,FF,,,,,,,,0.600045,,,,,,,,,,,,,,,,,,,,,,60ff2b522b3a8ba205a30f1c,61036e6cd7f05ec17b7b7790,2021-07-29_23h14.55.819,Simcolourproject_2stim_asymm_v5,2020.2.10,MacIntel,60,61025ae37ef11b136ea224fe,,,,,,,,,610,97.51477051,-21.96337891,1,0,0,response3disk,,5,25.55474854,-0.729187012,1,0,0,rectangle,25.55474854,-0.729187012,1,0,0,25.55474854,-0.729187012,1,0,0,1,72,232,11,1,,,,,,,,
,,,,,,,,,,,,,FF,,,,,,,,0.96675,,,,,,,,,,,,,,,,,,,,,,60ff2b522b3a8ba205a30f1c,61036e6cd7f05ec17b7b7790,2021-07-29_23h14.55.819,Simcolourproject_2stim_asymm_v5,2020.2.10,MacIntel,60,61025ae37ef11b136ea224fe,,,,,,,,,1833,46.50018311,-71.61938477,1,0,0,response3disk,,4,8.394348145,4.027618408,1,0,0,rectangle,8.394348145,4.027618408,1,0,0,8.394348145,4.027618408,1,0,0,1,73,233,59,1,,,,,,,,
,,,,,,,,,,,,,FF,,,,,,,,0.583505,,,,,,,,,,,,,,,,,,,,,,60ff2b522b3a8ba205a30f1c,61036e6cd7f05ec17b7b7790,2021-07-29_23h14.55.819,Simcolourproject_2stim_asymm_v5,2020.2.10,MacIntel,60,61025ae37ef11b136ea224fe,,,,,,,,,4286,81.78033447,45.43896484,1,0,0,response1disk,,6,9.37689209,14.84368896,1,0,0,rectangle,9.37689209,14.84368896,1,0,0,9.37689209,14.84368896,1,0,0,1,74,234,10,1,,,,,,,,
,,,,,,,,,,,,,FF,,,,,,,,0.96694,,,,,,,,,,,,,,,,,,,,,,60ff2b522b3a8ba205a30f1c,61036e6cd7f05ec17b7b7790,2021-07-29_23h14.55.819,Simcolourproject_2stim_asymm_v5,2020.2.10,MacIntel,60,61025ae37ef11b136ea224fe,,,,,,,,,520,42.05963135,-34.76641846,1,0,0,response3disk,,5,2.488952637,3.081237793,1,0,0,rectangle,2.488952637,3.081237793,1,0,0,2.488952637,3.081237793,1,0,0,1,75,235,85,1,,,,,,,,
,,,,,,,,,,,,,FF,,,,,,,,0.883505,,,,,,,,,,,,,,,,,,,,,,60ff2b522b3a8ba205a30f1c,61036e6cd7f05ec17b7b7790,2021-07-29_23h14.55.819,Simcolourproject_2stim_asymm_v5,2020.2.10,MacIntel,60,61025ae37ef11b136ea224fe,,,,,,,,,2602,-34.52111816,-90.37225342,1,0,0,response5disk,,3,1.526367188,-17.60934448,1,0,0,rectangle,1.526367188,-17.60934448,1,0,0,1.526367188,-17.60934448,1,0,0,1,76,236,37,1,,,,,,,,
,,,,,,,,,,,,,FF,,,,,,,,0.99916,,,,,,,,,,,,,,,,,,,,,,60ff2b522b3a8ba205a30f1c,61036e6cd7f05ec17b7b7790,2021-07-29_23h14.55.819,Simcolourproject_2stim_asymm_v5,2020.2.10,MacIntel,60,61025ae37ef11b136ea224fe,,,,,,,,,3414,18.91363525,67.90429688,1,0,0,response1disk,,7,6.705810547,-7.532470703,1,0,0,rectangle,6.705810547,-7.532470703,1,0,0,6.705810547,-7.532470703,1,0,0,1,77,237,106,1,,,,,,,,
,,,,,,,,,,,,,FF,,,,,,,,0.800335,,,,,,,,,,,,,,,,,,,,,,60ff2b522b3a8ba205a30f1c,61036e6cd7f05ec17b7b7790,2021-07-29_23h14.55.819,Simcolourproject_2stim_asymm_v5,2020.2.10,MacIntel,60,61025ae37ef11b136ea224fe,,,,,,,,,3957,27.21490479,76.74349976,1,0,0,response1disk,,7,7.718200684,2.986999512,1,0,0,rectangle,7.718200684,2.986999512,1,0,0,7.718200684,2.986999512,1,0,0,1,78,238,74,1,,,,,,,,
,,,,,,,,,,,,,FF,,,,,,,,1.0671,,,,,,,,,,,,,,,,,,,,,,60ff2b522b3a8ba205a30f1c,61036e6cd7f05ec17b7b7790,2021-07-29_23h14.55.819,Simcolourproject_2stim_asymm_v5,2020.2.10,MacIntel,60,61025ae37ef11b136ea224fe,,,,,,,,,1135,-36.3894043,-70.41296387,1,0,0,response5disk,,3,10.49725342,14.39648438,1,0,0,rectangle,10.49725342,14.39648438,1,0,0,10.49725342,14.39648438,1,0,0,1,79,239,158,1,,,,,,,,
