key_resp.keys,key_resp.rt,key_resp_14.keys,key_resp_14.rt,key_resp_15.keys,key_resp_15.rt,key_resp_17.keys,key_resp_17.rt,key_resp_9.keys,key_resp_9.rt,key_resp_10.keys,key_resp_10.rt,practice_comparison,Ecc,mouse_5.x,mouse_5.y,mouse_5.leftButton,mouse_5.midButton,mouse_5.rightButton,mouse_5.clicked_name,pracsimilarity,response_time,mouse_10.x,mouse_10.y,mouse_10.leftButton,mouse_10.midButton,mouse_10.rightButton,mouse_10.clicked_name,mouse_7.x,mouse_7.y,mouse_7.leftButton,mouse_7.midButton,mouse_7.rightButton,mouse_6.x,mouse_6.y,mouse_6.leftButton,mouse_6.midButton,mouse_6.rightButton,duringprac.thisRepN,duringprac.thisTrialN,duringprac.thisN,duringprac.thisIndex,duringprac.ran,participant,session,date,expName,psychopyVersion,OS,frameRate,study_id,mouse_7.clicked_name,catchpracsimilarity,catch_response_time,catchnumberprac,catchtrialorderprac,mouse_6.clicked_name,key_resp_22.keys,key_resp_22.rt,realcomparison,mouse.x,mouse.y,mouse.leftButton,mouse.midButton,mouse.rightButton,mouse.clicked_name,Colour2,similarity,mouse_2.x,mouse_2.y,mouse_2.leftButton,mouse_2.midButton,mouse_2.rightButton,mouse_2.clicked_name,mouse_3.x,mouse_3.y,mouse_3.leftButton,mouse_3.midButton,mouse_3.rightButton,mouse_11.x,mouse_11.y,mouse_11.leftButton,mouse_11.midButton,mouse_11.rightButton,trials_2.thisRepN,trials_2.thisTrialN,trials_2.thisN,trials_2.thisIndex,trials_2.ran,Colour1,mouse_3.clicked_name,catchornah,catchsimilarity,catchnumber,catchtrialorder,catchRT,mouse_11.clicked_name
space,13.9312,space,2.3135,space,18.0504,space,4.0508,space,0.6492,space,11.3503,154,PF,31.00756836,60.78240967,1,0,0,response1disk_5,7,14.5016,-8.582275391,10.07171631,1,0,0,rectangle_8,-8.582275391,10.07171631,1,0,0,-8.582275391,10.07171631,1,0,0,0,0,0,4,1,60ffb32808df73248acaee9f,61037783f215faab0a11fdd6,2021-07-29_20h55.32.950,Simcolourproject_2stim_asymm_v5,2020.2.10,MacIntel,60,61025ae37ef11b136ea224fe,,,,,,,,,,,,,,,,,,,,,,,,,,,,,,,,,,,,,,,,,,,,,,
,,,,,,,,,,,,105,FF,22.30560303,56.27941895,1,0,0,response1disk_5,7,2.7491,0.25402832,6.442138672,1,0,0,rectangle_8,30.01916504,-69.27655029,1,0,0,-15.99993896,-0.833862305,1,0,0,0,1,1,3,1,60ffb32808df73248acaee9f,61037783f215faab0a11fdd6,2021-07-29_20h55.32.950,Simcolourproject_2stim_asymm_v5,2020.2.10,MacIntel,60,61025ae37ef11b136ea224fe,response3disk_7,4,3.0506,4,"[2,5]",rectangle_4,,,,,,,,,,,,,,,,,,,,,,,,,,,,,,,,,,,,,,,,
,,,,,,,,,,,,9,PF,-24.59564209,69.74853516,1,0,0,response7disk_5,0,4.3333,0.149780273,-8.107849121,1,0,0,rectangle_8,0.149780273,-8.107849121,1,0,0,0.149780273,-8.107849121,1,0,0,0,2,2,1,1,60ffb32808df73248acaee9f,61037783f215faab0a11fdd6,2021-07-29_20h55.32.950,Simcolourproject_2stim_asymm_v5,2020.2.10,MacIntel,60,61025ae37ef11b136ea224fe,,,,,,,,,,,,,,,,,,,,,,,,,,,,,,,,,,,,,,,,,,,,,,
,,,,,,,,,,,,35,FF,-41.57312012,-51.26428223,1,0,0,response5disk_5,3,1.7167,-10.48754883,8.594482422,1,0,0,rectangle_8,-10.48754883,8.594482422,1,0,0,-10.48754883,8.594482422,1,0,0,0,3,3,0,1,60ffb32808df73248acaee9f,61037783f215faab0a11fdd6,2021-07-29_20h55.32.950,Simcolourproject_2stim_asymm_v5,2020.2.10,MacIntel,60,61025ae37ef11b136ea224fe,,,,,,,,,,,,,,,,,,,,,,,,,,,,,,,,,,,,,,,,,,,,,,
,,,,,,,,,,,,34,PF,-63.88269043,29.7991333,1,0,0,response7disk_5,1,2.1008,0.034179688,5.52520752,1,0,0,rectangle_8,12.88299561,-85.54821777,1,0,0,6.428100586,6.073669434,1,0,0,0,4,4,2,1,60ffb32808df73248acaee9f,61037783f215faab0a11fdd6,2021-07-29_20h55.32.950,Simcolourproject_2stim_asymm_v5,2020.2.10,MacIntel,60,61025ae37ef11b136ea224fe,response3disk_7,4,2.2991,4,"[2,5]",rectangle_4,,,,,,,,,,,,,,,,,,,,,,,,,,,,,,,,,,,,,,,,
,,,,,,,,,,,,133,FF,74.39611816,-37.09729004,1,0,0,response3disk_5,5,1.4827,-11.85784912,4.734771729,1,0,0,rectangle_8,-11.85784912,4.734771729,1,0,0,-11.85784912,4.734771729,1,0,0,0,5,5,5,1,60ffb32808df73248acaee9f,61037783f215faab0a11fdd6,2021-07-29_20h55.32.950,Simcolourproject_2stim_asymm_v5,2020.2.10,MacIntel,60,61025ae37ef11b136ea224fe,,,,,,,,,,,,,,,,,,,,,,,,,,,,,,,,,,,,,,,,,,,,,,
,,,,,,,,,,,,158,PF,38.31677246,-50.30090332,1,0,0,response3disk_5,4,1.1172,14.3772583,3.096801758,1,0,0,rectangle_8,14.3772583,3.096801758,1,0,0,14.3772583,3.096801758,1,0,0,0,6,6,6,1,60ffb32808df73248acaee9f,61037783f215faab0a11fdd6,2021-07-29_20h55.32.950,Simcolourproject_2stim_asymm_v5,2020.2.10,MacIntel,60,61025ae37ef11b136ea224fe,,,,,,,,,,,,,,,,,,,,,,,,,,,,,,,,,,,,,,,,,,,,,,
,,,,,,,,,,,,,FF,,,,,,,,3.383,,,,,,,,,,,,,,,,,,,,,,60ffb32808df73248acaee9f,61037783f215faab0a11fdd6,2021-07-29_20h55.32.950,Simcolourproject_2stim_asymm_v5,2020.2.10,MacIntel,60,61025ae37ef11b136ea224fe,,,,,,,space,11.4634,1444,36.75073242,70.2600708,1,0,0,response1disk,,7,-5.434265137,-7.397155762,1,0,0,rectangle,-5.434265137,-7.397155762,1,0,0,-5.434265137,-7.397155762,1,0,0,0,0,0,121,1,,,,,,,,
,,,,,,,,,,,,,FF,,,,,,,,2.2976,,,,,,,,,,,,,,,,,,,,,,60ffb32808df73248acaee9f,61037783f215faab0a11fdd6,2021-07-29_20h55.32.950,Simcolourproject_2stim_asymm_v5,2020.2.10,MacIntel,60,61025ae37ef11b136ea224fe,,,,,,,,,3607,78.31115723,44.20089722,1,0,0,response1disk,,6,2.484008789,6.776794434,1,0,0,rectangle,2.484008789,6.776794434,1,0,0,2.484008789,6.776794434,1,0,0,0,1,1,30,1,,,,,,,,
,,,,,,,,,,,,,FF,,,,,,,,2.1499,,,,,,,,,,,,,,,,,,,,,,60ffb32808df73248acaee9f,61037783f215faab0a11fdd6,2021-07-29_20h55.32.950,Simcolourproject_2stim_asymm_v5,2020.2.10,MacIntel,60,61025ae37ef11b136ea224fe,,,,,,,,,1200,25.05493164,-59.89422607,1,0,0,response3disk,,4,15.78924561,-7.933898926,1,0,0,rectangle,15.78924561,-7.933898926,1,0,0,15.78924561,-7.933898926,1,0,0,0,2,2,16,1,,,,,,,,
,,,,,,,,,,,,,FF,,,,,,,,1.5674,,,,,,,,,,,,,,,,,,,,,,60ffb32808df73248acaee9f,61037783f215faab0a11fdd6,2021-07-29_20h55.32.950,Simcolourproject_2stim_asymm_v5,2020.2.10,MacIntel,60,61025ae37ef11b136ea224fe,,,,,,,,,4286,81.40374756,23.88446045,1,0,0,response1disk,,6,-3.520751953,-0.093505859,1,0,0,rectangle,-3.520751953,-0.093505859,1,0,0,-3.520751953,-0.093505859,1,0,0,0,3,3,92,1,,,,,,,,
,,,,,,,,,,,,,FF,,,,,,,,3.3673,,,,,,,,,,,,,,,,,,,,,,60ffb32808df73248acaee9f,61037783f215faab0a11fdd6,2021-07-29_20h55.32.950,Simcolourproject_2stim_asymm_v5,2020.2.10,MacIntel,60,61025ae37ef11b136ea224fe,,,,,,,,,3342,65.73742676,29.21646118,1,0,0,response1disk,,6,4.44921875,10.53167725,1,0,0,rectangle,4.44921875,10.53167725,1,0,0,4.44921875,10.53167725,1,0,0,0,4,4,76,1,,,,,,,,
,,,,,,,,,,,,,FF,,,,,,,,1.5669,,,,,,,,,,,,,,,,,,,,,,60ffb32808df73248acaee9f,61037783f215faab0a11fdd6,2021-07-29_20h55.32.950,Simcolourproject_2stim_asymm_v5,2020.2.10,MacIntel,60,61025ae37ef11b136ea224fe,,,,,,,,,1361,-32.90966797,-42.76541138,1,0,0,response5disk,,3,-17.7755127,4.586975098,1,0,0,rectangle,37.77404785,72.35305786,1,0,0,21.77008057,-5.402832031,1,0,0,0,5,5,124,1,,response1disk_3,TRUE,7,7,"[6,208,320,45,60,89,168,46,241,133,150,187,21,311,240,0,62,135,186,298]",2.384,rectangle
,,,,,,,,,,,,,FF,,,,,,,,4.6663,,,,,,,,,,,,,,,,,,,,,,60ffb32808df73248acaee9f,61037783f215faab0a11fdd6,2021-07-29_20h55.32.950,Simcolourproject_2stim_asymm_v5,2020.2.10,MacIntel,60,61025ae37ef11b136ea224fe,,,,,,,,,1425,41.18859863,67.14196777,1,0,0,response1disk,,7,-7.731201172,-7.190673828,1,0,0,rectangle,-7.731201172,-7.190673828,1,0,0,-7.731201172,-7.190673828,1,0,0,0,6,6,105,1,,,,,,,,
,,,,,,,,,,,,,FF,,,,,,,,3.1677,,,,,,,,,,,,,,,,,,,,,,60ffb32808df73248acaee9f,61037783f215faab0a11fdd6,2021-07-29_20h55.32.950,Simcolourproject_2stim_asymm_v5,2020.2.10,MacIntel,60,61025ae37ef11b136ea224fe,,,,,,,,,208,-40.41662598,-57.5887146,1,0,0,response5disk,,3,30.26287842,12.86315918,1,0,0,rectangle,30.26287842,12.86315918,1,0,0,30.26287842,12.86315918,1,0,0,0,7,7,141,1,,,,,,,,
,,,,,,,,,,,,,FF,,,,,,,,0.9835,,,,,,,,,,,,,,,,,,,,,,60ffb32808df73248acaee9f,61037783f215faab0a11fdd6,2021-07-29_20h55.32.950,Simcolourproject_2stim_asymm_v5,2020.2.10,MacIntel,60,61025ae37ef11b136ea224fe,,,,,,,,,3679,-45.83117676,-64.15515137,1,0,0,response5disk,,3,-9.575134277,2.1484375,1,0,0,rectangle,-9.575134277,2.1484375,1,0,0,-9.575134277,2.1484375,1,0,0,0,8,8,25,1,,,,,,,,
,,,,,,,,,,,,,FF,,,,,,,,1.0678,,,,,,,,,,,,,,,,,,,,,,60ffb32808df73248acaee9f,61037783f215faab0a11fdd6,2021-07-29_20h55.32.950,Simcolourproject_2stim_asymm_v5,2020.2.10,MacIntel,60,61025ae37ef11b136ea224fe,,,,,,,,,718,-70.10791016,13.80322266,1,0,0,response7disk,,1,7.384338379,7.859985352,1,0,0,rectangle,7.384338379,7.859985352,1,0,0,7.384338379,7.859985352,1,0,0,0,9,9,8,1,,,,,,,,
,,,,,,,,,,,,,FF,,,,,,,,0.9338,,,,,,,,,,,,,,,,,,,,,,60ffb32808df73248acaee9f,61037783f215faab0a11fdd6,2021-07-29_20h55.32.950,Simcolourproject_2stim_asymm_v5,2020.2.10,MacIntel,60,61025ae37ef11b136ea224fe,,,,,,,,,1698,-32.14978027,-66.64990234,1,0,0,response5disk,,3,-20.69970703,-16.81945801,1,0,0,rectangle,-20.69970703,-16.81945801,1,0,0,-20.69970703,-16.81945801,1,0,0,0,10,10,52,1,,,,,,,,
,,,,,,,,,,,,,FF,,,,,,,,1.2657,,,,,,,,,,,,,,,,,,,,,,60ffb32808df73248acaee9f,61037783f215faab0a11fdd6,2021-07-29_20h55.32.950,Simcolourproject_2stim_asymm_v5,2020.2.10,MacIntel,60,61025ae37ef11b136ea224fe,,,,,,,,,2387,85.34637451,-45.64624023,1,0,0,response3disk,,5,27.34802246,-1.552703857,1,0,0,rectangle,27.34802246,-1.552703857,1,0,0,27.34802246,-1.552703857,1,0,0,0,11,11,83,1,,,,,,,,
,,,,,,,,,,,,,FF,,,,,,,,3.3833,,,,,,,,,,,,,,,,,,,,,,60ffb32808df73248acaee9f,61037783f215faab0a11fdd6,2021-07-29_20h55.32.950,Simcolourproject_2stim_asymm_v5,2020.2.10,MacIntel,60,61025ae37ef11b136ea224fe,,,,,,,,,3849,48.41894531,35.50244141,1,0,0,response1disk,,6,-26.65606689,-9.200805664,1,0,0,rectangle,-26.65606689,-9.200805664,1,0,0,-26.65606689,-9.200805664,1,0,0,0,12,12,133,1,,,,,,,,
,,,,,,,,,,,,,FF,,,,,,,,0.9003,,,,,,,,,,,,,,,,,,,,,,60ffb32808df73248acaee9f,61037783f215faab0a11fdd6,2021-07-29_20h55.32.950,Simcolourproject_2stim_asymm_v5,2020.2.10,MacIntel,60,61025ae37ef11b136ea224fe,,,,,,,,,2678,-33.61120605,-73.0692749,1,0,0,response5disk,,3,11.50231934,0.403442383,1,0,0,rectangle,11.50231934,0.403442383,1,0,0,11.50231934,0.403442383,1,0,0,0,13,13,21,1,,,,,,,,
,,,,,,,,,,,,,FF,,,,,,,,1.3008,,,,,,,,,,,,,,,,,,,,,,60ffb32808df73248acaee9f,61037783f215faab0a11fdd6,2021-07-29_20h55.32.950,Simcolourproject_2stim_asymm_v5,2020.2.10,MacIntel,60,61025ae37ef11b136ea224fe,,,,,,,,,1887,-70.12316895,20.19207764,1,0,0,response7disk,,1,6.114746094,-8.277160645,1,0,0,rectangle,6.114746094,-8.277160645,1,0,0,6.114746094,-8.277160645,1,0,0,0,14,14,96,1,,,,,,,,
,,,,,,,,,,,,,FF,,,,,,,,4.4826,,,,,,,,,,,,,,,,,,,,,,60ffb32808df73248acaee9f,61037783f215faab0a11fdd6,2021-07-29_20h55.32.950,Simcolourproject_2stim_asymm_v5,2020.2.10,MacIntel,60,61025ae37ef11b136ea224fe,,,,,,,,,1375,-32.27056885,-64.97589111,1,0,0,response5disk,,3,-3.716247559,1.332702637,1,0,0,rectangle,-3.716247559,1.332702637,1,0,0,-3.716247559,1.332702637,1,0,0,0,15,15,106,1,,,,,,,,
,,,,,,,,,,,,,FF,,,,,,,,4.5667,,,,,,,,,,,,,,,,,,,,,,60ffb32808df73248acaee9f,61037783f215faab0a11fdd6,2021-07-29_20h55.32.950,Simcolourproject_2stim_asymm_v5,2020.2.10,MacIntel,60,61025ae37ef11b136ea224fe,,,,,,,,,1657,38.269104,67.28930664,1,0,0,response1disk,,7,5.82611084,4.024169922,1,0,0,rectangle,5.82611084,4.024169922,1,0,0,5.82611084,4.024169922,1,0,0,0,16,16,2,1,,,,,,,,
,,,,,,,,,,,,,FF,,,,,,,,0.8666,,,,,,,,,,,,,,,,,,,,,,60ffb32808df73248acaee9f,61037783f215faab0a11fdd6,2021-07-29_20h55.32.950,Simcolourproject_2stim_asymm_v5,2020.2.10,MacIntel,60,61025ae37ef11b136ea224fe,,,,,,,,,1707,37.69024658,68.35028076,1,0,0,response1disk,,7,30.69604492,9.177185059,1,0,0,rectangle,30.69604492,9.177185059,1,0,0,30.69604492,9.177185059,1,0,0,0,17,17,109,1,,,,,,,,
,,,,,,,,,,,,,FF,,,,,,,,0.8174,,,,,,,,,,,,,,,,,,,,,,60ffb32808df73248acaee9f,61037783f215faab0a11fdd6,2021-07-29_20h55.32.950,Simcolourproject_2stim_asymm_v5,2020.2.10,MacIntel,60,61025ae37ef11b136ea224fe,,,,,,,,,3453,64.32025146,-37.29394531,1,0,0,response3disk,,5,10.25,5.215515137,1,0,0,rectangle,10.25,5.215515137,1,0,0,10.25,5.215515137,1,0,0,0,18,18,154,1,,,,,,,,
,,,,,,,,,,,,,FF,,,,,,,,0.8507,,,,,,,,,,,,,,,,,,,,,,60ffb32808df73248acaee9f,61037783f215faab0a11fdd6,2021-07-29_20h55.32.950,Simcolourproject_2stim_asymm_v5,2020.2.10,MacIntel,60,61025ae37ef11b136ea224fe,,,,,,,,,1075,44.61767578,26.27310181,1,0,0,response1disk,,6,1.84161377,-11.45037842,1,0,0,rectangle,1.84161377,-11.45037842,1,0,0,1.84161377,-11.45037842,1,0,0,0,19,19,68,1,,,,,,,,
,,,,,,,,,,,,,FF,,,,,,,,0.5996,,,,,,,,,,,,,,,,,,,,,,60ffb32808df73248acaee9f,61037783f215faab0a11fdd6,2021-07-29_20h55.32.950,Simcolourproject_2stim_asymm_v5,2020.2.10,MacIntel,60,61025ae37ef11b136ea224fe,,,,,,,,,473,-41.57623291,-40.7166748,1,0,0,response5disk,,2,-26.60534668,-4.694549561,1,0,0,rectangle,36.75341797,-60.78344727,1,0,0,26.57177734,-5.335693359,1,0,0,0,20,20,46,1,,response3disk_3,TRUE,4,4,"[6,208,320,45,60,89,168,46,241,133,150,187,21,311,240,0,62,135,186,298]",1.8671,rectangle
,,,,,,,,,,,,,FF,,,,,,,,2.0987,,,,,,,,,,,,,,,,,,,,,,60ffb32808df73248acaee9f,61037783f215faab0a11fdd6,2021-07-29_20h55.32.950,Simcolourproject_2stim_asymm_v5,2020.2.10,MacIntel,60,61025ae37ef11b136ea224fe,,,,,,,,,4177,71.46783447,44.65356445,1,0,0,response1disk,,6,-1.335327148,9.699279785,1,0,0,rectangle,-1.335327148,9.699279785,1,0,0,-1.335327148,9.699279785,1,0,0,0,21,21,98,1,,,,,,,,
,,,,,,,,,,,,,FF,,,,,,,,1.001,,,,,,,,,,,,,,,,,,,,,,60ffb32808df73248acaee9f,61037783f215faab0a11fdd6,2021-07-29_20h55.32.950,Simcolourproject_2stim_asymm_v5,2020.2.10,MacIntel,60,61025ae37ef11b136ea224fe,,,,,,,,,4091,30.50372314,54.73144531,1,0,0,response1disk,,7,25.95056152,4.231506348,1,0,0,rectangle,25.95056152,4.231506348,1,0,0,25.95056152,4.231506348,1,0,0,0,22,22,49,1,,,,,,,,
,,,,,,,,,,,,,FF,,,,,,,,1.0673,,,,,,,,,,,,,,,,,,,,,,60ffb32808df73248acaee9f,61037783f215faab0a11fdd6,2021-07-29_20h55.32.950,Simcolourproject_2stim_asymm_v5,2020.2.10,MacIntel,60,61025ae37ef11b136ea224fe,,,,,,,,,1422,-39.34857178,-61.55450439,1,0,0,response5disk,,3,14.38665771,-13.44775391,1,0,0,rectangle,14.38665771,-13.44775391,1,0,0,14.38665771,-13.44775391,1,0,0,0,23,23,84,1,,,,,,,,
,,,,,,,,,,,,,FF,,,,,,,,0.8995,,,,,,,,,,,,,,,,,,,,,,60ffb32808df73248acaee9f,61037783f215faab0a11fdd6,2021-07-29_20h55.32.950,Simcolourproject_2stim_asymm_v5,2020.2.10,MacIntel,60,61025ae37ef11b136ea224fe,,,,,,,,,3741,-30.61315918,60.18823242,1,0,0,response7disk,,0,-10.81298828,1.163879395,1,0,0,rectangle,-10.81298828,1.163879395,1,0,0,-10.81298828,1.163879395,1,0,0,0,24,24,48,1,,,,,,,,
,,,,,,,,,,,,,FF,,,,,,,,0.999,,,,,,,,,,,,,,,,,,,,,,60ffb32808df73248acaee9f,61037783f215faab0a11fdd6,2021-07-29_20h55.32.950,Simcolourproject_2stim_asymm_v5,2020.2.10,MacIntel,60,61025ae37ef11b136ea224fe,,,,,,,,,1438,-26.47314453,-68.78076172,1,0,0,response5disk,,3,-11.87579346,-4.467041016,1,0,0,rectangle,-11.87579346,-4.467041016,1,0,0,-11.87579346,-4.467041016,1,0,0,0,25,25,62,1,,,,,,,,
,,,,,,,,,,,,,FF,,,,,,,,1.0161,,,,,,,,,,,,,,,,,,,,,,60ffb32808df73248acaee9f,61037783f215faab0a11fdd6,2021-07-29_20h55.32.950,Simcolourproject_2stim_asymm_v5,2020.2.10,MacIntel,60,61025ae37ef11b136ea224fe,,,,,,,,,2547,54.09387207,-65.39654541,1,0,0,response3disk,,4,-18.7454834,-15.26580811,1,0,0,rectangle,-18.7454834,-15.26580811,1,0,0,-18.7454834,-15.26580811,1,0,0,0,26,26,132,1,,,,,,,,
,,,,,,,,,,,,,FF,,,,,,,,1.3999,,,,,,,,,,,,,,,,,,,,,,60ffb32808df73248acaee9f,61037783f215faab0a11fdd6,2021-07-29_20h55.32.950,Simcolourproject_2stim_asymm_v5,2020.2.10,MacIntel,60,61025ae37ef11b136ea224fe,,,,,,,,,4005,-57.29846191,-28.3614502,1,0,0,response5disk,,2,13.37023926,0.304626465,1,0,0,rectangle,13.37023926,0.304626465,1,0,0,13.37023926,0.304626465,1,0,0,0,27,27,122,1,,,,,,,,
,,,,,,,,,,,,,FF,,,,,,,,0.8169,,,,,,,,,,,,,,,,,,,,,,60ffb32808df73248acaee9f,61037783f215faab0a11fdd6,2021-07-29_20h55.32.950,Simcolourproject_2stim_asymm_v5,2020.2.10,MacIntel,60,61025ae37ef11b136ea224fe,,,,,,,,,3000,-48.62182617,40.02514648,1,0,0,response7disk,,1,-12.81695557,-8.00579834,1,0,0,rectangle,-12.81695557,-8.00579834,1,0,0,-12.81695557,-8.00579834,1,0,0,0,28,28,4,1,,,,,,,,
,,,,,,,,,,,,,FF,,,,,,,,1.1326,,,,,,,,,,,,,,,,,,,,,,60ffb32808df73248acaee9f,61037783f215faab0a11fdd6,2021-07-29_20h55.32.950,Simcolourproject_2stim_asymm_v5,2020.2.10,MacIntel,60,61025ae37ef11b136ea224fe,,,,,,,,,1068,82.04058838,-48.65563965,1,0,0,response3disk,,5,-15.09356689,-13.92849731,1,0,0,rectangle,-15.09356689,-13.92849731,1,0,0,-15.09356689,-13.92849731,1,0,0,0,29,29,127,1,,,,,,,,
,,,,,,,,,,,,,FF,,,,,,,,0.7995,,,,,,,,,,,,,,,,,,,,,,60ffb32808df73248acaee9f,61037783f215faab0a11fdd6,2021-07-29_20h55.32.950,Simcolourproject_2stim_asymm_v5,2020.2.10,MacIntel,60,61025ae37ef11b136ea224fe,,,,,,,,,2659,35.2076416,73.53326416,1,0,0,response1disk,,7,18.27331543,1.416320801,1,0,0,rectangle,18.27331543,1.416320801,1,0,0,18.27331543,1.416320801,1,0,0,0,30,30,114,1,,,,,,,,
,,,,,,,,,,,,,FF,,,,,,,,1.0162,,,,,,,,,,,,,,,,,,,,,,60ffb32808df73248acaee9f,61037783f215faab0a11fdd6,2021-07-29_20h55.32.950,Simcolourproject_2stim_asymm_v5,2020.2.10,MacIntel,60,61025ae37ef11b136ea224fe,,,,,,,,,1542,57.87011719,-31.53924561,1,0,0,response3disk,,5,-19.77740479,1.197631836,1,0,0,rectangle,-19.77740479,1.197631836,1,0,0,-19.77740479,1.197631836,1,0,0,0,31,31,41,1,,,,,,,,
,,,,,,,,,,,,,FF,,,,,,,,1.1503,,,,,,,,,,,,,,,,,,,,,,60ffb32808df73248acaee9f,61037783f215faab0a11fdd6,2021-07-29_20h55.32.950,Simcolourproject_2stim_asymm_v5,2020.2.10,MacIntel,60,61025ae37ef11b136ea224fe,,,,,,,,,2086,-34.81030273,-63.26318359,1,0,0,response5disk,,3,-29.70831299,-16.55609131,1,0,0,rectangle,-29.70831299,-16.55609131,1,0,0,-29.70831299,-16.55609131,1,0,0,0,32,32,54,1,,,,,,,,
,,,,,,,,,,,,,FF,,,,,,,,0.8312,,,,,,,,,,,,,,,,,,,,,,60ffb32808df73248acaee9f,61037783f215faab0a11fdd6,2021-07-29_20h55.32.950,Simcolourproject_2stim_asymm_v5,2020.2.10,MacIntel,60,61025ae37ef11b136ea224fe,,,,,,,,,3893,66.01269531,-48.39709473,1,0,0,response3disk,,5,21.06225586,2.704467773,1,0,0,rectangle,21.06225586,2.704467773,1,0,0,21.06225586,2.704467773,1,0,0,0,33,33,140,1,,,,,,,,
,,,,,,,,,,,,,FF,,,,,,,,1.2507,,,,,,,,,,,,,,,,,,,,,,60ffb32808df73248acaee9f,61037783f215faab0a11fdd6,2021-07-29_20h55.32.950,Simcolourproject_2stim_asymm_v5,2020.2.10,MacIntel,60,61025ae37ef11b136ea224fe,,,,,,,,,1453,-67.79882813,-31.7456665,1,0,0,response5disk,,2,-6.491088867,2.531890869,1,0,0,rectangle,-6.491088867,2.531890869,1,0,0,-6.491088867,2.531890869,1,0,0,0,34,34,28,1,,,,,,,,
,,,,,,,,,,,,,FF,,,,,,,,0.7664,,,,,,,,,,,,,,,,,,,,,,60ffb32808df73248acaee9f,61037783f215faab0a11fdd6,2021-07-29_20h55.32.950,Simcolourproject_2stim_asymm_v5,2020.2.10,MacIntel,60,61025ae37ef11b136ea224fe,,,,,,,,,2134,23.63226318,-64.22821045,1,0,0,response3disk,,4,8.783874512,-11.39697266,1,0,0,rectangle,8.783874512,-11.39697266,1,0,0,8.783874512,-11.39697266,1,0,0,0,35,35,31,1,,,,,,,,
,,,,,,,,,,,,,FF,,,,,,,,1.2504,,,,,,,,,,,,,,,,,,,,,,60ffb32808df73248acaee9f,61037783f215faab0a11fdd6,2021-07-29_20h55.32.950,Simcolourproject_2stim_asymm_v5,2020.2.10,MacIntel,60,61025ae37ef11b136ea224fe,,,,,,,,,356,-64.78442383,-38.99987793,1,0,0,response5disk,,2,-9.419677734,0.911987305,1,0,0,rectangle,-9.419677734,0.911987305,1,0,0,-9.419677734,0.911987305,1,0,0,0,36,36,24,1,,,,,,,,
,,,,,,,,,,,,,FF,,,,,,,,1.2835,,,,,,,,,,,,,,,,,,,,,,60ffb32808df73248acaee9f,61037783f215faab0a11fdd6,2021-07-29_20h55.32.950,Simcolourproject_2stim_asymm_v5,2020.2.10,MacIntel,60,61025ae37ef11b136ea224fe,,,,,,,,,1916,55.47595215,-59.44424438,1,0,0,response3disk,,4,7.278991699,5.450012207,1,0,0,rectangle,7.278991699,5.450012207,1,0,0,7.278991699,5.450012207,1,0,0,0,37,37,44,1,,,,,,,,
,,,,,,,,,,,,,FF,,,,,,,,3.5161,,,,,,,,,,,,,,,,,,,,,,60ffb32808df73248acaee9f,61037783f215faab0a11fdd6,2021-07-29_20h55.32.950,Simcolourproject_2stim_asymm_v5,2020.2.10,MacIntel,60,61025ae37ef11b136ea224fe,,,,,,,,,2617,62.6619873,-35.20803833,1,0,0,response3disk,,5,-3.775512695,-9.317626953,1,0,0,rectangle,-3.775512695,-9.317626953,1,0,0,-3.775512695,-9.317626953,1,0,0,0,38,38,137,1,,,,,,,,
,,,,,,,,,,,,,FF,,,,,,,,2.1001,,,,,,,,,,,,,,,,,,,,,,60ffb32808df73248acaee9f,61037783f215faab0a11fdd6,2021-07-29_20h55.32.950,Simcolourproject_2stim_asymm_v5,2020.2.10,MacIntel,60,61025ae37ef11b136ea224fe,,,,,,,,,2044,89.40484619,41.4576416,1,0,0,response1disk,,6,-6.457397461,1.391784668,1,0,0,rectangle,-6.457397461,1.391784668,1,0,0,-6.457397461,1.391784668,1,0,0,0,39,39,102,1,,,,,,,,
,,,,,,,,,,,,,FF,,,,,,,,2.3347,,,,,,,,,,,,,,,,,,,,,,60ffb32808df73248acaee9f,61037783f215faab0a11fdd6,2021-07-29_20h55.32.950,Simcolourproject_2stim_asymm_v5,2020.2.10,MacIntel,60,61025ae37ef11b136ea224fe,,,,,,,,,780,66.44793701,-41.52606201,1,0,0,response3disk,,5,7.291137695,0.138092041,1,0,0,rectangle,7.291137695,0.138092041,1,0,0,7.291137695,0.138092041,1,0,0,0,40,40,6,1,,,,,,,,
,,,,,,,,,,,,,FF,,,,,,,,0.9998,,,,,,,,,,,,,,,,,,,,,,60ffb32808df73248acaee9f,61037783f215faab0a11fdd6,2021-07-29_20h55.32.950,Simcolourproject_2stim_asymm_v5,2020.2.10,MacIntel,60,61025ae37ef11b136ea224fe,,,,,,,,,502,76.29174805,50.84417725,1,0,0,response1disk,,6,14.87823486,4.516296387,1,0,0,rectangle,14.87823486,4.516296387,1,0,0,14.87823486,4.516296387,1,0,0,0,41,41,155,1,,,,,,,,
,,,,,,,,,,,,,FF,,,,,,,,2.3322,,,,,,,,,,,,,,,,,,,,,,60ffb32808df73248acaee9f,61037783f215faab0a11fdd6,2021-07-29_20h55.32.950,Simcolourproject_2stim_asymm_v5,2020.2.10,MacIntel,60,61025ae37ef11b136ea224fe,,,,,,,,,2059,79.47515869,38.95526123,1,0,0,response1disk,,6,20.34051514,9.098449707,1,0,0,rectangle,20.34051514,9.098449707,1,0,0,20.34051514,9.098449707,1,0,0,0,42,42,128,1,,,,,,,,
,,,,,,,,,,,,,FF,,,,,,,,0.7494,,,,,,,,,,,,,,,,,,,,,,60ffb32808df73248acaee9f,61037783f215faab0a11fdd6,2021-07-29_20h55.32.950,Simcolourproject_2stim_asymm_v5,2020.2.10,MacIntel,60,61025ae37ef11b136ea224fe,,,,,,,,,2208,60.34283447,27.50646973,1,0,0,response1disk,,6,12.08337402,-0.672851563,1,0,0,rectangle,12.08337402,-0.672851563,1,0,0,12.08337402,-0.672851563,1,0,0,0,43,43,55,1,,,,,,,,
,,,,,,,,,,,,,FF,,,,,,,,0.8337,,,,,,,,,,,,,,,,,,,,,,60ffb32808df73248acaee9f,61037783f215faab0a11fdd6,2021-07-29_20h55.32.950,Simcolourproject_2stim_asymm_v5,2020.2.10,MacIntel,60,61025ae37ef11b136ea224fe,,,,,,,,,3340,-49.34985352,-37.06756592,1,0,0,response5disk,,2,-7.33782959,1.478820801,1,0,0,rectangle,83.79345703,49.150177,1,0,0,14.05578613,10.53137207,1,0,0,0,44,44,119,1,,response1disk_3,TRUE,6,6,"[6,208,320,45,60,89,168,46,241,133,150,187,21,311,240,0,62,135,186,298]",2.7342,rectangle
,,,,,,,,,,,,,FF,,,,,,,,6.4162,,,,,,,,,,,,,,,,,,,,,,60ffb32808df73248acaee9f,61037783f215faab0a11fdd6,2021-07-29_20h55.32.950,Simcolourproject_2stim_asymm_v5,2020.2.10,MacIntel,60,61025ae37ef11b136ea224fe,,,,,,,,,1040,77.26641846,37.07427979,1,0,0,response1disk,,6,28.93560791,3.624328613,1,0,0,rectangle,-37.19909668,-56.25671387,1,0,0,8.688171387,3.12322998,1,0,0,0,45,45,90,1,,response5disk_3,TRUE,3,3,"[6,208,320,45,60,89,168,46,241,133,150,187,21,311,240,0,62,135,186,298]",2.2498,rectangle
,,,,,,,,,,,,,FF,,,,,,,,7.951,,,,,,,,,,,,,,,,,,,,,,60ffb32808df73248acaee9f,61037783f215faab0a11fdd6,2021-07-29_20h55.32.950,Simcolourproject_2stim_asymm_v5,2020.2.10,MacIntel,60,61025ae37ef11b136ea224fe,,,,,,,,,2102,38.02105713,-71.98669434,1,0,0,response3disk,,4,7.813232422,4.012176514,1,0,0,rectangle,7.813232422,4.012176514,1,0,0,7.813232422,4.012176514,1,0,0,0,46,46,75,1,,,,,,,,
,,,,,,,,,,,,,FF,,,,,,,,1.0002,,,,,,,,,,,,,,,,,,,,,,60ffb32808df73248acaee9f,61037783f215faab0a11fdd6,2021-07-29_20h55.32.950,Simcolourproject_2stim_asymm_v5,2020.2.10,MacIntel,60,61025ae37ef11b136ea224fe,,,,,,,,,4006,72.68579102,-70.20959473,1,0,0,response3disk,,5,-5.546875,1.589233398,1,0,0,rectangle,-5.546875,1.589233398,1,0,0,-5.546875,1.589233398,1,0,0,0,47,47,101,1,,,,,,,,
,,,,,,,,,,,,,FF,,,,,,,,1.0507,,,,,,,,,,,,,,,,,,,,,,60ffb32808df73248acaee9f,61037783f215faab0a11fdd6,2021-07-29_20h55.32.950,Simcolourproject_2stim_asymm_v5,2020.2.10,MacIntel,60,61025ae37ef11b136ea224fe,,,,,,,,,2537,67.2734375,17.23620605,1,0,0,response1disk,,6,-5.034790039,2.657836914,1,0,0,rectangle,-5.034790039,2.657836914,1,0,0,-5.034790039,2.657836914,1,0,0,0,48,48,139,1,,,,,,,,
,,,,,,,,,,,,,FF,,,,,,,,2.2342,,,,,,,,,,,,,,,,,,,,,,60ffb32808df73248acaee9f,61037783f215faab0a11fdd6,2021-07-29_20h55.32.950,Simcolourproject_2stim_asymm_v5,2020.2.10,MacIntel,60,61025ae37ef11b136ea224fe,,,,,,,,,3302,-26.17590332,-53.70898438,1,0,0,response5disk,,3,-9.911865234,-8.760498047,1,0,0,rectangle,-9.911865234,-8.760498047,1,0,0,-9.911865234,-8.760498047,1,0,0,0,49,49,129,1,,,,,,,,
,,,,,,,,,,,,,FF,,,,,,,,0.8338,,,,,,,,,,,,,,,,,,,,,,60ffb32808df73248acaee9f,61037783f215faab0a11fdd6,2021-07-29_20h55.32.950,Simcolourproject_2stim_asymm_v5,2020.2.10,MacIntel,60,61025ae37ef11b136ea224fe,,,,,,,,,340,-16.49267578,-60.19714355,1,0,0,response5disk,,3,0.699645996,3.90713501,1,0,0,rectangle,0.699645996,3.90713501,1,0,0,0.699645996,3.90713501,1,0,0,0,50,50,19,1,,,,,,,,
,,,,,,,,,,,,,FF,,,,,,,,0.8826,,,,,,,,,,,,,,,,,,,,,,60ffb32808df73248acaee9f,61037783f215faab0a11fdd6,2021-07-29_20h55.32.950,Simcolourproject_2stim_asymm_v5,2020.2.10,MacIntel,60,61025ae37ef11b136ea224fe,,,,,,,,,3787,81.05737305,42.6517334,1,0,0,response1disk,,6,6.208679199,-0.220825195,1,0,0,rectangle,6.208679199,-0.220825195,1,0,0,6.208679199,-0.220825195,1,0,0,0,51,51,142,1,,,,,,,,
,,,,,,,,,,,,,FF,,,,,,,,1.133,,,,,,,,,,,,,,,,,,,,,,60ffb32808df73248acaee9f,61037783f215faab0a11fdd6,2021-07-29_20h55.32.950,Simcolourproject_2stim_asymm_v5,2020.2.10,MacIntel,60,61025ae37ef11b136ea224fe,,,,,,,,,2798,38.94177246,-52.08508301,1,0,0,response3disk,,4,30.45672607,-10.9677124,1,0,0,rectangle,30.45672607,-10.9677124,1,0,0,30.45672607,-10.9677124,1,0,0,0,52,52,159,1,,,,,,,,
,,,,,,,,,,,,,FF,,,,,,,,1.1001,,,,,,,,,,,,,,,,,,,,,,60ffb32808df73248acaee9f,61037783f215faab0a11fdd6,2021-07-29_20h55.32.950,Simcolourproject_2stim_asymm_v5,2020.2.10,MacIntel,60,61025ae37ef11b136ea224fe,,,,,,,,,843,49.29089355,26.06149292,1,0,0,response1disk,,6,2.93927002,-1.301452637,1,0,0,rectangle,2.93927002,-1.301452637,1,0,0,2.93927002,-1.301452637,1,0,0,0,53,53,112,1,,,,,,,,
,,,,,,,,,,,,,FF,,,,,,,,0.7498,,,,,,,,,,,,,,,,,,,,,,60ffb32808df73248acaee9f,61037783f215faab0a11fdd6,2021-07-29_20h55.32.950,Simcolourproject_2stim_asymm_v5,2020.2.10,MacIntel,60,61025ae37ef11b136ea224fe,,,,,,,,,798,29.11657715,56.57333374,1,0,0,response1disk,,7,12.23504639,5.795135498,1,0,0,rectangle,12.23504639,5.795135498,1,0,0,12.23504639,5.795135498,1,0,0,0,54,54,64,1,,,,,,,,
,,,,,,,,,,,,,FF,,,,,,,,0.5494,,,,,,,,,,,,,,,,,,,,,,60ffb32808df73248acaee9f,61037783f215faab0a11fdd6,2021-07-29_20h55.32.950,Simcolourproject_2stim_asymm_v5,2020.2.10,MacIntel,60,61025ae37ef11b136ea224fe,,,,,,,,,3760,22.37750244,45.80212402,1,0,0,response1disk,,7,22.37750244,7.356689453,1,0,0,rectangle,22.37750244,7.356689453,1,0,0,22.37750244,7.356689453,1,0,0,0,55,55,27,1,,,,,,,,
,,,,,,,,,,,,,FF,,,,,,,,0.8502,,,,,,,,,,,,,,,,,,,,,,60ffb32808df73248acaee9f,61037783f215faab0a11fdd6,2021-07-29_20h55.32.950,Simcolourproject_2stim_asymm_v5,2020.2.10,MacIntel,60,61025ae37ef11b136ea224fe,,,,,,,,,3809,19.28997803,46.03491211,1,0,0,response1disk,,7,19.28997803,4.382629395,1,0,0,rectangle,19.28997803,4.382629395,1,0,0,19.28997803,4.382629395,1,0,0,0,56,56,74,1,,,,,,,,
,,,,,,,,,,,,,FF,,,,,,,,1.1501,,,,,,,,,,,,,,,,,,,,,,60ffb32808df73248acaee9f,61037783f215faab0a11fdd6,2021-07-29_20h55.32.950,Simcolourproject_2stim_asymm_v5,2020.2.10,MacIntel,60,61025ae37ef11b136ea224fe,,,,,,,,,3263,78.03936768,25.3190918,1,0,0,response1disk,,6,15.38659668,-4.612915039,1,0,0,rectangle,15.38659668,-4.612915039,1,0,0,15.38659668,-4.612915039,1,0,0,0,57,57,20,1,,,,,,,,
,,,,,,,,,,,,,FF,,,,,,,,0.7004,,,,,,,,,,,,,,,,,,,,,,60ffb32808df73248acaee9f,61037783f215faab0a11fdd6,2021-07-29_20h55.32.950,Simcolourproject_2stim_asymm_v5,2020.2.10,MacIntel,60,61025ae37ef11b136ea224fe,,,,,,,,,1701,51.16748047,-28.8991394,1,0,0,response3disk,,5,-2.75592041,4.409729004,1,0,0,rectangle,-2.75592041,4.409729004,1,0,0,-2.75592041,4.409729004,1,0,0,0,58,58,156,1,,,,,,,,
,,,,,,,,,,,,,FF,,,,,,,,1.0004,,,,,,,,,,,,,,,,,,,,,,60ffb32808df73248acaee9f,61037783f215faab0a11fdd6,2021-07-29_20h55.32.950,Simcolourproject_2stim_asymm_v5,2020.2.10,MacIntel,60,61025ae37ef11b136ea224fe,,,,,,,,,1729,76.04187012,46.93133545,1,0,0,response1disk,,6,12.20288086,-1.508087158,1,0,0,rectangle,-71.96411133,17.18231201,1,0,0,6.76171875,-3.689453125,1,0,0,0,59,59,152,1,,response7disk_3,TRUE,1,1,"[6,208,320,45,60,89,168,46,241,133,150,187,21,311,240,0,62,135,186,298]",1.9346,rectangle
,,,,,,,,,,,,,FF,,,,,,,,1.8156,,,,,,,,,,,,,,,,,,,,,,60ffb32808df73248acaee9f,61037783f215faab0a11fdd6,2021-07-29_20h55.32.950,Simcolourproject_2stim_asymm_v5,2020.2.10,MacIntel,60,61025ae37ef11b136ea224fe,,,,,,,,,1751,-71.67230225,-39.60369873,1,0,0,response5disk,,2,27.43798828,4.358093262,1,0,0,rectangle,27.43798828,4.358093262,1,0,0,27.43798828,4.358093262,1,0,0,0,60,60,11,1,,,,,,,,
,,,,,,,,,,,,,FF,,,,,,,,0.8339,,,,,,,,,,,,,,,,,,,,,,60ffb32808df73248acaee9f,61037783f215faab0a11fdd6,2021-07-29_20h55.32.950,Simcolourproject_2stim_asymm_v5,2020.2.10,MacIntel,60,61025ae37ef11b136ea224fe,,,,,,,,,4278,45.82891846,-31.11199951,1,0,0,response3disk,,5,7.979797363,3.830718994,1,0,0,rectangle,-36.93231201,66.27722168,1,0,0,-18.87097168,6.870727539,1,0,0,0,61,61,15,1,,response7disk_3,TRUE,0,0,"[6,208,320,45,60,89,168,46,241,133,150,187,21,311,240,0,62,135,186,298]",2.5829,rectangle
,,,,,,,,,,,,,FF,,,,,,,,1.2495,,,,,,,,,,,,,,,,,,,,,,60ffb32808df73248acaee9f,61037783f215faab0a11fdd6,2021-07-29_20h55.32.950,Simcolourproject_2stim_asymm_v5,2020.2.10,MacIntel,60,61025ae37ef11b136ea224fe,,,,,,,,,3142,-31.56567383,-60.71185303,1,0,0,response5disk,,3,14.51037598,3.84552002,1,0,0,rectangle,14.51037598,3.84552002,1,0,0,14.51037598,3.84552002,1,0,0,0,62,62,148,1,,,,,,,,
,,,,,,,,,,,,,FF,,,,,,,,0.8343,,,,,,,,,,,,,,,,,,,,,,60ffb32808df73248acaee9f,61037783f215faab0a11fdd6,2021-07-29_20h55.32.950,Simcolourproject_2stim_asymm_v5,2020.2.10,MacIntel,60,61025ae37ef11b136ea224fe,,,,,,,,,2172,72.19671631,-31.19970703,1,0,0,response3disk,,5,22.47979736,-4.161468506,1,0,0,rectangle,22.47979736,-4.161468506,1,0,0,22.47979736,-4.161468506,1,0,0,0,63,63,0,1,,,,,,,,
,,,,,,,,,,,,,FF,,,,,,,,0.6013,,,,,,,,,,,,,,,,,,,,,,60ffb32808df73248acaee9f,61037783f215faab0a11fdd6,2021-07-29_20h55.32.950,Simcolourproject_2stim_asymm_v5,2020.2.10,MacIntel,60,61025ae37ef11b136ea224fe,,,,,,,,,1365,74.46112061,46.65179443,1,0,0,response1disk,,6,-27.3112793,-1.120544434,1,0,0,rectangle,-27.3112793,-1.120544434,1,0,0,-27.3112793,-1.120544434,1,0,0,0,64,64,9,1,,,,,,,,
,,,,,,,,,,,,,FF,,,,,,,,0.8005,,,,,,,,,,,,,,,,,,,,,,60ffb32808df73248acaee9f,61037783f215faab0a11fdd6,2021-07-29_20h55.32.950,Simcolourproject_2stim_asymm_v5,2020.2.10,MacIntel,60,61025ae37ef11b136ea224fe,,,,,,,,,3011,32.9140625,67.02783203,1,0,0,response1disk,,7,31.12573242,14.43286133,1,0,0,rectangle,31.12573242,14.43286133,1,0,0,31.12573242,14.43286133,1,0,0,0,65,65,18,1,,,,,,,,
,,,,,,,,,,,,,FF,,,,,,,,0.7339,,,,,,,,,,,,,,,,,,,,,,60ffb32808df73248acaee9f,61037783f215faab0a11fdd6,2021-07-29_20h55.32.950,Simcolourproject_2stim_asymm_v5,2020.2.10,MacIntel,60,61025ae37ef11b136ea224fe,,,,,,,,,915,75.61029053,25.52764893,1,0,0,response1disk,,6,-13.50830078,-2.253479004,1,0,0,rectangle,-13.50830078,-2.253479004,1,0,0,-13.50830078,-2.253479004,1,0,0,0,66,66,50,1,,,,,,,,
,,,,,,,,,,,,,FF,,,,,,,,1.0504,,,,,,,,,,,,,,,,,,,,,,60ffb32808df73248acaee9f,61037783f215faab0a11fdd6,2021-07-29_20h55.32.950,Simcolourproject_2stim_asymm_v5,2020.2.10,MacIntel,60,61025ae37ef11b136ea224fe,,,,,,,,,1899,-30.19372559,-50.66564941,1,0,0,response5disk,,3,-27.16162109,-6.289642334,1,0,0,rectangle,-27.16162109,-6.289642334,1,0,0,-27.16162109,-6.289642334,1,0,0,0,67,67,67,1,,,,,,,,
,,,,,,,,,,,,,FF,,,,,,,,1.4663,,,,,,,,,,,,,,,,,,,,,,60ffb32808df73248acaee9f,61037783f215faab0a11fdd6,2021-07-29_20h55.32.950,Simcolourproject_2stim_asymm_v5,2020.2.10,MacIntel,60,61025ae37ef11b136ea224fe,,,,,,,,,4308,33.17785645,57.38345337,1,0,0,response1disk,,7,11.52233887,0.128417969,1,0,0,rectangle,11.52233887,0.128417969,1,0,0,11.52233887,0.128417969,1,0,0,0,68,68,70,1,,,,,,,,
,,,,,,,,,,,,,FF,,,,,,,,4.7158,,,,,,,,,,,,,,,,,,,,,,60ffb32808df73248acaee9f,61037783f215faab0a11fdd6,2021-07-29_20h55.32.950,Simcolourproject_2stim_asymm_v5,2020.2.10,MacIntel,60,61025ae37ef11b136ea224fe,,,,,,,,,1081,37.74249268,66.91534424,1,0,0,response1disk,,7,-14.64605713,-3.038421631,1,0,0,rectangle,-14.64605713,-3.038421631,1,0,0,-14.64605713,-3.038421631,1,0,0,0,69,69,136,1,,,,,,,,
,,,,,,,,,,,,,FF,,,,,,,,1.2668,,,,,,,,,,,,,,,,,,,,,,60ffb32808df73248acaee9f,61037783f215faab0a11fdd6,2021-07-29_20h55.32.950,Simcolourproject_2stim_asymm_v5,2020.2.10,MacIntel,60,61025ae37ef11b136ea224fe,,,,,,,,,760,58.58483887,30.39212036,1,0,0,response1disk,,6,10.08465576,-4.119995117,1,0,0,rectangle,10.08465576,-4.119995117,1,0,0,10.08465576,-4.119995117,1,0,0,0,70,70,80,1,,,,,,,,
,,,,,,,,,,,,,FF,,,,,,,,0.8167,,,,,,,,,,,,,,,,,,,,,,60ffb32808df73248acaee9f,61037783f215faab0a11fdd6,2021-07-29_20h55.32.950,Simcolourproject_2stim_asymm_v5,2020.2.10,MacIntel,60,61025ae37ef11b136ea224fe,,,,,,,,,2140,24.28063965,64.35296631,1,0,0,response1disk,,7,18.29223633,-0.29296875,1,0,0,rectangle,18.29223633,-0.29296875,1,0,0,18.29223633,-0.29296875,1,0,0,0,71,71,116,1,,,,,,,,
,,,,,,,,,,,,,FF,,,,,,,,0.9995,,,,,,,,,,,,,,,,,,,,,,60ffb32808df73248acaee9f,61037783f215faab0a11fdd6,2021-07-29_20h55.32.950,Simcolourproject_2stim_asymm_v5,2020.2.10,MacIntel,60,61025ae37ef11b136ea224fe,,,,,,,,,2837,-36.39904785,-71.21411133,1,0,0,response5disk,,3,-29.0927124,-1.353973389,1,0,0,rectangle,-29.0927124,-1.353973389,1,0,0,-29.0927124,-1.353973389,1,0,0,0,72,72,35,1,,,,,,,,
,,,,,,,,,,,,,FF,,,,,,,,0.9165,,,,,,,,,,,,,,,,,,,,,,60ffb32808df73248acaee9f,61037783f215faab0a11fdd6,2021-07-29_20h55.32.950,Simcolourproject_2stim_asymm_v5,2020.2.10,MacIntel,60,61025ae37ef11b136ea224fe,,,,,,,,,3281,31.95263672,61.12750244,1,0,0,response1disk,,7,14.59204102,-3.958557129,1,0,0,rectangle,14.59204102,-3.958557129,1,0,0,14.59204102,-3.958557129,1,0,0,0,73,73,110,1,,,,,,,,
,,,,,,,,,,,,,FF,,,,,,,,0.7336,,,,,,,,,,,,,,,,,,,,,,60ffb32808df73248acaee9f,61037783f215faab0a11fdd6,2021-07-29_20h55.32.950,Simcolourproject_2stim_asymm_v5,2020.2.10,MacIntel,60,61025ae37ef11b136ea224fe,,,,,,,,,2321,66.80041504,-27.70120239,1,0,0,response3disk,,5,-2.032836914,4.60559082,1,0,0,rectangle,-2.032836914,4.60559082,1,0,0,-2.032836914,4.60559082,1,0,0,0,74,74,14,1,,,,,,,,
,,,,,,,,,,,,,FF,,,,,,,,1.667,,,,,,,,,,,,,,,,,,,,,,60ffb32808df73248acaee9f,61037783f215faab0a11fdd6,2021-07-29_20h55.32.950,Simcolourproject_2stim_asymm_v5,2020.2.10,MacIntel,60,61025ae37ef11b136ea224fe,,,,,,,,,1683,-67.53265381,-34.82647705,1,0,0,response5disk,,2,-14.6340332,-3.720611572,1,0,0,rectangle,-14.6340332,-3.720611572,1,0,0,-14.6340332,-3.720611572,1,0,0,0,75,75,59,1,,,,,,,,
,,,,,,,,,,,,,FF,,,,,,,,0.7327,,,,,,,,,,,,,,,,,,,,,,60ffb32808df73248acaee9f,61037783f215faab0a11fdd6,2021-07-29_20h55.32.950,Simcolourproject_2stim_asymm_v5,2020.2.10,MacIntel,60,61025ae37ef11b136ea224fe,,,,,,,,,3707,-47.88867188,21.05749512,1,0,0,response7disk,,1,-3.859130859,-1.633117676,1,0,0,rectangle,-3.859130859,-1.633117676,1,0,0,-3.859130859,-1.633117676,1,0,0,0,76,76,95,1,,,,,,,,
,,,,,,,,,,,,,FF,,,,,,,,1.0167,,,,,,,,,,,,,,,,,,,,,,60ffb32808df73248acaee9f,61037783f215faab0a11fdd6,2021-07-29_20h55.32.950,Simcolourproject_2stim_asymm_v5,2020.2.10,MacIntel,60,61025ae37ef11b136ea224fe,,,,,,,,,841,-25.53125,-64.67913818,1,0,0,response5disk,,3,16.35876465,8.43145752,1,0,0,rectangle,16.35876465,8.43145752,1,0,0,16.35876465,8.43145752,1,0,0,0,77,77,77,1,,,,,,,,
,,,,,,,,,,,,,FF,,,,,,,,0.9674,,,,,,,,,,,,,,,,,,,,,,60ffb32808df73248acaee9f,61037783f215faab0a11fdd6,2021-07-29_20h55.32.950,Simcolourproject_2stim_asymm_v5,2020.2.10,MacIntel,60,61025ae37ef11b136ea224fe,,,,,,,,,1255,37.77178955,-69.54577637,1,0,0,response3disk,,4,16.04833984,9.164581299,1,0,0,rectangle,16.04833984,9.164581299,1,0,0,16.04833984,9.164581299,1,0,0,0,78,78,157,1,,,,,,,,
,,,,,,,,,,,,,FF,,,,,,,,0.8337,,,,,,,,,,,,,,,,,,,,,,60ffb32808df73248acaee9f,61037783f215faab0a11fdd6,2021-07-29_20h55.32.950,Simcolourproject_2stim_asymm_v5,2020.2.10,MacIntel,60,61025ae37ef11b136ea224fe,,,,,,,,,3411,58.03448486,27.26351929,1,0,0,response1disk,,6,-9.23425293,12.58050537,1,0,0,rectangle,-9.23425293,12.58050537,1,0,0,-9.23425293,12.58050537,1,0,0,0,79,79,26,1,,,,,,,,
,,,,,,,,,,,,,FF,,,,,,,,1.7666,,,,,,,,,,,,,,,,,,,,,,60ffb32808df73248acaee9f,61037783f215faab0a11fdd6,2021-07-29_20h55.32.950,Simcolourproject_2stim_asymm_v5,2020.2.10,MacIntel,60,61025ae37ef11b136ea224fe,,,,,,,,,2315,26.27050781,-79.20172119,1,0,0,response3disk,,4,-1.605163574,-8.511108398,1,0,0,rectangle,-1.605163574,-8.511108398,1,0,0,-1.605163574,-8.511108398,1,0,0,0,80,80,149,1,,,,,,,,
,,,,,,,,,,,,,FF,,,,,,,,2.1678,,,,,,,,,,,,,,,,,,,,,,60ffb32808df73248acaee9f,61037783f215faab0a11fdd6,2021-07-29_20h55.32.950,Simcolourproject_2stim_asymm_v5,2020.2.10,MacIntel,60,61025ae37ef11b136ea224fe,,,,,,,,,2343,77.64575195,26.56182861,1,0,0,response1disk,,6,6.159362793,-13.51171875,1,0,0,rectangle,6.159362793,-13.51171875,1,0,0,6.159362793,-13.51171875,1,0,0,0,81,81,7,1,,,,,,,,
,,,,,,,,,,,,,FF,,,,,,,,1.1998,,,,,,,,,,,,,,,,,,,,,,60ffb32808df73248acaee9f,61037783f215faab0a11fdd6,2021-07-29_20h55.32.950,Simcolourproject_2stim_asymm_v5,2020.2.10,MacIntel,60,61025ae37ef11b136ea224fe,,,,,,,,,3399,72.38024902,-47.89938354,1,0,0,response3disk,,5,18.21868896,-5.122528076,1,0,0,rectangle,18.21868896,-5.122528076,1,0,0,18.21868896,-5.122528076,1,0,0,0,82,82,13,1,,,,,,,,
,,,,,,,,,,,,,FF,,,,,,,,1.0004,,,,,,,,,,,,,,,,,,,,,,60ffb32808df73248acaee9f,61037783f215faab0a11fdd6,2021-07-29_20h55.32.950,Simcolourproject_2stim_asymm_v5,2020.2.10,MacIntel,60,61025ae37ef11b136ea224fe,,,,,,,,,2977,44.51696777,61.79586792,1,0,0,response1disk,,7,6.584533691,-2.410797119,1,0,0,rectangle,6.584533691,-2.410797119,1,0,0,6.584533691,-2.410797119,1,0,0,0,83,83,71,1,,,,,,,,
,,,,,,,,,,,,,FF,,,,,,,,0.7328,,,,,,,,,,,,,,,,,,,,,,60ffb32808df73248acaee9f,61037783f215faab0a11fdd6,2021-07-29_20h55.32.950,Simcolourproject_2stim_asymm_v5,2020.2.10,MacIntel,60,61025ae37ef11b136ea224fe,,,,,,,,,3220,63.49938965,32.8069458,1,0,0,response1disk,,6,17.99047852,12.95513916,1,0,0,rectangle,17.99047852,12.95513916,1,0,0,17.99047852,12.95513916,1,0,0,0,84,84,87,1,,,,,,,,
,,,,,,,,,,,,,FF,,,,,,,,0.6171,,,,,,,,,,,,,,,,,,,,,,60ffb32808df73248acaee9f,61037783f215faab0a11fdd6,2021-07-29_20h55.32.950,Simcolourproject_2stim_asymm_v5,2020.2.10,MacIntel,60,61025ae37ef11b136ea224fe,,,,,,,,,539,37.58874512,68.11645508,1,0,0,response1disk,,7,31.6574707,7.101867676,1,0,0,rectangle,31.6574707,7.101867676,1,0,0,31.6574707,7.101867676,1,0,0,0,85,85,81,1,,,,,,,,
,,,,,,,,,,,,,FF,,,,,,,,0.7832,,,,,,,,,,,,,,,,,,,,,,60ffb32808df73248acaee9f,61037783f215faab0a11fdd6,2021-07-29_20h55.32.950,Simcolourproject_2stim_asymm_v5,2020.2.10,MacIntel,60,61025ae37ef11b136ea224fe,,,,,,,,,2860,55.89855957,24.19873047,1,0,0,response1disk,,6,-7.059326172,7.72479248,1,0,0,rectangle,-7.059326172,7.72479248,1,0,0,-7.059326172,7.72479248,1,0,0,0,86,86,10,1,,,,,,,,
,,,,,,,,,,,,,FF,,,,,,,,1.284,,,,,,,,,,,,,,,,,,,,,,60ffb32808df73248acaee9f,61037783f215faab0a11fdd6,2021-07-29_20h55.32.950,Simcolourproject_2stim_asymm_v5,2020.2.10,MacIntel,60,61025ae37ef11b136ea224fe,,,,,,,,,1217,52.40258789,-49.16018677,1,0,0,response3disk,,5,13.39794922,-17.29443359,1,0,0,rectangle,13.39794922,-17.29443359,1,0,0,13.39794922,-17.29443359,1,0,0,0,87,87,22,1,,,,,,,,
,,,,,,,,,,,,,FF,,,,,,,,0.7156,,,,,,,,,,,,,,,,,,,,,,60ffb32808df73248acaee9f,61037783f215faab0a11fdd6,2021-07-29_20h55.32.950,Simcolourproject_2stim_asymm_v5,2020.2.10,MacIntel,60,61025ae37ef11b136ea224fe,,,,,,,,,4231,45.1539917,20.25665283,1,0,0,response1disk,,6,-8.705444336,-16.93731689,1,0,0,rectangle,80.00878906,39.71524048,1,0,0,6.898925781,17.27630615,1,0,0,0,88,88,99,1,,response1disk_3,TRUE,6,7,"[6,208,320,45,60,89,168,46,241,133,150,187,21,311,240,0,62,135,186,298]",2.1485,rectangle
,,,,,,,,,,,,,FF,,,,,,,,0.6007,,,,,,,,,,,,,,,,,,,,,,60ffb32808df73248acaee9f,61037783f215faab0a11fdd6,2021-07-29_20h55.32.950,Simcolourproject_2stim_asymm_v5,2020.2.10,MacIntel,60,61025ae37ef11b136ea224fe,,,,,,,,,3652,61.7677002,25.12399292,1,0,0,response1disk,,6,9.749084473,-6.527526855,1,0,0,rectangle,9.749084473,-6.527526855,1,0,0,9.749084473,-6.527526855,1,0,0,0,89,89,56,1,,,,,,,,
,,,,,,,,,,,,,FF,,,,,,,,0.7164,,,,,,,,,,,,,,,,,,,,,,60ffb32808df73248acaee9f,61037783f215faab0a11fdd6,2021-07-29_20h55.32.950,Simcolourproject_2stim_asymm_v5,2020.2.10,MacIntel,60,61025ae37ef11b136ea224fe,,,,,,,,,3696,30.94232178,64.82803345,1,0,0,response1disk,,7,22.39752197,-5.109558105,1,0,0,rectangle,22.39752197,-5.109558105,1,0,0,22.39752197,-5.109558105,1,0,0,0,90,90,143,1,,,,,,,,
,,,,,,,,,,,,,FF,,,,,,,,0.8841,,,,,,,,,,,,,,,,,,,,,,60ffb32808df73248acaee9f,61037783f215faab0a11fdd6,2021-07-29_20h55.32.950,Simcolourproject_2stim_asymm_v5,2020.2.10,MacIntel,60,61025ae37ef11b136ea224fe,,,,,,,,,3098,-49.66680908,24.96600342,1,0,0,response7disk,,1,-9.748962402,5.678649902,1,0,0,rectangle,-9.748962402,5.678649902,1,0,0,-9.748962402,5.678649902,1,0,0,0,91,91,72,1,,,,,,,,
,,,,,,,,,,,,,FF,,,,,,,,0.7152,,,,,,,,,,,,,,,,,,,,,,60ffb32808df73248acaee9f,61037783f215faab0a11fdd6,2021-07-29_20h55.32.950,Simcolourproject_2stim_asymm_v5,2020.2.10,MacIntel,60,61025ae37ef11b136ea224fe,,,,,,,,,717,-30.26031494,67.79858398,1,0,0,response7disk,,0,0.193237305,-12.21697998,1,0,0,rectangle,0.193237305,-12.21697998,1,0,0,0.193237305,-12.21697998,1,0,0,0,92,92,12,1,,,,,,,,
,,,,,,,,,,,,,FF,,,,,,,,2.3333,,,,,,,,,,,,,,,,,,,,,,60ffb32808df73248acaee9f,61037783f215faab0a11fdd6,2021-07-29_20h55.32.950,Simcolourproject_2stim_asymm_v5,2020.2.10,MacIntel,60,61025ae37ef11b136ea224fe,,,,,,,,,4328,-44.30218506,-64.18310547,1,0,0,response5disk,,3,-2.262939453,0.84475708,1,0,0,rectangle,-2.262939453,0.84475708,1,0,0,-2.262939453,0.84475708,1,0,0,0,93,93,37,1,,,,,,,,
,,,,,,,,,,,,,FF,,,,,,,,1.2666,,,,,,,,,,,,,,,,,,,,,,60ffb32808df73248acaee9f,61037783f215faab0a11fdd6,2021-07-29_20h55.32.950,Simcolourproject_2stim_asymm_v5,2020.2.10,MacIntel,60,61025ae37ef11b136ea224fe,,,,,,,,,4220,71.67565918,-37.71380615,1,0,0,response3disk,,5,15.85522461,-10.17156982,1,0,0,rectangle,15.85522461,-10.17156982,1,0,0,15.85522461,-10.17156982,1,0,0,0,94,94,150,1,,,,,,,,
,,,,,,,,,,,,,FF,,,,,,,,1.1167,,,,,,,,,,,,,,,,,,,,,,60ffb32808df73248acaee9f,61037783f215faab0a11fdd6,2021-07-29_20h55.32.950,Simcolourproject_2stim_asymm_v5,2020.2.10,MacIntel,60,61025ae37ef11b136ea224fe,,,,,,,,,3488,28.793396,75.75915527,1,0,0,response1disk,,7,5.331359863,-12.09008789,1,0,0,rectangle,5.331359863,-12.09008789,1,0,0,5.331359863,-12.09008789,1,0,0,0,95,95,69,1,,,,,,,,
,,,,,,,,,,,,,FF,,,,,,,,0.6829,,,,,,,,,,,,,,,,,,,,,,60ffb32808df73248acaee9f,61037783f215faab0a11fdd6,2021-07-29_20h55.32.950,Simcolourproject_2stim_asymm_v5,2020.2.10,MacIntel,60,61025ae37ef11b136ea224fe,,,,,,,,,1706,32.92468262,58.25067139,1,0,0,response1disk,,7,18.19763184,2.913269043,1,0,0,rectangle,18.19763184,2.913269043,1,0,0,18.19763184,2.913269043,1,0,0,0,96,96,97,1,,,,,,,,
,,,,,,,,,,,,,FF,,,,,,,,1.1161,,,,,,,,,,,,,,,,,,,,,,60ffb32808df73248acaee9f,61037783f215faab0a11fdd6,2021-07-29_20h55.32.950,Simcolourproject_2stim_asymm_v5,2020.2.10,MacIntel,60,61025ae37ef11b136ea224fe,,,,,,,,,3997,24.18280029,-66.83850098,1,0,0,response3disk,,4,4.343505859,8.723754883,1,0,0,rectangle,4.343505859,8.723754883,1,0,0,4.343505859,8.723754883,1,0,0,0,97,97,60,1,,,,,,,,
,,,,,,,,,,,,,FF,,,,,,,,1.0989,,,,,,,,,,,,,,,,,,,,,,60ffb32808df73248acaee9f,61037783f215faab0a11fdd6,2021-07-29_20h55.32.950,Simcolourproject_2stim_asymm_v5,2020.2.10,MacIntel,60,61025ae37ef11b136ea224fe,,,,,,,,,143,71.61181641,-32.21112061,1,0,0,response3disk,,5,11.19665527,-5.26663208,1,0,0,rectangle,11.19665527,-5.26663208,1,0,0,11.19665527,-5.26663208,1,0,0,0,98,98,36,1,,,,,,,,
,,,,,,,,,,,,,FF,,,,,,,,0.6338,,,,,,,,,,,,,,,,,,,,,,60ffb32808df73248acaee9f,61037783f215faab0a11fdd6,2021-07-29_20h55.32.950,Simcolourproject_2stim_asymm_v5,2020.2.10,MacIntel,60,61025ae37ef11b136ea224fe,,,,,,,,,3868,98.10388184,45.98620605,1,0,0,response1disk,,6,-17.58227539,-14.15478516,1,0,0,rectangle,-17.58227539,-14.15478516,1,0,0,-17.58227539,-14.15478516,1,0,0,0,99,99,61,1,,,,,,,,
,,,,,,,,,,,,,FF,,,,,,,,1.984,,,,,,,,,,,,,,,,,,,,,,60ffb32808df73248acaee9f,61037783f215faab0a11fdd6,2021-07-29_20h55.32.950,Simcolourproject_2stim_asymm_v5,2020.2.10,MacIntel,60,61025ae37ef11b136ea224fe,,,,,,,,,3194,28.69750977,49.63238525,1,0,0,response1disk,,7,25.74383545,5.687072754,1,0,0,rectangle,25.74383545,5.687072754,1,0,0,25.74383545,5.687072754,1,0,0,0,100,100,47,1,,,,,,,,
,,,,,,,,,,,,,FF,,,,,,,,0.818,,,,,,,,,,,,,,,,,,,,,,60ffb32808df73248acaee9f,61037783f215faab0a11fdd6,2021-07-29_20h55.32.950,Simcolourproject_2stim_asymm_v5,2020.2.10,MacIntel,60,61025ae37ef11b136ea224fe,,,,,,,,,962,28.67419434,72.67202759,1,0,0,response1disk,,7,22.68792725,5.709960938,1,0,0,rectangle,22.68792725,5.709960938,1,0,0,22.68792725,5.709960938,1,0,0,0,101,101,29,1,,,,,,,,
,,,,,,,,,,,,,FF,,,,,,,,0.7495,,,,,,,,,,,,,,,,,,,,,,60ffb32808df73248acaee9f,61037783f215faab0a11fdd6,2021-07-29_20h55.32.950,Simcolourproject_2stim_asymm_v5,2020.2.10,MacIntel,60,61025ae37ef11b136ea224fe,,,,,,,,,3077,74.69592285,24.61071777,1,0,0,response1disk,,6,3.999572754,2.892791748,1,0,0,rectangle,3.999572754,2.892791748,1,0,0,3.999572754,2.892791748,1,0,0,0,102,102,3,1,,,,,,,,
,,,,,,,,,,,,,FF,,,,,,,,0.8173,,,,,,,,,,,,,,,,,,,,,,60ffb32808df73248acaee9f,61037783f215faab0a11fdd6,2021-07-29_20h55.32.950,Simcolourproject_2stim_asymm_v5,2020.2.10,MacIntel,60,61025ae37ef11b136ea224fe,,,,,,,,,2924,64.42681885,-25.75692749,1,0,0,response3disk,,5,11.52789307,-4.593017578,1,0,0,rectangle,11.52789307,-4.593017578,1,0,0,11.52789307,-4.593017578,1,0,0,0,103,103,1,1,,,,,,,,
,,,,,,,,,,,,,FF,,,,,,,,1.3491,,,,,,,,,,,,,,,,,,,,,,60ffb32808df73248acaee9f,61037783f215faab0a11fdd6,2021-07-29_20h55.32.950,Simcolourproject_2stim_asymm_v5,2020.2.10,MacIntel,60,61025ae37ef11b136ea224fe,,,,,,,,,1903,57.4564209,28.73052979,1,0,0,response1disk,,6,-4.959716797,-2.731445313,1,0,0,rectangle,-4.959716797,-2.731445313,1,0,0,-4.959716797,-2.731445313,1,0,0,0,104,104,45,1,,,,,,,,
,,,,,,,,,,,,,FF,,,,,,,,0.6501,,,,,,,,,,,,,,,,,,,,,,60ffb32808df73248acaee9f,61037783f215faab0a11fdd6,2021-07-29_20h55.32.950,Simcolourproject_2stim_asymm_v5,2020.2.10,MacIntel,60,61025ae37ef11b136ea224fe,,,,,,,,,1884,23.18688965,55.44909668,1,0,0,response1disk,,7,10.58721924,11.55358887,1,0,0,rectangle,10.58721924,11.55358887,1,0,0,10.58721924,11.55358887,1,0,0,0,105,105,88,1,,,,,,,,
,,,,,,,,,,,,,FF,,,,,,,,0.5996,,,,,,,,,,,,,,,,,,,,,,60ffb32808df73248acaee9f,61037783f215faab0a11fdd6,2021-07-29_20h55.32.950,Simcolourproject_2stim_asymm_v5,2020.2.10,MacIntel,60,61025ae37ef11b136ea224fe,,,,,,,,,3757,26.9755249,44.29373169,1,0,0,response1disk,,7,22.49450684,-3.741760254,1,0,0,rectangle,22.49450684,-3.741760254,1,0,0,22.49450684,-3.741760254,1,0,0,0,106,106,79,1,,,,,,,,
,,,,,,,,,,,,,FF,,,,,,,,1.9828,,,,,,,,,,,,,,,,,,,,,,60ffb32808df73248acaee9f,61037783f215faab0a11fdd6,2021-07-29_20h55.32.950,Simcolourproject_2stim_asymm_v5,2020.2.10,MacIntel,60,61025ae37ef11b136ea224fe,,,,,,,,,1305,24.1015625,62.65588379,1,0,0,response1disk,,7,10.58728027,-5.129211426,1,0,0,rectangle,10.58728027,-5.129211426,1,0,0,10.58728027,-5.129211426,1,0,0,0,107,107,78,1,,,,,,,,
,,,,,,,,,,,,,FF,,,,,,,,1.2495,,,,,,,,,,,,,,,,,,,,,,60ffb32808df73248acaee9f,61037783f215faab0a11fdd6,2021-07-29_20h55.32.950,Simcolourproject_2stim_asymm_v5,2020.2.10,MacIntel,60,61025ae37ef11b136ea224fe,,,,,,,,,1904,66.83190918,31.06695557,1,0,0,response1disk,,6,14.39111328,3.250274658,1,0,0,rectangle,14.39111328,3.250274658,1,0,0,14.39111328,3.250274658,1,0,0,0,108,108,23,1,,,,,,,,
,,,,,,,,,,,,,FF,,,,,,,,1.1508,,,,,,,,,,,,,,,,,,,,,,60ffb32808df73248acaee9f,61037783f215faab0a11fdd6,2021-07-29_20h55.32.950,Simcolourproject_2stim_asymm_v5,2020.2.10,MacIntel,60,61025ae37ef11b136ea224fe,,,,,,,,,950,-21.6361084,-56.31115723,1,0,0,response5disk,,3,-9.337890625,1.049377441,1,0,0,rectangle,-9.337890625,1.049377441,1,0,0,-9.337890625,1.049377441,1,0,0,0,109,109,120,1,,,,,,,,
,,,,,,,,,,,,,FF,,,,,,,,0.8834,,,,,,,,,,,,,,,,,,,,,,60ffb32808df73248acaee9f,61037783f215faab0a11fdd6,2021-07-29_20h55.32.950,Simcolourproject_2stim_asymm_v5,2020.2.10,MacIntel,60,61025ae37ef11b136ea224fe,,,,,,,,,2687,62.38885498,-46.73034668,1,0,0,response3disk,,5,16.20257568,-15.34152222,1,0,0,rectangle,16.20257568,-15.34152222,1,0,0,16.20257568,-15.34152222,1,0,0,0,110,110,42,1,,,,,,,,
,,,,,,,,,,,,,FF,,,,,,,,0.8831,,,,,,,,,,,,,,,,,,,,,,60ffb32808df73248acaee9f,61037783f215faab0a11fdd6,2021-07-29_20h55.32.950,Simcolourproject_2stim_asymm_v5,2020.2.10,MacIntel,60,61025ae37ef11b136ea224fe,,,,,,,,,3295,-37.11395264,-51.26080322,1,0,0,response5disk,,3,-18.99615479,8.787475586,1,0,0,rectangle,-18.99615479,8.787475586,1,0,0,-18.99615479,8.787475586,1,0,0,0,111,111,138,1,,,,,,,,
,,,,,,,,,,,,,FF,,,,,,,,0.8665,,,,,,,,,,,,,,,,,,,,,,60ffb32808df73248acaee9f,61037783f215faab0a11fdd6,2021-07-29_20h55.32.950,Simcolourproject_2stim_asymm_v5,2020.2.10,MacIntel,60,61025ae37ef11b136ea224fe,,,,,,,,,1458,-75.11761475,-25.66061401,1,0,0,response5disk,,2,2.858764648,-4.052429199,1,0,0,rectangle,2.858764648,-4.052429199,1,0,0,2.858764648,-4.052429199,1,0,0,0,112,112,131,1,,,,,,,,
,,,,,,,,,,,,,FF,,,,,,,,0.701,,,,,,,,,,,,,,,,,,,,,,60ffb32808df73248acaee9f,61037783f215faab0a11fdd6,2021-07-29_20h55.32.950,Simcolourproject_2stim_asymm_v5,2020.2.10,MacIntel,60,61025ae37ef11b136ea224fe,,,,,,,,,1510,23.41217041,41.64202881,1,0,0,response1disk,,7,14.19598389,0.637054443,1,0,0,rectangle,14.19598389,0.637054443,1,0,0,14.19598389,0.637054443,1,0,0,0,113,113,39,1,,,,,,,,
,,,,,,,,,,,,,FF,,,,,,,,1.366,,,,,,,,,,,,,,,,,,,,,,60ffb32808df73248acaee9f,61037783f215faab0a11fdd6,2021-07-29_20h55.32.950,Simcolourproject_2stim_asymm_v5,2020.2.10,MacIntel,60,61025ae37ef11b136ea224fe,,,,,,,,,4085,-74.44818115,-30.12014771,1,0,0,response5disk,,2,-17.28289795,-14.84246826,1,0,0,rectangle,-17.28289795,-14.84246826,1,0,0,-17.28289795,-14.84246826,1,0,0,0,114,114,125,1,,,,,,,,
,,,,,,,,,,,,,FF,,,,,,,,0.7662,,,,,,,,,,,,,,,,,,,,,,60ffb32808df73248acaee9f,61037783f215faab0a11fdd6,2021-07-29_20h55.32.950,Simcolourproject_2stim_asymm_v5,2020.2.10,MacIntel,60,61025ae37ef11b136ea224fe,,,,,,,,,2737,-27.20739746,-46.15753174,1,0,0,response5disk,,3,-16.40808105,-9.325561523,1,0,0,rectangle,-16.40808105,-9.325561523,1,0,0,-16.40808105,-9.325561523,1,0,0,0,115,115,40,1,,,,,,,,
,,,,,,,,,,,,,FF,,,,,,,,0.6335,,,,,,,,,,,,,,,,,,,,,,60ffb32808df73248acaee9f,61037783f215faab0a11fdd6,2021-07-29_20h55.32.950,Simcolourproject_2stim_asymm_v5,2020.2.10,MacIntel,60,61025ae37ef11b136ea224fe,,,,,,,,,868,54.51977539,-21.09375,1,0,0,response3disk,,5,18.34228516,-2.701782227,1,0,0,rectangle,18.34228516,-2.701782227,1,0,0,18.34228516,-2.701782227,1,0,0,0,116,116,43,1,,,,,,,,
,,,,,,,,,,,,,FF,,,,,,,,0.7338,,,,,,,,,,,,,,,,,,,,,,60ffb32808df73248acaee9f,61037783f215faab0a11fdd6,2021-07-29_20h55.32.950,Simcolourproject_2stim_asymm_v5,2020.2.10,MacIntel,60,61025ae37ef11b136ea224fe,,,,,,,,,1618,-38.28369141,-56.89263916,1,0,0,response5disk,,3,-16.80413818,-11.4934082,1,0,0,rectangle,-16.80413818,-11.4934082,1,0,0,-16.80413818,-11.4934082,1,0,0,0,117,117,135,1,,,,,,,,
,,,,,,,,,,,,,FF,,,,,,,,1.384,,,,,,,,,,,,,,,,,,,,,,60ffb32808df73248acaee9f,61037783f215faab0a11fdd6,2021-07-29_20h55.32.950,Simcolourproject_2stim_asymm_v5,2020.2.10,MacIntel,60,61025ae37ef11b136ea224fe,,,,,,,,,2447,40.65466309,20.01654053,1,0,0,response1disk,,6,-30.49694824,-9.004760742,1,0,0,rectangle,-30.49694824,-9.004760742,1,0,0,-30.49694824,-9.004760742,1,0,0,0,118,118,91,1,,,,,,,,
,,,,,,,,,,,,,FF,,,,,,,,2.7008,,,,,,,,,,,,,,,,,,,,,,60ffb32808df73248acaee9f,61037783f215faab0a11fdd6,2021-07-29_20h55.32.950,Simcolourproject_2stim_asymm_v5,2020.2.10,MacIntel,60,61025ae37ef11b136ea224fe,,,,,,,,,2781,59.44207764,31.87893677,1,0,0,response1disk,,6,1.516601563,-4.650268555,1,0,0,rectangle,1.516601563,-4.650268555,1,0,0,1.516601563,-4.650268555,1,0,0,0,119,119,38,1,,,,,,,,
,,,,,,,,,,,,,FF,,,,,,,,2.9171,,,,,,,,,,,,,,,,,,,,,,60ffb32808df73248acaee9f,61037783f215faab0a11fdd6,2021-07-29_20h55.32.950,Simcolourproject_2stim_asymm_v5,2020.2.10,MacIntel,60,61025ae37ef11b136ea224fe,,,,,,,,,3192,50.27893066,-38.09741211,1,0,0,response3disk,,5,0.155151367,-13.25500488,1,0,0,rectangle,0.155151367,-13.25500488,1,0,0,0.155151367,-13.25500488,1,0,0,0,120,120,73,1,,,,,,,,
,,,,,,,,,,,,,FF,,,,,,,,1.1509,,,,,,,,,,,,,,,,,,,,,,60ffb32808df73248acaee9f,61037783f215faab0a11fdd6,2021-07-29_20h55.32.950,Simcolourproject_2stim_asymm_v5,2020.2.10,MacIntel,60,61025ae37ef11b136ea224fe,,,,,,,,,1747,-25.62683105,-42.85067749,1,0,0,response5disk,,3,-6.633483887,1.573242188,1,0,0,rectangle,-6.633483887,1.573242188,1,0,0,-6.633483887,1.573242188,1,0,0,0,121,121,89,1,,,,,,,,
,,,,,,,,,,,,,FF,,,,,,,,0.6326,,,,,,,,,,,,,,,,,,,,,,60ffb32808df73248acaee9f,61037783f215faab0a11fdd6,2021-07-29_20h55.32.950,Simcolourproject_2stim_asymm_v5,2020.2.10,MacIntel,60,61025ae37ef11b136ea224fe,,,,,,,,,4341,39.34973145,25.20040894,1,0,0,response1disk,,6,-3.292297363,3.556365967,1,0,0,rectangle,-3.292297363,3.556365967,1,0,0,-3.292297363,3.556365967,1,0,0,0,122,122,94,1,,,,,,,,
,,,,,,,,,,,,,FF,,,,,,,,3.3833,,,,,,,,,,,,,,,,,,,,,,60ffb32808df73248acaee9f,61037783f215faab0a11fdd6,2021-07-29_20h55.32.950,Simcolourproject_2stim_asymm_v5,2020.2.10,MacIntel,60,61025ae37ef11b136ea224fe,,,,,,,,,755,51.05371094,47.29260254,1,0,0,response1disk,,6,-13.89141846,10.94836426,1,0,0,rectangle,-13.89141846,10.94836426,1,0,0,-13.89141846,10.94836426,1,0,0,0,123,123,86,1,,,,,,,,
,,,,,,,,,,,,,FF,,,,,,,,1.4001,,,,,,,,,,,,,,,,,,,,,,60ffb32808df73248acaee9f,61037783f215faab0a11fdd6,2021-07-29_20h55.32.950,Simcolourproject_2stim_asymm_v5,2020.2.10,MacIntel,60,61025ae37ef11b136ea224fe,,,,,,,,,1885,88.39990234,18.90460205,1,0,0,response1disk,,6,20.01202393,0.441040039,1,0,0,rectangle,20.01202393,0.441040039,1,0,0,20.01202393,0.441040039,1,0,0,0,124,124,158,1,,,,,,,,
,,,,,,,,,,,,,FF,,,,,,,,0.9507,,,,,,,,,,,,,,,,,,,,,,60ffb32808df73248acaee9f,61037783f215faab0a11fdd6,2021-07-29_20h55.32.950,Simcolourproject_2stim_asymm_v5,2020.2.10,MacIntel,60,61025ae37ef11b136ea224fe,,,,,,,,,3995,-22.35998535,-49.39602661,1,0,0,response5disk,,3,-14.94799805,3.141357422,1,0,0,rectangle,-14.94799805,3.141357422,1,0,0,-14.94799805,3.141357422,1,0,0,0,125,125,100,1,,,,,,,,
,,,,,,,,,,,,,FF,,,,,,,,0.8495,,,,,,,,,,,,,,,,,,,,,,60ffb32808df73248acaee9f,61037783f215faab0a11fdd6,2021-07-29_20h55.32.950,Simcolourproject_2stim_asymm_v5,2020.2.10,MacIntel,60,61025ae37ef11b136ea224fe,,,,,,,,,1624,70.15863037,-35.35925293,1,0,0,response3disk,,5,12.57287598,-9.093688965,1,0,0,rectangle,12.57287598,-9.093688965,1,0,0,12.57287598,-9.093688965,1,0,0,0,126,126,147,1,,,,,,,,
,,,,,,,,,,,,,FF,,,,,,,,0.5669,,,,,,,,,,,,,,,,,,,,,,60ffb32808df73248acaee9f,61037783f215faab0a11fdd6,2021-07-29_20h55.32.950,Simcolourproject_2stim_asymm_v5,2020.2.10,MacIntel,60,61025ae37ef11b136ea224fe,,,,,,,,,2809,29.92932129,-58.99291992,1,0,0,response3disk,,4,-6.693115234,-14.46707153,1,0,0,rectangle,-6.693115234,-14.46707153,1,0,0,-6.693115234,-14.46707153,1,0,0,0,127,127,34,1,,,,,,,,
,,,,,,,,,,,,,FF,,,,,,,,1.0996,,,,,,,,,,,,,,,,,,,,,,60ffb32808df73248acaee9f,61037783f215faab0a11fdd6,2021-07-29_20h55.32.950,Simcolourproject_2stim_asymm_v5,2020.2.10,MacIntel,60,61025ae37ef11b136ea224fe,,,,,,,,,1580,65.32855225,17.67376709,1,0,0,response1disk,,6,16.00134277,15.91241455,1,0,0,rectangle,16.00134277,15.91241455,1,0,0,16.00134277,15.91241455,1,0,0,0,128,128,82,1,,,,,,,,
,,,,,,,,,,,,,FF,,,,,,,,0.7671,,,,,,,,,,,,,,,,,,,,,,60ffb32808df73248acaee9f,61037783f215faab0a11fdd6,2021-07-29_20h55.32.950,Simcolourproject_2stim_asymm_v5,2020.2.10,MacIntel,60,61025ae37ef11b136ea224fe,,,,,,,,,4046,-55.17260742,28.28500366,1,0,0,response7disk,,1,-7.760009766,7.391967773,1,0,0,rectangle,-7.760009766,7.391967773,1,0,0,-7.760009766,7.391967773,1,0,0,0,129,129,123,1,,,,,,,,
,,,,,,,,,,,,,FF,,,,,,,,1.9007,,,,,,,,,,,,,,,,,,,,,,60ffb32808df73248acaee9f,61037783f215faab0a11fdd6,2021-07-29_20h55.32.950,Simcolourproject_2stim_asymm_v5,2020.2.10,MacIntel,60,61025ae37ef11b136ea224fe,,,,,,,,,2811,61.41699219,-31.53509521,1,0,0,response3disk,,5,31.19433594,-0.985168457,1,0,0,rectangle,31.19433594,-0.985168457,1,0,0,31.19433594,-0.985168457,1,0,0,0,130,130,111,1,,,,,,,,
,,,,,,,,,,,,,FF,,,,,,,,1.8331,,,,,,,,,,,,,,,,,,,,,,60ffb32808df73248acaee9f,61037783f215faab0a11fdd6,2021-07-29_20h55.32.950,Simcolourproject_2stim_asymm_v5,2020.2.10,MacIntel,60,61025ae37ef11b136ea224fe,,,,,,,,,424,20.06915283,-76.73974609,1,0,0,response3disk,,4,26.73986816,-16.47625732,1,0,0,rectangle,26.73986816,-16.47625732,1,0,0,26.73986816,-16.47625732,1,0,0,0,131,131,5,1,,,,,,,,
,,,,,,,,,,,,,FF,,,,,,,,0.8332,,,,,,,,,,,,,,,,,,,,,,60ffb32808df73248acaee9f,61037783f215faab0a11fdd6,2021-07-29_20h55.32.950,Simcolourproject_2stim_asymm_v5,2020.2.10,MacIntel,60,61025ae37ef11b136ea224fe,,,,,,,,,2972,41.57928467,29.27893066,1,0,0,response1disk,,6,7.733642578,-9.185546875,1,0,0,rectangle,-48.25305176,24.4859314,1,0,0,-15.53833008,7.115905762,1,0,0,0,132,132,134,1,,response7disk_3,TRUE,1,1,"[6,208,320,45,60,89,168,46,241,133,150,187,21,311,240,0,62,135,186,298]",1.6154,rectangle
,,,,,,,,,,,,,FF,,,,,,,,2.0167,,,,,,,,,,,,,,,,,,,,,,60ffb32808df73248acaee9f,61037783f215faab0a11fdd6,2021-07-29_20h55.32.950,Simcolourproject_2stim_asymm_v5,2020.2.10,MacIntel,60,61025ae37ef11b136ea224fe,,,,,,,,,218,62.05078125,-31.31814575,1,0,0,response3disk,,5,-0.572692871,9.056549072,1,0,0,rectangle,-0.572692871,9.056549072,1,0,0,-0.572692871,9.056549072,1,0,0,0,133,133,58,1,,,,,,,,
,,,,,,,,,,,,,FF,,,,,,,,0.8828,,,,,,,,,,,,,,,,,,,,,,60ffb32808df73248acaee9f,61037783f215faab0a11fdd6,2021-07-29_20h55.32.950,Simcolourproject_2stim_asymm_v5,2020.2.10,MacIntel,60,61025ae37ef11b136ea224fe,,,,,,,,,3802,32.081604,60.85821533,1,0,0,response1disk,,7,13.4208374,5.568878174,1,0,0,rectangle,88.18273926,33.012146,1,0,0,13.2845459,0.875183105,1,0,0,0,134,134,117,1,,response1disk_3,TRUE,6,6,"[6,208,320,45,60,89,168,46,241,133,150,187,21,311,240,0,62,135,186,298]",2.0186,rectangle
,,,,,,,,,,,,,FF,,,,,,,,2.0171,,,,,,,,,,,,,,,,,,,,,,60ffb32808df73248acaee9f,61037783f215faab0a11fdd6,2021-07-29_20h55.32.950,Simcolourproject_2stim_asymm_v5,2020.2.10,MacIntel,60,61025ae37ef11b136ea224fe,,,,,,,,,2558,31.11639404,56.2635498,1,0,0,response1disk,,7,15.63183594,-1.547851563,1,0,0,rectangle,15.63183594,-1.547851563,1,0,0,15.63183594,-1.547851563,1,0,0,0,135,135,65,1,,,,,,,,
,,,,,,,,,,,,,FF,,,,,,,,0.9005,,,,,,,,,,,,,,,,,,,,,,60ffb32808df73248acaee9f,61037783f215faab0a11fdd6,2021-07-29_20h55.32.950,Simcolourproject_2stim_asymm_v5,2020.2.10,MacIntel,60,61025ae37ef11b136ea224fe,,,,,,,,,1214,62.05328369,-30.5642395,1,0,0,response3disk,,5,12.94891357,-14.14620972,1,0,0,rectangle,12.94891357,-14.14620972,1,0,0,12.94891357,-14.14620972,1,0,0,0,136,136,17,1,,,,,,,,
,,,,,,,,,,,,,FF,,,,,,,,1.033,,,,,,,,,,,,,,,,,,,,,,60ffb32808df73248acaee9f,61037783f215faab0a11fdd6,2021-07-29_20h55.32.950,Simcolourproject_2stim_asymm_v5,2020.2.10,MacIntel,60,61025ae37ef11b136ea224fe,,,,,,,,,437,-37.56188965,-65.48400879,1,0,0,response5disk,,3,-27.48474121,-6.726470947,1,0,0,rectangle,-27.48474121,-6.726470947,1,0,0,-27.48474121,-6.726470947,1,0,0,0,137,137,153,1,,,,,,,,
,,,,,,,,,,,,,FF,,,,,,,,3.0326,,,,,,,,,,,,,,,,,,,,,,60ffb32808df73248acaee9f,61037783f215faab0a11fdd6,2021-07-29_20h55.32.950,Simcolourproject_2stim_asymm_v5,2020.2.10,MacIntel,60,61025ae37ef11b136ea224fe,,,,,,,,,4169,50.30603027,34.92944336,1,0,0,response1disk,,6,-26.35168457,-2.676513672,1,0,0,rectangle,-26.35168457,-2.676513672,1,0,0,-26.35168457,-2.676513672,1,0,0,0,138,138,130,1,,,,,,,,
,,,,,,,,,,,,,FF,,,,,,,,1.1171,,,,,,,,,,,,,,,,,,,,,,60ffb32808df73248acaee9f,61037783f215faab0a11fdd6,2021-07-29_20h55.32.950,Simcolourproject_2stim_asymm_v5,2020.2.10,MacIntel,60,61025ae37ef11b136ea224fe,,,,,,,,,178,50.99951172,-52.6739502,1,0,0,response3disk,,4,-15.378479,5.249420166,1,0,0,rectangle,-15.378479,5.249420166,1,0,0,-15.378479,5.249420166,1,0,0,0,139,139,33,1,,,,,,,,
,,,,,,,,,,,,,FF,,,,,,,,0.6011,,,,,,,,,,,,,,,,,,,,,,60ffb32808df73248acaee9f,61037783f215faab0a11fdd6,2021-07-29_20h55.32.950,Simcolourproject_2stim_asymm_v5,2020.2.10,MacIntel,60,61025ae37ef11b136ea224fe,,,,,,,,,2073,41.20300293,20.77496338,1,0,0,response1disk,,6,14.58630371,9.928527832,1,0,0,rectangle,14.58630371,9.928527832,1,0,0,14.58630371,9.928527832,1,0,0,0,140,140,32,1,,,,,,,,
,,,,,,,,,,,,,FF,,,,,,,,0.8012,,,,,,,,,,,,,,,,,,,,,,60ffb32808df73248acaee9f,61037783f215faab0a11fdd6,2021-07-29_20h55.32.950,Simcolourproject_2stim_asymm_v5,2020.2.10,MacIntel,60,61025ae37ef11b136ea224fe,,,,,,,,,3598,-16.33709717,-69.9317627,1,0,0,response5disk,,3,7.144104004,11.51251221,1,0,0,rectangle,7.144104004,11.51251221,1,0,0,7.144104004,11.51251221,1,0,0,0,141,141,113,1,,,,,,,,
,,,,,,,,,,,,,FF,,,,,,,,1.1656,,,,,,,,,,,,,,,,,,,,,,60ffb32808df73248acaee9f,61037783f215faab0a11fdd6,2021-07-29_20h55.32.950,Simcolourproject_2stim_asymm_v5,2020.2.10,MacIntel,60,61025ae37ef11b136ea224fe,,,,,,,,,988,49.93878174,-61.64941406,1,0,0,response3disk,,4,-5.120483398,4.799316406,1,0,0,rectangle,-5.120483398,4.799316406,1,0,0,-5.120483398,4.799316406,1,0,0,0,142,142,85,1,,,,,,,,
,,,,,,,,,,,,,FF,,,,,,,,0.8497,,,,,,,,,,,,,,,,,,,,,,60ffb32808df73248acaee9f,61037783f215faab0a11fdd6,2021-07-29_20h55.32.950,Simcolourproject_2stim_asymm_v5,2020.2.10,MacIntel,60,61025ae37ef11b136ea224fe,,,,,,,,,1866,37.42773438,61.44720459,1,0,0,response1disk,,7,26.22076416,7.642028809,1,0,0,rectangle,26.22076416,7.642028809,1,0,0,26.22076416,7.642028809,1,0,0,0,143,143,151,1,,,,,,,,
,,,,,,,,,,,,,FF,,,,,,,,1.0501,,,,,,,,,,,,,,,,,,,,,,60ffb32808df73248acaee9f,61037783f215faab0a11fdd6,2021-07-29_20h55.32.950,Simcolourproject_2stim_asymm_v5,2020.2.10,MacIntel,60,61025ae37ef11b136ea224fe,,,,,,,,,671,58.15753174,24.22399902,1,0,0,response1disk,,6,27.00238037,2.139343262,1,0,0,rectangle,27.00238037,2.139343262,1,0,0,27.00238037,2.139343262,1,0,0,0,144,144,145,1,,,,,,,,
,,,,,,,,,,,,,FF,,,,,,,,0.683,,,,,,,,,,,,,,,,,,,,,,60ffb32808df73248acaee9f,61037783f215faab0a11fdd6,2021-07-29_20h55.32.950,Simcolourproject_2stim_asymm_v5,2020.2.10,MacIntel,60,61025ae37ef11b136ea224fe,,,,,,,,,36,55.05566406,-31.18569946,1,0,0,response3disk,,5,11.69140625,-11.8001709,1,0,0,rectangle,11.69140625,-11.8001709,1,0,0,11.69140625,-11.8001709,1,0,0,0,145,145,108,1,,,,,,,,
,,,,,,,,,,,,,FF,,,,,,,,0.8166,,,,,,,,,,,,,,,,,,,,,,60ffb32808df73248acaee9f,61037783f215faab0a11fdd6,2021-07-29_20h55.32.950,Simcolourproject_2stim_asymm_v5,2020.2.10,MacIntel,60,61025ae37ef11b136ea224fe,,,,,,,,,3044,33.75305176,67.31011963,1,0,0,response1disk,,7,21.20550537,3.830841064,1,0,0,rectangle,21.20550537,3.830841064,1,0,0,21.20550537,3.830841064,1,0,0,0,146,146,93,1,,,,,,,,
,,,,,,,,,,,,,FF,,,,,,,,1.4005,,,,,,,,,,,,,,,,,,,,,,60ffb32808df73248acaee9f,61037783f215faab0a11fdd6,2021-07-29_20h55.32.950,Simcolourproject_2stim_asymm_v5,2020.2.10,MacIntel,60,61025ae37ef11b136ea224fe,,,,,,,,,2735,-25.22277832,-52.03457642,1,0,0,response5disk,,3,11.32489014,5.983764648,1,0,0,rectangle,11.32489014,5.983764648,1,0,0,11.32489014,5.983764648,1,0,0,0,147,147,57,1,,,,,,,,
,,,,,,,,,,,,,FF,,,,,,,,1.2504,,,,,,,,,,,,,,,,,,,,,,60ffb32808df73248acaee9f,61037783f215faab0a11fdd6,2021-07-29_20h55.32.950,Simcolourproject_2stim_asymm_v5,2020.2.10,MacIntel,60,61025ae37ef11b136ea224fe,,,,,,,,,763,38.18994141,-76.8013916,1,0,0,response3disk,,4,2.841918945,-0.218994141,1,0,0,rectangle,2.841918945,-0.218994141,1,0,0,2.841918945,-0.218994141,1,0,0,0,148,148,126,1,,,,,,,,
,,,,,,,,,,,,,FF,,,,,,,,0.6665,,,,,,,,,,,,,,,,,,,,,,60ffb32808df73248acaee9f,61037783f215faab0a11fdd6,2021-07-29_20h55.32.950,Simcolourproject_2stim_asymm_v5,2020.2.10,MacIntel,60,61025ae37ef11b136ea224fe,,,,,,,,,689,63.55895996,-43.92434692,1,0,0,response3disk,,5,10.07336426,-13.84790039,1,0,0,rectangle,-48.14453125,90.96911621,1,0,0,-1.413818359,3.110931396,1,0,0,0,149,149,144,1,,response7disk_3,TRUE,0,0,"[6,208,320,45,60,89,168,46,241,133,150,187,21,311,240,0,62,135,186,298]",3.2821,rectangle
,,,,,,,,,,,,,FF,,,,,,,,0.9327,,,,,,,,,,,,,,,,,,,,,,60ffb32808df73248acaee9f,61037783f215faab0a11fdd6,2021-07-29_20h55.32.950,Simcolourproject_2stim_asymm_v5,2020.2.10,MacIntel,60,61025ae37ef11b136ea224fe,,,,,,,,,2551,-22.86206055,-53.24456787,1,0,0,response5disk,,3,-11.23046875,-3.175720215,1,0,0,rectangle,-11.23046875,-3.175720215,1,0,0,-11.23046875,-3.175720215,1,0,0,0,150,150,66,1,,,,,,,,
,,,,,,,,,,,,,FF,,,,,,,,0.7671,,,,,,,,,,,,,,,,,,,,,,60ffb32808df73248acaee9f,61037783f215faab0a11fdd6,2021-07-29_20h55.32.950,Simcolourproject_2stim_asymm_v5,2020.2.10,MacIntel,60,61025ae37ef11b136ea224fe,,,,,,,,,4247,70.70465088,-25.40658569,1,0,0,response3disk,,5,28.9699707,10.24420166,1,0,0,rectangle,28.9699707,10.24420166,1,0,0,28.9699707,10.24420166,1,0,0,0,151,151,53,1,,,,,,,,
,,,,,,,,,,,,,FF,,,,,,,,0.7833,,,,,,,,,,,,,,,,,,,,,,60ffb32808df73248acaee9f,61037783f215faab0a11fdd6,2021-07-29_20h55.32.950,Simcolourproject_2stim_asymm_v5,2020.2.10,MacIntel,60,61025ae37ef11b136ea224fe,,,,,,,,,1768,30.20275879,-48.05233765,1,0,0,response3disk,,4,8.270996094,-5.000732422,1,0,0,rectangle,8.270996094,-5.000732422,1,0,0,8.270996094,-5.000732422,1,0,0,0,152,152,103,1,,,,,,,,
,,,,,,,,,,,,,FF,,,,,,,,0.6336,,,,,,,,,,,,,,,,,,,,,,60ffb32808df73248acaee9f,61037783f215faab0a11fdd6,2021-07-29_20h55.32.950,Simcolourproject_2stim_asymm_v5,2020.2.10,MacIntel,60,61025ae37ef11b136ea224fe,,,,,,,,,3798,62.10290527,14.75360107,1,0,0,response1disk,,6,21.44958496,9.505187988,1,0,0,rectangle,21.44958496,9.505187988,1,0,0,21.44958496,9.505187988,1,0,0,0,153,153,118,1,,,,,,,,
,,,,,,,,,,,,,FF,,,,,,,,1.9995,,,,,,,,,,,,,,,,,,,,,,60ffb32808df73248acaee9f,61037783f215faab0a11fdd6,2021-07-29_20h55.32.950,Simcolourproject_2stim_asymm_v5,2020.2.10,MacIntel,60,61025ae37ef11b136ea224fe,,,,,,,,,3897,-38.73620605,-59.7164917,1,0,0,response5disk,,3,20.11340332,6.440124512,1,0,0,rectangle,20.11340332,6.440124512,1,0,0,20.11340332,6.440124512,1,0,0,0,154,154,51,1,,,,,,,,
,,,,,,,,,,,,,FF,,,,,,,,0.9344,,,,,,,,,,,,,,,,,,,,,,60ffb32808df73248acaee9f,61037783f215faab0a11fdd6,2021-07-29_20h55.32.950,Simcolourproject_2stim_asymm_v5,2020.2.10,MacIntel,60,61025ae37ef11b136ea224fe,,,,,,,,,733,57.578125,-39.14743042,1,0,0,response3disk,,5,7.790039063,1.205322266,1,0,0,rectangle,7.790039063,1.205322266,1,0,0,7.790039063,1.205322266,1,0,0,0,155,155,107,1,,,,,,,,
,,,,,,,,,,,,,FF,,,,,,,,2.2666,,,,,,,,,,,,,,,,,,,,,,60ffb32808df73248acaee9f,61037783f215faab0a11fdd6,2021-07-29_20h55.32.950,Simcolourproject_2stim_asymm_v5,2020.2.10,MacIntel,60,61025ae37ef11b136ea224fe,,,,,,,,,1629,80.66705322,36.98425293,1,0,0,response1disk,,6,-0.388061523,-7.145690918,1,0,0,rectangle,-0.388061523,-7.145690918,1,0,0,-0.388061523,-7.145690918,1,0,0,0,156,156,115,1,,,,,,,,
,,,,,,,,,,,,,FF,,,,,,,,1.9356,,,,,,,,,,,,,,,,,,,,,,60ffb32808df73248acaee9f,61037783f215faab0a11fdd6,2021-07-29_20h55.32.950,Simcolourproject_2stim_asymm_v5,2020.2.10,MacIntel,60,61025ae37ef11b136ea224fe,,,,,,,,,3917,32.52642822,-28.6741333,1,0,0,response3disk,,5,0.850036621,12.99334717,1,0,0,rectangle,0.850036621,12.99334717,1,0,0,0.850036621,12.99334717,1,0,0,0,157,157,63,1,,,,,,,,
,,,,,,,,,,,,,FF,,,,,,,,0.9673,,,,,,,,,,,,,,,,,,,,,,60ffb32808df73248acaee9f,61037783f215faab0a11fdd6,2021-07-29_20h55.32.950,Simcolourproject_2stim_asymm_v5,2020.2.10,MacIntel,60,61025ae37ef11b136ea224fe,,,,,,,,,504,58.70068359,35.23901367,1,0,0,response1disk,,6,17.18408203,10.43179321,1,0,0,rectangle,17.18408203,10.43179321,1,0,0,17.18408203,10.43179321,1,0,0,0,158,158,104,1,,,,,,,,
,,,,,,,,,,,,,FF,,,,,,,,2.0001,,,,,,,,,,,,,,,,,,,,,,60ffb32808df73248acaee9f,61037783f215faab0a11fdd6,2021-07-29_20h55.32.950,Simcolourproject_2stim_asymm_v5,2020.2.10,MacIntel,60,61025ae37ef11b136ea224fe,,,,,,,,,3736,57.21984863,25.41516113,1,0,0,response1disk,,6,0.5703125,2.035522461,1,0,0,rectangle,0.5703125,2.035522461,1,0,0,0.5703125,2.035522461,1,0,0,0,159,159,146,1,,,,,,,,
,,,,,,,,,,,,,FF,,,,,,,,0.9168,,,,,,,,,,,,,,,,,,,,,,60ffb32808df73248acaee9f,61037783f215faab0a11fdd6,2021-07-29_20h55.32.950,Simcolourproject_2stim_asymm_v5,2020.2.10,MacIntel,60,61025ae37ef11b136ea224fe,,,,,,,,,1444,31.89135742,55.76818848,1,0,0,response1disk,,7,27.79046631,-6.181182861,1,0,0,rectangle,27.79046631,-6.181182861,1,0,0,27.79046631,-6.181182861,1,0,0,1,0,160,67,1,,,,,,,,
,,,,,,,,,,,,,FF,,,,,,,,0.8183,,,,,,,,,,,,,,,,,,,,,,60ffb32808df73248acaee9f,61037783f215faab0a11fdd6,2021-07-29_20h55.32.950,Simcolourproject_2stim_asymm_v5,2020.2.10,MacIntel,60,61025ae37ef11b136ea224fe,,,,,,,,,3607,41.82897949,-37.37249756,1,0,0,response3disk,,5,13.74395752,-15.31039429,1,0,0,rectangle,13.74395752,-15.31039429,1,0,0,13.74395752,-15.31039429,1,0,0,1,1,161,156,1,,,,,,,,
,,,,,,,,,,,,,FF,,,,,,,,1.2525,,,,,,,,,,,,,,,,,,,,,,60ffb32808df73248acaee9f,61037783f215faab0a11fdd6,2021-07-29_20h55.32.950,Simcolourproject_2stim_asymm_v5,2020.2.10,MacIntel,60,61025ae37ef11b136ea224fe,,,,,,,,,1200,27.29956055,-56.52966309,1,0,0,response3disk,,4,26.8215332,14.85345459,1,0,0,rectangle,26.8215332,14.85345459,1,0,0,26.8215332,14.85345459,1,0,0,1,2,162,55,1,,,,,,,,
,,,,,,,,,,,,,FF,,,,,,,,0.733,,,,,,,,,,,,,,,,,,,,,,60ffb32808df73248acaee9f,61037783f215faab0a11fdd6,2021-07-29_20h55.32.950,Simcolourproject_2stim_asymm_v5,2020.2.10,MacIntel,60,61025ae37ef11b136ea224fe,,,,,,,,,4286,73.12884521,28.6859436,1,0,0,response1disk,,6,30.71557617,5.725616455,1,0,0,rectangle,30.71557617,5.725616455,1,0,0,30.71557617,5.725616455,1,0,0,1,3,163,97,1,,,,,,,,
,,,,,,,,,,,,,FF,,,,,,,,0.9495,,,,,,,,,,,,,,,,,,,,,,60ffb32808df73248acaee9f,61037783f215faab0a11fdd6,2021-07-29_20h55.32.950,Simcolourproject_2stim_asymm_v5,2020.2.10,MacIntel,60,61025ae37ef11b136ea224fe,,,,,,,,,3342,-30.31890869,-52.10638428,1,0,0,response5disk,,3,-27.36828613,-6.07611084,1,0,0,rectangle,-27.36828613,-6.07611084,1,0,0,-27.36828613,-6.07611084,1,0,0,1,4,164,36,1,,,,,,,,
,,,,,,,,,,,,,FF,,,,,,,,1.5506,,,,,,,,,,,,,,,,,,,,,,60ffb32808df73248acaee9f,61037783f215faab0a11fdd6,2021-07-29_20h55.32.950,Simcolourproject_2stim_asymm_v5,2020.2.10,MacIntel,60,61025ae37ef11b136ea224fe,,,,,,,,,1361,58.82073975,-42.70458984,1,0,0,response3disk,,5,2.301513672,-10.71075439,1,0,0,rectangle,2.301513672,-10.71075439,1,0,0,2.301513672,-10.71075439,1,0,0,1,5,165,1,1,,,,,,,,
,,,,,,,,,,,,,FF,,,,,,,,2.4686,,,,,,,,,,,,,,,,,,,,,,60ffb32808df73248acaee9f,61037783f215faab0a11fdd6,2021-07-29_20h55.32.950,Simcolourproject_2stim_asymm_v5,2020.2.10,MacIntel,60,61025ae37ef11b136ea224fe,,,,,,,,,1425,67.58813477,27.27102661,1,0,0,response1disk,,6,17.66552734,-1.164916992,1,0,0,rectangle,17.66552734,-1.164916992,1,0,0,17.66552734,-1.164916992,1,0,0,1,6,166,144,1,,,,,,,,
,,,,,,,,,,,,,FF,,,,,,,,0.7667,,,,,,,,,,,,,,,,,,,,,,60ffb32808df73248acaee9f,61037783f215faab0a11fdd6,2021-07-29_20h55.32.950,Simcolourproject_2stim_asymm_v5,2020.2.10,MacIntel,60,61025ae37ef11b136ea224fe,,,,,,,,,208,52.06323242,26.12210083,1,0,0,response1disk,,6,6.280273438,5.511291504,1,0,0,rectangle,-24.41131592,-84.68682861,1,0,0,-3.654602051,-2.483581543,1,0,0,1,7,167,149,1,,response5disk_3,TRUE,3,3,"[6,208,320,45,60,89,168,46,241,133,150,187,21,311,240,0,62,135,186,298]",2.049,rectangle
,,,,,,,,,,,,,FF,,,,,,,,0.9332,,,,,,,,,,,,,,,,,,,,,,60ffb32808df73248acaee9f,61037783f215faab0a11fdd6,2021-07-29_20h55.32.950,Simcolourproject_2stim_asymm_v5,2020.2.10,MacIntel,60,61025ae37ef11b136ea224fe,,,,,,,,,3679,-31.05950928,-61.83544922,1,0,0,response5disk,,3,-26.28070068,-7.981170654,1,0,0,rectangle,-26.28070068,-7.981170654,1,0,0,-26.28070068,-7.981170654,1,0,0,1,8,168,113,1,,,,,,,,
,,,,,,,,,,,,,FF,,,,,,,,0.7995,,,,,,,,,,,,,,,,,,,,,,60ffb32808df73248acaee9f,61037783f215faab0a11fdd6,2021-07-29_20h55.32.950,Simcolourproject_2stim_asymm_v5,2020.2.10,MacIntel,60,61025ae37ef11b136ea224fe,,,,,,,,,718,-54.98956299,33.43359375,1,0,0,response7disk,,1,10.28765869,4.706604004,1,0,0,rectangle,10.28765869,4.706604004,1,0,0,10.28765869,4.706604004,1,0,0,1,9,169,52,1,,,,,,,,
,,,,,,,,,,,,,FF,,,,,,,,0.9163,,,,,,,,,,,,,,,,,,,,,,60ffb32808df73248acaee9f,61037783f215faab0a11fdd6,2021-07-29_20h55.32.950,Simcolourproject_2stim_asymm_v5,2020.2.10,MacIntel,60,61025ae37ef11b136ea224fe,,,,,,,,,1698,-63.7131958,-31.14733887,1,0,0,response5disk,,2,6.592712402,0.82824707,1,0,0,rectangle,6.592712402,0.82824707,1,0,0,6.592712402,0.82824707,1,0,0,1,10,170,66,1,,,,,,,,
,,,,,,,,,,,,,FF,,,,,,,,1.084,,,,,,,,,,,,,,,,,,,,,,60ffb32808df73248acaee9f,61037783f215faab0a11fdd6,2021-07-29_20h55.32.950,Simcolourproject_2stim_asymm_v5,2020.2.10,MacIntel,60,61025ae37ef11b136ea224fe,,,,,,,,,2387,71.89501953,-39.34606934,1,0,0,response3disk,,5,-14.8404541,0.282958984,1,0,0,rectangle,-14.8404541,0.282958984,1,0,0,-14.8404541,0.282958984,1,0,0,1,11,171,139,1,,,,,,,,
,,,,,,,,,,,,,FF,,,,,,,,0.9678,,,,,,,,,,,,,,,,,,,,,,60ffb32808df73248acaee9f,61037783f215faab0a11fdd6,2021-07-29_20h55.32.950,Simcolourproject_2stim_asymm_v5,2020.2.10,MacIntel,60,61025ae37ef11b136ea224fe,,,,,,,,,3849,-49.94512939,21.18817139,1,0,0,response7disk,,1,-6.818481445,10.9074707,1,0,0,rectangle,-6.818481445,10.9074707,1,0,0,-6.818481445,10.9074707,1,0,0,1,12,172,70,1,,,,,,,,
,,,,,,,,,,,,,FF,,,,,,,,1.0503,,,,,,,,,,,,,,,,,,,,,,60ffb32808df73248acaee9f,61037783f215faab0a11fdd6,2021-07-29_20h55.32.950,Simcolourproject_2stim_asymm_v5,2020.2.10,MacIntel,60,61025ae37ef11b136ea224fe,,,,,,,,,2678,-40.80157471,-67.21307373,1,0,0,response5disk,,3,-17.91223145,3.249816895,1,0,0,rectangle,-17.91223145,3.249816895,1,0,0,-17.91223145,3.249816895,1,0,0,1,13,173,73,1,,,,,,,,
,,,,,,,,,,,,,FF,,,,,,,,0.6176,,,,,,,,,,,,,,,,,,,,,,60ffb32808df73248acaee9f,61037783f215faab0a11fdd6,2021-07-29_20h55.32.950,Simcolourproject_2stim_asymm_v5,2020.2.10,MacIntel,60,61025ae37ef11b136ea224fe,,,,,,,,,1887,-55.47241211,16.03759766,1,0,0,response7disk,,1,-3.898986816,0.675598145,1,0,0,rectangle,-3.898986816,0.675598145,1,0,0,-3.898986816,0.675598145,1,0,0,1,14,174,13,1,,,,,,,,
,,,,,,,,,,,,,FF,,,,,,,,1.0005,,,,,,,,,,,,,,,,,,,,,,60ffb32808df73248acaee9f,61037783f215faab0a11fdd6,2021-07-29_20h55.32.950,Simcolourproject_2stim_asymm_v5,2020.2.10,MacIntel,60,61025ae37ef11b136ea224fe,,,,,,,,,1375,-45.27349854,-28.60253906,1,0,0,response5disk,,2,-15.53570557,-0.405517578,1,0,0,rectangle,-15.53570557,-0.405517578,1,0,0,-15.53570557,-0.405517578,1,0,0,1,15,175,0,1,,,,,,,,
,,,,,,,,,,,,,FF,,,,,,,,0.8017,,,,,,,,,,,,,,,,,,,,,,60ffb32808df73248acaee9f,61037783f215faab0a11fdd6,2021-07-29_20h55.32.950,Simcolourproject_2stim_asymm_v5,2020.2.10,MacIntel,60,61025ae37ef11b136ea224fe,,,,,,,,,1657,19.5958252,46.00161743,1,0,0,response1disk,,7,12.79724121,-4.990905762,1,0,0,rectangle,12.79724121,-4.990905762,1,0,0,12.79724121,-4.990905762,1,0,0,1,16,176,77,1,,,,,,,,
,,,,,,,,,,,,,FF,,,,,,,,0.6002,,,,,,,,,,,,,,,,,,,,,,60ffb32808df73248acaee9f,61037783f215faab0a11fdd6,2021-07-29_20h55.32.950,Simcolourproject_2stim_asymm_v5,2020.2.10,MacIntel,60,61025ae37ef11b136ea224fe,,,,,,,,,1707,21.25256348,56.21343994,1,0,0,response1disk,,7,15.69561768,-1.522155762,1,0,0,rectangle,15.69561768,-1.522155762,1,0,0,15.69561768,-1.522155762,1,0,0,1,17,177,93,1,,,,,,,,
,,,,,,,,,,,,,FF,,,,,,,,0.7673,,,,,,,,,,,,,,,,,,,,,,60ffb32808df73248acaee9f,61037783f215faab0a11fdd6,2021-07-29_20h55.32.950,Simcolourproject_2stim_asymm_v5,2020.2.10,MacIntel,60,61025ae37ef11b136ea224fe,,,,,,,,,3453,73.68151855,37.17773438,1,0,0,response1disk,,6,18.90155029,6.035125732,1,0,0,rectangle,18.90155029,6.035125732,1,0,0,18.90155029,6.035125732,1,0,0,1,18,178,64,1,,,,,,,,
,,,,,,,,,,,,,FF,,,,,,,,0.5838,,,,,,,,,,,,,,,,,,,,,,60ffb32808df73248acaee9f,61037783f215faab0a11fdd6,2021-07-29_20h55.32.950,Simcolourproject_2stim_asymm_v5,2020.2.10,MacIntel,60,61025ae37ef11b136ea224fe,,,,,,,,,1075,62.29650879,30.89746094,1,0,0,response1disk,,6,31.51141357,10.50643921,1,0,0,rectangle,31.51141357,10.50643921,1,0,0,31.51141357,10.50643921,1,0,0,1,19,179,59,1,,,,,,,,
,,,,,,,,,,,,,FF,,,,,,,,0.4499,,,,,,,,,,,,,,,,,,,,,,60ffb32808df73248acaee9f,61037783f215faab0a11fdd6,2021-07-29_20h55.32.950,Simcolourproject_2stim_asymm_v5,2020.2.10,MacIntel,60,61025ae37ef11b136ea224fe,,,,,,,,,473,58.64831543,28.90307617,1,0,0,response1disk,,6,28.75500488,5.624328613,1,0,0,rectangle,28.75500488,5.624328613,1,0,0,28.75500488,5.624328613,1,0,0,1,20,180,30,1,,,,,,,,
,,,,,,,,,,,,,FF,,,,,,,,0.45,,,,,,,,,,,,,,,,,,,,,,60ffb32808df73248acaee9f,61037783f215faab0a11fdd6,2021-07-29_20h55.32.950,Simcolourproject_2stim_asymm_v5,2020.2.10,MacIntel,60,61025ae37ef11b136ea224fe,,,,,,,,,4177,59.26879883,35.06106567,1,0,0,response1disk,,6,3.009765625,-10.26495361,1,0,0,rectangle,3.009765625,-10.26495361,1,0,0,3.009765625,-10.26495361,1,0,0,1,21,181,19,1,,,,,,,,
,,,,,,,,,,,,,FF,,,,,,,,0.6171,,,,,,,,,,,,,,,,,,,,,,60ffb32808df73248acaee9f,61037783f215faab0a11fdd6,2021-07-29_20h55.32.950,Simcolourproject_2stim_asymm_v5,2020.2.10,MacIntel,60,61025ae37ef11b136ea224fe,,,,,,,,,4091,58.32312012,35.58963013,1,0,0,response1disk,,6,26.03985596,1.855712891,1,0,0,rectangle,26.03985596,1.855712891,1,0,0,26.03985596,1.855712891,1,0,0,1,22,182,15,1,,,,,,,,
,,,,,,,,,,,,,FF,,,,,,,,0.5333,,,,,,,,,,,,,,,,,,,,,,60ffb32808df73248acaee9f,61037783f215faab0a11fdd6,2021-07-29_20h55.32.950,Simcolourproject_2stim_asymm_v5,2020.2.10,MacIntel,60,61025ae37ef11b136ea224fe,,,,,,,,,1422,69.19110107,37.26333618,1,0,0,response1disk,,6,14.6494751,-9.698547363,1,0,0,rectangle,14.6494751,-9.698547363,1,0,0,14.6494751,-9.698547363,1,0,0,1,23,183,157,1,,,,,,,,
,,,,,,,,,,,,,FF,,,,,,,,1.0168,,,,,,,,,,,,,,,,,,,,,,60ffb32808df73248acaee9f,61037783f215faab0a11fdd6,2021-07-29_20h55.32.950,Simcolourproject_2stim_asymm_v5,2020.2.10,MacIntel,60,61025ae37ef11b136ea224fe,,,,,,,,,3741,-24.58496094,50.32913208,1,0,0,response7disk,,0,7.353881836,1.901916504,1,0,0,rectangle,7.353881836,1.901916504,1,0,0,7.353881836,1.901916504,1,0,0,1,24,184,159,1,,,,,,,,
,,,,,,,,,,,,,FF,,,,,,,,0.9013,,,,,,,,,,,,,,,,,,,,,,60ffb32808df73248acaee9f,61037783f215faab0a11fdd6,2021-07-29_20h55.32.950,Simcolourproject_2stim_asymm_v5,2020.2.10,MacIntel,60,61025ae37ef11b136ea224fe,,,,,,,,,1438,81.94506836,43.59692383,1,0,0,response1disk,,6,-19.05645752,-17.27435303,1,0,0,rectangle,-31.32519531,61.15167236,1,0,0,17.19567871,-8.972045898,1,0,0,1,25,185,126,1,,response7disk_3,TRUE,0,0,"[6,208,320,45,60,89,168,46,241,133,150,187,21,311,240,0,62,135,186,298]",1.8169,rectangle
,,,,,,,,,,,,,FF,,,,,,,,4.2164,,,,,,,,,,,,,,,,,,,,,,60ffb32808df73248acaee9f,61037783f215faab0a11fdd6,2021-07-29_20h55.32.950,Simcolourproject_2stim_asymm_v5,2020.2.10,MacIntel,60,61025ae37ef11b136ea224fe,,,,,,,,,2547,23.71264648,-66.35083008,1,0,0,response3disk,,4,-10.5838623,0.721160889,1,0,0,rectangle,-33.08947754,71.58929443,1,0,0,-26.45269775,3.100097656,1,0,0,1,26,186,119,1,,response7disk_3,TRUE,0,0,"[6,208,320,45,60,89,168,46,241,133,150,187,21,311,240,0,62,135,186,298]",2.2508,rectangle
,,,,,,,,,,,,,FF,,,,,,,,1.2664,,,,,,,,,,,,,,,,,,,,,,60ffb32808df73248acaee9f,61037783f215faab0a11fdd6,2021-07-29_20h55.32.950,Simcolourproject_2stim_asymm_v5,2020.2.10,MacIntel,60,61025ae37ef11b136ea224fe,,,,,,,,,4005,-29.99041748,-64.77227783,1,0,0,response5disk,,3,-29.7322998,5.89175415,1,0,0,rectangle,-29.7322998,5.89175415,1,0,0,-29.7322998,5.89175415,1,0,0,1,27,187,24,1,,,,,,,,
,,,,,,,,,,,,,FF,,,,,,,,1.2173,,,,,,,,,,,,,,,,,,,,,,60ffb32808df73248acaee9f,61037783f215faab0a11fdd6,2021-07-29_20h55.32.950,Simcolourproject_2stim_asymm_v5,2020.2.10,MacIntel,60,61025ae37ef11b136ea224fe,,,,,,,,,3000,-54.77697754,30.15597534,1,0,0,response7disk,,1,-15.86791992,4.397155762,1,0,0,rectangle,-15.86791992,4.397155762,1,0,0,-15.86791992,4.397155762,1,0,0,1,28,188,33,1,,,,,,,,
,,,,,,,,,,,,,FF,,,,,,,,0.6343,,,,,,,,,,,,,,,,,,,,,,60ffb32808df73248acaee9f,61037783f215faab0a11fdd6,2021-07-29_20h55.32.950,Simcolourproject_2stim_asymm_v5,2020.2.10,MacIntel,60,61025ae37ef11b136ea224fe,,,,,,,,,1068,-15.47094727,-58.71862793,1,0,0,response5disk,,3,-12.10327148,3.690795898,1,0,0,rectangle,-12.10327148,3.690795898,1,0,0,-12.10327148,3.690795898,1,0,0,1,29,189,138,1,,,,,,,,
,,,,,,,,,,,,,FF,,,,,,,,0.6502,,,,,,,,,,,,,,,,,,,,,,60ffb32808df73248acaee9f,61037783f215faab0a11fdd6,2021-07-29_20h55.32.950,Simcolourproject_2stim_asymm_v5,2020.2.10,MacIntel,60,61025ae37ef11b136ea224fe,,,,,,,,,2659,24.42150879,53.40606689,1,0,0,response1disk,,7,-9.508544922,-10.72467041,1,0,0,rectangle,-9.508544922,-10.72467041,1,0,0,-9.508544922,-10.72467041,1,0,0,1,30,190,125,1,,,,,,,,
,,,,,,,,,,,,,FF,,,,,,,,0.6998,,,,,,,,,,,,,,,,,,,,,,60ffb32808df73248acaee9f,61037783f215faab0a11fdd6,2021-07-29_20h55.32.950,Simcolourproject_2stim_asymm_v5,2020.2.10,MacIntel,60,61025ae37ef11b136ea224fe,,,,,,,,,1542,39.65344238,-47.53460693,1,0,0,response3disk,,4,9.41204834,-1.235107422,1,0,0,rectangle,9.41204834,-1.235107422,1,0,0,9.41204834,-1.235107422,1,0,0,1,31,191,86,1,,,,,,,,
,,,,,,,,,,,,,FF,,,,,,,,0.6307,,,,,,,,,,,,,,,,,,,,,,60ffb32808df73248acaee9f,61037783f215faab0a11fdd6,2021-07-29_20h55.32.950,Simcolourproject_2stim_asymm_v5,2020.2.10,MacIntel,60,61025ae37ef11b136ea224fe,,,,,,,,,2086,43.02832031,-28.68487549,1,0,0,response3disk,,5,8.65423584,12.70526123,1,0,0,rectangle,8.65423584,12.70526123,1,0,0,8.65423584,12.70526123,1,0,0,1,32,192,6,1,,,,,,,,
,,,,,,,,,,,,,FF,,,,,,,,0.6673,,,,,,,,,,,,,,,,,,,,,,60ffb32808df73248acaee9f,61037783f215faab0a11fdd6,2021-07-29_20h55.32.950,Simcolourproject_2stim_asymm_v5,2020.2.10,MacIntel,60,61025ae37ef11b136ea224fe,,,,,,,,,3893,44.88415527,15.35229492,1,0,0,response1disk,,6,-33.73126221,-12.22781372,1,0,0,rectangle,-33.73126221,-12.22781372,1,0,0,-33.73126221,-12.22781372,1,0,0,1,33,193,104,1,,,,,,,,
,,,,,,,,,,,,,FF,,,,,,,,0.817,,,,,,,,,,,,,,,,,,,,,,60ffb32808df73248acaee9f,61037783f215faab0a11fdd6,2021-07-29_20h55.32.950,Simcolourproject_2stim_asymm_v5,2020.2.10,MacIntel,60,61025ae37ef11b136ea224fe,,,,,,,,,1453,-44.56762695,-34.35412598,1,0,0,response5disk,,2,-10.28326416,-4.018920898,1,0,0,rectangle,-10.28326416,-4.018920898,1,0,0,-10.28326416,-4.018920898,1,0,0,1,34,194,16,1,,,,,,,,
,,,,,,,,,,,,,FF,,,,,,,,0.6667,,,,,,,,,,,,,,,,,,,,,,60ffb32808df73248acaee9f,61037783f215faab0a11fdd6,2021-07-29_20h55.32.950,Simcolourproject_2stim_asymm_v5,2020.2.10,MacIntel,60,61025ae37ef11b136ea224fe,,,,,,,,,2134,29.37689209,-63.61682129,1,0,0,response3disk,,4,5.350280762,-2.814575195,1,0,0,rectangle,5.350280762,-2.814575195,1,0,0,5.350280762,-2.814575195,1,0,0,1,35,195,152,1,,,,,,,,
,,,,,,,,,,,,,FF,,,,,,,,1.6003,,,,,,,,,,,,,,,,,,,,,,60ffb32808df73248acaee9f,61037783f215faab0a11fdd6,2021-07-29_20h55.32.950,Simcolourproject_2stim_asymm_v5,2020.2.10,MacIntel,60,61025ae37ef11b136ea224fe,,,,,,,,,356,-23.21453857,-51.16040039,1,0,0,response5disk,,3,-3.372436523,1.800231934,1,0,0,rectangle,-3.372436523,1.800231934,1,0,0,-3.372436523,1.800231934,1,0,0,1,36,196,11,1,,,,,,,,
,,,,,,,,,,,,,FF,,,,,,,,0.7329,,,,,,,,,,,,,,,,,,,,,,60ffb32808df73248acaee9f,61037783f215faab0a11fdd6,2021-07-29_20h55.32.950,Simcolourproject_2stim_asymm_v5,2020.2.10,MacIntel,60,61025ae37ef11b136ea224fe,,,,,,,,,1916,70.26745605,-22.72232056,1,0,0,response3disk,,5,10.96398926,11.72210693,1,0,0,rectangle,10.96398926,11.72210693,1,0,0,10.96398926,11.72210693,1,0,0,1,37,197,26,1,,,,,,,,
,,,,,,,,,,,,,FF,,,,,,,,0.75,,,,,,,,,,,,,,,,,,,,,,60ffb32808df73248acaee9f,61037783f215faab0a11fdd6,2021-07-29_20h55.32.950,Simcolourproject_2stim_asymm_v5,2020.2.10,MacIntel,60,61025ae37ef11b136ea224fe,,,,,,,,,2617,40.56750488,58.39349365,1,0,0,response1disk,,7,21.31903076,1.839599609,1,0,0,rectangle,21.31903076,1.839599609,1,0,0,21.31903076,1.839599609,1,0,0,1,38,198,102,1,,,,,,,,
,,,,,,,,,,,,,FF,,,,,,,,1.2334,,,,,,,,,,,,,,,,,,,,,,60ffb32808df73248acaee9f,61037783f215faab0a11fdd6,2021-07-29_20h55.32.950,Simcolourproject_2stim_asymm_v5,2020.2.10,MacIntel,60,61025ae37ef11b136ea224fe,,,,,,,,,2044,54.77197266,-57.70422363,1,0,0,response3disk,,4,13.52856445,-6.050537109,1,0,0,rectangle,13.52856445,-6.050537109,1,0,0,13.52856445,-6.050537109,1,0,0,1,39,199,9,1,,,,,,,,
,,,,,,,,,,,,,FF,,,,,,,,1.2157,,,,,,,,,,,,,,,,,,,,,,60ffb32808df73248acaee9f,61037783f215faab0a11fdd6,2021-07-29_20h55.32.950,Simcolourproject_2stim_asymm_v5,2020.2.10,MacIntel,60,61025ae37ef11b136ea224fe,,,,,,,,,780,-23.77655029,-51.15951538,1,0,0,response5disk,,3,-14.56896973,3.312988281,1,0,0,rectangle,-14.56896973,3.312988281,1,0,0,-14.56896973,3.312988281,1,0,0,1,40,200,63,1,,,,,,,,
,,,,,,,,,,,,,FF,,,,,,,,0.7323,,,,,,,,,,,,,,,,,,,,,,60ffb32808df73248acaee9f,61037783f215faab0a11fdd6,2021-07-29_20h55.32.950,Simcolourproject_2stim_asymm_v5,2020.2.10,MacIntel,60,61025ae37ef11b136ea224fe,,,,,,,,,502,80.41650391,36.05969238,1,0,0,response1disk,,6,4.602783203,4.977325439,1,0,0,rectangle,4.602783203,4.977325439,1,0,0,4.602783203,4.977325439,1,0,0,1,41,201,53,1,,,,,,,,
,,,,,,,,,,,,,FF,,,,,,,,0.7998,,,,,,,,,,,,,,,,,,,,,,60ffb32808df73248acaee9f,61037783f215faab0a11fdd6,2021-07-29_20h55.32.950,Simcolourproject_2stim_asymm_v5,2020.2.10,MacIntel,60,61025ae37ef11b136ea224fe,,,,,,,,,2059,17.31634521,51.19775391,1,0,0,response1disk,,7,17.31634521,1.035614014,1,0,0,rectangle,17.31634521,1.035614014,1,0,0,17.31634521,1.035614014,1,0,0,1,42,202,44,1,,,,,,,,
,,,,,,,,,,,,,FF,,,,,,,,0.9331,,,,,,,,,,,,,,,,,,,,,,60ffb32808df73248acaee9f,61037783f215faab0a11fdd6,2021-07-29_20h55.32.950,Simcolourproject_2stim_asymm_v5,2020.2.10,MacIntel,60,61025ae37ef11b136ea224fe,,,,,,,,,2208,27.35974121,68.46850586,1,0,0,response1disk,,7,24.08691406,-13.18164063,1,0,0,rectangle,24.08691406,-13.18164063,1,0,0,24.08691406,-13.18164063,1,0,0,1,43,203,136,1,,,,,,,,
,,,,,,,,,,,,,FF,,,,,,,,1.8343,,,,,,,,,,,,,,,,,,,,,,60ffb32808df73248acaee9f,61037783f215faab0a11fdd6,2021-07-29_20h55.32.950,Simcolourproject_2stim_asymm_v5,2020.2.10,MacIntel,60,61025ae37ef11b136ea224fe,,,,,,,,,3340,-37.64746094,-44.26550293,1,0,0,response5disk,,3,5.950500488,10.10113525,1,0,0,rectangle,5.950500488,10.10113525,1,0,0,5.950500488,10.10113525,1,0,0,1,44,204,98,1,,,,,,,,
,,,,,,,,,,,,,FF,,,,,,,,0.7508,,,,,,,,,,,,,,,,,,,,,,60ffb32808df73248acaee9f,61037783f215faab0a11fdd6,2021-07-29_20h55.32.950,Simcolourproject_2stim_asymm_v5,2020.2.10,MacIntel,60,61025ae37ef11b136ea224fe,,,,,,,,,1040,27.34448242,-54.65704346,1,0,0,response3disk,,4,12.05657959,-8.508850098,1,0,0,rectangle,12.05657959,-8.508850098,1,0,0,12.05657959,-8.508850098,1,0,0,1,45,205,145,1,,,,,,,,
,,,,,,,,,,,,,FF,,,,,,,,0.8008,,,,,,,,,,,,,,,,,,,,,,60ffb32808df73248acaee9f,61037783f215faab0a11fdd6,2021-07-29_20h55.32.950,Simcolourproject_2stim_asymm_v5,2020.2.10,MacIntel,60,61025ae37ef11b136ea224fe,,,,,,,,,2102,50.66638184,-23.44177246,1,0,0,response3disk,,5,17.38757324,2.106811523,1,0,0,rectangle,17.38757324,2.106811523,1,0,0,17.38757324,2.106811523,1,0,0,1,46,206,133,1,,,,,,,,
,,,,,,,,,,,,,FF,,,,,,,,1.6008,,,,,,,,,,,,,,,,,,,,,,60ffb32808df73248acaee9f,61037783f215faab0a11fdd6,2021-07-29_20h55.32.950,Simcolourproject_2stim_asymm_v5,2020.2.10,MacIntel,60,61025ae37ef11b136ea224fe,,,,,,,,,4006,49.15270996,-64.68225098,1,0,0,response3disk,,4,-1.779602051,-5.933349609,1,0,0,rectangle,-74.21917725,-39.45098877,1,0,0,-5.781433105,-0.545654297,1,0,0,1,47,207,80,1,,response5disk_3,TRUE,2,2,"[6,208,320,45,60,89,168,46,241,133,150,187,21,311,240,0,62,135,186,298]",1.717,rectangle
,,,,,,,,,,,,,FF,,,,,,,,1.3169,,,,,,,,,,,,,,,,,,,,,,60ffb32808df73248acaee9f,61037783f215faab0a11fdd6,2021-07-29_20h55.32.950,Simcolourproject_2stim_asymm_v5,2020.2.10,MacIntel,60,61025ae37ef11b136ea224fe,,,,,,,,,2537,46.88623047,29.92721558,1,0,0,response1disk,,6,10.93249512,13.79168701,1,0,0,rectangle,10.93249512,13.79168701,1,0,0,10.93249512,13.79168701,1,0,0,1,48,208,71,1,,,,,,,,
,,,,,,,,,,,,,FF,,,,,,,,1.1665,,,,,,,,,,,,,,,,,,,,,,60ffb32808df73248acaee9f,61037783f215faab0a11fdd6,2021-07-29_20h55.32.950,Simcolourproject_2stim_asymm_v5,2020.2.10,MacIntel,60,61025ae37ef11b136ea224fe,,,,,,,,,3302,51.71893311,-39.75286865,1,0,0,response3disk,,5,12.39428711,5.408996582,1,0,0,rectangle,12.39428711,5.408996582,1,0,0,12.39428711,5.408996582,1,0,0,1,49,209,34,1,,,,,,,,
,,,,,,,,,,,,,FF,,,,,,,,0.6999,,,,,,,,,,,,,,,,,,,,,,60ffb32808df73248acaee9f,61037783f215faab0a11fdd6,2021-07-29_20h55.32.950,Simcolourproject_2stim_asymm_v5,2020.2.10,MacIntel,60,61025ae37ef11b136ea224fe,,,,,,,,,340,24.03112793,-62.75244141,1,0,0,response3disk,,4,13.355896,-0.216339111,1,0,0,rectangle,13.355896,-0.216339111,1,0,0,13.355896,-0.216339111,1,0,0,1,50,210,105,1,,,,,,,,
,,,,,,,,,,,,,FF,,,,,,,,0.6494,,,,,,,,,,,,,,,,,,,,,,60ffb32808df73248acaee9f,61037783f215faab0a11fdd6,2021-07-29_20h55.32.950,Simcolourproject_2stim_asymm_v5,2020.2.10,MacIntel,60,61025ae37ef11b136ea224fe,,,,,,,,,3787,-37.32763672,-69.453125,1,0,0,response5disk,,3,0.185852051,-4.528808594,1,0,0,rectangle,0.185852051,-4.528808594,1,0,0,0.185852051,-4.528808594,1,0,0,1,51,211,141,1,,,,,,,,
,,,,,,,,,,,,,FF,,,,,,,,0.6178,,,,,,,,,,,,,,,,,,,,,,60ffb32808df73248acaee9f,61037783f215faab0a11fdd6,2021-07-29_20h55.32.950,Simcolourproject_2stim_asymm_v5,2020.2.10,MacIntel,60,61025ae37ef11b136ea224fe,,,,,,,,,2798,40.91607666,-50.09182739,1,0,0,response3disk,,4,32.27539063,-4.425598145,1,0,0,rectangle,32.27539063,-4.425598145,1,0,0,32.27539063,-4.425598145,1,0,0,1,52,212,83,1,,,,,,,,
,,,,,,,,,,,,,FF,,,,,,,,0.5338,,,,,,,,,,,,,,,,,,,,,,60ffb32808df73248acaee9f,61037783f215faab0a11fdd6,2021-07-29_20h55.32.950,Simcolourproject_2stim_asymm_v5,2020.2.10,MacIntel,60,61025ae37ef11b136ea224fe,,,,,,,,,843,52.0501709,-25.48547363,1,0,0,response3disk,,5,-11.10552979,7.218505859,1,0,0,rectangle,-11.10552979,7.218505859,1,0,0,-11.10552979,7.218505859,1,0,0,1,53,213,35,1,,,,,,,,
,,,,,,,,,,,,,FF,,,,,,,,0.6992,,,,,,,,,,,,,,,,,,,,,,60ffb32808df73248acaee9f,61037783f215faab0a11fdd6,2021-07-29_20h55.32.950,Simcolourproject_2stim_asymm_v5,2020.2.10,MacIntel,60,61025ae37ef11b136ea224fe,,,,,,,,,798,45.80560303,26.66870117,1,0,0,response1disk,,6,4.676940918,-2.965087891,1,0,0,rectangle,4.676940918,-2.965087891,1,0,0,4.676940918,-2.965087891,1,0,0,1,54,214,92,1,,,,,,,,
,,,,,,,,,,,,,FF,,,,,,,,0.6825,,,,,,,,,,,,,,,,,,,,,,60ffb32808df73248acaee9f,61037783f215faab0a11fdd6,2021-07-29_20h55.32.950,Simcolourproject_2stim_asymm_v5,2020.2.10,MacIntel,60,61025ae37ef11b136ea224fe,,,,,,,,,3760,-31.98840332,-58.09844971,1,0,0,response5disk,,3,2.63873291,-3.675231934,1,0,0,rectangle,2.63873291,-3.675231934,1,0,0,2.63873291,-3.675231934,1,0,0,1,55,215,130,1,,,,,,,,
,,,,,,,,,,,,,FF,,,,,,,,2.6514,,,,,,,,,,,,,,,,,,,,,,60ffb32808df73248acaee9f,61037783f215faab0a11fdd6,2021-07-29_20h55.32.950,Simcolourproject_2stim_asymm_v5,2020.2.10,MacIntel,60,61025ae37ef11b136ea224fe,,,,,,,,,3809,72.77154541,-39.4586792,1,0,0,response3disk,,5,7.948852539,-0.801940918,1,0,0,rectangle,7.948852539,-0.801940918,1,0,0,7.948852539,-0.801940918,1,0,0,1,56,216,90,1,,,,,,,,
,,,,,,,,,,,,,FF,,,,,,,,0.7998,,,,,,,,,,,,,,,,,,,,,,60ffb32808df73248acaee9f,61037783f215faab0a11fdd6,2021-07-29_20h55.32.950,Simcolourproject_2stim_asymm_v5,2020.2.10,MacIntel,60,61025ae37ef11b136ea224fe,,,,,,,,,3263,41.29223633,20.74780273,1,0,0,response1disk,,6,17.26507568,2.246612549,1,0,0,rectangle,17.26507568,2.246612549,1,0,0,17.26507568,2.246612549,1,0,0,1,57,217,8,1,,,,,,,,
,,,,,,,,,,,,,FF,,,,,,,,0.5668,,,,,,,,,,,,,,,,,,,,,,60ffb32808df73248acaee9f,61037783f215faab0a11fdd6,2021-07-29_20h55.32.950,Simcolourproject_2stim_asymm_v5,2020.2.10,MacIntel,60,61025ae37ef11b136ea224fe,,,,,,,,,1701,24.74291992,48.39883423,1,0,0,response1disk,,7,18.40576172,3.577484131,1,0,0,rectangle,18.40576172,3.577484131,1,0,0,18.40576172,3.577484131,1,0,0,1,58,218,12,1,,,,,,,,
,,,,,,,,,,,,,FF,,,,,,,,0.5827,,,,,,,,,,,,,,,,,,,,,,60ffb32808df73248acaee9f,61037783f215faab0a11fdd6,2021-07-29_20h55.32.950,Simcolourproject_2stim_asymm_v5,2020.2.10,MacIntel,60,61025ae37ef11b136ea224fe,,,,,,,,,1729,25.21508789,56.51950073,1,0,0,response1disk,,7,19.14776611,-5.451507568,1,0,0,rectangle,19.14776611,-5.451507568,1,0,0,19.14776611,-5.451507568,1,0,0,1,59,219,10,1,,,,,,,,
,,,,,,,,,,,,,FF,,,,,,,,0.6493,,,,,,,,,,,,,,,,,,,,,,60ffb32808df73248acaee9f,61037783f215faab0a11fdd6,2021-07-29_20h55.32.950,Simcolourproject_2stim_asymm_v5,2020.2.10,MacIntel,60,61025ae37ef11b136ea224fe,,,,,,,,,1751,-23.11468506,-59.15786743,1,0,0,response5disk,,3,-19.68304443,-8.086975098,1,0,0,rectangle,-19.68304443,-8.086975098,1,0,0,-19.68304443,-8.086975098,1,0,0,1,60,220,51,1,,,,,,,,
,,,,,,,,,,,,,FF,,,,,,,,1.302,,,,,,,,,,,,,,,,,,,,,,60ffb32808df73248acaee9f,61037783f215faab0a11fdd6,2021-07-29_20h55.32.950,Simcolourproject_2stim_asymm_v5,2020.2.10,MacIntel,60,61025ae37ef11b136ea224fe,,,,,,,,,4278,78.68981934,34.58544922,1,0,0,response1disk,,6,17.89355469,-1.762451172,1,0,0,rectangle,17.89355469,-1.762451172,1,0,0,17.89355469,-1.762451172,1,0,0,1,61,221,18,1,,,,,,,,
,,,,,,,,,,,,,FF,,,,,,,,0.5842,,,,,,,,,,,,,,,,,,,,,,60ffb32808df73248acaee9f,61037783f215faab0a11fdd6,2021-07-29_20h55.32.950,Simcolourproject_2stim_asymm_v5,2020.2.10,MacIntel,60,61025ae37ef11b136ea224fe,,,,,,,,,3142,42.65856934,-29.706604,1,0,0,response3disk,,5,7.229003906,1.064300537,1,0,0,rectangle,7.229003906,1.064300537,1,0,0,7.229003906,1.064300537,1,0,0,1,62,222,94,1,,,,,,,,
,,,,,,,,,,,,,FF,,,,,,,,1.034,,,,,,,,,,,,,,,,,,,,,,60ffb32808df73248acaee9f,61037783f215faab0a11fdd6,2021-07-29_20h55.32.950,Simcolourproject_2stim_asymm_v5,2020.2.10,MacIntel,60,61025ae37ef11b136ea224fe,,,,,,,,,2172,41.24938965,-60.03790283,1,0,0,response3disk,,4,9.032165527,-9.827392578,1,0,0,rectangle,9.032165527,-9.827392578,1,0,0,9.032165527,-9.827392578,1,0,0,1,63,223,58,1,,,,,,,,
,,,,,,,,,,,,,FF,,,,,,,,0.7176,,,,,,,,,,,,,,,,,,,,,,60ffb32808df73248acaee9f,61037783f215faab0a11fdd6,2021-07-29_20h55.32.950,Simcolourproject_2stim_asymm_v5,2020.2.10,MacIntel,60,61025ae37ef11b136ea224fe,,,,,,,,,1365,53.61218262,37.48498535,1,0,0,response1disk,,6,17.15722656,12.82965088,1,0,0,rectangle,17.15722656,12.82965088,1,0,0,17.15722656,12.82965088,1,0,0,1,64,224,127,1,,,,,,,,
,,,,,,,,,,,,,FF,,,,,,,,0.6015,,,,,,,,,,,,,,,,,,,,,,60ffb32808df73248acaee9f,61037783f215faab0a11fdd6,2021-07-29_20h55.32.950,Simcolourproject_2stim_asymm_v5,2020.2.10,MacIntel,60,61025ae37ef11b136ea224fe,,,,,,,,,3011,15.3583374,47.30432129,1,0,0,response1disk,,7,11.40875244,6.441009521,1,0,0,rectangle,11.40875244,6.441009521,1,0,0,11.40875244,6.441009521,1,0,0,1,65,225,99,1,,,,,,,,
,,,,,,,,,,,,,FF,,,,,,,,0.5834,,,,,,,,,,,,,,,,,,,,,,60ffb32808df73248acaee9f,61037783f215faab0a11fdd6,2021-07-29_20h55.32.950,Simcolourproject_2stim_asymm_v5,2020.2.10,MacIntel,60,61025ae37ef11b136ea224fe,,,,,,,,,915,25.86981201,45.56048584,1,0,0,response1disk,,7,15.03570557,4.037322998,1,0,0,rectangle,15.03570557,4.037322998,1,0,0,15.03570557,4.037322998,1,0,0,1,66,226,21,1,,,,,,,,
,,,,,,,,,,,,,FF,,,,,,,,0.7499,,,,,,,,,,,,,,,,,,,,,,60ffb32808df73248acaee9f,61037783f215faab0a11fdd6,2021-07-29_20h55.32.950,Simcolourproject_2stim_asymm_v5,2020.2.10,MacIntel,60,61025ae37ef11b136ea224fe,,,,,,,,,1899,-20.58251953,-59.19628906,1,0,0,response5disk,,3,-12.82244873,-3.939147949,1,0,0,rectangle,-12.82244873,-3.939147949,1,0,0,-12.82244873,-3.939147949,1,0,0,1,67,227,112,1,,,,,,,,
,,,,,,,,,,,,,FF,,,,,,,,0.6329,,,,,,,,,,,,,,,,,,,,,,60ffb32808df73248acaee9f,61037783f215faab0a11fdd6,2021-07-29_20h55.32.950,Simcolourproject_2stim_asymm_v5,2020.2.10,MacIntel,60,61025ae37ef11b136ea224fe,,,,,,,,,4308,21.39874268,52.57751465,1,0,0,response1disk,,7,16.87872314,10.54415894,1,0,0,rectangle,16.87872314,10.54415894,1,0,0,16.87872314,10.54415894,1,0,0,1,68,228,39,1,,,,,,,,
,,,,,,,,,,,,,FF,,,,,,,,0.9954,,,,,,,,,,,,,,,,,,,,,,60ffb32808df73248acaee9f,61037783f215faab0a11fdd6,2021-07-29_20h55.32.950,Simcolourproject_2stim_asymm_v5,2020.2.10,MacIntel,60,61025ae37ef11b136ea224fe,,,,,,,,,1081,24.24505615,54.11950684,1,0,0,response1disk,,7,24.24505615,2.029937744,1,0,0,rectangle,24.24505615,2.029937744,1,0,0,24.24505615,2.029937744,1,0,0,1,69,229,106,1,,,,,,,,
,,,,,,,,,,,,,FF,,,,,,,,0.6832,,,,,,,,,,,,,,,,,,,,,,60ffb32808df73248acaee9f,61037783f215faab0a11fdd6,2021-07-29_20h55.32.950,Simcolourproject_2stim_asymm_v5,2020.2.10,MacIntel,60,61025ae37ef11b136ea224fe,,,,,,,,,760,21.76501465,50.71325684,1,0,0,response1disk,,7,21.76501465,8.765899658,1,0,0,rectangle,21.76501465,8.765899658,1,0,0,21.76501465,8.765899658,1,0,0,1,70,230,57,1,,,,,,,,
,,,,,,,,,,,,,FF,,,,,,,,0.4862,,,,,,,,,,,,,,,,,,,,,,60ffb32808df73248acaee9f,61037783f215faab0a11fdd6,2021-07-29_20h55.32.950,Simcolourproject_2stim_asymm_v5,2020.2.10,MacIntel,60,61025ae37ef11b136ea224fe,,,,,,,,,2140,22.52349854,60.67633057,1,0,0,response1disk,,7,20.06469727,3.373413086,1,0,0,rectangle,20.06469727,3.373413086,1,0,0,20.06469727,3.373413086,1,0,0,1,71,231,108,1,,,,,,,,
,,,,,,,,,,,,,FF,,,,,,,,0.9307,,,,,,,,,,,,,,,,,,,,,,60ffb32808df73248acaee9f,61037783f215faab0a11fdd6,2021-07-29_20h55.32.950,Simcolourproject_2stim_asymm_v5,2020.2.10,MacIntel,60,61025ae37ef11b136ea224fe,,,,,,,,,2837,-32.75256348,-58.76464844,1,0,0,response5disk,,3,1.93762207,3.297943115,1,0,0,rectangle,1.93762207,3.297943115,1,0,0,1.93762207,3.297943115,1,0,0,1,72,232,27,1,,,,,,,,
,,,,,,,,,,,,,FF,,,,,,,,0.7202,,,,,,,,,,,,,,,,,,,,,,60ffb32808df73248acaee9f,61037783f215faab0a11fdd6,2021-07-29_20h55.32.950,Simcolourproject_2stim_asymm_v5,2020.2.10,MacIntel,60,61025ae37ef11b136ea224fe,,,,,,,,,3281,29.96826172,38.59036255,1,0,0,response1disk,,7,11.09197998,1.29699707,1,0,0,rectangle,11.09197998,1.29699707,1,0,0,11.09197998,1.29699707,1,0,0,1,73,233,74,1,,,,,,,,
,,,,,,,,,,,,,FF,,,,,,,,1.6656,,,,,,,,,,,,,,,,,,,,,,60ffb32808df73248acaee9f,61037783f215faab0a11fdd6,2021-07-29_20h55.32.950,Simcolourproject_2stim_asymm_v5,2020.2.10,MacIntel,60,61025ae37ef11b136ea224fe,,,,,,,,,2321,47.72991943,-21.5774231,1,0,0,response3disk,,5,21.41833496,-7.581298828,1,0,0,rectangle,21.41833496,-7.581298828,1,0,0,21.41833496,-7.581298828,1,0,0,1,74,234,41,1,,,,,,,,
,,,,,,,,,,,,,FF,,,,,,,,2.3671,,,,,,,,,,,,,,,,,,,,,,60ffb32808df73248acaee9f,61037783f215faab0a11fdd6,2021-07-29_20h55.32.950,Simcolourproject_2stim_asymm_v5,2020.2.10,MacIntel,60,61025ae37ef11b136ea224fe,,,,,,,,,1683,-64.31079102,-32.42132568,1,0,0,response5disk,,2,0.103881836,11.85723877,1,0,0,rectangle,0.103881836,11.85723877,1,0,0,0.103881836,11.85723877,1,0,0,1,75,235,107,1,,,,,,,,
,,,,,,,,,,,,,FF,,,,,,,,0.7526,,,,,,,,,,,,,,,,,,,,,,60ffb32808df73248acaee9f,61037783f215faab0a11fdd6,2021-07-29_20h55.32.950,Simcolourproject_2stim_asymm_v5,2020.2.10,MacIntel,60,61025ae37ef11b136ea224fe,,,,,,,,,3707,-39.54754639,74.49105835,1,0,0,response7disk,,0,10.68817139,17.48236084,1,0,0,rectangle,10.68817139,17.48236084,1,0,0,10.68817139,17.48236084,1,0,0,1,76,236,153,1,,,,,,,,
,,,,,,,,,,,,,FF,,,,,,,,1.7991,,,,,,,,,,,,,,,,,,,,,,60ffb32808df73248acaee9f,61037783f215faab0a11fdd6,2021-07-29_20h55.32.950,Simcolourproject_2stim_asymm_v5,2020.2.10,MacIntel,60,61025ae37ef11b136ea224fe,,,,,,,,,841,31.85375977,-49.0602417,1,0,0,response3disk,,4,16.29858398,-4.415100098,1,0,0,rectangle,16.29858398,-4.415100098,1,0,0,16.29858398,-4.415100098,1,0,0,1,77,237,79,1,,,,,,,,
,,,,,,,,,,,,,FF,,,,,,,,0.9509,,,,,,,,,,,,,,,,,,,,,,60ffb32808df73248acaee9f,61037783f215faab0a11fdd6,2021-07-29_20h55.32.950,Simcolourproject_2stim_asymm_v5,2020.2.10,MacIntel,60,61025ae37ef11b136ea224fe,,,,,,,,,1255,-24.48260498,-55.25479126,1,0,0,response5disk,,3,2.947265625,-6.416870117,1,0,0,rectangle,2.947265625,-6.416870117,1,0,0,2.947265625,-6.416870117,1,0,0,1,78,238,60,1,,,,,,,,
,,,,,,,,,,,,,FF,,,,,,,,1.066,,,,,,,,,,,,,,,,,,,,,,60ffb32808df73248acaee9f,61037783f215faab0a11fdd6,2021-07-29_20h55.32.950,Simcolourproject_2stim_asymm_v5,2020.2.10,MacIntel,60,61025ae37ef11b136ea224fe,,,,,,,,,3411,33.51159668,-67.52227783,1,0,0,response3disk,,4,11.78588867,2.290527344,1,0,0,rectangle,22.26629639,-75.7677002,1,0,0,17.78582764,-16.93170166,1,0,0,1,79,239,20,1,,response3disk_3,TRUE,4,0,"[6,208,320,45,60,89,168,46,241,133,150,187,21,311,240,0,62,135,186,298]",4.4665,rectangle
,,,,,,,,,,,,,FF,,,,,,,,0.6669,,,,,,,,,,,,,,,,,,,,,,60ffb32808df73248acaee9f,61037783f215faab0a11fdd6,2021-07-29_20h55.32.950,Simcolourproject_2stim_asymm_v5,2020.2.10,MacIntel,60,61025ae37ef11b136ea224fe,,,,,,,,,2315,34.20483398,-35.75738525,1,0,0,response3disk,,4,16.57904053,1.586364746,1,0,0,rectangle,-47.14208984,33.95977783,1,0,0,-8.846008301,-0.936767578,1,0,0,1,80,240,43,1,,response7disk_3,TRUE,1,1,"[6,208,320,45,60,89,168,46,241,133,150,187,21,311,240,0,62,135,186,298]",1.7484,rectangle
,,,,,,,,,,,,,FF,,,,,,,,1.1829,,,,,,,,,,,,,,,,,,,,,,60ffb32808df73248acaee9f,61037783f215faab0a11fdd6,2021-07-29_20h55.32.950,Simcolourproject_2stim_asymm_v5,2020.2.10,MacIntel,60,61025ae37ef11b136ea224fe,,,,,,,,,2343,74.97521973,32.8722229,1,0,0,response1disk,,6,22.8671875,4.878326416,1,0,0,rectangle,22.8671875,4.878326416,1,0,0,22.8671875,4.878326416,1,0,0,1,81,241,3,1,,,,,,,,
