key_resp.keys,key_resp.rt,key_resp_14.keys,key_resp_14.rt,key_resp_15.keys,key_resp_15.rt,key_resp_17.keys,key_resp_17.rt,key_resp_9.keys,key_resp_9.rt,key_resp_10.keys,key_resp_10.rt,practice_comparison,Ecc,mouse_5.x,mouse_5.y,mouse_5.leftButton,mouse_5.midButton,mouse_5.rightButton,mouse_5.clicked_name,pracsimilarity,response_time,mouse_10.x,mouse_10.y,mouse_10.leftButton,mouse_10.midButton,mouse_10.rightButton,mouse_10.clicked_name,mouse_7.x,mouse_7.y,mouse_7.leftButton,mouse_7.midButton,mouse_7.rightButton,mouse_6.x,mouse_6.y,mouse_6.leftButton,mouse_6.midButton,mouse_6.rightButton,duringprac.thisRepN,duringprac.thisTrialN,duringprac.thisN,duringprac.thisIndex,duringprac.ran,participant,session,date,expName,psychopyVersion,OS,frameRate,study_id,mouse_7.clicked_name,catchpracsimilarity,catch_response_time,catchnumberprac,catchtrialorderprac,mouse_6.clicked_name,key_resp_22.keys,key_resp_22.rt,realcomparison,mouse.x,mouse.y,mouse.leftButton,mouse.midButton,mouse.rightButton,mouse.clicked_name,Colour2,similarity,mouse_2.x,mouse_2.y,mouse_2.leftButton,mouse_2.midButton,mouse_2.rightButton,mouse_2.clicked_name,mouse_3.x,mouse_3.y,mouse_3.leftButton,mouse_3.midButton,mouse_3.rightButton,mouse_11.x,mouse_11.y,mouse_11.leftButton,mouse_11.midButton,mouse_11.rightButton,trials_2.thisRepN,trials_2.thisTrialN,trials_2.thisN,trials_2.thisIndex,trials_2.ran,Colour1,mouse_3.clicked_name,catchornah,catchsimilarity,catchnumber,catchtrialorder,catchRT,mouse_11.clicked_name
space,1.26381,space,7.124345,space,24.096205,space,36.412705,space,1.31379,space,2.815165,101,FF,36.63671875,103,1,0,0,response1disk_5,7,4.489415,5.37109375,-3.0390625,1,0,0,rectangle_8,5.37109375,-3.0390625,1,0,0,5.37109375,-3.0390625,1,0,0,0,0,0,3,1,60ff6789f2c59752d68e53b9,61036c4c75313f245eb89e26,2021-07-29_20h05.27.373,Simcolourproject_2stim_asymm_v5,2020.2.10,MacIntel,60,61025ae37ef11b136ea224fe,,,,,,,,,,,,,,,,,,,,,,,,,,,,,,,,,,,,,,,,,,,,,,
,,,,,,,,,,,,33,PF,73.30859375,-55.1796875,1,0,0,response3disk_5,5,2.83486,0.765625,-3.46484375,1,0,0,rectangle_8,-30.6953125,70.96875,1,0,0,5.8828125,-4.84375,1,0,0,0,1,1,1,1,60ff6789f2c59752d68e53b9,61036c4c75313f245eb89e26,2021-07-29_20h05.27.373,Simcolourproject_2stim_asymm_v5,2020.2.10,MacIntel,60,61025ae37ef11b136ea224fe,response7disk_7,0,2.517175,0,"[2,5]",rectangle_4,,,,,,,,,,,,,,,,,,,,,,,,,,,,,,,,,,,,,,,,
,,,,,,,,,,,,84,PF,19.859375,-97.96875,1,0,0,response3disk_5,4,4.1671,5.27734375,-0.9765625,1,0,0,rectangle_8,5.27734375,-0.9765625,1,0,0,5.27734375,-0.9765625,1,0,0,0,2,2,6,1,60ff6789f2c59752d68e53b9,61036c4c75313f245eb89e26,2021-07-29_20h05.27.373,Simcolourproject_2stim_asymm_v5,2020.2.10,MacIntel,60,61025ae37ef11b136ea224fe,,,,,,,,,,,,,,,,,,,,,,,,,,,,,,,,,,,,,,,,,,,,,,
,,,,,,,,,,,,49,FF,-82.84765625,-37.6015625,1,0,0,response5disk_5,2,2.318645,9.265625,-3.44921875,1,0,0,rectangle_8,9.265625,-3.44921875,1,0,0,9.265625,-3.44921875,1,0,0,0,3,3,0,1,60ff6789f2c59752d68e53b9,61036c4c75313f245eb89e26,2021-07-29_20h05.27.373,Simcolourproject_2stim_asymm_v5,2020.2.10,MacIntel,60,61025ae37ef11b136ea224fe,,,,,,,,,,,,,,,,,,,,,,,,,,,,,,,,,,,,,,,,,,,,,,
,,,,,,,,,,,,19,PF,-54.1640625,-95.3984375,1,0,0,response5disk_5,3,4.154125,-1.7890625,-4.6796875,1,0,0,rectangle_8,-22.03125,80.40625,1,0,0,-0.73046875,0.98828125,1,0,0,0,4,4,4,1,60ff6789f2c59752d68e53b9,61036c4c75313f245eb89e26,2021-07-29_20h05.27.373,Simcolourproject_2stim_asymm_v5,2020.2.10,MacIntel,60,61025ae37ef11b136ea224fe,response7disk_7,0,1.76786,0,"[2,5]",rectangle_4,,,,,,,,,,,,,,,,,,,,,,,,,,,,,,,,,,,,,,,,
,,,,,,,,,,,,51,PF,45.8203125,65.33984375,1,0,0,response1disk_5,7,2.585125,1.89453125,-6.3515625,1,0,0,rectangle_8,1.89453125,-6.3515625,1,0,0,1.89453125,-6.3515625,1,0,0,0,5,5,2,1,60ff6789f2c59752d68e53b9,61036c4c75313f245eb89e26,2021-07-29_20h05.27.373,Simcolourproject_2stim_asymm_v5,2020.2.10,MacIntel,60,61025ae37ef11b136ea224fe,,,,,,,,,,,,,,,,,,,,,,,,,,,,,,,,,,,,,,,,,,,,,,
,,,,,,,,,,,,14,FF,78.1796875,-29.9921875,1,0,0,response3disk_5,5,3.418695,-1.6796875,1.70703125,1,0,0,rectangle_8,-1.6796875,1.70703125,1,0,0,-1.6796875,1.70703125,1,0,0,0,6,6,5,1,60ff6789f2c59752d68e53b9,61036c4c75313f245eb89e26,2021-07-29_20h05.27.373,Simcolourproject_2stim_asymm_v5,2020.2.10,MacIntel,60,61025ae37ef11b136ea224fe,,,,,,,,,,,,,,,,,,,,,,,,,,,,,,,,,,,,,,,,,,,,,,
,,,,,,,,,,,,,FF,,,,,,,,1.90038,,,,,,,,,,,,,,,,,,,,,,60ff6789f2c59752d68e53b9,61036c4c75313f245eb89e26,2021-07-29_20h05.27.373,Simcolourproject_2stim_asymm_v5,2020.2.10,MacIntel,60,61025ae37ef11b136ea224fe,,,,,,,space,3.09006,3768,71.2109375,-38.60546875,1,0,0,response3disk,,5,-0.01953125,-5.78125,1,0,0,rectangle,-0.01953125,-5.78125,1,0,0,-0.01953125,-5.78125,1,0,0,0,0,0,32,1,,,,,,,,
,,,,,,,,,,,,,FF,,,,,,,,2.102005,,,,,,,,,,,,,,,,,,,,,,60ff6789f2c59752d68e53b9,61036c4c75313f245eb89e26,2021-07-29_20h05.27.373,Simcolourproject_2stim_asymm_v5,2020.2.10,MacIntel,60,61025ae37ef11b136ea224fe,,,,,,,,,1289,47.3984375,-96.765625,1,0,0,response3disk,,4,9.27734375,-6.5234375,1,0,0,rectangle,9.27734375,-6.5234375,1,0,0,9.27734375,-6.5234375,1,0,0,0,1,1,81,1,,,,,,,,
,,,,,,,,,,,,,FF,,,,,,,,1.550905,,,,,,,,,,,,,,,,,,,,,,60ff6789f2c59752d68e53b9,61036c4c75313f245eb89e26,2021-07-29_20h05.27.373,Simcolourproject_2stim_asymm_v5,2020.2.10,MacIntel,60,61025ae37ef11b136ea224fe,,,,,,,,,2189,94.453125,29.296875,1,0,0,response1disk,,6,7.7890625,3.328125,1,0,0,rectangle,7.7890625,3.328125,1,0,0,7.7890625,3.328125,1,0,0,0,2,2,149,1,,,,,,,,
,,,,,,,,,,,,,FF,,,,,,,,0.98351,,,,,,,,,,,,,,,,,,,,,,60ff6789f2c59752d68e53b9,61036c4c75313f245eb89e26,2021-07-29_20h05.27.373,Simcolourproject_2stim_asymm_v5,2020.2.10,MacIntel,60,61025ae37ef11b136ea224fe,,,,,,,,,3336,-33.625,82.0625,1,0,0,response7disk,,0,-7.12109375,1.19140625,1,0,0,rectangle,-7.12109375,1.19140625,1,0,0,-7.12109375,1.19140625,1,0,0,0,3,3,70,1,,,,,,,,
,,,,,,,,,,,,,FF,,,,,,,,1.81439,,,,,,,,,,,,,,,,,,,,,,60ff6789f2c59752d68e53b9,61036c4c75313f245eb89e26,2021-07-29_20h05.27.373,Simcolourproject_2stim_asymm_v5,2020.2.10,MacIntel,60,61025ae37ef11b136ea224fe,,,,,,,,,24,23.62890625,-75.8125,1,0,0,response3disk,,4,-6.265625,-11.95703125,1,0,0,rectangle,-6.265625,-11.95703125,1,0,0,-6.265625,-11.95703125,1,0,0,0,4,4,45,1,,,,,,,,
,,,,,,,,,,,,,FF,,,,,,,,2.25076,,,,,,,,,,,,,,,,,,,,,,60ff6789f2c59752d68e53b9,61036c4c75313f245eb89e26,2021-07-29_20h05.27.373,Simcolourproject_2stim_asymm_v5,2020.2.10,MacIntel,60,61025ae37ef11b136ea224fe,,,,,,,,,548,-72.69140625,33.23828125,1,0,0,response7disk,,1,-7.08984375,6.6875,1,0,0,rectangle,27.41015625,-90.8203125,1,0,0,8.83203125,-3.52734375,1,0,0,0,5,5,104,1,,response3disk_3,TRUE,4,4,"[18,100,33,246,46,147,213,6,59,73,196,128,238,18,130,61,297,148,211,61]",2.350885,rectangle
,,,,,,,,,,,,,FF,,,,,,,,1.61836,,,,,,,,,,,,,,,,,,,,,,60ff6789f2c59752d68e53b9,61036c4c75313f245eb89e26,2021-07-29_20h05.27.373,Simcolourproject_2stim_asymm_v5,2020.2.10,MacIntel,60,61025ae37ef11b136ea224fe,,,,,,,,,1083,91.875,30.21875,1,0,0,response1disk,,6,4.34765625,-7.17578125,1,0,0,rectangle,4.34765625,-7.17578125,1,0,0,4.34765625,-7.17578125,1,0,0,0,6,6,60,1,,,,,,,,
,,,,,,,,,,,,,FF,,,,,,,,1.16941,,,,,,,,,,,,,,,,,,,,,,60ff6789f2c59752d68e53b9,61036c4c75313f245eb89e26,2021-07-29_20h05.27.373,Simcolourproject_2stim_asymm_v5,2020.2.10,MacIntel,60,61025ae37ef11b136ea224fe,,,,,,,,,1509,66.9296875,-55.16796875,1,0,0,response3disk,,5,5.68359375,-7.85546875,1,0,0,rectangle,5.68359375,-7.85546875,1,0,0,5.68359375,-7.85546875,1,0,0,0,7,7,117,1,,,,,,,,
,,,,,,,,,,,,,FF,,,,,,,,2.050675,,,,,,,,,,,,,,,,,,,,,,60ff6789f2c59752d68e53b9,61036c4c75313f245eb89e26,2021-07-29_20h05.27.373,Simcolourproject_2stim_asymm_v5,2020.2.10,MacIntel,60,61025ae37ef11b136ea224fe,,,,,,,,,2695,84.65234375,-46.5625,1,0,0,response3disk,,5,0.26171875,-0.14453125,1,0,0,rectangle,0.26171875,-0.14453125,1,0,0,0.26171875,-0.14453125,1,0,0,0,8,8,42,1,,,,,,,,
,,,,,,,,,,,,,FF,,,,,,,,2.090385,,,,,,,,,,,,,,,,,,,,,,60ff6789f2c59752d68e53b9,61036c4c75313f245eb89e26,2021-07-29_20h05.27.373,Simcolourproject_2stim_asymm_v5,2020.2.10,MacIntel,60,61025ae37ef11b136ea224fe,,,,,,,,,2012,42.73828125,73.828125,1,0,0,response1disk,,7,6.67578125,-5.34765625,1,0,0,rectangle,6.67578125,-5.34765625,1,0,0,6.67578125,-5.34765625,1,0,0,0,9,9,0,1,,,,,,,,
,,,,,,,,,,,,,FF,,,,,,,,1.094625,,,,,,,,,,,,,,,,,,,,,,60ff6789f2c59752d68e53b9,61036c4c75313f245eb89e26,2021-07-29_20h05.27.373,Simcolourproject_2stim_asymm_v5,2020.2.10,MacIntel,60,61025ae37ef11b136ea224fe,,,,,,,,,2721,-31.80859375,-68.58203125,1,0,0,response5disk,,3,-4.0546875,-4.06640625,1,0,0,rectangle,-4.0546875,-4.06640625,1,0,0,-4.0546875,-4.06640625,1,0,0,0,10,10,97,1,,,,,,,,
,,,,,,,,,,,,,FF,,,,,,,,1.332945,,,,,,,,,,,,,,,,,,,,,,60ff6789f2c59752d68e53b9,61036c4c75313f245eb89e26,2021-07-29_20h05.27.373,Simcolourproject_2stim_asymm_v5,2020.2.10,MacIntel,60,61025ae37ef11b136ea224fe,,,,,,,,,3044,47.0390625,-68.1484375,1,0,0,response3disk,,4,-0.796875,-7.08984375,1,0,0,rectangle,-0.796875,-7.08984375,1,0,0,-0.796875,-7.08984375,1,0,0,0,11,11,12,1,,,,,,,,
,,,,,,,,,,,,,FF,,,,,,,,1.50016,,,,,,,,,,,,,,,,,,,,,,60ff6789f2c59752d68e53b9,61036c4c75313f245eb89e26,2021-07-29_20h05.27.373,Simcolourproject_2stim_asymm_v5,2020.2.10,MacIntel,60,61025ae37ef11b136ea224fe,,,,,,,,,557,-29.609375,-89.796875,1,0,0,response5disk,,3,3.703125,-3.703125,1,0,0,rectangle,3.703125,-3.703125,1,0,0,3.703125,-3.703125,1,0,0,0,12,12,157,1,,,,,,,,
,,,,,,,,,,,,,FF,,,,,,,,1.08432,,,,,,,,,,,,,,,,,,,,,,60ff6789f2c59752d68e53b9,61036c4c75313f245eb89e26,2021-07-29_20h05.27.373,Simcolourproject_2stim_asymm_v5,2020.2.10,MacIntel,60,61025ae37ef11b136ea224fe,,,,,,,,,1650,27.72265625,68.78515625,1,0,0,response1disk,,7,-4.49609375,-4.0546875,1,0,0,rectangle,-4.49609375,-4.0546875,1,0,0,-4.49609375,-4.0546875,1,0,0,0,13,13,108,1,,,,,,,,
,,,,,,,,,,,,,FF,,,,,,,,1.082835,,,,,,,,,,,,,,,,,,,,,,60ff6789f2c59752d68e53b9,61036c4c75313f245eb89e26,2021-07-29_20h05.27.373,Simcolourproject_2stim_asymm_v5,2020.2.10,MacIntel,60,61025ae37ef11b136ea224fe,,,,,,,,,2595,87.53515625,-37.4609375,1,0,0,response3disk,,5,9.76953125,-3.875,1,0,0,rectangle,9.76953125,-3.875,1,0,0,9.76953125,-3.875,1,0,0,0,14,14,48,1,,,,,,,,
,,,,,,,,,,,,,FF,,,,,,,,2.785155,,,,,,,,,,,,,,,,,,,,,,60ff6789f2c59752d68e53b9,61036c4c75313f245eb89e26,2021-07-29_20h05.27.373,Simcolourproject_2stim_asymm_v5,2020.2.10,MacIntel,60,61025ae37ef11b136ea224fe,,,,,,,,,3005,-62.02734375,-45.44921875,1,0,0,response5disk,,2,7.453125,-5.140625,1,0,0,rectangle,7.453125,-5.140625,1,0,0,7.453125,-5.140625,1,0,0,0,15,15,143,1,,,,,,,,
,,,,,,,,,,,,,FF,,,,,,,,2.018805,,,,,,,,,,,,,,,,,,,,,,60ff6789f2c59752d68e53b9,61036c4c75313f245eb89e26,2021-07-29_20h05.27.373,Simcolourproject_2stim_asymm_v5,2020.2.10,MacIntel,60,61025ae37ef11b136ea224fe,,,,,,,,,880,-29.62890625,-73.8515625,1,0,0,response5disk,,3,6.9609375,-4.78515625,1,0,0,rectangle,6.9609375,-4.78515625,1,0,0,6.9609375,-4.78515625,1,0,0,0,16,16,37,1,,,,,,,,
,,,,,,,,,,,,,FF,,,,,,,,1.650275,,,,,,,,,,,,,,,,,,,,,,60ff6789f2c59752d68e53b9,61036c4c75313f245eb89e26,2021-07-29_20h05.27.373,Simcolourproject_2stim_asymm_v5,2020.2.10,MacIntel,60,61025ae37ef11b136ea224fe,,,,,,,,,3612,81.01953125,26.18359375,1,0,0,response1disk,,6,7.64453125,-2.80859375,1,0,0,rectangle,-27.27734375,89.52734375,1,0,0,-7.60546875,4.41015625,1,0,0,0,17,17,106,1,,response7disk_3,TRUE,0,0,"[18,100,33,246,46,147,213,6,59,73,196,128,238,18,130,61,297,148,211,61]",1.905645,rectangle
,,,,,,,,,,,,,FF,,,,,,,,0.78464,,,,,,,,,,,,,,,,,,,,,,60ff6789f2c59752d68e53b9,61036c4c75313f245eb89e26,2021-07-29_20h05.27.373,Simcolourproject_2stim_asymm_v5,2020.2.10,MacIntel,60,61025ae37ef11b136ea224fe,,,,,,,,,748,78.4765625,-44.35546875,1,0,0,response3disk,,5,12.62109375,-7.69140625,1,0,0,rectangle,12.62109375,-7.69140625,1,0,0,12.62109375,-7.69140625,1,0,0,0,18,18,121,1,,,,,,,,
,,,,,,,,,,,,,FF,,,,,,,,0.98435,,,,,,,,,,,,,,,,,,,,,,60ff6789f2c59752d68e53b9,61036c4c75313f245eb89e26,2021-07-29_20h05.27.373,Simcolourproject_2stim_asymm_v5,2020.2.10,MacIntel,60,61025ae37ef11b136ea224fe,,,,,,,,,3339,-67.1640625,-32.359375,1,0,0,response5disk,,2,5.27734375,-5.18359375,1,0,0,rectangle,5.27734375,-5.18359375,1,0,0,5.27734375,-5.18359375,1,0,0,0,19,19,147,1,,,,,,,,
,,,,,,,,,,,,,FF,,,,,,,,3.001115,,,,,,,,,,,,,,,,,,,,,,60ff6789f2c59752d68e53b9,61036c4c75313f245eb89e26,2021-07-29_20h05.27.373,Simcolourproject_2stim_asymm_v5,2020.2.10,MacIntel,60,61025ae37ef11b136ea224fe,,,,,,,,,282,-69.546875,-52.48046875,1,0,0,response5disk,,2,2.12109375,-4.51171875,1,0,0,rectangle,2.12109375,-4.51171875,1,0,0,2.12109375,-4.51171875,1,0,0,0,20,20,131,1,,,,,,,,
,,,,,,,,,,,,,FF,,,,,,,,2.267255,,,,,,,,,,,,,,,,,,,,,,60ff6789f2c59752d68e53b9,61036c4c75313f245eb89e26,2021-07-29_20h05.27.373,Simcolourproject_2stim_asymm_v5,2020.2.10,MacIntel,60,61025ae37ef11b136ea224fe,,,,,,,,,1785,32.3359375,-94.765625,1,0,0,response3disk,,4,-2.87890625,-7.71875,1,0,0,rectangle,-2.87890625,-7.71875,1,0,0,-2.87890625,-7.71875,1,0,0,0,21,21,54,1,,,,,,,,
,,,,,,,,,,,,,FF,,,,,,,,1.400215,,,,,,,,,,,,,,,,,,,,,,60ff6789f2c59752d68e53b9,61036c4c75313f245eb89e26,2021-07-29_20h05.27.373,Simcolourproject_2stim_asymm_v5,2020.2.10,MacIntel,60,61025ae37ef11b136ea224fe,,,,,,,,,1645,74.66015625,-34.3359375,1,0,0,response3disk,,5,2.0390625,3.92578125,1,0,0,rectangle,2.0390625,3.92578125,1,0,0,2.0390625,3.92578125,1,0,0,0,22,22,93,1,,,,,,,,
,,,,,,,,,,,,,FF,,,,,,,,3.865005,,,,,,,,,,,,,,,,,,,,,,60ff6789f2c59752d68e53b9,61036c4c75313f245eb89e26,2021-07-29_20h05.27.373,Simcolourproject_2stim_asymm_v5,2020.2.10,MacIntel,60,61025ae37ef11b136ea224fe,,,,,,,,,3026,27.83203125,-88.5703125,1,0,0,response3disk,,4,4.140625,-2.9921875,1,0,0,rectangle,4.140625,-2.9921875,1,0,0,4.140625,-2.9921875,1,0,0,0,23,23,39,1,,,,,,,,
,,,,,,,,,,,,,FF,,,,,,,,1.600905,,,,,,,,,,,,,,,,,,,,,,60ff6789f2c59752d68e53b9,61036c4c75313f245eb89e26,2021-07-29_20h05.27.373,Simcolourproject_2stim_asymm_v5,2020.2.10,MacIntel,60,61025ae37ef11b136ea224fe,,,,,,,,,2943,-51.31640625,-78.296875,1,0,0,response5disk,,3,-10.30078125,-2.015625,1,0,0,rectangle,-10.30078125,-2.015625,1,0,0,-10.30078125,-2.015625,1,0,0,0,24,24,99,1,,,,,,,,
,,,,,,,,,,,,,FF,,,,,,,,1.4796,,,,,,,,,,,,,,,,,,,,,,60ff6789f2c59752d68e53b9,61036c4c75313f245eb89e26,2021-07-29_20h05.27.373,Simcolourproject_2stim_asymm_v5,2020.2.10,MacIntel,60,61025ae37ef11b136ea224fe,,,,,,,,,3961,82.9765625,34.265625,1,0,0,response1disk,,6,8.046875,-2.83984375,1,0,0,rectangle,8.046875,-2.83984375,1,0,0,8.046875,-2.83984375,1,0,0,0,25,25,118,1,,,,,,,,
,,,,,,,,,,,,,FF,,,,,,,,1.301375,,,,,,,,,,,,,,,,,,,,,,60ff6789f2c59752d68e53b9,61036c4c75313f245eb89e26,2021-07-29_20h05.27.373,Simcolourproject_2stim_asymm_v5,2020.2.10,MacIntel,60,61025ae37ef11b136ea224fe,,,,,,,,,1299,-48.625,-76.7109375,1,0,0,response5disk,,3,3.5390625,2.734375,1,0,0,rectangle,3.5390625,2.734375,1,0,0,3.5390625,2.734375,1,0,0,0,26,26,64,1,,,,,,,,
,,,,,,,,,,,,,FF,,,,,,,,0.917185,,,,,,,,,,,,,,,,,,,,,,60ff6789f2c59752d68e53b9,61036c4c75313f245eb89e26,2021-07-29_20h05.27.373,Simcolourproject_2stim_asymm_v5,2020.2.10,MacIntel,60,61025ae37ef11b136ea224fe,,,,,,,,,992,38.50390625,-90.62109375,1,0,0,response3disk,,4,2.41796875,-4.70703125,1,0,0,rectangle,2.41796875,-4.70703125,1,0,0,2.41796875,-4.70703125,1,0,0,0,27,27,79,1,,,,,,,,
,,,,,,,,,,,,,FF,,,,,,,,0.787635,,,,,,,,,,,,,,,,,,,,,,60ff6789f2c59752d68e53b9,61036c4c75313f245eb89e26,2021-07-29_20h05.27.373,Simcolourproject_2stim_asymm_v5,2020.2.10,MacIntel,60,61025ae37ef11b136ea224fe,,,,,,,,,3503,-82.0078125,-48.859375,1,0,0,response5disk,,2,-8.94921875,-10.52734375,1,0,0,rectangle,-8.94921875,-10.52734375,1,0,0,-8.94921875,-10.52734375,1,0,0,0,28,28,29,1,,,,,,,,
,,,,,,,,,,,,,FF,,,,,,,,0.848745,,,,,,,,,,,,,,,,,,,,,,60ff6789f2c59752d68e53b9,61036c4c75313f245eb89e26,2021-07-29_20h05.27.373,Simcolourproject_2stim_asymm_v5,2020.2.10,MacIntel,60,61025ae37ef11b136ea224fe,,,,,,,,,1611,-71.96875,27.36328125,1,0,0,response7disk,,1,-0.20703125,3.19921875,1,0,0,rectangle,-0.20703125,3.19921875,1,0,0,-0.20703125,3.19921875,1,0,0,0,29,29,1,1,,,,,,,,
,,,,,,,,,,,,,FF,,,,,,,,1.867315,,,,,,,,,,,,,,,,,,,,,,60ff6789f2c59752d68e53b9,61036c4c75313f245eb89e26,2021-07-29_20h05.27.373,Simcolourproject_2stim_asymm_v5,2020.2.10,MacIntel,60,61025ae37ef11b136ea224fe,,,,,,,,,3363,76.40234375,-48.44921875,1,0,0,response3disk,,5,21.140625,7.27734375,1,0,0,rectangle,21.140625,7.27734375,1,0,0,21.140625,7.27734375,1,0,0,0,30,30,124,1,,,,,,,,
,,,,,,,,,,,,,FF,,,,,,,,0.76826,,,,,,,,,,,,,,,,,,,,,,60ff6789f2c59752d68e53b9,61036c4c75313f245eb89e26,2021-07-29_20h05.27.373,Simcolourproject_2stim_asymm_v5,2020.2.10,MacIntel,60,61025ae37ef11b136ea224fe,,,,,,,,,4179,37.08984375,74.53515625,1,0,0,response1disk,,7,6.6875,1.8203125,1,0,0,rectangle,6.6875,1.8203125,1,0,0,6.6875,1.8203125,1,0,0,0,31,31,140,1,,,,,,,,
,,,,,,,,,,,,,FF,,,,,,,,1.733165,,,,,,,,,,,,,,,,,,,,,,60ff6789f2c59752d68e53b9,61036c4c75313f245eb89e26,2021-07-29_20h05.27.373,Simcolourproject_2stim_asymm_v5,2020.2.10,MacIntel,60,61025ae37ef11b136ea224fe,,,,,,,,,2120,27.24609375,-102.46875,1,0,0,response3disk,,4,3.07421875,-1.48828125,1,0,0,rectangle,-74.47265625,33.58203125,1,0,0,0.08203125,-0.30859375,1,0,0,0,32,32,155,1,,response7disk_3,TRUE,1,1,"[18,100,33,246,46,147,213,6,59,73,196,128,238,18,130,61,297,148,211,61]",1.63448,rectangle
,,,,,,,,,,,,,FF,,,,,,,,1.050315,,,,,,,,,,,,,,,,,,,,,,60ff6789f2c59752d68e53b9,61036c4c75313f245eb89e26,2021-07-29_20h05.27.373,Simcolourproject_2stim_asymm_v5,2020.2.10,MacIntel,60,61025ae37ef11b136ea224fe,,,,,,,,,2730,-44.34375,-74.0234375,1,0,0,response5disk,,3,-0.31640625,-7.58984375,1,0,0,rectangle,-0.31640625,-7.58984375,1,0,0,-0.31640625,-7.58984375,1,0,0,0,33,33,153,1,,,,,,,,
,,,,,,,,,,,,,FF,,,,,,,,1.700645,,,,,,,,,,,,,,,,,,,,,,60ff6789f2c59752d68e53b9,61036c4c75313f245eb89e26,2021-07-29_20h05.27.373,Simcolourproject_2stim_asymm_v5,2020.2.10,MacIntel,60,61025ae37ef11b136ea224fe,,,,,,,,,2974,45.625,-84.43359375,1,0,0,response3disk,,4,12.4375,-7.30859375,1,0,0,rectangle,12.4375,-7.30859375,1,0,0,12.4375,-7.30859375,1,0,0,0,34,34,102,1,,,,,,,,
,,,,,,,,,,,,,FF,,,,,,,,1.085825,,,,,,,,,,,,,,,,,,,,,,60ff6789f2c59752d68e53b9,61036c4c75313f245eb89e26,2021-07-29_20h05.27.373,Simcolourproject_2stim_asymm_v5,2020.2.10,MacIntel,60,61025ae37ef11b136ea224fe,,,,,,,,,3655,48.171875,64.640625,1,0,0,response1disk,,7,6.6953125,3.4609375,1,0,0,rectangle,6.6953125,3.4609375,1,0,0,6.6953125,3.4609375,1,0,0,0,35,35,16,1,,,,,,,,
,,,,,,,,,,,,,FF,,,,,,,,1.86772,,,,,,,,,,,,,,,,,,,,,,60ff6789f2c59752d68e53b9,61036c4c75313f245eb89e26,2021-07-29_20h05.27.373,Simcolourproject_2stim_asymm_v5,2020.2.10,MacIntel,60,61025ae37ef11b136ea224fe,,,,,,,,,545,-82.859375,-34.6484375,1,0,0,response5disk,,2,-1.96875,-2.39453125,1,0,0,rectangle,-1.96875,-2.39453125,1,0,0,-1.96875,-2.39453125,1,0,0,0,36,36,76,1,,,,,,,,
,,,,,,,,,,,,,FF,,,,,,,,1.3829,,,,,,,,,,,,,,,,,,,,,,60ff6789f2c59752d68e53b9,61036c4c75313f245eb89e26,2021-07-29_20h05.27.373,Simcolourproject_2stim_asymm_v5,2020.2.10,MacIntel,60,61025ae37ef11b136ea224fe,,,,,,,,,1304,-88.7421875,36.0546875,1,0,0,response7disk,,1,-5.34375,3.34375,1,0,0,rectangle,-5.34375,3.34375,1,0,0,-5.34375,3.34375,1,0,0,0,37,37,17,1,,,,,,,,
,,,,,,,,,,,,,FF,,,,,,,,1.683625,,,,,,,,,,,,,,,,,,,,,,60ff6789f2c59752d68e53b9,61036c4c75313f245eb89e26,2021-07-29_20h05.27.373,Simcolourproject_2stim_asymm_v5,2020.2.10,MacIntel,60,61025ae37ef11b136ea224fe,,,,,,,,,3733,47.1328125,66.1328125,1,0,0,response1disk,,7,9.12890625,-1.4140625,1,0,0,rectangle,9.12890625,-1.4140625,1,0,0,9.12890625,-1.4140625,1,0,0,0,38,38,58,1,,,,,,,,
,,,,,,,,,,,,,FF,,,,,,,,2.000895,,,,,,,,,,,,,,,,,,,,,,60ff6789f2c59752d68e53b9,61036c4c75313f245eb89e26,2021-07-29_20h05.27.373,Simcolourproject_2stim_asymm_v5,2020.2.10,MacIntel,60,61025ae37ef11b136ea224fe,,,,,,,,,51,90.24609375,-61.03125,1,0,0,response3disk,,5,2.44921875,-5.40625,1,0,0,rectangle,2.44921875,-5.40625,1,0,0,2.44921875,-5.40625,1,0,0,0,39,39,55,1,,,,,,,,
,,,,,,,,,,,,,FF,,,,,,,,1.00024,,,,,,,,,,,,,,,,,,,,,,60ff6789f2c59752d68e53b9,61036c4c75313f245eb89e26,2021-07-29_20h05.27.373,Simcolourproject_2stim_asymm_v5,2020.2.10,MacIntel,60,61025ae37ef11b136ea224fe,,,,,,,,,871,-40.921875,-71.3828125,1,0,0,response5disk,,3,-0.68359375,-6.6640625,1,0,0,rectangle,-0.68359375,-6.6640625,1,0,0,-0.68359375,-6.6640625,1,0,0,0,40,40,21,1,,,,,,,,
,,,,,,,,,,,,,FF,,,,,,,,1.702725,,,,,,,,,,,,,,,,,,,,,,60ff6789f2c59752d68e53b9,61036c4c75313f245eb89e26,2021-07-29_20h05.27.373,Simcolourproject_2stim_asymm_v5,2020.2.10,MacIntel,60,61025ae37ef11b136ea224fe,,,,,,,,,838,40.07421875,-76.859375,1,0,0,response3disk,,4,9.5078125,1.94921875,1,0,0,rectangle,9.5078125,1.94921875,1,0,0,9.5078125,1.94921875,1,0,0,0,41,41,137,1,,,,,,,,
,,,,,,,,,,,,,FF,,,,,,,,1.419735,,,,,,,,,,,,,,,,,,,,,,60ff6789f2c59752d68e53b9,61036c4c75313f245eb89e26,2021-07-29_20h05.27.373,Simcolourproject_2stim_asymm_v5,2020.2.10,MacIntel,60,61025ae37ef11b136ea224fe,,,,,,,,,1996,33.015625,70.8515625,1,0,0,response1disk,,7,2.3359375,-4.57421875,1,0,0,rectangle,2.3359375,-4.57421875,1,0,0,2.3359375,-4.57421875,1,0,0,0,42,42,65,1,,,,,,,,
,,,,,,,,,,,,,FF,,,,,,,,1.366465,,,,,,,,,,,,,,,,,,,,,,60ff6789f2c59752d68e53b9,61036c4c75313f245eb89e26,2021-07-29_20h05.27.373,Simcolourproject_2stim_asymm_v5,2020.2.10,MacIntel,60,61025ae37ef11b136ea224fe,,,,,,,,,1288,-42.01953125,-72.08203125,1,0,0,response5disk,,3,-5.1796875,1.47265625,1,0,0,rectangle,-5.1796875,1.47265625,1,0,0,-5.1796875,1.47265625,1,0,0,0,43,43,146,1,,,,,,,,
,,,,,,,,,,,,,FF,,,,,,,,1.13605,,,,,,,,,,,,,,,,,,,,,,60ff6789f2c59752d68e53b9,61036c4c75313f245eb89e26,2021-07-29_20h05.27.373,Simcolourproject_2stim_asymm_v5,2020.2.10,MacIntel,60,61025ae37ef11b136ea224fe,,,,,,,,,3840,-65.03515625,-34.25,1,0,0,response5disk,,2,-2.8828125,-0.64453125,1,0,0,rectangle,-2.8828125,-0.64453125,1,0,0,-2.8828125,-0.64453125,1,0,0,0,44,44,53,1,,,,,,,,
,,,,,,,,,,,,,FF,,,,,,,,1.56796,,,,,,,,,,,,,,,,,,,,,,60ff6789f2c59752d68e53b9,61036c4c75313f245eb89e26,2021-07-29_20h05.27.373,Simcolourproject_2stim_asymm_v5,2020.2.10,MacIntel,60,61025ae37ef11b136ea224fe,,,,,,,,,681,93.53125,38.12890625,1,0,0,response1disk,,6,2.375,1.5546875,1,0,0,rectangle,83.203125,-35.15625,1,0,0,10.234375,-9.33203125,1,0,0,0,45,45,159,1,,response3disk_3,TRUE,5,5,"[18,100,33,246,46,147,213,6,59,73,196,128,238,18,130,61,297,148,211,61]",1.703665,rectangle
,,,,,,,,,,,,,FF,,,,,,,,2.69868,,,,,,,,,,,,,,,,,,,,,,60ff6789f2c59752d68e53b9,61036c4c75313f245eb89e26,2021-07-29_20h05.27.373,Simcolourproject_2stim_asymm_v5,2020.2.10,MacIntel,60,61025ae37ef11b136ea224fe,,,,,,,,,610,-72.9921875,-40.1015625,1,0,0,response5disk,,2,4.75390625,3.80859375,1,0,0,rectangle,4.75390625,3.80859375,1,0,0,4.75390625,3.80859375,1,0,0,0,46,46,50,1,,,,,,,,
,,,,,,,,,,,,,FF,,,,,,,,0.834345,,,,,,,,,,,,,,,,,,,,,,60ff6789f2c59752d68e53b9,61036c4c75313f245eb89e26,2021-07-29_20h05.27.373,Simcolourproject_2stim_asymm_v5,2020.2.10,MacIntel,60,61025ae37ef11b136ea224fe,,,,,,,,,1755,-70.61328125,-29.10546875,1,0,0,response5disk,,2,-8.94921875,-1.8359375,1,0,0,rectangle,-8.94921875,-1.8359375,1,0,0,-8.94921875,-1.8359375,1,0,0,0,47,47,82,1,,,,,,,,
,,,,,,,,,,,,,FF,,,,,,,,0.766545,,,,,,,,,,,,,,,,,,,,,,60ff6789f2c59752d68e53b9,61036c4c75313f245eb89e26,2021-07-29_20h05.27.373,Simcolourproject_2stim_asymm_v5,2020.2.10,MacIntel,60,61025ae37ef11b136ea224fe,,,,,,,,,3305,-86.50390625,-52.10546875,1,0,0,response5disk,,2,-4.546875,0.7578125,1,0,0,rectangle,-4.546875,0.7578125,1,0,0,-4.546875,0.7578125,1,0,0,0,48,48,31,1,,,,,,,,
,,,,,,,,,,,,,FF,,,,,,,,0.749395,,,,,,,,,,,,,,,,,,,,,,60ff6789f2c59752d68e53b9,61036c4c75313f245eb89e26,2021-07-29_20h05.27.373,Simcolourproject_2stim_asymm_v5,2020.2.10,MacIntel,60,61025ae37ef11b136ea224fe,,,,,,,,,3511,-79.91015625,37.06640625,1,0,0,response7disk,,1,-2.78515625,-4.69921875,1,0,0,rectangle,-2.78515625,-4.69921875,1,0,0,-2.78515625,-4.69921875,1,0,0,0,49,49,68,1,,,,,,,,
,,,,,,,,,,,,,FF,,,,,,,,0.969565,,,,,,,,,,,,,,,,,,,,,,60ff6789f2c59752d68e53b9,61036c4c75313f245eb89e26,2021-07-29_20h05.27.373,Simcolourproject_2stim_asymm_v5,2020.2.10,MacIntel,60,61025ae37ef11b136ea224fe,,,,,,,,,2163,-26.3984375,-67.09375,1,0,0,response5disk,,3,-2.6875,-4.890625,1,0,0,rectangle,-2.6875,-4.890625,1,0,0,-2.6875,-4.890625,1,0,0,0,50,50,105,1,,,,,,,,
,,,,,,,,,,,,,FF,,,,,,,,0.867975,,,,,,,,,,,,,,,,,,,,,,60ff6789f2c59752d68e53b9,61036c4c75313f245eb89e26,2021-07-29_20h05.27.373,Simcolourproject_2stim_asymm_v5,2020.2.10,MacIntel,60,61025ae37ef11b136ea224fe,,,,,,,,,3697,77.98828125,-44.609375,1,0,0,response3disk,,5,4.55078125,6.2734375,1,0,0,rectangle,4.55078125,6.2734375,1,0,0,4.55078125,6.2734375,1,0,0,0,51,51,6,1,,,,,,,,
,,,,,,,,,,,,,FF,,,,,,,,0.90046,,,,,,,,,,,,,,,,,,,,,,60ff6789f2c59752d68e53b9,61036c4c75313f245eb89e26,2021-07-29_20h05.27.373,Simcolourproject_2stim_asymm_v5,2020.2.10,MacIntel,60,61025ae37ef11b136ea224fe,,,,,,,,,853,85.26953125,-33.18359375,1,0,0,response3disk,,5,-0.33984375,-2.8359375,1,0,0,rectangle,-0.33984375,-2.8359375,1,0,0,-0.33984375,-2.8359375,1,0,0,0,52,52,35,1,,,,,,,,
,,,,,,,,,,,,,FF,,,,,,,,0.90259,,,,,,,,,,,,,,,,,,,,,,60ff6789f2c59752d68e53b9,61036c4c75313f245eb89e26,2021-07-29_20h05.27.373,Simcolourproject_2stim_asymm_v5,2020.2.10,MacIntel,60,61025ae37ef11b136ea224fe,,,,,,,,,1981,36.58203125,70.88671875,1,0,0,response1disk,,7,2.35546875,0.55859375,1,0,0,rectangle,2.35546875,0.55859375,1,0,0,2.35546875,0.55859375,1,0,0,0,53,53,26,1,,,,,,,,
,,,,,,,,,,,,,FF,,,,,,,,1.517795,,,,,,,,,,,,,,,,,,,,,,60ff6789f2c59752d68e53b9,61036c4c75313f245eb89e26,2021-07-29_20h05.27.373,Simcolourproject_2stim_asymm_v5,2020.2.10,MacIntel,60,61025ae37ef11b136ea224fe,,,,,,,,,3256,96.31640625,41.265625,1,0,0,response1disk,,6,-0.6484375,5.34765625,1,0,0,rectangle,-0.6484375,5.34765625,1,0,0,-0.6484375,5.34765625,1,0,0,0,54,54,98,1,,,,,,,,
,,,,,,,,,,,,,FF,,,,,,,,1.150955,,,,,,,,,,,,,,,,,,,,,,60ff6789f2c59752d68e53b9,61036c4c75313f245eb89e26,2021-07-29_20h05.27.373,Simcolourproject_2stim_asymm_v5,2020.2.10,MacIntel,60,61025ae37ef11b136ea224fe,,,,,,,,,3309,38.5859375,84.83203125,1,0,0,response1disk,,7,-0.11328125,1.6015625,1,0,0,rectangle,-0.11328125,1.6015625,1,0,0,-0.11328125,1.6015625,1,0,0,0,55,55,51,1,,,,,,,,
,,,,,,,,,,,,,FF,,,,,,,,1.55053,,,,,,,,,,,,,,,,,,,,,,60ff6789f2c59752d68e53b9,61036c4c75313f245eb89e26,2021-07-29_20h05.27.373,Simcolourproject_2stim_asymm_v5,2020.2.10,MacIntel,60,61025ae37ef11b136ea224fe,,,,,,,,,1883,30.1015625,-92.73828125,1,0,0,response3disk,,4,1.3359375,0.484375,1,0,0,rectangle,1.3359375,0.484375,1,0,0,1.3359375,0.484375,1,0,0,0,56,56,91,1,,,,,,,,
,,,,,,,,,,,,,FF,,,,,,,,2.368585,,,,,,,,,,,,,,,,,,,,,,60ff6789f2c59752d68e53b9,61036c4c75313f245eb89e26,2021-07-29_20h05.27.373,Simcolourproject_2stim_asymm_v5,2020.2.10,MacIntel,60,61025ae37ef11b136ea224fe,,,,,,,,,4028,30.421875,-96.1484375,1,0,0,response3disk,,4,3.25390625,-2.1328125,1,0,0,rectangle,3.25390625,-2.1328125,1,0,0,3.25390625,-2.1328125,1,0,0,0,57,57,34,1,,,,,,,,
,,,,,,,,,,,,,FF,,,,,,,,3.55271,,,,,,,,,,,,,,,,,,,,,,60ff6789f2c59752d68e53b9,61036c4c75313f245eb89e26,2021-07-29_20h05.27.373,Simcolourproject_2stim_asymm_v5,2020.2.10,MacIntel,60,61025ae37ef11b136ea224fe,,,,,,,,,1191,81.6015625,-36.94140625,1,0,0,response3disk,,5,12.8359375,2.5546875,1,0,0,rectangle,38.0234375,-89.08203125,1,0,0,4.32421875,-6.35546875,1,0,0,0,58,58,130,1,,response3disk_3,TRUE,4,4,"[18,100,33,246,46,147,213,6,59,73,196,128,238,18,130,61,297,148,211,61]",1.4167,rectangle
,,,,,,,,,,,,,FF,,,,,,,,1.133185,,,,,,,,,,,,,,,,,,,,,,60ff6789f2c59752d68e53b9,61036c4c75313f245eb89e26,2021-07-29_20h05.27.373,Simcolourproject_2stim_asymm_v5,2020.2.10,MacIntel,60,61025ae37ef11b136ea224fe,,,,,,,,,3613,27.22265625,-92.25,1,0,0,response3disk,,4,6.5234375,4.9609375,1,0,0,rectangle,6.5234375,4.9609375,1,0,0,6.5234375,4.9609375,1,0,0,0,59,59,78,1,,,,,,,,
,,,,,,,,,,,,,FF,,,,,,,,1.41602,,,,,,,,,,,,,,,,,,,,,,60ff6789f2c59752d68e53b9,61036c4c75313f245eb89e26,2021-07-29_20h05.27.373,Simcolourproject_2stim_asymm_v5,2020.2.10,MacIntel,60,61025ae37ef11b136ea224fe,,,,,,,,,1767,77.84765625,-44.4453125,1,0,0,response3disk,,5,6.9609375,-9.96484375,1,0,0,rectangle,-33.06640625,75.69921875,1,0,0,2.99609375,0.72265625,1,0,0,0,60,60,96,1,,response7disk_3,TRUE,0,0,"[18,100,33,246,46,147,213,6,59,73,196,128,238,18,130,61,297,148,211,61]",1.24951,rectangle
,,,,,,,,,,,,,FF,,,,,,,,0.76926,,,,,,,,,,,,,,,,,,,,,,60ff6789f2c59752d68e53b9,61036c4c75313f245eb89e26,2021-07-29_20h05.27.373,Simcolourproject_2stim_asymm_v5,2020.2.10,MacIntel,60,61025ae37ef11b136ea224fe,,,,,,,,,3550,73.73046875,-47.875,1,0,0,response3disk,,5,3.671875,-9.48046875,1,0,0,rectangle,3.671875,-9.48046875,1,0,0,3.671875,-9.48046875,1,0,0,0,61,61,14,1,,,,,,,,
,,,,,,,,,,,,,FF,,,,,,,,0.71303,,,,,,,,,,,,,,,,,,,,,,60ff6789f2c59752d68e53b9,61036c4c75313f245eb89e26,2021-07-29_20h05.27.373,Simcolourproject_2stim_asymm_v5,2020.2.10,MacIntel,60,61025ae37ef11b136ea224fe,,,,,,,,,1167,77.45703125,-35.12890625,1,0,0,response3disk,,5,6.57421875,1.30859375,1,0,0,rectangle,6.57421875,1.30859375,1,0,0,6.57421875,1.30859375,1,0,0,0,62,62,126,1,,,,,,,,
,,,,,,,,,,,,,FF,,,,,,,,0.767575,,,,,,,,,,,,,,,,,,,,,,60ff6789f2c59752d68e53b9,61036c4c75313f245eb89e26,2021-07-29_20h05.27.373,Simcolourproject_2stim_asymm_v5,2020.2.10,MacIntel,60,61025ae37ef11b136ea224fe,,,,,,,,,168,-88.13671875,-49.52734375,1,0,0,response5disk,,2,-0.72265625,4.07421875,1,0,0,rectangle,-0.72265625,4.07421875,1,0,0,-0.72265625,4.07421875,1,0,0,0,63,63,56,1,,,,,,,,
,,,,,,,,,,,,,FF,,,,,,,,1.250365,,,,,,,,,,,,,,,,,,,,,,60ff6789f2c59752d68e53b9,61036c4c75313f245eb89e26,2021-07-29_20h05.27.373,Simcolourproject_2stim_asymm_v5,2020.2.10,MacIntel,60,61025ae37ef11b136ea224fe,,,,,,,,,2897,-37.484375,-96.125,1,0,0,response5disk,,3,1.26953125,11.25390625,1,0,0,rectangle,1.26953125,11.25390625,1,0,0,1.26953125,11.25390625,1,0,0,0,64,64,61,1,,,,,,,,
,,,,,,,,,,,,,FF,,,,,,,,0.76795,,,,,,,,,,,,,,,,,,,,,,60ff6789f2c59752d68e53b9,61036c4c75313f245eb89e26,2021-07-29_20h05.27.373,Simcolourproject_2stim_asymm_v5,2020.2.10,MacIntel,60,61025ae37ef11b136ea224fe,,,,,,,,,4147,-44.30859375,75.19140625,1,0,0,response7disk,,0,-5.6015625,3.90234375,1,0,0,rectangle,-5.6015625,3.90234375,1,0,0,-5.6015625,3.90234375,1,0,0,0,65,65,4,1,,,,,,,,
,,,,,,,,,,,,,FF,,,,,,,,1.49834,,,,,,,,,,,,,,,,,,,,,,60ff6789f2c59752d68e53b9,61036c4c75313f245eb89e26,2021-07-29_20h05.27.373,Simcolourproject_2stim_asymm_v5,2020.2.10,MacIntel,60,61025ae37ef11b136ea224fe,,,,,,,,,196,63.48828125,-45.86328125,1,0,0,response3disk,,5,1.55078125,-3.94140625,1,0,0,rectangle,1.55078125,-3.94140625,1,0,0,1.55078125,-3.94140625,1,0,0,0,66,66,122,1,,,,,,,,
,,,,,,,,,,,,,FF,,,,,,,,1.13235,,,,,,,,,,,,,,,,,,,,,,60ff6789f2c59752d68e53b9,61036c4c75313f245eb89e26,2021-07-29_20h05.27.373,Simcolourproject_2stim_asymm_v5,2020.2.10,MacIntel,60,61025ae37ef11b136ea224fe,,,,,,,,,82,43.91796875,-78.94921875,1,0,0,response3disk,,4,3.82421875,1.4921875,1,0,0,rectangle,3.82421875,1.4921875,1,0,0,3.82421875,1.4921875,1,0,0,0,67,67,11,1,,,,,,,,
,,,,,,,,,,,,,FF,,,,,,,,0.9001,,,,,,,,,,,,,,,,,,,,,,60ff6789f2c59752d68e53b9,61036c4c75313f245eb89e26,2021-07-29_20h05.27.373,Simcolourproject_2stim_asymm_v5,2020.2.10,MacIntel,60,61025ae37ef11b136ea224fe,,,,,,,,,327,45.39453125,76.43359375,1,0,0,response1disk,,7,3.95703125,4.4296875,1,0,0,rectangle,3.95703125,4.4296875,1,0,0,3.95703125,4.4296875,1,0,0,0,68,68,94,1,,,,,,,,
,,,,,,,,,,,,,FF,,,,,,,,0.5847,,,,,,,,,,,,,,,,,,,,,,60ff6789f2c59752d68e53b9,61036c4c75313f245eb89e26,2021-07-29_20h05.27.373,Simcolourproject_2stim_asymm_v5,2020.2.10,MacIntel,60,61025ae37ef11b136ea224fe,,,,,,,,,1868,49.0703125,102.5742188,1,0,0,response1disk,,7,4.41796875,13.0625,1,0,0,rectangle,4.41796875,13.0625,1,0,0,4.41796875,13.0625,1,0,0,0,69,69,139,1,,,,,,,,
,,,,,,,,,,,,,FF,,,,,,,,1.16976,,,,,,,,,,,,,,,,,,,,,,60ff6789f2c59752d68e53b9,61036c4c75313f245eb89e26,2021-07-29_20h05.27.373,Simcolourproject_2stim_asymm_v5,2020.2.10,MacIntel,60,61025ae37ef11b136ea224fe,,,,,,,,,1733,-64.36328125,33.7578125,1,0,0,response7disk,,1,-4.61328125,3.7734375,1,0,0,rectangle,-4.61328125,3.7734375,1,0,0,-4.61328125,3.7734375,1,0,0,0,70,70,15,1,,,,,,,,
,,,,,,,,,,,,,FF,,,,,,,,2.451755,,,,,,,,,,,,,,,,,,,,,,60ff6789f2c59752d68e53b9,61036c4c75313f245eb89e26,2021-07-29_20h05.27.373,Simcolourproject_2stim_asymm_v5,2020.2.10,MacIntel,60,61025ae37ef11b136ea224fe,,,,,,,,,3231,30.58984375,-89.0078125,1,0,0,response3disk,,4,-1.97265625,-2.98046875,1,0,0,rectangle,-1.97265625,-2.98046875,1,0,0,-1.97265625,-2.98046875,1,0,0,0,71,71,27,1,,,,,,,,
,,,,,,,,,,,,,FF,,,,,,,,1.818025,,,,,,,,,,,,,,,,,,,,,,60ff6789f2c59752d68e53b9,61036c4c75313f245eb89e26,2021-07-29_20h05.27.373,Simcolourproject_2stim_asymm_v5,2020.2.10,MacIntel,60,61025ae37ef11b136ea224fe,,,,,,,,,1488,71.98046875,-40.3828125,1,0,0,response3disk,,5,6.46875,-4.234375,1,0,0,rectangle,71.24609375,16.6171875,1,0,0,-3.09375,-6.4296875,1,0,0,0,72,72,127,1,,response1disk_3,TRUE,6,6,"[18,100,33,246,46,147,213,6,59,73,196,128,238,18,130,61,297,148,211,61]",1.36611,rectangle
,,,,,,,,,,,,,FF,,,,,,,,1.40162,,,,,,,,,,,,,,,,,,,,,,60ff6789f2c59752d68e53b9,61036c4c75313f245eb89e26,2021-07-29_20h05.27.373,Simcolourproject_2stim_asymm_v5,2020.2.10,MacIntel,60,61025ae37ef11b136ea224fe,,,,,,,,,574,35.33203125,77.19921875,1,0,0,response1disk,,7,6.421875,0.0078125,1,0,0,rectangle,6.421875,0.0078125,1,0,0,6.421875,0.0078125,1,0,0,0,73,73,116,1,,,,,,,,
,,,,,,,,,,,,,FF,,,,,,,,1.59929,,,,,,,,,,,,,,,,,,,,,,60ff6789f2c59752d68e53b9,61036c4c75313f245eb89e26,2021-07-29_20h05.27.373,Simcolourproject_2stim_asymm_v5,2020.2.10,MacIntel,60,61025ae37ef11b136ea224fe,,,,,,,,,3181,30.5703125,-67.921875,1,0,0,response3disk,,4,-0.6484375,-1.26171875,1,0,0,rectangle,-0.6484375,-1.26171875,1,0,0,-0.6484375,-1.26171875,1,0,0,0,74,74,7,1,,,,,,,,
,,,,,,,,,,,,,FF,,,,,,,,0.88299,,,,,,,,,,,,,,,,,,,,,,60ff6789f2c59752d68e53b9,61036c4c75313f245eb89e26,2021-07-29_20h05.27.373,Simcolourproject_2stim_asymm_v5,2020.2.10,MacIntel,60,61025ae37ef11b136ea224fe,,,,,,,,,1988,36.49609375,59.8515625,1,0,0,response1disk,,7,3.1015625,-2.578125,1,0,0,rectangle,3.1015625,-2.578125,1,0,0,3.1015625,-2.578125,1,0,0,0,75,75,125,1,,,,,,,,
,,,,,,,,,,,,,FF,,,,,,,,0.816725,,,,,,,,,,,,,,,,,,,,,,60ff6789f2c59752d68e53b9,61036c4c75313f245eb89e26,2021-07-29_20h05.27.373,Simcolourproject_2stim_asymm_v5,2020.2.10,MacIntel,60,61025ae37ef11b136ea224fe,,,,,,,,,3469,-23.015625,65.015625,1,0,0,response7disk,,0,4.31640625,-0.03515625,1,0,0,rectangle,4.31640625,-0.03515625,1,0,0,4.31640625,-0.03515625,1,0,0,0,76,76,41,1,,,,,,,,
,,,,,,,,,,,,,FF,,,,,,,,1.44938,,,,,,,,,,,,,,,,,,,,,,60ff6789f2c59752d68e53b9,61036c4c75313f245eb89e26,2021-07-29_20h05.27.373,Simcolourproject_2stim_asymm_v5,2020.2.10,MacIntel,60,61025ae37ef11b136ea224fe,,,,,,,,,4059,-47.87109375,-78.71484375,1,0,0,response5disk,,3,-0.921875,-1.29296875,1,0,0,rectangle,-0.921875,-1.29296875,1,0,0,-0.921875,-1.29296875,1,0,0,0,77,77,123,1,,,,,,,,
,,,,,,,,,,,,,FF,,,,,,,,2.78555,,,,,,,,,,,,,,,,,,,,,,60ff6789f2c59752d68e53b9,61036c4c75313f245eb89e26,2021-07-29_20h05.27.373,Simcolourproject_2stim_asymm_v5,2020.2.10,MacIntel,60,61025ae37ef11b136ea224fe,,,,,,,,,3364,81.609375,-41.5859375,1,0,0,response3disk,,5,-6.703125,1.87109375,1,0,0,rectangle,-6.703125,1.87109375,1,0,0,-6.703125,1.87109375,1,0,0,0,78,78,134,1,,,,,,,,
,,,,,,,,,,,,,FF,,,,,,,,2.034925,,,,,,,,,,,,,,,,,,,,,,60ff6789f2c59752d68e53b9,61036c4c75313f245eb89e26,2021-07-29_20h05.27.373,Simcolourproject_2stim_asymm_v5,2020.2.10,MacIntel,60,61025ae37ef11b136ea224fe,,,,,,,,,1200,91.28515625,-42.3671875,1,0,0,response3disk,,5,6.25390625,1.5390625,1,0,0,rectangle,6.25390625,1.5390625,1,0,0,6.25390625,1.5390625,1,0,0,0,79,79,52,1,,,,,,,,
,,,,,,,,,,,,,FF,,,,,,,,2.051465,,,,,,,,,,,,,,,,,,,,,,60ff6789f2c59752d68e53b9,61036c4c75313f245eb89e26,2021-07-29_20h05.27.373,Simcolourproject_2stim_asymm_v5,2020.2.10,MacIntel,60,61025ae37ef11b136ea224fe,,,,,,,,,3988,74.70703125,-39.68359375,1,0,0,response3disk,,5,4.04296875,-0.4609375,1,0,0,rectangle,4.04296875,-0.4609375,1,0,0,4.04296875,-0.4609375,1,0,0,0,80,80,69,1,,,,,,,,
,,,,,,,,,,,,,FF,,,,,,,,1.55741,,,,,,,,,,,,,,,,,,,,,,60ff6789f2c59752d68e53b9,61036c4c75313f245eb89e26,2021-07-29_20h05.27.373,Simcolourproject_2stim_asymm_v5,2020.2.10,MacIntel,60,61025ae37ef11b136ea224fe,,,,,,,,,2843,43.7890625,-88.53125,1,0,0,response3disk,,4,3.7890625,0.0546875,1,0,0,rectangle,3.7890625,0.0546875,1,0,0,3.7890625,0.0546875,1,0,0,0,81,81,13,1,,,,,,,,
,,,,,,,,,,,,,FF,,,,,,,,1.1848,,,,,,,,,,,,,,,,,,,,,,60ff6789f2c59752d68e53b9,61036c4c75313f245eb89e26,2021-07-29_20h05.27.373,Simcolourproject_2stim_asymm_v5,2020.2.10,MacIntel,60,61025ae37ef11b136ea224fe,,,,,,,,,1959,-41.21484375,-69.25390625,1,0,0,response5disk,,3,-2.890625,-2.88671875,1,0,0,rectangle,-2.890625,-2.88671875,1,0,0,-2.890625,-2.88671875,1,0,0,0,82,82,138,1,,,,,,,,
,,,,,,,,,,,,,FF,,,,,,,,0.833565,,,,,,,,,,,,,,,,,,,,,,60ff6789f2c59752d68e53b9,61036c4c75313f245eb89e26,2021-07-29_20h05.27.373,Simcolourproject_2stim_asymm_v5,2020.2.10,MacIntel,60,61025ae37ef11b136ea224fe,,,,,,,,,3152,-27.08984375,-77.44921875,1,0,0,response5disk,,3,4.23046875,-4.41796875,1,0,0,rectangle,4.23046875,-4.41796875,1,0,0,4.23046875,-4.41796875,1,0,0,0,83,83,18,1,,,,,,,,
,,,,,,,,,,,,,FF,,,,,,,,0.900905,,,,,,,,,,,,,,,,,,,,,,60ff6789f2c59752d68e53b9,61036c4c75313f245eb89e26,2021-07-29_20h05.27.373,Simcolourproject_2stim_asymm_v5,2020.2.10,MacIntel,60,61025ae37ef11b136ea224fe,,,,,,,,,4364,-50.05078125,-67.953125,1,0,0,response5disk,,3,2.98828125,-0.1171875,1,0,0,rectangle,2.98828125,-0.1171875,1,0,0,2.98828125,-0.1171875,1,0,0,0,84,84,5,1,,,,,,,,
,,,,,,,,,,,,,FF,,,,,,,,0.83375,,,,,,,,,,,,,,,,,,,,,,60ff6789f2c59752d68e53b9,61036c4c75313f245eb89e26,2021-07-29_20h05.27.373,Simcolourproject_2stim_asymm_v5,2020.2.10,MacIntel,60,61025ae37ef11b136ea224fe,,,,,,,,,1706,37.05078125,72.65625,1,0,0,response1disk,,7,10.5703125,8.296875,1,0,0,rectangle,10.5703125,8.296875,1,0,0,10.5703125,8.296875,1,0,0,0,85,85,33,1,,,,,,,,
,,,,,,,,,,,,,FF,,,,,,,,0.79988,,,,,,,,,,,,,,,,,,,,,,60ff6789f2c59752d68e53b9,61036c4c75313f245eb89e26,2021-07-29_20h05.27.373,Simcolourproject_2stim_asymm_v5,2020.2.10,MacIntel,60,61025ae37ef11b136ea224fe,,,,,,,,,2284,85.140625,38.40234375,1,0,0,response1disk,,6,6.30078125,-5.29296875,1,0,0,rectangle,6.30078125,-5.29296875,1,0,0,6.30078125,-5.29296875,1,0,0,0,86,86,36,1,,,,,,,,
,,,,,,,,,,,,,FF,,,,,,,,0.78157,,,,,,,,,,,,,,,,,,,,,,60ff6789f2c59752d68e53b9,61036c4c75313f245eb89e26,2021-07-29_20h05.27.373,Simcolourproject_2stim_asymm_v5,2020.2.10,MacIntel,60,61025ae37ef11b136ea224fe,,,,,,,,,1709,38.40234375,63.5390625,1,0,0,response1disk,,7,3.09375,3.13671875,1,0,0,rectangle,3.09375,3.13671875,1,0,0,3.09375,3.13671875,1,0,0,0,87,87,90,1,,,,,,,,
,,,,,,,,,,,,,FF,,,,,,,,0.7864,,,,,,,,,,,,,,,,,,,,,,60ff6789f2c59752d68e53b9,61036c4c75313f245eb89e26,2021-07-29_20h05.27.373,Simcolourproject_2stim_asymm_v5,2020.2.10,MacIntel,60,61025ae37ef11b136ea224fe,,,,,,,,,753,55.19140625,99.4140625,1,0,0,response1disk,,7,11.91796875,0.89453125,1,0,0,rectangle,11.91796875,0.89453125,1,0,0,11.91796875,0.89453125,1,0,0,0,88,88,57,1,,,,,,,,
,,,,,,,,,,,,,FF,,,,,,,,1.499315,,,,,,,,,,,,,,,,,,,,,,60ff6789f2c59752d68e53b9,61036c4c75313f245eb89e26,2021-07-29_20h05.27.373,Simcolourproject_2stim_asymm_v5,2020.2.10,MacIntel,60,61025ae37ef11b136ea224fe,,,,,,,,,524,-17.796875,-72.390625,1,0,0,response5disk,,3,4.30078125,-8.8046875,1,0,0,rectangle,4.30078125,-8.8046875,1,0,0,4.30078125,-8.8046875,1,0,0,0,89,89,142,1,,,,,,,,
,,,,,,,,,,,,,FF,,,,,,,,0.89969,,,,,,,,,,,,,,,,,,,,,,60ff6789f2c59752d68e53b9,61036c4c75313f245eb89e26,2021-07-29_20h05.27.373,Simcolourproject_2stim_asymm_v5,2020.2.10,MacIntel,60,61025ae37ef11b136ea224fe,,,,,,,,,2166,-77.11328125,32.39453125,1,0,0,response7disk,,1,-6.07421875,-2.05078125,1,0,0,rectangle,-6.07421875,-2.05078125,1,0,0,-6.07421875,-2.05078125,1,0,0,0,90,90,63,1,,,,,,,,
,,,,,,,,,,,,,FF,,,,,,,,1.618315,,,,,,,,,,,,,,,,,,,,,,60ff6789f2c59752d68e53b9,61036c4c75313f245eb89e26,2021-07-29_20h05.27.373,Simcolourproject_2stim_asymm_v5,2020.2.10,MacIntel,60,61025ae37ef11b136ea224fe,,,,,,,,,4281,-74.6484375,-35.296875,1,0,0,response5disk,,2,5.98046875,0.921875,1,0,0,rectangle,5.98046875,0.921875,1,0,0,5.98046875,0.921875,1,0,0,0,91,91,47,1,,,,,,,,
,,,,,,,,,,,,,FF,,,,,,,,6.819795,,,,,,,,,,,,,,,,,,,,,,60ff6789f2c59752d68e53b9,61036c4c75313f245eb89e26,2021-07-29_20h05.27.373,Simcolourproject_2stim_asymm_v5,2020.2.10,MacIntel,60,61025ae37ef11b136ea224fe,,,,,,,,,2485,80.65234375,-25.171875,1,0,0,response3disk,,5,10.0546875,-5.09375,1,0,0,rectangle,10.0546875,-5.09375,1,0,0,10.0546875,-5.09375,1,0,0,0,92,92,114,1,,,,,,,,
,,,,,,,,,,,,,FF,,,,,,,,4.869225,,,,,,,,,,,,,,,,,,,,,,60ff6789f2c59752d68e53b9,61036c4c75313f245eb89e26,2021-07-29_20h05.27.373,Simcolourproject_2stim_asymm_v5,2020.2.10,MacIntel,60,61025ae37ef11b136ea224fe,,,,,,,,,3384,32.37890625,-71.734375,1,0,0,response3disk,,4,2.21875,-1.89453125,1,0,0,rectangle,2.21875,-1.89453125,1,0,0,2.21875,-1.89453125,1,0,0,0,93,93,25,1,,,,,,,,
,,,,,,,,,,,,,FF,,,,,,,,1.00456,,,,,,,,,,,,,,,,,,,,,,60ff6789f2c59752d68e53b9,61036c4c75313f245eb89e26,2021-07-29_20h05.27.373,Simcolourproject_2stim_asymm_v5,2020.2.10,MacIntel,60,61025ae37ef11b136ea224fe,,,,,,,,,324,72.265625,-41.1640625,1,0,0,response3disk,,5,4.94921875,-11.11328125,1,0,0,rectangle,4.94921875,-11.11328125,1,0,0,4.94921875,-11.11328125,1,0,0,0,94,94,135,1,,,,,,,,
,,,,,,,,,,,,,FF,,,,,,,,0.967205,,,,,,,,,,,,,,,,,,,,,,60ff6789f2c59752d68e53b9,61036c4c75313f245eb89e26,2021-07-29_20h05.27.373,Simcolourproject_2stim_asymm_v5,2020.2.10,MacIntel,60,61025ae37ef11b136ea224fe,,,,,,,,,652,-29.24609375,-95.64453125,1,0,0,response5disk,,3,14.69140625,11.37890625,1,0,0,rectangle,14.69140625,11.37890625,1,0,0,14.69140625,11.37890625,1,0,0,0,95,95,75,1,,,,,,,,
,,,,,,,,,,,,,FF,,,,,,,,2.084185,,,,,,,,,,,,,,,,,,,,,,60ff6789f2c59752d68e53b9,61036c4c75313f245eb89e26,2021-07-29_20h05.27.373,Simcolourproject_2stim_asymm_v5,2020.2.10,MacIntel,60,61025ae37ef11b136ea224fe,,,,,,,,,1726,-52.171875,-89.96875,1,0,0,response5disk,,3,2.296875,-2.37109375,1,0,0,rectangle,2.296875,-2.37109375,1,0,0,2.296875,-2.37109375,1,0,0,0,96,96,107,1,,,,,,,,
,,,,,,,,,,,,,FF,,,,,,,,1.51681,,,,,,,,,,,,,,,,,,,,,,60ff6789f2c59752d68e53b9,61036c4c75313f245eb89e26,2021-07-29_20h05.27.373,Simcolourproject_2stim_asymm_v5,2020.2.10,MacIntel,60,61025ae37ef11b136ea224fe,,,,,,,,,2749,88.625,-39.4921875,1,0,0,response3disk,,5,-0.04296875,4.23828125,1,0,0,rectangle,-0.04296875,4.23828125,1,0,0,-0.04296875,4.23828125,1,0,0,0,97,97,62,1,,,,,,,,
,,,,,,,,,,,,,FF,,,,,,,,3.817195,,,,,,,,,,,,,,,,,,,,,,60ff6789f2c59752d68e53b9,61036c4c75313f245eb89e26,2021-07-29_20h05.27.373,Simcolourproject_2stim_asymm_v5,2020.2.10,MacIntel,60,61025ae37ef11b136ea224fe,,,,,,,,,2772,31.1796875,-75.1875,1,0,0,response3disk,,4,22.09375,0.79296875,1,0,0,rectangle,22.09375,0.79296875,1,0,0,22.09375,0.79296875,1,0,0,0,98,98,133,1,,,,,,,,
,,,,,,,,,,,,,FF,,,,,,,,0.867845,,,,,,,,,,,,,,,,,,,,,,60ff6789f2c59752d68e53b9,61036c4c75313f245eb89e26,2021-07-29_20h05.27.373,Simcolourproject_2stim_asymm_v5,2020.2.10,MacIntel,60,61025ae37ef11b136ea224fe,,,,,,,,,3139,-41.33203125,-98.77734375,1,0,0,response5disk,,3,2.296875,-6.1171875,1,0,0,rectangle,27.59765625,-96.671875,1,0,0,4.6875,-6.765625,1,0,0,0,99,99,156,1,,response3disk_3,TRUE,4,4,"[18,100,33,246,46,147,213,6,59,73,196,128,238,18,130,61,297,148,211,61]",1.83405,rectangle
,,,,,,,,,,,,,FF,,,,,,,,1.817375,,,,,,,,,,,,,,,,,,,,,,60ff6789f2c59752d68e53b9,61036c4c75313f245eb89e26,2021-07-29_20h05.27.373,Simcolourproject_2stim_asymm_v5,2020.2.10,MacIntel,60,61025ae37ef11b136ea224fe,,,,,,,,,15,71.24609375,-39.83984375,1,0,0,response3disk,,5,-5.94921875,-8.36328125,1,0,0,rectangle,-5.94921875,-8.36328125,1,0,0,-5.94921875,-8.36328125,1,0,0,0,100,100,113,1,,,,,,,,
,,,,,,,,,,,,,FF,,,,,,,,0.81687,,,,,,,,,,,,,,,,,,,,,,60ff6789f2c59752d68e53b9,61036c4c75313f245eb89e26,2021-07-29_20h05.27.373,Simcolourproject_2stim_asymm_v5,2020.2.10,MacIntel,60,61025ae37ef11b136ea224fe,,,,,,,,,1313,-47.234375,-31.50390625,1,0,0,response5disk,,2,-4.3125,-7.0546875,1,0,0,rectangle,-4.3125,-7.0546875,1,0,0,-4.3125,-7.0546875,1,0,0,0,101,101,43,1,,,,,,,,
,,,,,,,,,,,,,FF,,,,,,,,0.966825,,,,,,,,,,,,,,,,,,,,,,60ff6789f2c59752d68e53b9,61036c4c75313f245eb89e26,2021-07-29_20h05.27.373,Simcolourproject_2stim_asymm_v5,2020.2.10,MacIntel,60,61025ae37ef11b136ea224fe,,,,,,,,,964,59.41796875,-82.98046875,1,0,0,response3disk,,4,8.265625,-11.16796875,1,0,0,rectangle,8.265625,-11.16796875,1,0,0,8.265625,-11.16796875,1,0,0,0,102,102,129,1,,,,,,,,
,,,,,,,,,,,,,FF,,,,,,,,1.0199,,,,,,,,,,,,,,,,,,,,,,60ff6789f2c59752d68e53b9,61036c4c75313f245eb89e26,2021-07-29_20h05.27.373,Simcolourproject_2stim_asymm_v5,2020.2.10,MacIntel,60,61025ae37ef11b136ea224fe,,,,,,,,,206,33.58984375,-96.81640625,1,0,0,response3disk,,4,2.95703125,-0.98046875,1,0,0,rectangle,2.95703125,-0.98046875,1,0,0,2.95703125,-0.98046875,1,0,0,0,103,103,87,1,,,,,,,,
,,,,,,,,,,,,,FF,,,,,,,,0.764225,,,,,,,,,,,,,,,,,,,,,,60ff6789f2c59752d68e53b9,61036c4c75313f245eb89e26,2021-07-29_20h05.27.373,Simcolourproject_2stim_asymm_v5,2020.2.10,MacIntel,60,61025ae37ef11b136ea224fe,,,,,,,,,3987,21.91015625,54.359375,1,0,0,response1disk,,7,3.046875,0.11328125,1,0,0,rectangle,3.046875,0.11328125,1,0,0,3.046875,0.11328125,1,0,0,0,104,104,72,1,,,,,,,,
,,,,,,,,,,,,,FF,,,,,,,,1.78465,,,,,,,,,,,,,,,,,,,,,,60ff6789f2c59752d68e53b9,61036c4c75313f245eb89e26,2021-07-29_20h05.27.373,Simcolourproject_2stim_asymm_v5,2020.2.10,MacIntel,60,61025ae37ef11b136ea224fe,,,,,,,,,2791,35.95703125,-99.953125,1,0,0,response3disk,,4,-0.25390625,-5.41015625,1,0,0,rectangle,-0.25390625,-5.41015625,1,0,0,-0.25390625,-5.41015625,1,0,0,0,105,105,145,1,,,,,,,,
,,,,,,,,,,,,,FF,,,,,,,,0.901165,,,,,,,,,,,,,,,,,,,,,,60ff6789f2c59752d68e53b9,61036c4c75313f245eb89e26,2021-07-29_20h05.27.373,Simcolourproject_2stim_asymm_v5,2020.2.10,MacIntel,60,61025ae37ef11b136ea224fe,,,,,,,,,1436,69.1796875,23.9296875,1,0,0,response1disk,,6,-1.7734375,-0.12890625,1,0,0,rectangle,-1.7734375,-0.12890625,1,0,0,-1.7734375,-0.12890625,1,0,0,0,106,106,100,1,,,,,,,,
,,,,,,,,,,,,,FF,,,,,,,,1.100805,,,,,,,,,,,,,,,,,,,,,,60ff6789f2c59752d68e53b9,61036c4c75313f245eb89e26,2021-07-29_20h05.27.373,Simcolourproject_2stim_asymm_v5,2020.2.10,MacIntel,60,61025ae37ef11b136ea224fe,,,,,,,,,73,45.24609375,-72.359375,1,0,0,response3disk,,4,5.74609375,1.6953125,1,0,0,rectangle,5.74609375,1.6953125,1,0,0,5.74609375,1.6953125,1,0,0,0,107,107,92,1,,,,,,,,
,,,,,,,,,,,,,FF,,,,,,,,0.917935,,,,,,,,,,,,,,,,,,,,,,60ff6789f2c59752d68e53b9,61036c4c75313f245eb89e26,2021-07-29_20h05.27.373,Simcolourproject_2stim_asymm_v5,2020.2.10,MacIntel,60,61025ae37ef11b136ea224fe,,,,,,,,,2968,72.5703125,-55.0546875,1,0,0,response3disk,,5,12.3203125,-8.21875,1,0,0,rectangle,12.3203125,-8.21875,1,0,0,12.3203125,-8.21875,1,0,0,0,108,108,86,1,,,,,,,,
,,,,,,,,,,,,,FF,,,,,,,,0.80179,,,,,,,,,,,,,,,,,,,,,,60ff6789f2c59752d68e53b9,61036c4c75313f245eb89e26,2021-07-29_20h05.27.373,Simcolourproject_2stim_asymm_v5,2020.2.10,MacIntel,60,61025ae37ef11b136ea224fe,,,,,,,,,1815,-49.4921875,91.35546875,1,0,0,response7disk,,0,-12.03125,8.83203125,1,0,0,rectangle,-12.03125,8.83203125,1,0,0,-12.03125,8.83203125,1,0,0,0,109,109,152,1,,,,,,,,
,,,,,,,,,,,,,FF,,,,,,,,1.33201,,,,,,,,,,,,,,,,,,,,,,60ff6789f2c59752d68e53b9,61036c4c75313f245eb89e26,2021-07-29_20h05.27.373,Simcolourproject_2stim_asymm_v5,2020.2.10,MacIntel,60,61025ae37ef11b136ea224fe,,,,,,,,,3813,-77.33984375,-36.203125,1,0,0,response5disk,,2,2.23828125,-1.52734375,1,0,0,rectangle,2.23828125,-1.52734375,1,0,0,2.23828125,-1.52734375,1,0,0,0,110,110,88,1,,,,,,,,
,,,,,,,,,,,,,FF,,,,,,,,1.750835,,,,,,,,,,,,,,,,,,,,,,60ff6789f2c59752d68e53b9,61036c4c75313f245eb89e26,2021-07-29_20h05.27.373,Simcolourproject_2stim_asymm_v5,2020.2.10,MacIntel,60,61025ae37ef11b136ea224fe,,,,,,,,,1995,41.25,79.4296875,1,0,0,response1disk,,7,4.4609375,-0.88671875,1,0,0,rectangle,4.4609375,-0.88671875,1,0,0,4.4609375,-0.88671875,1,0,0,0,111,111,67,1,,,,,,,,
,,,,,,,,,,,,,FF,,,,,,,,0.699995,,,,,,,,,,,,,,,,,,,,,,60ff6789f2c59752d68e53b9,61036c4c75313f245eb89e26,2021-07-29_20h05.27.373,Simcolourproject_2stim_asymm_v5,2020.2.10,MacIntel,60,61025ae37ef11b136ea224fe,,,,,,,,,3146,-42.94140625,67.75,1,0,0,response7disk,,0,-7.19140625,4.61328125,1,0,0,rectangle,-7.19140625,4.61328125,1,0,0,-7.19140625,4.61328125,1,0,0,0,112,112,23,1,,,,,,,,
,,,,,,,,,,,,,FF,,,,,,,,1.651165,,,,,,,,,,,,,,,,,,,,,,60ff6789f2c59752d68e53b9,61036c4c75313f245eb89e26,2021-07-29_20h05.27.373,Simcolourproject_2stim_asymm_v5,2020.2.10,MacIntel,60,61025ae37ef11b136ea224fe,,,,,,,,,4286,67.109375,-38.0078125,1,0,0,response3disk,,5,7.7578125,0.796875,1,0,0,rectangle,7.7578125,0.796875,1,0,0,7.7578125,0.796875,1,0,0,0,113,113,44,1,,,,,,,,
,,,,,,,,,,,,,FF,,,,,,,,1.568065,,,,,,,,,,,,,,,,,,,,,,60ff6789f2c59752d68e53b9,61036c4c75313f245eb89e26,2021-07-29_20h05.27.373,Simcolourproject_2stim_asymm_v5,2020.2.10,MacIntel,60,61025ae37ef11b136ea224fe,,,,,,,,,2679,-47.01953125,-66.45703125,1,0,0,response5disk,,3,-2.30078125,-2.625,1,0,0,rectangle,-2.30078125,-2.625,1,0,0,-2.30078125,-2.625,1,0,0,0,114,114,119,1,,,,,,,,
,,,,,,,,,,,,,FF,,,,,,,,0.91691,,,,,,,,,,,,,,,,,,,,,,60ff6789f2c59752d68e53b9,61036c4c75313f245eb89e26,2021-07-29_20h05.27.373,Simcolourproject_2stim_asymm_v5,2020.2.10,MacIntel,60,61025ae37ef11b136ea224fe,,,,,,,,,1319,36.62890625,-104.484375,1,0,0,response3disk,,4,1.45703125,-7.60546875,1,0,0,rectangle,1.45703125,-7.60546875,1,0,0,1.45703125,-7.60546875,1,0,0,0,115,115,141,1,,,,,,,,
,,,,,,,,,,,,,FF,,,,,,,,1.301405,,,,,,,,,,,,,,,,,,,,,,60ff6789f2c59752d68e53b9,61036c4c75313f245eb89e26,2021-07-29_20h05.27.373,Simcolourproject_2stim_asymm_v5,2020.2.10,MacIntel,60,61025ae37ef11b136ea224fe,,,,,,,,,4188,-77.4375,-50.44140625,1,0,0,response5disk,,2,2.71875,12.0546875,1,0,0,rectangle,2.71875,12.0546875,1,0,0,2.71875,12.0546875,1,0,0,0,116,116,80,1,,,,,,,,
,,,,,,,,,,,,,FF,,,,,,,,0.766975,,,,,,,,,,,,,,,,,,,,,,60ff6789f2c59752d68e53b9,61036c4c75313f245eb89e26,2021-07-29_20h05.27.373,Simcolourproject_2stim_asymm_v5,2020.2.10,MacIntel,60,61025ae37ef11b136ea224fe,,,,,,,,,3200,-71.1015625,-29.55859375,1,0,0,response5disk,,2,-10.6796875,-2.63671875,1,0,0,rectangle,-10.6796875,-2.63671875,1,0,0,-10.6796875,-2.63671875,1,0,0,0,117,117,9,1,,,,,,,,
,,,,,,,,,,,,,FF,,,,,,,,1.35002,,,,,,,,,,,,,,,,,,,,,,60ff6789f2c59752d68e53b9,61036c4c75313f245eb89e26,2021-07-29_20h05.27.373,Simcolourproject_2stim_asymm_v5,2020.2.10,MacIntel,60,61025ae37ef11b136ea224fe,,,,,,,,,2237,-44.41796875,-86.4140625,1,0,0,response5disk,,3,-3.61328125,-8.59765625,1,0,0,rectangle,-3.61328125,-8.59765625,1,0,0,-3.61328125,-8.59765625,1,0,0,0,118,118,132,1,,,,,,,,
,,,,,,,,,,,,,FF,,,,,,,,1.0841,,,,,,,,,,,,,,,,,,,,,,60ff6789f2c59752d68e53b9,61036c4c75313f245eb89e26,2021-07-29_20h05.27.373,Simcolourproject_2stim_asymm_v5,2020.2.10,MacIntel,60,61025ae37ef11b136ea224fe,,,,,,,,,2790,31.8125,-86.91015625,1,0,0,response3disk,,4,9.3671875,-9.44140625,1,0,0,rectangle,9.3671875,-9.44140625,1,0,0,9.3671875,-9.44140625,1,0,0,0,119,119,24,1,,,,,,,,
,,,,,,,,,,,,,FF,,,,,,,,1.41688,,,,,,,,,,,,,,,,,,,,,,60ff6789f2c59752d68e53b9,61036c4c75313f245eb89e26,2021-07-29_20h05.27.373,Simcolourproject_2stim_asymm_v5,2020.2.10,MacIntel,60,61025ae37ef11b136ea224fe,,,,,,,,,297,71.984375,35.69921875,1,0,0,response1disk,,6,2.5,-1.61328125,1,0,0,rectangle,2.5,-1.61328125,1,0,0,2.5,-1.61328125,1,0,0,0,120,120,89,1,,,,,,,,
,,,,,,,,,,,,,FF,,,,,,,,0.901725,,,,,,,,,,,,,,,,,,,,,,60ff6789f2c59752d68e53b9,61036c4c75313f245eb89e26,2021-07-29_20h05.27.373,Simcolourproject_2stim_asymm_v5,2020.2.10,MacIntel,60,61025ae37ef11b136ea224fe,,,,,,,,,2409,39.18359375,69.0703125,1,0,0,response1disk,,7,5.953125,6.60546875,1,0,0,rectangle,5.953125,6.60546875,1,0,0,5.953125,6.60546875,1,0,0,0,121,121,46,1,,,,,,,,
,,,,,,,,,,,,,FF,,,,,,,,0.66817,,,,,,,,,,,,,,,,,,,,,,60ff6789f2c59752d68e53b9,61036c4c75313f245eb89e26,2021-07-29_20h05.27.373,Simcolourproject_2stim_asymm_v5,2020.2.10,MacIntel,60,61025ae37ef11b136ea224fe,,,,,,,,,1990,32.51171875,56.1875,1,0,0,response1disk,,7,5.2578125,-3.6796875,1,0,0,rectangle,5.2578125,-3.6796875,1,0,0,5.2578125,-3.6796875,1,0,0,0,122,122,19,1,,,,,,,,
,,,,,,,,,,,,,FF,,,,,,,,1.350755,,,,,,,,,,,,,,,,,,,,,,60ff6789f2c59752d68e53b9,61036c4c75313f245eb89e26,2021-07-29_20h05.27.373,Simcolourproject_2stim_asymm_v5,2020.2.10,MacIntel,60,61025ae37ef11b136ea224fe,,,,,,,,,2536,71.140625,-40.453125,1,0,0,response3disk,,5,2.859375,-2.42578125,1,0,0,rectangle,2.859375,-2.42578125,1,0,0,2.859375,-2.42578125,1,0,0,0,123,123,128,1,,,,,,,,
,,,,,,,,,,,,,FF,,,,,,,,0.99996,,,,,,,,,,,,,,,,,,,,,,60ff6789f2c59752d68e53b9,61036c4c75313f245eb89e26,2021-07-29_20h05.27.373,Simcolourproject_2stim_asymm_v5,2020.2.10,MacIntel,60,61025ae37ef11b136ea224fe,,,,,,,,,4077,30.33984375,-81.07421875,1,0,0,response3disk,,4,4.66796875,4.109375,1,0,0,rectangle,4.66796875,4.109375,1,0,0,4.66796875,4.109375,1,0,0,0,124,124,148,1,,,,,,,,
,,,,,,,,,,,,,FF,,,,,,,,1.266785,,,,,,,,,,,,,,,,,,,,,,60ff6789f2c59752d68e53b9,61036c4c75313f245eb89e26,2021-07-29_20h05.27.373,Simcolourproject_2stim_asymm_v5,2020.2.10,MacIntel,60,61025ae37ef11b136ea224fe,,,,,,,,,3663,-44.625,-81.078125,1,0,0,response5disk,,3,-2.9453125,-0.49609375,1,0,0,rectangle,-2.9453125,-0.49609375,1,0,0,-2.9453125,-0.49609375,1,0,0,0,125,125,95,1,,,,,,,,
,,,,,,,,,,,,,FF,,,,,,,,1.05011,,,,,,,,,,,,,,,,,,,,,,60ff6789f2c59752d68e53b9,61036c4c75313f245eb89e26,2021-07-29_20h05.27.373,Simcolourproject_2stim_asymm_v5,2020.2.10,MacIntel,60,61025ae37ef11b136ea224fe,,,,,,,,,3325,72.61328125,-34.55078125,1,0,0,response3disk,,5,10.6328125,-6.27734375,1,0,0,rectangle,10.6328125,-6.27734375,1,0,0,10.6328125,-6.27734375,1,0,0,0,126,126,158,1,,,,,,,,
,,,,,,,,,,,,,FF,,,,,,,,1.168485,,,,,,,,,,,,,,,,,,,,,,60ff6789f2c59752d68e53b9,61036c4c75313f245eb89e26,2021-07-29_20h05.27.373,Simcolourproject_2stim_asymm_v5,2020.2.10,MacIntel,60,61025ae37ef11b136ea224fe,,,,,,,,,604,57.30078125,87.6875,1,0,0,response1disk,,7,-1.66796875,-1.203125,1,0,0,rectangle,36.49609375,-98.2109375,1,0,0,0.84765625,-3.19140625,1,0,0,0,127,127,144,1,,response3disk_3,TRUE,4,4,"[18,100,33,246,46,147,213,6,59,73,196,128,238,18,130,61,297,148,211,61]",1.46712,rectangle
,,,,,,,,,,,,,FF,,,,,,,,3.367555,,,,,,,,,,,,,,,,,,,,,,60ff6789f2c59752d68e53b9,61036c4c75313f245eb89e26,2021-07-29_20h05.27.373,Simcolourproject_2stim_asymm_v5,2020.2.10,MacIntel,60,61025ae37ef11b136ea224fe,,,,,,,,,4338,-29.015625,-72.125,1,0,0,response5disk,,3,4.671875,14.640625,1,0,0,rectangle,4.671875,14.640625,1,0,0,4.671875,14.640625,1,0,0,0,128,128,10,1,,,,,,,,
,,,,,,,,,,,,,FF,,,,,,,,1.3177,,,,,,,,,,,,,,,,,,,,,,60ff6789f2c59752d68e53b9,61036c4c75313f245eb89e26,2021-07-29_20h05.27.373,Simcolourproject_2stim_asymm_v5,2020.2.10,MacIntel,60,61025ae37ef11b136ea224fe,,,,,,,,,3100,-43.01953125,-93.48046875,1,0,0,response5disk,,3,-4.41015625,-9.4140625,1,0,0,rectangle,47.03515625,72.16015625,1,0,0,4.203125,0.234375,1,0,0,0,129,129,3,1,,response1disk_3,TRUE,7,7,"[18,100,33,246,46,147,213,6,59,73,196,128,238,18,130,61,297,148,211,61]",1.63559,rectangle
,,,,,,,,,,,,,FF,,,,,,,,1.150495,,,,,,,,,,,,,,,,,,,,,,60ff6789f2c59752d68e53b9,61036c4c75313f245eb89e26,2021-07-29_20h05.27.373,Simcolourproject_2stim_asymm_v5,2020.2.10,MacIntel,60,61025ae37ef11b136ea224fe,,,,,,,,,3622,110.0234375,-47.65625,1,0,0,response3disk,,5,5.42578125,-4.66015625,1,0,0,rectangle,5.42578125,-4.66015625,1,0,0,5.42578125,-4.66015625,1,0,0,0,130,130,28,1,,,,,,,,
,,,,,,,,,,,,,FF,,,,,,,,0.669015,,,,,,,,,,,,,,,,,,,,,,60ff6789f2c59752d68e53b9,61036c4c75313f245eb89e26,2021-07-29_20h05.27.373,Simcolourproject_2stim_asymm_v5,2020.2.10,MacIntel,60,61025ae37ef11b136ea224fe,,,,,,,,,1459,-31.828125,82.890625,1,0,0,response7disk,,0,-20.2578125,9.57421875,1,0,0,rectangle,-20.2578125,9.57421875,1,0,0,-20.2578125,9.57421875,1,0,0,0,131,131,59,1,,,,,,,,
,,,,,,,,,,,,,FF,,,,,,,,1.0498,,,,,,,,,,,,,,,,,,,,,,60ff6789f2c59752d68e53b9,61036c4c75313f245eb89e26,2021-07-29_20h05.27.373,Simcolourproject_2stim_asymm_v5,2020.2.10,MacIntel,60,61025ae37ef11b136ea224fe,,,,,,,,,2351,31.66015625,-99.98046875,1,0,0,response3disk,,4,11.94140625,-8.9921875,1,0,0,rectangle,11.94140625,-8.9921875,1,0,0,11.94140625,-8.9921875,1,0,0,0,132,132,110,1,,,,,,,,
,,,,,,,,,,,,,FF,,,,,,,,1.117895,,,,,,,,,,,,,,,,,,,,,,60ff6789f2c59752d68e53b9,61036c4c75313f245eb89e26,2021-07-29_20h05.27.373,Simcolourproject_2stim_asymm_v5,2020.2.10,MacIntel,60,61025ae37ef11b136ea224fe,,,,,,,,,986,72.43359375,-44.640625,1,0,0,response3disk,,5,12.51171875,-11.22265625,1,0,0,rectangle,12.51171875,-11.22265625,1,0,0,12.51171875,-11.22265625,1,0,0,0,133,133,103,1,,,,,,,,
,,,,,,,,,,,,,FF,,,,,,,,1.649435,,,,,,,,,,,,,,,,,,,,,,60ff6789f2c59752d68e53b9,61036c4c75313f245eb89e26,2021-07-29_20h05.27.373,Simcolourproject_2stim_asymm_v5,2020.2.10,MacIntel,60,61025ae37ef11b136ea224fe,,,,,,,,,3887,-71.578125,-45.58984375,1,0,0,response5disk,,2,-0.79296875,-0.04296875,1,0,0,rectangle,-0.79296875,-0.04296875,1,0,0,-0.79296875,-0.04296875,1,0,0,0,134,134,150,1,,,,,,,,
,,,,,,,,,,,,,FF,,,,,,,,1.38378,,,,,,,,,,,,,,,,,,,,,,60ff6789f2c59752d68e53b9,61036c4c75313f245eb89e26,2021-07-29_20h05.27.373,Simcolourproject_2stim_asymm_v5,2020.2.10,MacIntel,60,61025ae37ef11b136ea224fe,,,,,,,,,362,79.0078125,40.18359375,1,0,0,response1disk,,6,0.9140625,3.3828125,1,0,0,rectangle,0.9140625,3.3828125,1,0,0,0.9140625,3.3828125,1,0,0,0,135,135,66,1,,,,,,,,
,,,,,,,,,,,,,FF,,,,,,,,0.79838,,,,,,,,,,,,,,,,,,,,,,60ff6789f2c59752d68e53b9,61036c4c75313f245eb89e26,2021-07-29_20h05.27.373,Simcolourproject_2stim_asymm_v5,2020.2.10,MacIntel,60,61025ae37ef11b136ea224fe,,,,,,,,,97,-48.3671875,-87.49609375,1,0,0,response5disk,,3,1.1640625,-7.75390625,1,0,0,rectangle,1.1640625,-7.75390625,1,0,0,1.1640625,-7.75390625,1,0,0,0,136,136,2,1,,,,,,,,
,,,,,,,,,,,,,FF,,,,,,,,0.952005,,,,,,,,,,,,,,,,,,,,,,60ff6789f2c59752d68e53b9,61036c4c75313f245eb89e26,2021-07-29_20h05.27.373,Simcolourproject_2stim_asymm_v5,2020.2.10,MacIntel,60,61025ae37ef11b136ea224fe,,,,,,,,,994,28.8984375,58.1796875,1,0,0,response1disk,,7,7.41796875,6.89453125,1,0,0,rectangle,7.41796875,6.89453125,1,0,0,7.41796875,6.89453125,1,0,0,0,137,137,84,1,,,,,,,,
,,,,,,,,,,,,,FF,,,,,,,,1.435655,,,,,,,,,,,,,,,,,,,,,,60ff6789f2c59752d68e53b9,61036c4c75313f245eb89e26,2021-07-29_20h05.27.373,Simcolourproject_2stim_asymm_v5,2020.2.10,MacIntel,60,61025ae37ef11b136ea224fe,,,,,,,,,2046,18.44140625,-86.2734375,1,0,0,response3disk,,4,8.01953125,-9.6015625,1,0,0,rectangle,8.01953125,-9.6015625,1,0,0,8.01953125,-9.6015625,1,0,0,0,138,138,49,1,,,,,,,,
,,,,,,,,,,,,,FF,,,,,,,,0.83391,,,,,,,,,,,,,,,,,,,,,,60ff6789f2c59752d68e53b9,61036c4c75313f245eb89e26,2021-07-29_20h05.27.373,Simcolourproject_2stim_asymm_v5,2020.2.10,MacIntel,60,61025ae37ef11b136ea224fe,,,,,,,,,3487,41.390625,57.15234375,1,0,0,response1disk,,7,13.3203125,-2.30859375,1,0,0,rectangle,13.3203125,-2.30859375,1,0,0,13.3203125,-2.30859375,1,0,0,0,139,139,151,1,,,,,,,,
,,,,,,,,,,,,,FF,,,,,,,,1.38405,,,,,,,,,,,,,,,,,,,,,,60ff6789f2c59752d68e53b9,61036c4c75313f245eb89e26,2021-07-29_20h05.27.373,Simcolourproject_2stim_asymm_v5,2020.2.10,MacIntel,60,61025ae37ef11b136ea224fe,,,,,,,,,311,63.9375,32.10546875,1,0,0,response1disk,,6,-1.41796875,-4.15234375,1,0,0,rectangle,-1.41796875,-4.15234375,1,0,0,-1.41796875,-4.15234375,1,0,0,0,140,140,83,1,,,,,,,,
,,,,,,,,,,,,,FF,,,,,,,,0.949945,,,,,,,,,,,,,,,,,,,,,,60ff6789f2c59752d68e53b9,61036c4c75313f245eb89e26,2021-07-29_20h05.27.373,Simcolourproject_2stim_asymm_v5,2020.2.10,MacIntel,60,61025ae37ef11b136ea224fe,,,,,,,,,1830,-54.43359375,-94.62890625,1,0,0,response5disk,,3,-9.75390625,-8.71484375,1,0,0,rectangle,-9.75390625,-8.71484375,1,0,0,-9.75390625,-8.71484375,1,0,0,0,141,141,73,1,,,,,,,,
,,,,,,,,,,,,,FF,,,,,,,,0.799635,,,,,,,,,,,,,,,,,,,,,,60ff6789f2c59752d68e53b9,61036c4c75313f245eb89e26,2021-07-29_20h05.27.373,Simcolourproject_2stim_asymm_v5,2020.2.10,MacIntel,60,61025ae37ef11b136ea224fe,,,,,,,,,96,-39.71875,-81.55859375,1,0,0,response5disk,,3,0.44140625,-1.1796875,1,0,0,rectangle,0.44140625,-1.1796875,1,0,0,0.44140625,-1.1796875,1,0,0,0,142,142,136,1,,,,,,,,
,,,,,,,,,,,,,FF,,,,,,,,1.653645,,,,,,,,,,,,,,,,,,,,,,60ff6789f2c59752d68e53b9,61036c4c75313f245eb89e26,2021-07-29_20h05.27.373,Simcolourproject_2stim_asymm_v5,2020.2.10,MacIntel,60,61025ae37ef11b136ea224fe,,,,,,,,,713,48.90234375,71.81640625,1,0,0,response1disk,,7,-1.6171875,-2.69921875,1,0,0,rectangle,-1.6171875,-2.69921875,1,0,0,-1.6171875,-2.69921875,1,0,0,0,143,143,71,1,,,,,,,,
,,,,,,,,,,,,,FF,,,,,,,,1.267265,,,,,,,,,,,,,,,,,,,,,,60ff6789f2c59752d68e53b9,61036c4c75313f245eb89e26,2021-07-29_20h05.27.373,Simcolourproject_2stim_asymm_v5,2020.2.10,MacIntel,60,61025ae37ef11b136ea224fe,,,,,,,,,3839,39.2421875,-76.43359375,1,0,0,response3disk,,4,6.8671875,-7.609375,1,0,0,rectangle,6.8671875,-7.609375,1,0,0,6.8671875,-7.609375,1,0,0,0,144,144,20,1,,,,,,,,
,,,,,,,,,,,,,FF,,,,,,,,1.000855,,,,,,,,,,,,,,,,,,,,,,60ff6789f2c59752d68e53b9,61036c4c75313f245eb89e26,2021-07-29_20h05.27.373,Simcolourproject_2stim_asymm_v5,2020.2.10,MacIntel,60,61025ae37ef11b136ea224fe,,,,,,,,,245,63.7734375,-35.71484375,1,0,0,response3disk,,5,10.53125,-5.90625,1,0,0,rectangle,10.53125,-5.90625,1,0,0,10.53125,-5.90625,1,0,0,0,145,145,38,1,,,,,,,,
,,,,,,,,,,,,,FF,,,,,,,,2.20122,,,,,,,,,,,,,,,,,,,,,,60ff6789f2c59752d68e53b9,61036c4c75313f245eb89e26,2021-07-29_20h05.27.373,Simcolourproject_2stim_asymm_v5,2020.2.10,MacIntel,60,61025ae37ef11b136ea224fe,,,,,,,,,1687,29.2890625,-87.19921875,1,0,0,response3disk,,4,9.015625,-2.71875,1,0,0,rectangle,-31.4296875,-84.3671875,1,0,0,-3.765625,-3.83203125,1,0,0,0,146,146,101,1,,response5disk_3,TRUE,3,3,"[18,100,33,246,46,147,213,6,59,73,196,128,238,18,130,61,297,148,211,61]",1.94947,rectangle
,,,,,,,,,,,,,FF,,,,,,,,0.830825,,,,,,,,,,,,,,,,,,,,,,60ff6789f2c59752d68e53b9,61036c4c75313f245eb89e26,2021-07-29_20h05.27.373,Simcolourproject_2stim_asymm_v5,2020.2.10,MacIntel,60,61025ae37ef11b136ea224fe,,,,,,,,,854,70.6015625,-55.15625,1,0,0,response3disk,,5,4.296875,-13.51171875,1,0,0,rectangle,-33.99609375,-89.9296875,1,0,0,6.9609375,-1.99609375,1,0,0,0,147,147,109,1,,response5disk_3,TRUE,3,3,"[18,100,33,246,46,147,213,6,59,73,196,128,238,18,130,61,297,148,211,61]",2.501935,rectangle
,,,,,,,,,,,,,FF,,,,,,,,0.934165,,,,,,,,,,,,,,,,,,,,,,60ff6789f2c59752d68e53b9,61036c4c75313f245eb89e26,2021-07-29_20h05.27.373,Simcolourproject_2stim_asymm_v5,2020.2.10,MacIntel,60,61025ae37ef11b136ea224fe,,,,,,,,,1036,60.578125,-42.42578125,1,0,0,response3disk,,5,1.6953125,-3.4765625,1,0,0,rectangle,1.6953125,-3.4765625,1,0,0,1.6953125,-3.4765625,1,0,0,0,148,148,8,1,,,,,,,,
,,,,,,,,,,,,,FF,,,,,,,,0.951755,,,,,,,,,,,,,,,,,,,,,,60ff6789f2c59752d68e53b9,61036c4c75313f245eb89e26,2021-07-29_20h05.27.373,Simcolourproject_2stim_asymm_v5,2020.2.10,MacIntel,60,61025ae37ef11b136ea224fe,,,,,,,,,2777,-57.65234375,-38.9765625,1,0,0,response5disk,,2,7.36328125,8.8203125,1,0,0,rectangle,7.36328125,8.8203125,1,0,0,7.36328125,8.8203125,1,0,0,0,149,149,111,1,,,,,,,,
,,,,,,,,,,,,,FF,,,,,,,,0.76745,,,,,,,,,,,,,,,,,,,,,,60ff6789f2c59752d68e53b9,61036c4c75313f245eb89e26,2021-07-29_20h05.27.373,Simcolourproject_2stim_asymm_v5,2020.2.10,MacIntel,60,61025ae37ef11b136ea224fe,,,,,,,,,3727,38.8828125,-82.2109375,1,0,0,response3disk,,4,7.4375,-5.2578125,1,0,0,rectangle,7.4375,-5.2578125,1,0,0,7.4375,-5.2578125,1,0,0,0,150,150,30,1,,,,,,,,
,,,,,,,,,,,,,FF,,,,,,,,1.05061,,,,,,,,,,,,,,,,,,,,,,60ff6789f2c59752d68e53b9,61036c4c75313f245eb89e26,2021-07-29_20h05.27.373,Simcolourproject_2stim_asymm_v5,2020.2.10,MacIntel,60,61025ae37ef11b136ea224fe,,,,,,,,,3206,75.78515625,-25.4609375,1,0,0,response3disk,,5,5.0546875,-0.87109375,1,0,0,rectangle,5.0546875,-0.87109375,1,0,0,5.0546875,-0.87109375,1,0,0,0,151,151,40,1,,,,,,,,
,,,,,,,,,,,,,FF,,,,,,,,0.854365,,,,,,,,,,,,,,,,,,,,,,60ff6789f2c59752d68e53b9,61036c4c75313f245eb89e26,2021-07-29_20h05.27.373,Simcolourproject_2stim_asymm_v5,2020.2.10,MacIntel,60,61025ae37ef11b136ea224fe,,,,,,,,,3920,31.73046875,-70.6953125,1,0,0,response3disk,,4,0.65625,-3.421875,1,0,0,rectangle,0.65625,-3.421875,1,0,0,0.65625,-3.421875,1,0,0,0,152,152,112,1,,,,,,,,
,,,,,,,,,,,,,FF,,,,,,,,0.76462,,,,,,,,,,,,,,,,,,,,,,60ff6789f2c59752d68e53b9,61036c4c75313f245eb89e26,2021-07-29_20h05.27.373,Simcolourproject_2stim_asymm_v5,2020.2.10,MacIntel,60,61025ae37ef11b136ea224fe,,,,,,,,,2462,35.14453125,72.93359375,1,0,0,response1disk,,7,1.4765625,-4.3046875,1,0,0,rectangle,1.4765625,-4.3046875,1,0,0,1.4765625,-4.3046875,1,0,0,0,153,153,77,1,,,,,,,,
,,,,,,,,,,,,,FF,,,,,,,,0.717605,,,,,,,,,,,,,,,,,,,,,,60ff6789f2c59752d68e53b9,61036c4c75313f245eb89e26,2021-07-29_20h05.27.373,Simcolourproject_2stim_asymm_v5,2020.2.10,MacIntel,60,61025ae37ef11b136ea224fe,,,,,,,,,3425,-44.09765625,74.34765625,1,0,0,response7disk,,0,0.671875,-2.48046875,1,0,0,rectangle,0.671875,-2.48046875,1,0,0,0.671875,-2.48046875,1,0,0,0,154,154,154,1,,,,,,,,
,,,,,,,,,,,,,FF,,,,,,,,1.884185,,,,,,,,,,,,,,,,,,,,,,60ff6789f2c59752d68e53b9,61036c4c75313f245eb89e26,2021-07-29_20h05.27.373,Simcolourproject_2stim_asymm_v5,2020.2.10,MacIntel,60,61025ae37ef11b136ea224fe,,,,,,,,,4014,66.2265625,36.97265625,1,0,0,response1disk,,6,4.90625,2.05859375,1,0,0,rectangle,4.90625,2.05859375,1,0,0,4.90625,2.05859375,1,0,0,0,155,155,115,1,,,,,,,,
,,,,,,,,,,,,,FF,,,,,,,,0.91863,,,,,,,,,,,,,,,,,,,,,,60ff6789f2c59752d68e53b9,61036c4c75313f245eb89e26,2021-07-29_20h05.27.373,Simcolourproject_2stim_asymm_v5,2020.2.10,MacIntel,60,61025ae37ef11b136ea224fe,,,,,,,,,2700,44.02734375,88.61328125,1,0,0,response1disk,,7,0.61328125,-4.19140625,1,0,0,rectangle,0.61328125,-4.19140625,1,0,0,0.61328125,-4.19140625,1,0,0,0,156,156,85,1,,,,,,,,
,,,,,,,,,,,,,FF,,,,,,,,1.050655,,,,,,,,,,,,,,,,,,,,,,60ff6789f2c59752d68e53b9,61036c4c75313f245eb89e26,2021-07-29_20h05.27.373,Simcolourproject_2stim_asymm_v5,2020.2.10,MacIntel,60,61025ae37ef11b136ea224fe,,,,,,,,,3976,75.30078125,-20.97265625,1,0,0,response3disk,,5,14.984375,-0.49609375,1,0,0,rectangle,14.984375,-0.49609375,1,0,0,14.984375,-0.49609375,1,0,0,0,157,157,120,1,,,,,,,,
,,,,,,,,,,,,,FF,,,,,,,,0.666375,,,,,,,,,,,,,,,,,,,,,,60ff6789f2c59752d68e53b9,61036c4c75313f245eb89e26,2021-07-29_20h05.27.373,Simcolourproject_2stim_asymm_v5,2020.2.10,MacIntel,60,61025ae37ef11b136ea224fe,,,,,,,,,3858,60.9375,-43.9921875,1,0,0,response3disk,,5,8.6171875,-11.00390625,1,0,0,rectangle,8.6171875,-11.00390625,1,0,0,8.6171875,-11.00390625,1,0,0,0,158,158,74,1,,,,,,,,
,,,,,,,,,,,,,FF,,,,,,,,0.869155,,,,,,,,,,,,,,,,,,,,,,60ff6789f2c59752d68e53b9,61036c4c75313f245eb89e26,2021-07-29_20h05.27.373,Simcolourproject_2stim_asymm_v5,2020.2.10,MacIntel,60,61025ae37ef11b136ea224fe,,,,,,,,,3628,35.98046875,-76.828125,1,0,0,response3disk,,4,2.91015625,-9.39453125,1,0,0,rectangle,2.91015625,-9.39453125,1,0,0,2.91015625,-9.39453125,1,0,0,0,159,159,22,1,,,,,,,,
,,,,,,,,,,,,,FF,,,,,,,,0.80053,,,,,,,,,,,,,,,,,,,,,,60ff6789f2c59752d68e53b9,61036c4c75313f245eb89e26,2021-07-29_20h05.27.373,Simcolourproject_2stim_asymm_v5,2020.2.10,MacIntel,60,61025ae37ef11b136ea224fe,,,,,,,,,3768,45.78125,72.8828125,1,0,0,response1disk,,7,19.68359375,12.77734375,1,0,0,rectangle,19.68359375,12.77734375,1,0,0,19.68359375,12.77734375,1,0,0,1,0,160,21,1,,,,,,,,
,,,,,,,,,,,,,FF,,,,,,,,1.919145,,,,,,,,,,,,,,,,,,,,,,60ff6789f2c59752d68e53b9,61036c4c75313f245eb89e26,2021-07-29_20h05.27.373,Simcolourproject_2stim_asymm_v5,2020.2.10,MacIntel,60,61025ae37ef11b136ea224fe,,,,,,,,,1289,70.1953125,-51.0078125,1,0,0,response3disk,,5,10.37890625,-7.22265625,1,0,0,rectangle,10.37890625,-7.22265625,1,0,0,10.37890625,-7.22265625,1,0,0,1,1,161,84,1,,,,,,,,
,,,,,,,,,,,,,FF,,,,,,,,0.76702,,,,,,,,,,,,,,,,,,,,,,60ff6789f2c59752d68e53b9,61036c4c75313f245eb89e26,2021-07-29_20h05.27.373,Simcolourproject_2stim_asymm_v5,2020.2.10,MacIntel,60,61025ae37ef11b136ea224fe,,,,,,,,,2189,36.3828125,57.90625,1,0,0,response1disk,,7,9.39453125,3.77734375,1,0,0,rectangle,9.39453125,3.77734375,1,0,0,9.39453125,3.77734375,1,0,0,1,2,162,128,1,,,,,,,,
,,,,,,,,,,,,,FF,,,,,,,,1.03407,,,,,,,,,,,,,,,,,,,,,,60ff6789f2c59752d68e53b9,61036c4c75313f245eb89e26,2021-07-29_20h05.27.373,Simcolourproject_2stim_asymm_v5,2020.2.10,MacIntel,60,61025ae37ef11b136ea224fe,,,,,,,,,3336,-28.109375,87.2265625,1,0,0,response7disk,,0,-2.55078125,-6.10546875,1,0,0,rectangle,-2.55078125,-6.10546875,1,0,0,-2.55078125,-6.10546875,1,0,0,1,3,163,124,1,,,,,,,,
,,,,,,,,,,,,,FF,,,,,,,,1.416445,,,,,,,,,,,,,,,,,,,,,,60ff6789f2c59752d68e53b9,61036c4c75313f245eb89e26,2021-07-29_20h05.27.373,Simcolourproject_2stim_asymm_v5,2020.2.10,MacIntel,60,61025ae37ef11b136ea224fe,,,,,,,,,24,93.91015625,-47.92578125,1,0,0,response3disk,,5,-8.8828125,3.19140625,1,0,0,rectangle,-8.8828125,3.19140625,1,0,0,-8.8828125,3.19140625,1,0,0,1,4,164,14,1,,,,,,,,
,,,,,,,,,,,,,FF,,,,,,,,1.517605,,,,,,,,,,,,,,,,,,,,,,60ff6789f2c59752d68e53b9,61036c4c75313f245eb89e26,2021-07-29_20h05.27.373,Simcolourproject_2stim_asymm_v5,2020.2.10,MacIntel,60,61025ae37ef11b136ea224fe,,,,,,,,,548,-81.9140625,34.9140625,1,0,0,response7disk,,1,-3.8984375,-1.7578125,1,0,0,rectangle,-3.8984375,-1.7578125,1,0,0,-3.8984375,-1.7578125,1,0,0,1,5,165,88,1,,,,,,,,
,,,,,,,,,,,,,FF,,,,,,,,0.93693,,,,,,,,,,,,,,,,,,,,,,60ff6789f2c59752d68e53b9,61036c4c75313f245eb89e26,2021-07-29_20h05.27.373,Simcolourproject_2stim_asymm_v5,2020.2.10,MacIntel,60,61025ae37ef11b136ea224fe,,,,,,,,,1083,47.42578125,77.19921875,1,0,0,response1disk,,7,-1.77734375,-1.2265625,1,0,0,rectangle,-1.77734375,-1.2265625,1,0,0,-1.77734375,-1.2265625,1,0,0,1,6,166,30,1,,,,,,,,
,,,,,,,,,,,,,FF,,,,,,,,0.71604,,,,,,,,,,,,,,,,,,,,,,60ff6789f2c59752d68e53b9,61036c4c75313f245eb89e26,2021-07-29_20h05.27.373,Simcolourproject_2stim_asymm_v5,2020.2.10,MacIntel,60,61025ae37ef11b136ea224fe,,,,,,,,,1509,82.2734375,-44.421875,1,0,0,response3disk,,5,11.1953125,3.81640625,1,0,0,rectangle,11.1953125,3.81640625,1,0,0,11.1953125,3.81640625,1,0,0,1,7,167,122,1,,,,,,,,
,,,,,,,,,,,,,FF,,,,,,,,1.416495,,,,,,,,,,,,,,,,,,,,,,60ff6789f2c59752d68e53b9,61036c4c75313f245eb89e26,2021-07-29_20h05.27.373,Simcolourproject_2stim_asymm_v5,2020.2.10,MacIntel,60,61025ae37ef11b136ea224fe,,,,,,,,,2695,79.296875,-28.09765625,1,0,0,response3disk,,5,11.26953125,-1.92578125,1,0,0,rectangle,11.26953125,-1.92578125,1,0,0,11.26953125,-1.92578125,1,0,0,1,8,168,82,1,,,,,,,,
,,,,,,,,,,,,,FF,,,,,,,,1.08456,,,,,,,,,,,,,,,,,,,,,,60ff6789f2c59752d68e53b9,61036c4c75313f245eb89e26,2021-07-29_20h05.27.373,Simcolourproject_2stim_asymm_v5,2020.2.10,MacIntel,60,61025ae37ef11b136ea224fe,,,,,,,,,2012,51.03125,94.37109375,1,0,0,response1disk,,7,-1.48828125,6.65234375,1,0,0,rectangle,-1.48828125,6.65234375,1,0,0,-1.48828125,6.65234375,1,0,0,1,9,169,44,1,,,,,,,,
,,,,,,,,,,,,,FF,,,,,,,,1.04859,,,,,,,,,,,,,,,,,,,,,,60ff6789f2c59752d68e53b9,61036c4c75313f245eb89e26,2021-07-29_20h05.27.373,Simcolourproject_2stim_asymm_v5,2020.2.10,MacIntel,60,61025ae37ef11b136ea224fe,,,,,,,,,2721,-63.6640625,-39.2109375,1,0,0,response5disk,,2,-5.3359375,13.77734375,1,0,0,rectangle,-5.3359375,13.77734375,1,0,0,-5.3359375,13.77734375,1,0,0,1,10,170,100,1,,,,,,,,
,,,,,,,,,,,,,FF,,,,,,,,2.118725,,,,,,,,,,,,,,,,,,,,,,60ff6789f2c59752d68e53b9,61036c4c75313f245eb89e26,2021-07-29_20h05.27.373,Simcolourproject_2stim_asymm_v5,2020.2.10,MacIntel,60,61025ae37ef11b136ea224fe,,,,,,,,,3044,70.234375,-35.9375,1,0,0,response3disk,,5,9.08984375,9.08203125,1,0,0,rectangle,9.08984375,9.08203125,1,0,0,9.08984375,9.08203125,1,0,0,1,11,171,70,1,,,,,,,,
,,,,,,,,,,,,,FF,,,,,,,,1.634545,,,,,,,,,,,,,,,,,,,,,,60ff6789f2c59752d68e53b9,61036c4c75313f245eb89e26,2021-07-29_20h05.27.373,Simcolourproject_2stim_asymm_v5,2020.2.10,MacIntel,60,61025ae37ef11b136ea224fe,,,,,,,,,557,-49.53515625,-65.5703125,1,0,0,response5disk,,3,-6.078125,4.8828125,1,0,0,rectangle,-6.078125,4.8828125,1,0,0,-6.078125,4.8828125,1,0,0,1,12,172,144,1,,,,,,,,
,,,,,,,,,,,,,FF,,,,,,,,0.950835,,,,,,,,,,,,,,,,,,,,,,60ff6789f2c59752d68e53b9,61036c4c75313f245eb89e26,2021-07-29_20h05.27.373,Simcolourproject_2stim_asymm_v5,2020.2.10,MacIntel,60,61025ae37ef11b136ea224fe,,,,,,,,,1650,31.2421875,64.25,1,0,0,response1disk,,7,2.19140625,0.37890625,1,0,0,rectangle,2.19140625,0.37890625,1,0,0,2.19140625,0.37890625,1,0,0,1,13,173,91,1,,,,,,,,
,,,,,,,,,,,,,FF,,,,,,,,1.06701,,,,,,,,,,,,,,,,,,,,,,60ff6789f2c59752d68e53b9,61036c4c75313f245eb89e26,2021-07-29_20h05.27.373,Simcolourproject_2stim_asymm_v5,2020.2.10,MacIntel,60,61025ae37ef11b136ea224fe,,,,,,,,,2595,50.15625,-74.80859375,1,0,0,response3disk,,4,10.94921875,-2.9921875,1,0,0,rectangle,10.94921875,-2.9921875,1,0,0,10.94921875,-2.9921875,1,0,0,1,14,174,27,1,,,,,,,,
,,,,,,,,,,,,,FF,,,,,,,,1.14971,,,,,,,,,,,,,,,,,,,,,,60ff6789f2c59752d68e53b9,61036c4c75313f245eb89e26,2021-07-29_20h05.27.373,Simcolourproject_2stim_asymm_v5,2020.2.10,MacIntel,60,61025ae37ef11b136ea224fe,,,,,,,,,3005,-86.08203125,33.01953125,1,0,0,response7disk,,1,-9.58984375,-1.9140625,1,0,0,rectangle,-9.58984375,-1.9140625,1,0,0,-9.58984375,-1.9140625,1,0,0,1,15,175,68,1,,,,,,,,
,,,,,,,,,,,,,FF,,,,,,,,1.2319,,,,,,,,,,,,,,,,,,,,,,60ff6789f2c59752d68e53b9,61036c4c75313f245eb89e26,2021-07-29_20h05.27.373,Simcolourproject_2stim_asymm_v5,2020.2.10,MacIntel,60,61025ae37ef11b136ea224fe,,,,,,,,,880,24.87890625,-95.1953125,1,0,0,response3disk,,4,5.21875,7.1484375,1,0,0,rectangle,5.21875,7.1484375,1,0,0,5.21875,7.1484375,1,0,0,1,16,176,62,1,,,,,,,,
,,,,,,,,,,,,,FF,,,,,,,,0.983765,,,,,,,,,,,,,,,,,,,,,,60ff6789f2c59752d68e53b9,61036c4c75313f245eb89e26,2021-07-29_20h05.27.373,Simcolourproject_2stim_asymm_v5,2020.2.10,MacIntel,60,61025ae37ef11b136ea224fe,,,,,,,,,3612,87.875,-60.796875,1,0,0,response3disk,,5,-1.08984375,7.1640625,1,0,0,rectangle,-1.08984375,7.1640625,1,0,0,-1.08984375,7.1640625,1,0,0,1,17,177,42,1,,,,,,,,
,,,,,,,,,,,,,FF,,,,,,,,0.800765,,,,,,,,,,,,,,,,,,,,,,60ff6789f2c59752d68e53b9,61036c4c75313f245eb89e26,2021-07-29_20h05.27.373,Simcolourproject_2stim_asymm_v5,2020.2.10,MacIntel,60,61025ae37ef11b136ea224fe,,,,,,,,,748,21.25,62,1,0,0,response1disk,,7,7.61328125,-1.71875,1,0,0,rectangle,7.61328125,-1.71875,1,0,0,7.61328125,-1.71875,1,0,0,1,18,178,110,1,,,,,,,,
,,,,,,,,,,,,,FF,,,,,,,,0.787135,,,,,,,,,,,,,,,,,,,,,,60ff6789f2c59752d68e53b9,61036c4c75313f245eb89e26,2021-07-29_20h05.27.373,Simcolourproject_2stim_asymm_v5,2020.2.10,MacIntel,60,61025ae37ef11b136ea224fe,,,,,,,,,3339,-34.99609375,-67.38671875,1,0,0,response5disk,,3,1.79296875,4.46484375,1,0,0,rectangle,1.79296875,4.46484375,1,0,0,1.79296875,4.46484375,1,0,0,1,19,179,147,1,,,,,,,,
,,,,,,,,,,,,,FF,,,,,,,,0.967405,,,,,,,,,,,,,,,,,,,,,,60ff6789f2c59752d68e53b9,61036c4c75313f245eb89e26,2021-07-29_20h05.27.373,Simcolourproject_2stim_asymm_v5,2020.2.10,MacIntel,60,61025ae37ef11b136ea224fe,,,,,,,,,282,-28.91015625,-91.96875,1,0,0,response5disk,,3,-3.1328125,-11.02734375,1,0,0,rectangle,-3.1328125,-11.02734375,1,0,0,-3.1328125,-11.02734375,1,0,0,1,20,180,104,1,,,,,,,,
,,,,,,,,,,,,,FF,,,,,,,,0.716585,,,,,,,,,,,,,,,,,,,,,,60ff6789f2c59752d68e53b9,61036c4c75313f245eb89e26,2021-07-29_20h05.27.373,Simcolourproject_2stim_asymm_v5,2020.2.10,MacIntel,60,61025ae37ef11b136ea224fe,,,,,,,,,1785,41.52734375,-74.6640625,1,0,0,response3disk,,4,12.90625,-9.05078125,1,0,0,rectangle,12.90625,-9.05078125,1,0,0,12.90625,-9.05078125,1,0,0,1,21,181,99,1,,,,,,,,
,,,,,,,,,,,,,FF,,,,,,,,0.68464,,,,,,,,,,,,,,,,,,,,,,60ff6789f2c59752d68e53b9,61036c4c75313f245eb89e26,2021-07-29_20h05.27.373,Simcolourproject_2stim_asymm_v5,2020.2.10,MacIntel,60,61025ae37ef11b136ea224fe,,,,,,,,,1645,65.46875,-46.40234375,1,0,0,response3disk,,5,19.7578125,-11.6015625,1,0,0,rectangle,19.7578125,-11.6015625,1,0,0,19.7578125,-11.6015625,1,0,0,1,22,182,93,1,,,,,,,,
,,,,,,,,,,,,,FF,,,,,,,,2.552135,,,,,,,,,,,,,,,,,,,,,,60ff6789f2c59752d68e53b9,61036c4c75313f245eb89e26,2021-07-29_20h05.27.373,Simcolourproject_2stim_asymm_v5,2020.2.10,MacIntel,60,61025ae37ef11b136ea224fe,,,,,,,,,3026,66.78125,-43.77734375,1,0,0,response3disk,,5,6.44921875,1.9921875,1,0,0,rectangle,6.44921875,1.9921875,1,0,0,6.44921875,1.9921875,1,0,0,1,23,183,119,1,,,,,,,,
,,,,,,,,,,,,,FF,,,,,,,,1.166995,,,,,,,,,,,,,,,,,,,,,,60ff6789f2c59752d68e53b9,61036c4c75313f245eb89e26,2021-07-29_20h05.27.373,Simcolourproject_2stim_asymm_v5,2020.2.10,MacIntel,60,61025ae37ef11b136ea224fe,,,,,,,,,2943,-26.67578125,-84.6328125,1,0,0,response5disk,,3,-0.09375,1.1640625,1,0,0,rectangle,-0.09375,1.1640625,1,0,0,-0.09375,1.1640625,1,0,0,1,24,184,156,1,,,,,,,,
,,,,,,,,,,,,,FF,,,,,,,,1.10247,,,,,,,,,,,,,,,,,,,,,,60ff6789f2c59752d68e53b9,61036c4c75313f245eb89e26,2021-07-29_20h05.27.373,Simcolourproject_2stim_asymm_v5,2020.2.10,MacIntel,60,61025ae37ef11b136ea224fe,,,,,,,,,3961,73.03515625,23.8125,1,0,0,response1disk,,6,6.95703125,0.84375,1,0,0,rectangle,6.95703125,0.84375,1,0,0,6.95703125,0.84375,1,0,0,1,25,185,45,1,,,,,,,,
,,,,,,,,,,,,,FF,,,,,,,,0.950045,,,,,,,,,,,,,,,,,,,,,,60ff6789f2c59752d68e53b9,61036c4c75313f245eb89e26,2021-07-29_20h05.27.373,Simcolourproject_2stim_asymm_v5,2020.2.10,MacIntel,60,61025ae37ef11b136ea224fe,,,,,,,,,1299,-48.5703125,-76.6953125,1,0,0,response5disk,,3,-3.0234375,-1.90625,1,0,0,rectangle,-3.0234375,-1.90625,1,0,0,-3.0234375,-1.90625,1,0,0,1,26,186,143,1,,,,,,,,
,,,,,,,,,,,,,FF,,,,,,,,1.650205,,,,,,,,,,,,,,,,,,,,,,60ff6789f2c59752d68e53b9,61036c4c75313f245eb89e26,2021-07-29_20h05.27.373,Simcolourproject_2stim_asymm_v5,2020.2.10,MacIntel,60,61025ae37ef11b136ea224fe,,,,,,,,,992,50.13671875,77.73046875,1,0,0,response1disk,,7,6.3828125,-3.7109375,1,0,0,rectangle,6.3828125,-3.7109375,1,0,0,6.3828125,-3.7109375,1,0,0,1,27,187,123,1,,,,,,,,
,,,,,,,,,,,,,FF,,,,,,,,0.917375,,,,,,,,,,,,,,,,,,,,,,60ff6789f2c59752d68e53b9,61036c4c75313f245eb89e26,2021-07-29_20h05.27.373,Simcolourproject_2stim_asymm_v5,2020.2.10,MacIntel,60,61025ae37ef11b136ea224fe,,,,,,,,,3503,-46.03125,-73.29296875,1,0,0,response5disk,,3,-14.2734375,-5.48046875,1,0,0,rectangle,-14.2734375,-5.48046875,1,0,0,-14.2734375,-5.48046875,1,0,0,1,28,188,77,1,,,,,,,,
,,,,,,,,,,,,,FF,,,,,,,,1.117065,,,,,,,,,,,,,,,,,,,,,,60ff6789f2c59752d68e53b9,61036c4c75313f245eb89e26,2021-07-29_20h05.27.373,Simcolourproject_2stim_asymm_v5,2020.2.10,MacIntel,60,61025ae37ef11b136ea224fe,,,,,,,,,1611,-74.61328125,29.53515625,1,0,0,response7disk,,1,-5.5,-2.640625,1,0,0,rectangle,-5.5,-2.640625,1,0,0,-5.5,-2.640625,1,0,0,1,29,189,116,1,,,,,,,,
,,,,,,,,,,,,,FF,,,,,,,,0.898555,,,,,,,,,,,,,,,,,,,,,,60ff6789f2c59752d68e53b9,61036c4c75313f245eb89e26,2021-07-29_20h05.27.373,Simcolourproject_2stim_asymm_v5,2020.2.10,MacIntel,60,61025ae37ef11b136ea224fe,,,,,,,,,3363,37.41015625,59.15625,1,0,0,response1disk,,7,7.05078125,-1.3046875,1,0,0,rectangle,7.05078125,-1.3046875,1,0,0,7.05078125,-1.3046875,1,0,0,1,30,190,96,1,,,,,,,,
,,,,,,,,,,,,,FF,,,,,,,,0.64993,,,,,,,,,,,,,,,,,,,,,,60ff6789f2c59752d68e53b9,61036c4c75313f245eb89e26,2021-07-29_20h05.27.373,Simcolourproject_2stim_asymm_v5,2020.2.10,MacIntel,60,61025ae37ef11b136ea224fe,,,,,,,,,4179,50.65625,79.93359375,1,0,0,response1disk,,7,12.6953125,4.95703125,1,0,0,rectangle,12.6953125,4.95703125,1,0,0,12.6953125,4.95703125,1,0,0,1,31,191,97,1,,,,,,,,
,,,,,,,,,,,,,FF,,,,,,,,0.96727,,,,,,,,,,,,,,,,,,,,,,60ff6789f2c59752d68e53b9,61036c4c75313f245eb89e26,2021-07-29_20h05.27.373,Simcolourproject_2stim_asymm_v5,2020.2.10,MacIntel,60,61025ae37ef11b136ea224fe,,,,,,,,,2120,55.44140625,-29.2265625,1,0,0,response3disk,,5,5.76953125,6.03515625,1,0,0,rectangle,5.76953125,6.03515625,1,0,0,5.76953125,6.03515625,1,0,0,1,32,192,112,1,,,,,,,,
,,,,,,,,,,,,,FF,,,,,,,,1.72113,,,,,,,,,,,,,,,,,,,,,,60ff6789f2c59752d68e53b9,61036c4c75313f245eb89e26,2021-07-29_20h05.27.373,Simcolourproject_2stim_asymm_v5,2020.2.10,MacIntel,60,61025ae37ef11b136ea224fe,,,,,,,,,2730,29.3203125,-74.7421875,1,0,0,response3disk,,4,6.05859375,-10.07421875,1,0,0,rectangle,6.05859375,-10.07421875,1,0,0,6.05859375,-10.07421875,1,0,0,1,33,193,60,1,,,,,,,,
,,,,,,,,,,,,,FF,,,,,,,,0.965,,,,,,,,,,,,,,,,,,,,,,60ff6789f2c59752d68e53b9,61036c4c75313f245eb89e26,2021-07-29_20h05.27.373,Simcolourproject_2stim_asymm_v5,2020.2.10,MacIntel,60,61025ae37ef11b136ea224fe,,,,,,,,,2974,69.92578125,-25.4609375,1,0,0,response3disk,,5,15.95703125,-10.1953125,1,0,0,rectangle,15.95703125,-10.1953125,1,0,0,15.95703125,-10.1953125,1,0,0,1,34,194,64,1,,,,,,,,
,,,,,,,,,,,,,FF,,,,,,,,0.73323,,,,,,,,,,,,,,,,,,,,,,60ff6789f2c59752d68e53b9,61036c4c75313f245eb89e26,2021-07-29_20h05.27.373,Simcolourproject_2stim_asymm_v5,2020.2.10,MacIntel,60,61025ae37ef11b136ea224fe,,,,,,,,,3655,32.015625,72.0234375,1,0,0,response1disk,,7,10.4921875,6.9296875,1,0,0,rectangle,47.375,90.51953125,1,0,0,-5.4921875,-5.734375,1,0,0,1,35,195,131,1,,response1disk_3,TRUE,7,7,"[18,100,33,246,46,147,213,6,59,73,196,128,238,18,130,61,297,148,211,61]",1.451255,rectangle
,,,,,,,,,,,,,FF,,,,,,,,1.288395,,,,,,,,,,,,,,,,,,,,,,60ff6789f2c59752d68e53b9,61036c4c75313f245eb89e26,2021-07-29_20h05.27.373,Simcolourproject_2stim_asymm_v5,2020.2.10,MacIntel,60,61025ae37ef11b136ea224fe,,,,,,,,,545,-54.55859375,-75.4140625,1,0,0,response5disk,,3,-7,-4.23046875,1,0,0,rectangle,-7,-4.23046875,1,0,0,-7,-4.23046875,1,0,0,1,36,196,73,1,,,,,,,,
,,,,,,,,,,,,,FF,,,,,,,,1.282945,,,,,,,,,,,,,,,,,,,,,,60ff6789f2c59752d68e53b9,61036c4c75313f245eb89e26,2021-07-29_20h05.27.373,Simcolourproject_2stim_asymm_v5,2020.2.10,MacIntel,60,61025ae37ef11b136ea224fe,,,,,,,,,1304,-85.05859375,-40.63671875,1,0,0,response5disk,,2,-7.94921875,-4.75390625,1,0,0,rectangle,-7.94921875,-4.75390625,1,0,0,-7.94921875,-4.75390625,1,0,0,1,37,197,118,1,,,,,,,,
,,,,,,,,,,,,,FF,,,,,,,,0.868885,,,,,,,,,,,,,,,,,,,,,,60ff6789f2c59752d68e53b9,61036c4c75313f245eb89e26,2021-07-29_20h05.27.373,Simcolourproject_2stim_asymm_v5,2020.2.10,MacIntel,60,61025ae37ef11b136ea224fe,,,,,,,,,3733,33.1484375,54.609375,1,0,0,response1disk,,7,10.87109375,-1.10546875,1,0,0,rectangle,10.87109375,-1.10546875,1,0,0,10.87109375,-1.10546875,1,0,0,1,38,198,71,1,,,,,,,,
,,,,,,,,,,,,,FF,,,,,,,,0.88457,,,,,,,,,,,,,,,,,,,,,,60ff6789f2c59752d68e53b9,61036c4c75313f245eb89e26,2021-07-29_20h05.27.373,Simcolourproject_2stim_asymm_v5,2020.2.10,MacIntel,60,61025ae37ef11b136ea224fe,,,,,,,,,51,75.23828125,-32.60546875,1,0,0,response3disk,,5,13.80078125,-5.3828125,1,0,0,rectangle,13.80078125,-5.3828125,1,0,0,13.80078125,-5.3828125,1,0,0,1,39,199,90,1,,,,,,,,
,,,,,,,,,,,,,FF,,,,,,,,0.952235,,,,,,,,,,,,,,,,,,,,,,60ff6789f2c59752d68e53b9,61036c4c75313f245eb89e26,2021-07-29_20h05.27.373,Simcolourproject_2stim_asymm_v5,2020.2.10,MacIntel,60,61025ae37ef11b136ea224fe,,,,,,,,,871,85.2265625,-41.79296875,1,0,0,response3disk,,5,4.7578125,1.87890625,1,0,0,rectangle,4.7578125,1.87890625,1,0,0,4.7578125,1.87890625,1,0,0,1,40,200,153,1,,,,,,,,
,,,,,,,,,,,,,FF,,,,,,,,1.365375,,,,,,,,,,,,,,,,,,,,,,60ff6789f2c59752d68e53b9,61036c4c75313f245eb89e26,2021-07-29_20h05.27.373,Simcolourproject_2stim_asymm_v5,2020.2.10,MacIntel,60,61025ae37ef11b136ea224fe,,,,,,,,,838,82.015625,-34.265625,1,0,0,response3disk,,5,8.76953125,-1.0859375,1,0,0,rectangle,8.76953125,-1.0859375,1,0,0,8.76953125,-1.0859375,1,0,0,1,41,201,6,1,,,,,,,,
,,,,,,,,,,,,,FF,,,,,,,,0.975755,,,,,,,,,,,,,,,,,,,,,,60ff6789f2c59752d68e53b9,61036c4c75313f245eb89e26,2021-07-29_20h05.27.373,Simcolourproject_2stim_asymm_v5,2020.2.10,MacIntel,60,61025ae37ef11b136ea224fe,,,,,,,,,1996,18.640625,60.03125,1,0,0,response1disk,,7,-1.0546875,-14.875,1,0,0,rectangle,-1.0546875,-14.875,1,0,0,-1.0546875,-14.875,1,0,0,1,42,202,63,1,,,,,,,,
,,,,,,,,,,,,,FF,,,,,,,,0.81798,,,,,,,,,,,,,,,,,,,,,,60ff6789f2c59752d68e53b9,61036c4c75313f245eb89e26,2021-07-29_20h05.27.373,Simcolourproject_2stim_asymm_v5,2020.2.10,MacIntel,60,61025ae37ef11b136ea224fe,,,,,,,,,1288,-28.6796875,-78.16015625,1,0,0,response5disk,,3,-6.54296875,-7.60546875,1,0,0,rectangle,-6.54296875,-7.60546875,1,0,0,-6.54296875,-7.60546875,1,0,0,1,43,203,34,1,,,,,,,,
,,,,,,,,,,,,,FF,,,,,,,,0.7666,,,,,,,,,,,,,,,,,,,,,,60ff6789f2c59752d68e53b9,61036c4c75313f245eb89e26,2021-07-29_20h05.27.373,Simcolourproject_2stim_asymm_v5,2020.2.10,MacIntel,60,61025ae37ef11b136ea224fe,,,,,,,,,3840,-31.83203125,-65.5234375,1,0,0,response5disk,,3,-2.52734375,-1.18359375,1,0,0,rectangle,-2.52734375,-1.18359375,1,0,0,-2.52734375,-1.18359375,1,0,0,1,44,204,20,1,,,,,,,,
,,,,,,,,,,,,,FF,,,,,,,,0.834215,,,,,,,,,,,,,,,,,,,,,,60ff6789f2c59752d68e53b9,61036c4c75313f245eb89e26,2021-07-29_20h05.27.373,Simcolourproject_2stim_asymm_v5,2020.2.10,MacIntel,60,61025ae37ef11b136ea224fe,,,,,,,,,681,78.1953125,-45.734375,1,0,0,response3disk,,5,5.80078125,-3.3046875,1,0,0,rectangle,5.80078125,-3.3046875,1,0,0,5.80078125,-3.3046875,1,0,0,1,45,205,98,1,,,,,,,,
,,,,,,,,,,,,,FF,,,,,,,,0.800445,,,,,,,,,,,,,,,,,,,,,,60ff6789f2c59752d68e53b9,61036c4c75313f245eb89e26,2021-07-29_20h05.27.373,Simcolourproject_2stim_asymm_v5,2020.2.10,MacIntel,60,61025ae37ef11b136ea224fe,,,,,,,,,610,-28.6796875,-81.16796875,1,0,0,response5disk,,3,-4.6484375,-6.58203125,1,0,0,rectangle,-4.6484375,-6.58203125,1,0,0,-4.6484375,-6.58203125,1,0,0,1,46,206,29,1,,,,,,,,
,,,,,,,,,,,,,FF,,,,,,,,0.736525,,,,,,,,,,,,,,,,,,,,,,60ff6789f2c59752d68e53b9,61036c4c75313f245eb89e26,2021-07-29_20h05.27.373,Simcolourproject_2stim_asymm_v5,2020.2.10,MacIntel,60,61025ae37ef11b136ea224fe,,,,,,,,,1755,-32.62109375,-64.203125,1,0,0,response5disk,,3,-9.15234375,1.8828125,1,0,0,rectangle,-9.15234375,1.8828125,1,0,0,-9.15234375,1.8828125,1,0,0,1,47,207,157,1,,,,,,,,
,,,,,,,,,,,,,FF,,,,,,,,0.951115,,,,,,,,,,,,,,,,,,,,,,60ff6789f2c59752d68e53b9,61036c4c75313f245eb89e26,2021-07-29_20h05.27.373,Simcolourproject_2stim_asymm_v5,2020.2.10,MacIntel,60,61025ae37ef11b136ea224fe,,,,,,,,,3305,-46.01953125,-79.17578125,1,0,0,response5disk,,3,-8.37109375,-9.4296875,1,0,0,rectangle,-8.37109375,-9.4296875,1,0,0,-8.37109375,-9.4296875,1,0,0,1,48,208,120,1,,,,,,,,
,,,,,,,,,,,,,FF,,,,,,,,0.882625,,,,,,,,,,,,,,,,,,,,,,60ff6789f2c59752d68e53b9,61036c4c75313f245eb89e26,2021-07-29_20h05.27.373,Simcolourproject_2stim_asymm_v5,2020.2.10,MacIntel,60,61025ae37ef11b136ea224fe,,,,,,,,,3511,-61.62109375,30.36328125,1,0,0,response7disk,,1,0.37109375,1.546875,1,0,0,rectangle,0.37109375,1.546875,1,0,0,0.37109375,1.546875,1,0,0,1,49,209,75,1,,,,,,,,
,,,,,,,,,,,,,FF,,,,,,,,0.80102,,,,,,,,,,,,,,,,,,,,,,60ff6789f2c59752d68e53b9,61036c4c75313f245eb89e26,2021-07-29_20h05.27.373,Simcolourproject_2stim_asymm_v5,2020.2.10,MacIntel,60,61025ae37ef11b136ea224fe,,,,,,,,,2163,46.546875,-83.6953125,1,0,0,response3disk,,4,6.58203125,-6.0390625,1,0,0,rectangle,41.21875,78.55859375,1,0,0,5.34765625,-1.48046875,1,0,0,1,50,210,54,1,,response1disk_3,TRUE,7,7,"[18,100,33,246,46,147,213,6,59,73,196,128,238,18,130,61,297,148,211,61]",1.4342,rectangle
,,,,,,,,,,,,,FF,,,,,,,,0.850345,,,,,,,,,,,,,,,,,,,,,,60ff6789f2c59752d68e53b9,61036c4c75313f245eb89e26,2021-07-29_20h05.27.373,Simcolourproject_2stim_asymm_v5,2020.2.10,MacIntel,60,61025ae37ef11b136ea224fe,,,,,,,,,3697,30.08203125,86.99609375,1,0,0,response1disk,,7,-8.05078125,0.03515625,1,0,0,rectangle,-8.05078125,0.03515625,1,0,0,-8.05078125,0.03515625,1,0,0,1,51,211,132,1,,,,,,,,
,,,,,,,,,,,,,FF,,,,,,,,1.01721,,,,,,,,,,,,,,,,,,,,,,60ff6789f2c59752d68e53b9,61036c4c75313f245eb89e26,2021-07-29_20h05.27.373,Simcolourproject_2stim_asymm_v5,2020.2.10,MacIntel,60,61025ae37ef11b136ea224fe,,,,,,,,,853,77.70703125,-65.30078125,1,0,0,response3disk,,5,4.64453125,-4.3828125,1,0,0,rectangle,72.55078125,20.27734375,1,0,0,9.11328125,-0.6953125,1,0,0,1,52,212,159,1,,response1disk_3,TRUE,6,6,"[18,100,33,246,46,147,213,6,59,73,196,128,238,18,130,61,297,148,211,61]",1.183825,rectangle
,,,,,,,,,,,,,FF,,,,,,,,0.717485,,,,,,,,,,,,,,,,,,,,,,60ff6789f2c59752d68e53b9,61036c4c75313f245eb89e26,2021-07-29_20h05.27.373,Simcolourproject_2stim_asymm_v5,2020.2.10,MacIntel,60,61025ae37ef11b136ea224fe,,,,,,,,,1981,72.55078125,-23.52734375,1,0,0,response3disk,,5,15.69921875,7.59375,1,0,0,rectangle,15.69921875,7.59375,1,0,0,15.69921875,7.59375,1,0,0,1,53,213,0,1,,,,,,,,
,,,,,,,,,,,,,FF,,,,,,,,0.834865,,,,,,,,,,,,,,,,,,,,,,60ff6789f2c59752d68e53b9,61036c4c75313f245eb89e26,2021-07-29_20h05.27.373,Simcolourproject_2stim_asymm_v5,2020.2.10,MacIntel,60,61025ae37ef11b136ea224fe,,,,,,,,,3256,62.890625,32.9609375,1,0,0,response1disk,,6,-2.03125,-8.19140625,1,0,0,rectangle,-2.03125,-8.19140625,1,0,0,-2.03125,-8.19140625,1,0,0,1,54,214,15,1,,,,,,,,
,,,,,,,,,,,,,FF,,,,,,,,1.083305,,,,,,,,,,,,,,,,,,,,,,60ff6789f2c59752d68e53b9,61036c4c75313f245eb89e26,2021-07-29_20h05.27.373,Simcolourproject_2stim_asymm_v5,2020.2.10,MacIntel,60,61025ae37ef11b136ea224fe,,,,,,,,,3309,38.359375,75.83203125,1,0,0,response1disk,,7,5.99609375,4.44921875,1,0,0,rectangle,5.99609375,4.44921875,1,0,0,5.99609375,4.44921875,1,0,0,1,55,215,12,1,,,,,,,,
,,,,,,,,,,,,,FF,,,,,,,,0.883955,,,,,,,,,,,,,,,,,,,,,,60ff6789f2c59752d68e53b9,61036c4c75313f245eb89e26,2021-07-29_20h05.27.373,Simcolourproject_2stim_asymm_v5,2020.2.10,MacIntel,60,61025ae37ef11b136ea224fe,,,,,,,,,1883,68.97265625,-23.2578125,1,0,0,response3disk,,5,4.20703125,-9.51953125,1,0,0,rectangle,4.20703125,-9.51953125,1,0,0,4.20703125,-9.51953125,1,0,0,1,56,216,58,1,,,,,,,,
,,,,,,,,,,,,,FF,,,,,,,,1.43384,,,,,,,,,,,,,,,,,,,,,,60ff6789f2c59752d68e53b9,61036c4c75313f245eb89e26,2021-07-29_20h05.27.373,Simcolourproject_2stim_asymm_v5,2020.2.10,MacIntel,60,61025ae37ef11b136ea224fe,,,,,,,,,4028,59.8046875,-39.05859375,1,0,0,response3disk,,5,18.40625,9.5078125,1,0,0,rectangle,18.40625,9.5078125,1,0,0,18.40625,9.5078125,1,0,0,1,57,217,31,1,,,,,,,,
,,,,,,,,,,,,,FF,,,,,,,,0.71972,,,,,,,,,,,,,,,,,,,,,,60ff6789f2c59752d68e53b9,61036c4c75313f245eb89e26,2021-07-29_20h05.27.373,Simcolourproject_2stim_asymm_v5,2020.2.10,MacIntel,60,61025ae37ef11b136ea224fe,,,,,,,,,1191,36.52734375,89.73828125,1,0,0,response1disk,,7,4.87890625,2.21484375,1,0,0,rectangle,4.87890625,2.21484375,1,0,0,4.87890625,2.21484375,1,0,0,1,58,218,106,1,,,,,,,,
,,,,,,,,,,,,,FF,,,,,,,,1.620595,,,,,,,,,,,,,,,,,,,,,,60ff6789f2c59752d68e53b9,61036c4c75313f245eb89e26,2021-07-29_20h05.27.373,Simcolourproject_2stim_asymm_v5,2020.2.10,MacIntel,60,61025ae37ef11b136ea224fe,,,,,,,,,3613,75.15234375,-37.25390625,1,0,0,response3disk,,5,21.99609375,-14.12890625,1,0,0,rectangle,21.99609375,-14.12890625,1,0,0,21.99609375,-14.12890625,1,0,0,1,59,219,154,1,,,,,,,,
,,,,,,,,,,,,,FF,,,,,,,,0.91702,,,,,,,,,,,,,,,,,,,,,,60ff6789f2c59752d68e53b9,61036c4c75313f245eb89e26,2021-07-29_20h05.27.373,Simcolourproject_2stim_asymm_v5,2020.2.10,MacIntel,60,61025ae37ef11b136ea224fe,,,,,,,,,1767,50.6484375,-30.9296875,1,0,0,response3disk,,5,0.65625,-0.47265625,1,0,0,rectangle,0.65625,-0.47265625,1,0,0,0.65625,-0.47265625,1,0,0,1,60,220,126,1,,,,,,,,
,,,,,,,,,,,,,FF,,,,,,,,0.720145,,,,,,,,,,,,,,,,,,,,,,60ff6789f2c59752d68e53b9,61036c4c75313f245eb89e26,2021-07-29_20h05.27.373,Simcolourproject_2stim_asymm_v5,2020.2.10,MacIntel,60,61025ae37ef11b136ea224fe,,,,,,,,,3550,68.8984375,-35.9921875,1,0,0,response3disk,,5,16.75,0.99609375,1,0,0,rectangle,16.75,0.99609375,1,0,0,16.75,0.99609375,1,0,0,1,61,221,135,1,,,,,,,,
,,,,,,,,,,,,,FF,,,,,,,,0.785145,,,,,,,,,,,,,,,,,,,,,,60ff6789f2c59752d68e53b9,61036c4c75313f245eb89e26,2021-07-29_20h05.27.373,Simcolourproject_2stim_asymm_v5,2020.2.10,MacIntel,60,61025ae37ef11b136ea224fe,,,,,,,,,1167,48.40234375,73.09375,1,0,0,response1disk,,7,15.1328125,7.06640625,1,0,0,rectangle,15.1328125,7.06640625,1,0,0,15.1328125,7.06640625,1,0,0,1,62,222,67,1,,,,,,,,
,,,,,,,,,,,,,FF,,,,,,,,0.81844,,,,,,,,,,,,,,,,,,,,,,60ff6789f2c59752d68e53b9,61036c4c75313f245eb89e26,2021-07-29_20h05.27.373,Simcolourproject_2stim_asymm_v5,2020.2.10,MacIntel,60,61025ae37ef11b136ea224fe,,,,,,,,,168,-35.33984375,-75.88671875,1,0,0,response5disk,,3,-3.08203125,-5.48046875,1,0,0,rectangle,-3.08203125,-5.48046875,1,0,0,-3.08203125,-5.48046875,1,0,0,1,63,223,85,1,,,,,,,,
,,,,,,,,,,,,,FF,,,,,,,,0.788735,,,,,,,,,,,,,,,,,,,,,,60ff6789f2c59752d68e53b9,61036c4c75313f245eb89e26,2021-07-29_20h05.27.373,Simcolourproject_2stim_asymm_v5,2020.2.10,MacIntel,60,61025ae37ef11b136ea224fe,,,,,,,,,2897,33.76171875,-69.328125,1,0,0,response3disk,,4,7.03515625,-0.21875,1,0,0,rectangle,7.03515625,-0.21875,1,0,0,7.03515625,-0.21875,1,0,0,1,64,224,94,1,,,,,,,,
,,,,,,,,,,,,,FF,,,,,,,,0.95586,,,,,,,,,,,,,,,,,,,,,,60ff6789f2c59752d68e53b9,61036c4c75313f245eb89e26,2021-07-29_20h05.27.373,Simcolourproject_2stim_asymm_v5,2020.2.10,MacIntel,60,61025ae37ef11b136ea224fe,,,,,,,,,4147,-53.37890625,22.015625,1,0,0,response7disk,,1,1.3203125,2.14453125,1,0,0,rectangle,1.3203125,2.14453125,1,0,0,1.3203125,2.14453125,1,0,0,1,65,225,51,1,,,,,,,,
,,,,,,,,,,,,,FF,,,,,,,,1.40282,,,,,,,,,,,,,,,,,,,,,,60ff6789f2c59752d68e53b9,61036c4c75313f245eb89e26,2021-07-29_20h05.27.373,Simcolourproject_2stim_asymm_v5,2020.2.10,MacIntel,60,61025ae37ef11b136ea224fe,,,,,,,,,196,52.58203125,64.1875,1,0,0,response1disk,,7,19.01171875,7.66796875,1,0,0,rectangle,19.01171875,7.66796875,1,0,0,19.01171875,7.66796875,1,0,0,1,66,226,148,1,,,,,,,,
,,,,,,,,,,,,,FF,,,,,,,,0.801415,,,,,,,,,,,,,,,,,,,,,,60ff6789f2c59752d68e53b9,61036c4c75313f245eb89e26,2021-07-29_20h05.27.373,Simcolourproject_2stim_asymm_v5,2020.2.10,MacIntel,60,61025ae37ef11b136ea224fe,,,,,,,,,82,60.19921875,-33.453125,1,0,0,response3disk,,5,1.328125,6.1796875,1,0,0,rectangle,1.328125,6.1796875,1,0,0,1.328125,6.1796875,1,0,0,1,67,227,105,1,,,,,,,,
,,,,,,,,,,,,,FF,,,,,,,,0.78385,,,,,,,,,,,,,,,,,,,,,,60ff6789f2c59752d68e53b9,61036c4c75313f245eb89e26,2021-07-29_20h05.27.373,Simcolourproject_2stim_asymm_v5,2020.2.10,MacIntel,60,61025ae37ef11b136ea224fe,,,,,,,,,327,25.80859375,52.0546875,1,0,0,response1disk,,7,10.203125,9.265625,1,0,0,rectangle,10.203125,9.265625,1,0,0,10.203125,9.265625,1,0,0,1,68,228,37,1,,,,,,,,
,,,,,,,,,,,,,FF,,,,,,,,0.982265,,,,,,,,,,,,,,,,,,,,,,60ff6789f2c59752d68e53b9,61036c4c75313f245eb89e26,2021-07-29_20h05.27.373,Simcolourproject_2stim_asymm_v5,2020.2.10,MacIntel,60,61025ae37ef11b136ea224fe,,,,,,,,,1868,56.5078125,85.0625,1,0,0,response1disk,,7,4.9453125,5.69140625,1,0,0,rectangle,4.9453125,5.69140625,1,0,0,4.9453125,5.69140625,1,0,0,1,69,229,115,1,,,,,,,,
,,,,,,,,,,,,,FF,,,,,,,,1.250245,,,,,,,,,,,,,,,,,,,,,,60ff6789f2c59752d68e53b9,61036c4c75313f245eb89e26,2021-07-29_20h05.27.373,Simcolourproject_2stim_asymm_v5,2020.2.10,MacIntel,60,61025ae37ef11b136ea224fe,,,,,,,,,1733,-52.26953125,22.6328125,1,0,0,response7disk,,1,-8.91796875,4.71875,1,0,0,rectangle,-8.91796875,4.71875,1,0,0,-8.91796875,4.71875,1,0,0,1,70,230,33,1,,,,,,,,
,,,,,,,,,,,,,FF,,,,,,,,1.437575,,,,,,,,,,,,,,,,,,,,,,60ff6789f2c59752d68e53b9,61036c4c75313f245eb89e26,2021-07-29_20h05.27.373,Simcolourproject_2stim_asymm_v5,2020.2.10,MacIntel,60,61025ae37ef11b136ea224fe,,,,,,,,,3231,16.6484375,-88.9765625,1,0,0,response3disk,,4,6.82421875,-5.41015625,1,0,0,rectangle,6.82421875,-5.41015625,1,0,0,6.82421875,-5.41015625,1,0,0,1,71,231,61,1,,,,,,,,
,,,,,,,,,,,,,FF,,,,,,,,0.8985,,,,,,,,,,,,,,,,,,,,,,60ff6789f2c59752d68e53b9,61036c4c75313f245eb89e26,2021-07-29_20h05.27.373,Simcolourproject_2stim_asymm_v5,2020.2.10,MacIntel,60,61025ae37ef11b136ea224fe,,,,,,,,,1488,33.20703125,69.77734375,1,0,0,response1disk,,7,0.1875,0.4140625,1,0,0,rectangle,0.1875,0.4140625,1,0,0,0.1875,0.4140625,1,0,0,1,72,232,125,1,,,,,,,,
,,,,,,,,,,,,,FF,,,,,,,,0.700605,,,,,,,,,,,,,,,,,,,,,,60ff6789f2c59752d68e53b9,61036c4c75313f245eb89e26,2021-07-29_20h05.27.373,Simcolourproject_2stim_asymm_v5,2020.2.10,MacIntel,60,61025ae37ef11b136ea224fe,,,,,,,,,574,43.69921875,86.9140625,1,0,0,response1disk,,7,10.88671875,4.02734375,1,0,0,rectangle,10.88671875,4.02734375,1,0,0,10.88671875,4.02734375,1,0,0,1,73,233,18,1,,,,,,,,
,,,,,,,,,,,,,FF,,,,,,,,0.93359,,,,,,,,,,,,,,,,,,,,,,60ff6789f2c59752d68e53b9,61036c4c75313f245eb89e26,2021-07-29_20h05.27.373,Simcolourproject_2stim_asymm_v5,2020.2.10,MacIntel,60,61025ae37ef11b136ea224fe,,,,,,,,,3181,62.296875,-42.89453125,1,0,0,response3disk,,5,12.765625,0.7421875,1,0,0,rectangle,12.765625,0.7421875,1,0,0,12.765625,0.7421875,1,0,0,1,74,234,111,1,,,,,,,,
,,,,,,,,,,,,,FF,,,,,,,,0.584115,,,,,,,,,,,,,,,,,,,,,,60ff6789f2c59752d68e53b9,61036c4c75313f245eb89e26,2021-07-29_20h05.27.373,Simcolourproject_2stim_asymm_v5,2020.2.10,MacIntel,60,61025ae37ef11b136ea224fe,,,,,,,,,1988,38.01953125,71.4375,1,0,0,response1disk,,7,14.109375,9.75390625,1,0,0,rectangle,14.109375,9.75390625,1,0,0,14.109375,9.75390625,1,0,0,1,75,235,121,1,,,,,,,,
,,,,,,,,,,,,,FF,,,,,,,,0.950875,,,,,,,,,,,,,,,,,,,,,,60ff6789f2c59752d68e53b9,61036c4c75313f245eb89e26,2021-07-29_20h05.27.373,Simcolourproject_2stim_asymm_v5,2020.2.10,MacIntel,60,61025ae37ef11b136ea224fe,,,,,,,,,3469,-68.89453125,34.484375,1,0,0,response7disk,,1,-14.26171875,4.4140625,1,0,0,rectangle,-14.26171875,4.4140625,1,0,0,-14.26171875,4.4140625,1,0,0,1,76,236,59,1,,,,,,,,
,,,,,,,,,,,,,FF,,,,,,,,0.985165,,,,,,,,,,,,,,,,,,,,,,60ff6789f2c59752d68e53b9,61036c4c75313f245eb89e26,2021-07-29_20h05.27.373,Simcolourproject_2stim_asymm_v5,2020.2.10,MacIntel,60,61025ae37ef11b136ea224fe,,,,,,,,,4059,-84.9296875,-55.1484375,1,0,0,response5disk,,2,-10.46484375,-5.26953125,1,0,0,rectangle,70.82421875,41.2109375,1,0,0,4.19140625,-5.16015625,1,0,0,1,77,237,130,1,,response1disk_3,TRUE,6,6,"[18,100,33,246,46,147,213,6,59,73,196,128,238,18,130,61,297,148,211,61]",1.384355,rectangle
,,,,,,,,,,,,,FF,,,,,,,,1.852625,,,,,,,,,,,,,,,,,,,,,,60ff6789f2c59752d68e53b9,61036c4c75313f245eb89e26,2021-07-29_20h05.27.373,Simcolourproject_2stim_asymm_v5,2020.2.10,MacIntel,60,61025ae37ef11b136ea224fe,,,,,,,,,3364,33.76171875,-69.15234375,1,0,0,response3disk,,4,3.6015625,-8.34375,1,0,0,rectangle,3.6015625,-8.34375,1,0,0,3.6015625,-8.34375,1,0,0,1,78,238,79,1,,,,,,,,
,,,,,,,,,,,,,FF,,,,,,,,0.817945,,,,,,,,,,,,,,,,,,,,,,60ff6789f2c59752d68e53b9,61036c4c75313f245eb89e26,2021-07-29_20h05.27.373,Simcolourproject_2stim_asymm_v5,2020.2.10,MacIntel,60,61025ae37ef11b136ea224fe,,,,,,,,,1200,64.07421875,16.18359375,1,0,0,response1disk,,6,2.46875,-1.3984375,1,0,0,rectangle,2.46875,-1.3984375,1,0,0,2.46875,-1.3984375,1,0,0,1,79,239,133,1,,,,,,,,
,,,,,,,,,,,,,FF,,,,,,,,1.618255,,,,,,,,,,,,,,,,,,,,,,60ff6789f2c59752d68e53b9,61036c4c75313f245eb89e26,2021-07-29_20h05.27.373,Simcolourproject_2stim_asymm_v5,2020.2.10,MacIntel,60,61025ae37ef11b136ea224fe,,,,,,,,,3988,30.87890625,-95.1171875,1,0,0,response3disk,,4,15.4609375,-7.6171875,1,0,0,rectangle,15.4609375,-7.6171875,1,0,0,15.4609375,-7.6171875,1,0,0,1,80,240,102,1,,,,,,,,
,,,,,,,,,,,,,FF,,,,,,,,1.30122,,,,,,,,,,,,,,,,,,,,,,60ff6789f2c59752d68e53b9,61036c4c75313f245eb89e26,2021-07-29_20h05.27.373,Simcolourproject_2stim_asymm_v5,2020.2.10,MacIntel,60,61025ae37ef11b136ea224fe,,,,,,,,,2843,88.671875,-49.890625,1,0,0,response3disk,,5,-0.96484375,-6.48828125,1,0,0,rectangle,-0.96484375,-6.48828125,1,0,0,-0.96484375,-6.48828125,1,0,0,1,81,241,127,1,,,,,,,,
,,,,,,,,,,,,,FF,,,,,,,,1.0676,,,,,,,,,,,,,,,,,,,,,,60ff6789f2c59752d68e53b9,61036c4c75313f245eb89e26,2021-07-29_20h05.27.373,Simcolourproject_2stim_asymm_v5,2020.2.10,MacIntel,60,61025ae37ef11b136ea224fe,,,,,,,,,1959,-68.14453125,-44.58984375,1,0,0,response5disk,,2,3.2734375,-4.72265625,1,0,0,rectangle,3.2734375,-4.72265625,1,0,0,3.2734375,-4.72265625,1,0,0,1,82,242,36,1,,,,,,,,
,,,,,,,,,,,,,FF,,,,,,,,1.131895,,,,,,,,,,,,,,,,,,,,,,60ff6789f2c59752d68e53b9,61036c4c75313f245eb89e26,2021-07-29_20h05.27.373,Simcolourproject_2stim_asymm_v5,2020.2.10,MacIntel,60,61025ae37ef11b136ea224fe,,,,,,,,,3152,-64.84765625,-39.171875,1,0,0,response5disk,,2,10.08984375,3.578125,1,0,0,rectangle,10.08984375,3.578125,1,0,0,10.08984375,3.578125,1,0,0,1,83,243,23,1,,,,,,,,
,,,,,,,,,,,,,FF,,,,,,,,1.417475,,,,,,,,,,,,,,,,,,,,,,60ff6789f2c59752d68e53b9,61036c4c75313f245eb89e26,2021-07-29_20h05.27.373,Simcolourproject_2stim_asymm_v5,2020.2.10,MacIntel,60,61025ae37ef11b136ea224fe,,,,,,,,,4364,-73.0859375,-31.5234375,1,0,0,response5disk,,2,-3.29296875,5.4296875,1,0,0,rectangle,-3.29296875,5.4296875,1,0,0,-3.29296875,5.4296875,1,0,0,1,84,244,81,1,,,,,,,,
,,,,,,,,,,,,,FF,,,,,,,,0.85166,,,,,,,,,,,,,,,,,,,,,,60ff6789f2c59752d68e53b9,61036c4c75313f245eb89e26,2021-07-29_20h05.27.373,Simcolourproject_2stim_asymm_v5,2020.2.10,MacIntel,60,61025ae37ef11b136ea224fe,,,,,,,,,1706,37.578125,60.703125,1,0,0,response1disk,,7,-1.453125,-7.78125,1,0,0,rectangle,-80.01953125,-43.33984375,1,0,0,-0.203125,-7.22265625,1,0,0,1,85,245,74,1,,response5disk_3,TRUE,2,2,"[18,100,33,246,46,147,213,6,59,73,196,128,238,18,130,61,297,148,211,61]",1.56734,rectangle
,,,,,,,,,,,,,FF,,,,,,,,0.900895,,,,,,,,,,,,,,,,,,,,,,60ff6789f2c59752d68e53b9,61036c4c75313f245eb89e26,2021-07-29_20h05.27.373,Simcolourproject_2stim_asymm_v5,2020.2.10,MacIntel,60,61025ae37ef11b136ea224fe,,,,,,,,,2284,44.234375,-63.76171875,1,0,0,response3disk,,4,5.28125,-0.3828125,1,0,0,rectangle,5.28125,-0.3828125,1,0,0,5.28125,-0.3828125,1,0,0,1,86,246,149,1,,,,,,,,
