key_resp.keys,key_resp.rt,key_resp_14.keys,key_resp_14.rt,key_resp_15.keys,key_resp_15.rt,key_resp_17.keys,key_resp_17.rt,key_resp_9.keys,key_resp_9.rt,key_resp_10.keys,key_resp_10.rt,practice_comparison,Ecc,mouse_5.x,mouse_5.y,mouse_5.leftButton,mouse_5.midButton,mouse_5.rightButton,mouse_5.clicked_name,pracsimilarity,response_time,mouse_10.x,mouse_10.y,mouse_10.leftButton,mouse_10.midButton,mouse_10.rightButton,mouse_10.clicked_name,mouse_7.x,mouse_7.y,mouse_7.leftButton,mouse_7.midButton,mouse_7.rightButton,mouse_6.x,mouse_6.y,mouse_6.leftButton,mouse_6.midButton,mouse_6.rightButton,duringprac.thisRepN,duringprac.thisTrialN,duringprac.thisN,duringprac.thisIndex,duringprac.ran,participant,session,date,expName,psychopyVersion,OS,frameRate,study_id,mouse_7.clicked_name,catchpracsimilarity,catch_response_time,catchnumberprac,catchtrialorderprac,mouse_6.clicked_name,key_resp_22.keys,key_resp_22.rt,realcomparison,mouse.x,mouse.y,mouse.leftButton,mouse.midButton,mouse.rightButton,mouse.clicked_name,Colour2,similarity,mouse_2.x,mouse_2.y,mouse_2.leftButton,mouse_2.midButton,mouse_2.rightButton,mouse_2.clicked_name,mouse_3.x,mouse_3.y,mouse_3.leftButton,mouse_3.midButton,mouse_3.rightButton,mouse_3.clicked_name,catchornah,catchsimilarity,catchnumber,catchtrialorder,catchRT,mouse_11.x,mouse_11.y,mouse_11.leftButton,mouse_11.midButton,mouse_11.rightButton,mouse_11.clicked_name,trials_2.thisRepN,trials_2.thisTrialN,trials_2.thisN,trials_2.thisIndex,trials_2.ran,Colour1
space,2.629,space,7.2579,space,25.5248,space,3.7559,space,2.2944,space,3.4831,88,FF,-152.7999908,-60.00000733,1,0,0,response5disk_5,2,8.5944,-0.799988568,-6.4373E-06,1,0,0,rectangle_8,-0.799988568,-6.4373E-06,1,0,0,-0.799988568,-6.4373E-06,1,0,0,0,0,0,5,1,60ff0285154e9a89d9116b02,61036df6e443c3e9aeab20c3,2021-07-30_04h12.10.585,Simcolourproject_2stim_asymm_v5,2020.2.10,Win32,60,61025ae37ef11b136ea224fe,,,,,,,,,,,,,,,,,,,,,,,,,,,,,,,,,,,,,,,,,,,,,,
,,,,,,,,,,,,159,FF,-60.79998946,-120.0000082,1,0,0,response5disk_5,3,1.685,-10.39993988,-9.60000658,1,0,0,rectangle_8,60.80001235,-128.0000083,1,0,0,11.20001161,-8.800006568,1,0,0,0,1,1,0,1,60ff0285154e9a89d9116b02,61036df6e443c3e9aeab20c3,2021-07-30_04h12.10.585,Simcolourproject_2stim_asymm_v5,2020.2.10,Win32,60,61025ae37ef11b136ea224fe,response3disk_7,4,2.0359,4,"[2,5]",rectangle_4,,,,,,,,,,,,,,,,,,,,,,,,,,,,,,,,,,,,,,,,
,,,,,,,,,,,,157,PF,64.80001241,-108.8000081,1,0,0,response3disk_5,4,2.219,9.600060415,-2.400006473,1,0,0,rectangle_8,9.600060415,-2.400006473,1,0,0,9.600060415,-2.400006473,1,0,0,0,2,2,1,1,60ff0285154e9a89d9116b02,61036df6e443c3e9aeab20c3,2021-07-30_04h12.10.585,Simcolourproject_2stim_asymm_v5,2020.2.10,Win32,60,61025ae37ef11b136ea224fe,,,,,,,,,,,,,,,,,,,,,,,,,,,,,,,,,,,,,,,,,,,,,,
,,,,,,,,,,,,88,PF,116.8000132,36.79999411,1,0,0,response1disk_5,6,4.0375,8.000011563,3.999993622,1,0,0,rectangle_8,8.000011563,3.999993622,1,0,0,8.000011563,3.999993622,1,0,0,0,3,3,6,1,60ff0285154e9a89d9116b02,61036df6e443c3e9aeab20c3,2021-07-30_04h12.10.585,Simcolourproject_2stim_asymm_v5,2020.2.10,Win32,60,61025ae37ef11b136ea224fe,,,,,,,,,,,,,,,,,,,,,,,,,,,,,,,,,,,,,,,,,,,,,,
,,,,,,,,,,,,0,PF,-90.39994107,-60.80000734,1,0,0,response5disk_5,2,1.3347,13.60006047,-2.400006473,1,0,0,rectangle_8,56.00001228,-128.8000084,1,0,0,8.000011563,2.399993598,1,0,0,0,4,4,2,1,60ff0285154e9a89d9116b02,61036df6e443c3e9aeab20c3,2021-07-30_04h12.10.585,Simcolourproject_2stim_asymm_v5,2020.2.10,Win32,60,61025ae37ef11b136ea224fe,response3disk_7,4,1.368,4,"[2,5]",rectangle_4,,,,,,,,,,,,,,,,,,,,,,,,,,,,,,,,,,,,,,,,
,,,,,,,,,,,,12,PF,116.8000132,39.19996973,1,0,0,response1disk_5,6,2.1022,-2.399939764,-4.000006497,1,0,0,rectangle_8,-2.399939764,-4.000006497,1,0,0,-2.399939764,-4.000006497,1,0,0,0,5,5,4,1,60ff0285154e9a89d9116b02,61036df6e443c3e9aeab20c3,2021-07-30_04h12.10.585,Simcolourproject_2stim_asymm_v5,2020.2.10,Win32,60,61025ae37ef11b136ea224fe,,,,,,,,,,,,,,,,,,,,,,,,,,,,,,,,,,,,,,,,,,,,,,
,,,,,,,,,,,,74,FF,-38.3999403,-96.00000787,1,0,0,response5disk_5,3,1.4848,0.800011456,-12.80000663,1,0,0,rectangle_8,0.800011456,-12.80000663,1,0,0,0.800011456,-12.80000663,1,0,0,0,6,6,3,1,60ff0285154e9a89d9116b02,61036df6e443c3e9aeab20c3,2021-07-30_04h12.10.585,Simcolourproject_2stim_asymm_v5,2020.2.10,Win32,60,61025ae37ef11b136ea224fe,,,,,,,,,,,,,,,,,,,,,,,,,,,,,,,,,,,,,,,,,,,,,,
,,,,,,,,,,,,,FF,,,,,,,,1.5852,,,,,,,,,,,,,,,,,,,,,,60ff0285154e9a89d9116b02,61036df6e443c3e9aeab20c3,2021-07-30_04h12.10.585,Simcolourproject_2stim_asymm_v5,2020.2.10,Win32,60,61025ae37ef11b136ea224fe,,,,,,,space,3.6162,718,-72.79998964,-41.60000706,1,0,0,response5disk,,2,-3.999988616,-1.600006461,1,0,0,rectangle,72.80001253,99.99999505,1,0,0,response1disk_3,TRUE,7,7,"[113,144,23,167,251,266,218,150,239,314,301,174,315,71,230,279,1,226,66,143]",1.6519,9.600060415,3.19999361,1,0,0,rectangle,0,0,0,28,1,
,,,,,,,,,,,,,FF,,,,,,,,5.439,,,,,,,,,,,,,,,,,,,,,,60ff0285154e9a89d9116b02,61036df6e443c3e9aeab20c3,2021-07-30_04h12.10.585,Simcolourproject_2stim_asymm_v5,2020.2.10,Win32,60,61025ae37ef11b136ea224fe,,,,,,,,,3896,70.40001249,-107.200008,1,0,0,response3disk,,4,0.800011456,7.999993682,1,0,0,rectangle,0.800011456,7.999993682,1,0,0,,,,,,,0.800011456,7.999993682,1,0,0,,0,1,1,85,1,
,,,,,,,,,,,,,FF,,,,,,,,3.5037,,,,,,,,,,,,,,,,,,,,,,60ff0285154e9a89d9116b02,61036df6e443c3e9aeab20c3,2021-07-30_04h12.10.585,Simcolourproject_2stim_asymm_v5,2020.2.10,Win32,60,61025ae37ef11b136ea224fe,,,,,,,,,2417,91.2000128,-70.40000749,1,0,0,response3disk,,5,-0.799988568,3.999993622,1,0,0,rectangle,-0.799988568,3.999993622,1,0,0,,,,,,,-0.799988568,3.999993622,1,0,0,,0,2,2,139,1,
,,,,,,,,,,,,,FF,,,,,,,,3.7709,,,,,,,,,,,,,,,,,,,,,,60ff0285154e9a89d9116b02,61036df6e443c3e9aeab20c3,2021-07-30_04h12.10.585,Simcolourproject_2stim_asymm_v5,2020.2.10,Win32,60,61025ae37ef11b136ea224fe,,,,,,,,,478,93.60001284,56.79999441,1,0,0,response1disk,,6,-11.19998872,8.799993694,1,0,0,rectangle,-11.19998872,8.799993694,1,0,0,,,,,,,-11.19998872,8.799993694,1,0,0,,0,3,3,151,1,
,,,,,,,,,,,,,FF,,,,,,,,1.3345,,,,,,,,,,,,,,,,,,,,,,60ff0285154e9a89d9116b02,61036df6e443c3e9aeab20c3,2021-07-30_04h12.10.585,Simcolourproject_2stim_asymm_v5,2020.2.10,Win32,60,61025ae37ef11b136ea224fe,,,,,,,,,3118,44.80001211,-91.2000078,1,0,0,response3disk,,4,8.000011563,9.599993706,1,0,0,rectangle,8.000011563,9.599993706,1,0,0,,,,,,,8.000011563,9.599993706,1,0,0,,0,4,4,58,1,
,,,,,,,,,,,,,FF,,,,,,,,0.9343,,,,,,,,,,,,,,,,,,,,,,60ff0285154e9a89d9116b02,61036df6e443c3e9aeab20c3,2021-07-30_04h12.10.585,Simcolourproject_2stim_asymm_v5,2020.2.10,Win32,60,61025ae37ef11b136ea224fe,,,,,,,,,1384,-59.99998945,-92.00000781,1,0,0,response5disk,,3,3.200011492,-10.40000659,1,0,0,rectangle,3.200011492,-10.40000659,1,0,0,,,,,,,3.200011492,-10.40000659,1,0,0,,0,5,5,36,1,
,,,,,,,,,,,,,FF,,,,,,,,0.7339,,,,,,,,,,,,,,,,,,,,,,60ff0285154e9a89d9116b02,61036df6e443c3e9aeab20c3,2021-07-30_04h12.10.585,Simcolourproject_2stim_asymm_v5,2020.2.10,Win32,60,61025ae37ef11b136ea224fe,,,,,,,,,1195,40.80001205,-92.00000781,1,0,0,response3disk,,4,1.600060296,7.999993682,1,0,0,rectangle,1.600060296,7.999993682,1,0,0,,,,,,,1.600060296,7.999993682,1,0,0,,0,6,6,132,1,
,,,,,,,,,,,,,FF,,,,,,,,1.2181,,,,,,,,,,,,,,,,,,,,,,60ff0285154e9a89d9116b02,61036df6e443c3e9aeab20c3,2021-07-30_04h12.10.585,Simcolourproject_2stim_asymm_v5,2020.2.10,Win32,60,61025ae37ef11b136ea224fe,,,,,,,,,1975,94.40001285,-43.20000708,1,0,0,response3disk,,5,-11.19998872,8.799993694,1,0,0,rectangle,-11.19998872,8.799993694,1,0,0,,,,,,,-11.19998872,8.799993694,1,0,0,,0,7,7,33,1,
,,,,,,,,,,,,,FF,,,,,,,,0.8175,,,,,,,,,,,,,,,,,,,,,,60ff0285154e9a89d9116b02,61036df6e443c3e9aeab20c3,2021-07-30_04h12.10.585,Simcolourproject_2stim_asymm_v5,2020.2.10,Win32,60,61025ae37ef11b136ea224fe,,,,,,,,,1750,-83.99998981,-45.60000712,1,0,0,response5disk,,2,3.200011492,3.19999361,1,0,0,rectangle,3.200011492,3.19999361,1,0,0,,,,,,,3.200011492,3.19999361,1,0,0,,0,8,8,128,1,
,,,,,,,,,,,,,FF,,,,,,,,0.9678,,,,,,,,,,,,,,,,,,,,,,60ff0285154e9a89d9116b02,61036df6e443c3e9aeab20c3,2021-07-30_04h12.10.585,Simcolourproject_2stim_asymm_v5,2020.2.10,Win32,60,61025ae37ef11b136ea224fe,,,,,,,,,3414,98.40001291,-55.20000726,1,0,0,response3disk,,5,-3.199988604,-8.800006568,1,0,0,rectangle,-3.199988604,-8.800006568,1,0,0,,,,,,,-3.199988604,-8.800006568,1,0,0,,0,9,9,116,1,
,,,,,,,,,,,,,FF,,,,,,,,0.8509,,,,,,,,,,,,,,,,,,,,,,60ff0285154e9a89d9116b02,61036df6e443c3e9aeab20c3,2021-07-30_04h12.10.585,Simcolourproject_2stim_asymm_v5,2020.2.10,Win32,60,61025ae37ef11b136ea224fe,,,,,,,,,3497,45.60006095,-81.60005648,1,0,0,response3disk,,4,5.600060356,-7.200006545,1,0,0,rectangle,5.600060356,-7.200006545,1,0,0,,,,,,,5.600060356,-7.200006545,1,0,0,,0,10,10,29,1,
,,,,,,,,,,,,,FF,,,,,,,,2.4193,,,,,,,,,,,,,,,,,,,,,,60ff0285154e9a89d9116b02,61036df6e443c3e9aeab20c3,2021-07-30_04h12.10.585,Simcolourproject_2stim_asymm_v5,2020.2.10,Win32,60,61025ae37ef11b136ea224fe,,,,,,,,,2398,60.80001235,88.79999489,1,0,0,response1disk,,7,17.60006053,2.399993598,1,0,0,rectangle,17.60006053,2.399993598,1,0,0,,,,,,,17.60006053,2.399993598,1,0,0,,0,11,11,47,1,
,,,,,,,,,,,,,FF,,,,,,,,0.8842,,,,,,,,,,,,,,,,,,,,,,60ff0285154e9a89d9116b02,61036df6e443c3e9aeab20c3,2021-07-30_04h12.10.585,Simcolourproject_2stim_asymm_v5,2020.2.10,Win32,60,61025ae37ef11b136ea224fe,,,,,,,,,2139,116.8000132,36.79999411,1,0,0,response1disk,,6,25.60006065,-7.200006545,1,0,0,rectangle,25.60006065,-7.200006545,1,0,0,,,,,,,25.60006065,-7.200006545,1,0,0,,0,12,12,67,1,
,,,,,,,,,,,,,FF,,,,,,,,3.2704,,,,,,,,,,,,,,,,,,,,,,60ff0285154e9a89d9116b02,61036df6e443c3e9aeab20c3,2021-07-30_04h12.10.585,Simcolourproject_2stim_asymm_v5,2020.2.10,Win32,60,61025ae37ef11b136ea224fe,,,,,,,,,1721,89.60001278,-37.600007,1,0,0,response3disk,,5,-3.999988616,8.799993694,1,0,0,rectangle,-3.999988616,8.799993694,1,0,0,,,,,,,-3.999988616,8.799993694,1,0,0,,0,13,13,98,1,
,,,,,,,,,,,,,FF,,,,,,,,3.2033,,,,,,,,,,,,,,,,,,,,,,60ff0285154e9a89d9116b02,61036df6e443c3e9aeab20c3,2021-07-30_04h12.10.585,Simcolourproject_2stim_asymm_v5,2020.2.10,Win32,60,61025ae37ef11b136ea224fe,,,,,,,,,3725,44.80001211,-102.400008,1,0,0,response3disk,,4,11.20001161,0.799993575,1,0,0,rectangle,11.20001161,0.799993575,1,0,0,,,,,,,11.20001161,0.799993575,1,0,0,,0,14,14,60,1,
,,,,,,,,,,,,,FF,,,,,,,,1.8175,,,,,,,,,,,,,,,,,,,,,,60ff0285154e9a89d9116b02,61036df6e443c3e9aeab20c3,2021-07-30_04h12.10.585,Simcolourproject_2stim_asymm_v5,2020.2.10,Win32,60,61025ae37ef11b136ea224fe,,,,,,,,,2005,-40.79998916,99.99999505,1,0,0,response7disk,,0,9.600060415,2.399993598,1,0,0,rectangle,9.600060415,2.399993598,1,0,0,,,,,,,9.600060415,2.399993598,1,0,0,,0,15,15,147,1,
,,,,,,,,,,,,,FF,,,,,,,,1.3345,,,,,,,,,,,,,,,,,,,,,,60ff0285154e9a89d9116b02,61036df6e443c3e9aeab20c3,2021-07-30_04h12.10.585,Simcolourproject_2stim_asymm_v5,2020.2.10,Win32,60,61025ae37ef11b136ea224fe,,,,,,,,,199,-35.19998908,-96.00000787,1,0,0,response5disk,,3,8.000011563,-12.80000663,1,0,0,rectangle,8.000011563,-12.80000663,1,0,0,,,,,,,8.000011563,-12.80000663,1,0,0,,0,16,16,10,1,
,,,,,,,,,,,,,FF,,,,,,,,1.3014,,,,,,,,,,,,,,,,,,,,,,60ff0285154e9a89d9116b02,61036df6e443c3e9aeab20c3,2021-07-30_04h12.10.585,Simcolourproject_2stim_asymm_v5,2020.2.10,Win32,60,61025ae37ef11b136ea224fe,,,,,,,,,3950,-33.59998906,-107.200008,1,0,0,response5disk,,3,25.60006065,7.999993682,1,0,0,rectangle,25.60006065,7.999993682,1,0,0,,,,,,,25.60006065,7.999993682,1,0,0,,0,17,17,88,1,
,,,,,,,,,,,,,FF,,,,,,,,1.1512,,,,,,,,,,,,,,,,,,,,,,60ff0285154e9a89d9116b02,61036df6e443c3e9aeab20c3,2021-07-30_04h12.10.585,Simcolourproject_2stim_asymm_v5,2020.2.10,Win32,60,61025ae37ef11b136ea224fe,,,,,,,,,4154,100.8000129,-66.40000743,1,0,0,response3disk,,5,17.60006053,-12.00000662,1,0,0,rectangle,17.60006053,-12.00000662,1,0,0,,,,,,,17.60006053,-12.00000662,1,0,0,,0,18,18,135,1,
,,,,,,,,,,,,,FF,,,,,,,,2.8698,,,,,,,,,,,,,,,,,,,,,,60ff0285154e9a89d9116b02,61036df6e443c3e9aeab20c3,2021-07-30_04h12.10.585,Simcolourproject_2stim_asymm_v5,2020.2.10,Win32,60,61025ae37ef11b136ea224fe,,,,,,,,,2475,50.4000122,-108.8000081,1,0,0,response3disk,,4,12.00001162,3.999993622,1,0,0,rectangle,12.00001162,3.999993622,1,0,0,,,,,,,12.00001162,3.999993622,1,0,0,,0,19,19,145,1,
,,,,,,,,,,,,,FF,,,,,,,,1.4861,,,,,,,,,,,,,,,,,,,,,,60ff0285154e9a89d9116b02,61036df6e443c3e9aeab20c3,2021-07-30_04h12.10.585,Simcolourproject_2stim_asymm_v5,2020.2.10,Win32,60,61025ae37ef11b136ea224fe,,,,,,,,,1868,99.20001292,24.79999393,1,0,0,response1disk,,6,32.00001192,-8.000006557,1,0,0,rectangle,32.00001192,-8.000006557,1,0,0,,,,,,,32.00001192,-8.000006557,1,0,0,,0,20,20,82,1,
,,,,,,,,,,,,,FF,,,,,,,,1.1497,,,,,,,,,,,,,,,,,,,,,,60ff0285154e9a89d9116b02,61036df6e443c3e9aeab20c3,2021-07-30_04h12.10.585,Simcolourproject_2stim_asymm_v5,2020.2.10,Win32,60,61025ae37ef11b136ea224fe,,,,,,,,,823,98.40001291,-55.20000726,1,0,0,response3disk,,5,-17.59998882,-7.200006545,1,0,0,rectangle,-17.59998882,-7.200006545,1,0,0,,,,,,,-17.59998882,-7.200006545,1,0,0,,0,21,21,4,1,
,,,,,,,,,,,,,FF,,,,,,,,3.2029,,,,,,,,,,,,,,,,,,,,,,60ff0285154e9a89d9116b02,61036df6e443c3e9aeab20c3,2021-07-30_04h12.10.585,Simcolourproject_2stim_asymm_v5,2020.2.10,Win32,60,61025ae37ef11b136ea224fe,,,,,,,,,1640,37.60006083,87.99999487,1,0,0,response1disk,,7,10.4000116,2.399993598,1,0,0,rectangle,57.6000123,130.3999955,1,0,0,response1disk_3,TRUE,7,7,"[113,144,23,167,251,266,218,150,239,314,301,174,315,71,230,279,1,226,66,143]",1.8367,7.200011551,-1.600006461,1,0,0,rectangle,0,22,22,53,1,
,,,,,,,,,,,,,FF,,,,,,,,1.0345,,,,,,,,,,,,,,,,,,,,,,60ff0285154e9a89d9116b02,61036df6e443c3e9aeab20c3,2021-07-30_04h12.10.585,Simcolourproject_2stim_asymm_v5,2020.2.10,Win32,60,61025ae37ef11b136ea224fe,,,,,,,,,1766,-38.3999403,-100.0000079,1,0,0,response5disk,,3,19.20001173,-10.40000659,1,0,0,rectangle,19.20001173,-10.40000659,1,0,0,,,,,,,19.20001173,-10.40000659,1,0,0,,0,23,23,27,1,
,,,,,,,,,,,,,FF,,,,,,,,3.3534,,,,,,,,,,,,,,,,,,,,,,60ff0285154e9a89d9116b02,61036df6e443c3e9aeab20c3,2021-07-30_04h12.10.585,Simcolourproject_2stim_asymm_v5,2020.2.10,Win32,60,61025ae37ef11b136ea224fe,,,,,,,,,417,104.000013,-70.40000749,1,0,0,response3disk,,5,13.60006047,-5.600006521,1,0,0,rectangle,13.60006047,-5.600006521,1,0,0,,,,,,,13.60006047,-5.600006521,1,0,0,,0,24,24,80,1,
,,,,,,,,,,,,,FF,,,,,,,,1.0678,,,,,,,,,,,,,,,,,,,,,,60ff0285154e9a89d9116b02,61036df6e443c3e9aeab20c3,2021-07-30_04h12.10.585,Simcolourproject_2stim_asymm_v5,2020.2.10,Win32,60,61025ae37ef11b136ea224fe,,,,,,,,,1724,47.20001215,-127.2000083,1,0,0,response3disk,,4,-4.799988627,-2.400006473,1,0,0,rectangle,-4.799988627,-2.400006473,1,0,0,,,,,,,-4.799988627,-2.400006473,1,0,0,,0,25,25,84,1,
,,,,,,,,,,,,,FF,,,,,,,,3.2369,,,,,,,,,,,,,,,,,,,,,,60ff0285154e9a89d9116b02,61036df6e443c3e9aeab20c3,2021-07-30_04h12.10.585,Simcolourproject_2stim_asymm_v5,2020.2.10,Win32,60,61025ae37ef11b136ea224fe,,,,,,,,,1503,116.0000132,-74.40000755,1,0,0,response3disk,,5,13.60006047,4.799993634,1,0,0,rectangle,13.60006047,4.799993634,1,0,0,,,,,,,13.60006047,4.799993634,1,0,0,,0,26,26,78,1,
,,,,,,,,,,,,,FF,,,,,,,,0.8841,,,,,,,,,,,,,,,,,,,,,,60ff0285154e9a89d9116b02,61036df6e443c3e9aeab20c3,2021-07-30_04h12.10.585,Simcolourproject_2stim_asymm_v5,2020.2.10,Win32,60,61025ae37ef11b136ea224fe,,,,,,,,,1173,43.20001209,-85.60005654,1,0,0,response3disk,,4,10.4000116,8.799993694,1,0,0,rectangle,10.4000116,8.799993694,1,0,0,,,,,,,10.4000116,8.799993694,1,0,0,,0,27,27,23,1,
,,,,,,,,,,,,,FF,,,,,,,,0.9342,,,,,,,,,,,,,,,,,,,,,,60ff0285154e9a89d9116b02,61036df6e443c3e9aeab20c3,2021-07-30_04h12.10.585,Simcolourproject_2stim_asymm_v5,2020.2.10,Win32,60,61025ae37ef11b136ea224fe,,,,,,,,,1118,-43.1999892,-90.40000778,1,0,0,response5disk,,3,-12.79998875,2.399993598,1,0,0,rectangle,-12.79998875,2.399993598,1,0,0,,,,,,,-12.79998875,2.399993598,1,0,0,,0,28,28,158,1,
,,,,,,,,,,,,,FF,,,,,,,,0.9011,,,,,,,,,,,,,,,,,,,,,,60ff0285154e9a89d9116b02,61036df6e443c3e9aeab20c3,2021-07-30_04h12.10.585,Simcolourproject_2stim_asymm_v5,2020.2.10,Win32,60,61025ae37ef11b136ea224fe,,,,,,,,,2736,-48.79998928,-82.40000767,1,0,0,response5disk,,3,-22.39994006,4.799993634,1,0,0,rectangle,-22.39994006,4.799993634,1,0,0,,,,,,,-22.39994006,4.799993634,1,0,0,,0,29,29,105,1,
,,,,,,,,,,,,,FF,,,,,,,,1.218,,,,,,,,,,,,,,,,,,,,,,60ff0285154e9a89d9116b02,61036df6e443c3e9aeab20c3,2021-07-30_04h12.10.585,Simcolourproject_2stim_asymm_v5,2020.2.10,Win32,60,61025ae37ef11b136ea224fe,,,,,,,,,1987,-47.99998927,-88.00000775,1,0,0,response5disk,,3,2.40001148,-6.4373E-06,1,0,0,rectangle,2.40001148,-6.4373E-06,1,0,0,,,,,,,2.40001148,-6.4373E-06,1,0,0,,0,30,30,134,1,
,,,,,,,,,,,,,FF,,,,,,,,1.2693,,,,,,,,,,,,,,,,,,,,,,60ff0285154e9a89d9116b02,61036df6e443c3e9aeab20c3,2021-07-30_04h12.10.585,Simcolourproject_2stim_asymm_v5,2020.2.10,Win32,60,61025ae37ef11b136ea224fe,,,,,,,,,4249,-63.99998951,-101.6000568,1,0,0,response5disk,,3,-3.199988604,-7.200006545,1,0,0,rectangle,-3.199988604,-7.200006545,1,0,0,,,,,,,-3.199988604,-7.200006545,1,0,0,,0,31,31,122,1,
,,,,,,,,,,,,,FF,,,,,,,,1.8354,,,,,,,,,,,,,,,,,,,,,,60ff0285154e9a89d9116b02,61036df6e443c3e9aeab20c3,2021-07-30_04h12.10.585,Simcolourproject_2stim_asymm_v5,2020.2.10,Win32,60,61025ae37ef11b136ea224fe,,,,,,,,,3532,132.8000134,28.79999399,1,0,0,response1disk,,6,9.600060415,10.39999372,1,0,0,rectangle,9.600060415,10.39999372,1,0,0,,,,,,,9.600060415,10.39999372,1,0,0,,0,32,32,148,1,
,,,,,,,,,,,,,FF,,,,,,,,1.0344,,,,,,,,,,,,,,,,,,,,,,60ff0285154e9a89d9116b02,61036df6e443c3e9aeab20c3,2021-07-30_04h12.10.585,Simcolourproject_2stim_asymm_v5,2020.2.10,Win32,60,61025ae37ef11b136ea224fe,,,,,,,,,1663,-33.59998906,-90.40000778,1,0,0,response5disk,,3,-0.799988568,-2.400006473,1,0,0,rectangle,-0.799988568,-2.400006473,1,0,0,,,,,,,-0.799988568,-2.400006473,1,0,0,,0,33,33,5,1,
,,,,,,,,,,,,,FF,,,,,,,,0.9678,,,,,,,,,,,,,,,,,,,,,,60ff0285154e9a89d9116b02,61036df6e443c3e9aeab20c3,2021-07-30_04h12.10.585,Simcolourproject_2stim_asymm_v5,2020.2.10,Win32,60,61025ae37ef11b136ea224fe,,,,,,,,,2776,-94.39994113,-41.60000706,1,0,0,response5disk,,2,-11.19998872,0.799993575,1,0,0,rectangle,-11.19998872,0.799993575,1,0,0,,,,,,,-11.19998872,0.799993575,1,0,0,,0,34,34,141,1,
,,,,,,,,,,,,,FF,,,,,,,,2.136,,,,,,,,,,,,,,,,,,,,,,60ff0285154e9a89d9116b02,61036df6e443c3e9aeab20c3,2021-07-30_04h12.10.585,Simcolourproject_2stim_asymm_v5,2020.2.10,Win32,60,61025ae37ef11b136ea224fe,,,,,,,,,3275,96.00001287,-57.6000073,1,0,0,response3disk,,5,-4.799988627,7.999993682,1,0,0,rectangle,-4.799988627,7.999993682,1,0,0,,,,,,,-4.799988627,7.999993682,1,0,0,,0,35,35,17,1,
,,,,,,,,,,,,,FF,,,,,,,,0.6666,,,,,,,,,,,,,,,,,,,,,,60ff0285154e9a89d9116b02,61036df6e443c3e9aeab20c3,2021-07-30_04h12.10.585,Simcolourproject_2stim_asymm_v5,2020.2.10,Win32,60,61025ae37ef11b136ea224fe,,,,,,,,,994,66.40001243,-104.800008,1,0,0,response3disk,,4,23.20001179,-7.200006545,1,0,0,rectangle,23.20001179,-7.200006545,1,0,0,,,,,,,23.20001179,-7.200006545,1,0,0,,0,36,36,3,1,
,,,,,,,,,,,,,FF,,,,,,,,0.7843,,,,,,,,,,,,,,,,,,,,,,60ff0285154e9a89d9116b02,61036df6e443c3e9aeab20c3,2021-07-30_04h12.10.585,Simcolourproject_2stim_asymm_v5,2020.2.10,Win32,60,61025ae37ef11b136ea224fe,,,,,,,,,1976,-47.99998927,-92.00000781,1,0,0,response5disk,,3,-12.79998875,-4.800006509,1,0,0,rectangle,-12.79998875,-4.800006509,1,0,0,,,,,,,-12.79998875,-4.800006509,1,0,0,,0,37,37,57,1,
,,,,,,,,,,,,,FF,,,,,,,,0.8845,,,,,,,,,,,,,,,,,,,,,,60ff0285154e9a89d9116b02,61036df6e443c3e9aeab20c3,2021-07-30_04h12.10.585,Simcolourproject_2stim_asymm_v5,2020.2.10,Win32,60,61025ae37ef11b136ea224fe,,,,,,,,,3331,-98.39994119,-40.00000703,1,0,0,response5disk,,2,-16.79998881,-2.400006473,1,0,0,rectangle,-16.79998881,-2.400006473,1,0,0,,,,,,,-16.79998881,-2.400006473,1,0,0,,0,38,38,114,1,
,,,,,,,,,,,,,FF,,,,,,,,1.1178,,,,,,,,,,,,,,,,,,,,,,60ff0285154e9a89d9116b02,61036df6e443c3e9aeab20c3,2021-07-30_04h12.10.585,Simcolourproject_2stim_asymm_v5,2020.2.10,Win32,60,61025ae37ef11b136ea224fe,,,,,,,,,1244,53.60001224,-109.6000569,1,0,0,response3disk,,4,15.20001167,-5.600006521,1,0,0,rectangle,15.20001167,-5.600006521,1,0,0,,,,,,,15.20001167,-5.600006521,1,0,0,,0,39,39,110,1,
,,,,,,,,,,,,,FF,,,,,,,,0.834,,,,,,,,,,,,,,,,,,,,,,60ff0285154e9a89d9116b02,61036df6e443c3e9aeab20c3,2021-07-30_04h12.10.585,Simcolourproject_2stim_asymm_v5,2020.2.10,Win32,60,61025ae37ef11b136ea224fe,,,,,,,,,1137,-54.39994054,-92.00000781,1,0,0,response5disk,,3,-35.19998908,8.799993694,1,0,0,rectangle,-35.19998908,8.799993694,1,0,0,,,,,,,-35.19998908,8.799993694,1,0,0,,0,40,40,26,1,
,,,,,,,,,,,,,FF,,,,,,,,0.9332,,,,,,,,,,,,,,,,,,,,,,60ff0285154e9a89d9116b02,61036df6e443c3e9aeab20c3,2021-07-30_04h12.10.585,Simcolourproject_2stim_asymm_v5,2020.2.10,Win32,60,61025ae37ef11b136ea224fe,,,,,,,,,2061,104.800013,-44.8000071,1,0,0,response3disk,,5,24.80001181,12.79999375,1,0,0,rectangle,24.80001181,12.79999375,1,0,0,,,,,,,24.80001181,12.79999375,1,0,0,,0,41,41,70,1,
,,,,,,,,,,,,,FF,,,,,,,,0.784,,,,,,,,,,,,,,,,,,,,,,60ff0285154e9a89d9116b02,61036df6e443c3e9aeab20c3,2021-07-30_04h12.10.585,Simcolourproject_2stim_asymm_v5,2020.2.10,Win32,60,61025ae37ef11b136ea224fe,,,,,,,,,2719,-80.79998976,48.79999429,1,0,0,response7disk,,1,0.800011456,-9.60000658,1,0,0,rectangle,0.800011456,-9.60000658,1,0,0,,,,,,,0.800011456,-9.60000658,1,0,0,,0,42,42,12,1,
,,,,,,,,,,,,,FF,,,,,,,,0.8022,,,,,,,,,,,,,,,,,,,,,,60ff0285154e9a89d9116b02,61036df6e443c3e9aeab20c3,2021-07-30_04h12.10.585,Simcolourproject_2stim_asymm_v5,2020.2.10,Win32,60,61025ae37ef11b136ea224fe,,,,,,,,,984,-87.19998986,-58.40000731,1,0,0,response5disk,,2,-11.99998873,-2.400006473,1,0,0,rectangle,-11.99998873,-2.400006473,1,0,0,,,,,,,-11.99998873,-2.400006473,1,0,0,,0,43,43,154,1,
,,,,,,,,,,,,,FF,,,,,,,,1.817,,,,,,,,,,,,,,,,,,,,,,60ff0285154e9a89d9116b02,61036df6e443c3e9aeab20c3,2021-07-30_04h12.10.585,Simcolourproject_2stim_asymm_v5,2020.2.10,Win32,60,61025ae37ef11b136ea224fe,,,,,,,,,1972,-87.99998987,-30.40000689,1,0,0,response5disk,,2,3.200011492,3.19999361,1,0,0,rectangle,3.200011492,3.19999361,1,0,0,,,,,,,3.200011492,3.19999361,1,0,0,,0,44,44,121,1,
,,,,,,,,,,,,,FF,,,,,,,,1.2844,,,,,,,,,,,,,,,,,,,,,,60ff0285154e9a89d9116b02,61036df6e443c3e9aeab20c3,2021-07-30_04h12.10.585,Simcolourproject_2stim_asymm_v5,2020.2.10,Win32,60,61025ae37ef11b136ea224fe,,,,,,,,,816,132.0000134,20.79999387,1,0,0,response1disk,,6,-0.799988568,-16.00000668,1,0,0,rectangle,-0.799988568,-16.00000668,1,0,0,,,,,,,-0.799988568,-16.00000668,1,0,0,,0,45,45,71,1,
,,,,,,,,,,,,,FF,,,,,,,,0.8009,,,,,,,,,,,,,,,,,,,,,,60ff0285154e9a89d9116b02,61036df6e443c3e9aeab20c3,2021-07-30_04h12.10.585,Simcolourproject_2stim_asymm_v5,2020.2.10,Win32,60,61025ae37ef11b136ea224fe,,,,,,,,,564,80.00001264,32.79999405,1,0,0,response1disk,,6,-28.79998899,-0.800006449,1,0,0,rectangle,-28.79998899,-0.800006449,1,0,0,,,,,,,-28.79998899,-0.800006449,1,0,0,,0,46,46,37,1,
,,,,,,,,,,,,,FF,,,,,,,,1.6695,,,,,,,,,,,,,,,,,,,,,,60ff0285154e9a89d9116b02,61036df6e443c3e9aeab20c3,2021-07-30_04h12.10.585,Simcolourproject_2stim_asymm_v5,2020.2.10,Win32,60,61025ae37ef11b136ea224fe,,,,,,,,,464,101.600013,-40.80000705,1,0,0,response3disk,,5,22.40001178,-11.2000066,1,0,0,rectangle,22.40001178,-11.2000066,1,0,0,,,,,,,22.40001178,-11.2000066,1,0,0,,0,47,47,130,1,
,,,,,,,,,,,,,FF,,,,,,,,0.6859,,,,,,,,,,,,,,,,,,,,,,60ff0285154e9a89d9116b02,61036df6e443c3e9aeab20c3,2021-07-30_04h12.10.585,Simcolourproject_2stim_asymm_v5,2020.2.10,Win32,60,61025ae37ef11b136ea224fe,,,,,,,,,3378,-57.59998941,-77.60000759,1,0,0,response5disk,,3,-5.599988639,-13.60000664,1,0,0,rectangle,-5.599988639,-13.60000664,1,0,0,,,,,,,-5.599988639,-13.60000664,1,0,0,,0,48,48,49,1,
,,,,,,,,,,,,,FF,,,,,,,,1.8682,,,,,,,,,,,,,,,,,,,,,,60ff0285154e9a89d9116b02,61036df6e443c3e9aeab20c3,2021-07-30_04h12.10.585,Simcolourproject_2stim_asymm_v5,2020.2.10,Win32,60,61025ae37ef11b136ea224fe,,,,,,,,,2550,48.80001217,-83.20000768,1,0,0,response3disk,,4,11.20001161,14.39999378,1,0,0,rectangle,11.20001161,14.39999378,1,0,0,,,,,,,11.20001161,14.39999378,1,0,0,,0,49,49,41,1,
,,,,,,,,,,,,,FF,,,,,,,,2.3847,,,,,,,,,,,,,,,,,,,,,,60ff0285154e9a89d9116b02,61036df6e443c3e9aeab20c3,2021-07-30_04h12.10.585,Simcolourproject_2stim_asymm_v5,2020.2.10,Win32,60,61025ae37ef11b136ea224fe,,,,,,,,,848,112.0000131,-60.00000733,1,0,0,response3disk,,5,10.4000116,-4.000006497,1,0,0,rectangle,10.4000116,-4.000006497,1,0,0,,,,,,,10.4000116,-4.000006497,1,0,0,,0,50,50,142,1,
,,,,,,,,,,,,,FF,,,,,,,,1.0011,,,,,,,,,,,,,,,,,,,,,,60ff0285154e9a89d9116b02,61036df6e443c3e9aeab20c3,2021-07-30_04h12.10.585,Simcolourproject_2stim_asymm_v5,2020.2.10,Win32,60,61025ae37ef11b136ea224fe,,,,,,,,,2867,109.6000131,38.39999413,1,0,0,response1disk,,6,-15.19998878,-4.000006497,1,0,0,rectangle,-15.19998878,-4.000006497,1,0,0,,,,,,,-15.19998878,-4.000006497,1,0,0,,0,51,51,125,1,
,,,,,,,,,,,,,FF,,,,,,,,2.6679,,,,,,,,,,,,,,,,,,,,,,60ff0285154e9a89d9116b02,61036df6e443c3e9aeab20c3,2021-07-30_04h12.10.585,Simcolourproject_2stim_asymm_v5,2020.2.10,Win32,60,61025ae37ef11b136ea224fe,,,,,,,,,2478,-43.1999892,-104.000008,1,0,0,response5disk,,3,-3.999988616,-11.2000066,1,0,0,rectangle,-3.999988616,-11.2000066,1,0,0,,,,,,,-3.999988616,-11.2000066,1,0,0,,0,52,52,133,1,
,,,,,,,,,,,,,FF,,,,,,,,0.8508,,,,,,,,,,,,,,,,,,,,,,60ff0285154e9a89d9116b02,61036df6e443c3e9aeab20c3,2021-07-30_04h12.10.585,Simcolourproject_2stim_asymm_v5,2020.2.10,Win32,60,61025ae37ef11b136ea224fe,,,,,,,,,2335,48.00001216,88.79999489,1,0,0,response1disk,,7,11.20001161,2.399993598,1,0,0,rectangle,11.20001161,2.399993598,1,0,0,,,,,,,11.20001161,2.399993598,1,0,0,,0,53,53,93,1,
,,,,,,,,,,,,,FF,,,,,,,,1.0343,,,,,,,,,,,,,,,,,,,,,,60ff0285154e9a89d9116b02,61036df6e443c3e9aeab20c3,2021-07-30_04h12.10.585,Simcolourproject_2stim_asymm_v5,2020.2.10,Win32,60,61025ae37ef11b136ea224fe,,,,,,,,,3803,83.20001268,-55.20000726,1,0,0,response3disk,,5,-11.19998872,-12.80000663,1,0,0,rectangle,-11.19998872,-12.80000663,1,0,0,,,,,,,-11.19998872,-12.80000663,1,0,0,,0,54,54,144,1,
,,,,,,,,,,,,,FF,,,,,,,,0.6996,,,,,,,,,,,,,,,,,,,,,,60ff0285154e9a89d9116b02,61036df6e443c3e9aeab20c3,2021-07-30_04h12.10.585,Simcolourproject_2stim_asymm_v5,2020.2.10,Win32,60,61025ae37ef11b136ea224fe,,,,,,,,,2349,-25.59998894,-85.60005654,1,0,0,response5disk,,3,1.600060296,-4.000006497,1,0,0,rectangle,1.600060296,-4.000006497,1,0,0,,,,,,,1.600060296,-4.000006497,1,0,0,,0,55,55,77,1,
,,,,,,,,,,,,,FF,,,,,,,,0.6341,,,,,,,,,,,,,,,,,,,,,,60ff0285154e9a89d9116b02,61036df6e443c3e9aeab20c3,2021-07-30_04h12.10.585,Simcolourproject_2stim_asymm_v5,2020.2.10,Win32,60,61025ae37ef11b136ea224fe,,,,,,,,,1185,53.60001224,-88.00000775,1,0,0,response3disk,,4,24.0000118,-4.800006509,1,0,0,rectangle,24.0000118,-4.800006509,1,0,0,,,,,,,24.0000118,-4.800006509,1,0,0,,0,56,56,0,1,
,,,,,,,,,,,,,FF,,,,,,,,0.9998,,,,,,,,,,,,,,,,,,,,,,60ff0285154e9a89d9116b02,61036df6e443c3e9aeab20c3,2021-07-30_04h12.10.585,Simcolourproject_2stim_asymm_v5,2020.2.10,Win32,60,61025ae37ef11b136ea224fe,,,,,,,,,2506,52.00001222,75.9999947,1,0,0,response1disk,,7,-3.199988604,15.9999938,1,0,0,rectangle,-3.199988604,15.9999938,1,0,0,,,,,,,-3.199988604,15.9999938,1,0,0,,0,57,57,69,1,
,,,,,,,,,,,,,FF,,,,,,,,0.9189,,,,,,,,,,,,,,,,,,,,,,60ff0285154e9a89d9116b02,61036df6e443c3e9aeab20c3,2021-07-30_04h12.10.585,Simcolourproject_2stim_asymm_v5,2020.2.10,Win32,60,61025ae37ef11b136ea224fe,,,,,,,,,426,-57.59998941,-84.00000769,1,0,0,response5disk,,3,-27.99998897,3.999993622,1,0,0,rectangle,-27.99998897,3.999993622,1,0,0,,,,,,,-27.99998897,3.999993622,1,0,0,,0,58,58,31,1,
,,,,,,,,,,,,,FF,,,,,,,,0.8844,,,,,,,,,,,,,,,,,,,,,,60ff0285154e9a89d9116b02,61036df6e443c3e9aeab20c3,2021-07-30_04h12.10.585,Simcolourproject_2stim_asymm_v5,2020.2.10,Win32,60,61025ae37ef11b136ea224fe,,,,,,,,,3695,-42.39994036,-96.00000787,1,0,0,response5disk,,3,-1.59998858,3.999993622,1,0,0,rectangle,-1.59998858,3.999993622,1,0,0,,,,,,,-1.59998858,3.999993622,1,0,0,,0,59,59,54,1,
,,,,,,,,,,,,,FF,,,,,,,,2.0509,,,,,,,,,,,,,,,,,,,,,,60ff0285154e9a89d9116b02,61036df6e443c3e9aeab20c3,2021-07-30_04h12.10.585,Simcolourproject_2stim_asymm_v5,2020.2.10,Win32,60,61025ae37ef11b136ea224fe,,,,,,,,,52,39.20001203,-97.60005672,1,0,0,response3disk,,4,4.800011516,-14.40000665,1,0,0,rectangle,4.800011516,-14.40000665,1,0,0,,,,,,,4.800011516,-14.40000665,1,0,0,,0,60,60,124,1,
,,,,,,,,,,,,,FF,,,,,,,,1.0678,,,,,,,,,,,,,,,,,,,,,,60ff0285154e9a89d9116b02,61036df6e443c3e9aeab20c3,2021-07-30_04h12.10.585,Simcolourproject_2stim_asymm_v5,2020.2.10,Win32,60,61025ae37ef11b136ea224fe,,,,,,,,,701,-109.5999902,-76.80000758,1,0,0,response5disk,,2,-18.39994,-1.600006461,1,0,0,rectangle,-18.39994,-1.600006461,1,0,0,,,,,,,-18.39994,-1.600006461,1,0,0,,0,61,61,156,1,
,,,,,,,,,,,,,FF,,,,,,,,2.0353,,,,,,,,,,,,,,,,,,,,,,60ff0285154e9a89d9116b02,61036df6e443c3e9aeab20c3,2021-07-30_04h12.10.585,Simcolourproject_2stim_asymm_v5,2020.2.10,Win32,60,61025ae37ef11b136ea224fe,,,,,,,,,505,120.0000132,26.39999396,1,0,0,response1disk,,6,24.80001181,-3.200006485,1,0,0,rectangle,24.80001181,-3.200006485,1,0,0,,,,,,,24.80001181,-3.200006485,1,0,0,,0,62,62,18,1,
,,,,,,,,,,,,,FF,,,,,,,,1.1679,,,,,,,,,,,,,,,,,,,,,,60ff0285154e9a89d9116b02,61036df6e443c3e9aeab20c3,2021-07-30_04h12.10.585,Simcolourproject_2stim_asymm_v5,2020.2.10,Win32,60,61025ae37ef11b136ea224fe,,,,,,,,,1117,72.80001253,-96.00000787,1,0,0,response3disk,,4,11.20001161,-6.4373E-06,1,0,0,rectangle,11.20001161,-6.4373E-06,1,0,0,,,,,,,11.20001161,-6.4373E-06,1,0,0,,0,63,63,65,1,
,,,,,,,,,,,,,FF,,,,,,,,1.0008,,,,,,,,,,,,,,,,,,,,,,60ff0285154e9a89d9116b02,61036df6e443c3e9aeab20c3,2021-07-30_04h12.10.585,Simcolourproject_2stim_asymm_v5,2020.2.10,Win32,60,61025ae37ef11b136ea224fe,,,,,,,,,3182,61.60001236,88.79999489,1,0,0,response1disk,,7,32.80001193,-1.600006461,1,0,0,rectangle,32.80001193,-1.600006461,1,0,0,,,,,,,32.80001193,-1.600006461,1,0,0,,0,64,64,127,1,
,,,,,,,,,,,,,FF,,,,,,,,0.8022,,,,,,,,,,,,,,,,,,,,,,60ff0285154e9a89d9116b02,61036df6e443c3e9aeab20c3,2021-07-30_04h12.10.585,Simcolourproject_2stim_asymm_v5,2020.2.10,Win32,60,61025ae37ef11b136ea224fe,,,,,,,,,1356,62.40001237,-42.40000707,1,0,0,response3disk,,5,22.40001178,-13.60000664,1,0,0,rectangle,120.8000132,-60.00000733,1,0,0,response3disk_3,TRUE,5,5,"[113,144,23,167,251,266,218,150,239,314,301,174,315,71,230,279,1,226,66,143]",1.4366,-23.99998891,2.399993598,1,0,0,rectangle,0,65,65,119,1,
,,,,,,,,,,,,,FF,,,,,,,,0.8854,,,,,,,,,,,,,,,,,,,,,,60ff0285154e9a89d9116b02,61036df6e443c3e9aeab20c3,2021-07-30_04h12.10.585,Simcolourproject_2stim_asymm_v5,2020.2.10,Win32,60,61025ae37ef11b136ea224fe,,,,,,,,,4079,-54.39994054,-81.60005648,1,0,0,response5disk,,3,-3.199988604,-0.800006449,1,0,0,rectangle,-3.199988604,-0.800006449,1,0,0,,,,,,,-3.199988604,-0.800006449,1,0,0,,0,66,66,149,1,
,,,,,,,,,,,,,FF,,,,,,,,0.7841,,,,,,,,,,,,,,,,,,,,,,60ff0285154e9a89d9116b02,61036df6e443c3e9aeab20c3,2021-07-30_04h12.10.585,Simcolourproject_2stim_asymm_v5,2020.2.10,Win32,60,61025ae37ef11b136ea224fe,,,,,,,,,1557,54.40001225,-70.40000749,1,0,0,response3disk,,4,17.60006053,5.599993646,1,0,0,rectangle,17.60006053,5.599993646,1,0,0,,,,,,,17.60006053,5.599993646,1,0,0,,0,67,67,75,1,
,,,,,,,,,,,,,FF,,,,,,,,0.7187,,,,,,,,,,,,,,,,,,,,,,60ff0285154e9a89d9116b02,61036df6e443c3e9aeab20c3,2021-07-30_04h12.10.585,Simcolourproject_2stim_asymm_v5,2020.2.10,Win32,60,61025ae37ef11b136ea224fe,,,,,,,,,158,-36.7999891,-80.80000764,1,0,0,response5disk,,3,3.200011492,-16.00000668,1,0,0,rectangle,3.200011492,-16.00000668,1,0,0,,,,,,,3.200011492,-16.00000668,1,0,0,,0,68,68,99,1,
,,,,,,,,,,,,,FF,,,,,,,,1.2176,,,,,,,,,,,,,,,,,,,,,,60ff0285154e9a89d9116b02,61036df6e443c3e9aeab20c3,2021-07-30_04h12.10.585,Simcolourproject_2stim_asymm_v5,2020.2.10,Win32,60,61025ae37ef11b136ea224fe,,,,,,,,,118,115.2000132,31.99999404,1,0,0,response1disk,,6,-4.799988627,7.19999367,1,0,0,rectangle,-4.799988627,7.19999367,1,0,0,,,,,,,-4.799988627,7.19999367,1,0,0,,0,69,69,100,1,
,,,,,,,,,,,,,FF,,,,,,,,0.7341,,,,,,,,,,,,,,,,,,,,,,60ff0285154e9a89d9116b02,61036df6e443c3e9aeab20c3,2021-07-30_04h12.10.585,Simcolourproject_2stim_asymm_v5,2020.2.10,Win32,60,61025ae37ef11b136ea224fe,,,,,,,,,850,127.2000133,-68.00000745,1,0,0,response3disk,,5,-30.39994018,-0.800006449,1,0,0,rectangle,-74.39994084,115.9999953,1,0,0,response7disk_3,TRUE,0,0,"[113,144,23,167,251,266,218,150,239,314,301,174,315,71,230,279,1,226,66,143]",1.6366,-4.799988627,3.19999361,1,0,0,rectangle,0,70,70,157,1,
,,,,,,,,,,,,,FF,,,,,,,,1.3349,,,,,,,,,,,,,,,,,,,,,,60ff0285154e9a89d9116b02,61036df6e443c3e9aeab20c3,2021-07-30_04h12.10.585,Simcolourproject_2stim_asymm_v5,2020.2.10,Win32,60,61025ae37ef11b136ea224fe,,,,,,,,,937,68.80001247,-93.60005666,1,0,0,response3disk,,4,16.00001168,-0.800006449,1,0,0,rectangle,16.00001168,-0.800006449,1,0,0,,,,,,,16.00001168,-0.800006449,1,0,0,,0,71,71,123,1,
,,,,,,,,,,,,,FF,,,,,,,,1.2829,,,,,,,,,,,,,,,,,,,,,,60ff0285154e9a89d9116b02,61036df6e443c3e9aeab20c3,2021-07-30_04h12.10.585,Simcolourproject_2stim_asymm_v5,2020.2.10,Win32,60,61025ae37ef11b136ea224fe,,,,,,,,,3997,-113.5999902,-46.40000713,1,0,0,response5disk,,2,-18.39994,-1.600006461,1,0,0,rectangle,-18.39994,-1.600006461,1,0,0,,,,,,,-18.39994,-1.600006461,1,0,0,,0,72,72,103,1,
,,,,,,,,,,,,,FF,,,,,,,,0.6825,,,,,,,,,,,,,,,,,,,,,,60ff0285154e9a89d9116b02,61036df6e443c3e9aeab20c3,2021-07-30_04h12.10.585,Simcolourproject_2stim_asymm_v5,2020.2.10,Win32,60,61025ae37ef11b136ea224fe,,,,,,,,,2063,55.20001227,-84.00000769,1,0,0,response3disk,,4,25.60006065,11.99999374,1,0,0,rectangle,25.60006065,11.99999374,1,0,0,,,,,,,25.60006065,11.99999374,1,0,0,,0,73,73,39,1,
,,,,,,,,,,,,,FF,,,,,,,,0.9855,,,,,,,,,,,,,,,,,,,,,,60ff0285154e9a89d9116b02,61036df6e443c3e9aeab20c3,2021-07-30_04h12.10.585,Simcolourproject_2stim_asymm_v5,2020.2.10,Win32,60,61025ae37ef11b136ea224fe,,,,,,,,,3430,-103.1999901,-52.80000722,1,0,0,response5disk,,2,13.60006047,-2.400006473,1,0,0,rectangle,13.60006047,-2.400006473,1,0,0,,,,,,,13.60006047,-2.400006473,1,0,0,,0,74,74,95,1,
,,,,,,,,,,,,,FF,,,,,,,,0.6173,,,,,,,,,,,,,,,,,,,,,,60ff0285154e9a89d9116b02,61036df6e443c3e9aeab20c3,2021-07-30_04h12.10.585,Simcolourproject_2stim_asymm_v5,2020.2.10,Win32,60,61025ae37ef11b136ea224fe,,,,,,,,,3154,-86.39994102,43.99999422,1,0,0,response7disk,,1,16.80001169,-4.000006497,1,0,0,rectangle,16.80001169,-4.000006497,1,0,0,,,,,,,16.80001169,-4.000006497,1,0,0,,0,75,75,131,1,
,,,,,,,,,,,,,FF,,,,,,,,0.6837,,,,,,,,,,,,,,,,,,,,,,60ff0285154e9a89d9116b02,61036df6e443c3e9aeab20c3,2021-07-30_04h12.10.585,Simcolourproject_2stim_asymm_v5,2020.2.10,Win32,60,61025ae37ef11b136ea224fe,,,,,,,,,2583,59.20001233,-113.600057,1,0,0,response3disk,,4,5.600060356,-1.600006461,1,0,0,rectangle,5.600060356,-1.600006461,1,0,0,,,,,,,5.600060356,-1.600006461,1,0,0,,0,76,76,30,1,
,,,,,,,,,,,,,FF,,,,,,,,1.1323,,,,,,,,,,,,,,,,,,,,,,60ff0285154e9a89d9116b02,61036df6e443c3e9aeab20c3,2021-07-30_04h12.10.585,Simcolourproject_2stim_asymm_v5,2020.2.10,Win32,60,61025ae37ef11b136ea224fe,,,,,,,,,1526,-59.99998945,-94.40000784,1,0,0,response5disk,,3,-20.79998887,-10.40000659,1,0,0,rectangle,-20.79998887,-10.40000659,1,0,0,,,,,,,-20.79998887,-10.40000659,1,0,0,,0,77,77,13,1,
,,,,,,,,,,,,,FF,,,,,,,,1.0178,,,,,,,,,,,,,,,,,,,,,,60ff0285154e9a89d9116b02,61036df6e443c3e9aeab20c3,2021-07-30_04h12.10.585,Simcolourproject_2stim_asymm_v5,2020.2.10,Win32,60,61025ae37ef11b136ea224fe,,,,,,,,,428,-41.59998918,-80.80000764,1,0,0,response5disk,,3,-1.59998858,3.999993622,1,0,0,rectangle,-1.59998858,3.999993622,1,0,0,,,,,,,-1.59998858,3.999993622,1,0,0,,0,78,78,83,1,
,,,,,,,,,,,,,FF,,,,,,,,0.8345,,,,,,,,,,,,,,,,,,,,,,60ff0285154e9a89d9116b02,61036df6e443c3e9aeab20c3,2021-07-30_04h12.10.585,Simcolourproject_2stim_asymm_v5,2020.2.10,Win32,60,61025ae37ef11b136ea224fe,,,,,,,,,2659,64.80001241,-94.40000784,1,0,0,response3disk,,4,15.20001167,-7.200006545,1,0,0,rectangle,15.20001167,-7.200006545,1,0,0,,,,,,,15.20001167,-7.200006545,1,0,0,,0,79,79,129,1,
,,,,,,,,,,,,,FF,,,,,,,,0.602,,,,,,,,,,,,,,,,,,,,,,60ff0285154e9a89d9116b02,61036df6e443c3e9aeab20c3,2021-07-30_04h12.10.585,Simcolourproject_2stim_asymm_v5,2020.2.10,Win32,60,61025ae37ef11b136ea224fe,,,,,,,,,423,97.6000129,-49.60000718,1,0,0,response3disk,,5,14.40001166,-5.600006521,1,0,0,rectangle,14.40001166,-5.600006521,1,0,0,,,,,,,14.40001166,-5.600006521,1,0,0,,0,80,80,16,1,
,,,,,,,,,,,,,FF,,,,,,,,2.7531,,,,,,,,,,,,,,,,,,,,,,60ff0285154e9a89d9116b02,61036df6e443c3e9aeab20c3,2021-07-30_04h12.10.585,Simcolourproject_2stim_asymm_v5,2020.2.10,Win32,60,61025ae37ef11b136ea224fe,,,,,,,,,4118,-70.39994078,103.1999707,1,0,0,response7disk,,0,-0.799988568,7.999993682,1,0,0,rectangle,-0.799988568,7.999993682,1,0,0,,,,,,,-0.799988568,7.999993682,1,0,0,,0,81,81,63,1,
,,,,,,,,,,,,,FF,,,,,,,,1.0189,,,,,,,,,,,,,,,,,,,,,,60ff0285154e9a89d9116b02,61036df6e443c3e9aeab20c3,2021-07-30_04h12.10.585,Simcolourproject_2stim_asymm_v5,2020.2.10,Win32,60,61025ae37ef11b136ea224fe,,,,,,,,,4131,60.80001235,99.19997063,1,0,0,response1disk,,7,-3.999988616,7.999993682,1,0,0,rectangle,-3.999988616,7.999993682,1,0,0,,,,,,,-3.999988616,7.999993682,1,0,0,,0,82,82,79,1,
,,,,,,,,,,,,,FF,,,,,,,,1.0177,,,,,,,,,,,,,,,,,,,,,,60ff0285154e9a89d9116b02,61036df6e443c3e9aeab20c3,2021-07-30_04h12.10.585,Simcolourproject_2stim_asymm_v5,2020.2.10,Win32,60,61025ae37ef11b136ea224fe,,,,,,,,,2509,101.600013,-45.60000712,1,0,0,response3disk,,5,12.00001162,-0.800006449,1,0,0,rectangle,12.00001162,-0.800006449,1,0,0,,,,,,,12.00001162,-0.800006449,1,0,0,,0,83,83,112,1,
,,,,,,,,,,,,,FF,,,,,,,,1.0692,,,,,,,,,,,,,,,,,,,,,,60ff0285154e9a89d9116b02,61036df6e443c3e9aeab20c3,2021-07-30_04h12.10.585,Simcolourproject_2stim_asymm_v5,2020.2.10,Win32,60,61025ae37ef11b136ea224fe,,,,,,,,,1006,107.200013,-46.40000713,1,0,0,response3disk,,5,-11.99998873,9.599993706,1,0,0,rectangle,-11.99998873,9.599993706,1,0,0,,,,,,,-11.99998873,9.599993706,1,0,0,,0,84,84,137,1,
,,,,,,,,,,,,,FF,,,,,,,,0.7841,,,,,,,,,,,,,,,,,,,,,,60ff0285154e9a89d9116b02,61036df6e443c3e9aeab20c3,2021-07-30_04h12.10.585,Simcolourproject_2stim_asymm_v5,2020.2.10,Win32,60,61025ae37ef11b136ea224fe,,,,,,,,,3638,101.600013,48.79999429,1,0,0,response1disk,,6,1.600060296,-1.600006461,1,0,0,rectangle,1.600060296,-1.600006461,1,0,0,,,,,,,1.600060296,-1.600006461,1,0,0,,0,85,85,81,1,
,,,,,,,,,,,,,FF,,,,,,,,0.6341,,,,,,,,,,,,,,,,,,,,,,60ff0285154e9a89d9116b02,61036df6e443c3e9aeab20c3,2021-07-30_04h12.10.585,Simcolourproject_2stim_asymm_v5,2020.2.10,Win32,60,61025ae37ef11b136ea224fe,,,,,,,,,2630,60.00001234,-102.400008,1,0,0,response3disk,,4,6.400011539,4.799993634,1,0,0,rectangle,6.400011539,4.799993634,1,0,0,,,,,,,6.400011539,4.799993634,1,0,0,,0,86,86,55,1,
,,,,,,,,,,,,,FF,,,,,,,,0.8356,,,,,,,,,,,,,,,,,,,,,,60ff0285154e9a89d9116b02,61036df6e443c3e9aeab20c3,2021-07-30_04h12.10.585,Simcolourproject_2stim_asymm_v5,2020.2.10,Win32,60,61025ae37ef11b136ea224fe,,,,,,,,,3365,104.000013,-47.20000714,1,0,0,response3disk,,5,5.600060356,0.799993575,1,0,0,rectangle,5.600060356,0.799993575,1,0,0,,,,,,,5.600060356,0.799993575,1,0,0,,0,87,87,101,1,
,,,,,,,,,,,,,FF,,,,,,,,0.5506,,,,,,,,,,,,,,,,,,,,,,60ff0285154e9a89d9116b02,61036df6e443c3e9aeab20c3,2021-07-30_04h12.10.585,Simcolourproject_2stim_asymm_v5,2020.2.10,Win32,60,61025ae37ef11b136ea224fe,,,,,,,,,2912,111.2000131,30.39999402,1,0,0,response1disk,,6,13.60006047,0.799993575,1,0,0,rectangle,13.60006047,0.799993575,1,0,0,,,,,,,13.60006047,0.799993575,1,0,0,,0,88,88,20,1,
,,,,,,,,,,,,,FF,,,,,,,,1.3347,,,,,,,,,,,,,,,,,,,,,,60ff0285154e9a89d9116b02,61036df6e443c3e9aeab20c3,2021-07-30_04h12.10.585,Simcolourproject_2stim_asymm_v5,2020.2.10,Win32,60,61025ae37ef11b136ea224fe,,,,,,,,,3234,-34.39994024,-94.40000784,1,0,0,response5disk,,3,-1.59998858,10.39999372,1,0,0,rectangle,-1.59998858,10.39999372,1,0,0,,,,,,,-1.59998858,10.39999372,1,0,0,,0,89,89,136,1,
,,,,,,,,,,,,,FF,,,,,,,,0.901,,,,,,,,,,,,,,,,,,,,,,60ff0285154e9a89d9116b02,61036df6e443c3e9aeab20c3,2021-07-30_04h12.10.585,Simcolourproject_2stim_asymm_v5,2020.2.10,Win32,60,61025ae37ef11b136ea224fe,,,,,,,,,4356,-39.19998914,81.59999478,1,0,0,response7disk,,0,-2.399939764,-0.800006449,1,0,0,rectangle,-2.399939764,-0.800006449,1,0,0,,,,,,,-2.399939764,-0.800006449,1,0,0,,0,90,90,143,1,
,,,,,,,,,,,,,FF,,,,,,,,0.6841,,,,,,,,,,,,,,,,,,,,,,60ff0285154e9a89d9116b02,61036df6e443c3e9aeab20c3,2021-07-30_04h12.10.585,Simcolourproject_2stim_asymm_v5,2020.2.10,Win32,60,61025ae37ef11b136ea224fe,,,,,,,,,2116,60.00001234,-102.400008,1,0,0,response3disk,,4,-3.199988604,-6.400006533,1,0,0,rectangle,-3.199988604,-6.400006533,1,0,0,,,,,,,-3.199988604,-6.400006533,1,0,0,,0,91,91,107,1,
,,,,,,,,,,,,,FF,,,,,,,,0.8827,,,,,,,,,,,,,,,,,,,,,,60ff0285154e9a89d9116b02,61036df6e443c3e9aeab20c3,2021-07-30_04h12.10.585,Simcolourproject_2stim_asymm_v5,2020.2.10,Win32,60,61025ae37ef11b136ea224fe,,,,,,,,,2298,-83.1999898,-52.80000722,1,0,0,response5disk,,2,-35.99998909,-4.800006509,1,0,0,rectangle,-35.99998909,-4.800006509,1,0,0,,,,,,,-35.99998909,-4.800006509,1,0,0,,0,92,92,109,1,
,,,,,,,,,,,,,FF,,,,,,,,1.0178,,,,,,,,,,,,,,,,,,,,,,60ff0285154e9a89d9116b02,61036df6e443c3e9aeab20c3,2021-07-30_04h12.10.585,Simcolourproject_2stim_asymm_v5,2020.2.10,Win32,60,61025ae37ef11b136ea224fe,,,,,,,,,1023,109.6000131,-57.6000073,1,0,0,response3disk,,5,22.40001178,1.599993587,1,0,0,rectangle,22.40001178,1.599993587,1,0,0,,,,,,,22.40001178,1.599993587,1,0,0,,0,93,93,113,1,
,,,,,,,,,,,,,FF,,,,,,,,0.733,,,,,,,,,,,,,,,,,,,,,,60ff0285154e9a89d9116b02,61036df6e443c3e9aeab20c3,2021-07-30_04h12.10.585,Simcolourproject_2stim_asymm_v5,2020.2.10,Win32,60,61025ae37ef11b136ea224fe,,,,,,,,,465,119.2000132,-60.00000733,1,0,0,response3disk,,5,22.40001178,-5.600006521,1,0,0,rectangle,22.40001178,-5.600006521,1,0,0,,,,,,,22.40001178,-5.600006521,1,0,0,,0,94,94,11,1,
,,,,,,,,,,,,,FF,,,,,,,,0.584,,,,,,,,,,,,,,,,,,,,,,60ff0285154e9a89d9116b02,61036df6e443c3e9aeab20c3,2021-07-30_04h12.10.585,Simcolourproject_2stim_asymm_v5,2020.2.10,Win32,60,61025ae37ef11b136ea224fe,,,,,,,,,4091,67.20001245,-85.60005654,1,0,0,response3disk,,4,20.80001175,-5.600006521,1,0,0,rectangle,20.80001175,-5.600006521,1,0,0,,,,,,,20.80001175,-5.600006521,1,0,0,,0,95,95,111,1,
,,,,,,,,,,,,,FF,,,,,,,,0.8847,,,,,,,,,,,,,,,,,,,,,,60ff0285154e9a89d9116b02,61036df6e443c3e9aeab20c3,2021-07-30_04h12.10.585,Simcolourproject_2stim_asymm_v5,2020.2.10,Win32,60,61025ae37ef11b136ea224fe,,,,,,,,,747,105.600013,45.59999424,1,0,0,response1disk,,6,-7.199988663,-6.4373E-06,1,0,0,rectangle,-7.199988663,-6.4373E-06,1,0,0,,,,,,,-7.199988663,-6.4373E-06,1,0,0,,0,96,96,138,1,
,,,,,,,,,,,,,FF,,,,,,,,0.6341,,,,,,,,,,,,,,,,,,,,,,60ff0285154e9a89d9116b02,61036df6e443c3e9aeab20c3,2021-07-30_04h12.10.585,Simcolourproject_2stim_asymm_v5,2020.2.10,Win32,60,61025ae37ef11b136ea224fe,,,,,,,,,3644,44.0000121,-88.80000776,1,0,0,response3disk,,4,1.14441E-05,-6.400006533,1,0,0,rectangle,1.14441E-05,-6.400006533,1,0,0,,,,,,,1.14441E-05,-6.400006533,1,0,0,,0,97,97,38,1,
,,,,,,,,,,,,,FF,,,,,,,,1.1679,,,,,,,,,,,,,,,,,,,,,,60ff0285154e9a89d9116b02,61036df6e443c3e9aeab20c3,2021-07-30_04h12.10.585,Simcolourproject_2stim_asymm_v5,2020.2.10,Win32,60,61025ae37ef11b136ea224fe,,,,,,,,,4274,119.2000132,39.19996973,1,0,0,response1disk,,6,-27.19998896,0.799993575,1,0,0,rectangle,-27.19998896,0.799993575,1,0,0,,,,,,,-27.19998896,0.799993575,1,0,0,,0,98,98,1,1,
,,,,,,,,,,,,,FF,,,,,,,,0.5838,,,,,,,,,,,,,,,,,,,,,,60ff0285154e9a89d9116b02,61036df6e443c3e9aeab20c3,2021-07-30_04h12.10.585,Simcolourproject_2stim_asymm_v5,2020.2.10,Win32,60,61025ae37ef11b136ea224fe,,,,,,,,,391,52.00001222,-95.20000786,1,0,0,response3disk,,4,8.800011575,-16.00000668,1,0,0,rectangle,8.800011575,-16.00000668,1,0,0,,,,,,,8.800011575,-16.00000668,1,0,0,,0,99,99,6,1,
,,,,,,,,,,,,,FF,,,,,,,,0.4821,,,,,,,,,,,,,,,,,,,,,,60ff0285154e9a89d9116b02,61036df6e443c3e9aeab20c3,2021-07-30_04h12.10.585,Simcolourproject_2stim_asymm_v5,2020.2.10,Win32,60,61025ae37ef11b136ea224fe,,,,,,,,,3120,94.40001285,-58.40000731,1,0,0,response3disk,,5,4.800011516,5.599993646,1,0,0,rectangle,4.800011516,5.599993646,1,0,0,,,,,,,4.800011516,5.599993646,1,0,0,,0,100,100,104,1,
,,,,,,,,,,,,,FF,,,,,,,,0.9164,,,,,,,,,,,,,,,,,,,,,,60ff0285154e9a89d9116b02,61036df6e443c3e9aeab20c3,2021-07-30_04h12.10.585,Simcolourproject_2stim_asymm_v5,2020.2.10,Win32,60,61025ae37ef11b136ea224fe,,,,,,,,,2987,-91.19998991,-44.8000071,1,0,0,response5disk,,2,-38.3999403,-4.800006509,1,0,0,rectangle,-38.3999403,-4.800006509,1,0,0,,,,,,,-38.3999403,-4.800006509,1,0,0,,0,101,101,34,1,
,,,,,,,,,,,,,FF,,,,,,,,0.8497,,,,,,,,,,,,,,,,,,,,,,60ff0285154e9a89d9116b02,61036df6e443c3e9aeab20c3,2021-07-30_04h12.10.585,Simcolourproject_2stim_asymm_v5,2020.2.10,Win32,60,61025ae37ef11b136ea224fe,,,,,,,,,4202,-48.79998928,-70.40000749,1,0,0,response5disk,,3,-24.79998893,12.79999375,1,0,0,rectangle,-24.79998893,12.79999375,1,0,0,,,,,,,-24.79998893,12.79999375,1,0,0,,0,102,102,35,1,
,,,,,,,,,,,,,FF,,,,,,,,0.7673,,,,,,,,,,,,,,,,,,,,,,60ff0285154e9a89d9116b02,61036df6e443c3e9aeab20c3,2021-07-30_04h12.10.585,Simcolourproject_2stim_asymm_v5,2020.2.10,Win32,60,61025ae37ef11b136ea224fe,,,,,,,,,958,-20.79998887,-98.4000079,1,0,0,response5disk,,3,28.80001187,11.99999374,1,0,0,rectangle,28.80001187,11.99999374,1,0,0,,,,,,,28.80001187,11.99999374,1,0,0,,0,103,103,74,1,
,,,,,,,,,,,,,FF,,,,,,,,0.6354,,,,,,,,,,,,,,,,,,,,,,60ff0285154e9a89d9116b02,61036df6e443c3e9aeab20c3,2021-07-30_04h12.10.585,Simcolourproject_2stim_asymm_v5,2020.2.10,Win32,60,61025ae37ef11b136ea224fe,,,,,,,,,3060,37.60006083,-84.00000769,1,0,0,response3disk,,4,34.40001196,-2.400006473,1,0,0,rectangle,34.40001196,-2.400006473,1,0,0,,,,,,,34.40001196,-2.400006473,1,0,0,,0,104,104,62,1,
,,,,,,,,,,,,,FF,,,,,,,,0.5663,,,,,,,,,,,,,,,,,,,,,,60ff0285154e9a89d9116b02,61036df6e443c3e9aeab20c3,2021-07-30_04h12.10.585,Simcolourproject_2stim_asymm_v5,2020.2.10,Win32,60,61025ae37ef11b136ea224fe,,,,,,,,,486,104.800013,-51.2000072,1,0,0,response3disk,,5,-6.399939823,10.39999372,1,0,0,rectangle,-6.399939823,10.39999372,1,0,0,,,,,,,-6.399939823,10.39999372,1,0,0,,0,105,105,52,1,
,,,,,,,,,,,,,FF,,,,,,,,1.2013,,,,,,,,,,,,,,,,,,,,,,60ff0285154e9a89d9116b02,61036df6e443c3e9aeab20c3,2021-07-30_04h12.10.585,Simcolourproject_2stim_asymm_v5,2020.2.10,Win32,60,61025ae37ef11b136ea224fe,,,,,,,,,1228,-51.19998932,-94.40000784,1,0,0,response5disk,,3,-15.99998879,5.599993646,1,0,0,rectangle,-15.99998879,5.599993646,1,0,0,,,,,,,-15.99998879,5.599993646,1,0,0,,0,106,106,86,1,
,,,,,,,,,,,,,FF,,,,,,,,0.7176,,,,,,,,,,,,,,,,,,,,,,60ff0285154e9a89d9116b02,61036df6e443c3e9aeab20c3,2021-07-30_04h12.10.585,Simcolourproject_2stim_asymm_v5,2020.2.10,Win32,60,61025ae37ef11b136ea224fe,,,,,,,,,2840,-107.1999902,-40.00000703,1,0,0,response5disk,,2,-27.99998897,-0.800006449,1,0,0,rectangle,-27.99998897,-0.800006449,1,0,0,,,,,,,-27.99998897,-0.800006449,1,0,0,,0,107,107,146,1,
,,,,,,,,,,,,,FF,,,,,,,,0.7171,,,,,,,,,,,,,,,,,,,,,,60ff0285154e9a89d9116b02,61036df6e443c3e9aeab20c3,2021-07-30_04h12.10.585,Simcolourproject_2stim_asymm_v5,2020.2.10,Win32,60,61025ae37ef11b136ea224fe,,,,,,,,,2183,56.80001229,-90.40000778,1,0,0,response3disk,,4,-1.59998858,-9.60000658,1,0,0,rectangle,-1.59998858,-9.60000658,1,0,0,,,,,,,-1.59998858,-9.60000658,1,0,0,,0,108,108,106,1,
,,,,,,,,,,,,,FF,,,,,,,,0.6692,,,,,,,,,,,,,,,,,,,,,,60ff0285154e9a89d9116b02,61036df6e443c3e9aeab20c3,2021-07-30_04h12.10.585,Simcolourproject_2stim_asymm_v5,2020.2.10,Win32,60,61025ae37ef11b136ea224fe,,,,,,,,,659,115.2000132,-46.40000713,1,0,0,response3disk,,5,31.20001191,-3.200006485,1,0,0,rectangle,31.20001191,-3.200006485,1,0,0,,,,,,,31.20001191,-3.200006485,1,0,0,,0,109,109,92,1,
,,,,,,,,,,,,,FF,,,,,,,,0.901,,,,,,,,,,,,,,,,,,,,,,60ff0285154e9a89d9116b02,61036df6e443c3e9aeab20c3,2021-07-30_04h12.10.585,Simcolourproject_2stim_asymm_v5,2020.2.10,Win32,60,61025ae37ef11b136ea224fe,,,,,,,,,1595,78.40001261,-61.60000736,1,0,0,response3disk,,5,18.40001172,4.799993634,1,0,0,rectangle,18.40001172,4.799993634,1,0,0,,,,,,,18.40001172,4.799993634,1,0,0,,0,110,110,155,1,
,,,,,,,,,,,,,FF,,,,,,,,0.8175,,,,,,,,,,,,,,,,,,,,,,60ff0285154e9a89d9116b02,61036df6e443c3e9aeab20c3,2021-07-30_04h12.10.585,Simcolourproject_2stim_asymm_v5,2020.2.10,Win32,60,61025ae37ef11b136ea224fe,,,,,,,,,1476,44.80001211,-100.8000079,1,0,0,response3disk,,4,18.40001172,-0.800006449,1,0,0,rectangle,18.40001172,-0.800006449,1,0,0,,,,,,,18.40001172,-0.800006449,1,0,0,,0,111,111,126,1,
,,,,,,,,,,,,,FF,,,,,,,,0.5342,,,,,,,,,,,,,,,,,,,,,,60ff0285154e9a89d9116b02,61036df6e443c3e9aeab20c3,2021-07-30_04h12.10.585,Simcolourproject_2stim_asymm_v5,2020.2.10,Win32,60,61025ae37ef11b136ea224fe,,,,,,,,,3279,93.60001284,-49.60000718,1,0,0,response3disk,,5,9.600060415,15.9999938,1,0,0,rectangle,70.40001249,119.9999954,1,0,0,response1disk_3,TRUE,7,7,"[113,144,23,167,251,266,218,150,239,314,301,174,315,71,230,279,1,226,66,143]",1.3842,11.20001161,1.599993587,1,0,0,rectangle,0,112,112,22,1,
,,,,,,,,,,,,,FF,,,,,,,,0.7672,,,,,,,,,,,,,,,,,,,,,,60ff0285154e9a89d9116b02,61036df6e443c3e9aeab20c3,2021-07-30_04h12.10.585,Simcolourproject_2stim_asymm_v5,2020.2.10,Win32,60,61025ae37ef11b136ea224fe,,,,,,,,,337,-47.19998926,-73.60000753,1,0,0,response5disk,,3,-0.799988568,-5.600006521,1,0,0,rectangle,-0.799988568,-5.600006521,1,0,0,,,,,,,-0.799988568,-5.600006521,1,0,0,,0,113,113,15,1,
,,,,,,,,,,,,,FF,,,,,,,,0.5177,,,,,,,,,,,,,,,,,,,,,,60ff0285154e9a89d9116b02,61036df6e443c3e9aeab20c3,2021-07-30_04h12.10.585,Simcolourproject_2stim_asymm_v5,2020.2.10,Win32,60,61025ae37ef11b136ea224fe,,,,,,,,,59,60.00001234,-83.20000768,1,0,0,response3disk,,4,20.80001175,7.999993682,1,0,0,rectangle,20.80001175,7.999993682,1,0,0,,,,,,,20.80001175,7.999993682,1,0,0,,0,114,114,102,1,
,,,,,,,,,,,,,FF,,,,,,,,0.6006,,,,,,,,,,,,,,,,,,,,,,60ff0285154e9a89d9116b02,61036df6e443c3e9aeab20c3,2021-07-30_04h12.10.585,Simcolourproject_2stim_asymm_v5,2020.2.10,Win32,60,61025ae37ef11b136ea224fe,,,,,,,,,2740,-39.99998915,-84.00000769,1,0,0,response5disk,,3,-7.999988675,-8.000006557,1,0,0,rectangle,-7.999988675,-8.000006557,1,0,0,,,,,,,-7.999988675,-8.000006557,1,0,0,,0,115,115,96,1,
,,,,,,,,,,,,,FF,,,,,,,,1.62,,,,,,,,,,,,,,,,,,,,,,60ff0285154e9a89d9116b02,61036df6e443c3e9aeab20c3,2021-07-30_04h12.10.585,Simcolourproject_2stim_asymm_v5,2020.2.10,Win32,60,61025ae37ef11b136ea224fe,,,,,,,,,4271,61.60001236,-81.60005648,1,0,0,response3disk,,4,-13.59998876,6.399993658,1,0,0,rectangle,-13.59998876,6.399993658,1,0,0,,,,,,,-13.59998876,6.399993658,1,0,0,,0,116,116,2,1,
,,,,,,,,,,,,,FF,,,,,,,,0.6174,,,,,,,,,,,,,,,,,,,,,,60ff0285154e9a89d9116b02,61036df6e443c3e9aeab20c3,2021-07-30_04h12.10.585,Simcolourproject_2stim_asymm_v5,2020.2.10,Win32,60,61025ae37ef11b136ea224fe,,,,,,,,,3383,-75.19998968,-47.20000714,1,0,0,response5disk,,2,-27.99998897,-2.400006473,1,0,0,rectangle,-27.99998897,-2.400006473,1,0,0,,,,,,,-27.99998897,-2.400006473,1,0,0,,0,117,117,19,1,
,,,,,,,,,,,,,FF,,,,,,,,0.8176,,,,,,,,,,,,,,,,,,,,,,60ff0285154e9a89d9116b02,61036df6e443c3e9aeab20c3,2021-07-30_04h12.10.585,Simcolourproject_2stim_asymm_v5,2020.2.10,Win32,60,61025ae37ef11b136ea224fe,,,,,,,,,2803,132.8000134,-56.80000728,1,0,0,response3disk,,5,36.80001199,-5.600006521,1,0,0,rectangle,36.80001199,-5.600006521,1,0,0,,,,,,,36.80001199,-5.600006521,1,0,0,,0,118,118,45,1,
,,,,,,,,,,,,,FF,,,,,,,,1.168,,,,,,,,,,,,,,,,,,,,,,60ff0285154e9a89d9116b02,61036df6e443c3e9aeab20c3,2021-07-30_04h12.10.585,Simcolourproject_2stim_asymm_v5,2020.2.10,Win32,60,61025ae37ef11b136ea224fe,,,,,,,,,3757,36.00001198,-88.80000776,1,0,0,response3disk,,4,18.40001172,-13.60000664,1,0,0,rectangle,18.40001172,-13.60000664,1,0,0,,,,,,,18.40001172,-13.60000664,1,0,0,,0,119,119,56,1,
,,,,,,,,,,,,,FF,,,,,,,,0.7008,,,,,,,,,,,,,,,,,,,,,,60ff0285154e9a89d9116b02,61036df6e443c3e9aeab20c3,2021-07-30_04h12.10.585,Simcolourproject_2stim_asymm_v5,2020.2.10,Win32,60,61025ae37ef11b136ea224fe,,,,,,,,,4205,-78.3999409,-43.20000708,1,0,0,response5disk,,2,-31.99998903,-6.400006533,1,0,0,rectangle,-31.99998903,-6.400006533,1,0,0,,,,,,,-31.99998903,-6.400006533,1,0,0,,0,120,120,118,1,
,,,,,,,,,,,,,FF,,,,,,,,0.5323,,,,,,,,,,,,,,,,,,,,,,60ff0285154e9a89d9116b02,61036df6e443c3e9aeab20c3,2021-07-30_04h12.10.585,Simcolourproject_2stim_asymm_v5,2020.2.10,Win32,60,61025ae37ef11b136ea224fe,,,,,,,,,2256,40.00001204,-92.00000781,1,0,0,response3disk,,4,-5.599988639,1.599993587,1,0,0,rectangle,-5.599988639,1.599993587,1,0,0,,,,,,,-5.599988639,1.599993587,1,0,0,,0,121,121,90,1,
,,,,,,,,,,,,,FF,,,,,,,,0.6173,,,,,,,,,,,,,,,,,,,,,,60ff0285154e9a89d9116b02,61036df6e443c3e9aeab20c3,2021-07-30_04h12.10.585,Simcolourproject_2stim_asymm_v5,2020.2.10,Win32,60,61025ae37ef11b136ea224fe,,,,,,,,,3157,-84.79998982,-31.2000069,1,0,0,response5disk,,2,-27.19998896,1.599993587,1,0,0,rectangle,-27.19998896,1.599993587,1,0,0,,,,,,,-27.19998896,1.599993587,1,0,0,,0,122,122,150,1,
,,,,,,,,,,,,,FF,,,,,,,,0.8176,,,,,,,,,,,,,,,,,,,,,,60ff0285154e9a89d9116b02,61036df6e443c3e9aeab20c3,2021-07-30_04h12.10.585,Simcolourproject_2stim_asymm_v5,2020.2.10,Win32,60,61025ae37ef11b136ea224fe,,,,,,,,,3325,107.200013,46.39999425,1,0,0,response1disk,,6,8.000011563,-2.400006473,1,0,0,rectangle,8.000011563,-2.400006473,1,0,0,,,,,,,8.000011563,-2.400006473,1,0,0,,0,123,123,66,1,
,,,,,,,,,,,,,FF,,,,,,,,1.7017,,,,,,,,,,,,,,,,,,,,,,60ff0285154e9a89d9116b02,61036df6e443c3e9aeab20c3,2021-07-30_04h12.10.585,Simcolourproject_2stim_asymm_v5,2020.2.10,Win32,60,61025ae37ef11b136ea224fe,,,,,,,,,1120,-60.79998946,-96.80000788,1,0,0,response5disk,,3,12.00001162,-12.00000662,1,0,0,rectangle,12.00001162,-12.00000662,1,0,0,,,,,,,12.00001162,-12.00000662,1,0,0,,0,124,124,140,1,
,,,,,,,,,,,,,FF,,,,,,,,0.8674,,,,,,,,,,,,,,,,,,,,,,60ff0285154e9a89d9116b02,61036df6e443c3e9aeab20c3,2021-07-30_04h12.10.585,Simcolourproject_2stim_asymm_v5,2020.2.10,Win32,60,61025ae37ef11b136ea224fe,,,,,,,,,3856,44.80001211,-99.20000792,1,0,0,response3disk,,4,8.000011563,-5.600006521,1,0,0,rectangle,8.000011563,-5.600006521,1,0,0,,,,,,,8.000011563,-5.600006521,1,0,0,,0,125,125,89,1,
,,,,,,,,,,,,,FF,,,,,,,,0.8493,,,,,,,,,,,,,,,,,,,,,,60ff0285154e9a89d9116b02,61036df6e443c3e9aeab20c3,2021-07-30_04h12.10.585,Simcolourproject_2stim_asymm_v5,2020.2.10,Win32,60,61025ae37ef11b136ea224fe,,,,,,,,,3666,-63.1999895,-102.400008,1,0,0,response5disk,,3,-8.799988687,-7.200006545,1,0,0,rectangle,-8.799988687,-7.200006545,1,0,0,,,,,,,-8.799988687,-7.200006545,1,0,0,,0,126,126,115,1,
,,,,,,,,,,,,,FF,,,,,,,,0.8025,,,,,,,,,,,,,,,,,,,,,,60ff0285154e9a89d9116b02,61036df6e443c3e9aeab20c3,2021-07-30_04h12.10.585,Simcolourproject_2stim_asymm_v5,2020.2.10,Win32,60,61025ae37ef11b136ea224fe,,,,,,,,,338,60.80001235,-99.20000792,1,0,0,response3disk,,4,30.4000119,-9.60000658,1,0,0,rectangle,30.4000119,-9.60000658,1,0,0,,,,,,,30.4000119,-9.60000658,1,0,0,,0,127,127,24,1,
,,,,,,,,,,,,,FF,,,,,,,,2.7696,,,,,,,,,,,,,,,,,,,,,,60ff0285154e9a89d9116b02,61036df6e443c3e9aeab20c3,2021-07-30_04h12.10.585,Simcolourproject_2stim_asymm_v5,2020.2.10,Win32,60,61025ae37ef11b136ea224fe,,,,,,,,,2262,101.600013,-66.40000743,1,0,0,response3disk,,5,32.80001193,-4.800006509,1,0,0,rectangle,32.80001193,-4.800006509,1,0,0,,,,,,,32.80001193,-4.800006509,1,0,0,,0,128,128,59,1,
,,,,,,,,,,,,,FF,,,,,,,,0.9689,,,,,,,,,,,,,,,,,,,,,,60ff0285154e9a89d9116b02,61036df6e443c3e9aeab20c3,2021-07-30_04h12.10.585,Simcolourproject_2stim_asymm_v5,2020.2.10,Win32,60,61025ae37ef11b136ea224fe,,,,,,,,,2448,126.4000133,-54.40000725,1,0,0,response3disk,,5,-2.399939764,-15.20000666,1,0,0,rectangle,-2.399939764,-15.20000666,1,0,0,,,,,,,-2.399939764,-15.20000666,1,0,0,,0,129,129,44,1,
,,,,,,,,,,,,,FF,,,,,,,,0.734,,,,,,,,,,,,,,,,,,,,,,60ff0285154e9a89d9116b02,61036df6e443c3e9aeab20c3,2021-07-30_04h12.10.585,Simcolourproject_2stim_asymm_v5,2020.2.10,Win32,60,61025ae37ef11b136ea224fe,,,,,,,,,1648,87.20001274,44.79999423,1,0,0,response1disk,,6,3.200011492,2.399993598,1,0,0,rectangle,3.200011492,2.399993598,1,0,0,,,,,,,3.200011492,2.399993598,1,0,0,,0,130,130,91,1,
,,,,,,,,,,,,,FF,,,,,,,,0.6509,,,,,,,,,,,,,,,,,,,,,,60ff0285154e9a89d9116b02,61036df6e443c3e9aeab20c3,2021-07-30_04h12.10.585,Simcolourproject_2stim_asymm_v5,2020.2.10,Win32,60,61025ae37ef11b136ea224fe,,,,,,,,,898,45.60006095,-89.6000566,1,0,0,response3disk,,4,2.40001148,3.999993622,1,0,0,rectangle,2.40001148,3.999993622,1,0,0,,,,,,,2.40001148,3.999993622,1,0,0,,0,131,131,14,1,
,,,,,,,,,,,,,FF,,,,,,,,1.0527,,,,,,,,,,,,,,,,,,,,,,60ff0285154e9a89d9116b02,61036df6e443c3e9aeab20c3,2021-07-30_04h12.10.585,Simcolourproject_2stim_asymm_v5,2020.2.10,Win32,60,61025ae37ef11b136ea224fe,,,,,,,,,3511,-56.7999894,-90.40000778,1,0,0,response5disk,,3,-12.79998875,1.599993587,1,0,0,rectangle,-12.79998875,1.599993587,1,0,0,,,,,,,-12.79998875,1.599993587,1,0,0,,0,132,132,64,1,
,,,,,,,,,,,,,FF,,,,,,,,0.7673,,,,,,,,,,,,,,,,,,,,,,60ff0285154e9a89d9116b02,61036df6e443c3e9aeab20c3,2021-07-30_04h12.10.585,Simcolourproject_2stim_asymm_v5,2020.2.10,Win32,60,61025ae37ef11b136ea224fe,,,,,,,,,2403,112.8000131,-63.20000738,1,0,0,response3disk,,5,34.40001196,-10.40000659,1,0,0,rectangle,34.40001196,-10.40000659,1,0,0,,,,,,,34.40001196,-10.40000659,1,0,0,,0,133,133,76,1,
,,,,,,,,,,,,,FF,,,,,,,,0.8675,,,,,,,,,,,,,,,,,,,,,,60ff0285154e9a89d9116b02,61036df6e443c3e9aeab20c3,2021-07-30_04h12.10.585,Simcolourproject_2stim_asymm_v5,2020.2.10,Win32,60,61025ae37ef11b136ea224fe,,,,,,,,,2651,-112.7999902,-56.00000727,1,0,0,response5disk,,2,-24.79998893,4.799993634,1,0,0,rectangle,-24.79998893,4.799993634,1,0,0,,,,,,,-24.79998893,4.799993634,1,0,0,,0,134,134,152,1,
,,,,,,,,,,,,,FF,,,,,,,,0.7351,,,,,,,,,,,,,,,,,,,,,,60ff0285154e9a89d9116b02,61036df6e443c3e9aeab20c3,2021-07-30_04h12.10.585,Simcolourproject_2stim_asymm_v5,2020.2.10,Win32,60,61025ae37ef11b136ea224fe,,,,,,,,,1531,108.8000131,-63.20000738,1,0,0,response3disk,,5,19.20001173,13.59999377,1,0,0,rectangle,19.20001173,13.59999377,1,0,0,,,,,,,19.20001173,13.59999377,1,0,0,,0,135,135,61,1,
,,,,,,,,,,,,,FF,,,,,,,,0.5188,,,,,,,,,,,,,,,,,,,,,,60ff0285154e9a89d9116b02,61036df6e443c3e9aeab20c3,2021-07-30_04h12.10.585,Simcolourproject_2stim_asymm_v5,2020.2.10,Win32,60,61025ae37ef11b136ea224fe,,,,,,,,,163,-83.1999898,-49.60000718,1,0,0,response5disk,,2,-7.999988675,-3.200006485,1,0,0,rectangle,-7.999988675,-3.200006485,1,0,0,,,,,,,-7.999988675,-3.200006485,1,0,0,,0,136,136,25,1,
,,,,,,,,,,,,,FF,,,,,,,,0.734,,,,,,,,,,,,,,,,,,,,,,60ff0285154e9a89d9116b02,61036df6e443c3e9aeab20c3,2021-07-30_04h12.10.585,Simcolourproject_2stim_asymm_v5,2020.2.10,Win32,60,61025ae37ef11b136ea224fe,,,,,,,,,3,-82.39994096,-46.40000713,1,0,0,response5disk,,2,13.60006047,-3.200006485,1,0,0,rectangle,13.60006047,-3.200006485,1,0,0,,,,,,,13.60006047,-3.200006485,1,0,0,,0,137,137,72,1,
,,,,,,,,,,,,,FF,,,,,,,,0.7176,,,,,,,,,,,,,,,,,,,,,,60ff0285154e9a89d9116b02,61036df6e443c3e9aeab20c3,2021-07-30_04h12.10.585,Simcolourproject_2stim_asymm_v5,2020.2.10,Win32,60,61025ae37ef11b136ea224fe,,,,,,,,,997,100.8000129,-63.20000738,1,0,0,response3disk,,5,28.80001187,-8.800006568,1,0,0,rectangle,28.80001187,-8.800006568,1,0,0,,,,,,,28.80001187,-8.800006568,1,0,0,,0,138,138,8,1,
,,,,,,,,,,,,,FF,,,,,,,,1.0846,,,,,,,,,,,,,,,,,,,,,,60ff0285154e9a89d9116b02,61036df6e443c3e9aeab20c3,2021-07-30_04h12.10.585,Simcolourproject_2stim_asymm_v5,2020.2.10,Win32,60,61025ae37ef11b136ea224fe,,,,,,,,,2310,32.80001193,-91.2000078,1,0,0,response3disk,,4,-1.59998858,3.19999361,1,0,0,rectangle,-1.59998858,3.19999361,1,0,0,,,,,,,-1.59998858,3.19999361,1,0,0,,0,139,139,97,1,
,,,,,,,,,,,,,FF,,,,,,,,0.5173,,,,,,,,,,,,,,,,,,,,,,60ff0285154e9a89d9116b02,61036df6e443c3e9aeab20c3,2021-07-30_04h12.10.585,Simcolourproject_2stim_asymm_v5,2020.2.10,Win32,60,61025ae37ef11b136ea224fe,,,,,,,,,3842,-47.99998927,-119.2000082,1,0,0,response5disk,,3,-1.59998858,-11.2000066,1,0,0,rectangle,-1.59998858,-11.2000066,1,0,0,,,,,,,-1.59998858,-11.2000066,1,0,0,,0,140,140,32,1,
,,,,,,,,,,,,,FF,,,,,,,,0.4838,,,,,,,,,,,,,,,,,,,,,,60ff0285154e9a89d9116b02,61036df6e443c3e9aeab20c3,2021-07-30_04h12.10.585,Simcolourproject_2stim_asymm_v5,2020.2.10,Win32,60,61025ae37ef11b136ea224fe,,,,,,,,,265,-101.5999901,-42.40000707,1,0,0,response5disk,,2,-20.79998887,-3.200006485,1,0,0,rectangle,-20.79998887,-3.200006485,1,0,0,,,,,,,-20.79998887,-3.200006485,1,0,0,,0,141,141,94,1,
,,,,,,,,,,,,,FF,,,,,,,,0.7341,,,,,,,,,,,,,,,,,,,,,,60ff0285154e9a89d9116b02,61036df6e443c3e9aeab20c3,2021-07-30_04h12.10.585,Simcolourproject_2stim_asymm_v5,2020.2.10,Win32,60,61025ae37ef11b136ea224fe,,,,,,,,,2528,108.8000131,63.19997009,1,0,0,response1disk,,6,20.00001174,1.599993587,1,0,0,rectangle,123.2000133,38.39999413,1,0,0,response1disk_3,TRUE,6,6,"[113,144,23,167,251,266,218,150,239,314,301,174,315,71,230,279,1,226,66,143]",2.3859,-12.79998875,7.999993682,1,0,0,rectangle,0,142,142,46,1,
,,,,,,,,,,,,,FF,,,,,,,,0.7664,,,,,,,,,,,,,,,,,,,,,,60ff0285154e9a89d9116b02,61036df6e443c3e9aeab20c3,2021-07-30_04h12.10.585,Simcolourproject_2stim_asymm_v5,2020.2.10,Win32,60,61025ae37ef11b136ea224fe,,,,,,,,,2233,-71.19998962,66.39999455,1,0,0,response7disk,,1,1.600060296,-8.800006568,1,0,0,rectangle,-51.99998933,110.3999952,1,0,0,response7disk_3,TRUE,0,0,"[113,144,23,167,251,266,218,150,239,314,301,174,315,71,230,279,1,226,66,143]",1.3347,20.00001174,-11.2000066,1,0,0,rectangle,0,143,143,48,1,
,,,,,,,,,,,,,FF,,,,,,,,0.8993,,,,,,,,,,,,,,,,,,,,,,60ff0285154e9a89d9116b02,61036df6e443c3e9aeab20c3,2021-07-30_04h12.10.585,Simcolourproject_2stim_asymm_v5,2020.2.10,Win32,60,61025ae37ef11b136ea224fe,,,,,,,,,3073,46.40001214,-89.6000566,1,0,0,response3disk,,4,-1.59998858,-2.400006473,1,0,0,rectangle,-1.59998858,-2.400006473,1,0,0,,,,,,,-1.59998858,-2.400006473,1,0,0,,0,144,144,51,1,
,,,,,,,,,,,,,FF,,,,,,,,0.652,,,,,,,,,,,,,,,,,,,,,,60ff0285154e9a89d9116b02,61036df6e443c3e9aeab20c3,2021-07-30_04h12.10.585,Simcolourproject_2stim_asymm_v5,2020.2.10,Win32,60,61025ae37ef11b136ea224fe,,,,,,,,,2960,-55.99998939,-85.60005654,1,0,0,response5disk,,3,-10.39993988,-4.000006497,1,0,0,rectangle,-10.39993988,-4.000006497,1,0,0,,,,,,,-10.39993988,-4.000006497,1,0,0,,0,145,145,9,1,
,,,,,,,,,,,,,FF,,,,,,,,0.5522,,,,,,,,,,,,,,,,,,,,,,60ff0285154e9a89d9116b02,61036df6e443c3e9aeab20c3,2021-07-30_04h12.10.585,Simcolourproject_2stim_asymm_v5,2020.2.10,Win32,60,61025ae37ef11b136ea224fe,,,,,,,,,2678,-67.99998957,-44.00000709,1,0,0,response5disk,,2,-0.799988568,3.999993622,1,0,0,rectangle,-0.799988568,3.999993622,1,0,0,,,,,,,-0.799988568,3.999993622,1,0,0,,0,146,146,120,1,
,,,,,,,,,,,,,FF,,,,,,,,0.4674,,,,,,,,,,,,,,,,,,,,,,60ff0285154e9a89d9116b02,61036df6e443c3e9aeab20c3,2021-07-30_04h12.10.585,Simcolourproject_2stim_asymm_v5,2020.2.10,Win32,60,61025ae37ef11b136ea224fe,,,,,,,,,20,80.00001264,-48.80000716,1,0,0,response3disk,,5,11.20001161,11.19999373,1,0,0,rectangle,11.20001161,11.19999373,1,0,0,,,,,,,11.20001161,11.19999373,1,0,0,,0,147,147,73,1,
,,,,,,,,,,,,,FF,,,,,,,,1.3695,,,,,,,,,,,,,,,,,,,,,,60ff0285154e9a89d9116b02,61036df6e443c3e9aeab20c3,2021-07-30_04h12.10.585,Simcolourproject_2stim_asymm_v5,2020.2.10,Win32,60,61025ae37ef11b136ea224fe,,,,,,,,,4328,-111.1999902,-55.20000726,1,0,0,response5disk,,2,-11.99998873,-3.200006485,1,0,0,rectangle,-11.99998873,-3.200006485,1,0,0,,,,,,,-11.99998873,-3.200006485,1,0,0,,0,148,148,7,1,
,,,,,,,,,,,,,FF,,,,,,,,1.0691,,,,,,,,,,,,,,,,,,,,,,60ff0285154e9a89d9116b02,61036df6e443c3e9aeab20c3,2021-07-30_04h12.10.585,Simcolourproject_2stim_asymm_v5,2020.2.10,Win32,60,61025ae37ef11b136ea224fe,,,,,,,,,3681,99.20001292,59.19997003,1,0,0,response1disk,,6,6.400011539,-6.4373E-06,1,0,0,rectangle,-35.19998908,95.19997057,1,0,0,response7disk_3,TRUE,0,0,"[113,144,23,167,251,266,218,150,239,314,301,174,315,71,230,279,1,226,66,143]",1.1329,0.800011456,-4.800006509,1,0,0,rectangle,0,149,149,43,1,
,,,,,,,,,,,,,FF,,,,,,,,0.5353,,,,,,,,,,,,,,,,,,,,,,60ff0285154e9a89d9116b02,61036df6e443c3e9aeab20c3,2021-07-30_04h12.10.585,Simcolourproject_2stim_asymm_v5,2020.2.10,Win32,60,61025ae37ef11b136ea224fe,,,,,,,,,3547,-64.79998952,-42.40000707,1,0,0,response5disk,,2,26.40001184,-15.20000666,1,0,0,rectangle,26.40001184,-15.20000666,1,0,0,,,,,,,26.40001184,-15.20000666,1,0,0,,0,150,150,159,1,
,,,,,,,,,,,,,FF,,,,,,,,0.75,,,,,,,,,,,,,,,,,,,,,,60ff0285154e9a89d9116b02,61036df6e443c3e9aeab20c3,2021-07-30_04h12.10.585,Simcolourproject_2stim_asymm_v5,2020.2.10,Win32,60,61025ae37ef11b136ea224fe,,,,,,,,,4312,119.2000132,40.79999417,1,0,0,response1disk,,6,12.80001163,5.599993646,1,0,0,rectangle,12.80001163,5.599993646,1,0,0,,,,,,,12.80001163,5.599993646,1,0,0,,0,151,151,153,1,
,,,,,,,,,,,,,FF,,,,,,,,6.8237,,,,,,,,,,,,,,,,,,,,,,60ff0285154e9a89d9116b02,61036df6e443c3e9aeab20c3,2021-07-30_04h12.10.585,Simcolourproject_2stim_asymm_v5,2020.2.10,Win32,60,61025ae37ef11b136ea224fe,,,,,,,,,1642,65.60001242,-39.20000702,1,0,0,response3disk,,5,1.14441E-05,-6.400006533,1,0,0,rectangle,1.14441E-05,-6.400006533,1,0,0,,,,,,,1.14441E-05,-6.400006533,1,0,0,,0,152,152,42,1,
,,,,,,,,,,,,,FF,,,,,,,,2.1522,,,,,,,,,,,,,,,,,,,,,,60ff0285154e9a89d9116b02,61036df6e443c3e9aeab20c3,2021-07-30_04h12.10.585,Simcolourproject_2stim_asymm_v5,2020.2.10,Win32,60,61025ae37ef11b136ea224fe,,,,,,,,,2559,65.60001242,27.19996955,1,0,0,response1disk,,6,-8.799988687,0.799993575,1,0,0,rectangle,-8.799988687,0.799993575,1,0,0,,,,,,,-8.799988687,0.799993575,1,0,0,,0,153,153,108,1,
,,,,,,,,,,,,,FF,,,,,,,,0.9511,,,,,,,,,,,,,,,,,,,,,,60ff0285154e9a89d9116b02,61036df6e443c3e9aeab20c3,2021-07-30_04h12.10.585,Simcolourproject_2stim_asymm_v5,2020.2.10,Win32,60,61025ae37ef11b136ea224fe,,,,,,,,,3336,-50.39994048,103.9999951,1,0,0,response7disk,,0,-5.599988639,-4.800006509,1,0,0,rectangle,-5.599988639,-4.800006509,1,0,0,,,,,,,-5.599988639,-4.800006509,1,0,0,,0,154,154,21,1,
,,,,,,,,,,,,,FF,,,,,,,,0.5156,,,,,,,,,,,,,,,,,,,,,,60ff0285154e9a89d9116b02,61036df6e443c3e9aeab20c3,2021-07-30_04h12.10.585,Simcolourproject_2stim_asymm_v5,2020.2.10,Win32,60,61025ae37ef11b136ea224fe,,,,,,,,,3668,-40.79998916,100.7999951,1,0,0,response7disk,,0,-2.399939764,7.999993682,1,0,0,rectangle,-2.399939764,7.999993682,1,0,0,,,,,,,-2.399939764,7.999993682,1,0,0,,0,155,155,117,1,
,,,,,,,,,,,,,FF,,,,,,,,0.8358,,,,,,,,,,,,,,,,,,,,,,60ff0285154e9a89d9116b02,61036df6e443c3e9aeab20c3,2021-07-30_04h12.10.585,Simcolourproject_2stim_asymm_v5,2020.2.10,Win32,60,61025ae37ef11b136ea224fe,,,,,,,,,3165,111.2000131,-45.60000712,1,0,0,response3disk,,5,9.600060415,2.399993598,1,0,0,rectangle,9.600060415,2.399993598,1,0,0,,,,,,,9.600060415,2.399993598,1,0,0,,0,156,156,68,1,
,,,,,,,,,,,,,FF,,,,,,,,1.2169,,,,,,,,,,,,,,,,,,,,,,60ff0285154e9a89d9116b02,61036df6e443c3e9aeab20c3,2021-07-30_04h12.10.585,Simcolourproject_2stim_asymm_v5,2020.2.10,Win32,60,61025ae37ef11b136ea224fe,,,,,,,,,2084,-101.5999901,-68.80000746,1,0,0,response5disk,,2,-11.19998872,-5.600006521,1,0,0,rectangle,-11.19998872,-5.600006521,1,0,0,,,,,,,-11.19998872,-5.600006521,1,0,0,,0,157,157,87,1,
,,,,,,,,,,,,,FF,,,,,,,,0.6843,,,,,,,,,,,,,,,,,,,,,,60ff0285154e9a89d9116b02,61036df6e443c3e9aeab20c3,2021-07-30_04h12.10.585,Simcolourproject_2stim_asymm_v5,2020.2.10,Win32,60,61025ae37ef11b136ea224fe,,,,,,,,,3922,83.20001268,-60.00000733,1,0,0,response3disk,,5,28.00001186,-8.800006568,1,0,0,rectangle,28.00001186,-8.800006568,1,0,0,,,,,,,28.00001186,-8.800006568,1,0,0,,0,158,158,40,1,
,,,,,,,,,,,,,FF,,,,,,,,0.8688,,,,,,,,,,,,,,,,,,,,,,60ff0285154e9a89d9116b02,61036df6e443c3e9aeab20c3,2021-07-30_04h12.10.585,Simcolourproject_2stim_asymm_v5,2020.2.10,Win32,60,61025ae37ef11b136ea224fe,,,,,,,,,3235,-51.19998932,-78.40000761,1,0,0,response5disk,,3,-27.99998897,-7.200006545,1,0,0,rectangle,-27.99998897,-7.200006545,1,0,0,,,,,,,-27.99998897,-7.200006545,1,0,0,,0,159,159,50,1,
,,,,,,,,,,,,,FF,,,,,,,,0.8675,,,,,,,,,,,,,,,,,,,,,,60ff0285154e9a89d9116b02,61036df6e443c3e9aeab20c3,2021-07-30_04h12.10.585,Simcolourproject_2stim_asymm_v5,2020.2.10,Win32,60,61025ae37ef11b136ea224fe,,,,,,,,,718,-72.79998964,-47.20000714,1,0,0,response5disk,,2,-3.999988616,-2.400006473,1,0,0,rectangle,-3.999988616,-2.400006473,1,0,0,,,,,,,-3.999988616,-2.400006473,1,0,0,,1,0,160,64,1,
,,,,,,,,,,,,,FF,,,,,,,,0.8998,,,,,,,,,,,,,,,,,,,,,,60ff0285154e9a89d9116b02,61036df6e443c3e9aeab20c3,2021-07-30_04h12.10.585,Simcolourproject_2stim_asymm_v5,2020.2.10,Win32,60,61025ae37ef11b136ea224fe,,,,,,,,,3896,-117.5999903,-58.40000731,1,0,0,response5disk,,2,-11.19998872,1.599993587,1,0,0,rectangle,-11.19998872,1.599993587,1,0,0,,,,,,,-11.19998872,1.599993587,1,0,0,,1,1,161,154,1,
,,,,,,,,,,,,,FF,,,,,,,,0.584,,,,,,,,,,,,,,,,,,,,,,60ff0285154e9a89d9116b02,61036df6e443c3e9aeab20c3,2021-07-30_04h12.10.585,Simcolourproject_2stim_asymm_v5,2020.2.10,Win32,60,61025ae37ef11b136ea224fe,,,,,,,,,2417,120.0000132,-55.20000726,1,0,0,response3disk,,5,14.40001166,-3.200006485,1,0,0,rectangle,14.40001166,-3.200006485,1,0,0,,,,,,,14.40001166,-3.200006485,1,0,0,,1,2,162,12,1,
,,,,,,,,,,,,,FF,,,,,,,,0.6506,,,,,,,,,,,,,,,,,,,,,,60ff0285154e9a89d9116b02,61036df6e443c3e9aeab20c3,2021-07-30_04h12.10.585,Simcolourproject_2stim_asymm_v5,2020.2.10,Win32,60,61025ae37ef11b136ea224fe,,,,,,,,,478,89.60001278,40.79999417,1,0,0,response1disk,,6,-11.99998873,11.19999373,1,0,0,rectangle,-11.99998873,11.19999373,1,0,0,,,,,,,-11.99998873,11.19999373,1,0,0,,1,3,163,23,1,
,,,,,,,,,,,,,FF,,,,,,,,1.0012,,,,,,,,,,,,,,,,,,,,,,60ff0285154e9a89d9116b02,61036df6e443c3e9aeab20c3,2021-07-30_04h12.10.585,Simcolourproject_2stim_asymm_v5,2020.2.10,Win32,60,61025ae37ef11b136ea224fe,,,,,,,,,3118,48.00001216,67.99999458,1,0,0,response1disk,,7,18.40001172,12.79999375,1,0,0,rectangle,18.40001172,12.79999375,1,0,0,,,,,,,18.40001172,12.79999375,1,0,0,,1,4,164,41,1,
,,,,,,,,,,,,,FF,,,,,,,,0.7509,,,,,,,,,,,,,,,,,,,,,,60ff0285154e9a89d9116b02,61036df6e443c3e9aeab20c3,2021-07-30_04h12.10.585,Simcolourproject_2stim_asymm_v5,2020.2.10,Win32,60,61025ae37ef11b136ea224fe,,,,,,,,,1384,-41.59998918,-89.6000566,1,0,0,response5disk,,3,-18.39994,-7.200006545,1,0,0,rectangle,-18.39994,-7.200006545,1,0,0,,,,,,,-18.39994,-7.200006545,1,0,0,,1,5,165,99,1,
,,,,,,,,,,,,,FF,,,,,,,,0.5342,,,,,,,,,,,,,,,,,,,,,,60ff0285154e9a89d9116b02,61036df6e443c3e9aeab20c3,2021-07-30_04h12.10.585,Simcolourproject_2stim_asymm_v5,2020.2.10,Win32,60,61025ae37ef11b136ea224fe,,,,,,,,,1195,100.8000129,-39.20000702,1,0,0,response3disk,,5,21.60006059,-9.60000658,1,0,0,rectangle,107.200013,-55.20000726,1,0,0,response3disk_3,TRUE,5,5,"[113,144,23,167,251,266,218,150,239,314,301,174,315,71,230,279,1,226,66,143]",2.134,17.60006053,1.599993587,1,0,0,rectangle,1,6,166,31,1,
,,,,,,,,,,,,,FF,,,,,,,,0.9343,,,,,,,,,,,,,,,,,,,,,,60ff0285154e9a89d9116b02,61036df6e443c3e9aeab20c3,2021-07-30_04h12.10.585,Simcolourproject_2stim_asymm_v5,2020.2.10,Win32,60,61025ae37ef11b136ea224fe,,,,,,,,,1975,91.2000128,30.39999402,1,0,0,response1disk,,6,15.20001167,-8.000006557,1,0,0,rectangle,15.20001167,-8.000006557,1,0,0,,,,,,,15.20001167,-8.000006557,1,0,0,,1,7,167,101,1,
,,,,,,,,,,,,,FF,,,,,,,,0.7188,,,,,,,,,,,,,,,,,,,,,,60ff0285154e9a89d9116b02,61036df6e443c3e9aeab20c3,2021-07-30_04h12.10.585,Simcolourproject_2stim_asymm_v5,2020.2.10,Win32,60,61025ae37ef11b136ea224fe,,,,,,,,,1750,-75.19998968,-53.60000724,1,0,0,response5disk,,2,-3.999988616,-3.200006485,1,0,0,rectangle,-3.999988616,-3.200006485,1,0,0,,,,,,,-3.999988616,-3.200006485,1,0,0,,1,8,168,105,1,
,,,,,,,,,,,,,FF,,,,,,,,0.5506,,,,,,,,,,,,,,,,,,,,,,60ff0285154e9a89d9116b02,61036df6e443c3e9aeab20c3,2021-07-30_04h12.10.585,Simcolourproject_2stim_asymm_v5,2020.2.10,Win32,60,61025ae37ef11b136ea224fe,,,,,,,,,3414,108.8000131,-48.00000715,1,0,0,response3disk,,5,20.80001175,-5.600006521,1,0,0,rectangle,20.80001175,-5.600006521,1,0,0,,,,,,,20.80001175,-5.600006521,1,0,0,,1,9,169,159,1,
,,,,,,,,,,,,,FF,,,,,,,,0.517,,,,,,,,,,,,,,,,,,,,,,60ff0285154e9a89d9116b02,61036df6e443c3e9aeab20c3,2021-07-30_04h12.10.585,Simcolourproject_2stim_asymm_v5,2020.2.10,Win32,60,61025ae37ef11b136ea224fe,,,,,,,,,3497,94.40001285,32.79999405,1,0,0,response1disk,,6,-9.599988699,7.999993682,1,0,0,rectangle,-9.599988699,7.999993682,1,0,0,,,,,,,-9.599988699,7.999993682,1,0,0,,1,10,170,26,1,
,,,,,,,,,,,,,FF,,,,,,,,0.6659,,,,,,,,,,,,,,,,,,,,,,60ff0285154e9a89d9116b02,61036df6e443c3e9aeab20c3,2021-07-30_04h12.10.585,Simcolourproject_2stim_asymm_v5,2020.2.10,Win32,60,61025ae37ef11b136ea224fe,,,,,,,,,2398,82.40001267,-45.60000712,1,0,0,response3disk,,5,-34.39994024,5.599993646,1,0,0,rectangle,-34.39994024,5.599993646,1,0,0,,,,,,,-34.39994024,5.599993646,1,0,0,,1,11,171,59,1,
,,,,,,,,,,,,,FF,,,,,,,,0.8024,,,,,,,,,,,,,,,,,,,,,,60ff0285154e9a89d9116b02,61036df6e443c3e9aeab20c3,2021-07-30_04h12.10.585,Simcolourproject_2stim_asymm_v5,2020.2.10,Win32,60,61025ae37ef11b136ea224fe,,,,,,,,,2139,42.40001208,78.39999473,1,0,0,response1disk,,7,-0.799988568,9.599993706,1,0,0,rectangle,-0.799988568,9.599993706,1,0,0,,,,,,,-0.799988568,9.599993706,1,0,0,,1,12,172,85,1,
,,,,,,,,,,,,,FF,,,,,,,,0.7007,,,,,,,,,,,,,,,,,,,,,,60ff0285154e9a89d9116b02,61036df6e443c3e9aeab20c3,2021-07-30_04h12.10.585,Simcolourproject_2stim_asymm_v5,2020.2.10,Win32,60,61025ae37ef11b136ea224fe,,,,,,,,,1721,89.60001278,39.99999416,1,0,0,response1disk,,6,-27.99998897,-4.800006509,1,0,0,rectangle,114.4000131,54.39999437,1,0,0,response1disk_3,TRUE,6,6,"[113,144,23,167,251,266,218,150,239,314,301,174,315,71,230,279,1,226,66,143]",1.418,-15.19998878,-6.400006533,1,0,0,rectangle,1,13,173,110,1,
,,,,,,,,,,,,,FF,,,,,,,,0.6353,,,,,,,,,,,,,,,,,,,,,,60ff0285154e9a89d9116b02,61036df6e443c3e9aeab20c3,2021-07-30_04h12.10.585,Simcolourproject_2stim_asymm_v5,2020.2.10,Win32,60,61025ae37ef11b136ea224fe,,,,,,,,,3725,95.20001286,-48.80000716,1,0,0,response3disk,,5,-35.99998909,-6.4373E-06,1,0,0,rectangle,-35.99998909,-6.4373E-06,1,0,0,,,,,,,-35.99998909,-6.4373E-06,1,0,0,,1,14,174,144,1,
,,,,,,,,,,,,,FF,,,,,,,,0.6007,,,,,,,,,,,,,,,,,,,,,,60ff0285154e9a89d9116b02,61036df6e443c3e9aeab20c3,2021-07-30_04h12.10.585,Simcolourproject_2stim_asymm_v5,2020.2.10,Win32,60,61025ae37ef11b136ea224fe,,,,,,,,,2005,112.0000131,45.59999424,1,0,0,response1disk,,6,-5.599988639,12.79999375,1,0,0,rectangle,-5.599988639,12.79999375,1,0,0,,,,,,,-5.599988639,12.79999375,1,0,0,,1,15,175,74,1,
,,,,,,,,,,,,,FF,,,,,,,,1.0844,,,,,,,,,,,,,,,,,,,,,,60ff0285154e9a89d9116b02,61036df6e443c3e9aeab20c3,2021-07-30_04h12.10.585,Simcolourproject_2stim_asymm_v5,2020.2.10,Win32,60,61025ae37ef11b136ea224fe,,,,,,,,,199,49.60006101,87.99999487,1,0,0,response1disk,,7,16.80001169,-7.200006545,1,0,0,rectangle,16.80001169,-7.200006545,1,0,0,,,,,,,16.80001169,-7.200006545,1,0,0,,1,16,176,136,1,
,,,,,,,,,,,,,FF,,,,,,,,1.6184,,,,,,,,,,,,,,,,,,,,,,60ff0285154e9a89d9116b02,61036df6e443c3e9aeab20c3,2021-07-30_04h12.10.585,Simcolourproject_2stim_asymm_v5,2020.2.10,Win32,60,61025ae37ef11b136ea224fe,,,,,,,,,3950,66.40001243,-88.00000775,1,0,0,response3disk,,4,8.000011563,-13.60000664,1,0,0,rectangle,8.000011563,-13.60000664,1,0,0,,,,,,,8.000011563,-13.60000664,1,0,0,,1,17,177,17,1,
,,,,,,,,,,,,,FF,,,,,,,,0.6853,,,,,,,,,,,,,,,,,,,,,,60ff0285154e9a89d9116b02,61036df6e443c3e9aeab20c3,2021-07-30_04h12.10.585,Simcolourproject_2stim_asymm_v5,2020.2.10,Win32,60,61025ae37ef11b136ea224fe,,,,,,,,,4154,-39.19998914,-85.60005654,1,0,0,response5disk,,3,8.800011575,-2.400006473,1,0,0,rectangle,8.800011575,-2.400006473,1,0,0,,,,,,,8.800011575,-2.400006473,1,0,0,,1,18,178,88,1,
,,,,,,,,,,,,,FF,,,,,,,,0.8034,,,,,,,,,,,,,,,,,,,,,,60ff0285154e9a89d9116b02,61036df6e443c3e9aeab20c3,2021-07-30_04h12.10.585,Simcolourproject_2stim_asymm_v5,2020.2.10,Win32,60,61025ae37ef11b136ea224fe,,,,,,,,,2475,-51.19998932,-74.40000755,1,0,0,response5disk,,3,-0.799988568,11.99999374,1,0,0,rectangle,-0.799988568,11.99999374,1,0,0,,,,,,,-0.799988568,11.99999374,1,0,0,,1,19,179,1,1,
,,,,,,,,,,,,,FF,,,,,,,,0.7022,,,,,,,,,,,,,,,,,,,,,,60ff0285154e9a89d9116b02,61036df6e443c3e9aeab20c3,2021-07-30_04h12.10.585,Simcolourproject_2stim_asymm_v5,2020.2.10,Win32,60,61025ae37ef11b136ea224fe,,,,,,,,,1868,95.20001286,-35.20000696,1,0,0,response3disk,,5,15.20001167,7.19999367,1,0,0,rectangle,15.20001167,7.19999367,1,0,0,,,,,,,15.20001167,7.19999367,1,0,0,,1,20,180,93,1,
,,,,,,,,,,,,,FF,,,,,,,,0.7342,,,,,,,,,,,,,,,,,,,,,,60ff0285154e9a89d9116b02,61036df6e443c3e9aeab20c3,2021-07-30_04h12.10.585,Simcolourproject_2stim_asymm_v5,2020.2.10,Win32,60,61025ae37ef11b136ea224fe,,,,,,,,,823,41.60006089,-74.40000755,1,0,0,response3disk,,4,13.60006047,-5.600006521,1,0,0,rectangle,13.60006047,-5.600006521,1,0,0,,,,,,,13.60006047,-5.600006521,1,0,0,,1,21,181,28,1,
,,,,,,,,,,,,,FF,,,,,,,,1.4195,,,,,,,,,,,,,,,,,,,,,,60ff0285154e9a89d9116b02,61036df6e443c3e9aeab20c3,2021-07-30_04h12.10.585,Simcolourproject_2stim_asymm_v5,2020.2.10,Win32,60,61025ae37ef11b136ea224fe,,,,,,,,,1640,117.6000132,44.79999423,1,0,0,response1disk,,6,19.20001173,4.799993634,1,0,0,rectangle,19.20001173,4.799993634,1,0,0,,,,,,,19.20001173,4.799993634,1,0,0,,1,22,182,130,1,
,,,,,,,,,,,,,FF,,,,,,,,0.7009,,,,,,,,,,,,,,,,,,,,,,60ff0285154e9a89d9116b02,61036df6e443c3e9aeab20c3,2021-07-30_04h12.10.585,Simcolourproject_2stim_asymm_v5,2020.2.10,Win32,60,61025ae37ef11b136ea224fe,,,,,,,,,1766,-50.39994048,-87.20000774,1,0,0,response5disk,,3,2.40001148,-4.800006509,1,0,0,rectangle,2.40001148,-4.800006509,1,0,0,,,,,,,2.40001148,-4.800006509,1,0,0,,1,23,183,2,1,
,,,,,,,,,,,,,FF,,,,,,,,0.801,,,,,,,,,,,,,,,,,,,,,,60ff0285154e9a89d9116b02,61036df6e443c3e9aeab20c3,2021-07-30_04h12.10.585,Simcolourproject_2stim_asymm_v5,2020.2.10,Win32,60,61025ae37ef11b136ea224fe,,,,,,,,,417,33.60006077,-68.00000745,1,0,0,response3disk,,4,20.80001175,11.99999374,1,0,0,rectangle,20.80001175,11.99999374,1,0,0,,,,,,,20.80001175,11.99999374,1,0,0,,1,24,184,108,1,
,,,,,,,,,,,,,FF,,,,,,,,1.3025,,,,,,,,,,,,,,,,,,,,,,60ff0285154e9a89d9116b02,61036df6e443c3e9aeab20c3,2021-07-30_04h12.10.585,Simcolourproject_2stim_asymm_v5,2020.2.10,Win32,60,61025ae37ef11b136ea224fe,,,,,,,,,1724,-71.99998963,-56.80000728,1,0,0,response5disk,,2,-24.79998893,-6.4373E-06,1,0,0,rectangle,-24.79998893,-6.4373E-06,1,0,0,,,,,,,-24.79998893,-6.4373E-06,1,0,0,,1,25,185,82,1,
,,,,,,,,,,,,,FF,,,,,,,,0.783,,,,,,,,,,,,,,,,,,,,,,60ff0285154e9a89d9116b02,61036df6e443c3e9aeab20c3,2021-07-30_04h12.10.585,Simcolourproject_2stim_asymm_v5,2020.2.10,Win32,60,61025ae37ef11b136ea224fe,,,,,,,,,1503,-35.19998908,-60.00000733,1,0,0,response5disk,,3,3.200011492,4.799993634,1,0,0,rectangle,3.200011492,4.799993634,1,0,0,,,,,,,3.200011492,4.799993634,1,0,0,,1,26,186,10,1,
,,,,,,,,,,,,,FF,,,,,,,,0.7689,,,,,,,,,,,,,,,,,,,,,,60ff0285154e9a89d9116b02,61036df6e443c3e9aeab20c3,2021-07-30_04h12.10.585,Simcolourproject_2stim_asymm_v5,2020.2.10,Win32,60,61025ae37ef11b136ea224fe,,,,,,,,,1173,-65.59998953,-39.20000702,1,0,0,response5disk,,2,2.40001148,-0.800006449,1,0,0,rectangle,2.40001148,-0.800006449,1,0,0,,,,,,,2.40001148,-0.800006449,1,0,0,,1,27,187,153,1,
,,,,,,,,,,,,,FF,,,,,,,,1.1028,,,,,,,,,,,,,,,,,,,,,,60ff0285154e9a89d9116b02,61036df6e443c3e9aeab20c3,2021-07-30_04h12.10.585,Simcolourproject_2stim_asymm_v5,2020.2.10,Win32,60,61025ae37ef11b136ea224fe,,,,,,,,,1118,56.80001229,-70.40000749,1,0,0,response3disk,,4,12.00001162,-7.200006545,1,0,0,rectangle,12.00001162,-7.200006545,1,0,0,,,,,,,12.00001162,-7.200006545,1,0,0,,1,28,188,83,1,
,,,,,,,,,,,,,FF,,,,,,,,0.9844,,,,,,,,,,,,,,,,,,,,,,60ff0285154e9a89d9116b02,61036df6e443c3e9aeab20c3,2021-07-30_04h12.10.585,Simcolourproject_2stim_asymm_v5,2020.2.10,Win32,60,61025ae37ef11b136ea224fe,,,,,,,,,2736,-77.59998971,-47.20000714,1,0,0,response5disk,,2,2.40001148,-9.60000658,1,0,0,rectangle,2.40001148,-9.60000658,1,0,0,,,,,,,2.40001148,-9.60000658,1,0,0,,1,29,189,49,1,
,,,,,,,,,,,,,FF,,,,,,,,0.8833,,,,,,,,,,,,,,,,,,,,,,60ff0285154e9a89d9116b02,61036df6e443c3e9aeab20c3,2021-07-30_04h12.10.585,Simcolourproject_2stim_asymm_v5,2020.2.10,Win32,60,61025ae37ef11b136ea224fe,,,,,,,,,1987,-43.99998921,-64.00000739,1,0,0,response5disk,,3,5.600060356,-16.00000668,1,0,0,rectangle,5.600060356,-16.00000668,1,0,0,,,,,,,5.600060356,-16.00000668,1,0,0,,1,30,190,123,1,
,,,,,,,,,,,,,FF,,,,,,,,1.0027,,,,,,,,,,,,,,,,,,,,,,60ff0285154e9a89d9116b02,61036df6e443c3e9aeab20c3,2021-07-30_04h12.10.585,Simcolourproject_2stim_asymm_v5,2020.2.10,Win32,60,61025ae37ef11b136ea224fe,,,,,,,,,4249,98.40001291,41.59999418,1,0,0,response1disk,,6,12.00001162,3.999993622,1,0,0,rectangle,12.00001162,3.999993622,1,0,0,,,,,,,12.00001162,3.999993622,1,0,0,,1,31,191,103,1,
,,,,,,,,,,,,,FF,,,,,,,,0.8177,,,,,,,,,,,,,,,,,,,,,,60ff0285154e9a89d9116b02,61036df6e443c3e9aeab20c3,2021-07-30_04h12.10.585,Simcolourproject_2stim_asymm_v5,2020.2.10,Win32,60,61025ae37ef11b136ea224fe,,,,,,,,,3532,88.80001277,-46.40000713,1,0,0,response3disk,,5,13.60006047,-5.600006521,1,0,0,rectangle,13.60006047,-5.600006521,1,0,0,,,,,,,13.60006047,-5.600006521,1,0,0,,1,32,192,119,1,
,,,,,,,,,,,,,FF,,,,,,,,1.2668,,,,,,,,,,,,,,,,,,,,,,60ff0285154e9a89d9116b02,61036df6e443c3e9aeab20c3,2021-07-30_04h12.10.585,Simcolourproject_2stim_asymm_v5,2020.2.10,Win32,60,61025ae37ef11b136ea224fe,,,,,,,,,1663,-21.59998888,-79.20000762,1,0,0,response5disk,,3,-2.399939764,-16.00000668,1,0,0,rectangle,-2.399939764,-16.00000668,1,0,0,,,,,,,-2.399939764,-16.00000668,1,0,0,,1,33,193,149,1,
,,,,,,,,,,,,,FF,,,,,,,,0.7012,,,,,,,,,,,,,,,,,,,,,,60ff0285154e9a89d9116b02,61036df6e443c3e9aeab20c3,2021-07-30_04h12.10.585,Simcolourproject_2stim_asymm_v5,2020.2.10,Win32,60,61025ae37ef11b136ea224fe,,,,,,,,,2776,-43.99998921,-67.20000744,1,0,0,response5disk,,3,-12.79998875,-5.600006521,1,0,0,rectangle,-12.79998875,-5.600006521,1,0,0,,,,,,,-12.79998875,-5.600006521,1,0,0,,1,34,194,21,1,
,,,,,,,,,,,,,FF,,,,,,,,0.6508,,,,,,,,,,,,,,,,,,,,,,60ff0285154e9a89d9116b02,61036df6e443c3e9aeab20c3,2021-07-30_04h12.10.585,Simcolourproject_2stim_asymm_v5,2020.2.10,Win32,60,61025ae37ef11b136ea224fe,,,,,,,,,3275,71.20001251,-35.20000696,1,0,0,response3disk,,5,-0.799988568,-2.400006473,1,0,0,rectangle,-0.799988568,-2.400006473,1,0,0,,,,,,,-0.799988568,-2.400006473,1,0,0,,1,35,195,87,1,
,,,,,,,,,,,,,FF,,,,,,,,0.6006,,,,,,,,,,,,,,,,,,,,,,60ff0285154e9a89d9116b02,61036df6e443c3e9aeab20c3,2021-07-30_04h12.10.585,Simcolourproject_2stim_asymm_v5,2020.2.10,Win32,60,61025ae37ef11b136ea224fe,,,,,,,,,994,92.80001283,-42.40000707,1,0,0,response3disk,,5,35.20001197,-6.400006533,1,0,0,rectangle,35.20001197,-6.400006533,1,0,0,,,,,,,35.20001197,-6.400006533,1,0,0,,1,36,196,66,1,
,,,,,,,,,,,,,FF,,,,,,,,0.719,,,,,,,,,,,,,,,,,,,,,,60ff0285154e9a89d9116b02,61036df6e443c3e9aeab20c3,2021-07-30_04h12.10.585,Simcolourproject_2stim_asymm_v5,2020.2.10,Win32,60,61025ae37ef11b136ea224fe,,,,,,,,,1976,67.20001245,23.19996949,1,0,0,response1disk,,6,14.40001166,8.799993694,1,0,0,rectangle,14.40001166,8.799993694,1,0,0,,,,,,,14.40001166,8.799993694,1,0,0,,1,37,197,112,1,
,,,,,,,,,,,,,FF,,,,,,,,0.8188,,,,,,,,,,,,,,,,,,,,,,60ff0285154e9a89d9116b02,61036df6e443c3e9aeab20c3,2021-07-30_04h12.10.585,Simcolourproject_2stim_asymm_v5,2020.2.10,Win32,60,61025ae37ef11b136ea224fe,,,,,,,,,3331,-39.99998915,-72.80000752,1,0,0,response5disk,,3,-13.59998876,5.599993646,1,0,0,rectangle,-13.59998876,5.599993646,1,0,0,,,,,,,-13.59998876,5.599993646,1,0,0,,1,38,198,147,1,
,,,,,,,,,,,,,FF,,,,,,,,1.2514,,,,,,,,,,,,,,,,,,,,,,60ff0285154e9a89d9116b02,61036df6e443c3e9aeab20c3,2021-07-30_04h12.10.585,Simcolourproject_2stim_asymm_v5,2020.2.10,Win32,60,61025ae37ef11b136ea224fe,,,,,,,,,1244,78.40001261,42.39999419,1,0,0,response1disk,,6,9.600060415,7.19999367,1,0,0,rectangle,9.600060415,7.19999367,1,0,0,,,,,,,9.600060415,7.19999367,1,0,0,,1,39,199,84,1,
,,,,,,,,,,,,,FF,,,,,,,,1.4681,,,,,,,,,,,,,,,,,,,,,,60ff0285154e9a89d9116b02,61036df6e443c3e9aeab20c3,2021-07-30_04h12.10.585,Simcolourproject_2stim_asymm_v5,2020.2.10,Win32,60,61025ae37ef11b136ea224fe,,,,,,,,,1137,-46.39994042,-65.60000741,1,0,0,response5disk,,3,-4.799988627,-10.40000659,1,0,0,rectangle,-4.799988627,-10.40000659,1,0,0,,,,,,,-4.799988627,-10.40000659,1,0,0,,1,40,200,37,1,
,,,,,,,,,,,,,FF,,,,,,,,0.6497,,,,,,,,,,,,,,,,,,,,,,60ff0285154e9a89d9116b02,61036df6e443c3e9aeab20c3,2021-07-30_04h12.10.585,Simcolourproject_2stim_asymm_v5,2020.2.10,Win32,60,61025ae37ef11b136ea224fe,,,,,,,,,2061,69.60001248,-40.80000705,1,0,0,response3disk,,5,4.800011516,-8.000006557,1,0,0,rectangle,4.800011516,-8.000006557,1,0,0,,,,,,,4.800011516,-8.000006557,1,0,0,,1,41,201,62,1,
,,,,,,,,,,,,,FF,,,,,,,,1.7352,,,,,,,,,,,,,,,,,,,,,,60ff0285154e9a89d9116b02,61036df6e443c3e9aeab20c3,2021-07-30_04h12.10.585,Simcolourproject_2stim_asymm_v5,2020.2.10,Win32,60,61025ae37ef11b136ea224fe,,,,,,,,,2719,85.60001272,-40.00000703,1,0,0,response3disk,,5,19.20001173,-4.800006509,1,0,0,rectangle,19.20001173,-4.800006509,1,0,0,,,,,,,19.20001173,-4.800006509,1,0,0,,1,42,202,126,1,
,,,,,,,,,,,,,FF,,,,,,,,0.7174,,,,,,,,,,,,,,,,,,,,,,60ff0285154e9a89d9116b02,61036df6e443c3e9aeab20c3,2021-07-30_04h12.10.585,Simcolourproject_2stim_asymm_v5,2020.2.10,Win32,60,61025ae37ef11b136ea224fe,,,,,,,,,984,-28.79998899,-73.60000753,1,0,0,response5disk,,3,-9.599988699,-6.400006533,1,0,0,rectangle,-9.599988699,-6.400006533,1,0,0,,,,,,,-9.599988699,-6.400006533,1,0,0,,1,43,203,131,1,
,,,,,,,,,,,,,FF,,,,,,,,1.0676,,,,,,,,,,,,,,,,,,,,,,60ff0285154e9a89d9116b02,61036df6e443c3e9aeab20c3,2021-07-30_04h12.10.585,Simcolourproject_2stim_asymm_v5,2020.2.10,Win32,60,61025ae37ef11b136ea224fe,,,,,,,,,1972,-88.79998988,-31.2000069,1,0,0,response5disk,,2,-30.39994018,3.999993622,1,0,0,rectangle,-30.39994018,3.999993622,1,0,0,,,,,,,-30.39994018,3.999993622,1,0,0,,1,44,204,118,1,
,,,,,,,,,,,,,FF,,,,,,,,0.7023,,,,,,,,,,,,,,,,,,,,,,60ff0285154e9a89d9116b02,61036df6e443c3e9aeab20c3,2021-07-30_04h12.10.585,Simcolourproject_2stim_asymm_v5,2020.2.10,Win32,60,61025ae37ef11b136ea224fe,,,,,,,,,816,34.40001196,-65.60000741,1,0,0,response3disk,,4,32.80001193,-7.200006545,1,0,0,rectangle,32.80001193,-7.200006545,1,0,0,,,,,,,32.80001193,-7.200006545,1,0,0,,1,45,205,127,1,
,,,,,,,,,,,,,FF,,,,,,,,0.652,,,,,,,,,,,,,,,,,,,,,,60ff0285154e9a89d9116b02,61036df6e443c3e9aeab20c3,2021-07-30_04h12.10.585,Simcolourproject_2stim_asymm_v5,2020.2.10,Win32,60,61025ae37ef11b136ea224fe,,,,,,,,,564,-69.59998959,-39.20000702,1,0,0,response5disk,,2,-4.799988627,-6.400006533,1,0,0,rectangle,-4.799988627,-6.400006533,1,0,0,,,,,,,-4.799988627,-6.400006533,1,0,0,,1,46,206,51,1,
,,,,,,,,,,,,,FF,,,,,,,,0.5671,,,,,,,,,,,,,,,,,,,,,,60ff0285154e9a89d9116b02,61036df6e443c3e9aeab20c3,2021-07-30_04h12.10.585,Simcolourproject_2stim_asymm_v5,2020.2.10,Win32,60,61025ae37ef11b136ea224fe,,,,,,,,,464,76.80001259,-53.60000724,1,0,0,response3disk,,5,0.800011456,3.999993622,1,0,0,rectangle,0.800011456,3.999993622,1,0,0,,,,,,,0.800011456,3.999993622,1,0,0,,1,47,207,122,1,
,,,,,,,,,,,,,FF,,,,,,,,0.886,,,,,,,,,,,,,,,,,,,,,,60ff0285154e9a89d9116b02,61036df6e443c3e9aeab20c3,2021-07-30_04h12.10.585,Simcolourproject_2stim_asymm_v5,2020.2.10,Win32,60,61025ae37ef11b136ea224fe,,,,,,,,,3378,-75.99998969,-35.20000696,1,0,0,response5disk,,2,-27.19998896,3.999993622,1,0,0,rectangle,-27.19998896,3.999993622,1,0,0,,,,,,,-27.19998896,3.999993622,1,0,0,,1,48,208,70,1,
,,,,,,,,,,,,,FF,,,,,,,,1.1848,,,,,,,,,,,,,,,,,,,,,,60ff0285154e9a89d9116b02,61036df6e443c3e9aeab20c3,2021-07-30_04h12.10.585,Simcolourproject_2stim_asymm_v5,2020.2.10,Win32,60,61025ae37ef11b136ea224fe,,,,,,,,,2550,-48.79998928,-72.80000752,1,0,0,response5disk,,3,-38.3999403,-12.80000663,1,0,0,rectangle,-38.3999403,-12.80000663,1,0,0,,,,,,,-38.3999403,-12.80000663,1,0,0,,1,49,209,133,1,
,,,,,,,,,,,,,FF,,,,,,,,1.0011,,,,,,,,,,,,,,,,,,,,,,60ff0285154e9a89d9116b02,61036df6e443c3e9aeab20c3,2021-07-30_04h12.10.585,Simcolourproject_2stim_asymm_v5,2020.2.10,Win32,60,61025ae37ef11b136ea224fe,,,,,,,,,848,94.40001285,37.59999412,1,0,0,response1disk,,6,16.80001169,-5.600006521,1,0,0,rectangle,16.80001169,-5.600006521,1,0,0,,,,,,,16.80001169,-5.600006521,1,0,0,,1,50,210,157,1,
,,,,,,,,,,,,,FF,,,,,,,,0.9007,,,,,,,,,,,,,,,,,,,,,,60ff0285154e9a89d9116b02,61036df6e443c3e9aeab20c3,2021-07-30_04h12.10.585,Simcolourproject_2stim_asymm_v5,2020.2.10,Win32,60,61025ae37ef11b136ea224fe,,,,,,,,,2867,117.6000132,-50.40000719,1,0,0,response3disk,,5,9.600060415,-3.200006485,1,0,0,rectangle,9.600060415,-3.200006485,1,0,0,,,,,,,9.600060415,-3.200006485,1,0,0,,1,51,211,5,1,
,,,,,,,,,,,,,FF,,,,,,,,1.2364,,,,,,,,,,,,,,,,,,,,,,60ff0285154e9a89d9116b02,61036df6e443c3e9aeab20c3,2021-07-30_04h12.10.585,Simcolourproject_2stim_asymm_v5,2020.2.10,Win32,60,61025ae37ef11b136ea224fe,,,,,,,,,2478,109.6000131,28.79999399,1,0,0,response1disk,,6,5.600060356,-6.400006533,1,0,0,rectangle,5.600060356,-6.400006533,1,0,0,,,,,,,5.600060356,-6.400006533,1,0,0,,1,52,212,56,1,
,,,,,,,,,,,,,FF,,,,,,,,0.7525,,,,,,,,,,,,,,,,,,,,,,60ff0285154e9a89d9116b02,61036df6e443c3e9aeab20c3,2021-07-30_04h12.10.585,Simcolourproject_2stim_asymm_v5,2020.2.10,Win32,60,61025ae37ef11b136ea224fe,,,,,,,,,2335,55.20001227,72.79999465,1,0,0,response1disk,,7,0.800011456,2.399993598,1,0,0,rectangle,0.800011456,2.399993598,1,0,0,,,,,,,0.800011456,2.399993598,1,0,0,,1,53,213,38,1,
,,,,,,,,,,,,,FF,,,,,,,,0.6341,,,,,,,,,,,,,,,,,,,,,,60ff0285154e9a89d9116b02,61036df6e443c3e9aeab20c3,2021-07-30_04h12.10.585,Simcolourproject_2stim_asymm_v5,2020.2.10,Win32,60,61025ae37ef11b136ea224fe,,,,,,,,,3803,99.20001292,-38.40000701,1,0,0,response3disk,,5,9.600060415,0.799993575,1,0,0,rectangle,9.600060415,0.799993575,1,0,0,,,,,,,9.600060415,0.799993575,1,0,0,,1,54,214,4,1,
,,,,,,,,,,,,,FF,,,,,,,,0.6186,,,,,,,,,,,,,,,,,,,,,,60ff0285154e9a89d9116b02,61036df6e443c3e9aeab20c3,2021-07-30_04h12.10.585,Simcolourproject_2stim_asymm_v5,2020.2.10,Win32,60,61025ae37ef11b136ea224fe,,,,,,,,,2349,81.60001266,-40.00000703,1,0,0,response3disk,,5,-20.79998887,9.599993706,1,0,0,rectangle,-20.79998887,9.599993706,1,0,0,,,,,,,-20.79998887,9.599993706,1,0,0,,1,55,215,116,1,
,,,,,,,,,,,,,FF,,,,,,,,1.0177,,,,,,,,,,,,,,,,,,,,,,60ff0285154e9a89d9116b02,61036df6e443c3e9aeab20c3,2021-07-30_04h12.10.585,Simcolourproject_2stim_asymm_v5,2020.2.10,Win32,60,61025ae37ef11b136ea224fe,,,,,,,,,1185,97.6000129,27.19996955,1,0,0,response1disk,,6,25.60006065,-12.00000662,1,0,0,rectangle,25.60006065,-12.00000662,1,0,0,,,,,,,25.60006065,-12.00000662,1,0,0,,1,56,216,86,1,
,,,,,,,,,,,,,FF,,,,,,,,0.9177,,,,,,,,,,,,,,,,,,,,,,60ff0285154e9a89d9116b02,61036df6e443c3e9aeab20c3,2021-07-30_04h12.10.585,Simcolourproject_2stim_asymm_v5,2020.2.10,Win32,60,61025ae37ef11b136ea224fe,,,,,,,,,2506,39.20001203,76.79999471,1,0,0,response1disk,,7,2.40001148,15.19999379,1,0,0,rectangle,40.80001205,110.3999952,1,0,0,response1disk_3,TRUE,7,7,"[113,144,23,167,251,266,218,150,239,314,301,174,315,71,230,279,1,226,66,143]",1.1178,7.200011551,3.19999361,1,0,0,rectangle,1,57,217,13,1,
,,,,,,,,,,,,,FF,,,,,,,,0.6496,,,,,,,,,,,,,,,,,,,,,,60ff0285154e9a89d9116b02,61036df6e443c3e9aeab20c3,2021-07-30_04h12.10.585,Simcolourproject_2stim_asymm_v5,2020.2.10,Win32,60,61025ae37ef11b136ea224fe,,,,,,,,,426,92.80001283,-39.20000702,1,0,0,response3disk,,5,1.600060296,-3.200006485,1,0,0,rectangle,1.600060296,-3.200006485,1,0,0,,,,,,,1.600060296,-3.200006485,1,0,0,,1,58,218,102,1,
,,,,,,,,,,,,,FF,,,,,,,,1.0345,,,,,,,,,,,,,,,,,,,,,,60ff0285154e9a89d9116b02,61036df6e443c3e9aeab20c3,2021-07-30_04h12.10.585,Simcolourproject_2stim_asymm_v5,2020.2.10,Win32,60,61025ae37ef11b136ea224fe,,,,,,,,,3695,96.00001287,39.19996973,1,0,0,response1disk,,6,12.00001162,5.599993646,1,0,0,rectangle,12.00001162,5.599993646,1,0,0,,,,,,,12.00001162,5.599993646,1,0,0,,1,59,219,145,1,
,,,,,,,,,,,,,FF,,,,,,,,1.051,,,,,,,,,,,,,,,,,,,,,,60ff0285154e9a89d9116b02,61036df6e443c3e9aeab20c3,2021-07-30_04h12.10.585,Simcolourproject_2stim_asymm_v5,2020.2.10,Win32,60,61025ae37ef11b136ea224fe,,,,,,,,,52,47.20001215,71.99999464,1,0,0,response1disk,,7,-21.59998888,-6.400006533,1,0,0,rectangle,-21.59998888,-6.400006533,1,0,0,,,,,,,-21.59998888,-6.400006533,1,0,0,,1,60,220,152,1,
,,,,,,,,,,,,,FF,,,,,,,,0.7174,,,,,,,,,,,,,,,,,,,,,,60ff0285154e9a89d9116b02,61036df6e443c3e9aeab20c3,2021-07-30_04h12.10.585,Simcolourproject_2stim_asymm_v5,2020.2.10,Win32,60,61025ae37ef11b136ea224fe,,,,,,,,,701,98.40001291,31.99999404,1,0,0,response1disk,,6,1.600060296,-0.800006449,1,0,0,rectangle,1.600060296,-0.800006449,1,0,0,,,,,,,1.600060296,-0.800006449,1,0,0,,1,61,221,109,1,
,,,,,,,,,,,,,FF,,,,,,,,0.6354,,,,,,,,,,,,,,,,,,,,,,60ff0285154e9a89d9116b02,61036df6e443c3e9aeab20c3,2021-07-30_04h12.10.585,Simcolourproject_2stim_asymm_v5,2020.2.10,Win32,60,61025ae37ef11b136ea224fe,,,,,,,,,505,78.40001261,36.79999411,1,0,0,response1disk,,6,-14.39993994,-2.400006473,1,0,0,rectangle,-14.39993994,-2.400006473,1,0,0,,,,,,,-14.39993994,-2.400006473,1,0,0,,1,62,222,77,1,
,,,,,,,,,,,,,FF,,,,,,,,0.9177,,,,,,,,,,,,,,,,,,,,,,60ff0285154e9a89d9116b02,61036df6e443c3e9aeab20c3,2021-07-30_04h12.10.585,Simcolourproject_2stim_asymm_v5,2020.2.10,Win32,60,61025ae37ef11b136ea224fe,,,,,,,,,1117,-41.59998918,-96.80000788,1,0,0,response5disk,,3,4.800011516,2.399993598,1,0,0,rectangle,4.800011516,2.399993598,1,0,0,,,,,,,4.800011516,2.399993598,1,0,0,,1,63,223,115,1,
,,,,,,,,,,,,,FF,,,,,,,,0.7014,,,,,,,,,,,,,,,,,,,,,,60ff0285154e9a89d9116b02,61036df6e443c3e9aeab20c3,2021-07-30_04h12.10.585,Simcolourproject_2stim_asymm_v5,2020.2.10,Win32,60,61025ae37ef11b136ea224fe,,,,,,,,,3182,93.60001284,-40.80000705,1,0,0,response3disk,,5,9.600060415,-4.000006497,1,0,0,rectangle,9.600060415,-4.000006497,1,0,0,,,,,,,9.600060415,-4.000006497,1,0,0,,1,64,224,24,1,
,,,,,,,,,,,,,FF,,,,,,,,0.6507,,,,,,,,,,,,,,,,,,,,,,60ff0285154e9a89d9116b02,61036df6e443c3e9aeab20c3,2021-07-30_04h12.10.585,Simcolourproject_2stim_asymm_v5,2020.2.10,Win32,60,61025ae37ef11b136ea224fe,,,,,,,,,1356,34.40001196,-94.40000784,1,0,0,response3disk,,4,11.20001161,-6.400006533,1,0,0,rectangle,-119.1999903,-58.40000731,1,0,0,response5disk_3,TRUE,2,2,"[113,144,23,167,251,266,218,150,239,314,301,174,315,71,230,279,1,226,66,143]",1.6337,-13.59998876,0.799993575,1,0,0,rectangle,1,65,225,68,1,
,,,,,,,,,,,,,FF,,,,,,,,0.95,,,,,,,,,,,,,,,,,,,,,,60ff0285154e9a89d9116b02,61036df6e443c3e9aeab20c3,2021-07-30_04h12.10.585,Simcolourproject_2stim_asymm_v5,2020.2.10,Win32,60,61025ae37ef11b136ea224fe,,,,,,,,,4079,72.00001252,42.39999419,1,0,0,response1disk,,6,-13.59998876,5.599993646,1,0,0,rectangle,-13.59998876,5.599993646,1,0,0,,,,,,,-13.59998876,5.599993646,1,0,0,,1,66,226,132,1,
,,,,,,,,,,,,,FF,,,,,,,,1.0847,,,,,,,,,,,,,,,,,,,,,,60ff0285154e9a89d9116b02,61036df6e443c3e9aeab20c3,2021-07-30_04h12.10.585,Simcolourproject_2stim_asymm_v5,2020.2.10,Win32,60,61025ae37ef11b136ea224fe,,,,,,,,,1557,89.60001278,-33.60000694,1,0,0,response3disk,,5,12.00001162,-4.800006509,1,0,0,rectangle,12.00001162,-4.800006509,1,0,0,,,,,,,12.00001162,-4.800006509,1,0,0,,1,67,227,100,1,
,,,,,,,,,,,,,FF,,,,,,,,0.8343,,,,,,,,,,,,,,,,,,,,,,60ff0285154e9a89d9116b02,61036df6e443c3e9aeab20c3,2021-07-30_04h12.10.585,Simcolourproject_2stim_asymm_v5,2020.2.10,Win32,60,61025ae37ef11b136ea224fe,,,,,,,,,158,104.800013,-34.40000695,1,0,0,response3disk,,5,7.200011551,-9.60000658,1,0,0,rectangle,7.200011551,-9.60000658,1,0,0,,,,,,,7.200011551,-9.60000658,1,0,0,,1,68,228,80,1,
,,,,,,,,,,,,,FF,,,,,,,,0.6506,,,,,,,,,,,,,,,,,,,,,,60ff0285154e9a89d9116b02,61036df6e443c3e9aeab20c3,2021-07-30_04h12.10.585,Simcolourproject_2stim_asymm_v5,2020.2.10,Win32,60,61025ae37ef11b136ea224fe,,,,,,,,,118,92.00001281,43.19996979,1,0,0,response1disk,,6,-15.99998879,16.79999381,1,0,0,rectangle,60.80001235,112.7999952,1,0,0,response1disk_3,TRUE,7,7,"[113,144,23,167,251,266,218,150,239,314,301,174,315,71,230,279,1,226,66,143]",1.3361,17.60006053,-0.800006449,1,0,0,rectangle,1,69,229,18,1,
,,,,,,,,,,,,,FF,,,,,,,,0.7676,,,,,,,,,,,,,,,,,,,,,,60ff0285154e9a89d9116b02,61036df6e443c3e9aeab20c3,2021-07-30_04h12.10.585,Simcolourproject_2stim_asymm_v5,2020.2.10,Win32,60,61025ae37ef11b136ea224fe,,,,,,,,,850,100.0000129,-31.2000069,1,0,0,response3disk,,5,0.800011456,3.999993622,1,0,0,rectangle,0.800011456,3.999993622,1,0,0,,,,,,,0.800011456,3.999993622,1,0,0,,1,70,230,34,1,
,,,,,,,,,,,,,FF,,,,,,,,0.6503,,,,,,,,,,,,,,,,,,,,,,60ff0285154e9a89d9116b02,61036df6e443c3e9aeab20c3,2021-07-30_04h12.10.585,Simcolourproject_2stim_asymm_v5,2020.2.10,Win32,60,61025ae37ef11b136ea224fe,,,,,,,,,937,72.00001252,59.99999446,1,0,0,response1disk,,6,-17.59998882,7.999993682,1,0,0,rectangle,-17.59998882,7.999993682,1,0,0,,,,,,,-17.59998882,7.999993682,1,0,0,,1,71,231,143,1,
,,,,,,,,,,,,,FF,,,,,,,,0.7689,,,,,,,,,,,,,,,,,,,,,,60ff0285154e9a89d9116b02,61036df6e443c3e9aeab20c3,2021-07-30_04h12.10.585,Simcolourproject_2stim_asymm_v5,2020.2.10,Win32,60,61025ae37ef11b136ea224fe,,,,,,,,,3997,-35.99998909,-78.40000761,1,0,0,response5disk,,3,16.80001169,-16.80000669,1,0,0,rectangle,16.80001169,-16.80000669,1,0,0,,,,,,,16.80001169,-16.80000669,1,0,0,,1,72,232,146,1,
,,,,,,,,,,,,,FF,,,,,,,,0.7341,,,,,,,,,,,,,,,,,,,,,,60ff0285154e9a89d9116b02,61036df6e443c3e9aeab20c3,2021-07-30_04h12.10.585,Simcolourproject_2stim_asymm_v5,2020.2.10,Win32,60,61025ae37ef11b136ea224fe,,,,,,,,,2063,109.6000131,-38.40000701,1,0,0,response3disk,,5,20.80001175,-9.60000658,1,0,0,rectangle,20.80001175,-9.60000658,1,0,0,,,,,,,20.80001175,-9.60000658,1,0,0,,1,73,233,9,1,
,,,,,,,,,,,,,FF,,,,,,,,1.1999,,,,,,,,,,,,,,,,,,,,,,60ff0285154e9a89d9116b02,61036df6e443c3e9aeab20c3,2021-07-30_04h12.10.585,Simcolourproject_2stim_asymm_v5,2020.2.10,Win32,60,61025ae37ef11b136ea224fe,,,,,,,,,3430,36.80001199,-93.60005666,1,0,0,response3disk,,4,-7.999988675,5.599993646,1,0,0,rectangle,-7.999988675,5.599993646,1,0,0,,,,,,,-7.999988675,5.599993646,1,0,0,,1,74,234,79,1,
,,,,,,,,,,,,,FF,,,,,,,,0.7006,,,,,,,,,,,,,,,,,,,,,,60ff0285154e9a89d9116b02,61036df6e443c3e9aeab20c3,2021-07-30_04h12.10.585,Simcolourproject_2stim_asymm_v5,2020.2.10,Win32,60,61025ae37ef11b136ea224fe,,,,,,,,,3154,-94.39994113,-47.20000714,1,0,0,response5disk,,2,-20.79998887,3.19999361,1,0,0,rectangle,-20.79998887,3.19999361,1,0,0,,,,,,,-20.79998887,3.19999361,1,0,0,,1,75,235,72,1,
,,,,,,,,,,,,,FF,,,,,,,,0.6342,,,,,,,,,,,,,,,,,,,,,,60ff0285154e9a89d9116b02,61036df6e443c3e9aeab20c3,2021-07-30_04h12.10.585,Simcolourproject_2stim_asymm_v5,2020.2.10,Win32,60,61025ae37ef11b136ea224fe,,,,,,,,,2583,75.20001256,-40.00000703,1,0,0,response3disk,,5,-1.59998858,-7.200006545,1,0,0,rectangle,-1.59998858,-7.200006545,1,0,0,,,,,,,-1.59998858,-7.200006545,1,0,0,,1,76,236,40,1,
,,,,,,,,,,,,,FF,,,,,,,,0.9333,,,,,,,,,,,,,,,,,,,,,,60ff0285154e9a89d9116b02,61036df6e443c3e9aeab20c3,2021-07-30_04h12.10.585,Simcolourproject_2stim_asymm_v5,2020.2.10,Win32,60,61025ae37ef11b136ea224fe,,,,,,,,,1526,-87.19998986,-47.20000714,1,0,0,response5disk,,2,-16.79998881,9.599993706,1,0,0,rectangle,-16.79998881,9.599993706,1,0,0,,,,,,,-16.79998881,9.599993706,1,0,0,,1,77,237,78,1,
,,,,,,,,,,,,,FF,,,,,,,,0.7175,,,,,,,,,,,,,,,,,,,,,,60ff0285154e9a89d9116b02,61036df6e443c3e9aeab20c3,2021-07-30_04h12.10.585,Simcolourproject_2stim_asymm_v5,2020.2.10,Win32,60,61025ae37ef11b136ea224fe,,,,,,,,,428,108.0000131,-40.80000705,1,0,0,response3disk,,5,-15.19998878,-6.400006533,1,0,0,rectangle,52.80001223,104.7999951,1,0,0,response1disk_3,TRUE,7,7,"[113,144,23,167,251,266,218,150,239,314,301,174,315,71,230,279,1,226,66,143]",1.0008,12.00001162,-10.40000659,1,0,0,rectangle,1,78,238,156,1,
,,,,,,,,,,,,,FF,,,,,,,,1.685,,,,,,,,,,,,,,,,,,,,,,60ff0285154e9a89d9116b02,61036df6e443c3e9aeab20c3,2021-07-30_04h12.10.585,Simcolourproject_2stim_asymm_v5,2020.2.10,Win32,60,61025ae37ef11b136ea224fe,,,,,,,,,2659,66.40001243,-76.80000758,1,0,0,response3disk,,4,25.60006065,-3.200006485,1,0,0,rectangle,25.60006065,-3.200006485,1,0,0,,,,,,,25.60006065,-3.200006485,1,0,0,,1,79,239,48,1,
,,,,,,,,,,,,,FF,,,,,,,,0.802,,,,,,,,,,,,,,,,,,,,,,60ff0285154e9a89d9116b02,61036df6e443c3e9aeab20c3,2021-07-30_04h12.10.585,Simcolourproject_2stim_asymm_v5,2020.2.10,Win32,60,61025ae37ef11b136ea224fe,,,,,,,,,423,-100.7999901,-57.6000073,1,0,0,response5disk,,2,-24.79998893,1.599993587,1,0,0,rectangle,-24.79998893,1.599993587,1,0,0,,,,,,,-24.79998893,1.599993587,1,0,0,,1,80,240,90,1,
,,,,,,,,,,,,,FF,,,,,,,,0.6674,,,,,,,,,,,,,,,,,,,,,,60ff0285154e9a89d9116b02,61036df6e443c3e9aeab20c3,2021-07-30_04h12.10.585,Simcolourproject_2stim_asymm_v5,2020.2.10,Win32,60,61025ae37ef11b136ea224fe,,,,,,,,,4118,-39.99998915,101.5999951,1,0,0,response7disk,,0,-9.599988699,7.19999367,1,0,0,rectangle,-9.599988699,7.19999367,1,0,0,,,,,,,-9.599988699,7.19999367,1,0,0,,1,81,241,76,1,
,,,,,,,,,,,,,FF,,,,,,,,0.8693,,,,,,,,,,,,,,,,,,,,,,60ff0285154e9a89d9116b02,61036df6e443c3e9aeab20c3,2021-07-30_04h12.10.585,Simcolourproject_2stim_asymm_v5,2020.2.10,Win32,60,61025ae37ef11b136ea224fe,,,,,,,,,4131,48.00001216,80.79999477,1,0,0,response1disk,,7,10.4000116,6.399993658,1,0,0,rectangle,10.4000116,6.399993658,1,0,0,,,,,,,10.4000116,6.399993658,1,0,0,,1,82,242,117,1,
