key_resp.keys,key_resp.rt,key_resp_14.keys,key_resp_14.rt,key_resp_15.keys,key_resp_15.rt,key_resp_17.keys,key_resp_17.rt,key_resp_9.keys,key_resp_9.rt,key_resp_10.keys,key_resp_10.rt,practice_comparison,Ecc,mouse_5.x,mouse_5.y,mouse_5.leftButton,mouse_5.midButton,mouse_5.rightButton,mouse_5.clicked_name,pracsimilarity,response_time,mouse_10.x,mouse_10.y,mouse_10.leftButton,mouse_10.midButton,mouse_10.rightButton,mouse_10.clicked_name,mouse_7.x,mouse_7.y,mouse_7.leftButton,mouse_7.midButton,mouse_7.rightButton,mouse_6.x,mouse_6.y,mouse_6.leftButton,mouse_6.midButton,mouse_6.rightButton,duringprac.thisRepN,duringprac.thisTrialN,duringprac.thisN,duringprac.thisIndex,duringprac.ran,participant,session,date,expName,psychopyVersion,OS,frameRate,study_id,mouse_7.clicked_name,catchpracsimilarity,catch_response_time,catchnumberprac,catchtrialorderprac,mouse_6.clicked_name,key_resp_22.keys,key_resp_22.rt,realcomparison,mouse.x,mouse.y,mouse.leftButton,mouse.midButton,mouse.rightButton,mouse.clicked_name,Colour2,similarity,mouse_2.x,mouse_2.y,mouse_2.leftButton,mouse_2.midButton,mouse_2.rightButton,mouse_2.clicked_name,mouse_3.x,mouse_3.y,mouse_3.leftButton,mouse_3.midButton,mouse_3.rightButton,mouse_11.x,mouse_11.y,mouse_11.leftButton,mouse_11.midButton,mouse_11.rightButton,trials_2.thisRepN,trials_2.thisTrialN,trials_2.thisN,trials_2.thisIndex,trials_2.ran,Colour1,mouse_3.clicked_name,catchornah,catchsimilarity,catchnumber,catchtrialorder,catchRT,mouse_11.clicked_name
space,1.5871,space,6.73078,space,16.67512,space,6.86764,space,1.08555,space,5.364065,16,PF,40.73828125,88.4765625,1,0,0,response1disk_5,7,7.241125,2.58203125,2.89453125,1,0,0,rectangle_8,2.58203125,2.89453125,1,0,0,2.58203125,2.89453125,1,0,0,0,0,0,1,1,60ff7965b012696c1357219c,61036979e5e98a764026aa26,2021-07-29_22h53.50.426,Simcolourproject_2stim_asymm_v5,2020.2.10,MacIntel,60,61025ae37ef11b136ea224fe,,,,,,,,,,,,,,,,,,,,,,,,,,,,,,,,,,,,,,,,,,,,,,
,,,,,,,,,,,,79,FF,45.41015625,85.69921875,1,0,0,response1disk_5,7,3.684230001,1.99609375,-0.125,1,0,0,rectangle_8,80.98046875,-40.578125,1,0,0,-15.875,-0.58203125,1,0,0,0,1,1,5,1,60ff7965b012696c1357219c,61036979e5e98a764026aa26,2021-07-29_22h53.50.426,Simcolourproject_2stim_asymm_v5,2020.2.10,MacIntel,60,61025ae37ef11b136ea224fe,response3disk_7,5,3.069915,5,"[2,5]",rectangle_4,,,,,,,,,,,,,,,,,,,,,,,,,,,,,,,,,,,,,,,,
,,,,,,,,,,,,87,PF,-48.25390625,-65.47265625,1,0,0,response5disk_5,3,6.3352,6.03125,-6.37890625,1,0,0,rectangle_8,6.03125,-6.37890625,1,0,0,6.03125,-6.37890625,1,0,0,0,2,2,4,1,60ff7965b012696c1357219c,61036979e5e98a764026aa26,2021-07-29_22h53.50.426,Simcolourproject_2stim_asymm_v5,2020.2.10,MacIntel,60,61025ae37ef11b136ea224fe,,,,,,,,,,,,,,,,,,,,,,,,,,,,,,,,,,,,,,,,,,,,,,
,,,,,,,,,,,,1,PF,36.6015625,-72.25390625,1,0,0,response3disk_5,4,2.884935,-9.84765625,-1.91796875,1,0,0,rectangle_8,-9.84765625,-1.91796875,1,0,0,-9.84765625,-1.91796875,1,0,0,0,3,3,6,1,60ff7965b012696c1357219c,61036979e5e98a764026aa26,2021-07-29_22h53.50.426,Simcolourproject_2stim_asymm_v5,2020.2.10,MacIntel,60,61025ae37ef11b136ea224fe,,,,,,,,,,,,,,,,,,,,,,,,,,,,,,,,,,,,,,,,,,,,,,
,,,,,,,,,,,,90,PF,-34.9453125,71.20703125,1,0,0,response7disk_5,0,2.19978,11.5703125,9.39453125,1,0,0,rectangle_8,79.22265625,-43.734375,1,0,0,-0.796875,5.37890625,1,0,0,0,4,4,2,1,60ff7965b012696c1357219c,61036979e5e98a764026aa26,2021-07-29_22h53.50.426,Simcolourproject_2stim_asymm_v5,2020.2.10,MacIntel,60,61025ae37ef11b136ea224fe,response3disk_7,5,1.54975,5,"[2,5]",rectangle_4,,,,,,,,,,,,,,,,,,,,,,,,,,,,,,,,,,,,,,,,
,,,,,,,,,,,,2,FF,47.83984375,85.7421875,1,0,0,response1disk_5,7,4.068805001,4.21875,-0.74609375,1,0,0,rectangle_8,4.21875,-0.74609375,1,0,0,4.21875,-0.74609375,1,0,0,0,5,5,0,1,60ff7965b012696c1357219c,61036979e5e98a764026aa26,2021-07-29_22h53.50.426,Simcolourproject_2stim_asymm_v5,2020.2.10,MacIntel,60,61025ae37ef11b136ea224fe,,,,,,,,,,,,,,,,,,,,,,,,,,,,,,,,,,,,,,,,,,,,,,
,,,,,,,,,,,,160,FF,62.23828125,-39.77734375,1,0,0,response3disk_5,5,2.3688,3.20703125,1.8203125,1,0,0,rectangle_8,3.20703125,1.8203125,1,0,0,3.20703125,1.8203125,1,0,0,0,6,6,3,1,60ff7965b012696c1357219c,61036979e5e98a764026aa26,2021-07-29_22h53.50.426,Simcolourproject_2stim_asymm_v5,2020.2.10,MacIntel,60,61025ae37ef11b136ea224fe,,,,,,,,,,,,,,,,,,,,,,,,,,,,,,,,,,,,,,,,,,,,,,
,,,,,,,,,,,,,FF,,,,,,,,1.467399999,,,,,,,,,,,,,,,,,,,,,,60ff7965b012696c1357219c,61036979e5e98a764026aa26,2021-07-29_22h53.50.426,Simcolourproject_2stim_asymm_v5,2020.2.10,MacIntel,60,61025ae37ef11b136ea224fe,,,,,,,space,1.91701,1620,83.0625,-32.16796875,1,0,0,response3disk,,5,8.09375,7.19140625,1,0,0,rectangle,8.09375,7.19140625,1,0,0,8.09375,7.19140625,1,0,0,0,0,0,57,1,,,,,,,,
,,,,,,,,,,,,,FF,,,,,,,,1.233245,,,,,,,,,,,,,,,,,,,,,,60ff7965b012696c1357219c,61036979e5e98a764026aa26,2021-07-29_22h53.50.426,Simcolourproject_2stim_asymm_v5,2020.2.10,MacIntel,60,61025ae37ef11b136ea224fe,,,,,,,,,281,25.33203125,-65.8203125,1,0,0,response3disk,,4,13.3671875,-1.234375,1,0,0,rectangle,13.3671875,-1.234375,1,0,0,13.3671875,-1.234375,1,0,0,0,1,1,82,1,,,,,,,,
,,,,,,,,,,,,,FF,,,,,,,,1.63285,,,,,,,,,,,,,,,,,,,,,,60ff7965b012696c1357219c,61036979e5e98a764026aa26,2021-07-29_22h53.50.426,Simcolourproject_2stim_asymm_v5,2020.2.10,MacIntel,60,61025ae37ef11b136ea224fe,,,,,,,,,4310,41.57421875,79.90625,1,0,0,response1disk,,7,11.26171875,-5.11328125,1,0,0,rectangle,11.26171875,-5.11328125,1,0,0,11.26171875,-5.11328125,1,0,0,0,2,2,67,1,,,,,,,,
,,,,,,,,,,,,,FF,,,,,,,,1.316310001,,,,,,,,,,,,,,,,,,,,,,60ff7965b012696c1357219c,61036979e5e98a764026aa26,2021-07-29_22h53.50.426,Simcolourproject_2stim_asymm_v5,2020.2.10,MacIntel,60,61025ae37ef11b136ea224fe,,,,,,,,,447,36.0703125,55.84375,1,0,0,response1disk,,7,11.890625,-5.35546875,1,0,0,rectangle,11.890625,-5.35546875,1,0,0,11.890625,-5.35546875,1,0,0,0,3,3,3,1,,,,,,,,
,,,,,,,,,,,,,FF,,,,,,,,1.31673,,,,,,,,,,,,,,,,,,,,,,60ff7965b012696c1357219c,61036979e5e98a764026aa26,2021-07-29_22h53.50.426,Simcolourproject_2stim_asymm_v5,2020.2.10,MacIntel,60,61025ae37ef11b136ea224fe,,,,,,,,,2538,33.4609375,77.9921875,1,0,0,response1disk,,7,-5.109375,-14.2578125,1,0,0,rectangle,-5.109375,-14.2578125,1,0,0,-5.109375,-14.2578125,1,0,0,0,4,4,117,1,,,,,,,,
,,,,,,,,,,,,,FF,,,,,,,,1.63392,,,,,,,,,,,,,,,,,,,,,,60ff7965b012696c1357219c,61036979e5e98a764026aa26,2021-07-29_22h53.50.426,Simcolourproject_2stim_asymm_v5,2020.2.10,MacIntel,60,61025ae37ef11b136ea224fe,,,,,,,,,3425,-40.23046875,68.66796875,1,0,0,response7disk,,0,19.09375,3.5625,1,0,0,rectangle,65.40625,-34.875,1,0,0,-2.13671875,6.453125,1,0,0,0,5,5,88,1,,response3disk_3,TRUE,5,5,"[246,183,6,236,95,149,94,245,227,119,266,192,62,151,80,36,286,319,249,13]",1.59992,rectangle
,,,,,,,,,,,,,FF,,,,,,,,1.200350001,,,,,,,,,,,,,,,,,,,,,,60ff7965b012696c1357219c,61036979e5e98a764026aa26,2021-07-29_22h53.50.426,Simcolourproject_2stim_asymm_v5,2020.2.10,MacIntel,60,61025ae37ef11b136ea224fe,,,,,,,,,1491,55.171875,80.171875,1,0,0,response1disk,,7,15.96875,-10.32421875,1,0,0,rectangle,15.96875,-10.32421875,1,0,0,15.96875,-10.32421875,1,0,0,0,6,6,60,1,,,,,,,,
,,,,,,,,,,,,,FF,,,,,,,,1.90132,,,,,,,,,,,,,,,,,,,,,,60ff7965b012696c1357219c,61036979e5e98a764026aa26,2021-07-29_22h53.50.426,Simcolourproject_2stim_asymm_v5,2020.2.10,MacIntel,60,61025ae37ef11b136ea224fe,,,,,,,,,3249,60.84765625,-35.7421875,1,0,0,response3disk,,5,7.5546875,7.671875,1,0,0,rectangle,7.5546875,7.671875,1,0,0,7.5546875,7.671875,1,0,0,0,7,7,83,1,,,,,,,,
,,,,,,,,,,,,,FF,,,,,,,,1.0833,,,,,,,,,,,,,,,,,,,,,,60ff7965b012696c1357219c,61036979e5e98a764026aa26,2021-07-29_22h53.50.426,Simcolourproject_2stim_asymm_v5,2020.2.10,MacIntel,60,61025ae37ef11b136ea224fe,,,,,,,,,2008,45.94921875,73.2109375,1,0,0,response1disk,,7,11.69921875,0.12890625,1,0,0,rectangle,11.69921875,0.12890625,1,0,0,11.69921875,0.12890625,1,0,0,0,8,8,62,1,,,,,,,,
,,,,,,,,,,,,,FF,,,,,,,,1.667525,,,,,,,,,,,,,,,,,,,,,,60ff7965b012696c1357219c,61036979e5e98a764026aa26,2021-07-29_22h53.50.426,Simcolourproject_2stim_asymm_v5,2020.2.10,MacIntel,60,61025ae37ef11b136ea224fe,,,,,,,,,3215,39.5625,70.53125,1,0,0,response1disk,,7,11,-9.77734375,1,0,0,rectangle,11,-9.77734375,1,0,0,11,-9.77734375,1,0,0,0,9,9,95,1,,,,,,,,
,,,,,,,,,,,,,FF,,,,,,,,1.350544999,,,,,,,,,,,,,,,,,,,,,,60ff7965b012696c1357219c,61036979e5e98a764026aa26,2021-07-29_22h53.50.426,Simcolourproject_2stim_asymm_v5,2020.2.10,MacIntel,60,61025ae37ef11b136ea224fe,,,,,,,,,2349,52.08984375,51.6484375,1,0,0,response1disk,,6,8.19140625,-11.25,1,0,0,rectangle,8.19140625,-11.25,1,0,0,8.19140625,-11.25,1,0,0,0,10,10,80,1,,,,,,,,
,,,,,,,,,,,,,FF,,,,,,,,1.049705,,,,,,,,,,,,,,,,,,,,,,60ff7965b012696c1357219c,61036979e5e98a764026aa26,2021-07-29_22h53.50.426,Simcolourproject_2stim_asymm_v5,2020.2.10,MacIntel,60,61025ae37ef11b136ea224fe,,,,,,,,,1846,31.08984375,67.2578125,1,0,0,response1disk,,7,-0.1015625,-5.11328125,1,0,0,rectangle,-0.1015625,-5.11328125,1,0,0,-0.1015625,-5.11328125,1,0,0,0,11,11,5,1,,,,,,,,
,,,,,,,,,,,,,FF,,,,,,,,0.883115,,,,,,,,,,,,,,,,,,,,,,60ff7965b012696c1357219c,61036979e5e98a764026aa26,2021-07-29_22h53.50.426,Simcolourproject_2stim_asymm_v5,2020.2.10,MacIntel,60,61025ae37ef11b136ea224fe,,,,,,,,,1648,35.6484375,69.859375,1,0,0,response1disk,,7,-1.96484375,-8.8828125,1,0,0,rectangle,88.328125,29.8046875,1,0,0,4.3828125,-3.6796875,1,0,0,0,12,12,159,1,,response1disk_3,TRUE,6,6,"[246,183,6,236,95,149,94,245,227,119,266,192,62,151,80,36,286,319,249,13]",2.01584,rectangle
,,,,,,,,,,,,,FF,,,,,,,,0.800295,,,,,,,,,,,,,,,,,,,,,,60ff7965b012696c1357219c,61036979e5e98a764026aa26,2021-07-29_22h53.50.426,Simcolourproject_2stim_asymm_v5,2020.2.10,MacIntel,60,61025ae37ef11b136ea224fe,,,,,,,,,1995,37.734375,82.125,1,0,0,response1disk,,7,0.63671875,-7.1328125,1,0,0,rectangle,0.63671875,-7.1328125,1,0,0,0.63671875,-7.1328125,1,0,0,0,13,13,143,1,,,,,,,,
,,,,,,,,,,,,,FF,,,,,,,,1.800275,,,,,,,,,,,,,,,,,,,,,,60ff7965b012696c1357219c,61036979e5e98a764026aa26,2021-07-29_22h53.50.426,Simcolourproject_2stim_asymm_v5,2020.2.10,MacIntel,60,61025ae37ef11b136ea224fe,,,,,,,,,1909,83.515625,-45.44140625,1,0,0,response3disk,,5,6.359375,-4.39453125,1,0,0,rectangle,6.359375,-4.39453125,1,0,0,6.359375,-4.39453125,1,0,0,0,14,14,112,1,,,,,,,,
,,,,,,,,,,,,,FF,,,,,,,,1.516785,,,,,,,,,,,,,,,,,,,,,,60ff7965b012696c1357219c,61036979e5e98a764026aa26,2021-07-29_22h53.50.426,Simcolourproject_2stim_asymm_v5,2020.2.10,MacIntel,60,61025ae37ef11b136ea224fe,,,,,,,,,2777,73.47265625,-44.51953125,1,0,0,response3disk,,5,12.8515625,-10.9296875,1,0,0,rectangle,12.8515625,-10.9296875,1,0,0,12.8515625,-10.9296875,1,0,0,0,15,15,133,1,,,,,,,,
,,,,,,,,,,,,,FF,,,,,,,,1.01838,,,,,,,,,,,,,,,,,,,,,,60ff7965b012696c1357219c,61036979e5e98a764026aa26,2021-07-29_22h53.50.426,Simcolourproject_2stim_asymm_v5,2020.2.10,MacIntel,60,61025ae37ef11b136ea224fe,,,,,,,,,4334,34.49609375,95.5078125,1,0,0,response1disk,,7,-5.05078125,-0.28515625,1,0,0,rectangle,-5.05078125,-0.28515625,1,0,0,-5.05078125,-0.28515625,1,0,0,0,16,16,149,1,,,,,,,,
,,,,,,,,,,,,,FF,,,,,,,,1.883669999,,,,,,,,,,,,,,,,,,,,,,60ff7965b012696c1357219c,61036979e5e98a764026aa26,2021-07-29_22h53.50.426,Simcolourproject_2stim_asymm_v5,2020.2.10,MacIntel,60,61025ae37ef11b136ea224fe,,,,,,,,,1716,49.80078125,54.109375,1,0,0,response1disk,,7,6.375,-8.82421875,1,0,0,rectangle,6.375,-8.82421875,1,0,0,6.375,-8.82421875,1,0,0,0,17,17,142,1,,,,,,,,
,,,,,,,,,,,,,FF,,,,,,,,0.91723,,,,,,,,,,,,,,,,,,,,,,60ff7965b012696c1357219c,61036979e5e98a764026aa26,2021-07-29_22h53.50.426,Simcolourproject_2stim_asymm_v5,2020.2.10,MacIntel,60,61025ae37ef11b136ea224fe,,,,,,,,,784,83.453125,16.54296875,1,0,0,response1disk,,6,8.08984375,-9.83984375,1,0,0,rectangle,8.08984375,-9.83984375,1,0,0,8.08984375,-9.83984375,1,0,0,0,18,18,140,1,,,,,,,,
,,,,,,,,,,,,,FF,,,,,,,,0.733475001,,,,,,,,,,,,,,,,,,,,,,60ff7965b012696c1357219c,61036979e5e98a764026aa26,2021-07-29_22h53.50.426,Simcolourproject_2stim_asymm_v5,2020.2.10,MacIntel,60,61025ae37ef11b136ea224fe,,,,,,,,,2396,34.44921875,80.64453125,1,0,0,response1disk,,7,-2.1484375,-0.69140625,1,0,0,rectangle,-2.1484375,-0.69140625,1,0,0,-2.1484375,-0.69140625,1,0,0,0,19,19,156,1,,,,,,,,
,,,,,,,,,,,,,FF,,,,,,,,0.73286,,,,,,,,,,,,,,,,,,,,,,60ff7965b012696c1357219c,61036979e5e98a764026aa26,2021-07-29_22h53.50.426,Simcolourproject_2stim_asymm_v5,2020.2.10,MacIntel,60,61025ae37ef11b136ea224fe,,,,,,,,,2273,28.03125,83.04296875,1,0,0,response1disk,,7,8.1015625,7.609375,1,0,0,rectangle,8.1015625,7.609375,1,0,0,8.1015625,7.609375,1,0,0,0,20,20,18,1,,,,,,,,
,,,,,,,,,,,,,FF,,,,,,,,0.701045,,,,,,,,,,,,,,,,,,,,,,60ff7965b012696c1357219c,61036979e5e98a764026aa26,2021-07-29_22h53.50.426,Simcolourproject_2stim_asymm_v5,2020.2.10,MacIntel,60,61025ae37ef11b136ea224fe,,,,,,,,,2908,32.10546875,83.8828125,1,0,0,response1disk,,7,-10.19140625,-12.484375,1,0,0,rectangle,-10.19140625,-12.484375,1,0,0,-10.19140625,-12.484375,1,0,0,0,21,21,152,1,,,,,,,,
,,,,,,,,,,,,,FF,,,,,,,,0.71691,,,,,,,,,,,,,,,,,,,,,,60ff7965b012696c1357219c,61036979e5e98a764026aa26,2021-07-29_22h53.50.426,Simcolourproject_2stim_asymm_v5,2020.2.10,MacIntel,60,61025ae37ef11b136ea224fe,,,,,,,,,607,34.02734375,69.90234375,1,0,0,response1disk,,7,11.890625,1.79296875,1,0,0,rectangle,11.890625,1.79296875,1,0,0,11.890625,1.79296875,1,0,0,0,22,22,105,1,,,,,,,,
,,,,,,,,,,,,,FF,,,,,,,,0.682855,,,,,,,,,,,,,,,,,,,,,,60ff7965b012696c1357219c,61036979e5e98a764026aa26,2021-07-29_22h53.50.426,Simcolourproject_2stim_asymm_v5,2020.2.10,MacIntel,60,61025ae37ef11b136ea224fe,,,,,,,,,556,48.7734375,91.125,1,0,0,response1disk,,7,-2.42578125,-6.80859375,1,0,0,rectangle,-2.42578125,-6.80859375,1,0,0,-2.42578125,-6.80859375,1,0,0,0,23,23,103,1,,,,,,,,
,,,,,,,,,,,,,FF,,,,,,,,0.667035,,,,,,,,,,,,,,,,,,,,,,60ff7965b012696c1357219c,61036979e5e98a764026aa26,2021-07-29_22h53.50.426,Simcolourproject_2stim_asymm_v5,2020.2.10,MacIntel,60,61025ae37ef11b136ea224fe,,,,,,,,,2741,35.171875,78.015625,1,0,0,response1disk,,7,2.66015625,-13.65234375,1,0,0,rectangle,2.66015625,-13.65234375,1,0,0,2.66015625,-13.65234375,1,0,0,0,24,24,121,1,,,,,,,,
,,,,,,,,,,,,,FF,,,,,,,,0.651784999,,,,,,,,,,,,,,,,,,,,,,60ff7965b012696c1357219c,61036979e5e98a764026aa26,2021-07-29_22h53.50.426,Simcolourproject_2stim_asymm_v5,2020.2.10,MacIntel,60,61025ae37ef11b136ea224fe,,,,,,,,,2697,51.08984375,105.1289063,1,0,0,response1disk,,7,4.6796875,1.9609375,1,0,0,rectangle,4.6796875,1.9609375,1,0,0,4.6796875,1.9609375,1,0,0,0,25,25,23,1,,,,,,,,
,,,,,,,,,,,,,FF,,,,,,,,1.60178,,,,,,,,,,,,,,,,,,,,,,60ff7965b012696c1357219c,61036979e5e98a764026aa26,2021-07-29_22h53.50.426,Simcolourproject_2stim_asymm_v5,2020.2.10,MacIntel,60,61025ae37ef11b136ea224fe,,,,,,,,,4030,87.84375,32.8828125,1,0,0,response1disk,,6,5.30859375,-14.703125,1,0,0,rectangle,5.30859375,-14.703125,1,0,0,5.30859375,-14.703125,1,0,0,0,26,26,11,1,,,,,,,,
,,,,,,,,,,,,,FF,,,,,,,,0.76725,,,,,,,,,,,,,,,,,,,,,,60ff7965b012696c1357219c,61036979e5e98a764026aa26,2021-07-29_22h53.50.426,Simcolourproject_2stim_asymm_v5,2020.2.10,MacIntel,60,61025ae37ef11b136ea224fe,,,,,,,,,1815,-48.37890625,83.12109375,1,0,0,response7disk,,0,0.5,8.44921875,1,0,0,rectangle,0.5,8.44921875,1,0,0,0.5,8.44921875,1,0,0,0,27,27,71,1,,,,,,,,
,,,,,,,,,,,,,FF,,,,,,,,0.816339999,,,,,,,,,,,,,,,,,,,,,,60ff7965b012696c1357219c,61036979e5e98a764026aa26,2021-07-29_22h53.50.426,Simcolourproject_2stim_asymm_v5,2020.2.10,MacIntel,60,61025ae37ef11b136ea224fe,,,,,,,,,28,36.6796875,89.21875,1,0,0,response1disk,,7,6.35546875,-1.52734375,1,0,0,rectangle,6.35546875,-1.52734375,1,0,0,6.35546875,-1.52734375,1,0,0,0,28,28,123,1,,,,,,,,
,,,,,,,,,,,,,FF,,,,,,,,0.767010001,,,,,,,,,,,,,,,,,,,,,,60ff7965b012696c1357219c,61036979e5e98a764026aa26,2021-07-29_22h53.50.426,Simcolourproject_2stim_asymm_v5,2020.2.10,MacIntel,60,61025ae37ef11b136ea224fe,,,,,,,,,2308,40.90234375,75.6484375,1,0,0,response1disk,,7,-2.55859375,-13.91796875,1,0,0,rectangle,-2.55859375,-13.91796875,1,0,0,-2.55859375,-13.91796875,1,0,0,0,29,29,120,1,,,,,,,,
,,,,,,,,,,,,,FF,,,,,,,,0.967785,,,,,,,,,,,,,,,,,,,,,,60ff7965b012696c1357219c,61036979e5e98a764026aa26,2021-07-29_22h53.50.426,Simcolourproject_2stim_asymm_v5,2020.2.10,MacIntel,60,61025ae37ef11b136ea224fe,,,,,,,,,376,31.75,73.375,1,0,0,response1disk,,7,15.12890625,3.05859375,1,0,0,rectangle,15.12890625,3.05859375,1,0,0,15.12890625,3.05859375,1,0,0,0,30,30,24,1,,,,,,,,
,,,,,,,,,,,,,FF,,,,,,,,0.734935,,,,,,,,,,,,,,,,,,,,,,60ff7965b012696c1357219c,61036979e5e98a764026aa26,2021-07-29_22h53.50.426,Simcolourproject_2stim_asymm_v5,2020.2.10,MacIntel,60,61025ae37ef11b136ea224fe,,,,,,,,,688,39.19921875,66.24609375,1,0,0,response1disk,,7,9.44140625,-9.55078125,1,0,0,rectangle,9.44140625,-9.55078125,1,0,0,9.44140625,-9.55078125,1,0,0,0,31,31,35,1,,,,,,,,
,,,,,,,,,,,,,FF,,,,,,,,0.817555,,,,,,,,,,,,,,,,,,,,,,60ff7965b012696c1357219c,61036979e5e98a764026aa26,2021-07-29_22h53.50.426,Simcolourproject_2stim_asymm_v5,2020.2.10,MacIntel,60,61025ae37ef11b136ea224fe,,,,,,,,,2259,34.45703125,68.87109375,1,0,0,response1disk,,7,2.6796875,-14.1796875,1,0,0,rectangle,2.6796875,-14.1796875,1,0,0,2.6796875,-14.1796875,1,0,0,0,32,32,111,1,,,,,,,,
,,,,,,,,,,,,,FF,,,,,,,,1.449955,,,,,,,,,,,,,,,,,,,,,,60ff7965b012696c1357219c,61036979e5e98a764026aa26,2021-07-29_22h53.50.426,Simcolourproject_2stim_asymm_v5,2020.2.10,MacIntel,60,61025ae37ef11b136ea224fe,,,,,,,,,3392,66.70703125,-31.70703125,1,0,0,response3disk,,5,3.3671875,6.5234375,1,0,0,rectangle,3.3671875,6.5234375,1,0,0,3.3671875,6.5234375,1,0,0,0,33,33,78,1,,,,,,,,
,,,,,,,,,,,,,FF,,,,,,,,0.65046,,,,,,,,,,,,,,,,,,,,,,60ff7965b012696c1357219c,61036979e5e98a764026aa26,2021-07-29_22h53.50.426,Simcolourproject_2stim_asymm_v5,2020.2.10,MacIntel,60,61025ae37ef11b136ea224fe,,,,,,,,,56,26.39453125,95.24609375,1,0,0,response1disk,,7,5.65234375,1.46875,1,0,0,rectangle,5.65234375,1.46875,1,0,0,5.65234375,1.46875,1,0,0,0,34,34,110,1,,,,,,,,
,,,,,,,,,,,,,FF,,,,,,,,1.23381,,,,,,,,,,,,,,,,,,,,,,60ff7965b012696c1357219c,61036979e5e98a764026aa26,2021-07-29_22h53.50.426,Simcolourproject_2stim_asymm_v5,2020.2.10,MacIntel,60,61025ae37ef11b136ea224fe,,,,,,,,,1679,83.23046875,-37.62109375,1,0,0,response3disk,,5,-3.2265625,-8.19921875,1,0,0,rectangle,95.64453125,39.89453125,1,0,0,8.78515625,-12.453125,1,0,0,0,35,35,73,1,,response1disk_3,TRUE,6,6,"[246,183,6,236,95,149,94,245,227,119,266,192,62,151,80,36,286,319,249,13]",1.500235,rectangle
,,,,,,,,,,,,,FF,,,,,,,,1.784725,,,,,,,,,,,,,,,,,,,,,,60ff7965b012696c1357219c,61036979e5e98a764026aa26,2021-07-29_22h53.50.426,Simcolourproject_2stim_asymm_v5,2020.2.10,MacIntel,60,61025ae37ef11b136ea224fe,,,,,,,,,4221,50.72265625,52.578125,1,0,0,response1disk,,7,-7.07421875,-5.31640625,1,0,0,rectangle,-7.07421875,-5.31640625,1,0,0,-7.07421875,-5.31640625,1,0,0,0,36,36,34,1,,,,,,,,
,,,,,,,,,,,,,FF,,,,,,,,0.96611,,,,,,,,,,,,,,,,,,,,,,60ff7965b012696c1357219c,61036979e5e98a764026aa26,2021-07-29_22h53.50.426,Simcolourproject_2stim_asymm_v5,2020.2.10,MacIntel,60,61025ae37ef11b136ea224fe,,,,,,,,,3061,35.54296875,66.41796875,1,0,0,response1disk,,7,4.96875,8.828125,1,0,0,rectangle,4.96875,8.828125,1,0,0,4.96875,8.828125,1,0,0,0,37,37,32,1,,,,,,,,
,,,,,,,,,,,,,FF,,,,,,,,0.716105,,,,,,,,,,,,,,,,,,,,,,60ff7965b012696c1357219c,61036979e5e98a764026aa26,2021-07-29_22h53.50.426,Simcolourproject_2stim_asymm_v5,2020.2.10,MacIntel,60,61025ae37ef11b136ea224fe,,,,,,,,,3789,35.0625,78.73046875,1,0,0,response1disk,,7,11.890625,-0.56640625,1,0,0,rectangle,11.890625,-0.56640625,1,0,0,11.890625,-0.56640625,1,0,0,0,38,38,157,1,,,,,,,,
,,,,,,,,,,,,,FF,,,,,,,,0.750965,,,,,,,,,,,,,,,,,,,,,,60ff7965b012696c1357219c,61036979e5e98a764026aa26,2021-07-29_22h53.50.426,Simcolourproject_2stim_asymm_v5,2020.2.10,MacIntel,60,61025ae37ef11b136ea224fe,,,,,,,,,1463,48.15234375,79.19140625,1,0,0,response1disk,,7,8.44140625,-12.44140625,1,0,0,rectangle,8.44140625,-12.44140625,1,0,0,8.44140625,-12.44140625,1,0,0,0,39,39,85,1,,,,,,,,
,,,,,,,,,,,,,FF,,,,,,,,0.6664,,,,,,,,,,,,,,,,,,,,,,60ff7965b012696c1357219c,61036979e5e98a764026aa26,2021-07-29_22h53.50.426,Simcolourproject_2stim_asymm_v5,2020.2.10,MacIntel,60,61025ae37ef11b136ea224fe,,,,,,,,,400,37.30078125,75.91015625,1,0,0,response1disk,,7,3.203125,-1.95703125,1,0,0,rectangle,3.203125,-1.95703125,1,0,0,3.203125,-1.95703125,1,0,0,0,40,40,10,1,,,,,,,,
,,,,,,,,,,,,,FF,,,,,,,,1.267035,,,,,,,,,,,,,,,,,,,,,,60ff7965b012696c1357219c,61036979e5e98a764026aa26,2021-07-29_22h53.50.426,Simcolourproject_2stim_asymm_v5,2020.2.10,MacIntel,60,61025ae37ef11b136ea224fe,,,,,,,,,2882,77.69921875,46.57421875,1,0,0,response1disk,,6,7.8125,-9.46875,1,0,0,rectangle,7.8125,-9.46875,1,0,0,7.8125,-9.46875,1,0,0,0,41,41,148,1,,,,,,,,
,,,,,,,,,,,,,FF,,,,,,,,1.099275,,,,,,,,,,,,,,,,,,,,,,60ff7965b012696c1357219c,61036979e5e98a764026aa26,2021-07-29_22h53.50.426,Simcolourproject_2stim_asymm_v5,2020.2.10,MacIntel,60,61025ae37ef11b136ea224fe,,,,,,,,,984,30.953125,69.37890625,1,0,0,response1disk,,7,4.35546875,-7.6328125,1,0,0,rectangle,4.35546875,-7.6328125,1,0,0,4.35546875,-7.6328125,1,0,0,0,42,42,48,1,,,,,,,,
,,,,,,,,,,,,,FF,,,,,,,,0.585144999,,,,,,,,,,,,,,,,,,,,,,60ff7965b012696c1357219c,61036979e5e98a764026aa26,2021-07-29_22h53.50.426,Simcolourproject_2stim_asymm_v5,2020.2.10,MacIntel,60,61025ae37ef11b136ea224fe,,,,,,,,,2453,45.57421875,53.71484375,1,0,0,response1disk,,7,4.58203125,-10.3515625,1,0,0,rectangle,4.58203125,-10.3515625,1,0,0,4.58203125,-10.3515625,1,0,0,0,43,43,84,1,,,,,,,,
,,,,,,,,,,,,,FF,,,,,,,,0.650730001,,,,,,,,,,,,,,,,,,,,,,60ff7965b012696c1357219c,61036979e5e98a764026aa26,2021-07-29_22h53.50.426,Simcolourproject_2stim_asymm_v5,2020.2.10,MacIntel,60,61025ae37ef11b136ea224fe,,,,,,,,,4036,29.05078125,67.03515625,1,0,0,response1disk,,7,5.6953125,3.203125,1,0,0,rectangle,5.6953125,3.203125,1,0,0,5.6953125,3.203125,1,0,0,0,44,44,86,1,,,,,,,,
,,,,,,,,,,,,,FF,,,,,,,,1.285385,,,,,,,,,,,,,,,,,,,,,,60ff7965b012696c1357219c,61036979e5e98a764026aa26,2021-07-29_22h53.50.426,Simcolourproject_2stim_asymm_v5,2020.2.10,MacIntel,60,61025ae37ef11b136ea224fe,,,,,,,,,2228,-82.25,-52.16015625,1,0,0,response5disk,,2,10.92578125,-12.48046875,1,0,0,rectangle,10.92578125,-12.48046875,1,0,0,10.92578125,-12.48046875,1,0,0,0,45,45,8,1,,,,,,,,
,,,,,,,,,,,,,FF,,,,,,,,0.715720001,,,,,,,,,,,,,,,,,,,,,,60ff7965b012696c1357219c,61036979e5e98a764026aa26,2021-07-29_22h53.50.426,Simcolourproject_2stim_asymm_v5,2020.2.10,MacIntel,60,61025ae37ef11b136ea224fe,,,,,,,,,1096,42.35546875,76.96875,1,0,0,response1disk,,7,3.34765625,-4.05859375,1,0,0,rectangle,3.34765625,-4.05859375,1,0,0,3.34765625,-4.05859375,1,0,0,0,46,46,55,1,,,,,,,,
,,,,,,,,,,,,,FF,,,,,,,,0.950415,,,,,,,,,,,,,,,,,,,,,,60ff7965b012696c1357219c,61036979e5e98a764026aa26,2021-07-29_22h53.50.426,Simcolourproject_2stim_asymm_v5,2020.2.10,MacIntel,60,61025ae37ef11b136ea224fe,,,,,,,,,1775,25.21875,67.09765625,1,0,0,response1disk,,7,2.6171875,-2.54296875,1,0,0,rectangle,2.6171875,-2.54296875,1,0,0,2.6171875,-2.54296875,1,0,0,0,47,47,104,1,,,,,,,,
,,,,,,,,,,,,,FF,,,,,,,,0.600145,,,,,,,,,,,,,,,,,,,,,,60ff7965b012696c1357219c,61036979e5e98a764026aa26,2021-07-29_22h53.50.426,Simcolourproject_2stim_asymm_v5,2020.2.10,MacIntel,60,61025ae37ef11b136ea224fe,,,,,,,,,2815,26.6640625,70.3203125,1,0,0,response1disk,,7,-0.1640625,-3.58203125,1,0,0,rectangle,-0.1640625,-3.58203125,1,0,0,-0.1640625,-3.58203125,1,0,0,0,48,48,29,1,,,,,,,,
,,,,,,,,,,,,,FF,,,,,,,,2.167804999,,,,,,,,,,,,,,,,,,,,,,60ff7965b012696c1357219c,61036979e5e98a764026aa26,2021-07-29_22h53.50.426,Simcolourproject_2stim_asymm_v5,2020.2.10,MacIntel,60,61025ae37ef11b136ea224fe,,,,,,,,,4052,-60.16796875,-77.91796875,1,0,0,response5disk,,3,14.8203125,-9.0234375,1,0,0,rectangle,14.8203125,-9.0234375,1,0,0,14.8203125,-9.0234375,1,0,0,0,49,49,17,1,,,,,,,,
,,,,,,,,,,,,,FF,,,,,,,,0.59987,,,,,,,,,,,,,,,,,,,,,,60ff7965b012696c1357219c,61036979e5e98a764026aa26,2021-07-29_22h53.50.426,Simcolourproject_2stim_asymm_v5,2020.2.10,MacIntel,60,61025ae37ef11b136ea224fe,,,,,,,,,2255,49.39453125,79.12890625,1,0,0,response1disk,,7,16.91796875,-1.58984375,1,0,0,rectangle,16.91796875,-1.58984375,1,0,0,16.91796875,-1.58984375,1,0,0,0,50,50,66,1,,,,,,,,
,,,,,,,,,,,,,FF,,,,,,,,0.63277,,,,,,,,,,,,,,,,,,,,,,60ff7965b012696c1357219c,61036979e5e98a764026aa26,2021-07-29_22h53.50.426,Simcolourproject_2stim_asymm_v5,2020.2.10,MacIntel,60,61025ae37ef11b136ea224fe,,,,,,,,,3069,33.21484375,73.8359375,1,0,0,response1disk,,7,9.89453125,-4.90234375,1,0,0,rectangle,9.89453125,-4.90234375,1,0,0,9.89453125,-4.90234375,1,0,0,0,51,51,42,1,,,,,,,,
,,,,,,,,,,,,,FF,,,,,,,,0.75032,,,,,,,,,,,,,,,,,,,,,,60ff7965b012696c1357219c,61036979e5e98a764026aa26,2021-07-29_22h53.50.426,Simcolourproject_2stim_asymm_v5,2020.2.10,MacIntel,60,61025ae37ef11b136ea224fe,,,,,,,,,2885,37.29296875,98.87109375,1,0,0,response1disk,,7,-2.41796875,-4.9453125,1,0,0,rectangle,-2.41796875,-4.9453125,1,0,0,-2.41796875,-4.9453125,1,0,0,0,52,52,150,1,,,,,,,,
,,,,,,,,,,,,,FF,,,,,,,,0.952685,,,,,,,,,,,,,,,,,,,,,,60ff7965b012696c1357219c,61036979e5e98a764026aa26,2021-07-29_22h53.50.426,Simcolourproject_2stim_asymm_v5,2020.2.10,MacIntel,60,61025ae37ef11b136ea224fe,,,,,,,,,4255,-27.10546875,-78.67578125,1,0,0,response5disk,,3,15.7265625,-6.2265625,1,0,0,rectangle,15.7265625,-6.2265625,1,0,0,15.7265625,-6.2265625,1,0,0,0,53,53,124,1,,,,,,,,
,,,,,,,,,,,,,FF,,,,,,,,0.601155,,,,,,,,,,,,,,,,,,,,,,60ff7965b012696c1357219c,61036979e5e98a764026aa26,2021-07-29_22h53.50.426,Simcolourproject_2stim_asymm_v5,2020.2.10,MacIntel,60,61025ae37ef11b136ea224fe,,,,,,,,,1869,25.390625,69.25,1,0,0,response1disk,,7,0.703125,-6.93359375,1,0,0,rectangle,0.703125,-6.93359375,1,0,0,0.703125,-6.93359375,1,0,0,0,54,54,93,1,,,,,,,,
,,,,,,,,,,,,,FF,,,,,,,,0.8673,,,,,,,,,,,,,,,,,,,,,,60ff7965b012696c1357219c,61036979e5e98a764026aa26,2021-07-29_22h53.50.426,Simcolourproject_2stim_asymm_v5,2020.2.10,MacIntel,60,61025ae37ef11b136ea224fe,,,,,,,,,3978,-24.078125,-71.9765625,1,0,0,response5disk,,3,7.25,4.234375,1,0,0,rectangle,7.25,4.234375,1,0,0,7.25,4.234375,1,0,0,0,55,55,146,1,,,,,,,,
,,,,,,,,,,,,,FF,,,,,,,,0.767215,,,,,,,,,,,,,,,,,,,,,,60ff7965b012696c1357219c,61036979e5e98a764026aa26,2021-07-29_22h53.50.426,Simcolourproject_2stim_asymm_v5,2020.2.10,MacIntel,60,61025ae37ef11b136ea224fe,,,,,,,,,312,39.81640625,84.91796875,1,0,0,response1disk,,7,4.84375,-7.30859375,1,0,0,rectangle,4.84375,-7.30859375,1,0,0,4.84375,-7.30859375,1,0,0,0,56,56,128,1,,,,,,,,
,,,,,,,,,,,,,FF,,,,,,,,0.60293,,,,,,,,,,,,,,,,,,,,,,60ff7965b012696c1357219c,61036979e5e98a764026aa26,2021-07-29_22h53.50.426,Simcolourproject_2stim_asymm_v5,2020.2.10,MacIntel,60,61025ae37ef11b136ea224fe,,,,,,,,,4333,35.87109375,87.921875,1,0,0,response1disk,,7,2.60546875,-2.8046875,1,0,0,rectangle,2.60546875,-2.8046875,1,0,0,2.60546875,-2.8046875,1,0,0,0,57,57,69,1,,,,,,,,
,,,,,,,,,,,,,FF,,,,,,,,0.583965001,,,,,,,,,,,,,,,,,,,,,,60ff7965b012696c1357219c,61036979e5e98a764026aa26,2021-07-29_22h53.50.426,Simcolourproject_2stim_asymm_v5,2020.2.10,MacIntel,60,61025ae37ef11b136ea224fe,,,,,,,,,3687,32.95703125,83.59375,1,0,0,response1disk,,7,10.55078125,1.91796875,1,0,0,rectangle,10.55078125,1.91796875,1,0,0,10.55078125,1.91796875,1,0,0,0,58,58,94,1,,,,,,,,
,,,,,,,,,,,,,FF,,,,,,,,0.850855,,,,,,,,,,,,,,,,,,,,,,60ff7965b012696c1357219c,61036979e5e98a764026aa26,2021-07-29_22h53.50.426,Simcolourproject_2stim_asymm_v5,2020.2.10,MacIntel,60,61025ae37ef11b136ea224fe,,,,,,,,,2306,61.62890625,-30.1328125,1,0,0,response3disk,,5,4.23828125,-4.3125,1,0,0,rectangle,4.23828125,-4.3125,1,0,0,4.23828125,-4.3125,1,0,0,0,59,59,74,1,,,,,,,,
,,,,,,,,,,,,,FF,,,,,,,,1.41658,,,,,,,,,,,,,,,,,,,,,,60ff7965b012696c1357219c,61036979e5e98a764026aa26,2021-07-29_22h53.50.426,Simcolourproject_2stim_asymm_v5,2020.2.10,MacIntel,60,61025ae37ef11b136ea224fe,,,,,,,,,3838,22.17578125,70,1,0,0,response1disk,,7,-1.9921875,-6.4765625,1,0,0,rectangle,-1.9921875,-6.4765625,1,0,0,-1.9921875,-6.4765625,1,0,0,0,60,60,65,1,,,,,,,,
,,,,,,,,,,,,,FF,,,,,,,,0.750144999,,,,,,,,,,,,,,,,,,,,,,60ff7965b012696c1357219c,61036979e5e98a764026aa26,2021-07-29_22h53.50.426,Simcolourproject_2stim_asymm_v5,2020.2.10,MacIntel,60,61025ae37ef11b136ea224fe,,,,,,,,,3158,36.171875,68.01171875,1,0,0,response1disk,,7,3.22265625,-6.9453125,1,0,0,rectangle,40.3125,84.04296875,1,0,0,4.84375,-5.57421875,1,0,0,0,61,61,127,1,,response1disk_3,TRUE,7,7,"[246,183,6,236,95,149,94,245,227,119,266,192,62,151,80,36,286,319,249,13]",1.467639999,rectangle
,,,,,,,,,,,,,FF,,,,,,,,0.783345,,,,,,,,,,,,,,,,,,,,,,60ff7965b012696c1357219c,61036979e5e98a764026aa26,2021-07-29_22h53.50.426,Simcolourproject_2stim_asymm_v5,2020.2.10,MacIntel,60,61025ae37ef11b136ea224fe,,,,,,,,,2912,40.00390625,83.34375,1,0,0,response1disk,,7,7.39453125,0.3828125,1,0,0,rectangle,7.39453125,0.3828125,1,0,0,7.39453125,0.3828125,1,0,0,0,62,62,147,1,,,,,,,,
,,,,,,,,,,,,,FF,,,,,,,,1.433604999,,,,,,,,,,,,,,,,,,,,,,60ff7965b012696c1357219c,61036979e5e98a764026aa26,2021-07-29_22h53.50.426,Simcolourproject_2stim_asymm_v5,2020.2.10,MacIntel,60,61025ae37ef11b136ea224fe,,,,,,,,,3718,29.984375,63.515625,1,0,0,response1disk,,7,-2.2265625,1.48046875,1,0,0,rectangle,-2.2265625,1.48046875,1,0,0,-2.2265625,1.48046875,1,0,0,0,63,63,125,1,,,,,,,,
,,,,,,,,,,,,,FF,,,,,,,,0.717945,,,,,,,,,,,,,,,,,,,,,,60ff7965b012696c1357219c,61036979e5e98a764026aa26,2021-07-29_22h53.50.426,Simcolourproject_2stim_asymm_v5,2020.2.10,MacIntel,60,61025ae37ef11b136ea224fe,,,,,,,,,3873,31.04296875,78.88671875,1,0,0,response1disk,,7,5.09765625,-4.67578125,1,0,0,rectangle,5.09765625,-4.67578125,1,0,0,5.09765625,-4.67578125,1,0,0,0,64,64,139,1,,,,,,,,
,,,,,,,,,,,,,FF,,,,,,,,0.566715,,,,,,,,,,,,,,,,,,,,,,60ff7965b012696c1357219c,61036979e5e98a764026aa26,2021-07-29_22h53.50.426,Simcolourproject_2stim_asymm_v5,2020.2.10,MacIntel,60,61025ae37ef11b136ea224fe,,,,,,,,,770,38.984375,71.9140625,1,0,0,response1disk,,7,8.11328125,0.03515625,1,0,0,rectangle,8.11328125,0.03515625,1,0,0,8.11328125,0.03515625,1,0,0,0,65,65,122,1,,,,,,,,
,,,,,,,,,,,,,FF,,,,,,,,0.933759999,,,,,,,,,,,,,,,,,,,,,,60ff7965b012696c1357219c,61036979e5e98a764026aa26,2021-07-29_22h53.50.426,Simcolourproject_2stim_asymm_v5,2020.2.10,MacIntel,60,61025ae37ef11b136ea224fe,,,,,,,,,489,36.703125,79.3671875,1,0,0,response1disk,,7,13.640625,-2.8046875,1,0,0,rectangle,13.640625,-2.8046875,1,0,0,13.640625,-2.8046875,1,0,0,0,66,66,59,1,,,,,,,,
,,,,,,,,,,,,,FF,,,,,,,,0.929795,,,,,,,,,,,,,,,,,,,,,,60ff7965b012696c1357219c,61036979e5e98a764026aa26,2021-07-29_22h53.50.426,Simcolourproject_2stim_asymm_v5,2020.2.10,MacIntel,60,61025ae37ef11b136ea224fe,,,,,,,,,1879,32.9296875,94.9140625,1,0,0,response1disk,,7,-17.9765625,6.66796875,1,0,0,rectangle,-17.9765625,6.66796875,1,0,0,-17.9765625,6.66796875,1,0,0,0,67,67,26,1,,,,,,,,
,,,,,,,,,,,,,FF,,,,,,,,0.649385,,,,,,,,,,,,,,,,,,,,,,60ff7965b012696c1357219c,61036979e5e98a764026aa26,2021-07-29_22h53.50.426,Simcolourproject_2stim_asymm_v5,2020.2.10,MacIntel,60,61025ae37ef11b136ea224fe,,,,,,,,,2158,16.0859375,74.45703125,1,0,0,response1disk,,7,9.3828125,-10.88671875,1,0,0,rectangle,9.3828125,-10.88671875,1,0,0,9.3828125,-10.88671875,1,0,0,0,68,68,116,1,,,,,,,,
,,,,,,,,,,,,,FF,,,,,,,,0.617515001,,,,,,,,,,,,,,,,,,,,,,60ff7965b012696c1357219c,61036979e5e98a764026aa26,2021-07-29_22h53.50.426,Simcolourproject_2stim_asymm_v5,2020.2.10,MacIntel,60,61025ae37ef11b136ea224fe,,,,,,,,,3495,27.2734375,63.81640625,1,0,0,response1disk,,7,14.0546875,-2.98046875,1,0,0,rectangle,14.0546875,-2.98046875,1,0,0,14.0546875,-2.98046875,1,0,0,0,69,69,28,1,,,,,,,,
,,,,,,,,,,,,,FF,,,,,,,,1.0842,,,,,,,,,,,,,,,,,,,,,,60ff7965b012696c1357219c,61036979e5e98a764026aa26,2021-07-29_22h53.50.426,Simcolourproject_2stim_asymm_v5,2020.2.10,MacIntel,60,61025ae37ef11b136ea224fe,,,,,,,,,4075,81.1640625,42.89453125,1,0,0,response1disk,,6,4.89453125,-6.14453125,1,0,0,rectangle,4.89453125,-6.14453125,1,0,0,4.89453125,-6.14453125,1,0,0,0,70,70,39,1,,,,,,,,
,,,,,,,,,,,,,FF,,,,,,,,0.58358,,,,,,,,,,,,,,,,,,,,,,60ff7965b012696c1357219c,61036979e5e98a764026aa26,2021-07-29_22h53.50.426,Simcolourproject_2stim_asymm_v5,2020.2.10,MacIntel,60,61025ae37ef11b136ea224fe,,,,,,,,,1238,43.07421875,88.5625,1,0,0,response1disk,,7,14.828125,11.671875,1,0,0,rectangle,14.828125,11.671875,1,0,0,14.828125,11.671875,1,0,0,0,71,71,46,1,,,,,,,,
,,,,,,,,,,,,,FF,,,,,,,,0.450425,,,,,,,,,,,,,,,,,,,,,,60ff7965b012696c1357219c,61036979e5e98a764026aa26,2021-07-29_22h53.50.426,Simcolourproject_2stim_asymm_v5,2020.2.10,MacIntel,60,61025ae37ef11b136ea224fe,,,,,,,,,3129,55.58984375,95.1796875,1,0,0,response1disk,,7,11.38671875,9.65625,1,0,0,rectangle,11.38671875,9.65625,1,0,0,11.38671875,9.65625,1,0,0,0,72,72,54,1,,,,,,,,
,,,,,,,,,,,,,FF,,,,,,,,0.483095,,,,,,,,,,,,,,,,,,,,,,60ff7965b012696c1357219c,61036979e5e98a764026aa26,2021-07-29_22h53.50.426,Simcolourproject_2stim_asymm_v5,2020.2.10,MacIntel,60,61025ae37ef11b136ea224fe,,,,,,,,,404,40.203125,84.94140625,1,0,0,response1disk,,7,8.83203125,0.94140625,1,0,0,rectangle,8.83203125,0.94140625,1,0,0,8.83203125,0.94140625,1,0,0,0,73,73,79,1,,,,,,,,
,,,,,,,,,,,,,FF,,,,,,,,0.568545001,,,,,,,,,,,,,,,,,,,,,,60ff7965b012696c1357219c,61036979e5e98a764026aa26,2021-07-29_22h53.50.426,Simcolourproject_2stim_asymm_v5,2020.2.10,MacIntel,60,61025ae37ef11b136ea224fe,,,,,,,,,781,42.171875,70.09765625,1,0,0,response1disk,,7,7.32421875,-15.66015625,1,0,0,rectangle,7.32421875,-15.66015625,1,0,0,7.32421875,-15.66015625,1,0,0,0,74,74,151,1,,,,,,,,
,,,,,,,,,,,,,FF,,,,,,,,0.450215,,,,,,,,,,,,,,,,,,,,,,60ff7965b012696c1357219c,61036979e5e98a764026aa26,2021-07-29_22h53.50.426,Simcolourproject_2stim_asymm_v5,2020.2.10,MacIntel,60,61025ae37ef11b136ea224fe,,,,,,,,,218,44.08984375,86.69921875,1,0,0,response1disk,,7,6.26171875,8.64453125,1,0,0,rectangle,6.26171875,8.64453125,1,0,0,6.26171875,8.64453125,1,0,0,0,75,75,87,1,,,,,,,,
,,,,,,,,,,,,,FF,,,,,,,,0.434175001,,,,,,,,,,,,,,,,,,,,,,60ff7965b012696c1357219c,61036979e5e98a764026aa26,2021-07-29_22h53.50.426,Simcolourproject_2stim_asymm_v5,2020.2.10,MacIntel,60,61025ae37ef11b136ea224fe,,,,,,,,,8,43.640625,78.4921875,1,0,0,response1disk,,7,12.46875,-0.82421875,1,0,0,rectangle,12.46875,-0.82421875,1,0,0,12.46875,-0.82421875,1,0,0,0,76,76,19,1,,,,,,,,
,,,,,,,,,,,,,FF,,,,,,,,0.53614,,,,,,,,,,,,,,,,,,,,,,60ff7965b012696c1357219c,61036979e5e98a764026aa26,2021-07-29_22h53.50.426,Simcolourproject_2stim_asymm_v5,2020.2.10,MacIntel,60,61025ae37ef11b136ea224fe,,,,,,,,,669,33.76953125,71.41796875,1,0,0,response1disk,,7,8.5625,-2.6640625,1,0,0,rectangle,8.5625,-2.6640625,1,0,0,8.5625,-2.6640625,1,0,0,0,77,77,154,1,,,,,,,,
,,,,,,,,,,,,,FF,,,,,,,,0.654285,,,,,,,,,,,,,,,,,,,,,,60ff7965b012696c1357219c,61036979e5e98a764026aa26,2021-07-29_22h53.50.426,Simcolourproject_2stim_asymm_v5,2020.2.10,MacIntel,60,61025ae37ef11b136ea224fe,,,,,,,,,359,32.0859375,77.48046875,1,0,0,response1disk,,7,4.22265625,-1.9375,1,0,0,rectangle,4.22265625,-1.9375,1,0,0,4.22265625,-1.9375,1,0,0,0,78,78,100,1,,,,,,,,
,,,,,,,,,,,,,FF,,,,,,,,0.51686,,,,,,,,,,,,,,,,,,,,,,60ff7965b012696c1357219c,61036979e5e98a764026aa26,2021-07-29_22h53.50.426,Simcolourproject_2stim_asymm_v5,2020.2.10,MacIntel,60,61025ae37ef11b136ea224fe,,,,,,,,,2991,32.2890625,75.265625,1,0,0,response1disk,,7,3.6171875,0.84375,1,0,0,rectangle,61.98046875,-40.5859375,1,0,0,6.62890625,0.46875,1,0,0,0,79,79,13,1,,response3disk_3,TRUE,5,5,"[246,183,6,236,95,149,94,245,227,119,266,192,62,151,80,36,286,319,249,13]",1.425605,rectangle
,,,,,,,,,,,,,FF,,,,,,,,1.083729999,,,,,,,,,,,,,,,,,,,,,,60ff7965b012696c1357219c,61036979e5e98a764026aa26,2021-07-29_22h53.50.426,Simcolourproject_2stim_asymm_v5,2020.2.10,MacIntel,60,61025ae37ef11b136ea224fe,,,,,,,,,3951,65.328125,-41.05859375,1,0,0,response3disk,,5,2.9375,-6.48828125,1,0,0,rectangle,2.9375,-6.48828125,1,0,0,2.9375,-6.48828125,1,0,0,0,80,80,7,1,,,,,,,,
,,,,,,,,,,,,,FF,,,,,,,,1.46814,,,,,,,,,,,,,,,,,,,,,,60ff7965b012696c1357219c,61036979e5e98a764026aa26,2021-07-29_22h53.50.426,Simcolourproject_2stim_asymm_v5,2020.2.10,MacIntel,60,61025ae37ef11b136ea224fe,,,,,,,,,3092,75.5625,-48.58984375,1,0,0,response3disk,,5,6.88671875,-4.87109375,1,0,0,rectangle,6.88671875,-4.87109375,1,0,0,6.88671875,-4.87109375,1,0,0,0,81,81,153,1,,,,,,,,
,,,,,,,,,,,,,FF,,,,,,,,0.602519999,,,,,,,,,,,,,,,,,,,,,,60ff7965b012696c1357219c,61036979e5e98a764026aa26,2021-07-29_22h53.50.426,Simcolourproject_2stim_asymm_v5,2020.2.10,MacIntel,60,61025ae37ef11b136ea224fe,,,,,,,,,1802,44.078125,100.0625,1,0,0,response1disk,,7,17.22265625,-3.3828125,1,0,0,rectangle,17.22265625,-3.3828125,1,0,0,17.22265625,-3.3828125,1,0,0,0,82,82,98,1,,,,,,,,
,,,,,,,,,,,,,FF,,,,,,,,0.64911,,,,,,,,,,,,,,,,,,,,,,60ff7965b012696c1357219c,61036979e5e98a764026aa26,2021-07-29_22h53.50.426,Simcolourproject_2stim_asymm_v5,2020.2.10,MacIntel,60,61025ae37ef11b136ea224fe,,,,,,,,,2434,23.2578125,78.99609375,1,0,0,response1disk,,7,10.80078125,2.63671875,1,0,0,rectangle,10.80078125,2.63671875,1,0,0,10.80078125,2.63671875,1,0,0,0,83,83,119,1,,,,,,,,
,,,,,,,,,,,,,FF,,,,,,,,0.56727,,,,,,,,,,,,,,,,,,,,,,60ff7965b012696c1357219c,61036979e5e98a764026aa26,2021-07-29_22h53.50.426,Simcolourproject_2stim_asymm_v5,2020.2.10,MacIntel,60,61025ae37ef11b136ea224fe,,,,,,,,,3347,29.93359375,72.0078125,1,0,0,response1disk,,7,11.6640625,-3.84765625,1,0,0,rectangle,11.6640625,-3.84765625,1,0,0,11.6640625,-3.84765625,1,0,0,0,84,84,109,1,,,,,,,,
,,,,,,,,,,,,,FF,,,,,,,,0.76738,,,,,,,,,,,,,,,,,,,,,,60ff7965b012696c1357219c,61036979e5e98a764026aa26,2021-07-29_22h53.50.426,Simcolourproject_2stim_asymm_v5,2020.2.10,MacIntel,60,61025ae37ef11b136ea224fe,,,,,,,,,1913,37.1953125,62.53125,1,0,0,response1disk,,7,11.828125,-8.6171875,1,0,0,rectangle,11.828125,-8.6171875,1,0,0,11.828125,-8.6171875,1,0,0,0,85,85,145,1,,,,,,,,
,,,,,,,,,,,,,FF,,,,,,,,3.200675,,,,,,,,,,,,,,,,,,,,,,60ff7965b012696c1357219c,61036979e5e98a764026aa26,2021-07-29_22h53.50.426,Simcolourproject_2stim_asymm_v5,2020.2.10,MacIntel,60,61025ae37ef11b136ea224fe,,,,,,,,,625,48.5859375,83.05859375,1,0,0,response1disk,,7,5.84765625,-12.1640625,1,0,0,rectangle,5.84765625,-12.1640625,1,0,0,5.84765625,-12.1640625,1,0,0,0,86,86,126,1,,,,,,,,
,,,,,,,,,,,,,FF,,,,,,,,1.599715,,,,,,,,,,,,,,,,,,,,,,60ff7965b012696c1357219c,61036979e5e98a764026aa26,2021-07-29_22h53.50.426,Simcolourproject_2stim_asymm_v5,2020.2.10,MacIntel,60,61025ae37ef11b136ea224fe,,,,,,,,,2947,30.57421875,-72.515625,1,0,0,response3disk,,4,3.72265625,-5.09375,1,0,0,rectangle,3.72265625,-5.09375,1,0,0,3.72265625,-5.09375,1,0,0,0,87,87,20,1,,,,,,,,
,,,,,,,,,,,,,FF,,,,,,,,1.13461,,,,,,,,,,,,,,,,,,,,,,60ff7965b012696c1357219c,61036979e5e98a764026aa26,2021-07-29_22h53.50.426,Simcolourproject_2stim_asymm_v5,2020.2.10,MacIntel,60,61025ae37ef11b136ea224fe,,,,,,,,,3391,-46.6875,-68.1171875,1,0,0,response5disk,,3,11.1640625,-10.7578125,1,0,0,rectangle,11.1640625,-10.7578125,1,0,0,11.1640625,-10.7578125,1,0,0,0,88,88,44,1,,,,,,,,
,,,,,,,,,,,,,FF,,,,,,,,0.76644,,,,,,,,,,,,,,,,,,,,,,60ff7965b012696c1357219c,61036979e5e98a764026aa26,2021-07-29_22h53.50.426,Simcolourproject_2stim_asymm_v5,2020.2.10,MacIntel,60,61025ae37ef11b136ea224fe,,,,,,,,,755,42.24609375,85.7890625,1,0,0,response1disk,,7,17.65625,8.03515625,1,0,0,rectangle,17.65625,8.03515625,1,0,0,17.65625,8.03515625,1,0,0,0,89,89,137,1,,,,,,,,
,,,,,,,,,,,,,FF,,,,,,,,0.499745,,,,,,,,,,,,,,,,,,,,,,60ff7965b012696c1357219c,61036979e5e98a764026aa26,2021-07-29_22h53.50.426,Simcolourproject_2stim_asymm_v5,2020.2.10,MacIntel,60,61025ae37ef11b136ea224fe,,,,,,,,,1666,40.77734375,90.6640625,1,0,0,response1disk,,7,7.203125,-4.95703125,1,0,0,rectangle,7.203125,-4.95703125,1,0,0,7.203125,-4.95703125,1,0,0,0,90,90,9,1,,,,,,,,
,,,,,,,,,,,,,FF,,,,,,,,1.600769999,,,,,,,,,,,,,,,,,,,,,,60ff7965b012696c1357219c,61036979e5e98a764026aa26,2021-07-29_22h53.50.426,Simcolourproject_2stim_asymm_v5,2020.2.10,MacIntel,60,61025ae37ef11b136ea224fe,,,,,,,,,4354,49.5,73.484375,1,0,0,response1disk,,7,16.6796875,8.73046875,1,0,0,rectangle,16.6796875,8.73046875,1,0,0,16.6796875,8.73046875,1,0,0,0,91,91,14,1,,,,,,,,
,,,,,,,,,,,,,FF,,,,,,,,0.76937,,,,,,,,,,,,,,,,,,,,,,60ff7965b012696c1357219c,61036979e5e98a764026aa26,2021-07-29_22h53.50.426,Simcolourproject_2stim_asymm_v5,2020.2.10,MacIntel,60,61025ae37ef11b136ea224fe,,,,,,,,,2563,37.26953125,76.8203125,1,0,0,response1disk,,7,13.03515625,0.8046875,1,0,0,rectangle,13.03515625,0.8046875,1,0,0,13.03515625,0.8046875,1,0,0,0,92,92,158,1,,,,,,,,
,,,,,,,,,,,,,FF,,,,,,,,0.51817,,,,,,,,,,,,,,,,,,,,,,60ff7965b012696c1357219c,61036979e5e98a764026aa26,2021-07-29_22h53.50.426,Simcolourproject_2stim_asymm_v5,2020.2.10,MacIntel,60,61025ae37ef11b136ea224fe,,,,,,,,,451,14.44140625,62.359375,1,0,0,response1disk,,7,10.03125,1.41015625,1,0,0,rectangle,21.86328125,-92.171875,1,0,0,5.7421875,-5.50390625,1,0,0,0,93,93,50,1,,response3disk_3,TRUE,4,4,"[246,183,6,236,95,149,94,245,227,119,266,192,62,151,80,36,286,319,249,13]",1.36814,rectangle
,,,,,,,,,,,,,FF,,,,,,,,1.05095,,,,,,,,,,,,,,,,,,,,,,60ff7965b012696c1357219c,61036979e5e98a764026aa26,2021-07-29_22h53.50.426,Simcolourproject_2stim_asymm_v5,2020.2.10,MacIntel,60,61025ae37ef11b136ea224fe,,,,,,,,,3088,-20.20703125,-67.56640625,1,0,0,response5disk,,3,5.94140625,-2.875,1,0,0,rectangle,-74.6015625,-41.46875,1,0,0,2.3671875,-5.72265625,1,0,0,0,94,94,25,1,,response5disk_3,TRUE,2,2,"[246,183,6,236,95,149,94,245,227,119,266,192,62,151,80,36,286,319,249,13]",2.80175,rectangle
,,,,,,,,,,,,,FF,,,,,,,,0.867620001,,,,,,,,,,,,,,,,,,,,,,60ff7965b012696c1357219c,61036979e5e98a764026aa26,2021-07-29_22h53.50.426,Simcolourproject_2stim_asymm_v5,2020.2.10,MacIntel,60,61025ae37ef11b136ea224fe,,,,,,,,,1650,34.11328125,73.51953125,1,0,0,response1disk,,7,9.703125,-2.48046875,1,0,0,rectangle,9.703125,-2.48046875,1,0,0,9.703125,-2.48046875,1,0,0,0,95,95,138,1,,,,,,,,
,,,,,,,,,,,,,FF,,,,,,,,0.60002,,,,,,,,,,,,,,,,,,,,,,60ff7965b012696c1357219c,61036979e5e98a764026aa26,2021-07-29_22h53.50.426,Simcolourproject_2stim_asymm_v5,2020.2.10,MacIntel,60,61025ae37ef11b136ea224fe,,,,,,,,,3571,35.5625,83.29296875,1,0,0,response1disk,,7,9.91015625,1.84375,1,0,0,rectangle,9.91015625,1.84375,1,0,0,9.91015625,1.84375,1,0,0,0,96,96,1,1,,,,,,,,
,,,,,,,,,,,,,FF,,,,,,,,1.850145,,,,,,,,,,,,,,,,,,,,,,60ff7965b012696c1357219c,61036979e5e98a764026aa26,2021-07-29_22h53.50.426,Simcolourproject_2stim_asymm_v5,2020.2.10,MacIntel,60,61025ae37ef11b136ea224fe,,,,,,,,,2673,79.78125,37.35546875,1,0,0,response1disk,,6,7.53125,-9.96484375,1,0,0,rectangle,7.53125,-9.96484375,1,0,0,7.53125,-9.96484375,1,0,0,0,97,97,118,1,,,,,,,,
,,,,,,,,,,,,,FF,,,,,,,,1.63435,,,,,,,,,,,,,,,,,,,,,,60ff7965b012696c1357219c,61036979e5e98a764026aa26,2021-07-29_22h53.50.426,Simcolourproject_2stim_asymm_v5,2020.2.10,MacIntel,60,61025ae37ef11b136ea224fe,,,,,,,,,3252,78.5625,-48.44921875,1,0,0,response3disk,,5,-6.01953125,3.1484375,1,0,0,rectangle,-6.01953125,3.1484375,1,0,0,-6.01953125,3.1484375,1,0,0,0,98,98,16,1,,,,,,,,
,,,,,,,,,,,,,FF,,,,,,,,0.633634999,,,,,,,,,,,,,,,,,,,,,,60ff7965b012696c1357219c,61036979e5e98a764026aa26,2021-07-29_22h53.50.426,Simcolourproject_2stim_asymm_v5,2020.2.10,MacIntel,60,61025ae37ef11b136ea224fe,,,,,,,,,1871,26.140625,86.890625,1,0,0,response1disk,,7,3,7.2421875,1,0,0,rectangle,3,7.2421875,1,0,0,3,7.2421875,1,0,0,0,99,99,101,1,,,,,,,,
,,,,,,,,,,,,,FF,,,,,,,,0.616975,,,,,,,,,,,,,,,,,,,,,,60ff7965b012696c1357219c,61036979e5e98a764026aa26,2021-07-29_22h53.50.426,Simcolourproject_2stim_asymm_v5,2020.2.10,MacIntel,60,61025ae37ef11b136ea224fe,,,,,,,,,469,50.3125,97.87890625,1,0,0,response1disk,,7,-2.8671875,-5.85546875,1,0,0,rectangle,-2.8671875,-5.85546875,1,0,0,-2.8671875,-5.85546875,1,0,0,0,100,100,106,1,,,,,,,,
,,,,,,,,,,,,,FF,,,,,,,,0.566175,,,,,,,,,,,,,,,,,,,,,,60ff7965b012696c1357219c,61036979e5e98a764026aa26,2021-07-29_22h53.50.426,Simcolourproject_2stim_asymm_v5,2020.2.10,MacIntel,60,61025ae37ef11b136ea224fe,,,,,,,,,671,52.53515625,66.6875,1,0,0,response1disk,,7,9.34375,-10.79296875,1,0,0,rectangle,9.34375,-10.79296875,1,0,0,9.34375,-10.79296875,1,0,0,0,101,101,43,1,,,,,,,,
,,,,,,,,,,,,,FF,,,,,,,,2.285625,,,,,,,,,,,,,,,,,,,,,,60ff7965b012696c1357219c,61036979e5e98a764026aa26,2021-07-29_22h53.50.426,Simcolourproject_2stim_asymm_v5,2020.2.10,MacIntel,60,61025ae37ef11b136ea224fe,,,,,,,,,3240,67.48046875,-32.07421875,1,0,0,response3disk,,5,-3.6328125,-9.93359375,1,0,0,rectangle,-3.6328125,-9.93359375,1,0,0,-3.6328125,-9.93359375,1,0,0,0,102,102,64,1,,,,,,,,
,,,,,,,,,,,,,FF,,,,,,,,0.966940001,,,,,,,,,,,,,,,,,,,,,,60ff7965b012696c1357219c,61036979e5e98a764026aa26,2021-07-29_22h53.50.426,Simcolourproject_2stim_asymm_v5,2020.2.10,MacIntel,60,61025ae37ef11b136ea224fe,,,,,,,,,3050,-31.09375,-62.90625,1,0,0,response5disk,,3,18.6015625,0.03125,1,0,0,rectangle,18.6015625,0.03125,1,0,0,18.6015625,0.03125,1,0,0,0,103,103,41,1,,,,,,,,
,,,,,,,,,,,,,FF,,,,,,,,0.717875,,,,,,,,,,,,,,,,,,,,,,60ff7965b012696c1357219c,61036979e5e98a764026aa26,2021-07-29_22h53.50.426,Simcolourproject_2stim_asymm_v5,2020.2.10,MacIntel,60,61025ae37ef11b136ea224fe,,,,,,,,,3565,37.02734375,71.80078125,1,0,0,response1disk,,7,7,-1.42578125,1,0,0,rectangle,7,-1.42578125,1,0,0,7,-1.42578125,1,0,0,0,104,104,6,1,,,,,,,,
,,,,,,,,,,,,,FF,,,,,,,,0.531805,,,,,,,,,,,,,,,,,,,,,,60ff7965b012696c1357219c,61036979e5e98a764026aa26,2021-07-29_22h53.50.426,Simcolourproject_2stim_asymm_v5,2020.2.10,MacIntel,60,61025ae37ef11b136ea224fe,,,,,,,,,1003,43.4375,80.91796875,1,0,0,response1disk,,7,9.8359375,-1.29296875,1,0,0,rectangle,9.8359375,-1.29296875,1,0,0,9.8359375,-1.29296875,1,0,0,0,105,105,114,1,,,,,,,,
,,,,,,,,,,,,,FF,,,,,,,,0.56573,,,,,,,,,,,,,,,,,,,,,,60ff7965b012696c1357219c,61036979e5e98a764026aa26,2021-07-29_22h53.50.426,Simcolourproject_2stim_asymm_v5,2020.2.10,MacIntel,60,61025ae37ef11b136ea224fe,,,,,,,,,989,48.7265625,74.49609375,1,0,0,response1disk,,7,16.5,0.5703125,1,0,0,rectangle,16.5,0.5703125,1,0,0,16.5,0.5703125,1,0,0,0,106,106,27,1,,,,,,,,
,,,,,,,,,,,,,FF,,,,,,,,0.566485001,,,,,,,,,,,,,,,,,,,,,,60ff7965b012696c1357219c,61036979e5e98a764026aa26,2021-07-29_22h53.50.426,Simcolourproject_2stim_asymm_v5,2020.2.10,MacIntel,60,61025ae37ef11b136ea224fe,,,,,,,,,1085,29.64453125,69.671875,1,0,0,response1disk,,7,7.08984375,-9.7578125,1,0,0,rectangle,7.08984375,-9.7578125,1,0,0,7.08984375,-9.7578125,1,0,0,0,107,107,36,1,,,,,,,,
,,,,,,,,,,,,,FF,,,,,,,,0.482555,,,,,,,,,,,,,,,,,,,,,,60ff7965b012696c1357219c,61036979e5e98a764026aa26,2021-07-29_22h53.50.426,Simcolourproject_2stim_asymm_v5,2020.2.10,MacIntel,60,61025ae37ef11b136ea224fe,,,,,,,,,736,35.24609375,68.0625,1,0,0,response1disk,,7,8.83203125,1.8984375,1,0,0,rectangle,8.83203125,1.8984375,1,0,0,8.83203125,1.8984375,1,0,0,0,108,108,12,1,,,,,,,,
,,,,,,,,,,,,,FF,,,,,,,,0.516735001,,,,,,,,,,,,,,,,,,,,,,60ff7965b012696c1357219c,61036979e5e98a764026aa26,2021-07-29_22h53.50.426,Simcolourproject_2stim_asymm_v5,2020.2.10,MacIntel,60,61025ae37ef11b136ea224fe,,,,,,,,,3127,43.9765625,77.26171875,1,0,0,response1disk,,7,5.4921875,-5.0703125,1,0,0,rectangle,5.4921875,-5.0703125,1,0,0,5.4921875,-5.0703125,1,0,0,0,109,109,49,1,,,,,,,,
,,,,,,,,,,,,,FF,,,,,,,,0.7173,,,,,,,,,,,,,,,,,,,,,,60ff7965b012696c1357219c,61036979e5e98a764026aa26,2021-07-29_22h53.50.426,Simcolourproject_2stim_asymm_v5,2020.2.10,MacIntel,60,61025ae37ef11b136ea224fe,,,,,,,,,622,45.765625,62.66015625,1,0,0,response1disk,,7,11.0859375,1,1,0,0,rectangle,11.0859375,1,1,0,0,11.0859375,1,1,0,0,0,110,110,0,1,,,,,,,,
,,,,,,,,,,,,,FF,,,,,,,,0.950935001,,,,,,,,,,,,,,,,,,,,,,60ff7965b012696c1357219c,61036979e5e98a764026aa26,2021-07-29_22h53.50.426,Simcolourproject_2stim_asymm_v5,2020.2.10,MacIntel,60,61025ae37ef11b136ea224fe,,,,,,,,,2670,64.05078125,-39.90625,1,0,0,response3disk,,5,4.4453125,-15.74609375,1,0,0,rectangle,4.4453125,-15.74609375,1,0,0,4.4453125,-15.74609375,1,0,0,0,111,111,144,1,,,,,,,,
,,,,,,,,,,,,,FF,,,,,,,,1.051385,,,,,,,,,,,,,,,,,,,,,,60ff7965b012696c1357219c,61036979e5e98a764026aa26,2021-07-29_22h53.50.426,Simcolourproject_2stim_asymm_v5,2020.2.10,MacIntel,60,61025ae37ef11b136ea224fe,,,,,,,,,4261,33.421875,80.359375,1,0,0,response1disk,,7,-0.453125,4.5625,1,0,0,rectangle,-0.453125,4.5625,1,0,0,-0.453125,4.5625,1,0,0,0,112,112,33,1,,,,,,,,
,,,,,,,,,,,,,FF,,,,,,,,0.715875,,,,,,,,,,,,,,,,,,,,,,60ff7965b012696c1357219c,61036979e5e98a764026aa26,2021-07-29_22h53.50.426,Simcolourproject_2stim_asymm_v5,2020.2.10,MacIntel,60,61025ae37ef11b136ea224fe,,,,,,,,,1701,44.1328125,99.48046875,1,0,0,response1disk,,7,5.69140625,-3.33984375,1,0,0,rectangle,5.69140625,-3.33984375,1,0,0,5.69140625,-3.33984375,1,0,0,0,113,113,130,1,,,,,,,,
,,,,,,,,,,,,,FF,,,,,,,,0.50012,,,,,,,,,,,,,,,,,,,,,,60ff7965b012696c1357219c,61036979e5e98a764026aa26,2021-07-29_22h53.50.426,Simcolourproject_2stim_asymm_v5,2020.2.10,MacIntel,60,61025ae37ef11b136ea224fe,,,,,,,,,616,38.33984375,62.828125,1,0,0,response1disk,,7,13.1171875,-0.03515625,1,0,0,rectangle,13.1171875,-0.03515625,1,0,0,13.1171875,-0.03515625,1,0,0,0,114,114,91,1,,,,,,,,
,,,,,,,,,,,,,FF,,,,,,,,0.568875,,,,,,,,,,,,,,,,,,,,,,60ff7965b012696c1357219c,61036979e5e98a764026aa26,2021-07-29_22h53.50.426,Simcolourproject_2stim_asymm_v5,2020.2.10,MacIntel,60,61025ae37ef11b136ea224fe,,,,,,,,,1616,40.96875,86.453125,1,0,0,response1disk,,7,10.71484375,-2.29296875,1,0,0,rectangle,10.71484375,-2.29296875,1,0,0,10.71484375,-2.29296875,1,0,0,0,115,115,30,1,,,,,,,,
,,,,,,,,,,,,,FF,,,,,,,,0.500675,,,,,,,,,,,,,,,,,,,,,,60ff7965b012696c1357219c,61036979e5e98a764026aa26,2021-07-29_22h53.50.426,Simcolourproject_2stim_asymm_v5,2020.2.10,MacIntel,60,61025ae37ef11b136ea224fe,,,,,,,,,1334,48.35546875,78.34375,1,0,0,response1disk,,7,15.58984375,-1.46484375,1,0,0,rectangle,15.58984375,-1.46484375,1,0,0,15.58984375,-1.46484375,1,0,0,0,116,116,63,1,,,,,,,,
,,,,,,,,,,,,,FF,,,,,,,,0.51585,,,,,,,,,,,,,,,,,,,,,,60ff7965b012696c1357219c,61036979e5e98a764026aa26,2021-07-29_22h53.50.426,Simcolourproject_2stim_asymm_v5,2020.2.10,MacIntel,60,61025ae37ef11b136ea224fe,,,,,,,,,2808,35.81640625,69.46875,1,0,0,response1disk,,7,8.05859375,-2.52734375,1,0,0,rectangle,8.05859375,-2.52734375,1,0,0,8.05859375,-2.52734375,1,0,0,0,117,117,40,1,,,,,,,,
,,,,,,,,,,,,,FF,,,,,,,,0.533625,,,,,,,,,,,,,,,,,,,,,,60ff7965b012696c1357219c,61036979e5e98a764026aa26,2021-07-29_22h53.50.426,Simcolourproject_2stim_asymm_v5,2020.2.10,MacIntel,60,61025ae37ef11b136ea224fe,,,,,,,,,822,41.625,65.953125,1,0,0,response1disk,,7,11.0859375,-6.59375,1,0,0,rectangle,-31.73046875,-103.1289063,1,0,0,7.671875,0.78515625,1,0,0,0,118,118,108,1,,response5disk_3,TRUE,3,3,"[246,183,6,236,95,149,94,245,227,119,266,192,62,151,80,36,286,319,249,13]",1.667405001,rectangle
,,,,,,,,,,,,,FF,,,,,,,,1.03305,,,,,,,,,,,,,,,,,,,,,,60ff7965b012696c1357219c,61036979e5e98a764026aa26,2021-07-29_22h53.50.426,Simcolourproject_2stim_asymm_v5,2020.2.10,MacIntel,60,61025ae37ef11b136ea224fe,,,,,,,,,2172,75.68359375,35.4296875,1,0,0,response1disk,,6,-2.48046875,-5.97265625,1,0,0,rectangle,-2.48046875,-5.97265625,1,0,0,-2.48046875,-5.97265625,1,0,0,0,119,119,115,1,,,,,,,,
,,,,,,,,,,,,,FF,,,,,,,,1.200265,,,,,,,,,,,,,,,,,,,,,,60ff7965b012696c1357219c,61036979e5e98a764026aa26,2021-07-29_22h53.50.426,Simcolourproject_2stim_asymm_v5,2020.2.10,MacIntel,60,61025ae37ef11b136ea224fe,,,,,,,,,4163,86.015625,40.28515625,1,0,0,response1disk,,6,14.8125,-1.3984375,1,0,0,rectangle,14.8125,-1.3984375,1,0,0,14.8125,-1.3984375,1,0,0,0,120,120,53,1,,,,,,,,
,,,,,,,,,,,,,FF,,,,,,,,0.617000001,,,,,,,,,,,,,,,,,,,,,,60ff7965b012696c1357219c,61036979e5e98a764026aa26,2021-07-29_22h53.50.426,Simcolourproject_2stim_asymm_v5,2020.2.10,MacIntel,60,61025ae37ef11b136ea224fe,,,,,,,,,1286,42.26171875,94.13671875,1,0,0,response1disk,,7,1.06640625,-5.1328125,1,0,0,rectangle,1.06640625,-5.1328125,1,0,0,1.06640625,-5.1328125,1,0,0,0,121,121,31,1,,,,,,,,
,,,,,,,,,,,,,FF,,,,,,,,0.600784999,,,,,,,,,,,,,,,,,,,,,,60ff7965b012696c1357219c,61036979e5e98a764026aa26,2021-07-29_22h53.50.426,Simcolourproject_2stim_asymm_v5,2020.2.10,MacIntel,60,61025ae37ef11b136ea224fe,,,,,,,,,681,33.140625,62.140625,1,0,0,response1disk,,7,9.58984375,-7.69921875,1,0,0,rectangle,9.58984375,-7.69921875,1,0,0,9.58984375,-7.69921875,1,0,0,0,122,122,56,1,,,,,,,,
,,,,,,,,,,,,,FF,,,,,,,,0.399515,,,,,,,,,,,,,,,,,,,,,,60ff7965b012696c1357219c,61036979e5e98a764026aa26,2021-07-29_22h53.50.426,Simcolourproject_2stim_asymm_v5,2020.2.10,MacIntel,60,61025ae37ef11b136ea224fe,,,,,,,,,2818,40.87890625,77.81640625,1,0,0,response1disk,,7,18.35546875,5.90234375,1,0,0,rectangle,18.35546875,5.90234375,1,0,0,18.35546875,5.90234375,1,0,0,0,123,123,21,1,,,,,,,,
,,,,,,,,,,,,,FF,,,,,,,,1.250595,,,,,,,,,,,,,,,,,,,,,,60ff7965b012696c1357219c,61036979e5e98a764026aa26,2021-07-29_22h53.50.426,Simcolourproject_2stim_asymm_v5,2020.2.10,MacIntel,60,61025ae37ef11b136ea224fe,,,,,,,,,94,-35.5625,-64.78515625,1,0,0,response5disk,,3,-1.3046875,-6.4765625,1,0,0,rectangle,-1.3046875,-6.4765625,1,0,0,-1.3046875,-6.4765625,1,0,0,0,124,124,61,1,,,,,,,,
,,,,,,,,,,,,,FF,,,,,,,,0.73352,,,,,,,,,,,,,,,,,,,,,,60ff7965b012696c1357219c,61036979e5e98a764026aa26,2021-07-29_22h53.50.426,Simcolourproject_2stim_asymm_v5,2020.2.10,MacIntel,60,61025ae37ef11b136ea224fe,,,,,,,,,24,49.23046875,85.4140625,1,0,0,response1disk,,7,11.625,-9.1015625,1,0,0,rectangle,11.625,-9.1015625,1,0,0,11.625,-9.1015625,1,0,0,0,125,125,135,1,,,,,,,,
,,,,,,,,,,,,,FF,,,,,,,,0.53302,,,,,,,,,,,,,,,,,,,,,,60ff7965b012696c1357219c,61036979e5e98a764026aa26,2021-07-29_22h53.50.426,Simcolourproject_2stim_asymm_v5,2020.2.10,MacIntel,60,61025ae37ef11b136ea224fe,,,,,,,,,2147,46.10546875,90.0390625,1,0,0,response1disk,,7,7.00390625,-9.65234375,1,0,0,rectangle,7.00390625,-9.65234375,1,0,0,7.00390625,-9.65234375,1,0,0,0,126,126,45,1,,,,,,,,
,,,,,,,,,,,,,FF,,,,,,,,0.650235,,,,,,,,,,,,,,,,,,,,,,60ff7965b012696c1357219c,61036979e5e98a764026aa26,2021-07-29_22h53.50.426,Simcolourproject_2stim_asymm_v5,2020.2.10,MacIntel,60,61025ae37ef11b136ea224fe,,,,,,,,,2373,37.45703125,79.50390625,1,0,0,response1disk,,7,6.1953125,4.00390625,1,0,0,rectangle,6.1953125,4.00390625,1,0,0,6.1953125,4.00390625,1,0,0,0,127,127,22,1,,,,,,,,
,,,,,,,,,,,,,FF,,,,,,,,0.518395,,,,,,,,,,,,,,,,,,,,,,60ff7965b012696c1357219c,61036979e5e98a764026aa26,2021-07-29_22h53.50.426,Simcolourproject_2stim_asymm_v5,2020.2.10,MacIntel,60,61025ae37ef11b136ea224fe,,,,,,,,,473,46.20703125,88.453125,1,0,0,response1disk,,7,8.8125,0.5234375,1,0,0,rectangle,8.8125,0.5234375,1,0,0,8.8125,0.5234375,1,0,0,0,128,128,38,1,,,,,,,,
,,,,,,,,,,,,,FF,,,,,,,,1.58562,,,,,,,,,,,,,,,,,,,,,,60ff7965b012696c1357219c,61036979e5e98a764026aa26,2021-07-29_22h53.50.426,Simcolourproject_2stim_asymm_v5,2020.2.10,MacIntel,60,61025ae37ef11b136ea224fe,,,,,,,,,2094,-43.23828125,-73.1640625,1,0,0,response5disk,,3,11.98828125,-9.28515625,1,0,0,rectangle,11.98828125,-9.28515625,1,0,0,11.98828125,-9.28515625,1,0,0,0,129,129,75,1,,,,,,,,
,,,,,,,,,,,,,FF,,,,,,,,0.650400001,,,,,,,,,,,,,,,,,,,,,,60ff7965b012696c1357219c,61036979e5e98a764026aa26,2021-07-29_22h53.50.426,Simcolourproject_2stim_asymm_v5,2020.2.10,MacIntel,60,61025ae37ef11b136ea224fe,,,,,,,,,3981,35.50390625,70,1,0,0,response1disk,,7,12.78515625,-2.640625,1,0,0,rectangle,12.78515625,-2.640625,1,0,0,12.78515625,-2.640625,1,0,0,0,130,130,37,1,,,,,,,,
,,,,,,,,,,,,,FF,,,,,,,,2.618609999,,,,,,,,,,,,,,,,,,,,,,60ff7965b012696c1357219c,61036979e5e98a764026aa26,2021-07-29_22h53.50.426,Simcolourproject_2stim_asymm_v5,2020.2.10,MacIntel,60,61025ae37ef11b136ea224fe,,,,,,,,,4009,46.45703125,88.1796875,1,0,0,response1disk,,7,1.86328125,-8.96875,1,0,0,rectangle,1.86328125,-8.96875,1,0,0,1.86328125,-8.96875,1,0,0,0,131,131,113,1,,,,,,,,
,,,,,,,,,,,,,FF,,,,,,,,0.7005,,,,,,,,,,,,,,,,,,,,,,60ff7965b012696c1357219c,61036979e5e98a764026aa26,2021-07-29_22h53.50.426,Simcolourproject_2stim_asymm_v5,2020.2.10,MacIntel,60,61025ae37ef11b136ea224fe,,,,,,,,,1336,39.46875,106.7460938,1,0,0,response1disk,,7,10.4296875,12.64453125,1,0,0,rectangle,10.4296875,12.64453125,1,0,0,10.4296875,12.64453125,1,0,0,0,132,132,15,1,,,,,,,,
,,,,,,,,,,,,,FF,,,,,,,,0.434655,,,,,,,,,,,,,,,,,,,,,,60ff7965b012696c1357219c,61036979e5e98a764026aa26,2021-07-29_22h53.50.426,Simcolourproject_2stim_asymm_v5,2020.2.10,MacIntel,60,61025ae37ef11b136ea224fe,,,,,,,,,3888,41.96875,90.05078125,1,0,0,response1disk,,7,3.19921875,6.05859375,1,0,0,rectangle,3.19921875,6.05859375,1,0,0,3.19921875,6.05859375,1,0,0,0,133,133,2,1,,,,,,,,
,,,,,,,,,,,,,FF,,,,,,,,0.53431,,,,,,,,,,,,,,,,,,,,,,60ff7965b012696c1357219c,61036979e5e98a764026aa26,2021-07-29_22h53.50.426,Simcolourproject_2stim_asymm_v5,2020.2.10,MacIntel,60,61025ae37ef11b136ea224fe,,,,,,,,,3600,37.9765625,62.4765625,1,0,0,response1disk,,7,6.3125,-13.7734375,1,0,0,rectangle,6.3125,-13.7734375,1,0,0,6.3125,-13.7734375,1,0,0,0,134,134,136,1,,,,,,,,
,,,,,,,,,,,,,FF,,,,,,,,0.53223,,,,,,,,,,,,,,,,,,,,,,60ff7965b012696c1357219c,61036979e5e98a764026aa26,2021-07-29_22h53.50.426,Simcolourproject_2stim_asymm_v5,2020.2.10,MacIntel,60,61025ae37ef11b136ea224fe,,,,,,,,,1327,40.98046875,80.97265625,1,0,0,response1disk,,7,6.26171875,-5.8828125,1,0,0,rectangle,6.26171875,-5.8828125,1,0,0,6.26171875,-5.8828125,1,0,0,0,135,135,81,1,,,,,,,,
,,,,,,,,,,,,,FF,,,,,,,,0.549995,,,,,,,,,,,,,,,,,,,,,,60ff7965b012696c1357219c,61036979e5e98a764026aa26,2021-07-29_22h53.50.426,Simcolourproject_2stim_asymm_v5,2020.2.10,MacIntel,60,61025ae37ef11b136ea224fe,,,,,,,,,1989,45.359375,73.80078125,1,0,0,response1disk,,7,15.734375,1.8671875,1,0,0,rectangle,15.734375,1.8671875,1,0,0,15.734375,1.8671875,1,0,0,0,136,136,134,1,,,,,,,,
,,,,,,,,,,,,,FF,,,,,,,,0.318145,,,,,,,,,,,,,,,,,,,,,,60ff7965b012696c1357219c,61036979e5e98a764026aa26,2021-07-29_22h53.50.426,Simcolourproject_2stim_asymm_v5,2020.2.10,MacIntel,60,61025ae37ef11b136ea224fe,,,,,,,,,242,59.328125,96.15625,1,0,0,response1disk,,7,6.796875,5.55859375,1,0,0,rectangle,6.796875,5.55859375,1,0,0,6.796875,5.55859375,1,0,0,0,137,137,58,1,,,,,,,,
,,,,,,,,,,,,,FF,,,,,,,,0.585759999,,,,,,,,,,,,,,,,,,,,,,60ff7965b012696c1357219c,61036979e5e98a764026aa26,2021-07-29_22h53.50.426,Simcolourproject_2stim_asymm_v5,2020.2.10,MacIntel,60,61025ae37ef11b136ea224fe,,,,,,,,,1237,32.859375,73.3984375,1,0,0,response1disk,,7,-3.37109375,-0.44921875,1,0,0,rectangle,-3.37109375,-0.44921875,1,0,0,-3.37109375,-0.44921875,1,0,0,0,138,138,131,1,,,,,,,,
,,,,,,,,,,,,,FF,,,,,,,,0.583219999,,,,,,,,,,,,,,,,,,,,,,60ff7965b012696c1357219c,61036979e5e98a764026aa26,2021-07-29_22h53.50.426,Simcolourproject_2stim_asymm_v5,2020.2.10,MacIntel,60,61025ae37ef11b136ea224fe,,,,,,,,,3693,36.49609375,72.046875,1,0,0,response1disk,,7,9.42578125,-3.29296875,1,0,0,rectangle,9.42578125,-3.29296875,1,0,0,9.42578125,-3.29296875,1,0,0,0,139,139,90,1,,,,,,,,
,,,,,,,,,,,,,FF,,,,,,,,1.133345,,,,,,,,,,,,,,,,,,,,,,60ff7965b012696c1357219c,61036979e5e98a764026aa26,2021-07-29_22h53.50.426,Simcolourproject_2stim_asymm_v5,2020.2.10,MacIntel,60,61025ae37ef11b136ea224fe,,,,,,,,,2315,32.234375,63.71875,1,0,0,response1disk,,7,6.91015625,10.52734375,1,0,0,rectangle,6.91015625,10.52734375,1,0,0,6.91015625,10.52734375,1,0,0,0,140,140,76,1,,,,,,,,
,,,,,,,,,,,,,FF,,,,,,,,0.41661,,,,,,,,,,,,,,,,,,,,,,60ff7965b012696c1357219c,61036979e5e98a764026aa26,2021-07-29_22h53.50.426,Simcolourproject_2stim_asymm_v5,2020.2.10,MacIntel,60,61025ae37ef11b136ea224fe,,,,,,,,,4319,43.10546875,86.421875,1,0,0,response1disk,,7,9.625,8.3515625,1,0,0,rectangle,9.625,8.3515625,1,0,0,9.625,8.3515625,1,0,0,0,141,141,51,1,,,,,,,,
,,,,,,,,,,,,,FF,,,,,,,,0.4839,,,,,,,,,,,,,,,,,,,,,,60ff7965b012696c1357219c,61036979e5e98a764026aa26,2021-07-29_22h53.50.426,Simcolourproject_2stim_asymm_v5,2020.2.10,MacIntel,60,61025ae37ef11b136ea224fe,,,,,,,,,3615,45.78125,77.16015625,1,0,0,response1disk,,7,-2.1640625,-5.40234375,1,0,0,rectangle,-2.1640625,-5.40234375,1,0,0,-2.1640625,-5.40234375,1,0,0,0,142,142,47,1,,,,,,,,
,,,,,,,,,,,,,FF,,,,,,,,0.451535,,,,,,,,,,,,,,,,,,,,,,60ff7965b012696c1357219c,61036979e5e98a764026aa26,2021-07-29_22h53.50.426,Simcolourproject_2stim_asymm_v5,2020.2.10,MacIntel,60,61025ae37ef11b136ea224fe,,,,,,,,,2751,48.875,97.7421875,1,0,0,response1disk,,7,6.9765625,1.62109375,1,0,0,rectangle,6.9765625,1.62109375,1,0,0,6.9765625,1.62109375,1,0,0,0,143,143,70,1,,,,,,,,
,,,,,,,,,,,,,FF,,,,,,,,1.00076,,,,,,,,,,,,,,,,,,,,,,60ff7965b012696c1357219c,61036979e5e98a764026aa26,2021-07-29_22h53.50.426,Simcolourproject_2stim_asymm_v5,2020.2.10,MacIntel,60,61025ae37ef11b136ea224fe,,,,,,,,,261,79.66796875,-46.1796875,1,0,0,response3disk,,5,6.79296875,-6.609375,1,0,0,rectangle,6.79296875,-6.609375,1,0,0,6.79296875,-6.609375,1,0,0,0,144,144,96,1,,,,,,,,
,,,,,,,,,,,,,FF,,,,,,,,0.534935,,,,,,,,,,,,,,,,,,,,,,60ff7965b012696c1357219c,61036979e5e98a764026aa26,2021-07-29_22h53.50.426,Simcolourproject_2stim_asymm_v5,2020.2.10,MacIntel,60,61025ae37ef11b136ea224fe,,,,,,,,,1482,39.578125,86.6484375,1,0,0,response1disk,,7,-11.19921875,-10.85546875,1,0,0,rectangle,-11.19921875,-10.85546875,1,0,0,-11.19921875,-10.85546875,1,0,0,0,145,145,4,1,,,,,,,,
,,,,,,,,,,,,,FF,,,,,,,,0.48234,,,,,,,,,,,,,,,,,,,,,,60ff7965b012696c1357219c,61036979e5e98a764026aa26,2021-07-29_22h53.50.426,Simcolourproject_2stim_asymm_v5,2020.2.10,MacIntel,60,61025ae37ef11b136ea224fe,,,,,,,,,1258,30.36328125,63.3828125,1,0,0,response1disk,,7,1.515625,-1.42578125,1,0,0,rectangle,1.515625,-1.42578125,1,0,0,1.515625,-1.42578125,1,0,0,0,146,146,155,1,,,,,,,,
,,,,,,,,,,,,,FF,,,,,,,,0.53388,,,,,,,,,,,,,,,,,,,,,,60ff7965b012696c1357219c,61036979e5e98a764026aa26,2021-07-29_22h53.50.426,Simcolourproject_2stim_asymm_v5,2020.2.10,MacIntel,60,61025ae37ef11b136ea224fe,,,,,,,,,3958,49.15234375,105.7460938,1,0,0,response1disk,,7,3.2265625,14.03125,1,0,0,rectangle,3.2265625,14.03125,1,0,0,3.2265625,14.03125,1,0,0,0,147,147,92,1,,,,,,,,
,,,,,,,,,,,,,FF,,,,,,,,0.41754,,,,,,,,,,,,,,,,,,,,,,60ff7965b012696c1357219c,61036979e5e98a764026aa26,2021-07-29_22h53.50.426,Simcolourproject_2stim_asymm_v5,2020.2.10,MacIntel,60,61025ae37ef11b136ea224fe,,,,,,,,,1170,42.0625,76.546875,1,0,0,response1disk,,7,4.5390625,-6.05859375,1,0,0,rectangle,-37.4765625,89.71484375,1,0,0,-13.953125,-10.296875,1,0,0,0,148,148,77,1,,response7disk_3,TRUE,0,0,"[246,183,6,236,95,149,94,245,227,119,266,192,62,151,80,36,286,319,249,13]",1.800465,rectangle
,,,,,,,,,,,,,FF,,,,,,,,0.801604999,,,,,,,,,,,,,,,,,,,,,,60ff7965b012696c1357219c,61036979e5e98a764026aa26,2021-07-29_22h53.50.426,Simcolourproject_2stim_asymm_v5,2020.2.10,MacIntel,60,61025ae37ef11b136ea224fe,,,,,,,,,48,47.4375,91.234375,1,0,0,response1disk,,7,17.1171875,15.29296875,1,0,0,rectangle,17.1171875,15.29296875,1,0,0,17.1171875,15.29296875,1,0,0,0,149,149,52,1,,,,,,,,
,,,,,,,,,,,,,FF,,,,,,,,0.53375,,,,,,,,,,,,,,,,,,,,,,60ff7965b012696c1357219c,61036979e5e98a764026aa26,2021-07-29_22h53.50.426,Simcolourproject_2stim_asymm_v5,2020.2.10,MacIntel,60,61025ae37ef11b136ea224fe,,,,,,,,,878,27.5546875,73.55859375,1,0,0,response1disk,,7,5.6875,-0.30078125,1,0,0,rectangle,-38.90234375,-78.69921875,1,0,0,7.62890625,-10.1875,1,0,0,0,150,150,132,1,,response5disk_3,TRUE,3,3,"[246,183,6,236,95,149,94,245,227,119,266,192,62,151,80,36,286,319,249,13]",1.585155,rectangle
,,,,,,,,,,,,,FF,,,,,,,,0.58434,,,,,,,,,,,,,,,,,,,,,,60ff7965b012696c1357219c,61036979e5e98a764026aa26,2021-07-29_22h53.50.426,Simcolourproject_2stim_asymm_v5,2020.2.10,MacIntel,60,61025ae37ef11b136ea224fe,,,,,,,,,410,28.5625,85.4609375,1,0,0,response1disk,,7,-1.8828125,-1.97265625,1,0,0,rectangle,-1.8828125,-1.97265625,1,0,0,-1.8828125,-1.97265625,1,0,0,0,151,151,99,1,,,,,,,,
,,,,,,,,,,,,,FF,,,,,,,,1.200529999,,,,,,,,,,,,,,,,,,,,,,60ff7965b012696c1357219c,61036979e5e98a764026aa26,2021-07-29_22h53.50.426,Simcolourproject_2stim_asymm_v5,2020.2.10,MacIntel,60,61025ae37ef11b136ea224fe,,,,,,,,,2605,37.67578125,-94.453125,1,0,0,response3disk,,4,16.6640625,-0.56640625,1,0,0,rectangle,16.6640625,-0.56640625,1,0,0,16.6640625,-0.56640625,1,0,0,0,152,152,107,1,,,,,,,,
,,,,,,,,,,,,,FF,,,,,,,,0.650095,,,,,,,,,,,,,,,,,,,,,,60ff7965b012696c1357219c,61036979e5e98a764026aa26,2021-07-29_22h53.50.426,Simcolourproject_2stim_asymm_v5,2020.2.10,MacIntel,60,61025ae37ef11b136ea224fe,,,,,,,,,816,18.9453125,71.3125,1,0,0,response1disk,,7,2.84375,-3.3046875,1,0,0,rectangle,2.84375,-3.3046875,1,0,0,2.84375,-3.3046875,1,0,0,0,153,153,129,1,,,,,,,,
,,,,,,,,,,,,,FF,,,,,,,,1.066480001,,,,,,,,,,,,,,,,,,,,,,60ff7965b012696c1357219c,61036979e5e98a764026aa26,2021-07-29_22h53.50.426,Simcolourproject_2stim_asymm_v5,2020.2.10,MacIntel,60,61025ae37ef11b136ea224fe,,,,,,,,,2723,34.82421875,84.703125,1,0,0,response1disk,,7,6.3984375,-13.4921875,1,0,0,rectangle,6.3984375,-13.4921875,1,0,0,6.3984375,-13.4921875,1,0,0,0,154,154,68,1,,,,,,,,
,,,,,,,,,,,,,FF,,,,,,,,0.516855001,,,,,,,,,,,,,,,,,,,,,,60ff7965b012696c1357219c,61036979e5e98a764026aa26,2021-07-29_22h53.50.426,Simcolourproject_2stim_asymm_v5,2020.2.10,MacIntel,60,61025ae37ef11b136ea224fe,,,,,,,,,1883,47.66015625,103.984375,1,0,0,response1disk,,7,14.28125,-2.81640625,1,0,0,rectangle,14.28125,-2.81640625,1,0,0,14.28125,-2.81640625,1,0,0,0,155,155,141,1,,,,,,,,
,,,,,,,,,,,,,FF,,,,,,,,0.50015,,,,,,,,,,,,,,,,,,,,,,60ff7965b012696c1357219c,61036979e5e98a764026aa26,2021-07-29_22h53.50.426,Simcolourproject_2stim_asymm_v5,2020.2.10,MacIntel,60,61025ae37ef11b136ea224fe,,,,,,,,,3302,32.75390625,64.375,1,0,0,response1disk,,7,10.85546875,-5.828125,1,0,0,rectangle,10.85546875,-5.828125,1,0,0,10.85546875,-5.828125,1,0,0,0,156,156,72,1,,,,,,,,
,,,,,,,,,,,,,FF,,,,,,,,0.50015,,,,,,,,,,,,,,,,,,,,,,60ff7965b012696c1357219c,61036979e5e98a764026aa26,2021-07-29_22h53.50.426,Simcolourproject_2stim_asymm_v5,2020.2.10,MacIntel,60,61025ae37ef11b136ea224fe,,,,,,,,,4156,43.60546875,96.3046875,1,0,0,response1disk,,7,14.328125,-0.2109375,1,0,0,rectangle,14.328125,-0.2109375,1,0,0,14.328125,-0.2109375,1,0,0,0,157,157,89,1,,,,,,,,
,,,,,,,,,,,,,FF,,,,,,,,0.9839,,,,,,,,,,,,,,,,,,,,,,60ff7965b012696c1357219c,61036979e5e98a764026aa26,2021-07-29_22h53.50.426,Simcolourproject_2stim_asymm_v5,2020.2.10,MacIntel,60,61025ae37ef11b136ea224fe,,,,,,,,,4369,-30.56640625,75.625,1,0,0,response7disk,,0,3.2265625,1.359375,1,0,0,rectangle,3.2265625,1.359375,1,0,0,3.2265625,1.359375,1,0,0,0,158,158,97,1,,,,,,,,
,,,,,,,,,,,,,FF,,,,,,,,0.600195,,,,,,,,,,,,,,,,,,,,,,60ff7965b012696c1357219c,61036979e5e98a764026aa26,2021-07-29_22h53.50.426,Simcolourproject_2stim_asymm_v5,2020.2.10,MacIntel,60,61025ae37ef11b136ea224fe,,,,,,,,,4070,45.13671875,74.109375,1,0,0,response1disk,,7,11.62890625,1.1953125,1,0,0,rectangle,11.62890625,1.1953125,1,0,0,11.62890625,1.1953125,1,0,0,0,159,159,102,1,,,,,,,,
,,,,,,,,,,,,,FF,,,,,,,,0.515225,,,,,,,,,,,,,,,,,,,,,,60ff7965b012696c1357219c,61036979e5e98a764026aa26,2021-07-29_22h53.50.426,Simcolourproject_2stim_asymm_v5,2020.2.10,MacIntel,60,61025ae37ef11b136ea224fe,,,,,,,,,1620,36.23828125,73.57421875,1,0,0,response1disk,,7,11.14453125,-2.734375,1,0,0,rectangle,11.14453125,-2.734375,1,0,0,11.14453125,-2.734375,1,0,0,1,0,160,9,1,,,,,,,,
,,,,,,,,,,,,,FF,,,,,,,,0.384825001,,,,,,,,,,,,,,,,,,,,,,60ff7965b012696c1357219c,61036979e5e98a764026aa26,2021-07-29_22h53.50.426,Simcolourproject_2stim_asymm_v5,2020.2.10,MacIntel,60,61025ae37ef11b136ea224fe,,,,,,,,,281,42.6953125,81.50390625,1,0,0,response1disk,,7,8.625,-5.046875,1,0,0,rectangle,8.625,-5.046875,1,0,0,8.625,-5.046875,1,0,0,1,1,161,96,1,,,,,,,,
,,,,,,,,,,,,,FF,,,,,,,,0.46817,,,,,,,,,,,,,,,,,,,,,,60ff7965b012696c1357219c,61036979e5e98a764026aa26,2021-07-29_22h53.50.426,Simcolourproject_2stim_asymm_v5,2020.2.10,MacIntel,60,61025ae37ef11b136ea224fe,,,,,,,,,4310,41.1171875,83.19140625,1,0,0,response1disk,,7,5.51171875,-12.57421875,1,0,0,rectangle,5.51171875,-12.57421875,1,0,0,5.51171875,-12.57421875,1,0,0,1,2,162,134,1,,,,,,,,
,,,,,,,,,,,,,FF,,,,,,,,0.65084,,,,,,,,,,,,,,,,,,,,,,60ff7965b012696c1357219c,61036979e5e98a764026aa26,2021-07-29_22h53.50.426,Simcolourproject_2stim_asymm_v5,2020.2.10,MacIntel,60,61025ae37ef11b136ea224fe,,,,,,,,,447,41.5625,71.2890625,1,0,0,response1disk,,7,7.67578125,-15.34765625,1,0,0,rectangle,7.67578125,-15.34765625,1,0,0,7.67578125,-15.34765625,1,0,0,1,3,163,121,1,,,,,,,,
,,,,,,,,,,,,,FF,,,,,,,,0.499165,,,,,,,,,,,,,,,,,,,,,,60ff7965b012696c1357219c,61036979e5e98a764026aa26,2021-07-29_22h53.50.426,Simcolourproject_2stim_asymm_v5,2020.2.10,MacIntel,60,61025ae37ef11b136ea224fe,,,,,,,,,2538,31.2421875,47.25,1,0,0,response1disk,,7,8.73828125,1.10546875,1,0,0,rectangle,8.73828125,1.10546875,1,0,0,8.73828125,1.10546875,1,0,0,1,4,164,152,1,,,,,,,,
,,,,,,,,,,,,,FF,,,,,,,,0.816425,,,,,,,,,,,,,,,,,,,,,,60ff7965b012696c1357219c,61036979e5e98a764026aa26,2021-07-29_22h53.50.426,Simcolourproject_2stim_asymm_v5,2020.2.10,MacIntel,60,61025ae37ef11b136ea224fe,,,,,,,,,3425,-35.53515625,69.39453125,1,0,0,response7disk,,0,3.1015625,3.0234375,1,0,0,rectangle,3.1015625,3.0234375,1,0,0,3.1015625,3.0234375,1,0,0,1,5,165,106,1,,,,,,,,
,,,,,,,,,,,,,FF,,,,,,,,0.617120001,,,,,,,,,,,,,,,,,,,,,,60ff7965b012696c1357219c,61036979e5e98a764026aa26,2021-07-29_22h53.50.426,Simcolourproject_2stim_asymm_v5,2020.2.10,MacIntel,60,61025ae37ef11b136ea224fe,,,,,,,,,1491,43.1875,108.359375,1,0,0,response1disk,,7,10.4375,-1.1484375,1,0,0,rectangle,10.4375,-1.1484375,1,0,0,10.4375,-1.1484375,1,0,0,1,6,166,14,1,,,,,,,,
,,,,,,,,,,,,,FF,,,,,,,,0.633965001,,,,,,,,,,,,,,,,,,,,,,60ff7965b012696c1357219c,61036979e5e98a764026aa26,2021-07-29_22h53.50.426,Simcolourproject_2stim_asymm_v5,2020.2.10,MacIntel,60,61025ae37ef11b136ea224fe,,,,,,,,,3249,35.1796875,78.05859375,1,0,0,response1disk,,7,2.625,-0.046875,1,0,0,rectangle,2.625,-0.046875,1,0,0,2.625,-0.046875,1,0,0,1,7,167,112,1,,,,,,,,
,,,,,,,,,,,,,FF,,,,,,,,0.450895,,,,,,,,,,,,,,,,,,,,,,60ff7965b012696c1357219c,61036979e5e98a764026aa26,2021-07-29_22h53.50.426,Simcolourproject_2stim_asymm_v5,2020.2.10,MacIntel,60,61025ae37ef11b136ea224fe,,,,,,,,,2008,34.75,81.88671875,1,0,0,response1disk,,7,16.34765625,13.359375,1,0,0,rectangle,16.34765625,13.359375,1,0,0,16.34765625,13.359375,1,0,0,1,8,168,58,1,,,,,,,,
,,,,,,,,,,,,,FF,,,,,,,,0.39952,,,,,,,,,,,,,,,,,,,,,,60ff7965b012696c1357219c,61036979e5e98a764026aa26,2021-07-29_22h53.50.426,Simcolourproject_2stim_asymm_v5,2020.2.10,MacIntel,60,61025ae37ef11b136ea224fe,,,,,,,,,3215,58.18359375,78.5546875,1,0,0,response1disk,,7,15.18359375,-8.25,1,0,0,rectangle,15.18359375,-8.25,1,0,0,15.18359375,-8.25,1,0,0,1,9,169,16,1,,,,,,,,
,,,,,,,,,,,,,FF,,,,,,,,0.38402,,,,,,,,,,,,,,,,,,,,,,60ff7965b012696c1357219c,61036979e5e98a764026aa26,2021-07-29_22h53.50.426,Simcolourproject_2stim_asymm_v5,2020.2.10,MacIntel,60,61025ae37ef11b136ea224fe,,,,,,,,,2349,42.00390625,87.671875,1,0,0,response1disk,,7,9.8046875,2.48046875,1,0,0,rectangle,9.8046875,2.48046875,1,0,0,9.8046875,2.48046875,1,0,0,1,10,170,29,1,,,,,,,,
,,,,,,,,,,,,,FF,,,,,,,,0.367210001,,,,,,,,,,,,,,,,,,,,,,60ff7965b012696c1357219c,61036979e5e98a764026aa26,2021-07-29_22h53.50.426,Simcolourproject_2stim_asymm_v5,2020.2.10,MacIntel,60,61025ae37ef11b136ea224fe,,,,,,,,,1846,35.51953125,67.85546875,1,0,0,response1disk,,7,11.328125,1.7890625,1,0,0,rectangle,11.328125,1.7890625,1,0,0,11.328125,1.7890625,1,0,0,1,11,171,87,1,,,,,,,,
,,,,,,,,,,,,,FF,,,,,,,,0.367215,,,,,,,,,,,,,,,,,,,,,,60ff7965b012696c1357219c,61036979e5e98a764026aa26,2021-07-29_22h53.50.426,Simcolourproject_2stim_asymm_v5,2020.2.10,MacIntel,60,61025ae37ef11b136ea224fe,,,,,,,,,1648,51.578125,107.6796875,1,0,0,response1disk,,7,14.4765625,4.09375,1,0,0,rectangle,14.4765625,4.09375,1,0,0,14.4765625,4.09375,1,0,0,1,12,172,54,1,,,,,,,,
,,,,,,,,,,,,,FF,,,,,,,,0.317445001,,,,,,,,,,,,,,,,,,,,,,60ff7965b012696c1357219c,61036979e5e98a764026aa26,2021-07-29_22h53.50.426,Simcolourproject_2stim_asymm_v5,2020.2.10,MacIntel,60,61025ae37ef11b136ea224fe,,,,,,,,,1995,48.16015625,95.05078125,1,0,0,response1disk,,7,0.4375,-7.0625,1,0,0,rectangle,0.4375,-7.0625,1,0,0,0.4375,-7.0625,1,0,0,1,13,173,125,1,,,,,,,,
,,,,,,,,,,,,,FF,,,,,,,,0.466645001,,,,,,,,,,,,,,,,,,,,,,60ff7965b012696c1357219c,61036979e5e98a764026aa26,2021-07-29_22h53.50.426,Simcolourproject_2stim_asymm_v5,2020.2.10,MacIntel,60,61025ae37ef11b136ea224fe,,,,,,,,,1909,41.296875,96.8828125,1,0,0,response1disk,,7,0.55859375,-6.03125,1,0,0,rectangle,0.55859375,-6.03125,1,0,0,0.55859375,-6.03125,1,0,0,1,14,174,38,1,,,,,,,,
,,,,,,,,,,,,,FF,,,,,,,,1.168064999,,,,,,,,,,,,,,,,,,,,,,60ff7965b012696c1357219c,61036979e5e98a764026aa26,2021-07-29_22h53.50.426,Simcolourproject_2stim_asymm_v5,2020.2.10,MacIntel,60,61025ae37ef11b136ea224fe,,,,,,,,,2777,40.66015625,79.44140625,1,0,0,response1disk,,7,8.03515625,4.97265625,1,0,0,rectangle,8.03515625,4.97265625,1,0,0,8.03515625,4.97265625,1,0,0,1,15,175,2,1,,,,,,,,
,,,,,,,,,,,,,FF,,,,,,,,0.632305,,,,,,,,,,,,,,,,,,,,,,60ff7965b012696c1357219c,61036979e5e98a764026aa26,2021-07-29_22h53.50.426,Simcolourproject_2stim_asymm_v5,2020.2.10,MacIntel,60,61025ae37ef11b136ea224fe,,,,,,,,,4334,43.7734375,86.72265625,1,0,0,response1disk,,7,10.12109375,0.69140625,1,0,0,rectangle,10.12109375,0.69140625,1,0,0,10.12109375,0.69140625,1,0,0,1,16,176,8,1,,,,,,,,
,,,,,,,,,,,,,FF,,,,,,,,0.46796,,,,,,,,,,,,,,,,,,,,,,60ff7965b012696c1357219c,61036979e5e98a764026aa26,2021-07-29_22h53.50.426,Simcolourproject_2stim_asymm_v5,2020.2.10,MacIntel,60,61025ae37ef11b136ea224fe,,,,,,,,,1716,27.83984375,72.2421875,1,0,0,response1disk,,7,1.75,-7.34375,1,0,0,rectangle,1.75,-7.34375,1,0,0,1.75,-7.34375,1,0,0,1,17,177,51,1,,,,,,,,
,,,,,,,,,,,,,FF,,,,,,,,0.383265,,,,,,,,,,,,,,,,,,,,,,60ff7965b012696c1357219c,61036979e5e98a764026aa26,2021-07-29_22h53.50.426,Simcolourproject_2stim_asymm_v5,2020.2.10,MacIntel,60,61025ae37ef11b136ea224fe,,,,,,,,,784,36.55859375,90.0234375,1,0,0,response1disk,,7,4.6875,1.9765625,1,0,0,rectangle,4.6875,1.9765625,1,0,0,4.6875,1.9765625,1,0,0,1,18,178,91,1,,,,,,,,
,,,,,,,,,,,,,FF,,,,,,,,0.366435,,,,,,,,,,,,,,,,,,,,,,60ff7965b012696c1357219c,61036979e5e98a764026aa26,2021-07-29_22h53.50.426,Simcolourproject_2stim_asymm_v5,2020.2.10,MacIntel,60,61025ae37ef11b136ea224fe,,,,,,,,,2396,48.54296875,92.44140625,1,0,0,response1disk,,7,6.19140625,3.25,1,0,0,rectangle,6.19140625,3.25,1,0,0,6.19140625,3.25,1,0,0,1,19,179,95,1,,,,,,,,
,,,,,,,,,,,,,FF,,,,,,,,0.33345,,,,,,,,,,,,,,,,,,,,,,60ff7965b012696c1357219c,61036979e5e98a764026aa26,2021-07-29_22h53.50.426,Simcolourproject_2stim_asymm_v5,2020.2.10,MacIntel,60,61025ae37ef11b136ea224fe,,,,,,,,,2273,42.171875,81.07421875,1,0,0,response1disk,,7,17.671875,7.7109375,1,0,0,rectangle,17.671875,7.7109375,1,0,0,17.671875,7.7109375,1,0,0,1,20,180,88,1,,,,,,,,
,,,,,,,,,,,,,FF,,,,,,,,0.351345,,,,,,,,,,,,,,,,,,,,,,60ff7965b012696c1357219c,61036979e5e98a764026aa26,2021-07-29_22h53.50.426,Simcolourproject_2stim_asymm_v5,2020.2.10,MacIntel,60,61025ae37ef11b136ea224fe,,,,,,,,,2908,53.54296875,99.8671875,1,0,0,response1disk,,7,9.70703125,3.546875,1,0,0,rectangle,9.70703125,3.546875,1,0,0,9.70703125,3.546875,1,0,0,1,21,181,13,1,,,,,,,,
,,,,,,,,,,,,,FF,,,,,,,,0.36759,,,,,,,,,,,,,,,,,,,,,,60ff7965b012696c1357219c,61036979e5e98a764026aa26,2021-07-29_22h53.50.426,Simcolourproject_2stim_asymm_v5,2020.2.10,MacIntel,60,61025ae37ef11b136ea224fe,,,,,,,,,607,48.79296875,70.22265625,1,0,0,response1disk,,7,1.015625,-15.01953125,1,0,0,rectangle,77.95703125,-29.40625,1,0,0,23.19921875,1.69921875,1,0,0,1,22,182,138,1,,response3disk_3,TRUE,5,5,"[246,183,6,236,95,149,94,245,227,119,266,192,62,151,80,36,286,319,249,13]",1.41729,rectangle
,,,,,,,,,,,,,FF,,,,,,,,0.61785,,,,,,,,,,,,,,,,,,,,,,60ff7965b012696c1357219c,61036979e5e98a764026aa26,2021-07-29_22h53.50.426,Simcolourproject_2stim_asymm_v5,2020.2.10,MacIntel,60,61025ae37ef11b136ea224fe,,,,,,,,,556,30.69921875,80.40625,1,0,0,response1disk,,7,9.39453125,-4.51953125,1,0,0,rectangle,9.39453125,-4.51953125,1,0,0,9.39453125,-4.51953125,1,0,0,1,23,183,133,1,,,,,,,,
,,,,,,,,,,,,,FF,,,,,,,,0.382335,,,,,,,,,,,,,,,,,,,,,,60ff7965b012696c1357219c,61036979e5e98a764026aa26,2021-07-29_22h53.50.426,Simcolourproject_2stim_asymm_v5,2020.2.10,MacIntel,60,61025ae37ef11b136ea224fe,,,,,,,,,2741,37.51953125,88.953125,1,0,0,response1disk,,7,7.78515625,4.4375,1,0,0,rectangle,7.78515625,4.4375,1,0,0,7.78515625,4.4375,1,0,0,1,24,184,159,1,,,,,,,,
,,,,,,,,,,,,,FF,,,,,,,,0.40034,,,,,,,,,,,,,,,,,,,,,,60ff7965b012696c1357219c,61036979e5e98a764026aa26,2021-07-29_22h53.50.426,Simcolourproject_2stim_asymm_v5,2020.2.10,MacIntel,60,61025ae37ef11b136ea224fe,,,,,,,,,2697,39.25,103.2304688,1,0,0,response1disk,,7,4.2890625,5.8828125,1,0,0,rectangle,4.2890625,5.8828125,1,0,0,4.2890625,5.8828125,1,0,0,1,25,185,45,1,,,,,,,,
,,,,,,,,,,,,,FF,,,,,,,,0.383005001,,,,,,,,,,,,,,,,,,,,,,60ff7965b012696c1357219c,61036979e5e98a764026aa26,2021-07-29_22h53.50.426,Simcolourproject_2stim_asymm_v5,2020.2.10,MacIntel,60,61025ae37ef11b136ea224fe,,,,,,,,,4030,42.37109375,68.203125,1,0,0,response1disk,,7,14.30078125,-13.23828125,1,0,0,rectangle,14.30078125,-13.23828125,1,0,0,14.30078125,-13.23828125,1,0,0,1,26,186,77,1,,,,,,,,
,,,,,,,,,,,,,FF,,,,,,,,0.83471,,,,,,,,,,,,,,,,,,,,,,60ff7965b012696c1357219c,61036979e5e98a764026aa26,2021-07-29_22h53.50.426,Simcolourproject_2stim_asymm_v5,2020.2.10,MacIntel,60,61025ae37ef11b136ea224fe,,,,,,,,,1815,-27.3984375,85.33203125,1,0,0,response7disk,,0,-7.9375,-5.02734375,1,0,0,rectangle,-7.9375,-5.02734375,1,0,0,-7.9375,-5.02734375,1,0,0,1,27,187,47,1,,,,,,,,
,,,,,,,,,,,,,FF,,,,,,,,1.100555001,,,,,,,,,,,,,,,,,,,,,,60ff7965b012696c1357219c,61036979e5e98a764026aa26,2021-07-29_22h53.50.426,Simcolourproject_2stim_asymm_v5,2020.2.10,MacIntel,60,61025ae37ef11b136ea224fe,,,,,,,,,28,35.12109375,84.51171875,1,0,0,response1disk,,7,9.08984375,7.35546875,1,0,0,rectangle,9.08984375,7.35546875,1,0,0,9.08984375,7.35546875,1,0,0,1,28,188,116,1,,,,,,,,
,,,,,,,,,,,,,FF,,,,,,,,0.483015,,,,,,,,,,,,,,,,,,,,,,60ff7965b012696c1357219c,61036979e5e98a764026aa26,2021-07-29_22h53.50.426,Simcolourproject_2stim_asymm_v5,2020.2.10,MacIntel,60,61025ae37ef11b136ea224fe,,,,,,,,,2308,19.83203125,74.99609375,1,0,0,response1disk,,7,-2.60546875,-14.15625,1,0,0,rectangle,-2.60546875,-14.15625,1,0,0,-2.60546875,-14.15625,1,0,0,1,29,189,111,1,,,,,,,,
,,,,,,,,,,,,,FF,,,,,,,,0.366260001,,,,,,,,,,,,,,,,,,,,,,60ff7965b012696c1357219c,61036979e5e98a764026aa26,2021-07-29_22h53.50.426,Simcolourproject_2stim_asymm_v5,2020.2.10,MacIntel,60,61025ae37ef11b136ea224fe,,,,,,,,,376,31.84765625,88.16015625,1,0,0,response1disk,,7,3.3671875,-5.0390625,1,0,0,rectangle,3.3671875,-5.0390625,1,0,0,3.3671875,-5.0390625,1,0,0,1,30,190,86,1,,,,,,,,
,,,,,,,,,,,,,FF,,,,,,,,0.333070001,,,,,,,,,,,,,,,,,,,,,,60ff7965b012696c1357219c,61036979e5e98a764026aa26,2021-07-29_22h53.50.426,Simcolourproject_2stim_asymm_v5,2020.2.10,MacIntel,60,61025ae37ef11b136ea224fe,,,,,,,,,688,32.515625,72.171875,1,0,0,response1disk,,7,10.47265625,-2.81640625,1,0,0,rectangle,41.30078125,78.38671875,1,0,0,-1,-5.15625,1,0,0,1,31,191,145,1,,response1disk_3,TRUE,7,7,"[246,183,6,236,95,149,94,245,227,119,266,192,62,151,80,36,286,319,249,13]",1.267510001,rectangle
,,,,,,,,,,,,,FF,,,,,,,,0.63303,,,,,,,,,,,,,,,,,,,,,,60ff7965b012696c1357219c,61036979e5e98a764026aa26,2021-07-29_22h53.50.426,Simcolourproject_2stim_asymm_v5,2020.2.10,MacIntel,60,61025ae37ef11b136ea224fe,,,,,,,,,2259,40.12109375,78.9609375,1,0,0,response1disk,,7,7.04296875,-5.671875,1,0,0,rectangle,7.04296875,-5.671875,1,0,0,7.04296875,-5.671875,1,0,0,1,32,192,127,1,,,,,,,,
,,,,,,,,,,,,,FF,,,,,,,,1.017539999,,,,,,,,,,,,,,,,,,,,,,60ff7965b012696c1357219c,61036979e5e98a764026aa26,2021-07-29_22h53.50.426,Simcolourproject_2stim_asymm_v5,2020.2.10,MacIntel,60,61025ae37ef11b136ea224fe,,,,,,,,,3392,-56.59375,-19.57421875,1,0,0,response5disk,,2,-6.51953125,-8.8515625,1,0,0,rectangle,-6.51953125,-8.8515625,1,0,0,-6.51953125,-8.8515625,1,0,0,1,33,193,155,1,,,,,,,,
,,,,,,,,,,,,,FF,,,,,,,,0.63321,,,,,,,,,,,,,,,,,,,,,,60ff7965b012696c1357219c,61036979e5e98a764026aa26,2021-07-29_22h53.50.426,Simcolourproject_2stim_asymm_v5,2020.2.10,MacIntel,60,61025ae37ef11b136ea224fe,,,,,,,,,56,40.8046875,83.234375,1,0,0,response1disk,,7,12.02734375,-2.44140625,1,0,0,rectangle,12.02734375,-2.44140625,1,0,0,12.02734375,-2.44140625,1,0,0,1,34,194,11,1,,,,,,,,
,,,,,,,,,,,,,FF,,,,,,,,0.516155,,,,,,,,,,,,,,,,,,,,,,60ff7965b012696c1357219c,61036979e5e98a764026aa26,2021-07-29_22h53.50.426,Simcolourproject_2stim_asymm_v5,2020.2.10,MacIntel,60,61025ae37ef11b136ea224fe,,,,,,,,,1679,30.07421875,81.00390625,1,0,0,response1disk,,7,10.01171875,1.1484375,1,0,0,rectangle,10.01171875,1.1484375,1,0,0,10.01171875,1.1484375,1,0,0,1,35,195,147,1,,,,,,,,
,,,,,,,,,,,,,FF,,,,,,,,0.482855001,,,,,,,,,,,,,,,,,,,,,,60ff7965b012696c1357219c,61036979e5e98a764026aa26,2021-07-29_22h53.50.426,Simcolourproject_2stim_asymm_v5,2020.2.10,MacIntel,60,61025ae37ef11b136ea224fe,,,,,,,,,4221,46.96875,94.93359375,1,0,0,response1disk,,7,9.41796875,4.53125,1,0,0,rectangle,9.41796875,4.53125,1,0,0,9.41796875,4.53125,1,0,0,1,36,196,78,1,,,,,,,,
,,,,,,,,,,,,,FF,,,,,,,,0.450775,,,,,,,,,,,,,,,,,,,,,,60ff7965b012696c1357219c,61036979e5e98a764026aa26,2021-07-29_22h53.50.426,Simcolourproject_2stim_asymm_v5,2020.2.10,MacIntel,60,61025ae37ef11b136ea224fe,,,,,,,,,3061,45.2421875,80.015625,1,0,0,response1disk,,7,17.09765625,-3.54296875,1,0,0,rectangle,17.09765625,-3.54296875,1,0,0,17.09765625,-3.54296875,1,0,0,1,37,197,90,1,,,,,,,,
,,,,,,,,,,,,,FF,,,,,,,,0.416719999,,,,,,,,,,,,,,,,,,,,,,60ff7965b012696c1357219c,61036979e5e98a764026aa26,2021-07-29_22h53.50.426,Simcolourproject_2stim_asymm_v5,2020.2.10,MacIntel,60,61025ae37ef11b136ea224fe,,,,,,,,,3789,46.65234375,86.81640625,1,0,0,response1disk,,7,12.33203125,-9.19921875,1,0,0,rectangle,12.33203125,-9.19921875,1,0,0,12.33203125,-9.19921875,1,0,0,1,38,198,68,1,,,,,,,,
,,,,,,,,,,,,,FF,,,,,,,,0.450215,,,,,,,,,,,,,,,,,,,,,,60ff7965b012696c1357219c,61036979e5e98a764026aa26,2021-07-29_22h53.50.426,Simcolourproject_2stim_asymm_v5,2020.2.10,MacIntel,60,61025ae37ef11b136ea224fe,,,,,,,,,1463,45.4140625,78.48046875,1,0,0,response1disk,,7,10.86328125,-11.21875,1,0,0,rectangle,10.86328125,-11.21875,1,0,0,10.86328125,-11.21875,1,0,0,1,39,199,131,1,,,,,,,,
,,,,,,,,,,,,,FF,,,,,,,,0.432814999,,,,,,,,,,,,,,,,,,,,,,60ff7965b012696c1357219c,61036979e5e98a764026aa26,2021-07-29_22h53.50.426,Simcolourproject_2stim_asymm_v5,2020.2.10,MacIntel,60,61025ae37ef11b136ea224fe,,,,,,,,,400,51.9765625,87.46875,1,0,0,response1disk,,7,21.9296875,0.734375,1,0,0,rectangle,21.9296875,0.734375,1,0,0,21.9296875,0.734375,1,0,0,1,40,200,104,1,,,,,,,,
,,,,,,,,,,,,,FF,,,,,,,,1.1172,,,,,,,,,,,,,,,,,,,,,,60ff7965b012696c1357219c,61036979e5e98a764026aa26,2021-07-29_22h53.50.426,Simcolourproject_2stim_asymm_v5,2020.2.10,MacIntel,60,61025ae37ef11b136ea224fe,,,,,,,,,2882,56.98828125,35.00390625,1,0,0,response1disk,,6,-4.96875,-6.3203125,1,0,0,rectangle,-4.96875,-6.3203125,1,0,0,-4.96875,-6.3203125,1,0,0,1,41,201,128,1,,,,,,,,
,,,,,,,,,,,,,FF,,,,,,,,0.632355,,,,,,,,,,,,,,,,,,,,,,60ff7965b012696c1357219c,61036979e5e98a764026aa26,2021-07-29_22h53.50.426,Simcolourproject_2stim_asymm_v5,2020.2.10,MacIntel,60,61025ae37ef11b136ea224fe,,,,,,,,,984,19.0234375,61.85546875,1,0,0,response1disk,,7,-6.515625,5.07421875,1,0,0,rectangle,-6.515625,5.07421875,1,0,0,-6.515625,5.07421875,1,0,0,1,42,202,76,1,,,,,,,,
,,,,,,,,,,,,,FF,,,,,,,,0.485005001,,,,,,,,,,,,,,,,,,,,,,60ff7965b012696c1357219c,61036979e5e98a764026aa26,2021-07-29_22h53.50.426,Simcolourproject_2stim_asymm_v5,2020.2.10,MacIntel,60,61025ae37ef11b136ea224fe,,,,,,,,,2453,39.63671875,71.78125,1,0,0,response1disk,,7,16.328125,2.0078125,1,0,0,rectangle,16.328125,2.0078125,1,0,0,16.328125,2.0078125,1,0,0,1,43,203,66,1,,,,,,,,
,,,,,,,,,,,,,FF,,,,,,,,0.484315,,,,,,,,,,,,,,,,,,,,,,60ff7965b012696c1357219c,61036979e5e98a764026aa26,2021-07-29_22h53.50.426,Simcolourproject_2stim_asymm_v5,2020.2.10,MacIntel,60,61025ae37ef11b136ea224fe,,,,,,,,,4036,40.91015625,75.40234375,1,0,0,response1disk,,7,12.46875,2.03515625,1,0,0,rectangle,12.46875,2.03515625,1,0,0,12.46875,2.03515625,1,0,0,1,44,204,20,1,,,,,,,,
,,,,,,,,,,,,,FF,,,,,,,,0.986040001,,,,,,,,,,,,,,,,,,,,,,60ff7965b012696c1357219c,61036979e5e98a764026aa26,2021-07-29_22h53.50.426,Simcolourproject_2stim_asymm_v5,2020.2.10,MacIntel,60,61025ae37ef11b136ea224fe,,,,,,,,,2228,-29.25390625,-66.390625,1,0,0,response5disk,,3,13.796875,-8.37109375,1,0,0,rectangle,13.796875,-8.37109375,1,0,0,13.796875,-8.37109375,1,0,0,1,45,205,135,1,,,,,,,,
,,,,,,,,,,,,,FF,,,,,,,,0.50013,,,,,,,,,,,,,,,,,,,,,,60ff7965b012696c1357219c,61036979e5e98a764026aa26,2021-07-29_22h53.50.426,Simcolourproject_2stim_asymm_v5,2020.2.10,MacIntel,60,61025ae37ef11b136ea224fe,,,,,,,,,1096,46.3203125,77.87109375,1,0,0,response1disk,,7,17.234375,-10.73046875,1,0,0,rectangle,17.234375,-10.73046875,1,0,0,17.234375,-10.73046875,1,0,0,1,46,206,109,1,,,,,,,,
,,,,,,,,,,,,,FF,,,,,,,,0.96747,,,,,,,,,,,,,,,,,,,,,,60ff7965b012696c1357219c,61036979e5e98a764026aa26,2021-07-29_22h53.50.426,Simcolourproject_2stim_asymm_v5,2020.2.10,MacIntel,60,61025ae37ef11b136ea224fe,,,,,,,,,1775,38.10546875,77.98828125,1,0,0,response1disk,,7,18.28125,0.8125,1,0,0,rectangle,18.28125,0.8125,1,0,0,18.28125,0.8125,1,0,0,1,47,207,70,1,,,,,,,,
,,,,,,,,,,,,,FF,,,,,,,,1.45125,,,,,,,,,,,,,,,,,,,,,,60ff7965b012696c1357219c,61036979e5e98a764026aa26,2021-07-29_22h53.50.426,Simcolourproject_2stim_asymm_v5,2020.2.10,MacIntel,60,61025ae37ef11b136ea224fe,,,,,,,,,2815,37.50390625,73.65625,1,0,0,response1disk,,7,8.57421875,2.83984375,1,0,0,rectangle,8.57421875,2.83984375,1,0,0,8.57421875,2.83984375,1,0,0,1,48,208,102,1,,,,,,,,
,,,,,,,,,,,,,FF,,,,,,,,0.916235,,,,,,,,,,,,,,,,,,,,,,60ff7965b012696c1357219c,61036979e5e98a764026aa26,2021-07-29_22h53.50.426,Simcolourproject_2stim_asymm_v5,2020.2.10,MacIntel,60,61025ae37ef11b136ea224fe,,,,,,,,,4052,-40.83203125,-71.953125,1,0,0,response5disk,,3,4.94921875,-11.19140625,1,0,0,rectangle,4.94921875,-11.19140625,1,0,0,4.94921875,-11.19140625,1,0,0,1,49,209,146,1,,,,,,,,
,,,,,,,,,,,,,FF,,,,,,,,0.568615001,,,,,,,,,,,,,,,,,,,,,,60ff7965b012696c1357219c,61036979e5e98a764026aa26,2021-07-29_22h53.50.426,Simcolourproject_2stim_asymm_v5,2020.2.10,MacIntel,60,61025ae37ef11b136ea224fe,,,,,,,,,2255,27.94140625,68.0390625,1,0,0,response1disk,,7,13.91796875,3.19140625,1,0,0,rectangle,13.91796875,3.19140625,1,0,0,13.91796875,3.19140625,1,0,0,1,50,210,153,1,,,,,,,,
,,,,,,,,,,,,,FF,,,,,,,,0.38401,,,,,,,,,,,,,,,,,,,,,,60ff7965b012696c1357219c,61036979e5e98a764026aa26,2021-07-29_22h53.50.426,Simcolourproject_2stim_asymm_v5,2020.2.10,MacIntel,60,61025ae37ef11b136ea224fe,,,,,,,,,3069,32.41796875,79.82421875,1,0,0,response1disk,,7,14.27734375,0.91015625,1,0,0,rectangle,14.27734375,0.91015625,1,0,0,14.27734375,0.91015625,1,0,0,1,51,211,12,1,,,,,,,,
,,,,,,,,,,,,,FF,,,,,,,,0.934289999,,,,,,,,,,,,,,,,,,,,,,60ff7965b012696c1357219c,61036979e5e98a764026aa26,2021-07-29_22h53.50.426,Simcolourproject_2stim_asymm_v5,2020.2.10,MacIntel,60,61025ae37ef11b136ea224fe,,,,,,,,,2885,37.3359375,95.203125,1,0,0,response1disk,,7,19.25,14.6640625,1,0,0,rectangle,19.25,14.6640625,1,0,0,19.25,14.6640625,1,0,0,1,52,212,1,1,,,,,,,,
,,,,,,,,,,,,,FF,,,,,,,,1.132805,,,,,,,,,,,,,,,,,,,,,,60ff7965b012696c1357219c,61036979e5e98a764026aa26,2021-07-29_22h53.50.426,Simcolourproject_2stim_asymm_v5,2020.2.10,MacIntel,60,61025ae37ef11b136ea224fe,,,,,,,,,4255,30.890625,-86.61328125,1,0,0,response3disk,,4,21.34765625,-13.69140625,1,0,0,rectangle,21.34765625,-13.69140625,1,0,0,21.34765625,-13.69140625,1,0,0,1,53,213,99,1,,,,,,,,
,,,,,,,,,,,,,FF,,,,,,,,0.433345,,,,,,,,,,,,,,,,,,,,,,60ff7965b012696c1357219c,61036979e5e98a764026aa26,2021-07-29_22h53.50.426,Simcolourproject_2stim_asymm_v5,2020.2.10,MacIntel,60,61025ae37ef11b136ea224fe,,,,,,,,,1869,37.8984375,110.0351563,1,0,0,response1disk,,7,13.39453125,14.37109375,1,0,0,rectangle,13.39453125,14.37109375,1,0,0,13.39453125,14.37109375,1,0,0,1,54,214,0,1,,,,,,,,
,,,,,,,,,,,,,FF,,,,,,,,0.516635001,,,,,,,,,,,,,,,,,,,,,,60ff7965b012696c1357219c,61036979e5e98a764026aa26,2021-07-29_22h53.50.426,Simcolourproject_2stim_asymm_v5,2020.2.10,MacIntel,60,61025ae37ef11b136ea224fe,,,,,,,,,3978,46.16796875,73.84375,1,0,0,response1disk,,7,21.59765625,4.37890625,1,0,0,rectangle,21.59765625,4.37890625,1,0,0,21.59765625,4.37890625,1,0,0,1,55,215,60,1,,,,,,,,
,,,,,,,,,,,,,FF,,,,,,,,0.44923,,,,,,,,,,,,,,,,,,,,,,60ff7965b012696c1357219c,61036979e5e98a764026aa26,2021-07-29_22h53.50.426,Simcolourproject_2stim_asymm_v5,2020.2.10,MacIntel,60,61025ae37ef11b136ea224fe,,,,,,,,,312,39.16796875,70.58984375,1,0,0,response1disk,,7,14.65625,-3.375,1,0,0,rectangle,14.65625,-3.375,1,0,0,14.65625,-3.375,1,0,0,1,56,216,142,1,,,,,,,,
,,,,,,,,,,,,,FF,,,,,,,,0.53344,,,,,,,,,,,,,,,,,,,,,,60ff7965b012696c1357219c,61036979e5e98a764026aa26,2021-07-29_22h53.50.426,Simcolourproject_2stim_asymm_v5,2020.2.10,MacIntel,60,61025ae37ef11b136ea224fe,,,,,,,,,4333,37.84375,51.61328125,1,0,0,response1disk,,7,6.45703125,-9.6953125,1,0,0,rectangle,6.45703125,-9.6953125,1,0,0,6.45703125,-9.6953125,1,0,0,1,57,217,151,1,,,,,,,,
,,,,,,,,,,,,,FF,,,,,,,,0.600005,,,,,,,,,,,,,,,,,,,,,,60ff7965b012696c1357219c,61036979e5e98a764026aa26,2021-07-29_22h53.50.426,Simcolourproject_2stim_asymm_v5,2020.2.10,MacIntel,60,61025ae37ef11b136ea224fe,,,,,,,,,3687,47.9609375,83.17578125,1,0,0,response1disk,,7,9.46875,-5.32421875,1,0,0,rectangle,9.46875,-5.32421875,1,0,0,9.46875,-5.32421875,1,0,0,1,58,218,61,1,,,,,,,,
,,,,,,,,,,,,,FF,,,,,,,,0.982545001,,,,,,,,,,,,,,,,,,,,,,60ff7965b012696c1357219c,61036979e5e98a764026aa26,2021-07-29_22h53.50.426,Simcolourproject_2stim_asymm_v5,2020.2.10,MacIntel,60,61025ae37ef11b136ea224fe,,,,,,,,,2306,59.09375,36.87890625,1,0,0,response1disk,,6,8.046875,6.26171875,1,0,0,rectangle,8.046875,6.26171875,1,0,0,8.046875,6.26171875,1,0,0,1,59,219,3,1,,,,,,,,
,,,,,,,,,,,,,FF,,,,,,,,0.75145,,,,,,,,,,,,,,,,,,,,,,60ff7965b012696c1357219c,61036979e5e98a764026aa26,2021-07-29_22h53.50.426,Simcolourproject_2stim_asymm_v5,2020.2.10,MacIntel,60,61025ae37ef11b136ea224fe,,,,,,,,,3838,32.046875,71.50390625,1,0,0,response1disk,,7,-0.69140625,-2.375,1,0,0,rectangle,-0.69140625,-2.375,1,0,0,-0.69140625,-2.375,1,0,0,1,60,220,93,1,,,,,,,,
,,,,,,,,,,,,,FF,,,,,,,,0.468195,,,,,,,,,,,,,,,,,,,,,,60ff7965b012696c1357219c,61036979e5e98a764026aa26,2021-07-29_22h53.50.426,Simcolourproject_2stim_asymm_v5,2020.2.10,MacIntel,60,61025ae37ef11b136ea224fe,,,,,,,,,3158,30.546875,45.11328125,1,0,0,response1disk,,7,14.00390625,-10.87109375,1,0,0,rectangle,14.00390625,-10.87109375,1,0,0,14.00390625,-10.87109375,1,0,0,1,61,221,32,1,,,,,,,,
,,,,,,,,,,,,,FF,,,,,,,,0.532834999,,,,,,,,,,,,,,,,,,,,,,60ff7965b012696c1357219c,61036979e5e98a764026aa26,2021-07-29_22h53.50.426,Simcolourproject_2stim_asymm_v5,2020.2.10,MacIntel,60,61025ae37ef11b136ea224fe,,,,,,,,,2912,40.2265625,75.21484375,1,0,0,response1disk,,7,11.55859375,6.734375,1,0,0,rectangle,11.55859375,6.734375,1,0,0,11.55859375,6.734375,1,0,0,1,62,222,17,1,,,,,,,,
,,,,,,,,,,,,,FF,,,,,,,,0.417250001,,,,,,,,,,,,,,,,,,,,,,60ff7965b012696c1357219c,61036979e5e98a764026aa26,2021-07-29_22h53.50.426,Simcolourproject_2stim_asymm_v5,2020.2.10,MacIntel,60,61025ae37ef11b136ea224fe,,,,,,,,,3718,51.04296875,102.0585938,1,0,0,response1disk,,7,15.7734375,1.01953125,1,0,0,rectangle,15.7734375,1.01953125,1,0,0,15.7734375,1.01953125,1,0,0,1,63,223,143,1,,,,,,,,
,,,,,,,,,,,,,FF,,,,,,,,0.484595,,,,,,,,,,,,,,,,,,,,,,60ff7965b012696c1357219c,61036979e5e98a764026aa26,2021-07-29_22h53.50.426,Simcolourproject_2stim_asymm_v5,2020.2.10,MacIntel,60,61025ae37ef11b136ea224fe,,,,,,,,,3873,37.0625,79.609375,1,0,0,response1disk,,7,9.93359375,-3.015625,1,0,0,rectangle,9.93359375,-3.015625,1,0,0,9.93359375,-3.015625,1,0,0,1,64,224,67,1,,,,,,,,
,,,,,,,,,,,,,FF,,,,,,,,0.40141,,,,,,,,,,,,,,,,,,,,,,60ff7965b012696c1357219c,61036979e5e98a764026aa26,2021-07-29_22h53.50.426,Simcolourproject_2stim_asymm_v5,2020.2.10,MacIntel,60,61025ae37ef11b136ea224fe,,,,,,,,,770,26.1328125,100.1171875,1,0,0,response1disk,,7,6.72265625,3,1,0,0,rectangle,6.72265625,3,1,0,0,6.72265625,3,1,0,0,1,65,225,7,1,,,,,,,,
,,,,,,,,,,,,,FF,,,,,,,,0.383375,,,,,,,,,,,,,,,,,,,,,,60ff7965b012696c1357219c,61036979e5e98a764026aa26,2021-07-29_22h53.50.426,Simcolourproject_2stim_asymm_v5,2020.2.10,MacIntel,60,61025ae37ef11b136ea224fe,,,,,,,,,489,39.1640625,79.875,1,0,0,response1disk,,7,13.08984375,-1.76953125,1,0,0,rectangle,49.6796875,-91.6171875,1,0,0,16.7421875,-2.0625,1,0,0,1,66,226,141,1,,response3disk_3,TRUE,4,4,"[246,183,6,236,95,149,94,245,227,119,266,192,62,151,80,36,286,319,249,13]",2.083875,rectangle
,,,,,,,,,,,,,FF,,,,,,,,1.317555,,,,,,,,,,,,,,,,,,,,,,60ff7965b012696c1357219c,61036979e5e98a764026aa26,2021-07-29_22h53.50.426,Simcolourproject_2stim_asymm_v5,2020.2.10,MacIntel,60,61025ae37ef11b136ea224fe,,,,,,,,,1879,33.3828125,75.109375,1,0,0,response1disk,,7,1.69921875,-1.39453125,1,0,0,rectangle,1.69921875,-1.39453125,1,0,0,1.69921875,-1.39453125,1,0,0,1,67,227,44,1,,,,,,,,
,,,,,,,,,,,,,FF,,,,,,,,1.000469999,,,,,,,,,,,,,,,,,,,,,,60ff7965b012696c1357219c,61036979e5e98a764026aa26,2021-07-29_22h53.50.426,Simcolourproject_2stim_asymm_v5,2020.2.10,MacIntel,60,61025ae37ef11b136ea224fe,,,,,,,,,2158,32.1328125,55.00390625,1,0,0,response1disk,,7,-8.8203125,0.66015625,1,0,0,rectangle,-8.8203125,0.66015625,1,0,0,-8.8203125,0.66015625,1,0,0,1,68,228,48,1,,,,,,,,
,,,,,,,,,,,,,FF,,,,,,,,2.835030001,,,,,,,,,,,,,,,,,,,,,,60ff7965b012696c1357219c,61036979e5e98a764026aa26,2021-07-29_22h53.50.426,Simcolourproject_2stim_asymm_v5,2020.2.10,MacIntel,60,61025ae37ef11b136ea224fe,,,,,,,,,3495,32.7890625,66.93359375,1,0,0,response1disk,,7,-7.22265625,-6.28515625,1,0,0,rectangle,-7.22265625,-6.28515625,1,0,0,-7.22265625,-6.28515625,1,0,0,1,69,229,5,1,,,,,,,,
,,,,,,,,,,,,,FF,,,,,,,,0.73315,,,,,,,,,,,,,,,,,,,,,,60ff7965b012696c1357219c,61036979e5e98a764026aa26,2021-07-29_22h53.50.426,Simcolourproject_2stim_asymm_v5,2020.2.10,MacIntel,60,61025ae37ef11b136ea224fe,,,,,,,,,4075,20.24609375,44.8515625,1,0,0,response1disk,,7,6.36328125,-0.6640625,1,0,0,rectangle,6.36328125,-0.6640625,1,0,0,6.36328125,-0.6640625,1,0,0,1,70,230,144,1,,,,,,,,
,,,,,,,,,,,,,FF,,,,,,,,0.501425,,,,,,,,,,,,,,,,,,,,,,60ff7965b012696c1357219c,61036979e5e98a764026aa26,2021-07-29_22h53.50.426,Simcolourproject_2stim_asymm_v5,2020.2.10,MacIntel,60,61025ae37ef11b136ea224fe,,,,,,,,,1238,50.1875,65.9609375,1,0,0,response1disk,,7,15.9140625,8.30078125,1,0,0,rectangle,15.9140625,8.30078125,1,0,0,15.9140625,8.30078125,1,0,0,1,71,231,65,1,,,,,,,,
,,,,,,,,,,,,,FF,,,,,,,,0.366185,,,,,,,,,,,,,,,,,,,,,,60ff7965b012696c1357219c,61036979e5e98a764026aa26,2021-07-29_22h53.50.426,Simcolourproject_2stim_asymm_v5,2020.2.10,MacIntel,60,61025ae37ef11b136ea224fe,,,,,,,,,3129,50.421875,98.953125,1,0,0,response1disk,,7,8.23828125,-1.8515625,1,0,0,rectangle,8.23828125,-1.8515625,1,0,0,8.23828125,-1.8515625,1,0,0,1,72,232,157,1,,,,,,,,
,,,,,,,,,,,,,FF,,,,,,,,0.467835001,,,,,,,,,,,,,,,,,,,,,,60ff7965b012696c1357219c,61036979e5e98a764026aa26,2021-07-29_22h53.50.426,Simcolourproject_2stim_asymm_v5,2020.2.10,MacIntel,60,61025ae37ef11b136ea224fe,,,,,,,,,404,53.375,81.1015625,1,0,0,response1disk,,7,9.41796875,-10.3515625,1,0,0,rectangle,9.41796875,-10.3515625,1,0,0,9.41796875,-10.3515625,1,0,0,1,73,233,150,1,,,,,,,,
,,,,,,,,,,,,,FF,,,,,,,,0.3833,,,,,,,,,,,,,,,,,,,,,,60ff7965b012696c1357219c,61036979e5e98a764026aa26,2021-07-29_22h53.50.426,Simcolourproject_2stim_asymm_v5,2020.2.10,MacIntel,60,61025ae37ef11b136ea224fe,,,,,,,,,781,37.66015625,75.64453125,1,0,0,response1disk,,7,8.24609375,10.45703125,1,0,0,rectangle,8.24609375,10.45703125,1,0,0,8.24609375,10.45703125,1,0,0,1,74,234,140,1,,,,,,,,
,,,,,,,,,,,,,FF,,,,,,,,0.44999,,,,,,,,,,,,,,,,,,,,,,60ff7965b012696c1357219c,61036979e5e98a764026aa26,2021-07-29_22h53.50.426,Simcolourproject_2stim_asymm_v5,2020.2.10,MacIntel,60,61025ae37ef11b136ea224fe,,,,,,,,,218,28.9296875,73.96875,1,0,0,response1disk,,7,16.5234375,8.6796875,1,0,0,rectangle,42.859375,105.421875,1,0,0,6.28125,-7.46875,1,0,0,1,75,235,130,1,,response1disk_3,TRUE,7,7,"[246,183,6,236,95,149,94,245,227,119,266,192,62,151,80,36,286,319,249,13]",1.385765,rectangle
,,,,,,,,,,,,,FF,,,,,,,,1.967665,,,,,,,,,,,,,,,,,,,,,,60ff7965b012696c1357219c,61036979e5e98a764026aa26,2021-07-29_22h53.50.426,Simcolourproject_2stim_asymm_v5,2020.2.10,MacIntel,60,61025ae37ef11b136ea224fe,,,,,,,,,8,28.23046875,70.8046875,1,0,0,response1disk,,7,10.2109375,-4.90234375,1,0,0,rectangle,10.2109375,-4.90234375,1,0,0,10.2109375,-4.90234375,1,0,0,1,76,236,117,1,,,,,,,,
,,,,,,,,,,,,,FF,,,,,,,,0.567989999,,,,,,,,,,,,,,,,,,,,,,60ff7965b012696c1357219c,61036979e5e98a764026aa26,2021-07-29_22h53.50.426,Simcolourproject_2stim_asymm_v5,2020.2.10,MacIntel,60,61025ae37ef11b136ea224fe,,,,,,,,,669,34.7890625,54.21875,1,0,0,response1disk,,7,9.69921875,-14.05078125,1,0,0,rectangle,9.69921875,-14.05078125,1,0,0,9.69921875,-14.05078125,1,0,0,1,77,237,75,1,,,,,,,,
,,,,,,,,,,,,,FF,,,,,,,,0.583210001,,,,,,,,,,,,,,,,,,,,,,60ff7965b012696c1357219c,61036979e5e98a764026aa26,2021-07-29_22h53.50.426,Simcolourproject_2stim_asymm_v5,2020.2.10,MacIntel,60,61025ae37ef11b136ea224fe,,,,,,,,,359,40.57421875,65.56640625,1,0,0,response1disk,,7,21.2421875,8.07421875,1,0,0,rectangle,21.2421875,8.07421875,1,0,0,21.2421875,8.07421875,1,0,0,1,78,238,132,1,,,,,,,,
,,,,,,,,,,,,,FF,,,,,,,,0.4336,,,,,,,,,,,,,,,,,,,,,,60ff7965b012696c1357219c,61036979e5e98a764026aa26,2021-07-29_22h53.50.426,Simcolourproject_2stim_asymm_v5,2020.2.10,MacIntel,60,61025ae37ef11b136ea224fe,,,,,,,,,2991,40.23828125,74.31640625,1,0,0,response1disk,,7,10.81640625,-2.65234375,1,0,0,rectangle,10.81640625,-2.65234375,1,0,0,10.81640625,-2.65234375,1,0,0,1,79,239,115,1,,,,,,,,
,,,,,,,,,,,,,FF,,,,,,,,0.70157,,,,,,,,,,,,,,,,,,,,,,60ff7965b012696c1357219c,61036979e5e98a764026aa26,2021-07-29_22h53.50.426,Simcolourproject_2stim_asymm_v5,2020.2.10,MacIntel,60,61025ae37ef11b136ea224fe,,,,,,,,,3951,42.8359375,74.828125,1,0,0,response1disk,,7,9.22265625,-4.98828125,1,0,0,rectangle,9.22265625,-4.98828125,1,0,0,9.22265625,-4.98828125,1,0,0,1,80,240,25,1,,,,,,,,
,,,,,,,,,,,,,FF,,,,,,,,0.984075001,,,,,,,,,,,,,,,,,,,,,,60ff7965b012696c1357219c,61036979e5e98a764026aa26,2021-07-29_22h53.50.426,Simcolourproject_2stim_asymm_v5,2020.2.10,MacIntel,60,61025ae37ef11b136ea224fe,,,,,,,,,3092,86.609375,39.73046875,1,0,0,response1disk,,6,1.296875,-1.7890625,1,0,0,rectangle,1.296875,-1.7890625,1,0,0,1.296875,-1.7890625,1,0,0,1,81,241,42,1,,,,,,,,
,,,,,,,,,,,,,FF,,,,,,,,0.483365,,,,,,,,,,,,,,,,,,,,,,60ff7965b012696c1357219c,61036979e5e98a764026aa26,2021-07-29_22h53.50.426,Simcolourproject_2stim_asymm_v5,2020.2.10,MacIntel,60,61025ae37ef11b136ea224fe,,,,,,,,,1802,21.57421875,69.625,1,0,0,response1disk,,7,6.80078125,-3.26171875,1,0,0,rectangle,6.80078125,-3.26171875,1,0,0,6.80078125,-3.26171875,1,0,0,1,82,242,136,1,,,,,,,,
,,,,,,,,,,,,,FF,,,,,,,,0.381775,,,,,,,,,,,,,,,,,,,,,,60ff7965b012696c1357219c,61036979e5e98a764026aa26,2021-07-29_22h53.50.426,Simcolourproject_2stim_asymm_v5,2020.2.10,MacIntel,60,61025ae37ef11b136ea224fe,,,,,,,,,2434,36.03515625,61.93359375,1,0,0,response1disk,,7,19.09765625,3.45703125,1,0,0,rectangle,19.09765625,3.45703125,1,0,0,19.09765625,3.45703125,1,0,0,1,83,243,100,1,,,,,,,,
,,,,,,,,,,,,,FF,,,,,,,,0.41629,,,,,,,,,,,,,,,,,,,,,,60ff7965b012696c1357219c,61036979e5e98a764026aa26,2021-07-29_22h53.50.426,Simcolourproject_2stim_asymm_v5,2020.2.10,MacIntel,60,61025ae37ef11b136ea224fe,,,,,,,,,3347,36.47265625,83.9375,1,0,0,response1disk,,7,10.421875,2.80078125,1,0,0,rectangle,37.30859375,81.35546875,1,0,0,0.5625,2.08203125,1,0,0,1,84,244,50,1,,response1disk_3,TRUE,7,1,"[246,183,6,236,95,149,94,245,227,119,266,192,62,151,80,36,286,319,249,13]",1.516795,rectangle
,,,,,,,,,,,,,FF,,,,,,,,0.800735001,,,,,,,,,,,,,,,,,,,,,,60ff7965b012696c1357219c,61036979e5e98a764026aa26,2021-07-29_22h53.50.426,Simcolourproject_2stim_asymm_v5,2020.2.10,MacIntel,60,61025ae37ef11b136ea224fe,,,,,,,,,1913,34.52734375,74.7890625,1,0,0,response1disk,,7,-1.80078125,-12.2109375,1,0,0,rectangle,26.640625,95.12890625,1,0,0,5.5703125,-5.078125,1,0,0,1,85,245,89,1,,response1disk_3,TRUE,7,7,"[246,183,6,236,95,149,94,245,227,119,266,192,62,151,80,36,286,319,249,13]",2.250085,rectangle
,,,,,,,,,,,,,FF,,,,,,,,2.351535,,,,,,,,,,,,,,,,,,,,,,60ff7965b012696c1357219c,61036979e5e98a764026aa26,2021-07-29_22h53.50.426,Simcolourproject_2stim_asymm_v5,2020.2.10,MacIntel,60,61025ae37ef11b136ea224fe,,,,,,,,,625,44.55078125,82.21484375,1,0,0,response1disk,,7,7.9921875,5.79296875,1,0,0,rectangle,7.9921875,5.79296875,1,0,0,7.9921875,5.79296875,1,0,0,1,86,246,62,1,,,,,,,,
,,,,,,,,,,,,,FF,,,,,,,,1.051105,,,,,,,,,,,,,,,,,,,,,,60ff7965b012696c1357219c,61036979e5e98a764026aa26,2021-07-29_22h53.50.426,Simcolourproject_2stim_asymm_v5,2020.2.10,MacIntel,60,61025ae37ef11b136ea224fe,,,,,,,,,2947,78.58984375,-30.67578125,1,0,0,response3disk,,5,4.13671875,-0.9296875,1,0,0,rectangle,4.13671875,-0.9296875,1,0,0,4.13671875,-0.9296875,1,0,0,1,87,247,118,1,,,,,,,,
