key_resp.keys,key_resp.rt,key_resp_14.keys,key_resp_14.rt,key_resp_15.keys,key_resp_15.rt,key_resp_17.keys,key_resp_17.rt,key_resp_9.keys,key_resp_9.rt,key_resp_10.keys,key_resp_10.rt,practice_comparison,Ecc,mouse_5.x,mouse_5.y,mouse_5.leftButton,mouse_5.midButton,mouse_5.rightButton,mouse_5.clicked_name,pracsimilarity,response_time,mouse_10.x,mouse_10.y,mouse_10.leftButton,mouse_10.midButton,mouse_10.rightButton,mouse_10.clicked_name,mouse_7.x,mouse_7.y,mouse_7.leftButton,mouse_7.midButton,mouse_7.rightButton,mouse_6.x,mouse_6.y,mouse_6.leftButton,mouse_6.midButton,mouse_6.rightButton,duringprac.thisRepN,duringprac.thisTrialN,duringprac.thisN,duringprac.thisIndex,duringprac.ran,participant,session,date,expName,psychopyVersion,OS,frameRate,study_id,mouse_7.clicked_name,catchpracsimilarity,catch_response_time,catchnumberprac,catchtrialorderprac,mouse_6.clicked_name,key_resp_22.keys,key_resp_22.rt,realcomparison,mouse.x,mouse.y,mouse.leftButton,mouse.midButton,mouse.rightButton,mouse.clicked_name,Colour2,similarity,mouse_2.x,mouse_2.y,mouse_2.leftButton,mouse_2.midButton,mouse_2.rightButton,mouse_2.clicked_name,mouse_3.x,mouse_3.y,mouse_3.leftButton,mouse_3.midButton,mouse_3.rightButton,mouse_11.x,mouse_11.y,mouse_11.leftButton,mouse_11.midButton,mouse_11.rightButton,trials_2.thisRepN,trials_2.thisTrialN,trials_2.thisN,trials_2.thisIndex,trials_2.ran,Colour1,mouse_3.clicked_name,catchornah,catchsimilarity,catchnumber,catchtrialorder,catchRT,mouse_11.clicked_name
space,0.1887,space,5.5114,space,20.451,space,4.3467,space,1.0108,space,2.774,72,FF,92.00001281,-42.40000707,1,0,0,response3disk_5,5,6.995,-7.199988663,-4.800006509,1,0,0,rectangle_8,-7.199988663,-4.800006509,1,0,0,-7.199988663,-4.800006509,1,0,0,0,0,0,3,1,60ff943039dd3022ee2d8d10,61036f13af6d8f4cd65ba747,2021-07-29_20h19.55.227,Simcolourproject_2stim_asymm_v5,2020.2.10,Win32,60,61025ae37ef11b136ea224fe,,,,,,,,,,,,,,,,,,,,,,,,,,,,,,,,,,,,,,,,,,,,,,
,,,,,,,,,,,,116,FF,-60.79998946,-34.40000695,1,0,0,response5disk_5,2,2.7316,-0.799988568,11.99999374,1,0,0,rectangle_8,-43.99998921,78.39999473,1,0,0,-17.59998882,0.799993575,1,0,0,0,1,1,5,1,60ff943039dd3022ee2d8d10,61036f13af6d8f4cd65ba747,2021-07-29_20h19.55.227,Simcolourproject_2stim_asymm_v5,2020.2.10,Win32,60,61025ae37ef11b136ea224fe,response7disk_7,0,4.3803,5,"[2,5]",rectangle_4,,,,,,,,,,,,,,,,,,,,,,,,,,,,,,,,,,,,,,,,
,,,,,,,,,,,,51,FF,67.20001245,-117.600057,1,0,0,response3disk_5,4,2.1648,6.400011539,-6.400006533,1,0,0,rectangle_8,6.400011539,-6.400006533,1,0,0,6.400011539,-6.400006533,1,0,0,0,2,2,0,1,60ff943039dd3022ee2d8d10,61036f13af6d8f4cd65ba747,2021-07-29_20h19.55.227,Simcolourproject_2stim_asymm_v5,2020.2.10,Win32,60,61025ae37ef11b136ea224fe,,,,,,,,,,,,,,,,,,,,,,,,,,,,,,,,,,,,,,,,,,,,,,
,,,,,,,,,,,,129,PF,52.00001222,87.19997045,1,0,0,response1disk_5,7,2.0814,10.4000116,8.799993694,1,0,0,rectangle_8,10.4000116,8.799993694,1,0,0,10.4000116,8.799993694,1,0,0,0,3,3,1,1,60ff943039dd3022ee2d8d10,61036f13af6d8f4cd65ba747,2021-07-29_20h19.55.227,Simcolourproject_2stim_asymm_v5,2020.2.10,Win32,60,61025ae37ef11b136ea224fe,,,,,,,,,,,,,,,,,,,,,,,,,,,,,,,,,,,,,,,,,,,,,,
,,,,,,,,,,,,84,PF,87.20001274,59.19997003,1,0,0,response1disk_5,6,1.582,-2.399939764,6.399993658,1,0,0,rectangle_8,107.200013,-55.20000726,1,0,0,-8.799988687,3.19999361,1,0,0,0,4,4,2,1,60ff943039dd3022ee2d8d10,61036f13af6d8f4cd65ba747,2021-07-29_20h19.55.227,Simcolourproject_2stim_asymm_v5,2020.2.10,Win32,60,61025ae37ef11b136ea224fe,response3disk_7,5,2.7135,5,"[2,5]",rectangle_4,,,,,,,,,,,,,,,,,,,,,,,,,,,,,,,,,,,,,,,,
,,,,,,,,,,,,86,PF,-57.59998941,79.99999475,1,0,0,response7disk_5,0,1.9318,1.600060296,-6.400006533,1,0,0,rectangle_8,1.600060296,-6.400006533,1,0,0,1.600060296,-6.400006533,1,0,0,0,5,5,4,1,60ff943039dd3022ee2d8d10,61036f13af6d8f4cd65ba747,2021-07-29_20h19.55.227,Simcolourproject_2stim_asymm_v5,2020.2.10,Win32,60,61025ae37ef11b136ea224fe,,,,,,,,,,,,,,,,,,,,,,,,,,,,,,,,,,,,,,,,,,,,,,
,,,,,,,,,,,,71,PF,-66.39994072,-101.6000568,1,0,0,response5disk_5,3,2.048,1.14441E-05,-6.4373E-06,1,0,0,rectangle_8,1.14441E-05,-6.4373E-06,1,0,0,1.14441E-05,-6.4373E-06,1,0,0,0,6,6,6,1,60ff943039dd3022ee2d8d10,61036f13af6d8f4cd65ba747,2021-07-29_20h19.55.227,Simcolourproject_2stim_asymm_v5,2020.2.10,Win32,60,61025ae37ef11b136ea224fe,,,,,,,,,,,,,,,,,,,,,,,,,,,,,,,,,,,,,,,,,,,,,,
,,,,,,,,,,,,,FF,,,,,,,,2.5307,,,,,,,,,,,,,,,,,,,,,,60ff943039dd3022ee2d8d10,61036f13af6d8f4cd65ba747,2021-07-29_20h19.55.227,Simcolourproject_2stim_asymm_v5,2020.2.10,Win32,60,61025ae37ef11b136ea224fe,,,,,,,space,3.5646,2868,85.60001272,46.39999425,1,0,0,response1disk,,6,-3.199988604,-8.800006568,1,0,0,rectangle,-3.199988604,-8.800006568,1,0,0,-3.199988604,-8.800006568,1,0,0,0,0,0,51,1,,,,,,,,
,,,,,,,,,,,,,FF,,,,,,,,1.4335,,,,,,,,,,,,,,,,,,,,,,60ff943039dd3022ee2d8d10,61036f13af6d8f4cd65ba747,2021-07-29_20h19.55.227,Simcolourproject_2stim_asymm_v5,2020.2.10,Win32,60,61025ae37ef11b136ea224fe,,,,,,,,,2572,108.8000131,24.79999393,1,0,0,response1disk,,6,-3.999988616,7.19999367,1,0,0,rectangle,-3.999988616,7.19999367,1,0,0,-3.999988616,7.19999367,1,0,0,0,1,1,146,1,,,,,,,,
,,,,,,,,,,,,,FF,,,,,,,,1.5656,,,,,,,,,,,,,,,,,,,,,,60ff943039dd3022ee2d8d10,61036f13af6d8f4cd65ba747,2021-07-29_20h19.55.227,Simcolourproject_2stim_asymm_v5,2020.2.10,Win32,60,61025ae37ef11b136ea224fe,,,,,,,,,816,-58.3999406,-91.2000078,1,0,0,response5disk,,3,9.600060415,-0.800006449,1,0,0,rectangle,9.600060415,-0.800006449,1,0,0,9.600060415,-0.800006449,1,0,0,0,2,2,85,1,,,,,,,,
,,,,,,,,,,,,,FF,,,,,,,,1.6534,,,,,,,,,,,,,,,,,,,,,,60ff943039dd3022ee2d8d10,61036f13af6d8f4cd65ba747,2021-07-29_20h19.55.227,Simcolourproject_2stim_asymm_v5,2020.2.10,Win32,60,61025ae37ef11b136ea224fe,,,,,,,,,2123,75.20001256,-40.80000705,1,0,0,response3disk,,5,-3.999988616,4.799993634,1,0,0,rectangle,-3.999988616,4.799993634,1,0,0,-3.999988616,4.799993634,1,0,0,0,3,3,77,1,,,,,,,,
,,,,,,,,,,,,,FF,,,,,,,,1.6364,,,,,,,,,,,,,,,,,,,,,,60ff943039dd3022ee2d8d10,61036f13af6d8f4cd65ba747,2021-07-29_20h19.55.227,Simcolourproject_2stim_asymm_v5,2020.2.10,Win32,60,61025ae37ef11b136ea224fe,,,,,,,,,289,-47.99998927,-89.6000566,1,0,0,response5disk,,3,-3.199988604,-3.200006485,1,0,0,rectangle,-3.199988604,-3.200006485,1,0,0,-3.199988604,-3.200006485,1,0,0,0,4,4,11,1,,,,,,,,
,,,,,,,,,,,,,FF,,,,,,,,1.5986,,,,,,,,,,,,,,,,,,,,,,60ff943039dd3022ee2d8d10,61036f13af6d8f4cd65ba747,2021-07-29_20h19.55.227,Simcolourproject_2stim_asymm_v5,2020.2.10,Win32,60,61025ae37ef11b136ea224fe,,,,,,,,,3866,80.80001265,83.99999481,1,0,0,response1disk,,7,4.800011516,-6.4373E-06,1,0,0,rectangle,4.800011516,-6.4373E-06,1,0,0,4.800011516,-6.4373E-06,1,0,0,0,5,5,60,1,,,,,,,,
,,,,,,,,,,,,,FF,,,,,,,,2.4481,,,,,,,,,,,,,,,,,,,,,,60ff943039dd3022ee2d8d10,61036f13af6d8f4cd65ba747,2021-07-29_20h19.55.227,Simcolourproject_2stim_asymm_v5,2020.2.10,Win32,60,61025ae37ef11b136ea224fe,,,,,,,,,296,-29.599989,-103.200008,1,0,0,response5disk,,3,-11.19998872,0.799993575,1,0,0,rectangle,-11.19998872,0.799993575,1,0,0,-11.19998872,0.799993575,1,0,0,0,6,6,29,1,,,,,,,,
,,,,,,,,,,,,,FF,,,,,,,,1.5991,,,,,,,,,,,,,,,,,,,,,,60ff943039dd3022ee2d8d10,61036f13af6d8f4cd65ba747,2021-07-29_20h19.55.227,Simcolourproject_2stim_asymm_v5,2020.2.10,Win32,60,61025ae37ef11b136ea224fe,,,,,,,,,3318,104.800013,-28.80000687,1,0,0,response3disk,,5,-1.59998858,-8.000006557,1,0,0,rectangle,-1.59998858,-8.000006557,1,0,0,-1.59998858,-8.000006557,1,0,0,0,7,7,104,1,,,,,,,,
,,,,,,,,,,,,,FF,,,,,,,,3.5454,,,,,,,,,,,,,,,,,,,,,,60ff943039dd3022ee2d8d10,61036f13af6d8f4cd65ba747,2021-07-29_20h19.55.227,Simcolourproject_2stim_asymm_v5,2020.2.10,Win32,60,61025ae37ef11b136ea224fe,,,,,,,,,1592,40.80001205,-96.00000787,1,0,0,response3disk,,4,-0.799988568,7.19999367,1,0,0,rectangle,-0.799988568,7.19999367,1,0,0,-0.799988568,7.19999367,1,0,0,0,8,8,139,1,,,,,,,,
,,,,,,,,,,,,,FF,,,,,,,,1.6819,,,,,,,,,,,,,,,,,,,,,,60ff943039dd3022ee2d8d10,61036f13af6d8f4cd65ba747,2021-07-29_20h19.55.227,Simcolourproject_2stim_asymm_v5,2020.2.10,Win32,60,61025ae37ef11b136ea224fe,,,,,,,,,1382,-80.79998976,-34.40000695,1,0,0,response5disk,,2,-3.199988604,-4.000006497,1,0,0,rectangle,-47.19998926,78.39999473,1,0,0,-2.399939764,7.999993682,1,0,0,0,9,9,15,1,,response7disk_3,TRUE,0,0,"[14,10,247,123,178,42,131,260,0,69,227,17,255,85,210,204,124,259,119,16]",2.9317,rectangle
,,,,,,,,,,,,,FF,,,,,,,,2.6808,,,,,,,,,,,,,,,,,,,,,,60ff943039dd3022ee2d8d10,61036f13af6d8f4cd65ba747,2021-07-29_20h19.55.227,Simcolourproject_2stim_asymm_v5,2020.2.10,Win32,60,61025ae37ef11b136ea224fe,,,,,,,,,992,-73.59998965,-31.2000069,1,0,0,response5disk,,2,5.600060356,1.599993587,1,0,0,rectangle,5.600060356,1.599993587,1,0,0,5.600060356,1.599993587,1,0,0,0,10,10,130,1,,,,,,,,
,,,,,,,,,,,,,FF,,,,,,,,1.0484,,,,,,,,,,,,,,,,,,,,,,60ff943039dd3022ee2d8d10,61036f13af6d8f4cd65ba747,2021-07-29_20h19.55.227,Simcolourproject_2stim_asymm_v5,2020.2.10,Win32,60,61025ae37ef11b136ea224fe,,,,,,,,,4329,-65.59998953,-30.40000689,1,0,0,response5disk,,2,-1.59998858,1.599993587,1,0,0,rectangle,-1.59998858,1.599993587,1,0,0,-1.59998858,1.599993587,1,0,0,0,11,11,1,1,,,,,,,,
,,,,,,,,,,,,,FF,,,,,,,,1.2321,,,,,,,,,,,,,,,,,,,,,,60ff943039dd3022ee2d8d10,61036f13af6d8f4cd65ba747,2021-07-29_20h19.55.227,Simcolourproject_2stim_asymm_v5,2020.2.10,Win32,60,61025ae37ef11b136ea224fe,,,,,,,,,4093,24.80001181,-75.20000756,1,0,0,response3disk,,4,-2.399939764,3.19999361,1,0,0,rectangle,-2.399939764,3.19999361,1,0,0,-2.399939764,3.19999361,1,0,0,0,12,12,61,1,,,,,,,,
,,,,,,,,,,,,,FF,,,,,,,,1.5319,,,,,,,,,,,,,,,,,,,,,,60ff943039dd3022ee2d8d10,61036f13af6d8f4cd65ba747,2021-07-29_20h19.55.227,Simcolourproject_2stim_asymm_v5,2020.2.10,Win32,60,61025ae37ef11b136ea224fe,,,,,,,,,143,88.80001277,-38.40000701,1,0,0,response3disk,,5,-7.999988675,5.599993646,1,0,0,rectangle,-51.99998933,92.79999495,1,0,0,-11.19998872,-6.400006533,1,0,0,0,13,13,96,1,,response7disk_3,TRUE,0,0,"[14,10,247,123,178,42,131,260,0,69,227,17,255,85,210,204,124,259,119,16]",2.4359,rectangle
,,,,,,,,,,,,,FF,,,,,,,,2.1816,,,,,,,,,,,,,,,,,,,,,,60ff943039dd3022ee2d8d10,61036f13af6d8f4cd65ba747,2021-07-29_20h19.55.227,Simcolourproject_2stim_asymm_v5,2020.2.10,Win32,60,61025ae37ef11b136ea224fe,,,,,,,,,453,92.00001281,43.99999422,1,0,0,response1disk,,6,-32.79998904,4.799993634,1,0,0,rectangle,-32.79998904,4.799993634,1,0,0,-32.79998904,4.799993634,1,0,0,0,14,14,69,1,,,,,,,,
,,,,,,,,,,,,,FF,,,,,,,,0.9832,,,,,,,,,,,,,,,,,,,,,,60ff943039dd3022ee2d8d10,61036f13af6d8f4cd65ba747,2021-07-29_20h19.55.227,Simcolourproject_2stim_asymm_v5,2020.2.10,Win32,60,61025ae37ef11b136ea224fe,,,,,,,,,940,79.20001262,24.79999393,1,0,0,response1disk,,6,-20.79998887,-1.600006461,1,0,0,rectangle,32.00001192,82.39999479,1,0,0,-11.19998872,6.399993658,1,0,0,0,15,15,86,1,,response1disk_3,TRUE,7,7,"[14,10,247,123,178,42,131,260,0,69,227,17,255,85,210,204,124,259,119,16]",2.6301,rectangle
,,,,,,,,,,,,,FF,,,,,,,,1.1321,,,,,,,,,,,,,,,,,,,,,,60ff943039dd3022ee2d8d10,61036f13af6d8f4cd65ba747,2021-07-29_20h19.55.227,Simcolourproject_2stim_asymm_v5,2020.2.10,Win32,60,61025ae37ef11b136ea224fe,,,,,,,,,95,-79.19998974,35.9999941,1,0,0,response7disk,,1,-16.79998881,3.999993622,1,0,0,rectangle,-81.59998977,35.9999941,1,0,0,-7.199988663,-10.40000659,1,0,0,0,16,16,90,1,,response7disk_3,TRUE,1,1,"[14,10,247,123,178,42,131,260,0,69,227,17,255,85,210,204,124,259,119,16]",1.7631,rectangle
,,,,,,,,,,,,,FF,,,,,,,,1.4818,,,,,,,,,,,,,,,,,,,,,,60ff943039dd3022ee2d8d10,61036f13af6d8f4cd65ba747,2021-07-29_20h19.55.227,Simcolourproject_2stim_asymm_v5,2020.2.10,Win32,60,61025ae37ef11b136ea224fe,,,,,,,,,1949,-49.5999893,-71.2000075,1,0,0,response5disk,,3,-14.39993994,1.599993587,1,0,0,rectangle,-14.39993994,1.599993587,1,0,0,-14.39993994,1.599993587,1,0,0,0,17,17,134,1,,,,,,,,
,,,,,,,,,,,,,FF,,,,,,,,1.0348,,,,,,,,,,,,,,,,,,,,,,60ff943039dd3022ee2d8d10,61036f13af6d8f4cd65ba747,2021-07-29_20h19.55.227,Simcolourproject_2stim_asymm_v5,2020.2.10,Win32,60,61025ae37ef11b136ea224fe,,,,,,,,,991,30.4000119,-94.40000784,1,0,0,response3disk,,4,4.800011516,-14.40000665,1,0,0,rectangle,4.800011516,-14.40000665,1,0,0,4.800011516,-14.40000665,1,0,0,0,18,18,47,1,,,,,,,,
,,,,,,,,,,,,,FF,,,,,,,,1.2502,,,,,,,,,,,,,,,,,,,,,,60ff943039dd3022ee2d8d10,61036f13af6d8f4cd65ba747,2021-07-29_20h19.55.227,Simcolourproject_2stim_asymm_v5,2020.2.10,Win32,60,61025ae37ef11b136ea224fe,,,,,,,,,456,-104.7999901,-47.20000714,1,0,0,response5disk,,2,2.40001148,3.999993622,1,0,0,rectangle,2.40001148,3.999993622,1,0,0,2.40001148,3.999993622,1,0,0,0,19,19,0,1,,,,,,,,
,,,,,,,,,,,,,FF,,,,,,,,1.0647,,,,,,,,,,,,,,,,,,,,,,60ff943039dd3022ee2d8d10,61036f13af6d8f4cd65ba747,2021-07-29_20h19.55.227,Simcolourproject_2stim_asymm_v5,2020.2.10,Win32,60,61025ae37ef11b136ea224fe,,,,,,,,,4110,98.40001291,-44.8000071,1,0,0,response3disk,,5,-3.999988616,15.9999938,1,0,0,rectangle,-3.999988616,15.9999938,1,0,0,-3.999988616,15.9999938,1,0,0,0,20,20,156,1,,,,,,,,
,,,,,,,,,,,,,FF,,,,,,,,1.3984,,,,,,,,,,,,,,,,,,,,,,60ff943039dd3022ee2d8d10,61036f13af6d8f4cd65ba747,2021-07-29_20h19.55.227,Simcolourproject_2stim_asymm_v5,2020.2.10,Win32,60,61025ae37ef11b136ea224fe,,,,,,,,,1419,76.00001258,27.99999398,1,0,0,response1disk,,6,-30.39994018,-7.200006545,1,0,0,rectangle,-30.39994018,-7.200006545,1,0,0,-30.39994018,-7.200006545,1,0,0,0,21,21,64,1,,,,,,,,
,,,,,,,,,,,,,FF,,,,,,,,1.0663,,,,,,,,,,,,,,,,,,,,,,60ff943039dd3022ee2d8d10,61036f13af6d8f4cd65ba747,2021-07-29_20h19.55.227,Simcolourproject_2stim_asymm_v5,2020.2.10,Win32,60,61025ae37ef11b136ea224fe,,,,,,,,,3570,93.60001284,-52.80000722,1,0,0,response3disk,,5,-8.799988687,3.999993622,1,0,0,rectangle,-8.799988687,3.999993622,1,0,0,-8.799988687,3.999993622,1,0,0,0,22,22,143,1,,,,,,,,
,,,,,,,,,,,,,FF,,,,,,,,0.8156,,,,,,,,,,,,,,,,,,,,,,60ff943039dd3022ee2d8d10,61036f13af6d8f4cd65ba747,2021-07-29_20h19.55.227,Simcolourproject_2stim_asymm_v5,2020.2.10,Win32,60,61025ae37ef11b136ea224fe,,,,,,,,,1404,119.2000132,-36.80000699,1,0,0,response3disk,,5,6.400011539,6.399993658,1,0,0,rectangle,6.400011539,6.399993658,1,0,0,6.400011539,6.399993658,1,0,0,0,23,23,88,1,,,,,,,,
,,,,,,,,,,,,,FF,,,,,,,,1.1384,,,,,,,,,,,,,,,,,,,,,,60ff943039dd3022ee2d8d10,61036f13af6d8f4cd65ba747,2021-07-29_20h19.55.227,Simcolourproject_2stim_asymm_v5,2020.2.10,Win32,60,61025ae37ef11b136ea224fe,,,,,,,,,62,104.000013,37.59999412,1,0,0,response1disk,,6,9.600060415,-7.200006545,1,0,0,rectangle,9.600060415,-7.200006545,1,0,0,9.600060415,-7.200006545,1,0,0,0,24,24,136,1,,,,,,,,
,,,,,,,,,,,,,FF,,,,,,,,0.7657,,,,,,,,,,,,,,,,,,,,,,60ff943039dd3022ee2d8d10,61036f13af6d8f4cd65ba747,2021-07-29_20h19.55.227,Simcolourproject_2stim_asymm_v5,2020.2.10,Win32,60,61025ae37ef11b136ea224fe,,,,,,,,,672,77.6000126,-43.20000708,1,0,0,response3disk,,5,-19.99998885,11.19999373,1,0,0,rectangle,-19.99998885,11.19999373,1,0,0,-19.99998885,11.19999373,1,0,0,0,25,25,123,1,,,,,,,,
,,,,,,,,,,,,,FF,,,,,,,,1.4159,,,,,,,,,,,,,,,,,,,,,,60ff943039dd3022ee2d8d10,61036f13af6d8f4cd65ba747,2021-07-29_20h19.55.227,Simcolourproject_2stim_asymm_v5,2020.2.10,Win32,60,61025ae37ef11b136ea224fe,,,,,,,,,706,-44.79998922,-104.000008,1,0,0,response5disk,,3,-7.199988663,4.799993634,1,0,0,rectangle,-7.199988663,4.799993634,1,0,0,-7.199988663,4.799993634,1,0,0,0,26,26,81,1,,,,,,,,
,,,,,,,,,,,,,FF,,,,,,,,1.3819,,,,,,,,,,,,,,,,,,,,,,60ff943039dd3022ee2d8d10,61036f13af6d8f4cd65ba747,2021-07-29_20h19.55.227,Simcolourproject_2stim_asymm_v5,2020.2.10,Win32,60,61025ae37ef11b136ea224fe,,,,,,,,,3312,92.80001283,31.99999404,1,0,0,response1disk,,6,9.600060415,-11.2000066,1,0,0,rectangle,9.600060415,-11.2000066,1,0,0,9.600060415,-11.2000066,1,0,0,0,27,27,3,1,,,,,,,,
,,,,,,,,,,,,,FF,,,,,,,,2.9974,,,,,,,,,,,,,,,,,,,,,,60ff943039dd3022ee2d8d10,61036f13af6d8f4cd65ba747,2021-07-29_20h19.55.227,Simcolourproject_2stim_asymm_v5,2020.2.10,Win32,60,61025ae37ef11b136ea224fe,,,,,,,,,181,127.2000133,-41.60000706,1,0,0,response3disk,,5,9.600060415,-7.200006545,1,0,0,rectangle,9.600060415,-7.200006545,1,0,0,9.600060415,-7.200006545,1,0,0,0,28,28,118,1,,,,,,,,
,,,,,,,,,,,,,FF,,,,,,,,1.4156,,,,,,,,,,,,,,,,,,,,,,60ff943039dd3022ee2d8d10,61036f13af6d8f4cd65ba747,2021-07-29_20h19.55.227,Simcolourproject_2stim_asymm_v5,2020.2.10,Win32,60,61025ae37ef11b136ea224fe,,,,,,,,,1991,110.4000131,25.59999394,1,0,0,response1disk,,6,-0.799988568,-4.800006509,1,0,0,rectangle,-0.799988568,-4.800006509,1,0,0,-0.799988568,-4.800006509,1,0,0,0,29,29,48,1,,,,,,,,
,,,,,,,,,,,,,FF,,,,,,,,1,,,,,,,,,,,,,,,,,,,,,,60ff943039dd3022ee2d8d10,61036f13af6d8f4cd65ba747,2021-07-29_20h19.55.227,Simcolourproject_2stim_asymm_v5,2020.2.10,Win32,60,61025ae37ef11b136ea224fe,,,,,,,,,1604,-94.39994113,48.79999429,1,0,0,response7disk,,1,-3.199988604,2.399993598,1,0,0,rectangle,-3.199988604,2.399993598,1,0,0,-3.199988604,2.399993598,1,0,0,0,30,30,110,1,,,,,,,,
,,,,,,,,,,,,,FF,,,,,,,,1.2819,,,,,,,,,,,,,,,,,,,,,,60ff943039dd3022ee2d8d10,61036f13af6d8f4cd65ba747,2021-07-29_20h19.55.227,Simcolourproject_2stim_asymm_v5,2020.2.10,Win32,60,61025ae37ef11b136ea224fe,,,,,,,,,3891,120.0000132,-41.60000706,1,0,0,response3disk,,5,-9.599988699,3.999993622,1,0,0,rectangle,-9.599988699,3.999993622,1,0,0,-9.599988699,3.999993622,1,0,0,0,31,31,52,1,,,,,,,,
,,,,,,,,,,,,,FF,,,,,,,,1.233,,,,,,,,,,,,,,,,,,,,,,60ff943039dd3022ee2d8d10,61036f13af6d8f4cd65ba747,2021-07-29_20h19.55.227,Simcolourproject_2stim_asymm_v5,2020.2.10,Win32,60,61025ae37ef11b136ea224fe,,,,,,,,,3140,-87.19998986,-48.00000715,1,0,0,response5disk,,2,-2.399939764,8.799993694,1,0,0,rectangle,-2.399939764,8.799993694,1,0,0,-2.399939764,8.799993694,1,0,0,0,32,32,23,1,,,,,,,,
,,,,,,,,,,,,,FF,,,,,,,,2.1315,,,,,,,,,,,,,,,,,,,,,,60ff943039dd3022ee2d8d10,61036f13af6d8f4cd65ba747,2021-07-29_20h19.55.227,Simcolourproject_2stim_asymm_v5,2020.2.10,Win32,60,61025ae37ef11b136ea224fe,,,,,,,,,3465,34.40001196,-72.00000751,1,0,0,response3disk,,4,-19.99998885,-1.600006461,1,0,0,rectangle,-19.99998885,-1.600006461,1,0,0,-19.99998885,-1.600006461,1,0,0,0,33,33,113,1,,,,,,,,
,,,,,,,,,,,,,FF,,,,,,,,1.7531,,,,,,,,,,,,,,,,,,,,,,60ff943039dd3022ee2d8d10,61036f13af6d8f4cd65ba747,2021-07-29_20h19.55.227,Simcolourproject_2stim_asymm_v5,2020.2.10,Win32,60,61025ae37ef11b136ea224fe,,,,,,,,,423,64.0000124,-57.6000073,1,0,0,response3disk,,5,-7.999988675,-3.200006485,1,0,0,rectangle,-7.999988675,-3.200006485,1,0,0,-7.999988675,-3.200006485,1,0,0,0,34,34,21,1,,,,,,,,
,,,,,,,,,,,,,FF,,,,,,,,1.4824,,,,,,,,,,,,,,,,,,,,,,60ff943039dd3022ee2d8d10,61036f13af6d8f4cd65ba747,2021-07-29_20h19.55.227,Simcolourproject_2stim_asymm_v5,2020.2.10,Win32,60,61025ae37ef11b136ea224fe,,,,,,,,,751,80.80001265,44.79999423,1,0,0,response1disk,,6,-24.79998893,6.399993658,1,0,0,rectangle,-24.79998893,6.399993658,1,0,0,-24.79998893,6.399993658,1,0,0,0,35,35,74,1,,,,,,,,
,,,,,,,,,,,,,FF,,,,,,,,1.7486,,,,,,,,,,,,,,,,,,,,,,60ff943039dd3022ee2d8d10,61036f13af6d8f4cd65ba747,2021-07-29_20h19.55.227,Simcolourproject_2stim_asymm_v5,2020.2.10,Win32,60,61025ae37ef11b136ea224fe,,,,,,,,,2889,-92.79998994,-56.80000728,1,0,0,response5disk,,2,-0.799988568,12.79999375,1,0,0,rectangle,-0.799988568,12.79999375,1,0,0,-0.799988568,12.79999375,1,0,0,0,36,36,37,1,,,,,,,,
,,,,,,,,,,,,,FF,,,,,,,,1.7983,,,,,,,,,,,,,,,,,,,,,,60ff943039dd3022ee2d8d10,61036f13af6d8f4cd65ba747,2021-07-29_20h19.55.227,Simcolourproject_2stim_asymm_v5,2020.2.10,Win32,60,61025ae37ef11b136ea224fe,,,,,,,,,3015,89.60001278,-56.00000727,1,0,0,response3disk,,5,-4.799988627,-6.400006533,1,0,0,rectangle,-4.799988627,-6.400006533,1,0,0,-4.799988627,-6.400006533,1,0,0,0,37,37,111,1,,,,,,,,
,,,,,,,,,,,,,FF,,,,,,,,1.0818,,,,,,,,,,,,,,,,,,,,,,60ff943039dd3022ee2d8d10,61036f13af6d8f4cd65ba747,2021-07-29_20h19.55.227,Simcolourproject_2stim_asymm_v5,2020.2.10,Win32,60,61025ae37ef11b136ea224fe,,,,,,,,,515,32.80001193,-93.60005666,1,0,0,response3disk,,4,-9.599988699,-15.20000666,1,0,0,rectangle,-9.599988699,-15.20000666,1,0,0,-9.599988699,-15.20000666,1,0,0,0,38,38,31,1,,,,,,,,
,,,,,,,,,,,,,FF,,,,,,,,0.999,,,,,,,,,,,,,,,,,,,,,,60ff943039dd3022ee2d8d10,61036f13af6d8f4cd65ba747,2021-07-29_20h19.55.227,Simcolourproject_2stim_asymm_v5,2020.2.10,Win32,60,61025ae37ef11b136ea224fe,,,,,,,,,3742,-75.19998968,39.99999416,1,0,0,response7disk,,1,-11.99998873,-4.000006497,1,0,0,rectangle,-11.99998873,-4.000006497,1,0,0,-11.99998873,-4.000006497,1,0,0,0,39,39,70,1,,,,,,,,
,,,,,,,,,,,,,FF,,,,,,,,3.0475,,,,,,,,,,,,,,,,,,,,,,60ff943039dd3022ee2d8d10,61036f13af6d8f4cd65ba747,2021-07-29_20h19.55.227,Simcolourproject_2stim_asymm_v5,2020.2.10,Win32,60,61025ae37ef11b136ea224fe,,,,,,,,,2132,102.400013,-20.00000674,1,0,0,response3disk,,5,-3.999988616,-4.800006509,1,0,0,rectangle,-3.999988616,-4.800006509,1,0,0,-3.999988616,-4.800006509,1,0,0,0,40,40,149,1,,,,,,,,
,,,,,,,,,,,,,FF,,,,,,,,0.9818,,,,,,,,,,,,,,,,,,,,,,60ff943039dd3022ee2d8d10,61036f13af6d8f4cd65ba747,2021-07-29_20h19.55.227,Simcolourproject_2stim_asymm_v5,2020.2.10,Win32,60,61025ae37ef11b136ea224fe,,,,,,,,,2722,-43.1999892,-89.6000566,1,0,0,response5disk,,3,-8.799988687,-10.40000659,1,0,0,rectangle,-35.19998908,-92.00000781,1,0,0,-15.99998879,-10.40000659,1,0,0,0,41,41,38,1,,response5disk_3,TRUE,3,3,"[14,10,247,123,178,42,131,260,0,69,227,17,255,85,210,204,124,259,119,16]",2.6137,rectangle
,,,,,,,,,,,,,FF,,,,,,,,0.95,,,,,,,,,,,,,,,,,,,,,,60ff943039dd3022ee2d8d10,61036f13af6d8f4cd65ba747,2021-07-29_20h19.55.227,Simcolourproject_2stim_asymm_v5,2020.2.10,Win32,60,61025ae37ef11b136ea224fe,,,,,,,,,2606,-83.99998981,-48.80000716,1,0,0,response5disk,,2,-2.399939764,1.599993587,1,0,0,rectangle,-2.399939764,1.599993587,1,0,0,-2.399939764,1.599993587,1,0,0,0,42,42,107,1,,,,,,,,
,,,,,,,,,,,,,FF,,,,,,,,0.9824,,,,,,,,,,,,,,,,,,,,,,60ff943039dd3022ee2d8d10,61036f13af6d8f4cd65ba747,2021-07-29_20h19.55.227,Simcolourproject_2stim_asymm_v5,2020.2.10,Win32,60,61025ae37ef11b136ea224fe,,,,,,,,,2327,86.40001273,-43.20000708,1,0,0,response3disk,,5,-0.799988568,-10.40000659,1,0,0,rectangle,-0.799988568,-10.40000659,1,0,0,-0.799988568,-10.40000659,1,0,0,0,43,43,116,1,,,,,,,,
,,,,,,,,,,,,,FF,,,,,,,,2.7976,,,,,,,,,,,,,,,,,,,,,,60ff943039dd3022ee2d8d10,61036f13af6d8f4cd65ba747,2021-07-29_20h19.55.227,Simcolourproject_2stim_asymm_v5,2020.2.10,Win32,60,61025ae37ef11b136ea224fe,,,,,,,,,1255,98.40001291,-59.20000732,1,0,0,response3disk,,5,-2.399939764,-5.600006521,1,0,0,rectangle,-2.399939764,-5.600006521,1,0,0,-2.399939764,-5.600006521,1,0,0,0,44,44,12,1,,,,,,,,
,,,,,,,,,,,,,FF,,,,,,,,1.0991,,,,,,,,,,,,,,,,,,,,,,60ff943039dd3022ee2d8d10,61036f13af6d8f4cd65ba747,2021-07-29_20h19.55.227,Simcolourproject_2stim_asymm_v5,2020.2.10,Win32,60,61025ae37ef11b136ea224fe,,,,,,,,,286,-85.59998983,-49.60000718,1,0,0,response5disk,,2,-0.799988568,-1.600006461,1,0,0,rectangle,-0.799988568,-1.600006461,1,0,0,-0.799988568,-1.600006461,1,0,0,0,45,45,147,1,,,,,,,,
,,,,,,,,,,,,,FF,,,,,,,,1.099,,,,,,,,,,,,,,,,,,,,,,60ff943039dd3022ee2d8d10,61036f13af6d8f4cd65ba747,2021-07-29_20h19.55.227,Simcolourproject_2stim_asymm_v5,2020.2.10,Win32,60,61025ae37ef11b136ea224fe,,,,,,,,,4108,-33.59998906,-90.40000778,1,0,0,response5disk,,3,-3.199988604,-9.60000658,1,0,0,rectangle,-3.199988604,-9.60000658,1,0,0,-3.199988604,-9.60000658,1,0,0,0,46,46,101,1,,,,,,,,
,,,,,,,,,,,,,FF,,,,,,,,1.7977,,,,,,,,,,,,,,,,,,,,,,60ff943039dd3022ee2d8d10,61036f13af6d8f4cd65ba747,2021-07-29_20h19.55.227,Simcolourproject_2stim_asymm_v5,2020.2.10,Win32,60,61025ae37ef11b136ea224fe,,,,,,,,,1770,68.00001246,-88.80000776,1,0,0,response3disk,,4,1.14441E-05,0.799993575,1,0,0,rectangle,1.14441E-05,0.799993575,1,0,0,1.14441E-05,0.799993575,1,0,0,0,47,47,18,1,,,,,,,,
,,,,,,,,,,,,,FF,,,,,,,,1.0608,,,,,,,,,,,,,,,,,,,,,,60ff943039dd3022ee2d8d10,61036f13af6d8f4cd65ba747,2021-07-29_20h19.55.227,Simcolourproject_2stim_asymm_v5,2020.2.10,Win32,60,61025ae37ef11b136ea224fe,,,,,,,,,849,84.80001271,-33.60000694,1,0,0,response3disk,,5,13.60006047,-8.800006568,1,0,0,rectangle,13.60006047,-8.800006568,1,0,0,13.60006047,-8.800006568,1,0,0,0,48,48,55,1,,,,,,,,
,,,,,,,,,,,,,FF,,,,,,,,1.4033,,,,,,,,,,,,,,,,,,,,,,60ff943039dd3022ee2d8d10,61036f13af6d8f4cd65ba747,2021-07-29_20h19.55.227,Simcolourproject_2stim_asymm_v5,2020.2.10,Win32,60,61025ae37ef11b136ea224fe,,,,,,,,,2514,85.60001272,60.79999447,1,0,0,response1disk,,6,-12.79998875,-13.60000664,1,0,0,rectangle,-12.79998875,-13.60000664,1,0,0,-12.79998875,-13.60000664,1,0,0,0,49,49,53,1,,,,,,,,
,,,,,,,,,,,,,FF,,,,,,,,1.1158,,,,,,,,,,,,,,,,,,,,,,60ff943039dd3022ee2d8d10,61036f13af6d8f4cd65ba747,2021-07-29_20h19.55.227,Simcolourproject_2stim_asymm_v5,2020.2.10,Win32,60,61025ae37ef11b136ea224fe,,,,,,,,,3401,74.40001255,-39.20000702,1,0,0,response3disk,,5,-10.39993988,-3.200006485,1,0,0,rectangle,-10.39993988,-3.200006485,1,0,0,-10.39993988,-3.200006485,1,0,0,0,50,50,115,1,,,,,,,,
,,,,,,,,,,,,,FF,,,,,,,,1.1988,,,,,,,,,,,,,,,,,,,,,,60ff943039dd3022ee2d8d10,61036f13af6d8f4cd65ba747,2021-07-29_20h19.55.227,Simcolourproject_2stim_asymm_v5,2020.2.10,Win32,60,61025ae37ef11b136ea224fe,,,,,,,,,642,89.60001278,-53.60000724,1,0,0,response3disk,,5,0.800011456,-4.000006497,1,0,0,rectangle,0.800011456,-4.000006497,1,0,0,0.800011456,-4.000006497,1,0,0,0,51,51,141,1,,,,,,,,
,,,,,,,,,,,,,FF,,,,,,,,0.9489,,,,,,,,,,,,,,,,,,,,,,60ff943039dd3022ee2d8d10,61036f13af6d8f4cd65ba747,2021-07-29_20h19.55.227,Simcolourproject_2stim_asymm_v5,2020.2.10,Win32,60,61025ae37ef11b136ea224fe,,,,,,,,,1450,-83.99998981,-36.00000697,1,0,0,response5disk,,2,-11.19998872,13.59999377,1,0,0,rectangle,-11.19998872,13.59999377,1,0,0,-11.19998872,13.59999377,1,0,0,0,52,52,43,1,,,,,,,,
,,,,,,,,,,,,,FF,,,,,,,,1.332,,,,,,,,,,,,,,,,,,,,,,60ff943039dd3022ee2d8d10,61036f13af6d8f4cd65ba747,2021-07-29_20h19.55.227,Simcolourproject_2stim_asymm_v5,2020.2.10,Win32,60,61025ae37ef11b136ea224fe,,,,,,,,,477,17.60006053,-101.6000568,1,0,0,response3disk,,4,-8.799988687,-6.4373E-06,1,0,0,rectangle,-8.799988687,-6.4373E-06,1,0,0,-8.799988687,-6.4373E-06,1,0,0,0,53,53,50,1,,,,,,,,
,,,,,,,,,,,,,FF,,,,,,,,1.7651,,,,,,,,,,,,,,,,,,,,,,60ff943039dd3022ee2d8d10,61036f13af6d8f4cd65ba747,2021-07-29_20h19.55.227,Simcolourproject_2stim_asymm_v5,2020.2.10,Win32,60,61025ae37ef11b136ea224fe,,,,,,,,,3466,92.80001283,-64.00000739,1,0,0,response3disk,,5,-4.799988627,-6.4373E-06,1,0,0,rectangle,-4.799988627,-6.4373E-06,1,0,0,-4.799988627,-6.4373E-06,1,0,0,0,54,54,28,1,,,,,,,,
,,,,,,,,,,,,,FF,,,,,,,,2.8476,,,,,,,,,,,,,,,,,,,,,,60ff943039dd3022ee2d8d10,61036f13af6d8f4cd65ba747,2021-07-29_20h19.55.227,Simcolourproject_2stim_asymm_v5,2020.2.10,Win32,60,61025ae37ef11b136ea224fe,,,,,,,,,1921,100.0000129,-35.20000696,1,0,0,response3disk,,5,-13.59998876,1.599993587,1,0,0,rectangle,-13.59998876,1.599993587,1,0,0,-13.59998876,1.599993587,1,0,0,0,55,55,114,1,,,,,,,,
,,,,,,,,,,,,,FF,,,,,,,,1.102,,,,,,,,,,,,,,,,,,,,,,60ff943039dd3022ee2d8d10,61036f13af6d8f4cd65ba747,2021-07-29_20h19.55.227,Simcolourproject_2stim_asymm_v5,2020.2.10,Win32,60,61025ae37ef11b136ea224fe,,,,,,,,,1448,-86.39994102,-43.20000708,1,0,0,response5disk,,2,12.00001162,-1.600006461,1,0,0,rectangle,12.00001162,-1.600006461,1,0,0,12.00001162,-1.600006461,1,0,0,0,56,56,152,1,,,,,,,,
,,,,,,,,,,,,,FF,,,,,,,,2.5981,,,,,,,,,,,,,,,,,,,,,,60ff943039dd3022ee2d8d10,61036f13af6d8f4cd65ba747,2021-07-29_20h19.55.227,Simcolourproject_2stim_asymm_v5,2020.2.10,Win32,60,61025ae37ef11b136ea224fe,,,,,,,,,2124,112.0000131,-57.6000073,1,0,0,response3disk,,5,6.400011539,-0.800006449,1,0,0,rectangle,6.400011539,-0.800006449,1,0,0,6.400011539,-0.800006449,1,0,0,0,57,57,124,1,,,,,,,,
,,,,,,,,,,,,,FF,,,,,,,,0.8828,,,,,,,,,,,,,,,,,,,,,,60ff943039dd3022ee2d8d10,61036f13af6d8f4cd65ba747,2021-07-29_20h19.55.227,Simcolourproject_2stim_asymm_v5,2020.2.10,Win32,60,61025ae37ef11b136ea224fe,,,,,,,,,622,-91.19998991,-49.60000718,1,0,0,response5disk,,2,0.800011456,-10.40000659,1,0,0,rectangle,0.800011456,-10.40000659,1,0,0,0.800011456,-10.40000659,1,0,0,0,58,58,14,1,,,,,,,,
,,,,,,,,,,,,,FF,,,,,,,,1.2823,,,,,,,,,,,,,,,,,,,,,,60ff943039dd3022ee2d8d10,61036f13af6d8f4cd65ba747,2021-07-29_20h19.55.227,Simcolourproject_2stim_asymm_v5,2020.2.10,Win32,60,61025ae37ef11b136ea224fe,,,,,,,,,2020,54.40001225,-89.6000566,1,0,0,response3disk,,4,-14.39993994,11.19999373,1,0,0,rectangle,-14.39993994,11.19999373,1,0,0,-14.39993994,11.19999373,1,0,0,0,59,59,40,1,,,,,,,,
,,,,,,,,,,,,,FF,,,,,,,,1.1657,,,,,,,,,,,,,,,,,,,,,,60ff943039dd3022ee2d8d10,61036f13af6d8f4cd65ba747,2021-07-29_20h19.55.227,Simcolourproject_2stim_asymm_v5,2020.2.10,Win32,60,61025ae37ef11b136ea224fe,,,,,,,,,2088,-35.99998909,-104.800008,1,0,0,response5disk,,3,9.600060415,2.399993598,1,0,0,rectangle,9.600060415,2.399993598,1,0,0,9.600060415,2.399993598,1,0,0,0,60,60,99,1,,,,,,,,
,,,,,,,,,,,,,FF,,,,,,,,0.8986,,,,,,,,,,,,,,,,,,,,,,60ff943039dd3022ee2d8d10,61036f13af6d8f4cd65ba747,2021-07-29_20h19.55.227,Simcolourproject_2stim_asymm_v5,2020.2.10,Win32,60,61025ae37ef11b136ea224fe,,,,,,,,,702,-98.39994119,-42.40000707,1,0,0,response5disk,,2,-12.79998875,12.79999375,1,0,0,rectangle,-12.79998875,12.79999375,1,0,0,-12.79998875,12.79999375,1,0,0,0,61,61,157,1,,,,,,,,
,,,,,,,,,,,,,FF,,,,,,,,1.6315,,,,,,,,,,,,,,,,,,,,,,60ff943039dd3022ee2d8d10,61036f13af6d8f4cd65ba747,2021-07-29_20h19.55.227,Simcolourproject_2stim_asymm_v5,2020.2.10,Win32,60,61025ae37ef11b136ea224fe,,,,,,,,,4080,86.40001273,-38.40000701,1,0,0,response3disk,,5,-2.399939764,-13.60000664,1,0,0,rectangle,-2.399939764,-13.60000664,1,0,0,-2.399939764,-13.60000664,1,0,0,0,62,62,131,1,,,,,,,,
,,,,,,,,,,,,,FF,,,,,,,,1.1147,,,,,,,,,,,,,,,,,,,,,,60ff943039dd3022ee2d8d10,61036f13af6d8f4cd65ba747,2021-07-29_20h19.55.227,Simcolourproject_2stim_asymm_v5,2020.2.10,Win32,60,61025ae37ef11b136ea224fe,,,,,,,,,3767,45.60006095,74.39999467,1,0,0,response1disk,,7,-27.19998896,6.399993658,1,0,0,rectangle,-27.19998896,6.399993658,1,0,0,-27.19998896,6.399993658,1,0,0,0,63,63,39,1,,,,,,,,
,,,,,,,,,,,,,FF,,,,,,,,0.7994,,,,,,,,,,,,,,,,,,,,,,60ff943039dd3022ee2d8d10,61036f13af6d8f4cd65ba747,2021-07-29_20h19.55.227,Simcolourproject_2stim_asymm_v5,2020.2.10,Win32,60,61025ae37ef11b136ea224fe,,,,,,,,,3777,-65.59998953,59.19997003,1,0,0,response7disk,,1,-3.199988604,3.19999361,1,0,0,rectangle,-3.199988604,3.19999361,1,0,0,-3.199988604,3.19999361,1,0,0,0,64,64,108,1,,,,,,,,
,,,,,,,,,,,,,FF,,,,,,,,1.4479,,,,,,,,,,,,,,,,,,,,,,60ff943039dd3022ee2d8d10,61036f13af6d8f4cd65ba747,2021-07-29_20h19.55.227,Simcolourproject_2stim_asymm_v5,2020.2.10,Win32,60,61025ae37ef11b136ea224fe,,,,,,,,,3805,-91.99998993,-52.80000722,1,0,0,response5disk,,2,0.800011456,-1.600006461,1,0,0,rectangle,0.800011456,-1.600006461,1,0,0,0.800011456,-1.600006461,1,0,0,0,65,65,144,1,,,,,,,,
,,,,,,,,,,,,,FF,,,,,,,,3.4807,,,,,,,,,,,,,,,,,,,,,,60ff943039dd3022ee2d8d10,61036f13af6d8f4cd65ba747,2021-07-29_20h19.55.227,Simcolourproject_2stim_asymm_v5,2020.2.10,Win32,60,61025ae37ef11b136ea224fe,,,,,,,,,1275,32.80001193,-77.60000759,1,0,0,response3disk,,4,1.14441E-05,-6.400006533,1,0,0,rectangle,1.14441E-05,-6.400006533,1,0,0,1.14441E-05,-6.400006533,1,0,0,0,66,66,80,1,,,,,,,,
,,,,,,,,,,,,,FF,,,,,,,,1.4507,,,,,,,,,,,,,,,,,,,,,,60ff943039dd3022ee2d8d10,61036f13af6d8f4cd65ba747,2021-07-29_20h19.55.227,Simcolourproject_2stim_asymm_v5,2020.2.10,Win32,60,61025ae37ef11b136ea224fe,,,,,,,,,219,-47.99998927,-88.00000775,1,0,0,response5disk,,3,-11.99998873,-3.200006485,1,0,0,rectangle,-11.99998873,-3.200006485,1,0,0,-11.99998873,-3.200006485,1,0,0,0,67,67,56,1,,,,,,,,
,,,,,,,,,,,,,FF,,,,,,,,1.2489,,,,,,,,,,,,,,,,,,,,,,60ff943039dd3022ee2d8d10,61036f13af6d8f4cd65ba747,2021-07-29_20h19.55.227,Simcolourproject_2stim_asymm_v5,2020.2.10,Win32,60,61025ae37ef11b136ea224fe,,,,,,,,,638,-39.19998914,-96.80000788,1,0,0,response5disk,,3,-9.599988699,-6.400006533,1,0,0,rectangle,-46.39994042,85.59999484,1,0,0,-13.59998876,-8.800006568,1,0,0,0,68,68,57,1,,response7disk_3,TRUE,0,0,"[14,10,247,123,178,42,131,260,0,69,227,17,255,85,210,204,124,259,119,16]",1.6808,rectangle
,,,,,,,,,,,,,FF,,,,,,,,2.1812,,,,,,,,,,,,,,,,,,,,,,60ff943039dd3022ee2d8d10,61036f13af6d8f4cd65ba747,2021-07-29_20h19.55.227,Simcolourproject_2stim_asymm_v5,2020.2.10,Win32,60,61025ae37ef11b136ea224fe,,,,,,,,,3801,82.40001267,32.79999405,1,0,0,response1disk,,6,-8.799988687,-9.60000658,1,0,0,rectangle,-8.799988687,-9.60000658,1,0,0,-8.799988687,-9.60000658,1,0,0,0,69,69,120,1,,,,,,,,
,,,,,,,,,,,,,FF,,,,,,,,1.3825,,,,,,,,,,,,,,,,,,,,,,60ff943039dd3022ee2d8d10,61036f13af6d8f4cd65ba747,2021-07-29_20h19.55.227,Simcolourproject_2stim_asymm_v5,2020.2.10,Win32,60,61025ae37ef11b136ea224fe,,,,,,,,,2715,-46.39994042,-68.00000745,1,0,0,response5disk,,3,-19.19998884,12.79999375,1,0,0,rectangle,-19.19998884,12.79999375,1,0,0,-19.19998884,12.79999375,1,0,0,0,70,70,35,1,,,,,,,,
,,,,,,,,,,,,,FF,,,,,,,,1.3648,,,,,,,,,,,,,,,,,,,,,,60ff943039dd3022ee2d8d10,61036f13af6d8f4cd65ba747,2021-07-29_20h19.55.227,Simcolourproject_2stim_asymm_v5,2020.2.10,Win32,60,61025ae37ef11b136ea224fe,,,,,,,,,3574,96.00001287,-36.80000699,1,0,0,response3disk,,5,7.200011551,4.799993634,1,0,0,rectangle,7.200011551,4.799993634,1,0,0,7.200011551,4.799993634,1,0,0,0,71,71,106,1,,,,,,,,
,,,,,,,,,,,,,FF,,,,,,,,1.3986,,,,,,,,,,,,,,,,,,,,,,60ff943039dd3022ee2d8d10,61036f13af6d8f4cd65ba747,2021-07-29_20h19.55.227,Simcolourproject_2stim_asymm_v5,2020.2.10,Win32,60,61025ae37ef11b136ea224fe,,,,,,,,,3438,40.00001204,-74.40000755,1,0,0,response3disk,,4,0.800011456,-11.2000066,1,0,0,rectangle,0.800011456,-11.2000066,1,0,0,0.800011456,-11.2000066,1,0,0,0,72,72,20,1,,,,,,,,
,,,,,,,,,,,,,FF,,,,,,,,4.3454,,,,,,,,,,,,,,,,,,,,,,60ff943039dd3022ee2d8d10,61036f13af6d8f4cd65ba747,2021-07-29_20h19.55.227,Simcolourproject_2stim_asymm_v5,2020.2.10,Win32,60,61025ae37ef11b136ea224fe,,,,,,,,,1442,112.8000131,-45.60000712,1,0,0,response3disk,,5,1.14441E-05,1.599993587,1,0,0,rectangle,1.14441E-05,1.599993587,1,0,0,1.14441E-05,1.599993587,1,0,0,0,73,73,137,1,,,,,,,,
,,,,,,,,,,,,,FF,,,,,,,,0.8995,,,,,,,,,,,,,,,,,,,,,,60ff943039dd3022ee2d8d10,61036f13af6d8f4cd65ba747,2021-07-29_20h19.55.227,Simcolourproject_2stim_asymm_v5,2020.2.10,Win32,60,61025ae37ef11b136ea224fe,,,,,,,,,3455,87.20001274,34.39999408,1,0,0,response1disk,,6,-10.39993988,-7.200006545,1,0,0,rectangle,-10.39993988,-7.200006545,1,0,0,-10.39993988,-7.200006545,1,0,0,0,74,74,54,1,,,,,,,,
,,,,,,,,,,,,,FF,,,,,,,,0.9329,,,,,,,,,,,,,,,,,,,,,,60ff943039dd3022ee2d8d10,61036f13af6d8f4cd65ba747,2021-07-29_20h19.55.227,Simcolourproject_2stim_asymm_v5,2020.2.10,Win32,60,61025ae37ef11b136ea224fe,,,,,,,,,1924,98.40001291,41.59999418,1,0,0,response1disk,,6,-8.799988687,7.999993682,1,0,0,rectangle,-8.799988687,7.999993682,1,0,0,-8.799988687,7.999993682,1,0,0,0,75,75,89,1,,,,,,,,
,,,,,,,,,,,,,FF,,,,,,,,0.784,,,,,,,,,,,,,,,,,,,,,,60ff943039dd3022ee2d8d10,61036f13af6d8f4cd65ba747,2021-07-29_20h19.55.227,Simcolourproject_2stim_asymm_v5,2020.2.10,Win32,60,61025ae37ef11b136ea224fe,,,,,,,,,2201,28.00001186,57.59999442,1,0,0,response1disk,,7,1.600060296,8.799993694,1,0,0,rectangle,1.600060296,8.799993694,1,0,0,1.600060296,8.799993694,1,0,0,0,76,76,30,1,,,,,,,,
,,,,,,,,,,,,,FF,,,,,,,,1.532,,,,,,,,,,,,,,,,,,,,,,60ff943039dd3022ee2d8d10,61036f13af6d8f4cd65ba747,2021-07-29_20h19.55.227,Simcolourproject_2stim_asymm_v5,2020.2.10,Win32,60,61025ae37ef11b136ea224fe,,,,,,,,,3541,92.00001281,41.59999418,1,0,0,response1disk,,6,4.000011504,-6.4373E-06,1,0,0,rectangle,4.000011504,-6.4373E-06,1,0,0,4.000011504,-6.4373E-06,1,0,0,0,77,77,33,1,,,,,,,,
,,,,,,,,,,,,,FF,,,,,,,,1.077,,,,,,,,,,,,,,,,,,,,,,60ff943039dd3022ee2d8d10,61036f13af6d8f4cd65ba747,2021-07-29_20h19.55.227,Simcolourproject_2stim_asymm_v5,2020.2.10,Win32,60,61025ae37ef11b136ea224fe,,,,,,,,,395,26.40001184,-88.80000776,1,0,0,response3disk,,4,6.400011539,9.599993706,1,0,0,rectangle,6.400011539,9.599993706,1,0,0,6.400011539,9.599993706,1,0,0,0,78,78,36,1,,,,,,,,
,,,,,,,,,,,,,FF,,,,,,,,1.6644,,,,,,,,,,,,,,,,,,,,,,60ff943039dd3022ee2d8d10,61036f13af6d8f4cd65ba747,2021-07-29_20h19.55.227,Simcolourproject_2stim_asymm_v5,2020.2.10,Win32,60,61025ae37ef11b136ea224fe,,,,,,,,,71,42.40001208,-87.20000774,1,0,0,response3disk,,4,7.200011551,-8.000006557,1,0,0,rectangle,7.200011551,-8.000006557,1,0,0,7.200011551,-8.000006557,1,0,0,0,79,79,138,1,,,,,,,,
,,,,,,,,,,,,,FF,,,,,,,,1.4163,,,,,,,,,,,,,,,,,,,,,,60ff943039dd3022ee2d8d10,61036f13af6d8f4cd65ba747,2021-07-29_20h19.55.227,Simcolourproject_2stim_asymm_v5,2020.2.10,Win32,60,61025ae37ef11b136ea224fe,,,,,,,,,603,75.20001256,-33.60000694,1,0,0,response3disk,,5,16.80001169,11.99999374,1,0,0,rectangle,16.80001169,11.99999374,1,0,0,16.80001169,11.99999374,1,0,0,0,80,80,103,1,,,,,,,,
,,,,,,,,,,,,,FF,,,,,,,,1.2155,,,,,,,,,,,,,,,,,,,,,,60ff943039dd3022ee2d8d10,61036f13af6d8f4cd65ba747,2021-07-29_20h19.55.227,Simcolourproject_2stim_asymm_v5,2020.2.10,Win32,60,61025ae37ef11b136ea224fe,,,,,,,,,2945,-94.39994113,-33.60000694,1,0,0,response5disk,,2,-4.799988627,-3.200006485,1,0,0,rectangle,-4.799988627,-3.200006485,1,0,0,-4.799988627,-3.200006485,1,0,0,0,81,81,127,1,,,,,,,,
,,,,,,,,,,,,,FF,,,,,,,,1.8486,,,,,,,,,,,,,,,,,,,,,,60ff943039dd3022ee2d8d10,61036f13af6d8f4cd65ba747,2021-07-29_20h19.55.227,Simcolourproject_2stim_asymm_v5,2020.2.10,Win32,60,61025ae37ef11b136ea224fe,,,,,,,,,3933,-105.5999901,-34.40000695,1,0,0,response5disk,,2,-23.1999889,-12.00000662,1,0,0,rectangle,-23.1999889,-12.00000662,1,0,0,-23.1999889,-12.00000662,1,0,0,0,82,82,32,1,,,,,,,,
,,,,,,,,,,,,,FF,,,,,,,,1.3152,,,,,,,,,,,,,,,,,,,,,,60ff943039dd3022ee2d8d10,61036f13af6d8f4cd65ba747,2021-07-29_20h19.55.227,Simcolourproject_2stim_asymm_v5,2020.2.10,Win32,60,61025ae37ef11b136ea224fe,,,,,,,,,2256,39.20001203,-77.60000759,1,0,0,response3disk,,4,10.4000116,2.399993598,1,0,0,rectangle,10.4000116,2.399993598,1,0,0,10.4000116,2.399993598,1,0,0,0,83,83,19,1,,,,,,,,
,,,,,,,,,,,,,FF,,,,,,,,1.5481,,,,,,,,,,,,,,,,,,,,,,60ff943039dd3022ee2d8d10,61036f13af6d8f4cd65ba747,2021-07-29_20h19.55.227,Simcolourproject_2stim_asymm_v5,2020.2.10,Win32,60,61025ae37ef11b136ea224fe,,,,,,,,,1784,104.000013,31.19996961,1,0,0,response1disk,,6,1.600060296,-6.4373E-06,1,0,0,rectangle,71.20001251,-96.80000788,1,0,0,-10.39993988,-1.600006461,1,0,0,0,84,84,63,1,,response3disk_3,TRUE,4,4,"[14,10,247,123,178,42,131,260,0,69,227,17,255,85,210,204,124,259,119,16]",1.5644,rectangle
,,,,,,,,,,,,,FF,,,,,,,,1.2648,,,,,,,,,,,,,,,,,,,,,,60ff943039dd3022ee2d8d10,61036f13af6d8f4cd65ba747,2021-07-29_20h19.55.227,Simcolourproject_2stim_asymm_v5,2020.2.10,Win32,60,61025ae37ef11b136ea224fe,,,,,,,,,1665,-42.39994036,-74.40000755,1,0,0,response5disk,,3,-8.799988687,15.9999938,1,0,0,rectangle,-8.799988687,15.9999938,1,0,0,-8.799988687,15.9999938,1,0,0,0,85,85,154,1,,,,,,,,
,,,,,,,,,,,,,FF,,,,,,,,0.8993,,,,,,,,,,,,,,,,,,,,,,60ff943039dd3022ee2d8d10,61036f13af6d8f4cd65ba747,2021-07-29_20h19.55.227,Simcolourproject_2stim_asymm_v5,2020.2.10,Win32,60,61025ae37ef11b136ea224fe,,,,,,,,,4095,-48.79998928,89.5999949,1,0,0,response7disk,,0,-0.799988568,-1.600006461,1,0,0,rectangle,-0.799988568,-1.600006461,1,0,0,-0.799988568,-1.600006461,1,0,0,0,86,86,92,1,,,,,,,,
,,,,,,,,,,,,,FF,,,,,,,,2.1312,,,,,,,,,,,,,,,,,,,,,,60ff943039dd3022ee2d8d10,61036f13af6d8f4cd65ba747,2021-07-29_20h19.55.227,Simcolourproject_2stim_asymm_v5,2020.2.10,Win32,60,61025ae37ef11b136ea224fe,,,,,,,,,2351,93.60001284,-40.80000705,1,0,0,response3disk,,5,-2.399939764,11.99999374,1,0,0,rectangle,-2.399939764,11.99999374,1,0,0,-2.399939764,11.99999374,1,0,0,0,87,87,71,1,,,,,,,,
,,,,,,,,,,,,,FF,,,,,,,,1.8648,,,,,,,,,,,,,,,,,,,,,,60ff943039dd3022ee2d8d10,61036f13af6d8f4cd65ba747,2021-07-29_20h19.55.227,Simcolourproject_2stim_asymm_v5,2020.2.10,Win32,60,61025ae37ef11b136ea224fe,,,,,,,,,1238,46.40001214,-60.00000733,1,0,0,response3disk,,4,-7.199988663,-4.800006509,1,0,0,rectangle,-7.199988663,-4.800006509,1,0,0,-7.199988663,-4.800006509,1,0,0,0,88,88,65,1,,,,,,,,
,,,,,,,,,,,,,FF,,,,,,,,1.4989,,,,,,,,,,,,,,,,,,,,,,60ff943039dd3022ee2d8d10,61036f13af6d8f4cd65ba747,2021-07-29_20h19.55.227,Simcolourproject_2stim_asymm_v5,2020.2.10,Win32,60,61025ae37ef11b136ea224fe,,,,,,,,,3117,84.0000127,42.39999419,1,0,0,response1disk,,6,-3.999988616,-0.800006449,1,0,0,rectangle,-3.999988616,-0.800006449,1,0,0,-3.999988616,-0.800006449,1,0,0,0,89,89,117,1,,,,,,,,
,,,,,,,,,,,,,FF,,,,,,,,2.2148,,,,,,,,,,,,,,,,,,,,,,60ff943039dd3022ee2d8d10,61036f13af6d8f4cd65ba747,2021-07-29_20h19.55.227,Simcolourproject_2stim_asymm_v5,2020.2.10,Win32,60,61025ae37ef11b136ea224fe,,,,,,,,,2214,28.80001187,-64.8000074,1,0,0,response3disk,,4,-7.199988663,9.599993706,1,0,0,rectangle,-7.199988663,9.599993706,1,0,0,-7.199988663,9.599993706,1,0,0,0,90,90,2,1,,,,,,,,
,,,,,,,,,,,,,FF,,,,,,,,1.8983,,,,,,,,,,,,,,,,,,,,,,60ff943039dd3022ee2d8d10,61036f13af6d8f4cd65ba747,2021-07-29_20h19.55.227,Simcolourproject_2stim_asymm_v5,2020.2.10,Win32,60,61025ae37ef11b136ea224fe,,,,,,,,,828,-57.59998941,-94.40000784,1,0,0,response5disk,,3,-9.599988699,10.39999372,1,0,0,rectangle,-9.599988699,10.39999372,1,0,0,-9.599988699,10.39999372,1,0,0,0,91,91,142,1,,,,,,,,
,,,,,,,,,,,,,FF,,,,,,,,0.9105,,,,,,,,,,,,,,,,,,,,,,60ff943039dd3022ee2d8d10,61036f13af6d8f4cd65ba747,2021-07-29_20h19.55.227,Simcolourproject_2stim_asymm_v5,2020.2.10,Win32,60,61025ae37ef11b136ea224fe,,,,,,,,,147,82.40001267,33.59999406,1,0,0,response1disk,,6,14.40001166,-4.800006509,1,0,0,rectangle,14.40001166,-4.800006509,1,0,0,14.40001166,-4.800006509,1,0,0,0,92,92,45,1,,,,,,,,
,,,,,,,,,,,,,FF,,,,,,,,1.0488,,,,,,,,,,,,,,,,,,,,,,60ff943039dd3022ee2d8d10,61036f13af6d8f4cd65ba747,2021-07-29_20h19.55.227,Simcolourproject_2stim_asymm_v5,2020.2.10,Win32,60,61025ae37ef11b136ea224fe,,,,,,,,,2482,-96.79999,43.99999422,1,0,0,response7disk,,1,-13.59998876,12.79999375,1,0,0,rectangle,-13.59998876,12.79999375,1,0,0,-13.59998876,12.79999375,1,0,0,0,93,93,7,1,,,,,,,,
,,,,,,,,,,,,,FF,,,,,,,,1.2655,,,,,,,,,,,,,,,,,,,,,,60ff943039dd3022ee2d8d10,61036f13af6d8f4cd65ba747,2021-07-29_20h19.55.227,Simcolourproject_2stim_asymm_v5,2020.2.10,Win32,60,61025ae37ef11b136ea224fe,,,,,,,,,167,-95.19998997,51.19996991,1,0,0,response7disk,,1,-11.99998873,1.599993587,1,0,0,rectangle,-11.99998873,1.599993587,1,0,0,-11.99998873,1.599993587,1,0,0,0,94,94,6,1,,,,,,,,
,,,,,,,,,,,,,FF,,,,,,,,1.2486,,,,,,,,,,,,,,,,,,,,,,60ff943039dd3022ee2d8d10,61036f13af6d8f4cd65ba747,2021-07-29_20h19.55.227,Simcolourproject_2stim_asymm_v5,2020.2.10,Win32,60,61025ae37ef11b136ea224fe,,,,,,,,,393,-41.59998918,-91.2000078,1,0,0,response5disk,,3,-11.19998872,-2.400006473,1,0,0,rectangle,-11.19998872,-2.400006473,1,0,0,-11.19998872,-2.400006473,1,0,0,0,95,95,132,1,,,,,,,,
,,,,,,,,,,,,,FF,,,,,,,,1.1154,,,,,,,,,,,,,,,,,,,,,,60ff943039dd3022ee2d8d10,61036f13af6d8f4cd65ba747,2021-07-29_20h19.55.227,Simcolourproject_2stim_asymm_v5,2020.2.10,Win32,60,61025ae37ef11b136ea224fe,,,,,,,,,4256,-86.39994102,-29.60000688,1,0,0,response5disk,,2,-10.39993988,-3.200006485,1,0,0,rectangle,-10.39993988,-3.200006485,1,0,0,-10.39993988,-3.200006485,1,0,0,0,96,96,119,1,,,,,,,,
,,,,,,,,,,,,,FF,,,,,,,,1.2999,,,,,,,,,,,,,,,,,,,,,,60ff943039dd3022ee2d8d10,61036f13af6d8f4cd65ba747,2021-07-29_20h19.55.227,Simcolourproject_2stim_asymm_v5,2020.2.10,Win32,60,61025ae37ef11b136ea224fe,,,,,,,,,3014,-79.19998974,-17.6000067,1,0,0,response5disk,,2,-3.999988616,-6.400006533,1,0,0,rectangle,-3.999988616,-6.400006533,1,0,0,-3.999988616,-6.400006533,1,0,0,0,97,97,67,1,,,,,,,,
,,,,,,,,,,,,,FF,,,,,,,,1.2323,,,,,,,,,,,,,,,,,,,,,,60ff943039dd3022ee2d8d10,61036f13af6d8f4cd65ba747,2021-07-29_20h19.55.227,Simcolourproject_2stim_asymm_v5,2020.2.10,Win32,60,61025ae37ef11b136ea224fe,,,,,,,,,426,21.60006059,-59.20000732,1,0,0,response3disk,,4,-7.199988663,-8.800006568,1,0,0,rectangle,-7.199988663,-8.800006568,1,0,0,-7.199988663,-8.800006568,1,0,0,0,98,98,62,1,,,,,,,,
,,,,,,,,,,,,,FF,,,,,,,,1.1656,,,,,,,,,,,,,,,,,,,,,,60ff943039dd3022ee2d8d10,61036f13af6d8f4cd65ba747,2021-07-29_20h19.55.227,Simcolourproject_2stim_asymm_v5,2020.2.10,Win32,60,61025ae37ef11b136ea224fe,,,,,,,,,2731,36.80001199,-73.60000753,1,0,0,response3disk,,4,5.600060356,-4.800006509,1,0,0,rectangle,5.600060356,-4.800006509,1,0,0,5.600060356,-4.800006509,1,0,0,0,99,99,5,1,,,,,,,,
,,,,,,,,,,,,,FF,,,,,,,,0.8985,,,,,,,,,,,,,,,,,,,,,,60ff943039dd3022ee2d8d10,61036f13af6d8f4cd65ba747,2021-07-29_20h19.55.227,Simcolourproject_2stim_asymm_v5,2020.2.10,Win32,60,61025ae37ef11b136ea224fe,,,,,,,,,635,-70.39994078,-23.20000678,1,0,0,response5disk,,2,-8.799988687,-12.00000662,1,0,0,rectangle,-8.799988687,-12.00000662,1,0,0,-8.799988687,-12.00000662,1,0,0,0,100,100,13,1,,,,,,,,
,,,,,,,,,,,,,FF,,,,,,,,0.7321,,,,,,,,,,,,,,,,,,,,,,60ff943039dd3022ee2d8d10,61036f13af6d8f4cd65ba747,2021-07-29_20h19.55.227,Simcolourproject_2stim_asymm_v5,2020.2.10,Win32,60,61025ae37ef11b136ea224fe,,,,,,,,,1142,-80.79998976,-40.80000705,1,0,0,response5disk,,2,-3.199988604,-2.400006473,1,0,0,rectangle,-3.199988604,-2.400006473,1,0,0,-3.199988604,-2.400006473,1,0,0,0,101,101,109,1,,,,,,,,
,,,,,,,,,,,,,FF,,,,,,,,2.1648,,,,,,,,,,,,,,,,,,,,,,60ff943039dd3022ee2d8d10,61036f13af6d8f4cd65ba747,2021-07-29_20h19.55.227,Simcolourproject_2stim_asymm_v5,2020.2.10,Win32,60,61025ae37ef11b136ea224fe,,,,,,,,,1685,-38.3999403,-60.80000734,1,0,0,response5disk,,3,-8.799988687,-2.400006473,1,0,0,rectangle,-8.799988687,-2.400006473,1,0,0,-8.799988687,-2.400006473,1,0,0,0,102,102,41,1,,,,,,,,
,,,,,,,,,,,,,FF,,,,,,,,0.9158,,,,,,,,,,,,,,,,,,,,,,60ff943039dd3022ee2d8d10,61036f13af6d8f4cd65ba747,2021-07-29_20h19.55.227,Simcolourproject_2stim_asymm_v5,2020.2.10,Win32,60,61025ae37ef11b136ea224fe,,,,,,,,,3475,-71.19998962,42.39999419,1,0,0,response7disk,,1,4.000011504,0.799993575,1,0,0,rectangle,4.000011504,0.799993575,1,0,0,4.000011504,0.799993575,1,0,0,0,103,103,24,1,,,,,,,,
,,,,,,,,,,,,,FF,,,,,,,,1.7814,,,,,,,,,,,,,,,,,,,,,,60ff943039dd3022ee2d8d10,61036f13af6d8f4cd65ba747,2021-07-29_20h19.55.227,Simcolourproject_2stim_asymm_v5,2020.2.10,Win32,60,61025ae37ef11b136ea224fe,,,,,,,,,4074,-42.39994036,-44.00000709,1,0,0,response5disk,,3,-9.599988699,14.39999378,1,0,0,rectangle,-9.599988699,14.39999378,1,0,0,-9.599988699,14.39999378,1,0,0,0,104,104,17,1,,,,,,,,
,,,,,,,,,,,,,FF,,,,,,,,0.9818,,,,,,,,,,,,,,,,,,,,,,60ff943039dd3022ee2d8d10,61036f13af6d8f4cd65ba747,2021-07-29_20h19.55.227,Simcolourproject_2stim_asymm_v5,2020.2.10,Win32,60,61025ae37ef11b136ea224fe,,,,,,,,,1811,-44.79998922,-66.40000743,1,0,0,response5disk,,3,-8.799988687,-16.00000668,1,0,0,rectangle,-8.799988687,-16.00000668,1,0,0,-8.799988687,-16.00000668,1,0,0,0,105,105,42,1,,,,,,,,
,,,,,,,,,,,,,FF,,,,,,,,1.5312,,,,,,,,,,,,,,,,,,,,,,60ff943039dd3022ee2d8d10,61036f13af6d8f4cd65ba747,2021-07-29_20h19.55.227,Simcolourproject_2stim_asymm_v5,2020.2.10,Win32,60,61025ae37ef11b136ea224fe,,,,,,,,,1192,18.40001172,-52.80000722,1,0,0,response3disk,,4,-7.999988675,0.799993575,1,0,0,rectangle,-7.999988675,0.799993575,1,0,0,-7.999988675,0.799993575,1,0,0,0,106,106,22,1,,,,,,,,
,,,,,,,,,,,,,FF,,,,,,,,0.9324,,,,,,,,,,,,,,,,,,,,,,60ff943039dd3022ee2d8d10,61036f13af6d8f4cd65ba747,2021-07-29_20h19.55.227,Simcolourproject_2stim_asymm_v5,2020.2.10,Win32,60,61025ae37ef11b136ea224fe,,,,,,,,,2942,-71.19998962,-41.60000706,1,0,0,response5disk,,2,-5.599988639,1.599993587,1,0,0,rectangle,-5.599988639,1.599993587,1,0,0,-5.599988639,1.599993587,1,0,0,0,107,107,72,1,,,,,,,,
,,,,,,,,,,,,,FF,,,,,,,,0.6166,,,,,,,,,,,,,,,,,,,,,,60ff943039dd3022ee2d8d10,61036f13af6d8f4cd65ba747,2021-07-29_20h19.55.227,Simcolourproject_2stim_asymm_v5,2020.2.10,Win32,60,61025ae37ef11b136ea224fe,,,,,,,,,3111,-68.79998958,-40.80000705,1,0,0,response5disk,,2,8.800011575,1.599993587,1,0,0,rectangle,8.800011575,1.599993587,1,0,0,8.800011575,1.599993587,1,0,0,0,108,108,97,1,,,,,,,,
,,,,,,,,,,,,,FF,,,,,,,,0.749,,,,,,,,,,,,,,,,,,,,,,60ff943039dd3022ee2d8d10,61036f13af6d8f4cd65ba747,2021-07-29_20h19.55.227,Simcolourproject_2stim_asymm_v5,2020.2.10,Win32,60,61025ae37ef11b136ea224fe,,,,,,,,,3969,-69.59998959,-42.40000707,1,0,0,response5disk,,2,13.60006047,7.999993682,1,0,0,rectangle,13.60006047,7.999993682,1,0,0,13.60006047,7.999993682,1,0,0,0,109,109,84,1,,,,,,,,
,,,,,,,,,,,,,FF,,,,,,,,1.0159,,,,,,,,,,,,,,,,,,,,,,60ff943039dd3022ee2d8d10,61036f13af6d8f4cd65ba747,2021-07-29_20h19.55.227,Simcolourproject_2stim_asymm_v5,2020.2.10,Win32,60,61025ae37ef11b136ea224fe,,,,,,,,,1169,80.00001264,-52.80000722,1,0,0,response3disk,,5,-3.199988604,-7.200006545,1,0,0,rectangle,-3.199988604,-7.200006545,1,0,0,-3.199988604,-7.200006545,1,0,0,0,110,110,100,1,,,,,,,,
,,,,,,,,,,,,,FF,,,,,,,,1.1485,,,,,,,,,,,,,,,,,,,,,,60ff943039dd3022ee2d8d10,61036f13af6d8f4cd65ba747,2021-07-29_20h19.55.227,Simcolourproject_2stim_asymm_v5,2020.2.10,Win32,60,61025ae37ef11b136ea224fe,,,,,,,,,3696,103.200013,75.19997027,1,0,0,response1disk,,6,6.400011539,-8.800006568,1,0,0,rectangle,6.400011539,-8.800006568,1,0,0,6.400011539,-8.800006568,1,0,0,0,111,111,145,1,,,,,,,,
,,,,,,,,,,,,,FF,,,,,,,,1.3153,,,,,,,,,,,,,,,,,,,,,,60ff943039dd3022ee2d8d10,61036f13af6d8f4cd65ba747,2021-07-29_20h19.55.227,Simcolourproject_2stim_asymm_v5,2020.2.10,Win32,60,61025ae37ef11b136ea224fe,,,,,,,,,897,-37.59998912,-56.80000728,1,0,0,response5disk,,3,-10.39993988,-8.800006568,1,0,0,rectangle,-10.39993988,-8.800006568,1,0,0,-10.39993988,-8.800006568,1,0,0,0,112,112,126,1,,,,,,,,
,,,,,,,,,,,,,FF,,,,,,,,1.1154,,,,,,,,,,,,,,,,,,,,,,60ff943039dd3022ee2d8d10,61036f13af6d8f4cd65ba747,2021-07-29_20h19.55.227,Simcolourproject_2stim_asymm_v5,2020.2.10,Win32,60,61025ae37ef11b136ea224fe,,,,,,,,,3441,-51.19998932,-80.00000763,1,0,0,response5disk,,3,-5.599988639,-16.00000668,1,0,0,rectangle,-5.599988639,-16.00000668,1,0,0,-5.599988639,-16.00000668,1,0,0,0,113,113,105,1,,,,,,,,
,,,,,,,,,,,,,FF,,,,,,,,1.032,,,,,,,,,,,,,,,,,,,,,,60ff943039dd3022ee2d8d10,61036f13af6d8f4cd65ba747,2021-07-29_20h19.55.227,Simcolourproject_2stim_asymm_v5,2020.2.10,Win32,60,61025ae37ef11b136ea224fe,,,,,,,,,2071,84.0000127,47.19996985,1,0,0,response1disk,,6,3.200011492,3.19999361,1,0,0,rectangle,3.200011492,3.19999361,1,0,0,3.200011492,3.19999361,1,0,0,0,114,114,82,1,,,,,,,,
,,,,,,,,,,,,,FF,,,,,,,,1.2164,,,,,,,,,,,,,,,,,,,,,,60ff943039dd3022ee2d8d10,61036f13af6d8f4cd65ba747,2021-07-29_20h19.55.227,Simcolourproject_2stim_asymm_v5,2020.2.10,Win32,60,61025ae37ef11b136ea224fe,,,,,,,,,3836,85.60001272,-51.2000072,1,0,0,response3disk,,5,-2.399939764,-8.800006568,1,0,0,rectangle,-2.399939764,-8.800006568,1,0,0,-2.399939764,-8.800006568,1,0,0,0,115,115,93,1,,,,,,,,
,,,,,,,,,,,,,FF,,,,,,,,1.3311,,,,,,,,,,,,,,,,,,,,,,60ff943039dd3022ee2d8d10,61036f13af6d8f4cd65ba747,2021-07-29_20h19.55.227,Simcolourproject_2stim_asymm_v5,2020.2.10,Win32,60,61025ae37ef11b136ea224fe,,,,,,,,,1675,-79.19998974,-48.80000716,1,0,0,response5disk,,2,-0.799988568,-6.4373E-06,1,0,0,rectangle,-0.799988568,-6.4373E-06,1,0,0,-0.799988568,-6.4373E-06,1,0,0,0,116,116,49,1,,,,,,,,
,,,,,,,,,,,,,FF,,,,,,,,1.8813,,,,,,,,,,,,,,,,,,,,,,60ff943039dd3022ee2d8d10,61036f13af6d8f4cd65ba747,2021-07-29_20h19.55.227,Simcolourproject_2stim_asymm_v5,2020.2.10,Win32,60,61025ae37ef11b136ea224fe,,,,,,,,,3711,-46.39994042,-68.00000745,1,0,0,response5disk,,3,-13.59998876,-8.000006557,1,0,0,rectangle,-13.59998876,-8.000006557,1,0,0,-13.59998876,-8.000006557,1,0,0,0,117,117,94,1,,,,,,,,
,,,,,,,,,,,,,FF,,,,,,,,1.8473,,,,,,,,,,,,,,,,,,,,,,60ff943039dd3022ee2d8d10,61036f13af6d8f4cd65ba747,2021-07-29_20h19.55.227,Simcolourproject_2stim_asymm_v5,2020.2.10,Win32,60,61025ae37ef11b136ea224fe,,,,,,,,,3507,-44.79998922,-66.40000743,1,0,0,response5disk,,3,-6.399939823,-10.40000659,1,0,0,rectangle,40.80001205,98.39999503,1,0,0,-3.199988604,-5.600006521,1,0,0,0,118,118,133,1,,response1disk_3,TRUE,7,7,"[14,10,247,123,178,42,131,260,0,69,227,17,255,85,210,204,124,259,119,16]",1.8996,rectangle
,,,,,,,,,,,,,FF,,,,,,,,1.2478,,,,,,,,,,,,,,,,,,,,,,60ff943039dd3022ee2d8d10,61036f13af6d8f4cd65ba747,2021-07-29_20h19.55.227,Simcolourproject_2stim_asymm_v5,2020.2.10,Win32,60,61025ae37ef11b136ea224fe,,,,,,,,,3811,-79.99998975,52.79999435,1,0,0,response7disk,,1,1.600060296,-7.200006545,1,0,0,rectangle,1.600060296,-7.200006545,1,0,0,1.600060296,-7.200006545,1,0,0,0,119,119,76,1,,,,,,,,
,,,,,,,,,,,,,FF,,,,,,,,0.8658,,,,,,,,,,,,,,,,,,,,,,60ff943039dd3022ee2d8d10,61036f13af6d8f4cd65ba747,2021-07-29_20h19.55.227,Simcolourproject_2stim_asymm_v5,2020.2.10,Win32,60,61025ae37ef11b136ea224fe,,,,,,,,,3851,-59.99998945,-33.60000694,1,0,0,response5disk,,2,4.000011504,11.19999373,1,0,0,rectangle,4.000011504,11.19999373,1,0,0,4.000011504,11.19999373,1,0,0,0,120,120,87,1,,,,,,,,
,,,,,,,,,,,,,FF,,,,,,,,1.0822,,,,,,,,,,,,,,,,,,,,,,60ff943039dd3022ee2d8d10,61036f13af6d8f4cd65ba747,2021-07-29_20h19.55.227,Simcolourproject_2stim_asymm_v5,2020.2.10,Win32,60,61025ae37ef11b136ea224fe,,,,,,,,,4274,118.4000132,-40.80000705,1,0,0,response3disk,,5,-10.39993988,16.79999381,1,0,0,rectangle,-10.39993988,16.79999381,1,0,0,-10.39993988,16.79999381,1,0,0,0,121,121,68,1,,,,,,,,
,,,,,,,,,,,,,FF,,,,,,,,1.648,,,,,,,,,,,,,,,,,,,,,,60ff943039dd3022ee2d8d10,61036f13af6d8f4cd65ba747,2021-07-29_20h19.55.227,Simcolourproject_2stim_asymm_v5,2020.2.10,Win32,60,61025ae37ef11b136ea224fe,,,,,,,,,4222,-56.7999894,-91.2000078,1,0,0,response5disk,,3,-13.59998876,-5.600006521,1,0,0,rectangle,31.20001191,83.99999481,1,0,0,-12.79998875,-8.000006557,1,0,0,0,122,122,58,1,,response1disk_3,TRUE,7,7,"[14,10,247,123,178,42,131,260,0,69,227,17,255,85,210,204,124,259,119,16]",1.5314,rectangle
,,,,,,,,,,,,,FF,,,,,,,,1.1658,,,,,,,,,,,,,,,,,,,,,,60ff943039dd3022ee2d8d10,61036f13af6d8f4cd65ba747,2021-07-29_20h19.55.227,Simcolourproject_2stim_asymm_v5,2020.2.10,Win32,60,61025ae37ef11b136ea224fe,,,,,,,,,1223,-65.59998953,-53.60000724,1,0,0,response5disk,,2,-2.399939764,-6.4373E-06,1,0,0,rectangle,-37.59998912,84.79999483,1,0,0,-8.799988687,9.599993706,1,0,0,0,123,123,122,1,,response7disk_3,TRUE,0,0,"[14,10,247,123,178,42,131,260,0,69,227,17,255,85,210,204,124,259,119,16]",2.5143,rectangle
,,,,,,,,,,,,,FF,,,,,,,,2.1485,,,,,,,,,,,,,,,,,,,,,,60ff943039dd3022ee2d8d10,61036f13af6d8f4cd65ba747,2021-07-29_20h19.55.227,Simcolourproject_2stim_asymm_v5,2020.2.10,Win32,60,61025ae37ef11b136ea224fe,,,,,,,,,2317,40.00001204,-30.40000689,1,0,0,response3disk,,5,-4.799988627,1.599993587,1,0,0,rectangle,-4.799988627,1.599993587,1,0,0,-4.799988627,1.599993587,1,0,0,0,124,124,66,1,,,,,,,,
,,,,,,,,,,,,,FF,,,,,,,,1.198,,,,,,,,,,,,,,,,,,,,,,60ff943039dd3022ee2d8d10,61036f13af6d8f4cd65ba747,2021-07-29_20h19.55.227,Simcolourproject_2stim_asymm_v5,2020.2.10,Win32,60,61025ae37ef11b136ea224fe,,,,,,,,,120,45.60006095,-68.80000746,1,0,0,response3disk,,4,-8.799988687,1.599993587,1,0,0,rectangle,-8.799988687,1.599993587,1,0,0,-8.799988687,1.599993587,1,0,0,0,125,125,79,1,,,,,,,,
,,,,,,,,,,,,,FF,,,,,,,,1.0152,,,,,,,,,,,,,,,,,,,,,,60ff943039dd3022ee2d8d10,61036f13af6d8f4cd65ba747,2021-07-29_20h19.55.227,Simcolourproject_2stim_asymm_v5,2020.2.10,Win32,60,61025ae37ef11b136ea224fe,,,,,,,,,3106,-75.19998968,-29.60000688,1,0,0,response5disk,,2,-27.19998896,-8.000006557,1,0,0,rectangle,-27.19998896,-8.000006557,1,0,0,-27.19998896,-8.000006557,1,0,0,0,126,126,95,1,,,,,,,,
,,,,,,,,,,,,,FF,,,,,,,,3.7466,,,,,,,,,,,,,,,,,,,,,,60ff943039dd3022ee2d8d10,61036f13af6d8f4cd65ba747,2021-07-29_20h19.55.227,Simcolourproject_2stim_asymm_v5,2020.2.10,Win32,60,61025ae37ef11b136ea224fe,,,,,,,,,2521,110.4000131,-28.00000685,1,0,0,response3disk,,5,1.600060296,-4.000006497,1,0,0,rectangle,1.600060296,-4.000006497,1,0,0,1.600060296,-4.000006497,1,0,0,0,127,127,25,1,,,,,,,,
,,,,,,,,,,,,,FF,,,,,,,,2.0481,,,,,,,,,,,,,,,,,,,,,,60ff943039dd3022ee2d8d10,61036f13af6d8f4cd65ba747,2021-07-29_20h19.55.227,Simcolourproject_2stim_asymm_v5,2020.2.10,Win32,60,61025ae37ef11b136ea224fe,,,,,,,,,1276,-33.59998906,-102.400008,1,0,0,response5disk,,3,3.200011492,-4.000006497,1,0,0,rectangle,3.200011492,-4.000006497,1,0,0,3.200011492,-4.000006497,1,0,0,0,128,128,121,1,,,,,,,,
,,,,,,,,,,,,,FF,,,,,,,,1.2986,,,,,,,,,,,,,,,,,,,,,,60ff943039dd3022ee2d8d10,61036f13af6d8f4cd65ba747,2021-07-29_20h19.55.227,Simcolourproject_2stim_asymm_v5,2020.2.10,Win32,60,61025ae37ef11b136ea224fe,,,,,,,,,454,84.80001271,-37.600007,1,0,0,response3disk,,5,16.00001168,-13.60000664,1,0,0,rectangle,16.00001168,-13.60000664,1,0,0,16.00001168,-13.60000664,1,0,0,0,129,129,159,1,,,,,,,,
,,,,,,,,,,,,,FF,,,,,,,,1.1827,,,,,,,,,,,,,,,,,,,,,,60ff943039dd3022ee2d8d10,61036f13af6d8f4cd65ba747,2021-07-29_20h19.55.227,Simcolourproject_2stim_asymm_v5,2020.2.10,Win32,60,61025ae37ef11b136ea224fe,,,,,,,,,3942,-75.19998968,-55.20000726,1,0,0,response5disk,,2,-1.59998858,-0.800006449,1,0,0,rectangle,-59.19998944,-42.40000707,1,0,0,-9.599988699,-7.200006545,1,0,0,0,130,130,155,1,,response5disk_3,TRUE,2,2,"[14,10,247,123,178,42,131,260,0,69,227,17,255,85,210,204,124,259,119,16]",2.5634,rectangle
,,,,,,,,,,,,,FF,,,,,,,,0.9994,,,,,,,,,,,,,,,,,,,,,,60ff943039dd3022ee2d8d10,61036f13af6d8f4cd65ba747,2021-07-29_20h19.55.227,Simcolourproject_2stim_asymm_v5,2020.2.10,Win32,60,61025ae37ef11b136ea224fe,,,,,,,,,4292,65.60001242,41.59999418,1,0,0,response1disk,,6,4.800011516,1.599993587,1,0,0,rectangle,4.800011516,1.599993587,1,0,0,4.800011516,1.599993587,1,0,0,0,131,131,98,1,,,,,,,,
,,,,,,,,,,,,,FF,,,,,,,,0.9666,,,,,,,,,,,,,,,,,,,,,,60ff943039dd3022ee2d8d10,61036f13af6d8f4cd65ba747,2021-07-29_20h19.55.227,Simcolourproject_2stim_asymm_v5,2020.2.10,Win32,60,61025ae37ef11b136ea224fe,,,,,,,,,794,87.20001274,-37.600007,1,0,0,response3disk,,5,10.4000116,-10.40000659,1,0,0,rectangle,10.4000116,-10.40000659,1,0,0,10.4000116,-10.40000659,1,0,0,0,132,132,9,1,,,,,,,,
,,,,,,,,,,,,,FF,,,,,,,,0.8996,,,,,,,,,,,,,,,,,,,,,,60ff943039dd3022ee2d8d10,61036f13af6d8f4cd65ba747,2021-07-29_20h19.55.227,Simcolourproject_2stim_asymm_v5,2020.2.10,Win32,60,61025ae37ef11b136ea224fe,,,,,,,,,420,68.80001247,-35.20000696,1,0,0,response3disk,,5,8.800011575,-8.800006568,1,0,0,rectangle,8.800011575,-8.800006568,1,0,0,8.800011575,-8.800006568,1,0,0,0,133,133,158,1,,,,,,,,
,,,,,,,,,,,,,FF,,,,,,,,1.015,,,,,,,,,,,,,,,,,,,,,,60ff943039dd3022ee2d8d10,61036f13af6d8f4cd65ba747,2021-07-29_20h19.55.227,Simcolourproject_2stim_asymm_v5,2020.2.10,Win32,60,61025ae37ef11b136ea224fe,,,,,,,,,793,51.20001221,75.19997027,1,0,0,response1disk,,7,-10.39993988,6.399993658,1,0,0,rectangle,-10.39993988,6.399993658,1,0,0,-10.39993988,6.399993658,1,0,0,0,134,134,83,1,,,,,,,,
,,,,,,,,,,,,,FF,,,,,,,,1.2653,,,,,,,,,,,,,,,,,,,,,,60ff943039dd3022ee2d8d10,61036f13af6d8f4cd65ba747,2021-07-29_20h19.55.227,Simcolourproject_2stim_asymm_v5,2020.2.10,Win32,60,61025ae37ef11b136ea224fe,,,,,,,,,4036,38.40001202,-64.00000739,1,0,0,response3disk,,4,-12.79998875,-11.2000066,1,0,0,rectangle,-12.79998875,-11.2000066,1,0,0,-12.79998875,-11.2000066,1,0,0,0,135,135,153,1,,,,,,,,
,,,,,,,,,,,,,FF,,,,,,,,1.3986,,,,,,,,,,,,,,,,,,,,,,60ff943039dd3022ee2d8d10,61036f13af6d8f4cd65ba747,2021-07-29_20h19.55.227,Simcolourproject_2stim_asymm_v5,2020.2.10,Win32,60,61025ae37ef11b136ea224fe,,,,,,,,,2362,-37.59998912,-96.00000787,1,0,0,response5disk,,3,-10.39993988,-8.000006557,1,0,0,rectangle,-10.39993988,-8.000006557,1,0,0,-10.39993988,-8.000006557,1,0,0,0,136,136,129,1,,,,,,,,
,,,,,,,,,,,,,FF,,,,,,,,2.4309,,,,,,,,,,,,,,,,,,,,,,60ff943039dd3022ee2d8d10,61036f13af6d8f4cd65ba747,2021-07-29_20h19.55.227,Simcolourproject_2stim_asymm_v5,2020.2.10,Win32,60,61025ae37ef11b136ea224fe,,,,,,,,,2078,71.20001251,-93.60005666,1,0,0,response3disk,,4,20.80001175,-7.200006545,1,0,0,rectangle,20.80001175,-7.200006545,1,0,0,20.80001175,-7.200006545,1,0,0,0,137,137,73,1,,,,,,,,
,,,,,,,,,,,,,FF,,,,,,,,0.9831,,,,,,,,,,,,,,,,,,,,,,60ff943039dd3022ee2d8d10,61036f13af6d8f4cd65ba747,2021-07-29_20h19.55.227,Simcolourproject_2stim_asymm_v5,2020.2.10,Win32,60,61025ae37ef11b136ea224fe,,,,,,,,,582,70.40001249,-45.60000712,1,0,0,response3disk,,5,8.800011575,2.399993598,1,0,0,rectangle,8.800011575,2.399993598,1,0,0,8.800011575,2.399993598,1,0,0,0,138,138,150,1,,,,,,,,
,,,,,,,,,,,,,FF,,,,,,,,1.2984,,,,,,,,,,,,,,,,,,,,,,60ff943039dd3022ee2d8d10,61036f13af6d8f4cd65ba747,2021-07-29_20h19.55.227,Simcolourproject_2stim_asymm_v5,2020.2.10,Win32,60,61025ae37ef11b136ea224fe,,,,,,,,,2343,84.0000127,26.39999396,1,0,0,response1disk,,6,0.800011456,-11.2000066,1,0,0,rectangle,0.800011456,-11.2000066,1,0,0,0.800011456,-11.2000066,1,0,0,0,139,139,44,1,,,,,,,,
,,,,,,,,,,,,,FF,,,,,,,,1.4202,,,,,,,,,,,,,,,,,,,,,,60ff943039dd3022ee2d8d10,61036f13af6d8f4cd65ba747,2021-07-29_20h19.55.227,Simcolourproject_2stim_asymm_v5,2020.2.10,Win32,60,61025ae37ef11b136ea224fe,,,,,,,,,2939,69.60001248,31.19996961,1,0,0,response1disk,,6,-3.199988604,-4.800006509,1,0,0,rectangle,-3.199988604,-4.800006509,1,0,0,-3.199988604,-4.800006509,1,0,0,0,140,140,75,1,,,,,,,,
,,,,,,,,,,,,,FF,,,,,,,,1.1278,,,,,,,,,,,,,,,,,,,,,,60ff943039dd3022ee2d8d10,61036f13af6d8f4cd65ba747,2021-07-29_20h19.55.227,Simcolourproject_2stim_asymm_v5,2020.2.10,Win32,60,61025ae37ef11b136ea224fe,,,,,,,,,4084,-64.79998952,-46.40000713,1,0,0,response5disk,,2,-3.999988616,2.399993598,1,0,0,rectangle,-3.999988616,2.399993598,1,0,0,-3.999988616,2.399993598,1,0,0,0,141,141,128,1,,,,,,,,
,,,,,,,,,,,,,FF,,,,,,,,2.9136,,,,,,,,,,,,,,,,,,,,,,60ff943039dd3022ee2d8d10,61036f13af6d8f4cd65ba747,2021-07-29_20h19.55.227,Simcolourproject_2stim_asymm_v5,2020.2.10,Win32,60,61025ae37ef11b136ea224fe,,,,,,,,,2768,-69.59998959,-32.80000693,1,0,0,response5disk,,2,-3.999988616,-4.800006509,1,0,0,rectangle,-3.999988616,-4.800006509,1,0,0,-3.999988616,-4.800006509,1,0,0,0,142,142,46,1,,,,,,,,
,,,,,,,,,,,,,FF,,,,,,,,1.6645,,,,,,,,,,,,,,,,,,,,,,60ff943039dd3022ee2d8d10,61036f13af6d8f4cd65ba747,2021-07-29_20h19.55.227,Simcolourproject_2stim_asymm_v5,2020.2.10,Win32,60,61025ae37ef11b136ea224fe,,,,,,,,,3417,100.8000129,41.59999418,1,0,0,response1disk,,6,2.40001148,2.399993598,1,0,0,rectangle,2.40001148,2.399993598,1,0,0,2.40001148,2.399993598,1,0,0,0,143,143,91,1,,,,,,,,
,,,,,,,,,,,,,FF,,,,,,,,2.4977,,,,,,,,,,,,,,,,,,,,,,60ff943039dd3022ee2d8d10,61036f13af6d8f4cd65ba747,2021-07-29_20h19.55.227,Simcolourproject_2stim_asymm_v5,2020.2.10,Win32,60,61025ae37ef11b136ea224fe,,,,,,,,,1329,48.80001217,-68.80000746,1,0,0,response3disk,,4,6.400011539,-12.00000662,1,0,0,rectangle,6.400011539,-12.00000662,1,0,0,6.400011539,-12.00000662,1,0,0,0,144,144,16,1,,,,,,,,
,,,,,,,,,,,,,FF,,,,,,,,1.032,,,,,,,,,,,,,,,,,,,,,,60ff943039dd3022ee2d8d10,61036f13af6d8f4cd65ba747,2021-07-29_20h19.55.227,Simcolourproject_2stim_asymm_v5,2020.2.10,Win32,60,61025ae37ef11b136ea224fe,,,,,,,,,2978,90.40001279,-32.00000691,1,0,0,response3disk,,5,-8.799988687,9.599993706,1,0,0,rectangle,-8.799988687,9.599993706,1,0,0,-8.799988687,9.599993706,1,0,0,0,145,145,140,1,,,,,,,,
,,,,,,,,,,,,,FF,,,,,,,,0.9492,,,,,,,,,,,,,,,,,,,,,,60ff943039dd3022ee2d8d10,61036f13af6d8f4cd65ba747,2021-07-29_20h19.55.227,Simcolourproject_2stim_asymm_v5,2020.2.10,Win32,60,61025ae37ef11b136ea224fe,,,,,,,,,3646,93.60001284,46.39999425,1,0,0,response1disk,,6,-21.59998888,-0.800006449,1,0,0,rectangle,-21.59998888,-0.800006449,1,0,0,-21.59998888,-0.800006449,1,0,0,0,146,146,125,1,,,,,,,,
,,,,,,,,,,,,,FF,,,,,,,,1.1491,,,,,,,,,,,,,,,,,,,,,,60ff943039dd3022ee2d8d10,61036f13af6d8f4cd65ba747,2021-07-29_20h19.55.227,Simcolourproject_2stim_asymm_v5,2020.2.10,Win32,60,61025ae37ef11b136ea224fe,,,,,,,,,1837,-47.99998927,-96.80000788,1,0,0,response5disk,,3,7.200011551,9.599993706,1,0,0,rectangle,7.200011551,9.599993706,1,0,0,7.200011551,9.599993706,1,0,0,0,147,147,151,1,,,,,,,,
,,,,,,,,,,,,,FF,,,,,,,,0.8828,,,,,,,,,,,,,,,,,,,,,,60ff943039dd3022ee2d8d10,61036f13af6d8f4cd65ba747,2021-07-29_20h19.55.227,Simcolourproject_2stim_asymm_v5,2020.2.10,Win32,60,61025ae37ef11b136ea224fe,,,,,,,,,2140,40.00001204,-115.2000082,1,0,0,response3disk,,4,3.200011492,3.19999361,1,0,0,rectangle,3.200011492,3.19999361,1,0,0,3.200011492,3.19999361,1,0,0,0,148,148,8,1,,,,,,,,
,,,,,,,,,,,,,FF,,,,,,,,1.3809,,,,,,,,,,,,,,,,,,,,,,60ff943039dd3022ee2d8d10,61036f13af6d8f4cd65ba747,2021-07-29_20h19.55.227,Simcolourproject_2stim_asymm_v5,2020.2.10,Win32,60,61025ae37ef11b136ea224fe,,,,,,,,,607,-51.99998933,-81.60005648,1,0,0,response5disk,,3,-9.599988699,-5.600006521,1,0,0,rectangle,-9.599988699,-5.600006521,1,0,0,-9.599988699,-5.600006521,1,0,0,0,149,149,4,1,,,,,,,,
,,,,,,,,,,,,,FF,,,,,,,,1.2484,,,,,,,,,,,,,,,,,,,,,,60ff943039dd3022ee2d8d10,61036f13af6d8f4cd65ba747,2021-07-29_20h19.55.227,Simcolourproject_2stim_asymm_v5,2020.2.10,Win32,60,61025ae37ef11b136ea224fe,,,,,,,,,406,48.00001216,-33.60000694,1,0,0,response3disk,,5,9.600060415,-4.000006497,1,0,0,rectangle,9.600060415,-4.000006497,1,0,0,9.600060415,-4.000006497,1,0,0,0,150,150,10,1,,,,,,,,
,,,,,,,,,,,,,FF,,,,,,,,2.0485,,,,,,,,,,,,,,,,,,,,,,60ff943039dd3022ee2d8d10,61036f13af6d8f4cd65ba747,2021-07-29_20h19.55.227,Simcolourproject_2stim_asymm_v5,2020.2.10,Win32,60,61025ae37ef11b136ea224fe,,,,,,,,,208,44.0000121,-66.40000743,1,0,0,response3disk,,4,-7.999988675,6.399993658,1,0,0,rectangle,-7.999988675,6.399993658,1,0,0,-7.999988675,6.399993658,1,0,0,0,151,151,148,1,,,,,,,,
,,,,,,,,,,,,,FF,,,,,,,,1.4826,,,,,,,,,,,,,,,,,,,,,,60ff943039dd3022ee2d8d10,61036f13af6d8f4cd65ba747,2021-07-29_20h19.55.227,Simcolourproject_2stim_asymm_v5,2020.2.10,Win32,60,61025ae37ef11b136ea224fe,,,,,,,,,1574,88.00001276,-35.20000696,1,0,0,response3disk,,5,-0.799988568,-7.200006545,1,0,0,rectangle,-0.799988568,-7.200006545,1,0,0,-0.799988568,-7.200006545,1,0,0,0,152,152,59,1,,,,,,,,
,,,,,,,,,,,,,FF,,,,,,,,0.8497,,,,,,,,,,,,,,,,,,,,,,60ff943039dd3022ee2d8d10,61036f13af6d8f4cd65ba747,2021-07-29_20h19.55.227,Simcolourproject_2stim_asymm_v5,2020.2.10,Win32,60,61025ae37ef11b136ea224fe,,,,,,,,,3317,76.80001259,42.39999419,1,0,0,response1disk,,6,1.600060296,2.399993598,1,0,0,rectangle,1.600060296,2.399993598,1,0,0,1.600060296,2.399993598,1,0,0,0,153,153,34,1,,,,,,,,
,,,,,,,,,,,,,FF,,,,,,,,0.849,,,,,,,,,,,,,,,,,,,,,,60ff943039dd3022ee2d8d10,61036f13af6d8f4cd65ba747,2021-07-29_20h19.55.227,Simcolourproject_2stim_asymm_v5,2020.2.10,Win32,60,61025ae37ef11b136ea224fe,,,,,,,,,594,88.00001276,42.39999419,1,0,0,response1disk,,6,5.600060356,3.999993622,1,0,0,rectangle,5.600060356,3.999993622,1,0,0,5.600060356,3.999993622,1,0,0,0,154,154,26,1,,,,,,,,
,,,,,,,,,,,,,FF,,,,,,,,1.3482,,,,,,,,,,,,,,,,,,,,,,60ff943039dd3022ee2d8d10,61036f13af6d8f4cd65ba747,2021-07-29_20h19.55.227,Simcolourproject_2stim_asymm_v5,2020.2.10,Win32,60,61025ae37ef11b136ea224fe,,,,,,,,,2928,21.60006059,-80.80000764,1,0,0,response3disk,,4,1.14441E-05,-5.600006521,1,0,0,rectangle,1.14441E-05,-5.600006521,1,0,0,1.14441E-05,-5.600006521,1,0,0,0,155,155,27,1,,,,,,,,
,,,,,,,,,,,,,FF,,,,,,,,2.3645,,,,,,,,,,,,,,,,,,,,,,60ff943039dd3022ee2d8d10,61036f13af6d8f4cd65ba747,2021-07-29_20h19.55.227,Simcolourproject_2stim_asymm_v5,2020.2.10,Win32,60,61025ae37ef11b136ea224fe,,,,,,,,,3504,19.20001173,-74.40000755,1,0,0,response3disk,,4,-4.799988627,-6.4373E-06,1,0,0,rectangle,-4.799988627,-6.4373E-06,1,0,0,-4.799988627,-6.4373E-06,1,0,0,0,156,156,78,1,,,,,,,,
,,,,,,,,,,,,,FF,,,,,,,,1.9824,,,,,,,,,,,,,,,,,,,,,,60ff943039dd3022ee2d8d10,61036f13af6d8f4cd65ba747,2021-07-29_20h19.55.227,Simcolourproject_2stim_asymm_v5,2020.2.10,Win32,60,61025ae37ef11b136ea224fe,,,,,,,,,843,119.2000132,33.59999406,1,0,0,response1disk,,6,16.80001169,-8.800006568,1,0,0,rectangle,16.80001169,-8.800006568,1,0,0,16.80001169,-8.800006568,1,0,0,0,157,157,112,1,,,,,,,,
,,,,,,,,,,,,,FF,,,,,,,,1.0499,,,,,,,,,,,,,,,,,,,,,,60ff943039dd3022ee2d8d10,61036f13af6d8f4cd65ba747,2021-07-29_20h19.55.227,Simcolourproject_2stim_asymm_v5,2020.2.10,Win32,60,61025ae37ef11b136ea224fe,,,,,,,,,851,97.6000129,33.59999406,1,0,0,response1disk,,6,-17.59998882,-2.400006473,1,0,0,rectangle,-17.59998882,-2.400006473,1,0,0,-17.59998882,-2.400006473,1,0,0,0,158,158,135,1,,,,,,,,
,,,,,,,,,,,,,FF,,,,,,,,1.6993,,,,,,,,,,,,,,,,,,,,,,60ff943039dd3022ee2d8d10,61036f13af6d8f4cd65ba747,2021-07-29_20h19.55.227,Simcolourproject_2stim_asymm_v5,2020.2.10,Win32,60,61025ae37ef11b136ea224fe,,,,,,,,,4202,-49.5999893,-78.40000761,1,0,0,response5disk,,3,-6.399939823,-6.400006533,1,0,0,rectangle,-6.399939823,-6.400006533,1,0,0,-6.399939823,-6.400006533,1,0,0,0,159,159,102,1,,,,,,,,
,,,,,,,,,,,,,FF,,,,,,,,1.0158,,,,,,,,,,,,,,,,,,,,,,60ff943039dd3022ee2d8d10,61036f13af6d8f4cd65ba747,2021-07-29_20h19.55.227,Simcolourproject_2stim_asymm_v5,2020.2.10,Win32,60,61025ae37ef11b136ea224fe,,,,,,,,,2868,114.4000131,-47.20000714,1,0,0,response3disk,,5,15.20001167,-4.800006509,1,0,0,rectangle,15.20001167,-4.800006509,1,0,0,15.20001167,-4.800006509,1,0,0,1,0,160,111,1,,,,,,,,
,,,,,,,,,,,,,FF,,,,,,,,1.1644,,,,,,,,,,,,,,,,,,,,,,60ff943039dd3022ee2d8d10,61036f13af6d8f4cd65ba747,2021-07-29_20h19.55.227,Simcolourproject_2stim_asymm_v5,2020.2.10,Win32,60,61025ae37ef11b136ea224fe,,,,,,,,,2572,60.00001234,90.39999491,1,0,0,response1disk,,7,2.40001148,3.999993622,1,0,0,rectangle,2.40001148,3.999993622,1,0,0,2.40001148,3.999993622,1,0,0,1,1,161,116,1,,,,,,,,
,,,,,,,,,,,,,FF,,,,,,,,2.5473,,,,,,,,,,,,,,,,,,,,,,60ff943039dd3022ee2d8d10,61036f13af6d8f4cd65ba747,2021-07-29_20h19.55.227,Simcolourproject_2stim_asymm_v5,2020.2.10,Win32,60,61025ae37ef11b136ea224fe,,,,,,,,,816,59.20001233,-93.60005666,1,0,0,response3disk,,4,13.60006047,-15.20000666,1,0,0,rectangle,13.60006047,-15.20000666,1,0,0,13.60006047,-15.20000666,1,0,0,1,2,162,56,1,,,,,,,,
,,,,,,,,,,,,,FF,,,,,,,,0.9162,,,,,,,,,,,,,,,,,,,,,,60ff943039dd3022ee2d8d10,61036f13af6d8f4cd65ba747,2021-07-29_20h19.55.227,Simcolourproject_2stim_asymm_v5,2020.2.10,Win32,60,61025ae37ef11b136ea224fe,,,,,,,,,2123,84.80001271,-35.20000696,1,0,0,response3disk,,5,4.800011516,-6.4373E-06,1,0,0,rectangle,4.800011516,-6.4373E-06,1,0,0,4.800011516,-6.4373E-06,1,0,0,1,3,163,34,1,,,,,,,,
,,,,,,,,,,,,,FF,,,,,,,,2.064,,,,,,,,,,,,,,,,,,,,,,60ff943039dd3022ee2d8d10,61036f13af6d8f4cd65ba747,2021-07-29_20h19.55.227,Simcolourproject_2stim_asymm_v5,2020.2.10,Win32,60,61025ae37ef11b136ea224fe,,,,,,,,,289,-68.79998958,-127.2000083,1,0,0,response5disk,,3,-9.599988699,3.19999361,1,0,0,rectangle,-9.599988699,3.19999361,1,0,0,-9.599988699,3.19999361,1,0,0,1,4,164,149,1,,,,,,,,
,,,,,,,,,,,,,FF,,,,,,,,1.2325,,,,,,,,,,,,,,,,,,,,,,60ff943039dd3022ee2d8d10,61036f13af6d8f4cd65ba747,2021-07-29_20h19.55.227,Simcolourproject_2stim_asymm_v5,2020.2.10,Win32,60,61025ae37ef11b136ea224fe,,,,,,,,,3866,85.60001272,48.79999429,1,0,0,response1disk,,6,-3.199988604,-1.600006461,1,0,0,rectangle,-3.199988604,-1.600006461,1,0,0,-3.199988604,-1.600006461,1,0,0,1,5,165,147,1,,,,,,,,
,,,,,,,,,,,,,FF,,,,,,,,1.2322,,,,,,,,,,,,,,,,,,,,,,60ff943039dd3022ee2d8d10,61036f13af6d8f4cd65ba747,2021-07-29_20h19.55.227,Simcolourproject_2stim_asymm_v5,2020.2.10,Win32,60,61025ae37ef11b136ea224fe,,,,,,,,,296,89.60001278,-39.20000702,1,0,0,response3disk,,5,27.20001185,-15.20000666,1,0,0,rectangle,27.20001185,-15.20000666,1,0,0,27.20001185,-15.20000666,1,0,0,1,6,166,58,1,,,,,,,,
,,,,,,,,,,,,,FF,,,,,,,,0.8987,,,,,,,,,,,,,,,,,,,,,,60ff943039dd3022ee2d8d10,61036f13af6d8f4cd65ba747,2021-07-29_20h19.55.227,Simcolourproject_2stim_asymm_v5,2020.2.10,Win32,60,61025ae37ef11b136ea224fe,,,,,,,,,3318,95.20001286,-32.00000691,1,0,0,response3disk,,5,8.000011563,-2.400006473,1,0,0,rectangle,8.000011563,-2.400006473,1,0,0,8.000011563,-2.400006473,1,0,0,1,7,167,137,1,,,,,,,,
,,,,,,,,,,,,,FF,,,,,,,,1.5321,,,,,,,,,,,,,,,,,,,,,,60ff943039dd3022ee2d8d10,61036f13af6d8f4cd65ba747,2021-07-29_20h19.55.227,Simcolourproject_2stim_asymm_v5,2020.2.10,Win32,60,61025ae37ef11b136ea224fe,,,,,,,,,1592,131.2000134,-40.80000705,1,0,0,response3disk,,5,1.14441E-05,-8.000006557,1,0,0,rectangle,1.14441E-05,-8.000006557,1,0,0,1.14441E-05,-8.000006557,1,0,0,1,8,168,94,1,,,,,,,,
,,,,,,,,,,,,,FF,,,,,,,,1.2657,,,,,,,,,,,,,,,,,,,,,,60ff943039dd3022ee2d8d10,61036f13af6d8f4cd65ba747,2021-07-29_20h19.55.227,Simcolourproject_2stim_asymm_v5,2020.2.10,Win32,60,61025ae37ef11b136ea224fe,,,,,,,,,1382,63.20001239,-84.00000769,1,0,0,response3disk,,4,20.00001174,-6.400006533,1,0,0,rectangle,20.00001174,-6.400006533,1,0,0,20.00001174,-6.400006533,1,0,0,1,9,169,7,1,,,,,,,,
,,,,,,,,,,,,,FF,,,,,,,,0.9164,,,,,,,,,,,,,,,,,,,,,,60ff943039dd3022ee2d8d10,61036f13af6d8f4cd65ba747,2021-07-29_20h19.55.227,Simcolourproject_2stim_asymm_v5,2020.2.10,Win32,60,61025ae37ef11b136ea224fe,,,,,,,,,992,26.40001184,-72.80000752,1,0,0,response3disk,,4,-7.199988663,-11.2000066,1,0,0,rectangle,-7.199988663,-11.2000066,1,0,0,-7.199988663,-11.2000066,1,0,0,1,10,170,8,1,,,,,,,,
,,,,,,,,,,,,,FF,,,,,,,,2.4971,,,,,,,,,,,,,,,,,,,,,,60ff943039dd3022ee2d8d10,61036f13af6d8f4cd65ba747,2021-07-29_20h19.55.227,Simcolourproject_2stim_asymm_v5,2020.2.10,Win32,60,61025ae37ef11b136ea224fe,,,,,,,,,4329,136.0000135,-51.2000072,1,0,0,response3disk,,5,10.4000116,1.599993587,1,0,0,rectangle,10.4000116,1.599993587,1,0,0,10.4000116,1.599993587,1,0,0,1,11,171,31,1,,,,,,,,
,,,,,,,,,,,,,FF,,,,,,,,2.0484,,,,,,,,,,,,,,,,,,,,,,60ff943039dd3022ee2d8d10,61036f13af6d8f4cd65ba747,2021-07-29_20h19.55.227,Simcolourproject_2stim_asymm_v5,2020.2.10,Win32,60,61025ae37ef11b136ea224fe,,,,,,,,,4093,64.80001241,-89.6000566,1,0,0,response3disk,,4,-11.19998872,3.19999361,1,0,0,rectangle,-11.19998872,3.19999361,1,0,0,-11.19998872,3.19999361,1,0,0,1,12,172,61,1,,,,,,,,
,,,,,,,,,,,,,FF,,,,,,,,2.1474,,,,,,,,,,,,,,,,,,,,,,60ff943039dd3022ee2d8d10,61036f13af6d8f4cd65ba747,2021-07-29_20h19.55.227,Simcolourproject_2stim_asymm_v5,2020.2.10,Win32,60,61025ae37ef11b136ea224fe,,,,,,,,,143,73.60001254,27.99999398,1,0,0,response1disk,,6,9.600060415,-6.4373E-06,1,0,0,rectangle,9.600060415,-6.4373E-06,1,0,0,9.600060415,-6.4373E-06,1,0,0,1,13,173,81,1,,,,,,,,
,,,,,,,,,,,,,FF,,,,,,,,0.7162,,,,,,,,,,,,,,,,,,,,,,60ff943039dd3022ee2d8d10,61036f13af6d8f4cd65ba747,2021-07-29_20h19.55.227,Simcolourproject_2stim_asymm_v5,2020.2.10,Win32,60,61025ae37ef11b136ea224fe,,,,,,,,,453,72.80001253,35.9999941,1,0,0,response1disk,,6,10.4000116,-9.60000658,1,0,0,rectangle,10.4000116,-9.60000658,1,0,0,10.4000116,-9.60000658,1,0,0,1,14,174,119,1,,,,,,,,
,,,,,,,,,,,,,FF,,,,,,,,0.9983,,,,,,,,,,,,,,,,,,,,,,60ff943039dd3022ee2d8d10,61036f13af6d8f4cd65ba747,2021-07-29_20h19.55.227,Simcolourproject_2stim_asymm_v5,2020.2.10,Win32,60,61025ae37ef11b136ea224fe,,,,,,,,,940,90.40001279,22.3999939,1,0,0,response1disk,,6,14.40001166,-3.200006485,1,0,0,rectangle,14.40001166,-3.200006485,1,0,0,14.40001166,-3.200006485,1,0,0,1,15,175,78,1,,,,,,,,
,,,,,,,,,,,,,FF,,,,,,,,1.2157,,,,,,,,,,,,,,,,,,,,,,60ff943039dd3022ee2d8d10,61036f13af6d8f4cd65ba747,2021-07-29_20h19.55.227,Simcolourproject_2stim_asymm_v5,2020.2.10,Win32,60,61025ae37ef11b136ea224fe,,,,,,,,,95,-67.99998957,20.79999387,1,0,0,response7disk,,1,-15.19998878,-5.600006521,1,0,0,rectangle,-15.19998878,-5.600006521,1,0,0,-15.19998878,-5.600006521,1,0,0,1,16,176,70,1,,,,,,,,
,,,,,,,,,,,,,FF,,,,,,,,0.9817,,,,,,,,,,,,,,,,,,,,,,60ff943039dd3022ee2d8d10,61036f13af6d8f4cd65ba747,2021-07-29_20h19.55.227,Simcolourproject_2stim_asymm_v5,2020.2.10,Win32,60,61025ae37ef11b136ea224fe,,,,,,,,,1949,-68.79998958,-34.40000695,1,0,0,response5disk,,2,1.14441E-05,-10.40000659,1,0,0,rectangle,94.40001285,35.19996967,1,0,0,0.800011456,5.599993646,1,0,0,1,17,177,54,1,,response1disk_3,TRUE,6,6,"[14,10,247,123,178,42,131,260,0,69,227,17,255,85,210,204,124,259,119,16]",3.7807,rectangle
,,,,,,,,,,,,,FF,,,,,,,,1.582,,,,,,,,,,,,,,,,,,,,,,60ff943039dd3022ee2d8d10,61036f13af6d8f4cd65ba747,2021-07-29_20h19.55.227,Simcolourproject_2stim_asymm_v5,2020.2.10,Win32,60,61025ae37ef11b136ea224fe,,,,,,,,,991,-72.79998964,-52.00000721,1,0,0,response5disk,,2,-15.99998879,-13.60000664,1,0,0,rectangle,-15.99998879,-13.60000664,1,0,0,-15.99998879,-13.60000664,1,0,0,1,18,178,67,1,,,,,,,,
,,,,,,,,,,,,,FF,,,,,,,,2.4802,,,,,,,,,,,,,,,,,,,,,,60ff943039dd3022ee2d8d10,61036f13af6d8f4cd65ba747,2021-07-29_20h19.55.227,Simcolourproject_2stim_asymm_v5,2020.2.10,Win32,60,61025ae37ef11b136ea224fe,,,,,,,,,456,-73.59998965,40.79999417,1,0,0,response7disk,,1,-14.39993994,-2.400006473,1,0,0,rectangle,-14.39993994,-2.400006473,1,0,0,-14.39993994,-2.400006473,1,0,0,1,19,179,37,1,,,,,,,,
,,,,,,,,,,,,,FF,,,,,,,,1.5477,,,,,,,,,,,,,,,,,,,,,,60ff943039dd3022ee2d8d10,61036f13af6d8f4cd65ba747,2021-07-29_20h19.55.227,Simcolourproject_2stim_asymm_v5,2020.2.10,Win32,60,61025ae37ef11b136ea224fe,,,,,,,,,4110,104.000013,-22.40000677,1,0,0,response3disk,,5,-13.59998876,2.399993598,1,0,0,rectangle,-13.59998876,2.399993598,1,0,0,-13.59998876,2.399993598,1,0,0,1,20,180,130,1,,,,,,,,
,,,,,,,,,,,,,FF,,,,,,,,1.3658,,,,,,,,,,,,,,,,,,,,,,60ff943039dd3022ee2d8d10,61036f13af6d8f4cd65ba747,2021-07-29_20h19.55.227,Simcolourproject_2stim_asymm_v5,2020.2.10,Win32,60,61025ae37ef11b136ea224fe,,,,,,,,,1419,61.60001236,-84.00000769,1,0,0,response3disk,,4,-10.39993988,-4.800006509,1,0,0,rectangle,-10.39993988,-4.800006509,1,0,0,-10.39993988,-4.800006509,1,0,0,1,21,181,88,1,,,,,,,,
,,,,,,,,,,,,,FF,,,,,,,,1.4318,,,,,,,,,,,,,,,,,,,,,,60ff943039dd3022ee2d8d10,61036f13af6d8f4cd65ba747,2021-07-29_20h19.55.227,Simcolourproject_2stim_asymm_v5,2020.2.10,Win32,60,61025ae37ef11b136ea224fe,,,,,,,,,3570,124.0000133,-32.80000693,1,0,0,response3disk,,5,11.20001161,4.799993634,1,0,0,rectangle,11.20001161,4.799993634,1,0,0,11.20001161,4.799993634,1,0,0,1,22,182,44,1,,,,,,,,
,,,,,,,,,,,,,FF,,,,,,,,0.7984,,,,,,,,,,,,,,,,,,,,,,60ff943039dd3022ee2d8d10,61036f13af6d8f4cd65ba747,2021-07-29_20h19.55.227,Simcolourproject_2stim_asymm_v5,2020.2.10,Win32,60,61025ae37ef11b136ea224fe,,,,,,,,,1404,114.4000131,63.99999452,1,0,0,response1disk,,6,-1.59998858,-6.4373E-06,1,0,0,rectangle,-1.59998858,-6.4373E-06,1,0,0,-1.59998858,-6.4373E-06,1,0,0,1,23,183,13,1,,,,,,,,
,,,,,,,,,,,,,FF,,,,,,,,0.6167,,,,,,,,,,,,,,,,,,,,,,60ff943039dd3022ee2d8d10,61036f13af6d8f4cd65ba747,2021-07-29_20h19.55.227,Simcolourproject_2stim_asymm_v5,2020.2.10,Win32,60,61025ae37ef11b136ea224fe,,,,,,,,,62,73.60001254,39.99999416,1,0,0,response1disk,,6,7.200011551,11.19999373,1,0,0,rectangle,7.200011551,11.19999373,1,0,0,7.200011551,11.19999373,1,0,0,1,24,184,159,1,,,,,,,,
,,,,,,,,,,,,,FF,,,,,,,,0.8649,,,,,,,,,,,,,,,,,,,,,,60ff943039dd3022ee2d8d10,61036f13af6d8f4cd65ba747,2021-07-29_20h19.55.227,Simcolourproject_2stim_asymm_v5,2020.2.10,Win32,60,61025ae37ef11b136ea224fe,,,,,,,,,672,86.40001273,-41.60000706,1,0,0,response3disk,,5,18.40001172,-9.60000658,1,0,0,rectangle,18.40001172,-9.60000658,1,0,0,18.40001172,-9.60000658,1,0,0,1,25,185,138,1,,,,,,,,
,,,,,,,,,,,,,FF,,,,,,,,0.9665,,,,,,,,,,,,,,,,,,,,,,60ff943039dd3022ee2d8d10,61036f13af6d8f4cd65ba747,2021-07-29_20h19.55.227,Simcolourproject_2stim_asymm_v5,2020.2.10,Win32,60,61025ae37ef11b136ea224fe,,,,,,,,,706,46.40001214,-64.00000739,1,0,0,response3disk,,4,-3.999988616,-2.400006473,1,0,0,rectangle,-3.999988616,-2.400006473,1,0,0,-3.999988616,-2.400006473,1,0,0,1,26,186,75,1,,,,,,,,
,,,,,,,,,,,,,FF,,,,,,,,0.8481,,,,,,,,,,,,,,,,,,,,,,60ff943039dd3022ee2d8d10,61036f13af6d8f4cd65ba747,2021-07-29_20h19.55.227,Simcolourproject_2stim_asymm_v5,2020.2.10,Win32,60,61025ae37ef11b136ea224fe,,,,,,,,,3312,67.20001245,61.59999448,1,0,0,response1disk,,6,13.60006047,15.9999938,1,0,0,rectangle,13.60006047,15.9999938,1,0,0,13.60006047,15.9999938,1,0,0,1,27,187,21,1,,,,,,,,
,,,,,,,,,,,,,FF,,,,,,,,1.8987,,,,,,,,,,,,,,,,,,,,,,60ff943039dd3022ee2d8d10,61036f13af6d8f4cd65ba747,2021-07-29_20h19.55.227,Simcolourproject_2stim_asymm_v5,2020.2.10,Win32,60,61025ae37ef11b136ea224fe,,,,,,,,,181,107.200013,-32.80000693,1,0,0,response3disk,,5,-7.199988663,-1.600006461,1,0,0,rectangle,-7.199988663,-1.600006461,1,0,0,-7.199988663,-1.600006461,1,0,0,1,28,188,64,1,,,,,,,,
,,,,,,,,,,,,,FF,,,,,,,,1.7654,,,,,,,,,,,,,,,,,,,,,,60ff943039dd3022ee2d8d10,61036f13af6d8f4cd65ba747,2021-07-29_20h19.55.227,Simcolourproject_2stim_asymm_v5,2020.2.10,Win32,60,61025ae37ef11b136ea224fe,,,,,,,,,1991,121.6000133,-26.40000683,1,0,0,response3disk,,5,22.40001178,-7.200006545,1,0,0,rectangle,22.40001178,-7.200006545,1,0,0,22.40001178,-7.200006545,1,0,0,1,29,189,80,1,,,,,,,,
,,,,,,,,,,,,,FF,,,,,,,,0.8492,,,,,,,,,,,,,,,,,,,,,,60ff943039dd3022ee2d8d10,61036f13af6d8f4cd65ba747,2021-07-29_20h19.55.227,Simcolourproject_2stim_asymm_v5,2020.2.10,Win32,60,61025ae37ef11b136ea224fe,,,,,,,,,1604,-76.7999897,-34.40000695,1,0,0,response5disk,,2,-8.799988687,-8.000006557,1,0,0,rectangle,-8.799988687,-8.000006557,1,0,0,-8.799988687,-8.000006557,1,0,0,1,30,190,3,1,,,,,,,,
,,,,,,,,,,,,,FF,,,,,,,,4.8626,,,,,,,,,,,,,,,,,,,,,,60ff943039dd3022ee2d8d10,61036f13af6d8f4cd65ba747,2021-07-29_20h19.55.227,Simcolourproject_2stim_asymm_v5,2020.2.10,Win32,60,61025ae37ef11b136ea224fe,,,,,,,,,3891,36.80001199,-81.60005648,1,0,0,response3disk,,4,-1.59998858,-6.400006533,1,0,0,rectangle,-1.59998858,-6.400006533,1,0,0,-1.59998858,-6.400006533,1,0,0,1,31,191,106,1,,,,,,,,
,,,,,,,,,,,,,FF,,,,,,,,0.932,,,,,,,,,,,,,,,,,,,,,,60ff943039dd3022ee2d8d10,61036f13af6d8f4cd65ba747,2021-07-29_20h19.55.227,Simcolourproject_2stim_asymm_v5,2020.2.10,Win32,60,61025ae37ef11b136ea224fe,,,,,,,,,3140,-83.99998981,-32.00000691,1,0,0,response5disk,,2,9.600060415,-9.60000658,1,0,0,rectangle,9.600060415,-9.60000658,1,0,0,9.600060415,-9.60000658,1,0,0,1,32,192,115,1,,,,,,,,
,,,,,,,,,,,,,FF,,,,,,,,1.3822,,,,,,,,,,,,,,,,,,,,,,60ff943039dd3022ee2d8d10,61036f13af6d8f4cd65ba747,2021-07-29_20h19.55.227,Simcolourproject_2stim_asymm_v5,2020.2.10,Win32,60,61025ae37ef11b136ea224fe,,,,,,,,,3465,56.80001229,-92.80000782,1,0,0,response3disk,,4,13.60006047,-12.00000662,1,0,0,rectangle,13.60006047,-12.00000662,1,0,0,13.60006047,-12.00000662,1,0,0,1,33,193,15,1,,,,,,,,
,,,,,,,,,,,,,FF,,,,,,,,1.0154,,,,,,,,,,,,,,,,,,,,,,60ff943039dd3022ee2d8d10,61036f13af6d8f4cd65ba747,2021-07-29_20h19.55.227,Simcolourproject_2stim_asymm_v5,2020.2.10,Win32,60,61025ae37ef11b136ea224fe,,,,,,,,,423,90.40001279,-52.00000721,1,0,0,response3disk,,5,16.80001169,1.599993587,1,0,0,rectangle,16.80001169,1.599993587,1,0,0,16.80001169,1.599993587,1,0,0,1,34,194,2,1,,,,,,,,
,,,,,,,,,,,,,FF,,,,,,,,0.9493,,,,,,,,,,,,,,,,,,,,,,60ff943039dd3022ee2d8d10,61036f13af6d8f4cd65ba747,2021-07-29_20h19.55.227,Simcolourproject_2stim_asymm_v5,2020.2.10,Win32,60,61025ae37ef11b136ea224fe,,,,,,,,,751,119.2000132,-40.00000703,1,0,0,response3disk,,5,4.800011516,-4.000006497,1,0,0,rectangle,4.800011516,-4.000006497,1,0,0,4.800011516,-4.000006497,1,0,0,1,35,195,121,1,,,,,,,,
,,,,,,,,,,,,,FF,,,,,,,,0.8324,,,,,,,,,,,,,,,,,,,,,,60ff943039dd3022ee2d8d10,61036f13af6d8f4cd65ba747,2021-07-29_20h19.55.227,Simcolourproject_2stim_asymm_v5,2020.2.10,Win32,60,61025ae37ef11b136ea224fe,,,,,,,,,2889,-105.5999901,-49.60000718,1,0,0,response5disk,,2,-4.799988627,-4.800006509,1,0,0,rectangle,-4.799988627,-4.800006509,1,0,0,-4.799988627,-4.800006509,1,0,0,1,36,196,36,1,,,,,,,,
,,,,,,,,,,,,,FF,,,,,,,,1.2988,,,,,,,,,,,,,,,,,,,,,,60ff943039dd3022ee2d8d10,61036f13af6d8f4cd65ba747,2021-07-29_20h19.55.227,Simcolourproject_2stim_asymm_v5,2020.2.10,Win32,60,61025ae37ef11b136ea224fe,,,,,,,,,3015,104.800013,-30.40000689,1,0,0,response3disk,,5,-3.999988616,7.999993682,1,0,0,rectangle,-3.999988616,7.999993682,1,0,0,-3.999988616,7.999993682,1,0,0,1,37,197,96,1,,,,,,,,
,,,,,,,,,,,,,FF,,,,,,,,3.0632,,,,,,,,,,,,,,,,,,,,,,60ff943039dd3022ee2d8d10,61036f13af6d8f4cd65ba747,2021-07-29_20h19.55.227,Simcolourproject_2stim_asymm_v5,2020.2.10,Win32,60,61025ae37ef11b136ea224fe,,,,,,,,,515,-70.39994078,-93.60005666,1,0,0,response5disk,,3,-9.599988699,-15.20000666,1,0,0,rectangle,-9.599988699,-15.20000666,1,0,0,-9.599988699,-15.20000666,1,0,0,1,38,198,148,1,,,,,,,,
,,,,,,,,,,,,,FF,,,,,,,,1.2989,,,,,,,,,,,,,,,,,,,,,,60ff943039dd3022ee2d8d10,61036f13af6d8f4cd65ba747,2021-07-29_20h19.55.227,Simcolourproject_2stim_asymm_v5,2020.2.10,Win32,60,61025ae37ef11b136ea224fe,,,,,,,,,3742,-103.9999901,79.99999475,1,0,0,response7disk,,1,-11.99998873,-0.800006449,1,0,0,rectangle,-11.99998873,-0.800006449,1,0,0,-11.99998873,-0.800006449,1,0,0,1,39,199,90,1,,,,,,,,
,,,,,,,,,,,,,FF,,,,,,,,0.9151,,,,,,,,,,,,,,,,,,,,,,60ff943039dd3022ee2d8d10,61036f13af6d8f4cd65ba747,2021-07-29_20h19.55.227,Simcolourproject_2stim_asymm_v5,2020.2.10,Win32,60,61025ae37ef11b136ea224fe,,,,,,,,,2132,88.80001277,-41.60000706,1,0,0,response3disk,,5,19.20001173,-3.200006485,1,0,0,rectangle,19.20001173,-3.200006485,1,0,0,19.20001173,-3.200006485,1,0,0,1,40,200,143,1,,,,,,,,
,,,,,,,,,,,,,FF,,,,,,,,1.2994,,,,,,,,,,,,,,,,,,,,,,60ff943039dd3022ee2d8d10,61036f13af6d8f4cd65ba747,2021-07-29_20h19.55.227,Simcolourproject_2stim_asymm_v5,2020.2.10,Win32,60,61025ae37ef11b136ea224fe,,,,,,,,,2722,-69.59998959,-43.20000708,1,0,0,response5disk,,2,-1.59998858,-6.4373E-06,1,0,0,rectangle,-1.59998858,-6.4373E-06,1,0,0,-1.59998858,-6.4373E-06,1,0,0,1,41,201,0,1,,,,,,,,
,,,,,,,,,,,,,FF,,,,,,,,0.7323,,,,,,,,,,,,,,,,,,,,,,60ff943039dd3022ee2d8d10,61036f13af6d8f4cd65ba747,2021-07-29_20h19.55.227,Simcolourproject_2stim_asymm_v5,2020.2.10,Win32,60,61025ae37ef11b136ea224fe,,,,,,,,,2606,-79.99998975,-36.00000697,1,0,0,response5disk,,2,-1.59998858,-5.600006521,1,0,0,rectangle,-1.59998858,-5.600006521,1,0,0,-1.59998858,-5.600006521,1,0,0,1,42,202,92,1,,,,,,,,
,,,,,,,,,,,,,FF,,,,,,,,0.9498,,,,,,,,,,,,,,,,,,,,,,60ff943039dd3022ee2d8d10,61036f13af6d8f4cd65ba747,2021-07-29_20h19.55.227,Simcolourproject_2stim_asymm_v5,2020.2.10,Win32,60,61025ae37ef11b136ea224fe,,,,,,,,,2327,98.40001291,-34.40000695,1,0,0,response3disk,,5,4.000011504,-8.000006557,1,0,0,rectangle,101.600013,53.59999436,1,0,0,-3.999988616,-6.4373E-06,1,0,0,1,43,203,22,1,,response1disk_3,TRUE,6,6,"[14,10,247,123,178,42,131,260,0,69,227,17,255,85,210,204,124,259,119,16]",2.9812,rectangle
,,,,,,,,,,,,,FF,,,,,,,,1.0988,,,,,,,,,,,,,,,,,,,,,,60ff943039dd3022ee2d8d10,61036f13af6d8f4cd65ba747,2021-07-29_20h19.55.227,Simcolourproject_2stim_asymm_v5,2020.2.10,Win32,60,61025ae37ef11b136ea224fe,,,,,,,,,1255,31.20001191,-97.60005672,1,0,0,response3disk,,4,-2.399939764,1.599993587,1,0,0,rectangle,-2.399939764,1.599993587,1,0,0,-2.399939764,1.599993587,1,0,0,1,44,204,123,1,,,,,,,,
,,,,,,,,,,,,,FF,,,,,,,,1.2326,,,,,,,,,,,,,,,,,,,,,,60ff943039dd3022ee2d8d10,61036f13af6d8f4cd65ba747,2021-07-29_20h19.55.227,Simcolourproject_2stim_asymm_v5,2020.2.10,Win32,60,61025ae37ef11b136ea224fe,,,,,,,,,286,-91.99998993,-43.20000708,1,0,0,response5disk,,2,0.800011456,5.599993646,1,0,0,rectangle,0.800011456,5.599993646,1,0,0,0.800011456,5.599993646,1,0,0,1,45,205,50,1,,,,,,,,
,,,,,,,,,,,,,FF,,,,,,,,0.7325,,,,,,,,,,,,,,,,,,,,,,60ff943039dd3022ee2d8d10,61036f13af6d8f4cd65ba747,2021-07-29_20h19.55.227,Simcolourproject_2stim_asymm_v5,2020.2.10,Win32,60,61025ae37ef11b136ea224fe,,,,,,,,,4108,-85.59998983,-36.00000697,1,0,0,response5disk,,2,8.800011575,11.99999374,1,0,0,rectangle,8.800011575,11.99999374,1,0,0,8.800011575,11.99999374,1,0,0,1,46,206,69,1,,,,,,,,
,,,,,,,,,,,,,FF,,,,,,,,1.1826,,,,,,,,,,,,,,,,,,,,,,60ff943039dd3022ee2d8d10,61036f13af6d8f4cd65ba747,2021-07-29_20h19.55.227,Simcolourproject_2stim_asymm_v5,2020.2.10,Win32,60,61025ae37ef11b136ea224fe,,,,,,,,,1770,-27.19998896,-80.00000763,1,0,0,response5disk,,3,-6.399939823,-11.2000066,1,0,0,rectangle,-6.399939823,-11.2000066,1,0,0,-6.399939823,-11.2000066,1,0,0,1,47,207,135,1,,,,,,,,
,,,,,,,,,,,,,FF,,,,,,,,1.1148,,,,,,,,,,,,,,,,,,,,,,60ff943039dd3022ee2d8d10,61036f13af6d8f4cd65ba747,2021-07-29_20h19.55.227,Simcolourproject_2stim_asymm_v5,2020.2.10,Win32,60,61025ae37ef11b136ea224fe,,,,,,,,,849,116.0000132,-67.20000744,1,0,0,response3disk,,5,12.00001162,-1.600006461,1,0,0,rectangle,12.00001162,-1.600006461,1,0,0,12.00001162,-1.600006461,1,0,0,1,48,208,32,1,,,,,,,,
,,,,,,,,,,,,,FF,,,,,,,,0.8492,,,,,,,,,,,,,,,,,,,,,,60ff943039dd3022ee2d8d10,61036f13af6d8f4cd65ba747,2021-07-29_20h19.55.227,Simcolourproject_2stim_asymm_v5,2020.2.10,Win32,60,61025ae37ef11b136ea224fe,,,,,,,,,2514,92.00001281,16.79999381,1,0,0,response1disk,,6,8.000011563,-5.600006521,1,0,0,rectangle,-39.19998914,90.39999491,1,0,0,-8.799988687,3.999993622,1,0,0,1,49,209,126,1,,response7disk_3,TRUE,0,0,"[14,10,247,123,178,42,131,260,0,69,227,17,255,85,210,204,124,259,119,16]",1.9142,rectangle
,,,,,,,,,,,,,FF,,,,,,,,1.1318,,,,,,,,,,,,,,,,,,,,,,60ff943039dd3022ee2d8d10,61036f13af6d8f4cd65ba747,2021-07-29_20h19.55.227,Simcolourproject_2stim_asymm_v5,2020.2.10,Win32,60,61025ae37ef11b136ea224fe,,,,,,,,,3401,119.2000132,-43.20000708,1,0,0,response3disk,,5,-5.599988639,-9.60000658,1,0,0,rectangle,-5.599988639,-9.60000658,1,0,0,-5.599988639,-9.60000658,1,0,0,1,50,210,62,1,,,,,,,,
,,,,,,,,,,,,,FF,,,,,,,,1.4814,,,,,,,,,,,,,,,,,,,,,,60ff943039dd3022ee2d8d10,61036f13af6d8f4cd65ba747,2021-07-29_20h19.55.227,Simcolourproject_2stim_asymm_v5,2020.2.10,Win32,60,61025ae37ef11b136ea224fe,,,,,,,,,642,20.00001174,-96.80000788,1,0,0,response3disk,,4,1.14441E-05,-10.40000659,1,0,0,rectangle,1.14441E-05,-10.40000659,1,0,0,1.14441E-05,-10.40000659,1,0,0,1,51,211,86,1,,,,,,,,
,,,,,,,,,,,,,FF,,,,,,,,1.2147,,,,,,,,,,,,,,,,,,,,,,60ff943039dd3022ee2d8d10,61036f13af6d8f4cd65ba747,2021-07-29_20h19.55.227,Simcolourproject_2stim_asymm_v5,2020.2.10,Win32,60,61025ae37ef11b136ea224fe,,,,,,,,,1450,-73.59998965,-48.80000716,1,0,0,response5disk,,2,-18.39994,-5.600006521,1,0,0,rectangle,-18.39994,-5.600006521,1,0,0,-18.39994,-5.600006521,1,0,0,1,52,212,20,1,,,,,,,,
,,,,,,,,,,,,,FF,,,,,,,,1.1162,,,,,,,,,,,,,,,,,,,,,,60ff943039dd3022ee2d8d10,61036f13af6d8f4cd65ba747,2021-07-29_20h19.55.227,Simcolourproject_2stim_asymm_v5,2020.2.10,Win32,60,61025ae37ef11b136ea224fe,,,,,,,,,477,-46.39994042,-80.80000764,1,0,0,response5disk,,3,-5.599988639,8.799993694,1,0,0,rectangle,-5.599988639,8.799993694,1,0,0,-5.599988639,8.799993694,1,0,0,1,53,213,30,1,,,,,,,,
,,,,,,,,,,,,,FF,,,,,,,,1.7981,,,,,,,,,,,,,,,,,,,,,,60ff943039dd3022ee2d8d10,61036f13af6d8f4cd65ba747,2021-07-29_20h19.55.227,Simcolourproject_2stim_asymm_v5,2020.2.10,Win32,60,61025ae37ef11b136ea224fe,,,,,,,,,3466,68.80001247,-65.60000741,1,0,0,response3disk,,5,8.800011575,-12.80000663,1,0,0,rectangle,8.800011575,-12.80000663,1,0,0,8.800011575,-12.80000663,1,0,0,1,54,214,4,1,,,,,,,,
,,,,,,,,,,,,,FF,,,,,,,,0.8165,,,,,,,,,,,,,,,,,,,,,,60ff943039dd3022ee2d8d10,61036f13af6d8f4cd65ba747,2021-07-29_20h19.55.227,Simcolourproject_2stim_asymm_v5,2020.2.10,Win32,60,61025ae37ef11b136ea224fe,,,,,,,,,1921,44.0000121,-69.60000747,1,0,0,response3disk,,4,-16.79998881,11.19999373,1,0,0,rectangle,-16.79998881,11.19999373,1,0,0,-16.79998881,11.19999373,1,0,0,1,55,215,140,1,,,,,,,,
,,,,,,,,,,,,,FF,,,,,,,,1.7817,,,,,,,,,,,,,,,,,,,,,,60ff943039dd3022ee2d8d10,61036f13af6d8f4cd65ba747,2021-07-29_20h19.55.227,Simcolourproject_2stim_asymm_v5,2020.2.10,Win32,60,61025ae37ef11b136ea224fe,,,,,,,,,1448,-37.59998912,-48.80000716,1,0,0,response5disk,,3,-23.1999889,3.19999361,1,0,0,rectangle,-23.1999889,3.19999361,1,0,0,-23.1999889,3.19999361,1,0,0,1,56,216,93,1,,,,,,,,
,,,,,,,,,,,,,FF,,,,,,,,1.0486,,,,,,,,,,,,,,,,,,,,,,60ff943039dd3022ee2d8d10,61036f13af6d8f4cd65ba747,2021-07-29_20h19.55.227,Simcolourproject_2stim_asymm_v5,2020.2.10,Win32,60,61025ae37ef11b136ea224fe,,,,,,,,,2124,40.80001205,-57.6000073,1,0,0,response3disk,,4,0.800011456,-10.40000659,1,0,0,rectangle,0.800011456,-10.40000659,1,0,0,0.800011456,-10.40000659,1,0,0,1,57,217,98,1,,,,,,,,
,,,,,,,,,,,,,FF,,,,,,,,1.5487,,,,,,,,,,,,,,,,,,,,,,60ff943039dd3022ee2d8d10,61036f13af6d8f4cd65ba747,2021-07-29_20h19.55.227,Simcolourproject_2stim_asymm_v5,2020.2.10,Win32,60,61025ae37ef11b136ea224fe,,,,,,,,,622,-61.59998947,-56.80000728,1,0,0,response5disk,,2,-7.199988663,-13.60000664,1,0,0,rectangle,-7.199988663,-13.60000664,1,0,0,-7.199988663,-13.60000664,1,0,0,1,58,218,41,1,,,,,,,,
,,,,,,,,,,,,,FF,,,,,,,,1.6166,,,,,,,,,,,,,,,,,,,,,,60ff943039dd3022ee2d8d10,61036f13af6d8f4cd65ba747,2021-07-29_20h19.55.227,Simcolourproject_2stim_asymm_v5,2020.2.10,Win32,60,61025ae37ef11b136ea224fe,,,,,,,,,2020,24.0000118,-46.40000713,1,0,0,response3disk,,4,3.200011492,-15.20000666,1,0,0,rectangle,3.200011492,-15.20000666,1,0,0,3.200011492,-15.20000666,1,0,0,1,59,219,105,1,,,,,,,,
,,,,,,,,,,,,,FF,,,,,,,,1.0986,,,,,,,,,,,,,,,,,,,,,,60ff943039dd3022ee2d8d10,61036f13af6d8f4cd65ba747,2021-07-29_20h19.55.227,Simcolourproject_2stim_asymm_v5,2020.2.10,Win32,60,61025ae37ef11b136ea224fe,,,,,,,,,2088,37.60006083,-53.60000724,1,0,0,response3disk,,4,-23.1999889,1.599993587,1,0,0,rectangle,-23.1999889,1.599993587,1,0,0,-23.1999889,1.599993587,1,0,0,1,60,220,82,1,,,,,,,,
,,,,,,,,,,,,,FF,,,,,,,,0.9989,,,,,,,,,,,,,,,,,,,,,,60ff943039dd3022ee2d8d10,61036f13af6d8f4cd65ba747,2021-07-29_20h19.55.227,Simcolourproject_2stim_asymm_v5,2020.2.10,Win32,60,61025ae37ef11b136ea224fe,,,,,,,,,702,-66.39994072,-64.00000739,1,0,0,response5disk,,2,-17.59998882,-12.00000662,1,0,0,rectangle,-17.59998882,-12.00000662,1,0,0,-17.59998882,-12.00000662,1,0,0,1,61,221,155,1,,,,,,,,
,,,,,,,,,,,,,FF,,,,,,,,1.2517,,,,,,,,,,,,,,,,,,,,,,60ff943039dd3022ee2d8d10,61036f13af6d8f4cd65ba747,2021-07-29_20h19.55.227,Simcolourproject_2stim_asymm_v5,2020.2.10,Win32,60,61025ae37ef11b136ea224fe,,,,,,,,,4080,92.80001283,-28.80000687,1,0,0,response3disk,,5,12.80001163,-8.000006557,1,0,0,rectangle,12.80001163,-8.000006557,1,0,0,12.80001163,-8.000006557,1,0,0,1,62,222,40,1,,,,,,,,
,,,,,,,,,,,,,FF,,,,,,,,0.8153,,,,,,,,,,,,,,,,,,,,,,60ff943039dd3022ee2d8d10,61036f13af6d8f4cd65ba747,2021-07-29_20h19.55.227,Simcolourproject_2stim_asymm_v5,2020.2.10,Win32,60,61025ae37ef11b136ea224fe,,,,,,,,,3767,57.6000123,-74.40000755,1,0,0,response3disk,,4,4.800011516,-0.800006449,1,0,0,rectangle,4.800011516,-0.800006449,1,0,0,4.800011516,-0.800006449,1,0,0,1,63,223,33,1,,,,,,,,
,,,,,,,,,,,,,FF,,,,,,,,0.816,,,,,,,,,,,,,,,,,,,,,,60ff943039dd3022ee2d8d10,61036f13af6d8f4cd65ba747,2021-07-29_20h19.55.227,Simcolourproject_2stim_asymm_v5,2020.2.10,Win32,60,61025ae37ef11b136ea224fe,,,,,,,,,3777,-67.19998956,-24.80000681,1,0,0,response5disk,,2,14.40001166,6.399993658,1,0,0,rectangle,14.40001166,6.399993658,1,0,0,14.40001166,6.399993658,1,0,0,1,64,224,43,1,,,,,,,,
,,,,,,,,,,,,,FF,,,,,,,,0.9321,,,,,,,,,,,,,,,,,,,,,,60ff943039dd3022ee2d8d10,61036f13af6d8f4cd65ba747,2021-07-29_20h19.55.227,Simcolourproject_2stim_asymm_v5,2020.2.10,Win32,60,61025ae37ef11b136ea224fe,,,,,,,,,3805,52.80001223,-69.60000747,1,0,0,response3disk,,4,-7.999988675,3.19999361,1,0,0,rectangle,-7.999988675,3.19999361,1,0,0,-7.999988675,3.19999361,1,0,0,1,65,225,27,1,,,,,,,,
,,,,,,,,,,,,,FF,,,,,,,,0.9495,,,,,,,,,,,,,,,,,,,,,,60ff943039dd3022ee2d8d10,61036f13af6d8f4cd65ba747,2021-07-29_20h19.55.227,Simcolourproject_2stim_asymm_v5,2020.2.10,Win32,60,61025ae37ef11b136ea224fe,,,,,,,,,1275,-47.19998926,-63.20000738,1,0,0,response5disk,,3,-2.399939764,0.799993575,1,0,0,rectangle,-78.3999409,43.19996979,1,0,0,-3.999988616,0.799993575,1,0,0,1,66,226,6,1,,response7disk_3,TRUE,1,1,"[14,10,247,123,178,42,131,260,0,69,227,17,255,85,210,204,124,259,119,16]",2.2307,rectangle
,,,,,,,,,,,,,FF,,,,,,,,0.7325,,,,,,,,,,,,,,,,,,,,,,60ff943039dd3022ee2d8d10,61036f13af6d8f4cd65ba747,2021-07-29_20h19.55.227,Simcolourproject_2stim_asymm_v5,2020.2.10,Win32,60,61025ae37ef11b136ea224fe,,,,,,,,,219,44.0000121,-79.20000762,1,0,0,response3disk,,4,7.200011551,11.19999373,1,0,0,rectangle,7.200011551,11.19999373,1,0,0,7.200011551,11.19999373,1,0,0,1,67,227,87,1,,,,,,,,
,,,,,,,,,,,,,FF,,,,,,,,0.8826,,,,,,,,,,,,,,,,,,,,,,60ff943039dd3022ee2d8d10,61036f13af6d8f4cd65ba747,2021-07-29_20h19.55.227,Simcolourproject_2stim_asymm_v5,2020.2.10,Win32,60,61025ae37ef11b136ea224fe,,,,,,,,,638,-55.19998938,-25.60000682,1,0,0,response5disk,,2,27.20001185,14.39999378,1,0,0,rectangle,27.20001185,14.39999378,1,0,0,27.20001185,14.39999378,1,0,0,1,68,228,100,1,,,,,,,,
,,,,,,,,,,,,,FF,,,,,,,,0.866,,,,,,,,,,,,,,,,,,,,,,60ff943039dd3022ee2d8d10,61036f13af6d8f4cd65ba747,2021-07-29_20h19.55.227,Simcolourproject_2stim_asymm_v5,2020.2.10,Win32,60,61025ae37ef11b136ea224fe,,,,,,,,,3801,73.60001254,43.19996979,1,0,0,response1disk,,6,14.40001166,-5.600006521,1,0,0,rectangle,14.40001166,-5.600006521,1,0,0,14.40001166,-5.600006521,1,0,0,1,69,229,46,1,,,,,,,,
,,,,,,,,,,,,,FF,,,,,,,,1.2653,,,,,,,,,,,,,,,,,,,,,,60ff943039dd3022ee2d8d10,61036f13af6d8f4cd65ba747,2021-07-29_20h19.55.227,Simcolourproject_2stim_asymm_v5,2020.2.10,Win32,60,61025ae37ef11b136ea224fe,,,,,,,,,2715,-28.79998899,-65.60000741,1,0,0,response5disk,,3,-13.59998876,1.599993587,1,0,0,rectangle,-13.59998876,1.599993587,1,0,0,-13.59998876,1.599993587,1,0,0,1,70,230,156,1,,,,,,,,
,,,,,,,,,,,,,FF,,,,,,,,1.1144,,,,,,,,,,,,,,,,,,,,,,60ff943039dd3022ee2d8d10,61036f13af6d8f4cd65ba747,2021-07-29_20h19.55.227,Simcolourproject_2stim_asymm_v5,2020.2.10,Win32,60,61025ae37ef11b136ea224fe,,,,,,,,,3574,44.0000121,-68.80000746,1,0,0,response3disk,,4,-9.599988699,-8.000006557,1,0,0,rectangle,-9.599988699,-8.000006557,1,0,0,-9.599988699,-8.000006557,1,0,0,1,71,231,104,1,,,,,,,,
,,,,,,,,,,,,,FF,,,,,,,,1.099,,,,,,,,,,,,,,,,,,,,,,60ff943039dd3022ee2d8d10,61036f13af6d8f4cd65ba747,2021-07-29_20h19.55.227,Simcolourproject_2stim_asymm_v5,2020.2.10,Win32,60,61025ae37ef11b136ea224fe,,,,,,,,,3438,-18.39994,-84.00000769,1,0,0,response5disk,,3,-9.599988699,3.19999361,1,0,0,rectangle,-9.599988699,3.19999361,1,0,0,-9.599988699,3.19999361,1,0,0,1,72,232,35,1,,,,,,,,
,,,,,,,,,,,,,FF,,,,,,,,0.7498,,,,,,,,,,,,,,,,,,,,,,60ff943039dd3022ee2d8d10,61036f13af6d8f4cd65ba747,2021-07-29_20h19.55.227,Simcolourproject_2stim_asymm_v5,2020.2.10,Win32,60,61025ae37ef11b136ea224fe,,,,,,,,,1442,-46.39994042,-100.0000079,1,0,0,response5disk,,3,-9.599988699,8.799993694,1,0,0,rectangle,-9.599988699,8.799993694,1,0,0,-9.599988699,8.799993694,1,0,0,1,73,233,42,1,,,,,,,,
,,,,,,,,,,,,,FF,,,,,,,,1.6979,,,,,,,,,,,,,,,,,,,,,,60ff943039dd3022ee2d8d10,61036f13af6d8f4cd65ba747,2021-07-29_20h19.55.227,Simcolourproject_2stim_asymm_v5,2020.2.10,Win32,60,61025ae37ef11b136ea224fe,,,,,,,,,3455,113.6000131,-66.40000743,1,0,0,response3disk,,5,4.800011516,-8.800006568,1,0,0,rectangle,4.800011516,-8.800006568,1,0,0,4.800011516,-8.800006568,1,0,0,1,74,234,117,1,,,,,,,,
,,,,,,,,,,,,,FF,,,,,,,,1.6641,,,,,,,,,,,,,,,,,,,,,,60ff943039dd3022ee2d8d10,61036f13af6d8f4cd65ba747,2021-07-29_20h19.55.227,Simcolourproject_2stim_asymm_v5,2020.2.10,Win32,60,61025ae37ef11b136ea224fe,,,,,,,,,1924,56.00001228,-37.600007,1,0,0,response3disk,,5,-10.39993988,5.599993646,1,0,0,rectangle,-10.39993988,5.599993646,1,0,0,-10.39993988,5.599993646,1,0,0,1,75,235,53,1,,,,,,,,
,,,,,,,,,,,,,FF,,,,,,,,0.9993,,,,,,,,,,,,,,,,,,,,,,60ff943039dd3022ee2d8d10,61036f13af6d8f4cd65ba747,2021-07-29_20h19.55.227,Simcolourproject_2stim_asymm_v5,2020.2.10,Win32,60,61025ae37ef11b136ea224fe,,,,,,,,,2201,67.20001245,48.79999429,1,0,0,response1disk,,6,10.4000116,2.399993598,1,0,0,rectangle,10.4000116,2.399993598,1,0,0,10.4000116,2.399993598,1,0,0,1,76,236,10,1,,,,,,,,
,,,,,,,,,,,,,FF,,,,,,,,0.8991,,,,,,,,,,,,,,,,,,,,,,60ff943039dd3022ee2d8d10,61036f13af6d8f4cd65ba747,2021-07-29_20h19.55.227,Simcolourproject_2stim_asymm_v5,2020.2.10,Win32,60,61025ae37ef11b136ea224fe,,,,,,,,,3541,38.40001202,72.79999465,1,0,0,response1disk,,7,-2.399939764,-6.400006533,1,0,0,rectangle,-2.399939764,-6.400006533,1,0,0,-2.399939764,-6.400006533,1,0,0,1,77,237,68,1,,,,,,,,
,,,,,,,,,,,,,FF,,,,,,,,1.1826,,,,,,,,,,,,,,,,,,,,,,60ff943039dd3022ee2d8d10,61036f13af6d8f4cd65ba747,2021-07-29_20h19.55.227,Simcolourproject_2stim_asymm_v5,2020.2.10,Win32,60,61025ae37ef11b136ea224fe,,,,,,,,,395,79.20001262,-54.40000725,1,0,0,response3disk,,5,1.14441E-05,7.999993682,1,0,0,rectangle,1.14441E-05,7.999993682,1,0,0,1.14441E-05,7.999993682,1,0,0,1,78,238,85,1,,,,,,,,
,,,,,,,,,,,,,FF,,,,,,,,1.2492,,,,,,,,,,,,,,,,,,,,,,60ff943039dd3022ee2d8d10,61036f13af6d8f4cd65ba747,2021-07-29_20h19.55.227,Simcolourproject_2stim_asymm_v5,2020.2.10,Win32,60,61025ae37ef11b136ea224fe,,,,,,,,,71,56.00001228,-80.00000763,1,0,0,response3disk,,4,12.80001163,-14.40000665,1,0,0,rectangle,12.80001163,-14.40000665,1,0,0,12.80001163,-14.40000665,1,0,0,1,79,239,139,1,,,,,,,,
,,,,,,,,,,,,,FF,,,,,,,,1.0993,,,,,,,,,,,,,,,,,,,,,,60ff943039dd3022ee2d8d10,61036f13af6d8f4cd65ba747,2021-07-29_20h19.55.227,Simcolourproject_2stim_asymm_v5,2020.2.10,Win32,60,61025ae37ef11b136ea224fe,,,,,,,,,603,48.80001217,-25.60000682,1,0,0,response3disk,,5,1.600060296,-6.4373E-06,1,0,0,rectangle,1.600060296,-6.4373E-06,1,0,0,1.600060296,-6.4373E-06,1,0,0,1,80,240,114,1,,,,,,,,
,,,,,,,,,,,,,FF,,,,,,,,1.2322,,,,,,,,,,,,,,,,,,,,,,60ff943039dd3022ee2d8d10,61036f13af6d8f4cd65ba747,2021-07-29_20h19.55.227,Simcolourproject_2stim_asymm_v5,2020.2.10,Win32,60,61025ae37ef11b136ea224fe,,,,,,,,,2945,-89.59998989,30.39999402,1,0,0,response7disk,,1,34.40001196,-2.400006473,1,0,0,rectangle,34.40001196,-2.400006473,1,0,0,34.40001196,-2.400006473,1,0,0,1,81,241,112,1,,,,,,,,
,,,,,,,,,,,,,FF,,,,,,,,1.0314,,,,,,,,,,,,,,,,,,,,,,60ff943039dd3022ee2d8d10,61036f13af6d8f4cd65ba747,2021-07-29_20h19.55.227,Simcolourproject_2stim_asymm_v5,2020.2.10,Win32,60,61025ae37ef11b136ea224fe,,,,,,,,,3933,-87.99998987,-74.40000755,1,0,0,response5disk,,2,-7.199988663,-12.80000663,1,0,0,rectangle,-7.199988663,-12.80000663,1,0,0,-7.199988663,-12.80000663,1,0,0,1,82,242,72,1,,,,,,,,
