key_resp.keys,key_resp.rt,key_resp_14.keys,key_resp_14.rt,key_resp_15.keys,key_resp_15.rt,key_resp_17.keys,key_resp_17.rt,key_resp_9.keys,key_resp_9.rt,key_resp_10.keys,key_resp_10.rt,practice_comparison,Ecc,mouse_5.x,mouse_5.y,mouse_5.leftButton,mouse_5.midButton,mouse_5.rightButton,mouse_5.clicked_name,pracsimilarity,response_time,mouse_10.x,mouse_10.y,mouse_10.leftButton,mouse_10.midButton,mouse_10.rightButton,mouse_10.clicked_name,mouse_7.x,mouse_7.y,mouse_7.leftButton,mouse_7.midButton,mouse_7.rightButton,mouse_6.x,mouse_6.y,mouse_6.leftButton,mouse_6.midButton,mouse_6.rightButton,duringprac.thisRepN,duringprac.thisTrialN,duringprac.thisN,duringprac.thisIndex,duringprac.ran,participant,session,date,expName,psychopyVersion,OS,frameRate,study_id,mouse_7.clicked_name,catchpracsimilarity,catch_response_time,catchnumberprac,catchtrialorderprac,mouse_6.clicked_name,key_resp_22.keys,key_resp_22.rt,realcomparison,mouse.x,mouse.y,mouse.leftButton,mouse.midButton,mouse.rightButton,mouse.clicked_name,Colour2,similarity,mouse_2.x,mouse_2.y,mouse_2.leftButton,mouse_2.midButton,mouse_2.rightButton,mouse_2.clicked_name,mouse_3.x,mouse_3.y,mouse_3.leftButton,mouse_3.midButton,mouse_3.rightButton,mouse_11.x,mouse_11.y,mouse_11.leftButton,mouse_11.midButton,mouse_11.rightButton,trials_2.thisRepN,trials_2.thisTrialN,trials_2.thisN,trials_2.thisIndex,trials_2.ran,Colour1,mouse_3.clicked_name,catchornah,catchsimilarity,catchnumber,catchtrialorder,catchRT,mouse_11.clicked_name
space,2.0802,space,18.7635,space,21.2655,space,7.897,space,5.1948,space,7.484,80,PF,-35,63,1,0,0,response7disk_5,0,8.3672,1,4,1,0,0,rectangle_8,1,4,1,0,0,1,4,1,0,0,0,0,0,2,1,60ff49d0bb904e48c69d0133,61036b2594c7d8bd8f5eab53,2021-07-29_20h00.21.182,Simcolourproject_2stim_asymm_v5,2020.2.10,Win32,60,61025ae37ef11b136ea224fe,,,,,,,,,,,,,,,,,,,,,,,,,,,,,,,,,,,,,,,,,,,,,,
,,,,,,,,,,,,52,FF,48,78,1,0,0,response1disk_5,7,12.0152,0,-4,1,0,0,rectangle_8,95,-40,1,0,0,2,4,1,0,0,0,1,1,0,1,60ff49d0bb904e48c69d0133,61036b2594c7d8bd8f5eab53,2021-07-29_20h00.21.182,Simcolourproject_2stim_asymm_v5,2020.2.10,Win32,60,61025ae37ef11b136ea224fe,response3disk_7,5,3.6342,5,"[2,5]",rectangle_4,,,,,,,,,,,,,,,,,,,,,,,,,,,,,,,,,,,,,,,,
,,,,,,,,,,,,70,FF,29,-69,1,0,0,response3disk_5,4,5.9169,-8,-3,1,0,0,rectangle_8,-8,-3,1,0,0,-8,-3,1,0,0,0,2,2,5,1,60ff49d0bb904e48c69d0133,61036b2594c7d8bd8f5eab53,2021-07-29_20h00.21.182,Simcolourproject_2stim_asymm_v5,2020.2.10,Win32,60,61025ae37ef11b136ea224fe,,,,,,,,,,,,,,,,,,,,,,,,,,,,,,,,,,,,,,,,,,,,,,
,,,,,,,,,,,,31,PF,28,73,1,0,0,response1disk_5,7,1.7334,-9,-4,1,0,0,rectangle_8,-9,-4,1,0,0,-9,-4,1,0,0,0,3,3,1,1,60ff49d0bb904e48c69d0133,61036b2594c7d8bd8f5eab53,2021-07-29_20h00.21.182,Simcolourproject_2stim_asymm_v5,2020.2.10,Win32,60,61025ae37ef11b136ea224fe,,,,,,,,,,,,,,,,,,,,,,,,,,,,,,,,,,,,,,,,,,,,,,
,,,,,,,,,,,,11,PF,41,-64,1,0,0,response3disk_5,4,5.4686,2,1,1,0,0,rectangle_8,77,-43,1,0,0,-5,-4,1,0,0,0,4,4,6,1,60ff49d0bb904e48c69d0133,61036b2594c7d8bd8f5eab53,2021-07-29_20h00.21.182,Simcolourproject_2stim_asymm_v5,2020.2.10,Win32,60,61025ae37ef11b136ea224fe,response3disk_7,5,1.8667,5,"[2,5]",rectangle_4,,,,,,,,,,,,,,,,,,,,,,,,,,,,,,,,,,,,,,,,
,,,,,,,,,,,,72,PF,42,87,1,0,0,response1disk_5,7,6.5002,-1,2,1,0,0,rectangle_8,-1,2,1,0,0,-1,2,1,0,0,0,5,5,4,1,60ff49d0bb904e48c69d0133,61036b2594c7d8bd8f5eab53,2021-07-29_20h00.21.182,Simcolourproject_2stim_asymm_v5,2020.2.10,Win32,60,61025ae37ef11b136ea224fe,,,,,,,,,,,,,,,,,,,,,,,,,,,,,,,,,,,,,,,,,,,,,,
,,,,,,,,,,,,32,FF,40,67,1,0,0,response1disk_5,7,1.8164,0,4,1,0,0,rectangle_8,0,4,1,0,0,0,4,1,0,0,0,6,6,3,1,60ff49d0bb904e48c69d0133,61036b2594c7d8bd8f5eab53,2021-07-29_20h00.21.182,Simcolourproject_2stim_asymm_v5,2020.2.10,Win32,60,61025ae37ef11b136ea224fe,,,,,,,,,,,,,,,,,,,,,,,,,,,,,,,,,,,,,,,,,,,,,,
,,,,,,,,,,,,,FF,,,,,,,,9.4506,,,,,,,,,,,,,,,,,,,,,,60ff49d0bb904e48c69d0133,61036b2594c7d8bd8f5eab53,2021-07-29_20h00.21.182,Simcolourproject_2stim_asymm_v5,2020.2.10,Win32,60,61025ae37ef11b136ea224fe,,,,,,,space,5.0439,3283,73,-35,1,0,0,response3disk,,5,3,2,1,0,0,rectangle,3,2,1,0,0,3,2,1,0,0,0,0,0,129,1,,,,,,,,
,,,,,,,,,,,,,FF,,,,,,,,5.8002,,,,,,,,,,,,,,,,,,,,,,60ff49d0bb904e48c69d0133,61036b2594c7d8bd8f5eab53,2021-07-29_20h00.21.182,Simcolourproject_2stim_asymm_v5,2020.2.10,Win32,60,61025ae37ef11b136ea224fe,,,,,,,,,6,29,-77,1,0,0,response3disk,,4,-2,1,1,0,0,rectangle,-2,1,1,0,0,-2,1,1,0,0,0,1,1,144,1,,,,,,,,
,,,,,,,,,,,,,FF,,,,,,,,1.6001,,,,,,,,,,,,,,,,,,,,,,60ff49d0bb904e48c69d0133,61036b2594c7d8bd8f5eab53,2021-07-29_20h00.21.182,Simcolourproject_2stim_asymm_v5,2020.2.10,Win32,60,61025ae37ef11b136ea224fe,,,,,,,,,2914,70,53,1,0,0,response1disk,,6,-6,6,1,0,0,rectangle,-6,6,1,0,0,-6,6,1,0,0,0,2,2,124,1,,,,,,,,
,,,,,,,,,,,,,FF,,,,,,,,1.2334,,,,,,,,,,,,,,,,,,,,,,60ff49d0bb904e48c69d0133,61036b2594c7d8bd8f5eab53,2021-07-29_20h00.21.182,Simcolourproject_2stim_asymm_v5,2020.2.10,Win32,60,61025ae37ef11b136ea224fe,,,,,,,,,273,41,95,1,0,0,response1disk,,7,-6,-3,1,0,0,rectangle,-6,-3,1,0,0,-6,-3,1,0,0,0,3,3,31,1,,,,,,,,
,,,,,,,,,,,,,FF,,,,,,,,4.0499,,,,,,,,,,,,,,,,,,,,,,60ff49d0bb904e48c69d0133,61036b2594c7d8bd8f5eab53,2021-07-29_20h00.21.182,Simcolourproject_2stim_asymm_v5,2020.2.10,Win32,60,61025ae37ef11b136ea224fe,,,,,,,,,1488,48,84,1,0,0,response1disk,,7,3,6,1,0,0,rectangle,3,6,1,0,0,3,6,1,0,0,0,4,4,40,1,,,,,,,,
,,,,,,,,,,,,,FF,,,,,,,,1.4019,,,,,,,,,,,,,,,,,,,,,,60ff49d0bb904e48c69d0133,61036b2594c7d8bd8f5eab53,2021-07-29_20h00.21.182,Simcolourproject_2stim_asymm_v5,2020.2.10,Win32,60,61025ae37ef11b136ea224fe,,,,,,,,,4172,48,89,1,0,0,response1disk,,7,-3,-2,1,0,0,rectangle,-3,-2,1,0,0,-3,-2,1,0,0,0,5,5,71,1,,,,,,,,
,,,,,,,,,,,,,FF,,,,,,,,2.1667,,,,,,,,,,,,,,,,,,,,,,60ff49d0bb904e48c69d0133,61036b2594c7d8bd8f5eab53,2021-07-29_20h00.21.182,Simcolourproject_2stim_asymm_v5,2020.2.10,Win32,60,61025ae37ef11b136ea224fe,,,,,,,,,75,35,-81,1,0,0,response3disk,,4,0,6,1,0,0,rectangle,0,6,1,0,0,0,6,1,0,0,0,6,6,52,1,,,,,,,,
,,,,,,,,,,,,,FF,,,,,,,,2.05,,,,,,,,,,,,,,,,,,,,,,60ff49d0bb904e48c69d0133,61036b2594c7d8bd8f5eab53,2021-07-29_20h00.21.182,Simcolourproject_2stim_asymm_v5,2020.2.10,Win32,60,61025ae37ef11b136ea224fe,,,,,,,,,168,84,36,1,0,0,response1disk,,6,3,0,1,0,0,rectangle,3,0,1,0,0,3,0,1,0,0,0,7,7,119,1,,,,,,,,
,,,,,,,,,,,,,FF,,,,,,,,2.9668,,,,,,,,,,,,,,,,,,,,,,60ff49d0bb904e48c69d0133,61036b2594c7d8bd8f5eab53,2021-07-29_20h00.21.182,Simcolourproject_2stim_asymm_v5,2020.2.10,Win32,60,61025ae37ef11b136ea224fe,,,,,,,,,4185,37,70,1,0,0,response1disk,,7,9,-3,1,0,0,rectangle,9,-3,1,0,0,9,-3,1,0,0,0,8,8,137,1,,,,,,,,
,,,,,,,,,,,,,FF,,,,,,,,1.2501,,,,,,,,,,,,,,,,,,,,,,60ff49d0bb904e48c69d0133,61036b2594c7d8bd8f5eab53,2021-07-29_20h00.21.182,Simcolourproject_2stim_asymm_v5,2020.2.10,Win32,60,61025ae37ef11b136ea224fe,,,,,,,,,2466,43,68,1,0,0,response1disk,,7,1,1,1,0,0,rectangle,1,1,1,0,0,1,1,1,0,0,0,9,9,21,1,,,,,,,,
,,,,,,,,,,,,,FF,,,,,,,,3.8667,,,,,,,,,,,,,,,,,,,,,,60ff49d0bb904e48c69d0133,61036b2594c7d8bd8f5eab53,2021-07-29_20h00.21.182,Simcolourproject_2stim_asymm_v5,2020.2.10,Win32,60,61025ae37ef11b136ea224fe,,,,,,,,,3482,82,29,1,0,0,response1disk,,6,5,-1,1,0,0,rectangle,5,-1,1,0,0,5,-1,1,0,0,0,10,10,99,1,,,,,,,,
,,,,,,,,,,,,,FF,,,,,,,,3.152,,,,,,,,,,,,,,,,,,,,,,60ff49d0bb904e48c69d0133,61036b2594c7d8bd8f5eab53,2021-07-29_20h00.21.182,Simcolourproject_2stim_asymm_v5,2020.2.10,Win32,60,61025ae37ef11b136ea224fe,,,,,,,,,3189,-50,-33,1,0,0,response5disk,,2,8,3,1,0,0,rectangle,8,3,1,0,0,8,3,1,0,0,0,11,11,133,1,,,,,,,,
,,,,,,,,,,,,,FF,,,,,,,,3.5834,,,,,,,,,,,,,,,,,,,,,,60ff49d0bb904e48c69d0133,61036b2594c7d8bd8f5eab53,2021-07-29_20h00.21.182,Simcolourproject_2stim_asymm_v5,2020.2.10,Win32,60,61025ae37ef11b136ea224fe,,,,,,,,,3888,86,35,1,0,0,response1disk,,6,23,7,1,0,0,rectangle,23,7,1,0,0,23,7,1,0,0,0,12,12,74,1,,,,,,,,
,,,,,,,,,,,,,FF,,,,,,,,2.8167,,,,,,,,,,,,,,,,,,,,,,60ff49d0bb904e48c69d0133,61036b2594c7d8bd8f5eab53,2021-07-29_20h00.21.182,Simcolourproject_2stim_asymm_v5,2020.2.10,Win32,60,61025ae37ef11b136ea224fe,,,,,,,,,3431,-59,-33,1,0,0,response5disk,,2,-3,-3,1,0,0,rectangle,-3,-3,1,0,0,-3,-3,1,0,0,0,13,13,3,1,,,,,,,,
,,,,,,,,,,,,,FF,,,,,,,,1.4501,,,,,,,,,,,,,,,,,,,,,,60ff49d0bb904e48c69d0133,61036b2594c7d8bd8f5eab53,2021-07-29_20h00.21.182,Simcolourproject_2stim_asymm_v5,2020.2.10,Win32,60,61025ae37ef11b136ea224fe,,,,,,,,,2375,33,-74,1,0,0,response3disk,,4,-6,13,1,0,0,rectangle,-6,13,1,0,0,-6,13,1,0,0,0,14,14,63,1,,,,,,,,
,,,,,,,,,,,,,FF,,,,,,,,1.3667,,,,,,,,,,,,,,,,,,,,,,60ff49d0bb904e48c69d0133,61036b2594c7d8bd8f5eab53,2021-07-29_20h00.21.182,Simcolourproject_2stim_asymm_v5,2020.2.10,Win32,60,61025ae37ef11b136ea224fe,,,,,,,,,327,82,50,1,0,0,response1disk,,6,-9,2,1,0,0,rectangle,-9,2,1,0,0,-9,2,1,0,0,0,15,15,89,1,,,,,,,,
,,,,,,,,,,,,,FF,,,,,,,,8.2002,,,,,,,,,,,,,,,,,,,,,,60ff49d0bb904e48c69d0133,61036b2594c7d8bd8f5eab53,2021-07-29_20h00.21.182,Simcolourproject_2stim_asymm_v5,2020.2.10,Win32,60,61025ae37ef11b136ea224fe,,,,,,,,,4194,42,-68,1,0,0,response3disk,,4,2,4,1,0,0,rectangle,2,4,1,0,0,2,4,1,0,0,0,16,16,37,1,,,,,,,,
,,,,,,,,,,,,,FF,,,,,,,,3.2167,,,,,,,,,,,,,,,,,,,,,,60ff49d0bb904e48c69d0133,61036b2594c7d8bd8f5eab53,2021-07-29_20h00.21.182,Simcolourproject_2stim_asymm_v5,2020.2.10,Win32,60,61025ae37ef11b136ea224fe,,,,,,,,,2620,90,-35,1,0,0,response3disk,,5,10,7,1,0,0,rectangle,10,7,1,0,0,10,7,1,0,0,0,17,17,156,1,,,,,,,,
,,,,,,,,,,,,,FF,,,,,,,,1.5001,,,,,,,,,,,,,,,,,,,,,,60ff49d0bb904e48c69d0133,61036b2594c7d8bd8f5eab53,2021-07-29_20h00.21.182,Simcolourproject_2stim_asymm_v5,2020.2.10,Win32,60,61025ae37ef11b136ea224fe,,,,,,,,,1994,86,44,1,0,0,response1disk,,6,3,14,1,0,0,rectangle,3,14,1,0,0,3,14,1,0,0,0,18,18,132,1,,,,,,,,
,,,,,,,,,,,,,FF,,,,,,,,1.3668,,,,,,,,,,,,,,,,,,,,,,60ff49d0bb904e48c69d0133,61036b2594c7d8bd8f5eab53,2021-07-29_20h00.21.182,Simcolourproject_2stim_asymm_v5,2020.2.10,Win32,60,61025ae37ef11b136ea224fe,,,,,,,,,3616,45,86,1,0,0,response1disk,,7,-1,7,1,0,0,rectangle,-1,7,1,0,0,-1,7,1,0,0,0,19,19,120,1,,,,,,,,
,,,,,,,,,,,,,FF,,,,,,,,1.7667,,,,,,,,,,,,,,,,,,,,,,60ff49d0bb904e48c69d0133,61036b2594c7d8bd8f5eab53,2021-07-29_20h00.21.182,Simcolourproject_2stim_asymm_v5,2020.2.10,Win32,60,61025ae37ef11b136ea224fe,,,,,,,,,3858,35,-56,1,0,0,response3disk,,4,1,0,1,0,0,rectangle,1,0,1,0,0,1,0,1,0,0,0,20,20,32,1,,,,,,,,
,,,,,,,,,,,,,FF,,,,,,,,2.9483,,,,,,,,,,,,,,,,,,,,,,60ff49d0bb904e48c69d0133,61036b2594c7d8bd8f5eab53,2021-07-29_20h00.21.182,Simcolourproject_2stim_asymm_v5,2020.2.10,Win32,60,61025ae37ef11b136ea224fe,,,,,,,,,3564,71,-33,1,0,0,response3disk,,5,9,2,1,0,0,rectangle,9,2,1,0,0,9,2,1,0,0,0,21,21,44,1,,,,,,,,
,,,,,,,,,,,,,FF,,,,,,,,1.2333,,,,,,,,,,,,,,,,,,,,,,60ff49d0bb904e48c69d0133,61036b2594c7d8bd8f5eab53,2021-07-29_20h00.21.182,Simcolourproject_2stim_asymm_v5,2020.2.10,Win32,60,61025ae37ef11b136ea224fe,,,,,,,,,3904,52,95,1,0,0,response1disk,,7,-24,-15,1,0,0,rectangle,-24,-15,1,0,0,-24,-15,1,0,0,0,22,22,90,1,,,,,,,,
,,,,,,,,,,,,,FF,,,,,,,,24.8005,,,,,,,,,,,,,,,,,,,,,,60ff49d0bb904e48c69d0133,61036b2594c7d8bd8f5eab53,2021-07-29_20h00.21.182,Simcolourproject_2stim_asymm_v5,2020.2.10,Win32,60,61025ae37ef11b136ea224fe,,,,,,,,,901,48,-31,1,0,0,response3disk,,5,-9,3,1,0,0,rectangle,-9,3,1,0,0,-9,3,1,0,0,0,23,23,95,1,,,,,,,,
,,,,,,,,,,,,,FF,,,,,,,,2.2334,,,,,,,,,,,,,,,,,,,,,,60ff49d0bb904e48c69d0133,61036b2594c7d8bd8f5eab53,2021-07-29_20h00.21.182,Simcolourproject_2stim_asymm_v5,2020.2.10,Win32,60,61025ae37ef11b136ea224fe,,,,,,,,,2301,41,-58,1,0,0,response3disk,,4,10,9,1,0,0,rectangle,10,9,1,0,0,10,9,1,0,0,0,24,24,84,1,,,,,,,,
,,,,,,,,,,,,,FF,,,,,,,,1.2352,,,,,,,,,,,,,,,,,,,,,,60ff49d0bb904e48c69d0133,61036b2594c7d8bd8f5eab53,2021-07-29_20h00.21.182,Simcolourproject_2stim_asymm_v5,2020.2.10,Win32,60,61025ae37ef11b136ea224fe,,,,,,,,,3389,-75,-28,1,0,0,response5disk,,2,-6,-8,1,0,0,rectangle,-6,-8,1,0,0,-6,-8,1,0,0,0,25,25,25,1,,,,,,,,
,,,,,,,,,,,,,FF,,,,,,,,1.5502,,,,,,,,,,,,,,,,,,,,,,60ff49d0bb904e48c69d0133,61036b2594c7d8bd8f5eab53,2021-07-29_20h00.21.182,Simcolourproject_2stim_asymm_v5,2020.2.10,Win32,60,61025ae37ef11b136ea224fe,,,,,,,,,1431,104,-44,1,0,0,response3disk,,5,9,-4,1,0,0,rectangle,9,-4,1,0,0,9,-4,1,0,0,0,26,26,106,1,,,,,,,,
,,,,,,,,,,,,,FF,,,,,,,,1.6167,,,,,,,,,,,,,,,,,,,,,,60ff49d0bb904e48c69d0133,61036b2594c7d8bd8f5eab53,2021-07-29_20h00.21.182,Simcolourproject_2stim_asymm_v5,2020.2.10,Win32,60,61025ae37ef11b136ea224fe,,,,,,,,,2498,79,37,1,0,0,response1disk,,6,2,5,1,0,0,rectangle,2,5,1,0,0,2,5,1,0,0,0,27,27,34,1,,,,,,,,
,,,,,,,,,,,,,FF,,,,,,,,2.8,,,,,,,,,,,,,,,,,,,,,,60ff49d0bb904e48c69d0133,61036b2594c7d8bd8f5eab53,2021-07-29_20h00.21.182,Simcolourproject_2stim_asymm_v5,2020.2.10,Win32,60,61025ae37ef11b136ea224fe,,,,,,,,,2381,83,36,1,0,0,response1disk,,6,-8,-4,1,0,0,rectangle,-38,-68,1,0,0,3,-6,1,0,0,0,28,28,79,1,,response5disk_3,TRUE,3,3,"[97,152,201,32,202,139,38,226,272,29,58,247,318,216,196,204,111,120,281,134]",2.0352,rectangle
,,,,,,,,,,,,,FF,,,,,,,,1.55,,,,,,,,,,,,,,,,,,,,,,60ff49d0bb904e48c69d0133,61036b2594c7d8bd8f5eab53,2021-07-29_20h00.21.182,Simcolourproject_2stim_asymm_v5,2020.2.10,Win32,60,61025ae37ef11b136ea224fe,,,,,,,,,1987,27,95,1,0,0,response1disk,,7,0,4,1,0,0,rectangle,0,4,1,0,0,0,4,1,0,0,0,29,29,6,1,,,,,,,,
,,,,,,,,,,,,,FF,,,,,,,,1.2001,,,,,,,,,,,,,,,,,,,,,,60ff49d0bb904e48c69d0133,61036b2594c7d8bd8f5eab53,2021-07-29_20h00.21.182,Simcolourproject_2stim_asymm_v5,2020.2.10,Win32,60,61025ae37ef11b136ea224fe,,,,,,,,,745,39,86,1,0,0,response1disk,,7,-2,8,1,0,0,rectangle,-2,8,1,0,0,-2,8,1,0,0,0,30,30,121,1,,,,,,,,
,,,,,,,,,,,,,FF,,,,,,,,0.8667,,,,,,,,,,,,,,,,,,,,,,60ff49d0bb904e48c69d0133,61036b2594c7d8bd8f5eab53,2021-07-29_20h00.21.182,Simcolourproject_2stim_asymm_v5,2020.2.10,Win32,60,61025ae37ef11b136ea224fe,,,,,,,,,2643,53,87,1,0,0,response1disk,,7,-4,-5,1,0,0,rectangle,-40,-84,1,0,0,5,0,1,0,0,0,31,31,96,1,,response5disk_3,TRUE,3,3,"[97,152,201,32,202,139,38,226,272,29,58,247,318,216,196,204,111,120,281,134]",1.8,rectangle
,,,,,,,,,,,,,FF,,,,,,,,1.332,,,,,,,,,,,,,,,,,,,,,,60ff49d0bb904e48c69d0133,61036b2594c7d8bd8f5eab53,2021-07-29_20h00.21.182,Simcolourproject_2stim_asymm_v5,2020.2.10,Win32,60,61025ae37ef11b136ea224fe,,,,,,,,,4301,57,86,1,0,0,response1disk,,7,-1,-4,1,0,0,rectangle,-1,-4,1,0,0,-1,-4,1,0,0,0,32,32,65,1,,,,,,,,
,,,,,,,,,,,,,FF,,,,,,,,1.4836,,,,,,,,,,,,,,,,,,,,,,60ff49d0bb904e48c69d0133,61036b2594c7d8bd8f5eab53,2021-07-29_20h00.21.182,Simcolourproject_2stim_asymm_v5,2020.2.10,Win32,60,61025ae37ef11b136ea224fe,,,,,,,,,3718,63,-32,1,0,0,response3disk,,5,10,0,1,0,0,rectangle,10,0,1,0,0,10,0,1,0,0,0,33,33,97,1,,,,,,,,
,,,,,,,,,,,,,FF,,,,,,,,1.198,,,,,,,,,,,,,,,,,,,,,,60ff49d0bb904e48c69d0133,61036b2594c7d8bd8f5eab53,2021-07-29_20h00.21.182,Simcolourproject_2stim_asymm_v5,2020.2.10,Win32,60,61025ae37ef11b136ea224fe,,,,,,,,,3519,-66,-38,1,0,0,response5disk,,2,0,0,1,0,0,rectangle,0,0,1,0,0,0,0,1,0,0,0,34,34,61,1,,,,,,,,
,,,,,,,,,,,,,FF,,,,,,,,1.5332,,,,,,,,,,,,,,,,,,,,,,60ff49d0bb904e48c69d0133,61036b2594c7d8bd8f5eab53,2021-07-29_20h00.21.182,Simcolourproject_2stim_asymm_v5,2020.2.10,Win32,60,61025ae37ef11b136ea224fe,,,,,,,,,3102,37,-80,1,0,0,response3disk,,4,1,10,1,0,0,rectangle,1,10,1,0,0,1,10,1,0,0,0,35,35,122,1,,,,,,,,
,,,,,,,,,,,,,FF,,,,,,,,1.7334,,,,,,,,,,,,,,,,,,,,,,60ff49d0bb904e48c69d0133,61036b2594c7d8bd8f5eab53,2021-07-29_20h00.21.182,Simcolourproject_2stim_asymm_v5,2020.2.10,Win32,60,61025ae37ef11b136ea224fe,,,,,,,,,4076,-34,-65,1,0,0,response5disk,,3,-4,-7,1,0,0,rectangle,-4,-7,1,0,0,-4,-7,1,0,0,0,36,36,130,1,,,,,,,,
,,,,,,,,,,,,,FF,,,,,,,,3.2834,,,,,,,,,,,,,,,,,,,,,,60ff49d0bb904e48c69d0133,61036b2594c7d8bd8f5eab53,2021-07-29_20h00.21.182,Simcolourproject_2stim_asymm_v5,2020.2.10,Win32,60,61025ae37ef11b136ea224fe,,,,,,,,,2622,76,-41,1,0,0,response3disk,,5,9,-5,1,0,0,rectangle,55,86,1,0,0,8,-7,1,0,0,0,37,37,157,1,,response1disk_3,TRUE,7,7,"[97,152,201,32,202,139,38,226,272,29,58,247,318,216,196,204,111,120,281,134]",1.8166,rectangle
,,,,,,,,,,,,,FF,,,,,,,,3.2165,,,,,,,,,,,,,,,,,,,,,,60ff49d0bb904e48c69d0133,61036b2594c7d8bd8f5eab53,2021-07-29_20h00.21.182,Simcolourproject_2stim_asymm_v5,2020.2.10,Win32,60,61025ae37ef11b136ea224fe,,,,,,,,,3236,-28,-63,1,0,0,response5disk,,3,5,-4,1,0,0,rectangle,5,-4,1,0,0,5,-4,1,0,0,0,38,38,28,1,,,,,,,,
,,,,,,,,,,,,,FF,,,,,,,,0.9832,,,,,,,,,,,,,,,,,,,,,,60ff49d0bb904e48c69d0133,61036b2594c7d8bd8f5eab53,2021-07-29_20h00.21.182,Simcolourproject_2stim_asymm_v5,2020.2.10,Win32,60,61025ae37ef11b136ea224fe,,,,,,,,,2774,80,36,1,0,0,response1disk,,6,-18,-16,1,0,0,rectangle,-18,-16,1,0,0,-18,-16,1,0,0,0,39,39,100,1,,,,,,,,
,,,,,,,,,,,,,FF,,,,,,,,1.5484,,,,,,,,,,,,,,,,,,,,,,60ff49d0bb904e48c69d0133,61036b2594c7d8bd8f5eab53,2021-07-29_20h00.21.182,Simcolourproject_2stim_asymm_v5,2020.2.10,Win32,60,61025ae37ef11b136ea224fe,,,,,,,,,437,26,-69,1,0,0,response3disk,,4,-9,3,1,0,0,rectangle,-9,3,1,0,0,-9,3,1,0,0,0,40,40,48,1,,,,,,,,
,,,,,,,,,,,,,FF,,,,,,,,1.5335,,,,,,,,,,,,,,,,,,,,,,60ff49d0bb904e48c69d0133,61036b2594c7d8bd8f5eab53,2021-07-29_20h00.21.182,Simcolourproject_2stim_asymm_v5,2020.2.10,Win32,60,61025ae37ef11b136ea224fe,,,,,,,,,1946,87,35,1,0,0,response1disk,,6,17,-2,1,0,0,rectangle,17,-2,1,0,0,17,-2,1,0,0,0,41,41,11,1,,,,,,,,
,,,,,,,,,,,,,FF,,,,,,,,1.6334,,,,,,,,,,,,,,,,,,,,,,60ff49d0bb904e48c69d0133,61036b2594c7d8bd8f5eab53,2021-07-29_20h00.21.182,Simcolourproject_2stim_asymm_v5,2020.2.10,Win32,60,61025ae37ef11b136ea224fe,,,,,,,,,2364,38,-73,1,0,0,response3disk,,4,-1,8,1,0,0,rectangle,-1,8,1,0,0,-1,8,1,0,0,0,42,42,136,1,,,,,,,,
,,,,,,,,,,,,,FF,,,,,,,,0.9351,,,,,,,,,,,,,,,,,,,,,,60ff49d0bb904e48c69d0133,61036b2594c7d8bd8f5eab53,2021-07-29_20h00.21.182,Simcolourproject_2stim_asymm_v5,2020.2.10,Win32,60,61025ae37ef11b136ea224fe,,,,,,,,,2911,56,98,1,0,0,response1disk,,7,-13,-18,1,0,0,rectangle,-13,-18,1,0,0,-13,-18,1,0,0,0,43,43,113,1,,,,,,,,
,,,,,,,,,,,,,FF,,,,,,,,1.2685,,,,,,,,,,,,,,,,,,,,,,60ff49d0bb904e48c69d0133,61036b2594c7d8bd8f5eab53,2021-07-29_20h00.21.182,Simcolourproject_2stim_asymm_v5,2020.2.10,Win32,60,61025ae37ef11b136ea224fe,,,,,,,,,2062,45,75,1,0,0,response1disk,,7,17,13,1,0,0,rectangle,17,13,1,0,0,17,13,1,0,0,0,44,44,16,1,,,,,,,,
,,,,,,,,,,,,,FF,,,,,,,,1.1483,,,,,,,,,,,,,,,,,,,,,,60ff49d0bb904e48c69d0133,61036b2594c7d8bd8f5eab53,2021-07-29_20h00.21.182,Simcolourproject_2stim_asymm_v5,2020.2.10,Win32,60,61025ae37ef11b136ea224fe,,,,,,,,,2819,43,79,1,0,0,response1disk,,7,-14,10,1,0,0,rectangle,-14,10,1,0,0,-14,10,1,0,0,0,45,45,10,1,,,,,,,,
,,,,,,,,,,,,,FF,,,,,,,,2.9687,,,,,,,,,,,,,,,,,,,,,,60ff49d0bb904e48c69d0133,61036b2594c7d8bd8f5eab53,2021-07-29_20h00.21.182,Simcolourproject_2stim_asymm_v5,2020.2.10,Win32,60,61025ae37ef11b136ea224fe,,,,,,,,,1011,58,98,1,0,0,response1disk,,7,-1,2,1,0,0,rectangle,-1,2,1,0,0,-1,2,1,0,0,0,46,46,98,1,,,,,,,,
,,,,,,,,,,,,,FF,,,,,,,,2.1833,,,,,,,,,,,,,,,,,,,,,,60ff49d0bb904e48c69d0133,61036b2594c7d8bd8f5eab53,2021-07-29_20h00.21.182,Simcolourproject_2stim_asymm_v5,2020.2.10,Win32,60,61025ae37ef11b136ea224fe,,,,,,,,,2030,46,-77,1,0,0,response3disk,,4,11,-9,1,0,0,rectangle,11,-9,1,0,0,11,-9,1,0,0,0,47,47,7,1,,,,,,,,
,,,,,,,,,,,,,FF,,,,,,,,5.8501,,,,,,,,,,,,,,,,,,,,,,60ff49d0bb904e48c69d0133,61036b2594c7d8bd8f5eab53,2021-07-29_20h00.21.182,Simcolourproject_2stim_asymm_v5,2020.2.10,Win32,60,61025ae37ef11b136ea224fe,,,,,,,,,2896,99,-25,1,0,0,response3disk,,5,15,8,1,0,0,rectangle,15,8,1,0,0,15,8,1,0,0,0,48,48,149,1,,,,,,,,
,,,,,,,,,,,,,FF,,,,,,,,1.8333,,,,,,,,,,,,,,,,,,,,,,60ff49d0bb904e48c69d0133,61036b2594c7d8bd8f5eab53,2021-07-29_20h00.21.182,Simcolourproject_2stim_asymm_v5,2020.2.10,Win32,60,61025ae37ef11b136ea224fe,,,,,,,,,1257,97,39,1,0,0,response1disk,,6,22,1,1,0,0,rectangle,22,1,1,0,0,22,1,1,0,0,0,49,49,54,1,,,,,,,,
,,,,,,,,,,,,,FF,,,,,,,,1.1334,,,,,,,,,,,,,,,,,,,,,,60ff49d0bb904e48c69d0133,61036b2594c7d8bd8f5eab53,2021-07-29_20h00.21.182,Simcolourproject_2stim_asymm_v5,2020.2.10,Win32,60,61025ae37ef11b136ea224fe,,,,,,,,,3668,-71,34,1,0,0,response7disk,,1,10,0,1,0,0,rectangle,10,0,1,0,0,10,0,1,0,0,0,50,50,33,1,,,,,,,,
,,,,,,,,,,,,,FF,,,,,,,,1.3001,,,,,,,,,,,,,,,,,,,,,,60ff49d0bb904e48c69d0133,61036b2594c7d8bd8f5eab53,2021-07-29_20h00.21.182,Simcolourproject_2stim_asymm_v5,2020.2.10,Win32,60,61025ae37ef11b136ea224fe,,,,,,,,,4235,-35,84,1,0,0,response7disk,,0,-7,2,1,0,0,rectangle,-7,2,1,0,0,-7,2,1,0,0,0,51,51,110,1,,,,,,,,
,,,,,,,,,,,,,FF,,,,,,,,2.1483,,,,,,,,,,,,,,,,,,,,,,60ff49d0bb904e48c69d0133,61036b2594c7d8bd8f5eab53,2021-07-29_20h00.21.182,Simcolourproject_2stim_asymm_v5,2020.2.10,Win32,60,61025ae37ef11b136ea224fe,,,,,,,,,2382,70,-42,1,0,0,response3disk,,5,3,-6,1,0,0,rectangle,3,-6,1,0,0,3,-6,1,0,0,0,52,52,87,1,,,,,,,,
,,,,,,,,,,,,,FF,,,,,,,,0.8984,,,,,,,,,,,,,,,,,,,,,,60ff49d0bb904e48c69d0133,61036b2594c7d8bd8f5eab53,2021-07-29_20h00.21.182,Simcolourproject_2stim_asymm_v5,2020.2.10,Win32,60,61025ae37ef11b136ea224fe,,,,,,,,,2895,-34,-70,1,0,0,response5disk,,3,-3,-6,1,0,0,rectangle,-3,-6,1,0,0,-3,-6,1,0,0,0,53,53,103,1,,,,,,,,
,,,,,,,,,,,,,FF,,,,,,,,1.2501,,,,,,,,,,,,,,,,,,,,,,60ff49d0bb904e48c69d0133,61036b2594c7d8bd8f5eab53,2021-07-29_20h00.21.182,Simcolourproject_2stim_asymm_v5,2020.2.10,Win32,60,61025ae37ef11b136ea224fe,,,,,,,,,1715,57,90,1,0,0,response1disk,,7,0,-3,1,0,0,rectangle,0,-3,1,0,0,0,-3,1,0,0,0,54,54,126,1,,,,,,,,
,,,,,,,,,,,,,FF,,,,,,,,1.2483,,,,,,,,,,,,,,,,,,,,,,60ff49d0bb904e48c69d0133,61036b2594c7d8bd8f5eab53,2021-07-29_20h00.21.182,Simcolourproject_2stim_asymm_v5,2020.2.10,Win32,60,61025ae37ef11b136ea224fe,,,,,,,,,377,36,88,1,0,0,response1disk,,7,-4,3,1,0,0,rectangle,-4,3,1,0,0,-4,3,1,0,0,0,55,55,78,1,,,,,,,,
,,,,,,,,,,,,,FF,,,,,,,,2.7334,,,,,,,,,,,,,,,,,,,,,,60ff49d0bb904e48c69d0133,61036b2594c7d8bd8f5eab53,2021-07-29_20h00.21.182,Simcolourproject_2stim_asymm_v5,2020.2.10,Win32,60,61025ae37ef11b136ea224fe,,,,,,,,,2915,49,86,1,0,0,response1disk,,7,1,10,1,0,0,rectangle,1,10,1,0,0,1,10,1,0,0,0,56,56,140,1,,,,,,,,
,,,,,,,,,,,,,FF,,,,,,,,0.9333,,,,,,,,,,,,,,,,,,,,,,60ff49d0bb904e48c69d0133,61036b2594c7d8bd8f5eab53,2021-07-29_20h00.21.182,Simcolourproject_2stim_asymm_v5,2020.2.10,Win32,60,61025ae37ef11b136ea224fe,,,,,,,,,4173,61,92,1,0,0,response1disk,,7,15,7,1,0,0,rectangle,103,48,1,0,0,16,14,1,0,0,0,57,57,159,1,,response1disk_3,TRUE,6,6,"[97,152,201,32,202,139,38,226,272,29,58,247,318,216,196,204,111,120,281,134]",1.5816,rectangle
,,,,,,,,,,,,,FF,,,,,,,,3.4167,,,,,,,,,,,,,,,,,,,,,,60ff49d0bb904e48c69d0133,61036b2594c7d8bd8f5eab53,2021-07-29_20h00.21.182,Simcolourproject_2stim_asymm_v5,2020.2.10,Win32,60,61025ae37ef11b136ea224fe,,,,,,,,,1543,84,42,1,0,0,response1disk,,6,7,-4,1,0,0,rectangle,7,-4,1,0,0,7,-4,1,0,0,0,58,58,14,1,,,,,,,,
,,,,,,,,,,,,,FF,,,,,,,,1.7334,,,,,,,,,,,,,,,,,,,,,,60ff49d0bb904e48c69d0133,61036b2594c7d8bd8f5eab53,2021-07-29_20h00.21.182,Simcolourproject_2stim_asymm_v5,2020.2.10,Win32,60,61025ae37ef11b136ea224fe,,,,,,,,,2504,54,77,1,0,0,response1disk,,7,6,11,1,0,0,rectangle,6,11,1,0,0,6,11,1,0,0,0,59,59,47,1,,,,,,,,
,,,,,,,,,,,,,FF,,,,,,,,3.1167,,,,,,,,,,,,,,,,,,,,,,60ff49d0bb904e48c69d0133,61036b2594c7d8bd8f5eab53,2021-07-29_20h00.21.182,Simcolourproject_2stim_asymm_v5,2020.2.10,Win32,60,61025ae37ef11b136ea224fe,,,,,,,,,1838,93,42,1,0,0,response1disk,,6,18,9,1,0,0,rectangle,18,9,1,0,0,18,9,1,0,0,0,60,60,68,1,,,,,,,,
,,,,,,,,,,,,,FF,,,,,,,,1.1833,,,,,,,,,,,,,,,,,,,,,,60ff49d0bb904e48c69d0133,61036b2594c7d8bd8f5eab53,2021-07-29_20h00.21.182,Simcolourproject_2stim_asymm_v5,2020.2.10,Win32,60,61025ae37ef11b136ea224fe,,,,,,,,,1936,38,68,1,0,0,response1disk,,7,7,12,1,0,0,rectangle,7,12,1,0,0,7,12,1,0,0,0,61,61,118,1,,,,,,,,
,,,,,,,,,,,,,FF,,,,,,,,1.5501,,,,,,,,,,,,,,,,,,,,,,60ff49d0bb904e48c69d0133,61036b2594c7d8bd8f5eab53,2021-07-29_20h00.21.182,Simcolourproject_2stim_asymm_v5,2020.2.10,Win32,60,61025ae37ef11b136ea224fe,,,,,,,,,288,38,71,1,0,0,response1disk,,7,5,11,1,0,0,rectangle,5,11,1,0,0,5,11,1,0,0,0,62,62,62,1,,,,,,,,
,,,,,,,,,,,,,FF,,,,,,,,0.9333,,,,,,,,,,,,,,,,,,,,,,60ff49d0bb904e48c69d0133,61036b2594c7d8bd8f5eab53,2021-07-29_20h00.21.182,Simcolourproject_2stim_asymm_v5,2020.2.10,Win32,60,61025ae37ef11b136ea224fe,,,,,,,,,4134,51,80,1,0,0,response1disk,,7,-7,-13,1,0,0,rectangle,-7,-13,1,0,0,-7,-13,1,0,0,0,63,63,138,1,,,,,,,,
,,,,,,,,,,,,,FF,,,,,,,,2.4687,,,,,,,,,,,,,,,,,,,,,,60ff49d0bb904e48c69d0133,61036b2594c7d8bd8f5eab53,2021-07-29_20h00.21.182,Simcolourproject_2stim_asymm_v5,2020.2.10,Win32,60,61025ae37ef11b136ea224fe,,,,,,,,,2933,77,-30,1,0,0,response3disk,,5,0,1,1,0,0,rectangle,0,1,1,0,0,0,1,1,0,0,0,64,64,2,1,,,,,,,,
,,,,,,,,,,,,,FF,,,,,,,,1.7168,,,,,,,,,,,,,,,,,,,,,,60ff49d0bb904e48c69d0133,61036b2594c7d8bd8f5eab53,2021-07-29_20h00.21.182,Simcolourproject_2stim_asymm_v5,2020.2.10,Win32,60,61025ae37ef11b136ea224fe,,,,,,,,,3643,88,37,1,0,0,response1disk,,6,6,-4,1,0,0,rectangle,6,-4,1,0,0,6,-4,1,0,0,0,65,65,59,1,,,,,,,,
,,,,,,,,,,,,,FF,,,,,,,,1.1334,,,,,,,,,,,,,,,,,,,,,,60ff49d0bb904e48c69d0133,61036b2594c7d8bd8f5eab53,2021-07-29_20h00.21.182,Simcolourproject_2stim_asymm_v5,2020.2.10,Win32,60,61025ae37ef11b136ea224fe,,,,,,,,,656,42,81,1,0,0,response1disk,,7,17,15,1,0,0,rectangle,17,15,1,0,0,17,15,1,0,0,0,66,66,60,1,,,,,,,,
,,,,,,,,,,,,,FF,,,,,,,,1.0852,,,,,,,,,,,,,,,,,,,,,,60ff49d0bb904e48c69d0133,61036b2594c7d8bd8f5eab53,2021-07-29_20h00.21.182,Simcolourproject_2stim_asymm_v5,2020.2.10,Win32,60,61025ae37ef11b136ea224fe,,,,,,,,,1157,40,85,1,0,0,response1disk,,7,0,3,1,0,0,rectangle,0,3,1,0,0,0,3,1,0,0,0,67,67,88,1,,,,,,,,
,,,,,,,,,,,,,FF,,,,,,,,1.2667,,,,,,,,,,,,,,,,,,,,,,60ff49d0bb904e48c69d0133,61036b2594c7d8bd8f5eab53,2021-07-29_20h00.21.182,Simcolourproject_2stim_asymm_v5,2020.2.10,Win32,60,61025ae37ef11b136ea224fe,,,,,,,,,3695,32,58,1,0,0,response1disk,,7,-2,-18,1,0,0,rectangle,-2,-18,1,0,0,-2,-18,1,0,0,0,68,68,139,1,,,,,,,,
,,,,,,,,,,,,,FF,,,,,,,,3.1499,,,,,,,,,,,,,,,,,,,,,,60ff49d0bb904e48c69d0133,61036b2594c7d8bd8f5eab53,2021-07-29_20h00.21.182,Simcolourproject_2stim_asymm_v5,2020.2.10,Win32,60,61025ae37ef11b136ea224fe,,,,,,,,,991,42,70,1,0,0,response1disk,,7,4,-2,1,0,0,rectangle,4,-2,1,0,0,4,-2,1,0,0,0,69,69,23,1,,,,,,,,
,,,,,,,,,,,,,FF,,,,,,,,2.45,,,,,,,,,,,,,,,,,,,,,,60ff49d0bb904e48c69d0133,61036b2594c7d8bd8f5eab53,2021-07-29_20h00.21.182,Simcolourproject_2stim_asymm_v5,2020.2.10,Win32,60,61025ae37ef11b136ea224fe,,,,,,,,,2227,-43,-62,1,0,0,response5disk,,3,3,-3,1,0,0,rectangle,3,-3,1,0,0,3,-3,1,0,0,0,70,70,116,1,,,,,,,,
,,,,,,,,,,,,,FF,,,,,,,,0.9483,,,,,,,,,,,,,,,,,,,,,,60ff49d0bb904e48c69d0133,61036b2594c7d8bd8f5eab53,2021-07-29_20h00.21.182,Simcolourproject_2stim_asymm_v5,2020.2.10,Win32,60,61025ae37ef11b136ea224fe,,,,,,,,,376,61,89,1,0,0,response1disk,,7,1,-4,1,0,0,rectangle,1,-4,1,0,0,1,-4,1,0,0,0,71,71,29,1,,,,,,,,
,,,,,,,,,,,,,FF,,,,,,,,0.8333,,,,,,,,,,,,,,,,,,,,,,60ff49d0bb904e48c69d0133,61036b2594c7d8bd8f5eab53,2021-07-29_20h00.21.182,Simcolourproject_2stim_asymm_v5,2020.2.10,Win32,60,61025ae37ef11b136ea224fe,,,,,,,,,1569,47,71,1,0,0,response1disk,,7,-10,-8,1,0,0,rectangle,-10,-8,1,0,0,-10,-8,1,0,0,0,72,72,146,1,,,,,,,,
,,,,,,,,,,,,,FF,,,,,,,,1.715,,,,,,,,,,,,,,,,,,,,,,60ff49d0bb904e48c69d0133,61036b2594c7d8bd8f5eab53,2021-07-29_20h00.21.182,Simcolourproject_2stim_asymm_v5,2020.2.10,Win32,60,61025ae37ef11b136ea224fe,,,,,,,,,2905,32,60,1,0,0,response1disk,,7,6,0,1,0,0,rectangle,6,0,1,0,0,6,0,1,0,0,0,73,73,111,1,,,,,,,,
,,,,,,,,,,,,,FF,,,,,,,,1.3983,,,,,,,,,,,,,,,,,,,,,,60ff49d0bb904e48c69d0133,61036b2594c7d8bd8f5eab53,2021-07-29_20h00.21.182,Simcolourproject_2stim_asymm_v5,2020.2.10,Win32,60,61025ae37ef11b136ea224fe,,,,,,,,,632,-64,-31,1,0,0,response5disk,,2,-4,-4,1,0,0,rectangle,-4,-4,1,0,0,-4,-4,1,0,0,0,74,74,104,1,,,,,,,,
,,,,,,,,,,,,,FF,,,,,,,,2.4316,,,,,,,,,,,,,,,,,,,,,,60ff49d0bb904e48c69d0133,61036b2594c7d8bd8f5eab53,2021-07-29_20h00.21.182,Simcolourproject_2stim_asymm_v5,2020.2.10,Win32,60,61025ae37ef11b136ea224fe,,,,,,,,,3141,25,-78,1,0,0,response3disk,,4,-9,10,1,0,0,rectangle,-9,10,1,0,0,-9,10,1,0,0,0,75,75,148,1,,,,,,,,
,,,,,,,,,,,,,FF,,,,,,,,2.0352,,,,,,,,,,,,,,,,,,,,,,60ff49d0bb904e48c69d0133,61036b2594c7d8bd8f5eab53,2021-07-29_20h00.21.182,Simcolourproject_2stim_asymm_v5,2020.2.10,Win32,60,61025ae37ef11b136ea224fe,,,,,,,,,2038,78,-45,1,0,0,response3disk,,5,-5,3,1,0,0,rectangle,-5,3,1,0,0,-5,3,1,0,0,0,76,76,115,1,,,,,,,,
,,,,,,,,,,,,,FF,,,,,,,,1.0833,,,,,,,,,,,,,,,,,,,,,,60ff49d0bb904e48c69d0133,61036b2594c7d8bd8f5eab53,2021-07-29_20h00.21.182,Simcolourproject_2stim_asymm_v5,2020.2.10,Win32,60,61025ae37ef11b136ea224fe,,,,,,,,,1658,45,85,1,0,0,response1disk,,7,-4,8,1,0,0,rectangle,-4,8,1,0,0,-4,8,1,0,0,0,77,77,58,1,,,,,,,,
,,,,,,,,,,,,,FF,,,,,,,,3.715,,,,,,,,,,,,,,,,,,,,,,60ff49d0bb904e48c69d0133,61036b2594c7d8bd8f5eab53,2021-07-29_20h00.21.182,Simcolourproject_2stim_asymm_v5,2020.2.10,Win32,60,61025ae37ef11b136ea224fe,,,,,,,,,1067,58,85,1,0,0,response1disk,,7,10,-1,1,0,0,rectangle,10,-1,1,0,0,10,-1,1,0,0,0,78,78,142,1,,,,,,,,
,,,,,,,,,,,,,FF,,,,,,,,5.4833,,,,,,,,,,,,,,,,,,,,,,60ff49d0bb904e48c69d0133,61036b2594c7d8bd8f5eab53,2021-07-29_20h00.21.182,Simcolourproject_2stim_asymm_v5,2020.2.10,Win32,60,61025ae37ef11b136ea224fe,,,,,,,,,2339,50,83,1,0,0,response1disk,,7,2,-14,1,0,0,rectangle,2,-14,1,0,0,2,-14,1,0,0,0,79,79,39,1,,,,,,,,
,,,,,,,,,,,,,FF,,,,,,,,1.0501,,,,,,,,,,,,,,,,,,,,,,60ff49d0bb904e48c69d0133,61036b2594c7d8bd8f5eab53,2021-07-29_20h00.21.182,Simcolourproject_2stim_asymm_v5,2020.2.10,Win32,60,61025ae37ef11b136ea224fe,,,,,,,,,4343,-42,85,1,0,0,response7disk,,0,6,-2,1,0,0,rectangle,6,-2,1,0,0,6,-2,1,0,0,0,80,80,82,1,,,,,,,,
,,,,,,,,,,,,,FF,,,,,,,,4.9167,,,,,,,,,,,,,,,,,,,,,,60ff49d0bb904e48c69d0133,61036b2594c7d8bd8f5eab53,2021-07-29_20h00.21.182,Simcolourproject_2stim_asymm_v5,2020.2.10,Win32,60,61025ae37ef11b136ea224fe,,,,,,,,,1568,81,48,1,0,0,response1disk,,6,4,3,1,0,0,rectangle,4,3,1,0,0,4,3,1,0,0,0,81,81,83,1,,,,,,,,
,,,,,,,,,,,,,FF,,,,,,,,3.2168,,,,,,,,,,,,,,,,,,,,,,60ff49d0bb904e48c69d0133,61036b2594c7d8bd8f5eab53,2021-07-29_20h00.21.182,Simcolourproject_2stim_asymm_v5,2020.2.10,Win32,60,61025ae37ef11b136ea224fe,,,,,,,,,2108,38,80,1,0,0,response1disk,,7,1,-3,1,0,0,rectangle,1,-3,1,0,0,1,-3,1,0,0,0,82,82,70,1,,,,,,,,
,,,,,,,,,,,,,FF,,,,,,,,0.7518,,,,,,,,,,,,,,,,,,,,,,60ff49d0bb904e48c69d0133,61036b2594c7d8bd8f5eab53,2021-07-29_20h00.21.182,Simcolourproject_2stim_asymm_v5,2020.2.10,Win32,60,61025ae37ef11b136ea224fe,,,,,,,,,541,42,83,1,0,0,response1disk,,7,13,9,1,0,0,rectangle,13,9,1,0,0,13,9,1,0,0,0,83,83,143,1,,,,,,,,
,,,,,,,,,,,,,FF,,,,,,,,8.4002,,,,,,,,,,,,,,,,,,,,,,60ff49d0bb904e48c69d0133,61036b2594c7d8bd8f5eab53,2021-07-29_20h00.21.182,Simcolourproject_2stim_asymm_v5,2020.2.10,Win32,60,61025ae37ef11b136ea224fe,,,,,,,,,4032,106,35,1,0,0,response1disk,,6,16,-4,1,0,0,rectangle,16,-4,1,0,0,16,-4,1,0,0,0,84,84,85,1,,,,,,,,
,,,,,,,,,,,,,FF,,,,,,,,1.3168,,,,,,,,,,,,,,,,,,,,,,60ff49d0bb904e48c69d0133,61036b2594c7d8bd8f5eab53,2021-07-29_20h00.21.182,Simcolourproject_2stim_asymm_v5,2020.2.10,Win32,60,61025ae37ef11b136ea224fe,,,,,,,,,2223,41,-71,1,0,0,response3disk,,4,18,-4,1,0,0,rectangle,18,-4,1,0,0,18,-4,1,0,0,0,85,85,12,1,,,,,,,,
,,,,,,,,,,,,,FF,,,,,,,,1.95,,,,,,,,,,,,,,,,,,,,,,60ff49d0bb904e48c69d0133,61036b2594c7d8bd8f5eab53,2021-07-29_20h00.21.182,Simcolourproject_2stim_asymm_v5,2020.2.10,Win32,60,61025ae37ef11b136ea224fe,,,,,,,,,4044,81,-34,1,0,0,response3disk,,5,-15,9,1,0,0,rectangle,-15,9,1,0,0,-15,9,1,0,0,0,86,86,69,1,,,,,,,,
,,,,,,,,,,,,,FF,,,,,,,,1.0982,,,,,,,,,,,,,,,,,,,,,,60ff49d0bb904e48c69d0133,61036b2594c7d8bd8f5eab53,2021-07-29_20h00.21.182,Simcolourproject_2stim_asymm_v5,2020.2.10,Win32,60,61025ae37ef11b136ea224fe,,,,,,,,,3352,109,64,1,0,0,response1disk,,6,-15,5,1,0,0,rectangle,-15,5,1,0,0,-15,5,1,0,0,0,87,87,91,1,,,,,,,,
,,,,,,,,,,,,,FF,,,,,,,,0.9,,,,,,,,,,,,,,,,,,,,,,60ff49d0bb904e48c69d0133,61036b2594c7d8bd8f5eab53,2021-07-29_20h00.21.182,Simcolourproject_2stim_asymm_v5,2020.2.10,Win32,60,61025ae37ef11b136ea224fe,,,,,,,,,993,48,99,1,0,0,response1disk,,7,7,-11,1,0,0,rectangle,7,-11,1,0,0,7,-11,1,0,0,0,88,88,19,1,,,,,,,,
,,,,,,,,,,,,,FF,,,,,,,,1.1502,,,,,,,,,,,,,,,,,,,,,,60ff49d0bb904e48c69d0133,61036b2594c7d8bd8f5eab53,2021-07-29_20h00.21.182,Simcolourproject_2stim_asymm_v5,2020.2.10,Win32,60,61025ae37ef11b136ea224fe,,,,,,,,,965,42,74,1,0,0,response1disk,,7,-9,-10,1,0,0,rectangle,-9,-10,1,0,0,-9,-10,1,0,0,0,89,89,53,1,,,,,,,,
,,,,,,,,,,,,,FF,,,,,,,,1.4186,,,,,,,,,,,,,,,,,,,,,,60ff49d0bb904e48c69d0133,61036b2594c7d8bd8f5eab53,2021-07-29_20h00.21.182,Simcolourproject_2stim_asymm_v5,2020.2.10,Win32,60,61025ae37ef11b136ea224fe,,,,,,,,,1614,26,-65,1,0,0,response3disk,,4,-15,14,1,0,0,rectangle,-15,14,1,0,0,-15,14,1,0,0,0,90,90,49,1,,,,,,,,
,,,,,,,,,,,,,FF,,,,,,,,2.5501,,,,,,,,,,,,,,,,,,,,,,60ff49d0bb904e48c69d0133,61036b2594c7d8bd8f5eab53,2021-07-29_20h00.21.182,Simcolourproject_2stim_asymm_v5,2020.2.10,Win32,60,61025ae37ef11b136ea224fe,,,,,,,,,855,97,37,1,0,0,response1disk,,6,-1,-12,1,0,0,rectangle,-1,-12,1,0,0,-1,-12,1,0,0,0,91,91,45,1,,,,,,,,
,,,,,,,,,,,,,FF,,,,,,,,1.2353,,,,,,,,,,,,,,,,,,,,,,60ff49d0bb904e48c69d0133,61036b2594c7d8bd8f5eab53,2021-07-29_20h00.21.182,Simcolourproject_2stim_asymm_v5,2020.2.10,Win32,60,61025ae37ef11b136ea224fe,,,,,,,,,506,51,105,1,0,0,response1disk,,7,-5,-4,1,0,0,rectangle,-5,-4,1,0,0,-5,-4,1,0,0,0,92,92,35,1,,,,,,,,
,,,,,,,,,,,,,FF,,,,,,,,1.0333,,,,,,,,,,,,,,,,,,,,,,60ff49d0bb904e48c69d0133,61036b2594c7d8bd8f5eab53,2021-07-29_20h00.21.182,Simcolourproject_2stim_asymm_v5,2020.2.10,Win32,60,61025ae37ef11b136ea224fe,,,,,,,,,3926,46,82,1,0,0,response1disk,,7,3,1,1,0,0,rectangle,3,1,1,0,0,3,1,1,0,0,0,93,93,30,1,,,,,,,,
,,,,,,,,,,,,,FF,,,,,,,,1.4518,,,,,,,,,,,,,,,,,,,,,,60ff49d0bb904e48c69d0133,61036b2594c7d8bd8f5eab53,2021-07-29_20h00.21.182,Simcolourproject_2stim_asymm_v5,2020.2.10,Win32,60,61025ae37ef11b136ea224fe,,,,,,,,,2888,-30,-72,1,0,0,response5disk,,3,1,-1,1,0,0,rectangle,1,-1,1,0,0,1,-1,1,0,0,0,94,94,102,1,,,,,,,,
,,,,,,,,,,,,,FF,,,,,,,,1.4833,,,,,,,,,,,,,,,,,,,,,,60ff49d0bb904e48c69d0133,61036b2594c7d8bd8f5eab53,2021-07-29_20h00.21.182,Simcolourproject_2stim_asymm_v5,2020.2.10,Win32,60,61025ae37ef11b136ea224fe,,,,,,,,,3235,39,-60,1,0,0,response3disk,,4,6,4,1,0,0,rectangle,6,4,1,0,0,6,4,1,0,0,0,95,95,112,1,,,,,,,,
,,,,,,,,,,,,,FF,,,,,,,,2.0001,,,,,,,,,,,,,,,,,,,,,,60ff49d0bb904e48c69d0133,61036b2594c7d8bd8f5eab53,2021-07-29_20h00.21.182,Simcolourproject_2stim_asymm_v5,2020.2.10,Win32,60,61025ae37ef11b136ea224fe,,,,,,,,,2286,88,-28,1,0,0,response3disk,,5,4,-2,1,0,0,rectangle,82,50,1,0,0,1,-8,1,0,0,0,96,96,109,1,,response1disk_3,TRUE,6,6,"[97,152,201,32,202,139,38,226,272,29,58,247,318,216,196,204,111,120,281,134]",1.4337,rectangle
,,,,,,,,,,,,,FF,,,,,,,,1.9834,,,,,,,,,,,,,,,,,,,,,,60ff49d0bb904e48c69d0133,61036b2594c7d8bd8f5eab53,2021-07-29_20h00.21.182,Simcolourproject_2stim_asymm_v5,2020.2.10,Win32,60,61025ae37ef11b136ea224fe,,,,,,,,,1447,-63,-35,1,0,0,response5disk,,2,11,9,1,0,0,rectangle,11,9,1,0,0,11,9,1,0,0,0,97,97,81,1,,,,,,,,
,,,,,,,,,,,,,FF,,,,,,,,1.9,,,,,,,,,,,,,,,,,,,,,,60ff49d0bb904e48c69d0133,61036b2594c7d8bd8f5eab53,2021-07-29_20h00.21.182,Simcolourproject_2stim_asymm_v5,2020.2.10,Win32,60,61025ae37ef11b136ea224fe,,,,,,,,,2251,41,-63,1,0,0,response3disk,,4,2,1,1,0,0,rectangle,2,1,1,0,0,2,1,1,0,0,0,98,98,43,1,,,,,,,,
,,,,,,,,,,,,,FF,,,,,,,,1.5499,,,,,,,,,,,,,,,,,,,,,,60ff49d0bb904e48c69d0133,61036b2594c7d8bd8f5eab53,2021-07-29_20h00.21.182,Simcolourproject_2stim_asymm_v5,2020.2.10,Win32,60,61025ae37ef11b136ea224fe,,,,,,,,,2677,90,-23,1,0,0,response3disk,,5,0,5,1,0,0,rectangle,0,5,1,0,0,0,5,1,0,0,0,99,99,72,1,,,,,,,,
,,,,,,,,,,,,,FF,,,,,,,,6.9652,,,,,,,,,,,,,,,,,,,,,,60ff49d0bb904e48c69d0133,61036b2594c7d8bd8f5eab53,2021-07-29_20h00.21.182,Simcolourproject_2stim_asymm_v5,2020.2.10,Win32,60,61025ae37ef11b136ea224fe,,,,,,,,,244,69,-33,1,0,0,response3disk,,5,10,11,1,0,0,rectangle,10,11,1,0,0,10,11,1,0,0,0,100,100,128,1,,,,,,,,
,,,,,,,,,,,,,FF,,,,,,,,2.8168,,,,,,,,,,,,,,,,,,,,,,60ff49d0bb904e48c69d0133,61036b2594c7d8bd8f5eab53,2021-07-29_20h00.21.182,Simcolourproject_2stim_asymm_v5,2020.2.10,Win32,60,61025ae37ef11b136ea224fe,,,,,,,,,3113,103,45,1,0,0,response1disk,,6,10,4,1,0,0,rectangle,10,4,1,0,0,10,4,1,0,0,0,101,101,86,1,,,,,,,,
,,,,,,,,,,,,,FF,,,,,,,,1.1834,,,,,,,,,,,,,,,,,,,,,,60ff49d0bb904e48c69d0133,61036b2594c7d8bd8f5eab53,2021-07-29_20h00.21.182,Simcolourproject_2stim_asymm_v5,2020.2.10,Win32,60,61025ae37ef11b136ea224fe,,,,,,,,,3198,-30,-57,1,0,0,response5disk,,3,-8,1,1,0,0,rectangle,-8,1,1,0,0,-8,1,1,0,0,0,102,102,1,1,,,,,,,,
,,,,,,,,,,,,,FF,,,,,,,,3.8853,,,,,,,,,,,,,,,,,,,,,,60ff49d0bb904e48c69d0133,61036b2594c7d8bd8f5eab53,2021-07-29_20h00.21.182,Simcolourproject_2stim_asymm_v5,2020.2.10,Win32,60,61025ae37ef11b136ea224fe,,,,,,,,,1739,72,-34,1,0,0,response3disk,,5,-2,8,1,0,0,rectangle,-2,8,1,0,0,-2,8,1,0,0,0,103,103,158,1,,,,,,,,
,,,,,,,,,,,,,FF,,,,,,,,1.2501,,,,,,,,,,,,,,,,,,,,,,60ff49d0bb904e48c69d0133,61036b2594c7d8bd8f5eab53,2021-07-29_20h00.21.182,Simcolourproject_2stim_asymm_v5,2020.2.10,Win32,60,61025ae37ef11b136ea224fe,,,,,,,,,2641,79,52,1,0,0,response1disk,,6,6,1,1,0,0,rectangle,6,1,1,0,0,6,1,1,0,0,0,104,104,4,1,,,,,,,,
,,,,,,,,,,,,,FF,,,,,,,,0.9833,,,,,,,,,,,,,,,,,,,,,,60ff49d0bb904e48c69d0133,61036b2594c7d8bd8f5eab53,2021-07-29_20h00.21.182,Simcolourproject_2stim_asymm_v5,2020.2.10,Win32,60,61025ae37ef11b136ea224fe,,,,,,,,,2327,39,75,1,0,0,response1disk,,7,11,8,1,0,0,rectangle,11,8,1,0,0,11,8,1,0,0,0,105,105,13,1,,,,,,,,
,,,,,,,,,,,,,FF,,,,,,,,1.4668,,,,,,,,,,,,,,,,,,,,,,60ff49d0bb904e48c69d0133,61036b2594c7d8bd8f5eab53,2021-07-29_20h00.21.182,Simcolourproject_2stim_asymm_v5,2020.2.10,Win32,60,61025ae37ef11b136ea224fe,,,,,,,,,1577,39,78,1,0,0,response1disk,,7,6,6,1,0,0,rectangle,6,6,1,0,0,6,6,1,0,0,0,106,106,114,1,,,,,,,,
,,,,,,,,,,,,,FF,,,,,,,,2.3666,,,,,,,,,,,,,,,,,,,,,,60ff49d0bb904e48c69d0133,61036b2594c7d8bd8f5eab53,2021-07-29_20h00.21.182,Simcolourproject_2stim_asymm_v5,2020.2.10,Win32,60,61025ae37ef11b136ea224fe,,,,,,,,,2807,79,45,1,0,0,response1disk,,6,20,-1,1,0,0,rectangle,20,-1,1,0,0,20,-1,1,0,0,0,107,107,127,1,,,,,,,,
,,,,,,,,,,,,,FF,,,,,,,,2.4166,,,,,,,,,,,,,,,,,,,,,,60ff49d0bb904e48c69d0133,61036b2594c7d8bd8f5eab53,2021-07-29_20h00.21.182,Simcolourproject_2stim_asymm_v5,2020.2.10,Win32,60,61025ae37ef11b136ea224fe,,,,,,,,,183,32,82,1,0,0,response1disk,,7,-6,4,1,0,0,rectangle,-6,4,1,0,0,-6,4,1,0,0,0,108,108,42,1,,,,,,,,
,,,,,,,,,,,,,FF,,,,,,,,14.4335,,,,,,,,,,,,,,,,,,,,,,60ff49d0bb904e48c69d0133,61036b2594c7d8bd8f5eab53,2021-07-29_20h00.21.182,Simcolourproject_2stim_asymm_v5,2020.2.10,Win32,60,61025ae37ef11b136ea224fe,,,,,,,,,386,45,92,1,0,0,response1disk,,7,10,5,1,0,0,rectangle,10,5,1,0,0,10,5,1,0,0,0,109,109,20,1,,,,,,,,
,,,,,,,,,,,,,FF,,,,,,,,3.2834,,,,,,,,,,,,,,,,,,,,,,60ff49d0bb904e48c69d0133,61036b2594c7d8bd8f5eab53,2021-07-29_20h00.21.182,Simcolourproject_2stim_asymm_v5,2020.2.10,Win32,60,61025ae37ef11b136ea224fe,,,,,,,,,245,102,40,1,0,0,response1disk,,6,-15,0,1,0,0,rectangle,-36,85,1,0,0,18,-1,1,0,0,0,110,110,153,1,,response7disk_3,TRUE,0,0,"[97,152,201,32,202,139,38,226,272,29,58,247,318,216,196,204,111,120,281,134]",1.8686,rectangle
,,,,,,,,,,,,,FF,,,,,,,,10.5835,,,,,,,,,,,,,,,,,,,,,,60ff49d0bb904e48c69d0133,61036b2594c7d8bd8f5eab53,2021-07-29_20h00.21.182,Simcolourproject_2stim_asymm_v5,2020.2.10,Win32,60,61025ae37ef11b136ea224fe,,,,,,,,,609,92,45,1,0,0,response1disk,,6,4,-6,1,0,0,rectangle,4,-6,1,0,0,4,-6,1,0,0,0,111,111,77,1,,,,,,,,
,,,,,,,,,,,,,FF,,,,,,,,1.0499,,,,,,,,,,,,,,,,,,,,,,60ff49d0bb904e48c69d0133,61036b2594c7d8bd8f5eab53,2021-07-29_20h00.21.182,Simcolourproject_2stim_asymm_v5,2020.2.10,Win32,60,61025ae37ef11b136ea224fe,,,,,,,,,2783,-48,-68,1,0,0,response5disk,,3,11,-7,1,0,0,rectangle,11,-7,1,0,0,11,-7,1,0,0,0,112,112,18,1,,,,,,,,
,,,,,,,,,,,,,FF,,,,,,,,2.6667,,,,,,,,,,,,,,,,,,,,,,60ff49d0bb904e48c69d0133,61036b2594c7d8bd8f5eab53,2021-07-29_20h00.21.182,Simcolourproject_2stim_asymm_v5,2020.2.10,Win32,60,61025ae37ef11b136ea224fe,,,,,,,,,3814,33,-72,1,0,0,response3disk,,4,4,3,1,0,0,rectangle,4,3,1,0,0,4,3,1,0,0,0,113,113,94,1,,,,,,,,
,,,,,,,,,,,,,FF,,,,,,,,1.3166,,,,,,,,,,,,,,,,,,,,,,60ff49d0bb904e48c69d0133,61036b2594c7d8bd8f5eab53,2021-07-29_20h00.21.182,Simcolourproject_2stim_asymm_v5,2020.2.10,Win32,60,61025ae37ef11b136ea224fe,,,,,,,,,1556,50,72,1,0,0,response1disk,,7,-7,-8,1,0,0,rectangle,-7,-8,1,0,0,-7,-8,1,0,0,0,114,114,22,1,,,,,,,,
,,,,,,,,,,,,,FF,,,,,,,,1.2667,,,,,,,,,,,,,,,,,,,,,,60ff49d0bb904e48c69d0133,61036b2594c7d8bd8f5eab53,2021-07-29_20h00.21.182,Simcolourproject_2stim_asymm_v5,2020.2.10,Win32,60,61025ae37ef11b136ea224fe,,,,,,,,,3279,48,76,1,0,0,response1disk,,7,3,5,1,0,0,rectangle,3,5,1,0,0,3,5,1,0,0,0,115,115,64,1,,,,,,,,
,,,,,,,,,,,,,FF,,,,,,,,1.1169,,,,,,,,,,,,,,,,,,,,,,60ff49d0bb904e48c69d0133,61036b2594c7d8bd8f5eab53,2021-07-29_20h00.21.182,Simcolourproject_2stim_asymm_v5,2020.2.10,Win32,60,61025ae37ef11b136ea224fe,,,,,,,,,214,73,37,1,0,0,response1disk,,6,-10,-6,1,0,0,rectangle,-10,-6,1,0,0,-10,-6,1,0,0,0,116,116,5,1,,,,,,,,
,,,,,,,,,,,,,FF,,,,,,,,1.4333,,,,,,,,,,,,,,,,,,,,,,60ff49d0bb904e48c69d0133,61036b2594c7d8bd8f5eab53,2021-07-29_20h00.21.182,Simcolourproject_2stim_asymm_v5,2020.2.10,Win32,60,61025ae37ef11b136ea224fe,,,,,,,,,1387,29,-63,1,0,0,response3disk,,4,-8,0,1,0,0,rectangle,-8,0,1,0,0,-8,0,1,0,0,0,117,117,108,1,,,,,,,,
,,,,,,,,,,,,,FF,,,,,,,,3.4668,,,,,,,,,,,,,,,,,,,,,,60ff49d0bb904e48c69d0133,61036b2594c7d8bd8f5eab53,2021-07-29_20h00.21.182,Simcolourproject_2stim_asymm_v5,2020.2.10,Win32,60,61025ae37ef11b136ea224fe,,,,,,,,,2312,67,-32,1,0,0,response3disk,,5,-14,3,1,0,0,rectangle,-14,3,1,0,0,-14,3,1,0,0,0,118,118,105,1,,,,,,,,
,,,,,,,,,,,,,FF,,,,,,,,1.7317,,,,,,,,,,,,,,,,,,,,,,60ff49d0bb904e48c69d0133,61036b2594c7d8bd8f5eab53,2021-07-29_20h00.21.182,Simcolourproject_2stim_asymm_v5,2020.2.10,Win32,60,61025ae37ef11b136ea224fe,,,,,,,,,2687,68,32,1,0,0,response1disk,,6,-3,8,1,0,0,rectangle,73,32,1,0,0,7,13,1,0,0,0,119,119,152,1,,response1disk_3,TRUE,6,6,"[97,152,201,32,202,139,38,226,272,29,58,247,318,216,196,204,111,120,281,134]",1.4835,rectangle
,,,,,,,,,,,,,FF,,,,,,,,5.8168,,,,,,,,,,,,,,,,,,,,,,60ff49d0bb904e48c69d0133,61036b2594c7d8bd8f5eab53,2021-07-29_20h00.21.182,Simcolourproject_2stim_asymm_v5,2020.2.10,Win32,60,61025ae37ef11b136ea224fe,,,,,,,,,3725,97,-44,1,0,0,response3disk,,5,10,2,1,0,0,rectangle,10,2,1,0,0,10,2,1,0,0,0,120,120,150,1,,,,,,,,
,,,,,,,,,,,,,FF,,,,,,,,1.4,,,,,,,,,,,,,,,,,,,,,,60ff49d0bb904e48c69d0133,61036b2594c7d8bd8f5eab53,2021-07-29_20h00.21.182,Simcolourproject_2stim_asymm_v5,2020.2.10,Win32,60,61025ae37ef11b136ea224fe,,,,,,,,,1461,-37,-81,1,0,0,response5disk,,3,-1,-8,1,0,0,rectangle,-1,-8,1,0,0,-1,-8,1,0,0,0,121,121,107,1,,,,,,,,
,,,,,,,,,,,,,FF,,,,,,,,1.7001,,,,,,,,,,,,,,,,,,,,,,60ff49d0bb904e48c69d0133,61036b2594c7d8bd8f5eab53,2021-07-29_20h00.21.182,Simcolourproject_2stim_asymm_v5,2020.2.10,Win32,60,61025ae37ef11b136ea224fe,,,,,,,,,4128,28,-66,1,0,0,response3disk,,4,7,1,1,0,0,rectangle,7,1,1,0,0,7,1,1,0,0,0,122,122,123,1,,,,,,,,
,,,,,,,,,,,,,FF,,,,,,,,0.8999,,,,,,,,,,,,,,,,,,,,,,60ff49d0bb904e48c69d0133,61036b2594c7d8bd8f5eab53,2021-07-29_20h00.21.182,Simcolourproject_2stim_asymm_v5,2020.2.10,Win32,60,61025ae37ef11b136ea224fe,,,,,,,,,2225,50,86,1,0,0,response1disk,,7,-13,-3,1,0,0,rectangle,-13,-3,1,0,0,-13,-3,1,0,0,0,123,123,67,1,,,,,,,,
,,,,,,,,,,,,,FF,,,,,,,,1.7517,,,,,,,,,,,,,,,,,,,,,,60ff49d0bb904e48c69d0133,61036b2594c7d8bd8f5eab53,2021-07-29_20h00.21.182,Simcolourproject_2stim_asymm_v5,2020.2.10,Win32,60,61025ae37ef11b136ea224fe,,,,,,,,,1771,99,29,1,0,0,response1disk,,6,27,7,1,0,0,rectangle,27,7,1,0,0,27,7,1,0,0,0,124,124,80,1,,,,,,,,
,,,,,,,,,,,,,FF,,,,,,,,2.3183,,,,,,,,,,,,,,,,,,,,,,60ff49d0bb904e48c69d0133,61036b2594c7d8bd8f5eab53,2021-07-29_20h00.21.182,Simcolourproject_2stim_asymm_v5,2020.2.10,Win32,60,61025ae37ef11b136ea224fe,,,,,,,,,1964,38,-86,1,0,0,response3disk,,4,5,-8,1,0,0,rectangle,5,-8,1,0,0,5,-8,1,0,0,0,125,125,134,1,,,,,,,,
,,,,,,,,,,,,,FF,,,,,,,,2.4501,,,,,,,,,,,,,,,,,,,,,,60ff49d0bb904e48c69d0133,61036b2594c7d8bd8f5eab53,2021-07-29_20h00.21.182,Simcolourproject_2stim_asymm_v5,2020.2.10,Win32,60,61025ae37ef11b136ea224fe,,,,,,,,,4074,80,-35,1,0,0,response3disk,,5,-1,3,1,0,0,rectangle,-1,3,1,0,0,-1,3,1,0,0,0,126,126,26,1,,,,,,,,
,,,,,,,,,,,,,FF,,,,,,,,1.05,,,,,,,,,,,,,,,,,,,,,,60ff49d0bb904e48c69d0133,61036b2594c7d8bd8f5eab53,2021-07-29_20h00.21.182,Simcolourproject_2stim_asymm_v5,2020.2.10,Win32,60,61025ae37ef11b136ea224fe,,,,,,,,,3688,49,61,1,0,0,response1disk,,7,25,12,1,0,0,rectangle,25,12,1,0,0,25,12,1,0,0,0,127,127,17,1,,,,,,,,
,,,,,,,,,,,,,FF,,,,,,,,1.3652,,,,,,,,,,,,,,,,,,,,,,60ff49d0bb904e48c69d0133,61036b2594c7d8bd8f5eab53,2021-07-29_20h00.21.182,Simcolourproject_2stim_asymm_v5,2020.2.10,Win32,60,61025ae37ef11b136ea224fe,,,,,,,,,1,34,-58,1,0,0,response3disk,,4,16,-10,1,0,0,rectangle,16,-10,1,0,0,16,-10,1,0,0,0,128,128,131,1,,,,,,,,
,,,,,,,,,,,,,FF,,,,,,,,1.3668,,,,,,,,,,,,,,,,,,,,,,60ff49d0bb904e48c69d0133,61036b2594c7d8bd8f5eab53,2021-07-29_20h00.21.182,Simcolourproject_2stim_asymm_v5,2020.2.10,Win32,60,61025ae37ef11b136ea224fe,,,,,,,,,3411,88,42,1,0,0,response1disk,,6,4,0,1,0,0,rectangle,4,0,1,0,0,4,0,1,0,0,0,129,129,46,1,,,,,,,,
,,,,,,,,,,,,,FF,,,,,,,,1.1165,,,,,,,,,,,,,,,,,,,,,,60ff49d0bb904e48c69d0133,61036b2594c7d8bd8f5eab53,2021-07-29_20h00.21.182,Simcolourproject_2stim_asymm_v5,2020.2.10,Win32,60,61025ae37ef11b136ea224fe,,,,,,,,,649,54,84,1,0,0,response1disk,,7,7,-1,1,0,0,rectangle,7,-1,1,0,0,7,-1,1,0,0,0,130,130,27,1,,,,,,,,
,,,,,,,,,,,,,FF,,,,,,,,2.1001,,,,,,,,,,,,,,,,,,,,,,60ff49d0bb904e48c69d0133,61036b2594c7d8bd8f5eab53,2021-07-29_20h00.21.182,Simcolourproject_2stim_asymm_v5,2020.2.10,Win32,60,61025ae37ef11b136ea224fe,,,,,,,,,3948,82,27,1,0,0,response1disk,,6,6,-9,1,0,0,rectangle,6,-9,1,0,0,6,-9,1,0,0,0,131,131,135,1,,,,,,,,
,,,,,,,,,,,,,FF,,,,,,,,3.8335,,,,,,,,,,,,,,,,,,,,,,60ff49d0bb904e48c69d0133,61036b2594c7d8bd8f5eab53,2021-07-29_20h00.21.182,Simcolourproject_2stim_asymm_v5,2020.2.10,Win32,60,61025ae37ef11b136ea224fe,,,,,,,,,816,85,37,1,0,0,response1disk,,6,26,-2,1,0,0,rectangle,26,-2,1,0,0,26,-2,1,0,0,0,132,132,145,1,,,,,,,,
,,,,,,,,,,,,,FF,,,,,,,,2.6333,,,,,,,,,,,,,,,,,,,,,,60ff49d0bb904e48c69d0133,61036b2594c7d8bd8f5eab53,2021-07-29_20h00.21.182,Simcolourproject_2stim_asymm_v5,2020.2.10,Win32,60,61025ae37ef11b136ea224fe,,,,,,,,,2351,31,-66,1,0,0,response3disk,,4,20,-12,1,0,0,rectangle,-68,-33,1,0,0,7,-4,1,0,0,0,133,133,51,1,,response5disk_3,TRUE,2,2,"[97,152,201,32,202,139,38,226,272,29,58,247,318,216,196,204,111,120,281,134]",1.5519,rectangle
,,,,,,,,,,,,,FF,,,,,,,,2.3167,,,,,,,,,,,,,,,,,,,,,,60ff49d0bb904e48c69d0133,61036b2594c7d8bd8f5eab53,2021-07-29_20h00.21.182,Simcolourproject_2stim_asymm_v5,2020.2.10,Win32,60,61025ae37ef11b136ea224fe,,,,,,,,,2766,40,73,1,0,0,response1disk,,7,11,1,1,0,0,rectangle,11,1,1,0,0,11,1,1,0,0,0,134,134,38,1,,,,,,,,
,,,,,,,,,,,,,FF,,,,,,,,0.8501,,,,,,,,,,,,,,,,,,,,,,60ff49d0bb904e48c69d0133,61036b2594c7d8bd8f5eab53,2021-07-29_20h00.21.182,Simcolourproject_2stim_asymm_v5,2020.2.10,Win32,60,61025ae37ef11b136ea224fe,,,,,,,,,4370,-24,74,1,0,0,response7disk,,0,7,9,1,0,0,rectangle,7,9,1,0,0,7,9,1,0,0,0,135,135,155,1,,,,,,,,
,,,,,,,,,,,,,FF,,,,,,,,3.5334,,,,,,,,,,,,,,,,,,,,,,60ff49d0bb904e48c69d0133,61036b2594c7d8bd8f5eab53,2021-07-29_20h00.21.182,Simcolourproject_2stim_asymm_v5,2020.2.10,Win32,60,61025ae37ef11b136ea224fe,,,,,,,,,614,95,-41,1,0,0,response3disk,,5,6,2,1,0,0,rectangle,6,2,1,0,0,6,2,1,0,0,0,136,136,66,1,,,,,,,,
,,,,,,,,,,,,,FF,,,,,,,,7.5152,,,,,,,,,,,,,,,,,,,,,,60ff49d0bb904e48c69d0133,61036b2594c7d8bd8f5eab53,2021-07-29_20h00.21.182,Simcolourproject_2stim_asymm_v5,2020.2.10,Win32,60,61025ae37ef11b136ea224fe,,,,,,,,,191,96,-40,1,0,0,response3disk,,5,12,3,1,0,0,rectangle,12,3,1,0,0,12,3,1,0,0,0,137,137,76,1,,,,,,,,
,,,,,,,,,,,,,FF,,,,,,,,1.6333,,,,,,,,,,,,,,,,,,,,,,60ff49d0bb904e48c69d0133,61036b2594c7d8bd8f5eab53,2021-07-29_20h00.21.182,Simcolourproject_2stim_asymm_v5,2020.2.10,Win32,60,61025ae37ef11b136ea224fe,,,,,,,,,4167,33,-69,1,0,0,response3disk,,4,17,-8,1,0,0,rectangle,40,97,1,0,0,6,-5,1,0,0,0,138,138,0,1,,response1disk_3,TRUE,7,7,"[97,152,201,32,202,139,38,226,272,29,58,247,318,216,196,204,111,120,281,134]",2.8334,rectangle
,,,,,,,,,,,,,FF,,,,,,,,1.5666,,,,,,,,,,,,,,,,,,,,,,60ff49d0bb904e48c69d0133,61036b2594c7d8bd8f5eab53,2021-07-29_20h00.21.182,Simcolourproject_2stim_asymm_v5,2020.2.10,Win32,60,61025ae37ef11b136ea224fe,,,,,,,,,4250,42,67,1,0,0,response1disk,,7,14,12,1,0,0,rectangle,14,12,1,0,0,14,12,1,0,0,0,139,139,36,1,,,,,,,,
,,,,,,,,,,,,,FF,,,,,,,,2.3332,,,,,,,,,,,,,,,,,,,,,,60ff49d0bb904e48c69d0133,61036b2594c7d8bd8f5eab53,2021-07-29_20h00.21.182,Simcolourproject_2stim_asymm_v5,2020.2.10,Win32,60,61025ae37ef11b136ea224fe,,,,,,,,,702,79,34,1,0,0,response1disk,,6,6,2,1,0,0,rectangle,6,2,1,0,0,6,2,1,0,0,0,140,140,93,1,,,,,,,,
,,,,,,,,,,,,,FF,,,,,,,,1.5835,,,,,,,,,,,,,,,,,,,,,,60ff49d0bb904e48c69d0133,61036b2594c7d8bd8f5eab53,2021-07-29_20h00.21.182,Simcolourproject_2stim_asymm_v5,2020.2.10,Win32,60,61025ae37ef11b136ea224fe,,,,,,,,,1531,95,-31,1,0,0,response3disk,,5,9,-1,1,0,0,rectangle,9,-1,1,0,0,9,-1,1,0,0,0,141,141,125,1,,,,,,,,
,,,,,,,,,,,,,FF,,,,,,,,1.0668,,,,,,,,,,,,,,,,,,,,,,60ff49d0bb904e48c69d0133,61036b2594c7d8bd8f5eab53,2021-07-29_20h00.21.182,Simcolourproject_2stim_asymm_v5,2020.2.10,Win32,60,61025ae37ef11b136ea224fe,,,,,,,,,4256,76,35,1,0,0,response1disk,,6,-8,6,1,0,0,rectangle,-8,6,1,0,0,-8,6,1,0,0,0,142,142,24,1,,,,,,,,
,,,,,,,,,,,,,FF,,,,,,,,0.9018,,,,,,,,,,,,,,,,,,,,,,60ff49d0bb904e48c69d0133,61036b2594c7d8bd8f5eab53,2021-07-29_20h00.21.182,Simcolourproject_2stim_asymm_v5,2020.2.10,Win32,60,61025ae37ef11b136ea224fe,,,,,,,,,716,-46,83,1,0,0,response7disk,,0,1,9,1,0,0,rectangle,1,9,1,0,0,1,9,1,0,0,0,143,143,117,1,,,,,,,,
,,,,,,,,,,,,,FF,,,,,,,,1.9352,,,,,,,,,,,,,,,,,,,,,,60ff49d0bb904e48c69d0133,61036b2594c7d8bd8f5eab53,2021-07-29_20h00.21.182,Simcolourproject_2stim_asymm_v5,2020.2.10,Win32,60,61025ae37ef11b136ea224fe,,,,,,,,,3190,-62,-34,1,0,0,response5disk,,2,-12,-2,1,0,0,rectangle,-12,-2,1,0,0,-12,-2,1,0,0,0,144,144,8,1,,,,,,,,
,,,,,,,,,,,,,FF,,,,,,,,1.3334,,,,,,,,,,,,,,,,,,,,,,60ff49d0bb904e48c69d0133,61036b2594c7d8bd8f5eab53,2021-07-29_20h00.21.182,Simcolourproject_2stim_asymm_v5,2020.2.10,Win32,60,61025ae37ef11b136ea224fe,,,,,,,,,2164,-45,-65,1,0,0,response5disk,,3,10,13,1,0,0,rectangle,10,13,1,0,0,10,13,1,0,0,0,145,145,154,1,,,,,,,,
,,,,,,,,,,,,,FF,,,,,,,,1.3167,,,,,,,,,,,,,,,,,,,,,,60ff49d0bb904e48c69d0133,61036b2594c7d8bd8f5eab53,2021-07-29_20h00.21.182,Simcolourproject_2stim_asymm_v5,2020.2.10,Win32,60,61025ae37ef11b136ea224fe,,,,,,,,,2691,73,-36,1,0,0,response3disk,,5,19,10,1,0,0,rectangle,19,10,1,0,0,19,10,1,0,0,0,146,146,151,1,,,,,,,,
,,,,,,,,,,,,,FF,,,,,,,,1.9332,,,,,,,,,,,,,,,,,,,,,,60ff49d0bb904e48c69d0133,61036b2594c7d8bd8f5eab53,2021-07-29_20h00.21.182,Simcolourproject_2stim_asymm_v5,2020.2.10,Win32,60,61025ae37ef11b136ea224fe,,,,,,,,,4239,81,-37,1,0,0,response3disk,,5,16,-4,1,0,0,rectangle,16,-4,1,0,0,16,-4,1,0,0,0,147,147,73,1,,,,,,,,
,,,,,,,,,,,,,FF,,,,,,,,1.8834,,,,,,,,,,,,,,,,,,,,,,60ff49d0bb904e48c69d0133,61036b2594c7d8bd8f5eab53,2021-07-29_20h00.21.182,Simcolourproject_2stim_asymm_v5,2020.2.10,Win32,60,61025ae37ef11b136ea224fe,,,,,,,,,2482,-34,-57,1,0,0,response5disk,,3,9,4,1,0,0,rectangle,9,4,1,0,0,9,4,1,0,0,0,148,148,101,1,,,,,,,,
,,,,,,,,,,,,,FF,,,,,,,,1.1834,,,,,,,,,,,,,,,,,,,,,,60ff49d0bb904e48c69d0133,61036b2594c7d8bd8f5eab53,2021-07-29_20h00.21.182,Simcolourproject_2stim_asymm_v5,2020.2.10,Win32,60,61025ae37ef11b136ea224fe,,,,,,,,,2396,72,44,1,0,0,response1disk,,6,-4,7,1,0,0,rectangle,-4,7,1,0,0,-4,7,1,0,0,0,149,149,41,1,,,,,,,,
,,,,,,,,,,,,,FF,,,,,,,,1.1351,,,,,,,,,,,,,,,,,,,,,,60ff49d0bb904e48c69d0133,61036b2594c7d8bd8f5eab53,2021-07-29_20h00.21.182,Simcolourproject_2stim_asymm_v5,2020.2.10,Win32,60,61025ae37ef11b136ea224fe,,,,,,,,,2927,41,84,1,0,0,response1disk,,7,-2,9,1,0,0,rectangle,-2,9,1,0,0,-2,9,1,0,0,0,150,150,141,1,,,,,,,,
,,,,,,,,,,,,,FF,,,,,,,,1.4501,,,,,,,,,,,,,,,,,,,,,,60ff49d0bb904e48c69d0133,61036b2594c7d8bd8f5eab53,2021-07-29_20h00.21.182,Simcolourproject_2stim_asymm_v5,2020.2.10,Win32,60,61025ae37ef11b136ea224fe,,,,,,,,,3187,41,-75,1,0,0,response3disk,,4,12,-8,1,0,0,rectangle,-55,-36,1,0,0,0,-13,1,0,0,0,151,151,50,1,,response5disk_3,TRUE,2,2,"[97,152,201,32,202,139,38,226,272,29,58,247,318,216,196,204,111,120,281,134]",2.0165,rectangle
,,,,,,,,,,,,,FF,,,,,,,,3.7484,,,,,,,,,,,,,,,,,,,,,,60ff49d0bb904e48c69d0133,61036b2594c7d8bd8f5eab53,2021-07-29_20h00.21.182,Simcolourproject_2stim_asymm_v5,2020.2.10,Win32,60,61025ae37ef11b136ea224fe,,,,,,,,,2234,-32,-71,1,0,0,response5disk,,3,13,0,1,0,0,rectangle,13,0,1,0,0,13,0,1,0,0,0,152,152,15,1,,,,,,,,
,,,,,,,,,,,,,FF,,,,,,,,3.1167,,,,,,,,,,,,,,,,,,,,,,60ff49d0bb904e48c69d0133,61036b2594c7d8bd8f5eab53,2021-07-29_20h00.21.182,Simcolourproject_2stim_asymm_v5,2020.2.10,Win32,60,61025ae37ef11b136ea224fe,,,,,,,,,2118,82,-43,1,0,0,response3disk,,5,0,-18,1,0,0,rectangle,0,-18,1,0,0,0,-18,1,0,0,0,153,153,75,1,,,,,,,,
,,,,,,,,,,,,,FF,,,,,,,,1.1667,,,,,,,,,,,,,,,,,,,,,,60ff49d0bb904e48c69d0133,61036b2594c7d8bd8f5eab53,2021-07-29_20h00.21.182,Simcolourproject_2stim_asymm_v5,2020.2.10,Win32,60,61025ae37ef11b136ea224fe,,,,,,,,,1896,35,-81,1,0,0,response3disk,,4,2,3,1,0,0,rectangle,2,3,1,0,0,2,3,1,0,0,0,154,154,55,1,,,,,,,,
,,,,,,,,,,,,,FF,,,,,,,,1.7667,,,,,,,,,,,,,,,,,,,,,,60ff49d0bb904e48c69d0133,61036b2594c7d8bd8f5eab53,2021-07-29_20h00.21.182,Simcolourproject_2stim_asymm_v5,2020.2.10,Win32,60,61025ae37ef11b136ea224fe,,,,,,,,,1544,80,-35,1,0,0,response3disk,,5,2,4,1,0,0,rectangle,2,4,1,0,0,2,4,1,0,0,0,155,155,56,1,,,,,,,,
,,,,,,,,,,,,,FF,,,,,,,,1.05,,,,,,,,,,,,,,,,,,,,,,60ff49d0bb904e48c69d0133,61036b2594c7d8bd8f5eab53,2021-07-29_20h00.21.182,Simcolourproject_2stim_asymm_v5,2020.2.10,Win32,60,61025ae37ef11b136ea224fe,,,,,,,,,4351,-64,-35,1,0,0,response5disk,,2,1,-7,1,0,0,rectangle,1,-7,1,0,0,1,-7,1,0,0,0,156,156,57,1,,,,,,,,
,,,,,,,,,,,,,FF,,,,,,,,1.4834,,,,,,,,,,,,,,,,,,,,,,60ff49d0bb904e48c69d0133,61036b2594c7d8bd8f5eab53,2021-07-29_20h00.21.182,Simcolourproject_2stim_asymm_v5,2020.2.10,Win32,60,61025ae37ef11b136ea224fe,,,,,,,,,4121,35,-75,1,0,0,response3disk,,4,6,1,1,0,0,rectangle,6,1,1,0,0,6,1,1,0,0,0,157,157,92,1,,,,,,,,
,,,,,,,,,,,,,FF,,,,,,,,0.9332,,,,,,,,,,,,,,,,,,,,,,60ff49d0bb904e48c69d0133,61036b2594c7d8bd8f5eab53,2021-07-29_20h00.21.182,Simcolourproject_2stim_asymm_v5,2020.2.10,Win32,60,61025ae37ef11b136ea224fe,,,,,,,,,501,72,55,1,0,0,response1disk,,6,-9,12,1,0,0,rectangle,-9,12,1,0,0,-9,12,1,0,0,0,158,158,147,1,,,,,,,,
,,,,,,,,,,,,,FF,,,,,,,,0.9501,,,,,,,,,,,,,,,,,,,,,,60ff49d0bb904e48c69d0133,61036b2594c7d8bd8f5eab53,2021-07-29_20h00.21.182,Simcolourproject_2stim_asymm_v5,2020.2.10,Win32,60,61025ae37ef11b136ea224fe,,,,,,,,,1251,51,79,1,0,0,response1disk,,7,4,-6,1,0,0,rectangle,4,-6,1,0,0,4,-6,1,0,0,0,159,159,9,1,,,,,,,,
,,,,,,,,,,,,,FF,,,,,,,,0.8833,,,,,,,,,,,,,,,,,,,,,,60ff49d0bb904e48c69d0133,61036b2594c7d8bd8f5eab53,2021-07-29_20h00.21.182,Simcolourproject_2stim_asymm_v5,2020.2.10,Win32,60,61025ae37ef11b136ea224fe,,,,,,,,,3283,-44,-70,1,0,0,response5disk,,3,1,-16,1,0,0,rectangle,1,-16,1,0,0,1,-16,1,0,0,1,0,160,88,1,,,,,,,,
,,,,,,,,,,,,,FF,,,,,,,,3.5851,,,,,,,,,,,,,,,,,,,,,,60ff49d0bb904e48c69d0133,61036b2594c7d8bd8f5eab53,2021-07-29_20h00.21.182,Simcolourproject_2stim_asymm_v5,2020.2.10,Win32,60,61025ae37ef11b136ea224fe,,,,,,,,,6,-36,-68,1,0,0,response5disk,,3,9,2,1,0,0,rectangle,9,2,1,0,0,9,2,1,0,0,1,1,161,139,1,,,,,,,,
,,,,,,,,,,,,,FF,,,,,,,,1.25,,,,,,,,,,,,,,,,,,,,,,60ff49d0bb904e48c69d0133,61036b2594c7d8bd8f5eab53,2021-07-29_20h00.21.182,Simcolourproject_2stim_asymm_v5,2020.2.10,Win32,60,61025ae37ef11b136ea224fe,,,,,,,,,2914,72,-36,1,0,0,response3disk,,5,12,-4,1,0,0,rectangle,12,-4,1,0,0,12,-4,1,0,0,1,2,162,123,1,,,,,,,,
,,,,,,,,,,,,,FF,,,,,,,,1.2334,,,,,,,,,,,,,,,,,,,,,,60ff49d0bb904e48c69d0133,61036b2594c7d8bd8f5eab53,2021-07-29_20h00.21.182,Simcolourproject_2stim_asymm_v5,2020.2.10,Win32,60,61025ae37ef11b136ea224fe,,,,,,,,,273,30,74,1,0,0,response1disk,,7,-3,3,1,0,0,rectangle,-3,3,1,0,0,-3,3,1,0,0,1,3,163,45,1,,,,,,,,
,,,,,,,,,,,,,FF,,,,,,,,0.9999,,,,,,,,,,,,,,,,,,,,,,60ff49d0bb904e48c69d0133,61036b2594c7d8bd8f5eab53,2021-07-29_20h00.21.182,Simcolourproject_2stim_asymm_v5,2020.2.10,Win32,60,61025ae37ef11b136ea224fe,,,,,,,,,1488,40,72,1,0,0,response1disk,,7,-23,-15,1,0,0,rectangle,-23,-15,1,0,0,-23,-15,1,0,0,1,4,164,99,1,,,,,,,,
,,,,,,,,,,,,,FF,,,,,,,,0.7499,,,,,,,,,,,,,,,,,,,,,,60ff49d0bb904e48c69d0133,61036b2594c7d8bd8f5eab53,2021-07-29_20h00.21.182,Simcolourproject_2stim_asymm_v5,2020.2.10,Win32,60,61025ae37ef11b136ea224fe,,,,,,,,,4172,56,85,1,0,0,response1disk,,7,2,-9,1,0,0,rectangle,2,-9,1,0,0,2,-9,1,0,0,1,5,165,13,1,,,,,,,,
,,,,,,,,,,,,,FF,,,,,,,,1.9185,,,,,,,,,,,,,,,,,,,,,,60ff49d0bb904e48c69d0133,61036b2594c7d8bd8f5eab53,2021-07-29_20h00.21.182,Simcolourproject_2stim_asymm_v5,2020.2.10,Win32,60,61025ae37ef11b136ea224fe,,,,,,,,,75,74,28,1,0,0,response1disk,,6,-11,-12,1,0,0,rectangle,-11,-12,1,0,0,-11,-12,1,0,0,1,6,166,16,1,,,,,,,,
,,,,,,,,,,,,,FF,,,,,,,,2.4167,,,,,,,,,,,,,,,,,,,,,,60ff49d0bb904e48c69d0133,61036b2594c7d8bd8f5eab53,2021-07-29_20h00.21.182,Simcolourproject_2stim_asymm_v5,2020.2.10,Win32,60,61025ae37ef11b136ea224fe,,,,,,,,,168,96,36,1,0,0,response1disk,,6,15,-3,1,0,0,rectangle,15,-3,1,0,0,15,-3,1,0,0,1,7,167,24,1,,,,,,,,
,,,,,,,,,,,,,FF,,,,,,,,0.7834,,,,,,,,,,,,,,,,,,,,,,60ff49d0bb904e48c69d0133,61036b2594c7d8bd8f5eab53,2021-07-29_20h00.21.182,Simcolourproject_2stim_asymm_v5,2020.2.10,Win32,60,61025ae37ef11b136ea224fe,,,,,,,,,4185,88,41,1,0,0,response1disk,,6,21,12,1,0,0,rectangle,21,12,1,0,0,21,12,1,0,0,1,8,168,61,1,,,,,,,,
,,,,,,,,,,,,,FF,,,,,,,,1.4499,,,,,,,,,,,,,,,,,,,,,,60ff49d0bb904e48c69d0133,61036b2594c7d8bd8f5eab53,2021-07-29_20h00.21.182,Simcolourproject_2stim_asymm_v5,2020.2.10,Win32,60,61025ae37ef11b136ea224fe,,,,,,,,,2466,57,-38,1,0,0,response3disk,,5,-11,1,1,0,0,rectangle,-11,1,1,0,0,-11,1,1,0,0,1,9,169,158,1,,,,,,,,
,,,,,,,,,,,,,FF,,,,,,,,3.0834,,,,,,,,,,,,,,,,,,,,,,60ff49d0bb904e48c69d0133,61036b2594c7d8bd8f5eab53,2021-07-29_20h00.21.182,Simcolourproject_2stim_asymm_v5,2020.2.10,Win32,60,61025ae37ef11b136ea224fe,,,,,,,,,3482,-47,-64,1,0,0,response5disk,,3,-2,-7,1,0,0,rectangle,-2,-7,1,0,0,-2,-7,1,0,0,1,10,170,32,1,,,,,,,,
,,,,,,,,,,,,,FF,,,,,,,,2.9984,,,,,,,,,,,,,,,,,,,,,,60ff49d0bb904e48c69d0133,61036b2594c7d8bd8f5eab53,2021-07-29_20h00.21.182,Simcolourproject_2stim_asymm_v5,2020.2.10,Win32,60,61025ae37ef11b136ea224fe,,,,,,,,,3189,-70,-30,1,0,0,response5disk,,2,0,-8,1,0,0,rectangle,0,-8,1,0,0,0,-8,1,0,0,1,11,171,153,1,,,,,,,,
,,,,,,,,,,,,,FF,,,,,,,,1.1167,,,,,,,,,,,,,,,,,,,,,,60ff49d0bb904e48c69d0133,61036b2594c7d8bd8f5eab53,2021-07-29_20h00.21.182,Simcolourproject_2stim_asymm_v5,2020.2.10,Win32,60,61025ae37ef11b136ea224fe,,,,,,,,,3888,88,-32,1,0,0,response3disk,,5,-2,1,1,0,0,rectangle,-2,1,1,0,0,-2,1,1,0,0,1,12,172,102,1,,,,,,,,
,,,,,,,,,,,,,FF,,,,,,,,1.0334,,,,,,,,,,,,,,,,,,,,,,60ff49d0bb904e48c69d0133,61036b2594c7d8bd8f5eab53,2021-07-29_20h00.21.182,Simcolourproject_2stim_asymm_v5,2020.2.10,Win32,60,61025ae37ef11b136ea224fe,,,,,,,,,3431,-30,-68,1,0,0,response5disk,,3,-8,-13,1,0,0,rectangle,-8,-13,1,0,0,-8,-13,1,0,0,1,13,173,41,1,,,,,,,,
,,,,,,,,,,,,,FF,,,,,,,,1.2835,,,,,,,,,,,,,,,,,,,,,,60ff49d0bb904e48c69d0133,61036b2594c7d8bd8f5eab53,2021-07-29_20h00.21.182,Simcolourproject_2stim_asymm_v5,2020.2.10,Win32,60,61025ae37ef11b136ea224fe,,,,,,,,,2375,66,-40,1,0,0,response3disk,,5,4,-7,1,0,0,rectangle,4,-7,1,0,0,4,-7,1,0,0,1,14,174,51,1,,,,,,,,
,,,,,,,,,,,,,FF,,,,,,,,0.6834,,,,,,,,,,,,,,,,,,,,,,60ff49d0bb904e48c69d0133,61036b2594c7d8bd8f5eab53,2021-07-29_20h00.21.182,Simcolourproject_2stim_asymm_v5,2020.2.10,Win32,60,61025ae37ef11b136ea224fe,,,,,,,,,327,90,59,1,0,0,response1disk,,6,6,8,1,0,0,rectangle,6,8,1,0,0,6,8,1,0,0,1,15,175,145,1,,,,,,,,
,,,,,,,,,,,,,FF,,,,,,,,2.2166,,,,,,,,,,,,,,,,,,,,,,60ff49d0bb904e48c69d0133,61036b2594c7d8bd8f5eab53,2021-07-29_20h00.21.182,Simcolourproject_2stim_asymm_v5,2020.2.10,Win32,60,61025ae37ef11b136ea224fe,,,,,,,,,4194,70,-52,1,0,0,response3disk,,5,-1,-3,1,0,0,rectangle,-1,-3,1,0,0,-1,-3,1,0,0,1,16,176,136,1,,,,,,,,
,,,,,,,,,,,,,FF,,,,,,,,1.4685,,,,,,,,,,,,,,,,,,,,,,60ff49d0bb904e48c69d0133,61036b2594c7d8bd8f5eab53,2021-07-29_20h00.21.182,Simcolourproject_2stim_asymm_v5,2020.2.10,Win32,60,61025ae37ef11b136ea224fe,,,,,,,,,2620,46,-68,1,0,0,response3disk,,4,0,-12,1,0,0,rectangle,0,-12,1,0,0,0,-12,1,0,0,1,17,177,76,1,,,,,,,,
,,,,,,,,,,,,,FF,,,,,,,,1.3499,,,,,,,,,,,,,,,,,,,,,,60ff49d0bb904e48c69d0133,61036b2594c7d8bd8f5eab53,2021-07-29_20h00.21.182,Simcolourproject_2stim_asymm_v5,2020.2.10,Win32,60,61025ae37ef11b136ea224fe,,,,,,,,,1994,100,35,1,0,0,response1disk,,6,11,-5,1,0,0,rectangle,11,-5,1,0,0,11,-5,1,0,0,1,18,178,135,1,,,,,,,,
,,,,,,,,,,,,,FF,,,,,,,,17.3837,,,,,,,,,,,,,,,,,,,,,,60ff49d0bb904e48c69d0133,61036b2594c7d8bd8f5eab53,2021-07-29_20h00.21.182,Simcolourproject_2stim_asymm_v5,2020.2.10,Win32,60,61025ae37ef11b136ea224fe,,,,,,,,,3616,47,-27,1,0,0,response3disk,,5,8,-2,1,0,0,rectangle,8,-2,1,0,0,8,-2,1,0,0,1,19,179,8,1,,,,,,,,
,,,,,,,,,,,,,FF,,,,,,,,4.6167,,,,,,,,,,,,,,,,,,,,,,60ff49d0bb904e48c69d0133,61036b2594c7d8bd8f5eab53,2021-07-29_20h00.21.182,Simcolourproject_2stim_asymm_v5,2020.2.10,Win32,60,61025ae37ef11b136ea224fe,,,,,,,,,3858,-36,-74,1,0,0,response5disk,,3,-19,-2,1,0,0,rectangle,-19,-2,1,0,0,-19,-2,1,0,0,1,20,180,15,1,,,,,,,,
,,,,,,,,,,,,,FF,,,,,,,,1.0834,,,,,,,,,,,,,,,,,,,,,,60ff49d0bb904e48c69d0133,61036b2594c7d8bd8f5eab53,2021-07-29_20h00.21.182,Simcolourproject_2stim_asymm_v5,2020.2.10,Win32,60,61025ae37ef11b136ea224fe,,,,,,,,,3564,47,-75,1,0,0,response3disk,,4,2,9,1,0,0,rectangle,2,9,1,0,0,2,9,1,0,0,1,21,181,117,1,,,,,,,,
,,,,,,,,,,,,,FF,,,,,,,,0.8166,,,,,,,,,,,,,,,,,,,,,,60ff49d0bb904e48c69d0133,61036b2594c7d8bd8f5eab53,2021-07-29_20h00.21.182,Simcolourproject_2stim_asymm_v5,2020.2.10,Win32,60,61025ae37ef11b136ea224fe,,,,,,,,,3904,69,44,1,0,0,response1disk,,6,-4,7,1,0,0,rectangle,-4,7,1,0,0,-4,7,1,0,0,1,22,182,151,1,,,,,,,,
,,,,,,,,,,,,,FF,,,,,,,,1.2857,,,,,,,,,,,,,,,,,,,,,,60ff49d0bb904e48c69d0133,61036b2594c7d8bd8f5eab53,2021-07-29_20h00.21.182,Simcolourproject_2stim_asymm_v5,2020.2.10,Win32,60,61025ae37ef11b136ea224fe,,,,,,,,,901,38,-63,1,0,0,response3disk,,4,2,-9,1,0,0,rectangle,2,-9,1,0,0,2,-9,1,0,0,1,23,183,27,1,,,,,,,,
,,,,,,,,,,,,,FF,,,,,,,,1.5999,,,,,,,,,,,,,,,,,,,,,,60ff49d0bb904e48c69d0133,61036b2594c7d8bd8f5eab53,2021-07-29_20h00.21.182,Simcolourproject_2stim_asymm_v5,2020.2.10,Win32,60,61025ae37ef11b136ea224fe,,,,,,,,,2301,-49,-72,1,0,0,response5disk,,3,4,2,1,0,0,rectangle,4,2,1,0,0,4,2,1,0,0,1,24,184,12,1,,,,,,,,
,,,,,,,,,,,,,FF,,,,,,,,0.95,,,,,,,,,,,,,,,,,,,,,,60ff49d0bb904e48c69d0133,61036b2594c7d8bd8f5eab53,2021-07-29_20h00.21.182,Simcolourproject_2stim_asymm_v5,2020.2.10,Win32,60,61025ae37ef11b136ea224fe,,,,,,,,,3389,-71,48,1,0,0,response7disk,,1,7,1,1,0,0,rectangle,7,1,1,0,0,7,1,1,0,0,1,25,185,144,1,,,,,,,,
,,,,,,,,,,,,,FF,,,,,,,,1.5,,,,,,,,,,,,,,,,,,,,,,60ff49d0bb904e48c69d0133,61036b2594c7d8bd8f5eab53,2021-07-29_20h00.21.182,Simcolourproject_2stim_asymm_v5,2020.2.10,Win32,60,61025ae37ef11b136ea224fe,,,,,,,,,1431,104,-45,1,0,0,response3disk,,5,23,-5,1,0,0,rectangle,23,-5,1,0,0,23,-5,1,0,0,1,26,186,70,1,,,,,,,,
,,,,,,,,,,,,,FF,,,,,,,,1.3502,,,,,,,,,,,,,,,,,,,,,,60ff49d0bb904e48c69d0133,61036b2594c7d8bd8f5eab53,2021-07-29_20h00.21.182,Simcolourproject_2stim_asymm_v5,2020.2.10,Win32,60,61025ae37ef11b136ea224fe,,,,,,,,,2498,77,29,1,0,0,response1disk,,6,-3,-7,1,0,0,rectangle,-3,-7,1,0,0,-3,-7,1,0,0,1,27,187,81,1,,,,,,,,
,,,,,,,,,,,,,FF,,,,,,,,2.3502,,,,,,,,,,,,,,,,,,,,,,60ff49d0bb904e48c69d0133,61036b2594c7d8bd8f5eab53,2021-07-29_20h00.21.182,Simcolourproject_2stim_asymm_v5,2020.2.10,Win32,60,61025ae37ef11b136ea224fe,,,,,,,,,2381,88,33,1,0,0,response1disk,,6,14,10,1,0,0,rectangle,14,10,1,0,0,14,10,1,0,0,1,28,188,31,1,,,,,,,,
,,,,,,,,,,,,,FF,,,,,,,,3.9486,,,,,,,,,,,,,,,,,,,,,,60ff49d0bb904e48c69d0133,61036b2594c7d8bd8f5eab53,2021-07-29_20h00.21.182,Simcolourproject_2stim_asymm_v5,2020.2.10,Win32,60,61025ae37ef11b136ea224fe,,,,,,,,,1987,98,39,1,0,0,response1disk,,6,42,15,1,0,0,rectangle,42,15,1,0,0,42,15,1,0,0,1,29,189,23,1,,,,,,,,
,,,,,,,,,,,,,FF,,,,,,,,1.3667,,,,,,,,,,,,,,,,,,,,,,60ff49d0bb904e48c69d0133,61036b2594c7d8bd8f5eab53,2021-07-29_20h00.21.182,Simcolourproject_2stim_asymm_v5,2020.2.10,Win32,60,61025ae37ef11b136ea224fe,,,,,,,,,745,82,44,1,0,0,response1disk,,6,14,5,1,0,0,rectangle,14,5,1,0,0,14,5,1,0,0,1,30,190,107,1,,,,,,,,
,,,,,,,,,,,,,FF,,,,,,,,3.0001,,,,,,,,,,,,,,,,,,,,,,60ff49d0bb904e48c69d0133,61036b2594c7d8bd8f5eab53,2021-07-29_20h00.21.182,Simcolourproject_2stim_asymm_v5,2020.2.10,Win32,60,61025ae37ef11b136ea224fe,,,,,,,,,2643,89,-52,1,0,0,response3disk,,5,-21,7,1,0,0,rectangle,-21,7,1,0,0,-21,7,1,0,0,1,31,191,93,1,,,,,,,,
,,,,,,,,,,,,,FF,,,,,,,,1.7332,,,,,,,,,,,,,,,,,,,,,,60ff49d0bb904e48c69d0133,61036b2594c7d8bd8f5eab53,2021-07-29_20h00.21.182,Simcolourproject_2stim_asymm_v5,2020.2.10,Win32,60,61025ae37ef11b136ea224fe,,,,,,,,,4301,36,72,1,0,0,response1disk,,7,12,0,1,0,0,rectangle,12,0,1,0,0,12,0,1,0,0,1,32,192,137,1,,,,,,,,
,,,,,,,,,,,,,FF,,,,,,,,1.25,,,,,,,,,,,,,,,,,,,,,,60ff49d0bb904e48c69d0133,61036b2594c7d8bd8f5eab53,2021-07-29_20h00.21.182,Simcolourproject_2stim_asymm_v5,2020.2.10,Win32,60,61025ae37ef11b136ea224fe,,,,,,,,,3718,79,39,1,0,0,response1disk,,6,6,-8,1,0,0,rectangle,6,-8,1,0,0,6,-8,1,0,0,1,33,193,83,1,,,,,,,,
,,,,,,,,,,,,,FF,,,,,,,,1.1334,,,,,,,,,,,,,,,,,,,,,,60ff49d0bb904e48c69d0133,61036b2594c7d8bd8f5eab53,2021-07-29_20h00.21.182,Simcolourproject_2stim_asymm_v5,2020.2.10,Win32,60,61025ae37ef11b136ea224fe,,,,,,,,,3519,-24,-73,1,0,0,response5disk,,3,3,-12,1,0,0,rectangle,3,-12,1,0,0,3,-12,1,0,0,1,34,194,94,1,,,,,,,,
,,,,,,,,,,,,,FF,,,,,,,,0.915,,,,,,,,,,,,,,,,,,,,,,60ff49d0bb904e48c69d0133,61036b2594c7d8bd8f5eab53,2021-07-29_20h00.21.182,Simcolourproject_2stim_asymm_v5,2020.2.10,Win32,60,61025ae37ef11b136ea224fe,,,,,,,,,3102,54,-59,1,0,0,response3disk,,4,12,8,1,0,0,rectangle,36,96,1,0,0,-3,-10,1,0,0,1,35,195,92,1,,response1disk_3,TRUE,7,7,"[97,152,201,32,202,139,38,226,272,29,58,247,318,216,196,204,111,120,281,134]",1.4333,rectangle
,,,,,,,,,,,,,FF,,,,,,,,1.4167,,,,,,,,,,,,,,,,,,,,,,60ff49d0bb904e48c69d0133,61036b2594c7d8bd8f5eab53,2021-07-29_20h00.21.182,Simcolourproject_2stim_asymm_v5,2020.2.10,Win32,60,61025ae37ef11b136ea224fe,,,,,,,,,4076,-77,50,1,0,0,response7disk,,1,-14,13,1,0,0,rectangle,-14,13,1,0,0,-14,13,1,0,0,1,36,196,4,1,,,,,,,,
,,,,,,,,,,,,,FF,,,,,,,,1.1519,,,,,,,,,,,,,,,,,,,,,,60ff49d0bb904e48c69d0133,61036b2594c7d8bd8f5eab53,2021-07-29_20h00.21.182,Simcolourproject_2stim_asymm_v5,2020.2.10,Win32,60,61025ae37ef11b136ea224fe,,,,,,,,,2622,33,-72,1,0,0,response3disk,,4,7,-6,1,0,0,rectangle,7,-6,1,0,0,7,-6,1,0,0,1,37,197,138,1,,,,,,,,
,,,,,,,,,,,,,FF,,,,,,,,2.0834,,,,,,,,,,,,,,,,,,,,,,60ff49d0bb904e48c69d0133,61036b2594c7d8bd8f5eab53,2021-07-29_20h00.21.182,Simcolourproject_2stim_asymm_v5,2020.2.10,Win32,60,61025ae37ef11b136ea224fe,,,,,,,,,3236,-33,-64,1,0,0,response5disk,,3,8,-10,1,0,0,rectangle,8,-10,1,0,0,8,-10,1,0,0,1,38,198,19,1,,,,,,,,
,,,,,,,,,,,,,FF,,,,,,,,1.2834,,,,,,,,,,,,,,,,,,,,,,60ff49d0bb904e48c69d0133,61036b2594c7d8bd8f5eab53,2021-07-29_20h00.21.182,Simcolourproject_2stim_asymm_v5,2020.2.10,Win32,60,61025ae37ef11b136ea224fe,,,,,,,,,2774,71,32,1,0,0,response1disk,,6,-7,4,1,0,0,rectangle,-7,4,1,0,0,-7,4,1,0,0,1,39,199,25,1,,,,,,,,
,,,,,,,,,,,,,FF,,,,,,,,1.9334,,,,,,,,,,,,,,,,,,,,,,60ff49d0bb904e48c69d0133,61036b2594c7d8bd8f5eab53,2021-07-29_20h00.21.182,Simcolourproject_2stim_asymm_v5,2020.2.10,Win32,60,61025ae37ef11b136ea224fe,,,,,,,,,437,41,-76,1,0,0,response3disk,,4,3,4,1,0,0,rectangle,-76,-36,1,0,0,3,7,1,0,0,1,40,200,65,1,,response5disk_3,TRUE,2,2,"[97,152,201,32,202,139,38,226,272,29,58,247,318,216,196,204,111,120,281,134]",1.8333,rectangle
,,,,,,,,,,,,,FF,,,,,,,,4.5334,,,,,,,,,,,,,,,,,,,,,,60ff49d0bb904e48c69d0133,61036b2594c7d8bd8f5eab53,2021-07-29_20h00.21.182,Simcolourproject_2stim_asymm_v5,2020.2.10,Win32,60,61025ae37ef11b136ea224fe,,,,,,,,,1946,78,33,1,0,0,response1disk,,6,6,-9,1,0,0,rectangle,83,-43,1,0,0,-21,-7,1,0,0,1,41,201,112,1,,response3disk_3,TRUE,5,5,"[97,152,201,32,202,139,38,226,272,29,58,247,318,216,196,204,111,120,281,134]",1.8505,rectangle
,,,,,,,,,,,,,FF,,,,,,,,3.1333,,,,,,,,,,,,,,,,,,,,,,60ff49d0bb904e48c69d0133,61036b2594c7d8bd8f5eab53,2021-07-29_20h00.21.182,Simcolourproject_2stim_asymm_v5,2020.2.10,Win32,60,61025ae37ef11b136ea224fe,,,,,,,,,2364,68,25,1,0,0,response1disk,,6,13,-7,1,0,0,rectangle,13,-7,1,0,0,13,-7,1,0,0,1,42,202,22,1,,,,,,,,
,,,,,,,,,,,,,FF,,,,,,,,1.0332,,,,,,,,,,,,,,,,,,,,,,60ff49d0bb904e48c69d0133,61036b2594c7d8bd8f5eab53,2021-07-29_20h00.21.182,Simcolourproject_2stim_asymm_v5,2020.2.10,Win32,60,61025ae37ef11b136ea224fe,,,,,,,,,2911,30,69,1,0,0,response1disk,,7,10,2,1,0,0,rectangle,93,37,1,0,0,4,4,1,0,0,1,43,203,86,1,,response1disk_3,TRUE,6,6,"[97,152,201,32,202,139,38,226,272,29,58,247,318,216,196,204,111,120,281,134]",5.3501,rectangle
,,,,,,,,,,,,,FF,,,,,,,,2.9666,,,,,,,,,,,,,,,,,,,,,,60ff49d0bb904e48c69d0133,61036b2594c7d8bd8f5eab53,2021-07-29_20h00.21.182,Simcolourproject_2stim_asymm_v5,2020.2.10,Win32,60,61025ae37ef11b136ea224fe,,,,,,,,,2062,92,-44,1,0,0,response3disk,,5,3,4,1,0,0,rectangle,3,4,1,0,0,3,4,1,0,0,1,44,204,118,1,,,,,,,,
,,,,,,,,,,,,,FF,,,,,,,,1.6166,,,,,,,,,,,,,,,,,,,,,,60ff49d0bb904e48c69d0133,61036b2594c7d8bd8f5eab53,2021-07-29_20h00.21.182,Simcolourproject_2stim_asymm_v5,2020.2.10,Win32,60,61025ae37ef11b136ea224fe,,,,,,,,,2819,88,29,1,0,0,response1disk,,6,-13,-2,1,0,0,rectangle,-13,-2,1,0,0,-13,-2,1,0,0,1,45,205,87,1,,,,,,,,
,,,,,,,,,,,,,FF,,,,,,,,1.4502,,,,,,,,,,,,,,,,,,,,,,60ff49d0bb904e48c69d0133,61036b2594c7d8bd8f5eab53,2021-07-29_20h00.21.182,Simcolourproject_2stim_asymm_v5,2020.2.10,Win32,60,61025ae37ef11b136ea224fe,,,,,,,,,1011,43,78,1,0,0,response1disk,,7,15,15,1,0,0,rectangle,15,15,1,0,0,15,15,1,0,0,1,46,206,53,1,,,,,,,,
,,,,,,,,,,,,,FF,,,,,,,,0.8334,,,,,,,,,,,,,,,,,,,,,,60ff49d0bb904e48c69d0133,61036b2594c7d8bd8f5eab53,2021-07-29_20h00.21.182,Simcolourproject_2stim_asymm_v5,2020.2.10,Win32,60,61025ae37ef11b136ea224fe,,,,,,,,,2030,-44,-70,1,0,0,response5disk,,3,-4,4,1,0,0,rectangle,-4,4,1,0,0,-4,4,1,0,0,1,47,207,80,1,,,,,,,,
,,,,,,,,,,,,,FF,,,,,,,,0.9498,,,,,,,,,,,,,,,,,,,,,,60ff49d0bb904e48c69d0133,61036b2594c7d8bd8f5eab53,2021-07-29_20h00.21.182,Simcolourproject_2stim_asymm_v5,2020.2.10,Win32,60,61025ae37ef11b136ea224fe,,,,,,,,,2896,75,-45,1,0,0,response3disk,,5,1,-4,1,0,0,rectangle,1,-4,1,0,0,1,-4,1,0,0,1,48,208,106,1,,,,,,,,
,,,,,,,,,,,,,FF,,,,,,,,0.9818,,,,,,,,,,,,,,,,,,,,,,60ff49d0bb904e48c69d0133,61036b2594c7d8bd8f5eab53,2021-07-29_20h00.21.182,Simcolourproject_2stim_asymm_v5,2020.2.10,Win32,60,61025ae37ef11b136ea224fe,,,,,,,,,1257,83,45,1,0,0,response1disk,,6,0,20,1,0,0,rectangle,0,20,1,0,0,0,20,1,0,0,1,49,209,71,1,,,,,,,,
,,,,,,,,,,,,,FF,,,,,,,,0.75,,,,,,,,,,,,,,,,,,,,,,60ff49d0bb904e48c69d0133,61036b2594c7d8bd8f5eab53,2021-07-29_20h00.21.182,Simcolourproject_2stim_asymm_v5,2020.2.10,Win32,60,61025ae37ef11b136ea224fe,,,,,,,,,3668,-20,68,1,0,0,response7disk,,0,14,-5,1,0,0,rectangle,14,-5,1,0,0,14,-5,1,0,0,1,50,210,54,1,,,,,,,,
,,,,,,,,,,,,,FF,,,,,,,,0.9167,,,,,,,,,,,,,,,,,,,,,,60ff49d0bb904e48c69d0133,61036b2594c7d8bd8f5eab53,2021-07-29_20h00.21.182,Simcolourproject_2stim_asymm_v5,2020.2.10,Win32,60,61025ae37ef11b136ea224fe,,,,,,,,,4235,-81,31,1,0,0,response7disk,,1,-1,-7,1,0,0,rectangle,-1,-7,1,0,0,-1,-7,1,0,0,1,51,211,109,1,,,,,,,,
,,,,,,,,,,,,,FF,,,,,,,,1.865,,,,,,,,,,,,,,,,,,,,,,60ff49d0bb904e48c69d0133,61036b2594c7d8bd8f5eab53,2021-07-29_20h00.21.182,Simcolourproject_2stim_asymm_v5,2020.2.10,Win32,60,61025ae37ef11b136ea224fe,,,,,,,,,2382,29,-47,1,0,0,response3disk,,4,4,0,1,0,0,rectangle,4,0,1,0,0,4,0,1,0,0,1,52,212,131,1,,,,,,,,
,,,,,,,,,,,,,FF,,,,,,,,0.9817,,,,,,,,,,,,,,,,,,,,,,60ff49d0bb904e48c69d0133,61036b2594c7d8bd8f5eab53,2021-07-29_20h00.21.182,Simcolourproject_2stim_asymm_v5,2020.2.10,Win32,60,61025ae37ef11b136ea224fe,,,,,,,,,2895,-57,-33,1,0,0,response5disk,,2,-2,-4,1,0,0,rectangle,-2,-4,1,0,0,-2,-4,1,0,0,1,53,213,126,1,,,,,,,,
,,,,,,,,,,,,,FF,,,,,,,,0.9818,,,,,,,,,,,,,,,,,,,,,,60ff49d0bb904e48c69d0133,61036b2594c7d8bd8f5eab53,2021-07-29_20h00.21.182,Simcolourproject_2stim_asymm_v5,2020.2.10,Win32,60,61025ae37ef11b136ea224fe,,,,,,,,,1715,36,69,1,0,0,response1disk,,7,-2,0,1,0,0,rectangle,-2,0,1,0,0,-2,0,1,0,0,1,54,214,28,1,,,,,,,,
,,,,,,,,,,,,,FF,,,,,,,,1.4333,,,,,,,,,,,,,,,,,,,,,,60ff49d0bb904e48c69d0133,61036b2594c7d8bd8f5eab53,2021-07-29_20h00.21.182,Simcolourproject_2stim_asymm_v5,2020.2.10,Win32,60,61025ae37ef11b136ea224fe,,,,,,,,,377,72,34,1,0,0,response1disk,,6,7,-9,1,0,0,rectangle,97,38,1,0,0,21,-3,1,0,0,1,55,215,146,1,,response1disk_3,TRUE,6,6,"[97,152,201,32,202,139,38,226,272,29,58,247,318,216,196,204,111,120,281,134]",2.15,rectangle
,,,,,,,,,,,,,FF,,,,,,,,1.6501,,,,,,,,,,,,,,,,,,,,,,60ff49d0bb904e48c69d0133,61036b2594c7d8bd8f5eab53,2021-07-29_20h00.21.182,Simcolourproject_2stim_asymm_v5,2020.2.10,Win32,60,61025ae37ef11b136ea224fe,,,,,,,,,2915,106,27,1,0,0,response1disk,,6,-18,-3,1,0,0,rectangle,-18,-3,1,0,0,-18,-3,1,0,0,1,56,216,115,1,,,,,,,,
,,,,,,,,,,,,,FF,,,,,,,,0.8333,,,,,,,,,,,,,,,,,,,,,,60ff49d0bb904e48c69d0133,61036b2594c7d8bd8f5eab53,2021-07-29_20h00.21.182,Simcolourproject_2stim_asymm_v5,2020.2.10,Win32,60,61025ae37ef11b136ea224fe,,,,,,,,,4173,30,69,1,0,0,response1disk,,7,1,-15,1,0,0,rectangle,1,-15,1,0,0,1,-15,1,0,0,1,57,217,141,1,,,,,,,,
,,,,,,,,,,,,,FF,,,,,,,,0.9187,,,,,,,,,,,,,,,,,,,,,,60ff49d0bb904e48c69d0133,61036b2594c7d8bd8f5eab53,2021-07-29_20h00.21.182,Simcolourproject_2stim_asymm_v5,2020.2.10,Win32,60,61025ae37ef11b136ea224fe,,,,,,,,,1543,75,48,1,0,0,response1disk,,6,-1,5,1,0,0,rectangle,-1,5,1,0,0,-1,5,1,0,0,1,58,218,121,1,,,,,,,,
,,,,,,,,,,,,,FF,,,,,,,,9.3819,,,,,,,,,,,,,,,,,,,,,,60ff49d0bb904e48c69d0133,61036b2594c7d8bd8f5eab53,2021-07-29_20h00.21.182,Simcolourproject_2stim_asymm_v5,2020.2.10,Win32,60,61025ae37ef11b136ea224fe,,,,,,,,,2504,38,82,1,0,0,response1disk,,7,11,5,1,0,0,rectangle,11,5,1,0,0,11,5,1,0,0,1,59,219,159,1,,,,,,,,
,,,,,,,,,,,,,FF,,,,,,,,1.05,,,,,,,,,,,,,,,,,,,,,,60ff49d0bb904e48c69d0133,61036b2594c7d8bd8f5eab53,2021-07-29_20h00.21.182,Simcolourproject_2stim_asymm_v5,2020.2.10,Win32,60,61025ae37ef11b136ea224fe,,,,,,,,,1838,85,35,1,0,0,response1disk,,6,-5,-12,1,0,0,rectangle,-5,-12,1,0,0,-5,-12,1,0,0,1,60,220,47,1,,,,,,,,
,,,,,,,,,,,,,FF,,,,,,,,1.2317,,,,,,,,,,,,,,,,,,,,,,60ff49d0bb904e48c69d0133,61036b2594c7d8bd8f5eab53,2021-07-29_20h00.21.182,Simcolourproject_2stim_asymm_v5,2020.2.10,Win32,60,61025ae37ef11b136ea224fe,,,,,,,,,1936,76,38,1,0,0,response1disk,,6,9,1,1,0,0,rectangle,9,1,1,0,0,9,1,1,0,0,1,61,221,132,1,,,,,,,,
,,,,,,,,,,,,,FF,,,,,,,,1.7651,,,,,,,,,,,,,,,,,,,,,,60ff49d0bb904e48c69d0133,61036b2594c7d8bd8f5eab53,2021-07-29_20h00.21.182,Simcolourproject_2stim_asymm_v5,2020.2.10,Win32,60,61025ae37ef11b136ea224fe,,,,,,,,,288,76,-41,1,0,0,response3disk,,5,-4,-10,1,0,0,rectangle,-4,-10,1,0,0,-4,-10,1,0,0,1,62,222,2,1,,,,,,,,
,,,,,,,,,,,,,FF,,,,,,,,2.0167,,,,,,,,,,,,,,,,,,,,,,60ff49d0bb904e48c69d0133,61036b2594c7d8bd8f5eab53,2021-07-29_20h00.21.182,Simcolourproject_2stim_asymm_v5,2020.2.10,Win32,60,61025ae37ef11b136ea224fe,,,,,,,,,4134,74,44,1,0,0,response1disk,,6,8,15,1,0,0,rectangle,8,15,1,0,0,8,15,1,0,0,1,63,223,152,1,,,,,,,,
,,,,,,,,,,,,,FF,,,,,,,,1.3334,,,,,,,,,,,,,,,,,,,,,,60ff49d0bb904e48c69d0133,61036b2594c7d8bd8f5eab53,2021-07-29_20h00.21.182,Simcolourproject_2stim_asymm_v5,2020.2.10,Win32,60,61025ae37ef11b136ea224fe,,,,,,,,,2933,75,-39,1,0,0,response3disk,,5,-5,-4,1,0,0,rectangle,-5,-4,1,0,0,-5,-4,1,0,0,1,64,224,52,1,,,,,,,,
,,,,,,,,,,,,,FF,,,,,,,,1.4999,,,,,,,,,,,,,,,,,,,,,,60ff49d0bb904e48c69d0133,61036b2594c7d8bd8f5eab53,2021-07-29_20h00.21.182,Simcolourproject_2stim_asymm_v5,2020.2.10,Win32,60,61025ae37ef11b136ea224fe,,,,,,,,,3643,26,-84,1,0,0,response3disk,,4,-1,-4,1,0,0,rectangle,-49,87,1,0,0,5,9,1,0,0,1,65,225,79,1,,response7disk_3,TRUE,0,0,"[97,152,201,32,202,139,38,226,272,29,58,247,318,216,196,204,111,120,281,134]",1.6166,rectangle
,,,,,,,,,,,,,FF,,,,,,,,1.7667,,,,,,,,,,,,,,,,,,,,,,60ff49d0bb904e48c69d0133,61036b2594c7d8bd8f5eab53,2021-07-29_20h00.21.182,Simcolourproject_2stim_asymm_v5,2020.2.10,Win32,60,61025ae37ef11b136ea224fe,,,,,,,,,656,41,57,1,0,0,response1disk,,7,18,9,1,0,0,rectangle,18,9,1,0,0,18,9,1,0,0,1,66,226,36,1,,,,,,,,
,,,,,,,,,,,,,FF,,,,,,,,1.4167,,,,,,,,,,,,,,,,,,,,,,60ff49d0bb904e48c69d0133,61036b2594c7d8bd8f5eab53,2021-07-29_20h00.21.182,Simcolourproject_2stim_asymm_v5,2020.2.10,Win32,60,61025ae37ef11b136ea224fe,,,,,,,,,1157,55,28,1,0,0,response1disk,,6,15,-3,1,0,0,rectangle,15,-3,1,0,0,15,-3,1,0,0,1,67,227,18,1,,,,,,,,
,,,,,,,,,,,,,FF,,,,,,,,1.2333,,,,,,,,,,,,,,,,,,,,,,60ff49d0bb904e48c69d0133,61036b2594c7d8bd8f5eab53,2021-07-29_20h00.21.182,Simcolourproject_2stim_asymm_v5,2020.2.10,Win32,60,61025ae37ef11b136ea224fe,,,,,,,,,3695,46,96,1,0,0,response1disk,,7,10,10,1,0,0,rectangle,10,10,1,0,0,10,10,1,0,0,1,68,228,90,1,,,,,,,,
,,,,,,,,,,,,,FF,,,,,,,,2.5332,,,,,,,,,,,,,,,,,,,,,,60ff49d0bb904e48c69d0133,61036b2594c7d8bd8f5eab53,2021-07-29_20h00.21.182,Simcolourproject_2stim_asymm_v5,2020.2.10,Win32,60,61025ae37ef11b136ea224fe,,,,,,,,,991,88,32,1,0,0,response1disk,,6,9,2,1,0,0,rectangle,9,2,1,0,0,9,2,1,0,0,1,69,229,150,1,,,,,,,,
,,,,,,,,,,,,,FF,,,,,,,,1,,,,,,,,,,,,,,,,,,,,,,60ff49d0bb904e48c69d0133,61036b2594c7d8bd8f5eab53,2021-07-29_20h00.21.182,Simcolourproject_2stim_asymm_v5,2020.2.10,Win32,60,61025ae37ef11b136ea224fe,,,,,,,,,2227,-55,-31,1,0,0,response5disk,,2,-10,-7,1,0,0,rectangle,-10,-7,1,0,0,-10,-7,1,0,0,1,70,230,91,1,,,,,,,,
,,,,,,,,,,,,,FF,,,,,,,,1.0832,,,,,,,,,,,,,,,,,,,,,,60ff49d0bb904e48c69d0133,61036b2594c7d8bd8f5eab53,2021-07-29_20h00.21.182,Simcolourproject_2stim_asymm_v5,2020.2.10,Win32,60,61025ae37ef11b136ea224fe,,,,,,,,,376,105,-59,1,0,0,response3disk,,5,-2,5,1,0,0,rectangle,-2,5,1,0,0,-2,5,1,0,0,1,71,231,39,1,,,,,,,,
,,,,,,,,,,,,,FF,,,,,,,,1.9333,,,,,,,,,,,,,,,,,,,,,,60ff49d0bb904e48c69d0133,61036b2594c7d8bd8f5eab53,2021-07-29_20h00.21.182,Simcolourproject_2stim_asymm_v5,2020.2.10,Win32,60,61025ae37ef11b136ea224fe,,,,,,,,,1569,92,42,1,0,0,response1disk,,6,4,-4,1,0,0,rectangle,4,-4,1,0,0,4,-4,1,0,0,1,72,232,60,1,,,,,,,,
,,,,,,,,,,,,,FF,,,,,,,,1.5334,,,,,,,,,,,,,,,,,,,,,,60ff49d0bb904e48c69d0133,61036b2594c7d8bd8f5eab53,2021-07-29_20h00.21.182,Simcolourproject_2stim_asymm_v5,2020.2.10,Win32,60,61025ae37ef11b136ea224fe,,,,,,,,,2905,37,83,1,0,0,response1disk,,7,6,-8,1,0,0,rectangle,6,-8,1,0,0,6,-8,1,0,0,1,73,233,7,1,,,,,,,,
,,,,,,,,,,,,,FF,,,,,,,,1.0833,,,,,,,,,,,,,,,,,,,,,,60ff49d0bb904e48c69d0133,61036b2594c7d8bd8f5eab53,2021-07-29_20h00.21.182,Simcolourproject_2stim_asymm_v5,2020.2.10,Win32,60,61025ae37ef11b136ea224fe,,,,,,,,,632,-73,-43,1,0,0,response5disk,,2,2,-7,1,0,0,rectangle,2,-7,1,0,0,2,-7,1,0,0,1,74,234,143,1,,,,,,,,
,,,,,,,,,,,,,FF,,,,,,,,1.1333,,,,,,,,,,,,,,,,,,,,,,60ff49d0bb904e48c69d0133,61036b2594c7d8bd8f5eab53,2021-07-29_20h00.21.182,Simcolourproject_2stim_asymm_v5,2020.2.10,Win32,60,61025ae37ef11b136ea224fe,,,,,,,,,3141,-36,-69,1,0,0,response5disk,,3,-3,-6,1,0,0,rectangle,-3,-6,1,0,0,-3,-6,1,0,0,1,75,235,66,1,,,,,,,,
,,,,,,,,,,,,,FF,,,,,,,,0.9333,,,,,,,,,,,,,,,,,,,,,,60ff49d0bb904e48c69d0133,61036b2594c7d8bd8f5eab53,2021-07-29_20h00.21.182,Simcolourproject_2stim_asymm_v5,2020.2.10,Win32,60,61025ae37ef11b136ea224fe,,,,,,,,,2038,27,-66,1,0,0,response3disk,,4,6,4,1,0,0,rectangle,6,4,1,0,0,6,4,1,0,0,1,76,236,147,1,,,,,,,,
,,,,,,,,,,,,,FF,,,,,,,,2.0501,,,,,,,,,,,,,,,,,,,,,,60ff49d0bb904e48c69d0133,61036b2594c7d8bd8f5eab53,2021-07-29_20h00.21.182,Simcolourproject_2stim_asymm_v5,2020.2.10,Win32,60,61025ae37ef11b136ea224fe,,,,,,,,,1658,68,47,1,0,0,response1disk,,6,-6,-1,1,0,0,rectangle,-6,-1,1,0,0,-6,-1,1,0,0,1,77,237,58,1,,,,,,,,
,,,,,,,,,,,,,FF,,,,,,,,1.2001,,,,,,,,,,,,,,,,,,,,,,60ff49d0bb904e48c69d0133,61036b2594c7d8bd8f5eab53,2021-07-29_20h00.21.182,Simcolourproject_2stim_asymm_v5,2020.2.10,Win32,60,61025ae37ef11b136ea224fe,,,,,,,,,1067,71,-40,1,0,0,response3disk,,5,18,-2,1,0,0,rectangle,18,-2,1,0,0,18,-2,1,0,0,1,78,238,100,1,,,,,,,,
,,,,,,,,,,,,,FF,,,,,,,,1.75,,,,,,,,,,,,,,,,,,,,,,60ff49d0bb904e48c69d0133,61036b2594c7d8bd8f5eab53,2021-07-29_20h00.21.182,Simcolourproject_2stim_asymm_v5,2020.2.10,Win32,60,61025ae37ef11b136ea224fe,,,,,,,,,2339,88,31,1,0,0,response1disk,,6,17,-7,1,0,0,rectangle,17,-7,1,0,0,17,-7,1,0,0,1,79,239,21,1,,,,,,,,
,,,,,,,,,,,,,FF,,,,,,,,0.8667,,,,,,,,,,,,,,,,,,,,,,60ff49d0bb904e48c69d0133,61036b2594c7d8bd8f5eab53,2021-07-29_20h00.21.182,Simcolourproject_2stim_asymm_v5,2020.2.10,Win32,60,61025ae37ef11b136ea224fe,,,,,,,,,4343,-47,74,1,0,0,response7disk,,0,-10,12,1,0,0,rectangle,-10,12,1,0,0,-10,12,1,0,0,1,80,240,62,1,,,,,,,,
,,,,,,,,,,,,,FF,,,,,,,,2.3852,,,,,,,,,,,,,,,,,,,,,,60ff49d0bb904e48c69d0133,61036b2594c7d8bd8f5eab53,2021-07-29_20h00.21.182,Simcolourproject_2stim_asymm_v5,2020.2.10,Win32,60,61025ae37ef11b136ea224fe,,,,,,,,,1568,27,-73,1,0,0,response3disk,,4,-4,-9,1,0,0,rectangle,-4,-9,1,0,0,-4,-9,1,0,0,1,81,241,84,1,,,,,,,,
,,,,,,,,,,,,,FF,,,,,,,,1.5351,,,,,,,,,,,,,,,,,,,,,,60ff49d0bb904e48c69d0133,61036b2594c7d8bd8f5eab53,2021-07-29_20h00.21.182,Simcolourproject_2stim_asymm_v5,2020.2.10,Win32,60,61025ae37ef11b136ea224fe,,,,,,,,,2108,-38,-52,1,0,0,response5disk,,3,8,7,1,0,0,rectangle,8,7,1,0,0,8,7,1,0,0,1,82,242,44,1,,,,,,,,
,,,,,,,,,,,,,FF,,,,,,,,0.7837,,,,,,,,,,,,,,,,,,,,,,60ff49d0bb904e48c69d0133,61036b2594c7d8bd8f5eab53,2021-07-29_20h00.21.182,Simcolourproject_2stim_asymm_v5,2020.2.10,Win32,60,61025ae37ef11b136ea224fe,,,,,,,,,541,24,69,1,0,0,response1disk,,7,-2,14,1,0,0,rectangle,-2,14,1,0,0,-2,14,1,0,0,1,83,243,1,1,,,,,,,,
,,,,,,,,,,,,,FF,,,,,,,,1.0834,,,,,,,,,,,,,,,,,,,,,,60ff49d0bb904e48c69d0133,61036b2594c7d8bd8f5eab53,2021-07-29_20h00.21.182,Simcolourproject_2stim_asymm_v5,2020.2.10,Win32,60,61025ae37ef11b136ea224fe,,,,,,,,,4032,74,-29,1,0,0,response3disk,,5,17,-14,1,0,0,rectangle,17,-14,1,0,0,17,-14,1,0,0,1,84,244,134,1,,,,,,,,
,,,,,,,,,,,,,FF,,,,,,,,2.0333,,,,,,,,,,,,,,,,,,,,,,60ff49d0bb904e48c69d0133,61036b2594c7d8bd8f5eab53,2021-07-29_20h00.21.182,Simcolourproject_2stim_asymm_v5,2020.2.10,Win32,60,61025ae37ef11b136ea224fe,,,,,,,,,2223,-30,-63,1,0,0,response5disk,,3,7,2,1,0,0,rectangle,7,2,1,0,0,7,2,1,0,0,1,85,245,0,1,,,,,,,,
,,,,,,,,,,,,,FF,,,,,,,,1.3501,,,,,,,,,,,,,,,,,,,,,,60ff49d0bb904e48c69d0133,61036b2594c7d8bd8f5eab53,2021-07-29_20h00.21.182,Simcolourproject_2stim_asymm_v5,2020.2.10,Win32,60,61025ae37ef11b136ea224fe,,,,,,,,,4044,74,-26,1,0,0,response3disk,,5,13,0,1,0,0,rectangle,39,68,1,0,0,13,-2,1,0,0,1,86,246,6,1,,response1disk_3,TRUE,7,7,"[97,152,201,32,202,139,38,226,272,29,58,247,318,216,196,204,111,120,281,134]",1.9835,rectangle
,,,,,,,,,,,,,FF,,,,,,,,3.1502,,,,,,,,,,,,,,,,,,,,,,60ff49d0bb904e48c69d0133,61036b2594c7d8bd8f5eab53,2021-07-29_20h00.21.182,Simcolourproject_2stim_asymm_v5,2020.2.10,Win32,60,61025ae37ef11b136ea224fe,,,,,,,,,3352,66,-30,1,0,0,response3disk,,5,16,-3,1,0,0,rectangle,16,-3,1,0,0,16,-3,1,0,0,1,87,247,43,1,,,,,,,,
,,,,,,,,,,,,,FF,,,,,,,,0.9166,,,,,,,,,,,,,,,,,,,,,,60ff49d0bb904e48c69d0133,61036b2594c7d8bd8f5eab53,2021-07-29_20h00.21.182,Simcolourproject_2stim_asymm_v5,2020.2.10,Win32,60,61025ae37ef11b136ea224fe,,,,,,,,,993,103,42,1,0,0,response1disk,,6,1,3,1,0,0,rectangle,1,3,1,0,0,1,3,1,0,0,1,88,248,95,1,,,,,,,,
,,,,,,,,,,,,,FF,,,,,,,,0.9666,,,,,,,,,,,,,,,,,,,,,,60ff49d0bb904e48c69d0133,61036b2594c7d8bd8f5eab53,2021-07-29_20h00.21.182,Simcolourproject_2stim_asymm_v5,2020.2.10,Win32,60,61025ae37ef11b136ea224fe,,,,,,,,,965,33,73,1,0,0,response1disk,,7,13,9,1,0,0,rectangle,13,9,1,0,0,13,9,1,0,0,1,89,249,69,1,,,,,,,,
,,,,,,,,,,,,,FF,,,,,,,,1.0167,,,,,,,,,,,,,,,,,,,,,,60ff49d0bb904e48c69d0133,61036b2594c7d8bd8f5eab53,2021-07-29_20h00.21.182,Simcolourproject_2stim_asymm_v5,2020.2.10,Win32,60,61025ae37ef11b136ea224fe,,,,,,,,,1614,44,-63,1,0,0,response3disk,,4,14,-7,1,0,0,rectangle,14,-7,1,0,0,14,-7,1,0,0,1,90,250,11,1,,,,,,,,
,,,,,,,,,,,,,FF,,,,,,,,1.6518,,,,,,,,,,,,,,,,,,,,,,60ff49d0bb904e48c69d0133,61036b2594c7d8bd8f5eab53,2021-07-29_20h00.21.182,Simcolourproject_2stim_asymm_v5,2020.2.10,Win32,60,61025ae37ef11b136ea224fe,,,,,,,,,855,94,27,1,0,0,response1disk,,6,17,-4,1,0,0,rectangle,17,-4,1,0,0,17,-4,1,0,0,1,91,251,124,1,,,,,,,,
,,,,,,,,,,,,,FF,,,,,,,,0.8333,,,,,,,,,,,,,,,,,,,,,,60ff49d0bb904e48c69d0133,61036b2594c7d8bd8f5eab53,2021-07-29_20h00.21.182,Simcolourproject_2stim_asymm_v5,2020.2.10,Win32,60,61025ae37ef11b136ea224fe,,,,,,,,,506,43,80,1,0,0,response1disk,,7,2,6,1,0,0,rectangle,2,6,1,0,0,2,6,1,0,0,1,92,252,46,1,,,,,,,,
,,,,,,,,,,,,,FF,,,,,,,,1.8168,,,,,,,,,,,,,,,,,,,,,,60ff49d0bb904e48c69d0133,61036b2594c7d8bd8f5eab53,2021-07-29_20h00.21.182,Simcolourproject_2stim_asymm_v5,2020.2.10,Win32,60,61025ae37ef11b136ea224fe,,,,,,,,,3926,65,-36,1,0,0,response3disk,,5,12,-14,1,0,0,rectangle,12,-14,1,0,0,12,-14,1,0,0,1,93,253,56,1,,,,,,,,
,,,,,,,,,,,,,FF,,,,,,,,1.0834,,,,,,,,,,,,,,,,,,,,,,60ff49d0bb904e48c69d0133,61036b2594c7d8bd8f5eab53,2021-07-29_20h00.21.182,Simcolourproject_2stim_asymm_v5,2020.2.10,Win32,60,61025ae37ef11b136ea224fe,,,,,,,,,2888,-61,-35,1,0,0,response5disk,,2,-23,-11,1,0,0,rectangle,-23,-11,1,0,0,-23,-11,1,0,0,1,94,254,10,1,,,,,,,,
,,,,,,,,,,,,,FF,,,,,,,,1.7001,,,,,,,,,,,,,,,,,,,,,,60ff49d0bb904e48c69d0133,61036b2594c7d8bd8f5eab53,2021-07-29_20h00.21.182,Simcolourproject_2stim_asymm_v5,2020.2.10,Win32,60,61025ae37ef11b136ea224fe,,,,,,,,,3235,-34,-60,1,0,0,response5disk,,3,-5,-6,1,0,0,rectangle,-5,-6,1,0,0,-5,-6,1,0,0,1,95,255,82,1,,,,,,,,
,,,,,,,,,,,,,FF,,,,,,,,1.75,,,,,,,,,,,,,,,,,,,,,,60ff49d0bb904e48c69d0133,61036b2594c7d8bd8f5eab53,2021-07-29_20h00.21.182,Simcolourproject_2stim_asymm_v5,2020.2.10,Win32,60,61025ae37ef11b136ea224fe,,,,,,,,,2286,52,-68,1,0,0,response3disk,,4,18,1,1,0,0,rectangle,18,1,1,0,0,18,1,1,0,0,1,96,256,34,1,,,,,,,,
,,,,,,,,,,,,,FF,,,,,,,,2,,,,,,,,,,,,,,,,,,,,,,60ff49d0bb904e48c69d0133,61036b2594c7d8bd8f5eab53,2021-07-29_20h00.21.182,Simcolourproject_2stim_asymm_v5,2020.2.10,Win32,60,61025ae37ef11b136ea224fe,,,,,,,,,1447,-34,-80,1,0,0,response5disk,,3,15,0,1,0,0,rectangle,15,0,1,0,0,15,0,1,0,0,1,97,257,122,1,,,,,,,,
,,,,,,,,,,,,,FF,,,,,,,,0.915,,,,,,,,,,,,,,,,,,,,,,60ff49d0bb904e48c69d0133,61036b2594c7d8bd8f5eab53,2021-07-29_20h00.21.182,Simcolourproject_2stim_asymm_v5,2020.2.10,Win32,60,61025ae37ef11b136ea224fe,,,,,,,,,2251,118,-45,1,0,0,response3disk,,5,8,-1,1,0,0,rectangle,8,-1,1,0,0,8,-1,1,0,0,1,98,258,154,1,,,,,,,,
,,,,,,,,,,,,,FF,,,,,,,,1.0001,,,,,,,,,,,,,,,,,,,,,,60ff49d0bb904e48c69d0133,61036b2594c7d8bd8f5eab53,2021-07-29_20h00.21.182,Simcolourproject_2stim_asymm_v5,2020.2.10,Win32,60,61025ae37ef11b136ea224fe,,,,,,,,,2677,79,-26,1,0,0,response3disk,,5,27,-10,1,0,0,rectangle,27,-10,1,0,0,27,-10,1,0,0,1,99,259,110,1,,,,,,,,
,,,,,,,,,,,,,FF,,,,,,,,0.7517,,,,,,,,,,,,,,,,,,,,,,60ff49d0bb904e48c69d0133,61036b2594c7d8bd8f5eab53,2021-07-29_20h00.21.182,Simcolourproject_2stim_asymm_v5,2020.2.10,Win32,60,61025ae37ef11b136ea224fe,,,,,,,,,244,111,55,1,0,0,response1disk,,6,2,-3,1,0,0,rectangle,2,-3,1,0,0,2,-3,1,0,0,1,100,260,101,1,,,,,,,,
,,,,,,,,,,,,,FF,,,,,,,,0.8167,,,,,,,,,,,,,,,,,,,,,,60ff49d0bb904e48c69d0133,61036b2594c7d8bd8f5eab53,2021-07-29_20h00.21.182,Simcolourproject_2stim_asymm_v5,2020.2.10,Win32,60,61025ae37ef11b136ea224fe,,,,,,,,,3113,91,36,1,0,0,response1disk,,6,18,5,1,0,0,rectangle,18,5,1,0,0,18,5,1,0,0,1,101,261,114,1,,,,,,,,
,,,,,,,,,,,,,FF,,,,,,,,1.0833,,,,,,,,,,,,,,,,,,,,,,60ff49d0bb904e48c69d0133,61036b2594c7d8bd8f5eab53,2021-07-29_20h00.21.182,Simcolourproject_2stim_asymm_v5,2020.2.10,Win32,60,61025ae37ef11b136ea224fe,,,,,,,,,3198,-35,-70,1,0,0,response5disk,,3,-3,0,1,0,0,rectangle,-3,0,1,0,0,-3,0,1,0,0,1,102,262,74,1,,,,,,,,
,,,,,,,,,,,,,FF,,,,,,,,2.1651,,,,,,,,,,,,,,,,,,,,,,60ff49d0bb904e48c69d0133,61036b2594c7d8bd8f5eab53,2021-07-29_20h00.21.182,Simcolourproject_2stim_asymm_v5,2020.2.10,Win32,60,61025ae37ef11b136ea224fe,,,,,,,,,1739,86,-38,1,0,0,response3disk,,5,-4,-3,1,0,0,rectangle,-4,-3,1,0,0,-4,-3,1,0,0,1,103,263,64,1,,,,,,,,
,,,,,,,,,,,,,FF,,,,,,,,1.1333,,,,,,,,,,,,,,,,,,,,,,60ff49d0bb904e48c69d0133,61036b2594c7d8bd8f5eab53,2021-07-29_20h00.21.182,Simcolourproject_2stim_asymm_v5,2020.2.10,Win32,60,61025ae37ef11b136ea224fe,,,,,,,,,2641,81,43,1,0,0,response1disk,,6,3,3,1,0,0,rectangle,3,3,1,0,0,3,3,1,0,0,1,104,264,49,1,,,,,,,,
,,,,,,,,,,,,,FF,,,,,,,,1.3019,,,,,,,,,,,,,,,,,,,,,,60ff49d0bb904e48c69d0133,61036b2594c7d8bd8f5eab53,2021-07-29_20h00.21.182,Simcolourproject_2stim_asymm_v5,2020.2.10,Win32,60,61025ae37ef11b136ea224fe,,,,,,,,,2327,40,65,1,0,0,response1disk,,7,8,8,1,0,0,rectangle,8,8,1,0,0,8,8,1,0,0,1,105,265,155,1,,,,,,,,
,,,,,,,,,,,,,FF,,,,,,,,1.3482,,,,,,,,,,,,,,,,,,,,,,60ff49d0bb904e48c69d0133,61036b2594c7d8bd8f5eab53,2021-07-29_20h00.21.182,Simcolourproject_2stim_asymm_v5,2020.2.10,Win32,60,61025ae37ef11b136ea224fe,,,,,,,,,1577,38,65,1,0,0,response1disk,,7,4,-4,1,0,0,rectangle,4,-4,1,0,0,4,-4,1,0,0,1,106,266,103,1,,,,,,,,
,,,,,,,,,,,,,FF,,,,,,,,1.3501,,,,,,,,,,,,,,,,,,,,,,60ff49d0bb904e48c69d0133,61036b2594c7d8bd8f5eab53,2021-07-29_20h00.21.182,Simcolourproject_2stim_asymm_v5,2020.2.10,Win32,60,61025ae37ef11b136ea224fe,,,,,,,,,2807,73,24,1,0,0,response1disk,,6,6,-13,1,0,0,rectangle,6,-13,1,0,0,6,-13,1,0,0,1,107,267,73,1,,,,,,,,
,,,,,,,,,,,,,FF,,,,,,,,1.05,,,,,,,,,,,,,,,,,,,,,,60ff49d0bb904e48c69d0133,61036b2594c7d8bd8f5eab53,2021-07-29_20h00.21.182,Simcolourproject_2stim_asymm_v5,2020.2.10,Win32,60,61025ae37ef11b136ea224fe,,,,,,,,,183,52,102,1,0,0,response1disk,,7,15,2,1,0,0,rectangle,15,2,1,0,0,15,2,1,0,0,1,108,268,26,1,,,,,,,,
,,,,,,,,,,,,,FF,,,,,,,,2.7167,,,,,,,,,,,,,,,,,,,,,,60ff49d0bb904e48c69d0133,61036b2594c7d8bd8f5eab53,2021-07-29_20h00.21.182,Simcolourproject_2stim_asymm_v5,2020.2.10,Win32,60,61025ae37ef11b136ea224fe,,,,,,,,,386,74,34,1,0,0,response1disk,,6,23,12,1,0,0,rectangle,23,12,1,0,0,23,12,1,0,0,1,109,269,113,1,,,,,,,,
,,,,,,,,,,,,,FF,,,,,,,,1.5501,,,,,,,,,,,,,,,,,,,,,,60ff49d0bb904e48c69d0133,61036b2594c7d8bd8f5eab53,2021-07-29_20h00.21.182,Simcolourproject_2stim_asymm_v5,2020.2.10,Win32,60,61025ae37ef11b136ea224fe,,,,,,,,,245,28,78,1,0,0,response1disk,,7,-17,7,1,0,0,rectangle,-17,7,1,0,0,-17,7,1,0,0,1,110,270,97,1,,,,,,,,
,,,,,,,,,,,,,FF,,,,,,,,1.5499,,,,,,,,,,,,,,,,,,,,,,60ff49d0bb904e48c69d0133,61036b2594c7d8bd8f5eab53,2021-07-29_20h00.21.182,Simcolourproject_2stim_asymm_v5,2020.2.10,Win32,60,61025ae37ef11b136ea224fe,,,,,,,,,609,81,-34,1,0,0,response3disk,,5,17,-13,1,0,0,rectangle,38,75,1,0,0,3,-4,1,0,0,1,111,271,3,1,,response1disk_3,TRUE,7,7,"[97,152,201,32,202,139,38,226,272,29,58,247,318,216,196,204,111,120,281,134]",1.3999,rectangle
,,,,,,,,,,,,,FF,,,,,,,,2.1334,,,,,,,,,,,,,,,,,,,,,,60ff49d0bb904e48c69d0133,61036b2594c7d8bd8f5eab53,2021-07-29_20h00.21.182,Simcolourproject_2stim_asymm_v5,2020.2.10,Win32,60,61025ae37ef11b136ea224fe,,,,,,,,,2783,42,-56,1,0,0,response3disk,,4,6,1,1,0,0,rectangle,6,1,1,0,0,6,1,1,0,0,1,112,272,149,1,,,,,,,,
,,,,,,,,,,,,,FF,,,,,,,,2.6167,,,,,,,,,,,,,,,,,,,,,,60ff49d0bb904e48c69d0133,61036b2594c7d8bd8f5eab53,2021-07-29_20h00.21.182,Simcolourproject_2stim_asymm_v5,2020.2.10,Win32,60,61025ae37ef11b136ea224fe,,,,,,,,,3814,57,-34,1,0,0,response3disk,,5,-8,-14,1,0,0,rectangle,-8,-14,1,0,0,-8,-14,1,0,0,1,113,273,108,1,,,,,,,,
,,,,,,,,,,,,,FF,,,,,,,,1.1852,,,,,,,,,,,,,,,,,,,,,,60ff49d0bb904e48c69d0133,61036b2594c7d8bd8f5eab53,2021-07-29_20h00.21.182,Simcolourproject_2stim_asymm_v5,2020.2.10,Win32,60,61025ae37ef11b136ea224fe,,,,,,,,,1556,74,36,1,0,0,response1disk,,6,2,4,1,0,0,rectangle,2,4,1,0,0,2,4,1,0,0,1,114,274,20,1,,,,,,,,
,,,,,,,,,,,,,FF,,,,,,,,0.75,,,,,,,,,,,,,,,,,,,,,,60ff49d0bb904e48c69d0133,61036b2594c7d8bd8f5eab53,2021-07-29_20h00.21.182,Simcolourproject_2stim_asymm_v5,2020.2.10,Win32,60,61025ae37ef11b136ea224fe,,,,,,,,,3279,45,82,1,0,0,response1disk,,7,2,9,1,0,0,rectangle,2,9,1,0,0,2,9,1,0,0,1,115,275,142,1,,,,,,,,
,,,,,,,,,,,,,FF,,,,,,,,1.1166,,,,,,,,,,,,,,,,,,,,,,60ff49d0bb904e48c69d0133,61036b2594c7d8bd8f5eab53,2021-07-29_20h00.21.182,Simcolourproject_2stim_asymm_v5,2020.2.10,Win32,60,61025ae37ef11b136ea224fe,,,,,,,,,214,71,27,1,0,0,response1disk,,6,2,-8,1,0,0,rectangle,2,-8,1,0,0,2,-8,1,0,0,1,116,276,57,1,,,,,,,,
,,,,,,,,,,,,,FF,,,,,,,,1.1001,,,,,,,,,,,,,,,,,,,,,,60ff49d0bb904e48c69d0133,61036b2594c7d8bd8f5eab53,2021-07-29_20h00.21.182,Simcolourproject_2stim_asymm_v5,2020.2.10,Win32,60,61025ae37ef11b136ea224fe,,,,,,,,,1387,69,-33,1,0,0,response3disk,,5,10,-9,1,0,0,rectangle,10,-9,1,0,0,10,-9,1,0,0,1,117,277,30,1,,,,,,,,
,,,,,,,,,,,,,FF,,,,,,,,1.6482,,,,,,,,,,,,,,,,,,,,,,60ff49d0bb904e48c69d0133,61036b2594c7d8bd8f5eab53,2021-07-29_20h00.21.182,Simcolourproject_2stim_asymm_v5,2020.2.10,Win32,60,61025ae37ef11b136ea224fe,,,,,,,,,2312,44,63,1,0,0,response1disk,,7,5,3,1,0,0,rectangle,5,3,1,0,0,5,3,1,0,0,1,118,278,98,1,,,,,,,,
,,,,,,,,,,,,,FF,,,,,,,,2.1833,,,,,,,,,,,,,,,,,,,,,,60ff49d0bb904e48c69d0133,61036b2594c7d8bd8f5eab53,2021-07-29_20h00.21.182,Simcolourproject_2stim_asymm_v5,2020.2.10,Win32,60,61025ae37ef11b136ea224fe,,,,,,,,,2687,66,36,1,0,0,response1disk,,6,11,-5,1,0,0,rectangle,11,-5,1,0,0,11,-5,1,0,0,1,119,279,50,1,,,,,,,,
,,,,,,,,,,,,,FF,,,,,,,,0.9832,,,,,,,,,,,,,,,,,,,,,,60ff49d0bb904e48c69d0133,61036b2594c7d8bd8f5eab53,2021-07-29_20h00.21.182,Simcolourproject_2stim_asymm_v5,2020.2.10,Win32,60,61025ae37ef11b136ea224fe,,,,,,,,,3725,47,57,1,0,0,response1disk,,7,19,-7,1,0,0,rectangle,-88,33,1,0,0,4,-11,1,0,0,1,120,280,17,1,,response7disk_3,TRUE,1,1,"[97,152,201,32,202,139,38,226,272,29,58,247,318,216,196,204,111,120,281,134]",1.8834,rectangle
,,,,,,,,,,,,,FF,,,,,,,,1.0667,,,,,,,,,,,,,,,,,,,,,,60ff49d0bb904e48c69d0133,61036b2594c7d8bd8f5eab53,2021-07-29_20h00.21.182,Simcolourproject_2stim_asymm_v5,2020.2.10,Win32,60,61025ae37ef11b136ea224fe,,,,,,,,,1461,41,-77,1,0,0,response3disk,,4,-5,1,1,0,0,rectangle,-5,1,1,0,0,-5,1,1,0,0,1,121,281,157,1,,,,,,,,
,,,,,,,,,,,,,FF,,,,,,,,1.0168,,,,,,,,,,,,,,,,,,,,,,60ff49d0bb904e48c69d0133,61036b2594c7d8bd8f5eab53,2021-07-29_20h00.21.182,Simcolourproject_2stim_asymm_v5,2020.2.10,Win32,60,61025ae37ef11b136ea224fe,,,,,,,,,4128,97,48,1,0,0,response1disk,,6,7,-10,1,0,0,rectangle,7,-10,1,0,0,7,-10,1,0,0,1,122,282,130,1,,,,,,,,
,,,,,,,,,,,,,FF,,,,,,,,1.0332,,,,,,,,,,,,,,,,,,,,,,60ff49d0bb904e48c69d0133,61036b2594c7d8bd8f5eab53,2021-07-29_20h00.21.182,Simcolourproject_2stim_asymm_v5,2020.2.10,Win32,60,61025ae37ef11b136ea224fe,,,,,,,,,2225,42,72,1,0,0,response1disk,,7,8,11,1,0,0,rectangle,8,11,1,0,0,8,11,1,0,0,1,123,283,68,1,,,,,,,,
,,,,,,,,,,,,,FF,,,,,,,,3.5817,,,,,,,,,,,,,,,,,,,,,,60ff49d0bb904e48c69d0133,61036b2594c7d8bd8f5eab53,2021-07-29_20h00.21.182,Simcolourproject_2stim_asymm_v5,2020.2.10,Win32,60,61025ae37ef11b136ea224fe,,,,,,,,,1771,95,34,1,0,0,response1disk,,6,3,7,1,0,0,rectangle,3,7,1,0,0,3,7,1,0,0,1,124,284,96,1,,,,,,,,
,,,,,,,,,,,,,FF,,,,,,,,1.2167,,,,,,,,,,,,,,,,,,,,,,60ff49d0bb904e48c69d0133,61036b2594c7d8bd8f5eab53,2021-07-29_20h00.21.182,Simcolourproject_2stim_asymm_v5,2020.2.10,Win32,60,61025ae37ef11b136ea224fe,,,,,,,,,1964,36,-73,1,0,0,response3disk,,4,5,0,1,0,0,rectangle,5,0,1,0,0,5,0,1,0,0,1,125,285,140,1,,,,,,,,
,,,,,,,,,,,,,FF,,,,,,,,7.1984,,,,,,,,,,,,,,,,,,,,,,60ff49d0bb904e48c69d0133,61036b2594c7d8bd8f5eab53,2021-07-29_20h00.21.182,Simcolourproject_2stim_asymm_v5,2020.2.10,Win32,60,61025ae37ef11b136ea224fe,,,,,,,,,4074,93,-41,1,0,0,response3disk,,5,-11,-6,1,0,0,rectangle,-11,-6,1,0,0,-11,-6,1,0,0,1,126,286,128,1,,,,,,,,
,,,,,,,,,,,,,FF,,,,,,,,2.1334,,,,,,,,,,,,,,,,,,,,,,60ff49d0bb904e48c69d0133,61036b2594c7d8bd8f5eab53,2021-07-29_20h00.21.182,Simcolourproject_2stim_asymm_v5,2020.2.10,Win32,60,61025ae37ef11b136ea224fe,,,,,,,,,3688,97,-40,1,0,0,response3disk,,5,0,10,1,0,0,rectangle,0,10,1,0,0,0,10,1,0,0,1,127,287,72,1,,,,,,,,
,,,,,,,,,,,,,FF,,,,,,,,0.9333,,,,,,,,,,,,,,,,,,,,,,60ff49d0bb904e48c69d0133,61036b2594c7d8bd8f5eab53,2021-07-29_20h00.21.182,Simcolourproject_2stim_asymm_v5,2020.2.10,Win32,60,61025ae37ef11b136ea224fe,,,,,,,,,1,-39,-74,1,0,0,response5disk,,3,10,17,1,0,0,rectangle,10,17,1,0,0,10,17,1,0,0,1,128,288,120,1,,,,,,,,
,,,,,,,,,,,,,FF,,,,,,,,1,,,,,,,,,,,,,,,,,,,,,,60ff49d0bb904e48c69d0133,61036b2594c7d8bd8f5eab53,2021-07-29_20h00.21.182,Simcolourproject_2stim_asymm_v5,2020.2.10,Win32,60,61025ae37ef11b136ea224fe,,,,,,,,,3411,61,-42,1,0,0,response3disk,,5,-3,1,1,0,0,rectangle,-3,1,1,0,0,-3,1,1,0,0,1,129,289,63,1,,,,,,,,
,,,,,,,,,,,,,FF,,,,,,,,1.1166,,,,,,,,,,,,,,,,,,,,,,60ff49d0bb904e48c69d0133,61036b2594c7d8bd8f5eab53,2021-07-29_20h00.21.182,Simcolourproject_2stim_asymm_v5,2020.2.10,Win32,60,61025ae37ef11b136ea224fe,,,,,,,,,649,68,42,1,0,0,response1disk,,6,15,13,1,0,0,rectangle,15,13,1,0,0,15,13,1,0,0,1,130,290,40,1,,,,,,,,
,,,,,,,,,,,,,FF,,,,,,,,1.5001,,,,,,,,,,,,,,,,,,,,,,60ff49d0bb904e48c69d0133,61036b2594c7d8bd8f5eab53,2021-07-29_20h00.21.182,Simcolourproject_2stim_asymm_v5,2020.2.10,Win32,60,61025ae37ef11b136ea224fe,,,,,,,,,3948,69,-27,1,0,0,response3disk,,5,19,3,1,0,0,rectangle,19,3,1,0,0,19,3,1,0,0,1,131,291,35,1,,,,,,,,
,,,,,,,,,,,,,FF,,,,,,,,1.2167,,,,,,,,,,,,,,,,,,,,,,60ff49d0bb904e48c69d0133,61036b2594c7d8bd8f5eab53,2021-07-29_20h00.21.182,Simcolourproject_2stim_asymm_v5,2020.2.10,Win32,60,61025ae37ef11b136ea224fe,,,,,,,,,816,74,36,1,0,0,response1disk,,6,4,2,1,0,0,rectangle,4,2,1,0,0,4,2,1,0,0,1,132,292,78,1,,,,,,,,
,,,,,,,,,,,,,FF,,,,,,,,1.1318,,,,,,,,,,,,,,,,,,,,,,60ff49d0bb904e48c69d0133,61036b2594c7d8bd8f5eab53,2021-07-29_20h00.21.182,Simcolourproject_2stim_asymm_v5,2020.2.10,Win32,60,61025ae37ef11b136ea224fe,,,,,,,,,2351,97,-33,1,0,0,response3disk,,5,22,-8,1,0,0,rectangle,22,-8,1,0,0,22,-8,1,0,0,1,133,293,37,1,,,,,,,,
,,,,,,,,,,,,,FF,,,,,,,,0.8333,,,,,,,,,,,,,,,,,,,,,,60ff49d0bb904e48c69d0133,61036b2594c7d8bd8f5eab53,2021-07-29_20h00.21.182,Simcolourproject_2stim_asymm_v5,2020.2.10,Win32,60,61025ae37ef11b136ea224fe,,,,,,,,,2766,42,91,1,0,0,response1disk,,7,10,5,1,0,0,rectangle,10,5,1,0,0,10,5,1,0,0,1,134,294,77,1,,,,,,,,
,,,,,,,,,,,,,FF,,,,,,,,0.7832,,,,,,,,,,,,,,,,,,,,,,60ff49d0bb904e48c69d0133,61036b2594c7d8bd8f5eab53,2021-07-29_20h00.21.182,Simcolourproject_2stim_asymm_v5,2020.2.10,Win32,60,61025ae37ef11b136ea224fe,,,,,,,,,4370,-31,71,1,0,0,response7disk,,0,-10,12,1,0,0,rectangle,-10,12,1,0,0,-10,12,1,0,0,1,135,295,75,1,,,,,,,,
,,,,,,,,,,,,,FF,,,,,,,,2.5,,,,,,,,,,,,,,,,,,,,,,60ff49d0bb904e48c69d0133,61036b2594c7d8bd8f5eab53,2021-07-29_20h00.21.182,Simcolourproject_2stim_asymm_v5,2020.2.10,Win32,60,61025ae37ef11b136ea224fe,,,,,,,,,614,43,-82,1,0,0,response3disk,,4,-7,-5,1,0,0,rectangle,-7,-5,1,0,0,-7,-5,1,0,0,1,136,296,29,1,,,,,,,,
,,,,,,,,,,,,,FF,,,,,,,,1.0168,,,,,,,,,,,,,,,,,,,,,,60ff49d0bb904e48c69d0133,61036b2594c7d8bd8f5eab53,2021-07-29_20h00.21.182,Simcolourproject_2stim_asymm_v5,2020.2.10,Win32,60,61025ae37ef11b136ea224fe,,,,,,,,,191,80,58,1,0,0,response1disk,,6,-21,7,1,0,0,rectangle,-21,7,1,0,0,-21,7,1,0,0,1,137,297,9,1,,,,,,,,
,,,,,,,,,,,,,FF,,,,,,,,0.8501,,,,,,,,,,,,,,,,,,,,,,60ff49d0bb904e48c69d0133,61036b2594c7d8bd8f5eab53,2021-07-29_20h00.21.182,Simcolourproject_2stim_asymm_v5,2020.2.10,Win32,60,61025ae37ef11b136ea224fe,,,,,,,,,4167,33,77,1,0,0,response1disk,,7,-14,10,1,0,0,rectangle,-14,10,1,0,0,-14,10,1,0,0,1,138,298,38,1,,,,,,,,
,,,,,,,,,,,,,FF,,,,,,,,1.6166,,,,,,,,,,,,,,,,,,,,,,60ff49d0bb904e48c69d0133,61036b2594c7d8bd8f5eab53,2021-07-29_20h00.21.182,Simcolourproject_2stim_asymm_v5,2020.2.10,Win32,60,61025ae37ef11b136ea224fe,,,,,,,,,4250,36,74,1,0,0,response1disk,,7,8,-14,1,0,0,rectangle,8,-14,1,0,0,8,-14,1,0,0,1,139,299,85,1,,,,,,,,
,,,,,,,,,,,,,FF,,,,,,,,2.2167,,,,,,,,,,,,,,,,,,,,,,60ff49d0bb904e48c69d0133,61036b2594c7d8bd8f5eab53,2021-07-29_20h00.21.182,Simcolourproject_2stim_asymm_v5,2020.2.10,Win32,60,61025ae37ef11b136ea224fe,,,,,,,,,702,59,-45,1,0,0,response3disk,,5,9,-8,1,0,0,rectangle,9,-8,1,0,0,9,-8,1,0,0,1,140,300,116,1,,,,,,,,
,,,,,,,,,,,,,FF,,,,,,,,1.7334,,,,,,,,,,,,,,,,,,,,,,60ff49d0bb904e48c69d0133,61036b2594c7d8bd8f5eab53,2021-07-29_20h00.21.182,Simcolourproject_2stim_asymm_v5,2020.2.10,Win32,60,61025ae37ef11b136ea224fe,,,,,,,,,1531,83,27,1,0,0,response1disk,,6,24,-4,1,0,0,rectangle,24,-4,1,0,0,24,-4,1,0,0,1,141,301,48,1,,,,,,,,
,,,,,,,,,,,,,FF,,,,,,,,1.95,,,,,,,,,,,,,,,,,,,,,,60ff49d0bb904e48c69d0133,61036b2594c7d8bd8f5eab53,2021-07-29_20h00.21.182,Simcolourproject_2stim_asymm_v5,2020.2.10,Win32,60,61025ae37ef11b136ea224fe,,,,,,,,,4256,68,-38,1,0,0,response3disk,,5,8,-13,1,0,0,rectangle,8,-13,1,0,0,8,-13,1,0,0,1,142,302,42,1,,,,,,,,
