key_resp.keys,key_resp.rt,key_resp_14.keys,key_resp_14.rt,key_resp_15.keys,key_resp_15.rt,key_resp_17.keys,key_resp_17.rt,key_resp_9.keys,key_resp_9.rt,key_resp_10.keys,key_resp_10.rt,practice_comparison,Ecc,mouse_5.x,mouse_5.y,mouse_5.leftButton,mouse_5.midButton,mouse_5.rightButton,mouse_5.clicked_name,pracsimilarity,response_time,mouse_10.x,mouse_10.y,mouse_10.leftButton,mouse_10.midButton,mouse_10.rightButton,mouse_10.clicked_name,mouse_7.x,mouse_7.y,mouse_7.leftButton,mouse_7.midButton,mouse_7.rightButton,mouse_6.x,mouse_6.y,mouse_6.leftButton,mouse_6.midButton,mouse_6.rightButton,duringprac.thisRepN,duringprac.thisTrialN,duringprac.thisN,duringprac.thisIndex,duringprac.ran,participant,session,date,expName,psychopyVersion,OS,frameRate,study_id,mouse_7.clicked_name,catchpracsimilarity,catch_response_time,catchnumberprac,catchtrialorderprac,mouse_6.clicked_name,key_resp_22.keys,key_resp_22.rt,realcomparison,mouse.x,mouse.y,mouse.leftButton,mouse.midButton,mouse.rightButton,mouse.clicked_name,Colour2,similarity,mouse_2.x,mouse_2.y,mouse_2.leftButton,mouse_2.midButton,mouse_2.rightButton,mouse_2.clicked_name,mouse_3.x,mouse_3.y,mouse_3.leftButton,mouse_3.midButton,mouse_3.rightButton,mouse_11.x,mouse_11.y,mouse_11.leftButton,mouse_11.midButton,mouse_11.rightButton,trials_2.thisRepN,trials_2.thisTrialN,trials_2.thisN,trials_2.thisIndex,trials_2.ran,Colour1,mouse_3.clicked_name,catchornah,catchsimilarity,catchnumber,catchtrialorder,catchRT,mouse_11.clicked_name
space,2.8776,space,840.4629,space,14.2525,space,2.732,space,1.0411,space,2.8659,18,FF,35.1640625,-26.23828125,1,0,0,response3disk_5,5,5.902,-0.0234375,-2.2734375,1,0,0,rectangle_8,-0.0234375,-2.2734375,1,0,0,-0.0234375,-2.2734375,1,0,0,0,0,0,3,1,60ff83ae7a31ac64e3f71491,61036e39356b38f01ba123d6,2021-07-29_21h14.05.787,Simcolourproject_2stim_asymm_v5,2020.2.10,MacIntel,60,61025ae37ef11b136ea224fe,,,,,,,,,,,,,,,,,,,,,,,,,,,,,,,,,,,,,,,,,,,,,,
,,,,,,,,,,,,98,PF,17.3671875,-49.1875,1,0,0,response3disk_5,4,2.5332,0.359375,0.14453125,1,0,0,rectangle_8,16.7890625,53.54296875,1,0,0,-6.234375,4.30859375,1,0,0,0,1,1,1,1,60ff83ae7a31ac64e3f71491,61036e39356b38f01ba123d6,2021-07-29_21h14.05.787,Simcolourproject_2stim_asymm_v5,2020.2.10,MacIntel,60,61025ae37ef11b136ea224fe,response1disk_7,7,2.9842,7,"[2,5]",rectangle_4,,,,,,,,,,,,,,,,,,,,,,,,,,,,,,,,,,,,,,,,
,,,,,,,,,,,,85,PF,-35.2890625,60.25,1,0,0,response7disk_5,0,3.4845,-7.390625,0.49609375,1,0,0,rectangle_8,-7.390625,0.49609375,1,0,0,-7.390625,0.49609375,1,0,0,0,2,2,4,1,60ff83ae7a31ac64e3f71491,61036e39356b38f01ba123d6,2021-07-29_21h14.05.787,Simcolourproject_2stim_asymm_v5,2020.2.10,MacIntel,60,61025ae37ef11b136ea224fe,,,,,,,,,,,,,,,,,,,,,,,,,,,,,,,,,,,,,,,,,,,,,,
,,,,,,,,,,,,99,FF,-48.76171875,-40.19140625,1,0,0,response5disk_5,2,1.3666,1.3515625,3.04296875,1,0,0,rectangle_8,1.3515625,3.04296875,1,0,0,1.3515625,3.04296875,1,0,0,0,3,3,0,1,60ff83ae7a31ac64e3f71491,61036e39356b38f01ba123d6,2021-07-29_21h14.05.787,Simcolourproject_2stim_asymm_v5,2020.2.10,MacIntel,60,61025ae37ef11b136ea224fe,,,,,,,,,,,,,,,,,,,,,,,,,,,,,,,,,,,,,,,,,,,,,,
,,,,,,,,,,,,25,PF,-49.5078125,10.38671875,1,0,0,response7disk_5,1,1.217,-18.40625,-11.625,1,0,0,rectangle_8,9.2890625,63.31640625,1,0,0,9.02734375,4.26171875,1,0,0,0,4,4,6,1,60ff83ae7a31ac64e3f71491,61036e39356b38f01ba123d6,2021-07-29_21h14.05.787,Simcolourproject_2stim_asymm_v5,2020.2.10,MacIntel,60,61025ae37ef11b136ea224fe,response1disk_7,7,2.0328,7,"[2,5]",rectangle_4,,,,,,,,,,,,,,,,,,,,,,,,,,,,,,,,,,,,,,,,
,,,,,,,,,,,,68,FF,22.3671875,-50.01953125,1,0,0,response3disk_5,4,1.9817,-10.42578125,5.1875,1,0,0,rectangle_8,-10.42578125,5.1875,1,0,0,-10.42578125,5.1875,1,0,0,0,5,5,5,1,60ff83ae7a31ac64e3f71491,61036e39356b38f01ba123d6,2021-07-29_21h14.05.787,Simcolourproject_2stim_asymm_v5,2020.2.10,MacIntel,60,61025ae37ef11b136ea224fe,,,,,,,,,,,,,,,,,,,,,,,,,,,,,,,,,,,,,,,,,,,,,,
,,,,,,,,,,,,157,PF,-53.69921875,-29.9453125,1,0,0,response5disk_5,2,1.0679,-9.4765625,2.1171875,1,0,0,rectangle_8,-9.4765625,2.1171875,1,0,0,-9.4765625,2.1171875,1,0,0,0,6,6,2,1,60ff83ae7a31ac64e3f71491,61036e39356b38f01ba123d6,2021-07-29_21h14.05.787,Simcolourproject_2stim_asymm_v5,2020.2.10,MacIntel,60,61025ae37ef11b136ea224fe,,,,,,,,,,,,,,,,,,,,,,,,,,,,,,,,,,,,,,,,,,,,,,
,,,,,,,,,,,,,FF,,,,,,,,0.9998,,,,,,,,,,,,,,,,,,,,,,60ff83ae7a31ac64e3f71491,61036e39356b38f01ba123d6,2021-07-29_21h14.05.787,Simcolourproject_2stim_asymm_v5,2020.2.10,MacIntel,60,61025ae37ef11b136ea224fe,,,,,,,space,1.9218,3766,-63.9765625,-28.8203125,1,0,0,response5disk,,2,-5.3984375,2.25,1,0,0,rectangle,-5.3984375,2.25,1,0,0,-5.3984375,2.25,1,0,0,0,0,0,135,1,,,,,,,,
,,,,,,,,,,,,,FF,,,,,,,,1.8325,,,,,,,,,,,,,,,,,,,,,,60ff83ae7a31ac64e3f71491,61036e39356b38f01ba123d6,2021-07-29_21h14.05.787,Simcolourproject_2stim_asymm_v5,2020.2.10,MacIntel,60,61025ae37ef11b136ea224fe,,,,,,,,,3096,-52.08203125,31.484375,1,0,0,response7disk,,1,-8.4765625,2.296875,1,0,0,rectangle,-8.4765625,2.296875,1,0,0,-8.4765625,2.296875,1,0,0,0,1,1,106,1,,,,,,,,
,,,,,,,,,,,,,FF,,,,,,,,1.9,,,,,,,,,,,,,,,,,,,,,,60ff83ae7a31ac64e3f71491,61036e39356b38f01ba123d6,2021-07-29_21h14.05.787,Simcolourproject_2stim_asymm_v5,2020.2.10,MacIntel,60,61025ae37ef11b136ea224fe,,,,,,,,,3900,47.19140625,-29.171875,1,0,0,response3disk,,5,2.70703125,-5.03125,1,0,0,rectangle,2.70703125,-5.03125,1,0,0,2.70703125,-5.03125,1,0,0,0,2,2,108,1,,,,,,,,
,,,,,,,,,,,,,FF,,,,,,,,1.6333,,,,,,,,,,,,,,,,,,,,,,60ff83ae7a31ac64e3f71491,61036e39356b38f01ba123d6,2021-07-29_21h14.05.787,Simcolourproject_2stim_asymm_v5,2020.2.10,MacIntel,60,61025ae37ef11b136ea224fe,,,,,,,,,4041,22.515625,-55.03515625,1,0,0,response3disk,,4,9.328125,-5.5703125,1,0,0,rectangle,9.328125,-5.5703125,1,0,0,9.328125,-5.5703125,1,0,0,0,3,3,99,1,,,,,,,,
,,,,,,,,,,,,,FF,,,,,,,,5.2509,,,,,,,,,,,,,,,,,,,,,,60ff83ae7a31ac64e3f71491,61036e39356b38f01ba123d6,2021-07-29_21h14.05.787,Simcolourproject_2stim_asymm_v5,2020.2.10,MacIntel,60,61025ae37ef11b136ea224fe,,,,,,,,,1193,50.1484375,20.1796875,1,0,0,response1disk,,6,-7.890625,-4.60546875,1,0,0,rectangle,-7.890625,-4.60546875,1,0,0,-7.890625,-4.60546875,1,0,0,0,4,4,63,1,,,,,,,,
,,,,,,,,,,,,,FF,,,,,,,,1.1825,,,,,,,,,,,,,,,,,,,,,,60ff83ae7a31ac64e3f71491,61036e39356b38f01ba123d6,2021-07-29_21h14.05.787,Simcolourproject_2stim_asymm_v5,2020.2.10,MacIntel,60,61025ae37ef11b136ea224fe,,,,,,,,,474,33.87109375,55.14453125,1,0,0,response1disk,,7,10.75,0.4140625,1,0,0,rectangle,10.75,0.4140625,1,0,0,10.75,0.4140625,1,0,0,0,5,5,73,1,,,,,,,,
,,,,,,,,,,,,,FF,,,,,,,,1.6506,,,,,,,,,,,,,,,,,,,,,,60ff83ae7a31ac64e3f71491,61036e39356b38f01ba123d6,2021-07-29_21h14.05.787,Simcolourproject_2stim_asymm_v5,2020.2.10,MacIntel,60,61025ae37ef11b136ea224fe,,,,,,,,,1564,44.66796875,-26.7109375,1,0,0,response3disk,,5,7.25390625,0.5546875,1,0,0,rectangle,7.25390625,0.5546875,1,0,0,7.25390625,0.5546875,1,0,0,0,6,6,115,1,,,,,,,,
,,,,,,,,,,,,,FF,,,,,,,,1.0333,,,,,,,,,,,,,,,,,,,,,,60ff83ae7a31ac64e3f71491,61036e39356b38f01ba123d6,2021-07-29_21h14.05.787,Simcolourproject_2stim_asymm_v5,2020.2.10,MacIntel,60,61025ae37ef11b136ea224fe,,,,,,,,,738,36.0390625,-18.59765625,1,0,0,response3disk,,5,1.65625,-1.4375,1,0,0,rectangle,1.65625,-1.4375,1,0,0,1.65625,-1.4375,1,0,0,0,7,7,110,1,,,,,,,,
,,,,,,,,,,,,,FF,,,,,,,,3.5005,,,,,,,,,,,,,,,,,,,,,,60ff83ae7a31ac64e3f71491,61036e39356b38f01ba123d6,2021-07-29_21h14.05.787,Simcolourproject_2stim_asymm_v5,2020.2.10,MacIntel,60,61025ae37ef11b136ea224fe,,,,,,,,,862,48.76171875,39.9296875,1,0,0,response1disk,,6,-3.26171875,2.84375,1,0,0,rectangle,-3.26171875,2.84375,1,0,0,-3.26171875,2.84375,1,0,0,0,8,8,21,1,,,,,,,,
,,,,,,,,,,,,,FF,,,,,,,,1.5836,,,,,,,,,,,,,,,,,,,,,,60ff83ae7a31ac64e3f71491,61036e39356b38f01ba123d6,2021-07-29_21h14.05.787,Simcolourproject_2stim_asymm_v5,2020.2.10,MacIntel,60,61025ae37ef11b136ea224fe,,,,,,,,,2352,38.68359375,-24.65625,1,0,0,response3disk,,5,-3.2265625,-4.66796875,1,0,0,rectangle,-3.2265625,-4.66796875,1,0,0,-3.2265625,-4.66796875,1,0,0,0,9,9,43,1,,,,,,,,
,,,,,,,,,,,,,FF,,,,,,,,1.9493,,,,,,,,,,,,,,,,,,,,,,60ff83ae7a31ac64e3f71491,61036e39356b38f01ba123d6,2021-07-29_21h14.05.787,Simcolourproject_2stim_asymm_v5,2020.2.10,MacIntel,60,61025ae37ef11b136ea224fe,,,,,,,,,958,22.20703125,-42.8359375,1,0,0,response3disk,,4,1.44140625,-3.50390625,1,0,0,rectangle,1.44140625,-3.50390625,1,0,0,1.44140625,-3.50390625,1,0,0,0,10,10,59,1,,,,,,,,
,,,,,,,,,,,,,FF,,,,,,,,0.8672,,,,,,,,,,,,,,,,,,,,,,60ff83ae7a31ac64e3f71491,61036e39356b38f01ba123d6,2021-07-29_21h14.05.787,Simcolourproject_2stim_asymm_v5,2020.2.10,MacIntel,60,61025ae37ef11b136ea224fe,,,,,,,,,782,15.171875,-34.140625,1,0,0,response3disk,,4,3.46484375,0.82421875,1,0,0,rectangle,3.46484375,0.82421875,1,0,0,3.46484375,0.82421875,1,0,0,0,11,11,151,1,,,,,,,,
,,,,,,,,,,,,,FF,,,,,,,,1.067,,,,,,,,,,,,,,,,,,,,,,60ff83ae7a31ac64e3f71491,61036e39356b38f01ba123d6,2021-07-29_21h14.05.787,Simcolourproject_2stim_asymm_v5,2020.2.10,MacIntel,60,61025ae37ef11b136ea224fe,,,,,,,,,2041,19.76171875,-44.65234375,1,0,0,response3disk,,4,16.87890625,-4.40625,1,0,0,rectangle,18.70703125,38.3359375,1,0,0,4.88671875,0.88671875,1,0,0,0,12,12,52,1,,response1disk_3,TRUE,7,7,"[286,138,51,178,17,200,322,285,15,13,108,278,65,320,33,198,57,46,204,66]",1.8661,rectangle
,,,,,,,,,,,,,FF,,,,,,,,1.7506,,,,,,,,,,,,,,,,,,,,,,60ff83ae7a31ac64e3f71491,61036e39356b38f01ba123d6,2021-07-29_21h14.05.787,Simcolourproject_2stim_asymm_v5,2020.2.10,MacIntel,60,61025ae37ef11b136ea224fe,,,,,,,,,4356,-53.24609375,-33.171875,1,0,0,response5disk,,2,-5.33984375,6.046875,1,0,0,rectangle,-5.33984375,6.046875,1,0,0,-5.33984375,6.046875,1,0,0,0,13,13,60,1,,,,,,,,
,,,,,,,,,,,,,FF,,,,,,,,1.2497,,,,,,,,,,,,,,,,,,,,,,60ff83ae7a31ac64e3f71491,61036e39356b38f01ba123d6,2021-07-29_21h14.05.787,Simcolourproject_2stim_asymm_v5,2020.2.10,MacIntel,60,61025ae37ef11b136ea224fe,,,,,,,,,3887,45.26953125,-25.546875,1,0,0,response3disk,,5,-18.5078125,7.72265625,1,0,0,rectangle,-38.58984375,51.27734375,1,0,0,-9.19921875,2.33203125,1,0,0,0,14,14,105,1,,response7disk_3,TRUE,0,0,"[286,138,51,178,17,200,322,285,15,13,108,278,65,320,33,198,57,46,204,66]",1.7483,rectangle
,,,,,,,,,,,,,FF,,,,,,,,1.0005,,,,,,,,,,,,,,,,,,,,,,60ff83ae7a31ac64e3f71491,61036e39356b38f01ba123d6,2021-07-29_21h14.05.787,Simcolourproject_2stim_asymm_v5,2020.2.10,MacIntel,60,61025ae37ef11b136ea224fe,,,,,,,,,1294,30.64453125,-14.76953125,1,0,0,response3disk,,5,-2.4375,2.1171875,1,0,0,rectangle,-2.4375,2.1171875,1,0,0,-2.4375,2.1171875,1,0,0,0,15,15,118,1,,,,,,,,
,,,,,,,,,,,,,FF,,,,,,,,0.9168,,,,,,,,,,,,,,,,,,,,,,60ff83ae7a31ac64e3f71491,61036e39356b38f01ba123d6,2021-07-29_21h14.05.787,Simcolourproject_2stim_asymm_v5,2020.2.10,MacIntel,60,61025ae37ef11b136ea224fe,,,,,,,,,3864,-23.484375,-47.40625,1,0,0,response5disk,,3,-2.515625,7.09765625,1,0,0,rectangle,59.90625,-25.515625,1,0,0,-8.04296875,-1.13671875,1,0,0,0,16,16,17,1,,response3disk_3,TRUE,5,5,"[286,138,51,178,17,200,322,285,15,13,108,278,65,320,33,198,57,46,204,66]",2.0004,rectangle
,,,,,,,,,,,,,FF,,,,,,,,1.0007,,,,,,,,,,,,,,,,,,,,,,60ff83ae7a31ac64e3f71491,61036e39356b38f01ba123d6,2021-07-29_21h14.05.787,Simcolourproject_2stim_asymm_v5,2020.2.10,MacIntel,60,61025ae37ef11b136ea224fe,,,,,,,,,2022,46.9453125,-33.0234375,1,0,0,response3disk,,5,-11.671875,1.89453125,1,0,0,rectangle,-11.671875,1.89453125,1,0,0,-11.671875,1.89453125,1,0,0,0,17,17,103,1,,,,,,,,
,,,,,,,,,,,,,FF,,,,,,,,1.4332,,,,,,,,,,,,,,,,,,,,,,60ff83ae7a31ac64e3f71491,61036e39356b38f01ba123d6,2021-07-29_21h14.05.787,Simcolourproject_2stim_asymm_v5,2020.2.10,MacIntel,60,61025ae37ef11b136ea224fe,,,,,,,,,3235,-27.1640625,-51.5234375,1,0,0,response5disk,,3,-8.92578125,-0.87109375,1,0,0,rectangle,-8.92578125,-0.87109375,1,0,0,-8.92578125,-0.87109375,1,0,0,0,18,18,87,1,,,,,,,,
,,,,,,,,,,,,,FF,,,,,,,,1.5827,,,,,,,,,,,,,,,,,,,,,,60ff83ae7a31ac64e3f71491,61036e39356b38f01ba123d6,2021-07-29_21h14.05.787,Simcolourproject_2stim_asymm_v5,2020.2.10,MacIntel,60,61025ae37ef11b136ea224fe,,,,,,,,,759,40.78125,-33.625,1,0,0,response3disk,,5,3.5390625,-7.27734375,1,0,0,rectangle,3.5390625,-7.27734375,1,0,0,3.5390625,-7.27734375,1,0,0,0,19,19,39,1,,,,,,,,
,,,,,,,,,,,,,FF,,,,,,,,2.0668,,,,,,,,,,,,,,,,,,,,,,60ff83ae7a31ac64e3f71491,61036e39356b38f01ba123d6,2021-07-29_21h14.05.787,Simcolourproject_2stim_asymm_v5,2020.2.10,MacIntel,60,61025ae37ef11b136ea224fe,,,,,,,,,1125,25.57421875,43.6484375,1,0,0,response1disk,,7,-1.19140625,-2.11328125,1,0,0,rectangle,-1.19140625,-2.11328125,1,0,0,-1.19140625,-2.11328125,1,0,0,0,20,20,66,1,,,,,,,,
,,,,,,,,,,,,,FF,,,,,,,,0.7829,,,,,,,,,,,,,,,,,,,,,,60ff83ae7a31ac64e3f71491,61036e39356b38f01ba123d6,2021-07-29_21h14.05.787,Simcolourproject_2stim_asymm_v5,2020.2.10,MacIntel,60,61025ae37ef11b136ea224fe,,,,,,,,,487,11.43359375,42.5234375,1,0,0,response1disk,,7,1.5546875,-0.9140625,1,0,0,rectangle,1.5546875,-0.9140625,1,0,0,1.5546875,-0.9140625,1,0,0,0,21,21,51,1,,,,,,,,
,,,,,,,,,,,,,FF,,,,,,,,0.7516,,,,,,,,,,,,,,,,,,,,,,60ff83ae7a31ac64e3f71491,61036e39356b38f01ba123d6,2021-07-29_21h14.05.787,Simcolourproject_2stim_asymm_v5,2020.2.10,MacIntel,60,61025ae37ef11b136ea224fe,,,,,,,,,1795,24.30078125,40,1,0,0,response1disk,,7,23.62890625,2.74609375,1,0,0,rectangle,23.62890625,2.74609375,1,0,0,23.62890625,2.74609375,1,0,0,0,22,22,157,1,,,,,,,,
,,,,,,,,,,,,,FF,,,,,,,,1.3333,,,,,,,,,,,,,,,,,,,,,,60ff83ae7a31ac64e3f71491,61036e39356b38f01ba123d6,2021-07-29_21h14.05.787,Simcolourproject_2stim_asymm_v5,2020.2.10,MacIntel,60,61025ae37ef11b136ea224fe,,,,,,,,,2892,-41.58984375,-51.890625,1,0,0,response5disk,,3,-14.67578125,-6.38671875,1,0,0,rectangle,-14.67578125,-6.38671875,1,0,0,-14.67578125,-6.38671875,1,0,0,0,23,23,10,1,,,,,,,,
,,,,,,,,,,,,,FF,,,,,,,,0.8331,,,,,,,,,,,,,,,,,,,,,,60ff83ae7a31ac64e3f71491,61036e39356b38f01ba123d6,2021-07-29_21h14.05.787,Simcolourproject_2stim_asymm_v5,2020.2.10,MacIntel,60,61025ae37ef11b136ea224fe,,,,,,,,,3679,36.8125,-25.7890625,1,0,0,response3disk,,5,4.5859375,-11.80078125,1,0,0,rectangle,4.5859375,-11.80078125,1,0,0,4.5859375,-11.80078125,1,0,0,0,24,24,24,1,,,,,,,,
,,,,,,,,,,,,,FF,,,,,,,,0.7331,,,,,,,,,,,,,,,,,,,,,,60ff83ae7a31ac64e3f71491,61036e39356b38f01ba123d6,2021-07-29_21h14.05.787,Simcolourproject_2stim_asymm_v5,2020.2.10,MacIntel,60,61025ae37ef11b136ea224fe,,,,,,,,,1889,-50.453125,-30.0546875,1,0,0,response5disk,,2,-16.62109375,-1.86328125,1,0,0,rectangle,-16.62109375,-1.86328125,1,0,0,-16.62109375,-1.86328125,1,0,0,0,25,25,4,1,,,,,,,,
,,,,,,,,,,,,,FF,,,,,,,,1.2006,,,,,,,,,,,,,,,,,,,,,,60ff83ae7a31ac64e3f71491,61036e39356b38f01ba123d6,2021-07-29_21h14.05.787,Simcolourproject_2stim_asymm_v5,2020.2.10,MacIntel,60,61025ae37ef11b136ea224fe,,,,,,,,,3811,-56.6015625,18.34765625,1,0,0,response7disk,,1,-3.796875,2.46875,1,0,0,rectangle,-3.796875,2.46875,1,0,0,-3.796875,2.46875,1,0,0,0,26,26,49,1,,,,,,,,
,,,,,,,,,,,,,FF,,,,,,,,1.1005,,,,,,,,,,,,,,,,,,,,,,60ff83ae7a31ac64e3f71491,61036e39356b38f01ba123d6,2021-07-29_21h14.05.787,Simcolourproject_2stim_asymm_v5,2020.2.10,MacIntel,60,61025ae37ef11b136ea224fe,,,,,,,,,3102,18.59765625,-47.22265625,1,0,0,response3disk,,4,11.23828125,-1.81640625,1,0,0,rectangle,11.23828125,-1.81640625,1,0,0,11.23828125,-1.81640625,1,0,0,0,27,27,11,1,,,,,,,,
,,,,,,,,,,,,,FF,,,,,,,,0.8834,,,,,,,,,,,,,,,,,,,,,,60ff83ae7a31ac64e3f71491,61036e39356b38f01ba123d6,2021-07-29_21h14.05.787,Simcolourproject_2stim_asymm_v5,2020.2.10,MacIntel,60,61025ae37ef11b136ea224fe,,,,,,,,,343,50.29296875,26.203125,1,0,0,response1disk,,6,-3.7421875,3.7265625,1,0,0,rectangle,-3.7421875,3.7265625,1,0,0,-3.7421875,3.7265625,1,0,0,0,28,28,68,1,,,,,,,,
,,,,,,,,,,,,,FF,,,,,,,,1.1502,,,,,,,,,,,,,,,,,,,,,,60ff83ae7a31ac64e3f71491,61036e39356b38f01ba123d6,2021-07-29_21h14.05.787,Simcolourproject_2stim_asymm_v5,2020.2.10,MacIntel,60,61025ae37ef11b136ea224fe,,,,,,,,,2727,47.8046875,32.59375,1,0,0,response1disk,,6,9.22265625,4.59765625,1,0,0,rectangle,9.22265625,4.59765625,1,0,0,9.22265625,4.59765625,1,0,0,0,29,29,85,1,,,,,,,,
,,,,,,,,,,,,,FF,,,,,,,,1.4329,,,,,,,,,,,,,,,,,,,,,,60ff83ae7a31ac64e3f71491,61036e39356b38f01ba123d6,2021-07-29_21h14.05.787,Simcolourproject_2stim_asymm_v5,2020.2.10,MacIntel,60,61025ae37ef11b136ea224fe,,,,,,,,,570,20.08203125,34.296875,1,0,0,response1disk,,7,13.734375,5.47265625,1,0,0,rectangle,13.734375,5.47265625,1,0,0,13.734375,5.47265625,1,0,0,0,30,30,28,1,,,,,,,,
,,,,,,,,,,,,,FF,,,,,,,,1.0168,,,,,,,,,,,,,,,,,,,,,,60ff83ae7a31ac64e3f71491,61036e39356b38f01ba123d6,2021-07-29_21h14.05.787,Simcolourproject_2stim_asymm_v5,2020.2.10,MacIntel,60,61025ae37ef11b136ea224fe,,,,,,,,,479,19.16015625,36.375,1,0,0,response1disk,,7,12.953125,-1.78125,1,0,0,rectangle,12.953125,-1.78125,1,0,0,12.953125,-1.78125,1,0,0,0,31,31,149,1,,,,,,,,
,,,,,,,,,,,,,FF,,,,,,,,0.8668,,,,,,,,,,,,,,,,,,,,,,60ff83ae7a31ac64e3f71491,61036e39356b38f01ba123d6,2021-07-29_21h14.05.787,Simcolourproject_2stim_asymm_v5,2020.2.10,MacIntel,60,61025ae37ef11b136ea224fe,,,,,,,,,2847,30.94921875,-11.20703125,1,0,0,response3disk,,5,6.55078125,0.6953125,1,0,0,rectangle,17.76953125,41.828125,1,0,0,-2.78125,-8.1484375,1,0,0,0,32,32,33,1,,response1disk_3,TRUE,7,7,"[286,138,51,178,17,200,322,285,15,13,108,278,65,320,33,198,57,46,204,66]",1.2501,rectangle
,,,,,,,,,,,,,FF,,,,,,,,0.7165,,,,,,,,,,,,,,,,,,,,,,60ff83ae7a31ac64e3f71491,61036e39356b38f01ba123d6,2021-07-29_21h14.05.787,Simcolourproject_2stim_asymm_v5,2020.2.10,MacIntel,60,61025ae37ef11b136ea224fe,,,,,,,,,2857,33.14453125,37.76953125,1,0,0,response1disk,,7,12.2890625,-6.7734375,1,0,0,rectangle,12.2890625,-6.7734375,1,0,0,12.2890625,-6.7734375,1,0,0,0,33,33,113,1,,,,,,,,
,,,,,,,,,,,,,FF,,,,,,,,0.6999,,,,,,,,,,,,,,,,,,,,,,60ff83ae7a31ac64e3f71491,61036e39356b38f01ba123d6,2021-07-29_21h14.05.787,Simcolourproject_2stim_asymm_v5,2020.2.10,MacIntel,60,61025ae37ef11b136ea224fe,,,,,,,,,2526,25.01171875,40.47265625,1,0,0,response1disk,,7,8.87109375,7.07421875,1,0,0,rectangle,8.87109375,7.07421875,1,0,0,8.87109375,7.07421875,1,0,0,0,34,34,20,1,,,,,,,,
,,,,,,,,,,,,,FF,,,,,,,,1.3005,,,,,,,,,,,,,,,,,,,,,,60ff83ae7a31ac64e3f71491,61036e39356b38f01ba123d6,2021-07-29_21h14.05.787,Simcolourproject_2stim_asymm_v5,2020.2.10,MacIntel,60,61025ae37ef11b136ea224fe,,,,,,,,,377,49.859375,12.87109375,1,0,0,response1disk,,6,2.12890625,0.828125,1,0,0,rectangle,2.12890625,0.828125,1,0,0,2.12890625,0.828125,1,0,0,0,35,35,15,1,,,,,,,,
,,,,,,,,,,,,,FF,,,,,,,,0.7167,,,,,,,,,,,,,,,,,,,,,,60ff83ae7a31ac64e3f71491,61036e39356b38f01ba123d6,2021-07-29_21h14.05.787,Simcolourproject_2stim_asymm_v5,2020.2.10,MacIntel,60,61025ae37ef11b136ea224fe,,,,,,,,,2817,43.58203125,-22.5078125,1,0,0,response3disk,,5,11.6171875,-1.41796875,1,0,0,rectangle,11.6171875,-1.41796875,1,0,0,11.6171875,-1.41796875,1,0,0,0,36,36,96,1,,,,,,,,
,,,,,,,,,,,,,FF,,,,,,,,0.8001,,,,,,,,,,,,,,,,,,,,,,60ff83ae7a31ac64e3f71491,61036e39356b38f01ba123d6,2021-07-29_21h14.05.787,Simcolourproject_2stim_asymm_v5,2020.2.10,MacIntel,60,61025ae37ef11b136ea224fe,,,,,,,,,4355,16.64453125,50.76953125,1,0,0,response1disk,,7,7.9296875,6.55078125,1,0,0,rectangle,7.9296875,6.55078125,1,0,0,7.9296875,6.55078125,1,0,0,0,37,37,22,1,,,,,,,,
,,,,,,,,,,,,,FF,,,,,,,,0.9334,,,,,,,,,,,,,,,,,,,,,,60ff83ae7a31ac64e3f71491,61036e39356b38f01ba123d6,2021-07-29_21h14.05.787,Simcolourproject_2stim_asymm_v5,2020.2.10,MacIntel,60,61025ae37ef11b136ea224fe,,,,,,,,,447,45.4921875,-21.66796875,1,0,0,response3disk,,5,8.0703125,-6.92578125,1,0,0,rectangle,8.0703125,-6.92578125,1,0,0,8.0703125,-6.92578125,1,0,0,0,38,38,5,1,,,,,,,,
,,,,,,,,,,,,,FF,,,,,,,,1.1994,,,,,,,,,,,,,,,,,,,,,,60ff83ae7a31ac64e3f71491,61036e39356b38f01ba123d6,2021-07-29_21h14.05.787,Simcolourproject_2stim_asymm_v5,2020.2.10,MacIntel,60,61025ae37ef11b136ea224fe,,,,,,,,,611,16.421875,-36.65625,1,0,0,response3disk,,4,12.25390625,-4.1171875,1,0,0,rectangle,12.25390625,-4.1171875,1,0,0,12.25390625,-4.1171875,1,0,0,0,39,39,91,1,,,,,,,,
,,,,,,,,,,,,,FF,,,,,,,,1.0672,,,,,,,,,,,,,,,,,,,,,,60ff83ae7a31ac64e3f71491,61036e39356b38f01ba123d6,2021-07-29_21h14.05.787,Simcolourproject_2stim_asymm_v5,2020.2.10,MacIntel,60,61025ae37ef11b136ea224fe,,,,,,,,,2275,47.46875,-14.875,1,0,0,response3disk,,5,5.03515625,0.25,1,0,0,rectangle,5.03515625,0.25,1,0,0,5.03515625,0.25,1,0,0,0,40,40,56,1,,,,,,,,
,,,,,,,,,,,,,FF,,,,,,,,2.5846,,,,,,,,,,,,,,,,,,,,,,60ff83ae7a31ac64e3f71491,61036e39356b38f01ba123d6,2021-07-29_21h14.05.787,Simcolourproject_2stim_asymm_v5,2020.2.10,MacIntel,60,61025ae37ef11b136ea224fe,,,,,,,,,3791,39.5390625,-21.359375,1,0,0,response3disk,,5,5.9921875,8.515625,1,0,0,rectangle,5.9921875,8.515625,1,0,0,5.9921875,8.515625,1,0,0,0,41,41,131,1,,,,,,,,
,,,,,,,,,,,,,FF,,,,,,,,1.1663,,,,,,,,,,,,,,,,,,,,,,60ff83ae7a31ac64e3f71491,61036e39356b38f01ba123d6,2021-07-29_21h14.05.787,Simcolourproject_2stim_asymm_v5,2020.2.10,MacIntel,60,61025ae37ef11b136ea224fe,,,,,,,,,2337,18.4453125,48.3359375,1,0,0,response1disk,,7,18.4453125,-6.59765625,1,0,0,rectangle,18.4453125,-6.59765625,1,0,0,18.4453125,-6.59765625,1,0,0,0,42,42,137,1,,,,,,,,
,,,,,,,,,,,,,FF,,,,,,,,0.8003,,,,,,,,,,,,,,,,,,,,,,60ff83ae7a31ac64e3f71491,61036e39356b38f01ba123d6,2021-07-29_21h14.05.787,Simcolourproject_2stim_asymm_v5,2020.2.10,MacIntel,60,61025ae37ef11b136ea224fe,,,,,,,,,4117,49.67578125,20.74609375,1,0,0,response1disk,,6,26.0625,6.48046875,1,0,0,rectangle,26.0625,6.48046875,1,0,0,26.0625,6.48046875,1,0,0,0,43,43,81,1,,,,,,,,
,,,,,,,,,,,,,FF,,,,,,,,0.7502,,,,,,,,,,,,,,,,,,,,,,60ff83ae7a31ac64e3f71491,61036e39356b38f01ba123d6,2021-07-29_21h14.05.787,Simcolourproject_2stim_asymm_v5,2020.2.10,MacIntel,60,61025ae37ef11b136ea224fe,,,,,,,,,709,34.2421875,-14.0390625,1,0,0,response3disk,,5,0.23828125,-1.2734375,1,0,0,rectangle,0.23828125,-1.2734375,1,0,0,0.23828125,-1.2734375,1,0,0,0,44,44,6,1,,,,,,,,
,,,,,,,,,,,,,FF,,,,,,,,1.1663,,,,,,,,,,,,,,,,,,,,,,60ff83ae7a31ac64e3f71491,61036e39356b38f01ba123d6,2021-07-29_21h14.05.787,Simcolourproject_2stim_asymm_v5,2020.2.10,MacIntel,60,61025ae37ef11b136ea224fe,,,,,,,,,3156,-54.828125,-22.7578125,1,0,0,response5disk,,2,-18.01953125,-2.1875,1,0,0,rectangle,37.3046875,27.73046875,1,0,0,-4.58984375,-0.36328125,1,0,0,0,45,45,50,1,,response1disk_3,TRUE,6,6,"[286,138,51,178,17,200,322,285,15,13,108,278,65,320,33,198,57,46,204,66]",2.1496,rectangle
,,,,,,,,,,,,,FF,,,,,,,,0.9329,,,,,,,,,,,,,,,,,,,,,,60ff83ae7a31ac64e3f71491,61036e39356b38f01ba123d6,2021-07-29_21h14.05.787,Simcolourproject_2stim_asymm_v5,2020.2.10,MacIntel,60,61025ae37ef11b136ea224fe,,,,,,,,,1235,44.50390625,-24.73828125,1,0,0,response3disk,,5,10.640625,-9.859375,1,0,0,rectangle,10.640625,-9.859375,1,0,0,10.640625,-9.859375,1,0,0,0,46,46,58,1,,,,,,,,
,,,,,,,,,,,,,FF,,,,,,,,0.867,,,,,,,,,,,,,,,,,,,,,,60ff83ae7a31ac64e3f71491,61036e39356b38f01ba123d6,2021-07-29_21h14.05.787,Simcolourproject_2stim_asymm_v5,2020.2.10,MacIntel,60,61025ae37ef11b136ea224fe,,,,,,,,,4192,38.12109375,28.59765625,1,0,0,response1disk,,6,3.12109375,10.55078125,1,0,0,rectangle,3.12109375,10.55078125,1,0,0,3.12109375,10.55078125,1,0,0,0,47,47,69,1,,,,,,,,
,,,,,,,,,,,,,FF,,,,,,,,2.6998,,,,,,,,,,,,,,,,,,,,,,60ff83ae7a31ac64e3f71491,61036e39356b38f01ba123d6,2021-07-29_21h14.05.787,Simcolourproject_2stim_asymm_v5,2020.2.10,MacIntel,60,61025ae37ef11b136ea224fe,,,,,,,,,558,34.90234375,29.015625,1,0,0,response1disk,,6,11.73828125,8.05078125,1,0,0,rectangle,11.73828125,8.05078125,1,0,0,11.73828125,8.05078125,1,0,0,0,48,48,156,1,,,,,,,,
,,,,,,,,,,,,,FF,,,,,,,,1.6168,,,,,,,,,,,,,,,,,,,,,,60ff83ae7a31ac64e3f71491,61036e39356b38f01ba123d6,2021-07-29_21h14.05.787,Simcolourproject_2stim_asymm_v5,2020.2.10,MacIntel,60,61025ae37ef11b136ea224fe,,,,,,,,,2328,47.12109375,-29.54296875,1,0,0,response3disk,,5,13.0625,-6.8515625,1,0,0,rectangle,13.0625,-6.8515625,1,0,0,13.0625,-6.8515625,1,0,0,0,49,49,158,1,,,,,,,,
,,,,,,,,,,,,,FF,,,,,,,,1.3,,,,,,,,,,,,,,,,,,,,,,60ff83ae7a31ac64e3f71491,61036e39356b38f01ba123d6,2021-07-29_21h14.05.787,Simcolourproject_2stim_asymm_v5,2020.2.10,MacIntel,60,61025ae37ef11b136ea224fe,,,,,,,,,3913,-22.03515625,-39.484375,1,0,0,response5disk,,3,-7.94921875,-1.31640625,1,0,0,rectangle,-32.54296875,60.15234375,1,0,0,-14.26171875,5.22265625,1,0,0,0,50,50,130,1,,response7disk_3,TRUE,0,0,"[286,138,51,178,17,200,322,285,15,13,108,278,65,320,33,198,57,46,204,66]",1.7171,rectangle
,,,,,,,,,,,,,FF,,,,,,,,1.8497,,,,,,,,,,,,,,,,,,,,,,60ff83ae7a31ac64e3f71491,61036e39356b38f01ba123d6,2021-07-29_21h14.05.787,Simcolourproject_2stim_asymm_v5,2020.2.10,MacIntel,60,61025ae37ef11b136ea224fe,,,,,,,,,4308,54.6953125,31.96484375,1,0,0,response1disk,,6,13,2.8359375,1,0,0,rectangle,13,2.8359375,1,0,0,13,2.8359375,1,0,0,0,51,51,48,1,,,,,,,,
,,,,,,,,,,,,,FF,,,,,,,,0.6498,,,,,,,,,,,,,,,,,,,,,,60ff83ae7a31ac64e3f71491,61036e39356b38f01ba123d6,2021-07-29_21h14.05.787,Simcolourproject_2stim_asymm_v5,2020.2.10,MacIntel,60,61025ae37ef11b136ea224fe,,,,,,,,,1984,39.953125,35.18359375,1,0,0,response1disk,,6,4.5234375,12.8359375,1,0,0,rectangle,4.5234375,12.8359375,1,0,0,4.5234375,12.8359375,1,0,0,0,52,52,125,1,,,,,,,,
,,,,,,,,,,,,,FF,,,,,,,,0.5174,,,,,,,,,,,,,,,,,,,,,,60ff83ae7a31ac64e3f71491,61036e39356b38f01ba123d6,2021-07-29_21h14.05.787,Simcolourproject_2stim_asymm_v5,2020.2.10,MacIntel,60,61025ae37ef11b136ea224fe,,,,,,,,,2964,43.35546875,39.23046875,1,0,0,response1disk,,6,3.8984375,8.1953125,1,0,0,rectangle,3.8984375,8.1953125,1,0,0,3.8984375,8.1953125,1,0,0,0,53,53,77,1,,,,,,,,
,,,,,,,,,,,,,FF,,,,,,,,0.9992,,,,,,,,,,,,,,,,,,,,,,60ff83ae7a31ac64e3f71491,61036e39356b38f01ba123d6,2021-07-29_21h14.05.787,Simcolourproject_2stim_asymm_v5,2020.2.10,MacIntel,60,61025ae37ef11b136ea224fe,,,,,,,,,1978,53.23828125,26.734375,1,0,0,response1disk,,6,2.46484375,-8.046875,1,0,0,rectangle,2.46484375,-8.046875,1,0,0,2.46484375,-8.046875,1,0,0,0,54,54,159,1,,,,,,,,
,,,,,,,,,,,,,FF,,,,,,,,1.0172,,,,,,,,,,,,,,,,,,,,,,60ff83ae7a31ac64e3f71491,61036e39356b38f01ba123d6,2021-07-29_21h14.05.787,Simcolourproject_2stim_asymm_v5,2020.2.10,MacIntel,60,61025ae37ef11b136ea224fe,,,,,,,,,1238,26.0546875,41.69921875,1,0,0,response1disk,,7,7.8046875,3.2734375,1,0,0,rectangle,7.8046875,3.2734375,1,0,0,7.8046875,3.2734375,1,0,0,0,55,55,93,1,,,,,,,,
,,,,,,,,,,,,,FF,,,,,,,,1.5827,,,,,,,,,,,,,,,,,,,,,,60ff83ae7a31ac64e3f71491,61036e39356b38f01ba123d6,2021-07-29_21h14.05.787,Simcolourproject_2stim_asymm_v5,2020.2.10,MacIntel,60,61025ae37ef11b136ea224fe,,,,,,,,,3910,20.05078125,-39.375,1,0,0,response3disk,,4,11.30859375,8.171875,1,0,0,rectangle,45.234375,-23,1,0,0,1.76953125,-4.09765625,1,0,0,0,56,56,26,1,,response3disk_3,TRUE,5,5,"[286,138,51,178,17,200,322,285,15,13,108,278,65,320,33,198,57,46,204,66]",1.8164,rectangle
,,,,,,,,,,,,,FF,,,,,,,,0.8828,,,,,,,,,,,,,,,,,,,,,,60ff83ae7a31ac64e3f71491,61036e39356b38f01ba123d6,2021-07-29_21h14.05.787,Simcolourproject_2stim_asymm_v5,2020.2.10,MacIntel,60,61025ae37ef11b136ea224fe,,,,,,,,,3448,20.84765625,38.5390625,1,0,0,response1disk,,7,19.03125,0.55859375,1,0,0,rectangle,19.03125,0.55859375,1,0,0,19.03125,0.55859375,1,0,0,0,57,57,55,1,,,,,,,,
,,,,,,,,,,,,,FF,,,,,,,,0.5176,,,,,,,,,,,,,,,,,,,,,,60ff83ae7a31ac64e3f71491,61036e39356b38f01ba123d6,2021-07-29_21h14.05.787,Simcolourproject_2stim_asymm_v5,2020.2.10,MacIntel,60,61025ae37ef11b136ea224fe,,,,,,,,,2117,24.734375,38.8359375,1,0,0,response1disk,,7,14.7578125,0.95703125,1,0,0,rectangle,14.7578125,0.95703125,1,0,0,14.7578125,0.95703125,1,0,0,0,58,58,0,1,,,,,,,,
,,,,,,,,,,,,,FF,,,,,,,,1.1167,,,,,,,,,,,,,,,,,,,,,,60ff83ae7a31ac64e3f71491,61036e39356b38f01ba123d6,2021-07-29_21h14.05.787,Simcolourproject_2stim_asymm_v5,2020.2.10,MacIntel,60,61025ae37ef11b136ea224fe,,,,,,,,,2062,54.69921875,-25.15625,1,0,0,response3disk,,5,10.20703125,-8.55859375,1,0,0,rectangle,10.20703125,-8.55859375,1,0,0,10.20703125,-8.55859375,1,0,0,0,59,59,124,1,,,,,,,,
,,,,,,,,,,,,,FF,,,,,,,,0.967,,,,,,,,,,,,,,,,,,,,,,60ff83ae7a31ac64e3f71491,61036e39356b38f01ba123d6,2021-07-29_21h14.05.787,Simcolourproject_2stim_asymm_v5,2020.2.10,MacIntel,60,61025ae37ef11b136ea224fe,,,,,,,,,1690,42.2109375,-30.1484375,1,0,0,response3disk,,5,13.37109375,-9.34765625,1,0,0,rectangle,13.37109375,-9.34765625,1,0,0,13.37109375,-9.34765625,1,0,0,0,60,60,132,1,,,,,,,,
,,,,,,,,,,,,,FF,,,,,,,,0.6163,,,,,,,,,,,,,,,,,,,,,,60ff83ae7a31ac64e3f71491,61036e39356b38f01ba123d6,2021-07-29_21h14.05.787,Simcolourproject_2stim_asymm_v5,2020.2.10,MacIntel,60,61025ae37ef11b136ea224fe,,,,,,,,,982,43.671875,-16.09765625,1,0,0,response3disk,,5,18.9765625,1.75390625,1,0,0,rectangle,18.9765625,1.75390625,1,0,0,18.9765625,1.75390625,1,0,0,0,61,61,40,1,,,,,,,,
,,,,,,,,,,,,,FF,,,,,,,,1.2998,,,,,,,,,,,,,,,,,,,,,,60ff83ae7a31ac64e3f71491,61036e39356b38f01ba123d6,2021-07-29_21h14.05.787,Simcolourproject_2stim_asymm_v5,2020.2.10,MacIntel,60,61025ae37ef11b136ea224fe,,,,,,,,,3939,37.375,17.94140625,1,0,0,response1disk,,6,9.234375,13.28515625,1,0,0,rectangle,9.234375,13.28515625,1,0,0,9.234375,13.28515625,1,0,0,0,62,62,119,1,,,,,,,,
,,,,,,,,,,,,,FF,,,,,,,,1.0496,,,,,,,,,,,,,,,,,,,,,,60ff83ae7a31ac64e3f71491,61036e39356b38f01ba123d6,2021-07-29_21h14.05.787,Simcolourproject_2stim_asymm_v5,2020.2.10,MacIntel,60,61025ae37ef11b136ea224fe,,,,,,,,,1994,48.71875,-12.4453125,1,0,0,response3disk,,5,21.46875,-9.9453125,1,0,0,rectangle,21.46875,-9.9453125,1,0,0,21.46875,-9.9453125,1,0,0,0,63,63,25,1,,,,,,,,
,,,,,,,,,,,,,FF,,,,,,,,1.3169,,,,,,,,,,,,,,,,,,,,,,60ff83ae7a31ac64e3f71491,61036e39356b38f01ba123d6,2021-07-29_21h14.05.787,Simcolourproject_2stim_asymm_v5,2020.2.10,MacIntel,60,61025ae37ef11b136ea224fe,,,,,,,,,1986,54.16796875,19.94140625,1,0,0,response1disk,,6,-9.52734375,13.06640625,1,0,0,rectangle,-29.109375,51.76171875,1,0,0,-2.5078125,-7.31640625,1,0,0,0,64,64,67,1,,response7disk_3,TRUE,0,0,"[286,138,51,178,17,200,322,285,15,13,108,278,65,320,33,198,57,46,204,66]",1.4832,rectangle
,,,,,,,,,,,,,FF,,,,,,,,6.8832,,,,,,,,,,,,,,,,,,,,,,60ff83ae7a31ac64e3f71491,61036e39356b38f01ba123d6,2021-07-29_21h14.05.787,Simcolourproject_2stim_asymm_v5,2020.2.10,MacIntel,60,61025ae37ef11b136ea224fe,,,,,,,,,449,26.4453125,19.90625,1,0,0,response1disk,,6,7.7421875,6.14453125,1,0,0,rectangle,-67.359375,17.16796875,1,0,0,-1.65625,-2.87890625,1,0,0,0,65,65,16,1,,response7disk_3,TRUE,1,1,"[286,138,51,178,17,200,322,285,15,13,108,278,65,320,33,198,57,46,204,66]",1.4988,rectangle
,,,,,,,,,,,,,FF,,,,,,,,1.1166,,,,,,,,,,,,,,,,,,,,,,60ff83ae7a31ac64e3f71491,61036e39356b38f01ba123d6,2021-07-29_21h14.05.787,Simcolourproject_2stim_asymm_v5,2020.2.10,MacIntel,60,61025ae37ef11b136ea224fe,,,,,,,,,4103,39.35546875,18.765625,1,0,0,response1disk,,6,9.90234375,-3.20703125,1,0,0,rectangle,9.90234375,-3.20703125,1,0,0,9.90234375,-3.20703125,1,0,0,0,66,66,143,1,,,,,,,,
,,,,,,,,,,,,,FF,,,,,,,,1.7665,,,,,,,,,,,,,,,,,,,,,,60ff83ae7a31ac64e3f71491,61036e39356b38f01ba123d6,2021-07-29_21h14.05.787,Simcolourproject_2stim_asymm_v5,2020.2.10,MacIntel,60,61025ae37ef11b136ea224fe,,,,,,,,,2306,55.90234375,-11.42578125,1,0,0,response3disk,,5,12.921875,2.23046875,1,0,0,rectangle,12.921875,2.23046875,1,0,0,12.921875,2.23046875,1,0,0,0,67,67,89,1,,,,,,,,
,,,,,,,,,,,,,FF,,,,,,,,1.2167,,,,,,,,,,,,,,,,,,,,,,60ff83ae7a31ac64e3f71491,61036e39356b38f01ba123d6,2021-07-29_21h14.05.787,Simcolourproject_2stim_asymm_v5,2020.2.10,MacIntel,60,61025ae37ef11b136ea224fe,,,,,,,,,3845,42.79296875,-21.00390625,1,0,0,response3disk,,5,3.3515625,-0.515625,1,0,0,rectangle,3.3515625,-0.515625,1,0,0,3.3515625,-0.515625,1,0,0,0,68,68,123,1,,,,,,,,
,,,,,,,,,,,,,FF,,,,,,,,9.9829,,,,,,,,,,,,,,,,,,,,,,60ff83ae7a31ac64e3f71491,61036e39356b38f01ba123d6,2021-07-29_21h14.05.787,Simcolourproject_2stim_asymm_v5,2020.2.10,MacIntel,60,61025ae37ef11b136ea224fe,,,,,,,,,327,35,-19.20703125,1,0,0,response3disk,,5,2.32421875,-0.3671875,1,0,0,rectangle,2.32421875,-0.3671875,1,0,0,2.32421875,-0.3671875,1,0,0,0,69,69,54,1,,,,,,,,
,,,,,,,,,,,,,FF,,,,,,,,1.0998,,,,,,,,,,,,,,,,,,,,,,60ff83ae7a31ac64e3f71491,61036e39356b38f01ba123d6,2021-07-29_21h14.05.787,Simcolourproject_2stim_asymm_v5,2020.2.10,MacIntel,60,61025ae37ef11b136ea224fe,,,,,,,,,2312,13.3984375,-44.86328125,1,0,0,response3disk,,4,0.8046875,-8.61328125,1,0,0,rectangle,0.8046875,-8.61328125,1,0,0,0.8046875,-8.61328125,1,0,0,0,70,70,86,1,,,,,,,,
,,,,,,,,,,,,,FF,,,,,,,,1.1843,,,,,,,,,,,,,,,,,,,,,,60ff83ae7a31ac64e3f71491,61036e39356b38f01ba123d6,2021-07-29_21h14.05.787,Simcolourproject_2stim_asymm_v5,2020.2.10,MacIntel,60,61025ae37ef11b136ea224fe,,,,,,,,,1820,14.76953125,-36.765625,1,0,0,response3disk,,4,-4.15625,7.8046875,1,0,0,rectangle,-4.15625,7.8046875,1,0,0,-4.15625,7.8046875,1,0,0,0,71,71,44,1,,,,,,,,
,,,,,,,,,,,,,FF,,,,,,,,3.3491,,,,,,,,,,,,,,,,,,,,,,60ff83ae7a31ac64e3f71491,61036e39356b38f01ba123d6,2021-07-29_21h14.05.787,Simcolourproject_2stim_asymm_v5,2020.2.10,MacIntel,60,61025ae37ef11b136ea224fe,,,,,,,,,2349,46.2734375,20.1796875,1,0,0,response1disk,,6,-22.05859375,6.4453125,1,0,0,rectangle,-22.05859375,6.4453125,1,0,0,-22.05859375,6.4453125,1,0,0,0,72,72,7,1,,,,,,,,
,,,,,,,,,,,,,FF,,,,,,,,0.8167,,,,,,,,,,,,,,,,,,,,,,60ff83ae7a31ac64e3f71491,61036e39356b38f01ba123d6,2021-07-29_21h14.05.787,Simcolourproject_2stim_asymm_v5,2020.2.10,MacIntel,60,61025ae37ef11b136ea224fe,,,,,,,,,123,46.58203125,-23.84765625,1,0,0,response3disk,,5,6.08984375,-11.3359375,1,0,0,rectangle,6.08984375,-11.3359375,1,0,0,6.08984375,-11.3359375,1,0,0,0,73,73,14,1,,,,,,,,
,,,,,,,,,,,,,FF,,,,,,,,0.7335,,,,,,,,,,,,,,,,,,,,,,60ff83ae7a31ac64e3f71491,61036e39356b38f01ba123d6,2021-07-29_21h14.05.787,Simcolourproject_2stim_asymm_v5,2020.2.10,MacIntel,60,61025ae37ef11b136ea224fe,,,,,,,,,439,50.89453125,-21.859375,1,0,0,response3disk,,5,1.28125,-1.2578125,1,0,0,rectangle,1.28125,-1.2578125,1,0,0,1.28125,-1.2578125,1,0,0,0,74,74,8,1,,,,,,,,
,,,,,,,,,,,,,FF,,,,,,,,0.7997,,,,,,,,,,,,,,,,,,,,,,60ff83ae7a31ac64e3f71491,61036e39356b38f01ba123d6,2021-07-29_21h14.05.787,Simcolourproject_2stim_asymm_v5,2020.2.10,MacIntel,60,61025ae37ef11b136ea224fe,,,,,,,,,1925,18.19921875,-33.578125,1,0,0,response3disk,,4,9.31640625,1.42578125,1,0,0,rectangle,9.31640625,1.42578125,1,0,0,9.31640625,1.42578125,1,0,0,0,75,75,65,1,,,,,,,,
,,,,,,,,,,,,,FF,,,,,,,,0.9512,,,,,,,,,,,,,,,,,,,,,,60ff83ae7a31ac64e3f71491,61036e39356b38f01ba123d6,2021-07-29_21h14.05.787,Simcolourproject_2stim_asymm_v5,2020.2.10,MacIntel,60,61025ae37ef11b136ea224fe,,,,,,,,,1754,21.98046875,-38.1484375,1,0,0,response3disk,,4,12.65234375,-1.24609375,1,0,0,rectangle,12.65234375,-1.24609375,1,0,0,12.65234375,-1.24609375,1,0,0,0,76,76,146,1,,,,,,,,
,,,,,,,,,,,,,FF,,,,,,,,1.8672,,,,,,,,,,,,,,,,,,,,,,60ff83ae7a31ac64e3f71491,61036e39356b38f01ba123d6,2021-07-29_21h14.05.787,Simcolourproject_2stim_asymm_v5,2020.2.10,MacIntel,60,61025ae37ef11b136ea224fe,,,,,,,,,1974,37.9375,-13.890625,1,0,0,response3disk,,5,2.859375,14.421875,1,0,0,rectangle,2.859375,14.421875,1,0,0,2.859375,14.421875,1,0,0,0,77,77,3,1,,,,,,,,
,,,,,,,,,,,,,FF,,,,,,,,1.3501,,,,,,,,,,,,,,,,,,,,,,60ff83ae7a31ac64e3f71491,61036e39356b38f01ba123d6,2021-07-29_21h14.05.787,Simcolourproject_2stim_asymm_v5,2020.2.10,MacIntel,60,61025ae37ef11b136ea224fe,,,,,,,,,4297,-24.55859375,-55.15234375,1,0,0,response5disk,,3,-11.6875,-2.171875,1,0,0,rectangle,-11.6875,-2.171875,1,0,0,-11.6875,-2.171875,1,0,0,0,78,78,133,1,,,,,,,,
,,,,,,,,,,,,,FF,,,,,,,,1.066,,,,,,,,,,,,,,,,,,,,,,60ff83ae7a31ac64e3f71491,61036e39356b38f01ba123d6,2021-07-29_21h14.05.787,Simcolourproject_2stim_asymm_v5,2020.2.10,MacIntel,60,61025ae37ef11b136ea224fe,,,,,,,,,2890,-62.4375,-19.43359375,1,0,0,response5disk,,2,-11.70703125,-2.6875,1,0,0,rectangle,-11.70703125,-2.6875,1,0,0,-11.70703125,-2.6875,1,0,0,0,79,79,46,1,,,,,,,,
,,,,,,,,,,,,,FF,,,,,,,,0.7004,,,,,,,,,,,,,,,,,,,,,,60ff83ae7a31ac64e3f71491,61036e39356b38f01ba123d6,2021-07-29_21h14.05.787,Simcolourproject_2stim_asymm_v5,2020.2.10,MacIntel,60,61025ae37ef11b136ea224fe,,,,,,,,,1252,-26.0390625,-41.22265625,1,0,0,response5disk,,3,-16.19140625,-2.95703125,1,0,0,rectangle,-16.19140625,-2.95703125,1,0,0,-16.19140625,-2.95703125,1,0,0,0,80,80,76,1,,,,,,,,
,,,,,,,,,,,,,FF,,,,,,,,0.5836,,,,,,,,,,,,,,,,,,,,,,60ff83ae7a31ac64e3f71491,61036e39356b38f01ba123d6,2021-07-29_21h14.05.787,Simcolourproject_2stim_asymm_v5,2020.2.10,MacIntel,60,61025ae37ef11b136ea224fe,,,,,,,,,3220,15.2265625,-41.2109375,1,0,0,response3disk,,4,10.6875,2.24609375,1,0,0,rectangle,10.6875,2.24609375,1,0,0,10.6875,2.24609375,1,0,0,0,81,81,107,1,,,,,,,,
,,,,,,,,,,,,,FF,,,,,,,,1.2,,,,,,,,,,,,,,,,,,,,,,60ff83ae7a31ac64e3f71491,61036e39356b38f01ba123d6,2021-07-29_21h14.05.787,Simcolourproject_2stim_asymm_v5,2020.2.10,MacIntel,60,61025ae37ef11b136ea224fe,,,,,,,,,3515,15.11328125,-37.8515625,1,0,0,response3disk,,4,-1.66015625,-6.6328125,1,0,0,rectangle,-1.66015625,-6.6328125,1,0,0,-1.66015625,-6.6328125,1,0,0,0,82,82,62,1,,,,,,,,
,,,,,,,,,,,,,FF,,,,,,,,0.75,,,,,,,,,,,,,,,,,,,,,,60ff83ae7a31ac64e3f71491,61036e39356b38f01ba123d6,2021-07-29_21h14.05.787,Simcolourproject_2stim_asymm_v5,2020.2.10,MacIntel,60,61025ae37ef11b136ea224fe,,,,,,,,,1028,45.26953125,21.34765625,1,0,0,response1disk,,6,-8.265625,9.515625,1,0,0,rectangle,-8.265625,9.515625,1,0,0,-8.265625,9.515625,1,0,0,0,83,83,147,1,,,,,,,,
,,,,,,,,,,,,,FF,,,,,,,,0.4333,,,,,,,,,,,,,,,,,,,,,,60ff83ae7a31ac64e3f71491,61036e39356b38f01ba123d6,2021-07-29_21h14.05.787,Simcolourproject_2stim_asymm_v5,2020.2.10,MacIntel,60,61025ae37ef11b136ea224fe,,,,,,,,,3458,30.49609375,24.17578125,1,0,0,response1disk,,6,9.42578125,-3.33984375,1,0,0,rectangle,9.42578125,-3.33984375,1,0,0,9.42578125,-3.33984375,1,0,0,0,84,84,129,1,,,,,,,,
,,,,,,,,,,,,,FF,,,,,,,,1.3999,,,,,,,,,,,,,,,,,,,,,,60ff83ae7a31ac64e3f71491,61036e39356b38f01ba123d6,2021-07-29_21h14.05.787,Simcolourproject_2stim_asymm_v5,2020.2.10,MacIntel,60,61025ae37ef11b136ea224fe,,,,,,,,,4370,-30.796875,49.515625,1,0,0,response7disk,,0,-24.26171875,0.98046875,1,0,0,rectangle,-24.26171875,0.98046875,1,0,0,-24.26171875,0.98046875,1,0,0,0,85,85,114,1,,,,,,,,
,,,,,,,,,,,,,FF,,,,,,,,0.6662,,,,,,,,,,,,,,,,,,,,,,60ff83ae7a31ac64e3f71491,61036e39356b38f01ba123d6,2021-07-29_21h14.05.787,Simcolourproject_2stim_asymm_v5,2020.2.10,MacIntel,60,61025ae37ef11b136ea224fe,,,,,,,,,197,-24.64453125,-32.91015625,1,0,0,response5disk,,3,2.01171875,2.46875,1,0,0,rectangle,2.01171875,2.46875,1,0,0,2.01171875,2.46875,1,0,0,0,86,86,127,1,,,,,,,,
,,,,,,,,,,,,,FF,,,,,,,,2.9337,,,,,,,,,,,,,,,,,,,,,,60ff83ae7a31ac64e3f71491,61036e39356b38f01ba123d6,2021-07-29_21h14.05.787,Simcolourproject_2stim_asymm_v5,2020.2.10,MacIntel,60,61025ae37ef11b136ea224fe,,,,,,,,,1966,-38.3046875,-18.0859375,1,0,0,response5disk,,2,-15.2421875,-4.27734375,1,0,0,rectangle,-15.2421875,-4.27734375,1,0,0,-15.2421875,-4.27734375,1,0,0,0,87,87,128,1,,,,,,,,
,,,,,,,,,,,,,FF,,,,,,,,1.1502,,,,,,,,,,,,,,,,,,,,,,60ff83ae7a31ac64e3f71491,61036e39356b38f01ba123d6,2021-07-29_21h14.05.787,Simcolourproject_2stim_asymm_v5,2020.2.10,MacIntel,60,61025ae37ef11b136ea224fe,,,,,,,,,3602,46.65234375,11.5859375,1,0,0,response1disk,,6,3.9296875,-2.00390625,1,0,0,rectangle,3.9296875,-2.00390625,1,0,0,3.9296875,-2.00390625,1,0,0,0,88,88,23,1,,,,,,,,
,,,,,,,,,,,,,FF,,,,,,,,2.0172,,,,,,,,,,,,,,,,,,,,,,60ff83ae7a31ac64e3f71491,61036e39356b38f01ba123d6,2021-07-29_21h14.05.787,Simcolourproject_2stim_asymm_v5,2020.2.10,MacIntel,60,61025ae37ef11b136ea224fe,,,,,,,,,951,50.8359375,-27.3671875,1,0,0,response3disk,,5,7.09765625,-3.7109375,1,0,0,rectangle,7.09765625,-3.7109375,1,0,0,7.09765625,-3.7109375,1,0,0,0,89,89,153,1,,,,,,,,
,,,,,,,,,,,,,FF,,,,,,,,1.0169,,,,,,,,,,,,,,,,,,,,,,60ff83ae7a31ac64e3f71491,61036e39356b38f01ba123d6,2021-07-29_21h14.05.787,Simcolourproject_2stim_asymm_v5,2020.2.10,MacIntel,60,61025ae37ef11b136ea224fe,,,,,,,,,500,45.85546875,-17.3125,1,0,0,response3disk,,5,-18.35546875,-4.17578125,1,0,0,rectangle,-18.35546875,-4.17578125,1,0,0,-18.35546875,-4.17578125,1,0,0,0,90,90,152,1,,,,,,,,
,,,,,,,,,,,,,FF,,,,,,,,1.0332,,,,,,,,,,,,,,,,,,,,,,60ff83ae7a31ac64e3f71491,61036e39356b38f01ba123d6,2021-07-29_21h14.05.787,Simcolourproject_2stim_asymm_v5,2020.2.10,MacIntel,60,61025ae37ef11b136ea224fe,,,,,,,,,868,18.63671875,-45.45703125,1,0,0,response3disk,,4,4.10546875,-1.921875,1,0,0,rectangle,4.10546875,-1.921875,1,0,0,4.10546875,-1.921875,1,0,0,0,91,91,30,1,,,,,,,,
,,,,,,,,,,,,,FF,,,,,,,,1.1169,,,,,,,,,,,,,,,,,,,,,,60ff83ae7a31ac64e3f71491,61036e39356b38f01ba123d6,2021-07-29_21h14.05.787,Simcolourproject_2stim_asymm_v5,2020.2.10,MacIntel,60,61025ae37ef11b136ea224fe,,,,,,,,,4261,18.30859375,53.69140625,1,0,0,response1disk,,7,1.5078125,1.19921875,1,0,0,rectangle,1.5078125,1.19921875,1,0,0,1.5078125,1.19921875,1,0,0,0,92,92,34,1,,,,,,,,
,,,,,,,,,,,,,FF,,,,,,,,0.4996,,,,,,,,,,,,,,,,,,,,,,60ff83ae7a31ac64e3f71491,61036e39356b38f01ba123d6,2021-07-29_21h14.05.787,Simcolourproject_2stim_asymm_v5,2020.2.10,MacIntel,60,61025ae37ef11b136ea224fe,,,,,,,,,3680,26.71875,46.2890625,1,0,0,response1disk,,7,6.8359375,1.68359375,1,0,0,rectangle,6.8359375,1.68359375,1,0,0,6.8359375,1.68359375,1,0,0,0,93,93,122,1,,,,,,,,
,,,,,,,,,,,,,FF,,,,,,,,0.7829,,,,,,,,,,,,,,,,,,,,,,60ff83ae7a31ac64e3f71491,61036e39356b38f01ba123d6,2021-07-29_21h14.05.787,Simcolourproject_2stim_asymm_v5,2020.2.10,MacIntel,60,61025ae37ef11b136ea224fe,,,,,,,,,735,28.3203125,46.890625,1,0,0,response1disk,,7,12.16796875,8.546875,1,0,0,rectangle,12.16796875,8.546875,1,0,0,12.16796875,8.546875,1,0,0,0,94,94,112,1,,,,,,,,
,,,,,,,,,,,,,FF,,,,,,,,0.9837,,,,,,,,,,,,,,,,,,,,,,60ff83ae7a31ac64e3f71491,61036e39356b38f01ba123d6,2021-07-29_21h14.05.787,Simcolourproject_2stim_asymm_v5,2020.2.10,MacIntel,60,61025ae37ef11b136ea224fe,,,,,,,,,4279,51.546875,-20.984375,1,0,0,response3disk,,5,13.23046875,-10.96484375,1,0,0,rectangle,13.23046875,-10.96484375,1,0,0,13.23046875,-10.96484375,1,0,0,0,95,95,120,1,,,,,,,,
,,,,,,,,,,,,,FF,,,,,,,,0.8994,,,,,,,,,,,,,,,,,,,,,,60ff83ae7a31ac64e3f71491,61036e39356b38f01ba123d6,2021-07-29_21h14.05.787,Simcolourproject_2stim_asymm_v5,2020.2.10,MacIntel,60,61025ae37ef11b136ea224fe,,,,,,,,,17,41.0703125,-35.28125,1,0,0,response3disk,,5,10.9140625,-11.83203125,1,0,0,rectangle,10.9140625,-11.83203125,1,0,0,10.9140625,-11.83203125,1,0,0,0,96,96,117,1,,,,,,,,
,,,,,,,,,,,,,FF,,,,,,,,2.149,,,,,,,,,,,,,,,,,,,,,,60ff83ae7a31ac64e3f71491,61036e39356b38f01ba123d6,2021-07-29_21h14.05.787,Simcolourproject_2stim_asymm_v5,2020.2.10,MacIntel,60,61025ae37ef11b136ea224fe,,,,,,,,,1304,52.6796875,-22.671875,1,0,0,response3disk,,5,16.2578125,-12.08203125,1,0,0,rectangle,16.2578125,-12.08203125,1,0,0,16.2578125,-12.08203125,1,0,0,0,97,97,64,1,,,,,,,,
,,,,,,,,,,,,,FF,,,,,,,,0.6826,,,,,,,,,,,,,,,,,,,,,,60ff83ae7a31ac64e3f71491,61036e39356b38f01ba123d6,2021-07-29_21h14.05.787,Simcolourproject_2stim_asymm_v5,2020.2.10,MacIntel,60,61025ae37ef11b136ea224fe,,,,,,,,,4175,39.2109375,34.0234375,1,0,0,response1disk,,6,-11.99609375,10.72265625,1,0,0,rectangle,-11.99609375,10.72265625,1,0,0,-11.99609375,10.72265625,1,0,0,0,98,98,27,1,,,,,,,,
,,,,,,,,,,,,,FF,,,,,,,,1.0341,,,,,,,,,,,,,,,,,,,,,,60ff83ae7a31ac64e3f71491,61036e39356b38f01ba123d6,2021-07-29_21h14.05.787,Simcolourproject_2stim_asymm_v5,2020.2.10,MacIntel,60,61025ae37ef11b136ea224fe,,,,,,,,,2042,19.3203125,44.19921875,1,0,0,response1disk,,7,10.18359375,13.578125,1,0,0,rectangle,10.18359375,13.578125,1,0,0,10.18359375,13.578125,1,0,0,0,99,99,61,1,,,,,,,,
,,,,,,,,,,,,,FF,,,,,,,,12.8493,,,,,,,,,,,,,,,,,,,,,,60ff83ae7a31ac64e3f71491,61036e39356b38f01ba123d6,2021-07-29_21h14.05.787,Simcolourproject_2stim_asymm_v5,2020.2.10,MacIntel,60,61025ae37ef11b136ea224fe,,,,,,,,,1685,44.29296875,21.234375,1,0,0,response1disk,,6,8.9375,-0.0390625,1,0,0,rectangle,8.9375,-0.0390625,1,0,0,8.9375,-0.0390625,1,0,0,0,100,100,45,1,,,,,,,,
,,,,,,,,,,,,,FF,,,,,,,,0.9498,,,,,,,,,,,,,,,,,,,,,,60ff83ae7a31ac64e3f71491,61036e39356b38f01ba123d6,2021-07-29_21h14.05.787,Simcolourproject_2stim_asymm_v5,2020.2.10,MacIntel,60,61025ae37ef11b136ea224fe,,,,,,,,,73,33.50390625,-18.40234375,1,0,0,response3disk,,5,15.3359375,-1.28515625,1,0,0,rectangle,15.3359375,-1.28515625,1,0,0,15.3359375,-1.28515625,1,0,0,0,101,101,53,1,,,,,,,,
,,,,,,,,,,,,,FF,,,,,,,,7.9833,,,,,,,,,,,,,,,,,,,,,,60ff83ae7a31ac64e3f71491,61036e39356b38f01ba123d6,2021-07-29_21h14.05.787,Simcolourproject_2stim_asymm_v5,2020.2.10,MacIntel,60,61025ae37ef11b136ea224fe,,,,,,,,,3207,22.33984375,-35.828125,1,0,0,response3disk,,4,4.10546875,0.359375,1,0,0,rectangle,4.10546875,0.359375,1,0,0,4.10546875,0.359375,1,0,0,0,102,102,82,1,,,,,,,,
,,,,,,,,,,,,,FF,,,,,,,,0.6846,,,,,,,,,,,,,,,,,,,,,,60ff83ae7a31ac64e3f71491,61036e39356b38f01ba123d6,2021-07-29_21h14.05.787,Simcolourproject_2stim_asymm_v5,2020.2.10,MacIntel,60,61025ae37ef11b136ea224fe,,,,,,,,,36,39.0546875,20.19140625,1,0,0,response1disk,,6,5.62109375,4.29296875,1,0,0,rectangle,5.62109375,4.29296875,1,0,0,5.62109375,4.29296875,1,0,0,0,103,103,111,1,,,,,,,,
,,,,,,,,,,,,,FF,,,,,,,,0.6679,,,,,,,,,,,,,,,,,,,,,,60ff83ae7a31ac64e3f71491,61036e39356b38f01ba123d6,2021-07-29_21h14.05.787,Simcolourproject_2stim_asymm_v5,2020.2.10,MacIntel,60,61025ae37ef11b136ea224fe,,,,,,,,,3918,44.625,28.82421875,1,0,0,response1disk,,6,11.421875,14.0390625,1,0,0,rectangle,11.421875,14.0390625,1,0,0,11.421875,14.0390625,1,0,0,0,104,104,92,1,,,,,,,,
,,,,,,,,,,,,,FF,,,,,,,,0.3816,,,,,,,,,,,,,,,,,,,,,,60ff83ae7a31ac64e3f71491,61036e39356b38f01ba123d6,2021-07-29_21h14.05.787,Simcolourproject_2stim_asymm_v5,2020.2.10,MacIntel,60,61025ae37ef11b136ea224fe,,,,,,,,,3737,51.39453125,40.09375,1,0,0,response1disk,,6,18.015625,6.58203125,1,0,0,rectangle,18.015625,6.58203125,1,0,0,18.015625,6.58203125,1,0,0,0,105,105,41,1,,,,,,,,
,,,,,,,,,,,,,FF,,,,,,,,0.7513,,,,,,,,,,,,,,,,,,,,,,60ff83ae7a31ac64e3f71491,61036e39356b38f01ba123d6,2021-07-29_21h14.05.787,Simcolourproject_2stim_asymm_v5,2020.2.10,MacIntel,60,61025ae37ef11b136ea224fe,,,,,,,,,2719,-44.19921875,28.31640625,1,0,0,response7disk,,1,-6.4375,-5.69140625,1,0,0,rectangle,-6.4375,-5.69140625,1,0,0,-6.4375,-5.69140625,1,0,0,0,106,106,57,1,,,,,,,,
,,,,,,,,,,,,,FF,,,,,,,,1.733,,,,,,,,,,,,,,,,,,,,,,60ff83ae7a31ac64e3f71491,61036e39356b38f01ba123d6,2021-07-29_21h14.05.787,Simcolourproject_2stim_asymm_v5,2020.2.10,MacIntel,60,61025ae37ef11b136ea224fe,,,,,,,,,1162,38.7890625,-27.16015625,1,0,0,response3disk,,5,-2.9140625,-1.9140625,1,0,0,rectangle,16.19921875,-62.12890625,1,0,0,-0.38671875,-9.68359375,1,0,0,0,107,107,38,1,,response3disk_3,TRUE,4,4,"[286,138,51,178,17,200,322,285,15,13,108,278,65,320,33,198,57,46,204,66]",1.9494,rectangle
,,,,,,,,,,,,,FF,,,,,,,,0.8167,,,,,,,,,,,,,,,,,,,,,,60ff83ae7a31ac64e3f71491,61036e39356b38f01ba123d6,2021-07-29_21h14.05.787,Simcolourproject_2stim_asymm_v5,2020.2.10,MacIntel,60,61025ae37ef11b136ea224fe,,,,,,,,,2323,15.453125,-31.19921875,1,0,0,response3disk,,4,-2.32421875,-7.046875,1,0,0,rectangle,-2.32421875,-7.046875,1,0,0,-2.32421875,-7.046875,1,0,0,0,108,108,83,1,,,,,,,,
,,,,,,,,,,,,,FF,,,,,,,,0.9837,,,,,,,,,,,,,,,,,,,,,,60ff83ae7a31ac64e3f71491,61036e39356b38f01ba123d6,2021-07-29_21h14.05.787,Simcolourproject_2stim_asymm_v5,2020.2.10,MacIntel,60,61025ae37ef11b136ea224fe,,,,,,,,,28,33.83984375,-42.390625,1,0,0,response3disk,,4,4,-2.25,1,0,0,rectangle,4,-2.25,1,0,0,4,-2.25,1,0,0,0,109,109,47,1,,,,,,,,
,,,,,,,,,,,,,FF,,,,,,,,0.9992,,,,,,,,,,,,,,,,,,,,,,60ff83ae7a31ac64e3f71491,61036e39356b38f01ba123d6,2021-07-29_21h14.05.787,Simcolourproject_2stim_asymm_v5,2020.2.10,MacIntel,60,61025ae37ef11b136ea224fe,,,,,,,,,3172,-17.46875,-46.1953125,1,0,0,response5disk,,3,-14.3984375,-0.79296875,1,0,0,rectangle,-14.3984375,-0.79296875,1,0,0,-14.3984375,-0.79296875,1,0,0,0,110,110,13,1,,,,,,,,
,,,,,,,,,,,,,FF,,,,,,,,24.4486,,,,,,,,,,,,,,,,,,,,,,60ff83ae7a31ac64e3f71491,61036e39356b38f01ba123d6,2021-07-29_21h14.05.787,Simcolourproject_2stim_asymm_v5,2020.2.10,MacIntel,60,61025ae37ef11b136ea224fe,,,,,,,,,190,14.69140625,-33.55859375,1,0,0,response3disk,,4,1.16015625,-1.4296875,1,0,0,rectangle,1.16015625,-1.4296875,1,0,0,1.16015625,-1.4296875,1,0,0,0,111,111,18,1,,,,,,,,
,,,,,,,,,,,,,FF,,,,,,,,1.5667,,,,,,,,,,,,,,,,,,,,,,60ff83ae7a31ac64e3f71491,61036e39356b38f01ba123d6,2021-07-29_21h14.05.787,Simcolourproject_2stim_asymm_v5,2020.2.10,MacIntel,60,61025ae37ef11b136ea224fe,,,,,,,,,1295,23.41015625,-42.87890625,1,0,0,response3disk,,4,7.03125,-3.05078125,1,0,0,rectangle,7.03125,-3.05078125,1,0,0,7.03125,-3.05078125,1,0,0,0,112,112,104,1,,,,,,,,
,,,,,,,,,,,,,FF,,,,,,,,43.5999,,,,,,,,,,,,,,,,,,,,,,60ff83ae7a31ac64e3f71491,61036e39356b38f01ba123d6,2021-07-29_21h14.05.787,Simcolourproject_2stim_asymm_v5,2020.2.10,MacIntel,60,61025ae37ef11b136ea224fe,,,,,,,,,3483,23.93359375,-37.44921875,1,0,0,response3disk,,4,-12.15625,13.05859375,1,0,0,rectangle,-12.15625,13.05859375,1,0,0,-12.15625,13.05859375,1,0,0,0,113,113,2,1,,,,,,,,
,,,,,,,,,,,,,FF,,,,,,,,0.8,,,,,,,,,,,,,,,,,,,,,,60ff83ae7a31ac64e3f71491,61036e39356b38f01ba123d6,2021-07-29_21h14.05.787,Simcolourproject_2stim_asymm_v5,2020.2.10,MacIntel,60,61025ae37ef11b136ea224fe,,,,,,,,,3269,14.34375,-48.4296875,1,0,0,response3disk,,4,7.26171875,-10.8046875,1,0,0,rectangle,7.26171875,-10.8046875,1,0,0,7.26171875,-10.8046875,1,0,0,0,114,114,84,1,,,,,,,,
,,,,,,,,,,,,,FF,,,,,,,,0.8498,,,,,,,,,,,,,,,,,,,,,,60ff83ae7a31ac64e3f71491,61036e39356b38f01ba123d6,2021-07-29_21h14.05.787,Simcolourproject_2stim_asymm_v5,2020.2.10,MacIntel,60,61025ae37ef11b136ea224fe,,,,,,,,,1383,16.8203125,-30.73828125,1,0,0,response3disk,,4,-2.8125,6.41796875,1,0,0,rectangle,-2.8125,6.41796875,1,0,0,-2.8125,6.41796875,1,0,0,0,115,115,36,1,,,,,,,,
,,,,,,,,,,,,,FF,,,,,,,,1.5002,,,,,,,,,,,,,,,,,,,,,,60ff83ae7a31ac64e3f71491,61036e39356b38f01ba123d6,2021-07-29_21h14.05.787,Simcolourproject_2stim_asymm_v5,2020.2.10,MacIntel,60,61025ae37ef11b136ea224fe,,,,,,,,,2728,39.01953125,-29.26171875,1,0,0,response3disk,,5,-24.4765625,3.640625,1,0,0,rectangle,-24.4765625,3.640625,1,0,0,-24.4765625,3.640625,1,0,0,0,116,116,142,1,,,,,,,,
,,,,,,,,,,,,,FF,,,,,,,,1.75,,,,,,,,,,,,,,,,,,,,,,60ff83ae7a31ac64e3f71491,61036e39356b38f01ba123d6,2021-07-29_21h14.05.787,Simcolourproject_2stim_asymm_v5,2020.2.10,MacIntel,60,61025ae37ef11b136ea224fe,,,,,,,,,3296,-48.3515625,-28.296875,1,0,0,response5disk,,2,-11.984375,3.671875,1,0,0,rectangle,-11.984375,3.671875,1,0,0,-11.984375,3.671875,1,0,0,0,117,117,79,1,,,,,,,,
,,,,,,,,,,,,,FF,,,,,,,,34.4167,,,,,,,,,,,,,,,,,,,,,,60ff83ae7a31ac64e3f71491,61036e39356b38f01ba123d6,2021-07-29_21h14.05.787,Simcolourproject_2stim_asymm_v5,2020.2.10,MacIntel,60,61025ae37ef11b136ea224fe,,,,,,,,,2949,-57.296875,-15.62109375,1,0,0,response5disk,,2,3.3203125,0.703125,1,0,0,rectangle,3.3203125,0.703125,1,0,0,3.3203125,0.703125,1,0,0,0,118,118,31,1,,,,,,,,
,,,,,,,,,,,,,FF,,,,,,,,2.2333,,,,,,,,,,,,,,,,,,,,,,60ff83ae7a31ac64e3f71491,61036e39356b38f01ba123d6,2021-07-29_21h14.05.787,Simcolourproject_2stim_asymm_v5,2020.2.10,MacIntel,60,61025ae37ef11b136ea224fe,,,,,,,,,482,-23.55078125,-42.78125,1,0,0,response5disk,,3,-12.60546875,-9.5625,1,0,0,rectangle,-12.60546875,-9.5625,1,0,0,-12.60546875,-9.5625,1,0,0,0,119,119,94,1,,,,,,,,
,,,,,,,,,,,,,FF,,,,,,,,2.9845,,,,,,,,,,,,,,,,,,,,,,60ff83ae7a31ac64e3f71491,61036e39356b38f01ba123d6,2021-07-29_21h14.05.787,Simcolourproject_2stim_asymm_v5,2020.2.10,MacIntel,60,61025ae37ef11b136ea224fe,,,,,,,,,4292,16.37890625,47.2890625,1,0,0,response1disk,,7,-15.15234375,6.59375,1,0,0,rectangle,-15.15234375,6.59375,1,0,0,-15.15234375,6.59375,1,0,0,0,120,120,100,1,,,,,,,,
,,,,,,,,,,,,,FF,,,,,,,,1.0001,,,,,,,,,,,,,,,,,,,,,,60ff83ae7a31ac64e3f71491,61036e39356b38f01ba123d6,2021-07-29_21h14.05.787,Simcolourproject_2stim_asymm_v5,2020.2.10,MacIntel,60,61025ae37ef11b136ea224fe,,,,,,,,,2089,-18.33203125,-39.46484375,1,0,0,response5disk,,3,-7.75,-1.73828125,1,0,0,rectangle,-7.75,-1.73828125,1,0,0,-7.75,-1.73828125,1,0,0,0,121,121,1,1,,,,,,,,
,,,,,,,,,,,,,FF,,,,,,,,0.7508,,,,,,,,,,,,,,,,,,,,,,60ff83ae7a31ac64e3f71491,61036e39356b38f01ba123d6,2021-07-29_21h14.05.787,Simcolourproject_2stim_asymm_v5,2020.2.10,MacIntel,60,61025ae37ef11b136ea224fe,,,,,,,,,1095,18.1796875,44.015625,1,0,0,response1disk,,7,2.8515625,12.125,1,0,0,rectangle,2.8515625,12.125,1,0,0,2.8515625,12.125,1,0,0,0,122,122,19,1,,,,,,,,
,,,,,,,,,,,,,FF,,,,,,,,0.883,,,,,,,,,,,,,,,,,,,,,,60ff83ae7a31ac64e3f71491,61036e39356b38f01ba123d6,2021-07-29_21h14.05.787,Simcolourproject_2stim_asymm_v5,2020.2.10,MacIntel,60,61025ae37ef11b136ea224fe,,,,,,,,,918,19.9140625,43.15625,1,0,0,response1disk,,7,7.30859375,0.1015625,1,0,0,rectangle,7.30859375,0.1015625,1,0,0,7.30859375,0.1015625,1,0,0,0,123,123,102,1,,,,,,,,
,,,,,,,,,,,,,FF,,,,,,,,3.184,,,,,,,,,,,,,,,,,,,,,,60ff83ae7a31ac64e3f71491,61036e39356b38f01ba123d6,2021-07-29_21h14.05.787,Simcolourproject_2stim_asymm_v5,2020.2.10,MacIntel,60,61025ae37ef11b136ea224fe,,,,,,,,,4188,-33.32421875,-63.2109375,1,0,0,response5disk,,3,-14.171875,-7.890625,1,0,0,rectangle,-14.171875,-7.890625,1,0,0,-14.171875,-7.890625,1,0,0,0,124,124,145,1,,,,,,,,
,,,,,,,,,,,,,FF,,,,,,,,0.7667,,,,,,,,,,,,,,,,,,,,,,60ff83ae7a31ac64e3f71491,61036e39356b38f01ba123d6,2021-07-29_21h14.05.787,Simcolourproject_2stim_asymm_v5,2020.2.10,MacIntel,60,61025ae37ef11b136ea224fe,,,,,,,,,2486,-17.6953125,-46.24609375,1,0,0,response5disk,,3,-8.53125,-6.1640625,1,0,0,rectangle,-8.53125,-6.1640625,1,0,0,-8.53125,-6.1640625,1,0,0,0,125,125,155,1,,,,,,,,
,,,,,,,,,,,,,FF,,,,,,,,1.0667,,,,,,,,,,,,,,,,,,,,,,60ff83ae7a31ac64e3f71491,61036e39356b38f01ba123d6,2021-07-29_21h14.05.787,Simcolourproject_2stim_asymm_v5,2020.2.10,MacIntel,60,61025ae37ef11b136ea224fe,,,,,,,,,3561,48.61328125,20.72265625,1,0,0,response1disk,,6,9.28125,-2.68359375,1,0,0,rectangle,9.28125,-2.68359375,1,0,0,9.28125,-2.68359375,1,0,0,0,126,126,141,1,,,,,,,,
,,,,,,,,,,,,,FF,,,,,,,,0.7833,,,,,,,,,,,,,,,,,,,,,,60ff83ae7a31ac64e3f71491,61036e39356b38f01ba123d6,2021-07-29_21h14.05.787,Simcolourproject_2stim_asymm_v5,2020.2.10,MacIntel,60,61025ae37ef11b136ea224fe,,,,,,,,,1597,-46.6015625,-21.46484375,1,0,0,response5disk,,2,-12.65625,-2.875,1,0,0,rectangle,-12.65625,-2.875,1,0,0,-12.65625,-2.875,1,0,0,0,127,127,9,1,,,,,,,,
,,,,,,,,,,,,,FF,,,,,,,,0.8498,,,,,,,,,,,,,,,,,,,,,,60ff83ae7a31ac64e3f71491,61036e39356b38f01ba123d6,2021-07-29_21h14.05.787,Simcolourproject_2stim_asymm_v5,2020.2.10,MacIntel,60,61025ae37ef11b136ea224fe,,,,,,,,,1988,23.1953125,34.09375,1,0,0,response1disk,,7,20.74609375,-6.3046875,1,0,0,rectangle,20.74609375,-6.3046875,1,0,0,20.74609375,-6.3046875,1,0,0,0,128,128,29,1,,,,,,,,
,,,,,,,,,,,,,FF,,,,,,,,3.117,,,,,,,,,,,,,,,,,,,,,,60ff83ae7a31ac64e3f71491,61036e39356b38f01ba123d6,2021-07-29_21h14.05.787,Simcolourproject_2stim_asymm_v5,2020.2.10,MacIntel,60,61025ae37ef11b136ea224fe,,,,,,,,,3254,32.01171875,28.05859375,1,0,0,response1disk,,6,-8.125,-6.16796875,1,0,0,rectangle,-8.125,-6.16796875,1,0,0,-8.125,-6.16796875,1,0,0,0,129,129,35,1,,,,,,,,
,,,,,,,,,,,,,FF,,,,,,,,5.6328,,,,,,,,,,,,,,,,,,,,,,60ff83ae7a31ac64e3f71491,61036e39356b38f01ba123d6,2021-07-29_21h14.05.787,Simcolourproject_2stim_asymm_v5,2020.2.10,MacIntel,60,61025ae37ef11b136ea224fe,,,,,,,,,656,39.04296875,-27.61328125,1,0,0,response3disk,,5,-13.7734375,8.640625,1,0,0,rectangle,-13.7734375,8.640625,1,0,0,-13.7734375,8.640625,1,0,0,0,130,130,144,1,,,,,,,,
,,,,,,,,,,,,,FF,,,,,,,,2.4004,,,,,,,,,,,,,,,,,,,,,,60ff83ae7a31ac64e3f71491,61036e39356b38f01ba123d6,2021-07-29_21h14.05.787,Simcolourproject_2stim_asymm_v5,2020.2.10,MacIntel,60,61025ae37ef11b136ea224fe,,,,,,,,,4256,55.3671875,-32.54296875,1,0,0,response3disk,,5,-10.6875,-7.828125,1,0,0,rectangle,-10.6875,-7.828125,1,0,0,-10.6875,-7.828125,1,0,0,0,131,131,72,1,,,,,,,,
,,,,,,,,,,,,,FF,,,,,,,,0.8489,,,,,,,,,,,,,,,,,,,,,,60ff83ae7a31ac64e3f71491,61036e39356b38f01ba123d6,2021-07-29_21h14.05.787,Simcolourproject_2stim_asymm_v5,2020.2.10,MacIntel,60,61025ae37ef11b136ea224fe,,,,,,,,,1715,19.88671875,-45.36328125,1,0,0,response3disk,,4,12.53125,-1.1328125,1,0,0,rectangle,12.53125,-1.1328125,1,0,0,12.53125,-1.1328125,1,0,0,0,132,132,97,1,,,,,,,,
,,,,,,,,,,,,,FF,,,,,,,,0.7996,,,,,,,,,,,,,,,,,,,,,,60ff83ae7a31ac64e3f71491,61036e39356b38f01ba123d6,2021-07-29_21h14.05.787,Simcolourproject_2stim_asymm_v5,2020.2.10,MacIntel,60,61025ae37ef11b136ea224fe,,,,,,,,,936,16.42578125,-51.0625,1,0,0,response3disk,,4,10.05859375,-8.9296875,1,0,0,rectangle,10.05859375,-8.9296875,1,0,0,10.05859375,-8.9296875,1,0,0,0,133,133,88,1,,,,,,,,
,,,,,,,,,,,,,FF,,,,,,,,0.8159,,,,,,,,,,,,,,,,,,,,,,60ff83ae7a31ac64e3f71491,61036e39356b38f01ba123d6,2021-07-29_21h14.05.787,Simcolourproject_2stim_asymm_v5,2020.2.10,MacIntel,60,61025ae37ef11b136ea224fe,,,,,,,,,3450,16.23046875,44.21875,1,0,0,response1disk,,7,3.2578125,10.26171875,1,0,0,rectangle,3.2578125,10.26171875,1,0,0,3.2578125,10.26171875,1,0,0,0,134,134,42,1,,,,,,,,
,,,,,,,,,,,,,FF,,,,,,,,1.0161,,,,,,,,,,,,,,,,,,,,,,60ff83ae7a31ac64e3f71491,61036e39356b38f01ba123d6,2021-07-29_21h14.05.787,Simcolourproject_2stim_asymm_v5,2020.2.10,MacIntel,60,61025ae37ef11b136ea224fe,,,,,,,,,1205,21.96484375,-45.671875,1,0,0,response3disk,,4,11.72265625,-13.01953125,1,0,0,rectangle,11.72265625,-13.01953125,1,0,0,11.72265625,-13.01953125,1,0,0,0,135,135,75,1,,,,,,,,
,,,,,,,,,,,,,FF,,,,,,,,0.9662,,,,,,,,,,,,,,,,,,,,,,60ff83ae7a31ac64e3f71491,61036e39356b38f01ba123d6,2021-07-29_21h14.05.787,Simcolourproject_2stim_asymm_v5,2020.2.10,MacIntel,60,61025ae37ef11b136ea224fe,,,,,,,,,3342,-54.140625,-37.1171875,1,0,0,response5disk,,2,-17.36328125,-1.82421875,1,0,0,rectangle,-17.36328125,-1.82421875,1,0,0,-17.36328125,-1.82421875,1,0,0,0,136,136,136,1,,,,,,,,
,,,,,,,,,,,,,FF,,,,,,,,0.9337,,,,,,,,,,,,,,,,,,,,,,60ff83ae7a31ac64e3f71491,61036e39356b38f01ba123d6,2021-07-29_21h14.05.787,Simcolourproject_2stim_asymm_v5,2020.2.10,MacIntel,60,61025ae37ef11b136ea224fe,,,,,,,,,3692,24.515625,47.52734375,1,0,0,response1disk,,7,13.6875,2.08203125,1,0,0,rectangle,-55.4921875,29.47265625,1,0,0,-16.09375,2.3125,1,0,0,0,137,137,90,1,,response7disk_3,TRUE,1,1,"[286,138,51,178,17,200,322,285,15,13,108,278,65,320,33,198,57,46,204,66]",1.3505,rectangle
,,,,,,,,,,,,,FF,,,,,,,,9.917,,,,,,,,,,,,,,,,,,,,,,60ff83ae7a31ac64e3f71491,61036e39356b38f01ba123d6,2021-07-29_21h14.05.787,Simcolourproject_2stim_asymm_v5,2020.2.10,MacIntel,60,61025ae37ef11b136ea224fe,,,,,,,,,2288,15.69140625,-40.3828125,1,0,0,response3disk,,4,-3.1796875,-1.33203125,1,0,0,rectangle,-3.1796875,-1.33203125,1,0,0,-3.1796875,-1.33203125,1,0,0,0,138,138,148,1,,,,,,,,
,,,,,,,,,,,,,FF,,,,,,,,0.5816,,,,,,,,,,,,,,,,,,,,,,60ff83ae7a31ac64e3f71491,61036e39356b38f01ba123d6,2021-07-29_21h14.05.787,Simcolourproject_2stim_asymm_v5,2020.2.10,MacIntel,60,61025ae37ef11b136ea224fe,,,,,,,,,4342,25.12109375,55.44140625,1,0,0,response1disk,,7,12.26953125,-0.52734375,1,0,0,rectangle,12.26953125,-0.52734375,1,0,0,12.26953125,-0.52734375,1,0,0,0,139,139,71,1,,,,,,,,
,,,,,,,,,,,,,FF,,,,,,,,6.1015,,,,,,,,,,,,,,,,,,,,,,60ff83ae7a31ac64e3f71491,61036e39356b38f01ba123d6,2021-07-29_21h14.05.787,Simcolourproject_2stim_asymm_v5,2020.2.10,MacIntel,60,61025ae37ef11b136ea224fe,,,,,,,,,3624,-34.39453125,-55.15234375,1,0,0,response5disk,,3,-5.125,2.10546875,1,0,0,rectangle,-5.125,2.10546875,1,0,0,-5.125,2.10546875,1,0,0,0,140,140,74,1,,,,,,,,
,,,,,,,,,,,,,FF,,,,,,,,0.8837,,,,,,,,,,,,,,,,,,,,,,60ff83ae7a31ac64e3f71491,61036e39356b38f01ba123d6,2021-07-29_21h14.05.787,Simcolourproject_2stim_asymm_v5,2020.2.10,MacIntel,60,61025ae37ef11b136ea224fe,,,,,,,,,173,-51.95703125,-26.59765625,1,0,0,response5disk,,2,-17.19140625,-4.21484375,1,0,0,rectangle,-17.19140625,-4.21484375,1,0,0,-17.19140625,-4.21484375,1,0,0,0,141,141,140,1,,,,,,,,
,,,,,,,,,,,,,FF,,,,,,,,0.8489,,,,,,,,,,,,,,,,,,,,,,60ff83ae7a31ac64e3f71491,61036e39356b38f01ba123d6,2021-07-29_21h14.05.787,Simcolourproject_2stim_asymm_v5,2020.2.10,MacIntel,60,61025ae37ef11b136ea224fe,,,,,,,,,65,24.75390625,-56.48046875,1,0,0,response3disk,,4,16.2578125,0.99609375,1,0,0,rectangle,16.2578125,0.99609375,1,0,0,16.2578125,0.99609375,1,0,0,0,142,142,98,1,,,,,,,,
,,,,,,,,,,,,,FF,,,,,,,,0.8827,,,,,,,,,,,,,,,,,,,,,,60ff83ae7a31ac64e3f71491,61036e39356b38f01ba123d6,2021-07-29_21h14.05.787,Simcolourproject_2stim_asymm_v5,2020.2.10,MacIntel,60,61025ae37ef11b136ea224fe,,,,,,,,,2321,52.37890625,-20.84765625,1,0,0,response3disk,,5,-2.62109375,-5.53125,1,0,0,rectangle,-2.62109375,-5.53125,1,0,0,-2.62109375,-5.53125,1,0,0,0,143,143,139,1,,,,,,,,
,,,,,,,,,,,,,FF,,,,,,,,0.9001,,,,,,,,,,,,,,,,,,,,,,60ff83ae7a31ac64e3f71491,61036e39356b38f01ba123d6,2021-07-29_21h14.05.787,Simcolourproject_2stim_asymm_v5,2020.2.10,MacIntel,60,61025ae37ef11b136ea224fe,,,,,,,,,2650,20.07421875,-48.52734375,1,0,0,response3disk,,4,10.54296875,-11.0078125,1,0,0,rectangle,10.54296875,-11.0078125,1,0,0,10.54296875,-11.0078125,1,0,0,0,144,144,126,1,,,,,,,,
,,,,,,,,,,,,,FF,,,,,,,,0.8652,,,,,,,,,,,,,,,,,,,,,,60ff83ae7a31ac64e3f71491,61036e39356b38f01ba123d6,2021-07-29_21h14.05.787,Simcolourproject_2stim_asymm_v5,2020.2.10,MacIntel,60,61025ae37ef11b136ea224fe,,,,,,,,,2060,21.8046875,-52.19140625,1,0,0,response3disk,,4,17.7421875,5.359375,1,0,0,rectangle,17.7421875,5.359375,1,0,0,17.7421875,5.359375,1,0,0,0,145,145,154,1,,,,,,,,
,,,,,,,,,,,,,FF,,,,,,,,0.7003,,,,,,,,,,,,,,,,,,,,,,60ff83ae7a31ac64e3f71491,61036e39356b38f01ba123d6,2021-07-29_21h14.05.787,Simcolourproject_2stim_asymm_v5,2020.2.10,MacIntel,60,61025ae37ef11b136ea224fe,,,,,,,,,225,17.296875,44.9609375,1,0,0,response1disk,,7,10.16015625,10.90234375,1,0,0,rectangle,10.16015625,10.90234375,1,0,0,10.16015625,10.90234375,1,0,0,0,146,146,80,1,,,,,,,,
,,,,,,,,,,,,,FF,,,,,,,,1.0825,,,,,,,,,,,,,,,,,,,,,,60ff83ae7a31ac64e3f71491,61036e39356b38f01ba123d6,2021-07-29_21h14.05.787,Simcolourproject_2stim_asymm_v5,2020.2.10,MacIntel,60,61025ae37ef11b136ea224fe,,,,,,,,,1623,13.62109375,-46.01953125,1,0,0,response3disk,,4,-7.90234375,-5.59765625,1,0,0,rectangle,-7.90234375,-5.59765625,1,0,0,-7.90234375,-5.59765625,1,0,0,0,147,147,134,1,,,,,,,,
,,,,,,,,,,,,,FF,,,,,,,,0.8168,,,,,,,,,,,,,,,,,,,,,,60ff83ae7a31ac64e3f71491,61036e39356b38f01ba123d6,2021-07-29_21h14.05.787,Simcolourproject_2stim_asymm_v5,2020.2.10,MacIntel,60,61025ae37ef11b136ea224fe,,,,,,,,,1189,22.0625,-49.11328125,1,0,0,response3disk,,4,10.3515625,-9.63671875,1,0,0,rectangle,10.3515625,-9.63671875,1,0,0,10.3515625,-9.63671875,1,0,0,0,148,148,32,1,,,,,,,,
,,,,,,,,,,,,,FF,,,,,,,,0.6156,,,,,,,,,,,,,,,,,,,,,,60ff83ae7a31ac64e3f71491,61036e39356b38f01ba123d6,2021-07-29_21h14.05.787,Simcolourproject_2stim_asymm_v5,2020.2.10,MacIntel,60,61025ae37ef11b136ea224fe,,,,,,,,,3015,16.71484375,45.55078125,1,0,0,response1disk,,7,9.37890625,10.3359375,1,0,0,rectangle,9.37890625,10.3359375,1,0,0,9.37890625,10.3359375,1,0,0,0,149,149,95,1,,,,,,,,
,,,,,,,,,,,,,FF,,,,,,,,0.7508,,,,,,,,,,,,,,,,,,,,,,60ff83ae7a31ac64e3f71491,61036e39356b38f01ba123d6,2021-07-29_21h14.05.787,Simcolourproject_2stim_asymm_v5,2020.2.10,MacIntel,60,61025ae37ef11b136ea224fe,,,,,,,,,1442,10.97265625,-40.4609375,1,0,0,response3disk,,4,5.84765625,-4.140625,1,0,0,rectangle,5.84765625,-4.140625,1,0,0,5.84765625,-4.140625,1,0,0,0,150,150,150,1,,,,,,,,
,,,,,,,,,,,,,FF,,,,,,,,0.6999,,,,,,,,,,,,,,,,,,,,,,60ff83ae7a31ac64e3f71491,61036e39356b38f01ba123d6,2021-07-29_21h14.05.787,Simcolourproject_2stim_asymm_v5,2020.2.10,MacIntel,60,61025ae37ef11b136ea224fe,,,,,,,,,1390,14.41015625,-41.78125,1,0,0,response3disk,,4,13.21484375,-10.34375,1,0,0,rectangle,13.21484375,-10.34375,1,0,0,13.21484375,-10.34375,1,0,0,0,151,151,70,1,,,,,,,,
,,,,,,,,,,,,,FF,,,,,,,,0.8838,,,,,,,,,,,,,,,,,,,,,,60ff83ae7a31ac64e3f71491,61036e39356b38f01ba123d6,2021-07-29_21h14.05.787,Simcolourproject_2stim_asymm_v5,2020.2.10,MacIntel,60,61025ae37ef11b136ea224fe,,,,,,,,,725,47.0390625,-25.8515625,1,0,0,response3disk,,5,9.21875,-8.21484375,1,0,0,rectangle,9.21875,-8.21484375,1,0,0,9.21875,-8.21484375,1,0,0,0,152,152,101,1,,,,,,,,
,,,,,,,,,,,,,FF,,,,,,,,0.6828,,,,,,,,,,,,,,,,,,,,,,60ff83ae7a31ac64e3f71491,61036e39356b38f01ba123d6,2021-07-29_21h14.05.787,Simcolourproject_2stim_asymm_v5,2020.2.10,MacIntel,60,61025ae37ef11b136ea224fe,,,,,,,,,2921,42.66015625,-26.265625,1,0,0,response3disk,,5,9.28515625,-9.16796875,1,0,0,rectangle,9.28515625,-9.16796875,1,0,0,9.28515625,-9.16796875,1,0,0,0,153,153,78,1,,,,,,,,
,,,,,,,,,,,,,FF,,,,,,,,0.5329,,,,,,,,,,,,,,,,,,,,,,60ff83ae7a31ac64e3f71491,61036e39356b38f01ba123d6,2021-07-29_21h14.05.787,Simcolourproject_2stim_asymm_v5,2020.2.10,MacIntel,60,61025ae37ef11b136ea224fe,,,,,,,,,3825,40.30078125,-27.8203125,1,0,0,response3disk,,5,-10.19921875,0.05078125,1,0,0,rectangle,-10.19921875,0.05078125,1,0,0,-10.19921875,0.05078125,1,0,0,0,154,154,116,1,,,,,,,,
,,,,,,,,,,,,,FF,,,,,,,,0.7498,,,,,,,,,,,,,,,,,,,,,,60ff83ae7a31ac64e3f71491,61036e39356b38f01ba123d6,2021-07-29_21h14.05.787,Simcolourproject_2stim_asymm_v5,2020.2.10,MacIntel,60,61025ae37ef11b136ea224fe,,,,,,,,,879,47.21484375,-31.3828125,1,0,0,response3disk,,5,5.63671875,-10.2421875,1,0,0,rectangle,5.63671875,-10.2421875,1,0,0,5.63671875,-10.2421875,1,0,0,0,155,155,138,1,,,,,,,,
,,,,,,,,,,,,,FF,,,,,,,,0.8005,,,,,,,,,,,,,,,,,,,,,,60ff83ae7a31ac64e3f71491,61036e39356b38f01ba123d6,2021-07-29_21h14.05.787,Simcolourproject_2stim_asymm_v5,2020.2.10,MacIntel,60,61025ae37ef11b136ea224fe,,,,,,,,,2020,44.4765625,-26.35546875,1,0,0,response3disk,,5,10.26171875,-8.02734375,1,0,0,rectangle,10.26171875,-8.02734375,1,0,0,10.26171875,-8.02734375,1,0,0,0,156,156,37,1,,,,,,,,
,,,,,,,,,,,,,FF,,,,,,,,2.4329,,,,,,,,,,,,,,,,,,,,,,60ff83ae7a31ac64e3f71491,61036e39356b38f01ba123d6,2021-07-29_21h14.05.787,Simcolourproject_2stim_asymm_v5,2020.2.10,MacIntel,60,61025ae37ef11b136ea224fe,,,,,,,,,3391,-57.5,-21.82421875,1,0,0,response5disk,,2,-9.890625,-8.02734375,1,0,0,rectangle,-9.890625,-8.02734375,1,0,0,-9.890625,-8.02734375,1,0,0,0,157,157,12,1,,,,,,,,
,,,,,,,,,,,,,FF,,,,,,,,1.0837,,,,,,,,,,,,,,,,,,,,,,60ff83ae7a31ac64e3f71491,61036e39356b38f01ba123d6,2021-07-29_21h14.05.787,Simcolourproject_2stim_asymm_v5,2020.2.10,MacIntel,60,61025ae37ef11b136ea224fe,,,,,,,,,1581,13.5234375,26.01953125,1,0,0,response1disk,,7,13.5234375,-0.23828125,1,0,0,rectangle,13.5234375,-0.23828125,1,0,0,13.5234375,-0.23828125,1,0,0,0,158,158,109,1,,,,,,,,
,,,,,,,,,,,,,FF,,,,,,,,0.9009,,,,,,,,,,,,,,,,,,,,,,60ff83ae7a31ac64e3f71491,61036e39356b38f01ba123d6,2021-07-29_21h14.05.787,Simcolourproject_2stim_asymm_v5,2020.2.10,MacIntel,60,61025ae37ef11b136ea224fe,,,,,,,,,1225,13.90625,-31.6015625,1,0,0,response3disk,,4,3.17578125,1.8046875,1,0,0,rectangle,3.17578125,1.8046875,1,0,0,3.17578125,1.8046875,1,0,0,0,159,159,121,1,,,,,,,,
,,,,,,,,,,,,,FF,,,,,,,,0.7154,,,,,,,,,,,,,,,,,,,,,,60ff83ae7a31ac64e3f71491,61036e39356b38f01ba123d6,2021-07-29_21h14.05.787,Simcolourproject_2stim_asymm_v5,2020.2.10,MacIntel,60,61025ae37ef11b136ea224fe,,,,,,,,,3766,17.04296875,44.765625,1,0,0,response1disk,,7,-3.3828125,6.25390625,1,0,0,rectangle,-3.3828125,6.25390625,1,0,0,-3.3828125,6.25390625,1,0,0,1,0,160,2,1,,,,,,,,
,,,,,,,,,,,,,FF,,,,,,,,1.3675,,,,,,,,,,,,,,,,,,,,,,60ff83ae7a31ac64e3f71491,61036e39356b38f01ba123d6,2021-07-29_21h14.05.787,Simcolourproject_2stim_asymm_v5,2020.2.10,MacIntel,60,61025ae37ef11b136ea224fe,,,,,,,,,3096,-40.44140625,54.2734375,1,0,0,response7disk,,0,-6.75,-0.3984375,1,0,0,rectangle,-6.75,-0.3984375,1,0,0,-6.75,-0.3984375,1,0,0,1,1,161,63,1,,,,,,,,
,,,,,,,,,,,,,FF,,,,,,,,1.3496,,,,,,,,,,,,,,,,,,,,,,60ff83ae7a31ac64e3f71491,61036e39356b38f01ba123d6,2021-07-29_21h14.05.787,Simcolourproject_2stim_asymm_v5,2020.2.10,MacIntel,60,61025ae37ef11b136ea224fe,,,,,,,,,3900,-40.38671875,-42.375,1,0,0,response5disk,,3,-25.35546875,-7.78125,1,0,0,rectangle,-25.35546875,-7.78125,1,0,0,-25.35546875,-7.78125,1,0,0,1,2,162,21,1,,,,,,,,
,,,,,,,,,,,,,FF,,,,,,,,0.867,,,,,,,,,,,,,,,,,,,,,,60ff83ae7a31ac64e3f71491,61036e39356b38f01ba123d6,2021-07-29_21h14.05.787,Simcolourproject_2stim_asymm_v5,2020.2.10,MacIntel,60,61025ae37ef11b136ea224fe,,,,,,,,,4041,32.875,-25.30859375,1,0,0,response3disk,,5,8.7734375,-10.26171875,1,0,0,rectangle,8.7734375,-10.26171875,1,0,0,8.7734375,-10.26171875,1,0,0,1,3,163,47,1,,,,,,,,
,,,,,,,,,,,,,FF,,,,,,,,0.6503,,,,,,,,,,,,,,,,,,,,,,60ff83ae7a31ac64e3f71491,61036e39356b38f01ba123d6,2021-07-29_21h14.05.787,Simcolourproject_2stim_asymm_v5,2020.2.10,MacIntel,60,61025ae37ef11b136ea224fe,,,,,,,,,1193,47.26171875,23.16796875,1,0,0,response1disk,,6,16.53515625,6.71875,1,0,0,rectangle,16.53515625,6.71875,1,0,0,16.53515625,6.71875,1,0,0,1,4,164,83,1,,,,,,,,
,,,,,,,,,,,,,FF,,,,,,,,0.6161,,,,,,,,,,,,,,,,,,,,,,60ff83ae7a31ac64e3f71491,61036e39356b38f01ba123d6,2021-07-29_21h14.05.787,Simcolourproject_2stim_asymm_v5,2020.2.10,MacIntel,60,61025ae37ef11b136ea224fe,,,,,,,,,474,25.5703125,36.1484375,1,0,0,response1disk,,7,4.84375,9.08984375,1,0,0,rectangle,4.84375,9.08984375,1,0,0,4.84375,9.08984375,1,0,0,1,5,165,130,1,,,,,,,,
,,,,,,,,,,,,,FF,,,,,,,,0.5167,,,,,,,,,,,,,,,,,,,,,,60ff83ae7a31ac64e3f71491,61036e39356b38f01ba123d6,2021-07-29_21h14.05.787,Simcolourproject_2stim_asymm_v5,2020.2.10,MacIntel,60,61025ae37ef11b136ea224fe,,,,,,,,,1564,22.93359375,41.81640625,1,0,0,response1disk,,7,15.99609375,8.765625,1,0,0,rectangle,15.99609375,8.765625,1,0,0,15.99609375,8.765625,1,0,0,1,6,166,139,1,,,,,,,,
,,,,,,,,,,,,,FF,,,,,,,,0.6839,,,,,,,,,,,,,,,,,,,,,,60ff83ae7a31ac64e3f71491,61036e39356b38f01ba123d6,2021-07-29_21h14.05.787,Simcolourproject_2stim_asymm_v5,2020.2.10,MacIntel,60,61025ae37ef11b136ea224fe,,,,,,,,,738,37.62109375,20.2265625,1,0,0,response1disk,,6,14.8515625,14.3984375,1,0,0,rectangle,14.8515625,14.3984375,1,0,0,14.8515625,14.3984375,1,0,0,1,7,167,77,1,,,,,,,,
,,,,,,,,,,,,,FF,,,,,,,,0.4997,,,,,,,,,,,,,,,,,,,,,,60ff83ae7a31ac64e3f71491,61036e39356b38f01ba123d6,2021-07-29_21h14.05.787,Simcolourproject_2stim_asymm_v5,2020.2.10,MacIntel,60,61025ae37ef11b136ea224fe,,,,,,,,,862,37.34765625,39.6015625,1,0,0,response1disk,,7,0.5390625,10.87890625,1,0,0,rectangle,0.5390625,10.87890625,1,0,0,0.5390625,10.87890625,1,0,0,1,8,168,65,1,,,,,,,,
,,,,,,,,,,,,,FF,,,,,,,,0.4001,,,,,,,,,,,,,,,,,,,,,,60ff83ae7a31ac64e3f71491,61036e39356b38f01ba123d6,2021-07-29_21h14.05.787,Simcolourproject_2stim_asymm_v5,2020.2.10,MacIntel,60,61025ae37ef11b136ea224fe,,,,,,,,,2352,24.9921875,45.67578125,1,0,0,response1disk,,7,17.71875,7.74609375,1,0,0,rectangle,17.71875,7.74609375,1,0,0,17.71875,7.74609375,1,0,0,1,9,169,86,1,,,,,,,,
,,,,,,,,,,,,,FF,,,,,,,,0.6827,,,,,,,,,,,,,,,,,,,,,,60ff83ae7a31ac64e3f71491,61036e39356b38f01ba123d6,2021-07-29_21h14.05.787,Simcolourproject_2stim_asymm_v5,2020.2.10,MacIntel,60,61025ae37ef11b136ea224fe,,,,,,,,,958,33.625,-18.7265625,1,0,0,response3disk,,5,-12.625,-11.3984375,1,0,0,rectangle,-12.625,-11.3984375,1,0,0,-12.625,-11.3984375,1,0,0,1,10,170,23,1,,,,,,,,
,,,,,,,,,,,,,FF,,,,,,,,0.4506,,,,,,,,,,,,,,,,,,,,,,60ff83ae7a31ac64e3f71491,61036e39356b38f01ba123d6,2021-07-29_21h14.05.787,Simcolourproject_2stim_asymm_v5,2020.2.10,MacIntel,60,61025ae37ef11b136ea224fe,,,,,,,,,782,21.390625,-47.8203125,1,0,0,response3disk,,4,4.78515625,-13.8203125,1,0,0,rectangle,4.78515625,-13.8203125,1,0,0,4.78515625,-13.8203125,1,0,0,1,11,171,59,1,,,,,,,,
,,,,,,,,,,,,,FF,,,,,,,,0.5174,,,,,,,,,,,,,,,,,,,,,,60ff83ae7a31ac64e3f71491,61036e39356b38f01ba123d6,2021-07-29_21h14.05.787,Simcolourproject_2stim_asymm_v5,2020.2.10,MacIntel,60,61025ae37ef11b136ea224fe,,,,,,,,,2041,40.78125,-13.95703125,1,0,0,response3disk,,5,10.42578125,3.63671875,1,0,0,rectangle,10.42578125,3.63671875,1,0,0,10.42578125,3.63671875,1,0,0,1,12,172,129,1,,,,,,,,
,,,,,,,,,,,,,FF,,,,,,,,0.9504,,,,,,,,,,,,,,,,,,,,,,60ff83ae7a31ac64e3f71491,61036e39356b38f01ba123d6,2021-07-29_21h14.05.787,Simcolourproject_2stim_asymm_v5,2020.2.10,MacIntel,60,61025ae37ef11b136ea224fe,,,,,,,,,4356,-34.41015625,40.44921875,1,0,0,response7disk,,0,-11.9375,-3.578125,1,0,0,rectangle,-11.9375,-3.578125,1,0,0,-11.9375,-3.578125,1,0,0,1,13,173,120,1,,,,,,,,
,,,,,,,,,,,,,FF,,,,,,,,1.3504,,,,,,,,,,,,,,,,,,,,,,60ff83ae7a31ac64e3f71491,61036e39356b38f01ba123d6,2021-07-29_21h14.05.787,Simcolourproject_2stim_asymm_v5,2020.2.10,MacIntel,60,61025ae37ef11b136ea224fe,,,,,,,,,3887,15.29296875,-54.71484375,1,0,0,response3disk,,4,-5.94140625,-11.8828125,1,0,0,rectangle,-5.94140625,-11.8828125,1,0,0,-5.94140625,-11.8828125,1,0,0,1,14,174,95,1,,,,,,,,
,,,,,,,,,,,,,FF,,,,,,,,1.0494,,,,,,,,,,,,,,,,,,,,,,60ff83ae7a31ac64e3f71491,61036e39356b38f01ba123d6,2021-07-29_21h14.05.787,Simcolourproject_2stim_asymm_v5,2020.2.10,MacIntel,60,61025ae37ef11b136ea224fe,,,,,,,,,1294,51.8046875,12.87890625,1,0,0,response1disk,,6,-14.296875,-1.015625,1,0,0,rectangle,-14.296875,-1.015625,1,0,0,-14.296875,-1.015625,1,0,0,1,15,175,58,1,,,,,,,,
,,,,,,,,,,,,,FF,,,,,,,,2.3153,,,,,,,,,,,,,,,,,,,,,,60ff83ae7a31ac64e3f71491,61036e39356b38f01ba123d6,2021-07-29_21h14.05.787,Simcolourproject_2stim_asymm_v5,2020.2.10,MacIntel,60,61025ae37ef11b136ea224fe,,,,,,,,,3864,19.8359375,32.125,1,0,0,response1disk,,7,10.01171875,3.1953125,1,0,0,rectangle,10.01171875,3.1953125,1,0,0,10.01171875,3.1953125,1,0,0,1,16,176,96,1,,,,,,,,
,,,,,,,,,,,,,FF,,,,,,,,0.4823,,,,,,,,,,,,,,,,,,,,,,60ff83ae7a31ac64e3f71491,61036e39356b38f01ba123d6,2021-07-29_21h14.05.787,Simcolourproject_2stim_asymm_v5,2020.2.10,MacIntel,60,61025ae37ef11b136ea224fe,,,,,,,,,2022,46.3671875,19.94921875,1,0,0,response1disk,,6,14.69921875,-3.4375,1,0,0,rectangle,-56.93359375,-17.328125,1,0,0,-15.3359375,4.18359375,1,0,0,1,17,177,143,1,,response5disk_3,TRUE,2,2,"[286,138,51,178,17,200,322,285,15,13,108,278,65,320,33,198,57,46,204,66]",1.5495,rectangle
,,,,,,,,,,,,,FF,,,,,,,,0.6991,,,,,,,,,,,,,,,,,,,,,,60ff83ae7a31ac64e3f71491,61036e39356b38f01ba123d6,2021-07-29_21h14.05.787,Simcolourproject_2stim_asymm_v5,2020.2.10,MacIntel,60,61025ae37ef11b136ea224fe,,,,,,,,,3235,23.39453125,-24.95703125,1,0,0,response3disk,,4,-9.8671875,7.44921875,1,0,0,rectangle,-9.8671875,7.44921875,1,0,0,-9.8671875,7.44921875,1,0,0,1,18,178,8,1,,,,,,,,
,,,,,,,,,,,,,FF,,,,,,,,0.8158,,,,,,,,,,,,,,,,,,,,,,60ff83ae7a31ac64e3f71491,61036e39356b38f01ba123d6,2021-07-29_21h14.05.787,Simcolourproject_2stim_asymm_v5,2020.2.10,MacIntel,60,61025ae37ef11b136ea224fe,,,,,,,,,759,47.50390625,11.484375,1,0,0,response1disk,,6,18.19140625,7.39453125,1,0,0,rectangle,18.19140625,7.39453125,1,0,0,18.19140625,7.39453125,1,0,0,1,19,179,52,1,,,,,,,,
,,,,,,,,,,,,,FF,,,,,,,,0.3656,,,,,,,,,,,,,,,,,,,,,,60ff83ae7a31ac64e3f71491,61036e39356b38f01ba123d6,2021-07-29_21h14.05.787,Simcolourproject_2stim_asymm_v5,2020.2.10,MacIntel,60,61025ae37ef11b136ea224fe,,,,,,,,,1125,46.39453125,26.19921875,1,0,0,response1disk,,6,-13.44140625,12.5703125,1,0,0,rectangle,-13.44140625,12.5703125,1,0,0,-13.44140625,12.5703125,1,0,0,1,20,180,1,1,,,,,,,,
,,,,,,,,,,,,,FF,,,,,,,,0.3828,,,,,,,,,,,,,,,,,,,,,,60ff83ae7a31ac64e3f71491,61036e39356b38f01ba123d6,2021-07-29_21h14.05.787,Simcolourproject_2stim_asymm_v5,2020.2.10,MacIntel,60,61025ae37ef11b136ea224fe,,,,,,,,,487,55.20703125,37.99609375,1,0,0,response1disk,,6,19.23046875,0.390625,1,0,0,rectangle,19.23046875,0.390625,1,0,0,19.23046875,0.390625,1,0,0,1,21,181,45,1,,,,,,,,
,,,,,,,,,,,,,FF,,,,,,,,0.3487,,,,,,,,,,,,,,,,,,,,,,60ff83ae7a31ac64e3f71491,61036e39356b38f01ba123d6,2021-07-29_21h14.05.787,Simcolourproject_2stim_asymm_v5,2020.2.10,MacIntel,60,61025ae37ef11b136ea224fe,,,,,,,,,1795,56.50390625,30.921875,1,0,0,response1disk,,6,10.4140625,9.671875,1,0,0,rectangle,10.4140625,9.671875,1,0,0,10.4140625,9.671875,1,0,0,1,22,182,103,1,,,,,,,,
,,,,,,,,,,,,,FF,,,,,,,,1.1847,,,,,,,,,,,,,,,,,,,,,,60ff83ae7a31ac64e3f71491,61036e39356b38f01ba123d6,2021-07-29_21h14.05.787,Simcolourproject_2stim_asymm_v5,2020.2.10,MacIntel,60,61025ae37ef11b136ea224fe,,,,,,,,,2892,-56.94921875,-41,1,0,0,response5disk,,2,-10.05859375,-6.4453125,1,0,0,rectangle,-10.05859375,-6.4453125,1,0,0,-10.05859375,-6.4453125,1,0,0,1,23,183,101,1,,,,,,,,
,,,,,,,,,,,,,FF,,,,,,,,0.6656,,,,,,,,,,,,,,,,,,,,,,60ff83ae7a31ac64e3f71491,61036e39356b38f01ba123d6,2021-07-29_21h14.05.787,Simcolourproject_2stim_asymm_v5,2020.2.10,MacIntel,60,61025ae37ef11b136ea224fe,,,,,,,,,3679,25.44921875,16.2734375,1,0,0,response1disk,,6,3.18359375,4.9765625,1,0,0,rectangle,3.18359375,4.9765625,1,0,0,3.18359375,4.9765625,1,0,0,1,24,184,4,1,,,,,,,,
,,,,,,,,,,,,,FF,,,,,,,,1.0174,,,,,,,,,,,,,,,,,,,,,,60ff83ae7a31ac64e3f71491,61036e39356b38f01ba123d6,2021-07-29_21h14.05.787,Simcolourproject_2stim_asymm_v5,2020.2.10,MacIntel,60,61025ae37ef11b136ea224fe,,,,,,,,,1889,-38.5390625,-42.53125,1,0,0,response5disk,,3,-26.74609375,-11.78515625,1,0,0,rectangle,-26.74609375,-11.78515625,1,0,0,-26.74609375,-11.78515625,1,0,0,1,25,185,124,1,,,,,,,,
,,,,,,,,,,,,,FF,,,,,,,,0.8835,,,,,,,,,,,,,,,,,,,,,,60ff83ae7a31ac64e3f71491,61036e39356b38f01ba123d6,2021-07-29_21h14.05.787,Simcolourproject_2stim_asymm_v5,2020.2.10,MacIntel,60,61025ae37ef11b136ea224fe,,,,,,,,,3811,-57.81640625,27.75390625,1,0,0,response7disk,,1,-10.91015625,4.55078125,1,0,0,rectangle,-10.91015625,4.55078125,1,0,0,-10.91015625,4.55078125,1,0,0,1,26,186,54,1,,,,,,,,
,,,,,,,,,,,,,FF,,,,,,,,0.7666,,,,,,,,,,,,,,,,,,,,,,60ff83ae7a31ac64e3f71491,61036e39356b38f01ba123d6,2021-07-29_21h14.05.787,Simcolourproject_2stim_asymm_v5,2020.2.10,MacIntel,60,61025ae37ef11b136ea224fe,,,,,,,,,3102,14.5234375,-46.140625,1,0,0,response3disk,,4,2.98046875,0.140625,1,0,0,rectangle,2.98046875,0.140625,1,0,0,2.98046875,0.140625,1,0,0,1,27,187,151,1,,,,,,,,
,,,,,,,,,,,,,FF,,,,,,,,0.616,,,,,,,,,,,,,,,,,,,,,,60ff83ae7a31ac64e3f71491,61036e39356b38f01ba123d6,2021-07-29_21h14.05.787,Simcolourproject_2stim_asymm_v5,2020.2.10,MacIntel,60,61025ae37ef11b136ea224fe,,,,,,,,,343,56.3515625,-28.58203125,1,0,0,response3disk,,5,12.68359375,-11.44921875,1,0,0,rectangle,12.68359375,-11.44921875,1,0,0,12.68359375,-11.44921875,1,0,0,1,28,188,16,1,,,,,,,,
,,,,,,,,,,,,,FF,,,,,,,,0.9838,,,,,,,,,,,,,,,,,,,,,,60ff83ae7a31ac64e3f71491,61036e39356b38f01ba123d6,2021-07-29_21h14.05.787,Simcolourproject_2stim_asymm_v5,2020.2.10,MacIntel,60,61025ae37ef11b136ea224fe,,,,,,,,,2727,-24.671875,-56.7890625,1,0,0,response5disk,,3,-10.9375,-9.375,1,0,0,rectangle,-10.9375,-9.375,1,0,0,-10.9375,-9.375,1,0,0,1,29,189,41,1,,,,,,,,
,,,,,,,,,,,,,FF,,,,,,,,0.849,,,,,,,,,,,,,,,,,,,,,,60ff83ae7a31ac64e3f71491,61036e39356b38f01ba123d6,2021-07-29_21h14.05.787,Simcolourproject_2stim_asymm_v5,2020.2.10,MacIntel,60,61025ae37ef11b136ea224fe,,,,,,,,,570,37.59375,18.93359375,1,0,0,response1disk,,6,3.57421875,11.26171875,1,0,0,rectangle,3.57421875,11.26171875,1,0,0,3.57421875,11.26171875,1,0,0,1,30,190,50,1,,,,,,,,
,,,,,,,,,,,,,FF,,,,,,,,0.6834,,,,,,,,,,,,,,,,,,,,,,60ff83ae7a31ac64e3f71491,61036e39356b38f01ba123d6,2021-07-29_21h14.05.787,Simcolourproject_2stim_asymm_v5,2020.2.10,MacIntel,60,61025ae37ef11b136ea224fe,,,,,,,,,479,56.0625,24.328125,1,0,0,response1disk,,6,12.81640625,5.4765625,1,0,0,rectangle,12.81640625,5.4765625,1,0,0,12.81640625,5.4765625,1,0,0,1,31,191,30,1,,,,,,,,
,,,,,,,,,,,,,FF,,,,,,,,0.6999,,,,,,,,,,,,,,,,,,,,,,60ff83ae7a31ac64e3f71491,61036e39356b38f01ba123d6,2021-07-29_21h14.05.787,Simcolourproject_2stim_asymm_v5,2020.2.10,MacIntel,60,61025ae37ef11b136ea224fe,,,,,,,,,2847,51.84765625,25.3125,1,0,0,response1disk,,6,10.02734375,5.30859375,1,0,0,rectangle,10.02734375,5.30859375,1,0,0,10.02734375,5.30859375,1,0,0,1,32,192,97,1,,,,,,,,
,,,,,,,,,,,,,FF,,,,,,,,0.3988,,,,,,,,,,,,,,,,,,,,,,60ff83ae7a31ac64e3f71491,61036e39356b38f01ba123d6,2021-07-29_21h14.05.787,Simcolourproject_2stim_asymm_v5,2020.2.10,MacIntel,60,61025ae37ef11b136ea224fe,,,,,,,,,2857,44.81640625,24.24609375,1,0,0,response1disk,,6,11.6171875,0.359375,1,0,0,rectangle,11.6171875,0.359375,1,0,0,11.6171875,0.359375,1,0,0,1,33,193,5,1,,,,,,,,
,,,,,,,,,,,,,FF,,,,,,,,0.4661,,,,,,,,,,,,,,,,,,,,,,60ff83ae7a31ac64e3f71491,61036e39356b38f01ba123d6,2021-07-29_21h14.05.787,Simcolourproject_2stim_asymm_v5,2020.2.10,MacIntel,60,61025ae37ef11b136ea224fe,,,,,,,,,2526,48.05859375,20.8046875,1,0,0,response1disk,,6,6.625,4.40234375,1,0,0,rectangle,6.625,4.40234375,1,0,0,6.625,4.40234375,1,0,0,1,34,194,146,1,,,,,,,,
,,,,,,,,,,,,,FF,,,,,,,,0.4665,,,,,,,,,,,,,,,,,,,,,,60ff83ae7a31ac64e3f71491,61036e39356b38f01ba123d6,2021-07-29_21h14.05.787,Simcolourproject_2stim_asymm_v5,2020.2.10,MacIntel,60,61025ae37ef11b136ea224fe,,,,,,,,,377,44.71484375,29.390625,1,0,0,response1disk,,6,-0.3203125,3.328125,1,0,0,rectangle,-0.3203125,3.328125,1,0,0,-0.3203125,3.328125,1,0,0,1,35,195,112,1,,,,,,,,
,,,,,,,,,,,,,FF,,,,,,,,1.0827,,,,,,,,,,,,,,,,,,,,,,60ff83ae7a31ac64e3f71491,61036e39356b38f01ba123d6,2021-07-29_21h14.05.787,Simcolourproject_2stim_asymm_v5,2020.2.10,MacIntel,60,61025ae37ef11b136ea224fe,,,,,,,,,2817,40.44921875,-22.59375,1,0,0,response3disk,,5,3.90234375,-8.23828125,1,0,0,rectangle,3.90234375,-8.23828125,1,0,0,3.90234375,-8.23828125,1,0,0,1,36,196,138,1,,,,,,,,
,,,,,,,,,,,,,FF,,,,,,,,0.6326,,,,,,,,,,,,,,,,,,,,,,60ff83ae7a31ac64e3f71491,61036e39356b38f01ba123d6,2021-07-29_21h14.05.787,Simcolourproject_2stim_asymm_v5,2020.2.10,MacIntel,60,61025ae37ef11b136ea224fe,,,,,,,,,4355,52.64453125,30.19140625,1,0,0,response1disk,,6,16.0390625,3.65625,1,0,0,rectangle,54.6796875,23,1,0,0,13.84375,-10.421875,1,0,0,1,37,197,88,1,,response1disk_3,TRUE,6,6,"[286,138,51,178,17,200,322,285,15,13,108,278,65,320,33,198,57,46,204,66]",1.5993,rectangle
,,,,,,,,,,,,,FF,,,,,,,,2.0999,,,,,,,,,,,,,,,,,,,,,,60ff83ae7a31ac64e3f71491,61036e39356b38f01ba123d6,2021-07-29_21h14.05.787,Simcolourproject_2stim_asymm_v5,2020.2.10,MacIntel,60,61025ae37ef11b136ea224fe,,,,,,,,,447,19.6953125,-50.3359375,1,0,0,response3disk,,4,-5.28125,-6.98828125,1,0,0,rectangle,-5.28125,-6.98828125,1,0,0,-5.28125,-6.98828125,1,0,0,1,38,198,132,1,,,,,,,,
,,,,,,,,,,,,,FF,,,,,,,,0.6324,,,,,,,,,,,,,,,,,,,,,,60ff83ae7a31ac64e3f71491,61036e39356b38f01ba123d6,2021-07-29_21h14.05.787,Simcolourproject_2stim_asymm_v5,2020.2.10,MacIntel,60,61025ae37ef11b136ea224fe,,,,,,,,,611,16.9765625,-39.79296875,1,0,0,response3disk,,4,5.68359375,8.4375,1,0,0,rectangle,13.68359375,-54.01171875,1,0,0,2.78125,-5.93359375,1,0,0,1,39,199,89,1,,response3disk_3,TRUE,4,4,"[286,138,51,178,17,200,322,285,15,13,108,278,65,320,33,198,57,46,204,66]",1.3993,rectangle
,,,,,,,,,,,,,FF,,,,,,,,6.1495,,,,,,,,,,,,,,,,,,,,,,60ff83ae7a31ac64e3f71491,61036e39356b38f01ba123d6,2021-07-29_21h14.05.787,Simcolourproject_2stim_asymm_v5,2020.2.10,MacIntel,60,61025ae37ef11b136ea224fe,,,,,,,,,2275,-34.734375,-75.72265625,1,0,0,response5disk,,3,-17.12890625,1.0078125,1,0,0,rectangle,-17.12890625,1.0078125,1,0,0,-17.12890625,1.0078125,1,0,0,1,40,200,24,1,,,,,,,,
,,,,,,,,,,,,,FF,,,,,,,,0.7832,,,,,,,,,,,,,,,,,,,,,,60ff83ae7a31ac64e3f71491,61036e39356b38f01ba123d6,2021-07-29_21h14.05.787,Simcolourproject_2stim_asymm_v5,2020.2.10,MacIntel,60,61025ae37ef11b136ea224fe,,,,,,,,,3791,45.7421875,-22.21484375,1,0,0,response3disk,,5,23.2109375,-8.5078125,1,0,0,rectangle,23.2109375,-8.5078125,1,0,0,23.2109375,-8.5078125,1,0,0,1,41,201,121,1,,,,,,,,
,,,,,,,,,,,,,FF,,,,,,,,0.616,,,,,,,,,,,,,,,,,,,,,,60ff83ae7a31ac64e3f71491,61036e39356b38f01ba123d6,2021-07-29_21h14.05.787,Simcolourproject_2stim_asymm_v5,2020.2.10,MacIntel,60,61025ae37ef11b136ea224fe,,,,,,,,,2337,47.6328125,-23.8359375,1,0,0,response3disk,,5,6.57421875,-11.71484375,1,0,0,rectangle,6.57421875,-11.71484375,1,0,0,6.57421875,-11.71484375,1,0,0,1,42,202,109,1,,,,,,,,
,,,,,,,,,,,,,FF,,,,,,,,1.216,,,,,,,,,,,,,,,,,,,,,,60ff83ae7a31ac64e3f71491,61036e39356b38f01ba123d6,2021-07-29_21h14.05.787,Simcolourproject_2stim_asymm_v5,2020.2.10,MacIntel,60,61025ae37ef11b136ea224fe,,,,,,,,,4117,-24.62109375,-55.66015625,1,0,0,response5disk,,3,-21.515625,-14.48046875,1,0,0,rectangle,20.16796875,51.5546875,1,0,0,4.9453125,10.41796875,1,0,0,1,43,203,6,1,,response1disk_3,TRUE,7,7,"[286,138,51,178,17,200,322,285,15,13,108,278,65,320,33,198,57,46,204,66]",1.2501,rectangle
,,,,,,,,,,,,,FF,,,,,,,,0.9169,,,,,,,,,,,,,,,,,,,,,,60ff83ae7a31ac64e3f71491,61036e39356b38f01ba123d6,2021-07-29_21h14.05.787,Simcolourproject_2stim_asymm_v5,2020.2.10,MacIntel,60,61025ae37ef11b136ea224fe,,,,,,,,,709,22.67578125,-38.21484375,1,0,0,response3disk,,4,10.69921875,-0.73828125,1,0,0,rectangle,10.69921875,-0.73828125,1,0,0,10.69921875,-0.73828125,1,0,0,1,44,204,93,1,,,,,,,,
,,,,,,,,,,,,,FF,,,,,,,,0.9164,,,,,,,,,,,,,,,,,,,,,,60ff83ae7a31ac64e3f71491,61036e39356b38f01ba123d6,2021-07-29_21h14.05.787,Simcolourproject_2stim_asymm_v5,2020.2.10,MacIntel,60,61025ae37ef11b136ea224fe,,,,,,,,,3156,-61.578125,-24.32421875,1,0,0,response5disk,,2,3.65234375,-5.0078125,1,0,0,rectangle,3.65234375,-5.0078125,1,0,0,3.65234375,-5.0078125,1,0,0,1,45,205,49,1,,,,,,,,
,,,,,,,,,,,,,FF,,,,,,,,0.9154,,,,,,,,,,,,,,,,,,,,,,60ff83ae7a31ac64e3f71491,61036e39356b38f01ba123d6,2021-07-29_21h14.05.787,Simcolourproject_2stim_asymm_v5,2020.2.10,MacIntel,60,61025ae37ef11b136ea224fe,,,,,,,,,1235,18.89453125,-54.01953125,1,0,0,response3disk,,4,18.640625,9.98046875,1,0,0,rectangle,18.640625,9.98046875,1,0,0,18.640625,9.98046875,1,0,0,1,46,206,70,1,,,,,,,,
,,,,,,,,,,,,,FF,,,,,,,,0.95,,,,,,,,,,,,,,,,,,,,,,60ff83ae7a31ac64e3f71491,61036e39356b38f01ba123d6,2021-07-29_21h14.05.787,Simcolourproject_2stim_asymm_v5,2020.2.10,MacIntel,60,61025ae37ef11b136ea224fe,,,,,,,,,4192,55.20703125,21.4921875,1,0,0,response1disk,,6,13.40234375,11.13671875,1,0,0,rectangle,13.40234375,11.13671875,1,0,0,13.40234375,11.13671875,1,0,0,1,47,207,158,1,,,,,,,,
,,,,,,,,,,,,,FF,,,,,,,,0.5012,,,,,,,,,,,,,,,,,,,,,,60ff83ae7a31ac64e3f71491,61036e39356b38f01ba123d6,2021-07-29_21h14.05.787,Simcolourproject_2stim_asymm_v5,2020.2.10,MacIntel,60,61025ae37ef11b136ea224fe,,,,,,,,,558,38.359375,21.09375,1,0,0,response1disk,,6,13.01953125,10.32421875,1,0,0,rectangle,13.01953125,10.32421875,1,0,0,13.01953125,10.32421875,1,0,0,1,48,208,106,1,,,,,,,,
,,,,,,,,,,,,,FF,,,,,,,,0.6664,,,,,,,,,,,,,,,,,,,,,,60ff83ae7a31ac64e3f71491,61036e39356b38f01ba123d6,2021-07-29_21h14.05.787,Simcolourproject_2stim_asymm_v5,2020.2.10,MacIntel,60,61025ae37ef11b136ea224fe,,,,,,,,,2328,39.234375,-21.125,1,0,0,response3disk,,5,2.4140625,-9.62890625,1,0,0,rectangle,2.4140625,-9.62890625,1,0,0,2.4140625,-9.62890625,1,0,0,1,49,209,53,1,,,,,,,,
,,,,,,,,,,,,,FF,,,,,,,,1.0168,,,,,,,,,,,,,,,,,,,,,,60ff83ae7a31ac64e3f71491,61036e39356b38f01ba123d6,2021-07-29_21h14.05.787,Simcolourproject_2stim_asymm_v5,2020.2.10,MacIntel,60,61025ae37ef11b136ea224fe,,,,,,,,,3913,-50.99609375,-30.97265625,1,0,0,response5disk,,2,9.26171875,-10.7890625,1,0,0,rectangle,9.26171875,-10.7890625,1,0,0,9.26171875,-10.7890625,1,0,0,1,50,210,153,1,,,,,,,,
,,,,,,,,,,,,,FF,,,,,,,,1.135,,,,,,,,,,,,,,,,,,,,,,60ff83ae7a31ac64e3f71491,61036e39356b38f01ba123d6,2021-07-29_21h14.05.787,Simcolourproject_2stim_asymm_v5,2020.2.10,MacIntel,60,61025ae37ef11b136ea224fe,,,,,,,,,4308,-19.9765625,-54.19140625,1,0,0,response5disk,,3,-7.98046875,1.546875,1,0,0,rectangle,-7.98046875,1.546875,1,0,0,-7.98046875,1.546875,1,0,0,1,51,211,43,1,,,,,,,,
,,,,,,,,,,,,,FF,,,,,,,,0.8334,,,,,,,,,,,,,,,,,,,,,,60ff83ae7a31ac64e3f71491,61036e39356b38f01ba123d6,2021-07-29_21h14.05.787,Simcolourproject_2stim_asymm_v5,2020.2.10,MacIntel,60,61025ae37ef11b136ea224fe,,,,,,,,,1984,59.48828125,29.34765625,1,0,0,response1disk,,6,5.44140625,4.6875,1,0,0,rectangle,5.44140625,4.6875,1,0,0,5.44140625,4.6875,1,0,0,1,52,212,0,1,,,,,,,,
,,,,,,,,,,,,,FF,,,,,,,,0.4162,,,,,,,,,,,,,,,,,,,,,,60ff83ae7a31ac64e3f71491,61036e39356b38f01ba123d6,2021-07-29_21h14.05.787,Simcolourproject_2stim_asymm_v5,2020.2.10,MacIntel,60,61025ae37ef11b136ea224fe,,,,,,,,,2964,53.1796875,18.453125,1,0,0,response1disk,,6,8.8984375,1.2421875,1,0,0,rectangle,8.8984375,1.2421875,1,0,0,8.8984375,1.2421875,1,0,0,1,53,213,9,1,,,,,,,,
,,,,,,,,,,,,,FF,,,,,,,,0.6015,,,,,,,,,,,,,,,,,,,,,,60ff83ae7a31ac64e3f71491,61036e39356b38f01ba123d6,2021-07-29_21h14.05.787,Simcolourproject_2stim_asymm_v5,2020.2.10,MacIntel,60,61025ae37ef11b136ea224fe,,,,,,,,,1978,48.8984375,-20.95703125,1,0,0,response3disk,,5,-5.6875,-14.19921875,1,0,0,rectangle,-5.6875,-14.19921875,1,0,0,-5.6875,-14.19921875,1,0,0,1,54,214,131,1,,,,,,,,
,,,,,,,,,,,,,FF,,,,,,,,0.9334,,,,,,,,,,,,,,,,,,,,,,60ff83ae7a31ac64e3f71491,61036e39356b38f01ba123d6,2021-07-29_21h14.05.787,Simcolourproject_2stim_asymm_v5,2020.2.10,MacIntel,60,61025ae37ef11b136ea224fe,,,,,,,,,1238,37.3203125,-21.96875,1,0,0,response3disk,,5,1.10546875,-7.2421875,1,0,0,rectangle,1.10546875,-7.2421875,1,0,0,1.10546875,-7.2421875,1,0,0,1,55,215,13,1,,,,,,,,
,,,,,,,,,,,,,FF,,,,,,,,0.8345,,,,,,,,,,,,,,,,,,,,,,60ff83ae7a31ac64e3f71491,61036e39356b38f01ba123d6,2021-07-29_21h14.05.787,Simcolourproject_2stim_asymm_v5,2020.2.10,MacIntel,60,61025ae37ef11b136ea224fe,,,,,,,,,3910,-26.65234375,-60.3203125,1,0,0,response5disk,,3,-19.0234375,-12.09765625,1,0,0,rectangle,-19.0234375,-12.09765625,1,0,0,-19.0234375,-12.09765625,1,0,0,1,56,216,73,1,,,,,,,,
,,,,,,,,,,,,,FF,,,,,,,,0.7665,,,,,,,,,,,,,,,,,,,,,,60ff83ae7a31ac64e3f71491,61036e39356b38f01ba123d6,2021-07-29_21h14.05.787,Simcolourproject_2stim_asymm_v5,2020.2.10,MacIntel,60,61025ae37ef11b136ea224fe,,,,,,,,,3448,46.71484375,16.92578125,1,0,0,response1disk,,6,-19.25,-7.35546875,1,0,0,rectangle,-19.25,-7.35546875,1,0,0,-19.25,-7.35546875,1,0,0,1,57,217,99,1,,,,,,,,
,,,,,,,,,,,,,FF,,,,,,,,0.5162,,,,,,,,,,,,,,,,,,,,,,60ff83ae7a31ac64e3f71491,61036e39356b38f01ba123d6,2021-07-29_21h14.05.787,Simcolourproject_2stim_asymm_v5,2020.2.10,MacIntel,60,61025ae37ef11b136ea224fe,,,,,,,,,2117,24.8046875,28.66015625,1,0,0,response1disk,,7,-6.89453125,-1.71484375,1,0,0,rectangle,-6.89453125,-1.71484375,1,0,0,-6.89453125,-1.71484375,1,0,0,1,58,218,111,1,,,,,,,,
,,,,,,,,,,,,,FF,,,,,,,,0.7336,,,,,,,,,,,,,,,,,,,,,,60ff83ae7a31ac64e3f71491,61036e39356b38f01ba123d6,2021-07-29_21h14.05.787,Simcolourproject_2stim_asymm_v5,2020.2.10,MacIntel,60,61025ae37ef11b136ea224fe,,,,,,,,,2062,25.21875,-52.65625,1,0,0,response3disk,,4,10.9140625,3.33203125,1,0,0,rectangle,10.9140625,3.33203125,1,0,0,10.9140625,3.33203125,1,0,0,1,59,219,39,1,,,,,,,,
,,,,,,,,,,,,,FF,,,,,,,,0.6673,,,,,,,,,,,,,,,,,,,,,,60ff83ae7a31ac64e3f71491,61036e39356b38f01ba123d6,2021-07-29_21h14.05.787,Simcolourproject_2stim_asymm_v5,2020.2.10,MacIntel,60,61025ae37ef11b136ea224fe,,,,,,,,,1690,-21.08203125,-55.2265625,1,0,0,response5disk,,3,-17.8125,-4.28515625,1,0,0,rectangle,-17.8125,-4.28515625,1,0,0,-17.8125,-4.28515625,1,0,0,1,60,220,11,1,,,,,,,,
,,,,,,,,,,,,,FF,,,,,,,,0.5332,,,,,,,,,,,,,,,,,,,,,,60ff83ae7a31ac64e3f71491,61036e39356b38f01ba123d6,2021-07-29_21h14.05.787,Simcolourproject_2stim_asymm_v5,2020.2.10,MacIntel,60,61025ae37ef11b136ea224fe,,,,,,,,,982,-28.23828125,-45.8203125,1,0,0,response5disk,,3,-16.96484375,-11.5625,1,0,0,rectangle,-16.96484375,-11.5625,1,0,0,-16.96484375,-11.5625,1,0,0,1,61,221,37,1,,,,,,,,
,,,,,,,,,,,,,FF,,,,,,,,1.453,,,,,,,,,,,,,,,,,,,,,,60ff83ae7a31ac64e3f71491,61036e39356b38f01ba123d6,2021-07-29_21h14.05.787,Simcolourproject_2stim_asymm_v5,2020.2.10,MacIntel,60,61025ae37ef11b136ea224fe,,,,,,,,,3939,-17.73828125,-43.87890625,1,0,0,response5disk,,3,-4.98046875,-5.4921875,1,0,0,rectangle,-4.98046875,-5.4921875,1,0,0,-4.98046875,-5.4921875,1,0,0,1,62,222,119,1,,,,,,,,
,,,,,,,,,,,,,FF,,,,,,,,0.7178,,,,,,,,,,,,,,,,,,,,,,60ff83ae7a31ac64e3f71491,61036e39356b38f01ba123d6,2021-07-29_21h14.05.787,Simcolourproject_2stim_asymm_v5,2020.2.10,MacIntel,60,61025ae37ef11b136ea224fe,,,,,,,,,1994,-33.42578125,-46.76953125,1,0,0,response5disk,,3,-10.453125,0.5390625,1,0,0,rectangle,-10.453125,0.5390625,1,0,0,-10.453125,0.5390625,1,0,0,1,63,223,117,1,,,,,,,,
,,,,,,,,,,,,,FF,,,,,,,,0.715,,,,,,,,,,,,,,,,,,,,,,60ff83ae7a31ac64e3f71491,61036e39356b38f01ba123d6,2021-07-29_21h14.05.787,Simcolourproject_2stim_asymm_v5,2020.2.10,MacIntel,60,61025ae37ef11b136ea224fe,,,,,,,,,1986,11.32421875,-45.9375,1,0,0,response3disk,,4,11.32421875,2.7109375,1,0,0,rectangle,11.32421875,2.7109375,1,0,0,11.32421875,2.7109375,1,0,0,1,64,224,20,1,,,,,,,,
,,,,,,,,,,,,,FF,,,,,,,,0.5991,,,,,,,,,,,,,,,,,,,,,,60ff83ae7a31ac64e3f71491,61036e39356b38f01ba123d6,2021-07-29_21h14.05.787,Simcolourproject_2stim_asymm_v5,2020.2.10,MacIntel,60,61025ae37ef11b136ea224fe,,,,,,,,,449,30.38671875,-46.04296875,1,0,0,response3disk,,4,18.62890625,-11.44921875,1,0,0,rectangle,18.62890625,-11.44921875,1,0,0,18.62890625,-11.44921875,1,0,0,1,65,225,147,1,,,,,,,,
,,,,,,,,,,,,,FF,,,,,,,,0.5492,,,,,,,,,,,,,,,,,,,,,,60ff83ae7a31ac64e3f71491,61036e39356b38f01ba123d6,2021-07-29_21h14.05.787,Simcolourproject_2stim_asymm_v5,2020.2.10,MacIntel,60,61025ae37ef11b136ea224fe,,,,,,,,,4103,17.046875,-69.8203125,1,0,0,response3disk,,4,5.4609375,-8.15234375,1,0,0,rectangle,5.4609375,-8.15234375,1,0,0,5.4609375,-8.15234375,1,0,0,1,66,226,74,1,,,,,,,,
,,,,,,,,,,,,,FF,,,,,,,,2.0675,,,,,,,,,,,,,,,,,,,,,,60ff83ae7a31ac64e3f71491,61036e39356b38f01ba123d6,2021-07-29_21h14.05.787,Simcolourproject_2stim_asymm_v5,2020.2.10,MacIntel,60,61025ae37ef11b136ea224fe,,,,,,,,,2306,34.203125,17.2890625,1,0,0,response1disk,,6,0.765625,-3.27734375,1,0,0,rectangle,0.765625,-3.27734375,1,0,0,0.765625,-3.27734375,1,0,0,1,67,227,98,1,,,,,,,,
,,,,,,,,,,,,,FF,,,,,,,,0.6153,,,,,,,,,,,,,,,,,,,,,,60ff83ae7a31ac64e3f71491,61036e39356b38f01ba123d6,2021-07-29_21h14.05.787,Simcolourproject_2stim_asymm_v5,2020.2.10,MacIntel,60,61025ae37ef11b136ea224fe,,,,,,,,,3845,34.7890625,16.1875,1,0,0,response1disk,,6,16.3125,0.94140625,1,0,0,rectangle,16.3125,0.94140625,1,0,0,16.3125,0.94140625,1,0,0,1,68,228,82,1,,,,,,,,
,,,,,,,,,,,,,FF,,,,,,,,0.7514,,,,,,,,,,,,,,,,,,,,,,60ff83ae7a31ac64e3f71491,61036e39356b38f01ba123d6,2021-07-29_21h14.05.787,Simcolourproject_2stim_asymm_v5,2020.2.10,MacIntel,60,61025ae37ef11b136ea224fe,,,,,,,,,327,-17.14453125,-46.3046875,1,0,0,response5disk,,3,-15.80859375,-4.35546875,1,0,0,rectangle,-15.80859375,-4.35546875,1,0,0,-15.80859375,-4.35546875,1,0,0,1,69,229,38,1,,,,,,,,
,,,,,,,,,,,,,FF,,,,,,,,0.5328,,,,,,,,,,,,,,,,,,,,,,60ff83ae7a31ac64e3f71491,61036e39356b38f01ba123d6,2021-07-29_21h14.05.787,Simcolourproject_2stim_asymm_v5,2020.2.10,MacIntel,60,61025ae37ef11b136ea224fe,,,,,,,,,2312,29.21875,-44.60546875,1,0,0,response3disk,,4,16.140625,-3.26171875,1,0,0,rectangle,16.140625,-3.26171875,1,0,0,16.140625,-3.26171875,1,0,0,1,70,230,68,1,,,,,,,,
,,,,,,,,,,,,,FF,,,,,,,,1.2668,,,,,,,,,,,,,,,,,,,,,,60ff83ae7a31ac64e3f71491,61036e39356b38f01ba123d6,2021-07-29_21h14.05.787,Simcolourproject_2stim_asymm_v5,2020.2.10,MacIntel,60,61025ae37ef11b136ea224fe,,,,,,,,,1820,-45.984375,-54.4375,1,0,0,response5disk,,3,-17.48828125,1.7890625,1,0,0,rectangle,-17.48828125,1.7890625,1,0,0,-17.48828125,1.7890625,1,0,0,1,71,231,113,1,,,,,,,,
,,,,,,,,,,,,,FF,,,,,,,,1.3165,,,,,,,,,,,,,,,,,,,,,,60ff83ae7a31ac64e3f71491,61036e39356b38f01ba123d6,2021-07-29_21h14.05.787,Simcolourproject_2stim_asymm_v5,2020.2.10,MacIntel,60,61025ae37ef11b136ea224fe,,,,,,,,,2349,-38.4453125,-56.609375,1,0,0,response5disk,,3,-15.08203125,-0.6796875,1,0,0,rectangle,-15.08203125,-0.6796875,1,0,0,-15.08203125,-0.6796875,1,0,0,1,72,232,80,1,,,,,,,,
,,,,,,,,,,,,,FF,,,,,,,,0.9986,,,,,,,,,,,,,,,,,,,,,,60ff83ae7a31ac64e3f71491,61036e39356b38f01ba123d6,2021-07-29_21h14.05.787,Simcolourproject_2stim_asymm_v5,2020.2.10,MacIntel,60,61025ae37ef11b136ea224fe,,,,,,,,,123,32.47265625,38.8359375,1,0,0,response1disk,,7,0.7421875,-3.23046875,1,0,0,rectangle,0.7421875,-3.23046875,1,0,0,0.7421875,-3.23046875,1,0,0,1,73,233,91,1,,,,,,,,
,,,,,,,,,,,,,FF,,,,,,,,1.3008,,,,,,,,,,,,,,,,,,,,,,60ff83ae7a31ac64e3f71491,61036e39356b38f01ba123d6,2021-07-29_21h14.05.787,Simcolourproject_2stim_asymm_v5,2020.2.10,MacIntel,60,61025ae37ef11b136ea224fe,,,,,,,,,439,-23.08984375,-53.30859375,1,0,0,response5disk,,3,-10.734375,9.08984375,1,0,0,rectangle,-10.734375,9.08984375,1,0,0,-10.734375,9.08984375,1,0,0,1,74,234,127,1,,,,,,,,
,,,,,,,,,,,,,FF,,,,,,,,0.4498,,,,,,,,,,,,,,,,,,,,,,60ff83ae7a31ac64e3f71491,61036e39356b38f01ba123d6,2021-07-29_21h14.05.787,Simcolourproject_2stim_asymm_v5,2020.2.10,MacIntel,60,61025ae37ef11b136ea224fe,,,,,,,,,1925,-48.625,-40.15234375,1,0,0,response5disk,,2,-5.15234375,7.859375,1,0,0,rectangle,-5.15234375,7.859375,1,0,0,-5.15234375,7.859375,1,0,0,1,75,235,10,1,,,,,,,,
,,,,,,,,,,,,,FF,,,,,,,,1.6335,,,,,,,,,,,,,,,,,,,,,,60ff83ae7a31ac64e3f71491,61036e39356b38f01ba123d6,2021-07-29_21h14.05.787,Simcolourproject_2stim_asymm_v5,2020.2.10,MacIntel,60,61025ae37ef11b136ea224fe,,,,,,,,,1754,-26.8515625,-28.21484375,1,0,0,response5disk,,3,-18.97265625,12.8203125,1,0,0,rectangle,-18.97265625,12.8203125,1,0,0,-18.97265625,12.8203125,1,0,0,1,76,236,155,1,,,,,,,,
,,,,,,,,,,,,,FF,,,,,,,,0.5835,,,,,,,,,,,,,,,,,,,,,,60ff83ae7a31ac64e3f71491,61036e39356b38f01ba123d6,2021-07-29_21h14.05.787,Simcolourproject_2stim_asymm_v5,2020.2.10,MacIntel,60,61025ae37ef11b136ea224fe,,,,,,,,,1974,44.16015625,-15.30859375,1,0,0,response3disk,,5,-1.34375,7.05078125,1,0,0,rectangle,-1.34375,7.05078125,1,0,0,-1.34375,7.05078125,1,0,0,1,77,237,81,1,,,,,,,,
,,,,,,,,,,,,,FF,,,,,,,,0.6826,,,,,,,,,,,,,,,,,,,,,,60ff83ae7a31ac64e3f71491,61036e39356b38f01ba123d6,2021-07-29_21h14.05.787,Simcolourproject_2stim_asymm_v5,2020.2.10,MacIntel,60,61025ae37ef11b136ea224fe,,,,,,,,,4297,27.29296875,-41.80859375,1,0,0,response3disk,,4,12.69140625,-0.48046875,1,0,0,rectangle,12.69140625,-0.48046875,1,0,0,12.69140625,-0.48046875,1,0,0,1,78,238,108,1,,,,,,,,
,,,,,,,,,,,,,FF,,,,,,,,0.9508,,,,,,,,,,,,,,,,,,,,,,60ff83ae7a31ac64e3f71491,61036e39356b38f01ba123d6,2021-07-29_21h14.05.787,Simcolourproject_2stim_asymm_v5,2020.2.10,MacIntel,60,61025ae37ef11b136ea224fe,,,,,,,,,2890,-58.90625,-36.34765625,1,0,0,response5disk,,2,10.17578125,-2.58984375,1,0,0,rectangle,10.17578125,-2.58984375,1,0,0,10.17578125,-2.58984375,1,0,0,1,79,239,94,1,,,,,,,,
,,,,,,,,,,,,,FF,,,,,,,,0.784,,,,,,,,,,,,,,,,,,,,,,60ff83ae7a31ac64e3f71491,61036e39356b38f01ba123d6,2021-07-29_21h14.05.787,Simcolourproject_2stim_asymm_v5,2020.2.10,MacIntel,60,61025ae37ef11b136ea224fe,,,,,,,,,1252,22.5703125,-47.25390625,1,0,0,response3disk,,4,12.27734375,3.18359375,1,0,0,rectangle,12.27734375,3.18359375,1,0,0,12.27734375,3.18359375,1,0,0,1,80,240,15,1,,,,,,,,
,,,,,,,,,,,,,FF,,,,,,,,1.1505,,,,,,,,,,,,,,,,,,,,,,60ff83ae7a31ac64e3f71491,61036e39356b38f01ba123d6,2021-07-29_21h14.05.787,Simcolourproject_2stim_asymm_v5,2020.2.10,MacIntel,60,61025ae37ef11b136ea224fe,,,,,,,,,3220,38.41015625,-20.25,1,0,0,response3disk,,5,9.9453125,-14.46484375,1,0,0,rectangle,9.9453125,-14.46484375,1,0,0,9.9453125,-14.46484375,1,0,0,1,81,241,107,1,,,,,,,,
,,,,,,,,,,,,,FF,,,,,,,,1.4508,,,,,,,,,,,,,,,,,,,,,,60ff83ae7a31ac64e3f71491,61036e39356b38f01ba123d6,2021-07-29_21h14.05.787,Simcolourproject_2stim_asymm_v5,2020.2.10,MacIntel,60,61025ae37ef11b136ea224fe,,,,,,,,,3515,-58.62109375,-26.109375,1,0,0,response5disk,,2,1.39453125,-3.9453125,1,0,0,rectangle,1.39453125,-3.9453125,1,0,0,1.39453125,-3.9453125,1,0,0,1,82,242,29,1,,,,,,,,
,,,,,,,,,,,,,FF,,,,,,,,0.5336,,,,,,,,,,,,,,,,,,,,,,60ff83ae7a31ac64e3f71491,61036e39356b38f01ba123d6,2021-07-29_21h14.05.787,Simcolourproject_2stim_asymm_v5,2020.2.10,MacIntel,60,61025ae37ef11b136ea224fe,,,,,,,,,1028,48.1484375,-28.8828125,1,0,0,response3disk,,5,10.609375,-8.77734375,1,0,0,rectangle,10.609375,-8.77734375,1,0,0,10.609375,-8.77734375,1,0,0,1,83,243,126,1,,,,,,,,
,,,,,,,,,,,,,FF,,,,,,,,0.7343,,,,,,,,,,,,,,,,,,,,,,60ff83ae7a31ac64e3f71491,61036e39356b38f01ba123d6,2021-07-29_21h14.05.787,Simcolourproject_2stim_asymm_v5,2020.2.10,MacIntel,60,61025ae37ef11b136ea224fe,,,,,,,,,3458,37.57421875,25.34765625,1,0,0,response1disk,,6,11.73046875,6.3125,1,0,0,rectangle,11.73046875,6.3125,1,0,0,11.73046875,6.3125,1,0,0,1,84,244,36,1,,,,,,,,
,,,,,,,,,,,,,FF,,,,,,,,0.7341,,,,,,,,,,,,,,,,,,,,,,60ff83ae7a31ac64e3f71491,61036e39356b38f01ba123d6,2021-07-29_21h14.05.787,Simcolourproject_2stim_asymm_v5,2020.2.10,MacIntel,60,61025ae37ef11b136ea224fe,,,,,,,,,4370,-24.62109375,40.85546875,1,0,0,response7disk,,0,-19.2890625,-1.18359375,1,0,0,rectangle,-19.2890625,-1.18359375,1,0,0,-19.2890625,-1.18359375,1,0,0,1,85,245,26,1,,,,,,,,
,,,,,,,,,,,,,FF,,,,,,,,2.5332,,,,,,,,,,,,,,,,,,,,,,60ff83ae7a31ac64e3f71491,61036e39356b38f01ba123d6,2021-07-29_21h14.05.787,Simcolourproject_2stim_asymm_v5,2020.2.10,MacIntel,60,61025ae37ef11b136ea224fe,,,,,,,,,197,-31.5,-52.86328125,1,0,0,response5disk,,3,-14.94140625,5.8515625,1,0,0,rectangle,-14.94140625,5.8515625,1,0,0,-14.94140625,5.8515625,1,0,0,1,86,246,159,1,,,,,,,,
,,,,,,,,,,,,,FF,,,,,,,,2.5016,,,,,,,,,,,,,,,,,,,,,,60ff83ae7a31ac64e3f71491,61036e39356b38f01ba123d6,2021-07-29_21h14.05.787,Simcolourproject_2stim_asymm_v5,2020.2.10,MacIntel,60,61025ae37ef11b136ea224fe,,,,,,,,,1966,30.19921875,17.09375,1,0,0,response1disk,,6,0.265625,10.15234375,1,0,0,rectangle,0.265625,10.15234375,1,0,0,0.265625,10.15234375,1,0,0,1,87,247,150,1,,,,,,,,
,,,,,,,,,,,,,FF,,,,,,,,0.6654,,,,,,,,,,,,,,,,,,,,,,60ff83ae7a31ac64e3f71491,61036e39356b38f01ba123d6,2021-07-29_21h14.05.787,Simcolourproject_2stim_asymm_v5,2020.2.10,MacIntel,60,61025ae37ef11b136ea224fe,,,,,,,,,3602,-47.3984375,-22.48828125,1,0,0,response5disk,,2,-4.91015625,7.53125,1,0,0,rectangle,-4.91015625,7.53125,1,0,0,-4.91015625,7.53125,1,0,0,1,88,248,27,1,,,,,,,,
