key_resp.keys,key_resp.rt,key_resp_14.keys,key_resp_14.rt,key_resp_15.keys,key_resp_15.rt,key_resp_17.keys,key_resp_17.rt,key_resp_9.keys,key_resp_9.rt,key_resp_10.keys,key_resp_10.rt,practice_comparison,Ecc,mouse_5.x,mouse_5.y,mouse_5.leftButton,mouse_5.midButton,mouse_5.rightButton,mouse_5.clicked_name,pracsimilarity,response_time,mouse_10.x,mouse_10.y,mouse_10.leftButton,mouse_10.midButton,mouse_10.rightButton,mouse_10.clicked_name,mouse_7.x,mouse_7.y,mouse_7.leftButton,mouse_7.midButton,mouse_7.rightButton,mouse_6.x,mouse_6.y,mouse_6.leftButton,mouse_6.midButton,mouse_6.rightButton,duringprac.thisRepN,duringprac.thisTrialN,duringprac.thisN,duringprac.thisIndex,duringprac.ran,participant,session,date,expName,psychopyVersion,OS,frameRate,study_id,mouse_7.clicked_name,catchpracsimilarity,catch_response_time,catchnumberprac,catchtrialorderprac,mouse_6.clicked_name,key_resp_22.keys,key_resp_22.rt,realcomparison,mouse.x,mouse.y,mouse.leftButton,mouse.midButton,mouse.rightButton,mouse.clicked_name,Colour2,similarity,mouse_2.x,mouse_2.y,mouse_2.leftButton,mouse_2.midButton,mouse_2.rightButton,mouse_2.clicked_name,mouse_3.x,mouse_3.y,mouse_3.leftButton,mouse_3.midButton,mouse_3.rightButton,mouse_11.x,mouse_11.y,mouse_11.leftButton,mouse_11.midButton,mouse_11.rightButton,trials_2.thisRepN,trials_2.thisTrialN,trials_2.thisN,trials_2.thisIndex,trials_2.ran,Colour1,mouse_3.clicked_name,catchornah,catchsimilarity,catchnumber,catchtrialorder,catchRT,mouse_11.clicked_name
space,1.9281,space,6.2673,space,9.384,space,2.8901,space,2.7362,space,6.7802,8,PF,63.62017822,-93.6048584,1,0,0,response3disk_5,4,9.1002,1.888977051,-2.141052246,1,0,0,rectangle_8,1.888977051,-2.141052246,1,0,0,1.888977051,-2.141052246,1,0,0,0,0,0,4,1,60ff221ab776efc77fa7bcb7,61036f408996f1bc35b6ffd3,2021-07-29_23h17.56.875,Simcolourproject_2stim_asymm_v5,2020.2.10,Linux x86_64,60,61025ae37ef11b136ea224fe,,,,,,,,,,,,,,,,,,,,,,,,,,,,,,,,,,,,,,,,,,,,,,
,,,,,,,,,,,,103,PF,-25.3147583,-92.07824707,1,0,0,response5disk_5,3,5.3317,12.89355469,9.4559021,1,0,0,rectangle_8,-97.52349854,29.58901978,1,0,0,0.074584961,0.487854004,1,0,0,0,1,1,2,1,60ff221ab776efc77fa7bcb7,61036f408996f1bc35b6ffd3,2021-07-29_23h17.56.875,Simcolourproject_2stim_asymm_v5,2020.2.10,Linux x86_64,60,61025ae37ef11b136ea224fe,response7disk_7,1,17.3505,1,"[2,5]",rectangle_4,,,,,,,,,,,,,,,,,,,,,,,,,,,,,,,,,,,,,,,,
,,,,,,,,,,,,143,PF,88.34442139,-34.73291016,1,0,0,response3disk_5,5,22.1307,13.84899902,-6.908050537,1,0,0,rectangle_8,13.84899902,-6.908050537,1,0,0,13.84899902,-6.908050537,1,0,0,0,2,2,6,1,60ff221ab776efc77fa7bcb7,61036f408996f1bc35b6ffd3,2021-07-29_23h17.56.875,Simcolourproject_2stim_asymm_v5,2020.2.10,Linux x86_64,60,61025ae37ef11b136ea224fe,,,,,,,,,,,,,,,,,,,,,,,,,,,,,,,,,,,,,,,,,,,,,,
,,,,,,,,,,,,101,FF,60.22753906,-83.22195435,1,0,0,response3disk_5,4,10.7161,10.64453125,5.887786865,1,0,0,rectangle_8,10.64453125,5.887786865,1,0,0,10.64453125,5.887786865,1,0,0,0,3,3,3,1,60ff221ab776efc77fa7bcb7,61036f408996f1bc35b6ffd3,2021-07-29_23h17.56.875,Simcolourproject_2stim_asymm_v5,2020.2.10,Linux x86_64,60,61025ae37ef11b136ea224fe,,,,,,,,,,,,,,,,,,,,,,,,,,,,,,,,,,,,,,,,,,,,,,
,,,,,,,,,,,,26,PF,88.99932861,43.07861328,1,0,0,response1disk_5,6,3.6325,5.761108398,-7.508636475,1,0,0,rectangle_8,-58.4699707,30.67254639,1,0,0,2.193603516,-1.078460693,1,0,0,0,4,4,1,1,60ff221ab776efc77fa7bcb7,61036f408996f1bc35b6ffd3,2021-07-29_23h17.56.875,Simcolourproject_2stim_asymm_v5,2020.2.10,Linux x86_64,60,61025ae37ef11b136ea224fe,response7disk_7,1,2.899,1,"[2,5]",rectangle_4,,,,,,,,,,,,,,,,,,,,,,,,,,,,,,,,,,,,,,,,
,,,,,,,,,,,,132,FF,24.55444336,-106.0146179,1,0,0,response3disk_5,4,7.8659,-2.158630371,3.764984131,1,0,0,rectangle_8,-2.158630371,3.764984131,1,0,0,-2.158630371,3.764984131,1,0,0,0,5,5,0,1,60ff221ab776efc77fa7bcb7,61036f408996f1bc35b6ffd3,2021-07-29_23h17.56.875,Simcolourproject_2stim_asymm_v5,2020.2.10,Linux x86_64,60,61025ae37ef11b136ea224fe,,,,,,,,,,,,,,,,,,,,,,,,,,,,,,,,,,,,,,,,,,,,,,
,,,,,,,,,,,,93,FF,21.18206787,-92.48010254,1,0,0,response3disk_5,4,30.3659,5.87512207,-3.079376221,1,0,0,rectangle_8,5.87512207,-3.079376221,1,0,0,5.87512207,-3.079376221,1,0,0,0,6,6,5,1,60ff221ab776efc77fa7bcb7,61036f408996f1bc35b6ffd3,2021-07-29_23h17.56.875,Simcolourproject_2stim_asymm_v5,2020.2.10,Linux x86_64,60,61025ae37ef11b136ea224fe,,,,,,,,,,,,,,,,,,,,,,,,,,,,,,,,,,,,,,,,,,,,,,
,,,,,,,,,,,,,FF,,,,,,,,6.1851,,,,,,,,,,,,,,,,,,,,,,60ff221ab776efc77fa7bcb7,61036f408996f1bc35b6ffd3,2021-07-29_23h17.56.875,Simcolourproject_2stim_asymm_v5,2020.2.10,Linux x86_64,60,61025ae37ef11b136ea224fe,,,,,,,space,3.4971,498,-44.4977417,-105.4989929,1,0,0,response5disk,,3,3.492675781,4.260284424,1,0,0,rectangle,3.492675781,4.260284424,1,0,0,3.492675781,4.260284424,1,0,0,0,0,0,154,1,,,,,,,,
,,,,,,,,,,,,,FF,,,,,,,,8.0818,,,,,,,,,,,,,,,,,,,,,,60ff221ab776efc77fa7bcb7,61036f408996f1bc35b6ffd3,2021-07-29_23h17.56.875,Simcolourproject_2stim_asymm_v5,2020.2.10,Linux x86_64,60,61025ae37ef11b136ea224fe,,,,,,,,,4148,22.24053955,-94.92880249,1,0,0,response3disk,,4,-6.448242188,0.325531006,1,0,0,rectangle,-6.448242188,0.325531006,1,0,0,-6.448242188,0.325531006,1,0,0,0,1,1,14,1,,,,,,,,
,,,,,,,,,,,,,FF,,,,,,,,6.3709,,,,,,,,,,,,,,,,,,,,,,60ff221ab776efc77fa7bcb7,61036f408996f1bc35b6ffd3,2021-07-29_23h17.56.875,Simcolourproject_2stim_asymm_v5,2020.2.10,Linux x86_64,60,61025ae37ef11b136ea224fe,,,,,,,,,878,81.699646,-53.19415283,1,0,0,response3disk,,5,0.079772949,-2.774810791,1,0,0,rectangle,63.92034912,-86.37625122,1,0,0,-10.05059814,12.23910522,1,0,0,0,2,2,127,1,,response3disk_3,TRUE,4,4,"[38,76,319,281,3,39,286,308,126,59,125,293,155,166,37,15,306,151,214,192]",3.0805,rectangle
,,,,,,,,,,,,,FF,,,,,,,,3.3496,,,,,,,,,,,,,,,,,,,,,,60ff221ab776efc77fa7bcb7,61036f408996f1bc35b6ffd3,2021-07-29_23h17.56.875,Simcolourproject_2stim_asymm_v5,2020.2.10,Linux x86_64,60,61025ae37ef11b136ea224fe,,,,,,,,,2431,-43.70159912,-100.3371887,1,0,0,response5disk,,3,23.26922607,-0.90637207,1,0,0,rectangle,23.26922607,-0.90637207,1,0,0,23.26922607,-0.90637207,1,0,0,0,3,3,75,1,,,,,,,,
,,,,,,,,,,,,,FF,,,,,,,,4.147,,,,,,,,,,,,,,,,,,,,,,60ff221ab776efc77fa7bcb7,61036f408996f1bc35b6ffd3,2021-07-29_23h17.56.875,Simcolourproject_2stim_asymm_v5,2020.2.10,Linux x86_64,60,61025ae37ef11b136ea224fe,,,,,,,,,2816,103.0567017,38.8661499,1,0,0,response1disk,,6,-11.02740479,-2.303039551,1,0,0,rectangle,-11.02740479,-2.303039551,1,0,0,-11.02740479,-2.303039551,1,0,0,0,4,4,95,1,,,,,,,,
,,,,,,,,,,,,,FF,,,,,,,,1.5668,,,,,,,,,,,,,,,,,,,,,,60ff221ab776efc77fa7bcb7,61036f408996f1bc35b6ffd3,2021-07-29_23h17.56.875,Simcolourproject_2stim_asymm_v5,2020.2.10,Linux x86_64,60,61025ae37ef11b136ea224fe,,,,,,,,,3319,74.47595215,38.59362793,1,0,0,response1disk,,6,5.871520996,1.861572266,1,0,0,rectangle,5.871520996,1.861572266,1,0,0,5.871520996,1.861572266,1,0,0,0,5,5,19,1,,,,,,,,
,,,,,,,,,,,,,FF,,,,,,,,2.4155,,,,,,,,,,,,,,,,,,,,,,60ff221ab776efc77fa7bcb7,61036f408996f1bc35b6ffd3,2021-07-29_23h17.56.875,Simcolourproject_2stim_asymm_v5,2020.2.10,Linux x86_64,60,61025ae37ef11b136ea224fe,,,,,,,,,3047,-59.27703857,-29.00369263,1,0,0,response5disk,,2,3.406982422,2.155822754,1,0,0,rectangle,3.406982422,2.155822754,1,0,0,3.406982422,2.155822754,1,0,0,0,6,6,68,1,,,,,,,,
,,,,,,,,,,,,,FF,,,,,,,,4.0673,,,,,,,,,,,,,,,,,,,,,,60ff221ab776efc77fa7bcb7,61036f408996f1bc35b6ffd3,2021-07-29_23h17.56.875,Simcolourproject_2stim_asymm_v5,2020.2.10,Linux x86_64,60,61025ae37ef11b136ea224fe,,,,,,,,,917,30.33392334,-82.78460693,1,0,0,response3disk,,4,-1.044006348,6.981628418,1,0,0,rectangle,-1.044006348,6.981628418,1,0,0,-1.044006348,6.981628418,1,0,0,0,7,7,22,1,,,,,,,,
,,,,,,,,,,,,,FF,,,,,,,,2.0005,,,,,,,,,,,,,,,,,,,,,,60ff221ab776efc77fa7bcb7,61036f408996f1bc35b6ffd3,2021-07-29_23h17.56.875,Simcolourproject_2stim_asymm_v5,2020.2.10,Linux x86_64,60,61025ae37ef11b136ea224fe,,,,,,,,,2968,71.82080078,-29.21890259,1,0,0,response3disk,,5,0.811401367,-6.73651123,1,0,0,rectangle,0.811401367,-6.73651123,1,0,0,0.811401367,-6.73651123,1,0,0,0,8,8,77,1,,,,,,,,
,,,,,,,,,,,,,FF,,,,,,,,2.1649,,,,,,,,,,,,,,,,,,,,,,60ff221ab776efc77fa7bcb7,61036f408996f1bc35b6ffd3,2021-07-29_23h17.56.875,Simcolourproject_2stim_asymm_v5,2020.2.10,Linux x86_64,60,61025ae37ef11b136ea224fe,,,,,,,,,4118,-40.76318359,70.39987183,1,0,0,response7disk,,0,-6.628479004,7.713317871,1,0,0,rectangle,-6.628479004,7.713317871,1,0,0,-6.628479004,7.713317871,1,0,0,0,9,9,88,1,,,,,,,,
,,,,,,,,,,,,,FF,,,,,,,,2.8505,,,,,,,,,,,,,,,,,,,,,,60ff221ab776efc77fa7bcb7,61036f408996f1bc35b6ffd3,2021-07-29_23h17.56.875,Simcolourproject_2stim_asymm_v5,2020.2.10,Linux x86_64,60,61025ae37ef11b136ea224fe,,,,,,,,,3421,40.95794678,-96.91156006,1,0,0,response3disk,,4,12.33337402,-3.63092041,1,0,0,rectangle,12.33337402,-3.63092041,1,0,0,12.33337402,-3.63092041,1,0,0,0,10,10,69,1,,,,,,,,
,,,,,,,,,,,,,FF,,,,,,,,1.3665,,,,,,,,,,,,,,,,,,,,,,60ff221ab776efc77fa7bcb7,61036f408996f1bc35b6ffd3,2021-07-29_23h17.56.875,Simcolourproject_2stim_asymm_v5,2020.2.10,Linux x86_64,60,61025ae37ef11b136ea224fe,,,,,,,,,4074,90.30169678,-28.74578857,1,0,0,response3disk,,5,7.1640625,-0.433074951,1,0,0,rectangle,7.1640625,-0.433074951,1,0,0,7.1640625,-0.433074951,1,0,0,0,11,11,118,1,,,,,,,,
,,,,,,,,,,,,,FF,,,,,,,,1.4187,,,,,,,,,,,,,,,,,,,,,,60ff221ab776efc77fa7bcb7,61036f408996f1bc35b6ffd3,2021-07-29_23h17.56.875,Simcolourproject_2stim_asymm_v5,2020.2.10,Linux x86_64,60,61025ae37ef11b136ea224fe,,,,,,,,,4191,41.21636963,72.42581177,1,0,0,response1disk,,7,8.673034668,5.885467529,1,0,0,rectangle,8.673034668,5.885467529,1,0,0,8.673034668,5.885467529,1,0,0,0,12,12,100,1,,,,,,,,
,,,,,,,,,,,,,FF,,,,,,,,3.6841,,,,,,,,,,,,,,,,,,,,,,60ff221ab776efc77fa7bcb7,61036f408996f1bc35b6ffd3,2021-07-29_23h17.56.875,Simcolourproject_2stim_asymm_v5,2020.2.10,Linux x86_64,60,61025ae37ef11b136ea224fe,,,,,,,,,2549,-54.02587891,-99.36077881,1,0,0,response5disk,,3,4.40057373,-4.990783691,1,0,0,rectangle,4.40057373,-4.990783691,1,0,0,4.40057373,-4.990783691,1,0,0,0,13,13,82,1,,,,,,,,
,,,,,,,,,,,,,FF,,,,,,,,2.0671,,,,,,,,,,,,,,,,,,,,,,60ff221ab776efc77fa7bcb7,61036f408996f1bc35b6ffd3,2021-07-29_23h17.56.875,Simcolourproject_2stim_asymm_v5,2020.2.10,Linux x86_64,60,61025ae37ef11b136ea224fe,,,,,,,,,810,-39.23858643,-104.3699951,1,0,0,response5disk,,3,-9.643920898,-3.702178955,1,0,0,rectangle,79.92932129,-37.36975098,1,0,0,2.534057617,2.679107666,1,0,0,0,14,14,16,1,,response3disk_3,TRUE,5,5,"[38,76,319,281,3,39,286,308,126,59,125,293,155,166,37,15,306,151,214,192]",2.1495,rectangle
,,,,,,,,,,,,,FF,,,,,,,,2.1162,,,,,,,,,,,,,,,,,,,,,,60ff221ab776efc77fa7bcb7,61036f408996f1bc35b6ffd3,2021-07-29_23h17.56.875,Simcolourproject_2stim_asymm_v5,2020.2.10,Linux x86_64,60,61025ae37ef11b136ea224fe,,,,,,,,,178,81.94940186,-30.73800659,1,0,0,response3disk,,5,11.14691162,-5.34942627,1,0,0,rectangle,11.14691162,-5.34942627,1,0,0,11.14691162,-5.34942627,1,0,0,0,15,15,153,1,,,,,,,,
,,,,,,,,,,,,,FF,,,,,,,,4.05,,,,,,,,,,,,,,,,,,,,,,60ff221ab776efc77fa7bcb7,61036f408996f1bc35b6ffd3,2021-07-29_23h17.56.875,Simcolourproject_2stim_asymm_v5,2020.2.10,Linux x86_64,60,61025ae37ef11b136ea224fe,,,,,,,,,3099,57.24993896,-101.4648743,1,0,0,response3disk,,4,0.787231445,-7.04095459,1,0,0,rectangle,0.787231445,-7.04095459,1,0,0,0.787231445,-7.04095459,1,0,0,0,16,16,70,1,,,,,,,,
,,,,,,,,,,,,,FF,,,,,,,,2.9484,,,,,,,,,,,,,,,,,,,,,,60ff221ab776efc77fa7bcb7,61036f408996f1bc35b6ffd3,2021-07-29_23h17.56.875,Simcolourproject_2stim_asymm_v5,2020.2.10,Linux x86_64,60,61025ae37ef11b136ea224fe,,,,,,,,,1230,39.32720947,-86.82876587,1,0,0,response3disk,,4,0.656494141,-13.74868774,1,0,0,rectangle,0.656494141,-13.74868774,1,0,0,0.656494141,-13.74868774,1,0,0,0,17,17,121,1,,,,,,,,
,,,,,,,,,,,,,FF,,,,,,,,2.1168,,,,,,,,,,,,,,,,,,,,,,60ff221ab776efc77fa7bcb7,61036f408996f1bc35b6ffd3,2021-07-29_23h17.56.875,Simcolourproject_2stim_asymm_v5,2020.2.10,Linux x86_64,60,61025ae37ef11b136ea224fe,,,,,,,,,852,98.89862061,-46.00631714,1,0,0,response3disk,,5,-9.581542969,-11.14706421,1,0,0,rectangle,-9.581542969,-11.14706421,1,0,0,-9.581542969,-11.14706421,1,0,0,0,18,18,7,1,,,,,,,,
,,,,,,,,,,,,,FF,,,,,,,,2.7666,,,,,,,,,,,,,,,,,,,,,,60ff221ab776efc77fa7bcb7,61036f408996f1bc35b6ffd3,2021-07-29_23h17.56.875,Simcolourproject_2stim_asymm_v5,2020.2.10,Linux x86_64,60,61025ae37ef11b136ea224fe,,,,,,,,,695,71.69122314,-53.84262085,1,0,0,response3disk,,5,9.931884766,-11.03433228,1,0,0,rectangle,9.931884766,-11.03433228,1,0,0,9.931884766,-11.03433228,1,0,0,0,19,19,62,1,,,,,,,,
,,,,,,,,,,,,,FF,,,,,,,,8.5653,,,,,,,,,,,,,,,,,,,,,,60ff221ab776efc77fa7bcb7,61036f408996f1bc35b6ffd3,2021-07-29_23h17.56.875,Simcolourproject_2stim_asymm_v5,2020.2.10,Linux x86_64,60,61025ae37ef11b136ea224fe,,,,,,,,,4300,85.29040527,62.96520996,1,0,0,response1disk,,6,5.739807129,6.585723877,1,0,0,rectangle,5.739807129,6.585723877,1,0,0,5.739807129,6.585723877,1,0,0,0,20,20,135,1,,,,,,,,
,,,,,,,,,,,,,FF,,,,,,,,2.1165,,,,,,,,,,,,,,,,,,,,,,60ff221ab776efc77fa7bcb7,61036f408996f1bc35b6ffd3,2021-07-29_23h17.56.875,Simcolourproject_2stim_asymm_v5,2020.2.10,Linux x86_64,60,61025ae37ef11b136ea224fe,,,,,,,,,3008,35.91351318,88.70925903,1,0,0,response1disk,,7,-0.28503418,6.499633789,1,0,0,rectangle,-0.28503418,6.499633789,1,0,0,-0.28503418,6.499633789,1,0,0,0,21,21,54,1,,,,,,,,
,,,,,,,,,,,,,FF,,,,,,,,2.2659,,,,,,,,,,,,,,,,,,,,,,60ff221ab776efc77fa7bcb7,61036f408996f1bc35b6ffd3,2021-07-29_23h17.56.875,Simcolourproject_2stim_asymm_v5,2020.2.10,Linux x86_64,60,61025ae37ef11b136ea224fe,,,,,,,,,2837,84.11157227,-47.78625488,1,0,0,response3disk,,5,4.346008301,-3.081115723,1,0,0,rectangle,4.346008301,-3.081115723,1,0,0,4.346008301,-3.081115723,1,0,0,0,22,22,142,1,,,,,,,,
,,,,,,,,,,,,,FF,,,,,,,,1.6998,,,,,,,,,,,,,,,,,,,,,,60ff221ab776efc77fa7bcb7,61036f408996f1bc35b6ffd3,2021-07-29_23h17.56.875,Simcolourproject_2stim_asymm_v5,2020.2.10,Linux x86_64,60,61025ae37ef11b136ea224fe,,,,,,,,,1610,-70.65661621,-77.63635254,1,0,0,response5disk,,3,-17.98193359,-2.478546143,1,0,0,rectangle,-17.98193359,-2.478546143,1,0,0,-17.98193359,-2.478546143,1,0,0,0,23,23,148,1,,,,,,,,
,,,,,,,,,,,,,FF,,,,,,,,2.1661,,,,,,,,,,,,,,,,,,,,,,60ff221ab776efc77fa7bcb7,61036f408996f1bc35b6ffd3,2021-07-29_23h17.56.875,Simcolourproject_2stim_asymm_v5,2020.2.10,Linux x86_64,60,61025ae37ef11b136ea224fe,,,,,,,,,2384,39.63366699,79.46774292,1,0,0,response1disk,,7,9.911376953,7.461669922,1,0,0,rectangle,9.911376953,7.461669922,1,0,0,9.911376953,7.461669922,1,0,0,0,24,24,109,1,,,,,,,,
,,,,,,,,,,,,,FF,,,,,,,,2.2675,,,,,,,,,,,,,,,,,,,,,,60ff221ab776efc77fa7bcb7,61036f408996f1bc35b6ffd3,2021-07-29_23h17.56.875,Simcolourproject_2stim_asymm_v5,2020.2.10,Linux x86_64,60,61025ae37ef11b136ea224fe,,,,,,,,,1353,83.74530029,-57.3604126,1,0,0,response3disk,,5,-26.4800415,1.408752441,1,0,0,rectangle,-26.4800415,1.408752441,1,0,0,-26.4800415,1.408752441,1,0,0,0,25,25,107,1,,,,,,,,
,,,,,,,,,,,,,FF,,,,,,,,2.0512,,,,,,,,,,,,,,,,,,,,,,60ff221ab776efc77fa7bcb7,61036f408996f1bc35b6ffd3,2021-07-29_23h17.56.875,Simcolourproject_2stim_asymm_v5,2020.2.10,Linux x86_64,60,61025ae37ef11b136ea224fe,,,,,,,,,1875,88.10443115,47.3019104,1,0,0,response1disk,,6,-3.94708252,-6.411437988,1,0,0,rectangle,-3.94708252,-6.411437988,1,0,0,-3.94708252,-6.411437988,1,0,0,0,26,26,84,1,,,,,,,,
,,,,,,,,,,,,,FF,,,,,,,,3.6831,,,,,,,,,,,,,,,,,,,,,,60ff221ab776efc77fa7bcb7,61036f408996f1bc35b6ffd3,2021-07-29_23h17.56.875,Simcolourproject_2stim_asymm_v5,2020.2.10,Linux x86_64,60,61025ae37ef11b136ea224fe,,,,,,,,,2754,66.0300293,50.61486816,1,0,0,response1disk,,6,-6.211975098,-10.13626099,1,0,0,rectangle,-6.211975098,-10.13626099,1,0,0,-6.211975098,-10.13626099,1,0,0,0,27,27,3,1,,,,,,,,
,,,,,,,,,,,,,FF,,,,,,,,1.0012,,,,,,,,,,,,,,,,,,,,,,60ff221ab776efc77fa7bcb7,61036f408996f1bc35b6ffd3,2021-07-29_23h17.56.875,Simcolourproject_2stim_asymm_v5,2020.2.10,Linux x86_64,60,61025ae37ef11b136ea224fe,,,,,,,,,868,36.05145264,68.33349609,1,0,0,response1disk,,7,3.548339844,5.090881348,1,0,0,rectangle,3.548339844,5.090881348,1,0,0,3.548339844,5.090881348,1,0,0,0,28,28,20,1,,,,,,,,
,,,,,,,,,,,,,FF,,,,,,,,4.6664,,,,,,,,,,,,,,,,,,,,,,60ff221ab776efc77fa7bcb7,61036f408996f1bc35b6ffd3,2021-07-29_23h17.56.875,Simcolourproject_2stim_asymm_v5,2020.2.10,Linux x86_64,60,61025ae37ef11b136ea224fe,,,,,,,,,2604,39.69104004,-80.36486816,1,0,0,response3disk,,4,9.745361328,-7.992156982,1,0,0,rectangle,9.745361328,-7.992156982,1,0,0,9.745361328,-7.992156982,1,0,0,0,29,29,55,1,,,,,,,,
,,,,,,,,,,,,,FF,,,,,,,,1.5188,,,,,,,,,,,,,,,,,,,,,,60ff221ab776efc77fa7bcb7,61036f408996f1bc35b6ffd3,2021-07-29_23h17.56.875,Simcolourproject_2stim_asymm_v5,2020.2.10,Linux x86_64,60,61025ae37ef11b136ea224fe,,,,,,,,,2102,40.36279297,-77.91131592,1,0,0,response3disk,,4,7.952880859,-4.263916016,1,0,0,rectangle,7.952880859,-4.263916016,1,0,0,7.952880859,-4.263916016,1,0,0,0,30,30,1,1,,,,,,,,
,,,,,,,,,,,,,FF,,,,,,,,2.015,,,,,,,,,,,,,,,,,,,,,,60ff221ab776efc77fa7bcb7,61036f408996f1bc35b6ffd3,2021-07-29_23h17.56.875,Simcolourproject_2stim_asymm_v5,2020.2.10,Linux x86_64,60,61025ae37ef11b136ea224fe,,,,,,,,,3213,74.36138916,37.42858887,1,0,0,response1disk,,6,14.32550049,1.807739258,1,0,0,rectangle,14.32550049,1.807739258,1,0,0,14.32550049,1.807739258,1,0,0,0,31,31,117,1,,,,,,,,
,,,,,,,,,,,,,FF,,,,,,,,2.0657,,,,,,,,,,,,,,,,,,,,,,60ff221ab776efc77fa7bcb7,61036f408996f1bc35b6ffd3,2021-07-29_23h17.56.875,Simcolourproject_2stim_asymm_v5,2020.2.10,Linux x86_64,60,61025ae37ef11b136ea224fe,,,,,,,,,148,70.46087646,46.20608521,1,0,0,response1disk,,6,-10.41766357,-4.808410645,1,0,0,rectangle,-10.41766357,-4.808410645,1,0,0,-10.41766357,-4.808410645,1,0,0,0,32,32,11,1,,,,,,,,
,,,,,,,,,,,,,FF,,,,,,,,2.6007,,,,,,,,,,,,,,,,,,,,,,60ff221ab776efc77fa7bcb7,61036f408996f1bc35b6ffd3,2021-07-29_23h17.56.875,Simcolourproject_2stim_asymm_v5,2020.2.10,Linux x86_64,60,61025ae37ef11b136ea224fe,,,,,,,,,394,36.95092773,-100.7016602,1,0,0,response3disk,,4,10.22900391,-5.434387207,1,0,0,rectangle,10.22900391,-5.434387207,1,0,0,10.22900391,-5.434387207,1,0,0,0,33,33,41,1,,,,,,,,
,,,,,,,,,,,,,FF,,,,,,,,2.8998,,,,,,,,,,,,,,,,,,,,,,60ff221ab776efc77fa7bcb7,61036f408996f1bc35b6ffd3,2021-07-29_23h17.56.875,Simcolourproject_2stim_asymm_v5,2020.2.10,Linux x86_64,60,61025ae37ef11b136ea224fe,,,,,,,,,2475,39.52532959,-102.5477905,1,0,0,response3disk,,4,-16.49816895,-4.431365967,1,0,0,rectangle,-16.49816895,-4.431365967,1,0,0,-16.49816895,-4.431365967,1,0,0,0,34,34,52,1,,,,,,,,
,,,,,,,,,,,,,FF,,,,,,,,2.0665,,,,,,,,,,,,,,,,,,,,,,60ff221ab776efc77fa7bcb7,61036f408996f1bc35b6ffd3,2021-07-29_23h17.56.875,Simcolourproject_2stim_asymm_v5,2020.2.10,Linux x86_64,60,61025ae37ef11b136ea224fe,,,,,,,,,235,78.05603027,-51.2164917,1,0,0,response3disk,,5,14.53375244,-9.356140137,1,0,0,rectangle,14.53375244,-9.356140137,1,0,0,14.53375244,-9.356140137,1,0,0,0,35,35,151,1,,,,,,,,
,,,,,,,,,,,,,FF,,,,,,,,1.9329,,,,,,,,,,,,,,,,,,,,,,60ff221ab776efc77fa7bcb7,61036f408996f1bc35b6ffd3,2021-07-29_23h17.56.875,Simcolourproject_2stim_asymm_v5,2020.2.10,Linux x86_64,60,61025ae37ef11b136ea224fe,,,,,,,,,362,92.40887451,20.152771,1,0,0,response1disk,,6,-9.042175293,1.750244141,1,0,0,rectangle,95.35357666,27.27166748,1,0,0,21.04754639,-5.258483887,1,0,0,0,36,36,120,1,,response1disk_3,TRUE,6,6,"[38,76,319,281,3,39,286,308,126,59,125,293,155,166,37,15,306,151,214,192]",2.1832,rectangle
,,,,,,,,,,,,,FF,,,,,,,,2.5837,,,,,,,,,,,,,,,,,,,,,,60ff221ab776efc77fa7bcb7,61036f408996f1bc35b6ffd3,2021-07-29_23h17.56.875,Simcolourproject_2stim_asymm_v5,2020.2.10,Linux x86_64,60,61025ae37ef11b136ea224fe,,,,,,,,,1237,49.94561768,-76.02508545,1,0,0,response3disk,,4,1.823547363,-12.8840332,1,0,0,rectangle,-59.4644165,-106.7965698,1,0,0,-7.692810059,4.086456299,1,0,0,0,37,37,42,1,,response5disk_3,TRUE,3,3,"[38,76,319,281,3,39,286,308,126,59,125,293,155,166,37,15,306,151,214,192]",2.2991,rectangle
,,,,,,,,,,,,,FF,,,,,,,,1.7167,,,,,,,,,,,,,,,,,,,,,,60ff221ab776efc77fa7bcb7,61036f408996f1bc35b6ffd3,2021-07-29_23h17.56.875,Simcolourproject_2stim_asymm_v5,2020.2.10,Linux x86_64,60,61025ae37ef11b136ea224fe,,,,,,,,,3098,-69.78845215,-35.38790894,1,0,0,response5disk,,2,10.95135498,-4.890045166,1,0,0,rectangle,19.12689209,82.40490723,1,0,0,2.376281738,-9.038360596,1,0,0,0,38,38,98,1,,response1disk_3,TRUE,7,7,"[38,76,319,281,3,39,286,308,126,59,125,293,155,166,37,15,306,151,214,192]",2.5987,rectangle
,,,,,,,,,,,,,FF,,,,,,,,2.3987,,,,,,,,,,,,,,,,,,,,,,60ff221ab776efc77fa7bcb7,61036f408996f1bc35b6ffd3,2021-07-29_23h17.56.875,Simcolourproject_2stim_asymm_v5,2020.2.10,Linux x86_64,60,61025ae37ef11b136ea224fe,,,,,,,,,3224,97.92443848,-40.11071777,1,0,0,response3disk,,5,13.29272461,-4.663482666,1,0,0,rectangle,13.29272461,-4.663482666,1,0,0,13.29272461,-4.663482666,1,0,0,0,39,39,105,1,,,,,,,,
,,,,,,,,,,,,,FF,,,,,,,,3.5678,,,,,,,,,,,,,,,,,,,,,,60ff221ab776efc77fa7bcb7,61036f408996f1bc35b6ffd3,2021-07-29_23h17.56.875,Simcolourproject_2stim_asymm_v5,2020.2.10,Linux x86_64,60,61025ae37ef11b136ea224fe,,,,,,,,,302,91.95233154,-52.95367432,1,0,0,response3disk,,5,13.45758057,-8.363189697,1,0,0,rectangle,13.45758057,-8.363189697,1,0,0,13.45758057,-8.363189697,1,0,0,0,40,40,150,1,,,,,,,,
,,,,,,,,,,,,,FF,,,,,,,,3.6666,,,,,,,,,,,,,,,,,,,,,,60ff221ab776efc77fa7bcb7,61036f408996f1bc35b6ffd3,2021-07-29_23h17.56.875,Simcolourproject_2stim_asymm_v5,2020.2.10,Linux x86_64,60,61025ae37ef11b136ea224fe,,,,,,,,,1527,-51.57501221,-113.864563,1,0,0,response5disk,,3,5.901123047,-0.030822754,1,0,0,rectangle,5.901123047,-0.030822754,1,0,0,5.901123047,-0.030822754,1,0,0,0,41,41,125,1,,,,,,,,
,,,,,,,,,,,,,FF,,,,,,,,1.5317,,,,,,,,,,,,,,,,,,,,,,60ff221ab776efc77fa7bcb7,61036f408996f1bc35b6ffd3,2021-07-29_23h17.56.875,Simcolourproject_2stim_asymm_v5,2020.2.10,Linux x86_64,60,61025ae37ef11b136ea224fe,,,,,,,,,837,32.3192749,-90.41830444,1,0,0,response3disk,,4,-4.294067383,-5.92288208,1,0,0,rectangle,-4.294067383,-5.92288208,1,0,0,-4.294067383,-5.92288208,1,0,0,0,42,42,10,1,,,,,,,,
,,,,,,,,,,,,,FF,,,,,,,,1.0326,,,,,,,,,,,,,,,,,,,,,,60ff221ab776efc77fa7bcb7,61036f408996f1bc35b6ffd3,2021-07-29_23h17.56.875,Simcolourproject_2stim_asymm_v5,2020.2.10,Linux x86_64,60,61025ae37ef11b136ea224fe,,,,,,,,,2031,-61.80297852,-112.7380981,1,0,0,response5disk,,3,-0.323852539,4.120574951,1,0,0,rectangle,-0.323852539,4.120574951,1,0,0,-0.323852539,4.120574951,1,0,0,0,43,43,159,1,,,,,,,,
,,,,,,,,,,,,,FF,,,,,,,,3.6345,,,,,,,,,,,,,,,,,,,,,,60ff221ab776efc77fa7bcb7,61036f408996f1bc35b6ffd3,2021-07-29_23h17.56.875,Simcolourproject_2stim_asymm_v5,2020.2.10,Linux x86_64,60,61025ae37ef11b136ea224fe,,,,,,,,,3314,49.9664917,87.10125732,1,0,0,response1disk,,7,2.548950195,10.4826355,1,0,0,rectangle,2.548950195,10.4826355,1,0,0,2.548950195,10.4826355,1,0,0,0,44,44,145,1,,,,,,,,
,,,,,,,,,,,,,FF,,,,,,,,2.0495,,,,,,,,,,,,,,,,,,,,,,60ff221ab776efc77fa7bcb7,61036f408996f1bc35b6ffd3,2021-07-29_23h17.56.875,Simcolourproject_2stim_asymm_v5,2020.2.10,Linux x86_64,60,61025ae37ef11b136ea224fe,,,,,,,,,2281,52.92242432,93.15341187,1,0,0,response1disk,,7,-5.462219238,-4.997650146,1,0,0,rectangle,-5.462219238,-4.997650146,1,0,0,-5.462219238,-4.997650146,1,0,0,0,45,45,94,1,,,,,,,,
,,,,,,,,,,,,,FF,,,,,,,,4.8323,,,,,,,,,,,,,,,,,,,,,,60ff221ab776efc77fa7bcb7,61036f408996f1bc35b6ffd3,2021-07-29_23h17.56.875,Simcolourproject_2stim_asymm_v5,2020.2.10,Linux x86_64,60,61025ae37ef11b136ea224fe,,,,,,,,,343,46.6885376,-98.78674316,1,0,0,response3disk,,4,-10.54333496,3.943847656,1,0,0,rectangle,-10.54333496,3.943847656,1,0,0,-10.54333496,3.943847656,1,0,0,0,46,46,106,1,,,,,,,,
,,,,,,,,,,,,,FF,,,,,,,,5.8826,,,,,,,,,,,,,,,,,,,,,,60ff221ab776efc77fa7bcb7,61036f408996f1bc35b6ffd3,2021-07-29_23h17.56.875,Simcolourproject_2stim_asymm_v5,2020.2.10,Linux x86_64,60,61025ae37ef11b136ea224fe,,,,,,,,,1780,40.63012695,-63.53347778,1,0,0,response3disk,,4,-16.1385498,3.865570068,1,0,0,rectangle,-16.1385498,3.865570068,1,0,0,-16.1385498,3.865570068,1,0,0,0,47,47,102,1,,,,,,,,
,,,,,,,,,,,,,FF,,,,,,,,4.8332,,,,,,,,,,,,,,,,,,,,,,60ff221ab776efc77fa7bcb7,61036f408996f1bc35b6ffd3,2021-07-29_23h17.56.875,Simcolourproject_2stim_asymm_v5,2020.2.10,Linux x86_64,60,61025ae37ef11b136ea224fe,,,,,,,,,1910,16.36663818,-74.76724243,1,0,0,response3disk,,4,1.854309082,-1.859863281,1,0,0,rectangle,1.854309082,-1.859863281,1,0,0,1.854309082,-1.859863281,1,0,0,0,48,48,132,1,,,,,,,,
,,,,,,,,,,,,,FF,,,,,,,,1.5003,,,,,,,,,,,,,,,,,,,,,,60ff221ab776efc77fa7bcb7,61036f408996f1bc35b6ffd3,2021-07-29_23h17.56.875,Simcolourproject_2stim_asymm_v5,2020.2.10,Linux x86_64,60,61025ae37ef11b136ea224fe,,,,,,,,,1537,-59.85809326,-103.5269165,1,0,0,response5disk,,3,-4.387390137,-7.878936768,1,0,0,rectangle,-4.387390137,-7.878936768,1,0,0,-4.387390137,-7.878936768,1,0,0,0,49,49,91,1,,,,,,,,
,,,,,,,,,,,,,FF,,,,,,,,2.934,,,,,,,,,,,,,,,,,,,,,,60ff221ab776efc77fa7bcb7,61036f408996f1bc35b6ffd3,2021-07-29_23h17.56.875,Simcolourproject_2stim_asymm_v5,2020.2.10,Linux x86_64,60,61025ae37ef11b136ea224fe,,,,,,,,,51,84.05450439,-53.08154297,1,0,0,response3disk,,5,5.586975098,-4.316772461,1,0,0,rectangle,5.586975098,-4.316772461,1,0,0,5.586975098,-4.316772461,1,0,0,0,50,50,23,1,,,,,,,,
,,,,,,,,,,,,,FF,,,,,,,,1.2491,,,,,,,,,,,,,,,,,,,,,,60ff221ab776efc77fa7bcb7,61036f408996f1bc35b6ffd3,2021-07-29_23h17.56.875,Simcolourproject_2stim_asymm_v5,2020.2.10,Linux x86_64,60,61025ae37ef11b136ea224fe,,,,,,,,,1018,73.72412109,-44.08984375,1,0,0,response3disk,,5,-7.096557617,-5.478057861,1,0,0,rectangle,-7.096557617,-5.478057861,1,0,0,-7.096557617,-5.478057861,1,0,0,0,51,51,110,1,,,,,,,,
,,,,,,,,,,,,,FF,,,,,,,,1.8176,,,,,,,,,,,,,,,,,,,,,,60ff221ab776efc77fa7bcb7,61036f408996f1bc35b6ffd3,2021-07-29_23h17.56.875,Simcolourproject_2stim_asymm_v5,2020.2.10,Linux x86_64,60,61025ae37ef11b136ea224fe,,,,,,,,,366,-36.75793457,96.50161743,1,0,0,response7disk,,0,-12.22613525,5.599121094,1,0,0,rectangle,-12.22613525,5.599121094,1,0,0,-12.22613525,5.599121094,1,0,0,0,52,52,143,1,,,,,,,,
,,,,,,,,,,,,,FF,,,,,,,,1.5807,,,,,,,,,,,,,,,,,,,,,,60ff221ab776efc77fa7bcb7,61036f408996f1bc35b6ffd3,2021-07-29_23h17.56.875,Simcolourproject_2stim_asymm_v5,2020.2.10,Linux x86_64,60,61025ae37ef11b136ea224fe,,,,,,,,,1388,-39.73864746,-56.46725464,1,0,0,response5disk,,3,13.88220215,4.720672607,1,0,0,rectangle,13.88220215,4.720672607,1,0,0,13.88220215,4.720672607,1,0,0,0,53,53,26,1,,,,,,,,
,,,,,,,,,,,,,FF,,,,,,,,3.8836,,,,,,,,,,,,,,,,,,,,,,60ff221ab776efc77fa7bcb7,61036f408996f1bc35b6ffd3,2021-07-29_23h17.56.875,Simcolourproject_2stim_asymm_v5,2020.2.10,Linux x86_64,60,61025ae37ef11b136ea224fe,,,,,,,,,368,-46.15338135,92.81726074,1,0,0,response7disk,,0,-6.514587402,4.104095459,1,0,0,rectangle,-6.514587402,4.104095459,1,0,0,-6.514587402,4.104095459,1,0,0,0,54,54,18,1,,,,,,,,
,,,,,,,,,,,,,FF,,,,,,,,2.6338,,,,,,,,,,,,,,,,,,,,,,60ff221ab776efc77fa7bcb7,61036f408996f1bc35b6ffd3,2021-07-29_23h17.56.875,Simcolourproject_2stim_asymm_v5,2020.2.10,Linux x86_64,60,61025ae37ef11b136ea224fe,,,,,,,,,2063,35.68835449,-81.32693481,1,0,0,response3disk,,4,-2.880004883,10.23184204,1,0,0,rectangle,-2.880004883,10.23184204,1,0,0,-2.880004883,10.23184204,1,0,0,0,55,55,87,1,,,,,,,,
,,,,,,,,,,,,,FF,,,,,,,,1.5008,,,,,,,,,,,,,,,,,,,,,,60ff221ab776efc77fa7bcb7,61036f408996f1bc35b6ffd3,2021-07-29_23h17.56.875,Simcolourproject_2stim_asymm_v5,2020.2.10,Linux x86_64,60,61025ae37ef11b136ea224fe,,,,,,,,,1823,-89.20562744,39.73809814,1,0,0,response7disk,,1,-26.91015625,4.996765137,1,0,0,rectangle,-26.91015625,4.996765137,1,0,0,-26.91015625,4.996765137,1,0,0,0,56,56,25,1,,,,,,,,
,,,,,,,,,,,,,FF,,,,,,,,2.1835,,,,,,,,,,,,,,,,,,,,,,60ff221ab776efc77fa7bcb7,61036f408996f1bc35b6ffd3,2021-07-29_23h17.56.875,Simcolourproject_2stim_asymm_v5,2020.2.10,Linux x86_64,60,61025ae37ef11b136ea224fe,,,,,,,,,4076,-84.42437744,-17.97512817,1,0,0,response5disk,,2,-1.101623535,3.677093506,1,0,0,rectangle,-1.101623535,3.677093506,1,0,0,-1.101623535,3.677093506,1,0,0,0,57,57,67,1,,,,,,,,
,,,,,,,,,,,,,FF,,,,,,,,3.534,,,,,,,,,,,,,,,,,,,,,,60ff221ab776efc77fa7bcb7,61036f408996f1bc35b6ffd3,2021-07-29_23h17.56.875,Simcolourproject_2stim_asymm_v5,2020.2.10,Linux x86_64,60,61025ae37ef11b136ea224fe,,,,,,,,,1162,54.18121338,-64.81549072,1,0,0,response3disk,,4,6.68359375,2.58480835,1,0,0,rectangle,-77.00317383,-56.20715332,1,0,0,-0.138122559,0.628601074,1,0,0,0,58,58,76,1,,response5disk_3,TRUE,2,2,"[38,76,319,281,3,39,286,308,126,59,125,293,155,166,37,15,306,151,214,192]",1.8006,rectangle
,,,,,,,,,,,,,FF,,,,,,,,2.5824,,,,,,,,,,,,,,,,,,,,,,60ff221ab776efc77fa7bcb7,61036f408996f1bc35b6ffd3,2021-07-29_23h17.56.875,Simcolourproject_2stim_asymm_v5,2020.2.10,Linux x86_64,60,61025ae37ef11b136ea224fe,,,,,,,,,507,66.12908936,31.8543396,1,0,0,response1disk,,6,4.304138184,9.105194092,1,0,0,rectangle,4.304138184,9.105194092,1,0,0,4.304138184,9.105194092,1,0,0,0,59,59,17,1,,,,,,,,
,,,,,,,,,,,,,FF,,,,,,,,1.8492,,,,,,,,,,,,,,,,,,,,,,60ff221ab776efc77fa7bcb7,61036f408996f1bc35b6ffd3,2021-07-29_23h17.56.875,Simcolourproject_2stim_asymm_v5,2020.2.10,Linux x86_64,60,61025ae37ef11b136ea224fe,,,,,,,,,1295,-49.89508057,-91.66622925,1,0,0,response5disk,,3,0.881713867,-7.010528564,1,0,0,rectangle,0.881713867,-7.010528564,1,0,0,0.881713867,-7.010528564,1,0,0,0,60,60,37,1,,,,,,,,
,,,,,,,,,,,,,FF,,,,,,,,3.1003,,,,,,,,,,,,,,,,,,,,,,60ff221ab776efc77fa7bcb7,61036f408996f1bc35b6ffd3,2021-07-29_23h17.56.875,Simcolourproject_2stim_asymm_v5,2020.2.10,Linux x86_64,60,61025ae37ef11b136ea224fe,,,,,,,,,2637,48.97198486,70.78649902,1,0,0,response1disk,,7,-4.229309082,-2.767089844,1,0,0,rectangle,-4.229309082,-2.767089844,1,0,0,-4.229309082,-2.767089844,1,0,0,0,61,61,29,1,,,,,,,,
,,,,,,,,,,,,,FF,,,,,,,,3.882,,,,,,,,,,,,,,,,,,,,,,60ff221ab776efc77fa7bcb7,61036f408996f1bc35b6ffd3,2021-07-29_23h17.56.875,Simcolourproject_2stim_asymm_v5,2020.2.10,Linux x86_64,60,61025ae37ef11b136ea224fe,,,,,,,,,196,30.21142578,-97.73074341,1,0,0,response3disk,,4,-7.831604004,-9.394989014,1,0,0,rectangle,-7.831604004,-9.394989014,1,0,0,-7.831604004,-9.394989014,1,0,0,0,62,62,123,1,,,,,,,,
,,,,,,,,,,,,,FF,,,,,,,,2.2661,,,,,,,,,,,,,,,,,,,,,,60ff221ab776efc77fa7bcb7,61036f408996f1bc35b6ffd3,2021-07-29_23h17.56.875,Simcolourproject_2stim_asymm_v5,2020.2.10,Linux x86_64,60,61025ae37ef11b136ea224fe,,,,,,,,,505,53.18212891,96.33743286,1,0,0,response1disk,,7,9.36151123,-0.576477051,1,0,0,rectangle,9.36151123,-0.576477051,1,0,0,9.36151123,-0.576477051,1,0,0,0,63,63,138,1,,,,,,,,
,,,,,,,,,,,,,FF,,,,,,,,7.2486,,,,,,,,,,,,,,,,,,,,,,60ff221ab776efc77fa7bcb7,61036f408996f1bc35b6ffd3,2021-07-29_23h17.56.875,Simcolourproject_2stim_asymm_v5,2020.2.10,Linux x86_64,60,61025ae37ef11b136ea224fe,,,,,,,,,3988,55.24981689,69.73257446,1,0,0,response1disk,,7,2.292236328,-14.26257324,1,0,0,rectangle,2.292236328,-14.26257324,1,0,0,2.292236328,-14.26257324,1,0,0,0,64,64,57,1,,,,,,,,
,,,,,,,,,,,,,FF,,,,,,,,1.6138,,,,,,,,,,,,,,,,,,,,,,60ff221ab776efc77fa7bcb7,61036f408996f1bc35b6ffd3,2021-07-29_23h17.56.875,Simcolourproject_2stim_asymm_v5,2020.2.10,Linux x86_64,60,61025ae37ef11b136ea224fe,,,,,,,,,4196,57.03137207,85.49343872,1,0,0,response1disk,,7,3.936950684,-10.0071106,1,0,0,rectangle,3.936950684,-10.0071106,1,0,0,3.936950684,-10.0071106,1,0,0,0,65,65,8,1,,,,,,,,
,,,,,,,,,,,,,FF,,,,,,,,1.5495,,,,,,,,,,,,,,,,,,,,,,60ff221ab776efc77fa7bcb7,61036f408996f1bc35b6ffd3,2021-07-29_23h17.56.875,Simcolourproject_2stim_asymm_v5,2020.2.10,Linux x86_64,60,61025ae37ef11b136ea224fe,,,,,,,,,3912,26.30413818,75.82897949,1,0,0,response1disk,,7,-1.099914551,-5.676971436,1,0,0,rectangle,-1.099914551,-5.676971436,1,0,0,-1.099914551,-5.676971436,1,0,0,0,66,66,31,1,,,,,,,,
,,,,,,,,,,,,,FF,,,,,,,,2.1647,,,,,,,,,,,,,,,,,,,,,,60ff221ab776efc77fa7bcb7,61036f408996f1bc35b6ffd3,2021-07-29_23h17.56.875,Simcolourproject_2stim_asymm_v5,2020.2.10,Linux x86_64,60,61025ae37ef11b136ea224fe,,,,,,,,,3968,37.77850342,-89.88885498,1,0,0,response3disk,,4,-4.094970703,-4.622070313,1,0,0,rectangle,-4.094970703,-4.622070313,1,0,0,-4.094970703,-4.622070313,1,0,0,0,67,67,53,1,,,,,,,,
,,,,,,,,,,,,,FF,,,,,,,,2.7658,,,,,,,,,,,,,,,,,,,,,,60ff221ab776efc77fa7bcb7,61036f408996f1bc35b6ffd3,2021-07-29_23h17.56.875,Simcolourproject_2stim_asymm_v5,2020.2.10,Linux x86_64,60,61025ae37ef11b136ea224fe,,,,,,,,,675,83.1328125,45.60949707,1,0,0,response1disk,,6,8.871032715,-6.181427002,1,0,0,rectangle,8.871032715,-6.181427002,1,0,0,8.871032715,-6.181427002,1,0,0,0,68,68,45,1,,,,,,,,
,,,,,,,,,,,,,FF,,,,,,,,1.1178,,,,,,,,,,,,,,,,,,,,,,60ff221ab776efc77fa7bcb7,61036f408996f1bc35b6ffd3,2021-07-29_23h17.56.875,Simcolourproject_2stim_asymm_v5,2020.2.10,Linux x86_64,60,61025ae37ef11b136ea224fe,,,,,,,,,1779,67.00878906,31.7784729,1,0,0,response1disk,,6,14.31951904,2.783538818,1,0,0,rectangle,14.31951904,2.783538818,1,0,0,14.31951904,2.783538818,1,0,0,0,69,69,126,1,,,,,,,,
,,,,,,,,,,,,,FF,,,,,,,,1.9176,,,,,,,,,,,,,,,,,,,,,,60ff221ab776efc77fa7bcb7,61036f408996f1bc35b6ffd3,2021-07-29_23h17.56.875,Simcolourproject_2stim_asymm_v5,2020.2.10,Linux x86_64,60,61025ae37ef11b136ea224fe,,,,,,,,,1496,31.47375488,76.48648071,1,0,0,response1disk,,7,0.065917969,-6.126220703,1,0,0,rectangle,0.065917969,-6.126220703,1,0,0,0.065917969,-6.126220703,1,0,0,0,70,70,0,1,,,,,,,,
,,,,,,,,,,,,,FF,,,,,,,,1.417,,,,,,,,,,,,,,,,,,,,,,60ff221ab776efc77fa7bcb7,61036f408996f1bc35b6ffd3,2021-07-29_23h17.56.875,Simcolourproject_2stim_asymm_v5,2020.2.10,Linux x86_64,60,61025ae37ef11b136ea224fe,,,,,,,,,3432,-74.11578369,43.26312256,1,0,0,response7disk,,1,-13.32354736,7.757110596,1,0,0,rectangle,-13.32354736,7.757110596,1,0,0,-13.32354736,7.757110596,1,0,0,0,71,71,149,1,,,,,,,,
,,,,,,,,,,,,,FF,,,,,,,,1.968,,,,,,,,,,,,,,,,,,,,,,60ff221ab776efc77fa7bcb7,61036f408996f1bc35b6ffd3,2021-07-29_23h17.56.875,Simcolourproject_2stim_asymm_v5,2020.2.10,Linux x86_64,60,61025ae37ef11b136ea224fe,,,,,,,,,3513,-36.878479,-63.76675415,1,0,0,response5disk,,3,0.045654297,4.57220459,1,0,0,rectangle,0.045654297,4.57220459,1,0,0,0.045654297,4.57220459,1,0,0,0,72,72,36,1,,,,,,,,
,,,,,,,,,,,,,FF,,,,,,,,3.8986,,,,,,,,,,,,,,,,,,,,,,60ff221ab776efc77fa7bcb7,61036f408996f1bc35b6ffd3,2021-07-29_23h17.56.875,Simcolourproject_2stim_asymm_v5,2020.2.10,Linux x86_64,60,61025ae37ef11b136ea224fe,,,,,,,,,3030,38.32617188,-88.49203491,1,0,0,response3disk,,4,-4.339355469,3.124267578,1,0,0,rectangle,-4.339355469,3.124267578,1,0,0,-4.339355469,3.124267578,1,0,0,0,73,73,108,1,,,,,,,,
,,,,,,,,,,,,,FF,,,,,,,,4.3494,,,,,,,,,,,,,,,,,,,,,,60ff221ab776efc77fa7bcb7,61036f408996f1bc35b6ffd3,2021-07-29_23h17.56.875,Simcolourproject_2stim_asymm_v5,2020.2.10,Linux x86_64,60,61025ae37ef11b136ea224fe,,,,,,,,,4090,78.59924316,30.93261719,1,0,0,response1disk,,6,17.41345215,-5.216339111,1,0,0,rectangle,17.41345215,-5.216339111,1,0,0,17.41345215,-5.216339111,1,0,0,0,74,74,9,1,,,,,,,,
,,,,,,,,,,,,,FF,,,,,,,,1.4001,,,,,,,,,,,,,,,,,,,,,,60ff221ab776efc77fa7bcb7,61036f408996f1bc35b6ffd3,2021-07-29_23h17.56.875,Simcolourproject_2stim_asymm_v5,2020.2.10,Linux x86_64,60,61025ae37ef11b136ea224fe,,,,,,,,,1895,-36.75427246,-105.6749573,1,0,0,response5disk,,3,11.30725098,7.37322998,1,0,0,rectangle,-65.24194336,35.59072876,1,0,0,6.17565918,-0.951538086,1,0,0,0,75,75,140,1,,response7disk_3,TRUE,1,1,"[38,76,319,281,3,39,286,308,126,59,125,293,155,166,37,15,306,151,214,192]",6.6326,rectangle
,,,,,,,,,,,,,FF,,,,,,,,2.2499,,,,,,,,,,,,,,,,,,,,,,60ff221ab776efc77fa7bcb7,61036f408996f1bc35b6ffd3,2021-07-29_23h17.56.875,Simcolourproject_2stim_asymm_v5,2020.2.10,Linux x86_64,60,61025ae37ef11b136ea224fe,,,,,,,,,2700,88.38049316,32.18652344,1,0,0,response1disk,,6,4.711303711,-10.32571411,1,0,0,rectangle,4.711303711,-10.32571411,1,0,0,4.711303711,-10.32571411,1,0,0,0,76,76,74,1,,,,,,,,
,,,,,,,,,,,,,FF,,,,,,,,1.467,,,,,,,,,,,,,,,,,,,,,,60ff221ab776efc77fa7bcb7,61036f408996f1bc35b6ffd3,2021-07-29_23h17.56.875,Simcolourproject_2stim_asymm_v5,2020.2.10,Linux x86_64,60,61025ae37ef11b136ea224fe,,,,,,,,,3113,53.6673584,-68.28216553,1,0,0,response3disk,,4,2.497924805,-2.872528076,1,0,0,rectangle,2.497924805,-2.872528076,1,0,0,2.497924805,-2.872528076,1,0,0,0,77,77,86,1,,,,,,,,
,,,,,,,,,,,,,FF,,,,,,,,2.3001,,,,,,,,,,,,,,,,,,,,,,60ff221ab776efc77fa7bcb7,61036f408996f1bc35b6ffd3,2021-07-29_23h17.56.875,Simcolourproject_2stim_asymm_v5,2020.2.10,Linux x86_64,60,61025ae37ef11b136ea224fe,,,,,,,,,2697,83.3269043,46.90545654,1,0,0,response1disk,,6,-22.5904541,-8.237091064,1,0,0,rectangle,-22.5904541,-8.237091064,1,0,0,-22.5904541,-8.237091064,1,0,0,0,78,78,48,1,,,,,,,,
,,,,,,,,,,,,,FF,,,,,,,,1.0157,,,,,,,,,,,,,,,,,,,,,,60ff221ab776efc77fa7bcb7,61036f408996f1bc35b6ffd3,2021-07-29_23h17.56.875,Simcolourproject_2stim_asymm_v5,2020.2.10,Linux x86_64,60,61025ae37ef11b136ea224fe,,,,,,,,,3742,-53.52746582,-81.26022339,1,0,0,response5disk,,3,-12.85064697,10.67825317,1,0,0,rectangle,-12.85064697,10.67825317,1,0,0,-12.85064697,10.67825317,1,0,0,0,79,79,101,1,,,,,,,,
,,,,,,,,,,,,,FF,,,,,,,,2.3172,,,,,,,,,,,,,,,,,,,,,,60ff221ab776efc77fa7bcb7,61036f408996f1bc35b6ffd3,2021-07-29_23h17.56.875,Simcolourproject_2stim_asymm_v5,2020.2.10,Linux x86_64,60,61025ae37ef11b136ea224fe,,,,,,,,,2258,79.08294678,-47.67349243,1,0,0,response3disk,,5,-19.1998291,0.077270508,1,0,0,rectangle,-19.1998291,0.077270508,1,0,0,-19.1998291,0.077270508,1,0,0,0,80,80,4,1,,,,,,,,
,,,,,,,,,,,,,FF,,,,,,,,5.0975,,,,,,,,,,,,,,,,,,,,,,60ff221ab776efc77fa7bcb7,61036f408996f1bc35b6ffd3,2021-07-29_23h17.56.875,Simcolourproject_2stim_asymm_v5,2020.2.10,Linux x86_64,60,61025ae37ef11b136ea224fe,,,,,,,,,3817,-91.86932373,-49.0741272,1,0,0,response5disk,,2,-15.96716309,11.40933228,1,0,0,rectangle,-15.96716309,11.40933228,1,0,0,-15.96716309,11.40933228,1,0,0,0,81,81,134,1,,,,,,,,
,,,,,,,,,,,,,FF,,,,,,,,1.0831,,,,,,,,,,,,,,,,,,,,,,60ff221ab776efc77fa7bcb7,61036f408996f1bc35b6ffd3,2021-07-29_23h17.56.875,Simcolourproject_2stim_asymm_v5,2020.2.10,Linux x86_64,60,61025ae37ef11b136ea224fe,,,,,,,,,187,-69.01867676,-48.29098511,1,0,0,response5disk,,2,2.898986816,-4.56149292,1,0,0,rectangle,2.898986816,-4.56149292,1,0,0,2.898986816,-4.56149292,1,0,0,0,82,82,60,1,,,,,,,,
,,,,,,,,,,,,,FF,,,,,,,,3.3517,,,,,,,,,,,,,,,,,,,,,,60ff221ab776efc77fa7bcb7,61036f408996f1bc35b6ffd3,2021-07-29_23h17.56.875,Simcolourproject_2stim_asymm_v5,2020.2.10,Linux x86_64,60,61025ae37ef11b136ea224fe,,,,,,,,,2883,-30.91760254,-85.55187988,1,0,0,response5disk,,3,-2.502258301,15.27508545,1,0,0,rectangle,-2.502258301,15.27508545,1,0,0,-2.502258301,15.27508545,1,0,0,0,83,83,128,1,,,,,,,,
,,,,,,,,,,,,,FF,,,,,,,,1.1836,,,,,,,,,,,,,,,,,,,,,,60ff221ab776efc77fa7bcb7,61036f408996f1bc35b6ffd3,2021-07-29_23h17.56.875,Simcolourproject_2stim_asymm_v5,2020.2.10,Linux x86_64,60,61025ae37ef11b136ea224fe,,,,,,,,,1602,-40.9977417,-82.62695313,1,0,0,response5disk,,3,-1.862060547,6.515075684,1,0,0,rectangle,-1.862060547,6.515075684,1,0,0,-1.862060547,6.515075684,1,0,0,0,84,84,80,1,,,,,,,,
,,,,,,,,,,,,,FF,,,,,,,,1.6328,,,,,,,,,,,,,,,,,,,,,,60ff221ab776efc77fa7bcb7,61036f408996f1bc35b6ffd3,2021-07-29_23h17.56.875,Simcolourproject_2stim_asymm_v5,2020.2.10,Linux x86_64,60,61025ae37ef11b136ea224fe,,,,,,,,,2959,96.79327393,23.41989136,1,0,0,response1disk,,6,8.177246094,-0.647857666,1,0,0,rectangle,8.177246094,-0.647857666,1,0,0,8.177246094,-0.647857666,1,0,0,0,85,85,141,1,,,,,,,,
,,,,,,,,,,,,,FF,,,,,,,,2.2334,,,,,,,,,,,,,,,,,,,,,,60ff221ab776efc77fa7bcb7,61036f408996f1bc35b6ffd3,2021-07-29_23h17.56.875,Simcolourproject_2stim_asymm_v5,2020.2.10,Linux x86_64,60,61025ae37ef11b136ea224fe,,,,,,,,,4154,101.8237915,29.43515015,1,0,0,response1disk,,6,27.01318359,-8.10333252,1,0,0,rectangle,27.01318359,-8.10333252,1,0,0,27.01318359,-8.10333252,1,0,0,0,86,86,156,1,,,,,,,,
,,,,,,,,,,,,,FF,,,,,,,,1.2995,,,,,,,,,,,,,,,,,,,,,,60ff221ab776efc77fa7bcb7,61036f408996f1bc35b6ffd3,2021-07-29_23h17.56.875,Simcolourproject_2stim_asymm_v5,2020.2.10,Linux x86_64,60,61025ae37ef11b136ea224fe,,,,,,,,,2578,45.51385498,77.10195923,1,0,0,response1disk,,7,15.94818115,-5.642791748,1,0,0,rectangle,15.94818115,-5.642791748,1,0,0,15.94818115,-5.642791748,1,0,0,0,87,87,72,1,,,,,,,,
,,,,,,,,,,,,,FF,,,,,,,,1.3999,,,,,,,,,,,,,,,,,,,,,,60ff221ab776efc77fa7bcb7,61036f408996f1bc35b6ffd3,2021-07-29_23h17.56.875,Simcolourproject_2stim_asymm_v5,2020.2.10,Linux x86_64,60,61025ae37ef11b136ea224fe,,,,,,,,,2898,-39.30419922,-103.6567688,1,0,0,response5disk,,3,8.128173828,1.27532959,1,0,0,rectangle,8.128173828,1.27532959,1,0,0,8.128173828,1.27532959,1,0,0,0,88,88,61,1,,,,,,,,
,,,,,,,,,,,,,FF,,,,,,,,1.9995,,,,,,,,,,,,,,,,,,,,,,60ff221ab776efc77fa7bcb7,61036f408996f1bc35b6ffd3,2021-07-29_23h17.56.875,Simcolourproject_2stim_asymm_v5,2020.2.10,Linux x86_64,60,61025ae37ef11b136ea224fe,,,,,,,,,3093,-81.55706787,22.89944458,1,0,0,response7disk,,1,-15.52111816,-0.687835693,1,0,0,rectangle,-15.52111816,-0.687835693,1,0,0,-15.52111816,-0.687835693,1,0,0,0,89,89,50,1,,,,,,,,
,,,,,,,,,,,,,FF,,,,,,,,2.0165,,,,,,,,,,,,,,,,,,,,,,60ff221ab776efc77fa7bcb7,61036f408996f1bc35b6ffd3,2021-07-29_23h17.56.875,Simcolourproject_2stim_asymm_v5,2020.2.10,Linux x86_64,60,61025ae37ef11b136ea224fe,,,,,,,,,2293,-71.17401123,-52.34515381,1,0,0,response5disk,,2,-1.592041016,-8.01473999,1,0,0,rectangle,-1.592041016,-8.01473999,1,0,0,-1.592041016,-8.01473999,1,0,0,0,90,90,40,1,,,,,,,,
,,,,,,,,,,,,,FF,,,,,,,,3.5841,,,,,,,,,,,,,,,,,,,,,,60ff221ab776efc77fa7bcb7,61036f408996f1bc35b6ffd3,2021-07-29_23h17.56.875,Simcolourproject_2stim_asymm_v5,2020.2.10,Linux x86_64,60,61025ae37ef11b136ea224fe,,,,,,,,,3465,90.9777832,-47.63671875,1,0,0,response3disk,,5,4.228393555,7.217681885,1,0,0,rectangle,4.228393555,7.217681885,1,0,0,4.228393555,7.217681885,1,0,0,0,91,91,136,1,,,,,,,,
,,,,,,,,,,,,,FF,,,,,,,,1.1008,,,,,,,,,,,,,,,,,,,,,,60ff221ab776efc77fa7bcb7,61036f408996f1bc35b6ffd3,2021-07-29_23h17.56.875,Simcolourproject_2stim_asymm_v5,2020.2.10,Linux x86_64,60,61025ae37ef11b136ea224fe,,,,,,,,,1554,89.00811768,44.70489502,1,0,0,response1disk,,6,14.5335083,3.233428955,1,0,0,rectangle,14.5335083,3.233428955,1,0,0,14.5335083,3.233428955,1,0,0,0,92,92,96,1,,,,,,,,
,,,,,,,,,,,,,FF,,,,,,,,2.3166,,,,,,,,,,,,,,,,,,,,,,60ff221ab776efc77fa7bcb7,61036f408996f1bc35b6ffd3,2021-07-29_23h17.56.875,Simcolourproject_2stim_asymm_v5,2020.2.10,Linux x86_64,60,61025ae37ef11b136ea224fe,,,,,,,,,950,73.63171387,46.92520142,1,0,0,response1disk,,6,-0.87310791,1.901184082,1,0,0,rectangle,-0.87310791,1.901184082,1,0,0,-0.87310791,1.901184082,1,0,0,0,93,93,85,1,,,,,,,,
,,,,,,,,,,,,,FF,,,,,,,,3.6678,,,,,,,,,,,,,,,,,,,,,,60ff221ab776efc77fa7bcb7,61036f408996f1bc35b6ffd3,2021-07-29_23h17.56.875,Simcolourproject_2stim_asymm_v5,2020.2.10,Linux x86_64,60,61025ae37ef11b136ea224fe,,,,,,,,,2427,79.68463135,-56.3102417,1,0,0,response3disk,,5,0.352355957,0.580932617,1,0,0,rectangle,0.352355957,0.580932617,1,0,0,0.352355957,0.580932617,1,0,0,0,94,94,158,1,,,,,,,,
,,,,,,,,,,,,,FF,,,,,,,,1.3316,,,,,,,,,,,,,,,,,,,,,,60ff221ab776efc77fa7bcb7,61036f408996f1bc35b6ffd3,2021-07-29_23h17.56.875,Simcolourproject_2stim_asymm_v5,2020.2.10,Linux x86_64,60,61025ae37ef11b136ea224fe,,,,,,,,,3900,82.08569336,65.51190186,1,0,0,response1disk,,6,14.01989746,2.968109131,1,0,0,rectangle,14.01989746,2.968109131,1,0,0,14.01989746,2.968109131,1,0,0,0,95,95,90,1,,,,,,,,
,,,,,,,,,,,,,FF,,,,,,,,0.9341,,,,,,,,,,,,,,,,,,,,,,60ff221ab776efc77fa7bcb7,61036f408996f1bc35b6ffd3,2021-07-29_23h17.56.875,Simcolourproject_2stim_asymm_v5,2020.2.10,Linux x86_64,60,61025ae37ef11b136ea224fe,,,,,,,,,2199,38.64202881,70.98403931,1,0,0,response1disk,,7,-10.55487061,-4.279052734,1,0,0,rectangle,-10.55487061,-4.279052734,1,0,0,-10.55487061,-4.279052734,1,0,0,0,96,96,111,1,,,,,,,,
,,,,,,,,,,,,,FF,,,,,,,,2.4838,,,,,,,,,,,,,,,,,,,,,,60ff221ab776efc77fa7bcb7,61036f408996f1bc35b6ffd3,2021-07-29_23h17.56.875,Simcolourproject_2stim_asymm_v5,2020.2.10,Linux x86_64,60,61025ae37ef11b136ea224fe,,,,,,,,,3040,33.93865967,-96.4458313,1,0,0,response3disk,,4,-10.50927734,-6.189056396,1,0,0,rectangle,-10.50927734,-6.189056396,1,0,0,-10.50927734,-6.189056396,1,0,0,0,97,97,32,1,,,,,,,,
,,,,,,,,,,,,,FF,,,,,,,,3.5146,,,,,,,,,,,,,,,,,,,,,,60ff221ab776efc77fa7bcb7,61036f408996f1bc35b6ffd3,2021-07-29_23h17.56.875,Simcolourproject_2stim_asymm_v5,2020.2.10,Linux x86_64,60,61025ae37ef11b136ea224fe,,,,,,,,,546,-51.49206543,-97.65515137,1,0,0,response5disk,,3,-0.248474121,4.528106689,1,0,0,rectangle,-0.248474121,4.528106689,1,0,0,-0.248474121,4.528106689,1,0,0,0,98,98,33,1,,,,,,,,
,,,,,,,,,,,,,FF,,,,,,,,1.0335,,,,,,,,,,,,,,,,,,,,,,60ff221ab776efc77fa7bcb7,61036f408996f1bc35b6ffd3,2021-07-29_23h17.56.875,Simcolourproject_2stim_asymm_v5,2020.2.10,Linux x86_64,60,61025ae37ef11b136ea224fe,,,,,,,,,2190,35.9175415,54.21966553,1,0,0,response1disk,,7,17.51330566,-3.615997314,1,0,0,rectangle,17.51330566,-3.615997314,1,0,0,17.51330566,-3.615997314,1,0,0,0,99,99,81,1,,,,,,,,
,,,,,,,,,,,,,FF,,,,,,,,1.3662,,,,,,,,,,,,,,,,,,,,,,60ff221ab776efc77fa7bcb7,61036f408996f1bc35b6ffd3,2021-07-29_23h17.56.875,Simcolourproject_2stim_asymm_v5,2020.2.10,Linux x86_64,60,61025ae37ef11b136ea224fe,,,,,,,,,3395,-27.15216064,-103.0401306,1,0,0,response5disk,,3,-3.551940918,-6.406707764,1,0,0,rectangle,-3.551940918,-6.406707764,1,0,0,-3.551940918,-6.406707764,1,0,0,0,100,100,21,1,,,,,,,,
,,,,,,,,,,,,,FF,,,,,,,,2.1,,,,,,,,,,,,,,,,,,,,,,60ff221ab776efc77fa7bcb7,61036f408996f1bc35b6ffd3,2021-07-29_23h17.56.875,Simcolourproject_2stim_asymm_v5,2020.2.10,Linux x86_64,60,61025ae37ef11b136ea224fe,,,,,,,,,3974,-45.38793945,-93.73986816,1,0,0,response5disk,,3,10.65063477,1.313354492,1,0,0,rectangle,10.65063477,1.313354492,1,0,0,10.65063477,1.313354492,1,0,0,0,101,101,13,1,,,,,,,,
,,,,,,,,,,,,,FF,,,,,,,,1.0832,,,,,,,,,,,,,,,,,,,,,,60ff221ab776efc77fa7bcb7,61036f408996f1bc35b6ffd3,2021-07-29_23h17.56.875,Simcolourproject_2stim_asymm_v5,2020.2.10,Linux x86_64,60,61025ae37ef11b136ea224fe,,,,,,,,,3914,-47.70074463,-87.28448486,1,0,0,response5disk,,3,4.950195313,4.393768311,1,0,0,rectangle,4.950195313,4.393768311,1,0,0,4.950195313,4.393768311,1,0,0,0,102,102,47,1,,,,,,,,
,,,,,,,,,,,,,FF,,,,,,,,1.5654,,,,,,,,,,,,,,,,,,,,,,60ff221ab776efc77fa7bcb7,61036f408996f1bc35b6ffd3,2021-07-29_23h17.56.875,Simcolourproject_2stim_asymm_v5,2020.2.10,Linux x86_64,60,61025ae37ef11b136ea224fe,,,,,,,,,1059,36.60040283,-84.76043701,1,0,0,response3disk,,4,25.00549316,-3.097045898,1,0,0,rectangle,25.00549316,-3.097045898,1,0,0,25.00549316,-3.097045898,1,0,0,0,103,103,12,1,,,,,,,,
,,,,,,,,,,,,,FF,,,,,,,,4.0146,,,,,,,,,,,,,,,,,,,,,,60ff221ab776efc77fa7bcb7,61036f408996f1bc35b6ffd3,2021-07-29_23h17.56.875,Simcolourproject_2stim_asymm_v5,2020.2.10,Linux x86_64,60,61025ae37ef11b136ea224fe,,,,,,,,,1410,73.63079834,-81.1000061,1,0,0,response3disk,,4,14.94000244,2.194061279,1,0,0,rectangle,14.94000244,2.194061279,1,0,0,14.94000244,2.194061279,1,0,0,0,104,104,114,1,,,,,,,,
,,,,,,,,,,,,,FF,,,,,,,,1.2832,,,,,,,,,,,,,,,,,,,,,,60ff221ab776efc77fa7bcb7,61036f408996f1bc35b6ffd3,2021-07-29_23h17.56.875,Simcolourproject_2stim_asymm_v5,2020.2.10,Linux x86_64,60,61025ae37ef11b136ea224fe,,,,,,,,,1469,71.89294434,-48.22579956,1,0,0,response3disk,,5,-19.36608887,-0.425354004,1,0,0,rectangle,-19.36608887,-0.425354004,1,0,0,-19.36608887,-0.425354004,1,0,0,0,105,105,92,1,,,,,,,,
,,,,,,,,,,,,,FF,,,,,,,,1.2498,,,,,,,,,,,,,,,,,,,,,,60ff221ab776efc77fa7bcb7,61036f408996f1bc35b6ffd3,2021-07-29_23h17.56.875,Simcolourproject_2stim_asymm_v5,2020.2.10,Linux x86_64,60,61025ae37ef11b136ea224fe,,,,,,,,,431,84.21606445,42.57952881,1,0,0,response1disk,,6,9.028625488,2.49432373,1,0,0,rectangle,9.028625488,2.49432373,1,0,0,9.028625488,2.49432373,1,0,0,0,106,106,99,1,,,,,,,,
,,,,,,,,,,,,,FF,,,,,,,,1.1825,,,,,,,,,,,,,,,,,,,,,,60ff221ab776efc77fa7bcb7,61036f408996f1bc35b6ffd3,2021-07-29_23h17.56.875,Simcolourproject_2stim_asymm_v5,2020.2.10,Linux x86_64,60,61025ae37ef11b136ea224fe,,,,,,,,,2436,91.91479492,64.95819092,1,0,0,response1disk,,6,14.74993896,5.948669434,1,0,0,rectangle,14.74993896,5.948669434,1,0,0,14.74993896,5.948669434,1,0,0,0,107,107,93,1,,,,,,,,
,,,,,,,,,,,,,FF,,,,,,,,2.1491,,,,,,,,,,,,,,,,,,,,,,60ff221ab776efc77fa7bcb7,61036f408996f1bc35b6ffd3,2021-07-29_23h17.56.875,Simcolourproject_2stim_asymm_v5,2020.2.10,Linux x86_64,60,61025ae37ef11b136ea224fe,,,,,,,,,3154,-56.18743896,-99.53060913,1,0,0,response5disk,,3,3.413330078,-2.455932617,1,0,0,rectangle,3.413330078,-2.455932617,1,0,0,3.413330078,-2.455932617,1,0,0,0,108,108,152,1,,,,,,,,
,,,,,,,,,,,,,FF,,,,,,,,2.6342,,,,,,,,,,,,,,,,,,,,,,60ff221ab776efc77fa7bcb7,61036f408996f1bc35b6ffd3,2021-07-29_23h17.56.875,Simcolourproject_2stim_asymm_v5,2020.2.10,Linux x86_64,60,61025ae37ef11b136ea224fe,,,,,,,,,1608,-29.60040283,-68.77450562,1,0,0,response5disk,,3,-0.633056641,1.627960205,1,0,0,rectangle,-0.633056641,1.627960205,1,0,0,-0.633056641,1.627960205,1,0,0,0,109,109,24,1,,,,,,,,
,,,,,,,,,,,,,FF,,,,,,,,2.0833,,,,,,,,,,,,,,,,,,,,,,60ff221ab776efc77fa7bcb7,61036f408996f1bc35b6ffd3,2021-07-29_23h17.56.875,Simcolourproject_2stim_asymm_v5,2020.2.10,Linux x86_64,60,61025ae37ef11b136ea224fe,,,,,,,,,2099,-80.77423096,-40.54837036,1,0,0,response5disk,,2,-13.19750977,10.57522583,1,0,0,rectangle,-13.19750977,10.57522583,1,0,0,-13.19750977,10.57522583,1,0,0,0,110,110,133,1,,,,,,,,
,,,,,,,,,,,,,FF,,,,,,,,2.1503,,,,,,,,,,,,,,,,,,,,,,60ff221ab776efc77fa7bcb7,61036f408996f1bc35b6ffd3,2021-07-29_23h17.56.875,Simcolourproject_2stim_asymm_v5,2020.2.10,Linux x86_64,60,61025ae37ef11b136ea224fe,,,,,,,,,1055,38.61968994,-72.48065186,1,0,0,response3disk,,4,9.277587891,13.13903809,1,0,0,rectangle,9.277587891,13.13903809,1,0,0,9.277587891,13.13903809,1,0,0,0,111,111,2,1,,,,,,,,
,,,,,,,,,,,,,FF,,,,,,,,1.8827,,,,,,,,,,,,,,,,,,,,,,60ff221ab776efc77fa7bcb7,61036f408996f1bc35b6ffd3,2021-07-29_23h17.56.875,Simcolourproject_2stim_asymm_v5,2020.2.10,Linux x86_64,60,61025ae37ef11b136ea224fe,,,,,,,,,2426,49.01043701,-100.7589417,1,0,0,response3disk,,4,-13.71832275,-2.733886719,1,0,0,rectangle,-13.71832275,-2.733886719,1,0,0,-13.71832275,-2.733886719,1,0,0,0,112,112,34,1,,,,,,,,
,,,,,,,,,,,,,FF,,,,,,,,1.8334,,,,,,,,,,,,,,,,,,,,,,60ff221ab776efc77fa7bcb7,61036f408996f1bc35b6ffd3,2021-07-29_23h17.56.875,Simcolourproject_2stim_asymm_v5,2020.2.10,Linux x86_64,60,61025ae37ef11b136ea224fe,,,,,,,,,1108,70.8291626,43.80584717,1,0,0,response1disk,,6,2.044250488,1.117492676,1,0,0,rectangle,2.044250488,1.117492676,1,0,0,2.044250488,1.117492676,1,0,0,0,113,113,146,1,,,,,,,,
,,,,,,,,,,,,,FF,,,,,,,,2.6157,,,,,,,,,,,,,,,,,,,,,,60ff221ab776efc77fa7bcb7,61036f408996f1bc35b6ffd3,2021-07-29_23h17.56.875,Simcolourproject_2stim_asymm_v5,2020.2.10,Linux x86_64,60,61025ae37ef11b136ea224fe,,,,,,,,,4367,-88.52172852,-48.44320679,1,0,0,response5disk,,2,-12.61157227,8.517944336,1,0,0,rectangle,-12.61157227,8.517944336,1,0,0,-12.61157227,8.517944336,1,0,0,0,114,114,15,1,,,,,,,,
,,,,,,,,,,,,,FF,,,,,,,,6.482,,,,,,,,,,,,,,,,,,,,,,60ff221ab776efc77fa7bcb7,61036f408996f1bc35b6ffd3,2021-07-29_23h17.56.875,Simcolourproject_2stim_asymm_v5,2020.2.10,Linux x86_64,60,61025ae37ef11b136ea224fe,,,,,,,,,3774,41.27783203,-96.89355469,1,0,0,response3disk,,4,-5.518981934,-5.268066406,1,0,0,rectangle,-5.518981934,-5.268066406,1,0,0,-5.518981934,-5.268066406,1,0,0,0,115,115,27,1,,,,,,,,
,,,,,,,,,,,,,FF,,,,,,,,1.5204,,,,,,,,,,,,,,,,,,,,,,60ff221ab776efc77fa7bcb7,61036f408996f1bc35b6ffd3,2021-07-29_23h17.56.875,Simcolourproject_2stim_asymm_v5,2020.2.10,Linux x86_64,60,61025ae37ef11b136ea224fe,,,,,,,,,640,-24.63110352,-85.67874146,1,0,0,response5disk,,3,1.667480469,-8.69052124,1,0,0,rectangle,1.667480469,-8.69052124,1,0,0,1.667480469,-8.69052124,1,0,0,0,116,116,113,1,,,,,,,,
,,,,,,,,,,,,,FF,,,,,,,,3.0682,,,,,,,,,,,,,,,,,,,,,,60ff221ab776efc77fa7bcb7,61036f408996f1bc35b6ffd3,2021-07-29_23h17.56.875,Simcolourproject_2stim_asymm_v5,2020.2.10,Linux x86_64,60,61025ae37ef11b136ea224fe,,,,,,,,,828,83.59588623,-34.83758545,1,0,0,response3disk,,5,10.55078125,-6.611938477,1,0,0,rectangle,10.55078125,-6.611938477,1,0,0,10.55078125,-6.611938477,1,0,0,0,117,117,157,1,,,,,,,,
,,,,,,,,,,,,,FF,,,,,,,,1.3832,,,,,,,,,,,,,,,,,,,,,,60ff221ab776efc77fa7bcb7,61036f408996f1bc35b6ffd3,2021-07-29_23h17.56.875,Simcolourproject_2stim_asymm_v5,2020.2.10,Linux x86_64,60,61025ae37ef11b136ea224fe,,,,,,,,,395,83.27209473,-35.25619507,1,0,0,response3disk,,5,-14.04351807,8.394683838,1,0,0,rectangle,-14.04351807,8.394683838,1,0,0,-14.04351807,8.394683838,1,0,0,0,118,118,115,1,,,,,,,,
,,,,,,,,,,,,,FF,,,,,,,,4.2156,,,,,,,,,,,,,,,,,,,,,,60ff221ab776efc77fa7bcb7,61036f408996f1bc35b6ffd3,2021-07-29_23h17.56.875,Simcolourproject_2stim_asymm_v5,2020.2.10,Linux x86_64,60,61025ae37ef11b136ea224fe,,,,,,,,,247,98.14984131,36.97018433,1,0,0,response1disk,,6,22.640625,5.409454346,1,0,0,rectangle,22.640625,5.409454346,1,0,0,22.640625,5.409454346,1,0,0,0,119,119,137,1,,,,,,,,
,,,,,,,,,,,,,FF,,,,,,,,2.1509,,,,,,,,,,,,,,,,,,,,,,60ff221ab776efc77fa7bcb7,61036f408996f1bc35b6ffd3,2021-07-29_23h17.56.875,Simcolourproject_2stim_asymm_v5,2020.2.10,Linux x86_64,60,61025ae37ef11b136ea224fe,,,,,,,,,2774,81.9050293,-29.63818359,1,0,0,response3disk,,5,-1.475036621,11.1925354,1,0,0,rectangle,-1.475036621,11.1925354,1,0,0,-1.475036621,11.1925354,1,0,0,0,120,120,49,1,,,,,,,,
,,,,,,,,,,,,,FF,,,,,,,,1.4818,,,,,,,,,,,,,,,,,,,,,,60ff221ab776efc77fa7bcb7,61036f408996f1bc35b6ffd3,2021-07-29_23h17.56.875,Simcolourproject_2stim_asymm_v5,2020.2.10,Linux x86_64,60,61025ae37ef11b136ea224fe,,,,,,,,,1267,82.20709229,-36.30648804,1,0,0,response3disk,,5,13.91766357,6.395690918,1,0,0,rectangle,13.91766357,6.395690918,1,0,0,13.91766357,6.395690918,1,0,0,0,121,121,39,1,,,,,,,,
,,,,,,,,,,,,,FF,,,,,,,,1.434,,,,,,,,,,,,,,,,,,,,,,60ff221ab776efc77fa7bcb7,61036f408996f1bc35b6ffd3,2021-07-29_23h17.56.875,Simcolourproject_2stim_asymm_v5,2020.2.10,Linux x86_64,60,61025ae37ef11b136ea224fe,,,,,,,,,1075,76.7166748,-33.40447998,1,0,0,response3disk,,5,-3.707519531,-7.501556396,1,0,0,rectangle,-3.707519531,-7.501556396,1,0,0,-3.707519531,-7.501556396,1,0,0,0,122,122,46,1,,,,,,,,
,,,,,,,,,,,,,FF,,,,,,,,3.1646,,,,,,,,,,,,,,,,,,,,,,60ff221ab776efc77fa7bcb7,61036f408996f1bc35b6ffd3,2021-07-29_23h17.56.875,Simcolourproject_2stim_asymm_v5,2020.2.10,Linux x86_64,60,61025ae37ef11b136ea224fe,,,,,,,,,2653,41.67144775,-97.53192139,1,0,0,response3disk,,4,9.440002441,7.339172363,1,0,0,rectangle,9.440002441,7.339172363,1,0,0,9.440002441,7.339172363,1,0,0,0,123,123,122,1,,,,,,,,
,,,,,,,,,,,,,FF,,,,,,,,2.1664,,,,,,,,,,,,,,,,,,,,,,60ff221ab776efc77fa7bcb7,61036f408996f1bc35b6ffd3,2021-07-29_23h17.56.875,Simcolourproject_2stim_asymm_v5,2020.2.10,Linux x86_64,60,61025ae37ef11b136ea224fe,,,,,,,,,4298,82.12249756,-36.92288208,1,0,0,response3disk,,5,12.04956055,11.29998779,1,0,0,rectangle,-75.23699951,46.78335571,1,0,0,-2.486572266,3.565795898,1,0,0,0,124,124,51,1,,response7disk_3,TRUE,1,1,"[38,76,319,281,3,39,286,308,126,59,125,293,155,166,37,15,306,151,214,192]",1.7992,rectangle
,,,,,,,,,,,,,FF,,,,,,,,2.1487,,,,,,,,,,,,,,,,,,,,,,60ff221ab776efc77fa7bcb7,61036f408996f1bc35b6ffd3,2021-07-29_23h17.56.875,Simcolourproject_2stim_asymm_v5,2020.2.10,Linux x86_64,60,61025ae37ef11b136ea224fe,,,,,,,,,1800,69.38946533,-31.76293945,1,0,0,response3disk,,5,18.48760986,-2.608703613,1,0,0,rectangle,-41.51220703,99.98049927,1,0,0,-7.249572754,6.413909912,1,0,0,0,125,125,79,1,,response7disk_3,TRUE,0,0,"[38,76,319,281,3,39,286,308,126,59,125,293,155,166,37,15,306,151,214,192]",2.6331,rectangle
,,,,,,,,,,,,,FF,,,,,,,,2.6503,,,,,,,,,,,,,,,,,,,,,,60ff221ab776efc77fa7bcb7,61036f408996f1bc35b6ffd3,2021-07-29_23h17.56.875,Simcolourproject_2stim_asymm_v5,2020.2.10,Linux x86_64,60,61025ae37ef11b136ea224fe,,,,,,,,,1878,92.80957031,30.47439575,1,0,0,response1disk,,6,11.52154541,0.197998047,1,0,0,rectangle,11.52154541,0.197998047,1,0,0,11.52154541,0.197998047,1,0,0,0,126,126,63,1,,,,,,,,
,,,,,,,,,,,,,FF,,,,,,,,1.4994,,,,,,,,,,,,,,,,,,,,,,60ff221ab776efc77fa7bcb7,61036f408996f1bc35b6ffd3,2021-07-29_23h17.56.875,Simcolourproject_2stim_asymm_v5,2020.2.10,Linux x86_64,60,61025ae37ef11b136ea224fe,,,,,,,,,3727,32.41418457,86.84988403,1,0,0,response1disk,,7,5.307250977,3.10546875,1,0,0,rectangle,5.307250977,3.10546875,1,0,0,5.307250977,3.10546875,1,0,0,0,127,127,78,1,,,,,,,,
,,,,,,,,,,,,,FF,,,,,,,,3.2321,,,,,,,,,,,,,,,,,,,,,,60ff221ab776efc77fa7bcb7,61036f408996f1bc35b6ffd3,2021-07-29_23h17.56.875,Simcolourproject_2stim_asymm_v5,2020.2.10,Linux x86_64,60,61025ae37ef11b136ea224fe,,,,,,,,,347,89.18121338,-28.58010864,1,0,0,response3disk,,5,-9.420837402,-4.598693848,1,0,0,rectangle,-9.420837402,-4.598693848,1,0,0,-9.420837402,-4.598693848,1,0,0,0,128,128,5,1,,,,,,,,
,,,,,,,,,,,,,FF,,,,,,,,2.0823,,,,,,,,,,,,,,,,,,,,,,60ff221ab776efc77fa7bcb7,61036f408996f1bc35b6ffd3,2021-07-29_23h17.56.875,Simcolourproject_2stim_asymm_v5,2020.2.10,Linux x86_64,60,61025ae37ef11b136ea224fe,,,,,,,,,1481,72.94262695,-50.67752075,1,0,0,response3disk,,5,15.70251465,-6.375488281,1,0,0,rectangle,15.70251465,-6.375488281,1,0,0,15.70251465,-6.375488281,1,0,0,0,129,129,155,1,,,,,,,,
,,,,,,,,,,,,,FF,,,,,,,,2.3668,,,,,,,,,,,,,,,,,,,,,,60ff221ab776efc77fa7bcb7,61036f408996f1bc35b6ffd3,2021-07-29_23h17.56.875,Simcolourproject_2stim_asymm_v5,2020.2.10,Linux x86_64,60,61025ae37ef11b136ea224fe,,,,,,,,,3267,95.54943848,29.23873901,1,0,0,response1disk,,6,11.15844727,1.474609375,1,0,0,rectangle,11.15844727,1.474609375,1,0,0,11.15844727,1.474609375,1,0,0,0,130,130,73,1,,,,,,,,
,,,,,,,,,,,,,FF,,,,,,,,1.9986,,,,,,,,,,,,,,,,,,,,,,60ff221ab776efc77fa7bcb7,61036f408996f1bc35b6ffd3,2021-07-29_23h17.56.875,Simcolourproject_2stim_asymm_v5,2020.2.10,Linux x86_64,60,61025ae37ef11b136ea224fe,,,,,,,,,2680,93.32226563,42.3444519,1,0,0,response1disk,,6,11.02478027,-0.021820068,1,0,0,rectangle,11.02478027,-0.021820068,1,0,0,11.02478027,-0.021820068,1,0,0,0,131,131,97,1,,,,,,,,
,,,,,,,,,,,,,FF,,,,,,,,1.4659,,,,,,,,,,,,,,,,,,,,,,60ff221ab776efc77fa7bcb7,61036f408996f1bc35b6ffd3,2021-07-29_23h17.56.875,Simcolourproject_2stim_asymm_v5,2020.2.10,Linux x86_64,60,61025ae37ef11b136ea224fe,,,,,,,,,2150,94.29779053,28.36697388,1,0,0,response1disk,,6,0.907897949,-0.236083984,1,0,0,rectangle,0.907897949,-0.236083984,1,0,0,0.907897949,-0.236083984,1,0,0,0,132,132,65,1,,,,,,,,
,,,,,,,,,,,,,FF,,,,,,,,1.7502,,,,,,,,,,,,,,,,,,,,,,60ff221ab776efc77fa7bcb7,61036f408996f1bc35b6ffd3,2021-07-29_23h17.56.875,Simcolourproject_2stim_asymm_v5,2020.2.10,Linux x86_64,60,61025ae37ef11b136ea224fe,,,,,,,,,1117,84.56689453,-39.12670898,1,0,0,response3disk,,5,-4.920043945,4.044158936,1,0,0,rectangle,-4.920043945,4.044158936,1,0,0,-4.920043945,4.044158936,1,0,0,0,133,133,112,1,,,,,,,,
,,,,,,,,,,,,,FF,,,,,,,,1.6498,,,,,,,,,,,,,,,,,,,,,,60ff221ab776efc77fa7bcb7,61036f408996f1bc35b6ffd3,2021-07-29_23h17.56.875,Simcolourproject_2stim_asymm_v5,2020.2.10,Linux x86_64,60,61025ae37ef11b136ea224fe,,,,,,,,,4151,44.91503906,-102.2409058,1,0,0,response3disk,,4,4.084350586,1.066131592,1,0,0,rectangle,4.084350586,1.066131592,1,0,0,4.084350586,1.066131592,1,0,0,0,134,134,59,1,,,,,,,,
,,,,,,,,,,,,,FF,,,,,,,,4.0496,,,,,,,,,,,,,,,,,,,,,,60ff221ab776efc77fa7bcb7,61036f408996f1bc35b6ffd3,2021-07-29_23h17.56.875,Simcolourproject_2stim_asymm_v5,2020.2.10,Linux x86_64,60,61025ae37ef11b136ea224fe,,,,,,,,,2325,101.0253296,37.13232422,1,0,0,response1disk,,6,5.638427734,-2.786071777,1,0,0,rectangle,5.638427734,-2.786071777,1,0,0,5.638427734,-2.786071777,1,0,0,0,135,135,64,1,,,,,,,,
,,,,,,,,,,,,,FF,,,,,,,,2.4515,,,,,,,,,,,,,,,,,,,,,,60ff221ab776efc77fa7bcb7,61036f408996f1bc35b6ffd3,2021-07-29_23h17.56.875,Simcolourproject_2stim_asymm_v5,2020.2.10,Linux x86_64,60,61025ae37ef11b136ea224fe,,,,,,,,,3805,85.16278076,61.64199829,1,0,0,response1disk,,6,6.413452148,8.22479248,1,0,0,rectangle,6.413452148,8.22479248,1,0,0,6.413452148,8.22479248,1,0,0,0,136,136,103,1,,,,,,,,
,,,,,,,,,,,,,FF,,,,,,,,2.2169,,,,,,,,,,,,,,,,,,,,,,60ff221ab776efc77fa7bcb7,61036f408996f1bc35b6ffd3,2021-07-29_23h17.56.875,Simcolourproject_2stim_asymm_v5,2020.2.10,Linux x86_64,60,61025ae37ef11b136ea224fe,,,,,,,,,2585,66.17950439,-53.63861084,1,0,0,response3disk,,5,6.568603516,0.330780029,1,0,0,rectangle,6.568603516,0.330780029,1,0,0,6.568603516,0.330780029,1,0,0,0,137,137,130,1,,,,,,,,
,,,,,,,,,,,,,FF,,,,,,,,1.9994,,,,,,,,,,,,,,,,,,,,,,60ff221ab776efc77fa7bcb7,61036f408996f1bc35b6ffd3,2021-07-29_23h17.56.875,Simcolourproject_2stim_asymm_v5,2020.2.10,Linux x86_64,60,61025ae37ef11b136ea224fe,,,,,,,,,4216,37.11395264,96.90567017,1,0,0,response1disk,,7,4.176757813,1.963653564,1,0,0,rectangle,4.176757813,1.963653564,1,0,0,4.176757813,1.963653564,1,0,0,0,138,138,83,1,,,,,,,,
,,,,,,,,,,,,,FF,,,,,,,,2.2829,,,,,,,,,,,,,,,,,,,,,,60ff221ab776efc77fa7bcb7,61036f408996f1bc35b6ffd3,2021-07-29_23h17.56.875,Simcolourproject_2stim_asymm_v5,2020.2.10,Linux x86_64,60,61025ae37ef11b136ea224fe,,,,,,,,,1982,82.31756592,-32.4274292,1,0,0,response3disk,,5,-11.98339844,1.550140381,1,0,0,rectangle,-11.98339844,1.550140381,1,0,0,-11.98339844,1.550140381,1,0,0,0,139,139,147,1,,,,,,,,
,,,,,,,,,,,,,FF,,,,,,,,1.1166,,,,,,,,,,,,,,,,,,,,,,60ff221ab776efc77fa7bcb7,61036f408996f1bc35b6ffd3,2021-07-29_23h17.56.875,Simcolourproject_2stim_asymm_v5,2020.2.10,Linux x86_64,60,61025ae37ef11b136ea224fe,,,,,,,,,687,83.92352295,-34.5647583,1,0,0,response3disk,,5,0.14666748,3.716583252,1,0,0,rectangle,0.14666748,3.716583252,1,0,0,0.14666748,3.716583252,1,0,0,0,140,140,35,1,,,,,,,,
,,,,,,,,,,,,,FF,,,,,,,,1.6672,,,,,,,,,,,,,,,,,,,,,,60ff221ab776efc77fa7bcb7,61036f408996f1bc35b6ffd3,2021-07-29_23h17.56.875,Simcolourproject_2stim_asymm_v5,2020.2.10,Linux x86_64,60,61025ae37ef11b136ea224fe,,,,,,,,,248,85.05187988,-32.96936035,1,0,0,response3disk,,5,10.65368652,-0.573913574,1,0,0,rectangle,10.65368652,-0.573913574,1,0,0,10.65368652,-0.573913574,1,0,0,0,141,141,129,1,,,,,,,,
,,,,,,,,,,,,,FF,,,,,,,,2.2142,,,,,,,,,,,,,,,,,,,,,,60ff221ab776efc77fa7bcb7,61036f408996f1bc35b6ffd3,2021-07-29_23h17.56.875,Simcolourproject_2stim_asymm_v5,2020.2.10,Linux x86_64,60,61025ae37ef11b136ea224fe,,,,,,,,,4150,-38.1585083,-100.428772,1,0,0,response5disk,,3,14.67022705,3.797027588,1,0,0,rectangle,14.67022705,3.797027588,1,0,0,14.67022705,3.797027588,1,0,0,0,142,142,144,1,,,,,,,,
,,,,,,,,,,,,,FF,,,,,,,,1.5502,,,,,,,,,,,,,,,,,,,,,,60ff221ab776efc77fa7bcb7,61036f408996f1bc35b6ffd3,2021-07-29_23h17.56.875,Simcolourproject_2stim_asymm_v5,2020.2.10,Linux x86_64,60,61025ae37ef11b136ea224fe,,,,,,,,,3295,-82.62554932,-34.9229126,1,0,0,response5disk,,2,10.37084961,-2.764984131,1,0,0,rectangle,10.37084961,-2.764984131,1,0,0,10.37084961,-2.764984131,1,0,0,0,143,143,139,1,,,,,,,,
,,,,,,,,,,,,,FF,,,,,,,,3.8822,,,,,,,,,,,,,,,,,,,,,,60ff221ab776efc77fa7bcb7,61036f408996f1bc35b6ffd3,2021-07-29_23h17.56.875,Simcolourproject_2stim_asymm_v5,2020.2.10,Linux x86_64,60,61025ae37ef11b136ea224fe,,,,,,,,,3163,35.22766113,-98.6260376,1,0,0,response3disk,,4,-0.211608887,3.223846436,1,0,0,rectangle,-0.211608887,3.223846436,1,0,0,-0.211608887,3.223846436,1,0,0,0,144,144,104,1,,,,,,,,
,,,,,,,,,,,,,FF,,,,,,,,1.9021,,,,,,,,,,,,,,,,,,,,,,60ff221ab776efc77fa7bcb7,61036f408996f1bc35b6ffd3,2021-07-29_23h17.56.875,Simcolourproject_2stim_asymm_v5,2020.2.10,Linux x86_64,60,61025ae37ef11b136ea224fe,,,,,,,,,2975,38.38476563,100.2942505,1,0,0,response1disk,,7,-9.892944336,-4.396820068,1,0,0,rectangle,-9.892944336,-4.396820068,1,0,0,-9.892944336,-4.396820068,1,0,0,0,145,145,89,1,,,,,,,,
,,,,,,,,,,,,,FF,,,,,,,,2.1013,,,,,,,,,,,,,,,,,,,,,,60ff221ab776efc77fa7bcb7,61036f408996f1bc35b6ffd3,2021-07-29_23h17.56.875,Simcolourproject_2stim_asymm_v5,2020.2.10,Linux x86_64,60,61025ae37ef11b136ea224fe,,,,,,,,,3229,95.43432617,40.52435303,1,0,0,response1disk,,6,2.48651123,-2.474273682,1,0,0,rectangle,2.48651123,-2.474273682,1,0,0,2.48651123,-2.474273682,1,0,0,0,146,146,58,1,,,,,,,,
,,,,,,,,,,,,,FF,,,,,,,,2.0345,,,,,,,,,,,,,,,,,,,,,,60ff221ab776efc77fa7bcb7,61036f408996f1bc35b6ffd3,2021-07-29_23h17.56.875,Simcolourproject_2stim_asymm_v5,2020.2.10,Linux x86_64,60,61025ae37ef11b136ea224fe,,,,,,,,,1219,-34.32635498,-96.29348755,1,0,0,response5disk,,3,-2.587097168,-11.48831177,1,0,0,rectangle,-2.587097168,-11.48831177,1,0,0,-2.587097168,-11.48831177,1,0,0,0,147,147,119,1,,,,,,,,
,,,,,,,,,,,,,FF,,,,,,,,2.5997,,,,,,,,,,,,,,,,,,,,,,60ff221ab776efc77fa7bcb7,61036f408996f1bc35b6ffd3,2021-07-29_23h17.56.875,Simcolourproject_2stim_asymm_v5,2020.2.10,Linux x86_64,60,61025ae37ef11b136ea224fe,,,,,,,,,379,-40.79986572,-99.00753784,1,0,0,response5disk,,3,8.673828125,5.711242676,1,0,0,rectangle,8.673828125,5.711242676,1,0,0,8.673828125,5.711242676,1,0,0,0,148,148,56,1,,,,,,,,
,,,,,,,,,,,,,FF,,,,,,,,1.4328,,,,,,,,,,,,,,,,,,,,,,60ff221ab776efc77fa7bcb7,61036f408996f1bc35b6ffd3,2021-07-29_23h17.56.875,Simcolourproject_2stim_asymm_v5,2020.2.10,Linux x86_64,60,61025ae37ef11b136ea224fe,,,,,,,,,1542,-35.90014648,-95.70492554,1,0,0,response5disk,,3,0.890991211,5.670440674,1,0,0,rectangle,0.890991211,5.670440674,1,0,0,0.890991211,5.670440674,1,0,0,0,149,149,66,1,,,,,,,,
,,,,,,,,,,,,,FF,,,,,,,,2.4498,,,,,,,,,,,,,,,,,,,,,,60ff221ab776efc77fa7bcb7,61036f408996f1bc35b6ffd3,2021-07-29_23h17.56.875,Simcolourproject_2stim_asymm_v5,2020.2.10,Linux x86_64,60,61025ae37ef11b136ea224fe,,,,,,,,,2396,101.3912354,39.87319946,1,0,0,response1disk,,6,-5.189880371,-2.928955078,1,0,0,rectangle,-38.35876465,88.5819397,1,0,0,-5.139892578,-6.544494629,1,0,0,0,150,150,28,1,,response7disk_3,TRUE,0,0,"[38,76,319,281,3,39,286,308,126,59,125,293,155,166,37,15,306,151,214,192]",2.2836,rectangle
,,,,,,,,,,,,,FF,,,,,,,,1.3832,,,,,,,,,,,,,,,,,,,,,,60ff221ab776efc77fa7bcb7,61036f408996f1bc35b6ffd3,2021-07-29_23h17.56.875,Simcolourproject_2stim_asymm_v5,2020.2.10,Linux x86_64,60,61025ae37ef11b136ea224fe,,,,,,,,,1725,35.50439453,102.7386475,1,0,0,response1disk,,7,-5.610107422,14.93484497,1,0,0,rectangle,-5.610107422,14.93484497,1,0,0,-5.610107422,14.93484497,1,0,0,0,151,151,6,1,,,,,,,,
,,,,,,,,,,,,,FF,,,,,,,,3.1674,,,,,,,,,,,,,,,,,,,,,,60ff221ab776efc77fa7bcb7,61036f408996f1bc35b6ffd3,2021-07-29_23h17.56.875,Simcolourproject_2stim_asymm_v5,2020.2.10,Linux x86_64,60,61025ae37ef11b136ea224fe,,,,,,,,,1443,-39.72644043,-102.4204407,1,0,0,response5disk,,3,8.031616211,3.876678467,1,0,0,rectangle,8.031616211,3.876678467,1,0,0,8.031616211,3.876678467,1,0,0,0,152,152,116,1,,,,,,,,
,,,,,,,,,,,,,FF,,,,,,,,1.2503,,,,,,,,,,,,,,,,,,,,,,60ff221ab776efc77fa7bcb7,61036f408996f1bc35b6ffd3,2021-07-29_23h17.56.875,Simcolourproject_2stim_asymm_v5,2020.2.10,Linux x86_64,60,61025ae37ef11b136ea224fe,,,,,,,,,3860,76.23199463,-37.2232666,1,0,0,response3disk,,5,13.19958496,-2.022827148,1,0,0,rectangle,13.19958496,-2.022827148,1,0,0,13.19958496,-2.022827148,1,0,0,0,153,153,124,1,,,,,,,,
,,,,,,,,,,,,,FF,,,,,,,,0.8831,,,,,,,,,,,,,,,,,,,,,,60ff221ab776efc77fa7bcb7,61036f408996f1bc35b6ffd3,2021-07-29_23h17.56.875,Simcolourproject_2stim_asymm_v5,2020.2.10,Linux x86_64,60,61025ae37ef11b136ea224fe,,,,,,,,,4212,97.99133301,-34.6725769,1,0,0,response3disk,,5,21.83612061,7.414367676,1,0,0,rectangle,-77.07214355,57.38513184,1,0,0,-25.23278809,-2.387451172,1,0,0,0,154,154,43,1,,response7disk_3,TRUE,1,1,"[38,76,319,281,3,39,286,308,126,59,125,293,155,166,37,15,306,151,214,192]",1.6992,rectangle
,,,,,,,,,,,,,FF,,,,,,,,1.2016,,,,,,,,,,,,,,,,,,,,,,60ff221ab776efc77fa7bcb7,61036f408996f1bc35b6ffd3,2021-07-29_23h17.56.875,Simcolourproject_2stim_asymm_v5,2020.2.10,Linux x86_64,60,61025ae37ef11b136ea224fe,,,,,,,,,3328,-30.72869873,-71.50134277,1,0,0,response5disk,,3,-24.90002441,-3.471282959,1,0,0,rectangle,-24.90002441,-3.471282959,1,0,0,-24.90002441,-3.471282959,1,0,0,0,155,155,44,1,,,,,,,,
,,,,,,,,,,,,,FF,,,,,,,,1.2494,,,,,,,,,,,,,,,,,,,,,,60ff221ab776efc77fa7bcb7,61036f408996f1bc35b6ffd3,2021-07-29_23h17.56.875,Simcolourproject_2stim_asymm_v5,2020.2.10,Linux x86_64,60,61025ae37ef11b136ea224fe,,,,,,,,,2413,27.97094727,-71.0369873,1,0,0,response3disk,,4,4.253723145,-13.76586914,1,0,0,rectangle,4.253723145,-13.76586914,1,0,0,4.253723145,-13.76586914,1,0,0,0,156,156,30,1,,,,,,,,
,,,,,,,,,,,,,FF,,,,,,,,2.0534,,,,,,,,,,,,,,,,,,,,,,60ff221ab776efc77fa7bcb7,61036f408996f1bc35b6ffd3,2021-07-29_23h17.56.875,Simcolourproject_2stim_asymm_v5,2020.2.10,Linux x86_64,60,61025ae37ef11b136ea224fe,,,,,,,,,2640,43.90386963,70.67388916,1,0,0,response1disk,,7,0.856384277,2.383148193,1,0,0,rectangle,0.856384277,2.383148193,1,0,0,0.856384277,2.383148193,1,0,0,0,157,157,71,1,,,,,,,,
,,,,,,,,,,,,,FF,,,,,,,,1.9325,,,,,,,,,,,,,,,,,,,,,,60ff221ab776efc77fa7bcb7,61036f408996f1bc35b6ffd3,2021-07-29_23h17.56.875,Simcolourproject_2stim_asymm_v5,2020.2.10,Linux x86_64,60,61025ae37ef11b136ea224fe,,,,,,,,,2878,97.39251709,48.62322998,1,0,0,response1disk,,6,-13.20172119,2.213134766,1,0,0,rectangle,-13.20172119,2.213134766,1,0,0,-13.20172119,2.213134766,1,0,0,0,158,158,38,1,,,,,,,,
,,,,,,,,,,,,,FF,,,,,,,,1.1508,,,,,,,,,,,,,,,,,,,,,,60ff221ab776efc77fa7bcb7,61036f408996f1bc35b6ffd3,2021-07-29_23h17.56.875,Simcolourproject_2stim_asymm_v5,2020.2.10,Linux x86_64,60,61025ae37ef11b136ea224fe,,,,,,,,,4023,34.1796875,-58.51071167,1,0,0,response3disk,,4,8.891784668,-3.252624512,1,0,0,rectangle,8.891784668,-3.252624512,1,0,0,8.891784668,-3.252624512,1,0,0,0,159,159,131,1,,,,,,,,
,,,,,,,,,,,,,FF,,,,,,,,6.4494,,,,,,,,,,,,,,,,,,,,,,60ff221ab776efc77fa7bcb7,61036f408996f1bc35b6ffd3,2021-07-29_23h17.56.875,Simcolourproject_2stim_asymm_v5,2020.2.10,Linux x86_64,60,61025ae37ef11b136ea224fe,,,,,,,,,498,82.2668457,-34.76364136,1,0,0,response3disk,,5,5.603820801,-6.715118408,1,0,0,rectangle,5.603820801,-6.715118408,1,0,0,5.603820801,-6.715118408,1,0,0,1,0,160,118,1,,,,,,,,
,,,,,,,,,,,,,FF,,,,,,,,1.1982,,,,,,,,,,,,,,,,,,,,,,60ff221ab776efc77fa7bcb7,61036f408996f1bc35b6ffd3,2021-07-29_23h17.56.875,Simcolourproject_2stim_asymm_v5,2020.2.10,Linux x86_64,60,61025ae37ef11b136ea224fe,,,,,,,,,4148,39.79577637,-101.7520752,1,0,0,response3disk,,4,15.50494385,0.589416504,1,0,0,rectangle,15.50494385,0.589416504,1,0,0,15.50494385,0.589416504,1,0,0,1,1,161,10,1,,,,,,,,
,,,,,,,,,,,,,FF,,,,,,,,1.417,,,,,,,,,,,,,,,,,,,,,,60ff221ab776efc77fa7bcb7,61036f408996f1bc35b6ffd3,2021-07-29_23h17.56.875,Simcolourproject_2stim_asymm_v5,2020.2.10,Linux x86_64,60,61025ae37ef11b136ea224fe,,,,,,,,,878,-37.71362305,-94.30331421,1,0,0,response5disk,,3,5.944091797,-3.251251221,1,0,0,rectangle,5.944091797,-3.251251221,1,0,0,5.944091797,-3.251251221,1,0,0,1,2,162,22,1,,,,,,,,
,,,,,,,,,,,,,FF,,,,,,,,1.5844,,,,,,,,,,,,,,,,,,,,,,60ff221ab776efc77fa7bcb7,61036f408996f1bc35b6ffd3,2021-07-29_23h17.56.875,Simcolourproject_2stim_asymm_v5,2020.2.10,Linux x86_64,60,61025ae37ef11b136ea224fe,,,,,,,,,2431,35.60443115,-100.3769836,1,0,0,response3disk,,4,17.57897949,6.036071777,1,0,0,rectangle,17.57897949,6.036071777,1,0,0,17.57897949,6.036071777,1,0,0,1,3,163,107,1,,,,,,,,
,,,,,,,,,,,,,FF,,,,,,,,1.3997,,,,,,,,,,,,,,,,,,,,,,60ff221ab776efc77fa7bcb7,61036f408996f1bc35b6ffd3,2021-07-29_23h17.56.875,Simcolourproject_2stim_asymm_v5,2020.2.10,Linux x86_64,60,61025ae37ef11b136ea224fe,,,,,,,,,2816,92.0057373,37.88928223,1,0,0,response1disk,,6,16.15246582,0.660919189,1,0,0,rectangle,16.15246582,0.660919189,1,0,0,16.15246582,0.660919189,1,0,0,1,4,164,48,1,,,,,,,,
,,,,,,,,,,,,,FF,,,,,,,,1.2331,,,,,,,,,,,,,,,,,,,,,,60ff221ab776efc77fa7bcb7,61036f408996f1bc35b6ffd3,2021-07-29_23h17.56.875,Simcolourproject_2stim_asymm_v5,2020.2.10,Linux x86_64,60,61025ae37ef11b136ea224fe,,,,,,,,,3319,38.25396729,97.30212402,1,0,0,response1disk,,7,10.32373047,13.87466431,1,0,0,rectangle,56.41497803,86.10791016,1,0,0,0.302978516,0.528991699,1,0,0,1,5,165,134,1,,response1disk_3,TRUE,7,7,"[38,76,319,281,3,39,286,308,126,59,125,293,155,166,37,15,306,151,214,192]",2.2149,rectangle
,,,,,,,,,,,,,FF,,,,,,,,1.9664,,,,,,,,,,,,,,,,,,,,,,60ff221ab776efc77fa7bcb7,61036f408996f1bc35b6ffd3,2021-07-29_23h17.56.875,Simcolourproject_2stim_asymm_v5,2020.2.10,Linux x86_64,60,61025ae37ef11b136ea224fe,,,,,,,,,3047,-86.06195068,-24.33572388,1,0,0,response5disk,,2,10.37457275,1.751617432,1,0,0,rectangle,10.37457275,1.751617432,1,0,0,10.37457275,1.751617432,1,0,0,1,6,166,14,1,,,,,,,,
,,,,,,,,,,,,,FF,,,,,,,,5.4338,,,,,,,,,,,,,,,,,,,,,,60ff221ab776efc77fa7bcb7,61036f408996f1bc35b6ffd3,2021-07-29_23h17.56.875,Simcolourproject_2stim_asymm_v5,2020.2.10,Linux x86_64,60,61025ae37ef11b136ea224fe,,,,,,,,,917,40.41619873,-98.94781494,1,0,0,response3disk,,4,-9.614013672,4.413574219,1,0,0,rectangle,-9.614013672,4.413574219,1,0,0,-9.614013672,4.413574219,1,0,0,1,7,167,97,1,,,,,,,,
,,,,,,,,,,,,,FF,,,,,,,,1.7667,,,,,,,,,,,,,,,,,,,,,,60ff221ab776efc77fa7bcb7,61036f408996f1bc35b6ffd3,2021-07-29_23h17.56.875,Simcolourproject_2stim_asymm_v5,2020.2.10,Linux x86_64,60,61025ae37ef11b136ea224fe,,,,,,,,,2968,33.42828369,102.8034058,1,0,0,response1disk,,7,-0.773864746,-6.753753662,1,0,0,rectangle,-0.773864746,-6.753753662,1,0,0,-0.773864746,-6.753753662,1,0,0,1,8,168,133,1,,,,,,,,
,,,,,,,,,,,,,FF,,,,,,,,1.9501,,,,,,,,,,,,,,,,,,,,,,60ff221ab776efc77fa7bcb7,61036f408996f1bc35b6ffd3,2021-07-29_23h17.56.875,Simcolourproject_2stim_asymm_v5,2020.2.10,Linux x86_64,60,61025ae37ef11b136ea224fe,,,,,,,,,4118,-34.29974365,97.06976318,1,0,0,response7disk,,0,-0.598144531,-1.307006836,1,0,0,rectangle,-0.598144531,-1.307006836,1,0,0,-0.598144531,-1.307006836,1,0,0,1,9,169,149,1,,,,,,,,
,,,,,,,,,,,,,FF,,,,,,,,4.2666,,,,,,,,,,,,,,,,,,,,,,60ff221ab776efc77fa7bcb7,61036f408996f1bc35b6ffd3,2021-07-29_23h17.56.875,Simcolourproject_2stim_asymm_v5,2020.2.10,Linux x86_64,60,61025ae37ef11b136ea224fe,,,,,,,,,3421,80.98120117,-36.6519165,1,0,0,response3disk,,5,5.567993164,-8.655181885,1,0,0,rectangle,5.567993164,-8.655181885,1,0,0,5.567993164,-8.655181885,1,0,0,1,10,170,87,1,,,,,,,,
,,,,,,,,,,,,,FF,,,,,,,,2.0832,,,,,,,,,,,,,,,,,,,,,,60ff221ab776efc77fa7bcb7,61036f408996f1bc35b6ffd3,2021-07-29_23h17.56.875,Simcolourproject_2stim_asymm_v5,2020.2.10,Linux x86_64,60,61025ae37ef11b136ea224fe,,,,,,,,,4074,100.0470581,34.73721313,1,0,0,response1disk,,6,11.37860107,-7.80166626,1,0,0,rectangle,11.37860107,-7.80166626,1,0,0,11.37860107,-7.80166626,1,0,0,1,11,171,123,1,,,,,,,,
,,,,,,,,,,,,,FF,,,,,,,,1.5164,,,,,,,,,,,,,,,,,,,,,,60ff221ab776efc77fa7bcb7,61036f408996f1bc35b6ffd3,2021-07-29_23h17.56.875,Simcolourproject_2stim_asymm_v5,2020.2.10,Linux x86_64,60,61025ae37ef11b136ea224fe,,,,,,,,,4191,39.01098633,102.3895264,1,0,0,response1disk,,7,3.31640625,-1.926116943,1,0,0,rectangle,3.31640625,-1.926116943,1,0,0,3.31640625,-1.926116943,1,0,0,1,12,172,11,1,,,,,,,,
,,,,,,,,,,,,,FF,,,,,,,,2.0502,,,,,,,,,,,,,,,,,,,,,,60ff221ab776efc77fa7bcb7,61036f408996f1bc35b6ffd3,2021-07-29_23h17.56.875,Simcolourproject_2stim_asymm_v5,2020.2.10,Linux x86_64,60,61025ae37ef11b136ea224fe,,,,,,,,,2549,43.13720703,-99.34185791,1,0,0,response3disk,,4,2.48651123,11.1385498,1,0,0,rectangle,2.48651123,11.1385498,1,0,0,2.48651123,11.1385498,1,0,0,1,13,173,37,1,,,,,,,,
,,,,,,,,,,,,,FF,,,,,,,,1.4165,,,,,,,,,,,,,,,,,,,,,,60ff221ab776efc77fa7bcb7,61036f408996f1bc35b6ffd3,2021-07-29_23h17.56.875,Simcolourproject_2stim_asymm_v5,2020.2.10,Linux x86_64,60,61025ae37ef11b136ea224fe,,,,,,,,,810,36.42645264,-101.6678467,1,0,0,response3disk,,4,0.050598145,-4.019897461,1,0,0,rectangle,0.050598145,-4.019897461,1,0,0,0.050598145,-4.019897461,1,0,0,1,14,174,76,1,,,,,,,,
,,,,,,,,,,,,,FF,,,,,,,,2.5818,,,,,,,,,,,,,,,,,,,,,,60ff221ab776efc77fa7bcb7,61036f408996f1bc35b6ffd3,2021-07-29_23h17.56.875,Simcolourproject_2stim_asymm_v5,2020.2.10,Linux x86_64,60,61025ae37ef11b136ea224fe,,,,,,,,,178,94.46240234,32.47937012,1,0,0,response1disk,,6,4.916748047,7.516937256,1,0,0,rectangle,4.916748047,7.516937256,1,0,0,4.916748047,7.516937256,1,0,0,1,15,175,131,1,,,,,,,,
,,,,,,,,,,,,,FF,,,,,,,,2.3371,,,,,,,,,,,,,,,,,,,,,,60ff221ab776efc77fa7bcb7,61036f408996f1bc35b6ffd3,2021-07-29_23h17.56.875,Simcolourproject_2stim_asymm_v5,2020.2.10,Linux x86_64,60,61025ae37ef11b136ea224fe,,,,,,,,,3099,-46.28088379,-94.43121338,1,0,0,response5disk,,3,-11.69647217,6.145568848,1,0,0,rectangle,-11.69647217,6.145568848,1,0,0,-11.69647217,6.145568848,1,0,0,1,16,176,5,1,,,,,,,,
,,,,,,,,,,,,,FF,,,,,,,,1.2317,,,,,,,,,,,,,,,,,,,,,,60ff221ab776efc77fa7bcb7,61036f408996f1bc35b6ffd3,2021-07-29_23h17.56.875,Simcolourproject_2stim_asymm_v5,2020.2.10,Linux x86_64,60,61025ae37ef11b136ea224fe,,,,,,,,,1230,-44.78466797,-104.8068237,1,0,0,response5disk,,3,9.18548584,3.895935059,1,0,0,rectangle,9.18548584,3.895935059,1,0,0,9.18548584,3.895935059,1,0,0,1,17,177,129,1,,,,,,,,
,,,,,,,,,,,,,FF,,,,,,,,1.7832,,,,,,,,,,,,,,,,,,,,,,60ff221ab776efc77fa7bcb7,61036f408996f1bc35b6ffd3,2021-07-29_23h17.56.875,Simcolourproject_2stim_asymm_v5,2020.2.10,Linux x86_64,60,61025ae37ef11b136ea224fe,,,,,,,,,852,95.98309326,41.16036987,1,0,0,response1disk,,6,7.487121582,2.396484375,1,0,0,rectangle,7.487121582,2.396484375,1,0,0,7.487121582,2.396484375,1,0,0,1,18,178,53,1,,,,,,,,
,,,,,,,,,,,,,FF,,,,,,,,2.8174,,,,,,,,,,,,,,,,,,,,,,60ff221ab776efc77fa7bcb7,61036f408996f1bc35b6ffd3,2021-07-29_23h17.56.875,Simcolourproject_2stim_asymm_v5,2020.2.10,Linux x86_64,60,61025ae37ef11b136ea224fe,,,,,,,,,695,46.4319458,-92.25158691,1,0,0,response3disk,,4,2.546264648,-1.189422607,1,0,0,rectangle,2.546264648,-1.189422607,1,0,0,2.546264648,-1.189422607,1,0,0,1,19,179,148,1,,,,,,,,
,,,,,,,,,,,,,FF,,,,,,,,2.8494,,,,,,,,,,,,,,,,,,,,,,60ff221ab776efc77fa7bcb7,61036f408996f1bc35b6ffd3,2021-07-29_23h17.56.875,Simcolourproject_2stim_asymm_v5,2020.2.10,Linux x86_64,60,61025ae37ef11b136ea224fe,,,,,,,,,4300,94.7300415,45.80755615,1,0,0,response1disk,,6,3.126586914,-0.946533203,1,0,0,rectangle,3.126586914,-0.946533203,1,0,0,3.126586914,-0.946533203,1,0,0,1,20,180,88,1,,,,,,,,
,,,,,,,,,,,,,FF,,,,,,,,1.6018,,,,,,,,,,,,,,,,,,,,,,60ff221ab776efc77fa7bcb7,61036f408996f1bc35b6ffd3,2021-07-29_23h17.56.875,Simcolourproject_2stim_asymm_v5,2020.2.10,Linux x86_64,60,61025ae37ef11b136ea224fe,,,,,,,,,3008,40.4576416,106.8200989,1,0,0,response1disk,,7,-7.932434082,1.162200928,1,0,0,rectangle,-7.932434082,1.162200928,1,0,0,-7.932434082,1.162200928,1,0,0,1,21,181,38,1,,,,,,,,
,,,,,,,,,,,,,FF,,,,,,,,1.9331,,,,,,,,,,,,,,,,,,,,,,60ff221ab776efc77fa7bcb7,61036f408996f1bc35b6ffd3,2021-07-29_23h17.56.875,Simcolourproject_2stim_asymm_v5,2020.2.10,Linux x86_64,60,61025ae37ef11b136ea224fe,,,,,,,,,2837,39.80462646,-104.3850708,1,0,0,response3disk,,4,7.803588867,0.755004883,1,0,0,rectangle,7.803588867,0.755004883,1,0,0,7.803588867,0.755004883,1,0,0,1,22,182,110,1,,,,,,,,
,,,,,,,,,,,,,FF,,,,,,,,1.8157,,,,,,,,,,,,,,,,,,,,,,60ff221ab776efc77fa7bcb7,61036f408996f1bc35b6ffd3,2021-07-29_23h17.56.875,Simcolourproject_2stim_asymm_v5,2020.2.10,Linux x86_64,60,61025ae37ef11b136ea224fe,,,,,,,,,1610,-83.88195801,-34.93148804,1,0,0,response5disk,,2,-12.76727295,-8.086578369,1,0,0,rectangle,-12.76727295,-8.086578369,1,0,0,-12.76727295,-8.086578369,1,0,0,1,23,183,153,1,,,,,,,,
,,,,,,,,,,,,,FF,,,,,,,,1.9164,,,,,,,,,,,,,,,,,,,,,,60ff221ab776efc77fa7bcb7,61036f408996f1bc35b6ffd3,2021-07-29_23h17.56.875,Simcolourproject_2stim_asymm_v5,2020.2.10,Linux x86_64,60,61025ae37ef11b136ea224fe,,,,,,,,,2384,39.22515869,102.9560547,1,0,0,response1disk,,7,2.910217285,2.919769287,1,0,0,rectangle,2.910217285,2.919769287,1,0,0,2.910217285,2.919769287,1,0,0,1,24,184,18,1,,,,,,,,
,,,,,,,,,,,,,FF,,,,,,,,1.5995,,,,,,,,,,,,,,,,,,,,,,60ff221ab776efc77fa7bcb7,61036f408996f1bc35b6ffd3,2021-07-29_23h17.56.875,Simcolourproject_2stim_asymm_v5,2020.2.10,Linux x86_64,60,61025ae37ef11b136ea224fe,,,,,,,,,1353,101.6467285,38.32727051,1,0,0,response1disk,,6,6.406188965,-2.841247559,1,0,0,rectangle,6.406188965,-2.841247559,1,0,0,6.406188965,-2.841247559,1,0,0,1,25,185,44,1,,,,,,,,
,,,,,,,,,,,,,FF,,,,,,,,1.5309,,,,,,,,,,,,,,,,,,,,,,60ff221ab776efc77fa7bcb7,61036f408996f1bc35b6ffd3,2021-07-29_23h17.56.875,Simcolourproject_2stim_asymm_v5,2020.2.10,Linux x86_64,60,61025ae37ef11b136ea224fe,,,,,,,,,1875,34.78814697,103.0447693,1,0,0,response1disk,,7,-0.881835938,-3.637237549,1,0,0,rectangle,-0.881835938,-3.637237549,1,0,0,-0.881835938,-3.637237549,1,0,0,1,26,186,64,1,,,,,,,,
,,,,,,,,,,,,,FF,,,,,,,,0.9999,,,,,,,,,,,,,,,,,,,,,,60ff221ab776efc77fa7bcb7,61036f408996f1bc35b6ffd3,2021-07-29_23h17.56.875,Simcolourproject_2stim_asymm_v5,2020.2.10,Linux x86_64,60,61025ae37ef11b136ea224fe,,,,,,,,,2754,39.50964355,103.7211914,1,0,0,response1disk,,7,-0.526306152,5.525970459,1,0,0,rectangle,-0.526306152,5.525970459,1,0,0,-0.526306152,5.525970459,1,0,0,1,27,187,36,1,,,,,,,,
,,,,,,,,,,,,,FF,,,,,,,,1.0659,,,,,,,,,,,,,,,,,,,,,,60ff221ab776efc77fa7bcb7,61036f408996f1bc35b6ffd3,2021-07-29_23h17.56.875,Simcolourproject_2stim_asymm_v5,2020.2.10,Linux x86_64,60,61025ae37ef11b136ea224fe,,,,,,,,,868,28.84466553,105.832489,1,0,0,response1disk,,7,8.997497559,3.631378174,1,0,0,rectangle,8.997497559,3.631378174,1,0,0,8.997497559,3.631378174,1,0,0,1,28,188,24,1,,,,,,,,
,,,,,,,,,,,,,FF,,,,,,,,1.648,,,,,,,,,,,,,,,,,,,,,,60ff221ab776efc77fa7bcb7,61036f408996f1bc35b6ffd3,2021-07-29_23h17.56.875,Simcolourproject_2stim_asymm_v5,2020.2.10,Linux x86_64,60,61025ae37ef11b136ea224fe,,,,,,,,,2604,-38.30053711,-101.5027466,1,0,0,response5disk,,3,5.128601074,-4.455993652,1,0,0,rectangle,5.128601074,-4.455993652,1,0,0,5.128601074,-4.455993652,1,0,0,1,29,189,85,1,,,,,,,,
,,,,,,,,,,,,,FF,,,,,,,,1.7344,,,,,,,,,,,,,,,,,,,,,,60ff221ab776efc77fa7bcb7,61036f408996f1bc35b6ffd3,2021-07-29_23h17.56.875,Simcolourproject_2stim_asymm_v5,2020.2.10,Linux x86_64,60,61025ae37ef11b136ea224fe,,,,,,,,,2102,-43.66345215,-97.94372559,1,0,0,response5disk,,3,3.070495605,2.086181641,1,0,0,rectangle,3.070495605,2.086181641,1,0,0,3.070495605,2.086181641,1,0,0,1,30,190,102,1,,,,,,,,
,,,,,,,,,,,,,FF,,,,,,,,1.5491,,,,,,,,,,,,,,,,,,,,,,60ff221ab776efc77fa7bcb7,61036f408996f1bc35b6ffd3,2021-07-29_23h17.56.875,Simcolourproject_2stim_asymm_v5,2020.2.10,Linux x86_64,60,61025ae37ef11b136ea224fe,,,,,,,,,3213,95.24304199,39.3187561,1,0,0,response1disk,,6,-0.744384766,1.951324463,1,0,0,rectangle,-39.85339355,67.10852051,1,0,0,-14.2532959,-4.68850708,1,0,0,1,31,191,109,1,,response7disk_3,TRUE,0,0,"[38,76,319,281,3,39,286,308,126,59,125,293,155,166,37,15,306,151,214,192]",1.6158,rectangle
,,,,,,,,,,,,,FF,,,,,,,,1.2501,,,,,,,,,,,,,,,,,,,,,,60ff221ab776efc77fa7bcb7,61036f408996f1bc35b6ffd3,2021-07-29_23h17.56.875,Simcolourproject_2stim_asymm_v5,2020.2.10,Linux x86_64,60,61025ae37ef11b136ea224fe,,,,,,,,,148,88.27972412,42.50418091,1,0,0,response1disk,,6,6.070068359,-0.407684326,1,0,0,rectangle,6.070068359,-0.407684326,1,0,0,6.070068359,-0.407684326,1,0,0,1,32,192,70,1,,,,,,,,
,,,,,,,,,,,,,FF,,,,,,,,1.632,,,,,,,,,,,,,,,,,,,,,,60ff221ab776efc77fa7bcb7,61036f408996f1bc35b6ffd3,2021-07-29_23h17.56.875,Simcolourproject_2stim_asymm_v5,2020.2.10,Linux x86_64,60,61025ae37ef11b136ea224fe,,,,,,,,,394,41.54852295,-97.0617981,1,0,0,response3disk,,4,-10.25982666,4.849731445,1,0,0,rectangle,-10.25982666,4.849731445,1,0,0,-10.25982666,4.849731445,1,0,0,1,33,193,57,1,,,,,,,,
,,,,,,,,,,,,,FF,,,,,,,,2,,,,,,,,,,,,,,,,,,,,,,60ff221ab776efc77fa7bcb7,61036f408996f1bc35b6ffd3,2021-07-29_23h17.56.875,Simcolourproject_2stim_asymm_v5,2020.2.10,Linux x86_64,60,61025ae37ef11b136ea224fe,,,,,,,,,2475,84.81542969,-42.19717407,1,0,0,response3disk,,5,15.18444824,0.827453613,1,0,0,rectangle,15.18444824,0.827453613,1,0,0,15.18444824,0.827453613,1,0,0,1,34,194,6,1,,,,,,,,
,,,,,,,,,,,,,FF,,,,,,,,2.0672,,,,,,,,,,,,,,,,,,,,,,60ff221ab776efc77fa7bcb7,61036f408996f1bc35b6ffd3,2021-07-29_23h17.56.875,Simcolourproject_2stim_asymm_v5,2020.2.10,Linux x86_64,60,61025ae37ef11b136ea224fe,,,,,,,,,235,41.37780762,105.8644714,1,0,0,response1disk,,7,-13.61828613,-0.89831543,1,0,0,rectangle,-13.61828613,-0.89831543,1,0,0,-13.61828613,-0.89831543,1,0,0,1,35,195,26,1,,,,,,,,
,,,,,,,,,,,,,FF,,,,,,,,1.8652,,,,,,,,,,,,,,,,,,,,,,60ff221ab776efc77fa7bcb7,61036f408996f1bc35b6ffd3,2021-07-29_23h17.56.875,Simcolourproject_2stim_asymm_v5,2020.2.10,Linux x86_64,60,61025ae37ef11b136ea224fe,,,,,,,,,362,36.47979736,99.95092773,1,0,0,response1disk,,7,-3.088378906,-0.349395752,1,0,0,rectangle,-3.088378906,-0.349395752,1,0,0,-3.088378906,-0.349395752,1,0,0,1,36,196,121,1,,,,,,,,
,,,,,,,,,,,,,FF,,,,,,,,1.9658,,,,,,,,,,,,,,,,,,,,,,60ff221ab776efc77fa7bcb7,61036f408996f1bc35b6ffd3,2021-07-29_23h17.56.875,Simcolourproject_2stim_asymm_v5,2020.2.10,Linux x86_64,60,61025ae37ef11b136ea224fe,,,,,,,,,1237,45.58392334,-104.7782288,1,0,0,response3disk,,4,-4.390014648,-6.90814209,1,0,0,rectangle,-4.390014648,-6.90814209,1,0,0,-4.390014648,-6.90814209,1,0,0,1,37,197,108,1,,,,,,,,
,,,,,,,,,,,,,FF,,,,,,,,2.3668,,,,,,,,,,,,,,,,,,,,,,60ff221ab776efc77fa7bcb7,61036f408996f1bc35b6ffd3,2021-07-29_23h17.56.875,Simcolourproject_2stim_asymm_v5,2020.2.10,Linux x86_64,60,61025ae37ef11b136ea224fe,,,,,,,,,3098,-33.99163818,-99.35845947,1,0,0,response5disk,,3,-18.6428833,-3.573547363,1,0,0,rectangle,-18.6428833,-3.573547363,1,0,0,-18.6428833,-3.573547363,1,0,0,1,38,198,105,1,,,,,,,,
,,,,,,,,,,,,,FF,,,,,,,,2.4647,,,,,,,,,,,,,,,,,,,,,,60ff221ab776efc77fa7bcb7,61036f408996f1bc35b6ffd3,2021-07-29_23h17.56.875,Simcolourproject_2stim_asymm_v5,2020.2.10,Linux x86_64,60,61025ae37ef11b136ea224fe,,,,,,,,,3224,87.13378906,-39.76483154,1,0,0,response3disk,,5,-4.585388184,7.905517578,1,0,0,rectangle,-4.585388184,7.905517578,1,0,0,-4.585388184,7.905517578,1,0,0,1,39,199,75,1,,,,,,,,
,,,,,,,,,,,,,FF,,,,,,,,1.9503,,,,,,,,,,,,,,,,,,,,,,60ff221ab776efc77fa7bcb7,61036f408996f1bc35b6ffd3,2021-07-29_23h17.56.875,Simcolourproject_2stim_asymm_v5,2020.2.10,Linux x86_64,60,61025ae37ef11b136ea224fe,,,,,,,,,302,36.64807129,97.45602417,1,0,0,response1disk,,7,-0.546081543,3.931182861,1,0,0,rectangle,-0.546081543,3.931182861,1,0,0,-0.546081543,3.931182861,1,0,0,1,40,200,49,1,,,,,,,,
,,,,,,,,,,,,,FF,,,,,,,,1.5834,,,,,,,,,,,,,,,,,,,,,,60ff221ab776efc77fa7bcb7,61036f408996f1bc35b6ffd3,2021-07-29_23h17.56.875,Simcolourproject_2stim_asymm_v5,2020.2.10,Linux x86_64,60,61025ae37ef11b136ea224fe,,,,,,,,,1527,-39.35247803,-94.01504517,1,0,0,response5disk,,3,-4.277282715,-1.873443604,1,0,0,rectangle,-4.277282715,-1.873443604,1,0,0,-4.277282715,-1.873443604,1,0,0,1,41,201,144,1,,,,,,,,
,,,,,,,,,,,,,FF,,,,,,,,1.3971,,,,,,,,,,,,,,,,,,,,,,60ff221ab776efc77fa7bcb7,61036f408996f1bc35b6ffd3,2021-07-29_23h17.56.875,Simcolourproject_2stim_asymm_v5,2020.2.10,Linux x86_64,60,61025ae37ef11b136ea224fe,,,,,,,,,837,43.77258301,-84.80563354,1,0,0,response3disk,,4,-3.468139648,-0.218383789,1,0,0,rectangle,-3.468139648,-0.218383789,1,0,0,-3.468139648,-0.218383789,1,0,0,1,42,202,140,1,,,,,,,,
,,,,,,,,,,,,,FF,,,,,,,,1.1824,,,,,,,,,,,,,,,,,,,,,,60ff221ab776efc77fa7bcb7,61036f408996f1bc35b6ffd3,2021-07-29_23h17.56.875,Simcolourproject_2stim_asymm_v5,2020.2.10,Linux x86_64,60,61025ae37ef11b136ea224fe,,,,,,,,,2031,-46.47271729,-101.6803284,1,0,0,response5disk,,3,3.975036621,-1.843994141,1,0,0,rectangle,3.975036621,-1.843994141,1,0,0,3.975036621,-1.843994141,1,0,0,1,43,203,132,1,,,,,,,,
,,,,,,,,,,,,,FF,,,,,,,,1.3487,,,,,,,,,,,,,,,,,,,,,,60ff221ab776efc77fa7bcb7,61036f408996f1bc35b6ffd3,2021-07-29_23h17.56.875,Simcolourproject_2stim_asymm_v5,2020.2.10,Linux x86_64,60,61025ae37ef11b136ea224fe,,,,,,,,,3314,95.92150879,47.78311157,1,0,0,response1disk,,6,15.37200928,-0.439422607,1,0,0,rectangle,15.37200928,-0.439422607,1,0,0,15.37200928,-0.439422607,1,0,0,1,44,204,55,1,,,,,,,,
,,,,,,,,,,,,,FF,,,,,,,,1.4145,,,,,,,,,,,,,,,,,,,,,,60ff221ab776efc77fa7bcb7,61036f408996f1bc35b6ffd3,2021-07-29_23h17.56.875,Simcolourproject_2stim_asymm_v5,2020.2.10,Linux x86_64,60,61025ae37ef11b136ea224fe,,,,,,,,,2281,42.36682129,92.00695801,1,0,0,response1disk,,7,4.436828613,-0.937652588,1,0,0,rectangle,4.436828613,-0.937652588,1,0,0,4.436828613,-0.937652588,1,0,0,1,45,205,136,1,,,,,,,,
,,,,,,,,,,,,,FF,,,,,,,,1.0314,,,,,,,,,,,,,,,,,,,,,,60ff221ab776efc77fa7bcb7,61036f408996f1bc35b6ffd3,2021-07-29_23h17.56.875,Simcolourproject_2stim_asymm_v5,2020.2.10,Linux x86_64,60,61025ae37ef11b136ea224fe,,,,,,,,,343,-38.90661621,-101.3308411,1,0,0,response5disk,,3,5.77532959,-6.297119141,1,0,0,rectangle,5.77532959,-6.297119141,1,0,0,5.77532959,-6.297119141,1,0,0,1,46,206,65,1,,,,,,,,
,,,,,,,,,,,,,FF,,,,,,,,1.2997,,,,,,,,,,,,,,,,,,,,,,60ff221ab776efc77fa7bcb7,61036f408996f1bc35b6ffd3,2021-07-29_23h17.56.875,Simcolourproject_2stim_asymm_v5,2020.2.10,Linux x86_64,60,61025ae37ef11b136ea224fe,,,,,,,,,1780,76.63531494,-37.41720581,1,0,0,response3disk,,5,5.96270752,-4.302337646,1,0,0,rectangle,5.96270752,-4.302337646,1,0,0,5.96270752,-4.302337646,1,0,0,1,47,207,21,1,,,,,,,,
,,,,,,,,,,,,,FF,,,,,,,,1.3322,,,,,,,,,,,,,,,,,,,,,,60ff221ab776efc77fa7bcb7,61036f408996f1bc35b6ffd3,2021-07-29_23h17.56.875,Simcolourproject_2stim_asymm_v5,2020.2.10,Linux x86_64,60,61025ae37ef11b136ea224fe,,,,,,,,,1910,91.34362793,39.78295898,1,0,0,response1disk,,6,3.551818848,-7.143951416,1,0,0,rectangle,3.551818848,-7.143951416,1,0,0,3.551818848,-7.143951416,1,0,0,1,48,208,72,1,,,,,,,,
,,,,,,,,,,,,,FF,,,,,,,,1.9828,,,,,,,,,,,,,,,,,,,,,,60ff221ab776efc77fa7bcb7,61036f408996f1bc35b6ffd3,2021-07-29_23h17.56.875,Simcolourproject_2stim_asymm_v5,2020.2.10,Linux x86_64,60,61025ae37ef11b136ea224fe,,,,,,,,,1537,47.2388916,-94.67889404,1,0,0,response3disk,,4,6.243591309,-6.594146729,1,0,0,rectangle,6.243591309,-6.594146729,1,0,0,6.243591309,-6.594146729,1,0,0,1,49,209,67,1,,,,,,,,
,,,,,,,,,,,,,FF,,,,,,,,0.9999,,,,,,,,,,,,,,,,,,,,,,60ff221ab776efc77fa7bcb7,61036f408996f1bc35b6ffd3,2021-07-29_23h17.56.875,Simcolourproject_2stim_asymm_v5,2020.2.10,Linux x86_64,60,61025ae37ef11b136ea224fe,,,,,,,,,51,72.37091064,-37.67312622,1,0,0,response3disk,,5,-8.659851074,-9.342468262,1,0,0,rectangle,-8.659851074,-9.342468262,1,0,0,-8.659851074,-9.342468262,1,0,0,1,50,210,34,1,,,,,,,,
,,,,,,,,,,,,,FF,,,,,,,,1.9324,,,,,,,,,,,,,,,,,,,,,,60ff221ab776efc77fa7bcb7,61036f408996f1bc35b6ffd3,2021-07-29_23h17.56.875,Simcolourproject_2stim_asymm_v5,2020.2.10,Linux x86_64,60,61025ae37ef11b136ea224fe,,,,,,,,,1018,98.26226807,34.80273438,1,0,0,response1disk,,6,18.70635986,3.443847656,1,0,0,rectangle,18.70635986,3.443847656,1,0,0,18.70635986,3.443847656,1,0,0,1,51,211,113,1,,,,,,,,
,,,,,,,,,,,,,FF,,,,,,,,1.6335,,,,,,,,,,,,,,,,,,,,,,60ff221ab776efc77fa7bcb7,61036f408996f1bc35b6ffd3,2021-07-29_23h17.56.875,Simcolourproject_2stim_asymm_v5,2020.2.10,Linux x86_64,60,61025ae37ef11b136ea224fe,,,,,,,,,366,-82.15631104,50.368927,1,0,0,response7disk,,1,-22.54718018,7.914855957,1,0,0,rectangle,-22.54718018,7.914855957,1,0,0,-22.54718018,7.914855957,1,0,0,1,52,212,30,1,,,,,,,,
,,,,,,,,,,,,,FF,,,,,,,,1.2838,,,,,,,,,,,,,,,,,,,,,,60ff221ab776efc77fa7bcb7,61036f408996f1bc35b6ffd3,2021-07-29_23h17.56.875,Simcolourproject_2stim_asymm_v5,2020.2.10,Linux x86_64,60,61025ae37ef11b136ea224fe,,,,,,,,,1388,-64.965271,-73.93109131,1,0,0,response5disk,,3,12.03088379,5.83770752,1,0,0,rectangle,78.50744629,-32.89263916,1,0,0,10.16369629,-3.274841309,1,0,0,1,53,213,50,1,,response3disk_3,TRUE,5,5,"[38,76,319,281,3,39,286,308,126,59,125,293,155,166,37,15,306,151,214,192]",1.3823,rectangle
,,,,,,,,,,,,,FF,,,,,,,,1.0001,,,,,,,,,,,,,,,,,,,,,,60ff221ab776efc77fa7bcb7,61036f408996f1bc35b6ffd3,2021-07-29_23h17.56.875,Simcolourproject_2stim_asymm_v5,2020.2.10,Linux x86_64,60,61025ae37ef11b136ea224fe,,,,,,,,,368,-57.86090088,33.39266968,1,0,0,response7disk,,1,-12.00769043,0.046447754,1,0,0,rectangle,-12.00769043,0.046447754,1,0,0,-12.00769043,0.046447754,1,0,0,1,54,214,43,1,,,,,,,,
,,,,,,,,,,,,,FF,,,,,,,,1.4657,,,,,,,,,,,,,,,,,,,,,,60ff221ab776efc77fa7bcb7,61036f408996f1bc35b6ffd3,2021-07-29_23h17.56.875,Simcolourproject_2stim_asymm_v5,2020.2.10,Linux x86_64,60,61025ae37ef11b136ea224fe,,,,,,,,,2063,45.13171387,-72.73355103,1,0,0,response3disk,,4,-2.59375,7.366149902,1,0,0,rectangle,-2.59375,7.366149902,1,0,0,-2.59375,7.366149902,1,0,0,1,55,215,79,1,,,,,,,,
,,,,,,,,,,,,,FF,,,,,,,,1.168,,,,,,,,,,,,,,,,,,,,,,60ff221ab776efc77fa7bcb7,61036f408996f1bc35b6ffd3,2021-07-29_23h17.56.875,Simcolourproject_2stim_asymm_v5,2020.2.10,Linux x86_64,60,61025ae37ef11b136ea224fe,,,,,,,,,1823,-31.16656494,-77.26446533,1,0,0,response5disk,,3,10.16625977,7.599456787,1,0,0,rectangle,10.16625977,7.599456787,1,0,0,10.16625977,7.599456787,1,0,0,1,56,216,29,1,,,,,,,,
,,,,,,,,,,,,,FF,,,,,,,,1.1497,,,,,,,,,,,,,,,,,,,,,,60ff221ab776efc77fa7bcb7,61036f408996f1bc35b6ffd3,2021-07-29_23h17.56.875,Simcolourproject_2stim_asymm_v5,2020.2.10,Linux x86_64,60,61025ae37ef11b136ea224fe,,,,,,,,,4076,-37.89685059,-81.25704956,1,0,0,response5disk,,3,3.410705566,-5.704864502,1,0,0,rectangle,3.410705566,-5.704864502,1,0,0,3.410705566,-5.704864502,1,0,0,1,57,217,100,1,,,,,,,,
,,,,,,,,,,,,,FF,,,,,,,,1.1998,,,,,,,,,,,,,,,,,,,,,,60ff221ab776efc77fa7bcb7,61036f408996f1bc35b6ffd3,2021-07-29_23h17.56.875,Simcolourproject_2stim_asymm_v5,2020.2.10,Linux x86_64,60,61025ae37ef11b136ea224fe,,,,,,,,,1162,43.12536621,-60.83792114,1,0,0,response3disk,,4,10.68469238,-0.303009033,1,0,0,rectangle,10.68469238,-0.303009033,1,0,0,10.68469238,-0.303009033,1,0,0,1,58,218,84,1,,,,,,,,
,,,,,,,,,,,,,FF,,,,,,,,1.615,,,,,,,,,,,,,,,,,,,,,,60ff221ab776efc77fa7bcb7,61036f408996f1bc35b6ffd3,2021-07-29_23h17.56.875,Simcolourproject_2stim_asymm_v5,2020.2.10,Linux x86_64,60,61025ae37ef11b136ea224fe,,,,,,,,,507,64.85162354,61.39538574,1,0,0,response1disk,,6,25.45111084,11.11538696,1,0,0,rectangle,25.45111084,11.11538696,1,0,0,25.45111084,11.11538696,1,0,0,1,59,219,128,1,,,,,,,,
,,,,,,,,,,,,,FF,,,,,,,,2.3834,,,,,,,,,,,,,,,,,,,,,,60ff221ab776efc77fa7bcb7,61036f408996f1bc35b6ffd3,2021-07-29_23h17.56.875,Simcolourproject_2stim_asymm_v5,2020.2.10,Linux x86_64,60,61025ae37ef11b136ea224fe,,,,,,,,,1295,56.12579346,-96.2930603,1,0,0,response3disk,,4,-4.460632324,-0.834350586,1,0,0,rectangle,-4.460632324,-0.834350586,1,0,0,-4.460632324,-0.834350586,1,0,0,1,60,220,3,1,,,,,,,,
,,,,,,,,,,,,,FF,,,,,,,,1.3015,,,,,,,,,,,,,,,,,,,,,,60ff221ab776efc77fa7bcb7,61036f408996f1bc35b6ffd3,2021-07-29_23h17.56.875,Simcolourproject_2stim_asymm_v5,2020.2.10,Linux x86_64,60,61025ae37ef11b136ea224fe,,,,,,,,,2637,70.33032227,48.50546265,1,0,0,response1disk,,6,23.90136719,9.665100098,1,0,0,rectangle,23.90136719,9.665100098,1,0,0,23.90136719,9.665100098,1,0,0,1,61,221,137,1,,,,,,,,
,,,,,,,,,,,,,FF,,,,,,,,1.1539,,,,,,,,,,,,,,,,,,,,,,60ff221ab776efc77fa7bcb7,61036f408996f1bc35b6ffd3,2021-07-29_23h17.56.875,Simcolourproject_2stim_asymm_v5,2020.2.10,Linux x86_64,60,61025ae37ef11b136ea224fe,,,,,,,,,196,59.03582764,73.87380981,1,0,0,response1disk,,7,4.828491211,1.563415527,1,0,0,rectangle,4.828491211,1.563415527,1,0,0,4.828491211,1.563415527,1,0,0,1,62,222,0,1,,,,,,,,
,,,,,,,,,,,,,FF,,,,,,,,0.9361,,,,,,,,,,,,,,,,,,,,,,60ff221ab776efc77fa7bcb7,61036f408996f1bc35b6ffd3,2021-07-29_23h17.56.875,Simcolourproject_2stim_asymm_v5,2020.2.10,Linux x86_64,60,61025ae37ef11b136ea224fe,,,,,,,,,505,39.89886475,65.3192749,1,0,0,response1disk,,7,4.708374023,8.363739014,1,0,0,rectangle,4.708374023,8.363739014,1,0,0,4.708374023,8.363739014,1,0,0,1,63,223,114,1,,,,,,,,
,,,,,,,,,,,,,FF,,,,,,,,1.9161,,,,,,,,,,,,,,,,,,,,,,60ff221ab776efc77fa7bcb7,61036f408996f1bc35b6ffd3,2021-07-29_23h17.56.875,Simcolourproject_2stim_asymm_v5,2020.2.10,Linux x86_64,60,61025ae37ef11b136ea224fe,,,,,,,,,3988,96.85955811,47.56536865,1,0,0,response1disk,,6,3.01550293,1.494262695,1,0,0,rectangle,3.01550293,1.494262695,1,0,0,3.01550293,1.494262695,1,0,0,1,64,224,86,1,,,,,,,,
,,,,,,,,,,,,,FF,,,,,,,,1.0832,,,,,,,,,,,,,,,,,,,,,,60ff221ab776efc77fa7bcb7,61036f408996f1bc35b6ffd3,2021-07-29_23h17.56.875,Simcolourproject_2stim_asymm_v5,2020.2.10,Linux x86_64,60,61025ae37ef11b136ea224fe,,,,,,,,,4196,31.71368408,77.70962524,1,0,0,response1disk,,7,-23.28466797,4.012664795,1,0,0,rectangle,-23.28466797,4.012664795,1,0,0,-23.28466797,4.012664795,1,0,0,1,65,225,112,1,,,,,,,,
,,,,,,,,,,,,,FF,,,,,,,,0.8502,,,,,,,,,,,,,,,,,,,,,,60ff221ab776efc77fa7bcb7,61036f408996f1bc35b6ffd3,2021-07-29_23h17.56.875,Simcolourproject_2stim_asymm_v5,2020.2.10,Linux x86_64,60,61025ae37ef11b136ea224fe,,,,,,,,,3912,28.51190186,86.79495239,1,0,0,response1disk,,7,-12.37774658,6.551727295,1,0,0,rectangle,-12.37774658,6.551727295,1,0,0,-12.37774658,6.551727295,1,0,0,1,66,226,83,1,,,,,,,,
,,,,,,,,,,,,,FF,,,,,,,,1.2868,,,,,,,,,,,,,,,,,,,,,,60ff221ab776efc77fa7bcb7,61036f408996f1bc35b6ffd3,2021-07-29_23h17.56.875,Simcolourproject_2stim_asymm_v5,2020.2.10,Linux x86_64,60,61025ae37ef11b136ea224fe,,,,,,,,,3968,-38.69256592,-100.3160095,1,0,0,response5disk,,3,5.990722656,-8.487548828,1,0,0,rectangle,5.990722656,-8.487548828,1,0,0,5.990722656,-8.487548828,1,0,0,1,67,227,40,1,,,,,,,,
,,,,,,,,,,,,,FF,,,,,,,,1.0662,,,,,,,,,,,,,,,,,,,,,,60ff221ab776efc77fa7bcb7,61036f408996f1bc35b6ffd3,2021-07-29_23h17.56.875,Simcolourproject_2stim_asymm_v5,2020.2.10,Linux x86_64,60,61025ae37ef11b136ea224fe,,,,,,,,,675,82.5447998,55.12084961,1,0,0,response1disk,,6,4.871887207,0.495635986,1,0,0,rectangle,4.871887207,0.495635986,1,0,0,4.871887207,0.495635986,1,0,0,1,68,228,74,1,,,,,,,,
,,,,,,,,,,,,,FF,,,,,,,,1.2345,,,,,,,,,,,,,,,,,,,,,,60ff221ab776efc77fa7bcb7,61036f408996f1bc35b6ffd3,2021-07-29_23h17.56.875,Simcolourproject_2stim_asymm_v5,2020.2.10,Linux x86_64,60,61025ae37ef11b136ea224fe,,,,,,,,,1779,77.88085938,26.15267944,1,0,0,response1disk,,6,-0.670532227,-0.670959473,1,0,0,rectangle,-0.670532227,-0.670959473,1,0,0,-0.670532227,-0.670959473,1,0,0,1,69,229,77,1,,,,,,,,
,,,,,,,,,,,,,FF,,,,,,,,1.7964,,,,,,,,,,,,,,,,,,,,,,60ff221ab776efc77fa7bcb7,61036f408996f1bc35b6ffd3,2021-07-29_23h17.56.875,Simcolourproject_2stim_asymm_v5,2020.2.10,Linux x86_64,60,61025ae37ef11b136ea224fe,,,,,,,,,1496,55.14233398,81.05111694,1,0,0,response1disk,,7,14.44122314,-2.2059021,1,0,0,rectangle,14.44122314,-2.2059021,1,0,0,14.44122314,-2.2059021,1,0,0,1,70,230,150,1,,,,,,,,
,,,,,,,,,,,,,FF,,,,,,,,1.0664,,,,,,,,,,,,,,,,,,,,,,60ff221ab776efc77fa7bcb7,61036f408996f1bc35b6ffd3,2021-07-29_23h17.56.875,Simcolourproject_2stim_asymm_v5,2020.2.10,Linux x86_64,60,61025ae37ef11b136ea224fe,,,,,,,,,3432,-50.02770996,-82.91372681,1,0,0,response5disk,,3,2.582763672,11.87142944,1,0,0,rectangle,2.582763672,11.87142944,1,0,0,2.582763672,11.87142944,1,0,0,1,71,231,157,1,,,,,,,,
,,,,,,,,,,,,,FF,,,,,,,,1.5676,,,,,,,,,,,,,,,,,,,,,,60ff221ab776efc77fa7bcb7,61036f408996f1bc35b6ffd3,2021-07-29_23h17.56.875,Simcolourproject_2stim_asymm_v5,2020.2.10,Linux x86_64,60,61025ae37ef11b136ea224fe,,,,,,,,,3513,-49.7142334,-71.2593689,1,0,0,response5disk,,3,20.36920166,7.231567383,1,0,0,rectangle,20.36920166,7.231567383,1,0,0,20.36920166,7.231567383,1,0,0,1,72,232,126,1,,,,,,,,
,,,,,,,,,,,,,FF,,,,,,,,1.1001,,,,,,,,,,,,,,,,,,,,,,60ff221ab776efc77fa7bcb7,61036f408996f1bc35b6ffd3,2021-07-29_23h17.56.875,Simcolourproject_2stim_asymm_v5,2020.2.10,Linux x86_64,60,61025ae37ef11b136ea224fe,,,,,,,,,3030,49.27783203,87.89724731,1,0,0,response1disk,,7,7.060852051,7.334228516,1,0,0,rectangle,7.060852051,7.334228516,1,0,0,7.060852051,7.334228516,1,0,0,1,73,233,103,1,,,,,,,,
,,,,,,,,,,,,,FF,,,,,,,,0.9821,,,,,,,,,,,,,,,,,,,,,,60ff221ab776efc77fa7bcb7,61036f408996f1bc35b6ffd3,2021-07-29_23h17.56.875,Simcolourproject_2stim_asymm_v5,2020.2.10,Linux x86_64,60,61025ae37ef11b136ea224fe,,,,,,,,,4090,30.02203369,78.30758667,1,0,0,response1disk,,7,-3.994873047,3.380981445,1,0,0,rectangle,-3.994873047,3.380981445,1,0,0,-3.994873047,3.380981445,1,0,0,1,74,234,143,1,,,,,,,,
,,,,,,,,,,,,,FF,,,,,,,,1.3654,,,,,,,,,,,,,,,,,,,,,,60ff221ab776efc77fa7bcb7,61036f408996f1bc35b6ffd3,2021-07-29_23h17.56.875,Simcolourproject_2stim_asymm_v5,2020.2.10,Linux x86_64,60,61025ae37ef11b136ea224fe,,,,,,,,,1895,-52.9284668,-89.96176147,1,0,0,response5disk,,3,-13.92181396,0.9140625,1,0,0,rectangle,-13.92181396,0.9140625,1,0,0,-13.92181396,0.9140625,1,0,0,1,75,235,66,1,,,,,,,,
,,,,,,,,,,,,,FF,,,,,,,,0.9471,,,,,,,,,,,,,,,,,,,,,,60ff221ab776efc77fa7bcb7,61036f408996f1bc35b6ffd3,2021-07-29_23h17.56.875,Simcolourproject_2stim_asymm_v5,2020.2.10,Linux x86_64,60,61025ae37ef11b136ea224fe,,,,,,,,,2700,97.76855469,47.0456543,1,0,0,response1disk,,6,10.91430664,-4.51361084,1,0,0,rectangle,10.91430664,-4.51361084,1,0,0,10.91430664,-4.51361084,1,0,0,1,76,236,63,1,,,,,,,,
,,,,,,,,,,,,,FF,,,,,,,,1.3667,,,,,,,,,,,,,,,,,,,,,,60ff221ab776efc77fa7bcb7,61036f408996f1bc35b6ffd3,2021-07-29_23h17.56.875,Simcolourproject_2stim_asymm_v5,2020.2.10,Linux x86_64,60,61025ae37ef11b136ea224fe,,,,,,,,,3113,62.32269287,-32.04006958,1,0,0,response3disk,,5,9.046936035,-9.672851563,1,0,0,rectangle,9.046936035,-9.672851563,1,0,0,9.046936035,-9.672851563,1,0,0,1,77,237,139,1,,,,,,,,
,,,,,,,,,,,,,FF,,,,,,,,1.2819,,,,,,,,,,,,,,,,,,,,,,60ff221ab776efc77fa7bcb7,61036f408996f1bc35b6ffd3,2021-07-29_23h17.56.875,Simcolourproject_2stim_asymm_v5,2020.2.10,Linux x86_64,60,61025ae37ef11b136ea224fe,,,,,,,,,2697,63.90557861,71.02008057,1,0,0,response1disk,,7,0.126342773,1.93737793,1,0,0,rectangle,0.126342773,1.93737793,1,0,0,0.126342773,1.93737793,1,0,0,1,78,238,146,1,,,,,,,,
