key_resp.keys,key_resp.rt,key_resp_14.keys,key_resp_14.rt,key_resp_15.keys,key_resp_15.rt,key_resp_17.keys,key_resp_17.rt,key_resp_9.keys,key_resp_9.rt,key_resp_10.keys,key_resp_10.rt,practice_comparison,Ecc,mouse_5.x,mouse_5.y,mouse_5.leftButton,mouse_5.midButton,mouse_5.rightButton,mouse_5.clicked_name,pracsimilarity,response_time,mouse_10.x,mouse_10.y,mouse_10.leftButton,mouse_10.midButton,mouse_10.rightButton,mouse_10.clicked_name,mouse_7.x,mouse_7.y,mouse_7.leftButton,mouse_7.midButton,mouse_7.rightButton,mouse_6.x,mouse_6.y,mouse_6.leftButton,mouse_6.midButton,mouse_6.rightButton,duringprac.thisRepN,duringprac.thisTrialN,duringprac.thisN,duringprac.thisIndex,duringprac.ran,participant,session,date,expName,psychopyVersion,OS,frameRate,study_id,mouse_7.clicked_name,catchpracsimilarity,catch_response_time,catchnumberprac,catchtrialorderprac,mouse_6.clicked_name,key_resp_22.keys,key_resp_22.rt,realcomparison,mouse.x,mouse.y,mouse.leftButton,mouse.midButton,mouse.rightButton,mouse.clicked_name,Colour2,similarity,mouse_2.x,mouse_2.y,mouse_2.leftButton,mouse_2.midButton,mouse_2.rightButton,mouse_2.clicked_name,mouse_3.x,mouse_3.y,mouse_3.leftButton,mouse_3.midButton,mouse_3.rightButton,mouse_11.x,mouse_11.y,mouse_11.leftButton,mouse_11.midButton,mouse_11.rightButton,trials_2.thisRepN,trials_2.thisTrialN,trials_2.thisN,trials_2.thisIndex,trials_2.ran,Colour1,mouse_3.clicked_name,catchornah,catchsimilarity,catchnumber,catchtrialorder,catchRT,mouse_11.clicked_name
space,1.3471,space,6.9788,space,30.6869,space,9.6839,space,1.7562,space,4.1197,11,FF,101.8828125,43.8359375,1,0,0,response1disk_5,6,10.0724,4.765625,-8.3984375,1,0,0,rectangle_8,4.765625,-8.3984375,1,0,0,4.765625,-8.3984375,1,0,0,0,0,0,3,1,60ff39a8dc1a2539c032a5b7,61036e48a0b9920bb45a69e5,2021-07-29_21h14.29.916,Simcolourproject_2stim_asymm_v5,2020.2.10,MacIntel,60,61025ae37ef11b136ea224fe,,,,,,,,,,,,,,,,,,,,,,,,,,,,,,,,,,,,,,,,,,,,,,
,,,,,,,,,,,,30,PF,43.6171875,86.83984375,1,0,0,response1disk_5,7,3.2851,0.73828125,1.6484375,1,0,0,rectangle_8,39.98828125,82.77734375,1,0,0,-1.96875,-0.59375,1,0,0,0,1,1,6,1,60ff39a8dc1a2539c032a5b7,61036e48a0b9920bb45a69e5,2021-07-29_21h14.29.916,Simcolourproject_2stim_asymm_v5,2020.2.10,MacIntel,60,61025ae37ef11b136ea224fe,response1disk_7,7,3.8694,7,"[2,5]",rectangle_4,,,,,,,,,,,,,,,,,,,,,,,,,,,,,,,,,,,,,,,,
,,,,,,,,,,,,70,PF,70.203125,45.359375,1,0,0,response1disk_5,6,5.1012,17.578125,7.94921875,1,0,0,rectangle_8,17.578125,7.94921875,1,0,0,17.578125,7.94921875,1,0,0,0,2,2,1,1,60ff39a8dc1a2539c032a5b7,61036e48a0b9920bb45a69e5,2021-07-29_21h14.29.916,Simcolourproject_2stim_asymm_v5,2020.2.10,MacIntel,60,61025ae37ef11b136ea224fe,,,,,,,,,,,,,,,,,,,,,,,,,,,,,,,,,,,,,,,,,,,,,,
,,,,,,,,,,,,32,FF,23.30859375,-84.98046875,1,0,0,response3disk_5,4,2.0984,-1.859375,-8.41015625,1,0,0,rectangle_8,-1.859375,-8.41015625,1,0,0,-1.859375,-8.41015625,1,0,0,0,3,3,5,1,60ff39a8dc1a2539c032a5b7,61036e48a0b9920bb45a69e5,2021-07-29_21h14.29.916,Simcolourproject_2stim_asymm_v5,2020.2.10,MacIntel,60,61025ae37ef11b136ea224fe,,,,,,,,,,,,,,,,,,,,,,,,,,,,,,,,,,,,,,,,,,,,,,
,,,,,,,,,,,,109,FF,73.48046875,-44.61328125,1,0,0,response3disk_5,5,3.0167,16.73046875,2.77734375,1,0,0,rectangle_8,37.1953125,74.5703125,1,0,0,6.33984375,-1.43359375,1,0,0,0,4,4,0,1,60ff39a8dc1a2539c032a5b7,61036e48a0b9920bb45a69e5,2021-07-29_21h14.29.916,Simcolourproject_2stim_asymm_v5,2020.2.10,MacIntel,60,61025ae37ef11b136ea224fe,response1disk_7,7,2.3851,7,"[2,5]",rectangle_4,,,,,,,,,,,,,,,,,,,,,,,,,,,,,,,,,,,,,,,,
,,,,,,,,,,,,139,PF,30.8828125,68.765625,1,0,0,response1disk_5,7,2.365,13.2109375,12.2265625,1,0,0,rectangle_8,13.2109375,12.2265625,1,0,0,13.2109375,12.2265625,1,0,0,0,5,5,2,1,60ff39a8dc1a2539c032a5b7,61036e48a0b9920bb45a69e5,2021-07-29_21h14.29.916,Simcolourproject_2stim_asymm_v5,2020.2.10,MacIntel,60,61025ae37ef11b136ea224fe,,,,,,,,,,,,,,,,,,,,,,,,,,,,,,,,,,,,,,,,,,,,,,
,,,,,,,,,,,,105,PF,39.703125,-73.0703125,1,0,0,response3disk_5,4,2.1312,4.484375,5.3046875,1,0,0,rectangle_8,4.484375,5.3046875,1,0,0,4.484375,5.3046875,1,0,0,0,6,6,4,1,60ff39a8dc1a2539c032a5b7,61036e48a0b9920bb45a69e5,2021-07-29_21h14.29.916,Simcolourproject_2stim_asymm_v5,2020.2.10,MacIntel,60,61025ae37ef11b136ea224fe,,,,,,,,,,,,,,,,,,,,,,,,,,,,,,,,,,,,,,,,,,,,,,
,,,,,,,,,,,,,FF,,,,,,,,4.2022,,,,,,,,,,,,,,,,,,,,,,60ff39a8dc1a2539c032a5b7,61036e48a0b9920bb45a69e5,2021-07-29_21h14.29.916,Simcolourproject_2stim_asymm_v5,2020.2.10,MacIntel,60,61025ae37ef11b136ea224fe,,,,,,,space,3.6747,114,78.9140625,-48.4296875,1,0,0,response3disk,,5,19.14453125,-11.41796875,1,0,0,rectangle,19.14453125,-11.41796875,1,0,0,19.14453125,-11.41796875,1,0,0,0,0,0,150,1,,,,,,,,
,,,,,,,,,,,,,FF,,,,,,,,1.2671,,,,,,,,,,,,,,,,,,,,,,60ff39a8dc1a2539c032a5b7,61036e48a0b9920bb45a69e5,2021-07-29_21h14.29.916,Simcolourproject_2stim_asymm_v5,2020.2.10,MacIntel,60,61025ae37ef11b136ea224fe,,,,,,,,,2387,69.18359375,-40.7578125,1,0,0,response3disk,,5,20.53515625,-5.4765625,1,0,0,rectangle,20.53515625,-5.4765625,1,0,0,20.53515625,-5.4765625,1,0,0,0,1,1,40,1,,,,,,,,
,,,,,,,,,,,,,FF,,,,,,,,3.084,,,,,,,,,,,,,,,,,,,,,,60ff39a8dc1a2539c032a5b7,61036e48a0b9920bb45a69e5,2021-07-29_21h14.29.916,Simcolourproject_2stim_asymm_v5,2020.2.10,MacIntel,60,61025ae37ef11b136ea224fe,,,,,,,,,2653,-41.1484375,-87.9140625,1,0,0,response5disk,,3,-4.61328125,-6.55859375,1,0,0,rectangle,-4.61328125,-6.55859375,1,0,0,-4.61328125,-6.55859375,1,0,0,0,2,2,147,1,,,,,,,,
,,,,,,,,,,,,,FF,,,,,,,,1.068,,,,,,,,,,,,,,,,,,,,,,60ff39a8dc1a2539c032a5b7,61036e48a0b9920bb45a69e5,2021-07-29_21h14.29.916,Simcolourproject_2stim_asymm_v5,2020.2.10,MacIntel,60,61025ae37ef11b136ea224fe,,,,,,,,,2326,72.4375,32.44921875,1,0,0,response1disk,,6,6.7734375,-3.3515625,1,0,0,rectangle,6.7734375,-3.3515625,1,0,0,6.7734375,-3.3515625,1,0,0,0,3,3,23,1,,,,,,,,
,,,,,,,,,,,,,FF,,,,,,,,2.4316,,,,,,,,,,,,,,,,,,,,,,60ff39a8dc1a2539c032a5b7,61036e48a0b9920bb45a69e5,2021-07-29_21h14.29.916,Simcolourproject_2stim_asymm_v5,2020.2.10,MacIntel,60,61025ae37ef11b136ea224fe,,,,,,,,,2778,-43.1171875,-76.8671875,1,0,0,response5disk,,3,7.19140625,5.2265625,1,0,0,rectangle,7.19140625,5.2265625,1,0,0,7.19140625,5.2265625,1,0,0,0,4,4,31,1,,,,,,,,
,,,,,,,,,,,,,FF,,,,,,,,0.8335,,,,,,,,,,,,,,,,,,,,,,60ff39a8dc1a2539c032a5b7,61036e48a0b9920bb45a69e5,2021-07-29_21h14.29.916,Simcolourproject_2stim_asymm_v5,2020.2.10,MacIntel,60,61025ae37ef11b136ea224fe,,,,,,,,,3955,76.94140625,37.3515625,1,0,0,response1disk,,6,9.171875,-9.421875,1,0,0,rectangle,9.171875,-9.421875,1,0,0,9.171875,-9.421875,1,0,0,0,5,5,91,1,,,,,,,,
,,,,,,,,,,,,,FF,,,,,,,,1.6839,,,,,,,,,,,,,,,,,,,,,,60ff39a8dc1a2539c032a5b7,61036e48a0b9920bb45a69e5,2021-07-29_21h14.29.916,Simcolourproject_2stim_asymm_v5,2020.2.10,MacIntel,60,61025ae37ef11b136ea224fe,,,,,,,,,2558,64.87890625,-44.5859375,1,0,0,response3disk,,5,5.87890625,-6.953125,1,0,0,rectangle,5.87890625,-6.953125,1,0,0,5.87890625,-6.953125,1,0,0,0,6,6,76,1,,,,,,,,
,,,,,,,,,,,,,FF,,,,,,,,3.0163,,,,,,,,,,,,,,,,,,,,,,60ff39a8dc1a2539c032a5b7,61036e48a0b9920bb45a69e5,2021-07-29_21h14.29.916,Simcolourproject_2stim_asymm_v5,2020.2.10,MacIntel,60,61025ae37ef11b136ea224fe,,,,,,,,,4265,69.8984375,31.265625,1,0,0,response1disk,,6,6.4453125,11.171875,1,0,0,rectangle,6.4453125,11.171875,1,0,0,6.4453125,11.171875,1,0,0,0,7,7,128,1,,,,,,,,
,,,,,,,,,,,,,FF,,,,,,,,0.901,,,,,,,,,,,,,,,,,,,,,,60ff39a8dc1a2539c032a5b7,61036e48a0b9920bb45a69e5,2021-07-29_21h14.29.916,Simcolourproject_2stim_asymm_v5,2020.2.10,MacIntel,60,61025ae37ef11b136ea224fe,,,,,,,,,1031,69.21484375,25.61328125,1,0,0,response1disk,,6,-3.4296875,10.55078125,1,0,0,rectangle,-3.4296875,10.55078125,1,0,0,-3.4296875,10.55078125,1,0,0,0,8,8,64,1,,,,,,,,
,,,,,,,,,,,,,FF,,,,,,,,1.7837,,,,,,,,,,,,,,,,,,,,,,60ff39a8dc1a2539c032a5b7,61036e48a0b9920bb45a69e5,2021-07-29_21h14.29.916,Simcolourproject_2stim_asymm_v5,2020.2.10,MacIntel,60,61025ae37ef11b136ea224fe,,,,,,,,,516,60.2734375,32.921875,1,0,0,response1disk,,6,-1.3984375,0.97265625,1,0,0,rectangle,-1.3984375,0.97265625,1,0,0,-1.3984375,0.97265625,1,0,0,0,9,9,93,1,,,,,,,,
,,,,,,,,,,,,,FF,,,,,,,,0.8986,,,,,,,,,,,,,,,,,,,,,,60ff39a8dc1a2539c032a5b7,61036e48a0b9920bb45a69e5,2021-07-29_21h14.29.916,Simcolourproject_2stim_asymm_v5,2020.2.10,MacIntel,60,61025ae37ef11b136ea224fe,,,,,,,,,842,69.7578125,18.51953125,1,0,0,response1disk,,6,13.47265625,0.796875,1,0,0,rectangle,13.47265625,0.796875,1,0,0,13.47265625,0.796875,1,0,0,0,10,10,114,1,,,,,,,,
,,,,,,,,,,,,,FF,,,,,,,,1.4835,,,,,,,,,,,,,,,,,,,,,,60ff39a8dc1a2539c032a5b7,61036e48a0b9920bb45a69e5,2021-07-29_21h14.29.916,Simcolourproject_2stim_asymm_v5,2020.2.10,MacIntel,60,61025ae37ef11b136ea224fe,,,,,,,,,3835,60.33984375,-38.03125,1,0,0,response3disk,,5,8.671875,-13.98828125,1,0,0,rectangle,8.671875,-13.98828125,1,0,0,8.671875,-13.98828125,1,0,0,0,11,11,50,1,,,,,,,,
,,,,,,,,,,,,,FF,,,,,,,,2.7172,,,,,,,,,,,,,,,,,,,,,,60ff39a8dc1a2539c032a5b7,61036e48a0b9920bb45a69e5,2021-07-29_21h14.29.916,Simcolourproject_2stim_asymm_v5,2020.2.10,MacIntel,60,61025ae37ef11b136ea224fe,,,,,,,,,3501,44.0625,86.9296875,1,0,0,response1disk,,7,2.46875,-0.51953125,1,0,0,rectangle,2.46875,-0.51953125,1,0,0,2.46875,-0.51953125,1,0,0,0,12,12,20,1,,,,,,,,
,,,,,,,,,,,,,FF,,,,,,,,1.0993,,,,,,,,,,,,,,,,,,,,,,60ff39a8dc1a2539c032a5b7,61036e48a0b9920bb45a69e5,2021-07-29_21h14.29.916,Simcolourproject_2stim_asymm_v5,2020.2.10,MacIntel,60,61025ae37ef11b136ea224fe,,,,,,,,,1410,32.14453125,64.88671875,1,0,0,response1disk,,7,2.96484375,-6.46875,1,0,0,rectangle,2.96484375,-6.46875,1,0,0,2.96484375,-6.46875,1,0,0,0,13,13,98,1,,,,,,,,
,,,,,,,,,,,,,FF,,,,,,,,1.1652,,,,,,,,,,,,,,,,,,,,,,60ff39a8dc1a2539c032a5b7,61036e48a0b9920bb45a69e5,2021-07-29_21h14.29.916,Simcolourproject_2stim_asymm_v5,2020.2.10,MacIntel,60,61025ae37ef11b136ea224fe,,,,,,,,,778,30.22265625,-86.89453125,1,0,0,response3disk,,4,11.6484375,-10.4609375,1,0,0,rectangle,11.6484375,-10.4609375,1,0,0,11.6484375,-10.4609375,1,0,0,0,14,14,39,1,,,,,,,,
,,,,,,,,,,,,,FF,,,,,,,,1.0662,,,,,,,,,,,,,,,,,,,,,,60ff39a8dc1a2539c032a5b7,61036e48a0b9920bb45a69e5,2021-07-29_21h14.29.916,Simcolourproject_2stim_asymm_v5,2020.2.10,MacIntel,60,61025ae37ef11b136ea224fe,,,,,,,,,2444,48.84375,59.56640625,1,0,0,response1disk,,7,14.63671875,-2.71484375,1,0,0,rectangle,14.63671875,-2.71484375,1,0,0,14.63671875,-2.71484375,1,0,0,0,15,15,42,1,,,,,,,,
,,,,,,,,,,,,,FF,,,,,,,,1.8687,,,,,,,,,,,,,,,,,,,,,,60ff39a8dc1a2539c032a5b7,61036e48a0b9920bb45a69e5,2021-07-29_21h14.29.916,Simcolourproject_2stim_asymm_v5,2020.2.10,MacIntel,60,61025ae37ef11b136ea224fe,,,,,,,,,4104,-107.9921875,-27.81640625,1,0,0,response5disk,,2,-10.3359375,-0.1015625,1,0,0,rectangle,-10.3359375,-0.1015625,1,0,0,-10.3359375,-0.1015625,1,0,0,0,16,16,131,1,,,,,,,,
,,,,,,,,,,,,,FF,,,,,,,,0.8139,,,,,,,,,,,,,,,,,,,,,,60ff39a8dc1a2539c032a5b7,61036e48a0b9920bb45a69e5,2021-07-29_21h14.29.916,Simcolourproject_2stim_asymm_v5,2020.2.10,MacIntel,60,61025ae37ef11b136ea224fe,,,,,,,,,3045,-70.08203125,33.1484375,1,0,0,response7disk,,1,-10.6875,-3.10546875,1,0,0,rectangle,-10.6875,-3.10546875,1,0,0,-10.6875,-3.10546875,1,0,0,0,17,17,65,1,,,,,,,,
,,,,,,,,,,,,,FF,,,,,,,,1.2654,,,,,,,,,,,,,,,,,,,,,,60ff39a8dc1a2539c032a5b7,61036e48a0b9920bb45a69e5,2021-07-29_21h14.29.916,Simcolourproject_2stim_asymm_v5,2020.2.10,MacIntel,60,61025ae37ef11b136ea224fe,,,,,,,,,2882,-44.4140625,-80.94921875,1,0,0,response5disk,,3,-14.8515625,2.734375,1,0,0,rectangle,-14.8515625,2.734375,1,0,0,-14.8515625,2.734375,1,0,0,0,18,18,86,1,,,,,,,,
,,,,,,,,,,,,,FF,,,,,,,,1.8168,,,,,,,,,,,,,,,,,,,,,,60ff39a8dc1a2539c032a5b7,61036e48a0b9920bb45a69e5,2021-07-29_21h14.29.916,Simcolourproject_2stim_asymm_v5,2020.2.10,MacIntel,60,61025ae37ef11b136ea224fe,,,,,,,,,1464,43.0703125,-88.76953125,1,0,0,response3disk,,4,8.78125,-9.765625,1,0,0,rectangle,8.78125,-9.765625,1,0,0,8.78125,-9.765625,1,0,0,0,19,19,99,1,,,,,,,,
,,,,,,,,,,,,,FF,,,,,,,,0.7485,,,,,,,,,,,,,,,,,,,,,,60ff39a8dc1a2539c032a5b7,61036e48a0b9920bb45a69e5,2021-07-29_21h14.29.916,Simcolourproject_2stim_asymm_v5,2020.2.10,MacIntel,60,61025ae37ef11b136ea224fe,,,,,,,,,3425,-33.3359375,64.94921875,1,0,0,response7disk,,0,-2.15234375,-3.546875,1,0,0,rectangle,-2.15234375,-3.546875,1,0,0,-2.15234375,-3.546875,1,0,0,0,20,20,78,1,,,,,,,,
,,,,,,,,,,,,,FF,,,,,,,,1.031,,,,,,,,,,,,,,,,,,,,,,60ff39a8dc1a2539c032a5b7,61036e48a0b9920bb45a69e5,2021-07-29_21h14.29.916,Simcolourproject_2stim_asymm_v5,2020.2.10,MacIntel,60,61025ae37ef11b136ea224fe,,,,,,,,,3476,-88.16796875,31.56640625,1,0,0,response7disk,,1,-32.203125,-2.6875,1,0,0,rectangle,-32.203125,-2.6875,1,0,0,-32.203125,-2.6875,1,0,0,0,21,21,97,1,,,,,,,,
,,,,,,,,,,,,,FF,,,,,,,,2.5353,,,,,,,,,,,,,,,,,,,,,,60ff39a8dc1a2539c032a5b7,61036e48a0b9920bb45a69e5,2021-07-29_21h14.29.916,Simcolourproject_2stim_asymm_v5,2020.2.10,MacIntel,60,61025ae37ef11b136ea224fe,,,,,,,,,566,44.36328125,-82.6015625,1,0,0,response3disk,,4,12.3203125,12.4765625,1,0,0,rectangle,12.3203125,12.4765625,1,0,0,12.3203125,12.4765625,1,0,0,0,22,22,101,1,,,,,,,,
,,,,,,,,,,,,,FF,,,,,,,,1.0676,,,,,,,,,,,,,,,,,,,,,,60ff39a8dc1a2539c032a5b7,61036e48a0b9920bb45a69e5,2021-07-29_21h14.29.916,Simcolourproject_2stim_asymm_v5,2020.2.10,MacIntel,60,61025ae37ef11b136ea224fe,,,,,,,,,3483,-35.43359375,-65.953125,1,0,0,response5disk,,3,-17.921875,-1.87109375,1,0,0,rectangle,-17.921875,-1.87109375,1,0,0,-17.921875,-1.87109375,1,0,0,0,23,23,25,1,,,,,,,,
,,,,,,,,,,,,,FF,,,,,,,,1.3804,,,,,,,,,,,,,,,,,,,,,,60ff39a8dc1a2539c032a5b7,61036e48a0b9920bb45a69e5,2021-07-29_21h14.29.916,Simcolourproject_2stim_asymm_v5,2020.2.10,MacIntel,60,61025ae37ef11b136ea224fe,,,,,,,,,2082,67.54296875,20.5546875,1,0,0,response1disk,,6,-8.08203125,4.4609375,1,0,0,rectangle,-8.08203125,4.4609375,1,0,0,-8.08203125,4.4609375,1,0,0,0,24,24,69,1,,,,,,,,
,,,,,,,,,,,,,FF,,,,,,,,1.132,,,,,,,,,,,,,,,,,,,,,,60ff39a8dc1a2539c032a5b7,61036e48a0b9920bb45a69e5,2021-07-29_21h14.29.916,Simcolourproject_2stim_asymm_v5,2020.2.10,MacIntel,60,61025ae37ef11b136ea224fe,,,,,,,,,10,100.890625,34.5078125,1,0,0,response1disk,,6,0.38671875,-10.234375,1,0,0,rectangle,0.38671875,-10.234375,1,0,0,0.38671875,-10.234375,1,0,0,0,25,25,140,1,,,,,,,,
,,,,,,,,,,,,,FF,,,,,,,,0.965,,,,,,,,,,,,,,,,,,,,,,60ff39a8dc1a2539c032a5b7,61036e48a0b9920bb45a69e5,2021-07-29_21h14.29.916,Simcolourproject_2stim_asymm_v5,2020.2.10,MacIntel,60,61025ae37ef11b136ea224fe,,,,,,,,,2829,107.0625,49.66015625,1,0,0,response1disk,,6,13.5546875,12.73046875,1,0,0,rectangle,13.5546875,12.73046875,1,0,0,13.5546875,12.73046875,1,0,0,0,26,26,46,1,,,,,,,,
,,,,,,,,,,,,,FF,,,,,,,,0.8006,,,,,,,,,,,,,,,,,,,,,,60ff39a8dc1a2539c032a5b7,61036e48a0b9920bb45a69e5,2021-07-29_21h14.29.916,Simcolourproject_2stim_asymm_v5,2020.2.10,MacIntel,60,61025ae37ef11b136ea224fe,,,,,,,,,1655,104.375,46.828125,1,0,0,response1disk,,6,22.12890625,7.8359375,1,0,0,rectangle,22.12890625,7.8359375,1,0,0,22.12890625,7.8359375,1,0,0,0,27,27,3,1,,,,,,,,
,,,,,,,,,,,,,FF,,,,,,,,1.6838,,,,,,,,,,,,,,,,,,,,,,60ff39a8dc1a2539c032a5b7,61036e48a0b9920bb45a69e5,2021-07-29_21h14.29.916,Simcolourproject_2stim_asymm_v5,2020.2.10,MacIntel,60,61025ae37ef11b136ea224fe,,,,,,,,,517,89.36328125,-59.7578125,1,0,0,response3disk,,5,13.359375,-5.85546875,1,0,0,rectangle,13.359375,-5.85546875,1,0,0,13.359375,-5.85546875,1,0,0,0,28,28,29,1,,,,,,,,
,,,,,,,,,,,,,FF,,,,,,,,0.8838,,,,,,,,,,,,,,,,,,,,,,60ff39a8dc1a2539c032a5b7,61036e48a0b9920bb45a69e5,2021-07-29_21h14.29.916,Simcolourproject_2stim_asymm_v5,2020.2.10,MacIntel,60,61025ae37ef11b136ea224fe,,,,,,,,,2255,82.6015625,29.38671875,1,0,0,response1disk,,6,-13.16015625,-6.83203125,1,0,0,rectangle,-13.16015625,-6.83203125,1,0,0,-13.16015625,-6.83203125,1,0,0,0,29,29,115,1,,,,,,,,
,,,,,,,,,,,,,FF,,,,,,,,0.9677,,,,,,,,,,,,,,,,,,,,,,60ff39a8dc1a2539c032a5b7,61036e48a0b9920bb45a69e5,2021-07-29_21h14.29.916,Simcolourproject_2stim_asymm_v5,2020.2.10,MacIntel,60,61025ae37ef11b136ea224fe,,,,,,,,,3327,41.08203125,79.27734375,1,0,0,response1disk,,7,18.87109375,0.66796875,1,0,0,rectangle,18.87109375,0.66796875,1,0,0,18.87109375,0.66796875,1,0,0,0,30,30,138,1,,,,,,,,
,,,,,,,,,,,,,FF,,,,,,,,1.8667,,,,,,,,,,,,,,,,,,,,,,60ff39a8dc1a2539c032a5b7,61036e48a0b9920bb45a69e5,2021-07-29_21h14.29.916,Simcolourproject_2stim_asymm_v5,2020.2.10,MacIntel,60,61025ae37ef11b136ea224fe,,,,,,,,,4297,93.39453125,42.8359375,1,0,0,response1disk,,6,8.2578125,-12.8515625,1,0,0,rectangle,8.2578125,-12.8515625,1,0,0,8.2578125,-12.8515625,1,0,0,0,31,31,84,1,,,,,,,,
,,,,,,,,,,,,,FF,,,,,,,,1.3824,,,,,,,,,,,,,,,,,,,,,,60ff39a8dc1a2539c032a5b7,61036e48a0b9920bb45a69e5,2021-07-29_21h14.29.916,Simcolourproject_2stim_asymm_v5,2020.2.10,MacIntel,60,61025ae37ef11b136ea224fe,,,,,,,,,2549,33.25,-86.26171875,1,0,0,response3disk,,4,-16.6640625,-3.69921875,1,0,0,rectangle,-16.6640625,-3.69921875,1,0,0,-16.6640625,-3.69921875,1,0,0,0,32,32,63,1,,,,,,,,
,,,,,,,,,,,,,FF,,,,,,,,1.4509,,,,,,,,,,,,,,,,,,,,,,60ff39a8dc1a2539c032a5b7,61036e48a0b9920bb45a69e5,2021-07-29_21h14.29.916,Simcolourproject_2stim_asymm_v5,2020.2.10,MacIntel,60,61025ae37ef11b136ea224fe,,,,,,,,,2823,41.59375,-88.40625,1,0,0,response3disk,,4,-4.8359375,-3.50390625,1,0,0,rectangle,-4.8359375,-3.50390625,1,0,0,-4.8359375,-3.50390625,1,0,0,0,33,33,2,1,,,,,,,,
,,,,,,,,,,,,,FF,,,,,,,,1.0007,,,,,,,,,,,,,,,,,,,,,,60ff39a8dc1a2539c032a5b7,61036e48a0b9920bb45a69e5,2021-07-29_21h14.29.916,Simcolourproject_2stim_asymm_v5,2020.2.10,MacIntel,60,61025ae37ef11b136ea224fe,,,,,,,,,3471,-55.44921875,-72.00390625,1,0,0,response5disk,,3,-11.65234375,-8.48828125,1,0,0,rectangle,-11.65234375,-8.48828125,1,0,0,-11.65234375,-8.48828125,1,0,0,0,34,34,1,1,,,,,,,,
,,,,,,,,,,,,,FF,,,,,,,,1.6172,,,,,,,,,,,,,,,,,,,,,,60ff39a8dc1a2539c032a5b7,61036e48a0b9920bb45a69e5,2021-07-29_21h14.29.916,Simcolourproject_2stim_asymm_v5,2020.2.10,MacIntel,60,61025ae37ef11b136ea224fe,,,,,,,,,3580,57.4296875,27.640625,1,0,0,response1disk,,6,-4.7734375,-0.25,1,0,0,rectangle,-4.7734375,-0.25,1,0,0,-4.7734375,-0.25,1,0,0,0,35,35,62,1,,,,,,,,
,,,,,,,,,,,,,FF,,,,,,,,9.6686,,,,,,,,,,,,,,,,,,,,,,60ff39a8dc1a2539c032a5b7,61036e48a0b9920bb45a69e5,2021-07-29_21h14.29.916,Simcolourproject_2stim_asymm_v5,2020.2.10,MacIntel,60,61025ae37ef11b136ea224fe,,,,,,,,,491,83.78125,-21.94140625,1,0,0,response3disk,,5,6.3671875,-4.671875,1,0,0,rectangle,6.3671875,-4.671875,1,0,0,6.3671875,-4.671875,1,0,0,0,36,36,143,1,,,,,,,,
,,,,,,,,,,,,,FF,,,,,,,,1.698,,,,,,,,,,,,,,,,,,,,,,60ff39a8dc1a2539c032a5b7,61036e48a0b9920bb45a69e5,2021-07-29_21h14.29.916,Simcolourproject_2stim_asymm_v5,2020.2.10,MacIntel,60,61025ae37ef11b136ea224fe,,,,,,,,,4275,43.9921875,72.65625,1,0,0,response1disk,,7,19.15625,-11.83203125,1,0,0,rectangle,19.15625,-11.83203125,1,0,0,19.15625,-11.83203125,1,0,0,0,37,37,15,1,,,,,,,,
,,,,,,,,,,,,,FF,,,,,,,,0.8496,,,,,,,,,,,,,,,,,,,,,,60ff39a8dc1a2539c032a5b7,61036e48a0b9920bb45a69e5,2021-07-29_21h14.29.916,Simcolourproject_2stim_asymm_v5,2020.2.10,MacIntel,60,61025ae37ef11b136ea224fe,,,,,,,,,3104,-57.8515625,-111.7539063,1,0,0,response5disk,,3,-13.78515625,-3.90234375,1,0,0,rectangle,-13.78515625,-3.90234375,1,0,0,-13.78515625,-3.90234375,1,0,0,0,38,38,21,1,,,,,,,,
,,,,,,,,,,,,,FF,,,,,,,,1.4359,,,,,,,,,,,,,,,,,,,,,,60ff39a8dc1a2539c032a5b7,61036e48a0b9920bb45a69e5,2021-07-29_21h14.29.916,Simcolourproject_2stim_asymm_v5,2020.2.10,MacIntel,60,61025ae37ef11b136ea224fe,,,,,,,,,3814,-75.453125,-37.7890625,1,0,0,response5disk,,2,-19.234375,-7.6875,1,0,0,rectangle,-19.234375,-7.6875,1,0,0,-19.234375,-7.6875,1,0,0,0,39,39,28,1,,,,,,,,
,,,,,,,,,,,,,FF,,,,,,,,1.1167,,,,,,,,,,,,,,,,,,,,,,60ff39a8dc1a2539c032a5b7,61036e48a0b9920bb45a69e5,2021-07-29_21h14.29.916,Simcolourproject_2stim_asymm_v5,2020.2.10,MacIntel,60,61025ae37ef11b136ea224fe,,,,,,,,,1386,48.23828125,-76.03125,1,0,0,response3disk,,4,18.55078125,-7.390625,1,0,0,rectangle,18.55078125,-7.390625,1,0,0,18.55078125,-7.390625,1,0,0,0,40,40,54,1,,,,,,,,
,,,,,,,,,,,,,FF,,,,,,,,1.451,,,,,,,,,,,,,,,,,,,,,,60ff39a8dc1a2539c032a5b7,61036e48a0b9920bb45a69e5,2021-07-29_21h14.29.916,Simcolourproject_2stim_asymm_v5,2020.2.10,MacIntel,60,61025ae37ef11b136ea224fe,,,,,,,,,1216,-38.43359375,-54.34765625,1,0,0,response5disk,,3,-31.296875,-16.62890625,1,0,0,rectangle,-31.296875,-16.62890625,1,0,0,-31.296875,-16.62890625,1,0,0,0,41,41,90,1,,,,,,,,
,,,,,,,,,,,,,FF,,,,,,,,0.9174,,,,,,,,,,,,,,,,,,,,,,60ff39a8dc1a2539c032a5b7,61036e48a0b9920bb45a69e5,2021-07-29_21h14.29.916,Simcolourproject_2stim_asymm_v5,2020.2.10,MacIntel,60,61025ae37ef11b136ea224fe,,,,,,,,,2080,65.7890625,42.6796875,1,0,0,response1disk,,6,4.8125,5.6484375,1,0,0,rectangle,4.8125,5.6484375,1,0,0,4.8125,5.6484375,1,0,0,0,42,42,56,1,,,,,,,,
,,,,,,,,,,,,,FF,,,,,,,,1.0671,,,,,,,,,,,,,,,,,,,,,,60ff39a8dc1a2539c032a5b7,61036e48a0b9920bb45a69e5,2021-07-29_21h14.29.916,Simcolourproject_2stim_asymm_v5,2020.2.10,MacIntel,60,61025ae37ef11b136ea224fe,,,,,,,,,2256,68.62109375,34.765625,1,0,0,response1disk,,6,12.02734375,-4.33984375,1,0,0,rectangle,12.02734375,-4.33984375,1,0,0,12.02734375,-4.33984375,1,0,0,0,43,43,47,1,,,,,,,,
,,,,,,,,,,,,,FF,,,,,,,,1.3007,,,,,,,,,,,,,,,,,,,,,,60ff39a8dc1a2539c032a5b7,61036e48a0b9920bb45a69e5,2021-07-29_21h14.29.916,Simcolourproject_2stim_asymm_v5,2020.2.10,MacIntel,60,61025ae37ef11b136ea224fe,,,,,,,,,3961,57.11328125,71.2734375,1,0,0,response1disk,,7,10.07421875,-13.39453125,1,0,0,rectangle,10.07421875,-13.39453125,1,0,0,10.07421875,-13.39453125,1,0,0,0,44,44,59,1,,,,,,,,
,,,,,,,,,,,,,FF,,,,,,,,1.7995,,,,,,,,,,,,,,,,,,,,,,60ff39a8dc1a2539c032a5b7,61036e48a0b9920bb45a69e5,2021-07-29_21h14.29.916,Simcolourproject_2stim_asymm_v5,2020.2.10,MacIntel,60,61025ae37ef11b136ea224fe,,,,,,,,,839,78.43359375,30.2890625,1,0,0,response1disk,,6,13.18359375,-5.62109375,1,0,0,rectangle,13.18359375,-5.62109375,1,0,0,13.18359375,-5.62109375,1,0,0,0,45,45,141,1,,,,,,,,
,,,,,,,,,,,,,FF,,,,,,,,0.9518,,,,,,,,,,,,,,,,,,,,,,60ff39a8dc1a2539c032a5b7,61036e48a0b9920bb45a69e5,2021-07-29_21h14.29.916,Simcolourproject_2stim_asymm_v5,2020.2.10,MacIntel,60,61025ae37ef11b136ea224fe,,,,,,,,,1439,95.71875,39.5859375,1,0,0,response1disk,,6,2.48046875,-6.0390625,1,0,0,rectangle,2.48046875,-6.0390625,1,0,0,2.48046875,-6.0390625,1,0,0,0,46,46,49,1,,,,,,,,
,,,,,,,,,,,,,FF,,,,,,,,0.7672,,,,,,,,,,,,,,,,,,,,,,60ff39a8dc1a2539c032a5b7,61036e48a0b9920bb45a69e5,2021-07-29_21h14.29.916,Simcolourproject_2stim_asymm_v5,2020.2.10,MacIntel,60,61025ae37ef11b136ea224fe,,,,,,,,,1488,91.859375,36.7265625,1,0,0,response1disk,,6,19.6796875,-5.28515625,1,0,0,rectangle,19.6796875,-5.28515625,1,0,0,19.6796875,-5.28515625,1,0,0,0,47,47,134,1,,,,,,,,
,,,,,,,,,,,,,FF,,,,,,,,1.5497,,,,,,,,,,,,,,,,,,,,,,60ff39a8dc1a2539c032a5b7,61036e48a0b9920bb45a69e5,2021-07-29_21h14.29.916,Simcolourproject_2stim_asymm_v5,2020.2.10,MacIntel,60,61025ae37ef11b136ea224fe,,,,,,,,,1974,41.34765625,-85.77734375,1,0,0,response3disk,,4,17.48828125,-9.4375,1,0,0,rectangle,17.48828125,-9.4375,1,0,0,17.48828125,-9.4375,1,0,0,0,48,48,110,1,,,,,,,,
,,,,,,,,,,,,,FF,,,,,,,,1.9335,,,,,,,,,,,,,,,,,,,,,,60ff39a8dc1a2539c032a5b7,61036e48a0b9920bb45a69e5,2021-07-29_21h14.29.916,Simcolourproject_2stim_asymm_v5,2020.2.10,MacIntel,60,61025ae37ef11b136ea224fe,,,,,,,,,622,87.08984375,-39.28125,1,0,0,response3disk,,5,-13.6953125,-12.1171875,1,0,0,rectangle,-13.6953125,-12.1171875,1,0,0,-13.6953125,-12.1171875,1,0,0,0,49,49,132,1,,,,,,,,
,,,,,,,,,,,,,FF,,,,,,,,1.6018,,,,,,,,,,,,,,,,,,,,,,60ff39a8dc1a2539c032a5b7,61036e48a0b9920bb45a69e5,2021-07-29_21h14.29.916,Simcolourproject_2stim_asymm_v5,2020.2.10,MacIntel,60,61025ae37ef11b136ea224fe,,,,,,,,,1090,94.03515625,34.09375,1,0,0,response1disk,,6,-14.61328125,-1.6484375,1,0,0,rectangle,-14.61328125,-1.6484375,1,0,0,-14.61328125,-1.6484375,1,0,0,0,50,50,100,1,,,,,,,,
,,,,,,,,,,,,,FF,,,,,,,,1.5859,,,,,,,,,,,,,,,,,,,,,,60ff39a8dc1a2539c032a5b7,61036e48a0b9920bb45a69e5,2021-07-29_21h14.29.916,Simcolourproject_2stim_asymm_v5,2020.2.10,MacIntel,60,61025ae37ef11b136ea224fe,,,,,,,,,3096,-86.97265625,27.296875,1,0,0,response7disk,,1,-16.5625,-1.859375,1,0,0,rectangle,-16.5625,-1.859375,1,0,0,-16.5625,-1.859375,1,0,0,0,51,51,73,1,,,,,,,,
,,,,,,,,,,,,,FF,,,,,,,,1.3191,,,,,,,,,,,,,,,,,,,,,,60ff39a8dc1a2539c032a5b7,61036e48a0b9920bb45a69e5,2021-07-29_21h14.29.916,Simcolourproject_2stim_asymm_v5,2020.2.10,MacIntel,60,61025ae37ef11b136ea224fe,,,,,,,,,903,84.58203125,-64.86328125,1,0,0,response3disk,,5,5.88671875,-4.3984375,1,0,0,rectangle,5.88671875,-4.3984375,1,0,0,5.88671875,-4.3984375,1,0,0,0,52,52,4,1,,,,,,,,
,,,,,,,,,,,,,FF,,,,,,,,2.2154,,,,,,,,,,,,,,,,,,,,,,60ff39a8dc1a2539c032a5b7,61036e48a0b9920bb45a69e5,2021-07-29_21h14.29.916,Simcolourproject_2stim_asymm_v5,2020.2.10,MacIntel,60,61025ae37ef11b136ea224fe,,,,,,,,,2995,-47.07421875,-97.28125,1,0,0,response5disk,,3,8.67578125,-5.65234375,1,0,0,rectangle,8.67578125,-5.65234375,1,0,0,8.67578125,-5.65234375,1,0,0,0,53,53,104,1,,,,,,,,
,,,,,,,,,,,,,FF,,,,,,,,1.2347,,,,,,,,,,,,,,,,,,,,,,60ff39a8dc1a2539c032a5b7,61036e48a0b9920bb45a69e5,2021-07-29_21h14.29.916,Simcolourproject_2stim_asymm_v5,2020.2.10,MacIntel,60,61025ae37ef11b136ea224fe,,,,,,,,,1939,39.453125,62.62890625,1,0,0,response1disk,,7,20.64453125,-0.36328125,1,0,0,rectangle,20.64453125,-0.36328125,1,0,0,20.64453125,-0.36328125,1,0,0,0,54,54,33,1,,,,,,,,
,,,,,,,,,,,,,FF,,,,,,,,1.397,,,,,,,,,,,,,,,,,,,,,,60ff39a8dc1a2539c032a5b7,61036e48a0b9920bb45a69e5,2021-07-29_21h14.29.916,Simcolourproject_2stim_asymm_v5,2020.2.10,MacIntel,60,61025ae37ef11b136ea224fe,,,,,,,,,4171,-50.41015625,-86.03515625,1,0,0,response5disk,,3,3.90234375,-5.10546875,1,0,0,rectangle,3.90234375,-5.10546875,1,0,0,3.90234375,-5.10546875,1,0,0,0,55,55,67,1,,,,,,,,
,,,,,,,,,,,,,FF,,,,,,,,2.0659,,,,,,,,,,,,,,,,,,,,,,60ff39a8dc1a2539c032a5b7,61036e48a0b9920bb45a69e5,2021-07-29_21h14.29.916,Simcolourproject_2stim_asymm_v5,2020.2.10,MacIntel,60,61025ae37ef11b136ea224fe,,,,,,,,,269,61.046875,-54.46875,1,0,0,response3disk,,5,17.953125,10.75390625,1,0,0,rectangle,17.953125,10.75390625,1,0,0,17.953125,10.75390625,1,0,0,0,56,56,75,1,,,,,,,,
,,,,,,,,,,,,,FF,,,,,,,,1.0669,,,,,,,,,,,,,,,,,,,,,,60ff39a8dc1a2539c032a5b7,61036e48a0b9920bb45a69e5,2021-07-29_21h14.29.916,Simcolourproject_2stim_asymm_v5,2020.2.10,MacIntel,60,61025ae37ef11b136ea224fe,,,,,,,,,487,79.7265625,22.390625,1,0,0,response1disk,,6,-3.50390625,-8.21875,1,0,0,rectangle,-3.50390625,-8.21875,1,0,0,-3.50390625,-8.21875,1,0,0,0,57,57,152,1,,,,,,,,
,,,,,,,,,,,,,FF,,,,,,,,0.868,,,,,,,,,,,,,,,,,,,,,,60ff39a8dc1a2539c032a5b7,61036e48a0b9920bb45a69e5,2021-07-29_21h14.29.916,Simcolourproject_2stim_asymm_v5,2020.2.10,MacIntel,60,61025ae37ef11b136ea224fe,,,,,,,,,473,108.0390625,38.93359375,1,0,0,response1disk,,6,-12.359375,-0.171875,1,0,0,rectangle,-12.359375,-0.171875,1,0,0,-12.359375,-0.171875,1,0,0,0,58,58,155,1,,,,,,,,
,,,,,,,,,,,,,FF,,,,,,,,0.9814,,,,,,,,,,,,,,,,,,,,,,60ff39a8dc1a2539c032a5b7,61036e48a0b9920bb45a69e5,2021-07-29_21h14.29.916,Simcolourproject_2stim_asymm_v5,2020.2.10,MacIntel,60,61025ae37ef11b136ea224fe,,,,,,,,,3301,83.5625,-38.47265625,1,0,0,response3disk,,5,0.9296875,5.2890625,1,0,0,rectangle,0.9296875,5.2890625,1,0,0,0.9296875,5.2890625,1,0,0,0,59,59,130,1,,,,,,,,
,,,,,,,,,,,,,FF,,,,,,,,2.0333,,,,,,,,,,,,,,,,,,,,,,60ff39a8dc1a2539c032a5b7,61036e48a0b9920bb45a69e5,2021-07-29_21h14.29.916,Simcolourproject_2stim_asymm_v5,2020.2.10,MacIntel,60,61025ae37ef11b136ea224fe,,,,,,,,,3805,-44.8359375,-95.734375,1,0,0,response5disk,,3,6.58984375,-17.95703125,1,0,0,rectangle,-55.0234375,87.3984375,1,0,0,6.875,0.4921875,1,0,0,0,60,60,35,1,,response7disk_3,TRUE,0,0,"[278,77,75,61,67,318,271,125,99,320,79,90,184,223,161,224,323,130,226,285]",2.7641,rectangle
,,,,,,,,,,,,,FF,,,,,,,,10.984,,,,,,,,,,,,,,,,,,,,,,60ff39a8dc1a2539c032a5b7,61036e48a0b9920bb45a69e5,2021-07-29_21h14.29.916,Simcolourproject_2stim_asymm_v5,2020.2.10,MacIntel,60,61025ae37ef11b136ea224fe,,,,,,,,,4026,-31.7265625,-92.45703125,1,0,0,response5disk,,3,19.6484375,-0.8671875,1,0,0,rectangle,19.6484375,-0.8671875,1,0,0,19.6484375,-0.8671875,1,0,0,0,61,61,159,1,,,,,,,,
,,,,,,,,,,,,,FF,,,,,,,,1.2509,,,,,,,,,,,,,,,,,,,,,,60ff39a8dc1a2539c032a5b7,61036e48a0b9920bb45a69e5,2021-07-29_21h14.29.916,Simcolourproject_2stim_asymm_v5,2020.2.10,MacIntel,60,61025ae37ef11b136ea224fe,,,,,,,,,2711,68.1953125,-31.078125,1,0,0,response3disk,,5,21.87109375,3.1796875,1,0,0,rectangle,21.87109375,3.1796875,1,0,0,21.87109375,3.1796875,1,0,0,0,62,62,124,1,,,,,,,,
,,,,,,,,,,,,,FF,,,,,,,,0.9845,,,,,,,,,,,,,,,,,,,,,,60ff39a8dc1a2539c032a5b7,61036e48a0b9920bb45a69e5,2021-07-29_21h14.29.916,Simcolourproject_2stim_asymm_v5,2020.2.10,MacIntel,60,61025ae37ef11b136ea224fe,,,,,,,,,1165,72.09375,31.67578125,1,0,0,response1disk,,6,11.31640625,-4.66796875,1,0,0,rectangle,11.31640625,-4.66796875,1,0,0,11.31640625,-4.66796875,1,0,0,0,63,63,72,1,,,,,,,,
,,,,,,,,,,,,,FF,,,,,,,,1.4501,,,,,,,,,,,,,,,,,,,,,,60ff39a8dc1a2539c032a5b7,61036e48a0b9920bb45a69e5,2021-07-29_21h14.29.916,Simcolourproject_2stim_asymm_v5,2020.2.10,MacIntel,60,61025ae37ef11b136ea224fe,,,,,,,,,2619,34.04296875,-69.046875,1,0,0,response3disk,,4,18.42578125,2.75390625,1,0,0,rectangle,18.42578125,2.75390625,1,0,0,18.42578125,2.75390625,1,0,0,0,64,64,66,1,,,,,,,,
,,,,,,,,,,,,,FF,,,,,,,,1.1174,,,,,,,,,,,,,,,,,,,,,,60ff39a8dc1a2539c032a5b7,61036e48a0b9920bb45a69e5,2021-07-29_21h14.29.916,Simcolourproject_2stim_asymm_v5,2020.2.10,MacIntel,60,61025ae37ef11b136ea224fe,,,,,,,,,3739,36.59375,68.5234375,1,0,0,response1disk,,7,2.55078125,4.875,1,0,0,rectangle,2.55078125,4.875,1,0,0,2.55078125,4.875,1,0,0,0,65,65,122,1,,,,,,,,
,,,,,,,,,,,,,FF,,,,,,,,0.9668,,,,,,,,,,,,,,,,,,,,,,60ff39a8dc1a2539c032a5b7,61036e48a0b9920bb45a69e5,2021-07-29_21h14.29.916,Simcolourproject_2stim_asymm_v5,2020.2.10,MacIntel,60,61025ae37ef11b136ea224fe,,,,,,,,,171,-77.140625,-48.9765625,1,0,0,response5disk,,2,3.3671875,-8.58203125,1,0,0,rectangle,-96.671875,-56.55078125,1,0,0,-5.609375,11.203125,1,0,0,0,66,66,13,1,,response5disk_3,TRUE,2,2,"[278,77,75,61,67,318,271,125,99,320,79,90,184,223,161,224,323,130,226,285]",2.2498,rectangle
,,,,,,,,,,,,,FF,,,,,,,,2.5334,,,,,,,,,,,,,,,,,,,,,,60ff39a8dc1a2539c032a5b7,61036e48a0b9920bb45a69e5,2021-07-29_21h14.29.916,Simcolourproject_2stim_asymm_v5,2020.2.10,MacIntel,60,61025ae37ef11b136ea224fe,,,,,,,,,2353,-32.49609375,-85.74609375,1,0,0,response5disk,,3,-7.2265625,4.7265625,1,0,0,rectangle,-7.2265625,4.7265625,1,0,0,-7.2265625,4.7265625,1,0,0,0,67,67,139,1,,,,,,,,
,,,,,,,,,,,,,FF,,,,,,,,1.0992,,,,,,,,,,,,,,,,,,,,,,60ff39a8dc1a2539c032a5b7,61036e48a0b9920bb45a69e5,2021-07-29_21h14.29.916,Simcolourproject_2stim_asymm_v5,2020.2.10,MacIntel,60,61025ae37ef11b136ea224fe,,,,,,,,,706,-33.83984375,-77.2734375,1,0,0,response5disk,,3,-5.4375,5.7578125,1,0,0,rectangle,-5.4375,5.7578125,1,0,0,-5.4375,5.7578125,1,0,0,0,68,68,60,1,,,,,,,,
,,,,,,,,,,,,,FF,,,,,,,,0.9672,,,,,,,,,,,,,,,,,,,,,,60ff39a8dc1a2539c032a5b7,61036e48a0b9920bb45a69e5,2021-07-29_21h14.29.916,Simcolourproject_2stim_asymm_v5,2020.2.10,MacIntel,60,61025ae37ef11b136ea224fe,,,,,,,,,1963,-43.6796875,83.5,1,0,0,response7disk,,0,-13.62890625,-3.04296875,1,0,0,rectangle,-13.62890625,-3.04296875,1,0,0,-13.62890625,-3.04296875,1,0,0,0,69,69,82,1,,,,,,,,
,,,,,,,,,,,,,FF,,,,,,,,1.0344,,,,,,,,,,,,,,,,,,,,,,60ff39a8dc1a2539c032a5b7,61036e48a0b9920bb45a69e5,2021-07-29_21h14.29.916,Simcolourproject_2stim_asymm_v5,2020.2.10,MacIntel,60,61025ae37ef11b136ea224fe,,,,,,,,,301,94.11328125,32.4765625,1,0,0,response1disk,,6,-15.90625,-5.80078125,1,0,0,rectangle,-15.90625,-5.80078125,1,0,0,-15.90625,-5.80078125,1,0,0,0,70,70,123,1,,,,,,,,
,,,,,,,,,,,,,FF,,,,,,,,1.1175,,,,,,,,,,,,,,,,,,,,,,60ff39a8dc1a2539c032a5b7,61036e48a0b9920bb45a69e5,2021-07-29_21h14.29.916,Simcolourproject_2stim_asymm_v5,2020.2.10,MacIntel,60,61025ae37ef11b136ea224fe,,,,,,,,,728,30.34765625,-75.62109375,1,0,0,response3disk,,4,10.28515625,-11.0546875,1,0,0,rectangle,10.28515625,-11.0546875,1,0,0,10.28515625,-11.0546875,1,0,0,0,71,71,125,1,,,,,,,,
,,,,,,,,,,,,,FF,,,,,,,,2.0167,,,,,,,,,,,,,,,,,,,,,,60ff39a8dc1a2539c032a5b7,61036e48a0b9920bb45a69e5,2021-07-29_21h14.29.916,Simcolourproject_2stim_asymm_v5,2020.2.10,MacIntel,60,61025ae37ef11b136ea224fe,,,,,,,,,3927,18.5546875,79.38671875,1,0,0,response1disk,,7,-8.640625,-1.55859375,1,0,0,rectangle,-8.640625,-1.55859375,1,0,0,-8.640625,-1.55859375,1,0,0,0,72,72,112,1,,,,,,,,
,,,,,,,,,,,,,FF,,,,,,,,0.7816,,,,,,,,,,,,,,,,,,,,,,60ff39a8dc1a2539c032a5b7,61036e48a0b9920bb45a69e5,2021-07-29_21h14.29.916,Simcolourproject_2stim_asymm_v5,2020.2.10,MacIntel,60,61025ae37ef11b136ea224fe,,,,,,,,,2138,41.0546875,74.640625,1,0,0,response1disk,,7,-6.94140625,0.9765625,1,0,0,rectangle,-6.94140625,0.9765625,1,0,0,-6.94140625,0.9765625,1,0,0,0,73,73,36,1,,,,,,,,
,,,,,,,,,,,,,FF,,,,,,,,0.9338,,,,,,,,,,,,,,,,,,,,,,60ff39a8dc1a2539c032a5b7,61036e48a0b9920bb45a69e5,2021-07-29_21h14.29.916,Simcolourproject_2stim_asymm_v5,2020.2.10,MacIntel,60,61025ae37ef11b136ea224fe,,,,,,,,,3810,-32.8203125,81.52734375,1,0,0,response7disk,,0,-10.3203125,1.6015625,1,0,0,rectangle,-36.5,-80.8125,1,0,0,-2.66796875,-0.98828125,1,0,0,0,74,74,12,1,,response5disk_3,TRUE,3,3,"[278,77,75,61,67,318,271,125,99,320,79,90,184,223,161,224,323,130,226,285]",1.9335,rectangle
,,,,,,,,,,,,,FF,,,,,,,,1.1671,,,,,,,,,,,,,,,,,,,,,,60ff39a8dc1a2539c032a5b7,61036e48a0b9920bb45a69e5,2021-07-29_21h14.29.916,Simcolourproject_2stim_asymm_v5,2020.2.10,MacIntel,60,61025ae37ef11b136ea224fe,,,,,,,,,3942,-52.484375,-123.125,1,0,0,response5disk,,3,-0.76171875,1.58203125,1,0,0,rectangle,-0.76171875,1.58203125,1,0,0,-0.76171875,1.58203125,1,0,0,0,75,75,92,1,,,,,,,,
,,,,,,,,,,,,,FF,,,,,,,,1.9505,,,,,,,,,,,,,,,,,,,,,,60ff39a8dc1a2539c032a5b7,61036e48a0b9920bb45a69e5,2021-07-29_21h14.29.916,Simcolourproject_2stim_asymm_v5,2020.2.10,MacIntel,60,61025ae37ef11b136ea224fe,,,,,,,,,1146,57.65234375,-38.046875,1,0,0,response3disk,,5,21.71875,-11.45703125,1,0,0,rectangle,46.96875,110.625,1,0,0,-8.3203125,-6.7578125,1,0,0,0,76,76,146,1,,response1disk_3,TRUE,7,7,"[278,77,75,61,67,318,271,125,99,320,79,90,184,223,161,224,323,130,226,285]",1.7511,rectangle
,,,,,,,,,,,,,FF,,,,,,,,1.0669,,,,,,,,,,,,,,,,,,,,,,60ff39a8dc1a2539c032a5b7,61036e48a0b9920bb45a69e5,2021-07-29_21h14.29.916,Simcolourproject_2stim_asymm_v5,2020.2.10,MacIntel,60,61025ae37ef11b136ea224fe,,,,,,,,,2470,59.546875,37.01171875,1,0,0,response1disk,,6,12.80859375,-6.89453125,1,0,0,rectangle,12.80859375,-6.89453125,1,0,0,12.80859375,-6.89453125,1,0,0,0,77,77,37,1,,,,,,,,
,,,,,,,,,,,,,FF,,,,,,,,0.7682,,,,,,,,,,,,,,,,,,,,,,60ff39a8dc1a2539c032a5b7,61036e48a0b9920bb45a69e5,2021-07-29_21h14.29.916,Simcolourproject_2stim_asymm_v5,2020.2.10,MacIntel,60,61025ae37ef11b136ea224fe,,,,,,,,,1290,-30.609375,60.60546875,1,0,0,response7disk,,0,-6.390625,-1.75390625,1,0,0,rectangle,71.27734375,39.765625,1,0,0,6.48046875,-5.515625,1,0,0,0,78,78,105,1,,response1disk_3,TRUE,6,6,"[278,77,75,61,67,318,271,125,99,320,79,90,184,223,161,224,323,130,226,285]",1.6656,rectangle
,,,,,,,,,,,,,FF,,,,,,,,1.4821,,,,,,,,,,,,,,,,,,,,,,60ff39a8dc1a2539c032a5b7,61036e48a0b9920bb45a69e5,2021-07-29_21h14.29.916,Simcolourproject_2stim_asymm_v5,2020.2.10,MacIntel,60,61025ae37ef11b136ea224fe,,,,,,,,,2615,-27.1484375,-48.41015625,1,0,0,response5disk,,3,2.33984375,2.73828125,1,0,0,rectangle,2.33984375,2.73828125,1,0,0,2.33984375,2.73828125,1,0,0,0,79,79,116,1,,,,,,,,
,,,,,,,,,,,,,FF,,,,,,,,1.416,,,,,,,,,,,,,,,,,,,,,,60ff39a8dc1a2539c032a5b7,61036e48a0b9920bb45a69e5,2021-07-29_21h14.29.916,Simcolourproject_2stim_asymm_v5,2020.2.10,MacIntel,60,61025ae37ef11b136ea224fe,,,,,,,,,611,57.2421875,-35.07421875,1,0,0,response3disk,,5,16.07421875,-6.31640625,1,0,0,rectangle,16.07421875,-6.31640625,1,0,0,16.07421875,-6.31640625,1,0,0,0,80,80,0,1,,,,,,,,
,,,,,,,,,,,,,FF,,,,,,,,0.8528,,,,,,,,,,,,,,,,,,,,,,60ff39a8dc1a2539c032a5b7,61036e48a0b9920bb45a69e5,2021-07-29_21h14.29.916,Simcolourproject_2stim_asymm_v5,2020.2.10,MacIntel,60,61025ae37ef11b136ea224fe,,,,,,,,,2659,73.91796875,-40.67578125,1,0,0,response3disk,,5,18.6875,-13.9765625,1,0,0,rectangle,18.6875,-13.9765625,1,0,0,18.6875,-13.9765625,1,0,0,0,81,81,148,1,,,,,,,,
,,,,,,,,,,,,,FF,,,,,,,,4.9675,,,,,,,,,,,,,,,,,,,,,,60ff39a8dc1a2539c032a5b7,61036e48a0b9920bb45a69e5,2021-07-29_21h14.29.916,Simcolourproject_2stim_asymm_v5,2020.2.10,MacIntel,60,61025ae37ef11b136ea224fe,,,,,,,,,3457,37.8671875,75.22265625,1,0,0,response1disk,,7,-5.77734375,6.49609375,1,0,0,rectangle,-5.77734375,6.49609375,1,0,0,-5.77734375,6.49609375,1,0,0,0,82,82,81,1,,,,,,,,
,,,,,,,,,,,,,FF,,,,,,,,1.2832,,,,,,,,,,,,,,,,,,,,,,60ff39a8dc1a2539c032a5b7,61036e48a0b9920bb45a69e5,2021-07-29_21h14.29.916,Simcolourproject_2stim_asymm_v5,2020.2.10,MacIntel,60,61025ae37ef11b136ea224fe,,,,,,,,,986,68.69921875,-41.2890625,1,0,0,response3disk,,5,0.69921875,-7.9296875,1,0,0,rectangle,0.69921875,-7.9296875,1,0,0,0.69921875,-7.9296875,1,0,0,0,83,83,58,1,,,,,,,,
,,,,,,,,,,,,,FF,,,,,,,,1.2324,,,,,,,,,,,,,,,,,,,,,,60ff39a8dc1a2539c032a5b7,61036e48a0b9920bb45a69e5,2021-07-29_21h14.29.916,Simcolourproject_2stim_asymm_v5,2020.2.10,MacIntel,60,61025ae37ef11b136ea224fe,,,,,,,,,4031,36.47265625,-66.19921875,1,0,0,response3disk,,4,15.82421875,-5.81640625,1,0,0,rectangle,15.82421875,-5.81640625,1,0,0,15.82421875,-5.81640625,1,0,0,0,84,84,129,1,,,,,,,,
,,,,,,,,,,,,,FF,,,,,,,,1.6837,,,,,,,,,,,,,,,,,,,,,,60ff39a8dc1a2539c032a5b7,61036e48a0b9920bb45a69e5,2021-07-29_21h14.29.916,Simcolourproject_2stim_asymm_v5,2020.2.10,MacIntel,60,61025ae37ef11b136ea224fe,,,,,,,,,1594,39.125,-76.5078125,1,0,0,response3disk,,4,2.52734375,-1.046875,1,0,0,rectangle,2.52734375,-1.046875,1,0,0,2.52734375,-1.046875,1,0,0,0,85,85,154,1,,,,,,,,
,,,,,,,,,,,,,FF,,,,,,,,1.0331,,,,,,,,,,,,,,,,,,,,,,60ff39a8dc1a2539c032a5b7,61036e48a0b9920bb45a69e5,2021-07-29_21h14.29.916,Simcolourproject_2stim_asymm_v5,2020.2.10,MacIntel,60,61025ae37ef11b136ea224fe,,,,,,,,,1016,50.13671875,19.00390625,1,0,0,response1disk,,6,17.59375,-1.7578125,1,0,0,rectangle,17.59375,-1.7578125,1,0,0,17.59375,-1.7578125,1,0,0,0,86,86,44,1,,,,,,,,
,,,,,,,,,,,,,FF,,,,,,,,0.9515,,,,,,,,,,,,,,,,,,,,,,60ff39a8dc1a2539c032a5b7,61036e48a0b9920bb45a69e5,2021-07-29_21h14.29.916,Simcolourproject_2stim_asymm_v5,2020.2.10,MacIntel,60,61025ae37ef11b136ea224fe,,,,,,,,,2297,-27.859375,-67.58984375,1,0,0,response5disk,,3,-9.57421875,-1.171875,1,0,0,rectangle,-9.57421875,-1.171875,1,0,0,-9.57421875,-1.171875,1,0,0,0,87,87,70,1,,,,,,,,
,,,,,,,,,,,,,FF,,,,,,,,0.8311,,,,,,,,,,,,,,,,,,,,,,60ff39a8dc1a2539c032a5b7,61036e48a0b9920bb45a69e5,2021-07-29_21h14.29.916,Simcolourproject_2stim_asymm_v5,2020.2.10,MacIntel,60,61025ae37ef11b136ea224fe,,,,,,,,,1855,35.57421875,66.4375,1,0,0,response1disk,,7,0.16015625,-1.1171875,1,0,0,rectangle,0.16015625,-1.1171875,1,0,0,0.16015625,-1.1171875,1,0,0,0,88,88,80,1,,,,,,,,
,,,,,,,,,,,,,FF,,,,,,,,0.8846,,,,,,,,,,,,,,,,,,,,,,60ff39a8dc1a2539c032a5b7,61036e48a0b9920bb45a69e5,2021-07-29_21h14.29.916,Simcolourproject_2stim_asymm_v5,2020.2.10,MacIntel,60,61025ae37ef11b136ea224fe,,,,,,,,,1506,26.046875,56.4296875,1,0,0,response1disk,,7,-10.68359375,-4.171875,1,0,0,rectangle,-30.32421875,-94.32421875,1,0,0,9.625,5.12109375,1,0,0,0,89,89,87,1,,response5disk_3,TRUE,3,3,"[278,77,75,61,67,318,271,125,99,320,79,90,184,223,161,224,323,130,226,285]",2.4502,rectangle
,,,,,,,,,,,,,FF,,,,,,,,0.9168,,,,,,,,,,,,,,,,,,,,,,60ff39a8dc1a2539c032a5b7,61036e48a0b9920bb45a69e5,2021-07-29_21h14.29.916,Simcolourproject_2stim_asymm_v5,2020.2.10,MacIntel,60,61025ae37ef11b136ea224fe,,,,,,,,,1704,72.4921875,-29.60546875,1,0,0,response3disk,,5,24.96484375,-9.89453125,1,0,0,rectangle,24.96484375,-9.89453125,1,0,0,24.96484375,-9.89453125,1,0,0,0,90,90,158,1,,,,,,,,
,,,,,,,,,,,,,FF,,,,,,,,1.3336,,,,,,,,,,,,,,,,,,,,,,60ff39a8dc1a2539c032a5b7,61036e48a0b9920bb45a69e5,2021-07-29_21h14.29.916,Simcolourproject_2stim_asymm_v5,2020.2.10,MacIntel,60,61025ae37ef11b136ea224fe,,,,,,,,,2422,42.4375,-103.6601563,1,0,0,response3disk,,4,20.18359375,-15.109375,1,0,0,rectangle,20.18359375,-15.109375,1,0,0,20.18359375,-15.109375,1,0,0,0,91,91,89,1,,,,,,,,
,,,,,,,,,,,,,FF,,,,,,,,1.4358,,,,,,,,,,,,,,,,,,,,,,60ff39a8dc1a2539c032a5b7,61036e48a0b9920bb45a69e5,2021-07-29_21h14.29.916,Simcolourproject_2stim_asymm_v5,2020.2.10,MacIntel,60,61025ae37ef11b136ea224fe,,,,,,,,,3500,61.36328125,26.71875,1,0,0,response1disk,,6,-8.98828125,-2.7421875,1,0,0,rectangle,-8.98828125,-2.7421875,1,0,0,-8.98828125,-2.7421875,1,0,0,0,92,92,17,1,,,,,,,,
,,,,,,,,,,,,,FF,,,,,,,,1.6839,,,,,,,,,,,,,,,,,,,,,,60ff39a8dc1a2539c032a5b7,61036e48a0b9920bb45a69e5,2021-07-29_21h14.29.916,Simcolourproject_2stim_asymm_v5,2020.2.10,MacIntel,60,61025ae37ef11b136ea224fe,,,,,,,,,1839,54.8515625,-31.08984375,1,0,0,response3disk,,5,18.8046875,5.01171875,1,0,0,rectangle,18.8046875,5.01171875,1,0,0,18.8046875,5.01171875,1,0,0,0,93,93,145,1,,,,,,,,
,,,,,,,,,,,,,FF,,,,,,,,0.8169,,,,,,,,,,,,,,,,,,,,,,60ff39a8dc1a2539c032a5b7,61036e48a0b9920bb45a69e5,2021-07-29_21h14.29.916,Simcolourproject_2stim_asymm_v5,2020.2.10,MacIntel,60,61025ae37ef11b136ea224fe,,,,,,,,,1699,48.6328125,80.5390625,1,0,0,response1disk,,7,4.53125,-5.05859375,1,0,0,rectangle,4.53125,-5.05859375,1,0,0,4.53125,-5.05859375,1,0,0,0,94,94,14,1,,,,,,,,
,,,,,,,,,,,,,FF,,,,,,,,0.6248,,,,,,,,,,,,,,,,,,,,,,60ff39a8dc1a2539c032a5b7,61036e48a0b9920bb45a69e5,2021-07-29_21h14.29.916,Simcolourproject_2stim_asymm_v5,2020.2.10,MacIntel,60,61025ae37ef11b136ea224fe,,,,,,,,,1147,54.66796875,77.33203125,1,0,0,response1disk,,7,3.1953125,8.82421875,1,0,0,rectangle,3.1953125,8.82421875,1,0,0,3.1953125,8.82421875,1,0,0,0,95,95,5,1,,,,,,,,
,,,,,,,,,,,,,FF,,,,,,,,1.4308,,,,,,,,,,,,,,,,,,,,,,60ff39a8dc1a2539c032a5b7,61036e48a0b9920bb45a69e5,2021-07-29_21h14.29.916,Simcolourproject_2stim_asymm_v5,2020.2.10,MacIntel,60,61025ae37ef11b136ea224fe,,,,,,,,,2423,-33.99609375,-76.5,1,0,0,response5disk,,3,22.16015625,9.81640625,1,0,0,rectangle,22.16015625,9.81640625,1,0,0,22.16015625,9.81640625,1,0,0,0,96,96,27,1,,,,,,,,
,,,,,,,,,,,,,FF,,,,,,,,0.9664,,,,,,,,,,,,,,,,,,,,,,60ff39a8dc1a2539c032a5b7,61036e48a0b9920bb45a69e5,2021-07-29_21h14.29.916,Simcolourproject_2stim_asymm_v5,2020.2.10,MacIntel,60,61025ae37ef11b136ea224fe,,,,,,,,,928,42.6796875,63.8203125,1,0,0,response1disk,,7,8.04296875,5.6015625,1,0,0,rectangle,8.04296875,5.6015625,1,0,0,8.04296875,5.6015625,1,0,0,0,97,97,55,1,,,,,,,,
,,,,,,,,,,,,,FF,,,,,,,,3.4671,,,,,,,,,,,,,,,,,,,,,,60ff39a8dc1a2539c032a5b7,61036e48a0b9920bb45a69e5,2021-07-29_21h14.29.916,Simcolourproject_2stim_asymm_v5,2020.2.10,MacIntel,60,61025ae37ef11b136ea224fe,,,,,,,,,2815,57.27734375,-35.0625,1,0,0,response3disk,,5,6.8046875,-2.7109375,1,0,0,rectangle,75.69921875,-41.50390625,1,0,0,16.98046875,2.33203125,1,0,0,0,98,98,96,1,,response3disk_3,TRUE,5,5,"[278,77,75,61,67,318,271,125,99,320,79,90,184,223,161,224,323,130,226,285]",1.8147,rectangle
,,,,,,,,,,,,,FF,,,,,,,,1.2494,,,,,,,,,,,,,,,,,,,,,,60ff39a8dc1a2539c032a5b7,61036e48a0b9920bb45a69e5,2021-07-29_21h14.29.916,Simcolourproject_2stim_asymm_v5,2020.2.10,MacIntel,60,61025ae37ef11b136ea224fe,,,,,,,,,1381,39.53125,-69.98046875,1,0,0,response3disk,,4,12.15234375,-12.921875,1,0,0,rectangle,12.15234375,-12.921875,1,0,0,12.15234375,-12.921875,1,0,0,0,99,99,6,1,,,,,,,,
,,,,,,,,,,,,,FF,,,,,,,,3.931,,,,,,,,,,,,,,,,,,,,,,60ff39a8dc1a2539c032a5b7,61036e48a0b9920bb45a69e5,2021-07-29_21h14.29.916,Simcolourproject_2stim_asymm_v5,2020.2.10,MacIntel,60,61025ae37ef11b136ea224fe,,,,,,,,,2757,35.87109375,-73.8046875,1,0,0,response3disk,,4,16.9765625,-13.09765625,1,0,0,rectangle,16.9765625,-13.09765625,1,0,0,16.9765625,-13.09765625,1,0,0,0,100,100,108,1,,,,,,,,
,,,,,,,,,,,,,FF,,,,,,,,2.1645,,,,,,,,,,,,,,,,,,,,,,60ff39a8dc1a2539c032a5b7,61036e48a0b9920bb45a69e5,2021-07-29_21h14.29.916,Simcolourproject_2stim_asymm_v5,2020.2.10,MacIntel,60,61025ae37ef11b136ea224fe,,,,,,,,,2763,56.59375,42.328125,1,0,0,response1disk,,6,0.68359375,7.10546875,1,0,0,rectangle,0.68359375,7.10546875,1,0,0,0.68359375,7.10546875,1,0,0,0,101,101,85,1,,,,,,,,
,,,,,,,,,,,,,FF,,,,,,,,0.9337,,,,,,,,,,,,,,,,,,,,,,60ff39a8dc1a2539c032a5b7,61036e48a0b9920bb45a69e5,2021-07-29_21h14.29.916,Simcolourproject_2stim_asymm_v5,2020.2.10,MacIntel,60,61025ae37ef11b136ea224fe,,,,,,,,,3236,-46.953125,-66.1796875,1,0,0,response5disk,,3,16.0625,-7.9140625,1,0,0,rectangle,16.0625,-7.9140625,1,0,0,16.0625,-7.9140625,1,0,0,0,102,102,133,1,,,,,,,,
,,,,,,,,,,,,,FF,,,,,,,,2.9517,,,,,,,,,,,,,,,,,,,,,,60ff39a8dc1a2539c032a5b7,61036e48a0b9920bb45a69e5,2021-07-29_21h14.29.916,Simcolourproject_2stim_asymm_v5,2020.2.10,MacIntel,60,61025ae37ef11b136ea224fe,,,,,,,,,2924,56.4609375,31.00390625,1,0,0,response1disk,,6,16.44921875,3.61328125,1,0,0,rectangle,16.44921875,3.61328125,1,0,0,16.44921875,3.61328125,1,0,0,0,103,103,113,1,,,,,,,,
,,,,,,,,,,,,,FF,,,,,,,,1.4994,,,,,,,,,,,,,,,,,,,,,,60ff39a8dc1a2539c032a5b7,61036e48a0b9920bb45a69e5,2021-07-29_21h14.29.916,Simcolourproject_2stim_asymm_v5,2020.2.10,MacIntel,60,61025ae37ef11b136ea224fe,,,,,,,,,1977,39.31640625,23.1796875,1,0,0,response1disk,,6,17.59375,3.95703125,1,0,0,rectangle,17.59375,3.95703125,1,0,0,17.59375,3.95703125,1,0,0,0,104,104,118,1,,,,,,,,
,,,,,,,,,,,,,FF,,,,,,,,2.05,,,,,,,,,,,,,,,,,,,,,,60ff39a8dc1a2539c032a5b7,61036e48a0b9920bb45a69e5,2021-07-29_21h14.29.916,Simcolourproject_2stim_asymm_v5,2020.2.10,MacIntel,60,61025ae37ef11b136ea224fe,,,,,,,,,2054,30.5078125,-75.33203125,1,0,0,response3disk,,4,23.0625,-2.5703125,1,0,0,rectangle,23.0625,-2.5703125,1,0,0,23.0625,-2.5703125,1,0,0,0,105,105,111,1,,,,,,,,
,,,,,,,,,,,,,FF,,,,,,,,1.1163,,,,,,,,,,,,,,,,,,,,,,60ff39a8dc1a2539c032a5b7,61036e48a0b9920bb45a69e5,2021-07-29_21h14.29.916,Simcolourproject_2stim_asymm_v5,2020.2.10,MacIntel,60,61025ae37ef11b136ea224fe,,,,,,,,,1312,62.44140625,35.14453125,1,0,0,response1disk,,6,20.4296875,3.90625,1,0,0,rectangle,20.4296875,3.90625,1,0,0,20.4296875,3.90625,1,0,0,0,106,106,95,1,,,,,,,,
,,,,,,,,,,,,,FF,,,,,,,,1.2333,,,,,,,,,,,,,,,,,,,,,,60ff39a8dc1a2539c032a5b7,61036e48a0b9920bb45a69e5,2021-07-29_21h14.29.916,Simcolourproject_2stim_asymm_v5,2020.2.10,MacIntel,60,61025ae37ef11b136ea224fe,,,,,,,,,3593,49.60546875,-94.25,1,0,0,response3disk,,4,8.69140625,-0.63671875,1,0,0,rectangle,8.69140625,-0.63671875,1,0,0,8.69140625,-0.63671875,1,0,0,0,107,107,119,1,,,,,,,,
,,,,,,,,,,,,,FF,,,,,,,,0.7975,,,,,,,,,,,,,,,,,,,,,,60ff39a8dc1a2539c032a5b7,61036e48a0b9920bb45a69e5,2021-07-29_21h14.29.916,Simcolourproject_2stim_asymm_v5,2020.2.10,MacIntel,60,61025ae37ef11b136ea224fe,,,,,,,,,2817,31.3359375,60.62109375,1,0,0,response1disk,,7,8.58203125,5.80078125,1,0,0,rectangle,8.58203125,5.80078125,1,0,0,8.58203125,5.80078125,1,0,0,0,108,108,10,1,,,,,,,,
,,,,,,,,,,,,,FF,,,,,,,,0.9664,,,,,,,,,,,,,,,,,,,,,,60ff39a8dc1a2539c032a5b7,61036e48a0b9920bb45a69e5,2021-07-29_21h14.29.916,Simcolourproject_2stim_asymm_v5,2020.2.10,MacIntel,60,61025ae37ef11b136ea224fe,,,,,,,,,2238,29.21875,55.39453125,1,0,0,response1disk,,7,2.91015625,13.703125,1,0,0,rectangle,2.91015625,13.703125,1,0,0,2.91015625,13.703125,1,0,0,0,109,109,142,1,,,,,,,,
,,,,,,,,,,,,,FF,,,,,,,,0.9831,,,,,,,,,,,,,,,,,,,,,,60ff39a8dc1a2539c032a5b7,61036e48a0b9920bb45a69e5,2021-07-29_21h14.29.916,Simcolourproject_2stim_asymm_v5,2020.2.10,MacIntel,60,61025ae37ef11b136ea224fe,,,,,,,,,2333,33.94140625,65.1796875,1,0,0,response1disk,,7,7.1171875,-0.765625,1,0,0,rectangle,7.1171875,-0.765625,1,0,0,7.1171875,-0.765625,1,0,0,0,110,110,9,1,,,,,,,,
,,,,,,,,,,,,,FF,,,,,,,,0.6009,,,,,,,,,,,,,,,,,,,,,,60ff39a8dc1a2539c032a5b7,61036e48a0b9920bb45a69e5,2021-07-29_21h14.29.916,Simcolourproject_2stim_asymm_v5,2020.2.10,MacIntel,60,61025ae37ef11b136ea224fe,,,,,,,,,506,42.27734375,58.80859375,1,0,0,response1disk,,7,8.4609375,-0.1953125,1,0,0,rectangle,8.4609375,-0.1953125,1,0,0,8.4609375,-0.1953125,1,0,0,0,111,111,77,1,,,,,,,,
,,,,,,,,,,,,,FF,,,,,,,,0.7515,,,,,,,,,,,,,,,,,,,,,,60ff39a8dc1a2539c032a5b7,61036e48a0b9920bb45a69e5,2021-07-29_21h14.29.916,Simcolourproject_2stim_asymm_v5,2020.2.10,MacIntel,60,61025ae37ef11b136ea224fe,,,,,,,,,3614,38.265625,60.61328125,1,0,0,response1disk,,7,9.42578125,11.390625,1,0,0,rectangle,9.42578125,11.390625,1,0,0,9.42578125,11.390625,1,0,0,0,112,112,109,1,,,,,,,,
,,,,,,,,,,,,,FF,,,,,,,,1.0317,,,,,,,,,,,,,,,,,,,,,,60ff39a8dc1a2539c032a5b7,61036e48a0b9920bb45a69e5,2021-07-29_21h14.29.916,Simcolourproject_2stim_asymm_v5,2020.2.10,MacIntel,60,61025ae37ef11b136ea224fe,,,,,,,,,3435,-39.640625,-78.47265625,1,0,0,response5disk,,3,-12.625,-1.67578125,1,0,0,rectangle,-12.625,-1.67578125,1,0,0,-12.625,-1.67578125,1,0,0,0,113,113,38,1,,,,,,,,
,,,,,,,,,,,,,FF,,,,,,,,1.1838,,,,,,,,,,,,,,,,,,,,,,60ff39a8dc1a2539c032a5b7,61036e48a0b9920bb45a69e5,2021-07-29_21h14.29.916,Simcolourproject_2stim_asymm_v5,2020.2.10,MacIntel,60,61025ae37ef11b136ea224fe,,,,,,,,,2650,32.859375,76.09375,1,0,0,response1disk,,7,-20.94921875,10.48828125,1,0,0,rectangle,-20.94921875,10.48828125,1,0,0,-20.94921875,10.48828125,1,0,0,0,114,114,11,1,,,,,,,,
,,,,,,,,,,,,,FF,,,,,,,,0.9672,,,,,,,,,,,,,,,,,,,,,,60ff39a8dc1a2539c032a5b7,61036e48a0b9920bb45a69e5,2021-07-29_21h14.29.916,Simcolourproject_2stim_asymm_v5,2020.2.10,MacIntel,60,61025ae37ef11b136ea224fe,,,,,,,,,2563,41.5390625,78.19140625,1,0,0,response1disk,,7,5.17578125,12.05859375,1,0,0,rectangle,5.17578125,12.05859375,1,0,0,5.17578125,12.05859375,1,0,0,0,115,115,136,1,,,,,,,,
,,,,,,,,,,,,,FF,,,,,,,,1.0344,,,,,,,,,,,,,,,,,,,,,,60ff39a8dc1a2539c032a5b7,61036e48a0b9920bb45a69e5,2021-07-29_21h14.29.916,Simcolourproject_2stim_asymm_v5,2020.2.10,MacIntel,60,61025ae37ef11b136ea224fe,,,,,,,,,3152,-36.76953125,-82.46484375,1,0,0,response5disk,,3,-9.3984375,8.8984375,1,0,0,rectangle,-9.3984375,8.8984375,1,0,0,-9.3984375,8.8984375,1,0,0,0,116,116,88,1,,,,,,,,
,,,,,,,,,,,,,FF,,,,,,,,0.8306,,,,,,,,,,,,,,,,,,,,,,60ff39a8dc1a2539c032a5b7,61036e48a0b9920bb45a69e5,2021-07-29_21h14.29.916,Simcolourproject_2stim_asymm_v5,2020.2.10,MacIntel,60,61025ae37ef11b136ea224fe,,,,,,,,,2991,32.40625,72.41796875,1,0,0,response1disk,,7,17.5078125,9.88671875,1,0,0,rectangle,17.5078125,9.88671875,1,0,0,17.5078125,9.88671875,1,0,0,0,117,117,107,1,,,,,,,,
,,,,,,,,,,,,,FF,,,,,,,,1.2674,,,,,,,,,,,,,,,,,,,,,,60ff39a8dc1a2539c032a5b7,61036e48a0b9920bb45a69e5,2021-07-29_21h14.29.916,Simcolourproject_2stim_asymm_v5,2020.2.10,MacIntel,60,61025ae37ef11b136ea224fe,,,,,,,,,2936,36.34375,-81.46875,1,0,0,response3disk,,4,15.14453125,-12.26953125,1,0,0,rectangle,15.14453125,-12.26953125,1,0,0,15.14453125,-12.26953125,1,0,0,0,118,118,52,1,,,,,,,,
,,,,,,,,,,,,,FF,,,,,,,,0.8999,,,,,,,,,,,,,,,,,,,,,,60ff39a8dc1a2539c032a5b7,61036e48a0b9920bb45a69e5,2021-07-29_21h14.29.916,Simcolourproject_2stim_asymm_v5,2020.2.10,MacIntel,60,61025ae37ef11b136ea224fe,,,,,,,,,3588,29.9453125,-45.3828125,1,0,0,response3disk,,4,14.2421875,5.12109375,1,0,0,rectangle,14.2421875,5.12109375,1,0,0,14.2421875,5.12109375,1,0,0,0,119,119,16,1,,,,,,,,
,,,,,,,,,,,,,FF,,,,,,,,1.433,,,,,,,,,,,,,,,,,,,,,,60ff39a8dc1a2539c032a5b7,61036e48a0b9920bb45a69e5,2021-07-29_21h14.29.916,Simcolourproject_2stim_asymm_v5,2020.2.10,MacIntel,60,61025ae37ef11b136ea224fe,,,,,,,,,3182,26.9375,73.98828125,1,0,0,response1disk,,7,16.78515625,7.890625,1,0,0,rectangle,16.78515625,7.890625,1,0,0,16.78515625,7.890625,1,0,0,0,120,120,34,1,,,,,,,,
,,,,,,,,,,,,,FF,,,,,,,,0.7846,,,,,,,,,,,,,,,,,,,,,,60ff39a8dc1a2539c032a5b7,61036e48a0b9920bb45a69e5,2021-07-29_21h14.29.916,Simcolourproject_2stim_asymm_v5,2020.2.10,MacIntel,60,61025ae37ef11b136ea224fe,,,,,,,,,1709,57.296875,97.09375,1,0,0,response1disk,,7,14.68359375,9.3359375,1,0,0,rectangle,14.68359375,9.3359375,1,0,0,14.68359375,9.3359375,1,0,0,0,121,121,8,1,,,,,,,,
,,,,,,,,,,,,,FF,,,,,,,,1.1669,,,,,,,,,,,,,,,,,,,,,,60ff39a8dc1a2539c032a5b7,61036e48a0b9920bb45a69e5,2021-07-29_21h14.29.916,Simcolourproject_2stim_asymm_v5,2020.2.10,MacIntel,60,61025ae37ef11b136ea224fe,,,,,,,,,1457,35.046875,-80.91796875,1,0,0,response3disk,,4,25.6171875,2.99609375,1,0,0,rectangle,25.6171875,2.99609375,1,0,0,25.6171875,2.99609375,1,0,0,0,122,122,83,1,,,,,,,,
,,,,,,,,,,,,,FF,,,,,,,,0.8034,,,,,,,,,,,,,,,,,,,,,,60ff39a8dc1a2539c032a5b7,61036e48a0b9920bb45a69e5,2021-07-29_21h14.29.916,Simcolourproject_2stim_asymm_v5,2020.2.10,MacIntel,60,61025ae37ef11b136ea224fe,,,,,,,,,2287,45.5390625,80.44921875,1,0,0,response1disk,,7,28.29296875,11.67578125,1,0,0,rectangle,28.29296875,11.67578125,1,0,0,28.29296875,11.67578125,1,0,0,0,123,123,144,1,,,,,,,,
,,,,,,,,,,,,,FF,,,,,,,,1.3336,,,,,,,,,,,,,,,,,,,,,,60ff39a8dc1a2539c032a5b7,61036e48a0b9920bb45a69e5,2021-07-29_21h14.29.916,Simcolourproject_2stim_asymm_v5,2020.2.10,MacIntel,60,61025ae37ef11b136ea224fe,,,,,,,,,898,38.1953125,-77.46484375,0,0,1,response3disk,,4,-15.15625,-1.76953125,1,0,1,rectangle,-101.4765625,-52.34765625,1,0,1,-24.44140625,-10.16015625,1,0,1,0,124,124,157,1,,response5disk_3,TRUE,2,2,"[278,77,75,61,67,318,271,125,99,320,79,90,184,223,161,224,323,130,226,285]",1.7836,rectangle
,,,,,,,,,,,,,FF,,,,,,,,5.2671,,,,,,,,,,,,,,,,,,,,,,60ff39a8dc1a2539c032a5b7,61036e48a0b9920bb45a69e5,2021-07-29_21h14.29.916,Simcolourproject_2stim_asymm_v5,2020.2.10,MacIntel,60,61025ae37ef11b136ea224fe,,,,,,,,,2413,-31.23828125,-75.12890625,1,0,1,response5disk,,3,-1.6015625,9.56640625,1,0,1,rectangle,-1.6015625,9.56640625,1,0,1,-1.6015625,9.56640625,1,0,1,0,125,125,156,1,,,,,,,,
,,,,,,,,,,,,,FF,,,,,,,,75.27,,,,,,,,,,,,,,,,,,,,,,60ff39a8dc1a2539c032a5b7,61036e48a0b9920bb45a69e5,2021-07-29_21h14.29.916,Simcolourproject_2stim_asymm_v5,2020.2.10,MacIntel,60,61025ae37ef11b136ea224fe,,,,,,,,,1928,87.1328125,41.9375,1,0,1,response1disk,,6,-3.55078125,-1.20703125,1,0,1,rectangle,-3.55078125,-1.20703125,1,0,1,-3.55078125,-1.20703125,1,0,1,0,126,126,79,1,,,,,,,,
,,,,,,,,,,,,,FF,,,,,,,,1.6655,,,,,,,,,,,,,,,,,,,,,,60ff39a8dc1a2539c032a5b7,61036e48a0b9920bb45a69e5,2021-07-29_21h14.29.916,Simcolourproject_2stim_asymm_v5,2020.2.10,MacIntel,60,61025ae37ef11b136ea224fe,,,,,,,,,1387,32.85546875,-90.44921875,1,0,1,response3disk,,4,15.08203125,-0.4453125,1,0,1,rectangle,15.08203125,-0.4453125,1,0,1,15.08203125,-0.4453125,1,0,1,0,127,127,126,1,,,,,,,,
,,,,,,,,,,,,,FF,,,,,,,,1.283,,,,,,,,,,,,,,,,,,,,,,60ff39a8dc1a2539c032a5b7,61036e48a0b9920bb45a69e5,2021-07-29_21h14.29.916,Simcolourproject_2stim_asymm_v5,2020.2.10,MacIntel,60,61025ae37ef11b136ea224fe,,,,,,,,,2323,80.8828125,51.7109375,1,0,1,response1disk,,6,2.67578125,3.7109375,1,0,1,rectangle,2.67578125,3.7109375,1,0,1,2.67578125,3.7109375,1,0,1,0,128,128,102,1,,,,,,,,
,,,,,,,,,,,,,FF,,,,,,,,1.4002,,,,,,,,,,,,,,,,,,,,,,60ff39a8dc1a2539c032a5b7,61036e48a0b9920bb45a69e5,2021-07-29_21h14.29.916,Simcolourproject_2stim_asymm_v5,2020.2.10,MacIntel,60,61025ae37ef11b136ea224fe,,,,,,,,,805,63.05859375,-33.92578125,1,0,1,response3disk,,5,0.7734375,7.953125,1,0,1,rectangle,80.0546875,-46.3046875,1,0,1,14.58984375,-8.2109375,1,0,1,0,129,129,153,1,,response3disk_3,TRUE,5,5,"[278,77,75,61,67,318,271,125,99,320,79,90,184,223,161,224,323,130,226,285]",1.6162,rectangle
,,,,,,,,,,,,,FF,,,,,,,,1.4496,,,,,,,,,,,,,,,,,,,,,,60ff39a8dc1a2539c032a5b7,61036e48a0b9920bb45a69e5,2021-07-29_21h14.29.916,Simcolourproject_2stim_asymm_v5,2020.2.10,MacIntel,60,61025ae37ef11b136ea224fe,,,,,,,,,1357,39.1171875,84.28125,1,0,1,response1disk,,7,26.40234375,12.51953125,0,0,1,rectangle,26.40234375,12.51953125,0,0,1,26.40234375,12.51953125,0,0,1,0,130,130,24,1,,,,,,,,
,,,,,,,,,,,,,FF,,,,,,,,2.2506,,,,,,,,,,,,,,,,,,,,,,60ff39a8dc1a2539c032a5b7,61036e48a0b9920bb45a69e5,2021-07-29_21h14.29.916,Simcolourproject_2stim_asymm_v5,2020.2.10,MacIntel,60,61025ae37ef11b136ea224fe,,,,,,,,,1568,38.35546875,87.67578125,1,0,1,response1disk,,7,7.61328125,-8.23046875,1,0,1,rectangle,7.61328125,-8.23046875,1,0,1,7.61328125,-8.23046875,1,0,1,0,131,131,149,1,,,,,,,,
,,,,,,,,,,,,,FF,,,,,,,,1.8831,,,,,,,,,,,,,,,,,,,,,,60ff39a8dc1a2539c032a5b7,61036e48a0b9920bb45a69e5,2021-07-29_21h14.29.916,Simcolourproject_2stim_asymm_v5,2020.2.10,MacIntel,60,61025ae37ef11b136ea224fe,,,,,,,,,3068,64.890625,43.16796875,1,0,1,response1disk,,6,2.47265625,10.328125,1,0,1,rectangle,2.47265625,10.328125,1,0,1,2.47265625,10.328125,1,0,1,0,132,132,135,1,,,,,,,,
,,,,,,,,,,,,,FF,,,,,,,,1.5673,,,,,,,,,,,,,,,,,,,,,,60ff39a8dc1a2539c032a5b7,61036e48a0b9920bb45a69e5,2021-07-29_21h14.29.916,Simcolourproject_2stim_asymm_v5,2020.2.10,MacIntel,60,61025ae37ef11b136ea224fe,,,,,,,,,874,32.0078125,-68.671875,1,0,1,response3disk,,4,18.44921875,-8.4765625,1,0,1,rectangle,18.44921875,-8.4765625,1,0,1,18.44921875,-8.4765625,1,0,1,0,133,133,53,1,,,,,,,,
,,,,,,,,,,,,,FF,,,,,,,,0.8858,,,,,,,,,,,,,,,,,,,,,,60ff39a8dc1a2539c032a5b7,61036e48a0b9920bb45a69e5,2021-07-29_21h14.29.916,Simcolourproject_2stim_asymm_v5,2020.2.10,MacIntel,60,61025ae37ef11b136ea224fe,,,,,,,,,2170,32.27734375,-59.81640625,1,0,1,response3disk,,4,-11.16796875,4.78125,1,0,1,rectangle,-11.16796875,4.78125,1,0,1,-11.16796875,4.78125,1,0,1,0,134,134,51,1,,,,,,,,
,,,,,,,,,,,,,FF,,,,,,,,1.4997,,,,,,,,,,,,,,,,,,,,,,60ff39a8dc1a2539c032a5b7,61036e48a0b9920bb45a69e5,2021-07-29_21h14.29.916,Simcolourproject_2stim_asymm_v5,2020.2.10,MacIntel,60,61025ae37ef11b136ea224fe,,,,,,,,,75,64.234375,-29.39453125,1,0,1,response3disk,,5,28.11328125,1.7109375,1,0,1,rectangle,28.11328125,1.7109375,1,0,1,28.11328125,1.7109375,1,0,1,0,135,135,151,1,,,,,,,,
,,,,,,,,,,,,,FF,,,,,,,,1.0502,,,,,,,,,,,,,,,,,,,,,,60ff39a8dc1a2539c032a5b7,61036e48a0b9920bb45a69e5,2021-07-29_21h14.29.916,Simcolourproject_2stim_asymm_v5,2020.2.10,MacIntel,60,61025ae37ef11b136ea224fe,,,,,,,,,3743,-48.16015625,-66.90625,1,0,1,response5disk,,3,-5.29296875,16.94921875,1,0,1,rectangle,-5.29296875,16.94921875,1,0,1,-5.29296875,16.94921875,1,0,1,0,136,136,22,1,,,,,,,,
,,,,,,,,,,,,,FF,,,,,,,,0.7815,,,,,,,,,,,,,,,,,,,,,,60ff39a8dc1a2539c032a5b7,61036e48a0b9920bb45a69e5,2021-07-29_21h14.29.916,Simcolourproject_2stim_asymm_v5,2020.2.10,MacIntel,60,61025ae37ef11b136ea224fe,,,,,,,,,365,39.6796875,86.5234375,1,0,1,response1disk,,7,12.51171875,13.05078125,1,0,1,rectangle,12.51171875,13.05078125,1,0,1,12.51171875,13.05078125,1,0,1,0,137,137,137,1,,,,,,,,
,,,,,,,,,,,,,FF,,,,,,,,0.9334,,,,,,,,,,,,,,,,,,,,,,60ff39a8dc1a2539c032a5b7,61036e48a0b9920bb45a69e5,2021-07-29_21h14.29.916,Simcolourproject_2stim_asymm_v5,2020.2.10,MacIntel,60,61025ae37ef11b136ea224fe,,,,,,,,,3452,40.8203125,88.3359375,1,0,1,response1disk,,7,18.84375,7.46484375,1,0,1,rectangle,18.84375,7.46484375,1,0,1,18.84375,7.46484375,1,0,1,0,138,138,61,1,,,,,,,,
,,,,,,,,,,,,,FF,,,,,,,,1.1661,,,,,,,,,,,,,,,,,,,,,,60ff39a8dc1a2539c032a5b7,61036e48a0b9920bb45a69e5,2021-07-29_21h14.29.916,Simcolourproject_2stim_asymm_v5,2020.2.10,MacIntel,60,61025ae37ef11b136ea224fe,,,,,,,,,3904,52.26953125,69.01171875,1,0,1,response1disk,,7,7.00390625,-10.2109375,1,0,1,rectangle,7.00390625,-10.2109375,1,0,1,7.00390625,-10.2109375,1,0,1,0,139,139,32,1,,,,,,,,
,,,,,,,,,,,,,FF,,,,,,,,1.2693,,,,,,,,,,,,,,,,,,,,,,60ff39a8dc1a2539c032a5b7,61036e48a0b9920bb45a69e5,2021-07-29_21h14.29.916,Simcolourproject_2stim_asymm_v5,2020.2.10,MacIntel,60,61025ae37ef11b136ea224fe,,,,,,,,,2903,38.0546875,-74.98828125,1,0,1,response3disk,,4,7.05859375,11.26171875,1,0,1,rectangle,7.05859375,11.26171875,1,0,1,7.05859375,11.26171875,1,0,1,0,140,140,7,1,,,,,,,,
,,,,,,,,,,,,,FF,,,,,,,,1.0313,,,,,,,,,,,,,,,,,,,,,,60ff39a8dc1a2539c032a5b7,61036e48a0b9920bb45a69e5,2021-07-29_21h14.29.916,Simcolourproject_2stim_asymm_v5,2020.2.10,MacIntel,60,61025ae37ef11b136ea224fe,,,,,,,,,3455,65.72265625,33.390625,1,0,1,response1disk,,6,24.43359375,3.93359375,1,0,1,rectangle,24.43359375,3.93359375,1,0,1,24.43359375,3.93359375,1,0,1,0,141,141,120,1,,,,,,,,
,,,,,,,,,,,,,FF,,,,,,,,0.7663,,,,,,,,,,,,,,,,,,,,,,60ff39a8dc1a2539c032a5b7,61036e48a0b9920bb45a69e5,2021-07-29_21h14.29.916,Simcolourproject_2stim_asymm_v5,2020.2.10,MacIntel,60,61025ae37ef11b136ea224fe,,,,,,,,,3855,86.890625,35.3515625,1,0,1,response1disk,,6,20.0234375,-0.74609375,1,0,1,rectangle,20.0234375,-0.74609375,1,0,1,20.0234375,-0.74609375,1,0,1,0,142,142,68,1,,,,,,,,
,,,,,,,,,,,,,FF,,,,,,,,1.0668,,,,,,,,,,,,,,,,,,,,,,60ff39a8dc1a2539c032a5b7,61036e48a0b9920bb45a69e5,2021-07-29_21h14.29.916,Simcolourproject_2stim_asymm_v5,2020.2.10,MacIntel,60,61025ae37ef11b136ea224fe,,,,,,,,,2587,83.97265625,30.89453125,1,0,1,response1disk,,6,10.36328125,-4.62109375,1,0,1,rectangle,10.36328125,-4.62109375,1,0,1,10.36328125,-4.62109375,1,0,1,0,143,143,18,1,,,,,,,,
,,,,,,,,,,,,,FF,,,,,,,,1.268,,,,,,,,,,,,,,,,,,,,,,60ff39a8dc1a2539c032a5b7,61036e48a0b9920bb45a69e5,2021-07-29_21h14.29.916,Simcolourproject_2stim_asymm_v5,2020.2.10,MacIntel,60,61025ae37ef11b136ea224fe,,,,,,,,,3458,83.03125,41.43359375,1,0,1,response1disk,,6,23.48046875,12.84375,1,0,1,rectangle,23.48046875,12.84375,1,0,1,23.48046875,12.84375,1,0,1,0,144,144,43,1,,,,,,,,
,,,,,,,,,,,,,FF,,,,,,,,1.2843,,,,,,,,,,,,,,,,,,,,,,60ff39a8dc1a2539c032a5b7,61036e48a0b9920bb45a69e5,2021-07-29_21h14.29.916,Simcolourproject_2stim_asymm_v5,2020.2.10,MacIntel,60,61025ae37ef11b136ea224fe,,,,,,,,,4181,-50.0625,90.3671875,1,0,1,response7disk,,0,-10.0234375,-13.91015625,1,0,1,rectangle,-10.0234375,-13.91015625,1,0,1,-10.0234375,-13.91015625,1,0,1,0,145,145,94,1,,,,,,,,
,,,,,,,,,,,,,FF,,,,,,,,2.2315,,,,,,,,,,,,,,,,,,,,,,60ff39a8dc1a2539c032a5b7,61036e48a0b9920bb45a69e5,2021-07-29_21h14.29.916,Simcolourproject_2stim_asymm_v5,2020.2.10,MacIntel,60,61025ae37ef11b136ea224fe,,,,,,,,,1664,90.28125,37.88671875,1,0,1,response1disk,,6,2.39453125,-5.390625,1,0,1,rectangle,2.39453125,-5.390625,1,0,1,2.39453125,-5.390625,1,0,1,0,146,146,57,1,,,,,,,,
,,,,,,,,,,,,,FF,,,,,,,,1.4211,,,,,,,,,,,,,,,,,,,,,,60ff39a8dc1a2539c032a5b7,61036e48a0b9920bb45a69e5,2021-07-29_21h14.29.916,Simcolourproject_2stim_asymm_v5,2020.2.10,MacIntel,60,61025ae37ef11b136ea224fe,,,,,,,,,849,42.05078125,72.6875,1,0,1,response1disk,,7,13.98046875,7.34375,1,0,1,rectangle,13.98046875,7.34375,1,0,1,13.98046875,7.34375,1,0,1,0,147,147,41,1,,,,,,,,
,,,,,,,,,,,,,FF,,,,,,,,1.2166,,,,,,,,,,,,,,,,,,,,,,60ff39a8dc1a2539c032a5b7,61036e48a0b9920bb45a69e5,2021-07-29_21h14.29.916,Simcolourproject_2stim_asymm_v5,2020.2.10,MacIntel,60,61025ae37ef11b136ea224fe,,,,,,,,,3080,69.01953125,-49.0859375,1,0,1,response3disk,,5,12.69921875,-2.6953125,1,0,1,rectangle,12.69921875,-2.6953125,1,0,1,12.69921875,-2.6953125,1,0,1,0,148,148,45,1,,,,,,,,
,,,,,,,,,,,,,FF,,,,,,,,1.6835,,,,,,,,,,,,,,,,,,,,,,60ff39a8dc1a2539c032a5b7,61036e48a0b9920bb45a69e5,2021-07-29_21h14.29.916,Simcolourproject_2stim_asymm_v5,2020.2.10,MacIntel,60,61025ae37ef11b136ea224fe,,,,,,,,,3325,74.484375,22.1484375,1,0,1,response1disk,,6,16.35546875,14.32421875,1,0,1,rectangle,16.35546875,14.32421875,1,0,1,16.35546875,14.32421875,1,0,1,0,149,149,103,1,,,,,,,,
,,,,,,,,,,,,,FF,,,,,,,,1.3501,,,,,,,,,,,,,,,,,,,,,,60ff39a8dc1a2539c032a5b7,61036e48a0b9920bb45a69e5,2021-07-29_21h14.29.916,Simcolourproject_2stim_asymm_v5,2020.2.10,MacIntel,60,61025ae37ef11b136ea224fe,,,,,,,,,3993,-38.69140625,80.703125,1,0,1,response7disk,,0,-15.15234375,-6.1796875,1,0,1,rectangle,-15.15234375,-6.1796875,1,0,1,-15.15234375,-6.1796875,1,0,1,0,150,150,19,1,,,,,,,,
,,,,,,,,,,,,,FF,,,,,,,,1.7185,,,,,,,,,,,,,,,,,,,,,,60ff39a8dc1a2539c032a5b7,61036e48a0b9920bb45a69e5,2021-07-29_21h14.29.916,Simcolourproject_2stim_asymm_v5,2020.2.10,MacIntel,60,61025ae37ef11b136ea224fe,,,,,,,,,239,77.5390625,38.3671875,1,0,1,response1disk,,6,29.84765625,15.71484375,1,0,1,rectangle,29.84765625,15.71484375,1,0,1,29.84765625,15.71484375,1,0,1,0,151,151,74,1,,,,,,,,
,,,,,,,,,,,,,FF,,,,,,,,0.7995,,,,,,,,,,,,,,,,,,,,,,60ff39a8dc1a2539c032a5b7,61036e48a0b9920bb45a69e5,2021-07-29_21h14.29.916,Simcolourproject_2stim_asymm_v5,2020.2.10,MacIntel,60,61025ae37ef11b136ea224fe,,,,,,,,,3060,95.66015625,48.09375,1,0,1,response1disk,,6,26.1953125,2.78515625,1,0,1,rectangle,26.1953125,2.78515625,1,0,1,26.1953125,2.78515625,1,0,1,0,152,152,26,1,,,,,,,,
,,,,,,,,,,,,,FF,,,,,,,,0.8338,,,,,,,,,,,,,,,,,,,,,,60ff39a8dc1a2539c032a5b7,61036e48a0b9920bb45a69e5,2021-07-29_21h14.29.916,Simcolourproject_2stim_asymm_v5,2020.2.10,MacIntel,60,61025ae37ef11b136ea224fe,,,,,,,,,1582,102.3828125,47.0234375,1,0,1,response1disk,,6,10.515625,-2.0078125,1,0,1,rectangle,10.515625,-2.0078125,1,0,1,10.515625,-2.0078125,1,0,1,0,153,153,117,1,,,,,,,,
,,,,,,,,,,,,,FF,,,,,,,,1.3322,,,,,,,,,,,,,,,,,,,,,,60ff39a8dc1a2539c032a5b7,61036e48a0b9920bb45a69e5,2021-07-29_21h14.29.916,Simcolourproject_2stim_asymm_v5,2020.2.10,MacIntel,60,61025ae37ef11b136ea224fe,,,,,,,,,2415,38.1171875,-82.85546875,1,0,1,response3disk,,4,6.7421875,4.73828125,1,0,1,rectangle,6.7421875,4.73828125,1,0,1,6.7421875,4.73828125,1,0,1,0,154,154,121,1,,,,,,,,
,,,,,,,,,,,,,FF,,,,,,,,0.9,,,,,,,,,,,,,,,,,,,,,,60ff39a8dc1a2539c032a5b7,61036e48a0b9920bb45a69e5,2021-07-29_21h14.29.916,Simcolourproject_2stim_asymm_v5,2020.2.10,MacIntel,60,61025ae37ef11b136ea224fe,,,,,,,,,3478,-31.15234375,-69.72265625,1,0,1,response5disk,,3,-22.05859375,-7.26953125,1,0,1,rectangle,-22.05859375,-7.26953125,1,0,1,-22.05859375,-7.26953125,1,0,1,0,155,155,30,1,,,,,,,,
,,,,,,,,,,,,,FF,,,,,,,,3.6992,,,,,,,,,,,,,,,,,,,,,,60ff39a8dc1a2539c032a5b7,61036e48a0b9920bb45a69e5,2021-07-29_21h14.29.916,Simcolourproject_2stim_asymm_v5,2020.2.10,MacIntel,60,61025ae37ef11b136ea224fe,,,,,,,,,2081,76.7734375,-35.42578125,1,0,1,response3disk,,5,23.59375,8.20703125,1,0,1,rectangle,23.59375,8.20703125,1,0,1,23.59375,8.20703125,1,0,1,0,156,156,127,1,,,,,,,,
,,,,,,,,,,,,,FF,,,,,,,,1.2996,,,,,,,,,,,,,,,,,,,,,,60ff39a8dc1a2539c032a5b7,61036e48a0b9920bb45a69e5,2021-07-29_21h14.29.916,Simcolourproject_2stim_asymm_v5,2020.2.10,MacIntel,60,61025ae37ef11b136ea224fe,,,,,,,,,3622,30.69140625,-55.63671875,1,0,1,response3disk,,4,2.7109375,-4.515625,1,0,1,rectangle,2.7109375,-4.515625,1,0,1,2.7109375,-4.515625,1,0,1,0,157,157,48,1,,,,,,,,
,,,,,,,,,,,,,FF,,,,,,,,1.3854,,,,,,,,,,,,,,,,,,,,,,60ff39a8dc1a2539c032a5b7,61036e48a0b9920bb45a69e5,2021-07-29_21h14.29.916,Simcolourproject_2stim_asymm_v5,2020.2.10,MacIntel,60,61025ae37ef11b136ea224fe,,,,,,,,,826,70.96875,40.66796875,1,0,1,response1disk,,6,21.48046875,10.72265625,1,0,1,rectangle,21.48046875,10.72265625,1,0,1,21.48046875,10.72265625,1,0,1,0,158,158,106,1,,,,,,,,
,,,,,,,,,,,,,FF,,,,,,,,1.0686,,,,,,,,,,,,,,,,,,,,,,60ff39a8dc1a2539c032a5b7,61036e48a0b9920bb45a69e5,2021-07-29_21h14.29.916,Simcolourproject_2stim_asymm_v5,2020.2.10,MacIntel,60,61025ae37ef11b136ea224fe,,,,,,,,,700,-23.96875,-67.1328125,1,0,1,response5disk,,3,-14.42578125,9.1171875,1,0,1,rectangle,-14.42578125,9.1171875,1,0,1,-14.42578125,9.1171875,1,0,1,0,159,159,71,1,,,,,,,,
,,,,,,,,,,,,,FF,,,,,,,,0.7337,,,,,,,,,,,,,,,,,,,,,,60ff39a8dc1a2539c032a5b7,61036e48a0b9920bb45a69e5,2021-07-29_21h14.29.916,Simcolourproject_2stim_asymm_v5,2020.2.10,MacIntel,60,61025ae37ef11b136ea224fe,,,,,,,,,114,47.76171875,79.00390625,1,0,1,response1disk,,7,24.7265625,8.31640625,1,0,1,rectangle,39.32421875,78.1328125,1,0,1,4.51953125,-10.57421875,1,0,1,1,0,160,85,1,,response1disk_3,TRUE,7,7,"[278,77,75,61,67,318,271,125,99,320,79,90,184,223,161,224,323,130,226,285]",1.6336,rectangle
,,,,,,,,,,,,,FF,,,,,,,,1.3506,,,,,,,,,,,,,,,,,,,,,,60ff39a8dc1a2539c032a5b7,61036e48a0b9920bb45a69e5,2021-07-29_21h14.29.916,Simcolourproject_2stim_asymm_v5,2020.2.10,MacIntel,60,61025ae37ef11b136ea224fe,,,,,,,,,2387,65.94140625,29.21484375,1,0,1,response1disk,,6,15.1875,7.26953125,1,0,1,rectangle,15.1875,7.26953125,1,0,1,15.1875,7.26953125,1,0,1,1,1,161,105,1,,,,,,,,
,,,,,,,,,,,,,FF,,,,,,,,2.6166,,,,,,,,,,,,,,,,,,,,,,60ff39a8dc1a2539c032a5b7,61036e48a0b9920bb45a69e5,2021-07-29_21h14.29.916,Simcolourproject_2stim_asymm_v5,2020.2.10,MacIntel,60,61025ae37ef11b136ea224fe,,,,,,,,,2653,68.83984375,44.30078125,1,0,1,response1disk,,6,3.37890625,-1.9375,1,0,1,rectangle,3.37890625,-1.9375,1,0,1,3.37890625,-1.9375,1,0,1,1,2,162,155,1,,,,,,,,
,,,,,,,,,,,,,FF,,,,,,,,2.616,,,,,,,,,,,,,,,,,,,,,,60ff39a8dc1a2539c032a5b7,61036e48a0b9920bb45a69e5,2021-07-29_21h14.29.916,Simcolourproject_2stim_asymm_v5,2020.2.10,MacIntel,60,61025ae37ef11b136ea224fe,,,,,,,,,2326,53.890625,70.109375,1,0,1,response1disk,,7,21.05859375,5.9296875,1,0,1,rectangle,21.05859375,5.9296875,1,0,1,21.05859375,5.9296875,1,0,1,1,3,163,4,1,,,,,,,,
,,,,,,,,,,,,,FF,,,,,,,,0.9173,,,,,,,,,,,,,,,,,,,,,,60ff39a8dc1a2539c032a5b7,61036e48a0b9920bb45a69e5,2021-07-29_21h14.29.916,Simcolourproject_2stim_asymm_v5,2020.2.10,MacIntel,60,61025ae37ef11b136ea224fe,,,,,,,,,2778,24.3515625,-71.203125,1,0,1,response3disk,,4,14.26171875,-17.47265625,1,0,1,rectangle,14.26171875,-17.47265625,1,0,1,14.26171875,-17.47265625,1,0,1,1,4,164,88,1,,,,,,,,
,,,,,,,,,,,,,FF,,,,,,,,1.1502,,,,,,,,,,,,,,,,,,,,,,60ff39a8dc1a2539c032a5b7,61036e48a0b9920bb45a69e5,2021-07-29_21h14.29.916,Simcolourproject_2stim_asymm_v5,2020.2.10,MacIntel,60,61025ae37ef11b136ea224fe,,,,,,,,,3955,98.6640625,36.1640625,1,0,1,response1disk,,6,22.87109375,12.54296875,1,0,1,rectangle,22.87109375,12.54296875,1,0,1,22.87109375,12.54296875,1,0,1,1,5,165,137,1,,,,,,,,
,,,,,,,,,,,,,FF,,,,,,,,1.1188,,,,,,,,,,,,,,,,,,,,,,60ff39a8dc1a2539c032a5b7,61036e48a0b9920bb45a69e5,2021-07-29_21h14.29.916,Simcolourproject_2stim_asymm_v5,2020.2.10,MacIntel,60,61025ae37ef11b136ea224fe,,,,,,,,,2558,61.85546875,-37.16015625,1,0,1,response3disk,,5,17.68359375,-6.6640625,1,0,1,rectangle,17.68359375,-6.6640625,1,0,1,17.68359375,-6.6640625,1,0,1,1,6,166,111,1,,,,,,,,
,,,,,,,,,,,,,FF,,,,,,,,1.4816,,,,,,,,,,,,,,,,,,,,,,60ff39a8dc1a2539c032a5b7,61036e48a0b9920bb45a69e5,2021-07-29_21h14.29.916,Simcolourproject_2stim_asymm_v5,2020.2.10,MacIntel,60,61025ae37ef11b136ea224fe,,,,,,,,,4265,39.33203125,121.5,1,0,1,response1disk,,7,-2.375,-7.41796875,1,0,1,rectangle,-2.375,-7.41796875,1,0,1,-2.375,-7.41796875,1,0,1,1,7,167,76,1,,,,,,,,
,,,,,,,,,,,,,FF,,,,,,,,1.1362,,,,,,,,,,,,,,,,,,,,,,60ff39a8dc1a2539c032a5b7,61036e48a0b9920bb45a69e5,2021-07-29_21h14.29.916,Simcolourproject_2stim_asymm_v5,2020.2.10,MacIntel,60,61025ae37ef11b136ea224fe,,,,,,,,,1031,74.25390625,-42.125,1,0,1,response3disk,,5,16.89453125,-4.609375,1,0,1,rectangle,16.89453125,-4.609375,1,0,1,16.89453125,-4.609375,1,0,1,1,8,168,77,1,,,,,,,,
,,,,,,,,,,,,,FF,,,,,,,,2.4332,,,,,,,,,,,,,,,,,,,,,,60ff39a8dc1a2539c032a5b7,61036e48a0b9920bb45a69e5,2021-07-29_21h14.29.916,Simcolourproject_2stim_asymm_v5,2020.2.10,MacIntel,60,61025ae37ef11b136ea224fe,,,,,,,,,516,60.5625,16.79296875,1,0,1,response1disk,,6,18.09375,-0.90234375,1,0,1,rectangle,18.09375,-0.90234375,1,0,1,18.09375,-0.90234375,1,0,1,1,9,169,11,1,,,,,,,,
,,,,,,,,,,,,,FF,,,,,,,,2.3502,,,,,,,,,,,,,,,,,,,,,,60ff39a8dc1a2539c032a5b7,61036e48a0b9920bb45a69e5,2021-07-29_21h14.29.916,Simcolourproject_2stim_asymm_v5,2020.2.10,MacIntel,60,61025ae37ef11b136ea224fe,,,,,,,,,842,63.703125,38.0078125,1,0,1,response1disk,,6,16.640625,11.2890625,1,0,1,rectangle,16.640625,11.2890625,1,0,1,16.640625,11.2890625,1,0,1,1,10,170,53,1,,,,,,,,
,,,,,,,,,,,,,FF,,,,,,,,1.0002,,,,,,,,,,,,,,,,,,,,,,60ff39a8dc1a2539c032a5b7,61036e48a0b9920bb45a69e5,2021-07-29_21h14.29.916,Simcolourproject_2stim_asymm_v5,2020.2.10,MacIntel,60,61025ae37ef11b136ea224fe,,,,,,,,,3835,53.23828125,-35.0390625,1,0,1,response3disk,,5,23.03125,-10.671875,1,0,1,rectangle,23.03125,-10.671875,1,0,1,23.03125,-10.671875,1,0,1,1,11,171,58,1,,,,,,,,
,,,,,,,,,,,,,FF,,,,,,,,0.9668,,,,,,,,,,,,,,,,,,,,,,60ff39a8dc1a2539c032a5b7,61036e48a0b9920bb45a69e5,2021-07-29_21h14.29.916,Simcolourproject_2stim_asymm_v5,2020.2.10,MacIntel,60,61025ae37ef11b136ea224fe,,,,,,,,,3501,33.2421875,72.8984375,1,0,1,response1disk,,7,4.453125,-11.80859375,1,0,1,rectangle,4.453125,-11.80859375,1,0,1,4.453125,-11.80859375,1,0,1,1,12,172,139,1,,,,,,,,
,,,,,,,,,,,,,FF,,,,,,,,1.069,,,,,,,,,,,,,,,,,,,,,,60ff39a8dc1a2539c032a5b7,61036e48a0b9920bb45a69e5,2021-07-29_21h14.29.916,Simcolourproject_2stim_asymm_v5,2020.2.10,MacIntel,60,61025ae37ef11b136ea224fe,,,,,,,,,1410,90.73046875,34.3046875,1,0,1,response1disk,,6,19.83203125,-9.96484375,1,0,1,rectangle,19.83203125,-9.96484375,1,0,1,19.83203125,-9.96484375,1,0,1,1,13,173,22,1,,,,,,,,
,,,,,,,,,,,,,FF,,,,,,,,1.4846,,,,,,,,,,,,,,,,,,,,,,60ff39a8dc1a2539c032a5b7,61036e48a0b9920bb45a69e5,2021-07-29_21h14.29.916,Simcolourproject_2stim_asymm_v5,2020.2.10,MacIntel,60,61025ae37ef11b136ea224fe,,,,,,,,,778,90.99609375,-53.41796875,1,0,1,response3disk,,5,18.10546875,2.0859375,1,0,1,rectangle,18.10546875,2.0859375,1,0,1,18.10546875,2.0859375,1,0,1,1,14,174,134,1,,,,,,,,
,,,,,,,,,,,,,FF,,,,,,,,0.8498,,,,,,,,,,,,,,,,,,,,,,60ff39a8dc1a2539c032a5b7,61036e48a0b9920bb45a69e5,2021-07-29_21h14.29.916,Simcolourproject_2stim_asymm_v5,2020.2.10,MacIntel,60,61025ae37ef11b136ea224fe,,,,,,,,,2444,46.6953125,95.40625,1,0,1,response1disk,,7,3.30859375,-1.19140625,1,0,1,rectangle,3.30859375,-1.19140625,1,0,1,3.30859375,-1.19140625,1,0,1,1,15,175,9,1,,,,,,,,
,,,,,,,,,,,,,FF,,,,,,,,1.0491,,,,,,,,,,,,,,,,,,,,,,60ff39a8dc1a2539c032a5b7,61036e48a0b9920bb45a69e5,2021-07-29_21h14.29.916,Simcolourproject_2stim_asymm_v5,2020.2.10,MacIntel,60,61025ae37ef11b136ea224fe,,,,,,,,,4104,-45.59375,-75.07421875,1,0,1,response5disk,,3,-8.53515625,5.359375,1,0,1,rectangle,-8.53515625,5.359375,1,0,1,-8.53515625,5.359375,1,0,1,1,16,176,120,1,,,,,,,,
,,,,,,,,,,,,,FF,,,,,,,,0.7834,,,,,,,,,,,,,,,,,,,,,,60ff39a8dc1a2539c032a5b7,61036e48a0b9920bb45a69e5,2021-07-29_21h14.29.916,Simcolourproject_2stim_asymm_v5,2020.2.10,MacIntel,60,61025ae37ef11b136ea224fe,,,,,,,,,3045,-65.61328125,94.91015625,1,0,1,response7disk,,0,-5.24609375,-13.828125,1,0,1,rectangle,-5.24609375,-13.828125,1,0,1,-5.24609375,-13.828125,1,0,1,1,17,177,72,1,,,,,,,,
,,,,,,,,,,,,,FF,,,,,,,,0.9982,,,,,,,,,,,,,,,,,,,,,,60ff39a8dc1a2539c032a5b7,61036e48a0b9920bb45a69e5,2021-07-29_21h14.29.916,Simcolourproject_2stim_asymm_v5,2020.2.10,MacIntel,60,61025ae37ef11b136ea224fe,,,,,,,,,2882,-36.7578125,-81.20703125,1,0,1,response5disk,,3,13.6875,5.21484375,1,0,1,rectangle,13.6875,5.21484375,1,0,1,13.6875,5.21484375,1,0,1,1,18,178,112,1,,,,,,,,
,,,,,,,,,,,,,FF,,,,,,,,0.885,,,,,,,,,,,,,,,,,,,,,,60ff39a8dc1a2539c032a5b7,61036e48a0b9920bb45a69e5,2021-07-29_21h14.29.916,Simcolourproject_2stim_asymm_v5,2020.2.10,MacIntel,60,61025ae37ef11b136ea224fe,,,,,,,,,1464,41.8359375,-76.89453125,1,0,1,response3disk,,4,17.3984375,3.1484375,1,0,1,rectangle,17.3984375,3.1484375,1,0,1,17.3984375,3.1484375,1,0,1,1,19,179,131,1,,,,,,,,
,,,,,,,,,,,,,FF,,,,,,,,0.7503,,,,,,,,,,,,,,,,,,,,,,60ff39a8dc1a2539c032a5b7,61036e48a0b9920bb45a69e5,2021-07-29_21h14.29.916,Simcolourproject_2stim_asymm_v5,2020.2.10,MacIntel,60,61025ae37ef11b136ea224fe,,,,,,,,,3425,-43.36328125,87.6640625,1,0,1,response7disk,,0,-19.8359375,6.5703125,1,0,1,rectangle,-19.8359375,6.5703125,1,0,1,-19.8359375,6.5703125,1,0,1,1,20,180,79,1,,,,,,,,
,,,,,,,,,,,,,FF,,,,,,,,0.8836,,,,,,,,,,,,,,,,,,,,,,60ff39a8dc1a2539c032a5b7,61036e48a0b9920bb45a69e5,2021-07-29_21h14.29.916,Simcolourproject_2stim_asymm_v5,2020.2.10,MacIntel,60,61025ae37ef11b136ea224fe,,,,,,,,,3476,-37.97265625,-77.3515625,1,0,1,response5disk,,3,-18.5859375,4.47265625,1,0,1,rectangle,-18.5859375,4.47265625,1,0,1,-18.5859375,4.47265625,1,0,1,1,21,181,28,1,,,,,,,,
,,,,,,,,,,,,,FF,,,,,,,,1.0657,,,,,,,,,,,,,,,,,,,,,,60ff39a8dc1a2539c032a5b7,61036e48a0b9920bb45a69e5,2021-07-29_21h14.29.916,Simcolourproject_2stim_asymm_v5,2020.2.10,MacIntel,60,61025ae37ef11b136ea224fe,,,,,,,,,566,89.0390625,40.36328125,1,0,1,response1disk,,6,20.28515625,2.02734375,1,0,1,rectangle,20.28515625,2.02734375,1,0,1,20.28515625,2.02734375,1,0,1,1,22,182,96,1,,,,,,,,
,,,,,,,,,,,,,FF,,,,,,,,1.1674,,,,,,,,,,,,,,,,,,,,,,60ff39a8dc1a2539c032a5b7,61036e48a0b9920bb45a69e5,2021-07-29_21h14.29.916,Simcolourproject_2stim_asymm_v5,2020.2.10,MacIntel,60,61025ae37ef11b136ea224fe,,,,,,,,,3483,65.73828125,-26.6328125,1,0,1,response3disk,,5,24.6875,-0.59765625,1,0,1,rectangle,86.20703125,-59.87109375,1,0,1,13.2578125,-2.8203125,1,0,1,1,23,183,23,1,,response3disk_3,TRUE,5,5,"[278,77,75,61,67,318,271,125,99,320,79,90,184,223,161,224,323,130,226,285]",2.3186,rectangle
,,,,,,,,,,,,,FF,,,,,,,,2.4828,,,,,,,,,,,,,,,,,,,,,,60ff39a8dc1a2539c032a5b7,61036e48a0b9920bb45a69e5,2021-07-29_21h14.29.916,Simcolourproject_2stim_asymm_v5,2020.2.10,MacIntel,60,61025ae37ef11b136ea224fe,,,,,,,,,2082,65.59375,-38.2421875,1,0,1,response3disk,,5,26.7734375,-10.5078125,1,0,1,rectangle,26.7734375,-10.5078125,1,0,1,26.7734375,-10.5078125,1,0,1,1,24,184,44,1,,,,,,,,
,,,,,,,,,,,,,FF,,,,,,,,0.9671,,,,,,,,,,,,,,,,,,,,,,60ff39a8dc1a2539c032a5b7,61036e48a0b9920bb45a69e5,2021-07-29_21h14.29.916,Simcolourproject_2stim_asymm_v5,2020.2.10,MacIntel,60,61025ae37ef11b136ea224fe,,,,,,,,,10,32.6953125,-69.16015625,1,0,1,response3disk,,4,17.140625,-13.59765625,1,0,1,rectangle,17.140625,-13.59765625,1,0,1,17.140625,-13.59765625,1,0,1,1,25,185,156,1,,,,,,,,
,,,,,,,,,,,,,FF,,,,,,,,1.1175,,,,,,,,,,,,,,,,,,,,,,60ff39a8dc1a2539c032a5b7,61036e48a0b9920bb45a69e5,2021-07-29_21h14.29.916,Simcolourproject_2stim_asymm_v5,2020.2.10,MacIntel,60,61025ae37ef11b136ea224fe,,,,,,,,,2829,77.859375,31.1796875,1,0,1,response1disk,,6,17.3203125,-5.546875,1,0,1,rectangle,17.3203125,-5.546875,1,0,1,17.3203125,-5.546875,1,0,1,1,26,186,42,1,,,,,,,,
,,,,,,,,,,,,,FF,,,,,,,,0.8649,,,,,,,,,,,,,,,,,,,,,,60ff39a8dc1a2539c032a5b7,61036e48a0b9920bb45a69e5,2021-07-29_21h14.29.916,Simcolourproject_2stim_asymm_v5,2020.2.10,MacIntel,60,61025ae37ef11b136ea224fe,,,,,,,,,1655,97.45703125,41.375,1,0,1,response1disk,,6,25.35546875,-0.8359375,1,0,1,rectangle,25.35546875,-0.8359375,1,0,1,25.35546875,-0.8359375,1,0,1,1,27,187,3,1,,,,,,,,
,,,,,,,,,,,,,FF,,,,,,,,0.9328,,,,,,,,,,,,,,,,,,,,,,60ff39a8dc1a2539c032a5b7,61036e48a0b9920bb45a69e5,2021-07-29_21h14.29.916,Simcolourproject_2stim_asymm_v5,2020.2.10,MacIntel,60,61025ae37ef11b136ea224fe,,,,,,,,,517,67.62890625,-41.51171875,1,0,1,response3disk,,5,10.38671875,-3.78125,1,0,1,rectangle,10.38671875,-3.78125,1,0,1,10.38671875,-3.78125,1,0,1,1,28,188,80,1,,,,,,,,
,,,,,,,,,,,,,FF,,,,,,,,0.9516,,,,,,,,,,,,,,,,,,,,,,60ff39a8dc1a2539c032a5b7,61036e48a0b9920bb45a69e5,2021-07-29_21h14.29.916,Simcolourproject_2stim_asymm_v5,2020.2.10,MacIntel,60,61025ae37ef11b136ea224fe,,,,,,,,,2255,43.953125,78.21875,1,0,1,response1disk,,7,25.99609375,11.93359375,1,0,1,rectangle,25.99609375,11.93359375,1,0,1,25.99609375,11.93359375,1,0,1,1,29,189,8,1,,,,,,,,
,,,,,,,,,,,,,FF,,,,,,,,0.8311,,,,,,,,,,,,,,,,,,,,,,60ff39a8dc1a2539c032a5b7,61036e48a0b9920bb45a69e5,2021-07-29_21h14.29.916,Simcolourproject_2stim_asymm_v5,2020.2.10,MacIntel,60,61025ae37ef11b136ea224fe,,,,,,,,,3327,52.49609375,101.4414063,1,0,1,response1disk,,7,23.09765625,10.30859375,1,0,1,rectangle,23.09765625,10.30859375,1,0,1,23.09765625,10.30859375,1,0,1,1,30,190,25,1,,,,,,,,
,,,,,,,,,,,,,FF,,,,,,,,1.1018,,,,,,,,,,,,,,,,,,,,,,60ff39a8dc1a2539c032a5b7,61036e48a0b9920bb45a69e5,2021-07-29_21h14.29.916,Simcolourproject_2stim_asymm_v5,2020.2.10,MacIntel,60,61025ae37ef11b136ea224fe,,,,,,,,,4297,77.5234375,-43.90234375,1,0,1,response3disk,,5,19.8046875,-8.65625,1,0,1,rectangle,19.8046875,-8.65625,1,0,1,19.8046875,-8.65625,1,0,1,1,31,191,40,1,,,,,,,,
,,,,,,,,,,,,,FF,,,,,,,,0.9666,,,,,,,,,,,,,,,,,,,,,,60ff39a8dc1a2539c032a5b7,61036e48a0b9920bb45a69e5,2021-07-29_21h14.29.916,Simcolourproject_2stim_asymm_v5,2020.2.10,MacIntel,60,61025ae37ef11b136ea224fe,,,,,,,,,2549,-33.74609375,-78.6171875,1,0,1,response5disk,,3,-13.1953125,6.23828125,1,0,1,rectangle,-13.1953125,6.23828125,1,0,1,-13.1953125,6.23828125,1,0,1,1,32,192,102,1,,,,,,,,
,,,,,,,,,,,,,FF,,,,,,,,1.1667,,,,,,,,,,,,,,,,,,,,,,60ff39a8dc1a2539c032a5b7,61036e48a0b9920bb45a69e5,2021-07-29_21h14.29.916,Simcolourproject_2stim_asymm_v5,2020.2.10,MacIntel,60,61025ae37ef11b136ea224fe,,,,,,,,,2823,49.99609375,-93.55859375,1,0,1,response3disk,,4,-3.92578125,2.12890625,1,0,1,rectangle,-3.92578125,2.12890625,1,0,1,-3.92578125,2.12890625,1,0,1,1,33,193,121,1,,,,,,,,
,,,,,,,,,,,,,FF,,,,,,,,0.85,,,,,,,,,,,,,,,,,,,,,,60ff39a8dc1a2539c032a5b7,61036e48a0b9920bb45a69e5,2021-07-29_21h14.29.916,Simcolourproject_2stim_asymm_v5,2020.2.10,MacIntel,60,61025ae37ef11b136ea224fe,,,,,,,,,3471,-97.95703125,45.515625,1,0,1,response7disk,,1,0.1796875,-13.7734375,1,0,1,rectangle,0.1796875,-13.7734375,1,0,1,0.1796875,-13.7734375,1,0,1,1,34,194,10,1,,,,,,,,
,,,,,,,,,,,,,FF,,,,,,,,0.8828,,,,,,,,,,,,,,,,,,,,,,60ff39a8dc1a2539c032a5b7,61036e48a0b9920bb45a69e5,2021-07-29_21h14.29.916,Simcolourproject_2stim_asymm_v5,2020.2.10,MacIntel,60,61025ae37ef11b136ea224fe,,,,,,,,,3580,25.55859375,74.08203125,1,0,1,response1disk,,7,3.2421875,-8.796875,1,0,1,rectangle,3.2421875,-8.796875,1,0,1,3.2421875,-8.796875,1,0,1,1,35,195,118,1,,,,,,,,
,,,,,,,,,,,,,FF,,,,,,,,2.0313,,,,,,,,,,,,,,,,,,,,,,60ff39a8dc1a2539c032a5b7,61036e48a0b9920bb45a69e5,2021-07-29_21h14.29.916,Simcolourproject_2stim_asymm_v5,2020.2.10,MacIntel,60,61025ae37ef11b136ea224fe,,,,,,,,,491,71.78515625,-45.8515625,1,0,1,response3disk,,5,13.6015625,-0.109375,1,0,1,rectangle,13.6015625,-0.109375,1,0,1,13.6015625,-0.109375,1,0,1,1,36,196,37,1,,,,,,,,
,,,,,,,,,,,,,FF,,,,,,,,1.3002,,,,,,,,,,,,,,,,,,,,,,60ff39a8dc1a2539c032a5b7,61036e48a0b9920bb45a69e5,2021-07-29_21h14.29.916,Simcolourproject_2stim_asymm_v5,2020.2.10,MacIntel,60,61025ae37ef11b136ea224fe,,,,,,,,,4275,52.90625,99.5234375,1,0,1,response1disk,,7,11.7578125,-1.046875,1,0,1,rectangle,11.7578125,-1.046875,1,0,1,11.7578125,-1.046875,1,0,1,1,37,197,21,1,,,,,,,,
,,,,,,,,,,,,,FF,,,,,,,,0.9333,,,,,,,,,,,,,,,,,,,,,,60ff39a8dc1a2539c032a5b7,61036e48a0b9920bb45a69e5,2021-07-29_21h14.29.916,Simcolourproject_2stim_asymm_v5,2020.2.10,MacIntel,60,61025ae37ef11b136ea224fe,,,,,,,,,3104,-69.54296875,-47.6953125,1,0,1,response5disk,,2,-17.3359375,-13.1328125,1,0,1,rectangle,-17.3359375,-13.1328125,1,0,1,-17.3359375,-13.1328125,1,0,1,1,38,198,89,1,,,,,,,,
,,,,,,,,,,,,,FF,,,,,,,,0.9185,,,,,,,,,,,,,,,,,,,,,,60ff39a8dc1a2539c032a5b7,61036e48a0b9920bb45a69e5,2021-07-29_21h14.29.916,Simcolourproject_2stim_asymm_v5,2020.2.10,MacIntel,60,61025ae37ef11b136ea224fe,,,,,,,,,3814,-27.6796875,-62.3671875,1,0,1,response5disk,,3,-18.7578125,-8.66796875,1,0,1,rectangle,-18.7578125,-8.66796875,1,0,1,-18.7578125,-8.66796875,1,0,1,1,39,199,65,1,,,,,,,,
,,,,,,,,,,,,,FF,,,,,,,,3.4325,,,,,,,,,,,,,,,,,,,,,,60ff39a8dc1a2539c032a5b7,61036e48a0b9920bb45a69e5,2021-07-29_21h14.29.916,Simcolourproject_2stim_asymm_v5,2020.2.10,MacIntel,60,61025ae37ef11b136ea224fe,,,,,,,,,1386,54.36328125,-32.578125,1,0,1,response3disk,,5,31.46484375,-13.70703125,1,0,1,rectangle,31.46484375,-13.70703125,1,0,1,31.46484375,-13.70703125,1,0,1,1,40,200,123,1,,,,,,,,
,,,,,,,,,,,,,FF,,,,,,,,1.0356,,,,,,,,,,,,,,,,,,,,,,60ff39a8dc1a2539c032a5b7,61036e48a0b9920bb45a69e5,2021-07-29_21h14.29.916,Simcolourproject_2stim_asymm_v5,2020.2.10,MacIntel,60,61025ae37ef11b136ea224fe,,,,,,,,,1216,23.58984375,-59.99609375,1,0,1,response3disk,,4,6.4296875,8.5078125,1,0,1,rectangle,6.4296875,8.5078125,1,0,1,6.4296875,8.5078125,1,0,1,1,41,201,67,1,,,,,,,,
,,,,,,,,,,,,,FF,,,,,,,,0.8344,,,,,,,,,,,,,,,,,,,,,,60ff39a8dc1a2539c032a5b7,61036e48a0b9920bb45a69e5,2021-07-29_21h14.29.916,Simcolourproject_2stim_asymm_v5,2020.2.10,MacIntel,60,61025ae37ef11b136ea224fe,,,,,,,,,2080,61.55078125,-34.1796875,1,0,1,response3disk,,5,3.0859375,11.0390625,1,0,1,rectangle,3.0859375,11.0390625,1,0,1,3.0859375,11.0390625,1,0,1,1,42,202,31,1,,,,,,,,
,,,,,,,,,,,,,FF,,,,,,,,1.1666,,,,,,,,,,,,,,,,,,,,,,60ff39a8dc1a2539c032a5b7,61036e48a0b9920bb45a69e5,2021-07-29_21h14.29.916,Simcolourproject_2stim_asymm_v5,2020.2.10,MacIntel,60,61025ae37ef11b136ea224fe,,,,,,,,,2256,105.765625,34.75,1,0,1,response1disk,,6,33.296875,9.22265625,1,0,1,rectangle,33.296875,9.22265625,1,0,1,33.296875,9.22265625,1,0,1,1,43,203,32,1,,,,,,,,
,,,,,,,,,,,,,FF,,,,,,,,0.881,,,,,,,,,,,,,,,,,,,,,,60ff39a8dc1a2539c032a5b7,61036e48a0b9920bb45a69e5,2021-07-29_21h14.29.916,Simcolourproject_2stim_asymm_v5,2020.2.10,MacIntel,60,61025ae37ef11b136ea224fe,,,,,,,,,3961,35.25,85.98828125,1,0,1,response1disk,,7,10.0234375,14.03125,1,0,1,rectangle,10.0234375,14.03125,1,0,1,10.0234375,14.03125,1,0,1,1,44,204,113,1,,,,,,,,
,,,,,,,,,,,,,FF,,,,,,,,0.7003,,,,,,,,,,,,,,,,,,,,,,60ff39a8dc1a2539c032a5b7,61036e48a0b9920bb45a69e5,2021-07-29_21h14.29.916,Simcolourproject_2stim_asymm_v5,2020.2.10,MacIntel,60,61025ae37ef11b136ea224fe,,,,,,,,,839,40.8515625,77.2421875,1,0,1,response1disk,,7,16.47265625,10.0703125,1,0,1,rectangle,16.47265625,10.0703125,1,0,1,16.47265625,10.0703125,1,0,1,1,45,205,74,1,,,,,,,,
,,,,,,,,,,,,,FF,,,,,,,,0.701,,,,,,,,,,,,,,,,,,,,,,60ff39a8dc1a2539c032a5b7,61036e48a0b9920bb45a69e5,2021-07-29_21h14.29.916,Simcolourproject_2stim_asymm_v5,2020.2.10,MacIntel,60,61025ae37ef11b136ea224fe,,,,,,,,,1439,71.4609375,24.52734375,1,0,1,response1disk,,6,19.23828125,-3.2109375,1,0,1,rectangle,19.23828125,-3.2109375,1,0,1,19.23828125,-3.2109375,1,0,1,1,46,206,75,1,,,,,,,,
,,,,,,,,,,,,,FF,,,,,,,,1.4505,,,,,,,,,,,,,,,,,,,,,,60ff39a8dc1a2539c032a5b7,61036e48a0b9920bb45a69e5,2021-07-29_21h14.29.916,Simcolourproject_2stim_asymm_v5,2020.2.10,MacIntel,60,61025ae37ef11b136ea224fe,,,,,,,,,1488,39.58984375,89.80859375,1,0,1,response1disk,,7,4.1953125,0.4453125,1,0,1,rectangle,4.1953125,0.4453125,1,0,1,4.1953125,0.4453125,1,0,1,1,47,207,114,1,,,,,,,,
,,,,,,,,,,,,,FF,,,,,,,,1.0022,,,,,,,,,,,,,,,,,,,,,,60ff39a8dc1a2539c032a5b7,61036e48a0b9920bb45a69e5,2021-07-29_21h14.29.916,Simcolourproject_2stim_asymm_v5,2020.2.10,MacIntel,60,61025ae37ef11b136ea224fe,,,,,,,,,1974,77.609375,-51.06640625,1,0,1,response3disk,,5,18.96875,-3.546875,1,0,1,rectangle,18.96875,-3.546875,1,0,1,18.96875,-3.546875,1,0,1,1,48,208,0,1,,,,,,,,
,,,,,,,,,,,,,FF,,,,,,,,1.5339,,,,,,,,,,,,,,,,,,,,,,60ff39a8dc1a2539c032a5b7,61036e48a0b9920bb45a69e5,2021-07-29_21h14.29.916,Simcolourproject_2stim_asymm_v5,2020.2.10,MacIntel,60,61025ae37ef11b136ea224fe,,,,,,,,,622,32.0859375,-68.02734375,1,0,1,response3disk,,4,12.50390625,-11.015625,1,0,1,rectangle,12.50390625,-11.015625,1,0,1,12.50390625,-11.015625,1,0,1,1,49,209,30,1,,,,,,,,
,,,,,,,,,,,,,FF,,,,,,,,0.6667,,,,,,,,,,,,,,,,,,,,,,60ff39a8dc1a2539c032a5b7,61036e48a0b9920bb45a69e5,2021-07-29_21h14.29.916,Simcolourproject_2stim_asymm_v5,2020.2.10,MacIntel,60,61025ae37ef11b136ea224fe,,,,,,,,,1090,41.14453125,-75.125,1,0,1,response3disk,,4,5.30859375,7.84765625,1,0,1,rectangle,5.30859375,7.84765625,1,0,1,5.30859375,7.84765625,1,0,1,1,50,210,146,1,,,,,,,,
,,,,,,,,,,,,,FF,,,,,,,,0.9008,,,,,,,,,,,,,,,,,,,,,,60ff39a8dc1a2539c032a5b7,61036e48a0b9920bb45a69e5,2021-07-29_21h14.29.916,Simcolourproject_2stim_asymm_v5,2020.2.10,MacIntel,60,61025ae37ef11b136ea224fe,,,,,,,,,3096,-106.8984375,38.73046875,1,0,1,response7disk,,1,-12.08984375,-6.9921875,1,0,1,rectangle,-12.08984375,-6.9921875,1,0,1,-12.08984375,-6.9921875,1,0,1,1,51,211,56,1,,,,,,,,
,,,,,,,,,,,,,FF,,,,,,,,1.2329,,,,,,,,,,,,,,,,,,,,,,60ff39a8dc1a2539c032a5b7,61036e48a0b9920bb45a69e5,2021-07-29_21h14.29.916,Simcolourproject_2stim_asymm_v5,2020.2.10,MacIntel,60,61025ae37ef11b136ea224fe,,,,,,,,,903,51.48828125,-86.01171875,1,0,1,response3disk,,4,2.70703125,2.71875,1,0,1,rectangle,2.70703125,2.71875,1,0,1,2.70703125,2.71875,1,0,1,1,52,212,159,1,,,,,,,,
,,,,,,,,,,,,,FF,,,,,,,,2.2345,,,,,,,,,,,,,,,,,,,,,,60ff39a8dc1a2539c032a5b7,61036e48a0b9920bb45a69e5,2021-07-29_21h14.29.916,Simcolourproject_2stim_asymm_v5,2020.2.10,MacIntel,60,61025ae37ef11b136ea224fe,,,,,,,,,2995,-47.07421875,-91.65625,1,0,1,response5disk,,3,-21.1328125,-3.6640625,1,0,1,rectangle,-21.1328125,-3.6640625,1,0,1,-21.1328125,-3.6640625,1,0,1,1,53,213,71,1,,,,,,,,
,,,,,,,,,,,,,FF,,,,,,,,3.0008,,,,,,,,,,,,,,,,,,,,,,60ff39a8dc1a2539c032a5b7,61036e48a0b9920bb45a69e5,2021-07-29_21h14.29.916,Simcolourproject_2stim_asymm_v5,2020.2.10,MacIntel,60,61025ae37ef11b136ea224fe,,,,,,,,,1939,42.21484375,66.54296875,1,0,1,response1disk,,7,3.22265625,-9.140625,1,0,1,rectangle,3.22265625,-9.140625,1,0,1,3.22265625,-9.140625,1,0,1,1,54,214,99,1,,,,,,,,
,,,,,,,,,,,,,FF,,,,,,,,2.4328,,,,,,,,,,,,,,,,,,,,,,60ff39a8dc1a2539c032a5b7,61036e48a0b9920bb45a69e5,2021-07-29_21h14.29.916,Simcolourproject_2stim_asymm_v5,2020.2.10,MacIntel,60,61025ae37ef11b136ea224fe,,,,,,,,,4171,42.06640625,-65.96875,1,0,1,response3disk,,4,22.45703125,-2.71484375,1,0,1,rectangle,22.45703125,-2.71484375,1,0,1,22.45703125,-2.71484375,1,0,1,1,55,215,91,1,,,,,,,,
,,,,,,,,,,,,,FF,,,,,,,,2.2964,,,,,,,,,,,,,,,,,,,,,,60ff39a8dc1a2539c032a5b7,61036e48a0b9920bb45a69e5,2021-07-29_21h14.29.916,Simcolourproject_2stim_asymm_v5,2020.2.10,MacIntel,60,61025ae37ef11b136ea224fe,,,,,,,,,269,37.73828125,78.51171875,1,0,1,response1disk,,7,-26.1796875,-13.98828125,1,0,1,rectangle,-26.1796875,-13.98828125,1,0,1,-26.1796875,-13.98828125,1,0,1,1,56,216,129,1,,,,,,,,
,,,,,,,,,,,,,FF,,,,,,,,1.6483,,,,,,,,,,,,,,,,,,,,,,60ff39a8dc1a2539c032a5b7,61036e48a0b9920bb45a69e5,2021-07-29_21h14.29.916,Simcolourproject_2stim_asymm_v5,2020.2.10,MacIntel,60,61025ae37ef11b136ea224fe,,,,,,,,,487,37.60546875,74.9609375,1,0,1,response1disk,,7,-19.375,-17.22265625,1,0,1,rectangle,-19.375,-17.22265625,1,0,1,-19.375,-17.22265625,1,0,1,1,57,217,104,1,,,,,,,,
,,,,,,,,,,,,,FF,,,,,,,,2.0838,,,,,,,,,,,,,,,,,,,,,,60ff39a8dc1a2539c032a5b7,61036e48a0b9920bb45a69e5,2021-07-29_21h14.29.916,Simcolourproject_2stim_asymm_v5,2020.2.10,MacIntel,60,61025ae37ef11b136ea224fe,,,,,,,,,473,32.046875,69.66796875,1,0,1,response1disk,,7,-4.7109375,-6.58203125,1,0,1,rectangle,-4.7109375,-6.58203125,1,0,1,-4.7109375,-6.58203125,1,0,1,1,58,218,14,1,,,,,,,,
,,,,,,,,,,,,,FF,,,,,,,,0.868,,,,,,,,,,,,,,,,,,,,,,60ff39a8dc1a2539c032a5b7,61036e48a0b9920bb45a69e5,2021-07-29_21h14.29.916,Simcolourproject_2stim_asymm_v5,2020.2.10,MacIntel,60,61025ae37ef11b136ea224fe,,,,,,,,,3301,62.07421875,-31.7734375,1,0,1,response3disk,,5,18.78515625,1.34375,1,0,1,rectangle,18.78515625,1.34375,1,0,1,18.78515625,1.34375,1,0,1,1,59,219,128,1,,,,,,,,
,,,,,,,,,,,,,FF,,,,,,,,2.4176,,,,,,,,,,,,,,,,,,,,,,60ff39a8dc1a2539c032a5b7,61036e48a0b9920bb45a69e5,2021-07-29_21h14.29.916,Simcolourproject_2stim_asymm_v5,2020.2.10,MacIntel,60,61025ae37ef11b136ea224fe,,,,,,,,,3805,-32.34375,-85.71875,1,0,1,response5disk,,3,-5.58984375,8.02734375,1,0,1,rectangle,-5.58984375,8.02734375,1,0,1,-5.58984375,8.02734375,1,0,1,1,60,220,39,1,,,,,,,,
,,,,,,,,,,,,,FF,,,,,,,,0.8317,,,,,,,,,,,,,,,,,,,,,,60ff39a8dc1a2539c032a5b7,61036e48a0b9920bb45a69e5,2021-07-29_21h14.29.916,Simcolourproject_2stim_asymm_v5,2020.2.10,MacIntel,60,61025ae37ef11b136ea224fe,,,,,,,,,4026,44.5703125,-74.59765625,1,0,1,response3disk,,4,7.0703125,8.53125,1,0,1,rectangle,7.0703125,8.53125,1,0,1,7.0703125,8.53125,1,0,1,1,61,221,41,1,,,,,,,,
,,,,,,,,,,,,,FF,,,,,,,,1.5347,,,,,,,,,,,,,,,,,,,,,,60ff39a8dc1a2539c032a5b7,61036e48a0b9920bb45a69e5,2021-07-29_21h14.29.916,Simcolourproject_2stim_asymm_v5,2020.2.10,MacIntel,60,61025ae37ef11b136ea224fe,,,,,,,,,2711,35.6171875,-69.10546875,1,0,1,response3disk,,4,-4.5703125,15.64453125,1,0,1,rectangle,48.33203125,94.265625,1,0,1,-3.203125,4.33984375,1,0,1,1,62,222,119,1,,response1disk_3,TRUE,7,7,"[278,77,75,61,67,318,271,125,99,320,79,90,184,223,161,224,323,130,226,285]",1.4652,rectangle
,,,,,,,,,,,,,FF,,,,,,,,0.7334,,,,,,,,,,,,,,,,,,,,,,60ff39a8dc1a2539c032a5b7,61036e48a0b9920bb45a69e5,2021-07-29_21h14.29.916,Simcolourproject_2stim_asymm_v5,2020.2.10,MacIntel,60,61025ae37ef11b136ea224fe,,,,,,,,,1165,24.26953125,62.13671875,1,0,1,response1disk,,7,4.7890625,-1.3984375,1,0,1,rectangle,46.4921875,88.328125,1,0,1,3.62109375,1.28515625,1,0,1,1,63,223,82,1,,response1disk_3,TRUE,7,7,"[278,77,75,61,67,318,271,125,99,320,79,90,184,223,161,224,323,130,226,285]",1.567,rectangle
,,,,,,,,,,,,,FF,,,,,,,,1.033,,,,,,,,,,,,,,,,,,,,,,60ff39a8dc1a2539c032a5b7,61036e48a0b9920bb45a69e5,2021-07-29_21h14.29.916,Simcolourproject_2stim_asymm_v5,2020.2.10,MacIntel,60,61025ae37ef11b136ea224fe,,,,,,,,,2619,45.9609375,-62.37890625,1,0,1,response3disk,,4,3.73046875,6.28125,1,0,1,rectangle,3.73046875,6.28125,1,0,1,3.73046875,6.28125,1,0,1,1,64,224,1,1,,,,,,,,
,,,,,,,,,,,,,FF,,,,,,,,1.0493,,,,,,,,,,,,,,,,,,,,,,60ff39a8dc1a2539c032a5b7,61036e48a0b9920bb45a69e5,2021-07-29_21h14.29.916,Simcolourproject_2stim_asymm_v5,2020.2.10,MacIntel,60,61025ae37ef11b136ea224fe,,,,,,,,,3739,31.02734375,72.1328125,1,0,1,response1disk,,7,-7.94921875,-9.390625,1,0,1,rectangle,39.6796875,-94.81640625,1,0,1,3.00390625,-5.2109375,1,0,1,1,65,225,98,1,,response3disk_3,TRUE,4,4,"[278,77,75,61,67,318,271,125,99,320,79,90,184,223,161,224,323,130,226,285]",1.8188,rectangle
,,,,,,,,,,,,,FF,,,,,,,,1.0663,,,,,,,,,,,,,,,,,,,,,,60ff39a8dc1a2539c032a5b7,61036e48a0b9920bb45a69e5,2021-07-29_21h14.29.916,Simcolourproject_2stim_asymm_v5,2020.2.10,MacIntel,60,61025ae37ef11b136ea224fe,,,,,,,,,171,-79.05078125,-38.55078125,1,0,1,response5disk,,2,-0.5,-3.7421875,1,0,1,rectangle,-0.5,-3.7421875,1,0,1,-0.5,-3.7421875,1,0,1,1,66,226,34,1,,,,,,,,
,,,,,,,,,,,,,FF,,,,,,,,1.3003,,,,,,,,,,,,,,,,,,,,,,60ff39a8dc1a2539c032a5b7,61036e48a0b9920bb45a69e5,2021-07-29_21h14.29.916,Simcolourproject_2stim_asymm_v5,2020.2.10,MacIntel,60,61025ae37ef11b136ea224fe,,,,,,,,,2353,25.21484375,-58.8359375,1,0,1,response3disk,,4,16.08984375,-5.26171875,1,0,1,rectangle,16.08984375,-5.26171875,1,0,1,16.08984375,-5.26171875,1,0,1,1,67,227,126,1,,,,,,,,
,,,,,,,,,,,,,FF,,,,,,,,3.6503,,,,,,,,,,,,,,,,,,,,,,60ff39a8dc1a2539c032a5b7,61036e48a0b9920bb45a69e5,2021-07-29_21h14.29.916,Simcolourproject_2stim_asymm_v5,2020.2.10,MacIntel,60,61025ae37ef11b136ea224fe,,,,,,,,,706,65.484375,-53.546875,1,0,1,response3disk,,5,13.42578125,-15.91796875,1,0,1,rectangle,13.42578125,-15.91796875,1,0,1,13.42578125,-15.91796875,1,0,1,1,68,228,110,1,,,,,,,,
,,,,,,,,,,,,,FF,,,,,,,,2.3336,,,,,,,,,,,,,,,,,,,,,,60ff39a8dc1a2539c032a5b7,61036e48a0b9920bb45a69e5,2021-07-29_21h14.29.916,Simcolourproject_2stim_asymm_v5,2020.2.10,MacIntel,60,61025ae37ef11b136ea224fe,,,,,,,,,1963,-30.2265625,54.9609375,1,0,1,response7disk,,0,-6.86328125,-2.04296875,1,0,1,rectangle,-6.86328125,-2.04296875,1,0,1,-6.86328125,-2.04296875,1,0,1,1,69,229,50,1,,,,,,,,
,,,,,,,,,,,,,FF,,,,,,,,4.6654,,,,,,,,,,,,,,,,,,,,,,60ff39a8dc1a2539c032a5b7,61036e48a0b9920bb45a69e5,2021-07-29_21h14.29.916,Simcolourproject_2stim_asymm_v5,2020.2.10,MacIntel,60,61025ae37ef11b136ea224fe,,,,,,,,,301,30.875,98.2578125,1,0,1,response1disk,,7,4.4609375,-12.5,1,0,1,rectangle,4.4609375,-12.5,1,0,1,4.4609375,-12.5,1,0,1,1,70,230,145,1,,,,,,,,
,,,,,,,,,,,,,FF,,,,,,,,3.5667,,,,,,,,,,,,,,,,,,,,,,60ff39a8dc1a2539c032a5b7,61036e48a0b9920bb45a69e5,2021-07-29_21h14.29.916,Simcolourproject_2stim_asymm_v5,2020.2.10,MacIntel,60,61025ae37ef11b136ea224fe,,,,,,,,,728,45.87109375,-84.48046875,1,0,1,response3disk,,4,-22.08203125,-1.796875,1,0,1,rectangle,-22.08203125,-1.796875,1,0,1,-22.08203125,-1.796875,1,0,1,1,71,231,106,1,,,,,,,,
,,,,,,,,,,,,,FF,,,,,,,,0.9833,,,,,,,,,,,,,,,,,,,,,,60ff39a8dc1a2539c032a5b7,61036e48a0b9920bb45a69e5,2021-07-29_21h14.29.916,Simcolourproject_2stim_asymm_v5,2020.2.10,MacIntel,60,61025ae37ef11b136ea224fe,,,,,,,,,3927,39.9140625,90.1875,1,0,1,response1disk,,7,-5.90625,-13.6484375,1,0,1,rectangle,-5.90625,-13.6484375,1,0,1,-5.90625,-13.6484375,1,0,1,1,72,232,136,1,,,,,,,,
,,,,,,,,,,,,,FF,,,,,,,,0.7387,,,,,,,,,,,,,,,,,,,,,,60ff39a8dc1a2539c032a5b7,61036e48a0b9920bb45a69e5,2021-07-29_21h14.29.916,Simcolourproject_2stim_asymm_v5,2020.2.10,MacIntel,60,61025ae37ef11b136ea224fe,,,,,,,,,2138,42.3359375,52.05078125,1,0,1,response1disk,,7,9.046875,-4.69140625,1,0,1,rectangle,9.046875,-4.69140625,1,0,1,9.046875,-4.69140625,1,0,1,1,73,233,94,1,,,,,,,,
,,,,,,,,,,,,,FF,,,,,,,,0.952,,,,,,,,,,,,,,,,,,,,,,60ff39a8dc1a2539c032a5b7,61036e48a0b9920bb45a69e5,2021-07-29_21h14.29.916,Simcolourproject_2stim_asymm_v5,2020.2.10,MacIntel,60,61025ae37ef11b136ea224fe,,,,,,,,,3810,-71.953125,28.84375,1,0,1,response7disk,,1,-11.9296875,8.2734375,1,0,1,rectangle,-11.9296875,8.2734375,1,0,1,-11.9296875,8.2734375,1,0,1,1,74,234,125,1,,,,,,,,
,,,,,,,,,,,,,FF,,,,,,,,1.0159,,,,,,,,,,,,,,,,,,,,,,60ff39a8dc1a2539c032a5b7,61036e48a0b9920bb45a69e5,2021-07-29_21h14.29.916,Simcolourproject_2stim_asymm_v5,2020.2.10,MacIntel,60,61025ae37ef11b136ea224fe,,,,,,,,,3942,-69.97265625,-37.42578125,1,0,1,response5disk,,2,-20.29296875,-7.6875,1,0,1,rectangle,-20.29296875,-7.6875,1,0,1,-20.29296875,-7.6875,1,0,1,1,75,235,64,1,,,,,,,,
,,,,,,,,,,,,,FF,,,,,,,,0.9839,,,,,,,,,,,,,,,,,,,,,,60ff39a8dc1a2539c032a5b7,61036e48a0b9920bb45a69e5,2021-07-29_21h14.29.916,Simcolourproject_2stim_asymm_v5,2020.2.10,MacIntel,60,61025ae37ef11b136ea224fe,,,,,,,,,1146,32.17578125,-52.9765625,1,0,1,response3disk,,4,6.578125,3.77734375,1,0,1,rectangle,6.578125,3.77734375,1,0,1,6.578125,3.77734375,1,0,1,1,76,236,62,1,,,,,,,,
,,,,,,,,,,,,,FF,,,,,,,,1.0986,,,,,,,,,,,,,,,,,,,,,,60ff39a8dc1a2539c032a5b7,61036e48a0b9920bb45a69e5,2021-07-29_21h14.29.916,Simcolourproject_2stim_asymm_v5,2020.2.10,MacIntel,60,61025ae37ef11b136ea224fe,,,,,,,,,2470,68.74609375,-27.65234375,1,0,1,response3disk,,5,3.01171875,10.25390625,1,0,1,rectangle,3.01171875,10.25390625,1,0,1,3.01171875,10.25390625,1,0,1,1,77,237,73,1,,,,,,,,
,,,,,,,,,,,,,FF,,,,,,,,0.8001,,,,,,,,,,,,,,,,,,,,,,60ff39a8dc1a2539c032a5b7,61036e48a0b9920bb45a69e5,2021-07-29_21h14.29.916,Simcolourproject_2stim_asymm_v5,2020.2.10,MacIntel,60,61025ae37ef11b136ea224fe,,,,,,,,,1290,-76.88671875,36.69921875,1,0,1,response7disk,,1,-20.94921875,-1.6015625,1,0,1,rectangle,-20.94921875,-1.6015625,1,0,1,-20.94921875,-1.6015625,1,0,1,1,78,238,43,1,,,,,,,,
,,,,,,,,,,,,,FF,,,,,,,,0.8999,,,,,,,,,,,,,,,,,,,,,,60ff39a8dc1a2539c032a5b7,61036e48a0b9920bb45a69e5,2021-07-29_21h14.29.916,Simcolourproject_2stim_asymm_v5,2020.2.10,MacIntel,60,61025ae37ef11b136ea224fe,,,,,,,,,2615,-70.01953125,-37.328125,1,0,1,response5disk,,2,-9.8359375,4.11328125,1,0,1,rectangle,-9.8359375,4.11328125,1,0,1,-9.8359375,4.11328125,1,0,1,1,79,239,151,1,,,,,,,,
,,,,,,,,,,,,,FF,,,,,,,,1.0163,,,,,,,,,,,,,,,,,,,,,,60ff39a8dc1a2539c032a5b7,61036e48a0b9920bb45a69e5,2021-07-29_21h14.29.916,Simcolourproject_2stim_asymm_v5,2020.2.10,MacIntel,60,61025ae37ef11b136ea224fe,,,,,,,,,611,33.6015625,-78.3203125,1,0,1,response3disk,,4,15.20703125,1.98046875,1,0,1,rectangle,15.20703125,1.98046875,1,0,1,15.20703125,1.98046875,1,0,1,1,80,240,150,1,,,,,,,,
,,,,,,,,,,,,,FF,,,,,,,,0.8179,,,,,,,,,,,,,,,,,,,,,,60ff39a8dc1a2539c032a5b7,61036e48a0b9920bb45a69e5,2021-07-29_21h14.29.916,Simcolourproject_2stim_asymm_v5,2020.2.10,MacIntel,60,61025ae37ef11b136ea224fe,,,,,,,,,2659,34.671875,96.578125,1,0,1,response1disk,,7,11,-9.59375,1,0,1,rectangle,11,-9.59375,1,0,1,11,-9.59375,1,0,1,1,81,241,51,1,,,,,,,,
,,,,,,,,,,,,,FF,,,,,,,,1.0142,,,,,,,,,,,,,,,,,,,,,,60ff39a8dc1a2539c032a5b7,61036e48a0b9920bb45a69e5,2021-07-29_21h14.29.916,Simcolourproject_2stim_asymm_v5,2020.2.10,MacIntel,60,61025ae37ef11b136ea224fe,,,,,,,,,3457,39.53515625,74.88671875,1,0,1,response1disk,,7,13.65625,0.1796875,1,0,1,rectangle,13.65625,0.1796875,1,0,1,13.65625,0.1796875,1,0,1,1,82,242,95,1,,,,,,,,
,,,,,,,,,,,,,FF,,,,,,,,0.7188,,,,,,,,,,,,,,,,,,,,,,60ff39a8dc1a2539c032a5b7,61036e48a0b9920bb45a69e5,2021-07-29_21h14.29.916,Simcolourproject_2stim_asymm_v5,2020.2.10,MacIntel,60,61025ae37ef11b136ea224fe,,,,,,,,,986,40.8984375,77.7578125,1,0,1,response1disk,,7,10.7109375,-3.0234375,1,0,1,rectangle,10.7109375,-3.0234375,1,0,1,10.7109375,-3.0234375,1,0,1,1,83,243,17,1,,,,,,,,
,,,,,,,,,,,,,FF,,,,,,,,1.2502,,,,,,,,,,,,,,,,,,,,,,60ff39a8dc1a2539c032a5b7,61036e48a0b9920bb45a69e5,2021-07-29_21h14.29.916,Simcolourproject_2stim_asymm_v5,2020.2.10,MacIntel,60,61025ae37ef11b136ea224fe,,,,,,,,,4031,89.1796875,-37.15625,1,0,1,response3disk,,5,-9.4609375,-2.8671875,1,0,1,rectangle,-9.4609375,-2.8671875,1,0,1,-9.4609375,-2.8671875,1,0,1,1,84,244,54,1,,,,,,,,
,,,,,,,,,,,,,FF,,,,,,,,1.0161,,,,,,,,,,,,,,,,,,,,,,60ff39a8dc1a2539c032a5b7,61036e48a0b9920bb45a69e5,2021-07-29_21h14.29.916,Simcolourproject_2stim_asymm_v5,2020.2.10,MacIntel,60,61025ae37ef11b136ea224fe,,,,,,,,,1594,63.68359375,-46.21484375,1,0,1,response3disk,,5,-10.3984375,13.0703125,1,0,1,rectangle,-10.3984375,13.0703125,1,0,1,-10.3984375,13.0703125,1,0,1,1,85,245,130,1,,,,,,,,
,,,,,,,,,,,,,FF,,,,,,,,0.869,,,,,,,,,,,,,,,,,,,,,,60ff39a8dc1a2539c032a5b7,61036e48a0b9920bb45a69e5,2021-07-29_21h14.29.916,Simcolourproject_2stim_asymm_v5,2020.2.10,MacIntel,60,61025ae37ef11b136ea224fe,,,,,,,,,1016,47.734375,79.6328125,1,0,1,response1disk,,7,8.53125,0.078125,1,0,1,rectangle,8.53125,0.078125,1,0,1,8.53125,0.078125,1,0,1,1,86,246,26,1,,,,,,,,
,,,,,,,,,,,,,FF,,,,,,,,1.25,,,,,,,,,,,,,,,,,,,,,,60ff39a8dc1a2539c032a5b7,61036e48a0b9920bb45a69e5,2021-07-29_21h14.29.916,Simcolourproject_2stim_asymm_v5,2020.2.10,MacIntel,60,61025ae37ef11b136ea224fe,,,,,,,,,2297,-56.9375,-40.44921875,1,0,1,response5disk,,2,12.47265625,-3.04296875,1,0,1,rectangle,12.47265625,-3.04296875,1,0,1,12.47265625,-3.04296875,1,0,1,1,87,247,55,1,,,,,,,,
,,,,,,,,,,,,,FF,,,,,,,,0.8001,,,,,,,,,,,,,,,,,,,,,,60ff39a8dc1a2539c032a5b7,61036e48a0b9920bb45a69e5,2021-07-29_21h14.29.916,Simcolourproject_2stim_asymm_v5,2020.2.10,MacIntel,60,61025ae37ef11b136ea224fe,,,,,,,,,1855,93.0703125,43.4453125,1,0,1,response1disk,,6,17.2109375,1.5078125,1,0,1,rectangle,17.2109375,1.5078125,1,0,1,17.2109375,1.5078125,1,0,1,1,88,248,27,1,,,,,,,,
