key_resp.keys,key_resp.rt,key_resp_14.keys,key_resp_14.rt,key_resp_15.keys,key_resp_15.rt,key_resp_17.keys,key_resp_17.rt,key_resp_9.keys,key_resp_9.rt,key_resp_10.keys,key_resp_10.rt,practice_comparison,Ecc,mouse_5.x,mouse_5.y,mouse_5.leftButton,mouse_5.midButton,mouse_5.rightButton,mouse_5.clicked_name,pracsimilarity,response_time,mouse_10.x,mouse_10.y,mouse_10.leftButton,mouse_10.midButton,mouse_10.rightButton,mouse_10.clicked_name,mouse_7.x,mouse_7.y,mouse_7.leftButton,mouse_7.midButton,mouse_7.rightButton,mouse_6.x,mouse_6.y,mouse_6.leftButton,mouse_6.midButton,mouse_6.rightButton,duringprac.thisRepN,duringprac.thisTrialN,duringprac.thisN,duringprac.thisIndex,duringprac.ran,participant,session,date,expName,psychopyVersion,OS,frameRate,study_id,mouse_7.clicked_name,catchpracsimilarity,catch_response_time,catchnumberprac,catchtrialorderprac,mouse_6.clicked_name,key_resp_22.keys,key_resp_22.rt,realcomparison,mouse.x,mouse.y,mouse.leftButton,mouse.midButton,mouse.rightButton,mouse.clicked_name,Colour2,similarity,mouse_2.x,mouse_2.y,mouse_2.leftButton,mouse_2.midButton,mouse_2.rightButton,mouse_2.clicked_name,mouse_3.x,mouse_3.y,mouse_3.leftButton,mouse_3.midButton,mouse_3.rightButton,mouse_11.x,mouse_11.y,mouse_11.leftButton,mouse_11.midButton,mouse_11.rightButton,trials_2.thisRepN,trials_2.thisTrialN,trials_2.thisN,trials_2.thisIndex,trials_2.ran,Colour1,mouse_3.clicked_name,catchornah,catchsimilarity,catchnumber,catchtrialorder,catchRT,mouse_11.clicked_name
space,0.8596,space,1.1863,space,83.0372,space,19.921,space,29.5221,space,3.8983,95,PF,36.265625,49.21484375,1,0,0,response1disk_5,7,4.2577,12.08203125,-4.77734375,1,0,0,rectangle_8,12.08203125,-4.77734375,1,0,0,12.08203125,-4.77734375,1,0,0,0,0,0,2,1,60ff762e5239a014eead0c1f,61036ed3e443c3e9aeab20d2,2021-07-29_22h18.39.033,Simcolourproject_2stim_asymm_v5,2020.2.10,MacIntel,60,61025ae37ef11b136ea224fe,,,,,,,,,,,,,,,,,,,,,,,,,,,,,,,,,,,,,,,,,,,,,,
,,,,,,,,,,,,27,PF,-43.3125,-99.65625,1,0,0,response5disk_5,3,6.066,7.0234375,4.84765625,1,0,0,rectangle_8,-40.80859375,-82.30078125,1,0,0,3.41796875,-5.96484375,1,0,0,0,1,1,1,1,60ff762e5239a014eead0c1f,61036ed3e443c3e9aeab20d2,2021-07-29_22h18.39.033,Simcolourproject_2stim_asymm_v5,2020.2.10,MacIntel,60,61025ae37ef11b136ea224fe,response5disk_7,3,2.6512,3,"[2,5]",rectangle_4,,,,,,,,,,,,,,,,,,,,,,,,,,,,,,,,,,,,,,,,
,,,,,,,,,,,,46,PF,47.234375,-85.25,1,0,0,response3disk_5,4,2.404,12.89453125,-12.95703125,1,0,0,rectangle_8,12.89453125,-12.95703125,1,0,0,12.89453125,-12.95703125,1,0,0,0,2,2,6,1,60ff762e5239a014eead0c1f,61036ed3e443c3e9aeab20d2,2021-07-29_22h18.39.033,Simcolourproject_2stim_asymm_v5,2020.2.10,MacIntel,60,61025ae37ef11b136ea224fe,,,,,,,,,,,,,,,,,,,,,,,,,,,,,,,,,,,,,,,,,,,,,,
,,,,,,,,,,,,55,FF,25.984375,-55.03125,1,0,0,response3disk_5,4,1.2686,4.32421875,-1,1,0,0,rectangle_8,4.32421875,-1,1,0,0,4.32421875,-1,1,0,0,0,3,3,5,1,60ff762e5239a014eead0c1f,61036ed3e443c3e9aeab20d2,2021-07-29_22h18.39.033,Simcolourproject_2stim_asymm_v5,2020.2.10,MacIntel,60,61025ae37ef11b136ea224fe,,,,,,,,,,,,,,,,,,,,,,,,,,,,,,,,,,,,,,,,,,,,,,
,,,,,,,,,,,,107,FF,28.48828125,-90.50390625,1,0,0,response3disk_5,4,2.6339,-9.671875,1.3046875,1,0,0,rectangle_8,-36.51953125,-50.62109375,1,0,0,-11.7109375,-5.8984375,1,0,0,0,4,4,3,1,60ff762e5239a014eead0c1f,61036ed3e443c3e9aeab20d2,2021-07-29_22h18.39.033,Simcolourproject_2stim_asymm_v5,2020.2.10,MacIntel,60,61025ae37ef11b136ea224fe,response5disk_7,3,1.8838,3,"[2,5]",rectangle_4,,,,,,,,,,,,,,,,,,,,,,,,,,,,,,,,,,,,,,,,
,,,,,,,,,,,,76,PF,31.6328125,-82.42578125,1,0,0,response3disk_5,4,2.7679,-0.8203125,-0.3984375,1,0,0,rectangle_8,-0.8203125,-0.3984375,1,0,0,-0.8203125,-0.3984375,1,0,0,0,5,5,4,1,60ff762e5239a014eead0c1f,61036ed3e443c3e9aeab20d2,2021-07-29_22h18.39.033,Simcolourproject_2stim_asymm_v5,2020.2.10,MacIntel,60,61025ae37ef11b136ea224fe,,,,,,,,,,,,,,,,,,,,,,,,,,,,,,,,,,,,,,,,,,,,,,
,,,,,,,,,,,,37,FF,-53.94140625,-33.80859375,1,0,0,response5disk_5,2,3.0843,-11.7890625,-4.625,1,0,0,rectangle_8,-11.7890625,-4.625,1,0,0,-11.7890625,-4.625,1,0,0,0,6,6,0,1,60ff762e5239a014eead0c1f,61036ed3e443c3e9aeab20d2,2021-07-29_22h18.39.033,Simcolourproject_2stim_asymm_v5,2020.2.10,MacIntel,60,61025ae37ef11b136ea224fe,,,,,,,,,,,,,,,,,,,,,,,,,,,,,,,,,,,,,,,,,,,,,,
,,,,,,,,,,,,,FF,,,,,,,,1.9337,,,,,,,,,,,,,,,,,,,,,,60ff762e5239a014eead0c1f,61036ed3e443c3e9aeab20d2,2021-07-29_22h18.39.033,Simcolourproject_2stim_asymm_v5,2020.2.10,MacIntel,60,61025ae37ef11b136ea224fe,,,,,,,space,2.138,3764,46.3828125,-76.48046875,1,0,0,response3disk,,4,19.8515625,3.9296875,1,0,0,rectangle,19.8515625,3.9296875,1,0,0,19.8515625,3.9296875,1,0,0,0,0,0,15,1,,,,,,,,
,,,,,,,,,,,,,FF,,,,,,,,3.9689,,,,,,,,,,,,,,,,,,,,,,60ff762e5239a014eead0c1f,61036ed3e443c3e9aeab20d2,2021-07-29_22h18.39.033,Simcolourproject_2stim_asymm_v5,2020.2.10,MacIntel,60,61025ae37ef11b136ea224fe,,,,,,,,,1009,30.92578125,47.67578125,1,0,0,response1disk,,7,7.90234375,-5.578125,1,0,0,rectangle,7.90234375,-5.578125,1,0,0,7.90234375,-5.578125,1,0,0,0,1,1,117,1,,,,,,,,
,,,,,,,,,,,,,FF,,,,,,,,1.7517,,,,,,,,,,,,,,,,,,,,,,60ff762e5239a014eead0c1f,61036ed3e443c3e9aeab20d2,2021-07-29_22h18.39.033,Simcolourproject_2stim_asymm_v5,2020.2.10,MacIntel,60,61025ae37ef11b136ea224fe,,,,,,,,,1775,-44.1796875,-31.9765625,1,0,0,response5disk,,2,-3.546875,-2.09765625,1,0,0,rectangle,-3.546875,-2.09765625,1,0,0,-3.546875,-2.09765625,1,0,0,0,2,2,57,1,,,,,,,,
,,,,,,,,,,,,,FF,,,,,,,,0.9158,,,,,,,,,,,,,,,,,,,,,,60ff762e5239a014eead0c1f,61036ed3e443c3e9aeab20d2,2021-07-29_22h18.39.033,Simcolourproject_2stim_asymm_v5,2020.2.10,MacIntel,60,61025ae37ef11b136ea224fe,,,,,,,,,4035,-30.3046875,-50.17578125,1,0,0,response5disk,,3,-7.8515625,-2.484375,1,0,0,rectangle,-7.8515625,-2.484375,1,0,0,-7.8515625,-2.484375,1,0,0,0,3,3,6,1,,,,,,,,
,,,,,,,,,,,,,FF,,,,,,,,1.0992,,,,,,,,,,,,,,,,,,,,,,60ff762e5239a014eead0c1f,61036ed3e443c3e9aeab20d2,2021-07-29_22h18.39.033,Simcolourproject_2stim_asymm_v5,2020.2.10,MacIntel,60,61025ae37ef11b136ea224fe,,,,,,,,,4276,-26.796875,-62.734375,1,0,0,response5disk,,3,2.29296875,-4.71875,1,0,0,rectangle,2.29296875,-4.71875,1,0,0,2.29296875,-4.71875,1,0,0,0,4,4,30,1,,,,,,,,
,,,,,,,,,,,,,FF,,,,,,,,1.4019,,,,,,,,,,,,,,,,,,,,,,60ff762e5239a014eead0c1f,61036ed3e443c3e9aeab20d2,2021-07-29_22h18.39.033,Simcolourproject_2stim_asymm_v5,2020.2.10,MacIntel,60,61025ae37ef11b136ea224fe,,,,,,,,,4108,79.96875,-30.09375,1,0,0,response3disk,,5,14.6640625,-8.96875,1,0,0,rectangle,14.6640625,-8.96875,1,0,0,14.6640625,-8.96875,1,0,0,0,5,5,137,1,,,,,,,,
,,,,,,,,,,,,,FF,,,,,,,,1.5993,,,,,,,,,,,,,,,,,,,,,,60ff762e5239a014eead0c1f,61036ed3e443c3e9aeab20d2,2021-07-29_22h18.39.033,Simcolourproject_2stim_asymm_v5,2020.2.10,MacIntel,60,61025ae37ef11b136ea224fe,,,,,,,,,3870,-70.25390625,-38.0234375,1,0,0,response5disk,,2,-11.81640625,-14.6953125,1,0,0,rectangle,-11.81640625,-14.6953125,1,0,0,-11.81640625,-14.6953125,1,0,0,0,6,6,2,1,,,,,,,,
,,,,,,,,,,,,,FF,,,,,,,,0.9493,,,,,,,,,,,,,,,,,,,,,,60ff762e5239a014eead0c1f,61036ed3e443c3e9aeab20d2,2021-07-29_22h18.39.033,Simcolourproject_2stim_asymm_v5,2020.2.10,MacIntel,60,61025ae37ef11b136ea224fe,,,,,,,,,1116,82.87109375,42.76171875,1,0,0,response1disk,,6,20.078125,6.375,1,0,0,rectangle,20.078125,6.375,1,0,0,20.078125,6.375,1,0,0,0,7,7,100,1,,,,,,,,
,,,,,,,,,,,,,FF,,,,,,,,1.1016,,,,,,,,,,,,,,,,,,,,,,60ff762e5239a014eead0c1f,61036ed3e443c3e9aeab20d2,2021-07-29_22h18.39.033,Simcolourproject_2stim_asymm_v5,2020.2.10,MacIntel,60,61025ae37ef11b136ea224fe,,,,,,,,,3922,-60.8671875,17.671875,1,0,0,response7disk,,1,-22.6796875,9.93359375,1,0,0,rectangle,-22.6796875,9.93359375,1,0,0,-22.6796875,9.93359375,1,0,0,0,8,8,140,1,,,,,,,,
,,,,,,,,,,,,,FF,,,,,,,,1.2164,,,,,,,,,,,,,,,,,,,,,,60ff762e5239a014eead0c1f,61036ed3e443c3e9aeab20d2,2021-07-29_22h18.39.033,Simcolourproject_2stim_asymm_v5,2020.2.10,MacIntel,60,61025ae37ef11b136ea224fe,,,,,,,,,2356,-72.8984375,30.22265625,1,0,0,response7disk,,1,-15.34375,0.98046875,1,0,0,rectangle,-15.34375,0.98046875,1,0,0,-15.34375,0.98046875,1,0,0,0,9,9,158,1,,,,,,,,
,,,,,,,,,,,,,FF,,,,,,,,0.8009,,,,,,,,,,,,,,,,,,,,,,60ff762e5239a014eead0c1f,61036ed3e443c3e9aeab20d2,2021-07-29_22h18.39.033,Simcolourproject_2stim_asymm_v5,2020.2.10,MacIntel,60,61025ae37ef11b136ea224fe,,,,,,,,,3522,-32.11328125,-62.44140625,1,0,0,response5disk,,3,3.59765625,-7.2421875,1,0,0,rectangle,-17.40625,-76.78125,1,0,0,-14.84375,1.0859375,1,0,0,0,10,10,74,1,,response5disk_3,TRUE,3,7,"[275,30,31,170,37,161,193,273,39,158,140,147,77,40,284,11,218,37,167,238]",3.5522,rectangle
,,,,,,,,,,,,,FF,,,,,,,,0.75,,,,,,,,,,,,,,,,,,,,,,60ff762e5239a014eead0c1f,61036ed3e443c3e9aeab20d2,2021-07-29_22h18.39.033,Simcolourproject_2stim_asymm_v5,2020.2.10,MacIntel,60,61025ae37ef11b136ea224fe,,,,,,,,,3065,56.828125,-63.92578125,1,0,0,response3disk,,4,15.9375,-2.0234375,1,0,0,rectangle,15.9375,-2.0234375,1,0,0,15.9375,-2.0234375,1,0,0,0,11,11,146,1,,,,,,,,
,,,,,,,,,,,,,FF,,,,,,,,1.8506,,,,,,,,,,,,,,,,,,,,,,60ff762e5239a014eead0c1f,61036ed3e443c3e9aeab20d2,2021-07-29_22h18.39.033,Simcolourproject_2stim_asymm_v5,2020.2.10,MacIntel,60,61025ae37ef11b136ea224fe,,,,,,,,,76,67.8515625,34.25390625,1,0,0,response1disk,,6,5.4921875,1.91796875,1,0,0,rectangle,5.4921875,1.91796875,1,0,0,5.4921875,1.91796875,1,0,0,0,12,12,11,1,,,,,,,,
,,,,,,,,,,,,,FF,,,,,,,,1.1182,,,,,,,,,,,,,,,,,,,,,,60ff762e5239a014eead0c1f,61036ed3e443c3e9aeab20d2,2021-07-29_22h18.39.033,Simcolourproject_2stim_asymm_v5,2020.2.10,MacIntel,60,61025ae37ef11b136ea224fe,,,,,,,,,648,-23.38671875,-89.6875,1,0,0,response5disk,,3,-4.39453125,-6.421875,1,0,0,rectangle,-4.39453125,-6.421875,1,0,0,-4.39453125,-6.421875,1,0,0,0,13,13,85,1,,,,,,,,
,,,,,,,,,,,,,FF,,,,,,,,0.934,,,,,,,,,,,,,,,,,,,,,,60ff762e5239a014eead0c1f,61036ed3e443c3e9aeab20d2,2021-07-29_22h18.39.033,Simcolourproject_2stim_asymm_v5,2020.2.10,MacIntel,60,61025ae37ef11b136ea224fe,,,,,,,,,469,30.453125,-59.09765625,1,0,0,response3disk,,4,9.09375,-5.65234375,1,0,0,rectangle,9.09375,-5.65234375,1,0,0,9.09375,-5.65234375,1,0,0,0,14,14,20,1,,,,,,,,
,,,,,,,,,,,,,FF,,,,,,,,1.3,,,,,,,,,,,,,,,,,,,,,,60ff762e5239a014eead0c1f,61036ed3e443c3e9aeab20d2,2021-07-29_22h18.39.033,Simcolourproject_2stim_asymm_v5,2020.2.10,MacIntel,60,61025ae37ef11b136ea224fe,,,,,,,,,898,-49.08984375,-38.26953125,1,0,0,response5disk,,2,-13.625,-8.8984375,1,0,0,rectangle,-13.625,-8.8984375,1,0,0,-13.625,-8.8984375,1,0,0,0,15,15,90,1,,,,,,,,
,,,,,,,,,,,,,FF,,,,,,,,1.1488,,,,,,,,,,,,,,,,,,,,,,60ff762e5239a014eead0c1f,61036ed3e443c3e9aeab20d2,2021-07-29_22h18.39.033,Simcolourproject_2stim_asymm_v5,2020.2.10,MacIntel,60,61025ae37ef11b136ea224fe,,,,,,,,,2930,68.42578125,-47.94921875,1,0,0,response3disk,,5,1.9453125,-6.9296875,1,0,0,rectangle,1.9453125,-6.9296875,1,0,0,1.9453125,-6.9296875,1,0,0,0,16,16,111,1,,,,,,,,
,,,,,,,,,,,,,FF,,,,,,,,2.3004,,,,,,,,,,,,,,,,,,,,,,60ff762e5239a014eead0c1f,61036ed3e443c3e9aeab20d2,2021-07-29_22h18.39.033,Simcolourproject_2stim_asymm_v5,2020.2.10,MacIntel,60,61025ae37ef11b136ea224fe,,,,,,,,,1249,22.08984375,-61.72265625,1,0,0,response3disk,,4,-1.296875,-11.0078125,1,0,0,rectangle,-1.296875,-11.0078125,1,0,0,-1.296875,-11.0078125,1,0,0,0,17,17,69,1,,,,,,,,
,,,,,,,,,,,,,FF,,,,,,,,0.9682,,,,,,,,,,,,,,,,,,,,,,60ff762e5239a014eead0c1f,61036ed3e443c3e9aeab20d2,2021-07-29_22h18.39.033,Simcolourproject_2stim_asymm_v5,2020.2.10,MacIntel,60,61025ae37ef11b136ea224fe,,,,,,,,,67,-41,-51.18359375,1,0,0,response5disk,,3,-13.7734375,8.4140625,1,0,0,rectangle,-13.7734375,8.4140625,1,0,0,-13.7734375,8.4140625,1,0,0,0,18,18,88,1,,,,,,,,
,,,,,,,,,,,,,FF,,,,,,,,1.0677,,,,,,,,,,,,,,,,,,,,,,60ff762e5239a014eead0c1f,61036ed3e443c3e9aeab20d2,2021-07-29_22h18.39.033,Simcolourproject_2stim_asymm_v5,2020.2.10,MacIntel,60,61025ae37ef11b136ea224fe,,,,,,,,,527,-22.5703125,-81.2890625,1,0,0,response5disk,,3,-8.28125,1.15625,1,0,0,rectangle,-8.28125,1.15625,1,0,0,-8.28125,1.15625,1,0,0,0,19,19,75,1,,,,,,,,
,,,,,,,,,,,,,FF,,,,,,,,1.5009,,,,,,,,,,,,,,,,,,,,,,60ff762e5239a014eead0c1f,61036ed3e443c3e9aeab20d2,2021-07-29_22h18.39.033,Simcolourproject_2stim_asymm_v5,2020.2.10,MacIntel,60,61025ae37ef11b136ea224fe,,,,,,,,,649,-30.84375,-81.359375,1,0,0,response5disk,,3,-7.83984375,-6.66796875,1,0,0,rectangle,-7.83984375,-6.66796875,1,0,0,-7.83984375,-6.66796875,1,0,0,0,20,20,109,1,,,,,,,,
,,,,,,,,,,,,,FF,,,,,,,,0.8343,,,,,,,,,,,,,,,,,,,,,,60ff762e5239a014eead0c1f,61036ed3e443c3e9aeab20d2,2021-07-29_22h18.39.033,Simcolourproject_2stim_asymm_v5,2020.2.10,MacIntel,60,61025ae37ef11b136ea224fe,,,,,,,,,2340,71.94140625,-42.2421875,1,0,0,response3disk,,5,-13.91796875,1.17578125,1,0,0,rectangle,-13.91796875,1.17578125,1,0,0,-13.91796875,1.17578125,1,0,0,0,21,21,83,1,,,,,,,,
,,,,,,,,,,,,,FF,,,,,,,,1.9676,,,,,,,,,,,,,,,,,,,,,,60ff762e5239a014eead0c1f,61036ed3e443c3e9aeab20d2,2021-07-29_22h18.39.033,Simcolourproject_2stim_asymm_v5,2020.2.10,MacIntel,60,61025ae37ef11b136ea224fe,,,,,,,,,3497,43.515625,-21.65625,1,0,0,response3disk,,5,-3.671875,-4.34375,1,0,0,rectangle,-3.671875,-4.34375,1,0,0,-3.671875,-4.34375,1,0,0,0,22,22,43,1,,,,,,,,
,,,,,,,,,,,,,FF,,,,,,,,1.4172,,,,,,,,,,,,,,,,,,,,,,60ff762e5239a014eead0c1f,61036ed3e443c3e9aeab20d2,2021-07-29_22h18.39.033,Simcolourproject_2stim_asymm_v5,2020.2.10,MacIntel,60,61025ae37ef11b136ea224fe,,,,,,,,,3305,-32.703125,-55.32421875,1,0,0,response5disk,,3,-13.48828125,-2.33984375,1,0,0,rectangle,-13.48828125,-2.33984375,1,0,0,-13.48828125,-2.33984375,1,0,0,0,23,23,50,1,,,,,,,,
,,,,,,,,,,,,,FF,,,,,,,,1.8998,,,,,,,,,,,,,,,,,,,,,,60ff762e5239a014eead0c1f,61036ed3e443c3e9aeab20d2,2021-07-29_22h18.39.033,Simcolourproject_2stim_asymm_v5,2020.2.10,MacIntel,60,61025ae37ef11b136ea224fe,,,,,,,,,24,21.4140625,-39.27734375,1,0,0,response3disk,,4,6.16015625,-4.97265625,1,0,0,rectangle,6.16015625,-4.97265625,1,0,0,6.16015625,-4.97265625,1,0,0,0,24,24,108,1,,,,,,,,
,,,,,,,,,,,,,FF,,,,,,,,1.3842,,,,,,,,,,,,,,,,,,,,,,60ff762e5239a014eead0c1f,61036ed3e443c3e9aeab20d2,2021-07-29_22h18.39.033,Simcolourproject_2stim_asymm_v5,2020.2.10,MacIntel,60,61025ae37ef11b136ea224fe,,,,,,,,,1602,-75.62890625,24.3203125,1,0,0,response7disk,,1,2.859375,-1.0859375,1,0,0,rectangle,2.859375,-1.0859375,1,0,0,2.859375,-1.0859375,1,0,0,0,25,25,36,1,,,,,,,,
,,,,,,,,,,,,,FF,,,,,,,,0.6677,,,,,,,,,,,,,,,,,,,,,,60ff762e5239a014eead0c1f,61036ed3e443c3e9aeab20d2,2021-07-29_22h18.39.033,Simcolourproject_2stim_asymm_v5,2020.2.10,MacIntel,60,61025ae37ef11b136ea224fe,,,,,,,,,1458,-59.1953125,22.296875,1,0,0,response7disk,,1,-12.625,8.58984375,1,0,0,rectangle,-12.625,8.58984375,1,0,0,-12.625,8.58984375,1,0,0,0,26,26,39,1,,,,,,,,
,,,,,,,,,,,,,FF,,,,,,,,1.1511,,,,,,,,,,,,,,,,,,,,,,60ff762e5239a014eead0c1f,61036ed3e443c3e9aeab20d2,2021-07-29_22h18.39.033,Simcolourproject_2stim_asymm_v5,2020.2.10,MacIntel,60,61025ae37ef11b136ea224fe,,,,,,,,,63,-46.59375,-27.97265625,1,0,0,response5disk,,2,8.21875,-8.95703125,1,0,0,rectangle,8.21875,-8.95703125,1,0,0,8.21875,-8.95703125,1,0,0,0,27,27,139,1,,,,,,,,
,,,,,,,,,,,,,FF,,,,,,,,0.9005,,,,,,,,,,,,,,,,,,,,,,60ff762e5239a014eead0c1f,61036ed3e443c3e9aeab20d2,2021-07-29_22h18.39.033,Simcolourproject_2stim_asymm_v5,2020.2.10,MacIntel,60,61025ae37ef11b136ea224fe,,,,,,,,,3429,-75.16796875,28.23046875,1,0,0,response7disk,,1,0.1484375,-9.375,1,0,0,rectangle,0.1484375,-9.375,1,0,0,0.1484375,-9.375,1,0,0,0,28,28,105,1,,,,,,,,
,,,,,,,,,,,,,FF,,,,,,,,0.9688,,,,,,,,,,,,,,,,,,,,,,60ff762e5239a014eead0c1f,61036ed3e443c3e9aeab20d2,2021-07-29_22h18.39.033,Simcolourproject_2stim_asymm_v5,2020.2.10,MacIntel,60,61025ae37ef11b136ea224fe,,,,,,,,,1180,-42.3203125,-73.83984375,1,0,0,response5disk,,3,-0.53515625,-5.47265625,1,0,0,rectangle,-44.21484375,77.8046875,1,0,0,-13.2265625,-2.73046875,1,0,0,0,29,29,138,1,,response7disk_3,TRUE,0,0,"[275,30,31,170,37,161,193,273,39,158,140,147,77,40,284,11,218,37,167,238]",1.8327,rectangle
,,,,,,,,,,,,,FF,,,,,,,,1.5169,,,,,,,,,,,,,,,,,,,,,,60ff762e5239a014eead0c1f,61036ed3e443c3e9aeab20d2,2021-07-29_22h18.39.033,Simcolourproject_2stim_asymm_v5,2020.2.10,MacIntel,60,61025ae37ef11b136ea224fe,,,,,,,,,868,22.63671875,-51.42578125,1,0,0,response3disk,,4,-2.734375,-2.98828125,1,0,0,rectangle,-26.40234375,-62.36328125,1,0,0,-4.41015625,-7.5859375,1,0,0,0,30,30,134,1,,response5disk_3,TRUE,3,5,"[275,30,31,170,37,161,193,273,39,158,140,147,77,40,284,11,218,37,167,238]",2.7858,rectangle
,,,,,,,,,,,,,FF,,,,,,,,0.8014,,,,,,,,,,,,,,,,,,,,,,60ff762e5239a014eead0c1f,61036ed3e443c3e9aeab20d2,2021-07-29_22h18.39.033,Simcolourproject_2stim_asymm_v5,2020.2.10,MacIntel,60,61025ae37ef11b136ea224fe,,,,,,,,,936,88.65234375,-26.875,1,0,0,response3disk,,5,19.9375,-10.88671875,1,0,0,rectangle,19.9375,-10.88671875,1,0,0,19.9375,-10.88671875,1,0,0,0,31,31,22,1,,,,,,,,
,,,,,,,,,,,,,FF,,,,,,,,0.9685,,,,,,,,,,,,,,,,,,,,,,60ff762e5239a014eead0c1f,61036ed3e443c3e9aeab20d2,2021-07-29_22h18.39.033,Simcolourproject_2stim_asymm_v5,2020.2.10,MacIntel,60,61025ae37ef11b136ea224fe,,,,,,,,,100,-38.41015625,-69.33203125,1,0,0,response5disk,,3,-4.87109375,-5.71484375,1,0,0,rectangle,-4.87109375,-5.71484375,1,0,0,-4.87109375,-5.71484375,1,0,0,0,32,32,0,1,,,,,,,,
,,,,,,,,,,,,,FF,,,,,,,,0.8843,,,,,,,,,,,,,,,,,,,,,,60ff762e5239a014eead0c1f,61036ed3e443c3e9aeab20d2,2021-07-29_22h18.39.033,Simcolourproject_2stim_asymm_v5,2020.2.10,MacIntel,60,61025ae37ef11b136ea224fe,,,,,,,,,2030,-64.73046875,25.98046875,1,0,0,response7disk,,1,-10.1328125,1.3671875,1,0,0,rectangle,-10.1328125,1.3671875,1,0,0,-10.1328125,1.3671875,1,0,0,0,33,33,34,1,,,,,,,,
,,,,,,,,,,,,,FF,,,,,,,,1.051,,,,,,,,,,,,,,,,,,,,,,60ff762e5239a014eead0c1f,61036ed3e443c3e9aeab20d2,2021-07-29_22h18.39.033,Simcolourproject_2stim_asymm_v5,2020.2.10,MacIntel,60,61025ae37ef11b136ea224fe,,,,,,,,,1991,42.55078125,63.85546875,1,0,0,response1disk,,7,5.97265625,2.33203125,1,0,0,rectangle,5.97265625,2.33203125,1,0,0,5.97265625,2.33203125,1,0,0,0,34,34,129,1,,,,,,,,
,,,,,,,,,,,,,FF,,,,,,,,0.967,,,,,,,,,,,,,,,,,,,,,,60ff762e5239a014eead0c1f,61036ed3e443c3e9aeab20d2,2021-07-29_22h18.39.033,Simcolourproject_2stim_asymm_v5,2020.2.10,MacIntel,60,61025ae37ef11b136ea224fe,,,,,,,,,407,62.46875,-16.22265625,1,0,0,response3disk,,5,12.54296875,10.3359375,1,0,0,rectangle,12.54296875,10.3359375,1,0,0,12.54296875,10.3359375,1,0,0,0,35,35,25,1,,,,,,,,
,,,,,,,,,,,,,FF,,,,,,,,1.0331,,,,,,,,,,,,,,,,,,,,,,60ff762e5239a014eead0c1f,61036ed3e443c3e9aeab20d2,2021-07-29_22h18.39.033,Simcolourproject_2stim_asymm_v5,2020.2.10,MacIntel,60,61025ae37ef11b136ea224fe,,,,,,,,,1556,52.828125,-31.99609375,1,0,0,response3disk,,5,7.69140625,1.2265625,1,0,0,rectangle,42.02734375,-80.06640625,1,0,0,10.95703125,-2.375,1,0,0,0,36,36,124,1,,response3disk_3,TRUE,4,4,"[275,30,31,170,37,161,193,273,39,158,140,147,77,40,284,11,218,37,167,238]",1.8339,rectangle
,,,,,,,,,,,,,FF,,,,,,,,1.3333,,,,,,,,,,,,,,,,,,,,,,60ff762e5239a014eead0c1f,61036ed3e443c3e9aeab20d2,2021-07-29_22h18.39.033,Simcolourproject_2stim_asymm_v5,2020.2.10,MacIntel,60,61025ae37ef11b136ea224fe,,,,,,,,,3337,22.9609375,-54.53515625,1,0,0,response3disk,,4,1.140625,-6.02734375,1,0,0,rectangle,1.140625,-6.02734375,1,0,0,1.140625,-6.02734375,1,0,0,0,37,37,98,1,,,,,,,,
,,,,,,,,,,,,,FF,,,,,,,,1.2669,,,,,,,,,,,,,,,,,,,,,,60ff762e5239a014eead0c1f,61036ed3e443c3e9aeab20d2,2021-07-29_22h18.39.033,Simcolourproject_2stim_asymm_v5,2020.2.10,MacIntel,60,61025ae37ef11b136ea224fe,,,,,,,,,552,37.8203125,-68.70703125,1,0,0,response3disk,,4,-0.9453125,-1.28515625,1,0,0,rectangle,14.8515625,-77.82421875,1,0,0,-5.76171875,-5.69921875,1,0,0,0,38,38,64,1,,response3disk_3,TRUE,4,4,"[275,30,31,170,37,161,193,273,39,158,140,147,77,40,284,11,218,37,167,238]",1.8011,rectangle
,,,,,,,,,,,,,FF,,,,,,,,0.9331,,,,,,,,,,,,,,,,,,,,,,60ff762e5239a014eead0c1f,61036ed3e443c3e9aeab20d2,2021-07-29_22h18.39.033,Simcolourproject_2stim_asymm_v5,2020.2.10,MacIntel,60,61025ae37ef11b136ea224fe,,,,,,,,,2901,-61.2890625,-31.1484375,1,0,0,response5disk,,2,0.93359375,-4.00390625,1,0,0,rectangle,74.41015625,29.4453125,1,0,0,21.48046875,-0.06640625,1,0,0,0,39,39,104,1,,response1disk_3,TRUE,6,6,"[275,30,31,170,37,161,193,273,39,158,140,147,77,40,284,11,218,37,167,238]",1.8351,rectangle
,,,,,,,,,,,,,FF,,,,,,,,1.0996,,,,,,,,,,,,,,,,,,,,,,60ff762e5239a014eead0c1f,61036ed3e443c3e9aeab20d2,2021-07-29_22h18.39.033,Simcolourproject_2stim_asymm_v5,2020.2.10,MacIntel,60,61025ae37ef11b136ea224fe,,,,,,,,,1453,-63.4375,20.79296875,1,0,0,response7disk,,1,-17.3515625,-1.68359375,1,0,0,rectangle,-17.3515625,-1.68359375,1,0,0,-17.3515625,-1.68359375,1,0,0,0,40,40,8,1,,,,,,,,
,,,,,,,,,,,,,FF,,,,,,,,0.9496,,,,,,,,,,,,,,,,,,,,,,60ff762e5239a014eead0c1f,61036ed3e443c3e9aeab20d2,2021-07-29_22h18.39.033,Simcolourproject_2stim_asymm_v5,2020.2.10,MacIntel,60,61025ae37ef11b136ea224fe,,,,,,,,,1262,-32.125,-70.87109375,1,0,0,response5disk,,3,0.23828125,-9.2578125,1,0,0,rectangle,0.23828125,-9.2578125,1,0,0,0.23828125,-9.2578125,1,0,0,0,41,41,60,1,,,,,,,,
,,,,,,,,,,,,,FF,,,,,,,,4.9188,,,,,,,,,,,,,,,,,,,,,,60ff762e5239a014eead0c1f,61036ed3e443c3e9aeab20d2,2021-07-29_22h18.39.033,Simcolourproject_2stim_asymm_v5,2020.2.10,MacIntel,60,61025ae37ef11b136ea224fe,,,,,,,,,2763,-23.59375,-59.52734375,1,0,0,response5disk,,3,1.33203125,-8.046875,1,0,0,rectangle,1.33203125,-8.046875,1,0,0,1.33203125,-8.046875,1,0,0,0,42,42,21,1,,,,,,,,
,,,,,,,,,,,,,FF,,,,,,,,2.3517,,,,,,,,,,,,,,,,,,,,,,60ff762e5239a014eead0c1f,61036ed3e443c3e9aeab20d2,2021-07-29_22h18.39.033,Simcolourproject_2stim_asymm_v5,2020.2.10,MacIntel,60,61025ae37ef11b136ea224fe,,,,,,,,,2236,38.14453125,-86.10546875,1,0,0,response3disk,,4,14.765625,-11.875,1,0,0,rectangle,14.765625,-11.875,1,0,0,14.765625,-11.875,1,0,0,0,43,43,113,1,,,,,,,,
,,,,,,,,,,,,,FF,,,,,,,,1.1162,,,,,,,,,,,,,,,,,,,,,,60ff762e5239a014eead0c1f,61036ed3e443c3e9aeab20d2,2021-07-29_22h18.39.033,Simcolourproject_2stim_asymm_v5,2020.2.10,MacIntel,60,61025ae37ef11b136ea224fe,,,,,,,,,163,-70.8125,-51.6015625,1,0,0,response5disk,,2,0.23046875,-5.42578125,1,0,0,rectangle,0.23046875,-5.42578125,1,0,0,0.23046875,-5.42578125,1,0,0,0,44,44,62,1,,,,,,,,
,,,,,,,,,,,,,FF,,,,,,,,0.9836,,,,,,,,,,,,,,,,,,,,,,60ff762e5239a014eead0c1f,61036ed3e443c3e9aeab20d2,2021-07-29_22h18.39.033,Simcolourproject_2stim_asymm_v5,2020.2.10,MacIntel,60,61025ae37ef11b136ea224fe,,,,,,,,,2692,81.2265625,-63.99609375,1,0,0,response3disk,,5,-5.00390625,-2.13671875,1,0,0,rectangle,-5.00390625,-2.13671875,1,0,0,-5.00390625,-2.13671875,1,0,0,0,45,45,151,1,,,,,,,,
,,,,,,,,,,,,,FF,,,,,,,,1.1671,,,,,,,,,,,,,,,,,,,,,,60ff762e5239a014eead0c1f,61036ed3e443c3e9aeab20d2,2021-07-29_22h18.39.033,Simcolourproject_2stim_asymm_v5,2020.2.10,MacIntel,60,61025ae37ef11b136ea224fe,,,,,,,,,1336,18.265625,-69.796875,1,0,0,response3disk,,4,0.48046875,-2.52734375,1,0,0,rectangle,0.48046875,-2.52734375,1,0,0,0.48046875,-2.52734375,1,0,0,0,46,46,56,1,,,,,,,,
,,,,,,,,,,,,,FF,,,,,,,,1.2177,,,,,,,,,,,,,,,,,,,,,,60ff762e5239a014eead0c1f,61036ed3e443c3e9aeab20d2,2021-07-29_22h18.39.033,Simcolourproject_2stim_asymm_v5,2020.2.10,MacIntel,60,61025ae37ef11b136ea224fe,,,,,,,,,938,35.67578125,-66.5859375,1,0,0,response3disk,,4,10.23828125,0.7734375,1,0,0,rectangle,10.23828125,0.7734375,1,0,0,10.23828125,0.7734375,1,0,0,0,47,47,153,1,,,,,,,,
,,,,,,,,,,,,,FF,,,,,,,,1.1825,,,,,,,,,,,,,,,,,,,,,,60ff762e5239a014eead0c1f,61036ed3e443c3e9aeab20d2,2021-07-29_22h18.39.033,Simcolourproject_2stim_asymm_v5,2020.2.10,MacIntel,60,61025ae37ef11b136ea224fe,,,,,,,,,3854,25.21484375,-57.0859375,1,0,0,response3disk,,4,10.70703125,-7.1171875,1,0,0,rectangle,10.70703125,-7.1171875,1,0,0,10.70703125,-7.1171875,1,0,0,0,48,48,73,1,,,,,,,,
,,,,,,,,,,,,,FF,,,,,,,,3.2501,,,,,,,,,,,,,,,,,,,,,,60ff762e5239a014eead0c1f,61036ed3e443c3e9aeab20d2,2021-07-29_22h18.39.033,Simcolourproject_2stim_asymm_v5,2020.2.10,MacIntel,60,61025ae37ef11b136ea224fe,,,,,,,,,4182,-72.41015625,-34.9453125,1,0,0,response5disk,,2,7.48828125,1.9296875,1,0,0,rectangle,7.48828125,1.9296875,1,0,0,7.48828125,1.9296875,1,0,0,0,49,49,1,1,,,,,,,,
,,,,,,,,,,,,,FF,,,,,,,,0.7684,,,,,,,,,,,,,,,,,,,,,,60ff762e5239a014eead0c1f,61036ed3e443c3e9aeab20d2,2021-07-29_22h18.39.033,Simcolourproject_2stim_asymm_v5,2020.2.10,MacIntel,60,61025ae37ef11b136ea224fe,,,,,,,,,823,32.53515625,-76.00390625,1,0,0,response3disk,,4,15.31640625,1.38671875,1,0,0,rectangle,15.31640625,1.38671875,1,0,0,15.31640625,1.38671875,1,0,0,0,50,50,17,1,,,,,,,,
,,,,,,,,,,,,,FF,,,,,,,,0.8356,,,,,,,,,,,,,,,,,,,,,,60ff762e5239a014eead0c1f,61036ed3e443c3e9aeab20d2,2021-07-29_22h18.39.033,Simcolourproject_2stim_asymm_v5,2020.2.10,MacIntel,60,61025ae37ef11b136ea224fe,,,,,,,,,4122,-28.91015625,-65.6953125,1,0,0,response5disk,,3,-21.2265625,-10.66015625,1,0,0,rectangle,-21.2265625,-10.66015625,1,0,0,-21.2265625,-10.66015625,1,0,0,0,51,51,27,1,,,,,,,,
,,,,,,,,,,,,,FF,,,,,,,,0.8345,,,,,,,,,,,,,,,,,,,,,,60ff762e5239a014eead0c1f,61036ed3e443c3e9aeab20d2,2021-07-29_22h18.39.033,Simcolourproject_2stim_asymm_v5,2020.2.10,MacIntel,60,61025ae37ef11b136ea224fe,,,,,,,,,2733,-64.35546875,-37.60546875,1,0,0,response5disk,,2,1.52734375,-1.87109375,1,0,0,rectangle,1.52734375,-1.87109375,1,0,0,1.52734375,-1.87109375,1,0,0,0,52,52,35,1,,,,,,,,
,,,,,,,,,,,,,FF,,,,,,,,0.9328,,,,,,,,,,,,,,,,,,,,,,60ff762e5239a014eead0c1f,61036ed3e443c3e9aeab20d2,2021-07-29_22h18.39.033,Simcolourproject_2stim_asymm_v5,2020.2.10,MacIntel,60,61025ae37ef11b136ea224fe,,,,,,,,,3569,61.16796875,67.3828125,1,0,0,response1disk,,7,19.18359375,3.078125,1,0,0,rectangle,19.18359375,3.078125,1,0,0,19.18359375,3.078125,1,0,0,0,53,53,99,1,,,,,,,,
,,,,,,,,,,,,,FF,,,,,,,,1.4011,,,,,,,,,,,,,,,,,,,,,,60ff762e5239a014eead0c1f,61036ed3e443c3e9aeab20d2,2021-07-29_22h18.39.033,Simcolourproject_2stim_asymm_v5,2020.2.10,MacIntel,60,61025ae37ef11b136ea224fe,,,,,,,,,3642,69.484375,-42.48046875,1,0,0,response3disk,,5,14.5625,-6.7109375,1,0,0,rectangle,14.5625,-6.7109375,1,0,0,14.5625,-6.7109375,1,0,0,0,54,54,131,1,,,,,,,,
,,,,,,,,,,,,,FF,,,,,,,,1.0504,,,,,,,,,,,,,,,,,,,,,,60ff762e5239a014eead0c1f,61036ed3e443c3e9aeab20d2,2021-07-29_22h18.39.033,Simcolourproject_2stim_asymm_v5,2020.2.10,MacIntel,60,61025ae37ef11b136ea224fe,,,,,,,,,1333,67.54296875,-33.6875,1,0,0,response3disk,,5,-10.53515625,4.9609375,1,0,0,rectangle,-10.53515625,4.9609375,1,0,0,-10.53515625,4.9609375,1,0,0,0,55,55,156,1,,,,,,,,
,,,,,,,,,,,,,FF,,,,,,,,1.4496,,,,,,,,,,,,,,,,,,,,,,60ff762e5239a014eead0c1f,61036ed3e443c3e9aeab20d2,2021-07-29_22h18.39.033,Simcolourproject_2stim_asymm_v5,2020.2.10,MacIntel,60,61025ae37ef11b136ea224fe,,,,,,,,,1459,30.94921875,-64.66796875,1,0,0,response3disk,,4,-2.03125,-9.2578125,1,0,0,rectangle,-2.03125,-9.2578125,1,0,0,-2.03125,-9.2578125,1,0,0,0,56,56,130,1,,,,,,,,
,,,,,,,,,,,,,FF,,,,,,,,0.7495,,,,,,,,,,,,,,,,,,,,,,60ff762e5239a014eead0c1f,61036ed3e443c3e9aeab20d2,2021-07-29_22h18.39.033,Simcolourproject_2stim_asymm_v5,2020.2.10,MacIntel,60,61025ae37ef11b136ea224fe,,,,,,,,,2087,-46.27734375,-25.734375,1,0,0,response5disk,,2,-3.17578125,9.921875,1,0,0,rectangle,-3.17578125,9.921875,1,0,0,-3.17578125,9.921875,1,0,0,0,57,57,115,1,,,,,,,,
,,,,,,,,,,,,,FF,,,,,,,,0.7998,,,,,,,,,,,,,,,,,,,,,,60ff762e5239a014eead0c1f,61036ed3e443c3e9aeab20d2,2021-07-29_22h18.39.033,Simcolourproject_2stim_asymm_v5,2020.2.10,MacIntel,60,61025ae37ef11b136ea224fe,,,,,,,,,95,-62.19140625,-20.640625,1,0,0,response5disk,,2,-1.40625,-5.66015625,1,0,0,rectangle,-1.40625,-5.66015625,1,0,0,-1.40625,-5.66015625,1,0,0,0,58,58,76,1,,,,,,,,
,,,,,,,,,,,,,FF,,,,,,,,0.8674,,,,,,,,,,,,,,,,,,,,,,60ff762e5239a014eead0c1f,61036ed3e443c3e9aeab20d2,2021-07-29_22h18.39.033,Simcolourproject_2stim_asymm_v5,2020.2.10,MacIntel,60,61025ae37ef11b136ea224fe,,,,,,,,,1308,-59.46484375,-37.65625,1,0,0,response5disk,,2,3.1640625,-8.91015625,1,0,0,rectangle,3.1640625,-8.91015625,1,0,0,3.1640625,-8.91015625,1,0,0,0,59,59,125,1,,,,,,,,
,,,,,,,,,,,,,FF,,,,,,,,0.5856,,,,,,,,,,,,,,,,,,,,,,60ff762e5239a014eead0c1f,61036ed3e443c3e9aeab20d2,2021-07-29_22h18.39.033,Simcolourproject_2stim_asymm_v5,2020.2.10,MacIntel,60,61025ae37ef11b136ea224fe,,,,,,,,,2722,-41.37109375,-21.2890625,1,0,0,response5disk,,2,-2.00390625,-0.2578125,1,0,0,rectangle,-2.00390625,-0.2578125,1,0,0,-2.00390625,-0.2578125,1,0,0,0,60,60,147,1,,,,,,,,
,,,,,,,,,,,,,FF,,,,,,,,1.267,,,,,,,,,,,,,,,,,,,,,,60ff762e5239a014eead0c1f,61036ed3e443c3e9aeab20d2,2021-07-29_22h18.39.033,Simcolourproject_2stim_asymm_v5,2020.2.10,MacIntel,60,61025ae37ef11b136ea224fe,,,,,,,,,4304,27.3359375,60.69921875,1,0,0,response1disk,,7,8.8828125,8.296875,1,0,0,rectangle,8.8828125,8.296875,1,0,0,8.8828125,8.296875,1,0,0,0,61,61,38,1,,,,,,,,
,,,,,,,,,,,,,FF,,,,,,,,1.167,,,,,,,,,,,,,,,,,,,,,,60ff762e5239a014eead0c1f,61036ed3e443c3e9aeab20d2,2021-07-29_22h18.39.033,Simcolourproject_2stim_asymm_v5,2020.2.10,MacIntel,60,61025ae37ef11b136ea224fe,,,,,,,,,3160,-70.33984375,-45.4609375,1,0,0,response5disk,,2,-3.56640625,-2.640625,1,0,0,rectangle,-3.56640625,-2.640625,1,0,0,-3.56640625,-2.640625,1,0,0,0,62,62,47,1,,,,,,,,
,,,,,,,,,,,,,FF,,,,,,,,1.4505,,,,,,,,,,,,,,,,,,,,,,60ff762e5239a014eead0c1f,61036ed3e443c3e9aeab20d2,2021-07-29_22h18.39.033,Simcolourproject_2stim_asymm_v5,2020.2.10,MacIntel,60,61025ae37ef11b136ea224fe,,,,,,,,,2132,44.73828125,83.93359375,1,0,0,response1disk,,7,-0.65625,-0.375,1,0,0,rectangle,-0.65625,-0.375,1,0,0,-0.65625,-0.375,1,0,0,0,63,63,116,1,,,,,,,,
,,,,,,,,,,,,,FF,,,,,,,,1.533,,,,,,,,,,,,,,,,,,,,,,60ff762e5239a014eead0c1f,61036ed3e443c3e9aeab20d2,2021-07-29_22h18.39.033,Simcolourproject_2stim_asymm_v5,2020.2.10,MacIntel,60,61025ae37ef11b136ea224fe,,,,,,,,,3698,-32.42578125,-40.44921875,1,0,0,response5disk,,3,-9.18359375,-1.65234375,1,0,0,rectangle,-9.18359375,-1.65234375,1,0,0,-9.18359375,-1.65234375,1,0,0,0,64,64,40,1,,,,,,,,
,,,,,,,,,,,,,FF,,,,,,,,0.7842,,,,,,,,,,,,,,,,,,,,,,60ff762e5239a014eead0c1f,61036ed3e443c3e9aeab20d2,2021-07-29_22h18.39.033,Simcolourproject_2stim_asymm_v5,2020.2.10,MacIntel,60,61025ae37ef11b136ea224fe,,,,,,,,,610,70.62109375,-14.30078125,1,0,0,response3disk,,5,-0.484375,11.2109375,1,0,0,rectangle,-0.484375,11.2109375,1,0,0,-0.484375,11.2109375,1,0,0,0,65,65,51,1,,,,,,,,
,,,,,,,,,,,,,FF,,,,,,,,2.0165,,,,,,,,,,,,,,,,,,,,,,60ff762e5239a014eead0c1f,61036ed3e443c3e9aeab20d2,2021-07-29_22h18.39.033,Simcolourproject_2stim_asymm_v5,2020.2.10,MacIntel,60,61025ae37ef11b136ea224fe,,,,,,,,,20,38.24609375,-26.09765625,1,0,0,response3disk,,5,8.03125,2.4140625,1,0,0,rectangle,8.03125,2.4140625,1,0,0,8.03125,2.4140625,1,0,0,0,66,66,82,1,,,,,,,,
,,,,,,,,,,,,,FF,,,,,,,,0.6043,,,,,,,,,,,,,,,,,,,,,,60ff762e5239a014eead0c1f,61036ed3e443c3e9aeab20d2,2021-07-29_22h18.39.033,Simcolourproject_2stim_asymm_v5,2020.2.10,MacIntel,60,61025ae37ef11b136ea224fe,,,,,,,,,4131,27.47265625,69.21875,1,0,0,response1disk,,7,7.64453125,-3.02734375,1,0,0,rectangle,7.64453125,-3.02734375,1,0,0,7.64453125,-3.02734375,1,0,0,0,67,67,78,1,,,,,,,,
,,,,,,,,,,,,,FF,,,,,,,,1.8665,,,,,,,,,,,,,,,,,,,,,,60ff762e5239a014eead0c1f,61036ed3e443c3e9aeab20d2,2021-07-29_22h18.39.033,Simcolourproject_2stim_asymm_v5,2020.2.10,MacIntel,60,61025ae37ef11b136ea224fe,,,,,,,,,2313,-62.4765625,-35.80078125,1,0,0,response5disk,,2,9.31640625,1.67578125,1,0,0,rectangle,9.31640625,1.67578125,1,0,0,9.31640625,1.67578125,1,0,0,0,68,68,4,1,,,,,,,,
,,,,,,,,,,,,,FF,,,,,,,,1.2846,,,,,,,,,,,,,,,,,,,,,,60ff762e5239a014eead0c1f,61036ed3e443c3e9aeab20d2,2021-07-29_22h18.39.033,Simcolourproject_2stim_asymm_v5,2020.2.10,MacIntel,60,61025ae37ef11b136ea224fe,,,,,,,,,3484,36.81640625,-56.28515625,1,0,0,response3disk,,4,-17.23046875,-10.1015625,1,0,0,rectangle,-17.23046875,-10.1015625,1,0,0,-17.23046875,-10.1015625,1,0,0,0,69,69,48,1,,,,,,,,
,,,,,,,,,,,,,FF,,,,,,,,1.1343,,,,,,,,,,,,,,,,,,,,,,60ff762e5239a014eead0c1f,61036ed3e443c3e9aeab20d2,2021-07-29_22h18.39.033,Simcolourproject_2stim_asymm_v5,2020.2.10,MacIntel,60,61025ae37ef11b136ea224fe,,,,,,,,,4206,-38.078125,-46.79296875,1,0,0,response5disk,,3,-4.26953125,0.09375,1,0,0,rectangle,-4.26953125,0.09375,1,0,0,-4.26953125,0.09375,1,0,0,0,70,70,133,1,,,,,,,,
,,,,,,,,,,,,,FF,,,,,,,,2.6006,,,,,,,,,,,,,,,,,,,,,,60ff762e5239a014eead0c1f,61036ed3e443c3e9aeab20d2,2021-07-29_22h18.39.033,Simcolourproject_2stim_asymm_v5,2020.2.10,MacIntel,60,61025ae37ef11b136ea224fe,,,,,,,,,3952,46.625,-68.0546875,1,0,0,response3disk,,4,22.90625,-8.7890625,1,0,0,rectangle,22.90625,-8.7890625,1,0,0,22.90625,-8.7890625,1,0,0,0,71,71,84,1,,,,,,,,
,,,,,,,,,,,,,FF,,,,,,,,1.0348,,,,,,,,,,,,,,,,,,,,,,60ff762e5239a014eead0c1f,61036ed3e443c3e9aeab20d2,2021-07-29_22h18.39.033,Simcolourproject_2stim_asymm_v5,2020.2.10,MacIntel,60,61025ae37ef11b136ea224fe,,,,,,,,,829,-34.46484375,-64.63671875,1,0,0,response5disk,,3,-13.6796875,10.32421875,1,0,0,rectangle,-13.6796875,10.32421875,1,0,0,-13.6796875,10.32421875,1,0,0,0,72,72,132,1,,,,,,,,
,,,,,,,,,,,,,FF,,,,,,,,1.0832,,,,,,,,,,,,,,,,,,,,,,60ff762e5239a014eead0c1f,61036ed3e443c3e9aeab20d2,2021-07-29_22h18.39.033,Simcolourproject_2stim_asymm_v5,2020.2.10,MacIntel,60,61025ae37ef11b136ea224fe,,,,,,,,,559,-28.99609375,-66.5234375,1,0,0,response5disk,,3,-5.58984375,6.43359375,1,0,0,rectangle,-5.58984375,6.43359375,1,0,0,-5.58984375,6.43359375,1,0,0,0,73,73,29,1,,,,,,,,
,,,,,,,,,,,,,FF,,,,,,,,0.6824,,,,,,,,,,,,,,,,,,,,,,60ff762e5239a014eead0c1f,61036ed3e443c3e9aeab20d2,2021-07-29_22h18.39.033,Simcolourproject_2stim_asymm_v5,2020.2.10,MacIntel,60,61025ae37ef11b136ea224fe,,,,,,,,,591,28.82421875,67.37890625,1,0,0,response1disk,,7,7.3671875,10.63671875,1,0,0,rectangle,7.3671875,10.63671875,1,0,0,7.3671875,10.63671875,1,0,0,0,74,74,9,1,,,,,,,,
,,,,,,,,,,,,,FF,,,,,,,,1.2494,,,,,,,,,,,,,,,,,,,,,,60ff762e5239a014eead0c1f,61036ed3e443c3e9aeab20d2,2021-07-29_22h18.39.033,Simcolourproject_2stim_asymm_v5,2020.2.10,MacIntel,60,61025ae37ef11b136ea224fe,,,,,,,,,3690,-30.1328125,-45.77734375,1,0,0,response5disk,,3,-16.71875,-3.8828125,1,0,0,rectangle,-16.71875,-3.8828125,1,0,0,-16.71875,-3.8828125,1,0,0,0,75,75,95,1,,,,,,,,
,,,,,,,,,,,,,FF,,,,,,,,0.9173,,,,,,,,,,,,,,,,,,,,,,60ff762e5239a014eead0c1f,61036ed3e443c3e9aeab20d2,2021-07-29_22h18.39.033,Simcolourproject_2stim_asymm_v5,2020.2.10,MacIntel,60,61025ae37ef11b136ea224fe,,,,,,,,,3481,58.75,-59.0546875,1,0,0,response3disk,,4,22.17578125,-8.734375,1,0,0,rectangle,-80.36328125,-37.390625,1,0,0,-6.453125,-1.6796875,1,0,0,0,76,76,7,1,,response5disk_3,TRUE,2,2,"[275,30,31,170,37,161,193,273,39,158,140,147,77,40,284,11,218,37,167,238]",2.0673,rectangle
,,,,,,,,,,,,,FF,,,,,,,,1.3894,,,,,,,,,,,,,,,,,,,,,,60ff762e5239a014eead0c1f,61036ed3e443c3e9aeab20d2,2021-07-29_22h18.39.033,Simcolourproject_2stim_asymm_v5,2020.2.10,MacIntel,60,61025ae37ef11b136ea224fe,,,,,,,,,2249,16.96484375,-38.98046875,1,0,0,response3disk,,4,1.39453125,-8.75,1,0,0,rectangle,1.39453125,-8.75,1,0,0,1.39453125,-8.75,1,0,0,0,77,77,127,1,,,,,,,,
,,,,,,,,,,,,,FF,,,,,,,,1.2638,,,,,,,,,,,,,,,,,,,,,,60ff762e5239a014eead0c1f,61036ed3e443c3e9aeab20d2,2021-07-29_22h18.39.033,Simcolourproject_2stim_asymm_v5,2020.2.10,MacIntel,60,61025ae37ef11b136ea224fe,,,,,,,,,3248,-38.375,-70.265625,1,0,0,response5disk,,3,-15.890625,-0.80859375,1,0,0,rectangle,-15.890625,-0.80859375,1,0,0,-15.890625,-0.80859375,1,0,0,0,78,78,49,1,,,,,,,,
,,,,,,,,,,,,,FF,,,,,,,,0.7173,,,,,,,,,,,,,,,,,,,,,,60ff762e5239a014eead0c1f,61036ed3e443c3e9aeab20d2,2021-07-29_22h18.39.033,Simcolourproject_2stim_asymm_v5,2020.2.10,MacIntel,60,61025ae37ef11b136ea224fe,,,,,,,,,2086,-31.3359375,-43.51171875,1,0,0,response5disk,,3,-18.23046875,9.8203125,1,0,0,rectangle,-18.23046875,9.8203125,1,0,0,-18.23046875,9.8203125,1,0,0,0,79,79,33,1,,,,,,,,
,,,,,,,,,,,,,FF,,,,,,,,1.2348,,,,,,,,,,,,,,,,,,,,,,60ff762e5239a014eead0c1f,61036ed3e443c3e9aeab20d2,2021-07-29_22h18.39.033,Simcolourproject_2stim_asymm_v5,2020.2.10,MacIntel,60,61025ae37ef11b136ea224fe,,,,,,,,,1794,27.9375,-42.64453125,1,0,0,response3disk,,4,19.41796875,-4.0859375,1,0,0,rectangle,19.41796875,-4.0859375,1,0,0,19.41796875,-4.0859375,1,0,0,0,80,80,143,1,,,,,,,,
,,,,,,,,,,,,,FF,,,,,,,,1.2167,,,,,,,,,,,,,,,,,,,,,,60ff762e5239a014eead0c1f,61036ed3e443c3e9aeab20d2,2021-07-29_22h18.39.033,Simcolourproject_2stim_asymm_v5,2020.2.10,MacIntel,60,61025ae37ef11b136ea224fe,,,,,,,,,681,64.41796875,-20.89453125,1,0,0,response3disk,,5,23.6328125,-2.203125,1,0,0,rectangle,23.6328125,-2.203125,1,0,0,23.6328125,-2.203125,1,0,0,0,81,81,65,1,,,,,,,,
,,,,,,,,,,,,,FF,,,,,,,,1.5168,,,,,,,,,,,,,,,,,,,,,,60ff762e5239a014eead0c1f,61036ed3e443c3e9aeab20d2,2021-07-29_22h18.39.033,Simcolourproject_2stim_asymm_v5,2020.2.10,MacIntel,60,61025ae37ef11b136ea224fe,,,,,,,,,3004,28.50390625,-66.2734375,1,0,0,response3disk,,4,-0.75,-3.79296875,1,0,0,rectangle,-0.75,-3.79296875,1,0,0,-0.75,-3.79296875,1,0,0,0,82,82,53,1,,,,,,,,
,,,,,,,,,,,,,FF,,,,,,,,1.2346,,,,,,,,,,,,,,,,,,,,,,60ff762e5239a014eead0c1f,61036ed3e443c3e9aeab20d2,2021-07-29_22h18.39.033,Simcolourproject_2stim_asymm_v5,2020.2.10,MacIntel,60,61025ae37ef11b136ea224fe,,,,,,,,,2339,71.1796875,34.625,1,0,0,response1disk,,6,23.14453125,3.65625,1,0,0,rectangle,23.14453125,3.65625,1,0,0,23.14453125,3.65625,1,0,0,0,83,83,77,1,,,,,,,,
,,,,,,,,,,,,,FF,,,,,,,,1.0829,,,,,,,,,,,,,,,,,,,,,,60ff762e5239a014eead0c1f,61036ed3e443c3e9aeab20d2,2021-07-29_22h18.39.033,Simcolourproject_2stim_asymm_v5,2020.2.10,MacIntel,60,61025ae37ef11b136ea224fe,,,,,,,,,2135,66.203125,28.2734375,1,0,0,response1disk,,6,15.015625,10.9453125,1,0,0,rectangle,15.015625,10.9453125,1,0,0,15.015625,10.9453125,1,0,0,0,84,84,144,1,,,,,,,,
,,,,,,,,,,,,,FF,,,,,,,,0.6018,,,,,,,,,,,,,,,,,,,,,,60ff762e5239a014eead0c1f,61036ed3e443c3e9aeab20d2,2021-07-29_22h18.39.033,Simcolourproject_2stim_asymm_v5,2020.2.10,MacIntel,60,61025ae37ef11b136ea224fe,,,,,,,,,2918,60.51171875,38.12109375,1,0,0,response1disk,,6,8.70703125,9.45703125,1,0,0,rectangle,8.70703125,9.45703125,1,0,0,8.70703125,9.45703125,1,0,0,0,85,85,92,1,,,,,,,,
,,,,,,,,,,,,,FF,,,,,,,,1.2675,,,,,,,,,,,,,,,,,,,,,,60ff762e5239a014eead0c1f,61036ed3e443c3e9aeab20d2,2021-07-29_22h18.39.033,Simcolourproject_2stim_asymm_v5,2020.2.10,MacIntel,60,61025ae37ef11b136ea224fe,,,,,,,,,1921,66.10546875,17.4609375,1,0,0,response1disk,,6,8.2109375,8.7421875,1,0,0,rectangle,8.2109375,8.7421875,1,0,0,8.2109375,8.7421875,1,0,0,0,86,86,37,1,,,,,,,,
,,,,,,,,,,,,,FF,,,,,,,,1.0668,,,,,,,,,,,,,,,,,,,,,,60ff762e5239a014eead0c1f,61036ed3e443c3e9aeab20d2,2021-07-29_22h18.39.033,Simcolourproject_2stim_asymm_v5,2020.2.10,MacIntel,60,61025ae37ef11b136ea224fe,,,,,,,,,626,66.2265625,-37.921875,1,0,0,response3disk,,5,-5.93359375,-7.8203125,1,0,0,rectangle,-5.93359375,-7.8203125,1,0,0,-5.93359375,-7.8203125,1,0,0,0,87,87,94,1,,,,,,,,
,,,,,,,,,,,,,FF,,,,,,,,0.9168,,,,,,,,,,,,,,,,,,,,,,60ff762e5239a014eead0c1f,61036ed3e443c3e9aeab20d2,2021-07-29_22h18.39.033,Simcolourproject_2stim_asymm_v5,2020.2.10,MacIntel,60,61025ae37ef11b136ea224fe,,,,,,,,,1274,-29.609375,-55.8515625,1,0,0,response5disk,,3,-29.609375,2.30078125,1,0,0,rectangle,-29.609375,2.30078125,1,0,0,-29.609375,2.30078125,1,0,0,0,88,88,26,1,,,,,,,,
,,,,,,,,,,,,,FF,,,,,,,,0.8502,,,,,,,,,,,,,,,,,,,,,,60ff762e5239a014eead0c1f,61036ed3e443c3e9aeab20d2,2021-07-29_22h18.39.033,Simcolourproject_2stim_asymm_v5,2020.2.10,MacIntel,60,61025ae37ef11b136ea224fe,,,,,,,,,2377,-25.66796875,-44.78125,1,0,0,response5disk,,3,-18.89453125,-9.890625,1,0,0,rectangle,-18.89453125,-9.890625,1,0,0,-18.89453125,-9.890625,1,0,0,0,89,89,19,1,,,,,,,,
,,,,,,,,,,,,,FF,,,,,,,,0.8005,,,,,,,,,,,,,,,,,,,,,,60ff762e5239a014eead0c1f,61036ed3e443c3e9aeab20d2,2021-07-29_22h18.39.033,Simcolourproject_2stim_asymm_v5,2020.2.10,MacIntel,60,61025ae37ef11b136ea224fe,,,,,,,,,2102,-25.18359375,-60.4921875,1,0,0,response5disk,,3,-14.51171875,-13.41015625,1,0,0,rectangle,-14.51171875,-13.41015625,1,0,0,-14.51171875,-13.41015625,1,0,0,0,90,90,12,1,,,,,,,,
,,,,,,,,,,,,,FF,,,,,,,,1.0996,,,,,,,,,,,,,,,,,,,,,,60ff762e5239a014eead0c1f,61036ed3e443c3e9aeab20d2,2021-07-29_22h18.39.033,Simcolourproject_2stim_asymm_v5,2020.2.10,MacIntel,60,61025ae37ef11b136ea224fe,,,,,,,,,3775,37.8984375,75.640625,1,0,0,response1disk,,7,15.375,6.8203125,1,0,0,rectangle,15.375,6.8203125,1,0,0,15.375,6.8203125,1,0,0,0,91,91,112,1,,,,,,,,
,,,,,,,,,,,,,FF,,,,,,,,0.817,,,,,,,,,,,,,,,,,,,,,,60ff762e5239a014eead0c1f,61036ed3e443c3e9aeab20d2,2021-07-29_22h18.39.033,Simcolourproject_2stim_asymm_v5,2020.2.10,MacIntel,60,61025ae37ef11b136ea224fe,,,,,,,,,1832,-55.390625,-27.79296875,1,0,0,response5disk,,2,-15.12890625,-1,1,0,0,rectangle,-15.12890625,-1,1,0,0,-15.12890625,-1,1,0,0,0,92,92,81,1,,,,,,,,
,,,,,,,,,,,,,FF,,,,,,,,1.9698,,,,,,,,,,,,,,,,,,,,,,60ff762e5239a014eead0c1f,61036ed3e443c3e9aeab20d2,2021-07-29_22h18.39.033,Simcolourproject_2stim_asymm_v5,2020.2.10,MacIntel,60,61025ae37ef11b136ea224fe,,,,,,,,,173,34.2109375,-18.015625,1,0,0,response3disk,,5,-8.12109375,3.88671875,1,0,0,rectangle,-8.12109375,3.88671875,1,0,0,-8.12109375,3.88671875,1,0,0,0,93,93,154,1,,,,,,,,
,,,,,,,,,,,,,FF,,,,,,,,1.3345,,,,,,,,,,,,,,,,,,,,,,60ff762e5239a014eead0c1f,61036ed3e443c3e9aeab20d2,2021-07-29_22h18.39.033,Simcolourproject_2stim_asymm_v5,2020.2.10,MacIntel,60,61025ae37ef11b136ea224fe,,,,,,,,,1010,76.28515625,58.52734375,1,0,0,response1disk,,6,11.84765625,1.55859375,1,0,0,rectangle,11.84765625,1.55859375,1,0,0,11.84765625,1.55859375,1,0,0,0,94,94,61,1,,,,,,,,
,,,,,,,,,,,,,FF,,,,,,,,1.4665,,,,,,,,,,,,,,,,,,,,,,60ff762e5239a014eead0c1f,61036ed3e443c3e9aeab20d2,2021-07-29_22h18.39.033,Simcolourproject_2stim_asymm_v5,2020.2.10,MacIntel,60,61025ae37ef11b136ea224fe,,,,,,,,,2079,72.828125,19.27734375,1,0,0,response1disk,,6,23.171875,-0.66796875,1,0,0,rectangle,23.171875,-0.66796875,1,0,0,23.171875,-0.66796875,1,0,0,0,95,95,70,1,,,,,,,,
,,,,,,,,,,,,,FF,,,,,,,,1.0177,,,,,,,,,,,,,,,,,,,,,,60ff762e5239a014eead0c1f,61036ed3e443c3e9aeab20d2,2021-07-29_22h18.39.033,Simcolourproject_2stim_asymm_v5,2020.2.10,MacIntel,60,61025ae37ef11b136ea224fe,,,,,,,,,3024,59.40625,26.0234375,1,0,0,response1disk,,6,18.671875,2.56640625,1,0,0,rectangle,18.671875,2.56640625,1,0,0,18.671875,2.56640625,1,0,0,0,96,96,87,1,,,,,,,,
,,,,,,,,,,,,,FF,,,,,,,,3.2685,,,,,,,,,,,,,,,,,,,,,,60ff762e5239a014eead0c1f,61036ed3e443c3e9aeab20d2,2021-07-29_22h18.39.033,Simcolourproject_2stim_asymm_v5,2020.2.10,MacIntel,60,61025ae37ef11b136ea224fe,,,,,,,,,139,87.9765625,34.69140625,1,0,0,response1disk,,6,25.9921875,0.953125,1,0,0,rectangle,25.9921875,0.953125,1,0,0,25.9921875,0.953125,1,0,0,0,97,97,106,1,,,,,,,,
,,,,,,,,,,,,,FF,,,,,,,,1.2836,,,,,,,,,,,,,,,,,,,,,,60ff762e5239a014eead0c1f,61036ed3e443c3e9aeab20d2,2021-07-29_22h18.39.033,Simcolourproject_2stim_asymm_v5,2020.2.10,MacIntel,60,61025ae37ef11b136ea224fe,,,,,,,,,682,31.71875,23.93359375,1,0,0,response1disk,,6,4.953125,7.3828125,1,0,0,rectangle,4.953125,7.3828125,1,0,0,4.953125,7.3828125,1,0,0,0,98,98,89,1,,,,,,,,
,,,,,,,,,,,,,FF,,,,,,,,1.2832,,,,,,,,,,,,,,,,,,,,,,60ff762e5239a014eead0c1f,61036ed3e443c3e9aeab20d2,2021-07-29_22h18.39.033,Simcolourproject_2stim_asymm_v5,2020.2.10,MacIntel,60,61025ae37ef11b136ea224fe,,,,,,,,,4077,43.21484375,-28.37109375,1,0,0,response3disk,,5,-1.44921875,-7.53125,1,0,0,rectangle,-1.44921875,-7.53125,1,0,0,-1.44921875,-7.53125,1,0,0,0,99,99,141,1,,,,,,,,
,,,,,,,,,,,,,FF,,,,,,,,0.8499,,,,,,,,,,,,,,,,,,,,,,60ff762e5239a014eead0c1f,61036ed3e443c3e9aeab20d2,2021-07-29_22h18.39.033,Simcolourproject_2stim_asymm_v5,2020.2.10,MacIntel,60,61025ae37ef11b136ea224fe,,,,,,,,,1198,61.93359375,28.13671875,1,0,0,response1disk,,6,21.3125,-4.69140625,1,0,0,rectangle,21.3125,-4.69140625,1,0,0,21.3125,-4.69140625,1,0,0,0,100,100,123,1,,,,,,,,
,,,,,,,,,,,,,FF,,,,,,,,1.2503,,,,,,,,,,,,,,,,,,,,,,60ff762e5239a014eead0c1f,61036ed3e443c3e9aeab20d2,2021-07-29_22h18.39.033,Simcolourproject_2stim_asymm_v5,2020.2.10,MacIntel,60,61025ae37ef11b136ea224fe,,,,,,,,,125,28.5078125,-25.38671875,1,0,0,response3disk,,5,2.4765625,-1.11328125,1,0,0,rectangle,2.4765625,-1.11328125,1,0,0,2.4765625,-1.11328125,1,0,0,0,101,101,18,1,,,,,,,,
,,,,,,,,,,,,,FF,,,,,,,,0.9519,,,,,,,,,,,,,,,,,,,,,,60ff762e5239a014eead0c1f,61036ed3e443c3e9aeab20d2,2021-07-29_22h18.39.033,Simcolourproject_2stim_asymm_v5,2020.2.10,MacIntel,60,61025ae37ef11b136ea224fe,,,,,,,,,671,41.4375,69.37109375,1,0,0,response1disk,,7,20.74609375,9.19140625,1,0,0,rectangle,20.74609375,9.19140625,1,0,0,20.74609375,9.19140625,1,0,0,0,102,102,142,1,,,,,,,,
,,,,,,,,,,,,,FF,,,,,,,,0.7317,,,,,,,,,,,,,,,,,,,,,,60ff762e5239a014eead0c1f,61036ed3e443c3e9aeab20d2,2021-07-29_22h18.39.033,Simcolourproject_2stim_asymm_v5,2020.2.10,MacIntel,60,61025ae37ef11b136ea224fe,,,,,,,,,3459,20.74609375,67.859375,1,0,0,response1disk,,7,7.53515625,9.07421875,1,0,0,rectangle,7.53515625,9.07421875,1,0,0,7.53515625,9.07421875,1,0,0,0,103,103,152,1,,,,,,,,
,,,,,,,,,,,,,FF,,,,,,,,1.3493,,,,,,,,,,,,,,,,,,,,,,60ff762e5239a014eead0c1f,61036ed3e443c3e9aeab20d2,2021-07-29_22h18.39.033,Simcolourproject_2stim_asymm_v5,2020.2.10,MacIntel,60,61025ae37ef11b136ea224fe,,,,,,,,,2773,26.12890625,-39.51953125,1,0,0,response3disk,,4,4.70703125,-1.78515625,1,0,0,rectangle,4.70703125,-1.78515625,1,0,0,4.70703125,-1.78515625,1,0,0,0,104,104,5,1,,,,,,,,
,,,,,,,,,,,,,FF,,,,,,,,0.9003,,,,,,,,,,,,,,,,,,,,,,60ff762e5239a014eead0c1f,61036ed3e443c3e9aeab20d2,2021-07-29_22h18.39.033,Simcolourproject_2stim_asymm_v5,2020.2.10,MacIntel,60,61025ae37ef11b136ea224fe,,,,,,,,,3096,-62.33984375,32.10546875,1,0,0,response7disk,,1,-11.984375,10.41796875,1,0,0,rectangle,-11.984375,10.41796875,1,0,0,-11.984375,10.41796875,1,0,0,0,105,105,71,1,,,,,,,,
,,,,,,,,,,,,,FF,,,,,,,,0.833,,,,,,,,,,,,,,,,,,,,,,60ff762e5239a014eead0c1f,61036ed3e443c3e9aeab20d2,2021-07-29_22h18.39.033,Simcolourproject_2stim_asymm_v5,2020.2.10,MacIntel,60,61025ae37ef11b136ea224fe,,,,,,,,,341,58.08203125,35.26953125,1,0,0,response1disk,,6,13.64453125,13.140625,1,0,0,rectangle,13.64453125,13.140625,1,0,0,13.64453125,13.140625,1,0,0,0,106,106,97,1,,,,,,,,
,,,,,,,,,,,,,FF,,,,,,,,1.2163,,,,,,,,,,,,,,,,,,,,,,60ff762e5239a014eead0c1f,61036ed3e443c3e9aeab20d2,2021-07-29_22h18.39.033,Simcolourproject_2stim_asymm_v5,2020.2.10,MacIntel,60,61025ae37ef11b136ea224fe,,,,,,,,,3271,63.89453125,32.7421875,1,0,0,response1disk,,6,28.36328125,3.015625,1,0,0,rectangle,28.36328125,3.015625,1,0,0,28.36328125,3.015625,1,0,0,0,107,107,126,1,,,,,,,,
,,,,,,,,,,,,,FF,,,,,,,,1.7339,,,,,,,,,,,,,,,,,,,,,,60ff762e5239a014eead0c1f,61036ed3e443c3e9aeab20d2,2021-07-29_22h18.39.033,Simcolourproject_2stim_asymm_v5,2020.2.10,MacIntel,60,61025ae37ef11b136ea224fe,,,,,,,,,670,40.53125,-43.05859375,1,0,0,response3disk,,4,14.1328125,-5.3828125,1,0,0,rectangle,14.1328125,-5.3828125,1,0,0,14.1328125,-5.3828125,1,0,0,0,108,108,45,1,,,,,,,,
,,,,,,,,,,,,,FF,,,,,,,,1.2342,,,,,,,,,,,,,,,,,,,,,,60ff762e5239a014eead0c1f,61036ed3e443c3e9aeab20d2,2021-07-29_22h18.39.033,Simcolourproject_2stim_asymm_v5,2020.2.10,MacIntel,60,61025ae37ef11b136ea224fe,,,,,,,,,3403,60.45703125,-26.515625,1,0,0,response3disk,,5,13.87109375,-6.49609375,1,0,0,rectangle,13.87109375,-6.49609375,1,0,0,13.87109375,-6.49609375,1,0,0,0,109,109,93,1,,,,,,,,
,,,,,,,,,,,,,FF,,,,,,,,1.4848,,,,,,,,,,,,,,,,,,,,,,60ff762e5239a014eead0c1f,61036ed3e443c3e9aeab20d2,2021-07-29_22h18.39.033,Simcolourproject_2stim_asymm_v5,2020.2.10,MacIntel,60,61025ae37ef11b136ea224fe,,,,,,,,,153,49.4453125,-24.51953125,1,0,0,response3disk,,5,7.16015625,-8.08984375,1,0,0,rectangle,7.16015625,-8.08984375,1,0,0,7.16015625,-8.08984375,1,0,0,0,110,110,66,1,,,,,,,,
,,,,,,,,,,,,,FF,,,,,,,,0.9321,,,,,,,,,,,,,,,,,,,,,,60ff762e5239a014eead0c1f,61036ed3e443c3e9aeab20d2,2021-07-29_22h18.39.033,Simcolourproject_2stim_asymm_v5,2020.2.10,MacIntel,60,61025ae37ef11b136ea224fe,,,,,,,,,4333,48.265625,88.875,1,0,0,response1disk,,7,19.78125,-2.640625,1,0,0,rectangle,19.78125,-2.640625,1,0,0,19.78125,-2.640625,1,0,0,0,111,111,46,1,,,,,,,,
,,,,,,,,,,,,,FF,,,,,,,,1.0353,,,,,,,,,,,,,,,,,,,,,,60ff762e5239a014eead0c1f,61036ed3e443c3e9aeab20d2,2021-07-29_22h18.39.033,Simcolourproject_2stim_asymm_v5,2020.2.10,MacIntel,60,61025ae37ef11b136ea224fe,,,,,,,,,2897,81.23046875,-23.8828125,1,0,0,response3disk,,5,16.19921875,-5.54296875,1,0,0,rectangle,16.19921875,-5.54296875,1,0,0,16.19921875,-5.54296875,1,0,0,0,112,112,28,1,,,,,,,,
,,,,,,,,,,,,,FF,,,,,,,,1.0505,,,,,,,,,,,,,,,,,,,,,,60ff762e5239a014eead0c1f,61036ed3e443c3e9aeab20d2,2021-07-29_22h18.39.033,Simcolourproject_2stim_asymm_v5,2020.2.10,MacIntel,60,61025ae37ef11b136ea224fe,,,,,,,,,521,-37.640625,-57.29296875,1,0,0,response5disk,,3,-4.6015625,-6.98828125,1,0,0,rectangle,-4.6015625,-6.98828125,1,0,0,-4.6015625,-6.98828125,1,0,0,0,113,113,54,1,,,,,,,,
,,,,,,,,,,,,,FF,,,,,,,,1.0493,,,,,,,,,,,,,,,,,,,,,,60ff762e5239a014eead0c1f,61036ed3e443c3e9aeab20d2,2021-07-29_22h18.39.033,Simcolourproject_2stim_asymm_v5,2020.2.10,MacIntel,60,61025ae37ef11b136ea224fe,,,,,,,,,416,48.24609375,-28.96875,1,0,0,response3disk,,5,13.29296875,-10.3671875,1,0,0,rectangle,13.29296875,-10.3671875,1,0,0,13.29296875,-10.3671875,1,0,0,0,114,114,110,1,,,,,,,,
,,,,,,,,,,,,,FF,,,,,,,,3.0505,,,,,,,,,,,,,,,,,,,,,,60ff762e5239a014eead0c1f,61036ed3e443c3e9aeab20d2,2021-07-29_22h18.39.033,Simcolourproject_2stim_asymm_v5,2020.2.10,MacIntel,60,61025ae37ef11b136ea224fe,,,,,,,,,519,65.16015625,-26.859375,1,0,0,response3disk,,5,23.80078125,-9.48046875,1,0,0,rectangle,23.80078125,-9.48046875,1,0,0,23.80078125,-9.48046875,1,0,0,0,115,115,63,1,,,,,,,,
,,,,,,,,,,,,,FF,,,,,,,,1.0869,,,,,,,,,,,,,,,,,,,,,,60ff762e5239a014eead0c1f,61036ed3e443c3e9aeab20d2,2021-07-29_22h18.39.033,Simcolourproject_2stim_asymm_v5,2020.2.10,MacIntel,60,61025ae37ef11b136ea224fe,,,,,,,,,4369,-66.43359375,50.453125,1,0,0,response7disk,,1,-1.64453125,-11.69140625,1,0,0,rectangle,-1.64453125,-11.69140625,1,0,0,-1.64453125,-11.69140625,1,0,0,0,116,116,13,1,,,,,,,,
,,,,,,,,,,,,,FF,,,,,,,,1.3496,,,,,,,,,,,,,,,,,,,,,,60ff762e5239a014eead0c1f,61036ed3e443c3e9aeab20d2,2021-07-29_22h18.39.033,Simcolourproject_2stim_asymm_v5,2020.2.10,MacIntel,60,61025ae37ef11b136ea224fe,,,,,,,,,4069,-48.6015625,27.16015625,1,0,0,response7disk,,1,0.10546875,5.828125,1,0,0,rectangle,0.10546875,5.828125,1,0,0,0.10546875,5.828125,1,0,0,0,117,117,149,1,,,,,,,,
,,,,,,,,,,,,,FF,,,,,,,,0.9662,,,,,,,,,,,,,,,,,,,,,,60ff762e5239a014eead0c1f,61036ed3e443c3e9aeab20d2,2021-07-29_22h18.39.033,Simcolourproject_2stim_asymm_v5,2020.2.10,MacIntel,60,61025ae37ef11b136ea224fe,,,,,,,,,900,-47.16015625,-51.2734375,1,0,0,response5disk,,3,-14.62109375,-7.890625,1,0,0,rectangle,-14.62109375,-7.890625,1,0,0,-14.62109375,-7.890625,1,0,0,0,118,118,42,1,,,,,,,,
,,,,,,,,,,,,,FF,,,,,,,,0.884,,,,,,,,,,,,,,,,,,,,,,60ff762e5239a014eead0c1f,61036ed3e443c3e9aeab20d2,2021-07-29_22h18.39.033,Simcolourproject_2stim_asymm_v5,2020.2.10,MacIntel,60,61025ae37ef11b136ea224fe,,,,,,,,,154,37.7890625,58.69140625,1,0,0,response1disk,,7,24.07421875,-3.33984375,1,0,0,rectangle,24.07421875,-3.33984375,1,0,0,24.07421875,-3.33984375,1,0,0,0,119,119,121,1,,,,,,,,
,,,,,,,,,,,,,FF,,,,,,,,0.8334,,,,,,,,,,,,,,,,,,,,,,60ff762e5239a014eead0c1f,61036ed3e443c3e9aeab20d2,2021-07-29_22h18.39.033,Simcolourproject_2stim_asymm_v5,2020.2.10,MacIntel,60,61025ae37ef11b136ea224fe,,,,,,,,,3949,-32.19921875,-63.73828125,1,0,0,response5disk,,3,-10.16796875,-3.41796875,1,0,0,rectangle,-10.16796875,-3.41796875,1,0,0,-10.16796875,-3.41796875,1,0,0,0,120,120,16,1,,,,,,,,
,,,,,,,,,,,,,FF,,,,,,,,0.7512,,,,,,,,,,,,,,,,,,,,,,60ff762e5239a014eead0c1f,61036ed3e443c3e9aeab20d2,2021-07-29_22h18.39.033,Simcolourproject_2stim_asymm_v5,2020.2.10,MacIntel,60,61025ae37ef11b136ea224fe,,,,,,,,,1951,-43.61328125,-27.68359375,1,0,0,response5disk,,2,-15.80859375,3.55078125,1,0,0,rectangle,-15.80859375,3.55078125,1,0,0,-15.80859375,3.55078125,1,0,0,0,121,121,128,1,,,,,,,,
,,,,,,,,,,,,,FF,,,,,,,,1.9006,,,,,,,,,,,,,,,,,,,,,,60ff762e5239a014eead0c1f,61036ed3e443c3e9aeab20d2,2021-07-29_22h18.39.033,Simcolourproject_2stim_asymm_v5,2020.2.10,MacIntel,60,61025ae37ef11b136ea224fe,,,,,,,,,1202,-31.94921875,-100.0859375,1,0,0,response5disk,,3,-9.62109375,-14.63671875,1,0,0,rectangle,-9.62109375,-14.63671875,1,0,0,-9.62109375,-14.63671875,1,0,0,0,122,122,79,1,,,,,,,,
,,,,,,,,,,,,,FF,,,,,,,,0.751,,,,,,,,,,,,,,,,,,,,,,60ff762e5239a014eead0c1f,61036ed3e443c3e9aeab20d2,2021-07-29_22h18.39.033,Simcolourproject_2stim_asymm_v5,2020.2.10,MacIntel,60,61025ae37ef11b136ea224fe,,,,,,,,,719,-50.2734375,-28.890625,1,0,0,response5disk,,2,-15.4921875,1.78125,1,0,0,rectangle,-15.4921875,1.78125,1,0,0,-15.4921875,1.78125,1,0,0,0,123,123,55,1,,,,,,,,
,,,,,,,,,,,,,FF,,,,,,,,1.268,,,,,,,,,,,,,,,,,,,,,,60ff762e5239a014eead0c1f,61036ed3e443c3e9aeab20d2,2021-07-29_22h18.39.033,Simcolourproject_2stim_asymm_v5,2020.2.10,MacIntel,60,61025ae37ef11b136ea224fe,,,,,,,,,1380,-49.4609375,-58.5546875,1,0,0,response5disk,,3,-20.875,-4.4140625,1,0,0,rectangle,-20.875,-4.4140625,1,0,0,-20.875,-4.4140625,1,0,0,0,124,124,3,1,,,,,,,,
,,,,,,,,,,,,,FF,,,,,,,,0.6214,,,,,,,,,,,,,,,,,,,,,,60ff762e5239a014eead0c1f,61036ed3e443c3e9aeab20d2,2021-07-29_22h18.39.033,Simcolourproject_2stim_asymm_v5,2020.2.10,MacIntel,60,61025ae37ef11b136ea224fe,,,,,,,,,3335,22.9375,88.5703125,1,0,0,response1disk,,7,-3.265625,-4.2109375,1,0,0,rectangle,-3.265625,-4.2109375,1,0,0,-3.265625,-4.2109375,1,0,0,0,125,125,44,1,,,,,,,,
,,,,,,,,,,,,,FF,,,,,,,,1.2672,,,,,,,,,,,,,,,,,,,,,,60ff762e5239a014eead0c1f,61036ed3e443c3e9aeab20d2,2021-07-29_22h18.39.033,Simcolourproject_2stim_asymm_v5,2020.2.10,MacIntel,60,61025ae37ef11b136ea224fe,,,,,,,,,2952,-32.98046875,-53.9375,1,0,0,response5disk,,3,-6.84375,-4.671875,1,0,0,rectangle,-6.84375,-4.671875,1,0,0,-6.84375,-4.671875,1,0,0,0,126,126,159,1,,,,,,,,
,,,,,,,,,,,,,FF,,,,,,,,0.6505,,,,,,,,,,,,,,,,,,,,,,60ff762e5239a014eead0c1f,61036ed3e443c3e9aeab20d2,2021-07-29_22h18.39.033,Simcolourproject_2stim_asymm_v5,2020.2.10,MacIntel,60,61025ae37ef11b136ea224fe,,,,,,,,,2300,-56.85546875,-24.47265625,1,0,0,response5disk,,2,-7.6953125,-2.9375,1,0,0,rectangle,-7.6953125,-2.9375,1,0,0,-7.6953125,-2.9375,1,0,0,0,127,127,136,1,,,,,,,,
,,,,,,,,,,,,,FF,,,,,,,,1.8527,,,,,,,,,,,,,,,,,,,,,,60ff762e5239a014eead0c1f,61036ed3e443c3e9aeab20d2,2021-07-29_22h18.39.033,Simcolourproject_2stim_asymm_v5,2020.2.10,MacIntel,60,61025ae37ef11b136ea224fe,,,,,,,,,2459,33.4609375,-76.0234375,1,0,0,response3disk,,4,11.21484375,-12.3125,1,0,0,rectangle,11.21484375,-12.3125,1,0,0,11.21484375,-12.3125,1,0,0,0,128,128,135,1,,,,,,,,
,,,,,,,,,,,,,FF,,,,,,,,0.8667,,,,,,,,,,,,,,,,,,,,,,60ff762e5239a014eead0c1f,61036ed3e443c3e9aeab20d2,2021-07-29_22h18.39.033,Simcolourproject_2stim_asymm_v5,2020.2.10,MacIntel,60,61025ae37ef11b136ea224fe,,,,,,,,,3832,62.72265625,25.40625,1,0,0,response1disk,,6,18.2421875,2.76171875,1,0,0,rectangle,18.2421875,2.76171875,1,0,0,18.2421875,2.76171875,1,0,0,0,129,129,58,1,,,,,,,,
,,,,,,,,,,,,,FF,,,,,,,,0.7672,,,,,,,,,,,,,,,,,,,,,,60ff762e5239a014eead0c1f,61036ed3e443c3e9aeab20d2,2021-07-29_22h18.39.033,Simcolourproject_2stim_asymm_v5,2020.2.10,MacIntel,60,61025ae37ef11b136ea224fe,,,,,,,,,3245,-66.51171875,26,1,0,0,response7disk,,1,6.203125,-10.2109375,1,0,0,rectangle,6.203125,-10.2109375,1,0,0,6.203125,-10.2109375,1,0,0,0,130,130,148,1,,,,,,,,
,,,,,,,,,,,,,FF,,,,,,,,1.8343,,,,,,,,,,,,,,,,,,,,,,60ff762e5239a014eead0c1f,61036ed3e443c3e9aeab20d2,2021-07-29_22h18.39.033,Simcolourproject_2stim_asymm_v5,2020.2.10,MacIntel,60,61025ae37ef11b136ea224fe,,,,,,,,,4232,65.515625,26.2109375,1,0,0,response1disk,,6,7.34375,-3.04296875,1,0,0,rectangle,7.34375,-3.04296875,1,0,0,7.34375,-3.04296875,1,0,0,0,131,131,101,1,,,,,,,,
,,,,,,,,,,,,,FF,,,,,,,,1.2018,,,,,,,,,,,,,,,,,,,,,,60ff762e5239a014eead0c1f,61036ed3e443c3e9aeab20d2,2021-07-29_22h18.39.033,Simcolourproject_2stim_asymm_v5,2020.2.10,MacIntel,60,61025ae37ef11b136ea224fe,,,,,,,,,4003,24.36328125,-58.62890625,1,0,0,response3disk,,4,7.0390625,-6.12890625,1,0,0,rectangle,7.0390625,-6.12890625,1,0,0,7.0390625,-6.12890625,1,0,0,0,132,132,155,1,,,,,,,,
,,,,,,,,,,,,,FF,,,,,,,,1.7186,,,,,,,,,,,,,,,,,,,,,,60ff762e5239a014eead0c1f,61036ed3e443c3e9aeab20d2,2021-07-29_22h18.39.033,Simcolourproject_2stim_asymm_v5,2020.2.10,MacIntel,60,61025ae37ef11b136ea224fe,,,,,,,,,2961,77.171875,20.921875,1,0,0,response1disk,,6,22.7734375,1.6953125,1,0,0,rectangle,22.7734375,1.6953125,1,0,0,22.7734375,1.6953125,1,0,0,0,133,133,41,1,,,,,,,,
,,,,,,,,,,,,,FF,,,,,,,,1.3856,,,,,,,,,,,,,,,,,,,,,,60ff762e5239a014eead0c1f,61036ed3e443c3e9aeab20d2,2021-07-29_22h18.39.033,Simcolourproject_2stim_asymm_v5,2020.2.10,MacIntel,60,61025ae37ef11b136ea224fe,,,,,,,,,304,26.13671875,-76.2265625,1,0,0,response3disk,,4,7.49609375,-11.4609375,1,0,0,rectangle,7.49609375,-11.4609375,1,0,0,7.49609375,-11.4609375,1,0,0,0,134,134,107,1,,,,,,,,
,,,,,,,,,,,,,FF,,,,,,,,1.134,,,,,,,,,,,,,,,,,,,,,,60ff762e5239a014eead0c1f,61036ed3e443c3e9aeab20d2,2021-07-29_22h18.39.033,Simcolourproject_2stim_asymm_v5,2020.2.10,MacIntel,60,61025ae37ef11b136ea224fe,,,,,,,,,3572,35.42578125,-58.08984375,1,0,0,response3disk,,4,16.73828125,-5.16796875,1,0,0,rectangle,16.73828125,-5.16796875,1,0,0,16.73828125,-5.16796875,1,0,0,0,135,135,114,1,,,,,,,,
,,,,,,,,,,,,,FF,,,,,,,,0.9344,,,,,,,,,,,,,,,,,,,,,,60ff762e5239a014eead0c1f,61036ed3e443c3e9aeab20d2,2021-07-29_22h18.39.033,Simcolourproject_2stim_asymm_v5,2020.2.10,MacIntel,60,61025ae37ef11b136ea224fe,,,,,,,,,1869,86.97265625,29.11328125,1,0,0,response1disk,,6,25.15625,8.1875,1,0,0,rectangle,25.15625,8.1875,1,0,0,25.15625,8.1875,1,0,0,0,136,136,103,1,,,,,,,,
,,,,,,,,,,,,,FF,,,,,,,,0.8495,,,,,,,,,,,,,,,,,,,,,,60ff762e5239a014eead0c1f,61036ed3e443c3e9aeab20d2,2021-07-29_22h18.39.033,Simcolourproject_2stim_asymm_v5,2020.2.10,MacIntel,60,61025ae37ef11b136ea224fe,,,,,,,,,3978,-57.43359375,-34.98828125,1,0,0,response5disk,,2,3.43359375,1.4375,1,0,0,rectangle,3.43359375,1.4375,1,0,0,3.43359375,1.4375,1,0,0,0,137,137,118,1,,,,,,,,
,,,,,,,,,,,,,FF,,,,,,,,0.8504,,,,,,,,,,,,,,,,,,,,,,60ff762e5239a014eead0c1f,61036ed3e443c3e9aeab20d2,2021-07-29_22h18.39.033,Simcolourproject_2stim_asymm_v5,2020.2.10,MacIntel,60,61025ae37ef11b136ea224fe,,,,,,,,,2142,33.6953125,72.3203125,1,0,0,response1disk,,7,16.2734375,2.2109375,1,0,0,rectangle,16.2734375,2.2109375,1,0,0,16.2734375,2.2109375,1,0,0,0,138,138,14,1,,,,,,,,
,,,,,,,,,,,,,FF,,,,,,,,1.1541,,,,,,,,,,,,,,,,,,,,,,60ff762e5239a014eead0c1f,61036ed3e443c3e9aeab20d2,2021-07-29_22h18.39.033,Simcolourproject_2stim_asymm_v5,2020.2.10,MacIntel,60,61025ae37ef11b136ea224fe,,,,,,,,,120,78.2265625,41.0703125,1,0,0,response1disk,,6,14.27734375,11.83984375,1,0,0,rectangle,38.81640625,-83.15234375,1,0,0,11.84375,-6.83203125,1,0,0,0,139,139,24,1,,response3disk_3,TRUE,4,4,"[275,30,31,170,37,161,193,273,39,158,140,147,77,40,284,11,218,37,167,238]",1.9822,rectangle
,,,,,,,,,,,,,FF,,,,,,,,0.917,,,,,,,,,,,,,,,,,,,,,,60ff762e5239a014eead0c1f,61036ed3e443c3e9aeab20d2,2021-07-29_22h18.39.033,Simcolourproject_2stim_asymm_v5,2020.2.10,MacIntel,60,61025ae37ef11b136ea224fe,,,,,,,,,4019,29.078125,77.27734375,1,0,0,response1disk,,7,-1.8515625,1.65234375,1,0,0,rectangle,-1.8515625,1.65234375,1,0,0,-1.8515625,1.65234375,1,0,0,0,140,140,31,1,,,,,,,,
,,,,,,,,,,,,,FF,,,,,,,,1.8513,,,,,,,,,,,,,,,,,,,,,,60ff762e5239a014eead0c1f,61036ed3e443c3e9aeab20d2,2021-07-29_22h18.39.033,Simcolourproject_2stim_asymm_v5,2020.2.10,MacIntel,60,61025ae37ef11b136ea224fe,,,,,,,,,2519,57.22265625,-33.625,1,0,0,response3disk,,5,1,-0.4609375,1,0,0,rectangle,1,-0.4609375,1,0,0,1,-0.4609375,1,0,0,0,141,141,122,1,,,,,,,,
,,,,,,,,,,,,,FF,,,,,,,,0.6507,,,,,,,,,,,,,,,,,,,,,,60ff762e5239a014eead0c1f,61036ed3e443c3e9aeab20d2,2021-07-29_22h18.39.033,Simcolourproject_2stim_asymm_v5,2020.2.10,MacIntel,60,61025ae37ef11b136ea224fe,,,,,,,,,2292,-49.83203125,28.52734375,1,0,0,response7disk,,1,-3.52734375,6.9765625,1,0,0,rectangle,-3.52734375,6.9765625,1,0,0,-3.52734375,6.9765625,1,0,0,0,142,142,32,1,,,,,,,,
,,,,,,,,,,,,,FF,,,,,,,,2.3353,,,,,,,,,,,,,,,,,,,,,,60ff762e5239a014eead0c1f,61036ed3e443c3e9aeab20d2,2021-07-29_22h18.39.033,Simcolourproject_2stim_asymm_v5,2020.2.10,MacIntel,60,61025ae37ef11b136ea224fe,,,,,,,,,985,66.140625,37.3046875,1,0,0,response1disk,,6,16.53515625,-5.11328125,1,0,0,rectangle,16.53515625,-5.11328125,1,0,0,16.53515625,-5.11328125,1,0,0,0,143,143,86,1,,,,,,,,
,,,,,,,,,,,,,FF,,,,,,,,0.9835,,,,,,,,,,,,,,,,,,,,,,60ff762e5239a014eead0c1f,61036ed3e443c3e9aeab20d2,2021-07-29_22h18.39.033,Simcolourproject_2stim_asymm_v5,2020.2.10,MacIntel,60,61025ae37ef11b136ea224fe,,,,,,,,,2795,53.20703125,-31.609375,1,0,0,response3disk,,5,-10.51171875,-10,1,0,0,rectangle,-10.51171875,-10,1,0,0,-10.51171875,-10,1,0,0,0,144,144,91,1,,,,,,,,
,,,,,,,,,,,,,FF,,,,,,,,0.8337,,,,,,,,,,,,,,,,,,,,,,60ff762e5239a014eead0c1f,61036ed3e443c3e9aeab20d2,2021-07-29_22h18.39.033,Simcolourproject_2stim_asymm_v5,2020.2.10,MacIntel,60,61025ae37ef11b136ea224fe,,,,,,,,,2398,19.125,69.609375,1,0,0,response1disk,,7,16.65625,-9.49609375,1,0,0,rectangle,16.65625,-9.49609375,1,0,0,16.65625,-9.49609375,1,0,0,0,145,145,119,1,,,,,,,,
,,,,,,,,,,,,,FF,,,,,,,,0.9831,,,,,,,,,,,,,,,,,,,,,,60ff762e5239a014eead0c1f,61036ed3e443c3e9aeab20d2,2021-07-29_22h18.39.033,Simcolourproject_2stim_asymm_v5,2020.2.10,MacIntel,60,61025ae37ef11b136ea224fe,,,,,,,,,3936,-45.68359375,68.69140625,1,0,0,response7disk,,0,-12.31640625,-5.39453125,1,0,0,rectangle,-24.77734375,-46.34375,1,0,0,-6.25,-2.375,1,0,0,0,146,146,150,1,,response5disk_3,TRUE,3,5,"[275,30,31,170,37,161,193,273,39,158,140,147,77,40,284,11,218,37,167,238]",2.1512,rectangle
,,,,,,,,,,,,,FF,,,,,,,,2.2501,,,,,,,,,,,,,,,,,,,,,,60ff762e5239a014eead0c1f,61036ed3e443c3e9aeab20d2,2021-07-29_22h18.39.033,Simcolourproject_2stim_asymm_v5,2020.2.10,MacIntel,60,61025ae37ef11b136ea224fe,,,,,,,,,3971,56.6328125,-43.546875,1,0,0,response3disk,,5,14.15625,-9.4453125,1,0,0,rectangle,14.15625,-9.4453125,1,0,0,14.15625,-9.4453125,1,0,0,0,147,147,157,1,,,,,,,,
,,,,,,,,,,,,,FF,,,,,,,,0.9499,,,,,,,,,,,,,,,,,,,,,,60ff762e5239a014eead0c1f,61036ed3e443c3e9aeab20d2,2021-07-29_22h18.39.033,Simcolourproject_2stim_asymm_v5,2020.2.10,MacIntel,60,61025ae37ef11b136ea224fe,,,,,,,,,3585,-63.9609375,29.609375,1,0,0,response7disk,,1,-16.48828125,-0.6640625,1,0,0,rectangle,-16.48828125,-0.6640625,1,0,0,-16.48828125,-0.6640625,1,0,0,0,148,148,102,1,,,,,,,,
,,,,,,,,,,,,,FF,,,,,,,,1.0331,,,,,,,,,,,,,,,,,,,,,,60ff762e5239a014eead0c1f,61036ed3e443c3e9aeab20d2,2021-07-29_22h18.39.033,Simcolourproject_2stim_asymm_v5,2020.2.10,MacIntel,60,61025ae37ef11b136ea224fe,,,,,,,,,3145,36.6171875,82.58203125,1,0,0,response1disk,,7,9.76953125,12.2421875,1,0,0,rectangle,9.76953125,12.2421875,1,0,0,9.76953125,12.2421875,1,0,0,0,149,149,68,1,,,,,,,,
,,,,,,,,,,,,,FF,,,,,,,,1.2173,,,,,,,,,,,,,,,,,,,,,,60ff762e5239a014eead0c1f,61036ed3e443c3e9aeab20d2,2021-07-29_22h18.39.033,Simcolourproject_2stim_asymm_v5,2020.2.10,MacIntel,60,61025ae37ef11b136ea224fe,,,,,,,,,411,28.46875,71.5703125,1,0,0,response1disk,,7,9.06640625,4.92578125,1,0,0,rectangle,9.06640625,4.92578125,1,0,0,9.06640625,4.92578125,1,0,0,0,150,150,10,1,,,,,,,,
,,,,,,,,,,,,,FF,,,,,,,,1.8679,,,,,,,,,,,,,,,,,,,,,,60ff762e5239a014eead0c1f,61036ed3e443c3e9aeab20d2,2021-07-29_22h18.39.033,Simcolourproject_2stim_asymm_v5,2020.2.10,MacIntel,60,61025ae37ef11b136ea224fe,,,,,,,,,2878,72.70703125,36.58984375,1,0,0,response1disk,,6,24.56640625,-2.55078125,1,0,0,rectangle,24.56640625,-2.55078125,1,0,0,24.56640625,-2.55078125,1,0,0,0,151,151,145,1,,,,,,,,
,,,,,,,,,,,,,FF,,,,,,,,1.0178,,,,,,,,,,,,,,,,,,,,,,60ff762e5239a014eead0c1f,61036ed3e443c3e9aeab20d2,2021-07-29_22h18.39.033,Simcolourproject_2stim_asymm_v5,2020.2.10,MacIntel,60,61025ae37ef11b136ea224fe,,,,,,,,,3008,73.33203125,51.6953125,1,0,0,response1disk,,6,8.94140625,3.51171875,1,0,0,rectangle,8.94140625,3.51171875,1,0,0,8.94140625,3.51171875,1,0,0,0,152,152,23,1,,,,,,,,
,,,,,,,,,,,,,FF,,,,,,,,1.1347,,,,,,,,,,,,,,,,,,,,,,60ff762e5239a014eead0c1f,61036ed3e443c3e9aeab20d2,2021-07-29_22h18.39.033,Simcolourproject_2stim_asymm_v5,2020.2.10,MacIntel,60,61025ae37ef11b136ea224fe,,,,,,,,,1187,73.39453125,41.8828125,1,0,0,response1disk,,6,3.16796875,7.2890625,1,0,0,rectangle,3.16796875,7.2890625,1,0,0,3.16796875,7.2890625,1,0,0,0,153,153,80,1,,,,,,,,
,,,,,,,,,,,,,FF,,,,,,,,1.8839,,,,,,,,,,,,,,,,,,,,,,60ff762e5239a014eead0c1f,61036ed3e443c3e9aeab20d2,2021-07-29_22h18.39.033,Simcolourproject_2stim_asymm_v5,2020.2.10,MacIntel,60,61025ae37ef11b136ea224fe,,,,,,,,,453,68.9453125,-32.02734375,1,0,0,response3disk,,5,11.90234375,-7.7890625,1,0,0,rectangle,11.90234375,-7.7890625,1,0,0,11.90234375,-7.7890625,1,0,0,0,154,154,67,1,,,,,,,,
,,,,,,,,,,,,,FF,,,,,,,,0.9839,,,,,,,,,,,,,,,,,,,,,,60ff762e5239a014eead0c1f,61036ed3e443c3e9aeab20d2,2021-07-29_22h18.39.033,Simcolourproject_2stim_asymm_v5,2020.2.10,MacIntel,60,61025ae37ef11b136ea224fe,,,,,,,,,2976,69.7421875,27.08984375,1,0,0,response1disk,,6,9.9765625,-7.01171875,1,0,0,rectangle,9.9765625,-7.01171875,1,0,0,9.9765625,-7.01171875,1,0,0,0,155,155,52,1,,,,,,,,
,,,,,,,,,,,,,FF,,,,,,,,1.7,,,,,,,,,,,,,,,,,,,,,,60ff762e5239a014eead0c1f,61036ed3e443c3e9aeab20d2,2021-07-29_22h18.39.033,Simcolourproject_2stim_asymm_v5,2020.2.10,MacIntel,60,61025ae37ef11b136ea224fe,,,,,,,,,3036,-43.80859375,20.73828125,1,0,0,response7disk,,1,4.83984375,-1.46484375,1,0,0,rectangle,4.83984375,-1.46484375,1,0,0,4.83984375,-1.46484375,1,0,0,0,156,156,120,1,,,,,,,,
,,,,,,,,,,,,,FF,,,,,,,,1.5343,,,,,,,,,,,,,,,,,,,,,,60ff762e5239a014eead0c1f,61036ed3e443c3e9aeab20d2,2021-07-29_22h18.39.033,Simcolourproject_2stim_asymm_v5,2020.2.10,MacIntel,60,61025ae37ef11b136ea224fe,,,,,,,,,3535,20.53125,-81.8984375,1,0,0,response3disk,,4,9.40625,-8.55859375,1,0,0,rectangle,-73.40625,47.33984375,1,0,0,-16.76171875,4.63671875,1,0,0,0,157,157,72,1,,response7disk_3,TRUE,1,1,"[275,30,31,170,37,161,193,273,39,158,140,147,77,40,284,11,218,37,167,238]",1.6001,rectangle
,,,,,,,,,,,,,FF,,,,,,,,1.384,,,,,,,,,,,,,,,,,,,,,,60ff762e5239a014eead0c1f,61036ed3e443c3e9aeab20d2,2021-07-29_22h18.39.033,Simcolourproject_2stim_asymm_v5,2020.2.10,MacIntel,60,61025ae37ef11b136ea224fe,,,,,,,,,2553,75.62890625,-26.92578125,1,0,0,response3disk,,5,7.140625,-2.5,1,0,0,rectangle,7.140625,-2.5,1,0,0,7.140625,-2.5,1,0,0,0,158,158,96,1,,,,,,,,
,,,,,,,,,,,,,FF,,,,,,,,1.0169,,,,,,,,,,,,,,,,,,,,,,60ff762e5239a014eead0c1f,61036ed3e443c3e9aeab20d2,2021-07-29_22h18.39.033,Simcolourproject_2stim_asymm_v5,2020.2.10,MacIntel,60,61025ae37ef11b136ea224fe,,,,,,,,,1444,38.07421875,50.1171875,1,0,0,response1disk,,7,8.5625,1.9765625,1,0,0,rectangle,8.5625,1.9765625,1,0,0,8.5625,1.9765625,1,0,0,0,159,159,59,1,,,,,,,,
,,,,,,,,,,,,,FF,,,,,,,,1.5843,,,,,,,,,,,,,,,,,,,,,,60ff762e5239a014eead0c1f,61036ed3e443c3e9aeab20d2,2021-07-29_22h18.39.033,Simcolourproject_2stim_asymm_v5,2020.2.10,MacIntel,60,61025ae37ef11b136ea224fe,,,,,,,,,3764,64.4765625,33.8515625,1,0,0,response1disk,,6,10.7265625,6.69921875,1,0,0,rectangle,89.7734375,44.19921875,1,0,0,18.55078125,5.85546875,1,0,0,1,0,160,126,1,,response1disk_3,TRUE,6,6,"[275,30,31,170,37,161,193,273,39,158,140,147,77,40,284,11,218,37,167,238]",1.5006,rectangle
,,,,,,,,,,,,,FF,,,,,,,,0.7338,,,,,,,,,,,,,,,,,,,,,,60ff762e5239a014eead0c1f,61036ed3e443c3e9aeab20d2,2021-07-29_22h18.39.033,Simcolourproject_2stim_asymm_v5,2020.2.10,MacIntel,60,61025ae37ef11b136ea224fe,,,,,,,,,1009,24.5859375,43.5546875,1,0,0,response1disk,,7,14.4296875,1.65234375,1,0,0,rectangle,14.4296875,1.65234375,1,0,0,14.4296875,1.65234375,1,0,0,1,1,161,104,1,,,,,,,,
,,,,,,,,,,,,,FF,,,,,,,,1.034,,,,,,,,,,,,,,,,,,,,,,60ff762e5239a014eead0c1f,61036ed3e443c3e9aeab20d2,2021-07-29_22h18.39.033,Simcolourproject_2stim_asymm_v5,2020.2.10,MacIntel,60,61025ae37ef11b136ea224fe,,,,,,,,,1775,21.94921875,-52.26953125,1,0,0,response3disk,,4,-1.578125,-9.0625,1,0,0,rectangle,-1.578125,-9.0625,1,0,0,-1.578125,-9.0625,1,0,0,1,2,162,52,1,,,,,,,,
,,,,,,,,,,,,,FF,,,,,,,,1.0172,,,,,,,,,,,,,,,,,,,,,,60ff762e5239a014eead0c1f,61036ed3e443c3e9aeab20d2,2021-07-29_22h18.39.033,Simcolourproject_2stim_asymm_v5,2020.2.10,MacIntel,60,61025ae37ef11b136ea224fe,,,,,,,,,4035,45.40625,-24.07421875,1,0,0,response3disk,,5,9.70703125,-12.9765625,1,0,0,rectangle,9.70703125,-12.9765625,1,0,0,9.70703125,-12.9765625,1,0,0,1,3,163,150,1,,,,,,,,
,,,,,,,,,,,,,FF,,,,,,,,0.8349,,,,,,,,,,,,,,,,,,,,,,60ff762e5239a014eead0c1f,61036ed3e443c3e9aeab20d2,2021-07-29_22h18.39.033,Simcolourproject_2stim_asymm_v5,2020.2.10,MacIntel,60,61025ae37ef11b136ea224fe,,,,,,,,,4276,-34.13671875,-50.0703125,1,0,0,response5disk,,3,-14.45703125,-13.73046875,1,0,0,rectangle,-14.45703125,-13.73046875,1,0,0,-14.45703125,-13.73046875,1,0,0,1,4,164,151,1,,,,,,,,
,,,,,,,,,,,,,FF,,,,,,,,1.0503,,,,,,,,,,,,,,,,,,,,,,60ff762e5239a014eead0c1f,61036ed3e443c3e9aeab20d2,2021-07-29_22h18.39.033,Simcolourproject_2stim_asymm_v5,2020.2.10,MacIntel,60,61025ae37ef11b136ea224fe,,,,,,,,,4108,69.3203125,48.265625,1,0,0,response1disk,,6,6.56640625,-0.14453125,1,0,0,rectangle,6.56640625,-0.14453125,1,0,0,6.56640625,-0.14453125,1,0,0,1,5,165,18,1,,,,,,,,
,,,,,,,,,,,,,FF,,,,,,,,1.383,,,,,,,,,,,,,,,,,,,,,,60ff762e5239a014eead0c1f,61036ed3e443c3e9aeab20d2,2021-07-29_22h18.39.033,Simcolourproject_2stim_asymm_v5,2020.2.10,MacIntel,60,61025ae37ef11b136ea224fe,,,,,,,,,3870,52.2890625,-20.95703125,1,0,0,response3disk,,5,11.66015625,2.12109375,1,0,0,rectangle,-33.08203125,-53.87890625,1,0,0,-4.2421875,0.9609375,1,0,0,1,6,166,50,1,,response5disk_3,TRUE,3,3,"[275,30,31,170,37,161,193,273,39,158,140,147,77,40,284,11,218,37,167,238]",1.6691,rectangle
,,,,,,,,,,,,,FF,,,,,,,,0.8995,,,,,,,,,,,,,,,,,,,,,,60ff762e5239a014eead0c1f,61036ed3e443c3e9aeab20d2,2021-07-29_22h18.39.033,Simcolourproject_2stim_asymm_v5,2020.2.10,MacIntel,60,61025ae37ef11b136ea224fe,,,,,,,,,1116,68.51953125,37.671875,1,0,0,response1disk,,6,6.45703125,5.7109375,1,0,0,rectangle,6.45703125,5.7109375,1,0,0,6.45703125,5.7109375,1,0,0,1,7,167,65,1,,,,,,,,
,,,,,,,,,,,,,FF,,,,,,,,0.7938,,,,,,,,,,,,,,,,,,,,,,60ff762e5239a014eead0c1f,61036ed3e443c3e9aeab20d2,2021-07-29_22h18.39.033,Simcolourproject_2stim_asymm_v5,2020.2.10,MacIntel,60,61025ae37ef11b136ea224fe,,,,,,,,,3922,-48.1875,-18.23046875,1,0,0,response5disk,,2,3.62890625,-12.140625,1,0,0,rectangle,3.62890625,-12.140625,1,0,0,3.62890625,-12.140625,1,0,0,1,8,168,80,1,,,,,,,,
,,,,,,,,,,,,,FF,,,,,,,,0.7848,,,,,,,,,,,,,,,,,,,,,,60ff762e5239a014eead0c1f,61036ed3e443c3e9aeab20d2,2021-07-29_22h18.39.033,Simcolourproject_2stim_asymm_v5,2020.2.10,MacIntel,60,61025ae37ef11b136ea224fe,,,,,,,,,2356,-39.19140625,-30.43359375,1,0,0,response5disk,,2,-8.53515625,-13.62890625,1,0,0,rectangle,25.59765625,-55.9921875,1,0,0,5.91015625,-2.67578125,1,0,0,1,9,169,117,1,,response3disk_3,TRUE,4,4,"[275,30,31,170,37,161,193,273,39,158,140,147,77,40,284,11,218,37,167,238]",1.3678,rectangle
,,,,,,,,,,,,,FF,,,,,,,,0.9688,,,,,,,,,,,,,,,,,,,,,,60ff762e5239a014eead0c1f,61036ed3e443c3e9aeab20d2,2021-07-29_22h18.39.033,Simcolourproject_2stim_asymm_v5,2020.2.10,MacIntel,60,61025ae37ef11b136ea224fe,,,,,,,,,3522,-21.73046875,-44.6640625,1,0,0,response5disk,,3,-7.50390625,-11.2578125,1,0,0,rectangle,-7.50390625,-11.2578125,1,0,0,-7.50390625,-11.2578125,1,0,0,1,10,170,132,1,,,,,,,,
,,,,,,,,,,,,,FF,,,,,,,,0.8501,,,,,,,,,,,,,,,,,,,,,,60ff762e5239a014eead0c1f,61036ed3e443c3e9aeab20d2,2021-07-29_22h18.39.033,Simcolourproject_2stim_asymm_v5,2020.2.10,MacIntel,60,61025ae37ef11b136ea224fe,,,,,,,,,3065,66.30078125,38.50390625,1,0,0,response1disk,,6,11.98828125,-0.32421875,1,0,0,rectangle,11.98828125,-0.32421875,1,0,0,11.98828125,-0.32421875,1,0,0,1,11,171,64,1,,,,,,,,
,,,,,,,,,,,,,FF,,,,,,,,1.1989,,,,,,,,,,,,,,,,,,,,,,60ff762e5239a014eead0c1f,61036ed3e443c3e9aeab20d2,2021-07-29_22h18.39.033,Simcolourproject_2stim_asymm_v5,2020.2.10,MacIntel,60,61025ae37ef11b136ea224fe,,,,,,,,,76,76.33203125,34.91015625,1,0,0,response1disk,,6,19.55859375,1.66796875,1,0,0,rectangle,19.55859375,1.66796875,1,0,0,19.55859375,1.66796875,1,0,0,1,12,172,55,1,,,,,,,,
,,,,,,,,,,,,,FF,,,,,,,,0.9325,,,,,,,,,,,,,,,,,,,,,,60ff762e5239a014eead0c1f,61036ed3e443c3e9aeab20d2,2021-07-29_22h18.39.033,Simcolourproject_2stim_asymm_v5,2020.2.10,MacIntel,60,61025ae37ef11b136ea224fe,,,,,,,,,648,34.59375,-61.3203125,1,0,0,response3disk,,4,16.015625,-11.640625,1,0,0,rectangle,16.015625,-11.640625,1,0,0,16.015625,-11.640625,1,0,0,1,13,173,120,1,,,,,,,,
,,,,,,,,,,,,,FF,,,,,,,,1.0338,,,,,,,,,,,,,,,,,,,,,,60ff762e5239a014eead0c1f,61036ed3e443c3e9aeab20d2,2021-07-29_22h18.39.033,Simcolourproject_2stim_asymm_v5,2020.2.10,MacIntel,60,61025ae37ef11b136ea224fe,,,,,,,,,469,59.234375,-31.32421875,1,0,0,response3disk,,5,6.96484375,1.00390625,1,0,0,rectangle,6.96484375,1.00390625,1,0,0,6.96484375,1.00390625,1,0,0,1,14,174,66,1,,,,,,,,
,,,,,,,,,,,,,FF,,,,,,,,1.1004,,,,,,,,,,,,,,,,,,,,,,60ff762e5239a014eead0c1f,61036ed3e443c3e9aeab20d2,2021-07-29_22h18.39.033,Simcolourproject_2stim_asymm_v5,2020.2.10,MacIntel,60,61025ae37ef11b136ea224fe,,,,,,,,,898,59.98828125,-25.1953125,1,0,0,response3disk,,5,3.73828125,-3.609375,1,0,0,rectangle,3.73828125,-3.609375,1,0,0,3.73828125,-3.609375,1,0,0,1,15,175,137,1,,,,,,,,
,,,,,,,,,,,,,FF,,,,,,,,1.2177,,,,,,,,,,,,,,,,,,,,,,60ff762e5239a014eead0c1f,61036ed3e443c3e9aeab20d2,2021-07-29_22h18.39.033,Simcolourproject_2stim_asymm_v5,2020.2.10,MacIntel,60,61025ae37ef11b136ea224fe,,,,,,,,,2930,32.92578125,56.7890625,1,0,0,response1disk,,7,8.69140625,-1.375,1,0,0,rectangle,8.69140625,-1.375,1,0,0,8.69140625,-1.375,1,0,0,1,16,176,68,1,,,,,,,,
,,,,,,,,,,,,,FF,,,,,,,,1.4169,,,,,,,,,,,,,,,,,,,,,,60ff762e5239a014eead0c1f,61036ed3e443c3e9aeab20d2,2021-07-29_22h18.39.033,Simcolourproject_2stim_asymm_v5,2020.2.10,MacIntel,60,61025ae37ef11b136ea224fe,,,,,,,,,1249,41.23046875,-28.2109375,1,0,0,response3disk,,5,-2.6328125,-3.27734375,1,0,0,rectangle,-2.6328125,-3.27734375,1,0,0,-2.6328125,-3.27734375,1,0,0,1,17,177,154,1,,,,,,,,
,,,,,,,,,,,,,FF,,,,,,,,0.9035,,,,,,,,,,,,,,,,,,,,,,60ff762e5239a014eead0c1f,61036ed3e443c3e9aeab20d2,2021-07-29_22h18.39.033,Simcolourproject_2stim_asymm_v5,2020.2.10,MacIntel,60,61025ae37ef11b136ea224fe,,,,,,,,,67,36.359375,-80.203125,1,0,0,response3disk,,4,13.0078125,-7.58984375,1,0,0,rectangle,13.0078125,-7.58984375,1,0,0,13.0078125,-7.58984375,1,0,0,1,18,178,61,1,,,,,,,,
,,,,,,,,,,,,,FF,,,,,,,,2.2513,,,,,,,,,,,,,,,,,,,,,,60ff762e5239a014eead0c1f,61036ed3e443c3e9aeab20d2,2021-07-29_22h18.39.033,Simcolourproject_2stim_asymm_v5,2020.2.10,MacIntel,60,61025ae37ef11b136ea224fe,,,,,,,,,527,53.69140625,39.33203125,1,0,0,response1disk,,6,6.80078125,2.63671875,1,0,0,rectangle,6.80078125,2.63671875,1,0,0,6.80078125,2.63671875,1,0,0,1,19,179,112,1,,,,,,,,
,,,,,,,,,,,,,FF,,,,,,,,0.9827,,,,,,,,,,,,,,,,,,,,,,60ff762e5239a014eead0c1f,61036ed3e443c3e9aeab20d2,2021-07-29_22h18.39.033,Simcolourproject_2stim_asymm_v5,2020.2.10,MacIntel,60,61025ae37ef11b136ea224fe,,,,,,,,,649,20.1796875,-41.85546875,1,0,0,response3disk,,4,-1.3359375,-7.04296875,1,0,0,rectangle,-1.3359375,-7.04296875,1,0,0,-1.3359375,-7.04296875,1,0,0,1,20,180,121,1,,,,,,,,
,,,,,,,,,,,,,FF,,,,,,,,1.601,,,,,,,,,,,,,,,,,,,,,,60ff762e5239a014eead0c1f,61036ed3e443c3e9aeab20d2,2021-07-29_22h18.39.033,Simcolourproject_2stim_asymm_v5,2020.2.10,MacIntel,60,61025ae37ef11b136ea224fe,,,,,,,,,2340,53.01953125,-23.328125,1,0,0,response3disk,,5,2.18359375,-7.41015625,1,0,0,rectangle,2.18359375,-7.41015625,1,0,0,2.18359375,-7.41015625,1,0,0,1,21,181,96,1,,,,,,,,
,,,,,,,,,,,,,FF,,,,,,,,0.8998,,,,,,,,,,,,,,,,,,,,,,60ff762e5239a014eead0c1f,61036ed3e443c3e9aeab20d2,2021-07-29_22h18.39.033,Simcolourproject_2stim_asymm_v5,2020.2.10,MacIntel,60,61025ae37ef11b136ea224fe,,,,,,,,,3497,28.44921875,62.35546875,1,0,0,response1disk,,7,27.0546875,-1.90234375,1,0,0,rectangle,27.0546875,-1.90234375,1,0,0,27.0546875,-1.90234375,1,0,0,1,22,182,140,1,,,,,,,,
,,,,,,,,,,,,,FF,,,,,,,,1.5497,,,,,,,,,,,,,,,,,,,,,,60ff762e5239a014eead0c1f,61036ed3e443c3e9aeab20d2,2021-07-29_22h18.39.033,Simcolourproject_2stim_asymm_v5,2020.2.10,MacIntel,60,61025ae37ef11b136ea224fe,,,,,,,,,3305,-51.51171875,32.58984375,1,0,0,response7disk,,1,-5.52734375,-0.51953125,1,0,0,rectangle,-5.52734375,-0.51953125,1,0,0,-5.52734375,-0.51953125,1,0,0,1,23,183,45,1,,,,,,,,
,,,,,,,,,,,,,FF,,,,,,,,1.15,,,,,,,,,,,,,,,,,,,,,,60ff762e5239a014eead0c1f,61036ed3e443c3e9aeab20d2,2021-07-29_22h18.39.033,Simcolourproject_2stim_asymm_v5,2020.2.10,MacIntel,60,61025ae37ef11b136ea224fe,,,,,,,,,24,77.58203125,-21.89453125,1,0,0,response3disk,,5,0.296875,-11.78125,1,0,0,rectangle,0.296875,-11.78125,1,0,0,0.296875,-11.78125,1,0,0,1,24,184,28,1,,,,,,,,
,,,,,,,,,,,,,FF,,,,,,,,0.7008,,,,,,,,,,,,,,,,,,,,,,60ff762e5239a014eead0c1f,61036ed3e443c3e9aeab20d2,2021-07-29_22h18.39.033,Simcolourproject_2stim_asymm_v5,2020.2.10,MacIntel,60,61025ae37ef11b136ea224fe,,,,,,,,,1602,-53.0625,33.18359375,1,0,0,response7disk,,1,-0.94140625,-2.1328125,1,0,0,rectangle,-0.94140625,-2.1328125,1,0,0,-0.94140625,-2.1328125,1,0,0,1,25,185,87,1,,,,,,,,
,,,,,,,,,,,,,FF,,,,,,,,0.9176,,,,,,,,,,,,,,,,,,,,,,60ff762e5239a014eead0c1f,61036ed3e443c3e9aeab20d2,2021-07-29_22h18.39.033,Simcolourproject_2stim_asymm_v5,2020.2.10,MacIntel,60,61025ae37ef11b136ea224fe,,,,,,,,,1458,-86.12109375,51.96484375,1,0,0,response7disk,,1,7.6484375,2.046875,1,0,0,rectangle,7.6484375,2.046875,1,0,0,7.6484375,2.046875,1,0,0,1,26,186,78,1,,,,,,,,
,,,,,,,,,,,,,FF,,,,,,,,0.8332,,,,,,,,,,,,,,,,,,,,,,60ff762e5239a014eead0c1f,61036ed3e443c3e9aeab20d2,2021-07-29_22h18.39.033,Simcolourproject_2stim_asymm_v5,2020.2.10,MacIntel,60,61025ae37ef11b136ea224fe,,,,,,,,,63,-23.22265625,-42.28125,1,0,0,response5disk,,3,-12.6875,-2.51171875,1,0,0,rectangle,-12.6875,-2.51171875,1,0,0,-12.6875,-2.51171875,1,0,0,1,27,187,43,1,,,,,,,,
,,,,,,,,,,,,,FF,,,,,,,,2.1532,,,,,,,,,,,,,,,,,,,,,,60ff762e5239a014eead0c1f,61036ed3e443c3e9aeab20d2,2021-07-29_22h18.39.033,Simcolourproject_2stim_asymm_v5,2020.2.10,MacIntel,60,61025ae37ef11b136ea224fe,,,,,,,,,3429,-76.6796875,-42.19140625,1,0,0,response5disk,,2,-5.96875,2.171875,1,0,0,rectangle,-5.96875,2.171875,1,0,0,-5.96875,2.171875,1,0,0,1,28,188,32,1,,,,,,,,
,,,,,,,,,,,,,FF,,,,,,,,2.7523,,,,,,,,,,,,,,,,,,,,,,60ff762e5239a014eead0c1f,61036ed3e443c3e9aeab20d2,2021-07-29_22h18.39.033,Simcolourproject_2stim_asymm_v5,2020.2.10,MacIntel,60,61025ae37ef11b136ea224fe,,,,,,,,,1180,28.66796875,-42.2265625,1,0,0,response3disk,,4,12.12890625,3.02734375,1,0,0,rectangle,12.12890625,3.02734375,1,0,0,12.12890625,3.02734375,1,0,0,1,29,189,37,1,,,,,,,,
,,,,,,,,,,,,,FF,,,,,,,,1.2165,,,,,,,,,,,,,,,,,,,,,,60ff762e5239a014eead0c1f,61036ed3e443c3e9aeab20d2,2021-07-29_22h18.39.033,Simcolourproject_2stim_asymm_v5,2020.2.10,MacIntel,60,61025ae37ef11b136ea224fe,,,,,,,,,868,43.73046875,-25.828125,1,0,0,response3disk,,5,2.3828125,-3.71484375,1,0,0,rectangle,2.3828125,-3.71484375,1,0,0,2.3828125,-3.71484375,1,0,0,1,30,190,77,1,,,,,,,,
,,,,,,,,,,,,,FF,,,,,,,,0.9506,,,,,,,,,,,,,,,,,,,,,,60ff762e5239a014eead0c1f,61036ed3e443c3e9aeab20d2,2021-07-29_22h18.39.033,Simcolourproject_2stim_asymm_v5,2020.2.10,MacIntel,60,61025ae37ef11b136ea224fe,,,,,,,,,936,32.69140625,50.9609375,1,0,0,response1disk,,7,14.421875,1.53515625,1,0,0,rectangle,14.421875,1.53515625,1,0,0,14.421875,1.53515625,1,0,0,1,31,191,76,1,,,,,,,,
,,,,,,,,,,,,,FF,,,,,,,,1.2154,,,,,,,,,,,,,,,,,,,,,,60ff762e5239a014eead0c1f,61036ed3e443c3e9aeab20d2,2021-07-29_22h18.39.033,Simcolourproject_2stim_asymm_v5,2020.2.10,MacIntel,60,61025ae37ef11b136ea224fe,,,,,,,,,100,-59.16015625,-35.06640625,1,0,0,response5disk,,2,-3.8125,-2.53515625,1,0,0,rectangle,30.8203125,-62.49609375,1,0,0,5.06640625,-4.58203125,1,0,0,1,32,192,148,1,,response3disk_3,TRUE,4,4,"[275,30,31,170,37,161,193,273,39,158,140,147,77,40,284,11,218,37,167,238]",1.4166,rectangle
,,,,,,,,,,,,,FF,,,,,,,,0.6492,,,,,,,,,,,,,,,,,,,,,,60ff762e5239a014eead0c1f,61036ed3e443c3e9aeab20d2,2021-07-29_22h18.39.033,Simcolourproject_2stim_asymm_v5,2020.2.10,MacIntel,60,61025ae37ef11b136ea224fe,,,,,,,,,2030,-49.44140625,28.57421875,1,0,0,response7disk,,1,-8.30859375,-7.1328125,1,0,0,rectangle,-8.30859375,-7.1328125,1,0,0,-8.30859375,-7.1328125,1,0,0,1,33,193,157,1,,,,,,,,
,,,,,,,,,,,,,FF,,,,,,,,0.8507,,,,,,,,,,,,,,,,,,,,,,60ff762e5239a014eead0c1f,61036ed3e443c3e9aeab20d2,2021-07-29_22h18.39.033,Simcolourproject_2stim_asymm_v5,2020.2.10,MacIntel,60,61025ae37ef11b136ea224fe,,,,,,,,,1991,30.125,71.21875,1,0,0,response1disk,,7,17.70703125,10.46875,1,0,0,rectangle,17.70703125,10.46875,1,0,0,17.70703125,10.46875,1,0,0,1,34,194,81,1,,,,,,,,
,,,,,,,,,,,,,FF,,,,,,,,0.7167,,,,,,,,,,,,,,,,,,,,,,60ff762e5239a014eead0c1f,61036ed3e443c3e9aeab20d2,2021-07-29_22h18.39.033,Simcolourproject_2stim_asymm_v5,2020.2.10,MacIntel,60,61025ae37ef11b136ea224fe,,,,,,,,,407,15.2265625,43.109375,1,0,0,response1disk,,7,12.671875,-5.57421875,1,0,0,rectangle,12.671875,-5.57421875,1,0,0,12.671875,-5.57421875,1,0,0,1,35,195,134,1,,,,,,,,
,,,,,,,,,,,,,FF,,,,,,,,0.5317,,,,,,,,,,,,,,,,,,,,,,60ff762e5239a014eead0c1f,61036ed3e443c3e9aeab20d2,2021-07-29_22h18.39.033,Simcolourproject_2stim_asymm_v5,2020.2.10,MacIntel,60,61025ae37ef11b136ea224fe,,,,,,,,,1556,30.83203125,54.93359375,1,0,0,response1disk,,7,24.8125,5.5703125,1,0,0,rectangle,24.8125,5.5703125,1,0,0,24.8125,5.5703125,1,0,0,1,36,196,156,1,,,,,,,,
,,,,,,,,,,,,,FF,,,,,,,,1.2331,,,,,,,,,,,,,,,,,,,,,,60ff762e5239a014eead0c1f,61036ed3e443c3e9aeab20d2,2021-07-29_22h18.39.033,Simcolourproject_2stim_asymm_v5,2020.2.10,MacIntel,60,61025ae37ef11b136ea224fe,,,,,,,,,3337,-40.38671875,-75.8125,1,0,0,response5disk,,3,-9.86328125,-2.71484375,1,0,0,rectangle,-9.86328125,-2.71484375,1,0,0,-9.86328125,-2.71484375,1,0,0,1,37,197,142,1,,,,,,,,
,,,,,,,,,,,,,FF,,,,,,,,0.9515,,,,,,,,,,,,,,,,,,,,,,60ff762e5239a014eead0c1f,61036ed3e443c3e9aeab20d2,2021-07-29_22h18.39.033,Simcolourproject_2stim_asymm_v5,2020.2.10,MacIntel,60,61025ae37ef11b136ea224fe,,,,,,,,,552,25.21875,-45.80078125,1,0,0,response3disk,,4,5.1328125,-13.125,1,0,0,rectangle,5.1328125,-13.125,1,0,0,5.1328125,-13.125,1,0,0,1,38,198,146,1,,,,,,,,
,,,,,,,,,,,,,FF,,,,,,,,1.084,,,,,,,,,,,,,,,,,,,,,,60ff762e5239a014eead0c1f,61036ed3e443c3e9aeab20d2,2021-07-29_22h18.39.033,Simcolourproject_2stim_asymm_v5,2020.2.10,MacIntel,60,61025ae37ef11b136ea224fe,,,,,,,,,2901,-62,-33.84765625,1,0,0,response5disk,,2,-5.5546875,-2.9375,1,0,0,rectangle,-5.5546875,-2.9375,1,0,0,-5.5546875,-2.9375,1,0,0,1,39,199,110,1,,,,,,,,
,,,,,,,,,,,,,FF,,,,,,,,0.7158,,,,,,,,,,,,,,,,,,,,,,60ff762e5239a014eead0c1f,61036ed3e443c3e9aeab20d2,2021-07-29_22h18.39.033,Simcolourproject_2stim_asymm_v5,2020.2.10,MacIntel,60,61025ae37ef11b136ea224fe,,,,,,,,,1453,-76.33203125,34.44921875,1,0,0,response7disk,,1,-6.4609375,-8.28125,1,0,0,rectangle,-6.4609375,-8.28125,1,0,0,-6.4609375,-8.28125,1,0,0,1,40,200,93,1,,,,,,,,
,,,,,,,,,,,,,FF,,,,,,,,0.6843,,,,,,,,,,,,,,,,,,,,,,60ff762e5239a014eead0c1f,61036ed3e443c3e9aeab20d2,2021-07-29_22h18.39.033,Simcolourproject_2stim_asymm_v5,2020.2.10,MacIntel,60,61025ae37ef11b136ea224fe,,,,,,,,,1262,-30.5,-57.28125,1,0,0,response5disk,,3,-11.85546875,-8.41796875,1,0,0,rectangle,-11.85546875,-8.41796875,1,0,0,-11.85546875,-8.41796875,1,0,0,1,41,201,114,1,,,,,,,,
,,,,,,,,,,,,,FF,,,,,,,,0.8505,,,,,,,,,,,,,,,,,,,,,,60ff762e5239a014eead0c1f,61036ed3e443c3e9aeab20d2,2021-07-29_22h18.39.033,Simcolourproject_2stim_asymm_v5,2020.2.10,MacIntel,60,61025ae37ef11b136ea224fe,,,,,,,,,2763,41.1953125,24.3203125,1,0,0,response1disk,,6,-7.69921875,8.26953125,1,0,0,rectangle,-7.69921875,8.26953125,1,0,0,-7.69921875,8.26953125,1,0,0,1,42,202,11,1,,,,,,,,
,,,,,,,,,,,,,FF,,,,,,,,0.567,,,,,,,,,,,,,,,,,,,,,,60ff762e5239a014eead0c1f,61036ed3e443c3e9aeab20d2,2021-07-29_22h18.39.033,Simcolourproject_2stim_asymm_v5,2020.2.10,MacIntel,60,61025ae37ef11b136ea224fe,,,,,,,,,2236,-63.4765625,16.6171875,1,0,0,response7disk,,1,-16.9921875,-6.1171875,1,0,0,rectangle,-16.9921875,-6.1171875,1,0,0,-16.9921875,-6.1171875,1,0,0,1,43,203,138,1,,,,,,,,
,,,,,,,,,,,,,FF,,,,,,,,0.7167,,,,,,,,,,,,,,,,,,,,,,60ff762e5239a014eead0c1f,61036ed3e443c3e9aeab20d2,2021-07-29_22h18.39.033,Simcolourproject_2stim_asymm_v5,2020.2.10,MacIntel,60,61025ae37ef11b136ea224fe,,,,,,,,,163,-34.921875,-58.33203125,1,0,0,response5disk,,3,10.34765625,-7.86328125,1,0,0,rectangle,10.34765625,-7.86328125,1,0,0,10.34765625,-7.86328125,1,0,0,1,44,204,19,1,,,,,,,,
,,,,,,,,,,,,,FF,,,,,,,,0.8335,,,,,,,,,,,,,,,,,,,,,,60ff762e5239a014eead0c1f,61036ed3e443c3e9aeab20d2,2021-07-29_22h18.39.033,Simcolourproject_2stim_asymm_v5,2020.2.10,MacIntel,60,61025ae37ef11b136ea224fe,,,,,,,,,2692,71.30859375,-36.80859375,1,0,0,response3disk,,5,21.6953125,4.51953125,1,0,0,rectangle,21.6953125,4.51953125,1,0,0,21.6953125,4.51953125,1,0,0,1,45,205,73,1,,,,,,,,
,,,,,,,,,,,,,FF,,,,,,,,0.7341,,,,,,,,,,,,,,,,,,,,,,60ff762e5239a014eead0c1f,61036ed3e443c3e9aeab20d2,2021-07-29_22h18.39.033,Simcolourproject_2stim_asymm_v5,2020.2.10,MacIntel,60,61025ae37ef11b136ea224fe,,,,,,,,,1336,26.64453125,-76.0234375,1,0,0,response3disk,,4,-5.8359375,4.62109375,1,0,0,rectangle,-5.8359375,4.62109375,1,0,0,-5.8359375,4.62109375,1,0,0,1,46,206,99,1,,,,,,,,
,,,,,,,,,,,,,FF,,,,,,,,1.2174,,,,,,,,,,,,,,,,,,,,,,60ff762e5239a014eead0c1f,61036ed3e443c3e9aeab20d2,2021-07-29_22h18.39.033,Simcolourproject_2stim_asymm_v5,2020.2.10,MacIntel,60,61025ae37ef11b136ea224fe,,,,,,,,,938,55.5390625,70.82421875,1,0,0,response1disk,,7,25.609375,2.91015625,1,0,0,rectangle,25.609375,2.91015625,1,0,0,25.609375,2.91015625,1,0,0,1,47,207,107,1,,,,,,,,
,,,,,,,,,,,,,FF,,,,,,,,0.7501,,,,,,,,,,,,,,,,,,,,,,60ff762e5239a014eead0c1f,61036ed3e443c3e9aeab20d2,2021-07-29_22h18.39.033,Simcolourproject_2stim_asymm_v5,2020.2.10,MacIntel,60,61025ae37ef11b136ea224fe,,,,,,,,,3854,50.46484375,-32.015625,1,0,0,response3disk,,5,-1.34375,0.99609375,1,0,0,rectangle,-1.34375,0.99609375,1,0,0,-1.34375,0.99609375,1,0,0,1,48,208,139,1,,,,,,,,
,,,,,,,,,,,,,FF,,,,,,,,1.1335,,,,,,,,,,,,,,,,,,,,,,60ff762e5239a014eead0c1f,61036ed3e443c3e9aeab20d2,2021-07-29_22h18.39.033,Simcolourproject_2stim_asymm_v5,2020.2.10,MacIntel,60,61025ae37ef11b136ea224fe,,,,,,,,,4182,-32.8671875,-60.296875,1,0,0,response5disk,,3,-9.8984375,-8.859375,1,0,0,rectangle,-9.8984375,-8.859375,1,0,0,-9.8984375,-8.859375,1,0,0,1,49,209,41,1,,,,,,,,
,,,,,,,,,,,,,FF,,,,,,,,0.8171,,,,,,,,,,,,,,,,,,,,,,60ff762e5239a014eead0c1f,61036ed3e443c3e9aeab20d2,2021-07-29_22h18.39.033,Simcolourproject_2stim_asymm_v5,2020.2.10,MacIntel,60,61025ae37ef11b136ea224fe,,,,,,,,,823,30.921875,-42.7578125,1,0,0,response3disk,,4,17.91015625,1.2265625,1,0,0,rectangle,17.91015625,1.2265625,1,0,0,17.91015625,1.2265625,1,0,0,1,50,210,69,1,,,,,,,,
,,,,,,,,,,,,,FF,,,,,,,,1.5171,,,,,,,,,,,,,,,,,,,,,,60ff762e5239a014eead0c1f,61036ed3e443c3e9aeab20d2,2021-07-29_22h18.39.033,Simcolourproject_2stim_asymm_v5,2020.2.10,MacIntel,60,61025ae37ef11b136ea224fe,,,,,,,,,4122,33.78125,-49.97265625,1,0,0,response3disk,,4,21.11328125,3.55078125,1,0,0,rectangle,21.11328125,3.55078125,1,0,0,21.11328125,3.55078125,1,0,0,1,51,211,159,1,,,,,,,,
,,,,,,,,,,,,,FF,,,,,,,,0.6844,,,,,,,,,,,,,,,,,,,,,,60ff762e5239a014eead0c1f,61036ed3e443c3e9aeab20d2,2021-07-29_22h18.39.033,Simcolourproject_2stim_asymm_v5,2020.2.10,MacIntel,60,61025ae37ef11b136ea224fe,,,,,,,,,2733,-77.25390625,-47.8203125,1,0,0,response5disk,,2,-0.703125,-2.7734375,1,0,0,rectangle,-0.703125,-2.7734375,1,0,0,-0.703125,-2.7734375,1,0,0,1,52,212,86,1,,,,,,,,
,,,,,,,,,,,,,FF,,,,,,,,1.3996,,,,,,,,,,,,,,,,,,,,,,60ff762e5239a014eead0c1f,61036ed3e443c3e9aeab20d2,2021-07-29_22h18.39.033,Simcolourproject_2stim_asymm_v5,2020.2.10,MacIntel,60,61025ae37ef11b136ea224fe,,,,,,,,,3569,39.00390625,61.0078125,1,0,0,response1disk,,7,26.68359375,13.05859375,1,0,0,rectangle,26.68359375,13.05859375,1,0,0,26.68359375,13.05859375,1,0,0,1,53,213,105,1,,,,,,,,
,,,,,,,,,,,,,FF,,,,,,,,1.1684,,,,,,,,,,,,,,,,,,,,,,60ff762e5239a014eead0c1f,61036ed3e443c3e9aeab20d2,2021-07-29_22h18.39.033,Simcolourproject_2stim_asymm_v5,2020.2.10,MacIntel,60,61025ae37ef11b136ea224fe,,,,,,,,,3642,49.80078125,-33.35546875,1,0,0,response3disk,,5,-6.83984375,-14.6953125,1,0,0,rectangle,-6.83984375,-14.6953125,1,0,0,-6.83984375,-14.6953125,1,0,0,1,54,214,0,1,,,,,,,,
,,,,,,,,,,,,,FF,,,,,,,,0.9178,,,,,,,,,,,,,,,,,,,,,,60ff762e5239a014eead0c1f,61036ed3e443c3e9aeab20d2,2021-07-29_22h18.39.033,Simcolourproject_2stim_asymm_v5,2020.2.10,MacIntel,60,61025ae37ef11b136ea224fe,,,,,,,,,1333,61.2578125,-21.8515625,1,0,0,response3disk,,5,23.54296875,-6.24609375,1,0,0,rectangle,23.54296875,-6.24609375,1,0,0,23.54296875,-6.24609375,1,0,0,1,55,215,124,1,,,,,,,,
,,,,,,,,,,,,,FF,,,,,,,,0.6739,,,,,,,,,,,,,,,,,,,,,,60ff762e5239a014eead0c1f,61036ed3e443c3e9aeab20d2,2021-07-29_22h18.39.033,Simcolourproject_2stim_asymm_v5,2020.2.10,MacIntel,60,61025ae37ef11b136ea224fe,,,,,,,,,1459,-67.23828125,26.8046875,1,0,0,response7disk,,1,-18.390625,12.42578125,1,0,0,rectangle,-18.390625,12.42578125,1,0,0,-18.390625,12.42578125,1,0,0,1,56,216,152,1,,,,,,,,
,,,,,,,,,,,,,FF,,,,,,,,0.85,,,,,,,,,,,,,,,,,,,,,,60ff762e5239a014eead0c1f,61036ed3e443c3e9aeab20d2,2021-07-29_22h18.39.033,Simcolourproject_2stim_asymm_v5,2020.2.10,MacIntel,60,61025ae37ef11b136ea224fe,,,,,,,,,2087,-40.5703125,-27.48828125,1,0,0,response5disk,,2,7.77734375,-12.89453125,1,0,0,rectangle,-49.15234375,71.328125,1,0,0,-4.28125,3.859375,1,0,0,1,57,217,102,1,,response7disk_3,TRUE,0,0,"[275,30,31,170,37,161,193,273,39,158,140,147,77,40,284,11,218,37,167,238]",1.4671,rectangle
,,,,,,,,,,,,,FF,,,,,,,,2.3847,,,,,,,,,,,,,,,,,,,,,,60ff762e5239a014eead0c1f,61036ed3e443c3e9aeab20d2,2021-07-29_22h18.39.033,Simcolourproject_2stim_asymm_v5,2020.2.10,MacIntel,60,61025ae37ef11b136ea224fe,,,,,,,,,95,-67.87890625,29.8515625,1,0,0,response7disk,,1,-16.625,4.76171875,1,0,0,rectangle,-16.625,4.76171875,1,0,0,-16.625,4.76171875,1,0,0,1,58,218,8,1,,,,,,,,
,,,,,,,,,,,,,FF,,,,,,,,0.7338,,,,,,,,,,,,,,,,,,,,,,60ff762e5239a014eead0c1f,61036ed3e443c3e9aeab20d2,2021-07-29_22h18.39.033,Simcolourproject_2stim_asymm_v5,2020.2.10,MacIntel,60,61025ae37ef11b136ea224fe,,,,,,,,,1308,-34.79296875,-55.015625,1,0,0,response5disk,,3,5.9296875,-6.5078125,1,0,0,rectangle,5.9296875,-6.5078125,1,0,0,5.9296875,-6.5078125,1,0,0,1,59,219,21,1,,,,,,,,
,,,,,,,,,,,,,FF,,,,,,,,1.2344,,,,,,,,,,,,,,,,,,,,,,60ff762e5239a014eead0c1f,61036ed3e443c3e9aeab20d2,2021-07-29_22h18.39.033,Simcolourproject_2stim_asymm_v5,2020.2.10,MacIntel,60,61025ae37ef11b136ea224fe,,,,,,,,,2722,17.515625,-50.87890625,1,0,0,response3disk,,4,6.52734375,11.03515625,1,0,0,rectangle,6.52734375,11.03515625,1,0,0,6.52734375,11.03515625,1,0,0,1,60,220,38,1,,,,,,,,
,,,,,,,,,,,,,FF,,,,,,,,0.7168,,,,,,,,,,,,,,,,,,,,,,60ff762e5239a014eead0c1f,61036ed3e443c3e9aeab20d2,2021-07-29_22h18.39.033,Simcolourproject_2stim_asymm_v5,2020.2.10,MacIntel,60,61025ae37ef11b136ea224fe,,,,,,,,,4304,24.54296875,58.0078125,1,0,0,response1disk,,7,8.1953125,-7.0859375,1,0,0,rectangle,8.1953125,-7.0859375,1,0,0,8.1953125,-7.0859375,1,0,0,1,61,221,57,1,,,,,,,,
,,,,,,,,,,,,,FF,,,,,,,,1.0837,,,,,,,,,,,,,,,,,,,,,,60ff762e5239a014eead0c1f,61036ed3e443c3e9aeab20d2,2021-07-29_22h18.39.033,Simcolourproject_2stim_asymm_v5,2020.2.10,MacIntel,60,61025ae37ef11b136ea224fe,,,,,,,,,3160,-29.33203125,-57.9375,1,0,0,response5disk,,3,5.71875,-3.51171875,1,0,0,rectangle,5.71875,-3.51171875,1,0,0,5.71875,-3.51171875,1,0,0,1,62,222,130,1,,,,,,,,
,,,,,,,,,,,,,FF,,,,,,,,0.6837,,,,,,,,,,,,,,,,,,,,,,60ff762e5239a014eead0c1f,61036ed3e443c3e9aeab20d2,2021-07-29_22h18.39.033,Simcolourproject_2stim_asymm_v5,2020.2.10,MacIntel,60,61025ae37ef11b136ea224fe,,,,,,,,,2132,23.8828125,61.1875,1,0,0,response1disk,,7,1.12109375,-0.91015625,1,0,0,rectangle,1.12109375,-0.91015625,1,0,0,1.12109375,-0.91015625,1,0,0,1,63,223,67,1,,,,,,,,
,,,,,,,,,,,,,FF,,,,,,,,0.9835,,,,,,,,,,,,,,,,,,,,,,60ff762e5239a014eead0c1f,61036ed3e443c3e9aeab20d2,2021-07-29_22h18.39.033,Simcolourproject_2stim_asymm_v5,2020.2.10,MacIntel,60,61025ae37ef11b136ea224fe,,,,,,,,,3698,41.8359375,-37.70703125,1,0,0,response3disk,,5,-2.0234375,-8.546875,1,0,0,rectangle,-2.0234375,-8.546875,1,0,0,-2.0234375,-8.546875,1,0,0,1,64,224,98,1,,,,,,,,
,,,,,,,,,,,,,FF,,,,,,,,0.85,,,,,,,,,,,,,,,,,,,,,,60ff762e5239a014eead0c1f,61036ed3e443c3e9aeab20d2,2021-07-29_22h18.39.033,Simcolourproject_2stim_asymm_v5,2020.2.10,MacIntel,60,61025ae37ef11b136ea224fe,,,,,,,,,610,32.4609375,-52.01171875,1,0,0,response3disk,,4,4.30859375,-2.99609375,1,0,0,rectangle,4.30859375,-2.99609375,1,0,0,4.30859375,-2.99609375,1,0,0,1,65,225,34,1,,,,,,,,
,,,,,,,,,,,,,FF,,,,,,,,0.8833,,,,,,,,,,,,,,,,,,,,,,60ff762e5239a014eead0c1f,61036ed3e443c3e9aeab20d2,2021-07-29_22h18.39.033,Simcolourproject_2stim_asymm_v5,2020.2.10,MacIntel,60,61025ae37ef11b136ea224fe,,,,,,,,,20,36.11328125,64.828125,1,0,0,response1disk,,7,6.3984375,12.0234375,1,0,0,rectangle,6.3984375,12.0234375,1,0,0,6.3984375,12.0234375,1,0,0,1,66,226,135,1,,,,,,,,
,,,,,,,,,,,,,FF,,,,,,,,0.5492,,,,,,,,,,,,,,,,,,,,,,60ff762e5239a014eead0c1f,61036ed3e443c3e9aeab20d2,2021-07-29_22h18.39.033,Simcolourproject_2stim_asymm_v5,2020.2.10,MacIntel,60,61025ae37ef11b136ea224fe,,,,,,,,,4131,17.87890625,59.1171875,1,0,0,response1disk,,7,11.2578125,8.37890625,1,0,0,rectangle,11.2578125,8.37890625,1,0,0,11.2578125,8.37890625,1,0,0,1,67,227,47,1,,,,,,,,
,,,,,,,,,,,,,FF,,,,,,,,0.7846,,,,,,,,,,,,,,,,,,,,,,60ff762e5239a014eead0c1f,61036ed3e443c3e9aeab20d2,2021-07-29_22h18.39.033,Simcolourproject_2stim_asymm_v5,2020.2.10,MacIntel,60,61025ae37ef11b136ea224fe,,,,,,,,,2313,-68.97265625,-45.56640625,1,0,0,response5disk,,2,-0.78515625,-8.79296875,1,0,0,rectangle,-0.78515625,-8.79296875,1,0,0,-0.78515625,-8.79296875,1,0,0,1,68,228,54,1,,,,,,,,
,,,,,,,,,,,,,FF,,,,,,,,0.684,,,,,,,,,,,,,,,,,,,,,,60ff762e5239a014eead0c1f,61036ed3e443c3e9aeab20d2,2021-07-29_22h18.39.033,Simcolourproject_2stim_asymm_v5,2020.2.10,MacIntel,60,61025ae37ef11b136ea224fe,,,,,,,,,3484,-26.96484375,-43.44921875,1,0,0,response5disk,,3,-10.05859375,-1.58203125,1,0,0,rectangle,-10.05859375,-1.58203125,1,0,0,-10.05859375,-1.58203125,1,0,0,1,69,229,109,1,,,,,,,,
,,,,,,,,,,,,,FF,,,,,,,,0.718,,,,,,,,,,,,,,,,,,,,,,60ff762e5239a014eead0c1f,61036ed3e443c3e9aeab20d2,2021-07-29_22h18.39.033,Simcolourproject_2stim_asymm_v5,2020.2.10,MacIntel,60,61025ae37ef11b136ea224fe,,,,,,,,,4206,-58.44921875,-17.671875,1,0,0,response5disk,,2,4.359375,3.1015625,1,0,0,rectangle,4.359375,3.1015625,1,0,0,4.359375,3.1015625,1,0,0,1,70,230,29,1,,,,,,,,
,,,,,,,,,,,,,FF,,,,,,,,0.7178,,,,,,,,,,,,,,,,,,,,,,60ff762e5239a014eead0c1f,61036ed3e443c3e9aeab20d2,2021-07-29_22h18.39.033,Simcolourproject_2stim_asymm_v5,2020.2.10,MacIntel,60,61025ae37ef11b136ea224fe,,,,,,,,,3952,52.32421875,-32.9375,1,0,0,response3disk,,5,0.98046875,-5.890625,1,0,0,rectangle,0.98046875,-5.890625,1,0,0,0.98046875,-5.890625,1,0,0,1,71,231,56,1,,,,,,,,
,,,,,,,,,,,,,FF,,,,,,,,0.9833,,,,,,,,,,,,,,,,,,,,,,60ff762e5239a014eead0c1f,61036ed3e443c3e9aeab20d2,2021-07-29_22h18.39.033,Simcolourproject_2stim_asymm_v5,2020.2.10,MacIntel,60,61025ae37ef11b136ea224fe,,,,,,,,,829,26.1796875,-56.18359375,1,0,0,response3disk,,4,8.39453125,3.46484375,1,0,0,rectangle,8.39453125,3.46484375,1,0,0,8.39453125,3.46484375,1,0,0,1,72,232,127,1,,,,,,,,
,,,,,,,,,,,,,FF,,,,,,,,0.5681,,,,,,,,,,,,,,,,,,,,,,60ff762e5239a014eead0c1f,61036ed3e443c3e9aeab20d2,2021-07-29_22h18.39.033,Simcolourproject_2stim_asymm_v5,2020.2.10,MacIntel,60,61025ae37ef11b136ea224fe,,,,,,,,,559,38.60546875,55.3046875,1,0,0,response1disk,,7,1.1328125,-15.046875,1,0,0,rectangle,1.1328125,-15.046875,1,0,0,1.1328125,-15.046875,1,0,0,1,73,233,49,1,,,,,,,,
,,,,,,,,,,,,,FF,,,,,,,,0.6835,,,,,,,,,,,,,,,,,,,,,,60ff762e5239a014eead0c1f,61036ed3e443c3e9aeab20d2,2021-07-29_22h18.39.033,Simcolourproject_2stim_asymm_v5,2020.2.10,MacIntel,60,61025ae37ef11b136ea224fe,,,,,,,,,591,30.83984375,48.4375,1,0,0,response1disk,,7,8.5625,3.19921875,1,0,0,rectangle,8.5625,3.19921875,1,0,0,8.5625,3.19921875,1,0,0,1,74,234,123,1,,,,,,,,
,,,,,,,,,,,,,FF,,,,,,,,0.8822,,,,,,,,,,,,,,,,,,,,,,60ff762e5239a014eead0c1f,61036ed3e443c3e9aeab20d2,2021-07-29_22h18.39.033,Simcolourproject_2stim_asymm_v5,2020.2.10,MacIntel,60,61025ae37ef11b136ea224fe,,,,,,,,,3690,47.59375,-64.1328125,1,0,0,response3disk,,4,14.7890625,-10.1328125,1,0,0,rectangle,14.7890625,-10.1328125,1,0,0,14.7890625,-10.1328125,1,0,0,1,75,235,17,1,,,,,,,,
,,,,,,,,,,,,,FF,,,,,,,,0.8162,,,,,,,,,,,,,,,,,,,,,,60ff762e5239a014eead0c1f,61036ed3e443c3e9aeab20d2,2021-07-29_22h18.39.033,Simcolourproject_2stim_asymm_v5,2020.2.10,MacIntel,60,61025ae37ef11b136ea224fe,,,,,,,,,3481,-25.41015625,-55.30078125,1,0,0,response5disk,,3,-11.18359375,-2.79296875,1,0,0,rectangle,-11.18359375,-2.79296875,1,0,0,-11.18359375,-2.79296875,1,0,0,1,76,236,128,1,,,,,,,,
,,,,,,,,,,,,,FF,,,,,,,,0.5849,,,,,,,,,,,,,,,,,,,,,,60ff762e5239a014eead0c1f,61036ed3e443c3e9aeab20d2,2021-07-29_22h18.39.033,Simcolourproject_2stim_asymm_v5,2020.2.10,MacIntel,60,61025ae37ef11b136ea224fe,,,,,,,,,2249,-26.27734375,-50.20703125,1,0,0,response5disk,,3,-15.88671875,8.84375,1,0,0,rectangle,39.1640625,81.0234375,1,0,0,3.2734375,4.71484375,1,0,0,1,77,237,122,1,,response1disk_3,TRUE,7,7,"[275,30,31,170,37,161,193,273,39,158,140,147,77,40,284,11,218,37,167,238]",1.7492,rectangle
,,,,,,,,,,,,,FF,,,,,,,,0.7998,,,,,,,,,,,,,,,,,,,,,,60ff762e5239a014eead0c1f,61036ed3e443c3e9aeab20d2,2021-07-29_22h18.39.033,Simcolourproject_2stim_asymm_v5,2020.2.10,MacIntel,60,61025ae37ef11b136ea224fe,,,,,,,,,3248,-50.23828125,-34.9140625,1,0,0,response5disk,,2,-8.7578125,-5.671875,1,0,0,rectangle,-8.7578125,-5.671875,1,0,0,-8.7578125,-5.671875,1,0,0,1,78,238,6,1,,,,,,,,
,,,,,,,,,,,,,FF,,,,,,,,0.816,,,,,,,,,,,,,,,,,,,,,,60ff762e5239a014eead0c1f,61036ed3e443c3e9aeab20d2,2021-07-29_22h18.39.033,Simcolourproject_2stim_asymm_v5,2020.2.10,MacIntel,60,61025ae37ef11b136ea224fe,,,,,,,,,2086,-54.7109375,-29.6875,1,0,0,response5disk,,2,-4.48828125,-4.5546875,1,0,0,rectangle,-4.48828125,-4.5546875,1,0,0,-4.48828125,-4.5546875,1,0,0,1,79,239,25,1,,,,,,,,
,,,,,,,,,,,,,FF,,,,,,,,0.8004,,,,,,,,,,,,,,,,,,,,,,60ff762e5239a014eead0c1f,61036ed3e443c3e9aeab20d2,2021-07-29_22h18.39.033,Simcolourproject_2stim_asymm_v5,2020.2.10,MacIntel,60,61025ae37ef11b136ea224fe,,,,,,,,,1794,-33.84375,-76.29296875,1,0,0,response5disk,,3,-10.99609375,-7.62109375,1,0,0,rectangle,-10.99609375,-7.62109375,1,0,0,-10.99609375,-7.62109375,1,0,0,1,80,240,111,1,,,,,,,,
,,,,,,,,,,,,,FF,,,,,,,,1.017,,,,,,,,,,,,,,,,,,,,,,60ff762e5239a014eead0c1f,61036ed3e443c3e9aeab20d2,2021-07-29_22h18.39.033,Simcolourproject_2stim_asymm_v5,2020.2.10,MacIntel,60,61025ae37ef11b136ea224fe,,,,,,,,,681,-35.25,-66.15625,1,0,0,response5disk,,3,-17.80859375,-5.23046875,1,0,0,rectangle,-17.80859375,-5.23046875,1,0,0,-17.80859375,-5.23046875,1,0,0,1,81,241,4,1,,,,,,,,
,,,,,,,,,,,,,FF,,,,,,,,2.4001,,,,,,,,,,,,,,,,,,,,,,60ff762e5239a014eead0c1f,61036ed3e443c3e9aeab20d2,2021-07-29_22h18.39.033,Simcolourproject_2stim_asymm_v5,2020.2.10,MacIntel,60,61025ae37ef11b136ea224fe,,,,,,,,,3004,70.5859375,-33.9765625,1,0,0,response3disk,,5,-7.40625,-7.3671875,1,0,0,rectangle,-7.40625,-7.3671875,1,0,0,-7.40625,-7.3671875,1,0,0,1,82,242,62,1,,,,,,,,
,,,,,,,,,,,,,FF,,,,,,,,1.3839,,,,,,,,,,,,,,,,,,,,,,60ff762e5239a014eead0c1f,61036ed3e443c3e9aeab20d2,2021-07-29_22h18.39.033,Simcolourproject_2stim_asymm_v5,2020.2.10,MacIntel,60,61025ae37ef11b136ea224fe,,,,,,,,,2339,55.05859375,-35.68359375,1,0,0,response3disk,,5,-16.42578125,8.5859375,1,0,0,rectangle,-16.42578125,8.5859375,1,0,0,-16.42578125,8.5859375,1,0,0,1,83,243,31,1,,,,,,,,
,,,,,,,,,,,,,FF,,,,,,,,0.8168,,,,,,,,,,,,,,,,,,,,,,60ff762e5239a014eead0c1f,61036ed3e443c3e9aeab20d2,2021-07-29_22h18.39.033,Simcolourproject_2stim_asymm_v5,2020.2.10,MacIntel,60,61025ae37ef11b136ea224fe,,,,,,,,,2135,46.70703125,32.4453125,1,0,0,response1disk,,6,-0.85546875,8.59375,1,0,0,rectangle,-0.85546875,8.59375,1,0,0,-0.85546875,8.59375,1,0,0,1,84,244,71,1,,,,,,,,
,,,,,,,,,,,,,FF,,,,,,,,0.5512,,,,,,,,,,,,,,,,,,,,,,60ff762e5239a014eead0c1f,61036ed3e443c3e9aeab20d2,2021-07-29_22h18.39.033,Simcolourproject_2stim_asymm_v5,2020.2.10,MacIntel,60,61025ae37ef11b136ea224fe,,,,,,,,,2918,30.91015625,60.77734375,1,0,0,response1disk,,7,10.15234375,13.62109375,1,0,0,rectangle,10.15234375,13.62109375,1,0,0,10.15234375,13.62109375,1,0,0,1,85,245,116,1,,,,,,,,
,,,,,,,,,,,,,FF,,,,,,,,0.8505,,,,,,,,,,,,,,,,,,,,,,60ff762e5239a014eead0c1f,61036ed3e443c3e9aeab20d2,2021-07-29_22h18.39.033,Simcolourproject_2stim_asymm_v5,2020.2.10,MacIntel,60,61025ae37ef11b136ea224fe,,,,,,,,,1921,54.9921875,-32.2265625,1,0,0,response3disk,,5,-5.0703125,-9.9375,1,0,0,rectangle,-5.0703125,-9.9375,1,0,0,-5.0703125,-9.9375,1,0,0,1,86,246,1,1,,,,,,,,
,,,,,,,,,,,,,FF,,,,,,,,0.6176,,,,,,,,,,,,,,,,,,,,,,60ff762e5239a014eead0c1f,61036ed3e443c3e9aeab20d2,2021-07-29_22h18.39.033,Simcolourproject_2stim_asymm_v5,2020.2.10,MacIntel,60,61025ae37ef11b136ea224fe,,,,,,,,,626,23.91015625,53.42578125,1,0,0,response1disk,,7,8.78125,-1.30078125,1,0,0,rectangle,8.78125,-1.30078125,1,0,0,8.78125,-1.30078125,1,0,0,1,87,247,106,1,,,,,,,,
