key_resp.keys,key_resp.rt,key_resp_14.keys,key_resp_14.rt,key_resp_15.keys,key_resp_15.rt,key_resp_17.keys,key_resp_17.rt,key_resp_9.keys,key_resp_9.rt,key_resp_10.keys,key_resp_10.rt,practice_comparison,Ecc,mouse_5.x,mouse_5.y,mouse_5.leftButton,mouse_5.midButton,mouse_5.rightButton,mouse_5.clicked_name,pracsimilarity,response_time,mouse_10.x,mouse_10.y,mouse_10.leftButton,mouse_10.midButton,mouse_10.rightButton,mouse_10.clicked_name,mouse_7.x,mouse_7.y,mouse_7.leftButton,mouse_7.midButton,mouse_7.rightButton,mouse_6.x,mouse_6.y,mouse_6.leftButton,mouse_6.midButton,mouse_6.rightButton,duringprac.thisRepN,duringprac.thisTrialN,duringprac.thisN,duringprac.thisIndex,duringprac.ran,participant,session,date,expName,psychopyVersion,OS,frameRate,study_id,mouse_7.clicked_name,catchpracsimilarity,catch_response_time,catchnumberprac,catchtrialorderprac,mouse_6.clicked_name,key_resp_22.keys,key_resp_22.rt,realcomparison,mouse.x,mouse.y,mouse.leftButton,mouse.midButton,mouse.rightButton,mouse.clicked_name,Colour2,similarity,mouse_2.x,mouse_2.y,mouse_2.leftButton,mouse_2.midButton,mouse_2.rightButton,mouse_2.clicked_name,mouse_3.x,mouse_3.y,mouse_3.leftButton,mouse_3.midButton,mouse_3.rightButton,mouse_11.x,mouse_11.y,mouse_11.leftButton,mouse_11.midButton,mouse_11.rightButton,trials_2.thisRepN,trials_2.thisTrialN,trials_2.thisN,trials_2.thisIndex,trials_2.ran,Colour1,mouse_3.clicked_name,catchornah,catchsimilarity,catchnumber,catchtrialorder,catchRT,mouse_11.clicked_name
space,1.8149,space,13.6591,space,27.341,space,3.6789,space,0.8172,space,3.8024,152,PF,39.85321045,77.390625,1,0,0,response1disk_5,7,10.8908,0.464111328,7.445159912,1,0,0,rectangle_8,0.464111328,7.445159912,1,0,0,0.464111328,7.445159912,1,0,0,0,0,0,6,1,60ff6869e503c8c1e2be7df2,61036e2a5e84e286d741c818,2021-07-29_21h14.12.751,Simcolourproject_2stim_asymm_v5,2020.2.10,MacIntel,60,61025ae37ef11b136ea224fe,,,,,,,,,,,,,,,,,,,,,,,,,,,,,,,,,,,,,,,,,,,,,,
,,,,,,,,,,,,61,FF,45.70629883,27.38684082,1,0,0,response1disk_5,6,5.3694,4.739624023,-9.717041016,1,0,0,rectangle_8,-70.60980225,-35.49804688,1,0,0,2.017150879,-4.784851074,1,0,0,0,1,1,3,1,60ff6869e503c8c1e2be7df2,61036e2a5e84e286d741c818,2021-07-29_21h14.12.751,Simcolourproject_2stim_asymm_v5,2020.2.10,MacIntel,60,61025ae37ef11b136ea224fe,response5disk_7,2,3.0523,2,"[2,5]",rectangle_4,,,,,,,,,,,,,,,,,,,,,,,,,,,,,,,,,,,,,,,,
,,,,,,,,,,,,23,PF,74.79614258,34.15093994,1,0,0,response1disk_5,6,9.4719,6.37109375,-2.876708984,1,0,0,rectangle_8,6.37109375,-2.876708984,1,0,0,6.37109375,-2.876708984,1,0,0,0,2,2,2,1,60ff6869e503c8c1e2be7df2,61036e2a5e84e286d741c818,2021-07-29_21h14.12.751,Simcolourproject_2stim_asymm_v5,2020.2.10,MacIntel,60,61025ae37ef11b136ea224fe,,,,,,,,,,,,,,,,,,,,,,,,,,,,,,,,,,,,,,,,,,,,,,
,,,,,,,,,,,,83,FF,69.8223877,-59.88012695,1,0,0,response3disk_5,5,4.1509,-3.346252441,-4.00567627,1,0,0,rectangle_8,-3.346252441,-4.00567627,1,0,0,-3.346252441,-4.00567627,1,0,0,0,3,3,0,1,60ff6869e503c8c1e2be7df2,61036e2a5e84e286d741c818,2021-07-29_21h14.12.751,Simcolourproject_2stim_asymm_v5,2020.2.10,MacIntel,60,61025ae37ef11b136ea224fe,,,,,,,,,,,,,,,,,,,,,,,,,,,,,,,,,,,,,,,,,,,,,,
,,,,,,,,,,,,127,PF,-42.4375,-61.30059814,1,0,0,response5disk_5,3,3.0685,-4.835205078,0.07989502,1,0,0,rectangle_8,-57.19628906,-31.86077881,1,0,0,-6.305114746,0.35647583,1,0,0,0,4,4,4,1,60ff6869e503c8c1e2be7df2,61036e2a5e84e286d741c818,2021-07-29_21h14.12.751,Simcolourproject_2stim_asymm_v5,2020.2.10,MacIntel,60,61025ae37ef11b136ea224fe,response5disk_7,2,1.6499,2,"[2,5]",rectangle_4,,,,,,,,,,,,,,,,,,,,,,,,,,,,,,,,,,,,,,,,
,,,,,,,,,,,,36,PF,44.98797607,78.11383057,1,0,0,response1disk_5,7,2.1848,1.820739746,-9.09777832,1,0,0,rectangle_8,1.820739746,-9.09777832,1,0,0,1.820739746,-9.09777832,1,0,0,0,5,5,1,1,60ff6869e503c8c1e2be7df2,61036e2a5e84e286d741c818,2021-07-29_21h14.12.751,Simcolourproject_2stim_asymm_v5,2020.2.10,MacIntel,60,61025ae37ef11b136ea224fe,,,,,,,,,,,,,,,,,,,,,,,,,,,,,,,,,,,,,,,,,,,,,,
,,,,,,,,,,,,92,FF,40.43408203,48.93231201,1,0,0,response1disk_5,7,1.8506,-4.183227539,-10.29598999,1,0,0,rectangle_8,-4.183227539,-10.29598999,1,0,0,-4.183227539,-10.29598999,1,0,0,0,6,6,5,1,60ff6869e503c8c1e2be7df2,61036e2a5e84e286d741c818,2021-07-29_21h14.12.751,Simcolourproject_2stim_asymm_v5,2020.2.10,MacIntel,60,61025ae37ef11b136ea224fe,,,,,,,,,,,,,,,,,,,,,,,,,,,,,,,,,,,,,,,,,,,,,,
,,,,,,,,,,,,,FF,,,,,,,,2.8029,,,,,,,,,,,,,,,,,,,,,,60ff6869e503c8c1e2be7df2,61036e2a5e84e286d741c818,2021-07-29_21h14.12.751,Simcolourproject_2stim_asymm_v5,2020.2.10,MacIntel,60,61025ae37ef11b136ea224fe,,,,,,,space,2.7018,1135,-46.5501709,-73.01696777,1,0,0,response5disk,,3,3.02746582,7.546142578,1,0,0,rectangle,3.02746582,7.546142578,1,0,0,3.02746582,7.546142578,1,0,0,0,0,0,96,1,,,,,,,,
,,,,,,,,,,,,,FF,,,,,,,,1.3166,,,,,,,,,,,,,,,,,,,,,,60ff6869e503c8c1e2be7df2,61036e2a5e84e286d741c818,2021-07-29_21h14.12.751,Simcolourproject_2stim_asymm_v5,2020.2.10,MacIntel,60,61025ae37ef11b136ea224fe,,,,,,,,,1142,-36.25201416,-66.33282471,1,0,0,response5disk,,3,-3.281433105,1.17199707,1,0,0,rectangle,-3.281433105,1.17199707,1,0,0,-3.281433105,1.17199707,1,0,0,0,1,1,51,1,,,,,,,,
,,,,,,,,,,,,,FF,,,,,,,,2.8844,,,,,,,,,,,,,,,,,,,,,,60ff6869e503c8c1e2be7df2,61036e2a5e84e286d741c818,2021-07-29_21h14.12.751,Simcolourproject_2stim_asymm_v5,2020.2.10,MacIntel,60,61025ae37ef11b136ea224fe,,,,,,,,,1147,25.42626953,-78.60635376,1,0,0,response3disk,,4,11.24603271,-12.58813477,1,0,0,rectangle,11.24603271,-12.58813477,1,0,0,11.24603271,-12.58813477,1,0,0,0,2,2,79,1,,,,,,,,
,,,,,,,,,,,,,FF,,,,,,,,1.3999,,,,,,,,,,,,,,,,,,,,,,60ff6869e503c8c1e2be7df2,61036e2a5e84e286d741c818,2021-07-29_21h14.12.751,Simcolourproject_2stim_asymm_v5,2020.2.10,MacIntel,60,61025ae37ef11b136ea224fe,,,,,,,,,3882,-72.9309082,-44.87216187,1,0,0,response5disk,,2,-4.303955078,6.631652832,1,0,0,rectangle,-4.303955078,6.631652832,1,0,0,-4.303955078,6.631652832,1,0,0,0,3,3,74,1,,,,,,,,
,,,,,,,,,,,,,FF,,,,,,,,1.3668,,,,,,,,,,,,,,,,,,,,,,60ff6869e503c8c1e2be7df2,61036e2a5e84e286d741c818,2021-07-29_21h14.12.751,Simcolourproject_2stim_asymm_v5,2020.2.10,MacIntel,60,61025ae37ef11b136ea224fe,,,,,,,,,4356,-37.30908203,58.83459473,1,0,0,response7disk,,0,-2.073120117,12.60137939,1,0,0,rectangle,-2.073120117,12.60137939,1,0,0,-2.073120117,12.60137939,1,0,0,0,4,4,62,1,,,,,,,,
,,,,,,,,,,,,,FF,,,,,,,,1.9501,,,,,,,,,,,,,,,,,,,,,,60ff6869e503c8c1e2be7df2,61036e2a5e84e286d741c818,2021-07-29_21h14.12.751,Simcolourproject_2stim_asymm_v5,2020.2.10,MacIntel,60,61025ae37ef11b136ea224fe,,,,,,,,,3419,59.29638672,-42.69042969,1,0,0,response3disk,,5,-2.791259766,5.551971436,1,0,0,rectangle,-2.791259766,5.551971436,1,0,0,-2.791259766,5.551971436,1,0,0,0,5,5,20,1,,,,,,,,
,,,,,,,,,,,,,FF,,,,,,,,1.0833,,,,,,,,,,,,,,,,,,,,,,60ff6869e503c8c1e2be7df2,61036e2a5e84e286d741c818,2021-07-29_21h14.12.751,Simcolourproject_2stim_asymm_v5,2020.2.10,MacIntel,60,61025ae37ef11b136ea224fe,,,,,,,,,3794,58.98828125,44.66390991,1,0,0,response1disk,,6,-1.521911621,2.817687988,1,0,0,rectangle,-1.521911621,2.817687988,1,0,0,-1.521911621,2.817687988,1,0,0,0,6,6,118,1,,,,,,,,
,,,,,,,,,,,,,FF,,,,,,,,2.0005,,,,,,,,,,,,,,,,,,,,,,60ff6869e503c8c1e2be7df2,61036e2a5e84e286d741c818,2021-07-29_21h14.12.751,Simcolourproject_2stim_asymm_v5,2020.2.10,MacIntel,60,61025ae37ef11b136ea224fe,,,,,,,,,1744,-67.45153809,27.53820801,1,0,0,response7disk,,1,-10.44036865,13.78646851,1,0,0,rectangle,-10.44036865,13.78646851,1,0,0,-10.44036865,13.78646851,1,0,0,0,7,7,78,1,,,,,,,,
,,,,,,,,,,,,,FF,,,,,,,,1.5,,,,,,,,,,,,,,,,,,,,,,60ff6869e503c8c1e2be7df2,61036e2a5e84e286d741c818,2021-07-29_21h14.12.751,Simcolourproject_2stim_asymm_v5,2020.2.10,MacIntel,60,61025ae37ef11b136ea224fe,,,,,,,,,3857,53.45251465,35.05755615,1,0,0,response1disk,,6,14.63317871,10.73266602,1,0,0,rectangle,14.63317871,10.73266602,1,0,0,14.63317871,10.73266602,1,0,0,0,8,8,34,1,,,,,,,,
,,,,,,,,,,,,,FF,,,,,,,,1.1002,,,,,,,,,,,,,,,,,,,,,,60ff6869e503c8c1e2be7df2,61036e2a5e84e286d741c818,2021-07-29_21h14.12.751,Simcolourproject_2stim_asymm_v5,2020.2.10,MacIntel,60,61025ae37ef11b136ea224fe,,,,,,,,,385,43.58880615,71.47161865,1,0,0,response1disk,,7,-13.60339355,-4.298309326,1,0,0,rectangle,62.75292969,-34.9465332,1,0,0,3.065917969,3.309692383,1,0,0,0,9,9,26,1,,response3disk_3,TRUE,5,5,"[289,176,179,291,246,161,158,240,268,10,188,240,306,261,299,104,232,261,125,31]",1.751,rectangle
,,,,,,,,,,,,,FF,,,,,,,,2.7512,,,,,,,,,,,,,,,,,,,,,,60ff6869e503c8c1e2be7df2,61036e2a5e84e286d741c818,2021-07-29_21h14.12.751,Simcolourproject_2stim_asymm_v5,2020.2.10,MacIntel,60,61025ae37ef11b136ea224fe,,,,,,,,,439,26.11444092,-73.74069214,1,0,0,response3disk,,4,-10.29345703,-8.074523926,1,0,0,rectangle,-10.29345703,-8.074523926,1,0,0,-10.29345703,-8.074523926,1,0,0,0,10,10,144,1,,,,,,,,
,,,,,,,,,,,,,FF,,,,,,,,1.9674,,,,,,,,,,,,,,,,,,,,,,60ff6869e503c8c1e2be7df2,61036e2a5e84e286d741c818,2021-07-29_21h14.12.751,Simcolourproject_2stim_asymm_v5,2020.2.10,MacIntel,60,61025ae37ef11b136ea224fe,,,,,,,,,2686,66.25811768,20.77911377,1,0,0,response1disk,,6,1.475830078,-0.142333984,1,0,0,rectangle,1.475830078,-0.142333984,1,0,0,1.475830078,-0.142333984,1,0,0,0,11,11,127,1,,,,,,,,
,,,,,,,,,,,,,FF,,,,,,,,3.5187,,,,,,,,,,,,,,,,,,,,,,60ff6869e503c8c1e2be7df2,61036e2a5e84e286d741c818,2021-07-29_21h14.12.751,Simcolourproject_2stim_asymm_v5,2020.2.10,MacIntel,60,61025ae37ef11b136ea224fe,,,,,,,,,3634,70.05725098,-35.47354126,1,0,0,response3disk,,5,8.805847168,7.308288574,1,0,0,rectangle,8.805847168,7.308288574,1,0,0,8.805847168,7.308288574,1,0,0,0,12,12,83,1,,,,,,,,
,,,,,,,,,,,,,FF,,,,,,,,3.5862,,,,,,,,,,,,,,,,,,,,,,60ff6869e503c8c1e2be7df2,61036e2a5e84e286d741c818,2021-07-29_21h14.12.751,Simcolourproject_2stim_asymm_v5,2020.2.10,MacIntel,60,61025ae37ef11b136ea224fe,,,,,,,,,3749,-38.30310059,-58.14331055,1,0,0,response5disk,,3,0.461608887,-5.523498535,1,0,0,rectangle,0.461608887,-5.523498535,1,0,0,0.461608887,-5.523498535,1,0,0,0,13,13,155,1,,,,,,,,
,,,,,,,,,,,,,FF,,,,,,,,1.1669,,,,,,,,,,,,,,,,,,,,,,60ff6869e503c8c1e2be7df2,61036e2a5e84e286d741c818,2021-07-29_21h14.12.751,Simcolourproject_2stim_asymm_v5,2020.2.10,MacIntel,60,61025ae37ef11b136ea224fe,,,,,,,,,3642,36.09375,64.05322266,1,0,0,response1disk,,7,4.538818359,-4.17956543,1,0,0,rectangle,4.538818359,-4.17956543,1,0,0,4.538818359,-4.17956543,1,0,0,0,14,14,97,1,,,,,,,,
,,,,,,,,,,,,,FF,,,,,,,,1.3177,,,,,,,,,,,,,,,,,,,,,,60ff6869e503c8c1e2be7df2,61036e2a5e84e286d741c818,2021-07-29_21h14.12.751,Simcolourproject_2stim_asymm_v5,2020.2.10,MacIntel,60,61025ae37ef11b136ea224fe,,,,,,,,,2356,-59.94946289,40.09375,1,0,0,response7disk,,1,4.927490234,-0.961212158,1,0,0,rectangle,4.927490234,-0.961212158,1,0,0,4.927490234,-0.961212158,1,0,0,0,15,15,102,1,,,,,,,,
,,,,,,,,,,,,,FF,,,,,,,,4.4186,,,,,,,,,,,,,,,,,,,,,,60ff6869e503c8c1e2be7df2,61036e2a5e84e286d741c818,2021-07-29_21h14.12.751,Simcolourproject_2stim_asymm_v5,2020.2.10,MacIntel,60,61025ae37ef11b136ea224fe,,,,,,,,,2402,53.79052734,26.29492188,1,0,0,response1disk,,6,-8.22833252,-5.371948242,1,0,0,rectangle,-8.22833252,-5.371948242,1,0,0,-8.22833252,-5.371948242,1,0,0,0,16,16,84,1,,,,,,,,
,,,,,,,,,,,,,FF,,,,,,,,1.2841,,,,,,,,,,,,,,,,,,,,,,60ff6869e503c8c1e2be7df2,61036e2a5e84e286d741c818,2021-07-29_21h14.12.751,Simcolourproject_2stim_asymm_v5,2020.2.10,MacIntel,60,61025ae37ef11b136ea224fe,,,,,,,,,3760,56.35919189,22.47186279,1,0,0,response1disk,,6,-6.547668457,-7.185302734,1,0,0,rectangle,-6.547668457,-7.185302734,1,0,0,-6.547668457,-7.185302734,1,0,0,0,17,17,107,1,,,,,,,,
,,,,,,,,,,,,,FF,,,,,,,,1.1843,,,,,,,,,,,,,,,,,,,,,,60ff6869e503c8c1e2be7df2,61036e2a5e84e286d741c818,2021-07-29_21h14.12.751,Simcolourproject_2stim_asymm_v5,2020.2.10,MacIntel,60,61025ae37ef11b136ea224fe,,,,,,,,,2655,40.7623291,-62.72155762,1,0,0,response3disk,,4,11.94104004,-1.452880859,1,0,0,rectangle,11.94104004,-1.452880859,1,0,0,11.94104004,-1.452880859,1,0,0,0,18,18,87,1,,,,,,,,
,,,,,,,,,,,,,FF,,,,,,,,1.0014,,,,,,,,,,,,,,,,,,,,,,60ff6869e503c8c1e2be7df2,61036e2a5e84e286d741c818,2021-07-29_21h14.12.751,Simcolourproject_2stim_asymm_v5,2020.2.10,MacIntel,60,61025ae37ef11b136ea224fe,,,,,,,,,275,21.8951416,52.74310303,1,0,0,response1disk,,7,3.901000977,-14.65475464,1,0,0,rectangle,3.901000977,-14.65475464,1,0,0,3.901000977,-14.65475464,1,0,0,0,19,19,159,1,,,,,,,,
,,,,,,,,,,,,,FF,,,,,,,,0.8837,,,,,,,,,,,,,,,,,,,,,,60ff6869e503c8c1e2be7df2,61036e2a5e84e286d741c818,2021-07-29_21h14.12.751,Simcolourproject_2stim_asymm_v5,2020.2.10,MacIntel,60,61025ae37ef11b136ea224fe,,,,,,,,,2530,24.1060791,52.12017822,1,0,0,response1disk,,7,0.743896484,-2.061462402,1,0,0,rectangle,0.743896484,-2.061462402,1,0,0,0.743896484,-2.061462402,1,0,0,0,20,20,94,1,,,,,,,,
,,,,,,,,,,,,,FF,,,,,,,,1.5336,,,,,,,,,,,,,,,,,,,,,,60ff6869e503c8c1e2be7df2,61036e2a5e84e286d741c818,2021-07-29_21h14.12.751,Simcolourproject_2stim_asymm_v5,2020.2.10,MacIntel,60,61025ae37ef11b136ea224fe,,,,,,,,,4205,-41.2131958,58.84240723,1,0,0,response7disk,,0,1.20904541,10.93743896,1,0,0,rectangle,1.20904541,10.93743896,1,0,0,1.20904541,10.93743896,1,0,0,0,21,21,104,1,,,,,,,,
,,,,,,,,,,,,,FF,,,,,,,,1.6673,,,,,,,,,,,,,,,,,,,,,,60ff6869e503c8c1e2be7df2,61036e2a5e84e286d741c818,2021-07-29_21h14.12.751,Simcolourproject_2stim_asymm_v5,2020.2.10,MacIntel,60,61025ae37ef11b136ea224fe,,,,,,,,,1381,-36.58288574,-73.43652344,1,0,0,response5disk,,3,-17.87121582,-5.891296387,1,0,0,rectangle,-17.87121582,-5.891296387,1,0,0,-17.87121582,-5.891296387,1,0,0,0,22,22,57,1,,,,,,,,
,,,,,,,,,,,,,FF,,,,,,,,0.9342,,,,,,,,,,,,,,,,,,,,,,60ff6869e503c8c1e2be7df2,61036e2a5e84e286d741c818,2021-07-29_21h14.12.751,Simcolourproject_2stim_asymm_v5,2020.2.10,MacIntel,60,61025ae37ef11b136ea224fe,,,,,,,,,2907,32.47955322,-81.87683105,1,0,0,response3disk,,4,-0.322814941,0.82208252,1,0,0,rectangle,-0.322814941,0.82208252,1,0,0,-0.322814941,0.82208252,1,0,0,0,23,23,115,1,,,,,,,,
,,,,,,,,,,,,,FF,,,,,,,,1.611,,,,,,,,,,,,,,,,,,,,,,60ff6869e503c8c1e2be7df2,61036e2a5e84e286d741c818,2021-07-29_21h14.12.751,Simcolourproject_2stim_asymm_v5,2020.2.10,MacIntel,60,61025ae37ef11b136ea224fe,,,,,,,,,807,-63.3939209,-30.2359314,1,0,0,response5disk,,2,-10.527771,-1.970611572,1,0,0,rectangle,-10.527771,-1.970611572,1,0,0,-10.527771,-1.970611572,1,0,0,0,24,24,145,1,,,,,,,,
,,,,,,,,,,,,,FF,,,,,,,,1.0007,,,,,,,,,,,,,,,,,,,,,,60ff6869e503c8c1e2be7df2,61036e2a5e84e286d741c818,2021-07-29_21h14.12.751,Simcolourproject_2stim_asymm_v5,2020.2.10,MacIntel,60,61025ae37ef11b136ea224fe,,,,,,,,,978,25.62243652,-80.88690186,1,0,0,response3disk,,4,-0.086547852,-0.433166504,1,0,0,rectangle,-0.086547852,-0.433166504,1,0,0,-0.086547852,-0.433166504,1,0,0,0,25,25,125,1,,,,,,,,
,,,,,,,,,,,,,FF,,,,,,,,2.1344,,,,,,,,,,,,,,,,,,,,,,60ff6869e503c8c1e2be7df2,61036e2a5e84e286d741c818,2021-07-29_21h14.12.751,Simcolourproject_2stim_asymm_v5,2020.2.10,MacIntel,60,61025ae37ef11b136ea224fe,,,,,,,,,3038,-26.57641602,-71.89682007,1,0,0,response5disk,,3,4.57421875,-6.752990723,1,0,0,rectangle,4.57421875,-6.752990723,1,0,0,4.57421875,-6.752990723,1,0,0,0,26,26,4,1,,,,,,,,
,,,,,,,,,,,,,FF,,,,,,,,2.4665,,,,,,,,,,,,,,,,,,,,,,60ff6869e503c8c1e2be7df2,61036e2a5e84e286d741c818,2021-07-29_21h14.12.751,Simcolourproject_2stim_asymm_v5,2020.2.10,MacIntel,60,61025ae37ef11b136ea224fe,,,,,,,,,741,30.71612549,-56.21459961,1,0,0,response3disk,,4,-1.790405273,-3.073669434,1,0,0,rectangle,-1.790405273,-3.073669434,1,0,0,-1.790405273,-3.073669434,1,0,0,0,27,27,67,1,,,,,,,,
,,,,,,,,,,,,,FF,,,,,,,,1.2491,,,,,,,,,,,,,,,,,,,,,,60ff6869e503c8c1e2be7df2,61036e2a5e84e286d741c818,2021-07-29_21h14.12.751,Simcolourproject_2stim_asymm_v5,2020.2.10,MacIntel,60,61025ae37ef11b136ea224fe,,,,,,,,,3532,57.4230957,36.71887207,1,0,0,response1disk,,6,6.067749023,3.03314209,1,0,0,rectangle,6.067749023,3.03314209,1,0,0,6.067749023,3.03314209,1,0,0,0,28,28,135,1,,,,,,,,
,,,,,,,,,,,,,FF,,,,,,,,1.8994,,,,,,,,,,,,,,,,,,,,,,60ff6869e503c8c1e2be7df2,61036e2a5e84e286d741c818,2021-07-29_21h14.12.751,Simcolourproject_2stim_asymm_v5,2020.2.10,MacIntel,60,61025ae37ef11b136ea224fe,,,,,,,,,436,43.16381836,-69.24273682,1,0,0,response3disk,,4,-5.745117188,3.113220215,1,0,0,rectangle,-5.745117188,3.113220215,1,0,0,-5.745117188,3.113220215,1,0,0,0,29,29,130,1,,,,,,,,
,,,,,,,,,,,,,FF,,,,,,,,1.0504,,,,,,,,,,,,,,,,,,,,,,60ff6869e503c8c1e2be7df2,61036e2a5e84e286d741c818,2021-07-29_21h14.12.751,Simcolourproject_2stim_asymm_v5,2020.2.10,MacIntel,60,61025ae37ef11b136ea224fe,,,,,,,,,2254,19.05432129,42.91790771,1,0,0,response1disk,,7,-12.41259766,-5.466430664,1,0,0,rectangle,44.85229492,-66.55541992,1,0,0,12.33215332,8.598236084,1,0,0,0,30,30,46,1,,response3disk_3,TRUE,4,4,"[289,176,179,291,246,161,158,240,268,10,188,240,306,261,299,104,232,261,125,31]",1.4808,rectangle
,,,,,,,,,,,,,FF,,,,,,,,2.2183,,,,,,,,,,,,,,,,,,,,,,60ff6869e503c8c1e2be7df2,61036e2a5e84e286d741c818,2021-07-29_21h14.12.751,Simcolourproject_2stim_asymm_v5,2020.2.10,MacIntel,60,61025ae37ef11b136ea224fe,,,,,,,,,3392,-34.68164063,-63.81481934,1,0,0,response5disk,,3,-7.448364258,-5.893981934,1,0,0,rectangle,-7.448364258,-5.893981934,1,0,0,-7.448364258,-5.893981934,1,0,0,0,31,31,54,1,,,,,,,,
,,,,,,,,,,,,,FF,,,,,,,,1.1835,,,,,,,,,,,,,,,,,,,,,,60ff6869e503c8c1e2be7df2,61036e2a5e84e286d741c818,2021-07-29_21h14.12.751,Simcolourproject_2stim_asymm_v5,2020.2.10,MacIntel,60,61025ae37ef11b136ea224fe,,,,,,,,,872,23.72314453,47.85766602,1,0,0,response1disk,,7,0.046142578,6.129333496,1,0,0,rectangle,0.046142578,6.129333496,1,0,0,0.046142578,6.129333496,1,0,0,0,32,32,138,1,,,,,,,,
,,,,,,,,,,,,,FF,,,,,,,,1.0663,,,,,,,,,,,,,,,,,,,,,,60ff6869e503c8c1e2be7df2,61036e2a5e84e286d741c818,2021-07-29_21h14.12.751,Simcolourproject_2stim_asymm_v5,2020.2.10,MacIntel,60,61025ae37ef11b136ea224fe,,,,,,,,,1784,19.98309326,89.84786987,1,0,0,response1disk,,7,0.326171875,4.589782715,1,0,0,rectangle,0.326171875,4.589782715,1,0,0,0.326171875,4.589782715,1,0,0,0,33,33,120,1,,,,,,,,
,,,,,,,,,,,,,FF,,,,,,,,1.0003,,,,,,,,,,,,,,,,,,,,,,60ff6869e503c8c1e2be7df2,61036e2a5e84e286d741c818,2021-07-29_21h14.12.751,Simcolourproject_2stim_asymm_v5,2020.2.10,MacIntel,60,61025ae37ef11b136ea224fe,,,,,,,,,3931,24.64465332,56.29748535,1,0,0,response1disk,,7,5.405761719,0.195373535,1,0,0,rectangle,5.405761719,0.195373535,1,0,0,5.405761719,0.195373535,1,0,0,0,34,34,52,1,,,,,,,,
,,,,,,,,,,,,,FF,,,,,,,,1.0339,,,,,,,,,,,,,,,,,,,,,,60ff6869e503c8c1e2be7df2,61036e2a5e84e286d741c818,2021-07-29_21h14.12.751,Simcolourproject_2stim_asymm_v5,2020.2.10,MacIntel,60,61025ae37ef11b136ea224fe,,,,,,,,,3193,56.6149292,14.94891357,1,0,0,response1disk,,6,6.095703125,-7.89743042,1,0,0,rectangle,6.095703125,-7.89743042,1,0,0,6.095703125,-7.89743042,1,0,0,0,35,35,112,1,,,,,,,,
,,,,,,,,,,,,,FF,,,,,,,,0.8179,,,,,,,,,,,,,,,,,,,,,,60ff6869e503c8c1e2be7df2,61036e2a5e84e286d741c818,2021-07-29_21h14.12.751,Simcolourproject_2stim_asymm_v5,2020.2.10,MacIntel,60,61025ae37ef11b136ea224fe,,,,,,,,,3325,19.07867432,49.40731812,1,0,0,response1disk,,7,2.792602539,7.418304443,1,0,0,rectangle,2.792602539,7.418304443,1,0,0,2.792602539,7.418304443,1,0,0,0,36,36,153,1,,,,,,,,
,,,,,,,,,,,,,FF,,,,,,,,1.0167,,,,,,,,,,,,,,,,,,,,,,60ff6869e503c8c1e2be7df2,61036e2a5e84e286d741c818,2021-07-29_21h14.12.751,Simcolourproject_2stim_asymm_v5,2020.2.10,MacIntel,60,61025ae37ef11b136ea224fe,,,,,,,,,1816,-58.56933594,31.97589111,1,0,0,response7disk,,1,-9.171508789,12.32241821,1,0,0,rectangle,-9.171508789,12.32241821,1,0,0,-9.171508789,12.32241821,1,0,0,0,37,37,143,1,,,,,,,,
,,,,,,,,,,,,,FF,,,,,,,,1.7507,,,,,,,,,,,,,,,,,,,,,,60ff6869e503c8c1e2be7df2,61036e2a5e84e286d741c818,2021-07-29_21h14.12.751,Simcolourproject_2stim_asymm_v5,2020.2.10,MacIntel,60,61025ae37ef11b136ea224fe,,,,,,,,,1226,-39.309021,-74.59277344,1,0,0,response5disk,,3,-2.354187012,5.338806152,1,0,0,rectangle,-2.354187012,5.338806152,1,0,0,-2.354187012,5.338806152,1,0,0,0,38,38,40,1,,,,,,,,
,,,,,,,,,,,,,FF,,,,,,,,0.833,,,,,,,,,,,,,,,,,,,,,,60ff6869e503c8c1e2be7df2,61036e2a5e84e286d741c818,2021-07-29_21h14.12.751,Simcolourproject_2stim_asymm_v5,2020.2.10,MacIntel,60,61025ae37ef11b136ea224fe,,,,,,,,,1351,37.17431641,39.55258179,1,0,0,response1disk,,7,16.85961914,-9.210083008,1,0,0,rectangle,16.85961914,-9.210083008,1,0,0,16.85961914,-9.210083008,1,0,0,0,39,39,151,1,,,,,,,,
,,,,,,,,,,,,,FF,,,,,,,,0.8174,,,,,,,,,,,,,,,,,,,,,,60ff6869e503c8c1e2be7df2,61036e2a5e84e286d741c818,2021-07-29_21h14.12.751,Simcolourproject_2stim_asymm_v5,2020.2.10,MacIntel,60,61025ae37ef11b136ea224fe,,,,,,,,,2629,18.77197266,63.93231201,1,0,0,response1disk,,7,-7.352050781,10.75512695,1,0,0,rectangle,-7.352050781,10.75512695,1,0,0,-7.352050781,10.75512695,1,0,0,0,40,40,53,1,,,,,,,,
,,,,,,,,,,,,,FF,,,,,,,,1.0006,,,,,,,,,,,,,,,,,,,,,,60ff6869e503c8c1e2be7df2,61036e2a5e84e286d741c818,2021-07-29_21h14.12.751,Simcolourproject_2stim_asymm_v5,2020.2.10,MacIntel,60,61025ae37ef11b136ea224fe,,,,,,,,,3278,24.03918457,57.64248657,1,0,0,response1disk,,7,-2.163146973,4.531494141,1,0,0,rectangle,-2.163146973,4.531494141,1,0,0,-2.163146973,4.531494141,1,0,0,0,41,41,117,1,,,,,,,,
,,,,,,,,,,,,,FF,,,,,,,,1.3174,,,,,,,,,,,,,,,,,,,,,,60ff6869e503c8c1e2be7df2,61036e2a5e84e286d741c818,2021-07-29_21h14.12.751,Simcolourproject_2stim_asymm_v5,2020.2.10,MacIntel,60,61025ae37ef11b136ea224fe,,,,,,,,,2021,22.60064697,65.31466675,1,0,0,response1disk,,7,3.249938965,4.919403076,1,0,0,rectangle,3.249938965,4.919403076,1,0,0,3.249938965,4.919403076,1,0,0,0,42,42,119,1,,,,,,,,
,,,,,,,,,,,,,FF,,,,,,,,0.8666,,,,,,,,,,,,,,,,,,,,,,60ff6869e503c8c1e2be7df2,61036e2a5e84e286d741c818,2021-07-29_21h14.12.751,Simcolourproject_2stim_asymm_v5,2020.2.10,MacIntel,60,61025ae37ef11b136ea224fe,,,,,,,,,2490,42.12445068,25.32867432,1,0,0,response1disk,,6,-4.172363281,-6.324951172,1,0,0,rectangle,-4.172363281,-6.324951172,1,0,0,-4.172363281,-6.324951172,1,0,0,0,43,43,36,1,,,,,,,,
,,,,,,,,,,,,,FF,,,,,,,,2.9687,,,,,,,,,,,,,,,,,,,,,,60ff6869e503c8c1e2be7df2,61036e2a5e84e286d741c818,2021-07-29_21h14.12.751,Simcolourproject_2stim_asymm_v5,2020.2.10,MacIntel,60,61025ae37ef11b136ea224fe,,,,,,,,,3862,48.37115479,26.48742676,1,0,0,response1disk,,6,6.85925293,13.10021973,1,0,0,rectangle,6.85925293,13.10021973,1,0,0,6.85925293,13.10021973,1,0,0,0,44,44,156,1,,,,,,,,
,,,,,,,,,,,,,FF,,,,,,,,0.8014,,,,,,,,,,,,,,,,,,,,,,60ff6869e503c8c1e2be7df2,61036e2a5e84e286d741c818,2021-07-29_21h14.12.751,Simcolourproject_2stim_asymm_v5,2020.2.10,MacIntel,60,61025ae37ef11b136ea224fe,,,,,,,,,4156,37.49121094,52.82385254,1,0,0,response1disk,,7,8.030578613,2.526611328,1,0,0,rectangle,8.030578613,2.526611328,1,0,0,8.030578613,2.526611328,1,0,0,0,45,45,48,1,,,,,,,,
,,,,,,,,,,,,,FF,,,,,,,,1.3177,,,,,,,,,,,,,,,,,,,,,,60ff6869e503c8c1e2be7df2,61036e2a5e84e286d741c818,2021-07-29_21h14.12.751,Simcolourproject_2stim_asymm_v5,2020.2.10,MacIntel,60,61025ae37ef11b136ea224fe,,,,,,,,,1457,-66.11383057,-43.39065552,1,0,0,response5disk,,2,-10.0501709,-1.822998047,1,0,0,rectangle,-10.0501709,-1.822998047,1,0,0,-10.0501709,-1.822998047,1,0,0,0,46,46,124,1,,,,,,,,
,,,,,,,,,,,,,FF,,,,,,,,1.8511,,,,,,,,,,,,,,,,,,,,,,60ff6869e503c8c1e2be7df2,61036e2a5e84e286d741c818,2021-07-29_21h14.12.751,Simcolourproject_2stim_asymm_v5,2020.2.10,MacIntel,60,61025ae37ef11b136ea224fe,,,,,,,,,1826,-65.31298828,-39.78469849,1,0,0,response5disk,,2,-10.83886719,-15.72396851,1,0,0,rectangle,-10.83886719,-15.72396851,1,0,0,-10.83886719,-15.72396851,1,0,0,0,47,47,21,1,,,,,,,,
,,,,,,,,,,,,,FF,,,,,,,,1.7339,,,,,,,,,,,,,,,,,,,,,,60ff6869e503c8c1e2be7df2,61036e2a5e84e286d741c818,2021-07-29_21h14.12.751,Simcolourproject_2stim_asymm_v5,2020.2.10,MacIntel,60,61025ae37ef11b136ea224fe,,,,,,,,,1850,58.02258301,-51.29974365,1,0,0,response3disk,,5,-6.012451172,2.399993896,1,0,0,rectangle,-6.012451172,2.399993896,1,0,0,-6.012451172,2.399993896,1,0,0,0,48,48,23,1,,,,,,,,
,,,,,,,,,,,,,FF,,,,,,,,0.8169,,,,,,,,,,,,,,,,,,,,,,60ff6869e503c8c1e2be7df2,61036e2a5e84e286d741c818,2021-07-29_21h14.12.751,Simcolourproject_2stim_asymm_v5,2020.2.10,MacIntel,60,61025ae37ef11b136ea224fe,,,,,,,,,3925,36.57177734,26.63565063,1,0,0,response1disk,,6,-17.3684082,-7.822570801,1,0,0,rectangle,-17.3684082,-7.822570801,1,0,0,-17.3684082,-7.822570801,1,0,0,0,49,49,31,1,,,,,,,,
,,,,,,,,,,,,,FF,,,,,,,,0.9004,,,,,,,,,,,,,,,,,,,,,,60ff6869e503c8c1e2be7df2,61036e2a5e84e286d741c818,2021-07-29_21h14.12.751,Simcolourproject_2stim_asymm_v5,2020.2.10,MacIntel,60,61025ae37ef11b136ea224fe,,,,,,,,,2250,56.24908447,-28.26351929,1,0,0,response3disk,,5,3.054443359,-10.54040527,1,0,0,rectangle,3.054443359,-10.54040527,1,0,0,3.054443359,-10.54040527,1,0,0,0,50,50,39,1,,,,,,,,
,,,,,,,,,,,,,FF,,,,,,,,1.0499,,,,,,,,,,,,,,,,,,,,,,60ff6869e503c8c1e2be7df2,61036e2a5e84e286d741c818,2021-07-29_21h14.12.751,Simcolourproject_2stim_asymm_v5,2020.2.10,MacIntel,60,61025ae37ef11b136ea224fe,,,,,,,,,1851,21.22393799,52.22564697,1,0,0,response1disk,,7,-4.988464355,2.521972656,1,0,0,rectangle,-4.988464355,2.521972656,1,0,0,-4.988464355,2.521972656,1,0,0,0,51,51,149,1,,,,,,,,
,,,,,,,,,,,,,FF,,,,,,,,1.5006,,,,,,,,,,,,,,,,,,,,,,60ff6869e503c8c1e2be7df2,61036e2a5e84e286d741c818,2021-07-29_21h14.12.751,Simcolourproject_2stim_asymm_v5,2020.2.10,MacIntel,60,61025ae37ef11b136ea224fe,,,,,,,,,3141,23.55450439,-68.43188477,1,0,0,response3disk,,4,-11.29748535,-3.1015625,1,0,0,rectangle,-11.29748535,-3.1015625,1,0,0,-11.29748535,-3.1015625,1,0,0,0,52,52,89,1,,,,,,,,
,,,,,,,,,,,,,FF,,,,,,,,1.3845,,,,,,,,,,,,,,,,,,,,,,60ff6869e503c8c1e2be7df2,61036e2a5e84e286d741c818,2021-07-29_21h14.12.751,Simcolourproject_2stim_asymm_v5,2020.2.10,MacIntel,60,61025ae37ef11b136ea224fe,,,,,,,,,1659,30.70648193,48.30181885,1,0,0,response1disk,,7,-16.68756104,-3.379211426,1,0,0,rectangle,-16.68756104,-3.379211426,1,0,0,-16.68756104,-3.379211426,1,0,0,0,53,53,47,1,,,,,,,,
,,,,,,,,,,,,,FF,,,,,,,,1.1164,,,,,,,,,,,,,,,,,,,,,,60ff6869e503c8c1e2be7df2,61036e2a5e84e286d741c818,2021-07-29_21h14.12.751,Simcolourproject_2stim_asymm_v5,2020.2.10,MacIntel,60,61025ae37ef11b136ea224fe,,,,,,,,,3876,56.29937744,30.22772217,1,0,0,response1disk,,6,-4.619018555,-5.250152588,1,0,0,rectangle,-4.619018555,-5.250152588,1,0,0,-4.619018555,-5.250152588,1,0,0,0,54,54,49,1,,,,,,,,
,,,,,,,,,,,,,FF,,,,,,,,1.2681,,,,,,,,,,,,,,,,,,,,,,60ff6869e503c8c1e2be7df2,61036e2a5e84e286d741c818,2021-07-29_21h14.12.751,Simcolourproject_2stim_asymm_v5,2020.2.10,MacIntel,60,61025ae37ef11b136ea224fe,,,,,,,,,624,20.15020752,57.63494873,1,0,0,response1disk,,7,-9.100708008,0.017883301,1,0,0,rectangle,-9.100708008,0.017883301,1,0,0,-9.100708008,0.017883301,1,0,0,0,55,55,75,1,,,,,,,,
,,,,,,,,,,,,,FF,,,,,,,,5.1854,,,,,,,,,,,,,,,,,,,,,,60ff6869e503c8c1e2be7df2,61036e2a5e84e286d741c818,2021-07-29_21h14.12.751,Simcolourproject_2stim_asymm_v5,2020.2.10,MacIntel,60,61025ae37ef11b136ea224fe,,,,,,,,,3688,76.55877686,38.12872314,1,0,0,response1disk,,6,15.90325928,0.716827393,1,0,0,rectangle,15.90325928,0.716827393,1,0,0,15.90325928,0.716827393,1,0,0,0,56,56,6,1,,,,,,,,
,,,,,,,,,,,,,FF,,,,,,,,1.0499,,,,,,,,,,,,,,,,,,,,,,60ff6869e503c8c1e2be7df2,61036e2a5e84e286d741c818,2021-07-29_21h14.12.751,Simcolourproject_2stim_asymm_v5,2020.2.10,MacIntel,60,61025ae37ef11b136ea224fe,,,,,,,,,1128,17.12890625,56.54656982,1,0,0,response1disk,,7,-5.443603516,7.130310059,1,0,0,rectangle,-5.443603516,7.130310059,1,0,0,-5.443603516,7.130310059,1,0,0,0,57,57,137,1,,,,,,,,
,,,,,,,,,,,,,FF,,,,,,,,0.9663,,,,,,,,,,,,,,,,,,,,,,60ff6869e503c8c1e2be7df2,61036e2a5e84e286d741c818,2021-07-29_21h14.12.751,Simcolourproject_2stim_asymm_v5,2020.2.10,MacIntel,60,61025ae37ef11b136ea224fe,,,,,,,,,81,28.59082031,18.83990479,1,0,0,response1disk,,6,0.578674316,5.999755859,1,0,0,rectangle,0.578674316,5.999755859,1,0,0,0.578674316,5.999755859,1,0,0,0,58,58,45,1,,,,,,,,
,,,,,,,,,,,,,FF,,,,,,,,0.9492,,,,,,,,,,,,,,,,,,,,,,60ff6869e503c8c1e2be7df2,61036e2a5e84e286d741c818,2021-07-29_21h14.12.751,Simcolourproject_2stim_asymm_v5,2020.2.10,MacIntel,60,61025ae37ef11b136ea224fe,,,,,,,,,302,19.36480713,58.38433838,1,0,0,response1disk,,7,-1.639892578,4.912780762,1,0,0,rectangle,-1.639892578,4.912780762,1,0,0,-1.639892578,4.912780762,1,0,0,0,59,59,139,1,,,,,,,,
,,,,,,,,,,,,,FF,,,,,,,,2.9839,,,,,,,,,,,,,,,,,,,,,,60ff6869e503c8c1e2be7df2,61036e2a5e84e286d741c818,2021-07-29_21h14.12.751,Simcolourproject_2stim_asymm_v5,2020.2.10,MacIntel,60,61025ae37ef11b136ea224fe,,,,,,,,,106,74.94750977,-20.64822388,1,0,0,response3disk,,5,-2.128051758,8.19317627,1,0,0,rectangle,-2.128051758,8.19317627,1,0,0,-2.128051758,8.19317627,1,0,0,0,60,60,12,1,,,,,,,,
,,,,,,,,,,,,,FF,,,,,,,,1.2175,,,,,,,,,,,,,,,,,,,,,,60ff6869e503c8c1e2be7df2,61036e2a5e84e286d741c818,2021-07-29_21h14.12.751,Simcolourproject_2stim_asymm_v5,2020.2.10,MacIntel,60,61025ae37ef11b136ea224fe,,,,,,,,,4134,17.63043213,37.49957275,1,0,0,response1disk,,7,11.09338379,8.408538818,1,0,0,rectangle,11.09338379,8.408538818,1,0,0,11.09338379,8.408538818,1,0,0,0,61,61,64,1,,,,,,,,
,,,,,,,,,,,,,FF,,,,,,,,2.0676,,,,,,,,,,,,,,,,,,,,,,60ff6869e503c8c1e2be7df2,61036e2a5e84e286d741c818,2021-07-29_21h14.12.751,Simcolourproject_2stim_asymm_v5,2020.2.10,MacIntel,60,61025ae37ef11b136ea224fe,,,,,,,,,3494,36.86047363,59.003479,1,0,0,response1disk,,7,-0.624145508,-6.489715576,1,0,0,rectangle,-0.624145508,-6.489715576,1,0,0,-0.624145508,-6.489715576,1,0,0,0,62,62,147,1,,,,,,,,
,,,,,,,,,,,,,FF,,,,,,,,0.8004,,,,,,,,,,,,,,,,,,,,,,60ff6869e503c8c1e2be7df2,61036e2a5e84e286d741c818,2021-07-29_21h14.12.751,Simcolourproject_2stim_asymm_v5,2020.2.10,MacIntel,60,61025ae37ef11b136ea224fe,,,,,,,,,2344,19.25549316,45.35040283,1,0,0,response1disk,,7,-2.953430176,-10.58172607,1,0,0,rectangle,-2.953430176,-10.58172607,1,0,0,-2.953430176,-10.58172607,1,0,0,0,63,63,106,1,,,,,,,,
,,,,,,,,,,,,,FF,,,,,,,,0.9348,,,,,,,,,,,,,,,,,,,,,,60ff6869e503c8c1e2be7df2,61036e2a5e84e286d741c818,2021-07-29_21h14.12.751,Simcolourproject_2stim_asymm_v5,2020.2.10,MacIntel,60,61025ae37ef11b136ea224fe,,,,,,,,,1954,46.95574951,21.27481079,1,0,0,response1disk,,6,-0.899108887,0.00479126,1,0,0,rectangle,-0.899108887,0.00479126,1,0,0,-0.899108887,0.00479126,1,0,0,0,64,64,148,1,,,,,,,,
,,,,,,,,,,,,,FF,,,,,,,,1.4512,,,,,,,,,,,,,,,,,,,,,,60ff6869e503c8c1e2be7df2,61036e2a5e84e286d741c818,2021-07-29_21h14.12.751,Simcolourproject_2stim_asymm_v5,2020.2.10,MacIntel,60,61025ae37ef11b136ea224fe,,,,,,,,,2485,33.25518799,-73.37902832,1,0,0,response3disk,,4,12.1328125,4.945007324,1,0,0,rectangle,12.1328125,4.945007324,1,0,0,12.1328125,4.945007324,1,0,0,0,65,65,11,1,,,,,,,,
,,,,,,,,,,,,,FF,,,,,,,,0.785,,,,,,,,,,,,,,,,,,,,,,60ff6869e503c8c1e2be7df2,61036e2a5e84e286d741c818,2021-07-29_21h14.12.751,Simcolourproject_2stim_asymm_v5,2020.2.10,MacIntel,60,61025ae37ef11b136ea224fe,,,,,,,,,3174,30.63049316,44.71722412,1,0,0,response1disk,,7,13.44281006,-3.761444092,1,0,0,rectangle,13.44281006,-3.761444092,1,0,0,13.44281006,-3.761444092,1,0,0,0,66,66,101,1,,,,,,,,
,,,,,,,,,,,,,FF,,,,,,,,2.5213,,,,,,,,,,,,,,,,,,,,,,60ff6869e503c8c1e2be7df2,61036e2a5e84e286d741c818,2021-07-29_21h14.12.751,Simcolourproject_2stim_asymm_v5,2020.2.10,MacIntel,60,61025ae37ef11b136ea224fe,,,,,,,,,3291,-70.08825684,26.0614624,1,0,0,response7disk,,1,-15.39196777,10.03475952,1,0,0,rectangle,-15.39196777,10.03475952,1,0,0,-15.39196777,10.03475952,1,0,0,0,67,67,65,1,,,,,,,,
,,,,,,,,,,,,,FF,,,,,,,,0.802,,,,,,,,,,,,,,,,,,,,,,60ff6869e503c8c1e2be7df2,61036e2a5e84e286d741c818,2021-07-29_21h14.12.751,Simcolourproject_2stim_asymm_v5,2020.2.10,MacIntel,60,61025ae37ef11b136ea224fe,,,,,,,,,948,20.70623779,43.36407471,1,0,0,response1disk,,7,-5.765319824,-1.18560791,1,0,0,rectangle,-5.765319824,-1.18560791,1,0,0,-5.765319824,-1.18560791,1,0,0,0,68,68,56,1,,,,,,,,
,,,,,,,,,,,,,FF,,,,,,,,1.5516,,,,,,,,,,,,,,,,,,,,,,60ff6869e503c8c1e2be7df2,61036e2a5e84e286d741c818,2021-07-29_21h14.12.751,Simcolourproject_2stim_asymm_v5,2020.2.10,MacIntel,60,61025ae37ef11b136ea224fe,,,,,,,,,2865,23.08978271,51.00939941,1,0,0,response1disk,,7,2.313964844,7.910339355,1,0,0,rectangle,2.313964844,7.910339355,1,0,0,2.313964844,7.910339355,1,0,0,0,69,69,13,1,,,,,,,,
,,,,,,,,,,,,,FF,,,,,,,,1.7014,,,,,,,,,,,,,,,,,,,,,,60ff6869e503c8c1e2be7df2,61036e2a5e84e286d741c818,2021-07-29_21h14.12.751,Simcolourproject_2stim_asymm_v5,2020.2.10,MacIntel,60,61025ae37ef11b136ea224fe,,,,,,,,,1150,-33.5177002,-79.88192749,1,0,0,response5disk,,3,6.863464355,-6.537902832,1,0,0,rectangle,6.863464355,-6.537902832,1,0,0,6.863464355,-6.537902832,1,0,0,0,70,70,123,1,,,,,,,,
,,,,,,,,,,,,,FF,,,,,,,,5.6036,,,,,,,,,,,,,,,,,,,,,,60ff6869e503c8c1e2be7df2,61036e2a5e84e286d741c818,2021-07-29_21h14.12.751,Simcolourproject_2stim_asymm_v5,2020.2.10,MacIntel,60,61025ae37ef11b136ea224fe,,,,,,,,,3809,65.50622559,22.26727295,1,0,0,response1disk,,6,16.5791626,-0.34552002,1,0,0,rectangle,16.5791626,-0.34552002,1,0,0,16.5791626,-0.34552002,1,0,0,0,71,71,150,1,,,,,,,,
,,,,,,,,,,,,,FF,,,,,,,,12.6899,,,,,,,,,,,,,,,,,,,,,,60ff6869e503c8c1e2be7df2,61036e2a5e84e286d741c818,2021-07-29_21h14.12.751,Simcolourproject_2stim_asymm_v5,2020.2.10,MacIntel,60,61025ae37ef11b136ea224fe,,,,,,,,,1853,93.27392578,-55.362854,1,0,0,response3disk,,5,3.672912598,-3.073638916,1,0,0,rectangle,3.672912598,-3.073638916,1,0,0,3.672912598,-3.073638916,1,0,0,0,72,72,86,1,,,,,,,,
,,,,,,,,,,,,,FF,,,,,,,,2.9846,,,,,,,,,,,,,,,,,,,,,,60ff6869e503c8c1e2be7df2,61036e2a5e84e286d741c818,2021-07-29_21h14.12.751,Simcolourproject_2stim_asymm_v5,2020.2.10,MacIntel,60,61025ae37ef11b136ea224fe,,,,,,,,,693,60.12939453,32.42495728,1,0,0,response1disk,,6,-10.59246826,-1.088378906,1,0,0,rectangle,-10.59246826,-1.088378906,1,0,0,-10.59246826,-1.088378906,1,0,0,0,73,73,109,1,,,,,,,,
,,,,,,,,,,,,,FF,,,,,,,,1.7174,,,,,,,,,,,,,,,,,,,,,,60ff6869e503c8c1e2be7df2,61036e2a5e84e286d741c818,2021-07-29_21h14.12.751,Simcolourproject_2stim_asymm_v5,2020.2.10,MacIntel,60,61025ae37ef11b136ea224fe,,,,,,,,,1805,26.79455566,75.40597534,1,0,0,response1disk,,7,3.930541992,1.704162598,1,0,0,rectangle,3.930541992,1.704162598,1,0,0,3.930541992,1.704162598,1,0,0,0,74,74,29,1,,,,,,,,
,,,,,,,,,,,,,FF,,,,,,,,3.101,,,,,,,,,,,,,,,,,,,,,,60ff6869e503c8c1e2be7df2,61036e2a5e84e286d741c818,2021-07-29_21h14.12.751,Simcolourproject_2stim_asymm_v5,2020.2.10,MacIntel,60,61025ae37ef11b136ea224fe,,,,,,,,,3517,-86.02392578,34.79974365,1,0,0,response7disk,,1,-7.317871094,11.21453857,1,0,0,rectangle,-7.317871094,11.21453857,1,0,0,-7.317871094,11.21453857,1,0,0,0,75,75,110,1,,,,,,,,
,,,,,,,,,,,,,FF,,,,,,,,1.4159,,,,,,,,,,,,,,,,,,,,,,60ff6869e503c8c1e2be7df2,61036e2a5e84e286d741c818,2021-07-29_21h14.12.751,Simcolourproject_2stim_asymm_v5,2020.2.10,MacIntel,60,61025ae37ef11b136ea224fe,,,,,,,,,3376,-76.95605469,-49.59564209,1,0,0,response5disk,,2,2.700927734,-4.098754883,1,0,0,rectangle,2.700927734,-4.098754883,1,0,0,2.700927734,-4.098754883,1,0,0,0,76,76,114,1,,,,,,,,
,,,,,,,,,,,,,FF,,,,,,,,0.8003,,,,,,,,,,,,,,,,,,,,,,60ff6869e503c8c1e2be7df2,61036e2a5e84e286d741c818,2021-07-29_21h14.12.751,Simcolourproject_2stim_asymm_v5,2020.2.10,MacIntel,60,61025ae37ef11b136ea224fe,,,,,,,,,2580,38.11767578,63.44775391,1,0,0,response1disk,,7,-10.32189941,-4.178283691,1,0,0,rectangle,-10.32189941,-4.178283691,1,0,0,-10.32189941,-4.178283691,1,0,0,0,77,77,157,1,,,,,,,,
,,,,,,,,,,,,,FF,,,,,,,,1.2669,,,,,,,,,,,,,,,,,,,,,,60ff6869e503c8c1e2be7df2,61036e2a5e84e286d741c818,2021-07-29_21h14.12.751,Simcolourproject_2stim_asymm_v5,2020.2.10,MacIntel,60,61025ae37ef11b136ea224fe,,,,,,,,,1251,37.07958984,46.53829956,1,0,0,response1disk,,7,6.124206543,-14.51611328,1,0,0,rectangle,6.124206543,-14.51611328,1,0,0,6.124206543,-14.51611328,1,0,0,0,78,78,108,1,,,,,,,,
,,,,,,,,,,,,,FF,,,,,,,,3.7336,,,,,,,,,,,,,,,,,,,,,,60ff6869e503c8c1e2be7df2,61036e2a5e84e286d741c818,2021-07-29_21h14.12.751,Simcolourproject_2stim_asymm_v5,2020.2.10,MacIntel,60,61025ae37ef11b136ea224fe,,,,,,,,,941,-49.09741211,-26.11517334,1,0,0,response5disk,,2,-12.76776123,-1.913482666,1,0,0,rectangle,-12.76776123,-1.913482666,1,0,0,-12.76776123,-1.913482666,1,0,0,0,79,79,93,1,,,,,,,,
,,,,,,,,,,,,,FF,,,,,,,,3.9529,,,,,,,,,,,,,,,,,,,,,,60ff6869e503c8c1e2be7df2,61036e2a5e84e286d741c818,2021-07-29_21h14.12.751,Simcolourproject_2stim_asymm_v5,2020.2.10,MacIntel,60,61025ae37ef11b136ea224fe,,,,,,,,,1013,28.69506836,-75.92297363,1,0,0,response3disk,,4,6.637573242,5.318084717,1,0,0,rectangle,6.637573242,5.318084717,1,0,0,6.637573242,5.318084717,1,0,0,0,80,80,2,1,,,,,,,,
,,,,,,,,,,,,,FF,,,,,,,,1.4164,,,,,,,,,,,,,,,,,,,,,,60ff6869e503c8c1e2be7df2,61036e2a5e84e286d741c818,2021-07-29_21h14.12.751,Simcolourproject_2stim_asymm_v5,2020.2.10,MacIntel,60,61025ae37ef11b136ea224fe,,,,,,,,,3349,32.80755615,-76.32080078,1,0,0,response3disk,,4,1.907043457,-5.88269043,1,0,0,rectangle,1.907043457,-5.88269043,1,0,0,1.907043457,-5.88269043,1,0,0,0,81,81,70,1,,,,,,,,
,,,,,,,,,,,,,FF,,,,,,,,1.2515,,,,,,,,,,,,,,,,,,,,,,60ff6869e503c8c1e2be7df2,61036e2a5e84e286d741c818,2021-07-29_21h14.12.751,Simcolourproject_2stim_asymm_v5,2020.2.10,MacIntel,60,61025ae37ef11b136ea224fe,,,,,,,,,4350,-34.30871582,88.48962402,1,0,0,response7disk,,0,-18.95605469,-8.508331299,1,0,0,rectangle,-18.95605469,-8.508331299,1,0,0,-18.95605469,-8.508331299,1,0,0,0,82,82,99,1,,,,,,,,
,,,,,,,,,,,,,FF,,,,,,,,1.9678,,,,,,,,,,,,,,,,,,,,,,60ff6869e503c8c1e2be7df2,61036e2a5e84e286d741c818,2021-07-29_21h14.12.751,Simcolourproject_2stim_asymm_v5,2020.2.10,MacIntel,60,61025ae37ef11b136ea224fe,,,,,,,,,2189,60.05578613,-44.26928711,1,0,0,response3disk,,5,-11.5970459,6.710876465,1,0,0,rectangle,-11.5970459,6.710876465,1,0,0,-11.5970459,6.710876465,1,0,0,0,83,83,116,1,,,,,,,,
,,,,,,,,,,,,,FF,,,,,,,,6.4697,,,,,,,,,,,,,,,,,,,,,,60ff6869e503c8c1e2be7df2,61036e2a5e84e286d741c818,2021-07-29_21h14.12.751,Simcolourproject_2stim_asymm_v5,2020.2.10,MacIntel,60,61025ae37ef11b136ea224fe,,,,,,,,,1331,39.99530029,-31.93710327,1,0,0,response3disk,,5,15.09344482,-7.118927002,1,0,0,rectangle,15.09344482,-7.118927002,1,0,0,15.09344482,-7.118927002,1,0,0,0,84,84,134,1,,,,,,,,
,,,,,,,,,,,,,FF,,,,,,,,1.1672,,,,,,,,,,,,,,,,,,,,,,60ff6869e503c8c1e2be7df2,61036e2a5e84e286d741c818,2021-07-29_21h14.12.751,Simcolourproject_2stim_asymm_v5,2020.2.10,MacIntel,60,61025ae37ef11b136ea224fe,,,,,,,,,331,58.97717285,23.7300415,1,0,0,response1disk,,6,3.35168457,-3.696594238,1,0,0,rectangle,3.35168457,-3.696594238,1,0,0,3.35168457,-3.696594238,1,0,0,0,85,85,28,1,,,,,,,,
,,,,,,,,,,,,,FF,,,,,,,,1.5348,,,,,,,,,,,,,,,,,,,,,,60ff6869e503c8c1e2be7df2,61036e2a5e84e286d741c818,2021-07-29_21h14.12.751,Simcolourproject_2stim_asymm_v5,2020.2.10,MacIntel,60,61025ae37ef11b136ea224fe,,,,,,,,,1560,71.51733398,20.55593872,1,0,0,response1disk,,6,18.60528564,-1.238220215,1,0,0,rectangle,18.60528564,-1.238220215,1,0,0,18.60528564,-1.238220215,1,0,0,0,86,86,1,1,,,,,,,,
,,,,,,,,,,,,,FF,,,,,,,,2.7509,,,,,,,,,,,,,,,,,,,,,,60ff6869e503c8c1e2be7df2,61036e2a5e84e286d741c818,2021-07-29_21h14.12.751,Simcolourproject_2stim_asymm_v5,2020.2.10,MacIntel,60,61025ae37ef11b136ea224fe,,,,,,,,,2518,83.74121094,-40.58480835,1,0,0,response3disk,,5,0.048400879,-0.620574951,1,0,0,rectangle,0.048400879,-0.620574951,1,0,0,0.048400879,-0.620574951,1,0,0,0,87,87,158,1,,,,,,,,
,,,,,,,,,,,,,FF,,,,,,,,0.8003,,,,,,,,,,,,,,,,,,,,,,60ff6869e503c8c1e2be7df2,61036e2a5e84e286d741c818,2021-07-29_21h14.12.751,Simcolourproject_2stim_asymm_v5,2020.2.10,MacIntel,60,61025ae37ef11b136ea224fe,,,,,,,,,4351,-75.45715332,37.88607788,1,0,0,response7disk,,1,8.404663086,-4.558166504,1,0,0,rectangle,8.404663086,-4.558166504,1,0,0,8.404663086,-4.558166504,1,0,0,0,88,88,154,1,,,,,,,,
,,,,,,,,,,,,,FF,,,,,,,,1.1344,,,,,,,,,,,,,,,,,,,,,,60ff6869e503c8c1e2be7df2,61036e2a5e84e286d741c818,2021-07-29_21h14.12.751,Simcolourproject_2stim_asymm_v5,2020.2.10,MacIntel,60,61025ae37ef11b136ea224fe,,,,,,,,,4039,54.35375977,23.54376221,1,0,0,response1disk,,6,4.605712891,-1.76361084,1,0,0,rectangle,4.605712891,-1.76361084,1,0,0,4.605712891,-1.76361084,1,0,0,0,89,89,146,1,,,,,,,,
,,,,,,,,,,,,,FF,,,,,,,,0.8174,,,,,,,,,,,,,,,,,,,,,,60ff6869e503c8c1e2be7df2,61036e2a5e84e286d741c818,2021-07-29_21h14.12.751,Simcolourproject_2stim_asymm_v5,2020.2.10,MacIntel,60,61025ae37ef11b136ea224fe,,,,,,,,,2201,33.37866211,66.82965088,1,0,0,response1disk,,7,5.638244629,-0.602294922,1,0,0,rectangle,5.638244629,-0.602294922,1,0,0,5.638244629,-0.602294922,1,0,0,0,90,90,19,1,,,,,,,,
,,,,,,,,,,,,,FF,,,,,,,,1.3164,,,,,,,,,,,,,,,,,,,,,,60ff6869e503c8c1e2be7df2,61036e2a5e84e286d741c818,2021-07-29_21h14.12.751,Simcolourproject_2stim_asymm_v5,2020.2.10,MacIntel,60,61025ae37ef11b136ea224fe,,,,,,,,,264,-23.03070068,-76.12103271,1,0,0,response5disk,,3,-0.33605957,-3.841949463,1,0,0,rectangle,-0.33605957,-3.841949463,1,0,0,-0.33605957,-3.841949463,1,0,0,0,91,91,81,1,,,,,,,,
,,,,,,,,,,,,,FF,,,,,,,,1.3167,,,,,,,,,,,,,,,,,,,,,,60ff6869e503c8c1e2be7df2,61036e2a5e84e286d741c818,2021-07-29_21h14.12.751,Simcolourproject_2stim_asymm_v5,2020.2.10,MacIntel,60,61025ae37ef11b136ea224fe,,,,,,,,,1856,34.03387451,60.35357666,1,0,0,response1disk,,7,1.222839355,-2.53237915,1,0,0,rectangle,1.222839355,-2.53237915,1,0,0,1.222839355,-2.53237915,1,0,0,0,92,92,92,1,,,,,,,,
,,,,,,,,,,,,,FF,,,,,,,,1.1003,,,,,,,,,,,,,,,,,,,,,,60ff6869e503c8c1e2be7df2,61036e2a5e84e286d741c818,2021-07-29_21h14.12.751,Simcolourproject_2stim_asymm_v5,2020.2.10,MacIntel,60,61025ae37ef11b136ea224fe,,,,,,,,,2327,37.93267822,56.59759521,1,0,0,response1disk,,7,0.04699707,0.783813477,1,0,0,rectangle,0.04699707,0.783813477,1,0,0,0.04699707,0.783813477,1,0,0,0,93,93,0,1,,,,,,,,
,,,,,,,,,,,,,FF,,,,,,,,0.7661,,,,,,,,,,,,,,,,,,,,,,60ff6869e503c8c1e2be7df2,61036e2a5e84e286d741c818,2021-07-29_21h14.12.751,Simcolourproject_2stim_asymm_v5,2020.2.10,MacIntel,60,61025ae37ef11b136ea224fe,,,,,,,,,3367,33.63873291,49.31860352,1,0,0,response1disk,,7,8.840393066,1.979980469,1,0,0,rectangle,8.840393066,1.979980469,1,0,0,8.840393066,1.979980469,1,0,0,0,94,94,37,1,,,,,,,,
,,,,,,,,,,,,,FF,,,,,,,,1.0664,,,,,,,,,,,,,,,,,,,,,,60ff6869e503c8c1e2be7df2,61036e2a5e84e286d741c818,2021-07-29_21h14.12.751,Simcolourproject_2stim_asymm_v5,2020.2.10,MacIntel,60,61025ae37ef11b136ea224fe,,,,,,,,,3328,-77.00415039,30.87609863,1,0,0,response7disk,,1,-11.13500977,-1.422973633,1,0,0,rectangle,-11.13500977,-1.422973633,1,0,0,-11.13500977,-1.422973633,1,0,0,0,95,95,98,1,,,,,,,,
,,,,,,,,,,,,,FF,,,,,,,,1.217,,,,,,,,,,,,,,,,,,,,,,60ff6869e503c8c1e2be7df2,61036e2a5e84e286d741c818,2021-07-29_21h14.12.751,Simcolourproject_2stim_asymm_v5,2020.2.10,MacIntel,60,61025ae37ef11b136ea224fe,,,,,,,,,2693,46.97674561,33.21017456,1,0,0,response1disk,,6,-0.581054688,-4.694458008,1,0,0,rectangle,-0.581054688,-4.694458008,1,0,0,-0.581054688,-4.694458008,1,0,0,0,96,96,43,1,,,,,,,,
,,,,,,,,,,,,,FF,,,,,,,,1.3669,,,,,,,,,,,,,,,,,,,,,,60ff6869e503c8c1e2be7df2,61036e2a5e84e286d741c818,2021-07-29_21h14.12.751,Simcolourproject_2stim_asymm_v5,2020.2.10,MacIntel,60,61025ae37ef11b136ea224fe,,,,,,,,,2912,44.81335449,23.94772339,1,0,0,response1disk,,6,4.014831543,8.460876465,1,0,0,rectangle,4.014831543,8.460876465,1,0,0,4.014831543,8.460876465,1,0,0,0,97,97,33,1,,,,,,,,
,,,,,,,,,,,,,FF,,,,,,,,1.5993,,,,,,,,,,,,,,,,,,,,,,60ff6869e503c8c1e2be7df2,61036e2a5e84e286d741c818,2021-07-29_21h14.12.751,Simcolourproject_2stim_asymm_v5,2020.2.10,MacIntel,60,61025ae37ef11b136ea224fe,,,,,,,,,1937,81.16748047,45.13317871,1,0,0,response1disk,,6,-4.729980469,-5.961914063,1,0,0,rectangle,-4.729980469,-5.961914063,1,0,0,-4.729980469,-5.961914063,1,0,0,0,98,98,61,1,,,,,,,,
,,,,,,,,,,,,,FF,,,,,,,,0.9341,,,,,,,,,,,,,,,,,,,,,,60ff6869e503c8c1e2be7df2,61036e2a5e84e286d741c818,2021-07-29_21h14.12.751,Simcolourproject_2stim_asymm_v5,2020.2.10,MacIntel,60,61025ae37ef11b136ea224fe,,,,,,,,,3923,39.87884521,60.31033325,1,0,0,response1disk,,7,8.269348145,-5.781066895,1,0,0,rectangle,8.269348145,-5.781066895,1,0,0,8.269348145,-5.781066895,1,0,0,0,99,99,111,1,,,,,,,,
,,,,,,,,,,,,,FF,,,,,,,,0.8336,,,,,,,,,,,,,,,,,,,,,,60ff6869e503c8c1e2be7df2,61036e2a5e84e286d741c818,2021-07-29_21h14.12.751,Simcolourproject_2stim_asymm_v5,2020.2.10,MacIntel,60,61025ae37ef11b136ea224fe,,,,,,,,,3529,19.7442627,60.15454102,1,0,0,response1disk,,7,-2.958862305,-1.203308105,1,0,0,rectangle,-2.958862305,-1.203308105,1,0,0,-2.958862305,-1.203308105,1,0,0,0,100,100,30,1,,,,,,,,
,,,,,,,,,,,,,FF,,,,,,,,1.0167,,,,,,,,,,,,,,,,,,,,,,60ff6869e503c8c1e2be7df2,61036e2a5e84e286d741c818,2021-07-29_21h14.12.751,Simcolourproject_2stim_asymm_v5,2020.2.10,MacIntel,60,61025ae37ef11b136ea224fe,,,,,,,,,1383,-31.87121582,-85.72253418,1,0,0,response5disk,,3,11.07019043,-1.344116211,1,0,0,rectangle,11.07019043,-1.344116211,1,0,0,11.07019043,-1.344116211,1,0,0,0,101,101,14,1,,,,,,,,
,,,,,,,,,,,,,FF,,,,,,,,1.4683,,,,,,,,,,,,,,,,,,,,,,60ff6869e503c8c1e2be7df2,61036e2a5e84e286d741c818,2021-07-29_21h14.12.751,Simcolourproject_2stim_asymm_v5,2020.2.10,MacIntel,60,61025ae37ef11b136ea224fe,,,,,,,,,3934,81.81713867,-48.01229858,1,0,0,response3disk,,5,-0.738525391,2.85546875,1,0,0,rectangle,-0.738525391,2.85546875,1,0,0,-0.738525391,2.85546875,1,0,0,0,102,102,90,1,,,,,,,,
,,,,,,,,,,,,,FF,,,,,,,,2.0673,,,,,,,,,,,,,,,,,,,,,,60ff6869e503c8c1e2be7df2,61036e2a5e84e286d741c818,2021-07-29_21h14.12.751,Simcolourproject_2stim_asymm_v5,2020.2.10,MacIntel,60,61025ae37ef11b136ea224fe,,,,,,,,,1453,-88.40930176,32.91085815,1,0,0,response7disk,,1,-1.390014648,-8.355010986,1,0,0,rectangle,-99.29174805,23.85202026,1,0,0,12.2822876,-11.63766479,1,0,0,0,103,103,41,1,,response7disk_3,TRUE,1,1,"[289,176,179,291,246,161,158,240,268,10,188,240,306,261,299,104,232,261,125,31]",2.0675,rectangle
,,,,,,,,,,,,,FF,,,,,,,,2.4839,,,,,,,,,,,,,,,,,,,,,,60ff6869e503c8c1e2be7df2,61036e2a5e84e286d741c818,2021-07-29_21h14.12.751,Simcolourproject_2stim_asymm_v5,2020.2.10,MacIntel,60,61025ae37ef11b136ea224fe,,,,,,,,,2716,40.76599121,-65.2432251,1,0,0,response3disk,,4,1.19909668,7.052734375,1,0,0,rectangle,1.19909668,7.052734375,1,0,0,1.19909668,7.052734375,1,0,0,0,104,104,121,1,,,,,,,,
,,,,,,,,,,,,,FF,,,,,,,,1.4837,,,,,,,,,,,,,,,,,,,,,,60ff6869e503c8c1e2be7df2,61036e2a5e84e286d741c818,2021-07-29_21h14.12.751,Simcolourproject_2stim_asymm_v5,2020.2.10,MacIntel,60,61025ae37ef11b136ea224fe,,,,,,,,,3725,79.57336426,-34.28582764,1,0,0,response3disk,,5,15.20953369,-6.876647949,1,0,0,rectangle,15.20953369,-6.876647949,1,0,0,15.20953369,-6.876647949,1,0,0,0,105,105,27,1,,,,,,,,
,,,,,,,,,,,,,FF,,,,,,,,19.7752,,,,,,,,,,,,,,,,,,,,,,60ff6869e503c8c1e2be7df2,61036e2a5e84e286d741c818,2021-07-29_21h14.12.751,Simcolourproject_2stim_asymm_v5,2020.2.10,MacIntel,60,61025ae37ef11b136ea224fe,,,,,,,,,2195,57.06274414,21.29907227,1,0,0,response1disk,,6,-8.296447754,-0.409912109,1,0,0,rectangle,-8.296447754,-0.409912109,1,0,0,-8.296447754,-0.409912109,1,0,0,0,106,106,35,1,,,,,,,,
,,,,,,,,,,,,,FF,,,,,,,,2.6184,,,,,,,,,,,,,,,,,,,,,,60ff6869e503c8c1e2be7df2,61036e2a5e84e286d741c818,2021-07-29_21h14.12.751,Simcolourproject_2stim_asymm_v5,2020.2.10,MacIntel,60,61025ae37ef11b136ea224fe,,,,,,,,,2163,-64.15686035,-34.98348999,1,0,0,response5disk,,2,-1.614624023,-8.921020508,1,0,0,rectangle,-1.614624023,-8.921020508,1,0,0,-1.614624023,-8.921020508,1,0,0,0,107,107,18,1,,,,,,,,
,,,,,,,,,,,,,FF,,,,,,,,1.65,,,,,,,,,,,,,,,,,,,,,,60ff6869e503c8c1e2be7df2,61036e2a5e84e286d741c818,2021-07-29_21h14.12.751,Simcolourproject_2stim_asymm_v5,2020.2.10,MacIntel,60,61025ae37ef11b136ea224fe,,,,,,,,,2967,48.56359863,20.49346924,1,0,0,response1disk,,6,7.75402832,-3.961151123,1,0,0,rectangle,7.75402832,-3.961151123,1,0,0,7.75402832,-3.961151123,1,0,0,0,108,108,15,1,,,,,,,,
,,,,,,,,,,,,,FF,,,,,,,,1.118,,,,,,,,,,,,,,,,,,,,,,60ff6869e503c8c1e2be7df2,61036e2a5e84e286d741c818,2021-07-29_21h14.12.751,Simcolourproject_2stim_asymm_v5,2020.2.10,MacIntel,60,61025ae37ef11b136ea224fe,,,,,,,,,2418,-25.83807373,55.82040405,1,0,0,response7disk,,0,0.692565918,9.493530273,1,0,0,rectangle,0.692565918,9.493530273,1,0,0,0.692565918,9.493530273,1,0,0,0,109,109,77,1,,,,,,,,
,,,,,,,,,,,,,FF,,,,,,,,1.1007,,,,,,,,,,,,,,,,,,,,,,60ff6869e503c8c1e2be7df2,61036e2a5e84e286d741c818,2021-07-29_21h14.12.751,Simcolourproject_2stim_asymm_v5,2020.2.10,MacIntel,60,61025ae37ef11b136ea224fe,,,,,,,,,2315,-46.38018799,-60.26303101,1,0,0,response5disk,,3,-9.712097168,-1.323974609,1,0,0,rectangle,-9.712097168,-1.323974609,1,0,0,-9.712097168,-1.323974609,1,0,0,0,110,110,88,1,,,,,,,,
,,,,,,,,,,,,,FF,,,,,,,,1.4832,,,,,,,,,,,,,,,,,,,,,,60ff6869e503c8c1e2be7df2,61036e2a5e84e286d741c818,2021-07-29_21h14.12.751,Simcolourproject_2stim_asymm_v5,2020.2.10,MacIntel,60,61025ae37ef11b136ea224fe,,,,,,,,,3615,77.5534668,18.67852783,1,0,0,response1disk,,6,25.49237061,1.37097168,1,0,0,rectangle,25.49237061,1.37097168,1,0,0,25.49237061,1.37097168,1,0,0,0,111,111,60,1,,,,,,,,
,,,,,,,,,,,,,FF,,,,,,,,2.2842,,,,,,,,,,,,,,,,,,,,,,60ff6869e503c8c1e2be7df2,61036e2a5e84e286d741c818,2021-07-29_21h14.12.751,Simcolourproject_2stim_asymm_v5,2020.2.10,MacIntel,60,61025ae37ef11b136ea224fe,,,,,,,,,1538,70.32714844,-35.4631958,1,0,0,response3disk,,5,-5.67578125,-5.268005371,1,0,0,rectangle,-5.67578125,-5.268005371,1,0,0,-5.67578125,-5.268005371,1,0,0,0,112,112,9,1,,,,,,,,
,,,,,,,,,,,,,FF,,,,,,,,1.2837,,,,,,,,,,,,,,,,,,,,,,60ff6869e503c8c1e2be7df2,61036e2a5e84e286d741c818,2021-07-29_21h14.12.751,Simcolourproject_2stim_asymm_v5,2020.2.10,MacIntel,60,61025ae37ef11b136ea224fe,,,,,,,,,2113,19.77789307,-76.69854736,1,0,0,response3disk,,4,-7.135925293,-10.18273926,1,0,0,rectangle,-7.135925293,-10.18273926,1,0,0,-7.135925293,-10.18273926,1,0,0,0,113,113,105,1,,,,,,,,
,,,,,,,,,,,,,FF,,,,,,,,25.2608,,,,,,,,,,,,,,,,,,,,,,60ff6869e503c8c1e2be7df2,61036e2a5e84e286d741c818,2021-07-29_21h14.12.751,Simcolourproject_2stim_asymm_v5,2020.2.10,MacIntel,60,61025ae37ef11b136ea224fe,,,,,,,,,609,54.56188965,-39.75393677,1,0,0,response3disk,,5,13.56634521,0.4324646,1,0,0,rectangle,13.56634521,0.4324646,1,0,0,13.56634521,0.4324646,1,0,0,0,114,114,133,1,,,,,,,,
,,,,,,,,,,,,,FF,,,,,,,,4.0016,,,,,,,,,,,,,,,,,,,,,,60ff6869e503c8c1e2be7df2,61036e2a5e84e286d741c818,2021-07-29_21h14.12.751,Simcolourproject_2stim_asymm_v5,2020.2.10,MacIntel,60,61025ae37ef11b136ea224fe,,,,,,,,,3421,-49.56445313,-75.66131592,1,0,0,response5disk,,3,-10.00634766,-8.439910889,1,0,0,rectangle,-10.00634766,-8.439910889,1,0,0,-10.00634766,-8.439910889,1,0,0,0,115,115,42,1,,,,,,,,
,,,,,,,,,,,,,FF,,,,,,,,1.602,,,,,,,,,,,,,,,,,,,,,,60ff6869e503c8c1e2be7df2,61036e2a5e84e286d741c818,2021-07-29_21h14.12.751,Simcolourproject_2stim_asymm_v5,2020.2.10,MacIntel,60,61025ae37ef11b136ea224fe,,,,,,,,,2904,71.79125977,-44.72518921,1,0,0,response3disk,,5,5.513549805,-5.624023438,1,0,0,rectangle,5.513549805,-5.624023438,1,0,0,5.513549805,-5.624023438,1,0,0,0,116,116,103,1,,,,,,,,
,,,,,,,,,,,,,FF,,,,,,,,4.6521,,,,,,,,,,,,,,,,,,,,,,60ff6869e503c8c1e2be7df2,61036e2a5e84e286d741c818,2021-07-29_21h14.12.751,Simcolourproject_2stim_asymm_v5,2020.2.10,MacIntel,60,61025ae37ef11b136ea224fe,,,,,,,,,3033,39.77972412,61.44030762,1,0,0,response1disk,,7,7.019226074,9.410736084,1,0,0,rectangle,7.019226074,9.410736084,1,0,0,7.019226074,9.410736084,1,0,0,0,117,117,80,1,,,,,,,,
,,,,,,,,,,,,,FF,,,,,,,,0.9677,,,,,,,,,,,,,,,,,,,,,,60ff6869e503c8c1e2be7df2,61036e2a5e84e286d741c818,2021-07-29_21h14.12.751,Simcolourproject_2stim_asymm_v5,2020.2.10,MacIntel,60,61025ae37ef11b136ea224fe,,,,,,,,,1358,24.46795654,62.21417236,1,0,0,response1disk,,7,-2.892333984,-8.877593994,1,0,0,rectangle,-2.892333984,-8.877593994,1,0,0,-2.892333984,-8.877593994,1,0,0,0,118,118,122,1,,,,,,,,
,,,,,,,,,,,,,FF,,,,,,,,2.4006,,,,,,,,,,,,,,,,,,,,,,60ff6869e503c8c1e2be7df2,61036e2a5e84e286d741c818,2021-07-29_21h14.12.751,Simcolourproject_2stim_asymm_v5,2020.2.10,MacIntel,60,61025ae37ef11b136ea224fe,,,,,,,,,3844,67.95739746,-25.13244629,1,0,0,response3disk,,5,-0.428527832,5.425109863,1,0,0,rectangle,-0.428527832,5.425109863,1,0,0,-0.428527832,5.425109863,1,0,0,0,119,119,25,1,,,,,,,,
,,,,,,,,,,,,,FF,,,,,,,,0.9336,,,,,,,,,,,,,,,,,,,,,,60ff6869e503c8c1e2be7df2,61036e2a5e84e286d741c818,2021-07-29_21h14.12.751,Simcolourproject_2stim_asymm_v5,2020.2.10,MacIntel,60,61025ae37ef11b136ea224fe,,,,,,,,,1019,21.45690918,59.82696533,1,0,0,response1disk,,7,2.438415527,3.231079102,1,0,0,rectangle,2.438415527,3.231079102,1,0,0,2.438415527,3.231079102,1,0,0,0,120,120,132,1,,,,,,,,
,,,,,,,,,,,,,FF,,,,,,,,0.8499,,,,,,,,,,,,,,,,,,,,,,60ff6869e503c8c1e2be7df2,61036e2a5e84e286d741c818,2021-07-29_21h14.12.751,Simcolourproject_2stim_asymm_v5,2020.2.10,MacIntel,60,61025ae37ef11b136ea224fe,,,,,,,,,1730,20.27490234,38.33682251,1,0,0,response1disk,,7,7.350646973,-10.84329224,1,0,0,rectangle,7.350646973,-10.84329224,1,0,0,7.350646973,-10.84329224,1,0,0,0,121,121,7,1,,,,,,,,
,,,,,,,,,,,,,FF,,,,,,,,1.3676,,,,,,,,,,,,,,,,,,,,,,60ff6869e503c8c1e2be7df2,61036e2a5e84e286d741c818,2021-07-29_21h14.12.751,Simcolourproject_2stim_asymm_v5,2020.2.10,MacIntel,60,61025ae37ef11b136ea224fe,,,,,,,,,1038,73.91888428,-31.75024414,1,0,0,response3disk,,5,4.324768066,-1.484985352,1,0,0,rectangle,4.324768066,-1.484985352,1,0,0,4.324768066,-1.484985352,1,0,0,0,122,122,5,1,,,,,,,,
,,,,,,,,,,,,,FF,,,,,,,,1.267,,,,,,,,,,,,,,,,,,,,,,60ff6869e503c8c1e2be7df2,61036e2a5e84e286d741c818,2021-07-29_21h14.12.751,Simcolourproject_2stim_asymm_v5,2020.2.10,MacIntel,60,61025ae37ef11b136ea224fe,,,,,,,,,3739,23.71411133,54.60992432,1,0,0,response1disk,,7,-3.144226074,0.149078369,1,0,0,rectangle,-3.144226074,0.149078369,1,0,0,-3.144226074,0.149078369,1,0,0,0,123,123,126,1,,,,,,,,
,,,,,,,,,,,,,FF,,,,,,,,1.0338,,,,,,,,,,,,,,,,,,,,,,60ff6869e503c8c1e2be7df2,61036e2a5e84e286d741c818,2021-07-29_21h14.12.751,Simcolourproject_2stim_asymm_v5,2020.2.10,MacIntel,60,61025ae37ef11b136ea224fe,,,,,,,,,4068,26.80810547,52.13565063,1,0,0,response1disk,,7,-0.610168457,-1.288024902,1,0,0,rectangle,-85.55981445,29.46160889,1,0,0,0.543212891,-8.345855713,1,0,0,0,124,124,142,1,,response7disk_3,TRUE,1,1,"[289,176,179,291,246,161,158,240,268,10,188,240,306,261,299,104,232,261,125,31]",1.7007,rectangle
,,,,,,,,,,,,,FF,,,,,,,,0.9502,,,,,,,,,,,,,,,,,,,,,,60ff6869e503c8c1e2be7df2,61036e2a5e84e286d741c818,2021-07-29_21h14.12.751,Simcolourproject_2stim_asymm_v5,2020.2.10,MacIntel,60,61025ae37ef11b136ea224fe,,,,,,,,,28,25.97436523,65.18334961,1,0,0,response1disk,,7,5.718078613,5.923736572,1,0,0,rectangle,5.718078613,5.923736572,1,0,0,5.718078613,5.923736572,1,0,0,0,125,125,66,1,,,,,,,,
,,,,,,,,,,,,,FF,,,,,,,,0.8836,,,,,,,,,,,,,,,,,,,,,,60ff6869e503c8c1e2be7df2,61036e2a5e84e286d741c818,2021-07-29_21h14.12.751,Simcolourproject_2stim_asymm_v5,2020.2.10,MacIntel,60,61025ae37ef11b136ea224fe,,,,,,,,,4215,29.38519287,48.79327393,1,0,0,response1disk,,7,3.601074219,-0.581451416,1,0,0,rectangle,3.601074219,-0.581451416,1,0,0,3.601074219,-0.581451416,1,0,0,0,126,126,16,1,,,,,,,,
,,,,,,,,,,,,,FF,,,,,,,,2.4675,,,,,,,,,,,,,,,,,,,,,,60ff6869e503c8c1e2be7df2,61036e2a5e84e286d741c818,2021-07-29_21h14.12.751,Simcolourproject_2stim_asymm_v5,2020.2.10,MacIntel,60,61025ae37ef11b136ea224fe,,,,,,,,,2169,78.88720703,-50.65454102,1,0,0,response3disk,,5,23.78894043,-4.195251465,1,0,0,rectangle,23.78894043,-4.195251465,1,0,0,23.78894043,-4.195251465,1,0,0,0,127,127,38,1,,,,,,,,
,,,,,,,,,,,,,FF,,,,,,,,4.1024,,,,,,,,,,,,,,,,,,,,,,60ff6869e503c8c1e2be7df2,61036e2a5e84e286d741c818,2021-07-29_21h14.12.751,Simcolourproject_2stim_asymm_v5,2020.2.10,MacIntel,60,61025ae37ef11b136ea224fe,,,,,,,,,3553,-61.37805176,-38.94363403,1,0,0,response5disk,,2,3.899780273,4.352661133,1,0,0,rectangle,3.899780273,4.352661133,1,0,0,3.899780273,4.352661133,1,0,0,0,128,128,95,1,,,,,,,,
,,,,,,,,,,,,,FF,,,,,,,,0.9669,,,,,,,,,,,,,,,,,,,,,,60ff6869e503c8c1e2be7df2,61036e2a5e84e286d741c818,2021-07-29_21h14.12.751,Simcolourproject_2stim_asymm_v5,2020.2.10,MacIntel,60,61025ae37ef11b136ea224fe,,,,,,,,,1123,25.16674805,44.60003662,1,0,0,response1disk,,7,3.261474609,-9.125183105,1,0,0,rectangle,3.261474609,-9.125183105,1,0,0,3.261474609,-9.125183105,1,0,0,0,129,129,82,1,,,,,,,,
,,,,,,,,,,,,,FF,,,,,,,,0.8999,,,,,,,,,,,,,,,,,,,,,,60ff6869e503c8c1e2be7df2,61036e2a5e84e286d741c818,2021-07-29_21h14.12.751,Simcolourproject_2stim_asymm_v5,2020.2.10,MacIntel,60,61025ae37ef11b136ea224fe,,,,,,,,,4257,23.34301758,53.28735352,1,0,0,response1disk,,7,17.85522461,1.877532959,1,0,0,rectangle,17.85522461,1.877532959,1,0,0,17.85522461,1.877532959,1,0,0,0,130,130,113,1,,,,,,,,
,,,,,,,,,,,,,FF,,,,,,,,1.7343,,,,,,,,,,,,,,,,,,,,,,60ff6869e503c8c1e2be7df2,61036e2a5e84e286d741c818,2021-07-29_21h14.12.751,Simcolourproject_2stim_asymm_v5,2020.2.10,MacIntel,60,61025ae37ef11b136ea224fe,,,,,,,,,3437,25.45788574,-77.9552002,1,0,0,response3disk,,4,-3.328674316,4.316223145,1,0,0,rectangle,-3.328674316,4.316223145,1,0,0,-3.328674316,4.316223145,1,0,0,0,131,131,17,1,,,,,,,,
,,,,,,,,,,,,,FF,,,,,,,,0.8333,,,,,,,,,,,,,,,,,,,,,,60ff6869e503c8c1e2be7df2,61036e2a5e84e286d741c818,2021-07-29_21h14.12.751,Simcolourproject_2stim_asymm_v5,2020.2.10,MacIntel,60,61025ae37ef11b136ea224fe,,,,,,,,,2328,23.82080078,68.89154053,1,0,0,response1disk,,7,3.594970703,-5.792114258,1,0,0,rectangle,3.594970703,-5.792114258,1,0,0,3.594970703,-5.792114258,1,0,0,0,132,132,68,1,,,,,,,,
,,,,,,,,,,,,,FF,,,,,,,,1.3164,,,,,,,,,,,,,,,,,,,,,,60ff6869e503c8c1e2be7df2,61036e2a5e84e286d741c818,2021-07-29_21h14.12.751,Simcolourproject_2stim_asymm_v5,2020.2.10,MacIntel,60,61025ae37ef11b136ea224fe,,,,,,,,,1373,-46.30548096,-73.13110352,1,0,0,response5disk,,3,-11.00268555,-7.312988281,1,0,0,rectangle,-11.00268555,-7.312988281,1,0,0,-11.00268555,-7.312988281,1,0,0,0,133,133,8,1,,,,,,,,
,,,,,,,,,,,,,FF,,,,,,,,1.2003,,,,,,,,,,,,,,,,,,,,,,60ff6869e503c8c1e2be7df2,61036e2a5e84e286d741c818,2021-07-29_21h14.12.751,Simcolourproject_2stim_asymm_v5,2020.2.10,MacIntel,60,61025ae37ef11b136ea224fe,,,,,,,,,4273,41.10406494,45.69812012,1,0,0,response1disk,,7,11.59350586,-0.725189209,1,0,0,rectangle,11.59350586,-0.725189209,1,0,0,11.59350586,-0.725189209,1,0,0,0,134,134,129,1,,,,,,,,
,,,,,,,,,,,,,FF,,,,,,,,0.7005,,,,,,,,,,,,,,,,,,,,,,60ff6869e503c8c1e2be7df2,61036e2a5e84e286d741c818,2021-07-29_21h14.12.751,Simcolourproject_2stim_asymm_v5,2020.2.10,MacIntel,60,61025ae37ef11b136ea224fe,,,,,,,,,2586,23.91320801,64.76843262,1,0,0,response1disk,,7,2.462036133,-3.543029785,1,0,0,rectangle,2.462036133,-3.543029785,1,0,0,2.462036133,-3.543029785,1,0,0,0,135,135,72,1,,,,,,,,
,,,,,,,,,,,,,FF,,,,,,,,0.6661,,,,,,,,,,,,,,,,,,,,,,60ff6869e503c8c1e2be7df2,61036e2a5e84e286d741c818,2021-07-29_21h14.12.751,Simcolourproject_2stim_asymm_v5,2020.2.10,MacIntel,60,61025ae37ef11b136ea224fe,,,,,,,,,1498,32.86688232,48.44824219,1,0,0,response1disk,,7,16.35839844,8.857727051,1,0,0,rectangle,16.35839844,8.857727051,1,0,0,16.35839844,8.857727051,1,0,0,0,136,136,59,1,,,,,,,,
,,,,,,,,,,,,,FF,,,,,,,,0.6847,,,,,,,,,,,,,,,,,,,,,,60ff6869e503c8c1e2be7df2,61036e2a5e84e286d741c818,2021-07-29_21h14.12.751,Simcolourproject_2stim_asymm_v5,2020.2.10,MacIntel,60,61025ae37ef11b136ea224fe,,,,,,,,,1880,26.97039795,44.4105835,1,0,0,response1disk,,7,12.43017578,9.44329834,1,0,0,rectangle,12.43017578,9.44329834,1,0,0,12.43017578,9.44329834,1,0,0,0,137,137,73,1,,,,,,,,
,,,,,,,,,,,,,FF,,,,,,,,1.667,,,,,,,,,,,,,,,,,,,,,,60ff6869e503c8c1e2be7df2,61036e2a5e84e286d741c818,2021-07-29_21h14.12.751,Simcolourproject_2stim_asymm_v5,2020.2.10,MacIntel,60,61025ae37ef11b136ea224fe,,,,,,,,,3859,33.3770752,60.3414917,1,0,0,response1disk,,7,-2.611450195,6.712310791,1,0,0,rectangle,-2.611450195,6.712310791,1,0,0,-2.611450195,6.712310791,1,0,0,0,138,138,55,1,,,,,,,,
,,,,,,,,,,,,,FF,,,,,,,,1.6001,,,,,,,,,,,,,,,,,,,,,,60ff6869e503c8c1e2be7df2,61036e2a5e84e286d741c818,2021-07-29_21h14.12.751,Simcolourproject_2stim_asymm_v5,2020.2.10,MacIntel,60,61025ae37ef11b136ea224fe,,,,,,,,,286,78.23364258,-55.6159668,1,0,0,response3disk,,5,3.568847656,1.24420166,1,0,0,rectangle,3.568847656,1.24420166,1,0,0,3.568847656,1.24420166,1,0,0,0,139,139,152,1,,,,,,,,
,,,,,,,,,,,,,FF,,,,,,,,0.6994,,,,,,,,,,,,,,,,,,,,,,60ff6869e503c8c1e2be7df2,61036e2a5e84e286d741c818,2021-07-29_21h14.12.751,Simcolourproject_2stim_asymm_v5,2020.2.10,MacIntel,60,61025ae37ef11b136ea224fe,,,,,,,,,1111,31.69000244,48.73236084,1,0,0,response1disk,,7,5.713256836,8.01348877,1,0,0,rectangle,5.713256836,8.01348877,1,0,0,5.713256836,8.01348877,1,0,0,0,140,140,69,1,,,,,,,,
,,,,,,,,,,,,,FF,,,,,,,,2.7853,,,,,,,,,,,,,,,,,,,,,,60ff6869e503c8c1e2be7df2,61036e2a5e84e286d741c818,2021-07-29_21h14.12.751,Simcolourproject_2stim_asymm_v5,2020.2.10,MacIntel,60,61025ae37ef11b136ea224fe,,,,,,,,,1926,57.65740967,-58.00875854,1,0,0,response3disk,,4,-7.225219727,-8.412475586,1,0,0,rectangle,-7.225219727,-8.412475586,1,0,0,-7.225219727,-8.412475586,1,0,0,0,141,141,91,1,,,,,,,,
,,,,,,,,,,,,,FF,,,,,,,,1.1833,,,,,,,,,,,,,,,,,,,,,,60ff6869e503c8c1e2be7df2,61036e2a5e84e286d741c818,2021-07-29_21h14.12.751,Simcolourproject_2stim_asymm_v5,2020.2.10,MacIntel,60,61025ae37ef11b136ea224fe,,,,,,,,,536,35.10510254,57.69750977,1,0,0,response1disk,,7,-1.908691406,-1.701171875,1,0,0,rectangle,-1.908691406,-1.701171875,1,0,0,-1.908691406,-1.701171875,1,0,0,0,142,142,63,1,,,,,,,,
,,,,,,,,,,,,,FF,,,,,,,,4.0508,,,,,,,,,,,,,,,,,,,,,,60ff6869e503c8c1e2be7df2,61036e2a5e84e286d741c818,2021-07-29_21h14.12.751,Simcolourproject_2stim_asymm_v5,2020.2.10,MacIntel,60,61025ae37ef11b136ea224fe,,,,,,,,,74,67.76708984,21.22369385,1,0,0,response1disk,,6,-0.153625488,-0.1847229,1,0,0,rectangle,-0.153625488,-0.1847229,1,0,0,-0.153625488,-0.1847229,1,0,0,0,143,143,58,1,,,,,,,,
,,,,,,,,,,,,,FF,,,,,,,,1.1497,,,,,,,,,,,,,,,,,,,,,,60ff6869e503c8c1e2be7df2,61036e2a5e84e286d741c818,2021-07-29_21h14.12.751,Simcolourproject_2stim_asymm_v5,2020.2.10,MacIntel,60,61025ae37ef11b136ea224fe,,,,,,,,,3478,-69.37957764,-34.2611084,1,0,0,response5disk,,2,-4.60748291,-1.630737305,1,0,0,rectangle,-4.60748291,-1.630737305,1,0,0,-4.60748291,-1.630737305,1,0,0,0,144,144,141,1,,,,,,,,
,,,,,,,,,,,,,FF,,,,,,,,1.2007,,,,,,,,,,,,,,,,,,,,,,60ff6869e503c8c1e2be7df2,61036e2a5e84e286d741c818,2021-07-29_21h14.12.751,Simcolourproject_2stim_asymm_v5,2020.2.10,MacIntel,60,61025ae37ef11b136ea224fe,,,,,,,,,1520,27.4777832,25.38369751,1,0,0,response1disk,,6,14.14398193,5.856994629,1,0,0,rectangle,14.14398193,5.856994629,1,0,0,14.14398193,5.856994629,1,0,0,0,145,145,131,1,,,,,,,,
,,,,,,,,,,,,,FF,,,,,,,,1.3497,,,,,,,,,,,,,,,,,,,,,,60ff6869e503c8c1e2be7df2,61036e2a5e84e286d741c818,2021-07-29_21h14.12.751,Simcolourproject_2stim_asymm_v5,2020.2.10,MacIntel,60,61025ae37ef11b136ea224fe,,,,,,,,,1966,-64.55474854,-49.03112793,1,0,0,response5disk,,2,-14.03259277,-8.719604492,1,0,0,rectangle,-14.03259277,-8.719604492,1,0,0,-14.03259277,-8.719604492,1,0,0,0,146,146,85,1,,,,,,,,
,,,,,,,,,,,,,FF,,,,,,,,1.2331,,,,,,,,,,,,,,,,,,,,,,60ff6869e503c8c1e2be7df2,61036e2a5e84e286d741c818,2021-07-29_21h14.12.751,Simcolourproject_2stim_asymm_v5,2020.2.10,MacIntel,60,61025ae37ef11b136ea224fe,,,,,,,,,4217,20.30871582,43.71746826,1,0,0,response1disk,,7,-3.647644043,-1.499267578,1,0,0,rectangle,-3.647644043,-1.499267578,1,0,0,-3.647644043,-1.499267578,1,0,0,0,147,147,100,1,,,,,,,,
,,,,,,,,,,,,,FF,,,,,,,,0.8995,,,,,,,,,,,,,,,,,,,,,,60ff6869e503c8c1e2be7df2,61036e2a5e84e286d741c818,2021-07-29_21h14.12.751,Simcolourproject_2stim_asymm_v5,2020.2.10,MacIntel,60,61025ae37ef11b136ea224fe,,,,,,,,,229,25.1539917,42.53811646,1,0,0,response1disk,,7,-5.849243164,-2.085205078,1,0,0,rectangle,-5.849243164,-2.085205078,1,0,0,-5.849243164,-2.085205078,1,0,0,0,148,148,50,1,,,,,,,,
,,,,,,,,,,,,,FF,,,,,,,,0.9337,,,,,,,,,,,,,,,,,,,,,,60ff6869e503c8c1e2be7df2,61036e2a5e84e286d741c818,2021-07-29_21h14.12.751,Simcolourproject_2stim_asymm_v5,2020.2.10,MacIntel,60,61025ae37ef11b136ea224fe,,,,,,,,,235,30.87878418,41.68005371,1,0,0,response1disk,,7,6.445495605,1.259033203,1,0,0,rectangle,6.445495605,1.259033203,1,0,0,6.445495605,1.259033203,1,0,0,0,149,149,140,1,,,,,,,,
,,,,,,,,,,,,,FF,,,,,,,,0.9008,,,,,,,,,,,,,,,,,,,,,,60ff6869e503c8c1e2be7df2,61036e2a5e84e286d741c818,2021-07-29_21h14.12.751,Simcolourproject_2stim_asymm_v5,2020.2.10,MacIntel,60,61025ae37ef11b136ea224fe,,,,,,,,,1507,25.53753662,35.71417236,1,0,0,response1disk,,7,2.973388672,-5.383728027,1,0,0,rectangle,2.973388672,-5.383728027,1,0,0,2.973388672,-5.383728027,1,0,0,0,150,150,136,1,,,,,,,,
,,,,,,,,,,,,,FF,,,,,,,,1.3169,,,,,,,,,,,,,,,,,,,,,,60ff6869e503c8c1e2be7df2,61036e2a5e84e286d741c818,2021-07-29_21h14.12.751,Simcolourproject_2stim_asymm_v5,2020.2.10,MacIntel,60,61025ae37ef11b136ea224fe,,,,,,,,,3753,77.63500977,-34.04953003,1,0,0,response3disk,,5,10.03540039,0.145233154,1,0,0,rectangle,10.03540039,0.145233154,1,0,0,10.03540039,0.145233154,1,0,0,0,151,151,32,1,,,,,,,,
,,,,,,,,,,,,,FF,,,,,,,,1.3505,,,,,,,,,,,,,,,,,,,,,,60ff6869e503c8c1e2be7df2,61036e2a5e84e286d741c818,2021-07-29_21h14.12.751,Simcolourproject_2stim_asymm_v5,2020.2.10,MacIntel,60,61025ae37ef11b136ea224fe,,,,,,,,,925,40.27050781,80.35513306,1,0,0,response1disk,,7,18.4420166,-11.6897583,1,0,0,rectangle,18.4420166,-11.6897583,1,0,0,18.4420166,-11.6897583,1,0,0,0,152,152,3,1,,,,,,,,
,,,,,,,,,,,,,FF,,,,,,,,0.8834,,,,,,,,,,,,,,,,,,,,,,60ff6869e503c8c1e2be7df2,61036e2a5e84e286d741c818,2021-07-29_21h14.12.751,Simcolourproject_2stim_asymm_v5,2020.2.10,MacIntel,60,61025ae37ef11b136ea224fe,,,,,,,,,1579,28.19946289,50.01611328,1,0,0,response1disk,,7,6.066040039,-10.13174438,1,0,0,rectangle,6.066040039,-10.13174438,1,0,0,6.066040039,-10.13174438,1,0,0,0,153,153,22,1,,,,,,,,
,,,,,,,,,,,,,FF,,,,,,,,1.0167,,,,,,,,,,,,,,,,,,,,,,60ff6869e503c8c1e2be7df2,61036e2a5e84e286d741c818,2021-07-29_21h14.12.751,Simcolourproject_2stim_asymm_v5,2020.2.10,MacIntel,60,61025ae37ef11b136ea224fe,,,,,,,,,4315,25.66235352,32.77081299,1,0,0,response1disk,,7,12.42962646,4.754364014,1,0,0,rectangle,12.42962646,4.754364014,1,0,0,12.42962646,4.754364014,1,0,0,0,154,154,10,1,,,,,,,,
,,,,,,,,,,,,,FF,,,,,,,,1.2995,,,,,,,,,,,,,,,,,,,,,,60ff6869e503c8c1e2be7df2,61036e2a5e84e286d741c818,2021-07-29_21h14.12.751,Simcolourproject_2stim_asymm_v5,2020.2.10,MacIntel,60,61025ae37ef11b136ea224fe,,,,,,,,,4182,-61.92816162,-35.32202148,1,0,0,response5disk,,2,-11.42456055,2.572967529,1,0,0,rectangle,-11.42456055,2.572967529,1,0,0,-11.42456055,2.572967529,1,0,0,0,155,155,128,1,,,,,,,,
,,,,,,,,,,,,,FF,,,,,,,,1.5345,,,,,,,,,,,,,,,,,,,,,,60ff6869e503c8c1e2be7df2,61036e2a5e84e286d741c818,2021-07-29_21h14.12.751,Simcolourproject_2stim_asymm_v5,2020.2.10,MacIntel,60,61025ae37ef11b136ea224fe,,,,,,,,,4105,64.46282959,-41.93591309,1,0,0,response3disk,,5,20.5057373,-1.932739258,1,0,0,rectangle,20.5057373,-1.932739258,1,0,0,20.5057373,-1.932739258,1,0,0,0,156,156,24,1,,,,,,,,
,,,,,,,,,,,,,FF,,,,,,,,0.9505,,,,,,,,,,,,,,,,,,,,,,60ff6869e503c8c1e2be7df2,61036e2a5e84e286d741c818,2021-07-29_21h14.12.751,Simcolourproject_2stim_asymm_v5,2020.2.10,MacIntel,60,61025ae37ef11b136ea224fe,,,,,,,,,1419,26.36444092,52.64764404,1,0,0,response1disk,,7,19.42822266,5.648193359,1,0,0,rectangle,-38.90136719,74.53759766,1,0,0,-6.115539551,-12.66729736,1,0,0,0,157,157,76,1,,response7disk_3,TRUE,0,0,"[289,176,179,291,246,161,158,240,268,10,188,240,306,261,299,104,232,261,125,31]",1.9511,rectangle
,,,,,,,,,,,,,FF,,,,,,,,1.4178,,,,,,,,,,,,,,,,,,,,,,60ff6869e503c8c1e2be7df2,61036e2a5e84e286d741c818,2021-07-29_21h14.12.751,Simcolourproject_2stim_asymm_v5,2020.2.10,MacIntel,60,61025ae37ef11b136ea224fe,,,,,,,,,371,92.7946167,-52.2164917,1,0,0,response3disk,,5,11.31097412,-7.600463867,1,0,0,rectangle,11.31097412,-7.600463867,1,0,0,11.31097412,-7.600463867,1,0,0,0,158,158,71,1,,,,,,,,
,,,,,,,,,,,,,FF,,,,,,,,0.8336,,,,,,,,,,,,,,,,,,,,,,60ff6869e503c8c1e2be7df2,61036e2a5e84e286d741c818,2021-07-29_21h14.12.751,Simcolourproject_2stim_asymm_v5,2020.2.10,MacIntel,60,61025ae37ef11b136ea224fe,,,,,,,,,806,-92.25915527,46.68768311,1,0,0,response7disk,,1,-7.21496582,-1.51852417,1,0,0,rectangle,-7.21496582,-1.51852417,1,0,0,-7.21496582,-1.51852417,1,0,0,0,159,159,44,1,,,,,,,,
,,,,,,,,,,,,,FF,,,,,,,,1.0334,,,,,,,,,,,,,,,,,,,,,,60ff6869e503c8c1e2be7df2,61036e2a5e84e286d741c818,2021-07-29_21h14.12.751,Simcolourproject_2stim_asymm_v5,2020.2.10,MacIntel,60,61025ae37ef11b136ea224fe,,,,,,,,,1135,-24.40600586,-96.42623901,1,0,0,response5disk,,3,-9.198608398,6.979980469,1,0,0,rectangle,-22.23913574,61.66552734,1,0,0,-4.049499512,-7.631835938,1,0,0,1,0,160,145,1,,response7disk_3,TRUE,0,0,"[289,176,179,291,246,161,158,240,268,10,188,240,306,261,299,104,232,261,125,31]",1.9164,rectangle
,,,,,,,,,,,,,FF,,,,,,,,5.0018,,,,,,,,,,,,,,,,,,,,,,60ff6869e503c8c1e2be7df2,61036e2a5e84e286d741c818,2021-07-29_21h14.12.751,Simcolourproject_2stim_asymm_v5,2020.2.10,MacIntel,60,61025ae37ef11b136ea224fe,,,,,,,,,1142,77.60070801,-48.52908325,1,0,0,response3disk,,5,12.29846191,4.100158691,1,0,0,rectangle,12.29846191,4.100158691,1,0,0,12.29846191,4.100158691,1,0,0,1,1,161,39,1,,,,,,,,
,,,,,,,,,,,,,FF,,,,,,,,0.8832,,,,,,,,,,,,,,,,,,,,,,60ff6869e503c8c1e2be7df2,61036e2a5e84e286d741c818,2021-07-29_21h14.12.751,Simcolourproject_2stim_asymm_v5,2020.2.10,MacIntel,60,61025ae37ef11b136ea224fe,,,,,,,,,1147,55.18713379,24.93023682,1,0,0,response1disk,,6,4.49029541,-1.467163086,1,0,0,rectangle,4.49029541,-1.467163086,1,0,0,4.49029541,-1.467163086,1,0,0,1,2,162,29,1,,,,,,,,
,,,,,,,,,,,,,FF,,,,,,,,1.383,,,,,,,,,,,,,,,,,,,,,,60ff6869e503c8c1e2be7df2,61036e2a5e84e286d741c818,2021-07-29_21h14.12.751,Simcolourproject_2stim_asymm_v5,2020.2.10,MacIntel,60,61025ae37ef11b136ea224fe,,,,,,,,,3882,-60.9263916,-21.50811768,1,0,0,response5disk,,2,2.339416504,1.674255371,1,0,0,rectangle,2.339416504,1.674255371,1,0,0,2.339416504,1.674255371,1,0,0,1,3,163,24,1,,,,,,,,
,,,,,,,,,,,,,FF,,,,,,,,1.0344,,,,,,,,,,,,,,,,,,,,,,60ff6869e503c8c1e2be7df2,61036e2a5e84e286d741c818,2021-07-29_21h14.12.751,Simcolourproject_2stim_asymm_v5,2020.2.10,MacIntel,60,61025ae37ef11b136ea224fe,,,,,,,,,4356,-45.21673584,65.61108398,1,0,0,response7disk,,0,-16.91333008,-4.042602539,1,0,0,rectangle,-16.91333008,-4.042602539,1,0,0,-16.91333008,-4.042602539,1,0,0,1,4,164,21,1,,,,,,,,
,,,,,,,,,,,,,FF,,,,,,,,6.9024,,,,,,,,,,,,,,,,,,,,,,60ff6869e503c8c1e2be7df2,61036e2a5e84e286d741c818,2021-07-29_21h14.12.751,Simcolourproject_2stim_asymm_v5,2020.2.10,MacIntel,60,61025ae37ef11b136ea224fe,,,,,,,,,3419,-38.49090576,-70.76382446,1,0,0,response5disk,,3,9.626831055,12.78274536,1,0,0,rectangle,9.626831055,12.78274536,1,0,0,9.626831055,12.78274536,1,0,0,1,5,165,57,1,,,,,,,,
,,,,,,,,,,,,,FF,,,,,,,,10.5221,,,,,,,,,,,,,,,,,,,,,,60ff6869e503c8c1e2be7df2,61036e2a5e84e286d741c818,2021-07-29_21h14.12.751,Simcolourproject_2stim_asymm_v5,2020.2.10,MacIntel,60,61025ae37ef11b136ea224fe,,,,,,,,,3794,-41.54797363,-82.63320923,1,0,0,response5disk,,3,-6.552429199,-9.53137207,1,0,0,rectangle,-6.552429199,-9.53137207,1,0,0,-6.552429199,-9.53137207,1,0,0,1,6,166,78,1,,,,,,,,
,,,,,,,,,,,,,FF,,,,,,,,0.9332,,,,,,,,,,,,,,,,,,,,,,60ff6869e503c8c1e2be7df2,61036e2a5e84e286d741c818,2021-07-29_21h14.12.751,Simcolourproject_2stim_asymm_v5,2020.2.10,MacIntel,60,61025ae37ef11b136ea224fe,,,,,,,,,1744,-50.38323975,-42.8729248,1,0,0,response5disk,,2,-10.25408936,-13.59906006,1,0,0,rectangle,-10.25408936,-13.59906006,1,0,0,-10.25408936,-13.59906006,1,0,0,1,7,167,116,1,,,,,,,,
,,,,,,,,,,,,,FF,,,,,,,,0.8509,,,,,,,,,,,,,,,,,,,,,,60ff6869e503c8c1e2be7df2,61036e2a5e84e286d741c818,2021-07-29_21h14.12.751,Simcolourproject_2stim_asymm_v5,2020.2.10,MacIntel,60,61025ae37ef11b136ea224fe,,,,,,,,,3857,70.95904541,-26.28399658,1,0,0,response3disk,,5,22.29724121,-13.6385498,1,0,0,rectangle,22.29724121,-13.6385498,1,0,0,22.29724121,-13.6385498,1,0,0,1,8,168,30,1,,,,,,,,
,,,,,,,,,,,,,FF,,,,,,,,0.8175,,,,,,,,,,,,,,,,,,,,,,60ff6869e503c8c1e2be7df2,61036e2a5e84e286d741c818,2021-07-29_21h14.12.751,Simcolourproject_2stim_asymm_v5,2020.2.10,MacIntel,60,61025ae37ef11b136ea224fe,,,,,,,,,385,16.68060303,79.22518921,1,0,0,response1disk,,7,0.791748047,-2.78125,1,0,0,rectangle,0.791748047,-2.78125,1,0,0,0.791748047,-2.78125,1,0,0,1,9,169,47,1,,,,,,,,
,,,,,,,,,,,,,FF,,,,,,,,1.4353,,,,,,,,,,,,,,,,,,,,,,60ff6869e503c8c1e2be7df2,61036e2a5e84e286d741c818,2021-07-29_21h14.12.751,Simcolourproject_2stim_asymm_v5,2020.2.10,MacIntel,60,61025ae37ef11b136ea224fe,,,,,,,,,439,41.78308105,-61.81292725,1,0,0,response3disk,,4,9.541015625,-0.234436035,1,0,0,rectangle,9.541015625,-0.234436035,1,0,0,9.541015625,-0.234436035,1,0,0,1,10,170,156,1,,,,,,,,
,,,,,,,,,,,,,FF,,,,,,,,1.4681,,,,,,,,,,,,,,,,,,,,,,60ff6869e503c8c1e2be7df2,61036e2a5e84e286d741c818,2021-07-29_21h14.12.751,Simcolourproject_2stim_asymm_v5,2020.2.10,MacIntel,60,61025ae37ef11b136ea224fe,,,,,,,,,2686,84.72143555,33.14285278,1,0,0,response1disk,,6,5.727539063,-6.387084961,1,0,0,rectangle,5.727539063,-6.387084961,1,0,0,5.727539063,-6.387084961,1,0,0,1,11,171,103,1,,,,,,,,
,,,,,,,,,,,,,FF,,,,,,,,1.033,,,,,,,,,,,,,,,,,,,,,,60ff6869e503c8c1e2be7df2,61036e2a5e84e286d741c818,2021-07-29_21h14.12.751,Simcolourproject_2stim_asymm_v5,2020.2.10,MacIntel,60,61025ae37ef11b136ea224fe,,,,,,,,,3634,31.83746338,45.99942017,1,0,0,response1disk,,7,8.140869141,-5.485290527,1,0,0,rectangle,8.140869141,-5.485290527,1,0,0,8.140869141,-5.485290527,1,0,0,1,12,172,2,1,,,,,,,,
,,,,,,,,,,,,,FF,,,,,,,,1.2341,,,,,,,,,,,,,,,,,,,,,,60ff6869e503c8c1e2be7df2,61036e2a5e84e286d741c818,2021-07-29_21h14.12.751,Simcolourproject_2stim_asymm_v5,2020.2.10,MacIntel,60,61025ae37ef11b136ea224fe,,,,,,,,,3749,-20.71948242,-55.10745239,1,0,0,response5disk,,3,-8.163879395,-5.581481934,1,0,0,rectangle,-8.163879395,-5.581481934,1,0,0,-8.163879395,-5.581481934,1,0,0,1,13,173,105,1,,,,,,,,
,,,,,,,,,,,,,FF,,,,,,,,0.9058,,,,,,,,,,,,,,,,,,,,,,60ff6869e503c8c1e2be7df2,61036e2a5e84e286d741c818,2021-07-29_21h14.12.751,Simcolourproject_2stim_asymm_v5,2020.2.10,MacIntel,60,61025ae37ef11b136ea224fe,,,,,,,,,3642,78.62127686,-40.37307739,1,0,0,response3disk,,5,17.5022583,-13.33282471,1,0,0,rectangle,17.5022583,-13.33282471,1,0,0,17.5022583,-13.33282471,1,0,0,1,14,174,85,1,,,,,,,,
,,,,,,,,,,,,,FF,,,,,,,,0.9004,,,,,,,,,,,,,,,,,,,,,,60ff6869e503c8c1e2be7df2,61036e2a5e84e286d741c818,2021-07-29_21h14.12.751,Simcolourproject_2stim_asymm_v5,2020.2.10,MacIntel,60,61025ae37ef11b136ea224fe,,,,,,,,,2356,-58.62365723,-34.93161011,1,0,0,response5disk,,2,-16.34832764,-8.71307373,1,0,0,rectangle,-99.73846436,27.05352783,1,0,0,-21.45172119,-5.199768066,1,0,0,1,15,175,3,1,,response7disk_3,TRUE,1,1,"[289,176,179,291,246,161,158,240,268,10,188,240,306,261,299,104,232,261,125,31]",1.7332,rectangle
,,,,,,,,,,,,,FF,,,,,,,,1.3339,,,,,,,,,,,,,,,,,,,,,,60ff6869e503c8c1e2be7df2,61036e2a5e84e286d741c818,2021-07-29_21h14.12.751,Simcolourproject_2stim_asymm_v5,2020.2.10,MacIntel,60,61025ae37ef11b136ea224fe,,,,,,,,,2402,42.4085083,71.26922607,1,0,0,response1disk,,7,10.79785156,-12.49298096,1,0,0,rectangle,10.79785156,-12.49298096,1,0,0,10.79785156,-12.49298096,1,0,0,1,16,176,153,1,,,,,,,,
,,,,,,,,,,,,,FF,,,,,,,,1.8502,,,,,,,,,,,,,,,,,,,,,,60ff6869e503c8c1e2be7df2,61036e2a5e84e286d741c818,2021-07-29_21h14.12.751,Simcolourproject_2stim_asymm_v5,2020.2.10,MacIntel,60,61025ae37ef11b136ea224fe,,,,,,,,,3760,70.60266113,17.85351563,1,0,0,response1disk,,6,6.334228516,3.330810547,1,0,0,rectangle,6.334228516,3.330810547,1,0,0,6.334228516,3.330810547,1,0,0,1,17,177,61,1,,,,,,,,
,,,,,,,,,,,,,FF,,,,,,,,1.3503,,,,,,,,,,,,,,,,,,,,,,60ff6869e503c8c1e2be7df2,61036e2a5e84e286d741c818,2021-07-29_21h14.12.751,Simcolourproject_2stim_asymm_v5,2020.2.10,MacIntel,60,61025ae37ef11b136ea224fe,,,,,,,,,2655,32.77868652,-56.65756226,1,0,0,response3disk,,4,3.575805664,-10.1362915,1,0,0,rectangle,-78.09503174,33.88934326,1,0,0,-12.85314941,3.376037598,1,0,0,1,18,178,23,1,,response7disk_3,TRUE,1,1,"[289,176,179,291,246,161,158,240,268,10,188,240,306,261,299,104,232,261,125,31]",1.484,rectangle
,,,,,,,,,,,,,FF,,,,,,,,1.0501,,,,,,,,,,,,,,,,,,,,,,60ff6869e503c8c1e2be7df2,61036e2a5e84e286d741c818,2021-07-29_21h14.12.751,Simcolourproject_2stim_asymm_v5,2020.2.10,MacIntel,60,61025ae37ef11b136ea224fe,,,,,,,,,275,27.39312744,62.51968384,1,0,0,response1disk,,7,5.264648438,-5.145904541,1,0,0,rectangle,5.264648438,-5.145904541,1,0,0,5.264648438,-5.145904541,1,0,0,1,19,179,4,1,,,,,,,,
,,,,,,,,,,,,,FF,,,,,,,,0.8,,,,,,,,,,,,,,,,,,,,,,60ff6869e503c8c1e2be7df2,61036e2a5e84e286d741c818,2021-07-29_21h14.12.751,Simcolourproject_2stim_asymm_v5,2020.2.10,MacIntel,60,61025ae37ef11b136ea224fe,,,,,,,,,2530,20.33691406,52.65753174,1,0,0,response1disk,,7,12.48876953,10.30096436,1,0,0,rectangle,12.48876953,10.30096436,1,0,0,12.48876953,10.30096436,1,0,0,1,20,180,90,1,,,,,,,,
,,,,,,,,,,,,,FF,,,,,,,,1.5672,,,,,,,,,,,,,,,,,,,,,,60ff6869e503c8c1e2be7df2,61036e2a5e84e286d741c818,2021-07-29_21h14.12.751,Simcolourproject_2stim_asymm_v5,2020.2.10,MacIntel,60,61025ae37ef11b136ea224fe,,,,,,,,,4205,-20.10266113,-87.324646,1,0,0,response5disk,,3,-12.79553223,5.481170654,1,0,0,rectangle,-12.79553223,5.481170654,1,0,0,-12.79553223,5.481170654,1,0,0,1,21,181,87,1,,,,,,,,
,,,,,,,,,,,,,FF,,,,,,,,1.0505,,,,,,,,,,,,,,,,,,,,,,60ff6869e503c8c1e2be7df2,61036e2a5e84e286d741c818,2021-07-29_21h14.12.751,Simcolourproject_2stim_asymm_v5,2020.2.10,MacIntel,60,61025ae37ef11b136ea224fe,,,,,,,,,1381,49.02697754,-101.8990173,1,0,0,response3disk,,4,10.11102295,-14.07226563,1,0,0,rectangle,10.11102295,-14.07226563,1,0,0,10.11102295,-14.07226563,1,0,0,1,22,182,10,1,,,,,,,,
,,,,,,,,,,,,,FF,,,,,,,,0.7162,,,,,,,,,,,,,,,,,,,,,,60ff6869e503c8c1e2be7df2,61036e2a5e84e286d741c818,2021-07-29_21h14.12.751,Simcolourproject_2stim_asymm_v5,2020.2.10,MacIntel,60,61025ae37ef11b136ea224fe,,,,,,,,,2907,79.06677246,-16.46694946,1,0,0,response3disk,,5,13.34631348,-0.978637695,1,0,0,rectangle,13.34631348,-0.978637695,1,0,0,13.34631348,-0.978637695,1,0,0,1,23,183,67,1,,,,,,,,
,,,,,,,,,,,,,FF,,,,,,,,1.2337,,,,,,,,,,,,,,,,,,,,,,60ff6869e503c8c1e2be7df2,61036e2a5e84e286d741c818,2021-07-29_21h14.12.751,Simcolourproject_2stim_asymm_v5,2020.2.10,MacIntel,60,61025ae37ef11b136ea224fe,,,,,,,,,807,-22.44116211,-72.1350708,1,0,0,response5disk,,3,-11.86657715,-10.48223877,1,0,0,rectangle,-11.86657715,-10.48223877,1,0,0,-11.86657715,-10.48223877,1,0,0,1,24,184,136,1,,,,,,,,
,,,,,,,,,,,,,FF,,,,,,,,0.701,,,,,,,,,,,,,,,,,,,,,,60ff6869e503c8c1e2be7df2,61036e2a5e84e286d741c818,2021-07-29_21h14.12.751,Simcolourproject_2stim_asymm_v5,2020.2.10,MacIntel,60,61025ae37ef11b136ea224fe,,,,,,,,,978,38.90124512,-74.0927124,1,0,0,response3disk,,4,18.39959717,-3.234924316,1,0,0,rectangle,18.39959717,-3.234924316,1,0,0,18.39959717,-3.234924316,1,0,0,1,25,185,130,1,,,,,,,,
,,,,,,,,,,,,,FF,,,,,,,,1.0504,,,,,,,,,,,,,,,,,,,,,,60ff6869e503c8c1e2be7df2,61036e2a5e84e286d741c818,2021-07-29_21h14.12.751,Simcolourproject_2stim_asymm_v5,2020.2.10,MacIntel,60,61025ae37ef11b136ea224fe,,,,,,,,,3038,-29.51037598,-67.45782471,1,0,0,response5disk,,3,-15.33258057,0.100097656,1,0,0,rectangle,-15.33258057,0.100097656,1,0,0,-15.33258057,0.100097656,1,0,0,1,26,186,128,1,,,,,,,,
,,,,,,,,,,,,,FF,,,,,,,,0.7838,,,,,,,,,,,,,,,,,,,,,,60ff6869e503c8c1e2be7df2,61036e2a5e84e286d741c818,2021-07-29_21h14.12.751,Simcolourproject_2stim_asymm_v5,2020.2.10,MacIntel,60,61025ae37ef11b136ea224fe,,,,,,,,,741,34.40771484,-94.3918457,1,0,0,response3disk,,4,5.26171875,-8.680603027,1,0,0,rectangle,-96.20806885,30.41894531,1,0,0,-0.844787598,-7.804321289,1,0,0,1,27,187,19,1,,response7disk_3,TRUE,1,1,"[289,176,179,291,246,161,158,240,268,10,188,240,306,261,299,104,232,261,125,31]",2.217,rectangle
,,,,,,,,,,,,,FF,,,,,,,,1.0002,,,,,,,,,,,,,,,,,,,,,,60ff6869e503c8c1e2be7df2,61036e2a5e84e286d741c818,2021-07-29_21h14.12.751,Simcolourproject_2stim_asymm_v5,2020.2.10,MacIntel,60,61025ae37ef11b136ea224fe,,,,,,,,,3532,42.23687744,64.31616211,1,0,0,response1disk,,7,16.28662109,5.514282227,1,0,0,rectangle,16.28662109,5.514282227,1,0,0,16.28662109,5.514282227,1,0,0,1,28,188,125,1,,,,,,,,
,,,,,,,,,,,,,FF,,,,,,,,1.2004,,,,,,,,,,,,,,,,,,,,,,60ff6869e503c8c1e2be7df2,61036e2a5e84e286d741c818,2021-07-29_21h14.12.751,Simcolourproject_2stim_asymm_v5,2020.2.10,MacIntel,60,61025ae37ef11b136ea224fe,,,,,,,,,436,80.51965332,-53.90686035,1,0,0,response3disk,,5,2.149597168,9.930114746,1,0,0,rectangle,2.149597168,9.930114746,1,0,0,2.149597168,9.930114746,1,0,0,1,29,189,126,1,,,,,,,,
,,,,,,,,,,,,,FF,,,,,,,,1.7337,,,,,,,,,,,,,,,,,,,,,,60ff6869e503c8c1e2be7df2,61036e2a5e84e286d741c818,2021-07-29_21h14.12.751,Simcolourproject_2stim_asymm_v5,2020.2.10,MacIntel,60,61025ae37ef11b136ea224fe,,,,,,,,,2254,57.74273682,24.05780029,1,0,0,response1disk,,6,10.98632813,4.939819336,1,0,0,rectangle,10.98632813,4.939819336,1,0,0,10.98632813,4.939819336,1,0,0,1,30,190,98,1,,,,,,,,
,,,,,,,,,,,,,FF,,,,,,,,2.0504,,,,,,,,,,,,,,,,,,,,,,60ff6869e503c8c1e2be7df2,61036e2a5e84e286d741c818,2021-07-29_21h14.12.751,Simcolourproject_2stim_asymm_v5,2020.2.10,MacIntel,60,61025ae37ef11b136ea224fe,,,,,,,,,3392,-49.27929688,-74.37808228,1,0,0,response5disk,,3,-26.30950928,1.618347168,1,0,0,rectangle,-26.30950928,1.618347168,1,0,0,-26.30950928,1.618347168,1,0,0,1,31,191,144,1,,,,,,,,
,,,,,,,,,,,,,FF,,,,,,,,1.4507,,,,,,,,,,,,,,,,,,,,,,60ff6869e503c8c1e2be7df2,61036e2a5e84e286d741c818,2021-07-29_21h14.12.751,Simcolourproject_2stim_asymm_v5,2020.2.10,MacIntel,60,61025ae37ef11b136ea224fe,,,,,,,,,872,34.25976563,56.39086914,1,0,0,response1disk,,7,1.131286621,-7.65612793,1,0,0,rectangle,1.131286621,-7.65612793,1,0,0,1.131286621,-7.65612793,1,0,0,1,32,192,1,1,,,,,,,,
,,,,,,,,,,,,,FF,,,,,,,,1.0683,,,,,,,,,,,,,,,,,,,,,,60ff6869e503c8c1e2be7df2,61036e2a5e84e286d741c818,2021-07-29_21h14.12.751,Simcolourproject_2stim_asymm_v5,2020.2.10,MacIntel,60,61025ae37ef11b136ea224fe,,,,,,,,,1784,52.80047607,82.92431641,1,0,0,response1disk,,7,8.337585449,-9.058105469,1,0,0,rectangle,8.337585449,-9.058105469,1,0,0,8.337585449,-9.058105469,1,0,0,1,33,193,104,1,,,,,,,,
,,,,,,,,,,,,,FF,,,,,,,,1.2332,,,,,,,,,,,,,,,,,,,,,,60ff6869e503c8c1e2be7df2,61036e2a5e84e286d741c818,2021-07-29_21h14.12.751,Simcolourproject_2stim_asymm_v5,2020.2.10,MacIntel,60,61025ae37ef11b136ea224fe,,,,,,,,,3931,82.03149414,38.70773315,1,0,0,response1disk,,6,-5.31640625,-2.796447754,1,0,0,rectangle,-5.31640625,-2.796447754,1,0,0,-5.31640625,-2.796447754,1,0,0,1,34,194,22,1,,,,,,,,
,,,,,,,,,,,,,FF,,,,,,,,2.3172,,,,,,,,,,,,,,,,,,,,,,60ff6869e503c8c1e2be7df2,61036e2a5e84e286d741c818,2021-07-29_21h14.12.751,Simcolourproject_2stim_asymm_v5,2020.2.10,MacIntel,60,61025ae37ef11b136ea224fe,,,,,,,,,3193,62.94921875,-55.2756958,1,0,0,response3disk,,5,5.58770752,0.594116211,1,0,0,rectangle,5.58770752,0.594116211,1,0,0,5.58770752,0.594116211,1,0,0,1,35,195,139,1,,,,,,,,
,,,,,,,,,,,,,FF,,,,,,,,0.7006,,,,,,,,,,,,,,,,,,,,,,60ff6869e503c8c1e2be7df2,61036e2a5e84e286d741c818,2021-07-29_21h14.12.751,Simcolourproject_2stim_asymm_v5,2020.2.10,MacIntel,60,61025ae37ef11b136ea224fe,,,,,,,,,3325,19.48803711,48.74609375,1,0,0,response1disk,,7,4.269775391,0.957061768,1,0,0,rectangle,4.269775391,0.957061768,1,0,0,4.269775391,0.957061768,1,0,0,1,36,196,129,1,,,,,,,,
,,,,,,,,,,,,,FF,,,,,,,,0.8505,,,,,,,,,,,,,,,,,,,,,,60ff6869e503c8c1e2be7df2,61036e2a5e84e286d741c818,2021-07-29_21h14.12.751,Simcolourproject_2stim_asymm_v5,2020.2.10,MacIntel,60,61025ae37ef11b136ea224fe,,,,,,,,,1816,-58.87805176,-23.6244812,1,0,0,response5disk,,2,-6.553527832,2.598907471,1,0,0,rectangle,-6.553527832,2.598907471,1,0,0,-6.553527832,2.598907471,1,0,0,1,37,197,92,1,,,,,,,,
,,,,,,,,,,,,,FF,,,,,,,,0.8001,,,,,,,,,,,,,,,,,,,,,,60ff6869e503c8c1e2be7df2,61036e2a5e84e286d741c818,2021-07-29_21h14.12.751,Simcolourproject_2stim_asymm_v5,2020.2.10,MacIntel,60,61025ae37ef11b136ea224fe,,,,,,,,,1226,-35.22210693,-56.35244751,1,0,0,response5disk,,3,-12.38250732,-3.318756104,1,0,0,rectangle,-12.38250732,-3.318756104,1,0,0,-12.38250732,-3.318756104,1,0,0,1,38,198,45,1,,,,,,,,
,,,,,,,,,,,,,FF,,,,,,,,1.1506,,,,,,,,,,,,,,,,,,,,,,60ff6869e503c8c1e2be7df2,61036e2a5e84e286d741c818,2021-07-29_21h14.12.751,Simcolourproject_2stim_asymm_v5,2020.2.10,MacIntel,60,61025ae37ef11b136ea224fe,,,,,,,,,1351,23.46118164,61.26025391,1,0,0,response1disk,,7,10.93774414,-4.606414795,1,0,0,rectangle,10.93774414,-4.606414795,1,0,0,10.93774414,-4.606414795,1,0,0,1,39,199,158,1,,,,,,,,
,,,,,,,,,,,,,FF,,,,,,,,0.8426,,,,,,,,,,,,,,,,,,,,,,60ff6869e503c8c1e2be7df2,61036e2a5e84e286d741c818,2021-07-29_21h14.12.751,Simcolourproject_2stim_asymm_v5,2020.2.10,MacIntel,60,61025ae37ef11b136ea224fe,,,,,,,,,2629,29.53515625,43.11761475,1,0,0,response1disk,,7,16.02539063,5.996734619,1,0,0,rectangle,16.02539063,5.996734619,1,0,0,16.02539063,5.996734619,1,0,0,1,40,200,26,1,,,,,,,,
,,,,,,,,,,,,,FF,,,,,,,,1.1008,,,,,,,,,,,,,,,,,,,,,,60ff6869e503c8c1e2be7df2,61036e2a5e84e286d741c818,2021-07-29_21h14.12.751,Simcolourproject_2stim_asymm_v5,2020.2.10,MacIntel,60,61025ae37ef11b136ea224fe,,,,,,,,,3278,31.50500488,73.2276001,1,0,0,response1disk,,7,-5.95892334,-7.805480957,1,0,0,rectangle,-5.95892334,-7.805480957,1,0,0,-5.95892334,-7.805480957,1,0,0,1,41,201,64,1,,,,,,,,
,,,,,,,,,,,,,FF,,,,,,,,1.0014,,,,,,,,,,,,,,,,,,,,,,60ff6869e503c8c1e2be7df2,61036e2a5e84e286d741c818,2021-07-29_21h14.12.751,Simcolourproject_2stim_asymm_v5,2020.2.10,MacIntel,60,61025ae37ef11b136ea224fe,,,,,,,,,2021,60.75482178,-36.30145264,1,0,0,response3disk,,5,8.113220215,0.194335938,1,0,0,rectangle,8.113220215,0.194335938,1,0,0,8.113220215,0.194335938,1,0,0,1,42,202,56,1,,,,,,,,
,,,,,,,,,,,,,FF,,,,,,,,1.9004,,,,,,,,,,,,,,,,,,,,,,60ff6869e503c8c1e2be7df2,61036e2a5e84e286d741c818,2021-07-29_21h14.12.751,Simcolourproject_2stim_asymm_v5,2020.2.10,MacIntel,60,61025ae37ef11b136ea224fe,,,,,,,,,2490,28.72753906,-93.95684814,1,0,0,response3disk,,4,10.96679688,10.59320068,1,0,0,rectangle,10.96679688,10.59320068,1,0,0,10.96679688,10.59320068,1,0,0,1,43,203,131,1,,,,,,,,
,,,,,,,,,,,,,FF,,,,,,,,0.8665,,,,,,,,,,,,,,,,,,,,,,60ff6869e503c8c1e2be7df2,61036e2a5e84e286d741c818,2021-07-29_21h14.12.751,Simcolourproject_2stim_asymm_v5,2020.2.10,MacIntel,60,61025ae37ef11b136ea224fe,,,,,,,,,3862,27.61602783,49.72454834,1,0,0,response1disk,,7,18.58087158,1.17868042,1,0,0,rectangle,18.58087158,1.17868042,1,0,0,18.58087158,1.17868042,1,0,0,1,44,204,38,1,,,,,,,,
,,,,,,,,,,,,,FF,,,,,,,,1.4014,,,,,,,,,,,,,,,,,,,,,,60ff6869e503c8c1e2be7df2,61036e2a5e84e286d741c818,2021-07-29_21h14.12.751,Simcolourproject_2stim_asymm_v5,2020.2.10,MacIntel,60,61025ae37ef11b136ea224fe,,,,,,,,,4156,22.33618164,72.75979614,1,0,0,response1disk,,7,12.5657959,12.32293701,1,0,0,rectangle,12.5657959,12.32293701,1,0,0,12.5657959,12.32293701,1,0,0,1,45,205,121,1,,,,,,,,
,,,,,,,,,,,,,FF,,,,,,,,1.0663,,,,,,,,,,,,,,,,,,,,,,60ff6869e503c8c1e2be7df2,61036e2a5e84e286d741c818,2021-07-29_21h14.12.751,Simcolourproject_2stim_asymm_v5,2020.2.10,MacIntel,60,61025ae37ef11b136ea224fe,,,,,,,,,1457,-88.24151611,-33.69061279,1,0,0,response5disk,,2,-12.71600342,5.618896484,1,0,0,rectangle,-12.71600342,5.618896484,1,0,0,-12.71600342,5.618896484,1,0,0,1,46,206,134,1,,,,,,,,
,,,,,,,,,,,,,FF,,,,,,,,1.2506,,,,,,,,,,,,,,,,,,,,,,60ff6869e503c8c1e2be7df2,61036e2a5e84e286d741c818,2021-07-29_21h14.12.751,Simcolourproject_2stim_asymm_v5,2020.2.10,MacIntel,60,61025ae37ef11b136ea224fe,,,,,,,,,1826,-63.57104492,-54.97241211,1,0,0,response5disk,,2,-24.25866699,8.405700684,1,0,0,rectangle,-24.25866699,8.405700684,1,0,0,-24.25866699,8.405700684,1,0,0,1,47,207,8,1,,,,,,,,
,,,,,,,,,,,,,FF,,,,,,,,1.201,,,,,,,,,,,,,,,,,,,,,,60ff6869e503c8c1e2be7df2,61036e2a5e84e286d741c818,2021-07-29_21h14.12.751,Simcolourproject_2stim_asymm_v5,2020.2.10,MacIntel,60,61025ae37ef11b136ea224fe,,,,,,,,,1850,64.07189941,-32.8850708,1,0,0,response3disk,,5,18.387146,-1.741882324,1,0,0,rectangle,18.387146,-1.741882324,1,0,0,18.387146,-1.741882324,1,0,0,1,48,208,149,1,,,,,,,,
,,,,,,,,,,,,,FF,,,,,,,,1.3005,,,,,,,,,,,,,,,,,,,,,,60ff6869e503c8c1e2be7df2,61036e2a5e84e286d741c818,2021-07-29_21h14.12.751,Simcolourproject_2stim_asymm_v5,2020.2.10,MacIntel,60,61025ae37ef11b136ea224fe,,,,,,,,,3925,60.48095703,25.50195313,1,0,0,response1disk,,6,1.03918457,-5.305175781,1,0,0,rectangle,1.03918457,-5.305175781,1,0,0,1.03918457,-5.305175781,1,0,0,1,49,209,109,1,,,,,,,,
,,,,,,,,,,,,,FF,,,,,,,,1.5002,,,,,,,,,,,,,,,,,,,,,,60ff6869e503c8c1e2be7df2,61036e2a5e84e286d741c818,2021-07-29_21h14.12.751,Simcolourproject_2stim_asymm_v5,2020.2.10,MacIntel,60,61025ae37ef11b136ea224fe,,,,,,,,,2250,75.27648926,-40.42437744,1,0,0,response3disk,,5,2.051391602,6.841766357,1,0,0,rectangle,2.051391602,6.841766357,1,0,0,2.051391602,6.841766357,1,0,0,1,50,210,41,1,,,,,,,,
,,,,,,,,,,,,,FF,,,,,,,,0.8162,,,,,,,,,,,,,,,,,,,,,,60ff6869e503c8c1e2be7df2,61036e2a5e84e286d741c818,2021-07-29_21h14.12.751,Simcolourproject_2stim_asymm_v5,2020.2.10,MacIntel,60,61025ae37ef11b136ea224fe,,,,,,,,,1851,30.11828613,77.30941772,1,0,0,response1disk,,7,0.985473633,-4.532867432,1,0,0,rectangle,0.985473633,-4.532867432,1,0,0,0.985473633,-4.532867432,1,0,0,1,51,211,127,1,,,,,,,,
,,,,,,,,,,,,,FF,,,,,,,,2.7346,,,,,,,,,,,,,,,,,,,,,,60ff6869e503c8c1e2be7df2,61036e2a5e84e286d741c818,2021-07-29_21h14.12.751,Simcolourproject_2stim_asymm_v5,2020.2.10,MacIntel,60,61025ae37ef11b136ea224fe,,,,,,,,,3141,-31.75653076,-91.51974487,1,0,0,response5disk,,3,-1.734741211,-0.392211914,1,0,0,rectangle,-1.734741211,-0.392211914,1,0,0,-1.734741211,-0.392211914,1,0,0,1,52,212,151,1,,,,,,,,
,,,,,,,,,,,,,FF,,,,,,,,1.0837,,,,,,,,,,,,,,,,,,,,,,60ff6869e503c8c1e2be7df2,61036e2a5e84e286d741c818,2021-07-29_21h14.12.751,Simcolourproject_2stim_asymm_v5,2020.2.10,MacIntel,60,61025ae37ef11b136ea224fe,,,,,,,,,1659,36.1395874,59.76037598,1,0,0,response1disk,,7,4.745788574,2.396972656,1,0,0,rectangle,4.745788574,2.396972656,1,0,0,4.745788574,2.396972656,1,0,0,1,53,213,122,1,,,,,,,,
,,,,,,,,,,,,,FF,,,,,,,,2.1182,,,,,,,,,,,,,,,,,,,,,,60ff6869e503c8c1e2be7df2,61036e2a5e84e286d741c818,2021-07-29_21h14.12.751,Simcolourproject_2stim_asymm_v5,2020.2.10,MacIntel,60,61025ae37ef11b136ea224fe,,,,,,,,,3876,-36.37188721,-105.7150879,1,0,0,response5disk,,3,11.43530273,8.77166748,1,0,0,rectangle,11.43530273,8.77166748,1,0,0,11.43530273,8.77166748,1,0,0,1,54,214,82,1,,,,,,,,
,,,,,,,,,,,,,FF,,,,,,,,0.8331,,,,,,,,,,,,,,,,,,,,,,60ff6869e503c8c1e2be7df2,61036e2a5e84e286d741c818,2021-07-29_21h14.12.751,Simcolourproject_2stim_asymm_v5,2020.2.10,MacIntel,60,61025ae37ef11b136ea224fe,,,,,,,,,624,37.394104,44.68572998,1,0,0,response1disk,,7,6.427429199,-3.325866699,1,0,0,rectangle,6.427429199,-3.325866699,1,0,0,6.427429199,-3.325866699,1,0,0,1,55,215,74,1,,,,,,,,
,,,,,,,,,,,,,FF,,,,,,,,0.9169,,,,,,,,,,,,,,,,,,,,,,60ff6869e503c8c1e2be7df2,61036e2a5e84e286d741c818,2021-07-29_21h14.12.751,Simcolourproject_2stim_asymm_v5,2020.2.10,MacIntel,60,61025ae37ef11b136ea224fe,,,,,,,,,3688,33.89215088,63.95266724,1,0,0,response1disk,,7,1.778076172,-13.26812744,1,0,0,rectangle,1.778076172,-13.26812744,1,0,0,1.778076172,-13.26812744,1,0,0,1,56,216,33,1,,,,,,,,
,,,,,,,,,,,,,FF,,,,,,,,0.784,,,,,,,,,,,,,,,,,,,,,,60ff6869e503c8c1e2be7df2,61036e2a5e84e286d741c818,2021-07-29_21h14.12.751,Simcolourproject_2stim_asymm_v5,2020.2.10,MacIntel,60,61025ae37ef11b136ea224fe,,,,,,,,,1128,27.31158447,49.68002319,1,0,0,response1disk,,7,5.000488281,8.367797852,1,0,0,rectangle,5.000488281,8.367797852,1,0,0,5.000488281,8.367797852,1,0,0,1,57,217,36,1,,,,,,,,
,,,,,,,,,,,,,FF,,,,,,,,1.5669,,,,,,,,,,,,,,,,,,,,,,60ff6869e503c8c1e2be7df2,61036e2a5e84e286d741c818,2021-07-29_21h14.12.751,Simcolourproject_2stim_asymm_v5,2020.2.10,MacIntel,60,61025ae37ef11b136ea224fe,,,,,,,,,81,37.25012207,-62.7097168,1,0,0,response3disk,,4,-3.217163086,-9.168518066,1,0,0,rectangle,-3.217163086,-9.168518066,1,0,0,-3.217163086,-9.168518066,1,0,0,1,58,218,66,1,,,,,,,,
,,,,,,,,,,,,,FF,,,,,,,,1.0337,,,,,,,,,,,,,,,,,,,,,,60ff6869e503c8c1e2be7df2,61036e2a5e84e286d741c818,2021-07-29_21h14.12.751,Simcolourproject_2stim_asymm_v5,2020.2.10,MacIntel,60,61025ae37ef11b136ea224fe,,,,,,,,,302,24.16094971,47.56451416,1,0,0,response1disk,,7,-1.29284668,-5.663818359,1,0,0,rectangle,-1.29284668,-5.663818359,1,0,0,-1.29284668,-5.663818359,1,0,0,1,59,219,49,1,,,,,,,,
,,,,,,,,,,,,,FF,,,,,,,,2.0171,,,,,,,,,,,,,,,,,,,,,,60ff6869e503c8c1e2be7df2,61036e2a5e84e286d741c818,2021-07-29_21h14.12.751,Simcolourproject_2stim_asymm_v5,2020.2.10,MacIntel,60,61025ae37ef11b136ea224fe,,,,,,,,,106,-29.57434082,-85.38269043,1,0,0,response5disk,,3,-2.100219727,-8.501342773,1,0,0,rectangle,-2.100219727,-8.501342773,1,0,0,-2.100219727,-8.501342773,1,0,0,1,60,220,142,1,,,,,,,,
,,,,,,,,,,,,,FF,,,,,,,,0.9502,,,,,,,,,,,,,,,,,,,,,,60ff6869e503c8c1e2be7df2,61036e2a5e84e286d741c818,2021-07-29_21h14.12.751,Simcolourproject_2stim_asymm_v5,2020.2.10,MacIntel,60,61025ae37ef11b136ea224fe,,,,,,,,,4134,20.1652832,55.26647949,1,0,0,response1disk,,7,-2.666015625,4.184082031,1,0,0,rectangle,-2.666015625,4.184082031,1,0,0,-2.666015625,4.184082031,1,0,0,1,61,221,95,1,,,,,,,,
,,,,,,,,,,,,,FF,,,,,,,,1.2504,,,,,,,,,,,,,,,,,,,,,,60ff6869e503c8c1e2be7df2,61036e2a5e84e286d741c818,2021-07-29_21h14.12.751,Simcolourproject_2stim_asymm_v5,2020.2.10,MacIntel,60,61025ae37ef11b136ea224fe,,,,,,,,,3494,33.21411133,61.96731567,1,0,0,response1disk,,7,-4.764099121,7.405761719,1,0,0,rectangle,-4.764099121,7.405761719,1,0,0,-4.764099121,7.405761719,1,0,0,1,62,222,137,1,,,,,,,,
,,,,,,,,,,,,,FF,,,,,,,,1.2875,,,,,,,,,,,,,,,,,,,,,,60ff6869e503c8c1e2be7df2,61036e2a5e84e286d741c818,2021-07-29_21h14.12.751,Simcolourproject_2stim_asymm_v5,2020.2.10,MacIntel,60,61025ae37ef11b136ea224fe,,,,,,,,,2344,24.20135498,38.53924561,1,0,0,response1disk,,7,5.798095703,-1.925231934,1,0,0,rectangle,5.798095703,-1.925231934,1,0,0,5.798095703,-1.925231934,1,0,0,1,63,223,102,1,,,,,,,,
,,,,,,,,,,,,,FF,,,,,,,,1.7333,,,,,,,,,,,,,,,,,,,,,,60ff6869e503c8c1e2be7df2,61036e2a5e84e286d741c818,2021-07-29_21h14.12.751,Simcolourproject_2stim_asymm_v5,2020.2.10,MacIntel,60,61025ae37ef11b136ea224fe,,,,,,,,,1954,49.1385498,-81.8291626,1,0,0,response3disk,,4,-3.389099121,-5.046203613,1,0,0,rectangle,-3.389099121,-5.046203613,1,0,0,-3.389099121,-5.046203613,1,0,0,1,64,224,37,1,,,,,,,,
,,,,,,,,,,,,,FF,,,,,,,,1.2166,,,,,,,,,,,,,,,,,,,,,,60ff6869e503c8c1e2be7df2,61036e2a5e84e286d741c818,2021-07-29_21h14.12.751,Simcolourproject_2stim_asymm_v5,2020.2.10,MacIntel,60,61025ae37ef11b136ea224fe,,,,,,,,,2485,-35.82556152,-70.61712646,1,0,0,response5disk,,3,-3.149841309,4.726867676,1,0,0,rectangle,-3.149841309,4.726867676,1,0,0,-3.149841309,4.726867676,1,0,0,1,65,225,124,1,,,,,,,,
,,,,,,,,,,,,,FF,,,,,,,,1.7682,,,,,,,,,,,,,,,,,,,,,,60ff6869e503c8c1e2be7df2,61036e2a5e84e286d741c818,2021-07-29_21h14.12.751,Simcolourproject_2stim_asymm_v5,2020.2.10,MacIntel,60,61025ae37ef11b136ea224fe,,,,,,,,,3174,59.02709961,33.57681274,1,0,0,response1disk,,6,16.82421875,12.13433838,1,0,0,rectangle,16.82421875,12.13433838,1,0,0,16.82421875,12.13433838,1,0,0,1,66,226,17,1,,,,,,,,
,,,,,,,,,,,,,FF,,,,,,,,1.3003,,,,,,,,,,,,,,,,,,,,,,60ff6869e503c8c1e2be7df2,61036e2a5e84e286d741c818,2021-07-29_21h14.12.751,Simcolourproject_2stim_asymm_v5,2020.2.10,MacIntel,60,61025ae37ef11b136ea224fe,,,,,,,,,3291,-62.03411865,18.8114624,1,0,0,response7disk,,1,-17.98535156,-3.555969238,1,0,0,rectangle,-17.98535156,-3.555969238,1,0,0,-17.98535156,-3.555969238,1,0,0,1,67,227,5,1,,,,,,,,
,,,,,,,,,,,,,FF,,,,,,,,1.2512,,,,,,,,,,,,,,,,,,,,,,60ff6869e503c8c1e2be7df2,61036e2a5e84e286d741c818,2021-07-29_21h14.12.751,Simcolourproject_2stim_asymm_v5,2020.2.10,MacIntel,60,61025ae37ef11b136ea224fe,,,,,,,,,948,23.9619751,55.90045166,1,0,0,response1disk,,7,-5.567138672,-12.41778564,1,0,0,rectangle,-5.567138672,-12.41778564,1,0,0,-5.567138672,-12.41778564,1,0,0,1,68,228,75,1,,,,,,,,
,,,,,,,,,,,,,FF,,,,,,,,0.8001,,,,,,,,,,,,,,,,,,,,,,60ff6869e503c8c1e2be7df2,61036e2a5e84e286d741c818,2021-07-29_21h14.12.751,Simcolourproject_2stim_asymm_v5,2020.2.10,MacIntel,60,61025ae37ef11b136ea224fe,,,,,,,,,2865,30.09521484,54.13070679,1,0,0,response1disk,,7,8.888977051,-0.683959961,1,0,0,rectangle,8.888977051,-0.683959961,1,0,0,8.888977051,-0.683959961,1,0,0,1,69,229,88,1,,,,,,,,
,,,,,,,,,,,,,FF,,,,,,,,0.9828,,,,,,,,,,,,,,,,,,,,,,60ff6869e503c8c1e2be7df2,61036e2a5e84e286d741c818,2021-07-29_21h14.12.751,Simcolourproject_2stim_asymm_v5,2020.2.10,MacIntel,60,61025ae37ef11b136ea224fe,,,,,,,,,1150,-19.03894043,-89.34863281,1,0,0,response5disk,,3,-1.51159668,3.417541504,1,0,0,rectangle,-1.51159668,3.417541504,1,0,0,-1.51159668,3.417541504,1,0,0,1,70,230,54,1,,,,,,,,
,,,,,,,,,,,,,FF,,,,,,,,1.2001,,,,,,,,,,,,,,,,,,,,,,60ff6869e503c8c1e2be7df2,61036e2a5e84e286d741c818,2021-07-29_21h14.12.751,Simcolourproject_2stim_asymm_v5,2020.2.10,MacIntel,60,61025ae37ef11b136ea224fe,,,,,,,,,3809,24.37475586,69.12573242,1,0,0,response1disk,,7,1.217834473,6.832519531,1,0,0,rectangle,75.15924072,18.66989136,1,0,0,-2.114318848,-6.840576172,1,0,0,1,71,231,132,1,,response1disk_3,TRUE,6,6,"[289,176,179,291,246,161,158,240,268,10,188,240,306,261,299,104,232,261,125,31]",1.8517,rectangle
,,,,,,,,,,,,,FF,,,,,,,,2.1503,,,,,,,,,,,,,,,,,,,,,,60ff6869e503c8c1e2be7df2,61036e2a5e84e286d741c818,2021-07-29_21h14.12.751,Simcolourproject_2stim_asymm_v5,2020.2.10,MacIntel,60,61025ae37ef11b136ea224fe,,,,,,,,,1853,47.48895264,46.97192383,1,0,0,response1disk,,6,15.34362793,-1.954223633,1,0,0,rectangle,15.34362793,-1.954223633,1,0,0,15.34362793,-1.954223633,1,0,0,1,72,232,13,1,,,,,,,,
,,,,,,,,,,,,,FF,,,,,,,,1.125,,,,,,,,,,,,,,,,,,,,,,60ff6869e503c8c1e2be7df2,61036e2a5e84e286d741c818,2021-07-29_21h14.12.751,Simcolourproject_2stim_asymm_v5,2020.2.10,MacIntel,60,61025ae37ef11b136ea224fe,,,,,,,,,693,56.28417969,-23.48599243,1,0,0,response3disk,,5,-7.233764648,3.432983398,1,0,0,rectangle,-7.233764648,3.432983398,1,0,0,-7.233764648,3.432983398,1,0,0,1,73,233,25,1,,,,,,,,
,,,,,,,,,,,,,FF,,,,,,,,0.734,,,,,,,,,,,,,,,,,,,,,,60ff6869e503c8c1e2be7df2,61036e2a5e84e286d741c818,2021-07-29_21h14.12.751,Simcolourproject_2stim_asymm_v5,2020.2.10,MacIntel,60,61025ae37ef11b136ea224fe,,,,,,,,,1805,33.0010376,70.01153564,1,0,0,response1disk,,7,-4.374023438,-5.338012695,1,0,0,rectangle,-4.374023438,-5.338012695,1,0,0,-4.374023438,-5.338012695,1,0,0,1,74,234,72,1,,,,,,,,
,,,,,,,,,,,,,FF,,,,,,,,1.4007,,,,,,,,,,,,,,,,,,,,,,60ff6869e503c8c1e2be7df2,61036e2a5e84e286d741c818,2021-07-29_21h14.12.751,Simcolourproject_2stim_asymm_v5,2020.2.10,MacIntel,60,61025ae37ef11b136ea224fe,,,,,,,,,3517,-30.29187012,-77.7130127,1,0,0,response5disk,,3,-5.165161133,5.228027344,1,0,0,rectangle,-5.165161133,5.228027344,1,0,0,-5.165161133,5.228027344,1,0,0,1,75,235,62,1,,,,,,,,
,,,,,,,,,,,,,FF,,,,,,,,1.1503,,,,,,,,,,,,,,,,,,,,,,60ff6869e503c8c1e2be7df2,61036e2a5e84e286d741c818,2021-07-29_21h14.12.751,Simcolourproject_2stim_asymm_v5,2020.2.10,MacIntel,60,61025ae37ef11b136ea224fe,,,,,,,,,3376,-59.10229492,-22.76235962,1,0,0,response5disk,,2,-9.700439453,3.77923584,1,0,0,rectangle,-9.700439453,3.77923584,1,0,0,-9.700439453,3.77923584,1,0,0,1,76,236,110,1,,,,,,,,
,,,,,,,,,,,,,FF,,,,,,,,0.7333,,,,,,,,,,,,,,,,,,,,,,60ff6869e503c8c1e2be7df2,61036e2a5e84e286d741c818,2021-07-29_21h14.12.751,Simcolourproject_2stim_asymm_v5,2020.2.10,MacIntel,60,61025ae37ef11b136ea224fe,,,,,,,,,2580,16.11169434,59.79629517,1,0,0,response1disk,,7,-1.109130859,-7.542297363,1,0,0,rectangle,-1.109130859,-7.542297363,1,0,0,-1.109130859,-7.542297363,1,0,0,1,77,237,146,1,,,,,,,,
,,,,,,,,,,,,,FF,,,,,,,,0.9836,,,,,,,,,,,,,,,,,,,,,,60ff6869e503c8c1e2be7df2,61036e2a5e84e286d741c818,2021-07-29_21h14.12.751,Simcolourproject_2stim_asymm_v5,2020.2.10,MacIntel,60,61025ae37ef11b136ea224fe,,,,,,,,,1251,42.63665771,-66.5333252,1,0,0,response3disk,,4,5.657470703,-11.16461182,1,0,0,rectangle,5.657470703,-11.16461182,1,0,0,5.657470703,-11.16461182,1,0,0,1,78,238,58,1,,,,,,,,
,,,,,,,,,,,,,FF,,,,,,,,0.5338,,,,,,,,,,,,,,,,,,,,,,60ff6869e503c8c1e2be7df2,61036e2a5e84e286d741c818,2021-07-29_21h14.12.751,Simcolourproject_2stim_asymm_v5,2020.2.10,MacIntel,60,61025ae37ef11b136ea224fe,,,,,,,,,941,41.39599609,46.43927002,1,0,0,response1disk,,7,16.89190674,9.178894043,1,0,0,rectangle,16.89807129,84.14129639,1,0,0,-4.03527832,-3.368652344,1,0,0,1,79,239,60,1,,response1disk_3,TRUE,7,7,"[289,176,179,291,246,161,158,240,268,10,188,240,306,261,299,104,232,261,125,31]",1.9332,rectangle
,,,,,,,,,,,,,FF,,,,,,,,1.0012,,,,,,,,,,,,,,,,,,,,,,60ff6869e503c8c1e2be7df2,61036e2a5e84e286d741c818,2021-07-29_21h14.12.751,Simcolourproject_2stim_asymm_v5,2020.2.10,MacIntel,60,61025ae37ef11b136ea224fe,,,,,,,,,1013,25.86279297,48.13415527,1,0,0,response1disk,,7,-0.927001953,-7.625,1,0,0,rectangle,-0.927001953,-7.625,1,0,0,-0.927001953,-7.625,1,0,0,1,80,240,48,1,,,,,,,,
,,,,,,,,,,,,,FF,,,,,,,,1.0349,,,,,,,,,,,,,,,,,,,,,,60ff6869e503c8c1e2be7df2,61036e2a5e84e286d741c818,2021-07-29_21h14.12.751,Simcolourproject_2stim_asymm_v5,2020.2.10,MacIntel,60,61025ae37ef11b136ea224fe,,,,,,,,,3349,40.25976563,-30.76605225,1,0,0,response3disk,,5,-7.815063477,-14.13421631,1,0,0,rectangle,-7.815063477,-14.13421631,1,0,0,-7.815063477,-14.13421631,1,0,0,1,81,241,34,1,,,,,,,,
,,,,,,,,,,,,,FF,,,,,,,,1.4023,,,,,,,,,,,,,,,,,,,,,,60ff6869e503c8c1e2be7df2,61036e2a5e84e286d741c818,2021-07-29_21h14.12.751,Simcolourproject_2stim_asymm_v5,2020.2.10,MacIntel,60,61025ae37ef11b136ea224fe,,,,,,,,,4350,-80.03820801,32.82879639,1,0,0,response7disk,,1,-6.026611328,4.411682129,1,0,0,rectangle,-6.026611328,4.411682129,1,0,0,-6.026611328,4.411682129,1,0,0,1,82,242,53,1,,,,,,,,
