key_resp.keys,key_resp.rt,key_resp_14.keys,key_resp_14.rt,key_resp_15.keys,key_resp_15.rt,key_resp_17.keys,key_resp_17.rt,key_resp_9.keys,key_resp_9.rt,key_resp_10.keys,key_resp_10.rt,practice_comparison,Ecc,mouse_5.x,mouse_5.y,mouse_5.leftButton,mouse_5.midButton,mouse_5.rightButton,mouse_5.clicked_name,pracsimilarity,response_time,mouse_10.x,mouse_10.y,mouse_10.leftButton,mouse_10.midButton,mouse_10.rightButton,mouse_10.clicked_name,mouse_7.x,mouse_7.y,mouse_7.leftButton,mouse_7.midButton,mouse_7.rightButton,mouse_6.x,mouse_6.y,mouse_6.leftButton,mouse_6.midButton,mouse_6.rightButton,duringprac.thisRepN,duringprac.thisTrialN,duringprac.thisN,duringprac.thisIndex,duringprac.ran,participant,session,date,expName,psychopyVersion,OS,frameRate,study_id,mouse_7.clicked_name,catchpracsimilarity,catch_response_time,catchnumberprac,catchtrialorderprac,mouse_6.clicked_name,key_resp_22.keys,key_resp_22.rt,realcomparison,mouse.x,mouse.y,mouse.leftButton,mouse.midButton,mouse.rightButton,mouse.clicked_name,Colour2,similarity,mouse_2.x,mouse_2.y,mouse_2.leftButton,mouse_2.midButton,mouse_2.rightButton,mouse_2.clicked_name,mouse_3.x,mouse_3.y,mouse_3.leftButton,mouse_3.midButton,mouse_3.rightButton,mouse_3.clicked_name,catchornah,catchsimilarity,catchnumber,catchtrialorder,catchRT,mouse_11.x,mouse_11.y,mouse_11.leftButton,mouse_11.midButton,mouse_11.rightButton,mouse_11.clicked_name,trials_2.thisRepN,trials_2.thisTrialN,trials_2.thisN,trials_2.thisIndex,trials_2.ran,Colour1
space,1.4451,space,16.0456,space,15.7823,space,7.6334,space,7.1688,space,6.6333,35,PF,-91.76202393,-31.72531128,1,0,0,response5disk_5,2,16.6897,-0.660461426,-4.202453613,1,0,0,rectangle_8,-0.660461426,-4.202453613,1,0,0,-0.660461426,-4.202453613,1,0,0,0,0,0,1,1,60ff265ad0d04a091f893b0b,61036e8157a3bbbc40c70c13,2021-07-29_23h15.12.840,Simcolourproject_2stim_asymm_v5,2020.2.10,MacIntel,60,61025ae37ef11b136ea224fe,,,,,,,,,,,,,,,,,,,,,,,,,,,,,,,,,,,,,,,,,,,,,,
,,,,,,,,,,,,63,FF,-36.57580566,-110.2462769,1,0,0,response5disk_5,3,5.6,7.457092285,-1.45690918,1,0,0,rectangle_8,36.48242188,-108.7322998,1,0,0,-4.926818848,0.362121582,1,0,0,0,1,1,0,1,60ff265ad0d04a091f893b0b,61036e8157a3bbbc40c70c13,2021-07-29_23h15.12.840,Simcolourproject_2stim_asymm_v5,2020.2.10,MacIntel,60,61025ae37ef11b136ea224fe,response3disk_7,4,3.4837,4,"[2,5]",rectangle_4,,,,,,,,,,,,,,,,,,,,,,,,,,,,,,,,,,,,,,,,
,,,,,,,,,,,,108,PF,108.7120361,38.14916992,1,0,0,response1disk_5,6,4.8497,-3.613952637,6.026184082,1,0,0,rectangle_8,-3.613952637,6.026184082,1,0,0,-3.613952637,6.026184082,1,0,0,0,2,2,2,1,60ff265ad0d04a091f893b0b,61036e8157a3bbbc40c70c13,2021-07-29_23h15.12.840,Simcolourproject_2stim_asymm_v5,2020.2.10,MacIntel,60,61025ae37ef11b136ea224fe,,,,,,,,,,,,,,,,,,,,,,,,,,,,,,,,,,,,,,,,,,,,,,
,,,,,,,,,,,,136,FF,-43.38671875,-104.675293,1,0,0,response5disk_5,3,5.3833,0.704345703,-0.159942627,1,0,0,rectangle_8,0.704345703,-0.159942627,1,0,0,0.704345703,-0.159942627,1,0,0,0,3,3,5,1,60ff265ad0d04a091f893b0b,61036e8157a3bbbc40c70c13,2021-07-29_23h15.12.840,Simcolourproject_2stim_asymm_v5,2020.2.10,MacIntel,60,61025ae37ef11b136ea224fe,,,,,,,,,,,,,,,,,,,,,,,,,,,,,,,,,,,,,,,,,,,,,,
,,,,,,,,,,,,23,FF,41.12713623,113.4542847,1,0,0,response1disk_5,7,3.3162,1.690979004,-6.369873047,1,0,0,rectangle_8,45.34173584,-89.1920166,1,0,0,5.287963867,-2.1328125,1,0,0,0,4,4,3,1,60ff265ad0d04a091f893b0b,61036e8157a3bbbc40c70c13,2021-07-29_23h15.12.840,Simcolourproject_2stim_asymm_v5,2020.2.10,MacIntel,60,61025ae37ef11b136ea224fe,response3disk_7,4,2.0834,4,"[2,5]",rectangle_4,,,,,,,,,,,,,,,,,,,,,,,,,,,,,,,,,,,,,,,,
,,,,,,,,,,,,87,PF,40.65734863,90.53100586,1,0,0,response1disk_5,7,2.0511,13.68035889,0.728149414,1,0,0,rectangle_8,13.68035889,0.728149414,1,0,0,13.68035889,0.728149414,1,0,0,0,5,5,6,1,60ff265ad0d04a091f893b0b,61036e8157a3bbbc40c70c13,2021-07-29_23h15.12.840,Simcolourproject_2stim_asymm_v5,2020.2.10,MacIntel,60,61025ae37ef11b136ea224fe,,,,,,,,,,,,,,,,,,,,,,,,,,,,,,,,,,,,,,,,,,,,,,
,,,,,,,,,,,,87,PF,33.85040283,84.04907227,1,0,0,response1disk_5,7,1.5665,0.941345215,-6.218994141,1,0,0,rectangle_8,0.941345215,-6.218994141,1,0,0,0.941345215,-6.218994141,1,0,0,0,6,6,4,1,60ff265ad0d04a091f893b0b,61036e8157a3bbbc40c70c13,2021-07-29_23h15.12.840,Simcolourproject_2stim_asymm_v5,2020.2.10,MacIntel,60,61025ae37ef11b136ea224fe,,,,,,,,,,,,,,,,,,,,,,,,,,,,,,,,,,,,,,,,,,,,,,
,,,,,,,,,,,,,FF,,,,,,,,6.5669,,,,,,,,,,,,,,,,,,,,,,60ff265ad0d04a091f893b0b,61036e8157a3bbbc40c70c13,2021-07-29_23h15.12.840,Simcolourproject_2stim_asymm_v5,2020.2.10,MacIntel,60,61025ae37ef11b136ea224fe,,,,,,,space,3.5075,1513,105.9718628,41.45248413,1,0,0,response1disk,,6,4.586975098,-2.885681152,1,0,0,rectangle,-48.96875,-116.9053955,1,0,0,response5disk_3,TRUE,3,3,"[8,76,67,1,234,23,270,52,170,7,244,76,307,318,129,308,55,321,53,207]",3.9496,11.11590576,5.329772949,1,0,0,rectangle,0,0,0,76,1,
,,,,,,,,,,,,,FF,,,,,,,,5.2998,,,,,,,,,,,,,,,,,,,,,,60ff265ad0d04a091f893b0b,61036e8157a3bbbc40c70c13,2021-07-29_23h15.12.840,Simcolourproject_2stim_asymm_v5,2020.2.10,MacIntel,60,61025ae37ef11b136ea224fe,,,,,,,,,3265,102.3740845,29.96975708,1,0,0,response1disk,,6,-7.747741699,-4.691711426,1,0,0,rectangle,-7.747741699,-4.691711426,1,0,0,,,,,,,-7.747741699,-4.691711426,1,0,0,,0,1,1,110,1,
,,,,,,,,,,,,,FF,,,,,,,,2.3999,,,,,,,,,,,,,,,,,,,,,,60ff265ad0d04a091f893b0b,61036e8157a3bbbc40c70c13,2021-07-29_23h15.12.840,Simcolourproject_2stim_asymm_v5,2020.2.10,MacIntel,60,61025ae37ef11b136ea224fe,,,,,,,,,1190,115.6872559,-58.92510986,1,0,0,response3disk,,5,9.937133789,-0.501251221,1,0,0,rectangle,9.937133789,-0.501251221,1,0,0,,,,,,,9.937133789,-0.501251221,1,0,0,,0,2,2,63,1,
,,,,,,,,,,,,,FF,,,,,,,,1.9173,,,,,,,,,,,,,,,,,,,,,,60ff265ad0d04a091f893b0b,61036e8157a3bbbc40c70c13,2021-07-29_23h15.12.840,Simcolourproject_2stim_asymm_v5,2020.2.10,MacIntel,60,61025ae37ef11b136ea224fe,,,,,,,,,3972,-88.64489746,-47.61242676,1,0,0,response5disk,,2,-3.420837402,-7.954956055,1,0,0,rectangle,-3.420837402,-7.954956055,1,0,0,,,,,,,-3.420837402,-7.954956055,1,0,0,,0,3,3,133,1,
,,,,,,,,,,,,,FF,,,,,,,,1.8807,,,,,,,,,,,,,,,,,,,,,,60ff265ad0d04a091f893b0b,61036e8157a3bbbc40c70c13,2021-07-29_23h15.12.840,Simcolourproject_2stim_asymm_v5,2020.2.10,MacIntel,60,61025ae37ef11b136ea224fe,,,,,,,,,1695,44.96380615,-80.90533447,1,0,0,response3disk,,4,15.56164551,-1.499267578,1,0,0,rectangle,15.56164551,-1.499267578,1,0,0,,,,,,,15.56164551,-1.499267578,1,0,0,,0,4,4,10,1,
,,,,,,,,,,,,,FF,,,,,,,,2.7495,,,,,,,,,,,,,,,,,,,,,,60ff265ad0d04a091f893b0b,61036e8157a3bbbc40c70c13,2021-07-29_23h15.12.840,Simcolourproject_2stim_asymm_v5,2020.2.10,MacIntel,60,61025ae37ef11b136ea224fe,,,,,,,,,811,46.16314697,-103.2736206,1,0,0,response3disk,,4,10.66540527,-0.399780273,1,0,0,rectangle,10.66540527,-0.399780273,1,0,0,,,,,,,10.66540527,-0.399780273,1,0,0,,0,5,5,18,1,
,,,,,,,,,,,,,FF,,,,,,,,5.4664,,,,,,,,,,,,,,,,,,,,,,60ff265ad0d04a091f893b0b,61036e8157a3bbbc40c70c13,2021-07-29_23h15.12.840,Simcolourproject_2stim_asymm_v5,2020.2.10,MacIntel,60,61025ae37ef11b136ea224fe,,,,,,,,,2819,84.93438721,-30.97381592,1,0,0,response3disk,,5,15.16186523,-3.760681152,1,0,0,rectangle,78.74578857,-27.19055176,1,0,0,response3disk_3,TRUE,5,5,"[8,76,67,1,234,23,270,52,170,7,244,76,307,318,129,308,55,321,53,207]",2.0328,-7.922729492,-0.985107422,1,0,0,rectangle,0,6,6,69,1,
,,,,,,,,,,,,,FF,,,,,,,,2.4002,,,,,,,,,,,,,,,,,,,,,,60ff265ad0d04a091f893b0b,61036e8157a3bbbc40c70c13,2021-07-29_23h15.12.840,Simcolourproject_2stim_asymm_v5,2020.2.10,MacIntel,60,61025ae37ef11b136ea224fe,,,,,,,,,160,70.12432861,-92.25048828,1,0,0,response3disk,,4,-5.825195313,1.827819824,1,0,0,rectangle,-94.99542236,-41.59399414,1,0,0,response5disk_3,TRUE,2,2,"[8,76,67,1,234,23,270,52,170,7,244,76,307,318,129,308,55,321,53,207]",2.3008,3.653808594,-1.480773926,1,0,0,rectangle,0,7,7,143,1,
,,,,,,,,,,,,,FF,,,,,,,,2.1327,,,,,,,,,,,,,,,,,,,,,,60ff265ad0d04a091f893b0b,61036e8157a3bbbc40c70c13,2021-07-29_23h15.12.840,Simcolourproject_2stim_asymm_v5,2020.2.10,MacIntel,60,61025ae37ef11b136ea224fe,,,,,,,,,4067,77.3760376,42.8821106,1,0,0,response1disk,,6,-4.523681641,-1.112915039,1,0,0,rectangle,-4.523681641,-1.112915039,1,0,0,,,,,,,-4.523681641,-1.112915039,1,0,0,,0,8,8,35,1,
,,,,,,,,,,,,,FF,,,,,,,,2.1173,,,,,,,,,,,,,,,,,,,,,,60ff265ad0d04a091f893b0b,61036e8157a3bbbc40c70c13,2021-07-29_23h15.12.840,Simcolourproject_2stim_asymm_v5,2020.2.10,MacIntel,60,61025ae37ef11b136ea224fe,,,,,,,,,2221,103.3255615,35.78530884,1,0,0,response1disk,,6,5.606811523,-3.898742676,1,0,0,rectangle,5.606811523,-3.898742676,1,0,0,,,,,,,5.606811523,-3.898742676,1,0,0,,0,9,9,130,1,
,,,,,,,,,,,,,FF,,,,,,,,1.6499,,,,,,,,,,,,,,,,,,,,,,60ff265ad0d04a091f893b0b,61036e8157a3bbbc40c70c13,2021-07-29_23h15.12.840,Simcolourproject_2stim_asymm_v5,2020.2.10,MacIntel,60,61025ae37ef11b136ea224fe,,,,,,,,,4191,36.96881104,115.9375,1,0,0,response1disk,,7,4.904724121,-8.228088379,1,0,0,rectangle,4.904724121,-8.228088379,1,0,0,,,,,,,4.904724121,-8.228088379,1,0,0,,0,10,10,12,1,
,,,,,,,,,,,,,FF,,,,,,,,3.0323,,,,,,,,,,,,,,,,,,,,,,60ff265ad0d04a091f893b0b,61036e8157a3bbbc40c70c13,2021-07-29_23h15.12.840,Simcolourproject_2stim_asymm_v5,2020.2.10,MacIntel,60,61025ae37ef11b136ea224fe,,,,,,,,,14,83.03308105,-45.03561401,1,0,0,response3disk,,5,18.62817383,-2.035827637,1,0,0,rectangle,18.62817383,-2.035827637,1,0,0,,,,,,,18.62817383,-2.035827637,1,0,0,,0,11,11,112,1,
,,,,,,,,,,,,,FF,,,,,,,,1.2998,,,,,,,,,,,,,,,,,,,,,,60ff265ad0d04a091f893b0b,61036e8157a3bbbc40c70c13,2021-07-29_23h15.12.840,Simcolourproject_2stim_asymm_v5,2020.2.10,MacIntel,60,61025ae37ef11b136ea224fe,,,,,,,,,4175,50.26147461,73.64306641,1,0,0,response1disk,,7,7.129150391,-3.76083374,1,0,0,rectangle,7.129150391,-3.76083374,1,0,0,,,,,,,7.129150391,-3.76083374,1,0,0,,0,12,12,0,1,
,,,,,,,,,,,,,FF,,,,,,,,2.7994,,,,,,,,,,,,,,,,,,,,,,60ff265ad0d04a091f893b0b,61036e8157a3bbbc40c70c13,2021-07-29_23h15.12.840,Simcolourproject_2stim_asymm_v5,2020.2.10,MacIntel,60,61025ae37ef11b136ea224fe,,,,,,,,,4186,112.6734619,-57.06018066,1,0,0,response3disk,,5,-3.398132324,-7.643096924,1,0,0,rectangle,-3.398132324,-7.643096924,1,0,0,,,,,,,-3.398132324,-7.643096924,1,0,0,,0,13,13,70,1,
,,,,,,,,,,,,,FF,,,,,,,,1.5003,,,,,,,,,,,,,,,,,,,,,,60ff265ad0d04a091f893b0b,61036e8157a3bbbc40c70c13,2021-07-29_23h15.12.840,Simcolourproject_2stim_asymm_v5,2020.2.10,MacIntel,60,61025ae37ef11b136ea224fe,,,,,,,,,127,31.81506348,77.59777832,1,0,0,response1disk,,7,22.60406494,-2.019714355,1,0,0,rectangle,22.60406494,-2.019714355,1,0,0,,,,,,,22.60406494,-2.019714355,1,0,0,,0,14,14,138,1,
,,,,,,,,,,,,,FF,,,,,,,,2.3181,,,,,,,,,,,,,,,,,,,,,,60ff265ad0d04a091f893b0b,61036e8157a3bbbc40c70c13,2021-07-29_23h15.12.840,Simcolourproject_2stim_asymm_v5,2020.2.10,MacIntel,60,61025ae37ef11b136ea224fe,,,,,,,,,122,39.31671143,79.45635986,1,0,0,response1disk,,7,10.13964844,-1.058166504,1,0,0,rectangle,10.13964844,-1.058166504,1,0,0,,,,,,,10.13964844,-1.058166504,1,0,0,,0,15,15,60,1,
,,,,,,,,,,,,,FF,,,,,,,,1.8007,,,,,,,,,,,,,,,,,,,,,,60ff265ad0d04a091f893b0b,61036e8157a3bbbc40c70c13,2021-07-29_23h15.12.840,Simcolourproject_2stim_asymm_v5,2020.2.10,MacIntel,60,61025ae37ef11b136ea224fe,,,,,,,,,4137,34.96826172,83.73352051,1,0,0,response1disk,,7,6.65032959,-0.577636719,1,0,0,rectangle,6.65032959,-0.577636719,1,0,0,,,,,,,6.65032959,-0.577636719,1,0,0,,0,16,16,155,1,
,,,,,,,,,,,,,FF,,,,,,,,2.6833,,,,,,,,,,,,,,,,,,,,,,60ff265ad0d04a091f893b0b,61036e8157a3bbbc40c70c13,2021-07-29_23h15.12.840,Simcolourproject_2stim_asymm_v5,2020.2.10,MacIntel,60,61025ae37ef11b136ea224fe,,,,,,,,,2782,-50.25091553,-111.0618896,1,0,0,response5disk,,3,0.108886719,2.173217773,1,0,0,rectangle,0.108886719,2.173217773,1,0,0,,,,,,,0.108886719,2.173217773,1,0,0,,0,17,17,111,1,
,,,,,,,,,,,,,FF,,,,,,,,4.0335,,,,,,,,,,,,,,,,,,,,,,60ff265ad0d04a091f893b0b,61036e8157a3bbbc40c70c13,2021-07-29_23h15.12.840,Simcolourproject_2stim_asymm_v5,2020.2.10,MacIntel,60,61025ae37ef11b136ea224fe,,,,,,,,,730,26.17333984,-96.75793457,1,0,0,response3disk,,4,-0.679626465,2.429840088,1,0,0,rectangle,-0.679626465,2.429840088,1,0,0,,,,,,,-0.679626465,2.429840088,1,0,0,,0,18,18,49,1,
,,,,,,,,,,,,,FF,,,,,,,,1.969,,,,,,,,,,,,,,,,,,,,,,60ff265ad0d04a091f893b0b,61036e8157a3bbbc40c70c13,2021-07-29_23h15.12.840,Simcolourproject_2stim_asymm_v5,2020.2.10,MacIntel,60,61025ae37ef11b136ea224fe,,,,,,,,,2211,50.54040527,71.04315186,1,0,0,response1disk,,7,-1.322875977,-1.191345215,1,0,0,rectangle,-1.322875977,-1.191345215,1,0,0,,,,,,,-1.322875977,-1.191345215,1,0,0,,0,19,19,142,1,
,,,,,,,,,,,,,FF,,,,,,,,1.866,,,,,,,,,,,,,,,,,,,,,,60ff265ad0d04a091f893b0b,61036e8157a3bbbc40c70c13,2021-07-29_23h15.12.840,Simcolourproject_2stim_asymm_v5,2020.2.10,MacIntel,60,61025ae37ef11b136ea224fe,,,,,,,,,194,-35.44836426,-104.2710571,1,0,0,response5disk,,3,0.967529297,-0.872009277,1,0,0,rectangle,0.967529297,-0.872009277,1,0,0,,,,,,,0.967529297,-0.872009277,1,0,0,,0,20,20,13,1,
,,,,,,,,,,,,,FF,,,,,,,,1.3164,,,,,,,,,,,,,,,,,,,,,,60ff265ad0d04a091f893b0b,61036e8157a3bbbc40c70c13,2021-07-29_23h15.12.840,Simcolourproject_2stim_asymm_v5,2020.2.10,MacIntel,60,61025ae37ef11b136ea224fe,,,,,,,,,674,47.03637695,88.6161499,1,0,0,response1disk,,7,16.15307617,4.527618408,1,0,0,rectangle,16.15307617,4.527618408,1,0,0,,,,,,,16.15307617,4.527618408,1,0,0,,0,21,21,132,1,
,,,,,,,,,,,,,FF,,,,,,,,3.4654,,,,,,,,,,,,,,,,,,,,,,60ff265ad0d04a091f893b0b,61036e8157a3bbbc40c70c13,2021-07-29_23h15.12.840,Simcolourproject_2stim_asymm_v5,2020.2.10,MacIntel,60,61025ae37ef11b136ea224fe,,,,,,,,,4220,-49.45812988,-89.11248779,1,0,0,response5disk,,3,-1.167480469,4.457061768,1,0,0,rectangle,-38.57940674,101.8443604,1,0,0,response7disk_3,TRUE,0,0,"[8,76,67,1,234,23,270,52,170,7,244,76,307,318,129,308,55,321,53,207]",2.4998,-1.114013672,-9.23223877,1,0,0,rectangle,0,22,22,62,1,
,,,,,,,,,,,,,FF,,,,,,,,1.2349,,,,,,,,,,,,,,,,,,,,,,60ff265ad0d04a091f893b0b,61036e8157a3bbbc40c70c13,2021-07-29_23h15.12.840,Simcolourproject_2stim_asymm_v5,2020.2.10,MacIntel,60,61025ae37ef11b136ea224fe,,,,,,,,,3017,41.9342041,74.35058594,1,0,0,response1disk,,7,4.320678711,-7.62322998,1,0,0,rectangle,4.320678711,-7.62322998,1,0,0,,,,,,,4.320678711,-7.62322998,1,0,0,,0,23,23,22,1,
,,,,,,,,,,,,,FF,,,,,,,,1.0997,,,,,,,,,,,,,,,,,,,,,,60ff265ad0d04a091f893b0b,61036e8157a3bbbc40c70c13,2021-07-29_23h15.12.840,Simcolourproject_2stim_asymm_v5,2020.2.10,MacIntel,60,61025ae37ef11b136ea224fe,,,,,,,,,363,43.69232178,74.83087158,1,0,0,response1disk,,7,17.44006348,6.08996582,1,0,0,rectangle,17.44006348,6.08996582,1,0,0,,,,,,,17.44006348,6.08996582,1,0,0,,0,24,24,65,1,
,,,,,,,,,,,,,FF,,,,,,,,1.5671,,,,,,,,,,,,,,,,,,,,,,60ff265ad0d04a091f893b0b,61036e8157a3bbbc40c70c13,2021-07-29_23h15.12.840,Simcolourproject_2stim_asymm_v5,2020.2.10,MacIntel,60,61025ae37ef11b136ea224fe,,,,,,,,,118,39.65539551,102.7082214,1,0,0,response1disk,,7,0.608947754,0.258728027,1,0,0,rectangle,0.608947754,0.258728027,1,0,0,,,,,,,0.608947754,0.258728027,1,0,0,,0,25,25,96,1,
,,,,,,,,,,,,,FF,,,,,,,,2.0332,,,,,,,,,,,,,,,,,,,,,,60ff265ad0d04a091f893b0b,61036e8157a3bbbc40c70c13,2021-07-29_23h15.12.840,Simcolourproject_2stim_asymm_v5,2020.2.10,MacIntel,60,61025ae37ef11b136ea224fe,,,,,,,,,2179,103.7770386,-50.53900146,1,0,0,response3disk,,5,-6.291320801,-5.624359131,1,0,0,rectangle,-6.291320801,-5.624359131,1,0,0,,,,,,,-6.291320801,-5.624359131,1,0,0,,0,26,26,134,1,
,,,,,,,,,,,,,FF,,,,,,,,1.9324,,,,,,,,,,,,,,,,,,,,,,60ff265ad0d04a091f893b0b,61036e8157a3bbbc40c70c13,2021-07-29_23h15.12.840,Simcolourproject_2stim_asymm_v5,2020.2.10,MacIntel,60,61025ae37ef11b136ea224fe,,,,,,,,,3012,36.71429443,-85.92016602,1,0,0,response3disk,,4,9.510681152,1.893981934,1,0,0,rectangle,9.510681152,1.893981934,1,0,0,,,,,,,9.510681152,1.893981934,1,0,0,,0,27,27,80,1,
,,,,,,,,,,,,,FF,,,,,,,,1.4485,,,,,,,,,,,,,,,,,,,,,,60ff265ad0d04a091f893b0b,61036e8157a3bbbc40c70c13,2021-07-29_23h15.12.840,Simcolourproject_2stim_asymm_v5,2020.2.10,MacIntel,60,61025ae37ef11b136ea224fe,,,,,,,,,2246,56.96362305,-88.69018555,1,0,0,response3disk,,4,18.44281006,-2.138366699,1,0,0,rectangle,18.44281006,-2.138366699,1,0,0,,,,,,,18.44281006,-2.138366699,1,0,0,,0,28,28,58,1,
,,,,,,,,,,,,,FF,,,,,,,,2.9339,,,,,,,,,,,,,,,,,,,,,,60ff265ad0d04a091f893b0b,61036e8157a3bbbc40c70c13,2021-07-29_23h15.12.840,Simcolourproject_2stim_asymm_v5,2020.2.10,MacIntel,60,61025ae37ef11b136ea224fe,,,,,,,,,3464,100.9928589,-38.44091797,1,0,0,response3disk,,5,19.00268555,-3.499603271,1,0,0,rectangle,19.00268555,-3.499603271,1,0,0,,,,,,,19.00268555,-3.499603271,1,0,0,,0,29,29,71,1,
,,,,,,,,,,,,,FF,,,,,,,,2.7323,,,,,,,,,,,,,,,,,,,,,,60ff265ad0d04a091f893b0b,61036e8157a3bbbc40c70c13,2021-07-29_23h15.12.840,Simcolourproject_2stim_asymm_v5,2020.2.10,MacIntel,60,61025ae37ef11b136ea224fe,,,,,,,,,614,-34.17834473,-100.3059082,1,0,0,response5disk,,3,2.911743164,4.000549316,1,0,0,rectangle,2.911743164,4.000549316,1,0,0,,,,,,,2.911743164,4.000549316,1,0,0,,0,30,30,46,1,
,,,,,,,,,,,,,FF,,,,,,,,1.2173,,,,,,,,,,,,,,,,,,,,,,60ff265ad0d04a091f893b0b,61036e8157a3bbbc40c70c13,2021-07-29_23h15.12.840,Simcolourproject_2stim_asymm_v5,2020.2.10,MacIntel,60,61025ae37ef11b136ea224fe,,,,,,,,,2258,26.93896484,66.36123657,1,0,0,response1disk,,7,11.67242432,8.318786621,1,0,0,rectangle,11.67242432,8.318786621,1,0,0,,,,,,,11.67242432,8.318786621,1,0,0,,0,31,31,151,1,
,,,,,,,,,,,,,FF,,,,,,,,2.1177,,,,,,,,,,,,,,,,,,,,,,60ff265ad0d04a091f893b0b,61036e8157a3bbbc40c70c13,2021-07-29_23h15.12.840,Simcolourproject_2stim_asymm_v5,2020.2.10,MacIntel,60,61025ae37ef11b136ea224fe,,,,,,,,,3050,-79.152771,-52.42556763,1,0,0,response5disk,,2,-13.17095947,1.6796875,1,0,0,rectangle,-13.17095947,1.6796875,1,0,0,,,,,,,-13.17095947,1.6796875,1,0,0,,0,32,32,29,1,
,,,,,,,,,,,,,FF,,,,,,,,1.7673,,,,,,,,,,,,,,,,,,,,,,60ff265ad0d04a091f893b0b,61036e8157a3bbbc40c70c13,2021-07-29_23h15.12.840,Simcolourproject_2stim_asymm_v5,2020.2.10,MacIntel,60,61025ae37ef11b136ea224fe,,,,,,,,,1287,85.43475342,41.70928955,1,0,0,response1disk,,6,7.975280762,3.776275635,1,0,0,rectangle,7.975280762,3.776275635,1,0,0,,,,,,,7.975280762,3.776275635,1,0,0,,0,33,33,25,1,
,,,,,,,,,,,,,FF,,,,,,,,1.1998,,,,,,,,,,,,,,,,,,,,,,60ff265ad0d04a091f893b0b,61036e8157a3bbbc40c70c13,2021-07-29_23h15.12.840,Simcolourproject_2stim_asymm_v5,2020.2.10,MacIntel,60,61025ae37ef11b136ea224fe,,,,,,,,,1798,61.11132813,103.6975708,1,0,0,response1disk,,7,5.434448242,-1.578979492,1,0,0,rectangle,5.434448242,-1.578979492,1,0,0,,,,,,,5.434448242,-1.578979492,1,0,0,,0,34,34,106,1,
,,,,,,,,,,,,,FF,,,,,,,,2.5499,,,,,,,,,,,,,,,,,,,,,,60ff265ad0d04a091f893b0b,61036e8157a3bbbc40c70c13,2021-07-29_23h15.12.840,Simcolourproject_2stim_asymm_v5,2020.2.10,MacIntel,60,61025ae37ef11b136ea224fe,,,,,,,,,3663,51.5692749,-81.78112793,1,0,0,response3disk,,4,7.958862305,-0.574523926,1,0,0,rectangle,7.958862305,-0.574523926,1,0,0,,,,,,,7.958862305,-0.574523926,1,0,0,,0,35,35,116,1,
,,,,,,,,,,,,,FF,,,,,,,,2.1829,,,,,,,,,,,,,,,,,,,,,,60ff265ad0d04a091f893b0b,61036e8157a3bbbc40c70c13,2021-07-29_23h15.12.840,Simcolourproject_2stim_asymm_v5,2020.2.10,MacIntel,60,61025ae37ef11b136ea224fe,,,,,,,,,1233,50.42279053,71.96905518,1,0,0,response1disk,,7,4.382873535,9.351715088,1,0,0,rectangle,4.382873535,9.351715088,1,0,0,,,,,,,4.382873535,9.351715088,1,0,0,,0,36,36,36,1,
,,,,,,,,,,,,,FF,,,,,,,,1.2829,,,,,,,,,,,,,,,,,,,,,,60ff265ad0d04a091f893b0b,61036e8157a3bbbc40c70c13,2021-07-29_23h15.12.840,Simcolourproject_2stim_asymm_v5,2020.2.10,MacIntel,60,61025ae37ef11b136ea224fe,,,,,,,,,2328,52.17669678,88.19909668,1,0,0,response1disk,,7,17.72039795,3.116455078,1,0,0,rectangle,17.72039795,3.116455078,1,0,0,,,,,,,17.72039795,3.116455078,1,0,0,,0,37,37,67,1,
,,,,,,,,,,,,,FF,,,,,,,,2.999,,,,,,,,,,,,,,,,,,,,,,60ff265ad0d04a091f893b0b,61036e8157a3bbbc40c70c13,2021-07-29_23h15.12.840,Simcolourproject_2stim_asymm_v5,2020.2.10,MacIntel,60,61025ae37ef11b136ea224fe,,,,,,,,,3141,36.24200439,-101.4278564,1,0,0,response3disk,,4,24.63659668,8.158752441,1,0,0,rectangle,24.63659668,8.158752441,1,0,0,,,,,,,24.63659668,8.158752441,1,0,0,,0,38,38,117,1,
,,,,,,,,,,,,,FF,,,,,,,,1.4661,,,,,,,,,,,,,,,,,,,,,,60ff265ad0d04a091f893b0b,61036e8157a3bbbc40c70c13,2021-07-29_23h15.12.840,Simcolourproject_2stim_asymm_v5,2020.2.10,MacIntel,60,61025ae37ef11b136ea224fe,,,,,,,,,3553,-94.44921875,-53.96627808,1,0,0,response5disk,,2,17.93811035,6.191894531,1,0,0,rectangle,17.93811035,6.191894531,1,0,0,,,,,,,17.93811035,6.191894531,1,0,0,,0,39,39,38,1,
,,,,,,,,,,,,,FF,,,,,,,,2.1846,,,,,,,,,,,,,,,,,,,,,,60ff265ad0d04a091f893b0b,61036e8157a3bbbc40c70c13,2021-07-29_23h15.12.840,Simcolourproject_2stim_asymm_v5,2020.2.10,MacIntel,60,61025ae37ef11b136ea224fe,,,,,,,,,2127,87.25946045,44.10705566,1,0,0,response1disk,,6,13.89599609,-2.37878418,1,0,0,rectangle,13.89599609,-2.37878418,1,0,0,,,,,,,13.89599609,-2.37878418,1,0,0,,0,40,40,6,1,
,,,,,,,,,,,,,FF,,,,,,,,3.0996,,,,,,,,,,,,,,,,,,,,,,60ff265ad0d04a091f893b0b,61036e8157a3bbbc40c70c13,2021-07-29_23h15.12.840,Simcolourproject_2stim_asymm_v5,2020.2.10,MacIntel,60,61025ae37ef11b136ea224fe,,,,,,,,,254,41.63739014,-112.6616211,1,0,0,response3disk,,4,2.620239258,-16.72988892,1,0,0,rectangle,2.620239258,-16.72988892,1,0,0,,,,,,,2.620239258,-16.72988892,1,0,0,,0,41,41,81,1,
,,,,,,,,,,,,,FF,,,,,,,,1.2328,,,,,,,,,,,,,,,,,,,,,,60ff265ad0d04a091f893b0b,61036e8157a3bbbc40c70c13,2021-07-29_23h15.12.840,Simcolourproject_2stim_asymm_v5,2020.2.10,MacIntel,60,61025ae37ef11b136ea224fe,,,,,,,,,2159,48.52685547,102.9352112,1,0,0,response1disk,,7,5.632629395,6.601470947,1,0,0,rectangle,5.632629395,6.601470947,1,0,0,,,,,,,5.632629395,6.601470947,1,0,0,,0,42,42,34,1,
,,,,,,,,,,,,,FF,,,,,,,,2.1329,,,,,,,,,,,,,,,,,,,,,,60ff265ad0d04a091f893b0b,61036e8157a3bbbc40c70c13,2021-07-29_23h15.12.840,Simcolourproject_2stim_asymm_v5,2020.2.10,MacIntel,60,61025ae37ef11b136ea224fe,,,,,,,,,1493,55.9319458,104.5938416,1,0,0,response1disk,,7,5.060974121,-6.359069824,1,0,0,rectangle,5.060974121,-6.359069824,1,0,0,,,,,,,5.060974121,-6.359069824,1,0,0,,0,43,43,17,1,
,,,,,,,,,,,,,FF,,,,,,,,2.3506,,,,,,,,,,,,,,,,,,,,,,60ff265ad0d04a091f893b0b,61036e8157a3bbbc40c70c13,2021-07-29_23h15.12.840,Simcolourproject_2stim_asymm_v5,2020.2.10,MacIntel,60,61025ae37ef11b136ea224fe,,,,,,,,,2510,103.6099243,54.60427856,1,0,0,response1disk,,6,5.359619141,-8.799438477,1,0,0,rectangle,5.359619141,-8.799438477,1,0,0,,,,,,,5.359619141,-8.799438477,1,0,0,,0,44,44,122,1,
,,,,,,,,,,,,,FF,,,,,,,,1.0508,,,,,,,,,,,,,,,,,,,,,,60ff265ad0d04a091f893b0b,61036e8157a3bbbc40c70c13,2021-07-29_23h15.12.840,Simcolourproject_2stim_asymm_v5,2020.2.10,MacIntel,60,61025ae37ef11b136ea224fe,,,,,,,,,2569,85.83642578,36.20001221,1,0,0,response1disk,,6,19.78527832,-2.389648438,1,0,0,rectangle,19.78527832,-2.389648438,1,0,0,,,,,,,19.78527832,-2.389648438,1,0,0,,0,45,45,148,1,
,,,,,,,,,,,,,FF,,,,,,,,1.5662,,,,,,,,,,,,,,,,,,,,,,60ff265ad0d04a091f893b0b,61036e8157a3bbbc40c70c13,2021-07-29_23h15.12.840,Simcolourproject_2stim_asymm_v5,2020.2.10,MacIntel,60,61025ae37ef11b136ea224fe,,,,,,,,,605,80.46691895,-55.04925537,1,0,0,response3disk,,5,9.974365234,4.862518311,1,0,0,rectangle,9.974365234,4.862518311,1,0,0,,,,,,,9.974365234,4.862518311,1,0,0,,0,46,46,87,1,
,,,,,,,,,,,,,FF,,,,,,,,1.0158,,,,,,,,,,,,,,,,,,,,,,60ff265ad0d04a091f893b0b,61036e8157a3bbbc40c70c13,2021-07-29_23h15.12.840,Simcolourproject_2stim_asymm_v5,2020.2.10,MacIntel,60,61025ae37ef11b136ea224fe,,,,,,,,,1410,50.65887451,112.098053,1,0,0,response1disk,,7,-1.506164551,-2.527435303,1,0,0,rectangle,-1.506164551,-2.527435303,1,0,0,,,,,,,-1.506164551,-2.527435303,1,0,0,,0,47,47,126,1,
,,,,,,,,,,,,,FF,,,,,,,,2.6497,,,,,,,,,,,,,,,,,,,,,,60ff265ad0d04a091f893b0b,61036e8157a3bbbc40c70c13,2021-07-29_23h15.12.840,Simcolourproject_2stim_asymm_v5,2020.2.10,MacIntel,60,61025ae37ef11b136ea224fe,,,,,,,,,426,110.9240112,46.14450073,1,0,0,response1disk,,6,-3.909667969,-7.428466797,1,0,0,rectangle,-3.909667969,-7.428466797,1,0,0,,,,,,,-3.909667969,-7.428466797,1,0,0,,0,48,48,59,1,
,,,,,,,,,,,,,FF,,,,,,,,2.4333,,,,,,,,,,,,,,,,,,,,,,60ff265ad0d04a091f893b0b,61036e8157a3bbbc40c70c13,2021-07-29_23h15.12.840,Simcolourproject_2stim_asymm_v5,2020.2.10,MacIntel,60,61025ae37ef11b136ea224fe,,,,,,,,,3064,89.55944824,-33.9486084,1,0,0,response3disk,,5,-12.36419678,-2.807861328,1,0,0,rectangle,-12.36419678,-2.807861328,1,0,0,,,,,,,-12.36419678,-2.807861328,1,0,0,,0,49,49,127,1,
,,,,,,,,,,,,,FF,,,,,,,,1.6175,,,,,,,,,,,,,,,,,,,,,,60ff265ad0d04a091f893b0b,61036e8157a3bbbc40c70c13,2021-07-29_23h15.12.840,Simcolourproject_2stim_asymm_v5,2020.2.10,MacIntel,60,61025ae37ef11b136ea224fe,,,,,,,,,1480,106.644043,33.02587891,1,0,0,response1disk,,6,0.998352051,-0.917480469,1,0,0,rectangle,0.998352051,-0.917480469,1,0,0,,,,,,,0.998352051,-0.917480469,1,0,0,,0,50,50,153,1,
,,,,,,,,,,,,,FF,,,,,,,,1.1,,,,,,,,,,,,,,,,,,,,,,60ff265ad0d04a091f893b0b,61036e8157a3bbbc40c70c13,2021-07-29_23h15.12.840,Simcolourproject_2stim_asymm_v5,2020.2.10,MacIntel,60,61025ae37ef11b136ea224fe,,,,,,,,,2983,32.52539063,55.38098145,1,0,0,response1disk,,7,5.585510254,-5.194091797,1,0,0,rectangle,90.60296631,-32.25482178,1,0,0,response3disk_3,TRUE,5,5,"[8,76,67,1,234,23,270,52,170,7,244,76,307,318,129,308,55,321,53,207]",2.5818,-3.334289551,3.629882813,1,0,0,rectangle,0,51,51,86,1,
,,,,,,,,,,,,,FF,,,,,,,,1.0175,,,,,,,,,,,,,,,,,,,,,,60ff265ad0d04a091f893b0b,61036e8157a3bbbc40c70c13,2021-07-29_23h15.12.840,Simcolourproject_2stim_asymm_v5,2020.2.10,MacIntel,60,61025ae37ef11b136ea224fe,,,,,,,,,3487,76.08294678,117.3657532,1,0,0,response1disk,,7,-0.488525391,3.564575195,1,0,0,rectangle,57.60797119,111.5073853,1,0,0,response1disk_3,TRUE,7,7,"[8,76,67,1,234,23,270,52,170,7,244,76,307,318,129,308,55,321,53,207]",2.251,0.755554199,-14.43682861,1,0,0,rectangle,0,52,52,74,1,
,,,,,,,,,,,,,FF,,,,,,,,1.2167,,,,,,,,,,,,,,,,,,,,,,60ff265ad0d04a091f893b0b,61036e8157a3bbbc40c70c13,2021-07-29_23h15.12.840,Simcolourproject_2stim_asymm_v5,2020.2.10,MacIntel,60,61025ae37ef11b136ea224fe,,,,,,,,,1945,41.42541504,63.55517578,1,0,0,response1disk,,7,11.47442627,0.845489502,1,0,0,rectangle,11.47442627,0.845489502,1,0,0,,,,,,,11.47442627,0.845489502,1,0,0,,0,53,53,93,1,
,,,,,,,,,,,,,FF,,,,,,,,0.918,,,,,,,,,,,,,,,,,,,,,,60ff265ad0d04a091f893b0b,61036e8157a3bbbc40c70c13,2021-07-29_23h15.12.840,Simcolourproject_2stim_asymm_v5,2020.2.10,MacIntel,60,61025ae37ef11b136ea224fe,,,,,,,,,3035,36.00152588,80.43942261,1,0,0,response1disk,,7,10.03613281,-9.384155273,1,0,0,rectangle,-89.3336792,-48.97113037,1,0,0,response5disk_3,TRUE,2,2,"[8,76,67,1,234,23,270,52,170,7,244,76,307,318,129,308,55,321,53,207]",2.1683,-6.565673828,-3.369506836,1,0,0,rectangle,0,54,54,52,1,
,,,,,,,,,,,,,FF,,,,,,,,1.0342,,,,,,,,,,,,,,,,,,,,,,60ff265ad0d04a091f893b0b,61036e8157a3bbbc40c70c13,2021-07-29_23h15.12.840,Simcolourproject_2stim_asymm_v5,2020.2.10,MacIntel,60,61025ae37ef11b136ea224fe,,,,,,,,,1494,48.10839844,73.88800049,1,0,0,response1disk,,7,7.323730469,4.770355225,1,0,0,rectangle,7.323730469,4.770355225,1,0,0,,,,,,,7.323730469,4.770355225,1,0,0,,0,55,55,24,1,
,,,,,,,,,,,,,FF,,,,,,,,2.2992,,,,,,,,,,,,,,,,,,,,,,60ff265ad0d04a091f893b0b,61036e8157a3bbbc40c70c13,2021-07-29_23h15.12.840,Simcolourproject_2stim_asymm_v5,2020.2.10,MacIntel,60,61025ae37ef11b136ea224fe,,,,,,,,,3683,-54.49304199,-101.3314209,1,0,0,response5disk,,3,-4.499267578,-3.479644775,1,0,0,rectangle,-4.499267578,-3.479644775,1,0,0,,,,,,,-4.499267578,-3.479644775,1,0,0,,0,56,56,141,1,
,,,,,,,,,,,,,FF,,,,,,,,1.7503,,,,,,,,,,,,,,,,,,,,,,60ff265ad0d04a091f893b0b,61036e8157a3bbbc40c70c13,2021-07-29_23h15.12.840,Simcolourproject_2stim_asymm_v5,2020.2.10,MacIntel,60,61025ae37ef11b136ea224fe,,,,,,,,,1650,48.77087402,97.3550415,1,0,0,response1disk,,7,17.51367188,1.25793457,1,0,0,rectangle,17.51367188,1.25793457,1,0,0,,,,,,,17.51367188,1.25793457,1,0,0,,0,57,57,2,1,
,,,,,,,,,,,,,FF,,,,,,,,1.9832,,,,,,,,,,,,,,,,,,,,,,60ff265ad0d04a091f893b0b,61036e8157a3bbbc40c70c13,2021-07-29_23h15.12.840,Simcolourproject_2stim_asymm_v5,2020.2.10,MacIntel,60,61025ae37ef11b136ea224fe,,,,,,,,,1648,34.59057617,82.20587158,1,0,0,response1disk,,7,7.020080566,1.303985596,1,0,0,rectangle,7.020080566,1.303985596,1,0,0,,,,,,,7.020080566,1.303985596,1,0,0,,0,58,58,56,1,
,,,,,,,,,,,,,FF,,,,,,,,0.9497,,,,,,,,,,,,,,,,,,,,,,60ff265ad0d04a091f893b0b,61036e8157a3bbbc40c70c13,2021-07-29_23h15.12.840,Simcolourproject_2stim_asymm_v5,2020.2.10,MacIntel,60,61025ae37ef11b136ea224fe,,,,,,,,,1861,40.01153564,67.23202515,1,0,0,response1disk,,7,16.94226074,1.821838379,1,0,0,rectangle,16.94226074,1.821838379,1,0,0,,,,,,,16.94226074,1.821838379,1,0,0,,0,59,59,16,1,
,,,,,,,,,,,,,FF,,,,,,,,2.0665,,,,,,,,,,,,,,,,,,,,,,60ff265ad0d04a091f893b0b,61036e8157a3bbbc40c70c13,2021-07-29_23h15.12.840,Simcolourproject_2stim_asymm_v5,2020.2.10,MacIntel,60,61025ae37ef11b136ea224fe,,,,,,,,,3187,-54.2791748,-110.8741455,1,0,0,response5disk,,3,-4.230895996,1.207550049,1,0,0,rectangle,-4.230895996,1.207550049,1,0,0,,,,,,,-4.230895996,1.207550049,1,0,0,,0,60,60,37,1,
,,,,,,,,,,,,,FF,,,,,,,,3.3163,,,,,,,,,,,,,,,,,,,,,,60ff265ad0d04a091f893b0b,61036e8157a3bbbc40c70c13,2021-07-29_23h15.12.840,Simcolourproject_2stim_asymm_v5,2020.2.10,MacIntel,60,61025ae37ef11b136ea224fe,,,,,,,,,906,-28.59875488,-109.3295288,1,0,0,response5disk,,3,-12.4206543,5.351196289,1,0,0,rectangle,-12.4206543,5.351196289,1,0,0,,,,,,,-12.4206543,5.351196289,1,0,0,,0,61,61,99,1,
,,,,,,,,,,,,,FF,,,,,,,,1.15,,,,,,,,,,,,,,,,,,,,,,60ff265ad0d04a091f893b0b,61036e8157a3bbbc40c70c13,2021-07-29_23h15.12.840,Simcolourproject_2stim_asymm_v5,2020.2.10,MacIntel,60,61025ae37ef11b136ea224fe,,,,,,,,,3061,-31.09069824,-84.57421875,1,0,0,response5disk,,3,10.02008057,10.22607422,1,0,0,rectangle,10.02008057,10.22607422,1,0,0,,,,,,,10.02008057,10.22607422,1,0,0,,0,62,62,8,1,
,,,,,,,,,,,,,FF,,,,,,,,1.6326,,,,,,,,,,,,,,,,,,,,,,60ff265ad0d04a091f893b0b,61036e8157a3bbbc40c70c13,2021-07-29_23h15.12.840,Simcolourproject_2stim_asymm_v5,2020.2.10,MacIntel,60,61025ae37ef11b136ea224fe,,,,,,,,,261,-87.05377197,-32.80001831,1,0,0,response5disk,,2,-17.89910889,-6.144287109,1,0,0,rectangle,-17.89910889,-6.144287109,1,0,0,,,,,,,-17.89910889,-6.144287109,1,0,0,,0,63,63,145,1,
,,,,,,,,,,,,,FF,,,,,,,,1.2996,,,,,,,,,,,,,,,,,,,,,,60ff265ad0d04a091f893b0b,61036e8157a3bbbc40c70c13,2021-07-29_23h15.12.840,Simcolourproject_2stim_asymm_v5,2020.2.10,MacIntel,60,61025ae37ef11b136ea224fe,,,,,,,,,91,46.04089355,84.69903564,1,0,0,response1disk,,7,16.63983154,2.683288574,1,0,0,rectangle,16.63983154,2.683288574,1,0,0,,,,,,,16.63983154,2.683288574,1,0,0,,0,64,64,51,1,
,,,,,,,,,,,,,FF,,,,,,,,2.3672,,,,,,,,,,,,,,,,,,,,,,60ff265ad0d04a091f893b0b,61036e8157a3bbbc40c70c13,2021-07-29_23h15.12.840,Simcolourproject_2stim_asymm_v5,2020.2.10,MacIntel,60,61025ae37ef11b136ea224fe,,,,,,,,,3593,91.81750488,-61.99346924,1,0,0,response3disk,,5,4.97088623,-7.577758789,1,0,0,rectangle,4.97088623,-7.577758789,1,0,0,,,,,,,4.97088623,-7.577758789,1,0,0,,0,65,65,120,1,
,,,,,,,,,,,,,FF,,,,,,,,1.4165,,,,,,,,,,,,,,,,,,,,,,60ff265ad0d04a091f893b0b,61036e8157a3bbbc40c70c13,2021-07-29_23h15.12.840,Simcolourproject_2stim_asymm_v5,2020.2.10,MacIntel,60,61025ae37ef11b136ea224fe,,,,,,,,,3311,51.71496582,77.63803101,1,0,0,response1disk,,7,15.21801758,3.050170898,1,0,0,rectangle,-42.06408691,-100.8977661,1,0,0,response5disk_3,TRUE,3,3,"[8,76,67,1,234,23,270,52,170,7,244,76,307,318,129,308,55,321,53,207]",2.3832,-1.149719238,3.963562012,1,0,0,rectangle,0,66,66,156,1,
,,,,,,,,,,,,,FF,,,,,,,,1.7502,,,,,,,,,,,,,,,,,,,,,,60ff265ad0d04a091f893b0b,61036e8157a3bbbc40c70c13,2021-07-29_23h15.12.840,Simcolourproject_2stim_asymm_v5,2020.2.10,MacIntel,60,61025ae37ef11b136ea224fe,,,,,,,,,661,96.91851807,34.00732422,1,0,0,response1disk,,6,5.714294434,-2.13458252,1,0,0,rectangle,5.714294434,-2.13458252,1,0,0,,,,,,,5.714294434,-2.13458252,1,0,0,,0,67,67,158,1,
,,,,,,,,,,,,,FF,,,,,,,,1.417,,,,,,,,,,,,,,,,,,,,,,60ff265ad0d04a091f893b0b,61036e8157a3bbbc40c70c13,2021-07-29_23h15.12.840,Simcolourproject_2stim_asymm_v5,2020.2.10,MacIntel,60,61025ae37ef11b136ea224fe,,,,,,,,,2488,118.0001221,49.54998779,1,0,0,response1disk,,6,1.735595703,-4.559082031,1,0,0,rectangle,1.735595703,-4.559082031,1,0,0,,,,,,,1.735595703,-4.559082031,1,0,0,,0,68,68,97,1,
,,,,,,,,,,,,,FF,,,,,,,,0.8173,,,,,,,,,,,,,,,,,,,,,,60ff265ad0d04a091f893b0b,61036e8157a3bbbc40c70c13,2021-07-29_23h15.12.840,Simcolourproject_2stim_asymm_v5,2020.2.10,MacIntel,60,61025ae37ef11b136ea224fe,,,,,,,,,1077,108.09198,40.43743896,1,0,0,response1disk,,6,17.14306641,-3.396972656,1,0,0,rectangle,17.14306641,-3.396972656,1,0,0,,,,,,,17.14306641,-3.396972656,1,0,0,,0,69,69,23,1,
,,,,,,,,,,,,,FF,,,,,,,,2.1666,,,,,,,,,,,,,,,,,,,,,,60ff265ad0d04a091f893b0b,61036e8157a3bbbc40c70c13,2021-07-29_23h15.12.840,Simcolourproject_2stim_asymm_v5,2020.2.10,MacIntel,60,61025ae37ef11b136ea224fe,,,,,,,,,2427,91.76739502,58.33087158,1,0,0,response1disk,,6,-5.481811523,-5.598602295,1,0,0,rectangle,-5.481811523,-5.598602295,1,0,0,,,,,,,-5.481811523,-5.598602295,1,0,0,,0,70,70,55,1,
,,,,,,,,,,,,,FF,,,,,,,,1.2009,,,,,,,,,,,,,,,,,,,,,,60ff265ad0d04a091f893b0b,61036e8157a3bbbc40c70c13,2021-07-29_23h15.12.840,Simcolourproject_2stim_asymm_v5,2020.2.10,MacIntel,60,61025ae37ef11b136ea224fe,,,,,,,,,437,-71.30511475,-35.43875122,1,0,0,response5disk,,2,-10.00439453,0.598937988,1,0,0,rectangle,-10.00439453,0.598937988,1,0,0,,,,,,,-10.00439453,0.598937988,1,0,0,,0,71,71,92,1,
,,,,,,,,,,,,,FF,,,,,,,,1.05,,,,,,,,,,,,,,,,,,,,,,60ff265ad0d04a091f893b0b,61036e8157a3bbbc40c70c13,2021-07-29_23h15.12.840,Simcolourproject_2stim_asymm_v5,2020.2.10,MacIntel,60,61025ae37ef11b136ea224fe,,,,,,,,,754,31.49609375,79.03082275,1,0,0,response1disk,,7,1.964355469,-3.09286499,1,0,0,rectangle,1.964355469,-3.09286499,1,0,0,,,,,,,1.964355469,-3.09286499,1,0,0,,0,72,72,47,1,
,,,,,,,,,,,,,FF,,,,,,,,1.3323,,,,,,,,,,,,,,,,,,,,,,60ff265ad0d04a091f893b0b,61036e8157a3bbbc40c70c13,2021-07-29_23h15.12.840,Simcolourproject_2stim_asymm_v5,2020.2.10,MacIntel,60,61025ae37ef11b136ea224fe,,,,,,,,,3879,35.8338623,68.88464355,1,0,0,response1disk,,7,5.644836426,5.582458496,1,0,0,rectangle,5.644836426,5.582458496,1,0,0,,,,,,,5.644836426,5.582458496,1,0,0,,0,73,73,118,1,
,,,,,,,,,,,,,FF,,,,,,,,1.1673,,,,,,,,,,,,,,,,,,,,,,60ff265ad0d04a091f893b0b,61036e8157a3bbbc40c70c13,2021-07-29_23h15.12.840,Simcolourproject_2stim_asymm_v5,2020.2.10,MacIntel,60,61025ae37ef11b136ea224fe,,,,,,,,,368,-33.60821533,-101.9834595,1,0,0,response5disk,,3,2.018371582,9.392547607,1,0,0,rectangle,2.018371582,9.392547607,1,0,0,,,,,,,2.018371582,9.392547607,1,0,0,,0,74,74,42,1,
,,,,,,,,,,,,,FF,,,,,,,,1.7326,,,,,,,,,,,,,,,,,,,,,,60ff265ad0d04a091f893b0b,61036e8157a3bbbc40c70c13,2021-07-29_23h15.12.840,Simcolourproject_2stim_asymm_v5,2020.2.10,MacIntel,60,61025ae37ef11b136ea224fe,,,,,,,,,718,-100.8712769,-40.1081543,1,0,0,response5disk,,2,-24.56152344,-17.92816162,1,0,0,rectangle,111.4381104,22.77478027,1,0,0,response1disk_3,TRUE,6,6,"[8,76,67,1,234,23,270,52,170,7,244,76,307,318,129,308,55,321,53,207]",2.5169,-15.59533691,-17.67453003,1,0,0,rectangle,0,75,75,15,1,
,,,,,,,,,,,,,FF,,,,,,,,0.8659,,,,,,,,,,,,,,,,,,,,,,60ff265ad0d04a091f893b0b,61036e8157a3bbbc40c70c13,2021-07-29_23h15.12.840,Simcolourproject_2stim_asymm_v5,2020.2.10,MacIntel,60,61025ae37ef11b136ea224fe,,,,,,,,,2580,32.06945801,80.17181396,1,0,0,response1disk,,7,7.335266113,0.440551758,1,0,0,rectangle,7.335266113,0.440551758,1,0,0,,,,,,,7.335266113,0.440551758,1,0,0,,0,76,76,159,1,
,,,,,,,,,,,,,FF,,,,,,,,0.8502,,,,,,,,,,,,,,,,,,,,,,60ff265ad0d04a091f893b0b,61036e8157a3bbbc40c70c13,2021-07-29_23h15.12.840,Simcolourproject_2stim_asymm_v5,2020.2.10,MacIntel,60,61025ae37ef11b136ea224fe,,,,,,,,,2013,46.54248047,88.31500244,1,0,0,response1disk,,7,3.815795898,-0.475524902,1,0,0,rectangle,3.815795898,-0.475524902,1,0,0,,,,,,,3.815795898,-0.475524902,1,0,0,,0,77,77,95,1,
,,,,,,,,,,,,,FF,,,,,,,,1.2004,,,,,,,,,,,,,,,,,,,,,,60ff265ad0d04a091f893b0b,61036e8157a3bbbc40c70c13,2021-07-29_23h15.12.840,Simcolourproject_2stim_asymm_v5,2020.2.10,MacIntel,60,61025ae37ef11b136ea224fe,,,,,,,,,2121,100.6584473,35.24401855,1,0,0,response1disk,,6,15.1907959,0.261169434,1,0,0,rectangle,15.1907959,0.261169434,1,0,0,,,,,,,15.1907959,0.261169434,1,0,0,,0,78,78,39,1,
,,,,,,,,,,,,,FF,,,,,,,,1.2664,,,,,,,,,,,,,,,,,,,,,,60ff265ad0d04a091f893b0b,61036e8157a3bbbc40c70c13,2021-07-29_23h15.12.840,Simcolourproject_2stim_asymm_v5,2020.2.10,MacIntel,60,61025ae37ef11b136ea224fe,,,,,,,,,2671,31.72064209,-98.9029541,1,0,0,response3disk,,4,5.480834961,13.94494629,1,0,0,rectangle,5.480834961,13.94494629,1,0,0,,,,,,,5.480834961,13.94494629,1,0,0,,0,79,79,84,1,
,,,,,,,,,,,,,FF,,,,,,,,1.2325,,,,,,,,,,,,,,,,,,,,,,60ff265ad0d04a091f893b0b,61036e8157a3bbbc40c70c13,2021-07-29_23h15.12.840,Simcolourproject_2stim_asymm_v5,2020.2.10,MacIntel,60,61025ae37ef11b136ea224fe,,,,,,,,,3973,83.90905762,-66.15515137,1,0,0,response3disk,,5,27.76348877,-13.56860352,1,0,0,rectangle,27.76348877,-13.56860352,1,0,0,,,,,,,27.76348877,-13.56860352,1,0,0,,0,80,80,19,1,
,,,,,,,,,,,,,FF,,,,,,,,0.9342,,,,,,,,,,,,,,,,,,,,,,60ff265ad0d04a091f893b0b,61036e8157a3bbbc40c70c13,2021-07-29_23h15.12.840,Simcolourproject_2stim_asymm_v5,2020.2.10,MacIntel,60,61025ae37ef11b136ea224fe,,,,,,,,,2956,33.89862061,112.9418335,1,0,0,response1disk,,7,7.314697266,1.818786621,1,0,0,rectangle,7.314697266,1.818786621,1,0,0,,,,,,,7.314697266,1.818786621,1,0,0,,0,81,81,45,1,
,,,,,,,,,,,,,FF,,,,,,,,1.6338,,,,,,,,,,,,,,,,,,,,,,60ff265ad0d04a091f893b0b,61036e8157a3bbbc40c70c13,2021-07-29_23h15.12.840,Simcolourproject_2stim_asymm_v5,2020.2.10,MacIntel,60,61025ae37ef11b136ea224fe,,,,,,,,,3063,52.65100098,-76.09417725,1,0,0,response3disk,,4,-12.82324219,4.60168457,1,0,0,rectangle,-12.82324219,4.60168457,1,0,0,,,,,,,-12.82324219,4.60168457,1,0,0,,0,82,82,61,1,
,,,,,,,,,,,,,FF,,,,,,,,2.3492,,,,,,,,,,,,,,,,,,,,,,60ff265ad0d04a091f893b0b,61036e8157a3bbbc40c70c13,2021-07-29_23h15.12.840,Simcolourproject_2stim_asymm_v5,2020.2.10,MacIntel,60,61025ae37ef11b136ea224fe,,,,,,,,,425,100.267395,40.92272949,1,0,0,response1disk,,6,-13.28112793,-7.470825195,1,0,0,rectangle,-13.28112793,-7.470825195,1,0,0,,,,,,,-13.28112793,-7.470825195,1,0,0,,0,83,83,28,1,
,,,,,,,,,,,,,FF,,,,,,,,2.7498,,,,,,,,,,,,,,,,,,,,,,60ff265ad0d04a091f893b0b,61036e8157a3bbbc40c70c13,2021-07-29_23h15.12.840,Simcolourproject_2stim_asymm_v5,2020.2.10,MacIntel,60,61025ae37ef11b136ea224fe,,,,,,,,,2385,116.9515381,64.78820801,1,0,0,response1disk,,6,21.82958984,5.813232422,1,0,0,rectangle,21.82958984,5.813232422,1,0,0,,,,,,,21.82958984,5.813232422,1,0,0,,0,84,84,94,1,
,,,,,,,,,,,,,FF,,,,,,,,3.8666,,,,,,,,,,,,,,,,,,,,,,60ff265ad0d04a091f893b0b,61036e8157a3bbbc40c70c13,2021-07-29_23h15.12.840,Simcolourproject_2stim_asymm_v5,2020.2.10,MacIntel,60,61025ae37ef11b136ea224fe,,,,,,,,,3867,102.890625,-18.76794434,1,0,0,response3disk,,5,-15.68688965,8.125427246,1,0,0,rectangle,-15.68688965,8.125427246,1,0,0,,,,,,,-15.68688965,8.125427246,1,0,0,,0,85,85,124,1,
,,,,,,,,,,,,,FF,,,,,,,,1.0505,,,,,,,,,,,,,,,,,,,,,,60ff265ad0d04a091f893b0b,61036e8157a3bbbc40c70c13,2021-07-29_23h15.12.840,Simcolourproject_2stim_asymm_v5,2020.2.10,MacIntel,60,61025ae37ef11b136ea224fe,,,,,,,,,4294,-84.48791504,-34.08294678,1,0,0,response5disk,,2,-20.52838135,-4.222167969,1,0,0,rectangle,-20.52838135,-4.222167969,1,0,0,,,,,,,-20.52838135,-4.222167969,1,0,0,,0,86,86,108,1,
,,,,,,,,,,,,,FF,,,,,,,,1.7841,,,,,,,,,,,,,,,,,,,,,,60ff265ad0d04a091f893b0b,61036e8157a3bbbc40c70c13,2021-07-29_23h15.12.840,Simcolourproject_2stim_asymm_v5,2020.2.10,MacIntel,60,61025ae37ef11b136ea224fe,,,,,,,,,1083,44.81286621,78.20245361,1,0,0,response1disk,,7,19.07293701,11.06549072,1,0,0,rectangle,19.07293701,11.06549072,1,0,0,,,,,,,19.07293701,11.06549072,1,0,0,,0,87,87,144,1,
,,,,,,,,,,,,,FF,,,,,,,,5.8166,,,,,,,,,,,,,,,,,,,,,,60ff265ad0d04a091f893b0b,61036e8157a3bbbc40c70c13,2021-07-29_23h15.12.840,Simcolourproject_2stim_asymm_v5,2020.2.10,MacIntel,60,61025ae37ef11b136ea224fe,,,,,,,,,4350,-39.06079102,108.4173584,1,0,0,response7disk,,0,-5.232788086,-2.409301758,1,0,0,rectangle,-5.232788086,-2.409301758,1,0,0,,,,,,,-5.232788086,-2.409301758,1,0,0,,0,88,88,30,1,
,,,,,,,,,,,,,FF,,,,,,,,1.2664,,,,,,,,,,,,,,,,,,,,,,60ff265ad0d04a091f893b0b,61036e8157a3bbbc40c70c13,2021-07-29_23h15.12.840,Simcolourproject_2stim_asymm_v5,2020.2.10,MacIntel,60,61025ae37ef11b136ea224fe,,,,,,,,,3362,72.90582275,97.87316895,1,0,0,response1disk,,7,4.353088379,2.974609375,1,0,0,rectangle,4.353088379,2.974609375,1,0,0,,,,,,,4.353088379,2.974609375,1,0,0,,0,89,89,73,1,
,,,,,,,,,,,,,FF,,,,,,,,1.5989,,,,,,,,,,,,,,,,,,,,,,60ff265ad0d04a091f893b0b,61036e8157a3bbbc40c70c13,2021-07-29_23h15.12.840,Simcolourproject_2stim_asymm_v5,2020.2.10,MacIntel,60,61025ae37ef11b136ea224fe,,,,,,,,,1361,45.84063721,-102.1313477,1,0,0,response3disk,,4,15.47576904,-0.695373535,1,0,0,rectangle,15.47576904,-0.695373535,1,0,0,,,,,,,15.47576904,-0.695373535,1,0,0,,0,90,90,98,1,
,,,,,,,,,,,,,FF,,,,,,,,0.9506,,,,,,,,,,,,,,,,,,,,,,60ff265ad0d04a091f893b0b,61036e8157a3bbbc40c70c13,2021-07-29_23h15.12.840,Simcolourproject_2stim_asymm_v5,2020.2.10,MacIntel,60,61025ae37ef11b136ea224fe,,,,,,,,,2705,26.61328125,53.44418335,1,0,0,response1disk,,7,7.607788086,9.886657715,1,0,0,rectangle,7.607788086,9.886657715,1,0,0,,,,,,,7.607788086,9.886657715,1,0,0,,0,91,91,136,1,
,,,,,,,,,,,,,FF,,,,,,,,4.0338,,,,,,,,,,,,,,,,,,,,,,60ff265ad0d04a091f893b0b,61036e8157a3bbbc40c70c13,2021-07-29_23h15.12.840,Simcolourproject_2stim_asymm_v5,2020.2.10,MacIntel,60,61025ae37ef11b136ea224fe,,,,,,,,,1135,-44.07641602,-87.0980835,1,0,0,response5disk,,3,-0.593383789,15.74584961,1,0,0,rectangle,-0.593383789,15.74584961,1,0,0,,,,,,,-0.593383789,15.74584961,1,0,0,,0,92,92,11,1,
,,,,,,,,,,,,,FF,,,,,,,,3.6168,,,,,,,,,,,,,,,,,,,,,,60ff265ad0d04a091f893b0b,61036e8157a3bbbc40c70c13,2021-07-29_23h15.12.840,Simcolourproject_2stim_asymm_v5,2020.2.10,MacIntel,60,61025ae37ef11b136ea224fe,,,,,,,,,2169,-20.49102783,-87.17626953,1,0,0,response5disk,,3,-0.393066406,6.917480469,1,0,0,rectangle,-0.393066406,6.917480469,1,0,0,,,,,,,-0.393066406,6.917480469,1,0,0,,0,93,93,129,1,
,,,,,,,,,,,,,FF,,,,,,,,1.1328,,,,,,,,,,,,,,,,,,,,,,60ff265ad0d04a091f893b0b,61036e8157a3bbbc40c70c13,2021-07-29_23h15.12.840,Simcolourproject_2stim_asymm_v5,2020.2.10,MacIntel,60,61025ae37ef11b136ea224fe,,,,,,,,,362,43.50421143,76.15606689,1,0,0,response1disk,,7,6.948547363,9.307220459,1,0,0,rectangle,6.948547363,9.307220459,1,0,0,,,,,,,6.948547363,9.307220459,1,0,0,,0,94,94,33,1,
,,,,,,,,,,,,,FF,,,,,,,,1.3825,,,,,,,,,,,,,,,,,,,,,,60ff265ad0d04a091f893b0b,61036e8157a3bbbc40c70c13,2021-07-29_23h15.12.840,Simcolourproject_2stim_asymm_v5,2020.2.10,MacIntel,60,61025ae37ef11b136ea224fe,,,,,,,,,1582,110.1721802,-76.26660156,1,0,0,response3disk,,5,-0.776306152,3.212158203,1,0,0,rectangle,-0.776306152,3.212158203,1,0,0,,,,,,,-0.776306152,3.212158203,1,0,0,,0,95,95,31,1,
,,,,,,,,,,,,,FF,,,,,,,,1.2316,,,,,,,,,,,,,,,,,,,,,,60ff265ad0d04a091f893b0b,61036e8157a3bbbc40c70c13,2021-07-29_23h15.12.840,Simcolourproject_2stim_asymm_v5,2020.2.10,MacIntel,60,61025ae37ef11b136ea224fe,,,,,,,,,3339,-43.77801514,-86.36505127,1,0,0,response5disk,,3,-9.913818359,-0.344848633,1,0,0,rectangle,-9.913818359,-0.344848633,1,0,0,,,,,,,-9.913818359,-0.344848633,1,0,0,,0,96,96,50,1,
,,,,,,,,,,,,,FF,,,,,,,,1.1163,,,,,,,,,,,,,,,,,,,,,,60ff265ad0d04a091f893b0b,61036e8157a3bbbc40c70c13,2021-07-29_23h15.12.840,Simcolourproject_2stim_asymm_v5,2020.2.10,MacIntel,60,61025ae37ef11b136ea224fe,,,,,,,,,4001,-25.33551025,-81.14202881,1,0,0,response5disk,,3,9.340515137,-2.225097656,1,0,0,rectangle,9.340515137,-2.225097656,1,0,0,,,,,,,9.340515137,-2.225097656,1,0,0,,0,97,97,78,1,
,,,,,,,,,,,,,FF,,,,,,,,1.0171,,,,,,,,,,,,,,,,,,,,,,60ff265ad0d04a091f893b0b,61036e8157a3bbbc40c70c13,2021-07-29_23h15.12.840,Simcolourproject_2stim_asymm_v5,2020.2.10,MacIntel,60,61025ae37ef11b136ea224fe,,,,,,,,,1685,36.5032959,-59.62402344,1,0,0,response3disk,,4,14.22161865,-6.92288208,1,0,0,rectangle,14.22161865,-6.92288208,1,0,0,,,,,,,14.22161865,-6.92288208,1,0,0,,0,98,98,88,1,
,,,,,,,,,,,,,FF,,,,,,,,1.7985,,,,,,,,,,,,,,,,,,,,,,60ff265ad0d04a091f893b0b,61036e8157a3bbbc40c70c13,2021-07-29_23h15.12.840,Simcolourproject_2stim_asymm_v5,2020.2.10,MacIntel,60,61025ae37ef11b136ea224fe,,,,,,,,,464,101.5848999,50.65551758,1,0,0,response1disk,,6,-0.122741699,4.322570801,1,0,0,rectangle,-0.122741699,4.322570801,1,0,0,,,,,,,-0.122741699,4.322570801,1,0,0,,0,99,99,53,1,
,,,,,,,,,,,,,FF,,,,,,,,0.9843,,,,,,,,,,,,,,,,,,,,,,60ff265ad0d04a091f893b0b,61036e8157a3bbbc40c70c13,2021-07-29_23h15.12.840,Simcolourproject_2stim_asymm_v5,2020.2.10,MacIntel,60,61025ae37ef11b136ea224fe,,,,,,,,,773,25.79577637,65.17654419,1,0,0,response1disk,,7,3.661071777,17.62237549,1,0,0,rectangle,3.661071777,17.62237549,1,0,0,,,,,,,3.661071777,17.62237549,1,0,0,,0,100,100,152,1,
,,,,,,,,,,,,,FF,,,,,,,,0.9155,,,,,,,,,,,,,,,,,,,,,,60ff265ad0d04a091f893b0b,61036e8157a3bbbc40c70c13,2021-07-29_23h15.12.840,Simcolourproject_2stim_asymm_v5,2020.2.10,MacIntel,60,61025ae37ef11b136ea224fe,,,,,,,,,1716,46.32318115,88.08059692,1,0,0,response1disk,,7,8.120056152,9.95715332,1,0,0,rectangle,8.120056152,9.95715332,1,0,0,,,,,,,8.120056152,9.95715332,1,0,0,,0,101,101,79,1,
,,,,,,,,,,,,,FF,,,,,,,,0.9498,,,,,,,,,,,,,,,,,,,,,,60ff265ad0d04a091f893b0b,61036e8157a3bbbc40c70c13,2021-07-29_23h15.12.840,Simcolourproject_2stim_asymm_v5,2020.2.10,MacIntel,60,61025ae37ef11b136ea224fe,,,,,,,,,1990,32.76678467,66.86303711,1,0,0,response1disk,,7,15.02362061,3.913879395,1,0,0,rectangle,15.02362061,3.913879395,1,0,0,,,,,,,15.02362061,3.913879395,1,0,0,,0,102,102,64,1,
,,,,,,,,,,,,,FF,,,,,,,,0.9831,,,,,,,,,,,,,,,,,,,,,,60ff265ad0d04a091f893b0b,61036e8157a3bbbc40c70c13,2021-07-29_23h15.12.840,Simcolourproject_2stim_asymm_v5,2020.2.10,MacIntel,60,61025ae37ef11b136ea224fe,,,,,,,,,265,-48.39587402,-94.21514893,1,0,0,response5disk,,3,-4.143066406,-2.008758545,1,0,0,rectangle,-4.143066406,-2.008758545,1,0,0,,,,,,,-4.143066406,-2.008758545,1,0,0,,0,103,103,77,1,
,,,,,,,,,,,,,FF,,,,,,,,3.0154,,,,,,,,,,,,,,,,,,,,,,60ff265ad0d04a091f893b0b,61036e8157a3bbbc40c70c13,2021-07-29_23h15.12.840,Simcolourproject_2stim_asymm_v5,2020.2.10,MacIntel,60,61025ae37ef11b136ea224fe,,,,,,,,,1064,50.66259766,-100.4260864,1,0,0,response3disk,,4,6.483337402,-11.49102783,1,0,0,rectangle,6.483337402,-11.49102783,1,0,0,,,,,,,6.483337402,-11.49102783,1,0,0,,0,104,104,121,1,
,,,,,,,,,,,,,FF,,,,,,,,1.234,,,,,,,,,,,,,,,,,,,,,,60ff265ad0d04a091f893b0b,61036e8157a3bbbc40c70c13,2021-07-29_23h15.12.840,Simcolourproject_2stim_asymm_v5,2020.2.10,MacIntel,60,61025ae37ef11b136ea224fe,,,,,,,,,3042,35.72625732,-73.10797119,1,0,0,response3disk,,4,14.41442871,7.627807617,1,0,0,rectangle,14.41442871,7.627807617,1,0,0,,,,,,,14.41442871,7.627807617,1,0,0,,0,105,105,1,1,
,,,,,,,,,,,,,FF,,,,,,,,1.6166,,,,,,,,,,,,,,,,,,,,,,60ff265ad0d04a091f893b0b,61036e8157a3bbbc40c70c13,2021-07-29_23h15.12.840,Simcolourproject_2stim_asymm_v5,2020.2.10,MacIntel,60,61025ae37ef11b136ea224fe,,,,,,,,,358,39.86975098,88.53338623,1,0,0,response1disk,,7,13.28979492,-9.952026367,1,0,0,rectangle,13.28979492,-9.952026367,1,0,0,,,,,,,13.28979492,-9.952026367,1,0,0,,0,106,106,125,1,
,,,,,,,,,,,,,FF,,,,,,,,2.3523,,,,,,,,,,,,,,,,,,,,,,60ff265ad0d04a091f893b0b,61036e8157a3bbbc40c70c13,2021-07-29_23h15.12.840,Simcolourproject_2stim_asymm_v5,2020.2.10,MacIntel,60,61025ae37ef11b136ea224fe,,,,,,,,,2088,33.08599854,76.10748291,1,0,0,response1disk,,7,-1.603271484,0.632629395,1,0,0,rectangle,-1.603271484,0.632629395,1,0,0,,,,,,,-1.603271484,0.632629395,1,0,0,,0,107,107,137,1,
,,,,,,,,,,,,,FF,,,,,,,,2.2002,,,,,,,,,,,,,,,,,,,,,,60ff265ad0d04a091f893b0b,61036e8157a3bbbc40c70c13,2021-07-29_23h15.12.840,Simcolourproject_2stim_asymm_v5,2020.2.10,MacIntel,60,61025ae37ef11b136ea224fe,,,,,,,,,2218,117.3776855,55.36968994,1,0,0,response1disk,,6,-1.834594727,-12.58389282,1,0,0,rectangle,-1.834594727,-12.58389282,1,0,0,,,,,,,-1.834594727,-12.58389282,1,0,0,,0,108,108,105,1,
,,,,,,,,,,,,,FF,,,,,,,,1.7827,,,,,,,,,,,,,,,,,,,,,,60ff265ad0d04a091f893b0b,61036e8157a3bbbc40c70c13,2021-07-29_23h15.12.840,Simcolourproject_2stim_asymm_v5,2020.2.10,MacIntel,60,61025ae37ef11b136ea224fe,,,,,,,,,3547,49.16308594,100.5424194,1,0,0,response1disk,,7,-4.874206543,4.712799072,1,0,0,rectangle,-4.874206543,4.712799072,1,0,0,,,,,,,-4.874206543,4.712799072,1,0,0,,0,109,109,157,1,
,,,,,,,,,,,,,FF,,,,,,,,1.1828,,,,,,,,,,,,,,,,,,,,,,60ff265ad0d04a091f893b0b,61036e8157a3bbbc40c70c13,2021-07-29_23h15.12.840,Simcolourproject_2stim_asymm_v5,2020.2.10,MacIntel,60,61025ae37ef11b136ea224fe,,,,,,,,,3981,55.66619873,97.20248413,1,0,0,response1disk,,7,10.16455078,10.08956909,1,0,0,rectangle,10.16455078,10.08956909,1,0,0,,,,,,,10.16455078,10.08956909,1,0,0,,0,110,110,57,1,
,,,,,,,,,,,,,FF,,,,,,,,1.0504,,,,,,,,,,,,,,,,,,,,,,60ff265ad0d04a091f893b0b,61036e8157a3bbbc40c70c13,2021-07-29_23h15.12.840,Simcolourproject_2stim_asymm_v5,2020.2.10,MacIntel,60,61025ae37ef11b136ea224fe,,,,,,,,,32,28.53137207,74.34866333,1,0,0,response1disk,,7,18.11376953,11.43551636,1,0,0,rectangle,18.11376953,11.43551636,1,0,0,,,,,,,18.11376953,11.43551636,1,0,0,,0,111,111,119,1,
,,,,,,,,,,,,,FF,,,,,,,,1.2504,,,,,,,,,,,,,,,,,,,,,,60ff265ad0d04a091f893b0b,61036e8157a3bbbc40c70c13,2021-07-29_23h15.12.840,Simcolourproject_2stim_asymm_v5,2020.2.10,MacIntel,60,61025ae37ef11b136ea224fe,,,,,,,,,1197,96.97088623,41.94378662,1,0,0,response1disk,,6,3.94543457,6.711090088,1,0,0,rectangle,3.94543457,6.711090088,1,0,0,,,,,,,3.94543457,6.711090088,1,0,0,,0,112,112,150,1,
,,,,,,,,,,,,,FF,,,,,,,,2.3166,,,,,,,,,,,,,,,,,,,,,,60ff265ad0d04a091f893b0b,61036e8157a3bbbc40c70c13,2021-07-29_23h15.12.840,Simcolourproject_2stim_asymm_v5,2020.2.10,MacIntel,60,61025ae37ef11b136ea224fe,,,,,,,,,2769,36.04180908,-85.8560791,1,0,0,response3disk,,4,0.282043457,-7.822631836,1,0,0,rectangle,0.282043457,-7.822631836,1,0,0,,,,,,,0.282043457,-7.822631836,1,0,0,,0,113,113,147,1,
,,,,,,,,,,,,,FF,,,,,,,,0.933,,,,,,,,,,,,,,,,,,,,,,60ff265ad0d04a091f893b0b,61036e8157a3bbbc40c70c13,2021-07-29_23h15.12.840,Simcolourproject_2stim_asymm_v5,2020.2.10,MacIntel,60,61025ae37ef11b136ea224fe,,,,,,,,,1360,50.21380615,72.93048096,1,0,0,response1disk,,7,6.558227539,-4.297180176,1,0,0,rectangle,6.558227539,-4.297180176,1,0,0,,,,,,,6.558227539,-4.297180176,1,0,0,,0,114,114,113,1,
,,,,,,,,,,,,,FF,,,,,,,,0.9002,,,,,,,,,,,,,,,,,,,,,,60ff265ad0d04a091f893b0b,61036e8157a3bbbc40c70c13,2021-07-29_23h15.12.840,Simcolourproject_2stim_asymm_v5,2020.2.10,MacIntel,60,61025ae37ef11b136ea224fe,,,,,,,,,3120,35.70892334,71.84344482,1,0,0,response1disk,,7,11.8215332,-0.022003174,1,0,0,rectangle,11.8215332,-0.022003174,1,0,0,,,,,,,11.8215332,-0.022003174,1,0,0,,0,115,115,85,1,
,,,,,,,,,,,,,FF,,,,,,,,2.4826,,,,,,,,,,,,,,,,,,,,,,60ff265ad0d04a091f893b0b,61036e8157a3bbbc40c70c13,2021-07-29_23h15.12.840,Simcolourproject_2stim_asymm_v5,2020.2.10,MacIntel,60,61025ae37ef11b136ea224fe,,,,,,,,,3818,57.76171875,-98.10150146,1,0,0,response3disk,,4,-13.03393555,2.853668213,1,0,0,rectangle,-13.03393555,2.853668213,1,0,0,,,,,,,-13.03393555,2.853668213,1,0,0,,0,116,116,4,1,
,,,,,,,,,,,,,FF,,,,,,,,1.1014,,,,,,,,,,,,,,,,,,,,,,60ff265ad0d04a091f893b0b,61036e8157a3bbbc40c70c13,2021-07-29_23h15.12.840,Simcolourproject_2stim_asymm_v5,2020.2.10,MacIntel,60,61025ae37ef11b136ea224fe,,,,,,,,,619,32.1697998,-66.29095459,1,0,0,response3disk,,4,6.908569336,-13.65704346,1,0,0,rectangle,6.908569336,-13.65704346,1,0,0,,,,,,,6.908569336,-13.65704346,1,0,0,,0,117,117,14,1,
,,,,,,,,,,,,,FF,,,,,,,,1.7499,,,,,,,,,,,,,,,,,,,,,,60ff265ad0d04a091f893b0b,61036e8157a3bbbc40c70c13,2021-07-29_23h15.12.840,Simcolourproject_2stim_asymm_v5,2020.2.10,MacIntel,60,61025ae37ef11b136ea224fe,,,,,,,,,3202,-87.70306396,-48.57879639,1,0,0,response5disk,,2,-9.733337402,-3.319732666,1,0,0,rectangle,-9.733337402,-3.319732666,1,0,0,,,,,,,-9.733337402,-3.319732666,1,0,0,,0,118,118,26,1,
,,,,,,,,,,,,,FF,,,,,,,,0.983,,,,,,,,,,,,,,,,,,,,,,60ff265ad0d04a091f893b0b,61036e8157a3bbbc40c70c13,2021-07-29_23h15.12.840,Simcolourproject_2stim_asymm_v5,2020.2.10,MacIntel,60,61025ae37ef11b136ea224fe,,,,,,,,,880,43.38763428,82.3772583,1,0,0,response1disk,,7,6.884521484,4.257293701,1,0,0,rectangle,6.884521484,4.257293701,1,0,0,,,,,,,6.884521484,4.257293701,1,0,0,,0,119,119,44,1,
,,,,,,,,,,,,,FF,,,,,,,,0.9825,,,,,,,,,,,,,,,,,,,,,,60ff265ad0d04a091f893b0b,61036e8157a3bbbc40c70c13,2021-07-29_23h15.12.840,Simcolourproject_2stim_asymm_v5,2020.2.10,MacIntel,60,61025ae37ef11b136ea224fe,,,,,,,,,1770,38.33972168,71.68951416,1,0,0,response1disk,,7,3.929199219,4.359832764,1,0,0,rectangle,3.929199219,4.359832764,1,0,0,,,,,,,3.929199219,4.359832764,1,0,0,,0,120,120,32,1,
,,,,,,,,,,,,,FF,,,,,,,,0.7656,,,,,,,,,,,,,,,,,,,,,,60ff265ad0d04a091f893b0b,61036e8157a3bbbc40c70c13,2021-07-29_23h15.12.840,Simcolourproject_2stim_asymm_v5,2020.2.10,MacIntel,60,61025ae37ef11b136ea224fe,,,,,,,,,152,44.41168213,83.25537109,1,0,0,response1disk,,7,10.66955566,-0.399627686,1,0,0,rectangle,10.66955566,-0.399627686,1,0,0,,,,,,,10.66955566,-0.399627686,1,0,0,,0,121,121,149,1,
,,,,,,,,,,,,,FF,,,,,,,,0.7829,,,,,,,,,,,,,,,,,,,,,,60ff265ad0d04a091f893b0b,61036e8157a3bbbc40c70c13,2021-07-29_23h15.12.840,Simcolourproject_2stim_asymm_v5,2020.2.10,MacIntel,60,61025ae37ef11b136ea224fe,,,,,,,,,1321,26.84985352,59.41314697,1,0,0,response1disk,,7,13.33282471,1.015136719,1,0,0,rectangle,13.33282471,1.015136719,1,0,0,,,,,,,13.33282471,1.015136719,1,0,0,,0,122,122,54,1,
,,,,,,,,,,,,,FF,,,,,,,,0.9333,,,,,,,,,,,,,,,,,,,,,,60ff265ad0d04a091f893b0b,61036e8157a3bbbc40c70c13,2021-07-29_23h15.12.840,Simcolourproject_2stim_asymm_v5,2020.2.10,MacIntel,60,61025ae37ef11b136ea224fe,,,,,,,,,326,42.26971436,82.74346924,1,0,0,response1disk,,7,14.32421875,6.836730957,1,0,0,rectangle,14.32421875,6.836730957,1,0,0,,,,,,,14.32421875,6.836730957,1,0,0,,0,123,123,89,1,
,,,,,,,,,,,,,FF,,,,,,,,0.8667,,,,,,,,,,,,,,,,,,,,,,60ff265ad0d04a091f893b0b,61036e8157a3bbbc40c70c13,2021-07-29_23h15.12.840,Simcolourproject_2stim_asymm_v5,2020.2.10,MacIntel,60,61025ae37ef11b136ea224fe,,,,,,,,,1169,32.61358643,90.72180176,1,0,0,response1disk,,7,6.137634277,-6.020385742,1,0,0,rectangle,6.137634277,-6.020385742,1,0,0,,,,,,,6.137634277,-6.020385742,1,0,0,,0,124,124,40,1,
,,,,,,,,,,,,,FF,,,,,,,,1.2502,,,,,,,,,,,,,,,,,,,,,,60ff265ad0d04a091f893b0b,61036e8157a3bbbc40c70c13,2021-07-29_23h15.12.840,Simcolourproject_2stim_asymm_v5,2020.2.10,MacIntel,60,61025ae37ef11b136ea224fe,,,,,,,,,2542,-29.7590332,101.5085449,1,0,0,response7disk,,0,4.764831543,-0.586975098,1,0,0,rectangle,4.764831543,-0.586975098,1,0,0,,,,,,,4.764831543,-0.586975098,1,0,0,,0,125,125,21,1,
,,,,,,,,,,,,,FF,,,,,,,,2.35,,,,,,,,,,,,,,,,,,,,,,60ff265ad0d04a091f893b0b,61036e8157a3bbbc40c70c13,2021-07-29_23h15.12.840,Simcolourproject_2stim_asymm_v5,2020.2.10,MacIntel,60,61025ae37ef11b136ea224fe,,,,,,,,,2843,75.72802734,-62.4720459,1,0,0,response3disk,,5,11.50946045,-7.130187988,1,0,0,rectangle,11.50946045,-7.130187988,1,0,0,,,,,,,11.50946045,-7.130187988,1,0,0,,0,126,126,104,1,
,,,,,,,,,,,,,FF,,,,,,,,0.9504,,,,,,,,,,,,,,,,,,,,,,60ff265ad0d04a091f893b0b,61036e8157a3bbbc40c70c13,2021-07-29_23h15.12.840,Simcolourproject_2stim_asymm_v5,2020.2.10,MacIntel,60,61025ae37ef11b136ea224fe,,,,,,,,,4174,36.77520752,98.80276489,1,0,0,response1disk,,7,-3.483703613,-5.349304199,1,0,0,rectangle,-3.483703613,-5.349304199,1,0,0,,,,,,,-3.483703613,-5.349304199,1,0,0,,0,127,127,135,1,
,,,,,,,,,,,,,FF,,,,,,,,7.817,,,,,,,,,,,,,,,,,,,,,,60ff265ad0d04a091f893b0b,61036e8157a3bbbc40c70c13,2021-07-29_23h15.12.840,Simcolourproject_2stim_asymm_v5,2020.2.10,MacIntel,60,61025ae37ef11b136ea224fe,,,,,,,,,275,31.1517334,65.7350769,1,0,0,response1disk,,7,5.650939941,-7.879211426,1,0,0,rectangle,87.87878418,-39.52307129,1,0,0,response3disk_3,TRUE,5,5,"[8,76,67,1,234,23,270,52,170,7,244,76,307,318,129,308,55,321,53,207]",1.7837,7.31640625,7.499328613,1,0,0,rectangle,0,128,128,41,1,
,,,,,,,,,,,,,FF,,,,,,,,1.933,,,,,,,,,,,,,,,,,,,,,,60ff265ad0d04a091f893b0b,61036e8157a3bbbc40c70c13,2021-07-29_23h15.12.840,Simcolourproject_2stim_asymm_v5,2020.2.10,MacIntel,60,61025ae37ef11b136ea224fe,,,,,,,,,2388,33.61010742,89.27160645,1,0,0,response1disk,,7,18.65917969,-0.34286499,1,0,0,rectangle,18.65917969,-0.34286499,1,0,0,,,,,,,18.65917969,-0.34286499,1,0,0,,0,129,129,109,1,
,,,,,,,,,,,,,FF,,,,,,,,0.783,,,,,,,,,,,,,,,,,,,,,,60ff265ad0d04a091f893b0b,61036e8157a3bbbc40c70c13,2021-07-29_23h15.12.840,Simcolourproject_2stim_asymm_v5,2020.2.10,MacIntel,60,61025ae37ef11b136ea224fe,,,,,,,,,580,58.83959961,69.859375,1,0,0,response1disk,,7,-3.711364746,-12.11096191,1,0,0,rectangle,-3.711364746,-12.11096191,1,0,0,,,,,,,-3.711364746,-12.11096191,1,0,0,,0,130,130,68,1,
,,,,,,,,,,,,,FF,,,,,,,,1.5338,,,,,,,,,,,,,,,,,,,,,,60ff265ad0d04a091f893b0b,61036e8157a3bbbc40c70c13,2021-07-29_23h15.12.840,Simcolourproject_2stim_asymm_v5,2020.2.10,MacIntel,60,61025ae37ef11b136ea224fe,,,,,,,,,4085,39.81274414,-110.1807861,1,0,0,response3disk,,4,-3.931213379,-3.420227051,1,0,0,rectangle,-3.931213379,-3.420227051,1,0,0,,,,,,,-3.931213379,-3.420227051,1,0,0,,0,131,131,102,1,
,,,,,,,,,,,,,FF,,,,,,,,1.467,,,,,,,,,,,,,,,,,,,,,,60ff265ad0d04a091f893b0b,61036e8157a3bbbc40c70c13,2021-07-29_23h15.12.840,Simcolourproject_2stim_asymm_v5,2020.2.10,MacIntel,60,61025ae37ef11b136ea224fe,,,,,,,,,1947,54.74487305,-89.90057373,1,0,0,response3disk,,4,8.311889648,6.3125,1,0,0,rectangle,8.311889648,6.3125,1,0,0,,,,,,,8.311889648,6.3125,1,0,0,,0,132,132,154,1,
,,,,,,,,,,,,,FF,,,,,,,,1.4166,,,,,,,,,,,,,,,,,,,,,,60ff265ad0d04a091f893b0b,61036e8157a3bbbc40c70c13,2021-07-29_23h15.12.840,Simcolourproject_2stim_asymm_v5,2020.2.10,MacIntel,60,61025ae37ef11b136ea224fe,,,,,,,,,3389,-82.53198242,-36.69119263,1,0,0,response5disk,,2,9.145080566,-9.9375,1,0,0,rectangle,9.145080566,-9.9375,1,0,0,,,,,,,9.145080566,-9.9375,1,0,0,,0,133,133,5,1,
,,,,,,,,,,,,,FF,,,,,,,,0.7664,,,,,,,,,,,,,,,,,,,,,,60ff265ad0d04a091f893b0b,61036e8157a3bbbc40c70c13,2021-07-29_23h15.12.840,Simcolourproject_2stim_asymm_v5,2020.2.10,MacIntel,60,61025ae37ef11b136ea224fe,,,,,,,,,4308,41.36193848,65.94714355,1,0,0,response1disk,,7,8.558532715,5.301818848,1,0,0,rectangle,8.558532715,5.301818848,1,0,0,,,,,,,8.558532715,5.301818848,1,0,0,,0,134,134,115,1,
,,,,,,,,,,,,,FF,,,,,,,,0.7993,,,,,,,,,,,,,,,,,,,,,,60ff265ad0d04a091f893b0b,61036e8157a3bbbc40c70c13,2021-07-29_23h15.12.840,Simcolourproject_2stim_asymm_v5,2020.2.10,MacIntel,60,61025ae37ef11b136ea224fe,,,,,,,,,1163,30.01721191,91.66589355,1,0,0,response1disk,,7,4.733215332,9.907867432,1,0,0,rectangle,4.733215332,9.907867432,1,0,0,,,,,,,4.733215332,9.907867432,1,0,0,,0,135,135,103,1,
,,,,,,,,,,,,,FF,,,,,,,,1.0826,,,,,,,,,,,,,,,,,,,,,,60ff265ad0d04a091f893b0b,61036e8157a3bbbc40c70c13,2021-07-29_23h15.12.840,Simcolourproject_2stim_asymm_v5,2020.2.10,MacIntel,60,61025ae37ef11b136ea224fe,,,,,,,,,3140,-38.41082764,-80.76379395,1,0,0,response5disk,,3,-13.74591064,5.39666748,1,0,0,rectangle,-13.74591064,5.39666748,1,0,0,,,,,,,-13.74591064,5.39666748,1,0,0,,0,136,136,72,1,
,,,,,,,,,,,,,FF,,,,,,,,1.7499,,,,,,,,,,,,,,,,,,,,,,60ff265ad0d04a091f893b0b,61036e8157a3bbbc40c70c13,2021-07-29_23h15.12.840,Simcolourproject_2stim_asymm_v5,2020.2.10,MacIntel,60,61025ae37ef11b136ea224fe,,,,,,,,,3256,58.61700439,-95.97509766,1,0,0,response3disk,,4,9.375671387,-6.171325684,1,0,0,rectangle,9.375671387,-6.171325684,1,0,0,,,,,,,9.375671387,-6.171325684,1,0,0,,0,137,137,43,1,
,,,,,,,,,,,,,FF,,,,,,,,0.7829,,,,,,,,,,,,,,,,,,,,,,60ff265ad0d04a091f893b0b,61036e8157a3bbbc40c70c13,2021-07-29_23h15.12.840,Simcolourproject_2stim_asymm_v5,2020.2.10,MacIntel,60,61025ae37ef11b136ea224fe,,,,,,,,,1342,30.39685059,57.07876587,1,0,0,response1disk,,7,1.426879883,-2.739471436,1,0,0,rectangle,1.426879883,-2.739471436,1,0,0,,,,,,,1.426879883,-2.739471436,1,0,0,,0,138,138,139,1,
,,,,,,,,,,,,,FF,,,,,,,,7.1505,,,,,,,,,,,,,,,,,,,,,,60ff265ad0d04a091f893b0b,61036e8157a3bbbc40c70c13,2021-07-29_23h15.12.840,Simcolourproject_2stim_asymm_v5,2020.2.10,MacIntel,60,61025ae37ef11b136ea224fe,,,,,,,,,1928,37.35211182,58.15930176,1,0,0,response1disk,,7,9.659790039,-7.138214111,1,0,0,rectangle,9.659790039,-7.138214111,1,0,0,,,,,,,9.659790039,-7.138214111,1,0,0,,0,139,139,146,1,
,,,,,,,,,,,,,FF,,,,,,,,1.2678,,,,,,,,,,,,,,,,,,,,,,60ff265ad0d04a091f893b0b,61036e8157a3bbbc40c70c13,2021-07-29_23h15.12.840,Simcolourproject_2stim_asymm_v5,2020.2.10,MacIntel,60,61025ae37ef11b136ea224fe,,,,,,,,,4249,101.4675293,50.04785156,1,0,0,response1disk,,6,10.59008789,2.947937012,1,0,0,rectangle,10.59008789,2.947937012,1,0,0,,,,,,,10.59008789,2.947937012,1,0,0,,0,140,140,91,1,
,,,,,,,,,,,,,FF,,,,,,,,1.4827,,,,,,,,,,,,,,,,,,,,,,60ff265ad0d04a091f893b0b,61036e8157a3bbbc40c70c13,2021-07-29_23h15.12.840,Simcolourproject_2stim_asymm_v5,2020.2.10,MacIntel,60,61025ae37ef11b136ea224fe,,,,,,,,,1227,57.90551758,-96.387146,1,0,0,response3disk,,4,-9.621276855,10.1618042,1,0,0,rectangle,-9.621276855,10.1618042,1,0,0,,,,,,,-9.621276855,10.1618042,1,0,0,,0,141,141,75,1,
,,,,,,,,,,,,,FF,,,,,,,,2.0158,,,,,,,,,,,,,,,,,,,,,,60ff265ad0d04a091f893b0b,61036e8157a3bbbc40c70c13,2021-07-29_23h15.12.840,Simcolourproject_2stim_asymm_v5,2020.2.10,MacIntel,60,61025ae37ef11b136ea224fe,,,,,,,,,3005,-102.3939819,-41.43759155,1,0,0,response5disk,,2,17.95635986,16.65045166,1,0,0,rectangle,17.95635986,16.65045166,1,0,0,,,,,,,17.95635986,16.65045166,1,0,0,,0,142,142,101,1,
,,,,,,,,,,,,,FF,,,,,,,,1.0171,,,,,,,,,,,,,,,,,,,,,,60ff265ad0d04a091f893b0b,61036e8157a3bbbc40c70c13,2021-07-29_23h15.12.840,Simcolourproject_2stim_asymm_v5,2020.2.10,MacIntel,60,61025ae37ef11b136ea224fe,,,,,,,,,722,-89.83837891,-37.4392395,1,0,0,response5disk,,2,-21.49157715,-16.66589355,1,0,0,rectangle,-21.49157715,-16.66589355,1,0,0,,,,,,,-21.49157715,-16.66589355,1,0,0,,0,143,143,3,1,
,,,,,,,,,,,,,FF,,,,,,,,0.7498,,,,,,,,,,,,,,,,,,,,,,60ff265ad0d04a091f893b0b,61036e8157a3bbbc40c70c13,2021-07-29_23h15.12.840,Simcolourproject_2stim_asymm_v5,2020.2.10,MacIntel,60,61025ae37ef11b136ea224fe,,,,,,,,,3411,33.42797852,66.31488037,1,0,0,response1disk,,7,4.399963379,7.266784668,1,0,0,rectangle,4.399963379,7.266784668,1,0,0,,,,,,,4.399963379,7.266784668,1,0,0,,0,144,144,27,1,
,,,,,,,,,,,,,FF,,,,,,,,0.8166,,,,,,,,,,,,,,,,,,,,,,60ff265ad0d04a091f893b0b,61036e8157a3bbbc40c70c13,2021-07-29_23h15.12.840,Simcolourproject_2stim_asymm_v5,2020.2.10,MacIntel,60,61025ae37ef11b136ea224fe,,,,,,,,,3165,28.43249512,59.69754028,1,0,0,response1disk,,7,11.8949585,8.836303711,1,0,0,rectangle,11.8949585,8.836303711,1,0,0,,,,,,,11.8949585,8.836303711,1,0,0,,0,145,145,123,1,
,,,,,,,,,,,,,FF,,,,,,,,0.9655,,,,,,,,,,,,,,,,,,,,,,60ff265ad0d04a091f893b0b,61036e8157a3bbbc40c70c13,2021-07-29_23h15.12.840,Simcolourproject_2stim_asymm_v5,2020.2.10,MacIntel,60,61025ae37ef11b136ea224fe,,,,,,,,,266,-27.36517334,-76.07836914,1,0,0,response5disk,,3,-11.13256836,-7.490905762,1,0,0,rectangle,-11.13256836,-7.490905762,1,0,0,,,,,,,-11.13256836,-7.490905762,1,0,0,,0,146,146,140,1,
,,,,,,,,,,,,,FF,,,,,,,,0.6828,,,,,,,,,,,,,,,,,,,,,,60ff265ad0d04a091f893b0b,61036e8157a3bbbc40c70c13,2021-07-29_23h15.12.840,Simcolourproject_2stim_asymm_v5,2020.2.10,MacIntel,60,61025ae37ef11b136ea224fe,,,,,,,,,4289,47.3168335,71.04815674,1,0,0,response1disk,,7,19.68859863,10.19509888,1,0,0,rectangle,19.68859863,10.19509888,1,0,0,,,,,,,19.68859863,10.19509888,1,0,0,,0,147,147,82,1,
,,,,,,,,,,,,,FF,,,,,,,,0.8666,,,,,,,,,,,,,,,,,,,,,,60ff265ad0d04a091f893b0b,61036e8157a3bbbc40c70c13,2021-07-29_23h15.12.840,Simcolourproject_2stim_asymm_v5,2020.2.10,MacIntel,60,61025ae37ef11b136ea224fe,,,,,,,,,618,-41.47991943,-91.81298828,1,0,0,response5disk,,3,0.244873047,6.42779541,1,0,0,rectangle,0.244873047,6.42779541,1,0,0,,,,,,,0.244873047,6.42779541,1,0,0,,0,148,148,90,1,
,,,,,,,,,,,,,FF,,,,,,,,0.7669,,,,,,,,,,,,,,,,,,,,,,60ff265ad0d04a091f893b0b,61036e8157a3bbbc40c70c13,2021-07-29_23h15.12.840,Simcolourproject_2stim_asymm_v5,2020.2.10,MacIntel,60,61025ae37ef11b136ea224fe,,,,,,,,,3539,21.19311523,73.0145874,1,0,0,response1disk,,7,-0.515563965,10.03103638,1,0,0,rectangle,-0.515563965,10.03103638,1,0,0,,,,,,,-0.515563965,10.03103638,1,0,0,,0,149,149,128,1,
,,,,,,,,,,,,,FF,,,,,,,,4.9335,,,,,,,,,,,,,,,,,,,,,,60ff265ad0d04a091f893b0b,61036e8157a3bbbc40c70c13,2021-07-29_23h15.12.840,Simcolourproject_2stim_asymm_v5,2020.2.10,MacIntel,60,61025ae37ef11b136ea224fe,,,,,,,,,327,31.39208984,64.83630371,1,0,0,response1disk,,7,-3.421875,3.1121521,1,0,0,rectangle,-3.421875,3.1121521,1,0,0,,,,,,,-3.421875,3.1121521,1,0,0,,0,150,150,48,1,
,,,,,,,,,,,,,FF,,,,,,,,1.5831,,,,,,,,,,,,,,,,,,,,,,60ff265ad0d04a091f893b0b,61036e8157a3bbbc40c70c13,2021-07-29_23h15.12.840,Simcolourproject_2stim_asymm_v5,2020.2.10,MacIntel,60,61025ae37ef11b136ea224fe,,,,,,,,,3839,85.74987793,-63.3548584,1,0,0,response3disk,,5,2.030883789,1.242889404,1,0,0,rectangle,2.030883789,1.242889404,1,0,0,,,,,,,2.030883789,1.242889404,1,0,0,,0,151,151,7,1,
,,,,,,,,,,,,,FF,,,,,,,,0.7494,,,,,,,,,,,,,,,,,,,,,,60ff265ad0d04a091f893b0b,61036e8157a3bbbc40c70c13,2021-07-29_23h15.12.840,Simcolourproject_2stim_asymm_v5,2020.2.10,MacIntel,60,61025ae37ef11b136ea224fe,,,,,,,,,1246,51.19287109,64.02655029,1,0,0,response1disk,,7,1.002685547,-0.240905762,1,0,0,rectangle,1.002685547,-0.240905762,1,0,0,,,,,,,1.002685547,-0.240905762,1,0,0,,0,152,152,83,1,
,,,,,,,,,,,,,FF,,,,,,,,1.434,,,,,,,,,,,,,,,,,,,,,,60ff265ad0d04a091f893b0b,61036e8157a3bbbc40c70c13,2021-07-29_23h15.12.840,Simcolourproject_2stim_asymm_v5,2020.2.10,MacIntel,60,61025ae37ef11b136ea224fe,,,,,,,,,438,-76.47137451,25.29986572,1,0,0,response7disk,,1,7.893554688,-3.00189209,1,0,0,rectangle,7.893554688,-3.00189209,1,0,0,,,,,,,7.893554688,-3.00189209,1,0,0,,0,153,153,20,1,
,,,,,,,,,,,,,FF,,,,,,,,1.9824,,,,,,,,,,,,,,,,,,,,,,60ff265ad0d04a091f893b0b,61036e8157a3bbbc40c70c13,2021-07-29_23h15.12.840,Simcolourproject_2stim_asymm_v5,2020.2.10,MacIntel,60,61025ae37ef11b136ea224fe,,,,,,,,,1193,102.3161011,-57.46136475,1,0,0,response3disk,,5,1.638061523,12.77648926,1,0,0,rectangle,1.638061523,12.77648926,1,0,0,,,,,,,1.638061523,12.77648926,1,0,0,,0,154,154,66,1,
,,,,,,,,,,,,,FF,,,,,,,,2.1666,,,,,,,,,,,,,,,,,,,,,,60ff265ad0d04a091f893b0b,61036e8157a3bbbc40c70c13,2021-07-29_23h15.12.840,Simcolourproject_2stim_asymm_v5,2020.2.10,MacIntel,60,61025ae37ef11b136ea224fe,,,,,,,,,2307,90.58721924,37.44760132,1,0,0,response1disk,,6,16.88330078,3.842529297,1,0,0,rectangle,16.88330078,3.842529297,1,0,0,,,,,,,16.88330078,3.842529297,1,0,0,,0,155,155,107,1,
,,,,,,,,,,,,,FF,,,,,,,,0.7169,,,,,,,,,,,,,,,,,,,,,,60ff265ad0d04a091f893b0b,61036e8157a3bbbc40c70c13,2021-07-29_23h15.12.840,Simcolourproject_2stim_asymm_v5,2020.2.10,MacIntel,60,61025ae37ef11b136ea224fe,,,,,,,,,3145,31.59515381,70.03396606,1,0,0,response1disk,,7,7.03326416,12.69888306,1,0,0,rectangle,7.03326416,12.69888306,1,0,0,,,,,,,7.03326416,12.69888306,1,0,0,,0,156,156,9,1,
,,,,,,,,,,,,,FF,,,,,,,,1.1007,,,,,,,,,,,,,,,,,,,,,,60ff265ad0d04a091f893b0b,61036e8157a3bbbc40c70c13,2021-07-29_23h15.12.840,Simcolourproject_2stim_asymm_v5,2020.2.10,MacIntel,60,61025ae37ef11b136ea224fe,,,,,,,,,3813,41.71166992,68.10043335,1,0,0,response1disk,,7,26.15722656,2.402069092,1,0,0,rectangle,26.15722656,2.402069092,1,0,0,,,,,,,26.15722656,2.402069092,1,0,0,,0,157,157,114,1,
,,,,,,,,,,,,,FF,,,,,,,,1.2169,,,,,,,,,,,,,,,,,,,,,,60ff265ad0d04a091f893b0b,61036e8157a3bbbc40c70c13,2021-07-29_23h15.12.840,Simcolourproject_2stim_asymm_v5,2020.2.10,MacIntel,60,61025ae37ef11b136ea224fe,,,,,,,,,2653,94.46612549,44.12365723,1,0,0,response1disk,,6,-3.251403809,1.277832031,1,0,0,rectangle,-3.251403809,1.277832031,1,0,0,,,,,,,-3.251403809,1.277832031,1,0,0,,0,158,158,100,1,
,,,,,,,,,,,,,FF,,,,,,,,1.7341,,,,,,,,,,,,,,,,,,,,,,60ff265ad0d04a091f893b0b,61036e8157a3bbbc40c70c13,2021-07-29_23h15.12.840,Simcolourproject_2stim_asymm_v5,2020.2.10,MacIntel,60,61025ae37ef11b136ea224fe,,,,,,,,,3687,35.32635498,62.12023926,1,0,0,response1disk,,7,9.03125,-1.612915039,1,0,0,rectangle,9.03125,-1.612915039,1,0,0,,,,,,,9.03125,-1.612915039,1,0,0,,0,159,159,131,1,
,,,,,,,,,,,,,FF,,,,,,,,2.9841,,,,,,,,,,,,,,,,,,,,,,60ff265ad0d04a091f893b0b,61036e8157a3bbbc40c70c13,2021-07-29_23h15.12.840,Simcolourproject_2stim_asymm_v5,2020.2.10,MacIntel,60,61025ae37ef11b136ea224fe,,,,,,,,,1513,86.7800293,-45.10662842,1,0,0,response3disk,,5,10.5802002,-7.981811523,1,0,0,rectangle,10.5802002,-7.981811523,1,0,0,,,,,,,10.5802002,-7.981811523,1,0,0,,1,0,160,66,1,
,,,,,,,,,,,,,FF,,,,,,,,1.2333,,,,,,,,,,,,,,,,,,,,,,60ff265ad0d04a091f893b0b,61036e8157a3bbbc40c70c13,2021-07-29_23h15.12.840,Simcolourproject_2stim_asymm_v5,2020.2.10,MacIntel,60,61025ae37ef11b136ea224fe,,,,,,,,,3265,63.04473877,76.24832153,1,0,0,response1disk,,7,9.200744629,10.1335144,1,0,0,rectangle,9.200744629,10.1335144,1,0,0,,,,,,,9.200744629,10.1335144,1,0,0,,1,1,161,22,1,
,,,,,,,,,,,,,FF,,,,,,,,1.2166,,,,,,,,,,,,,,,,,,,,,,60ff265ad0d04a091f893b0b,61036e8157a3bbbc40c70c13,2021-07-29_23h15.12.840,Simcolourproject_2stim_asymm_v5,2020.2.10,MacIntel,60,61025ae37ef11b136ea224fe,,,,,,,,,1190,43.55999756,-85.35803223,1,0,0,response3disk,,4,12.62799072,-15.86828613,1,0,0,rectangle,12.62799072,-15.86828613,1,0,0,,,,,,,12.62799072,-15.86828613,1,0,0,,1,2,162,127,1,
,,,,,,,,,,,,,FF,,,,,,,,2.6166,,,,,,,,,,,,,,,,,,,,,,60ff265ad0d04a091f893b0b,61036e8157a3bbbc40c70c13,2021-07-29_23h15.12.840,Simcolourproject_2stim_asymm_v5,2020.2.10,MacIntel,60,61025ae37ef11b136ea224fe,,,,,,,,,3972,-41.51672363,-92.73986816,1,0,0,response5disk,,3,3.141052246,0.873687744,1,0,0,rectangle,3.141052246,0.873687744,1,0,0,,,,,,,3.141052246,0.873687744,1,0,0,,1,3,163,135,1,
,,,,,,,,,,,,,FF,,,,,,,,1.2662,,,,,,,,,,,,,,,,,,,,,,60ff265ad0d04a091f893b0b,61036e8157a3bbbc40c70c13,2021-07-29_23h15.12.840,Simcolourproject_2stim_asymm_v5,2020.2.10,MacIntel,60,61025ae37ef11b136ea224fe,,,,,,,,,1695,102.6142578,32.69403076,1,0,0,response1disk,,6,10.52941895,8.673126221,1,0,0,rectangle,10.52941895,8.673126221,1,0,0,,,,,,,10.52941895,8.673126221,1,0,0,,1,4,164,35,1,
,,,,,,,,,,,,,FF,,,,,,,,1.3337,,,,,,,,,,,,,,,,,,,,,,60ff265ad0d04a091f893b0b,61036e8157a3bbbc40c70c13,2021-07-29_23h15.12.840,Simcolourproject_2stim_asymm_v5,2020.2.10,MacIntel,60,61025ae37ef11b136ea224fe,,,,,,,,,811,90.67419434,-53.59136963,1,0,0,response3disk,,5,-30.22003174,-8.222473145,1,0,0,rectangle,-30.22003174,-8.222473145,1,0,0,,,,,,,-30.22003174,-8.222473145,1,0,0,,1,5,165,86,1,
,,,,,,,,,,,,,FF,,,,,,,,0.9987,,,,,,,,,,,,,,,,,,,,,,60ff265ad0d04a091f893b0b,61036e8157a3bbbc40c70c13,2021-07-29_23h15.12.840,Simcolourproject_2stim_asymm_v5,2020.2.10,MacIntel,60,61025ae37ef11b136ea224fe,,,,,,,,,2819,21.63592529,93.42272949,1,0,0,response1disk,,7,-8.321899414,7.054321289,1,0,0,rectangle,-8.321899414,7.054321289,1,0,0,,,,,,,-8.321899414,7.054321289,1,0,0,,1,6,166,34,1,
,,,,,,,,,,,,,FF,,,,,,,,1.8183,,,,,,,,,,,,,,,,,,,,,,60ff265ad0d04a091f893b0b,61036e8157a3bbbc40c70c13,2021-07-29_23h15.12.840,Simcolourproject_2stim_asymm_v5,2020.2.10,MacIntel,60,61025ae37ef11b136ea224fe,,,,,,,,,160,121.9658813,52.80459595,1,0,0,response1disk,,6,25.88330078,10.51065063,1,0,0,rectangle,25.88330078,10.51065063,1,0,0,,,,,,,25.88330078,10.51065063,1,0,0,,1,7,167,65,1,
,,,,,,,,,,,,,FF,,,,,,,,0.9166,,,,,,,,,,,,,,,,,,,,,,60ff265ad0d04a091f893b0b,61036e8157a3bbbc40c70c13,2021-07-29_23h15.12.840,Simcolourproject_2stim_asymm_v5,2020.2.10,MacIntel,60,61025ae37ef11b136ea224fe,,,,,,,,,4067,48.18475342,92.29083252,1,0,0,response1disk,,7,-3.561584473,-12.45898438,1,0,0,rectangle,-3.561584473,-12.45898438,1,0,0,,,,,,,-3.561584473,-12.45898438,1,0,0,,1,8,168,56,1,
,,,,,,,,,,,,,FF,,,,,,,,0.9994,,,,,,,,,,,,,,,,,,,,,,60ff265ad0d04a091f893b0b,61036e8157a3bbbc40c70c13,2021-07-29_23h15.12.840,Simcolourproject_2stim_asymm_v5,2020.2.10,MacIntel,60,61025ae37ef11b136ea224fe,,,,,,,,,2221,47.48822021,88.55548096,1,0,0,response1disk,,7,11.38061523,1.077056885,1,0,0,rectangle,75.71990967,-30.89230347,1,0,0,response3disk_3,TRUE,5,5,"[8,76,67,1,234,23,270,52,170,7,244,76,307,318,129,308,55,321,53,207]",2.1329,-0.16619873,0.508087158,1,0,0,rectangle,1,9,169,139,1,
,,,,,,,,,,,,,FF,,,,,,,,1.6152,,,,,,,,,,,,,,,,,,,,,,60ff265ad0d04a091f893b0b,61036e8157a3bbbc40c70c13,2021-07-29_23h15.12.840,Simcolourproject_2stim_asymm_v5,2020.2.10,MacIntel,60,61025ae37ef11b136ea224fe,,,,,,,,,4191,48.79455566,96.42108154,1,0,0,response1disk,,7,6.650634766,-6.931213379,1,0,0,rectangle,6.650634766,-6.931213379,1,0,0,,,,,,,6.650634766,-6.931213379,1,0,0,,1,10,170,27,1,
,,,,,,,,,,,,,FF,,,,,,,,1.4339,,,,,,,,,,,,,,,,,,,,,,60ff265ad0d04a091f893b0b,61036e8157a3bbbc40c70c13,2021-07-29_23h15.12.840,Simcolourproject_2stim_asymm_v5,2020.2.10,MacIntel,60,61025ae37ef11b136ea224fe,,,,,,,,,14,90.45153809,-34.91693115,1,0,0,response3disk,,5,-3.476257324,10.28997803,1,0,0,rectangle,-3.476257324,10.28997803,1,0,0,,,,,,,-3.476257324,10.28997803,1,0,0,,1,11,171,132,1,
,,,,,,,,,,,,,FF,,,,,,,,0.849,,,,,,,,,,,,,,,,,,,,,,60ff265ad0d04a091f893b0b,61036e8157a3bbbc40c70c13,2021-07-29_23h15.12.840,Simcolourproject_2stim_asymm_v5,2020.2.10,MacIntel,60,61025ae37ef11b136ea224fe,,,,,,,,,4175,35.03765869,83.10122681,1,0,0,response1disk,,7,14.53533936,12.14587402,1,0,0,rectangle,14.53533936,12.14587402,1,0,0,,,,,,,14.53533936,12.14587402,1,0,0,,1,12,172,100,1,
,,,,,,,,,,,,,FF,,,,,,,,1.066,,,,,,,,,,,,,,,,,,,,,,60ff265ad0d04a091f893b0b,61036e8157a3bbbc40c70c13,2021-07-29_23h15.12.840,Simcolourproject_2stim_asymm_v5,2020.2.10,MacIntel,60,61025ae37ef11b136ea224fe,,,,,,,,,4186,81.25067139,24.059021,1,0,0,response1disk,,6,-4.291320801,-14.06634521,1,0,0,rectangle,-4.291320801,-14.06634521,1,0,0,,,,,,,-4.291320801,-14.06634521,1,0,0,,1,13,173,77,1,
,,,,,,,,,,,,,FF,,,,,,,,0.7683,,,,,,,,,,,,,,,,,,,,,,60ff265ad0d04a091f893b0b,61036e8157a3bbbc40c70c13,2021-07-29_23h15.12.840,Simcolourproject_2stim_asymm_v5,2020.2.10,MacIntel,60,61025ae37ef11b136ea224fe,,,,,,,,,127,31.87701416,65.70831299,1,0,0,response1disk,,7,5.767883301,8.739074707,1,0,0,rectangle,5.767883301,8.739074707,1,0,0,,,,,,,5.767883301,8.739074707,1,0,0,,1,14,174,76,1,
,,,,,,,,,,,,,FF,,,,,,,,0.8826,,,,,,,,,,,,,,,,,,,,,,60ff265ad0d04a091f893b0b,61036e8157a3bbbc40c70c13,2021-07-29_23h15.12.840,Simcolourproject_2stim_asymm_v5,2020.2.10,MacIntel,60,61025ae37ef11b136ea224fe,,,,,,,,,122,36.69232178,77.05023193,1,0,0,response1disk,,7,12.39135742,5.521118164,1,0,0,rectangle,12.39135742,5.521118164,1,0,0,,,,,,,12.39135742,5.521118164,1,0,0,,1,15,175,53,1,
,,,,,,,,,,,,,FF,,,,,,,,0.7839,,,,,,,,,,,,,,,,,,,,,,60ff265ad0d04a091f893b0b,61036e8157a3bbbc40c70c13,2021-07-29_23h15.12.840,Simcolourproject_2stim_asymm_v5,2020.2.10,MacIntel,60,61025ae37ef11b136ea224fe,,,,,,,,,4137,44.24786377,72.21188354,1,0,0,response1disk,,7,15.76000977,7.338867188,1,0,0,rectangle,15.76000977,7.338867188,1,0,0,,,,,,,15.76000977,7.338867188,1,0,0,,1,16,176,156,1,
,,,,,,,,,,,,,FF,,,,,,,,2.0343,,,,,,,,,,,,,,,,,,,,,,60ff265ad0d04a091f893b0b,61036e8157a3bbbc40c70c13,2021-07-29_23h15.12.840,Simcolourproject_2stim_asymm_v5,2020.2.10,MacIntel,60,61025ae37ef11b136ea224fe,,,,,,,,,2782,-54.44647217,-100.1897583,1,0,0,response5disk,,3,-8.495544434,-5.389678955,1,0,0,rectangle,-8.495544434,-5.389678955,1,0,0,,,,,,,-8.495544434,-5.389678955,1,0,0,,1,17,177,142,1,
,,,,,,,,,,,,,FF,,,,,,,,1.1658,,,,,,,,,,,,,,,,,,,,,,60ff265ad0d04a091f893b0b,61036e8157a3bbbc40c70c13,2021-07-29_23h15.12.840,Simcolourproject_2stim_asymm_v5,2020.2.10,MacIntel,60,61025ae37ef11b136ea224fe,,,,,,,,,730,57.01226807,-81.70495605,1,0,0,response3disk,,4,7.00567627,8.74420166,1,0,0,rectangle,7.00567627,8.74420166,1,0,0,,,,,,,7.00567627,8.74420166,1,0,0,,1,18,178,15,1,
,,,,,,,,,,,,,FF,,,,,,,,0.8827,,,,,,,,,,,,,,,,,,,,,,60ff265ad0d04a091f893b0b,61036e8157a3bbbc40c70c13,2021-07-29_23h15.12.840,Simcolourproject_2stim_asymm_v5,2020.2.10,MacIntel,60,61025ae37ef11b136ea224fe,,,,,,,,,2211,47.15881348,82.05465698,1,0,0,response1disk,,7,8.954772949,9.859771729,1,0,0,rectangle,8.954772949,9.859771729,1,0,0,,,,,,,8.954772949,9.859771729,1,0,0,,1,19,179,0,1,
,,,,,,,,,,,,,FF,,,,,,,,0.9507,,,,,,,,,,,,,,,,,,,,,,60ff265ad0d04a091f893b0b,61036e8157a3bbbc40c70c13,2021-07-29_23h15.12.840,Simcolourproject_2stim_asymm_v5,2020.2.10,MacIntel,60,61025ae37ef11b136ea224fe,,,,,,,,,194,-96.91601563,-49.03320313,1,0,0,response5disk,,2,-26.91729736,11.13555908,1,0,0,rectangle,-26.91729736,11.13555908,1,0,0,,,,,,,-26.91729736,11.13555908,1,0,0,,1,20,180,4,1,
,,,,,,,,,,,,,FF,,,,,,,,0.7166,,,,,,,,,,,,,,,,,,,,,,60ff265ad0d04a091f893b0b,61036e8157a3bbbc40c70c13,2021-07-29_23h15.12.840,Simcolourproject_2stim_asymm_v5,2020.2.10,MacIntel,60,61025ae37ef11b136ea224fe,,,,,,,,,674,42.95251465,88.38238525,1,0,0,response1disk,,7,14.0300293,11.60253906,1,0,0,rectangle,14.0300293,11.60253906,1,0,0,,,,,,,14.0300293,11.60253906,1,0,0,,1,21,181,102,1,
,,,,,,,,,,,,,FF,,,,,,,,1.0156,,,,,,,,,,,,,,,,,,,,,,60ff265ad0d04a091f893b0b,61036e8157a3bbbc40c70c13,2021-07-29_23h15.12.840,Simcolourproject_2stim_asymm_v5,2020.2.10,MacIntel,60,61025ae37ef11b136ea224fe,,,,,,,,,4220,-33.12432861,-63.14910889,1,0,0,response5disk,,3,-14.45874023,-12.57589722,1,0,0,rectangle,-14.45874023,-12.57589722,1,0,0,,,,,,,-14.45874023,-12.57589722,1,0,0,,1,22,182,82,1,
,,,,,,,,,,,,,FF,,,,,,,,0.8169,,,,,,,,,,,,,,,,,,,,,,60ff265ad0d04a091f893b0b,61036e8157a3bbbc40c70c13,2021-07-29_23h15.12.840,Simcolourproject_2stim_asymm_v5,2020.2.10,MacIntel,60,61025ae37ef11b136ea224fe,,,,,,,,,3017,55.22241211,108.8411865,1,0,0,response1disk,,7,7.422058105,-5.090393066,1,0,0,rectangle,7.422058105,-5.090393066,1,0,0,,,,,,,7.422058105,-5.090393066,1,0,0,,1,23,183,109,1,
,,,,,,,,,,,,,FF,,,,,,,,0.6839,,,,,,,,,,,,,,,,,,,,,,60ff265ad0d04a091f893b0b,61036e8157a3bbbc40c70c13,2021-07-29_23h15.12.840,Simcolourproject_2stim_asymm_v5,2020.2.10,MacIntel,60,61025ae37ef11b136ea224fe,,,,,,,,,363,35.95007324,71.43893433,1,0,0,response1disk,,7,7.149963379,-9.029541016,1,0,0,rectangle,7.149963379,-9.029541016,1,0,0,,,,,,,7.149963379,-9.029541016,1,0,0,,1,24,184,70,1,
,,,,,,,,,,,,,FF,,,,,,,,0.8504,,,,,,,,,,,,,,,,,,,,,,60ff265ad0d04a091f893b0b,61036e8157a3bbbc40c70c13,2021-07-29_23h15.12.840,Simcolourproject_2stim_asymm_v5,2020.2.10,MacIntel,60,61025ae37ef11b136ea224fe,,,,,,,,,118,52.40313721,96.85455322,1,0,0,response1disk,,7,11.6484375,-2.183441162,1,0,0,rectangle,11.6484375,-2.183441162,1,0,0,,,,,,,11.6484375,-2.183441162,1,0,0,,1,25,185,10,1,
,,,,,,,,,,,,,FF,,,,,,,,3.2335,,,,,,,,,,,,,,,,,,,,,,60ff265ad0d04a091f893b0b,61036e8157a3bbbc40c70c13,2021-07-29_23h15.12.840,Simcolourproject_2stim_asymm_v5,2020.2.10,MacIntel,60,61025ae37ef11b136ea224fe,,,,,,,,,2179,93.48797607,-45.45977783,1,0,0,response3disk,,5,14.96148682,3.563690186,1,0,0,rectangle,14.96148682,3.563690186,1,0,0,,,,,,,14.96148682,3.563690186,1,0,0,,1,26,186,39,1,
,,,,,,,,,,,,,FF,,,,,,,,1.3995,,,,,,,,,,,,,,,,,,,,,,60ff265ad0d04a091f893b0b,61036e8157a3bbbc40c70c13,2021-07-29_23h15.12.840,Simcolourproject_2stim_asymm_v5,2020.2.10,MacIntel,60,61025ae37ef11b136ea224fe,,,,,,,,,3012,83.33398438,-43.85894775,1,0,0,response3disk,,5,0.367797852,1.961425781,1,0,0,rectangle,0.367797852,1.961425781,1,0,0,,,,,,,0.367797852,1.961425781,1,0,0,,1,27,187,107,1,
,,,,,,,,,,,,,FF,,,,,,,,1.15,,,,,,,,,,,,,,,,,,,,,,60ff265ad0d04a091f893b0b,61036e8157a3bbbc40c70c13,2021-07-29_23h15.12.840,Simcolourproject_2stim_asymm_v5,2020.2.10,MacIntel,60,61025ae37ef11b136ea224fe,,,,,,,,,2246,94.83947754,28.10961914,1,0,0,response1disk,,6,20.21038818,4.557800293,1,0,0,rectangle,20.21038818,4.557800293,1,0,0,,,,,,,20.21038818,4.557800293,1,0,0,,1,28,188,41,1,
,,,,,,,,,,,,,FF,,,,,,,,1.8681,,,,,,,,,,,,,,,,,,,,,,60ff265ad0d04a091f893b0b,61036e8157a3bbbc40c70c13,2021-07-29_23h15.12.840,Simcolourproject_2stim_asymm_v5,2020.2.10,MacIntel,60,61025ae37ef11b136ea224fe,,,,,,,,,3464,99.10491943,51.91241455,1,0,0,response1disk,,6,-9.797546387,9.567321777,1,0,0,rectangle,-9.797546387,9.567321777,1,0,0,,,,,,,-9.797546387,9.567321777,1,0,0,,1,29,189,106,1,
,,,,,,,,,,,,,FF,,,,,,,,1.4658,,,,,,,,,,,,,,,,,,,,,,60ff265ad0d04a091f893b0b,61036e8157a3bbbc40c70c13,2021-07-29_23h15.12.840,Simcolourproject_2stim_asymm_v5,2020.2.10,MacIntel,60,61025ae37ef11b136ea224fe,,,,,,,,,614,89.31695557,-49.33203125,1,0,0,response3disk,,5,-1.204711914,6.005004883,1,0,0,rectangle,-1.204711914,6.005004883,1,0,0,,,,,,,-1.204711914,6.005004883,1,0,0,,1,30,190,108,1,
,,,,,,,,,,,,,FF,,,,,,,,1.6997,,,,,,,,,,,,,,,,,,,,,,60ff265ad0d04a091f893b0b,61036e8157a3bbbc40c70c13,2021-07-29_23h15.12.840,Simcolourproject_2stim_asymm_v5,2020.2.10,MacIntel,60,61025ae37ef11b136ea224fe,,,,,,,,,2258,95.91424561,38.32427979,1,0,0,response1disk,,6,4.198486328,8.357788086,1,0,0,rectangle,4.198486328,8.357788086,1,0,0,,,,,,,4.198486328,8.357788086,1,0,0,,1,31,191,54,1,
,,,,,,,,,,,,,FF,,,,,,,,1.1847,,,,,,,,,,,,,,,,,,,,,,60ff265ad0d04a091f893b0b,61036e8157a3bbbc40c70c13,2021-07-29_23h15.12.840,Simcolourproject_2stim_asymm_v5,2020.2.10,MacIntel,60,61025ae37ef11b136ea224fe,,,,,,,,,3050,-36.0335083,-84.03216553,1,0,0,response5disk,,3,5.214172363,-1.749755859,1,0,0,rectangle,5.214172363,-1.749755859,1,0,0,,,,,,,5.214172363,-1.749755859,1,0,0,,1,32,192,122,1,
,,,,,,,,,,,,,FF,,,,,,,,0.8171,,,,,,,,,,,,,,,,,,,,,,60ff265ad0d04a091f893b0b,61036e8157a3bbbc40c70c13,2021-07-29_23h15.12.840,Simcolourproject_2stim_asymm_v5,2020.2.10,MacIntel,60,61025ae37ef11b136ea224fe,,,,,,,,,1287,31.24078369,58.55957031,1,0,0,response1disk,,7,-5.214233398,3.906158447,1,0,0,rectangle,-5.214233398,3.906158447,1,0,0,,,,,,,-5.214233398,3.906158447,1,0,0,,1,33,193,79,1,
,,,,,,,,,,,,,FF,,,,,,,,4.7165,,,,,,,,,,,,,,,,,,,,,,60ff265ad0d04a091f893b0b,61036e8157a3bbbc40c70c13,2021-07-29_23h15.12.840,Simcolourproject_2stim_asymm_v5,2020.2.10,MacIntel,60,61025ae37ef11b136ea224fe,,,,,,,,,1798,36.32373047,66.43518066,1,0,0,response1disk,,7,6.902526855,-9.772918701,1,0,0,rectangle,6.902526855,-9.772918701,1,0,0,,,,,,,6.902526855,-9.772918701,1,0,0,,1,34,194,154,1,
,,,,,,,,,,,,,FF,,,,,,,,1.3158,,,,,,,,,,,,,,,,,,,,,,60ff265ad0d04a091f893b0b,61036e8157a3bbbc40c70c13,2021-07-29_23h15.12.840,Simcolourproject_2stim_asymm_v5,2020.2.10,MacIntel,60,61025ae37ef11b136ea224fe,,,,,,,,,3663,-27.02362061,-93.02581787,1,0,0,response5disk,,3,22.88562012,-5.51171875,1,0,0,rectangle,22.88562012,-5.51171875,1,0,0,,,,,,,22.88562012,-5.51171875,1,0,0,,1,35,195,46,1,
,,,,,,,,,,,,,FF,,,,,,,,2.3,,,,,,,,,,,,,,,,,,,,,,60ff265ad0d04a091f893b0b,61036e8157a3bbbc40c70c13,2021-07-29_23h15.12.840,Simcolourproject_2stim_asymm_v5,2020.2.10,MacIntel,60,61025ae37ef11b136ea224fe,,,,,,,,,1233,96.07641602,44.15280151,1,0,0,response1disk,,6,10.08502197,-2.517333984,1,0,0,rectangle,10.08502197,-2.517333984,1,0,0,,,,,,,10.08502197,-2.517333984,1,0,0,,1,36,196,13,1,
,,,,,,,,,,,,,FF,,,,,,,,0.7168,,,,,,,,,,,,,,,,,,,,,,60ff265ad0d04a091f893b0b,61036e8157a3bbbc40c70c13,2021-07-29_23h15.12.840,Simcolourproject_2stim_asymm_v5,2020.2.10,MacIntel,60,61025ae37ef11b136ea224fe,,,,,,,,,2328,21.58251953,57.15820313,1,0,0,response1disk,,7,-8.270507813,-2.708557129,1,0,0,rectangle,-8.270507813,-2.708557129,1,0,0,,,,,,,-8.270507813,-2.708557129,1,0,0,,1,37,197,98,1,
,,,,,,,,,,,,,FF,,,,,,,,2.0337,,,,,,,,,,,,,,,,,,,,,,60ff265ad0d04a091f893b0b,61036e8157a3bbbc40c70c13,2021-07-29_23h15.12.840,Simcolourproject_2stim_asymm_v5,2020.2.10,MacIntel,60,61025ae37ef11b136ea224fe,,,,,,,,,3141,98.6305542,-64.65869141,1,0,0,response3disk,,5,-6.986938477,9.000488281,1,0,0,rectangle,-6.986938477,9.000488281,1,0,0,,,,,,,-6.986938477,9.000488281,1,0,0,,1,38,198,158,1,
,,,,,,,,,,,,,FF,,,,,,,,1.151,,,,,,,,,,,,,,,,,,,,,,60ff265ad0d04a091f893b0b,61036e8157a3bbbc40c70c13,2021-07-29_23h15.12.840,Simcolourproject_2stim_asymm_v5,2020.2.10,MacIntel,60,61025ae37ef11b136ea224fe,,,,,,,,,3553,-60.01696777,-85.88342285,1,0,0,response5disk,,3,7.207824707,0.18359375,1,0,0,rectangle,7.207824707,0.18359375,1,0,0,,,,,,,7.207824707,0.18359375,1,0,0,,1,39,199,152,1,
,,,,,,,,,,,,,FF,,,,,,,,0.8819,,,,,,,,,,,,,,,,,,,,,,60ff265ad0d04a091f893b0b,61036e8157a3bbbc40c70c13,2021-07-29_23h15.12.840,Simcolourproject_2stim_asymm_v5,2020.2.10,MacIntel,60,61025ae37ef11b136ea224fe,,,,,,,,,2127,35.11090088,73.26797485,1,0,0,response1disk,,7,19.42053223,-1.951293945,1,0,0,rectangle,19.42053223,-1.951293945,1,0,0,,,,,,,19.42053223,-1.951293945,1,0,0,,1,40,200,43,1,
,,,,,,,,,,,,,FF,,,,,,,,1.0322,,,,,,,,,,,,,,,,,,,,,,60ff265ad0d04a091f893b0b,61036e8157a3bbbc40c70c13,2021-07-29_23h15.12.840,Simcolourproject_2stim_asymm_v5,2020.2.10,MacIntel,60,61025ae37ef11b136ea224fe,,,,,,,,,254,34.27972412,-73.3638916,1,0,0,response3disk,,4,9.083374023,-10.08618164,1,0,0,rectangle,9.083374023,-10.08618164,1,0,0,,,,,,,9.083374023,-10.08618164,1,0,0,,1,41,201,47,1,
,,,,,,,,,,,,,FF,,,,,,,,0.7152,,,,,,,,,,,,,,,,,,,,,,60ff265ad0d04a091f893b0b,61036e8157a3bbbc40c70c13,2021-07-29_23h15.12.840,Simcolourproject_2stim_asymm_v5,2020.2.10,MacIntel,60,61025ae37ef11b136ea224fe,,,,,,,,,2159,32.63116455,81.53912354,1,0,0,response1disk,,7,1.389953613,6.084594727,1,0,0,rectangle,1.389953613,6.084594727,1,0,0,,,,,,,1.389953613,6.084594727,1,0,0,,1,42,202,30,1,
,,,,,,,,,,,,,FF,,,,,,,,0.9001,,,,,,,,,,,,,,,,,,,,,,60ff265ad0d04a091f893b0b,61036e8157a3bbbc40c70c13,2021-07-29_23h15.12.840,Simcolourproject_2stim_asymm_v5,2020.2.10,MacIntel,60,61025ae37ef11b136ea224fe,,,,,,,,,1493,27.20275879,79.39871216,1,0,0,response1disk,,7,12.31445313,1.290374756,1,0,0,rectangle,12.31445313,1.290374756,1,0,0,,,,,,,12.31445313,1.290374756,1,0,0,,1,43,203,44,1,
,,,,,,,,,,,,,FF,,,,,,,,0.7008,,,,,,,,,,,,,,,,,,,,,,60ff265ad0d04a091f893b0b,61036e8157a3bbbc40c70c13,2021-07-29_23h15.12.840,Simcolourproject_2stim_asymm_v5,2020.2.10,MacIntel,60,61025ae37ef11b136ea224fe,,,,,,,,,2510,40.09051514,58.41674805,1,0,0,response1disk,,7,23.41784668,-5.022705078,1,0,0,rectangle,23.41784668,-5.022705078,1,0,0,,,,,,,23.41784668,-5.022705078,1,0,0,,1,44,204,92,1,
,,,,,,,,,,,,,FF,,,,,,,,1.0995,,,,,,,,,,,,,,,,,,,,,,60ff265ad0d04a091f893b0b,61036e8157a3bbbc40c70c13,2021-07-29_23h15.12.840,Simcolourproject_2stim_asymm_v5,2020.2.10,MacIntel,60,61025ae37ef11b136ea224fe,,,,,,,,,2569,35.01464844,65.34411621,1,0,0,response1disk,,7,16.8885498,-2.299743652,1,0,0,rectangle,16.8885498,-2.299743652,1,0,0,,,,,,,16.8885498,-2.299743652,1,0,0,,1,45,205,131,1,
,,,,,,,,,,,,,FF,,,,,,,,1.5002,,,,,,,,,,,,,,,,,,,,,,60ff265ad0d04a091f893b0b,61036e8157a3bbbc40c70c13,2021-07-29_23h15.12.840,Simcolourproject_2stim_asymm_v5,2020.2.10,MacIntel,60,61025ae37ef11b136ea224fe,,,,,,,,,605,96.28521729,45.80462646,1,0,0,response1disk,,6,3.251037598,-5.842712402,1,0,0,rectangle,89.29541016,-38.56610107,1,0,0,response3disk_3,TRUE,5,5,"[8,76,67,1,234,23,270,52,170,7,244,76,307,318,129,308,55,321,53,207]",5.8825,-10.06793213,3.73840332,1,0,0,rectangle,1,46,206,74,1,
,,,,,,,,,,,,,FF,,,,,,,,0.8672,,,,,,,,,,,,,,,,,,,,,,60ff265ad0d04a091f893b0b,61036e8157a3bbbc40c70c13,2021-07-29_23h15.12.840,Simcolourproject_2stim_asymm_v5,2020.2.10,MacIntel,60,61025ae37ef11b136ea224fe,,,,,,,,,1410,46.25079346,91.06210327,1,0,0,response1disk,,7,-3.656860352,-6.588806152,1,0,0,rectangle,-3.656860352,-6.588806152,1,0,0,,,,,,,-3.656860352,-6.588806152,1,0,0,,1,47,207,91,1,
,,,,,,,,,,,,,FF,,,,,,,,1.0004,,,,,,,,,,,,,,,,,,,,,,60ff265ad0d04a091f893b0b,61036e8157a3bbbc40c70c13,2021-07-29_23h15.12.840,Simcolourproject_2stim_asymm_v5,2020.2.10,MacIntel,60,61025ae37ef11b136ea224fe,,,,,,,,,426,93.70666504,27.07131958,1,0,0,response1disk,,6,13.37872314,7.819366455,1,0,0,rectangle,13.37872314,7.819366455,1,0,0,,,,,,,13.37872314,7.819366455,1,0,0,,1,48,208,83,1,
,,,,,,,,,,,,,FF,,,,,,,,1.1169,,,,,,,,,,,,,,,,,,,,,,60ff265ad0d04a091f893b0b,61036e8157a3bbbc40c70c13,2021-07-29_23h15.12.840,Simcolourproject_2stim_asymm_v5,2020.2.10,MacIntel,60,61025ae37ef11b136ea224fe,,,,,,,,,3064,89.84625244,36.17224121,1,0,0,response1disk,,6,9.004455566,-0.346221924,1,0,0,rectangle,9.004455566,-0.346221924,1,0,0,,,,,,,9.004455566,-0.346221924,1,0,0,,1,49,209,51,1,
,,,,,,,,,,,,,FF,,,,,,,,0.8001,,,,,,,,,,,,,,,,,,,,,,60ff265ad0d04a091f893b0b,61036e8157a3bbbc40c70c13,2021-07-29_23h15.12.840,Simcolourproject_2stim_asymm_v5,2020.2.10,MacIntel,60,61025ae37ef11b136ea224fe,,,,,,,,,1480,42.91436768,84.50894165,1,0,0,response1disk,,7,10.56848145,5.664367676,1,0,0,rectangle,10.56848145,5.664367676,1,0,0,,,,,,,10.56848145,5.664367676,1,0,0,,1,50,210,16,1,
,,,,,,,,,,,,,FF,,,,,,,,0.9336,,,,,,,,,,,,,,,,,,,,,,60ff265ad0d04a091f893b0b,61036e8157a3bbbc40c70c13,2021-07-29_23h15.12.840,Simcolourproject_2stim_asymm_v5,2020.2.10,MacIntel,60,61025ae37ef11b136ea224fe,,,,,,,,,2983,46.45599365,68.95169067,1,0,0,response1disk,,7,9.58770752,-5.328094482,1,0,0,rectangle,9.58770752,-5.328094482,1,0,0,,,,,,,9.58770752,-5.328094482,1,0,0,,1,51,211,143,1,
,,,,,,,,,,,,,FF,,,,,,,,0.7849,,,,,,,,,,,,,,,,,,,,,,60ff265ad0d04a091f893b0b,61036e8157a3bbbc40c70c13,2021-07-29_23h15.12.840,Simcolourproject_2stim_asymm_v5,2020.2.10,MacIntel,60,61025ae37ef11b136ea224fe,,,,,,,,,3487,36.23742676,67.55957031,1,0,0,response1disk,,7,1.944885254,1.61151123,1,0,0,rectangle,1.944885254,1.61151123,1,0,0,,,,,,,1.944885254,1.61151123,1,0,0,,1,52,212,95,1,
,,,,,,,,,,,,,FF,,,,,,,,0.7833,,,,,,,,,,,,,,,,,,,,,,60ff265ad0d04a091f893b0b,61036e8157a3bbbc40c70c13,2021-07-29_23h15.12.840,Simcolourproject_2stim_asymm_v5,2020.2.10,MacIntel,60,61025ae37ef11b136ea224fe,,,,,,,,,1945,24.91638184,53.36730957,1,0,0,response1disk,,7,0.340881348,-2.863769531,1,0,0,rectangle,0.340881348,-2.863769531,1,0,0,,,,,,,0.340881348,-2.863769531,1,0,0,,1,53,213,58,1,
,,,,,,,,,,,,,FF,,,,,,,,0.7999,,,,,,,,,,,,,,,,,,,,,,60ff265ad0d04a091f893b0b,61036e8157a3bbbc40c70c13,2021-07-29_23h15.12.840,Simcolourproject_2stim_asymm_v5,2020.2.10,MacIntel,60,61025ae37ef11b136ea224fe,,,,,,,,,3035,46.6539917,64.30908203,1,0,0,response1disk,,7,10.59423828,5.92980957,1,0,0,rectangle,10.59423828,5.92980957,1,0,0,,,,,,,10.59423828,5.92980957,1,0,0,,1,54,214,26,1,
,,,,,,,,,,,,,FF,,,,,,,,0.7497,,,,,,,,,,,,,,,,,,,,,,60ff265ad0d04a091f893b0b,61036e8157a3bbbc40c70c13,2021-07-29_23h15.12.840,Simcolourproject_2stim_asymm_v5,2020.2.10,MacIntel,60,61025ae37ef11b136ea224fe,,,,,,,,,1494,28.92980957,55.26934814,1,0,0,response1disk,,7,15.47149658,13.63415527,1,0,0,rectangle,15.47149658,13.63415527,1,0,0,,,,,,,15.47149658,13.63415527,1,0,0,,1,55,215,49,1,
,,,,,,,,,,,,,FF,,,,,,,,1.9662,,,,,,,,,,,,,,,,,,,,,,60ff265ad0d04a091f893b0b,61036e8157a3bbbc40c70c13,2021-07-29_23h15.12.840,Simcolourproject_2stim_asymm_v5,2020.2.10,MacIntel,60,61025ae37ef11b136ea224fe,,,,,,,,,3683,107.7391968,46.45495605,1,0,0,response1disk,,6,12.38977051,10.96295166,1,0,0,rectangle,12.38977051,10.96295166,1,0,0,,,,,,,12.38977051,10.96295166,1,0,0,,1,56,216,118,1,
,,,,,,,,,,,,,FF,,,,,,,,1.4672,,,,,,,,,,,,,,,,,,,,,,60ff265ad0d04a091f893b0b,61036e8157a3bbbc40c70c13,2021-07-29_23h15.12.840,Simcolourproject_2stim_asymm_v5,2020.2.10,MacIntel,60,61025ae37ef11b136ea224fe,,,,,,,,,1650,31.92272949,89.34448242,1,0,0,response1disk,,7,6.086669922,12.01824951,1,0,0,rectangle,6.086669922,12.01824951,1,0,0,,,,,,,6.086669922,12.01824951,1,0,0,,1,57,217,60,1,
,,,,,,,,,,,,,FF,,,,,,,,0.6172,,,,,,,,,,,,,,,,,,,,,,60ff265ad0d04a091f893b0b,61036e8157a3bbbc40c70c13,2021-07-29_23h15.12.840,Simcolourproject_2stim_asymm_v5,2020.2.10,MacIntel,60,61025ae37ef11b136ea224fe,,,,,,,,,1648,37.409729,61.58786011,1,0,0,response1disk,,7,-3.070495605,-1.21661377,1,0,0,rectangle,-3.070495605,-1.21661377,1,0,0,,,,,,,-3.070495605,-1.21661377,1,0,0,,1,58,218,151,1,
,,,,,,,,,,,,,FF,,,,,,,,0.8332,,,,,,,,,,,,,,,,,,,,,,60ff265ad0d04a091f893b0b,61036e8157a3bbbc40c70c13,2021-07-29_23h15.12.840,Simcolourproject_2stim_asymm_v5,2020.2.10,MacIntel,60,61025ae37ef11b136ea224fe,,,,,,,,,1861,52.09552002,82.46942139,1,0,0,response1disk,,7,12.79974365,1.323364258,1,0,0,rectangle,12.79974365,1.323364258,1,0,0,,,,,,,12.79974365,1.323364258,1,0,0,,1,59,219,124,1,
,,,,,,,,,,,,,FF,,,,,,,,1.5331,,,,,,,,,,,,,,,,,,,,,,60ff265ad0d04a091f893b0b,61036e8157a3bbbc40c70c13,2021-07-29_23h15.12.840,Simcolourproject_2stim_asymm_v5,2020.2.10,MacIntel,60,61025ae37ef11b136ea224fe,,,,,,,,,3187,32.69067383,-107.8081665,1,0,0,response3disk,,4,3.681030273,1.48626709,1,0,0,rectangle,3.681030273,1.48626709,1,0,0,,,,,,,3.681030273,1.48626709,1,0,0,,1,60,220,133,1,
,,,,,,,,,,,,,FF,,,,,,,,1.167,,,,,,,,,,,,,,,,,,,,,,60ff265ad0d04a091f893b0b,61036e8157a3bbbc40c70c13,2021-07-29_23h15.12.840,Simcolourproject_2stim_asymm_v5,2020.2.10,MacIntel,60,61025ae37ef11b136ea224fe,,,,,,,,,906,50.5927124,-82.05725098,1,0,0,response3disk,,4,-2.191955566,6.580322266,1,0,0,rectangle,-2.191955566,6.580322266,1,0,0,,,,,,,-2.191955566,6.580322266,1,0,0,,1,61,221,89,1,
,,,,,,,,,,,,,FF,,,,,,,,1.15,,,,,,,,,,,,,,,,,,,,,,60ff265ad0d04a091f893b0b,61036e8157a3bbbc40c70c13,2021-07-29_23h15.12.840,Simcolourproject_2stim_asymm_v5,2020.2.10,MacIntel,60,61025ae37ef11b136ea224fe,,,,,,,,,3061,104.8043823,-30.1854248,1,0,0,response3disk,,5,-6.583862305,9.411651611,1,0,0,rectangle,-6.583862305,9.411651611,1,0,0,,,,,,,-6.583862305,9.411651611,1,0,0,,1,62,222,5,1,
,,,,,,,,,,,,,FF,,,,,,,,2.0325,,,,,,,,,,,,,,,,,,,,,,60ff265ad0d04a091f893b0b,61036e8157a3bbbc40c70c13,2021-07-29_23h15.12.840,Simcolourproject_2stim_asymm_v5,2020.2.10,MacIntel,60,61025ae37ef11b136ea224fe,,,,,,,,,261,-92.89013672,35.14678955,1,0,0,response7disk,,1,17.35058594,-3.484619141,1,0,0,rectangle,17.35058594,-3.484619141,1,0,0,,,,,,,17.35058594,-3.484619141,1,0,0,,1,63,223,23,1,
,,,,,,,,,,,,,FF,,,,,,,,1.0177,,,,,,,,,,,,,,,,,,,,,,60ff265ad0d04a091f893b0b,61036e8157a3bbbc40c70c13,2021-07-29_23h15.12.840,Simcolourproject_2stim_asymm_v5,2020.2.10,MacIntel,60,61025ae37ef11b136ea224fe,,,,,,,,,91,58.61517334,67.3850708,1,0,0,response1disk,,7,11.32006836,1.962860107,1,0,0,rectangle,11.32006836,1.962860107,1,0,0,,,,,,,11.32006836,1.962860107,1,0,0,,1,64,224,6,1,
,,,,,,,,,,,,,FF,,,,,,,,1.0338,,,,,,,,,,,,,,,,,,,,,,60ff265ad0d04a091f893b0b,61036e8157a3bbbc40c70c13,2021-07-29_23h15.12.840,Simcolourproject_2stim_asymm_v5,2020.2.10,MacIntel,60,61025ae37ef11b136ea224fe,,,,,,,,,3593,98.37634277,35.39071655,1,0,0,response1disk,,6,-5.561523438,-7.003631592,1,0,0,rectangle,-5.561523438,-7.003631592,1,0,0,,,,,,,-5.561523438,-7.003631592,1,0,0,,1,65,225,8,1,
,,,,,,,,,,,,,FF,,,,,,,,0.7012,,,,,,,,,,,,,,,,,,,,,,60ff265ad0d04a091f893b0b,61036e8157a3bbbc40c70c13,2021-07-29_23h15.12.840,Simcolourproject_2stim_asymm_v5,2020.2.10,MacIntel,60,61025ae37ef11b136ea224fe,,,,,,,,,3311,30.74688721,67.05474854,1,0,0,response1disk,,7,13.63342285,2.584747314,1,0,0,rectangle,13.63342285,2.584747314,1,0,0,,,,,,,13.63342285,2.584747314,1,0,0,,1,66,226,29,1,
,,,,,,,,,,,,,FF,,,,,,,,0.8833,,,,,,,,,,,,,,,,,,,,,,60ff265ad0d04a091f893b0b,61036e8157a3bbbc40c70c13,2021-07-29_23h15.12.840,Simcolourproject_2stim_asymm_v5,2020.2.10,MacIntel,60,61025ae37ef11b136ea224fe,,,,,,,,,661,42.04864502,91.41912842,1,0,0,response1disk,,7,-2.510620117,2.300689697,1,0,0,rectangle,-2.510620117,2.300689697,1,0,0,,,,,,,-2.510620117,2.300689697,1,0,0,,1,67,227,7,1,
,,,,,,,,,,,,,FF,,,,,,,,2.3664,,,,,,,,,,,,,,,,,,,,,,60ff265ad0d04a091f893b0b,61036e8157a3bbbc40c70c13,2021-07-29_23h15.12.840,Simcolourproject_2stim_asymm_v5,2020.2.10,MacIntel,60,61025ae37ef11b136ea224fe,,,,,,,,,2488,96.68426514,45.43222046,1,0,0,response1disk,,6,2.793640137,2.274414063,1,0,0,rectangle,2.793640137,2.274414063,1,0,0,,,,,,,2.793640137,2.274414063,1,0,0,,1,68,228,68,1,
,,,,,,,,,,,,,FF,,,,,,,,0.6334,,,,,,,,,,,,,,,,,,,,,,60ff265ad0d04a091f893b0b,61036e8157a3bbbc40c70c13,2021-07-29_23h15.12.840,Simcolourproject_2stim_asymm_v5,2020.2.10,MacIntel,60,61025ae37ef11b136ea224fe,,,,,,,,,1077,22.8371582,63.79904175,1,0,0,response1disk,,7,8.912597656,-11.77355957,1,0,0,rectangle,8.912597656,-11.77355957,1,0,0,,,,,,,8.912597656,-11.77355957,1,0,0,,1,69,229,144,1,
,,,,,,,,,,,,,FF,,,,,,,,1.2996,,,,,,,,,,,,,,,,,,,,,,60ff265ad0d04a091f893b0b,61036e8157a3bbbc40c70c13,2021-07-29_23h15.12.840,Simcolourproject_2stim_asymm_v5,2020.2.10,MacIntel,60,61025ae37ef11b136ea224fe,,,,,,,,,2427,91.47381592,46.93902588,1,0,0,response1disk,,6,8.995056152,2.305664063,1,0,0,rectangle,8.995056152,2.305664063,1,0,0,,,,,,,8.995056152,2.305664063,1,0,0,,1,70,230,87,1,
,,,,,,,,,,,,,FF,,,,,,,,1.0833,,,,,,,,,,,,,,,,,,,,,,60ff265ad0d04a091f893b0b,61036e8157a3bbbc40c70c13,2021-07-29_23h15.12.840,Simcolourproject_2stim_asymm_v5,2020.2.10,MacIntel,60,61025ae37ef11b136ea224fe,,,,,,,,,437,-25.46948242,-62.25305176,1,0,0,response5disk,,3,-8.223388672,8.015686035,1,0,0,rectangle,-8.223388672,8.015686035,1,0,0,,,,,,,-8.223388672,8.015686035,1,0,0,,1,71,231,105,1,
,,,,,,,,,,,,,FF,,,,,,,,0.6166,,,,,,,,,,,,,,,,,,,,,,60ff265ad0d04a091f893b0b,61036e8157a3bbbc40c70c13,2021-07-29_23h15.12.840,Simcolourproject_2stim_asymm_v5,2020.2.10,MacIntel,60,61025ae37ef11b136ea224fe,,,,,,,,,754,34.88452148,70.33105469,1,0,0,response1disk,,7,10.93444824,-3.531433105,1,0,0,rectangle,10.93444824,-3.531433105,1,0,0,,,,,,,10.93444824,-3.531433105,1,0,0,,1,72,232,147,1,
,,,,,,,,,,,,,FF,,,,,,,,0.7504,,,,,,,,,,,,,,,,,,,,,,60ff265ad0d04a091f893b0b,61036e8157a3bbbc40c70c13,2021-07-29_23h15.12.840,Simcolourproject_2stim_asymm_v5,2020.2.10,MacIntel,60,61025ae37ef11b136ea224fe,,,,,,,,,3879,30.91040039,63.90414429,1,0,0,response1disk,,7,14.38110352,2.105773926,1,0,0,rectangle,-100.6083984,20.66729736,1,0,0,response7disk_3,TRUE,1,1,"[8,76,67,1,234,23,270,52,170,7,244,76,307,318,129,308,55,321,53,207]",1.6829,9.250305176,-1.599487305,1,0,0,rectangle,1,73,233,157,1,
,,,,,,,,,,,,,FF,,,,,,,,1.1673,,,,,,,,,,,,,,,,,,,,,,60ff265ad0d04a091f893b0b,61036e8157a3bbbc40c70c13,2021-07-29_23h15.12.840,Simcolourproject_2stim_asymm_v5,2020.2.10,MacIntel,60,61025ae37ef11b136ea224fe,,,,,,,,,368,-80.0480957,-30.03955078,1,0,0,response5disk,,2,3.028137207,2.126190186,1,0,0,rectangle,3.028137207,2.126190186,1,0,0,,,,,,,3.028137207,2.126190186,1,0,0,,1,74,234,20,1,
,,,,,,,,,,,,,FF,,,,,,,,1.4829,,,,,,,,,,,,,,,,,,,,,,60ff265ad0d04a091f893b0b,61036e8157a3bbbc40c70c13,2021-07-29_23h15.12.840,Simcolourproject_2stim_asymm_v5,2020.2.10,MacIntel,60,61025ae37ef11b136ea224fe,,,,,,,,,718,-80.59484863,41.09918213,1,0,0,response7disk,,1,9.341796875,-1.5703125,1,0,0,rectangle,9.341796875,-1.5703125,1,0,0,,,,,,,9.341796875,-1.5703125,1,0,0,,1,75,235,136,1,
,,,,,,,,,,,,,FF,,,,,,,,0.6502,,,,,,,,,,,,,,,,,,,,,,60ff265ad0d04a091f893b0b,61036e8157a3bbbc40c70c13,2021-07-29_23h15.12.840,Simcolourproject_2stim_asymm_v5,2020.2.10,MacIntel,60,61025ae37ef11b136ea224fe,,,,,,,,,2580,45.72564697,67.059021,1,0,0,response1disk,,7,13.06481934,3.049255371,1,0,0,rectangle,13.06481934,3.049255371,1,0,0,,,,,,,13.06481934,3.049255371,1,0,0,,1,76,236,14,1,
,,,,,,,,,,,,,FF,,,,,,,,0.5993,,,,,,,,,,,,,,,,,,,,,,60ff265ad0d04a091f893b0b,61036e8157a3bbbc40c70c13,2021-07-29_23h15.12.840,Simcolourproject_2stim_asymm_v5,2020.2.10,MacIntel,60,61025ae37ef11b136ea224fe,,,,,,,,,2013,36.09503174,74.24127197,1,0,0,response1disk,,7,1.833557129,7.918945313,1,0,0,rectangle,1.833557129,7.918945313,1,0,0,,,,,,,1.833557129,7.918945313,1,0,0,,1,77,237,93,1,
,,,,,,,,,,,,,FF,,,,,,,,1.0498,,,,,,,,,,,,,,,,,,,,,,60ff265ad0d04a091f893b0b,61036e8157a3bbbc40c70c13,2021-07-29_23h15.12.840,Simcolourproject_2stim_asymm_v5,2020.2.10,MacIntel,60,61025ae37ef11b136ea224fe,,,,,,,,,2121,80.059021,32.76831055,1,0,0,response1disk,,6,6.016967773,6.363037109,1,0,0,rectangle,6.016967773,6.363037109,1,0,0,,,,,,,6.016967773,6.363037109,1,0,0,,1,78,238,137,1,
,,,,,,,,,,,,,FF,,,,,,,,1.0329,,,,,,,,,,,,,,,,,,,,,,60ff265ad0d04a091f893b0b,61036e8157a3bbbc40c70c13,2021-07-29_23h15.12.840,Simcolourproject_2stim_asymm_v5,2020.2.10,MacIntel,60,61025ae37ef11b136ea224fe,,,,,,,,,2671,102.6184082,-65.47259521,1,0,0,response3disk,,5,-7.720336914,8.08001709,1,0,0,rectangle,-7.720336914,8.08001709,1,0,0,,,,,,,-7.720336914,8.08001709,1,0,0,,1,79,239,67,1,
,,,,,,,,,,,,,FF,,,,,,,,0.9162,,,,,,,,,,,,,,,,,,,,,,60ff265ad0d04a091f893b0b,61036e8157a3bbbc40c70c13,2021-07-29_23h15.12.840,Simcolourproject_2stim_asymm_v5,2020.2.10,MacIntel,60,61025ae37ef11b136ea224fe,,,,,,,,,3973,47.80639648,-67.55566406,1,0,0,response3disk,,4,3.513977051,0.617248535,1,0,0,rectangle,3.513977051,0.617248535,1,0,0,,,,,,,3.513977051,0.617248535,1,0,0,,1,80,240,120,1,
,,,,,,,,,,,,,FF,,,,,,,,0.7334,,,,,,,,,,,,,,,,,,,,,,60ff265ad0d04a091f893b0b,61036e8157a3bbbc40c70c13,2021-07-29_23h15.12.840,Simcolourproject_2stim_asymm_v5,2020.2.10,MacIntel,60,61025ae37ef11b136ea224fe,,,,,,,,,2956,32.26190186,71.50262451,1,0,0,response1disk,,7,4.032714844,-8.248809814,1,0,0,rectangle,4.032714844,-8.248809814,1,0,0,,,,,,,4.032714844,-8.248809814,1,0,0,,1,81,241,94,1,
,,,,,,,,,,,,,FF,,,,,,,,2.1335,,,,,,,,,,,,,,,,,,,,,,60ff265ad0d04a091f893b0b,61036e8157a3bbbc40c70c13,2021-07-29_23h15.12.840,Simcolourproject_2stim_asymm_v5,2020.2.10,MacIntel,60,61025ae37ef11b136ea224fe,,,,,,,,,3063,56.29052734,-85.85083008,1,0,0,response3disk,,4,-3.807434082,0.186279297,1,0,0,rectangle,-3.807434082,0.186279297,1,0,0,,,,,,,-3.807434082,0.186279297,1,0,0,,1,82,242,153,1,
