key_resp.keys,key_resp.rt,key_resp_14.keys,key_resp_14.rt,key_resp_15.keys,key_resp_15.rt,key_resp_17.keys,key_resp_17.rt,key_resp_9.keys,key_resp_9.rt,key_resp_10.keys,key_resp_10.rt,practice_comparison,Ecc,mouse_5.x,mouse_5.y,mouse_5.leftButton,mouse_5.midButton,mouse_5.rightButton,mouse_5.clicked_name,pracsimilarity,response_time,mouse_10.x,mouse_10.y,mouse_10.leftButton,mouse_10.midButton,mouse_10.rightButton,mouse_10.clicked_name,mouse_7.x,mouse_7.y,mouse_7.leftButton,mouse_7.midButton,mouse_7.rightButton,mouse_6.x,mouse_6.y,mouse_6.leftButton,mouse_6.midButton,mouse_6.rightButton,duringprac.thisRepN,duringprac.thisTrialN,duringprac.thisN,duringprac.thisIndex,duringprac.ran,participant,session,date,expName,psychopyVersion,OS,frameRate,study_id,mouse_7.clicked_name,catchpracsimilarity,catch_response_time,catchnumberprac,catchtrialorderprac,mouse_6.clicked_name,key_resp_22.keys,key_resp_22.rt,realcomparison,mouse.x,mouse.y,mouse.leftButton,mouse.midButton,mouse.rightButton,mouse.clicked_name,Colour2,similarity,mouse_2.x,mouse_2.y,mouse_2.leftButton,mouse_2.midButton,mouse_2.rightButton,mouse_2.clicked_name,mouse_3.x,mouse_3.y,mouse_3.leftButton,mouse_3.midButton,mouse_3.rightButton,mouse_11.x,mouse_11.y,mouse_11.leftButton,mouse_11.midButton,mouse_11.rightButton,trials_2.thisRepN,trials_2.thisTrialN,trials_2.thisN,trials_2.thisIndex,trials_2.ran,Colour1,mouse_3.clicked_name,catchornah,catchsimilarity,catchnumber,catchtrialorder,catchRT,mouse_11.clicked_name
space,0.4614,space,0.547,space,0.0659,space,0.5698,space,0.8331,space,2.4839,69,FF,82.85406494,-111.4281006,1,0,0,response3disk_5,4,0.9196,13.67236328,-13.04180908,1,0,0,rectangle_8,13.67236328,-13.04180908,1,0,0,13.67236328,-13.04180908,1,0,0,0,0,0,5,1,60ff4103610b39d6982ec65e,61037730e6c3d654fcdc63e7,2021-07-29_21h09.54.870,Simcolourproject_2stim_asymm_v5,2020.2.10,MacIntel,60,61025ae37ef11b136ea224fe,,,,,,,,,,,,,,,,,,,,,,,,,,,,,,,,,,,,,,,,,,,,,,
,,,,,,,,,,,,74,PF,58.4420166,-61.02008057,1,0,0,response3disk_5,4,0.4665,9.539794922,-4.993713379,1,0,0,rectangle_8,25.0201416,46.25326538,1,0,0,1.604125977,-4.79284668,1,0,0,0,1,1,1,1,60ff4103610b39d6982ec65e,61037730e6c3d654fcdc63e7,2021-07-29_21h09.54.870,Simcolourproject_2stim_asymm_v5,2020.2.10,MacIntel,60,61025ae37ef11b136ea224fe,response1disk_7,7,1.4833,7,"[2,5]",rectangle_4,,,,,,,,,,,,,,,,,,,,,,,,,,,,,,,,,,,,,,,,
,,,,,,,,,,,,129,FF,41.67749023,53.51223755,1,0,0,response1disk_5,7,0.5692,18.37786865,10.83892822,1,0,0,rectangle_8,18.37786865,10.83892822,1,0,0,18.37786865,10.83892822,1,0,0,0,2,2,3,1,60ff4103610b39d6982ec65e,61037730e6c3d654fcdc63e7,2021-07-29_21h09.54.870,Simcolourproject_2stim_asymm_v5,2020.2.10,MacIntel,60,61025ae37ef11b136ea224fe,,,,,,,,,,,,,,,,,,,,,,,,,,,,,,,,,,,,,,,,,,,,,,
,,,,,,,,,,,,55,PF,-54.51544189,40.48748779,1,0,0,response7disk_5,1,0.8159,-7.612121582,8.745422363,1,0,0,rectangle_8,-7.612121582,8.745422363,1,0,0,-7.612121582,8.745422363,1,0,0,0,3,3,2,1,60ff4103610b39d6982ec65e,61037730e6c3d654fcdc63e7,2021-07-29_21h09.54.870,Simcolourproject_2stim_asymm_v5,2020.2.10,MacIntel,60,61025ae37ef11b136ea224fe,,,,,,,,,,,,,,,,,,,,,,,,,,,,,,,,,,,,,,,,,,,,,,
,,,,,,,,,,,,152,FF,43.5567627,-18.80258179,1,0,0,response3disk_5,5,1.8676,14.71697998,-0.196166992,1,0,0,rectangle_8,37.92578125,49.73657227,1,0,0,21.93231201,7.986755371,1,0,0,0,4,4,0,1,60ff4103610b39d6982ec65e,61037730e6c3d654fcdc63e7,2021-07-29_21h09.54.870,Simcolourproject_2stim_asymm_v5,2020.2.10,MacIntel,60,61025ae37ef11b136ea224fe,response1disk_7,7,1.5847,7,"[2,5]",rectangle_4,,,,,,,,,,,,,,,,,,,,,,,,,,,,,,,,,,,,,,,,
,,,,,,,,,,,,26,PF,-70.82098389,30.63372803,1,0,0,response7disk_5,1,0.8163,14.72692871,-6.456390381,1,0,0,rectangle_8,14.72692871,-6.456390381,1,0,0,14.72692871,-6.456390381,1,0,0,0,5,5,4,1,60ff4103610b39d6982ec65e,61037730e6c3d654fcdc63e7,2021-07-29_21h09.54.870,Simcolourproject_2stim_asymm_v5,2020.2.10,MacIntel,60,61025ae37ef11b136ea224fe,,,,,,,,,,,,,,,,,,,,,,,,,,,,,,,,,,,,,,,,,,,,,,
,,,,,,,,,,,,5,PF,-60.83135986,31.99133301,1,0,0,response7disk_5,1,0.8995,-20.80316162,17.48425293,1,0,0,rectangle_8,-20.80316162,17.48425293,1,0,0,-20.80316162,17.48425293,1,0,0,0,6,6,6,1,60ff4103610b39d6982ec65e,61037730e6c3d654fcdc63e7,2021-07-29_21h09.54.870,Simcolourproject_2stim_asymm_v5,2020.2.10,MacIntel,60,61025ae37ef11b136ea224fe,,,,,,,,,,,,,,,,,,,,,,,,,,,,,,,,,,,,,,,,,,,,,,
,,,,,,,,,,,,,FF,,,,,,,,0.682,,,,,,,,,,,,,,,,,,,,,,60ff4103610b39d6982ec65e,61037730e6c3d654fcdc63e7,2021-07-29_21h09.54.870,Simcolourproject_2stim_asymm_v5,2020.2.10,MacIntel,60,61025ae37ef11b136ea224fe,,,,,,,space,1.2759,1844,-46.01812744,28.7024231,1,0,0,response7disk,,1,11.84515381,-16.14614868,1,0,0,rectangle,11.84515381,-16.14614868,1,0,0,11.84515381,-16.14614868,1,0,0,0,0,0,82,1,,,,,,,,
,,,,,,,,,,,,,FF,,,,,,,,0.6833,,,,,,,,,,,,,,,,,,,,,,60ff4103610b39d6982ec65e,61037730e6c3d654fcdc63e7,2021-07-29_21h09.54.870,Simcolourproject_2stim_asymm_v5,2020.2.10,MacIntel,60,61025ae37ef11b136ea224fe,,,,,,,,,3670,-61.3394165,33.56585693,1,0,0,response7disk,,1,-10.4664917,9.88482666,1,0,0,rectangle,-10.4664917,9.88482666,1,0,0,-10.4664917,9.88482666,1,0,0,0,1,1,2,1,,,,,,,,
,,,,,,,,,,,,,FF,,,,,,,,0.5993,,,,,,,,,,,,,,,,,,,,,,60ff4103610b39d6982ec65e,61037730e6c3d654fcdc63e7,2021-07-29_21h09.54.870,Simcolourproject_2stim_asymm_v5,2020.2.10,MacIntel,60,61025ae37ef11b136ea224fe,,,,,,,,,3590,24.19573975,47.38095093,1,0,0,response1disk,,7,1.70690918,-0.41796875,1,0,0,rectangle,1.70690918,-0.41796875,1,0,0,1.70690918,-0.41796875,1,0,0,0,2,2,54,1,,,,,,,,
,,,,,,,,,,,,,FF,,,,,,,,0.717,,,,,,,,,,,,,,,,,,,,,,60ff4103610b39d6982ec65e,61037730e6c3d654fcdc63e7,2021-07-29_21h09.54.870,Simcolourproject_2stim_asymm_v5,2020.2.10,MacIntel,60,61025ae37ef11b136ea224fe,,,,,,,,,198,48.24798584,26.40405273,1,0,0,response1disk,,6,5.391296387,4.017089844,1,0,0,rectangle,5.391296387,4.017089844,1,0,0,5.391296387,4.017089844,1,0,0,0,3,3,65,1,,,,,,,,
,,,,,,,,,,,,,FF,,,,,,,,0.6156,,,,,,,,,,,,,,,,,,,,,,60ff4103610b39d6982ec65e,61037730e6c3d654fcdc63e7,2021-07-29_21h09.54.870,Simcolourproject_2stim_asymm_v5,2020.2.10,MacIntel,60,61025ae37ef11b136ea224fe,,,,,,,,,2286,44.93902588,-20.8190918,1,0,0,response3disk,,5,23.00537109,-11.56866455,1,0,0,rectangle,23.00537109,-11.56866455,1,0,0,23.00537109,-11.56866455,1,0,0,0,4,4,129,1,,,,,,,,
,,,,,,,,,,,,,FF,,,,,,,,0.5336,,,,,,,,,,,,,,,,,,,,,,60ff4103610b39d6982ec65e,61037730e6c3d654fcdc63e7,2021-07-29_21h09.54.870,Simcolourproject_2stim_asymm_v5,2020.2.10,MacIntel,60,61025ae37ef11b136ea224fe,,,,,,,,,4100,-29.0602417,-50.44573975,1,0,0,response5disk,,3,-3.274353027,-8.251281738,1,0,0,rectangle,-3.274353027,-8.251281738,1,0,0,-3.274353027,-8.251281738,1,0,0,0,5,5,38,1,,,,,,,,
,,,,,,,,,,,,,FF,,,,,,,,0.7831,,,,,,,,,,,,,,,,,,,,,,60ff4103610b39d6982ec65e,61037730e6c3d654fcdc63e7,2021-07-29_21h09.54.870,Simcolourproject_2stim_asymm_v5,2020.2.10,MacIntel,60,61025ae37ef11b136ea224fe,,,,,,,,,1455,-77.97015381,39.31030273,1,0,0,response7disk,,1,6.673034668,-6.62689209,1,0,0,rectangle,6.673034668,-6.62689209,1,0,0,6.673034668,-6.62689209,1,0,0,0,6,6,76,1,,,,,,,,
,,,,,,,,,,,,,FF,,,,,,,,1.1165,,,,,,,,,,,,,,,,,,,,,,60ff4103610b39d6982ec65e,61037730e6c3d654fcdc63e7,2021-07-29_21h09.54.870,Simcolourproject_2stim_asymm_v5,2020.2.10,MacIntel,60,61025ae37ef11b136ea224fe,,,,,,,,,4138,22.04174805,44.8036499,1,0,0,response1disk,,7,5.792907715,7.755249023,1,0,0,rectangle,5.792907715,7.755249023,1,0,0,5.792907715,7.755249023,1,0,0,0,7,7,14,1,,,,,,,,
,,,,,,,,,,,,,FF,,,,,,,,0.5333,,,,,,,,,,,,,,,,,,,,,,60ff4103610b39d6982ec65e,61037730e6c3d654fcdc63e7,2021-07-29_21h09.54.870,Simcolourproject_2stim_asymm_v5,2020.2.10,MacIntel,60,61025ae37ef11b136ea224fe,,,,,,,,,1619,34.68963623,54.87854004,1,0,0,response1disk,,7,6.542114258,13.61907959,1,0,0,rectangle,6.542114258,13.61907959,1,0,0,6.542114258,13.61907959,1,0,0,0,8,8,84,1,,,,,,,,
,,,,,,,,,,,,,FF,,,,,,,,0.6334,,,,,,,,,,,,,,,,,,,,,,60ff4103610b39d6982ec65e,61037730e6c3d654fcdc63e7,2021-07-29_21h09.54.870,Simcolourproject_2stim_asymm_v5,2020.2.10,MacIntel,60,61025ae37ef11b136ea224fe,,,,,,,,,3750,-63.0680542,23.28833008,1,0,0,response7disk,,1,-10.3550415,8.509460449,1,0,0,rectangle,-10.3550415,8.509460449,1,0,0,-10.3550415,8.509460449,1,0,0,0,9,9,99,1,,,,,,,,
,,,,,,,,,,,,,FF,,,,,,,,1.1831,,,,,,,,,,,,,,,,,,,,,,60ff4103610b39d6982ec65e,61037730e6c3d654fcdc63e7,2021-07-29_21h09.54.870,Simcolourproject_2stim_asymm_v5,2020.2.10,MacIntel,60,61025ae37ef11b136ea224fe,,,,,,,,,3730,37.29669189,-30.54800415,1,0,0,response3disk,,5,7.222106934,-5.683807373,1,0,0,rectangle,7.222106934,-5.683807373,1,0,0,7.222106934,-5.683807373,1,0,0,0,10,10,97,1,,,,,,,,
,,,,,,,,,,,,,FF,,,,,,,,0.7335,,,,,,,,,,,,,,,,,,,,,,60ff4103610b39d6982ec65e,61037730e6c3d654fcdc63e7,2021-07-29_21h09.54.870,Simcolourproject_2stim_asymm_v5,2020.2.10,MacIntel,60,61025ae37ef11b136ea224fe,,,,,,,,,1465,-30.49853516,-53.27850342,1,0,0,response5disk,,3,-16.42205811,-6.737731934,1,0,0,rectangle,-16.42205811,-6.737731934,1,0,0,-16.42205811,-6.737731934,1,0,0,0,11,11,6,1,,,,,,,,
,,,,,,,,,,,,,FF,,,,,,,,0.5677,,,,,,,,,,,,,,,,,,,,,,60ff4103610b39d6982ec65e,61037730e6c3d654fcdc63e7,2021-07-29_21h09.54.870,Simcolourproject_2stim_asymm_v5,2020.2.10,MacIntel,60,61025ae37ef11b136ea224fe,,,,,,,,,2713,-19.9619751,-36.6126709,1,0,0,response5disk,,3,-5.004333496,-1.135620117,1,0,0,rectangle,-5.004333496,-1.135620117,1,0,0,-5.004333496,-1.135620117,1,0,0,0,12,12,92,1,,,,,,,,
,,,,,,,,,,,,,FF,,,,,,,,0.8851,,,,,,,,,,,,,,,,,,,,,,60ff4103610b39d6982ec65e,61037730e6c3d654fcdc63e7,2021-07-29_21h09.54.870,Simcolourproject_2stim_asymm_v5,2020.2.10,MacIntel,60,61025ae37ef11b136ea224fe,,,,,,,,,3839,-66.45880127,-33.97686768,1,0,0,response5disk,,2,-10.42340088,-12.0680542,1,0,0,rectangle,-10.42340088,-12.0680542,1,0,0,-10.42340088,-12.0680542,1,0,0,0,13,13,147,1,,,,,,,,
,,,,,,,,,,,,,FF,,,,,,,,0.7834,,,,,,,,,,,,,,,,,,,,,,60ff4103610b39d6982ec65e,61037730e6c3d654fcdc63e7,2021-07-29_21h09.54.870,Simcolourproject_2stim_asymm_v5,2020.2.10,MacIntel,60,61025ae37ef11b136ea224fe,,,,,,,,,1920,34.11279297,-22.2890625,1,0,0,response3disk,,5,8.139160156,-4.010406494,1,0,0,rectangle,8.139160156,-4.010406494,1,0,0,8.139160156,-4.010406494,1,0,0,0,14,14,156,1,,,,,,,,
,,,,,,,,,,,,,FF,,,,,,,,0.6507,,,,,,,,,,,,,,,,,,,,,,60ff4103610b39d6982ec65e,61037730e6c3d654fcdc63e7,2021-07-29_21h09.54.870,Simcolourproject_2stim_asymm_v5,2020.2.10,MacIntel,60,61025ae37ef11b136ea224fe,,,,,,,,,2115,54.92572021,-21.90890503,1,0,0,response3disk,,5,21.15570068,1.209228516,1,0,0,rectangle,21.15570068,1.209228516,1,0,0,21.15570068,1.209228516,1,0,0,0,15,15,132,1,,,,,,,,
,,,,,,,,,,,,,FF,,,,,,,,0.7835,,,,,,,,,,,,,,,,,,,,,,60ff4103610b39d6982ec65e,61037730e6c3d654fcdc63e7,2021-07-29_21h09.54.870,Simcolourproject_2stim_asymm_v5,2020.2.10,MacIntel,60,61025ae37ef11b136ea224fe,,,,,,,,,2883,-25.55352783,-67.40814209,1,0,0,response5disk,,3,-2.227539063,-8.215332031,1,0,0,rectangle,-2.227539063,-8.215332031,1,0,0,-2.227539063,-8.215332031,1,0,0,0,16,16,15,1,,,,,,,,
,,,,,,,,,,,,,FF,,,,,,,,0.4686,,,,,,,,,,,,,,,,,,,,,,60ff4103610b39d6982ec65e,61037730e6c3d654fcdc63e7,2021-07-29_21h09.54.870,Simcolourproject_2stim_asymm_v5,2020.2.10,MacIntel,60,61025ae37ef11b136ea224fe,,,,,,,,,3378,-16.00164795,-46.93771362,1,0,0,response5disk,,3,2.480285645,-7.179107666,1,0,0,rectangle,2.480285645,-7.179107666,1,0,0,2.480285645,-7.179107666,1,0,0,0,17,17,53,1,,,,,,,,
,,,,,,,,,,,,,FF,,,,,,,,0.7837,,,,,,,,,,,,,,,,,,,,,,60ff4103610b39d6982ec65e,61037730e6c3d654fcdc63e7,2021-07-29_21h09.54.870,Simcolourproject_2stim_asymm_v5,2020.2.10,MacIntel,60,61025ae37ef11b136ea224fe,,,,,,,,,3168,30.87677002,60.58724976,1,0,0,response1disk,,7,3.469116211,-6.970397949,1,0,0,rectangle,3.469116211,-6.970397949,1,0,0,3.469116211,-6.970397949,1,0,0,0,18,18,25,1,,,,,,,,
,,,,,,,,,,,,,FF,,,,,,,,0.5174,,,,,,,,,,,,,,,,,,,,,,60ff4103610b39d6982ec65e,61037730e6c3d654fcdc63e7,2021-07-29_21h09.54.870,Simcolourproject_2stim_asymm_v5,2020.2.10,MacIntel,60,61025ae37ef11b136ea224fe,,,,,,,,,3604,36.32098389,48.50958252,1,0,0,response1disk,,7,15.43737793,9.060852051,1,0,0,rectangle,15.43737793,9.060852051,1,0,0,15.43737793,9.060852051,1,0,0,0,19,19,106,1,,,,,,,,
,,,,,,,,,,,,,FF,,,,,,,,0.5852,,,,,,,,,,,,,,,,,,,,,,60ff4103610b39d6982ec65e,61037730e6c3d654fcdc63e7,2021-07-29_21h09.54.870,Simcolourproject_2stim_asymm_v5,2020.2.10,MacIntel,60,61025ae37ef11b136ea224fe,,,,,,,,,2079,28.09753418,50.98669434,1,0,0,response1disk,,7,24.19036865,7.634918213,1,0,0,rectangle,24.19036865,7.634918213,1,0,0,24.19036865,7.634918213,1,0,0,0,20,20,11,1,,,,,,,,
,,,,,,,,,,,,,FF,,,,,,,,0.5838,,,,,,,,,,,,,,,,,,,,,,60ff4103610b39d6982ec65e,61037730e6c3d654fcdc63e7,2021-07-29_21h09.54.870,Simcolourproject_2stim_asymm_v5,2020.2.10,MacIntel,60,61025ae37ef11b136ea224fe,,,,,,,,,1656,29.09417725,74.83587646,1,0,0,response1disk,,7,27.33599854,5.750030518,1,0,0,rectangle,27.33599854,5.750030518,1,0,0,27.33599854,5.750030518,1,0,0,0,21,21,67,1,,,,,,,,
,,,,,,,,,,,,,FF,,,,,,,,0.751,,,,,,,,,,,,,,,,,,,,,,60ff4103610b39d6982ec65e,61037730e6c3d654fcdc63e7,2021-07-29_21h09.54.870,Simcolourproject_2stim_asymm_v5,2020.2.10,MacIntel,60,61025ae37ef11b136ea224fe,,,,,,,,,219,81.79638672,29.80325317,1,0,0,response1disk,,6,0.590393066,-12.85577393,1,0,0,rectangle,0.590393066,-12.85577393,1,0,0,0.590393066,-12.85577393,1,0,0,0,22,22,33,1,,,,,,,,
,,,,,,,,,,,,,FF,,,,,,,,1.3493,,,,,,,,,,,,,,,,,,,,,,60ff4103610b39d6982ec65e,61037730e6c3d654fcdc63e7,2021-07-29_21h09.54.870,Simcolourproject_2stim_asymm_v5,2020.2.10,MacIntel,60,61025ae37ef11b136ea224fe,,,,,,,,,2540,40.25408936,65.77294922,1,0,0,response1disk,,7,15.59667969,6.448730469,1,0,0,rectangle,15.59667969,6.448730469,1,0,0,15.59667969,6.448730469,1,0,0,0,23,23,63,1,,,,,,,,
,,,,,,,,,,,,,FF,,,,,,,,0.7504,,,,,,,,,,,,,,,,,,,,,,60ff4103610b39d6982ec65e,61037730e6c3d654fcdc63e7,2021-07-29_21h09.54.870,Simcolourproject_2stim_asymm_v5,2020.2.10,MacIntel,60,61025ae37ef11b136ea224fe,,,,,,,,,3549,51.16033936,29.81262207,1,0,0,response1disk,,6,1.079589844,13.17523193,1,0,0,rectangle,1.079589844,13.17523193,1,0,0,1.079589844,13.17523193,1,0,0,0,24,24,45,1,,,,,,,,
,,,,,,,,,,,,,FF,,,,,,,,0.9492,,,,,,,,,,,,,,,,,,,,,,60ff4103610b39d6982ec65e,61037730e6c3d654fcdc63e7,2021-07-29_21h09.54.870,Simcolourproject_2stim_asymm_v5,2020.2.10,MacIntel,60,61025ae37ef11b136ea224fe,,,,,,,,,1002,36.67242432,54.37872314,1,0,0,response1disk,,7,21.12652588,8.261535645,1,0,0,rectangle,21.12652588,8.261535645,1,0,0,21.12652588,8.261535645,1,0,0,0,25,25,117,1,,,,,,,,
,,,,,,,,,,,,,FF,,,,,,,,0.7162,,,,,,,,,,,,,,,,,,,,,,60ff4103610b39d6982ec65e,61037730e6c3d654fcdc63e7,2021-07-29_21h09.54.870,Simcolourproject_2stim_asymm_v5,2020.2.10,MacIntel,60,61025ae37ef11b136ea224fe,,,,,,,,,1301,26.82128906,-51.29208374,1,0,0,response3disk,,4,13.38830566,-1.681793213,1,0,0,rectangle,13.38830566,-1.681793213,1,0,0,13.38830566,-1.681793213,1,0,0,0,26,26,16,1,,,,,,,,
,,,,,,,,,,,,,FF,,,,,,,,0.5839,,,,,,,,,,,,,,,,,,,,,,60ff4103610b39d6982ec65e,61037730e6c3d654fcdc63e7,2021-07-29_21h09.54.870,Simcolourproject_2stim_asymm_v5,2020.2.10,MacIntel,60,61025ae37ef11b136ea224fe,,,,,,,,,515,59.21520996,-26.56332397,1,0,0,response3disk,,5,-5.702270508,2.299041748,1,0,0,rectangle,-5.702270508,2.299041748,1,0,0,-5.702270508,2.299041748,1,0,0,0,27,27,71,1,,,,,,,,
,,,,,,,,,,,,,FF,,,,,,,,0.6166,,,,,,,,,,,,,,,,,,,,,,60ff4103610b39d6982ec65e,61037730e6c3d654fcdc63e7,2021-07-29_21h09.54.870,Simcolourproject_2stim_asymm_v5,2020.2.10,MacIntel,60,61025ae37ef11b136ea224fe,,,,,,,,,206,50.66772461,-44.02258301,1,0,0,response3disk,,5,6.180847168,-5.183532715,1,0,0,rectangle,6.180847168,-5.183532715,1,0,0,6.180847168,-5.183532715,1,0,0,0,28,28,151,1,,,,,,,,
,,,,,,,,,,,,,FF,,,,,,,,0.3828,,,,,,,,,,,,,,,,,,,,,,60ff4103610b39d6982ec65e,61037730e6c3d654fcdc63e7,2021-07-29_21h09.54.870,Simcolourproject_2stim_asymm_v5,2020.2.10,MacIntel,60,61025ae37ef11b136ea224fe,,,,,,,,,345,-32.03204346,-44.4911499,1,0,0,response5disk,,3,-20.62316895,-5.795715332,1,0,0,rectangle,-20.62316895,-5.795715332,1,0,0,-20.62316895,-5.795715332,1,0,0,0,29,29,152,1,,,,,,,,
,,,,,,,,,,,,,FF,,,,,,,,0.7509,,,,,,,,,,,,,,,,,,,,,,60ff4103610b39d6982ec65e,61037730e6c3d654fcdc63e7,2021-07-29_21h09.54.870,Simcolourproject_2stim_asymm_v5,2020.2.10,MacIntel,60,61025ae37ef11b136ea224fe,,,,,,,,,2027,-63.92486572,32.50579834,1,0,0,response7disk,,1,-7.721313477,17.2850647,1,0,0,rectangle,-7.721313477,17.2850647,1,0,0,-7.721313477,17.2850647,1,0,0,0,30,30,113,1,,,,,,,,
,,,,,,,,,,,,,FF,,,,,,,,0.7174,,,,,,,,,,,,,,,,,,,,,,60ff4103610b39d6982ec65e,61037730e6c3d654fcdc63e7,2021-07-29_21h09.54.870,Simcolourproject_2stim_asymm_v5,2020.2.10,MacIntel,60,61025ae37ef11b136ea224fe,,,,,,,,,3906,-35.72991943,68.30535889,1,0,0,response7disk,,0,-8.530334473,8.710693359,1,0,0,rectangle,-8.530334473,8.710693359,1,0,0,-8.530334473,8.710693359,1,0,0,0,31,31,47,1,,,,,,,,
,,,,,,,,,,,,,FF,,,,,,,,0.5819,,,,,,,,,,,,,,,,,,,,,,60ff4103610b39d6982ec65e,61037730e6c3d654fcdc63e7,2021-07-29_21h09.54.870,Simcolourproject_2stim_asymm_v5,2020.2.10,MacIntel,60,61025ae37ef11b136ea224fe,,,,,,,,,2530,28.26269531,57.38146973,1,0,0,response1disk,,7,7.61907959,8.690734863,1,0,0,rectangle,7.61907959,8.690734863,1,0,0,7.61907959,8.690734863,1,0,0,0,32,32,104,1,,,,,,,,
,,,,,,,,,,,,,FF,,,,,,,,0.3531,,,,,,,,,,,,,,,,,,,,,,60ff4103610b39d6982ec65e,61037730e6c3d654fcdc63e7,2021-07-29_21h09.54.870,Simcolourproject_2stim_asymm_v5,2020.2.10,MacIntel,60,61025ae37ef11b136ea224fe,,,,,,,,,3279,76.23291016,30.46264648,1,0,0,response1disk,,6,14.42694092,6.061950684,1,0,0,rectangle,14.42694092,6.061950684,1,0,0,14.42694092,6.061950684,1,0,0,0,33,33,150,1,,,,,,,,
,,,,,,,,,,,,,FF,,,,,,,,0.4688,,,,,,,,,,,,,,,,,,,,,,60ff4103610b39d6982ec65e,61037730e6c3d654fcdc63e7,2021-07-29_21h09.54.870,Simcolourproject_2stim_asymm_v5,2020.2.10,MacIntel,60,61025ae37ef11b136ea224fe,,,,,,,,,2938,56.08441162,-23.46844482,1,0,0,response3disk,,5,5.737609863,-12.9899292,1,0,0,rectangle,5.737609863,-12.9899292,1,0,0,5.737609863,-12.9899292,1,0,0,0,34,34,116,1,,,,,,,,
,,,,,,,,,,,,,FF,,,,,,,,0.6325,,,,,,,,,,,,,,,,,,,,,,60ff4103610b39d6982ec65e,61037730e6c3d654fcdc63e7,2021-07-29_21h09.54.870,Simcolourproject_2stim_asymm_v5,2020.2.10,MacIntel,60,61025ae37ef11b136ea224fe,,,,,,,,,1747,-41.08197021,-36.23709106,1,0,0,response5disk,,2,-7.571472168,-2.456359863,1,0,0,rectangle,-7.571472168,-2.456359863,1,0,0,-7.571472168,-2.456359863,1,0,0,0,35,35,90,1,,,,,,,,
,,,,,,,,,,,,,FF,,,,,,,,1.2507,,,,,,,,,,,,,,,,,,,,,,60ff4103610b39d6982ec65e,61037730e6c3d654fcdc63e7,2021-07-29_21h09.54.870,Simcolourproject_2stim_asymm_v5,2020.2.10,MacIntel,60,61025ae37ef11b136ea224fe,,,,,,,,,1975,-36.08410645,-62.74023438,1,0,0,response5disk,,3,-8.612792969,0.030090332,1,0,0,rectangle,-8.612792969,0.030090332,1,0,0,-8.612792969,0.030090332,1,0,0,0,36,36,98,1,,,,,,,,
,,,,,,,,,,,,,FF,,,,,,,,0.5994,,,,,,,,,,,,,,,,,,,,,,60ff4103610b39d6982ec65e,61037730e6c3d654fcdc63e7,2021-07-29_21h09.54.870,Simcolourproject_2stim_asymm_v5,2020.2.10,MacIntel,60,61025ae37ef11b136ea224fe,,,,,,,,,2648,-34.29406738,-70.46337891,1,0,0,response5disk,,3,-8.029785156,-15.35357666,1,0,0,rectangle,-8.029785156,-15.35357666,1,0,0,-8.029785156,-15.35357666,1,0,0,0,37,37,123,1,,,,,,,,
,,,,,,,,,,,,,FF,,,,,,,,1.014,,,,,,,,,,,,,,,,,,,,,,60ff4103610b39d6982ec65e,61037730e6c3d654fcdc63e7,2021-07-29_21h09.54.870,Simcolourproject_2stim_asymm_v5,2020.2.10,MacIntel,60,61025ae37ef11b136ea224fe,,,,,,,,,4240,-29.47631836,-59.48452759,1,0,0,response5disk,,3,-5.122802734,-15.04486084,1,0,0,rectangle,-5.122802734,-15.04486084,1,0,0,-5.122802734,-15.04486084,1,0,0,0,38,38,43,1,,,,,,,,
,,,,,,,,,,,,,FF,,,,,,,,0.7337,,,,,,,,,,,,,,,,,,,,,,60ff4103610b39d6982ec65e,61037730e6c3d654fcdc63e7,2021-07-29_21h09.54.870,Simcolourproject_2stim_asymm_v5,2020.2.10,MacIntel,60,61025ae37ef11b136ea224fe,,,,,,,,,2989,-46.10858154,-32.12869263,1,0,0,response5disk,,2,-6.360595703,-11.82946777,1,0,0,rectangle,-6.360595703,-11.82946777,1,0,0,-6.360595703,-11.82946777,1,0,0,0,39,39,69,1,,,,,,,,
,,,,,,,,,,,,,FF,,,,,,,,0.667,,,,,,,,,,,,,,,,,,,,,,60ff4103610b39d6982ec65e,61037730e6c3d654fcdc63e7,2021-07-29_21h09.54.870,Simcolourproject_2stim_asymm_v5,2020.2.10,MacIntel,60,61025ae37ef11b136ea224fe,,,,,,,,,1827,-69.65856934,-23.15734863,1,0,0,response5disk,,2,-8.492126465,6.326690674,1,0,0,rectangle,31.45581055,72.75549316,1,0,0,1.458496094,2.669006348,1,0,0,0,40,40,159,1,,response1disk_3,TRUE,7,7,"[109,222,89,208,227,139,238,85,53,169,146,41,62,128,189,142,237,272,168,117]",1.2661,rectangle
,,,,,,,,,,,,,FF,,,,,,,,0.9325,,,,,,,,,,,,,,,,,,,,,,60ff4103610b39d6982ec65e,61037730e6c3d654fcdc63e7,2021-07-29_21h09.54.870,Simcolourproject_2stim_asymm_v5,2020.2.10,MacIntel,60,61025ae37ef11b136ea224fe,,,,,,,,,3100,-55.29022217,30.64556885,1,0,0,response7disk,,1,-12.08117676,11.89099121,1,0,0,rectangle,-12.08117676,11.89099121,1,0,0,-12.08117676,11.89099121,1,0,0,0,41,41,81,1,,,,,,,,
,,,,,,,,,,,,,FF,,,,,,,,0.6351,,,,,,,,,,,,,,,,,,,,,,60ff4103610b39d6982ec65e,61037730e6c3d654fcdc63e7,2021-07-29_21h09.54.870,Simcolourproject_2stim_asymm_v5,2020.2.10,MacIntel,60,61025ae37ef11b136ea224fe,,,,,,,,,2357,-54.69299316,-40.69335938,1,0,0,response5disk,,2,-10.60638428,-4.409423828,1,0,0,rectangle,-10.60638428,-4.409423828,1,0,0,-10.60638428,-4.409423828,1,0,0,0,42,42,126,1,,,,,,,,
,,,,,,,,,,,,,FF,,,,,,,,0.635,,,,,,,,,,,,,,,,,,,,,,60ff4103610b39d6982ec65e,61037730e6c3d654fcdc63e7,2021-07-29_21h09.54.870,Simcolourproject_2stim_asymm_v5,2020.2.10,MacIntel,60,61025ae37ef11b136ea224fe,,,,,,,,,3834,20.07543945,59.35025024,1,0,0,response1disk,,7,7.060852051,15.57937622,1,0,0,rectangle,7.060852051,15.57937622,1,0,0,7.060852051,15.57937622,1,0,0,0,43,43,9,1,,,,,,,,
,,,,,,,,,,,,,FF,,,,,,,,0.6677,,,,,,,,,,,,,,,,,,,,,,60ff4103610b39d6982ec65e,61037730e6c3d654fcdc63e7,2021-07-29_21h09.54.870,Simcolourproject_2stim_asymm_v5,2020.2.10,MacIntel,60,61025ae37ef11b136ea224fe,,,,,,,,,4114,64.19458008,35.18759155,1,0,0,response1disk,,6,-5.073364258,-10.90939331,1,0,0,rectangle,-5.073364258,-10.90939331,1,0,0,-5.073364258,-10.90939331,1,0,0,0,44,44,146,1,,,,,,,,
,,,,,,,,,,,,,FF,,,,,,,,0.3999,,,,,,,,,,,,,,,,,,,,,,60ff4103610b39d6982ec65e,61037730e6c3d654fcdc63e7,2021-07-29_21h09.54.870,Simcolourproject_2stim_asymm_v5,2020.2.10,MacIntel,60,61025ae37ef11b136ea224fe,,,,,,,,,1023,68.93731689,36.2428894,1,0,0,response1disk,,6,15.22747803,4.789703369,1,0,0,rectangle,15.22747803,4.789703369,1,0,0,15.22747803,4.789703369,1,0,0,0,45,45,29,1,,,,,,,,
,,,,,,,,,,,,,FF,,,,,,,,0.5343,,,,,,,,,,,,,,,,,,,,,,60ff4103610b39d6982ec65e,61037730e6c3d654fcdc63e7,2021-07-29_21h09.54.870,Simcolourproject_2stim_asymm_v5,2020.2.10,MacIntel,60,61025ae37ef11b136ea224fe,,,,,,,,,3395,58.98724365,-27.96905518,1,0,0,response3disk,,5,33.69458008,-17.1076355,1,0,0,rectangle,33.69458008,-17.1076355,1,0,0,33.69458008,-17.1076355,1,0,0,0,46,46,17,1,,,,,,,,
,,,,,,,,,,,,,FF,,,,,,,,0.373,,,,,,,,,,,,,,,,,,,,,,60ff4103610b39d6982ec65e,61037730e6c3d654fcdc63e7,2021-07-29_21h09.54.870,Simcolourproject_2stim_asymm_v5,2020.2.10,MacIntel,60,61025ae37ef11b136ea224fe,,,,,,,,,3280,18.09674072,-60.63244629,1,0,0,response3disk,,4,2.17755127,-5.587341309,1,0,0,rectangle,2.17755127,-5.587341309,1,0,0,2.17755127,-5.587341309,1,0,0,0,47,47,28,1,,,,,,,,
,,,,,,,,,,,,,FF,,,,,,,,0.45,,,,,,,,,,,,,,,,,,,,,,60ff4103610b39d6982ec65e,61037730e6c3d654fcdc63e7,2021-07-29_21h09.54.870,Simcolourproject_2stim_asymm_v5,2020.2.10,MacIntel,60,61025ae37ef11b136ea224fe,,,,,,,,,3923,-29.59277344,-45.28570557,1,0,0,response5disk,,3,-1.049438477,-2.066589355,1,0,0,rectangle,-1.049438477,-2.066589355,1,0,0,-1.049438477,-2.066589355,1,0,0,0,48,48,26,1,,,,,,,,
,,,,,,,,,,,,,FF,,,,,,,,0.6186,,,,,,,,,,,,,,,,,,,,,,60ff4103610b39d6982ec65e,61037730e6c3d654fcdc63e7,2021-07-29_21h09.54.870,Simcolourproject_2stim_asymm_v5,2020.2.10,MacIntel,60,61025ae37ef11b136ea224fe,,,,,,,,,1567,33.22943115,62.01086426,1,0,0,response1disk,,7,21.43963623,14.01919556,1,0,0,rectangle,21.43963623,14.01919556,1,0,0,21.43963623,14.01919556,1,0,0,0,49,49,22,1,,,,,,,,
,,,,,,,,,,,,,FF,,,,,,,,1.5501,,,,,,,,,,,,,,,,,,,,,,60ff4103610b39d6982ec65e,61037730e6c3d654fcdc63e7,2021-07-29_21h09.54.870,Simcolourproject_2stim_asymm_v5,2020.2.10,MacIntel,60,61025ae37ef11b136ea224fe,,,,,,,,,2237,65.20202637,-17.49053955,1,0,0,response3disk,,5,23.34265137,16.85253906,1,0,0,rectangle,23.34265137,16.85253906,1,0,0,23.34265137,16.85253906,1,0,0,0,50,50,110,1,,,,,,,,
,,,,,,,,,,,,,FF,,,,,,,,0.7155,,,,,,,,,,,,,,,,,,,,,,60ff4103610b39d6982ec65e,61037730e6c3d654fcdc63e7,2021-07-29_21h09.54.870,Simcolourproject_2stim_asymm_v5,2020.2.10,MacIntel,60,61025ae37ef11b136ea224fe,,,,,,,,,279,56.23620605,25.02838135,1,0,0,response1disk,,6,24.67962646,8.840942383,1,0,0,rectangle,24.67962646,8.840942383,1,0,0,24.67962646,8.840942383,1,0,0,0,51,51,8,1,,,,,,,,
,,,,,,,,,,,,,FF,,,,,,,,0.9347,,,,,,,,,,,,,,,,,,,,,,60ff4103610b39d6982ec65e,61037730e6c3d654fcdc63e7,2021-07-29_21h09.54.870,Simcolourproject_2stim_asymm_v5,2020.2.10,MacIntel,60,61025ae37ef11b136ea224fe,,,,,,,,,3019,34.92205811,66.08618164,1,0,0,response1disk,,7,21.13256836,16.23696899,1,0,0,rectangle,95.74151611,-40.46356201,1,0,0,2.410339355,5.472412109,1,0,0,0,52,52,74,1,,response3disk_3,TRUE,5,5,"[109,222,89,208,227,139,238,85,53,169,146,41,62,128,189,142,237,272,168,117]",3.5171,rectangle
,,,,,,,,,,,,,FF,,,,,,,,0.9674,,,,,,,,,,,,,,,,,,,,,,60ff4103610b39d6982ec65e,61037730e6c3d654fcdc63e7,2021-07-29_21h09.54.870,Simcolourproject_2stim_asymm_v5,2020.2.10,MacIntel,60,61025ae37ef11b136ea224fe,,,,,,,,,1159,-21.80078125,-41.03234863,1,0,0,response5disk,,3,3.971191406,14.8772583,1,0,0,rectangle,3.971191406,14.8772583,1,0,0,3.971191406,14.8772583,1,0,0,0,53,53,148,1,,,,,,,,
,,,,,,,,,,,,,FF,,,,,,,,0.5363,,,,,,,,,,,,,,,,,,,,,,60ff4103610b39d6982ec65e,61037730e6c3d654fcdc63e7,2021-07-29_21h09.54.870,Simcolourproject_2stim_asymm_v5,2020.2.10,MacIntel,60,61025ae37ef11b136ea224fe,,,,,,,,,2926,41.23852539,55.06115723,1,0,0,response1disk,,7,14.17181396,5.36819458,1,0,0,rectangle,14.17181396,5.36819458,1,0,0,14.17181396,5.36819458,1,0,0,0,54,54,142,1,,,,,,,,
,,,,,,,,,,,,,FF,,,,,,,,0.8493,,,,,,,,,,,,,,,,,,,,,,60ff4103610b39d6982ec65e,61037730e6c3d654fcdc63e7,2021-07-29_21h09.54.870,Simcolourproject_2stim_asymm_v5,2020.2.10,MacIntel,60,61025ae37ef11b136ea224fe,,,,,,,,,1370,-57.6083374,29.93762207,1,0,0,response7disk,,1,-1.298339844,7.070404053,1,0,0,rectangle,-1.298339844,7.070404053,1,0,0,-1.298339844,7.070404053,1,0,0,0,55,55,139,1,,,,,,,,
,,,,,,,,,,,,,FF,,,,,,,,0.9971,,,,,,,,,,,,,,,,,,,,,,60ff4103610b39d6982ec65e,61037730e6c3d654fcdc63e7,2021-07-29_21h09.54.870,Simcolourproject_2stim_asymm_v5,2020.2.10,MacIntel,60,61025ae37ef11b136ea224fe,,,,,,,,,2167,-57.37512207,23.70553589,1,0,0,response7disk,,1,-6.300170898,7.729553223,1,0,0,rectangle,-6.300170898,7.729553223,1,0,0,-6.300170898,7.729553223,1,0,0,0,56,56,101,1,,,,,,,,
,,,,,,,,,,,,,FF,,,,,,,,0.883,,,,,,,,,,,,,,,,,,,,,,60ff4103610b39d6982ec65e,61037730e6c3d654fcdc63e7,2021-07-29_21h09.54.870,Simcolourproject_2stim_asymm_v5,2020.2.10,MacIntel,60,61025ae37ef11b136ea224fe,,,,,,,,,2908,31.99450684,50.86981201,1,0,0,response1disk,,7,13.97033691,-9.651550293,1,0,0,rectangle,13.97033691,-9.651550293,1,0,0,13.97033691,-9.651550293,1,0,0,0,57,57,79,1,,,,,,,,
,,,,,,,,,,,,,FF,,,,,,,,2.8161,,,,,,,,,,,,,,,,,,,,,,60ff4103610b39d6982ec65e,61037730e6c3d654fcdc63e7,2021-07-29_21h09.54.870,Simcolourproject_2stim_asymm_v5,2020.2.10,MacIntel,60,61025ae37ef11b136ea224fe,,,,,,,,,1277,74.85827637,-47.97039795,1,0,0,response3disk,,5,25.79248047,-4.955932617,1,0,0,rectangle,25.79248047,-4.955932617,1,0,0,25.79248047,-4.955932617,1,0,0,0,58,58,40,1,,,,,,,,
,,,,,,,,,,,,,FF,,,,,,,,0.8841,,,,,,,,,,,,,,,,,,,,,,60ff4103610b39d6982ec65e,61037730e6c3d654fcdc63e7,2021-07-29_21h09.54.870,Simcolourproject_2stim_asymm_v5,2020.2.10,MacIntel,60,61025ae37ef11b136ea224fe,,,,,,,,,1188,73.65478516,-39.48550415,1,0,0,response3disk,,5,15.57458496,-2.34564209,1,0,0,rectangle,15.57458496,-2.34564209,1,0,0,15.57458496,-2.34564209,1,0,0,0,59,59,108,1,,,,,,,,
,,,,,,,,,,,,,FF,,,,,,,,0.818,,,,,,,,,,,,,,,,,,,,,,60ff4103610b39d6982ec65e,61037730e6c3d654fcdc63e7,2021-07-29_21h09.54.870,Simcolourproject_2stim_asymm_v5,2020.2.10,MacIntel,60,61025ae37ef11b136ea224fe,,,,,,,,,3788,62.57049561,-22.05410767,1,0,0,response3disk,,5,26.60174561,13.59332275,1,0,0,rectangle,26.60174561,13.59332275,1,0,0,26.60174561,13.59332275,1,0,0,0,60,60,138,1,,,,,,,,
,,,,,,,,,,,,,FF,,,,,,,,0.8505,,,,,,,,,,,,,,,,,,,,,,60ff4103610b39d6982ec65e,61037730e6c3d654fcdc63e7,2021-07-29_21h09.54.870,Simcolourproject_2stim_asymm_v5,2020.2.10,MacIntel,60,61025ae37ef11b136ea224fe,,,,,,,,,1665,35.49279785,40.10662842,1,0,0,response1disk,,7,20.9418335,-1.986328125,1,0,0,rectangle,64.91363525,31.25888062,1,0,0,22.59759521,1.534606934,1,0,0,0,61,61,52,1,,response1disk_3,TRUE,6,7,"[109,222,89,208,227,139,238,85,53,169,146,41,62,128,189,142,237,272,168,117]",0.8002,rectangle
,,,,,,,,,,,,,FF,,,,,,,,0.6018,,,,,,,,,,,,,,,,,,,,,,60ff4103610b39d6982ec65e,61037730e6c3d654fcdc63e7,2021-07-29_21h09.54.870,Simcolourproject_2stim_asymm_v5,2020.2.10,MacIntel,60,61025ae37ef11b136ea224fe,,,,,,,,,3135,47.48406982,-43.45794678,1,0,0,response3disk,,5,6.580566406,5.577880859,1,0,0,rectangle,6.580566406,5.577880859,1,0,0,6.580566406,5.577880859,1,0,0,0,62,62,49,1,,,,,,,,
,,,,,,,,,,,,,FF,,,,,,,,1.1173,,,,,,,,,,,,,,,,,,,,,,60ff4103610b39d6982ec65e,61037730e6c3d654fcdc63e7,2021-07-29_21h09.54.870,Simcolourproject_2stim_asymm_v5,2020.2.10,MacIntel,60,61025ae37ef11b136ea224fe,,,,,,,,,3327,20.83789063,77.43066406,1,0,0,response1disk,,7,11.28320313,8.557678223,1,0,0,rectangle,11.28320313,8.557678223,1,0,0,11.28320313,8.557678223,1,0,0,0,63,63,35,1,,,,,,,,
,,,,,,,,,,,,,FF,,,,,,,,0.7186,,,,,,,,,,,,,,,,,,,,,,60ff4103610b39d6982ec65e,61037730e6c3d654fcdc63e7,2021-07-29_21h09.54.870,Simcolourproject_2stim_asymm_v5,2020.2.10,MacIntel,60,61025ae37ef11b136ea224fe,,,,,,,,,1464,56.1026001,-38.87536621,1,0,0,response3disk,,5,11.15960693,4.214172363,1,0,0,rectangle,11.15960693,4.214172363,1,0,0,11.15960693,4.214172363,1,0,0,0,64,64,61,1,,,,,,,,
,,,,,,,,,,,,,FF,,,,,,,,0.5184,,,,,,,,,,,,,,,,,,,,,,60ff4103610b39d6982ec65e,61037730e6c3d654fcdc63e7,2021-07-29_21h09.54.870,Simcolourproject_2stim_asymm_v5,2020.2.10,MacIntel,60,61025ae37ef11b136ea224fe,,,,,,,,,107,54.64935303,-28.32894897,1,0,0,response3disk,,5,6.056152344,4.887145996,1,0,0,rectangle,6.056152344,4.887145996,1,0,0,6.056152344,4.887145996,1,0,0,0,65,65,34,1,,,,,,,,
,,,,,,,,,,,,,FF,,,,,,,,0.3993,,,,,,,,,,,,,,,,,,,,,,60ff4103610b39d6982ec65e,61037730e6c3d654fcdc63e7,2021-07-29_21h09.54.870,Simcolourproject_2stim_asymm_v5,2020.2.10,MacIntel,60,61025ae37ef11b136ea224fe,,,,,,,,,1321,-17.40136719,-49.4644165,1,0,0,response5disk,,3,4.97479248,-0.308959961,1,0,0,rectangle,4.97479248,-0.308959961,1,0,0,4.97479248,-0.308959961,1,0,0,0,66,66,111,1,,,,,,,,
,,,,,,,,,,,,,FF,,,,,,,,0.6162,,,,,,,,,,,,,,,,,,,,,,60ff4103610b39d6982ec65e,61037730e6c3d654fcdc63e7,2021-07-29_21h09.54.870,Simcolourproject_2stim_asymm_v5,2020.2.10,MacIntel,60,61025ae37ef11b136ea224fe,,,,,,,,,1012,40.35980225,70.60662842,1,0,0,response1disk,,7,18.35211182,8.593902588,1,0,0,rectangle,18.35211182,8.593902588,1,0,0,18.35211182,8.593902588,1,0,0,0,67,67,24,1,,,,,,,,
,,,,,,,,,,,,,FF,,,,,,,,0.7667,,,,,,,,,,,,,,,,,,,,,,60ff4103610b39d6982ec65e,61037730e6c3d654fcdc63e7,2021-07-29_21h09.54.870,Simcolourproject_2stim_asymm_v5,2020.2.10,MacIntel,60,61025ae37ef11b136ea224fe,,,,,,,,,3479,-39.63208008,-33.39813232,1,0,0,response5disk,,2,22.59893799,17.45263672,1,0,0,rectangle,22.59893799,17.45263672,1,0,0,22.59893799,17.45263672,1,0,0,0,68,68,10,1,,,,,,,,
,,,,,,,,,,,,,FF,,,,,,,,3.117,,,,,,,,,,,,,,,,,,,,,,60ff4103610b39d6982ec65e,61037730e6c3d654fcdc63e7,2021-07-29_21h09.54.870,Simcolourproject_2stim_asymm_v5,2020.2.10,MacIntel,60,61025ae37ef11b136ea224fe,,,,,,,,,2511,92.63665771,-56.19741821,1,0,0,response3disk,,5,17.17858887,0.368713379,1,0,0,rectangle,17.17858887,0.368713379,1,0,0,17.17858887,0.368713379,1,0,0,0,69,69,62,1,,,,,,,,
,,,,,,,,,,,,,FF,,,,,,,,1.6833,,,,,,,,,,,,,,,,,,,,,,60ff4103610b39d6982ec65e,61037730e6c3d654fcdc63e7,2021-07-29_21h09.54.870,Simcolourproject_2stim_asymm_v5,2020.2.10,MacIntel,60,61025ae37ef11b136ea224fe,,,,,,,,,3359,40.87994385,101.5928345,1,0,0,response1disk,,7,1.319213867,-12.40621948,1,0,0,rectangle,1.319213867,-12.40621948,1,0,0,1.319213867,-12.40621948,1,0,0,0,70,70,130,1,,,,,,,,
,,,,,,,,,,,,,FF,,,,,,,,1.4661,,,,,,,,,,,,,,,,,,,,,,60ff4103610b39d6982ec65e,61037730e6c3d654fcdc63e7,2021-07-29_21h09.54.870,Simcolourproject_2stim_asymm_v5,2020.2.10,MacIntel,60,61025ae37ef11b136ea224fe,,,,,,,,,2853,45.53106689,60.65991211,1,0,0,response1disk,,7,0.555847168,-16.91461182,1,0,0,rectangle,0.555847168,-16.91461182,1,0,0,0.555847168,-16.91461182,1,0,0,0,71,71,1,1,,,,,,,,
,,,,,,,,,,,,,FF,,,,,,,,0.9161,,,,,,,,,,,,,,,,,,,,,,60ff4103610b39d6982ec65e,61037730e6c3d654fcdc63e7,2021-07-29_21h09.54.870,Simcolourproject_2stim_asymm_v5,2020.2.10,MacIntel,60,61025ae37ef11b136ea224fe,,,,,,,,,2347,68.96588135,-51.9395752,1,0,0,response3disk,,5,23.63000488,1.95135498,1,0,0,rectangle,23.63000488,1.95135498,1,0,0,23.63000488,1.95135498,1,0,0,0,72,72,12,1,,,,,,,,
,,,,,,,,,,,,,FF,,,,,,,,1.0998,,,,,,,,,,,,,,,,,,,,,,60ff4103610b39d6982ec65e,61037730e6c3d654fcdc63e7,2021-07-29_21h09.54.870,Simcolourproject_2stim_asymm_v5,2020.2.10,MacIntel,60,61025ae37ef11b136ea224fe,,,,,,,,,3364,18.24505615,91.65982056,1,0,0,response1disk,,7,16.93566895,10.82305908,1,0,0,rectangle,16.93566895,10.82305908,1,0,0,16.93566895,10.82305908,1,0,0,0,73,73,158,1,,,,,,,,
,,,,,,,,,,,,,FF,,,,,,,,0.8176,,,,,,,,,,,,,,,,,,,,,,60ff4103610b39d6982ec65e,61037730e6c3d654fcdc63e7,2021-07-29_21h09.54.870,Simcolourproject_2stim_asymm_v5,2020.2.10,MacIntel,60,61025ae37ef11b136ea224fe,,,,,,,,,3038,-32.17718506,-22.04736328,1,0,0,response5disk,,2,6.365600586,-5.05380249,1,0,0,rectangle,6.365600586,-5.05380249,1,0,0,6.365600586,-5.05380249,1,0,0,0,74,74,20,1,,,,,,,,
,,,,,,,,,,,,,FF,,,,,,,,0.4999,,,,,,,,,,,,,,,,,,,,,,60ff4103610b39d6982ec65e,61037730e6c3d654fcdc63e7,2021-07-29_21h09.54.870,Simcolourproject_2stim_asymm_v5,2020.2.10,MacIntel,60,61025ae37ef11b136ea224fe,,,,,,,,,3661,-23.9163208,-19.63763428,1,0,0,response5disk,,2,4.038818359,-3.440887451,1,0,0,rectangle,4.038818359,-3.440887451,1,0,0,4.038818359,-3.440887451,1,0,0,0,75,75,119,1,,,,,,,,
,,,,,,,,,,,,,FF,,,,,,,,0.7678,,,,,,,,,,,,,,,,,,,,,,60ff4103610b39d6982ec65e,61037730e6c3d654fcdc63e7,2021-07-29_21h09.54.870,Simcolourproject_2stim_asymm_v5,2020.2.10,MacIntel,60,61025ae37ef11b136ea224fe,,,,,,,,,194,-15.84649658,-73.31738281,1,0,0,response5disk,,3,-0.238830566,-1.769165039,1,0,0,rectangle,-0.238830566,-1.769165039,1,0,0,-0.238830566,-1.769165039,1,0,0,0,76,76,102,1,,,,,,,,
,,,,,,,,,,,,,FF,,,,,,,,0.7839,,,,,,,,,,,,,,,,,,,,,,60ff4103610b39d6982ec65e,61037730e6c3d654fcdc63e7,2021-07-29_21h09.54.870,Simcolourproject_2stim_asymm_v5,2020.2.10,MacIntel,60,61025ae37ef11b136ea224fe,,,,,,,,,4188,-76.77246094,-26.66638184,1,0,0,response5disk,,2,-2.404174805,-5.392333984,1,0,0,rectangle,-2.404174805,-5.392333984,1,0,0,-2.404174805,-5.392333984,1,0,0,0,77,77,107,1,,,,,,,,
,,,,,,,,,,,,,FF,,,,,,,,0.6835,,,,,,,,,,,,,,,,,,,,,,60ff4103610b39d6982ec65e,61037730e6c3d654fcdc63e7,2021-07-29_21h09.54.870,Simcolourproject_2stim_asymm_v5,2020.2.10,MacIntel,60,61025ae37ef11b136ea224fe,,,,,,,,,2233,-57.57672119,55.96777344,1,0,0,response7disk,,1,-5.219787598,0.285461426,1,0,0,rectangle,-5.219787598,0.285461426,1,0,0,-5.219787598,0.285461426,1,0,0,0,78,78,96,1,,,,,,,,
,,,,,,,,,,,,,FF,,,,,,,,0.5502,,,,,,,,,,,,,,,,,,,,,,60ff4103610b39d6982ec65e,61037730e6c3d654fcdc63e7,2021-07-29_21h09.54.870,Simcolourproject_2stim_asymm_v5,2020.2.10,MacIntel,60,61025ae37ef11b136ea224fe,,,,,,,,,1775,36.18572998,73.66931152,1,0,0,response1disk,,7,3.200195313,-5.789245605,1,0,0,rectangle,3.200195313,-5.789245605,1,0,0,3.200195313,-5.789245605,1,0,0,0,79,79,121,1,,,,,,,,
,,,,,,,,,,,,,FF,,,,,,,,0.6498,,,,,,,,,,,,,,,,,,,,,,60ff4103610b39d6982ec65e,61037730e6c3d654fcdc63e7,2021-07-29_21h09.54.870,Simcolourproject_2stim_asymm_v5,2020.2.10,MacIntel,60,61025ae37ef11b136ea224fe,,,,,,,,,7,-45.90112305,-24.51324463,1,0,0,response5disk,,2,-9.118286133,-14.04248047,1,0,0,rectangle,-9.118286133,-14.04248047,1,0,0,-9.118286133,-14.04248047,1,0,0,0,80,80,39,1,,,,,,,,
,,,,,,,,,,,,,FF,,,,,,,,0.582,,,,,,,,,,,,,,,,,,,,,,60ff4103610b39d6982ec65e,61037730e6c3d654fcdc63e7,2021-07-29_21h09.54.870,Simcolourproject_2stim_asymm_v5,2020.2.10,MacIntel,60,61025ae37ef11b136ea224fe,,,,,,,,,2133,-51.27185059,-28.25610352,1,0,0,response5disk,,2,-3.505065918,0.756469727,1,0,0,rectangle,-3.505065918,0.756469727,1,0,0,-3.505065918,0.756469727,1,0,0,0,81,81,89,1,,,,,,,,
,,,,,,,,,,,,,FF,,,,,,,,0.4833,,,,,,,,,,,,,,,,,,,,,,60ff4103610b39d6982ec65e,61037730e6c3d654fcdc63e7,2021-07-29_21h09.54.870,Simcolourproject_2stim_asymm_v5,2020.2.10,MacIntel,60,61025ae37ef11b136ea224fe,,,,,,,,,2686,58.56860352,-25.19842529,1,0,0,response3disk,,5,3.874938965,0.653747559,1,0,0,rectangle,3.874938965,0.653747559,1,0,0,3.874938965,0.653747559,1,0,0,0,82,82,78,1,,,,,,,,
,,,,,,,,,,,,,FF,,,,,,,,0.5168,,,,,,,,,,,,,,,,,,,,,,60ff4103610b39d6982ec65e,61037730e6c3d654fcdc63e7,2021-07-29_21h09.54.870,Simcolourproject_2stim_asymm_v5,2020.2.10,MacIntel,60,61025ae37ef11b136ea224fe,,,,,,,,,2025,-42.95904541,44.91223145,1,0,0,response7disk,,0,-16.07049561,9.275421143,1,0,0,rectangle,-16.07049561,9.275421143,1,0,0,-16.07049561,9.275421143,1,0,0,0,83,83,91,1,,,,,,,,
,,,,,,,,,,,,,FF,,,,,,,,0.7167,,,,,,,,,,,,,,,,,,,,,,60ff4103610b39d6982ec65e,61037730e6c3d654fcdc63e7,2021-07-29_21h09.54.870,Simcolourproject_2stim_asymm_v5,2020.2.10,MacIntel,60,61025ae37ef11b136ea224fe,,,,,,,,,4103,-58.39648438,27.09887695,1,0,0,response7disk,,1,7.676513672,0.991455078,1,0,0,rectangle,39.78240967,87.41326904,1,0,0,3.003845215,-5.135864258,1,0,0,0,84,84,137,1,,response1disk_3,TRUE,7,7,"[109,222,89,208,227,139,238,85,53,169,146,41,62,128,189,142,237,272,168,117]",1.2006,rectangle
,,,,,,,,,,,,,FF,,,,,,,,0.5163,,,,,,,,,,,,,,,,,,,,,,60ff4103610b39d6982ec65e,61037730e6c3d654fcdc63e7,2021-07-29_21h09.54.870,Simcolourproject_2stim_asymm_v5,2020.2.10,MacIntel,60,61025ae37ef11b136ea224fe,,,,,,,,,747,64.5657959,30.90786743,1,0,0,response1disk,,6,15.06414795,12.89624023,1,0,0,rectangle,15.06414795,12.89624023,1,0,0,15.06414795,12.89624023,1,0,0,0,85,85,94,1,,,,,,,,
,,,,,,,,,,,,,FF,,,,,,,,0.4337,,,,,,,,,,,,,,,,,,,,,,60ff4103610b39d6982ec65e,61037730e6c3d654fcdc63e7,2021-07-29_21h09.54.870,Simcolourproject_2stim_asymm_v5,2020.2.10,MacIntel,60,61025ae37ef11b136ea224fe,,,,,,,,,1475,69.39160156,-31.28079224,1,0,0,response3disk,,5,0.331054688,12.43048096,1,0,0,rectangle,0.331054688,12.43048096,1,0,0,0.331054688,12.43048096,1,0,0,0,86,86,155,1,,,,,,,,
,,,,,,,,,,,,,FF,,,,,,,,0.5846,,,,,,,,,,,,,,,,,,,,,,60ff4103610b39d6982ec65e,61037730e6c3d654fcdc63e7,2021-07-29_21h09.54.870,Simcolourproject_2stim_asymm_v5,2020.2.10,MacIntel,60,61025ae37ef11b136ea224fe,,,,,,,,,1074,83.61505127,-43.84814453,1,0,0,response3disk,,5,24.42938232,-8.391967773,1,0,0,rectangle,24.42938232,-8.391967773,1,0,0,24.42938232,-8.391967773,1,0,0,0,87,87,70,1,,,,,,,,
,,,,,,,,,,,,,FF,,,,,,,,0.8183,,,,,,,,,,,,,,,,,,,,,,60ff4103610b39d6982ec65e,61037730e6c3d654fcdc63e7,2021-07-29_21h09.54.870,Simcolourproject_2stim_asymm_v5,2020.2.10,MacIntel,60,61025ae37ef11b136ea224fe,,,,,,,,,3303,-45.34051514,-41.63543701,1,0,0,response5disk,,2,8.899414063,-1.498413086,1,0,0,rectangle,-63.6628418,42.63824463,1,0,0,0.642028809,-12.59835815,1,0,0,0,88,88,95,1,,response7disk_3,TRUE,1,1,"[109,222,89,208,227,139,238,85,53,169,146,41,62,128,189,142,237,272,168,117]",1.3001,rectangle
,,,,,,,,,,,,,FF,,,,,,,,1.0658,,,,,,,,,,,,,,,,,,,,,,60ff4103610b39d6982ec65e,61037730e6c3d654fcdc63e7,2021-07-29_21h09.54.870,Simcolourproject_2stim_asymm_v5,2020.2.10,MacIntel,60,61025ae37ef11b136ea224fe,,,,,,,,,3428,-55.34661865,32.71096802,1,0,0,response7disk,,1,5.434387207,-6.740722656,1,0,0,rectangle,5.434387207,-6.740722656,1,0,0,5.434387207,-6.740722656,1,0,0,0,89,89,127,1,,,,,,,,
,,,,,,,,,,,,,FF,,,,,,,,1.0657,,,,,,,,,,,,,,,,,,,,,,60ff4103610b39d6982ec65e,61037730e6c3d654fcdc63e7,2021-07-29_21h09.54.870,Simcolourproject_2stim_asymm_v5,2020.2.10,MacIntel,60,61025ae37ef11b136ea224fe,,,,,,,,,3945,-62.21923828,-35.27130127,1,0,0,response5disk,,2,-6.903991699,-0.251831055,1,0,0,rectangle,-6.903991699,-0.251831055,1,0,0,-6.903991699,-0.251831055,1,0,0,0,90,90,50,1,,,,,,,,
,,,,,,,,,,,,,FF,,,,,,,,0.7686,,,,,,,,,,,,,,,,,,,,,,60ff4103610b39d6982ec65e,61037730e6c3d654fcdc63e7,2021-07-29_21h09.54.870,Simcolourproject_2stim_asymm_v5,2020.2.10,MacIntel,60,61025ae37ef11b136ea224fe,,,,,,,,,4360,53.29046631,81.63168335,1,0,0,response1disk,,7,7.488891602,6.986694336,1,0,0,rectangle,7.488891602,6.986694336,1,0,0,7.488891602,6.986694336,1,0,0,0,91,91,13,1,,,,,,,,
,,,,,,,,,,,,,FF,,,,,,,,0.5151,,,,,,,,,,,,,,,,,,,,,,60ff4103610b39d6982ec65e,61037730e6c3d654fcdc63e7,2021-07-29_21h09.54.870,Simcolourproject_2stim_asymm_v5,2020.2.10,MacIntel,60,61025ae37ef11b136ea224fe,,,,,,,,,3703,29.11810303,41.57409668,1,0,0,response1disk,,7,17.49902344,15.45373535,1,0,0,rectangle,17.49902344,15.45373535,1,0,0,17.49902344,15.45373535,1,0,0,0,92,92,133,1,,,,,,,,
,,,,,,,,,,,,,FF,,,,,,,,0.9759,,,,,,,,,,,,,,,,,,,,,,60ff4103610b39d6982ec65e,61037730e6c3d654fcdc63e7,2021-07-29_21h09.54.870,Simcolourproject_2stim_asymm_v5,2020.2.10,MacIntel,60,61025ae37ef11b136ea224fe,,,,,,,,,530,62.15368652,23.32635498,1,0,0,response1disk,,6,18.55755615,-1.169830322,1,0,0,rectangle,18.55755615,-1.169830322,1,0,0,18.55755615,-1.169830322,1,0,0,0,93,93,4,1,,,,,,,,
,,,,,,,,,,,,,FF,,,,,,,,0.4157,,,,,,,,,,,,,,,,,,,,,,60ff4103610b39d6982ec65e,61037730e6c3d654fcdc63e7,2021-07-29_21h09.54.870,Simcolourproject_2stim_asymm_v5,2020.2.10,MacIntel,60,61025ae37ef11b136ea224fe,,,,,,,,,2525,33.06030273,-35.10049438,1,0,0,response3disk,,4,18.86236572,5.440063477,1,0,0,rectangle,18.86236572,5.440063477,1,0,0,18.86236572,5.440063477,1,0,0,0,94,94,48,1,,,,,,,,
,,,,,,,,,,,,,FF,,,,,,,,0.6678,,,,,,,,,,,,,,,,,,,,,,60ff4103610b39d6982ec65e,61037730e6c3d654fcdc63e7,2021-07-29_21h09.54.870,Simcolourproject_2stim_asymm_v5,2020.2.10,MacIntel,60,61025ae37ef11b136ea224fe,,,,,,,,,2235,-50.7364502,25.71304321,1,0,0,response7disk,,1,4.208557129,-0.450866699,1,0,0,rectangle,4.208557129,-0.450866699,1,0,0,4.208557129,-0.450866699,1,0,0,0,95,95,7,1,,,,,,,,
,,,,,,,,,,,,,FF,,,,,,,,0.4011,,,,,,,,,,,,,,,,,,,,,,60ff4103610b39d6982ec65e,61037730e6c3d654fcdc63e7,2021-07-29_21h09.54.870,Simcolourproject_2stim_asymm_v5,2020.2.10,MacIntel,60,61025ae37ef11b136ea224fe,,,,,,,,,2940,-70.76940918,45.05331421,1,0,0,response7disk,,1,-2.044372559,17.4609375,1,0,0,rectangle,-2.044372559,17.4609375,1,0,0,-2.044372559,17.4609375,1,0,0,0,96,96,143,1,,,,,,,,
,,,,,,,,,,,,,FF,,,,,,,,0.6335,,,,,,,,,,,,,,,,,,,,,,60ff4103610b39d6982ec65e,61037730e6c3d654fcdc63e7,2021-07-29_21h09.54.870,Simcolourproject_2stim_asymm_v5,2020.2.10,MacIntel,60,61025ae37ef11b136ea224fe,,,,,,,,,1037,41.69586182,32.72088623,1,0,0,response1disk,,6,8.898132324,6.546386719,1,0,0,rectangle,8.898132324,6.546386719,1,0,0,8.898132324,6.546386719,1,0,0,0,97,97,72,1,,,,,,,,
,,,,,,,,,,,,,FF,,,,,,,,0.3999,,,,,,,,,,,,,,,,,,,,,,60ff4103610b39d6982ec65e,61037730e6c3d654fcdc63e7,2021-07-29_21h09.54.870,Simcolourproject_2stim_asymm_v5,2020.2.10,MacIntel,60,61025ae37ef11b136ea224fe,,,,,,,,,2134,29.91998291,48.48147583,1,0,0,response1disk,,7,27.40112305,13.99584961,1,0,0,rectangle,27.40112305,13.99584961,1,0,0,27.40112305,13.99584961,1,0,0,0,98,98,0,1,,,,,,,,
,,,,,,,,,,,,,FF,,,,,,,,0.3172,,,,,,,,,,,,,,,,,,,,,,60ff4103610b39d6982ec65e,61037730e6c3d654fcdc63e7,2021-07-29_21h09.54.870,Simcolourproject_2stim_asymm_v5,2020.2.10,MacIntel,60,61025ae37ef11b136ea224fe,,,,,,,,,3648,42.44006348,68.90264893,1,0,0,response1disk,,7,25.42297363,13.074646,1,0,0,rectangle,25.42297363,13.074646,1,0,0,25.42297363,13.074646,1,0,0,0,99,99,83,1,,,,,,,,
,,,,,,,,,,,,,FF,,,,,,,,1.0166,,,,,,,,,,,,,,,,,,,,,,60ff4103610b39d6982ec65e,61037730e6c3d654fcdc63e7,2021-07-29_21h09.54.870,Simcolourproject_2stim_asymm_v5,2020.2.10,MacIntel,60,61025ae37ef11b136ea224fe,,,,,,,,,80,-56.96881104,32.25439453,1,0,0,response7disk,,1,3.356628418,17.9725647,1,0,0,rectangle,3.356628418,17.9725647,1,0,0,3.356628418,17.9725647,1,0,0,0,100,100,87,1,,,,,,,,
,,,,,,,,,,,,,FF,,,,,,,,0.6341,,,,,,,,,,,,,,,,,,,,,,60ff4103610b39d6982ec65e,61037730e6c3d654fcdc63e7,2021-07-29_21h09.54.870,Simcolourproject_2stim_asymm_v5,2020.2.10,MacIntel,60,61025ae37ef11b136ea224fe,,,,,,,,,1629,37.6416626,71.00585938,1,0,0,response1disk,,7,13.41656494,14.81976318,1,0,0,rectangle,13.41656494,14.81976318,1,0,0,13.41656494,14.81976318,1,0,0,0,101,101,149,1,,,,,,,,
,,,,,,,,,,,,,FF,,,,,,,,0.4164,,,,,,,,,,,,,,,,,,,,,,60ff4103610b39d6982ec65e,61037730e6c3d654fcdc63e7,2021-07-29_21h09.54.870,Simcolourproject_2stim_asymm_v5,2020.2.10,MacIntel,60,61025ae37ef11b136ea224fe,,,,,,,,,2983,43.37231445,57.8414917,1,0,0,response1disk,,7,21.22247314,0.500091553,1,0,0,rectangle,21.22247314,0.500091553,1,0,0,21.22247314,0.500091553,1,0,0,0,102,102,21,1,,,,,,,,
,,,,,,,,,,,,,FF,,,,,,,,0.4331,,,,,,,,,,,,,,,,,,,,,,60ff4103610b39d6982ec65e,61037730e6c3d654fcdc63e7,2021-07-29_21h09.54.870,Simcolourproject_2stim_asymm_v5,2020.2.10,MacIntel,60,61025ae37ef11b136ea224fe,,,,,,,,,2472,38.36730957,48.58081055,1,0,0,response1disk,,7,12.64422607,13.88485718,1,0,0,rectangle,12.64422607,13.88485718,1,0,0,12.64422607,13.88485718,1,0,0,0,103,103,73,1,,,,,,,,
,,,,,,,,,,,,,FF,,,,,,,,0.533,,,,,,,,,,,,,,,,,,,,,,60ff4103610b39d6982ec65e,61037730e6c3d654fcdc63e7,2021-07-29_21h09.54.870,Simcolourproject_2stim_asymm_v5,2020.2.10,MacIntel,60,61025ae37ef11b136ea224fe,,,,,,,,,2123,37.64599609,57.36410522,1,0,0,response1disk,,7,25.94116211,9.70602417,1,0,0,rectangle,25.94116211,9.70602417,1,0,0,25.94116211,9.70602417,1,0,0,0,104,104,134,1,,,,,,,,
,,,,,,,,,,,,,FF,,,,,,,,0.533,,,,,,,,,,,,,,,,,,,,,,60ff4103610b39d6982ec65e,61037730e6c3d654fcdc63e7,2021-07-29_21h09.54.870,Simcolourproject_2stim_asymm_v5,2020.2.10,MacIntel,60,61025ae37ef11b136ea224fe,,,,,,,,,3087,28.57757568,61.26879883,1,0,0,response1disk,,7,1.649108887,-6.589385986,1,0,0,rectangle,1.649108887,-6.589385986,1,0,0,1.649108887,-6.589385986,1,0,0,0,105,105,36,1,,,,,,,,
,,,,,,,,,,,,,FF,,,,,,,,0.7672,,,,,,,,,,,,,,,,,,,,,,60ff4103610b39d6982ec65e,61037730e6c3d654fcdc63e7,2021-07-29_21h09.54.870,Simcolourproject_2stim_asymm_v5,2020.2.10,MacIntel,60,61025ae37ef11b136ea224fe,,,,,,,,,1315,24.33337402,57.83074951,1,0,0,response1disk,,7,9.555664063,-3.566101074,1,0,0,rectangle,9.555664063,-3.566101074,1,0,0,9.555664063,-3.566101074,1,0,0,0,106,106,19,1,,,,,,,,
,,,,,,,,,,,,,FF,,,,,,,,0.5686,,,,,,,,,,,,,,,,,,,,,,60ff4103610b39d6982ec65e,61037730e6c3d654fcdc63e7,2021-07-29_21h09.54.870,Simcolourproject_2stim_asymm_v5,2020.2.10,MacIntel,60,61025ae37ef11b136ea224fe,,,,,,,,,3728,36.00323486,-54.61120605,1,0,0,response3disk,,4,9.701599121,12.52429199,1,0,0,rectangle,9.701599121,12.52429199,1,0,0,9.701599121,12.52429199,1,0,0,0,107,107,93,1,,,,,,,,
,,,,,,,,,,,,,FF,,,,,,,,0.6501,,,,,,,,,,,,,,,,,,,,,,60ff4103610b39d6982ec65e,61037730e6c3d654fcdc63e7,2021-07-29_21h09.54.870,Simcolourproject_2stim_asymm_v5,2020.2.10,MacIntel,60,61025ae37ef11b136ea224fe,,,,,,,,,3035,40.27984619,62.7734375,1,0,0,response1disk,,7,28.85681152,-4.648681641,1,0,0,rectangle,86.63323975,38.7053833,1,0,0,9.548278809,0.027893066,1,0,0,0,108,108,80,1,,response1disk_3,TRUE,6,6,"[109,222,89,208,227,139,238,85,53,169,146,41,62,128,189,142,237,272,168,117]",1.3815,rectangle
,,,,,,,,,,,,,FF,,,,,,,,0.7323,,,,,,,,,,,,,,,,,,,,,,60ff4103610b39d6982ec65e,61037730e6c3d654fcdc63e7,2021-07-29_21h09.54.870,Simcolourproject_2stim_asymm_v5,2020.2.10,MacIntel,60,61025ae37ef11b136ea224fe,,,,,,,,,2418,-34.84332275,62.25839233,1,0,0,response7disk,,0,-7.262573242,8.052307129,1,0,0,rectangle,-7.262573242,8.052307129,1,0,0,-7.262573242,8.052307129,1,0,0,0,109,109,31,1,,,,,,,,
,,,,,,,,,,,,,FF,,,,,,,,0.5663,,,,,,,,,,,,,,,,,,,,,,60ff4103610b39d6982ec65e,61037730e6c3d654fcdc63e7,2021-07-29_21h09.54.870,Simcolourproject_2stim_asymm_v5,2020.2.10,MacIntel,60,61025ae37ef11b136ea224fe,,,,,,,,,4314,26.49121094,57.99816895,1,0,0,response1disk,,7,9.398254395,2.786834717,1,0,0,rectangle,9.398254395,2.786834717,1,0,0,9.398254395,2.786834717,1,0,0,0,110,110,68,1,,,,,,,,
,,,,,,,,,,,,,FF,,,,,,,,0.4666,,,,,,,,,,,,,,,,,,,,,,60ff4103610b39d6982ec65e,61037730e6c3d654fcdc63e7,2021-07-29_21h09.54.870,Simcolourproject_2stim_asymm_v5,2020.2.10,MacIntel,60,61025ae37ef11b136ea224fe,,,,,,,,,2080,39.86395264,53.71704102,1,0,0,response1disk,,7,19.29370117,-1.750732422,1,0,0,rectangle,19.29370117,-1.750732422,1,0,0,19.29370117,-1.750732422,1,0,0,0,111,111,46,1,,,,,,,,
,,,,,,,,,,,,,FF,,,,,,,,0.3999,,,,,,,,,,,,,,,,,,,,,,60ff4103610b39d6982ec65e,61037730e6c3d654fcdc63e7,2021-07-29_21h09.54.870,Simcolourproject_2stim_asymm_v5,2020.2.10,MacIntel,60,61025ae37ef11b136ea224fe,,,,,,,,,3619,51.35852051,-19.49713135,1,0,0,response3disk,,5,20.16607666,5.385986328,1,0,0,rectangle,20.16607666,5.385986328,1,0,0,20.16607666,5.385986328,1,0,0,0,112,112,30,1,,,,,,,,
,,,,,,,,,,,,,FF,,,,,,,,0.8327,,,,,,,,,,,,,,,,,,,,,,60ff4103610b39d6982ec65e,61037730e6c3d654fcdc63e7,2021-07-29_21h09.54.870,Simcolourproject_2stim_asymm_v5,2020.2.10,MacIntel,60,61025ae37ef11b136ea224fe,,,,,,,,,3046,-23.19610596,58.07617188,1,0,0,response7disk,,0,-10.14147949,11.59564209,1,0,0,rectangle,-10.14147949,11.59564209,1,0,0,-10.14147949,11.59564209,1,0,0,0,113,113,131,1,,,,,,,,
,,,,,,,,,,,,,FF,,,,,,,,0.5159,,,,,,,,,,,,,,,,,,,,,,60ff4103610b39d6982ec65e,61037730e6c3d654fcdc63e7,2021-07-29_21h09.54.870,Simcolourproject_2stim_asymm_v5,2020.2.10,MacIntel,60,61025ae37ef11b136ea224fe,,,,,,,,,1391,32.4631958,43.46865845,1,0,0,response1disk,,7,16.43548584,14.3145752,1,0,0,rectangle,16.43548584,14.3145752,1,0,0,16.43548584,14.3145752,1,0,0,0,114,114,100,1,,,,,,,,
,,,,,,,,,,,,,FF,,,,,,,,0.533,,,,,,,,,,,,,,,,,,,,,,60ff4103610b39d6982ec65e,61037730e6c3d654fcdc63e7,2021-07-29_21h09.54.870,Simcolourproject_2stim_asymm_v5,2020.2.10,MacIntel,60,61025ae37ef11b136ea224fe,,,,,,,,,1249,26.15649414,61.21154785,1,0,0,response1disk,,7,16.27386475,10.28460693,1,0,0,rectangle,16.27386475,10.28460693,1,0,0,16.27386475,10.28460693,1,0,0,0,115,115,109,1,,,,,,,,
,,,,,,,,,,,,,FF,,,,,,,,0.6827,,,,,,,,,,,,,,,,,,,,,,60ff4103610b39d6982ec65e,61037730e6c3d654fcdc63e7,2021-07-29_21h09.54.870,Simcolourproject_2stim_asymm_v5,2020.2.10,MacIntel,60,61025ae37ef11b136ea224fe,,,,,,,,,2390,47.68041992,73.84887695,1,0,0,response1disk,,7,23.31719971,9.171234131,1,0,0,rectangle,82.50750732,17.29467773,1,0,0,22.85980225,4.795013428,1,0,0,0,116,116,5,1,,response1disk_3,TRUE,6,5,"[109,222,89,208,227,139,238,85,53,169,146,41,62,128,189,142,237,272,168,117]",0.6164,rectangle
,,,,,,,,,,,,,FF,,,,,,,,1.0184,,,,,,,,,,,,,,,,,,,,,,60ff4103610b39d6982ec65e,61037730e6c3d654fcdc63e7,2021-07-29_21h09.54.870,Simcolourproject_2stim_asymm_v5,2020.2.10,MacIntel,60,61025ae37ef11b136ea224fe,,,,,,,,,3875,-29.54071045,67.47106934,1,0,0,response7disk,,0,-10.84796143,-5.071228027,1,0,0,rectangle,-10.84796143,-5.071228027,1,0,0,-10.84796143,-5.071228027,1,0,0,0,117,117,140,1,,,,,,,,
,,,,,,,,,,,,,FF,,,,,,,,0.6002,,,,,,,,,,,,,,,,,,,,,,60ff4103610b39d6982ec65e,61037730e6c3d654fcdc63e7,2021-07-29_21h09.54.870,Simcolourproject_2stim_asymm_v5,2020.2.10,MacIntel,60,61025ae37ef11b136ea224fe,,,,,,,,,2997,34.08361816,57.70574951,1,0,0,response1disk,,7,-2.848083496,-3.698547363,1,0,0,rectangle,-2.848083496,-3.698547363,1,0,0,-2.848083496,-3.698547363,1,0,0,0,118,118,32,1,,,,,,,,
,,,,,,,,,,,,,FF,,,,,,,,0.5337,,,,,,,,,,,,,,,,,,,,,,60ff4103610b39d6982ec65e,61037730e6c3d654fcdc63e7,2021-07-29_21h09.54.870,Simcolourproject_2stim_asymm_v5,2020.2.10,MacIntel,60,61025ae37ef11b136ea224fe,,,,,,,,,453,85.72546387,-39.18951416,1,0,0,response3disk,,5,2.424194336,0.538879395,1,0,0,rectangle,2.424194336,0.538879395,1,0,0,2.424194336,0.538879395,1,0,0,0,119,119,60,1,,,,,,,,
,,,,,,,,,,,,,FF,,,,,,,,0.5192,,,,,,,,,,,,,,,,,,,,,,60ff4103610b39d6982ec65e,61037730e6c3d654fcdc63e7,2021-07-29_21h09.54.870,Simcolourproject_2stim_asymm_v5,2020.2.10,MacIntel,60,61025ae37ef11b136ea224fe,,,,,,,,,487,78.64123535,-23.43371582,1,0,0,response3disk,,5,11.83569336,8.931488037,1,0,0,rectangle,11.83569336,8.931488037,1,0,0,11.83569336,8.931488037,1,0,0,0,120,120,23,1,,,,,,,,
,,,,,,,,,,,,,FF,,,,,,,,0.4509,,,,,,,,,,,,,,,,,,,,,,60ff4103610b39d6982ec65e,61037730e6c3d654fcdc63e7,2021-07-29_21h09.54.870,Simcolourproject_2stim_asymm_v5,2020.2.10,MacIntel,60,61025ae37ef11b136ea224fe,,,,,,,,,3983,-29.64819336,-35.16360474,1,0,0,response5disk,,3,-14.71862793,-6.778686523,1,0,0,rectangle,-14.71862793,-6.778686523,1,0,0,-14.71862793,-6.778686523,1,0,0,0,121,121,124,1,,,,,,,,
,,,,,,,,,,,,,FF,,,,,,,,0.5505,,,,,,,,,,,,,,,,,,,,,,60ff4103610b39d6982ec65e,61037730e6c3d654fcdc63e7,2021-07-29_21h09.54.870,Simcolourproject_2stim_asymm_v5,2020.2.10,MacIntel,60,61025ae37ef11b136ea224fe,,,,,,,,,895,-28.48327637,-51.55514526,1,0,0,response5disk,,3,-17.35247803,-7.483856201,1,0,0,rectangle,-17.35247803,-7.483856201,1,0,0,-17.35247803,-7.483856201,1,0,0,0,122,122,58,1,,,,,,,,
,,,,,,,,,,,,,FF,,,,,,,,0.5859,,,,,,,,,,,,,,,,,,,,,,60ff4103610b39d6982ec65e,61037730e6c3d654fcdc63e7,2021-07-29_21h09.54.870,Simcolourproject_2stim_asymm_v5,2020.2.10,MacIntel,60,61025ae37ef11b136ea224fe,,,,,,,,,4158,27.7868042,67.28833008,1,0,0,response1disk,,7,-9.995849609,-17.2588501,1,0,0,rectangle,-9.995849609,-17.2588501,1,0,0,-9.995849609,-17.2588501,1,0,0,0,123,123,103,1,,,,,,,,
,,,,,,,,,,,,,FF,,,,,,,,0.5337,,,,,,,,,,,,,,,,,,,,,,60ff4103610b39d6982ec65e,61037730e6c3d654fcdc63e7,2021-07-29_21h09.54.870,Simcolourproject_2stim_asymm_v5,2020.2.10,MacIntel,60,61025ae37ef11b136ea224fe,,,,,,,,,4140,-36.69848633,58.47955322,1,0,0,response7disk,,0,-23.60314941,14.74630737,1,0,0,rectangle,-23.60314941,14.74630737,1,0,0,-23.60314941,14.74630737,1,0,0,0,124,124,37,1,,,,,,,,
,,,,,,,,,,,,,FF,,,,,,,,0.5189,,,,,,,,,,,,,,,,,,,,,,60ff4103610b39d6982ec65e,61037730e6c3d654fcdc63e7,2021-07-29_21h09.54.870,Simcolourproject_2stim_asymm_v5,2020.2.10,MacIntel,60,61025ae37ef11b136ea224fe,,,,,,,,,610,26.60498047,68.69232178,1,0,0,response1disk,,7,8.44354248,3.626098633,1,0,0,rectangle,8.44354248,3.626098633,1,0,0,8.44354248,3.626098633,1,0,0,0,125,125,120,1,,,,,,,,
,,,,,,,,,,,,,FF,,,,,,,,0.565,,,,,,,,,,,,,,,,,,,,,,60ff4103610b39d6982ec65e,61037730e6c3d654fcdc63e7,2021-07-29_21h09.54.870,Simcolourproject_2stim_asymm_v5,2020.2.10,MacIntel,60,61025ae37ef11b136ea224fe,,,,,,,,,732,41.18426514,-22.81433105,1,0,0,response3disk,,5,29.97814941,-9.802459717,1,0,0,rectangle,29.97814941,-9.802459717,1,0,0,29.97814941,-9.802459717,1,0,0,0,126,126,141,1,,,,,,,,
,,,,,,,,,,,,,FF,,,,,,,,0.7664,,,,,,,,,,,,,,,,,,,,,,60ff4103610b39d6982ec65e,61037730e6c3d654fcdc63e7,2021-07-29_21h09.54.870,Simcolourproject_2stim_asymm_v5,2020.2.10,MacIntel,60,61025ae37ef11b136ea224fe,,,,,,,,,3354,35.15063477,-55.64215088,1,0,0,response3disk,,4,25.44000244,6.363708496,1,0,0,rectangle,61.21575928,-29.33071899,1,0,0,27.02038574,-3.321960449,1,0,0,0,127,127,77,1,,response3disk_3,TRUE,5,5,"[109,222,89,208,227,139,238,85,53,169,146,41,62,128,189,142,237,272,168,117]",1.4994,rectangle
,,,,,,,,,,,,,FF,,,,,,,,0.6997,,,,,,,,,,,,,,,,,,,,,,60ff4103610b39d6982ec65e,61037730e6c3d654fcdc63e7,2021-07-29_21h09.54.870,Simcolourproject_2stim_asymm_v5,2020.2.10,MacIntel,60,61025ae37ef11b136ea224fe,,,,,,,,,3388,-30.23266602,54.90643311,1,0,0,response7disk,,0,-2.19354248,-0.911193848,1,0,0,rectangle,-2.19354248,-0.911193848,1,0,0,-2.19354248,-0.911193848,1,0,0,0,128,128,154,1,,,,,,,,
,,,,,,,,,,,,,FF,,,,,,,,0.5483,,,,,,,,,,,,,,,,,,,,,,60ff4103610b39d6982ec65e,61037730e6c3d654fcdc63e7,2021-07-29_21h09.54.870,Simcolourproject_2stim_asymm_v5,2020.2.10,MacIntel,60,61025ae37ef11b136ea224fe,,,,,,,,,4075,-34.99456787,56.46401978,1,0,0,response7disk,,0,-6.771240234,10.14065552,1,0,0,rectangle,-6.771240234,10.14065552,1,0,0,-6.771240234,10.14065552,1,0,0,0,129,129,86,1,,,,,,,,
,,,,,,,,,,,,,FF,,,,,,,,1.1509,,,,,,,,,,,,,,,,,,,,,,60ff4103610b39d6982ec65e,61037730e6c3d654fcdc63e7,2021-07-29_21h09.54.870,Simcolourproject_2stim_asymm_v5,2020.2.10,MacIntel,60,61025ae37ef11b136ea224fe,,,,,,,,,2363,-61.49499512,40.14489746,1,0,0,response7disk,,1,27.80316162,-2.264282227,1,0,0,rectangle,27.80316162,-2.264282227,1,0,0,27.80316162,-2.264282227,1,0,0,0,130,130,125,1,,,,,,,,
,,,,,,,,,,,,,FF,,,,,,,,1.0521,,,,,,,,,,,,,,,,,,,,,,60ff4103610b39d6982ec65e,61037730e6c3d654fcdc63e7,2021-07-29_21h09.54.870,Simcolourproject_2stim_asymm_v5,2020.2.10,MacIntel,60,61025ae37ef11b136ea224fe,,,,,,,,,1686,-29.56030273,-50.75482178,1,0,0,response5disk,,3,-4.169311523,-5.771820068,1,0,0,rectangle,-4.169311523,-5.771820068,1,0,0,-4.169311523,-5.771820068,1,0,0,0,131,131,88,1,,,,,,,,
,,,,,,,,,,,,,FF,,,,,,,,0.982,,,,,,,,,,,,,,,,,,,,,,60ff4103610b39d6982ec65e,61037730e6c3d654fcdc63e7,2021-07-29_21h09.54.870,Simcolourproject_2stim_asymm_v5,2020.2.10,MacIntel,60,61025ae37ef11b136ea224fe,,,,,,,,,48,78.38256836,-44.82568359,1,0,0,response3disk,,5,21.4230957,-3.099304199,1,0,0,rectangle,21.4230957,-3.099304199,1,0,0,21.4230957,-3.099304199,1,0,0,0,132,132,114,1,,,,,,,,
,,,,,,,,,,,,,FF,,,,,,,,0.9672,,,,,,,,,,,,,,,,,,,,,,60ff4103610b39d6982ec65e,61037730e6c3d654fcdc63e7,2021-07-29_21h09.54.870,Simcolourproject_2stim_asymm_v5,2020.2.10,MacIntel,60,61025ae37ef11b136ea224fe,,,,,,,,,2090,58.11962891,-31.42736816,1,0,0,response3disk,,5,15.01300049,15.75378418,1,0,0,rectangle,15.01300049,15.75378418,1,0,0,15.01300049,15.75378418,1,0,0,0,133,133,105,1,,,,,,,,
,,,,,,,,,,,,,FF,,,,,,,,0.9015,,,,,,,,,,,,,,,,,,,,,,60ff4103610b39d6982ec65e,61037730e6c3d654fcdc63e7,2021-07-29_21h09.54.870,Simcolourproject_2stim_asymm_v5,2020.2.10,MacIntel,60,61025ae37ef11b136ea224fe,,,,,,,,,3511,-31.32208252,55.44244385,1,0,0,response7disk,,0,-12.67541504,5.616333008,1,0,0,rectangle,-12.67541504,5.616333008,1,0,0,-12.67541504,5.616333008,1,0,0,0,134,134,157,1,,,,,,,,
,,,,,,,,,,,,,FF,,,,,,,,0.9503,,,,,,,,,,,,,,,,,,,,,,60ff4103610b39d6982ec65e,61037730e6c3d654fcdc63e7,2021-07-29_21h09.54.870,Simcolourproject_2stim_asymm_v5,2020.2.10,MacIntel,60,61025ae37ef11b136ea224fe,,,,,,,,,228,35.03375244,61.96542358,1,0,0,response1disk,,7,7.899719238,5.079223633,1,0,0,rectangle,7.899719238,5.079223633,1,0,0,7.899719238,5.079223633,1,0,0,0,135,135,145,1,,,,,,,,
,,,,,,,,,,,,,FF,,,,,,,,0.5516,,,,,,,,,,,,,,,,,,,,,,60ff4103610b39d6982ec65e,61037730e6c3d654fcdc63e7,2021-07-29_21h09.54.870,Simcolourproject_2stim_asymm_v5,2020.2.10,MacIntel,60,61025ae37ef11b136ea224fe,,,,,,,,,1805,71.13867188,-27.32781982,1,0,0,response3disk,,5,19.22503662,16.51370239,1,0,0,rectangle,19.22503662,16.51370239,1,0,0,19.22503662,16.51370239,1,0,0,0,136,136,136,1,,,,,,,,
,,,,,,,,,,,,,FF,,,,,,,,0.3989,,,,,,,,,,,,,,,,,,,,,,60ff4103610b39d6982ec65e,61037730e6c3d654fcdc63e7,2021-07-29_21h09.54.870,Simcolourproject_2stim_asymm_v5,2020.2.10,MacIntel,60,61025ae37ef11b136ea224fe,,,,,,,,,1426,45.293396,-63.61633301,1,0,0,response3disk,,4,8.034057617,-1.583984375,1,0,0,rectangle,8.034057617,-1.583984375,1,0,0,8.034057617,-1.583984375,1,0,0,0,137,137,3,1,,,,,,,,
,,,,,,,,,,,,,FF,,,,,,,,0.5495,,,,,,,,,,,,,,,,,,,,,,60ff4103610b39d6982ec65e,61037730e6c3d654fcdc63e7,2021-07-29_21h09.54.870,Simcolourproject_2stim_asymm_v5,2020.2.10,MacIntel,60,61025ae37ef11b136ea224fe,,,,,,,,,4215,-23.22332764,-55.11871338,1,0,0,response5disk,,3,9.523864746,3.918395996,1,0,0,rectangle,57.0803833,-38.81347656,1,0,0,8.127929688,-1.164306641,1,0,0,0,138,138,85,1,,response3disk_3,TRUE,5,5,"[109,222,89,208,227,139,238,85,53,169,146,41,62,128,189,142,237,272,168,117]",1.316,rectangle
,,,,,,,,,,,,,FF,,,,,,,,0.5493,,,,,,,,,,,,,,,,,,,,,,60ff4103610b39d6982ec65e,61037730e6c3d654fcdc63e7,2021-07-29_21h09.54.870,Simcolourproject_2stim_asymm_v5,2020.2.10,MacIntel,60,61025ae37ef11b136ea224fe,,,,,,,,,1408,71.89819336,33.96679688,1,0,0,response1disk,,6,35.44976807,15.48034668,1,0,0,rectangle,35.44976807,15.48034668,1,0,0,35.44976807,15.48034668,1,0,0,0,139,139,118,1,,,,,,,,
,,,,,,,,,,,,,FF,,,,,,,,0.6166,,,,,,,,,,,,,,,,,,,,,,60ff4103610b39d6982ec65e,61037730e6c3d654fcdc63e7,2021-07-29_21h09.54.870,Simcolourproject_2stim_asymm_v5,2020.2.10,MacIntel,60,61025ae37ef11b136ea224fe,,,,,,,,,1378,55.2734375,-37.28414917,1,0,0,response3disk,,5,-3.217468262,-1.933685303,1,0,0,rectangle,-3.217468262,-1.933685303,1,0,0,-3.217468262,-1.933685303,1,0,0,0,140,140,75,1,,,,,,,,
,,,,,,,,,,,,,FF,,,,,,,,0.587,,,,,,,,,,,,,,,,,,,,,,60ff4103610b39d6982ec65e,61037730e6c3d654fcdc63e7,2021-07-29_21h09.54.870,Simcolourproject_2stim_asymm_v5,2020.2.10,MacIntel,60,61025ae37ef11b136ea224fe,,,,,,,,,713,29.79693604,49.07775879,1,0,0,response1disk,,7,21.63293457,11.45544434,1,0,0,rectangle,-75.0456543,-27.79125977,1,0,0,1.617736816,-11.84515381,1,0,0,0,141,141,112,1,,response5disk_3,TRUE,2,2,"[109,222,89,208,227,139,238,85,53,169,146,41,62,128,189,142,237,272,168,117]",1.5672,rectangle
,,,,,,,,,,,,,FF,,,,,,,,3.0332,,,,,,,,,,,,,,,,,,,,,,60ff4103610b39d6982ec65e,61037730e6c3d654fcdc63e7,2021-07-29_21h09.54.870,Simcolourproject_2stim_asymm_v5,2020.2.10,MacIntel,60,61025ae37ef11b136ea224fe,,,,,,,,,718,-76.95355225,38.71325684,1,0,0,response7disk,,1,-18.6463623,13.31216431,1,0,0,rectangle,-18.6463623,13.31216431,1,0,0,-18.6463623,13.31216431,1,0,0,0,142,142,41,1,,,,,,,,
,,,,,,,,,,,,,FF,,,,,,,,0.5334,,,,,,,,,,,,,,,,,,,,,,60ff4103610b39d6982ec65e,61037730e6c3d654fcdc63e7,2021-07-29_21h09.54.870,Simcolourproject_2stim_asymm_v5,2020.2.10,MacIntel,60,61025ae37ef11b136ea224fe,,,,,,,,,4147,-23.2298584,68.76019287,1,0,0,response7disk,,0,-22.97174072,9.309906006,1,0,0,rectangle,-22.97174072,9.309906006,1,0,0,-22.97174072,9.309906006,1,0,0,0,143,143,66,1,,,,,,,,
,,,,,,,,,,,,,FF,,,,,,,,0.6994,,,,,,,,,,,,,,,,,,,,,,60ff4103610b39d6982ec65e,61037730e6c3d654fcdc63e7,2021-07-29_21h09.54.870,Simcolourproject_2stim_asymm_v5,2020.2.10,MacIntel,60,61025ae37ef11b136ea224fe,,,,,,,,,1694,40.1842041,36.23065186,1,0,0,response1disk,,6,5.55065918,6.041809082,1,0,0,rectangle,5.55065918,6.041809082,1,0,0,5.55065918,6.041809082,1,0,0,0,144,144,144,1,,,,,,,,
,,,,,,,,,,,,,FF,,,,,,,,0.8495,,,,,,,,,,,,,,,,,,,,,,60ff4103610b39d6982ec65e,61037730e6c3d654fcdc63e7,2021-07-29_21h09.54.870,Simcolourproject_2stim_asymm_v5,2020.2.10,MacIntel,60,61025ae37ef11b136ea224fe,,,,,,,,,528,-49.08532715,-31.98168945,1,0,0,response5disk,,2,6.224609375,2.917297363,1,0,0,rectangle,-67.55627441,-44.7253418,1,0,0,-12.4152832,-10.14129639,1,0,0,0,145,145,59,1,,response5disk_3,TRUE,2,2,"[109,222,89,208,227,139,238,85,53,169,146,41,62,128,189,142,237,272,168,117]",1.7665,rectangle
,,,,,,,,,,,,,FF,,,,,,,,0.6673,,,,,,,,,,,,,,,,,,,,,,60ff4103610b39d6982ec65e,61037730e6c3d654fcdc63e7,2021-07-29_21h09.54.870,Simcolourproject_2stim_asymm_v5,2020.2.10,MacIntel,60,61025ae37ef11b136ea224fe,,,,,,,,,3379,60.86401367,-40.51220703,1,0,0,response3disk,,5,-2.583618164,2.599853516,1,0,0,rectangle,-2.583618164,2.599853516,1,0,0,-2.583618164,2.599853516,1,0,0,0,146,146,42,1,,,,,,,,
,,,,,,,,,,,,,FF,,,,,,,,0.716,,,,,,,,,,,,,,,,,,,,,,60ff4103610b39d6982ec65e,61037730e6c3d654fcdc63e7,2021-07-29_21h09.54.870,Simcolourproject_2stim_asymm_v5,2020.2.10,MacIntel,60,61025ae37ef11b136ea224fe,,,,,,,,,1774,72.65130615,22.49493408,1,0,0,response1disk,,6,16.519104,2.990142822,1,0,0,rectangle,16.519104,2.990142822,1,0,0,16.519104,2.990142822,1,0,0,0,147,147,55,1,,,,,,,,
,,,,,,,,,,,,,FF,,,,,,,,0.4171,,,,,,,,,,,,,,,,,,,,,,60ff4103610b39d6982ec65e,61037730e6c3d654fcdc63e7,2021-07-29_21h09.54.870,Simcolourproject_2stim_asymm_v5,2020.2.10,MacIntel,60,61025ae37ef11b136ea224fe,,,,,,,,,4291,63.59307861,25.63250732,1,0,0,response1disk,,6,17.69348145,14.87854004,1,0,0,rectangle,17.69348145,14.87854004,1,0,0,17.69348145,14.87854004,1,0,0,0,148,148,51,1,,,,,,,,
,,,,,,,,,,,,,FF,,,,,,,,0.3833,,,,,,,,,,,,,,,,,,,,,,60ff4103610b39d6982ec65e,61037730e6c3d654fcdc63e7,2021-07-29_21h09.54.870,Simcolourproject_2stim_asymm_v5,2020.2.10,MacIntel,60,61025ae37ef11b136ea224fe,,,,,,,,,2209,26.59216309,58.41174316,1,0,0,response1disk,,7,13.99969482,16.6809082,1,0,0,rectangle,13.99969482,16.6809082,1,0,0,13.99969482,16.6809082,1,0,0,0,149,149,122,1,,,,,,,,
,,,,,,,,,,,,,FF,,,,,,,,0.4159,,,,,,,,,,,,,,,,,,,,,,60ff4103610b39d6982ec65e,61037730e6c3d654fcdc63e7,2021-07-29_21h09.54.870,Simcolourproject_2stim_asymm_v5,2020.2.10,MacIntel,60,61025ae37ef11b136ea224fe,,,,,,,,,2317,41.6015625,53.91583252,1,0,0,response1disk,,7,12.03253174,-6.842590332,1,0,0,rectangle,12.03253174,-6.842590332,1,0,0,12.03253174,-6.842590332,1,0,0,0,150,150,57,1,,,,,,,,
,,,,,,,,,,,,,FF,,,,,,,,0.4325,,,,,,,,,,,,,,,,,,,,,,60ff4103610b39d6982ec65e,61037730e6c3d654fcdc63e7,2021-07-29_21h09.54.870,Simcolourproject_2stim_asymm_v5,2020.2.10,MacIntel,60,61025ae37ef11b136ea224fe,,,,,,,,,1912,39.32928467,63.64959717,1,0,0,response1disk,,7,16.29425049,0.87210083,1,0,0,rectangle,16.29425049,0.87210083,1,0,0,16.29425049,0.87210083,1,0,0,0,151,151,56,1,,,,,,,,
,,,,,,,,,,,,,FF,,,,,,,,0.6157,,,,,,,,,,,,,,,,,,,,,,60ff4103610b39d6982ec65e,61037730e6c3d654fcdc63e7,2021-07-29_21h09.54.870,Simcolourproject_2stim_asymm_v5,2020.2.10,MacIntel,60,61025ae37ef11b136ea224fe,,,,,,,,,838,37.12774658,68.79449463,1,0,0,response1disk,,7,9.770751953,-2.370910645,1,0,0,rectangle,9.770751953,-2.370910645,1,0,0,9.770751953,-2.370910645,1,0,0,0,152,152,64,1,,,,,,,,
,,,,,,,,,,,,,FF,,,,,,,,0.8332,,,,,,,,,,,,,,,,,,,,,,60ff4103610b39d6982ec65e,61037730e6c3d654fcdc63e7,2021-07-29_21h09.54.870,Simcolourproject_2stim_asymm_v5,2020.2.10,MacIntel,60,61025ae37ef11b136ea224fe,,,,,,,,,3844,-80.14074707,-40.48406982,1,0,0,response5disk,,2,-5.532531738,-0.2578125,1,0,0,rectangle,-5.532531738,-0.2578125,1,0,0,-5.532531738,-0.2578125,1,0,0,0,153,153,115,1,,,,,,,,
,,,,,,,,,,,,,FF,,,,,,,,0.6846,,,,,,,,,,,,,,,,,,,,,,60ff4103610b39d6982ec65e,61037730e6c3d654fcdc63e7,2021-07-29_21h09.54.870,Simcolourproject_2stim_asymm_v5,2020.2.10,MacIntel,60,61025ae37ef11b136ea224fe,,,,,,,,,3634,-32.10803223,-81.92480469,1,0,0,response5disk,,3,2.461669922,7.63494873,1,0,0,rectangle,2.461669922,7.63494873,1,0,0,2.461669922,7.63494873,1,0,0,0,154,154,128,1,,,,,,,,
,,,,,,,,,,,,,FF,,,,,,,,1.0498,,,,,,,,,,,,,,,,,,,,,,60ff4103610b39d6982ec65e,61037730e6c3d654fcdc63e7,2021-07-29_21h09.54.870,Simcolourproject_2stim_asymm_v5,2020.2.10,MacIntel,60,61025ae37ef11b136ea224fe,,,,,,,,,3043,22.34082031,57.69451904,1,0,0,response1disk,,7,6.638427734,-0.405029297,1,0,0,rectangle,6.638427734,-0.405029297,1,0,0,6.638427734,-0.405029297,1,0,0,0,155,155,153,1,,,,,,,,
,,,,,,,,,,,,,FF,,,,,,,,0.5344,,,,,,,,,,,,,,,,,,,,,,60ff4103610b39d6982ec65e,61037730e6c3d654fcdc63e7,2021-07-29_21h09.54.870,Simcolourproject_2stim_asymm_v5,2020.2.10,MacIntel,60,61025ae37ef11b136ea224fe,,,,,,,,,1552,56.4979248,-27.11755371,1,0,0,response3disk,,5,8.274536133,2.208557129,1,0,0,rectangle,8.274536133,2.208557129,1,0,0,8.274536133,2.208557129,1,0,0,0,156,156,135,1,,,,,,,,
,,,,,,,,,,,,,FF,,,,,,,,1.1181,,,,,,,,,,,,,,,,,,,,,,60ff4103610b39d6982ec65e,61037730e6c3d654fcdc63e7,2021-07-29_21h09.54.870,Simcolourproject_2stim_asymm_v5,2020.2.10,MacIntel,60,61025ae37ef11b136ea224fe,,,,,,,,,1524,34.36193848,65.07693481,1,0,0,response1disk,,7,26.6015625,-3.664978027,1,0,0,rectangle,26.6015625,-3.664978027,1,0,0,26.6015625,-3.664978027,1,0,0,0,157,157,27,1,,,,,,,,
,,,,,,,,,,,,,FF,,,,,,,,0.6671,,,,,,,,,,,,,,,,,,,,,,60ff4103610b39d6982ec65e,61037730e6c3d654fcdc63e7,2021-07-29_21h09.54.870,Simcolourproject_2stim_asymm_v5,2020.2.10,MacIntel,60,61025ae37ef11b136ea224fe,,,,,,,,,3725,42.57128906,-35.33389282,1,0,0,response3disk,,5,12.20983887,-0.355834961,1,0,0,rectangle,12.20983887,-0.355834961,1,0,0,12.20983887,-0.355834961,1,0,0,0,158,158,18,1,,,,,,,,
,,,,,,,,,,,,,FF,,,,,,,,0.7177,,,,,,,,,,,,,,,,,,,,,,60ff4103610b39d6982ec65e,61037730e6c3d654fcdc63e7,2021-07-29_21h09.54.870,Simcolourproject_2stim_asymm_v5,2020.2.10,MacIntel,60,61025ae37ef11b136ea224fe,,,,,,,,,2606,-36.98071289,57.65783691,1,0,0,response7disk,,0,-10.85223389,0.493469238,1,0,0,rectangle,-10.85223389,0.493469238,1,0,0,-10.85223389,0.493469238,1,0,0,0,159,159,44,1,,,,,,,,
,,,,,,,,,,,,,FF,,,,,,,,1.8493,,,,,,,,,,,,,,,,,,,,,,60ff4103610b39d6982ec65e,61037730e6c3d654fcdc63e7,2021-07-29_21h09.54.870,Simcolourproject_2stim_asymm_v5,2020.2.10,MacIntel,60,61025ae37ef11b136ea224fe,,,,,,,,,1844,40.99542236,-57.79486084,1,0,0,response3disk,,4,12.94616699,1.597290039,1,0,0,rectangle,12.94616699,1.597290039,1,0,0,12.94616699,1.597290039,1,0,0,1,0,160,49,1,,,,,,,,
,,,,,,,,,,,,,FF,,,,,,,,0.6331,,,,,,,,,,,,,,,,,,,,,,60ff4103610b39d6982ec65e,61037730e6c3d654fcdc63e7,2021-07-29_21h09.54.870,Simcolourproject_2stim_asymm_v5,2020.2.10,MacIntel,60,61025ae37ef11b136ea224fe,,,,,,,,,3670,-24.59173584,54.45025635,1,0,0,response7disk,,0,-10.30273438,12.04089355,1,0,0,rectangle,-10.30273438,12.04089355,1,0,0,-10.30273438,12.04089355,1,0,0,1,1,161,109,1,,,,,,,,
,,,,,,,,,,,,,FF,,,,,,,,0.615,,,,,,,,,,,,,,,,,,,,,,60ff4103610b39d6982ec65e,61037730e6c3d654fcdc63e7,2021-07-29_21h09.54.870,Simcolourproject_2stim_asymm_v5,2020.2.10,MacIntel,60,61025ae37ef11b136ea224fe,,,,,,,,,3590,46.11431885,64.94812012,1,0,0,response1disk,,7,13.02893066,16.33209229,1,0,0,rectangle,13.02893066,16.33209229,1,0,0,13.02893066,16.33209229,1,0,0,1,2,162,121,1,,,,,,,,
,,,,,,,,,,,,,FF,,,,,,,,0.7016,,,,,,,,,,,,,,,,,,,,,,60ff4103610b39d6982ec65e,61037730e6c3d654fcdc63e7,2021-07-29_21h09.54.870,Simcolourproject_2stim_asymm_v5,2020.2.10,MacIntel,60,61025ae37ef11b136ea224fe,,,,,,,,,198,68.83251953,21.62518311,1,0,0,response1disk,,6,1.672912598,-9.097412109,1,0,0,rectangle,1.672912598,-9.097412109,1,0,0,1.672912598,-9.097412109,1,0,0,1,3,163,35,1,,,,,,,,
,,,,,,,,,,,,,FF,,,,,,,,1.1182,,,,,,,,,,,,,,,,,,,,,,60ff4103610b39d6982ec65e,61037730e6c3d654fcdc63e7,2021-07-29_21h09.54.870,Simcolourproject_2stim_asymm_v5,2020.2.10,MacIntel,60,61025ae37ef11b136ea224fe,,,,,,,,,2286,21.27844238,71.64260864,1,0,0,response1disk,,7,10.11517334,-17.72167969,1,0,0,rectangle,10.11517334,-17.72167969,1,0,0,10.11517334,-17.72167969,1,0,0,1,4,164,92,1,,,,,,,,
,,,,,,,,,,,,,FF,,,,,,,,0.8497,,,,,,,,,,,,,,,,,,,,,,60ff4103610b39d6982ec65e,61037730e6c3d654fcdc63e7,2021-07-29_21h09.54.870,Simcolourproject_2stim_asymm_v5,2020.2.10,MacIntel,60,61025ae37ef11b136ea224fe,,,,,,,,,4100,43.17224121,-45.7961731,1,0,0,response3disk,,4,24.23150635,-10.72705078,1,0,0,rectangle,24.23150635,-10.72705078,1,0,0,24.23150635,-10.72705078,1,0,0,1,5,165,116,1,,,,,,,,
,,,,,,,,,,,,,FF,,,,,,,,1.3502,,,,,,,,,,,,,,,,,,,,,,60ff4103610b39d6982ec65e,61037730e6c3d654fcdc63e7,2021-07-29_21h09.54.870,Simcolourproject_2stim_asymm_v5,2020.2.10,MacIntel,60,61025ae37ef11b136ea224fe,,,,,,,,,1455,-71.17346191,43.43826294,1,0,0,response7disk,,1,19.36053467,2.825256348,1,0,0,rectangle,19.36053467,2.825256348,1,0,0,19.36053467,2.825256348,1,0,0,1,6,166,80,1,,,,,,,,
,,,,,,,,,,,,,FF,,,,,,,,1.2157,,,,,,,,,,,,,,,,,,,,,,60ff4103610b39d6982ec65e,61037730e6c3d654fcdc63e7,2021-07-29_21h09.54.870,Simcolourproject_2stim_asymm_v5,2020.2.10,MacIntel,60,61025ae37ef11b136ea224fe,,,,,,,,,4138,42.02929688,-35.50302124,1,0,0,response3disk,,5,12.31750488,-2.981323242,1,0,0,rectangle,40.34539795,74.58505249,1,0,0,23.11566162,5.180847168,1,0,0,1,7,167,37,1,,response1disk_3,TRUE,7,7,"[109,222,89,208,227,139,238,85,53,169,146,41,62,128,189,142,237,272,168,117]",1.316,rectangle
,,,,,,,,,,,,,FF,,,,,,,,0.5671,,,,,,,,,,,,,,,,,,,,,,60ff4103610b39d6982ec65e,61037730e6c3d654fcdc63e7,2021-07-29_21h09.54.870,Simcolourproject_2stim_asymm_v5,2020.2.10,MacIntel,60,61025ae37ef11b136ea224fe,,,,,,,,,1619,64.11785889,-55.29385376,1,0,0,response3disk,,5,28.72088623,-17.90466309,1,0,0,rectangle,-23.90679932,-84.09643555,1,0,0,-6.910095215,-3.215698242,1,0,0,1,8,168,40,1,,response5disk_3,TRUE,3,3,"[109,222,89,208,227,139,238,85,53,169,146,41,62,128,189,142,237,272,168,117]",1.9317,rectangle
,,,,,,,,,,,,,FF,,,,,,,,0.6504,,,,,,,,,,,,,,,,,,,,,,60ff4103610b39d6982ec65e,61037730e6c3d654fcdc63e7,2021-07-29_21h09.54.870,Simcolourproject_2stim_asymm_v5,2020.2.10,MacIntel,60,61025ae37ef11b136ea224fe,,,,,,,,,3750,46.80859375,-32.41168213,1,0,0,response3disk,,5,-3.788635254,-4.498413086,1,0,0,rectangle,-3.788635254,-4.498413086,1,0,0,-3.788635254,-4.498413086,1,0,0,1,9,169,65,1,,,,,,,,
,,,,,,,,,,,,,FF,,,,,,,,0.851,,,,,,,,,,,,,,,,,,,,,,60ff4103610b39d6982ec65e,61037730e6c3d654fcdc63e7,2021-07-29_21h09.54.870,Simcolourproject_2stim_asymm_v5,2020.2.10,MacIntel,60,61025ae37ef11b136ea224fe,,,,,,,,,3730,18.14581299,-63.98114014,1,0,0,response3disk,,4,17.29614258,-9.805877686,1,0,0,rectangle,17.29614258,-9.805877686,1,0,0,17.29614258,-9.805877686,1,0,0,1,10,170,107,1,,,,,,,,
,,,,,,,,,,,,,FF,,,,,,,,0.7668,,,,,,,,,,,,,,,,,,,,,,60ff4103610b39d6982ec65e,61037730e6c3d654fcdc63e7,2021-07-29_21h09.54.870,Simcolourproject_2stim_asymm_v5,2020.2.10,MacIntel,60,61025ae37ef11b136ea224fe,,,,,,,,,1465,-21.82391357,-64.65362549,1,0,0,response5disk,,3,5.401428223,-2.248779297,1,0,0,rectangle,5.401428223,-2.248779297,1,0,0,5.401428223,-2.248779297,1,0,0,1,11,171,73,1,,,,,,,,
,,,,,,,,,,,,,FF,,,,,,,,0.7011,,,,,,,,,,,,,,,,,,,,,,60ff4103610b39d6982ec65e,61037730e6c3d654fcdc63e7,2021-07-29_21h09.54.870,Simcolourproject_2stim_asymm_v5,2020.2.10,MacIntel,60,61025ae37ef11b136ea224fe,,,,,,,,,2713,-24.65008545,-44.74298096,1,0,0,response5disk,,3,3.231811523,2.862487793,1,0,0,rectangle,3.231811523,2.862487793,1,0,0,3.231811523,2.862487793,1,0,0,1,12,172,139,1,,,,,,,,
,,,,,,,,,,,,,FF,,,,,,,,0.5839,,,,,,,,,,,,,,,,,,,,,,60ff4103610b39d6982ec65e,61037730e6c3d654fcdc63e7,2021-07-29_21h09.54.870,Simcolourproject_2stim_asymm_v5,2020.2.10,MacIntel,60,61025ae37ef11b136ea224fe,,,,,,,,,3839,-32.47302246,-60.07312012,1,0,0,response5disk,,3,13.63238525,4.748321533,1,0,0,rectangle,13.63238525,4.748321533,1,0,0,13.63238525,4.748321533,1,0,0,1,13,173,150,1,,,,,,,,
,,,,,,,,,,,,,FF,,,,,,,,0.5183,,,,,,,,,,,,,,,,,,,,,,60ff4103610b39d6982ec65e,61037730e6c3d654fcdc63e7,2021-07-29_21h09.54.870,Simcolourproject_2stim_asymm_v5,2020.2.10,MacIntel,60,61025ae37ef11b136ea224fe,,,,,,,,,1920,43.52636719,46.47918701,1,0,0,response1disk,,7,19.21429443,16.71185303,1,0,0,rectangle,19.21429443,16.71185303,1,0,0,19.21429443,16.71185303,1,0,0,1,14,174,106,1,,,,,,,,
,,,,,,,,,,,,,FF,,,,,,,,0.9834,,,,,,,,,,,,,,,,,,,,,,60ff4103610b39d6982ec65e,61037730e6c3d654fcdc63e7,2021-07-29_21h09.54.870,Simcolourproject_2stim_asymm_v5,2020.2.10,MacIntel,60,61025ae37ef11b136ea224fe,,,,,,,,,2115,55.99975586,-19.16906738,1,0,0,response3disk,,5,19.88372803,-7.297546387,1,0,0,rectangle,19.88372803,-7.297546387,1,0,0,19.88372803,-7.297546387,1,0,0,1,15,175,115,1,,,,,,,,
,,,,,,,,,,,,,FF,,,,,,,,0.5018,,,,,,,,,,,,,,,,,,,,,,60ff4103610b39d6982ec65e,61037730e6c3d654fcdc63e7,2021-07-29_21h09.54.870,Simcolourproject_2stim_asymm_v5,2020.2.10,MacIntel,60,61025ae37ef11b136ea224fe,,,,,,,,,2883,47.87841797,-22.51531982,1,0,0,response3disk,,5,3.172485352,-3.995605469,1,0,0,rectangle,3.172485352,-3.995605469,1,0,0,3.172485352,-3.995605469,1,0,0,1,16,176,41,1,,,,,,,,
,,,,,,,,,,,,,FF,,,,,,,,0.6333,,,,,,,,,,,,,,,,,,,,,,60ff4103610b39d6982ec65e,61037730e6c3d654fcdc63e7,2021-07-29_21h09.54.870,Simcolourproject_2stim_asymm_v5,2020.2.10,MacIntel,60,61025ae37ef11b136ea224fe,,,,,,,,,3378,34.88787842,-42.68835449,1,0,0,response3disk,,4,21.55712891,-7.102020264,1,0,0,rectangle,21.55712891,-7.102020264,1,0,0,21.55712891,-7.102020264,1,0,0,1,17,177,149,1,,,,,,,,
,,,,,,,,,,,,,FF,,,,,,,,0.5326,,,,,,,,,,,,,,,,,,,,,,60ff4103610b39d6982ec65e,61037730e6c3d654fcdc63e7,2021-07-29_21h09.54.870,Simcolourproject_2stim_asymm_v5,2020.2.10,MacIntel,60,61025ae37ef11b136ea224fe,,,,,,,,,3168,33.33062744,-55.78015137,1,0,0,response3disk,,4,20.49230957,-2.432312012,1,0,0,rectangle,20.49230957,-2.432312012,1,0,0,20.49230957,-2.432312012,1,0,0,1,18,178,98,1,,,,,,,,
,,,,,,,,,,,,,FF,,,,,,,,0.4167,,,,,,,,,,,,,,,,,,,,,,60ff4103610b39d6982ec65e,61037730e6c3d654fcdc63e7,2021-07-29_21h09.54.870,Simcolourproject_2stim_asymm_v5,2020.2.10,MacIntel,60,61025ae37ef11b136ea224fe,,,,,,,,,3604,-24.03289795,-82.47357178,1,0,0,response5disk,,3,6.680053711,1.00402832,1,0,0,rectangle,6.680053711,1.00402832,1,0,0,6.680053711,1.00402832,1,0,0,1,19,179,120,1,,,,,,,,
,,,,,,,,,,,,,FF,,,,,,,,0.8343,,,,,,,,,,,,,,,,,,,,,,60ff4103610b39d6982ec65e,61037730e6c3d654fcdc63e7,2021-07-29_21h09.54.870,Simcolourproject_2stim_asymm_v5,2020.2.10,MacIntel,60,61025ae37ef11b136ea224fe,,,,,,,,,2079,67.58630371,-35.60211182,1,0,0,response3disk,,5,-2.210144043,6.265686035,1,0,0,rectangle,-2.210144043,6.265686035,1,0,0,-2.210144043,6.265686035,1,0,0,1,20,180,99,1,,,,,,,,
,,,,,,,,,,,,,FF,,,,,,,,0.5167,,,,,,,,,,,,,,,,,,,,,,60ff4103610b39d6982ec65e,61037730e6c3d654fcdc63e7,2021-07-29_21h09.54.870,Simcolourproject_2stim_asymm_v5,2020.2.10,MacIntel,60,61025ae37ef11b136ea224fe,,,,,,,,,1656,60.64257813,-33.54058838,1,0,0,response3disk,,5,8.211303711,13.04418945,1,0,0,rectangle,8.211303711,13.04418945,1,0,0,8.211303711,13.04418945,1,0,0,1,21,181,135,1,,,,,,,,
,,,,,,,,,,,,,FF,,,,,,,,0.6159,,,,,,,,,,,,,,,,,,,,,,60ff4103610b39d6982ec65e,61037730e6c3d654fcdc63e7,2021-07-29_21h09.54.870,Simcolourproject_2stim_asymm_v5,2020.2.10,MacIntel,60,61025ae37ef11b136ea224fe,,,,,,,,,219,74.03894043,28.19140625,1,0,0,response1disk,,6,14.80249023,-1.55255127,1,0,0,rectangle,14.80249023,-1.55255127,1,0,0,14.80249023,-1.55255127,1,0,0,1,22,182,45,1,,,,,,,,
,,,,,,,,,,,,,FF,,,,,,,,0.6003,,,,,,,,,,,,,,,,,,,,,,60ff4103610b39d6982ec65e,61037730e6c3d654fcdc63e7,2021-07-29_21h09.54.870,Simcolourproject_2stim_asymm_v5,2020.2.10,MacIntel,60,61025ae37ef11b136ea224fe,,,,,,,,,2540,33.4720459,60.47302246,1,0,0,response1disk,,7,2.379577637,-0.167907715,1,0,0,rectangle,2.379577637,-0.167907715,1,0,0,2.379577637,-0.167907715,1,0,0,1,23,183,42,1,,,,,,,,
,,,,,,,,,,,,,FF,,,,,,,,0.4516,,,,,,,,,,,,,,,,,,,,,,60ff4103610b39d6982ec65e,61037730e6c3d654fcdc63e7,2021-07-29_21h09.54.870,Simcolourproject_2stim_asymm_v5,2020.2.10,MacIntel,60,61025ae37ef11b136ea224fe,,,,,,,,,3549,34.6930542,67.61865234,1,0,0,response1disk,,7,8.438842773,-10.06246948,1,0,0,rectangle,8.438842773,-10.06246948,1,0,0,8.438842773,-10.06246948,1,0,0,1,24,184,75,1,,,,,,,,
,,,,,,,,,,,,,FF,,,,,,,,0.75,,,,,,,,,,,,,,,,,,,,,,60ff4103610b39d6982ec65e,61037730e6c3d654fcdc63e7,2021-07-29_21h09.54.870,Simcolourproject_2stim_asymm_v5,2020.2.10,MacIntel,60,61025ae37ef11b136ea224fe,,,,,,,,,1002,33.5111084,57.56005859,1,0,0,response1disk,,7,21.36346436,-0.776184082,1,0,0,rectangle,21.36346436,-0.776184082,1,0,0,21.36346436,-0.776184082,1,0,0,1,25,185,105,1,,,,,,,,
,,,,,,,,,,,,,FF,,,,,,,,0.8338,,,,,,,,,,,,,,,,,,,,,,60ff4103610b39d6982ec65e,61037730e6c3d654fcdc63e7,2021-07-29_21h09.54.870,Simcolourproject_2stim_asymm_v5,2020.2.10,MacIntel,60,61025ae37ef11b136ea224fe,,,,,,,,,1301,-80.02764893,34.15350342,1,0,0,response7disk,,1,-14.74121094,13.05499268,1,0,0,rectangle,-14.74121094,13.05499268,1,0,0,-14.74121094,13.05499268,1,0,0,1,26,186,55,1,,,,,,,,
,,,,,,,,,,,,,FF,,,,,,,,0.617,,,,,,,,,,,,,,,,,,,,,,60ff4103610b39d6982ec65e,61037730e6c3d654fcdc63e7,2021-07-29_21h09.54.870,Simcolourproject_2stim_asymm_v5,2020.2.10,MacIntel,60,61025ae37ef11b136ea224fe,,,,,,,,,515,48.19195557,25.04412842,1,0,0,response1disk,,6,-1.233703613,6.403503418,1,0,0,rectangle,-1.233703613,6.403503418,1,0,0,-1.233703613,6.403503418,1,0,0,1,27,187,108,1,,,,,,,,
,,,,,,,,,,,,,FF,,,,,,,,0.6832,,,,,,,,,,,,,,,,,,,,,,60ff4103610b39d6982ec65e,61037730e6c3d654fcdc63e7,2021-07-29_21h09.54.870,Simcolourproject_2stim_asymm_v5,2020.2.10,MacIntel,60,61025ae37ef11b136ea224fe,,,,,,,,,206,58.50469971,28.21148682,1,0,0,response1disk,,6,2.150695801,12.7333374,1,0,0,rectangle,-55.96099854,-21.17156982,1,0,0,-15.66357422,-15.25305176,1,0,0,1,28,188,147,1,,response5disk_3,TRUE,2,2,"[109,222,89,208,227,139,238,85,53,169,146,41,62,128,189,142,237,272,168,117]",1.5843,rectangle
,,,,,,,,,,,,,FF,,,,,,,,1.4175,,,,,,,,,,,,,,,,,,,,,,60ff4103610b39d6982ec65e,61037730e6c3d654fcdc63e7,2021-07-29_21h09.54.870,Simcolourproject_2stim_asymm_v5,2020.2.10,MacIntel,60,61025ae37ef11b136ea224fe,,,,,,,,,345,-49.45202637,-28.41442871,1,0,0,response5disk,,2,-14.02618408,-5.246765137,1,0,0,rectangle,-14.02618408,-5.246765137,1,0,0,-14.02618408,-5.246765137,1,0,0,1,29,189,33,1,,,,,,,,
,,,,,,,,,,,,,FF,,,,,,,,0.834,,,,,,,,,,,,,,,,,,,,,,60ff4103610b39d6982ec65e,61037730e6c3d654fcdc63e7,2021-07-29_21h09.54.870,Simcolourproject_2stim_asymm_v5,2020.2.10,MacIntel,60,61025ae37ef11b136ea224fe,,,,,,,,,2027,-69.08062744,42.91680908,1,0,0,response7disk,,1,-10.00579834,12.53668213,1,0,0,rectangle,-10.00579834,12.53668213,1,0,0,-10.00579834,12.53668213,1,0,0,1,30,190,144,1,,,,,,,,
,,,,,,,,,,,,,FF,,,,,,,,0.7334,,,,,,,,,,,,,,,,,,,,,,60ff4103610b39d6982ec65e,61037730e6c3d654fcdc63e7,2021-07-29_21h09.54.870,Simcolourproject_2stim_asymm_v5,2020.2.10,MacIntel,60,61025ae37ef11b136ea224fe,,,,,,,,,3906,-37.4786377,54.14135742,1,0,0,response7disk,,0,-7.330688477,2.648681641,1,0,0,rectangle,-7.330688477,2.648681641,1,0,0,-7.330688477,2.648681641,1,0,0,1,31,191,24,1,,,,,,,,
,,,,,,,,,,,,,FF,,,,,,,,0.7836,,,,,,,,,,,,,,,,,,,,,,60ff4103610b39d6982ec65e,61037730e6c3d654fcdc63e7,2021-07-29_21h09.54.870,Simcolourproject_2stim_asymm_v5,2020.2.10,MacIntel,60,61025ae37ef11b136ea224fe,,,,,,,,,2530,39.56903076,30.22540283,1,0,0,response1disk,,6,15.36102295,17.89038086,1,0,0,rectangle,15.36102295,17.89038086,1,0,0,15.36102295,17.89038086,1,0,0,1,32,192,22,1,,,,,,,,
,,,,,,,,,,,,,FF,,,,,,,,0.3999,,,,,,,,,,,,,,,,,,,,,,60ff4103610b39d6982ec65e,61037730e6c3d654fcdc63e7,2021-07-29_21h09.54.870,Simcolourproject_2stim_asymm_v5,2020.2.10,MacIntel,60,61025ae37ef11b136ea224fe,,,,,,,,,3279,62.81890869,33.49993896,1,0,0,response1disk,,6,28.86773682,16.30285645,1,0,0,rectangle,28.86773682,16.30285645,1,0,0,28.86773682,16.30285645,1,0,0,1,33,193,118,1,,,,,,,,
,,,,,,,,,,,,,FF,,,,,,,,0.4833,,,,,,,,,,,,,,,,,,,,,,60ff4103610b39d6982ec65e,61037730e6c3d654fcdc63e7,2021-07-29_21h09.54.870,Simcolourproject_2stim_asymm_v5,2020.2.10,MacIntel,60,61025ae37ef11b136ea224fe,,,,,,,,,2938,59.85223389,33.91586304,1,0,0,response1disk,,6,16.53796387,8.916809082,1,0,0,rectangle,16.53796387,8.916809082,1,0,0,16.53796387,8.916809082,1,0,0,1,34,194,112,1,,,,,,,,
,,,,,,,,,,,,,FF,,,,,,,,0.8169,,,,,,,,,,,,,,,,,,,,,,60ff4103610b39d6982ec65e,61037730e6c3d654fcdc63e7,2021-07-29_21h09.54.870,Simcolourproject_2stim_asymm_v5,2020.2.10,MacIntel,60,61025ae37ef11b136ea224fe,,,,,,,,,1747,-28.9989624,42.97357178,1,0,0,response7disk,,0,-4.382141113,6.377319336,1,0,0,rectangle,-4.382141113,6.377319336,1,0,0,-4.382141113,6.377319336,1,0,0,1,35,195,30,1,,,,,,,,
,,,,,,,,,,,,,FF,,,,,,,,0.7191,,,,,,,,,,,,,,,,,,,,,,60ff4103610b39d6982ec65e,61037730e6c3d654fcdc63e7,2021-07-29_21h09.54.870,Simcolourproject_2stim_asymm_v5,2020.2.10,MacIntel,60,61025ae37ef11b136ea224fe,,,,,,,,,1975,70.22674561,38.81057739,1,0,0,response1disk,,6,26.8581543,0.854064941,1,0,0,rectangle,26.8581543,0.854064941,1,0,0,26.8581543,0.854064941,1,0,0,1,36,196,6,1,,,,,,,,
,,,,,,,,,,,,,FF,,,,,,,,0.532,,,,,,,,,,,,,,,,,,,,,,60ff4103610b39d6982ec65e,61037730e6c3d654fcdc63e7,2021-07-29_21h09.54.870,Simcolourproject_2stim_asymm_v5,2020.2.10,MacIntel,60,61025ae37ef11b136ea224fe,,,,,,,,,2648,39.69818115,-29.02633667,1,0,0,response3disk,,5,-3.340698242,-0.351318359,1,0,0,rectangle,-3.340698242,-0.351318359,1,0,0,-3.340698242,-0.351318359,1,0,0,1,37,197,0,1,,,,,,,,
,,,,,,,,,,,,,FF,,,,,,,,0.5331,,,,,,,,,,,,,,,,,,,,,,60ff4103610b39d6982ec65e,61037730e6c3d654fcdc63e7,2021-07-29_21h09.54.870,Simcolourproject_2stim_asymm_v5,2020.2.10,MacIntel,60,61025ae37ef11b136ea224fe,,,,,,,,,4240,24.93212891,-40.70788574,1,0,0,response3disk,,4,23.09802246,-16.39910889,1,0,0,rectangle,23.09802246,-16.39910889,1,0,0,23.09802246,-16.39910889,1,0,0,1,38,198,2,1,,,,,,,,
,,,,,,,,,,,,,FF,,,,,,,,0.7008,,,,,,,,,,,,,,,,,,,,,,60ff4103610b39d6982ec65e,61037730e6c3d654fcdc63e7,2021-07-29_21h09.54.870,Simcolourproject_2stim_asymm_v5,2020.2.10,MacIntel,60,61025ae37ef11b136ea224fe,,,,,,,,,2989,-61.12261963,-25.8057251,1,0,0,response5disk,,2,-20.60449219,-6.76373291,1,0,0,rectangle,-20.60449219,-6.76373291,1,0,0,-20.60449219,-6.76373291,1,0,0,1,39,199,137,1,,,,,,,,
,,,,,,,,,,,,,FF,,,,,,,,0.7996,,,,,,,,,,,,,,,,,,,,,,60ff4103610b39d6982ec65e,61037730e6c3d654fcdc63e7,2021-07-29_21h09.54.870,Simcolourproject_2stim_asymm_v5,2020.2.10,MacIntel,60,61025ae37ef11b136ea224fe,,,,,,,,,1827,25.09472656,-34.85974121,1,0,0,response3disk,,4,12.11761475,-1.093688965,1,0,0,rectangle,12.11761475,-1.093688965,1,0,0,12.11761475,-1.093688965,1,0,0,1,40,200,21,1,,,,,,,,
,,,,,,,,,,,,,FF,,,,,,,,1.1502,,,,,,,,,,,,,,,,,,,,,,60ff4103610b39d6982ec65e,61037730e6c3d654fcdc63e7,2021-07-29_21h09.54.870,Simcolourproject_2stim_asymm_v5,2020.2.10,MacIntel,60,61025ae37ef11b136ea224fe,,,,,,,,,3100,-47.31311035,56.81396484,1,0,0,response7disk,,0,16.36224365,-4.037597656,1,0,0,rectangle,16.36224365,-4.037597656,1,0,0,16.36224365,-4.037597656,1,0,0,1,41,201,153,1,,,,,,,,
,,,,,,,,,,,,,FF,,,,,,,,0.2661,,,,,,,,,,,,,,,,,,,,,,60ff4103610b39d6982ec65e,61037730e6c3d654fcdc63e7,2021-07-29_21h09.54.870,Simcolourproject_2stim_asymm_v5,2020.2.10,MacIntel,60,61025ae37ef11b136ea224fe,,,,,,,,,2357,47.5557251,23.01733398,1,0,0,response1disk,,6,-2.092163086,-3.249450684,1,0,0,rectangle,-2.092163086,-3.249450684,1,0,0,-2.092163086,-3.249450684,1,0,0,1,42,202,101,1,,,,,,,,
,,,,,,,,,,,,,FF,,,,,,,,0.7499,,,,,,,,,,,,,,,,,,,,,,60ff4103610b39d6982ec65e,61037730e6c3d654fcdc63e7,2021-07-29_21h09.54.870,Simcolourproject_2stim_asymm_v5,2020.2.10,MacIntel,60,61025ae37ef11b136ea224fe,,,,,,,,,3834,49.12200928,-20.50897217,1,0,0,response3disk,,5,25.66223145,-8.313110352,1,0,0,rectangle,25.66223145,-8.313110352,1,0,0,25.66223145,-8.313110352,1,0,0,1,43,203,10,1,,,,,,,,
,,,,,,,,,,,,,FF,,,,,,,,0.4676,,,,,,,,,,,,,,,,,,,,,,60ff4103610b39d6982ec65e,61037730e6c3d654fcdc63e7,2021-07-29_21h09.54.870,Simcolourproject_2stim_asymm_v5,2020.2.10,MacIntel,60,61025ae37ef11b136ea224fe,,,,,,,,,4114,-37.45855713,-48.93395996,1,0,0,response5disk,,3,-9.242736816,-10.51348877,1,0,0,rectangle,-9.242736816,-10.51348877,1,0,0,-9.242736816,-10.51348877,1,0,0,1,44,204,117,1,,,,,,,,
,,,,,,,,,,,,,FF,,,,,,,,0.3513,,,,,,,,,,,,,,,,,,,,,,60ff4103610b39d6982ec65e,61037730e6c3d654fcdc63e7,2021-07-29_21h09.54.870,Simcolourproject_2stim_asymm_v5,2020.2.10,MacIntel,60,61025ae37ef11b136ea224fe,,,,,,,,,1023,43.96795654,37.44973755,1,0,0,response1disk,,6,14.83184814,0.912658691,1,0,0,rectangle,14.83184814,0.912658691,1,0,0,14.83184814,0.912658691,1,0,0,1,45,205,14,1,,,,,,,,
,,,,,,,,,,,,,FF,,,,,,,,0.9502,,,,,,,,,,,,,,,,,,,,,,60ff4103610b39d6982ec65e,61037730e6c3d654fcdc63e7,2021-07-29_21h09.54.870,Simcolourproject_2stim_asymm_v5,2020.2.10,MacIntel,60,61025ae37ef11b136ea224fe,,,,,,,,,3395,-59.2633667,-44.1307373,1,0,0,response5disk,,2,4.895568848,7.92590332,1,0,0,rectangle,4.895568848,7.92590332,1,0,0,4.895568848,7.92590332,1,0,0,1,46,206,91,1,,,,,,,,
,,,,,,,,,,,,,FF,,,,,,,,0.6504,,,,,,,,,,,,,,,,,,,,,,60ff4103610b39d6982ec65e,61037730e6c3d654fcdc63e7,2021-07-29_21h09.54.870,Simcolourproject_2stim_asymm_v5,2020.2.10,MacIntel,60,61025ae37ef11b136ea224fe,,,,,,,,,3280,60.54229736,-49.25384521,1,0,0,response3disk,,5,17.70092773,1.086486816,1,0,0,rectangle,69.06280518,30.38275146,1,0,0,10.45068359,-7.73638916,1,0,0,1,47,207,148,1,,response1disk_3,TRUE,6,6,"[109,222,89,208,227,139,238,85,53,169,146,41,62,128,189,142,237,272,168,117]",1.4676,rectangle
,,,,,,,,,,,,,FF,,,,,,,,1.6337,,,,,,,,,,,,,,,,,,,,,,60ff4103610b39d6982ec65e,61037730e6c3d654fcdc63e7,2021-07-29_21h09.54.870,Simcolourproject_2stim_asymm_v5,2020.2.10,MacIntel,60,61025ae37ef11b136ea224fe,,,,,,,,,3923,-15.82128906,-78.7947998,1,0,0,response5disk,,3,14.28240967,-7.007629395,1,0,0,rectangle,14.28240967,-7.007629395,1,0,0,14.28240967,-7.007629395,1,0,0,1,48,208,126,1,,,,,,,,
,,,,,,,,,,,,,FF,,,,,,,,0.949,,,,,,,,,,,,,,,,,,,,,,60ff4103610b39d6982ec65e,61037730e6c3d654fcdc63e7,2021-07-29_21h09.54.870,Simcolourproject_2stim_asymm_v5,2020.2.10,MacIntel,60,61025ae37ef11b136ea224fe,,,,,,,,,1567,70.1362915,45.06140137,1,0,0,response1disk,,6,17.04107666,-0.153564453,1,0,0,rectangle,17.04107666,-0.153564453,1,0,0,17.04107666,-0.153564453,1,0,0,1,49,209,13,1,,,,,,,,
,,,,,,,,,,,,,FF,,,,,,,,0.5996,,,,,,,,,,,,,,,,,,,,,,60ff4103610b39d6982ec65e,61037730e6c3d654fcdc63e7,2021-07-29_21h09.54.870,Simcolourproject_2stim_asymm_v5,2020.2.10,MacIntel,60,61025ae37ef11b136ea224fe,,,,,,,,,2237,54.50585938,-35.96533203,1,0,0,response3disk,,5,9.241760254,-4.480834961,1,0,0,rectangle,9.241760254,-4.480834961,1,0,0,9.241760254,-4.480834961,1,0,0,1,50,210,155,1,,,,,,,,
,,,,,,,,,,,,,FF,,,,,,,,0.9022,,,,,,,,,,,,,,,,,,,,,,60ff4103610b39d6982ec65e,61037730e6c3d654fcdc63e7,2021-07-29_21h09.54.870,Simcolourproject_2stim_asymm_v5,2020.2.10,MacIntel,60,61025ae37ef11b136ea224fe,,,,,,,,,279,-19.17852783,-51.87628174,1,0,0,response5disk,,3,-3.541687012,-5.780548096,1,0,0,rectangle,-3.541687012,-5.780548096,1,0,0,-3.541687012,-5.780548096,1,0,0,1,51,211,20,1,,,,,,,,
,,,,,,,,,,,,,FF,,,,,,,,0.417,,,,,,,,,,,,,,,,,,,,,,60ff4103610b39d6982ec65e,61037730e6c3d654fcdc63e7,2021-07-29_21h09.54.870,Simcolourproject_2stim_asymm_v5,2020.2.10,MacIntel,60,61025ae37ef11b136ea224fe,,,,,,,,,3019,33.40350342,-43.10198975,1,0,0,response3disk,,4,-1.242126465,8.455871582,1,0,0,rectangle,-1.242126465,8.455871582,1,0,0,-1.242126465,8.455871582,1,0,0,1,52,212,44,1,,,,,,,,
,,,,,,,,,,,,,FF,,,,,,,,0.8251,,,,,,,,,,,,,,,,,,,,,,60ff4103610b39d6982ec65e,61037730e6c3d654fcdc63e7,2021-07-29_21h09.54.870,Simcolourproject_2stim_asymm_v5,2020.2.10,MacIntel,60,61025ae37ef11b136ea224fe,,,,,,,,,1159,56.99182129,23.36950684,1,0,0,response1disk,,6,24.19720459,11.27648926,1,0,0,rectangle,24.19720459,11.27648926,1,0,0,24.19720459,11.27648926,1,0,0,1,53,213,63,1,,,,,,,,
,,,,,,,,,,,,,FF,,,,,,,,1.2163,,,,,,,,,,,,,,,,,,,,,,60ff4103610b39d6982ec65e,61037730e6c3d654fcdc63e7,2021-07-29_21h09.54.870,Simcolourproject_2stim_asymm_v5,2020.2.10,MacIntel,60,61025ae37ef11b136ea224fe,,,,,,,,,2926,50.77520752,-15.45349121,1,0,0,response3disk,,5,15.37347412,-1.523193359,1,0,0,rectangle,15.37347412,-1.523193359,1,0,0,15.37347412,-1.523193359,1,0,0,1,54,214,3,1,,,,,,,,
,,,,,,,,,,,,,FF,,,,,,,,1.7337,,,,,,,,,,,,,,,,,,,,,,60ff4103610b39d6982ec65e,61037730e6c3d654fcdc63e7,2021-07-29_21h09.54.870,Simcolourproject_2stim_asymm_v5,2020.2.10,MacIntel,60,61025ae37ef11b136ea224fe,,,,,,,,,1370,-43.480896,23.45700073,1,0,0,response7disk,,1,-11.59979248,-4.704406738,1,0,0,rectangle,-11.59979248,-4.704406738,1,0,0,-11.59979248,-4.704406738,1,0,0,1,55,215,154,1,,,,,,,,
,,,,,,,,,,,,,FF,,,,,,,,0.7998,,,,,,,,,,,,,,,,,,,,,,60ff4103610b39d6982ec65e,61037730e6c3d654fcdc63e7,2021-07-29_21h09.54.870,Simcolourproject_2stim_asymm_v5,2020.2.10,MacIntel,60,61025ae37ef11b136ea224fe,,,,,,,,,2167,-69.30340576,26.17401123,1,0,0,response7disk,,1,-0.772338867,-2.357940674,1,0,0,rectangle,-0.772338867,-2.357940674,1,0,0,-0.772338867,-2.357940674,1,0,0,1,56,216,125,1,,,,,,,,
,,,,,,,,,,,,,FF,,,,,,,,0.6336,,,,,,,,,,,,,,,,,,,,,,60ff4103610b39d6982ec65e,61037730e6c3d654fcdc63e7,2021-07-29_21h09.54.870,Simcolourproject_2stim_asymm_v5,2020.2.10,MacIntel,60,61025ae37ef11b136ea224fe,,,,,,,,,2908,48.5949707,29.3984375,1,0,0,response1disk,,6,7.293334961,-2.63470459,1,0,0,rectangle,7.293334961,-2.63470459,1,0,0,7.293334961,-2.63470459,1,0,0,1,57,217,74,1,,,,,,,,
,,,,,,,,,,,,,FF,,,,,,,,0.5322,,,,,,,,,,,,,,,,,,,,,,60ff4103610b39d6982ec65e,61037730e6c3d654fcdc63e7,2021-07-29_21h09.54.870,Simcolourproject_2stim_asymm_v5,2020.2.10,MacIntel,60,61025ae37ef11b136ea224fe,,,,,,,,,1277,51.64239502,-32.28527832,1,0,0,response3disk,,5,7.231262207,4.092346191,1,0,0,rectangle,7.231262207,4.092346191,1,0,0,7.231262207,4.092346191,1,0,0,1,58,218,102,1,,,,,,,,
,,,,,,,,,,,,,FF,,,,,,,,0.4673,,,,,,,,,,,,,,,,,,,,,,60ff4103610b39d6982ec65e,61037730e6c3d654fcdc63e7,2021-07-29_21h09.54.870,Simcolourproject_2stim_asymm_v5,2020.2.10,MacIntel,60,61025ae37ef11b136ea224fe,,,,,,,,,1188,48.30963135,-30.17486572,1,0,0,response3disk,,5,5.511962891,-9.139556885,1,0,0,rectangle,5.511962891,-9.139556885,1,0,0,5.511962891,-9.139556885,1,0,0,1,59,219,53,1,,,,,,,,
,,,,,,,,,,,,,FF,,,,,,,,0.4328,,,,,,,,,,,,,,,,,,,,,,60ff4103610b39d6982ec65e,61037730e6c3d654fcdc63e7,2021-07-29_21h09.54.870,Simcolourproject_2stim_asymm_v5,2020.2.10,MacIntel,60,61025ae37ef11b136ea224fe,,,,,,,,,3788,49.64886475,-55.71893311,1,0,0,response3disk,,4,17.94360352,-15.00549316,1,0,0,rectangle,17.94360352,-15.00549316,1,0,0,17.94360352,-15.00549316,1,0,0,1,60,220,133,1,,,,,,,,
,,,,,,,,,,,,,FF,,,,,,,,0.4167,,,,,,,,,,,,,,,,,,,,,,60ff4103610b39d6982ec65e,61037730e6c3d654fcdc63e7,2021-07-29_21h09.54.870,Simcolourproject_2stim_asymm_v5,2020.2.10,MacIntel,60,61025ae37ef11b136ea224fe,,,,,,,,,1665,45.64196777,-35.03729248,1,0,0,response3disk,,5,8.995605469,-10.49230957,1,0,0,rectangle,60.33831787,-37.66619873,1,0,0,22.26275635,-7.803222656,1,0,0,1,61,221,130,1,,response3disk_3,TRUE,5,5,"[109,222,89,208,227,139,238,85,53,169,146,41,62,128,189,142,237,272,168,117]",1.4678,rectangle
,,,,,,,,,,,,,FF,,,,,,,,0.7343,,,,,,,,,,,,,,,,,,,,,,60ff4103610b39d6982ec65e,61037730e6c3d654fcdc63e7,2021-07-29_21h09.54.870,Simcolourproject_2stim_asymm_v5,2020.2.10,MacIntel,60,61025ae37ef11b136ea224fe,,,,,,,,,3135,59.02557373,25.65988159,1,0,0,response1disk,,6,19.2980957,5.821411133,1,0,0,rectangle,19.2980957,5.821411133,1,0,0,19.2980957,5.821411133,1,0,0,1,62,222,61,1,,,,,,,,
,,,,,,,,,,,,,FF,,,,,,,,0.6329,,,,,,,,,,,,,,,,,,,,,,60ff4103610b39d6982ec65e,61037730e6c3d654fcdc63e7,2021-07-29_21h09.54.870,Simcolourproject_2stim_asymm_v5,2020.2.10,MacIntel,60,61025ae37ef11b136ea224fe,,,,,,,,,3327,26.94403076,51.29553223,1,0,0,response1disk,,7,24.07403564,4.015930176,1,0,0,rectangle,24.07403564,4.015930176,1,0,0,24.07403564,4.015930176,1,0,0,1,63,223,38,1,,,,,,,,
,,,,,,,,,,,,,FF,,,,,,,,1.3673,,,,,,,,,,,,,,,,,,,,,,60ff4103610b39d6982ec65e,61037730e6c3d654fcdc63e7,2021-07-29_21h09.54.870,Simcolourproject_2stim_asymm_v5,2020.2.10,MacIntel,60,61025ae37ef11b136ea224fe,,,,,,,,,1464,-24.38336182,-51.33013916,1,0,0,response5disk,,3,2.323669434,-10.38012695,1,0,0,rectangle,2.323669434,-10.38012695,1,0,0,2.323669434,-10.38012695,1,0,0,1,64,224,64,1,,,,,,,,
,,,,,,,,,,,,,FF,,,,,,,,0.7331,,,,,,,,,,,,,,,,,,,,,,60ff4103610b39d6982ec65e,61037730e6c3d654fcdc63e7,2021-07-29_21h09.54.870,Simcolourproject_2stim_asymm_v5,2020.2.10,MacIntel,60,61025ae37ef11b136ea224fe,,,,,,,,,107,38.45031738,-40.00869751,1,0,0,response3disk,,4,16.57739258,4.156921387,1,0,0,rectangle,16.57739258,4.156921387,1,0,0,16.57739258,4.156921387,1,0,0,1,65,225,94,1,,,,,,,,
,,,,,,,,,,,,,FF,,,,,,,,0.5859,,,,,,,,,,,,,,,,,,,,,,60ff4103610b39d6982ec65e,61037730e6c3d654fcdc63e7,2021-07-29_21h09.54.870,Simcolourproject_2stim_asymm_v5,2020.2.10,MacIntel,60,61025ae37ef11b136ea224fe,,,,,,,,,1321,47.32287598,-33.34390259,1,0,0,response3disk,,5,19.87451172,5.142578125,1,0,0,rectangle,-27.58642578,52.14511108,1,0,0,-2.254516602,12.27557373,1,0,0,1,66,226,138,1,,response7disk_3,TRUE,0,0,"[109,222,89,208,227,139,238,85,53,169,146,41,62,128,189,142,237,272,168,117]",1.4658,rectangle
,,,,,,,,,,,,,FF,,,,,,,,1.0328,,,,,,,,,,,,,,,,,,,,,,60ff4103610b39d6982ec65e,61037730e6c3d654fcdc63e7,2021-07-29_21h09.54.870,Simcolourproject_2stim_asymm_v5,2020.2.10,MacIntel,60,61025ae37ef11b136ea224fe,,,,,,,,,1012,81.68865967,-20.50283813,1,0,0,response3disk,,5,17.26617432,8.386627197,1,0,0,rectangle,17.26617432,8.386627197,1,0,0,17.26617432,8.386627197,1,0,0,1,67,227,62,1,,,,,,,,
,,,,,,,,,,,,,FF,,,,,,,,0.6669,,,,,,,,,,,,,,,,,,,,,,60ff4103610b39d6982ec65e,61037730e6c3d654fcdc63e7,2021-07-29_21h09.54.870,Simcolourproject_2stim_asymm_v5,2020.2.10,MacIntel,60,61025ae37ef11b136ea224fe,,,,,,,,,3479,-40.54742432,-47.7723999,1,0,0,response5disk,,3,-2.924560547,-6.123657227,1,0,0,rectangle,-2.924560547,-6.123657227,1,0,0,-2.924560547,-6.123657227,1,0,0,1,68,228,151,1,,,,,,,,
,,,,,,,,,,,,,FF,,,,,,,,0.5161,,,,,,,,,,,,,,,,,,,,,,60ff4103610b39d6982ec65e,61037730e6c3d654fcdc63e7,2021-07-29_21h09.54.870,Simcolourproject_2stim_asymm_v5,2020.2.10,MacIntel,60,61025ae37ef11b136ea224fe,,,,,,,,,2511,51.94140625,-34.01342773,1,0,0,response3disk,,5,8.678466797,-6.405090332,1,0,0,rectangle,8.678466797,-6.405090332,1,0,0,8.678466797,-6.405090332,1,0,0,1,69,229,95,1,,,,,,,,
,,,,,,,,,,,,,FF,,,,,,,,0.684,,,,,,,,,,,,,,,,,,,,,,60ff4103610b39d6982ec65e,61037730e6c3d654fcdc63e7,2021-07-29_21h09.54.870,Simcolourproject_2stim_asymm_v5,2020.2.10,MacIntel,60,61025ae37ef11b136ea224fe,,,,,,,,,3359,42.9463501,-36.581604,1,0,0,response3disk,,5,7.636474609,-15.78210449,1,0,0,rectangle,7.636474609,-15.78210449,1,0,0,7.636474609,-15.78210449,1,0,0,1,70,230,103,1,,,,,,,,
,,,,,,,,,,,,,FF,,,,,,,,0.4503,,,,,,,,,,,,,,,,,,,,,,60ff4103610b39d6982ec65e,61037730e6c3d654fcdc63e7,2021-07-29_21h09.54.870,Simcolourproject_2stim_asymm_v5,2020.2.10,MacIntel,60,61025ae37ef11b136ea224fe,,,,,,,,,2853,52.67926025,27.91259766,1,0,0,response1disk,,6,15.63452148,2.497314453,1,0,0,rectangle,15.63452148,2.497314453,1,0,0,15.63452148,2.497314453,1,0,0,1,71,231,132,1,,,,,,,,
,,,,,,,,,,,,,FF,,,,,,,,0.6658,,,,,,,,,,,,,,,,,,,,,,60ff4103610b39d6982ec65e,61037730e6c3d654fcdc63e7,2021-07-29_21h09.54.870,Simcolourproject_2stim_asymm_v5,2020.2.10,MacIntel,60,61025ae37ef11b136ea224fe,,,,,,,,,2347,-32.22930908,-34.23419189,1,0,0,response5disk,,3,0.313415527,11.09182739,1,0,0,rectangle,0.313415527,11.09182739,1,0,0,0.313415527,11.09182739,1,0,0,1,72,232,159,1,,,,,,,,
,,,,,,,,,,,,,FF,,,,,,,,0.9535,,,,,,,,,,,,,,,,,,,,,,60ff4103610b39d6982ec65e,61037730e6c3d654fcdc63e7,2021-07-29_21h09.54.870,Simcolourproject_2stim_asymm_v5,2020.2.10,MacIntel,60,61025ae37ef11b136ea224fe,,,,,,,,,3364,29.05206299,-16.9574585,1,0,0,response3disk,,5,6.089599609,5.17388916,1,0,0,rectangle,6.089599609,5.17388916,1,0,0,6.089599609,5.17388916,1,0,0,1,73,233,39,1,,,,,,,,
,,,,,,,,,,,,,FF,,,,,,,,0.4342,,,,,,,,,,,,,,,,,,,,,,60ff4103610b39d6982ec65e,61037730e6c3d654fcdc63e7,2021-07-29_21h09.54.870,Simcolourproject_2stim_asymm_v5,2020.2.10,MacIntel,60,61025ae37ef11b136ea224fe,,,,,,,,,3038,36.22314453,-20.64678955,1,0,0,response3disk,,5,6.804321289,0.53604126,1,0,0,rectangle,6.804321289,0.53604126,1,0,0,6.804321289,0.53604126,1,0,0,1,74,234,17,1,,,,,,,,
,,,,,,,,,,,,,FF,,,,,,,,0.5665,,,,,,,,,,,,,,,,,,,,,,60ff4103610b39d6982ec65e,61037730e6c3d654fcdc63e7,2021-07-29_21h09.54.870,Simcolourproject_2stim_asymm_v5,2020.2.10,MacIntel,60,61025ae37ef11b136ea224fe,,,,,,,,,3661,-30.73944092,-46.86160278,1,0,0,response5disk,,3,-12.02722168,-15.71679688,1,0,0,rectangle,-12.02722168,-15.71679688,1,0,0,-12.02722168,-15.71679688,1,0,0,1,75,235,50,1,,,,,,,,
,,,,,,,,,,,,,FF,,,,,,,,0.8342,,,,,,,,,,,,,,,,,,,,,,60ff4103610b39d6982ec65e,61037730e6c3d654fcdc63e7,2021-07-29_21h09.54.870,Simcolourproject_2stim_asymm_v5,2020.2.10,MacIntel,60,61025ae37ef11b136ea224fe,,,,,,,,,194,24.67388916,-59.75585938,1,0,0,response3disk,,4,15.262146,-17.28118896,1,0,0,rectangle,64.72607422,22.5770874,1,0,0,7.359008789,4.950195313,1,0,0,1,76,236,83,1,,response1disk_3,TRUE,6,6,"[109,222,89,208,227,139,238,85,53,169,146,41,62,128,189,142,237,272,168,117]",1.4321,rectangle
,,,,,,,,,,,,,FF,,,,,,,,0.8509,,,,,,,,,,,,,,,,,,,,,,60ff4103610b39d6982ec65e,61037730e6c3d654fcdc63e7,2021-07-29_21h09.54.870,Simcolourproject_2stim_asymm_v5,2020.2.10,MacIntel,60,61025ae37ef11b136ea224fe,,,,,,,,,4188,-32.36029053,-52.237854,1,0,0,response5disk,,3,1.642089844,-4.663452148,1,0,0,rectangle,-24.05426025,38.8503418,1,0,0,0.933410645,6.93359375,1,0,0,1,77,237,89,1,,response7disk_3,TRUE,0,0,"[109,222,89,208,227,139,238,85,53,169,146,41,62,128,189,142,237,272,168,117]",1.7322,rectangle
,,,,,,,,,,,,,FF,,,,,,,,0.6334,,,,,,,,,,,,,,,,,,,,,,60ff4103610b39d6982ec65e,61037730e6c3d654fcdc63e7,2021-07-29_21h09.54.870,Simcolourproject_2stim_asymm_v5,2020.2.10,MacIntel,60,61025ae37ef11b136ea224fe,,,,,,,,,2233,-26.56768799,43.2633667,1,0,0,response7disk,,0,3.317687988,-1.887878418,1,0,0,rectangle,3.317687988,-1.887878418,1,0,0,3.317687988,-1.887878418,1,0,0,1,78,238,15,1,,,,,,,,
,,,,,,,,,,,,,FF,,,,,,,,2.0328,,,,,,,,,,,,,,,,,,,,,,60ff4103610b39d6982ec65e,61037730e6c3d654fcdc63e7,2021-07-29_21h09.54.870,Simcolourproject_2stim_asymm_v5,2020.2.10,MacIntel,60,61025ae37ef11b136ea224fe,,,,,,,,,1775,-31.05749512,-66.1229248,1,0,0,response5disk,,3,3.890930176,2.01373291,1,0,0,rectangle,3.890930176,2.01373291,1,0,0,3.890930176,2.01373291,1,0,0,1,79,239,129,1,,,,,,,,
