key_resp.keys,key_resp.rt,key_resp_14.keys,key_resp_14.rt,key_resp_15.keys,key_resp_15.rt,key_resp_17.keys,key_resp_17.rt,key_resp_9.keys,key_resp_9.rt,key_resp_10.keys,key_resp_10.rt,practice_comparison,Ecc,mouse_5.x,mouse_5.y,mouse_5.leftButton,mouse_5.midButton,mouse_5.rightButton,mouse_5.clicked_name,pracsimilarity,response_time,mouse_10.x,mouse_10.y,mouse_10.leftButton,mouse_10.midButton,mouse_10.rightButton,mouse_10.clicked_name,mouse_7.x,mouse_7.y,mouse_7.leftButton,mouse_7.midButton,mouse_7.rightButton,mouse_6.x,mouse_6.y,mouse_6.leftButton,mouse_6.midButton,mouse_6.rightButton,duringprac.thisRepN,duringprac.thisTrialN,duringprac.thisN,duringprac.thisIndex,duringprac.ran,participant,session,date,expName,psychopyVersion,OS,frameRate,study_id,mouse_7.clicked_name,catchpracsimilarity,catch_response_time,catchnumberprac,catchtrialorderprac,mouse_6.clicked_name,key_resp_22.keys,key_resp_22.rt,realcomparison,mouse.x,mouse.y,mouse.leftButton,mouse.midButton,mouse.rightButton,mouse.clicked_name,Colour2,similarity,mouse_2.x,mouse_2.y,mouse_2.leftButton,mouse_2.midButton,mouse_2.rightButton,mouse_2.clicked_name,mouse_3.x,mouse_3.y,mouse_3.leftButton,mouse_3.midButton,mouse_3.rightButton,mouse_11.x,mouse_11.y,mouse_11.leftButton,mouse_11.midButton,mouse_11.rightButton,trials_2.thisRepN,trials_2.thisTrialN,trials_2.thisN,trials_2.thisIndex,trials_2.ran,Colour1,mouse_3.clicked_name,catchornah,catchsimilarity,catchnumber,catchtrialorder,catchRT,mouse_11.clicked_name
space,1.108,space,13.161,space,79.731,space,10.196,space,2.843,space,8.656,22,PF,33,99,1,0,0,response1disk_5,7,16.501,-15,-3,1,0,0,rectangle_8,-15,-3,1,0,0,-15,-3,1,0,0,0,0,0,6,1,60ff4cd7d1037ecc61ca5b8b,61036c7aac7ff1e9063ecffc,2021-07-29_23h08.22.501,Simcolourproject_2stim_asymm_v5,2020.2.10,MacIntel,60,61025ae37ef11b136ea224fe,,,,,,,,,,,,,,,,,,,,,,,,,,,,,,,,,,,,,,,,,,,,,,
,,,,,,,,,,,,47,PF,36,64,1,0,0,response1disk_5,7,2.318,0,-5,1,0,0,rectangle_8,-43,110,1,0,0,-8,9,1,0,0,0,1,1,1,1,60ff4cd7d1037ecc61ca5b8b,61036c7aac7ff1e9063ecffc,2021-07-29_23h08.22.501,Simcolourproject_2stim_asymm_v5,2020.2.10,MacIntel,60,61025ae37ef11b136ea224fe,response7disk_7,0,3.133,0,"[2,5]",rectangle_4,,,,,,,,,,,,,,,,,,,,,,,,,,,,,,,,,,,,,,,,
,,,,,,,,,,,,8,FF,-33,-83,1,0,0,response5disk_5,3,4.616,2,2,1,0,0,rectangle_8,2,2,1,0,0,2,2,1,0,0,0,2,2,0,1,60ff4cd7d1037ecc61ca5b8b,61036c7aac7ff1e9063ecffc,2021-07-29_23h08.22.501,Simcolourproject_2stim_asymm_v5,2020.2.10,MacIntel,60,61025ae37ef11b136ea224fe,,,,,,,,,,,,,,,,,,,,,,,,,,,,,,,,,,,,,,,,,,,,,,
,,,,,,,,,,,,158,PF,-39,-78,1,0,0,response5disk_5,3,5.217,-4,3,1,0,0,rectangle_8,-4,3,1,0,0,-4,3,1,0,0,0,3,3,2,1,60ff4cd7d1037ecc61ca5b8b,61036c7aac7ff1e9063ecffc,2021-07-29_23h08.22.501,Simcolourproject_2stim_asymm_v5,2020.2.10,MacIntel,60,61025ae37ef11b136ea224fe,,,,,,,,,,,,,,,,,,,,,,,,,,,,,,,,,,,,,,,,,,,,,,
,,,,,,,,,,,,1,FF,86,-32,1,0,0,response3disk_5,5,2.916,-2,5,1,0,0,rectangle_8,-55,103,1,0,0,8,-2,1,0,0,0,4,4,3,1,60ff4cd7d1037ecc61ca5b8b,61036c7aac7ff1e9063ecffc,2021-07-29_23h08.22.501,Simcolourproject_2stim_asymm_v5,2020.2.10,MacIntel,60,61025ae37ef11b136ea224fe,response7disk_7,0,3.601,0,"[2,5]",rectangle_4,,,,,,,,,,,,,,,,,,,,,,,,,,,,,,,,,,,,,,,,
,,,,,,,,,,,,105,PF,-70,-40,1,0,0,response5disk_5,2,8.983,3,1,1,0,0,rectangle_8,3,1,1,0,0,3,1,1,0,0,0,5,5,4,1,60ff4cd7d1037ecc61ca5b8b,61036c7aac7ff1e9063ecffc,2021-07-29_23h08.22.501,Simcolourproject_2stim_asymm_v5,2020.2.10,MacIntel,60,61025ae37ef11b136ea224fe,,,,,,,,,,,,,,,,,,,,,,,,,,,,,,,,,,,,,,,,,,,,,,
,,,,,,,,,,,,38,FF,35,75,1,0,0,response1disk_5,7,4.916,-11,8,1,0,0,rectangle_8,-11,8,1,0,0,-11,8,1,0,0,0,6,6,5,1,60ff4cd7d1037ecc61ca5b8b,61036c7aac7ff1e9063ecffc,2021-07-29_23h08.22.501,Simcolourproject_2stim_asymm_v5,2020.2.10,MacIntel,60,61025ae37ef11b136ea224fe,,,,,,,,,,,,,,,,,,,,,,,,,,,,,,,,,,,,,,,,,,,,,,
,,,,,,,,,,,,,FF,,,,,,,,10.952,,,,,,,,,,,,,,,,,,,,,,60ff4cd7d1037ecc61ca5b8b,61036c7aac7ff1e9063ecffc,2021-07-29_23h08.22.501,Simcolourproject_2stim_asymm_v5,2020.2.10,MacIntel,60,61025ae37ef11b136ea224fe,,,,,,,space,1.363,2218,82,37,1,0,0,response1disk,,6,2,1,1,0,0,rectangle,2,1,1,0,0,2,1,1,0,0,0,0,0,66,1,,,,,,,,
,,,,,,,,,,,,,FF,,,,,,,,3.017,,,,,,,,,,,,,,,,,,,,,,60ff4cd7d1037ecc61ca5b8b,61036c7aac7ff1e9063ecffc,2021-07-29_23h08.22.501,Simcolourproject_2stim_asymm_v5,2020.2.10,MacIntel,60,61025ae37ef11b136ea224fe,,,,,,,,,1312,31,-86,1,0,0,response3disk,,4,1,-5,1,0,0,rectangle,1,-5,1,0,0,1,-5,1,0,0,0,1,1,67,1,,,,,,,,
,,,,,,,,,,,,,FF,,,,,,,,1.8,,,,,,,,,,,,,,,,,,,,,,60ff4cd7d1037ecc61ca5b8b,61036c7aac7ff1e9063ecffc,2021-07-29_23h08.22.501,Simcolourproject_2stim_asymm_v5,2020.2.10,MacIntel,60,61025ae37ef11b136ea224fe,,,,,,,,,26,41,104,1,0,0,response1disk,,7,-5,-6,1,0,0,rectangle,-5,-6,1,0,0,-5,-6,1,0,0,0,2,2,53,1,,,,,,,,
,,,,,,,,,,,,,FF,,,,,,,,3.251,,,,,,,,,,,,,,,,,,,,,,60ff4cd7d1037ecc61ca5b8b,61036c7aac7ff1e9063ecffc,2021-07-29_23h08.22.501,Simcolourproject_2stim_asymm_v5,2020.2.10,MacIntel,60,61025ae37ef11b136ea224fe,,,,,,,,,1905,55,-67,1,0,0,response3disk,,4,1,3,1,0,0,rectangle,1,3,1,0,0,1,3,1,0,0,0,3,3,46,1,,,,,,,,
,,,,,,,,,,,,,FF,,,,,,,,2.918,,,,,,,,,,,,,,,,,,,,,,60ff4cd7d1037ecc61ca5b8b,61036c7aac7ff1e9063ecffc,2021-07-29_23h08.22.501,Simcolourproject_2stim_asymm_v5,2020.2.10,MacIntel,60,61025ae37ef11b136ea224fe,,,,,,,,,2721,-45,-88,1,0,0,response5disk,,3,-14,6,1,0,0,rectangle,-14,6,1,0,0,-14,6,1,0,0,0,4,4,155,1,,,,,,,,
,,,,,,,,,,,,,FF,,,,,,,,3.251,,,,,,,,,,,,,,,,,,,,,,60ff4cd7d1037ecc61ca5b8b,61036c7aac7ff1e9063ecffc,2021-07-29_23h08.22.501,Simcolourproject_2stim_asymm_v5,2020.2.10,MacIntel,60,61025ae37ef11b136ea224fe,,,,,,,,,4101,82,-61,1,0,0,response3disk,,5,10,-5,1,0,0,rectangle,10,-5,1,0,0,10,-5,1,0,0,0,5,5,45,1,,,,,,,,
,,,,,,,,,,,,,FF,,,,,,,,2.033,,,,,,,,,,,,,,,,,,,,,,60ff4cd7d1037ecc61ca5b8b,61036c7aac7ff1e9063ecffc,2021-07-29_23h08.22.501,Simcolourproject_2stim_asymm_v5,2020.2.10,MacIntel,60,61025ae37ef11b136ea224fe,,,,,,,,,2936,36,-88,1,0,0,response3disk,,4,-12,10,1,0,0,rectangle,-12,10,1,0,0,-12,10,1,0,0,0,6,6,25,1,,,,,,,,
,,,,,,,,,,,,,FF,,,,,,,,2.3,,,,,,,,,,,,,,,,,,,,,,60ff4cd7d1037ecc61ca5b8b,61036c7aac7ff1e9063ecffc,2021-07-29_23h08.22.501,Simcolourproject_2stim_asymm_v5,2020.2.10,MacIntel,60,61025ae37ef11b136ea224fe,,,,,,,,,2499,49,91,1,0,0,response1disk,,7,-4,-5,1,0,0,rectangle,-4,-5,1,0,0,-4,-5,1,0,0,0,7,7,111,1,,,,,,,,
,,,,,,,,,,,,,FF,,,,,,,,2.301,,,,,,,,,,,,,,,,,,,,,,60ff4cd7d1037ecc61ca5b8b,61036c7aac7ff1e9063ecffc,2021-07-29_23h08.22.501,Simcolourproject_2stim_asymm_v5,2020.2.10,MacIntel,60,61025ae37ef11b136ea224fe,,,,,,,,,2239,-23,-79,1,0,0,response5disk,,3,-5,9,1,0,0,rectangle,-5,9,1,0,0,-5,9,1,0,0,0,8,8,97,1,,,,,,,,
,,,,,,,,,,,,,FF,,,,,,,,2.734,,,,,,,,,,,,,,,,,,,,,,60ff4cd7d1037ecc61ca5b8b,61036c7aac7ff1e9063ecffc,2021-07-29_23h08.22.501,Simcolourproject_2stim_asymm_v5,2020.2.10,MacIntel,60,61025ae37ef11b136ea224fe,,,,,,,,,3154,-50,-67,1,0,0,response5disk,,3,-13,4,1,0,0,rectangle,36,-94,1,0,0,-3,5,1,0,0,0,9,9,117,1,,response3disk_3,TRUE,4,4,"[68,110,99,138,91,198,291,24,30,277,165,194,119,30,56,10,28,185,23,313]",2.168,rectangle
,,,,,,,,,,,,,FF,,,,,,,,2.35,,,,,,,,,,,,,,,,,,,,,,60ff4cd7d1037ecc61ca5b8b,61036c7aac7ff1e9063ecffc,2021-07-29_23h08.22.501,Simcolourproject_2stim_asymm_v5,2020.2.10,MacIntel,60,61025ae37ef11b136ea224fe,,,,,,,,,2825,91,-44,1,0,0,response3disk,,5,-9,3,1,0,0,rectangle,-9,3,1,0,0,-9,3,1,0,0,0,10,10,35,1,,,,,,,,
,,,,,,,,,,,,,FF,,,,,,,,1.083,,,,,,,,,,,,,,,,,,,,,,60ff4cd7d1037ecc61ca5b8b,61036c7aac7ff1e9063ecffc,2021-07-29_23h08.22.501,Simcolourproject_2stim_asymm_v5,2020.2.10,MacIntel,60,61025ae37ef11b136ea224fe,,,,,,,,,4271,34,86,1,0,0,response1disk,,7,-8,-7,1,0,0,rectangle,-8,-7,1,0,0,-8,-7,1,0,0,0,11,11,19,1,,,,,,,,
,,,,,,,,,,,,,FF,,,,,,,,1.717,,,,,,,,,,,,,,,,,,,,,,60ff4cd7d1037ecc61ca5b8b,61036c7aac7ff1e9063ecffc,2021-07-29_23h08.22.501,Simcolourproject_2stim_asymm_v5,2020.2.10,MacIntel,60,61025ae37ef11b136ea224fe,,,,,,,,,3099,-88,-44,1,0,0,response5disk,,2,3,-2,1,0,0,rectangle,3,-2,1,0,0,3,-2,1,0,0,0,12,12,22,1,,,,,,,,
,,,,,,,,,,,,,FF,,,,,,,,1.268,,,,,,,,,,,,,,,,,,,,,,60ff4cd7d1037ecc61ca5b8b,61036c7aac7ff1e9063ecffc,2021-07-29_23h08.22.501,Simcolourproject_2stim_asymm_v5,2020.2.10,MacIntel,60,61025ae37ef11b136ea224fe,,,,,,,,,3685,28,75,1,0,0,response1disk,,7,0,2,1,0,0,rectangle,0,2,1,0,0,0,2,1,0,0,0,13,13,83,1,,,,,,,,
,,,,,,,,,,,,,FF,,,,,,,,1.967,,,,,,,,,,,,,,,,,,,,,,60ff4cd7d1037ecc61ca5b8b,61036c7aac7ff1e9063ecffc,2021-07-29_23h08.22.501,Simcolourproject_2stim_asymm_v5,2020.2.10,MacIntel,60,61025ae37ef11b136ea224fe,,,,,,,,,2783,-54,-66,1,0,0,response5disk,,3,-5,-3,1,0,0,rectangle,-5,-3,1,0,0,-5,-3,1,0,0,0,14,14,26,1,,,,,,,,
,,,,,,,,,,,,,FF,,,,,,,,4.384,,,,,,,,,,,,,,,,,,,,,,60ff4cd7d1037ecc61ca5b8b,61036c7aac7ff1e9063ecffc,2021-07-29_23h08.22.501,Simcolourproject_2stim_asymm_v5,2020.2.10,MacIntel,60,61025ae37ef11b136ea224fe,,,,,,,,,1570,44,86,1,0,0,response1disk,,7,14,9,1,0,0,rectangle,14,9,1,0,0,14,9,1,0,0,0,15,15,135,1,,,,,,,,
,,,,,,,,,,,,,FF,,,,,,,,5.817,,,,,,,,,,,,,,,,,,,,,,60ff4cd7d1037ecc61ca5b8b,61036c7aac7ff1e9063ecffc,2021-07-29_23h08.22.501,Simcolourproject_2stim_asymm_v5,2020.2.10,MacIntel,60,61025ae37ef11b136ea224fe,,,,,,,,,1884,77,25,1,0,0,response1disk,,6,1,0,1,0,0,rectangle,1,0,1,0,0,1,0,1,0,0,0,16,16,63,1,,,,,,,,
,,,,,,,,,,,,,FF,,,,,,,,2.116,,,,,,,,,,,,,,,,,,,,,,60ff4cd7d1037ecc61ca5b8b,61036c7aac7ff1e9063ecffc,2021-07-29_23h08.22.501,Simcolourproject_2stim_asymm_v5,2020.2.10,MacIntel,60,61025ae37ef11b136ea224fe,,,,,,,,,842,30,77,1,0,0,response1disk,,7,-3,-10,1,0,0,rectangle,-3,-10,1,0,0,-3,-10,1,0,0,0,17,17,59,1,,,,,,,,
,,,,,,,,,,,,,FF,,,,,,,,1.551,,,,,,,,,,,,,,,,,,,,,,60ff4cd7d1037ecc61ca5b8b,61036c7aac7ff1e9063ecffc,2021-07-29_23h08.22.501,Simcolourproject_2stim_asymm_v5,2020.2.10,MacIntel,60,61025ae37ef11b136ea224fe,,,,,,,,,1585,49,80,1,0,0,response1disk,,7,-2,-3,1,0,0,rectangle,-2,-3,1,0,0,-2,-3,1,0,0,0,18,18,107,1,,,,,,,,
,,,,,,,,,,,,,FF,,,,,,,,0.918,,,,,,,,,,,,,,,,,,,,,,60ff4cd7d1037ecc61ca5b8b,61036c7aac7ff1e9063ecffc,2021-07-29_23h08.22.501,Simcolourproject_2stim_asymm_v5,2020.2.10,MacIntel,60,61025ae37ef11b136ea224fe,,,,,,,,,1004,50,86,1,0,0,response1disk,,7,5,1,1,0,0,rectangle,5,1,1,0,0,5,1,1,0,0,0,19,19,56,1,,,,,,,,
,,,,,,,,,,,,,FF,,,,,,,,1.084,,,,,,,,,,,,,,,,,,,,,,60ff4cd7d1037ecc61ca5b8b,61036c7aac7ff1e9063ecffc,2021-07-29_23h08.22.501,Simcolourproject_2stim_asymm_v5,2020.2.10,MacIntel,60,61025ae37ef11b136ea224fe,,,,,,,,,3965,-50,79,1,0,0,response7disk,,0,-8,-2,1,0,0,rectangle,-8,-2,1,0,0,-8,-2,1,0,0,0,20,20,44,1,,,,,,,,
,,,,,,,,,,,,,FF,,,,,,,,1.467,,,,,,,,,,,,,,,,,,,,,,60ff4cd7d1037ecc61ca5b8b,61036c7aac7ff1e9063ecffc,2021-07-29_23h08.22.501,Simcolourproject_2stim_asymm_v5,2020.2.10,MacIntel,60,61025ae37ef11b136ea224fe,,,,,,,,,3744,-80,-37,1,0,0,response5disk,,2,-20,-1,1,0,0,rectangle,-20,-1,1,0,0,-20,-1,1,0,0,0,21,21,98,1,,,,,,,,
,,,,,,,,,,,,,FF,,,,,,,,3.315,,,,,,,,,,,,,,,,,,,,,,60ff4cd7d1037ecc61ca5b8b,61036c7aac7ff1e9063ecffc,2021-07-29_23h08.22.501,Simcolourproject_2stim_asymm_v5,2020.2.10,MacIntel,60,61025ae37ef11b136ea224fe,,,,,,,,,3835,46,84,1,0,0,response1disk,,7,12,-4,1,0,0,rectangle,84,48,1,0,0,-3,0,1,0,0,0,22,22,77,1,,response1disk_3,TRUE,6,6,"[68,110,99,138,91,198,291,24,30,277,165,194,119,30,56,10,28,185,23,313]",1.782,rectangle
,,,,,,,,,,,,,FF,,,,,,,,1.599,,,,,,,,,,,,,,,,,,,,,,60ff4cd7d1037ecc61ca5b8b,61036c7aac7ff1e9063ecffc,2021-07-29_23h08.22.501,Simcolourproject_2stim_asymm_v5,2020.2.10,MacIntel,60,61025ae37ef11b136ea224fe,,,,,,,,,3245,-50,-67,1,0,0,response5disk,,3,-5,-2,1,0,0,rectangle,-26,90,1,0,0,-16,-11,1,0,0,0,23,23,72,1,,response7disk_3,TRUE,0,0,"[68,110,99,138,91,198,291,24,30,277,165,194,119,30,56,10,28,185,23,313]",1.85,rectangle
,,,,,,,,,,,,,FF,,,,,,,,3.649,,,,,,,,,,,,,,,,,,,,,,60ff4cd7d1037ecc61ca5b8b,61036c7aac7ff1e9063ecffc,2021-07-29_23h08.22.501,Simcolourproject_2stim_asymm_v5,2020.2.10,MacIntel,60,61025ae37ef11b136ea224fe,,,,,,,,,1265,31,78,1,0,0,response1disk,,7,2,-6,1,0,0,rectangle,2,-6,1,0,0,2,-6,1,0,0,0,24,24,15,1,,,,,,,,
,,,,,,,,,,,,,FF,,,,,,,,2.732,,,,,,,,,,,,,,,,,,,,,,60ff4cd7d1037ecc61ca5b8b,61036c7aac7ff1e9063ecffc,2021-07-29_23h08.22.501,Simcolourproject_2stim_asymm_v5,2020.2.10,MacIntel,60,61025ae37ef11b136ea224fe,,,,,,,,,4123,72,-40,1,0,0,response3disk,,5,-5,-2,1,0,0,rectangle,-5,-2,1,0,0,-5,-2,1,0,0,0,25,25,50,1,,,,,,,,
,,,,,,,,,,,,,FF,,,,,,,,2.402,,,,,,,,,,,,,,,,,,,,,,60ff4cd7d1037ecc61ca5b8b,61036c7aac7ff1e9063ecffc,2021-07-29_23h08.22.501,Simcolourproject_2stim_asymm_v5,2020.2.10,MacIntel,60,61025ae37ef11b136ea224fe,,,,,,,,,1878,39,89,1,0,0,response1disk,,7,6,6,1,0,0,rectangle,6,6,1,0,0,6,6,1,0,0,0,26,26,136,1,,,,,,,,
,,,,,,,,,,,,,FF,,,,,,,,1.135,,,,,,,,,,,,,,,,,,,,,,60ff4cd7d1037ecc61ca5b8b,61036c7aac7ff1e9063ecffc,2021-07-29_23h08.22.501,Simcolourproject_2stim_asymm_v5,2020.2.10,MacIntel,60,61025ae37ef11b136ea224fe,,,,,,,,,2159,39,89,1,0,0,response1disk,,7,-1,-6,1,0,0,rectangle,68,-50,1,0,0,5,1,1,0,0,0,27,27,60,1,,response3disk_3,TRUE,5,5,"[68,110,99,138,91,198,291,24,30,277,165,194,119,30,56,10,28,185,23,313]",2.367,rectangle
,,,,,,,,,,,,,FF,,,,,,,,1.849,,,,,,,,,,,,,,,,,,,,,,60ff4cd7d1037ecc61ca5b8b,61036c7aac7ff1e9063ecffc,2021-07-29_23h08.22.501,Simcolourproject_2stim_asymm_v5,2020.2.10,MacIntel,60,61025ae37ef11b136ea224fe,,,,,,,,,3163,34,88,1,0,0,response1disk,,7,-1,-2,1,0,0,rectangle,-1,-2,1,0,0,-1,-2,1,0,0,0,28,28,90,1,,,,,,,,
,,,,,,,,,,,,,FF,,,,,,,,2.233,,,,,,,,,,,,,,,,,,,,,,60ff4cd7d1037ecc61ca5b8b,61036c7aac7ff1e9063ecffc,2021-07-29_23h08.22.501,Simcolourproject_2stim_asymm_v5,2020.2.10,MacIntel,60,61025ae37ef11b136ea224fe,,,,,,,,,1123,82,-36,1,0,0,response3disk,,5,10,-7,1,0,0,rectangle,-40,96,1,0,0,2,3,1,0,0,0,29,29,75,1,,response7disk_3,TRUE,0,0,"[68,110,99,138,91,198,291,24,30,277,165,194,119,30,56,10,28,185,23,313]",1.866,rectangle
,,,,,,,,,,,,,FF,,,,,,,,1.3,,,,,,,,,,,,,,,,,,,,,,60ff4cd7d1037ecc61ca5b8b,61036c7aac7ff1e9063ecffc,2021-07-29_23h08.22.501,Simcolourproject_2stim_asymm_v5,2020.2.10,MacIntel,60,61025ae37ef11b136ea224fe,,,,,,,,,2270,34,71,1,0,0,response1disk,,7,4,-1,1,0,0,rectangle,4,-1,1,0,0,4,-1,1,0,0,0,30,30,82,1,,,,,,,,
,,,,,,,,,,,,,FF,,,,,,,,1.434,,,,,,,,,,,,,,,,,,,,,,60ff4cd7d1037ecc61ca5b8b,61036c7aac7ff1e9063ecffc,2021-07-29_23h08.22.501,Simcolourproject_2stim_asymm_v5,2020.2.10,MacIntel,60,61025ae37ef11b136ea224fe,,,,,,,,,1155,46,94,1,0,0,response1disk,,7,-2,-2,1,0,0,rectangle,-2,-2,1,0,0,-2,-2,1,0,0,0,31,31,47,1,,,,,,,,
,,,,,,,,,,,,,FF,,,,,,,,1.934,,,,,,,,,,,,,,,,,,,,,,60ff4cd7d1037ecc61ca5b8b,61036c7aac7ff1e9063ecffc,2021-07-29_23h08.22.501,Simcolourproject_2stim_asymm_v5,2020.2.10,MacIntel,60,61025ae37ef11b136ea224fe,,,,,,,,,2352,74,42,1,0,0,response1disk,,6,2,11,1,0,0,rectangle,2,11,1,0,0,2,11,1,0,0,0,32,32,78,1,,,,,,,,
,,,,,,,,,,,,,FF,,,,,,,,0.733,,,,,,,,,,,,,,,,,,,,,,60ff4cd7d1037ecc61ca5b8b,61036c7aac7ff1e9063ecffc,2021-07-29_23h08.22.501,Simcolourproject_2stim_asymm_v5,2020.2.10,MacIntel,60,61025ae37ef11b136ea224fe,,,,,,,,,332,35,79,1,0,0,response1disk,,7,7,0,1,0,0,rectangle,7,0,1,0,0,7,0,1,0,0,0,33,33,86,1,,,,,,,,
,,,,,,,,,,,,,FF,,,,,,,,0.65,,,,,,,,,,,,,,,,,,,,,,60ff4cd7d1037ecc61ca5b8b,61036c7aac7ff1e9063ecffc,2021-07-29_23h08.22.501,Simcolourproject_2stim_asymm_v5,2020.2.10,MacIntel,60,61025ae37ef11b136ea224fe,,,,,,,,,1646,37,75,1,0,0,response1disk,,7,5,0,1,0,0,rectangle,5,0,1,0,0,5,0,1,0,0,0,34,34,92,1,,,,,,,,
,,,,,,,,,,,,,FF,,,,,,,,2.083,,,,,,,,,,,,,,,,,,,,,,60ff4cd7d1037ecc61ca5b8b,61036c7aac7ff1e9063ecffc,2021-07-29_23h08.22.501,Simcolourproject_2stim_asymm_v5,2020.2.10,MacIntel,60,61025ae37ef11b136ea224fe,,,,,,,,,3742,-44,79,1,0,0,response7disk,,0,-1,4,1,0,0,rectangle,-1,4,1,0,0,-1,4,1,0,0,0,35,35,71,1,,,,,,,,
,,,,,,,,,,,,,FF,,,,,,,,5.3,,,,,,,,,,,,,,,,,,,,,,60ff4cd7d1037ecc61ca5b8b,61036c7aac7ff1e9063ecffc,2021-07-29_23h08.22.501,Simcolourproject_2stim_asymm_v5,2020.2.10,MacIntel,60,61025ae37ef11b136ea224fe,,,,,,,,,4024,28,85,1,0,0,response1disk,,7,9,12,1,0,0,rectangle,9,12,1,0,0,9,12,1,0,0,0,36,36,30,1,,,,,,,,
,,,,,,,,,,,,,FF,,,,,,,,1.667,,,,,,,,,,,,,,,,,,,,,,60ff4cd7d1037ecc61ca5b8b,61036c7aac7ff1e9063ecffc,2021-07-29_23h08.22.501,Simcolourproject_2stim_asymm_v5,2020.2.10,MacIntel,60,61025ae37ef11b136ea224fe,,,,,,,,,848,51,82,1,0,0,response1disk,,7,-1,3,1,0,0,rectangle,-1,3,1,0,0,-1,3,1,0,0,0,37,37,54,1,,,,,,,,
,,,,,,,,,,,,,FF,,,,,,,,1.083,,,,,,,,,,,,,,,,,,,,,,60ff4cd7d1037ecc61ca5b8b,61036c7aac7ff1e9063ecffc,2021-07-29_23h08.22.501,Simcolourproject_2stim_asymm_v5,2020.2.10,MacIntel,60,61025ae37ef11b136ea224fe,,,,,,,,,1490,40,77,1,0,0,response1disk,,7,0,3,1,0,0,rectangle,0,3,1,0,0,0,3,1,0,0,0,38,38,108,1,,,,,,,,
,,,,,,,,,,,,,FF,,,,,,,,1.083,,,,,,,,,,,,,,,,,,,,,,60ff4cd7d1037ecc61ca5b8b,61036c7aac7ff1e9063ecffc,2021-07-29_23h08.22.501,Simcolourproject_2stim_asymm_v5,2020.2.10,MacIntel,60,61025ae37ef11b136ea224fe,,,,,,,,,2346,36,71,1,0,0,response1disk,,7,8,1,1,0,0,rectangle,8,1,1,0,0,8,1,1,0,0,0,39,39,33,1,,,,,,,,
,,,,,,,,,,,,,FF,,,,,,,,3.334,,,,,,,,,,,,,,,,,,,,,,60ff4cd7d1037ecc61ca5b8b,61036c7aac7ff1e9063ecffc,2021-07-29_23h08.22.501,Simcolourproject_2stim_asymm_v5,2020.2.10,MacIntel,60,61025ae37ef11b136ea224fe,,,,,,,,,1042,58,98,1,0,0,response1disk,,7,-2,2,1,0,0,rectangle,-2,2,1,0,0,-2,2,1,0,0,0,40,40,156,1,,,,,,,,
,,,,,,,,,,,,,FF,,,,,,,,2.017,,,,,,,,,,,,,,,,,,,,,,60ff4cd7d1037ecc61ca5b8b,61036c7aac7ff1e9063ecffc,2021-07-29_23h08.22.501,Simcolourproject_2stim_asymm_v5,2020.2.10,MacIntel,60,61025ae37ef11b136ea224fe,,,,,,,,,1733,76,32,1,0,0,response1disk,,6,0,6,1,0,0,rectangle,0,6,1,0,0,0,6,1,0,0,0,41,41,106,1,,,,,,,,
,,,,,,,,,,,,,FF,,,,,,,,0.85,,,,,,,,,,,,,,,,,,,,,,60ff4cd7d1037ecc61ca5b8b,61036c7aac7ff1e9063ecffc,2021-07-29_23h08.22.501,Simcolourproject_2stim_asymm_v5,2020.2.10,MacIntel,60,61025ae37ef11b136ea224fe,,,,,,,,,4137,45,90,1,0,0,response1disk,,7,8,8,1,0,0,rectangle,8,8,1,0,0,8,8,1,0,0,0,42,42,2,1,,,,,,,,
,,,,,,,,,,,,,FF,,,,,,,,3.534,,,,,,,,,,,,,,,,,,,,,,60ff4cd7d1037ecc61ca5b8b,61036c7aac7ff1e9063ecffc,2021-07-29_23h08.22.501,Simcolourproject_2stim_asymm_v5,2020.2.10,MacIntel,60,61025ae37ef11b136ea224fe,,,,,,,,,3113,91,-38,1,0,0,response3disk,,5,24,-3,1,0,0,rectangle,24,-3,1,0,0,24,-3,1,0,0,0,43,43,147,1,,,,,,,,
,,,,,,,,,,,,,FF,,,,,,,,0.685,,,,,,,,,,,,,,,,,,,,,,60ff4cd7d1037ecc61ca5b8b,61036c7aac7ff1e9063ecffc,2021-07-29_23h08.22.501,Simcolourproject_2stim_asymm_v5,2020.2.10,MacIntel,60,61025ae37ef11b136ea224fe,,,,,,,,,1022,31,87,1,0,0,response1disk,,7,0,5,1,0,0,rectangle,0,5,1,0,0,0,5,1,0,0,0,44,44,49,1,,,,,,,,
,,,,,,,,,,,,,FF,,,,,,,,4.266,,,,,,,,,,,,,,,,,,,,,,60ff4cd7d1037ecc61ca5b8b,61036c7aac7ff1e9063ecffc,2021-07-29_23h08.22.501,Simcolourproject_2stim_asymm_v5,2020.2.10,MacIntel,60,61025ae37ef11b136ea224fe,,,,,,,,,1662,83,-52,1,0,0,response3disk,,5,10,-8,1,0,0,rectangle,10,-8,1,0,0,10,-8,1,0,0,0,45,45,140,1,,,,,,,,
,,,,,,,,,,,,,FF,,,,,,,,0.7,,,,,,,,,,,,,,,,,,,,,,60ff4cd7d1037ecc61ca5b8b,61036c7aac7ff1e9063ecffc,2021-07-29_23h08.22.501,Simcolourproject_2stim_asymm_v5,2020.2.10,MacIntel,60,61025ae37ef11b136ea224fe,,,,,,,,,3467,31,77,1,0,0,response1disk,,7,-12,-9,1,0,0,rectangle,-12,-9,1,0,0,-12,-9,1,0,0,0,46,46,39,1,,,,,,,,
,,,,,,,,,,,,,FF,,,,,,,,1.1,,,,,,,,,,,,,,,,,,,,,,60ff4cd7d1037ecc61ca5b8b,61036c7aac7ff1e9063ecffc,2021-07-29_23h08.22.501,Simcolourproject_2stim_asymm_v5,2020.2.10,MacIntel,60,61025ae37ef11b136ea224fe,,,,,,,,,3634,37,75,1,0,0,response1disk,,7,3,-5,1,0,0,rectangle,3,-5,1,0,0,3,-5,1,0,0,0,47,47,91,1,,,,,,,,
,,,,,,,,,,,,,FF,,,,,,,,2.033,,,,,,,,,,,,,,,,,,,,,,60ff4cd7d1037ecc61ca5b8b,61036c7aac7ff1e9063ecffc,2021-07-29_23h08.22.501,Simcolourproject_2stim_asymm_v5,2020.2.10,MacIntel,60,61025ae37ef11b136ea224fe,,,,,,,,,1812,106,-55,1,0,0,response3disk,,5,8,-7,1,0,0,rectangle,8,-7,1,0,0,8,-7,1,0,0,0,48,48,10,1,,,,,,,,
,,,,,,,,,,,,,FF,,,,,,,,0.584,,,,,,,,,,,,,,,,,,,,,,60ff4cd7d1037ecc61ca5b8b,61036c7aac7ff1e9063ecffc,2021-07-29_23h08.22.501,Simcolourproject_2stim_asymm_v5,2020.2.10,MacIntel,60,61025ae37ef11b136ea224fe,,,,,,,,,3345,20,63,1,0,0,response1disk,,7,0,-13,1,0,0,rectangle,0,-13,1,0,0,0,-13,1,0,0,0,49,49,123,1,,,,,,,,
,,,,,,,,,,,,,FF,,,,,,,,1.167,,,,,,,,,,,,,,,,,,,,,,60ff4cd7d1037ecc61ca5b8b,61036c7aac7ff1e9063ecffc,2021-07-29_23h08.22.501,Simcolourproject_2stim_asymm_v5,2020.2.10,MacIntel,60,61025ae37ef11b136ea224fe,,,,,,,,,2723,23,-75,1,0,0,response3disk,,4,-6,4,1,0,0,rectangle,-6,4,1,0,0,-6,4,1,0,0,0,50,50,115,1,,,,,,,,
,,,,,,,,,,,,,FF,,,,,,,,0.935,,,,,,,,,,,,,,,,,,,,,,60ff4cd7d1037ecc61ca5b8b,61036c7aac7ff1e9063ecffc,2021-07-29_23h08.22.501,Simcolourproject_2stim_asymm_v5,2020.2.10,MacIntel,60,61025ae37ef11b136ea224fe,,,,,,,,,486,29,69,1,0,0,response1disk,,7,-9,-6,1,0,0,rectangle,-9,-6,1,0,0,-9,-6,1,0,0,0,51,51,8,1,,,,,,,,
,,,,,,,,,,,,,FF,,,,,,,,0.868,,,,,,,,,,,,,,,,,,,,,,60ff4cd7d1037ecc61ca5b8b,61036c7aac7ff1e9063ecffc,2021-07-29_23h08.22.501,Simcolourproject_2stim_asymm_v5,2020.2.10,MacIntel,60,61025ae37ef11b136ea224fe,,,,,,,,,769,41,72,1,0,0,response1disk,,7,9,1,1,0,0,rectangle,9,1,1,0,0,9,1,1,0,0,0,52,52,73,1,,,,,,,,
,,,,,,,,,,,,,FF,,,,,,,,1.866,,,,,,,,,,,,,,,,,,,,,,60ff4cd7d1037ecc61ca5b8b,61036c7aac7ff1e9063ecffc,2021-07-29_23h08.22.501,Simcolourproject_2stim_asymm_v5,2020.2.10,MacIntel,60,61025ae37ef11b136ea224fe,,,,,,,,,807,24,-82,1,0,0,response3disk,,4,-14,0,1,0,0,rectangle,-14,0,1,0,0,-14,0,1,0,0,0,53,53,158,1,,,,,,,,
,,,,,,,,,,,,,FF,,,,,,,,0.817,,,,,,,,,,,,,,,,,,,,,,60ff4cd7d1037ecc61ca5b8b,61036c7aac7ff1e9063ecffc,2021-07-29_23h08.22.501,Simcolourproject_2stim_asymm_v5,2020.2.10,MacIntel,60,61025ae37ef11b136ea224fe,,,,,,,,,3029,27,71,1,0,0,response1disk,,7,-2,1,1,0,0,rectangle,-2,1,1,0,0,-2,1,1,0,0,0,54,54,127,1,,,,,,,,
,,,,,,,,,,,,,FF,,,,,,,,0.949,,,,,,,,,,,,,,,,,,,,,,60ff4cd7d1037ecc61ca5b8b,61036c7aac7ff1e9063ecffc,2021-07-29_23h08.22.501,Simcolourproject_2stim_asymm_v5,2020.2.10,MacIntel,60,61025ae37ef11b136ea224fe,,,,,,,,,4072,30,63,1,0,0,response1disk,,7,11,1,1,0,0,rectangle,-35,-81,1,0,0,-7,-8,1,0,0,0,55,55,102,1,,response5disk_3,TRUE,3,3,"[68,110,99,138,91,198,291,24,30,277,165,194,119,30,56,10,28,185,23,313]",1.85,rectangle
,,,,,,,,,,,,,FF,,,,,,,,2.217,,,,,,,,,,,,,,,,,,,,,,60ff4cd7d1037ecc61ca5b8b,61036c7aac7ff1e9063ecffc,2021-07-29_23h08.22.501,Simcolourproject_2stim_asymm_v5,2020.2.10,MacIntel,60,61025ae37ef11b136ea224fe,,,,,,,,,738,31,69,1,0,0,response1disk,,7,-2,-5,1,0,0,rectangle,-2,-5,1,0,0,-2,-5,1,0,0,0,56,56,1,1,,,,,,,,
,,,,,,,,,,,,,FF,,,,,,,,0.616,,,,,,,,,,,,,,,,,,,,,,60ff4cd7d1037ecc61ca5b8b,61036c7aac7ff1e9063ecffc,2021-07-29_23h08.22.501,Simcolourproject_2stim_asymm_v5,2020.2.10,MacIntel,60,61025ae37ef11b136ea224fe,,,,,,,,,3177,22,62,1,0,0,response1disk,,7,3,3,1,0,0,rectangle,3,3,1,0,0,3,3,1,0,0,0,57,57,125,1,,,,,,,,
,,,,,,,,,,,,,FF,,,,,,,,0.668,,,,,,,,,,,,,,,,,,,,,,60ff4cd7d1037ecc61ca5b8b,61036c7aac7ff1e9063ecffc,2021-07-29_23h08.22.501,Simcolourproject_2stim_asymm_v5,2020.2.10,MacIntel,60,61025ae37ef11b136ea224fe,,,,,,,,,931,33,65,1,0,0,response1disk,,7,10,10,1,0,0,rectangle,10,10,1,0,0,10,10,1,0,0,0,58,58,31,1,,,,,,,,
,,,,,,,,,,,,,FF,,,,,,,,3.118,,,,,,,,,,,,,,,,,,,,,,60ff4cd7d1037ecc61ca5b8b,61036c7aac7ff1e9063ecffc,2021-07-29_23h08.22.501,Simcolourproject_2stim_asymm_v5,2020.2.10,MacIntel,60,61025ae37ef11b136ea224fe,,,,,,,,,786,55,32,1,0,0,response1disk,,6,10,11,1,0,0,rectangle,10,11,1,0,0,10,11,1,0,0,0,59,59,145,1,,,,,,,,
,,,,,,,,,,,,,FF,,,,,,,,0.599,,,,,,,,,,,,,,,,,,,,,,60ff4cd7d1037ecc61ca5b8b,61036c7aac7ff1e9063ecffc,2021-07-29_23h08.22.501,Simcolourproject_2stim_asymm_v5,2020.2.10,MacIntel,60,61025ae37ef11b136ea224fe,,,,,,,,,3499,19,53,1,0,0,response1disk,,7,3,10,1,0,0,rectangle,3,10,1,0,0,3,10,1,0,0,0,60,60,118,1,,,,,,,,
,,,,,,,,,,,,,FF,,,,,,,,1.234,,,,,,,,,,,,,,,,,,,,,,60ff4cd7d1037ecc61ca5b8b,61036c7aac7ff1e9063ecffc,2021-07-29_23h08.22.501,Simcolourproject_2stim_asymm_v5,2020.2.10,MacIntel,60,61025ae37ef11b136ea224fe,,,,,,,,,246,36,57,1,0,0,response1disk,,7,12,9,1,0,0,rectangle,12,9,1,0,0,12,9,1,0,0,0,61,61,6,1,,,,,,,,
,,,,,,,,,,,,,FF,,,,,,,,1.251,,,,,,,,,,,,,,,,,,,,,,60ff4cd7d1037ecc61ca5b8b,61036c7aac7ff1e9063ecffc,2021-07-29_23h08.22.501,Simcolourproject_2stim_asymm_v5,2020.2.10,MacIntel,60,61025ae37ef11b136ea224fe,,,,,,,,,3423,31,57,1,0,0,response1disk,,7,6,-8,1,0,0,rectangle,6,-8,1,0,0,6,-8,1,0,0,0,62,62,62,1,,,,,,,,
,,,,,,,,,,,,,FF,,,,,,,,2.101,,,,,,,,,,,,,,,,,,,,,,60ff4cd7d1037ecc61ca5b8b,61036c7aac7ff1e9063ecffc,2021-07-29_23h08.22.501,Simcolourproject_2stim_asymm_v5,2020.2.10,MacIntel,60,61025ae37ef11b136ea224fe,,,,,,,,,884,30,-87,1,0,0,response3disk,,4,14,-5,1,0,0,rectangle,14,-5,1,0,0,14,-5,1,0,0,0,63,63,16,1,,,,,,,,
,,,,,,,,,,,,,FF,,,,,,,,5.2,,,,,,,,,,,,,,,,,,,,,,60ff4cd7d1037ecc61ca5b8b,61036c7aac7ff1e9063ecffc,2021-07-29_23h08.22.501,Simcolourproject_2stim_asymm_v5,2020.2.10,MacIntel,60,61025ae37ef11b136ea224fe,,,,,,,,,4321,94,-32,1,0,0,response3disk,,5,10,13,1,0,0,rectangle,10,13,1,0,0,10,13,1,0,0,0,64,64,74,1,,,,,,,,
,,,,,,,,,,,,,FF,,,,,,,,1.566,,,,,,,,,,,,,,,,,,,,,,60ff4cd7d1037ecc61ca5b8b,61036c7aac7ff1e9063ecffc,2021-07-29_23h08.22.501,Simcolourproject_2stim_asymm_v5,2020.2.10,MacIntel,60,61025ae37ef11b136ea224fe,,,,,,,,,3544,78,-37,1,0,0,response3disk,,5,13,2,1,0,0,rectangle,13,2,1,0,0,13,2,1,0,0,0,65,65,41,1,,,,,,,,
,,,,,,,,,,,,,FF,,,,,,,,1.367,,,,,,,,,,,,,,,,,,,,,,60ff4cd7d1037ecc61ca5b8b,61036c7aac7ff1e9063ecffc,2021-07-29_23h08.22.501,Simcolourproject_2stim_asymm_v5,2020.2.10,MacIntel,60,61025ae37ef11b136ea224fe,,,,,,,,,1217,70,-36,1,0,0,response3disk,,5,15,-9,1,0,0,rectangle,15,-9,1,0,0,15,-9,1,0,0,0,66,66,9,1,,,,,,,,
,,,,,,,,,,,,,FF,,,,,,,,2.416,,,,,,,,,,,,,,,,,,,,,,60ff4cd7d1037ecc61ca5b8b,61036c7aac7ff1e9063ecffc,2021-07-29_23h08.22.501,Simcolourproject_2stim_asymm_v5,2020.2.10,MacIntel,60,61025ae37ef11b136ea224fe,,,,,,,,,1695,34,70,1,0,0,response1disk,,7,4,-9,1,0,0,rectangle,74,-39,1,0,0,17,-3,1,0,0,0,67,67,154,1,,response3disk_3,TRUE,5,5,"[68,110,99,138,91,198,291,24,30,277,165,194,119,30,56,10,28,185,23,313]",1.682,rectangle
,,,,,,,,,,,,,FF,,,,,,,,0.868,,,,,,,,,,,,,,,,,,,,,,60ff4cd7d1037ecc61ca5b8b,61036c7aac7ff1e9063ecffc,2021-07-29_23h08.22.501,Simcolourproject_2stim_asymm_v5,2020.2.10,MacIntel,60,61025ae37ef11b136ea224fe,,,,,,,,,27,40,67,1,0,0,response1disk,,7,14,10,1,0,0,rectangle,14,10,1,0,0,14,10,1,0,0,0,68,68,88,1,,,,,,,,
,,,,,,,,,,,,,FF,,,,,,,,0.784,,,,,,,,,,,,,,,,,,,,,,60ff4cd7d1037ecc61ca5b8b,61036c7aac7ff1e9063ecffc,2021-07-29_23h08.22.501,Simcolourproject_2stim_asymm_v5,2020.2.10,MacIntel,60,61025ae37ef11b136ea224fe,,,,,,,,,3834,45,96,1,0,0,response1disk,,7,-2,-6,1,0,0,rectangle,-2,-6,1,0,0,-2,-6,1,0,0,0,69,69,100,1,,,,,,,,
,,,,,,,,,,,,,FF,,,,,,,,1.167,,,,,,,,,,,,,,,,,,,,,,60ff4cd7d1037ecc61ca5b8b,61036c7aac7ff1e9063ecffc,2021-07-29_23h08.22.501,Simcolourproject_2stim_asymm_v5,2020.2.10,MacIntel,60,61025ae37ef11b136ea224fe,,,,,,,,,3093,72,-35,1,0,0,response3disk,,5,3,0,1,0,0,rectangle,3,0,1,0,0,3,0,1,0,0,0,70,70,116,1,,,,,,,,
,,,,,,,,,,,,,FF,,,,,,,,0.85,,,,,,,,,,,,,,,,,,,,,,60ff4cd7d1037ecc61ca5b8b,61036c7aac7ff1e9063ecffc,2021-07-29_23h08.22.501,Simcolourproject_2stim_asymm_v5,2020.2.10,MacIntel,60,61025ae37ef11b136ea224fe,,,,,,,,,1919,47,86,1,0,0,response1disk,,7,14,10,1,0,0,rectangle,14,10,1,0,0,14,10,1,0,0,0,71,71,0,1,,,,,,,,
,,,,,,,,,,,,,FF,,,,,,,,1,,,,,,,,,,,,,,,,,,,,,,60ff4cd7d1037ecc61ca5b8b,61036c7aac7ff1e9063ecffc,2021-07-29_23h08.22.501,Simcolourproject_2stim_asymm_v5,2020.2.10,MacIntel,60,61025ae37ef11b136ea224fe,,,,,,,,,1545,36,64,1,0,0,response1disk,,7,14,3,1,0,0,rectangle,14,3,1,0,0,14,3,1,0,0,0,72,72,150,1,,,,,,,,
,,,,,,,,,,,,,FF,,,,,,,,2.134,,,,,,,,,,,,,,,,,,,,,,60ff4cd7d1037ecc61ca5b8b,61036c7aac7ff1e9063ecffc,2021-07-29_23h08.22.501,Simcolourproject_2stim_asymm_v5,2020.2.10,MacIntel,60,61025ae37ef11b136ea224fe,,,,,,,,,3273,35,57,1,0,0,response1disk,,7,19,10,1,0,0,rectangle,19,10,1,0,0,19,10,1,0,0,0,73,73,95,1,,,,,,,,
,,,,,,,,,,,,,FF,,,,,,,,0.716,,,,,,,,,,,,,,,,,,,,,,60ff4cd7d1037ecc61ca5b8b,61036c7aac7ff1e9063ecffc,2021-07-29_23h08.22.501,Simcolourproject_2stim_asymm_v5,2020.2.10,MacIntel,60,61025ae37ef11b136ea224fe,,,,,,,,,1176,40,73,1,0,0,response1disk,,7,5,-1,1,0,0,rectangle,5,-1,1,0,0,5,-1,1,0,0,0,74,74,132,1,,,,,,,,
,,,,,,,,,,,,,FF,,,,,,,,2.934,,,,,,,,,,,,,,,,,,,,,,60ff4cd7d1037ecc61ca5b8b,61036c7aac7ff1e9063ecffc,2021-07-29_23h08.22.501,Simcolourproject_2stim_asymm_v5,2020.2.10,MacIntel,60,61025ae37ef11b136ea224fe,,,,,,,,,4033,81,34,1,0,0,response1disk,,6,2,-5,1,0,0,rectangle,2,-5,1,0,0,2,-5,1,0,0,0,75,75,57,1,,,,,,,,
,,,,,,,,,,,,,FF,,,,,,,,1.068,,,,,,,,,,,,,,,,,,,,,,60ff4cd7d1037ecc61ca5b8b,61036c7aac7ff1e9063ecffc,2021-07-29_23h08.22.501,Simcolourproject_2stim_asymm_v5,2020.2.10,MacIntel,60,61025ae37ef11b136ea224fe,,,,,,,,,606,76,31,1,0,0,response1disk,,6,11,7,1,0,0,rectangle,11,7,1,0,0,11,7,1,0,0,0,76,76,20,1,,,,,,,,
,,,,,,,,,,,,,FF,,,,,,,,0.784,,,,,,,,,,,,,,,,,,,,,,60ff4cd7d1037ecc61ca5b8b,61036c7aac7ff1e9063ecffc,2021-07-29_23h08.22.501,Simcolourproject_2stim_asymm_v5,2020.2.10,MacIntel,60,61025ae37ef11b136ea224fe,,,,,,,,,3178,31,75,1,0,0,response1disk,,7,12,0,1,0,0,rectangle,12,0,1,0,0,12,0,1,0,0,0,77,77,94,1,,,,,,,,
,,,,,,,,,,,,,FF,,,,,,,,1.166,,,,,,,,,,,,,,,,,,,,,,60ff4cd7d1037ecc61ca5b8b,61036c7aac7ff1e9063ecffc,2021-07-29_23h08.22.501,Simcolourproject_2stim_asymm_v5,2020.2.10,MacIntel,60,61025ae37ef11b136ea224fe,,,,,,,,,3759,33,80,1,0,0,response1disk,,7,13,5,1,0,0,rectangle,13,5,1,0,0,13,5,1,0,0,0,78,78,133,1,,,,,,,,
,,,,,,,,,,,,,FF,,,,,,,,0.867,,,,,,,,,,,,,,,,,,,,,,60ff4cd7d1037ecc61ca5b8b,61036c7aac7ff1e9063ecffc,2021-07-29_23h08.22.501,Simcolourproject_2stim_asymm_v5,2020.2.10,MacIntel,60,61025ae37ef11b136ea224fe,,,,,,,,,1471,32,86,1,0,0,response1disk,,7,-1,-7,1,0,0,rectangle,-1,-7,1,0,0,-1,-7,1,0,0,0,79,79,110,1,,,,,,,,
,,,,,,,,,,,,,FF,,,,,,,,1.484,,,,,,,,,,,,,,,,,,,,,,60ff4cd7d1037ecc61ca5b8b,61036c7aac7ff1e9063ecffc,2021-07-29_23h08.22.501,Simcolourproject_2stim_asymm_v5,2020.2.10,MacIntel,60,61025ae37ef11b136ea224fe,,,,,,,,,2598,32,70,1,0,0,response1disk,,7,7,-1,1,0,0,rectangle,7,-1,1,0,0,7,-1,1,0,0,0,80,80,130,1,,,,,,,,
,,,,,,,,,,,,,FF,,,,,,,,1.384,,,,,,,,,,,,,,,,,,,,,,60ff4cd7d1037ecc61ca5b8b,61036c7aac7ff1e9063ecffc,2021-07-29_23h08.22.501,Simcolourproject_2stim_asymm_v5,2020.2.10,MacIntel,60,61025ae37ef11b136ea224fe,,,,,,,,,428,48,91,1,0,0,response1disk,,7,20,6,1,0,0,rectangle,20,6,1,0,0,20,6,1,0,0,0,81,81,40,1,,,,,,,,
,,,,,,,,,,,,,FF,,,,,,,,2.317,,,,,,,,,,,,,,,,,,,,,,60ff4cd7d1037ecc61ca5b8b,61036c7aac7ff1e9063ecffc,2021-07-29_23h08.22.501,Simcolourproject_2stim_asymm_v5,2020.2.10,MacIntel,60,61025ae37ef11b136ea224fe,,,,,,,,,3824,51,29,1,0,0,response1disk,,6,21,1,1,0,0,rectangle,21,1,1,0,0,21,1,1,0,0,0,82,82,12,1,,,,,,,,
,,,,,,,,,,,,,FF,,,,,,,,0.784,,,,,,,,,,,,,,,,,,,,,,60ff4cd7d1037ecc61ca5b8b,61036c7aac7ff1e9063ecffc,2021-07-29_23h08.22.501,Simcolourproject_2stim_asymm_v5,2020.2.10,MacIntel,60,61025ae37ef11b136ea224fe,,,,,,,,,3958,32,61,1,0,0,response1disk,,7,14,1,1,0,0,rectangle,14,1,1,0,0,14,1,1,0,0,0,83,83,113,1,,,,,,,,
,,,,,,,,,,,,,FF,,,,,,,,1.417,,,,,,,,,,,,,,,,,,,,,,60ff4cd7d1037ecc61ca5b8b,61036c7aac7ff1e9063ecffc,2021-07-29_23h08.22.501,Simcolourproject_2stim_asymm_v5,2020.2.10,MacIntel,60,61025ae37ef11b136ea224fe,,,,,,,,,902,35,54,1,0,0,response1disk,,7,16,6,1,0,0,rectangle,16,6,1,0,0,16,6,1,0,0,0,84,84,79,1,,,,,,,,
,,,,,,,,,,,,,FF,,,,,,,,0.634,,,,,,,,,,,,,,,,,,,,,,60ff4cd7d1037ecc61ca5b8b,61036c7aac7ff1e9063ecffc,2021-07-29_23h08.22.501,Simcolourproject_2stim_asymm_v5,2020.2.10,MacIntel,60,61025ae37ef11b136ea224fe,,,,,,,,,1548,27,54,1,0,0,response1disk,,7,15,9,1,0,0,rectangle,15,9,1,0,0,15,9,1,0,0,0,85,85,24,1,,,,,,,,
,,,,,,,,,,,,,FF,,,,,,,,1.784,,,,,,,,,,,,,,,,,,,,,,60ff4cd7d1037ecc61ca5b8b,61036c7aac7ff1e9063ecffc,2021-07-29_23h08.22.501,Simcolourproject_2stim_asymm_v5,2020.2.10,MacIntel,60,61025ae37ef11b136ea224fe,,,,,,,,,633,58,35,1,0,0,response1disk,,6,10,1,1,0,0,rectangle,10,1,1,0,0,10,1,1,0,0,0,86,86,138,1,,,,,,,,
,,,,,,,,,,,,,FF,,,,,,,,4.951,,,,,,,,,,,,,,,,,,,,,,60ff4cd7d1037ecc61ca5b8b,61036c7aac7ff1e9063ecffc,2021-07-29_23h08.22.501,Simcolourproject_2stim_asymm_v5,2020.2.10,MacIntel,60,61025ae37ef11b136ea224fe,,,,,,,,,1338,60,32,1,0,0,response1disk,,6,7,7,1,0,0,rectangle,7,7,1,0,0,7,7,1,0,0,0,87,87,18,1,,,,,,,,
,,,,,,,,,,,,,FF,,,,,,,,2.466,,,,,,,,,,,,,,,,,,,,,,60ff4cd7d1037ecc61ca5b8b,61036c7aac7ff1e9063ecffc,2021-07-29_23h08.22.501,Simcolourproject_2stim_asymm_v5,2020.2.10,MacIntel,60,61025ae37ef11b136ea224fe,,,,,,,,,2360,75,-55,1,0,0,response3disk,,5,11,-5,1,0,0,rectangle,11,-5,1,0,0,11,-5,1,0,0,0,88,88,129,1,,,,,,,,
,,,,,,,,,,,,,FF,,,,,,,,1.15,,,,,,,,,,,,,,,,,,,,,,60ff4cd7d1037ecc61ca5b8b,61036c7aac7ff1e9063ecffc,2021-07-29_23h08.22.501,Simcolourproject_2stim_asymm_v5,2020.2.10,MacIntel,60,61025ae37ef11b136ea224fe,,,,,,,,,2220,58,-30,1,0,0,response3disk,,5,19,-12,1,0,0,rectangle,19,-12,1,0,0,19,-12,1,0,0,0,89,89,68,1,,,,,,,,
,,,,,,,,,,,,,FF,,,,,,,,1.166,,,,,,,,,,,,,,,,,,,,,,60ff4cd7d1037ecc61ca5b8b,61036c7aac7ff1e9063ecffc,2021-07-29_23h08.22.501,Simcolourproject_2stim_asymm_v5,2020.2.10,MacIntel,60,61025ae37ef11b136ea224fe,,,,,,,,,2720,56,-40,1,0,0,response3disk,,5,11,7,1,0,0,rectangle,-58,-70,1,0,0,-12,2,1,0,0,0,90,90,21,1,,response5disk_3,TRUE,3,3,"[68,110,99,138,91,198,291,24,30,277,165,194,119,30,56,10,28,185,23,313]",2.3,rectangle
,,,,,,,,,,,,,FF,,,,,,,,2.25,,,,,,,,,,,,,,,,,,,,,,60ff4cd7d1037ecc61ca5b8b,61036c7aac7ff1e9063ecffc,2021-07-29_23h08.22.501,Simcolourproject_2stim_asymm_v5,2020.2.10,MacIntel,60,61025ae37ef11b136ea224fe,,,,,,,,,395,64,29,1,0,0,response1disk,,6,11,-3,1,0,0,rectangle,11,-3,1,0,0,11,-3,1,0,0,0,91,91,120,1,,,,,,,,
,,,,,,,,,,,,,FF,,,,,,,,0.733,,,,,,,,,,,,,,,,,,,,,,60ff4cd7d1037ecc61ca5b8b,61036c7aac7ff1e9063ecffc,2021-07-29_23h08.22.501,Simcolourproject_2stim_asymm_v5,2020.2.10,MacIntel,60,61025ae37ef11b136ea224fe,,,,,,,,,1063,19,61,1,0,0,response1disk,,7,5,10,1,0,0,rectangle,5,10,1,0,0,5,10,1,0,0,0,92,92,43,1,,,,,,,,
,,,,,,,,,,,,,FF,,,,,,,,1.466,,,,,,,,,,,,,,,,,,,,,,60ff4cd7d1037ecc61ca5b8b,61036c7aac7ff1e9063ecffc,2021-07-29_23h08.22.501,Simcolourproject_2stim_asymm_v5,2020.2.10,MacIntel,60,61025ae37ef11b136ea224fe,,,,,,,,,380,59,36,1,0,0,response1disk,,6,14,11,1,0,0,rectangle,14,11,1,0,0,14,11,1,0,0,0,93,93,17,1,,,,,,,,
,,,,,,,,,,,,,FF,,,,,,,,0.617,,,,,,,,,,,,,,,,,,,,,,60ff4cd7d1037ecc61ca5b8b,61036c7aac7ff1e9063ecffc,2021-07-29_23h08.22.501,Simcolourproject_2stim_asymm_v5,2020.2.10,MacIntel,60,61025ae37ef11b136ea224fe,,,,,,,,,2459,28,74,1,0,0,response1disk,,7,12,14,1,0,0,rectangle,12,14,1,0,0,12,14,1,0,0,0,94,94,159,1,,,,,,,,
,,,,,,,,,,,,,FF,,,,,,,,1.132,,,,,,,,,,,,,,,,,,,,,,60ff4cd7d1037ecc61ca5b8b,61036c7aac7ff1e9063ecffc,2021-07-29_23h08.22.501,Simcolourproject_2stim_asymm_v5,2020.2.10,MacIntel,60,61025ae37ef11b136ea224fe,,,,,,,,,3706,-29,-79,1,0,0,response5disk,,3,-3,9,1,0,0,rectangle,-3,9,1,0,0,-3,9,1,0,0,0,95,95,114,1,,,,,,,,
,,,,,,,,,,,,,FF,,,,,,,,0.717,,,,,,,,,,,,,,,,,,,,,,60ff4cd7d1037ecc61ca5b8b,61036c7aac7ff1e9063ecffc,2021-07-29_23h08.22.501,Simcolourproject_2stim_asymm_v5,2020.2.10,MacIntel,60,61025ae37ef11b136ea224fe,,,,,,,,,1107,20,60,1,0,0,response1disk,,7,-3,-3,1,0,0,rectangle,-3,-3,1,0,0,-3,-3,1,0,0,0,96,96,61,1,,,,,,,,
,,,,,,,,,,,,,FF,,,,,,,,0.667,,,,,,,,,,,,,,,,,,,,,,60ff4cd7d1037ecc61ca5b8b,61036c7aac7ff1e9063ecffc,2021-07-29_23h08.22.501,Simcolourproject_2stim_asymm_v5,2020.2.10,MacIntel,60,61025ae37ef11b136ea224fe,,,,,,,,,594,29,43,1,0,0,response1disk,,7,6,-11,1,0,0,rectangle,6,-11,1,0,0,6,-11,1,0,0,0,97,97,84,1,,,,,,,,
,,,,,,,,,,,,,FF,,,,,,,,0.734,,,,,,,,,,,,,,,,,,,,,,60ff4cd7d1037ecc61ca5b8b,61036c7aac7ff1e9063ecffc,2021-07-29_23h08.22.501,Simcolourproject_2stim_asymm_v5,2020.2.10,MacIntel,60,61025ae37ef11b136ea224fe,,,,,,,,,1110,37,61,1,0,0,response1disk,,7,-7,-7,1,0,0,rectangle,67,43,1,0,0,9,-9,1,0,0,0,98,98,29,1,,response1disk_3,TRUE,6,6,"[68,110,99,138,91,198,291,24,30,277,165,194,119,30,56,10,28,185,23,313]",1.417,rectangle
,,,,,,,,,,,,,FF,,,,,,,,0.751,,,,,,,,,,,,,,,,,,,,,,60ff4cd7d1037ecc61ca5b8b,61036c7aac7ff1e9063ecffc,2021-07-29_23h08.22.501,Simcolourproject_2stim_asymm_v5,2020.2.10,MacIntel,60,61025ae37ef11b136ea224fe,,,,,,,,,3379,34,52,1,0,0,response1disk,,7,6,-3,1,0,0,rectangle,6,-3,1,0,0,6,-3,1,0,0,0,99,99,42,1,,,,,,,,
,,,,,,,,,,,,,FF,,,,,,,,2.284,,,,,,,,,,,,,,,,,,,,,,60ff4cd7d1037ecc61ca5b8b,61036c7aac7ff1e9063ecffc,2021-07-29_23h08.22.501,Simcolourproject_2stim_asymm_v5,2020.2.10,MacIntel,60,61025ae37ef11b136ea224fe,,,,,,,,,366,-71,-43,1,0,0,response5disk,,2,-22,-13,1,0,0,rectangle,-22,-13,1,0,0,-22,-13,1,0,0,0,100,100,142,1,,,,,,,,
,,,,,,,,,,,,,FF,,,,,,,,1.067,,,,,,,,,,,,,,,,,,,,,,60ff4cd7d1037ecc61ca5b8b,61036c7aac7ff1e9063ecffc,2021-07-29_23h08.22.501,Simcolourproject_2stim_asymm_v5,2020.2.10,MacIntel,60,61025ae37ef11b136ea224fe,,,,,,,,,1211,-59,32,1,0,0,response7disk,,1,-7,1,1,0,0,rectangle,-7,1,1,0,0,-7,1,1,0,0,0,101,101,131,1,,,,,,,,
,,,,,,,,,,,,,FF,,,,,,,,0.699,,,,,,,,,,,,,,,,,,,,,,60ff4cd7d1037ecc61ca5b8b,61036c7aac7ff1e9063ecffc,2021-07-29_23h08.22.501,Simcolourproject_2stim_asymm_v5,2020.2.10,MacIntel,60,61025ae37ef11b136ea224fe,,,,,,,,,3827,40,68,1,0,0,response1disk,,7,9,8,1,0,0,rectangle,9,8,1,0,0,9,8,1,0,0,0,102,102,104,1,,,,,,,,
,,,,,,,,,,,,,FF,,,,,,,,1.1,,,,,,,,,,,,,,,,,,,,,,60ff4cd7d1037ecc61ca5b8b,61036c7aac7ff1e9063ecffc,2021-07-29_23h08.22.501,Simcolourproject_2stim_asymm_v5,2020.2.10,MacIntel,60,61025ae37ef11b136ea224fe,,,,,,,,,429,42,38,1,0,0,response1disk,,6,14,10,1,0,0,rectangle,14,10,1,0,0,14,10,1,0,0,0,103,103,101,1,,,,,,,,
,,,,,,,,,,,,,FF,,,,,,,,0.984,,,,,,,,,,,,,,,,,,,,,,60ff4cd7d1037ecc61ca5b8b,61036c7aac7ff1e9063ecffc,2021-07-29_23h08.22.501,Simcolourproject_2stim_asymm_v5,2020.2.10,MacIntel,60,61025ae37ef11b136ea224fe,,,,,,,,,3896,38,86,1,0,0,response1disk,,7,4,-1,1,0,0,rectangle,4,-1,1,0,0,4,-1,1,0,0,0,104,104,76,1,,,,,,,,
,,,,,,,,,,,,,FF,,,,,,,,0.634,,,,,,,,,,,,,,,,,,,,,,60ff4cd7d1037ecc61ca5b8b,61036c7aac7ff1e9063ecffc,2021-07-29_23h08.22.501,Simcolourproject_2stim_asymm_v5,2020.2.10,MacIntel,60,61025ae37ef11b136ea224fe,,,,,,,,,3871,55,23,1,0,0,response1disk,,6,14,-3,1,0,0,rectangle,14,-3,1,0,0,14,-3,1,0,0,0,105,105,141,1,,,,,,,,
,,,,,,,,,,,,,FF,,,,,,,,1.566,,,,,,,,,,,,,,,,,,,,,,60ff4cd7d1037ecc61ca5b8b,61036c7aac7ff1e9063ecffc,2021-07-29_23h08.22.501,Simcolourproject_2stim_asymm_v5,2020.2.10,MacIntel,60,61025ae37ef11b136ea224fe,,,,,,,,,1285,43,-28,1,0,0,response3disk,,5,9,-3,1,0,0,rectangle,9,-3,1,0,0,9,-3,1,0,0,0,106,106,99,1,,,,,,,,
,,,,,,,,,,,,,FF,,,,,,,,1.451,,,,,,,,,,,,,,,,,,,,,,60ff4cd7d1037ecc61ca5b8b,61036c7aac7ff1e9063ecffc,2021-07-29_23h08.22.501,Simcolourproject_2stim_asymm_v5,2020.2.10,MacIntel,60,61025ae37ef11b136ea224fe,,,,,,,,,3435,22,51,1,0,0,response1disk,,7,11,-1,1,0,0,rectangle,11,-1,1,0,0,11,-1,1,0,0,0,107,107,137,1,,,,,,,,
,,,,,,,,,,,,,FF,,,,,,,,0.65,,,,,,,,,,,,,,,,,,,,,,60ff4cd7d1037ecc61ca5b8b,61036c7aac7ff1e9063ecffc,2021-07-29_23h08.22.501,Simcolourproject_2stim_asymm_v5,2020.2.10,MacIntel,60,61025ae37ef11b136ea224fe,,,,,,,,,2353,25,60,1,0,0,response1disk,,7,9,5,1,0,0,rectangle,9,5,1,0,0,9,5,1,0,0,0,108,108,144,1,,,,,,,,
,,,,,,,,,,,,,FF,,,,,,,,1.016,,,,,,,,,,,,,,,,,,,,,,60ff4cd7d1037ecc61ca5b8b,61036c7aac7ff1e9063ecffc,2021-07-29_23h08.22.501,Simcolourproject_2stim_asymm_v5,2020.2.10,MacIntel,60,61025ae37ef11b136ea224fe,,,,,,,,,3686,37,56,1,0,0,response1disk,,7,16,0,1,0,0,rectangle,24,-82,1,0,0,-6,-3,1,0,0,0,109,109,119,1,,response3disk_3,TRUE,4,4,"[68,110,99,138,91,198,291,24,30,277,165,194,119,30,56,10,28,185,23,313]",1.667,rectangle
,,,,,,,,,,,,,FF,,,,,,,,0.817,,,,,,,,,,,,,,,,,,,,,,60ff4cd7d1037ecc61ca5b8b,61036c7aac7ff1e9063ecffc,2021-07-29_23h08.22.501,Simcolourproject_2stim_asymm_v5,2020.2.10,MacIntel,60,61025ae37ef11b136ea224fe,,,,,,,,,3895,43,66,1,0,0,response1disk,,7,7,-1,1,0,0,rectangle,7,-1,1,0,0,7,-1,1,0,0,0,110,110,81,1,,,,,,,,
,,,,,,,,,,,,,FF,,,,,,,,0.549,,,,,,,,,,,,,,,,,,,,,,60ff4cd7d1037ecc61ca5b8b,61036c7aac7ff1e9063ecffc,2021-07-29_23h08.22.501,Simcolourproject_2stim_asymm_v5,2020.2.10,MacIntel,60,61025ae37ef11b136ea224fe,,,,,,,,,2523,36,70,1,0,0,response1disk,,7,8,-2,1,0,0,rectangle,8,-2,1,0,0,8,-2,1,0,0,0,111,111,80,1,,,,,,,,
,,,,,,,,,,,,,FF,,,,,,,,1.184,,,,,,,,,,,,,,,,,,,,,,60ff4cd7d1037ecc61ca5b8b,61036c7aac7ff1e9063ecffc,2021-07-29_23h08.22.501,Simcolourproject_2stim_asymm_v5,2020.2.10,MacIntel,60,61025ae37ef11b136ea224fe,,,,,,,,,3970,80,-39,1,0,0,response3disk,,5,18,-7,1,0,0,rectangle,18,-7,1,0,0,18,-7,1,0,0,0,112,112,134,1,,,,,,,,
,,,,,,,,,,,,,FF,,,,,,,,0.884,,,,,,,,,,,,,,,,,,,,,,60ff4cd7d1037ecc61ca5b8b,61036c7aac7ff1e9063ecffc,2021-07-29_23h08.22.501,Simcolourproject_2stim_asymm_v5,2020.2.10,MacIntel,60,61025ae37ef11b136ea224fe,,,,,,,,,676,44,90,1,0,0,response1disk,,7,1,-13,1,0,0,rectangle,1,-13,1,0,0,1,-13,1,0,0,0,113,113,7,1,,,,,,,,
,,,,,,,,,,,,,FF,,,,,,,,0.983,,,,,,,,,,,,,,,,,,,,,,60ff4cd7d1037ecc61ca5b8b,61036c7aac7ff1e9063ecffc,2021-07-29_23h08.22.501,Simcolourproject_2stim_asymm_v5,2020.2.10,MacIntel,60,61025ae37ef11b136ea224fe,,,,,,,,,740,70,-40,1,0,0,response3disk,,5,5,9,1,0,0,rectangle,5,9,1,0,0,5,9,1,0,0,0,114,114,153,1,,,,,,,,
,,,,,,,,,,,,,FF,,,,,,,,1.4,,,,,,,,,,,,,,,,,,,,,,60ff4cd7d1037ecc61ca5b8b,61036c7aac7ff1e9063ecffc,2021-07-29_23h08.22.501,Simcolourproject_2stim_asymm_v5,2020.2.10,MacIntel,60,61025ae37ef11b136ea224fe,,,,,,,,,1267,39,-60,1,0,0,response3disk,,4,11,5,1,0,0,rectangle,11,5,1,0,0,11,5,1,0,0,0,115,115,64,1,,,,,,,,
,,,,,,,,,,,,,FF,,,,,,,,0.667,,,,,,,,,,,,,,,,,,,,,,60ff4cd7d1037ecc61ca5b8b,61036c7aac7ff1e9063ecffc,2021-07-29_23h08.22.501,Simcolourproject_2stim_asymm_v5,2020.2.10,MacIntel,60,61025ae37ef11b136ea224fe,,,,,,,,,4233,25,53,1,0,0,response1disk,,7,8,1,1,0,0,rectangle,8,1,1,0,0,8,1,1,0,0,0,116,116,152,1,,,,,,,,
,,,,,,,,,,,,,FF,,,,,,,,4.066,,,,,,,,,,,,,,,,,,,,,,60ff4cd7d1037ecc61ca5b8b,61036c7aac7ff1e9063ecffc,2021-07-29_23h08.22.501,Simcolourproject_2stim_asymm_v5,2020.2.10,MacIntel,60,61025ae37ef11b136ea224fe,,,,,,,,,1749,78,25,1,0,0,response1disk,,6,5,6,1,0,0,rectangle,5,6,1,0,0,5,6,1,0,0,0,117,117,124,1,,,,,,,,
,,,,,,,,,,,,,FF,,,,,,,,1.934,,,,,,,,,,,,,,,,,,,,,,60ff4cd7d1037ecc61ca5b8b,61036c7aac7ff1e9063ecffc,2021-07-29_23h08.22.501,Simcolourproject_2stim_asymm_v5,2020.2.10,MacIntel,60,61025ae37ef11b136ea224fe,,,,,,,,,276,-55,77,1,0,0,response7disk,,0,-7,7,1,0,0,rectangle,-26,-66,1,0,0,3,9,1,0,0,0,118,118,151,1,,response5disk_3,TRUE,3,3,"[68,110,99,138,91,198,291,24,30,277,165,194,119,30,56,10,28,185,23,313]",2.051,rectangle
,,,,,,,,,,,,,FF,,,,,,,,0.734,,,,,,,,,,,,,,,,,,,,,,60ff4cd7d1037ecc61ca5b8b,61036c7aac7ff1e9063ecffc,2021-07-29_23h08.22.501,Simcolourproject_2stim_asymm_v5,2020.2.10,MacIntel,60,61025ae37ef11b136ea224fe,,,,,,,,,2492,36,68,1,0,0,response1disk,,7,21,10,1,0,0,rectangle,21,10,1,0,0,21,10,1,0,0,0,119,119,146,1,,,,,,,,
,,,,,,,,,,,,,FF,,,,,,,,0.8,,,,,,,,,,,,,,,,,,,,,,60ff4cd7d1037ecc61ca5b8b,61036c7aac7ff1e9063ecffc,2021-07-29_23h08.22.501,Simcolourproject_2stim_asymm_v5,2020.2.10,MacIntel,60,61025ae37ef11b136ea224fe,,,,,,,,,3409,39,59,1,0,0,response1disk,,7,16,7,1,0,0,rectangle,16,7,1,0,0,16,7,1,0,0,0,120,120,13,1,,,,,,,,
,,,,,,,,,,,,,FF,,,,,,,,1.764,,,,,,,,,,,,,,,,,,,,,,60ff4cd7d1037ecc61ca5b8b,61036c7aac7ff1e9063ecffc,2021-07-29_23h08.22.501,Simcolourproject_2stim_asymm_v5,2020.2.10,MacIntel,60,61025ae37ef11b136ea224fe,,,,,,,,,1542,37,69,1,0,0,response1disk,,7,18,6,1,0,0,rectangle,18,6,1,0,0,18,6,1,0,0,0,121,121,85,1,,,,,,,,
,,,,,,,,,,,,,FF,,,,,,,,1.967,,,,,,,,,,,,,,,,,,,,,,60ff4cd7d1037ecc61ca5b8b,61036c7aac7ff1e9063ecffc,2021-07-29_23h08.22.501,Simcolourproject_2stim_asymm_v5,2020.2.10,MacIntel,60,61025ae37ef11b136ea224fe,,,,,,,,,1887,26,-66,1,0,0,response3disk,,4,13,10,1,0,0,rectangle,13,10,1,0,0,13,10,1,0,0,0,122,122,34,1,,,,,,,,
,,,,,,,,,,,,,FF,,,,,,,,0.7,,,,,,,,,,,,,,,,,,,,,,60ff4cd7d1037ecc61ca5b8b,61036c7aac7ff1e9063ecffc,2021-07-29_23h08.22.501,Simcolourproject_2stim_asymm_v5,2020.2.10,MacIntel,60,61025ae37ef11b136ea224fe,,,,,,,,,2354,19,57,1,0,0,response1disk,,7,9,10,1,0,0,rectangle,9,10,1,0,0,9,10,1,0,0,0,123,123,65,1,,,,,,,,
,,,,,,,,,,,,,FF,,,,,,,,0.983,,,,,,,,,,,,,,,,,,,,,,60ff4cd7d1037ecc61ca5b8b,61036c7aac7ff1e9063ecffc,2021-07-29_23h08.22.501,Simcolourproject_2stim_asymm_v5,2020.2.10,MacIntel,60,61025ae37ef11b136ea224fe,,,,,,,,,874,25,60,1,0,0,response1disk,,7,10,11,1,0,0,rectangle,10,11,1,0,0,10,11,1,0,0,0,124,124,52,1,,,,,,,,
,,,,,,,,,,,,,FF,,,,,,,,0.867,,,,,,,,,,,,,,,,,,,,,,60ff4cd7d1037ecc61ca5b8b,61036c7aac7ff1e9063ecffc,2021-07-29_23h08.22.501,Simcolourproject_2stim_asymm_v5,2020.2.10,MacIntel,60,61025ae37ef11b136ea224fe,,,,,,,,,2433,35,77,1,0,0,response1disk,,7,9,4,1,0,0,rectangle,9,4,1,0,0,9,4,1,0,0,0,125,125,139,1,,,,,,,,
,,,,,,,,,,,,,FF,,,,,,,,0.566,,,,,,,,,,,,,,,,,,,,,,60ff4cd7d1037ecc61ca5b8b,61036c7aac7ff1e9063ecffc,2021-07-29_23h08.22.501,Simcolourproject_2stim_asymm_v5,2020.2.10,MacIntel,60,61025ae37ef11b136ea224fe,,,,,,,,,3408,22,57,1,0,0,response1disk,,7,15,-9,1,0,0,rectangle,15,-9,1,0,0,15,-9,1,0,0,0,126,126,55,1,,,,,,,,
,,,,,,,,,,,,,FF,,,,,,,,0.65,,,,,,,,,,,,,,,,,,,,,,60ff4cd7d1037ecc61ca5b8b,61036c7aac7ff1e9063ecffc,2021-07-29_23h08.22.501,Simcolourproject_2stim_asymm_v5,2020.2.10,MacIntel,60,61025ae37ef11b136ea224fe,,,,,,,,,2877,25,49,1,0,0,response1disk,,7,24,7,1,0,0,rectangle,24,7,1,0,0,24,7,1,0,0,0,127,127,121,1,,,,,,,,
,,,,,,,,,,,,,FF,,,,,,,,0.982,,,,,,,,,,,,,,,,,,,,,,60ff4cd7d1037ecc61ca5b8b,61036c7aac7ff1e9063ecffc,2021-07-29_23h08.22.501,Simcolourproject_2stim_asymm_v5,2020.2.10,MacIntel,60,61025ae37ef11b136ea224fe,,,,,,,,,2150,30,59,1,0,0,response1disk,,7,11,8,1,0,0,rectangle,11,8,1,0,0,11,8,1,0,0,0,128,128,36,1,,,,,,,,
,,,,,,,,,,,,,FF,,,,,,,,0.75,,,,,,,,,,,,,,,,,,,,,,60ff4cd7d1037ecc61ca5b8b,61036c7aac7ff1e9063ecffc,2021-07-29_23h08.22.501,Simcolourproject_2stim_asymm_v5,2020.2.10,MacIntel,60,61025ae37ef11b136ea224fe,,,,,,,,,1337,28,58,1,0,0,response1disk,,7,19,15,1,0,0,rectangle,19,15,1,0,0,19,15,1,0,0,0,129,129,69,1,,,,,,,,
,,,,,,,,,,,,,FF,,,,,,,,0.833,,,,,,,,,,,,,,,,,,,,,,60ff4cd7d1037ecc61ca5b8b,61036c7aac7ff1e9063ecffc,2021-07-29_23h08.22.501,Simcolourproject_2stim_asymm_v5,2020.2.10,MacIntel,60,61025ae37ef11b136ea224fe,,,,,,,,,3755,33,54,1,0,0,response1disk,,7,10,4,1,0,0,rectangle,10,4,1,0,0,10,4,1,0,0,0,130,130,128,1,,,,,,,,
,,,,,,,,,,,,,FF,,,,,,,,2.716,,,,,,,,,,,,,,,,,,,,,,60ff4cd7d1037ecc61ca5b8b,61036c7aac7ff1e9063ecffc,2021-07-29_23h08.22.501,Simcolourproject_2stim_asymm_v5,2020.2.10,MacIntel,60,61025ae37ef11b136ea224fe,,,,,,,,,3712,71,-52,1,0,0,response3disk,,5,17,11,1,0,0,rectangle,17,11,1,0,0,17,11,1,0,0,0,131,131,109,1,,,,,,,,
,,,,,,,,,,,,,FF,,,,,,,,4.334,,,,,,,,,,,,,,,,,,,,,,60ff4cd7d1037ecc61ca5b8b,61036c7aac7ff1e9063ecffc,2021-07-29_23h08.22.501,Simcolourproject_2stim_asymm_v5,2020.2.10,MacIntel,60,61025ae37ef11b136ea224fe,,,,,,,,,1342,68,71,1,0,0,response1disk,,7,-2,-10,1,0,0,rectangle,-2,-10,1,0,0,-2,-10,1,0,0,0,132,132,37,1,,,,,,,,
,,,,,,,,,,,,,FF,,,,,,,,0.85,,,,,,,,,,,,,,,,,,,,,,60ff4cd7d1037ecc61ca5b8b,61036c7aac7ff1e9063ecffc,2021-07-29_23h08.22.501,Simcolourproject_2stim_asymm_v5,2020.2.10,MacIntel,60,61025ae37ef11b136ea224fe,,,,,,,,,3879,18,83,1,0,0,response1disk,,7,4,-2,1,0,0,rectangle,4,-2,1,0,0,4,-2,1,0,0,0,133,133,93,1,,,,,,,,
,,,,,,,,,,,,,FF,,,,,,,,1,,,,,,,,,,,,,,,,,,,,,,60ff4cd7d1037ecc61ca5b8b,61036c7aac7ff1e9063ecffc,2021-07-29_23h08.22.501,Simcolourproject_2stim_asymm_v5,2020.2.10,MacIntel,60,61025ae37ef11b136ea224fe,,,,,,,,,1948,30,61,1,0,0,response1disk,,7,0,-10,1,0,0,rectangle,0,-10,1,0,0,0,-10,1,0,0,0,134,134,126,1,,,,,,,,
,,,,,,,,,,,,,FF,,,,,,,,1.217,,,,,,,,,,,,,,,,,,,,,,60ff4cd7d1037ecc61ca5b8b,61036c7aac7ff1e9063ecffc,2021-07-29_23h08.22.501,Simcolourproject_2stim_asymm_v5,2020.2.10,MacIntel,60,61025ae37ef11b136ea224fe,,,,,,,,,1021,32,60,1,0,0,response1disk,,7,6,4,1,0,0,rectangle,6,4,1,0,0,6,4,1,0,0,0,135,135,14,1,,,,,,,,
,,,,,,,,,,,,,FF,,,,,,,,0.599,,,,,,,,,,,,,,,,,,,,,,60ff4cd7d1037ecc61ca5b8b,61036c7aac7ff1e9063ecffc,2021-07-29_23h08.22.501,Simcolourproject_2stim_asymm_v5,2020.2.10,MacIntel,60,61025ae37ef11b136ea224fe,,,,,,,,,2449,36,67,1,0,0,response1disk,,7,-2,-4,1,0,0,rectangle,-2,-4,1,0,0,-2,-4,1,0,0,0,136,136,143,1,,,,,,,,
,,,,,,,,,,,,,FF,,,,,,,,0.734,,,,,,,,,,,,,,,,,,,,,,60ff4cd7d1037ecc61ca5b8b,61036c7aac7ff1e9063ecffc,2021-07-29_23h08.22.501,Simcolourproject_2stim_asymm_v5,2020.2.10,MacIntel,60,61025ae37ef11b136ea224fe,,,,,,,,,3008,25,96,1,0,0,response1disk,,7,4,-3,1,0,0,rectangle,37,83,1,0,0,19,8,1,0,0,0,137,137,23,1,,response1disk_3,TRUE,7,7,"[68,110,99,138,91,198,291,24,30,277,165,194,119,30,56,10,28,185,23,313]",1.384,rectangle
,,,,,,,,,,,,,FF,,,,,,,,6.017,,,,,,,,,,,,,,,,,,,,,,60ff4cd7d1037ecc61ca5b8b,61036c7aac7ff1e9063ecffc,2021-07-29_23h08.22.501,Simcolourproject_2stim_asymm_v5,2020.2.10,MacIntel,60,61025ae37ef11b136ea224fe,,,,,,,,,1988,38,76,1,0,0,response1disk,,7,0,-8,1,0,0,rectangle,0,-8,1,0,0,0,-8,1,0,0,0,138,138,38,1,,,,,,,,
,,,,,,,,,,,,,FF,,,,,,,,2.283,,,,,,,,,,,,,,,,,,,,,,60ff4cd7d1037ecc61ca5b8b,61036c7aac7ff1e9063ecffc,2021-07-29_23h08.22.501,Simcolourproject_2stim_asymm_v5,2020.2.10,MacIntel,60,61025ae37ef11b136ea224fe,,,,,,,,,908,72,23,1,0,0,response1disk,,6,19,-1,1,0,0,rectangle,19,-1,1,0,0,19,-1,1,0,0,0,139,139,11,1,,,,,,,,
,,,,,,,,,,,,,FF,,,,,,,,0.751,,,,,,,,,,,,,,,,,,,,,,60ff4cd7d1037ecc61ca5b8b,61036c7aac7ff1e9063ecffc,2021-07-29_23h08.22.501,Simcolourproject_2stim_asymm_v5,2020.2.10,MacIntel,60,61025ae37ef11b136ea224fe,,,,,,,,,3885,26,63,1,0,0,response1disk,,7,12,8,1,0,0,rectangle,12,8,1,0,0,12,8,1,0,0,0,140,140,4,1,,,,,,,,
,,,,,,,,,,,,,FF,,,,,,,,1.9,,,,,,,,,,,,,,,,,,,,,,60ff4cd7d1037ecc61ca5b8b,61036c7aac7ff1e9063ecffc,2021-07-29_23h08.22.501,Simcolourproject_2stim_asymm_v5,2020.2.10,MacIntel,60,61025ae37ef11b136ea224fe,,,,,,,,,4122,71,28,1,0,0,response1disk,,6,27,0,1,0,0,rectangle,27,0,1,0,0,27,0,1,0,0,0,141,141,28,1,,,,,,,,
,,,,,,,,,,,,,FF,,,,,,,,0.733,,,,,,,,,,,,,,,,,,,,,,60ff4cd7d1037ecc61ca5b8b,61036c7aac7ff1e9063ecffc,2021-07-29_23h08.22.501,Simcolourproject_2stim_asymm_v5,2020.2.10,MacIntel,60,61025ae37ef11b136ea224fe,,,,,,,,,2703,33,69,1,0,0,response1disk,,7,1,-8,1,0,0,rectangle,1,-8,1,0,0,1,-8,1,0,0,0,142,142,70,1,,,,,,,,
,,,,,,,,,,,,,FF,,,,,,,,1.366,,,,,,,,,,,,,,,,,,,,,,60ff4cd7d1037ecc61ca5b8b,61036c7aac7ff1e9063ecffc,2021-07-29_23h08.22.501,Simcolourproject_2stim_asymm_v5,2020.2.10,MacIntel,60,61025ae37ef11b136ea224fe,,,,,,,,,1557,69,-30,1,0,0,response3disk,,5,18,7,1,0,0,rectangle,18,7,1,0,0,18,7,1,0,0,0,143,143,48,1,,,,,,,,
,,,,,,,,,,,,,FF,,,,,,,,0.817,,,,,,,,,,,,,,,,,,,,,,60ff4cd7d1037ecc61ca5b8b,61036c7aac7ff1e9063ecffc,2021-07-29_23h08.22.501,Simcolourproject_2stim_asymm_v5,2020.2.10,MacIntel,60,61025ae37ef11b136ea224fe,,,,,,,,,308,25,63,1,0,0,response1disk,,7,-2,-4,1,0,0,rectangle,-2,-4,1,0,0,-2,-4,1,0,0,0,144,144,149,1,,,,,,,,
,,,,,,,,,,,,,FF,,,,,,,,5.05,,,,,,,,,,,,,,,,,,,,,,60ff4cd7d1037ecc61ca5b8b,61036c7aac7ff1e9063ecffc,2021-07-29_23h08.22.501,Simcolourproject_2stim_asymm_v5,2020.2.10,MacIntel,60,61025ae37ef11b136ea224fe,,,,,,,,,1799,79,37,1,0,0,response1disk,,6,8,-3,1,0,0,rectangle,8,-3,1,0,0,8,-3,1,0,0,0,145,145,27,1,,,,,,,,
,,,,,,,,,,,,,FF,,,,,,,,3.684,,,,,,,,,,,,,,,,,,,,,,60ff4cd7d1037ecc61ca5b8b,61036c7aac7ff1e9063ecffc,2021-07-29_23h08.22.501,Simcolourproject_2stim_asymm_v5,2020.2.10,MacIntel,60,61025ae37ef11b136ea224fe,,,,,,,,,4108,57,37,1,0,0,response1disk,,6,3,9,1,0,0,rectangle,3,9,1,0,0,3,9,1,0,0,0,146,146,157,1,,,,,,,,
,,,,,,,,,,,,,FF,,,,,,,,1.1,,,,,,,,,,,,,,,,,,,,,,60ff4cd7d1037ecc61ca5b8b,61036c7aac7ff1e9063ecffc,2021-07-29_23h08.22.501,Simcolourproject_2stim_asymm_v5,2020.2.10,MacIntel,60,61025ae37ef11b136ea224fe,,,,,,,,,1871,34,76,1,0,0,response1disk,,7,19,-5,1,0,0,rectangle,19,-5,1,0,0,19,-5,1,0,0,0,147,147,103,1,,,,,,,,
,,,,,,,,,,,,,FF,,,,,,,,1.8,,,,,,,,,,,,,,,,,,,,,,60ff4cd7d1037ecc61ca5b8b,61036c7aac7ff1e9063ecffc,2021-07-29_23h08.22.501,Simcolourproject_2stim_asymm_v5,2020.2.10,MacIntel,60,61025ae37ef11b136ea224fe,,,,,,,,,3828,23,68,1,0,0,response1disk,,7,8,-3,1,0,0,rectangle,8,-3,1,0,0,8,-3,1,0,0,0,148,148,87,1,,,,,,,,
,,,,,,,,,,,,,FF,,,,,,,,2.032,,,,,,,,,,,,,,,,,,,,,,60ff4cd7d1037ecc61ca5b8b,61036c7aac7ff1e9063ecffc,2021-07-29_23h08.22.501,Simcolourproject_2stim_asymm_v5,2020.2.10,MacIntel,60,61025ae37ef11b136ea224fe,,,,,,,,,528,66,-36,1,0,0,response3disk,,5,20,8,1,0,0,rectangle,20,8,1,0,0,20,8,1,0,0,0,149,149,32,1,,,,,,,,
,,,,,,,,,,,,,FF,,,,,,,,1.484,,,,,,,,,,,,,,,,,,,,,,60ff4cd7d1037ecc61ca5b8b,61036c7aac7ff1e9063ecffc,2021-07-29_23h08.22.501,Simcolourproject_2stim_asymm_v5,2020.2.10,MacIntel,60,61025ae37ef11b136ea224fe,,,,,,,,,1336,60,-25,1,0,0,response3disk,,5,15,4,1,0,0,rectangle,15,4,1,0,0,15,4,1,0,0,0,150,150,105,1,,,,,,,,
,,,,,,,,,,,,,FF,,,,,,,,2.467,,,,,,,,,,,,,,,,,,,,,,60ff4cd7d1037ecc61ca5b8b,61036c7aac7ff1e9063ecffc,2021-07-29_23h08.22.501,Simcolourproject_2stim_asymm_v5,2020.2.10,MacIntel,60,61025ae37ef11b136ea224fe,,,,,,,,,4186,76,38,1,0,0,response1disk,,6,13,0,1,0,0,rectangle,13,0,1,0,0,13,0,1,0,0,0,151,151,3,1,,,,,,,,
,,,,,,,,,,,,,FF,,,,,,,,6.168,,,,,,,,,,,,,,,,,,,,,,60ff4cd7d1037ecc61ca5b8b,61036c7aac7ff1e9063ecffc,2021-07-29_23h08.22.501,Simcolourproject_2stim_asymm_v5,2020.2.10,MacIntel,60,61025ae37ef11b136ea224fe,,,,,,,,,2638,73,27,1,0,0,response1disk,,6,16,6,1,0,0,rectangle,16,6,1,0,0,16,6,1,0,0,0,152,152,89,1,,,,,,,,
,,,,,,,,,,,,,FF,,,,,,,,3.617,,,,,,,,,,,,,,,,,,,,,,60ff4cd7d1037ecc61ca5b8b,61036c7aac7ff1e9063ecffc,2021-07-29_23h08.22.501,Simcolourproject_2stim_asymm_v5,2020.2.10,MacIntel,60,61025ae37ef11b136ea224fe,,,,,,,,,3001,77,31,1,0,0,response1disk,,6,12,-4,1,0,0,rectangle,12,-4,1,0,0,12,-4,1,0,0,0,153,153,112,1,,,,,,,,
,,,,,,,,,,,,,FF,,,,,,,,0.899,,,,,,,,,,,,,,,,,,,,,,60ff4cd7d1037ecc61ca5b8b,61036c7aac7ff1e9063ecffc,2021-07-29_23h08.22.501,Simcolourproject_2stim_asymm_v5,2020.2.10,MacIntel,60,61025ae37ef11b136ea224fe,,,,,,,,,3321,32,63,1,0,0,response1disk,,7,-1,9,1,0,0,rectangle,-1,9,1,0,0,-1,9,1,0,0,0,154,154,122,1,,,,,,,,
,,,,,,,,,,,,,FF,,,,,,,,1.683,,,,,,,,,,,,,,,,,,,,,,60ff4cd7d1037ecc61ca5b8b,61036c7aac7ff1e9063ecffc,2021-07-29_23h08.22.501,Simcolourproject_2stim_asymm_v5,2020.2.10,MacIntel,60,61025ae37ef11b136ea224fe,,,,,,,,,1350,30,47,1,0,0,response1disk,,7,11,10,1,0,0,rectangle,11,10,1,0,0,11,10,1,0,0,0,155,155,5,1,,,,,,,,
,,,,,,,,,,,,,FF,,,,,,,,0.983,,,,,,,,,,,,,,,,,,,,,,60ff4cd7d1037ecc61ca5b8b,61036c7aac7ff1e9063ecffc,2021-07-29_23h08.22.501,Simcolourproject_2stim_asymm_v5,2020.2.10,MacIntel,60,61025ae37ef11b136ea224fe,,,,,,,,,1130,69,-37,1,0,0,response3disk,,5,28,-9,1,0,0,rectangle,28,-9,1,0,0,28,-9,1,0,0,0,156,156,51,1,,,,,,,,
,,,,,,,,,,,,,FF,,,,,,,,0.882,,,,,,,,,,,,,,,,,,,,,,60ff4cd7d1037ecc61ca5b8b,61036c7aac7ff1e9063ecffc,2021-07-29_23h08.22.501,Simcolourproject_2stim_asymm_v5,2020.2.10,MacIntel,60,61025ae37ef11b136ea224fe,,,,,,,,,2572,32,69,1,0,0,response1disk,,7,1,-2,1,0,0,rectangle,1,-2,1,0,0,1,-2,1,0,0,0,157,157,96,1,,,,,,,,
,,,,,,,,,,,,,FF,,,,,,,,2.416,,,,,,,,,,,,,,,,,,,,,,60ff4cd7d1037ecc61ca5b8b,61036c7aac7ff1e9063ecffc,2021-07-29_23h08.22.501,Simcolourproject_2stim_asymm_v5,2020.2.10,MacIntel,60,61025ae37ef11b136ea224fe,,,,,,,,,247,22,55,1,0,0,response1disk,,7,6,-5,1,0,0,rectangle,6,-5,1,0,0,6,-5,1,0,0,0,158,158,148,1,,,,,,,,
,,,,,,,,,,,,,FF,,,,,,,,6.283,,,,,,,,,,,,,,,,,,,,,,60ff4cd7d1037ecc61ca5b8b,61036c7aac7ff1e9063ecffc,2021-07-29_23h08.22.501,Simcolourproject_2stim_asymm_v5,2020.2.10,MacIntel,60,61025ae37ef11b136ea224fe,,,,,,,,,709,32,80,1,0,0,response1disk,,7,13,-8,1,0,0,rectangle,13,-8,1,0,0,13,-8,1,0,0,0,159,159,58,1,,,,,,,,
,,,,,,,,,,,,,FF,,,,,,,,4.85,,,,,,,,,,,,,,,,,,,,,,60ff4cd7d1037ecc61ca5b8b,61036c7aac7ff1e9063ecffc,2021-07-29_23h08.22.501,Simcolourproject_2stim_asymm_v5,2020.2.10,MacIntel,60,61025ae37ef11b136ea224fe,,,,,,,,,2218,85,-51,1,0,0,response3disk,,5,7,10,1,0,0,rectangle,7,10,1,0,0,7,10,1,0,0,1,0,160,80,1,,,,,,,,
,,,,,,,,,,,,,FF,,,,,,,,3.184,,,,,,,,,,,,,,,,,,,,,,60ff4cd7d1037ecc61ca5b8b,61036c7aac7ff1e9063ecffc,2021-07-29_23h08.22.501,Simcolourproject_2stim_asymm_v5,2020.2.10,MacIntel,60,61025ae37ef11b136ea224fe,,,,,,,,,1312,71,-55,1,0,0,response3disk,,5,11,8,1,0,0,rectangle,11,8,1,0,0,11,8,1,0,0,1,1,161,156,1,,,,,,,,
,,,,,,,,,,,,,FF,,,,,,,,0.833,,,,,,,,,,,,,,,,,,,,,,60ff4cd7d1037ecc61ca5b8b,61036c7aac7ff1e9063ecffc,2021-07-29_23h08.22.501,Simcolourproject_2stim_asymm_v5,2020.2.10,MacIntel,60,61025ae37ef11b136ea224fe,,,,,,,,,26,30,55,1,0,0,response1disk,,7,2,5,1,0,0,rectangle,2,5,1,0,0,2,5,1,0,0,1,2,162,119,1,,,,,,,,
,,,,,,,,,,,,,FF,,,,,,,,0.917,,,,,,,,,,,,,,,,,,,,,,60ff4cd7d1037ecc61ca5b8b,61036c7aac7ff1e9063ecffc,2021-07-29_23h08.22.501,Simcolourproject_2stim_asymm_v5,2020.2.10,MacIntel,60,61025ae37ef11b136ea224fe,,,,,,,,,1905,76,-43,1,0,0,response3disk,,5,15,-1,1,0,0,rectangle,15,-1,1,0,0,15,-1,1,0,0,1,3,163,130,1,,,,,,,,
,,,,,,,,,,,,,FF,,,,,,,,1.935,,,,,,,,,,,,,,,,,,,,,,60ff4cd7d1037ecc61ca5b8b,61036c7aac7ff1e9063ecffc,2021-07-29_23h08.22.501,Simcolourproject_2stim_asymm_v5,2020.2.10,MacIntel,60,61025ae37ef11b136ea224fe,,,,,,,,,2721,66,-40,1,0,0,response3disk,,5,16,-12,1,0,0,rectangle,-80,-34,1,0,0,-1,1,1,0,0,1,4,164,8,1,,response5disk_3,TRUE,2,2,"[68,110,99,138,91,198,291,24,30,277,165,194,119,30,56,10,28,185,23,313]",1.95,rectangle
,,,,,,,,,,,,,FF,,,,,,,,1.066,,,,,,,,,,,,,,,,,,,,,,60ff4cd7d1037ecc61ca5b8b,61036c7aac7ff1e9063ecffc,2021-07-29_23h08.22.501,Simcolourproject_2stim_asymm_v5,2020.2.10,MacIntel,60,61025ae37ef11b136ea224fe,,,,,,,,,4101,85,-53,1,0,0,response3disk,,5,17,-5,1,0,0,rectangle,17,-5,1,0,0,17,-5,1,0,0,1,5,165,65,1,,,,,,,,
,,,,,,,,,,,,,FF,,,,,,,,4.949,,,,,,,,,,,,,,,,,,,,,,60ff4cd7d1037ecc61ca5b8b,61036c7aac7ff1e9063ecffc,2021-07-29_23h08.22.501,Simcolourproject_2stim_asymm_v5,2020.2.10,MacIntel,60,61025ae37ef11b136ea224fe,,,,,,,,,2936,80,-42,1,0,0,response3disk,,5,14,5,1,0,0,rectangle,14,5,1,0,0,14,5,1,0,0,1,6,166,89,1,,,,,,,,
,,,,,,,,,,,,,FF,,,,,,,,0.885,,,,,,,,,,,,,,,,,,,,,,60ff4cd7d1037ecc61ca5b8b,61036c7aac7ff1e9063ecffc,2021-07-29_23h08.22.501,Simcolourproject_2stim_asymm_v5,2020.2.10,MacIntel,60,61025ae37ef11b136ea224fe,,,,,,,,,2499,26,69,1,0,0,response1disk,,7,4,5,1,0,0,rectangle,4,5,1,0,0,4,5,1,0,0,1,7,167,60,1,,,,,,,,
,,,,,,,,,,,,,FF,,,,,,,,6.366,,,,,,,,,,,,,,,,,,,,,,60ff4cd7d1037ecc61ca5b8b,61036c7aac7ff1e9063ecffc,2021-07-29_23h08.22.501,Simcolourproject_2stim_asymm_v5,2020.2.10,MacIntel,60,61025ae37ef11b136ea224fe,,,,,,,,,2239,37,65,1,0,0,response1disk,,7,3,1,1,0,0,rectangle,3,1,1,0,0,3,1,1,0,0,1,8,168,96,1,,,,,,,,
,,,,,,,,,,,,,FF,,,,,,,,0.984,,,,,,,,,,,,,,,,,,,,,,60ff4cd7d1037ecc61ca5b8b,61036c7aac7ff1e9063ecffc,2021-07-29_23h08.22.501,Simcolourproject_2stim_asymm_v5,2020.2.10,MacIntel,60,61025ae37ef11b136ea224fe,,,,,,,,,3154,57,-26,1,0,0,response3disk,,5,18,-6,1,0,0,rectangle,18,-6,1,0,0,18,-6,1,0,0,1,9,169,30,1,,,,,,,,
,,,,,,,,,,,,,FF,,,,,,,,2.417,,,,,,,,,,,,,,,,,,,,,,60ff4cd7d1037ecc61ca5b8b,61036c7aac7ff1e9063ecffc,2021-07-29_23h08.22.501,Simcolourproject_2stim_asymm_v5,2020.2.10,MacIntel,60,61025ae37ef11b136ea224fe,,,,,,,,,2825,30,58,1,0,0,response1disk,,7,13,-7,1,0,0,rectangle,13,-7,1,0,0,13,-7,1,0,0,1,10,170,32,1,,,,,,,,
,,,,,,,,,,,,,FF,,,,,,,,0.833,,,,,,,,,,,,,,,,,,,,,,60ff4cd7d1037ecc61ca5b8b,61036c7aac7ff1e9063ecffc,2021-07-29_23h08.22.501,Simcolourproject_2stim_asymm_v5,2020.2.10,MacIntel,60,61025ae37ef11b136ea224fe,,,,,,,,,4271,35,72,1,0,0,response1disk,,7,4,-1,1,0,0,rectangle,4,-1,1,0,0,4,-1,1,0,0,1,11,171,111,1,,,,,,,,
,,,,,,,,,,,,,FF,,,,,,,,0.85,,,,,,,,,,,,,,,,,,,,,,60ff4cd7d1037ecc61ca5b8b,61036c7aac7ff1e9063ecffc,2021-07-29_23h08.22.501,Simcolourproject_2stim_asymm_v5,2020.2.10,MacIntel,60,61025ae37ef11b136ea224fe,,,,,,,,,3099,35,-52,1,0,0,response3disk,,4,10,7,1,0,0,rectangle,10,7,1,0,0,10,7,1,0,0,1,12,172,5,1,,,,,,,,
,,,,,,,,,,,,,FF,,,,,,,,0.716,,,,,,,,,,,,,,,,,,,,,,60ff4cd7d1037ecc61ca5b8b,61036c7aac7ff1e9063ecffc,2021-07-29_23h08.22.501,Simcolourproject_2stim_asymm_v5,2020.2.10,MacIntel,60,61025ae37ef11b136ea224fe,,,,,,,,,3685,29,63,1,0,0,response1disk,,7,1,-2,1,0,0,rectangle,1,-2,1,0,0,1,-2,1,0,0,1,13,173,21,1,,,,,,,,
,,,,,,,,,,,,,FF,,,,,,,,1.217,,,,,,,,,,,,,,,,,,,,,,60ff4cd7d1037ecc61ca5b8b,61036c7aac7ff1e9063ecffc,2021-07-29_23h08.22.501,Simcolourproject_2stim_asymm_v5,2020.2.10,MacIntel,60,61025ae37ef11b136ea224fe,,,,,,,,,2783,24,-75,1,0,0,response3disk,,4,3,5,1,0,0,rectangle,3,5,1,0,0,3,5,1,0,0,1,14,174,47,1,,,,,,,,
,,,,,,,,,,,,,FF,,,,,,,,0.816,,,,,,,,,,,,,,,,,,,,,,60ff4cd7d1037ecc61ca5b8b,61036c7aac7ff1e9063ecffc,2021-07-29_23h08.22.501,Simcolourproject_2stim_asymm_v5,2020.2.10,MacIntel,60,61025ae37ef11b136ea224fe,,,,,,,,,1570,28,59,1,0,0,response1disk,,7,-6,1,1,0,0,rectangle,-6,1,1,0,0,-6,1,1,0,0,1,15,175,79,1,,,,,,,,
,,,,,,,,,,,,,FF,,,,,,,,0.767,,,,,,,,,,,,,,,,,,,,,,60ff4cd7d1037ecc61ca5b8b,61036c7aac7ff1e9063ecffc,2021-07-29_23h08.22.501,Simcolourproject_2stim_asymm_v5,2020.2.10,MacIntel,60,61025ae37ef11b136ea224fe,,,,,,,,,1884,34,73,1,0,0,response1disk,,7,-7,-5,1,0,0,rectangle,-7,-5,1,0,0,-7,-5,1,0,0,1,16,176,39,1,,,,,,,,
,,,,,,,,,,,,,FF,,,,,,,,0.699,,,,,,,,,,,,,,,,,,,,,,60ff4cd7d1037ecc61ca5b8b,61036c7aac7ff1e9063ecffc,2021-07-29_23h08.22.501,Simcolourproject_2stim_asymm_v5,2020.2.10,MacIntel,60,61025ae37ef11b136ea224fe,,,,,,,,,842,34,62,1,0,0,response1disk,,7,1,9,1,0,0,rectangle,1,9,1,0,0,1,9,1,0,0,1,17,177,154,1,,,,,,,,
,,,,,,,,,,,,,FF,,,,,,,,1.15,,,,,,,,,,,,,,,,,,,,,,60ff4cd7d1037ecc61ca5b8b,61036c7aac7ff1e9063ecffc,2021-07-29_23h08.22.501,Simcolourproject_2stim_asymm_v5,2020.2.10,MacIntel,60,61025ae37ef11b136ea224fe,,,,,,,,,1585,34,66,1,0,0,response1disk,,7,7,11,1,0,0,rectangle,7,11,1,0,0,7,11,1,0,0,1,18,178,71,1,,,,,,,,
,,,,,,,,,,,,,FF,,,,,,,,1.966,,,,,,,,,,,,,,,,,,,,,,60ff4cd7d1037ecc61ca5b8b,61036c7aac7ff1e9063ecffc,2021-07-29_23h08.22.501,Simcolourproject_2stim_asymm_v5,2020.2.10,MacIntel,60,61025ae37ef11b136ea224fe,,,,,,,,,1004,33,65,1,0,0,response1disk,,7,-3,0,1,0,0,rectangle,-3,0,1,0,0,-3,0,1,0,0,1,19,179,42,1,,,,,,,,
,,,,,,,,,,,,,FF,,,,,,,,1.101,,,,,,,,,,,,,,,,,,,,,,60ff4cd7d1037ecc61ca5b8b,61036c7aac7ff1e9063ecffc,2021-07-29_23h08.22.501,Simcolourproject_2stim_asymm_v5,2020.2.10,MacIntel,60,61025ae37ef11b136ea224fe,,,,,,,,,3965,-34,71,1,0,0,response7disk,,0,-14,4,1,0,0,rectangle,-14,4,1,0,0,-14,4,1,0,0,1,20,180,91,1,,,,,,,,
,,,,,,,,,,,,,FF,,,,,,,,1.634,,,,,,,,,,,,,,,,,,,,,,60ff4cd7d1037ecc61ca5b8b,61036c7aac7ff1e9063ecffc,2021-07-29_23h08.22.501,Simcolourproject_2stim_asymm_v5,2020.2.10,MacIntel,60,61025ae37ef11b136ea224fe,,,,,,,,,3744,29,-66,1,0,0,response3disk,,4,3,-3,1,0,0,rectangle,3,-3,1,0,0,3,-3,1,0,0,1,21,181,122,1,,,,,,,,
,,,,,,,,,,,,,FF,,,,,,,,8.617,,,,,,,,,,,,,,,,,,,,,,60ff4cd7d1037ecc61ca5b8b,61036c7aac7ff1e9063ecffc,2021-07-29_23h08.22.501,Simcolourproject_2stim_asymm_v5,2020.2.10,MacIntel,60,61025ae37ef11b136ea224fe,,,,,,,,,3835,55,28,1,0,0,response1disk,,6,15,0,1,0,0,rectangle,15,0,1,0,0,15,0,1,0,0,1,22,182,63,1,,,,,,,,
,,,,,,,,,,,,,FF,,,,,,,,1.15,,,,,,,,,,,,,,,,,,,,,,60ff4cd7d1037ecc61ca5b8b,61036c7aac7ff1e9063ecffc,2021-07-29_23h08.22.501,Simcolourproject_2stim_asymm_v5,2020.2.10,MacIntel,60,61025ae37ef11b136ea224fe,,,,,,,,,3245,26,-61,1,0,0,response3disk,,4,-13,6,1,0,0,rectangle,-13,6,1,0,0,-13,6,1,0,0,1,23,183,82,1,,,,,,,,
,,,,,,,,,,,,,FF,,,,,,,,7.999,,,,,,,,,,,,,,,,,,,,,,60ff4cd7d1037ecc61ca5b8b,61036c7aac7ff1e9063ecffc,2021-07-29_23h08.22.501,Simcolourproject_2stim_asymm_v5,2020.2.10,MacIntel,60,61025ae37ef11b136ea224fe,,,,,,,,,1265,75,-48,1,0,0,response3disk,,5,-3,7,1,0,0,rectangle,-29,-77,1,0,0,-14,0,1,0,0,1,24,184,109,1,,response5disk_3,TRUE,3,3,"[68,110,99,138,91,198,291,24,30,277,165,194,119,30,56,10,28,185,23,313]",1.983,rectangle
,,,,,,,,,,,,,FF,,,,,,,,1.1,,,,,,,,,,,,,,,,,,,,,,60ff4cd7d1037ecc61ca5b8b,61036c7aac7ff1e9063ecffc,2021-07-29_23h08.22.501,Simcolourproject_2stim_asymm_v5,2020.2.10,MacIntel,60,61025ae37ef11b136ea224fe,,,,,,,,,4123,72,-38,1,0,0,response3disk,,5,22,-9,1,0,0,rectangle,22,-9,1,0,0,22,-9,1,0,0,1,25,185,49,1,,,,,,,,
,,,,,,,,,,,,,FF,,,,,,,,1.267,,,,,,,,,,,,,,,,,,,,,,60ff4cd7d1037ecc61ca5b8b,61036c7aac7ff1e9063ecffc,2021-07-29_23h08.22.501,Simcolourproject_2stim_asymm_v5,2020.2.10,MacIntel,60,61025ae37ef11b136ea224fe,,,,,,,,,1878,33,81,1,0,0,response1disk,,7,-1,2,1,0,0,rectangle,-1,2,1,0,0,-1,2,1,0,0,1,26,186,76,1,,,,,,,,
,,,,,,,,,,,,,FF,,,,,,,,2.101,,,,,,,,,,,,,,,,,,,,,,60ff4cd7d1037ecc61ca5b8b,61036c7aac7ff1e9063ecffc,2021-07-29_23h08.22.501,Simcolourproject_2stim_asymm_v5,2020.2.10,MacIntel,60,61025ae37ef11b136ea224fe,,,,,,,,,2159,83,30,1,0,0,response1disk,,6,13,-9,1,0,0,rectangle,13,-9,1,0,0,13,-9,1,0,0,1,27,187,0,1,,,,,,,,
,,,,,,,,,,,,,FF,,,,,,,,5.633,,,,,,,,,,,,,,,,,,,,,,60ff4cd7d1037ecc61ca5b8b,61036c7aac7ff1e9063ecffc,2021-07-29_23h08.22.501,Simcolourproject_2stim_asymm_v5,2020.2.10,MacIntel,60,61025ae37ef11b136ea224fe,,,,,,,,,3163,32,76,1,0,0,response1disk,,7,13,9,1,0,0,rectangle,13,9,1,0,0,13,9,1,0,0,1,28,188,93,1,,,,,,,,
,,,,,,,,,,,,,FF,,,,,,,,13.116,,,,,,,,,,,,,,,,,,,,,,60ff4cd7d1037ecc61ca5b8b,61036c7aac7ff1e9063ecffc,2021-07-29_23h08.22.501,Simcolourproject_2stim_asymm_v5,2020.2.10,MacIntel,60,61025ae37ef11b136ea224fe,,,,,,,,,1123,74,27,1,0,0,response1disk,,6,24,11,1,0,0,rectangle,24,11,1,0,0,24,11,1,0,0,1,29,189,88,1,,,,,,,,
,,,,,,,,,,,,,FF,,,,,,,,0.683,,,,,,,,,,,,,,,,,,,,,,60ff4cd7d1037ecc61ca5b8b,61036c7aac7ff1e9063ecffc,2021-07-29_23h08.22.501,Simcolourproject_2stim_asymm_v5,2020.2.10,MacIntel,60,61025ae37ef11b136ea224fe,,,,,,,,,2270,22,65,1,0,0,response1disk,,7,-4,-7,1,0,0,rectangle,-4,-7,1,0,0,-4,-7,1,0,0,1,30,190,66,1,,,,,,,,
,,,,,,,,,,,,,FF,,,,,,,,2.899,,,,,,,,,,,,,,,,,,,,,,60ff4cd7d1037ecc61ca5b8b,61036c7aac7ff1e9063ecffc,2021-07-29_23h08.22.501,Simcolourproject_2stim_asymm_v5,2020.2.10,MacIntel,60,61025ae37ef11b136ea224fe,,,,,,,,,1155,59,-28,1,0,0,response3disk,,5,11,-7,1,0,0,rectangle,11,-7,1,0,0,11,-7,1,0,0,1,31,191,27,1,,,,,,,,
,,,,,,,,,,,,,FF,,,,,,,,4.267,,,,,,,,,,,,,,,,,,,,,,60ff4cd7d1037ecc61ca5b8b,61036c7aac7ff1e9063ecffc,2021-07-29_23h08.22.501,Simcolourproject_2stim_asymm_v5,2020.2.10,MacIntel,60,61025ae37ef11b136ea224fe,,,,,,,,,2352,70,-38,1,0,0,response3disk,,5,-6,10,1,0,0,rectangle,-6,10,1,0,0,-6,10,1,0,0,1,32,192,90,1,,,,,,,,
,,,,,,,,,,,,,FF,,,,,,,,0.933,,,,,,,,,,,,,,,,,,,,,,60ff4cd7d1037ecc61ca5b8b,61036c7aac7ff1e9063ecffc,2021-07-29_23h08.22.501,Simcolourproject_2stim_asymm_v5,2020.2.10,MacIntel,60,61025ae37ef11b136ea224fe,,,,,,,,,332,27,67,1,0,0,response1disk,,7,-3,-11,1,0,0,rectangle,-76,33,1,0,0,-4,-1,1,0,0,1,33,193,158,1,,response7disk_3,TRUE,1,1,"[68,110,99,138,91,198,291,24,30,277,165,194,119,30,56,10,28,185,23,313]",1.883,rectangle
,,,,,,,,,,,,,FF,,,,,,,,1.817,,,,,,,,,,,,,,,,,,,,,,60ff4cd7d1037ecc61ca5b8b,61036c7aac7ff1e9063ecffc,2021-07-29_23h08.22.501,Simcolourproject_2stim_asymm_v5,2020.2.10,MacIntel,60,61025ae37ef11b136ea224fe,,,,,,,,,1646,57,33,1,0,0,response1disk,,6,15,-5,1,0,0,rectangle,15,-5,1,0,0,15,-5,1,0,0,1,34,194,140,1,,,,,,,,
,,,,,,,,,,,,,FF,,,,,,,,1.217,,,,,,,,,,,,,,,,,,,,,,60ff4cd7d1037ecc61ca5b8b,61036c7aac7ff1e9063ecffc,2021-07-29_23h08.22.501,Simcolourproject_2stim_asymm_v5,2020.2.10,MacIntel,60,61025ae37ef11b136ea224fe,,,,,,,,,3742,-64,24,1,0,0,response7disk,,1,-26,6,1,0,0,rectangle,-26,6,1,0,0,-26,6,1,0,0,1,35,195,75,1,,,,,,,,
,,,,,,,,,,,,,FF,,,,,,,,1.5,,,,,,,,,,,,,,,,,,,,,,60ff4cd7d1037ecc61ca5b8b,61036c7aac7ff1e9063ecffc,2021-07-29_23h08.22.501,Simcolourproject_2stim_asymm_v5,2020.2.10,MacIntel,60,61025ae37ef11b136ea224fe,,,,,,,,,4024,100,30,1,0,0,response1disk,,6,17,-10,1,0,0,rectangle,17,-10,1,0,0,17,-10,1,0,0,1,36,196,115,1,,,,,,,,
,,,,,,,,,,,,,FF,,,,,,,,0.701,,,,,,,,,,,,,,,,,,,,,,60ff4cd7d1037ecc61ca5b8b,61036c7aac7ff1e9063ecffc,2021-07-29_23h08.22.501,Simcolourproject_2stim_asymm_v5,2020.2.10,MacIntel,60,61025ae37ef11b136ea224fe,,,,,,,,,848,33,76,1,0,0,response1disk,,7,9,8,1,0,0,rectangle,-39,-84,1,0,0,-7,4,1,0,0,1,37,197,6,1,,response5disk_3,TRUE,3,4,"[68,110,99,138,91,198,291,24,30,277,165,194,119,30,56,10,28,185,23,313]",1.434,rectangle
,,,,,,,,,,,,,FF,,,,,,,,0.85,,,,,,,,,,,,,,,,,,,,,,60ff4cd7d1037ecc61ca5b8b,61036c7aac7ff1e9063ecffc,2021-07-29_23h08.22.501,Simcolourproject_2stim_asymm_v5,2020.2.10,MacIntel,60,61025ae37ef11b136ea224fe,,,,,,,,,1490,27,81,1,0,0,response1disk,,7,-5,-7,1,0,0,rectangle,-5,-7,1,0,0,-5,-7,1,0,0,1,38,198,52,1,,,,,,,,
,,,,,,,,,,,,,FF,,,,,,,,0.635,,,,,,,,,,,,,,,,,,,,,,60ff4cd7d1037ecc61ca5b8b,61036c7aac7ff1e9063ecffc,2021-07-29_23h08.22.501,Simcolourproject_2stim_asymm_v5,2020.2.10,MacIntel,60,61025ae37ef11b136ea224fe,,,,,,,,,2346,41,91,1,0,0,response1disk,,7,11,9,1,0,0,rectangle,11,9,1,0,0,11,9,1,0,0,1,39,199,72,1,,,,,,,,
,,,,,,,,,,,,,FF,,,,,,,,0.85,,,,,,,,,,,,,,,,,,,,,,60ff4cd7d1037ecc61ca5b8b,61036c7aac7ff1e9063ecffc,2021-07-29_23h08.22.501,Simcolourproject_2stim_asymm_v5,2020.2.10,MacIntel,60,61025ae37ef11b136ea224fe,,,,,,,,,1042,48,112,1,0,0,response1disk,,7,-7,-6,1,0,0,rectangle,-7,-6,1,0,0,-7,-6,1,0,0,1,40,200,106,1,,,,,,,,
,,,,,,,,,,,,,FF,,,,,,,,1.066,,,,,,,,,,,,,,,,,,,,,,60ff4cd7d1037ecc61ca5b8b,61036c7aac7ff1e9063ecffc,2021-07-29_23h08.22.501,Simcolourproject_2stim_asymm_v5,2020.2.10,MacIntel,60,61025ae37ef11b136ea224fe,,,,,,,,,1733,44,27,1,0,0,response1disk,,6,22,11,1,0,0,rectangle,22,11,1,0,0,22,11,1,0,0,1,41,201,17,1,,,,,,,,
,,,,,,,,,,,,,FF,,,,,,,,0.634,,,,,,,,,,,,,,,,,,,,,,60ff4cd7d1037ecc61ca5b8b,61036c7aac7ff1e9063ecffc,2021-07-29_23h08.22.501,Simcolourproject_2stim_asymm_v5,2020.2.10,MacIntel,60,61025ae37ef11b136ea224fe,,,,,,,,,4137,46,99,1,0,0,response1disk,,7,4,-3,1,0,0,rectangle,4,-3,1,0,0,4,-3,1,0,0,1,42,202,107,1,,,,,,,,
,,,,,,,,,,,,,FF,,,,,,,,0.967,,,,,,,,,,,,,,,,,,,,,,60ff4cd7d1037ecc61ca5b8b,61036c7aac7ff1e9063ecffc,2021-07-29_23h08.22.501,Simcolourproject_2stim_asymm_v5,2020.2.10,MacIntel,60,61025ae37ef11b136ea224fe,,,,,,,,,3113,29,93,1,0,0,response1disk,,7,3,11,1,0,0,rectangle,3,11,1,0,0,3,11,1,0,0,1,43,203,126,1,,,,,,,,
,,,,,,,,,,,,,FF,,,,,,,,0.884,,,,,,,,,,,,,,,,,,,,,,60ff4cd7d1037ecc61ca5b8b,61036c7aac7ff1e9063ecffc,2021-07-29_23h08.22.501,Simcolourproject_2stim_asymm_v5,2020.2.10,MacIntel,60,61025ae37ef11b136ea224fe,,,,,,,,,1022,45,87,1,0,0,response1disk,,7,-8,-14,1,0,0,rectangle,-8,-14,1,0,0,-8,-14,1,0,0,1,44,204,4,1,,,,,,,,
,,,,,,,,,,,,,FF,,,,,,,,0.885,,,,,,,,,,,,,,,,,,,,,,60ff4cd7d1037ecc61ca5b8b,61036c7aac7ff1e9063ecffc,2021-07-29_23h08.22.501,Simcolourproject_2stim_asymm_v5,2020.2.10,MacIntel,60,61025ae37ef11b136ea224fe,,,,,,,,,1662,54,35,1,0,0,response1disk,,6,-6,-11,1,0,0,rectangle,-6,-11,1,0,0,-6,-11,1,0,0,1,45,205,151,1,,,,,,,,
,,,,,,,,,,,,,FF,,,,,,,,0.7,,,,,,,,,,,,,,,,,,,,,,60ff4cd7d1037ecc61ca5b8b,61036c7aac7ff1e9063ecffc,2021-07-29_23h08.22.501,Simcolourproject_2stim_asymm_v5,2020.2.10,MacIntel,60,61025ae37ef11b136ea224fe,,,,,,,,,3467,25,67,1,0,0,response1disk,,7,8,7,1,0,0,rectangle,8,7,1,0,0,8,7,1,0,0,1,46,206,11,1,,,,,,,,
,,,,,,,,,,,,,FF,,,,,,,,0.984,,,,,,,,,,,,,,,,,,,,,,60ff4cd7d1037ecc61ca5b8b,61036c7aac7ff1e9063ecffc,2021-07-29_23h08.22.501,Simcolourproject_2stim_asymm_v5,2020.2.10,MacIntel,60,61025ae37ef11b136ea224fe,,,,,,,,,3634,33,77,1,0,0,response1disk,,7,15,13,1,0,0,rectangle,15,13,1,0,0,15,13,1,0,0,1,47,207,120,1,,,,,,,,
,,,,,,,,,,,,,FF,,,,,,,,0.951,,,,,,,,,,,,,,,,,,,,,,60ff4cd7d1037ecc61ca5b8b,61036c7aac7ff1e9063ecffc,2021-07-29_23h08.22.501,Simcolourproject_2stim_asymm_v5,2020.2.10,MacIntel,60,61025ae37ef11b136ea224fe,,,,,,,,,1812,74,-31,1,0,0,response3disk,,5,28,7,1,0,0,rectangle,28,7,1,0,0,28,7,1,0,0,1,48,208,92,1,,,,,,,,
,,,,,,,,,,,,,FF,,,,,,,,0.666,,,,,,,,,,,,,,,,,,,,,,60ff4cd7d1037ecc61ca5b8b,61036c7aac7ff1e9063ecffc,2021-07-29_23h08.22.501,Simcolourproject_2stim_asymm_v5,2020.2.10,MacIntel,60,61025ae37ef11b136ea224fe,,,,,,,,,3345,40,76,1,0,0,response1disk,,7,-11,-9,1,0,0,rectangle,-11,-9,1,0,0,-11,-9,1,0,0,1,49,209,103,1,,,,,,,,
,,,,,,,,,,,,,FF,,,,,,,,1.033,,,,,,,,,,,,,,,,,,,,,,60ff4cd7d1037ecc61ca5b8b,61036c7aac7ff1e9063ecffc,2021-07-29_23h08.22.501,Simcolourproject_2stim_asymm_v5,2020.2.10,MacIntel,60,61025ae37ef11b136ea224fe,,,,,,,,,2723,78,-47,1,0,0,response3disk,,5,22,0,1,0,0,rectangle,22,0,1,0,0,22,0,1,0,0,1,50,210,136,1,,,,,,,,
,,,,,,,,,,,,,FF,,,,,,,,0.568,,,,,,,,,,,,,,,,,,,,,,60ff4cd7d1037ecc61ca5b8b,61036c7aac7ff1e9063ecffc,2021-07-29_23h08.22.501,Simcolourproject_2stim_asymm_v5,2020.2.10,MacIntel,60,61025ae37ef11b136ea224fe,,,,,,,,,486,42,76,1,0,0,response1disk,,7,-6,-6,1,0,0,rectangle,-6,-6,1,0,0,-6,-6,1,0,0,1,51,211,9,1,,,,,,,,
,,,,,,,,,,,,,FF,,,,,,,,0.6,,,,,,,,,,,,,,,,,,,,,,60ff4cd7d1037ecc61ca5b8b,61036c7aac7ff1e9063ecffc,2021-07-29_23h08.22.501,Simcolourproject_2stim_asymm_v5,2020.2.10,MacIntel,60,61025ae37ef11b136ea224fe,,,,,,,,,769,40,87,1,0,0,response1disk,,7,-1,-9,1,0,0,rectangle,-1,-9,1,0,0,-1,-9,1,0,0,1,52,212,37,1,,,,,,,,
,,,,,,,,,,,,,FF,,,,,,,,0.999,,,,,,,,,,,,,,,,,,,,,,60ff4cd7d1037ecc61ca5b8b,61036c7aac7ff1e9063ecffc,2021-07-29_23h08.22.501,Simcolourproject_2stim_asymm_v5,2020.2.10,MacIntel,60,61025ae37ef11b136ea224fe,,,,,,,,,807,51,-51,1,0,0,response3disk,,5,-1,0,1,0,0,rectangle,-1,0,1,0,0,-1,0,1,0,0,1,53,213,100,1,,,,,,,,
,,,,,,,,,,,,,FF,,,,,,,,0.999,,,,,,,,,,,,,,,,,,,,,,60ff4cd7d1037ecc61ca5b8b,61036c7aac7ff1e9063ecffc,2021-07-29_23h08.22.501,Simcolourproject_2stim_asymm_v5,2020.2.10,MacIntel,60,61025ae37ef11b136ea224fe,,,,,,,,,3029,34,77,1,0,0,response1disk,,7,4,-2,1,0,0,rectangle,4,-2,1,0,0,4,-2,1,0,0,1,54,214,129,1,,,,,,,,
,,,,,,,,,,,,,FF,,,,,,,,7.8,,,,,,,,,,,,,,,,,,,,,,60ff4cd7d1037ecc61ca5b8b,61036c7aac7ff1e9063ecffc,2021-07-29_23h08.22.501,Simcolourproject_2stim_asymm_v5,2020.2.10,MacIntel,60,61025ae37ef11b136ea224fe,,,,,,,,,4072,36,82,1,0,0,response1disk,,7,-10,-3,1,0,0,rectangle,-10,-3,1,0,0,-10,-3,1,0,0,1,55,215,147,1,,,,,,,,
,,,,,,,,,,,,,FF,,,,,,,,2.233,,,,,,,,,,,,,,,,,,,,,,60ff4cd7d1037ecc61ca5b8b,61036c7aac7ff1e9063ecffc,2021-07-29_23h08.22.501,Simcolourproject_2stim_asymm_v5,2020.2.10,MacIntel,60,61025ae37ef11b136ea224fe,,,,,,,,,738,65,-32,1,0,0,response3disk,,5,-2,-2,1,0,0,rectangle,-2,-2,1,0,0,-2,-2,1,0,0,1,56,216,116,1,,,,,,,,
,,,,,,,,,,,,,FF,,,,,,,,0.75,,,,,,,,,,,,,,,,,,,,,,60ff4cd7d1037ecc61ca5b8b,61036c7aac7ff1e9063ecffc,2021-07-29_23h08.22.501,Simcolourproject_2stim_asymm_v5,2020.2.10,MacIntel,60,61025ae37ef11b136ea224fe,,,,,,,,,3177,37,89,1,0,0,response1disk,,7,-10,-5,1,0,0,rectangle,-10,-5,1,0,0,-10,-5,1,0,0,1,57,217,141,1,,,,,,,,
,,,,,,,,,,,,,FF,,,,,,,,0.583,,,,,,,,,,,,,,,,,,,,,,60ff4cd7d1037ecc61ca5b8b,61036c7aac7ff1e9063ecffc,2021-07-29_23h08.22.501,Simcolourproject_2stim_asymm_v5,2020.2.10,MacIntel,60,61025ae37ef11b136ea224fe,,,,,,,,,931,24,68,1,0,0,response1disk,,7,-5,-5,1,0,0,rectangle,-5,-5,1,0,0,-5,-5,1,0,0,1,58,218,36,1,,,,,,,,
,,,,,,,,,,,,,FF,,,,,,,,0.817,,,,,,,,,,,,,,,,,,,,,,60ff4cd7d1037ecc61ca5b8b,61036c7aac7ff1e9063ecffc,2021-07-29_23h08.22.501,Simcolourproject_2stim_asymm_v5,2020.2.10,MacIntel,60,61025ae37ef11b136ea224fe,,,,,,,,,786,53,39,1,0,0,response1disk,,6,12,13,1,0,0,rectangle,12,13,1,0,0,12,13,1,0,0,1,59,219,20,1,,,,,,,,
,,,,,,,,,,,,,FF,,,,,,,,0.632,,,,,,,,,,,,,,,,,,,,,,60ff4cd7d1037ecc61ca5b8b,61036c7aac7ff1e9063ecffc,2021-07-29_23h08.22.501,Simcolourproject_2stim_asymm_v5,2020.2.10,MacIntel,60,61025ae37ef11b136ea224fe,,,,,,,,,3499,42,97,1,0,0,response1disk,,7,-12,-7,1,0,0,rectangle,-12,-7,1,0,0,-12,-7,1,0,0,1,60,220,114,1,,,,,,,,
,,,,,,,,,,,,,FF,,,,,,,,1.282,,,,,,,,,,,,,,,,,,,,,,60ff4cd7d1037ecc61ca5b8b,61036c7aac7ff1e9063ecffc,2021-07-29_23h08.22.501,Simcolourproject_2stim_asymm_v5,2020.2.10,MacIntel,60,61025ae37ef11b136ea224fe,,,,,,,,,246,80,30,1,0,0,response1disk,,6,-2,-3,1,0,0,rectangle,-2,-3,1,0,0,-2,-3,1,0,0,1,61,221,78,1,,,,,,,,
,,,,,,,,,,,,,FF,,,,,,,,1.933,,,,,,,,,,,,,,,,,,,,,,60ff4cd7d1037ecc61ca5b8b,61036c7aac7ff1e9063ecffc,2021-07-29_23h08.22.501,Simcolourproject_2stim_asymm_v5,2020.2.10,MacIntel,60,61025ae37ef11b136ea224fe,,,,,,,,,3423,48,82,1,0,0,response1disk,,7,-7,3,1,0,0,rectangle,-7,3,1,0,0,-7,3,1,0,0,1,62,222,148,1,,,,,,,,
,,,,,,,,,,,,,FF,,,,,,,,1.651,,,,,,,,,,,,,,,,,,,,,,60ff4cd7d1037ecc61ca5b8b,61036c7aac7ff1e9063ecffc,2021-07-29_23h08.22.501,Simcolourproject_2stim_asymm_v5,2020.2.10,MacIntel,60,61025ae37ef11b136ea224fe,,,,,,,,,884,76,-41,1,0,0,response3disk,,5,5,7,1,0,0,rectangle,5,7,1,0,0,5,7,1,0,0,1,63,223,59,1,,,,,,,,
,,,,,,,,,,,,,FF,,,,,,,,10.933,,,,,,,,,,,,,,,,,,,,,,60ff4cd7d1037ecc61ca5b8b,61036c7aac7ff1e9063ecffc,2021-07-29_23h08.22.501,Simcolourproject_2stim_asymm_v5,2020.2.10,MacIntel,60,61025ae37ef11b136ea224fe,,,,,,,,,4321,41,58,1,0,0,response1disk,,7,-6,-11,1,0,0,rectangle,-6,-11,1,0,0,-6,-11,1,0,0,1,64,224,57,1,,,,,,,,
,,,,,,,,,,,,,FF,,,,,,,,1.166,,,,,,,,,,,,,,,,,,,,,,60ff4cd7d1037ecc61ca5b8b,61036c7aac7ff1e9063ecffc,2021-07-29_23h08.22.501,Simcolourproject_2stim_asymm_v5,2020.2.10,MacIntel,60,61025ae37ef11b136ea224fe,,,,,,,,,3544,69,-40,1,0,0,response3disk,,5,1,1,1,0,0,rectangle,1,1,1,0,0,1,1,1,0,0,1,65,225,10,1,,,,,,,,
,,,,,,,,,,,,,FF,,,,,,,,5.001,,,,,,,,,,,,,,,,,,,,,,60ff4cd7d1037ecc61ca5b8b,61036c7aac7ff1e9063ecffc,2021-07-29_23h08.22.501,Simcolourproject_2stim_asymm_v5,2020.2.10,MacIntel,60,61025ae37ef11b136ea224fe,,,,,,,,,1217,45,-71,1,0,0,response3disk,,4,-17,-4,1,0,0,rectangle,-17,-4,1,0,0,-17,-4,1,0,0,1,66,226,24,1,,,,,,,,
,,,,,,,,,,,,,FF,,,,,,,,3.049,,,,,,,,,,,,,,,,,,,,,,60ff4cd7d1037ecc61ca5b8b,61036c7aac7ff1e9063ecffc,2021-07-29_23h08.22.501,Simcolourproject_2stim_asymm_v5,2020.2.10,MacIntel,60,61025ae37ef11b136ea224fe,,,,,,,,,1695,31,63,1,0,0,response1disk,,7,-5,6,1,0,0,rectangle,-5,6,1,0,0,-5,6,1,0,0,1,67,227,123,1,,,,,,,,
,,,,,,,,,,,,,FF,,,,,,,,0.816,,,,,,,,,,,,,,,,,,,,,,60ff4cd7d1037ecc61ca5b8b,61036c7aac7ff1e9063ecffc,2021-07-29_23h08.22.501,Simcolourproject_2stim_asymm_v5,2020.2.10,MacIntel,60,61025ae37ef11b136ea224fe,,,,,,,,,27,36,75,1,0,0,response1disk,,7,12,-4,1,0,0,rectangle,12,-4,1,0,0,12,-4,1,0,0,1,68,228,77,1,,,,,,,,
,,,,,,,,,,,,,FF,,,,,,,,0.934,,,,,,,,,,,,,,,,,,,,,,60ff4cd7d1037ecc61ca5b8b,61036c7aac7ff1e9063ecffc,2021-07-29_23h08.22.501,Simcolourproject_2stim_asymm_v5,2020.2.10,MacIntel,60,61025ae37ef11b136ea224fe,,,,,,,,,3834,26,63,1,0,0,response1disk,,7,5,2,1,0,0,rectangle,5,2,1,0,0,5,2,1,0,0,1,69,229,98,1,,,,,,,,
,,,,,,,,,,,,,FF,,,,,,,,1.85,,,,,,,,,,,,,,,,,,,,,,60ff4cd7d1037ecc61ca5b8b,61036c7aac7ff1e9063ecffc,2021-07-29_23h08.22.501,Simcolourproject_2stim_asymm_v5,2020.2.10,MacIntel,60,61025ae37ef11b136ea224fe,,,,,,,,,3093,69,-29,1,0,0,response3disk,,5,12,-1,1,0,0,rectangle,12,-1,1,0,0,12,-1,1,0,0,1,70,230,155,1,,,,,,,,
,,,,,,,,,,,,,FF,,,,,,,,0.65,,,,,,,,,,,,,,,,,,,,,,60ff4cd7d1037ecc61ca5b8b,61036c7aac7ff1e9063ecffc,2021-07-29_23h08.22.501,Simcolourproject_2stim_asymm_v5,2020.2.10,MacIntel,60,61025ae37ef11b136ea224fe,,,,,,,,,1919,25,74,1,0,0,response1disk,,7,7,0,1,0,0,rectangle,7,0,1,0,0,7,0,1,0,0,1,71,231,46,1,,,,,,,,
,,,,,,,,,,,,,FF,,,,,,,,1.2,,,,,,,,,,,,,,,,,,,,,,60ff4cd7d1037ecc61ca5b8b,61036c7aac7ff1e9063ecffc,2021-07-29_23h08.22.501,Simcolourproject_2stim_asymm_v5,2020.2.10,MacIntel,60,61025ae37ef11b136ea224fe,,,,,,,,,1545,24,74,1,0,0,response1disk,,7,8,-6,1,0,0,rectangle,8,-6,1,0,0,8,-6,1,0,0,1,72,232,102,1,,,,,,,,
,,,,,,,,,,,,,FF,,,,,,,,0.8,,,,,,,,,,,,,,,,,,,,,,60ff4cd7d1037ecc61ca5b8b,61036c7aac7ff1e9063ecffc,2021-07-29_23h08.22.501,Simcolourproject_2stim_asymm_v5,2020.2.10,MacIntel,60,61025ae37ef11b136ea224fe,,,,,,,,,3273,28,68,1,0,0,response1disk,,7,10,-3,1,0,0,rectangle,10,-3,1,0,0,10,-3,1,0,0,1,73,233,117,1,,,,,,,,
,,,,,,,,,,,,,FF,,,,,,,,0.767,,,,,,,,,,,,,,,,,,,,,,60ff4cd7d1037ecc61ca5b8b,61036c7aac7ff1e9063ecffc,2021-07-29_23h08.22.501,Simcolourproject_2stim_asymm_v5,2020.2.10,MacIntel,60,61025ae37ef11b136ea224fe,,,,,,,,,1176,34,83,1,0,0,response1disk,,7,2,2,1,0,0,rectangle,2,2,1,0,0,2,2,1,0,0,1,74,234,13,1,,,,,,,,
,,,,,,,,,,,,,FF,,,,,,,,1.184,,,,,,,,,,,,,,,,,,,,,,60ff4cd7d1037ecc61ca5b8b,61036c7aac7ff1e9063ecffc,2021-07-29_23h08.22.501,Simcolourproject_2stim_asymm_v5,2020.2.10,MacIntel,60,61025ae37ef11b136ea224fe,,,,,,,,,4033,55,30,1,0,0,response1disk,,6,22,7,1,0,0,rectangle,22,7,1,0,0,22,7,1,0,0,1,75,235,62,1,,,,,,,,
,,,,,,,,,,,,,FF,,,,,,,,1.333,,,,,,,,,,,,,,,,,,,,,,60ff4cd7d1037ecc61ca5b8b,61036c7aac7ff1e9063ecffc,2021-07-29_23h08.22.501,Simcolourproject_2stim_asymm_v5,2020.2.10,MacIntel,60,61025ae37ef11b136ea224fe,,,,,,,,,606,80,25,1,0,0,response1disk,,6,-2,-12,1,0,0,rectangle,-2,-12,1,0,0,-2,-12,1,0,0,1,76,236,131,1,,,,,,,,
,,,,,,,,,,,,,FF,,,,,,,,0.566,,,,,,,,,,,,,,,,,,,,,,60ff4cd7d1037ecc61ca5b8b,61036c7aac7ff1e9063ecffc,2021-07-29_23h08.22.501,Simcolourproject_2stim_asymm_v5,2020.2.10,MacIntel,60,61025ae37ef11b136ea224fe,,,,,,,,,3178,17,70,1,0,0,response1disk,,7,6,2,1,0,0,rectangle,6,2,1,0,0,6,2,1,0,0,1,77,237,108,1,,,,,,,,
,,,,,,,,,,,,,FF,,,,,,,,0.851,,,,,,,,,,,,,,,,,,,,,,60ff4cd7d1037ecc61ca5b8b,61036c7aac7ff1e9063ecffc,2021-07-29_23h08.22.501,Simcolourproject_2stim_asymm_v5,2020.2.10,MacIntel,60,61025ae37ef11b136ea224fe,,,,,,,,,3759,33,95,1,0,0,response1disk,,7,8,-5,1,0,0,rectangle,8,-5,1,0,0,8,-5,1,0,0,1,78,238,45,1,,,,,,,,
,,,,,,,,,,,,,FF,,,,,,,,0.884,,,,,,,,,,,,,,,,,,,,,,60ff4cd7d1037ecc61ca5b8b,61036c7aac7ff1e9063ecffc,2021-07-29_23h08.22.501,Simcolourproject_2stim_asymm_v5,2020.2.10,MacIntel,60,61025ae37ef11b136ea224fe,,,,,,,,,1471,28,95,1,0,0,response1disk,,7,8,12,1,0,0,rectangle,8,12,1,0,0,8,12,1,0,0,1,79,239,68,1,,,,,,,,
,,,,,,,,,,,,,FF,,,,,,,,1.351,,,,,,,,,,,,,,,,,,,,,,60ff4cd7d1037ecc61ca5b8b,61036c7aac7ff1e9063ecffc,2021-07-29_23h08.22.501,Simcolourproject_2stim_asymm_v5,2020.2.10,MacIntel,60,61025ae37ef11b136ea224fe,,,,,,,,,2598,69,28,1,0,0,response1disk,,6,13,10,1,0,0,rectangle,13,10,1,0,0,13,10,1,0,0,1,80,240,105,1,,,,,,,,
,,,,,,,,,,,,,FF,,,,,,,,0.9,,,,,,,,,,,,,,,,,,,,,,60ff4cd7d1037ecc61ca5b8b,61036c7aac7ff1e9063ecffc,2021-07-29_23h08.22.501,Simcolourproject_2stim_asymm_v5,2020.2.10,MacIntel,60,61025ae37ef11b136ea224fe,,,,,,,,,428,80,33,1,0,0,response1disk,,6,14,1,1,0,0,rectangle,14,1,1,0,0,14,1,1,0,0,1,81,241,22,1,,,,,,,,
,,,,,,,,,,,,,FF,,,,,,,,0.782,,,,,,,,,,,,,,,,,,,,,,60ff4cd7d1037ecc61ca5b8b,61036c7aac7ff1e9063ecffc,2021-07-29_23h08.22.501,Simcolourproject_2stim_asymm_v5,2020.2.10,MacIntel,60,61025ae37ef11b136ea224fe,,,,,,,,,3824,53,-28,1,0,0,response3disk,,5,16,-5,1,0,0,rectangle,16,-5,1,0,0,16,-5,1,0,0,1,82,242,61,1,,,,,,,,
,,,,,,,,,,,,,FF,,,,,,,,0.549,,,,,,,,,,,,,,,,,,,,,,60ff4cd7d1037ecc61ca5b8b,61036c7aac7ff1e9063ecffc,2021-07-29_23h08.22.501,Simcolourproject_2stim_asymm_v5,2020.2.10,MacIntel,60,61025ae37ef11b136ea224fe,,,,,,,,,3958,32,76,1,0,0,response1disk,,7,1,5,1,0,0,rectangle,1,5,1,0,0,1,5,1,0,0,1,83,243,41,1,,,,,,,,
,,,,,,,,,,,,,FF,,,,,,,,1.252,,,,,,,,,,,,,,,,,,,,,,60ff4cd7d1037ecc61ca5b8b,61036c7aac7ff1e9063ecffc,2021-07-29_23h08.22.501,Simcolourproject_2stim_asymm_v5,2020.2.10,MacIntel,60,61025ae37ef11b136ea224fe,,,,,,,,,902,69,28,1,0,0,response1disk,,6,15,0,1,0,0,rectangle,15,0,1,0,0,15,0,1,0,0,1,84,244,128,1,,,,,,,,
,,,,,,,,,,,,,FF,,,,,,,,0.534,,,,,,,,,,,,,,,,,,,,,,60ff4cd7d1037ecc61ca5b8b,61036c7aac7ff1e9063ecffc,2021-07-29_23h08.22.501,Simcolourproject_2stim_asymm_v5,2020.2.10,MacIntel,60,61025ae37ef11b136ea224fe,,,,,,,,,1548,52,102,1,0,0,response1disk,,7,10,5,1,0,0,rectangle,10,5,1,0,0,10,5,1,0,0,1,85,245,38,1,,,,,,,,
,,,,,,,,,,,,,FF,,,,,,,,1.417,,,,,,,,,,,,,,,,,,,,,,60ff4cd7d1037ecc61ca5b8b,61036c7aac7ff1e9063ecffc,2021-07-29_23h08.22.501,Simcolourproject_2stim_asymm_v5,2020.2.10,MacIntel,60,61025ae37ef11b136ea224fe,,,,,,,,,633,68,-43,1,0,0,response3disk,,5,20,-12,1,0,0,rectangle,20,-12,1,0,0,20,-12,1,0,0,1,86,246,26,1,,,,,,,,
,,,,,,,,,,,,,FF,,,,,,,,2.801,,,,,,,,,,,,,,,,,,,,,,60ff4cd7d1037ecc61ca5b8b,61036c7aac7ff1e9063ecffc,2021-07-29_23h08.22.501,Simcolourproject_2stim_asymm_v5,2020.2.10,MacIntel,60,61025ae37ef11b136ea224fe,,,,,,,,,1338,52,-27,1,0,0,response3disk,,5,17,-2,1,0,0,rectangle,17,-2,1,0,0,17,-2,1,0,0,1,87,247,118,1,,,,,,,,
,,,,,,,,,,,,,FF,,,,,,,,1.217,,,,,,,,,,,,,,,,,,,,,,60ff4cd7d1037ecc61ca5b8b,61036c7aac7ff1e9063ecffc,2021-07-29_23h08.22.501,Simcolourproject_2stim_asymm_v5,2020.2.10,MacIntel,60,61025ae37ef11b136ea224fe,,,,,,,,,2360,-30,-73,1,0,0,response5disk,,3,-17,-1,1,0,0,rectangle,-17,-1,1,0,0,-17,-1,1,0,0,1,88,248,1,1,,,,,,,,
,,,,,,,,,,,,,FF,,,,,,,,0.799,,,,,,,,,,,,,,,,,,,,,,60ff4cd7d1037ecc61ca5b8b,61036c7aac7ff1e9063ecffc,2021-07-29_23h08.22.501,Simcolourproject_2stim_asymm_v5,2020.2.10,MacIntel,60,61025ae37ef11b136ea224fe,,,,,,,,,2220,27,72,1,0,0,response1disk,,7,2,3,1,0,0,rectangle,2,3,1,0,0,2,3,1,0,0,1,89,249,135,1,,,,,,,,
,,,,,,,,,,,,,FF,,,,,,,,1.866,,,,,,,,,,,,,,,,,,,,,,60ff4cd7d1037ecc61ca5b8b,61036c7aac7ff1e9063ecffc,2021-07-29_23h08.22.501,Simcolourproject_2stim_asymm_v5,2020.2.10,MacIntel,60,61025ae37ef11b136ea224fe,,,,,,,,,2720,31,-91,1,0,0,response3disk,,4,-15,-1,1,0,0,rectangle,-15,-1,1,0,0,-15,-1,1,0,0,1,90,250,53,1,,,,,,,,
,,,,,,,,,,,,,FF,,,,,,,,0.8,,,,,,,,,,,,,,,,,,,,,,60ff4cd7d1037ecc61ca5b8b,61036c7aac7ff1e9063ecffc,2021-07-29_23h08.22.501,Simcolourproject_2stim_asymm_v5,2020.2.10,MacIntel,60,61025ae37ef11b136ea224fe,,,,,,,,,395,31,52,1,0,0,response1disk,,7,0,-6,1,0,0,rectangle,0,-6,1,0,0,0,-6,1,0,0,1,91,251,84,1,,,,,,,,
,,,,,,,,,,,,,FF,,,,,,,,0.999,,,,,,,,,,,,,,,,,,,,,,60ff4cd7d1037ecc61ca5b8b,61036c7aac7ff1e9063ecffc,2021-07-29_23h08.22.501,Simcolourproject_2stim_asymm_v5,2020.2.10,MacIntel,60,61025ae37ef11b136ea224fe,,,,,,,,,1063,49,-27,1,0,0,response3disk,,5,8,7,1,0,0,rectangle,8,7,1,0,0,8,7,1,0,0,1,92,252,157,1,,,,,,,,
,,,,,,,,,,,,,FF,,,,,,,,1.017,,,,,,,,,,,,,,,,,,,,,,60ff4cd7d1037ecc61ca5b8b,61036c7aac7ff1e9063ecffc,2021-07-29_23h08.22.501,Simcolourproject_2stim_asymm_v5,2020.2.10,MacIntel,60,61025ae37ef11b136ea224fe,,,,,,,,,380,63,22,1,0,0,response1disk,,6,17,8,1,0,0,rectangle,17,8,1,0,0,17,8,1,0,0,1,93,253,153,1,,,,,,,,
,,,,,,,,,,,,,FF,,,,,,,,0.482,,,,,,,,,,,,,,,,,,,,,,60ff4cd7d1037ecc61ca5b8b,61036c7aac7ff1e9063ecffc,2021-07-29_23h08.22.501,Simcolourproject_2stim_asymm_v5,2020.2.10,MacIntel,60,61025ae37ef11b136ea224fe,,,,,,,,,2459,21,64,1,0,0,response1disk,,7,7,0,1,0,0,rectangle,7,0,1,0,0,7,0,1,0,0,1,94,254,127,1,,,,,,,,
,,,,,,,,,,,,,FF,,,,,,,,1.049,,,,,,,,,,,,,,,,,,,,,,60ff4cd7d1037ecc61ca5b8b,61036c7aac7ff1e9063ecffc,2021-07-29_23h08.22.501,Simcolourproject_2stim_asymm_v5,2020.2.10,MacIntel,60,61025ae37ef11b136ea224fe,,,,,,,,,3706,-63,-42,1,0,0,response5disk,,2,-11,-6,1,0,0,rectangle,-11,-6,1,0,0,-11,-6,1,0,0,1,95,255,124,1,,,,,,,,
,,,,,,,,,,,,,FF,,,,,,,,0.832,,,,,,,,,,,,,,,,,,,,,,60ff4cd7d1037ecc61ca5b8b,61036c7aac7ff1e9063ecffc,2021-07-29_23h08.22.501,Simcolourproject_2stim_asymm_v5,2020.2.10,MacIntel,60,61025ae37ef11b136ea224fe,,,,,,,,,1107,40,72,1,0,0,response1disk,,7,-5,-6,1,0,0,rectangle,-5,-6,1,0,0,-5,-6,1,0,0,1,96,256,54,1,,,,,,,,
,,,,,,,,,,,,,FF,,,,,,,,2.633,,,,,,,,,,,,,,,,,,,,,,60ff4cd7d1037ecc61ca5b8b,61036c7aac7ff1e9063ecffc,2021-07-29_23h08.22.501,Simcolourproject_2stim_asymm_v5,2020.2.10,MacIntel,60,61025ae37ef11b136ea224fe,,,,,,,,,594,18,73,1,0,0,response1disk,,7,10,4,1,0,0,rectangle,10,4,1,0,0,10,4,1,0,0,1,97,257,104,1,,,,,,,,
,,,,,,,,,,,,,FF,,,,,,,,0.833,,,,,,,,,,,,,,,,,,,,,,60ff4cd7d1037ecc61ca5b8b,61036c7aac7ff1e9063ecffc,2021-07-29_23h08.22.501,Simcolourproject_2stim_asymm_v5,2020.2.10,MacIntel,60,61025ae37ef11b136ea224fe,,,,,,,,,1110,22,76,1,0,0,response1disk,,7,-13,-15,1,0,0,rectangle,-13,-15,1,0,0,-13,-15,1,0,0,1,98,258,31,1,,,,,,,,
,,,,,,,,,,,,,FF,,,,,,,,0.818,,,,,,,,,,,,,,,,,,,,,,60ff4cd7d1037ecc61ca5b8b,61036c7aac7ff1e9063ecffc,2021-07-29_23h08.22.501,Simcolourproject_2stim_asymm_v5,2020.2.10,MacIntel,60,61025ae37ef11b136ea224fe,,,,,,,,,3379,34,74,1,0,0,response1disk,,7,6,8,1,0,0,rectangle,6,8,1,0,0,6,8,1,0,0,1,99,259,94,1,,,,,,,,
,,,,,,,,,,,,,FF,,,,,,,,1.55,,,,,,,,,,,,,,,,,,,,,,60ff4cd7d1037ecc61ca5b8b,61036c7aac7ff1e9063ecffc,2021-07-29_23h08.22.501,Simcolourproject_2stim_asymm_v5,2020.2.10,MacIntel,60,61025ae37ef11b136ea224fe,,,,,,,,,366,-70,-40,1,0,0,response5disk,,2,-13,1,1,0,0,rectangle,-13,1,1,0,0,-13,1,1,0,0,1,100,260,86,1,,,,,,,,
,,,,,,,,,,,,,FF,,,,,,,,1.567,,,,,,,,,,,,,,,,,,,,,,60ff4cd7d1037ecc61ca5b8b,61036c7aac7ff1e9063ecffc,2021-07-29_23h08.22.501,Simcolourproject_2stim_asymm_v5,2020.2.10,MacIntel,60,61025ae37ef11b136ea224fe,,,,,,,,,1211,-50,37,1,0,0,response7disk,,1,-15,-2,1,0,0,rectangle,-15,-2,1,0,0,-15,-2,1,0,0,1,101,261,70,1,,,,,,,,
,,,,,,,,,,,,,FF,,,,,,,,0.733,,,,,,,,,,,,,,,,,,,,,,60ff4cd7d1037ecc61ca5b8b,61036c7aac7ff1e9063ecffc,2021-07-29_23h08.22.501,Simcolourproject_2stim_asymm_v5,2020.2.10,MacIntel,60,61025ae37ef11b136ea224fe,,,,,,,,,3827,21,78,1,0,0,response1disk,,7,-5,-2,1,0,0,rectangle,-5,-2,1,0,0,-5,-2,1,0,0,1,102,262,99,1,,,,,,,,
,,,,,,,,,,,,,FF,,,,,,,,0.467,,,,,,,,,,,,,,,,,,,,,,60ff4cd7d1037ecc61ca5b8b,61036c7aac7ff1e9063ecffc,2021-07-29_23h08.22.501,Simcolourproject_2stim_asymm_v5,2020.2.10,MacIntel,60,61025ae37ef11b136ea224fe,,,,,,,,,429,28,78,1,0,0,response1disk,,7,3,0,1,0,0,rectangle,3,0,1,0,0,3,0,1,0,0,1,103,263,35,1,,,,,,,,
,,,,,,,,,,,,,FF,,,,,,,,0.449,,,,,,,,,,,,,,,,,,,,,,60ff4cd7d1037ecc61ca5b8b,61036c7aac7ff1e9063ecffc,2021-07-29_23h08.22.501,Simcolourproject_2stim_asymm_v5,2020.2.10,MacIntel,60,61025ae37ef11b136ea224fe,,,,,,,,,3896,28,82,1,0,0,response1disk,,7,13,4,1,0,0,rectangle,13,4,1,0,0,13,4,1,0,0,1,104,264,121,1,,,,,,,,
,,,,,,,,,,,,,FF,,,,,,,,0.467,,,,,,,,,,,,,,,,,,,,,,60ff4cd7d1037ecc61ca5b8b,61036c7aac7ff1e9063ecffc,2021-07-29_23h08.22.501,Simcolourproject_2stim_asymm_v5,2020.2.10,MacIntel,60,61025ae37ef11b136ea224fe,,,,,,,,,3871,42,93,1,0,0,response1disk,,7,-5,-8,1,0,0,rectangle,-5,-8,1,0,0,-5,-8,1,0,0,1,105,265,137,1,,,,,,,,
,,,,,,,,,,,,,FF,,,,,,,,1.616,,,,,,,,,,,,,,,,,,,,,,60ff4cd7d1037ecc61ca5b8b,61036c7aac7ff1e9063ecffc,2021-07-29_23h08.22.501,Simcolourproject_2stim_asymm_v5,2020.2.10,MacIntel,60,61025ae37ef11b136ea224fe,,,,,,,,,1285,-66,33,1,0,0,response7disk,,1,11,-3,1,0,0,rectangle,11,-3,1,0,0,11,-3,1,0,0,1,106,266,16,1,,,,,,,,
,,,,,,,,,,,,,FF,,,,,,,,1.268,,,,,,,,,,,,,,,,,,,,,,60ff4cd7d1037ecc61ca5b8b,61036c7aac7ff1e9063ecffc,2021-07-29_23h08.22.501,Simcolourproject_2stim_asymm_v5,2020.2.10,MacIntel,60,61025ae37ef11b136ea224fe,,,,,,,,,3435,43,90,1,0,0,response1disk,,7,-9,-6,1,0,0,rectangle,-9,-6,1,0,0,-9,-6,1,0,0,1,107,267,64,1,,,,,,,,
,,,,,,,,,,,,,FF,,,,,,,,1.234,,,,,,,,,,,,,,,,,,,,,,60ff4cd7d1037ecc61ca5b8b,61036c7aac7ff1e9063ecffc,2021-07-29_23h08.22.501,Simcolourproject_2stim_asymm_v5,2020.2.10,MacIntel,60,61025ae37ef11b136ea224fe,,,,,,,,,2353,27,67,1,0,0,response1disk,,7,-2,12,1,0,0,rectangle,-2,12,1,0,0,-2,12,1,0,0,1,108,268,14,1,,,,,,,,
,,,,,,,,,,,,,FF,,,,,,,,0.667,,,,,,,,,,,,,,,,,,,,,,60ff4cd7d1037ecc61ca5b8b,61036c7aac7ff1e9063ecffc,2021-07-29_23h08.22.501,Simcolourproject_2stim_asymm_v5,2020.2.10,MacIntel,60,61025ae37ef11b136ea224fe,,,,,,,,,3686,37,74,1,0,0,response1disk,,7,8,3,1,0,0,rectangle,8,3,1,0,0,8,3,1,0,0,1,109,269,159,1,,,,,,,,
,,,,,,,,,,,,,FF,,,,,,,,0.601,,,,,,,,,,,,,,,,,,,,,,60ff4cd7d1037ecc61ca5b8b,61036c7aac7ff1e9063ecffc,2021-07-29_23h08.22.501,Simcolourproject_2stim_asymm_v5,2020.2.10,MacIntel,60,61025ae37ef11b136ea224fe,,,,,,,,,3895,56,83,1,0,0,response1disk,,7,20,7,1,0,0,rectangle,20,7,1,0,0,20,7,1,0,0,1,110,270,33,1,,,,,,,,
,,,,,,,,,,,,,FF,,,,,,,,0.5,,,,,,,,,,,,,,,,,,,,,,60ff4cd7d1037ecc61ca5b8b,61036c7aac7ff1e9063ecffc,2021-07-29_23h08.22.501,Simcolourproject_2stim_asymm_v5,2020.2.10,MacIntel,60,61025ae37ef11b136ea224fe,,,,,,,,,2523,33,61,1,0,0,response1disk,,7,17,14,1,0,0,rectangle,17,14,1,0,0,17,14,1,0,0,1,111,271,43,1,,,,,,,,
,,,,,,,,,,,,,FF,,,,,,,,1.349,,,,,,,,,,,,,,,,,,,,,,60ff4cd7d1037ecc61ca5b8b,61036c7aac7ff1e9063ecffc,2021-07-29_23h08.22.501,Simcolourproject_2stim_asymm_v5,2020.2.10,MacIntel,60,61025ae37ef11b136ea224fe,,,,,,,,,3970,63,-31,1,0,0,response3disk,,5,14,1,1,0,0,rectangle,14,1,1,0,0,14,1,1,0,0,1,112,272,146,1,,,,,,,,
,,,,,,,,,,,,,FF,,,,,,,,0.616,,,,,,,,,,,,,,,,,,,,,,60ff4cd7d1037ecc61ca5b8b,61036c7aac7ff1e9063ecffc,2021-07-29_23h08.22.501,Simcolourproject_2stim_asymm_v5,2020.2.10,MacIntel,60,61025ae37ef11b136ea224fe,,,,,,,,,676,39,62,1,0,0,response1disk,,7,9,3,1,0,0,rectangle,9,3,1,0,0,9,3,1,0,0,1,113,273,51,1,,,,,,,,
,,,,,,,,,,,,,FF,,,,,,,,1.001,,,,,,,,,,,,,,,,,,,,,,60ff4cd7d1037ecc61ca5b8b,61036c7aac7ff1e9063ecffc,2021-07-29_23h08.22.501,Simcolourproject_2stim_asymm_v5,2020.2.10,MacIntel,60,61025ae37ef11b136ea224fe,,,,,,,,,740,26,-84,1,0,0,response3disk,,4,-5,3,1,0,0,rectangle,-5,3,1,0,0,-5,3,1,0,0,1,114,274,95,1,,,,,,,,
,,,,,,,,,,,,,FF,,,,,,,,1.134,,,,,,,,,,,,,,,,,,,,,,60ff4cd7d1037ecc61ca5b8b,61036c7aac7ff1e9063ecffc,2021-07-29_23h08.22.501,Simcolourproject_2stim_asymm_v5,2020.2.10,MacIntel,60,61025ae37ef11b136ea224fe,,,,,,,,,1267,59,-32,1,0,0,response3disk,,5,4,-2,1,0,0,rectangle,4,-2,1,0,0,4,-2,1,0,0,1,115,275,23,1,,,,,,,,
,,,,,,,,,,,,,FF,,,,,,,,0.516,,,,,,,,,,,,,,,,,,,,,,60ff4cd7d1037ecc61ca5b8b,61036c7aac7ff1e9063ecffc,2021-07-29_23h08.22.501,Simcolourproject_2stim_asymm_v5,2020.2.10,MacIntel,60,61025ae37ef11b136ea224fe,,,,,,,,,4233,25,77,1,0,0,response1disk,,7,0,-11,1,0,0,rectangle,-78,-42,1,0,0,-15,7,1,0,0,1,116,276,110,1,,response5disk_3,TRUE,2,2,"[68,110,99,138,91,198,291,24,30,277,165,194,119,30,56,10,28,185,23,313]",1.834,rectangle
,,,,,,,,,,,,,FF,,,,,,,,1.183,,,,,,,,,,,,,,,,,,,,,,60ff4cd7d1037ecc61ca5b8b,61036c7aac7ff1e9063ecffc,2021-07-29_23h08.22.501,Simcolourproject_2stim_asymm_v5,2020.2.10,MacIntel,60,61025ae37ef11b136ea224fe,,,,,,,,,1749,57,-30,1,0,0,response3disk,,5,14,-9,1,0,0,rectangle,14,-9,1,0,0,14,-9,1,0,0,1,117,277,69,1,,,,,,,,
,,,,,,,,,,,,,FF,,,,,,,,0.967,,,,,,,,,,,,,,,,,,,,,,60ff4cd7d1037ecc61ca5b8b,61036c7aac7ff1e9063ecffc,2021-07-29_23h08.22.501,Simcolourproject_2stim_asymm_v5,2020.2.10,MacIntel,60,61025ae37ef11b136ea224fe,,,,,,,,,276,-57,27,1,0,0,response7disk,,1,-15,-1,1,0,0,rectangle,-15,-1,1,0,0,-15,-1,1,0,0,1,118,278,85,1,,,,,,,,
,,,,,,,,,,,,,FF,,,,,,,,0.801,,,,,,,,,,,,,,,,,,,,,,60ff4cd7d1037ecc61ca5b8b,61036c7aac7ff1e9063ecffc,2021-07-29_23h08.22.501,Simcolourproject_2stim_asymm_v5,2020.2.10,MacIntel,60,61025ae37ef11b136ea224fe,,,,,,,,,2492,33,89,1,0,0,response1disk,,7,-9,-9,1,0,0,rectangle,-9,-9,1,0,0,-9,-9,1,0,0,1,119,279,125,1,,,,,,,,
,,,,,,,,,,,,,FF,,,,,,,,0.668,,,,,,,,,,,,,,,,,,,,,,60ff4cd7d1037ecc61ca5b8b,61036c7aac7ff1e9063ecffc,2021-07-29_23h08.22.501,Simcolourproject_2stim_asymm_v5,2020.2.10,MacIntel,60,61025ae37ef11b136ea224fe,,,,,,,,,3409,30,84,1,0,0,response1disk,,7,12,6,1,0,0,rectangle,12,6,1,0,0,12,6,1,0,0,1,120,280,73,1,,,,,,,,
,,,,,,,,,,,,,FF,,,,,,,,0.915,,,,,,,,,,,,,,,,,,,,,,60ff4cd7d1037ecc61ca5b8b,61036c7aac7ff1e9063ecffc,2021-07-29_23h08.22.501,Simcolourproject_2stim_asymm_v5,2020.2.10,MacIntel,60,61025ae37ef11b136ea224fe,,,,,,,,,1542,23,79,1,0,0,response1disk,,7,5,0,1,0,0,rectangle,5,0,1,0,0,5,0,1,0,0,1,121,281,112,1,,,,,,,,
,,,,,,,,,,,,,FF,,,,,,,,0.967,,,,,,,,,,,,,,,,,,,,,,60ff4cd7d1037ecc61ca5b8b,61036c7aac7ff1e9063ecffc,2021-07-29_23h08.22.501,Simcolourproject_2stim_asymm_v5,2020.2.10,MacIntel,60,61025ae37ef11b136ea224fe,,,,,,,,,1887,-35,-84,1,0,0,response5disk,,3,-16,-5,1,0,0,rectangle,-16,-5,1,0,0,-16,-5,1,0,0,1,122,282,58,1,,,,,,,,
,,,,,,,,,,,,,FF,,,,,,,,0.634,,,,,,,,,,,,,,,,,,,,,,60ff4cd7d1037ecc61ca5b8b,61036c7aac7ff1e9063ecffc,2021-07-29_23h08.22.501,Simcolourproject_2stim_asymm_v5,2020.2.10,MacIntel,60,61025ae37ef11b136ea224fe,,,,,,,,,2354,33,97,1,0,0,response1disk,,7,0,-7,1,0,0,rectangle,0,-7,1,0,0,0,-7,1,0,0,1,123,283,145,1,,,,,,,,
,,,,,,,,,,,,,FF,,,,,,,,1.351,,,,,,,,,,,,,,,,,,,,,,60ff4cd7d1037ecc61ca5b8b,61036c7aac7ff1e9063ecffc,2021-07-29_23h08.22.501,Simcolourproject_2stim_asymm_v5,2020.2.10,MacIntel,60,61025ae37ef11b136ea224fe,,,,,,,,,874,65,-32,1,0,0,response3disk,,5,33,-12,1,0,0,rectangle,33,-12,1,0,0,33,-12,1,0,0,1,124,284,3,1,,,,,,,,
,,,,,,,,,,,,,FF,,,,,,,,0.717,,,,,,,,,,,,,,,,,,,,,,60ff4cd7d1037ecc61ca5b8b,61036c7aac7ff1e9063ecffc,2021-07-29_23h08.22.501,Simcolourproject_2stim_asymm_v5,2020.2.10,MacIntel,60,61025ae37ef11b136ea224fe,,,,,,,,,2433,36,51,1,0,0,response1disk,,7,6,4,1,0,0,rectangle,6,4,1,0,0,6,4,1,0,0,1,125,285,149,1,,,,,,,,
,,,,,,,,,,,,,FF,,,,,,,,0.685,,,,,,,,,,,,,,,,,,,,,,60ff4cd7d1037ecc61ca5b8b,61036c7aac7ff1e9063ecffc,2021-07-29_23h08.22.501,Simcolourproject_2stim_asymm_v5,2020.2.10,MacIntel,60,61025ae37ef11b136ea224fe,,,,,,,,,3408,30,72,1,0,0,response1disk,,7,13,15,1,0,0,rectangle,13,15,1,0,0,13,15,1,0,0,1,126,286,19,1,,,,,,,,
,,,,,,,,,,,,,FF,,,,,,,,0.717,,,,,,,,,,,,,,,,,,,,,,60ff4cd7d1037ecc61ca5b8b,61036c7aac7ff1e9063ecffc,2021-07-29_23h08.22.501,Simcolourproject_2stim_asymm_v5,2020.2.10,MacIntel,60,61025ae37ef11b136ea224fe,,,,,,,,,2877,30,72,1,0,0,response1disk,,7,-4,5,1,0,0,rectangle,-4,5,1,0,0,-4,5,1,0,0,1,127,287,150,1,,,,,,,,
,,,,,,,,,,,,,FF,,,,,,,,0.401,,,,,,,,,,,,,,,,,,,,,,60ff4cd7d1037ecc61ca5b8b,61036c7aac7ff1e9063ecffc,2021-07-29_23h08.22.501,Simcolourproject_2stim_asymm_v5,2020.2.10,MacIntel,60,61025ae37ef11b136ea224fe,,,,,,,,,2150,51,92,1,0,0,response1disk,,7,15,-2,1,0,0,rectangle,15,-2,1,0,0,15,-2,1,0,0,1,128,288,15,1,,,,,,,,
,,,,,,,,,,,,,FF,,,,,,,,0.616,,,,,,,,,,,,,,,,,,,,,,60ff4cd7d1037ecc61ca5b8b,61036c7aac7ff1e9063ecffc,2021-07-29_23h08.22.501,Simcolourproject_2stim_asymm_v5,2020.2.10,MacIntel,60,61025ae37ef11b136ea224fe,,,,,,,,,1337,46,68,1,0,0,response1disk,,7,-8,-3,1,0,0,rectangle,-8,-3,1,0,0,-8,-3,1,0,0,1,129,289,67,1,,,,,,,,
,,,,,,,,,,,,,FF,,,,,,,,1.466,,,,,,,,,,,,,,,,,,,,,,60ff4cd7d1037ecc61ca5b8b,61036c7aac7ff1e9063ecffc,2021-07-29_23h08.22.501,Simcolourproject_2stim_asymm_v5,2020.2.10,MacIntel,60,61025ae37ef11b136ea224fe,,,,,,,,,3755,65,34,1,0,0,response1disk,,6,11,6,1,0,0,rectangle,32,62,1,0,0,-8,-4,1,0,0,1,130,290,55,1,,response1disk_3,TRUE,7,7,"[68,110,99,138,91,198,291,24,30,277,165,194,119,30,56,10,28,185,23,313]",1.649,rectangle
,,,,,,,,,,,,,FF,,,,,,,,0.967,,,,,,,,,,,,,,,,,,,,,,60ff4cd7d1037ecc61ca5b8b,61036c7aac7ff1e9063ecffc,2021-07-29_23h08.22.501,Simcolourproject_2stim_asymm_v5,2020.2.10,MacIntel,60,61025ae37ef11b136ea224fe,,,,,,,,,3712,67,-43,1,0,0,response3disk,,5,24,-9,1,0,0,rectangle,24,-9,1,0,0,24,-9,1,0,0,1,131,291,40,1,,,,,,,,
,,,,,,,,,,,,,FF,,,,,,,,1.518,,,,,,,,,,,,,,,,,,,,,,60ff4cd7d1037ecc61ca5b8b,61036c7aac7ff1e9063ecffc,2021-07-29_23h08.22.501,Simcolourproject_2stim_asymm_v5,2020.2.10,MacIntel,60,61025ae37ef11b136ea224fe,,,,,,,,,1342,76,-47,1,0,0,response3disk,,5,27,-13,1,0,0,rectangle,27,-13,1,0,0,27,-13,1,0,0,1,132,292,87,1,,,,,,,,
,,,,,,,,,,,,,FF,,,,,,,,1.533,,,,,,,,,,,,,,,,,,,,,,60ff4cd7d1037ecc61ca5b8b,61036c7aac7ff1e9063ecffc,2021-07-29_23h08.22.501,Simcolourproject_2stim_asymm_v5,2020.2.10,MacIntel,60,61025ae37ef11b136ea224fe,,,,,,,,,3879,37,78,1,0,0,response1disk,,7,7,10,1,0,0,rectangle,7,10,1,0,0,7,10,1,0,0,1,133,293,18,1,,,,,,,,
,,,,,,,,,,,,,FF,,,,,,,,3.034,,,,,,,,,,,,,,,,,,,,,,60ff4cd7d1037ecc61ca5b8b,61036c7aac7ff1e9063ecffc,2021-07-29_23h08.22.501,Simcolourproject_2stim_asymm_v5,2020.2.10,MacIntel,60,61025ae37ef11b136ea224fe,,,,,,,,,1948,63,34,1,0,0,response1disk,,6,12,0,1,0,0,rectangle,12,0,1,0,0,12,0,1,0,0,1,134,294,144,1,,,,,,,,
,,,,,,,,,,,,,FF,,,,,,,,0.851,,,,,,,,,,,,,,,,,,,,,,60ff4cd7d1037ecc61ca5b8b,61036c7aac7ff1e9063ecffc,2021-07-29_23h08.22.501,Simcolourproject_2stim_asymm_v5,2020.2.10,MacIntel,60,61025ae37ef11b136ea224fe,,,,,,,,,1021,43,85,1,0,0,response1disk,,7,5,6,1,0,0,rectangle,5,6,1,0,0,5,6,1,0,0,1,135,295,113,1,,,,,,,,
,,,,,,,,,,,,,FF,,,,,,,,0.533,,,,,,,,,,,,,,,,,,,,,,60ff4cd7d1037ecc61ca5b8b,61036c7aac7ff1e9063ecffc,2021-07-29_23h08.22.501,Simcolourproject_2stim_asymm_v5,2020.2.10,MacIntel,60,61025ae37ef11b136ea224fe,,,,,,,,,2449,29,70,1,0,0,response1disk,,7,25,14,1,0,0,rectangle,25,14,1,0,0,25,14,1,0,0,1,136,296,50,1,,,,,,,,
,,,,,,,,,,,,,FF,,,,,,,,0.334,,,,,,,,,,,,,,,,,,,,,,60ff4cd7d1037ecc61ca5b8b,61036c7aac7ff1e9063ecffc,2021-07-29_23h08.22.501,Simcolourproject_2stim_asymm_v5,2020.2.10,MacIntel,60,61025ae37ef11b136ea224fe,,,,,,,,,3008,52,90,1,0,0,response1disk,,7,1,-15,1,0,0,rectangle,1,-15,1,0,0,1,-15,1,0,0,1,137,297,97,1,,,,,,,,
,,,,,,,,,,,,,FF,,,,,,,,0.383,,,,,,,,,,,,,,,,,,,,,,60ff4cd7d1037ecc61ca5b8b,61036c7aac7ff1e9063ecffc,2021-07-29_23h08.22.501,Simcolourproject_2stim_asymm_v5,2020.2.10,MacIntel,60,61025ae37ef11b136ea224fe,,,,,,,,,1988,30,73,1,0,0,response1disk,,7,14,-3,1,0,0,rectangle,14,-3,1,0,0,14,-3,1,0,0,1,138,298,132,1,,,,,,,,
,,,,,,,,,,,,,FF,,,,,,,,1,,,,,,,,,,,,,,,,,,,,,,60ff4cd7d1037ecc61ca5b8b,61036c7aac7ff1e9063ecffc,2021-07-29_23h08.22.501,Simcolourproject_2stim_asymm_v5,2020.2.10,MacIntel,60,61025ae37ef11b136ea224fe,,,,,,,,,908,41,35,1,0,0,response1disk,,6,16,9,1,0,0,rectangle,16,9,1,0,0,16,9,1,0,0,1,139,299,2,1,,,,,,,,
,,,,,,,,,,,,,FF,,,,,,,,0.467,,,,,,,,,,,,,,,,,,,,,,60ff4cd7d1037ecc61ca5b8b,61036c7aac7ff1e9063ecffc,2021-07-29_23h08.22.501,Simcolourproject_2stim_asymm_v5,2020.2.10,MacIntel,60,61025ae37ef11b136ea224fe,,,,,,,,,3885,39,86,1,0,0,response1disk,,7,18,-12,1,0,0,rectangle,18,-12,1,0,0,18,-12,1,0,0,1,140,300,28,1,,,,,,,,
,,,,,,,,,,,,,FF,,,,,,,,0.9,,,,,,,,,,,,,,,,,,,,,,60ff4cd7d1037ecc61ca5b8b,61036c7aac7ff1e9063ecffc,2021-07-29_23h08.22.501,Simcolourproject_2stim_asymm_v5,2020.2.10,MacIntel,60,61025ae37ef11b136ea224fe,,,,,,,,,4122,53,-39,1,0,0,response3disk,,5,16,-1,1,0,0,rectangle,16,-1,1,0,0,16,-1,1,0,0,1,141,301,133,1,,,,,,,,
