key_resp.keys,key_resp.rt,key_resp_14.keys,key_resp_14.rt,key_resp_15.keys,key_resp_15.rt,key_resp_17.keys,key_resp_17.rt,key_resp_9.keys,key_resp_9.rt,key_resp_10.keys,key_resp_10.rt,practice_comparison,Ecc,mouse_5.x,mouse_5.y,mouse_5.leftButton,mouse_5.midButton,mouse_5.rightButton,mouse_5.clicked_name,pracsimilarity,response_time,mouse_10.x,mouse_10.y,mouse_10.leftButton,mouse_10.midButton,mouse_10.rightButton,mouse_10.clicked_name,mouse_7.x,mouse_7.y,mouse_7.leftButton,mouse_7.midButton,mouse_7.rightButton,mouse_6.x,mouse_6.y,mouse_6.leftButton,mouse_6.midButton,mouse_6.rightButton,duringprac.thisRepN,duringprac.thisTrialN,duringprac.thisN,duringprac.thisIndex,duringprac.ran,participant,session,date,expName,psychopyVersion,OS,frameRate,study_id,mouse_7.clicked_name,catchpracsimilarity,catch_response_time,catchnumberprac,catchtrialorderprac,mouse_6.clicked_name,key_resp_22.keys,key_resp_22.rt,realcomparison,mouse.x,mouse.y,mouse.leftButton,mouse.midButton,mouse.rightButton,mouse.clicked_name,Colour2,similarity,mouse_2.x,mouse_2.y,mouse_2.leftButton,mouse_2.midButton,mouse_2.rightButton,mouse_2.clicked_name,mouse_3.x,mouse_3.y,mouse_3.leftButton,mouse_3.midButton,mouse_3.rightButton,mouse_11.x,mouse_11.y,mouse_11.leftButton,mouse_11.midButton,mouse_11.rightButton,trials_2.thisRepN,trials_2.thisTrialN,trials_2.thisN,trials_2.thisIndex,trials_2.ran,Colour1,mouse_3.clicked_name,catchornah,catchsimilarity,catchnumber,catchtrialorder,catchRT,mouse_11.clicked_name
space,12.1612,space,23.3876,space,22.1672,space,8.8374,space,4.7367,space,3.7578,155,PF,76,-41,1,0,0,response3disk_5,5,7.5539,-14,-3,1,0,0,rectangle_8,-14,-3,1,0,0,-14,-3,1,0,0,0,0,0,2,1,60ff14561039e939a18f144d,61036966e86cce9c8acb7dcb,2021-07-29_22h53.13.922,Simcolourproject_2stim_asymm_v5,2020.2.10,Linux x86_64,60,61025ae37ef11b136ea224fe,,,,,,,,,,,,,,,,,,,,,,,,,,,,,,,,,,,,,,,,,,,,,,
,,,,,,,,,,,,47,FF,-32,68,1,0,0,response7disk_5,0,5.7962,-4,0,1,0,0,rectangle_8,84,31,1,0,0,14,-2,1,0,0,0,1,1,5,1,60ff14561039e939a18f144d,61036966e86cce9c8acb7dcb,2021-07-29_22h53.13.922,Simcolourproject_2stim_asymm_v5,2020.2.10,Linux x86_64,60,61025ae37ef11b136ea224fe,response1disk_7,6,5.2146,6,"[2,5]",rectangle_4,,,,,,,,,,,,,,,,,,,,,,,,,,,,,,,,,,,,,,,,
,,,,,,,,,,,,151,FF,73,-54,1,0,0,response3disk_5,5,5.7955,-7,1,1,0,0,rectangle_8,-7,1,1,0,0,-7,1,1,0,0,0,2,2,0,1,60ff14561039e939a18f144d,61036966e86cce9c8acb7dcb,2021-07-29_22h53.13.922,Simcolourproject_2stim_asymm_v5,2020.2.10,Linux x86_64,60,61025ae37ef11b136ea224fe,,,,,,,,,,,,,,,,,,,,,,,,,,,,,,,,,,,,,,,,,,,,,,
,,,,,,,,,,,,13,FF,44,-106,1,0,0,response3disk_5,4,3.1475,10,-4,1,0,0,rectangle_8,10,-4,1,0,0,10,-4,1,0,0,0,3,3,3,1,60ff14561039e939a18f144d,61036966e86cce9c8acb7dcb,2021-07-29_22h53.13.922,Simcolourproject_2stim_asymm_v5,2020.2.10,Linux x86_64,60,61025ae37ef11b136ea224fe,,,,,,,,,,,,,,,,,,,,,,,,,,,,,,,,,,,,,,,,,,,,,,
,,,,,,,,,,,,132,PF,56,-79,1,0,0,response3disk_5,4,4.8963,-21,-5,1,0,0,rectangle_8,113,45,1,0,0,-12,-2,1,0,0,0,4,4,1,1,60ff14561039e939a18f144d,61036966e86cce9c8acb7dcb,2021-07-29_22h53.13.922,Simcolourproject_2stim_asymm_v5,2020.2.10,Linux x86_64,60,61025ae37ef11b136ea224fe,response1disk_7,6,2.6666,6,"[2,5]",rectangle_4,,,,,,,,,,,,,,,,,,,,,,,,,,,,,,,,,,,,,,,,
,,,,,,,,,,,,63,PF,89,-58,1,0,0,response3disk_5,5,2.4485,-3,4,1,0,0,rectangle_8,-3,4,1,0,0,-3,4,1,0,0,0,5,5,4,1,60ff14561039e939a18f144d,61036966e86cce9c8acb7dcb,2021-07-29_22h53.13.922,Simcolourproject_2stim_asymm_v5,2020.2.10,Linux x86_64,60,61025ae37ef11b136ea224fe,,,,,,,,,,,,,,,,,,,,,,,,,,,,,,,,,,,,,,,,,,,,,,
,,,,,,,,,,,,55,PF,-32,80,1,0,0,response7disk_5,0,1.7654,-4,-2,1,0,0,rectangle_8,-4,-2,1,0,0,-4,-2,1,0,0,0,6,6,6,1,60ff14561039e939a18f144d,61036966e86cce9c8acb7dcb,2021-07-29_22h53.13.922,Simcolourproject_2stim_asymm_v5,2020.2.10,Linux x86_64,60,61025ae37ef11b136ea224fe,,,,,,,,,,,,,,,,,,,,,,,,,,,,,,,,,,,,,,,,,,,,,,
,,,,,,,,,,,,,FF,,,,,,,,3.8817,,,,,,,,,,,,,,,,,,,,,,60ff14561039e939a18f144d,61036966e86cce9c8acb7dcb,2021-07-29_22h53.13.922,Simcolourproject_2stim_asymm_v5,2020.2.10,Linux x86_64,60,61025ae37ef11b136ea224fe,,,,,,,space,21.1319,563,-57,-90,1,0,0,response5disk,,3,15,7,1,0,0,rectangle,15,7,1,0,0,15,7,1,0,0,0,0,0,134,1,,,,,,,,
,,,,,,,,,,,,,FF,,,,,,,,1.6153,,,,,,,,,,,,,,,,,,,,,,60ff14561039e939a18f144d,61036966e86cce9c8acb7dcb,2021-07-29_22h53.13.922,Simcolourproject_2stim_asymm_v5,2020.2.10,Linux x86_64,60,61025ae37ef11b136ea224fe,,,,,,,,,1287,-85,-41,1,0,0,response5disk,,2,5,-3,1,0,0,rectangle,5,-3,1,0,0,5,-3,1,0,0,0,1,1,24,1,,,,,,,,
,,,,,,,,,,,,,FF,,,,,,,,1.4325,,,,,,,,,,,,,,,,,,,,,,60ff14561039e939a18f144d,61036966e86cce9c8acb7dcb,2021-07-29_22h53.13.922,Simcolourproject_2stim_asymm_v5,2020.2.10,Linux x86_64,60,61025ae37ef11b136ea224fe,,,,,,,,,4276,81,-43,1,0,0,response3disk,,5,7,-8,1,0,0,rectangle,7,-8,1,0,0,7,-8,1,0,0,0,2,2,153,1,,,,,,,,
,,,,,,,,,,,,,FF,,,,,,,,16.205,,,,,,,,,,,,,,,,,,,,,,60ff14561039e939a18f144d,61036966e86cce9c8acb7dcb,2021-07-29_22h53.13.922,Simcolourproject_2stim_asymm_v5,2020.2.10,Linux x86_64,60,61025ae37ef11b136ea224fe,,,,,,,,,3625,-47,-84,1,0,0,response5disk,,3,3,3,1,0,0,rectangle,3,3,1,0,0,3,3,1,0,0,0,3,3,154,1,,,,,,,,
,,,,,,,,,,,,,FF,,,,,,,,5.6452,,,,,,,,,,,,,,,,,,,,,,60ff14561039e939a18f144d,61036966e86cce9c8acb7dcb,2021-07-29_22h53.13.922,Simcolourproject_2stim_asymm_v5,2020.2.10,Linux x86_64,60,61025ae37ef11b136ea224fe,,,,,,,,,107,-37,-70,1,0,0,response5disk,,3,11,1,1,0,0,rectangle,11,1,1,0,0,11,1,1,0,0,0,4,4,16,1,,,,,,,,
,,,,,,,,,,,,,FF,,,,,,,,1.0157,,,,,,,,,,,,,,,,,,,,,,60ff14561039e939a18f144d,61036966e86cce9c8acb7dcb,2021-07-29_22h53.13.922,Simcolourproject_2stim_asymm_v5,2020.2.10,Linux x86_64,60,61025ae37ef11b136ea224fe,,,,,,,,,276,-36,95,1,0,0,response7disk,,0,-1,0,1,0,0,rectangle,-1,0,1,0,0,-1,0,1,0,0,0,5,5,151,1,,,,,,,,
,,,,,,,,,,,,,FF,,,,,,,,1.1827,,,,,,,,,,,,,,,,,,,,,,60ff14561039e939a18f144d,61036966e86cce9c8acb7dcb,2021-07-29_22h53.13.922,Simcolourproject_2stim_asymm_v5,2020.2.10,Linux x86_64,60,61025ae37ef11b136ea224fe,,,,,,,,,1303,-41,-100,1,0,0,response5disk,,3,-5,5,1,0,0,rectangle,-5,5,1,0,0,-5,5,1,0,0,0,6,6,32,1,,,,,,,,
,,,,,,,,,,,,,FF,,,,,,,,1.5655,,,,,,,,,,,,,,,,,,,,,,60ff14561039e939a18f144d,61036966e86cce9c8acb7dcb,2021-07-29_22h53.13.922,Simcolourproject_2stim_asymm_v5,2020.2.10,Linux x86_64,60,61025ae37ef11b136ea224fe,,,,,,,,,496,94,31,1,0,0,response1disk,,6,7,-2,1,0,0,rectangle,7,-2,1,0,0,7,-2,1,0,0,0,7,7,37,1,,,,,,,,
,,,,,,,,,,,,,FF,,,,,,,,1.2827,,,,,,,,,,,,,,,,,,,,,,60ff14561039e939a18f144d,61036966e86cce9c8acb7dcb,2021-07-29_22h53.13.922,Simcolourproject_2stim_asymm_v5,2020.2.10,Linux x86_64,60,61025ae37ef11b136ea224fe,,,,,,,,,1554,99,38,1,0,0,response1disk,,6,3,-2,1,0,0,rectangle,3,-2,1,0,0,3,-2,1,0,0,0,8,8,112,1,,,,,,,,
,,,,,,,,,,,,,FF,,,,,,,,2.1162,,,,,,,,,,,,,,,,,,,,,,60ff14561039e939a18f144d,61036966e86cce9c8acb7dcb,2021-07-29_22h53.13.922,Simcolourproject_2stim_asymm_v5,2020.2.10,Linux x86_64,60,61025ae37ef11b136ea224fe,,,,,,,,,2375,42,78,1,0,0,response1disk,,7,-8,-7,1,0,0,rectangle,-8,-7,1,0,0,-8,-7,1,0,0,0,9,9,29,1,,,,,,,,
,,,,,,,,,,,,,FF,,,,,,,,1.0488,,,,,,,,,,,,,,,,,,,,,,60ff14561039e939a18f144d,61036966e86cce9c8acb7dcb,2021-07-29_22h53.13.922,Simcolourproject_2stim_asymm_v5,2020.2.10,Linux x86_64,60,61025ae37ef11b136ea224fe,,,,,,,,,1007,60,37,1,0,0,response1disk,,6,16,-1,1,0,0,rectangle,16,-1,1,0,0,16,-1,1,0,0,0,10,10,51,1,,,,,,,,
,,,,,,,,,,,,,FF,,,,,,,,1.5157,,,,,,,,,,,,,,,,,,,,,,60ff14561039e939a18f144d,61036966e86cce9c8acb7dcb,2021-07-29_22h53.13.922,Simcolourproject_2stim_asymm_v5,2020.2.10,Linux x86_64,60,61025ae37ef11b136ea224fe,,,,,,,,,3238,-69,-98,1,0,0,response5disk,,3,1,0,1,0,0,rectangle,1,0,1,0,0,1,0,1,0,0,0,11,11,50,1,,,,,,,,
,,,,,,,,,,,,,FF,,,,,,,,0.9993,,,,,,,,,,,,,,,,,,,,,,60ff14561039e939a18f144d,61036966e86cce9c8acb7dcb,2021-07-29_22h53.13.922,Simcolourproject_2stim_asymm_v5,2020.2.10,Linux x86_64,60,61025ae37ef11b136ea224fe,,,,,,,,,4055,86,59,1,0,0,response1disk,,6,3,12,1,0,0,rectangle,3,12,1,0,0,3,12,1,0,0,0,12,12,7,1,,,,,,,,
,,,,,,,,,,,,,FF,,,,,,,,1.6984,,,,,,,,,,,,,,,,,,,,,,60ff14561039e939a18f144d,61036966e86cce9c8acb7dcb,2021-07-29_22h53.13.922,Simcolourproject_2stim_asymm_v5,2020.2.10,Linux x86_64,60,61025ae37ef11b136ea224fe,,,,,,,,,208,44,-87,1,0,0,response3disk,,4,5,-2,1,0,0,rectangle,5,-2,1,0,0,5,-2,1,0,0,0,13,13,94,1,,,,,,,,
,,,,,,,,,,,,,FF,,,,,,,,2.4179,,,,,,,,,,,,,,,,,,,,,,60ff14561039e939a18f144d,61036966e86cce9c8acb7dcb,2021-07-29_22h53.13.922,Simcolourproject_2stim_asymm_v5,2020.2.10,Linux x86_64,60,61025ae37ef11b136ea224fe,,,,,,,,,3152,-36,-74,1,0,0,response5disk,,3,-14,12,1,0,0,rectangle,-14,12,1,0,0,-14,12,1,0,0,0,14,14,88,1,,,,,,,,
,,,,,,,,,,,,,FF,,,,,,,,1.8818,,,,,,,,,,,,,,,,,,,,,,60ff14561039e939a18f144d,61036966e86cce9c8acb7dcb,2021-07-29_22h53.13.922,Simcolourproject_2stim_asymm_v5,2020.2.10,Linux x86_64,60,61025ae37ef11b136ea224fe,,,,,,,,,2897,97,-41,1,0,0,response3disk,,5,0,3,1,0,0,rectangle,0,3,1,0,0,0,3,1,0,0,0,15,15,141,1,,,,,,,,
,,,,,,,,,,,,,FF,,,,,,,,1.199,,,,,,,,,,,,,,,,,,,,,,60ff14561039e939a18f144d,61036966e86cce9c8acb7dcb,2021-07-29_22h53.13.922,Simcolourproject_2stim_asymm_v5,2020.2.10,Linux x86_64,60,61025ae37ef11b136ea224fe,,,,,,,,,3693,45,87,1,0,0,response1disk,,7,-19,7,1,0,0,rectangle,-19,7,1,0,0,-19,7,1,0,0,0,16,16,109,1,,,,,,,,
,,,,,,,,,,,,,FF,,,,,,,,15.7055,,,,,,,,,,,,,,,,,,,,,,60ff14561039e939a18f144d,61036966e86cce9c8acb7dcb,2021-07-29_22h53.13.922,Simcolourproject_2stim_asymm_v5,2020.2.10,Linux x86_64,60,61025ae37ef11b136ea224fe,,,,,,,,,2569,41,-93,1,0,0,response3disk,,4,-16,0,1,0,0,rectangle,-16,0,1,0,0,-16,0,1,0,0,0,17,17,35,1,,,,,,,,
,,,,,,,,,,,,,FF,,,,,,,,1.4488,,,,,,,,,,,,,,,,,,,,,,60ff14561039e939a18f144d,61036966e86cce9c8acb7dcb,2021-07-29_22h53.13.922,Simcolourproject_2stim_asymm_v5,2020.2.10,Linux x86_64,60,61025ae37ef11b136ea224fe,,,,,,,,,2906,62,80,1,0,0,response1disk,,7,18,-6,1,0,0,rectangle,18,-6,1,0,0,18,-6,1,0,0,0,18,18,121,1,,,,,,,,
,,,,,,,,,,,,,FF,,,,,,,,1.2159,,,,,,,,,,,,,,,,,,,,,,60ff14561039e939a18f144d,61036966e86cce9c8acb7dcb,2021-07-29_22h53.13.922,Simcolourproject_2stim_asymm_v5,2020.2.10,Linux x86_64,60,61025ae37ef11b136ea224fe,,,,,,,,,404,45,74,1,0,0,response1disk,,7,5,2,1,0,0,rectangle,5,2,1,0,0,5,2,1,0,0,0,19,19,14,1,,,,,,,,
,,,,,,,,,,,,,FF,,,,,,,,2.6159,,,,,,,,,,,,,,,,,,,,,,60ff14561039e939a18f144d,61036966e86cce9c8acb7dcb,2021-07-29_22h53.13.922,Simcolourproject_2stim_asymm_v5,2020.2.10,Linux x86_64,60,61025ae37ef11b136ea224fe,,,,,,,,,2029,-32,-85,1,0,0,response5disk,,3,2,2,1,0,0,rectangle,2,2,1,0,0,2,2,1,0,0,0,20,20,97,1,,,,,,,,
,,,,,,,,,,,,,FF,,,,,,,,2.6159,,,,,,,,,,,,,,,,,,,,,,60ff14561039e939a18f144d,61036966e86cce9c8acb7dcb,2021-07-29_22h53.13.922,Simcolourproject_2stim_asymm_v5,2020.2.10,Linux x86_64,60,61025ae37ef11b136ea224fe,,,,,,,,,2106,-51,-94,1,0,0,response5disk,,3,-5,1,1,0,0,rectangle,-5,1,1,0,0,-5,1,1,0,0,0,21,21,136,1,,,,,,,,
,,,,,,,,,,,,,FF,,,,,,,,1.3988,,,,,,,,,,,,,,,,,,,,,,60ff14561039e939a18f144d,61036966e86cce9c8acb7dcb,2021-07-29_22h53.13.922,Simcolourproject_2stim_asymm_v5,2020.2.10,Linux x86_64,60,61025ae37ef11b136ea224fe,,,,,,,,,2385,79,52,1,0,0,response1disk,,6,2,-5,1,0,0,rectangle,2,-5,1,0,0,2,-5,1,0,0,0,22,22,85,1,,,,,,,,
,,,,,,,,,,,,,FF,,,,,,,,0.9158,,,,,,,,,,,,,,,,,,,,,,60ff14561039e939a18f144d,61036966e86cce9c8acb7dcb,2021-07-29_22h53.13.922,Simcolourproject_2stim_asymm_v5,2020.2.10,Linux x86_64,60,61025ae37ef11b136ea224fe,,,,,,,,,333,27,72,1,0,0,response1disk,,7,-18,-9,1,0,0,rectangle,-18,-9,1,0,0,-18,-9,1,0,0,0,23,23,135,1,,,,,,,,
,,,,,,,,,,,,,FF,,,,,,,,1.5328,,,,,,,,,,,,,,,,,,,,,,60ff14561039e939a18f144d,61036966e86cce9c8acb7dcb,2021-07-29_22h53.13.922,Simcolourproject_2stim_asymm_v5,2020.2.10,Linux x86_64,60,61025ae37ef11b136ea224fe,,,,,,,,,869,43,-88,1,0,0,response3disk,,4,11,-6,1,0,0,rectangle,11,-6,1,0,0,11,-6,1,0,0,0,24,24,66,1,,,,,,,,
,,,,,,,,,,,,,FF,,,,,,,,1.6822,,,,,,,,,,,,,,,,,,,,,,60ff14561039e939a18f144d,61036966e86cce9c8acb7dcb,2021-07-29_22h53.13.922,Simcolourproject_2stim_asymm_v5,2020.2.10,Linux x86_64,60,61025ae37ef11b136ea224fe,,,,,,,,,1954,-68,-39,1,0,0,response5disk,,2,-1,-1,1,0,0,rectangle,-1,-1,1,0,0,-1,-1,1,0,0,0,25,25,98,1,,,,,,,,
,,,,,,,,,,,,,FF,,,,,,,,0.801,,,,,,,,,,,,,,,,,,,,,,60ff14561039e939a18f144d,61036966e86cce9c8acb7dcb,2021-07-29_22h53.13.922,Simcolourproject_2stim_asymm_v5,2020.2.10,Linux x86_64,60,61025ae37ef11b136ea224fe,,,,,,,,,2624,21,67,1,0,0,response1disk,,7,-4,4,1,0,0,rectangle,-4,4,1,0,0,-4,4,1,0,0,0,26,26,120,1,,,,,,,,
,,,,,,,,,,,,,FF,,,,,,,,1.4325,,,,,,,,,,,,,,,,,,,,,,60ff14561039e939a18f144d,61036966e86cce9c8acb7dcb,2021-07-29_22h53.13.922,Simcolourproject_2stim_asymm_v5,2020.2.10,Linux x86_64,60,61025ae37ef11b136ea224fe,,,,,,,,,4145,-41,94,1,0,0,response7disk,,0,-7,10,1,0,0,rectangle,-7,10,1,0,0,-7,10,1,0,0,0,27,27,142,1,,,,,,,,
,,,,,,,,,,,,,FF,,,,,,,,0.9664,,,,,,,,,,,,,,,,,,,,,,60ff14561039e939a18f144d,61036966e86cce9c8acb7dcb,2021-07-29_22h53.13.922,Simcolourproject_2stim_asymm_v5,2020.2.10,Linux x86_64,60,61025ae37ef11b136ea224fe,,,,,,,,,357,43,97,1,0,0,response1disk,,7,-3,-1,1,0,0,rectangle,-3,-1,1,0,0,-3,-1,1,0,0,0,28,28,42,1,,,,,,,,
,,,,,,,,,,,,,FF,,,,,,,,5.7128,,,,,,,,,,,,,,,,,,,,,,60ff14561039e939a18f144d,61036966e86cce9c8acb7dcb,2021-07-29_22h53.13.922,Simcolourproject_2stim_asymm_v5,2020.2.10,Linux x86_64,60,61025ae37ef11b136ea224fe,,,,,,,,,988,38,-70,1,0,0,response3disk,,4,-8,-4,1,0,0,rectangle,-33,-88,1,0,0,-9,0,1,0,0,0,29,29,44,1,,response5disk_3,TRUE,3,3,"[128,293,30,37,315,77,246,286,129,115,203,212,54,164,195,231,38,47,171,130]",3.4151,rectangle
,,,,,,,,,,,,,FF,,,,,,,,1.0491,,,,,,,,,,,,,,,,,,,,,,60ff14561039e939a18f144d,61036966e86cce9c8acb7dcb,2021-07-29_22h53.13.922,Simcolourproject_2stim_asymm_v5,2020.2.10,Linux x86_64,60,61025ae37ef11b136ea224fe,,,,,,,,,4305,-42,92,1,0,0,response7disk,,0,-7,-5,1,0,0,rectangle,-7,-5,1,0,0,-7,-5,1,0,0,0,30,30,144,1,,,,,,,,
,,,,,,,,,,,,,FF,,,,,,,,1.3158,,,,,,,,,,,,,,,,,,,,,,60ff14561039e939a18f144d,61036966e86cce9c8acb7dcb,2021-07-29_22h53.13.922,Simcolourproject_2stim_asymm_v5,2020.2.10,Linux x86_64,60,61025ae37ef11b136ea224fe,,,,,,,,,994,-84,-48,1,0,0,response5disk,,2,-6,4,1,0,0,rectangle,-6,4,1,0,0,-6,4,1,0,0,0,31,31,93,1,,,,,,,,
,,,,,,,,,,,,,FF,,,,,,,,0.9526,,,,,,,,,,,,,,,,,,,,,,60ff14561039e939a18f144d,61036966e86cce9c8acb7dcb,2021-07-29_22h53.13.922,Simcolourproject_2stim_asymm_v5,2020.2.10,Linux x86_64,60,61025ae37ef11b136ea224fe,,,,,,,,,2558,48,88,1,0,0,response1disk,,7,1,-15,1,0,0,rectangle,1,-15,1,0,0,1,-15,1,0,0,0,32,32,133,1,,,,,,,,
,,,,,,,,,,,,,FF,,,,,,,,0.8663,,,,,,,,,,,,,,,,,,,,,,60ff14561039e939a18f144d,61036966e86cce9c8acb7dcb,2021-07-29_22h53.13.922,Simcolourproject_2stim_asymm_v5,2020.2.10,Linux x86_64,60,61025ae37ef11b136ea224fe,,,,,,,,,1714,39,72,1,0,0,response1disk,,7,-2,-6,1,0,0,rectangle,-2,-6,1,0,0,-2,-6,1,0,0,0,33,33,48,1,,,,,,,,
,,,,,,,,,,,,,FF,,,,,,,,2.6981,,,,,,,,,,,,,,,,,,,,,,60ff14561039e939a18f144d,61036966e86cce9c8acb7dcb,2021-07-29_22h53.13.922,Simcolourproject_2stim_asymm_v5,2020.2.10,Linux x86_64,60,61025ae37ef11b136ea224fe,,,,,,,,,3617,59,84,1,0,0,response1disk,,7,-12,-5,1,0,0,rectangle,-12,-5,1,0,0,-12,-5,1,0,0,0,34,34,131,1,,,,,,,,
,,,,,,,,,,,,,FF,,,,,,,,1.9655,,,,,,,,,,,,,,,,,,,,,,60ff14561039e939a18f144d,61036966e86cce9c8acb7dcb,2021-07-29_22h53.13.922,Simcolourproject_2stim_asymm_v5,2020.2.10,Linux x86_64,60,61025ae37ef11b136ea224fe,,,,,,,,,2376,97,-45,1,0,0,response3disk,,5,28,-8,1,0,0,rectangle,28,-8,1,0,0,28,-8,1,0,0,0,35,35,26,1,,,,,,,,
,,,,,,,,,,,,,FF,,,,,,,,0.8999,,,,,,,,,,,,,,,,,,,,,,60ff14561039e939a18f144d,61036966e86cce9c8acb7dcb,2021-07-29_22h53.13.922,Simcolourproject_2stim_asymm_v5,2020.2.10,Linux x86_64,60,61025ae37ef11b136ea224fe,,,,,,,,,2135,49,64,1,0,0,response1disk,,7,14,-1,1,0,0,rectangle,46,-106,1,0,0,-9,6,1,0,0,0,36,36,80,1,,response3disk_3,TRUE,4,4,"[128,293,30,37,315,77,246,286,129,115,203,212,54,164,195,231,38,47,171,130]",3.7314,rectangle
,,,,,,,,,,,,,FF,,,,,,,,0.9322,,,,,,,,,,,,,,,,,,,,,,60ff14561039e939a18f144d,61036966e86cce9c8acb7dcb,2021-07-29_22h53.13.922,Simcolourproject_2stim_asymm_v5,2020.2.10,Linux x86_64,60,61025ae37ef11b136ea224fe,,,,,,,,,4362,-39,63,1,0,0,response7disk,,0,-3,-14,1,0,0,rectangle,96,-22,1,0,0,-6,15,1,0,0,0,37,37,36,1,,response3disk_3,TRUE,5,5,"[128,293,30,37,315,77,246,286,129,115,203,212,54,164,195,231,38,47,171,130]",1.948,rectangle
,,,,,,,,,,,,,FF,,,,,,,,1.2495,,,,,,,,,,,,,,,,,,,,,,60ff14561039e939a18f144d,61036966e86cce9c8acb7dcb,2021-07-29_22h53.13.922,Simcolourproject_2stim_asymm_v5,2020.2.10,Linux x86_64,60,61025ae37ef11b136ea224fe,,,,,,,,,793,90,44,1,0,0,response1disk,,6,-13,-11,1,0,0,rectangle,-13,-11,1,0,0,-13,-11,1,0,0,0,38,38,71,1,,,,,,,,
,,,,,,,,,,,,,FF,,,,,,,,1.7486,,,,,,,,,,,,,,,,,,,,,,60ff14561039e939a18f144d,61036966e86cce9c8acb7dcb,2021-07-29_22h53.13.922,Simcolourproject_2stim_asymm_v5,2020.2.10,Linux x86_64,60,61025ae37ef11b136ea224fe,,,,,,,,,1238,54,67,1,0,0,response1disk,,7,12,-8,1,0,0,rectangle,12,-8,1,0,0,12,-8,1,0,0,0,39,39,15,1,,,,,,,,
,,,,,,,,,,,,,FF,,,,,,,,2.199,,,,,,,,,,,,,,,,,,,,,,60ff14561039e939a18f144d,61036966e86cce9c8acb7dcb,2021-07-29_22h53.13.922,Simcolourproject_2stim_asymm_v5,2020.2.10,Linux x86_64,60,61025ae37ef11b136ea224fe,,,,,,,,,3037,-73,34,1,0,0,response7disk,,1,-2,-2,1,0,0,rectangle,-2,-2,1,0,0,-2,-2,1,0,0,0,40,40,104,1,,,,,,,,
,,,,,,,,,,,,,FF,,,,,,,,1.3502,,,,,,,,,,,,,,,,,,,,,,60ff14561039e939a18f144d,61036966e86cce9c8acb7dcb,2021-07-29_22h53.13.922,Simcolourproject_2stim_asymm_v5,2020.2.10,Linux x86_64,60,61025ae37ef11b136ea224fe,,,,,,,,,2535,-29,-72,1,0,0,response5disk,,3,-2,9,1,0,0,rectangle,-2,9,1,0,0,-2,9,1,0,0,0,41,41,25,1,,,,,,,,
,,,,,,,,,,,,,FF,,,,,,,,1.9663,,,,,,,,,,,,,,,,,,,,,,60ff14561039e939a18f144d,61036966e86cce9c8acb7dcb,2021-07-29_22h53.13.922,Simcolourproject_2stim_asymm_v5,2020.2.10,Linux x86_64,60,61025ae37ef11b136ea224fe,,,,,,,,,1586,52,94,1,0,0,response1disk,,7,-14,9,1,0,0,rectangle,-14,9,1,0,0,-14,9,1,0,0,0,42,42,129,1,,,,,,,,
,,,,,,,,,,,,,FF,,,,,,,,1.1341,,,,,,,,,,,,,,,,,,,,,,60ff14561039e939a18f144d,61036966e86cce9c8acb7dcb,2021-07-29_22h53.13.922,Simcolourproject_2stim_asymm_v5,2020.2.10,Linux x86_64,60,61025ae37ef11b136ea224fe,,,,,,,,,642,57,41,1,0,0,response1disk,,6,6,-7,1,0,0,rectangle,6,-7,1,0,0,6,-7,1,0,0,0,43,43,62,1,,,,,,,,
,,,,,,,,,,,,,FF,,,,,,,,1.3476,,,,,,,,,,,,,,,,,,,,,,60ff14561039e939a18f144d,61036966e86cce9c8acb7dcb,2021-07-29_22h53.13.922,Simcolourproject_2stim_asymm_v5,2020.2.10,Linux x86_64,60,61025ae37ef11b136ea224fe,,,,,,,,,188,40,-92,1,0,0,response3disk,,4,-11,6,1,0,0,rectangle,-11,6,1,0,0,-11,6,1,0,0,0,44,44,105,1,,,,,,,,
,,,,,,,,,,,,,FF,,,,,,,,2.1845,,,,,,,,,,,,,,,,,,,,,,60ff14561039e939a18f144d,61036966e86cce9c8acb7dcb,2021-07-29_22h53.13.922,Simcolourproject_2stim_asymm_v5,2020.2.10,Linux x86_64,60,61025ae37ef11b136ea224fe,,,,,,,,,722,73,41,1,0,0,response1disk,,6,0,-8,1,0,0,rectangle,0,-8,1,0,0,0,-8,1,0,0,0,45,45,96,1,,,,,,,,
,,,,,,,,,,,,,FF,,,,,,,,0.9324,,,,,,,,,,,,,,,,,,,,,,60ff14561039e939a18f144d,61036966e86cce9c8acb7dcb,2021-07-29_22h53.13.922,Simcolourproject_2stim_asymm_v5,2020.2.10,Linux x86_64,60,61025ae37ef11b136ea224fe,,,,,,,,,428,33,84,1,0,0,response1disk,,7,9,11,1,0,0,rectangle,59,-93,1,0,0,23,3,1,0,0,0,46,46,79,1,,response3disk_3,TRUE,4,4,"[128,293,30,37,315,77,246,286,129,115,203,212,54,164,195,231,38,47,171,130]",2.3832,rectangle
,,,,,,,,,,,,,FF,,,,,,,,0.9162,,,,,,,,,,,,,,,,,,,,,,60ff14561039e939a18f144d,61036966e86cce9c8acb7dcb,2021-07-29_22h53.13.922,Simcolourproject_2stim_asymm_v5,2020.2.10,Linux x86_64,60,61025ae37ef11b136ea224fe,,,,,,,,,433,59,30,1,0,0,response1disk,,6,-2,1,1,0,0,rectangle,-2,1,1,0,0,-2,1,1,0,0,0,47,47,75,1,,,,,,,,
,,,,,,,,,,,,,FF,,,,,,,,1.2832,,,,,,,,,,,,,,,,,,,,,,60ff14561039e939a18f144d,61036966e86cce9c8acb7dcb,2021-07-29_22h53.13.922,Simcolourproject_2stim_asymm_v5,2020.2.10,Linux x86_64,60,61025ae37ef11b136ea224fe,,,,,,,,,190,-86,-39,1,0,0,response5disk,,2,5,-5,1,0,0,rectangle,5,-5,1,0,0,5,-5,1,0,0,0,48,48,65,1,,,,,,,,
,,,,,,,,,,,,,FF,,,,,,,,1.3328,,,,,,,,,,,,,,,,,,,,,,60ff14561039e939a18f144d,61036966e86cce9c8acb7dcb,2021-07-29_22h53.13.922,Simcolourproject_2stim_asymm_v5,2020.2.10,Linux x86_64,60,61025ae37ef11b136ea224fe,,,,,,,,,1604,-52,96,1,0,0,response7disk,,0,12,-8,1,0,0,rectangle,12,-8,1,0,0,12,-8,1,0,0,0,49,49,145,1,,,,,,,,
,,,,,,,,,,,,,FF,,,,,,,,0.8834,,,,,,,,,,,,,,,,,,,,,,60ff14561039e939a18f144d,61036966e86cce9c8acb7dcb,2021-07-29_22h53.13.922,Simcolourproject_2stim_asymm_v5,2020.2.10,Linux x86_64,60,61025ae37ef11b136ea224fe,,,,,,,,,222,25,53,1,0,0,response1disk,,7,-16,-5,1,0,0,rectangle,-16,-5,1,0,0,-16,-5,1,0,0,0,50,50,146,1,,,,,,,,
,,,,,,,,,,,,,FF,,,,,,,,0.817,,,,,,,,,,,,,,,,,,,,,,60ff14561039e939a18f144d,61036966e86cce9c8acb7dcb,2021-07-29_22h53.13.922,Simcolourproject_2stim_asymm_v5,2020.2.10,Linux x86_64,60,61025ae37ef11b136ea224fe,,,,,,,,,2130,26,80,1,0,0,response1disk,,7,7,-3,1,0,0,rectangle,7,-3,1,0,0,7,-3,1,0,0,0,51,51,69,1,,,,,,,,
,,,,,,,,,,,,,FF,,,,,,,,2.3152,,,,,,,,,,,,,,,,,,,,,,60ff14561039e939a18f144d,61036966e86cce9c8acb7dcb,2021-07-29_22h53.13.922,Simcolourproject_2stim_asymm_v5,2020.2.10,Linux x86_64,60,61025ae37ef11b136ea224fe,,,,,,,,,1690,-96,-23,1,0,0,response5disk,,2,-9,9,1,0,0,rectangle,-9,9,1,0,0,-9,9,1,0,0,0,52,52,6,1,,,,,,,,
,,,,,,,,,,,,,FF,,,,,,,,0.916,,,,,,,,,,,,,,,,,,,,,,60ff14561039e939a18f144d,61036966e86cce9c8acb7dcb,2021-07-29_22h53.13.922,Simcolourproject_2stim_asymm_v5,2020.2.10,Linux x86_64,60,61025ae37ef11b136ea224fe,,,,,,,,,3720,32,82,1,0,0,response1disk,,7,-8,-5,1,0,0,rectangle,-44,84,1,0,0,0,-2,1,0,0,0,53,53,40,1,,response7disk_3,TRUE,0,0,"[128,293,30,37,315,77,246,286,129,115,203,212,54,164,195,231,38,47,171,130]",2.065,rectangle
,,,,,,,,,,,,,FF,,,,,,,,0.9001,,,,,,,,,,,,,,,,,,,,,,60ff14561039e939a18f144d,61036966e86cce9c8acb7dcb,2021-07-29_22h53.13.922,Simcolourproject_2stim_asymm_v5,2020.2.10,Linux x86_64,60,61025ae37ef11b136ea224fe,,,,,,,,,3086,39,78,1,0,0,response1disk,,7,4,-6,1,0,0,rectangle,4,-6,1,0,0,4,-6,1,0,0,0,54,54,91,1,,,,,,,,
,,,,,,,,,,,,,FF,,,,,,,,1.3829,,,,,,,,,,,,,,,,,,,,,,60ff14561039e939a18f144d,61036966e86cce9c8acb7dcb,2021-07-29_22h53.13.922,Simcolourproject_2stim_asymm_v5,2020.2.10,Linux x86_64,60,61025ae37ef11b136ea224fe,,,,,,,,,4293,-43,75,1,0,0,response7disk,,0,-10,-3,1,0,0,rectangle,-10,-3,1,0,0,-10,-3,1,0,0,0,55,55,58,1,,,,,,,,
,,,,,,,,,,,,,FF,,,,,,,,1.6155,,,,,,,,,,,,,,,,,,,,,,60ff14561039e939a18f144d,61036966e86cce9c8acb7dcb,2021-07-29_22h53.13.922,Simcolourproject_2stim_asymm_v5,2020.2.10,Linux x86_64,60,61025ae37ef11b136ea224fe,,,,,,,,,3419,-78,-48,1,0,0,response5disk,,2,20,3,1,0,0,rectangle,20,3,1,0,0,20,3,1,0,0,0,56,56,63,1,,,,,,,,
,,,,,,,,,,,,,FF,,,,,,,,0.7991,,,,,,,,,,,,,,,,,,,,,,60ff14561039e939a18f144d,61036966e86cce9c8acb7dcb,2021-07-29_22h53.13.922,Simcolourproject_2stim_asymm_v5,2020.2.10,Linux x86_64,60,61025ae37ef11b136ea224fe,,,,,,,,,1189,64,95,1,0,0,response1disk,,7,10,-1,1,0,0,rectangle,10,-1,1,0,0,10,-1,1,0,0,0,57,57,155,1,,,,,,,,
,,,,,,,,,,,,,FF,,,,,,,,0.833,,,,,,,,,,,,,,,,,,,,,,60ff14561039e939a18f144d,61036966e86cce9c8acb7dcb,2021-07-29_22h53.13.922,Simcolourproject_2stim_asymm_v5,2020.2.10,Linux x86_64,60,61025ae37ef11b136ea224fe,,,,,,,,,3886,40,77,1,0,0,response1disk,,7,3,1,1,0,0,rectangle,3,1,1,0,0,3,1,1,0,0,0,58,58,34,1,,,,,,,,
,,,,,,,,,,,,,FF,,,,,,,,2.1826,,,,,,,,,,,,,,,,,,,,,,60ff14561039e939a18f144d,61036966e86cce9c8acb7dcb,2021-07-29_22h53.13.922,Simcolourproject_2stim_asymm_v5,2020.2.10,Linux x86_64,60,61025ae37ef11b136ea224fe,,,,,,,,,3341,-68,-40,1,0,0,response5disk,,2,-5,-6,1,0,0,rectangle,-5,-6,1,0,0,-5,-6,1,0,0,0,59,59,47,1,,,,,,,,
,,,,,,,,,,,,,FF,,,,,,,,2.9148,,,,,,,,,,,,,,,,,,,,,,60ff14561039e939a18f144d,61036966e86cce9c8acb7dcb,2021-07-29_22h53.13.922,Simcolourproject_2stim_asymm_v5,2020.2.10,Linux x86_64,60,61025ae37ef11b136ea224fe,,,,,,,,,2618,101,-41,1,0,0,response3disk,,5,-11,-7,1,0,0,rectangle,-11,-7,1,0,0,-11,-7,1,0,0,0,60,60,95,1,,,,,,,,
,,,,,,,,,,,,,FF,,,,,,,,1.0987,,,,,,,,,,,,,,,,,,,,,,60ff14561039e939a18f144d,61036966e86cce9c8acb7dcb,2021-07-29_22h53.13.922,Simcolourproject_2stim_asymm_v5,2020.2.10,Linux x86_64,60,61025ae37ef11b136ea224fe,,,,,,,,,1576,43,69,1,0,0,response1disk,,7,14,0,1,0,0,rectangle,14,0,1,0,0,14,0,1,0,0,0,61,61,81,1,,,,,,,,
,,,,,,,,,,,,,FF,,,,,,,,0.8705,,,,,,,,,,,,,,,,,,,,,,60ff14561039e939a18f144d,61036966e86cce9c8acb7dcb,2021-07-29_22h53.13.922,Simcolourproject_2stim_asymm_v5,2020.2.10,Linux x86_64,60,61025ae37ef11b136ea224fe,,,,,,,,,3324,61,112,1,0,0,response1disk,,7,-5,2,1,0,0,rectangle,-5,2,1,0,0,-5,2,1,0,0,0,62,62,148,1,,,,,,,,
,,,,,,,,,,,,,FF,,,,,,,,1.4325,,,,,,,,,,,,,,,,,,,,,,60ff14561039e939a18f144d,61036966e86cce9c8acb7dcb,2021-07-29_22h53.13.922,Simcolourproject_2stim_asymm_v5,2020.2.10,Linux x86_64,60,61025ae37ef11b136ea224fe,,,,,,,,,232,94,27,1,0,0,response1disk,,6,18,-7,1,0,0,rectangle,18,-7,1,0,0,18,-7,1,0,0,0,63,63,9,1,,,,,,,,
,,,,,,,,,,,,,FF,,,,,,,,2.0825,,,,,,,,,,,,,,,,,,,,,,60ff14561039e939a18f144d,61036966e86cce9c8acb7dcb,2021-07-29_22h53.13.922,Simcolourproject_2stim_asymm_v5,2020.2.10,Linux x86_64,60,61025ae37ef11b136ea224fe,,,,,,,,,1589,-75,-36,1,0,0,response5disk,,2,8,9,1,0,0,rectangle,8,9,1,0,0,8,9,1,0,0,0,64,64,2,1,,,,,,,,
,,,,,,,,,,,,,FF,,,,,,,,2.9151,,,,,,,,,,,,,,,,,,,,,,60ff14561039e939a18f144d,61036966e86cce9c8acb7dcb,2021-07-29_22h53.13.922,Simcolourproject_2stim_asymm_v5,2020.2.10,Linux x86_64,60,61025ae37ef11b136ea224fe,,,,,,,,,3036,68,-47,1,0,0,response3disk,,5,-4,8,1,0,0,rectangle,-4,8,1,0,0,-4,8,1,0,0,0,65,65,17,1,,,,,,,,
,,,,,,,,,,,,,FF,,,,,,,,0.8993,,,,,,,,,,,,,,,,,,,,,,60ff14561039e939a18f144d,61036966e86cce9c8acb7dcb,2021-07-29_22h53.13.922,Simcolourproject_2stim_asymm_v5,2020.2.10,Linux x86_64,60,61025ae37ef11b136ea224fe,,,,,,,,,2183,39,93,1,0,0,response1disk,,7,-2,5,1,0,0,rectangle,-2,5,1,0,0,-2,5,1,0,0,0,66,66,8,1,,,,,,,,
,,,,,,,,,,,,,FF,,,,,,,,0.8004,,,,,,,,,,,,,,,,,,,,,,60ff14561039e939a18f144d,61036966e86cce9c8acb7dcb,2021-07-29_22h53.13.922,Simcolourproject_2stim_asymm_v5,2020.2.10,Linux x86_64,60,61025ae37ef11b136ea224fe,,,,,,,,,597,59,80,1,0,0,response1disk,,7,0,0,1,0,0,rectangle,0,0,1,0,0,0,0,1,0,0,0,67,67,92,1,,,,,,,,
,,,,,,,,,,,,,FF,,,,,,,,1.0666,,,,,,,,,,,,,,,,,,,,,,60ff14561039e939a18f144d,61036966e86cce9c8acb7dcb,2021-07-29_22h53.13.922,Simcolourproject_2stim_asymm_v5,2020.2.10,Linux x86_64,60,61025ae37ef11b136ea224fe,,,,,,,,,924,40,73,1,0,0,response1disk,,7,4,3,1,0,0,rectangle,4,3,1,0,0,4,3,1,0,0,0,68,68,1,1,,,,,,,,
,,,,,,,,,,,,,FF,,,,,,,,2.0159,,,,,,,,,,,,,,,,,,,,,,60ff14561039e939a18f144d,61036966e86cce9c8acb7dcb,2021-07-29_22h53.13.922,Simcolourproject_2stim_asymm_v5,2020.2.10,Linux x86_64,60,61025ae37ef11b136ea224fe,,,,,,,,,2656,104,-44,1,0,0,response3disk,,5,-11,7,1,0,0,rectangle,-11,7,1,0,0,-11,7,1,0,0,0,69,69,152,1,,,,,,,,
,,,,,,,,,,,,,FF,,,,,,,,2.215,,,,,,,,,,,,,,,,,,,,,,60ff14561039e939a18f144d,61036966e86cce9c8acb7dcb,2021-07-29_22h53.13.922,Simcolourproject_2stim_asymm_v5,2020.2.10,Linux x86_64,60,61025ae37ef11b136ea224fe,,,,,,,,,2083,95,-48,1,0,0,response3disk,,5,7,-9,1,0,0,rectangle,7,-9,1,0,0,7,-9,1,0,0,0,70,70,99,1,,,,,,,,
,,,,,,,,,,,,,FF,,,,,,,,0.8996,,,,,,,,,,,,,,,,,,,,,,60ff14561039e939a18f144d,61036966e86cce9c8acb7dcb,2021-07-29_22h53.13.922,Simcolourproject_2stim_asymm_v5,2020.2.10,Linux x86_64,60,61025ae37ef11b136ea224fe,,,,,,,,,2448,29,87,1,0,0,response1disk,,7,-16,2,1,0,0,rectangle,-16,2,1,0,0,-16,2,1,0,0,0,71,71,46,1,,,,,,,,
,,,,,,,,,,,,,FF,,,,,,,,1.1665,,,,,,,,,,,,,,,,,,,,,,60ff14561039e939a18f144d,61036966e86cce9c8acb7dcb,2021-07-29_22h53.13.922,Simcolourproject_2stim_asymm_v5,2020.2.10,Linux x86_64,60,61025ae37ef11b136ea224fe,,,,,,,,,1872,75,27,1,0,0,response1disk,,6,-2,-3,1,0,0,rectangle,-2,-3,1,0,0,-2,-3,1,0,0,0,72,72,21,1,,,,,,,,
,,,,,,,,,,,,,FF,,,,,,,,2.882,,,,,,,,,,,,,,,,,,,,,,60ff14561039e939a18f144d,61036966e86cce9c8acb7dcb,2021-07-29_22h53.13.922,Simcolourproject_2stim_asymm_v5,2020.2.10,Linux x86_64,60,61025ae37ef11b136ea224fe,,,,,,,,,1419,79,-38,1,0,0,response3disk,,5,10,-7,1,0,0,rectangle,10,-7,1,0,0,10,-7,1,0,0,0,73,73,123,1,,,,,,,,
,,,,,,,,,,,,,FF,,,,,,,,1.3997,,,,,,,,,,,,,,,,,,,,,,60ff14561039e939a18f144d,61036966e86cce9c8acb7dcb,2021-07-29_22h53.13.922,Simcolourproject_2stim_asymm_v5,2020.2.10,Linux x86_64,60,61025ae37ef11b136ea224fe,,,,,,,,,55,88,34,1,0,0,response1disk,,6,13,-6,1,0,0,rectangle,13,-6,1,0,0,13,-6,1,0,0,0,74,74,55,1,,,,,,,,
,,,,,,,,,,,,,FF,,,,,,,,1.932,,,,,,,,,,,,,,,,,,,,,,60ff14561039e939a18f144d,61036966e86cce9c8acb7dcb,2021-07-29_22h53.13.922,Simcolourproject_2stim_asymm_v5,2020.2.10,Linux x86_64,60,61025ae37ef11b136ea224fe,,,,,,,,,3832,44,77,1,0,0,response1disk,,7,-10,-7,1,0,0,rectangle,-10,-7,1,0,0,-10,-7,1,0,0,0,75,75,60,1,,,,,,,,
,,,,,,,,,,,,,FF,,,,,,,,0.9336,,,,,,,,,,,,,,,,,,,,,,60ff14561039e939a18f144d,61036966e86cce9c8acb7dcb,2021-07-29_22h53.13.922,Simcolourproject_2stim_asymm_v5,2020.2.10,Linux x86_64,60,61025ae37ef11b136ea224fe,,,,,,,,,2271,28,81,1,0,0,response1disk,,7,-2,-2,1,0,0,rectangle,-49,23,1,0,0,10,3,1,0,0,0,76,76,53,1,,response7disk_3,TRUE,1,1,"[128,293,30,37,315,77,246,286,129,115,203,212,54,164,195,231,38,47,171,130]",1.6482,rectangle
,,,,,,,,,,,,,FF,,,,,,,,1.8983,,,,,,,,,,,,,,,,,,,,,,60ff14561039e939a18f144d,61036966e86cce9c8acb7dcb,2021-07-29_22h53.13.922,Simcolourproject_2stim_asymm_v5,2020.2.10,Linux x86_64,60,61025ae37ef11b136ea224fe,,,,,,,,,3813,-63,-72,1,0,0,response5disk,,3,-5,3,1,0,0,rectangle,-5,3,1,0,0,-5,3,1,0,0,0,77,77,11,1,,,,,,,,
,,,,,,,,,,,,,FF,,,,,,,,3.2474,,,,,,,,,,,,,,,,,,,,,,60ff14561039e939a18f144d,61036966e86cce9c8acb7dcb,2021-07-29_22h53.13.922,Simcolourproject_2stim_asymm_v5,2020.2.10,Linux x86_64,60,61025ae37ef11b136ea224fe,,,,,,,,,3650,51,90,1,0,0,response1disk,,7,12,-9,1,0,0,rectangle,12,-9,1,0,0,12,-9,1,0,0,0,78,78,12,1,,,,,,,,
,,,,,,,,,,,,,FF,,,,,,,,1.9157,,,,,,,,,,,,,,,,,,,,,,60ff14561039e939a18f144d,61036966e86cce9c8acb7dcb,2021-07-29_22h53.13.922,Simcolourproject_2stim_asymm_v5,2020.2.10,Linux x86_64,60,61025ae37ef11b136ea224fe,,,,,,,,,3399,92,49,1,0,0,response1disk,,6,19,-10,1,0,0,rectangle,19,-10,1,0,0,19,-10,1,0,0,0,79,79,118,1,,,,,,,,
,,,,,,,,,,,,,FF,,,,,,,,1.5983,,,,,,,,,,,,,,,,,,,,,,60ff14561039e939a18f144d,61036966e86cce9c8acb7dcb,2021-07-29_22h53.13.922,Simcolourproject_2stim_asymm_v5,2020.2.10,Linux x86_64,60,61025ae37ef11b136ea224fe,,,,,,,,,2268,-29,-83,1,0,0,response5disk,,3,14,-4,1,0,0,rectangle,14,-4,1,0,0,14,-4,1,0,0,0,80,80,100,1,,,,,,,,
,,,,,,,,,,,,,FF,,,,,,,,0.9397,,,,,,,,,,,,,,,,,,,,,,60ff14561039e939a18f144d,61036966e86cce9c8acb7dcb,2021-07-29_22h53.13.922,Simcolourproject_2stim_asymm_v5,2020.2.10,Linux x86_64,60,61025ae37ef11b136ea224fe,,,,,,,,,744,75,40,1,0,0,response1disk,,6,13,-2,1,0,0,rectangle,13,-2,1,0,0,13,-2,1,0,0,0,81,81,107,1,,,,,,,,
,,,,,,,,,,,,,FF,,,,,,,,1.2495,,,,,,,,,,,,,,,,,,,,,,60ff14561039e939a18f144d,61036966e86cce9c8acb7dcb,2021-07-29_22h53.13.922,Simcolourproject_2stim_asymm_v5,2020.2.10,Linux x86_64,60,61025ae37ef11b136ea224fe,,,,,,,,,1173,70,38,1,0,0,response1disk,,6,-2,-3,1,0,0,rectangle,-2,-3,1,0,0,-2,-3,1,0,0,0,82,82,106,1,,,,,,,,
,,,,,,,,,,,,,FF,,,,,,,,1.0997,,,,,,,,,,,,,,,,,,,,,,60ff14561039e939a18f144d,61036966e86cce9c8acb7dcb,2021-07-29_22h53.13.922,Simcolourproject_2stim_asymm_v5,2020.2.10,Linux x86_64,60,61025ae37ef11b136ea224fe,,,,,,,,,206,61,-43,1,0,0,response3disk,,5,-1,-3,1,0,0,rectangle,-1,-3,1,0,0,-1,-3,1,0,0,0,83,83,33,1,,,,,,,,
,,,,,,,,,,,,,FF,,,,,,,,0.9661,,,,,,,,,,,,,,,,,,,,,,60ff14561039e939a18f144d,61036966e86cce9c8acb7dcb,2021-07-29_22h53.13.922,Simcolourproject_2stim_asymm_v5,2020.2.10,Linux x86_64,60,61025ae37ef11b136ea224fe,,,,,,,,,630,-47,77,1,0,0,response7disk,,0,-3,-4,1,0,0,rectangle,-3,-4,1,0,0,-3,-4,1,0,0,0,84,84,110,1,,,,,,,,
,,,,,,,,,,,,,FF,,,,,,,,1.3491,,,,,,,,,,,,,,,,,,,,,,60ff14561039e939a18f144d,61036966e86cce9c8acb7dcb,2021-07-29_22h53.13.922,Simcolourproject_2stim_asymm_v5,2020.2.10,Linux x86_64,60,61025ae37ef11b136ea224fe,,,,,,,,,1950,-64,-78,1,0,0,response5disk,,3,16,9,1,0,0,rectangle,16,9,1,0,0,16,9,1,0,0,0,85,85,115,1,,,,,,,,
,,,,,,,,,,,,,FF,,,,,,,,1.2002,,,,,,,,,,,,,,,,,,,,,,60ff14561039e939a18f144d,61036966e86cce9c8acb7dcb,2021-07-29_22h53.13.922,Simcolourproject_2stim_asymm_v5,2020.2.10,Linux x86_64,60,61025ae37ef11b136ea224fe,,,,,,,,,3405,86,46,1,0,0,response1disk,,6,-10,-4,1,0,0,rectangle,-10,-4,1,0,0,-10,-4,1,0,0,0,86,86,101,1,,,,,,,,
,,,,,,,,,,,,,FF,,,,,,,,0.8494,,,,,,,,,,,,,,,,,,,,,,60ff14561039e939a18f144d,61036966e86cce9c8acb7dcb,2021-07-29_22h53.13.922,Simcolourproject_2stim_asymm_v5,2020.2.10,Linux x86_64,60,61025ae37ef11b136ea224fe,,,,,,,,,2003,36,109,1,0,0,response1disk,,7,-3,3,1,0,0,rectangle,-3,3,1,0,0,-3,3,1,0,0,0,87,87,67,1,,,,,,,,
,,,,,,,,,,,,,FF,,,,,,,,1.0501,,,,,,,,,,,,,,,,,,,,,,60ff14561039e939a18f144d,61036966e86cce9c8acb7dcb,2021-07-29_22h53.13.922,Simcolourproject_2stim_asymm_v5,2020.2.10,Linux x86_64,60,61025ae37ef11b136ea224fe,,,,,,,,,4273,46,88,1,0,0,response1disk,,7,-15,-1,1,0,0,rectangle,-15,-1,1,0,0,-15,-1,1,0,0,0,88,88,59,1,,,,,,,,
,,,,,,,,,,,,,FF,,,,,,,,0.8836,,,,,,,,,,,,,,,,,,,,,,60ff14561039e939a18f144d,61036966e86cce9c8acb7dcb,2021-07-29_22h53.13.922,Simcolourproject_2stim_asymm_v5,2020.2.10,Linux x86_64,60,61025ae37ef11b136ea224fe,,,,,,,,,790,24,58,1,0,0,response1disk,,7,-16,-5,1,0,0,rectangle,-16,-5,1,0,0,-16,-5,1,0,0,0,89,89,56,1,,,,,,,,
,,,,,,,,,,,,,FF,,,,,,,,0.8329,,,,,,,,,,,,,,,,,,,,,,60ff14561039e939a18f144d,61036966e86cce9c8acb7dcb,2021-07-29_22h53.13.922,Simcolourproject_2stim_asymm_v5,2020.2.10,Linux x86_64,60,61025ae37ef11b136ea224fe,,,,,,,,,304,41,87,1,0,0,response1disk,,7,-19,0,1,0,0,rectangle,-19,0,1,0,0,-19,0,1,0,0,0,90,90,90,1,,,,,,,,
,,,,,,,,,,,,,FF,,,,,,,,1.1665,,,,,,,,,,,,,,,,,,,,,,60ff14561039e939a18f144d,61036966e86cce9c8acb7dcb,2021-07-29_22h53.13.922,Simcolourproject_2stim_asymm_v5,2020.2.10,Linux x86_64,60,61025ae37ef11b136ea224fe,,,,,,,,,4000,100,45,1,0,0,response1disk,,6,2,7,1,0,0,rectangle,2,7,1,0,0,2,7,1,0,0,0,91,91,73,1,,,,,,,,
,,,,,,,,,,,,,FF,,,,,,,,2.2658,,,,,,,,,,,,,,,,,,,,,,60ff14561039e939a18f144d,61036966e86cce9c8acb7dcb,2021-07-29_22h53.13.922,Simcolourproject_2stim_asymm_v5,2020.2.10,Linux x86_64,60,61025ae37ef11b136ea224fe,,,,,,,,,418,97,51,1,0,0,response1disk,,6,7,2,1,0,0,rectangle,7,2,1,0,0,7,2,1,0,0,0,92,92,119,1,,,,,,,,
,,,,,,,,,,,,,FF,,,,,,,,1.1494,,,,,,,,,,,,,,,,,,,,,,60ff14561039e939a18f144d,61036966e86cce9c8acb7dcb,2021-07-29_22h53.13.922,Simcolourproject_2stim_asymm_v5,2020.2.10,Linux x86_64,60,61025ae37ef11b136ea224fe,,,,,,,,,2009,83,-61,1,0,0,response3disk,,5,0,9,1,0,0,rectangle,0,9,1,0,0,0,9,1,0,0,0,93,93,108,1,,,,,,,,
,,,,,,,,,,,,,FF,,,,,,,,1.3938,,,,,,,,,,,,,,,,,,,,,,60ff14561039e939a18f144d,61036966e86cce9c8acb7dcb,2021-07-29_22h53.13.922,Simcolourproject_2stim_asymm_v5,2020.2.10,Linux x86_64,60,61025ae37ef11b136ea224fe,,,,,,,,,3040,-49,-88,1,0,0,response5disk,,3,-7,3,1,0,0,rectangle,-7,3,1,0,0,-7,3,1,0,0,0,94,94,68,1,,,,,,,,
,,,,,,,,,,,,,FF,,,,,,,,1.3156,,,,,,,,,,,,,,,,,,,,,,60ff14561039e939a18f144d,61036966e86cce9c8acb7dcb,2021-07-29_22h53.13.922,Simcolourproject_2stim_asymm_v5,2020.2.10,Linux x86_64,60,61025ae37ef11b136ea224fe,,,,,,,,,4104,-44,-102,1,0,0,response5disk,,3,-19,5,1,0,0,rectangle,-19,5,1,0,0,-19,5,1,0,0,0,95,95,127,1,,,,,,,,
,,,,,,,,,,,,,FF,,,,,,,,1.4158,,,,,,,,,,,,,,,,,,,,,,60ff14561039e939a18f144d,61036966e86cce9c8acb7dcb,2021-07-29_22h53.13.922,Simcolourproject_2stim_asymm_v5,2020.2.10,Linux x86_64,60,61025ae37ef11b136ea224fe,,,,,,,,,3735,63,88,1,0,0,response1disk,,7,-10,5,1,0,0,rectangle,-10,5,1,0,0,-10,5,1,0,0,0,96,96,70,1,,,,,,,,
,,,,,,,,,,,,,FF,,,,,,,,0.8832,,,,,,,,,,,,,,,,,,,,,,60ff14561039e939a18f144d,61036966e86cce9c8acb7dcb,2021-07-29_22h53.13.922,Simcolourproject_2stim_asymm_v5,2020.2.10,Linux x86_64,60,61025ae37ef11b136ea224fe,,,,,,,,,1412,66,28,1,0,0,response1disk,,6,-8,-10,1,0,0,rectangle,-8,-10,1,0,0,-8,-10,1,0,0,0,97,97,77,1,,,,,,,,
,,,,,,,,,,,,,FF,,,,,,,,1.0016,,,,,,,,,,,,,,,,,,,,,,60ff14561039e939a18f144d,61036966e86cce9c8acb7dcb,2021-07-29_22h53.13.922,Simcolourproject_2stim_asymm_v5,2020.2.10,Linux x86_64,60,61025ae37ef11b136ea224fe,,,,,,,,,1999,48,88,1,0,0,response1disk,,7,1,-6,1,0,0,rectangle,1,-6,1,0,0,1,-6,1,0,0,0,98,98,128,1,,,,,,,,
,,,,,,,,,,,,,FF,,,,,,,,1.4323,,,,,,,,,,,,,,,,,,,,,,60ff14561039e939a18f144d,61036966e86cce9c8acb7dcb,2021-07-29_22h53.13.922,Simcolourproject_2stim_asymm_v5,2020.2.10,Linux x86_64,60,61025ae37ef11b136ea224fe,,,,,,,,,2382,15,72,1,0,0,response1disk,,7,-15,-4,1,0,0,rectangle,-15,-4,1,0,0,-15,-4,1,0,0,0,99,99,61,1,,,,,,,,
,,,,,,,,,,,,,FF,,,,,,,,1.6156,,,,,,,,,,,,,,,,,,,,,,60ff14561039e939a18f144d,61036966e86cce9c8acb7dcb,2021-07-29_22h53.13.922,Simcolourproject_2stim_asymm_v5,2020.2.10,Linux x86_64,60,61025ae37ef11b136ea224fe,,,,,,,,,2919,89,48,1,0,0,response1disk,,6,3,-5,1,0,0,rectangle,3,-5,1,0,0,3,-5,1,0,0,0,100,100,43,1,,,,,,,,
,,,,,,,,,,,,,FF,,,,,,,,1.2682,,,,,,,,,,,,,,,,,,,,,,60ff14561039e939a18f144d,61036966e86cce9c8acb7dcb,2021-07-29_22h53.13.922,Simcolourproject_2stim_asymm_v5,2020.2.10,Linux x86_64,60,61025ae37ef11b136ea224fe,,,,,,,,,2873,84,27,1,0,0,response1disk,,6,-1,5,1,0,0,rectangle,-1,5,1,0,0,-1,5,1,0,0,0,101,101,117,1,,,,,,,,
,,,,,,,,,,,,,FF,,,,,,,,1.7489,,,,,,,,,,,,,,,,,,,,,,60ff14561039e939a18f144d,61036966e86cce9c8acb7dcb,2021-07-29_22h53.13.922,Simcolourproject_2stim_asymm_v5,2020.2.10,Linux x86_64,60,61025ae37ef11b136ea224fe,,,,,,,,,2870,78,-50,1,0,0,response3disk,,5,2,3,1,0,0,rectangle,2,3,1,0,0,2,3,1,0,0,0,102,102,159,1,,,,,,,,
,,,,,,,,,,,,,FF,,,,,,,,1.4321,,,,,,,,,,,,,,,,,,,,,,60ff14561039e939a18f144d,61036966e86cce9c8acb7dcb,2021-07-29_22h53.13.922,Simcolourproject_2stim_asymm_v5,2020.2.10,Linux x86_64,60,61025ae37ef11b136ea224fe,,,,,,,,,1611,-86,-45,1,0,0,response5disk,,2,-5,8,1,0,0,rectangle,-5,8,1,0,0,-5,8,1,0,0,0,103,103,114,1,,,,,,,,
,,,,,,,,,,,,,FF,,,,,,,,0.8167,,,,,,,,,,,,,,,,,,,,,,60ff14561039e939a18f144d,61036966e86cce9c8acb7dcb,2021-07-29_22h53.13.922,Simcolourproject_2stim_asymm_v5,2020.2.10,Linux x86_64,60,61025ae37ef11b136ea224fe,,,,,,,,,2972,39,72,1,0,0,response1disk,,7,-4,-2,1,0,0,rectangle,-4,-2,1,0,0,-4,-2,1,0,0,0,104,104,19,1,,,,,,,,
,,,,,,,,,,,,,FF,,,,,,,,1.6152,,,,,,,,,,,,,,,,,,,,,,60ff14561039e939a18f144d,61036966e86cce9c8acb7dcb,2021-07-29_22h53.13.922,Simcolourproject_2stim_asymm_v5,2020.2.10,Linux x86_64,60,61025ae37ef11b136ea224fe,,,,,,,,,1158,-77,-36,1,0,0,response5disk,,2,-16,6,1,0,0,rectangle,-16,6,1,0,0,-16,6,1,0,0,0,105,105,113,1,,,,,,,,
,,,,,,,,,,,,,FF,,,,,,,,1.0174,,,,,,,,,,,,,,,,,,,,,,60ff14561039e939a18f144d,61036966e86cce9c8acb7dcb,2021-07-29_22h53.13.922,Simcolourproject_2stim_asymm_v5,2020.2.10,Linux x86_64,60,61025ae37ef11b136ea224fe,,,,,,,,,2408,51,99,1,0,0,response1disk,,7,-5,2,1,0,0,rectangle,-5,2,1,0,0,-5,2,1,0,0,0,106,106,149,1,,,,,,,,
,,,,,,,,,,,,,FF,,,,,,,,1.1161,,,,,,,,,,,,,,,,,,,,,,60ff14561039e939a18f144d,61036966e86cce9c8acb7dcb,2021-07-29_22h53.13.922,Simcolourproject_2stim_asymm_v5,2020.2.10,Linux x86_64,60,61025ae37ef11b136ea224fe,,,,,,,,,2352,-85,-63,1,0,0,response5disk,,2,19,8,1,0,0,rectangle,19,8,1,0,0,19,8,1,0,0,0,107,107,45,1,,,,,,,,
,,,,,,,,,,,,,FF,,,,,,,,2.1657,,,,,,,,,,,,,,,,,,,,,,60ff14561039e939a18f144d,61036966e86cce9c8acb7dcb,2021-07-29_22h53.13.922,Simcolourproject_2stim_asymm_v5,2020.2.10,Linux x86_64,60,61025ae37ef11b136ea224fe,,,,,,,,,1733,-89,-31,1,0,0,response5disk,,2,10,-5,1,0,0,rectangle,10,-5,1,0,0,10,-5,1,0,0,0,108,108,5,1,,,,,,,,
,,,,,,,,,,,,,FF,,,,,,,,0.8332,,,,,,,,,,,,,,,,,,,,,,60ff14561039e939a18f144d,61036966e86cce9c8acb7dcb,2021-07-29_22h53.13.922,Simcolourproject_2stim_asymm_v5,2020.2.10,Linux x86_64,60,61025ae37ef11b136ea224fe,,,,,,,,,1091,27,78,1,0,0,response1disk,,7,-25,-2,1,0,0,rectangle,-25,-2,1,0,0,-25,-2,1,0,0,0,109,109,102,1,,,,,,,,
,,,,,,,,,,,,,FF,,,,,,,,1.0491,,,,,,,,,,,,,,,,,,,,,,60ff14561039e939a18f144d,61036966e86cce9c8acb7dcb,2021-07-29_22h53.13.922,Simcolourproject_2stim_asymm_v5,2020.2.10,Linux x86_64,60,61025ae37ef11b136ea224fe,,,,,,,,,2781,-77,39,1,0,0,response7disk,,1,2,3,1,0,0,rectangle,2,3,1,0,0,2,3,1,0,0,0,110,110,49,1,,,,,,,,
,,,,,,,,,,,,,FF,,,,,,,,1.6694,,,,,,,,,,,,,,,,,,,,,,60ff14561039e939a18f144d,61036966e86cce9c8acb7dcb,2021-07-29_22h53.13.922,Simcolourproject_2stim_asymm_v5,2020.2.10,Linux x86_64,60,61025ae37ef11b136ea224fe,,,,,,,,,3931,-87,-49,1,0,0,response5disk,,2,2,-5,1,0,0,rectangle,2,-5,1,0,0,2,-5,1,0,0,0,111,111,31,1,,,,,,,,
,,,,,,,,,,,,,FF,,,,,,,,0.8851,,,,,,,,,,,,,,,,,,,,,,60ff14561039e939a18f144d,61036966e86cce9c8acb7dcb,2021-07-29_22h53.13.922,Simcolourproject_2stim_asymm_v5,2020.2.10,Linux x86_64,60,61025ae37ef11b136ea224fe,,,,,,,,,721,-68,-36,1,0,0,response5disk,,2,-3,10,1,0,0,rectangle,-3,10,1,0,0,-3,10,1,0,0,0,112,112,64,1,,,,,,,,
,,,,,,,,,,,,,FF,,,,,,,,1.6823,,,,,,,,,,,,,,,,,,,,,,60ff14561039e939a18f144d,61036966e86cce9c8acb7dcb,2021-07-29_22h53.13.922,Simcolourproject_2stim_asymm_v5,2020.2.10,Linux x86_64,60,61025ae37ef11b136ea224fe,,,,,,,,,4007,39,-62,1,0,0,response3disk,,4,0,3,1,0,0,rectangle,0,3,1,0,0,0,3,1,0,0,0,113,113,137,1,,,,,,,,
,,,,,,,,,,,,,FF,,,,,,,,1.0499,,,,,,,,,,,,,,,,,,,,,,60ff14561039e939a18f144d,61036966e86cce9c8acb7dcb,2021-07-29_22h53.13.922,Simcolourproject_2stim_asymm_v5,2020.2.10,Linux x86_64,60,61025ae37ef11b136ea224fe,,,,,,,,,4067,27,57,1,0,0,response1disk,,7,0,0,1,0,0,rectangle,-36,-92,1,0,0,-11,-6,1,0,0,0,114,114,78,1,,response5disk_3,TRUE,3,3,"[128,293,30,37,315,77,246,286,129,115,203,212,54,164,195,231,38,47,171,130]",1.8489,rectangle
,,,,,,,,,,,,,FF,,,,,,,,1.3663,,,,,,,,,,,,,,,,,,,,,,60ff14561039e939a18f144d,61036966e86cce9c8acb7dcb,2021-07-29_22h53.13.922,Simcolourproject_2stim_asymm_v5,2020.2.10,Linux x86_64,60,61025ae37ef11b136ea224fe,,,,,,,,,3361,35,84,1,0,0,response1disk,,7,12,-7,1,0,0,rectangle,12,-7,1,0,0,12,-7,1,0,0,0,115,115,76,1,,,,,,,,
,,,,,,,,,,,,,FF,,,,,,,,1.9322,,,,,,,,,,,,,,,,,,,,,,60ff14561039e939a18f144d,61036966e86cce9c8acb7dcb,2021-07-29_22h53.13.922,Simcolourproject_2stim_asymm_v5,2020.2.10,Linux x86_64,60,61025ae37ef11b136ea224fe,,,,,,,,,1103,17,77,1,0,0,response1disk,,7,4,0,1,0,0,rectangle,4,0,1,0,0,4,0,1,0,0,0,116,116,52,1,,,,,,,,
,,,,,,,,,,,,,FF,,,,,,,,1.3331,,,,,,,,,,,,,,,,,,,,,,60ff14561039e939a18f144d,61036966e86cce9c8acb7dcb,2021-07-29_22h53.13.922,Simcolourproject_2stim_asymm_v5,2020.2.10,Linux x86_64,60,61025ae37ef11b136ea224fe,,,,,,,,,1904,-49,-102,1,0,0,response5disk,,3,-16,12,1,0,0,rectangle,-16,12,1,0,0,-16,12,1,0,0,0,117,117,158,1,,,,,,,,
,,,,,,,,,,,,,FF,,,,,,,,1.0495,,,,,,,,,,,,,,,,,,,,,,60ff14561039e939a18f144d,61036966e86cce9c8acb7dcb,2021-07-29_22h53.13.922,Simcolourproject_2stim_asymm_v5,2020.2.10,Linux x86_64,60,61025ae37ef11b136ea224fe,,,,,,,,,968,-77,44,1,0,0,response7disk,,1,12,-2,1,0,0,rectangle,12,-2,1,0,0,12,-2,1,0,0,0,118,118,28,1,,,,,,,,
,,,,,,,,,,,,,FF,,,,,,,,1.2989,,,,,,,,,,,,,,,,,,,,,,60ff14561039e939a18f144d,61036966e86cce9c8acb7dcb,2021-07-29_22h53.13.922,Simcolourproject_2stim_asymm_v5,2020.2.10,Linux x86_64,60,61025ae37ef11b136ea224fe,,,,,,,,,155,-30,-78,1,0,0,response5disk,,3,-12,-7,1,0,0,rectangle,-12,-7,1,0,0,-12,-7,1,0,0,0,119,119,87,1,,,,,,,,
,,,,,,,,,,,,,FF,,,,,,,,1.7338,,,,,,,,,,,,,,,,,,,,,,60ff14561039e939a18f144d,61036966e86cce9c8acb7dcb,2021-07-29_22h53.13.922,Simcolourproject_2stim_asymm_v5,2020.2.10,Linux x86_64,60,61025ae37ef11b136ea224fe,,,,,,,,,2074,85,44,1,0,0,response1disk,,6,-20,-9,1,0,0,rectangle,-20,-9,1,0,0,-20,-9,1,0,0,0,120,120,0,1,,,,,,,,
,,,,,,,,,,,,,FF,,,,,,,,1.0332,,,,,,,,,,,,,,,,,,,,,,60ff14561039e939a18f144d,61036966e86cce9c8acb7dcb,2021-07-29_22h53.13.922,Simcolourproject_2stim_asymm_v5,2020.2.10,Linux x86_64,60,61025ae37ef11b136ea224fe,,,,,,,,,3758,45,70,1,0,0,response1disk,,7,7,4,1,0,0,rectangle,7,4,1,0,0,7,4,1,0,0,0,121,121,147,1,,,,,,,,
,,,,,,,,,,,,,FF,,,,,,,,1.3165,,,,,,,,,,,,,,,,,,,,,,60ff14561039e939a18f144d,61036966e86cce9c8acb7dcb,2021-07-29_22h53.13.922,Simcolourproject_2stim_asymm_v5,2020.2.10,Linux x86_64,60,61025ae37ef11b136ea224fe,,,,,,,,,1438,-29,-76,1,0,0,response5disk,,3,-16,0,1,0,0,rectangle,-16,0,1,0,0,-16,0,1,0,0,0,122,122,27,1,,,,,,,,
,,,,,,,,,,,,,FF,,,,,,,,1.2992,,,,,,,,,,,,,,,,,,,,,,60ff14561039e939a18f144d,61036966e86cce9c8acb7dcb,2021-07-29_22h53.13.922,Simcolourproject_2stim_asymm_v5,2020.2.10,Linux x86_64,60,61025ae37ef11b136ea224fe,,,,,,,,,2468,-82,-50,1,0,0,response5disk,,2,-1,6,1,0,0,rectangle,-1,6,1,0,0,-1,6,1,0,0,0,123,123,83,1,,,,,,,,
,,,,,,,,,,,,,FF,,,,,,,,1.1498,,,,,,,,,,,,,,,,,,,,,,60ff14561039e939a18f144d,61036966e86cce9c8acb7dcb,2021-07-29_22h53.13.922,Simcolourproject_2stim_asymm_v5,2020.2.10,Linux x86_64,60,61025ae37ef11b136ea224fe,,,,,,,,,2443,49,61,1,0,0,response1disk,,7,15,-4,1,0,0,rectangle,15,-4,1,0,0,15,-4,1,0,0,0,124,124,13,1,,,,,,,,
,,,,,,,,,,,,,FF,,,,,,,,0.9658,,,,,,,,,,,,,,,,,,,,,,60ff14561039e939a18f144d,61036966e86cce9c8acb7dcb,2021-07-29_22h53.13.922,Simcolourproject_2stim_asymm_v5,2020.2.10,Linux x86_64,60,61025ae37ef11b136ea224fe,,,,,,,,,3309,43,59,1,0,0,response1disk,,7,12,0,1,0,0,rectangle,12,0,1,0,0,12,0,1,0,0,0,125,125,150,1,,,,,,,,
,,,,,,,,,,,,,FF,,,,,,,,2.315,,,,,,,,,,,,,,,,,,,,,,60ff14561039e939a18f144d,61036966e86cce9c8acb7dcb,2021-07-29_22h53.13.922,Simcolourproject_2stim_asymm_v5,2020.2.10,Linux x86_64,60,61025ae37ef11b136ea224fe,,,,,,,,,1417,59,-27,1,0,0,response3disk,,5,18,0,1,0,0,rectangle,18,0,1,0,0,18,0,1,0,0,0,126,126,156,1,,,,,,,,
,,,,,,,,,,,,,FF,,,,,,,,1.5824,,,,,,,,,,,,,,,,,,,,,,60ff14561039e939a18f144d,61036966e86cce9c8acb7dcb,2021-07-29_22h53.13.922,Simcolourproject_2stim_asymm_v5,2020.2.10,Linux x86_64,60,61025ae37ef11b136ea224fe,,,,,,,,,1868,88,40,1,0,0,response1disk,,6,20,4,1,0,0,rectangle,82,-40,1,0,0,-11,1,1,0,0,0,127,127,139,1,,response3disk_3,TRUE,5,5,"[128,293,30,37,315,77,246,286,129,115,203,212,54,164,195,231,38,47,171,130]",1.3828,rectangle
,,,,,,,,,,,,,FF,,,,,,,,2.7986,,,,,,,,,,,,,,,,,,,,,,60ff14561039e939a18f144d,61036966e86cce9c8acb7dcb,2021-07-29_22h53.13.922,Simcolourproject_2stim_asymm_v5,2020.2.10,Linux x86_64,60,61025ae37ef11b136ea224fe,,,,,,,,,3303,-27,-70,1,0,0,response5disk,,3,-5,2,1,0,0,rectangle,64,-58,1,0,0,-6,8,1,0,0,0,128,128,54,1,,response3disk_3,TRUE,5,1,"[128,293,30,37,315,77,246,286,129,115,203,212,54,164,195,231,38,47,171,130]",2.0479,rectangle
,,,,,,,,,,,,,FF,,,,,,,,1.9661,,,,,,,,,,,,,,,,,,,,,,60ff14561039e939a18f144d,61036966e86cce9c8acb7dcb,2021-07-29_22h53.13.922,Simcolourproject_2stim_asymm_v5,2020.2.10,Linux x86_64,60,61025ae37ef11b136ea224fe,,,,,,,,,1320,-34,-80,1,0,0,response5disk,,3,-5,-1,1,0,0,rectangle,78,-52,1,0,0,-4,0,1,0,0,0,129,129,84,1,,response3disk_3,TRUE,5,5,"[128,293,30,37,315,77,246,286,129,115,203,212,54,164,195,231,38,47,171,130]",1.598,rectangle
,,,,,,,,,,,,,FF,,,,,,,,1.716,,,,,,,,,,,,,,,,,,,,,,60ff14561039e939a18f144d,61036966e86cce9c8acb7dcb,2021-07-29_22h53.13.922,Simcolourproject_2stim_asymm_v5,2020.2.10,Linux x86_64,60,61025ae37ef11b136ea224fe,,,,,,,,,3502,-85,-63,1,0,0,response5disk,,2,-8,1,1,0,0,rectangle,-8,1,1,0,0,-8,1,1,0,0,0,130,130,4,1,,,,,,,,
,,,,,,,,,,,,,FF,,,,,,,,1.2169,,,,,,,,,,,,,,,,,,,,,,60ff14561039e939a18f144d,61036966e86cce9c8acb7dcb,2021-07-29_22h53.13.922,Simcolourproject_2stim_asymm_v5,2020.2.10,Linux x86_64,60,61025ae37ef11b136ea224fe,,,,,,,,,3367,48,86,1,0,0,response1disk,,7,-5,1,1,0,0,rectangle,-5,1,1,0,0,-5,1,1,0,0,0,131,131,126,1,,,,,,,,
,,,,,,,,,,,,,FF,,,,,,,,0.9159,,,,,,,,,,,,,,,,,,,,,,60ff14561039e939a18f144d,61036966e86cce9c8acb7dcb,2021-07-29_22h53.13.922,Simcolourproject_2stim_asymm_v5,2020.2.10,Linux x86_64,60,61025ae37ef11b136ea224fe,,,,,,,,,331,43,83,1,0,0,response1disk,,7,-10,9,1,0,0,rectangle,-10,9,1,0,0,-10,9,1,0,0,0,132,132,30,1,,,,,,,,
,,,,,,,,,,,,,FF,,,,,,,,1.1999,,,,,,,,,,,,,,,,,,,,,,60ff14561039e939a18f144d,61036966e86cce9c8acb7dcb,2021-07-29_22h53.13.922,Simcolourproject_2stim_asymm_v5,2020.2.10,Linux x86_64,60,61025ae37ef11b136ea224fe,,,,,,,,,2839,-97,28,1,0,0,response7disk,,1,-19,-8,1,0,0,rectangle,-19,-8,1,0,0,-19,-8,1,0,0,0,133,133,86,1,,,,,,,,
,,,,,,,,,,,,,FF,,,,,,,,2.6002,,,,,,,,,,,,,,,,,,,,,,60ff14561039e939a18f144d,61036966e86cce9c8acb7dcb,2021-07-29_22h53.13.922,Simcolourproject_2stim_asymm_v5,2020.2.10,Linux x86_64,60,61025ae37ef11b136ea224fe,,,,,,,,,1512,-29,-92,1,0,0,response5disk,,3,13,12,1,0,0,rectangle,13,12,1,0,0,13,12,1,0,0,0,134,134,38,1,,,,,,,,
,,,,,,,,,,,,,FF,,,,,,,,0.8326,,,,,,,,,,,,,,,,,,,,,,60ff14561039e939a18f144d,61036966e86cce9c8acb7dcb,2021-07-29_22h53.13.922,Simcolourproject_2stim_asymm_v5,2020.2.10,Linux x86_64,60,61025ae37ef11b136ea224fe,,,,,,,,,3645,39,83,1,0,0,response1disk,,7,-11,1,1,0,0,rectangle,-11,1,1,0,0,-11,1,1,0,0,0,135,135,18,1,,,,,,,,
,,,,,,,,,,,,,FF,,,,,,,,1.1331,,,,,,,,,,,,,,,,,,,,,,60ff14561039e939a18f144d,61036966e86cce9c8acb7dcb,2021-07-29_22h53.13.922,Simcolourproject_2stim_asymm_v5,2020.2.10,Linux x86_64,60,61025ae37ef11b136ea224fe,,,,,,,,,2994,-93,-50,1,0,0,response5disk,,2,0,-2,1,0,0,rectangle,0,-2,1,0,0,0,-2,1,0,0,0,136,136,74,1,,,,,,,,
,,,,,,,,,,,,,FF,,,,,,,,3.5184,,,,,,,,,,,,,,,,,,,,,,60ff14561039e939a18f144d,61036966e86cce9c8acb7dcb,2021-07-29_22h53.13.922,Simcolourproject_2stim_asymm_v5,2020.2.10,Linux x86_64,60,61025ae37ef11b136ea224fe,,,,,,,,,1180,39,57,1,0,0,response1disk,,7,-18,-11,1,0,0,rectangle,-18,-11,1,0,0,-18,-11,1,0,0,0,137,137,122,1,,,,,,,,
,,,,,,,,,,,,,FF,,,,,,,,1.2994,,,,,,,,,,,,,,,,,,,,,,60ff14561039e939a18f144d,61036966e86cce9c8acb7dcb,2021-07-29_22h53.13.922,Simcolourproject_2stim_asymm_v5,2020.2.10,Linux x86_64,60,61025ae37ef11b136ea224fe,,,,,,,,,1568,79,41,1,0,0,response1disk,,6,-15,-10,1,0,0,rectangle,-15,-10,1,0,0,-15,-10,1,0,0,0,138,138,82,1,,,,,,,,
,,,,,,,,,,,,,FF,,,,,,,,0.8841,,,,,,,,,,,,,,,,,,,,,,60ff14561039e939a18f144d,61036966e86cce9c8acb7dcb,2021-07-29_22h53.13.922,Simcolourproject_2stim_asymm_v5,2020.2.10,Linux x86_64,60,61025ae37ef11b136ea224fe,,,,,,,,,4214,32,83,1,0,0,response1disk,,7,7,5,1,0,0,rectangle,7,5,1,0,0,7,5,1,0,0,0,139,139,3,1,,,,,,,,
,,,,,,,,,,,,,FF,,,,,,,,0.7665,,,,,,,,,,,,,,,,,,,,,,60ff14561039e939a18f144d,61036966e86cce9c8acb7dcb,2021-07-29_22h53.13.922,Simcolourproject_2stim_asymm_v5,2020.2.10,Linux x86_64,60,61025ae37ef11b136ea224fe,,,,,,,,,3492,38,66,1,0,0,response1disk,,7,-3,4,1,0,0,rectangle,-3,4,1,0,0,-3,4,1,0,0,0,140,140,89,1,,,,,,,,
,,,,,,,,,,,,,FF,,,,,,,,0.9658,,,,,,,,,,,,,,,,,,,,,,60ff14561039e939a18f144d,61036966e86cce9c8acb7dcb,2021-07-29_22h53.13.922,Simcolourproject_2stim_asymm_v5,2020.2.10,Linux x86_64,60,61025ae37ef11b136ea224fe,,,,,,,,,1803,83,36,1,0,0,response1disk,,6,-32,3,1,0,0,rectangle,-32,3,1,0,0,-32,3,1,0,0,0,141,141,22,1,,,,,,,,
,,,,,,,,,,,,,FF,,,,,,,,0.8993,,,,,,,,,,,,,,,,,,,,,,60ff14561039e939a18f144d,61036966e86cce9c8acb7dcb,2021-07-29_22h53.13.922,Simcolourproject_2stim_asymm_v5,2020.2.10,Linux x86_64,60,61025ae37ef11b136ea224fe,,,,,,,,,518,87,32,1,0,0,response1disk,,6,2,-9,1,0,0,rectangle,2,-9,1,0,0,2,-9,1,0,0,0,142,142,125,1,,,,,,,,
,,,,,,,,,,,,,FF,,,,,,,,1.2323,,,,,,,,,,,,,,,,,,,,,,60ff14561039e939a18f144d,61036966e86cce9c8acb7dcb,2021-07-29_22h53.13.922,Simcolourproject_2stim_asymm_v5,2020.2.10,Linux x86_64,60,61025ae37ef11b136ea224fe,,,,,,,,,2486,-46,-90,1,0,0,response5disk,,3,0,6,1,0,0,rectangle,0,6,1,0,0,0,6,1,0,0,0,143,143,157,1,,,,,,,,
,,,,,,,,,,,,,FF,,,,,,,,1.7651,,,,,,,,,,,,,,,,,,,,,,60ff14561039e939a18f144d,61036966e86cce9c8acb7dcb,2021-07-29_22h53.13.922,Simcolourproject_2stim_asymm_v5,2020.2.10,Linux x86_64,60,61025ae37ef11b136ea224fe,,,,,,,,,940,68,114,1,0,0,response1disk,,7,4,-2,1,0,0,rectangle,4,-2,1,0,0,4,-2,1,0,0,0,144,144,41,1,,,,,,,,
,,,,,,,,,,,,,FF,,,,,,,,1.4504,,,,,,,,,,,,,,,,,,,,,,60ff14561039e939a18f144d,61036966e86cce9c8acb7dcb,2021-07-29_22h53.13.922,Simcolourproject_2stim_asymm_v5,2020.2.10,Linux x86_64,60,61025ae37ef11b136ea224fe,,,,,,,,,3063,82,-60,1,0,0,response3disk,,5,5,-8,1,0,0,rectangle,5,-8,1,0,0,5,-8,1,0,0,0,145,145,138,1,,,,,,,,
,,,,,,,,,,,,,FF,,,,,,,,0.9829,,,,,,,,,,,,,,,,,,,,,,60ff14561039e939a18f144d,61036966e86cce9c8acb7dcb,2021-07-29_22h53.13.922,Simcolourproject_2stim_asymm_v5,2020.2.10,Linux x86_64,60,61025ae37ef11b136ea224fe,,,,,,,,,145,37,85,1,0,0,response1disk,,7,-13,1,1,0,0,rectangle,-13,1,1,0,0,-13,1,1,0,0,0,146,146,103,1,,,,,,,,
,,,,,,,,,,,,,FF,,,,,,,,1.2672,,,,,,,,,,,,,,,,,,,,,,60ff14561039e939a18f144d,61036966e86cce9c8acb7dcb,2021-07-29_22h53.13.922,Simcolourproject_2stim_asymm_v5,2020.2.10,Linux x86_64,60,61025ae37ef11b136ea224fe,,,,,,,,,1822,-80,41,1,0,0,response7disk,,1,1,3,1,0,0,rectangle,1,3,1,0,0,1,3,1,0,0,0,147,147,23,1,,,,,,,,
,,,,,,,,,,,,,FF,,,,,,,,1.068,,,,,,,,,,,,,,,,,,,,,,60ff14561039e939a18f144d,61036966e86cce9c8acb7dcb,2021-07-29_22h53.13.922,Simcolourproject_2stim_asymm_v5,2020.2.10,Linux x86_64,60,61025ae37ef11b136ea224fe,,,,,,,,,1460,-90,40,1,0,0,response7disk,,1,6,-8,1,0,0,rectangle,6,-8,1,0,0,6,-8,1,0,0,0,148,148,57,1,,,,,,,,
,,,,,,,,,,,,,FF,,,,,,,,1.4491,,,,,,,,,,,,,,,,,,,,,,60ff14561039e939a18f144d,61036966e86cce9c8acb7dcb,2021-07-29_22h53.13.922,Simcolourproject_2stim_asymm_v5,2020.2.10,Linux x86_64,60,61025ae37ef11b136ea224fe,,,,,,,,,3098,-78,34,1,0,0,response7disk,,1,-1,1,1,0,0,rectangle,-1,1,1,0,0,-1,1,1,0,0,0,149,149,20,1,,,,,,,,
,,,,,,,,,,,,,FF,,,,,,,,1.5326,,,,,,,,,,,,,,,,,,,,,,60ff14561039e939a18f144d,61036966e86cce9c8acb7dcb,2021-07-29_22h53.13.922,Simcolourproject_2stim_asymm_v5,2020.2.10,Linux x86_64,60,61025ae37ef11b136ea224fe,,,,,,,,,3211,-26,-66,1,0,0,response5disk,,3,10,3,1,0,0,rectangle,10,3,1,0,0,10,3,1,0,0,0,150,150,116,1,,,,,,,,
,,,,,,,,,,,,,FF,,,,,,,,1.0167,,,,,,,,,,,,,,,,,,,,,,60ff14561039e939a18f144d,61036966e86cce9c8acb7dcb,2021-07-29_22h53.13.922,Simcolourproject_2stim_asymm_v5,2020.2.10,Linux x86_64,60,61025ae37ef11b136ea224fe,,,,,,,,,1854,30,71,1,0,0,response1disk,,7,-6,0,1,0,0,rectangle,-6,0,1,0,0,-6,0,1,0,0,0,151,151,10,1,,,,,,,,
,,,,,,,,,,,,,FF,,,,,,,,2.4318,,,,,,,,,,,,,,,,,,,,,,60ff14561039e939a18f144d,61036966e86cce9c8acb7dcb,2021-07-29_22h53.13.922,Simcolourproject_2stim_asymm_v5,2020.2.10,Linux x86_64,60,61025ae37ef11b136ea224fe,,,,,,,,,1281,75,-32,1,0,0,response3disk,,5,11,-12,1,0,0,rectangle,11,-12,1,0,0,11,-12,1,0,0,0,152,152,140,1,,,,,,,,
,,,,,,,,,,,,,FF,,,,,,,,1.7651,,,,,,,,,,,,,,,,,,,,,,60ff14561039e939a18f144d,61036966e86cce9c8acb7dcb,2021-07-29_22h53.13.922,Simcolourproject_2stim_asymm_v5,2020.2.10,Linux x86_64,60,61025ae37ef11b136ea224fe,,,,,,,,,23,-30,-73,1,0,0,response5disk,,3,-11,-1,1,0,0,rectangle,-11,-1,1,0,0,-11,-1,1,0,0,0,153,153,111,1,,,,,,,,
,,,,,,,,,,,,,FF,,,,,,,,0.9496,,,,,,,,,,,,,,,,,,,,,,60ff14561039e939a18f144d,61036966e86cce9c8acb7dcb,2021-07-29_22h53.13.922,Simcolourproject_2stim_asymm_v5,2020.2.10,Linux x86_64,60,61025ae37ef11b136ea224fe,,,,,,,,,4040,35,73,1,0,0,response1disk,,7,7,-2,1,0,0,rectangle,7,-2,1,0,0,7,-2,1,0,0,0,154,154,39,1,,,,,,,,
,,,,,,,,,,,,,FF,,,,,,,,0.8512,,,,,,,,,,,,,,,,,,,,,,60ff14561039e939a18f144d,61036966e86cce9c8acb7dcb,2021-07-29_22h53.13.922,Simcolourproject_2stim_asymm_v5,2020.2.10,Linux x86_64,60,61025ae37ef11b136ea224fe,,,,,,,,,3581,26,54,1,0,0,response1disk,,7,-5,-12,1,0,0,rectangle,-5,-12,1,0,0,-5,-12,1,0,0,0,155,155,143,1,,,,,,,,
,,,,,,,,,,,,,FF,,,,,,,,1.3987,,,,,,,,,,,,,,,,,,,,,,60ff14561039e939a18f144d,61036966e86cce9c8acb7dcb,2021-07-29_22h53.13.922,Simcolourproject_2stim_asymm_v5,2020.2.10,Linux x86_64,60,61025ae37ef11b136ea224fe,,,,,,,,,2889,-34,-54,1,0,0,response5disk,,3,-10,7,1,0,0,rectangle,-10,7,1,0,0,-10,7,1,0,0,0,156,156,130,1,,,,,,,,
,,,,,,,,,,,,,FF,,,,,,,,1.4987,,,,,,,,,,,,,,,,,,,,,,60ff14561039e939a18f144d,61036966e86cce9c8acb7dcb,2021-07-29_22h53.13.922,Simcolourproject_2stim_asymm_v5,2020.2.10,Linux x86_64,60,61025ae37ef11b136ea224fe,,,,,,,,,1761,46,-82,1,0,0,response3disk,,4,9,4,1,0,0,rectangle,9,4,1,0,0,9,4,1,0,0,0,157,157,72,1,,,,,,,,
,,,,,,,,,,,,,FF,,,,,,,,1.3827,,,,,,,,,,,,,,,,,,,,,,60ff14561039e939a18f144d,61036966e86cce9c8acb7dcb,2021-07-29_22h53.13.922,Simcolourproject_2stim_asymm_v5,2020.2.10,Linux x86_64,60,61025ae37ef11b136ea224fe,,,,,,,,,3282,-76,-48,1,0,0,response5disk,,2,-26,-1,1,0,0,rectangle,-26,-1,1,0,0,-26,-1,1,0,0,0,158,158,124,1,,,,,,,,
,,,,,,,,,,,,,FF,,,,,,,,1.0662,,,,,,,,,,,,,,,,,,,,,,60ff14561039e939a18f144d,61036966e86cce9c8acb7dcb,2021-07-29_22h53.13.922,Simcolourproject_2stim_asymm_v5,2020.2.10,Linux x86_64,60,61025ae37ef11b136ea224fe,,,,,,,,,2809,29,80,1,0,0,response1disk,,7,-10,1,1,0,0,rectangle,-10,1,1,0,0,-10,1,1,0,0,0,159,159,132,1,,,,,,,,
,,,,,,,,,,,,,FF,,,,,,,,1.2825,,,,,,,,,,,,,,,,,,,,,,60ff14561039e939a18f144d,61036966e86cce9c8acb7dcb,2021-07-29_22h53.13.922,Simcolourproject_2stim_asymm_v5,2020.2.10,Linux x86_64,60,61025ae37ef11b136ea224fe,,,,,,,,,563,-57,-47,1,0,0,response5disk,,2,3,-6,1,0,0,rectangle,3,-6,1,0,0,3,-6,1,0,0,1,0,160,12,1,,,,,,,,
,,,,,,,,,,,,,FF,,,,,,,,1.0319,,,,,,,,,,,,,,,,,,,,,,60ff14561039e939a18f144d,61036966e86cce9c8acb7dcb,2021-07-29_22h53.13.922,Simcolourproject_2stim_asymm_v5,2020.2.10,Linux x86_64,60,61025ae37ef11b136ea224fe,,,,,,,,,1287,-74,-48,1,0,0,response5disk,,2,14,9,1,0,0,rectangle,14,9,1,0,0,14,9,1,0,0,1,1,161,148,1,,,,,,,,
,,,,,,,,,,,,,FF,,,,,,,,1.1329,,,,,,,,,,,,,,,,,,,,,,60ff14561039e939a18f144d,61036966e86cce9c8acb7dcb,2021-07-29_22h53.13.922,Simcolourproject_2stim_asymm_v5,2020.2.10,Linux x86_64,60,61025ae37ef11b136ea224fe,,,,,,,,,4276,85,-27,1,0,0,response3disk,,5,-16,7,1,0,0,rectangle,-16,7,1,0,0,-16,7,1,0,0,1,2,162,48,1,,,,,,,,
,,,,,,,,,,,,,FF,,,,,,,,2.8147,,,,,,,,,,,,,,,,,,,,,,60ff14561039e939a18f144d,61036966e86cce9c8acb7dcb,2021-07-29_22h53.13.922,Simcolourproject_2stim_asymm_v5,2020.2.10,Linux x86_64,60,61025ae37ef11b136ea224fe,,,,,,,,,3625,43,-58,1,0,0,response3disk,,4,15,-3,1,0,0,rectangle,85,-43,1,0,0,8,-5,1,0,0,1,3,163,84,1,,response3disk_3,TRUE,5,5,"[128,293,30,37,315,77,246,286,129,115,203,212,54,164,195,231,38,47,171,130]",1.3497,rectangle
,,,,,,,,,,,,,FF,,,,,,,,0.9669,,,,,,,,,,,,,,,,,,,,,,60ff14561039e939a18f144d,61036966e86cce9c8acb7dcb,2021-07-29_22h53.13.922,Simcolourproject_2stim_asymm_v5,2020.2.10,Linux x86_64,60,61025ae37ef11b136ea224fe,,,,,,,,,107,86,-24,1,0,0,response3disk,,5,3,-6,1,0,0,rectangle,3,-6,1,0,0,3,-6,1,0,0,1,4,164,149,1,,,,,,,,
,,,,,,,,,,,,,FF,,,,,,,,1.2184,,,,,,,,,,,,,,,,,,,,,,60ff14561039e939a18f144d,61036966e86cce9c8acb7dcb,2021-07-29_22h53.13.922,Simcolourproject_2stim_asymm_v5,2020.2.10,Linux x86_64,60,61025ae37ef11b136ea224fe,,,,,,,,,276,-46,82,1,0,0,response7disk,,0,-1,-1,1,0,0,rectangle,-1,-1,1,0,0,-1,-1,1,0,0,1,5,165,128,1,,,,,,,,
,,,,,,,,,,,,,FF,,,,,,,,1.666,,,,,,,,,,,,,,,,,,,,,,60ff14561039e939a18f144d,61036966e86cce9c8acb7dcb,2021-07-29_22h53.13.922,Simcolourproject_2stim_asymm_v5,2020.2.10,Linux x86_64,60,61025ae37ef11b136ea224fe,,,,,,,,,1303,-80,-41,1,0,0,response5disk,,2,0,-6,1,0,0,rectangle,0,-6,1,0,0,0,-6,1,0,0,1,6,166,43,1,,,,,,,,
,,,,,,,,,,,,,FF,,,,,,,,0.8666,,,,,,,,,,,,,,,,,,,,,,60ff14561039e939a18f144d,61036966e86cce9c8acb7dcb,2021-07-29_22h53.13.922,Simcolourproject_2stim_asymm_v5,2020.2.10,Linux x86_64,60,61025ae37ef11b136ea224fe,,,,,,,,,496,48,110,1,0,0,response1disk,,7,-11,10,1,0,0,rectangle,-11,10,1,0,0,-11,10,1,0,0,1,7,167,3,1,,,,,,,,
,,,,,,,,,,,,,FF,,,,,,,,0.9828,,,,,,,,,,,,,,,,,,,,,,60ff14561039e939a18f144d,61036966e86cce9c8acb7dcb,2021-07-29_22h53.13.922,Simcolourproject_2stim_asymm_v5,2020.2.10,Linux x86_64,60,61025ae37ef11b136ea224fe,,,,,,,,,1554,37,69,1,0,0,response1disk,,7,1,-1,1,0,0,rectangle,1,-1,1,0,0,1,-1,1,0,0,1,8,168,117,1,,,,,,,,
,,,,,,,,,,,,,FF,,,,,,,,1.2996,,,,,,,,,,,,,,,,,,,,,,60ff14561039e939a18f144d,61036966e86cce9c8acb7dcb,2021-07-29_22h53.13.922,Simcolourproject_2stim_asymm_v5,2020.2.10,Linux x86_64,60,61025ae37ef11b136ea224fe,,,,,,,,,2375,27,64,1,0,0,response1disk,,7,7,5,1,0,0,rectangle,7,5,1,0,0,7,5,1,0,0,1,9,169,143,1,,,,,,,,
,,,,,,,,,,,,,FF,,,,,,,,2.0815,,,,,,,,,,,,,,,,,,,,,,60ff14561039e939a18f144d,61036966e86cce9c8acb7dcb,2021-07-29_22h53.13.922,Simcolourproject_2stim_asymm_v5,2020.2.10,Linux x86_64,60,61025ae37ef11b136ea224fe,,,,,,,,,1007,54,97,1,0,0,response1disk,,7,-16,-6,1,0,0,rectangle,33,66,1,0,0,1,-3,1,0,0,1,10,170,20,1,,response1disk_3,TRUE,7,7,"[128,293,30,37,315,77,246,286,129,115,203,212,54,164,195,231,38,47,171,130]",1.865,rectangle
,,,,,,,,,,,,,FF,,,,,,,,1.5157,,,,,,,,,,,,,,,,,,,,,,60ff14561039e939a18f144d,61036966e86cce9c8acb7dcb,2021-07-29_22h53.13.922,Simcolourproject_2stim_asymm_v5,2020.2.10,Linux x86_64,60,61025ae37ef11b136ea224fe,,,,,,,,,3238,-64,-46,1,0,0,response5disk,,2,-9,0,1,0,0,rectangle,-9,0,1,0,0,-9,0,1,0,0,1,11,171,115,1,,,,,,,,
,,,,,,,,,,,,,FF,,,,,,,,0.999,,,,,,,,,,,,,,,,,,,,,,60ff14561039e939a18f144d,61036966e86cce9c8acb7dcb,2021-07-29_22h53.13.922,Simcolourproject_2stim_asymm_v5,2020.2.10,Linux x86_64,60,61025ae37ef11b136ea224fe,,,,,,,,,4055,40,81,1,0,0,response1disk,,7,-13,-1,1,0,0,rectangle,-13,-1,1,0,0,-13,-1,1,0,0,1,12,172,73,1,,,,,,,,
,,,,,,,,,,,,,FF,,,,,,,,1.4486,,,,,,,,,,,,,,,,,,,,,,60ff14561039e939a18f144d,61036966e86cce9c8acb7dcb,2021-07-29_22h53.13.922,Simcolourproject_2stim_asymm_v5,2020.2.10,Linux x86_64,60,61025ae37ef11b136ea224fe,,,,,,,,,208,50,77,1,0,0,response1disk,,7,26,-4,1,0,0,rectangle,26,-4,1,0,0,26,-4,1,0,0,1,13,173,129,1,,,,,,,,
,,,,,,,,,,,,,FF,,,,,,,,1.2163,,,,,,,,,,,,,,,,,,,,,,60ff14561039e939a18f144d,61036966e86cce9c8acb7dcb,2021-07-29_22h53.13.922,Simcolourproject_2stim_asymm_v5,2020.2.10,Linux x86_64,60,61025ae37ef11b136ea224fe,,,,,,,,,3152,88,42,1,0,0,response1disk,,6,11,-4,1,0,0,rectangle,11,-4,1,0,0,11,-4,1,0,0,1,14,174,85,1,,,,,,,,
,,,,,,,,,,,,,FF,,,,,,,,1.483,,,,,,,,,,,,,,,,,,,,,,60ff14561039e939a18f144d,61036966e86cce9c8acb7dcb,2021-07-29_22h53.13.922,Simcolourproject_2stim_asymm_v5,2020.2.10,Linux x86_64,60,61025ae37ef11b136ea224fe,,,,,,,,,2897,82,-38,1,0,0,response3disk,,5,-15,8,1,0,0,rectangle,-15,8,1,0,0,-15,8,1,0,0,1,15,175,140,1,,,,,,,,
,,,,,,,,,,,,,FF,,,,,,,,0.9165,,,,,,,,,,,,,,,,,,,,,,60ff14561039e939a18f144d,61036966e86cce9c8acb7dcb,2021-07-29_22h53.13.922,Simcolourproject_2stim_asymm_v5,2020.2.10,Linux x86_64,60,61025ae37ef11b136ea224fe,,,,,,,,,3693,30,79,1,0,0,response1disk,,7,-16,-8,1,0,0,rectangle,-16,-8,1,0,0,-16,-8,1,0,0,1,16,176,26,1,,,,,,,,
,,,,,,,,,,,,,FF,,,,,,,,2.048,,,,,,,,,,,,,,,,,,,,,,60ff14561039e939a18f144d,61036966e86cce9c8acb7dcb,2021-07-29_22h53.13.922,Simcolourproject_2stim_asymm_v5,2020.2.10,Linux x86_64,60,61025ae37ef11b136ea224fe,,,,,,,,,2569,35,71,1,0,0,response1disk,,7,-11,-7,1,0,0,rectangle,-11,-7,1,0,0,-11,-7,1,0,0,1,17,177,64,1,,,,,,,,
,,,,,,,,,,,,,FF,,,,,,,,2.0493,,,,,,,,,,,,,,,,,,,,,,60ff14561039e939a18f144d,61036966e86cce9c8acb7dcb,2021-07-29_22h53.13.922,Simcolourproject_2stim_asymm_v5,2020.2.10,Linux x86_64,60,61025ae37ef11b136ea224fe,,,,,,,,,2906,81,42,1,0,0,response1disk,,6,1,-11,1,0,0,rectangle,1,-11,1,0,0,1,-11,1,0,0,1,18,178,91,1,,,,,,,,
,,,,,,,,,,,,,FF,,,,,,,,0.8679,,,,,,,,,,,,,,,,,,,,,,60ff14561039e939a18f144d,61036966e86cce9c8acb7dcb,2021-07-29_22h53.13.922,Simcolourproject_2stim_asymm_v5,2020.2.10,Linux x86_64,60,61025ae37ef11b136ea224fe,,,,,,,,,404,38,73,1,0,0,response1disk,,7,1,-4,1,0,0,rectangle,1,-4,1,0,0,1,-4,1,0,0,1,19,179,102,1,,,,,,,,
,,,,,,,,,,,,,FF,,,,,,,,1.6494,,,,,,,,,,,,,,,,,,,,,,60ff14561039e939a18f144d,61036966e86cce9c8acb7dcb,2021-07-29_22h53.13.922,Simcolourproject_2stim_asymm_v5,2020.2.10,Linux x86_64,60,61025ae37ef11b136ea224fe,,,,,,,,,2029,-85,-40,1,0,0,response5disk,,2,3,-2,1,0,0,rectangle,3,-2,1,0,0,3,-2,1,0,0,1,20,180,124,1,,,,,,,,
,,,,,,,,,,,,,FF,,,,,,,,1.1182,,,,,,,,,,,,,,,,,,,,,,60ff14561039e939a18f144d,61036966e86cce9c8acb7dcb,2021-07-29_22h53.13.922,Simcolourproject_2stim_asymm_v5,2020.2.10,Linux x86_64,60,61025ae37ef11b136ea224fe,,,,,,,,,2106,-69,-47,1,0,0,response5disk,,2,7,2,1,0,0,rectangle,7,2,1,0,0,7,2,1,0,0,1,21,181,30,1,,,,,,,,
,,,,,,,,,,,,,FF,,,,,,,,2.5153,,,,,,,,,,,,,,,,,,,,,,60ff14561039e939a18f144d,61036966e86cce9c8acb7dcb,2021-07-29_22h53.13.922,Simcolourproject_2stim_asymm_v5,2020.2.10,Linux x86_64,60,61025ae37ef11b136ea224fe,,,,,,,,,2385,75,-20,1,0,0,response3disk,,5,1,1,1,0,0,rectangle,1,1,1,0,0,1,1,1,0,0,1,22,182,97,1,,,,,,,,
,,,,,,,,,,,,,FF,,,,,,,,0.8507,,,,,,,,,,,,,,,,,,,,,,60ff14561039e939a18f144d,61036966e86cce9c8acb7dcb,2021-07-29_22h53.13.922,Simcolourproject_2stim_asymm_v5,2020.2.10,Linux x86_64,60,61025ae37ef11b136ea224fe,,,,,,,,,333,41,98,1,0,0,response1disk,,7,1,3,1,0,0,rectangle,1,3,1,0,0,1,3,1,0,0,1,23,183,47,1,,,,,,,,
,,,,,,,,,,,,,FF,,,,,,,,1.4497,,,,,,,,,,,,,,,,,,,,,,60ff14561039e939a18f144d,61036966e86cce9c8acb7dcb,2021-07-29_22h53.13.922,Simcolourproject_2stim_asymm_v5,2020.2.10,Linux x86_64,60,61025ae37ef11b136ea224fe,,,,,,,,,869,-44,-101,1,0,0,response5disk,,3,2,2,1,0,0,rectangle,2,2,1,0,0,2,2,1,0,0,1,24,184,19,1,,,,,,,,
,,,,,,,,,,,,,FF,,,,,,,,1.7659,,,,,,,,,,,,,,,,,,,,,,60ff14561039e939a18f144d,61036966e86cce9c8acb7dcb,2021-07-29_22h53.13.922,Simcolourproject_2stim_asymm_v5,2020.2.10,Linux x86_64,60,61025ae37ef11b136ea224fe,,,,,,,,,1954,37,-88,1,0,0,response3disk,,4,1,-1,1,0,0,rectangle,1,-1,1,0,0,1,-1,1,0,0,1,25,185,6,1,,,,,,,,
,,,,,,,,,,,,,FF,,,,,,,,0.767,,,,,,,,,,,,,,,,,,,,,,60ff14561039e939a18f144d,61036966e86cce9c8acb7dcb,2021-07-29_22h53.13.922,Simcolourproject_2stim_asymm_v5,2020.2.10,Linux x86_64,60,61025ae37ef11b136ea224fe,,,,,,,,,2624,37,80,1,0,0,response1disk,,7,-10,-5,1,0,0,rectangle,-10,-5,1,0,0,-10,-5,1,0,0,1,26,186,17,1,,,,,,,,
,,,,,,,,,,,,,FF,,,,,,,,1.4658,,,,,,,,,,,,,,,,,,,,,,60ff14561039e939a18f144d,61036966e86cce9c8acb7dcb,2021-07-29_22h53.13.922,Simcolourproject_2stim_asymm_v5,2020.2.10,Linux x86_64,60,61025ae37ef11b136ea224fe,,,,,,,,,4145,-97,-37,1,0,0,response5disk,,2,-11,-2,1,0,0,rectangle,-11,-2,1,0,0,-11,-2,1,0,0,1,27,187,76,1,,,,,,,,
,,,,,,,,,,,,,FF,,,,,,,,1.6826,,,,,,,,,,,,,,,,,,,,,,60ff14561039e939a18f144d,61036966e86cce9c8acb7dcb,2021-07-29_22h53.13.922,Simcolourproject_2stim_asymm_v5,2020.2.10,Linux x86_64,60,61025ae37ef11b136ea224fe,,,,,,,,,357,41,72,1,0,0,response1disk,,7,-19,3,1,0,0,rectangle,-19,3,1,0,0,-19,3,1,0,0,1,28,188,40,1,,,,,,,,
,,,,,,,,,,,,,FF,,,,,,,,1.4657,,,,,,,,,,,,,,,,,,,,,,60ff14561039e939a18f144d,61036966e86cce9c8acb7dcb,2021-07-29_22h53.13.922,Simcolourproject_2stim_asymm_v5,2020.2.10,Linux x86_64,60,61025ae37ef11b136ea224fe,,,,,,,,,988,-49,-73,1,0,0,response5disk,,3,-12,-5,1,0,0,rectangle,-12,-5,1,0,0,-12,-5,1,0,0,1,29,189,78,1,,,,,,,,
,,,,,,,,,,,,,FF,,,,,,,,0.9324,,,,,,,,,,,,,,,,,,,,,,60ff14561039e939a18f144d,61036966e86cce9c8acb7dcb,2021-07-29_22h53.13.922,Simcolourproject_2stim_asymm_v5,2020.2.10,Linux x86_64,60,61025ae37ef11b136ea224fe,,,,,,,,,4305,-44,74,1,0,0,response7disk,,0,4,-1,1,0,0,rectangle,4,-1,1,0,0,4,-1,1,0,0,1,30,190,153,1,,,,,,,,
,,,,,,,,,,,,,FF,,,,,,,,1.0987,,,,,,,,,,,,,,,,,,,,,,60ff14561039e939a18f144d,61036966e86cce9c8acb7dcb,2021-07-29_22h53.13.922,Simcolourproject_2stim_asymm_v5,2020.2.10,Linux x86_64,60,61025ae37ef11b136ea224fe,,,,,,,,,994,-33,-69,1,0,0,response5disk,,3,-2,-7,1,0,0,rectangle,-2,-7,1,0,0,-2,-7,1,0,0,1,31,191,126,1,,,,,,,,
,,,,,,,,,,,,,FF,,,,,,,,1.4696,,,,,,,,,,,,,,,,,,,,,,60ff14561039e939a18f144d,61036966e86cce9c8acb7dcb,2021-07-29_22h53.13.922,Simcolourproject_2stim_asymm_v5,2020.2.10,Linux x86_64,60,61025ae37ef11b136ea224fe,,,,,,,,,2558,84,41,1,0,0,response1disk,,6,-6,0,1,0,0,rectangle,-6,0,1,0,0,-6,0,1,0,0,1,32,192,118,1,,,,,,,,
,,,,,,,,,,,,,FF,,,,,,,,0.983,,,,,,,,,,,,,,,,,,,,,,60ff14561039e939a18f144d,61036966e86cce9c8acb7dcb,2021-07-29_22h53.13.922,Simcolourproject_2stim_asymm_v5,2020.2.10,Linux x86_64,60,61025ae37ef11b136ea224fe,,,,,,,,,1714,104,51,1,0,0,response1disk,,6,-5,-3,1,0,0,rectangle,-5,-3,1,0,0,-5,-3,1,0,0,1,33,193,23,1,,,,,,,,
,,,,,,,,,,,,,FF,,,,,,,,1,,,,,,,,,,,,,,,,,,,,,,60ff14561039e939a18f144d,61036966e86cce9c8acb7dcb,2021-07-29_22h53.13.922,Simcolourproject_2stim_asymm_v5,2020.2.10,Linux x86_64,60,61025ae37ef11b136ea224fe,,,,,,,,,3617,40,74,1,0,0,response1disk,,7,-2,-7,1,0,0,rectangle,81,-49,1,0,0,2,-6,1,0,0,1,34,194,46,1,,response3disk_3,TRUE,5,5,"[128,293,30,37,315,77,246,286,129,115,203,212,54,164,195,231,38,47,171,130]",1.3823,rectangle
,,,,,,,,,,,,,FF,,,,,,,,1.1826,,,,,,,,,,,,,,,,,,,,,,60ff14561039e939a18f144d,61036966e86cce9c8acb7dcb,2021-07-29_22h53.13.922,Simcolourproject_2stim_asymm_v5,2020.2.10,Linux x86_64,60,61025ae37ef11b136ea224fe,,,,,,,,,2376,-63,-76,1,0,0,response5disk,,3,-15,-4,1,0,0,rectangle,-15,-4,1,0,0,-15,-4,1,0,0,1,35,195,92,1,,,,,,,,
,,,,,,,,,,,,,FF,,,,,,,,1.3328,,,,,,,,,,,,,,,,,,,,,,60ff14561039e939a18f144d,61036966e86cce9c8acb7dcb,2021-07-29_22h53.13.922,Simcolourproject_2stim_asymm_v5,2020.2.10,Linux x86_64,60,61025ae37ef11b136ea224fe,,,,,,,,,2135,48,67,1,0,0,response1disk,,7,-16,-8,1,0,0,rectangle,-16,-8,1,0,0,-16,-8,1,0,0,1,36,196,113,1,,,,,,,,
,,,,,,,,,,,,,FF,,,,,,,,1.1364,,,,,,,,,,,,,,,,,,,,,,60ff14561039e939a18f144d,61036966e86cce9c8acb7dcb,2021-07-29_22h53.13.922,Simcolourproject_2stim_asymm_v5,2020.2.10,Linux x86_64,60,61025ae37ef11b136ea224fe,,,,,,,,,4362,-47,72,1,0,0,response7disk,,0,0,-3,1,0,0,rectangle,0,-3,1,0,0,0,-3,1,0,0,1,37,197,112,1,,,,,,,,
,,,,,,,,,,,,,FF,,,,,,,,2.1652,,,,,,,,,,,,,,,,,,,,,,60ff14561039e939a18f144d,61036966e86cce9c8acb7dcb,2021-07-29_22h53.13.922,Simcolourproject_2stim_asymm_v5,2020.2.10,Linux x86_64,60,61025ae37ef11b136ea224fe,,,,,,,,,793,43,-63,1,0,0,response3disk,,4,1,-7,1,0,0,rectangle,1,-7,1,0,0,1,-7,1,0,0,1,38,198,70,1,,,,,,,,
,,,,,,,,,,,,,FF,,,,,,,,1.0324,,,,,,,,,,,,,,,,,,,,,,60ff14561039e939a18f144d,61036966e86cce9c8acb7dcb,2021-07-29_22h53.13.922,Simcolourproject_2stim_asymm_v5,2020.2.10,Linux x86_64,60,61025ae37ef11b136ea224fe,,,,,,,,,1238,27,-64,1,0,0,response3disk,,4,1,-5,1,0,0,rectangle,1,-5,1,0,0,1,-5,1,0,0,1,39,199,50,1,,,,,,,,
,,,,,,,,,,,,,FF,,,,,,,,1.4165,,,,,,,,,,,,,,,,,,,,,,60ff14561039e939a18f144d,61036966e86cce9c8acb7dcb,2021-07-29_22h53.13.922,Simcolourproject_2stim_asymm_v5,2020.2.10,Linux x86_64,60,61025ae37ef11b136ea224fe,,,,,,,,,3037,-69,37,1,0,0,response7disk,,1,6,1,1,0,0,rectangle,6,1,1,0,0,6,1,1,0,0,1,40,200,127,1,,,,,,,,
,,,,,,,,,,,,,FF,,,,,,,,1.9476,,,,,,,,,,,,,,,,,,,,,,60ff14561039e939a18f144d,61036966e86cce9c8acb7dcb,2021-07-29_22h53.13.922,Simcolourproject_2stim_asymm_v5,2020.2.10,Linux x86_64,60,61025ae37ef11b136ea224fe,,,,,,,,,2535,61,-92,1,0,0,response3disk,,4,-4,-12,1,0,0,rectangle,-4,-12,1,0,0,-4,-12,1,0,0,1,41,201,122,1,,,,,,,,
,,,,,,,,,,,,,FF,,,,,,,,1.5823,,,,,,,,,,,,,,,,,,,,,,60ff14561039e939a18f144d,61036966e86cce9c8acb7dcb,2021-07-29_22h53.13.922,Simcolourproject_2stim_asymm_v5,2020.2.10,Linux x86_64,60,61025ae37ef11b136ea224fe,,,,,,,,,1586,87,35,1,0,0,response1disk,,6,-7,-1,1,0,0,rectangle,42,79,1,0,0,3,0,1,0,0,1,42,202,66,1,,response1disk_3,TRUE,7,7,"[128,293,30,37,315,77,246,286,129,115,203,212,54,164,195,231,38,47,171,130]",1.9495,rectangle
,,,,,,,,,,,,,FF,,,,,,,,1.151,,,,,,,,,,,,,,,,,,,,,,60ff14561039e939a18f144d,61036966e86cce9c8acb7dcb,2021-07-29_22h53.13.922,Simcolourproject_2stim_asymm_v5,2020.2.10,Linux x86_64,60,61025ae37ef11b136ea224fe,,,,,,,,,642,-84,-51,1,0,0,response5disk,,2,5,10,1,0,0,rectangle,5,10,1,0,0,5,10,1,0,0,1,43,203,29,1,,,,,,,,
,,,,,,,,,,,,,FF,,,,,,,,1.1326,,,,,,,,,,,,,,,,,,,,,,60ff14561039e939a18f144d,61036966e86cce9c8acb7dcb,2021-07-29_22h53.13.922,Simcolourproject_2stim_asymm_v5,2020.2.10,Linux x86_64,60,61025ae37ef11b136ea224fe,,,,,,,,,188,-85,32,1,0,0,response7disk,,1,-12,-4,1,0,0,rectangle,-12,-4,1,0,0,-12,-4,1,0,0,1,44,204,152,1,,,,,,,,
,,,,,,,,,,,,,FF,,,,,,,,0.8164,,,,,,,,,,,,,,,,,,,,,,60ff14561039e939a18f144d,61036966e86cce9c8acb7dcb,2021-07-29_22h53.13.922,Simcolourproject_2stim_asymm_v5,2020.2.10,Linux x86_64,60,61025ae37ef11b136ea224fe,,,,,,,,,722,-86,29,1,0,0,response7disk,,1,-6,-11,1,0,0,rectangle,-6,-11,1,0,0,-6,-11,1,0,0,1,45,205,52,1,,,,,,,,
,,,,,,,,,,,,,FF,,,,,,,,1.4493,,,,,,,,,,,,,,,,,,,,,,60ff14561039e939a18f144d,61036966e86cce9c8acb7dcb,2021-07-29_22h53.13.922,Simcolourproject_2stim_asymm_v5,2020.2.10,Linux x86_64,60,61025ae37ef11b136ea224fe,,,,,,,,,428,76,37,1,0,0,response1disk,,6,-17,-4,1,0,0,rectangle,-17,-4,1,0,0,-17,-4,1,0,0,1,46,206,4,1,,,,,,,,
,,,,,,,,,,,,,FF,,,,,,,,1.0686,,,,,,,,,,,,,,,,,,,,,,60ff14561039e939a18f144d,61036966e86cce9c8acb7dcb,2021-07-29_22h53.13.922,Simcolourproject_2stim_asymm_v5,2020.2.10,Linux x86_64,60,61025ae37ef11b136ea224fe,,,,,,,,,433,85,42,1,0,0,response1disk,,6,3,-4,1,0,0,rectangle,3,-4,1,0,0,3,-4,1,0,0,1,47,207,33,1,,,,,,,,
,,,,,,,,,,,,,FF,,,,,,,,1.1832,,,,,,,,,,,,,,,,,,,,,,60ff14561039e939a18f144d,61036966e86cce9c8acb7dcb,2021-07-29_22h53.13.922,Simcolourproject_2stim_asymm_v5,2020.2.10,Linux x86_64,60,61025ae37ef11b136ea224fe,,,,,,,,,190,-96,-56,1,0,0,response5disk,,2,1,-3,1,0,0,rectangle,1,-3,1,0,0,1,-3,1,0,0,1,48,208,18,1,,,,,,,,
,,,,,,,,,,,,,FF,,,,,,,,0.9994,,,,,,,,,,,,,,,,,,,,,,60ff14561039e939a18f144d,61036966e86cce9c8acb7dcb,2021-07-29_22h53.13.922,Simcolourproject_2stim_asymm_v5,2020.2.10,Linux x86_64,60,61025ae37ef11b136ea224fe,,,,,,,,,1604,-77,43,1,0,0,response7disk,,1,1,3,1,0,0,rectangle,1,3,1,0,0,1,3,1,0,0,1,49,209,51,1,,,,,,,,
,,,,,,,,,,,,,FF,,,,,,,,0.9,,,,,,,,,,,,,,,,,,,,,,60ff14561039e939a18f144d,61036966e86cce9c8acb7dcb,2021-07-29_22h53.13.922,Simcolourproject_2stim_asymm_v5,2020.2.10,Linux x86_64,60,61025ae37ef11b136ea224fe,,,,,,,,,222,74,-35,1,0,0,response3disk,,5,27,4,1,0,0,rectangle,27,4,1,0,0,27,4,1,0,0,1,50,210,59,1,,,,,,,,
,,,,,,,,,,,,,FF,,,,,,,,0.9161,,,,,,,,,,,,,,,,,,,,,,60ff14561039e939a18f144d,61036966e86cce9c8acb7dcb,2021-07-29_22h53.13.922,Simcolourproject_2stim_asymm_v5,2020.2.10,Linux x86_64,60,61025ae37ef11b136ea224fe,,,,,,,,,2130,37,60,1,0,0,response1disk,,7,17,1,1,0,0,rectangle,58,-78,1,0,0,7,-3,1,0,0,1,51,211,110,1,,response3disk_3,TRUE,4,4,"[128,293,30,37,315,77,246,286,129,115,203,212,54,164,195,231,38,47,171,130]",1.7814,rectangle
,,,,,,,,,,,,,FF,,,,,,,,1.4327,,,,,,,,,,,,,,,,,,,,,,60ff14561039e939a18f144d,61036966e86cce9c8acb7dcb,2021-07-29_22h53.13.922,Simcolourproject_2stim_asymm_v5,2020.2.10,Linux x86_64,60,61025ae37ef11b136ea224fe,,,,,,,,,1690,-85,-46,1,0,0,response5disk,,2,-3,10,1,0,0,rectangle,-3,10,1,0,0,-3,10,1,0,0,1,52,212,5,1,,,,,,,,
,,,,,,,,,,,,,FF,,,,,,,,1.1825,,,,,,,,,,,,,,,,,,,,,,60ff14561039e939a18f144d,61036966e86cce9c8acb7dcb,2021-07-29_22h53.13.922,Simcolourproject_2stim_asymm_v5,2020.2.10,Linux x86_64,60,61025ae37ef11b136ea224fe,,,,,,,,,3720,89,43,1,0,0,response1disk,,6,3,2,1,0,0,rectangle,3,2,1,0,0,3,2,1,0,0,1,53,213,154,1,,,,,,,,
,,,,,,,,,,,,,FF,,,,,,,,0.8346,,,,,,,,,,,,,,,,,,,,,,60ff14561039e939a18f144d,61036966e86cce9c8acb7dcb,2021-07-29_22h53.13.922,Simcolourproject_2stim_asymm_v5,2020.2.10,Linux x86_64,60,61025ae37ef11b136ea224fe,,,,,,,,,3086,24,86,1,0,0,response1disk,,7,-8,11,1,0,0,rectangle,-8,11,1,0,0,-8,11,1,0,0,1,54,214,137,1,,,,,,,,
,,,,,,,,,,,,,FF,,,,,,,,1.0305,,,,,,,,,,,,,,,,,,,,,,60ff14561039e939a18f144d,61036966e86cce9c8acb7dcb,2021-07-29_22h53.13.922,Simcolourproject_2stim_asymm_v5,2020.2.10,Linux x86_64,60,61025ae37ef11b136ea224fe,,,,,,,,,4293,-41,84,1,0,0,response7disk,,0,2,2,1,0,0,rectangle,2,2,1,0,0,2,2,1,0,0,1,55,215,116,1,,,,,,,,
,,,,,,,,,,,,,FF,,,,,,,,1.6009,,,,,,,,,,,,,,,,,,,,,,60ff14561039e939a18f144d,61036966e86cce9c8acb7dcb,2021-07-29_22h53.13.922,Simcolourproject_2stim_asymm_v5,2020.2.10,Linux x86_64,60,61025ae37ef11b136ea224fe,,,,,,,,,3419,62,-80,1,0,0,response3disk,,4,-7,4,1,0,0,rectangle,-7,4,1,0,0,-7,4,1,0,0,1,56,216,95,1,,,,,,,,
,,,,,,,,,,,,,FF,,,,,,,,0.8665,,,,,,,,,,,,,,,,,,,,,,60ff14561039e939a18f144d,61036966e86cce9c8acb7dcb,2021-07-29_22h53.13.922,Simcolourproject_2stim_asymm_v5,2020.2.10,Linux x86_64,60,61025ae37ef11b136ea224fe,,,,,,,,,1189,38,87,1,0,0,response1disk,,7,1,12,1,0,0,rectangle,1,12,1,0,0,1,12,1,0,0,1,57,217,90,1,,,,,,,,
,,,,,,,,,,,,,FF,,,,,,,,0.9166,,,,,,,,,,,,,,,,,,,,,,60ff14561039e939a18f144d,61036966e86cce9c8acb7dcb,2021-07-29_22h53.13.922,Simcolourproject_2stim_asymm_v5,2020.2.10,Linux x86_64,60,61025ae37ef11b136ea224fe,,,,,,,,,3886,34,83,1,0,0,response1disk,,7,17,15,1,0,0,rectangle,17,15,1,0,0,17,15,1,0,0,1,58,218,89,1,,,,,,,,
,,,,,,,,,,,,,FF,,,,,,,,1.1675,,,,,,,,,,,,,,,,,,,,,,60ff14561039e939a18f144d,61036966e86cce9c8acb7dcb,2021-07-29_22h53.13.922,Simcolourproject_2stim_asymm_v5,2020.2.10,Linux x86_64,60,61025ae37ef11b136ea224fe,,,,,,,,,3341,-85,-52,1,0,0,response5disk,,2,11,5,1,0,0,rectangle,11,5,1,0,0,11,5,1,0,0,1,59,219,109,1,,,,,,,,
,,,,,,,,,,,,,FF,,,,,,,,1.3507,,,,,,,,,,,,,,,,,,,,,,60ff14561039e939a18f144d,61036966e86cce9c8acb7dcb,2021-07-29_22h53.13.922,Simcolourproject_2stim_asymm_v5,2020.2.10,Linux x86_64,60,61025ae37ef11b136ea224fe,,,,,,,,,2618,78,-38,1,0,0,response3disk,,5,26,-6,1,0,0,rectangle,26,-6,1,0,0,26,-6,1,0,0,1,60,220,65,1,,,,,,,,
,,,,,,,,,,,,,FF,,,,,,,,0.8491,,,,,,,,,,,,,,,,,,,,,,60ff14561039e939a18f144d,61036966e86cce9c8acb7dcb,2021-07-29_22h53.13.922,Simcolourproject_2stim_asymm_v5,2020.2.10,Linux x86_64,60,61025ae37ef11b136ea224fe,,,,,,,,,1576,45,56,1,0,0,response1disk,,7,3,-14,1,0,0,rectangle,3,-14,1,0,0,3,-14,1,0,0,1,61,221,100,1,,,,,,,,
,,,,,,,,,,,,,FF,,,,,,,,0.8165,,,,,,,,,,,,,,,,,,,,,,60ff14561039e939a18f144d,61036966e86cce9c8acb7dcb,2021-07-29_22h53.13.922,Simcolourproject_2stim_asymm_v5,2020.2.10,Linux x86_64,60,61025ae37ef11b136ea224fe,,,,,,,,,3324,32,81,1,0,0,response1disk,,7,4,0,1,0,0,rectangle,4,0,1,0,0,4,0,1,0,0,1,62,222,103,1,,,,,,,,
,,,,,,,,,,,,,FF,,,,,,,,0.7333,,,,,,,,,,,,,,,,,,,,,,60ff14561039e939a18f144d,61036966e86cce9c8acb7dcb,2021-07-29_22h53.13.922,Simcolourproject_2stim_asymm_v5,2020.2.10,Linux x86_64,60,61025ae37ef11b136ea224fe,,,,,,,,,232,28,66,1,0,0,response1disk,,7,-9,-3,1,0,0,rectangle,-9,-3,1,0,0,-9,-3,1,0,0,1,63,223,45,1,,,,,,,,
,,,,,,,,,,,,,FF,,,,,,,,0.8878,,,,,,,,,,,,,,,,,,,,,,60ff14561039e939a18f144d,61036966e86cce9c8acb7dcb,2021-07-29_22h53.13.922,Simcolourproject_2stim_asymm_v5,2020.2.10,Linux x86_64,60,61025ae37ef11b136ea224fe,,,,,,,,,1589,-42,-61,1,0,0,response5disk,,3,-25,7,1,0,0,rectangle,-25,7,1,0,0,-25,7,1,0,0,1,64,224,144,1,,,,,,,,
,,,,,,,,,,,,,FF,,,,,,,,1.6166,,,,,,,,,,,,,,,,,,,,,,60ff14561039e939a18f144d,61036966e86cce9c8acb7dcb,2021-07-29_22h53.13.922,Simcolourproject_2stim_asymm_v5,2020.2.10,Linux x86_64,60,61025ae37ef11b136ea224fe,,,,,,,,,3036,85,-21,1,0,0,response3disk,,5,8,7,1,0,0,rectangle,8,7,1,0,0,8,7,1,0,0,1,65,225,125,1,,,,,,,,
,,,,,,,,,,,,,FF,,,,,,,,0.9169,,,,,,,,,,,,,,,,,,,,,,60ff14561039e939a18f144d,61036966e86cce9c8acb7dcb,2021-07-29_22h53.13.922,Simcolourproject_2stim_asymm_v5,2020.2.10,Linux x86_64,60,61025ae37ef11b136ea224fe,,,,,,,,,2183,21,48,1,0,0,response1disk,,7,-6,-12,1,0,0,rectangle,-6,-12,1,0,0,-6,-12,1,0,0,1,66,226,81,1,,,,,,,,
,,,,,,,,,,,,,FF,,,,,,,,0.9513,,,,,,,,,,,,,,,,,,,,,,60ff14561039e939a18f144d,61036966e86cce9c8acb7dcb,2021-07-29_22h53.13.922,Simcolourproject_2stim_asymm_v5,2020.2.10,Linux x86_64,60,61025ae37ef11b136ea224fe,,,,,,,,,597,33,72,1,0,0,response1disk,,7,5,8,1,0,0,rectangle,5,8,1,0,0,5,8,1,0,0,1,67,227,145,1,,,,,,,,
,,,,,,,,,,,,,FF,,,,,,,,1.1332,,,,,,,,,,,,,,,,,,,,,,60ff14561039e939a18f144d,61036966e86cce9c8acb7dcb,2021-07-29_22h53.13.922,Simcolourproject_2stim_asymm_v5,2020.2.10,Linux x86_64,60,61025ae37ef11b136ea224fe,,,,,,,,,924,28,61,1,0,0,response1disk,,7,-7,0,1,0,0,rectangle,-7,0,1,0,0,-7,0,1,0,0,1,68,228,25,1,,,,,,,,
,,,,,,,,,,,,,FF,,,,,,,,1.3324,,,,,,,,,,,,,,,,,,,,,,60ff14561039e939a18f144d,61036966e86cce9c8acb7dcb,2021-07-29_22h53.13.922,Simcolourproject_2stim_asymm_v5,2020.2.10,Linux x86_64,60,61025ae37ef11b136ea224fe,,,,,,,,,2656,86,48,1,0,0,response1disk,,6,20,-1,1,0,0,rectangle,20,-1,1,0,0,20,-1,1,0,0,1,69,229,87,1,,,,,,,,
,,,,,,,,,,,,,FF,,,,,,,,1.2517,,,,,,,,,,,,,,,,,,,,,,60ff14561039e939a18f144d,61036966e86cce9c8acb7dcb,2021-07-29_22h53.13.922,Simcolourproject_2stim_asymm_v5,2020.2.10,Linux x86_64,60,61025ae37ef11b136ea224fe,,,,,,,,,2083,32,76,1,0,0,response1disk,,7,-2,-3,1,0,0,rectangle,37,-72,1,0,0,-2,-1,1,0,0,1,70,230,10,1,,response3disk_3,TRUE,4,4,"[128,293,30,37,315,77,246,286,129,115,203,212,54,164,195,231,38,47,171,130]",1.4826,rectangle
,,,,,,,,,,,,,FF,,,,,,,,1.0655,,,,,,,,,,,,,,,,,,,,,,60ff14561039e939a18f144d,61036966e86cce9c8acb7dcb,2021-07-29_22h53.13.922,Simcolourproject_2stim_asymm_v5,2020.2.10,Linux x86_64,60,61025ae37ef11b136ea224fe,,,,,,,,,2448,43,87,1,0,0,response1disk,,7,15,4,1,0,0,rectangle,15,4,1,0,0,15,4,1,0,0,1,71,231,31,1,,,,,,,,
,,,,,,,,,,,,,FF,,,,,,,,0.8676,,,,,,,,,,,,,,,,,,,,,,60ff14561039e939a18f144d,61036966e86cce9c8acb7dcb,2021-07-29_22h53.13.922,Simcolourproject_2stim_asymm_v5,2020.2.10,Linux x86_64,60,61025ae37ef11b136ea224fe,,,,,,,,,1872,67,104,1,0,0,response1disk,,7,9,0,1,0,0,rectangle,9,0,1,0,0,9,0,1,0,0,1,72,232,63,1,,,,,,,,
,,,,,,,,,,,,,FF,,,,,,,,1.5438,,,,,,,,,,,,,,,,,,,,,,60ff14561039e939a18f144d,61036966e86cce9c8acb7dcb,2021-07-29_22h53.13.922,Simcolourproject_2stim_asymm_v5,2020.2.10,Linux x86_64,60,61025ae37ef11b136ea224fe,,,,,,,,,1419,86,-43,1,0,0,response3disk,,5,21,11,1,0,0,rectangle,21,11,1,0,0,21,11,1,0,0,1,73,233,83,1,,,,,,,,
,,,,,,,,,,,,,FF,,,,,,,,1.0331,,,,,,,,,,,,,,,,,,,,,,60ff14561039e939a18f144d,61036966e86cce9c8acb7dcb,2021-07-29_22h53.13.922,Simcolourproject_2stim_asymm_v5,2020.2.10,Linux x86_64,60,61025ae37ef11b136ea224fe,,,,,,,,,55,37,64,1,0,0,response1disk,,7,13,4,1,0,0,rectangle,13,4,1,0,0,13,4,1,0,0,1,74,234,146,1,,,,,,,,
,,,,,,,,,,,,,FF,,,,,,,,0.7335,,,,,,,,,,,,,,,,,,,,,,60ff14561039e939a18f144d,61036966e86cce9c8acb7dcb,2021-07-29_22h53.13.922,Simcolourproject_2stim_asymm_v5,2020.2.10,Linux x86_64,60,61025ae37ef11b136ea224fe,,,,,,,,,3832,30,56,1,0,0,response1disk,,7,-10,-11,1,0,0,rectangle,-10,-11,1,0,0,-10,-11,1,0,0,1,75,235,74,1,,,,,,,,
,,,,,,,,,,,,,FF,,,,,,,,0.816,,,,,,,,,,,,,,,,,,,,,,60ff14561039e939a18f144d,61036966e86cce9c8acb7dcb,2021-07-29_22h53.13.922,Simcolourproject_2stim_asymm_v5,2020.2.10,Linux x86_64,60,61025ae37ef11b136ea224fe,,,,,,,,,2271,22,65,1,0,0,response1disk,,7,11,0,1,0,0,rectangle,11,0,1,0,0,11,0,1,0,0,1,76,236,61,1,,,,,,,,
,,,,,,,,,,,,,FF,,,,,,,,0.7996,,,,,,,,,,,,,,,,,,,,,,60ff14561039e939a18f144d,61036966e86cce9c8acb7dcb,2021-07-29_22h53.13.922,Simcolourproject_2stim_asymm_v5,2020.2.10,Linux x86_64,60,61025ae37ef11b136ea224fe,,,,,,,,,3813,57,95,1,0,0,response1disk,,7,21,1,1,0,0,rectangle,21,1,1,0,0,21,1,1,0,0,1,77,237,151,1,,,,,,,,
,,,,,,,,,,,,,FF,,,,,,,,0.6331,,,,,,,,,,,,,,,,,,,,,,60ff14561039e939a18f144d,61036966e86cce9c8acb7dcb,2021-07-29_22h53.13.922,Simcolourproject_2stim_asymm_v5,2020.2.10,Linux x86_64,60,61025ae37ef11b136ea224fe,,,,,,,,,3650,32,54,1,0,0,response1disk,,7,8,-10,1,0,0,rectangle,8,-10,1,0,0,8,-10,1,0,0,1,78,238,57,1,,,,,,,,
,,,,,,,,,,,,,FF,,,,,,,,0.8173,,,,,,,,,,,,,,,,,,,,,,60ff14561039e939a18f144d,61036966e86cce9c8acb7dcb,2021-07-29_22h53.13.922,Simcolourproject_2stim_asymm_v5,2020.2.10,Linux x86_64,60,61025ae37ef11b136ea224fe,,,,,,,,,3399,39,77,1,0,0,response1disk,,7,12,-1,1,0,0,rectangle,12,-1,1,0,0,12,-1,1,0,0,1,79,239,28,1,,,,,,,,
,,,,,,,,,,,,,FF,,,,,,,,0.8489,,,,,,,,,,,,,,,,,,,,,,60ff14561039e939a18f144d,61036966e86cce9c8acb7dcb,2021-07-29_22h53.13.922,Simcolourproject_2stim_asymm_v5,2020.2.10,Linux x86_64,60,61025ae37ef11b136ea224fe,,,,,,,,,2268,42,88,1,0,0,response1disk,,7,10,1,1,0,0,rectangle,10,1,1,0,0,10,1,1,0,0,1,80,240,24,1,,,,,,,,
,,,,,,,,,,,,,FF,,,,,,,,1.416,,,,,,,,,,,,,,,,,,,,,,60ff14561039e939a18f144d,61036966e86cce9c8acb7dcb,2021-07-29_22h53.13.922,Simcolourproject_2stim_asymm_v5,2020.2.10,Linux x86_64,60,61025ae37ef11b136ea224fe,,,,,,,,,744,97,-48,1,0,0,response3disk,,5,7,2,1,0,0,rectangle,7,2,1,0,0,7,2,1,0,0,1,81,241,114,1,,,,,,,,
,,,,,,,,,,,,,FF,,,,,,,,1.1823,,,,,,,,,,,,,,,,,,,,,,60ff14561039e939a18f144d,61036966e86cce9c8acb7dcb,2021-07-29_22h53.13.922,Simcolourproject_2stim_asymm_v5,2020.2.10,Linux x86_64,60,61025ae37ef11b136ea224fe,,,,,,,,,1173,80,-33,1,0,0,response3disk,,5,-1,-3,1,0,0,rectangle,-1,-3,1,0,0,-1,-3,1,0,0,1,82,242,34,1,,,,,,,,
,,,,,,,,,,,,,FF,,,,,,,,1.1662,,,,,,,,,,,,,,,,,,,,,,60ff14561039e939a18f144d,61036966e86cce9c8acb7dcb,2021-07-29_22h53.13.922,Simcolourproject_2stim_asymm_v5,2020.2.10,Linux x86_64,60,61025ae37ef11b136ea224fe,,,,,,,,,206,57,-37,1,0,0,response3disk,,5,11,1,1,0,0,rectangle,11,1,1,0,0,11,1,1,0,0,1,83,243,88,1,,,,,,,,
,,,,,,,,,,,,,FF,,,,,,,,0.9828,,,,,,,,,,,,,,,,,,,,,,60ff14561039e939a18f144d,61036966e86cce9c8acb7dcb,2021-07-29_22h53.13.922,Simcolourproject_2stim_asymm_v5,2020.2.10,Linux x86_64,60,61025ae37ef11b136ea224fe,,,,,,,,,630,-29,66,1,0,0,response7disk,,0,8,-3,1,0,0,rectangle,8,-3,1,0,0,8,-3,1,0,0,1,84,244,79,1,,,,,,,,
,,,,,,,,,,,,,FF,,,,,,,,1.3496,,,,,,,,,,,,,,,,,,,,,,60ff14561039e939a18f144d,61036966e86cce9c8acb7dcb,2021-07-29_22h53.13.922,Simcolourproject_2stim_asymm_v5,2020.2.10,Linux x86_64,60,61025ae37ef11b136ea224fe,,,,,,,,,1950,-64,-66,1,0,0,response5disk,,3,-11,3,1,0,0,rectangle,35,-79,1,0,0,2,-10,1,0,0,1,85,245,58,1,,response3disk_3,TRUE,4,4,"[128,293,30,37,315,77,246,286,129,115,203,212,54,164,195,231,38,47,171,130]",1.4316,rectangle
,,,,,,,,,,,,,FF,,,,,,,,0.7997,,,,,,,,,,,,,,,,,,,,,,60ff14561039e939a18f144d,61036966e86cce9c8acb7dcb,2021-07-29_22h53.13.922,Simcolourproject_2stim_asymm_v5,2020.2.10,Linux x86_64,60,61025ae37ef11b136ea224fe,,,,,,,,,3405,35,80,1,0,0,response1disk,,7,-10,-4,1,0,0,rectangle,-10,-4,1,0,0,-10,-4,1,0,0,1,86,246,71,1,,,,,,,,
,,,,,,,,,,,,,FF,,,,,,,,2.5647,,,,,,,,,,,,,,,,,,,,,,60ff14561039e939a18f144d,61036966e86cce9c8acb7dcb,2021-07-29_22h53.13.922,Simcolourproject_2stim_asymm_v5,2020.2.10,Linux x86_64,60,61025ae37ef11b136ea224fe,,,,,,,,,2003,49,73,1,0,0,response1disk,,7,12,13,1,0,0,rectangle,12,13,1,0,0,12,13,1,0,0,1,87,247,136,1,,,,,,,,
,,,,,,,,,,,,,FF,,,,,,,,0.8339,,,,,,,,,,,,,,,,,,,,,,60ff14561039e939a18f144d,61036966e86cce9c8acb7dcb,2021-07-29_22h53.13.922,Simcolourproject_2stim_asymm_v5,2020.2.10,Linux x86_64,60,61025ae37ef11b136ea224fe,,,,,,,,,4273,37,59,1,0,0,response1disk,,7,-6,-3,1,0,0,rectangle,-6,-3,1,0,0,-6,-3,1,0,0,1,88,248,101,1,,,,,,,,
,,,,,,,,,,,,,FF,,,,,,,,1.2987,,,,,,,,,,,,,,,,,,,,,,60ff14561039e939a18f144d,61036966e86cce9c8acb7dcb,2021-07-29_22h53.13.922,Simcolourproject_2stim_asymm_v5,2020.2.10,Linux x86_64,60,61025ae37ef11b136ea224fe,,,,,,,,,790,97,35,1,0,0,response1disk,,6,27,-2,1,0,0,rectangle,27,-2,1,0,0,27,-2,1,0,0,1,89,249,68,1,,,,,,,,
,,,,,,,,,,,,,FF,,,,,,,,0.8662,,,,,,,,,,,,,,,,,,,,,,60ff14561039e939a18f144d,61036966e86cce9c8acb7dcb,2021-07-29_22h53.13.922,Simcolourproject_2stim_asymm_v5,2020.2.10,Linux x86_64,60,61025ae37ef11b136ea224fe,,,,,,,,,304,77,35,1,0,0,response1disk,,6,9,-15,1,0,0,rectangle,9,-15,1,0,0,9,-15,1,0,0,1,90,250,142,1,,,,,,,,
,,,,,,,,,,,,,FF,,,,,,,,2.0159,,,,,,,,,,,,,,,,,,,,,,60ff14561039e939a18f144d,61036966e86cce9c8acb7dcb,2021-07-29_22h53.13.922,Simcolourproject_2stim_asymm_v5,2020.2.10,Linux x86_64,60,61025ae37ef11b136ea224fe,,,,,,,,,4000,68,-40,1,0,0,response3disk,,5,-10,8,1,0,0,rectangle,-10,8,1,0,0,-10,8,1,0,0,1,91,251,55,1,,,,,,,,
,,,,,,,,,,,,,FF,,,,,,,,0.8159,,,,,,,,,,,,,,,,,,,,,,60ff14561039e939a18f144d,61036966e86cce9c8acb7dcb,2021-07-29_22h53.13.922,Simcolourproject_2stim_asymm_v5,2020.2.10,Linux x86_64,60,61025ae37ef11b136ea224fe,,,,,,,,,418,31,80,1,0,0,response1disk,,7,11,-7,1,0,0,rectangle,11,-7,1,0,0,11,-7,1,0,0,1,92,252,120,1,,,,,,,,
,,,,,,,,,,,,,FF,,,,,,,,0.6996,,,,,,,,,,,,,,,,,,,,,,60ff14561039e939a18f144d,61036966e86cce9c8acb7dcb,2021-07-29_22h53.13.922,Simcolourproject_2stim_asymm_v5,2020.2.10,Linux x86_64,60,61025ae37ef11b136ea224fe,,,,,,,,,2009,31,57,1,0,0,response1disk,,7,8,1,1,0,0,rectangle,8,1,1,0,0,8,1,1,0,0,1,93,253,72,1,,,,,,,,
,,,,,,,,,,,,,FF,,,,,,,,1.2014,,,,,,,,,,,,,,,,,,,,,,60ff14561039e939a18f144d,61036966e86cce9c8acb7dcb,2021-07-29_22h53.13.922,Simcolourproject_2stim_asymm_v5,2020.2.10,Linux x86_64,60,61025ae37ef11b136ea224fe,,,,,,,,,3040,-43,-63,1,0,0,response5disk,,3,7,-9,1,0,0,rectangle,7,-9,1,0,0,7,-9,1,0,0,1,94,254,13,1,,,,,,,,
,,,,,,,,,,,,,FF,,,,,,,,2.6318,,,,,,,,,,,,,,,,,,,,,,60ff14561039e939a18f144d,61036966e86cce9c8acb7dcb,2021-07-29_22h53.13.922,Simcolourproject_2stim_asymm_v5,2020.2.10,Linux x86_64,60,61025ae37ef11b136ea224fe,,,,,,,,,4104,-81,-48,1,0,0,response5disk,,2,-12,-6,1,0,0,rectangle,-12,-6,1,0,0,-12,-6,1,0,0,1,95,255,139,1,,,,,,,,
,,,,,,,,,,,,,FF,,,,,,,,4.5806,,,,,,,,,,,,,,,,,,,,,,60ff14561039e939a18f144d,61036966e86cce9c8acb7dcb,2021-07-29_22h53.13.922,Simcolourproject_2stim_asymm_v5,2020.2.10,Linux x86_64,60,61025ae37ef11b136ea224fe,,,,,,,,,3735,54,-71,1,0,0,response3disk,,4,14,4,1,0,0,rectangle,14,4,1,0,0,14,4,1,0,0,1,96,256,60,1,,,,,,,,
,,,,,,,,,,,,,FF,,,,,,,,1.35,,,,,,,,,,,,,,,,,,,,,,60ff14561039e939a18f144d,61036966e86cce9c8acb7dcb,2021-07-29_22h53.13.922,Simcolourproject_2stim_asymm_v5,2020.2.10,Linux x86_64,60,61025ae37ef11b136ea224fe,,,,,,,,,1412,46,-70,1,0,0,response3disk,,4,9,-3,1,0,0,rectangle,9,-3,1,0,0,9,-3,1,0,0,1,97,257,75,1,,,,,,,,
,,,,,,,,,,,,,FF,,,,,,,,1.0165,,,,,,,,,,,,,,,,,,,,,,60ff14561039e939a18f144d,61036966e86cce9c8acb7dcb,2021-07-29_22h53.13.922,Simcolourproject_2stim_asymm_v5,2020.2.10,Linux x86_64,60,61025ae37ef11b136ea224fe,,,,,,,,,1999,44,83,1,0,0,response1disk,,7,7,-1,1,0,0,rectangle,7,-1,1,0,0,7,-1,1,0,0,1,98,258,121,1,,,,,,,,
,,,,,,,,,,,,,FF,,,,,,,,1.2856,,,,,,,,,,,,,,,,,,,,,,60ff14561039e939a18f144d,61036966e86cce9c8acb7dcb,2021-07-29_22h53.13.922,Simcolourproject_2stim_asymm_v5,2020.2.10,Linux x86_64,60,61025ae37ef11b136ea224fe,,,,,,,,,2382,54,77,1,0,0,response1disk,,7,0,0,1,0,0,rectangle,0,0,1,0,0,0,0,1,0,0,1,99,259,77,1,,,,,,,,
,,,,,,,,,,,,,FF,,,,,,,,0.8161,,,,,,,,,,,,,,,,,,,,,,60ff14561039e939a18f144d,61036966e86cce9c8acb7dcb,2021-07-29_22h53.13.922,Simcolourproject_2stim_asymm_v5,2020.2.10,Linux x86_64,60,61025ae37ef11b136ea224fe,,,,,,,,,2919,40,78,1,0,0,response1disk,,7,-9,-11,1,0,0,rectangle,-9,-11,1,0,0,-9,-11,1,0,0,1,100,260,156,1,,,,,,,,
,,,,,,,,,,,,,FF,,,,,,,,0.5676,,,,,,,,,,,,,,,,,,,,,,60ff14561039e939a18f144d,61036966e86cce9c8acb7dcb,2021-07-29_22h53.13.922,Simcolourproject_2stim_asymm_v5,2020.2.10,Linux x86_64,60,61025ae37ef11b136ea224fe,,,,,,,,,2873,50,77,1,0,0,response1disk,,7,-11,-2,1,0,0,rectangle,-11,-2,1,0,0,-11,-2,1,0,0,1,101,261,99,1,,,,,,,,
,,,,,,,,,,,,,FF,,,,,,,,1.0167,,,,,,,,,,,,,,,,,,,,,,60ff14561039e939a18f144d,61036966e86cce9c8acb7dcb,2021-07-29_22h53.13.922,Simcolourproject_2stim_asymm_v5,2020.2.10,Linux x86_64,60,61025ae37ef11b136ea224fe,,,,,,,,,2870,70,30,1,0,0,response1disk,,6,0,2,1,0,0,rectangle,0,2,1,0,0,0,2,1,0,0,1,102,262,155,1,,,,,,,,
,,,,,,,,,,,,,FF,,,,,,,,2.1159,,,,,,,,,,,,,,,,,,,,,,60ff14561039e939a18f144d,61036966e86cce9c8acb7dcb,2021-07-29_22h53.13.922,Simcolourproject_2stim_asymm_v5,2020.2.10,Linux x86_64,60,61025ae37ef11b136ea224fe,,,,,,,,,1611,-82,38,1,0,0,response7disk,,1,-18,-6,1,0,0,rectangle,-18,-6,1,0,0,-18,-6,1,0,0,1,103,263,130,1,,,,,,,,
,,,,,,,,,,,,,FF,,,,,,,,1.7997,,,,,,,,,,,,,,,,,,,,,,60ff14561039e939a18f144d,61036966e86cce9c8acb7dcb,2021-07-29_22h53.13.922,Simcolourproject_2stim_asymm_v5,2020.2.10,Linux x86_64,60,61025ae37ef11b136ea224fe,,,,,,,,,2972,51,101,1,0,0,response1disk,,7,5,-4,1,0,0,rectangle,5,-4,1,0,0,5,-4,1,0,0,1,104,264,62,1,,,,,,,,
,,,,,,,,,,,,,FF,,,,,,,,1.8993,,,,,,,,,,,,,,,,,,,,,,60ff14561039e939a18f144d,61036966e86cce9c8acb7dcb,2021-07-29_22h53.13.922,Simcolourproject_2stim_asymm_v5,2020.2.10,Linux x86_64,60,61025ae37ef11b136ea224fe,,,,,,,,,1158,-67,-32,1,0,0,response5disk,,2,-3,5,1,0,0,rectangle,-3,5,1,0,0,-3,5,1,0,0,1,105,265,44,1,,,,,,,,
,,,,,,,,,,,,,FF,,,,,,,,0.9496,,,,,,,,,,,,,,,,,,,,,,60ff14561039e939a18f144d,61036966e86cce9c8acb7dcb,2021-07-29_22h53.13.922,Simcolourproject_2stim_asymm_v5,2020.2.10,Linux x86_64,60,61025ae37ef11b136ea224fe,,,,,,,,,2408,49,63,1,0,0,response1disk,,7,11,-11,1,0,0,rectangle,11,-11,1,0,0,11,-11,1,0,0,1,106,266,56,1,,,,,,,,
,,,,,,,,,,,,,FF,,,,,,,,1.4159,,,,,,,,,,,,,,,,,,,,,,60ff14561039e939a18f144d,61036966e86cce9c8acb7dcb,2021-07-29_22h53.13.922,Simcolourproject_2stim_asymm_v5,2020.2.10,Linux x86_64,60,61025ae37ef11b136ea224fe,,,,,,,,,2352,64,33,1,0,0,response1disk,,6,-7,-5,1,0,0,rectangle,-7,-5,1,0,0,-7,-5,1,0,0,1,107,267,104,1,,,,,,,,
,,,,,,,,,,,,,FF,,,,,,,,1.1171,,,,,,,,,,,,,,,,,,,,,,60ff14561039e939a18f144d,61036966e86cce9c8acb7dcb,2021-07-29_22h53.13.922,Simcolourproject_2stim_asymm_v5,2020.2.10,Linux x86_64,60,61025ae37ef11b136ea224fe,,,,,,,,,1733,-62,-56,1,0,0,response5disk,,2,-6,-10,1,0,0,rectangle,-6,-10,1,0,0,-6,-10,1,0,0,1,108,268,158,1,,,,,,,,
,,,,,,,,,,,,,FF,,,,,,,,1.7324,,,,,,,,,,,,,,,,,,,,,,60ff14561039e939a18f144d,61036966e86cce9c8acb7dcb,2021-07-29_22h53.13.922,Simcolourproject_2stim_asymm_v5,2020.2.10,Linux x86_64,60,61025ae37ef11b136ea224fe,,,,,,,,,1091,74,35,1,0,0,response1disk,,6,14,-2,1,0,0,rectangle,14,-2,1,0,0,14,-2,1,0,0,1,109,269,86,1,,,,,,,,
,,,,,,,,,,,,,FF,,,,,,,,0.9817,,,,,,,,,,,,,,,,,,,,,,60ff14561039e939a18f144d,61036966e86cce9c8acb7dcb,2021-07-29_22h53.13.922,Simcolourproject_2stim_asymm_v5,2020.2.10,Linux x86_64,60,61025ae37ef11b136ea224fe,,,,,,,,,2781,-82,35,1,0,0,response7disk,,1,-19,1,1,0,0,rectangle,-19,1,1,0,0,-19,1,1,0,0,1,110,270,69,1,,,,,,,,
,,,,,,,,,,,,,FF,,,,,,,,1.3679,,,,,,,,,,,,,,,,,,,,,,60ff14561039e939a18f144d,61036966e86cce9c8acb7dcb,2021-07-29_22h53.13.922,Simcolourproject_2stim_asymm_v5,2020.2.10,Linux x86_64,60,61025ae37ef11b136ea224fe,,,,,,,,,3931,78,21,1,0,0,response1disk,,6,2,0,1,0,0,rectangle,2,0,1,0,0,2,0,1,0,0,1,111,271,9,1,,,,,,,,
,,,,,,,,,,,,,FF,,,,,,,,1.5491,,,,,,,,,,,,,,,,,,,,,,60ff14561039e939a18f144d,61036966e86cce9c8acb7dcb,2021-07-29_22h53.13.922,Simcolourproject_2stim_asymm_v5,2020.2.10,Linux x86_64,60,61025ae37ef11b136ea224fe,,,,,,,,,721,-90,-51,1,0,0,response5disk,,2,0,5,1,0,0,rectangle,0,5,1,0,0,0,5,1,0,0,1,112,272,132,1,,,,,,,,
,,,,,,,,,,,,,FF,,,,,,,,1.0996,,,,,,,,,,,,,,,,,,,,,,60ff14561039e939a18f144d,61036966e86cce9c8acb7dcb,2021-07-29_22h53.13.922,Simcolourproject_2stim_asymm_v5,2020.2.10,Linux x86_64,60,61025ae37ef11b136ea224fe,,,,,,,,,4007,-38,-68,1,0,0,response5disk,,3,-6,-5,1,0,0,rectangle,-6,-5,1,0,0,-6,-5,1,0,0,1,113,273,107,1,,,,,,,,
,,,,,,,,,,,,,FF,,,,,,,,1.4659,,,,,,,,,,,,,,,,,,,,,,60ff14561039e939a18f144d,61036966e86cce9c8acb7dcb,2021-07-29_22h53.13.922,Simcolourproject_2stim_asymm_v5,2020.2.10,Linux x86_64,60,61025ae37ef11b136ea224fe,,,,,,,,,4067,39,92,1,0,0,response1disk,,7,3,1,1,0,0,rectangle,3,1,1,0,0,3,1,1,0,0,1,114,274,67,1,,,,,,,,
,,,,,,,,,,,,,FF,,,,,,,,0.8992,,,,,,,,,,,,,,,,,,,,,,60ff14561039e939a18f144d,61036966e86cce9c8acb7dcb,2021-07-29_22h53.13.922,Simcolourproject_2stim_asymm_v5,2020.2.10,Linux x86_64,60,61025ae37ef11b136ea224fe,,,,,,,,,3361,64,95,1,0,0,response1disk,,7,24,-1,1,0,0,rectangle,24,-1,1,0,0,24,-1,1,0,0,1,115,275,105,1,,,,,,,,
,,,,,,,,,,,,,FF,,,,,,,,1.0152,,,,,,,,,,,,,,,,,,,,,,60ff14561039e939a18f144d,61036966e86cce9c8acb7dcb,2021-07-29_22h53.13.922,Simcolourproject_2stim_asymm_v5,2020.2.10,Linux x86_64,60,61025ae37ef11b136ea224fe,,,,,,,,,1103,93,70,1,0,0,response1disk,,6,8,-1,1,0,0,rectangle,8,-1,1,0,0,8,-1,1,0,0,1,116,276,53,1,,,,,,,,
,,,,,,,,,,,,,FF,,,,,,,,1.2992,,,,,,,,,,,,,,,,,,,,,,60ff14561039e939a18f144d,61036966e86cce9c8acb7dcb,2021-07-29_22h53.13.922,Simcolourproject_2stim_asymm_v5,2020.2.10,Linux x86_64,60,61025ae37ef11b136ea224fe,,,,,,,,,1904,-72,-84,1,0,0,response5disk,,3,-10,-5,1,0,0,rectangle,-10,-5,1,0,0,-10,-5,1,0,0,1,117,277,41,1,,,,,,,,
,,,,,,,,,,,,,FF,,,,,,,,0.9829,,,,,,,,,,,,,,,,,,,,,,60ff14561039e939a18f144d,61036966e86cce9c8acb7dcb,2021-07-29_22h53.13.922,Simcolourproject_2stim_asymm_v5,2020.2.10,Linux x86_64,60,61025ae37ef11b136ea224fe,,,,,,,,,968,-78,24,1,0,0,response7disk,,1,0,-5,1,0,0,rectangle,0,-5,1,0,0,0,-5,1,0,0,1,118,278,15,1,,,,,,,,
,,,,,,,,,,,,,FF,,,,,,,,0.8002,,,,,,,,,,,,,,,,,,,,,,60ff14561039e939a18f144d,61036966e86cce9c8acb7dcb,2021-07-29_22h53.13.922,Simcolourproject_2stim_asymm_v5,2020.2.10,Linux x86_64,60,61025ae37ef11b136ea224fe,,,,,,,,,155,43,71,1,0,0,response1disk,,7,-11,10,1,0,0,rectangle,-11,10,1,0,0,-11,10,1,0,0,1,119,279,2,1,,,,,,,,
,,,,,,,,,,,,,FF,,,,,,,,0.8665,,,,,,,,,,,,,,,,,,,,,,60ff14561039e939a18f144d,61036966e86cce9c8acb7dcb,2021-07-29_22h53.13.922,Simcolourproject_2stim_asymm_v5,2020.2.10,Linux x86_64,60,61025ae37ef11b136ea224fe,,,,,,,,,2074,40,89,1,0,0,response1disk,,7,9,5,1,0,0,rectangle,9,5,1,0,0,9,5,1,0,0,1,120,280,49,1,,,,,,,,
,,,,,,,,,,,,,FF,,,,,,,,1.1009,,,,,,,,,,,,,,,,,,,,,,60ff14561039e939a18f144d,61036966e86cce9c8acb7dcb,2021-07-29_22h53.13.922,Simcolourproject_2stim_asymm_v5,2020.2.10,Linux x86_64,60,61025ae37ef11b136ea224fe,,,,,,,,,3758,54,78,1,0,0,response1disk,,7,-17,8,1,0,0,rectangle,-17,8,1,0,0,-17,8,1,0,0,1,121,281,27,1,,,,,,,,
,,,,,,,,,,,,,FF,,,,,,,,1.4166,,,,,,,,,,,,,,,,,,,,,,60ff14561039e939a18f144d,61036966e86cce9c8acb7dcb,2021-07-29_22h53.13.922,Simcolourproject_2stim_asymm_v5,2020.2.10,Linux x86_64,60,61025ae37ef11b136ea224fe,,,,,,,,,1438,67,49,1,0,0,response1disk,,6,-23,-13,1,0,0,rectangle,-23,-13,1,0,0,-23,-13,1,0,0,1,122,282,80,1,,,,,,,,
,,,,,,,,,,,,,FF,,,,,,,,0.9825,,,,,,,,,,,,,,,,,,,,,,60ff14561039e939a18f144d,61036966e86cce9c8acb7dcb,2021-07-29_22h53.13.922,Simcolourproject_2stim_asymm_v5,2020.2.10,Linux x86_64,60,61025ae37ef11b136ea224fe,,,,,,,,,2468,56,42,1,0,0,response1disk,,6,5,2,1,0,0,rectangle,5,2,1,0,0,5,2,1,0,0,1,123,283,159,1,,,,,,,,
,,,,,,,,,,,,,FF,,,,,,,,2.5311,,,,,,,,,,,,,,,,,,,,,,60ff14561039e939a18f144d,61036966e86cce9c8acb7dcb,2021-07-29_22h53.13.922,Simcolourproject_2stim_asymm_v5,2020.2.10,Linux x86_64,60,61025ae37ef11b136ea224fe,,,,,,,,,2443,57,-33,1,0,0,response3disk,,5,7,1,1,0,0,rectangle,7,1,1,0,0,7,1,1,0,0,1,124,284,119,1,,,,,,,,
,,,,,,,,,,,,,FF,,,,,,,,0.9495,,,,,,,,,,,,,,,,,,,,,,60ff14561039e939a18f144d,61036966e86cce9c8acb7dcb,2021-07-29_22h53.13.922,Simcolourproject_2stim_asymm_v5,2020.2.10,Linux x86_64,60,61025ae37ef11b136ea224fe,,,,,,,,,3309,53,-27,1,0,0,response3disk,,5,23,-3,1,0,0,rectangle,-102,-59,1,0,0,-1,9,1,0,0,1,125,285,37,1,,response5disk_3,TRUE,2,2,"[128,293,30,37,315,77,246,286,129,115,203,212,54,164,195,231,38,47,171,130]",1.6482,rectangle
,,,,,,,,,,,,,FF,,,,,,,,0.9008,,,,,,,,,,,,,,,,,,,,,,60ff14561039e939a18f144d,61036966e86cce9c8acb7dcb,2021-07-29_22h53.13.922,Simcolourproject_2stim_asymm_v5,2020.2.10,Linux x86_64,60,61025ae37ef11b136ea224fe,,,,,,,,,1417,70,48,1,0,0,response1disk,,6,5,2,1,0,0,rectangle,5,2,1,0,0,5,2,1,0,0,1,126,286,7,1,,,,,,,,
,,,,,,,,,,,,,FF,,,,,,,,1.3491,,,,,,,,,,,,,,,,,,,,,,60ff14561039e939a18f144d,61036966e86cce9c8acb7dcb,2021-07-29_22h53.13.922,Simcolourproject_2stim_asymm_v5,2020.2.10,Linux x86_64,60,61025ae37ef11b136ea224fe,,,,,,,,,1868,39,75,1,0,0,response1disk,,7,5,-14,1,0,0,rectangle,5,-14,1,0,0,5,-14,1,0,0,1,127,287,36,1,,,,,,,,
,,,,,,,,,,,,,FF,,,,,,,,1.2497,,,,,,,,,,,,,,,,,,,,,,60ff14561039e939a18f144d,61036966e86cce9c8acb7dcb,2021-07-29_22h53.13.922,Simcolourproject_2stim_asymm_v5,2020.2.10,Linux x86_64,60,61025ae37ef11b136ea224fe,,,,,,,,,3303,-41,-89,1,0,0,response5disk,,3,-5,1,1,0,0,rectangle,-5,1,1,0,0,-5,1,1,0,0,1,128,288,21,1,,,,,,,,
,,,,,,,,,,,,,FF,,,,,,,,1.1499,,,,,,,,,,,,,,,,,,,,,,60ff14561039e939a18f144d,61036966e86cce9c8acb7dcb,2021-07-29_22h53.13.922,Simcolourproject_2stim_asymm_v5,2020.2.10,Linux x86_64,60,61025ae37ef11b136ea224fe,,,,,,,,,1320,58,42,1,0,0,response1disk,,6,-6,-9,1,0,0,rectangle,-6,-9,1,0,0,-6,-9,1,0,0,1,129,289,0,1,,,,,,,,
,,,,,,,,,,,,,FF,,,,,,,,3.2806,,,,,,,,,,,,,,,,,,,,,,60ff14561039e939a18f144d,61036966e86cce9c8acb7dcb,2021-07-29_22h53.13.922,Simcolourproject_2stim_asymm_v5,2020.2.10,Linux x86_64,60,61025ae37ef11b136ea224fe,,,,,,,,,3502,95,-29,1,0,0,response3disk,,5,-25,-13,1,0,0,rectangle,-25,-13,1,0,0,-25,-13,1,0,0,1,130,290,141,1,,,,,,,,
,,,,,,,,,,,,,FF,,,,,,,,1.632,,,,,,,,,,,,,,,,,,,,,,60ff14561039e939a18f144d,61036966e86cce9c8acb7dcb,2021-07-29_22h53.13.922,Simcolourproject_2stim_asymm_v5,2020.2.10,Linux x86_64,60,61025ae37ef11b136ea224fe,,,,,,,,,3367,61,93,1,0,0,response1disk,,7,17,-9,1,0,0,rectangle,17,-9,1,0,0,17,-9,1,0,0,1,131,291,96,1,,,,,,,,
,,,,,,,,,,,,,FF,,,,,,,,0.751,,,,,,,,,,,,,,,,,,,,,,60ff14561039e939a18f144d,61036966e86cce9c8acb7dcb,2021-07-29_22h53.13.922,Simcolourproject_2stim_asymm_v5,2020.2.10,Linux x86_64,60,61025ae37ef11b136ea224fe,,,,,,,,,331,43,71,1,0,0,response1disk,,7,4,2,1,0,0,rectangle,28,92,1,0,0,17,-4,1,0,0,1,132,292,22,1,,response1disk_3,TRUE,7,7,"[128,293,30,37,315,77,246,286,129,115,203,212,54,164,195,231,38,47,171,130]",1.882,rectangle
,,,,,,,,,,,,,FF,,,,,,,,1.0493,,,,,,,,,,,,,,,,,,,,,,60ff14561039e939a18f144d,61036966e86cce9c8acb7dcb,2021-07-29_22h53.13.922,Simcolourproject_2stim_asymm_v5,2020.2.10,Linux x86_64,60,61025ae37ef11b136ea224fe,,,,,,,,,2839,-77,23,1,0,0,response7disk,,1,-10,-10,1,0,0,rectangle,-10,-10,1,0,0,-10,-10,1,0,0,1,133,293,32,1,,,,,,,,
,,,,,,,,,,,,,FF,,,,,,,,1.4321,,,,,,,,,,,,,,,,,,,,,,60ff14561039e939a18f144d,61036966e86cce9c8acb7dcb,2021-07-29_22h53.13.922,Simcolourproject_2stim_asymm_v5,2020.2.10,Linux x86_64,60,61025ae37ef11b136ea224fe,,,,,,,,,1512,81,18,1,0,0,response1disk,,6,18,0,1,0,0,rectangle,18,0,1,0,0,18,0,1,0,0,1,134,294,94,1,,,,,,,,
,,,,,,,,,,,,,FF,,,,,,,,0.8182,,,,,,,,,,,,,,,,,,,,,,60ff14561039e939a18f144d,61036966e86cce9c8acb7dcb,2021-07-29_22h53.13.922,Simcolourproject_2stim_asymm_v5,2020.2.10,Linux x86_64,60,61025ae37ef11b136ea224fe,,,,,,,,,3645,33,76,1,0,0,response1disk,,7,4,-10,1,0,0,rectangle,4,-10,1,0,0,4,-10,1,0,0,1,135,295,150,1,,,,,,,,
