key_resp.keys,key_resp.rt,key_resp_14.keys,key_resp_14.rt,key_resp_15.keys,key_resp_15.rt,key_resp_17.keys,key_resp_17.rt,key_resp_9.keys,key_resp_9.rt,key_resp_10.keys,key_resp_10.rt,practice_comparison,Ecc,mouse_5.x,mouse_5.y,mouse_5.leftButton,mouse_5.midButton,mouse_5.rightButton,mouse_5.clicked_name,pracsimilarity,response_time,mouse_10.x,mouse_10.y,mouse_10.leftButton,mouse_10.midButton,mouse_10.rightButton,mouse_10.clicked_name,mouse_7.x,mouse_7.y,mouse_7.leftButton,mouse_7.midButton,mouse_7.rightButton,mouse_6.x,mouse_6.y,mouse_6.leftButton,mouse_6.midButton,mouse_6.rightButton,duringprac.thisRepN,duringprac.thisTrialN,duringprac.thisN,duringprac.thisIndex,duringprac.ran,participant,session,date,expName,psychopyVersion,OS,frameRate,study_id,mouse_7.clicked_name,catchpracsimilarity,catch_response_time,catchnumberprac,catchtrialorderprac,mouse_6.clicked_name,key_resp_22.keys,key_resp_22.rt,realcomparison,mouse.x,mouse.y,mouse.leftButton,mouse.midButton,mouse.rightButton,mouse.clicked_name,Colour2,similarity,mouse_2.x,mouse_2.y,mouse_2.leftButton,mouse_2.midButton,mouse_2.rightButton,mouse_2.clicked_name,mouse_3.x,mouse_3.y,mouse_3.leftButton,mouse_3.midButton,mouse_3.rightButton,mouse_11.x,mouse_11.y,mouse_11.leftButton,mouse_11.midButton,mouse_11.rightButton,trials_2.thisRepN,trials_2.thisTrialN,trials_2.thisN,trials_2.thisIndex,trials_2.ran,Colour1,mouse_3.clicked_name,catchornah,catchsimilarity,catchnumber,catchtrialorder,catchRT,mouse_11.clicked_name
space,1.0789,space,16.2631,space,18.8498,space,6.5215,space,1.7316,space,37.8055,51,FF,-42.6015625,-77,1,0,0,response5disk_5,3,2.2169,-12.25390625,-2.00390625,1,0,0,rectangle_8,-12.25390625,-2.00390625,1,0,0,-12.25390625,-2.00390625,1,0,0,0,0,0,0,1,60ff54eca66d8b022b925291,61036f9df7839d9d6cf5906c,2021-07-30_12h51.15.603,Simcolourproject_2stim_asymm_v5,2020.2.10,MacIntel,60,61025ae37ef11b136ea224fe,,,,,,,,,,,,,,,,,,,,,,,,,,,,,,,,,,,,,,,,,,,,,,
,,,,,,,,,,,,152,FF,98.11328125,36.16015625,1,0,0,response1disk_5,6,1.8523,-5.75390625,1.85546875,1,0,0,rectangle_8,-36.91796875,80.109375,1,0,0,10.5703125,7.26953125,1,0,0,0,1,1,5,1,60ff54eca66d8b022b925291,61036f9df7839d9d6cf5906c,2021-07-30_12h51.15.603,Simcolourproject_2stim_asymm_v5,2020.2.10,MacIntel,60,61025ae37ef11b136ea224fe,response7disk_7,0,2.4359,0,"[2,5]",rectangle_4,,,,,,,,,,,,,,,,,,,,,,,,,,,,,,,,,,,,,,,,
,,,,,,,,,,,,22,PF,-87.8046875,-38.0703125,1,0,0,response5disk_5,2,1.8492,13.46484375,-0.7265625,1,0,0,rectangle_8,13.46484375,-0.7265625,1,0,0,13.46484375,-0.7265625,1,0,0,0,2,2,6,1,60ff54eca66d8b022b925291,61036f9df7839d9d6cf5906c,2021-07-30_12h51.15.603,Simcolourproject_2stim_asymm_v5,2020.2.10,MacIntel,60,61025ae37ef11b136ea224fe,,,,,,,,,,,,,,,,,,,,,,,,,,,,,,,,,,,,,,,,,,,,,,
,,,,,,,,,,,,134,PF,91.91015625,47.7109375,1,0,0,response1disk_5,6,1.6476,0.984375,6.53125,1,0,0,rectangle_8,0.984375,6.53125,1,0,0,0.984375,6.53125,1,0,0,0,3,3,1,1,60ff54eca66d8b022b925291,61036f9df7839d9d6cf5906c,2021-07-30_12h51.15.603,Simcolourproject_2stim_asymm_v5,2020.2.10,MacIntel,60,61025ae37ef11b136ea224fe,,,,,,,,,,,,,,,,,,,,,,,,,,,,,,,,,,,,,,,,,,,,,,
,,,,,,,,,,,,50,FF,43.09765625,-97.1640625,1,0,0,response3disk_5,4,1.4384,-13.109375,-5.58203125,1,0,0,rectangle_8,-33.0078125,68.3984375,1,0,0,-5.30859375,0.4921875,1,0,0,0,4,4,3,1,60ff54eca66d8b022b925291,61036f9df7839d9d6cf5906c,2021-07-30_12h51.15.603,Simcolourproject_2stim_asymm_v5,2020.2.10,MacIntel,60,61025ae37ef11b136ea224fe,response7disk_7,0,1.9977,0,"[2,5]",rectangle_4,,,,,,,,,,,,,,,,,,,,,,,,,,,,,,,,,,,,,,,,
,,,,,,,,,,,,119,PF,65.94921875,-38.76953125,1,0,0,response3disk_5,5,2.099,10.2265625,-2.87890625,1,0,0,rectangle_8,10.2265625,-2.87890625,1,0,0,10.2265625,-2.87890625,1,0,0,0,5,5,4,1,60ff54eca66d8b022b925291,61036f9df7839d9d6cf5906c,2021-07-30_12h51.15.603,Simcolourproject_2stim_asymm_v5,2020.2.10,MacIntel,60,61025ae37ef11b136ea224fe,,,,,,,,,,,,,,,,,,,,,,,,,,,,,,,,,,,,,,,,,,,,,,
,,,,,,,,,,,,20,PF,70.2421875,-45.953125,1,0,0,response3disk_5,5,1.503,-3.14453125,8.69921875,1,0,0,rectangle_8,-3.14453125,8.69921875,1,0,0,-3.14453125,8.69921875,1,0,0,0,6,6,2,1,60ff54eca66d8b022b925291,61036f9df7839d9d6cf5906c,2021-07-30_12h51.15.603,Simcolourproject_2stim_asymm_v5,2020.2.10,MacIntel,60,61025ae37ef11b136ea224fe,,,,,,,,,,,,,,,,,,,,,,,,,,,,,,,,,,,,,,,,,,,,,,
,,,,,,,,,,,,,FF,,,,,,,,1.6646,,,,,,,,,,,,,,,,,,,,,,60ff54eca66d8b022b925291,61036f9df7839d9d6cf5906c,2021-07-30_12h51.15.603,Simcolourproject_2stim_asymm_v5,2020.2.10,MacIntel,60,61025ae37ef11b136ea224fe,,,,,,,space,13.2568,1750,-54.06640625,31.54296875,1,0,0,response7disk,,1,-2.3515625,-7.59765625,1,0,0,rectangle,-2.3515625,-7.59765625,1,0,0,-2.3515625,-7.59765625,1,0,0,0,0,0,45,1,,,,,,,,
,,,,,,,,,,,,,FF,,,,,,,,0.8003,,,,,,,,,,,,,,,,,,,,,,60ff54eca66d8b022b925291,61036f9df7839d9d6cf5906c,2021-07-30_12h51.15.603,Simcolourproject_2stim_asymm_v5,2020.2.10,MacIntel,60,61025ae37ef11b136ea224fe,,,,,,,,,3672,-64.9453125,36.078125,1,0,0,response7disk,,1,-0.6015625,1.49609375,1,0,0,rectangle,-0.6015625,1.49609375,1,0,0,-0.6015625,1.49609375,1,0,0,0,1,1,8,1,,,,,,,,
,,,,,,,,,,,,,FF,,,,,,,,1.2165,,,,,,,,,,,,,,,,,,,,,,60ff54eca66d8b022b925291,61036f9df7839d9d6cf5906c,2021-07-30_12h51.15.603,Simcolourproject_2stim_asymm_v5,2020.2.10,MacIntel,60,61025ae37ef11b136ea224fe,,,,,,,,,1585,-68.05078125,-33.62890625,1,0,0,response5disk,,2,-14.7734375,-0.86328125,1,0,0,rectangle,-14.7734375,-0.86328125,1,0,0,-14.7734375,-0.86328125,1,0,0,0,2,2,52,1,,,,,,,,
,,,,,,,,,,,,,FF,,,,,,,,1.8499,,,,,,,,,,,,,,,,,,,,,,60ff54eca66d8b022b925291,61036f9df7839d9d6cf5906c,2021-07-30_12h51.15.603,Simcolourproject_2stim_asymm_v5,2020.2.10,MacIntel,60,61025ae37ef11b136ea224fe,,,,,,,,,3890,76.10546875,-39.30078125,1,0,0,response3disk,,5,-9.5625,1.44140625,1,0,0,rectangle,-9.5625,1.44140625,1,0,0,-9.5625,1.44140625,1,0,0,0,3,3,43,1,,,,,,,,
,,,,,,,,,,,,,FF,,,,,,,,1.4177,,,,,,,,,,,,,,,,,,,,,,60ff54eca66d8b022b925291,61036f9df7839d9d6cf5906c,2021-07-30_12h51.15.603,Simcolourproject_2stim_asymm_v5,2020.2.10,MacIntel,60,61025ae37ef11b136ea224fe,,,,,,,,,3689,-33.484375,-82.30078125,1,0,0,response5disk,,3,-8.96875,-1.171875,1,0,0,rectangle,-8.96875,-1.171875,1,0,0,-8.96875,-1.171875,1,0,0,0,4,4,118,1,,,,,,,,
,,,,,,,,,,,,,FF,,,,,,,,1.6507,,,,,,,,,,,,,,,,,,,,,,60ff54eca66d8b022b925291,61036f9df7839d9d6cf5906c,2021-07-30_12h51.15.603,Simcolourproject_2stim_asymm_v5,2020.2.10,MacIntel,60,61025ae37ef11b136ea224fe,,,,,,,,,1228,-39.57421875,-86.90625,1,0,0,response5disk,,3,-0.51953125,6.3828125,1,0,0,rectangle,-0.51953125,6.3828125,1,0,0,-0.51953125,6.3828125,1,0,0,0,5,5,56,1,,,,,,,,
,,,,,,,,,,,,,FF,,,,,,,,2.7821,,,,,,,,,,,,,,,,,,,,,,60ff54eca66d8b022b925291,61036f9df7839d9d6cf5906c,2021-07-30_12h51.15.603,Simcolourproject_2stim_asymm_v5,2020.2.10,MacIntel,60,61025ae37ef11b136ea224fe,,,,,,,,,1526,-83.3125,-35.33203125,1,0,0,response5disk,,2,-12.90625,-1.12109375,1,0,0,rectangle,-12.90625,-1.12109375,1,0,0,-12.90625,-1.12109375,1,0,0,0,6,6,33,1,,,,,,,,
,,,,,,,,,,,,,FF,,,,,,,,1.1984,,,,,,,,,,,,,,,,,,,,,,60ff54eca66d8b022b925291,61036f9df7839d9d6cf5906c,2021-07-30_12h51.15.603,Simcolourproject_2stim_asymm_v5,2020.2.10,MacIntel,60,61025ae37ef11b136ea224fe,,,,,,,,,2995,-74.9296875,37.23046875,1,0,0,response7disk,,1,-16.578125,-6.81640625,1,0,0,rectangle,-16.578125,-6.81640625,1,0,0,-16.578125,-6.81640625,1,0,0,0,7,7,59,1,,,,,,,,
,,,,,,,,,,,,,FF,,,,,,,,2.2183,,,,,,,,,,,,,,,,,,,,,,60ff54eca66d8b022b925291,61036f9df7839d9d6cf5906c,2021-07-30_12h51.15.603,Simcolourproject_2stim_asymm_v5,2020.2.10,MacIntel,60,61025ae37ef11b136ea224fe,,,,,,,,,251,93.421875,-28.98046875,1,0,0,response3disk,,5,-23.33984375,14.27734375,1,0,0,rectangle,-23.33984375,14.27734375,1,0,0,-23.33984375,14.27734375,1,0,0,0,8,8,67,1,,,,,,,,
,,,,,,,,,,,,,FF,,,,,,,,1.3164,,,,,,,,,,,,,,,,,,,,,,60ff54eca66d8b022b925291,61036f9df7839d9d6cf5906c,2021-07-30_12h51.15.603,Simcolourproject_2stim_asymm_v5,2020.2.10,MacIntel,60,61025ae37ef11b136ea224fe,,,,,,,,,1454,-45.86328125,80.4453125,1,0,0,response7disk,,0,-9.40234375,-1.4296875,1,0,0,rectangle,-9.40234375,-1.4296875,1,0,0,-9.40234375,-1.4296875,1,0,0,0,9,9,116,1,,,,,,,,
,,,,,,,,,,,,,FF,,,,,,,,3.0495,,,,,,,,,,,,,,,,,,,,,,60ff54eca66d8b022b925291,61036f9df7839d9d6cf5906c,2021-07-30_12h51.15.603,Simcolourproject_2stim_asymm_v5,2020.2.10,MacIntel,60,61025ae37ef11b136ea224fe,,,,,,,,,4001,-89.93359375,34.6171875,1,0,0,response7disk,,1,-24.796875,-4.99609375,1,0,0,rectangle,-24.796875,-4.99609375,1,0,0,-24.796875,-4.99609375,1,0,0,0,10,10,99,1,,,,,,,,
,,,,,,,,,,,,,FF,,,,,,,,1.1842,,,,,,,,,,,,,,,,,,,,,,60ff54eca66d8b022b925291,61036f9df7839d9d6cf5906c,2021-07-30_12h51.15.603,Simcolourproject_2stim_asymm_v5,2020.2.10,MacIntel,60,61025ae37ef11b136ea224fe,,,,,,,,,2302,-39.73046875,-98.5,1,0,0,response5disk,,3,-8.5,-0.3359375,1,0,0,rectangle,-8.5,-0.3359375,1,0,0,-8.5,-0.3359375,1,0,0,0,11,11,71,1,,,,,,,,
,,,,,,,,,,,,,FF,,,,,,,,0.8358,,,,,,,,,,,,,,,,,,,,,,60ff54eca66d8b022b925291,61036f9df7839d9d6cf5906c,2021-07-30_12h51.15.603,Simcolourproject_2stim_asymm_v5,2020.2.10,MacIntel,60,61025ae37ef11b136ea224fe,,,,,,,,,368,-69.3046875,40.58203125,1,0,0,response7disk,,1,4.9296875,-4.08984375,1,0,0,rectangle,4.9296875,-4.08984375,1,0,0,4.9296875,-4.08984375,1,0,0,0,12,12,94,1,,,,,,,,
,,,,,,,,,,,,,FF,,,,,,,,1.3501,,,,,,,,,,,,,,,,,,,,,,60ff54eca66d8b022b925291,61036f9df7839d9d6cf5906c,2021-07-30_12h51.15.603,Simcolourproject_2stim_asymm_v5,2020.2.10,MacIntel,60,61025ae37ef11b136ea224fe,,,,,,,,,804,-99.3671875,-33.640625,1,0,0,response5disk,,2,-8.421875,-9.28125,1,0,0,rectangle,-8.421875,-9.28125,1,0,0,-8.421875,-9.28125,1,0,0,0,13,13,104,1,,,,,,,,
,,,,,,,,,,,,,FF,,,,,,,,1.0171,,,,,,,,,,,,,,,,,,,,,,60ff54eca66d8b022b925291,61036f9df7839d9d6cf5906c,2021-07-30_12h51.15.603,Simcolourproject_2stim_asymm_v5,2020.2.10,MacIntel,60,61025ae37ef11b136ea224fe,,,,,,,,,866,25.07421875,-72.5078125,1,0,0,response3disk,,4,-8.29296875,-1.62109375,1,0,0,rectangle,-8.29296875,-1.62109375,1,0,0,-8.29296875,-1.62109375,1,0,0,0,14,14,31,1,,,,,,,,
,,,,,,,,,,,,,FF,,,,,,,,3.1487,,,,,,,,,,,,,,,,,,,,,,60ff54eca66d8b022b925291,61036f9df7839d9d6cf5906c,2021-07-30_12h51.15.603,Simcolourproject_2stim_asymm_v5,2020.2.10,MacIntel,60,61025ae37ef11b136ea224fe,,,,,,,,,1766,-49.04296875,-78.73828125,1,0,0,response5disk,,3,18.4375,11.6328125,1,0,0,rectangle,18.4375,11.6328125,1,0,0,18.4375,11.6328125,1,0,0,0,15,15,154,1,,,,,,,,
,,,,,,,,,,,,,FF,,,,,,,,4.1661,,,,,,,,,,,,,,,,,,,,,,60ff54eca66d8b022b925291,61036f9df7839d9d6cf5906c,2021-07-30_12h51.15.603,Simcolourproject_2stim_asymm_v5,2020.2.10,MacIntel,60,61025ae37ef11b136ea224fe,,,,,,,,,2980,87.31640625,-42.109375,1,0,0,response3disk,,5,-7.375,17.578125,1,0,0,rectangle,-7.375,17.578125,1,0,0,-7.375,17.578125,1,0,0,0,16,16,35,1,,,,,,,,
,,,,,,,,,,,,,FF,,,,,,,,1.1492,,,,,,,,,,,,,,,,,,,,,,60ff54eca66d8b022b925291,61036f9df7839d9d6cf5906c,2021-07-30_12h51.15.603,Simcolourproject_2stim_asymm_v5,2020.2.10,MacIntel,60,61025ae37ef11b136ea224fe,,,,,,,,,4309,88.86328125,40.18359375,1,0,0,response1disk,,6,-11.02734375,-6.54296875,1,0,0,rectangle,-11.02734375,-6.54296875,1,0,0,-11.02734375,-6.54296875,1,0,0,0,17,17,70,1,,,,,,,,
,,,,,,,,,,,,,FF,,,,,,,,1.7347,,,,,,,,,,,,,,,,,,,,,,60ff54eca66d8b022b925291,61036f9df7839d9d6cf5906c,2021-07-30_12h51.15.603,Simcolourproject_2stim_asymm_v5,2020.2.10,MacIntel,60,61025ae37ef11b136ea224fe,,,,,,,,,3314,96.2734375,26.98046875,1,0,0,response1disk,,6,17.34765625,-7.171875,1,0,0,rectangle,17.34765625,-7.171875,1,0,0,17.34765625,-7.171875,1,0,0,0,18,18,15,1,,,,,,,,
,,,,,,,,,,,,,FF,,,,,,,,2.8816,,,,,,,,,,,,,,,,,,,,,,60ff54eca66d8b022b925291,61036f9df7839d9d6cf5906c,2021-07-30_12h51.15.603,Simcolourproject_2stim_asymm_v5,2020.2.10,MacIntel,60,61025ae37ef11b136ea224fe,,,,,,,,,891,-41.73046875,-92.0078125,1,0,0,response5disk,,3,-13.12109375,3.01953125,1,0,0,rectangle,-13.12109375,3.01953125,1,0,0,-13.12109375,3.01953125,1,0,0,0,19,19,75,1,,,,,,,,
,,,,,,,,,,,,,FF,,,,,,,,1.9169,,,,,,,,,,,,,,,,,,,,,,60ff54eca66d8b022b925291,61036f9df7839d9d6cf5906c,2021-07-30_12h51.15.603,Simcolourproject_2stim_asymm_v5,2020.2.10,MacIntel,60,61025ae37ef11b136ea224fe,,,,,,,,,2410,92.0625,47.1953125,1,0,0,response1disk,,6,-3.234375,-3.21875,1,0,0,rectangle,-3.234375,-3.21875,1,0,0,-3.234375,-3.21875,1,0,0,0,20,20,39,1,,,,,,,,
,,,,,,,,,,,,,FF,,,,,,,,0.9505,,,,,,,,,,,,,,,,,,,,,,60ff54eca66d8b022b925291,61036f9df7839d9d6cf5906c,2021-07-30_12h51.15.603,Simcolourproject_2stim_asymm_v5,2020.2.10,MacIntel,60,61025ae37ef11b136ea224fe,,,,,,,,,1245,41.56640625,-66.27734375,1,0,0,response3disk,,4,-11.41015625,1.7890625,1,0,0,rectangle,-11.41015625,1.7890625,1,0,0,-11.41015625,1.7890625,1,0,0,0,21,21,21,1,,,,,,,,
,,,,,,,,,,,,,FF,,,,,,,,0.781,,,,,,,,,,,,,,,,,,,,,,60ff54eca66d8b022b925291,61036f9df7839d9d6cf5906c,2021-07-30_12h51.15.603,Simcolourproject_2stim_asymm_v5,2020.2.10,MacIntel,60,61025ae37ef11b136ea224fe,,,,,,,,,3718,-64.91796875,41.9453125,1,0,0,response7disk,,1,-21.75,-2.45703125,1,0,0,rectangle,-21.75,-2.45703125,1,0,0,-21.75,-2.45703125,1,0,0,0,22,22,125,1,,,,,,,,
,,,,,,,,,,,,,FF,,,,,,,,0.8991,,,,,,,,,,,,,,,,,,,,,,60ff54eca66d8b022b925291,61036f9df7839d9d6cf5906c,2021-07-30_12h51.15.603,Simcolourproject_2stim_asymm_v5,2020.2.10,MacIntel,60,61025ae37ef11b136ea224fe,,,,,,,,,765,79.421875,-45.21484375,1,0,0,response3disk,,5,13.75,-13.38671875,1,0,0,rectangle,13.75,-13.38671875,1,0,0,13.75,-13.38671875,1,0,0,0,23,23,90,1,,,,,,,,
,,,,,,,,,,,,,FF,,,,,,,,1.0997,,,,,,,,,,,,,,,,,,,,,,60ff54eca66d8b022b925291,61036f9df7839d9d6cf5906c,2021-07-30_12h51.15.603,Simcolourproject_2stim_asymm_v5,2020.2.10,MacIntel,60,61025ae37ef11b136ea224fe,,,,,,,,,2653,-57.953125,-32.1328125,1,0,0,response5disk,,2,-8.55078125,-17.71875,1,0,0,rectangle,-8.55078125,-17.71875,1,0,0,-8.55078125,-17.71875,1,0,0,0,24,24,66,1,,,,,,,,
,,,,,,,,,,,,,FF,,,,,,,,1.0672,,,,,,,,,,,,,,,,,,,,,,60ff54eca66d8b022b925291,61036f9df7839d9d6cf5906c,2021-07-30_12h51.15.603,Simcolourproject_2stim_asymm_v5,2020.2.10,MacIntel,60,61025ae37ef11b136ea224fe,,,,,,,,,111,30.546875,-81.15625,1,0,0,response3disk,,4,-3.05859375,-1.3671875,1,0,0,rectangle,-3.05859375,-1.3671875,1,0,0,-3.05859375,-1.3671875,1,0,0,0,25,25,114,1,,,,,,,,
,,,,,,,,,,,,,FF,,,,,,,,1.5187,,,,,,,,,,,,,,,,,,,,,,60ff54eca66d8b022b925291,61036f9df7839d9d6cf5906c,2021-07-30_12h51.15.603,Simcolourproject_2stim_asymm_v5,2020.2.10,MacIntel,60,61025ae37ef11b136ea224fe,,,,,,,,,2744,99.22265625,-30.69140625,1,0,0,response3disk,,5,20.99609375,-4.1015625,1,0,0,rectangle,29.3203125,-85.859375,1,0,0,-2.3125,2.4921875,1,0,0,0,26,26,3,1,,response3disk_3,TRUE,4,4,"[142,57,147,258,58,231,126,318,90,259,246,35,27,264,170,82,177,273,111,45]",2.4665,rectangle
,,,,,,,,,,,,,FF,,,,,,,,2.0201,,,,,,,,,,,,,,,,,,,,,,60ff54eca66d8b022b925291,61036f9df7839d9d6cf5906c,2021-07-30_12h51.15.603,Simcolourproject_2stim_asymm_v5,2020.2.10,MacIntel,60,61025ae37ef11b136ea224fe,,,,,,,,,868,72.69921875,-55.4453125,1,0,0,response3disk,,5,-8.3203125,8.12890625,1,0,0,rectangle,-8.3203125,8.12890625,1,0,0,-8.3203125,8.12890625,1,0,0,0,27,27,55,1,,,,,,,,
,,,,,,,,,,,,,FF,,,,,,,,0.6659,,,,,,,,,,,,,,,,,,,,,,60ff54eca66d8b022b925291,61036f9df7839d9d6cf5906c,2021-07-30_12h51.15.603,Simcolourproject_2stim_asymm_v5,2020.2.10,MacIntel,60,61025ae37ef11b136ea224fe,,,,,,,,,1716,45.29296875,73.33984375,1,0,0,response1disk,,7,8.5390625,-9.66015625,1,0,0,rectangle,8.5390625,-9.66015625,1,0,0,8.5390625,-9.66015625,1,0,0,0,28,28,83,1,,,,,,,,
,,,,,,,,,,,,,FF,,,,,,,,1.0664,,,,,,,,,,,,,,,,,,,,,,60ff54eca66d8b022b925291,61036f9df7839d9d6cf5906c,2021-07-30_12h51.15.603,Simcolourproject_2stim_asymm_v5,2020.2.10,MacIntel,60,61025ae37ef11b136ea224fe,,,,,,,,,150,100.8632813,31.4453125,1,0,0,response1disk,,6,-16.7421875,-0.41796875,1,0,0,rectangle,-16.7421875,-0.41796875,1,0,0,-16.7421875,-0.41796875,1,0,0,0,29,29,143,1,,,,,,,,
,,,,,,,,,,,,,FF,,,,,,,,0.7846,,,,,,,,,,,,,,,,,,,,,,60ff54eca66d8b022b925291,61036f9df7839d9d6cf5906c,2021-07-30_12h51.15.603,Simcolourproject_2stim_asymm_v5,2020.2.10,MacIntel,60,61025ae37ef11b136ea224fe,,,,,,,,,3097,-69.390625,25.1484375,1,0,0,response7disk,,1,17.45703125,-10.859375,1,0,0,rectangle,17.45703125,-10.859375,1,0,0,17.45703125,-10.859375,1,0,0,0,30,30,146,1,,,,,,,,
,,,,,,,,,,,,,FF,,,,,,,,1.8347,,,,,,,,,,,,,,,,,,,,,,60ff54eca66d8b022b925291,61036f9df7839d9d6cf5906c,2021-07-30_12h51.15.603,Simcolourproject_2stim_asymm_v5,2020.2.10,MacIntel,60,61025ae37ef11b136ea224fe,,,,,,,,,420,24.9453125,-65.55859375,1,0,0,response3disk,,4,-3.90625,-16.31640625,1,0,0,rectangle,-3.90625,-16.31640625,1,0,0,-3.90625,-16.31640625,1,0,0,0,31,31,121,1,,,,,,,,
,,,,,,,,,,,,,FF,,,,,,,,1.3166,,,,,,,,,,,,,,,,,,,,,,60ff54eca66d8b022b925291,61036f9df7839d9d6cf5906c,2021-07-30_12h51.15.603,Simcolourproject_2stim_asymm_v5,2020.2.10,MacIntel,60,61025ae37ef11b136ea224fe,,,,,,,,,1931,52.78125,-34.15625,1,0,0,response3disk,,5,-4.7578125,-11.1328125,1,0,0,rectangle,-4.7578125,-11.1328125,1,0,0,-4.7578125,-11.1328125,1,0,0,0,32,32,88,1,,,,,,,,
,,,,,,,,,,,,,FF,,,,,,,,1.1318,,,,,,,,,,,,,,,,,,,,,,60ff54eca66d8b022b925291,61036f9df7839d9d6cf5906c,2021-07-30_12h51.15.603,Simcolourproject_2stim_asymm_v5,2020.2.10,MacIntel,60,61025ae37ef11b136ea224fe,,,,,,,,,3651,-35.02734375,-57.34765625,1,0,0,response5disk,,3,-7.52734375,-3.5546875,1,0,0,rectangle,-7.52734375,-3.5546875,1,0,0,-7.52734375,-3.5546875,1,0,0,0,33,33,128,1,,,,,,,,
,,,,,,,,,,,,,FF,,,,,,,,1.601,,,,,,,,,,,,,,,,,,,,,,60ff54eca66d8b022b925291,61036f9df7839d9d6cf5906c,2021-07-30_12h51.15.603,Simcolourproject_2stim_asymm_v5,2020.2.10,MacIntel,60,61025ae37ef11b136ea224fe,,,,,,,,,1034,-40.28125,-83.70703125,1,0,0,response5disk,,3,-7.75,-5.31640625,1,0,0,rectangle,48.3515625,-72.8671875,1,0,0,10.80078125,12.28125,1,0,0,0,34,34,113,1,,response3disk_3,TRUE,4,4,"[142,57,147,258,58,231,126,318,90,259,246,35,27,264,170,82,177,273,111,45]",2.1652,rectangle
,,,,,,,,,,,,,FF,,,,,,,,1.7869,,,,,,,,,,,,,,,,,,,,,,60ff54eca66d8b022b925291,61036f9df7839d9d6cf5906c,2021-07-30_12h51.15.603,Simcolourproject_2stim_asymm_v5,2020.2.10,MacIntel,60,61025ae37ef11b136ea224fe,,,,,,,,,2084,47.203125,-67.99609375,1,0,0,response3disk,,4,-8.046875,-9.77734375,1,0,0,rectangle,-8.046875,-9.77734375,1,0,0,-8.046875,-9.77734375,1,0,0,0,35,35,132,1,,,,,,,,
,,,,,,,,,,,,,FF,,,,,,,,0.8687,,,,,,,,,,,,,,,,,,,,,,60ff54eca66d8b022b925291,61036f9df7839d9d6cf5906c,2021-07-30_12h51.15.603,Simcolourproject_2stim_asymm_v5,2020.2.10,MacIntel,60,61025ae37ef11b136ea224fe,,,,,,,,,1879,17.4609375,-54,1,0,0,response3disk,,4,-4.49609375,9.66015625,1,0,0,rectangle,-4.49609375,9.66015625,1,0,0,-4.49609375,9.66015625,1,0,0,0,36,36,28,1,,,,,,,,
,,,,,,,,,,,,,FF,,,,,,,,1.6176,,,,,,,,,,,,,,,,,,,,,,60ff54eca66d8b022b925291,61036f9df7839d9d6cf5906c,2021-07-30_12h51.15.603,Simcolourproject_2stim_asymm_v5,2020.2.10,MacIntel,60,61025ae37ef11b136ea224fe,,,,,,,,,405,74.0625,18.9453125,1,0,0,response1disk,,6,-2.32421875,-5.7109375,1,0,0,rectangle,-2.32421875,-5.7109375,1,0,0,-2.32421875,-5.7109375,1,0,0,0,37,37,69,1,,,,,,,,
,,,,,,,,,,,,,FF,,,,,,,,0.7985,,,,,,,,,,,,,,,,,,,,,,60ff54eca66d8b022b925291,61036f9df7839d9d6cf5906c,2021-07-30_12h51.15.603,Simcolourproject_2stim_asymm_v5,2020.2.10,MacIntel,60,61025ae37ef11b136ea224fe,,,,,,,,,359,90.55078125,42.01171875,1,0,0,response1disk,,6,-6.078125,-9.921875,1,0,0,rectangle,-6.078125,-9.921875,1,0,0,-6.078125,-9.921875,1,0,0,0,38,38,144,1,,,,,,,,
,,,,,,,,,,,,,FF,,,,,,,,1.5989,,,,,,,,,,,,,,,,,,,,,,60ff54eca66d8b022b925291,61036f9df7839d9d6cf5906c,2021-07-30_12h51.15.603,Simcolourproject_2stim_asymm_v5,2020.2.10,MacIntel,60,61025ae37ef11b136ea224fe,,,,,,,,,2075,75.01953125,-58.62890625,1,0,0,response3disk,,5,-3.76171875,-10.90625,1,0,0,rectangle,-3.76171875,-10.90625,1,0,0,-3.76171875,-10.90625,1,0,0,0,39,39,53,1,,,,,,,,
,,,,,,,,,,,,,FF,,,,,,,,0.7645,,,,,,,,,,,,,,,,,,,,,,60ff54eca66d8b022b925291,61036f9df7839d9d6cf5906c,2021-07-30_12h51.15.603,Simcolourproject_2stim_asymm_v5,2020.2.10,MacIntel,60,61025ae37ef11b136ea224fe,,,,,,,,,1821,-75.16015625,-39.35546875,1,0,0,response5disk,,2,-12.09765625,4.29296875,1,0,0,rectangle,-12.09765625,4.29296875,1,0,0,-12.09765625,4.29296875,1,0,0,0,40,40,87,1,,,,,,,,
,,,,,,,,,,,,,FF,,,,,,,,1.182,,,,,,,,,,,,,,,,,,,,,,60ff54eca66d8b022b925291,61036f9df7839d9d6cf5906c,2021-07-30_12h51.15.603,Simcolourproject_2stim_asymm_v5,2020.2.10,MacIntel,60,61025ae37ef11b136ea224fe,,,,,,,,,1645,86.99609375,45.4765625,1,0,0,response1disk,,6,-1.5703125,-5.48828125,1,0,0,rectangle,-1.5703125,-5.48828125,1,0,0,-1.5703125,-5.48828125,1,0,0,0,41,41,138,1,,,,,,,,
,,,,,,,,,,,,,FF,,,,,,,,1.548,,,,,,,,,,,,,,,,,,,,,,60ff54eca66d8b022b925291,61036f9df7839d9d6cf5906c,2021-07-30_12h51.15.603,Simcolourproject_2stim_asymm_v5,2020.2.10,MacIntel,60,61025ae37ef11b136ea224fe,,,,,,,,,1478,75.3984375,-55.33984375,1,0,0,response3disk,,5,-9.171875,2.41015625,1,0,0,rectangle,-9.171875,2.41015625,1,0,0,-9.171875,2.41015625,1,0,0,0,42,42,13,1,,,,,,,,
,,,,,,,,,,,,,FF,,,,,,,,1.7519,,,,,,,,,,,,,,,,,,,,,,60ff54eca66d8b022b925291,61036f9df7839d9d6cf5906c,2021-07-30_12h51.15.603,Simcolourproject_2stim_asymm_v5,2020.2.10,MacIntel,60,61025ae37ef11b136ea224fe,,,,,,,,,1220,23.90625,-104.6835938,1,0,0,response3disk,,4,-5.96875,4.31640625,1,0,0,rectangle,-5.96875,4.31640625,1,0,0,-5.96875,4.31640625,1,0,0,0,43,43,89,1,,,,,,,,
,,,,,,,,,,,,,FF,,,,,,,,1.0163,,,,,,,,,,,,,,,,,,,,,,60ff54eca66d8b022b925291,61036f9df7839d9d6cf5906c,2021-07-30_12h51.15.603,Simcolourproject_2stim_asymm_v5,2020.2.10,MacIntel,60,61025ae37ef11b136ea224fe,,,,,,,,,348,-78.11328125,-51.34765625,1,0,0,response5disk,,2,-15.16796875,-13.078125,1,0,0,rectangle,-24.578125,71.82421875,1,0,0,-1.203125,3.71875,1,0,0,0,44,44,1,1,,response7disk_3,TRUE,0,0,"[142,57,147,258,58,231,126,318,90,259,246,35,27,264,170,82,177,273,111,45]",1.4178,rectangle
,,,,,,,,,,,,,FF,,,,,,,,1.1496,,,,,,,,,,,,,,,,,,,,,,60ff54eca66d8b022b925291,61036f9df7839d9d6cf5906c,2021-07-30_12h51.15.603,Simcolourproject_2stim_asymm_v5,2020.2.10,MacIntel,60,61025ae37ef11b136ea224fe,,,,,,,,,4176,78.08984375,-28.62109375,1,0,0,response3disk,,5,-15.80078125,15.92578125,1,0,0,rectangle,-15.80078125,15.92578125,1,0,0,-15.80078125,15.92578125,1,0,0,0,45,45,72,1,,,,,,,,
,,,,,,,,,,,,,FF,,,,,,,,0.9677,,,,,,,,,,,,,,,,,,,,,,60ff54eca66d8b022b925291,61036f9df7839d9d6cf5906c,2021-07-30_12h51.15.603,Simcolourproject_2stim_asymm_v5,2020.2.10,MacIntel,60,61025ae37ef11b136ea224fe,,,,,,,,,453,-72.73046875,-89.3828125,1,0,0,response5disk,,3,15.5625,0.8828125,1,0,0,rectangle,15.5625,0.8828125,1,0,0,15.5625,0.8828125,1,0,0,0,46,46,139,1,,,,,,,,
,,,,,,,,,,,,,FF,,,,,,,,0.7334,,,,,,,,,,,,,,,,,,,,,,60ff54eca66d8b022b925291,61036f9df7839d9d6cf5906c,2021-07-30_12h51.15.603,Simcolourproject_2stim_asymm_v5,2020.2.10,MacIntel,60,61025ae37ef11b136ea224fe,,,,,,,,,282,-91.39453125,-43.6484375,1,0,0,response5disk,,2,-0.625,-1.26171875,1,0,0,rectangle,-0.625,-1.26171875,1,0,0,-0.625,-1.26171875,1,0,0,0,47,47,60,1,,,,,,,,
,,,,,,,,,,,,,FF,,,,,,,,1.35,,,,,,,,,,,,,,,,,,,,,,60ff54eca66d8b022b925291,61036f9df7839d9d6cf5906c,2021-07-30_12h51.15.603,Simcolourproject_2stim_asymm_v5,2020.2.10,MacIntel,60,61025ae37ef11b136ea224fe,,,,,,,,,3453,53.51953125,-99.859375,1,0,0,response3disk,,4,14.46875,-5.34375,1,0,0,rectangle,14.46875,-5.34375,1,0,0,14.46875,-5.34375,1,0,0,0,48,48,105,1,,,,,,,,
,,,,,,,,,,,,,FF,,,,,,,,1.002,,,,,,,,,,,,,,,,,,,,,,60ff54eca66d8b022b925291,61036f9df7839d9d6cf5906c,2021-07-30_12h51.15.603,Simcolourproject_2stim_asymm_v5,2020.2.10,MacIntel,60,61025ae37ef11b136ea224fe,,,,,,,,,3277,67.15234375,-43.6328125,1,0,0,response3disk,,5,4.38671875,3.16796875,1,0,0,rectangle,4.38671875,3.16796875,1,0,0,4.38671875,3.16796875,1,0,0,0,49,49,58,1,,,,,,,,
,,,,,,,,,,,,,FF,,,,,,,,0.8346,,,,,,,,,,,,,,,,,,,,,,60ff54eca66d8b022b925291,61036f9df7839d9d6cf5906c,2021-07-30_12h51.15.603,Simcolourproject_2stim_asymm_v5,2020.2.10,MacIntel,60,61025ae37ef11b136ea224fe,,,,,,,,,1248,-29.27734375,-63.1328125,1,0,0,response5disk,,3,8.28125,-2.08984375,1,0,0,rectangle,8.28125,-2.08984375,1,0,0,8.28125,-2.08984375,1,0,0,0,50,50,156,1,,,,,,,,
,,,,,,,,,,,,,FF,,,,,,,,1.4655,,,,,,,,,,,,,,,,,,,,,,60ff54eca66d8b022b925291,61036f9df7839d9d6cf5906c,2021-07-30_12h51.15.603,Simcolourproject_2stim_asymm_v5,2020.2.10,MacIntel,60,61025ae37ef11b136ea224fe,,,,,,,,,824,-62.359375,-34.17578125,1,0,0,response5disk,,2,3.73046875,-3.01953125,1,0,0,rectangle,3.73046875,-3.01953125,1,0,0,3.73046875,-3.01953125,1,0,0,0,51,51,9,1,,,,,,,,
,,,,,,,,,,,,,FF,,,,,,,,1.0163,,,,,,,,,,,,,,,,,,,,,,60ff54eca66d8b022b925291,61036f9df7839d9d6cf5906c,2021-07-30_12h51.15.603,Simcolourproject_2stim_asymm_v5,2020.2.10,MacIntel,60,61025ae37ef11b136ea224fe,,,,,,,,,3169,51.59765625,-80.0546875,1,0,0,response3disk,,4,1.52734375,6.68359375,1,0,0,rectangle,1.52734375,6.68359375,1,0,0,1.52734375,6.68359375,1,0,0,0,52,52,40,1,,,,,,,,
,,,,,,,,,,,,,FF,,,,,,,,1.4346,,,,,,,,,,,,,,,,,,,,,,60ff54eca66d8b022b925291,61036f9df7839d9d6cf5906c,2021-07-30_12h51.15.603,Simcolourproject_2stim_asymm_v5,2020.2.10,MacIntel,60,61025ae37ef11b136ea224fe,,,,,,,,,288,41.11328125,-85.02734375,1,0,0,response3disk,,4,-12.640625,6.875,1,0,0,rectangle,-12.640625,6.875,1,0,0,-12.640625,6.875,1,0,0,0,53,53,44,1,,,,,,,,
,,,,,,,,,,,,,FF,,,,,,,,1.7998,,,,,,,,,,,,,,,,,,,,,,60ff54eca66d8b022b925291,61036f9df7839d9d6cf5906c,2021-07-30_12h51.15.603,Simcolourproject_2stim_asymm_v5,2020.2.10,MacIntel,60,61025ae37ef11b136ea224fe,,,,,,,,,4026,-92.2265625,-58.66015625,1,0,0,response5disk,,2,26.9921875,12.76953125,1,0,0,rectangle,26.9921875,12.76953125,1,0,0,26.9921875,12.76953125,1,0,0,0,54,54,129,1,,,,,,,,
,,,,,,,,,,,,,FF,,,,,,,,1.0161,,,,,,,,,,,,,,,,,,,,,,60ff54eca66d8b022b925291,61036f9df7839d9d6cf5906c,2021-07-30_12h51.15.603,Simcolourproject_2stim_asymm_v5,2020.2.10,MacIntel,60,61025ae37ef11b136ea224fe,,,,,,,,,1911,36.21484375,-67.09375,1,0,0,response3disk,,4,13.296875,11.9765625,1,0,0,rectangle,13.296875,11.9765625,1,0,0,13.296875,11.9765625,1,0,0,0,55,55,63,1,,,,,,,,
,,,,,,,,,,,,,FF,,,,,,,,0.9506,,,,,,,,,,,,,,,,,,,,,,60ff54eca66d8b022b925291,61036f9df7839d9d6cf5906c,2021-07-30_12h51.15.603,Simcolourproject_2stim_asymm_v5,2020.2.10,MacIntel,60,61025ae37ef11b136ea224fe,,,,,,,,,3253,74.1953125,-55.3515625,1,0,0,response3disk,,5,-0.06640625,-7.51171875,1,0,0,rectangle,40.8359375,-115.671875,1,0,0,7.3671875,0.47265625,1,0,0,0,56,56,62,1,,response3disk_3,TRUE,4,4,"[142,57,147,258,58,231,126,318,90,259,246,35,27,264,170,82,177,273,111,45]",1.8833,rectangle
,,,,,,,,,,,,,FF,,,,,,,,3.3827,,,,,,,,,,,,,,,,,,,,,,60ff54eca66d8b022b925291,61036f9df7839d9d6cf5906c,2021-07-30_12h51.15.603,Simcolourproject_2stim_asymm_v5,2020.2.10,MacIntel,60,61025ae37ef11b136ea224fe,,,,,,,,,3494,-26.41015625,-77.015625,1,0,0,response5disk,,3,-8.2578125,-4.9921875,1,0,0,rectangle,67.04296875,39.4140625,1,0,0,-10.63671875,-5.7890625,1,0,0,0,57,57,51,1,,response1disk_3,TRUE,6,6,"[142,57,147,258,58,231,126,318,90,259,246,35,27,264,170,82,177,273,111,45]",2.1159,rectangle
,,,,,,,,,,,,,FF,,,,,,,,0.8864,,,,,,,,,,,,,,,,,,,,,,60ff54eca66d8b022b925291,61036f9df7839d9d6cf5906c,2021-07-30_12h51.15.603,Simcolourproject_2stim_asymm_v5,2020.2.10,MacIntel,60,61025ae37ef11b136ea224fe,,,,,,,,,2749,87.62890625,-53.234375,1,0,0,response3disk,,5,-22.76171875,6.3359375,1,0,0,rectangle,-22.76171875,6.3359375,1,0,0,-22.76171875,6.3359375,1,0,0,0,58,58,131,1,,,,,,,,
,,,,,,,,,,,,,FF,,,,,,,,0.7031,,,,,,,,,,,,,,,,,,,,,,60ff54eca66d8b022b925291,61036f9df7839d9d6cf5906c,2021-07-30_12h51.15.603,Simcolourproject_2stim_asymm_v5,2020.2.10,MacIntel,60,61025ae37ef11b136ea224fe,,,,,,,,,7,-74.81640625,-37.20703125,1,0,0,response5disk,,2,-8.9296875,-15.1796875,1,0,0,rectangle,-8.9296875,-15.1796875,1,0,0,-8.9296875,-15.1796875,1,0,0,0,59,59,119,1,,,,,,,,
,,,,,,,,,,,,,FF,,,,,,,,0.7659,,,,,,,,,,,,,,,,,,,,,,60ff54eca66d8b022b925291,61036f9df7839d9d6cf5906c,2021-07-30_12h51.15.603,Simcolourproject_2stim_asymm_v5,2020.2.10,MacIntel,60,61025ae37ef11b136ea224fe,,,,,,,,,3322,50.21484375,-65.9453125,1,0,0,response3disk,,4,18.50390625,-4.18359375,1,0,0,rectangle,18.50390625,-4.18359375,1,0,0,18.50390625,-4.18359375,1,0,0,0,60,60,98,1,,,,,,,,
,,,,,,,,,,,,,FF,,,,,,,,0.9005,,,,,,,,,,,,,,,,,,,,,,60ff54eca66d8b022b925291,61036f9df7839d9d6cf5906c,2021-07-30_12h51.15.603,Simcolourproject_2stim_asymm_v5,2020.2.10,MacIntel,60,61025ae37ef11b136ea224fe,,,,,,,,,3304,-22.93359375,-72.21875,1,0,0,response5disk,,3,2.3828125,-11.1640625,1,0,0,rectangle,2.3828125,-11.1640625,1,0,0,2.3828125,-11.1640625,1,0,0,0,61,61,142,1,,,,,,,,
,,,,,,,,,,,,,FF,,,,,,,,0.8997,,,,,,,,,,,,,,,,,,,,,,60ff54eca66d8b022b925291,61036f9df7839d9d6cf5906c,2021-07-30_12h51.15.603,Simcolourproject_2stim_asymm_v5,2020.2.10,MacIntel,60,61025ae37ef11b136ea224fe,,,,,,,,,2212,60.62890625,-20.1171875,1,0,0,response3disk,,5,-1.5859375,0.9140625,1,0,0,rectangle,-1.5859375,0.9140625,1,0,0,-1.5859375,0.9140625,1,0,0,0,62,62,30,1,,,,,,,,
,,,,,,,,,,,,,FF,,,,,,,,0.9349,,,,,,,,,,,,,,,,,,,,,,60ff54eca66d8b022b925291,61036f9df7839d9d6cf5906c,2021-07-30_12h51.15.603,Simcolourproject_2stim_asymm_v5,2020.2.10,MacIntel,60,61025ae37ef11b136ea224fe,,,,,,,,,1202,-63.10546875,40.1796875,1,0,0,response7disk,,1,-16.35546875,10.4921875,1,0,0,rectangle,-16.35546875,10.4921875,1,0,0,-16.35546875,10.4921875,1,0,0,0,63,63,127,1,,,,,,,,
,,,,,,,,,,,,,FF,,,,,,,,1.0007,,,,,,,,,,,,,,,,,,,,,,60ff54eca66d8b022b925291,61036f9df7839d9d6cf5906c,2021-07-30_12h51.15.603,Simcolourproject_2stim_asymm_v5,2020.2.10,MacIntel,60,61025ae37ef11b136ea224fe,,,,,,,,,881,50.04296875,-88.75390625,1,0,0,response3disk,,4,2.73046875,-7.66015625,1,0,0,rectangle,2.73046875,-7.66015625,1,0,0,2.73046875,-7.66015625,1,0,0,0,64,64,24,1,,,,,,,,
,,,,,,,,,,,,,FF,,,,,,,,0.8518,,,,,,,,,,,,,,,,,,,,,,60ff54eca66d8b022b925291,61036f9df7839d9d6cf5906c,2021-07-30_12h51.15.603,Simcolourproject_2stim_asymm_v5,2020.2.10,MacIntel,60,61025ae37ef11b136ea224fe,,,,,,,,,458,-31.6796875,-57.91796875,1,0,0,response5disk,,3,5.60546875,-0.4921875,1,0,0,rectangle,5.60546875,-0.4921875,1,0,0,5.60546875,-0.4921875,1,0,0,0,65,65,27,1,,,,,,,,
,,,,,,,,,,,,,FF,,,,,,,,1.3507,,,,,,,,,,,,,,,,,,,,,,60ff54eca66d8b022b925291,61036f9df7839d9d6cf5906c,2021-07-30_12h51.15.603,Simcolourproject_2stim_asymm_v5,2020.2.10,MacIntel,60,61025ae37ef11b136ea224fe,,,,,,,,,3145,76.375,-32.40234375,1,0,0,response3disk,,5,20.359375,3,1,0,0,rectangle,20.359375,3,1,0,0,20.359375,3,1,0,0,0,66,66,151,1,,,,,,,,
,,,,,,,,,,,,,FF,,,,,,,,1.5882,,,,,,,,,,,,,,,,,,,,,,60ff54eca66d8b022b925291,61036f9df7839d9d6cf5906c,2021-07-30_12h51.15.603,Simcolourproject_2stim_asymm_v5,2020.2.10,MacIntel,60,61025ae37ef11b136ea224fe,,,,,,,,,1484,50.64453125,-92.2578125,1,0,0,response3disk,,4,1.1640625,-5.5078125,1,0,0,rectangle,1.1640625,-5.5078125,1,0,0,1.1640625,-5.5078125,1,0,0,0,67,67,100,1,,,,,,,,
,,,,,,,,,,,,,FF,,,,,,,,1.8997,,,,,,,,,,,,,,,,,,,,,,60ff54eca66d8b022b925291,61036f9df7839d9d6cf5906c,2021-07-30_12h51.15.603,Simcolourproject_2stim_asymm_v5,2020.2.10,MacIntel,60,61025ae37ef11b136ea224fe,,,,,,,,,3739,-26.125,-71.9296875,1,0,0,response5disk,,3,-8.55078125,-5.26171875,1,0,0,rectangle,-8.55078125,-5.26171875,1,0,0,-8.55078125,-5.26171875,1,0,0,0,68,68,97,1,,,,,,,,
,,,,,,,,,,,,,FF,,,,,,,,0.9817,,,,,,,,,,,,,,,,,,,,,,60ff54eca66d8b022b925291,61036f9df7839d9d6cf5906c,2021-07-30_12h51.15.603,Simcolourproject_2stim_asymm_v5,2020.2.10,MacIntel,60,61025ae37ef11b136ea224fe,,,,,,,,,1557,73.42578125,25.23828125,1,0,0,response1disk,,6,14.296875,6.1796875,1,0,0,rectangle,14.296875,6.1796875,1,0,0,14.296875,6.1796875,1,0,0,0,69,69,76,1,,,,,,,,
,,,,,,,,,,,,,FF,,,,,,,,0.7813,,,,,,,,,,,,,,,,,,,,,,60ff54eca66d8b022b925291,61036f9df7839d9d6cf5906c,2021-07-30_12h51.15.603,Simcolourproject_2stim_asymm_v5,2020.2.10,MacIntel,60,61025ae37ef11b136ea224fe,,,,,,,,,439,-53.65625,-35.890625,1,0,0,response5disk,,2,24.82421875,-0.390625,1,0,0,rectangle,24.82421875,-0.390625,1,0,0,24.82421875,-0.390625,1,0,0,0,70,70,48,1,,,,,,,,
,,,,,,,,,,,,,FF,,,,,,,,0.7501,,,,,,,,,,,,,,,,,,,,,,60ff54eca66d8b022b925291,61036f9df7839d9d6cf5906c,2021-07-30_12h51.15.603,Simcolourproject_2stim_asymm_v5,2020.2.10,MacIntel,60,61025ae37ef11b136ea224fe,,,,,,,,,3628,67.140625,-37.73828125,1,0,0,response3disk,,5,-4.65234375,-7.83203125,1,0,0,rectangle,-4.65234375,-7.83203125,1,0,0,-4.65234375,-7.83203125,1,0,0,0,71,71,73,1,,,,,,,,
,,,,,,,,,,,,,FF,,,,,,,,1.1658,,,,,,,,,,,,,,,,,,,,,,60ff54eca66d8b022b925291,61036f9df7839d9d6cf5906c,2021-07-30_12h51.15.603,Simcolourproject_2stim_asymm_v5,2020.2.10,MacIntel,60,61025ae37ef11b136ea224fe,,,,,,,,,2896,-25.72265625,-84.1953125,1,0,0,response5disk,,3,15.109375,-6.08203125,1,0,0,rectangle,15.109375,-6.08203125,1,0,0,15.109375,-6.08203125,1,0,0,0,72,72,22,1,,,,,,,,
,,,,,,,,,,,,,FF,,,,,,,,1.1834,,,,,,,,,,,,,,,,,,,,,,60ff54eca66d8b022b925291,61036f9df7839d9d6cf5906c,2021-07-30_12h51.15.603,Simcolourproject_2stim_asymm_v5,2020.2.10,MacIntel,60,61025ae37ef11b136ea224fe,,,,,,,,,1683,-97.17578125,-54.5859375,1,0,0,response5disk,,2,7.6640625,6.9140625,1,0,0,rectangle,7.6640625,6.9140625,1,0,0,7.6640625,6.9140625,1,0,0,0,73,73,120,1,,,,,,,,
,,,,,,,,,,,,,FF,,,,,,,,1.0843,,,,,,,,,,,,,,,,,,,,,,60ff54eca66d8b022b925291,61036f9df7839d9d6cf5906c,2021-07-30_12h51.15.603,Simcolourproject_2stim_asymm_v5,2020.2.10,MacIntel,60,61025ae37ef11b136ea224fe,,,,,,,,,2882,55.01171875,-84.7109375,1,0,0,response3disk,,4,-2.6796875,9.625,1,0,0,rectangle,-2.6796875,9.625,1,0,0,-2.6796875,9.625,1,0,0,0,74,74,115,1,,,,,,,,
,,,,,,,,,,,,,FF,,,,,,,,4.0327,,,,,,,,,,,,,,,,,,,,,,60ff54eca66d8b022b925291,61036f9df7839d9d6cf5906c,2021-07-30_12h51.15.603,Simcolourproject_2stim_asymm_v5,2020.2.10,MacIntel,60,61025ae37ef11b136ea224fe,,,,,,,,,2559,73.3984375,-50.07421875,1,0,0,response3disk,,5,16.12890625,-9.12109375,1,0,0,rectangle,16.12890625,-9.12109375,1,0,0,16.12890625,-9.12109375,1,0,0,0,75,75,84,1,,,,,,,,
,,,,,,,,,,,,,FF,,,,,,,,0.851,,,,,,,,,,,,,,,,,,,,,,60ff54eca66d8b022b925291,61036f9df7839d9d6cf5906c,2021-07-30_12h51.15.603,Simcolourproject_2stim_asymm_v5,2020.2.10,MacIntel,60,61025ae37ef11b136ea224fe,,,,,,,,,1886,-72.25390625,97.72265625,1,0,0,response7disk,,0,-13.359375,-3.52734375,1,0,0,rectangle,-13.359375,-3.52734375,1,0,0,-13.359375,-3.52734375,1,0,0,0,76,76,46,1,,,,,,,,
,,,,,,,,,,,,,FF,,,,,,,,1.5848,,,,,,,,,,,,,,,,,,,,,,60ff54eca66d8b022b925291,61036f9df7839d9d6cf5906c,2021-07-30_12h51.15.603,Simcolourproject_2stim_asymm_v5,2020.2.10,MacIntel,60,61025ae37ef11b136ea224fe,,,,,,,,,602,66.47265625,-39.078125,1,0,0,response3disk,,5,16.36328125,-11.66015625,1,0,0,rectangle,16.36328125,-11.66015625,1,0,0,16.36328125,-11.66015625,1,0,0,0,77,77,141,1,,,,,,,,
,,,,,,,,,,,,,FF,,,,,,,,1.2836,,,,,,,,,,,,,,,,,,,,,,60ff54eca66d8b022b925291,61036f9df7839d9d6cf5906c,2021-07-30_12h51.15.603,Simcolourproject_2stim_asymm_v5,2020.2.10,MacIntel,60,61025ae37ef11b136ea224fe,,,,,,,,,1825,-40.62109375,-79.1640625,1,0,0,response5disk,,3,-1.20703125,3.734375,1,0,0,rectangle,-1.20703125,3.734375,1,0,0,-1.20703125,3.734375,1,0,0,0,78,78,92,1,,,,,,,,
,,,,,,,,,,,,,FF,,,,,,,,3.1324,,,,,,,,,,,,,,,,,,,,,,60ff54eca66d8b022b925291,61036f9df7839d9d6cf5906c,2021-07-30_12h51.15.603,Simcolourproject_2stim_asymm_v5,2020.2.10,MacIntel,60,61025ae37ef11b136ea224fe,,,,,,,,,1813,54.10546875,-77.7421875,1,0,0,response3disk,,4,5.18359375,14.12890625,1,0,0,rectangle,5.18359375,14.12890625,1,0,0,5.18359375,14.12890625,1,0,0,0,79,79,16,1,,,,,,,,
,,,,,,,,,,,,,FF,,,,,,,,2.9683,,,,,,,,,,,,,,,,,,,,,,60ff54eca66d8b022b925291,61036f9df7839d9d6cf5906c,2021-07-30_12h51.15.603,Simcolourproject_2stim_asymm_v5,2020.2.10,MacIntel,60,61025ae37ef11b136ea224fe,,,,,,,,,4069,93.328125,49.91015625,1,0,0,response1disk,,6,5.0234375,12.1015625,1,0,0,rectangle,5.0234375,12.1015625,1,0,0,5.0234375,12.1015625,1,0,0,0,80,80,148,1,,,,,,,,
,,,,,,,,,,,,,FF,,,,,,,,0.8671,,,,,,,,,,,,,,,,,,,,,,60ff54eca66d8b022b925291,61036f9df7839d9d6cf5906c,2021-07-30_12h51.15.603,Simcolourproject_2stim_asymm_v5,2020.2.10,MacIntel,60,61025ae37ef11b136ea224fe,,,,,,,,,1707,57.41015625,83.95703125,1,0,0,response1disk,,7,8.71484375,-13.01953125,1,0,0,rectangle,-46.12109375,81.68359375,1,0,0,-9.5,-5.75390625,1,0,0,0,81,81,20,1,,response7disk_3,TRUE,0,0,"[142,57,147,258,58,231,126,318,90,259,246,35,27,264,170,82,177,273,111,45]",2.0494,rectangle
,,,,,,,,,,,,,FF,,,,,,,,1.3496,,,,,,,,,,,,,,,,,,,,,,60ff54eca66d8b022b925291,61036f9df7839d9d6cf5906c,2021-07-30_12h51.15.603,Simcolourproject_2stim_asymm_v5,2020.2.10,MacIntel,60,61025ae37ef11b136ea224fe,,,,,,,,,1213,-82.44921875,30.0546875,1,0,0,response7disk,,1,35.85546875,-4.3046875,1,0,0,rectangle,35.85546875,-4.3046875,1,0,0,35.85546875,-4.3046875,1,0,0,0,82,82,5,1,,,,,,,,
,,,,,,,,,,,,,FF,,,,,,,,1.3988,,,,,,,,,,,,,,,,,,,,,,60ff54eca66d8b022b925291,61036f9df7839d9d6cf5906c,2021-07-30_12h51.15.603,Simcolourproject_2stim_asymm_v5,2020.2.10,MacIntel,60,61025ae37ef11b136ea224fe,,,,,,,,,1944,64.5390625,-88.97265625,1,0,0,response3disk,,4,3.3125,-1.5,1,0,0,rectangle,3.3125,-1.5,1,0,0,3.3125,-1.5,1,0,0,0,83,83,32,1,,,,,,,,
,,,,,,,,,,,,,FF,,,,,,,,0.9351,,,,,,,,,,,,,,,,,,,,,,60ff54eca66d8b022b925291,61036f9df7839d9d6cf5906c,2021-07-30_12h51.15.603,Simcolourproject_2stim_asymm_v5,2020.2.10,MacIntel,60,61025ae37ef11b136ea224fe,,,,,,,,,1547,93.4453125,47.14453125,1,0,0,response1disk,,6,-12.11328125,-2.01953125,1,0,0,rectangle,-12.11328125,-2.01953125,1,0,0,-12.11328125,-2.01953125,1,0,0,0,84,84,17,1,,,,,,,,
,,,,,,,,,,,,,FF,,,,,,,,0.6683,,,,,,,,,,,,,,,,,,,,,,60ff54eca66d8b022b925291,61036f9df7839d9d6cf5906c,2021-07-30_12h51.15.603,Simcolourproject_2stim_asymm_v5,2020.2.10,MacIntel,60,61025ae37ef11b136ea224fe,,,,,,,,,4368,-29.16796875,51.56640625,1,0,0,response7disk,,0,7.6796875,-4.578125,1,0,0,rectangle,7.6796875,-4.578125,1,0,0,7.6796875,-4.578125,1,0,0,0,85,85,6,1,,,,,,,,
,,,,,,,,,,,,,FF,,,,,,,,1.0175,,,,,,,,,,,,,,,,,,,,,,60ff54eca66d8b022b925291,61036f9df7839d9d6cf5906c,2021-07-30_12h51.15.603,Simcolourproject_2stim_asymm_v5,2020.2.10,MacIntel,60,61025ae37ef11b136ea224fe,,,,,,,,,2640,74.953125,28.375,1,0,0,response1disk,,6,-0.65625,4.30859375,1,0,0,rectangle,-0.65625,4.30859375,1,0,0,-0.65625,4.30859375,1,0,0,0,86,86,147,1,,,,,,,,
,,,,,,,,,,,,,FF,,,,,,,,0.9655,,,,,,,,,,,,,,,,,,,,,,60ff54eca66d8b022b925291,61036f9df7839d9d6cf5906c,2021-07-30_12h51.15.603,Simcolourproject_2stim_asymm_v5,2020.2.10,MacIntel,60,61025ae37ef11b136ea224fe,,,,,,,,,3002,-71.0546875,-38.8203125,1,0,0,response5disk,,2,-4.93359375,3.953125,1,0,0,rectangle,-4.93359375,3.953125,1,0,0,-4.93359375,3.953125,1,0,0,0,87,87,137,1,,,,,,,,
,,,,,,,,,,,,,FF,,,,,,,,0.8664,,,,,,,,,,,,,,,,,,,,,,60ff54eca66d8b022b925291,61036f9df7839d9d6cf5906c,2021-07-30_12h51.15.603,Simcolourproject_2stim_asymm_v5,2020.2.10,MacIntel,60,61025ae37ef11b136ea224fe,,,,,,,,,332,65.046875,-41.79296875,1,0,0,response3disk,,5,-12.1171875,6.796875,1,0,0,rectangle,-12.1171875,6.796875,1,0,0,-12.1171875,6.796875,1,0,0,0,88,88,108,1,,,,,,,,
,,,,,,,,,,,,,FF,,,,,,,,1.2016,,,,,,,,,,,,,,,,,,,,,,60ff54eca66d8b022b925291,61036f9df7839d9d6cf5906c,2021-07-30_12h51.15.603,Simcolourproject_2stim_asymm_v5,2020.2.10,MacIntel,60,61025ae37ef11b136ea224fe,,,,,,,,,4253,-84.20703125,23.19921875,1,0,0,response7disk,,1,8.9765625,7.76171875,1,0,0,rectangle,39.625,79.26953125,1,0,0,0.9375,2.5859375,1,0,0,0,89,89,50,1,,response1disk_3,TRUE,7,7,"[142,57,147,258,58,231,126,318,90,259,246,35,27,264,170,82,177,273,111,45]",1.5687,rectangle
,,,,,,,,,,,,,FF,,,,,,,,0.8337,,,,,,,,,,,,,,,,,,,,,,60ff54eca66d8b022b925291,61036f9df7839d9d6cf5906c,2021-07-30_12h51.15.603,Simcolourproject_2stim_asymm_v5,2020.2.10,MacIntel,60,61025ae37ef11b136ea224fe,,,,,,,,,962,76.77734375,33.53125,1,0,0,response1disk,,6,-0.359375,1.47265625,1,0,0,rectangle,-0.359375,1.47265625,1,0,0,-0.359375,1.47265625,1,0,0,0,90,90,155,1,,,,,,,,
,,,,,,,,,,,,,FF,,,,,,,,1.0037,,,,,,,,,,,,,,,,,,,,,,60ff54eca66d8b022b925291,61036f9df7839d9d6cf5906c,2021-07-30_12h51.15.603,Simcolourproject_2stim_asymm_v5,2020.2.10,MacIntel,60,61025ae37ef11b136ea224fe,,,,,,,,,1531,-88.34765625,-44.31640625,1,0,0,response5disk,,2,-1.63671875,0.62890625,1,0,0,rectangle,-1.63671875,0.62890625,1,0,0,-1.63671875,0.62890625,1,0,0,0,91,91,150,1,,,,,,,,
,,,,,,,,,,,,,FF,,,,,,,,152.3504,,,,,,,,,,,,,,,,,,,,,,60ff54eca66d8b022b925291,61036f9df7839d9d6cf5906c,2021-07-30_12h51.15.603,Simcolourproject_2stim_asymm_v5,2020.2.10,MacIntel,60,61025ae37ef11b136ea224fe,,,,,,,,,21,-43.75390625,-86.1328125,1,0,0,response5disk,,3,-8.3203125,-0.203125,1,0,0,rectangle,-8.3203125,-0.203125,1,0,0,-8.3203125,-0.203125,1,0,0,0,92,92,61,1,,,,,,,,
,,,,,,,,,,,,,FF,,,,,,,,2.7493,,,,,,,,,,,,,,,,,,,,,,60ff54eca66d8b022b925291,61036f9df7839d9d6cf5906c,2021-07-30_12h51.15.603,Simcolourproject_2stim_asymm_v5,2020.2.10,MacIntel,60,61025ae37ef11b136ea224fe,,,,,,,,,607,-37.45703125,-73.44921875,1,0,0,response5disk,,3,7.08984375,8.12890625,1,0,0,rectangle,7.08984375,8.12890625,1,0,0,7.08984375,8.12890625,1,0,0,0,93,93,47,1,,,,,,,,
,,,,,,,,,,,,,FF,,,,,,,,0.969,,,,,,,,,,,,,,,,,,,,,,60ff54eca66d8b022b925291,61036f9df7839d9d6cf5906c,2021-07-30_12h51.15.603,Simcolourproject_2stim_asymm_v5,2020.2.10,MacIntel,60,61025ae37ef11b136ea224fe,,,,,,,,,2544,-108.0976563,-49.88671875,1,0,0,response5disk,,2,-4.21875,3.91796875,1,0,0,rectangle,-4.21875,3.91796875,1,0,0,-4.21875,3.91796875,1,0,0,0,94,94,81,1,,,,,,,,
,,,,,,,,,,,,,FF,,,,,,,,1.3189,,,,,,,,,,,,,,,,,,,,,,60ff54eca66d8b022b925291,61036f9df7839d9d6cf5906c,2021-07-30_12h51.15.603,Simcolourproject_2stim_asymm_v5,2020.2.10,MacIntel,60,61025ae37ef11b136ea224fe,,,,,,,,,2256,37.48828125,-99.9375,1,0,0,response3disk,,4,9.3046875,5.75390625,1,0,0,rectangle,9.3046875,5.75390625,1,0,0,9.3046875,5.75390625,1,0,0,0,95,95,86,1,,,,,,,,
,,,,,,,,,,,,,FF,,,,,,,,1.8846,,,,,,,,,,,,,,,,,,,,,,60ff54eca66d8b022b925291,61036f9df7839d9d6cf5906c,2021-07-30_12h51.15.603,Simcolourproject_2stim_asymm_v5,2020.2.10,MacIntel,60,61025ae37ef11b136ea224fe,,,,,,,,,2131,64.33203125,-52.3203125,1,0,0,response3disk,,5,-2.015625,-3.53515625,1,0,0,rectangle,-2.015625,-3.53515625,1,0,0,-2.015625,-3.53515625,1,0,0,0,96,96,80,1,,,,,,,,
,,,,,,,,,,,,,FF,,,,,,,,1.0679,,,,,,,,,,,,,,,,,,,,,,60ff54eca66d8b022b925291,61036f9df7839d9d6cf5906c,2021-07-30_12h51.15.603,Simcolourproject_2stim_asymm_v5,2020.2.10,MacIntel,60,61025ae37ef11b136ea224fe,,,,,,,,,4215,79.48828125,-24.2265625,1,0,0,response3disk,,5,13.04296875,-14.3046875,1,0,0,rectangle,13.04296875,-14.3046875,1,0,0,13.04296875,-14.3046875,1,0,0,0,97,97,107,1,,,,,,,,
,,,,,,,,,,,,,FF,,,,,,,,1.3502,,,,,,,,,,,,,,,,,,,,,,60ff54eca66d8b022b925291,61036f9df7839d9d6cf5906c,2021-07-30_12h51.15.603,Simcolourproject_2stim_asymm_v5,2020.2.10,MacIntel,60,61025ae37ef11b136ea224fe,,,,,,,,,152,87.10546875,-44.984375,1,0,0,response3disk,,5,2.94921875,1.69921875,1,0,0,rectangle,2.94921875,1.69921875,1,0,0,2.94921875,1.69921875,1,0,0,0,98,98,159,1,,,,,,,,
,,,,,,,,,,,,,FF,,,,,,,,0.9687,,,,,,,,,,,,,,,,,,,,,,60ff54eca66d8b022b925291,61036f9df7839d9d6cf5906c,2021-07-30_12h51.15.603,Simcolourproject_2stim_asymm_v5,2020.2.10,MacIntel,60,61025ae37ef11b136ea224fe,,,,,,,,,2218,-67.39453125,31.3359375,1,0,0,response7disk,,1,-10.8984375,-4.109375,1,0,0,rectangle,-10.8984375,-4.109375,1,0,0,-10.8984375,-4.109375,1,0,0,0,99,99,101,1,,,,,,,,
,,,,,,,,,,,,,FF,,,,,,,,1.5991,,,,,,,,,,,,,,,,,,,,,,60ff54eca66d8b022b925291,61036f9df7839d9d6cf5906c,2021-07-30_12h51.15.603,Simcolourproject_2stim_asymm_v5,2020.2.10,MacIntel,60,61025ae37ef11b136ea224fe,,,,,,,,,2003,72.234375,-33.36328125,1,0,0,response3disk,,5,2.28125,9.41015625,1,0,0,rectangle,2.28125,9.41015625,1,0,0,2.28125,9.41015625,1,0,0,0,100,100,153,1,,,,,,,,
,,,,,,,,,,,,,FF,,,,,,,,2.5348,,,,,,,,,,,,,,,,,,,,,,60ff54eca66d8b022b925291,61036f9df7839d9d6cf5906c,2021-07-30_12h51.15.603,Simcolourproject_2stim_asymm_v5,2020.2.10,MacIntel,60,61025ae37ef11b136ea224fe,,,,,,,,,3549,89.5234375,-22.64453125,1,0,0,response3disk,,5,0.05078125,10.89453125,1,0,0,rectangle,0.05078125,10.89453125,1,0,0,0.05078125,10.89453125,1,0,0,0,101,101,102,1,,,,,,,,
,,,,,,,,,,,,,FF,,,,,,,,1.7183,,,,,,,,,,,,,,,,,,,,,,60ff54eca66d8b022b925291,61036f9df7839d9d6cf5906c,2021-07-30_12h51.15.603,Simcolourproject_2stim_asymm_v5,2020.2.10,MacIntel,60,61025ae37ef11b136ea224fe,,,,,,,,,2137,69.54296875,-89.83203125,1,0,0,response3disk,,4,6.890625,4.96875,1,0,0,rectangle,6.890625,4.96875,1,0,0,6.890625,4.96875,1,0,0,0,102,102,29,1,,,,,,,,
,,,,,,,,,,,,,FF,,,,,,,,0.8489,,,,,,,,,,,,,,,,,,,,,,60ff54eca66d8b022b925291,61036f9df7839d9d6cf5906c,2021-07-30_12h51.15.603,Simcolourproject_2stim_asymm_v5,2020.2.10,MacIntel,60,61025ae37ef11b136ea224fe,,,,,,,,,2733,-18.4453125,-48.20703125,1,0,0,response5disk,,3,6.97265625,0.19140625,1,0,0,rectangle,6.97265625,0.19140625,1,0,0,6.97265625,0.19140625,1,0,0,0,103,103,79,1,,,,,,,,
,,,,,,,,,,,,,FF,,,,,,,,0.9315,,,,,,,,,,,,,,,,,,,,,,60ff54eca66d8b022b925291,61036f9df7839d9d6cf5906c,2021-07-30_12h51.15.603,Simcolourproject_2stim_asymm_v5,2020.2.10,MacIntel,60,61025ae37ef11b136ea224fe,,,,,,,,,2325,92,-39.88671875,1,0,0,response3disk,,5,-3.80859375,-0.6875,1,0,0,rectangle,-3.80859375,-0.6875,1,0,0,-3.80859375,-0.6875,1,0,0,0,104,104,136,1,,,,,,,,
,,,,,,,,,,,,,FF,,,,,,,,3.3353,,,,,,,,,,,,,,,,,,,,,,60ff54eca66d8b022b925291,61036f9df7839d9d6cf5906c,2021-07-30_12h51.15.603,Simcolourproject_2stim_asymm_v5,2020.2.10,MacIntel,60,61025ae37ef11b136ea224fe,,,,,,,,,38,34.234375,-60.91796875,1,0,0,response3disk,,4,-8.93359375,-10.140625,1,0,0,rectangle,-8.93359375,-10.140625,1,0,0,-8.93359375,-10.140625,1,0,0,0,105,105,23,1,,,,,,,,
,,,,,,,,,,,,,FF,,,,,,,,1.1501,,,,,,,,,,,,,,,,,,,,,,60ff54eca66d8b022b925291,61036f9df7839d9d6cf5906c,2021-07-30_12h51.15.603,Simcolourproject_2stim_asymm_v5,2020.2.10,MacIntel,60,61025ae37ef11b136ea224fe,,,,,,,,,473,-40.6953125,-60.3671875,1,0,0,response5disk,,3,-0.671875,2.76171875,1,0,0,rectangle,-0.671875,2.76171875,1,0,0,-0.671875,2.76171875,1,0,0,0,106,106,19,1,,,,,,,,
,,,,,,,,,,,,,FF,,,,,,,,1.2988,,,,,,,,,,,,,,,,,,,,,,60ff54eca66d8b022b925291,61036f9df7839d9d6cf5906c,2021-07-30_12h51.15.603,Simcolourproject_2stim_asymm_v5,2020.2.10,MacIntel,60,61025ae37ef11b136ea224fe,,,,,,,,,3131,41.30078125,-84.0625,1,0,0,response3disk,,4,7.6640625,0.7109375,1,0,0,rectangle,7.6640625,0.7109375,1,0,0,7.6640625,0.7109375,1,0,0,0,107,107,49,1,,,,,,,,
,,,,,,,,,,,,,FF,,,,,,,,2.8002,,,,,,,,,,,,,,,,,,,,,,60ff54eca66d8b022b925291,61036f9df7839d9d6cf5906c,2021-07-30_12h51.15.603,Simcolourproject_2stim_asymm_v5,2020.2.10,MacIntel,60,61025ae37ef11b136ea224fe,,,,,,,,,3243,48.8828125,-83.21484375,1,0,0,response3disk,,4,4.75390625,-6.50390625,1,0,0,rectangle,4.75390625,-6.50390625,1,0,0,4.75390625,-6.50390625,1,0,0,0,108,108,2,1,,,,,,,,
,,,,,,,,,,,,,FF,,,,,,,,1.3686,,,,,,,,,,,,,,,,,,,,,,60ff54eca66d8b022b925291,61036f9df7839d9d6cf5906c,2021-07-30_12h51.15.603,Simcolourproject_2stim_asymm_v5,2020.2.10,MacIntel,60,61025ae37ef11b136ea224fe,,,,,,,,,796,93.21875,29.6953125,1,0,0,response1disk,,6,19.55859375,0.5703125,1,0,0,rectangle,19.55859375,0.5703125,1,0,0,19.55859375,0.5703125,1,0,0,0,109,109,4,1,,,,,,,,
,,,,,,,,,,,,,FF,,,,,,,,0.7825,,,,,,,,,,,,,,,,,,,,,,60ff54eca66d8b022b925291,61036f9df7839d9d6cf5906c,2021-07-30_12h51.15.603,Simcolourproject_2stim_asymm_v5,2020.2.10,MacIntel,60,61025ae37ef11b136ea224fe,,,,,,,,,2697,-38.96484375,-56.41796875,1,0,0,response5disk,,3,-8.62109375,9.13671875,1,0,0,rectangle,47.90625,-86.35546875,1,0,0,9.8671875,-5.25,1,0,0,0,110,110,42,1,,response3disk_3,TRUE,4,4,"[142,57,147,258,58,231,126,318,90,259,246,35,27,264,170,82,177,273,111,45]",1.866,rectangle
,,,,,,,,,,,,,FF,,,,,,,,1.951,,,,,,,,,,,,,,,,,,,,,,60ff54eca66d8b022b925291,61036f9df7839d9d6cf5906c,2021-07-30_12h51.15.603,Simcolourproject_2stim_asymm_v5,2020.2.10,MacIntel,60,61025ae37ef11b136ea224fe,,,,,,,,,3466,68.43359375,-34.98046875,1,0,0,response3disk,,5,-0.046875,-10.76953125,1,0,0,rectangle,-0.046875,-10.76953125,1,0,0,-0.046875,-10.76953125,1,0,0,0,111,111,54,1,,,,,,,,
,,,,,,,,,,,,,FF,,,,,,,,0.7829,,,,,,,,,,,,,,,,,,,,,,60ff54eca66d8b022b925291,61036f9df7839d9d6cf5906c,2021-07-30_12h51.15.603,Simcolourproject_2stim_asymm_v5,2020.2.10,MacIntel,60,61025ae37ef11b136ea224fe,,,,,,,,,1847,97.43359375,-34.16015625,1,0,0,response3disk,,5,12.3984375,0.91015625,1,0,0,rectangle,12.3984375,0.91015625,1,0,0,12.3984375,0.91015625,1,0,0,0,112,112,126,1,,,,,,,,
,,,,,,,,,,,,,FF,,,,,,,,1.0008,,,,,,,,,,,,,,,,,,,,,,60ff54eca66d8b022b925291,61036f9df7839d9d6cf5906c,2021-07-30_12h51.15.603,Simcolourproject_2stim_asymm_v5,2020.2.10,MacIntel,60,61025ae37ef11b136ea224fe,,,,,,,,,904,57.98828125,-83.5625,1,0,0,response3disk,,4,11.1328125,-1.68359375,1,0,0,rectangle,11.1328125,-1.68359375,1,0,0,11.1328125,-1.68359375,1,0,0,0,113,113,41,1,,,,,,,,
,,,,,,,,,,,,,FF,,,,,,,,0.8173,,,,,,,,,,,,,,,,,,,,,,60ff54eca66d8b022b925291,61036f9df7839d9d6cf5906c,2021-07-30_12h51.15.603,Simcolourproject_2stim_asymm_v5,2020.2.10,MacIntel,60,61025ae37ef11b136ea224fe,,,,,,,,,66,42.2265625,-60.05078125,1,0,0,response3disk,,4,-15.61328125,-3.91796875,1,0,0,rectangle,-15.61328125,-3.91796875,1,0,0,-15.61328125,-3.91796875,1,0,0,0,114,114,74,1,,,,,,,,
,,,,,,,,,,,,,FF,,,,,,,,1.385,,,,,,,,,,,,,,,,,,,,,,60ff54eca66d8b022b925291,61036f9df7839d9d6cf5906c,2021-07-30_12h51.15.603,Simcolourproject_2stim_asymm_v5,2020.2.10,MacIntel,60,61025ae37ef11b136ea224fe,,,,,,,,,1492,89.56640625,48.62109375,1,0,0,response1disk,,6,15.8125,0.07421875,1,0,0,rectangle,15.8125,0.07421875,1,0,0,15.8125,0.07421875,1,0,0,0,115,115,157,1,,,,,,,,
,,,,,,,,,,,,,FF,,,,,,,,0.7329,,,,,,,,,,,,,,,,,,,,,,60ff54eca66d8b022b925291,61036f9df7839d9d6cf5906c,2021-07-30_12h51.15.603,Simcolourproject_2stim_asymm_v5,2020.2.10,MacIntel,60,61025ae37ef11b136ea224fe,,,,,,,,,2197,87.02734375,32.390625,1,0,0,response1disk,,6,-12.859375,4.0703125,1,0,0,rectangle,-12.859375,4.0703125,1,0,0,-12.859375,4.0703125,1,0,0,0,116,116,133,1,,,,,,,,
,,,,,,,,,,,,,FF,,,,,,,,0.8526,,,,,,,,,,,,,,,,,,,,,,60ff54eca66d8b022b925291,61036f9df7839d9d6cf5906c,2021-07-30_12h51.15.603,Simcolourproject_2stim_asymm_v5,2020.2.10,MacIntel,60,61025ae37ef11b136ea224fe,,,,,,,,,2595,73.15234375,-49.1328125,1,0,0,response3disk,,5,17.18359375,-10.296875,1,0,0,rectangle,17.18359375,-10.296875,1,0,0,17.18359375,-10.296875,1,0,0,0,117,117,152,1,,,,,,,,
,,,,,,,,,,,,,FF,,,,,,,,0.9998,,,,,,,,,,,,,,,,,,,,,,60ff54eca66d8b022b925291,61036f9df7839d9d6cf5906c,2021-07-30_12h51.15.603,Simcolourproject_2stim_asymm_v5,2020.2.10,MacIntel,60,61025ae37ef11b136ea224fe,,,,,,,,,3649,45,-69.34375,1,0,0,response3disk,,4,1.265625,0.66796875,1,0,0,rectangle,1.265625,0.66796875,1,0,0,1.265625,0.66796875,1,0,0,0,118,118,82,1,,,,,,,,
,,,,,,,,,,,,,FF,,,,,,,,1.2837,,,,,,,,,,,,,,,,,,,,,,60ff54eca66d8b022b925291,61036f9df7839d9d6cf5906c,2021-07-30_12h51.15.603,Simcolourproject_2stim_asymm_v5,2020.2.10,MacIntel,60,61025ae37ef11b136ea224fe,,,,,,,,,2852,88.52734375,-40.6640625,1,0,0,response3disk,,5,4.12109375,3.6875,1,0,0,rectangle,4.12109375,3.6875,1,0,0,4.12109375,3.6875,1,0,0,0,119,119,14,1,,,,,,,,
,,,,,,,,,,,,,FF,,,,,,,,0.9999,,,,,,,,,,,,,,,,,,,,,,60ff54eca66d8b022b925291,61036f9df7839d9d6cf5906c,2021-07-30_12h51.15.603,Simcolourproject_2stim_asymm_v5,2020.2.10,MacIntel,60,61025ae37ef11b136ea224fe,,,,,,,,,1619,82.5625,-34.49609375,1,0,0,response3disk,,5,0.0625,-9.37890625,1,0,0,rectangle,0.0625,-9.37890625,1,0,0,0.0625,-9.37890625,1,0,0,0,120,120,65,1,,,,,,,,
,,,,,,,,,,,,,FF,,,,,,,,0.7005,,,,,,,,,,,,,,,,,,,,,,60ff54eca66d8b022b925291,61036f9df7839d9d6cf5906c,2021-07-30_12h51.15.603,Simcolourproject_2stim_asymm_v5,2020.2.10,MacIntel,60,61025ae37ef11b136ea224fe,,,,,,,,,2835,-40.5234375,-52.81640625,1,0,0,response5disk,,3,-18.9453125,0.0859375,1,0,0,rectangle,-18.9453125,0.0859375,1,0,0,-18.9453125,0.0859375,1,0,0,0,121,121,64,1,,,,,,,,
,,,,,,,,,,,,,FF,,,,,,,,0.9996,,,,,,,,,,,,,,,,,,,,,,60ff54eca66d8b022b925291,61036f9df7839d9d6cf5906c,2021-07-30_12h51.15.603,Simcolourproject_2stim_asymm_v5,2020.2.10,MacIntel,60,61025ae37ef11b136ea224fe,,,,,,,,,573,117.8671875,43.0625,1,0,0,response1disk,,6,0.00390625,3.11328125,1,0,0,rectangle,0.00390625,3.11328125,1,0,0,0.00390625,3.11328125,1,0,0,0,122,122,38,1,,,,,,,,
,,,,,,,,,,,,,FF,,,,,,,,0.817,,,,,,,,,,,,,,,,,,,,,,60ff54eca66d8b022b925291,61036f9df7839d9d6cf5906c,2021-07-30_12h51.15.603,Simcolourproject_2stim_asymm_v5,2020.2.10,MacIntel,60,61025ae37ef11b136ea224fe,,,,,,,,,1407,88.890625,32.9375,1,0,0,response1disk,,6,17.46484375,4.26171875,1,0,0,rectangle,17.46484375,4.26171875,1,0,0,17.46484375,4.26171875,1,0,0,0,123,123,122,1,,,,,,,,
,,,,,,,,,,,,,FF,,,,,,,,0.9843,,,,,,,,,,,,,,,,,,,,,,60ff54eca66d8b022b925291,61036f9df7839d9d6cf5906c,2021-07-30_12h51.15.603,Simcolourproject_2stim_asymm_v5,2020.2.10,MacIntel,60,61025ae37ef11b136ea224fe,,,,,,,,,3436,-46.984375,-69.84375,1,0,0,response5disk,,3,-3.56640625,14.3359375,1,0,0,rectangle,-3.56640625,14.3359375,1,0,0,-3.56640625,14.3359375,1,0,0,0,124,124,140,1,,,,,,,,
,,,,,,,,,,,,,FF,,,,,,,,1.8482,,,,,,,,,,,,,,,,,,,,,,60ff54eca66d8b022b925291,61036f9df7839d9d6cf5906c,2021-07-30_12h51.15.603,Simcolourproject_2stim_asymm_v5,2020.2.10,MacIntel,60,61025ae37ef11b136ea224fe,,,,,,,,,192,-22.5390625,-87.125,1,0,0,response5disk,,3,-0.640625,8.125,1,0,0,rectangle,53.92578125,-97.05078125,1,0,0,6.3515625,2.671875,1,0,0,0,125,125,12,1,,response3disk_3,TRUE,4,4,"[142,57,147,258,58,231,126,318,90,259,246,35,27,264,170,82,177,273,111,45]",2.0855,rectangle
,,,,,,,,,,,,,FF,,,,,,,,1.516,,,,,,,,,,,,,,,,,,,,,,60ff54eca66d8b022b925291,61036f9df7839d9d6cf5906c,2021-07-30_12h51.15.603,Simcolourproject_2stim_asymm_v5,2020.2.10,MacIntel,60,61025ae37ef11b136ea224fe,,,,,,,,,2068,83.14453125,26.95703125,1,0,0,response1disk,,6,9.9765625,-2.21875,1,0,0,rectangle,9.9765625,-2.21875,1,0,0,9.9765625,-2.21875,1,0,0,0,126,126,95,1,,,,,,,,
,,,,,,,,,,,,,FF,,,,,,,,0.7332,,,,,,,,,,,,,,,,,,,,,,60ff54eca66d8b022b925291,61036f9df7839d9d6cf5906c,2021-07-30_12h51.15.603,Simcolourproject_2stim_asymm_v5,2020.2.10,MacIntel,60,61025ae37ef11b136ea224fe,,,,,,,,,952,-37.82421875,-82.87109375,1,0,0,response5disk,,3,-2.08984375,-10.52734375,1,0,0,rectangle,-2.08984375,-10.52734375,1,0,0,-2.08984375,-10.52734375,1,0,0,0,127,127,68,1,,,,,,,,
,,,,,,,,,,,,,FF,,,,,,,,0.6862,,,,,,,,,,,,,,,,,,,,,,60ff54eca66d8b022b925291,61036f9df7839d9d6cf5906c,2021-07-30_12h51.15.603,Simcolourproject_2stim_asymm_v5,2020.2.10,MacIntel,60,61025ae37ef11b136ea224fe,,,,,,,,,778,-32.28515625,-75.73046875,1,0,0,response5disk,,3,-0.13671875,-14.66796875,1,0,0,rectangle,-0.13671875,-14.66796875,1,0,0,-0.13671875,-14.66796875,1,0,0,0,128,128,149,1,,,,,,,,
,,,,,,,,,,,,,FF,,,,,,,,0.7676,,,,,,,,,,,,,,,,,,,,,,60ff54eca66d8b022b925291,61036f9df7839d9d6cf5906c,2021-07-30_12h51.15.603,Simcolourproject_2stim_asymm_v5,2020.2.10,MacIntel,60,61025ae37ef11b136ea224fe,,,,,,,,,3084,91.86328125,54.50390625,1,0,0,response1disk,,6,-5.8671875,-0.9296875,1,0,0,rectangle,-5.8671875,-0.9296875,1,0,0,-5.8671875,-0.9296875,1,0,0,0,129,129,0,1,,,,,,,,
,,,,,,,,,,,,,FF,,,,,,,,1.0011,,,,,,,,,,,,,,,,,,,,,,60ff54eca66d8b022b925291,61036f9df7839d9d6cf5906c,2021-07-30_12h51.15.603,Simcolourproject_2stim_asymm_v5,2020.2.10,MacIntel,60,61025ae37ef11b136ea224fe,,,,,,,,,3501,58.5703125,69.87109375,1,0,0,response1disk,,7,6.859375,-3.66796875,1,0,0,rectangle,6.859375,-3.66796875,1,0,0,6.859375,-3.66796875,1,0,0,0,130,130,158,1,,,,,,,,
,,,,,,,,,,,,,FF,,,,,,,,2.3006,,,,,,,,,,,,,,,,,,,,,,60ff54eca66d8b022b925291,61036f9df7839d9d6cf5906c,2021-07-30_12h51.15.603,Simcolourproject_2stim_asymm_v5,2020.2.10,MacIntel,60,61025ae37ef11b136ea224fe,,,,,,,,,2512,58.73828125,71.60546875,1,0,0,response1disk,,7,17.5703125,4.16796875,1,0,0,rectangle,17.5703125,4.16796875,1,0,0,17.5703125,4.16796875,1,0,0,0,131,131,109,1,,,,,,,,
,,,,,,,,,,,,,FF,,,,,,,,0.8495,,,,,,,,,,,,,,,,,,,,,,60ff54eca66d8b022b925291,61036f9df7839d9d6cf5906c,2021-07-30_12h51.15.603,Simcolourproject_2stim_asymm_v5,2020.2.10,MacIntel,60,61025ae37ef11b136ea224fe,,,,,,,,,1804,60.1875,79.1875,1,0,0,response1disk,,7,18.98046875,8.50390625,1,0,0,rectangle,18.98046875,8.50390625,1,0,0,18.98046875,8.50390625,1,0,0,0,132,132,78,1,,,,,,,,
,,,,,,,,,,,,,FF,,,,,,,,0.6542,,,,,,,,,,,,,,,,,,,,,,60ff54eca66d8b022b925291,61036f9df7839d9d6cf5906c,2021-07-30_12h51.15.603,Simcolourproject_2stim_asymm_v5,2020.2.10,MacIntel,60,61025ae37ef11b136ea224fe,,,,,,,,,1594,23.4375,83.19140625,1,0,0,response1disk,,7,-24.73046875,-16.234375,1,0,0,rectangle,-24.73046875,-16.234375,1,0,0,-24.73046875,-16.234375,1,0,0,0,133,133,85,1,,,,,,,,
,,,,,,,,,,,,,FF,,,,,,,,0.7515,,,,,,,,,,,,,,,,,,,,,,60ff54eca66d8b022b925291,61036f9df7839d9d6cf5906c,2021-07-30_12h51.15.603,Simcolourproject_2stim_asymm_v5,2020.2.10,MacIntel,60,61025ae37ef11b136ea224fe,,,,,,,,,2183,43.0703125,90.390625,1,0,0,response1disk,,7,0.53515625,6.8125,1,0,0,rectangle,0.53515625,6.8125,1,0,0,0.53515625,6.8125,1,0,0,0,134,134,111,1,,,,,,,,
,,,,,,,,,,,,,FF,,,,,,,,0.9,,,,,,,,,,,,,,,,,,,,,,60ff54eca66d8b022b925291,61036f9df7839d9d6cf5906c,2021-07-30_12h51.15.603,Simcolourproject_2stim_asymm_v5,2020.2.10,MacIntel,60,61025ae37ef11b136ea224fe,,,,,,,,,4022,-18.18359375,-64.1484375,1,0,0,response5disk,,3,10.7578125,8.9296875,1,0,0,rectangle,10.7578125,8.9296875,1,0,0,10.7578125,8.9296875,1,0,0,0,135,135,57,1,,,,,,,,
,,,,,,,,,,,,,FF,,,,,,,,1.2677,,,,,,,,,,,,,,,,,,,,,,60ff54eca66d8b022b925291,61036f9df7839d9d6cf5906c,2021-07-30_12h51.15.603,Simcolourproject_2stim_asymm_v5,2020.2.10,MacIntel,60,61025ae37ef11b136ea224fe,,,,,,,,,4337,-76.08984375,39.59765625,1,0,0,response7disk,,1,-8.28515625,1.828125,1,0,0,rectangle,-8.28515625,1.828125,1,0,0,-8.28515625,1.828125,1,0,0,0,136,136,11,1,,,,,,,,
,,,,,,,,,,,,,FF,,,,,,,,1.8352,,,,,,,,,,,,,,,,,,,,,,60ff54eca66d8b022b925291,61036f9df7839d9d6cf5906c,2021-07-30_12h51.15.603,Simcolourproject_2stim_asymm_v5,2020.2.10,MacIntel,60,61025ae37ef11b136ea224fe,,,,,,,,,1808,-79.4765625,-38.63671875,1,0,0,response5disk,,2,17.16015625,15.828125,1,0,0,rectangle,17.16015625,15.828125,1,0,0,17.16015625,15.828125,1,0,0,0,137,137,145,1,,,,,,,,
,,,,,,,,,,,,,FF,,,,,,,,1.4363,,,,,,,,,,,,,,,,,,,,,,60ff54eca66d8b022b925291,61036f9df7839d9d6cf5906c,2021-07-30_12h51.15.603,Simcolourproject_2stim_asymm_v5,2020.2.10,MacIntel,60,61025ae37ef11b136ea224fe,,,,,,,,,241,45.65234375,-101.3046875,1,0,0,response3disk,,4,12.46484375,0.48046875,1,0,0,rectangle,12.46484375,0.48046875,1,0,0,12.46484375,0.48046875,1,0,0,0,138,138,112,1,,,,,,,,
,,,,,,,,,,,,,FF,,,,,,,,1.3687,,,,,,,,,,,,,,,,,,,,,,60ff54eca66d8b022b925291,61036f9df7839d9d6cf5906c,2021-07-30_12h51.15.603,Simcolourproject_2stim_asymm_v5,2020.2.10,MacIntel,60,61025ae37ef11b136ea224fe,,,,,,,,,1014,54.6796875,-75.31640625,1,0,0,response3disk,,4,14.32421875,0.87890625,1,0,0,rectangle,14.32421875,0.87890625,1,0,0,14.32421875,0.87890625,1,0,0,0,139,139,135,1,,,,,,,,
,,,,,,,,,,,,,FF,,,,,,,,1.2319,,,,,,,,,,,,,,,,,,,,,,60ff54eca66d8b022b925291,61036f9df7839d9d6cf5906c,2021-07-30_12h51.15.603,Simcolourproject_2stim_asymm_v5,2020.2.10,MacIntel,60,61025ae37ef11b136ea224fe,,,,,,,,,183,60.68359375,-56.18359375,1,0,0,response3disk,,5,-9.8046875,-6.4375,1,0,0,rectangle,-9.8046875,-6.4375,1,0,0,-9.8046875,-6.4375,1,0,0,0,140,140,26,1,,,,,,,,
,,,,,,,,,,,,,FF,,,,,,,,0.8193,,,,,,,,,,,,,,,,,,,,,,60ff54eca66d8b022b925291,61036f9df7839d9d6cf5906c,2021-07-30_12h51.15.603,Simcolourproject_2stim_asymm_v5,2020.2.10,MacIntel,60,61025ae37ef11b136ea224fe,,,,,,,,,734,-35.5546875,-81.84765625,1,0,0,response5disk,,3,-13.01953125,15.65625,1,0,0,rectangle,107.0351563,53.75,1,0,0,11.05078125,9.1796875,1,0,0,0,141,141,106,1,,response1disk_3,TRUE,6,6,"[142,57,147,258,58,231,126,318,90,259,246,35,27,264,170,82,177,273,111,45]",1.5144,rectangle
,,,,,,,,,,,,,FF,,,,,,,,1.4842,,,,,,,,,,,,,,,,,,,,,,60ff54eca66d8b022b925291,61036f9df7839d9d6cf5906c,2021-07-30_12h51.15.603,Simcolourproject_2stim_asymm_v5,2020.2.10,MacIntel,60,61025ae37ef11b136ea224fe,,,,,,,,,949,86.265625,-42.31640625,1,0,0,response3disk,,5,27.3828125,-5.859375,1,0,0,rectangle,27.3828125,-5.859375,1,0,0,27.3828125,-5.859375,1,0,0,0,142,142,18,1,,,,,,,,
,,,,,,,,,,,,,FF,,,,,,,,0.6543,,,,,,,,,,,,,,,,,,,,,,60ff54eca66d8b022b925291,61036f9df7839d9d6cf5906c,2021-07-30_12h51.15.603,Simcolourproject_2stim_asymm_v5,2020.2.10,MacIntel,60,61025ae37ef11b136ea224fe,,,,,,,,,4212,81.30859375,62.875,1,0,0,response1disk,,6,24.6328125,-7.234375,1,0,0,rectangle,24.6328125,-7.234375,1,0,0,24.6328125,-7.234375,1,0,0,0,143,143,37,1,,,,,,,,
,,,,,,,,,,,,,FF,,,,,,,,0.65,,,,,,,,,,,,,,,,,,,,,,60ff54eca66d8b022b925291,61036f9df7839d9d6cf5906c,2021-07-30_12h51.15.603,Simcolourproject_2stim_asymm_v5,2020.2.10,MacIntel,60,61025ae37ef11b136ea224fe,,,,,,,,,286,-87.88671875,-35.1484375,1,0,0,response5disk,,2,-0.73828125,-12.4453125,1,0,0,rectangle,-0.73828125,-12.4453125,1,0,0,-0.73828125,-12.4453125,1,0,0,0,144,144,123,1,,,,,,,,
,,,,,,,,,,,,,FF,,,,,,,,1.0879,,,,,,,,,,,,,,,,,,,,,,60ff54eca66d8b022b925291,61036f9df7839d9d6cf5906c,2021-07-30_12h51.15.603,Simcolourproject_2stim_asymm_v5,2020.2.10,MacIntel,60,61025ae37ef11b136ea224fe,,,,,,,,,2032,-74.859375,-46.20703125,1,0,0,response5disk,,2,-1.01953125,-6.796875,1,0,0,rectangle,-1.01953125,-6.796875,1,0,0,-1.01953125,-6.796875,1,0,0,0,145,145,103,1,,,,,,,,
,,,,,,,,,,,,,FF,,,,,,,,0.6494,,,,,,,,,,,,,,,,,,,,,,60ff54eca66d8b022b925291,61036f9df7839d9d6cf5906c,2021-07-30_12h51.15.603,Simcolourproject_2stim_asymm_v5,2020.2.10,MacIntel,60,61025ae37ef11b136ea224fe,,,,,,,,,680,81.21484375,-36.20703125,1,0,0,response3disk,,5,-2.48828125,-1.3359375,1,0,0,rectangle,-96.0234375,-29.33984375,1,0,0,-12.9375,-6.25,1,0,0,0,146,146,77,1,,response5disk_3,TRUE,2,2,"[142,57,147,258,58,231,126,318,90,259,246,35,27,264,170,82,177,273,111,45]",1.8826,rectangle
,,,,,,,,,,,,,FF,,,,,,,,1.9519,,,,,,,,,,,,,,,,,,,,,,60ff54eca66d8b022b925291,61036f9df7839d9d6cf5906c,2021-07-30_12h51.15.603,Simcolourproject_2stim_asymm_v5,2020.2.10,MacIntel,60,61025ae37ef11b136ea224fe,,,,,,,,,3683,-70.8046875,-43.08984375,1,0,0,response5disk,,2,-9.95703125,-0.3515625,1,0,0,rectangle,-9.95703125,-0.3515625,1,0,0,-9.95703125,-0.3515625,1,0,0,0,147,147,91,1,,,,,,,,
,,,,,,,,,,,,,FF,,,,,,,,1.1152,,,,,,,,,,,,,,,,,,,,,,60ff54eca66d8b022b925291,61036f9df7839d9d6cf5906c,2021-07-30_12h51.15.603,Simcolourproject_2stim_asymm_v5,2020.2.10,MacIntel,60,61025ae37ef11b136ea224fe,,,,,,,,,2551,31.73828125,-76.77734375,1,0,0,response3disk,,4,-16.69921875,3.546875,1,0,0,rectangle,-16.69921875,3.546875,1,0,0,-16.69921875,3.546875,1,0,0,0,148,148,96,1,,,,,,,,
,,,,,,,,,,,,,FF,,,,,,,,0.7346,,,,,,,,,,,,,,,,,,,,,,60ff54eca66d8b022b925291,61036f9df7839d9d6cf5906c,2021-07-30_12h51.15.603,Simcolourproject_2stim_asymm_v5,2020.2.10,MacIntel,60,61025ae37ef11b136ea224fe,,,,,,,,,4061,72.7109375,-36.3359375,1,0,0,response3disk,,5,-7.75390625,10.40625,1,0,0,rectangle,-7.75390625,10.40625,1,0,0,-7.75390625,10.40625,1,0,0,0,149,149,117,1,,,,,,,,
,,,,,,,,,,,,,FF,,,,,,,,1.0832,,,,,,,,,,,,,,,,,,,,,,60ff54eca66d8b022b925291,61036f9df7839d9d6cf5906c,2021-07-30_12h51.15.603,Simcolourproject_2stim_asymm_v5,2020.2.10,MacIntel,60,61025ae37ef11b136ea224fe,,,,,,,,,1271,63.85546875,-89.6171875,1,0,0,response3disk,,4,-3.66015625,1.41796875,1,0,0,rectangle,-3.66015625,1.41796875,1,0,0,-3.66015625,1.41796875,1,0,0,0,150,150,134,1,,,,,,,,
,,,,,,,,,,,,,FF,,,,,,,,1.0333,,,,,,,,,,,,,,,,,,,,,,60ff54eca66d8b022b925291,61036f9df7839d9d6cf5906c,2021-07-30_12h51.15.603,Simcolourproject_2stim_asymm_v5,2020.2.10,MacIntel,60,61025ae37ef11b136ea224fe,,,,,,,,,3593,-41.43359375,-81.95703125,1,0,0,response5disk,,3,-8.21484375,6.73046875,1,0,0,rectangle,-8.21484375,6.73046875,1,0,0,-8.21484375,6.73046875,1,0,0,0,151,151,130,1,,,,,,,,
,,,,,,,,,,,,,FF,,,,,,,,1.3162,,,,,,,,,,,,,,,,,,,,,,60ff54eca66d8b022b925291,61036f9df7839d9d6cf5906c,2021-07-30_12h51.15.603,Simcolourproject_2stim_asymm_v5,2020.2.10,MacIntel,60,61025ae37ef11b136ea224fe,,,,,,,,,2537,41.515625,-89.3359375,1,0,0,response3disk,,4,16.4375,-11.53125,1,0,0,rectangle,16.4375,-11.53125,1,0,0,16.4375,-11.53125,1,0,0,0,152,152,34,1,,,,,,,,
,,,,,,,,,,,,,FF,,,,,,,,0.6818,,,,,,,,,,,,,,,,,,,,,,60ff54eca66d8b022b925291,61036f9df7839d9d6cf5906c,2021-07-30_12h51.15.603,Simcolourproject_2stim_asymm_v5,2020.2.10,MacIntel,60,61025ae37ef11b136ea224fe,,,,,,,,,1059,41.796875,-69.265625,1,0,0,response3disk,,4,-18.71484375,7.015625,1,0,0,rectangle,-18.71484375,7.015625,1,0,0,-18.71484375,7.015625,1,0,0,0,153,153,110,1,,,,,,,,
,,,,,,,,,,,,,FF,,,,,,,,1.833,,,,,,,,,,,,,,,,,,,,,,60ff54eca66d8b022b925291,61036f9df7839d9d6cf5906c,2021-07-30_12h51.15.603,Simcolourproject_2stim_asymm_v5,2020.2.10,MacIntel,60,61025ae37ef11b136ea224fe,,,,,,,,,589,87.359375,-31.390625,1,0,0,response3disk,,5,-2.34765625,8.44140625,1,0,0,rectangle,-2.34765625,8.44140625,1,0,0,-2.34765625,8.44140625,1,0,0,0,154,154,7,1,,,,,,,,
,,,,,,,,,,,,,FF,,,,,,,,1.9186,,,,,,,,,,,,,,,,,,,,,,60ff54eca66d8b022b925291,61036f9df7839d9d6cf5906c,2021-07-30_12h51.15.603,Simcolourproject_2stim_asymm_v5,2020.2.10,MacIntel,60,61025ae37ef11b136ea224fe,,,,,,,,,2328,101.3632813,-45.75390625,1,0,0,response3disk,,5,-19.30078125,-0.46875,1,0,0,rectangle,-19.30078125,-0.46875,1,0,0,-19.30078125,-0.46875,1,0,0,0,155,155,124,1,,,,,,,,
,,,,,,,,,,,,,FF,,,,,,,,0.7337,,,,,,,,,,,,,,,,,,,,,,60ff54eca66d8b022b925291,61036f9df7839d9d6cf5906c,2021-07-30_12h51.15.603,Simcolourproject_2stim_asymm_v5,2020.2.10,MacIntel,60,61025ae37ef11b136ea224fe,,,,,,,,,4080,99.10546875,24.953125,1,0,0,response1disk,,6,-13.9609375,6.1328125,1,0,0,rectangle,-13.9609375,6.1328125,1,0,0,-13.9609375,6.1328125,1,0,0,0,156,156,25,1,,,,,,,,
,,,,,,,,,,,,,FF,,,,,,,,1.5722,,,,,,,,,,,,,,,,,,,,,,60ff54eca66d8b022b925291,61036f9df7839d9d6cf5906c,2021-07-30_12h51.15.603,Simcolourproject_2stim_asymm_v5,2020.2.10,MacIntel,60,61025ae37ef11b136ea224fe,,,,,,,,,1934,64.89453125,-50.0703125,1,0,0,response3disk,,5,-16.25,10.3359375,1,0,0,rectangle,-16.25,10.3359375,1,0,0,-16.25,10.3359375,1,0,0,0,157,157,93,1,,,,,,,,
,,,,,,,,,,,,,FF,,,,,,,,0.7833,,,,,,,,,,,,,,,,,,,,,,60ff54eca66d8b022b925291,61036f9df7839d9d6cf5906c,2021-07-30_12h51.15.603,Simcolourproject_2stim_asymm_v5,2020.2.10,MacIntel,60,61025ae37ef11b136ea224fe,,,,,,,,,220,-21.28515625,-82.421875,1,0,0,response5disk,,3,2.53515625,2.0625,1,0,0,rectangle,2.53515625,2.0625,1,0,0,2.53515625,2.0625,1,0,0,0,158,158,10,1,,,,,,,,
,,,,,,,,,,,,,FF,,,,,,,,1.3844,,,,,,,,,,,,,,,,,,,,,,60ff54eca66d8b022b925291,61036f9df7839d9d6cf5906c,2021-07-30_12h51.15.603,Simcolourproject_2stim_asymm_v5,2020.2.10,MacIntel,60,61025ae37ef11b136ea224fe,,,,,,,,,4066,41.41796875,-68.953125,1,0,0,response3disk,,4,26.66015625,-0.92578125,1,0,0,rectangle,26.66015625,-0.92578125,1,0,0,26.66015625,-0.92578125,1,0,0,0,159,159,36,1,,,,,,,,
,,,,,,,,,,,,,FF,,,,,,,,0.9998,,,,,,,,,,,,,,,,,,,,,,60ff54eca66d8b022b925291,61036f9df7839d9d6cf5906c,2021-07-30_12h51.15.603,Simcolourproject_2stim_asymm_v5,2020.2.10,MacIntel,60,61025ae37ef11b136ea224fe,,,,,,,,,1750,-88.39453125,30.15625,1,0,0,response7disk,,1,14.68359375,9.328125,1,0,0,rectangle,14.68359375,9.328125,1,0,0,14.68359375,9.328125,1,0,0,1,0,160,104,1,,,,,,,,
,,,,,,,,,,,,,FF,,,,,,,,1.5166,,,,,,,,,,,,,,,,,,,,,,60ff54eca66d8b022b925291,61036f9df7839d9d6cf5906c,2021-07-30_12h51.15.603,Simcolourproject_2stim_asymm_v5,2020.2.10,MacIntel,60,61025ae37ef11b136ea224fe,,,,,,,,,3672,-79.12890625,56.109375,1,0,0,response7disk,,1,-34.5,12.09375,1,0,0,rectangle,-34.5,12.09375,1,0,0,-34.5,12.09375,1,0,0,1,1,161,15,1,,,,,,,,
,,,,,,,,,,,,,FF,,,,,,,,0.8009,,,,,,,,,,,,,,,,,,,,,,60ff54eca66d8b022b925291,61036f9df7839d9d6cf5906c,2021-07-30_12h51.15.603,Simcolourproject_2stim_asymm_v5,2020.2.10,MacIntel,60,61025ae37ef11b136ea224fe,,,,,,,,,1585,-95.04296875,-68.55078125,1,0,0,response5disk,,2,23.765625,-2.8359375,1,0,0,rectangle,23.765625,-2.8359375,1,0,0,23.765625,-2.8359375,1,0,0,1,2,162,94,1,,,,,,,,
,,,,,,,,,,,,,FF,,,,,,,,0.7175,,,,,,,,,,,,,,,,,,,,,,60ff54eca66d8b022b925291,61036f9df7839d9d6cf5906c,2021-07-30_12h51.15.603,Simcolourproject_2stim_asymm_v5,2020.2.10,MacIntel,60,61025ae37ef11b136ea224fe,,,,,,,,,3890,81.83203125,-34.24609375,1,0,0,response3disk,,5,-13.8046875,-11.01171875,1,0,0,rectangle,-13.8046875,-11.01171875,1,0,0,-13.8046875,-11.01171875,1,0,0,1,3,163,106,1,,,,,,,,
,,,,,,,,,,,,,FF,,,,,,,,0.7327,,,,,,,,,,,,,,,,,,,,,,60ff54eca66d8b022b925291,61036f9df7839d9d6cf5906c,2021-07-30_12h51.15.603,Simcolourproject_2stim_asymm_v5,2020.2.10,MacIntel,60,61025ae37ef11b136ea224fe,,,,,,,,,3689,-28.9296875,-73.375,1,0,0,response5disk,,3,10.2578125,3.74609375,1,0,0,rectangle,10.2578125,3.74609375,1,0,0,10.2578125,3.74609375,1,0,0,1,4,164,47,1,,,,,,,,
,,,,,,,,,,,,,FF,,,,,,,,1.0163,,,,,,,,,,,,,,,,,,,,,,60ff54eca66d8b022b925291,61036f9df7839d9d6cf5906c,2021-07-30_12h51.15.603,Simcolourproject_2stim_asymm_v5,2020.2.10,MacIntel,60,61025ae37ef11b136ea224fe,,,,,,,,,1228,44.0625,-63.35546875,1,0,0,response3disk,,4,9.46484375,-0.44921875,1,0,0,rectangle,9.46484375,-0.44921875,1,0,0,9.46484375,-0.44921875,1,0,0,1,5,165,116,1,,,,,,,,
,,,,,,,,,,,,,FF,,,,,,,,0.8184,,,,,,,,,,,,,,,,,,,,,,60ff54eca66d8b022b925291,61036f9df7839d9d6cf5906c,2021-07-30_12h51.15.603,Simcolourproject_2stim_asymm_v5,2020.2.10,MacIntel,60,61025ae37ef11b136ea224fe,,,,,,,,,1526,-64.60546875,-19.93359375,1,0,0,response5disk,,2,8.44140625,4.421875,1,0,0,rectangle,8.44140625,4.421875,1,0,0,8.44140625,4.421875,1,0,0,1,6,166,28,1,,,,,,,,
,,,,,,,,,,,,,FF,,,,,,,,0.9326,,,,,,,,,,,,,,,,,,,,,,60ff54eca66d8b022b925291,61036f9df7839d9d6cf5906c,2021-07-30_12h51.15.603,Simcolourproject_2stim_asymm_v5,2020.2.10,MacIntel,60,61025ae37ef11b136ea224fe,,,,,,,,,2995,-64.15625,-39.5859375,1,0,0,response5disk,,2,-1.68359375,-7.71875,1,0,0,rectangle,-1.68359375,-7.71875,1,0,0,-1.68359375,-7.71875,1,0,0,1,7,167,34,1,,,,,,,,
,,,,,,,,,,,,,FF,,,,,,,,1.0661,,,,,,,,,,,,,,,,,,,,,,60ff54eca66d8b022b925291,61036f9df7839d9d6cf5906c,2021-07-30_12h51.15.603,Simcolourproject_2stim_asymm_v5,2020.2.10,MacIntel,60,61025ae37ef11b136ea224fe,,,,,,,,,251,25.7890625,-102.5273438,1,0,0,response3disk,,4,-4.2890625,-2.55078125,1,0,0,rectangle,-4.2890625,-2.55078125,1,0,0,-4.2890625,-2.55078125,1,0,0,1,8,168,87,1,,,,,,,,
,,,,,,,,,,,,,FF,,,,,,,,0.9338,,,,,,,,,,,,,,,,,,,,,,60ff54eca66d8b022b925291,61036f9df7839d9d6cf5906c,2021-07-30_12h51.15.603,Simcolourproject_2stim_asymm_v5,2020.2.10,MacIntel,60,61025ae37ef11b136ea224fe,,,,,,,,,1454,-50.02734375,89.2578125,1,0,0,response7disk,,0,-8.4453125,16.125,1,0,0,rectangle,65.36328125,-63.3046875,1,0,0,-22.6484375,-5.69921875,1,0,0,1,9,169,113,1,,response3disk_3,TRUE,5,5,"[142,57,147,258,58,231,126,318,90,259,246,35,27,264,170,82,177,273,111,45]",1.6035,rectangle
,,,,,,,,,,,,,FF,,,,,,,,0.7835,,,,,,,,,,,,,,,,,,,,,,60ff54eca66d8b022b925291,61036f9df7839d9d6cf5906c,2021-07-30_12h51.15.603,Simcolourproject_2stim_asymm_v5,2020.2.10,MacIntel,60,61025ae37ef11b136ea224fe,,,,,,,,,4001,-73.29296875,-55.6171875,1,0,0,response5disk,,2,34.3515625,1.15234375,1,0,0,rectangle,34.3515625,1.15234375,1,0,0,34.3515625,1.15234375,1,0,0,1,10,170,90,1,,,,,,,,
,,,,,,,,,,,,,FF,,,,,,,,0.9855,,,,,,,,,,,,,,,,,,,,,,60ff54eca66d8b022b925291,61036f9df7839d9d6cf5906c,2021-07-30_12h51.15.603,Simcolourproject_2stim_asymm_v5,2020.2.10,MacIntel,60,61025ae37ef11b136ea224fe,,,,,,,,,2302,-74.46875,-40.1171875,1,0,0,response5disk,,2,0.703125,2.33203125,1,0,0,rectangle,0.703125,2.33203125,1,0,0,0.703125,2.33203125,1,0,0,1,11,171,108,1,,,,,,,,
,,,,,,,,,,,,,FF,,,,,,,,0.6186,,,,,,,,,,,,,,,,,,,,,,60ff54eca66d8b022b925291,61036f9df7839d9d6cf5906c,2021-07-30_12h51.15.603,Simcolourproject_2stim_asymm_v5,2020.2.10,MacIntel,60,61025ae37ef11b136ea224fe,,,,,,,,,368,-78.046875,54.53125,1,0,0,response7disk,,1,-14.26171875,-7.8828125,1,0,0,rectangle,-14.26171875,-7.8828125,1,0,0,-14.26171875,-7.8828125,1,0,0,1,12,172,154,1,,,,,,,,
,,,,,,,,,,,,,FF,,,,,,,,0.6999,,,,,,,,,,,,,,,,,,,,,,60ff54eca66d8b022b925291,61036f9df7839d9d6cf5906c,2021-07-30_12h51.15.603,Simcolourproject_2stim_asymm_v5,2020.2.10,MacIntel,60,61025ae37ef11b136ea224fe,,,,,,,,,804,-61.203125,56.41796875,1,0,0,response7disk,,1,-11.0390625,-4.2421875,1,0,0,rectangle,-11.0390625,-4.2421875,1,0,0,-11.0390625,-4.2421875,1,0,0,1,13,173,147,1,,,,,,,,
,,,,,,,,,,,,,FF,,,,,,,,1.0345,,,,,,,,,,,,,,,,,,,,,,60ff54eca66d8b022b925291,61036f9df7839d9d6cf5906c,2021-07-30_12h51.15.603,Simcolourproject_2stim_asymm_v5,2020.2.10,MacIntel,60,61025ae37ef11b136ea224fe,,,,,,,,,866,-24.96484375,-86.421875,1,0,0,response5disk,,3,-22.3671875,-9.90234375,1,0,0,rectangle,-22.3671875,-9.90234375,1,0,0,-22.3671875,-9.90234375,1,0,0,1,14,174,36,1,,,,,,,,
,,,,,,,,,,,,,FF,,,,,,,,1.0818,,,,,,,,,,,,,,,,,,,,,,60ff54eca66d8b022b925291,61036f9df7839d9d6cf5906c,2021-07-30_12h51.15.603,Simcolourproject_2stim_asymm_v5,2020.2.10,MacIntel,60,61025ae37ef11b136ea224fe,,,,,,,,,1766,-46.07421875,-84.27734375,1,0,0,response5disk,,3,-27.2578125,0.1796875,1,0,0,rectangle,-27.2578125,0.1796875,1,0,0,-27.2578125,0.1796875,1,0,0,1,15,175,126,1,,,,,,,,
,,,,,,,,,,,,,FF,,,,,,,,1.1653,,,,,,,,,,,,,,,,,,,,,,60ff54eca66d8b022b925291,61036f9df7839d9d6cf5906c,2021-07-30_12h51.15.603,Simcolourproject_2stim_asymm_v5,2020.2.10,MacIntel,60,61025ae37ef11b136ea224fe,,,,,,,,,2980,58.4765625,42.40234375,1,0,0,response1disk,,6,5.1328125,1.4375,1,0,0,rectangle,-62.640625,78.5390625,1,0,0,-3.375,7.44921875,1,0,0,1,16,176,135,1,,response7disk_3,TRUE,0,0,"[142,57,147,258,58,231,126,318,90,259,246,35,27,264,170,82,177,273,111,45]",1.2491,rectangle
,,,,,,,,,,,,,FF,,,,,,,,1.2665,,,,,,,,,,,,,,,,,,,,,,60ff54eca66d8b022b925291,61036f9df7839d9d6cf5906c,2021-07-30_12h51.15.603,Simcolourproject_2stim_asymm_v5,2020.2.10,MacIntel,60,61025ae37ef11b136ea224fe,,,,,,,,,4309,80.015625,30.93359375,1,0,0,response1disk,,6,-5.26953125,-10.109375,1,0,0,rectangle,-5.26953125,-10.109375,1,0,0,-5.26953125,-10.109375,1,0,0,1,17,177,32,1,,,,,,,,
,,,,,,,,,,,,,FF,,,,,,,,1.4689,,,,,,,,,,,,,,,,,,,,,,60ff54eca66d8b022b925291,61036f9df7839d9d6cf5906c,2021-07-30_12h51.15.603,Simcolourproject_2stim_asymm_v5,2020.2.10,MacIntel,60,61025ae37ef11b136ea224fe,,,,,,,,,3314,97.71484375,35.12890625,1,0,0,response1disk,,6,-22.1328125,3.69140625,1,0,0,rectangle,-22.1328125,3.69140625,1,0,0,-22.1328125,3.69140625,1,0,0,1,18,178,152,1,,,,,,,,
,,,,,,,,,,,,,FF,,,,,,,,0.7356,,,,,,,,,,,,,,,,,,,,,,60ff54eca66d8b022b925291,61036f9df7839d9d6cf5906c,2021-07-30_12h51.15.603,Simcolourproject_2stim_asymm_v5,2020.2.10,MacIntel,60,61025ae37ef11b136ea224fe,,,,,,,,,891,-81.390625,-48.84765625,1,0,0,response5disk,,2,-9.66796875,-5.17578125,1,0,0,rectangle,-9.66796875,-5.17578125,1,0,0,-9.66796875,-5.17578125,1,0,0,1,19,179,155,1,,,,,,,,
,,,,,,,,,,,,,FF,,,,,,,,0.7969,,,,,,,,,,,,,,,,,,,,,,60ff54eca66d8b022b925291,61036f9df7839d9d6cf5906c,2021-07-30_12h51.15.603,Simcolourproject_2stim_asymm_v5,2020.2.10,MacIntel,60,61025ae37ef11b136ea224fe,,,,,,,,,2410,71.19140625,-30.85546875,1,0,0,response3disk,,5,0.984375,-12.99609375,1,0,0,rectangle,0.984375,-12.99609375,1,0,0,0.984375,-12.99609375,1,0,0,1,20,180,129,1,,,,,,,,
,,,,,,,,,,,,,FF,,,,,,,,2.0159,,,,,,,,,,,,,,,,,,,,,,60ff54eca66d8b022b925291,61036f9df7839d9d6cf5906c,2021-07-30_12h51.15.603,Simcolourproject_2stim_asymm_v5,2020.2.10,MacIntel,60,61025ae37ef11b136ea224fe,,,,,,,,,1245,93.78515625,-37.3203125,1,0,0,response3disk,,5,-4.98828125,-4.29296875,1,0,0,rectangle,-4.98828125,-4.29296875,1,0,0,-4.98828125,-4.29296875,1,0,0,1,21,181,117,1,,,,,,,,
,,,,,,,,,,,,,FF,,,,,,,,0.7483,,,,,,,,,,,,,,,,,,,,,,60ff54eca66d8b022b925291,61036f9df7839d9d6cf5906c,2021-07-30_12h51.15.603,Simcolourproject_2stim_asymm_v5,2020.2.10,MacIntel,60,61025ae37ef11b136ea224fe,,,,,,,,,3718,-67.94140625,-37.12109375,1,0,0,response5disk,,2,-5.6328125,-12.0859375,1,0,0,rectangle,-5.6328125,-12.0859375,1,0,0,-5.6328125,-12.0859375,1,0,0,1,22,182,66,1,,,,,,,,
,,,,,,,,,,,,,FF,,,,,,,,1.216,,,,,,,,,,,,,,,,,,,,,,60ff54eca66d8b022b925291,61036f9df7839d9d6cf5906c,2021-07-30_12h51.15.603,Simcolourproject_2stim_asymm_v5,2020.2.10,MacIntel,60,61025ae37ef11b136ea224fe,,,,,,,,,765,78.9453125,61.953125,1,0,0,response1disk,,6,12.53515625,-4.7734375,1,0,0,rectangle,12.53515625,-4.7734375,1,0,0,12.53515625,-4.7734375,1,0,0,1,23,183,131,1,,,,,,,,
,,,,,,,,,,,,,FF,,,,,,,,1.3666,,,,,,,,,,,,,,,,,,,,,,60ff54eca66d8b022b925291,61036f9df7839d9d6cf5906c,2021-07-30_12h51.15.603,Simcolourproject_2stim_asymm_v5,2020.2.10,MacIntel,60,61025ae37ef11b136ea224fe,,,,,,,,,2653,-67.5625,-38.74609375,1,0,0,response5disk,,2,-12.59765625,-1.16015625,1,0,0,rectangle,-12.59765625,-1.16015625,1,0,0,-12.59765625,-1.16015625,1,0,0,1,24,184,46,1,,,,,,,,
,,,,,,,,,,,,,FF,,,,,,,,0.9827,,,,,,,,,,,,,,,,,,,,,,60ff54eca66d8b022b925291,61036f9df7839d9d6cf5906c,2021-07-30_12h51.15.603,Simcolourproject_2stim_asymm_v5,2020.2.10,MacIntel,60,61025ae37ef11b136ea224fe,,,,,,,,,111,-38.22265625,-85.13671875,1,0,0,response5disk,,3,16.1796875,2.9375,1,0,0,rectangle,16.1796875,2.9375,1,0,0,16.1796875,2.9375,1,0,0,1,25,185,119,1,,,,,,,,
,,,,,,,,,,,,,FF,,,,,,,,1.2826,,,,,,,,,,,,,,,,,,,,,,60ff54eca66d8b022b925291,61036f9df7839d9d6cf5906c,2021-07-30_12h51.15.603,Simcolourproject_2stim_asymm_v5,2020.2.10,MacIntel,60,61025ae37ef11b136ea224fe,,,,,,,,,2744,82.05859375,-36.53515625,1,0,0,response3disk,,5,-12.32421875,5.40625,1,0,0,rectangle,-12.32421875,5.40625,1,0,0,-12.32421875,5.40625,1,0,0,1,26,186,2,1,,,,,,,,
,,,,,,,,,,,,,FF,,,,,,,,2.0493,,,,,,,,,,,,,,,,,,,,,,60ff54eca66d8b022b925291,61036f9df7839d9d6cf5906c,2021-07-30_12h51.15.603,Simcolourproject_2stim_asymm_v5,2020.2.10,MacIntel,60,61025ae37ef11b136ea224fe,,,,,,,,,868,63.8203125,-58.4453125,1,0,0,response3disk,,5,5.421875,-10.48046875,1,0,0,rectangle,5.421875,-10.48046875,1,0,0,5.421875,-10.48046875,1,0,0,1,27,187,102,1,,,,,,,,
,,,,,,,,,,,,,FF,,,,,,,,0.9152,,,,,,,,,,,,,,,,,,,,,,60ff54eca66d8b022b925291,61036f9df7839d9d6cf5906c,2021-07-30_12h51.15.603,Simcolourproject_2stim_asymm_v5,2020.2.10,MacIntel,60,61025ae37ef11b136ea224fe,,,,,,,,,1716,61,41.18359375,1,0,0,response1disk,,6,12.82421875,-0.57421875,1,0,0,rectangle,12.82421875,-0.57421875,1,0,0,12.82421875,-0.57421875,1,0,0,1,28,188,80,1,,,,,,,,
,,,,,,,,,,,,,FF,,,,,,,,1.098,,,,,,,,,,,,,,,,,,,,,,60ff54eca66d8b022b925291,61036f9df7839d9d6cf5906c,2021-07-30_12h51.15.603,Simcolourproject_2stim_asymm_v5,2020.2.10,MacIntel,60,61025ae37ef11b136ea224fe,,,,,,,,,150,41.640625,-84.41015625,1,0,0,response3disk,,4,8.90625,-3.47265625,1,0,0,rectangle,8.90625,-3.47265625,1,0,0,8.90625,-3.47265625,1,0,0,1,29,189,89,1,,,,,,,,
,,,,,,,,,,,,,FF,,,,,,,,1.3478,,,,,,,,,,,,,,,,,,,,,,60ff54eca66d8b022b925291,61036f9df7839d9d6cf5906c,2021-07-30_12h51.15.603,Simcolourproject_2stim_asymm_v5,2020.2.10,MacIntel,60,61025ae37ef11b136ea224fe,,,,,,,,,3097,-52.39453125,84.578125,1,0,0,response7disk,,0,12.18359375,4.4765625,1,0,0,rectangle,12.18359375,4.4765625,1,0,0,12.18359375,4.4765625,1,0,0,1,30,190,11,1,,,,,,,,
,,,,,,,,,,,,,FF,,,,,,,,1.3668,,,,,,,,,,,,,,,,,,,,,,60ff54eca66d8b022b925291,61036f9df7839d9d6cf5906c,2021-07-30_12h51.15.603,Simcolourproject_2stim_asymm_v5,2020.2.10,MacIntel,60,61025ae37ef11b136ea224fe,,,,,,,,,420,66.96875,33.19921875,1,0,0,response1disk,,6,3.5234375,-3.51171875,1,0,0,rectangle,3.5234375,-3.51171875,1,0,0,3.5234375,-3.51171875,1,0,0,1,31,191,148,1,,,,,,,,
,,,,,,,,,,,,,FF,,,,,,,,0.6331,,,,,,,,,,,,,,,,,,,,,,60ff54eca66d8b022b925291,61036f9df7839d9d6cf5906c,2021-07-30_12h51.15.603,Simcolourproject_2stim_asymm_v5,2020.2.10,MacIntel,60,61025ae37ef11b136ea224fe,,,,,,,,,1931,74.7421875,-50.8828125,1,0,0,response3disk,,5,22.06640625,-14.015625,1,0,0,rectangle,22.06640625,-14.015625,1,0,0,22.06640625,-14.015625,1,0,0,1,32,192,137,1,,,,,,,,
,,,,,,,,,,,,,FF,,,,,,,,1.2174,,,,,,,,,,,,,,,,,,,,,,60ff54eca66d8b022b925291,61036f9df7839d9d6cf5906c,2021-07-30_12h51.15.603,Simcolourproject_2stim_asymm_v5,2020.2.10,MacIntel,60,61025ae37ef11b136ea224fe,,,,,,,,,3651,56.921875,-71.9296875,1,0,0,response3disk,,4,30.3515625,0.546875,1,0,0,rectangle,30.3515625,0.546875,1,0,0,30.3515625,0.546875,1,0,0,1,33,193,23,1,,,,,,,,
,,,,,,,,,,,,,FF,,,,,,,,0.863,,,,,,,,,,,,,,,,,,,,,,60ff54eca66d8b022b925291,61036f9df7839d9d6cf5906c,2021-07-30_12h51.15.603,Simcolourproject_2stim_asymm_v5,2020.2.10,MacIntel,60,61025ae37ef11b136ea224fe,,,,,,,,,1034,-38.31640625,-75.84765625,1,0,0,response5disk,,3,3.5234375,5.39453125,1,0,0,rectangle,3.5234375,5.39453125,1,0,0,3.5234375,5.39453125,1,0,0,1,34,194,109,1,,,,,,,,
,,,,,,,,,,,,,FF,,,,,,,,1.0641,,,,,,,,,,,,,,,,,,,,,,60ff54eca66d8b022b925291,61036f9df7839d9d6cf5906c,2021-07-30_12h51.15.603,Simcolourproject_2stim_asymm_v5,2020.2.10,MacIntel,60,61025ae37ef11b136ea224fe,,,,,,,,,2084,-60.98828125,-45.69140625,1,0,0,response5disk,,2,26.6953125,1.71875,1,0,0,rectangle,26.6953125,1.71875,1,0,0,26.6953125,1.71875,1,0,0,1,35,195,74,1,,,,,,,,
,,,,,,,,,,,,,FF,,,,,,,,0.7145,,,,,,,,,,,,,,,,,,,,,,60ff54eca66d8b022b925291,61036f9df7839d9d6cf5906c,2021-07-30_12h51.15.603,Simcolourproject_2stim_asymm_v5,2020.2.10,MacIntel,60,61025ae37ef11b136ea224fe,,,,,,,,,1879,66.78125,-30.875,1,0,0,response3disk,,5,2.34375,-10.31640625,1,0,0,rectangle,2.34375,-10.31640625,1,0,0,2.34375,-10.31640625,1,0,0,1,36,196,98,1,,,,,,,,
,,,,,,,,,,,,,FF,,,,,,,,0.7359,,,,,,,,,,,,,,,,,,,,,,60ff54eca66d8b022b925291,61036f9df7839d9d6cf5906c,2021-07-30_12h51.15.603,Simcolourproject_2stim_asymm_v5,2020.2.10,MacIntel,60,61025ae37ef11b136ea224fe,,,,,,,,,405,105.3242188,53.6796875,1,0,0,response1disk,,6,21.26171875,5.60546875,1,0,0,rectangle,21.26171875,5.60546875,1,0,0,21.26171875,5.60546875,1,0,0,1,37,197,83,1,,,,,,,,
,,,,,,,,,,,,,FF,,,,,,,,1.6003,,,,,,,,,,,,,,,,,,,,,,60ff54eca66d8b022b925291,61036f9df7839d9d6cf5906c,2021-07-30_12h51.15.603,Simcolourproject_2stim_asymm_v5,2020.2.10,MacIntel,60,61025ae37ef11b136ea224fe,,,,,,,,,359,88.67578125,-37.3359375,1,0,0,response3disk,,5,-8.0625,-9.27734375,1,0,0,rectangle,-8.0625,-9.27734375,1,0,0,-8.0625,-9.27734375,1,0,0,1,38,198,122,1,,,,,,,,
,,,,,,,,,,,,,FF,,,,,,,,2.0332,,,,,,,,,,,,,,,,,,,,,,60ff54eca66d8b022b925291,61036f9df7839d9d6cf5906c,2021-07-30_12h51.15.603,Simcolourproject_2stim_asymm_v5,2020.2.10,MacIntel,60,61025ae37ef11b136ea224fe,,,,,,,,,2075,53.51953125,-55.796875,1,0,0,response3disk,,4,-2.765625,6.73046875,1,0,0,rectangle,-2.765625,6.73046875,1,0,0,-2.765625,6.73046875,1,0,0,1,39,199,139,1,,,,,,,,
,,,,,,,,,,,,,FF,,,,,,,,0.7859,,,,,,,,,,,,,,,,,,,,,,60ff54eca66d8b022b925291,61036f9df7839d9d6cf5906c,2021-07-30_12h51.15.603,Simcolourproject_2stim_asymm_v5,2020.2.10,MacIntel,60,61025ae37ef11b136ea224fe,,,,,,,,,1821,-61.16015625,-71.5703125,1,0,0,response5disk,,3,0.13671875,-3.81640625,1,0,0,rectangle,0.13671875,-3.81640625,1,0,0,0.13671875,-3.81640625,1,0,0,1,40,200,39,1,,,,,,,,
,,,,,,,,,,,,,FF,,,,,,,,0.6357,,,,,,,,,,,,,,,,,,,,,,60ff54eca66d8b022b925291,61036f9df7839d9d6cf5906c,2021-07-30_12h51.15.603,Simcolourproject_2stim_asymm_v5,2020.2.10,MacIntel,60,61025ae37ef11b136ea224fe,,,,,,,,,1645,85.9140625,62.7265625,1,0,0,response1disk,,6,-15.4140625,12.8359375,1,0,0,rectangle,-15.4140625,12.8359375,1,0,0,-15.4140625,12.8359375,1,0,0,1,41,201,110,1,,,,,,,,
,,,,,,,,,,,,,FF,,,,,,,,0.7479,,,,,,,,,,,,,,,,,,,,,,60ff54eca66d8b022b925291,61036f9df7839d9d6cf5906c,2021-07-30_12h51.15.603,Simcolourproject_2stim_asymm_v5,2020.2.10,MacIntel,60,61025ae37ef11b136ea224fe,,,,,,,,,1478,59.08203125,43.44140625,1,0,0,response1disk,,6,12.546875,7.171875,1,0,0,rectangle,12.546875,7.171875,1,0,0,12.546875,7.171875,1,0,0,1,42,202,27,1,,,,,,,,
,,,,,,,,,,,,,FF,,,,,,,,1.047,,,,,,,,,,,,,,,,,,,,,,60ff54eca66d8b022b925291,61036f9df7839d9d6cf5906c,2021-07-30_12h51.15.603,Simcolourproject_2stim_asymm_v5,2020.2.10,MacIntel,60,61025ae37ef11b136ea224fe,,,,,,,,,1220,-40.265625,-118.390625,1,0,0,response5disk,,3,-8.58984375,1.77734375,1,0,0,rectangle,-8.58984375,1.77734375,1,0,0,-8.58984375,1.77734375,1,0,0,1,43,203,69,1,,,,,,,,
,,,,,,,,,,,,,FF,,,,,,,,0.9669,,,,,,,,,,,,,,,,,,,,,,60ff54eca66d8b022b925291,61036f9df7839d9d6cf5906c,2021-07-30_12h51.15.603,Simcolourproject_2stim_asymm_v5,2020.2.10,MacIntel,60,61025ae37ef11b136ea224fe,,,,,,,,,348,-67.46484375,29.703125,1,0,0,response7disk,,1,-28.53515625,-1.5390625,1,0,0,rectangle,-28.53515625,-1.5390625,1,0,0,-28.53515625,-1.5390625,1,0,0,1,44,204,138,1,,,,,,,,
,,,,,,,,,,,,,FF,,,,,,,,0.6809,,,,,,,,,,,,,,,,,,,,,,60ff54eca66d8b022b925291,61036f9df7839d9d6cf5906c,2021-07-30_12h51.15.603,Simcolourproject_2stim_asymm_v5,2020.2.10,MacIntel,60,61025ae37ef11b136ea224fe,,,,,,,,,4176,54.6484375,-29.9140625,1,0,0,response3disk,,5,15.74609375,-11.4140625,1,0,0,rectangle,15.74609375,-11.4140625,1,0,0,15.74609375,-11.4140625,1,0,0,1,45,205,127,1,,,,,,,,
,,,,,,,,,,,,,FF,,,,,,,,1.2188,,,,,,,,,,,,,,,,,,,,,,60ff54eca66d8b022b925291,61036f9df7839d9d6cf5906c,2021-07-30_12h51.15.603,Simcolourproject_2stim_asymm_v5,2020.2.10,MacIntel,60,61025ae37ef11b136ea224fe,,,,,,,,,453,72.94921875,-38.234375,1,0,0,response3disk,,5,-2.46484375,-1.859375,1,0,0,rectangle,-2.46484375,-1.859375,1,0,0,-2.46484375,-1.859375,1,0,0,1,46,206,48,1,,,,,,,,
,,,,,,,,,,,,,FF,,,,,,,,2.9197,,,,,,,,,,,,,,,,,,,,,,60ff54eca66d8b022b925291,61036f9df7839d9d6cf5906c,2021-07-30_12h51.15.603,Simcolourproject_2stim_asymm_v5,2020.2.10,MacIntel,60,61025ae37ef11b136ea224fe,,,,,,,,,282,-65.29296875,-37.46875,1,0,0,response5disk,,2,4.94921875,-1.33984375,1,0,0,rectangle,4.94921875,-1.33984375,1,0,0,4.94921875,-1.33984375,1,0,0,1,47,207,84,1,,,,,,,,
,,,,,,,,,,,,,FF,,,,,,,,1.4493,,,,,,,,,,,,,,,,,,,,,,60ff54eca66d8b022b925291,61036f9df7839d9d6cf5906c,2021-07-30_12h51.15.603,Simcolourproject_2stim_asymm_v5,2020.2.10,MacIntel,60,61025ae37ef11b136ea224fe,,,,,,,,,3453,-18.34375,-106.3007813,1,0,0,response5disk,,3,-0.80078125,-8.890625,1,0,0,rectangle,-0.80078125,-8.890625,1,0,0,-0.80078125,-8.890625,1,0,0,1,48,208,16,1,,,,,,,,
,,,,,,,,,,,,,FF,,,,,,,,0.9135,,,,,,,,,,,,,,,,,,,,,,60ff54eca66d8b022b925291,61036f9df7839d9d6cf5906c,2021-07-30_12h51.15.603,Simcolourproject_2stim_asymm_v5,2020.2.10,MacIntel,60,61025ae37ef11b136ea224fe,,,,,,,,,3277,84.3359375,-62.08203125,1,0,0,response3disk,,5,-0.7421875,-5.60546875,1,0,0,rectangle,-0.7421875,-5.60546875,1,0,0,-0.7421875,-5.60546875,1,0,0,1,49,209,134,1,,,,,,,,
,,,,,,,,,,,,,FF,,,,,,,,1.0998,,,,,,,,,,,,,,,,,,,,,,60ff54eca66d8b022b925291,61036f9df7839d9d6cf5906c,2021-07-30_12h51.15.603,Simcolourproject_2stim_asymm_v5,2020.2.10,MacIntel,60,61025ae37ef11b136ea224fe,,,,,,,,,1248,-35.74609375,-100.7304688,1,0,0,response5disk,,3,4.31640625,-7.0234375,1,0,0,rectangle,4.31640625,-7.0234375,1,0,0,4.31640625,-7.0234375,1,0,0,1,50,210,103,1,,,,,,,,
,,,,,,,,,,,,,FF,,,,,,,,2.2199,,,,,,,,,,,,,,,,,,,,,,60ff54eca66d8b022b925291,61036f9df7839d9d6cf5906c,2021-07-30_12h51.15.603,Simcolourproject_2stim_asymm_v5,2020.2.10,MacIntel,60,61025ae37ef11b136ea224fe,,,,,,,,,824,-74.37890625,-44.18359375,1,0,0,response5disk,,2,11.11328125,12.41015625,1,0,0,rectangle,11.11328125,12.41015625,1,0,0,11.11328125,12.41015625,1,0,0,1,51,211,4,1,,,,,,,,
,,,,,,,,,,,,,FF,,,,,,,,1.0697,,,,,,,,,,,,,,,,,,,,,,60ff54eca66d8b022b925291,61036f9df7839d9d6cf5906c,2021-07-30_12h51.15.603,Simcolourproject_2stim_asymm_v5,2020.2.10,MacIntel,60,61025ae37ef11b136ea224fe,,,,,,,,,3169,37.859375,-86.66015625,1,0,0,response3disk,,4,9.73828125,5.87890625,1,0,0,rectangle,9.73828125,5.87890625,1,0,0,9.73828125,5.87890625,1,0,0,1,52,212,10,1,,,,,,,,
,,,,,,,,,,,,,FF,,,,,,,,0.9027,,,,,,,,,,,,,,,,,,,,,,60ff54eca66d8b022b925291,61036f9df7839d9d6cf5906c,2021-07-30_12h51.15.603,Simcolourproject_2stim_asymm_v5,2020.2.10,MacIntel,60,61025ae37ef11b136ea224fe,,,,,,,,,288,77.546875,-40.1171875,1,0,0,response3disk,,5,12.48828125,-6.41015625,1,0,0,rectangle,12.48828125,-6.41015625,1,0,0,12.48828125,-6.41015625,1,0,0,1,53,213,99,1,,,,,,,,
,,,,,,,,,,,,,FF,,,,,,,,0.9663,,,,,,,,,,,,,,,,,,,,,,60ff54eca66d8b022b925291,61036f9df7839d9d6cf5906c,2021-07-30_12h51.15.603,Simcolourproject_2stim_asymm_v5,2020.2.10,MacIntel,60,61025ae37ef11b136ea224fe,,,,,,,,,4026,-62,-49.56640625,1,0,0,response5disk,,2,18.48046875,6.66015625,1,0,0,rectangle,18.48046875,6.66015625,1,0,0,18.48046875,6.66015625,1,0,0,1,54,214,38,1,,,,,,,,
,,,,,,,,,,,,,FF,,,,,,,,1.0494,,,,,,,,,,,,,,,,,,,,,,60ff54eca66d8b022b925291,61036f9df7839d9d6cf5906c,2021-07-30_12h51.15.603,Simcolourproject_2stim_asymm_v5,2020.2.10,MacIntel,60,61025ae37ef11b136ea224fe,,,,,,,,,1911,-24.9765625,-69.81640625,1,0,0,response5disk,,3,9.06640625,-9.22265625,1,0,0,rectangle,9.06640625,-9.22265625,1,0,0,9.06640625,-9.22265625,1,0,0,1,55,215,71,1,,,,,,,,
,,,,,,,,,,,,,FF,,,,,,,,0.8665,,,,,,,,,,,,,,,,,,,,,,60ff54eca66d8b022b925291,61036f9df7839d9d6cf5906c,2021-07-30_12h51.15.603,Simcolourproject_2stim_asymm_v5,2020.2.10,MacIntel,60,61025ae37ef11b136ea224fe,,,,,,,,,3253,59.43359375,-79.36328125,1,0,0,response3disk,,4,12.22265625,2.87109375,1,0,0,rectangle,12.22265625,2.87109375,1,0,0,12.22265625,2.87109375,1,0,0,1,56,216,21,1,,,,,,,,
,,,,,,,,,,,,,FF,,,,,,,,0.9515,,,,,,,,,,,,,,,,,,,,,,60ff54eca66d8b022b925291,61036f9df7839d9d6cf5906c,2021-07-30_12h51.15.603,Simcolourproject_2stim_asymm_v5,2020.2.10,MacIntel,60,61025ae37ef11b136ea224fe,,,,,,,,,3494,57.6875,-43.83984375,1,0,0,response3disk,,5,-1.27734375,-4.44140625,1,0,0,rectangle,-1.27734375,-4.44140625,1,0,0,-1.27734375,-4.44140625,1,0,0,1,57,217,29,1,,,,,,,,
,,,,,,,,,,,,,FF,,,,,,,,0.7662,,,,,,,,,,,,,,,,,,,,,,60ff54eca66d8b022b925291,61036f9df7839d9d6cf5906c,2021-07-30_12h51.15.603,Simcolourproject_2stim_asymm_v5,2020.2.10,MacIntel,60,61025ae37ef11b136ea224fe,,,,,,,,,2749,74.13671875,32.45703125,1,0,0,response1disk,,6,27.4921875,9.14453125,1,0,0,rectangle,27.4921875,9.14453125,1,0,0,27.4921875,9.14453125,1,0,0,1,58,218,49,1,,,,,,,,
,,,,,,,,,,,,,FF,,,,,,,,0.7684,,,,,,,,,,,,,,,,,,,,,,60ff54eca66d8b022b925291,61036f9df7839d9d6cf5906c,2021-07-30_12h51.15.603,Simcolourproject_2stim_asymm_v5,2020.2.10,MacIntel,60,61025ae37ef11b136ea224fe,,,,,,,,,7,-59.04296875,34.78515625,1,0,0,response7disk,,1,3.23828125,-2.21875,1,0,0,rectangle,3.23828125,-2.21875,1,0,0,3.23828125,-2.21875,1,0,0,1,59,219,112,1,,,,,,,,
,,,,,,,,,,,,,FF,,,,,,,,3.4012,,,,,,,,,,,,,,,,,,,,,,60ff54eca66d8b022b925291,61036f9df7839d9d6cf5906c,2021-07-30_12h51.15.603,Simcolourproject_2stim_asymm_v5,2020.2.10,MacIntel,60,61025ae37ef11b136ea224fe,,,,,,,,,3322,88.1484375,22.96484375,1,0,0,response1disk,,6,8.8359375,14.0390625,1,0,0,rectangle,8.8359375,14.0390625,1,0,0,8.8359375,14.0390625,1,0,0,1,60,220,97,1,,,,,,,,
,,,,,,,,,,,,,FF,,,,,,,,4.8803,,,,,,,,,,,,,,,,,,,,,,60ff54eca66d8b022b925291,61036f9df7839d9d6cf5906c,2021-07-30_12h51.15.603,Simcolourproject_2stim_asymm_v5,2020.2.10,MacIntel,60,61025ae37ef11b136ea224fe,,,,,,,,,3304,30.38671875,-67.60546875,1,0,0,response3disk,,4,-8.734375,11.24609375,1,0,0,rectangle,-8.734375,11.24609375,1,0,0,-8.734375,11.24609375,1,0,0,1,61,221,105,1,,,,,,,,
,,,,,,,,,,,,,FF,,,,,,,,2.2039,,,,,,,,,,,,,,,,,,,,,,60ff54eca66d8b022b925291,61036f9df7839d9d6cf5906c,2021-07-30_12h51.15.603,Simcolourproject_2stim_asymm_v5,2020.2.10,MacIntel,60,61025ae37ef11b136ea224fe,,,,,,,,,2212,72.40625,-27.625,1,0,0,response3disk,,5,31.98828125,-4.1484375,1,0,0,rectangle,31.98828125,-4.1484375,1,0,0,31.98828125,-4.1484375,1,0,0,1,62,222,14,1,,,,,,,,
,,,,,,,,,,,,,FF,,,,,,,,0.9337,,,,,,,,,,,,,,,,,,,,,,60ff54eca66d8b022b925291,61036f9df7839d9d6cf5906c,2021-07-30_12h51.15.603,Simcolourproject_2stim_asymm_v5,2020.2.10,MacIntel,60,61025ae37ef11b136ea224fe,,,,,,,,,1202,-75.578125,44.5390625,1,0,0,response7disk,,1,-18.91015625,3.671875,1,0,0,rectangle,-18.91015625,3.671875,1,0,0,-18.91015625,3.671875,1,0,0,1,63,223,6,1,,,,,,,,
,,,,,,,,,,,,,FF,,,,,,,,1.4681,,,,,,,,,,,,,,,,,,,,,,60ff54eca66d8b022b925291,61036f9df7839d9d6cf5906c,2021-07-30_12h51.15.603,Simcolourproject_2stim_asymm_v5,2020.2.10,MacIntel,60,61025ae37ef11b136ea224fe,,,,,,,,,881,42.30859375,-79.30859375,1,0,0,response3disk,,4,8.3671875,-12.96484375,1,0,0,rectangle,8.3671875,-12.96484375,1,0,0,8.3671875,-12.96484375,1,0,0,1,64,224,150,1,,,,,,,,
,,,,,,,,,,,,,FF,,,,,,,,1.3999,,,,,,,,,,,,,,,,,,,,,,60ff54eca66d8b022b925291,61036f9df7839d9d6cf5906c,2021-07-30_12h51.15.603,Simcolourproject_2stim_asymm_v5,2020.2.10,MacIntel,60,61025ae37ef11b136ea224fe,,,,,,,,,458,-71.26953125,-36.10546875,1,0,0,response5disk,,2,6.8828125,-7.66015625,1,0,0,rectangle,6.8828125,-7.66015625,1,0,0,6.8828125,-7.66015625,1,0,0,1,65,225,107,1,,,,,,,,
,,,,,,,,,,,,,FF,,,,,,,,1.051,,,,,,,,,,,,,,,,,,,,,,60ff54eca66d8b022b925291,61036f9df7839d9d6cf5906c,2021-07-30_12h51.15.603,Simcolourproject_2stim_asymm_v5,2020.2.10,MacIntel,60,61025ae37ef11b136ea224fe,,,,,,,,,3145,70.99609375,28.05859375,1,0,0,response1disk,,6,16.69921875,-0.3984375,1,0,0,rectangle,16.69921875,-0.3984375,1,0,0,16.69921875,-0.3984375,1,0,0,1,66,226,130,1,,,,,,,,
,,,,,,,,,,,,,FF,,,,,,,,2.6669,,,,,,,,,,,,,,,,,,,,,,60ff54eca66d8b022b925291,61036f9df7839d9d6cf5906c,2021-07-30_12h51.15.603,Simcolourproject_2stim_asymm_v5,2020.2.10,MacIntel,60,61025ae37ef11b136ea224fe,,,,,,,,,1484,92.29296875,50.59765625,1,0,0,response1disk,,6,5.421875,8.27734375,1,0,0,rectangle,5.421875,8.27734375,1,0,0,5.421875,8.27734375,1,0,0,1,67,227,85,1,,,,,,,,
,,,,,,,,,,,,,FF,,,,,,,,1.4322,,,,,,,,,,,,,,,,,,,,,,60ff54eca66d8b022b925291,61036f9df7839d9d6cf5906c,2021-07-30_12h51.15.603,Simcolourproject_2stim_asymm_v5,2020.2.10,MacIntel,60,61025ae37ef11b136ea224fe,,,,,,,,,3739,96.43359375,-41.47265625,1,0,0,response3disk,,5,-35.70703125,5.17578125,1,0,0,rectangle,-35.70703125,5.17578125,1,0,0,-35.70703125,5.17578125,1,0,0,1,68,228,53,1,,,,,,,,
,,,,,,,,,,,,,FF,,,,,,,,1.0171,,,,,,,,,,,,,,,,,,,,,,60ff54eca66d8b022b925291,61036f9df7839d9d6cf5906c,2021-07-30_12h51.15.603,Simcolourproject_2stim_asymm_v5,2020.2.10,MacIntel,60,61025ae37ef11b136ea224fe,,,,,,,,,1557,66.5625,-39.84765625,1,0,0,response3disk,,5,9.8984375,-9.34765625,1,0,0,rectangle,9.8984375,-9.34765625,1,0,0,9.8984375,-9.34765625,1,0,0,1,69,229,42,1,,,,,,,,
,,,,,,,,,,,,,FF,,,,,,,,1.6491,,,,,,,,,,,,,,,,,,,,,,60ff54eca66d8b022b925291,61036f9df7839d9d6cf5906c,2021-07-30_12h51.15.603,Simcolourproject_2stim_asymm_v5,2020.2.10,MacIntel,60,61025ae37ef11b136ea224fe,,,,,,,,,439,-75.4765625,-38.68359375,1,0,0,response5disk,,2,6.6953125,-11.40234375,1,0,0,rectangle,-57.69921875,49.453125,1,0,0,18.0234375,-0.62109375,1,0,0,1,70,230,132,1,,response7disk_3,TRUE,1,1,"[142,57,147,258,58,231,126,318,90,259,246,35,27,264,170,82,177,273,111,45]",1.6668,rectangle
,,,,,,,,,,,,,FF,,,,,,,,3.5146,,,,,,,,,,,,,,,,,,,,,,60ff54eca66d8b022b925291,61036f9df7839d9d6cf5906c,2021-07-30_12h51.15.603,Simcolourproject_2stim_asymm_v5,2020.2.10,MacIntel,60,61025ae37ef11b136ea224fe,,,,,,,,,3628,-42.9609375,-60.6328125,1,0,0,response5disk,,3,-1.51171875,1.94921875,1,0,0,rectangle,-1.51171875,1.94921875,1,0,0,-1.51171875,1.94921875,1,0,0,1,71,231,143,1,,,,,,,,
,,,,,,,,,,,,,FF,,,,,,,,0.7488,,,,,,,,,,,,,,,,,,,,,,60ff54eca66d8b022b925291,61036f9df7839d9d6cf5906c,2021-07-30_12h51.15.603,Simcolourproject_2stim_asymm_v5,2020.2.10,MacIntel,60,61025ae37ef11b136ea224fe,,,,,,,,,2896,-73.77734375,-28.64453125,1,0,0,response5disk,,2,-17.453125,5.3359375,1,0,0,rectangle,-17.453125,5.3359375,1,0,0,-17.453125,5.3359375,1,0,0,1,72,232,100,1,,,,,,,,
,,,,,,,,,,,,,FF,,,,,,,,0.7899,,,,,,,,,,,,,,,,,,,,,,60ff54eca66d8b022b925291,61036f9df7839d9d6cf5906c,2021-07-30_12h51.15.603,Simcolourproject_2stim_asymm_v5,2020.2.10,MacIntel,60,61025ae37ef11b136ea224fe,,,,,,,,,1683,-47.8359375,24,1,0,0,response7disk,,1,15.71484375,3.00390625,1,0,0,rectangle,15.71484375,3.00390625,1,0,0,15.71484375,3.00390625,1,0,0,1,73,233,62,1,,,,,,,,
,,,,,,,,,,,,,FF,,,,,,,,1.4666,,,,,,,,,,,,,,,,,,,,,,60ff54eca66d8b022b925291,61036f9df7839d9d6cf5906c,2021-07-30_12h51.15.603,Simcolourproject_2stim_asymm_v5,2020.2.10,MacIntel,60,61025ae37ef11b136ea224fe,,,,,,,,,2882,-29.83984375,-86.84375,1,0,0,response5disk,,3,7.8671875,-8.84375,1,0,0,rectangle,7.8671875,-8.84375,1,0,0,7.8671875,-8.84375,1,0,0,1,74,234,75,1,,,,,,,,
,,,,,,,,,,,,,FF,,,,,,,,0.9681,,,,,,,,,,,,,,,,,,,,,,60ff54eca66d8b022b925291,61036f9df7839d9d6cf5906c,2021-07-30_12h51.15.603,Simcolourproject_2stim_asymm_v5,2020.2.10,MacIntel,60,61025ae37ef11b136ea224fe,,,,,,,,,2559,57.0390625,-70.81640625,1,0,0,response3disk,,4,-13.1640625,-8.1640625,1,0,0,rectangle,-13.1640625,-8.1640625,1,0,0,-13.1640625,-8.1640625,1,0,0,1,75,235,63,1,,,,,,,,
,,,,,,,,,,,,,FF,,,,,,,,0.7198,,,,,,,,,,,,,,,,,,,,,,60ff54eca66d8b022b925291,61036f9df7839d9d6cf5906c,2021-07-30_12h51.15.603,Simcolourproject_2stim_asymm_v5,2020.2.10,MacIntel,60,61025ae37ef11b136ea224fe,,,,,,,,,1886,-28.1796875,81.66796875,1,0,0,response7disk,,0,-2.0078125,3.62890625,1,0,0,rectangle,-2.0078125,3.62890625,1,0,0,-2.0078125,3.62890625,1,0,0,1,76,236,65,1,,,,,,,,
,,,,,,,,,,,,,FF,,,,,,,,1.0483,,,,,,,,,,,,,,,,,,,,,,60ff54eca66d8b022b925291,61036f9df7839d9d6cf5906c,2021-07-30_12h51.15.603,Simcolourproject_2stim_asymm_v5,2020.2.10,MacIntel,60,61025ae37ef11b136ea224fe,,,,,,,,,602,-45.3828125,-109.6835938,1,0,0,response5disk,,3,23.2109375,14.734375,1,0,0,rectangle,23.2109375,14.734375,1,0,0,23.2109375,14.734375,1,0,0,1,77,237,149,1,,,,,,,,
,,,,,,,,,,,,,FF,,,,,,,,0.7671,,,,,,,,,,,,,,,,,,,,,,60ff54eca66d8b022b925291,61036f9df7839d9d6cf5906c,2021-07-30_12h51.15.603,Simcolourproject_2stim_asymm_v5,2020.2.10,MacIntel,60,61025ae37ef11b136ea224fe,,,,,,,,,1825,-70.94921875,-26.00390625,1,0,0,response5disk,,2,3.65234375,0.921875,1,0,0,rectangle,3.65234375,0.921875,1,0,0,3.65234375,0.921875,1,0,0,1,78,238,43,1,,,,,,,,
,,,,,,,,,,,,,FF,,,,,,,,1.0812,,,,,,,,,,,,,,,,,,,,,,60ff54eca66d8b022b925291,61036f9df7839d9d6cf5906c,2021-07-30_12h51.15.603,Simcolourproject_2stim_asymm_v5,2020.2.10,MacIntel,60,61025ae37ef11b136ea224fe,,,,,,,,,1813,-79.6640625,-42.546875,1,0,0,response5disk,,2,15.3125,-6.5625,1,0,0,rectangle,15.3125,-6.5625,1,0,0,15.3125,-6.5625,1,0,0,1,79,239,151,1,,,,,,,,
,,,,,,,,,,,,,FF,,,,,,,,0.9146,,,,,,,,,,,,,,,,,,,,,,60ff54eca66d8b022b925291,61036f9df7839d9d6cf5906c,2021-07-30_12h51.15.603,Simcolourproject_2stim_asymm_v5,2020.2.10,MacIntel,60,61025ae37ef11b136ea224fe,,,,,,,,,4069,37.08203125,-77.78515625,1,0,0,response3disk,,4,16.66015625,-5.01171875,1,0,0,rectangle,16.66015625,-5.01171875,1,0,0,16.66015625,-5.01171875,1,0,0,1,80,240,158,1,,,,,,,,
,,,,,,,,,,,,,FF,,,,,,,,1.4333,,,,,,,,,,,,,,,,,,,,,,60ff54eca66d8b022b925291,61036f9df7839d9d6cf5906c,2021-07-30_12h51.15.603,Simcolourproject_2stim_asymm_v5,2020.2.10,MacIntel,60,61025ae37ef11b136ea224fe,,,,,,,,,1707,45.8671875,75.1953125,1,0,0,response1disk,,7,9.703125,-9.03125,1,0,0,rectangle,9.703125,-9.03125,1,0,0,9.703125,-9.03125,1,0,0,1,81,241,124,1,,,,,,,,
,,,,,,,,,,,,,FF,,,,,,,,0.5515,,,,,,,,,,,,,,,,,,,,,,60ff54eca66d8b022b925291,61036f9df7839d9d6cf5906c,2021-07-30_12h51.15.603,Simcolourproject_2stim_asymm_v5,2020.2.10,MacIntel,60,61025ae37ef11b136ea224fe,,,,,,,,,1213,-67.9765625,37.8203125,1,0,0,response7disk,,1,-23.80078125,3.61328125,1,0,0,rectangle,-23.80078125,3.61328125,1,0,0,-23.80078125,3.61328125,1,0,0,1,82,242,141,1,,,,,,,,
,,,,,,,,,,,,,FF,,,,,,,,0.7027,,,,,,,,,,,,,,,,,,,,,,60ff54eca66d8b022b925291,61036f9df7839d9d6cf5906c,2021-07-30_12h51.15.603,Simcolourproject_2stim_asymm_v5,2020.2.10,MacIntel,60,61025ae37ef11b136ea224fe,,,,,,,,,1944,98.6328125,-49.7265625,1,0,0,response3disk,,5,18.84765625,7.95703125,1,0,0,rectangle,18.84765625,7.95703125,1,0,0,18.84765625,7.95703125,1,0,0,1,83,243,41,1,,,,,,,,
,,,,,,,,,,,,,FF,,,,,,,,0.6014,,,,,,,,,,,,,,,,,,,,,,60ff54eca66d8b022b925291,61036f9df7839d9d6cf5906c,2021-07-30_12h51.15.603,Simcolourproject_2stim_asymm_v5,2020.2.10,MacIntel,60,61025ae37ef11b136ea224fe,,,,,,,,,1547,85.625,-22.38671875,1,0,0,response3disk,,5,-18.14453125,17.3515625,1,0,0,rectangle,-18.14453125,17.3515625,1,0,0,-18.14453125,17.3515625,1,0,0,1,84,244,55,1,,,,,,,,
,,,,,,,,,,,,,FF,,,,,,,,0.6331,,,,,,,,,,,,,,,,,,,,,,60ff54eca66d8b022b925291,61036f9df7839d9d6cf5906c,2021-07-30_12h51.15.603,Simcolourproject_2stim_asymm_v5,2020.2.10,MacIntel,60,61025ae37ef11b136ea224fe,,,,,,,,,4368,-48.44140625,71.03515625,1,0,0,response7disk,,0,-6.6015625,9.38671875,1,0,0,rectangle,-87.890625,56.40625,1,0,0,1.74609375,3.640625,1,0,0,1,85,245,25,1,,response7disk_3,TRUE,1,1,"[142,57,147,258,58,231,126,318,90,259,246,35,27,264,170,82,177,273,111,45]",1.3492,rectangle
,,,,,,,,,,,,,FF,,,,,,,,0.9679,,,,,,,,,,,,,,,,,,,,,,60ff54eca66d8b022b925291,61036f9df7839d9d6cf5906c,2021-07-30_12h51.15.603,Simcolourproject_2stim_asymm_v5,2020.2.10,MacIntel,60,61025ae37ef11b136ea224fe,,,,,,,,,2640,99.875,44.53125,1,0,0,response1disk,,6,4.11328125,-2.60546875,1,0,0,rectangle,4.11328125,-2.60546875,1,0,0,4.11328125,-2.60546875,1,0,0,1,86,246,50,1,,,,,,,,
,,,,,,,,,,,,,FF,,,,,,,,1.7678,,,,,,,,,,,,,,,,,,,,,,60ff54eca66d8b022b925291,61036f9df7839d9d6cf5906c,2021-07-30_12h51.15.603,Simcolourproject_2stim_asymm_v5,2020.2.10,MacIntel,60,61025ae37ef11b136ea224fe,,,,,,,,,3002,73.5078125,-29.24609375,1,0,0,response3disk,,5,-10.6953125,-7.25390625,1,0,0,rectangle,-10.6953125,-7.25390625,1,0,0,-10.6953125,-7.25390625,1,0,0,1,87,247,54,1,,,,,,,,
