key_resp.keys,key_resp.rt,key_resp_14.keys,key_resp_14.rt,key_resp_15.keys,key_resp_15.rt,key_resp_17.keys,key_resp_17.rt,key_resp_9.keys,key_resp_9.rt,key_resp_10.keys,key_resp_10.rt,practice_comparison,Ecc,mouse_5.x,mouse_5.y,mouse_5.leftButton,mouse_5.midButton,mouse_5.rightButton,mouse_5.clicked_name,pracsimilarity,response_time,mouse_10.x,mouse_10.y,mouse_10.leftButton,mouse_10.midButton,mouse_10.rightButton,mouse_10.clicked_name,mouse_7.x,mouse_7.y,mouse_7.leftButton,mouse_7.midButton,mouse_7.rightButton,mouse_6.x,mouse_6.y,mouse_6.leftButton,mouse_6.midButton,mouse_6.rightButton,duringprac.thisRepN,duringprac.thisTrialN,duringprac.thisN,duringprac.thisIndex,duringprac.ran,participant,session,date,expName,psychopyVersion,OS,frameRate,study_id,mouse_7.clicked_name,catchpracsimilarity,catch_response_time,catchnumberprac,catchtrialorderprac,mouse_6.clicked_name,key_resp_22.keys,key_resp_22.rt,realcomparison,mouse.x,mouse.y,mouse.leftButton,mouse.midButton,mouse.rightButton,mouse.clicked_name,Colour2,similarity,mouse_2.x,mouse_2.y,mouse_2.leftButton,mouse_2.midButton,mouse_2.rightButton,mouse_2.clicked_name,mouse_3.x,mouse_3.y,mouse_3.leftButton,mouse_3.midButton,mouse_3.rightButton,mouse_11.x,mouse_11.y,mouse_11.leftButton,mouse_11.midButton,mouse_11.rightButton,trials_2.thisRepN,trials_2.thisTrialN,trials_2.thisN,trials_2.thisIndex,trials_2.ran,Colour1,mouse_3.clicked_name,catchornah,catchsimilarity,catchnumber,catchtrialorder,catchRT,mouse_11.clicked_name
space,1.0485,space,2.5201,space,19.2124,space,6.5821,space,2.9484,space,2.7253,88,PF,134,68,1,0,0,response1disk_5,6,8.8212,-5,-10,1,0,0,rectangle_8,-5,-10,1,0,0,-5,-10,1,0,0,0,0,0,6,1,60ff41d719643e679302c2ec,61036e39f428419531f2ed93,2021-07-29_20h17.42.923,Simcolourproject_2stim_asymm_v5,2020.2.10,Win32,60,61025ae37ef11b136ea224fe,,,,,,,,,,,,,,,,,,,,,,,,,,,,,,,,,,,,,,,,,,,,,,
,,,,,,,,,,,,46,FF,54,-123,1,0,0,response3disk_5,4,9.3151,-13,-3,1,0,0,rectangle_8,129,-57,1,0,0,5,-6,1,0,0,0,1,1,5,1,60ff41d719643e679302c2ec,61036e39f428419531f2ed93,2021-07-29_20h17.42.923,Simcolourproject_2stim_asymm_v5,2020.2.10,Win32,60,61025ae37ef11b136ea224fe,response3disk_7,5,2.5513,5,"[2,5]",rectangle_4,,,,,,,,,,,,,,,,,,,,,,,,,,,,,,,,,,,,,,,,
,,,,,,,,,,,,154,PF,77,130,1,0,0,response1disk_5,7,2.6262,9,16,1,0,0,rectangle_8,9,16,1,0,0,9,16,1,0,0,0,2,2,4,1,60ff41d719643e679302c2ec,61036e39f428419531f2ed93,2021-07-29_20h17.42.923,Simcolourproject_2stim_asymm_v5,2020.2.10,Win32,60,61025ae37ef11b136ea224fe,,,,,,,,,,,,,,,,,,,,,,,,,,,,,,,,,,,,,,,,,,,,,,
,,,,,,,,,,,,10,FF,-106,49,1,0,0,response7disk_5,1,3.9828,3,-4,1,0,0,rectangle_8,3,-4,1,0,0,3,-4,1,0,0,0,3,3,0,1,60ff41d719643e679302c2ec,61036e39f428419531f2ed93,2021-07-29_20h17.42.923,Simcolourproject_2stim_asymm_v5,2020.2.10,Win32,60,61025ae37ef11b136ea224fe,,,,,,,,,,,,,,,,,,,,,,,,,,,,,,,,,,,,,,,,,,,,,,
,,,,,,,,,,,,158,PF,-116,-66,1,0,0,response5disk_5,2,1.3997,6,0,1,0,0,rectangle_8,103,-60,1,0,0,15,9,1,0,0,0,4,4,1,1,60ff41d719643e679302c2ec,61036e39f428419531f2ed93,2021-07-29_20h17.42.923,Simcolourproject_2stim_asymm_v5,2020.2.10,Win32,60,61025ae37ef11b136ea224fe,response3disk_7,5,2.1331,5,"[2,5]",rectangle_4,,,,,,,,,,,,,,,,,,,,,,,,,,,,,,,,,,,,,,,,
,,,,,,,,,,,,134,FF,-109,-57,1,0,0,response5disk_5,2,2.7495,15,3,1,0,0,rectangle_8,15,3,1,0,0,15,3,1,0,0,0,5,5,3,1,60ff41d719643e679302c2ec,61036e39f428419531f2ed93,2021-07-29_20h17.42.923,Simcolourproject_2stim_asymm_v5,2020.2.10,Win32,60,61025ae37ef11b136ea224fe,,,,,,,,,,,,,,,,,,,,,,,,,,,,,,,,,,,,,,,,,,,,,,
,,,,,,,,,,,,31,PF,-55,-141,1,0,0,response5disk_5,3,1.6497,3,14,1,0,0,rectangle_8,3,14,1,0,0,3,14,1,0,0,0,6,6,2,1,60ff41d719643e679302c2ec,61036e39f428419531f2ed93,2021-07-29_20h17.42.923,Simcolourproject_2stim_asymm_v5,2020.2.10,Win32,60,61025ae37ef11b136ea224fe,,,,,,,,,,,,,,,,,,,,,,,,,,,,,,,,,,,,,,,,,,,,,,
,,,,,,,,,,,,,FF,,,,,,,,5.2843,,,,,,,,,,,,,,,,,,,,,,60ff41d719643e679302c2ec,61036e39f428419531f2ed93,2021-07-29_20h17.42.923,Simcolourproject_2stim_asymm_v5,2020.2.10,Win32,60,61025ae37ef11b136ea224fe,,,,,,,space,33.0055,1434,123,-75,1,0,0,response3disk,,5,11,7,1,0,0,rectangle,11,7,1,0,0,11,7,1,0,0,0,0,0,139,1,,,,,,,,
,,,,,,,,,,,,,FF,,,,,,,,5.7322,,,,,,,,,,,,,,,,,,,,,,60ff41d719643e679302c2ec,61036e39f428419531f2ed93,2021-07-29_20h17.42.923,Simcolourproject_2stim_asymm_v5,2020.2.10,Win32,60,61025ae37ef11b136ea224fe,,,,,,,,,1166,119,-62,1,0,0,response3disk,,5,18,4,1,0,0,rectangle,18,4,1,0,0,18,4,1,0,0,0,1,1,134,1,,,,,,,,
,,,,,,,,,,,,,FF,,,,,,,,1.3001,,,,,,,,,,,,,,,,,,,,,,60ff41d719643e679302c2ec,61036e39f428419531f2ed93,2021-07-29_20h17.42.923,Simcolourproject_2stim_asymm_v5,2020.2.10,Win32,60,61025ae37ef11b136ea224fe,,,,,,,,,3477,-110,40,1,0,0,response7disk,,1,-2,-8,1,0,0,rectangle,-2,-8,1,0,0,-2,-8,1,0,0,0,2,2,97,1,,,,,,,,
,,,,,,,,,,,,,FF,,,,,,,,2.3672,,,,,,,,,,,,,,,,,,,,,,60ff41d719643e679302c2ec,61036e39f428419531f2ed93,2021-07-29_20h17.42.923,Simcolourproject_2stim_asymm_v5,2020.2.10,Win32,60,61025ae37ef11b136ea224fe,,,,,,,,,3082,42,117,1,0,0,response1disk,,7,-9,-1,1,0,0,rectangle,-9,-1,1,0,0,-9,-1,1,0,0,0,3,3,137,1,,,,,,,,
,,,,,,,,,,,,,FF,,,,,,,,1.4162,,,,,,,,,,,,,,,,,,,,,,60ff41d719643e679302c2ec,61036e39f428419531f2ed93,2021-07-29_20h17.42.923,Simcolourproject_2stim_asymm_v5,2020.2.10,Win32,60,61025ae37ef11b136ea224fe,,,,,,,,,3048,-126,-48,1,0,0,response5disk,,2,7,-1,1,0,0,rectangle,7,-1,1,0,0,7,-1,1,0,0,0,4,4,14,1,,,,,,,,
,,,,,,,,,,,,,FF,,,,,,,,1.0835,,,,,,,,,,,,,,,,,,,,,,60ff41d719643e679302c2ec,61036e39f428419531f2ed93,2021-07-29_20h17.42.923,Simcolourproject_2stim_asymm_v5,2020.2.10,Win32,60,61025ae37ef11b136ea224fe,,,,,,,,,3938,-38,104,1,0,0,response7disk,,0,2,6,1,0,0,rectangle,2,6,1,0,0,2,6,1,0,0,0,5,5,19,1,,,,,,,,
,,,,,,,,,,,,,FF,,,,,,,,2.4996,,,,,,,,,,,,,,,,,,,,,,60ff41d719643e679302c2ec,61036e39f428419531f2ed93,2021-07-29_20h17.42.923,Simcolourproject_2stim_asymm_v5,2020.2.10,Win32,60,61025ae37ef11b136ea224fe,,,,,,,,,3114,128,60,1,0,0,response1disk,,6,-14,12,1,0,0,rectangle,-14,12,1,0,0,-14,12,1,0,0,0,6,6,118,1,,,,,,,,
,,,,,,,,,,,,,FF,,,,,,,,0.7832,,,,,,,,,,,,,,,,,,,,,,60ff41d719643e679302c2ec,61036e39f428419531f2ed93,2021-07-29_20h17.42.923,Simcolourproject_2stim_asymm_v5,2020.2.10,Win32,60,61025ae37ef11b136ea224fe,,,,,,,,,3937,-92,46,1,0,0,response7disk,,1,6,-7,1,0,0,rectangle,6,-7,1,0,0,6,-7,1,0,0,0,7,7,49,1,,,,,,,,
,,,,,,,,,,,,,FF,,,,,,,,1.2332,,,,,,,,,,,,,,,,,,,,,,60ff41d719643e679302c2ec,61036e39f428419531f2ed93,2021-07-29_20h17.42.923,Simcolourproject_2stim_asymm_v5,2020.2.10,Win32,60,61025ae37ef11b136ea224fe,,,,,,,,,1748,-57,-150,1,0,0,response5disk,,3,4,5,1,0,0,rectangle,4,5,1,0,0,4,5,1,0,0,0,8,8,147,1,,,,,,,,
,,,,,,,,,,,,,FF,,,,,,,,1.383,,,,,,,,,,,,,,,,,,,,,,60ff41d719643e679302c2ec,61036e39f428419531f2ed93,2021-07-29_20h17.42.923,Simcolourproject_2stim_asymm_v5,2020.2.10,Win32,60,61025ae37ef11b136ea224fe,,,,,,,,,861,104,70,1,0,0,response1disk,,6,-14,5,1,0,0,rectangle,-14,5,1,0,0,-14,5,1,0,0,0,9,9,1,1,,,,,,,,
,,,,,,,,,,,,,FF,,,,,,,,1.3831,,,,,,,,,,,,,,,,,,,,,,60ff41d719643e679302c2ec,61036e39f428419531f2ed93,2021-07-29_20h17.42.923,Simcolourproject_2stim_asymm_v5,2020.2.10,Win32,60,61025ae37ef11b136ea224fe,,,,,,,,,4146,-112,78,1,0,0,response7disk,,1,8,-7,1,0,0,rectangle,8,-7,1,0,0,8,-7,1,0,0,0,10,10,65,1,,,,,,,,
,,,,,,,,,,,,,FF,,,,,,,,5.249,,,,,,,,,,,,,,,,,,,,,,60ff41d719643e679302c2ec,61036e39f428419531f2ed93,2021-07-29_20h17.42.923,Simcolourproject_2stim_asymm_v5,2020.2.10,Win32,60,61025ae37ef11b136ea224fe,,,,,,,,,2702,143,-33,1,0,0,response3disk,,5,12,2,1,0,0,rectangle,12,2,1,0,0,12,2,1,0,0,0,11,11,123,1,,,,,,,,
,,,,,,,,,,,,,FF,,,,,,,,2.0997,,,,,,,,,,,,,,,,,,,,,,60ff41d719643e679302c2ec,61036e39f428419531f2ed93,2021-07-29_20h17.42.923,Simcolourproject_2stim_asymm_v5,2020.2.10,Win32,60,61025ae37ef11b136ea224fe,,,,,,,,,1519,74,109,1,0,0,response1disk,,7,14,8,1,0,0,rectangle,14,8,1,0,0,14,8,1,0,0,0,12,12,138,1,,,,,,,,
,,,,,,,,,,,,,FF,,,,,,,,1.1163,,,,,,,,,,,,,,,,,,,,,,60ff41d719643e679302c2ec,61036e39f428419531f2ed93,2021-07-29_20h17.42.923,Simcolourproject_2stim_asymm_v5,2020.2.10,Win32,60,61025ae37ef11b136ea224fe,,,,,,,,,548,-91,48,1,0,0,response7disk,,1,-19,8,1,0,0,rectangle,-19,8,1,0,0,-19,8,1,0,0,0,13,13,132,1,,,,,,,,
,,,,,,,,,,,,,FF,,,,,,,,1.3665,,,,,,,,,,,,,,,,,,,,,,60ff41d719643e679302c2ec,61036e39f428419531f2ed93,2021-07-29_20h17.42.923,Simcolourproject_2stim_asymm_v5,2020.2.10,Win32,60,61025ae37ef11b136ea224fe,,,,,,,,,534,-50,-129,1,0,0,response5disk,,3,8,7,1,0,0,rectangle,8,7,1,0,0,8,7,1,0,0,0,14,14,85,1,,,,,,,,
,,,,,,,,,,,,,FF,,,,,,,,3.4161,,,,,,,,,,,,,,,,,,,,,,60ff41d719643e679302c2ec,61036e39f428419531f2ed93,2021-07-29_20h17.42.923,Simcolourproject_2stim_asymm_v5,2020.2.10,Win32,60,61025ae37ef11b136ea224fe,,,,,,,,,1970,57,-115,1,0,0,response3disk,,4,-6,16,1,0,0,rectangle,-6,16,1,0,0,-6,16,1,0,0,0,15,15,92,1,,,,,,,,
,,,,,,,,,,,,,FF,,,,,,,,2.8335,,,,,,,,,,,,,,,,,,,,,,60ff41d719643e679302c2ec,61036e39f428419531f2ed93,2021-07-29_20h17.42.923,Simcolourproject_2stim_asymm_v5,2020.2.10,Win32,60,61025ae37ef11b136ea224fe,,,,,,,,,3479,-44,-115,1,0,0,response5disk,,3,-4,-10,1,0,0,rectangle,-4,-10,1,0,0,-4,-10,1,0,0,0,16,16,64,1,,,,,,,,
,,,,,,,,,,,,,FF,,,,,,,,0.9831,,,,,,,,,,,,,,,,,,,,,,60ff41d719643e679302c2ec,61036e39f428419531f2ed93,2021-07-29_20h17.42.923,Simcolourproject_2stim_asymm_v5,2020.2.10,Win32,60,61025ae37ef11b136ea224fe,,,,,,,,,3927,93,61,1,0,0,response1disk,,6,-1,10,1,0,0,rectangle,-1,10,1,0,0,-1,10,1,0,0,0,17,17,16,1,,,,,,,,
,,,,,,,,,,,,,FF,,,,,,,,2.0497,,,,,,,,,,,,,,,,,,,,,,60ff41d719643e679302c2ec,61036e39f428419531f2ed93,2021-07-29_20h17.42.923,Simcolourproject_2stim_asymm_v5,2020.2.10,Win32,60,61025ae37ef11b136ea224fe,,,,,,,,,3739,101,-54,1,0,0,response3disk,,5,3,-1,1,0,0,rectangle,3,-1,1,0,0,3,-1,1,0,0,0,18,18,43,1,,,,,,,,
,,,,,,,,,,,,,FF,,,,,,,,1.0164,,,,,,,,,,,,,,,,,,,,,,60ff41d719643e679302c2ec,61036e39f428419531f2ed93,2021-07-29_20h17.42.923,Simcolourproject_2stim_asymm_v5,2020.2.10,Win32,60,61025ae37ef11b136ea224fe,,,,,,,,,140,56,88,1,0,0,response1disk,,7,17,0,1,0,0,rectangle,17,0,1,0,0,17,0,1,0,0,0,19,19,54,1,,,,,,,,
,,,,,,,,,,,,,FF,,,,,,,,3.4496,,,,,,,,,,,,,,,,,,,,,,60ff41d719643e679302c2ec,61036e39f428419531f2ed93,2021-07-29_20h17.42.923,Simcolourproject_2stim_asymm_v5,2020.2.10,Win32,60,61025ae37ef11b136ea224fe,,,,,,,,,1924,114,45,1,0,0,response1disk,,6,-6,-5,1,0,0,rectangle,-6,-5,1,0,0,-6,-5,1,0,0,0,20,20,88,1,,,,,,,,
,,,,,,,,,,,,,FF,,,,,,,,4.0993,,,,,,,,,,,,,,,,,,,,,,60ff41d719643e679302c2ec,61036e39f428419531f2ed93,2021-07-29_20h17.42.923,Simcolourproject_2stim_asymm_v5,2020.2.10,Win32,60,61025ae37ef11b136ea224fe,,,,,,,,,2911,120,45,1,0,0,response1disk,,6,15,14,1,0,0,rectangle,15,14,1,0,0,15,14,1,0,0,0,21,21,5,1,,,,,,,,
,,,,,,,,,,,,,FF,,,,,,,,1.3664,,,,,,,,,,,,,,,,,,,,,,60ff41d719643e679302c2ec,61036e39f428419531f2ed93,2021-07-29_20h17.42.923,Simcolourproject_2stim_asymm_v5,2020.2.10,Win32,60,61025ae37ef11b136ea224fe,,,,,,,,,4290,106,43,1,0,0,response1disk,,6,-35,-5,1,0,0,rectangle,-35,-5,1,0,0,-35,-5,1,0,0,0,22,22,44,1,,,,,,,,
,,,,,,,,,,,,,FF,,,,,,,,8.665,,,,,,,,,,,,,,,,,,,,,,60ff41d719643e679302c2ec,61036e39f428419531f2ed93,2021-07-29_20h17.42.923,Simcolourproject_2stim_asymm_v5,2020.2.10,Win32,60,61025ae37ef11b136ea224fe,,,,,,,,,529,-67,-118,1,0,0,response5disk,,3,10,0,1,0,0,rectangle,10,0,1,0,0,10,0,1,0,0,0,23,23,93,1,,,,,,,,
,,,,,,,,,,,,,FF,,,,,,,,3.1995,,,,,,,,,,,,,,,,,,,,,,60ff41d719643e679302c2ec,61036e39f428419531f2ed93,2021-07-29_20h17.42.923,Simcolourproject_2stim_asymm_v5,2020.2.10,Win32,60,61025ae37ef11b136ea224fe,,,,,,,,,938,127,51,1,0,0,response1disk,,6,12,9,1,0,0,rectangle,12,9,1,0,0,12,9,1,0,0,0,24,24,77,1,,,,,,,,
,,,,,,,,,,,,,FF,,,,,,,,2.5831,,,,,,,,,,,,,,,,,,,,,,60ff41d719643e679302c2ec,61036e39f428419531f2ed93,2021-07-29_20h17.42.923,Simcolourproject_2stim_asymm_v5,2020.2.10,Win32,60,61025ae37ef11b136ea224fe,,,,,,,,,844,142,-37,1,0,0,response3disk,,5,5,-5,1,0,0,rectangle,5,-5,1,0,0,5,-5,1,0,0,0,25,25,79,1,,,,,,,,
,,,,,,,,,,,,,FF,,,,,,,,1.9163,,,,,,,,,,,,,,,,,,,,,,60ff41d719643e679302c2ec,61036e39f428419531f2ed93,2021-07-29_20h17.42.923,Simcolourproject_2stim_asymm_v5,2020.2.10,Win32,60,61025ae37ef11b136ea224fe,,,,,,,,,683,158,-32,1,0,0,response3disk,,5,11,-9,1,0,0,rectangle,11,-9,1,0,0,11,-9,1,0,0,0,26,26,71,1,,,,,,,,
,,,,,,,,,,,,,FF,,,,,,,,1.9665,,,,,,,,,,,,,,,,,,,,,,60ff41d719643e679302c2ec,61036e39f428419531f2ed93,2021-07-29_20h17.42.923,Simcolourproject_2stim_asymm_v5,2020.2.10,Win32,60,61025ae37ef11b136ea224fe,,,,,,,,,3087,49,-103,1,0,0,response3disk,,4,5,-1,1,0,0,rectangle,5,-1,1,0,0,5,-1,1,0,0,0,27,27,62,1,,,,,,,,
,,,,,,,,,,,,,FF,,,,,,,,0.9498,,,,,,,,,,,,,,,,,,,,,,60ff41d719643e679302c2ec,61036e39f428419531f2ed93,2021-07-29_20h17.42.923,Simcolourproject_2stim_asymm_v5,2020.2.10,Win32,60,61025ae37ef11b136ea224fe,,,,,,,,,2262,94,44,1,0,0,response1disk,,6,4,4,1,0,0,rectangle,4,4,1,0,0,4,4,1,0,0,0,28,28,96,1,,,,,,,,
,,,,,,,,,,,,,FF,,,,,,,,2.1665,,,,,,,,,,,,,,,,,,,,,,60ff41d719643e679302c2ec,61036e39f428419531f2ed93,2021-07-29_20h17.42.923,Simcolourproject_2stim_asymm_v5,2020.2.10,Win32,60,61025ae37ef11b136ea224fe,,,,,,,,,434,-107,-74,1,0,0,response5disk,,2,3,1,1,0,0,rectangle,3,1,1,0,0,3,1,1,0,0,0,29,29,58,1,,,,,,,,
,,,,,,,,,,,,,FF,,,,,,,,3.9662,,,,,,,,,,,,,,,,,,,,,,60ff41d719643e679302c2ec,61036e39f428419531f2ed93,2021-07-29_20h17.42.923,Simcolourproject_2stim_asymm_v5,2020.2.10,Win32,60,61025ae37ef11b136ea224fe,,,,,,,,,799,134,-40,1,0,0,response3disk,,5,17,11,1,0,0,rectangle,17,11,1,0,0,17,11,1,0,0,0,30,30,22,1,,,,,,,,
,,,,,,,,,,,,,FF,,,,,,,,1.2331,,,,,,,,,,,,,,,,,,,,,,60ff41d719643e679302c2ec,61036e39f428419531f2ed93,2021-07-29_20h17.42.923,Simcolourproject_2stim_asymm_v5,2020.2.10,Win32,60,61025ae37ef11b136ea224fe,,,,,,,,,1062,-117,-44,1,0,0,response5disk,,2,-24,-3,1,0,0,rectangle,-24,-3,1,0,0,-24,-3,1,0,0,0,31,31,7,1,,,,,,,,
,,,,,,,,,,,,,FF,,,,,,,,2.5165,,,,,,,,,,,,,,,,,,,,,,60ff41d719643e679302c2ec,61036e39f428419531f2ed93,2021-07-29_20h17.42.923,Simcolourproject_2stim_asymm_v5,2020.2.10,Win32,60,61025ae37ef11b136ea224fe,,,,,,,,,2103,-57,-118,1,0,0,response5disk,,3,-3,-12,1,0,0,rectangle,-3,-12,1,0,0,-3,-12,1,0,0,0,32,32,52,1,,,,,,,,
,,,,,,,,,,,,,FF,,,,,,,,1.1647,,,,,,,,,,,,,,,,,,,,,,60ff41d719643e679302c2ec,61036e39f428419531f2ed93,2021-07-29_20h17.42.923,Simcolourproject_2stim_asymm_v5,2020.2.10,Win32,60,61025ae37ef11b136ea224fe,,,,,,,,,1832,-51,-126,1,0,0,response5disk,,3,28,21,1,0,0,rectangle,28,21,1,0,0,28,21,1,0,0,0,33,33,74,1,,,,,,,,
,,,,,,,,,,,,,FF,,,,,,,,2.8866,,,,,,,,,,,,,,,,,,,,,,60ff41d719643e679302c2ec,61036e39f428419531f2ed93,2021-07-29_20h17.42.923,Simcolourproject_2stim_asymm_v5,2020.2.10,Win32,60,61025ae37ef11b136ea224fe,,,,,,,,,2650,103,-64,1,0,0,response3disk,,5,-4,-10,1,0,0,rectangle,-4,-10,1,0,0,-4,-10,1,0,0,0,34,34,51,1,,,,,,,,
,,,,,,,,,,,,,FF,,,,,,,,6.5177,,,,,,,,,,,,,,,,,,,,,,60ff41d719643e679302c2ec,61036e39f428419531f2ed93,2021-07-29_20h17.42.923,Simcolourproject_2stim_asymm_v5,2020.2.10,Win32,60,61025ae37ef11b136ea224fe,,,,,,,,,392,110,-52,1,0,0,response3disk,,5,34,-2,1,0,0,rectangle,34,-2,1,0,0,34,-2,1,0,0,0,35,35,23,1,,,,,,,,
,,,,,,,,,,,,,FF,,,,,,,,1.05,,,,,,,,,,,,,,,,,,,,,,60ff41d719643e679302c2ec,61036e39f428419531f2ed93,2021-07-29_20h17.42.923,Simcolourproject_2stim_asymm_v5,2020.2.10,Win32,60,61025ae37ef11b136ea224fe,,,,,,,,,3058,-50,-130,1,0,0,response5disk,,3,6,-5,1,0,0,rectangle,6,-5,1,0,0,6,-5,1,0,0,0,36,36,72,1,,,,,,,,
,,,,,,,,,,,,,FF,,,,,,,,1.25,,,,,,,,,,,,,,,,,,,,,,60ff41d719643e679302c2ec,61036e39f428419531f2ed93,2021-07-29_20h17.42.923,Simcolourproject_2stim_asymm_v5,2020.2.10,Win32,60,61025ae37ef11b136ea224fe,,,,,,,,,1927,76,101,1,0,0,response1disk,,7,31,14,1,0,0,rectangle,31,14,1,0,0,31,14,1,0,0,0,37,37,26,1,,,,,,,,
,,,,,,,,,,,,,FF,,,,,,,,2.483,,,,,,,,,,,,,,,,,,,,,,60ff41d719643e679302c2ec,61036e39f428419531f2ed93,2021-07-29_20h17.42.923,Simcolourproject_2stim_asymm_v5,2020.2.10,Win32,60,61025ae37ef11b136ea224fe,,,,,,,,,3450,-73,-85,1,0,0,response5disk,,3,10,-2,1,0,0,rectangle,10,-2,1,0,0,10,-2,1,0,0,0,38,38,153,1,,,,,,,,
,,,,,,,,,,,,,FF,,,,,,,,3.266,,,,,,,,,,,,,,,,,,,,,,60ff41d719643e679302c2ec,61036e39f428419531f2ed93,2021-07-29_20h17.42.923,Simcolourproject_2stim_asymm_v5,2020.2.10,Win32,60,61025ae37ef11b136ea224fe,,,,,,,,,1292,137,53,1,0,0,response1disk,,6,-11,-4,1,0,0,rectangle,-11,-4,1,0,0,-11,-4,1,0,0,0,39,39,113,1,,,,,,,,
,,,,,,,,,,,,,FF,,,,,,,,10.0147,,,,,,,,,,,,,,,,,,,,,,60ff41d719643e679302c2ec,61036e39f428419531f2ed93,2021-07-29_20h17.42.923,Simcolourproject_2stim_asymm_v5,2020.2.10,Win32,60,61025ae37ef11b136ea224fe,,,,,,,,,483,106,-91,1,0,0,response3disk,,5,-14,-2,1,0,0,rectangle,-14,-2,1,0,0,-14,-2,1,0,0,0,40,40,105,1,,,,,,,,
,,,,,,,,,,,,,FF,,,,,,,,3.7493,,,,,,,,,,,,,,,,,,,,,,60ff41d719643e679302c2ec,61036e39f428419531f2ed93,2021-07-29_20h17.42.923,Simcolourproject_2stim_asymm_v5,2020.2.10,Win32,60,61025ae37ef11b136ea224fe,,,,,,,,,1027,116,-67,1,0,0,response3disk,,5,10,-6,1,0,0,rectangle,10,-6,1,0,0,10,-6,1,0,0,0,41,41,109,1,,,,,,,,
,,,,,,,,,,,,,FF,,,,,,,,2.0163,,,,,,,,,,,,,,,,,,,,,,60ff41d719643e679302c2ec,61036e39f428419531f2ed93,2021-07-29_20h17.42.923,Simcolourproject_2stim_asymm_v5,2020.2.10,Win32,60,61025ae37ef11b136ea224fe,,,,,,,,,1272,130,-65,1,0,0,response3disk,,5,-6,-6,1,0,0,rectangle,-6,-6,1,0,0,-6,-6,1,0,0,0,42,42,124,1,,,,,,,,
,,,,,,,,,,,,,FF,,,,,,,,0.8832,,,,,,,,,,,,,,,,,,,,,,60ff41d719643e679302c2ec,61036e39f428419531f2ed93,2021-07-29_20h17.42.923,Simcolourproject_2stim_asymm_v5,2020.2.10,Win32,60,61025ae37ef11b136ea224fe,,,,,,,,,3392,-125,52,1,0,0,response7disk,,1,-2,-16,1,0,0,rectangle,-122,72,1,0,0,-15,0,1,0,0,0,43,43,122,1,,response7disk_3,TRUE,1,1,"[123,293,142,75,235,86,153,308,244,78,61,167,253,44,144,188,170,129,163,291]",1.6511,rectangle
,,,,,,,,,,,,,FF,,,,,,,,6.049,,,,,,,,,,,,,,,,,,,,,,60ff41d719643e679302c2ec,61036e39f428419531f2ed93,2021-07-29_20h17.42.923,Simcolourproject_2stim_asymm_v5,2020.2.10,Win32,60,61025ae37ef11b136ea224fe,,,,,,,,,2324,141,-77,1,0,0,response3disk,,5,15,10,1,0,0,rectangle,15,10,1,0,0,15,10,1,0,0,0,44,44,66,1,,,,,,,,
,,,,,,,,,,,,,FF,,,,,,,,0.8164,,,,,,,,,,,,,,,,,,,,,,60ff41d719643e679302c2ec,61036e39f428419531f2ed93,2021-07-29_20h17.42.923,Simcolourproject_2stim_asymm_v5,2020.2.10,Win32,60,61025ae37ef11b136ea224fe,,,,,,,,,1596,-65,130,1,0,0,response7disk,,0,14,5,1,0,0,rectangle,14,5,1,0,0,14,5,1,0,0,0,45,45,40,1,,,,,,,,
,,,,,,,,,,,,,FF,,,,,,,,2.6329,,,,,,,,,,,,,,,,,,,,,,60ff41d719643e679302c2ec,61036e39f428419531f2ed93,2021-07-29_20h17.42.923,Simcolourproject_2stim_asymm_v5,2020.2.10,Win32,60,61025ae37ef11b136ea224fe,,,,,,,,,788,93,-104,1,0,0,response3disk,,4,39,-5,1,0,0,rectangle,39,-5,1,0,0,39,-5,1,0,0,0,46,46,57,1,,,,,,,,
,,,,,,,,,,,,,FF,,,,,,,,7.3988,,,,,,,,,,,,,,,,,,,,,,60ff41d719643e679302c2ec,61036e39f428419531f2ed93,2021-07-29_20h17.42.923,Simcolourproject_2stim_asymm_v5,2020.2.10,Win32,60,61025ae37ef11b136ea224fe,,,,,,,,,3302,138,-60,1,0,0,response3disk,,5,-1,2,1,0,0,rectangle,-1,2,1,0,0,-1,2,1,0,0,0,47,47,144,1,,,,,,,,
,,,,,,,,,,,,,FF,,,,,,,,0.9998,,,,,,,,,,,,,,,,,,,,,,60ff41d719643e679302c2ec,61036e39f428419531f2ed93,2021-07-29_20h17.42.923,Simcolourproject_2stim_asymm_v5,2020.2.10,Win32,60,61025ae37ef11b136ea224fe,,,,,,,,,460,-108,-39,1,0,0,response5disk,,2,14,7,1,0,0,rectangle,14,7,1,0,0,14,7,1,0,0,0,48,48,21,1,,,,,,,,
,,,,,,,,,,,,,FF,,,,,,,,1.0832,,,,,,,,,,,,,,,,,,,,,,60ff41d719643e679302c2ec,61036e39f428419531f2ed93,2021-07-29_20h17.42.923,Simcolourproject_2stim_asymm_v5,2020.2.10,Win32,60,61025ae37ef11b136ea224fe,,,,,,,,,579,114,49,1,0,0,response1disk,,6,12,-11,1,0,0,rectangle,12,-11,1,0,0,12,-11,1,0,0,0,49,49,108,1,,,,,,,,
,,,,,,,,,,,,,FF,,,,,,,,6.6489,,,,,,,,,,,,,,,,,,,,,,60ff41d719643e679302c2ec,61036e39f428419531f2ed93,2021-07-29_20h17.42.923,Simcolourproject_2stim_asymm_v5,2020.2.10,Win32,60,61025ae37ef11b136ea224fe,,,,,,,,,237,67,-123,1,0,0,response3disk,,4,-4,9,1,0,0,rectangle,-4,9,1,0,0,-4,9,1,0,0,0,50,50,31,1,,,,,,,,
,,,,,,,,,,,,,FF,,,,,,,,2.2832,,,,,,,,,,,,,,,,,,,,,,60ff41d719643e679302c2ec,61036e39f428419531f2ed93,2021-07-29_20h17.42.923,Simcolourproject_2stim_asymm_v5,2020.2.10,Win32,60,61025ae37ef11b136ea224fe,,,,,,,,,2770,-67,-143,1,0,0,response5disk,,3,0,17,1,0,0,rectangle,0,17,1,0,0,0,17,1,0,0,0,51,51,33,1,,,,,,,,
,,,,,,,,,,,,,FF,,,,,,,,1.4166,,,,,,,,,,,,,,,,,,,,,,60ff41d719643e679302c2ec,61036e39f428419531f2ed93,2021-07-29_20h17.42.923,Simcolourproject_2stim_asymm_v5,2020.2.10,Win32,60,61025ae37ef11b136ea224fe,,,,,,,,,2035,-64,-131,1,0,0,response5disk,,3,2,-5,1,0,0,rectangle,2,-5,1,0,0,2,-5,1,0,0,0,52,52,131,1,,,,,,,,
,,,,,,,,,,,,,FF,,,,,,,,1.4993,,,,,,,,,,,,,,,,,,,,,,60ff41d719643e679302c2ec,61036e39f428419531f2ed93,2021-07-29_20h17.42.923,Simcolourproject_2stim_asymm_v5,2020.2.10,Win32,60,61025ae37ef11b136ea224fe,,,,,,,,,2628,132,55,1,0,0,response1disk,,6,13,14,1,0,0,rectangle,13,14,1,0,0,13,14,1,0,0,0,53,53,104,1,,,,,,,,
,,,,,,,,,,,,,FF,,,,,,,,1.0671,,,,,,,,,,,,,,,,,,,,,,60ff41d719643e679302c2ec,61036e39f428419531f2ed93,2021-07-29_20h17.42.923,Simcolourproject_2stim_asymm_v5,2020.2.10,Win32,60,61025ae37ef11b136ea224fe,,,,,,,,,3820,-49,-122,1,0,0,response5disk,,3,7,-9,1,0,0,rectangle,7,-9,1,0,0,7,-9,1,0,0,0,54,54,121,1,,,,,,,,
,,,,,,,,,,,,,FF,,,,,,,,2.0829,,,,,,,,,,,,,,,,,,,,,,60ff41d719643e679302c2ec,61036e39f428419531f2ed93,2021-07-29_20h17.42.923,Simcolourproject_2stim_asymm_v5,2020.2.10,Win32,60,61025ae37ef11b136ea224fe,,,,,,,,,4265,137,-64,1,0,0,response3disk,,5,2,-4,1,0,0,rectangle,2,-4,1,0,0,2,-4,1,0,0,0,55,55,61,1,,,,,,,,
,,,,,,,,,,,,,FF,,,,,,,,1.2662,,,,,,,,,,,,,,,,,,,,,,60ff41d719643e679302c2ec,61036e39f428419531f2ed93,2021-07-29_20h17.42.923,Simcolourproject_2stim_asymm_v5,2020.2.10,Win32,60,61025ae37ef11b136ea224fe,,,,,,,,,23,107,-56,1,0,0,response3disk,,5,26,-1,1,0,0,rectangle,26,-1,1,0,0,26,-1,1,0,0,0,56,56,82,1,,,,,,,,
,,,,,,,,,,,,,FF,,,,,,,,1.2165,,,,,,,,,,,,,,,,,,,,,,60ff41d719643e679302c2ec,61036e39f428419531f2ed93,2021-07-29_20h17.42.923,Simcolourproject_2stim_asymm_v5,2020.2.10,Win32,60,61025ae37ef11b136ea224fe,,,,,,,,,594,124,-62,1,0,0,response3disk,,5,19,-12,1,0,0,rectangle,19,-12,1,0,0,19,-12,1,0,0,0,57,57,8,1,,,,,,,,
,,,,,,,,,,,,,FF,,,,,,,,1.3167,,,,,,,,,,,,,,,,,,,,,,60ff41d719643e679302c2ec,61036e39f428419531f2ed93,2021-07-29_20h17.42.923,Simcolourproject_2stim_asymm_v5,2020.2.10,Win32,60,61025ae37ef11b136ea224fe,,,,,,,,,3642,113,-52,1,0,0,response3disk,,5,5,-1,1,0,0,rectangle,5,-1,1,0,0,5,-1,1,0,0,0,58,58,151,1,,,,,,,,
,,,,,,,,,,,,,FF,,,,,,,,1.3333,,,,,,,,,,,,,,,,,,,,,,60ff41d719643e679302c2ec,61036e39f428419531f2ed93,2021-07-29_20h17.42.923,Simcolourproject_2stim_asymm_v5,2020.2.10,Win32,60,61025ae37ef11b136ea224fe,,,,,,,,,2307,-70,-128,1,0,0,response5disk,,3,-12,15,1,0,0,rectangle,-12,15,1,0,0,-12,15,1,0,0,0,59,59,102,1,,,,,,,,
,,,,,,,,,,,,,FF,,,,,,,,3.3161,,,,,,,,,,,,,,,,,,,,,,60ff41d719643e679302c2ec,61036e39f428419531f2ed93,2021-07-29_20h17.42.923,Simcolourproject_2stim_asymm_v5,2020.2.10,Win32,60,61025ae37ef11b136ea224fe,,,,,,,,,2078,55,-144,1,0,0,response3disk,,4,0,-5,1,0,0,rectangle,135,60,1,0,0,-5,-9,1,0,0,0,60,60,28,1,,response1disk_3,TRUE,6,6,"[123,293,142,75,235,86,153,308,244,78,61,167,253,44,144,188,170,129,163,291]",2.4826,rectangle
,,,,,,,,,,,,,FF,,,,,,,,1.433,,,,,,,,,,,,,,,,,,,,,,60ff41d719643e679302c2ec,61036e39f428419531f2ed93,2021-07-29_20h17.42.923,Simcolourproject_2stim_asymm_v5,2020.2.10,Win32,60,61025ae37ef11b136ea224fe,,,,,,,,,477,-137,-51,1,0,0,response5disk,,2,-13,-14,1,0,0,rectangle,-13,-14,1,0,0,-13,-14,1,0,0,0,61,61,86,1,,,,,,,,
,,,,,,,,,,,,,FF,,,,,,,,1.2499,,,,,,,,,,,,,,,,,,,,,,60ff41d719643e679302c2ec,61036e39f428419531f2ed93,2021-07-29_20h17.42.923,Simcolourproject_2stim_asymm_v5,2020.2.10,Win32,60,61025ae37ef11b136ea224fe,,,,,,,,,973,-122,24,1,0,0,response7disk,,1,-20,-5,1,0,0,rectangle,-20,-5,1,0,0,-20,-5,1,0,0,0,62,62,99,1,,,,,,,,
,,,,,,,,,,,,,FF,,,,,,,,2.4994,,,,,,,,,,,,,,,,,,,,,,60ff41d719643e679302c2ec,61036e39f428419531f2ed93,2021-07-29_20h17.42.923,Simcolourproject_2stim_asymm_v5,2020.2.10,Win32,60,61025ae37ef11b136ea224fe,,,,,,,,,1655,117,-57,1,0,0,response3disk,,5,14,0,1,0,0,rectangle,14,0,1,0,0,14,0,1,0,0,0,63,63,55,1,,,,,,,,
,,,,,,,,,,,,,FF,,,,,,,,2.1664,,,,,,,,,,,,,,,,,,,,,,60ff41d719643e679302c2ec,61036e39f428419531f2ed93,2021-07-29_20h17.42.923,Simcolourproject_2stim_asymm_v5,2020.2.10,Win32,60,61025ae37ef11b136ea224fe,,,,,,,,,2302,-55,-132,1,0,0,response5disk,,3,-13,-14,1,0,0,rectangle,-13,-14,1,0,0,-13,-14,1,0,0,0,64,64,53,1,,,,,,,,
,,,,,,,,,,,,,FF,,,,,,,,1.2501,,,,,,,,,,,,,,,,,,,,,,60ff41d719643e679302c2ec,61036e39f428419531f2ed93,2021-07-29_20h17.42.923,Simcolourproject_2stim_asymm_v5,2020.2.10,Win32,60,61025ae37ef11b136ea224fe,,,,,,,,,1648,52,108,1,0,0,response1disk,,7,8,-15,1,0,0,rectangle,8,-15,1,0,0,8,-15,1,0,0,0,65,65,158,1,,,,,,,,
,,,,,,,,,,,,,FF,,,,,,,,1.8662,,,,,,,,,,,,,,,,,,,,,,60ff41d719643e679302c2ec,61036e39f428419531f2ed93,2021-07-29_20h17.42.923,Simcolourproject_2stim_asymm_v5,2020.2.10,Win32,60,61025ae37ef11b136ea224fe,,,,,,,,,3665,-115,-49,1,0,0,response5disk,,2,-17,-10,1,0,0,rectangle,-17,-10,1,0,0,-17,-10,1,0,0,0,66,66,148,1,,,,,,,,
,,,,,,,,,,,,,FF,,,,,,,,1.45,,,,,,,,,,,,,,,,,,,,,,60ff41d719643e679302c2ec,61036e39f428419531f2ed93,2021-07-29_20h17.42.923,Simcolourproject_2stim_asymm_v5,2020.2.10,Win32,60,61025ae37ef11b136ea224fe,,,,,,,,,1514,-45,-138,1,0,0,response5disk,,3,16,-1,1,0,0,rectangle,16,-1,1,0,0,16,-1,1,0,0,0,67,67,159,1,,,,,,,,
,,,,,,,,,,,,,FF,,,,,,,,1.5995,,,,,,,,,,,,,,,,,,,,,,60ff41d719643e679302c2ec,61036e39f428419531f2ed93,2021-07-29_20h17.42.923,Simcolourproject_2stim_asymm_v5,2020.2.10,Win32,60,61025ae37ef11b136ea224fe,,,,,,,,,4358,-106,54,1,0,0,response7disk,,1,-13,7,1,0,0,rectangle,-13,7,1,0,0,-13,7,1,0,0,0,68,68,59,1,,,,,,,,
,,,,,,,,,,,,,FF,,,,,,,,4.5658,,,,,,,,,,,,,,,,,,,,,,60ff41d719643e679302c2ec,61036e39f428419531f2ed93,2021-07-29_20h17.42.923,Simcolourproject_2stim_asymm_v5,2020.2.10,Win32,60,61025ae37ef11b136ea224fe,,,,,,,,,4042,-44,-133,1,0,0,response5disk,,3,2,-11,1,0,0,rectangle,2,-11,1,0,0,2,-11,1,0,0,0,69,69,3,1,,,,,,,,
,,,,,,,,,,,,,FF,,,,,,,,0.9668,,,,,,,,,,,,,,,,,,,,,,60ff41d719643e679302c2ec,61036e39f428419531f2ed93,2021-07-29_20h17.42.923,Simcolourproject_2stim_asymm_v5,2020.2.10,Win32,60,61025ae37ef11b136ea224fe,,,,,,,,,3908,-111,50,1,0,0,response7disk,,1,10,-3,1,0,0,rectangle,10,-3,1,0,0,10,-3,1,0,0,0,70,70,75,1,,,,,,,,
,,,,,,,,,,,,,FF,,,,,,,,0.8333,,,,,,,,,,,,,,,,,,,,,,60ff41d719643e679302c2ec,61036e39f428419531f2ed93,2021-07-29_20h17.42.923,Simcolourproject_2stim_asymm_v5,2020.2.10,Win32,60,61025ae37ef11b136ea224fe,,,,,,,,,2166,-102,61,1,0,0,response7disk,,1,14,4,1,0,0,rectangle,14,4,1,0,0,14,4,1,0,0,0,71,71,133,1,,,,,,,,
,,,,,,,,,,,,,FF,,,,,,,,0.9332,,,,,,,,,,,,,,,,,,,,,,60ff41d719643e679302c2ec,61036e39f428419531f2ed93,2021-07-29_20h17.42.923,Simcolourproject_2stim_asymm_v5,2020.2.10,Win32,60,61025ae37ef11b136ea224fe,,,,,,,,,3054,-101,44,1,0,0,response7disk,,1,2,-4,1,0,0,rectangle,2,-4,1,0,0,2,-4,1,0,0,0,72,72,95,1,,,,,,,,
,,,,,,,,,,,,,FF,,,,,,,,0.9998,,,,,,,,,,,,,,,,,,,,,,60ff41d719643e679302c2ec,61036e39f428419531f2ed93,2021-07-29_20h17.42.923,Simcolourproject_2stim_asymm_v5,2020.2.10,Win32,60,61025ae37ef11b136ea224fe,,,,,,,,,2737,-133,-49,1,0,0,response5disk,,2,-7,1,1,0,0,rectangle,-7,1,1,0,0,-7,1,1,0,0,0,73,73,81,1,,,,,,,,
,,,,,,,,,,,,,FF,,,,,,,,2.5332,,,,,,,,,,,,,,,,,,,,,,60ff41d719643e679302c2ec,61036e39f428419531f2ed93,2021-07-29_20h17.42.923,Simcolourproject_2stim_asymm_v5,2020.2.10,Win32,60,61025ae37ef11b136ea224fe,,,,,,,,,4301,63,-138,1,0,0,response3disk,,4,-12,-15,1,0,0,rectangle,-113,55,1,0,0,-2,-18,1,0,0,0,74,74,146,1,,response7disk_3,TRUE,1,1,"[123,293,142,75,235,86,153,308,244,78,61,167,253,44,144,188,170,129,163,291]",2.2353,rectangle
,,,,,,,,,,,,,FF,,,,,,,,3.2995,,,,,,,,,,,,,,,,,,,,,,60ff41d719643e679302c2ec,61036e39f428419531f2ed93,2021-07-29_20h17.42.923,Simcolourproject_2stim_asymm_v5,2020.2.10,Win32,60,61025ae37ef11b136ea224fe,,,,,,,,,721,-134,58,1,0,0,response7disk,,1,18,-12,1,0,0,rectangle,18,-12,1,0,0,18,-12,1,0,0,0,75,75,10,1,,,,,,,,
,,,,,,,,,,,,,FF,,,,,,,,1.6003,,,,,,,,,,,,,,,,,,,,,,60ff41d719643e679302c2ec,61036e39f428419531f2ed93,2021-07-29_20h17.42.923,Simcolourproject_2stim_asymm_v5,2020.2.10,Win32,60,61025ae37ef11b136ea224fe,,,,,,,,,3217,54,-130,1,0,0,response3disk,,4,-10,14,1,0,0,rectangle,-10,14,1,0,0,-10,14,1,0,0,0,76,76,4,1,,,,,,,,
,,,,,,,,,,,,,FF,,,,,,,,1.6997,,,,,,,,,,,,,,,,,,,,,,60ff41d719643e679302c2ec,61036e39f428419531f2ed93,2021-07-29_20h17.42.923,Simcolourproject_2stim_asymm_v5,2020.2.10,Win32,60,61025ae37ef11b136ea224fe,,,,,,,,,2845,46,-136,1,0,0,response3disk,,4,4,12,1,0,0,rectangle,-123,-53,1,0,0,-29,-1,1,0,0,0,77,77,67,1,,response5disk_3,TRUE,2,2,"[123,293,142,75,235,86,153,308,244,78,61,167,253,44,144,188,170,129,163,291]",2.6657,rectangle
,,,,,,,,,,,,,FF,,,,,,,,3.8163,,,,,,,,,,,,,,,,,,,,,,60ff41d719643e679302c2ec,61036e39f428419531f2ed93,2021-07-29_20h17.42.923,Simcolourproject_2stim_asymm_v5,2020.2.10,Win32,60,61025ae37ef11b136ea224fe,,,,,,,,,1311,-129,-68,1,0,0,response5disk,,2,14,-10,1,0,0,rectangle,14,-10,1,0,0,14,-10,1,0,0,0,78,78,91,1,,,,,,,,
,,,,,,,,,,,,,FF,,,,,,,,1.0331,,,,,,,,,,,,,,,,,,,,,,60ff41d719643e679302c2ec,61036e39f428419531f2ed93,2021-07-29_20h17.42.923,Simcolourproject_2stim_asymm_v5,2020.2.10,Win32,60,61025ae37ef11b136ea224fe,,,,,,,,,3673,-120,55,1,0,0,response7disk,,1,-11,-10,1,0,0,rectangle,-11,-10,1,0,0,-11,-10,1,0,0,0,79,79,37,1,,,,,,,,
,,,,,,,,,,,,,FF,,,,,,,,1.1665,,,,,,,,,,,,,,,,,,,,,,60ff41d719643e679302c2ec,61036e39f428419531f2ed93,2021-07-29_20h17.42.923,Simcolourproject_2stim_asymm_v5,2020.2.10,Win32,60,61025ae37ef11b136ea224fe,,,,,,,,,205,-134,-52,1,0,0,response5disk,,2,-12,5,1,0,0,rectangle,-12,5,1,0,0,-12,5,1,0,0,0,80,80,112,1,,,,,,,,
,,,,,,,,,,,,,FF,,,,,,,,5.7824,,,,,,,,,,,,,,,,,,,,,,60ff41d719643e679302c2ec,61036e39f428419531f2ed93,2021-07-29_20h17.42.923,Simcolourproject_2stim_asymm_v5,2020.2.10,Win32,60,61025ae37ef11b136ea224fe,,,,,,,,,2167,69,-129,1,0,0,response3disk,,4,1,-1,1,0,0,rectangle,1,-1,1,0,0,1,-1,1,0,0,0,81,81,46,1,,,,,,,,
,,,,,,,,,,,,,FF,,,,,,,,4.0661,,,,,,,,,,,,,,,,,,,,,,60ff41d719643e679302c2ec,61036e39f428419531f2ed93,2021-07-29_20h17.42.923,Simcolourproject_2stim_asymm_v5,2020.2.10,Win32,60,61025ae37ef11b136ea224fe,,,,,,,,,1661,-117,-59,1,0,0,response5disk,,2,-20,1,1,0,0,rectangle,-20,1,1,0,0,-20,1,1,0,0,0,82,82,47,1,,,,,,,,
,,,,,,,,,,,,,FF,,,,,,,,2.2162,,,,,,,,,,,,,,,,,,,,,,60ff41d719643e679302c2ec,61036e39f428419531f2ed93,2021-07-29_20h17.42.923,Simcolourproject_2stim_asymm_v5,2020.2.10,Win32,60,61025ae37ef11b136ea224fe,,,,,,,,,4196,52,-142,1,0,0,response3disk,,4,2,2,1,0,0,rectangle,2,2,1,0,0,2,2,1,0,0,0,83,83,111,1,,,,,,,,
,,,,,,,,,,,,,FF,,,,,,,,2.3661,,,,,,,,,,,,,,,,,,,,,,60ff41d719643e679302c2ec,61036e39f428419531f2ed93,2021-07-29_20h17.42.923,Simcolourproject_2stim_asymm_v5,2020.2.10,Win32,60,61025ae37ef11b136ea224fe,,,,,,,,,2939,-54,-118,1,0,0,response5disk,,3,-5,1,1,0,0,rectangle,-5,1,1,0,0,-5,1,1,0,0,0,84,84,103,1,,,,,,,,
,,,,,,,,,,,,,FF,,,,,,,,1.0332,,,,,,,,,,,,,,,,,,,,,,60ff41d719643e679302c2ec,61036e39f428419531f2ed93,2021-07-29_20h17.42.923,Simcolourproject_2stim_asymm_v5,2020.2.10,Win32,60,61025ae37ef11b136ea224fe,,,,,,,,,3004,-58,-151,1,0,0,response5disk,,3,-8,0,1,0,0,rectangle,-102,-45,1,0,0,-18,-8,1,0,0,0,85,85,120,1,,response5disk_3,TRUE,2,2,"[123,293,142,75,235,86,153,308,244,78,61,167,253,44,144,188,170,129,163,291]",1.8326,rectangle
,,,,,,,,,,,,,FF,,,,,,,,8.4322,,,,,,,,,,,,,,,,,,,,,,60ff41d719643e679302c2ec,61036e39f428419531f2ed93,2021-07-29_20h17.42.923,Simcolourproject_2stim_asymm_v5,2020.2.10,Win32,60,61025ae37ef11b136ea224fe,,,,,,,,,2642,113,-59,1,0,0,response3disk,,5,2,4,1,0,0,rectangle,2,4,1,0,0,2,4,1,0,0,0,86,86,60,1,,,,,,,,
,,,,,,,,,,,,,FF,,,,,,,,1.3503,,,,,,,,,,,,,,,,,,,,,,60ff41d719643e679302c2ec,61036e39f428419531f2ed93,2021-07-29_20h17.42.923,Simcolourproject_2stim_asymm_v5,2020.2.10,Win32,60,61025ae37ef11b136ea224fe,,,,,,,,,853,135,54,1,0,0,response1disk,,6,-21,-8,1,0,0,rectangle,-21,-8,1,0,0,-21,-8,1,0,0,0,87,87,35,1,,,,,,,,
,,,,,,,,,,,,,FF,,,,,,,,1.2164,,,,,,,,,,,,,,,,,,,,,,60ff41d719643e679302c2ec,61036e39f428419531f2ed93,2021-07-29_20h17.42.923,Simcolourproject_2stim_asymm_v5,2020.2.10,Win32,60,61025ae37ef11b136ea224fe,,,,,,,,,3407,133,-48,1,0,0,response3disk,,5,-12,6,1,0,0,rectangle,-12,6,1,0,0,-12,6,1,0,0,0,88,88,13,1,,,,,,,,
,,,,,,,,,,,,,FF,,,,,,,,1.4164,,,,,,,,,,,,,,,,,,,,,,60ff41d719643e679302c2ec,61036e39f428419531f2ed93,2021-07-29_20h17.42.923,Simcolourproject_2stim_asymm_v5,2020.2.10,Win32,60,61025ae37ef11b136ea224fe,,,,,,,,,3119,154,65,1,0,0,response1disk,,6,-16,-7,1,0,0,rectangle,-16,-7,1,0,0,-16,-7,1,0,0,0,89,89,115,1,,,,,,,,
,,,,,,,,,,,,,FF,,,,,,,,0.9832,,,,,,,,,,,,,,,,,,,,,,60ff41d719643e679302c2ec,61036e39f428419531f2ed93,2021-07-29_20h17.42.923,Simcolourproject_2stim_asymm_v5,2020.2.10,Win32,60,61025ae37ef11b136ea224fe,,,,,,,,,3129,55,90,1,0,0,response1disk,,7,2,2,1,0,0,rectangle,2,2,1,0,0,2,2,1,0,0,0,90,90,87,1,,,,,,,,
,,,,,,,,,,,,,FF,,,,,,,,1.0163,,,,,,,,,,,,,,,,,,,,,,60ff41d719643e679302c2ec,61036e39f428419531f2ed93,2021-07-29_20h17.42.923,Simcolourproject_2stim_asymm_v5,2020.2.10,Win32,60,61025ae37ef11b136ea224fe,,,,,,,,,394,-99,-38,1,0,0,response5disk,,2,-23,-3,1,0,0,rectangle,-23,-3,1,0,0,-23,-3,1,0,0,0,91,91,42,1,,,,,,,,
,,,,,,,,,,,,,FF,,,,,,,,1.0667,,,,,,,,,,,,,,,,,,,,,,60ff41d719643e679302c2ec,61036e39f428419531f2ed93,2021-07-29_20h17.42.923,Simcolourproject_2stim_asymm_v5,2020.2.10,Win32,60,61025ae37ef11b136ea224fe,,,,,,,,,2039,-130,45,1,0,0,response7disk,,1,-7,-2,1,0,0,rectangle,-7,-2,1,0,0,-7,-2,1,0,0,0,92,92,0,1,,,,,,,,
,,,,,,,,,,,,,FF,,,,,,,,1.4496,,,,,,,,,,,,,,,,,,,,,,60ff41d719643e679302c2ec,61036e39f428419531f2ed93,2021-07-29_20h17.42.923,Simcolourproject_2stim_asymm_v5,2020.2.10,Win32,60,61025ae37ef11b136ea224fe,,,,,,,,,4059,-122,-67,1,0,0,response5disk,,2,20,13,1,0,0,rectangle,20,13,1,0,0,20,13,1,0,0,0,93,93,101,1,,,,,,,,
,,,,,,,,,,,,,FF,,,,,,,,1.3665,,,,,,,,,,,,,,,,,,,,,,60ff41d719643e679302c2ec,61036e39f428419531f2ed93,2021-07-29_20h17.42.923,Simcolourproject_2stim_asymm_v5,2020.2.10,Win32,60,61025ae37ef11b136ea224fe,,,,,,,,,879,55,-136,1,0,0,response3disk,,4,-1,-6,1,0,0,rectangle,-1,-6,1,0,0,-1,-6,1,0,0,0,94,94,24,1,,,,,,,,
,,,,,,,,,,,,,FF,,,,,,,,1.1496,,,,,,,,,,,,,,,,,,,,,,60ff41d719643e679302c2ec,61036e39f428419531f2ed93,2021-07-29_20h17.42.923,Simcolourproject_2stim_asymm_v5,2020.2.10,Win32,60,61025ae37ef11b136ea224fe,,,,,,,,,2411,-127,-61,1,0,0,response5disk,,2,-14,-2,1,0,0,rectangle,-14,-2,1,0,0,-14,-2,1,0,0,0,95,95,25,1,,,,,,,,
,,,,,,,,,,,,,FF,,,,,,,,1.2667,,,,,,,,,,,,,,,,,,,,,,60ff41d719643e679302c2ec,61036e39f428419531f2ed93,2021-07-29_20h17.42.923,Simcolourproject_2stim_asymm_v5,2020.2.10,Win32,60,61025ae37ef11b136ea224fe,,,,,,,,,3769,124,-60,1,0,0,response3disk,,5,-5,-5,1,0,0,rectangle,-5,-5,1,0,0,-5,-5,1,0,0,0,96,96,38,1,,,,,,,,
,,,,,,,,,,,,,FF,,,,,,,,1.3164,,,,,,,,,,,,,,,,,,,,,,60ff41d719643e679302c2ec,61036e39f428419531f2ed93,2021-07-29_20h17.42.923,Simcolourproject_2stim_asymm_v5,2020.2.10,Win32,60,61025ae37ef11b136ea224fe,,,,,,,,,3860,76,-140,1,0,0,response3disk,,4,0,-13,1,0,0,rectangle,0,-13,1,0,0,0,-13,1,0,0,0,97,97,145,1,,,,,,,,
,,,,,,,,,,,,,FF,,,,,,,,4.8328,,,,,,,,,,,,,,,,,,,,,,60ff41d719643e679302c2ec,61036e39f428419531f2ed93,2021-07-29_20h17.42.923,Simcolourproject_2stim_asymm_v5,2020.2.10,Win32,60,61025ae37ef11b136ea224fe,,,,,,,,,3494,116,-46,1,0,0,response3disk,,5,12,-11,1,0,0,rectangle,12,-11,1,0,0,12,-11,1,0,0,0,98,98,150,1,,,,,,,,
,,,,,,,,,,,,,FF,,,,,,,,2.7163,,,,,,,,,,,,,,,,,,,,,,60ff41d719643e679302c2ec,61036e39f428419531f2ed93,2021-07-29_20h17.42.923,Simcolourproject_2stim_asymm_v5,2020.2.10,Win32,60,61025ae37ef11b136ea224fe,,,,,,,,,521,44,-143,1,0,0,response3disk,,4,0,-2,1,0,0,rectangle,0,-2,1,0,0,0,-2,1,0,0,0,99,99,36,1,,,,,,,,
,,,,,,,,,,,,,FF,,,,,,,,6.249,,,,,,,,,,,,,,,,,,,,,,60ff41d719643e679302c2ec,61036e39f428419531f2ed93,2021-07-29_20h17.42.923,Simcolourproject_2stim_asymm_v5,2020.2.10,Win32,60,61025ae37ef11b136ea224fe,,,,,,,,,4355,-120,42,1,0,0,response7disk,,1,4,7,1,0,0,rectangle,4,7,1,0,0,4,7,1,0,0,0,100,100,90,1,,,,,,,,
,,,,,,,,,,,,,FF,,,,,,,,1.6162,,,,,,,,,,,,,,,,,,,,,,60ff41d719643e679302c2ec,61036e39f428419531f2ed93,2021-07-29_20h17.42.923,Simcolourproject_2stim_asymm_v5,2020.2.10,Win32,60,61025ae37ef11b136ea224fe,,,,,,,,,3290,-44,129,1,0,0,response7disk,,0,-7,-13,1,0,0,rectangle,-7,-13,1,0,0,-7,-13,1,0,0,0,101,101,6,1,,,,,,,,
,,,,,,,,,,,,,FF,,,,,,,,1.2834,,,,,,,,,,,,,,,,,,,,,,60ff41d719643e679302c2ec,61036e39f428419531f2ed93,2021-07-29_20h17.42.923,Simcolourproject_2stim_asymm_v5,2020.2.10,Win32,60,61025ae37ef11b136ea224fe,,,,,,,,,3547,-118,40,1,0,0,response7disk,,1,-19,10,1,0,0,rectangle,-19,10,1,0,0,-19,10,1,0,0,0,102,102,32,1,,,,,,,,
,,,,,,,,,,,,,FF,,,,,,,,2.1344,,,,,,,,,,,,,,,,,,,,,,60ff41d719643e679302c2ec,61036e39f428419531f2ed93,2021-07-29_20h17.42.923,Simcolourproject_2stim_asymm_v5,2020.2.10,Win32,60,61025ae37ef11b136ea224fe,,,,,,,,,3627,-119,45,1,0,0,response7disk,,1,-16,7,1,0,0,rectangle,-16,7,1,0,0,-16,7,1,0,0,0,103,103,80,1,,,,,,,,
,,,,,,,,,,,,,FF,,,,,,,,0.8333,,,,,,,,,,,,,,,,,,,,,,60ff41d719643e679302c2ec,61036e39f428419531f2ed93,2021-07-29_20h17.42.923,Simcolourproject_2stim_asymm_v5,2020.2.10,Win32,60,61025ae37ef11b136ea224fe,,,,,,,,,2298,-125,42,1,0,0,response7disk,,1,2,-7,1,0,0,rectangle,2,-7,1,0,0,2,-7,1,0,0,0,104,104,73,1,,,,,,,,
,,,,,,,,,,,,,FF,,,,,,,,7.6818,,,,,,,,,,,,,,,,,,,,,,60ff41d719643e679302c2ec,61036e39f428419531f2ed93,2021-07-29_20h17.42.923,Simcolourproject_2stim_asymm_v5,2020.2.10,Win32,60,61025ae37ef11b136ea224fe,,,,,,,,,1878,-122,-66,1,0,0,response5disk,,2,18,-2,1,0,0,rectangle,18,-2,1,0,0,18,-2,1,0,0,0,105,105,107,1,,,,,,,,
,,,,,,,,,,,,,FF,,,,,,,,1.5498,,,,,,,,,,,,,,,,,,,,,,60ff41d719643e679302c2ec,61036e39f428419531f2ed93,2021-07-29_20h17.42.923,Simcolourproject_2stim_asymm_v5,2020.2.10,Win32,60,61025ae37ef11b136ea224fe,,,,,,,,,2495,64,-148,1,0,0,response3disk,,4,-2,-11,1,0,0,rectangle,-2,-11,1,0,0,-2,-11,1,0,0,0,106,106,68,1,,,,,,,,
,,,,,,,,,,,,,FF,,,,,,,,4.7491,,,,,,,,,,,,,,,,,,,,,,60ff41d719643e679302c2ec,61036e39f428419531f2ed93,2021-07-29_20h17.42.923,Simcolourproject_2stim_asymm_v5,2020.2.10,Win32,60,61025ae37ef11b136ea224fe,,,,,,,,,2284,-59,-135,1,0,0,response5disk,,3,9,-19,1,0,0,rectangle,9,-19,1,0,0,9,-19,1,0,0,0,107,107,48,1,,,,,,,,
,,,,,,,,,,,,,FF,,,,,,,,0.8666,,,,,,,,,,,,,,,,,,,,,,60ff41d719643e679302c2ec,61036e39f428419531f2ed93,2021-07-29_20h17.42.923,Simcolourproject_2stim_asymm_v5,2020.2.10,Win32,60,61025ae37ef11b136ea224fe,,,,,,,,,1529,-128,55,1,0,0,response7disk,,1,-8,0,1,0,0,rectangle,-8,0,1,0,0,-8,0,1,0,0,0,108,108,83,1,,,,,,,,
,,,,,,,,,,,,,FF,,,,,,,,1.2333,,,,,,,,,,,,,,,,,,,,,,60ff41d719643e679302c2ec,61036e39f428419531f2ed93,2021-07-29_20h17.42.923,Simcolourproject_2stim_asymm_v5,2020.2.10,Win32,60,61025ae37ef11b136ea224fe,,,,,,,,,2800,127,-56,1,0,0,response3disk,,5,13,-9,1,0,0,rectangle,13,-9,1,0,0,13,-9,1,0,0,0,109,109,34,1,,,,,,,,
,,,,,,,,,,,,,FF,,,,,,,,1.6831,,,,,,,,,,,,,,,,,,,,,,60ff41d719643e679302c2ec,61036e39f428419531f2ed93,2021-07-29_20h17.42.923,Simcolourproject_2stim_asymm_v5,2020.2.10,Win32,60,61025ae37ef11b136ea224fe,,,,,,,,,3483,-46,-153,1,0,0,response5disk,,3,9,4,1,0,0,rectangle,9,4,1,0,0,9,4,1,0,0,0,110,110,30,1,,,,,,,,
,,,,,,,,,,,,,FF,,,,,,,,1.3163,,,,,,,,,,,,,,,,,,,,,,60ff41d719643e679302c2ec,61036e39f428419531f2ed93,2021-07-29_20h17.42.923,Simcolourproject_2stim_asymm_v5,2020.2.10,Win32,60,61025ae37ef11b136ea224fe,,,,,,,,,3653,60,130,1,0,0,response1disk,,7,8,10,1,0,0,rectangle,8,10,1,0,0,8,10,1,0,0,0,111,111,78,1,,,,,,,,
,,,,,,,,,,,,,FF,,,,,,,,2.7995,,,,,,,,,,,,,,,,,,,,,,60ff41d719643e679302c2ec,61036e39f428419531f2ed93,2021-07-29_20h17.42.923,Simcolourproject_2stim_asymm_v5,2020.2.10,Win32,60,61025ae37ef11b136ea224fe,,,,,,,,,3073,157,42,1,0,0,response1disk,,6,20,0,1,0,0,rectangle,20,0,1,0,0,20,0,1,0,0,0,112,112,106,1,,,,,,,,
,,,,,,,,,,,,,FF,,,,,,,,1.1832,,,,,,,,,,,,,,,,,,,,,,60ff41d719643e679302c2ec,61036e39f428419531f2ed93,2021-07-29_20h17.42.923,Simcolourproject_2stim_asymm_v5,2020.2.10,Win32,60,61025ae37ef11b136ea224fe,,,,,,,,,2945,-117,-49,1,0,0,response5disk,,2,-16,-2,1,0,0,rectangle,-16,-2,1,0,0,-16,-2,1,0,0,0,113,113,9,1,,,,,,,,
,,,,,,,,,,,,,FF,,,,,,,,2.2662,,,,,,,,,,,,,,,,,,,,,,60ff41d719643e679302c2ec,61036e39f428419531f2ed93,2021-07-29_20h17.42.923,Simcolourproject_2stim_asymm_v5,2020.2.10,Win32,60,61025ae37ef11b136ea224fe,,,,,,,,,2408,110,-45,1,0,0,response3disk,,5,-1,-11,1,0,0,rectangle,-1,-11,1,0,0,-1,-11,1,0,0,0,114,114,117,1,,,,,,,,
,,,,,,,,,,,,,FF,,,,,,,,1.3001,,,,,,,,,,,,,,,,,,,,,,60ff41d719643e679302c2ec,61036e39f428419531f2ed93,2021-07-29_20h17.42.923,Simcolourproject_2stim_asymm_v5,2020.2.10,Win32,60,61025ae37ef11b136ea224fe,,,,,,,,,3404,52,-123,1,0,0,response3disk,,4,-15,-9,1,0,0,rectangle,-15,-9,1,0,0,-15,-9,1,0,0,0,115,115,89,1,,,,,,,,
,,,,,,,,,,,,,FF,,,,,,,,2.7826,,,,,,,,,,,,,,,,,,,,,,60ff41d719643e679302c2ec,61036e39f428419531f2ed93,2021-07-29_20h17.42.923,Simcolourproject_2stim_asymm_v5,2020.2.10,Win32,60,61025ae37ef11b136ea224fe,,,,,,,,,3256,53,-151,1,0,0,response3disk,,4,0,5,1,0,0,rectangle,0,5,1,0,0,0,5,1,0,0,0,116,116,155,1,,,,,,,,
,,,,,,,,,,,,,FF,,,,,,,,2.6662,,,,,,,,,,,,,,,,,,,,,,60ff41d719643e679302c2ec,61036e39f428419531f2ed93,2021-07-29_20h17.42.923,Simcolourproject_2stim_asymm_v5,2020.2.10,Win32,60,61025ae37ef11b136ea224fe,,,,,,,,,388,-54,-134,1,0,0,response5disk,,3,-6,-3,1,0,0,rectangle,-6,-3,1,0,0,-6,-3,1,0,0,0,117,117,94,1,,,,,,,,
,,,,,,,,,,,,,FF,,,,,,,,0.8997,,,,,,,,,,,,,,,,,,,,,,60ff41d719643e679302c2ec,61036e39f428419531f2ed93,2021-07-29_20h17.42.923,Simcolourproject_2stim_asymm_v5,2020.2.10,Win32,60,61025ae37ef11b136ea224fe,,,,,,,,,4305,-58,137,1,0,0,response7disk,,0,-8,6,1,0,0,rectangle,-8,6,1,0,0,-8,6,1,0,0,0,118,118,76,1,,,,,,,,
,,,,,,,,,,,,,FF,,,,,,,,2.9827,,,,,,,,,,,,,,,,,,,,,,60ff41d719643e679302c2ec,61036e39f428419531f2ed93,2021-07-29_20h17.42.923,Simcolourproject_2stim_asymm_v5,2020.2.10,Win32,60,61025ae37ef11b136ea224fe,,,,,,,,,1850,151,61,1,0,0,response1disk,,6,0,3,1,0,0,rectangle,0,3,1,0,0,0,3,1,0,0,0,119,119,143,1,,,,,,,,
,,,,,,,,,,,,,FF,,,,,,,,1.6329,,,,,,,,,,,,,,,,,,,,,,60ff41d719643e679302c2ec,61036e39f428419531f2ed93,2021-07-29_20h17.42.923,Simcolourproject_2stim_asymm_v5,2020.2.10,Win32,60,61025ae37ef11b136ea224fe,,,,,,,,,1316,110,-54,1,0,0,response3disk,,5,10,-9,1,0,0,rectangle,10,-9,1,0,0,10,-9,1,0,0,0,120,120,50,1,,,,,,,,
,,,,,,,,,,,,,FF,,,,,,,,1.5166,,,,,,,,,,,,,,,,,,,,,,60ff41d719643e679302c2ec,61036e39f428419531f2ed93,2021-07-29_20h17.42.923,Simcolourproject_2stim_asymm_v5,2020.2.10,Win32,60,61025ae37ef11b136ea224fe,,,,,,,,,1590,121,-48,1,0,0,response3disk,,5,-2,1,1,0,0,rectangle,-2,1,1,0,0,-2,1,1,0,0,0,121,121,130,1,,,,,,,,
,,,,,,,,,,,,,FF,,,,,,,,1.283,,,,,,,,,,,,,,,,,,,,,,60ff41d719643e679302c2ec,61036e39f428419531f2ed93,2021-07-29_20h17.42.923,Simcolourproject_2stim_asymm_v5,2020.2.10,Win32,60,61025ae37ef11b136ea224fe,,,,,,,,,3579,136,-47,1,0,0,response3disk,,5,19,-9,1,0,0,rectangle,-116,-44,1,0,0,-3,3,1,0,0,0,122,122,141,1,,response5disk_3,TRUE,2,2,"[123,293,142,75,235,86,153,308,244,78,61,167,253,44,144,188,170,129,163,291]",2.1839,rectangle
,,,,,,,,,,,,,FF,,,,,,,,1.2831,,,,,,,,,,,,,,,,,,,,,,60ff41d719643e679302c2ec,61036e39f428419531f2ed93,2021-07-29_20h17.42.923,Simcolourproject_2stim_asymm_v5,2020.2.10,Win32,60,61025ae37ef11b136ea224fe,,,,,,,,,1344,140,52,1,0,0,response1disk,,6,-5,-18,1,0,0,rectangle,-5,-18,1,0,0,-5,-18,1,0,0,0,123,123,29,1,,,,,,,,
,,,,,,,,,,,,,FF,,,,,,,,1.7165,,,,,,,,,,,,,,,,,,,,,,60ff41d719643e679302c2ec,61036e39f428419531f2ed93,2021-07-29_20h17.42.923,Simcolourproject_2stim_asymm_v5,2020.2.10,Win32,60,61025ae37ef11b136ea224fe,,,,,,,,,3169,140,57,1,0,0,response1disk,,6,8,-6,1,0,0,rectangle,8,-6,1,0,0,8,-6,1,0,0,0,124,124,98,1,,,,,,,,
,,,,,,,,,,,,,FF,,,,,,,,3.8827,,,,,,,,,,,,,,,,,,,,,,60ff41d719643e679302c2ec,61036e39f428419531f2ed93,2021-07-29_20h17.42.923,Simcolourproject_2stim_asymm_v5,2020.2.10,Win32,60,61025ae37ef11b136ea224fe,,,,,,,,,2641,126,-49,1,0,0,response3disk,,5,11,-1,1,0,0,rectangle,11,-1,1,0,0,11,-1,1,0,0,0,125,125,136,1,,,,,,,,
,,,,,,,,,,,,,FF,,,,,,,,2.0153,,,,,,,,,,,,,,,,,,,,,,60ff41d719643e679302c2ec,61036e39f428419531f2ed93,2021-07-29_20h17.42.923,Simcolourproject_2stim_asymm_v5,2020.2.10,Win32,60,61025ae37ef11b136ea224fe,,,,,,,,,300,66,-143,0,0,1,response3disk,,4,1,-5,1,0,0,rectangle,1,-5,1,0,0,1,-5,1,0,0,0,126,126,41,1,,,,,,,,
,,,,,,,,,,,,,FF,,,,,,,,5.3325,,,,,,,,,,,,,,,,,,,,,,60ff41d719643e679302c2ec,61036e39f428419531f2ed93,2021-07-29_20h17.42.923,Simcolourproject_2stim_asymm_v5,2020.2.10,Win32,60,61025ae37ef11b136ea224fe,,,,,,,,,3327,-123,-57,1,0,0,response5disk,,2,-3,5,1,0,0,rectangle,-3,5,1,0,0,-3,5,1,0,0,0,127,127,27,1,,,,,,,,
,,,,,,,,,,,,,FF,,,,,,,,4.2994,,,,,,,,,,,,,,,,,,,,,,60ff41d719643e679302c2ec,61036e39f428419531f2ed93,2021-07-29_20h17.42.923,Simcolourproject_2stim_asymm_v5,2020.2.10,Win32,60,61025ae37ef11b136ea224fe,,,,,,,,,446,63,-128,1,0,0,response3disk,,4,19,1,1,0,0,rectangle,144,62,1,0,0,4,9,1,0,0,0,128,128,69,1,,response1disk_3,TRUE,6,6,"[123,293,142,75,235,86,153,308,244,78,61,167,253,44,144,188,170,129,163,291]",1.7664,rectangle
,,,,,,,,,,,,,FF,,,,,,,,1.3168,,,,,,,,,,,,,,,,,,,,,,60ff41d719643e679302c2ec,61036e39f428419531f2ed93,2021-07-29_20h17.42.923,Simcolourproject_2stim_asymm_v5,2020.2.10,Win32,60,61025ae37ef11b136ea224fe,,,,,,,,,3232,53,111,1,0,0,response1disk,,7,3,3,1,0,0,rectangle,3,3,1,0,0,3,3,1,0,0,0,129,129,114,1,,,,,,,,
,,,,,,,,,,,,,FF,,,,,,,,7.165,,,,,,,,,,,,,,,,,,,,,,60ff41d719643e679302c2ec,61036e39f428419531f2ed93,2021-07-29_20h17.42.923,Simcolourproject_2stim_asymm_v5,2020.2.10,Win32,60,61025ae37ef11b136ea224fe,,,,,,,,,332,116,-42,1,0,0,response3disk,,5,18,4,1,0,0,rectangle,18,4,1,0,0,18,4,1,0,0,0,130,130,142,1,,,,,,,,
,,,,,,,,,,,,,FF,,,,,,,,1.3328,,,,,,,,,,,,,,,,,,,,,,60ff41d719643e679302c2ec,61036e39f428419531f2ed93,2021-07-29_20h17.42.923,Simcolourproject_2stim_asymm_v5,2020.2.10,Win32,60,61025ae37ef11b136ea224fe,,,,,,,,,1086,-124,-59,1,0,0,response5disk,,2,-14,-9,1,0,0,rectangle,-14,-9,1,0,0,-14,-9,1,0,0,0,131,131,15,1,,,,,,,,
,,,,,,,,,,,,,FF,,,,,,,,1.1001,,,,,,,,,,,,,,,,,,,,,,60ff41d719643e679302c2ec,61036e39f428419531f2ed93,2021-07-29_20h17.42.923,Simcolourproject_2stim_asymm_v5,2020.2.10,Win32,60,61025ae37ef11b136ea224fe,,,,,,,,,2841,-128,-51,1,0,0,response5disk,,2,5,7,1,0,0,rectangle,5,7,1,0,0,5,7,1,0,0,0,132,132,128,1,,,,,,,,
,,,,,,,,,,,,,FF,,,,,,,,1.4165,,,,,,,,,,,,,,,,,,,,,,60ff41d719643e679302c2ec,61036e39f428419531f2ed93,2021-07-29_20h17.42.923,Simcolourproject_2stim_asymm_v5,2020.2.10,Win32,60,61025ae37ef11b136ea224fe,,,,,,,,,1837,61,-126,1,0,0,response3disk,,4,10,11,1,0,0,rectangle,10,11,1,0,0,10,11,1,0,0,0,133,133,135,1,,,,,,,,
,,,,,,,,,,,,,FF,,,,,,,,1.2165,,,,,,,,,,,,,,,,,,,,,,60ff41d719643e679302c2ec,61036e39f428419531f2ed93,2021-07-29_20h17.42.923,Simcolourproject_2stim_asymm_v5,2020.2.10,Win32,60,61025ae37ef11b136ea224fe,,,,,,,,,381,-36,-122,1,0,0,response5disk,,3,4,-16,1,0,0,rectangle,4,-16,1,0,0,4,-16,1,0,0,0,134,134,125,1,,,,,,,,
,,,,,,,,,,,,,FF,,,,,,,,1.0665,,,,,,,,,,,,,,,,,,,,,,60ff41d719643e679302c2ec,61036e39f428419531f2ed93,2021-07-29_20h17.42.923,Simcolourproject_2stim_asymm_v5,2020.2.10,Win32,60,61025ae37ef11b136ea224fe,,,,,,,,,2096,-125,-55,1,0,0,response5disk,,2,-20,-7,1,0,0,rectangle,-20,-7,1,0,0,-20,-7,1,0,0,0,135,135,100,1,,,,,,,,
,,,,,,,,,,,,,FF,,,,,,,,5.0658,,,,,,,,,,,,,,,,,,,,,,60ff41d719643e679302c2ec,61036e39f428419531f2ed93,2021-07-29_20h17.42.923,Simcolourproject_2stim_asymm_v5,2020.2.10,Win32,60,61025ae37ef11b136ea224fe,,,,,,,,,1128,-112,43,1,0,0,response7disk,,1,-12,-2,1,0,0,rectangle,-12,-2,1,0,0,-12,-2,1,0,0,0,136,136,2,1,,,,,,,,
,,,,,,,,,,,,,FF,,,,,,,,1.7329,,,,,,,,,,,,,,,,,,,,,,60ff41d719643e679302c2ec,61036e39f428419531f2ed93,2021-07-29_20h17.42.923,Simcolourproject_2stim_asymm_v5,2020.2.10,Win32,60,61025ae37ef11b136ea224fe,,,,,,,,,1487,142,40,1,0,0,response1disk,,6,-16,0,1,0,0,rectangle,-16,0,1,0,0,-16,0,1,0,0,0,137,137,70,1,,,,,,,,
,,,,,,,,,,,,,FF,,,,,,,,1.1166,,,,,,,,,,,,,,,,,,,,,,60ff41d719643e679302c2ec,61036e39f428419531f2ed93,2021-07-29_20h17.42.923,Simcolourproject_2stim_asymm_v5,2020.2.10,Win32,60,61025ae37ef11b136ea224fe,,,,,,,,,148,54,-133,1,0,0,response3disk,,4,15,5,1,0,0,rectangle,15,5,1,0,0,15,5,1,0,0,0,138,138,56,1,,,,,,,,
,,,,,,,,,,,,,FF,,,,,,,,2.5998,,,,,,,,,,,,,,,,,,,,,,60ff41d719643e679302c2ec,61036e39f428419531f2ed93,2021-07-29_20h17.42.923,Simcolourproject_2stim_asymm_v5,2020.2.10,Win32,60,61025ae37ef11b136ea224fe,,,,,,,,,952,63,-129,1,0,0,response3disk,,4,1,-13,1,0,0,rectangle,1,-13,1,0,0,1,-13,1,0,0,0,139,139,110,1,,,,,,,,
,,,,,,,,,,,,,FF,,,,,,,,1.0664,,,,,,,,,,,,,,,,,,,,,,60ff41d719643e679302c2ec,61036e39f428419531f2ed93,2021-07-29_20h17.42.923,Simcolourproject_2stim_asymm_v5,2020.2.10,Win32,60,61025ae37ef11b136ea224fe,,,,,,,,,2686,134,-39,1,0,0,response3disk,,5,8,3,1,0,0,rectangle,8,3,1,0,0,8,3,1,0,0,0,140,140,116,1,,,,,,,,
,,,,,,,,,,,,,FF,,,,,,,,0.9838,,,,,,,,,,,,,,,,,,,,,,60ff41d719643e679302c2ec,61036e39f428419531f2ed93,2021-07-29_20h17.42.923,Simcolourproject_2stim_asymm_v5,2020.2.10,Win32,60,61025ae37ef11b136ea224fe,,,,,,,,,2369,-115,-52,1,0,0,response5disk,,2,-8,-6,1,0,0,rectangle,112,-45,1,0,0,17,-7,1,0,0,0,141,141,45,1,,response3disk_3,TRUE,5,5,"[123,293,142,75,235,86,153,308,244,78,61,167,253,44,144,188,170,129,163,291]",1.6708,rectangle
,,,,,,,,,,,,,FF,,,,,,,,7.0487,,,,,,,,,,,,,,,,,,,,,,60ff41d719643e679302c2ec,61036e39f428419531f2ed93,2021-07-29_20h17.42.923,Simcolourproject_2stim_asymm_v5,2020.2.10,Win32,60,61025ae37ef11b136ea224fe,,,,,,,,,539,120,-47,1,0,0,response3disk,,5,1,-5,1,0,0,rectangle,1,-5,1,0,0,1,-5,1,0,0,0,142,142,157,1,,,,,,,,
,,,,,,,,,,,,,FF,,,,,,,,1.6493,,,,,,,,,,,,,,,,,,,,,,60ff41d719643e679302c2ec,61036e39f428419531f2ed93,2021-07-29_20h17.42.923,Simcolourproject_2stim_asymm_v5,2020.2.10,Win32,60,61025ae37ef11b136ea224fe,,,,,,,,,3158,-57,-132,1,0,0,response5disk,,3,-4,5,1,0,0,rectangle,-121,58,1,0,0,-23,9,1,0,0,0,143,143,154,1,,response7disk_3,TRUE,1,1,"[123,293,142,75,235,86,153,308,244,78,61,167,253,44,144,188,170,129,163,291]",1.6167,rectangle
,,,,,,,,,,,,,FF,,,,,,,,3.5827,,,,,,,,,,,,,,,,,,,,,,60ff41d719643e679302c2ec,61036e39f428419531f2ed93,2021-07-29_20h17.42.923,Simcolourproject_2stim_asymm_v5,2020.2.10,Win32,60,61025ae37ef11b136ea224fe,,,,,,,,,1407,139,56,1,0,0,response1disk,,6,3,1,1,0,0,rectangle,3,1,1,0,0,3,1,1,0,0,0,144,144,126,1,,,,,,,,
,,,,,,,,,,,,,FF,,,,,,,,10.2148,,,,,,,,,,,,,,,,,,,,,,60ff41d719643e679302c2ec,61036e39f428419531f2ed93,2021-07-29_20h17.42.923,Simcolourproject_2stim_asymm_v5,2020.2.10,Win32,60,61025ae37ef11b136ea224fe,,,,,,,,,635,-118,-55,1,0,0,response5disk,,2,-22,0,1,0,0,rectangle,-22,0,1,0,0,-22,0,1,0,0,0,145,145,11,1,,,,,,,,
,,,,,,,,,,,,,FF,,,,,,,,4.5994,,,,,,,,,,,,,,,,,,,,,,60ff41d719643e679302c2ec,61036e39f428419531f2ed93,2021-07-29_20h17.42.923,Simcolourproject_2stim_asymm_v5,2020.2.10,Win32,60,61025ae37ef11b136ea224fe,,,,,,,,,1388,-118,-34,1,0,0,response5disk,,2,-4,-4,1,0,0,rectangle,-4,-4,1,0,0,-4,-4,1,0,0,0,146,146,63,1,,,,,,,,
,,,,,,,,,,,,,FF,,,,,,,,0.9001,,,,,,,,,,,,,,,,,,,,,,60ff41d719643e679302c2ec,61036e39f428419531f2ed93,2021-07-29_20h17.42.923,Simcolourproject_2stim_asymm_v5,2020.2.10,Win32,60,61025ae37ef11b136ea224fe,,,,,,,,,1462,-123,68,1,0,0,response7disk,,1,1,-11,1,0,0,rectangle,1,-11,1,0,0,1,-11,1,0,0,0,147,147,156,1,,,,,,,,
,,,,,,,,,,,,,FF,,,,,,,,0.8667,,,,,,,,,,,,,,,,,,,,,,60ff41d719643e679302c2ec,61036e39f428419531f2ed93,2021-07-29_20h17.42.923,Simcolourproject_2stim_asymm_v5,2020.2.10,Win32,60,61025ae37ef11b136ea224fe,,,,,,,,,2824,-128,-52,1,0,0,response5disk,,2,-7,0,1,0,0,rectangle,-7,0,1,0,0,-7,0,1,0,0,0,148,148,140,1,,,,,,,,
,,,,,,,,,,,,,FF,,,,,,,,3.2162,,,,,,,,,,,,,,,,,,,,,,60ff41d719643e679302c2ec,61036e39f428419531f2ed93,2021-07-29_20h17.42.923,Simcolourproject_2stim_asymm_v5,2020.2.10,Win32,60,61025ae37ef11b136ea224fe,,,,,,,,,829,120,-54,1,0,0,response3disk,,5,-4,-4,1,0,0,rectangle,-4,-4,1,0,0,-4,-4,1,0,0,0,149,149,152,1,,,,,,,,
,,,,,,,,,,,,,FF,,,,,,,,3.4994,,,,,,,,,,,,,,,,,,,,,,60ff41d719643e679302c2ec,61036e39f428419531f2ed93,2021-07-29_20h17.42.923,Simcolourproject_2stim_asymm_v5,2020.2.10,Win32,60,61025ae37ef11b136ea224fe,,,,,,,,,6,-118,-53,1,0,0,response5disk,,2,-9,-6,1,0,0,rectangle,-9,-6,1,0,0,-9,-6,1,0,0,0,150,150,84,1,,,,,,,,
,,,,,,,,,,,,,FF,,,,,,,,1.0332,,,,,,,,,,,,,,,,,,,,,,60ff41d719643e679302c2ec,61036e39f428419531f2ed93,2021-07-29_20h17.42.923,Simcolourproject_2stim_asymm_v5,2020.2.10,Win32,60,61025ae37ef11b136ea224fe,,,,,,,,,2164,-121,57,1,0,0,response7disk,,1,-19,-1,1,0,0,rectangle,-19,-1,1,0,0,-19,-1,1,0,0,0,151,151,18,1,,,,,,,,
,,,,,,,,,,,,,FF,,,,,,,,6.6992,,,,,,,,,,,,,,,,,,,,,,60ff41d719643e679302c2ec,61036e39f428419531f2ed93,2021-07-29_20h17.42.923,Simcolourproject_2stim_asymm_v5,2020.2.10,Win32,60,61025ae37ef11b136ea224fe,,,,,,,,,673,135,69,1,0,0,response1disk,,6,-20,0,1,0,0,rectangle,-113,50,1,0,0,13,8,1,0,0,0,152,152,119,1,,response7disk_3,TRUE,1,1,"[123,293,142,75,235,86,153,308,244,78,61,167,253,44,144,188,170,129,163,291]",1.4483,rectangle
,,,,,,,,,,,,,FF,,,,,,,,1.0165,,,,,,,,,,,,,,,,,,,,,,60ff41d719643e679302c2ec,61036e39f428419531f2ed93,2021-07-29_20h17.42.923,Simcolourproject_2stim_asymm_v5,2020.2.10,Win32,60,61025ae37ef11b136ea224fe,,,,,,,,,4188,-110,63,1,0,0,response7disk,,1,-7,-3,1,0,0,rectangle,-7,-3,1,0,0,-7,-3,1,0,0,0,153,153,39,1,,,,,,,,
,,,,,,,,,,,,,FF,,,,,,,,1.2831,,,,,,,,,,,,,,,,,,,,,,60ff41d719643e679302c2ec,61036e39f428419531f2ed93,2021-07-29_20h17.42.923,Simcolourproject_2stim_asymm_v5,2020.2.10,Win32,60,61025ae37ef11b136ea224fe,,,,,,,,,2133,51,134,1,0,0,response1disk,,7,-5,-3,1,0,0,rectangle,-5,-3,1,0,0,-5,-3,1,0,0,0,154,154,12,1,,,,,,,,
,,,,,,,,,,,,,FF,,,,,,,,5.3825,,,,,,,,,,,,,,,,,,,,,,60ff41d719643e679302c2ec,61036e39f428419531f2ed93,2021-07-29_20h17.42.923,Simcolourproject_2stim_asymm_v5,2020.2.10,Win32,60,61025ae37ef11b136ea224fe,,,,,,,,,764,135,-52,1,0,0,response3disk,,5,-3,8,1,0,0,rectangle,-3,8,1,0,0,-3,8,1,0,0,0,155,155,17,1,,,,,,,,
,,,,,,,,,,,,,FF,,,,,,,,4.6658,,,,,,,,,,,,,,,,,,,,,,60ff41d719643e679302c2ec,61036e39f428419531f2ed93,2021-07-29_20h17.42.923,Simcolourproject_2stim_asymm_v5,2020.2.10,Win32,60,61025ae37ef11b136ea224fe,,,,,,,,,2348,-58,-137,1,0,0,response5disk,,3,-6,-7,1,0,0,rectangle,-6,-7,1,0,0,-6,-7,1,0,0,0,156,156,20,1,,,,,,,,
,,,,,,,,,,,,,FF,,,,,,,,1.4001,,,,,,,,,,,,,,,,,,,,,,60ff41d719643e679302c2ec,61036e39f428419531f2ed93,2021-07-29_20h17.42.923,Simcolourproject_2stim_asymm_v5,2020.2.10,Win32,60,61025ae37ef11b136ea224fe,,,,,,,,,1134,-112,-44,1,0,0,response5disk,,2,-1,-10,1,0,0,rectangle,-1,-10,1,0,0,-1,-10,1,0,0,0,157,157,149,1,,,,,,,,
,,,,,,,,,,,,,FF,,,,,,,,1.1998,,,,,,,,,,,,,,,,,,,,,,60ff41d719643e679302c2ec,61036e39f428419531f2ed93,2021-07-29_20h17.42.923,Simcolourproject_2stim_asymm_v5,2020.2.10,Win32,60,61025ae37ef11b136ea224fe,,,,,,,,,3585,-114,45,1,0,0,response7disk,,1,-20,7,1,0,0,rectangle,-20,7,1,0,0,-20,7,1,0,0,0,158,158,127,1,,,,,,,,
,,,,,,,,,,,,,FF,,,,,,,,1.6665,,,,,,,,,,,,,,,,,,,,,,60ff41d719643e679302c2ec,61036e39f428419531f2ed93,2021-07-29_20h17.42.923,Simcolourproject_2stim_asymm_v5,2020.2.10,Win32,60,61025ae37ef11b136ea224fe,,,,,,,,,4173,135,42,1,0,0,response1disk,,6,8,6,1,0,0,rectangle,8,6,1,0,0,8,6,1,0,0,0,159,159,129,1,,,,,,,,
,,,,,,,,,,,,,FF,,,,,,,,1.2167,,,,,,,,,,,,,,,,,,,,,,60ff41d719643e679302c2ec,61036e39f428419531f2ed93,2021-07-29_20h17.42.923,Simcolourproject_2stim_asymm_v5,2020.2.10,Win32,60,61025ae37ef11b136ea224fe,,,,,,,,,1434,128,51,1,0,0,response1disk,,6,11,5,1,0,0,rectangle,11,5,1,0,0,11,5,1,0,0,1,0,160,93,1,,,,,,,,
,,,,,,,,,,,,,FF,,,,,,,,1.9831,,,,,,,,,,,,,,,,,,,,,,60ff41d719643e679302c2ec,61036e39f428419531f2ed93,2021-07-29_20h17.42.923,Simcolourproject_2stim_asymm_v5,2020.2.10,Win32,60,61025ae37ef11b136ea224fe,,,,,,,,,1166,-116,-44,1,0,0,response5disk,,2,-17,-6,1,0,0,rectangle,-17,-6,1,0,0,-17,-6,1,0,0,1,1,161,17,1,,,,,,,,
,,,,,,,,,,,,,FF,,,,,,,,1.0499,,,,,,,,,,,,,,,,,,,,,,60ff41d719643e679302c2ec,61036e39f428419531f2ed93,2021-07-29_20h17.42.923,Simcolourproject_2stim_asymm_v5,2020.2.10,Win32,60,61025ae37ef11b136ea224fe,,,,,,,,,3477,-118,45,1,0,0,response7disk,,1,25,-11,1,0,0,rectangle,-53,148,1,0,0,-4,-4,1,0,0,1,2,162,152,1,,response7disk_3,TRUE,0,0,"[123,293,142,75,235,86,153,308,244,78,61,167,253,44,144,188,170,129,163,291]",1.8992,rectangle
,,,,,,,,,,,,,FF,,,,,,,,2.3328,,,,,,,,,,,,,,,,,,,,,,60ff41d719643e679302c2ec,61036e39f428419531f2ed93,2021-07-29_20h17.42.923,Simcolourproject_2stim_asymm_v5,2020.2.10,Win32,60,61025ae37ef11b136ea224fe,,,,,,,,,3082,135,-48,1,0,0,response3disk,,5,8,4,1,0,0,rectangle,8,4,1,0,0,8,4,1,0,0,1,3,163,24,1,,,,,,,,
,,,,,,,,,,,,,FF,,,,,,,,1.7667,,,,,,,,,,,,,,,,,,,,,,60ff41d719643e679302c2ec,61036e39f428419531f2ed93,2021-07-29_20h17.42.923,Simcolourproject_2stim_asymm_v5,2020.2.10,Win32,60,61025ae37ef11b136ea224fe,,,,,,,,,3048,-122,64,1,0,0,response7disk,,1,-5,1,1,0,0,rectangle,-5,1,1,0,0,-5,1,1,0,0,1,4,164,53,1,,,,,,,,
,,,,,,,,,,,,,FF,,,,,,,,2.6661,,,,,,,,,,,,,,,,,,,,,,60ff41d719643e679302c2ec,61036e39f428419531f2ed93,2021-07-29_20h17.42.923,Simcolourproject_2stim_asymm_v5,2020.2.10,Win32,60,61025ae37ef11b136ea224fe,,,,,,,,,3938,-125,42,1,0,0,response7disk,,1,4,-2,1,0,0,rectangle,4,-2,1,0,0,4,-2,1,0,0,1,5,165,62,1,,,,,,,,
,,,,,,,,,,,,,FF,,,,,,,,1.4497,,,,,,,,,,,,,,,,,,,,,,60ff41d719643e679302c2ec,61036e39f428419531f2ed93,2021-07-29_20h17.42.923,Simcolourproject_2stim_asymm_v5,2020.2.10,Win32,60,61025ae37ef11b136ea224fe,,,,,,,,,3114,-64,-125,1,0,0,response5disk,,3,-13,11,1,0,0,rectangle,67,-150,1,0,0,-3,7,1,0,0,1,6,166,91,1,,response3disk_3,TRUE,4,4,"[123,293,142,75,235,86,153,308,244,78,61,167,253,44,144,188,170,129,163,291]",1.9161,rectangle
,,,,,,,,,,,,,FF,,,,,,,,0.9,,,,,,,,,,,,,,,,,,,,,,60ff41d719643e679302c2ec,61036e39f428419531f2ed93,2021-07-29_20h17.42.923,Simcolourproject_2stim_asymm_v5,2020.2.10,Win32,60,61025ae37ef11b136ea224fe,,,,,,,,,3937,-116,44,1,0,0,response7disk,,1,-28,4,1,0,0,rectangle,-28,4,1,0,0,-28,4,1,0,0,1,7,167,61,1,,,,,,,,
,,,,,,,,,,,,,FF,,,,,,,,1.5001,,,,,,,,,,,,,,,,,,,,,,60ff41d719643e679302c2ec,61036e39f428419531f2ed93,2021-07-29_20h17.42.923,Simcolourproject_2stim_asymm_v5,2020.2.10,Win32,60,61025ae37ef11b136ea224fe,,,,,,,,,1748,-113,-53,1,0,0,response5disk,,2,-5,0,1,0,0,rectangle,-5,0,1,0,0,-5,0,1,0,0,1,8,168,46,1,,,,,,,,
,,,,,,,,,,,,,FF,,,,,,,,2.9663,,,,,,,,,,,,,,,,,,,,,,60ff41d719643e679302c2ec,61036e39f428419531f2ed93,2021-07-29_20h17.42.923,Simcolourproject_2stim_asymm_v5,2020.2.10,Win32,60,61025ae37ef11b136ea224fe,,,,,,,,,861,134,-39,1,0,0,response3disk,,5,28,4,1,0,0,rectangle,124,-61,1,0,0,-5,-5,1,0,0,1,9,169,55,1,,response3disk_3,TRUE,5,5,"[123,293,142,75,235,86,153,308,244,78,61,167,253,44,144,188,170,129,163,291]",1.4998,rectangle
,,,,,,,,,,,,,FF,,,,,,,,0.9165,,,,,,,,,,,,,,,,,,,,,,60ff41d719643e679302c2ec,61036e39f428419531f2ed93,2021-07-29_20h17.42.923,Simcolourproject_2stim_asymm_v5,2020.2.10,Win32,60,61025ae37ef11b136ea224fe,,,,,,,,,4146,-134,56,1,0,0,response7disk,,1,5,5,1,0,0,rectangle,5,5,1,0,0,5,5,1,0,0,1,10,170,132,1,,,,,,,,
,,,,,,,,,,,,,FF,,,,,,,,1.8828,,,,,,,,,,,,,,,,,,,,,,60ff41d719643e679302c2ec,61036e39f428419531f2ed93,2021-07-29_20h17.42.923,Simcolourproject_2stim_asymm_v5,2020.2.10,Win32,60,61025ae37ef11b136ea224fe,,,,,,,,,2702,117,-52,1,0,0,response3disk,,5,-12,-10,1,0,0,rectangle,-12,-10,1,0,0,-12,-10,1,0,0,1,11,171,143,1,,,,,,,,
,,,,,,,,,,,,,FF,,,,,,,,1.1499,,,,,,,,,,,,,,,,,,,,,,60ff41d719643e679302c2ec,61036e39f428419531f2ed93,2021-07-29_20h17.42.923,Simcolourproject_2stim_asymm_v5,2020.2.10,Win32,60,61025ae37ef11b136ea224fe,,,,,,,,,1519,149,77,1,0,0,response1disk,,6,2,7,1,0,0,rectangle,2,7,1,0,0,2,7,1,0,0,1,12,172,126,1,,,,,,,,
,,,,,,,,,,,,,FF,,,,,,,,1.4669,,,,,,,,,,,,,,,,,,,,,,60ff41d719643e679302c2ec,61036e39f428419531f2ed93,2021-07-29_20h17.42.923,Simcolourproject_2stim_asymm_v5,2020.2.10,Win32,60,61025ae37ef11b136ea224fe,,,,,,,,,548,-116,-71,1,0,0,response5disk,,2,-4,10,1,0,0,rectangle,-4,10,1,0,0,-4,10,1,0,0,1,13,173,56,1,,,,,,,,
,,,,,,,,,,,,,FF,,,,,,,,1.5496,,,,,,,,,,,,,,,,,,,,,,60ff41d719643e679302c2ec,61036e39f428419531f2ed93,2021-07-29_20h17.42.923,Simcolourproject_2stim_asymm_v5,2020.2.10,Win32,60,61025ae37ef11b136ea224fe,,,,,,,,,534,119,-63,1,0,0,response3disk,,5,1,-9,1,0,0,rectangle,1,-9,1,0,0,1,-9,1,0,0,1,14,174,114,1,,,,,,,,
,,,,,,,,,,,,,FF,,,,,,,,1.3335,,,,,,,,,,,,,,,,,,,,,,60ff41d719643e679302c2ec,61036e39f428419531f2ed93,2021-07-29_20h17.42.923,Simcolourproject_2stim_asymm_v5,2020.2.10,Win32,60,61025ae37ef11b136ea224fe,,,,,,,,,1970,-123,38,1,0,0,response7disk,,1,6,-1,1,0,0,rectangle,6,-1,1,0,0,6,-1,1,0,0,1,15,175,25,1,,,,,,,,
,,,,,,,,,,,,,FF,,,,,,,,1.2998,,,,,,,,,,,,,,,,,,,,,,60ff41d719643e679302c2ec,61036e39f428419531f2ed93,2021-07-29_20h17.42.923,Simcolourproject_2stim_asymm_v5,2020.2.10,Win32,60,61025ae37ef11b136ea224fe,,,,,,,,,3479,-122,-38,1,0,0,response5disk,,2,-2,-3,1,0,0,rectangle,-2,-3,1,0,0,-2,-3,1,0,0,1,16,176,113,1,,,,,,,,
,,,,,,,,,,,,,FF,,,,,,,,1.6499,,,,,,,,,,,,,,,,,,,,,,60ff41d719643e679302c2ec,61036e39f428419531f2ed93,2021-07-29_20h17.42.923,Simcolourproject_2stim_asymm_v5,2020.2.10,Win32,60,61025ae37ef11b136ea224fe,,,,,,,,,3927,129,-53,1,0,0,response3disk,,5,26,-3,1,0,0,rectangle,26,-3,1,0,0,26,-3,1,0,0,1,17,177,73,1,,,,,,,,
,,,,,,,,,,,,,FF,,,,,,,,2.2498,,,,,,,,,,,,,,,,,,,,,,60ff41d719643e679302c2ec,61036e39f428419531f2ed93,2021-07-29_20h17.42.923,Simcolourproject_2stim_asymm_v5,2020.2.10,Win32,60,61025ae37ef11b136ea224fe,,,,,,,,,3739,147,-56,1,0,0,response3disk,,5,-8,2,1,0,0,rectangle,-8,2,1,0,0,-8,2,1,0,0,1,18,178,69,1,,,,,,,,
,,,,,,,,,,,,,FF,,,,,,,,1.2998,,,,,,,,,,,,,,,,,,,,,,60ff41d719643e679302c2ec,61036e39f428419531f2ed93,2021-07-29_20h17.42.923,Simcolourproject_2stim_asymm_v5,2020.2.10,Win32,60,61025ae37ef11b136ea224fe,,,,,,,,,140,67,148,1,0,0,response1disk,,7,-8,-12,1,0,0,rectangle,-8,-12,1,0,0,-8,-12,1,0,0,1,19,179,108,1,,,,,,,,
,,,,,,,,,,,,,FF,,,,,,,,1.0495,,,,,,,,,,,,,,,,,,,,,,60ff41d719643e679302c2ec,61036e39f428419531f2ed93,2021-07-29_20h17.42.923,Simcolourproject_2stim_asymm_v5,2020.2.10,Win32,60,61025ae37ef11b136ea224fe,,,,,,,,,1924,133,46,1,0,0,response1disk,,6,8,4,1,0,0,rectangle,8,4,1,0,0,8,4,1,0,0,1,20,180,112,1,,,,,,,,
,,,,,,,,,,,,,FF,,,,,,,,1.0665,,,,,,,,,,,,,,,,,,,,,,60ff41d719643e679302c2ec,61036e39f428419531f2ed93,2021-07-29_20h17.42.923,Simcolourproject_2stim_asymm_v5,2020.2.10,Win32,60,61025ae37ef11b136ea224fe,,,,,,,,,2911,123,53,1,0,0,response1disk,,6,-17,10,1,0,0,rectangle,-17,10,1,0,0,-17,10,1,0,0,1,21,181,48,1,,,,,,,,
,,,,,,,,,,,,,FF,,,,,,,,0.9833,,,,,,,,,,,,,,,,,,,,,,60ff41d719643e679302c2ec,61036e39f428419531f2ed93,2021-07-29_20h17.42.923,Simcolourproject_2stim_asymm_v5,2020.2.10,Win32,60,61025ae37ef11b136ea224fe,,,,,,,,,4290,123,67,1,0,0,response1disk,,6,-20,3,1,0,0,rectangle,-20,3,1,0,0,-20,3,1,0,0,1,22,182,81,1,,,,,,,,
,,,,,,,,,,,,,FF,,,,,,,,1.1832,,,,,,,,,,,,,,,,,,,,,,60ff41d719643e679302c2ec,61036e39f428419531f2ed93,2021-07-29_20h17.42.923,Simcolourproject_2stim_asymm_v5,2020.2.10,Win32,60,61025ae37ef11b136ea224fe,,,,,,,,,529,-67,-131,1,0,0,response5disk,,3,-10,-8,1,0,0,rectangle,-10,-8,1,0,0,-10,-8,1,0,0,1,23,183,103,1,,,,,,,,
,,,,,,,,,,,,,FF,,,,,,,,1.6,,,,,,,,,,,,,,,,,,,,,,60ff41d719643e679302c2ec,61036e39f428419531f2ed93,2021-07-29_20h17.42.923,Simcolourproject_2stim_asymm_v5,2020.2.10,Win32,60,61025ae37ef11b136ea224fe,,,,,,,,,938,140,42,1,0,0,response1disk,,6,7,-1,1,0,0,rectangle,7,-1,1,0,0,7,-1,1,0,0,1,24,184,12,1,,,,,,,,
,,,,,,,,,,,,,FF,,,,,,,,2.1665,,,,,,,,,,,,,,,,,,,,,,60ff41d719643e679302c2ec,61036e39f428419531f2ed93,2021-07-29_20h17.42.923,Simcolourproject_2stim_asymm_v5,2020.2.10,Win32,60,61025ae37ef11b136ea224fe,,,,,,,,,844,128,69,1,0,0,response1disk,,6,6,-1,1,0,0,rectangle,6,-1,1,0,0,6,-1,1,0,0,1,25,185,57,1,,,,,,,,
,,,,,,,,,,,,,FF,,,,,,,,2.8994,,,,,,,,,,,,,,,,,,,,,,60ff41d719643e679302c2ec,61036e39f428419531f2ed93,2021-07-29_20h17.42.923,Simcolourproject_2stim_asymm_v5,2020.2.10,Win32,60,61025ae37ef11b136ea224fe,,,,,,,,,683,120,-50,1,0,0,response3disk,,5,-3,-1,1,0,0,rectangle,-3,-1,1,0,0,-3,-1,1,0,0,1,26,186,85,1,,,,,,,,
,,,,,,,,,,,,,FF,,,,,,,,1.5498,,,,,,,,,,,,,,,,,,,,,,60ff41d719643e679302c2ec,61036e39f428419531f2ed93,2021-07-29_20h17.42.923,Simcolourproject_2stim_asymm_v5,2020.2.10,Win32,60,61025ae37ef11b136ea224fe,,,,,,,,,3087,64,-139,1,0,0,response3disk,,4,-21,7,1,0,0,rectangle,65,-134,1,0,0,19,-4,1,0,0,1,27,187,7,1,,response3disk_3,TRUE,4,4,"[123,293,142,75,235,86,153,308,244,78,61,167,253,44,144,188,170,129,163,291]",1.5826,rectangle
,,,,,,,,,,,,,FF,,,,,,,,1.4333,,,,,,,,,,,,,,,,,,,,,,60ff41d719643e679302c2ec,61036e39f428419531f2ed93,2021-07-29_20h17.42.923,Simcolourproject_2stim_asymm_v5,2020.2.10,Win32,60,61025ae37ef11b136ea224fe,,,,,,,,,2262,126,69,1,0,0,response1disk,,6,-9,-3,1,0,0,rectangle,-9,-3,1,0,0,-9,-3,1,0,0,1,28,188,140,1,,,,,,,,
,,,,,,,,,,,,,FF,,,,,,,,1.7831,,,,,,,,,,,,,,,,,,,,,,60ff41d719643e679302c2ec,61036e39f428419531f2ed93,2021-07-29_20h17.42.923,Simcolourproject_2stim_asymm_v5,2020.2.10,Win32,60,61025ae37ef11b136ea224fe,,,,,,,,,434,-64,-115,1,0,0,response5disk,,3,-9,-3,1,0,0,rectangle,-9,-3,1,0,0,-9,-3,1,0,0,1,29,189,138,1,,,,,,,,
,,,,,,,,,,,,,FF,,,,,,,,1.1166,,,,,,,,,,,,,,,,,,,,,,60ff41d719643e679302c2ec,61036e39f428419531f2ed93,2021-07-29_20h17.42.923,Simcolourproject_2stim_asymm_v5,2020.2.10,Win32,60,61025ae37ef11b136ea224fe,,,,,,,,,799,-42,-115,1,0,0,response5disk,,3,13,12,1,0,0,rectangle,13,12,1,0,0,13,12,1,0,0,1,30,190,63,1,,,,,,,,
,,,,,,,,,,,,,FF,,,,,,,,1.0667,,,,,,,,,,,,,,,,,,,,,,60ff41d719643e679302c2ec,61036e39f428419531f2ed93,2021-07-29_20h17.42.923,Simcolourproject_2stim_asymm_v5,2020.2.10,Win32,60,61025ae37ef11b136ea224fe,,,,,,,,,1062,-101,-44,1,0,0,response5disk,,2,6,10,1,0,0,rectangle,6,10,1,0,0,6,10,1,0,0,1,31,191,36,1,,,,,,,,
,,,,,,,,,,,,,FF,,,,,,,,2.9994,,,,,,,,,,,,,,,,,,,,,,60ff41d719643e679302c2ec,61036e39f428419531f2ed93,2021-07-29_20h17.42.923,Simcolourproject_2stim_asymm_v5,2020.2.10,Win32,60,61025ae37ef11b136ea224fe,,,,,,,,,2103,-56,-94,1,0,0,response5disk,,3,12,5,1,0,0,rectangle,12,5,1,0,0,12,5,1,0,0,1,32,192,83,1,,,,,,,,
,,,,,,,,,,,,,FF,,,,,,,,1.15,,,,,,,,,,,,,,,,,,,,,,60ff41d719643e679302c2ec,61036e39f428419531f2ed93,2021-07-29_20h17.42.923,Simcolourproject_2stim_asymm_v5,2020.2.10,Win32,60,61025ae37ef11b136ea224fe,,,,,,,,,1832,-53,-131,1,0,0,response5disk,,3,6,13,1,0,0,rectangle,6,13,1,0,0,6,13,1,0,0,1,33,193,0,1,,,,,,,,
,,,,,,,,,,,,,FF,,,,,,,,2.0831,,,,,,,,,,,,,,,,,,,,,,60ff41d719643e679302c2ec,61036e39f428419531f2ed93,2021-07-29_20h17.42.923,Simcolourproject_2stim_asymm_v5,2020.2.10,Win32,60,61025ae37ef11b136ea224fe,,,,,,,,,2650,128,-58,1,0,0,response3disk,,5,-5,7,1,0,0,rectangle,-5,7,1,0,0,-5,7,1,0,0,1,34,194,75,1,,,,,,,,
,,,,,,,,,,,,,FF,,,,,,,,1.6499,,,,,,,,,,,,,,,,,,,,,,60ff41d719643e679302c2ec,61036e39f428419531f2ed93,2021-07-29_20h17.42.923,Simcolourproject_2stim_asymm_v5,2020.2.10,Win32,60,61025ae37ef11b136ea224fe,,,,,,,,,392,137,-74,1,0,0,response3disk,,5,-6,13,1,0,0,rectangle,-6,13,1,0,0,-6,13,1,0,0,1,35,195,72,1,,,,,,,,
,,,,,,,,,,,,,FF,,,,,,,,0.8665,,,,,,,,,,,,,,,,,,,,,,60ff41d719643e679302c2ec,61036e39f428419531f2ed93,2021-07-29_20h17.42.923,Simcolourproject_2stim_asymm_v5,2020.2.10,Win32,60,61025ae37ef11b136ea224fe,,,,,,,,,3058,-63,-126,1,0,0,response5disk,,3,-1,11,1,0,0,rectangle,-1,11,1,0,0,-1,11,1,0,0,1,36,196,159,1,,,,,,,,
,,,,,,,,,,,,,FF,,,,,,,,1.1668,,,,,,,,,,,,,,,,,,,,,,60ff41d719643e679302c2ec,61036e39f428419531f2ed93,2021-07-29_20h17.42.923,Simcolourproject_2stim_asymm_v5,2020.2.10,Win32,60,61025ae37ef11b136ea224fe,,,,,,,,,1927,133,59,1,0,0,response1disk,,6,2,7,1,0,0,rectangle,2,7,1,0,0,2,7,1,0,0,1,37,197,26,1,,,,,,,,
,,,,,,,,,,,,,FF,,,,,,,,3.9492,,,,,,,,,,,,,,,,,,,,,,60ff41d719643e679302c2ec,61036e39f428419531f2ed93,2021-07-29_20h17.42.923,Simcolourproject_2stim_asymm_v5,2020.2.10,Win32,60,61025ae37ef11b136ea224fe,,,,,,,,,3450,127,51,1,0,0,response1disk,,6,-12,15,1,0,0,rectangle,-12,15,1,0,0,-12,15,1,0,0,1,38,198,44,1,,,,,,,,
,,,,,,,,,,,,,FF,,,,,,,,2.2997,,,,,,,,,,,,,,,,,,,,,,60ff41d719643e679302c2ec,61036e39f428419531f2ed93,2021-07-29_20h17.42.923,Simcolourproject_2stim_asymm_v5,2020.2.10,Win32,60,61025ae37ef11b136ea224fe,,,,,,,,,1292,-116,-43,1,0,0,response5disk,,2,-35,2,1,0,0,rectangle,-35,2,1,0,0,-35,2,1,0,0,1,39,199,136,1,,,,,,,,
,,,,,,,,,,,,,FF,,,,,,,,5.0155,,,,,,,,,,,,,,,,,,,,,,60ff41d719643e679302c2ec,61036e39f428419531f2ed93,2021-07-29_20h17.42.923,Simcolourproject_2stim_asymm_v5,2020.2.10,Win32,60,61025ae37ef11b136ea224fe,,,,,,,,,483,52,-117,1,0,0,response3disk,,4,-7,-13,1,0,0,rectangle,-7,-13,1,0,0,-7,-13,1,0,0,1,40,200,115,1,,,,,,,,
,,,,,,,,,,,,,FF,,,,,,,,1.8163,,,,,,,,,,,,,,,,,,,,,,60ff41d719643e679302c2ec,61036e39f428419531f2ed93,2021-07-29_20h17.42.923,Simcolourproject_2stim_asymm_v5,2020.2.10,Win32,60,61025ae37ef11b136ea224fe,,,,,,,,,1027,125,-55,1,0,0,response3disk,,5,-16,6,1,0,0,rectangle,-16,6,1,0,0,-16,6,1,0,0,1,41,201,134,1,,,,,,,,
,,,,,,,,,,,,,FF,,,,,,,,3.6494,,,,,,,,,,,,,,,,,,,,,,60ff41d719643e679302c2ec,61036e39f428419531f2ed93,2021-07-29_20h17.42.923,Simcolourproject_2stim_asymm_v5,2020.2.10,Win32,60,61025ae37ef11b136ea224fe,,,,,,,,,1272,145,-71,1,0,0,response3disk,,5,20,-1,1,0,0,rectangle,20,-1,1,0,0,20,-1,1,0,0,1,42,202,39,1,,,,,,,,
,,,,,,,,,,,,,FF,,,,,,,,1.5665,,,,,,,,,,,,,,,,,,,,,,60ff41d719643e679302c2ec,61036e39f428419531f2ed93,2021-07-29_20h17.42.923,Simcolourproject_2stim_asymm_v5,2020.2.10,Win32,60,61025ae37ef11b136ea224fe,,,,,,,,,3392,-117,60,1,0,0,response7disk,,1,-16,9,1,0,0,rectangle,-16,9,1,0,0,-16,9,1,0,0,1,43,203,141,1,,,,,,,,
,,,,,,,,,,,,,FF,,,,,,,,4.9326,,,,,,,,,,,,,,,,,,,,,,60ff41d719643e679302c2ec,61036e39f428419531f2ed93,2021-07-29_20h17.42.923,Simcolourproject_2stim_asymm_v5,2020.2.10,Win32,60,61025ae37ef11b136ea224fe,,,,,,,,,2324,50,-135,1,0,0,response3disk,,4,5,10,1,0,0,rectangle,5,10,1,0,0,5,10,1,0,0,1,44,204,133,1,,,,,,,,
,,,,,,,,,,,,,FF,,,,,,,,0.8502,,,,,,,,,,,,,,,,,,,,,,60ff41d719643e679302c2ec,61036e39f428419531f2ed93,2021-07-29_20h17.42.923,Simcolourproject_2stim_asymm_v5,2020.2.10,Win32,60,61025ae37ef11b136ea224fe,,,,,,,,,1596,-56,119,1,0,0,response7disk,,0,-5,-15,1,0,0,rectangle,-5,-15,1,0,0,-5,-15,1,0,0,1,45,205,146,1,,,,,,,,
,,,,,,,,,,,,,FF,,,,,,,,2.3329,,,,,,,,,,,,,,,,,,,,,,60ff41d719643e679302c2ec,61036e39f428419531f2ed93,2021-07-29_20h17.42.923,Simcolourproject_2stim_asymm_v5,2020.2.10,Win32,60,61025ae37ef11b136ea224fe,,,,,,,,,788,-60,-113,1,0,0,response5disk,,3,-7,-4,1,0,0,rectangle,-7,-4,1,0,0,-7,-4,1,0,0,1,46,206,23,1,,,,,,,,
,,,,,,,,,,,,,FF,,,,,,,,1.8169,,,,,,,,,,,,,,,,,,,,,,60ff41d719643e679302c2ec,61036e39f428419531f2ed93,2021-07-29_20h17.42.923,Simcolourproject_2stim_asymm_v5,2020.2.10,Win32,60,61025ae37ef11b136ea224fe,,,,,,,,,3302,47,-127,1,0,0,response3disk,,4,-6,2,1,0,0,rectangle,-6,2,1,0,0,-6,2,1,0,0,1,47,207,40,1,,,,,,,,
,,,,,,,,,,,,,FF,,,,,,,,1.5331,,,,,,,,,,,,,,,,,,,,,,60ff41d719643e679302c2ec,61036e39f428419531f2ed93,2021-07-29_20h17.42.923,Simcolourproject_2stim_asymm_v5,2020.2.10,Win32,60,61025ae37ef11b136ea224fe,,,,,,,,,460,-67,-109,1,0,0,response5disk,,3,0,0,1,0,0,rectangle,0,0,1,0,0,0,0,1,0,0,1,48,208,128,1,,,,,,,,
,,,,,,,,,,,,,FF,,,,,,,,1.2997,,,,,,,,,,,,,,,,,,,,,,60ff41d719643e679302c2ec,61036e39f428419531f2ed93,2021-07-29_20h17.42.923,Simcolourproject_2stim_asymm_v5,2020.2.10,Win32,60,61025ae37ef11b136ea224fe,,,,,,,,,579,77,-147,1,0,0,response3disk,,4,1,-2,1,0,0,rectangle,1,-2,1,0,0,1,-2,1,0,0,1,49,209,13,1,,,,,,,,
,,,,,,,,,,,,,FF,,,,,,,,3.4328,,,,,,,,,,,,,,,,,,,,,,60ff41d719643e679302c2ec,61036e39f428419531f2ed93,2021-07-29_20h17.42.923,Simcolourproject_2stim_asymm_v5,2020.2.10,Win32,60,61025ae37ef11b136ea224fe,,,,,,,,,237,130,-42,1,0,0,response3disk,,5,21,-5,1,0,0,rectangle,21,-5,1,0,0,21,-5,1,0,0,1,50,210,41,1,,,,,,,,
,,,,,,,,,,,,,FF,,,,,,,,1.4844,,,,,,,,,,,,,,,,,,,,,,60ff41d719643e679302c2ec,61036e39f428419531f2ed93,2021-07-29_20h17.42.923,Simcolourproject_2stim_asymm_v5,2020.2.10,Win32,60,61025ae37ef11b136ea224fe,,,,,,,,,2770,-141,-57,1,0,0,response5disk,,2,-20,4,1,0,0,rectangle,-20,4,1,0,0,-20,4,1,0,0,1,51,211,88,1,,,,,,,,
,,,,,,,,,,,,,FF,,,,,,,,1.6165,,,,,,,,,,,,,,,,,,,,,,60ff41d719643e679302c2ec,61036e39f428419531f2ed93,2021-07-29_20h17.42.923,Simcolourproject_2stim_asymm_v5,2020.2.10,Win32,60,61025ae37ef11b136ea224fe,,,,,,,,,2035,-49,-131,1,0,0,response5disk,,3,11,-7,1,0,0,rectangle,11,-7,1,0,0,11,-7,1,0,0,1,52,212,129,1,,,,,,,,
,,,,,,,,,,,,,FF,,,,,,,,3.4494,,,,,,,,,,,,,,,,,,,,,,60ff41d719643e679302c2ec,61036e39f428419531f2ed93,2021-07-29_20h17.42.923,Simcolourproject_2stim_asymm_v5,2020.2.10,Win32,60,61025ae37ef11b136ea224fe,,,,,,,,,2628,139,-50,1,0,0,response3disk,,5,24,-2,1,0,0,rectangle,24,-2,1,0,0,24,-2,1,0,0,1,53,213,119,1,,,,,,,,
,,,,,,,,,,,,,FF,,,,,,,,3.1161,,,,,,,,,,,,,,,,,,,,,,60ff41d719643e679302c2ec,61036e39f428419531f2ed93,2021-07-29_20h17.42.923,Simcolourproject_2stim_asymm_v5,2020.2.10,Win32,60,61025ae37ef11b136ea224fe,,,,,,,,,3820,63,-130,1,0,0,response3disk,,4,-11,3,1,0,0,rectangle,-11,3,1,0,0,-11,3,1,0,0,1,54,214,20,1,,,,,,,,
,,,,,,,,,,,,,FF,,,,,,,,4.4824,,,,,,,,,,,,,,,,,,,,,,60ff41d719643e679302c2ec,61036e39f428419531f2ed93,2021-07-29_20h17.42.923,Simcolourproject_2stim_asymm_v5,2020.2.10,Win32,60,61025ae37ef11b136ea224fe,,,,,,,,,4265,135,-74,1,0,0,response3disk,,5,15,2,1,0,0,rectangle,15,2,1,0,0,15,2,1,0,0,1,55,215,66,1,,,,,,,,
,,,,,,,,,,,,,FF,,,,,,,,8.3322,,,,,,,,,,,,,,,,,,,,,,60ff41d719643e679302c2ec,61036e39f428419531f2ed93,2021-07-29_20h17.42.923,Simcolourproject_2stim_asymm_v5,2020.2.10,Win32,60,61025ae37ef11b136ea224fe,,,,,,,,,23,117,-71,1,0,0,response3disk,,5,1,-12,1,0,0,rectangle,1,-12,1,0,0,1,-12,1,0,0,1,56,216,9,1,,,,,,,,
,,,,,,,,,,,,,FF,,,,,,,,2.6494,,,,,,,,,,,,,,,,,,,,,,60ff41d719643e679302c2ec,61036e39f428419531f2ed93,2021-07-29_20h17.42.923,Simcolourproject_2stim_asymm_v5,2020.2.10,Win32,60,61025ae37ef11b136ea224fe,,,,,,,,,594,119,-66,1,0,0,response3disk,,5,11,0,1,0,0,rectangle,11,0,1,0,0,11,0,1,0,0,1,57,217,99,1,,,,,,,,
,,,,,,,,,,,,,FF,,,,,,,,2.2827,,,,,,,,,,,,,,,,,,,,,,60ff41d719643e679302c2ec,61036e39f428419531f2ed93,2021-07-29_20h17.42.923,Simcolourproject_2stim_asymm_v5,2020.2.10,Win32,60,61025ae37ef11b136ea224fe,,,,,,,,,3642,125,52,1,0,0,response1disk,,6,7,1,1,0,0,rectangle,7,1,1,0,0,7,1,1,0,0,1,58,218,1,1,,,,,,,,
,,,,,,,,,,,,,FF,,,,,,,,3.7659,,,,,,,,,,,,,,,,,,,,,,60ff41d719643e679302c2ec,61036e39f428419531f2ed93,2021-07-29_20h17.42.923,Simcolourproject_2stim_asymm_v5,2020.2.10,Win32,60,61025ae37ef11b136ea224fe,,,,,,,,,2307,52,-145,1,0,0,response3disk,,4,-2,-1,1,0,0,rectangle,-2,-1,1,0,0,-2,-1,1,0,0,1,59,219,157,1,,,,,,,,
,,,,,,,,,,,,,FF,,,,,,,,4.8827,,,,,,,,,,,,,,,,,,,,,,60ff41d719643e679302c2ec,61036e39f428419531f2ed93,2021-07-29_20h17.42.923,Simcolourproject_2stim_asymm_v5,2020.2.10,Win32,60,61025ae37ef11b136ea224fe,,,,,,,,,2078,45,-137,1,0,0,response3disk,,4,11,-8,1,0,0,rectangle,11,-8,1,0,0,11,-8,1,0,0,1,60,220,124,1,,,,,,,,
,,,,,,,,,,,,,FF,,,,,,,,1.4498,,,,,,,,,,,,,,,,,,,,,,60ff41d719643e679302c2ec,61036e39f428419531f2ed93,2021-07-29_20h17.42.923,Simcolourproject_2stim_asymm_v5,2020.2.10,Win32,60,61025ae37ef11b136ea224fe,,,,,,,,,477,-56,-137,1,0,0,response5disk,,3,4,-10,1,0,0,rectangle,4,-10,1,0,0,4,-10,1,0,0,1,61,221,120,1,,,,,,,,
,,,,,,,,,,,,,FF,,,,,,,,1.0165,,,,,,,,,,,,,,,,,,,,,,60ff41d719643e679302c2ec,61036e39f428419531f2ed93,2021-07-29_20h17.42.923,Simcolourproject_2stim_asymm_v5,2020.2.10,Win32,60,61025ae37ef11b136ea224fe,,,,,,,,,973,-113,42,1,0,0,response7disk,,1,6,4,1,0,0,rectangle,6,4,1,0,0,6,4,1,0,0,1,62,222,3,1,,,,,,,,
,,,,,,,,,,,,,FF,,,,,,,,1.6163,,,,,,,,,,,,,,,,,,,,,,60ff41d719643e679302c2ec,61036e39f428419531f2ed93,2021-07-29_20h17.42.923,Simcolourproject_2stim_asymm_v5,2020.2.10,Win32,60,61025ae37ef11b136ea224fe,,,,,,,,,1655,119,-55,1,0,0,response3disk,,5,-12,0,1,0,0,rectangle,-12,0,1,0,0,-12,0,1,0,0,1,63,223,105,1,,,,,,,,
,,,,,,,,,,,,,FF,,,,,,,,1.0668,,,,,,,,,,,,,,,,,,,,,,60ff41d719643e679302c2ec,61036e39f428419531f2ed93,2021-07-29_20h17.42.923,Simcolourproject_2stim_asymm_v5,2020.2.10,Win32,60,61025ae37ef11b136ea224fe,,,,,,,,,2302,-99,-55,1,0,0,response5disk,,2,-4,-5,1,0,0,rectangle,-4,-5,1,0,0,-4,-5,1,0,0,1,64,224,110,1,,,,,,,,
,,,,,,,,,,,,,FF,,,,,,,,0.9197,,,,,,,,,,,,,,,,,,,,,,60ff41d719643e679302c2ec,61036e39f428419531f2ed93,2021-07-29_20h17.42.923,Simcolourproject_2stim_asymm_v5,2020.2.10,Win32,60,61025ae37ef11b136ea224fe,,,,,,,,,1648,69,118,1,0,0,response1disk,,7,25,4,1,0,0,rectangle,25,4,1,0,0,25,4,1,0,0,1,65,225,38,1,,,,,,,,
,,,,,,,,,,,,,FF,,,,,,,,2.1164,,,,,,,,,,,,,,,,,,,,,,60ff41d719643e679302c2ec,61036e39f428419531f2ed93,2021-07-29_20h17.42.923,Simcolourproject_2stim_asymm_v5,2020.2.10,Win32,60,61025ae37ef11b136ea224fe,,,,,,,,,3665,-115,-53,1,0,0,response5disk,,2,-11,-12,1,0,0,rectangle,-11,-12,1,0,0,-11,-12,1,0,0,1,66,226,27,1,,,,,,,,
,,,,,,,,,,,,,FF,,,,,,,,1.1164,,,,,,,,,,,,,,,,,,,,,,60ff41d719643e679302c2ec,61036e39f428419531f2ed93,2021-07-29_20h17.42.923,Simcolourproject_2stim_asymm_v5,2020.2.10,Win32,60,61025ae37ef11b136ea224fe,,,,,,,,,1514,82,-145,1,0,0,response3disk,,4,1,14,1,0,0,rectangle,1,14,1,0,0,1,14,1,0,0,1,67,227,34,1,,,,,,,,
,,,,,,,,,,,,,FF,,,,,,,,1.2663,,,,,,,,,,,,,,,,,,,,,,60ff41d719643e679302c2ec,61036e39f428419531f2ed93,2021-07-29_20h17.42.923,Simcolourproject_2stim_asymm_v5,2020.2.10,Win32,60,61025ae37ef11b136ea224fe,,,,,,,,,4358,-108,-42,1,0,0,response5disk,,2,-3,13,1,0,0,rectangle,-3,13,1,0,0,-3,13,1,0,0,1,68,228,130,1,,,,,,,,
,,,,,,,,,,,,,FF,,,,,,,,1.4332,,,,,,,,,,,,,,,,,,,,,,60ff41d719643e679302c2ec,61036e39f428419531f2ed93,2021-07-29_20h17.42.923,Simcolourproject_2stim_asymm_v5,2020.2.10,Win32,60,61025ae37ef11b136ea224fe,,,,,,,,,4042,-58,-141,1,0,0,response5disk,,3,3,-18,1,0,0,rectangle,3,-18,1,0,0,3,-18,1,0,0,1,69,229,47,1,,,,,,,,
,,,,,,,,,,,,,FF,,,,,,,,1.1831,,,,,,,,,,,,,,,,,,,,,,60ff41d719643e679302c2ec,61036e39f428419531f2ed93,2021-07-29_20h17.42.923,Simcolourproject_2stim_asymm_v5,2020.2.10,Win32,60,61025ae37ef11b136ea224fe,,,,,,,,,3908,-115,-62,1,0,0,response5disk,,2,3,-3,1,0,0,rectangle,3,-3,1,0,0,3,-3,1,0,0,1,70,230,148,1,,,,,,,,
,,,,,,,,,,,,,FF,,,,,,,,0.7669,,,,,,,,,,,,,,,,,,,,,,60ff41d719643e679302c2ec,61036e39f428419531f2ed93,2021-07-29_20h17.42.923,Simcolourproject_2stim_asymm_v5,2020.2.10,Win32,60,61025ae37ef11b136ea224fe,,,,,,,,,2166,-116,54,1,0,0,response7disk,,1,-7,2,1,0,0,rectangle,-7,2,1,0,0,-7,2,1,0,0,1,71,231,151,1,,,,,,,,
,,,,,,,,,,,,,FF,,,,,,,,0.8667,,,,,,,,,,,,,,,,,,,,,,60ff41d719643e679302c2ec,61036e39f428419531f2ed93,2021-07-29_20h17.42.923,Simcolourproject_2stim_asymm_v5,2020.2.10,Win32,60,61025ae37ef11b136ea224fe,,,,,,,,,3054,-110,39,1,0,0,response7disk,,1,-7,0,1,0,0,rectangle,-7,0,1,0,0,-7,0,1,0,0,1,72,232,64,1,,,,,,,,
,,,,,,,,,,,,,FF,,,,,,,,0.9668,,,,,,,,,,,,,,,,,,,,,,60ff41d719643e679302c2ec,61036e39f428419531f2ed93,2021-07-29_20h17.42.923,Simcolourproject_2stim_asymm_v5,2020.2.10,Win32,60,61025ae37ef11b136ea224fe,,,,,,,,,2737,-78,-138,1,0,0,response5disk,,3,17,-5,1,0,0,rectangle,17,-5,1,0,0,17,-5,1,0,0,1,73,233,30,1,,,,,,,,
,,,,,,,,,,,,,FF,,,,,,,,1.65,,,,,,,,,,,,,,,,,,,,,,60ff41d719643e679302c2ec,61036e39f428419531f2ed93,2021-07-29_20h17.42.923,Simcolourproject_2stim_asymm_v5,2020.2.10,Win32,60,61025ae37ef11b136ea224fe,,,,,,,,,4301,127,-82,1,0,0,response3disk,,5,-7,-15,1,0,0,rectangle,-111,-46,1,0,0,-22,-6,1,0,0,1,74,234,70,1,,response5disk_3,TRUE,2,2,"[123,293,142,75,235,86,153,308,244,78,61,167,253,44,144,188,170,129,163,291]",1.5342,rectangle
,,,,,,,,,,,,,FF,,,,,,,,3.5159,,,,,,,,,,,,,,,,,,,,,,60ff41d719643e679302c2ec,61036e39f428419531f2ed93,2021-07-29_20h17.42.923,Simcolourproject_2stim_asymm_v5,2020.2.10,Win32,60,61025ae37ef11b136ea224fe,,,,,,,,,721,89,-132,1,0,0,response3disk,,4,7,20,1,0,0,rectangle,7,20,1,0,0,7,20,1,0,0,1,75,235,50,1,,,,,,,,
,,,,,,,,,,,,,FF,,,,,,,,1.6497,,,,,,,,,,,,,,,,,,,,,,60ff41d719643e679302c2ec,61036e39f428419531f2ed93,2021-07-29_20h17.42.923,Simcolourproject_2stim_asymm_v5,2020.2.10,Win32,60,61025ae37ef11b136ea224fe,,,,,,,,,3217,141,-53,1,0,0,response3disk,,5,13,-2,1,0,0,rectangle,13,-2,1,0,0,13,-2,1,0,0,1,76,236,8,1,,,,,,,,
,,,,,,,,,,,,,FF,,,,,,,,1.1332,,,,,,,,,,,,,,,,,,,,,,60ff41d719643e679302c2ec,61036e39f428419531f2ed93,2021-07-29_20h17.42.923,Simcolourproject_2stim_asymm_v5,2020.2.10,Win32,60,61025ae37ef11b136ea224fe,,,,,,,,,2845,-61,-129,1,0,0,response5disk,,3,-2,-15,1,0,0,rectangle,-2,-15,1,0,0,-2,-15,1,0,0,1,77,237,68,1,,,,,,,,
,,,,,,,,,,,,,FF,,,,,,,,1.2166,,,,,,,,,,,,,,,,,,,,,,60ff41d719643e679302c2ec,61036e39f428419531f2ed93,2021-07-29_20h17.42.923,Simcolourproject_2stim_asymm_v5,2020.2.10,Win32,60,61025ae37ef11b136ea224fe,,,,,,,,,1311,-64,-119,1,0,0,response5disk,,3,-3,-6,1,0,0,rectangle,-3,-6,1,0,0,-3,-6,1,0,0,1,78,238,92,1,,,,,,,,
,,,,,,,,,,,,,FF,,,,,,,,0.8666,,,,,,,,,,,,,,,,,,,,,,60ff41d719643e679302c2ec,61036e39f428419531f2ed93,2021-07-29_20h17.42.923,Simcolourproject_2stim_asymm_v5,2020.2.10,Win32,60,61025ae37ef11b136ea224fe,,,,,,,,,3673,-131,-63,1,0,0,response5disk,,2,6,-1,1,0,0,rectangle,6,-1,1,0,0,6,-1,1,0,0,1,79,239,45,1,,,,,,,,
,,,,,,,,,,,,,FF,,,,,,,,0.8499,,,,,,,,,,,,,,,,,,,,,,60ff41d719643e679302c2ec,61036e39f428419531f2ed93,2021-07-29_20h17.42.923,Simcolourproject_2stim_asymm_v5,2020.2.10,Win32,60,61025ae37ef11b136ea224fe,,,,,,,,,205,-62,-132,1,0,0,response5disk,,3,-8,-3,1,0,0,rectangle,-8,-3,1,0,0,-8,-3,1,0,0,1,80,240,150,1,,,,,,,,
,,,,,,,,,,,,,FF,,,,,,,,0.9836,,,,,,,,,,,,,,,,,,,,,,60ff41d719643e679302c2ec,61036e39f428419531f2ed93,2021-07-29_20h17.42.923,Simcolourproject_2stim_asymm_v5,2020.2.10,Win32,60,61025ae37ef11b136ea224fe,,,,,,,,,2167,-54,153,1,0,0,response7disk,,0,-3,16,1,0,0,rectangle,-3,16,1,0,0,-3,16,1,0,0,1,81,241,98,1,,,,,,,,
,,,,,,,,,,,,,FF,,,,,,,,2.1162,,,,,,,,,,,,,,,,,,,,,,60ff41d719643e679302c2ec,61036e39f428419531f2ed93,2021-07-29_20h17.42.923,Simcolourproject_2stim_asymm_v5,2020.2.10,Win32,60,61025ae37ef11b136ea224fe,,,,,,,,,1661,-120,-67,1,0,0,response5disk,,2,5,-11,1,0,0,rectangle,5,-11,1,0,0,5,-11,1,0,0,1,82,242,154,1,,,,,,,,
,,,,,,,,,,,,,FF,,,,,,,,1.4665,,,,,,,,,,,,,,,,,,,,,,60ff41d719643e679302c2ec,61036e39f428419531f2ed93,2021-07-29_20h17.42.923,Simcolourproject_2stim_asymm_v5,2020.2.10,Win32,60,61025ae37ef11b136ea224fe,,,,,,,,,4196,66,-129,1,0,0,response3disk,,4,24,8,1,0,0,rectangle,111,-55,1,0,0,21,-12,1,0,0,1,83,243,21,1,,response3disk_3,TRUE,5,5,"[123,293,142,75,235,86,153,308,244,78,61,167,253,44,144,188,170,129,163,291]",1.6002,rectangle
,,,,,,,,,,,,,FF,,,,,,,,3.0328,,,,,,,,,,,,,,,,,,,,,,60ff41d719643e679302c2ec,61036e39f428419531f2ed93,2021-07-29_20h17.42.923,Simcolourproject_2stim_asymm_v5,2020.2.10,Win32,60,61025ae37ef11b136ea224fe,,,,,,,,,2939,61,-127,1,0,0,response3disk,,4,14,-5,1,0,0,rectangle,14,-5,1,0,0,14,-5,1,0,0,1,84,244,59,1,,,,,,,,
,,,,,,,,,,,,,FF,,,,,,,,0.8998,,,,,,,,,,,,,,,,,,,,,,60ff41d719643e679302c2ec,61036e39f428419531f2ed93,2021-07-29_20h17.42.923,Simcolourproject_2stim_asymm_v5,2020.2.10,Win32,60,61025ae37ef11b136ea224fe,,,,,,,,,3004,-59,-115,1,0,0,response5disk,,3,-20,-9,1,0,0,rectangle,-20,-9,1,0,0,-20,-9,1,0,0,1,85,245,32,1,,,,,,,,
,,,,,,,,,,,,,FF,,,,,,,,1.2999,,,,,,,,,,,,,,,,,,,,,,60ff41d719643e679302c2ec,61036e39f428419531f2ed93,2021-07-29_20h17.42.923,Simcolourproject_2stim_asymm_v5,2020.2.10,Win32,60,61025ae37ef11b136ea224fe,,,,,,,,,2642,127,64,1,0,0,response1disk,,6,5,0,1,0,0,rectangle,5,0,1,0,0,5,0,1,0,0,1,86,246,107,1,,,,,,,,
,,,,,,,,,,,,,FF,,,,,,,,2.2829,,,,,,,,,,,,,,,,,,,,,,60ff41d719643e679302c2ec,61036e39f428419531f2ed93,2021-07-29_20h17.42.923,Simcolourproject_2stim_asymm_v5,2020.2.10,Win32,60,61025ae37ef11b136ea224fe,,,,,,,,,853,127,50,1,0,0,response1disk,,6,-15,-10,1,0,0,rectangle,-15,-10,1,0,0,-15,-10,1,0,0,1,87,247,137,1,,,,,,,,
,,,,,,,,,,,,,FF,,,,,,,,3.0993,,,,,,,,,,,,,,,,,,,,,,60ff41d719643e679302c2ec,61036e39f428419531f2ed93,2021-07-29_20h17.42.923,Simcolourproject_2stim_asymm_v5,2020.2.10,Win32,60,61025ae37ef11b136ea224fe,,,,,,,,,3407,109,-36,1,0,0,response3disk,,5,1,-5,1,0,0,rectangle,1,-5,1,0,0,1,-5,1,0,0,1,88,248,155,1,,,,,,,,
,,,,,,,,,,,,,FF,,,,,,,,1.7497,,,,,,,,,,,,,,,,,,,,,,60ff41d719643e679302c2ec,61036e39f428419531f2ed93,2021-07-29_20h17.42.923,Simcolourproject_2stim_asymm_v5,2020.2.10,Win32,60,61025ae37ef11b136ea224fe,,,,,,,,,3119,124,49,1,0,0,response1disk,,6,7,6,1,0,0,rectangle,7,6,1,0,0,7,6,1,0,0,1,89,249,97,1,,,,,,,,
,,,,,,,,,,,,,FF,,,,,,,,2.3164,,,,,,,,,,,,,,,,,,,,,,60ff41d719643e679302c2ec,61036e39f428419531f2ed93,2021-07-29_20h17.42.923,Simcolourproject_2stim_asymm_v5,2020.2.10,Win32,60,61025ae37ef11b136ea224fe,,,,,,,,,3129,72,116,1,0,0,response1disk,,7,-2,-16,1,0,0,rectangle,-2,-16,1,0,0,-2,-16,1,0,0,1,90,250,111,1,,,,,,,,
,,,,,,,,,,,,,FF,,,,,,,,1.0798,,,,,,,,,,,,,,,,,,,,,,60ff41d719643e679302c2ec,61036e39f428419531f2ed93,2021-07-29_20h17.42.923,Simcolourproject_2stim_asymm_v5,2020.2.10,Win32,60,61025ae37ef11b136ea224fe,,,,,,,,,394,-49,-116,1,0,0,response5disk,,3,1,11,1,0,0,rectangle,1,11,1,0,0,1,11,1,0,0,1,91,251,31,1,,,,,,,,
,,,,,,,,,,,,,FF,,,,,,,,0.9334,,,,,,,,,,,,,,,,,,,,,,60ff41d719643e679302c2ec,61036e39f428419531f2ed93,2021-07-29_20h17.42.923,Simcolourproject_2stim_asymm_v5,2020.2.10,Win32,60,61025ae37ef11b136ea224fe,,,,,,,,,2039,-126,-51,1,0,0,response5disk,,2,-11,5,1,0,0,rectangle,57,-121,1,0,0,2,0,1,0,0,1,92,252,156,1,,response3disk_3,TRUE,4,4,"[123,293,142,75,235,86,153,308,244,78,61,167,253,44,144,188,170,129,163,291]",1.9331,rectangle
,,,,,,,,,,,,,FF,,,,,,,,1.9496,,,,,,,,,,,,,,,,,,,,,,60ff41d719643e679302c2ec,61036e39f428419531f2ed93,2021-07-29_20h17.42.923,Simcolourproject_2stim_asymm_v5,2020.2.10,Win32,60,61025ae37ef11b136ea224fe,,,,,,,,,4059,-128,42,1,0,0,response7disk,,1,1,-13,1,0,0,rectangle,1,-13,1,0,0,1,-13,1,0,0,1,93,253,16,1,,,,,,,,
,,,,,,,,,,,,,FF,,,,,,,,4.649,,,,,,,,,,,,,,,,,,,,,,60ff41d719643e679302c2ec,61036e39f428419531f2ed93,2021-07-29_20h17.42.923,Simcolourproject_2stim_asymm_v5,2020.2.10,Win32,60,61025ae37ef11b136ea224fe,,,,,,,,,879,66,-134,1,0,0,response3disk,,4,18,-4,1,0,0,rectangle,18,-4,1,0,0,18,-4,1,0,0,1,94,254,37,1,,,,,,,,
,,,,,,,,,,,,,FF,,,,,,,,0.8501,,,,,,,,,,,,,,,,,,,,,,60ff41d719643e679302c2ec,61036e39f428419531f2ed93,2021-07-29_20h17.42.923,Simcolourproject_2stim_asymm_v5,2020.2.10,Win32,60,61025ae37ef11b136ea224fe,,,,,,,,,2411,-122,-63,1,0,0,response5disk,,2,-16,3,1,0,0,rectangle,-16,3,1,0,0,-16,3,1,0,0,1,95,255,145,1,,,,,,,,
,,,,,,,,,,,,,FF,,,,,,,,3.4492,,,,,,,,,,,,,,,,,,,,,,60ff41d719643e679302c2ec,61036e39f428419531f2ed93,2021-07-29_20h17.42.923,Simcolourproject_2stim_asymm_v5,2020.2.10,Win32,60,61025ae37ef11b136ea224fe,,,,,,,,,3769,124,-49,1,0,0,response3disk,,5,8,4,1,0,0,rectangle,8,4,1,0,0,8,4,1,0,0,1,96,256,122,1,,,,,,,,
,,,,,,,,,,,,,FF,,,,,,,,1.3635,,,,,,,,,,,,,,,,,,,,,,60ff41d719643e679302c2ec,61036e39f428419531f2ed93,2021-07-29_20h17.42.923,Simcolourproject_2stim_asymm_v5,2020.2.10,Win32,60,61025ae37ef11b136ea224fe,,,,,,,,,3860,-53,-149,1,0,0,response5disk,,3,-11,7,1,0,0,rectangle,-11,7,1,0,0,-11,7,1,0,0,1,97,257,60,1,,,,,,,,
,,,,,,,,,,,,,FF,,,,,,,,1.5166,,,,,,,,,,,,,,,,,,,,,,60ff41d719643e679302c2ec,61036e39f428419531f2ed93,2021-07-29_20h17.42.923,Simcolourproject_2stim_asymm_v5,2020.2.10,Win32,60,61025ae37ef11b136ea224fe,,,,,,,,,3494,136,-52,1,0,0,response3disk,,5,11,-2,1,0,0,rectangle,11,-2,1,0,0,11,-2,1,0,0,1,98,258,77,1,,,,,,,,
,,,,,,,,,,,,,FF,,,,,,,,1.9828,,,,,,,,,,,,,,,,,,,,,,60ff41d719643e679302c2ec,61036e39f428419531f2ed93,2021-07-29_20h17.42.923,Simcolourproject_2stim_asymm_v5,2020.2.10,Win32,60,61025ae37ef11b136ea224fe,,,,,,,,,521,59,-125,1,0,0,response3disk,,4,3,5,1,0,0,rectangle,3,5,1,0,0,3,5,1,0,0,1,99,259,76,1,,,,,,,,
,,,,,,,,,,,,,FF,,,,,,,,1.2663,,,,,,,,,,,,,,,,,,,,,,60ff41d719643e679302c2ec,61036e39f428419531f2ed93,2021-07-29_20h17.42.923,Simcolourproject_2stim_asymm_v5,2020.2.10,Win32,60,61025ae37ef11b136ea224fe,,,,,,,,,4355,83,-130,1,0,0,response3disk,,4,12,-2,1,0,0,rectangle,12,-2,1,0,0,12,-2,1,0,0,1,100,260,109,1,,,,,,,,
,,,,,,,,,,,,,FF,,,,,,,,1.0163,,,,,,,,,,,,,,,,,,,,,,60ff41d719643e679302c2ec,61036e39f428419531f2ed93,2021-07-29_20h17.42.923,Simcolourproject_2stim_asymm_v5,2020.2.10,Win32,60,61025ae37ef11b136ea224fe,,,,,,,,,3290,-57,134,1,0,0,response7disk,,0,-6,10,1,0,0,rectangle,-6,10,1,0,0,-6,10,1,0,0,1,101,261,100,1,,,,,,,,
,,,,,,,,,,,,,FF,,,,,,,,1.1332,,,,,,,,,,,,,,,,,,,,,,60ff41d719643e679302c2ec,61036e39f428419531f2ed93,2021-07-29_20h17.42.923,Simcolourproject_2stim_asymm_v5,2020.2.10,Win32,60,61025ae37ef11b136ea224fe,,,,,,,,,3547,-117,-70,1,0,0,response5disk,,2,7,-2,1,0,0,rectangle,7,-2,1,0,0,7,-2,1,0,0,1,102,262,67,1,,,,,,,,
,,,,,,,,,,,,,FF,,,,,,,,1.1165,,,,,,,,,,,,,,,,,,,,,,60ff41d719643e679302c2ec,61036e39f428419531f2ed93,2021-07-29_20h17.42.923,Simcolourproject_2stim_asymm_v5,2020.2.10,Win32,60,61025ae37ef11b136ea224fe,,,,,,,,,3627,-100,-57,1,0,0,response5disk,,2,2,-2,1,0,0,rectangle,2,-2,1,0,0,2,-2,1,0,0,1,103,263,29,1,,,,,,,,
,,,,,,,,,,,,,FF,,,,,,,,1.0331,,,,,,,,,,,,,,,,,,,,,,60ff41d719643e679302c2ec,61036e39f428419531f2ed93,2021-07-29_20h17.42.923,Simcolourproject_2stim_asymm_v5,2020.2.10,Win32,60,61025ae37ef11b136ea224fe,,,,,,,,,2298,-89,44,1,0,0,response7disk,,1,-13,3,1,0,0,rectangle,-13,3,1,0,0,-13,3,1,0,0,1,104,264,118,1,,,,,,,,
,,,,,,,,,,,,,FF,,,,,,,,2.8754,,,,,,,,,,,,,,,,,,,,,,60ff41d719643e679302c2ec,61036e39f428419531f2ed93,2021-07-29_20h17.42.923,Simcolourproject_2stim_asymm_v5,2020.2.10,Win32,60,61025ae37ef11b136ea224fe,,,,,,,,,1878,113,-75,1,0,0,response3disk,,5,1,-10,1,0,0,rectangle,1,-10,1,0,0,1,-10,1,0,0,1,105,265,5,1,,,,,,,,
,,,,,,,,,,,,,FF,,,,,,,,1.3664,,,,,,,,,,,,,,,,,,,,,,60ff41d719643e679302c2ec,61036e39f428419531f2ed93,2021-07-29_20h17.42.923,Simcolourproject_2stim_asymm_v5,2020.2.10,Win32,60,61025ae37ef11b136ea224fe,,,,,,,,,2495,49,-124,1,0,0,response3disk,,4,-3,-4,1,0,0,rectangle,-3,-4,1,0,0,-3,-4,1,0,0,1,106,266,102,1,,,,,,,,
,,,,,,,,,,,,,FF,,,,,,,,0.9997,,,,,,,,,,,,,,,,,,,,,,60ff41d719643e679302c2ec,61036e39f428419531f2ed93,2021-07-29_20h17.42.923,Simcolourproject_2stim_asymm_v5,2020.2.10,Win32,60,61025ae37ef11b136ea224fe,,,,,,,,,2284,65,-141,1,0,0,response3disk,,4,8,-4,1,0,0,rectangle,8,-4,1,0,0,8,-4,1,0,0,1,107,267,35,1,,,,,,,,
,,,,,,,,,,,,,FF,,,,,,,,1.4498,,,,,,,,,,,,,,,,,,,,,,60ff41d719643e679302c2ec,61036e39f428419531f2ed93,2021-07-29_20h17.42.923,Simcolourproject_2stim_asymm_v5,2020.2.10,Win32,60,61025ae37ef11b136ea224fe,,,,,,,,,1529,-101,-68,1,0,0,response5disk,,2,7,-2,1,0,0,rectangle,7,-2,1,0,0,7,-2,1,0,0,1,108,268,10,1,,,,,,,,
,,,,,,,,,,,,,FF,,,,,,,,0.9831,,,,,,,,,,,,,,,,,,,,,,60ff41d719643e679302c2ec,61036e39f428419531f2ed93,2021-07-29_20h17.42.923,Simcolourproject_2stim_asymm_v5,2020.2.10,Win32,60,61025ae37ef11b136ea224fe,,,,,,,,,2800,125,-56,1,0,0,response3disk,,5,2,-16,1,0,0,rectangle,2,-16,1,0,0,2,-16,1,0,0,1,109,269,139,1,,,,,,,,
,,,,,,,,,,,,,FF,,,,,,,,1.3999,,,,,,,,,,,,,,,,,,,,,,60ff41d719643e679302c2ec,61036e39f428419531f2ed93,2021-07-29_20h17.42.923,Simcolourproject_2stim_asymm_v5,2020.2.10,Win32,60,61025ae37ef11b136ea224fe,,,,,,,,,3483,45,-116,1,0,0,response3disk,,4,-2,15,1,0,0,rectangle,-2,15,1,0,0,-2,15,1,0,0,1,110,270,4,1,,,,,,,,
,,,,,,,,,,,,,FF,,,,,,,,1.0667,,,,,,,,,,,,,,,,,,,,,,60ff41d719643e679302c2ec,61036e39f428419531f2ed93,2021-07-29_20h17.42.923,Simcolourproject_2stim_asymm_v5,2020.2.10,Win32,60,61025ae37ef11b136ea224fe,,,,,,,,,3653,74,110,1,0,0,response1disk,,7,-7,-13,1,0,0,rectangle,-7,-13,1,0,0,-7,-13,1,0,0,1,111,271,2,1,,,,,,,,
,,,,,,,,,,,,,FF,,,,,,,,3.0327,,,,,,,,,,,,,,,,,,,,,,60ff41d719643e679302c2ec,61036e39f428419531f2ed93,2021-07-29_20h17.42.923,Simcolourproject_2stim_asymm_v5,2020.2.10,Win32,60,61025ae37ef11b136ea224fe,,,,,,,,,3073,136,-54,1,0,0,response3disk,,5,42,-7,1,0,0,rectangle,42,-7,1,0,0,42,-7,1,0,0,1,112,272,14,1,,,,,,,,
,,,,,,,,,,,,,FF,,,,,,,,1.9996,,,,,,,,,,,,,,,,,,,,,,60ff41d719643e679302c2ec,61036e39f428419531f2ed93,2021-07-29_20h17.42.923,Simcolourproject_2stim_asymm_v5,2020.2.10,Win32,60,61025ae37ef11b136ea224fe,,,,,,,,,2945,-102,-85,1,0,0,response5disk,,2,8,8,1,0,0,rectangle,8,8,1,0,0,8,8,1,0,0,1,113,273,116,1,,,,,,,,
,,,,,,,,,,,,,FF,,,,,,,,1.0498,,,,,,,,,,,,,,,,,,,,,,60ff41d719643e679302c2ec,61036e39f428419531f2ed93,2021-07-29_20h17.42.923,Simcolourproject_2stim_asymm_v5,2020.2.10,Win32,60,61025ae37ef11b136ea224fe,,,,,,,,,2408,127,61,1,0,0,response1disk,,6,-10,13,1,0,0,rectangle,-10,13,1,0,0,-10,13,1,0,0,1,114,274,11,1,,,,,,,,
,,,,,,,,,,,,,FF,,,,,,,,2.7495,,,,,,,,,,,,,,,,,,,,,,60ff41d719643e679302c2ec,61036e39f428419531f2ed93,2021-07-29_20h17.42.923,Simcolourproject_2stim_asymm_v5,2020.2.10,Win32,60,61025ae37ef11b136ea224fe,,,,,,,,,3404,112,-72,1,0,0,response3disk,,5,-7,7,1,0,0,rectangle,-7,7,1,0,0,-7,7,1,0,0,1,115,275,125,1,,,,,,,,
,,,,,,,,,,,,,FF,,,,,,,,1.0833,,,,,,,,,,,,,,,,,,,,,,60ff41d719643e679302c2ec,61036e39f428419531f2ed93,2021-07-29_20h17.42.923,Simcolourproject_2stim_asymm_v5,2020.2.10,Win32,60,61025ae37ef11b136ea224fe,,,,,,,,,3256,77,-119,1,0,0,response3disk,,4,25,-3,1,0,0,rectangle,25,-3,1,0,0,25,-3,1,0,0,1,116,276,42,1,,,,,,,,
,,,,,,,,,,,,,FF,,,,,,,,1.6996,,,,,,,,,,,,,,,,,,,,,,60ff41d719643e679302c2ec,61036e39f428419531f2ed93,2021-07-29_20h17.42.923,Simcolourproject_2stim_asymm_v5,2020.2.10,Win32,60,61025ae37ef11b136ea224fe,,,,,,,,,388,60,-117,1,0,0,response3disk,,4,-8,-7,1,0,0,rectangle,-8,-7,1,0,0,-8,-7,1,0,0,1,117,277,104,1,,,,,,,,
,,,,,,,,,,,,,FF,,,,,,,,0.7667,,,,,,,,,,,,,,,,,,,,,,60ff41d719643e679302c2ec,61036e39f428419531f2ed93,2021-07-29_20h17.42.923,Simcolourproject_2stim_asymm_v5,2020.2.10,Win32,60,61025ae37ef11b136ea224fe,,,,,,,,,4305,-58,141,1,0,0,response7disk,,0,2,5,1,0,0,rectangle,2,5,1,0,0,2,5,1,0,0,1,118,278,127,1,,,,,,,,
,,,,,,,,,,,,,FF,,,,,,,,1.4832,,,,,,,,,,,,,,,,,,,,,,60ff41d719643e679302c2ec,61036e39f428419531f2ed93,2021-07-29_20h17.42.923,Simcolourproject_2stim_asymm_v5,2020.2.10,Win32,60,61025ae37ef11b136ea224fe,,,,,,,,,1850,124,70,1,0,0,response1disk,,6,-4,2,1,0,0,rectangle,-4,2,1,0,0,-4,2,1,0,0,1,119,279,58,1,,,,,,,,
,,,,,,,,,,,,,FF,,,,,,,,3.4326,,,,,,,,,,,,,,,,,,,,,,60ff41d719643e679302c2ec,61036e39f428419531f2ed93,2021-07-29_20h17.42.923,Simcolourproject_2stim_asymm_v5,2020.2.10,Win32,60,61025ae37ef11b136ea224fe,,,,,,,,,1316,142,-46,1,0,0,response3disk,,5,-10,-3,1,0,0,rectangle,-10,-3,1,0,0,-10,-3,1,0,0,1,120,280,95,1,,,,,,,,
,,,,,,,,,,,,,FF,,,,,,,,1.1499,,,,,,,,,,,,,,,,,,,,,,60ff41d719643e679302c2ec,61036e39f428419531f2ed93,2021-07-29_20h17.42.923,Simcolourproject_2stim_asymm_v5,2020.2.10,Win32,60,61025ae37ef11b136ea224fe,,,,,,,,,1590,63,-111,1,0,0,response3disk,,4,9,-3,1,0,0,rectangle,9,-3,1,0,0,9,-3,1,0,0,1,121,281,87,1,,,,,,,,
,,,,,,,,,,,,,FF,,,,,,,,1.1828,,,,,,,,,,,,,,,,,,,,,,60ff41d719643e679302c2ec,61036e39f428419531f2ed93,2021-07-29_20h17.42.923,Simcolourproject_2stim_asymm_v5,2020.2.10,Win32,60,61025ae37ef11b136ea224fe,,,,,,,,,3579,125,46,1,0,0,response1disk,,6,-6,-7,1,0,0,rectangle,-6,-7,1,0,0,-6,-7,1,0,0,1,122,282,28,1,,,,,,,,
,,,,,,,,,,,,,FF,,,,,,,,1.433,,,,,,,,,,,,,,,,,,,,,,60ff41d719643e679302c2ec,61036e39f428419531f2ed93,2021-07-29_20h17.42.923,Simcolourproject_2stim_asymm_v5,2020.2.10,Win32,60,61025ae37ef11b136ea224fe,,,,,,,,,1344,134,55,1,0,0,response1disk,,6,14,-2,1,0,0,rectangle,14,-2,1,0,0,14,-2,1,0,0,1,123,283,96,1,,,,,,,,
,,,,,,,,,,,,,FF,,,,,,,,1.3832,,,,,,,,,,,,,,,,,,,,,,60ff41d719643e679302c2ec,61036e39f428419531f2ed93,2021-07-29_20h17.42.923,Simcolourproject_2stim_asymm_v5,2020.2.10,Win32,60,61025ae37ef11b136ea224fe,,,,,,,,,3169,125,55,1,0,0,response1disk,,6,15,9,1,0,0,rectangle,15,9,1,0,0,15,9,1,0,0,1,124,284,49,1,,,,,,,,
,,,,,,,,,,,,,FF,,,,,,,,1.7829,,,,,,,,,,,,,,,,,,,,,,60ff41d719643e679302c2ec,61036e39f428419531f2ed93,2021-07-29_20h17.42.923,Simcolourproject_2stim_asymm_v5,2020.2.10,Win32,60,61025ae37ef11b136ea224fe,,,,,,,,,2641,105,53,1,0,0,response1disk,,6,3,8,1,0,0,rectangle,3,8,1,0,0,3,8,1,0,0,1,125,285,71,1,,,,,,,,
,,,,,,,,,,,,,FF,,,,,,,,2.1997,,,,,,,,,,,,,,,,,,,,,,60ff41d719643e679302c2ec,61036e39f428419531f2ed93,2021-07-29_20h17.42.923,Simcolourproject_2stim_asymm_v5,2020.2.10,Win32,60,61025ae37ef11b136ea224fe,,,,,,,,,300,50,-131,1,0,0,response3disk,,4,-8,-1,1,0,0,rectangle,-8,-1,1,0,0,-8,-1,1,0,0,1,126,286,121,1,,,,,,,,
,,,,,,,,,,,,,FF,,,,,,,,1.4997,,,,,,,,,,,,,,,,,,,,,,60ff41d719643e679302c2ec,61036e39f428419531f2ed93,2021-07-29_20h17.42.923,Simcolourproject_2stim_asymm_v5,2020.2.10,Win32,60,61025ae37ef11b136ea224fe,,,,,,,,,3327,123,-44,1,0,0,response3disk,,5,-1,5,1,0,0,rectangle,-1,5,1,0,0,-1,5,1,0,0,1,127,287,147,1,,,,,,,,
,,,,,,,,,,,,,FF,,,,,,,,0.7997,,,,,,,,,,,,,,,,,,,,,,60ff41d719643e679302c2ec,61036e39f428419531f2ed93,2021-07-29_20h17.42.923,Simcolourproject_2stim_asymm_v5,2020.2.10,Win32,60,61025ae37ef11b136ea224fe,,,,,,,,,446,125,-47,1,0,0,response3disk,,5,9,7,1,0,0,rectangle,9,7,1,0,0,9,7,1,0,0,1,128,288,54,1,,,,,,,,
,,,,,,,,,,,,,FF,,,,,,,,1.1333,,,,,,,,,,,,,,,,,,,,,,60ff41d719643e679302c2ec,61036e39f428419531f2ed93,2021-07-29_20h17.42.923,Simcolourproject_2stim_asymm_v5,2020.2.10,Win32,60,61025ae37ef11b136ea224fe,,,,,,,,,3232,49,110,1,0,0,response1disk,,7,9,4,1,0,0,rectangle,9,4,1,0,0,9,4,1,0,0,1,129,289,84,1,,,,,,,,
,,,,,,,,,,,,,FF,,,,,,,,2.5662,,,,,,,,,,,,,,,,,,,,,,60ff41d719643e679302c2ec,61036e39f428419531f2ed93,2021-07-29_20h17.42.923,Simcolourproject_2stim_asymm_v5,2020.2.10,Win32,60,61025ae37ef11b136ea224fe,,,,,,,,,332,125,-49,1,0,0,response3disk,,5,26,-8,1,0,0,rectangle,-111,44,1,0,0,1,-4,1,0,0,1,130,290,78,1,,response7disk_3,TRUE,1,1,"[123,293,142,75,235,86,153,308,244,78,61,167,253,44,144,188,170,129,163,291]",1.6011,rectangle
,,,,,,,,,,,,,FF,,,,,,,,1.6165,,,,,,,,,,,,,,,,,,,,,,60ff41d719643e679302c2ec,61036e39f428419531f2ed93,2021-07-29_20h17.42.923,Simcolourproject_2stim_asymm_v5,2020.2.10,Win32,60,61025ae37ef11b136ea224fe,,,,,,,,,1086,-58,-155,1,0,0,response5disk,,3,9,11,1,0,0,rectangle,9,11,1,0,0,9,11,1,0,0,1,131,291,123,1,,,,,,,,
,,,,,,,,,,,,,FF,,,,,,,,0.8,,,,,,,,,,,,,,,,,,,,,,60ff41d719643e679302c2ec,61036e39f428419531f2ed93,2021-07-29_20h17.42.923,Simcolourproject_2stim_asymm_v5,2020.2.10,Win32,60,61025ae37ef11b136ea224fe,,,,,,,,,2841,-49,-123,1,0,0,response5disk,,3,12,4,1,0,0,rectangle,46,-134,1,0,0,10,-10,1,0,0,1,132,292,65,1,,response3disk_3,TRUE,4,4,"[123,293,142,75,235,86,153,308,244,78,61,167,253,44,144,188,170,129,163,291]",1.8661,rectangle
,,,,,,,,,,,,,FF,,,,,,,,2.7163,,,,,,,,,,,,,,,,,,,,,,60ff41d719643e679302c2ec,61036e39f428419531f2ed93,2021-07-29_20h17.42.923,Simcolourproject_2stim_asymm_v5,2020.2.10,Win32,60,61025ae37ef11b136ea224fe,,,,,,,,,1837,55,-118,1,0,0,response3disk,,4,2,13,1,0,0,rectangle,2,13,1,0,0,2,13,1,0,0,1,133,293,18,1,,,,,,,,
,,,,,,,,,,,,,FF,,,,,,,,2.2329,,,,,,,,,,,,,,,,,,,,,,60ff41d719643e679302c2ec,61036e39f428419531f2ed93,2021-07-29_20h17.42.923,Simcolourproject_2stim_asymm_v5,2020.2.10,Win32,60,61025ae37ef11b136ea224fe,,,,,,,,,381,-46,-136,1,0,0,response5disk,,3,-12,-16,1,0,0,rectangle,-12,-16,1,0,0,-12,-16,1,0,0,1,134,294,101,1,,,,,,,,
,,,,,,,,,,,,,FF,,,,,,,,2.9329,,,,,,,,,,,,,,,,,,,,,,60ff41d719643e679302c2ec,61036e39f428419531f2ed93,2021-07-29_20h17.42.923,Simcolourproject_2stim_asymm_v5,2020.2.10,Win32,60,61025ae37ef11b136ea224fe,,,,,,,,,2096,-108,-41,1,0,0,response5disk,,2,-16,0,1,0,0,rectangle,-16,0,1,0,0,-16,0,1,0,0,1,135,295,106,1,,,,,,,,
,,,,,,,,,,,,,FF,,,,,,,,1.1165,,,,,,,,,,,,,,,,,,,,,,60ff41d719643e679302c2ec,61036e39f428419531f2ed93,2021-07-29_20h17.42.923,Simcolourproject_2stim_asymm_v5,2020.2.10,Win32,60,61025ae37ef11b136ea224fe,,,,,,,,,1128,91,-153,1,0,0,response3disk,,4,-6,13,1,0,0,rectangle,-6,13,1,0,0,-6,13,1,0,0,1,136,296,142,1,,,,,,,,
,,,,,,,,,,,,,FF,,,,,,,,1.1502,,,,,,,,,,,,,,,,,,,,,,60ff41d719643e679302c2ec,61036e39f428419531f2ed93,2021-07-29_20h17.42.923,Simcolourproject_2stim_asymm_v5,2020.2.10,Win32,60,61025ae37ef11b136ea224fe,,,,,,,,,1487,104,-57,1,0,0,response3disk,,5,15,7,1,0,0,rectangle,15,7,1,0,0,15,7,1,0,0,1,137,297,153,1,,,,,,,,
,,,,,,,,,,,,,FF,,,,,,,,1.5997,,,,,,,,,,,,,,,,,,,,,,60ff41d719643e679302c2ec,61036e39f428419531f2ed93,2021-07-29_20h17.42.923,Simcolourproject_2stim_asymm_v5,2020.2.10,Win32,60,61025ae37ef11b136ea224fe,,,,,,,,,148,47,-141,1,0,0,response3disk,,4,1,-13,1,0,0,rectangle,1,-13,1,0,0,1,-13,1,0,0,1,138,298,74,1,,,,,,,,
,,,,,,,,,,,,,FF,,,,,,,,1.1332,,,,,,,,,,,,,,,,,,,,,,60ff41d719643e679302c2ec,61036e39f428419531f2ed93,2021-07-29_20h17.42.923,Simcolourproject_2stim_asymm_v5,2020.2.10,Win32,60,61025ae37ef11b136ea224fe,,,,,,,,,952,-105,-43,1,0,0,response5disk,,2,-22,-7,1,0,0,rectangle,-22,-7,1,0,0,-22,-7,1,0,0,1,139,299,82,1,,,,,,,,
,,,,,,,,,,,,,FF,,,,,,,,1.2663,,,,,,,,,,,,,,,,,,,,,,60ff41d719643e679302c2ec,61036e39f428419531f2ed93,2021-07-29_20h17.42.923,Simcolourproject_2stim_asymm_v5,2020.2.10,Win32,60,61025ae37ef11b136ea224fe,,,,,,,,,2686,-66,-118,1,0,0,response5disk,,3,-2,-2,1,0,0,rectangle,-2,-2,1,0,0,-2,-2,1,0,0,1,140,300,149,1,,,,,,,,
