key_resp.keys,key_resp.rt,key_resp_14.keys,key_resp_14.rt,key_resp_15.keys,key_resp_15.rt,key_resp_17.keys,key_resp_17.rt,key_resp_9.keys,key_resp_9.rt,key_resp_10.keys,key_resp_10.rt,practice_comparison,Ecc,mouse_5.x,mouse_5.y,mouse_5.leftButton,mouse_5.midButton,mouse_5.rightButton,mouse_5.clicked_name,pracsimilarity,response_time,mouse_10.x,mouse_10.y,mouse_10.leftButton,mouse_10.midButton,mouse_10.rightButton,mouse_10.clicked_name,mouse_7.x,mouse_7.y,mouse_7.leftButton,mouse_7.midButton,mouse_7.rightButton,mouse_6.x,mouse_6.y,mouse_6.leftButton,mouse_6.midButton,mouse_6.rightButton,duringprac.thisRepN,duringprac.thisTrialN,duringprac.thisN,duringprac.thisIndex,duringprac.ran,participant,session,date,expName,psychopyVersion,OS,frameRate,study_id,mouse_7.clicked_name,catchpracsimilarity,catch_response_time,catchnumberprac,catchtrialorderprac,mouse_6.clicked_name,key_resp_22.keys,key_resp_22.rt,realcomparison,mouse.x,mouse.y,mouse.leftButton,mouse.midButton,mouse.rightButton,mouse.clicked_name,Colour2,similarity,mouse_2.x,mouse_2.y,mouse_2.leftButton,mouse_2.midButton,mouse_2.rightButton,mouse_2.clicked_name,mouse_3.x,mouse_3.y,mouse_3.leftButton,mouse_3.midButton,mouse_3.rightButton,mouse_11.x,mouse_11.y,mouse_11.leftButton,mouse_11.midButton,mouse_11.rightButton,trials_2.thisRepN,trials_2.thisTrialN,trials_2.thisN,trials_2.thisIndex,trials_2.ran,Colour1,mouse_3.clicked_name,catchornah,catchsimilarity,catchnumber,catchtrialorder,catchRT,mouse_11.clicked_name
space,1.3413,space,19.3594,space,10.7824,space,2.9474,space,1.2007,space,3.1309,123,FF,84.0234375,-67.9140625,1,0,0,response3disk_5,5,9.1867,-8.390625,-1.6796875,1,0,0,rectangle_8,-8.390625,-1.6796875,1,0,0,-8.390625,-1.6796875,1,0,0,0,0,0,5,1,60ff79105d98c6ebf9efa752,61036ef120280bdbe69140a4,2021-07-29_20h16.33.282,Simcolourproject_2stim_asymm_v5,2020.2.10,MacIntel,60,61025ae37ef11b136ea224fe,,,,,,,,,,,,,,,,,,,,,,,,,,,,,,,,,,,,,,,,,,,,,,
,,,,,,,,,,,,123,PF,103.984375,-60.0234375,1,0,0,response3disk_5,5,2.617,13.68359375,-8.28515625,1,0,0,rectangle_8,48.75390625,-104.2070313,1,0,0,-8.33984375,1.76171875,1,0,0,0,1,1,2,1,60ff79105d98c6ebf9efa752,61036ef120280bdbe69140a4,2021-07-29_20h16.33.282,Simcolourproject_2stim_asymm_v5,2020.2.10,MacIntel,60,61025ae37ef11b136ea224fe,response3disk_7,4,2.3695,4,"[2,5]",rectangle_4,,,,,,,,,,,,,,,,,,,,,,,,,,,,,,,,,,,,,,,,
,,,,,,,,,,,,150,FF,92.2890625,41.328125,1,0,0,response1disk_5,6,4.0353,-9.13671875,-12.453125,1,0,0,rectangle_8,-9.13671875,-12.453125,1,0,0,-9.13671875,-12.453125,1,0,0,0,2,2,0,1,60ff79105d98c6ebf9efa752,61036ef120280bdbe69140a4,2021-07-29_20h16.33.282,Simcolourproject_2stim_asymm_v5,2020.2.10,MacIntel,60,61025ae37ef11b136ea224fe,,,,,,,,,,,,,,,,,,,,,,,,,,,,,,,,,,,,,,,,,,,,,,
,,,,,,,,,,,,139,FF,-46.25,-94.671875,1,0,0,response5disk_5,3,3.5016,5.2578125,-1.77734375,1,0,0,rectangle_8,5.2578125,-1.77734375,1,0,0,5.2578125,-1.77734375,1,0,0,0,3,3,3,1,60ff79105d98c6ebf9efa752,61036ef120280bdbe69140a4,2021-07-29_20h16.33.282,Simcolourproject_2stim_asymm_v5,2020.2.10,MacIntel,60,61025ae37ef11b136ea224fe,,,,,,,,,,,,,,,,,,,,,,,,,,,,,,,,,,,,,,,,,,,,,,
,,,,,,,,,,,,54,PF,-28.7109375,-81.49609375,1,0,0,response5disk_5,3,1.402,18.97265625,-5.90234375,1,0,0,rectangle_8,29.6171875,-91.765625,1,0,0,-15.15234375,6.609375,1,0,0,0,4,4,1,1,60ff79105d98c6ebf9efa752,61036ef120280bdbe69140a4,2021-07-29_20h16.33.282,Simcolourproject_2stim_asymm_v5,2020.2.10,MacIntel,60,61025ae37ef11b136ea224fe,response3disk_7,4,1.6338,4,"[2,5]",rectangle_4,,,,,,,,,,,,,,,,,,,,,,,,,,,,,,,,,,,,,,,,
,,,,,,,,,,,,24,PF,104.8710938,-43.4140625,1,0,0,response3disk_5,5,1.5168,7.48828125,-1.55859375,1,0,0,rectangle_8,7.48828125,-1.55859375,1,0,0,7.48828125,-1.55859375,1,0,0,0,5,5,6,1,60ff79105d98c6ebf9efa752,61036ef120280bdbe69140a4,2021-07-29_20h16.33.282,Simcolourproject_2stim_asymm_v5,2020.2.10,MacIntel,60,61025ae37ef11b136ea224fe,,,,,,,,,,,,,,,,,,,,,,,,,,,,,,,,,,,,,,,,,,,,,,
,,,,,,,,,,,,152,PF,88.28125,-29.3046875,1,0,0,response3disk_5,5,4.0475,-6.04296875,-1.23046875,1,0,0,rectangle_8,-6.04296875,-1.23046875,1,0,0,-6.04296875,-1.23046875,1,0,0,0,6,6,4,1,60ff79105d98c6ebf9efa752,61036ef120280bdbe69140a4,2021-07-29_20h16.33.282,Simcolourproject_2stim_asymm_v5,2020.2.10,MacIntel,60,61025ae37ef11b136ea224fe,,,,,,,,,,,,,,,,,,,,,,,,,,,,,,,,,,,,,,,,,,,,,,
,,,,,,,,,,,,,FF,,,,,,,,2.1008,,,,,,,,,,,,,,,,,,,,,,60ff79105d98c6ebf9efa752,61036ef120280bdbe69140a4,2021-07-29_20h16.33.282,Simcolourproject_2stim_asymm_v5,2020.2.10,MacIntel,60,61025ae37ef11b136ea224fe,,,,,,,space,2.284,3378,-76.02734375,-27.87109375,1,0,0,response5disk,,2,10.40625,6.84375,1,0,0,rectangle,10.40625,6.84375,1,0,0,10.40625,6.84375,1,0,0,0,0,0,49,1,,,,,,,,
,,,,,,,,,,,,,FF,,,,,,,,2.0166,,,,,,,,,,,,,,,,,,,,,,60ff79105d98c6ebf9efa752,61036ef120280bdbe69140a4,2021-07-29_20h16.33.282,Simcolourproject_2stim_asymm_v5,2020.2.10,MacIntel,60,61025ae37ef11b136ea224fe,,,,,,,,,2279,80.640625,-63.74609375,1,0,0,response3disk,,5,21.09375,-11.0078125,1,0,0,rectangle,21.09375,-11.0078125,1,0,0,21.09375,-11.0078125,1,0,0,0,1,1,45,1,,,,,,,,
,,,,,,,,,,,,,FF,,,,,,,,4.167,,,,,,,,,,,,,,,,,,,,,,60ff79105d98c6ebf9efa752,61036ef120280bdbe69140a4,2021-07-29_20h16.33.282,Simcolourproject_2stim_asymm_v5,2020.2.10,MacIntel,60,61025ae37ef11b136ea224fe,,,,,,,,,4222,39.91015625,-100.53125,1,0,0,response3disk,,4,-2.62109375,-2.86328125,1,0,0,rectangle,-2.62109375,-2.86328125,1,0,0,-2.62109375,-2.86328125,1,0,0,0,2,2,153,1,,,,,,,,
,,,,,,,,,,,,,FF,,,,,,,,4.7846,,,,,,,,,,,,,,,,,,,,,,60ff79105d98c6ebf9efa752,61036ef120280bdbe69140a4,2021-07-29_20h16.33.282,Simcolourproject_2stim_asymm_v5,2020.2.10,MacIntel,60,61025ae37ef11b136ea224fe,,,,,,,,,134,93.20703125,26.79296875,1,0,0,response1disk,,6,9.44921875,-4.8515625,1,0,0,rectangle,9.44921875,-4.8515625,1,0,0,9.44921875,-4.8515625,1,0,0,0,3,3,11,1,,,,,,,,
,,,,,,,,,,,,,FF,,,,,,,,1.8835,,,,,,,,,,,,,,,,,,,,,,60ff79105d98c6ebf9efa752,61036ef120280bdbe69140a4,2021-07-29_20h16.33.282,Simcolourproject_2stim_asymm_v5,2020.2.10,MacIntel,60,61025ae37ef11b136ea224fe,,,,,,,,,2493,-38.81640625,-100.453125,1,0,0,response5disk,,3,5.35546875,-10.43359375,1,0,0,rectangle,61.39453125,84.98828125,1,0,0,1.0546875,-8.19921875,1,0,0,0,4,4,138,1,,response1disk_3,TRUE,7,7,"[5,93,134,74,218,155,64,95,17,288,166,222,108,11,306,18,202,295,239,248]",1.8843,rectangle
,,,,,,,,,,,,,FF,,,,,,,,4.9026,,,,,,,,,,,,,,,,,,,,,,60ff79105d98c6ebf9efa752,61036ef120280bdbe69140a4,2021-07-29_20h16.33.282,Simcolourproject_2stim_asymm_v5,2020.2.10,MacIntel,60,61025ae37ef11b136ea224fe,,,,,,,,,3538,60.02734375,76.234375,1,0,0,response1disk,,7,0.37109375,-0.96484375,1,0,0,rectangle,0.37109375,-0.96484375,1,0,0,0.37109375,-0.96484375,1,0,0,0,5,5,112,1,,,,,,,,
,,,,,,,,,,,,,FF,,,,,,,,2.1502,,,,,,,,,,,,,,,,,,,,,,60ff79105d98c6ebf9efa752,61036ef120280bdbe69140a4,2021-07-29_20h16.33.282,Simcolourproject_2stim_asymm_v5,2020.2.10,MacIntel,60,61025ae37ef11b136ea224fe,,,,,,,,,3553,-24.984375,-68.98828125,1,0,0,response5disk,,3,18.203125,5.22265625,1,0,0,rectangle,18.203125,5.22265625,1,0,0,18.203125,5.22265625,1,0,0,0,6,6,92,1,,,,,,,,
,,,,,,,,,,,,,FF,,,,,,,,1.3149,,,,,,,,,,,,,,,,,,,,,,60ff79105d98c6ebf9efa752,61036ef120280bdbe69140a4,2021-07-29_20h16.33.282,Simcolourproject_2stim_asymm_v5,2020.2.10,MacIntel,60,61025ae37ef11b136ea224fe,,,,,,,,,1750,-64.26171875,-39.59375,1,0,0,response5disk,,2,16.73828125,5.4140625,1,0,0,rectangle,16.73828125,5.4140625,1,0,0,16.73828125,5.4140625,1,0,0,0,7,7,54,1,,,,,,,,
,,,,,,,,,,,,,FF,,,,,,,,1.05,,,,,,,,,,,,,,,,,,,,,,60ff79105d98c6ebf9efa752,61036ef120280bdbe69140a4,2021-07-29_20h16.33.282,Simcolourproject_2stim_asymm_v5,2020.2.10,MacIntel,60,61025ae37ef11b136ea224fe,,,,,,,,,187,-54.90234375,-34.50390625,1,0,0,response5disk,,2,-10.5390625,-6.3828125,1,0,0,rectangle,-10.5390625,-6.3828125,1,0,0,-10.5390625,-6.3828125,1,0,0,0,8,8,158,1,,,,,,,,
,,,,,,,,,,,,,FF,,,,,,,,1.4,,,,,,,,,,,,,,,,,,,,,,60ff79105d98c6ebf9efa752,61036ef120280bdbe69140a4,2021-07-29_20h16.33.282,Simcolourproject_2stim_asymm_v5,2020.2.10,MacIntel,60,61025ae37ef11b136ea224fe,,,,,,,,,2882,-27.5234375,-82.15625,1,0,0,response5disk,,3,8.75,3.9765625,1,0,0,rectangle,8.75,3.9765625,1,0,0,8.75,3.9765625,1,0,0,0,9,9,102,1,,,,,,,,
,,,,,,,,,,,,,FF,,,,,,,,4.5216,,,,,,,,,,,,,,,,,,,,,,60ff79105d98c6ebf9efa752,61036ef120280bdbe69140a4,2021-07-29_20h16.33.282,Simcolourproject_2stim_asymm_v5,2020.2.10,MacIntel,60,61025ae37ef11b136ea224fe,,,,,,,,,2694,96.94140625,39.1484375,1,0,0,response1disk,,6,4.70703125,-1.83984375,1,0,0,rectangle,-34.62890625,78.07421875,1,0,0,-3.609375,-1.41796875,1,0,0,0,10,10,44,1,,response7disk_3,TRUE,0,0,"[5,93,134,74,218,155,64,95,17,288,166,222,108,11,306,18,202,295,239,248]",1.8009,rectangle
,,,,,,,,,,,,,FF,,,,,,,,1.6841,,,,,,,,,,,,,,,,,,,,,,60ff79105d98c6ebf9efa752,61036ef120280bdbe69140a4,2021-07-29_20h16.33.282,Simcolourproject_2stim_asymm_v5,2020.2.10,MacIntel,60,61025ae37ef11b136ea224fe,,,,,,,,,3202,-73.890625,-50.3359375,1,0,0,response5disk,,2,0.50390625,4.4453125,1,0,0,rectangle,0.50390625,4.4453125,1,0,0,0.50390625,4.4453125,1,0,0,0,11,11,125,1,,,,,,,,
,,,,,,,,,,,,,FF,,,,,,,,0.882,,,,,,,,,,,,,,,,,,,,,,60ff79105d98c6ebf9efa752,61036ef120280bdbe69140a4,2021-07-29_20h16.33.282,Simcolourproject_2stim_asymm_v5,2020.2.10,MacIntel,60,61025ae37ef11b136ea224fe,,,,,,,,,3182,74.23828125,-53.9765625,1,0,0,response3disk,,5,27.38671875,-4.72265625,1,0,0,rectangle,27.38671875,-4.72265625,1,0,0,27.38671875,-4.72265625,1,0,0,0,12,12,29,1,,,,,,,,
,,,,,,,,,,,,,FF,,,,,,,,2.6517,,,,,,,,,,,,,,,,,,,,,,60ff79105d98c6ebf9efa752,61036ef120280bdbe69140a4,2021-07-29_20h16.33.282,Simcolourproject_2stim_asymm_v5,2020.2.10,MacIntel,60,61025ae37ef11b136ea224fe,,,,,,,,,18,-21.12109375,-107.3632813,1,0,0,response5disk,,3,18.1640625,-8.828125,1,0,0,rectangle,18.1640625,-8.828125,1,0,0,18.1640625,-8.828125,1,0,0,0,13,13,30,1,,,,,,,,
,,,,,,,,,,,,,FF,,,,,,,,1.367,,,,,,,,,,,,,,,,,,,,,,60ff79105d98c6ebf9efa752,61036ef120280bdbe69140a4,2021-07-29_20h16.33.282,Simcolourproject_2stim_asymm_v5,2020.2.10,MacIntel,60,61025ae37ef11b136ea224fe,,,,,,,,,1405,44.4609375,-77.3984375,1,0,0,response3disk,,4,0.53125,-4.94140625,1,0,0,rectangle,0.53125,-4.94140625,1,0,0,0.53125,-4.94140625,1,0,0,0,14,14,96,1,,,,,,,,
,,,,,,,,,,,,,FF,,,,,,,,1.5335,,,,,,,,,,,,,,,,,,,,,,60ff79105d98c6ebf9efa752,61036ef120280bdbe69140a4,2021-07-29_20h16.33.282,Simcolourproject_2stim_asymm_v5,2020.2.10,MacIntel,60,61025ae37ef11b136ea224fe,,,,,,,,,92,-55.98828125,-70.16015625,1,0,0,response5disk,,3,-11.640625,-12.265625,1,0,0,rectangle,-11.640625,-12.265625,1,0,0,-11.640625,-12.265625,1,0,0,0,15,15,156,1,,,,,,,,
,,,,,,,,,,,,,FF,,,,,,,,1.3664,,,,,,,,,,,,,,,,,,,,,,60ff79105d98c6ebf9efa752,61036ef120280bdbe69140a4,2021-07-29_20h16.33.282,Simcolourproject_2stim_asymm_v5,2020.2.10,MacIntel,60,61025ae37ef11b136ea224fe,,,,,,,,,956,-26.9296875,-71.5546875,1,0,0,response5disk,,3,9.49609375,-5.59765625,1,0,0,rectangle,83.40234375,-26.8203125,1,0,0,4.91015625,-1.8671875,1,0,0,0,16,16,141,1,,response3disk_3,TRUE,5,5,"[5,93,134,74,218,155,64,95,17,288,166,222,108,11,306,18,202,295,239,248]",1.6631,rectangle
,,,,,,,,,,,,,FF,,,,,,,,1.8854,,,,,,,,,,,,,,,,,,,,,,60ff79105d98c6ebf9efa752,61036ef120280bdbe69140a4,2021-07-29_20h16.33.282,Simcolourproject_2stim_asymm_v5,2020.2.10,MacIntel,60,61025ae37ef11b136ea224fe,,,,,,,,,2464,104.0742188,23.66015625,1,0,0,response1disk,,6,17.5078125,-3.1171875,1,0,0,rectangle,42.3984375,-80.4921875,1,0,0,18.75,3.5859375,1,0,0,0,17,17,119,1,,response3disk_3,TRUE,4,4,"[5,93,134,74,218,155,64,95,17,288,166,222,108,11,306,18,202,295,239,248]",1.432,rectangle
,,,,,,,,,,,,,FF,,,,,,,,1.3488,,,,,,,,,,,,,,,,,,,,,,60ff79105d98c6ebf9efa752,61036ef120280bdbe69140a4,2021-07-29_20h16.33.282,Simcolourproject_2stim_asymm_v5,2020.2.10,MacIntel,60,61025ae37ef11b136ea224fe,,,,,,,,,3419,-29.51171875,-77.94140625,1,0,0,response5disk,,3,15.89453125,1.05078125,1,0,0,rectangle,15.89453125,1.05078125,1,0,0,15.89453125,1.05078125,1,0,0,0,18,18,61,1,,,,,,,,
,,,,,,,,,,,,,FF,,,,,,,,1.4864,,,,,,,,,,,,,,,,,,,,,,60ff79105d98c6ebf9efa752,61036ef120280bdbe69140a4,2021-07-29_20h16.33.282,Simcolourproject_2stim_asymm_v5,2020.2.10,MacIntel,60,61025ae37ef11b136ea224fe,,,,,,,,,3134,90.25,-50.24609375,1,0,0,response3disk,,5,19.40234375,-2.8984375,1,0,0,rectangle,19.40234375,-2.8984375,1,0,0,19.40234375,-2.8984375,1,0,0,0,19,19,62,1,,,,,,,,
,,,,,,,,,,,,,FF,,,,,,,,1.0822,,,,,,,,,,,,,,,,,,,,,,60ff79105d98c6ebf9efa752,61036ef120280bdbe69140a4,2021-07-29_20h16.33.282,Simcolourproject_2stim_asymm_v5,2020.2.10,MacIntel,60,61025ae37ef11b136ea224fe,,,,,,,,,2299,-64.515625,-51.81640625,1,0,0,response5disk,,2,2.51171875,-12.06640625,1,0,0,rectangle,2.51171875,-12.06640625,1,0,0,2.51171875,-12.06640625,1,0,0,0,20,20,22,1,,,,,,,,
,,,,,,,,,,,,,FF,,,,,,,,1.8668,,,,,,,,,,,,,,,,,,,,,,60ff79105d98c6ebf9efa752,61036ef120280bdbe69140a4,2021-07-29_20h16.33.282,Simcolourproject_2stim_asymm_v5,2020.2.10,MacIntel,60,61025ae37ef11b136ea224fe,,,,,,,,,277,-94.7890625,-34.80078125,1,0,0,response5disk,,2,-13.3984375,-0.8203125,1,0,0,rectangle,-13.3984375,-0.8203125,1,0,0,-13.3984375,-0.8203125,1,0,0,0,21,21,52,1,,,,,,,,
,,,,,,,,,,,,,FF,,,,,,,,1.7316,,,,,,,,,,,,,,,,,,,,,,60ff79105d98c6ebf9efa752,61036ef120280bdbe69140a4,2021-07-29_20h16.33.282,Simcolourproject_2stim_asymm_v5,2020.2.10,MacIntel,60,61025ae37ef11b136ea224fe,,,,,,,,,2794,70.82421875,-55.00390625,1,0,0,response3disk,,5,13.12890625,-1.4375,1,0,0,rectangle,13.12890625,-1.4375,1,0,0,13.12890625,-1.4375,1,0,0,0,22,22,107,1,,,,,,,,
,,,,,,,,,,,,,FF,,,,,,,,0.8328,,,,,,,,,,,,,,,,,,,,,,60ff79105d98c6ebf9efa752,61036ef120280bdbe69140a4,2021-07-29_20h16.33.282,Simcolourproject_2stim_asymm_v5,2020.2.10,MacIntel,60,61025ae37ef11b136ea224fe,,,,,,,,,2575,74.140625,-41.140625,1,0,0,response3disk,,5,21.3671875,-0.10546875,1,0,0,rectangle,21.3671875,-0.10546875,1,0,0,21.3671875,-0.10546875,1,0,0,0,23,23,71,1,,,,,,,,
,,,,,,,,,,,,,FF,,,,,,,,1.5172,,,,,,,,,,,,,,,,,,,,,,60ff79105d98c6ebf9efa752,61036ef120280bdbe69140a4,2021-07-29_20h16.33.282,Simcolourproject_2stim_asymm_v5,2020.2.10,MacIntel,60,61025ae37ef11b136ea224fe,,,,,,,,,1936,69.04296875,-55.88671875,1,0,0,response3disk,,5,1.94140625,-3.35546875,1,0,0,rectangle,1.94140625,-3.35546875,1,0,0,1.94140625,-3.35546875,1,0,0,0,24,24,23,1,,,,,,,,
,,,,,,,,,,,,,FF,,,,,,,,1.7649,,,,,,,,,,,,,,,,,,,,,,60ff79105d98c6ebf9efa752,61036ef120280bdbe69140a4,2021-07-29_20h16.33.282,Simcolourproject_2stim_asymm_v5,2020.2.10,MacIntel,60,61025ae37ef11b136ea224fe,,,,,,,,,1143,-56.56640625,-71.9765625,1,0,0,response5disk,,3,-2.37109375,-2.84375,1,0,0,rectangle,-2.37109375,-2.84375,1,0,0,-2.37109375,-2.84375,1,0,0,0,25,25,135,1,,,,,,,,
,,,,,,,,,,,,,FF,,,,,,,,1,,,,,,,,,,,,,,,,,,,,,,60ff79105d98c6ebf9efa752,61036ef120280bdbe69140a4,2021-07-29_20h16.33.282,Simcolourproject_2stim_asymm_v5,2020.2.10,MacIntel,60,61025ae37ef11b136ea224fe,,,,,,,,,1121,-59.4140625,-45.9140625,1,0,0,response5disk,,2,-3.96484375,-8.07421875,1,0,0,rectangle,-3.96484375,-8.07421875,1,0,0,-3.96484375,-8.07421875,1,0,0,0,26,26,84,1,,,,,,,,
,,,,,,,,,,,,,FF,,,,,,,,1.1341,,,,,,,,,,,,,,,,,,,,,,60ff79105d98c6ebf9efa752,61036ef120280bdbe69140a4,2021-07-29_20h16.33.282,Simcolourproject_2stim_asymm_v5,2020.2.10,MacIntel,60,61025ae37ef11b136ea224fe,,,,,,,,,1132,-80.03515625,-31.328125,1,0,0,response5disk,,2,-14.80078125,-4.51953125,1,0,0,rectangle,-14.80078125,-4.51953125,1,0,0,-14.80078125,-4.51953125,1,0,0,0,27,27,129,1,,,,,,,,
,,,,,,,,,,,,,FF,,,,,,,,0.9499,,,,,,,,,,,,,,,,,,,,,,60ff79105d98c6ebf9efa752,61036ef120280bdbe69140a4,2021-07-29_20h16.33.282,Simcolourproject_2stim_asymm_v5,2020.2.10,MacIntel,60,61025ae37ef11b136ea224fe,,,,,,,,,3233,76.39453125,-52.63671875,1,0,0,response3disk,,5,10.75,-4.82421875,1,0,0,rectangle,10.75,-4.82421875,1,0,0,10.75,-4.82421875,1,0,0,0,28,28,50,1,,,,,,,,
,,,,,,,,,,,,,FF,,,,,,,,2.1001,,,,,,,,,,,,,,,,,,,,,,60ff79105d98c6ebf9efa752,61036ef120280bdbe69140a4,2021-07-29_20h16.33.282,Simcolourproject_2stim_asymm_v5,2020.2.10,MacIntel,60,61025ae37ef11b136ea224fe,,,,,,,,,2680,-18.26953125,-90.4140625,1,0,0,response5disk,,3,2.578125,2.3125,1,0,0,rectangle,2.578125,2.3125,1,0,0,2.578125,2.3125,1,0,0,0,29,29,93,1,,,,,,,,
,,,,,,,,,,,,,FF,,,,,,,,3.4508,,,,,,,,,,,,,,,,,,,,,,60ff79105d98c6ebf9efa752,61036ef120280bdbe69140a4,2021-07-29_20h16.33.282,Simcolourproject_2stim_asymm_v5,2020.2.10,MacIntel,60,61025ae37ef11b136ea224fe,,,,,,,,,768,72.88671875,-58.3046875,1,0,0,response3disk,,5,10.4453125,-5.05078125,1,0,0,rectangle,10.4453125,-5.05078125,1,0,0,10.4453125,-5.05078125,1,0,0,0,30,30,106,1,,,,,,,,
,,,,,,,,,,,,,FF,,,,,,,,1.5837,,,,,,,,,,,,,,,,,,,,,,60ff79105d98c6ebf9efa752,61036ef120280bdbe69140a4,2021-07-29_20h16.33.282,Simcolourproject_2stim_asymm_v5,2020.2.10,MacIntel,60,61025ae37ef11b136ea224fe,,,,,,,,,3642,35.09765625,-72.81640625,1,0,0,response3disk,,4,5.90625,-3.2265625,1,0,0,rectangle,5.90625,-3.2265625,1,0,0,5.90625,-3.2265625,1,0,0,0,31,31,97,1,,,,,,,,
,,,,,,,,,,,,,FF,,,,,,,,0.883,,,,,,,,,,,,,,,,,,,,,,60ff79105d98c6ebf9efa752,61036ef120280bdbe69140a4,2021-07-29_20h16.33.282,Simcolourproject_2stim_asymm_v5,2020.2.10,MacIntel,60,61025ae37ef11b136ea224fe,,,,,,,,,943,54.9921875,-66.19921875,1,0,0,response3disk,,4,24.33203125,3.0078125,1,0,0,rectangle,24.33203125,3.0078125,1,0,0,24.33203125,3.0078125,1,0,0,0,32,32,99,1,,,,,,,,
,,,,,,,,,,,,,FF,,,,,,,,1.6665,,,,,,,,,,,,,,,,,,,,,,60ff79105d98c6ebf9efa752,61036ef120280bdbe69140a4,2021-07-29_20h16.33.282,Simcolourproject_2stim_asymm_v5,2020.2.10,MacIntel,60,61025ae37ef11b136ea224fe,,,,,,,,,2007,83.02734375,36.5546875,1,0,0,response1disk,,6,23.6328125,6.8046875,1,0,0,rectangle,23.6328125,6.8046875,1,0,0,23.6328125,6.8046875,1,0,0,0,33,33,21,1,,,,,,,,
,,,,,,,,,,,,,FF,,,,,,,,1.5831,,,,,,,,,,,,,,,,,,,,,,60ff79105d98c6ebf9efa752,61036ef120280bdbe69140a4,2021-07-29_20h16.33.282,Simcolourproject_2stim_asymm_v5,2020.2.10,MacIntel,60,61025ae37ef11b136ea224fe,,,,,,,,,584,64.00390625,-41.76171875,1,0,0,response3disk,,5,7.0625,-3.54296875,1,0,0,rectangle,7.0625,-3.54296875,1,0,0,7.0625,-3.54296875,1,0,0,0,34,34,134,1,,,,,,,,
,,,,,,,,,,,,,FF,,,,,,,,2.3335,,,,,,,,,,,,,,,,,,,,,,60ff79105d98c6ebf9efa752,61036ef120280bdbe69140a4,2021-07-29_20h16.33.282,Simcolourproject_2stim_asymm_v5,2020.2.10,MacIntel,60,61025ae37ef11b136ea224fe,,,,,,,,,339,23.85546875,-94.16796875,1,0,0,response3disk,,4,18.03125,-2.34375,1,0,0,rectangle,18.03125,-2.34375,1,0,0,18.03125,-2.34375,1,0,0,0,35,35,152,1,,,,,,,,
,,,,,,,,,,,,,FF,,,,,,,,0.7999,,,,,,,,,,,,,,,,,,,,,,60ff79105d98c6ebf9efa752,61036ef120280bdbe69140a4,2021-07-29_20h16.33.282,Simcolourproject_2stim_asymm_v5,2020.2.10,MacIntel,60,61025ae37ef11b136ea224fe,,,,,,,,,174,-36.55859375,-80.375,1,0,0,response5disk,,3,5.07421875,-4.1875,1,0,0,rectangle,5.07421875,-4.1875,1,0,0,5.07421875,-4.1875,1,0,0,0,36,36,14,1,,,,,,,,
,,,,,,,,,,,,,FF,,,,,,,,0.9853,,,,,,,,,,,,,,,,,,,,,,60ff79105d98c6ebf9efa752,61036ef120280bdbe69140a4,2021-07-29_20h16.33.282,Simcolourproject_2stim_asymm_v5,2020.2.10,MacIntel,60,61025ae37ef11b136ea224fe,,,,,,,,,1107,88.9609375,-62.02734375,1,0,0,response3disk,,5,14.0234375,-4,1,0,0,rectangle,14.0234375,-4,1,0,0,14.0234375,-4,1,0,0,0,37,37,5,1,,,,,,,,
,,,,,,,,,,,,,FF,,,,,,,,2.7983,,,,,,,,,,,,,,,,,,,,,,60ff79105d98c6ebf9efa752,61036ef120280bdbe69140a4,2021-07-29_20h16.33.282,Simcolourproject_2stim_asymm_v5,2020.2.10,MacIntel,60,61025ae37ef11b136ea224fe,,,,,,,,,3827,41.11328125,-84.859375,1,0,0,response3disk,,4,-0.390625,1.25390625,1,0,0,rectangle,-0.390625,1.25390625,1,0,0,-0.390625,1.25390625,1,0,0,0,38,38,143,1,,,,,,,,
,,,,,,,,,,,,,FF,,,,,,,,0.849,,,,,,,,,,,,,,,,,,,,,,60ff79105d98c6ebf9efa752,61036ef120280bdbe69140a4,2021-07-29_20h16.33.282,Simcolourproject_2stim_asymm_v5,2020.2.10,MacIntel,60,61025ae37ef11b136ea224fe,,,,,,,,,2894,-84.74609375,-38.359375,1,0,0,response5disk,,2,-13.8203125,-0.8203125,1,0,0,rectangle,-13.8203125,-0.8203125,1,0,0,-13.8203125,-0.8203125,1,0,0,0,39,39,33,1,,,,,,,,
,,,,,,,,,,,,,FF,,,,,,,,1.4164,,,,,,,,,,,,,,,,,,,,,,60ff79105d98c6ebf9efa752,61036ef120280bdbe69140a4,2021-07-29_20h16.33.282,Simcolourproject_2stim_asymm_v5,2020.2.10,MacIntel,60,61025ae37ef11b136ea224fe,,,,,,,,,1337,28.52734375,-67.12890625,1,0,0,response3disk,,4,8.23828125,-3.79296875,1,0,0,rectangle,8.23828125,-3.79296875,1,0,0,8.23828125,-3.79296875,1,0,0,0,40,40,114,1,,,,,,,,
,,,,,,,,,,,,,FF,,,,,,,,1.3191,,,,,,,,,,,,,,,,,,,,,,60ff79105d98c6ebf9efa752,61036ef120280bdbe69140a4,2021-07-29_20h16.33.282,Simcolourproject_2stim_asymm_v5,2020.2.10,MacIntel,60,61025ae37ef11b136ea224fe,,,,,,,,,11,-37.24609375,-68.83984375,1,0,0,response5disk,,3,-7.81640625,-1.90625,1,0,0,rectangle,-7.81640625,-1.90625,1,0,0,-7.81640625,-1.90625,1,0,0,0,41,41,63,1,,,,,,,,
,,,,,,,,,,,,,FF,,,,,,,,2.9995,,,,,,,,,,,,,,,,,,,,,,60ff79105d98c6ebf9efa752,61036ef120280bdbe69140a4,2021-07-29_20h16.33.282,Simcolourproject_2stim_asymm_v5,2020.2.10,MacIntel,60,61025ae37ef11b136ea224fe,,,,,,,,,4262,41.15234375,-70.25,1,0,0,response3disk,,4,6.59375,6.38671875,1,0,0,rectangle,6.59375,6.38671875,1,0,0,6.59375,6.38671875,1,0,0,0,42,42,53,1,,,,,,,,
,,,,,,,,,,,,,FF,,,,,,,,1.6671,,,,,,,,,,,,,,,,,,,,,,60ff79105d98c6ebf9efa752,61036ef120280bdbe69140a4,2021-07-29_20h16.33.282,Simcolourproject_2stim_asymm_v5,2020.2.10,MacIntel,60,61025ae37ef11b136ea224fe,,,,,,,,,3797,-19.42578125,-77.1484375,1,0,0,response5disk,,3,19.78125,-4.46875,1,0,0,rectangle,19.78125,-4.46875,1,0,0,19.78125,-4.46875,1,0,0,0,43,43,28,1,,,,,,,,
,,,,,,,,,,,,,FF,,,,,,,,1.5335,,,,,,,,,,,,,,,,,,,,,,60ff79105d98c6ebf9efa752,61036ef120280bdbe69140a4,2021-07-29_20h16.33.282,Simcolourproject_2stim_asymm_v5,2020.2.10,MacIntel,60,61025ae37ef11b136ea224fe,,,,,,,,,398,45.55078125,-93.84765625,1,0,0,response3disk,,4,3.25390625,-7,1,0,0,rectangle,3.25390625,-7,1,0,0,3.25390625,-7,1,0,0,0,44,44,34,1,,,,,,,,
,,,,,,,,,,,,,FF,,,,,,,,2.5472,,,,,,,,,,,,,,,,,,,,,,60ff79105d98c6ebf9efa752,61036ef120280bdbe69140a4,2021-07-29_20h16.33.282,Simcolourproject_2stim_asymm_v5,2020.2.10,MacIntel,60,61025ae37ef11b136ea224fe,,,,,,,,,2104,-39.96875,-93.8046875,1,0,0,response5disk,,3,-11.44921875,-7.36328125,1,0,0,rectangle,-11.44921875,-7.36328125,1,0,0,-11.44921875,-7.36328125,1,0,0,0,45,45,37,1,,,,,,,,
,,,,,,,,,,,,,FF,,,,,,,,0.9831,,,,,,,,,,,,,,,,,,,,,,60ff79105d98c6ebf9efa752,61036ef120280bdbe69140a4,2021-07-29_20h16.33.282,Simcolourproject_2stim_asymm_v5,2020.2.10,MacIntel,60,61025ae37ef11b136ea224fe,,,,,,,,,4061,65.40625,-82.8671875,1,0,0,response3disk,,4,13.83203125,-10.1875,1,0,0,rectangle,13.83203125,-10.1875,1,0,0,13.83203125,-10.1875,1,0,0,0,46,46,40,1,,,,,,,,
,,,,,,,,,,,,,FF,,,,,,,,1.6482,,,,,,,,,,,,,,,,,,,,,,60ff79105d98c6ebf9efa752,61036ef120280bdbe69140a4,2021-07-29_20h16.33.282,Simcolourproject_2stim_asymm_v5,2020.2.10,MacIntel,60,61025ae37ef11b136ea224fe,,,,,,,,,218,-56.33203125,-87.34375,1,0,0,response5disk,,3,-1.96484375,1.60546875,1,0,0,rectangle,-1.96484375,1.60546875,1,0,0,-1.96484375,1.60546875,1,0,0,0,47,47,95,1,,,,,,,,
,,,,,,,,,,,,,FF,,,,,,,,1.619,,,,,,,,,,,,,,,,,,,,,,60ff79105d98c6ebf9efa752,61036ef120280bdbe69140a4,2021-07-29_20h16.33.282,Simcolourproject_2stim_asymm_v5,2020.2.10,MacIntel,60,61025ae37ef11b136ea224fe,,,,,,,,,229,50.03515625,-73.796875,1,0,0,response3disk,,4,11.24609375,3.64453125,1,0,0,rectangle,11.24609375,3.64453125,1,0,0,11.24609375,3.64453125,1,0,0,0,48,48,24,1,,,,,,,,
,,,,,,,,,,,,,FF,,,,,,,,1.5502,,,,,,,,,,,,,,,,,,,,,,60ff79105d98c6ebf9efa752,61036ef120280bdbe69140a4,2021-07-29_20h16.33.282,Simcolourproject_2stim_asymm_v5,2020.2.10,MacIntel,60,61025ae37ef11b136ea224fe,,,,,,,,,4179,102.4726563,32.62109375,1,0,0,response1disk,,6,2.484375,-8.7734375,1,0,0,rectangle,2.484375,-8.7734375,1,0,0,2.484375,-8.7734375,1,0,0,0,49,49,101,1,,,,,,,,
,,,,,,,,,,,,,FF,,,,,,,,1.3332,,,,,,,,,,,,,,,,,,,,,,60ff79105d98c6ebf9efa752,61036ef120280bdbe69140a4,2021-07-29_20h16.33.282,Simcolourproject_2stim_asymm_v5,2020.2.10,MacIntel,60,61025ae37ef11b136ea224fe,,,,,,,,,4115,-33.96875,-67.484375,1,0,0,response5disk,,3,0.37109375,-10.29296875,1,0,0,rectangle,0.37109375,-10.29296875,1,0,0,0.37109375,-10.29296875,1,0,0,0,50,50,88,1,,,,,,,,
,,,,,,,,,,,,,FF,,,,,,,,1.1,,,,,,,,,,,,,,,,,,,,,,60ff79105d98c6ebf9efa752,61036ef120280bdbe69140a4,2021-07-29_20h16.33.282,Simcolourproject_2stim_asymm_v5,2020.2.10,MacIntel,60,61025ae37ef11b136ea224fe,,,,,,,,,3144,-22.4375,-78.6171875,1,0,0,response5disk,,3,12.734375,-2.3203125,1,0,0,rectangle,12.734375,-2.3203125,1,0,0,12.734375,-2.3203125,1,0,0,0,51,51,110,1,,,,,,,,
,,,,,,,,,,,,,FF,,,,,,,,1.3825,,,,,,,,,,,,,,,,,,,,,,60ff79105d98c6ebf9efa752,61036ef120280bdbe69140a4,2021-07-29_20h16.33.282,Simcolourproject_2stim_asymm_v5,2020.2.10,MacIntel,60,61025ae37ef11b136ea224fe,,,,,,,,,1261,78.55078125,-56.09765625,1,0,0,response3disk,,5,15.0859375,-6.32421875,1,0,0,rectangle,15.0859375,-6.32421875,1,0,0,15.0859375,-6.32421875,1,0,0,0,52,52,74,1,,,,,,,,
,,,,,,,,,,,,,FF,,,,,,,,0.8999,,,,,,,,,,,,,,,,,,,,,,60ff79105d98c6ebf9efa752,61036ef120280bdbe69140a4,2021-07-29_20h16.33.282,Simcolourproject_2stim_asymm_v5,2020.2.10,MacIntel,60,61025ae37ef11b136ea224fe,,,,,,,,,1028,76.59765625,-40.71875,1,0,0,response3disk,,5,22.2109375,-8.75,1,0,0,rectangle,22.2109375,-8.75,1,0,0,22.2109375,-8.75,1,0,0,0,53,53,19,1,,,,,,,,
,,,,,,,,,,,,,FF,,,,,,,,1.1023,,,,,,,,,,,,,,,,,,,,,,60ff79105d98c6ebf9efa752,61036ef120280bdbe69140a4,2021-07-29_20h16.33.282,Simcolourproject_2stim_asymm_v5,2020.2.10,MacIntel,60,61025ae37ef11b136ea224fe,,,,,,,,,2311,-21.28125,-95.59375,1,0,0,response5disk,,3,3.1796875,-8.67578125,1,0,0,rectangle,3.1796875,-8.67578125,1,0,0,3.1796875,-8.67578125,1,0,0,0,54,54,18,1,,,,,,,,
,,,,,,,,,,,,,FF,,,,,,,,1.0668,,,,,,,,,,,,,,,,,,,,,,60ff79105d98c6ebf9efa752,61036ef120280bdbe69140a4,2021-07-29_20h16.33.282,Simcolourproject_2stim_asymm_v5,2020.2.10,MacIntel,60,61025ae37ef11b136ea224fe,,,,,,,,,3297,-90.47265625,32.234375,1,0,0,response7disk,,1,-11.3984375,10.46875,1,0,0,rectangle,-11.3984375,10.46875,1,0,0,-11.3984375,10.46875,1,0,0,0,55,55,144,1,,,,,,,,
,,,,,,,,,,,,,FF,,,,,,,,0.9149,,,,,,,,,,,,,,,,,,,,,,60ff79105d98c6ebf9efa752,61036ef120280bdbe69140a4,2021-07-29_20h16.33.282,Simcolourproject_2stim_asymm_v5,2020.2.10,MacIntel,60,61025ae37ef11b136ea224fe,,,,,,,,,1801,-41.45703125,-79.0859375,1,0,0,response5disk,,3,5.5,-9.13671875,1,0,0,rectangle,5.5,-9.13671875,1,0,0,5.5,-9.13671875,1,0,0,0,56,56,17,1,,,,,,,,
,,,,,,,,,,,,,FF,,,,,,,,2.7334,,,,,,,,,,,,,,,,,,,,,,60ff79105d98c6ebf9efa752,61036ef120280bdbe69140a4,2021-07-29_20h16.33.282,Simcolourproject_2stim_asymm_v5,2020.2.10,MacIntel,60,61025ae37ef11b136ea224fe,,,,,,,,,2579,80.27734375,-50.79296875,1,0,0,response3disk,,5,26.2265625,0.61328125,1,0,0,rectangle,26.2265625,0.61328125,1,0,0,26.2265625,0.61328125,1,0,0,0,57,57,9,1,,,,,,,,
,,,,,,,,,,,,,FF,,,,,,,,1.1004,,,,,,,,,,,,,,,,,,,,,,60ff79105d98c6ebf9efa752,61036ef120280bdbe69140a4,2021-07-29_20h16.33.282,Simcolourproject_2stim_asymm_v5,2020.2.10,MacIntel,60,61025ae37ef11b136ea224fe,,,,,,,,,841,107.3710938,-37.09375,1,0,0,response3disk,,5,0.18359375,-6.07421875,1,0,0,rectangle,0.18359375,-6.07421875,1,0,0,0.18359375,-6.07421875,1,0,0,0,58,58,20,1,,,,,,,,
,,,,,,,,,,,,,FF,,,,,,,,1.9502,,,,,,,,,,,,,,,,,,,,,,60ff79105d98c6ebf9efa752,61036ef120280bdbe69140a4,2021-07-29_20h16.33.282,Simcolourproject_2stim_asymm_v5,2020.2.10,MacIntel,60,61025ae37ef11b136ea224fe,,,,,,,,,417,59.421875,-103.2382813,1,0,0,response3disk,,4,14.09765625,2.7578125,1,0,0,rectangle,14.09765625,2.7578125,1,0,0,14.09765625,2.7578125,1,0,0,0,59,59,157,1,,,,,,,,
,,,,,,,,,,,,,FF,,,,,,,,0.8319,,,,,,,,,,,,,,,,,,,,,,60ff79105d98c6ebf9efa752,61036ef120280bdbe69140a4,2021-07-29_20h16.33.282,Simcolourproject_2stim_asymm_v5,2020.2.10,MacIntel,60,61025ae37ef11b136ea224fe,,,,,,,,,786,-28.02734375,-62.33984375,1,0,0,response5disk,,3,5.3203125,0.15625,1,0,0,rectangle,5.3203125,0.15625,1,0,0,5.3203125,0.15625,1,0,0,0,60,60,108,1,,,,,,,,
,,,,,,,,,,,,,FF,,,,,,,,1.5833,,,,,,,,,,,,,,,,,,,,,,60ff79105d98c6ebf9efa752,61036ef120280bdbe69140a4,2021-07-29_20h16.33.282,Simcolourproject_2stim_asymm_v5,2020.2.10,MacIntel,60,61025ae37ef11b136ea224fe,,,,,,,,,2895,-72.4765625,-39.40625,1,0,0,response5disk,,2,-8.27734375,-6.6796875,1,0,0,rectangle,-8.27734375,-6.6796875,1,0,0,-8.27734375,-6.6796875,1,0,0,0,61,61,85,1,,,,,,,,
,,,,,,,,,,,,,FF,,,,,,,,1.1502,,,,,,,,,,,,,,,,,,,,,,60ff79105d98c6ebf9efa752,61036ef120280bdbe69140a4,2021-07-29_20h16.33.282,Simcolourproject_2stim_asymm_v5,2020.2.10,MacIntel,60,61025ae37ef11b136ea224fe,,,,,,,,,1986,-71.23828125,-50.87109375,1,0,0,response5disk,,2,1.7734375,-14.1484375,1,0,0,rectangle,1.7734375,-14.1484375,1,0,0,1.7734375,-14.1484375,1,0,0,0,62,62,7,1,,,,,,,,
,,,,,,,,,,,,,FF,,,,,,,,1.2166,,,,,,,,,,,,,,,,,,,,,,60ff79105d98c6ebf9efa752,61036ef120280bdbe69140a4,2021-07-29_20h16.33.282,Simcolourproject_2stim_asymm_v5,2020.2.10,MacIntel,60,61025ae37ef11b136ea224fe,,,,,,,,,172,-65.78515625,30.78125,1,0,0,response7disk,,1,2.0546875,4.29296875,1,0,0,rectangle,87.1640625,39.92578125,1,0,0,11.9453125,-5.75,1,0,0,0,63,63,58,1,,response1disk_3,TRUE,6,6,"[5,93,134,74,218,155,64,95,17,288,166,222,108,11,306,18,202,295,239,248]",1.8674,rectangle
,,,,,,,,,,,,,FF,,,,,,,,0.9669,,,,,,,,,,,,,,,,,,,,,,60ff79105d98c6ebf9efa752,61036ef120280bdbe69140a4,2021-07-29_20h16.33.282,Simcolourproject_2stim_asymm_v5,2020.2.10,MacIntel,60,61025ae37ef11b136ea224fe,,,,,,,,,2964,62.41796875,-47.5234375,1,0,0,response3disk,,5,10.07421875,-10.50390625,1,0,0,rectangle,10.07421875,-10.50390625,1,0,0,10.07421875,-10.50390625,1,0,0,0,64,64,67,1,,,,,,,,
,,,,,,,,,,,,,FF,,,,,,,,2.5335,,,,,,,,,,,,,,,,,,,,,,60ff79105d98c6ebf9efa752,61036ef120280bdbe69140a4,2021-07-29_20h16.33.282,Simcolourproject_2stim_asymm_v5,2020.2.10,MacIntel,60,61025ae37ef11b136ea224fe,,,,,,,,,3793,31.09765625,-74.640625,1,0,0,response3disk,,4,15.6953125,11.4375,1,0,0,rectangle,15.6953125,11.4375,1,0,0,15.6953125,11.4375,1,0,0,0,65,65,73,1,,,,,,,,
,,,,,,,,,,,,,FF,,,,,,,,1.1334,,,,,,,,,,,,,,,,,,,,,,60ff79105d98c6ebf9efa752,61036ef120280bdbe69140a4,2021-07-29_20h16.33.282,Simcolourproject_2stim_asymm_v5,2020.2.10,MacIntel,60,61025ae37ef11b136ea224fe,,,,,,,,,1616,-71.5703125,-42.0859375,1,0,0,response5disk,,2,-9.48828125,-5.36328125,1,0,0,rectangle,-9.48828125,-5.36328125,1,0,0,-9.48828125,-5.36328125,1,0,0,0,66,66,6,1,,,,,,,,
,,,,,,,,,,,,,FF,,,,,,,,3.0834,,,,,,,,,,,,,,,,,,,,,,60ff79105d98c6ebf9efa752,61036ef120280bdbe69140a4,2021-07-29_20h16.33.282,Simcolourproject_2stim_asymm_v5,2020.2.10,MacIntel,60,61025ae37ef11b136ea224fe,,,,,,,,,596,72.07421875,31.49609375,1,0,0,response1disk,,6,3.05859375,-10.07421875,1,0,0,rectangle,3.05859375,-10.07421875,1,0,0,3.05859375,-10.07421875,1,0,0,0,67,67,79,1,,,,,,,,
,,,,,,,,,,,,,FF,,,,,,,,1.8503,,,,,,,,,,,,,,,,,,,,,,60ff79105d98c6ebf9efa752,61036ef120280bdbe69140a4,2021-07-29_20h16.33.282,Simcolourproject_2stim_asymm_v5,2020.2.10,MacIntel,60,61025ae37ef11b136ea224fe,,,,,,,,,2470,55.45703125,-72.984375,1,0,0,response3disk,,4,8.01953125,-1.85546875,1,0,0,rectangle,8.01953125,-1.85546875,1,0,0,8.01953125,-1.85546875,1,0,0,0,68,68,56,1,,,,,,,,
,,,,,,,,,,,,,FF,,,,,,,,1.6001,,,,,,,,,,,,,,,,,,,,,,60ff79105d98c6ebf9efa752,61036ef120280bdbe69140a4,2021-07-29_20h16.33.282,Simcolourproject_2stim_asymm_v5,2020.2.10,MacIntel,60,61025ae37ef11b136ea224fe,,,,,,,,,1458,-33.03515625,-55.28125,1,0,0,response5disk,,3,15.74609375,-10.24609375,1,0,0,rectangle,15.74609375,-10.24609375,1,0,0,15.74609375,-10.24609375,1,0,0,0,69,69,72,1,,,,,,,,
,,,,,,,,,,,,,FF,,,,,,,,1.0815,,,,,,,,,,,,,,,,,,,,,,60ff79105d98c6ebf9efa752,61036ef120280bdbe69140a4,2021-07-29_20h16.33.282,Simcolourproject_2stim_asymm_v5,2020.2.10,MacIntel,60,61025ae37ef11b136ea224fe,,,,,,,,,395,-23.97265625,-68.15234375,1,0,0,response5disk,,3,3.453125,-4.35546875,1,0,0,rectangle,3.453125,-4.35546875,1,0,0,3.453125,-4.35546875,1,0,0,0,70,70,13,1,,,,,,,,
,,,,,,,,,,,,,FF,,,,,,,,0.8518,,,,,,,,,,,,,,,,,,,,,,60ff79105d98c6ebf9efa752,61036ef120280bdbe69140a4,2021-07-29_20h16.33.282,Simcolourproject_2stim_asymm_v5,2020.2.10,MacIntel,60,61025ae37ef11b136ea224fe,,,,,,,,,3367,88.89453125,-64.51953125,1,0,0,response3disk,,5,3.94140625,5.21484375,1,0,0,rectangle,3.94140625,5.21484375,1,0,0,3.94140625,5.21484375,1,0,0,0,71,71,70,1,,,,,,,,
,,,,,,,,,,,,,FF,,,,,,,,1.0671,,,,,,,,,,,,,,,,,,,,,,60ff79105d98c6ebf9efa752,61036ef120280bdbe69140a4,2021-07-29_20h16.33.282,Simcolourproject_2stim_asymm_v5,2020.2.10,MacIntel,60,61025ae37ef11b136ea224fe,,,,,,,,,136,92.66015625,-46.26171875,1,0,0,response3disk,,5,10.19140625,1.8125,1,0,0,rectangle,10.19140625,1.8125,1,0,0,10.19140625,1.8125,1,0,0,0,72,72,26,1,,,,,,,,
,,,,,,,,,,,,,FF,,,,,,,,0.966,,,,,,,,,,,,,,,,,,,,,,60ff79105d98c6ebf9efa752,61036ef120280bdbe69140a4,2021-07-29_20h16.33.282,Simcolourproject_2stim_asymm_v5,2020.2.10,MacIntel,60,61025ae37ef11b136ea224fe,,,,,,,,,35,41.66796875,-77.859375,1,0,0,response3disk,,4,9.26171875,-6.44140625,1,0,0,rectangle,97.68359375,-40.91015625,1,0,0,-8.375,-9.1015625,1,0,0,0,73,73,31,1,,response3disk_3,TRUE,5,5,"[5,93,134,74,218,155,64,95,17,288,166,222,108,11,306,18,202,295,239,248]",1.7009,rectangle
,,,,,,,,,,,,,FF,,,,,,,,0.8499,,,,,,,,,,,,,,,,,,,,,,60ff79105d98c6ebf9efa752,61036ef120280bdbe69140a4,2021-07-29_20h16.33.282,Simcolourproject_2stim_asymm_v5,2020.2.10,MacIntel,60,61025ae37ef11b136ea224fe,,,,,,,,,3666,37.80078125,-64.1328125,1,0,0,response3disk,,4,7.125,6.01953125,1,0,0,rectangle,7.125,6.01953125,1,0,0,7.125,6.01953125,1,0,0,0,74,74,127,1,,,,,,,,
,,,,,,,,,,,,,FF,,,,,,,,1.5858,,,,,,,,,,,,,,,,,,,,,,60ff79105d98c6ebf9efa752,61036ef120280bdbe69140a4,2021-07-29_20h16.33.282,Simcolourproject_2stim_asymm_v5,2020.2.10,MacIntel,60,61025ae37ef11b136ea224fe,,,,,,,,,3571,32.1484375,-72.5859375,1,0,0,response3disk,,4,4.2578125,-5.109375,1,0,0,rectangle,4.2578125,-5.109375,1,0,0,4.2578125,-5.109375,1,0,0,0,75,75,2,1,,,,,,,,
,,,,,,,,,,,,,FF,,,,,,,,1.1665,,,,,,,,,,,,,,,,,,,,,,60ff79105d98c6ebf9efa752,61036ef120280bdbe69140a4,2021-07-29_20h16.33.282,Simcolourproject_2stim_asymm_v5,2020.2.10,MacIntel,60,61025ae37ef11b136ea224fe,,,,,,,,,2533,84.515625,-36.6640625,1,0,0,response3disk,,5,21.75390625,-1.33984375,1,0,0,rectangle,21.75390625,-1.33984375,1,0,0,21.75390625,-1.33984375,1,0,0,0,76,76,8,1,,,,,,,,
,,,,,,,,,,,,,FF,,,,,,,,2.5345,,,,,,,,,,,,,,,,,,,,,,60ff79105d98c6ebf9efa752,61036ef120280bdbe69140a4,2021-07-29_20h16.33.282,Simcolourproject_2stim_asymm_v5,2020.2.10,MacIntel,60,61025ae37ef11b136ea224fe,,,,,,,,,3745,60.9375,-43.625,1,0,0,response3disk,,5,3.09765625,1.1484375,1,0,0,rectangle,3.09765625,1.1484375,1,0,0,3.09765625,1.1484375,1,0,0,0,77,77,27,1,,,,,,,,
,,,,,,,,,,,,,FF,,,,,,,,2.1818,,,,,,,,,,,,,,,,,,,,,,60ff79105d98c6ebf9efa752,61036ef120280bdbe69140a4,2021-07-29_20h16.33.282,Simcolourproject_2stim_asymm_v5,2020.2.10,MacIntel,60,61025ae37ef11b136ea224fe,,,,,,,,,3091,-30.53125,-83.7578125,1,0,0,response5disk,,3,-7.03515625,3.38671875,1,0,0,rectangle,-7.03515625,3.38671875,1,0,0,-7.03515625,3.38671875,1,0,0,0,78,78,116,1,,,,,,,,
,,,,,,,,,,,,,FF,,,,,,,,1.0004,,,,,,,,,,,,,,,,,,,,,,60ff79105d98c6ebf9efa752,61036ef120280bdbe69140a4,2021-07-29_20h16.33.282,Simcolourproject_2stim_asymm_v5,2020.2.10,MacIntel,60,61025ae37ef11b136ea224fe,,,,,,,,,2357,-72.484375,-51.9921875,1,0,0,response5disk,,2,-6.8984375,-8.734375,1,0,0,rectangle,-6.8984375,-8.734375,1,0,0,-6.8984375,-8.734375,1,0,0,0,79,79,4,1,,,,,,,,
,,,,,,,,,,,,,FF,,,,,,,,1.4666,,,,,,,,,,,,,,,,,,,,,,60ff79105d98c6ebf9efa752,61036ef120280bdbe69140a4,2021-07-29_20h16.33.282,Simcolourproject_2stim_asymm_v5,2020.2.10,MacIntel,60,61025ae37ef11b136ea224fe,,,,,,,,,4050,-34.265625,-76.53125,1,0,0,response5disk,,3,-11.26171875,1.01953125,1,0,0,rectangle,-11.26171875,1.01953125,1,0,0,-11.26171875,1.01953125,1,0,0,0,80,80,42,1,,,,,,,,
,,,,,,,,,,,,,FF,,,,,,,,1.5167,,,,,,,,,,,,,,,,,,,,,,60ff79105d98c6ebf9efa752,61036ef120280bdbe69140a4,2021-07-29_20h16.33.282,Simcolourproject_2stim_asymm_v5,2020.2.10,MacIntel,60,61025ae37ef11b136ea224fe,,,,,,,,,4345,-80.76953125,-26.796875,1,0,0,response5disk,,2,-11.65234375,6.06640625,1,0,0,rectangle,-11.65234375,6.06640625,1,0,0,-11.65234375,6.06640625,1,0,0,0,81,81,78,1,,,,,,,,
,,,,,,,,,,,,,FF,,,,,,,,0.883,,,,,,,,,,,,,,,,,,,,,,60ff79105d98c6ebf9efa752,61036ef120280bdbe69140a4,2021-07-29_20h16.33.282,Simcolourproject_2stim_asymm_v5,2020.2.10,MacIntel,60,61025ae37ef11b136ea224fe,,,,,,,,,1945,84.94140625,-49.92578125,1,0,0,response3disk,,5,14.96875,-5.2578125,1,0,0,rectangle,14.96875,-5.2578125,1,0,0,14.96875,-5.2578125,1,0,0,0,82,82,16,1,,,,,,,,
,,,,,,,,,,,,,FF,,,,,,,,0.7334,,,,,,,,,,,,,,,,,,,,,,60ff79105d98c6ebf9efa752,61036ef120280bdbe69140a4,2021-07-29_20h16.33.282,Simcolourproject_2stim_asymm_v5,2020.2.10,MacIntel,60,61025ae37ef11b136ea224fe,,,,,,,,,4362,-76.6328125,21.92578125,1,0,0,response7disk,,1,-9.66015625,4.19140625,1,0,0,rectangle,-9.66015625,4.19140625,1,0,0,-9.66015625,4.19140625,1,0,0,0,83,83,131,1,,,,,,,,
,,,,,,,,,,,,,FF,,,,,,,,1.1161,,,,,,,,,,,,,,,,,,,,,,60ff79105d98c6ebf9efa752,61036ef120280bdbe69140a4,2021-07-29_20h16.33.282,Simcolourproject_2stim_asymm_v5,2020.2.10,MacIntel,60,61025ae37ef11b136ea224fe,,,,,,,,,3678,-72.16015625,25.44921875,1,0,0,response7disk,,1,-18.36328125,-9.93359375,1,0,0,rectangle,-18.36328125,-9.93359375,1,0,0,-18.36328125,-9.93359375,1,0,0,0,84,84,81,1,,,,,,,,
,,,,,,,,,,,,,FF,,,,,,,,0.767,,,,,,,,,,,,,,,,,,,,,,60ff79105d98c6ebf9efa752,61036ef120280bdbe69140a4,2021-07-29_20h16.33.282,Simcolourproject_2stim_asymm_v5,2020.2.10,MacIntel,60,61025ae37ef11b136ea224fe,,,,,,,,,3488,93.05859375,-48.34375,1,0,0,response3disk,,5,-4.08203125,-0.40234375,1,0,0,rectangle,-4.08203125,-0.40234375,1,0,0,-4.08203125,-0.40234375,1,0,0,0,85,85,98,1,,,,,,,,
,,,,,,,,,,,,,FF,,,,,,,,0.817,,,,,,,,,,,,,,,,,,,,,,60ff79105d98c6ebf9efa752,61036ef120280bdbe69140a4,2021-07-29_20h16.33.282,Simcolourproject_2stim_asymm_v5,2020.2.10,MacIntel,60,61025ae37ef11b136ea224fe,,,,,,,,,1469,-24.84375,-61.41015625,1,0,0,response5disk,,3,2.75390625,-14.546875,1,0,0,rectangle,2.75390625,-14.546875,1,0,0,2.75390625,-14.546875,1,0,0,0,86,86,103,1,,,,,,,,
,,,,,,,,,,,,,FF,,,,,,,,0.8816,,,,,,,,,,,,,,,,,,,,,,60ff79105d98c6ebf9efa752,61036ef120280bdbe69140a4,2021-07-29_20h16.33.282,Simcolourproject_2stim_asymm_v5,2020.2.10,MacIntel,60,61025ae37ef11b136ea224fe,,,,,,,,,1088,48.58203125,-71.2265625,1,0,0,response3disk,,4,21.87109375,-2.87890625,1,0,0,rectangle,21.87109375,-2.87890625,1,0,0,21.87109375,-2.87890625,1,0,0,0,87,87,140,1,,,,,,,,
,,,,,,,,,,,,,FF,,,,,,,,1.4843,,,,,,,,,,,,,,,,,,,,,,60ff79105d98c6ebf9efa752,61036ef120280bdbe69140a4,2021-07-29_20h16.33.282,Simcolourproject_2stim_asymm_v5,2020.2.10,MacIntel,60,61025ae37ef11b136ea224fe,,,,,,,,,285,-44.8671875,-60.65625,1,0,0,response5disk,,3,-17.640625,-9.08984375,1,0,0,rectangle,-17.640625,-9.08984375,1,0,0,-17.640625,-9.08984375,1,0,0,0,88,88,51,1,,,,,,,,
,,,,,,,,,,,,,FF,,,,,,,,1.8666,,,,,,,,,,,,,,,,,,,,,,60ff79105d98c6ebf9efa752,61036ef120280bdbe69140a4,2021-07-29_20h16.33.282,Simcolourproject_2stim_asymm_v5,2020.2.10,MacIntel,60,61025ae37ef11b136ea224fe,,,,,,,,,1661,34.734375,-57.3515625,1,0,0,response3disk,,4,20.10546875,-3.08984375,1,0,0,rectangle,20.10546875,-3.08984375,1,0,0,20.10546875,-3.08984375,1,0,0,0,89,89,120,1,,,,,,,,
,,,,,,,,,,,,,FF,,,,,,,,0.802,,,,,,,,,,,,,,,,,,,,,,60ff79105d98c6ebf9efa752,61036ef120280bdbe69140a4,2021-07-29_20h16.33.282,Simcolourproject_2stim_asymm_v5,2020.2.10,MacIntel,60,61025ae37ef11b136ea224fe,,,,,,,,,2555,-60.77734375,-40.96875,1,0,0,response5disk,,2,11.09765625,-1.19921875,1,0,0,rectangle,11.09765625,-1.19921875,1,0,0,11.09765625,-1.19921875,1,0,0,0,90,90,118,1,,,,,,,,
,,,,,,,,,,,,,FF,,,,,,,,1.3333,,,,,,,,,,,,,,,,,,,,,,60ff79105d98c6ebf9efa752,61036ef120280bdbe69140a4,2021-07-29_20h16.33.282,Simcolourproject_2stim_asymm_v5,2020.2.10,MacIntel,60,61025ae37ef11b136ea224fe,,,,,,,,,3112,-32.6328125,-95.20703125,1,0,0,response5disk,,3,12.70703125,0.796875,1,0,0,rectangle,12.70703125,0.796875,1,0,0,12.70703125,0.796875,1,0,0,0,91,91,90,1,,,,,,,,
,,,,,,,,,,,,,FF,,,,,,,,1.2001,,,,,,,,,,,,,,,,,,,,,,60ff79105d98c6ebf9efa752,61036ef120280bdbe69140a4,2021-07-29_20h16.33.282,Simcolourproject_2stim_asymm_v5,2020.2.10,MacIntel,60,61025ae37ef11b136ea224fe,,,,,,,,,1152,-69.078125,-25.80859375,1,0,0,response5disk,,2,-15.58984375,3.484375,1,0,0,rectangle,99.93359375,34.96875,1,0,0,8.875,-7.59765625,1,0,0,0,92,92,75,1,,response1disk_3,TRUE,6,6,"[5,93,134,74,218,155,64,95,17,288,166,222,108,11,306,18,202,295,239,248]",2.4017,rectangle
,,,,,,,,,,,,,FF,,,,,,,,1.3316,,,,,,,,,,,,,,,,,,,,,,60ff79105d98c6ebf9efa752,61036ef120280bdbe69140a4,2021-07-29_20h16.33.282,Simcolourproject_2stim_asymm_v5,2020.2.10,MacIntel,60,61025ae37ef11b136ea224fe,,,,,,,,,4098,-92.51953125,-34.2421875,1,0,0,response5disk,,2,6.8984375,-0.015625,1,0,0,rectangle,6.8984375,-0.015625,1,0,0,6.8984375,-0.015625,1,0,0,0,93,93,43,1,,,,,,,,
,,,,,,,,,,,,,FF,,,,,,,,1.0159,,,,,,,,,,,,,,,,,,,,,,60ff79105d98c6ebf9efa752,61036ef120280bdbe69140a4,2021-07-29_20h16.33.282,Simcolourproject_2stim_asymm_v5,2020.2.10,MacIntel,60,61025ae37ef11b136ea224fe,,,,,,,,,2445,54.94140625,-102.8945313,1,0,0,response3disk,,4,0.73046875,-3.58203125,1,0,0,rectangle,-28.04296875,86.0625,1,0,0,3.3203125,-3.3046875,1,0,0,0,94,94,60,1,,response7disk_3,TRUE,0,0,"[5,93,134,74,218,155,64,95,17,288,166,222,108,11,306,18,202,295,239,248]",2.1163,rectangle
,,,,,,,,,,,,,FF,,,,,,,,1.35,,,,,,,,,,,,,,,,,,,,,,60ff79105d98c6ebf9efa752,61036ef120280bdbe69140a4,2021-07-29_20h16.33.282,Simcolourproject_2stim_asymm_v5,2020.2.10,MacIntel,60,61025ae37ef11b136ea224fe,,,,,,,,,4088,42.03515625,-79.76171875,1,0,0,response3disk,,4,1.125,0.73046875,1,0,0,rectangle,1.125,0.73046875,1,0,0,1.125,0.73046875,1,0,0,0,95,95,82,1,,,,,,,,
,,,,,,,,,,,,,FF,,,,,,,,3.133,,,,,,,,,,,,,,,,,,,,,,60ff79105d98c6ebf9efa752,61036ef120280bdbe69140a4,2021-07-29_20h16.33.282,Simcolourproject_2stim_asymm_v5,2020.2.10,MacIntel,60,61025ae37ef11b136ea224fe,,,,,,,,,3999,-33.9765625,-48.55859375,1,0,0,response5disk,,3,13.6015625,-12.203125,1,0,0,rectangle,13.6015625,-12.203125,1,0,0,13.6015625,-12.203125,1,0,0,0,96,96,132,1,,,,,,,,
,,,,,,,,,,,,,FF,,,,,,,,0.8831,,,,,,,,,,,,,,,,,,,,,,60ff79105d98c6ebf9efa752,61036ef120280bdbe69140a4,2021-07-29_20h16.33.282,Simcolourproject_2stim_asymm_v5,2020.2.10,MacIntel,60,61025ae37ef11b136ea224fe,,,,,,,,,903,30.43359375,-77.0078125,1,0,0,response3disk,,4,12.35546875,-11.3984375,1,0,0,rectangle,12.35546875,-11.3984375,1,0,0,12.35546875,-11.3984375,1,0,0,0,97,97,83,1,,,,,,,,
,,,,,,,,,,,,,FF,,,,,,,,1.1494,,,,,,,,,,,,,,,,,,,,,,60ff79105d98c6ebf9efa752,61036ef120280bdbe69140a4,2021-07-29_20h16.33.282,Simcolourproject_2stim_asymm_v5,2020.2.10,MacIntel,60,61025ae37ef11b136ea224fe,,,,,,,,,1487,-17.1171875,-61.83984375,1,0,0,response5disk,,3,8.83203125,-2.9453125,1,0,0,rectangle,8.83203125,-2.9453125,1,0,0,8.83203125,-2.9453125,1,0,0,0,98,98,48,1,,,,,,,,
,,,,,,,,,,,,,FF,,,,,,,,1.9509,,,,,,,,,,,,,,,,,,,,,,60ff79105d98c6ebf9efa752,61036ef120280bdbe69140a4,2021-07-29_20h16.33.282,Simcolourproject_2stim_asymm_v5,2020.2.10,MacIntel,60,61025ae37ef11b136ea224fe,,,,,,,,,4291,106.3164063,41.7265625,1,0,0,response1disk,,6,16.18359375,2.29296875,1,0,0,rectangle,16.18359375,2.29296875,1,0,0,16.18359375,2.29296875,1,0,0,0,99,99,123,1,,,,,,,,
,,,,,,,,,,,,,FF,,,,,,,,0.9843,,,,,,,,,,,,,,,,,,,,,,60ff79105d98c6ebf9efa752,61036ef120280bdbe69140a4,2021-07-29_20h16.33.282,Simcolourproject_2stim_asymm_v5,2020.2.10,MacIntel,60,61025ae37ef11b136ea224fe,,,,,,,,,936,38.6796875,-67.83203125,1,0,0,response3disk,,4,-10.3671875,3.59765625,1,0,0,rectangle,-10.3671875,3.59765625,1,0,0,-10.3671875,3.59765625,1,0,0,0,100,100,151,1,,,,,,,,
,,,,,,,,,,,,,FF,,,,,,,,3.4844,,,,,,,,,,,,,,,,,,,,,,60ff79105d98c6ebf9efa752,61036ef120280bdbe69140a4,2021-07-29_20h16.33.282,Simcolourproject_2stim_asymm_v5,2020.2.10,MacIntel,60,61025ae37ef11b136ea224fe,,,,,,,,,1940,29.44140625,-75.78125,1,0,0,response3disk,,4,6.21875,3.7265625,1,0,0,rectangle,6.21875,3.7265625,1,0,0,6.21875,3.7265625,1,0,0,0,101,101,35,1,,,,,,,,
,,,,,,,,,,,,,FF,,,,,,,,1.7001,,,,,,,,,,,,,,,,,,,,,,60ff79105d98c6ebf9efa752,61036ef120280bdbe69140a4,2021-07-29_20h16.33.282,Simcolourproject_2stim_asymm_v5,2020.2.10,MacIntel,60,61025ae37ef11b136ea224fe,,,,,,,,,4151,41.234375,-86.078125,1,0,0,response3disk,,4,18.859375,6.38671875,1,0,0,rectangle,18.859375,6.38671875,1,0,0,18.859375,6.38671875,1,0,0,0,102,102,65,1,,,,,,,,
,,,,,,,,,,,,,FF,,,,,,,,1.3667,,,,,,,,,,,,,,,,,,,,,,60ff79105d98c6ebf9efa752,61036ef120280bdbe69140a4,2021-07-29_20h16.33.282,Simcolourproject_2stim_asymm_v5,2020.2.10,MacIntel,60,61025ae37ef11b136ea224fe,,,,,,,,,3975,-41.74609375,-77.9296875,1,0,0,response5disk,,3,0.375,-7.23828125,1,0,0,rectangle,0.375,-7.23828125,1,0,0,0.375,-7.23828125,1,0,0,0,103,103,89,1,,,,,,,,
,,,,,,,,,,,,,FF,,,,,,,,0.9019,,,,,,,,,,,,,,,,,,,,,,60ff79105d98c6ebf9efa752,61036ef120280bdbe69140a4,2021-07-29_20h16.33.282,Simcolourproject_2stim_asymm_v5,2020.2.10,MacIntel,60,61025ae37ef11b136ea224fe,,,,,,,,,2604,-70.60546875,-44.65234375,1,0,0,response5disk,,2,-9.515625,2.875,1,0,0,rectangle,-9.515625,2.875,1,0,0,-9.515625,2.875,1,0,0,0,104,104,117,1,,,,,,,,
,,,,,,,,,,,,,FF,,,,,,,,1.4523,,,,,,,,,,,,,,,,,,,,,,60ff79105d98c6ebf9efa752,61036ef120280bdbe69140a4,2021-07-29_20h16.33.282,Simcolourproject_2stim_asymm_v5,2020.2.10,MacIntel,60,61025ae37ef11b136ea224fe,,,,,,,,,4237,-88.68359375,-37.34765625,1,0,0,response5disk,,2,-10.92578125,8.84765625,1,0,0,rectangle,-10.92578125,8.84765625,1,0,0,-10.92578125,8.84765625,1,0,0,0,105,105,159,1,,,,,,,,
,,,,,,,,,,,,,FF,,,,,,,,1.0509,,,,,,,,,,,,,,,,,,,,,,60ff79105d98c6ebf9efa752,61036ef120280bdbe69140a4,2021-07-29_20h16.33.282,Simcolourproject_2stim_asymm_v5,2020.2.10,MacIntel,60,61025ae37ef11b136ea224fe,,,,,,,,,3934,23.1015625,-81.9140625,1,0,0,response3disk,,4,-1.984375,-3.01953125,1,0,0,rectangle,-1.984375,-3.01953125,1,0,0,-1.984375,-3.01953125,1,0,0,0,106,106,86,1,,,,,,,,
,,,,,,,,,,,,,FF,,,,,,,,1.1185,,,,,,,,,,,,,,,,,,,,,,60ff79105d98c6ebf9efa752,61036ef120280bdbe69140a4,2021-07-29_20h16.33.282,Simcolourproject_2stim_asymm_v5,2020.2.10,MacIntel,60,61025ae37ef11b136ea224fe,,,,,,,,,3316,104.0351563,-49.203125,1,0,0,response3disk,,5,9.94921875,-4.3515625,1,0,0,rectangle,34.78125,-94.390625,1,0,0,8.453125,-2.15234375,1,0,0,0,107,107,0,1,,response3disk_3,TRUE,4,4,"[5,93,134,74,218,155,64,95,17,288,166,222,108,11,306,18,202,295,239,248]",2.2516,rectangle
,,,,,,,,,,,,,FF,,,,,,,,1.1025,,,,,,,,,,,,,,,,,,,,,,60ff79105d98c6ebf9efa752,61036ef120280bdbe69140a4,2021-07-29_20h16.33.282,Simcolourproject_2stim_asymm_v5,2020.2.10,MacIntel,60,61025ae37ef11b136ea224fe,,,,,,,,,3186,107.75,31.46875,1,0,0,response1disk,,6,10.203125,-4.26953125,1,0,0,rectangle,10.203125,-4.26953125,1,0,0,10.203125,-4.26953125,1,0,0,0,108,108,154,1,,,,,,,,
,,,,,,,,,,,,,FF,,,,,,,,0.8333,,,,,,,,,,,,,,,,,,,,,,60ff79105d98c6ebf9efa752,61036ef120280bdbe69140a4,2021-07-29_20h16.33.282,Simcolourproject_2stim_asymm_v5,2020.2.10,MacIntel,60,61025ae37ef11b136ea224fe,,,,,,,,,1158,-71.8125,-43.125,1,0,0,response5disk,,2,-0.04296875,-6.19921875,1,0,0,rectangle,-0.04296875,-6.19921875,1,0,0,-0.04296875,-6.19921875,1,0,0,0,109,109,87,1,,,,,,,,
,,,,,,,,,,,,,FF,,,,,,,,5.1836,,,,,,,,,,,,,,,,,,,,,,60ff79105d98c6ebf9efa752,61036ef120280bdbe69140a4,2021-07-29_20h16.33.282,Simcolourproject_2stim_asymm_v5,2020.2.10,MacIntel,60,61025ae37ef11b136ea224fe,,,,,,,,,629,46.484375,-72.21484375,1,0,0,response3disk,,4,4.1171875,5.515625,1,0,0,rectangle,4.1171875,5.515625,1,0,0,4.1171875,5.515625,1,0,0,0,110,110,57,1,,,,,,,,
,,,,,,,,,,,,,FF,,,,,,,,0.9522,,,,,,,,,,,,,,,,,,,,,,60ff79105d98c6ebf9efa752,61036ef120280bdbe69140a4,2021-07-29_20h16.33.282,Simcolourproject_2stim_asymm_v5,2020.2.10,MacIntel,60,61025ae37ef11b136ea224fe,,,,,,,,,2782,-61.05078125,36.40234375,1,0,0,response7disk,,1,-18.70703125,-6.90625,1,0,0,rectangle,-18.70703125,-6.90625,1,0,0,-18.70703125,-6.90625,1,0,0,0,111,111,128,1,,,,,,,,
,,,,,,,,,,,,,FF,,,,,,,,2.0182,,,,,,,,,,,,,,,,,,,,,,60ff79105d98c6ebf9efa752,61036ef120280bdbe69140a4,2021-07-29_20h16.33.282,Simcolourproject_2stim_asymm_v5,2020.2.10,MacIntel,60,61025ae37ef11b136ea224fe,,,,,,,,,201,-48.2109375,-66.5703125,1,0,0,response5disk,,3,4.39453125,-7.51953125,1,0,0,rectangle,4.39453125,-7.51953125,1,0,0,4.39453125,-7.51953125,1,0,0,0,112,112,36,1,,,,,,,,
,,,,,,,,,,,,,FF,,,,,,,,1.5001,,,,,,,,,,,,,,,,,,,,,,60ff79105d98c6ebf9efa752,61036ef120280bdbe69140a4,2021-07-29_20h16.33.282,Simcolourproject_2stim_asymm_v5,2020.2.10,MacIntel,60,61025ae37ef11b136ea224fe,,,,,,,,,269,55.7890625,-103.6328125,1,0,0,response3disk,,4,26.1796875,-0.37890625,1,0,0,rectangle,26.1796875,-0.37890625,1,0,0,26.1796875,-0.37890625,1,0,0,0,113,113,145,1,,,,,,,,
,,,,,,,,,,,,,FF,,,,,,,,1.0668,,,,,,,,,,,,,,,,,,,,,,60ff79105d98c6ebf9efa752,61036ef120280bdbe69140a4,2021-07-29_20h16.33.282,Simcolourproject_2stim_asymm_v5,2020.2.10,MacIntel,60,61025ae37ef11b136ea224fe,,,,,,,,,1528,-73.31640625,-29.5859375,1,0,0,response5disk,,2,-2.21484375,-2.42578125,1,0,0,rectangle,-2.21484375,-2.42578125,1,0,0,-2.21484375,-2.42578125,1,0,0,0,114,114,69,1,,,,,,,,
,,,,,,,,,,,,,FF,,,,,,,,1.1503,,,,,,,,,,,,,,,,,,,,,,60ff79105d98c6ebf9efa752,61036ef120280bdbe69140a4,2021-07-29_20h16.33.282,Simcolourproject_2stim_asymm_v5,2020.2.10,MacIntel,60,61025ae37ef11b136ea224fe,,,,,,,,,3332,62.015625,-41.25,1,0,0,response3disk,,5,20.0859375,-6.47265625,1,0,0,rectangle,20.0859375,-6.47265625,1,0,0,20.0859375,-6.47265625,1,0,0,0,115,115,147,1,,,,,,,,
,,,,,,,,,,,,,FF,,,,,,,,0.8168,,,,,,,,,,,,,,,,,,,,,,60ff79105d98c6ebf9efa752,61036ef120280bdbe69140a4,2021-07-29_20h16.33.282,Simcolourproject_2stim_asymm_v5,2020.2.10,MacIntel,60,61025ae37ef11b136ea224fe,,,,,,,,,638,-64.21484375,30.6640625,1,0,0,response7disk,,1,0.69921875,6.9140625,1,0,0,rectangle,0.69921875,6.9140625,1,0,0,0.69921875,6.9140625,1,0,0,0,116,116,100,1,,,,,,,,
,,,,,,,,,,,,,FF,,,,,,,,1.4163,,,,,,,,,,,,,,,,,,,,,,60ff79105d98c6ebf9efa752,61036ef120280bdbe69140a4,2021-07-29_20h16.33.282,Simcolourproject_2stim_asymm_v5,2020.2.10,MacIntel,60,61025ae37ef11b136ea224fe,,,,,,,,,308,98.03515625,-55.18359375,1,0,0,response3disk,,5,22.82421875,-8.453125,1,0,0,rectangle,22.82421875,-8.453125,1,0,0,22.82421875,-8.453125,1,0,0,0,117,117,155,1,,,,,,,,
,,,,,,,,,,,,,FF,,,,,,,,0.9164,,,,,,,,,,,,,,,,,,,,,,60ff79105d98c6ebf9efa752,61036ef120280bdbe69140a4,2021-07-29_20h16.33.282,Simcolourproject_2stim_asymm_v5,2020.2.10,MacIntel,60,61025ae37ef11b136ea224fe,,,,,,,,,634,-83.53125,-27.703125,1,0,0,response5disk,,2,-1.8125,5.30859375,1,0,0,rectangle,-1.8125,5.30859375,1,0,0,-1.8125,5.30859375,1,0,0,0,118,118,105,1,,,,,,,,
,,,,,,,,,,,,,FF,,,,,,,,1.0984,,,,,,,,,,,,,,,,,,,,,,60ff79105d98c6ebf9efa752,61036ef120280bdbe69140a4,2021-07-29_20h16.33.282,Simcolourproject_2stim_asymm_v5,2020.2.10,MacIntel,60,61025ae37ef11b136ea224fe,,,,,,,,,2117,89.5,24.9140625,1,0,0,response1disk,,6,-9.1328125,-3.84375,1,0,0,rectangle,-9.1328125,-3.84375,1,0,0,-9.1328125,-3.84375,1,0,0,0,119,119,47,1,,,,,,,,
,,,,,,,,,,,,,FF,,,,,,,,1.1668,,,,,,,,,,,,,,,,,,,,,,60ff79105d98c6ebf9efa752,61036ef120280bdbe69140a4,2021-07-29_20h16.33.282,Simcolourproject_2stim_asymm_v5,2020.2.10,MacIntel,60,61025ae37ef11b136ea224fe,,,,,,,,,3100,-86.859375,-45.765625,1,0,0,response5disk,,2,4.73828125,4.90234375,1,0,0,rectangle,4.73828125,4.90234375,1,0,0,4.73828125,4.90234375,1,0,0,0,120,120,55,1,,,,,,,,
,,,,,,,,,,,,,FF,,,,,,,,0.8324,,,,,,,,,,,,,,,,,,,,,,60ff79105d98c6ebf9efa752,61036ef120280bdbe69140a4,2021-07-29_20h16.33.282,Simcolourproject_2stim_asymm_v5,2020.2.10,MacIntel,60,61025ae37ef11b136ea224fe,,,,,,,,,517,61.66796875,-36.78515625,1,0,0,response3disk,,5,20.24609375,-5.3125,1,0,0,rectangle,20.24609375,-5.3125,1,0,0,20.24609375,-5.3125,1,0,0,0,121,121,46,1,,,,,,,,
,,,,,,,,,,,,,FF,,,,,,,,0.998,,,,,,,,,,,,,,,,,,,,,,60ff79105d98c6ebf9efa752,61036ef120280bdbe69140a4,2021-07-29_20h16.33.282,Simcolourproject_2stim_asymm_v5,2020.2.10,MacIntel,60,61025ae37ef11b136ea224fe,,,,,,,,,2564,106.3671875,-31.0234375,1,0,0,response3disk,,5,-14.45703125,1.6796875,1,0,0,rectangle,-14.45703125,1.6796875,1,0,0,-14.45703125,1.6796875,1,0,0,0,122,122,41,1,,,,,,,,
,,,,,,,,,,,,,FF,,,,,,,,0.8835,,,,,,,,,,,,,,,,,,,,,,60ff79105d98c6ebf9efa752,61036ef120280bdbe69140a4,2021-07-29_20h16.33.282,Simcolourproject_2stim_asymm_v5,2020.2.10,MacIntel,60,61025ae37ef11b136ea224fe,,,,,,,,,1570,-34.74609375,-77.84765625,1,0,0,response5disk,,3,21.65625,11.08984375,1,0,0,rectangle,21.65625,11.08984375,1,0,0,21.65625,11.08984375,1,0,0,0,123,123,113,1,,,,,,,,
,,,,,,,,,,,,,FF,,,,,,,,1.0669,,,,,,,,,,,,,,,,,,,,,,60ff79105d98c6ebf9efa752,61036ef120280bdbe69140a4,2021-07-29_20h16.33.282,Simcolourproject_2stim_asymm_v5,2020.2.10,MacIntel,60,61025ae37ef11b136ea224fe,,,,,,,,,3659,93.12109375,53.921875,1,0,0,response1disk,,6,19.3984375,7.28515625,1,0,0,rectangle,19.3984375,7.28515625,1,0,0,19.3984375,7.28515625,1,0,0,0,124,124,124,1,,,,,,,,
,,,,,,,,,,,,,FF,,,,,,,,1.2835,,,,,,,,,,,,,,,,,,,,,,60ff79105d98c6ebf9efa752,61036ef120280bdbe69140a4,2021-07-29_20h16.33.282,Simcolourproject_2stim_asymm_v5,2020.2.10,MacIntel,60,61025ae37ef11b136ea224fe,,,,,,,,,3296,-97.09765625,-38.01953125,1,0,0,response5disk,,2,-6.10546875,-5.6796875,1,0,0,rectangle,-6.10546875,-5.6796875,1,0,0,-6.10546875,-5.6796875,1,0,0,0,125,125,12,1,,,,,,,,
,,,,,,,,,,,,,FF,,,,,,,,0.8002,,,,,,,,,,,,,,,,,,,,,,60ff79105d98c6ebf9efa752,61036ef120280bdbe69140a4,2021-07-29_20h16.33.282,Simcolourproject_2stim_asymm_v5,2020.2.10,MacIntel,60,61025ae37ef11b136ea224fe,,,,,,,,,906,-42.0078125,-97.03515625,1,0,0,response5disk,,3,31.96484375,-4.59375,1,0,0,rectangle,31.96484375,-4.59375,1,0,0,31.96484375,-4.59375,1,0,0,0,126,126,76,1,,,,,,,,
,,,,,,,,,,,,,FF,,,,,,,,1.2166,,,,,,,,,,,,,,,,,,,,,,60ff79105d98c6ebf9efa752,61036ef120280bdbe69140a4,2021-07-29_20h16.33.282,Simcolourproject_2stim_asymm_v5,2020.2.10,MacIntel,60,61025ae37ef11b136ea224fe,,,,,,,,,1967,-34.97265625,-95.7421875,1,0,0,response5disk,,3,15.3828125,-4.80859375,1,0,0,rectangle,15.3828125,-4.80859375,1,0,0,15.3828125,-4.80859375,1,0,0,0,127,127,68,1,,,,,,,,
,,,,,,,,,,,,,FF,,,,,,,,0.9874,,,,,,,,,,,,,,,,,,,,,,60ff79105d98c6ebf9efa752,61036ef120280bdbe69140a4,2021-07-29_20h16.33.282,Simcolourproject_2stim_asymm_v5,2020.2.10,MacIntel,60,61025ae37ef11b136ea224fe,,,,,,,,,334,36.859375,-66.65625,1,0,0,response3disk,,4,28.296875,-6.96875,1,0,0,rectangle,28.296875,-6.96875,1,0,0,28.296875,-6.96875,1,0,0,0,128,128,139,1,,,,,,,,
,,,,,,,,,,,,,FF,,,,,,,,0.7668,,,,,,,,,,,,,,,,,,,,,,60ff79105d98c6ebf9efa752,61036ef120280bdbe69140a4,2021-07-29_20h16.33.282,Simcolourproject_2stim_asymm_v5,2020.2.10,MacIntel,60,61025ae37ef11b136ea224fe,,,,,,,,,142,21.515625,-69.59765625,1,0,0,response3disk,,4,1.87890625,3.5546875,1,0,0,rectangle,1.87890625,3.5546875,1,0,0,1.87890625,3.5546875,1,0,0,0,129,129,80,1,,,,,,,,
,,,,,,,,,,,,,FF,,,,,,,,0.967,,,,,,,,,,,,,,,,,,,,,,60ff79105d98c6ebf9efa752,61036ef120280bdbe69140a4,2021-07-29_20h16.33.282,Simcolourproject_2stim_asymm_v5,2020.2.10,MacIntel,60,61025ae37ef11b136ea224fe,,,,,,,,,283,-83.84765625,-51.58203125,1,0,0,response5disk,,2,-16.16796875,-10.31640625,1,0,0,rectangle,-16.16796875,-10.31640625,1,0,0,-16.16796875,-10.31640625,1,0,0,0,130,130,133,1,,,,,,,,
,,,,,,,,,,,,,FF,,,,,,,,0.784,,,,,,,,,,,,,,,,,,,,,,60ff79105d98c6ebf9efa752,61036ef120280bdbe69140a4,2021-07-29_20h16.33.282,Simcolourproject_2stim_asymm_v5,2020.2.10,MacIntel,60,61025ae37ef11b136ea224fe,,,,,,,,,978,-68.8046875,-38.2109375,1,0,0,response5disk,,2,-8.78515625,3.203125,1,0,0,rectangle,-8.78515625,3.203125,1,0,0,-8.78515625,3.203125,1,0,0,0,131,131,130,1,,,,,,,,
,,,,,,,,,,,,,FF,,,,,,,,1.0514,,,,,,,,,,,,,,,,,,,,,,60ff79105d98c6ebf9efa752,61036ef120280bdbe69140a4,2021-07-29_20h16.33.282,Simcolourproject_2stim_asymm_v5,2020.2.10,MacIntel,60,61025ae37ef11b136ea224fe,,,,,,,,,2082,31.84765625,-90.8828125,1,0,0,response3disk,,4,13.04296875,0.4296875,1,0,0,rectangle,13.04296875,0.4296875,1,0,0,13.04296875,0.4296875,1,0,0,0,132,132,115,1,,,,,,,,
,,,,,,,,,,,,,FF,,,,,,,,1.2692,,,,,,,,,,,,,,,,,,,,,,60ff79105d98c6ebf9efa752,61036ef120280bdbe69140a4,2021-07-29_20h16.33.282,Simcolourproject_2stim_asymm_v5,2020.2.10,MacIntel,60,61025ae37ef11b136ea224fe,,,,,,,,,1162,48.15625,-88.15625,1,0,0,response3disk,,4,29.73046875,-3.09765625,1,0,0,rectangle,24.203125,-79.421875,1,0,0,-13.4375,-1.23828125,1,0,0,0,133,133,109,1,,response3disk_3,TRUE,4,4,"[5,93,134,74,218,155,64,95,17,288,166,222,108,11,306,18,202,295,239,248]",1.5823,rectangle
,,,,,,,,,,,,,FF,,,,,,,,0.9497,,,,,,,,,,,,,,,,,,,,,,60ff79105d98c6ebf9efa752,61036ef120280bdbe69140a4,2021-07-29_20h16.33.282,Simcolourproject_2stim_asymm_v5,2020.2.10,MacIntel,60,61025ae37ef11b136ea224fe,,,,,,,,,2223,107.375,35.58203125,1,0,0,response1disk,,6,4.0859375,-2.46875,1,0,0,rectangle,4.0859375,-2.46875,1,0,0,4.0859375,-2.46875,1,0,0,0,134,134,104,1,,,,,,,,
,,,,,,,,,,,,,FF,,,,,,,,0.8353,,,,,,,,,,,,,,,,,,,,,,60ff79105d98c6ebf9efa752,61036ef120280bdbe69140a4,2021-07-29_20h16.33.282,Simcolourproject_2stim_asymm_v5,2020.2.10,MacIntel,60,61025ae37ef11b136ea224fe,,,,,,,,,3426,-69.8515625,-34.90234375,1,0,0,response5disk,,2,-19.76953125,-5.47265625,1,0,0,rectangle,-19.76953125,-5.47265625,1,0,0,-19.76953125,-5.47265625,1,0,0,0,135,135,126,1,,,,,,,,
,,,,,,,,,,,,,FF,,,,,,,,1.5982,,,,,,,,,,,,,,,,,,,,,,60ff79105d98c6ebf9efa752,61036ef120280bdbe69140a4,2021-07-29_20h16.33.282,Simcolourproject_2stim_asymm_v5,2020.2.10,MacIntel,60,61025ae37ef11b136ea224fe,,,,,,,,,1412,-33.45703125,-96.19140625,1,0,0,response5disk,,3,26.5859375,-9.33203125,1,0,0,rectangle,26.5859375,-9.33203125,1,0,0,26.5859375,-9.33203125,1,0,0,0,136,136,77,1,,,,,,,,
,,,,,,,,,,,,,FF,,,,,,,,0.7998,,,,,,,,,,,,,,,,,,,,,,60ff79105d98c6ebf9efa752,61036ef120280bdbe69140a4,2021-07-29_20h16.33.282,Simcolourproject_2stim_asymm_v5,2020.2.10,MacIntel,60,61025ae37ef11b136ea224fe,,,,,,,,,2700,42.6953125,-78.203125,1,0,0,response3disk,,4,25.328125,-13.65234375,1,0,0,rectangle,25.328125,-13.65234375,1,0,0,25.328125,-13.65234375,1,0,0,0,137,137,142,1,,,,,,,,
,,,,,,,,,,,,,FF,,,,,,,,1.1669,,,,,,,,,,,,,,,,,,,,,,60ff79105d98c6ebf9efa752,61036ef120280bdbe69140a4,2021-07-29_20h16.33.282,Simcolourproject_2stim_asymm_v5,2020.2.10,MacIntel,60,61025ae37ef11b136ea224fe,,,,,,,,,735,33.9375,-68.40625,1,0,0,response3disk,,4,7.41015625,9.3515625,1,0,0,rectangle,7.41015625,9.3515625,1,0,0,7.41015625,9.3515625,1,0,0,0,138,138,66,1,,,,,,,,
,,,,,,,,,,,,,FF,,,,,,,,1.0358,,,,,,,,,,,,,,,,,,,,,,60ff79105d98c6ebf9efa752,61036ef120280bdbe69140a4,2021-07-29_20h16.33.282,Simcolourproject_2stim_asymm_v5,2020.2.10,MacIntel,60,61025ae37ef11b136ea224fe,,,,,,,,,2561,52.49609375,-75.4609375,1,0,0,response3disk,,4,1.66015625,-0.6640625,1,0,0,rectangle,1.66015625,-0.6640625,1,0,0,1.66015625,-0.6640625,1,0,0,0,139,139,136,1,,,,,,,,
,,,,,,,,,,,,,FF,,,,,,,,0.8329,,,,,,,,,,,,,,,,,,,,,,60ff79105d98c6ebf9efa752,61036ef120280bdbe69140a4,2021-07-29_20h16.33.282,Simcolourproject_2stim_asymm_v5,2020.2.10,MacIntel,60,61025ae37ef11b136ea224fe,,,,,,,,,4268,-41.78515625,-65.37890625,1,0,0,response5disk,,3,6.9140625,3.40625,1,0,0,rectangle,6.9140625,3.40625,1,0,0,6.9140625,3.40625,1,0,0,0,140,140,121,1,,,,,,,,
,,,,,,,,,,,,,FF,,,,,,,,3.4511,,,,,,,,,,,,,,,,,,,,,,60ff79105d98c6ebf9efa752,61036ef120280bdbe69140a4,2021-07-29_20h16.33.282,Simcolourproject_2stim_asymm_v5,2020.2.10,MacIntel,60,61025ae37ef11b136ea224fe,,,,,,,,,2842,52.125,-83.39453125,1,0,0,response3disk,,4,16.0546875,-11.03125,1,0,0,rectangle,16.0546875,-11.03125,1,0,0,16.0546875,-11.03125,1,0,0,0,141,141,91,1,,,,,,,,
,,,,,,,,,,,,,FF,,,,,,,,1.598,,,,,,,,,,,,,,,,,,,,,,60ff79105d98c6ebf9efa752,61036ef120280bdbe69140a4,2021-07-29_20h16.33.282,Simcolourproject_2stim_asymm_v5,2020.2.10,MacIntel,60,61025ae37ef11b136ea224fe,,,,,,,,,2286,-34.09765625,-89.890625,1,0,0,response5disk,,3,26.78515625,-11.79296875,1,0,0,rectangle,26.78515625,-11.79296875,1,0,0,26.78515625,-11.79296875,1,0,0,0,142,142,146,1,,,,,,,,
,,,,,,,,,,,,,FF,,,,,,,,1.9482,,,,,,,,,,,,,,,,,,,,,,60ff79105d98c6ebf9efa752,61036ef120280bdbe69140a4,2021-07-29_20h16.33.282,Simcolourproject_2stim_asymm_v5,2020.2.10,MacIntel,60,61025ae37ef11b136ea224fe,,,,,,,,,3019,94.7890625,-68.2421875,1,0,0,response3disk,,5,23.25390625,0.54296875,1,0,0,rectangle,23.25390625,0.54296875,1,0,0,23.25390625,0.54296875,1,0,0,0,143,143,32,1,,,,,,,,
,,,,,,,,,,,,,FF,,,,,,,,1.7183,,,,,,,,,,,,,,,,,,,,,,60ff79105d98c6ebf9efa752,61036ef120280bdbe69140a4,2021-07-29_20h16.33.282,Simcolourproject_2stim_asymm_v5,2020.2.10,MacIntel,60,61025ae37ef11b136ea224fe,,,,,,,,,2197,87.75,26.70703125,1,0,0,response1disk,,6,16.58203125,-8.6015625,1,0,0,rectangle,16.58203125,-8.6015625,1,0,0,16.58203125,-8.6015625,1,0,0,0,144,144,59,1,,,,,,,,
,,,,,,,,,,,,,FF,,,,,,,,1.1687,,,,,,,,,,,,,,,,,,,,,,60ff79105d98c6ebf9efa752,61036ef120280bdbe69140a4,2021-07-29_20h16.33.282,Simcolourproject_2stim_asymm_v5,2020.2.10,MacIntel,60,61025ae37ef11b136ea224fe,,,,,,,,,2520,118.1640625,27.16796875,1,0,0,response1disk,,6,16.69140625,4.75,1,0,0,rectangle,16.69140625,4.75,1,0,0,16.69140625,4.75,1,0,0,0,145,145,111,1,,,,,,,,
,,,,,,,,,,,,,FF,,,,,,,,0.9482,,,,,,,,,,,,,,,,,,,,,,60ff79105d98c6ebf9efa752,61036ef120280bdbe69140a4,2021-07-29_20h16.33.282,Simcolourproject_2stim_asymm_v5,2020.2.10,MacIntel,60,61025ae37ef11b136ea224fe,,,,,,,,,441,-45.4140625,-76.32421875,1,0,0,response5disk,,3,-8.09765625,-4.84375,1,0,0,rectangle,-8.09765625,-4.84375,1,0,0,-8.09765625,-4.84375,1,0,0,0,146,146,148,1,,,,,,,,
,,,,,,,,,,,,,FF,,,,,,,,0.8984,,,,,,,,,,,,,,,,,,,,,,60ff79105d98c6ebf9efa752,61036ef120280bdbe69140a4,2021-07-29_20h16.33.282,Simcolourproject_2stim_asymm_v5,2020.2.10,MacIntel,60,61025ae37ef11b136ea224fe,,,,,,,,,2301,-28.37890625,-77.046875,1,0,0,response5disk,,3,14.7109375,-4.07421875,1,0,0,rectangle,14.7109375,-4.07421875,1,0,0,14.7109375,-4.07421875,1,0,0,0,147,147,137,1,,,,,,,,
,,,,,,,,,,,,,FF,,,,,,,,0.9835,,,,,,,,,,,,,,,,,,,,,,60ff79105d98c6ebf9efa752,61036ef120280bdbe69140a4,2021-07-29_20h16.33.282,Simcolourproject_2stim_asymm_v5,2020.2.10,MacIntel,60,61025ae37ef11b136ea224fe,,,,,,,,,3264,24.53515625,-77.01953125,1,0,0,response3disk,,4,12,-8.11328125,1,0,0,rectangle,12,-8.11328125,1,0,0,12,-8.11328125,1,0,0,0,148,148,3,1,,,,,,,,
,,,,,,,,,,,,,FF,,,,,,,,1.5019,,,,,,,,,,,,,,,,,,,,,,60ff79105d98c6ebf9efa752,61036ef120280bdbe69140a4,2021-07-29_20h16.33.282,Simcolourproject_2stim_asymm_v5,2020.2.10,MacIntel,60,61025ae37ef11b136ea224fe,,,,,,,,,1965,-89.04296875,46.828125,1,0,0,response7disk,,1,2.94140625,5.62890625,1,0,0,rectangle,2.94140625,5.62890625,1,0,0,2.94140625,5.62890625,1,0,0,0,149,149,150,1,,,,,,,,
,,,,,,,,,,,,,FF,,,,,,,,2.3167,,,,,,,,,,,,,,,,,,,,,,60ff79105d98c6ebf9efa752,61036ef120280bdbe69140a4,2021-07-29_20h16.33.282,Simcolourproject_2stim_asymm_v5,2020.2.10,MacIntel,60,61025ae37ef11b136ea224fe,,,,,,,,,321,60.70703125,-107.0039063,1,0,0,response3disk,,4,10.66796875,5.078125,1,0,0,rectangle,10.66796875,5.078125,1,0,0,10.66796875,5.078125,1,0,0,0,150,150,25,1,,,,,,,,
,,,,,,,,,,,,,FF,,,,,,,,1.0831,,,,,,,,,,,,,,,,,,,,,,60ff79105d98c6ebf9efa752,61036ef120280bdbe69140a4,2021-07-29_20h16.33.282,Simcolourproject_2stim_asymm_v5,2020.2.10,MacIntel,60,61025ae37ef11b136ea224fe,,,,,,,,,1546,81.8125,-30.62890625,1,0,0,response3disk,,5,25.296875,0.21875,1,0,0,rectangle,25.296875,0.21875,1,0,0,25.296875,0.21875,1,0,0,0,151,151,94,1,,,,,,,,
,,,,,,,,,,,,,FF,,,,,,,,1.4333,,,,,,,,,,,,,,,,,,,,,,60ff79105d98c6ebf9efa752,61036ef120280bdbe69140a4,2021-07-29_20h16.33.282,Simcolourproject_2stim_asymm_v5,2020.2.10,MacIntel,60,61025ae37ef11b136ea224fe,,,,,,,,,4194,71.796875,-40.58203125,1,0,0,response3disk,,5,18.41015625,-3.98046875,1,0,0,rectangle,18.41015625,-3.98046875,1,0,0,18.41015625,-3.98046875,1,0,0,0,152,152,1,1,,,,,,,,
,,,,,,,,,,,,,FF,,,,,,,,0.9677,,,,,,,,,,,,,,,,,,,,,,60ff79105d98c6ebf9efa752,61036ef120280bdbe69140a4,2021-07-29_20h16.33.282,Simcolourproject_2stim_asymm_v5,2020.2.10,MacIntel,60,61025ae37ef11b136ea224fe,,,,,,,,,527,-49.26953125,-81.109375,1,0,0,response5disk,,3,-1.31640625,-3.2890625,1,0,0,rectangle,-1.31640625,-3.2890625,1,0,0,-1.31640625,-3.2890625,1,0,0,0,153,153,38,1,,,,,,,,
,,,,,,,,,,,,,FF,,,,,,,,0.9985,,,,,,,,,,,,,,,,,,,,,,60ff79105d98c6ebf9efa752,61036ef120280bdbe69140a4,2021-07-29_20h16.33.282,Simcolourproject_2stim_asymm_v5,2020.2.10,MacIntel,60,61025ae37ef11b136ea224fe,,,,,,,,,3142,49.36328125,-73.95703125,1,0,0,response3disk,,4,11.5390625,-3.515625,1,0,0,rectangle,53.98828125,73.7265625,1,0,0,0.80078125,-5.74609375,1,0,0,0,154,154,149,1,,response1disk_3,TRUE,7,7,"[5,93,134,74,218,155,64,95,17,288,166,222,108,11,306,18,202,295,239,248]",2.1658,rectangle
,,,,,,,,,,,,,FF,,,,,,,,0.9337,,,,,,,,,,,,,,,,,,,,,,60ff79105d98c6ebf9efa752,61036ef120280bdbe69140a4,2021-07-29_20h16.33.282,Simcolourproject_2stim_asymm_v5,2020.2.10,MacIntel,60,61025ae37ef11b136ea224fe,,,,,,,,,4185,48.25,-83.1953125,1,0,0,response3disk,,4,1.91796875,2.2734375,1,0,0,rectangle,1.91796875,2.2734375,1,0,0,1.91796875,2.2734375,1,0,0,0,155,155,122,1,,,,,,,,
,,,,,,,,,,,,,FF,,,,,,,,1.2499,,,,,,,,,,,,,,,,,,,,,,60ff79105d98c6ebf9efa752,61036ef120280bdbe69140a4,2021-07-29_20h16.33.282,Simcolourproject_2stim_asymm_v5,2020.2.10,MacIntel,60,61025ae37ef11b136ea224fe,,,,,,,,,2574,76.73828125,-23.08984375,1,0,0,response3disk,,5,20.5703125,0.6015625,1,0,0,rectangle,20.5703125,0.6015625,1,0,0,20.5703125,0.6015625,1,0,0,0,156,156,64,1,,,,,,,,
,,,,,,,,,,,,,FF,,,,,,,,0.8646,,,,,,,,,,,,,,,,,,,,,,60ff79105d98c6ebf9efa752,61036ef120280bdbe69140a4,2021-07-29_20h16.33.282,Simcolourproject_2stim_asymm_v5,2020.2.10,MacIntel,60,61025ae37ef11b136ea224fe,,,,,,,,,3460,39.2734375,-67.515625,1,0,0,response3disk,,4,-2.4296875,-6.9375,1,0,0,rectangle,-2.4296875,-6.9375,1,0,0,-2.4296875,-6.9375,1,0,0,0,157,157,39,1,,,,,,,,
,,,,,,,,,,,,,FF,,,,,,,,1.3667,,,,,,,,,,,,,,,,,,,,,,60ff79105d98c6ebf9efa752,61036ef120280bdbe69140a4,2021-07-29_20h16.33.282,Simcolourproject_2stim_asymm_v5,2020.2.10,MacIntel,60,61025ae37ef11b136ea224fe,,,,,,,,,1852,42.2734375,-71.3515625,1,0,0,response3disk,,4,7.30859375,-2.7890625,1,0,0,rectangle,7.30859375,-2.7890625,1,0,0,7.30859375,-2.7890625,1,0,0,0,158,158,10,1,,,,,,,,
,,,,,,,,,,,,,FF,,,,,,,,0.818,,,,,,,,,,,,,,,,,,,,,,60ff79105d98c6ebf9efa752,61036ef120280bdbe69140a4,2021-07-29_20h16.33.282,Simcolourproject_2stim_asymm_v5,2020.2.10,MacIntel,60,61025ae37ef11b136ea224fe,,,,,,,,,1757,-22.60546875,-58.5859375,1,0,0,response5disk,,3,10.03515625,-2.15234375,1,0,0,rectangle,10.03515625,-2.15234375,1,0,0,10.03515625,-2.15234375,1,0,0,0,159,159,15,1,,,,,,,,
,,,,,,,,,,,,,FF,,,,,,,,1.6685,,,,,,,,,,,,,,,,,,,,,,60ff79105d98c6ebf9efa752,61036ef120280bdbe69140a4,2021-07-29_20h16.33.282,Simcolourproject_2stim_asymm_v5,2020.2.10,MacIntel,60,61025ae37ef11b136ea224fe,,,,,,,,,3378,86.24609375,-37.8203125,1,0,0,response3disk,,5,12.93359375,-0.74609375,1,0,0,rectangle,12.93359375,-0.74609375,1,0,0,12.93359375,-0.74609375,1,0,0,1,0,160,99,1,,,,,,,,
,,,,,,,,,,,,,FF,,,,,,,,1.4179,,,,,,,,,,,,,,,,,,,,,,60ff79105d98c6ebf9efa752,61036ef120280bdbe69140a4,2021-07-29_20h16.33.282,Simcolourproject_2stim_asymm_v5,2020.2.10,MacIntel,60,61025ae37ef11b136ea224fe,,,,,,,,,2279,60.140625,-61.93359375,1,0,0,response3disk,,4,0.4453125,1.9375,1,0,0,rectangle,0.4453125,1.9375,1,0,0,0.4453125,1.9375,1,0,0,1,1,161,117,1,,,,,,,,
,,,,,,,,,,,,,FF,,,,,,,,1.3669,,,,,,,,,,,,,,,,,,,,,,60ff79105d98c6ebf9efa752,61036ef120280bdbe69140a4,2021-07-29_20h16.33.282,Simcolourproject_2stim_asymm_v5,2020.2.10,MacIntel,60,61025ae37ef11b136ea224fe,,,,,,,,,4222,-19.56640625,-88.453125,1,0,0,response5disk,,3,5.765625,6.5234375,1,0,0,rectangle,5.765625,6.5234375,1,0,0,5.765625,6.5234375,1,0,0,1,2,162,132,1,,,,,,,,
,,,,,,,,,,,,,FF,,,,,,,,0.9496,,,,,,,,,,,,,,,,,,,,,,60ff79105d98c6ebf9efa752,61036ef120280bdbe69140a4,2021-07-29_20h16.33.282,Simcolourproject_2stim_asymm_v5,2020.2.10,MacIntel,60,61025ae37ef11b136ea224fe,,,,,,,,,134,30.2734375,-59.59375,1,0,0,response3disk,,4,12.5625,-6.2421875,1,0,0,rectangle,12.5625,-6.2421875,1,0,0,12.5625,-6.2421875,1,0,0,1,3,163,15,1,,,,,,,,
,,,,,,,,,,,,,FF,,,,,,,,0.7518,,,,,,,,,,,,,,,,,,,,,,60ff79105d98c6ebf9efa752,61036ef120280bdbe69140a4,2021-07-29_20h16.33.282,Simcolourproject_2stim_asymm_v5,2020.2.10,MacIntel,60,61025ae37ef11b136ea224fe,,,,,,,,,2493,35.296875,-88.85546875,1,0,0,response3disk,,4,5.60546875,-10.72265625,1,0,0,rectangle,5.60546875,-10.72265625,1,0,0,5.60546875,-10.72265625,1,0,0,1,4,164,139,1,,,,,,,,
,,,,,,,,,,,,,FF,,,,,,,,1.0177,,,,,,,,,,,,,,,,,,,,,,60ff79105d98c6ebf9efa752,61036ef120280bdbe69140a4,2021-07-29_20h16.33.282,Simcolourproject_2stim_asymm_v5,2020.2.10,MacIntel,60,61025ae37ef11b136ea224fe,,,,,,,,,3538,78.48046875,-42.2421875,1,0,0,response3disk,,5,5.1171875,5.71484375,1,0,0,rectangle,-38.04296875,-81.0078125,1,0,0,13.4375,-3.79296875,1,0,0,1,5,165,56,1,,response5disk_3,TRUE,3,3,"[5,93,134,74,218,155,64,95,17,288,166,222,108,11,306,18,202,295,239,248]",2.4832,rectangle
,,,,,,,,,,,,,FF,,,,,,,,0.9479,,,,,,,,,,,,,,,,,,,,,,60ff79105d98c6ebf9efa752,61036ef120280bdbe69140a4,2021-07-29_20h16.33.282,Simcolourproject_2stim_asymm_v5,2020.2.10,MacIntel,60,61025ae37ef11b136ea224fe,,,,,,,,,3553,-49.0546875,-86.2578125,1,0,0,response5disk,,3,1.5859375,-0.21875,1,0,0,rectangle,1.5859375,-0.21875,1,0,0,1.5859375,-0.21875,1,0,0,1,6,166,128,1,,,,,,,,
,,,,,,,,,,,,,FF,,,,,,,,0.6503,,,,,,,,,,,,,,,,,,,,,,60ff79105d98c6ebf9efa752,61036ef120280bdbe69140a4,2021-07-29_20h16.33.282,Simcolourproject_2stim_asymm_v5,2020.2.10,MacIntel,60,61025ae37ef11b136ea224fe,,,,,,,,,1750,-63.796875,-29.55859375,1,0,0,response5disk,,2,-11.77734375,3.015625,1,0,0,rectangle,-11.77734375,3.015625,1,0,0,-11.77734375,3.015625,1,0,0,1,7,167,43,1,,,,,,,,
,,,,,,,,,,,,,FF,,,,,,,,0.6678,,,,,,,,,,,,,,,,,,,,,,60ff79105d98c6ebf9efa752,61036ef120280bdbe69140a4,2021-07-29_20h16.33.282,Simcolourproject_2stim_asymm_v5,2020.2.10,MacIntel,60,61025ae37ef11b136ea224fe,,,,,,,,,187,-49.26953125,-35.83984375,1,0,0,response5disk,,2,-7.08203125,-7.52734375,1,0,0,rectangle,-7.08203125,-7.52734375,1,0,0,-7.08203125,-7.52734375,1,0,0,1,8,168,2,1,,,,,,,,
,,,,,,,,,,,,,FF,,,,,,,,2.0351,,,,,,,,,,,,,,,,,,,,,,60ff79105d98c6ebf9efa752,61036ef120280bdbe69140a4,2021-07-29_20h16.33.282,Simcolourproject_2stim_asymm_v5,2020.2.10,MacIntel,60,61025ae37ef11b136ea224fe,,,,,,,,,2882,-32.51953125,-96.30078125,1,0,0,response5disk,,3,6.4765625,-2.71875,1,0,0,rectangle,6.4765625,-2.71875,1,0,0,6.4765625,-2.71875,1,0,0,1,9,169,55,1,,,,,,,,
,,,,,,,,,,,,,FF,,,,,,,,1.0503,,,,,,,,,,,,,,,,,,,,,,60ff79105d98c6ebf9efa752,61036ef120280bdbe69140a4,2021-07-29_20h16.33.282,Simcolourproject_2stim_asymm_v5,2020.2.10,MacIntel,60,61025ae37ef11b136ea224fe,,,,,,,,,2694,25.625,-69.15234375,1,0,0,response3disk,,4,-8.328125,-9.16796875,1,0,0,rectangle,-8.328125,-9.16796875,1,0,0,-8.328125,-9.16796875,1,0,0,1,10,170,153,1,,,,,,,,
,,,,,,,,,,,,,FF,,,,,,,,0.9018,,,,,,,,,,,,,,,,,,,,,,60ff79105d98c6ebf9efa752,61036ef120280bdbe69140a4,2021-07-29_20h16.33.282,Simcolourproject_2stim_asymm_v5,2020.2.10,MacIntel,60,61025ae37ef11b136ea224fe,,,,,,,,,3202,-43.48828125,-72.26171875,1,0,0,response5disk,,3,-7.90625,-9.2578125,1,0,0,rectangle,-7.90625,-9.2578125,1,0,0,-7.90625,-9.2578125,1,0,0,1,11,171,9,1,,,,,,,,
,,,,,,,,,,,,,FF,,,,,,,,0.9833,,,,,,,,,,,,,,,,,,,,,,60ff79105d98c6ebf9efa752,61036ef120280bdbe69140a4,2021-07-29_20h16.33.282,Simcolourproject_2stim_asymm_v5,2020.2.10,MacIntel,60,61025ae37ef11b136ea224fe,,,,,,,,,3182,42.7578125,-75.65625,1,0,0,response3disk,,4,-3.97265625,11.4140625,1,0,0,rectangle,-3.97265625,11.4140625,1,0,0,-3.97265625,11.4140625,1,0,0,1,12,172,154,1,,,,,,,,
,,,,,,,,,,,,,FF,,,,,,,,1.4334,,,,,,,,,,,,,,,,,,,,,,60ff79105d98c6ebf9efa752,61036ef120280bdbe69140a4,2021-07-29_20h16.33.282,Simcolourproject_2stim_asymm_v5,2020.2.10,MacIntel,60,61025ae37ef11b136ea224fe,,,,,,,,,18,-36.49609375,-75.734375,1,0,0,response5disk,,3,18.82421875,0.75390625,1,0,0,rectangle,18.82421875,0.75390625,1,0,0,18.82421875,0.75390625,1,0,0,1,13,173,69,1,,,,,,,,
,,,,,,,,,,,,,FF,,,,,,,,0.967,,,,,,,,,,,,,,,,,,,,,,60ff79105d98c6ebf9efa752,61036ef120280bdbe69140a4,2021-07-29_20h16.33.282,Simcolourproject_2stim_asymm_v5,2020.2.10,MacIntel,60,61025ae37ef11b136ea224fe,,,,,,,,,1405,99.4609375,-45.34375,1,0,0,response3disk,,5,21.35546875,1.328125,1,0,0,rectangle,21.35546875,1.328125,1,0,0,21.35546875,1.328125,1,0,0,1,14,174,157,1,,,,,,,,
,,,,,,,,,,,,,FF,,,,,,,,1.5002,,,,,,,,,,,,,,,,,,,,,,60ff79105d98c6ebf9efa752,61036ef120280bdbe69140a4,2021-07-29_20h16.33.282,Simcolourproject_2stim_asymm_v5,2020.2.10,MacIntel,60,61025ae37ef11b136ea224fe,,,,,,,,,92,-37.6953125,-87.18359375,1,0,0,response5disk,,3,21.98828125,4.77734375,1,0,0,rectangle,21.98828125,4.77734375,1,0,0,21.98828125,4.77734375,1,0,0,1,15,175,93,1,,,,,,,,
,,,,,,,,,,,,,FF,,,,,,,,1.9337,,,,,,,,,,,,,,,,,,,,,,60ff79105d98c6ebf9efa752,61036ef120280bdbe69140a4,2021-07-29_20h16.33.282,Simcolourproject_2stim_asymm_v5,2020.2.10,MacIntel,60,61025ae37ef11b136ea224fe,,,,,,,,,956,48.0703125,-90.39453125,1,0,0,response3disk,,4,-7.94921875,0.671875,1,0,0,rectangle,-7.94921875,0.671875,1,0,0,-7.94921875,0.671875,1,0,0,1,16,176,37,1,,,,,,,,
,,,,,,,,,,,,,FF,,,,,,,,1.1834,,,,,,,,,,,,,,,,,,,,,,60ff79105d98c6ebf9efa752,61036ef120280bdbe69140a4,2021-07-29_20h16.33.282,Simcolourproject_2stim_asymm_v5,2020.2.10,MacIntel,60,61025ae37ef11b136ea224fe,,,,,,,,,2464,82.4921875,26.5,1,0,0,response1disk,,6,-0.73828125,-6.171875,1,0,0,rectangle,-0.73828125,-6.171875,1,0,0,-0.73828125,-6.171875,1,0,0,1,17,177,66,1,,,,,,,,
,,,,,,,,,,,,,FF,,,,,,,,1.0004,,,,,,,,,,,,,,,,,,,,,,60ff79105d98c6ebf9efa752,61036ef120280bdbe69140a4,2021-07-29_20h16.33.282,Simcolourproject_2stim_asymm_v5,2020.2.10,MacIntel,60,61025ae37ef11b136ea224fe,,,,,,,,,3419,77.96875,-42.4921875,1,0,0,response3disk,,5,6.2109375,1.47265625,1,0,0,rectangle,6.2109375,1.47265625,1,0,0,6.2109375,1.47265625,1,0,0,1,18,178,27,1,,,,,,,,
,,,,,,,,,,,,,FF,,,,,,,,2.3986,,,,,,,,,,,,,,,,,,,,,,60ff79105d98c6ebf9efa752,61036ef120280bdbe69140a4,2021-07-29_20h16.33.282,Simcolourproject_2stim_asymm_v5,2020.2.10,MacIntel,60,61025ae37ef11b136ea224fe,,,,,,,,,3134,90.87890625,-35.91015625,1,0,0,response3disk,,5,13.0234375,6.76171875,1,0,0,rectangle,13.0234375,6.76171875,1,0,0,13.0234375,6.76171875,1,0,0,1,19,179,119,1,,,,,,,,
,,,,,,,,,,,,,FF,,,,,,,,0.835,,,,,,,,,,,,,,,,,,,,,,60ff79105d98c6ebf9efa752,61036ef120280bdbe69140a4,2021-07-29_20h16.33.282,Simcolourproject_2stim_asymm_v5,2020.2.10,MacIntel,60,61025ae37ef11b136ea224fe,,,,,,,,,2299,-60.00390625,-37.59765625,1,0,0,response5disk,,2,-24.9296875,-13.3359375,1,0,0,rectangle,-24.9296875,-13.3359375,1,0,0,-24.9296875,-13.3359375,1,0,0,1,20,180,47,1,,,,,,,,
,,,,,,,,,,,,,FF,,,,,,,,0.7523,,,,,,,,,,,,,,,,,,,,,,60ff79105d98c6ebf9efa752,61036ef120280bdbe69140a4,2021-07-29_20h16.33.282,Simcolourproject_2stim_asymm_v5,2020.2.10,MacIntel,60,61025ae37ef11b136ea224fe,,,,,,,,,277,-59.20703125,-34.6796875,1,0,0,response5disk,,2,-16.3125,-2.32421875,1,0,0,rectangle,-16.3125,-2.32421875,1,0,0,-16.3125,-2.32421875,1,0,0,1,21,181,13,1,,,,,,,,
,,,,,,,,,,,,,FF,,,,,,,,1.0362,,,,,,,,,,,,,,,,,,,,,,60ff79105d98c6ebf9efa752,61036ef120280bdbe69140a4,2021-07-29_20h16.33.282,Simcolourproject_2stim_asymm_v5,2020.2.10,MacIntel,60,61025ae37ef11b136ea224fe,,,,,,,,,2794,-20.26953125,-89.35546875,1,0,0,response5disk,,3,9.49609375,-0.84375,1,0,0,rectangle,9.49609375,-0.84375,1,0,0,9.49609375,-0.84375,1,0,0,1,22,182,147,1,,,,,,,,
,,,,,,,,,,,,,FF,,,,,,,,1.1497,,,,,,,,,,,,,,,,,,,,,,60ff79105d98c6ebf9efa752,61036ef120280bdbe69140a4,2021-07-29_20h16.33.282,Simcolourproject_2stim_asymm_v5,2020.2.10,MacIntel,60,61025ae37ef11b136ea224fe,,,,,,,,,2575,62.0078125,-88.5625,1,0,0,response3disk,,4,14.39453125,1.9453125,1,0,0,rectangle,14.39453125,1.9453125,1,0,0,14.39453125,1.9453125,1,0,0,1,23,183,7,1,,,,,,,,
,,,,,,,,,,,,,FF,,,,,,,,0.8504,,,,,,,,,,,,,,,,,,,,,,60ff79105d98c6ebf9efa752,61036ef120280bdbe69140a4,2021-07-29_20h16.33.282,Simcolourproject_2stim_asymm_v5,2020.2.10,MacIntel,60,61025ae37ef11b136ea224fe,,,,,,,,,1936,40.94921875,-70.26953125,1,0,0,response3disk,,4,-9.125,0.8671875,1,0,0,rectangle,-9.125,0.8671875,1,0,0,-9.125,0.8671875,1,0,0,1,24,184,60,1,,,,,,,,
,,,,,,,,,,,,,FF,,,,,,,,2.5666,,,,,,,,,,,,,,,,,,,,,,60ff79105d98c6ebf9efa752,61036ef120280bdbe69140a4,2021-07-29_20h16.33.282,Simcolourproject_2stim_asymm_v5,2020.2.10,MacIntel,60,61025ae37ef11b136ea224fe,,,,,,,,,1143,-45.4765625,-94.94921875,1,0,0,response5disk,,3,7.9375,3.203125,1,0,0,rectangle,7.9375,3.203125,1,0,0,7.9375,3.203125,1,0,0,1,25,185,50,1,,,,,,,,
,,,,,,,,,,,,,FF,,,,,,,,1.6694,,,,,,,,,,,,,,,,,,,,,,60ff79105d98c6ebf9efa752,61036ef120280bdbe69140a4,2021-07-29_20h16.33.282,Simcolourproject_2stim_asymm_v5,2020.2.10,MacIntel,60,61025ae37ef11b136ea224fe,,,,,,,,,1121,-73.64453125,-53.76953125,1,0,0,response5disk,,2,-15.4453125,-3.8828125,1,0,0,rectangle,-15.4453125,-3.8828125,1,0,0,-15.4453125,-3.8828125,1,0,0,1,26,186,48,1,,,,,,,,
,,,,,,,,,,,,,FF,,,,,,,,0.8856,,,,,,,,,,,,,,,,,,,,,,60ff79105d98c6ebf9efa752,61036ef120280bdbe69140a4,2021-07-29_20h16.33.282,Simcolourproject_2stim_asymm_v5,2020.2.10,MacIntel,60,61025ae37ef11b136ea224fe,,,,,,,,,1132,-66.57421875,-35.98828125,1,0,0,response5disk,,2,-9.53515625,4.1171875,1,0,0,rectangle,-9.53515625,4.1171875,1,0,0,-9.53515625,4.1171875,1,0,0,1,27,187,114,1,,,,,,,,
,,,,,,,,,,,,,FF,,,,,,,,0.8337,,,,,,,,,,,,,,,,,,,,,,60ff79105d98c6ebf9efa752,61036ef120280bdbe69140a4,2021-07-29_20h16.33.282,Simcolourproject_2stim_asymm_v5,2020.2.10,MacIntel,60,61025ae37ef11b136ea224fe,,,,,,,,,3233,28.69921875,-73.66015625,1,0,0,response3disk,,4,2.87890625,-9.31640625,1,0,0,rectangle,2.87890625,-9.31640625,1,0,0,2.87890625,-9.31640625,1,0,0,1,28,188,8,1,,,,,,,,
,,,,,,,,,,,,,FF,,,,,,,,1.1002,,,,,,,,,,,,,,,,,,,,,,60ff79105d98c6ebf9efa752,61036ef120280bdbe69140a4,2021-07-29_20h16.33.282,Simcolourproject_2stim_asymm_v5,2020.2.10,MacIntel,60,61025ae37ef11b136ea224fe,,,,,,,,,2680,-15.86328125,-84.78125,1,0,0,response5disk,,3,13.92578125,3.8125,1,0,0,rectangle,13.92578125,3.8125,1,0,0,13.92578125,3.8125,1,0,0,1,29,189,63,1,,,,,,,,
,,,,,,,,,,,,,FF,,,,,,,,0.802,,,,,,,,,,,,,,,,,,,,,,60ff79105d98c6ebf9efa752,61036ef120280bdbe69140a4,2021-07-29_20h16.33.282,Simcolourproject_2stim_asymm_v5,2020.2.10,MacIntel,60,61025ae37ef11b136ea224fe,,,,,,,,,768,30.6484375,-62.0390625,1,0,0,response3disk,,4,22.98828125,2.68359375,1,0,0,rectangle,22.98828125,2.68359375,1,0,0,22.98828125,2.68359375,1,0,0,1,30,190,150,1,,,,,,,,
,,,,,,,,,,,,,FF,,,,,,,,0.9834,,,,,,,,,,,,,,,,,,,,,,60ff79105d98c6ebf9efa752,61036ef120280bdbe69140a4,2021-07-29_20h16.33.282,Simcolourproject_2stim_asymm_v5,2020.2.10,MacIntel,60,61025ae37ef11b136ea224fe,,,,,,,,,3642,35.984375,-50.3046875,1,0,0,response3disk,,4,17.53125,-7.6484375,1,0,0,rectangle,17.53125,-7.6484375,1,0,0,17.53125,-7.6484375,1,0,0,1,31,191,98,1,,,,,,,,
,,,,,,,,,,,,,FF,,,,,,,,0.8494,,,,,,,,,,,,,,,,,,,,,,60ff79105d98c6ebf9efa752,61036ef120280bdbe69140a4,2021-07-29_20h16.33.282,Simcolourproject_2stim_asymm_v5,2020.2.10,MacIntel,60,61025ae37ef11b136ea224fe,,,,,,,,,943,94.89453125,38.45703125,1,0,0,response1disk,,6,5.6796875,-1.2890625,1,0,0,rectangle,5.6796875,-1.2890625,1,0,0,5.6796875,-1.2890625,1,0,0,1,32,192,94,1,,,,,,,,
,,,,,,,,,,,,,FF,,,,,,,,0.6682,,,,,,,,,,,,,,,,,,,,,,60ff79105d98c6ebf9efa752,61036ef120280bdbe69140a4,2021-07-29_20h16.33.282,Simcolourproject_2stim_asymm_v5,2020.2.10,MacIntel,60,61025ae37ef11b136ea224fe,,,,,,,,,2007,71.28125,40.796875,1,0,0,response1disk,,6,19.19140625,4.203125,1,0,0,rectangle,19.19140625,4.203125,1,0,0,19.19140625,4.203125,1,0,0,1,33,193,104,1,,,,,,,,
,,,,,,,,,,,,,FF,,,,,,,,1.6167,,,,,,,,,,,,,,,,,,,,,,60ff79105d98c6ebf9efa752,61036ef120280bdbe69140a4,2021-07-29_20h16.33.282,Simcolourproject_2stim_asymm_v5,2020.2.10,MacIntel,60,61025ae37ef11b136ea224fe,,,,,,,,,584,84.69140625,-50.3359375,1,0,0,response3disk,,5,8.41796875,3.9453125,1,0,0,rectangle,8.41796875,3.9453125,1,0,0,8.41796875,3.9453125,1,0,0,1,34,194,101,1,,,,,,,,
,,,,,,,,,,,,,FF,,,,,,,,1.4681,,,,,,,,,,,,,,,,,,,,,,60ff79105d98c6ebf9efa752,61036ef120280bdbe69140a4,2021-07-29_20h16.33.282,Simcolourproject_2stim_asymm_v5,2020.2.10,MacIntel,60,61025ae37ef11b136ea224fe,,,,,,,,,339,99.62109375,-44.0625,1,0,0,response3disk,,5,5.73828125,-2.32421875,1,0,0,rectangle,5.73828125,-2.32421875,1,0,0,5.73828125,-2.32421875,1,0,0,1,35,195,141,1,,,,,,,,
,,,,,,,,,,,,,FF,,,,,,,,1.5337,,,,,,,,,,,,,,,,,,,,,,60ff79105d98c6ebf9efa752,61036ef120280bdbe69140a4,2021-07-29_20h16.33.282,Simcolourproject_2stim_asymm_v5,2020.2.10,MacIntel,60,61025ae37ef11b136ea224fe,,,,,,,,,174,-58.59765625,-82.2734375,1,0,0,response5disk,,3,-2.21875,-4.2734375,1,0,0,rectangle,-2.21875,-4.2734375,1,0,0,-2.21875,-4.2734375,1,0,0,1,36,196,79,1,,,,,,,,
,,,,,,,,,,,,,FF,,,,,,,,0.934,,,,,,,,,,,,,,,,,,,,,,60ff79105d98c6ebf9efa752,61036ef120280bdbe69140a4,2021-07-29_20h16.33.282,Simcolourproject_2stim_asymm_v5,2020.2.10,MacIntel,60,61025ae37ef11b136ea224fe,,,,,,,,,1107,83.68359375,-24.15625,1,0,0,response3disk,,5,12.80859375,3.96875,1,0,0,rectangle,12.80859375,3.96875,1,0,0,12.80859375,3.96875,1,0,0,1,37,197,11,1,,,,,,,,
,,,,,,,,,,,,,FF,,,,,,,,0.85,,,,,,,,,,,,,,,,,,,,,,60ff79105d98c6ebf9efa752,61036ef120280bdbe69140a4,2021-07-29_20h16.33.282,Simcolourproject_2stim_asymm_v5,2020.2.10,MacIntel,60,61025ae37ef11b136ea224fe,,,,,,,,,3827,44.32421875,-75.72265625,1,0,0,response3disk,,4,12.125,-2.41015625,1,0,0,rectangle,12.125,-2.41015625,1,0,0,12.125,-2.41015625,1,0,0,1,38,198,57,1,,,,,,,,
,,,,,,,,,,,,,FF,,,,,,,,0.7672,,,,,,,,,,,,,,,,,,,,,,60ff79105d98c6ebf9efa752,61036ef120280bdbe69140a4,2021-07-29_20h16.33.282,Simcolourproject_2stim_asymm_v5,2020.2.10,MacIntel,60,61025ae37ef11b136ea224fe,,,,,,,,,2894,-59.7109375,-37.16796875,1,0,0,response5disk,,2,-25.27734375,-8.03515625,1,0,0,rectangle,-25.27734375,-8.03515625,1,0,0,-25.27734375,-8.03515625,1,0,0,1,39,199,44,1,,,,,,,,
,,,,,,,,,,,,,FF,,,,,,,,2.151,,,,,,,,,,,,,,,,,,,,,,60ff79105d98c6ebf9efa752,61036ef120280bdbe69140a4,2021-07-29_20h16.33.282,Simcolourproject_2stim_asymm_v5,2020.2.10,MacIntel,60,61025ae37ef11b136ea224fe,,,,,,,,,1337,29.3828125,-93.66796875,1,0,0,response3disk,,4,16.75,-6.421875,1,0,0,rectangle,16.75,-6.421875,1,0,0,16.75,-6.421875,1,0,0,1,40,200,111,1,,,,,,,,
,,,,,,,,,,,,,FF,,,,,,,,3.2335,,,,,,,,,,,,,,,,,,,,,,60ff79105d98c6ebf9efa752,61036ef120280bdbe69140a4,2021-07-29_20h16.33.282,Simcolourproject_2stim_asymm_v5,2020.2.10,MacIntel,60,61025ae37ef11b136ea224fe,,,,,,,,,11,39.97265625,-75.13671875,1,0,0,response3disk,,4,25.0859375,2.3359375,1,0,0,rectangle,-80.61328125,-45.203125,1,0,0,20.671875,2.17578125,1,0,0,1,41,201,89,1,,response5disk_3,TRUE,2,2,"[5,93,134,74,218,155,64,95,17,288,166,222,108,11,306,18,202,295,239,248]",2.4023,rectangle
,,,,,,,,,,,,,FF,,,,,,,,0.8154,,,,,,,,,,,,,,,,,,,,,,60ff79105d98c6ebf9efa752,61036ef120280bdbe69140a4,2021-07-29_20h16.33.282,Simcolourproject_2stim_asymm_v5,2020.2.10,MacIntel,60,61025ae37ef11b136ea224fe,,,,,,,,,4262,53.58203125,-46.6640625,1,0,0,response3disk,,5,-0.34375,-9.89453125,1,0,0,rectangle,-0.34375,-9.89453125,1,0,0,-0.34375,-9.89453125,1,0,0,1,42,202,81,1,,,,,,,,
,,,,,,,,,,,,,FF,,,,,,,,1.0022,,,,,,,,,,,,,,,,,,,,,,60ff79105d98c6ebf9efa752,61036ef120280bdbe69140a4,2021-07-29_20h16.33.282,Simcolourproject_2stim_asymm_v5,2020.2.10,MacIntel,60,61025ae37ef11b136ea224fe,,,,,,,,,3797,92.76171875,-34.0703125,1,0,0,response3disk,,5,20.6171875,-7.8046875,1,0,0,rectangle,20.6171875,-7.8046875,1,0,0,20.6171875,-7.8046875,1,0,0,1,43,203,51,1,,,,,,,,
,,,,,,,,,,,,,FF,,,,,,,,1.0355,,,,,,,,,,,,,,,,,,,,,,60ff79105d98c6ebf9efa752,61036ef120280bdbe69140a4,2021-07-29_20h16.33.282,Simcolourproject_2stim_asymm_v5,2020.2.10,MacIntel,60,61025ae37ef11b136ea224fe,,,,,,,,,398,36.44140625,-62.4765625,1,0,0,response3disk,,4,29.62890625,1.390625,1,0,0,rectangle,29.62890625,1.390625,1,0,0,29.62890625,1.390625,1,0,0,1,44,204,32,1,,,,,,,,
,,,,,,,,,,,,,FF,,,,,,,,0.7506,,,,,,,,,,,,,,,,,,,,,,60ff79105d98c6ebf9efa752,61036ef120280bdbe69140a4,2021-07-29_20h16.33.282,Simcolourproject_2stim_asymm_v5,2020.2.10,MacIntel,60,61025ae37ef11b136ea224fe,,,,,,,,,2104,-40.74609375,-76.40625,1,0,0,response5disk,,3,-5.14453125,-5.05078125,1,0,0,rectangle,-5.14453125,-5.05078125,1,0,0,-5.14453125,-5.05078125,1,0,0,1,45,205,76,1,,,,,,,,
,,,,,,,,,,,,,FF,,,,,,,,0.7664,,,,,,,,,,,,,,,,,,,,,,60ff79105d98c6ebf9efa752,61036ef120280bdbe69140a4,2021-07-29_20h16.33.282,Simcolourproject_2stim_asymm_v5,2020.2.10,MacIntel,60,61025ae37ef11b136ea224fe,,,,,,,,,4061,48.9453125,-63.50390625,1,0,0,response3disk,,4,20.7421875,0.84765625,1,0,0,rectangle,20.7421875,0.84765625,1,0,0,20.7421875,0.84765625,1,0,0,1,46,206,116,1,,,,,,,,
,,,,,,,,,,,,,FF,,,,,,,,0.7346,,,,,,,,,,,,,,,,,,,,,,60ff79105d98c6ebf9efa752,61036ef120280bdbe69140a4,2021-07-29_20h16.33.282,Simcolourproject_2stim_asymm_v5,2020.2.10,MacIntel,60,61025ae37ef11b136ea224fe,,,,,,,,,218,33.71484375,-82,1,0,0,response3disk,,4,12.58203125,5.796875,1,0,0,rectangle,12.58203125,5.796875,1,0,0,12.58203125,5.796875,1,0,0,1,47,207,86,1,,,,,,,,
,,,,,,,,,,,,,FF,,,,,,,,0.8331,,,,,,,,,,,,,,,,,,,,,,60ff79105d98c6ebf9efa752,61036ef120280bdbe69140a4,2021-07-29_20h16.33.282,Simcolourproject_2stim_asymm_v5,2020.2.10,MacIntel,60,61025ae37ef11b136ea224fe,,,,,,,,,229,31.4453125,-73.26171875,1,0,0,response3disk,,4,8.7265625,-5.078125,1,0,0,rectangle,8.7265625,-5.078125,1,0,0,8.7265625,-5.078125,1,0,0,1,48,208,107,1,,,,,,,,
,,,,,,,,,,,,,FF,,,,,,,,0.6987,,,,,,,,,,,,,,,,,,,,,,60ff79105d98c6ebf9efa752,61036ef120280bdbe69140a4,2021-07-29_20h16.33.282,Simcolourproject_2stim_asymm_v5,2020.2.10,MacIntel,60,61025ae37ef11b136ea224fe,,,,,,,,,4179,83.58203125,42.4140625,1,0,0,response1disk,,6,25.76953125,2.125,1,0,0,rectangle,25.76953125,2.125,1,0,0,25.76953125,2.125,1,0,0,1,49,209,88,1,,,,,,,,
,,,,,,,,,,,,,FF,,,,,,,,1.7381,,,,,,,,,,,,,,,,,,,,,,60ff79105d98c6ebf9efa752,61036ef120280bdbe69140a4,2021-07-29_20h16.33.282,Simcolourproject_2stim_asymm_v5,2020.2.10,MacIntel,60,61025ae37ef11b136ea224fe,,,,,,,,,4115,57.890625,-79.66796875,1,0,0,response3disk,,4,21.4140625,-3.1328125,1,0,0,rectangle,21.4140625,-3.1328125,1,0,0,21.4140625,-3.1328125,1,0,0,1,50,210,127,1,,,,,,,,
,,,,,,,,,,,,,FF,,,,,,,,0.65,,,,,,,,,,,,,,,,,,,,,,60ff79105d98c6ebf9efa752,61036ef120280bdbe69140a4,2021-07-29_20h16.33.282,Simcolourproject_2stim_asymm_v5,2020.2.10,MacIntel,60,61025ae37ef11b136ea224fe,,,,,,,,,3144,61.765625,-23.65234375,1,0,0,response3disk,,5,18.67578125,0.71484375,1,0,0,rectangle,18.67578125,0.71484375,1,0,0,18.67578125,0.71484375,1,0,0,1,51,211,149,1,,,,,,,,
,,,,,,,,,,,,,FF,,,,,,,,2.7009,,,,,,,,,,,,,,,,,,,,,,60ff79105d98c6ebf9efa752,61036ef120280bdbe69140a4,2021-07-29_20h16.33.282,Simcolourproject_2stim_asymm_v5,2020.2.10,MacIntel,60,61025ae37ef11b136ea224fe,,,,,,,,,1261,26.98046875,-75.07421875,1,0,0,response3disk,,4,24,-8.25390625,1,0,0,rectangle,24,-8.25390625,1,0,0,24,-8.25390625,1,0,0,1,52,212,118,1,,,,,,,,
,,,,,,,,,,,,,FF,,,,,,,,0.8337,,,,,,,,,,,,,,,,,,,,,,60ff79105d98c6ebf9efa752,61036ef120280bdbe69140a4,2021-07-29_20h16.33.282,Simcolourproject_2stim_asymm_v5,2020.2.10,MacIntel,60,61025ae37ef11b136ea224fe,,,,,,,,,1028,98.12890625,-36.7421875,1,0,0,response3disk,,5,15.2734375,-9.703125,1,0,0,rectangle,15.2734375,-9.703125,1,0,0,15.2734375,-9.703125,1,0,0,1,53,213,136,1,,,,,,,,
,,,,,,,,,,,,,FF,,,,,,,,1.6505,,,,,,,,,,,,,,,,,,,,,,60ff79105d98c6ebf9efa752,61036ef120280bdbe69140a4,2021-07-29_20h16.33.282,Simcolourproject_2stim_asymm_v5,2020.2.10,MacIntel,60,61025ae37ef11b136ea224fe,,,,,,,,,2311,29.14453125,-93.87890625,1,0,0,response3disk,,4,-28.86328125,-7.99609375,1,0,0,rectangle,-28.86328125,-7.99609375,1,0,0,-28.86328125,-7.99609375,1,0,0,1,54,214,90,1,,,,,,,,
,,,,,,,,,,,,,FF,,,,,,,,0.7337,,,,,,,,,,,,,,,,,,,,,,60ff79105d98c6ebf9efa752,61036ef120280bdbe69140a4,2021-07-29_20h16.33.282,Simcolourproject_2stim_asymm_v5,2020.2.10,MacIntel,60,61025ae37ef11b136ea224fe,,,,,,,,,3297,-50.51953125,-68.140625,1,0,0,response5disk,,3,6.16015625,5.921875,1,0,0,rectangle,6.16015625,5.921875,1,0,0,6.16015625,5.921875,1,0,0,1,55,215,103,1,,,,,,,,
,,,,,,,,,,,,,FF,,,,,,,,0.8169,,,,,,,,,,,,,,,,,,,,,,60ff79105d98c6ebf9efa752,61036ef120280bdbe69140a4,2021-07-29_20h16.33.282,Simcolourproject_2stim_asymm_v5,2020.2.10,MacIntel,60,61025ae37ef11b136ea224fe,,,,,,,,,1801,41.30078125,-61.55859375,1,0,0,response3disk,,4,17.4609375,-0.046875,1,0,0,rectangle,17.4609375,-0.046875,1,0,0,17.4609375,-0.046875,1,0,0,1,56,216,75,1,,,,,,,,
,,,,,,,,,,,,,FF,,,,,,,,1.2329,,,,,,,,,,,,,,,,,,,,,,60ff79105d98c6ebf9efa752,61036ef120280bdbe69140a4,2021-07-29_20h16.33.282,Simcolourproject_2stim_asymm_v5,2020.2.10,MacIntel,60,61025ae37ef11b136ea224fe,,,,,,,,,2579,90.515625,25.26953125,1,0,0,response1disk,,6,21.7734375,-0.59375,1,0,0,rectangle,-41.41796875,-77.39453125,1,0,0,-3.05078125,-2.84765625,1,0,0,1,57,217,40,1,,response5disk_3,TRUE,3,3,"[5,93,134,74,218,155,64,95,17,288,166,222,108,11,306,18,202,295,239,248]",2.5345,rectangle
,,,,,,,,,,,,,FF,,,,,,,,1.7829,,,,,,,,,,,,,,,,,,,,,,60ff79105d98c6ebf9efa752,61036ef120280bdbe69140a4,2021-07-29_20h16.33.282,Simcolourproject_2stim_asymm_v5,2020.2.10,MacIntel,60,61025ae37ef11b136ea224fe,,,,,,,,,841,43.26953125,-81.61328125,1,0,0,response3disk,,4,25.76953125,-6.59375,1,0,0,rectangle,25.76953125,-6.59375,1,0,0,25.76953125,-6.59375,1,0,0,1,58,218,80,1,,,,,,,,
,,,,,,,,,,,,,FF,,,,,,,,3.948,,,,,,,,,,,,,,,,,,,,,,60ff79105d98c6ebf9efa752,61036ef120280bdbe69140a4,2021-07-29_20h16.33.282,Simcolourproject_2stim_asymm_v5,2020.2.10,MacIntel,60,61025ae37ef11b136ea224fe,,,,,,,,,417,51.765625,-95.7265625,1,0,0,response3disk,,4,8.96875,3.93359375,1,0,0,rectangle,8.96875,3.93359375,1,0,0,8.96875,3.93359375,1,0,0,1,59,219,95,1,,,,,,,,
,,,,,,,,,,,,,FF,,,,,,,,0.8852,,,,,,,,,,,,,,,,,,,,,,60ff79105d98c6ebf9efa752,61036ef120280bdbe69140a4,2021-07-29_20h16.33.282,Simcolourproject_2stim_asymm_v5,2020.2.10,MacIntel,60,61025ae37ef11b136ea224fe,,,,,,,,,786,-33.9609375,-94.24609375,1,0,0,response5disk,,3,3.7265625,4.3515625,1,0,0,rectangle,3.7265625,4.3515625,1,0,0,3.7265625,4.3515625,1,0,0,1,60,220,145,1,,,,,,,,
,,,,,,,,,,,,,FF,,,,,,,,0.9333,,,,,,,,,,,,,,,,,,,,,,60ff79105d98c6ebf9efa752,61036ef120280bdbe69140a4,2021-07-29_20h16.33.282,Simcolourproject_2stim_asymm_v5,2020.2.10,MacIntel,60,61025ae37ef11b136ea224fe,,,,,,,,,2895,-39.671875,-66.39453125,1,0,0,response5disk,,3,0.8046875,-3.58203125,1,0,0,rectangle,106.1914063,35.4375,1,0,0,14.7421875,-2.8125,1,0,0,1,61,221,35,1,,response1disk_3,TRUE,6,6,"[5,93,134,74,218,155,64,95,17,288,166,222,108,11,306,18,202,295,239,248]",1.948,rectangle
,,,,,,,,,,,,,FF,,,,,,,,1.0332,,,,,,,,,,,,,,,,,,,,,,60ff79105d98c6ebf9efa752,61036ef120280bdbe69140a4,2021-07-29_20h16.33.282,Simcolourproject_2stim_asymm_v5,2020.2.10,MacIntel,60,61025ae37ef11b136ea224fe,,,,,,,,,1986,32.93359375,-89.3671875,1,0,0,response3disk,,4,22.01171875,-5.4765625,1,0,0,rectangle,22.01171875,-5.4765625,1,0,0,22.01171875,-5.4765625,1,0,0,1,62,222,96,1,,,,,,,,
,,,,,,,,,,,,,FF,,,,,,,,0.7665,,,,,,,,,,,,,,,,,,,,,,60ff79105d98c6ebf9efa752,61036ef120280bdbe69140a4,2021-07-29_20h16.33.282,Simcolourproject_2stim_asymm_v5,2020.2.10,MacIntel,60,61025ae37ef11b136ea224fe,,,,,,,,,172,-37.5703125,-73.78515625,1,0,0,response5disk,,3,-3.5703125,-4.03515625,1,0,0,rectangle,-3.5703125,-4.03515625,1,0,0,-3.5703125,-4.03515625,1,0,0,1,63,223,52,1,,,,,,,,
,,,,,,,,,,,,,FF,,,,,,,,1.0981,,,,,,,,,,,,,,,,,,,,,,60ff79105d98c6ebf9efa752,61036ef120280bdbe69140a4,2021-07-29_20h16.33.282,Simcolourproject_2stim_asymm_v5,2020.2.10,MacIntel,60,61025ae37ef11b136ea224fe,,,,,,,,,2964,89.64453125,-24.71484375,1,0,0,response3disk,,5,32.00390625,1.46484375,1,0,0,rectangle,32.00390625,1.46484375,1,0,0,32.00390625,1.46484375,1,0,0,1,64,224,158,1,,,,,,,,
,,,,,,,,,,,,,FF,,,,,,,,0.9325,,,,,,,,,,,,,,,,,,,,,,60ff79105d98c6ebf9efa752,61036ef120280bdbe69140a4,2021-07-29_20h16.33.282,Simcolourproject_2stim_asymm_v5,2020.2.10,MacIntel,60,61025ae37ef11b136ea224fe,,,,,,,,,3793,93.73828125,-38.66015625,1,0,0,response3disk,,5,12.68359375,8.30078125,1,0,0,rectangle,12.68359375,8.30078125,1,0,0,12.68359375,8.30078125,1,0,0,1,65,225,84,1,,,,,,,,
,,,,,,,,,,,,,FF,,,,,,,,1.4671,,,,,,,,,,,,,,,,,,,,,,60ff79105d98c6ebf9efa752,61036ef120280bdbe69140a4,2021-07-29_20h16.33.282,Simcolourproject_2stim_asymm_v5,2020.2.10,MacIntel,60,61025ae37ef11b136ea224fe,,,,,,,,,1616,-20.703125,-84.625,1,0,0,response5disk,,3,6.5390625,-5.26171875,1,0,0,rectangle,6.5390625,-5.26171875,1,0,0,6.5390625,-5.26171875,1,0,0,1,66,226,22,1,,,,,,,,
,,,,,,,,,,,,,FF,,,,,,,,0.9685,,,,,,,,,,,,,,,,,,,,,,60ff79105d98c6ebf9efa752,61036ef120280bdbe69140a4,2021-07-29_20h16.33.282,Simcolourproject_2stim_asymm_v5,2020.2.10,MacIntel,60,61025ae37ef11b136ea224fe,,,,,,,,,596,88.53515625,26.71484375,1,0,0,response1disk,,6,17.4765625,3.1484375,1,0,0,rectangle,17.4765625,3.1484375,1,0,0,17.4765625,3.1484375,1,0,0,1,67,227,45,1,,,,,,,,
,,,,,,,,,,,,,FF,,,,,,,,0.8163,,,,,,,,,,,,,,,,,,,,,,60ff79105d98c6ebf9efa752,61036ef120280bdbe69140a4,2021-07-29_20h16.33.282,Simcolourproject_2stim_asymm_v5,2020.2.10,MacIntel,60,61025ae37ef11b136ea224fe,,,,,,,,,2470,76.6875,-38.70703125,1,0,0,response3disk,,5,1.078125,6.2734375,1,0,0,rectangle,1.078125,6.2734375,1,0,0,1.078125,6.2734375,1,0,0,1,68,228,109,1,,,,,,,,
,,,,,,,,,,,,,FF,,,,,,,,0.865,,,,,,,,,,,,,,,,,,,,,,60ff79105d98c6ebf9efa752,61036ef120280bdbe69140a4,2021-07-29_20h16.33.282,Simcolourproject_2stim_asymm_v5,2020.2.10,MacIntel,60,61025ae37ef11b136ea224fe,,,,,,,,,1458,-48.8046875,-81.58984375,1,0,0,response5disk,,3,0.7890625,-0.55859375,1,0,0,rectangle,0.7890625,-0.55859375,1,0,0,0.7890625,-0.55859375,1,0,0,1,69,229,102,1,,,,,,,,
,,,,,,,,,,,,,FF,,,,,,,,1,,,,,,,,,,,,,,,,,,,,,,60ff79105d98c6ebf9efa752,61036ef120280bdbe69140a4,2021-07-29_20h16.33.282,Simcolourproject_2stim_asymm_v5,2020.2.10,MacIntel,60,61025ae37ef11b136ea224fe,,,,,,,,,395,-32.9296875,-91.11328125,1,0,0,response5disk,,3,-0.0546875,-0.9921875,1,0,0,rectangle,-0.0546875,-0.9921875,1,0,0,-0.0546875,-0.9921875,1,0,0,1,70,230,121,1,,,,,,,,
,,,,,,,,,,,,,FF,,,,,,,,0.7325,,,,,,,,,,,,,,,,,,,,,,60ff79105d98c6ebf9efa752,61036ef120280bdbe69140a4,2021-07-29_20h16.33.282,Simcolourproject_2stim_asymm_v5,2020.2.10,MacIntel,60,61025ae37ef11b136ea224fe,,,,,,,,,3367,37.15234375,-70.65234375,1,0,0,response3disk,,4,20.6328125,-9.35546875,1,0,0,rectangle,20.6328125,-9.35546875,1,0,0,20.6328125,-9.35546875,1,0,0,1,71,231,135,1,,,,,,,,
,,,,,,,,,,,,,FF,,,,,,,,2.0336,,,,,,,,,,,,,,,,,,,,,,60ff79105d98c6ebf9efa752,61036ef120280bdbe69140a4,2021-07-29_20h16.33.282,Simcolourproject_2stim_asymm_v5,2020.2.10,MacIntel,60,61025ae37ef11b136ea224fe,,,,,,,,,136,49.796875,-102.2734375,1,0,0,response3disk,,4,17.50390625,-10.5546875,1,0,0,rectangle,17.50390625,-10.5546875,1,0,0,17.50390625,-10.5546875,1,0,0,1,72,232,39,1,,,,,,,,
,,,,,,,,,,,,,FF,,,,,,,,0.8185,,,,,,,,,,,,,,,,,,,,,,60ff79105d98c6ebf9efa752,61036ef120280bdbe69140a4,2021-07-29_20h16.33.282,Simcolourproject_2stim_asymm_v5,2020.2.10,MacIntel,60,61025ae37ef11b136ea224fe,,,,,,,,,35,-48.08203125,-96.37890625,1,0,0,response5disk,,3,17.55859375,0.609375,1,0,0,rectangle,17.55859375,0.609375,1,0,0,17.55859375,0.609375,1,0,0,1,73,233,5,1,,,,,,,,
,,,,,,,,,,,,,FF,,,,,,,,1.0835,,,,,,,,,,,,,,,,,,,,,,60ff79105d98c6ebf9efa752,61036ef120280bdbe69140a4,2021-07-29_20h16.33.282,Simcolourproject_2stim_asymm_v5,2020.2.10,MacIntel,60,61025ae37ef11b136ea224fe,,,,,,,,,3666,85.796875,-38.23046875,1,0,0,response3disk,,5,4.453125,3.1328125,1,0,0,rectangle,4.453125,3.1328125,1,0,0,4.453125,3.1328125,1,0,0,1,74,234,70,1,,,,,,,,
,,,,,,,,,,,,,FF,,,,,,,,0.8667,,,,,,,,,,,,,,,,,,,,,,60ff79105d98c6ebf9efa752,61036ef120280bdbe69140a4,2021-07-29_20h16.33.282,Simcolourproject_2stim_asymm_v5,2020.2.10,MacIntel,60,61025ae37ef11b136ea224fe,,,,,,,,,3571,60.9453125,-35.30859375,1,0,0,response3disk,,5,4.265625,0.921875,1,0,0,rectangle,4.265625,0.921875,1,0,0,4.265625,0.921875,1,0,0,1,75,235,67,1,,,,,,,,
,,,,,,,,,,,,,FF,,,,,,,,0.9497,,,,,,,,,,,,,,,,,,,,,,60ff79105d98c6ebf9efa752,61036ef120280bdbe69140a4,2021-07-29_20h16.33.282,Simcolourproject_2stim_asymm_v5,2020.2.10,MacIntel,60,61025ae37ef11b136ea224fe,,,,,,,,,2533,-37.91796875,-56.73828125,1,0,0,response5disk,,3,-13.41015625,-2.984375,1,0,0,rectangle,-13.41015625,-2.984375,1,0,0,-13.41015625,-2.984375,1,0,0,1,76,236,97,1,,,,,,,,
,,,,,,,,,,,,,FF,,,,,,,,0.8165,,,,,,,,,,,,,,,,,,,,,,60ff79105d98c6ebf9efa752,61036ef120280bdbe69140a4,2021-07-29_20h16.33.282,Simcolourproject_2stim_asymm_v5,2020.2.10,MacIntel,60,61025ae37ef11b136ea224fe,,,,,,,,,3745,-47.15234375,-31.125,1,0,0,response5disk,,2,-0.2578125,-7.01953125,1,0,0,rectangle,-0.2578125,-7.01953125,1,0,0,-0.2578125,-7.01953125,1,0,0,1,77,237,62,1,,,,,,,,
,,,,,,,,,,,,,FF,,,,,,,,1.0669,,,,,,,,,,,,,,,,,,,,,,60ff79105d98c6ebf9efa752,61036ef120280bdbe69140a4,2021-07-29_20h16.33.282,Simcolourproject_2stim_asymm_v5,2020.2.10,MacIntel,60,61025ae37ef11b136ea224fe,,,,,,,,,3091,-46.2578125,-27.99609375,1,0,0,response5disk,,2,3.6875,6.16796875,1,0,0,rectangle,-43.1015625,-69.3984375,1,0,0,16.50390625,-0.36328125,1,0,0,1,78,238,123,1,,response5disk_3,TRUE,3,3,"[5,93,134,74,218,155,64,95,17,288,166,222,108,11,306,18,202,295,239,248]",2.2997,rectangle
,,,,,,,,,,,,,FF,,,,,,,,0.8488,,,,,,,,,,,,,,,,,,,,,,60ff79105d98c6ebf9efa752,61036ef120280bdbe69140a4,2021-07-29_20h16.33.282,Simcolourproject_2stim_asymm_v5,2020.2.10,MacIntel,60,61025ae37ef11b136ea224fe,,,,,,,,,2357,-80.36328125,-46.33984375,1,0,0,response5disk,,2,-24.87109375,-6.921875,1,0,0,rectangle,-24.87109375,-6.921875,1,0,0,-24.87109375,-6.921875,1,0,0,1,79,239,142,1,,,,,,,,
,,,,,,,,,,,,,FF,,,,,,,,0.9334,,,,,,,,,,,,,,,,,,,,,,60ff79105d98c6ebf9efa752,61036ef120280bdbe69140a4,2021-07-29_20h16.33.282,Simcolourproject_2stim_asymm_v5,2020.2.10,MacIntel,60,61025ae37ef11b136ea224fe,,,,,,,,,4050,-59.5,-43.47265625,1,0,0,response5disk,,2,-19.36328125,-12.74609375,1,0,0,rectangle,-19.36328125,-12.74609375,1,0,0,-19.36328125,-12.74609375,1,0,0,1,80,240,148,1,,,,,,,,
,,,,,,,,,,,,,FF,,,,,,,,1.2018,,,,,,,,,,,,,,,,,,,,,,60ff79105d98c6ebf9efa752,61036ef120280bdbe69140a4,2021-07-29_20h16.33.282,Simcolourproject_2stim_asymm_v5,2020.2.10,MacIntel,60,61025ae37ef11b136ea224fe,,,,,,,,,4345,-86.83984375,30.33984375,1,0,0,response7disk,,1,-5.515625,-2.18359375,1,0,0,rectangle,-5.515625,-2.18359375,1,0,0,-5.515625,-2.18359375,1,0,0,1,81,241,138,1,,,,,,,,
,,,,,,,,,,,,,FF,,,,,,,,2.9169,,,,,,,,,,,,,,,,,,,,,,60ff79105d98c6ebf9efa752,61036ef120280bdbe69140a4,2021-07-29_20h16.33.282,Simcolourproject_2stim_asymm_v5,2020.2.10,MacIntel,60,61025ae37ef11b136ea224fe,,,,,,,,,1945,41.609375,-88.01171875,1,0,0,response3disk,,4,12.60546875,-7.359375,1,0,0,rectangle,12.60546875,-7.359375,1,0,0,12.60546875,-7.359375,1,0,0,1,82,242,143,1,,,,,,,,
,,,,,,,,,,,,,FF,,,,,,,,1.2,,,,,,,,,,,,,,,,,,,,,,60ff79105d98c6ebf9efa752,61036ef120280bdbe69140a4,2021-07-29_20h16.33.282,Simcolourproject_2stim_asymm_v5,2020.2.10,MacIntel,60,61025ae37ef11b136ea224fe,,,,,,,,,4362,-71.0390625,35.5546875,1,0,0,response7disk,,1,-11.9921875,6.48046875,1,0,0,rectangle,-11.9921875,6.48046875,1,0,0,-11.9921875,6.48046875,1,0,0,1,83,243,53,1,,,,,,,,
,,,,,,,,,,,,,FF,,,,,,,,1.1826,,,,,,,,,,,,,,,,,,,,,,60ff79105d98c6ebf9efa752,61036ef120280bdbe69140a4,2021-07-29_20h16.33.282,Simcolourproject_2stim_asymm_v5,2020.2.10,MacIntel,60,61025ae37ef11b136ea224fe,,,,,,,,,3678,-70.9453125,-26.15625,1,0,0,response5disk,,2,-16.296875,-1.78125,1,0,0,rectangle,-16.296875,-1.78125,1,0,0,-16.296875,-1.78125,1,0,0,1,84,244,83,1,,,,,,,,
,,,,,,,,,,,,,FF,,,,,,,,0.9332,,,,,,,,,,,,,,,,,,,,,,60ff79105d98c6ebf9efa752,61036ef120280bdbe69140a4,2021-07-29_20h16.33.282,Simcolourproject_2stim_asymm_v5,2020.2.10,MacIntel,60,61025ae37ef11b136ea224fe,,,,,,,,,3488,-22.23828125,-78.53125,1,0,0,response5disk,,3,14.61328125,-6.42578125,1,0,0,rectangle,14.61328125,-6.42578125,1,0,0,14.61328125,-6.42578125,1,0,0,1,85,245,155,1,,,,,,,,
,,,,,,,,,,,,,FF,,,,,,,,0.7176,,,,,,,,,,,,,,,,,,,,,,60ff79105d98c6ebf9efa752,61036ef120280bdbe69140a4,2021-07-29_20h16.33.282,Simcolourproject_2stim_asymm_v5,2020.2.10,MacIntel,60,61025ae37ef11b136ea224fe,,,,,,,,,1469,34.84375,-81.640625,1,0,0,response3disk,,4,-4.64453125,-2.02734375,1,0,0,rectangle,-4.64453125,-2.02734375,1,0,0,-4.64453125,-2.02734375,1,0,0,1,86,246,26,1,,,,,,,,
,,,,,,,,,,,,,FF,,,,,,,,1.0987,,,,,,,,,,,,,,,,,,,,,,60ff79105d98c6ebf9efa752,61036ef120280bdbe69140a4,2021-07-29_20h16.33.282,Simcolourproject_2stim_asymm_v5,2020.2.10,MacIntel,60,61025ae37ef11b136ea224fe,,,,,,,,,1088,92.8984375,-40.85546875,1,0,0,response3disk,,5,5.60546875,-6.26953125,1,0,0,rectangle,-67.8125,-33.140625,1,0,0,5.5859375,0.92578125,1,0,0,1,87,247,41,1,,response5disk_3,TRUE,2,2,"[5,93,134,74,218,155,64,95,17,288,166,222,108,11,306,18,202,295,239,248]",2.1159,rectangle
