key_resp.keys,key_resp.rt,key_resp_14.keys,key_resp_14.rt,key_resp_15.keys,key_resp_15.rt,key_resp_17.keys,key_resp_17.rt,key_resp_9.keys,key_resp_9.rt,key_resp_10.keys,key_resp_10.rt,practice_comparison,Ecc,mouse_5.x,mouse_5.y,mouse_5.leftButton,mouse_5.midButton,mouse_5.rightButton,mouse_5.clicked_name,pracsimilarity,response_time,mouse_10.x,mouse_10.y,mouse_10.leftButton,mouse_10.midButton,mouse_10.rightButton,mouse_10.clicked_name,mouse_7.x,mouse_7.y,mouse_7.leftButton,mouse_7.midButton,mouse_7.rightButton,mouse_6.x,mouse_6.y,mouse_6.leftButton,mouse_6.midButton,mouse_6.rightButton,duringprac.thisRepN,duringprac.thisTrialN,duringprac.thisN,duringprac.thisIndex,duringprac.ran,participant,session,date,expName,psychopyVersion,OS,frameRate,study_id,mouse_7.clicked_name,catchpracsimilarity,catch_response_time,catchnumberprac,catchtrialorderprac,mouse_6.clicked_name,key_resp_22.keys,key_resp_22.rt,realcomparison,mouse.x,mouse.y,mouse.leftButton,mouse.midButton,mouse.rightButton,mouse.clicked_name,Colour2,similarity,mouse_2.x,mouse_2.y,mouse_2.leftButton,mouse_2.midButton,mouse_2.rightButton,mouse_2.clicked_name,mouse_3.x,mouse_3.y,mouse_3.leftButton,mouse_3.midButton,mouse_3.rightButton,mouse_11.x,mouse_11.y,mouse_11.leftButton,mouse_11.midButton,mouse_11.rightButton,trials_2.thisRepN,trials_2.thisTrialN,trials_2.thisN,trials_2.thisIndex,trials_2.ran,Colour1,mouse_3.clicked_name,catchornah,catchsimilarity,catchnumber,catchtrialorder,catchRT,mouse_11.clicked_name
space,1.614,space,3.3168,space,17.1635,space,2.553,space,0.2319,space,3.6721,91,PF,35.33335584,-26.00001508,1,0,0,response3disk_5,5,13.5777,10.00002176,-0.666680992,1,0,0,rectangle_8,10.00002176,-0.666680992,1,0,0,10.00002176,-0.666680992,1,0,0,0,0,0,1,1,60ff8dab5974afca9c2c6816,610367d4a53d4131b64c85df,2021-07-29_20h46.25.808,Simcolourproject_2stim_asymm_v5,2020.2.10,Win32,60,61025ae37ef11b136ea224fe,,,,,,,,,,,,,,,,,,,,,,,,,,,,,,,,,,,,,,,,,,,,,,
,,,,,,,,,,,,159,PF,70.66669023,-41.33338956,1,0,0,response3disk_5,5,10.5422,12.00002182,0.666652381,1,0,0,rectangle_8,-31.9999795,-112.0000176,1,0,0,-4.666645348,1.999985754,1,0,0,0,1,1,2,1,60ff8dab5974afca9c2c6816,610367d4a53d4131b64c85df,2021-07-29_20h46.25.808,Simcolourproject_2stim_asymm_v5,2020.2.10,Win32,60,61025ae37ef11b136ea224fe,response5disk_7,3,2.6703,3,"[2,5]",rectangle_4,,,,,,,,,,,,,,,,,,,,,,,,,,,,,,,,,,,,,,,,
,,,,,,,,,,,,63,FF,46.66668952,87.33332163,1,0,0,response1disk_5,7,3.3014,12.6666885,-4.666681111,1,0,0,rectangle_8,12.6666885,-4.666681111,1,0,0,12.6666885,-4.666681111,1,0,0,0,2,2,0,1,60ff8dab5974afca9c2c6816,610367d4a53d4131b64c85df,2021-07-29_20h46.25.808,Simcolourproject_2stim_asymm_v5,2020.2.10,Win32,60,61025ae37ef11b136ea224fe,,,,,,,,,,,,,,,,,,,,,,,,,,,,,,,,,,,,,,,,,,,,,,
,,,,,,,,,,,,158,PF,101.3333578,-57.33339004,1,0,0,response3disk_5,5,6.3545,-8.666645467,7.333319247,1,0,0,rectangle_8,-8.666645467,7.333319247,1,0,0,-8.666645467,7.333319247,1,0,0,0,3,3,6,1,60ff8dab5974afca9c2c6816,610367d4a53d4131b64c85df,2021-07-29_20h46.25.808,Simcolourproject_2stim_asymm_v5,2020.2.10,Win32,60,61025ae37ef11b136ea224fe,,,,,,,,,,,,,,,,,,,,,,,,,,,,,,,,,,,,,,,,,,,,,,
,,,,,,,,,,,,35,FF,44.66668946,77.33332133,1,0,0,response1disk_5,7,4.1196,8.000021696,-4.000014424,1,0,0,rectangle_8,-43.99997985,-74.00001651,1,0,0,14.00002187,1.999985754,1,0,0,0,4,4,3,1,60ff8dab5974afca9c2c6816,610367d4a53d4131b64c85df,2021-07-29_20h46.25.808,Simcolourproject_2stim_asymm_v5,2020.2.10,Win32,60,61025ae37ef11b136ea224fe,response5disk_7,3,1.5673,3,"[2,5]",rectangle_4,,,,,,,,,,,,,,,,,,,,,,,,,,,,,,,,,,,,,,,,
,,,,,,,,,,,,131,PF,-69.33331394,-46.00001568,1,0,0,response5disk_5,2,2.9847,8.666688383,5.999985874,1,0,0,rectangle_8,8.666688383,5.999985874,1,0,0,8.666688383,5.999985874,1,0,0,0,5,5,4,1,60ff8dab5974afca9c2c6816,610367d4a53d4131b64c85df,2021-07-29_20h46.25.808,Simcolourproject_2stim_asymm_v5,2020.2.10,Win32,60,61025ae37ef11b136ea224fe,,,,,,,,,,,,,,,,,,,,,,,,,,,,,,,,,,,,,,,,,,,,,,
,,,,,,,,,,,,146,FF,72.66669029,47.33332044,1,0,0,response1disk_5,6,2.5509,16.00002193,-2.666681051,1,0,0,rectangle_8,16.00002193,-2.666681051,1,0,0,16.00002193,-2.666681051,1,0,0,0,6,6,5,1,60ff8dab5974afca9c2c6816,610367d4a53d4131b64c85df,2021-07-29_20h46.25.808,Simcolourproject_2stim_asymm_v5,2020.2.10,Win32,60,61025ae37ef11b136ea224fe,,,,,,,,,,,,,,,,,,,,,,,,,,,,,,,,,,,,,,,,,,,,,,
,,,,,,,,,,,,,FF,,,,,,,,6.2059,,,,,,,,,,,,,,,,,,,,,,60ff8dab5974afca9c2c6816,610367d4a53d4131b64c85df,2021-07-29_20h46.25.808,Simcolourproject_2stim_asymm_v5,2020.2.10,Win32,60,61025ae37ef11b136ea224fe,,,,,,,space,3.1669,3254,62.00002331,-94.66668379,1,0,0,response3disk,,4,1.333354831,-1.4351E-05,1,0,0,rectangle,1.333354831,-1.4351E-05,1,0,0,1.333354831,-1.4351E-05,1,0,0,0,0,0,61,1,,,,,,,,
,,,,,,,,,,,,,FF,,,,,,,,6.0618,,,,,,,,,,,,,,,,,,,,,,60ff8dab5974afca9c2c6816,610367d4a53d4131b64c85df,2021-07-29_20h46.25.808,Simcolourproject_2stim_asymm_v5,2020.2.10,Win32,60,61025ae37ef11b136ea224fe,,,,,,,,,12,-37.33331299,-92.00001705,1,0,0,response5disk,,3,23.33335549,8.66665262,1,0,0,rectangle,23.33335549,8.66665262,1,0,0,23.33335549,8.66665262,1,0,0,0,1,1,40,1,,,,,,,,
,,,,,,,,,,,,,FF,,,,,,,,3.654,,,,,,,,,,,,,,,,,,,,,,60ff8dab5974afca9c2c6816,610367d4a53d4131b64c85df,2021-07-29_20h46.25.808,Simcolourproject_2stim_asymm_v5,2020.2.10,Win32,60,61025ae37ef11b136ea224fe,,,,,,,,,1282,48.00002289,97.33332193,1,0,0,response1disk,,7,7.33335501,-6.66668117,1,0,0,rectangle,7.33335501,-6.66668117,1,0,0,7.33335501,-6.66668117,1,0,0,0,2,2,23,1,,,,,,,,
,,,,,,,,,,,,,FF,,,,,,,,0.7846,,,,,,,,,,,,,,,,,,,,,,60ff8dab5974afca9c2c6816,610367d4a53d4131b64c85df,2021-07-29_20h46.25.808,Simcolourproject_2stim_asymm_v5,2020.2.10,Win32,60,61025ae37ef11b136ea224fe,,,,,,,,,940,44.00002277,73.33332121,1,0,0,response1disk,,7,9.333355069,-2.666681051,1,0,0,rectangle,9.333355069,-2.666681051,1,0,0,9.333355069,-2.666681051,1,0,0,0,3,3,65,1,,,,,,,,
,,,,,,,,,,,,,FF,,,,,,,,1.9515,,,,,,,,,,,,,,,,,,,,,,60ff8dab5974afca9c2c6816,610367d4a53d4131b64c85df,2021-07-29_20h46.25.808,Simcolourproject_2stim_asymm_v5,2020.2.10,Win32,60,61025ae37ef11b136ea224fe,,,,,,,,,3881,-86.6666071,36.66665345,1,0,0,response7disk,,1,-3.999978662,-8.000014544,1,0,0,rectangle,-3.999978662,-8.000014544,1,0,0,-3.999978662,-8.000014544,1,0,0,0,4,4,139,1,,,,,,,,
,,,,,,,,,,,,,FF,,,,,,,,1.4019,,,,,,,,,,,,,,,,,,,,,,60ff8dab5974afca9c2c6816,610367d4a53d4131b64c85df,2021-07-29_20h46.25.808,Simcolourproject_2stim_asymm_v5,2020.2.10,Win32,60,61025ae37ef11b136ea224fe,,,,,,,,,1761,-57.99998027,-94.66668379,1,0,0,response5disk,,3,-2.666645288,1.999985754,1,0,0,rectangle,-2.666645288,1.999985754,1,0,0,-2.666645288,1.999985754,1,0,0,0,5,5,110,1,,,,,,,,
,,,,,,,,,,,,,FF,,,,,,,,1.0843,,,,,,,,,,,,,,,,,,,,,,60ff8dab5974afca9c2c6816,610367d4a53d4131b64c85df,2021-07-29_20h46.25.808,Simcolourproject_2stim_asymm_v5,2020.2.10,Win32,60,61025ae37ef11b136ea224fe,,,,,,,,,2490,-31.33331281,-82.00001675,1,0,0,response5disk,,3,2.14577E-05,-2.000014365,1,0,0,rectangle,2.14577E-05,-2.000014365,1,0,0,2.14577E-05,-2.000014365,1,0,0,0,6,6,8,1,,,,,,,,
,,,,,,,,,,,,,FF,,,,,,,,19.733,,,,,,,,,,,,,,,,,,,,,,60ff8dab5974afca9c2c6816,610367d4a53d4131b64c85df,2021-07-29_20h46.25.808,Simcolourproject_2stim_asymm_v5,2020.2.10,Win32,60,61025ae37ef11b136ea224fe,,,,,,,,,3060,-54.66660615,-93.33339111,1,0,0,response5disk,,3,1.333354831,-11.33334798,1,0,0,rectangle,1.333354831,-11.33334798,1,0,0,1.333354831,-11.33334798,1,0,0,0,7,7,100,1,,,,,,,,
,,,,,,,,,,,,,FF,,,,,,,,4.6705,,,,,,,,,,,,,,,,,,,,,,60ff8dab5974afca9c2c6816,610367d4a53d4131b64c85df,2021-07-29_20h46.25.808,Simcolourproject_2stim_asymm_v5,2020.2.10,Win32,60,61025ae37ef11b136ea224fe,,,,,,,,,1076,-64.66660645,-38.66668212,1,0,0,response5disk,,2,-1.333311915,0.666652381,1,0,0,rectangle,-1.333311915,0.666652381,1,0,0,-1.333311915,0.666652381,1,0,0,0,8,8,35,1,,,,,,,,
,,,,,,,,,,,,,FF,,,,,,,,2.6515,,,,,,,,,,,,,,,,,,,,,,60ff8dab5974afca9c2c6816,610367d4a53d4131b64c85df,2021-07-29_20h46.25.808,Simcolourproject_2stim_asymm_v5,2020.2.10,Win32,60,61025ae37ef11b136ea224fe,,,,,,,,,419,47.3333562,77.33332133,1,0,0,response1disk,,7,28.66668898,1.999985754,1,0,0,rectangle,28.66668898,1.999985754,1,0,0,28.66668898,1.999985754,1,0,0,0,9,9,143,1,,,,,,,,
,,,,,,,,,,,,,FF,,,,,,,,4.5034,,,,,,,,,,,,,,,,,,,,,,60ff8dab5974afca9c2c6816,610367d4a53d4131b64c85df,2021-07-29_20h46.25.808,Simcolourproject_2stim_asymm_v5,2020.2.10,Win32,60,61025ae37ef11b136ea224fe,,,,,,,,,3864,-52.66660609,-74.00001651,1,0,0,response5disk,,3,16.00002193,1.999985754,1,0,0,rectangle,16.00002193,1.999985754,1,0,0,16.00002193,1.999985754,1,0,0,0,10,10,63,1,,,,,,,,
,,,,,,,,,,,,,FF,,,,,,,,3.3689,,,,,,,,,,,,,,,,,,,,,,60ff8dab5974afca9c2c6816,610367d4a53d4131b64c85df,2021-07-29_20h46.25.808,Simcolourproject_2stim_asymm_v5,2020.2.10,Win32,60,61025ae37ef11b136ea224fe,,,,,,,,,777,68.00002348,77.99998802,1,0,0,response1disk,,7,2.14577E-05,9.999985993,1,0,0,rectangle,2.14577E-05,9.999985993,1,0,0,2.14577E-05,9.999985993,1,0,0,0,11,11,80,1,,,,,,,,
,,,,,,,,,,,,,FF,,,,,,,,1.1364,,,,,,,,,,,,,,,,,,,,,,60ff8dab5974afca9c2c6816,610367d4a53d4131b64c85df,2021-07-29_20h46.25.808,Simcolourproject_2stim_asymm_v5,2020.2.10,Win32,60,61025ae37ef11b136ea224fe,,,,,,,,,1601,-87.33331448,51.99998724,1,0,0,response7disk,,1,-9.333312154,5.999985874,1,0,0,rectangle,-9.333312154,5.999985874,1,0,0,-9.333312154,5.999985874,1,0,0,0,12,12,59,1,,,,,,,,
,,,,,,,,,,,,,FF,,,,,,,,5.3581,,,,,,,,,,,,,,,,,,,,,,60ff8dab5974afca9c2c6816,610367d4a53d4131b64c85df,2021-07-29_20h46.25.808,Simcolourproject_2stim_asymm_v5,2020.2.10,Win32,60,61025ae37ef11b136ea224fe,,,,,,,,,785,-69.99998063,-96.00001717,1,0,0,response5disk,,3,10.66668844,9.999985993,1,0,0,rectangle,10.66668844,9.999985993,1,0,0,10.66668844,9.999985993,1,0,0,0,13,13,11,1,,,,,,,,
,,,,,,,,,,,,,FF,,,,,,,,4.3207,,,,,,,,,,,,,,,,,,,,,,60ff8dab5974afca9c2c6816,610367d4a53d4131b64c85df,2021-07-29_20h46.25.808,Simcolourproject_2stim_asymm_v5,2020.2.10,Win32,60,61025ae37ef11b136ea224fe,,,,,,,,,3943,-50.66660603,71.33332115,1,0,0,response7disk,,0,-13.99997896,-6.66668117,1,0,0,rectangle,-13.99997896,-6.66668117,1,0,0,-13.99997896,-6.66668117,1,0,0,0,14,14,149,1,,,,,,,,
,,,,,,,,,,,,,FF,,,,,,,,0.9218,,,,,,,,,,,,,,,,,,,,,,60ff8dab5974afca9c2c6816,610367d4a53d4131b64c85df,2021-07-29_20h46.25.808,Simcolourproject_2stim_asymm_v5,2020.2.10,Win32,60,61025ae37ef11b136ea224fe,,,,,,,,,2557,-64.66660645,-104.0000174,1,0,0,response5disk,,3,-19.33331245,9.333319306,1,0,0,rectangle,-19.33331245,9.333319306,1,0,0,-19.33331245,9.333319306,1,0,0,0,15,15,131,1,,,,,,,,
,,,,,,,,,,,,,FF,,,,,,,,1.091,,,,,,,,,,,,,,,,,,,,,,60ff8dab5974afca9c2c6816,610367d4a53d4131b64c85df,2021-07-29_20h46.25.808,Simcolourproject_2stim_asymm_v5,2020.2.10,Win32,60,61025ae37ef11b136ea224fe,,,,,,,,,2823,33.33335578,71.99998784,1,0,0,response1disk,,7,18.66668868,9.333319306,1,0,0,rectangle,18.66668868,9.333319306,1,0,0,18.66668868,9.333319306,1,0,0,0,16,16,31,1,,,,,,,,
,,,,,,,,,,,,,FF,,,,,,,,2.3033,,,,,,,,,,,,,,,,,,,,,,60ff8dab5974afca9c2c6816,610367d4a53d4131b64c85df,2021-07-29_20h46.25.808,Simcolourproject_2stim_asymm_v5,2020.2.10,Win32,60,61025ae37ef11b136ea224fe,,,,,,,,,304,-83.99998105,-36.66668206,1,0,0,response5disk,,2,-11.33331221,1.999985754,1,0,0,rectangle,-11.33331221,1.999985754,1,0,0,-11.33331221,1.999985754,1,0,0,0,17,17,112,1,,,,,,,,
,,,,,,,,,,,,,FF,,,,,,,,1.4523,,,,,,,,,,,,,,,,,,,,,,60ff8dab5974afca9c2c6816,610367d4a53d4131b64c85df,2021-07-29_20h46.25.808,Simcolourproject_2stim_asymm_v5,2020.2.10,Win32,60,61025ae37ef11b136ea224fe,,,,,,,,,873,-29.99997944,-86.00001687,1,0,0,response5disk,,3,16.66668862,13.99998611,1,0,0,rectangle,16.66668862,13.99998611,1,0,0,16.66668862,13.99998611,1,0,0,0,18,18,152,1,,,,,,,,
,,,,,,,,,,,,,FF,,,,,,,,3.4506,,,,,,,,,,,,,,,,,,,,,,60ff8dab5974afca9c2c6816,610367d4a53d4131b64c85df,2021-07-29_20h46.25.808,Simcolourproject_2stim_asymm_v5,2020.2.10,Win32,60,61025ae37ef11b136ea224fe,,,,,,,,,1515,-41.33331311,-64.6666829,1,0,0,response5disk,,3,-27.33331269,-7.333347857,1,0,0,rectangle,-27.33331269,-7.333347857,1,0,0,-27.33331269,-7.333347857,1,0,0,0,19,19,64,1,,,,,,,,
,,,,,,,,,,,,,FF,,,,,,,,6.221,,,,,,,,,,,,,,,,,,,,,,60ff8dab5974afca9c2c6816,610367d4a53d4131b64c85df,2021-07-29_20h46.25.808,Simcolourproject_2stim_asymm_v5,2020.2.10,Win32,60,61025ae37ef11b136ea224fe,,,,,,,,,327,60.66668993,-34.00001532,1,0,0,response3disk,,5,4.666688263,-5.333347797,1,0,0,rectangle,4.666688263,-5.333347797,1,0,0,4.666688263,-5.333347797,1,0,0,0,20,20,95,1,,,,,,,,
,,,,,,,,,,,,,FF,,,,,,,,1.1818,,,,,,,,,,,,,,,,,,,,,,60ff8dab5974afca9c2c6816,610367d4a53d4131b64c85df,2021-07-29_20h46.25.808,Simcolourproject_2stim_asymm_v5,2020.2.10,Win32,60,61025ae37ef11b136ea224fe,,,,,,,,,2812,65.33335674,-35.33338938,1,0,0,response3disk,,5,-3.999978662,-6.000014484,1,0,0,rectangle,44.66668946,81.33332145,1,0,0,2.000021517,-2.000014365,1,0,0,0,21,21,89,1,,response1disk_3,TRUE,7,7,"[196,263,64,170,160,202,219,46,42,101,275,53,320,64,22,297,243,273,197,83]",1.8521,rectangle
,,,,,,,,,,,,,FF,,,,,,,,1.0631,,,,,,,,,,,,,,,,,,,,,,60ff8dab5974afca9c2c6816,610367d4a53d4131b64c85df,2021-07-29_20h46.25.808,Simcolourproject_2stim_asymm_v5,2020.2.10,Win32,60,61025ae37ef11b136ea224fe,,,,,,,,,3160,-97.33331478,-74.00001651,1,0,0,response5disk,,2,10.00002176,-10.66668129,1,0,0,rectangle,10.00002176,-10.66668129,1,0,0,10.00002176,-10.66668129,1,0,0,0,22,22,111,1,,,,,,,,
,,,,,,,,,,,,,FF,,,,,,,,2.267,,,,,,,,,,,,,,,,,,,,,,60ff8dab5974afca9c2c6816,610367d4a53d4131b64c85df,2021-07-29_20h46.25.808,Simcolourproject_2stim_asymm_v5,2020.2.10,Win32,60,61025ae37ef11b136ea224fe,,,,,,,,,3005,-88.66660716,38.66665351,1,0,0,response7disk,,1,-16.66664571,9.999985993,1,0,0,rectangle,-16.66664571,9.999985993,1,0,0,-16.66664571,9.999985993,1,0,0,0,23,23,67,1,,,,,,,,
,,,,,,,,,,,,,FF,,,,,,,,0.8518,,,,,,,,,,,,,,,,,,,,,,60ff8dab5974afca9c2c6816,610367d4a53d4131b64c85df,2021-07-29_20h46.25.808,Simcolourproject_2stim_asymm_v5,2020.2.10,Win32,60,61025ae37ef11b136ea224fe,,,,,,,,,3087,26.66668892,75.33332127,1,0,0,response1disk,,7,7.33335501,-1.333347678,1,0,0,rectangle,7.33335501,-1.333347678,1,0,0,7.33335501,-1.333347678,1,0,0,0,24,24,71,1,,,,,,,,
,,,,,,,,,,,,,FF,,,,,,,,2.169,,,,,,,,,,,,,,,,,,,,,,60ff8dab5974afca9c2c6816,610367d4a53d4131b64c85df,2021-07-29_20h46.25.808,Simcolourproject_2stim_asymm_v5,2020.2.10,Win32,60,61025ae37ef11b136ea224fe,,,,,,,,,3399,30.00002235,-94.00001711,1,0,0,response3disk,,4,-5.333312035,11.99998605,1,0,0,rectangle,-5.333312035,11.99998605,1,0,0,-5.333312035,11.99998605,1,0,0,0,25,25,12,1,,,,,,,,
,,,,,,,,,,,,,FF,,,,,,,,2.6818,,,,,,,,,,,,,,,,,,,,,,60ff8dab5974afca9c2c6816,610367d4a53d4131b64c85df,2021-07-29_20h46.25.808,Simcolourproject_2stim_asymm_v5,2020.2.10,Win32,60,61025ae37ef11b136ea224fe,,,,,,,,,797,85.33335733,-49.3333898,1,0,0,response3disk,,5,12.00002182,-1.333347678,1,0,0,rectangle,12.00002182,-1.333347678,1,0,0,12.00002182,-1.333347678,1,0,0,0,26,26,142,1,,,,,,,,
,,,,,,,,,,,,,FF,,,,,,,,0.7521,,,,,,,,,,,,,,,,,,,,,,60ff8dab5974afca9c2c6816,610367d4a53d4131b64c85df,2021-07-29_20h46.25.808,Simcolourproject_2stim_asymm_v5,2020.2.10,Win32,60,61025ae37ef11b136ea224fe,,,,,,,,,2098,-51.99998009,69.99998778,1,0,0,response7disk,,0,16.00002193,2.666652441,1,0,0,rectangle,16.00002193,2.666652441,1,0,0,16.00002193,2.666652441,1,0,0,0,27,27,9,1,,,,,,,,
,,,,,,,,,,,,,FF,,,,,,,,1.9682,,,,,,,,,,,,,,,,,,,,,,60ff8dab5974afca9c2c6816,610367d4a53d4131b64c85df,2021-07-29_20h46.25.808,Simcolourproject_2stim_asymm_v5,2020.2.10,Win32,60,61025ae37ef11b136ea224fe,,,,,,,,,3525,-54.66660615,-86.66668355,1,0,0,response5disk,,3,-21.33331251,4.666652501,1,0,0,rectangle,-21.33331251,4.666652501,1,0,0,-21.33331251,4.666652501,1,0,0,0,28,28,34,1,,,,,,,,
,,,,,,,,,,,,,FF,,,,,,,,1.8178,,,,,,,,,,,,,,,,,,,,,,60ff8dab5974afca9c2c6816,610367d4a53d4131b64c85df,2021-07-29_20h46.25.808,Simcolourproject_2stim_asymm_v5,2020.2.10,Win32,60,61025ae37ef11b136ea224fe,,,,,,,,,3695,46.66668952,79.33332139,1,0,0,response1disk,,7,28.66668898,1.999985754,1,0,0,rectangle,28.66668898,1.999985754,1,0,0,28.66668898,1.999985754,1,0,0,0,29,29,130,1,,,,,,,,
,,,,,,,,,,,,,FF,,,,,,,,0.8833,,,,,,,,,,,,,,,,,,,,,,60ff8dab5974afca9c2c6816,610367d4a53d4131b64c85df,2021-07-29_20h46.25.808,Simcolourproject_2stim_asymm_v5,2020.2.10,Win32,60,61025ae37ef11b136ea224fe,,,,,,,,,1411,55.33335644,97.33332193,1,0,0,response1disk,,7,15.33335525,-7.333347857,1,0,0,rectangle,15.33335525,-7.333347857,1,0,0,15.33335525,-7.333347857,1,0,0,0,30,30,54,1,,,,,,,,
,,,,,,,,,,,,,FF,,,,,,,,2.4362,,,,,,,,,,,,,,,,,,,,,,60ff8dab5974afca9c2c6816,610367d4a53d4131b64c85df,2021-07-29_20h46.25.808,Simcolourproject_2stim_asymm_v5,2020.2.10,Win32,60,61025ae37ef11b136ea224fe,,,,,,,,,2770,68.66669017,30.66665328,1,0,0,response1disk,,6,18.00002199,-5.333347797,1,0,0,rectangle,18.00002199,-5.333347797,1,0,0,18.00002199,-5.333347797,1,0,0,0,31,31,26,1,,,,,,,,
,,,,,,,,,,,,,FF,,,,,,,,0.5841,,,,,,,,,,,,,,,,,,,,,,60ff8dab5974afca9c2c6816,610367d4a53d4131b64c85df,2021-07-29_20h46.25.808,Simcolourproject_2stim_asymm_v5,2020.2.10,Win32,60,61025ae37ef11b136ea224fe,,,,,,,,,2806,38.00002259,-39.3333895,1,0,0,response3disk,,4,3.33335489,-2.666681051,1,0,0,rectangle,3.33335489,-2.666681051,1,0,0,3.33335489,-2.666681051,1,0,0,0,32,32,60,1,,,,,,,,
,,,,,,,,,,,,,FF,,,,,,,,0.8837,,,,,,,,,,,,,,,,,,,,,,60ff8dab5974afca9c2c6816,610367d4a53d4131b64c85df,2021-07-29_20h46.25.808,Simcolourproject_2stim_asymm_v5,2020.2.10,Win32,60,61025ae37ef11b136ea224fe,,,,,,,,,660,76.66669041,-48.66668242,1,0,0,response3disk,,5,8.000021696,-4.666681111,1,0,0,rectangle,8.000021696,-4.666681111,1,0,0,8.000021696,-4.666681111,1,0,0,0,33,33,68,1,,,,,,,,
,,,,,,,,,,,,,FF,,,,,,,,0.7802,,,,,,,,,,,,,,,,,,,,,,60ff8dab5974afca9c2c6816,610367d4a53d4131b64c85df,2021-07-29_20h46.25.808,Simcolourproject_2stim_asymm_v5,2020.2.10,Win32,60,61025ae37ef11b136ea224fe,,,,,,,,,131,58.66668987,-24.66668171,1,0,0,response3disk,,5,5.33335495,-4.000014424,1,0,0,rectangle,5.33335495,-4.000014424,1,0,0,5.33335495,-4.000014424,1,0,0,0,34,34,45,1,,,,,,,,
,,,,,,,,,,,,,FF,,,,,,,,4.5037,,,,,,,,,,,,,,,,,,,,,,60ff8dab5974afca9c2c6816,610367d4a53d4131b64c85df,2021-07-29_20h46.25.808,Simcolourproject_2stim_asymm_v5,2020.2.10,Win32,60,61025ae37ef11b136ea224fe,,,,,,,,,2939,61.33335662,27.33331984,1,0,0,response1disk,,6,17.33335531,1.999985754,1,0,0,rectangle,17.33335531,1.999985754,1,0,0,17.33335531,1.999985754,1,0,0,0,35,35,88,1,,,,,,,,
,,,,,,,,,,,,,FF,,,,,,,,1.8524,,,,,,,,,,,,,,,,,,,,,,60ff8dab5974afca9c2c6816,610367d4a53d4131b64c85df,2021-07-29_20h46.25.808,Simcolourproject_2stim_asymm_v5,2020.2.10,Win32,60,61025ae37ef11b136ea224fe,,,,,,,,,1686,-81.99998099,27.33331984,1,0,0,response7disk,,1,-13.33331227,2.666652441,1,0,0,rectangle,-13.33331227,2.666652441,1,0,0,-13.33331227,2.666652441,1,0,0,0,36,36,147,1,,,,,,,,
,,,,,,,,,,,,,FF,,,,,,,,1.2856,,,,,,,,,,,,,,,,,,,,,,60ff8dab5974afca9c2c6816,610367d4a53d4131b64c85df,2021-07-29_20h46.25.808,Simcolourproject_2stim_asymm_v5,2020.2.10,Win32,60,61025ae37ef11b136ea224fe,,,,,,,,,4263,81.33335721,29.3333199,1,0,0,response1disk,,6,8.666688383,8.66665262,1,0,0,rectangle,8.666688383,8.66665262,1,0,0,8.666688383,8.66665262,1,0,0,0,37,37,118,1,,,,,,,,
,,,,,,,,,,,,,FF,,,,,,,,0.7847,,,,,,,,,,,,,,,,,,,,,,60ff8dab5974afca9c2c6816,610367d4a53d4131b64c85df,2021-07-29_20h46.25.808,Simcolourproject_2stim_asymm_v5,2020.2.10,Win32,60,61025ae37ef11b136ea224fe,,,,,,,,,2721,-60.66660633,81.99998814,1,0,0,response7disk,,0,-21.33331251,-0.666680992,1,0,0,rectangle,-21.33331251,-0.666680992,1,0,0,-21.33331251,-0.666680992,1,0,0,0,38,38,107,1,,,,,,,,
,,,,,,,,,,,,,FF,,,,,,,,0.8888,,,,,,,,,,,,,,,,,,,,,,60ff8dab5974afca9c2c6816,610367d4a53d4131b64c85df,2021-07-29_20h46.25.808,Simcolourproject_2stim_asymm_v5,2020.2.10,Win32,60,61025ae37ef11b136ea224fe,,,,,,,,,3647,46.00002283,65.33332098,1,0,0,response1disk,,7,26.00002223,7.333319247,1,0,0,rectangle,26.00002223,7.333319247,1,0,0,26.00002223,7.333319247,1,0,0,0,39,39,148,1,,,,,,,,
,,,,,,,,,,,,,FF,,,,,,,,0.934,,,,,,,,,,,,,,,,,,,,,,60ff8dab5974afca9c2c6816,610367d4a53d4131b64c85df,2021-07-29_20h46.25.808,Simcolourproject_2stim_asymm_v5,2020.2.10,Win32,60,61025ae37ef11b136ea224fe,,,,,,,,,1861,26.00002223,95.99998856,1,0,0,response1disk,,7,18.66668868,-12.66668135,1,0,0,rectangle,18.66668868,-12.66668135,1,0,0,18.66668868,-12.66668135,1,0,0,0,40,40,27,1,,,,,,,,
,,,,,,,,,,,,,FF,,,,,,,,0.4469,,,,,,,,,,,,,,,,,,,,,,60ff8dab5974afca9c2c6816,610367d4a53d4131b64c85df,2021-07-29_20h46.25.808,Simcolourproject_2stim_asymm_v5,2020.2.10,Win32,60,61025ae37ef11b136ea224fe,,,,,,,,,27,28.66668898,56.66665405,1,0,0,response1disk,,7,24.00002217,1.333319068,1,0,0,rectangle,74.00002366,-45.33338968,1,0,0,-21.9999792,5.333319187,1,0,0,0,41,41,7,1,,response3disk_3,TRUE,5,5,"[196,263,64,170,160,202,219,46,42,101,275,53,320,64,22,297,243,273,197,83]",1.2487,rectangle
,,,,,,,,,,,,,FF,,,,,,,,1.1678,,,,,,,,,,,,,,,,,,,,,,60ff8dab5974afca9c2c6816,610367d4a53d4131b64c85df,2021-07-29_20h46.25.808,Simcolourproject_2stim_asymm_v5,2020.2.10,Win32,60,61025ae37ef11b136ea224fe,,,,,,,,,1838,-55.33331352,-68.00001633,1,0,0,response5disk,,3,-11.9999789,-12.66668135,1,0,0,rectangle,-11.9999789,-12.66668135,1,0,0,-11.9999789,-12.66668135,1,0,0,0,42,42,32,1,,,,,,,,
,,,,,,,,,,,,,FF,,,,,,,,1.051,,,,,,,,,,,,,,,,,,,,,,60ff8dab5974afca9c2c6816,610367d4a53d4131b64c85df,2021-07-29_20h46.25.808,Simcolourproject_2stim_asymm_v5,2020.2.10,Win32,60,61025ae37ef11b136ea224fe,,,,,,,,,51,-22.66664588,-82.00001675,1,0,0,response5disk,,3,-8.666645467,-2.000014365,1,0,0,rectangle,-8.666645467,-2.000014365,1,0,0,-8.666645467,-2.000014365,1,0,0,0,43,43,119,1,,,,,,,,
,,,,,,,,,,,,,FF,,,,,,,,1.1505,,,,,,,,,,,,,,,,,,,,,,60ff8dab5974afca9c2c6816,610367d4a53d4131b64c85df,2021-07-29_20h46.25.808,Simcolourproject_2stim_asymm_v5,2020.2.10,Win32,60,61025ae37ef11b136ea224fe,,,,,,,,,3355,67.3333568,-31.33334857,1,0,0,response3disk,,5,1.333354831,-2.000014365,1,0,0,rectangle,1.333354831,-2.000014365,1,0,0,1.333354831,-2.000014365,1,0,0,0,44,44,102,1,,,,,,,,
,,,,,,,,,,,,,FF,,,,,,,,0.5474,,,,,,,,,,,,,,,,,,,,,,60ff8dab5974afca9c2c6816,610367d4a53d4131b64c85df,2021-07-29_20h46.25.808,Simcolourproject_2stim_asymm_v5,2020.2.10,Win32,60,61025ae37ef11b136ea224fe,,,,,,,,,3077,63.33335668,-24.00001502,1,0,0,response3disk,,5,-16.66664571,0.666652381,1,0,0,rectangle,52.66668969,78.66665471,1,0,0,-2.666645288,-1.333347678,1,0,0,0,45,45,25,1,,response1disk_3,TRUE,7,7,"[196,263,64,170,160,202,219,46,42,101,275,53,320,64,22,297,243,273,197,83]",1.5339,rectangle
,,,,,,,,,,,,,FF,,,,,,,,0.9675,,,,,,,,,,,,,,,,,,,,,,60ff8dab5974afca9c2c6816,610367d4a53d4131b64c85df,2021-07-29_20h46.25.808,Simcolourproject_2stim_asymm_v5,2020.2.10,Win32,60,61025ae37ef11b136ea224fe,,,,,,,,,3007,-113.9999819,29.99998659,1,0,0,response7disk,,1,-21.9999792,-8.66668123,1,0,0,rectangle,-21.9999792,-8.66668123,1,0,0,-21.9999792,-8.66668123,1,0,0,0,46,46,122,1,,,,,,,,
,,,,,,,,,,,,,FF,,,,,,,,0.6003,,,,,,,,,,,,,,,,,,,,,,60ff8dab5974afca9c2c6816,610367d4a53d4131b64c85df,2021-07-29_20h46.25.808,Simcolourproject_2stim_asymm_v5,2020.2.10,Win32,60,61025ae37ef11b136ea224fe,,,,,,,,,3591,-37.33331299,93.9999885,1,0,0,response7disk,,0,-5.999978721,9.333319306,1,0,0,rectangle,-5.999978721,9.333319306,1,0,0,-5.999978721,9.333319306,1,0,0,0,47,47,128,1,,,,,,,,
,,,,,,,,,,,,,FF,,,,,,,,1.1189,,,,,,,,,,,,,,,,,,,,,,60ff8dab5974afca9c2c6816,610367d4a53d4131b64c85df,2021-07-29_20h46.25.808,Simcolourproject_2stim_asymm_v5,2020.2.10,Win32,60,61025ae37ef11b136ea224fe,,,,,,,,,4092,38.00002259,57.99998742,1,0,0,response1disk,,7,9.333355069,-6.000014484,1,0,0,rectangle,9.333355069,-6.000014484,1,0,0,9.333355069,-6.000014484,1,0,0,0,48,48,85,1,,,,,,,,
,,,,,,,,,,,,,FF,,,,,,,,1.0372,,,,,,,,,,,,,,,,,,,,,,60ff8dab5974afca9c2c6816,610367d4a53d4131b64c85df,2021-07-29_20h46.25.808,Simcolourproject_2stim_asymm_v5,2020.2.10,Win32,60,61025ae37ef11b136ea224fe,,,,,,,,,4294,-81.99998099,-22.00001496,1,0,0,response5disk,,2,-7.333312094,2.666652441,1,0,0,rectangle,-7.333312094,2.666652441,1,0,0,-7.333312094,2.666652441,1,0,0,0,49,49,75,1,,,,,,,,
,,,,,,,,,,,,,FF,,,,,,,,1.2852,,,,,,,,,,,,,,,,,,,,,,60ff8dab5974afca9c2c6816,610367d4a53d4131b64c85df,2021-07-29_20h46.25.808,Simcolourproject_2stim_asymm_v5,2020.2.10,Win32,60,61025ae37ef11b136ea224fe,,,,,,,,,1914,-32.66664618,-80.00001669,1,0,0,response5disk,,3,-34.66664624,-1.333347678,1,0,0,rectangle,-34.66664624,-1.333347678,1,0,0,-34.66664624,-1.333347678,1,0,0,0,50,50,46,1,,,,,,,,
,,,,,,,,,,,,,FF,,,,,,,,1.284,,,,,,,,,,,,,,,,,,,,,,60ff8dab5974afca9c2c6816,610367d4a53d4131b64c85df,2021-07-29_20h46.25.808,Simcolourproject_2stim_asymm_v5,2020.2.10,Win32,60,61025ae37ef11b136ea224fe,,,,,,,,,629,33.33335578,84.66665488,1,0,0,response1disk,,7,12.6666885,-3.333347738,1,0,0,rectangle,12.6666885,-3.333347738,1,0,0,12.6666885,-3.333347738,1,0,0,0,51,51,123,1,,,,,,,,
,,,,,,,,,,,,,FF,,,,,,,,1.5011,,,,,,,,,,,,,,,,,,,,,,60ff8dab5974afca9c2c6816,610367d4a53d4131b64c85df,2021-07-29_20h46.25.808,Simcolourproject_2stim_asymm_v5,2020.2.10,Win32,60,61025ae37ef11b136ea224fe,,,,,,,,,80,-100.6666075,39.99998689,1,0,0,response7disk,,1,-18.66664577,12.66665274,1,0,0,rectangle,36.66668922,78.66665471,1,0,0,-6.666645408,-0.666680992,1,0,0,0,52,52,150,1,,response1disk_3,TRUE,7,7,"[196,263,64,170,160,202,219,46,42,101,275,53,320,64,22,297,243,273,197,83]",1.368,rectangle
,,,,,,,,,,,,,FF,,,,,,,,3.8353,,,,,,,,,,,,,,,,,,,,,,60ff8dab5974afca9c2c6816,610367d4a53d4131b64c85df,2021-07-29_20h46.25.808,Simcolourproject_2stim_asymm_v5,2020.2.10,Win32,60,61025ae37ef11b136ea224fe,,,,,,,,,822,-59.99998033,52.66665393,1,0,0,response7disk,,1,-1.333311915,-12.00001466,1,0,0,rectangle,-1.333311915,-12.00001466,1,0,0,-1.333311915,-12.00001466,1,0,0,0,53,53,16,1,,,,,,,,
,,,,,,,,,,,,,FF,,,,,,,,1.3003,,,,,,,,,,,,,,,,,,,,,,60ff8dab5974afca9c2c6816,610367d4a53d4131b64c85df,2021-07-29_20h46.25.808,Simcolourproject_2stim_asymm_v5,2020.2.10,Win32,60,61025ae37ef11b136ea224fe,,,,,,,,,3890,30.00002235,46.66665375,1,0,0,response1disk,,7,30.00002235,4.666652501,1,0,0,rectangle,30.00002235,4.666652501,1,0,0,30.00002235,4.666652501,1,0,0,0,54,54,77,1,,,,,,,,
,,,,,,,,,,,,,FF,,,,,,,,0.534,,,,,,,,,,,,,,,,,,,,,,60ff8dab5974afca9c2c6816,610367d4a53d4131b64c85df,2021-07-29_20h46.25.808,Simcolourproject_2stim_asymm_v5,2020.2.10,Win32,60,61025ae37ef11b136ea224fe,,,,,,,,,1348,22.00002211,59.3333208,1,0,0,response1disk,,7,6.000021636,-2.666681051,1,0,0,rectangle,6.000021636,-2.666681051,1,0,0,6.000021636,-2.666681051,1,0,0,0,55,55,20,1,,,,,,,,
,,,,,,,,,,,,,FF,,,,,,,,0.9509,,,,,,,,,,,,,,,,,,,,,,60ff8dab5974afca9c2c6816,610367d4a53d4131b64c85df,2021-07-29_20h46.25.808,Simcolourproject_2stim_asymm_v5,2020.2.10,Win32,60,61025ae37ef11b136ea224fe,,,,,,,,,1751,-96.6666074,-42.00001556,1,0,0,response5disk,,2,-5.333312035,-1.333347678,1,0,0,rectangle,-5.333312035,-1.333347678,1,0,0,-5.333312035,-1.333347678,1,0,0,0,56,56,10,1,,,,,,,,
,,,,,,,,,,,,,FF,,,,,,,,0.7505,,,,,,,,,,,,,,,,,,,,,,60ff8dab5974afca9c2c6816,610367d4a53d4131b64c85df,2021-07-29_20h46.25.808,Simcolourproject_2stim_asymm_v5,2020.2.10,Win32,60,61025ae37ef11b136ea224fe,,,,,,,,,1940,-24.66664594,-84.00001681,1,0,0,response5disk,,3,-12.66664559,-10.66668129,1,0,0,rectangle,-12.66664559,-10.66668129,1,0,0,-12.66664559,-10.66668129,1,0,0,0,57,57,47,1,,,,,,,,
,,,,,,,,,,,,,FF,,,,,,,,1.2023,,,,,,,,,,,,,,,,,,,,,,60ff8dab5974afca9c2c6816,610367d4a53d4131b64c85df,2021-07-29_20h46.25.808,Simcolourproject_2stim_asymm_v5,2020.2.10,Win32,60,61025ae37ef11b136ea224fe,,,,,,,,,1809,-39.33331305,-65.33339028,1,0,0,response5disk,,3,-5.333312035,1.333319068,1,0,0,rectangle,-5.333312035,1.333319068,1,0,0,-5.333312035,1.333319068,1,0,0,0,58,58,117,1,,,,,,,,
,,,,,,,,,,,,,FF,,,,,,,,1.1681,,,,,,,,,,,,,,,,,,,,,,60ff8dab5974afca9c2c6816,610367d4a53d4131b64c85df,2021-07-29_20h46.25.808,Simcolourproject_2stim_asymm_v5,2020.2.10,Win32,60,61025ae37ef11b136ea224fe,,,,,,,,,545,-37.33331299,-76.00001657,1,0,0,response5disk,,3,-17.33331239,-6.66668117,1,0,0,rectangle,-17.33331239,-6.66668117,1,0,0,-17.33331239,-6.66668117,1,0,0,0,59,59,132,1,,,,,,,,
,,,,,,,,,,,,,FF,,,,,,,,1.2513,,,,,,,,,,,,,,,,,,,,,,60ff8dab5974afca9c2c6816,610367d4a53d4131b64c85df,2021-07-29_20h46.25.808,Simcolourproject_2stim_asymm_v5,2020.2.10,Win32,60,61025ae37ef11b136ea224fe,,,,,,,,,1805,-39.99997973,-100.0000173,1,0,0,response5disk,,3,-13.33331227,-1.333347678,1,0,0,rectangle,-13.33331227,-1.333347678,1,0,0,-13.33331227,-1.333347678,1,0,0,0,60,60,127,1,,,,,,,,
,,,,,,,,,,,,,FF,,,,,,,,0.5833,,,,,,,,,,,,,,,,,,,,,,60ff8dab5974afca9c2c6816,610367d4a53d4131b64c85df,2021-07-29_20h46.25.808,Simcolourproject_2stim_asymm_v5,2020.2.10,Win32,60,61025ae37ef11b136ea224fe,,,,,,,,,4280,-42.66660579,97.99998862,1,0,0,response7disk,,0,-5.999978721,-6.66668117,1,0,0,rectangle,-5.999978721,-6.66668117,1,0,0,-5.999978721,-6.66668117,1,0,0,0,61,61,99,1,,,,,,,,
,,,,,,,,,,,,,FF,,,,,,,,0.9,,,,,,,,,,,,,,,,,,,,,,60ff8dab5974afca9c2c6816,610367d4a53d4131b64c85df,2021-07-29_20h46.25.808,Simcolourproject_2stim_asymm_v5,2020.2.10,Win32,60,61025ae37ef11b136ea224fe,,,,,,,,,3033,41.33335602,-67.33339034,1,0,0,response3disk,,4,-12.66664559,-4.000014424,1,0,0,rectangle,-12.66664559,-4.000014424,1,0,0,-12.66664559,-4.000014424,1,0,0,0,62,62,58,1,,,,,,,,
,,,,,,,,,,,,,FF,,,,,,,,0.6673,,,,,,,,,,,,,,,,,,,,,,60ff8dab5974afca9c2c6816,610367d4a53d4131b64c85df,2021-07-29_20h46.25.808,Simcolourproject_2stim_asymm_v5,2020.2.10,Win32,60,61025ae37ef11b136ea224fe,,,,,,,,,2330,50.00002295,-55.33338998,1,0,0,response3disk,,4,2.000021517,14.6666528,1,0,0,rectangle,-81.3333143,33.99998671,1,0,0,-8.666645467,3.333319128,1,0,0,0,63,63,140,1,,response7disk_3,TRUE,1,1,"[196,263,64,170,160,202,219,46,42,101,275,53,320,64,22,297,243,273,197,83]",1.3004,rectangle
,,,,,,,,,,,,,FF,,,,,,,,1.0519,,,,,,,,,,,,,,,,,,,,,,60ff8dab5974afca9c2c6816,610367d4a53d4131b64c85df,2021-07-29_20h46.25.808,Simcolourproject_2stim_asymm_v5,2020.2.10,Win32,60,61025ae37ef11b136ea224fe,,,,,,,,,2279,104.0000246,-46.66668236,1,0,0,response3disk,,5,14.00002187,0.666652381,1,0,0,rectangle,14.00002187,0.666652381,1,0,0,14.00002187,0.666652381,1,0,0,0,64,64,15,1,,,,,,,,
,,,,,,,,,,,,,FF,,,,,,,,0.5533,,,,,,,,,,,,,,,,,,,,,,60ff8dab5974afca9c2c6816,610367d4a53d4131b64c85df,2021-07-29_20h46.25.808,Simcolourproject_2stim_asymm_v5,2020.2.10,Win32,60,61025ae37ef11b136ea224fe,,,,,,,,,1272,62.00002331,24.6666531,1,0,0,response1disk,,6,10.00002176,1.999985754,1,0,0,rectangle,10.00002176,1.999985754,1,0,0,10.00002176,1.999985754,1,0,0,0,65,65,5,1,,,,,,,,
,,,,,,,,,,,,,FF,,,,,,,,0.5184,,,,,,,,,,,,,,,,,,,,,,60ff8dab5974afca9c2c6816,610367d4a53d4131b64c85df,2021-07-29_20h46.25.808,Simcolourproject_2stim_asymm_v5,2020.2.10,Win32,60,61025ae37ef11b136ea224fe,,,,,,,,,3366,42.00002271,29.99998659,1,0,0,response1disk,,6,-10.66664553,4.666652501,1,0,0,rectangle,-10.66664553,4.666652501,1,0,0,-10.66664553,4.666652501,1,0,0,0,66,66,156,1,,,,,,,,
,,,,,,,,,,,,,FF,,,,,,,,0.9385,,,,,,,,,,,,,,,,,,,,,,60ff8dab5974afca9c2c6816,610367d4a53d4131b64c85df,2021-07-29_20h46.25.808,Simcolourproject_2stim_asymm_v5,2020.2.10,Win32,60,61025ae37ef11b136ea224fe,,,,,,,,,24,50.00002295,66.66665435,1,0,0,response1disk,,7,-1.999978602,11.33331937,1,0,0,rectangle,-1.999978602,11.33331937,1,0,0,-1.999978602,11.33331937,1,0,0,0,67,67,0,1,,,,,,,,
,,,,,,,,,,,,,FF,,,,,,,,1.2006,,,,,,,,,,,,,,,,,,,,,,60ff8dab5974afca9c2c6816,610367d4a53d4131b64c85df,2021-07-29_20h46.25.808,Simcolourproject_2stim_asymm_v5,2020.2.10,Win32,60,61025ae37ef11b136ea224fe,,,,,,,,,4034,-55.33331352,-86.00001687,1,0,0,response5disk,,3,-13.33331227,-8.66668123,1,0,0,rectangle,-13.33331227,-8.66668123,1,0,0,-13.33331227,-8.66668123,1,0,0,0,68,68,70,1,,,,,,,,
,,,,,,,,,,,,,FF,,,,,,,,0.8514,,,,,,,,,,,,,,,,,,,,,,60ff8dab5974afca9c2c6816,610367d4a53d4131b64c85df,2021-07-29_20h46.25.808,Simcolourproject_2stim_asymm_v5,2020.2.10,Win32,60,61025ae37ef11b136ea224fe,,,,,,,,,1148,36.00002253,52.66665393,1,0,0,response1disk,,7,10.66668844,-10.0000146,1,0,0,rectangle,10.66668844,-10.0000146,1,0,0,10.66668844,-10.0000146,1,0,0,0,69,69,155,1,,,,,,,,
,,,,,,,,,,,,,FF,,,,,,,,1.2522,,,,,,,,,,,,,,,,,,,,,,60ff8dab5974afca9c2c6816,610367d4a53d4131b64c85df,2021-07-29_20h46.25.808,Simcolourproject_2stim_asymm_v5,2020.2.10,Win32,60,61025ae37ef11b136ea224fe,,,,,,,,,3779,-64.66660645,-87.33339093,1,0,0,response5disk,,3,-4.666645348,-5.333347797,1,0,0,rectangle,-4.666645348,-5.333347797,1,0,0,-4.666645348,-5.333347797,1,0,0,0,70,70,19,1,,,,,,,,
,,,,,,,,,,,,,FF,,,,,,,,1.2181,,,,,,,,,,,,,,,,,,,,,,60ff8dab5974afca9c2c6816,610367d4a53d4131b64c85df,2021-07-29_20h46.25.808,Simcolourproject_2stim_asymm_v5,2020.2.10,Win32,60,61025ae37ef11b136ea224fe,,,,,,,,,3894,-79.99998093,48.66665381,1,0,0,response7disk,,1,-4.666645348,1.333319068,1,0,0,rectangle,-4.666645348,1.333319068,1,0,0,-4.666645348,1.333319068,1,0,0,0,71,71,84,1,,,,,,,,
,,,,,,,,,,,,,FF,,,,,,,,0.4979,,,,,,,,,,,,,,,,,,,,,,60ff8dab5974afca9c2c6816,610367d4a53d4131b64c85df,2021-07-29_20h46.25.808,Simcolourproject_2stim_asymm_v5,2020.2.10,Win32,60,61025ae37ef11b136ea224fe,,,,,,,,,2909,-78.66660686,48.66665381,1,0,0,response7disk,,1,11.33335513,3.333319128,1,0,0,rectangle,11.33335513,3.333319128,1,0,0,11.33335513,3.333319128,1,0,0,0,72,72,2,1,,,,,,,,
,,,,,,,,,,,,,FF,,,,,,,,1.0152,,,,,,,,,,,,,,,,,,,,,,60ff8dab5974afca9c2c6816,610367d4a53d4131b64c85df,2021-07-29_20h46.25.808,Simcolourproject_2stim_asymm_v5,2020.2.10,Win32,60,61025ae37ef11b136ea224fe,,,,,,,,,1059,-80.66660692,34.66665339,1,0,0,response7disk,,1,-11.9999789,-4.000014424,1,0,0,rectangle,-11.9999789,-4.000014424,1,0,0,-11.9999789,-4.000014424,1,0,0,0,73,73,135,1,,,,,,,,
,,,,,,,,,,,,,FF,,,,,,,,1.1145,,,,,,,,,,,,,,,,,,,,,,60ff8dab5974afca9c2c6816,610367d4a53d4131b64c85df,2021-07-29_20h46.25.808,Simcolourproject_2stim_asymm_v5,2020.2.10,Win32,60,61025ae37ef11b136ea224fe,,,,,,,,,2697,61.33335662,87.99998832,1,0,0,response1disk,,7,14.66668856,2.666652441,1,0,0,rectangle,14.66668856,2.666652441,1,0,0,14.66668856,2.666652441,1,0,0,0,74,74,74,1,,,,,,,,
,,,,,,,,,,,,,FF,,,,,,,,0.8004,,,,,,,,,,,,,,,,,,,,,,60ff8dab5974afca9c2c6816,610367d4a53d4131b64c85df,2021-07-29_20h46.25.808,Simcolourproject_2stim_asymm_v5,2020.2.10,Win32,60,61025ae37ef11b136ea224fe,,,,,,,,,368,-71.333314,34.66665339,1,0,0,response7disk,,1,-5.999978721,-10.0000146,1,0,0,rectangle,-5.999978721,-10.0000146,1,0,0,-5.999978721,-10.0000146,1,0,0,0,75,75,103,1,,,,,,,,
,,,,,,,,,,,,,FF,,,,,,,,0.968,,,,,,,,,,,,,,,,,,,,,,60ff8dab5974afca9c2c6816,610367d4a53d4131b64c85df,2021-07-29_20h46.25.808,Simcolourproject_2stim_asymm_v5,2020.2.10,Win32,60,61025ae37ef11b136ea224fe,,,,,,,,,2403,51.33335632,117.3333225,1,0,0,response1disk,,7,16.00002193,-2.666681051,1,0,0,rectangle,16.00002193,-2.666681051,1,0,0,16.00002193,-2.666681051,1,0,0,0,76,76,36,1,,,,,,,,
,,,,,,,,,,,,,FF,,,,,,,,0.8335,,,,,,,,,,,,,,,,,,,,,,60ff8dab5974afca9c2c6816,610367d4a53d4131b64c85df,2021-07-29_20h46.25.808,Simcolourproject_2stim_asymm_v5,2020.2.10,Win32,60,61025ae37ef11b136ea224fe,,,,,,,,,2949,-69.33331394,54.66665399,1,0,0,response7disk,,1,2.666688204,-14.66668141,1,0,0,rectangle,2.666688204,-14.66668141,1,0,0,2.666688204,-14.66668141,1,0,0,0,77,77,91,1,,,,,,,,
,,,,,,,,,,,,,FF,,,,,,,,0.7497,,,,,,,,,,,,,,,,,,,,,,60ff8dab5974afca9c2c6816,610367d4a53d4131b64c85df,2021-07-29_20h46.25.808,Simcolourproject_2stim_asymm_v5,2020.2.10,Win32,60,61025ae37ef11b136ea224fe,,,,,,,,,7,-101.3333149,39.99998689,1,0,0,response7disk,,1,14.66668856,-2.666681051,1,0,0,rectangle,14.66668856,-2.666681051,1,0,0,14.66668856,-2.666681051,1,0,0,0,78,78,108,1,,,,,,,,
,,,,,,,,,,,,,FF,,,,,,,,0.666,,,,,,,,,,,,,,,,,,,,,,60ff8dab5974afca9c2c6816,610367d4a53d4131b64c85df,2021-07-29_20h46.25.808,Simcolourproject_2stim_asymm_v5,2020.2.10,Win32,60,61025ae37ef11b136ea224fe,,,,,,,,,3175,35.33335584,79.99998808,1,0,0,response1disk,,7,19.33335537,-12.00001466,1,0,0,rectangle,19.33335537,-12.00001466,1,0,0,19.33335537,-12.00001466,1,0,0,0,79,79,69,1,,,,,,,,
,,,,,,,,,,,,,FF,,,,,,,,0.7635,,,,,,,,,,,,,,,,,,,,,,60ff8dab5974afca9c2c6816,610367d4a53d4131b64c85df,2021-07-29_20h46.25.808,Simcolourproject_2stim_asymm_v5,2020.2.10,Win32,60,61025ae37ef11b136ea224fe,,,,,,,,,542,23.33335549,52.66665393,1,0,0,response1disk,,7,12.00002182,10.66665268,1,0,0,rectangle,12.00002182,10.66665268,1,0,0,12.00002182,10.66665268,1,0,0,0,80,80,136,1,,,,,,,,
,,,,,,,,,,,,,FF,,,,,,,,1.2384,,,,,,,,,,,,,,,,,,,,,,60ff8dab5974afca9c2c6816,610367d4a53d4131b64c85df,2021-07-29_20h46.25.808,Simcolourproject_2stim_asymm_v5,2020.2.10,Win32,60,61025ae37ef11b136ea224fe,,,,,,,,,3949,-57.33331358,-84.00001681,1,0,0,response5disk,,3,-17.33331239,-1.4351E-05,1,0,0,rectangle,-17.33331239,-1.4351E-05,1,0,0,-17.33331239,-1.4351E-05,1,0,0,0,81,81,44,1,,,,,,,,
,,,,,,,,,,,,,FF,,,,,,,,0.8388,,,,,,,,,,,,,,,,,,,,,,60ff8dab5974afca9c2c6816,610367d4a53d4131b64c85df,2021-07-29_20h46.25.808,Simcolourproject_2stim_asymm_v5,2020.2.10,Win32,60,61025ae37ef11b136ea224fe,,,,,,,,,524,-19.33331245,-68.66668302,1,0,0,response5disk,,3,8.000021696,-8.66668123,1,0,0,rectangle,25.33337402,84.66665649,1,0,0,3.333374023,-4,1,0,0,0,82,82,153,1,,response1disk_3,TRUE,7,7,"[196,263,64,170,160,202,219,46,42,101,275,53,320,64,22,297,243,273,197,83]",1.6833,rectangle
,,,,,,,,,,,,,FF,,,,,,,,2.5863,,,,,,,,,,,,,,,,,,,,,,60ff8dab5974afca9c2c6816,610367d4a53d4131b64c85df,2021-07-29_20h46.25.808,Simcolourproject_2stim_asymm_v5,2020.2.10,Win32,60,61025ae37ef11b136ea224fe,,,,,,,,,3975,23.33337402,87.33331299,1,0,0,response1disk,,7,22.66668701,5.333312988,1,0,0,rectangle,22.66668701,5.333312988,1,0,0,22.66668701,5.333312988,1,0,0,0,83,83,24,1,,,,,,,,
,,,,,,,,,,,,,FF,,,,,,,,0.8546,,,,,,,,,,,,,,,,,,,,,,60ff8dab5974afca9c2c6816,610367d4a53d4131b64c85df,2021-07-29_20h46.25.808,Simcolourproject_2stim_asymm_v5,2020.2.10,Win32,60,61025ae37ef11b136ea224fe,,,,,,,,,501,46.66668701,79.33331299,1,0,0,response1disk,,7,11.33337402,-4,1,0,0,rectangle,11.33337402,-4,1,0,0,11.33337402,-4,1,0,0,0,84,84,28,1,,,,,,,,
,,,,,,,,,,,,,FF,,,,,,,,0.8348,,,,,,,,,,,,,,,,,,,,,,60ff8dab5974afca9c2c6816,610367d4a53d4131b64c85df,2021-07-29_20h46.25.808,Simcolourproject_2stim_asymm_v5,2020.2.10,Win32,60,61025ae37ef11b136ea224fe,,,,,,,,,3816,-85.33331299,-40.66668701,1,0,0,response5disk,,2,22,-5.333343506,1,0,0,rectangle,22,-5.333343506,1,0,0,22,-5.333343506,1,0,0,0,85,85,124,1,,,,,,,,
,,,,,,,,,,,,,FF,,,,,,,,0.7027,,,,,,,,,,,,,,,,,,,,,,60ff8dab5974afca9c2c6816,610367d4a53d4131b64c85df,2021-07-29_20h46.25.808,Simcolourproject_2stim_asymm_v5,2020.2.10,Win32,60,61025ae37ef11b136ea224fe,,,,,,,,,4095,-38,83.33331299,1,0,0,response7disk,,0,26,2,1,0,0,rectangle,26,2,1,0,0,26,2,1,0,0,0,86,86,53,1,,,,,,,,
,,,,,,,,,,,,,FF,,,,,,,,0.6815,,,,,,,,,,,,,,,,,,,,,,60ff8dab5974afca9c2c6816,610367d4a53d4131b64c85df,2021-07-29_20h46.25.808,Simcolourproject_2stim_asymm_v5,2020.2.10,Win32,60,61025ae37ef11b136ea224fe,,,,,,,,,4118,-48.66662598,83.33331299,1,0,0,response7disk,,0,24.66668701,-8,1,0,0,rectangle,24.66668701,-8,1,0,0,24.66668701,-8,1,0,0,0,87,87,106,1,,,,,,,,
,,,,,,,,,,,,,FF,,,,,,,,3.2151,,,,,,,,,,,,,,,,,,,,,,60ff8dab5974afca9c2c6816,610367d4a53d4131b64c85df,2021-07-29_20h46.25.808,Simcolourproject_2stim_asymm_v5,2020.2.10,Win32,60,61025ae37ef11b136ea224fe,,,,,,,,,3832,34.66668701,118,1,0,0,response1disk,,7,-0.666625977,-13.33334351,1,0,0,rectangle,-0.666625977,-13.33334351,1,0,0,-0.666625977,-13.33334351,1,0,0,0,88,88,101,1,,,,,,,,
,,,,,,,,,,,,,FF,,,,,,,,1.6195,,,,,,,,,,,,,,,,,,,,,,60ff8dab5974afca9c2c6816,610367d4a53d4131b64c85df,2021-07-29_20h46.25.808,Simcolourproject_2stim_asymm_v5,2020.2.10,Win32,60,61025ae37ef11b136ea224fe,,,,,,,,,828,32,77.33331299,1,0,0,response1disk,,7,10.66668701,4.666656494,1,0,0,rectangle,10.66668701,4.666656494,1,0,0,10.66668701,4.666656494,1,0,0,0,89,89,97,1,,,,,,,,
,,,,,,,,,,,,,FF,,,,,,,,0.7517,,,,,,,,,,,,,,,,,,,,,,60ff8dab5974afca9c2c6816,610367d4a53d4131b64c85df,2021-07-29_20h46.25.808,Simcolourproject_2stim_asymm_v5,2020.2.10,Win32,60,61025ae37ef11b136ea224fe,,,,,,,,,3145,90.66668701,-37.33337402,1,0,0,response3disk,,5,4.666687012,-3.333343506,1,0,0,rectangle,4.666687012,-3.333343506,1,0,0,4.666687012,-3.333343506,1,0,0,0,90,90,22,1,,,,,,,,
,,,,,,,,,,,,,FF,,,,,,,,0.7842,,,,,,,,,,,,,,,,,,,,,,60ff8dab5974afca9c2c6816,610367d4a53d4131b64c85df,2021-07-29_20h46.25.808,Simcolourproject_2stim_asymm_v5,2020.2.10,Win32,60,61025ae37ef11b136ea224fe,,,,,,,,,2956,34.66668701,87.33331299,1,0,0,response1disk,,7,3.333374023,-11.33334351,1,0,0,rectangle,3.333374023,-11.33334351,1,0,0,3.333374023,-11.33334351,1,0,0,0,91,91,129,1,,,,,,,,
,,,,,,,,,,,,,FF,,,,,,,,0.6181,,,,,,,,,,,,,,,,,,,,,,60ff8dab5974afca9c2c6816,610367d4a53d4131b64c85df,2021-07-29_20h46.25.808,Simcolourproject_2stim_asymm_v5,2020.2.10,Win32,60,61025ae37ef11b136ea224fe,,,,,,,,,2984,46,105.333313,1,0,0,response1disk,,7,12,-2.666687012,1,0,0,rectangle,12,-2.666687012,1,0,0,12,-2.666687012,1,0,0,0,92,92,104,1,,,,,,,,
,,,,,,,,,,,,,FF,,,,,,,,0.9185,,,,,,,,,,,,,,,,,,,,,,60ff8dab5974afca9c2c6816,610367d4a53d4131b64c85df,2021-07-29_20h46.25.808,Simcolourproject_2stim_asymm_v5,2020.2.10,Win32,60,61025ae37ef11b136ea224fe,,,,,,,,,3818,-89.33331299,-48,1,0,0,response5disk,,2,28,9.333312988,1,0,0,rectangle,28,9.333312988,1,0,0,28,9.333312988,1,0,0,0,93,93,114,1,,,,,,,,
,,,,,,,,,,,,,FF,,,,,,,,0.7476,,,,,,,,,,,,,,,,,,,,,,60ff8dab5974afca9c2c6816,610367d4a53d4131b64c85df,2021-07-29_20h46.25.808,Simcolourproject_2stim_asymm_v5,2020.2.10,Win32,60,61025ae37ef11b136ea224fe,,,,,,,,,201,-38,-86,1,0,0,response5disk,,3,24.66668701,-11.33334351,1,0,0,rectangle,24.66668701,-11.33334351,1,0,0,24.66668701,-11.33334351,1,0,0,0,94,94,87,1,,,,,,,,
,,,,,,,,,,,,,FF,,,,,,,,1.0034,,,,,,,,,,,,,,,,,,,,,,60ff8dab5974afca9c2c6816,610367d4a53d4131b64c85df,2021-07-29_20h46.25.808,Simcolourproject_2stim_asymm_v5,2020.2.10,Win32,60,61025ae37ef11b136ea224fe,,,,,,,,,2366,-71.33331299,33.33331299,1,0,0,response7disk,,1,17.33337402,8.666656494,1,0,0,rectangle,17.33337402,8.666656494,1,0,0,17.33337402,8.666656494,1,0,0,0,95,95,21,1,,,,,,,,
,,,,,,,,,,,,,FF,,,,,,,,1.9523,,,,,,,,,,,,,,,,,,,,,,60ff8dab5974afca9c2c6816,610367d4a53d4131b64c85df,2021-07-29_20h46.25.808,Simcolourproject_2stim_asymm_v5,2020.2.10,Win32,60,61025ae37ef11b136ea224fe,,,,,,,,,1697,-93.33331299,-38.66668701,1,0,0,response5disk,,2,23.33337402,4,1,0,0,rectangle,23.33337402,4,1,0,0,23.33337402,4,1,0,0,0,96,96,52,1,,,,,,,,
,,,,,,,,,,,,,FF,,,,,,,,1.1025,,,,,,,,,,,,,,,,,,,,,,60ff8dab5974afca9c2c6816,610367d4a53d4131b64c85df,2021-07-29_20h46.25.808,Simcolourproject_2stim_asymm_v5,2020.2.10,Win32,60,61025ae37ef11b136ea224fe,,,,,,,,,3432,-84.66662598,34,1,0,0,response7disk,,1,25.33337402,18.66665649,1,0,0,rectangle,25.33337402,18.66665649,1,0,0,25.33337402,18.66665649,1,0,0,0,97,97,82,1,,,,,,,,
,,,,,,,,,,,,,FF,,,,,,,,0.9851,,,,,,,,,,,,,,,,,,,,,,60ff8dab5974afca9c2c6816,610367d4a53d4131b64c85df,2021-07-29_20h46.25.808,Simcolourproject_2stim_asymm_v5,2020.2.10,Win32,60,61025ae37ef11b136ea224fe,,,,,,,,,2531,45.33337402,-59.33337402,1,0,0,response3disk,,4,12,-4.666687012,1,0,0,rectangle,12,-4.666687012,1,0,0,12,-4.666687012,1,0,0,0,98,98,6,1,,,,,,,,
,,,,,,,,,,,,,FF,,,,,,,,1.0853,,,,,,,,,,,,,,,,,,,,,,60ff8dab5974afca9c2c6816,610367d4a53d4131b64c85df,2021-07-29_20h46.25.808,Simcolourproject_2stim_asymm_v5,2020.2.10,Win32,60,61025ae37ef11b136ea224fe,,,,,,,,,3074,56,96,1,0,0,response1disk,,7,11.33337402,-9.333343506,1,0,0,rectangle,11.33337402,-9.333343506,1,0,0,11.33337402,-9.333343506,1,0,0,0,99,99,55,1,,,,,,,,
,,,,,,,,,,,,,FF,,,,,,,,0.8814,,,,,,,,,,,,,,,,,,,,,,60ff8dab5974afca9c2c6816,610367d4a53d4131b64c85df,2021-07-29_20h46.25.808,Simcolourproject_2stim_asymm_v5,2020.2.10,Win32,60,61025ae37ef11b136ea224fe,,,,,,,,,3562,-50,-84,1,0,0,response5disk,,3,22.66668701,9.333312988,1,0,0,rectangle,-114.666626,-46,1,0,0,5.333374023,0,1,0,0,0,100,100,48,1,,response5disk_3,TRUE,2,2,"[196,263,64,170,160,202,219,46,42,101,275,53,320,64,22,297,243,273,197,83]",1.5307,rectangle
,,,,,,,,,,,,,FF,,,,,,,,0.8148,,,,,,,,,,,,,,,,,,,,,,60ff8dab5974afca9c2c6816,610367d4a53d4131b64c85df,2021-07-29_20h46.25.808,Simcolourproject_2stim_asymm_v5,2020.2.10,Win32,60,61025ae37ef11b136ea224fe,,,,,,,,,4201,-77.33331299,30.66665649,1,0,0,response7disk,,1,8,-5.333343506,1,0,0,rectangle,8,-5.333343506,1,0,0,8,-5.333343506,1,0,0,0,101,101,43,1,,,,,,,,
,,,,,,,,,,,,,FF,,,,,,,,1.7031,,,,,,,,,,,,,,,,,,,,,,60ff8dab5974afca9c2c6816,610367d4a53d4131b64c85df,2021-07-29_20h46.25.808,Simcolourproject_2stim_asymm_v5,2020.2.10,Win32,60,61025ae37ef11b136ea224fe,,,,,,,,,1175,60,106.6666565,1,0,0,response1disk,,7,19.33337402,9.333312988,1,0,0,rectangle,19.33337402,9.333312988,1,0,0,19.33337402,9.333312988,1,0,0,0,102,102,72,1,,,,,,,,
,,,,,,,,,,,,,FF,,,,,,,,1.2504,,,,,,,,,,,,,,,,,,,,,,60ff8dab5974afca9c2c6816,610367d4a53d4131b64c85df,2021-07-29_20h46.25.808,Simcolourproject_2stim_asymm_v5,2020.2.10,Win32,60,61025ae37ef11b136ea224fe,,,,,,,,,2412,93.33337402,-35.33337402,1,0,0,response3disk,,5,-0.666625977,-18.66668701,1,0,0,rectangle,-0.666625977,-18.66668701,1,0,0,-0.666625977,-18.66668701,1,0,0,0,103,103,138,1,,,,,,,,
,,,,,,,,,,,,,FF,,,,,,,,0.5843,,,,,,,,,,,,,,,,,,,,,,60ff8dab5974afca9c2c6816,610367d4a53d4131b64c85df,2021-07-29_20h46.25.808,Simcolourproject_2stim_asymm_v5,2020.2.10,Win32,60,61025ae37ef11b136ea224fe,,,,,,,,,3810,-75.33331299,36,1,0,0,response7disk,,1,2.666687012,-2,1,0,0,rectangle,2.666687012,-2,1,0,0,2.666687012,-2,1,0,0,0,104,104,81,1,,,,,,,,
,,,,,,,,,,,,,FF,,,,,,,,0.5642,,,,,,,,,,,,,,,,,,,,,,60ff8dab5974afca9c2c6816,610367d4a53d4131b64c85df,2021-07-29_20h46.25.808,Simcolourproject_2stim_asymm_v5,2020.2.10,Win32,60,61025ae37ef11b136ea224fe,,,,,,,,,2756,75.33337402,-34.66668701,1,0,0,response3disk,,5,8.666687012,-8,1,0,0,rectangle,8.666687012,-8,1,0,0,8.666687012,-8,1,0,0,0,105,105,4,1,,,,,,,,
,,,,,,,,,,,,,FF,,,,,,,,1.3544,,,,,,,,,,,,,,,,,,,,,,60ff8dab5974afca9c2c6816,610367d4a53d4131b64c85df,2021-07-29_20h46.25.808,Simcolourproject_2stim_asymm_v5,2020.2.10,Win32,60,61025ae37ef11b136ea224fe,,,,,,,,,2734,-84.66662598,-40.66668701,1,0,0,response5disk,,2,20,-6,1,0,0,rectangle,20,-6,1,0,0,20,-6,1,0,0,0,106,106,29,1,,,,,,,,
,,,,,,,,,,,,,FF,,,,,,,,0.5315,,,,,,,,,,,,,,,,,,,,,,60ff8dab5974afca9c2c6816,610367d4a53d4131b64c85df,2021-07-29_20h46.25.808,Simcolourproject_2stim_asymm_v5,2020.2.10,Win32,60,61025ae37ef11b136ea224fe,,,,,,,,,2641,-28,-74.66668701,1,0,0,response5disk,,3,9.333374023,4.666656494,1,0,0,rectangle,9.333374023,4.666656494,1,0,0,9.333374023,4.666656494,1,0,0,0,107,107,17,1,,,,,,,,
,,,,,,,,,,,,,FF,,,,,,,,0.6353,,,,,,,,,,,,,,,,,,,,,,60ff8dab5974afca9c2c6816,610367d4a53d4131b64c85df,2021-07-29_20h46.25.808,Simcolourproject_2stim_asymm_v5,2020.2.10,Win32,60,61025ae37ef11b136ea224fe,,,,,,,,,1587,69.33337402,84.66665649,1,0,0,response1disk,,7,-1.333312988,-6.666687012,1,0,0,rectangle,-1.333312988,-6.666687012,1,0,0,-1.333312988,-6.666687012,1,0,0,0,108,108,41,1,,,,,,,,
,,,,,,,,,,,,,FF,,,,,,,,0.4849,,,,,,,,,,,,,,,,,,,,,,60ff8dab5974afca9c2c6816,610367d4a53d4131b64c85df,2021-07-29_20h46.25.808,Simcolourproject_2stim_asymm_v5,2020.2.10,Win32,60,61025ae37ef11b136ea224fe,,,,,,,,,1789,49.33337402,91.33331299,1,0,0,response1disk,,7,23.33337402,-2.666687012,1,0,0,rectangle,23.33337402,-2.666687012,1,0,0,23.33337402,-2.666687012,1,0,0,0,109,109,33,1,,,,,,,,
,,,,,,,,,,,,,FF,,,,,,,,0.7181,,,,,,,,,,,,,,,,,,,,,,60ff8dab5974afca9c2c6816,610367d4a53d4131b64c85df,2021-07-29_20h46.25.808,Simcolourproject_2stim_asymm_v5,2020.2.10,Win32,60,61025ae37ef11b136ea224fe,,,,,,,,,1614,-74,-60,1,0,0,response5disk,,2,25.33337402,-6.666687012,1,0,0,rectangle,25.33337402,-6.666687012,1,0,0,25.33337402,-6.666687012,1,0,0,0,110,110,105,1,,,,,,,,
,,,,,,,,,,,,,FF,,,,,,,,1.4863,,,,,,,,,,,,,,,,,,,,,,60ff8dab5974afca9c2c6816,610367d4a53d4131b64c85df,2021-07-29_20h46.25.808,Simcolourproject_2stim_asymm_v5,2020.2.10,Win32,60,61025ae37ef11b136ea224fe,,,,,,,,,1868,24.66668701,78.66665649,1,0,0,response1disk,,7,17.33337402,-2.666687012,1,0,0,rectangle,17.33337402,-2.666687012,1,0,0,17.33337402,-2.666687012,1,0,0,0,111,111,86,1,,,,,,,,
,,,,,,,,,,,,,FF,,,,,,,,1.2134,,,,,,,,,,,,,,,,,,,,,,60ff8dab5974afca9c2c6816,610367d4a53d4131b64c85df,2021-07-29_20h46.25.808,Simcolourproject_2stim_asymm_v5,2020.2.10,Win32,60,61025ae37ef11b136ea224fe,,,,,,,,,3444,25.33337402,90,1,0,0,response1disk,,7,23.33337402,11.33331299,1,0,0,rectangle,23.33337402,11.33331299,1,0,0,23.33337402,11.33331299,1,0,0,0,112,112,109,1,,,,,,,,
,,,,,,,,,,,,,FF,,,,,,,,0.8352,,,,,,,,,,,,,,,,,,,,,,60ff8dab5974afca9c2c6816,610367d4a53d4131b64c85df,2021-07-29_20h46.25.808,Simcolourproject_2stim_asymm_v5,2020.2.10,Win32,60,61025ae37ef11b136ea224fe,,,,,,,,,3937,-92.66662598,-46,1,0,0,response5disk,,2,-10,1.333312988,1,0,0,rectangle,-10,1.333312988,1,0,0,-10,1.333312988,1,0,0,0,113,113,90,1,,,,,,,,
,,,,,,,,,,,,,FF,,,,,,,,0.6474,,,,,,,,,,,,,,,,,,,,,,60ff8dab5974afca9c2c6816,610367d4a53d4131b64c85df,2021-07-29_20h46.25.808,Simcolourproject_2stim_asymm_v5,2020.2.10,Win32,60,61025ae37ef11b136ea224fe,,,,,,,,,945,45.33337402,88.66665649,1,0,0,response1disk,,7,25.33337402,2,1,0,0,rectangle,25.33337402,2,1,0,0,25.33337402,2,1,0,0,0,114,114,78,1,,,,,,,,
,,,,,,,,,,,,,FF,,,,,,,,0.822,,,,,,,,,,,,,,,,,,,,,,60ff8dab5974afca9c2c6816,610367d4a53d4131b64c85df,2021-07-29_20h46.25.808,Simcolourproject_2stim_asymm_v5,2020.2.10,Win32,60,61025ae37ef11b136ea224fe,,,,,,,,,1292,-47.33331299,-82,1,0,0,response5disk,,3,24,-1.333343506,1,0,0,rectangle,24,-1.333343506,1,0,0,24,-1.333343506,1,0,0,0,115,115,121,1,,,,,,,,
,,,,,,,,,,,,,FF,,,,,,,,1.0681,,,,,,,,,,,,,,,,,,,,,,60ff8dab5974afca9c2c6816,610367d4a53d4131b64c85df,2021-07-29_20h46.25.808,Simcolourproject_2stim_asymm_v5,2020.2.10,Win32,60,61025ae37ef11b136ea224fe,,,,,,,,,3110,48,-69.33337402,1,0,0,response3disk,,4,18,0.666656494,1,0,0,rectangle,18,0.666656494,1,0,0,18,0.666656494,1,0,0,0,116,116,120,1,,,,,,,,
,,,,,,,,,,,,,FF,,,,,,,,0.8857,,,,,,,,,,,,,,,,,,,,,,60ff8dab5974afca9c2c6816,610367d4a53d4131b64c85df,2021-07-29_20h46.25.808,Simcolourproject_2stim_asymm_v5,2020.2.10,Win32,60,61025ae37ef11b136ea224fe,,,,,,,,,832,91.33337402,-40.66668701,1,0,0,response3disk,,5,23.33337402,-10.66668701,1,0,0,rectangle,23.33337402,-10.66668701,1,0,0,23.33337402,-10.66668701,1,0,0,0,117,117,137,1,,,,,,,,
,,,,,,,,,,,,,FF,,,,,,,,1.0893,,,,,,,,,,,,,,,,,,,,,,60ff8dab5974afca9c2c6816,610367d4a53d4131b64c85df,2021-07-29_20h46.25.808,Simcolourproject_2stim_asymm_v5,2020.2.10,Win32,60,61025ae37ef11b136ea224fe,,,,,,,,,2079,100,48.66665649,1,0,0,response1disk,,6,-6.666625977,2,1,0,0,rectangle,-6.666625977,2,1,0,0,-6.666625977,2,1,0,0,0,118,118,18,1,,,,,,,,
,,,,,,,,,,,,,FF,,,,,,,,0.5873,,,,,,,,,,,,,,,,,,,,,,60ff8dab5974afca9c2c6816,610367d4a53d4131b64c85df,2021-07-29_20h46.25.808,Simcolourproject_2stim_asymm_v5,2020.2.10,Win32,60,61025ae37ef11b136ea224fe,,,,,,,,,1936,29.33337402,75.33331299,1,0,0,response1disk,,7,28.66668701,8,1,0,0,rectangle,28.66668701,8,1,0,0,28.66668701,8,1,0,0,0,119,119,66,1,,,,,,,,
,,,,,,,,,,,,,FF,,,,,,,,1.536,,,,,,,,,,,,,,,,,,,,,,60ff8dab5974afca9c2c6816,610367d4a53d4131b64c85df,2021-07-29_20h46.25.808,Simcolourproject_2stim_asymm_v5,2020.2.10,Win32,60,61025ae37ef11b136ea224fe,,,,,,,,,400,46.66668701,-68,1,0,0,response3disk,,4,24.66668701,-12,1,0,0,rectangle,24.66668701,-12,1,0,0,24.66668701,-12,1,0,0,0,120,120,98,1,,,,,,,,
,,,,,,,,,,,,,FF,,,,,,,,0.7523,,,,,,,,,,,,,,,,,,,,,,60ff8dab5974afca9c2c6816,610367d4a53d4131b64c85df,2021-07-29_20h46.25.808,Simcolourproject_2stim_asymm_v5,2020.2.10,Win32,60,61025ae37ef11b136ea224fe,,,,,,,,,2199,45.33337402,92,1,0,0,response1disk,,7,22,-10.66668701,1,0,0,rectangle,22,-10.66668701,1,0,0,22,-10.66668701,1,0,0,0,121,121,93,1,,,,,,,,
,,,,,,,,,,,,,FF,,,,,,,,0.8977,,,,,,,,,,,,,,,,,,,,,,60ff8dab5974afca9c2c6816,610367d4a53d4131b64c85df,2021-07-29_20h46.25.808,Simcolourproject_2stim_asymm_v5,2020.2.10,Win32,60,61025ae37ef11b136ea224fe,,,,,,,,,3378,-63.33331299,37.33331299,1,0,0,response7disk,,1,-0.666625977,2,1,0,0,rectangle,-0.666625977,2,1,0,0,-0.666625977,2,1,0,0,0,122,122,151,1,,,,,,,,
,,,,,,,,,,,,,FF,,,,,,,,1.2057,,,,,,,,,,,,,,,,,,,,,,60ff8dab5974afca9c2c6816,610367d4a53d4131b64c85df,2021-07-29_20h46.25.808,Simcolourproject_2stim_asymm_v5,2020.2.10,Win32,60,61025ae37ef11b136ea224fe,,,,,,,,,4096,-32.66662598,-90.66668701,1,0,0,response5disk,,3,29.33337402,-13.33334351,1,0,0,rectangle,29.33337402,-13.33334351,1,0,0,29.33337402,-13.33334351,1,0,0,0,123,123,115,1,,,,,,,,
,,,,,,,,,,,,,FF,,,,,,,,0.9381,,,,,,,,,,,,,,,,,,,,,,60ff8dab5974afca9c2c6816,610367d4a53d4131b64c85df,2021-07-29_20h46.25.808,Simcolourproject_2stim_asymm_v5,2020.2.10,Win32,60,61025ae37ef11b136ea224fe,,,,,,,,,38,33.33337402,91.33331299,1,0,0,response1disk,,7,4,-11.33334351,1,0,0,rectangle,4,-11.33334351,1,0,0,4,-11.33334351,1,0,0,0,124,124,134,1,,,,,,,,
,,,,,,,,,,,,,FF,,,,,,,,1.2726,,,,,,,,,,,,,,,,,,,,,,60ff8dab5974afca9c2c6816,610367d4a53d4131b64c85df,2021-07-29_20h46.25.808,Simcolourproject_2stim_asymm_v5,2020.2.10,Win32,60,61025ae37ef11b136ea224fe,,,,,,,,,2115,71.33337402,-34,1,0,0,response3disk,,5,20,-8,1,0,0,rectangle,20,-8,1,0,0,20,-8,1,0,0,0,125,125,3,1,,,,,,,,
,,,,,,,,,,,,,FF,,,,,,,,0.8845,,,,,,,,,,,,,,,,,,,,,,60ff8dab5974afca9c2c6816,610367d4a53d4131b64c85df,2021-07-29_20h46.25.808,Simcolourproject_2stim_asymm_v5,2020.2.10,Win32,60,61025ae37ef11b136ea224fe,,,,,,,,,3719,-107.333313,-35.33337402,1,0,0,response5disk,,2,23.33337402,11.33331299,1,0,0,rectangle,23.33337402,11.33331299,1,0,0,23.33337402,11.33331299,1,0,0,0,126,126,83,1,,,,,,,,
,,,,,,,,,,,,,FF,,,,,,,,0.8359,,,,,,,,,,,,,,,,,,,,,,60ff8dab5974afca9c2c6816,610367d4a53d4131b64c85df,2021-07-29_20h46.25.808,Simcolourproject_2stim_asymm_v5,2020.2.10,Win32,60,61025ae37ef11b136ea224fe,,,,,,,,,106,-48.66662598,-84.66668701,1,0,0,response5disk,,3,24,5.333312988,1,0,0,rectangle,24,5.333312988,1,0,0,24,5.333312988,1,0,0,0,127,127,94,1,,,,,,,,
,,,,,,,,,,,,,FF,,,,,,,,0.7365,,,,,,,,,,,,,,,,,,,,,,60ff8dab5974afca9c2c6816,610367d4a53d4131b64c85df,2021-07-29_20h46.25.808,Simcolourproject_2stim_asymm_v5,2020.2.10,Win32,60,61025ae37ef11b136ea224fe,,,,,,,,,3223,21.33337402,80,1,0,0,response1disk,,7,8,5.333312988,1,0,0,rectangle,8,5.333312988,1,0,0,8,5.333312988,1,0,0,0,128,128,50,1,,,,,,,,
,,,,,,,,,,,,,FF,,,,,,,,2.7904,,,,,,,,,,,,,,,,,,,,,,60ff8dab5974afca9c2c6816,610367d4a53d4131b64c85df,2021-07-29_20h46.25.808,Simcolourproject_2stim_asymm_v5,2020.2.10,Win32,60,61025ae37ef11b136ea224fe,,,,,,,,,643,50,96.66665649,1,0,0,response1disk,,7,11.33337402,1.333312988,1,0,0,rectangle,11.33337402,1.333312988,1,0,0,11.33337402,1.333312988,1,0,0,0,129,129,96,1,,,,,,,,
,,,,,,,,,,,,,FF,,,,,,,,0.7813,,,,,,,,,,,,,,,,,,,,,,60ff8dab5974afca9c2c6816,610367d4a53d4131b64c85df,2021-07-29_20h46.25.808,Simcolourproject_2stim_asymm_v5,2020.2.10,Win32,60,61025ae37ef11b136ea224fe,,,,,,,,,3151,-70.66662598,37.33331299,1,0,0,response7disk,,1,-12.66662598,-0.666687012,1,0,0,rectangle,-12.66662598,-0.666687012,1,0,0,-12.66662598,-0.666687012,1,0,0,0,130,130,133,1,,,,,,,,
,,,,,,,,,,,,,FF,,,,,,,,0.7871,,,,,,,,,,,,,,,,,,,,,,60ff8dab5974afca9c2c6816,610367d4a53d4131b64c85df,2021-07-29_20h46.25.808,Simcolourproject_2stim_asymm_v5,2020.2.10,Win32,60,61025ae37ef11b136ea224fe,,,,,,,,,908,-92.66662598,35.33331299,1,0,0,response7disk,,1,-10,-8.666687012,1,0,0,rectangle,-10,-8.666687012,1,0,0,-10,-8.666687012,1,0,0,0,131,131,141,1,,,,,,,,
,,,,,,,,,,,,,FF,,,,,,,,1.1337,,,,,,,,,,,,,,,,,,,,,,60ff8dab5974afca9c2c6816,610367d4a53d4131b64c85df,2021-07-29_20h46.25.808,Simcolourproject_2stim_asymm_v5,2020.2.10,Win32,60,61025ae37ef11b136ea224fe,,,,,,,,,1764,-79.33331299,36.66665649,1,0,0,response7disk,,1,8.666687012,-5.333343506,1,0,0,rectangle,8.666687012,-5.333343506,1,0,0,8.666687012,-5.333343506,1,0,0,0,132,132,126,1,,,,,,,,
,,,,,,,,,,,,,FF,,,,,,,,0.7844,,,,,,,,,,,,,,,,,,,,,,60ff8dab5974afca9c2c6816,610367d4a53d4131b64c85df,2021-07-29_20h46.25.808,Simcolourproject_2stim_asymm_v5,2020.2.10,Win32,60,61025ae37ef11b136ea224fe,,,,,,,,,509,49.33337402,98.66665649,1,0,0,response1disk,,7,17.33337402,13.33331299,1,0,0,rectangle,17.33337402,13.33331299,1,0,0,17.33337402,13.33331299,1,0,0,0,133,133,146,1,,,,,,,,
,,,,,,,,,,,,,FF,,,,,,,,0.9892,,,,,,,,,,,,,,,,,,,,,,60ff8dab5974afca9c2c6816,610367d4a53d4131b64c85df,2021-07-29_20h46.25.808,Simcolourproject_2stim_asymm_v5,2020.2.10,Win32,60,61025ae37ef11b136ea224fe,,,,,,,,,3915,-92,42,1,0,0,response7disk,,1,-18,-8,1,0,0,rectangle,-18,-8,1,0,0,-18,-8,1,0,0,0,134,134,144,1,,,,,,,,
,,,,,,,,,,,,,FF,,,,,,,,2.7989,,,,,,,,,,,,,,,,,,,,,,60ff8dab5974afca9c2c6816,610367d4a53d4131b64c85df,2021-07-29_20h46.25.808,Simcolourproject_2stim_asymm_v5,2020.2.10,Win32,60,61025ae37ef11b136ea224fe,,,,,,,,,3130,-65.33331299,56,1,0,0,response7disk,,1,8,6.666656494,1,0,0,rectangle,8,6.666656494,1,0,0,8,6.666656494,1,0,0,0,135,135,158,1,,,,,,,,
,,,,,,,,,,,,,FF,,,,,,,,0.9014,,,,,,,,,,,,,,,,,,,,,,60ff8dab5974afca9c2c6816,610367d4a53d4131b64c85df,2021-07-29_20h46.25.808,Simcolourproject_2stim_asymm_v5,2020.2.10,Win32,60,61025ae37ef11b136ea224fe,,,,,,,,,3196,-102,36.66665649,1,0,0,response7disk,,1,34.66668701,0.666656494,1,0,0,rectangle,34.66668701,0.666656494,1,0,0,34.66668701,0.666656494,1,0,0,0,136,136,79,1,,,,,,,,
,,,,,,,,,,,,,FF,,,,,,,,2.953,,,,,,,,,,,,,,,,,,,,,,60ff8dab5974afca9c2c6816,610367d4a53d4131b64c85df,2021-07-29_20h46.25.808,Simcolourproject_2stim_asymm_v5,2020.2.10,Win32,60,61025ae37ef11b136ea224fe,,,,,,,,,3239,-46.66662598,86,1,0,0,response7disk,,0,0,8.666656494,1,0,0,rectangle,0,8.666656494,1,0,0,0,8.666656494,1,0,0,0,137,137,145,1,,,,,,,,
,,,,,,,,,,,,,FF,,,,,,,,1.3016,,,,,,,,,,,,,,,,,,,,,,60ff8dab5974afca9c2c6816,610367d4a53d4131b64c85df,2021-07-29_20h46.25.808,Simcolourproject_2stim_asymm_v5,2020.2.10,Win32,60,61025ae37ef11b136ea224fe,,,,,,,,,3656,-48.66662598,-106.666687,1,0,0,response5disk,,3,22.66668701,2,1,0,0,rectangle,22.66668701,2,1,0,0,22.66668701,2,1,0,0,0,138,138,113,1,,,,,,,,
,,,,,,,,,,,,,FF,,,,,,,,0.8375,,,,,,,,,,,,,,,,,,,,,,60ff8dab5974afca9c2c6816,610367d4a53d4131b64c85df,2021-07-29_20h46.25.808,Simcolourproject_2stim_asymm_v5,2020.2.10,Win32,60,61025ae37ef11b136ea224fe,,,,,,,,,3118,27.33337402,-74.66668701,1,0,0,response3disk,,4,2.666687012,-14.66668701,1,0,0,rectangle,2.666687012,-14.66668701,1,0,0,2.666687012,-14.66668701,1,0,0,0,139,139,42,1,,,,,,,,
,,,,,,,,,,,,,FF,,,,,,,,0.7849,,,,,,,,,,,,,,,,,,,,,,60ff8dab5974afca9c2c6816,610367d4a53d4131b64c85df,2021-07-29_20h46.25.808,Simcolourproject_2stim_asymm_v5,2020.2.10,Win32,60,61025ae37ef11b136ea224fe,,,,,,,,,4282,-98,38,1,0,0,response7disk,,1,0.666687012,-18,1,0,0,rectangle,0.666687012,-18,1,0,0,0.666687012,-18,1,0,0,0,140,140,116,1,,,,,,,,
,,,,,,,,,,,,,FF,,,,,,,,0.6382,,,,,,,,,,,,,,,,,,,,,,60ff8dab5974afca9c2c6816,610367d4a53d4131b64c85df,2021-07-29_20h46.25.808,Simcolourproject_2stim_asymm_v5,2020.2.10,Win32,60,61025ae37ef11b136ea224fe,,,,,,,,,3107,-79.33331299,48.66665649,1,0,0,response7disk,,1,21.33337402,7.333312988,1,0,0,rectangle,21.33337402,7.333312988,1,0,0,21.33337402,7.333312988,1,0,0,0,141,141,51,1,,,,,,,,
,,,,,,,,,,,,,FF,,,,,,,,0.801,,,,,,,,,,,,,,,,,,,,,,60ff8dab5974afca9c2c6816,610367d4a53d4131b64c85df,2021-07-29_20h46.25.808,Simcolourproject_2stim_asymm_v5,2020.2.10,Win32,60,61025ae37ef11b136ea224fe,,,,,,,,,1946,-46.66662598,-87.33337402,1,0,0,response5disk,,3,4,-10,1,0,0,rectangle,4,-10,1,0,0,4,-10,1,0,0,0,142,142,62,1,,,,,,,,
,,,,,,,,,,,,,FF,,,,,,,,0.6514,,,,,,,,,,,,,,,,,,,,,,60ff8dab5974afca9c2c6816,610367d4a53d4131b64c85df,2021-07-29_20h46.25.808,Simcolourproject_2stim_asymm_v5,2020.2.10,Win32,60,61025ae37ef11b136ea224fe,,,,,,,,,83,-74.66662598,46.66665649,1,0,0,response7disk,,1,29.33337402,5.333312988,1,0,0,rectangle,29.33337402,5.333312988,1,0,0,29.33337402,5.333312988,1,0,0,0,143,143,39,1,,,,,,,,
,,,,,,,,,,,,,FF,,,,,,,,0.5978,,,,,,,,,,,,,,,,,,,,,,60ff8dab5974afca9c2c6816,610367d4a53d4131b64c85df,2021-07-29_20h46.25.808,Simcolourproject_2stim_asymm_v5,2020.2.10,Win32,60,61025ae37ef11b136ea224fe,,,,,,,,,1091,71.33337402,-35.33337402,1,0,0,response3disk,,5,-0.666625977,7.333312988,1,0,0,rectangle,-0.666625977,7.333312988,1,0,0,-0.666625977,7.333312988,1,0,0,0,144,144,76,1,,,,,,,,
,,,,,,,,,,,,,FF,,,,,,,,1.1645,,,,,,,,,,,,,,,,,,,,,,60ff8dab5974afca9c2c6816,610367d4a53d4131b64c85df,2021-07-29_20h46.25.808,Simcolourproject_2stim_asymm_v5,2020.2.10,Win32,60,61025ae37ef11b136ea224fe,,,,,,,,,3266,60,-32.66668701,1,0,0,response3disk,,5,4.666687012,9.333312988,1,0,0,rectangle,4.666687012,9.333312988,1,0,0,4.666687012,9.333312988,1,0,0,0,145,145,37,1,,,,,,,,
,,,,,,,,,,,,,FF,,,,,,,,1.5156,,,,,,,,,,,,,,,,,,,,,,60ff8dab5974afca9c2c6816,610367d4a53d4131b64c85df,2021-07-29_20h46.25.808,Simcolourproject_2stim_asymm_v5,2020.2.10,Win32,60,61025ae37ef11b136ea224fe,,,,,,,,,2080,38.66668701,106,1,0,0,response1disk,,7,8.666687012,-5.333343506,1,0,0,rectangle,8.666687012,-5.333343506,1,0,0,8.666687012,-5.333343506,1,0,0,0,146,146,1,1,,,,,,,,
,,,,,,,,,,,,,FF,,,,,,,,1.5688,,,,,,,,,,,,,,,,,,,,,,60ff8dab5974afca9c2c6816,610367d4a53d4131b64c85df,2021-07-29_20h46.25.808,Simcolourproject_2stim_asymm_v5,2020.2.10,Win32,60,61025ae37ef11b136ea224fe,,,,,,,,,1594,29.33337402,-80,1,0,0,response3disk,,4,22,-2.666687012,1,0,0,rectangle,22,-2.666687012,1,0,0,22,-2.666687012,1,0,0,0,147,147,14,1,,,,,,,,
,,,,,,,,,,,,,FF,,,,,,,,1.2227,,,,,,,,,,,,,,,,,,,,,,60ff8dab5974afca9c2c6816,610367d4a53d4131b64c85df,2021-07-29_20h46.25.808,Simcolourproject_2stim_asymm_v5,2020.2.10,Win32,60,61025ae37ef11b136ea224fe,,,,,,,,,3331,-80,48.66665649,1,0,0,response7disk,,1,-12.66662598,12,1,0,0,rectangle,-12.66662598,12,1,0,0,-12.66662598,12,1,0,0,0,148,148,56,1,,,,,,,,
,,,,,,,,,,,,,FF,,,,,,,,0.7224,,,,,,,,,,,,,,,,,,,,,,60ff8dab5974afca9c2c6816,610367d4a53d4131b64c85df,2021-07-29_20h46.25.808,Simcolourproject_2stim_asymm_v5,2020.2.10,Win32,60,61025ae37ef11b136ea224fe,,,,,,,,,3683,-84,-40.66668701,1,0,0,response5disk,,2,4.666687012,3.333312988,1,0,0,rectangle,4.666687012,3.333312988,1,0,0,4.666687012,3.333312988,1,0,0,0,149,149,73,1,,,,,,,,
,,,,,,,,,,,,,FF,,,,,,,,0.6832,,,,,,,,,,,,,,,,,,,,,,60ff8dab5974afca9c2c6816,610367d4a53d4131b64c85df,2021-07-29_20h46.25.808,Simcolourproject_2stim_asymm_v5,2020.2.10,Win32,60,61025ae37ef11b136ea224fe,,,,,,,,,2999,-90,43.33331299,1,0,0,response7disk,,1,11.33337402,-2.666687012,1,0,0,rectangle,11.33337402,-2.666687012,1,0,0,11.33337402,-2.666687012,1,0,0,0,150,150,38,1,,,,,,,,
,,,,,,,,,,,,,FF,,,,,,,,0.6171,,,,,,,,,,,,,,,,,,,,,,60ff8dab5974afca9c2c6816,610367d4a53d4131b64c85df,2021-07-29_20h46.25.808,Simcolourproject_2stim_asymm_v5,2020.2.10,Win32,60,61025ae37ef11b136ea224fe,,,,,,,,,3860,-44.66662598,-98.66668701,1,0,0,response5disk,,3,20.66668701,5.333312988,1,0,0,rectangle,20.66668701,5.333312988,1,0,0,20.66668701,5.333312988,1,0,0,0,151,151,159,1,,,,,,,,
,,,,,,,,,,,,,FF,,,,,,,,0.7995,,,,,,,,,,,,,,,,,,,,,,60ff8dab5974afca9c2c6816,610367d4a53d4131b64c85df,2021-07-29_20h46.25.808,Simcolourproject_2stim_asymm_v5,2020.2.10,Win32,60,61025ae37ef11b136ea224fe,,,,,,,,,1420,38,-80.66668701,1,0,0,response3disk,,4,22,10,1,0,0,rectangle,22,10,1,0,0,22,10,1,0,0,0,152,152,157,1,,,,,,,,
,,,,,,,,,,,,,FF,,,,,,,,0.885,,,,,,,,,,,,,,,,,,,,,,60ff8dab5974afca9c2c6816,610367d4a53d4131b64c85df,2021-07-29_20h46.25.808,Simcolourproject_2stim_asymm_v5,2020.2.10,Win32,60,61025ae37ef11b136ea224fe,,,,,,,,,867,91.33337402,-47.33337402,1,0,0,response3disk,,5,2.666687012,14.66665649,1,0,0,rectangle,2.666687012,14.66665649,1,0,0,2.666687012,14.66665649,1,0,0,0,153,153,30,1,,,,,,,,
,,,,,,,,,,,,,FF,,,,,,,,0.7549,,,,,,,,,,,,,,,,,,,,,,60ff8dab5974afca9c2c6816,610367d4a53d4131b64c85df,2021-07-29_20h46.25.808,Simcolourproject_2stim_asymm_v5,2020.2.10,Win32,60,61025ae37ef11b136ea224fe,,,,,,,,,4052,-80.66662598,45.33331299,1,0,0,response7disk,,1,-1.333312988,-5.333343506,1,0,0,rectangle,-1.333312988,-5.333343506,1,0,0,-1.333312988,-5.333343506,1,0,0,0,154,154,49,1,,,,,,,,
,,,,,,,,,,,,,FF,,,,,,,,0.6505,,,,,,,,,,,,,,,,,,,,,,60ff8dab5974afca9c2c6816,610367d4a53d4131b64c85df,2021-07-29_20h46.25.808,Simcolourproject_2stim_asymm_v5,2020.2.10,Win32,60,61025ae37ef11b136ea224fe,,,,,,,,,1479,21.33337402,-60,1,0,0,response3disk,,4,16,-4.666687012,1,0,0,rectangle,16,-4.666687012,1,0,0,16,-4.666687012,1,0,0,0,155,155,125,1,,,,,,,,
,,,,,,,,,,,,,FF,,,,,,,,0.572,,,,,,,,,,,,,,,,,,,,,,60ff8dab5974afca9c2c6816,610367d4a53d4131b64c85df,2021-07-29_20h46.25.808,Simcolourproject_2stim_asymm_v5,2020.2.10,Win32,60,61025ae37ef11b136ea224fe,,,,,,,,,3182,48,104.6666565,1,0,0,response1disk,,7,22.66668701,-2.666687012,1,0,0,rectangle,22.66668701,-2.666687012,1,0,0,22.66668701,-2.666687012,1,0,0,0,156,156,13,1,,,,,,,,
,,,,,,,,,,,,,FF,,,,,,,,1.6856,,,,,,,,,,,,,,,,,,,,,,60ff8dab5974afca9c2c6816,610367d4a53d4131b64c85df,2021-07-29_20h46.25.808,Simcolourproject_2stim_asymm_v5,2020.2.10,Win32,60,61025ae37ef11b136ea224fe,,,,,,,,,1502,32.66668701,-83.33337402,1,0,0,response3disk,,4,12.66668701,-5.333343506,1,0,0,rectangle,12.66668701,-5.333343506,1,0,0,12.66668701,-5.333343506,1,0,0,0,157,157,154,1,,,,,,,,
,,,,,,,,,,,,,FF,,,,,,,,0.8806,,,,,,,,,,,,,,,,,,,,,,60ff8dab5974afca9c2c6816,610367d4a53d4131b64c85df,2021-07-29_20h46.25.808,Simcolourproject_2stim_asymm_v5,2020.2.10,Win32,60,61025ae37ef11b136ea224fe,,,,,,,,,1942,-44.66662598,-109.333374,1,0,0,response5disk,,3,-1.333312988,-10.66668701,1,0,0,rectangle,-1.333312988,-10.66668701,1,0,0,-1.333312988,-10.66668701,1,0,0,0,158,158,57,1,,,,,,,,
,,,,,,,,,,,,,FF,,,,,,,,0.7005,,,,,,,,,,,,,,,,,,,,,,60ff8dab5974afca9c2c6816,610367d4a53d4131b64c85df,2021-07-29_20h46.25.808,Simcolourproject_2stim_asymm_v5,2020.2.10,Win32,60,61025ae37ef11b136ea224fe,,,,,,,,,2475,-63.33331299,38,1,0,0,response7disk,,1,-4,2.666656494,1,0,0,rectangle,-29.33331299,106.6666565,1,0,0,-3.333312988,10,1,0,0,0,159,159,92,1,,response7disk_3,TRUE,0,0,"[196,263,64,170,160,202,219,46,42,101,275,53,320,64,22,297,243,273,197,83]",1.5803,rectangle
,,,,,,,,,,,,,FF,,,,,,,,1.4558,,,,,,,,,,,,,,,,,,,,,,60ff8dab5974afca9c2c6816,610367d4a53d4131b64c85df,2021-07-29_20h46.25.808,Simcolourproject_2stim_asymm_v5,2020.2.10,Win32,60,61025ae37ef11b136ea224fe,,,,,,,,,3254,-76,-54,1,0,0,response5disk,,2,7.333374023,-1.333343506,1,0,0,rectangle,7.333374023,-1.333343506,1,0,0,7.333374023,-1.333343506,1,0,0,1,0,160,127,1,,,,,,,,
,,,,,,,,,,,,,FF,,,,,,,,0.5383,,,,,,,,,,,,,,,,,,,,,,60ff8dab5974afca9c2c6816,610367d4a53d4131b64c85df,2021-07-29_20h46.25.808,Simcolourproject_2stim_asymm_v5,2020.2.10,Win32,60,61025ae37ef11b136ea224fe,,,,,,,,,12,-48,-84,1,0,0,response5disk,,3,21.33337402,-3.333343506,1,0,0,rectangle,21.33337402,-3.333343506,1,0,0,21.33337402,-3.333343506,1,0,0,1,1,161,136,1,,,,,,,,
,,,,,,,,,,,,,FF,,,,,,,,0.6005,,,,,,,,,,,,,,,,,,,,,,60ff8dab5974afca9c2c6816,610367d4a53d4131b64c85df,2021-07-29_20h46.25.808,Simcolourproject_2stim_asymm_v5,2020.2.10,Win32,60,61025ae37ef11b136ea224fe,,,,,,,,,1282,44,77.33331299,1,0,0,response1disk,,7,22.66668701,0.666656494,1,0,0,rectangle,22.66668701,0.666656494,1,0,0,22.66668701,0.666656494,1,0,0,1,2,162,90,1,,,,,,,,
,,,,,,,,,,,,,FF,,,,,,,,1.1017,,,,,,,,,,,,,,,,,,,,,,60ff8dab5974afca9c2c6816,610367d4a53d4131b64c85df,2021-07-29_20h46.25.808,Simcolourproject_2stim_asymm_v5,2020.2.10,Win32,60,61025ae37ef11b136ea224fe,,,,,,,,,940,46,94,1,0,0,response1disk,,7,9.333374023,4.666656494,1,0,0,rectangle,9.333374023,4.666656494,1,0,0,9.333374023,4.666656494,1,0,0,1,3,163,52,1,,,,,,,,
,,,,,,,,,,,,,FF,,,,,,,,1.0195,,,,,,,,,,,,,,,,,,,,,,60ff8dab5974afca9c2c6816,610367d4a53d4131b64c85df,2021-07-29_20h46.25.808,Simcolourproject_2stim_asymm_v5,2020.2.10,Win32,60,61025ae37ef11b136ea224fe,,,,,,,,,3881,-44,-108,1,0,0,response5disk,,3,23.33337402,-3.333343506,1,0,0,rectangle,23.33337402,-3.333343506,1,0,0,23.33337402,-3.333343506,1,0,0,1,4,164,15,1,,,,,,,,
,,,,,,,,,,,,,FF,,,,,,,,0.5848,,,,,,,,,,,,,,,,,,,,,,60ff8dab5974afca9c2c6816,610367d4a53d4131b64c85df,2021-07-29_20h46.25.808,Simcolourproject_2stim_asymm_v5,2020.2.10,Win32,60,61025ae37ef11b136ea224fe,,,,,,,,,1761,-32.66662598,-83.33337402,1,0,0,response5disk,,3,8.666687012,2.666656494,1,0,0,rectangle,8.666687012,2.666656494,1,0,0,8.666687012,2.666656494,1,0,0,1,5,165,81,1,,,,,,,,
,,,,,,,,,,,,,FF,,,,,,,,0.4168,,,,,,,,,,,,,,,,,,,,,,60ff8dab5974afca9c2c6816,610367d4a53d4131b64c85df,2021-07-29_20h46.25.808,Simcolourproject_2stim_asymm_v5,2020.2.10,Win32,60,61025ae37ef11b136ea224fe,,,,,,,,,2490,-47.33331299,-94.66668701,1,0,0,response5disk,,3,9.333374023,5.333312988,1,0,0,rectangle,9.333374023,5.333312988,1,0,0,9.333374023,5.333312988,1,0,0,1,6,166,44,1,,,,,,,,
,,,,,,,,,,,,,FF,,,,,,,,1.7692,,,,,,,,,,,,,,,,,,,,,,60ff8dab5974afca9c2c6816,610367d4a53d4131b64c85df,2021-07-29_20h46.25.808,Simcolourproject_2stim_asymm_v5,2020.2.10,Win32,60,61025ae37ef11b136ea224fe,,,,,,,,,3060,23.33337402,-82,1,0,0,response3disk,,4,-2.666625977,-2.666687012,1,0,0,rectangle,-2.666625977,-2.666687012,1,0,0,-2.666625977,-2.666687012,1,0,0,1,7,167,43,1,,,,,,,,
,,,,,,,,,,,,,FF,,,,,,,,1.0644,,,,,,,,,,,,,,,,,,,,,,60ff8dab5974afca9c2c6816,610367d4a53d4131b64c85df,2021-07-29_20h46.25.808,Simcolourproject_2stim_asymm_v5,2020.2.10,Win32,60,61025ae37ef11b136ea224fe,,,,,,,,,1076,75.33337402,-31.33334351,1,0,0,response3disk,,5,24.66668701,10.66665649,1,0,0,rectangle,24.66668701,10.66665649,1,0,0,24.66668701,10.66665649,1,0,0,1,8,168,70,1,,,,,,,,
,,,,,,,,,,,,,FF,,,,,,,,1.0341,,,,,,,,,,,,,,,,,,,,,,60ff8dab5974afca9c2c6816,610367d4a53d4131b64c85df,2021-07-29_20h46.25.808,Simcolourproject_2stim_asymm_v5,2020.2.10,Win32,60,61025ae37ef11b136ea224fe,,,,,,,,,419,72.66668701,-36.66668701,1,0,0,response3disk,,5,8,7.333312988,1,0,0,rectangle,-48.66662598,-96,1,0,0,-6.666625977,-0.666687012,1,0,0,1,9,169,53,1,,response5disk_3,TRUE,3,3,"[196,263,64,170,160,202,219,46,42,101,275,53,320,64,22,297,243,273,197,83]",1.7466,rectangle
,,,,,,,,,,,,,FF,,,,,,,,3.6524,,,,,,,,,,,,,,,,,,,,,,60ff8dab5974afca9c2c6816,610367d4a53d4131b64c85df,2021-07-29_20h46.25.808,Simcolourproject_2stim_asymm_v5,2020.2.10,Win32,60,61025ae37ef11b136ea224fe,,,,,,,,,3864,46.66668701,-82.66668701,1,0,0,response3disk,,4,4.666687012,-15.33334351,1,0,0,rectangle,4.666687012,-15.33334351,1,0,0,4.666687012,-15.33334351,1,0,0,1,10,170,21,1,,,,,,,,
,,,,,,,,,,,,,FF,,,,,,,,0.989,,,,,,,,,,,,,,,,,,,,,,60ff8dab5974afca9c2c6816,610367d4a53d4131b64c85df,2021-07-29_20h46.25.808,Simcolourproject_2stim_asymm_v5,2020.2.10,Win32,60,61025ae37ef11b136ea224fe,,,,,,,,,777,68,-42,1,0,0,response3disk,,5,6.666687012,10,1,0,0,rectangle,6.666687012,10,1,0,0,6.666687012,10,1,0,0,1,11,171,42,1,,,,,,,,
,,,,,,,,,,,,,FF,,,,,,,,1.0837,,,,,,,,,,,,,,,,,,,,,,60ff8dab5974afca9c2c6816,610367d4a53d4131b64c85df,2021-07-29_20h46.25.808,Simcolourproject_2stim_asymm_v5,2020.2.10,Win32,60,61025ae37ef11b136ea224fe,,,,,,,,,1601,-96,49.33331299,1,0,0,response7disk,,1,-2,-8.666687012,1,0,0,rectangle,-2,-8.666687012,1,0,0,-2,-8.666687012,1,0,0,1,12,172,157,1,,,,,,,,
,,,,,,,,,,,,,FF,,,,,,,,0.8389,,,,,,,,,,,,,,,,,,,,,,60ff8dab5974afca9c2c6816,610367d4a53d4131b64c85df,2021-07-29_20h46.25.808,Simcolourproject_2stim_asymm_v5,2020.2.10,Win32,60,61025ae37ef11b136ea224fe,,,,,,,,,785,-91.33331299,59.33331299,1,0,0,response7disk,,1,-21.33331299,9.333312988,1,0,0,rectangle,-21.33331299,9.333312988,1,0,0,-21.33331299,9.333312988,1,0,0,1,13,173,76,1,,,,,,,,
,,,,,,,,,,,,,FF,,,,,,,,0.7316,,,,,,,,,,,,,,,,,,,,,,60ff8dab5974afca9c2c6816,610367d4a53d4131b64c85df,2021-07-29_20h46.25.808,Simcolourproject_2stim_asymm_v5,2020.2.10,Win32,60,61025ae37ef11b136ea224fe,,,,,,,,,3943,-93.33331299,-57.33337402,1,0,0,response5disk,,2,0,2,1,0,0,rectangle,0,2,1,0,0,0,2,1,0,0,1,14,174,26,1,,,,,,,,
,,,,,,,,,,,,,FF,,,,,,,,0.7678,,,,,,,,,,,,,,,,,,,,,,60ff8dab5974afca9c2c6816,610367d4a53d4131b64c85df,2021-07-29_20h46.25.808,Simcolourproject_2stim_asymm_v5,2020.2.10,Win32,60,61025ae37ef11b136ea224fe,,,,,,,,,2557,-26,-92.66668701,1,0,0,response5disk,,3,22,11.33331299,1,0,0,rectangle,22,11.33331299,1,0,0,22,11.33331299,1,0,0,1,15,175,56,1,,,,,,,,
,,,,,,,,,,,,,FF,,,,,,,,0.504,,,,,,,,,,,,,,,,,,,,,,60ff8dab5974afca9c2c6816,610367d4a53d4131b64c85df,2021-07-29_20h46.25.808,Simcolourproject_2stim_asymm_v5,2020.2.10,Win32,60,61025ae37ef11b136ea224fe,,,,,,,,,2823,46,98.66665649,1,0,0,response1disk,,7,12,-0.666687012,1,0,0,rectangle,12,-0.666687012,1,0,0,12,-0.666687012,1,0,0,1,16,176,124,1,,,,,,,,
,,,,,,,,,,,,,FF,,,,,,,,0.5056,,,,,,,,,,,,,,,,,,,,,,60ff8dab5974afca9c2c6816,610367d4a53d4131b64c85df,2021-07-29_20h46.25.808,Simcolourproject_2stim_asymm_v5,2020.2.10,Win32,60,61025ae37ef11b136ea224fe,,,,,,,,,304,90,-30,1,0,0,response3disk,,5,10,-8,1,0,0,rectangle,10,-8,1,0,0,10,-8,1,0,0,1,17,177,102,1,,,,,,,,
,,,,,,,,,,,,,FF,,,,,,,,0.4848,,,,,,,,,,,,,,,,,,,,,,60ff8dab5974afca9c2c6816,610367d4a53d4131b64c85df,2021-07-29_20h46.25.808,Simcolourproject_2stim_asymm_v5,2020.2.10,Win32,60,61025ae37ef11b136ea224fe,,,,,,,,,873,50,-34.66668701,1,0,0,response3disk,,5,16,-0.666687012,1,0,0,rectangle,16,-0.666687012,1,0,0,16,-0.666687012,1,0,0,1,18,178,82,1,,,,,,,,
,,,,,,,,,,,,,FF,,,,,,,,2.472,,,,,,,,,,,,,,,,,,,,,,60ff8dab5974afca9c2c6816,610367d4a53d4131b64c85df,2021-07-29_20h46.25.808,Simcolourproject_2stim_asymm_v5,2020.2.10,Win32,60,61025ae37ef11b136ea224fe,,,,,,,,,1515,56,-57.33337402,1,0,0,response3disk,,4,8.666687012,9.333312988,1,0,0,rectangle,8.666687012,9.333312988,1,0,0,8.666687012,9.333312988,1,0,0,1,19,179,95,1,,,,,,,,
,,,,,,,,,,,,,FF,,,,,,,,0.9168,,,,,,,,,,,,,,,,,,,,,,60ff8dab5974afca9c2c6816,610367d4a53d4131b64c85df,2021-07-29_20h46.25.808,Simcolourproject_2stim_asymm_v5,2020.2.10,Win32,60,61025ae37ef11b136ea224fe,,,,,,,,,327,73.33337402,-34,1,0,0,response3disk,,5,12,-8,1,0,0,rectangle,12,-8,1,0,0,12,-8,1,0,0,1,20,180,138,1,,,,,,,,
,,,,,,,,,,,,,FF,,,,,,,,0.7216,,,,,,,,,,,,,,,,,,,,,,60ff8dab5974afca9c2c6816,610367d4a53d4131b64c85df,2021-07-29_20h46.25.808,Simcolourproject_2stim_asymm_v5,2020.2.10,Win32,60,61025ae37ef11b136ea224fe,,,,,,,,,2812,47.33337402,-18.66668701,1,0,0,response3disk,,5,6,7.333312988,1,0,0,rectangle,6,7.333312988,1,0,0,6,7.333312988,1,0,0,1,21,181,8,1,,,,,,,,
,,,,,,,,,,,,,FF,,,,,,,,0.7669,,,,,,,,,,,,,,,,,,,,,,60ff8dab5974afca9c2c6816,610367d4a53d4131b64c85df,2021-07-29_20h46.25.808,Simcolourproject_2stim_asymm_v5,2020.2.10,Win32,60,61025ae37ef11b136ea224fe,,,,,,,,,3160,24.66668701,-82,1,0,0,response3disk,,4,9.333374023,-7.333343506,1,0,0,rectangle,9.333374023,-7.333343506,1,0,0,9.333374023,-7.333343506,1,0,0,1,22,182,67,1,,,,,,,,
,,,,,,,,,,,,,FF,,,,,,,,0.9021,,,,,,,,,,,,,,,,,,,,,,60ff8dab5974afca9c2c6816,610367d4a53d4131b64c85df,2021-07-29_20h46.25.808,Simcolourproject_2stim_asymm_v5,2020.2.10,Win32,60,61025ae37ef11b136ea224fe,,,,,,,,,3005,-82.66662598,36,1,0,0,response7disk,,1,23.33337402,11.33331299,1,0,0,rectangle,23.33337402,11.33331299,1,0,0,23.33337402,11.33331299,1,0,0,1,23,183,60,1,,,,,,,,
,,,,,,,,,,,,,FF,,,,,,,,7.1273,,,,,,,,,,,,,,,,,,,,,,60ff8dab5974afca9c2c6816,610367d4a53d4131b64c85df,2021-07-29_20h46.25.808,Simcolourproject_2stim_asymm_v5,2020.2.10,Win32,60,61025ae37ef11b136ea224fe,,,,,,,,,3087,69.33337402,-19.33334351,1,0,0,response3disk,,5,28,-9.333343506,1,0,0,rectangle,28,-9.333343506,1,0,0,28,-9.333343506,1,0,0,1,24,184,51,1,,,,,,,,
,,,,,,,,,,,,,FF,,,,,,,,0.834,,,,,,,,,,,,,,,,,,,,,,60ff8dab5974afca9c2c6816,610367d4a53d4131b64c85df,2021-07-29_20h46.25.808,Simcolourproject_2stim_asymm_v5,2020.2.10,Win32,60,61025ae37ef11b136ea224fe,,,,,,,,,3399,-100,60,1,0,0,response7disk,,1,-16.66662598,-7.333343506,1,0,0,rectangle,-16.66662598,-7.333343506,1,0,0,-16.66662598,-7.333343506,1,0,0,1,25,185,6,1,,,,,,,,
,,,,,,,,,,,,,FF,,,,,,,,0.7512,,,,,,,,,,,,,,,,,,,,,,60ff8dab5974afca9c2c6816,610367d4a53d4131b64c85df,2021-07-29_20h46.25.808,Simcolourproject_2stim_asymm_v5,2020.2.10,Win32,60,61025ae37ef11b136ea224fe,,,,,,,,,797,93.33337402,40,1,0,0,response1disk,,6,22,6.666656494,1,0,0,rectangle,22,6.666656494,1,0,0,22,6.666656494,1,0,0,1,26,186,55,1,,,,,,,,
,,,,,,,,,,,,,FF,,,,,,,,0.6552,,,,,,,,,,,,,,,,,,,,,,60ff8dab5974afca9c2c6816,610367d4a53d4131b64c85df,2021-07-29_20h46.25.808,Simcolourproject_2stim_asymm_v5,2020.2.10,Win32,60,61025ae37ef11b136ea224fe,,,,,,,,,2098,-46.66662598,109.333313,1,0,0,response7disk,,0,7.333374023,0.666656494,1,0,0,rectangle,7.333374023,0.666656494,1,0,0,7.333374023,0.666656494,1,0,0,1,27,187,131,1,,,,,,,,
,,,,,,,,,,,,,FF,,,,,,,,9.2036,,,,,,,,,,,,,,,,,,,,,,60ff8dab5974afca9c2c6816,610367d4a53d4131b64c85df,2021-07-29_20h46.25.808,Simcolourproject_2stim_asymm_v5,2020.2.10,Win32,60,61025ae37ef11b136ea224fe,,,,,,,,,3525,-74,48.66665649,1,0,0,response7disk,,1,28.66668701,-2.666687012,1,0,0,rectangle,28.66668701,-2.666687012,1,0,0,28.66668701,-2.666687012,1,0,0,1,28,188,153,1,,,,,,,,
,,,,,,,,,,,,,FF,,,,,,,,0.7852,,,,,,,,,,,,,,,,,,,,,,60ff8dab5974afca9c2c6816,610367d4a53d4131b64c85df,2021-07-29_20h46.25.808,Simcolourproject_2stim_asymm_v5,2020.2.10,Win32,60,61025ae37ef11b136ea224fe,,,,,,,,,3695,30,71.33331299,1,0,0,response1disk,,7,1.333374023,-12.66668701,1,0,0,rectangle,1.333374023,-12.66668701,1,0,0,1.333374023,-12.66668701,1,0,0,1,29,189,39,1,,,,,,,,
,,,,,,,,,,,,,FF,,,,,,,,0.5508,,,,,,,,,,,,,,,,,,,,,,60ff8dab5974afca9c2c6816,610367d4a53d4131b64c85df,2021-07-29_20h46.25.808,Simcolourproject_2stim_asymm_v5,2020.2.10,Win32,60,61025ae37ef11b136ea224fe,,,,,,,,,1411,88.66668701,-37.33337402,1,0,0,response3disk,,5,2.666687012,4.666656494,1,0,0,rectangle,2.666687012,4.666656494,1,0,0,2.666687012,4.666656494,1,0,0,1,30,190,150,1,,,,,,,,
,,,,,,,,,,,,,FF,,,,,,,,0.7043,,,,,,,,,,,,,,,,,,,,,,60ff8dab5974afca9c2c6816,610367d4a53d4131b64c85df,2021-07-29_20h46.25.808,Simcolourproject_2stim_asymm_v5,2020.2.10,Win32,60,61025ae37ef11b136ea224fe,,,,,,,,,2770,61.33337402,93.33331299,1,0,0,response1disk,,7,6.666687012,8.666656494,1,0,0,rectangle,6.666687012,8.666656494,1,0,0,6.666687012,8.666656494,1,0,0,1,31,191,78,1,,,,,,,,
,,,,,,,,,,,,,FF,,,,,,,,1.0688,,,,,,,,,,,,,,,,,,,,,,60ff8dab5974afca9c2c6816,610367d4a53d4131b64c85df,2021-07-29_20h46.25.808,Simcolourproject_2stim_asymm_v5,2020.2.10,Win32,60,61025ae37ef11b136ea224fe,,,,,,,,,2806,74.66668701,-34.66668701,1,0,0,response3disk,,5,8,3.333312988,1,0,0,rectangle,8,3.333312988,1,0,0,8,3.333312988,1,0,0,1,32,192,72,1,,,,,,,,
,,,,,,,,,,,,,FF,,,,,,,,0.4203,,,,,,,,,,,,,,,,,,,,,,60ff8dab5974afca9c2c6816,610367d4a53d4131b64c85df,2021-07-29_20h46.25.808,Simcolourproject_2stim_asymm_v5,2020.2.10,Win32,60,61025ae37ef11b136ea224fe,,,,,,,,,660,28,-95.33337402,1,0,0,response3disk,,4,24.66668701,0,1,0,0,rectangle,24.66668701,0,1,0,0,24.66668701,0,1,0,0,1,33,193,135,1,,,,,,,,
,,,,,,,,,,,,,FF,,,,,,,,1.5364,,,,,,,,,,,,,,,,,,,,,,60ff8dab5974afca9c2c6816,610367d4a53d4131b64c85df,2021-07-29_20h46.25.808,Simcolourproject_2stim_asymm_v5,2020.2.10,Win32,60,61025ae37ef11b136ea224fe,,,,,,,,,131,85.33337402,52.66665649,1,0,0,response1disk,,6,-3.333312988,2,1,0,0,rectangle,-3.333312988,2,1,0,0,-3.333312988,2,1,0,0,1,34,194,132,1,,,,,,,,
,,,,,,,,,,,,,FF,,,,,,,,0.6508,,,,,,,,,,,,,,,,,,,,,,60ff8dab5974afca9c2c6816,610367d4a53d4131b64c85df,2021-07-29_20h46.25.808,Simcolourproject_2stim_asymm_v5,2020.2.10,Win32,60,61025ae37ef11b136ea224fe,,,,,,,,,2939,68,92.66665649,1,0,0,response1disk,,7,14,-6,1,0,0,rectangle,96,-35.33337402,1,0,0,-4,-12,1,0,0,1,35,195,1,1,,response3disk_3,TRUE,5,5,"[196,263,64,170,160,202,219,46,42,101,275,53,320,64,22,297,243,273,197,83]",1.2845,rectangle
,,,,,,,,,,,,,FF,,,,,,,,1.3393,,,,,,,,,,,,,,,,,,,,,,60ff8dab5974afca9c2c6816,610367d4a53d4131b64c85df,2021-07-29_20h46.25.808,Simcolourproject_2stim_asymm_v5,2020.2.10,Win32,60,61025ae37ef11b136ea224fe,,,,,,,,,1686,92,-44.66668701,1,0,0,response3disk,,5,22,10.66665649,1,0,0,rectangle,109.333374,58,1,0,0,18.66668701,10.66665649,1,0,0,1,36,196,128,1,,response1disk_3,TRUE,6,6,"[196,263,64,170,160,202,219,46,42,101,275,53,320,64,22,297,243,273,197,83]",1.9559,rectangle
,,,,,,,,,,,,,FF,,,,,,,,1.1352,,,,,,,,,,,,,,,,,,,,,,60ff8dab5974afca9c2c6816,610367d4a53d4131b64c85df,2021-07-29_20h46.25.808,Simcolourproject_2stim_asymm_v5,2020.2.10,Win32,60,61025ae37ef11b136ea224fe,,,,,,,,,4263,88,-38,1,0,0,response3disk,,5,8,-0.666687012,1,0,0,rectangle,8,-0.666687012,1,0,0,8,-0.666687012,1,0,0,1,37,197,61,1,,,,,,,,
,,,,,,,,,,,,,FF,,,,,,,,0.9181,,,,,,,,,,,,,,,,,,,,,,60ff8dab5974afca9c2c6816,610367d4a53d4131b64c85df,2021-07-29_20h46.25.808,Simcolourproject_2stim_asymm_v5,2020.2.10,Win32,60,61025ae37ef11b136ea224fe,,,,,,,,,2721,-76,-31.33334351,1,0,0,response5disk,,2,-2.666625977,2.666656494,1,0,0,rectangle,-2.666625977,2.666656494,1,0,0,-2.666625977,2.666656494,1,0,0,1,38,198,151,1,,,,,,,,
,,,,,,,,,,,,,FF,,,,,,,,2.5669,,,,,,,,,,,,,,,,,,,,,,60ff8dab5974afca9c2c6816,610367d4a53d4131b64c85df,2021-07-29_20h46.25.808,Simcolourproject_2stim_asymm_v5,2020.2.10,Win32,60,61025ae37ef11b136ea224fe,,,,,,,,,3647,95.33337402,46.66665649,1,0,0,response1disk,,6,30.66668701,12,1,0,0,rectangle,30.66668701,12,1,0,0,30.66668701,12,1,0,0,1,39,199,58,1,,,,,,,,
,,,,,,,,,,,,,FF,,,,,,,,1.3388,,,,,,,,,,,,,,,,,,,,,,60ff8dab5974afca9c2c6816,610367d4a53d4131b64c85df,2021-07-29_20h46.25.808,Simcolourproject_2stim_asymm_v5,2020.2.10,Win32,60,61025ae37ef11b136ea224fe,,,,,,,,,1861,100,38,1,0,0,response1disk,,6,10,-6,1,0,0,rectangle,10,-6,1,0,0,10,-6,1,0,0,1,40,200,99,1,,,,,,,,
,,,,,,,,,,,,,FF,,,,,,,,4.8375,,,,,,,,,,,,,,,,,,,,,,60ff8dab5974afca9c2c6816,610367d4a53d4131b64c85df,2021-07-29_20h46.25.808,Simcolourproject_2stim_asymm_v5,2020.2.10,Win32,60,61025ae37ef11b136ea224fe,,,,,,,,,27,92.66668701,40,1,0,0,response1disk,,6,8,-12,1,0,0,rectangle,101.333374,60.66665649,1,0,0,-0.666625977,-7.333343506,1,0,0,1,41,201,14,1,,response1disk_3,TRUE,6,6,"[196,263,64,170,160,202,219,46,42,101,275,53,320,64,22,297,243,273,197,83]",1.5501,rectangle
,,,,,,,,,,,,,FF,,,,,,,,1.3345,,,,,,,,,,,,,,,,,,,,,,60ff8dab5974afca9c2c6816,610367d4a53d4131b64c85df,2021-07-29_20h46.25.808,Simcolourproject_2stim_asymm_v5,2020.2.10,Win32,60,61025ae37ef11b136ea224fe,,,,,,,,,1838,70,-36.66668701,1,0,0,response3disk,,5,2.666687012,5.333312988,1,0,0,rectangle,2.666687012,5.333312988,1,0,0,2.666687012,5.333312988,1,0,0,1,42,202,19,1,,,,,,,,
,,,,,,,,,,,,,FF,,,,,,,,1.8381,,,,,,,,,,,,,,,,,,,,,,60ff8dab5974afca9c2c6816,610367d4a53d4131b64c85df,2021-07-29_20h46.25.808,Simcolourproject_2stim_asymm_v5,2020.2.10,Win32,60,61025ae37ef11b136ea224fe,,,,,,,,,51,93.33337402,38.66665649,1,0,0,response1disk,,6,2.666687012,6.666656494,1,0,0,rectangle,2.666687012,6.666656494,1,0,0,2.666687012,6.666656494,1,0,0,1,43,203,104,1,,,,,,,,
,,,,,,,,,,,,,FF,,,,,,,,0.9317,,,,,,,,,,,,,,,,,,,,,,60ff8dab5974afca9c2c6816,610367d4a53d4131b64c85df,2021-07-29_20h46.25.808,Simcolourproject_2stim_asymm_v5,2020.2.10,Win32,60,61025ae37ef11b136ea224fe,,,,,,,,,3355,-86.66662598,-30,1,0,0,response5disk,,2,5.333374023,-13.33334351,1,0,0,rectangle,5.333374023,-13.33334351,1,0,0,5.333374023,-13.33334351,1,0,0,1,44,204,93,1,,,,,,,,
,,,,,,,,,,,,,FF,,,,,,,,1.4881,,,,,,,,,,,,,,,,,,,,,,60ff8dab5974afca9c2c6816,610367d4a53d4131b64c85df,2021-07-29_20h46.25.808,Simcolourproject_2stim_asymm_v5,2020.2.10,Win32,60,61025ae37ef11b136ea224fe,,,,,,,,,3077,-92,-56.66668701,1,0,0,response5disk,,2,-13.33331299,5.333312988,1,0,0,rectangle,-13.33331299,5.333312988,1,0,0,-13.33331299,5.333312988,1,0,0,1,45,205,29,1,,,,,,,,
,,,,,,,,,,,,,FF,,,,,,,,0.8389,,,,,,,,,,,,,,,,,,,,,,60ff8dab5974afca9c2c6816,610367d4a53d4131b64c85df,2021-07-29_20h46.25.808,Simcolourproject_2stim_asymm_v5,2020.2.10,Win32,60,61025ae37ef11b136ea224fe,,,,,,,,,3007,-71.33331299,39.33331299,1,0,0,response7disk,,1,5.333374023,-4.666687012,1,0,0,rectangle,5.333374023,-4.666687012,1,0,0,5.333374023,-4.666687012,1,0,0,1,46,206,158,1,,,,,,,,
,,,,,,,,,,,,,FF,,,,,,,,0.603,,,,,,,,,,,,,,,,,,,,,,60ff8dab5974afca9c2c6816,610367d4a53d4131b64c85df,2021-07-29_20h46.25.808,Simcolourproject_2stim_asymm_v5,2020.2.10,Win32,60,61025ae37ef11b136ea224fe,,,,,,,,,3591,-47.33331299,82.66665649,1,0,0,response7disk,,0,26,-2.666687012,1,0,0,rectangle,26,-2.666687012,1,0,0,26,-2.666687012,1,0,0,1,47,207,156,1,,,,,,,,
,,,,,,,,,,,,,FF,,,,,,,,1.3031,,,,,,,,,,,,,,,,,,,,,,60ff8dab5974afca9c2c6816,610367d4a53d4131b64c85df,2021-07-29_20h46.25.808,Simcolourproject_2stim_asymm_v5,2020.2.10,Win32,60,61025ae37ef11b136ea224fe,,,,,,,,,4092,-48,107.333313,1,0,0,response7disk,,0,-2,4,1,0,0,rectangle,-2,4,1,0,0,-2,4,1,0,0,1,48,208,107,1,,,,,,,,
,,,,,,,,,,,,,FF,,,,,,,,0.6383,,,,,,,,,,,,,,,,,,,,,,60ff8dab5974afca9c2c6816,610367d4a53d4131b64c85df,2021-07-29_20h46.25.808,Simcolourproject_2stim_asymm_v5,2020.2.10,Win32,60,61025ae37ef11b136ea224fe,,,,,,,,,4294,-72.66662598,36,1,0,0,response7disk,,1,0.666687012,-12,1,0,0,rectangle,0.666687012,-12,1,0,0,0.666687012,-12,1,0,0,1,49,209,140,1,,,,,,,,
,,,,,,,,,,,,,FF,,,,,,,,1.0009,,,,,,,,,,,,,,,,,,,,,,60ff8dab5974afca9c2c6816,610367d4a53d4131b64c85df,2021-07-29_20h46.25.808,Simcolourproject_2stim_asymm_v5,2020.2.10,Win32,60,61025ae37ef11b136ea224fe,,,,,,,,,1914,-80.66662598,-38,1,0,0,response5disk,,2,23.33337402,10,1,0,0,rectangle,23.33337402,10,1,0,0,23.33337402,10,1,0,0,1,50,210,105,1,,,,,,,,
,,,,,,,,,,,,,FF,,,,,,,,1.6352,,,,,,,,,,,,,,,,,,,,,,60ff8dab5974afca9c2c6816,610367d4a53d4131b64c85df,2021-07-29_20h46.25.808,Simcolourproject_2stim_asymm_v5,2020.2.10,Win32,60,61025ae37ef11b136ea224fe,,,,,,,,,629,54.66668701,92,1,0,0,response1disk,,7,14.66668701,-17.33334351,1,0,0,rectangle,14.66668701,-17.33334351,1,0,0,14.66668701,-17.33334351,1,0,0,1,51,211,22,1,,,,,,,,
,,,,,,,,,,,,,FF,,,,,,,,0.8033,,,,,,,,,,,,,,,,,,,,,,60ff8dab5974afca9c2c6816,610367d4a53d4131b64c85df,2021-07-29_20h46.25.808,Simcolourproject_2stim_asymm_v5,2020.2.10,Win32,60,61025ae37ef11b136ea224fe,,,,,,,,,80,-68.66662598,-48,1,0,0,response5disk,,2,-2.666625977,-11.33334351,1,0,0,rectangle,-2.666625977,-11.33334351,1,0,0,-2.666625977,-11.33334351,1,0,0,1,52,212,13,1,,,,,,,,
,,,,,,,,,,,,,FF,,,,,,,,0.6015,,,,,,,,,,,,,,,,,,,,,,60ff8dab5974afca9c2c6816,610367d4a53d4131b64c85df,2021-07-29_20h46.25.808,Simcolourproject_2stim_asymm_v5,2020.2.10,Win32,60,61025ae37ef11b136ea224fe,,,,,,,,,822,-40.66662598,-82,1,0,0,response5disk,,3,15.33337402,1.333312988,1,0,0,rectangle,15.33337402,1.333312988,1,0,0,15.33337402,1.333312988,1,0,0,1,53,213,73,1,,,,,,,,
,,,,,,,,,,,,,FF,,,,,,,,0.7676,,,,,,,,,,,,,,,,,,,,,,60ff8dab5974afca9c2c6816,610367d4a53d4131b64c85df,2021-07-29_20h46.25.808,Simcolourproject_2stim_asymm_v5,2020.2.10,Win32,60,61025ae37ef11b136ea224fe,,,,,,,,,3890,65.33337402,84.66665649,1,0,0,response1disk,,7,16,-10.66668701,1,0,0,rectangle,16,-10.66668701,1,0,0,16,-10.66668701,1,0,0,1,54,214,144,1,,,,,,,,
,,,,,,,,,,,,,FF,,,,,,,,0.7315,,,,,,,,,,,,,,,,,,,,,,60ff8dab5974afca9c2c6816,610367d4a53d4131b64c85df,2021-07-29_20h46.25.808,Simcolourproject_2stim_asymm_v5,2020.2.10,Win32,60,61025ae37ef11b136ea224fe,,,,,,,,,1348,38,101.333313,1,0,0,response1disk,,7,24.66668701,-10,1,0,0,rectangle,24.66668701,-10,1,0,0,24.66668701,-10,1,0,0,1,55,215,74,1,,,,,,,,
,,,,,,,,,,,,,FF,,,,,,,,1.0885,,,,,,,,,,,,,,,,,,,,,,60ff8dab5974afca9c2c6816,610367d4a53d4131b64c85df,2021-07-29_20h46.25.808,Simcolourproject_2stim_asymm_v5,2020.2.10,Win32,60,61025ae37ef11b136ea224fe,,,,,,,,,1751,-88.66662598,42.66665649,1,0,0,response7disk,,1,16.66668701,0.666656494,1,0,0,rectangle,16.66668701,0.666656494,1,0,0,16.66668701,0.666656494,1,0,0,1,56,216,155,1,,,,,,,,
,,,,,,,,,,,,,FF,,,,,,,,0.9517,,,,,,,,,,,,,,,,,,,,,,60ff8dab5974afca9c2c6816,610367d4a53d4131b64c85df,2021-07-29_20h46.25.808,Simcolourproject_2stim_asymm_v5,2020.2.10,Win32,60,61025ae37ef11b136ea224fe,,,,,,,,,1940,-80.66662598,48,1,0,0,response7disk,,1,20.66668701,1.333312988,1,0,0,rectangle,20.66668701,1.333312988,1,0,0,20.66668701,1.333312988,1,0,0,1,57,217,12,1,,,,,,,,
,,,,,,,,,,,,,FF,,,,,,,,0.7554,,,,,,,,,,,,,,,,,,,,,,60ff8dab5974afca9c2c6816,610367d4a53d4131b64c85df,2021-07-29_20h46.25.808,Simcolourproject_2stim_asymm_v5,2020.2.10,Win32,60,61025ae37ef11b136ea224fe,,,,,,,,,1809,-62.66662598,32.66665649,1,0,0,response7disk,,1,24,-0.666687012,1,0,0,rectangle,117.333374,60,1,0,0,-0.666625977,-4,1,0,0,1,58,218,11,1,,response1disk_3,TRUE,6,6,"[196,263,64,170,160,202,219,46,42,101,275,53,320,64,22,297,243,273,197,83]",1.2297,rectangle
,,,,,,,,,,,,,FF,,,,,,,,1.0682,,,,,,,,,,,,,,,,,,,,,,60ff8dab5974afca9c2c6816,610367d4a53d4131b64c85df,2021-07-29_20h46.25.808,Simcolourproject_2stim_asymm_v5,2020.2.10,Win32,60,61025ae37ef11b136ea224fe,,,,,,,,,545,-71.33331299,-56,1,0,0,response5disk,,2,24.66668701,-4,1,0,0,rectangle,24.66668701,-4,1,0,0,24.66668701,-4,1,0,0,1,59,219,48,1,,,,,,,,
,,,,,,,,,,,,,FF,,,,,,,,1.3552,,,,,,,,,,,,,,,,,,,,,,60ff8dab5974afca9c2c6816,610367d4a53d4131b64c85df,2021-07-29_20h46.25.808,Simcolourproject_2stim_asymm_v5,2020.2.10,Win32,60,61025ae37ef11b136ea224fe,,,,,,,,,1805,92.66668701,39.33331299,1,0,0,response1disk,,6,17.33337402,-8,1,0,0,rectangle,17.33337402,-8,1,0,0,17.33337402,-8,1,0,0,1,60,220,24,1,,,,,,,,
,,,,,,,,,,,,,FF,,,,,,,,0.5386,,,,,,,,,,,,,,,,,,,,,,60ff8dab5974afca9c2c6816,610367d4a53d4131b64c85df,2021-07-29_20h46.25.808,Simcolourproject_2stim_asymm_v5,2020.2.10,Win32,60,61025ae37ef11b136ea224fe,,,,,,,,,4280,-25.33331299,83.33331299,1,0,0,response7disk,,0,6,12,1,0,0,rectangle,6,12,1,0,0,6,12,1,0,0,1,61,221,126,1,,,,,,,,
,,,,,,,,,,,,,FF,,,,,,,,0.7522,,,,,,,,,,,,,,,,,,,,,,60ff8dab5974afca9c2c6816,610367d4a53d4131b64c85df,2021-07-29_20h46.25.808,Simcolourproject_2stim_asymm_v5,2020.2.10,Win32,60,61025ae37ef11b136ea224fe,,,,,,,,,3033,-78.66662598,26.66665649,1,0,0,response7disk,,1,-18.66662598,-10.66668701,1,0,0,rectangle,-18.66662598,-10.66668701,1,0,0,-18.66662598,-10.66668701,1,0,0,1,62,222,63,1,,,,,,,,
,,,,,,,,,,,,,FF,,,,,,,,0.6845,,,,,,,,,,,,,,,,,,,,,,60ff8dab5974afca9c2c6816,610367d4a53d4131b64c85df,2021-07-29_20h46.25.808,Simcolourproject_2stim_asymm_v5,2020.2.10,Win32,60,61025ae37ef11b136ea224fe,,,,,,,,,2330,68.66668701,98,1,0,0,response1disk,,7,0.666687012,-6.666687012,1,0,0,rectangle,0.666687012,-6.666687012,1,0,0,0.666687012,-6.666687012,1,0,0,1,63,223,46,1,,,,,,,,
,,,,,,,,,,,,,FF,,,,,,,,0.5319,,,,,,,,,,,,,,,,,,,,,,60ff8dab5974afca9c2c6816,610367d4a53d4131b64c85df,2021-07-29_20h46.25.808,Simcolourproject_2stim_asymm_v5,2020.2.10,Win32,60,61025ae37ef11b136ea224fe,,,,,,,,,2279,95.33337402,31.33331299,1,0,0,response1disk,,6,22.66668701,-11.33334351,1,0,0,rectangle,22.66668701,-11.33334351,1,0,0,22.66668701,-11.33334351,1,0,0,1,64,224,154,1,,,,,,,,
,,,,,,,,,,,,,FF,,,,,,,,0.4689,,,,,,,,,,,,,,,,,,,,,,60ff8dab5974afca9c2c6816,610367d4a53d4131b64c85df,2021-07-29_20h46.25.808,Simcolourproject_2stim_asymm_v5,2020.2.10,Win32,60,61025ae37ef11b136ea224fe,,,,,,,,,1272,104,-34.66668701,1,0,0,response3disk,,5,16,13.33331299,1,0,0,rectangle,16,13.33331299,1,0,0,16,13.33331299,1,0,0,1,65,225,54,1,,,,,,,,
,,,,,,,,,,,,,FF,,,,,,,,0.6009,,,,,,,,,,,,,,,,,,,,,,60ff8dab5974afca9c2c6816,610367d4a53d4131b64c85df,2021-07-29_20h46.25.808,Simcolourproject_2stim_asymm_v5,2020.2.10,Win32,60,61025ae37ef11b136ea224fe,,,,,,,,,3366,46.66668701,96,1,0,0,response1disk,,7,12.66668701,-1.333343506,1,0,0,rectangle,12.66668701,-1.333343506,1,0,0,12.66668701,-1.333343506,1,0,0,1,66,226,57,1,,,,,,,,
,,,,,,,,,,,,,FF,,,,,,,,0.8516,,,,,,,,,,,,,,,,,,,,,,60ff8dab5974afca9c2c6816,610367d4a53d4131b64c85df,2021-07-29_20h46.25.808,Simcolourproject_2stim_asymm_v5,2020.2.10,Win32,60,61025ae37ef11b136ea224fe,,,,,,,,,24,45.33337402,80.66665649,1,0,0,response1disk,,7,22.66668701,12,1,0,0,rectangle,22.66668701,12,1,0,0,22.66668701,12,1,0,0,1,67,227,115,1,,,,,,,,
,,,,,,,,,,,,,FF,,,,,,,,0.7188,,,,,,,,,,,,,,,,,,,,,,60ff8dab5974afca9c2c6816,610367d4a53d4131b64c85df,2021-07-29_20h46.25.808,Simcolourproject_2stim_asymm_v5,2020.2.10,Win32,60,61025ae37ef11b136ea224fe,,,,,,,,,4034,-93.33331299,-36.66668701,1,0,0,response5disk,,2,7.333374023,8.666656494,1,0,0,rectangle,7.333374023,8.666656494,1,0,0,7.333374023,8.666656494,1,0,0,1,68,228,75,1,,,,,,,,
,,,,,,,,,,,,,FF,,,,,,,,0.5523,,,,,,,,,,,,,,,,,,,,,,60ff8dab5974afca9c2c6816,610367d4a53d4131b64c85df,2021-07-29_20h46.25.808,Simcolourproject_2stim_asymm_v5,2020.2.10,Win32,60,61025ae37ef11b136ea224fe,,,,,,,,,1148,36,88.66665649,1,0,0,response1disk,,7,16.66668701,8.666656494,1,0,0,rectangle,16.66668701,8.666656494,1,0,0,16.66668701,8.666656494,1,0,0,1,69,229,25,1,,,,,,,,
,,,,,,,,,,,,,FF,,,,,,,,0.8178,,,,,,,,,,,,,,,,,,,,,,60ff8dab5974afca9c2c6816,610367d4a53d4131b64c85df,2021-07-29_20h46.25.808,Simcolourproject_2stim_asymm_v5,2020.2.10,Win32,60,61025ae37ef11b136ea224fe,,,,,,,,,3779,-38,-89.33337402,1,0,0,response5disk,,3,22,8.666656494,1,0,0,rectangle,22,8.666656494,1,0,0,22,8.666656494,1,0,0,1,70,230,40,1,,,,,,,,
,,,,,,,,,,,,,FF,,,,,,,,0.6011,,,,,,,,,,,,,,,,,,,,,,60ff8dab5974afca9c2c6816,610367d4a53d4131b64c85df,2021-07-29_20h46.25.808,Simcolourproject_2stim_asymm_v5,2020.2.10,Win32,60,61025ae37ef11b136ea224fe,,,,,,,,,3894,-40,-81.33337402,1,0,0,response5disk,,3,6,10.66665649,1,0,0,rectangle,6,10.66665649,1,0,0,6,10.66665649,1,0,0,1,71,231,7,1,,,,,,,,
,,,,,,,,,,,,,FF,,,,,,,,0.6853,,,,,,,,,,,,,,,,,,,,,,60ff8dab5974afca9c2c6816,610367d4a53d4131b64c85df,2021-07-29_20h46.25.808,Simcolourproject_2stim_asymm_v5,2020.2.10,Win32,60,61025ae37ef11b136ea224fe,,,,,,,,,2909,-70.66662598,-35.33337402,1,0,0,response5disk,,2,2.666687012,8.666656494,1,0,0,rectangle,2.666687012,8.666656494,1,0,0,2.666687012,8.666656494,1,0,0,1,72,232,2,1,,,,,,,,
,,,,,,,,,,,,,FF,,,,,,,,0.7084,,,,,,,,,,,,,,,,,,,,,,60ff8dab5974afca9c2c6816,610367d4a53d4131b64c85df,2021-07-29_20h46.25.808,Simcolourproject_2stim_asymm_v5,2020.2.10,Win32,60,61025ae37ef11b136ea224fe,,,,,,,,,1059,-73.33331299,44.66665649,1,0,0,response7disk,,1,8.666687012,0,1,0,0,rectangle,8.666687012,0,1,0,0,8.666687012,0,1,0,0,1,73,233,83,1,,,,,,,,
,,,,,,,,,,,,,FF,,,,,,,,0.9354,,,,,,,,,,,,,,,,,,,,,,60ff8dab5974afca9c2c6816,610367d4a53d4131b64c85df,2021-07-29_20h46.25.808,Simcolourproject_2stim_asymm_v5,2020.2.10,Win32,60,61025ae37ef11b136ea224fe,,,,,,,,,2697,71.33337402,-56.66668701,1,0,0,response3disk,,5,-3.333312988,10.66665649,1,0,0,rectangle,-3.333312988,10.66665649,1,0,0,-3.333312988,10.66665649,1,0,0,1,74,234,159,1,,,,,,,,
,,,,,,,,,,,,,FF,,,,,,,,0.6488,,,,,,,,,,,,,,,,,,,,,,60ff8dab5974afca9c2c6816,610367d4a53d4131b64c85df,2021-07-29_20h46.25.808,Simcolourproject_2stim_asymm_v5,2020.2.10,Win32,60,61025ae37ef11b136ea224fe,,,,,,,,,368,-80,32.66665649,1,0,0,response7disk,,1,0.666687012,8,1,0,0,rectangle,0.666687012,8,1,0,0,0.666687012,8,1,0,0,1,75,235,94,1,,,,,,,,
,,,,,,,,,,,,,FF,,,,,,,,1.0648,,,,,,,,,,,,,,,,,,,,,,60ff8dab5974afca9c2c6816,610367d4a53d4131b64c85df,2021-07-29_20h46.25.808,Simcolourproject_2stim_asymm_v5,2020.2.10,Win32,60,61025ae37ef11b136ea224fe,,,,,,,,,2403,34.66668701,-79.33337402,1,0,0,response3disk,,4,27.33337402,12.66665649,1,0,0,rectangle,27.33337402,12.66665649,1,0,0,27.33337402,12.66665649,1,0,0,1,76,236,87,1,,,,,,,,
,,,,,,,,,,,,,FF,,,,,,,,0.768,,,,,,,,,,,,,,,,,,,,,,60ff8dab5974afca9c2c6816,610367d4a53d4131b64c85df,2021-07-29_20h46.25.808,Simcolourproject_2stim_asymm_v5,2020.2.10,Win32,60,61025ae37ef11b136ea224fe,,,,,,,,,2949,-83.33331299,-46,1,0,0,response5disk,,2,12.66668701,-12.66668701,1,0,0,rectangle,12.66668701,-12.66668701,1,0,0,12.66668701,-12.66668701,1,0,0,1,77,237,112,1,,,,,,,,
,,,,,,,,,,,,,FF,,,,,,,,1.6856,,,,,,,,,,,,,,,,,,,,,,60ff8dab5974afca9c2c6816,610367d4a53d4131b64c85df,2021-07-29_20h46.25.808,Simcolourproject_2stim_asymm_v5,2020.2.10,Win32,60,61025ae37ef11b136ea224fe,,,,,,,,,7,-30.66662598,79.33331299,1,0,0,response7disk,,0,8.666687012,10.66665649,1,0,0,rectangle,8.666687012,10.66665649,1,0,0,8.666687012,10.66665649,1,0,0,1,78,238,101,1,,,,,,,,
,,,,,,,,,,,,,FF,,,,,,,,0.5527,,,,,,,,,,,,,,,,,,,,,,60ff8dab5974afca9c2c6816,610367d4a53d4131b64c85df,2021-07-29_20h46.25.808,Simcolourproject_2stim_asymm_v5,2020.2.10,Win32,60,61025ae37ef11b136ea224fe,,,,,,,,,3175,47.33337402,106.6666565,1,0,0,response1disk,,7,21.33337402,9.333312988,1,0,0,rectangle,21.33337402,9.333312988,1,0,0,21.33337402,9.333312988,1,0,0,1,79,239,123,1,,,,,,,,
,,,,,,,,,,,,,FF,,,,,,,,0.4852,,,,,,,,,,,,,,,,,,,,,,60ff8dab5974afca9c2c6816,610367d4a53d4131b64c85df,2021-07-29_20h46.25.808,Simcolourproject_2stim_asymm_v5,2020.2.10,Win32,60,61025ae37ef11b136ea224fe,,,,,,,,,542,51.33337402,111.333313,1,0,0,response1disk,,7,1.333374023,-10.66668701,1,0,0,rectangle,1.333374023,-10.66668701,1,0,0,1.333374023,-10.66668701,1,0,0,1,80,240,59,1,,,,,,,,
,,,,,,,,,,,,,FF,,,,,,,,0.904,,,,,,,,,,,,,,,,,,,,,,60ff8dab5974afca9c2c6816,610367d4a53d4131b64c85df,2021-07-29_20h46.25.808,Simcolourproject_2stim_asymm_v5,2020.2.10,Win32,60,61025ae37ef11b136ea224fe,,,,,,,,,3949,-69.33331299,36,1,0,0,response7disk,,1,18,-2.666687012,1,0,0,rectangle,18,-2.666687012,1,0,0,18,-2.666687012,1,0,0,1,81,241,125,1,,,,,,,,
,,,,,,,,,,,,,FF,,,,,,,,0.6988,,,,,,,,,,,,,,,,,,,,,,60ff8dab5974afca9c2c6816,610367d4a53d4131b64c85df,2021-07-29_20h46.25.808,Simcolourproject_2stim_asymm_v5,2020.2.10,Win32,60,61025ae37ef11b136ea224fe,,,,,,,,,524,-84.66662598,-92,1,0,0,response5disk,,3,11.33337402,6,1,0,0,rectangle,45.33337402,-102.666687,1,0,0,0,10.66665649,1,0,0,1,82,242,152,1,,response3disk_3,TRUE,4,4,"[196,263,64,170,160,202,219,46,42,101,275,53,320,64,22,297,243,273,197,83]",1.6613,rectangle
,,,,,,,,,,,,,FF,,,,,,,,2.9372,,,,,,,,,,,,,,,,,,,,,,60ff8dab5974afca9c2c6816,610367d4a53d4131b64c85df,2021-07-29_20h46.25.808,Simcolourproject_2stim_asymm_v5,2020.2.10,Win32,60,61025ae37ef11b136ea224fe,,,,,,,,,3975,32.66668701,57.33331299,1,0,0,response1disk,,7,-4,12,1,0,0,rectangle,-4,12,1,0,0,-4,12,1,0,0,1,83,243,0,1,,,,,,,,
,,,,,,,,,,,,,FF,,,,,,,,1.052,,,,,,,,,,,,,,,,,,,,,,60ff8dab5974afca9c2c6816,610367d4a53d4131b64c85df,2021-07-29_20h46.25.808,Simcolourproject_2stim_asymm_v5,2020.2.10,Win32,60,61025ae37ef11b136ea224fe,,,,,,,,,501,104.666687,54.66665649,1,0,0,response1disk,,6,11.33337402,-16.66668701,1,0,0,rectangle,11.33337402,-16.66668701,1,0,0,11.33337402,-16.66668701,1,0,0,1,84,244,49,1,,,,,,,,
,,,,,,,,,,,,,FF,,,,,,,,0.7355,,,,,,,,,,,,,,,,,,,,,,60ff8dab5974afca9c2c6816,610367d4a53d4131b64c85df,2021-07-29_20h46.25.808,Simcolourproject_2stim_asymm_v5,2020.2.10,Win32,60,61025ae37ef11b136ea224fe,,,,,,,,,3816,-89.33331299,48,1,0,0,response7disk,,1,-12,-11.33334351,1,0,0,rectangle,-12,-11.33334351,1,0,0,-12,-11.33334351,1,0,0,1,85,245,71,1,,,,,,,,
,,,,,,,,,,,,,FF,,,,,,,,0.5861,,,,,,,,,,,,,,,,,,,,,,60ff8dab5974afca9c2c6816,610367d4a53d4131b64c85df,2021-07-29_20h46.25.808,Simcolourproject_2stim_asymm_v5,2020.2.10,Win32,60,61025ae37ef11b136ea224fe,,,,,,,,,4095,-48,106,1,0,0,response7disk,,0,22.66668701,-10.66668701,1,0,0,rectangle,22.66668701,-10.66668701,1,0,0,22.66668701,-10.66668701,1,0,0,1,86,246,16,1,,,,,,,,
,,,,,,,,,,,,,FF,,,,,,,,0.4514,,,,,,,,,,,,,,,,,,,,,,60ff8dab5974afca9c2c6816,610367d4a53d4131b64c85df,2021-07-29_20h46.25.808,Simcolourproject_2stim_asymm_v5,2020.2.10,Win32,60,61025ae37ef11b136ea224fe,,,,,,,,,4118,-47.33331299,106.6666565,1,0,0,response7disk,,0,-1.333312988,-10.66668701,1,0,0,rectangle,-1.333312988,-10.66668701,1,0,0,-1.333312988,-10.66668701,1,0,0,1,87,247,4,1,,,,,,,,
,,,,,,,,,,,,,FF,,,,,,,,0.5184,,,,,,,,,,,,,,,,,,,,,,60ff8dab5974afca9c2c6816,610367d4a53d4131b64c85df,2021-07-29_20h46.25.808,Simcolourproject_2stim_asymm_v5,2020.2.10,Win32,60,61025ae37ef11b136ea224fe,,,,,,,,,3832,37.33337402,94.66665649,1,0,0,response1disk,,7,12,-10,1,0,0,rectangle,12,-10,1,0,0,12,-10,1,0,0,1,88,248,86,1,,,,,,,,
,,,,,,,,,,,,,FF,,,,,,,,0.6816,,,,,,,,,,,,,,,,,,,,,,60ff8dab5974afca9c2c6816,610367d4a53d4131b64c85df,2021-07-29_20h46.25.808,Simcolourproject_2stim_asymm_v5,2020.2.10,Win32,60,61025ae37ef11b136ea224fe,,,,,,,,,828,118.666687,35.33331299,1,0,0,response1disk,,6,20,-8.666687012,1,0,0,rectangle,20,-8.666687012,1,0,0,20,-8.666687012,1,0,0,1,89,249,64,1,,,,,,,,
,,,,,,,,,,,,,FF,,,,,,,,0.5003,,,,,,,,,,,,,,,,,,,,,,60ff8dab5974afca9c2c6816,610367d4a53d4131b64c85df,2021-07-29_20h46.25.808,Simcolourproject_2stim_asymm_v5,2020.2.10,Win32,60,61025ae37ef11b136ea224fe,,,,,,,,,3145,61.33337402,107.333313,1,0,0,response1disk,,7,18,-9.333343506,1,0,0,rectangle,18,-9.333343506,1,0,0,18,-9.333343506,1,0,0,1,90,250,77,1,,,,,,,,
,,,,,,,,,,,,,FF,,,,,,,,0.6223,,,,,,,,,,,,,,,,,,,,,,60ff8dab5974afca9c2c6816,610367d4a53d4131b64c85df,2021-07-29_20h46.25.808,Simcolourproject_2stim_asymm_v5,2020.2.10,Win32,60,61025ae37ef11b136ea224fe,,,,,,,,,2956,52.66668701,88,1,0,0,response1disk,,7,1.333374023,6,1,0,0,rectangle,1.333374023,6,1,0,0,1.333374023,6,1,0,0,1,91,251,121,1,,,,,,,,
,,,,,,,,,,,,,FF,,,,,,,,0.653,,,,,,,,,,,,,,,,,,,,,,60ff8dab5974afca9c2c6816,610367d4a53d4131b64c85df,2021-07-29_20h46.25.808,Simcolourproject_2stim_asymm_v5,2020.2.10,Win32,60,61025ae37ef11b136ea224fe,,,,,,,,,2984,70.66668701,98,1,0,0,response1disk,,7,33.33337402,6.666656494,1,0,0,rectangle,33.33337402,6.666656494,1,0,0,33.33337402,6.666656494,1,0,0,1,92,252,23,1,,,,,,,,
