key_resp.keys,key_resp.rt,key_resp_14.keys,key_resp_14.rt,key_resp_15.keys,key_resp_15.rt,key_resp_17.keys,key_resp_17.rt,key_resp_9.keys,key_resp_9.rt,key_resp_10.keys,key_resp_10.rt,practice_comparison,Ecc,mouse_5.x,mouse_5.y,mouse_5.leftButton,mouse_5.midButton,mouse_5.rightButton,mouse_5.clicked_name,pracsimilarity,response_time,mouse_10.x,mouse_10.y,mouse_10.leftButton,mouse_10.midButton,mouse_10.rightButton,mouse_10.clicked_name,mouse_7.x,mouse_7.y,mouse_7.leftButton,mouse_7.midButton,mouse_7.rightButton,mouse_6.x,mouse_6.y,mouse_6.leftButton,mouse_6.midButton,mouse_6.rightButton,duringprac.thisRepN,duringprac.thisTrialN,duringprac.thisN,duringprac.thisIndex,duringprac.ran,participant,session,date,expName,psychopyVersion,OS,frameRate,study_id,mouse_7.clicked_name,catchpracsimilarity,catch_response_time,catchnumberprac,catchtrialorderprac,mouse_6.clicked_name,key_resp_22.keys,key_resp_22.rt,realcomparison,mouse.x,mouse.y,mouse.leftButton,mouse.midButton,mouse.rightButton,mouse.clicked_name,Colour2,similarity,mouse_2.x,mouse_2.y,mouse_2.leftButton,mouse_2.midButton,mouse_2.rightButton,mouse_2.clicked_name,mouse_3.x,mouse_3.y,mouse_3.leftButton,mouse_3.midButton,mouse_3.rightButton,mouse_11.x,mouse_11.y,mouse_11.leftButton,mouse_11.midButton,mouse_11.rightButton,trials_2.thisRepN,trials_2.thisTrialN,trials_2.thisN,trials_2.thisIndex,trials_2.ran,Colour1,mouse_3.clicked_name,catchornah,catchsimilarity,catchnumber,catchtrialorder,catchRT,mouse_11.clicked_name
space,1.2967,space,1.1826,space,5.6321,space,1.6502,space,0.5999,space,2.8518,155,FF,-41.83984375,-108.0429688,1,0,0,response5disk_5,3,5.4525,10.73828125,2.3203125,1,0,0,rectangle_8,10.73828125,2.3203125,1,0,0,10.73828125,2.3203125,1,0,0,0,0,0,3,1,60ff4278d80ae9f23e25eb4b,61036d9e22b2f12b331285cb,2021-07-29_22h11.02.334,Simcolourproject_2stim_asymm_v5,2020.2.10,MacIntel,60,61025ae37ef11b136ea224fe,,,,,,,,,,,,,,,,,,,,,,,,,,,,,,,,,,,,,,,,,,,,,,
,,,,,,,,,,,,124,PF,-78.73828125,29.5234375,1,0,0,response7disk_5,1,2.3649,-11.61328125,-11.01171875,1,0,0,rectangle_8,-98.5390625,-46.5859375,1,0,0,11.5625,0.20703125,1,0,0,0,1,1,1,1,60ff4278d80ae9f23e25eb4b,61036d9e22b2f12b331285cb,2021-07-29_22h11.02.334,Simcolourproject_2stim_asymm_v5,2020.2.10,MacIntel,60,61025ae37ef11b136ea224fe,response5disk_7,2,2.0672,2,"[2,5]",rectangle_4,,,,,,,,,,,,,,,,,,,,,,,,,,,,,,,,,,,,,,,,
,,,,,,,,,,,,57,FF,-74.25,32.20703125,1,0,0,response7disk_5,1,4.8336,-20.984375,4.6796875,1,0,0,rectangle_8,-20.984375,4.6796875,1,0,0,-20.984375,4.6796875,1,0,0,0,2,2,5,1,60ff4278d80ae9f23e25eb4b,61036d9e22b2f12b331285cb,2021-07-29_22h11.02.334,Simcolourproject_2stim_asymm_v5,2020.2.10,MacIntel,60,61025ae37ef11b136ea224fe,,,,,,,,,,,,,,,,,,,,,,,,,,,,,,,,,,,,,,,,,,,,,,
,,,,,,,,,,,,158,FF,83.5390625,-45.55859375,1,0,0,response3disk_5,5,1.4314,1.734375,-1.8515625,1,0,0,rectangle_8,1.734375,-1.8515625,1,0,0,1.734375,-1.8515625,1,0,0,0,3,3,0,1,60ff4278d80ae9f23e25eb4b,61036d9e22b2f12b331285cb,2021-07-29_22h11.02.334,Simcolourproject_2stim_asymm_v5,2020.2.10,MacIntel,60,61025ae37ef11b136ea224fe,,,,,,,,,,,,,,,,,,,,,,,,,,,,,,,,,,,,,,,,,,,,,,
,,,,,,,,,,,,144,PF,66.84765625,-96.7421875,1,0,0,response3disk_5,4,3.4687,-11.0859375,1.578125,1,0,0,rectangle_8,-93.140625,-60.13671875,1,0,0,6.91015625,-0.99609375,1,0,0,0,4,4,4,1,60ff4278d80ae9f23e25eb4b,61036d9e22b2f12b331285cb,2021-07-29_22h11.02.334,Simcolourproject_2stim_asymm_v5,2020.2.10,MacIntel,60,61025ae37ef11b136ea224fe,response5disk_7,2,2.5025,2,"[2,5]",rectangle_4,,,,,,,,,,,,,,,,,,,,,,,,,,,,,,,,,,,,,,,,
,,,,,,,,,,,,3,PF,85.51953125,-39.15625,1,0,0,response3disk_5,5,2.0821,3.484375,6.890625,1,0,0,rectangle_8,3.484375,6.890625,1,0,0,3.484375,6.890625,1,0,0,0,5,5,2,1,60ff4278d80ae9f23e25eb4b,61036d9e22b2f12b331285cb,2021-07-29_22h11.02.334,Simcolourproject_2stim_asymm_v5,2020.2.10,MacIntel,60,61025ae37ef11b136ea224fe,,,,,,,,,,,,,,,,,,,,,,,,,,,,,,,,,,,,,,,,,,,,,,
,,,,,,,,,,,,116,PF,44.77734375,86.86328125,1,0,0,response1disk_5,7,1.7655,-2.18359375,2.42578125,1,0,0,rectangle_8,-2.18359375,2.42578125,1,0,0,-2.18359375,2.42578125,1,0,0,0,6,6,6,1,60ff4278d80ae9f23e25eb4b,61036d9e22b2f12b331285cb,2021-07-29_22h11.02.334,Simcolourproject_2stim_asymm_v5,2020.2.10,MacIntel,60,61025ae37ef11b136ea224fe,,,,,,,,,,,,,,,,,,,,,,,,,,,,,,,,,,,,,,,,,,,,,,
,,,,,,,,,,,,,FF,,,,,,,,1.6338,,,,,,,,,,,,,,,,,,,,,,60ff4278d80ae9f23e25eb4b,61036d9e22b2f12b331285cb,2021-07-29_22h11.02.334,Simcolourproject_2stim_asymm_v5,2020.2.10,MacIntel,60,61025ae37ef11b136ea224fe,,,,,,,space,1.6367,3903,88.24609375,-48.01171875,1,0,0,response3disk,,5,-19.5625,9.984375,1,0,0,rectangle,-19.5625,9.984375,1,0,0,-19.5625,9.984375,1,0,0,0,0,0,8,1,,,,,,,,
,,,,,,,,,,,,,FF,,,,,,,,1.8513,,,,,,,,,,,,,,,,,,,,,,60ff4278d80ae9f23e25eb4b,61036d9e22b2f12b331285cb,2021-07-29_22h11.02.334,Simcolourproject_2stim_asymm_v5,2020.2.10,MacIntel,60,61025ae37ef11b136ea224fe,,,,,,,,,3483,43.2734375,-102.9296875,1,0,0,response3disk,,4,12.625,-0.79296875,1,0,0,rectangle,38.1015625,105.7539063,1,0,0,8.64453125,8.57421875,1,0,0,0,1,1,77,1,,response1disk_3,TRUE,7,7,"[2,173,69,38,107,224,105,69,181,57,246,208,198,298,277,173,190,227,106,179]",2.0524,rectangle
,,,,,,,,,,,,,FF,,,,,,,,1.6866,,,,,,,,,,,,,,,,,,,,,,60ff4278d80ae9f23e25eb4b,61036d9e22b2f12b331285cb,2021-07-29_22h11.02.334,Simcolourproject_2stim_asymm_v5,2020.2.10,MacIntel,60,61025ae37ef11b136ea224fe,,,,,,,,,3998,-95.37109375,58.74609375,1,0,0,response7disk,,1,2.80078125,-6.3203125,1,0,0,rectangle,2.80078125,-6.3203125,1,0,0,2.80078125,-6.3203125,1,0,0,0,2,2,24,1,,,,,,,,
,,,,,,,,,,,,,FF,,,,,,,,1.0672,,,,,,,,,,,,,,,,,,,,,,60ff4278d80ae9f23e25eb4b,61036d9e22b2f12b331285cb,2021-07-29_22h11.02.334,Simcolourproject_2stim_asymm_v5,2020.2.10,MacIntel,60,61025ae37ef11b136ea224fe,,,,,,,,,2810,91.1953125,31.109375,1,0,0,response1disk,,6,20.140625,5.8046875,1,0,0,rectangle,20.140625,5.8046875,1,0,0,20.140625,5.8046875,1,0,0,0,3,3,16,1,,,,,,,,
,,,,,,,,,,,,,FF,,,,,,,,1.0008,,,,,,,,,,,,,,,,,,,,,,60ff4278d80ae9f23e25eb4b,61036d9e22b2f12b331285cb,2021-07-29_22h11.02.334,Simcolourproject_2stim_asymm_v5,2020.2.10,MacIntel,60,61025ae37ef11b136ea224fe,,,,,,,,,1648,48.47265625,85.46484375,1,0,0,response1disk,,7,-7.4296875,4.5703125,1,0,0,rectangle,-7.4296875,4.5703125,1,0,0,-7.4296875,4.5703125,1,0,0,0,4,4,137,1,,,,,,,,
,,,,,,,,,,,,,FF,,,,,,,,0.8686,,,,,,,,,,,,,,,,,,,,,,60ff4278d80ae9f23e25eb4b,61036d9e22b2f12b331285cb,2021-07-29_22h11.02.334,Simcolourproject_2stim_asymm_v5,2020.2.10,MacIntel,60,61025ae37ef11b136ea224fe,,,,,,,,,2254,89.44140625,55.91015625,1,0,0,response1disk,,6,11.5625,3.01953125,1,0,0,rectangle,11.5625,3.01953125,1,0,0,11.5625,3.01953125,1,0,0,0,5,5,59,1,,,,,,,,
,,,,,,,,,,,,,FF,,,,,,,,0.833,,,,,,,,,,,,,,,,,,,,,,60ff4278d80ae9f23e25eb4b,61036d9e22b2f12b331285cb,2021-07-29_22h11.02.334,Simcolourproject_2stim_asymm_v5,2020.2.10,MacIntel,60,61025ae37ef11b136ea224fe,,,,,,,,,3804,39.47265625,-79.23828125,1,0,0,response3disk,,4,12.51953125,-3.046875,1,0,0,rectangle,12.51953125,-3.046875,1,0,0,12.51953125,-3.046875,1,0,0,0,6,6,11,1,,,,,,,,
,,,,,,,,,,,,,FF,,,,,,,,1.0168,,,,,,,,,,,,,,,,,,,,,,60ff4278d80ae9f23e25eb4b,61036d9e22b2f12b331285cb,2021-07-29_22h11.02.334,Simcolourproject_2stim_asymm_v5,2020.2.10,MacIntel,60,61025ae37ef11b136ea224fe,,,,,,,,,3081,89.8984375,41.71875,1,0,0,response1disk,,6,17.64453125,-1.6015625,1,0,0,rectangle,17.64453125,-1.6015625,1,0,0,17.64453125,-1.6015625,1,0,0,0,7,7,110,1,,,,,,,,
,,,,,,,,,,,,,FF,,,,,,,,0.8975,,,,,,,,,,,,,,,,,,,,,,60ff4278d80ae9f23e25eb4b,61036d9e22b2f12b331285cb,2021-07-29_22h11.02.334,Simcolourproject_2stim_asymm_v5,2020.2.10,MacIntel,60,61025ae37ef11b136ea224fe,,,,,,,,,723,-97.01171875,-43.77734375,1,0,0,response5disk,,2,-6.93359375,0.9296875,1,0,0,rectangle,-6.93359375,0.9296875,1,0,0,-6.93359375,0.9296875,1,0,0,0,8,8,0,1,,,,,,,,
,,,,,,,,,,,,,FF,,,,,,,,2.915,,,,,,,,,,,,,,,,,,,,,,60ff4278d80ae9f23e25eb4b,61036d9e22b2f12b331285cb,2021-07-29_22h11.02.334,Simcolourproject_2stim_asymm_v5,2020.2.10,MacIntel,60,61025ae37ef11b136ea224fe,,,,,,,,,3333,105.125,46.21875,1,0,0,response1disk,,6,-5.62109375,16.640625,1,0,0,rectangle,-5.62109375,16.640625,1,0,0,-5.62109375,16.640625,1,0,0,0,9,9,81,1,,,,,,,,
,,,,,,,,,,,,,FF,,,,,,,,1.4169,,,,,,,,,,,,,,,,,,,,,,60ff4278d80ae9f23e25eb4b,61036d9e22b2f12b331285cb,2021-07-29_22h11.02.334,Simcolourproject_2stim_asymm_v5,2020.2.10,MacIntel,60,61025ae37ef11b136ea224fe,,,,,,,,,2218,-55.68359375,-95.1171875,1,0,0,response5disk,,3,2.90625,-12.87890625,1,0,0,rectangle,2.90625,-12.87890625,1,0,0,2.90625,-12.87890625,1,0,0,0,10,10,150,1,,,,,,,,
,,,,,,,,,,,,,FF,,,,,,,,0.934,,,,,,,,,,,,,,,,,,,,,,60ff4278d80ae9f23e25eb4b,61036d9e22b2f12b331285cb,2021-07-29_22h11.02.334,Simcolourproject_2stim_asymm_v5,2020.2.10,MacIntel,60,61025ae37ef11b136ea224fe,,,,,,,,,3860,83.4609375,-36.6015625,1,0,0,response3disk,,5,0.40625,12.19140625,1,0,0,rectangle,0.40625,12.19140625,1,0,0,0.40625,12.19140625,1,0,0,0,11,11,121,1,,,,,,,,
,,,,,,,,,,,,,FF,,,,,,,,0.7833,,,,,,,,,,,,,,,,,,,,,,60ff4278d80ae9f23e25eb4b,61036d9e22b2f12b331285cb,2021-07-29_22h11.02.334,Simcolourproject_2stim_asymm_v5,2020.2.10,MacIntel,60,61025ae37ef11b136ea224fe,,,,,,,,,1913,-81.8515625,-35.78515625,1,0,0,response5disk,,2,3.3359375,-14.109375,1,0,0,rectangle,3.3359375,-14.109375,1,0,0,3.3359375,-14.109375,1,0,0,0,12,12,49,1,,,,,,,,
,,,,,,,,,,,,,FF,,,,,,,,1.5,,,,,,,,,,,,,,,,,,,,,,60ff4278d80ae9f23e25eb4b,61036d9e22b2f12b331285cb,2021-07-29_22h11.02.334,Simcolourproject_2stim_asymm_v5,2020.2.10,MacIntel,60,61025ae37ef11b136ea224fe,,,,,,,,,880,99.31640625,57.73046875,1,0,0,response1disk,,6,24.66015625,16.265625,1,0,0,rectangle,24.66015625,16.265625,1,0,0,24.66015625,16.265625,1,0,0,0,13,13,95,1,,,,,,,,
,,,,,,,,,,,,,FF,,,,,,,,0.6338,,,,,,,,,,,,,,,,,,,,,,60ff4278d80ae9f23e25eb4b,61036d9e22b2f12b331285cb,2021-07-29_22h11.02.334,Simcolourproject_2stim_asymm_v5,2020.2.10,MacIntel,60,61025ae37ef11b136ea224fe,,,,,,,,,323,49.859375,116.2070313,1,0,0,response1disk,,7,-18.59375,-15.52734375,1,0,0,rectangle,-18.59375,-15.52734375,1,0,0,-18.59375,-15.52734375,1,0,0,0,14,14,82,1,,,,,,,,
,,,,,,,,,,,,,FF,,,,,,,,0.6002,,,,,,,,,,,,,,,,,,,,,,60ff4278d80ae9f23e25eb4b,61036d9e22b2f12b331285cb,2021-07-29_22h11.02.334,Simcolourproject_2stim_asymm_v5,2020.2.10,MacIntel,60,61025ae37ef11b136ea224fe,,,,,,,,,3650,31.10546875,88.9296875,1,0,0,response1disk,,7,-25.60546875,-10.3125,1,0,0,rectangle,-25.60546875,-10.3125,1,0,0,-25.60546875,-10.3125,1,0,0,0,15,15,3,1,,,,,,,,
,,,,,,,,,,,,,FF,,,,,,,,0.5336,,,,,,,,,,,,,,,,,,,,,,60ff4278d80ae9f23e25eb4b,61036d9e22b2f12b331285cb,2021-07-29_22h11.02.334,Simcolourproject_2stim_asymm_v5,2020.2.10,MacIntel,60,61025ae37ef11b136ea224fe,,,,,,,,,142,25.59765625,81.3828125,1,0,0,response1disk,,7,-9.69921875,-2.21484375,1,0,0,rectangle,-9.69921875,-2.21484375,1,0,0,-9.69921875,-2.21484375,1,0,0,0,16,16,28,1,,,,,,,,
,,,,,,,,,,,,,FF,,,,,,,,0.5315,,,,,,,,,,,,,,,,,,,,,,60ff4278d80ae9f23e25eb4b,61036d9e22b2f12b331285cb,2021-07-29_22h11.02.334,Simcolourproject_2stim_asymm_v5,2020.2.10,MacIntel,60,61025ae37ef11b136ea224fe,,,,,,,,,403,51.4375,85.67578125,1,0,0,response1disk,,7,-9.55859375,-14.69921875,1,0,0,rectangle,-9.55859375,-14.69921875,1,0,0,-9.55859375,-14.69921875,1,0,0,0,17,17,136,1,,,,,,,,
,,,,,,,,,,,,,FF,,,,,,,,1.2497,,,,,,,,,,,,,,,,,,,,,,60ff4278d80ae9f23e25eb4b,61036d9e22b2f12b331285cb,2021-07-29_22h11.02.334,Simcolourproject_2stim_asymm_v5,2020.2.10,MacIntel,60,61025ae37ef11b136ea224fe,,,,,,,,,1140,-55.08203125,-97.38671875,1,0,0,response5disk,,3,-16.4609375,-11.5859375,1,0,0,rectangle,-16.4609375,-11.5859375,1,0,0,-16.4609375,-11.5859375,1,0,0,0,18,18,5,1,,,,,,,,
,,,,,,,,,,,,,FF,,,,,,,,0.5673,,,,,,,,,,,,,,,,,,,,,,60ff4278d80ae9f23e25eb4b,61036d9e22b2f12b331285cb,2021-07-29_22h11.02.334,Simcolourproject_2stim_asymm_v5,2020.2.10,MacIntel,60,61025ae37ef11b136ea224fe,,,,,,,,,2407,53.3359375,99.3671875,1,0,0,response1disk,,7,-3.19921875,3.53125,1,0,0,rectangle,-3.19921875,3.53125,1,0,0,-3.19921875,3.53125,1,0,0,0,19,19,41,1,,,,,,,,
,,,,,,,,,,,,,FF,,,,,,,,0.8503,,,,,,,,,,,,,,,,,,,,,,60ff4278d80ae9f23e25eb4b,61036d9e22b2f12b331285cb,2021-07-29_22h11.02.334,Simcolourproject_2stim_asymm_v5,2020.2.10,MacIntel,60,61025ae37ef11b136ea224fe,,,,,,,,,4244,82.66015625,-39.3125,1,0,0,response3disk,,5,25.08203125,-5.30859375,1,0,0,rectangle,25.08203125,-5.30859375,1,0,0,25.08203125,-5.30859375,1,0,0,0,20,20,37,1,,,,,,,,
,,,,,,,,,,,,,FF,,,,,,,,0.6672,,,,,,,,,,,,,,,,,,,,,,60ff4278d80ae9f23e25eb4b,61036d9e22b2f12b331285cb,2021-07-29_22h11.02.334,Simcolourproject_2stim_asymm_v5,2020.2.10,MacIntel,60,61025ae37ef11b136ea224fe,,,,,,,,,1129,58.9296875,85.66015625,1,0,0,response1disk,,7,6.81640625,-9.00390625,1,0,0,rectangle,6.81640625,-9.00390625,1,0,0,6.81640625,-9.00390625,1,0,0,0,21,21,125,1,,,,,,,,
,,,,,,,,,,,,,FF,,,,,,,,0.5162,,,,,,,,,,,,,,,,,,,,,,60ff4278d80ae9f23e25eb4b,61036d9e22b2f12b331285cb,2021-07-29_22h11.02.334,Simcolourproject_2stim_asymm_v5,2020.2.10,MacIntel,60,61025ae37ef11b136ea224fe,,,,,,,,,599,44.23828125,106.7421875,1,0,0,response1disk,,7,-2.60546875,-3.65625,1,0,0,rectangle,-2.60546875,-3.65625,1,0,0,-2.60546875,-3.65625,1,0,0,0,22,22,134,1,,,,,,,,
,,,,,,,,,,,,,FF,,,,,,,,0.5334,,,,,,,,,,,,,,,,,,,,,,60ff4278d80ae9f23e25eb4b,61036d9e22b2f12b331285cb,2021-07-29_22h11.02.334,Simcolourproject_2stim_asymm_v5,2020.2.10,MacIntel,60,61025ae37ef11b136ea224fe,,,,,,,,,1661,38.82421875,104.03125,1,0,0,response1disk,,7,-15.5390625,0.3203125,1,0,0,rectangle,-15.5390625,0.3203125,1,0,0,-15.5390625,0.3203125,1,0,0,0,23,23,79,1,,,,,,,,
,,,,,,,,,,,,,FF,,,,,,,,0.7668,,,,,,,,,,,,,,,,,,,,,,60ff4278d80ae9f23e25eb4b,61036d9e22b2f12b331285cb,2021-07-29_22h11.02.334,Simcolourproject_2stim_asymm_v5,2020.2.10,MacIntel,60,61025ae37ef11b136ea224fe,,,,,,,,,812,-36.359375,-89.40234375,1,0,0,response5disk,,3,4.25390625,-5.41796875,1,0,0,rectangle,4.25390625,-5.41796875,1,0,0,4.25390625,-5.41796875,1,0,0,0,24,24,117,1,,,,,,,,
,,,,,,,,,,,,,FF,,,,,,,,0.667,,,,,,,,,,,,,,,,,,,,,,60ff4278d80ae9f23e25eb4b,61036d9e22b2f12b331285cb,2021-07-29_22h11.02.334,Simcolourproject_2stim_asymm_v5,2020.2.10,MacIntel,60,61025ae37ef11b136ea224fe,,,,,,,,,3542,32.1953125,65.20703125,1,0,0,response1disk,,7,9.82421875,3.34375,1,0,0,rectangle,9.82421875,3.34375,1,0,0,9.82421875,3.34375,1,0,0,0,25,25,98,1,,,,,,,,
,,,,,,,,,,,,,FF,,,,,,,,1.1499,,,,,,,,,,,,,,,,,,,,,,60ff4278d80ae9f23e25eb4b,61036d9e22b2f12b331285cb,2021-07-29_22h11.02.334,Simcolourproject_2stim_asymm_v5,2020.2.10,MacIntel,60,61025ae37ef11b136ea224fe,,,,,,,,,4246,107.3554688,54.55859375,1,0,0,response1disk,,6,7.22265625,0.01953125,1,0,0,rectangle,7.22265625,0.01953125,1,0,0,7.22265625,0.01953125,1,0,0,0,26,26,76,1,,,,,,,,
,,,,,,,,,,,,,FF,,,,,,,,0.5673,,,,,,,,,,,,,,,,,,,,,,60ff4278d80ae9f23e25eb4b,61036d9e22b2f12b331285cb,2021-07-29_22h11.02.334,Simcolourproject_2stim_asymm_v5,2020.2.10,MacIntel,60,61025ae37ef11b136ea224fe,,,,,,,,,2625,49.37109375,80.1640625,1,0,0,response1disk,,7,12.59765625,14.79296875,1,0,0,rectangle,12.59765625,14.79296875,1,0,0,12.59765625,14.79296875,1,0,0,0,27,27,31,1,,,,,,,,
,,,,,,,,,,,,,FF,,,,,,,,0.7182,,,,,,,,,,,,,,,,,,,,,,60ff4278d80ae9f23e25eb4b,61036d9e22b2f12b331285cb,2021-07-29_22h11.02.334,Simcolourproject_2stim_asymm_v5,2020.2.10,MacIntel,60,61025ae37ef11b136ea224fe,,,,,,,,,3962,55.27734375,89.95703125,1,0,0,response1disk,,7,25.05078125,17.0078125,1,0,0,rectangle,25.05078125,17.0078125,1,0,0,25.05078125,17.0078125,1,0,0,0,28,28,10,1,,,,,,,,
,,,,,,,,,,,,,FF,,,,,,,,0.6668,,,,,,,,,,,,,,,,,,,,,,60ff4278d80ae9f23e25eb4b,61036d9e22b2f12b331285cb,2021-07-29_22h11.02.334,Simcolourproject_2stim_asymm_v5,2020.2.10,MacIntel,60,61025ae37ef11b136ea224fe,,,,,,,,,3150,-85.50390625,45.4765625,1,0,0,response7disk,,1,-23.2421875,-3.60546875,1,0,0,rectangle,-23.2421875,-3.60546875,1,0,0,-23.2421875,-3.60546875,1,0,0,0,29,29,40,1,,,,,,,,
,,,,,,,,,,,,,FF,,,,,,,,0.7166,,,,,,,,,,,,,,,,,,,,,,60ff4278d80ae9f23e25eb4b,61036d9e22b2f12b331285cb,2021-07-29_22h11.02.334,Simcolourproject_2stim_asymm_v5,2020.2.10,MacIntel,60,61025ae37ef11b136ea224fe,,,,,,,,,3117,-55.8515625,-95.33984375,1,0,0,response5disk,,3,10.44921875,9.3828125,1,0,0,rectangle,10.44921875,9.3828125,1,0,0,10.44921875,9.3828125,1,0,0,0,30,30,30,1,,,,,,,,
,,,,,,,,,,,,,FF,,,,,,,,0.5502,,,,,,,,,,,,,,,,,,,,,,60ff4278d80ae9f23e25eb4b,61036d9e22b2f12b331285cb,2021-07-29_22h11.02.334,Simcolourproject_2stim_asymm_v5,2020.2.10,MacIntel,60,61025ae37ef11b136ea224fe,,,,,,,,,3234,58.98828125,102.0429688,1,0,0,response1disk,,7,13.34765625,11.453125,1,0,0,rectangle,13.34765625,11.453125,1,0,0,13.34765625,11.453125,1,0,0,0,31,31,85,1,,,,,,,,
,,,,,,,,,,,,,FF,,,,,,,,0.6668,,,,,,,,,,,,,,,,,,,,,,60ff4278d80ae9f23e25eb4b,61036d9e22b2f12b331285cb,2021-07-29_22h11.02.334,Simcolourproject_2stim_asymm_v5,2020.2.10,MacIntel,60,61025ae37ef11b136ea224fe,,,,,,,,,4123,-93.84375,-52.94140625,1,0,0,response5disk,,2,-19.74609375,-4.3671875,1,0,0,rectangle,-19.74609375,-4.3671875,1,0,0,-19.74609375,-4.3671875,1,0,0,0,32,32,75,1,,,,,,,,
,,,,,,,,,,,,,FF,,,,,,,,0.6653,,,,,,,,,,,,,,,,,,,,,,60ff4278d80ae9f23e25eb4b,61036d9e22b2f12b331285cb,2021-07-29_22h11.02.334,Simcolourproject_2stim_asymm_v5,2020.2.10,MacIntel,60,61025ae37ef11b136ea224fe,,,,,,,,,3915,-53.6015625,-91.83203125,1,0,0,response5disk,,3,14.07421875,7.43359375,1,0,0,rectangle,14.07421875,7.43359375,1,0,0,14.07421875,7.43359375,1,0,0,0,33,33,38,1,,,,,,,,
,,,,,,,,,,,,,FF,,,,,,,,0.5817,,,,,,,,,,,,,,,,,,,,,,60ff4278d80ae9f23e25eb4b,61036d9e22b2f12b331285cb,2021-07-29_22h11.02.334,Simcolourproject_2stim_asymm_v5,2020.2.10,MacIntel,60,61025ae37ef11b136ea224fe,,,,,,,,,3020,57.58203125,68.05078125,1,0,0,response1disk,,7,16.125,-16.12109375,1,0,0,rectangle,16.125,-16.12109375,1,0,0,16.125,-16.12109375,1,0,0,0,34,34,152,1,,,,,,,,
,,,,,,,,,,,,,FF,,,,,,,,0.6337,,,,,,,,,,,,,,,,,,,,,,60ff4278d80ae9f23e25eb4b,61036d9e22b2f12b331285cb,2021-07-29_22h11.02.334,Simcolourproject_2stim_asymm_v5,2020.2.10,MacIntel,60,61025ae37ef11b136ea224fe,,,,,,,,,222,92.23828125,41.66015625,1,0,0,response1disk,,6,26.44140625,10.609375,1,0,0,rectangle,26.44140625,10.609375,1,0,0,26.44140625,10.609375,1,0,0,0,35,35,156,1,,,,,,,,
,,,,,,,,,,,,,FF,,,,,,,,1.4171,,,,,,,,,,,,,,,,,,,,,,60ff4278d80ae9f23e25eb4b,61036d9e22b2f12b331285cb,2021-07-29_22h11.02.334,Simcolourproject_2stim_asymm_v5,2020.2.10,MacIntel,60,61025ae37ef11b136ea224fe,,,,,,,,,192,-95.734375,-74.96484375,1,0,0,response5disk,,2,-11.8359375,5.203125,1,0,0,rectangle,-11.8359375,5.203125,1,0,0,-11.8359375,5.203125,1,0,0,0,36,36,107,1,,,,,,,,
,,,,,,,,,,,,,FF,,,,,,,,0.9182,,,,,,,,,,,,,,,,,,,,,,60ff4278d80ae9f23e25eb4b,61036d9e22b2f12b331285cb,2021-07-29_22h11.02.334,Simcolourproject_2stim_asymm_v5,2020.2.10,MacIntel,60,61025ae37ef11b136ea224fe,,,,,,,,,3151,-91.5546875,-60.265625,1,0,0,response5disk,,2,-16.91796875,3.34765625,1,0,0,rectangle,86.2890625,-60.625,1,0,0,11.8125,2.76171875,1,0,0,0,37,37,158,1,,response3disk_3,TRUE,5,5,"[2,173,69,38,107,224,105,69,181,57,246,208,198,298,277,173,190,227,106,179]",1.7189,rectangle
,,,,,,,,,,,,,FF,,,,,,,,0.6315,,,,,,,,,,,,,,,,,,,,,,60ff4278d80ae9f23e25eb4b,61036d9e22b2f12b331285cb,2021-07-29_22h11.02.334,Simcolourproject_2stim_asymm_v5,2020.2.10,MacIntel,60,61025ae37ef11b136ea224fe,,,,,,,,,1165,72.328125,73.83984375,1,0,0,response1disk,,7,21.71875,-4.14453125,1,0,0,rectangle,21.71875,-4.14453125,1,0,0,21.71875,-4.14453125,1,0,0,0,38,38,50,1,,,,,,,,
,,,,,,,,,,,,,FF,,,,,,,,0.6973,,,,,,,,,,,,,,,,,,,,,,60ff4278d80ae9f23e25eb4b,61036d9e22b2f12b331285cb,2021-07-29_22h11.02.334,Simcolourproject_2stim_asymm_v5,2020.2.10,MacIntel,60,61025ae37ef11b136ea224fe,,,,,,,,,249,-55.9609375,-81.15234375,1,0,0,response5disk,,3,10.49609375,2.96875,1,0,0,rectangle,10.49609375,2.96875,1,0,0,10.49609375,2.96875,1,0,0,0,39,39,78,1,,,,,,,,
,,,,,,,,,,,,,FF,,,,,,,,0.8352,,,,,,,,,,,,,,,,,,,,,,60ff4278d80ae9f23e25eb4b,61036d9e22b2f12b331285cb,2021-07-29_22h11.02.334,Simcolourproject_2stim_asymm_v5,2020.2.10,MacIntel,60,61025ae37ef11b136ea224fe,,,,,,,,,626,45.30859375,79.31640625,1,0,0,response1disk,,7,9.73046875,-5.890625,1,0,0,rectangle,9.73046875,-5.890625,1,0,0,9.73046875,-5.890625,1,0,0,0,40,40,113,1,,,,,,,,
,,,,,,,,,,,,,FF,,,,,,,,0.668,,,,,,,,,,,,,,,,,,,,,,60ff4278d80ae9f23e25eb4b,61036d9e22b2f12b331285cb,2021-07-29_22h11.02.334,Simcolourproject_2stim_asymm_v5,2020.2.10,MacIntel,60,61025ae37ef11b136ea224fe,,,,,,,,,2829,90.0234375,48.546875,1,0,0,response1disk,,6,-4.3984375,-7.33984375,1,0,0,rectangle,-4.3984375,-7.33984375,1,0,0,-4.3984375,-7.33984375,1,0,0,0,41,41,123,1,,,,,,,,
,,,,,,,,,,,,,FF,,,,,,,,0.6149,,,,,,,,,,,,,,,,,,,,,,60ff4278d80ae9f23e25eb4b,61036d9e22b2f12b331285cb,2021-07-29_22h11.02.334,Simcolourproject_2stim_asymm_v5,2020.2.10,MacIntel,60,61025ae37ef11b136ea224fe,,,,,,,,,3920,45.30078125,-95.015625,1,0,0,response3disk,,4,-16.7265625,7.1640625,1,0,0,rectangle,-16.7265625,7.1640625,1,0,0,-16.7265625,7.1640625,1,0,0,0,42,42,93,1,,,,,,,,
,,,,,,,,,,,,,FF,,,,,,,,0.9508,,,,,,,,,,,,,,,,,,,,,,60ff4278d80ae9f23e25eb4b,61036d9e22b2f12b331285cb,2021-07-29_22h11.02.334,Simcolourproject_2stim_asymm_v5,2020.2.10,MacIntel,60,61025ae37ef11b136ea224fe,,,,,,,,,370,-86.45703125,-34.33984375,1,0,0,response5disk,,2,-23.25390625,-10.58984375,1,0,0,rectangle,-23.25390625,-10.58984375,1,0,0,-23.25390625,-10.58984375,1,0,0,0,43,43,18,1,,,,,,,,
,,,,,,,,,,,,,FF,,,,,,,,0.7687,,,,,,,,,,,,,,,,,,,,,,60ff4278d80ae9f23e25eb4b,61036d9e22b2f12b331285cb,2021-07-29_22h11.02.334,Simcolourproject_2stim_asymm_v5,2020.2.10,MacIntel,60,61025ae37ef11b136ea224fe,,,,,,,,,748,102.2851563,-73.96484375,1,0,0,response3disk,,5,12.45703125,13.68359375,1,0,0,rectangle,12.45703125,13.68359375,1,0,0,12.45703125,13.68359375,1,0,0,0,44,44,53,1,,,,,,,,
,,,,,,,,,,,,,FF,,,,,,,,0.867,,,,,,,,,,,,,,,,,,,,,,60ff4278d80ae9f23e25eb4b,61036d9e22b2f12b331285cb,2021-07-29_22h11.02.334,Simcolourproject_2stim_asymm_v5,2020.2.10,MacIntel,60,61025ae37ef11b136ea224fe,,,,,,,,,3847,-82.0390625,-54.31640625,1,0,0,response5disk,,2,-3.59375,-7.45703125,1,0,0,rectangle,-3.59375,-7.45703125,1,0,0,-3.59375,-7.45703125,1,0,0,0,45,45,122,1,,,,,,,,
,,,,,,,,,,,,,FF,,,,,,,,0.4165,,,,,,,,,,,,,,,,,,,,,,60ff4278d80ae9f23e25eb4b,61036d9e22b2f12b331285cb,2021-07-29_22h11.02.334,Simcolourproject_2stim_asymm_v5,2020.2.10,MacIntel,60,61025ae37ef11b136ea224fe,,,,,,,,,2282,27.125,61.58984375,1,0,0,response1disk,,7,2.984375,10.5703125,1,0,0,rectangle,2.984375,10.5703125,1,0,0,2.984375,10.5703125,1,0,0,0,46,46,34,1,,,,,,,,
,,,,,,,,,,,,,FF,,,,,,,,0.6987,,,,,,,,,,,,,,,,,,,,,,60ff4278d80ae9f23e25eb4b,61036d9e22b2f12b331285cb,2021-07-29_22h11.02.334,Simcolourproject_2stim_asymm_v5,2020.2.10,MacIntel,60,61025ae37ef11b136ea224fe,,,,,,,,,3329,-66.19140625,-99.79296875,1,0,0,response5disk,,3,-15.01171875,4.2109375,1,0,0,rectangle,-15.01171875,4.2109375,1,0,0,-15.01171875,4.2109375,1,0,0,0,47,47,48,1,,,,,,,,
,,,,,,,,,,,,,FF,,,,,,,,0.9496,,,,,,,,,,,,,,,,,,,,,,60ff4278d80ae9f23e25eb4b,61036d9e22b2f12b331285cb,2021-07-29_22h11.02.334,Simcolourproject_2stim_asymm_v5,2020.2.10,MacIntel,60,61025ae37ef11b136ea224fe,,,,,,,,,1119,-82.54296875,-61.53515625,1,0,0,response5disk,,2,18.2890625,6.78515625,1,0,0,rectangle,18.2890625,6.78515625,1,0,0,18.2890625,6.78515625,1,0,0,0,48,48,151,1,,,,,,,,
,,,,,,,,,,,,,FF,,,,,,,,0.7508,,,,,,,,,,,,,,,,,,,,,,60ff4278d80ae9f23e25eb4b,61036d9e22b2f12b331285cb,2021-07-29_22h11.02.334,Simcolourproject_2stim_asymm_v5,2020.2.10,MacIntel,60,61025ae37ef11b136ea224fe,,,,,,,,,1601,-47.35546875,93.4609375,1,0,0,response7disk,,0,0.2734375,2.9375,1,0,0,rectangle,0.2734375,2.9375,1,0,0,0.2734375,2.9375,1,0,0,0,49,49,111,1,,,,,,,,
,,,,,,,,,,,,,FF,,,,,,,,1.2001,,,,,,,,,,,,,,,,,,,,,,60ff4278d80ae9f23e25eb4b,61036d9e22b2f12b331285cb,2021-07-29_22h11.02.334,Simcolourproject_2stim_asymm_v5,2020.2.10,MacIntel,60,61025ae37ef11b136ea224fe,,,,,,,,,2347,-51.41015625,-81.08203125,1,0,0,response5disk,,3,-12.14453125,-2.23046875,1,0,0,rectangle,-12.14453125,-2.23046875,1,0,0,-12.14453125,-2.23046875,1,0,0,0,50,50,19,1,,,,,,,,
,,,,,,,,,,,,,FF,,,,,,,,0.6947,,,,,,,,,,,,,,,,,,,,,,60ff4278d80ae9f23e25eb4b,61036d9e22b2f12b331285cb,2021-07-29_22h11.02.334,Simcolourproject_2stim_asymm_v5,2020.2.10,MacIntel,60,61025ae37ef11b136ea224fe,,,,,,,,,353,-87.4921875,-49.89453125,1,0,0,response5disk,,2,-22.95703125,-4.984375,1,0,0,rectangle,-22.95703125,-4.984375,1,0,0,-22.95703125,-4.984375,1,0,0,0,51,51,148,1,,,,,,,,
,,,,,,,,,,,,,FF,,,,,,,,0.6186,,,,,,,,,,,,,,,,,,,,,,60ff4278d80ae9f23e25eb4b,61036d9e22b2f12b331285cb,2021-07-29_22h11.02.334,Simcolourproject_2stim_asymm_v5,2020.2.10,MacIntel,60,61025ae37ef11b136ea224fe,,,,,,,,,3711,-81.22265625,42.77734375,1,0,0,response7disk,,1,-22.453125,7.6796875,1,0,0,rectangle,-22.453125,7.6796875,1,0,0,-22.453125,7.6796875,1,0,0,0,52,52,26,1,,,,,,,,
,,,,,,,,,,,,,FF,,,,,,,,0.5503,,,,,,,,,,,,,,,,,,,,,,60ff4278d80ae9f23e25eb4b,61036d9e22b2f12b331285cb,2021-07-29_22h11.02.334,Simcolourproject_2stim_asymm_v5,2020.2.10,MacIntel,60,61025ae37ef11b136ea224fe,,,,,,,,,3778,-71.6953125,27.92578125,1,0,0,response7disk,,1,-23.22265625,1.265625,1,0,0,rectangle,-23.22265625,1.265625,1,0,0,-23.22265625,1.265625,1,0,0,0,53,53,63,1,,,,,,,,
,,,,,,,,,,,,,FF,,,,,,,,0.9006,,,,,,,,,,,,,,,,,,,,,,60ff4278d80ae9f23e25eb4b,61036d9e22b2f12b331285cb,2021-07-29_22h11.02.334,Simcolourproject_2stim_asymm_v5,2020.2.10,MacIntel,60,61025ae37ef11b136ea224fe,,,,,,,,,2036,-70.79296875,-87.640625,1,0,0,response5disk,,3,-13.19140625,12.48828125,1,0,0,rectangle,-13.19140625,12.48828125,1,0,0,-13.19140625,12.48828125,1,0,0,0,54,54,52,1,,,,,,,,
,,,,,,,,,,,,,FF,,,,,,,,0.4669,,,,,,,,,,,,,,,,,,,,,,60ff4278d80ae9f23e25eb4b,61036d9e22b2f12b331285cb,2021-07-29_22h11.02.334,Simcolourproject_2stim_asymm_v5,2020.2.10,MacIntel,60,61025ae37ef11b136ea224fe,,,,,,,,,140,38.796875,77.53125,1,0,0,response1disk,,7,9.1953125,-1.9375,1,0,0,rectangle,9.1953125,-1.9375,1,0,0,9.1953125,-1.9375,1,0,0,0,55,55,146,1,,,,,,,,
,,,,,,,,,,,,,FF,,,,,,,,0.8515,,,,,,,,,,,,,,,,,,,,,,60ff4278d80ae9f23e25eb4b,61036d9e22b2f12b331285cb,2021-07-29_22h11.02.334,Simcolourproject_2stim_asymm_v5,2020.2.10,MacIntel,60,61025ae37ef11b136ea224fe,,,,,,,,,1593,52.34765625,88.90234375,1,0,0,response1disk,,7,8.81640625,-2.22265625,1,0,0,rectangle,110.6640625,66.65625,1,0,0,-17.19140625,0.92578125,1,0,0,0,56,56,6,1,,response1disk_3,TRUE,6,6,"[2,173,69,38,107,224,105,69,181,57,246,208,198,298,277,173,190,227,106,179]",2.0198,rectangle
,,,,,,,,,,,,,FF,,,,,,,,0.584,,,,,,,,,,,,,,,,,,,,,,60ff4278d80ae9f23e25eb4b,61036d9e22b2f12b331285cb,2021-07-29_22h11.02.334,Simcolourproject_2stim_asymm_v5,2020.2.10,MacIntel,60,61025ae37ef11b136ea224fe,,,,,,,,,82,-77.19140625,39.55078125,1,0,0,response7disk,,1,-8.203125,-7.23828125,1,0,0,rectangle,-8.203125,-7.23828125,1,0,0,-8.203125,-7.23828125,1,0,0,0,57,57,102,1,,,,,,,,
,,,,,,,,,,,,,FF,,,,,,,,0.5997,,,,,,,,,,,,,,,,,,,,,,60ff4278d80ae9f23e25eb4b,61036d9e22b2f12b331285cb,2021-07-29_22h11.02.334,Simcolourproject_2stim_asymm_v5,2020.2.10,MacIntel,60,61025ae37ef11b136ea224fe,,,,,,,,,4010,-40.66796875,-88.73828125,1,0,0,response5disk,,3,2.51171875,-3.24609375,1,0,0,rectangle,2.51171875,-3.24609375,1,0,0,2.51171875,-3.24609375,1,0,0,0,58,58,44,1,,,,,,,,
,,,,,,,,,,,,,FF,,,,,,,,0.6335,,,,,,,,,,,,,,,,,,,,,,60ff4278d80ae9f23e25eb4b,61036d9e22b2f12b331285cb,2021-07-29_22h11.02.334,Simcolourproject_2stim_asymm_v5,2020.2.10,MacIntel,60,61025ae37ef11b136ea224fe,,,,,,,,,3729,99.31640625,-38.765625,1,0,0,response3disk,,5,12.65234375,-10.0703125,1,0,0,rectangle,12.65234375,-10.0703125,1,0,0,12.65234375,-10.0703125,1,0,0,0,59,59,97,1,,,,,,,,
,,,,,,,,,,,,,FF,,,,,,,,0.6817,,,,,,,,,,,,,,,,,,,,,,60ff4278d80ae9f23e25eb4b,61036d9e22b2f12b331285cb,2021-07-29_22h11.02.334,Simcolourproject_2stim_asymm_v5,2020.2.10,MacIntel,60,61025ae37ef11b136ea224fe,,,,,,,,,2171,-96.375,-48.87109375,1,0,0,response5disk,,2,-0.390625,-0.984375,1,0,0,rectangle,-0.390625,-0.984375,1,0,0,-0.390625,-0.984375,1,0,0,0,60,60,112,1,,,,,,,,
,,,,,,,,,,,,,FF,,,,,,,,0.5505,,,,,,,,,,,,,,,,,,,,,,60ff4278d80ae9f23e25eb4b,61036d9e22b2f12b331285cb,2021-07-29_22h11.02.334,Simcolourproject_2stim_asymm_v5,2020.2.10,MacIntel,60,61025ae37ef11b136ea224fe,,,,,,,,,3841,35.984375,94.1875,1,0,0,response1disk,,7,12.69921875,-2.375,1,0,0,rectangle,12.69921875,-2.375,1,0,0,12.69921875,-2.375,1,0,0,0,61,61,140,1,,,,,,,,
,,,,,,,,,,,,,FF,,,,,,,,0.7498,,,,,,,,,,,,,,,,,,,,,,60ff4278d80ae9f23e25eb4b,61036d9e22b2f12b331285cb,2021-07-29_22h11.02.334,Simcolourproject_2stim_asymm_v5,2020.2.10,MacIntel,60,61025ae37ef11b136ea224fe,,,,,,,,,1814,68.19921875,69.15234375,1,0,0,response1disk,,7,-13.015625,3.73828125,1,0,0,rectangle,-13.015625,3.73828125,1,0,0,-13.015625,3.73828125,1,0,0,0,62,62,4,1,,,,,,,,
,,,,,,,,,,,,,FF,,,,,,,,0.5656,,,,,,,,,,,,,,,,,,,,,,60ff4278d80ae9f23e25eb4b,61036d9e22b2f12b331285cb,2021-07-29_22h11.02.334,Simcolourproject_2stim_asymm_v5,2020.2.10,MacIntel,60,61025ae37ef11b136ea224fe,,,,,,,,,2832,-84.125,43.3515625,1,0,0,response7disk,,1,-21.109375,-0.7109375,1,0,0,rectangle,-21.109375,-0.7109375,1,0,0,-21.109375,-0.7109375,1,0,0,0,63,63,84,1,,,,,,,,
,,,,,,,,,,,,,FF,,,,,,,,0.65,,,,,,,,,,,,,,,,,,,,,,60ff4278d80ae9f23e25eb4b,61036d9e22b2f12b331285cb,2021-07-29_22h11.02.334,Simcolourproject_2stim_asymm_v5,2020.2.10,MacIntel,60,61025ae37ef11b136ea224fe,,,,,,,,,3106,-79.3828125,36.640625,1,0,0,response7disk,,1,4.5390625,-8.86328125,1,0,0,rectangle,4.5390625,-8.86328125,1,0,0,4.5390625,-8.86328125,1,0,0,0,64,64,87,1,,,,,,,,
,,,,,,,,,,,,,FF,,,,,,,,0.6,,,,,,,,,,,,,,,,,,,,,,60ff4278d80ae9f23e25eb4b,61036d9e22b2f12b331285cb,2021-07-29_22h11.02.334,Simcolourproject_2stim_asymm_v5,2020.2.10,MacIntel,60,61025ae37ef11b136ea224fe,,,,,,,,,20,59.7265625,99.2734375,1,0,0,response1disk,,7,12.53515625,11.1015625,1,0,0,rectangle,12.53515625,11.1015625,1,0,0,12.53515625,11.1015625,1,0,0,0,65,65,108,1,,,,,,,,
,,,,,,,,,,,,,FF,,,,,,,,0.6833,,,,,,,,,,,,,,,,,,,,,,60ff4278d80ae9f23e25eb4b,61036d9e22b2f12b331285cb,2021-07-29_22h11.02.334,Simcolourproject_2stim_asymm_v5,2020.2.10,MacIntel,60,61025ae37ef11b136ea224fe,,,,,,,,,3774,-29.4609375,-78.18359375,1,0,0,response5disk,,3,26.6796875,-16.3125,1,0,0,rectangle,26.6796875,-16.3125,1,0,0,26.6796875,-16.3125,1,0,0,0,66,66,145,1,,,,,,,,
,,,,,,,,,,,,,FF,,,,,,,,0.5504,,,,,,,,,,,,,,,,,,,,,,60ff4278d80ae9f23e25eb4b,61036d9e22b2f12b331285cb,2021-07-29_22h11.02.334,Simcolourproject_2stim_asymm_v5,2020.2.10,MacIntel,60,61025ae37ef11b136ea224fe,,,,,,,,,2181,48.671875,67.328125,1,0,0,response1disk,,7,17.55078125,4.56640625,1,0,0,rectangle,17.55078125,4.56640625,1,0,0,17.55078125,4.56640625,1,0,0,0,67,67,90,1,,,,,,,,
,,,,,,,,,,,,,FF,,,,,,,,0.9978,,,,,,,,,,,,,,,,,,,,,,60ff4278d80ae9f23e25eb4b,61036d9e22b2f12b331285cb,2021-07-29_22h11.02.334,Simcolourproject_2stim_asymm_v5,2020.2.10,MacIntel,60,61025ae37ef11b136ea224fe,,,,,,,,,1749,-92.9765625,-66.48046875,1,0,0,response5disk,,2,4.48828125,-6.39453125,1,0,0,rectangle,-49.99609375,-99.23828125,1,0,0,1.7890625,-13.10546875,1,0,0,0,68,68,58,1,,response5disk_3,TRUE,3,3,"[2,173,69,38,107,224,105,69,181,57,246,208,198,298,277,173,190,227,106,179]",1.7334,rectangle
,,,,,,,,,,,,,FF,,,,,,,,0.7666,,,,,,,,,,,,,,,,,,,,,,60ff4278d80ae9f23e25eb4b,61036d9e22b2f12b331285cb,2021-07-29_22h11.02.334,Simcolourproject_2stim_asymm_v5,2020.2.10,MacIntel,60,61025ae37ef11b136ea224fe,,,,,,,,,1432,39.1796875,64.203125,1,0,0,response1disk,,7,13.4609375,-17.03515625,1,0,0,rectangle,13.4609375,-17.03515625,1,0,0,13.4609375,-17.03515625,1,0,0,0,69,69,1,1,,,,,,,,
,,,,,,,,,,,,,FF,,,,,,,,0.466,,,,,,,,,,,,,,,,,,,,,,60ff4278d80ae9f23e25eb4b,61036d9e22b2f12b331285cb,2021-07-29_22h11.02.334,Simcolourproject_2stim_asymm_v5,2020.2.10,MacIntel,60,61025ae37ef11b136ea224fe,,,,,,,,,129,27.8359375,84.47265625,1,0,0,response1disk,,7,-7.6953125,-3.203125,1,0,0,rectangle,-7.6953125,-3.203125,1,0,0,-7.6953125,-3.203125,1,0,0,0,70,70,154,1,,,,,,,,
,,,,,,,,,,,,,FF,,,,,,,,1.0674,,,,,,,,,,,,,,,,,,,,,,60ff4278d80ae9f23e25eb4b,61036d9e22b2f12b331285cb,2021-07-29_22h11.02.334,Simcolourproject_2stim_asymm_v5,2020.2.10,MacIntel,60,61025ae37ef11b136ea224fe,,,,,,,,,1906,58.01953125,-79.09375,1,0,0,response3disk,,4,21.7734375,-17.1484375,1,0,0,rectangle,21.7734375,-17.1484375,1,0,0,21.7734375,-17.1484375,1,0,0,0,71,71,46,1,,,,,,,,
,,,,,,,,,,,,,FF,,,,,,,,0.9008,,,,,,,,,,,,,,,,,,,,,,60ff4278d80ae9f23e25eb4b,61036d9e22b2f12b331285cb,2021-07-29_22h11.02.334,Simcolourproject_2stim_asymm_v5,2020.2.10,MacIntel,60,61025ae37ef11b136ea224fe,,,,,,,,,2034,-75.01171875,-64.80859375,1,0,0,response5disk,,2,-2.078125,-2.87890625,1,0,0,rectangle,-2.078125,-2.87890625,1,0,0,-2.078125,-2.87890625,1,0,0,0,72,72,104,1,,,,,,,,
,,,,,,,,,,,,,FF,,,,,,,,0.5989,,,,,,,,,,,,,,,,,,,,,,60ff4278d80ae9f23e25eb4b,61036d9e22b2f12b331285cb,2021-07-29_22h11.02.334,Simcolourproject_2stim_asymm_v5,2020.2.10,MacIntel,60,61025ae37ef11b136ea224fe,,,,,,,,,3300,26.46875,91.08203125,1,0,0,response1disk,,7,-16.92578125,-8.734375,1,0,0,rectangle,-16.92578125,-8.734375,1,0,0,-16.92578125,-8.734375,1,0,0,0,73,73,22,1,,,,,,,,
,,,,,,,,,,,,,FF,,,,,,,,0.867,,,,,,,,,,,,,,,,,,,,,,60ff4278d80ae9f23e25eb4b,61036d9e22b2f12b331285cb,2021-07-29_22h11.02.334,Simcolourproject_2stim_asymm_v5,2020.2.10,MacIntel,60,61025ae37ef11b136ea224fe,,,,,,,,,1662,-51.1328125,-90.08984375,1,0,0,response5disk,,3,1.609375,9.7421875,1,0,0,rectangle,1.609375,9.7421875,1,0,0,1.609375,9.7421875,1,0,0,0,74,74,72,1,,,,,,,,
,,,,,,,,,,,,,FF,,,,,,,,0.8333,,,,,,,,,,,,,,,,,,,,,,60ff4278d80ae9f23e25eb4b,61036d9e22b2f12b331285cb,2021-07-29_22h11.02.334,Simcolourproject_2stim_asymm_v5,2020.2.10,MacIntel,60,61025ae37ef11b136ea224fe,,,,,,,,,2798,80.16015625,43.4921875,1,0,0,response1disk,,6,-4.52734375,8.66796875,1,0,0,rectangle,-4.52734375,8.66796875,1,0,0,-4.52734375,8.66796875,1,0,0,0,75,75,39,1,,,,,,,,
,,,,,,,,,,,,,FF,,,,,,,,0.5172,,,,,,,,,,,,,,,,,,,,,,60ff4278d80ae9f23e25eb4b,61036d9e22b2f12b331285cb,2021-07-29_22h11.02.334,Simcolourproject_2stim_asymm_v5,2020.2.10,MacIntel,60,61025ae37ef11b136ea224fe,,,,,,,,,3765,39.62109375,96.6953125,1,0,0,response1disk,,7,24.4609375,1.6328125,1,0,0,rectangle,24.4609375,1.6328125,1,0,0,24.4609375,1.6328125,1,0,0,0,76,76,33,1,,,,,,,,
,,,,,,,,,,,,,FF,,,,,,,,0.8355,,,,,,,,,,,,,,,,,,,,,,60ff4278d80ae9f23e25eb4b,61036d9e22b2f12b331285cb,2021-07-29_22h11.02.334,Simcolourproject_2stim_asymm_v5,2020.2.10,MacIntel,60,61025ae37ef11b136ea224fe,,,,,,,,,1183,32.28515625,113.8203125,1,0,0,response1disk,,7,18.296875,2.70703125,1,0,0,rectangle,18.296875,2.70703125,1,0,0,18.296875,2.70703125,1,0,0,0,77,77,25,1,,,,,,,,
,,,,,,,,,,,,,FF,,,,,,,,0.9141,,,,,,,,,,,,,,,,,,,,,,60ff4278d80ae9f23e25eb4b,61036d9e22b2f12b331285cb,2021-07-29_22h11.02.334,Simcolourproject_2stim_asymm_v5,2020.2.10,MacIntel,60,61025ae37ef11b136ea224fe,,,,,,,,,4223,-91.625,49.50390625,1,0,0,response7disk,,1,-22.63671875,5.04296875,1,0,0,rectangle,-22.63671875,5.04296875,1,0,0,-22.63671875,5.04296875,1,0,0,0,78,78,94,1,,,,,,,,
,,,,,,,,,,,,,FF,,,,,,,,0.5489,,,,,,,,,,,,,,,,,,,,,,60ff4278d80ae9f23e25eb4b,61036d9e22b2f12b331285cb,2021-07-29_22h11.02.334,Simcolourproject_2stim_asymm_v5,2020.2.10,MacIntel,60,61025ae37ef11b136ea224fe,,,,,,,,,1369,-72.38671875,30.3828125,1,0,0,response7disk,,1,-30.71484375,4.875,1,0,0,rectangle,-30.71484375,4.875,1,0,0,-30.71484375,4.875,1,0,0,0,79,79,47,1,,,,,,,,
,,,,,,,,,,,,,FF,,,,,,,,0.4674,,,,,,,,,,,,,,,,,,,,,,60ff4278d80ae9f23e25eb4b,61036d9e22b2f12b331285cb,2021-07-29_22h11.02.334,Simcolourproject_2stim_asymm_v5,2020.2.10,MacIntel,60,61025ae37ef11b136ea224fe,,,,,,,,,728,-83.1015625,-43.83984375,1,0,0,response5disk,,2,-13.44140625,-4.046875,1,0,0,rectangle,-13.44140625,-4.046875,1,0,0,-13.44140625,-4.046875,1,0,0,0,80,80,7,1,,,,,,,,
,,,,,,,,,,,,,FF,,,,,,,,0.5834,,,,,,,,,,,,,,,,,,,,,,60ff4278d80ae9f23e25eb4b,61036d9e22b2f12b331285cb,2021-07-29_22h11.02.334,Simcolourproject_2stim_asymm_v5,2020.2.10,MacIntel,60,61025ae37ef11b136ea224fe,,,,,,,,,3886,77.421875,-39.83984375,1,0,0,response3disk,,5,-7.1875,-9.82421875,1,0,0,rectangle,-7.1875,-9.82421875,1,0,0,-7.1875,-9.82421875,1,0,0,0,81,81,130,1,,,,,,,,
,,,,,,,,,,,,,FF,,,,,,,,0.5165,,,,,,,,,,,,,,,,,,,,,,60ff4278d80ae9f23e25eb4b,61036d9e22b2f12b331285cb,2021-07-29_22h11.02.334,Simcolourproject_2stim_asymm_v5,2020.2.10,MacIntel,60,61025ae37ef11b136ea224fe,,,,,,,,,293,49.96875,84.359375,1,0,0,response1disk,,7,11.390625,5.38671875,1,0,0,rectangle,11.390625,5.38671875,1,0,0,11.390625,5.38671875,1,0,0,0,82,82,109,1,,,,,,,,
,,,,,,,,,,,,,FF,,,,,,,,0.5818,,,,,,,,,,,,,,,,,,,,,,60ff4278d80ae9f23e25eb4b,61036d9e22b2f12b331285cb,2021-07-29_22h11.02.334,Simcolourproject_2stim_asymm_v5,2020.2.10,MacIntel,60,61025ae37ef11b136ea224fe,,,,,,,,,3465,100.4921875,32.671875,1,0,0,response1disk,,6,1.9609375,8.4765625,1,0,0,rectangle,1.9609375,8.4765625,1,0,0,1.9609375,8.4765625,1,0,0,0,83,83,144,1,,,,,,,,
,,,,,,,,,,,,,FF,,,,,,,,0.7348,,,,,,,,,,,,,,,,,,,,,,60ff4278d80ae9f23e25eb4b,61036d9e22b2f12b331285cb,2021-07-29_22h11.02.334,Simcolourproject_2stim_asymm_v5,2020.2.10,MacIntel,60,61025ae37ef11b136ea224fe,,,,,,,,,158,-36.09375,-82.8203125,1,0,0,response5disk,,3,11.4765625,1.72265625,1,0,0,rectangle,11.4765625,1.72265625,1,0,0,11.4765625,1.72265625,1,0,0,0,84,84,92,1,,,,,,,,
,,,,,,,,,,,,,FF,,,,,,,,0.8334,,,,,,,,,,,,,,,,,,,,,,60ff4278d80ae9f23e25eb4b,61036d9e22b2f12b331285cb,2021-07-29_22h11.02.334,Simcolourproject_2stim_asymm_v5,2020.2.10,MacIntel,60,61025ae37ef11b136ea224fe,,,,,,,,,1173,90.8984375,-52.4375,1,0,0,response3disk,,5,18.99609375,-17.03515625,1,0,0,rectangle,18.99609375,-17.03515625,1,0,0,18.99609375,-17.03515625,1,0,0,0,85,85,36,1,,,,,,,,
,,,,,,,,,,,,,FF,,,,,,,,0.5002,,,,,,,,,,,,,,,,,,,,,,60ff4278d80ae9f23e25eb4b,61036d9e22b2f12b331285cb,2021-07-29_22h11.02.334,Simcolourproject_2stim_asymm_v5,2020.2.10,MacIntel,60,61025ae37ef11b136ea224fe,,,,,,,,,3110,40.90625,74.140625,1,0,0,response1disk,,7,17.26171875,6.5859375,1,0,0,rectangle,17.26171875,6.5859375,1,0,0,17.26171875,6.5859375,1,0,0,0,86,86,65,1,,,,,,,,
,,,,,,,,,,,,,FF,,,,,,,,0.6673,,,,,,,,,,,,,,,,,,,,,,60ff4278d80ae9f23e25eb4b,61036d9e22b2f12b331285cb,2021-07-29_22h11.02.334,Simcolourproject_2stim_asymm_v5,2020.2.10,MacIntel,60,61025ae37ef11b136ea224fe,,,,,,,,,4007,-88.67578125,-62.31640625,1,0,0,response5disk,,2,-14.0234375,-3.55078125,1,0,0,rectangle,-14.0234375,-3.55078125,1,0,0,-14.0234375,-3.55078125,1,0,0,0,87,87,73,1,,,,,,,,
,,,,,,,,,,,,,FF,,,,,,,,0.5835,,,,,,,,,,,,,,,,,,,,,,60ff4278d80ae9f23e25eb4b,61036d9e22b2f12b331285cb,2021-07-29_22h11.02.334,Simcolourproject_2stim_asymm_v5,2020.2.10,MacIntel,60,61025ae37ef11b136ea224fe,,,,,,,,,378,-44,-76.05859375,1,0,0,response5disk,,3,8.203125,-3.359375,1,0,0,rectangle,8.203125,-3.359375,1,0,0,8.203125,-3.359375,1,0,0,0,88,88,143,1,,,,,,,,
,,,,,,,,,,,,,FF,,,,,,,,0.5313,,,,,,,,,,,,,,,,,,,,,,60ff4278d80ae9f23e25eb4b,61036d9e22b2f12b331285cb,2021-07-29_22h11.02.334,Simcolourproject_2stim_asymm_v5,2020.2.10,MacIntel,60,61025ae37ef11b136ea224fe,,,,,,,,,2607,-83.26953125,-24.21484375,1,0,0,response5disk,,2,-13.51953125,8.54296875,1,0,0,rectangle,-13.51953125,8.54296875,1,0,0,-13.51953125,8.54296875,1,0,0,0,89,89,101,1,,,,,,,,
,,,,,,,,,,,,,FF,,,,,,,,0.4667,,,,,,,,,,,,,,,,,,,,,,60ff4278d80ae9f23e25eb4b,61036d9e22b2f12b331285cb,2021-07-29_22h11.02.334,Simcolourproject_2stim_asymm_v5,2020.2.10,MacIntel,60,61025ae37ef11b136ea224fe,,,,,,,,,2204,28.08984375,80.0546875,1,0,0,response1disk,,7,11.5390625,-3.80859375,1,0,0,rectangle,11.5390625,-3.80859375,1,0,0,11.5390625,-3.80859375,1,0,0,0,90,90,159,1,,,,,,,,
,,,,,,,,,,,,,FF,,,,,,,,0.4668,,,,,,,,,,,,,,,,,,,,,,60ff4278d80ae9f23e25eb4b,61036d9e22b2f12b331285cb,2021-07-29_22h11.02.334,Simcolourproject_2stim_asymm_v5,2020.2.10,MacIntel,60,61025ae37ef11b136ea224fe,,,,,,,,,2156,44.796875,91.984375,1,0,0,response1disk,,7,28.8828125,16.96484375,1,0,0,rectangle,28.8828125,16.96484375,1,0,0,28.8828125,16.96484375,1,0,0,0,91,91,23,1,,,,,,,,
,,,,,,,,,,,,,FF,,,,,,,,0.5001,,,,,,,,,,,,,,,,,,,,,,60ff4278d80ae9f23e25eb4b,61036d9e22b2f12b331285cb,2021-07-29_22h11.02.334,Simcolourproject_2stim_asymm_v5,2020.2.10,MacIntel,60,61025ae37ef11b136ea224fe,,,,,,,,,1371,-81.77734375,51.8515625,1,0,0,response7disk,,1,-15.296875,3.359375,1,0,0,rectangle,-15.296875,3.359375,1,0,0,-15.296875,3.359375,1,0,0,0,92,92,115,1,,,,,,,,
,,,,,,,,,,,,,FF,,,,,,,,0.9171,,,,,,,,,,,,,,,,,,,,,,60ff4278d80ae9f23e25eb4b,61036d9e22b2f12b331285cb,2021-07-29_22h11.02.334,Simcolourproject_2stim_asymm_v5,2020.2.10,MacIntel,60,61025ae37ef11b136ea224fe,,,,,,,,,1074,28.5859375,110.8320313,1,0,0,response1disk,,7,-4.33984375,-2.34765625,1,0,0,rectangle,-4.33984375,-2.34765625,1,0,0,-4.33984375,-2.34765625,1,0,0,0,93,93,120,1,,,,,,,,
,,,,,,,,,,,,,FF,,,,,,,,0.4672,,,,,,,,,,,,,,,,,,,,,,60ff4278d80ae9f23e25eb4b,61036d9e22b2f12b331285cb,2021-07-29_22h11.02.334,Simcolourproject_2stim_asymm_v5,2020.2.10,MacIntel,60,61025ae37ef11b136ea224fe,,,,,,,,,937,38.0859375,104.2617188,1,0,0,response1disk,,7,5.30078125,-7.22265625,1,0,0,rectangle,5.30078125,-7.22265625,1,0,0,5.30078125,-7.22265625,1,0,0,0,94,94,142,1,,,,,,,,
,,,,,,,,,,,,,FF,,,,,,,,1.0835,,,,,,,,,,,,,,,,,,,,,,60ff4278d80ae9f23e25eb4b,61036d9e22b2f12b331285cb,2021-07-29_22h11.02.334,Simcolourproject_2stim_asymm_v5,2020.2.10,MacIntel,60,61025ae37ef11b136ea224fe,,,,,,,,,3911,-68.3671875,-61.140625,1,0,0,response5disk,,2,9.45703125,-2.671875,1,0,0,rectangle,9.45703125,-2.671875,1,0,0,9.45703125,-2.671875,1,0,0,0,95,95,66,1,,,,,,,,
,,,,,,,,,,,,,FF,,,,,,,,0.4999,,,,,,,,,,,,,,,,,,,,,,60ff4278d80ae9f23e25eb4b,61036d9e22b2f12b331285cb,2021-07-29_22h11.02.334,Simcolourproject_2stim_asymm_v5,2020.2.10,MacIntel,60,61025ae37ef11b136ea224fe,,,,,,,,,1716,41.24609375,81.66796875,1,0,0,response1disk,,7,9.48828125,4.125,1,0,0,rectangle,9.48828125,4.125,1,0,0,9.48828125,4.125,1,0,0,0,96,96,54,1,,,,,,,,
,,,,,,,,,,,,,FF,,,,,,,,1,,,,,,,,,,,,,,,,,,,,,,60ff4278d80ae9f23e25eb4b,61036d9e22b2f12b331285cb,2021-07-29_22h11.02.334,Simcolourproject_2stim_asymm_v5,2020.2.10,MacIntel,60,61025ae37ef11b136ea224fe,,,,,,,,,33,76.85546875,52.94140625,1,0,0,response1disk,,6,-4.96484375,4,1,0,0,rectangle,-4.96484375,4,1,0,0,-4.96484375,4,1,0,0,0,97,97,13,1,,,,,,,,
,,,,,,,,,,,,,FF,,,,,,,,0.45,,,,,,,,,,,,,,,,,,,,,,60ff4278d80ae9f23e25eb4b,61036d9e22b2f12b331285cb,2021-07-29_22h11.02.334,Simcolourproject_2stim_asymm_v5,2020.2.10,MacIntel,60,61025ae37ef11b136ea224fe,,,,,,,,,1066,39.98828125,91.53515625,1,0,0,response1disk,,7,15.87109375,17.23828125,1,0,0,rectangle,15.87109375,17.23828125,1,0,0,15.87109375,17.23828125,1,0,0,0,98,98,9,1,,,,,,,,
,,,,,,,,,,,,,FF,,,,,,,,0.6816,,,,,,,,,,,,,,,,,,,,,,60ff4278d80ae9f23e25eb4b,61036d9e22b2f12b331285cb,2021-07-29_22h11.02.334,Simcolourproject_2stim_asymm_v5,2020.2.10,MacIntel,60,61025ae37ef11b136ea224fe,,,,,,,,,3192,70.375,-44.4453125,1,0,0,response3disk,,5,-4.9921875,-8.14453125,1,0,0,rectangle,-4.9921875,-8.14453125,1,0,0,-4.9921875,-8.14453125,1,0,0,0,99,99,51,1,,,,,,,,
,,,,,,,,,,,,,FF,,,,,,,,0.4334,,,,,,,,,,,,,,,,,,,,,,60ff4278d80ae9f23e25eb4b,61036d9e22b2f12b331285cb,2021-07-29_22h11.02.334,Simcolourproject_2stim_asymm_v5,2020.2.10,MacIntel,60,61025ae37ef11b136ea224fe,,,,,,,,,1020,24.08203125,99.46875,1,0,0,response1disk,,7,14.23828125,6.92578125,1,0,0,rectangle,14.23828125,6.92578125,1,0,0,14.23828125,6.92578125,1,0,0,0,100,100,80,1,,,,,,,,
,,,,,,,,,,,,,FF,,,,,,,,0.4498,,,,,,,,,,,,,,,,,,,,,,60ff4278d80ae9f23e25eb4b,61036d9e22b2f12b331285cb,2021-07-29_22h11.02.334,Simcolourproject_2stim_asymm_v5,2020.2.10,MacIntel,60,61025ae37ef11b136ea224fe,,,,,,,,,3378,52.3203125,100.5976563,1,0,0,response1disk,,7,17.15234375,-4.16796875,1,0,0,rectangle,17.15234375,-4.16796875,1,0,0,17.15234375,-4.16796875,1,0,0,0,101,101,60,1,,,,,,,,
,,,,,,,,,,,,,FF,,,,,,,,0.3851,,,,,,,,,,,,,,,,,,,,,,60ff4278d80ae9f23e25eb4b,61036d9e22b2f12b331285cb,2021-07-29_22h11.02.334,Simcolourproject_2stim_asymm_v5,2020.2.10,MacIntel,60,61025ae37ef11b136ea224fe,,,,,,,,,1174,33.33984375,79.44140625,1,0,0,response1disk,,7,22.91796875,2.9921875,1,0,0,rectangle,22.91796875,2.9921875,1,0,0,22.91796875,2.9921875,1,0,0,0,102,102,118,1,,,,,,,,
,,,,,,,,,,,,,FF,,,,,,,,0.3997,,,,,,,,,,,,,,,,,,,,,,60ff4278d80ae9f23e25eb4b,61036d9e22b2f12b331285cb,2021-07-29_22h11.02.334,Simcolourproject_2stim_asymm_v5,2020.2.10,MacIntel,60,61025ae37ef11b136ea224fe,,,,,,,,,400,83.46484375,50.00390625,1,0,0,response1disk,,6,7.40625,-0.00390625,1,0,0,rectangle,7.40625,-0.00390625,1,0,0,7.40625,-0.00390625,1,0,0,0,103,103,2,1,,,,,,,,
,,,,,,,,,,,,,FF,,,,,,,,0.7999,,,,,,,,,,,,,,,,,,,,,,60ff4278d80ae9f23e25eb4b,61036d9e22b2f12b331285cb,2021-07-29_22h11.02.334,Simcolourproject_2stim_asymm_v5,2020.2.10,MacIntel,60,61025ae37ef11b136ea224fe,,,,,,,,,3156,-80.21484375,38.94140625,1,0,0,response7disk,,1,-0.60546875,9.58984375,1,0,0,rectangle,97.64453125,48.41015625,1,0,0,0.5625,5.8984375,1,0,0,0,104,104,124,1,,response1disk_3,TRUE,6,6,"[2,173,69,38,107,224,105,69,181,57,246,208,198,298,277,173,190,227,106,179]",1.5754,rectangle
,,,,,,,,,,,,,FF,,,,,,,,0.8677,,,,,,,,,,,,,,,,,,,,,,60ff4278d80ae9f23e25eb4b,61036d9e22b2f12b331285cb,2021-07-29_22h11.02.334,Simcolourproject_2stim_asymm_v5,2020.2.10,MacIntel,60,61025ae37ef11b136ea224fe,,,,,,,,,3988,-78.67578125,36.2734375,1,0,0,response7disk,,1,3.99609375,-11.5703125,1,0,0,rectangle,-78.75,-54.69921875,1,0,0,19.23828125,8.765625,1,0,0,0,105,105,91,1,,response5disk_3,TRUE,2,2,"[2,173,69,38,107,224,105,69,181,57,246,208,198,298,277,173,190,227,106,179]",1.7179,rectangle
,,,,,,,,,,,,,FF,,,,,,,,0.6648,,,,,,,,,,,,,,,,,,,,,,60ff4278d80ae9f23e25eb4b,61036d9e22b2f12b331285cb,2021-07-29_22h11.02.334,Simcolourproject_2stim_asymm_v5,2020.2.10,MacIntel,60,61025ae37ef11b136ea224fe,,,,,,,,,2806,49.921875,73.45703125,1,0,0,response1disk,,7,14.5234375,1.57421875,1,0,0,rectangle,-107.0507813,-57.7265625,1,0,0,9.65234375,-1.546875,1,0,0,0,106,106,127,1,,response5disk_3,TRUE,2,2,"[2,173,69,38,107,224,105,69,181,57,246,208,198,298,277,173,190,227,106,179]",1.8517,rectangle
,,,,,,,,,,,,,FF,,,,,,,,0.6335,,,,,,,,,,,,,,,,,,,,,,60ff4278d80ae9f23e25eb4b,61036d9e22b2f12b331285cb,2021-07-29_22h11.02.334,Simcolourproject_2stim_asymm_v5,2020.2.10,MacIntel,60,61025ae37ef11b136ea224fe,,,,,,,,,806,-93.41796875,45.59375,1,0,0,response7disk,,1,10.31640625,-12.67578125,1,0,0,rectangle,10.31640625,-12.67578125,1,0,0,10.31640625,-12.67578125,1,0,0,0,107,107,157,1,,,,,,,,
,,,,,,,,,,,,,FF,,,,,,,,0.6472,,,,,,,,,,,,,,,,,,,,,,60ff4278d80ae9f23e25eb4b,61036d9e22b2f12b331285cb,2021-07-29_22h11.02.334,Simcolourproject_2stim_asymm_v5,2020.2.10,MacIntel,60,61025ae37ef11b136ea224fe,,,,,,,,,1997,66.1015625,31.921875,1,0,0,response1disk,,6,-1.34375,6.01171875,1,0,0,rectangle,-1.34375,6.01171875,1,0,0,-1.34375,6.01171875,1,0,0,0,108,108,133,1,,,,,,,,
,,,,,,,,,,,,,FF,,,,,,,,0.8511,,,,,,,,,,,,,,,,,,,,,,60ff4278d80ae9f23e25eb4b,61036d9e22b2f12b331285cb,2021-07-29_22h11.02.334,Simcolourproject_2stim_asymm_v5,2020.2.10,MacIntel,60,61025ae37ef11b136ea224fe,,,,,,,,,2713,-48.6953125,-108.1875,1,0,0,response5disk,,3,10.91796875,7.2265625,1,0,0,rectangle,10.91796875,7.2265625,1,0,0,10.91796875,7.2265625,1,0,0,0,109,109,69,1,,,,,,,,
,,,,,,,,,,,,,FF,,,,,,,,0.5834,,,,,,,,,,,,,,,,,,,,,,60ff4278d80ae9f23e25eb4b,61036d9e22b2f12b331285cb,2021-07-29_22h11.02.334,Simcolourproject_2stim_asymm_v5,2020.2.10,MacIntel,60,61025ae37ef11b136ea224fe,,,,,,,,,577,67.28515625,25.57421875,1,0,0,response1disk,,6,-12.2890625,-13.97265625,1,0,0,rectangle,-12.2890625,-13.97265625,1,0,0,-12.2890625,-13.97265625,1,0,0,0,110,110,83,1,,,,,,,,
,,,,,,,,,,,,,FF,,,,,,,,0.5162,,,,,,,,,,,,,,,,,,,,,,60ff4278d80ae9f23e25eb4b,61036d9e22b2f12b331285cb,2021-07-29_22h11.02.334,Simcolourproject_2stim_asymm_v5,2020.2.10,MacIntel,60,61025ae37ef11b136ea224fe,,,,,,,,,854,46.69921875,90.953125,1,0,0,response1disk,,7,18.609375,5.65625,1,0,0,rectangle,18.609375,5.65625,1,0,0,18.609375,5.65625,1,0,0,0,111,111,43,1,,,,,,,,
,,,,,,,,,,,,,FF,,,,,,,,1.1177,,,,,,,,,,,,,,,,,,,,,,60ff4278d80ae9f23e25eb4b,61036d9e22b2f12b331285cb,2021-07-29_22h11.02.334,Simcolourproject_2stim_asymm_v5,2020.2.10,MacIntel,60,61025ae37ef11b136ea224fe,,,,,,,,,3387,-90.98046875,-61.6484375,1,0,0,response5disk,,2,15.015625,12.46875,1,0,0,rectangle,15.015625,12.46875,1,0,0,15.015625,12.46875,1,0,0,0,112,112,57,1,,,,,,,,
,,,,,,,,,,,,,FF,,,,,,,,0.9022,,,,,,,,,,,,,,,,,,,,,,60ff4278d80ae9f23e25eb4b,61036d9e22b2f12b331285cb,2021-07-29_22h11.02.334,Simcolourproject_2stim_asymm_v5,2020.2.10,MacIntel,60,61025ae37ef11b136ea224fe,,,,,,,,,3216,42.12890625,-64.71484375,1,0,0,response3disk,,4,-3.3125,-4.79296875,1,0,0,rectangle,-3.3125,-4.79296875,1,0,0,-3.3125,-4.79296875,1,0,0,0,113,113,70,1,,,,,,,,
,,,,,,,,,,,,,FF,,,,,,,,0.6331,,,,,,,,,,,,,,,,,,,,,,60ff4278d80ae9f23e25eb4b,61036d9e22b2f12b331285cb,2021-07-29_22h11.02.334,Simcolourproject_2stim_asymm_v5,2020.2.10,MacIntel,60,61025ae37ef11b136ea224fe,,,,,,,,,1518,43.2109375,65.70703125,1,0,0,response1disk,,7,0.7578125,-0.50390625,1,0,0,rectangle,0.7578125,-0.50390625,1,0,0,0.7578125,-0.50390625,1,0,0,0,114,114,96,1,,,,,,,,
,,,,,,,,,,,,,FF,,,,,,,,0.6852,,,,,,,,,,,,,,,,,,,,,,60ff4278d80ae9f23e25eb4b,61036d9e22b2f12b331285cb,2021-07-29_22h11.02.334,Simcolourproject_2stim_asymm_v5,2020.2.10,MacIntel,60,61025ae37ef11b136ea224fe,,,,,,,,,259,-71.97265625,-81.01171875,1,0,0,response5disk,,3,-0.96484375,-9.36328125,1,0,0,rectangle,-0.96484375,-9.36328125,1,0,0,-0.96484375,-9.36328125,1,0,0,0,115,115,35,1,,,,,,,,
,,,,,,,,,,,,,FF,,,,,,,,0.6329,,,,,,,,,,,,,,,,,,,,,,60ff4278d80ae9f23e25eb4b,61036d9e22b2f12b331285cb,2021-07-29_22h11.02.334,Simcolourproject_2stim_asymm_v5,2020.2.10,MacIntel,60,61025ae37ef11b136ea224fe,,,,,,,,,2795,36.28125,54.5234375,1,0,0,response1disk,,7,-1.30078125,9.15234375,1,0,0,rectangle,-1.30078125,9.15234375,1,0,0,-1.30078125,9.15234375,1,0,0,0,116,116,27,1,,,,,,,,
,,,,,,,,,,,,,FF,,,,,,,,0.5001,,,,,,,,,,,,,,,,,,,,,,60ff4278d80ae9f23e25eb4b,61036d9e22b2f12b331285cb,2021-07-29_22h11.02.334,Simcolourproject_2stim_asymm_v5,2020.2.10,MacIntel,60,61025ae37ef11b136ea224fe,,,,,,,,,496,87.28515625,37.8828125,1,0,0,response1disk,,6,1.1640625,7.95703125,1,0,0,rectangle,1.1640625,7.95703125,1,0,0,1.1640625,7.95703125,1,0,0,0,117,117,153,1,,,,,,,,
,,,,,,,,,,,,,FF,,,,,,,,0.5334,,,,,,,,,,,,,,,,,,,,,,60ff4278d80ae9f23e25eb4b,61036d9e22b2f12b331285cb,2021-07-29_22h11.02.334,Simcolourproject_2stim_asymm_v5,2020.2.10,MacIntel,60,61025ae37ef11b136ea224fe,,,,,,,,,2253,77.32421875,44.39453125,1,0,0,response1disk,,6,11.54296875,3.8828125,1,0,0,rectangle,11.54296875,3.8828125,1,0,0,11.54296875,3.8828125,1,0,0,0,118,118,139,1,,,,,,,,
,,,,,,,,,,,,,FF,,,,,,,,0.4172,,,,,,,,,,,,,,,,,,,,,,60ff4278d80ae9f23e25eb4b,61036d9e22b2f12b331285cb,2021-07-29_22h11.02.334,Simcolourproject_2stim_asymm_v5,2020.2.10,MacIntel,60,61025ae37ef11b136ea224fe,,,,,,,,,1490,50.99609375,107.5039063,1,0,0,response1disk,,7,10.7890625,-7.22265625,1,0,0,rectangle,10.7890625,-7.22265625,1,0,0,10.7890625,-7.22265625,1,0,0,0,119,119,32,1,,,,,,,,
,,,,,,,,,,,,,FF,,,,,,,,0.5141,,,,,,,,,,,,,,,,,,,,,,60ff4278d80ae9f23e25eb4b,61036d9e22b2f12b331285cb,2021-07-29_22h11.02.334,Simcolourproject_2stim_asymm_v5,2020.2.10,MacIntel,60,61025ae37ef11b136ea224fe,,,,,,,,,1136,-88.20703125,-47.81640625,1,0,0,response5disk,,2,27.81640625,6.234375,1,0,0,rectangle,27.81640625,6.234375,1,0,0,27.81640625,6.234375,1,0,0,0,120,120,132,1,,,,,,,,
,,,,,,,,,,,,,FF,,,,,,,,0.3491,,,,,,,,,,,,,,,,,,,,,,60ff4278d80ae9f23e25eb4b,61036d9e22b2f12b331285cb,2021-07-29_22h11.02.334,Simcolourproject_2stim_asymm_v5,2020.2.10,MacIntel,60,61025ae37ef11b136ea224fe,,,,,,,,,2444,37.58203125,53.09375,1,0,0,response1disk,,7,-5.77734375,-10.734375,1,0,0,rectangle,-5.77734375,-10.734375,1,0,0,-5.77734375,-10.734375,1,0,0,0,121,121,71,1,,,,,,,,
,,,,,,,,,,,,,FF,,,,,,,,0.7498,,,,,,,,,,,,,,,,,,,,,,60ff4278d80ae9f23e25eb4b,61036d9e22b2f12b331285cb,2021-07-29_22h11.02.334,Simcolourproject_2stim_asymm_v5,2020.2.10,MacIntel,60,61025ae37ef11b136ea224fe,,,,,,,,,218,-69.85546875,-37.0078125,1,0,0,response5disk,,2,10.51953125,8.94140625,1,0,0,rectangle,10.51953125,8.94140625,1,0,0,10.51953125,8.94140625,1,0,0,0,122,122,68,1,,,,,,,,
,,,,,,,,,,,,,FF,,,,,,,,0.9195,,,,,,,,,,,,,,,,,,,,,,60ff4278d80ae9f23e25eb4b,61036d9e22b2f12b331285cb,2021-07-29_22h11.02.334,Simcolourproject_2stim_asymm_v5,2020.2.10,MacIntel,60,61025ae37ef11b136ea224fe,,,,,,,,,3120,95.19140625,24.65234375,1,0,0,response1disk,,6,16.15625,10.89453125,1,0,0,rectangle,16.15625,10.89453125,1,0,0,16.15625,10.89453125,1,0,0,0,123,123,88,1,,,,,,,,
,,,,,,,,,,,,,FF,,,,,,,,0.4015,,,,,,,,,,,,,,,,,,,,,,60ff4278d80ae9f23e25eb4b,61036d9e22b2f12b331285cb,2021-07-29_22h11.02.334,Simcolourproject_2stim_asymm_v5,2020.2.10,MacIntel,60,61025ae37ef11b136ea224fe,,,,,,,,,1989,63.765625,97.3828125,1,0,0,response1disk,,7,18.14453125,3.33203125,1,0,0,rectangle,18.14453125,3.33203125,1,0,0,18.14453125,3.33203125,1,0,0,0,124,124,129,1,,,,,,,,
,,,,,,,,,,,,,FF,,,,,,,,1.0339,,,,,,,,,,,,,,,,,,,,,,60ff4278d80ae9f23e25eb4b,61036d9e22b2f12b331285cb,2021-07-29_22h11.02.334,Simcolourproject_2stim_asymm_v5,2020.2.10,MacIntel,60,61025ae37ef11b136ea224fe,,,,,,,,,2180,-44.06640625,-103.1640625,1,0,0,response5disk,,3,-0.61328125,4.40234375,1,0,0,rectangle,-0.61328125,4.40234375,1,0,0,-0.61328125,4.40234375,1,0,0,0,125,125,141,1,,,,,,,,
,,,,,,,,,,,,,FF,,,,,,,,0.4497,,,,,,,,,,,,,,,,,,,,,,60ff4278d80ae9f23e25eb4b,61036d9e22b2f12b331285cb,2021-07-29_22h11.02.334,Simcolourproject_2stim_asymm_v5,2020.2.10,MacIntel,60,61025ae37ef11b136ea224fe,,,,,,,,,2267,31.42578125,76.6953125,1,0,0,response1disk,,7,6.50390625,4.26953125,1,0,0,rectangle,6.50390625,4.26953125,1,0,0,6.50390625,4.26953125,1,0,0,0,126,126,20,1,,,,,,,,
,,,,,,,,,,,,,FF,,,,,,,,0.9335,,,,,,,,,,,,,,,,,,,,,,60ff4278d80ae9f23e25eb4b,61036d9e22b2f12b331285cb,2021-07-29_22h11.02.334,Simcolourproject_2stim_asymm_v5,2020.2.10,MacIntel,60,61025ae37ef11b136ea224fe,,,,,,,,,2654,-89.16796875,-72.47265625,1,0,0,response5disk,,2,15.00390625,-1.328125,1,0,0,rectangle,15.00390625,-1.328125,1,0,0,15.00390625,-1.328125,1,0,0,0,127,127,128,1,,,,,,,,
,,,,,,,,,,,,,FF,,,,,,,,0.4485,,,,,,,,,,,,,,,,,,,,,,60ff4278d80ae9f23e25eb4b,61036d9e22b2f12b331285cb,2021-07-29_22h11.02.334,Simcolourproject_2stim_asymm_v5,2020.2.10,MacIntel,60,61025ae37ef11b136ea224fe,,,,,,,,,473,30.578125,61.19140625,1,0,0,response1disk,,7,17.8359375,9.66796875,1,0,0,rectangle,17.8359375,9.66796875,1,0,0,17.8359375,9.66796875,1,0,0,0,128,128,106,1,,,,,,,,
,,,,,,,,,,,,,FF,,,,,,,,0.4829,,,,,,,,,,,,,,,,,,,,,,60ff4278d80ae9f23e25eb4b,61036d9e22b2f12b331285cb,2021-07-29_22h11.02.334,Simcolourproject_2stim_asymm_v5,2020.2.10,MacIntel,60,61025ae37ef11b136ea224fe,,,,,,,,,682,78.78125,18.03515625,1,0,0,response1disk,,6,-9.4296875,2.7734375,1,0,0,rectangle,-9.4296875,2.7734375,1,0,0,-9.4296875,2.7734375,1,0,0,0,129,129,64,1,,,,,,,,
,,,,,,,,,,,,,FF,,,,,,,,0.5006,,,,,,,,,,,,,,,,,,,,,,60ff4278d80ae9f23e25eb4b,61036d9e22b2f12b331285cb,2021-07-29_22h11.02.334,Simcolourproject_2stim_asymm_v5,2020.2.10,MacIntel,60,61025ae37ef11b136ea224fe,,,,,,,,,1928,49.7421875,-33.56640625,1,0,0,response3disk,,5,5.26953125,-3.45703125,1,0,0,rectangle,5.26953125,-3.45703125,1,0,0,5.26953125,-3.45703125,1,0,0,0,130,130,17,1,,,,,,,,
,,,,,,,,,,,,,FF,,,,,,,,0.8663,,,,,,,,,,,,,,,,,,,,,,60ff4278d80ae9f23e25eb4b,61036d9e22b2f12b331285cb,2021-07-29_22h11.02.334,Simcolourproject_2stim_asymm_v5,2020.2.10,MacIntel,60,61025ae37ef11b136ea224fe,,,,,,,,,160,-93.30078125,-52.71875,1,0,0,response5disk,,2,-16.55859375,-2.2734375,1,0,0,rectangle,-16.55859375,-2.2734375,1,0,0,-16.55859375,-2.2734375,1,0,0,0,131,131,114,1,,,,,,,,
,,,,,,,,,,,,,FF,,,,,,,,0.8156,,,,,,,,,,,,,,,,,,,,,,60ff4278d80ae9f23e25eb4b,61036d9e22b2f12b331285cb,2021-07-29_22h11.02.334,Simcolourproject_2stim_asymm_v5,2020.2.10,MacIntel,60,61025ae37ef11b136ea224fe,,,,,,,,,3954,81.6640625,58.15625,1,0,0,response1disk,,6,4.51953125,15.75390625,1,0,0,rectangle,4.51953125,15.75390625,1,0,0,4.51953125,15.75390625,1,0,0,0,132,132,147,1,,,,,,,,
,,,,,,,,,,,,,FF,,,,,,,,0.6151,,,,,,,,,,,,,,,,,,,,,,60ff4278d80ae9f23e25eb4b,61036d9e22b2f12b331285cb,2021-07-29_22h11.02.334,Simcolourproject_2stim_asymm_v5,2020.2.10,MacIntel,60,61025ae37ef11b136ea224fe,,,,,,,,,1393,47.390625,-80.09375,1,0,0,response3disk,,4,8.37109375,-7.32421875,1,0,0,rectangle,8.37109375,-7.32421875,1,0,0,8.37109375,-7.32421875,1,0,0,0,133,133,42,1,,,,,,,,
,,,,,,,,,,,,,FF,,,,,,,,0.368,,,,,,,,,,,,,,,,,,,,,,60ff4278d80ae9f23e25eb4b,61036d9e22b2f12b331285cb,2021-07-29_22h11.02.334,Simcolourproject_2stim_asymm_v5,2020.2.10,MacIntel,60,61025ae37ef11b136ea224fe,,,,,,,,,1623,41.86328125,81.20703125,1,0,0,response1disk,,7,13.8671875,10.43359375,1,0,0,rectangle,13.8671875,10.43359375,1,0,0,13.8671875,10.43359375,1,0,0,0,134,134,89,1,,,,,,,,
,,,,,,,,,,,,,FF,,,,,,,,0.4329,,,,,,,,,,,,,,,,,,,,,,60ff4278d80ae9f23e25eb4b,61036d9e22b2f12b331285cb,2021-07-29_22h11.02.334,Simcolourproject_2stim_asymm_v5,2020.2.10,MacIntel,60,61025ae37ef11b136ea224fe,,,,,,,,,3646,76.7421875,-25.70703125,1,0,0,response3disk,,5,-19.328125,-8.16015625,1,0,0,rectangle,-19.328125,-8.16015625,1,0,0,-19.328125,-8.16015625,1,0,0,0,135,135,116,1,,,,,,,,
,,,,,,,,,,,,,FF,,,,,,,,0.8165,,,,,,,,,,,,,,,,,,,,,,60ff4278d80ae9f23e25eb4b,61036d9e22b2f12b331285cb,2021-07-29_22h11.02.334,Simcolourproject_2stim_asymm_v5,2020.2.10,MacIntel,60,61025ae37ef11b136ea224fe,,,,,,,,,16,-50.52734375,-107.0664063,1,0,0,response5disk,,3,-7.66796875,-2.46875,1,0,0,rectangle,-7.66796875,-2.46875,1,0,0,-7.66796875,-2.46875,1,0,0,0,136,136,135,1,,,,,,,,
,,,,,,,,,,,,,FF,,,,,,,,0.4338,,,,,,,,,,,,,,,,,,,,,,60ff4278d80ae9f23e25eb4b,61036d9e22b2f12b331285cb,2021-07-29_22h11.02.334,Simcolourproject_2stim_asymm_v5,2020.2.10,MacIntel,60,61025ae37ef11b136ea224fe,,,,,,,,,1047,74.27734375,40.140625,1,0,0,response1disk,,6,-10.375,5.14453125,1,0,0,rectangle,-10.375,5.14453125,1,0,0,-10.375,5.14453125,1,0,0,0,137,137,15,1,,,,,,,,
,,,,,,,,,,,,,FF,,,,,,,,0.3511,,,,,,,,,,,,,,,,,,,,,,60ff4278d80ae9f23e25eb4b,61036d9e22b2f12b331285cb,2021-07-29_22h11.02.334,Simcolourproject_2stim_asymm_v5,2020.2.10,MacIntel,60,61025ae37ef11b136ea224fe,,,,,,,,,2869,36.703125,75.25390625,1,0,0,response1disk,,7,7.390625,13.25390625,1,0,0,rectangle,7.390625,13.25390625,1,0,0,7.390625,13.25390625,1,0,0,0,138,138,131,1,,,,,,,,
,,,,,,,,,,,,,FF,,,,,,,,0.3324,,,,,,,,,,,,,,,,,,,,,,60ff4278d80ae9f23e25eb4b,61036d9e22b2f12b331285cb,2021-07-29_22h11.02.334,Simcolourproject_2stim_asymm_v5,2020.2.10,MacIntel,60,61025ae37ef11b136ea224fe,,,,,,,,,3062,50.58203125,99.3984375,1,0,0,response1disk,,7,14.91796875,7.52734375,1,0,0,rectangle,14.91796875,7.52734375,1,0,0,14.91796875,7.52734375,1,0,0,0,139,139,61,1,,,,,,,,
,,,,,,,,,,,,,FF,,,,,,,,0.469,,,,,,,,,,,,,,,,,,,,,,60ff4278d80ae9f23e25eb4b,61036d9e22b2f12b331285cb,2021-07-29_22h11.02.334,Simcolourproject_2stim_asymm_v5,2020.2.10,MacIntel,60,61025ae37ef11b136ea224fe,,,,,,,,,2350,41.01953125,88.19921875,1,0,0,response1disk,,7,8.3125,-4.1484375,1,0,0,rectangle,8.3125,-4.1484375,1,0,0,8.3125,-4.1484375,1,0,0,0,140,140,155,1,,,,,,,,
,,,,,,,,,,,,,FF,,,,,,,,1.184,,,,,,,,,,,,,,,,,,,,,,60ff4278d80ae9f23e25eb4b,61036d9e22b2f12b331285cb,2021-07-29_22h11.02.334,Simcolourproject_2stim_asymm_v5,2020.2.10,MacIntel,60,61025ae37ef11b136ea224fe,,,,,,,,,3248,-86.3828125,22.8046875,1,0,0,response7disk,,1,13.86328125,-6.6484375,1,0,0,rectangle,13.86328125,-6.6484375,1,0,0,13.86328125,-6.6484375,1,0,0,0,141,141,149,1,,,,,,,,
,,,,,,,,,,,,,FF,,,,,,,,0.5678,,,,,,,,,,,,,,,,,,,,,,60ff4278d80ae9f23e25eb4b,61036d9e22b2f12b331285cb,2021-07-29_22h11.02.334,Simcolourproject_2stim_asymm_v5,2020.2.10,MacIntel,60,61025ae37ef11b136ea224fe,,,,,,,,,1259,81.55859375,36.88671875,1,0,0,response1disk,,6,-23.51953125,-1.17578125,1,0,0,rectangle,-23.51953125,-1.17578125,1,0,0,-23.51953125,-1.17578125,1,0,0,0,142,142,56,1,,,,,,,,
,,,,,,,,,,,,,FF,,,,,,,,1.0851,,,,,,,,,,,,,,,,,,,,,,60ff4278d80ae9f23e25eb4b,61036d9e22b2f12b331285cb,2021-07-29_22h11.02.334,Simcolourproject_2stim_asymm_v5,2020.2.10,MacIntel,60,61025ae37ef11b136ea224fe,,,,,,,,,2674,-83.29296875,-67.46875,1,0,0,response5disk,,2,-12.53125,-9.02734375,1,0,0,rectangle,-12.53125,-9.02734375,1,0,0,-12.53125,-9.02734375,1,0,0,0,143,143,86,1,,,,,,,,
,,,,,,,,,,,,,FF,,,,,,,,0.8002,,,,,,,,,,,,,,,,,,,,,,60ff4278d80ae9f23e25eb4b,61036d9e22b2f12b331285cb,2021-07-29_22h11.02.334,Simcolourproject_2stim_asymm_v5,2020.2.10,MacIntel,60,61025ae37ef11b136ea224fe,,,,,,,,,643,-57.4296875,-116.1835938,1,0,0,response5disk,,3,2.234375,-1.48828125,1,0,0,rectangle,2.234375,-1.48828125,1,0,0,2.234375,-1.48828125,1,0,0,0,144,144,45,1,,,,,,,,
,,,,,,,,,,,,,FF,,,,,,,,1.067,,,,,,,,,,,,,,,,,,,,,,60ff4278d80ae9f23e25eb4b,61036d9e22b2f12b331285cb,2021-07-29_22h11.02.334,Simcolourproject_2stim_asymm_v5,2020.2.10,MacIntel,60,61025ae37ef11b136ea224fe,,,,,,,,,2294,-93.015625,-48.53125,1,0,0,response5disk,,2,2.1796875,-0.09375,1,0,0,rectangle,2.1796875,-0.09375,1,0,0,2.1796875,-0.09375,1,0,0,0,145,145,99,1,,,,,,,,
,,,,,,,,,,,,,FF,,,,,,,,0.5998,,,,,,,,,,,,,,,,,,,,,,60ff4278d80ae9f23e25eb4b,61036d9e22b2f12b331285cb,2021-07-29_22h11.02.334,Simcolourproject_2stim_asymm_v5,2020.2.10,MacIntel,60,61025ae37ef11b136ea224fe,,,,,,,,,2991,62.76953125,48.12890625,1,0,0,response1disk,,6,-29.640625,6.3203125,1,0,0,rectangle,-29.640625,6.3203125,1,0,0,-29.640625,6.3203125,1,0,0,0,146,146,105,1,,,,,,,,
,,,,,,,,,,,,,FF,,,,,,,,0.6169,,,,,,,,,,,,,,,,,,,,,,60ff4278d80ae9f23e25eb4b,61036d9e22b2f12b331285cb,2021-07-29_22h11.02.334,Simcolourproject_2stim_asymm_v5,2020.2.10,MacIntel,60,61025ae37ef11b136ea224fe,,,,,,,,,2430,-67.67578125,-29.50390625,1,0,0,response5disk,,2,-14.53515625,12.9765625,1,0,0,rectangle,-14.53515625,12.9765625,1,0,0,-14.53515625,12.9765625,1,0,0,0,147,147,12,1,,,,,,,,
,,,,,,,,,,,,,FF,,,,,,,,0.6839,,,,,,,,,,,,,,,,,,,,,,60ff4278d80ae9f23e25eb4b,61036d9e22b2f12b331285cb,2021-07-29_22h11.02.334,Simcolourproject_2stim_asymm_v5,2020.2.10,MacIntel,60,61025ae37ef11b136ea224fe,,,,,,,,,3297,-96.49609375,50.265625,1,0,0,response7disk,,1,16.87109375,-5.15234375,1,0,0,rectangle,16.87109375,-5.15234375,1,0,0,16.87109375,-5.15234375,1,0,0,0,148,148,67,1,,,,,,,,
,,,,,,,,,,,,,FF,,,,,,,,0.5331,,,,,,,,,,,,,,,,,,,,,,60ff4278d80ae9f23e25eb4b,61036d9e22b2f12b331285cb,2021-07-29_22h11.02.334,Simcolourproject_2stim_asymm_v5,2020.2.10,MacIntel,60,61025ae37ef11b136ea224fe,,,,,,,,,2289,69.859375,38.6796875,1,0,0,response1disk,,6,5.66796875,8.25,1,0,0,rectangle,5.66796875,8.25,1,0,0,5.66796875,8.25,1,0,0,0,149,149,62,1,,,,,,,,
,,,,,,,,,,,,,FF,,,,,,,,0.482,,,,,,,,,,,,,,,,,,,,,,60ff4278d80ae9f23e25eb4b,61036d9e22b2f12b331285cb,2021-07-29_22h11.02.334,Simcolourproject_2stim_asymm_v5,2020.2.10,MacIntel,60,61025ae37ef11b136ea224fe,,,,,,,,,2258,48.01953125,100.4609375,1,0,0,response1disk,,7,24.8203125,11.35546875,1,0,0,rectangle,24.8203125,11.35546875,1,0,0,24.8203125,11.35546875,1,0,0,0,150,150,14,1,,,,,,,,
,,,,,,,,,,,,,FF,,,,,,,,0.4001,,,,,,,,,,,,,,,,,,,,,,60ff4278d80ae9f23e25eb4b,61036d9e22b2f12b331285cb,2021-07-29_22h11.02.334,Simcolourproject_2stim_asymm_v5,2020.2.10,MacIntel,60,61025ae37ef11b136ea224fe,,,,,,,,,3218,69.4375,42.2734375,1,0,0,response1disk,,6,-2.17578125,2.7890625,1,0,0,rectangle,-2.17578125,2.7890625,1,0,0,-2.17578125,2.7890625,1,0,0,0,151,151,126,1,,,,,,,,
,,,,,,,,,,,,,FF,,,,,,,,0.4317,,,,,,,,,,,,,,,,,,,,,,60ff4278d80ae9f23e25eb4b,61036d9e22b2f12b331285cb,2021-07-29_22h11.02.334,Simcolourproject_2stim_asymm_v5,2020.2.10,MacIntel,60,61025ae37ef11b136ea224fe,,,,,,,,,3919,41.90625,84.02734375,1,0,0,response1disk,,7,17.44921875,0.10546875,1,0,0,rectangle,17.44921875,0.10546875,1,0,0,17.44921875,0.10546875,1,0,0,0,152,152,55,1,,,,,,,,
,,,,,,,,,,,,,FF,,,,,,,,0.9996,,,,,,,,,,,,,,,,,,,,,,60ff4278d80ae9f23e25eb4b,61036d9e22b2f12b331285cb,2021-07-29_22h11.02.334,Simcolourproject_2stim_asymm_v5,2020.2.10,MacIntel,60,61025ae37ef11b136ea224fe,,,,,,,,,1681,-29.30859375,-111.875,1,0,0,response5disk,,3,8.23046875,-2.1015625,1,0,0,rectangle,8.23046875,-2.1015625,1,0,0,8.23046875,-2.1015625,1,0,0,0,153,153,103,1,,,,,,,,
,,,,,,,,,,,,,FF,,,,,,,,0.6852,,,,,,,,,,,,,,,,,,,,,,60ff4278d80ae9f23e25eb4b,61036d9e22b2f12b331285cb,2021-07-29_22h11.02.334,Simcolourproject_2stim_asymm_v5,2020.2.10,MacIntel,60,61025ae37ef11b136ea224fe,,,,,,,,,3627,-74.890625,-54.09765625,1,0,0,response5disk,,2,-21.0859375,-10.45703125,1,0,0,rectangle,-21.0859375,-10.45703125,1,0,0,-21.0859375,-10.45703125,1,0,0,0,154,154,21,1,,,,,,,,
,,,,,,,,,,,,,FF,,,,,,,,0.6008,,,,,,,,,,,,,,,,,,,,,,60ff4278d80ae9f23e25eb4b,61036d9e22b2f12b331285cb,2021-07-29_22h11.02.334,Simcolourproject_2stim_asymm_v5,2020.2.10,MacIntel,60,61025ae37ef11b136ea224fe,,,,,,,,,3522,39.34765625,-62.40625,1,0,0,response3disk,,4,6.80078125,12.078125,1,0,0,rectangle,6.80078125,12.078125,1,0,0,6.80078125,12.078125,1,0,0,0,155,155,29,1,,,,,,,,
,,,,,,,,,,,,,FF,,,,,,,,0.3835,,,,,,,,,,,,,,,,,,,,,,60ff4278d80ae9f23e25eb4b,61036d9e22b2f12b331285cb,2021-07-29_22h11.02.334,Simcolourproject_2stim_asymm_v5,2020.2.10,MacIntel,60,61025ae37ef11b136ea224fe,,,,,,,,,3419,85.76171875,-47.84375,1,0,0,response3disk,,5,-1.53515625,0.07421875,1,0,0,rectangle,-1.53515625,0.07421875,1,0,0,-1.53515625,0.07421875,1,0,0,0,156,156,100,1,,,,,,,,
,,,,,,,,,,,,,FF,,,,,,,,0.5162,,,,,,,,,,,,,,,,,,,,,,60ff4278d80ae9f23e25eb4b,61036d9e22b2f12b331285cb,2021-07-29_22h11.02.334,Simcolourproject_2stim_asymm_v5,2020.2.10,MacIntel,60,61025ae37ef11b136ea224fe,,,,,,,,,2138,36.76171875,92,1,0,0,response1disk,,7,7.75390625,-1.57421875,1,0,0,rectangle,7.75390625,-1.57421875,1,0,0,7.75390625,-1.57421875,1,0,0,0,157,157,138,1,,,,,,,,
,,,,,,,,,,,,,FF,,,,,,,,0.4647,,,,,,,,,,,,,,,,,,,,,,60ff4278d80ae9f23e25eb4b,61036d9e22b2f12b331285cb,2021-07-29_22h11.02.334,Simcolourproject_2stim_asymm_v5,2020.2.10,MacIntel,60,61025ae37ef11b136ea224fe,,,,,,,,,2288,67.94921875,30.796875,1,0,0,response1disk,,6,7.59765625,0.98828125,1,0,0,rectangle,7.59765625,0.98828125,1,0,0,7.59765625,0.98828125,1,0,0,0,158,158,119,1,,,,,,,,
,,,,,,,,,,,,,FF,,,,,,,,0.5993,,,,,,,,,,,,,,,,,,,,,,60ff4278d80ae9f23e25eb4b,61036d9e22b2f12b331285cb,2021-07-29_22h11.02.334,Simcolourproject_2stim_asymm_v5,2020.2.10,MacIntel,60,61025ae37ef11b136ea224fe,,,,,,,,,2033,64.4453125,-49.05859375,1,0,0,response3disk,,5,-1.20703125,-12.43359375,1,0,0,rectangle,-1.20703125,-12.43359375,1,0,0,-1.20703125,-12.43359375,1,0,0,0,159,159,74,1,,,,,,,,
,,,,,,,,,,,,,FF,,,,,,,,0.5506,,,,,,,,,,,,,,,,,,,,,,60ff4278d80ae9f23e25eb4b,61036d9e22b2f12b331285cb,2021-07-29_22h11.02.334,Simcolourproject_2stim_asymm_v5,2020.2.10,MacIntel,60,61025ae37ef11b136ea224fe,,,,,,,,,3903,51.20703125,87.8359375,1,0,0,response1disk,,7,1.43359375,-2.05078125,1,0,0,rectangle,1.43359375,-2.05078125,1,0,0,1.43359375,-2.05078125,1,0,0,1,0,160,60,1,,,,,,,,
,,,,,,,,,,,,,FF,,,,,,,,0.5499,,,,,,,,,,,,,,,,,,,,,,60ff4278d80ae9f23e25eb4b,61036d9e22b2f12b331285cb,2021-07-29_22h11.02.334,Simcolourproject_2stim_asymm_v5,2020.2.10,MacIntel,60,61025ae37ef11b136ea224fe,,,,,,,,,3483,86.8984375,36.20703125,1,0,0,response1disk,,6,-18.58984375,-4.3828125,1,0,0,rectangle,-18.58984375,-4.3828125,1,0,0,-18.58984375,-4.3828125,1,0,0,1,1,161,55,1,,,,,,,,
,,,,,,,,,,,,,FF,,,,,,,,0.6346,,,,,,,,,,,,,,,,,,,,,,60ff4278d80ae9f23e25eb4b,61036d9e22b2f12b331285cb,2021-07-29_22h11.02.334,Simcolourproject_2stim_asymm_v5,2020.2.10,MacIntel,60,61025ae37ef11b136ea224fe,,,,,,,,,3998,-85.28125,-42.97265625,1,0,0,response5disk,,2,-9.5859375,1.703125,1,0,0,rectangle,-9.5859375,1.703125,1,0,0,-9.5859375,1.703125,1,0,0,1,2,162,37,1,,,,,,,,
,,,,,,,,,,,,,FF,,,,,,,,0.7182,,,,,,,,,,,,,,,,,,,,,,60ff4278d80ae9f23e25eb4b,61036d9e22b2f12b331285cb,2021-07-29_22h11.02.334,Simcolourproject_2stim_asymm_v5,2020.2.10,MacIntel,60,61025ae37ef11b136ea224fe,,,,,,,,,2810,79.78125,51.109375,1,0,0,response1disk,,6,-2.2734375,17.09765625,1,0,0,rectangle,-2.2734375,17.09765625,1,0,0,-2.2734375,17.09765625,1,0,0,1,3,163,143,1,,,,,,,,
,,,,,,,,,,,,,FF,,,,,,,,0.6022,,,,,,,,,,,,,,,,,,,,,,60ff4278d80ae9f23e25eb4b,61036d9e22b2f12b331285cb,2021-07-29_22h11.02.334,Simcolourproject_2stim_asymm_v5,2020.2.10,MacIntel,60,61025ae37ef11b136ea224fe,,,,,,,,,1648,24.03125,96.5859375,1,0,0,response1disk,,7,18.1484375,12.5859375,1,0,0,rectangle,18.1484375,12.5859375,1,0,0,18.1484375,12.5859375,1,0,0,1,4,164,20,1,,,,,,,,
,,,,,,,,,,,,,FF,,,,,,,,0.4984,,,,,,,,,,,,,,,,,,,,,,60ff4278d80ae9f23e25eb4b,61036d9e22b2f12b331285cb,2021-07-29_22h11.02.334,Simcolourproject_2stim_asymm_v5,2020.2.10,MacIntel,60,61025ae37ef11b136ea224fe,,,,,,,,,2254,72.28125,28.81640625,1,0,0,response1disk,,6,-14.671875,4.51171875,1,0,0,rectangle,-14.671875,4.51171875,1,0,0,-14.671875,4.51171875,1,0,0,1,5,165,53,1,,,,,,,,
,,,,,,,,,,,,,FF,,,,,,,,0.3498,,,,,,,,,,,,,,,,,,,,,,60ff4278d80ae9f23e25eb4b,61036d9e22b2f12b331285cb,2021-07-29_22h11.02.334,Simcolourproject_2stim_asymm_v5,2020.2.10,MacIntel,60,61025ae37ef11b136ea224fe,,,,,,,,,3804,31.0859375,73.4453125,1,0,0,response1disk,,7,10.29296875,-7.9453125,1,0,0,rectangle,10.29296875,-7.9453125,1,0,0,10.29296875,-7.9453125,1,0,0,1,6,166,30,1,,,,,,,,
,,,,,,,,,,,,,FF,,,,,,,,0.3501,,,,,,,,,,,,,,,,,,,,,,60ff4278d80ae9f23e25eb4b,61036d9e22b2f12b331285cb,2021-07-29_22h11.02.334,Simcolourproject_2stim_asymm_v5,2020.2.10,MacIntel,60,61025ae37ef11b136ea224fe,,,,,,,,,3081,83.12890625,42.27734375,1,0,0,response1disk,,6,13.8828125,2.3515625,1,0,0,rectangle,13.8828125,2.3515625,1,0,0,13.8828125,2.3515625,1,0,0,1,7,167,34,1,,,,,,,,
,,,,,,,,,,,,,FF,,,,,,,,0.4335,,,,,,,,,,,,,,,,,,,,,,60ff4278d80ae9f23e25eb4b,61036d9e22b2f12b331285cb,2021-07-29_22h11.02.334,Simcolourproject_2stim_asymm_v5,2020.2.10,MacIntel,60,61025ae37ef11b136ea224fe,,,,,,,,,723,61.921875,-37.98046875,1,0,0,response3disk,,5,-1.125,-0.61328125,1,0,0,rectangle,-1.125,-0.61328125,1,0,0,-1.125,-0.61328125,1,0,0,1,8,168,74,1,,,,,,,,
,,,,,,,,,,,,,FF,,,,,,,,0.4502,,,,,,,,,,,,,,,,,,,,,,60ff4278d80ae9f23e25eb4b,61036d9e22b2f12b331285cb,2021-07-29_22h11.02.334,Simcolourproject_2stim_asymm_v5,2020.2.10,MacIntel,60,61025ae37ef11b136ea224fe,,,,,,,,,3333,44.94921875,36.9765625,1,0,0,response1disk,,6,-19.24609375,11.92578125,1,0,0,rectangle,-19.24609375,11.92578125,1,0,0,-19.24609375,11.92578125,1,0,0,1,9,169,110,1,,,,,,,,
,,,,,,,,,,,,,FF,,,,,,,,0.469,,,,,,,,,,,,,,,,,,,,,,60ff4278d80ae9f23e25eb4b,61036d9e22b2f12b331285cb,2021-07-29_22h11.02.334,Simcolourproject_2stim_asymm_v5,2020.2.10,MacIntel,60,61025ae37ef11b136ea224fe,,,,,,,,,2218,66.55078125,-39.4375,1,0,0,response3disk,,5,5.76171875,-2.484375,1,0,0,rectangle,5.76171875,-2.484375,1,0,0,5.76171875,-2.484375,1,0,0,1,10,170,123,1,,,,,,,,
,,,,,,,,,,,,,FF,,,,,,,,0.9336,,,,,,,,,,,,,,,,,,,,,,60ff4278d80ae9f23e25eb4b,61036d9e22b2f12b331285cb,2021-07-29_22h11.02.334,Simcolourproject_2stim_asymm_v5,2020.2.10,MacIntel,60,61025ae37ef11b136ea224fe,,,,,,,,,3860,61.01953125,65.28515625,1,0,0,response1disk,,7,11.6875,17.3828125,1,0,0,rectangle,11.6875,17.3828125,1,0,0,11.6875,17.3828125,1,0,0,1,11,171,94,1,,,,,,,,
,,,,,,,,,,,,,FF,,,,,,,,0.4833,,,,,,,,,,,,,,,,,,,,,,60ff4278d80ae9f23e25eb4b,61036d9e22b2f12b331285cb,2021-07-29_22h11.02.334,Simcolourproject_2stim_asymm_v5,2020.2.10,MacIntel,60,61025ae37ef11b136ea224fe,,,,,,,,,1913,69.0625,41.87890625,1,0,0,response1disk,,6,-16.2578125,-8.3671875,1,0,0,rectangle,98.55859375,55.25,1,0,0,15.84375,8.45703125,1,0,0,1,12,172,28,1,,response1disk_3,TRUE,6,6,"[2,173,69,38,107,224,105,69,181,57,246,208,198,298,277,173,190,227,106,179]",2.0501,rectangle
,,,,,,,,,,,,,FF,,,,,,,,0.5501,,,,,,,,,,,,,,,,,,,,,,60ff4278d80ae9f23e25eb4b,61036d9e22b2f12b331285cb,2021-07-29_22h11.02.334,Simcolourproject_2stim_asymm_v5,2020.2.10,MacIntel,60,61025ae37ef11b136ea224fe,,,,,,,,,880,40.82421875,84.3359375,1,0,0,response1disk,,7,16.47265625,5.609375,1,0,0,rectangle,16.47265625,5.609375,1,0,0,16.47265625,5.609375,1,0,0,1,13,173,119,1,,,,,,,,
,,,,,,,,,,,,,FF,,,,,,,,0.5341,,,,,,,,,,,,,,,,,,,,,,60ff4278d80ae9f23e25eb4b,61036d9e22b2f12b331285cb,2021-07-29_22h11.02.334,Simcolourproject_2stim_asymm_v5,2020.2.10,MacIntel,60,61025ae37ef11b136ea224fe,,,,,,,,,323,72.421875,69.89453125,1,0,0,response1disk,,6,3.95703125,7.0234375,1,0,0,rectangle,3.95703125,7.0234375,1,0,0,3.95703125,7.0234375,1,0,0,1,14,174,51,1,,,,,,,,
,,,,,,,,,,,,,FF,,,,,,,,0.3344,,,,,,,,,,,,,,,,,,,,,,60ff4278d80ae9f23e25eb4b,61036d9e22b2f12b331285cb,2021-07-29_22h11.02.334,Simcolourproject_2stim_asymm_v5,2020.2.10,MacIntel,60,61025ae37ef11b136ea224fe,,,,,,,,,3650,38.52734375,76.43359375,1,0,0,response1disk,,7,19.23828125,-3.52734375,1,0,0,rectangle,19.23828125,-3.52734375,1,0,0,19.23828125,-3.52734375,1,0,0,1,15,175,68,1,,,,,,,,
,,,,,,,,,,,,,FF,,,,,,,,0.5829,,,,,,,,,,,,,,,,,,,,,,60ff4278d80ae9f23e25eb4b,61036d9e22b2f12b331285cb,2021-07-29_22h11.02.334,Simcolourproject_2stim_asymm_v5,2020.2.10,MacIntel,60,61025ae37ef11b136ea224fe,,,,,,,,,142,80.1015625,66.3359375,1,0,0,response1disk,,6,1.44921875,-1.62890625,1,0,0,rectangle,1.44921875,-1.62890625,1,0,0,1.44921875,-1.62890625,1,0,0,1,16,176,32,1,,,,,,,,
,,,,,,,,,,,,,FF,,,,,,,,0.7828,,,,,,,,,,,,,,,,,,,,,,60ff4278d80ae9f23e25eb4b,61036d9e22b2f12b331285cb,2021-07-29_22h11.02.334,Simcolourproject_2stim_asymm_v5,2020.2.10,MacIntel,60,61025ae37ef11b136ea224fe,,,,,,,,,403,70.16015625,-19.1171875,1,0,0,response3disk,,5,7.84765625,5.5078125,1,0,0,rectangle,7.84765625,5.5078125,1,0,0,7.84765625,5.5078125,1,0,0,1,17,177,142,1,,,,,,,,
,,,,,,,,,,,,,FF,,,,,,,,1.2682,,,,,,,,,,,,,,,,,,,,,,60ff4278d80ae9f23e25eb4b,61036d9e22b2f12b331285cb,2021-07-29_22h11.02.334,Simcolourproject_2stim_asymm_v5,2020.2.10,MacIntel,60,61025ae37ef11b136ea224fe,,,,,,,,,1140,-42.4296875,-104.0507813,1,0,0,response5disk,,3,6.41796875,2.8984375,1,0,0,rectangle,35.08984375,-93.84765625,1,0,0,6.046875,-6.17578125,1,0,0,1,18,178,111,1,,response3disk_3,TRUE,4,4,"[2,173,69,38,107,224,105,69,181,57,246,208,198,298,277,173,190,227,106,179]",1.3681,rectangle
,,,,,,,,,,,,,FF,,,,,,,,0.9499,,,,,,,,,,,,,,,,,,,,,,60ff4278d80ae9f23e25eb4b,61036d9e22b2f12b331285cb,2021-07-29_22h11.02.334,Simcolourproject_2stim_asymm_v5,2020.2.10,MacIntel,60,61025ae37ef11b136ea224fe,,,,,,,,,2407,39.4765625,55.44921875,1,0,0,response1disk,,7,20.6171875,3.59765625,1,0,0,rectangle,20.6171875,3.59765625,1,0,0,20.6171875,3.59765625,1,0,0,1,19,179,115,1,,,,,,,,
,,,,,,,,,,,,,FF,,,,,,,,0.5164,,,,,,,,,,,,,,,,,,,,,,60ff4278d80ae9f23e25eb4b,61036d9e22b2f12b331285cb,2021-07-29_22h11.02.334,Simcolourproject_2stim_asymm_v5,2020.2.10,MacIntel,60,61025ae37ef11b136ea224fe,,,,,,,,,4244,85.984375,36.5546875,1,0,0,response1disk,,6,-21.37890625,-1.54296875,1,0,0,rectangle,105.9726563,38.35546875,1,0,0,-7.44140625,7.4609375,1,0,0,1,20,180,48,1,,response1disk_3,TRUE,6,6,"[2,173,69,38,107,224,105,69,181,57,246,208,198,298,277,173,190,227,106,179]",1.5171,rectangle
,,,,,,,,,,,,,FF,,,,,,,,0.5332,,,,,,,,,,,,,,,,,,,,,,60ff4278d80ae9f23e25eb4b,61036d9e22b2f12b331285cb,2021-07-29_22h11.02.334,Simcolourproject_2stim_asymm_v5,2020.2.10,MacIntel,60,61025ae37ef11b136ea224fe,,,,,,,,,1129,26.05078125,69.6875,1,0,0,response1disk,,7,15.5390625,1.76953125,1,0,0,rectangle,15.5390625,1.76953125,1,0,0,15.5390625,1.76953125,1,0,0,1,21,181,83,1,,,,,,,,
,,,,,,,,,,,,,FF,,,,,,,,0.3846,,,,,,,,,,,,,,,,,,,,,,60ff4278d80ae9f23e25eb4b,61036d9e22b2f12b331285cb,2021-07-29_22h11.02.334,Simcolourproject_2stim_asymm_v5,2020.2.10,MacIntel,60,61025ae37ef11b136ea224fe,,,,,,,,,599,91.5234375,50.703125,1,0,0,response1disk,,6,8.1484375,15.72265625,1,0,0,rectangle,8.1484375,15.72265625,1,0,0,8.1484375,15.72265625,1,0,0,1,22,182,105,1,,,,,,,,
,,,,,,,,,,,,,FF,,,,,,,,0.4519,,,,,,,,,,,,,,,,,,,,,,60ff4278d80ae9f23e25eb4b,61036d9e22b2f12b331285cb,2021-07-29_22h11.02.334,Simcolourproject_2stim_asymm_v5,2020.2.10,MacIntel,60,61025ae37ef11b136ea224fe,,,,,,,,,1661,23.45703125,60.1328125,1,0,0,response1disk,,7,7.44140625,5.3515625,1,0,0,rectangle,7.44140625,5.3515625,1,0,0,7.44140625,5.3515625,1,0,0,1,23,183,84,1,,,,,,,,
,,,,,,,,,,,,,FF,,,,,,,,0.8333,,,,,,,,,,,,,,,,,,,,,,60ff4278d80ae9f23e25eb4b,61036d9e22b2f12b331285cb,2021-07-29_22h11.02.334,Simcolourproject_2stim_asymm_v5,2020.2.10,MacIntel,60,61025ae37ef11b136ea224fe,,,,,,,,,812,-108.703125,-61.85546875,1,0,0,response5disk,,2,24.86328125,0.62109375,1,0,0,rectangle,24.86328125,0.62109375,1,0,0,24.86328125,0.62109375,1,0,0,1,24,184,104,1,,,,,,,,
,,,,,,,,,,,,,FF,,,,,,,,0.4526,,,,,,,,,,,,,,,,,,,,,,60ff4278d80ae9f23e25eb4b,61036d9e22b2f12b331285cb,2021-07-29_22h11.02.334,Simcolourproject_2stim_asymm_v5,2020.2.10,MacIntel,60,61025ae37ef11b136ea224fe,,,,,,,,,3542,76.10546875,-50.171875,1,0,0,response3disk,,5,19.90234375,-7.99609375,1,0,0,rectangle,19.90234375,-7.99609375,1,0,0,19.90234375,-7.99609375,1,0,0,1,25,185,100,1,,,,,,,,
,,,,,,,,,,,,,FF,,,,,,,,0.5001,,,,,,,,,,,,,,,,,,,,,,60ff4278d80ae9f23e25eb4b,61036d9e22b2f12b331285cb,2021-07-29_22h11.02.334,Simcolourproject_2stim_asymm_v5,2020.2.10,MacIntel,60,61025ae37ef11b136ea224fe,,,,,,,,,4246,25.34765625,72.4609375,1,0,0,response1disk,,7,14.609375,-0.11328125,1,0,0,rectangle,14.609375,-0.11328125,1,0,0,14.609375,-0.11328125,1,0,0,1,26,186,15,1,,,,,,,,
,,,,,,,,,,,,,FF,,,,,,,,0.3654,,,,,,,,,,,,,,,,,,,,,,60ff4278d80ae9f23e25eb4b,61036d9e22b2f12b331285cb,2021-07-29_22h11.02.334,Simcolourproject_2stim_asymm_v5,2020.2.10,MacIntel,60,61025ae37ef11b136ea224fe,,,,,,,,,2625,56.21875,21.7734375,1,0,0,response1disk,,6,-6.28125,11.1875,1,0,0,rectangle,-6.28125,11.1875,1,0,0,-6.28125,11.1875,1,0,0,1,27,187,103,1,,,,,,,,
,,,,,,,,,,,,,FF,,,,,,,,0.3669,,,,,,,,,,,,,,,,,,,,,,60ff4278d80ae9f23e25eb4b,61036d9e22b2f12b331285cb,2021-07-29_22h11.02.334,Simcolourproject_2stim_asymm_v5,2020.2.10,MacIntel,60,61025ae37ef11b136ea224fe,,,,,,,,,3962,35.1640625,99.0390625,1,0,0,response1disk,,7,8.765625,-1.26953125,1,0,0,rectangle,8.765625,-1.26953125,1,0,0,8.765625,-1.26953125,1,0,0,1,28,188,156,1,,,,,,,,
,,,,,,,,,,,,,FF,,,,,,,,0.5833,,,,,,,,,,,,,,,,,,,,,,60ff4278d80ae9f23e25eb4b,61036d9e22b2f12b331285cb,2021-07-29_22h11.02.334,Simcolourproject_2stim_asymm_v5,2020.2.10,MacIntel,60,61025ae37ef11b136ea224fe,,,,,,,,,3150,-86.59765625,-45.453125,1,0,0,response5disk,,2,-21.6640625,-13.125,1,0,0,rectangle,26.10546875,-104.078125,1,0,0,17.66796875,-8.19140625,1,0,0,1,29,189,45,1,,response3disk_3,TRUE,4,4,"[2,173,69,38,107,224,105,69,181,57,246,208,198,298,277,173,190,227,106,179]",1.3191,rectangle
,,,,,,,,,,,,,FF,,,,,,,,0.534,,,,,,,,,,,,,,,,,,,,,,60ff4278d80ae9f23e25eb4b,61036d9e22b2f12b331285cb,2021-07-29_22h11.02.334,Simcolourproject_2stim_asymm_v5,2020.2.10,MacIntel,60,61025ae37ef11b136ea224fe,,,,,,,,,3117,81.65234375,34.46875,1,0,0,response1disk,,6,2.671875,7.80859375,1,0,0,rectangle,2.671875,7.80859375,1,0,0,2.671875,7.80859375,1,0,0,1,30,190,41,1,,,,,,,,
,,,,,,,,,,,,,FF,,,,,,,,0.5008,,,,,,,,,,,,,,,,,,,,,,60ff4278d80ae9f23e25eb4b,61036d9e22b2f12b331285cb,2021-07-29_22h11.02.334,Simcolourproject_2stim_asymm_v5,2020.2.10,MacIntel,60,61025ae37ef11b136ea224fe,,,,,,,,,3234,27.05859375,102.859375,1,0,0,response1disk,,7,6.03515625,-15.51171875,1,0,0,rectangle,6.03515625,-15.51171875,1,0,0,6.03515625,-15.51171875,1,0,0,1,31,191,49,1,,,,,,,,
,,,,,,,,,,,,,FF,,,,,,,,0.584,,,,,,,,,,,,,,,,,,,,,,60ff4278d80ae9f23e25eb4b,61036d9e22b2f12b331285cb,2021-07-29_22h11.02.334,Simcolourproject_2stim_asymm_v5,2020.2.10,MacIntel,60,61025ae37ef11b136ea224fe,,,,,,,,,4123,-82.2890625,48.57421875,1,0,0,response7disk,,1,-21.0859375,-12,1,0,0,rectangle,-21.0859375,-12,1,0,0,-21.0859375,-12,1,0,0,1,32,192,26,1,,,,,,,,
,,,,,,,,,,,,,FF,,,,,,,,0.4671,,,,,,,,,,,,,,,,,,,,,,60ff4278d80ae9f23e25eb4b,61036d9e22b2f12b331285cb,2021-07-29_22h11.02.334,Simcolourproject_2stim_asymm_v5,2020.2.10,MacIntel,60,61025ae37ef11b136ea224fe,,,,,,,,,3915,-67.38671875,-46.14453125,1,0,0,response5disk,,2,-22.984375,-3.51171875,1,0,0,rectangle,-22.984375,-3.51171875,1,0,0,-22.984375,-3.51171875,1,0,0,1,33,193,99,1,,,,,,,,
,,,,,,,,,,,,,FF,,,,,,,,0.4333,,,,,,,,,,,,,,,,,,,,,,60ff4278d80ae9f23e25eb4b,61036d9e22b2f12b331285cb,2021-07-29_22h11.02.334,Simcolourproject_2stim_asymm_v5,2020.2.10,MacIntel,60,61025ae37ef11b136ea224fe,,,,,,,,,3020,38.5703125,84.90234375,1,0,0,response1disk,,7,7.6484375,-15.578125,1,0,0,rectangle,7.6484375,-15.578125,1,0,0,7.6484375,-15.578125,1,0,0,1,34,194,87,1,,,,,,,,
,,,,,,,,,,,,,FF,,,,,,,,0.4849,,,,,,,,,,,,,,,,,,,,,,60ff4278d80ae9f23e25eb4b,61036d9e22b2f12b331285cb,2021-07-29_22h11.02.334,Simcolourproject_2stim_asymm_v5,2020.2.10,MacIntel,60,61025ae37ef11b136ea224fe,,,,,,,,,222,61.21484375,53.5078125,1,0,0,response1disk,,6,-9.296875,-5.58203125,1,0,0,rectangle,-9.296875,-5.58203125,1,0,0,-9.296875,-5.58203125,1,0,0,1,35,195,1,1,,,,,,,,
,,,,,,,,,,,,,FF,,,,,,,,0.6501,,,,,,,,,,,,,,,,,,,,,,60ff4278d80ae9f23e25eb4b,61036d9e22b2f12b331285cb,2021-07-29_22h11.02.334,Simcolourproject_2stim_asymm_v5,2020.2.10,MacIntel,60,61025ae37ef11b136ea224fe,,,,,,,,,192,-93.96484375,44.62109375,1,0,0,response7disk,,1,14.1328125,-4.56640625,1,0,0,rectangle,14.1328125,-4.56640625,1,0,0,14.1328125,-4.56640625,1,0,0,1,36,196,79,1,,,,,,,,
,,,,,,,,,,,,,FF,,,,,,,,0.4001,,,,,,,,,,,,,,,,,,,,,,60ff4278d80ae9f23e25eb4b,61036d9e22b2f12b331285cb,2021-07-29_22h11.02.334,Simcolourproject_2stim_asymm_v5,2020.2.10,MacIntel,60,61025ae37ef11b136ea224fe,,,,,,,,,3151,-53.30859375,-41.19140625,1,0,0,response5disk,,2,-4.33203125,4.51171875,1,0,0,rectangle,24.76171875,62.015625,1,0,0,-9.8046875,-6.75390625,1,0,0,1,37,197,44,1,,response1disk_3,TRUE,7,7,"[2,173,69,38,107,224,105,69,181,57,246,208,198,298,277,173,190,227,106,179]",1.6832,rectangle
,,,,,,,,,,,,,FF,,,,,,,,1.5667,,,,,,,,,,,,,,,,,,,,,,60ff4278d80ae9f23e25eb4b,61036d9e22b2f12b331285cb,2021-07-29_22h11.02.334,Simcolourproject_2stim_asymm_v5,2020.2.10,MacIntel,60,61025ae37ef11b136ea224fe,,,,,,,,,1165,44.875,99.328125,1,0,0,response1disk,,7,9.171875,-14.26953125,1,0,0,rectangle,9.171875,-14.26953125,1,0,0,9.171875,-14.26953125,1,0,0,1,38,198,120,1,,,,,,,,
,,,,,,,,,,,,,FF,,,,,,,,4.5172,,,,,,,,,,,,,,,,,,,,,,60ff4278d80ae9f23e25eb4b,61036d9e22b2f12b331285cb,2021-07-29_22h11.02.334,Simcolourproject_2stim_asymm_v5,2020.2.10,MacIntel,60,61025ae37ef11b136ea224fe,,,,,,,,,249,35.6953125,88.85546875,1,0,0,response1disk,,7,-5.1015625,7.984375,1,0,0,rectangle,-5.1015625,7.984375,1,0,0,-5.1015625,7.984375,1,0,0,1,39,199,88,1,,,,,,,,
,,,,,,,,,,,,,FF,,,,,,,,0.5503,,,,,,,,,,,,,,,,,,,,,,60ff4278d80ae9f23e25eb4b,61036d9e22b2f12b331285cb,2021-07-29_22h11.02.334,Simcolourproject_2stim_asymm_v5,2020.2.10,MacIntel,60,61025ae37ef11b136ea224fe,,,,,,,,,626,34.58984375,41.5546875,1,0,0,response1disk,,7,-4.04296875,-1.19921875,1,0,0,rectangle,-4.04296875,-1.19921875,1,0,0,-4.04296875,-1.19921875,1,0,0,1,40,200,150,1,,,,,,,,
,,,,,,,,,,,,,FF,,,,,,,,0.5511,,,,,,,,,,,,,,,,,,,,,,60ff4278d80ae9f23e25eb4b,61036d9e22b2f12b331285cb,2021-07-29_22h11.02.334,Simcolourproject_2stim_asymm_v5,2020.2.10,MacIntel,60,61025ae37ef11b136ea224fe,,,,,,,,,2829,36.2265625,52.3046875,1,0,0,response1disk,,7,13.6953125,9.828125,1,0,0,rectangle,13.6953125,9.828125,1,0,0,13.6953125,9.828125,1,0,0,1,41,201,54,1,,,,,,,,
,,,,,,,,,,,,,FF,,,,,,,,1.0691,,,,,,,,,,,,,,,,,,,,,,60ff4278d80ae9f23e25eb4b,61036d9e22b2f12b331285cb,2021-07-29_22h11.02.334,Simcolourproject_2stim_asymm_v5,2020.2.10,MacIntel,60,61025ae37ef11b136ea224fe,,,,,,,,,3920,-77.50390625,-38.74609375,1,0,0,response5disk,,2,14.703125,13.40234375,1,0,0,rectangle,14.703125,13.40234375,1,0,0,14.703125,13.40234375,1,0,0,1,42,202,81,1,,,,,,,,
,,,,,,,,,,,,,FF,,,,,,,,1.8523,,,,,,,,,,,,,,,,,,,,,,60ff4278d80ae9f23e25eb4b,61036d9e22b2f12b331285cb,2021-07-29_22h11.02.334,Simcolourproject_2stim_asymm_v5,2020.2.10,MacIntel,60,61025ae37ef11b136ea224fe,,,,,,,,,370,-80.73046875,35.6875,1,0,0,response7disk,,1,-10.12109375,-5.84375,1,0,0,rectangle,-10.12109375,-5.84375,1,0,0,-10.12109375,-5.84375,1,0,0,1,43,203,98,1,,,,,,,,
,,,,,,,,,,,,,FF,,,,,,,,1.3815,,,,,,,,,,,,,,,,,,,,,,60ff4278d80ae9f23e25eb4b,61036d9e22b2f12b331285cb,2021-07-29_22h11.02.334,Simcolourproject_2stim_asymm_v5,2020.2.10,MacIntel,60,61025ae37ef11b136ea224fe,,,,,,,,,748,93.82421875,-50.65625,1,0,0,response3disk,,5,8.29296875,10.80859375,1,0,0,rectangle,8.29296875,10.80859375,1,0,0,8.29296875,10.80859375,1,0,0,1,44,204,133,1,,,,,,,,
,,,,,,,,,,,,,FF,,,,,,,,1.1329,,,,,,,,,,,,,,,,,,,,,,60ff4278d80ae9f23e25eb4b,61036d9e22b2f12b331285cb,2021-07-29_22h11.02.334,Simcolourproject_2stim_asymm_v5,2020.2.10,MacIntel,60,61025ae37ef11b136ea224fe,,,,,,,,,3847,-73.50390625,35.82421875,1,0,0,response7disk,,1,5.94140625,7.05859375,1,0,0,rectangle,5.94140625,7.05859375,1,0,0,5.94140625,7.05859375,1,0,0,1,45,205,86,1,,,,,,,,
,,,,,,,,,,,,,FF,,,,,,,,0.6998,,,,,,,,,,,,,,,,,,,,,,60ff4278d80ae9f23e25eb4b,61036d9e22b2f12b331285cb,2021-07-29_22h11.02.334,Simcolourproject_2stim_asymm_v5,2020.2.10,MacIntel,60,61025ae37ef11b136ea224fe,,,,,,,,,2282,47.29296875,78.9765625,1,0,0,response1disk,,7,-11.17578125,-7.7734375,1,0,0,rectangle,-11.17578125,-7.7734375,1,0,0,-11.17578125,-7.7734375,1,0,0,1,46,206,131,1,,,,,,,,
,,,,,,,,,,,,,FF,,,,,,,,1.0815,,,,,,,,,,,,,,,,,,,,,,60ff4278d80ae9f23e25eb4b,61036d9e22b2f12b331285cb,2021-07-29_22h11.02.334,Simcolourproject_2stim_asymm_v5,2020.2.10,MacIntel,60,61025ae37ef11b136ea224fe,,,,,,,,,3329,-90.0703125,-38.05859375,1,0,0,response5disk,,2,-18.9765625,-5.37890625,1,0,0,rectangle,38.59765625,-74.87109375,1,0,0,5.078125,-8.32421875,1,0,0,1,47,207,135,1,,response3disk_3,TRUE,4,4,"[2,173,69,38,107,224,105,69,181,57,246,208,198,298,277,173,190,227,106,179]",1.1489,rectangle
,,,,,,,,,,,,,FF,,,,,,,,0.6335,,,,,,,,,,,,,,,,,,,,,,60ff4278d80ae9f23e25eb4b,61036d9e22b2f12b331285cb,2021-07-29_22h11.02.334,Simcolourproject_2stim_asymm_v5,2020.2.10,MacIntel,60,61025ae37ef11b136ea224fe,,,,,,,,,1119,-91.7265625,37.7265625,1,0,0,response7disk,,1,12.92578125,-0.0703125,1,0,0,rectangle,12.92578125,-0.0703125,1,0,0,12.92578125,-0.0703125,1,0,0,1,48,208,35,1,,,,,,,,
,,,,,,,,,,,,,FF,,,,,,,,0.8334,,,,,,,,,,,,,,,,,,,,,,60ff4278d80ae9f23e25eb4b,61036d9e22b2f12b331285cb,2021-07-29_22h11.02.334,Simcolourproject_2stim_asymm_v5,2020.2.10,MacIntel,60,61025ae37ef11b136ea224fe,,,,,,,,,1601,-88.1640625,38.390625,1,0,0,response7disk,,1,-22.3828125,-1.0859375,1,0,0,rectangle,-22.3828125,-1.0859375,1,0,0,-22.3828125,-1.0859375,1,0,0,1,49,209,96,1,,,,,,,,
,,,,,,,,,,,,,FF,,,,,,,,1.185,,,,,,,,,,,,,,,,,,,,,,60ff4278d80ae9f23e25eb4b,61036d9e22b2f12b331285cb,2021-07-29_22h11.02.334,Simcolourproject_2stim_asymm_v5,2020.2.10,MacIntel,60,61025ae37ef11b136ea224fe,,,,,,,,,2347,37.9375,-64.47265625,1,0,0,response3disk,,4,-16.0859375,10.1953125,1,0,0,rectangle,-16.0859375,10.1953125,1,0,0,-16.0859375,10.1953125,1,0,0,1,50,210,62,1,,,,,,,,
,,,,,,,,,,,,,FF,,,,,,,,0.8993,,,,,,,,,,,,,,,,,,,,,,60ff4278d80ae9f23e25eb4b,61036d9e22b2f12b331285cb,2021-07-29_22h11.02.334,Simcolourproject_2stim_asymm_v5,2020.2.10,MacIntel,60,61025ae37ef11b136ea224fe,,,,,,,,,353,-80.46484375,46.34765625,1,0,0,response7disk,,1,22.85546875,-14.6171875,1,0,0,rectangle,22.85546875,-14.6171875,1,0,0,22.85546875,-14.6171875,1,0,0,1,51,211,76,1,,,,,,,,
,,,,,,,,,,,,,FF,,,,,,,,0.4174,,,,,,,,,,,,,,,,,,,,,,60ff4278d80ae9f23e25eb4b,61036d9e22b2f12b331285cb,2021-07-29_22h11.02.334,Simcolourproject_2stim_asymm_v5,2020.2.10,MacIntel,60,61025ae37ef11b136ea224fe,,,,,,,,,3711,-72.30078125,43.13671875,1,0,0,response7disk,,1,1.046875,-17.09375,1,0,0,rectangle,1.046875,-17.09375,1,0,0,1.046875,-17.09375,1,0,0,1,52,212,116,1,,,,,,,,
,,,,,,,,,,,,,FF,,,,,,,,0.4502,,,,,,,,,,,,,,,,,,,,,,60ff4278d80ae9f23e25eb4b,61036d9e22b2f12b331285cb,2021-07-29_22h11.02.334,Simcolourproject_2stim_asymm_v5,2020.2.10,MacIntel,60,61025ae37ef11b136ea224fe,,,,,,,,,3778,-74.10546875,40.109375,1,0,0,response7disk,,1,1.92578125,-2.85546875,1,0,0,rectangle,1.92578125,-2.85546875,1,0,0,1.92578125,-2.85546875,1,0,0,1,53,213,147,1,,,,,,,,
,,,,,,,,,,,,,FF,,,,,,,,0.75,,,,,,,,,,,,,,,,,,,,,,60ff4278d80ae9f23e25eb4b,61036d9e22b2f12b331285cb,2021-07-29_22h11.02.334,Simcolourproject_2stim_asymm_v5,2020.2.10,MacIntel,60,61025ae37ef11b136ea224fe,,,,,,,,,2036,-78.77734375,-28.45703125,1,0,0,response5disk,,2,26.35546875,15.02734375,1,0,0,rectangle,26.35546875,15.02734375,1,0,0,26.35546875,15.02734375,1,0,0,1,54,214,24,1,,,,,,,,
,,,,,,,,,,,,,FF,,,,,,,,0.7502,,,,,,,,,,,,,,,,,,,,,,60ff4278d80ae9f23e25eb4b,61036d9e22b2f12b331285cb,2021-07-29_22h11.02.334,Simcolourproject_2stim_asymm_v5,2020.2.10,MacIntel,60,61025ae37ef11b136ea224fe,,,,,,,,,140,53.609375,76.8203125,1,0,0,response1disk,,7,-2.72265625,-7.125,1,0,0,rectangle,-2.72265625,-7.125,1,0,0,-2.72265625,-7.125,1,0,0,1,55,215,23,1,,,,,,,,
,,,,,,,,,,,,,FF,,,,,,,,0.9004,,,,,,,,,,,,,,,,,,,,,,60ff4278d80ae9f23e25eb4b,61036d9e22b2f12b331285cb,2021-07-29_22h11.02.334,Simcolourproject_2stim_asymm_v5,2020.2.10,MacIntel,60,61025ae37ef11b136ea224fe,,,,,,,,,1593,35.92578125,58.4140625,1,0,0,response1disk,,7,-4.49609375,-15.5390625,1,0,0,rectangle,-4.49609375,-15.5390625,1,0,0,-4.49609375,-15.5390625,1,0,0,1,56,216,52,1,,,,,,,,
,,,,,,,,,,,,,FF,,,,,,,,0.7318,,,,,,,,,,,,,,,,,,,,,,60ff4278d80ae9f23e25eb4b,61036d9e22b2f12b331285cb,2021-07-29_22h11.02.334,Simcolourproject_2stim_asymm_v5,2020.2.10,MacIntel,60,61025ae37ef11b136ea224fe,,,,,,,,,82,-73.015625,-46.51171875,1,0,0,response5disk,,2,26.265625,8.86328125,1,0,0,rectangle,26.265625,8.86328125,1,0,0,26.265625,8.86328125,1,0,0,1,57,217,106,1,,,,,,,,
,,,,,,,,,,,,,FF,,,,,,,,0.5841,,,,,,,,,,,,,,,,,,,,,,60ff4278d80ae9f23e25eb4b,61036d9e22b2f12b331285cb,2021-07-29_22h11.02.334,Simcolourproject_2stim_asymm_v5,2020.2.10,MacIntel,60,61025ae37ef11b136ea224fe,,,,,,,,,4010,-33.8203125,-84.9375,1,0,0,response5disk,,3,0.93359375,9.21875,1,0,0,rectangle,0.93359375,9.21875,1,0,0,0.93359375,9.21875,1,0,0,1,58,218,151,1,,,,,,,,
,,,,,,,,,,,,,FF,,,,,,,,0.433,,,,,,,,,,,,,,,,,,,,,,60ff4278d80ae9f23e25eb4b,61036d9e22b2f12b331285cb,2021-07-29_22h11.02.334,Simcolourproject_2stim_asymm_v5,2020.2.10,MacIntel,60,61025ae37ef11b136ea224fe,,,,,,,,,3729,30.84765625,-65.36328125,1,0,0,response3disk,,4,0.68359375,6.65625,1,0,0,rectangle,0.68359375,6.65625,1,0,0,0.68359375,6.65625,1,0,0,1,59,219,10,1,,,,,,,,
,,,,,,,,,,,,,FF,,,,,,,,1.0973,,,,,,,,,,,,,,,,,,,,,,60ff4278d80ae9f23e25eb4b,61036d9e22b2f12b331285cb,2021-07-29_22h11.02.334,Simcolourproject_2stim_asymm_v5,2020.2.10,MacIntel,60,61025ae37ef11b136ea224fe,,,,,,,,,2171,-62.96875,21.3671875,1,0,0,response7disk,,1,16.3984375,1.60546875,1,0,0,rectangle,16.3984375,1.60546875,1,0,0,16.3984375,1.60546875,1,0,0,1,60,220,8,1,,,,,,,,
,,,,,,,,,,,,,FF,,,,,,,,0.7497,,,,,,,,,,,,,,,,,,,,,,60ff4278d80ae9f23e25eb4b,61036d9e22b2f12b331285cb,2021-07-29_22h11.02.334,Simcolourproject_2stim_asymm_v5,2020.2.10,MacIntel,60,61025ae37ef11b136ea224fe,,,,,,,,,3841,62.72265625,64.375,1,0,0,response1disk,,7,12.47265625,-1.234375,1,0,0,rectangle,12.47265625,-1.234375,1,0,0,12.47265625,-1.234375,1,0,0,1,61,221,70,1,,,,,,,,
,,,,,,,,,,,,,FF,,,,,,,,0.5693,,,,,,,,,,,,,,,,,,,,,,60ff4278d80ae9f23e25eb4b,61036d9e22b2f12b331285cb,2021-07-29_22h11.02.334,Simcolourproject_2stim_asymm_v5,2020.2.10,MacIntel,60,61025ae37ef11b136ea224fe,,,,,,,,,1814,79.6171875,-48.91796875,1,0,0,response3disk,,5,-18.99609375,0.41015625,1,0,0,rectangle,-18.99609375,0.41015625,1,0,0,-18.99609375,0.41015625,1,0,0,1,62,222,126,1,,,,,,,,
,,,,,,,,,,,,,FF,,,,,,,,0.5334,,,,,,,,,,,,,,,,,,,,,,60ff4278d80ae9f23e25eb4b,61036d9e22b2f12b331285cb,2021-07-29_22h11.02.334,Simcolourproject_2stim_asymm_v5,2020.2.10,MacIntel,60,61025ae37ef11b136ea224fe,,,,,,,,,2832,-69.26953125,41.82421875,1,0,0,response7disk,,1,13.09375,-1.50390625,1,0,0,rectangle,82.125,49.3984375,1,0,0,-3.8203125,-1.18359375,1,0,0,1,63,223,69,1,,response1disk_3,TRUE,6,6,"[2,173,69,38,107,224,105,69,181,57,246,208,198,298,277,173,190,227,106,179]",1.3138,rectangle
,,,,,,,,,,,,,FF,,,,,,,,0.7341,,,,,,,,,,,,,,,,,,,,,,60ff4278d80ae9f23e25eb4b,61036d9e22b2f12b331285cb,2021-07-29_22h11.02.334,Simcolourproject_2stim_asymm_v5,2020.2.10,MacIntel,60,61025ae37ef11b136ea224fe,,,,,,,,,3106,-71.640625,45.1953125,1,0,0,response7disk,,1,-5.66796875,-3.71484375,1,0,0,rectangle,-5.66796875,-3.71484375,1,0,0,-5.66796875,-3.71484375,1,0,0,1,64,224,61,1,,,,,,,,
,,,,,,,,,,,,,FF,,,,,,,,0.7509,,,,,,,,,,,,,,,,,,,,,,60ff4278d80ae9f23e25eb4b,61036d9e22b2f12b331285cb,2021-07-29_22h11.02.334,Simcolourproject_2stim_asymm_v5,2020.2.10,MacIntel,60,61025ae37ef11b136ea224fe,,,,,,,,,20,25.98046875,70.828125,1,0,0,response1disk,,7,2.78125,10.40234375,1,0,0,rectangle,2.78125,10.40234375,1,0,0,2.78125,10.40234375,1,0,0,1,65,225,129,1,,,,,,,,
,,,,,,,,,,,,,FF,,,,,,,,0.4999,,,,,,,,,,,,,,,,,,,,,,60ff4278d80ae9f23e25eb4b,61036d9e22b2f12b331285cb,2021-07-29_22h11.02.334,Simcolourproject_2stim_asymm_v5,2020.2.10,MacIntel,60,61025ae37ef11b136ea224fe,,,,,,,,,3774,31.5703125,47.74609375,1,0,0,response1disk,,7,-1.40234375,-10.67578125,1,0,0,rectangle,-53.33203125,116.5625,1,0,0,-2.62890625,-3.98828125,1,0,0,1,66,226,42,1,,response7disk_3,TRUE,0,0,"[2,173,69,38,107,224,105,69,181,57,246,208,198,298,277,173,190,227,106,179]",1.6999,rectangle
,,,,,,,,,,,,,FF,,,,,,,,0.6835,,,,,,,,,,,,,,,,,,,,,,60ff4278d80ae9f23e25eb4b,61036d9e22b2f12b331285cb,2021-07-29_22h11.02.334,Simcolourproject_2stim_asymm_v5,2020.2.10,MacIntel,60,61025ae37ef11b136ea224fe,,,,,,,,,2181,-91.03125,-57.91796875,1,0,0,response5disk,,2,-11.7578125,-0.953125,1,0,0,rectangle,-11.7578125,-0.953125,1,0,0,-11.7578125,-0.953125,1,0,0,1,67,227,38,1,,,,,,,,
,,,,,,,,,,,,,FF,,,,,,,,0.4651,,,,,,,,,,,,,,,,,,,,,,60ff4278d80ae9f23e25eb4b,61036d9e22b2f12b331285cb,2021-07-29_22h11.02.334,Simcolourproject_2stim_asymm_v5,2020.2.10,MacIntel,60,61025ae37ef11b136ea224fe,,,,,,,,,1749,-93.19140625,-21.1484375,1,0,0,response5disk,,2,-19.0234375,-1.75390625,1,0,0,rectangle,-19.0234375,-1.75390625,1,0,0,-19.0234375,-1.75390625,1,0,0,1,68,228,125,1,,,,,,,,
,,,,,,,,,,,,,FF,,,,,,,,0.6337,,,,,,,,,,,,,,,,,,,,,,60ff4278d80ae9f23e25eb4b,61036d9e22b2f12b331285cb,2021-07-29_22h11.02.334,Simcolourproject_2stim_asymm_v5,2020.2.10,MacIntel,60,61025ae37ef11b136ea224fe,,,,,,,,,1432,76.80078125,-27.73828125,1,0,0,response3disk,,5,-22.84765625,14.8828125,1,0,0,rectangle,-22.84765625,14.8828125,1,0,0,-22.84765625,14.8828125,1,0,0,1,69,229,130,1,,,,,,,,
,,,,,,,,,,,,,FF,,,,,,,,0.3996,,,,,,,,,,,,,,,,,,,,,,60ff4278d80ae9f23e25eb4b,61036d9e22b2f12b331285cb,2021-07-29_22h11.02.334,Simcolourproject_2stim_asymm_v5,2020.2.10,MacIntel,60,61025ae37ef11b136ea224fe,,,,,,,,,129,19.5703125,39.06640625,1,0,0,response1disk,,7,-6.125,-15.07421875,1,0,0,rectangle,-6.125,-15.07421875,1,0,0,-6.125,-15.07421875,1,0,0,1,70,230,155,1,,,,,,,,
,,,,,,,,,,,,,FF,,,,,,,,0.5148,,,,,,,,,,,,,,,,,,,,,,60ff4278d80ae9f23e25eb4b,61036d9e22b2f12b331285cb,2021-07-29_22h11.02.334,Simcolourproject_2stim_asymm_v5,2020.2.10,MacIntel,60,61025ae37ef11b136ea224fe,,,,,,,,,1906,31.9140625,65.70703125,1,0,0,response1disk,,7,-8.27734375,-15.453125,1,0,0,rectangle,-8.27734375,-15.453125,1,0,0,-8.27734375,-15.453125,1,0,0,1,71,231,19,1,,,,,,,,
,,,,,,,,,,,,,FF,,,,,,,,0.616,,,,,,,,,,,,,,,,,,,,,,60ff4278d80ae9f23e25eb4b,61036d9e22b2f12b331285cb,2021-07-29_22h11.02.334,Simcolourproject_2stim_asymm_v5,2020.2.10,MacIntel,60,61025ae37ef11b136ea224fe,,,,,,,,,2034,-81.421875,-41.1328125,1,0,0,response5disk,,2,11.76171875,-3.14453125,1,0,0,rectangle,11.76171875,-3.14453125,1,0,0,11.76171875,-3.14453125,1,0,0,1,72,232,47,1,,,,,,,,
,,,,,,,,,,,,,FF,,,,,,,,0.4164,,,,,,,,,,,,,,,,,,,,,,60ff4278d80ae9f23e25eb4b,61036d9e22b2f12b331285cb,2021-07-29_22h11.02.334,Simcolourproject_2stim_asymm_v5,2020.2.10,MacIntel,60,61025ae37ef11b136ea224fe,,,,,,,,,3300,62.1953125,29.92578125,1,0,0,response1disk,,6,-21.59375,-12.8828125,1,0,0,rectangle,-21.59375,-12.8828125,1,0,0,-21.59375,-12.8828125,1,0,0,1,73,233,78,1,,,,,,,,
,,,,,,,,,,,,,FF,,,,,,,,0.4812,,,,,,,,,,,,,,,,,,,,,,60ff4278d80ae9f23e25eb4b,61036d9e22b2f12b331285cb,2021-07-29_22h11.02.334,Simcolourproject_2stim_asymm_v5,2020.2.10,MacIntel,60,61025ae37ef11b136ea224fe,,,,,,,,,1662,21.1171875,62.78125,1,0,0,response1disk,,7,0.4296875,-3.0859375,1,0,0,rectangle,0.4296875,-3.0859375,1,0,0,0.4296875,-3.0859375,1,0,0,1,74,234,3,1,,,,,,,,
,,,,,,,,,,,,,FF,,,,,,,,0.4665,,,,,,,,,,,,,,,,,,,,,,60ff4278d80ae9f23e25eb4b,61036d9e22b2f12b331285cb,2021-07-29_22h11.02.334,Simcolourproject_2stim_asymm_v5,2020.2.10,MacIntel,60,61025ae37ef11b136ea224fe,,,,,,,,,2798,26.43359375,41.51953125,1,0,0,response1disk,,7,2.9453125,-15.4609375,1,0,0,rectangle,2.9453125,-15.4609375,1,0,0,2.9453125,-15.4609375,1,0,0,1,75,235,109,1,,,,,,,,
,,,,,,,,,,,,,FF,,,,,,,,0.6173,,,,,,,,,,,,,,,,,,,,,,60ff4278d80ae9f23e25eb4b,61036d9e22b2f12b331285cb,2021-07-29_22h11.02.334,Simcolourproject_2stim_asymm_v5,2020.2.10,MacIntel,60,61025ae37ef11b136ea224fe,,,,,,,,,3765,23.4140625,53.51171875,1,0,0,response1disk,,7,11.56640625,-5.703125,1,0,0,rectangle,11.56640625,-5.703125,1,0,0,11.56640625,-5.703125,1,0,0,1,76,236,71,1,,,,,,,,
,,,,,,,,,,,,,FF,,,,,,,,0.4001,,,,,,,,,,,,,,,,,,,,,,60ff4278d80ae9f23e25eb4b,61036d9e22b2f12b331285cb,2021-07-29_22h11.02.334,Simcolourproject_2stim_asymm_v5,2020.2.10,MacIntel,60,61025ae37ef11b136ea224fe,,,,,,,,,1183,55.3828125,29.8046875,1,0,0,response1disk,,6,-7.85546875,-10.7421875,1,0,0,rectangle,-7.85546875,-10.7421875,1,0,0,-7.85546875,-10.7421875,1,0,0,1,77,237,40,1,,,,,,,,
,,,,,,,,,,,,,FF,,,,,,,,0.4493,,,,,,,,,,,,,,,,,,,,,,60ff4278d80ae9f23e25eb4b,61036d9e22b2f12b331285cb,2021-07-29_22h11.02.334,Simcolourproject_2stim_asymm_v5,2020.2.10,MacIntel,60,61025ae37ef11b136ea224fe,,,,,,,,,4223,-72.421875,16.62890625,1,0,0,response7disk,,1,3.984375,-0.44921875,1,0,0,rectangle,3.984375,-0.44921875,1,0,0,3.984375,-0.44921875,1,0,0,1,78,238,43,1,,,,,,,,
,,,,,,,,,,,,,FF,,,,,,,,0.5167,,,,,,,,,,,,,,,,,,,,,,60ff4278d80ae9f23e25eb4b,61036d9e22b2f12b331285cb,2021-07-29_22h11.02.334,Simcolourproject_2stim_asymm_v5,2020.2.10,MacIntel,60,61025ae37ef11b136ea224fe,,,,,,,,,1369,-68.1328125,-25.6171875,1,0,0,response5disk,,2,19.80078125,10.58984375,1,0,0,rectangle,19.80078125,10.58984375,1,0,0,19.80078125,10.58984375,1,0,0,1,79,239,64,1,,,,,,,,
,,,,,,,,,,,,,FF,,,,,,,,0.582,,,,,,,,,,,,,,,,,,,,,,60ff4278d80ae9f23e25eb4b,61036d9e22b2f12b331285cb,2021-07-29_22h11.02.334,Simcolourproject_2stim_asymm_v5,2020.2.10,MacIntel,60,61025ae37ef11b136ea224fe,,,,,,,,,728,-82.30078125,34.23828125,1,0,0,response7disk,,1,1.90234375,-6.703125,1,0,0,rectangle,1.90234375,-6.703125,1,0,0,1.90234375,-6.703125,1,0,0,1,80,240,14,1,,,,,,,,
,,,,,,,,,,,,,FF,,,,,,,,0.5814,,,,,,,,,,,,,,,,,,,,,,60ff4278d80ae9f23e25eb4b,61036d9e22b2f12b331285cb,2021-07-29_22h11.02.334,Simcolourproject_2stim_asymm_v5,2020.2.10,MacIntel,60,61025ae37ef11b136ea224fe,,,,,,,,,3886,74.9140625,36.578125,1,0,0,response1disk,,6,-17.36328125,-0.765625,1,0,0,rectangle,-17.36328125,-0.765625,1,0,0,-17.36328125,-0.765625,1,0,0,1,81,241,36,1,,,,,,,,
,,,,,,,,,,,,,FF,,,,,,,,0.4674,,,,,,,,,,,,,,,,,,,,,,60ff4278d80ae9f23e25eb4b,61036d9e22b2f12b331285cb,2021-07-29_22h11.02.334,Simcolourproject_2stim_asymm_v5,2020.2.10,MacIntel,60,61025ae37ef11b136ea224fe,,,,,,,,,293,27.546875,63.94140625,1,0,0,response1disk,,7,4.09375,-6.5078125,1,0,0,rectangle,4.09375,-6.5078125,1,0,0,4.09375,-6.5078125,1,0,0,1,82,242,21,1,,,,,,,,
,,,,,,,,,,,,,FF,,,,,,,,0.7998,,,,,,,,,,,,,,,,,,,,,,60ff4278d80ae9f23e25eb4b,61036d9e22b2f12b331285cb,2021-07-29_22h11.02.334,Simcolourproject_2stim_asymm_v5,2020.2.10,MacIntel,60,61025ae37ef11b136ea224fe,,,,,,,,,3465,58.8125,-62.0546875,1,0,0,response3disk,,4,4.40234375,8.7734375,1,0,0,rectangle,4.40234375,8.7734375,1,0,0,4.40234375,8.7734375,1,0,0,1,83,243,132,1,,,,,,,,
,,,,,,,,,,,,,FF,,,,,,,,0.3841,,,,,,,,,,,,,,,,,,,,,,60ff4278d80ae9f23e25eb4b,61036d9e22b2f12b331285cb,2021-07-29_22h11.02.334,Simcolourproject_2stim_asymm_v5,2020.2.10,MacIntel,60,61025ae37ef11b136ea224fe,,,,,,,,,158,38.0546875,58.15625,1,0,0,response1disk,,7,0.85546875,-17.38671875,1,0,0,rectangle,0.85546875,-17.38671875,1,0,0,0.85546875,-17.38671875,1,0,0,1,84,244,141,1,,,,,,,,
,,,,,,,,,,,,,FF,,,,,,,,0.5474,,,,,,,,,,,,,,,,,,,,,,60ff4278d80ae9f23e25eb4b,61036d9e22b2f12b331285cb,2021-07-29_22h11.02.334,Simcolourproject_2stim_asymm_v5,2020.2.10,MacIntel,60,61025ae37ef11b136ea224fe,,,,,,,,,1173,71.2421875,34.38671875,1,0,0,response1disk,,6,-0.7890625,-4.1953125,1,0,0,rectangle,-82.31640625,-37.6171875,1,0,0,11.44921875,5.05078125,1,0,0,1,85,245,139,1,,response5disk_3,TRUE,2,2,"[2,173,69,38,107,224,105,69,181,57,246,208,198,298,277,173,190,227,106,179]",1.7169,rectangle
,,,,,,,,,,,,,FF,,,,,,,,1.0002,,,,,,,,,,,,,,,,,,,,,,60ff4278d80ae9f23e25eb4b,61036d9e22b2f12b331285cb,2021-07-29_22h11.02.334,Simcolourproject_2stim_asymm_v5,2020.2.10,MacIntel,60,61025ae37ef11b136ea224fe,,,,,,,,,3110,-70.140625,-37.51171875,1,0,0,response5disk,,2,-14.4453125,-12.61328125,1,0,0,rectangle,-14.4453125,-12.61328125,1,0,0,-14.4453125,-12.61328125,1,0,0,1,86,246,75,1,,,,,,,,
,,,,,,,,,,,,,FF,,,,,,,,0.4829,,,,,,,,,,,,,,,,,,,,,,60ff4278d80ae9f23e25eb4b,61036d9e22b2f12b331285cb,2021-07-29_22h11.02.334,Simcolourproject_2stim_asymm_v5,2020.2.10,MacIntel,60,61025ae37ef11b136ea224fe,,,,,,,,,4007,-47.73828125,-75.96484375,1,0,0,response5disk,,3,4.640625,16.234375,1,0,0,rectangle,4.640625,16.234375,1,0,0,4.640625,16.234375,1,0,0,1,87,247,112,1,,,,,,,,
