key_resp.keys,key_resp.rt,key_resp_14.keys,key_resp_14.rt,key_resp_15.keys,key_resp_15.rt,key_resp_17.keys,key_resp_17.rt,key_resp_9.keys,key_resp_9.rt,key_resp_10.keys,key_resp_10.rt,practice_comparison,Ecc,mouse_5.x,mouse_5.y,mouse_5.leftButton,mouse_5.midButton,mouse_5.rightButton,mouse_5.clicked_name,pracsimilarity,response_time,mouse_10.x,mouse_10.y,mouse_10.leftButton,mouse_10.midButton,mouse_10.rightButton,mouse_10.clicked_name,mouse_7.x,mouse_7.y,mouse_7.leftButton,mouse_7.midButton,mouse_7.rightButton,mouse_6.x,mouse_6.y,mouse_6.leftButton,mouse_6.midButton,mouse_6.rightButton,duringprac.thisRepN,duringprac.thisTrialN,duringprac.thisN,duringprac.thisIndex,duringprac.ran,participant,session,date,expName,psychopyVersion,OS,frameRate,study_id,mouse_7.clicked_name,catchpracsimilarity,catch_response_time,catchnumberprac,catchtrialorderprac,mouse_6.clicked_name,key_resp_22.keys,key_resp_22.rt,realcomparison,mouse.x,mouse.y,mouse.leftButton,mouse.midButton,mouse.rightButton,mouse.clicked_name,Colour2,similarity,mouse_2.x,mouse_2.y,mouse_2.leftButton,mouse_2.midButton,mouse_2.rightButton,mouse_2.clicked_name,mouse_3.x,mouse_3.y,mouse_3.leftButton,mouse_3.midButton,mouse_3.rightButton,mouse_11.x,mouse_11.y,mouse_11.leftButton,mouse_11.midButton,mouse_11.rightButton,trials_2.thisRepN,trials_2.thisTrialN,trials_2.thisN,trials_2.thisIndex,trials_2.ran,Colour1,mouse_3.clicked_name,catchornah,catchsimilarity,catchnumber,catchtrialorder,catchRT,mouse_11.clicked_name
space,1.346,space,4.665,space,27.744,space,6.038,space,0.806,space,62.122,79,PF,36,64,1,0,0,response1disk_5,7,9.572,5,-6,1,0,0,rectangle_8,5,-6,1,0,0,5,-6,1,0,0,0,0,0,4,1,60ff244bc01a67f580d9b5ba,61036f0966dec8e5896fc4f8,2021-07-29_22h22.49.719,Simcolourproject_2stim_asymm_v5,2020.2.10,MacIntel,60,61025ae37ef11b136ea224fe,,,,,,,,,,,,,,,,,,,,,,,,,,,,,,,,,,,,,,,,,,,,,,
,,,,,,,,,,,,94,FF,42,74,1,0,0,response1disk_5,7,9.088,8,-3,1,0,0,rectangle_8,43,96,1,0,0,0,-5,1,0,0,0,1,1,3,1,60ff244bc01a67f580d9b5ba,61036f0966dec8e5896fc4f8,2021-07-29_22h22.49.719,Simcolourproject_2stim_asymm_v5,2020.2.10,MacIntel,60,61025ae37ef11b136ea224fe,response1disk_7,7,2.9,7,"[2,5]",rectangle_4,,,,,,,,,,,,,,,,,,,,,,,,,,,,,,,,,,,,,,,,
,,,,,,,,,,,,62,PF,38,55,1,0,0,response1disk_5,7,1.816,-5,-10,1,0,0,rectangle_8,-5,-10,1,0,0,-5,-10,1,0,0,0,2,2,6,1,60ff244bc01a67f580d9b5ba,61036f0966dec8e5896fc4f8,2021-07-29_22h22.49.719,Simcolourproject_2stim_asymm_v5,2020.2.10,MacIntel,60,61025ae37ef11b136ea224fe,,,,,,,,,,,,,,,,,,,,,,,,,,,,,,,,,,,,,,,,,,,,,,
,,,,,,,,,,,,121,PF,73,-38,1,0,0,response3disk_5,5,4.952,1,-6,1,0,0,rectangle_8,1,-6,1,0,0,1,-6,1,0,0,0,3,3,1,1,60ff244bc01a67f580d9b5ba,61036f0966dec8e5896fc4f8,2021-07-29_22h22.49.719,Simcolourproject_2stim_asymm_v5,2020.2.10,MacIntel,60,61025ae37ef11b136ea224fe,,,,,,,,,,,,,,,,,,,,,,,,,,,,,,,,,,,,,,,,,,,,,,
,,,,,,,,,,,,156,FF,36,65,1,0,0,response1disk_5,7,2.718,8,-6,1,0,0,rectangle_8,39,80,1,0,0,11,-4,1,0,0,0,4,4,5,1,60ff244bc01a67f580d9b5ba,61036f0966dec8e5896fc4f8,2021-07-29_22h22.49.719,Simcolourproject_2stim_asymm_v5,2020.2.10,MacIntel,60,61025ae37ef11b136ea224fe,response1disk_7,7,1.4,7,"[2,5]",rectangle_4,,,,,,,,,,,,,,,,,,,,,,,,,,,,,,,,,,,,,,,,
,,,,,,,,,,,,146,FF,-47,-84,1,0,0,response5disk_5,3,3.669,2,-5,1,0,0,rectangle_8,2,-5,1,0,0,2,-5,1,0,0,0,5,5,0,1,60ff244bc01a67f580d9b5ba,61036f0966dec8e5896fc4f8,2021-07-29_22h22.49.719,Simcolourproject_2stim_asymm_v5,2020.2.10,MacIntel,60,61025ae37ef11b136ea224fe,,,,,,,,,,,,,,,,,,,,,,,,,,,,,,,,,,,,,,,,,,,,,,
,,,,,,,,,,,,142,PF,33,58,1,0,0,response1disk_5,7,1.8,-1,4,1,0,0,rectangle_8,-1,4,1,0,0,-1,4,1,0,0,0,6,6,2,1,60ff244bc01a67f580d9b5ba,61036f0966dec8e5896fc4f8,2021-07-29_22h22.49.719,Simcolourproject_2stim_asymm_v5,2020.2.10,MacIntel,60,61025ae37ef11b136ea224fe,,,,,,,,,,,,,,,,,,,,,,,,,,,,,,,,,,,,,,,,,,,,,,
,,,,,,,,,,,,,FF,,,,,,,,4.203,,,,,,,,,,,,,,,,,,,,,,60ff244bc01a67f580d9b5ba,61036f0966dec8e5896fc4f8,2021-07-29_22h22.49.719,Simcolourproject_2stim_asymm_v5,2020.2.10,MacIntel,60,61025ae37ef11b136ea224fe,,,,,,,space,2.609,3233,39,65,1,0,0,response1disk,,7,-1,-6,1,0,0,rectangle,-1,-6,1,0,0,-1,-6,1,0,0,0,0,0,67,1,,,,,,,,
,,,,,,,,,,,,,FF,,,,,,,,3.953,,,,,,,,,,,,,,,,,,,,,,60ff244bc01a67f580d9b5ba,61036f0966dec8e5896fc4f8,2021-07-29_22h22.49.719,Simcolourproject_2stim_asymm_v5,2020.2.10,MacIntel,60,61025ae37ef11b136ea224fe,,,,,,,,,3981,68,-36,1,0,0,response3disk,,5,3,-9,1,0,0,rectangle,3,-9,1,0,0,3,-9,1,0,0,0,1,1,7,1,,,,,,,,
,,,,,,,,,,,,,FF,,,,,,,,3.086,,,,,,,,,,,,,,,,,,,,,,60ff244bc01a67f580d9b5ba,61036f0966dec8e5896fc4f8,2021-07-29_22h22.49.719,Simcolourproject_2stim_asymm_v5,2020.2.10,MacIntel,60,61025ae37ef11b136ea224fe,,,,,,,,,3936,-39,74,1,0,0,response7disk,,0,10,-8,1,0,0,rectangle,10,-8,1,0,0,10,-8,1,0,0,0,2,2,58,1,,,,,,,,
,,,,,,,,,,,,,FF,,,,,,,,2.467,,,,,,,,,,,,,,,,,,,,,,60ff244bc01a67f580d9b5ba,61036f0966dec8e5896fc4f8,2021-07-29_22h22.49.719,Simcolourproject_2stim_asymm_v5,2020.2.10,MacIntel,60,61025ae37ef11b136ea224fe,,,,,,,,,490,46,103,1,0,0,response1disk,,7,-5,6,1,0,0,rectangle,-5,6,1,0,0,-5,6,1,0,0,0,3,3,92,1,,,,,,,,
,,,,,,,,,,,,,FF,,,,,,,,1.4,,,,,,,,,,,,,,,,,,,,,,60ff244bc01a67f580d9b5ba,61036f0966dec8e5896fc4f8,2021-07-29_22h22.49.719,Simcolourproject_2stim_asymm_v5,2020.2.10,MacIntel,60,61025ae37ef11b136ea224fe,,,,,,,,,3796,40,71,1,0,0,response1disk,,7,-11,-4,1,0,0,rectangle,-11,-4,1,0,0,-11,-4,1,0,0,0,4,4,24,1,,,,,,,,
,,,,,,,,,,,,,FF,,,,,,,,2.45,,,,,,,,,,,,,,,,,,,,,,60ff244bc01a67f580d9b5ba,61036f0966dec8e5896fc4f8,2021-07-29_22h22.49.719,Simcolourproject_2stim_asymm_v5,2020.2.10,MacIntel,60,61025ae37ef11b136ea224fe,,,,,,,,,4353,-43,-68,1,0,0,response5disk,,3,8,-1,1,0,0,rectangle,8,-1,1,0,0,8,-1,1,0,0,0,5,5,44,1,,,,,,,,
,,,,,,,,,,,,,FF,,,,,,,,1.485,,,,,,,,,,,,,,,,,,,,,,60ff244bc01a67f580d9b5ba,61036f0966dec8e5896fc4f8,2021-07-29_22h22.49.719,Simcolourproject_2stim_asymm_v5,2020.2.10,MacIntel,60,61025ae37ef11b136ea224fe,,,,,,,,,1350,31,70,1,0,0,response1disk,,7,-10,1,1,0,0,rectangle,-10,1,1,0,0,-10,1,1,0,0,0,6,6,13,1,,,,,,,,
,,,,,,,,,,,,,FF,,,,,,,,1.733,,,,,,,,,,,,,,,,,,,,,,60ff244bc01a67f580d9b5ba,61036f0966dec8e5896fc4f8,2021-07-29_22h22.49.719,Simcolourproject_2stim_asymm_v5,2020.2.10,MacIntel,60,61025ae37ef11b136ea224fe,,,,,,,,,360,50,74,1,0,0,response1disk,,7,-9,-3,1,0,0,rectangle,87,34,1,0,0,-3,2,1,0,0,0,7,7,11,1,,response1disk_3,TRUE,6,6,"[202,29,226,185,195,290,8,193,243,177,45,244,272,39,70,302,226,75,282,180]",4.386,rectangle
,,,,,,,,,,,,,FF,,,,,,,,2.868,,,,,,,,,,,,,,,,,,,,,,60ff244bc01a67f580d9b5ba,61036f0966dec8e5896fc4f8,2021-07-29_22h22.49.719,Simcolourproject_2stim_asymm_v5,2020.2.10,MacIntel,60,61025ae37ef11b136ea224fe,,,,,,,,,3848,-29,-75,1,0,0,response5disk,,3,9,-1,1,0,0,rectangle,9,-1,1,0,0,9,-1,1,0,0,0,8,8,46,1,,,,,,,,
,,,,,,,,,,,,,FF,,,,,,,,2.802,,,,,,,,,,,,,,,,,,,,,,60ff244bc01a67f580d9b5ba,61036f0966dec8e5896fc4f8,2021-07-29_22h22.49.719,Simcolourproject_2stim_asymm_v5,2020.2.10,MacIntel,60,61025ae37ef11b136ea224fe,,,,,,,,,32,40,68,1,0,0,response1disk,,7,-4,-5,1,0,0,rectangle,-4,-5,1,0,0,-4,-5,1,0,0,0,9,9,154,1,,,,,,,,
,,,,,,,,,,,,,FF,,,,,,,,1.5,,,,,,,,,,,,,,,,,,,,,,60ff244bc01a67f580d9b5ba,61036f0966dec8e5896fc4f8,2021-07-29_22h22.49.719,Simcolourproject_2stim_asymm_v5,2020.2.10,MacIntel,60,61025ae37ef11b136ea224fe,,,,,,,,,1944,63,45,1,0,0,response1disk,,6,-1,-4,1,0,0,rectangle,-1,-4,1,0,0,-1,-4,1,0,0,0,10,10,86,1,,,,,,,,
,,,,,,,,,,,,,FF,,,,,,,,1.867,,,,,,,,,,,,,,,,,,,,,,60ff244bc01a67f580d9b5ba,61036f0966dec8e5896fc4f8,2021-07-29_22h22.49.719,Simcolourproject_2stim_asymm_v5,2020.2.10,MacIntel,60,61025ae37ef11b136ea224fe,,,,,,,,,3206,92,42,1,0,0,response1disk,,6,-5,-10,1,0,0,rectangle,-5,-10,1,0,0,-5,-10,1,0,0,0,11,11,14,1,,,,,,,,
,,,,,,,,,,,,,FF,,,,,,,,1.035,,,,,,,,,,,,,,,,,,,,,,60ff244bc01a67f580d9b5ba,61036f0966dec8e5896fc4f8,2021-07-29_22h22.49.719,Simcolourproject_2stim_asymm_v5,2020.2.10,MacIntel,60,61025ae37ef11b136ea224fe,,,,,,,,,2703,51,93,1,0,0,response1disk,,7,-9,-6,1,0,0,rectangle,-9,-6,1,0,0,-9,-6,1,0,0,0,12,12,15,1,,,,,,,,
,,,,,,,,,,,,,FF,,,,,,,,2.219,,,,,,,,,,,,,,,,,,,,,,60ff244bc01a67f580d9b5ba,61036f0966dec8e5896fc4f8,2021-07-29_22h22.49.719,Simcolourproject_2stim_asymm_v5,2020.2.10,MacIntel,60,61025ae37ef11b136ea224fe,,,,,,,,,1485,75,45,1,0,0,response1disk,,6,4,0,1,0,0,rectangle,4,0,1,0,0,4,0,1,0,0,0,13,13,116,1,,,,,,,,
,,,,,,,,,,,,,FF,,,,,,,,1.434,,,,,,,,,,,,,,,,,,,,,,60ff244bc01a67f580d9b5ba,61036f0966dec8e5896fc4f8,2021-07-29_22h22.49.719,Simcolourproject_2stim_asymm_v5,2020.2.10,MacIntel,60,61025ae37ef11b136ea224fe,,,,,,,,,2378,95,70,1,0,0,response1disk,,6,5,5,1,0,0,rectangle,5,5,1,0,0,5,5,1,0,0,0,14,14,85,1,,,,,,,,
,,,,,,,,,,,,,FF,,,,,,,,1.419,,,,,,,,,,,,,,,,,,,,,,60ff244bc01a67f580d9b5ba,61036f0966dec8e5896fc4f8,2021-07-29_22h22.49.719,Simcolourproject_2stim_asymm_v5,2020.2.10,MacIntel,60,61025ae37ef11b136ea224fe,,,,,,,,,3998,-57,-24,1,0,0,response5disk,,2,2,3,1,0,0,rectangle,2,3,1,0,0,2,3,1,0,0,0,15,15,103,1,,,,,,,,
,,,,,,,,,,,,,FF,,,,,,,,3.302,,,,,,,,,,,,,,,,,,,,,,60ff244bc01a67f580d9b5ba,61036f0966dec8e5896fc4f8,2021-07-29_22h22.49.719,Simcolourproject_2stim_asymm_v5,2020.2.10,MacIntel,60,61025ae37ef11b136ea224fe,,,,,,,,,460,-23,-61,1,0,0,response5disk,,3,-3,-12,1,0,0,rectangle,-3,-12,1,0,0,-3,-12,1,0,0,0,16,16,124,1,,,,,,,,
,,,,,,,,,,,,,FF,,,,,,,,0.917,,,,,,,,,,,,,,,,,,,,,,60ff244bc01a67f580d9b5ba,61036f0966dec8e5896fc4f8,2021-07-29_22h22.49.719,Simcolourproject_2stim_asymm_v5,2020.2.10,MacIntel,60,61025ae37ef11b136ea224fe,,,,,,,,,4055,52,64,1,0,0,response1disk,,7,-4,1,1,0,0,rectangle,-4,1,1,0,0,-4,1,1,0,0,0,17,17,71,1,,,,,,,,
,,,,,,,,,,,,,FF,,,,,,,,1.45,,,,,,,,,,,,,,,,,,,,,,60ff244bc01a67f580d9b5ba,61036f0966dec8e5896fc4f8,2021-07-29_22h22.49.719,Simcolourproject_2stim_asymm_v5,2020.2.10,MacIntel,60,61025ae37ef11b136ea224fe,,,,,,,,,3990,39,70,1,0,0,response1disk,,7,10,-7,1,0,0,rectangle,10,-7,1,0,0,10,-7,1,0,0,0,18,18,106,1,,,,,,,,
,,,,,,,,,,,,,FF,,,,,,,,1.367,,,,,,,,,,,,,,,,,,,,,,60ff244bc01a67f580d9b5ba,61036f0966dec8e5896fc4f8,2021-07-29_22h22.49.719,Simcolourproject_2stim_asymm_v5,2020.2.10,MacIntel,60,61025ae37ef11b136ea224fe,,,,,,,,,695,34,57,1,0,0,response1disk,,7,8,-5,1,0,0,rectangle,8,-5,1,0,0,8,-5,1,0,0,0,19,19,149,1,,,,,,,,
,,,,,,,,,,,,,FF,,,,,,,,1.9,,,,,,,,,,,,,,,,,,,,,,60ff244bc01a67f580d9b5ba,61036f0966dec8e5896fc4f8,2021-07-29_22h22.49.719,Simcolourproject_2stim_asymm_v5,2020.2.10,MacIntel,60,61025ae37ef11b136ea224fe,,,,,,,,,726,-23,-55,1,0,0,response5disk,,3,7,10,1,0,0,rectangle,7,10,1,0,0,7,10,1,0,0,0,20,20,20,1,,,,,,,,
,,,,,,,,,,,,,FF,,,,,,,,1.45,,,,,,,,,,,,,,,,,,,,,,60ff244bc01a67f580d9b5ba,61036f0966dec8e5896fc4f8,2021-07-29_22h22.49.719,Simcolourproject_2stim_asymm_v5,2020.2.10,MacIntel,60,61025ae37ef11b136ea224fe,,,,,,,,,421,56,92,1,0,0,response1disk,,7,-9,9,1,0,0,rectangle,-9,9,1,0,0,-9,9,1,0,0,0,21,21,55,1,,,,,,,,
,,,,,,,,,,,,,FF,,,,,,,,1.184,,,,,,,,,,,,,,,,,,,,,,60ff244bc01a67f580d9b5ba,61036f0966dec8e5896fc4f8,2021-07-29_22h22.49.719,Simcolourproject_2stim_asymm_v5,2020.2.10,MacIntel,60,61025ae37ef11b136ea224fe,,,,,,,,,1634,38,68,1,0,0,response1disk,,7,6,-8,1,0,0,rectangle,6,-8,1,0,0,6,-8,1,0,0,0,22,22,22,1,,,,,,,,
,,,,,,,,,,,,,FF,,,,,,,,1.184,,,,,,,,,,,,,,,,,,,,,,60ff244bc01a67f580d9b5ba,61036f0966dec8e5896fc4f8,2021-07-29_22h22.49.719,Simcolourproject_2stim_asymm_v5,2020.2.10,MacIntel,60,61025ae37ef11b136ea224fe,,,,,,,,,963,48,68,1,0,0,response1disk,,7,-12,14,1,0,0,rectangle,-12,14,1,0,0,-12,14,1,0,0,0,23,23,6,1,,,,,,,,
,,,,,,,,,,,,,FF,,,,,,,,0.684,,,,,,,,,,,,,,,,,,,,,,60ff244bc01a67f580d9b5ba,61036f0966dec8e5896fc4f8,2021-07-29_22h22.49.719,Simcolourproject_2stim_asymm_v5,2020.2.10,MacIntel,60,61025ae37ef11b136ea224fe,,,,,,,,,2907,38,74,1,0,0,response1disk,,7,3,0,1,0,0,rectangle,3,0,1,0,0,3,0,1,0,0,0,24,24,151,1,,,,,,,,
,,,,,,,,,,,,,FF,,,,,,,,3.584,,,,,,,,,,,,,,,,,,,,,,60ff244bc01a67f580d9b5ba,61036f0966dec8e5896fc4f8,2021-07-29_22h22.49.719,Simcolourproject_2stim_asymm_v5,2020.2.10,MacIntel,60,61025ae37ef11b136ea224fe,,,,,,,,,2593,76,-40,1,0,0,response3disk,,5,4,3,1,0,0,rectangle,4,3,1,0,0,4,3,1,0,0,0,25,25,51,1,,,,,,,,
,,,,,,,,,,,,,FF,,,,,,,,1.051,,,,,,,,,,,,,,,,,,,,,,60ff244bc01a67f580d9b5ba,61036f0966dec8e5896fc4f8,2021-07-29_22h22.49.719,Simcolourproject_2stim_asymm_v5,2020.2.10,MacIntel,60,61025ae37ef11b136ea224fe,,,,,,,,,577,42,59,1,0,0,response1disk,,7,-3,-7,1,0,0,rectangle,-3,-7,1,0,0,-3,-7,1,0,0,0,26,26,114,1,,,,,,,,
,,,,,,,,,,,,,FF,,,,,,,,1.133,,,,,,,,,,,,,,,,,,,,,,60ff244bc01a67f580d9b5ba,61036f0966dec8e5896fc4f8,2021-07-29_22h22.49.719,Simcolourproject_2stim_asymm_v5,2020.2.10,MacIntel,60,61025ae37ef11b136ea224fe,,,,,,,,,366,-34,79,1,0,0,response7disk,,0,6,-8,1,0,0,rectangle,6,-8,1,0,0,6,-8,1,0,0,0,27,27,158,1,,,,,,,,
,,,,,,,,,,,,,FF,,,,,,,,2.617,,,,,,,,,,,,,,,,,,,,,,60ff244bc01a67f580d9b5ba,61036f0966dec8e5896fc4f8,2021-07-29_22h22.49.719,Simcolourproject_2stim_asymm_v5,2020.2.10,MacIntel,60,61025ae37ef11b136ea224fe,,,,,,,,,16,84,18,1,0,0,response1disk,,6,-12,-1,1,0,0,rectangle,48,-96,1,0,0,10,-10,1,0,0,0,28,28,153,1,,response3disk_3,TRUE,4,4,"[202,29,226,185,195,290,8,193,243,177,45,244,272,39,70,302,226,75,282,180]",2.469,rectangle
,,,,,,,,,,,,,FF,,,,,,,,2.885,,,,,,,,,,,,,,,,,,,,,,60ff244bc01a67f580d9b5ba,61036f0966dec8e5896fc4f8,2021-07-29_22h22.49.719,Simcolourproject_2stim_asymm_v5,2020.2.10,MacIntel,60,61025ae37ef11b136ea224fe,,,,,,,,,3359,53,80,1,0,0,response1disk,,7,-7,7,1,0,0,rectangle,-7,7,1,0,0,-7,7,1,0,0,0,29,29,40,1,,,,,,,,
,,,,,,,,,,,,,FF,,,,,,,,0.883,,,,,,,,,,,,,,,,,,,,,,60ff244bc01a67f580d9b5ba,61036f0966dec8e5896fc4f8,2021-07-29_22h22.49.719,Simcolourproject_2stim_asymm_v5,2020.2.10,MacIntel,60,61025ae37ef11b136ea224fe,,,,,,,,,4090,36,60,1,0,0,response1disk,,7,2,10,1,0,0,rectangle,2,10,1,0,0,2,10,1,0,0,0,30,30,29,1,,,,,,,,
,,,,,,,,,,,,,FF,,,,,,,,0.917,,,,,,,,,,,,,,,,,,,,,,60ff244bc01a67f580d9b5ba,61036f0966dec8e5896fc4f8,2021-07-29_22h22.49.719,Simcolourproject_2stim_asymm_v5,2020.2.10,MacIntel,60,61025ae37ef11b136ea224fe,,,,,,,,,3424,35,70,1,0,0,response1disk,,7,-7,-4,1,0,0,rectangle,-7,-4,1,0,0,-7,-4,1,0,0,0,31,31,142,1,,,,,,,,
,,,,,,,,,,,,,FF,,,,,,,,4.085,,,,,,,,,,,,,,,,,,,,,,60ff244bc01a67f580d9b5ba,61036f0966dec8e5896fc4f8,2021-07-29_22h22.49.719,Simcolourproject_2stim_asymm_v5,2020.2.10,MacIntel,60,61025ae37ef11b136ea224fe,,,,,,,,,2579,37,67,1,0,0,response1disk,,7,7,-2,1,0,0,rectangle,7,-2,1,0,0,7,-2,1,0,0,0,32,32,144,1,,,,,,,,
,,,,,,,,,,,,,FF,,,,,,,,1.118,,,,,,,,,,,,,,,,,,,,,,60ff244bc01a67f580d9b5ba,61036f0966dec8e5896fc4f8,2021-07-29_22h22.49.719,Simcolourproject_2stim_asymm_v5,2020.2.10,MacIntel,60,61025ae37ef11b136ea224fe,,,,,,,,,3375,-25,-72,1,0,0,response5disk,,3,9,-6,1,0,0,rectangle,9,-6,1,0,0,9,-6,1,0,0,0,33,33,94,1,,,,,,,,
,,,,,,,,,,,,,FF,,,,,,,,0.933,,,,,,,,,,,,,,,,,,,,,,60ff244bc01a67f580d9b5ba,61036f0966dec8e5896fc4f8,2021-07-29_22h22.49.719,Simcolourproject_2stim_asymm_v5,2020.2.10,MacIntel,60,61025ae37ef11b136ea224fe,,,,,,,,,3081,38,75,1,0,0,response1disk,,7,10,0,1,0,0,rectangle,10,0,1,0,0,10,0,1,0,0,0,34,34,62,1,,,,,,,,
,,,,,,,,,,,,,FF,,,,,,,,0.634,,,,,,,,,,,,,,,,,,,,,,60ff244bc01a67f580d9b5ba,61036f0966dec8e5896fc4f8,2021-07-29_22h22.49.719,Simcolourproject_2stim_asymm_v5,2020.2.10,MacIntel,60,61025ae37ef11b136ea224fe,,,,,,,,,1638,33,59,1,0,0,response1disk,,7,-16,-7,1,0,0,rectangle,-16,-7,1,0,0,-16,-7,1,0,0,0,35,35,122,1,,,,,,,,
,,,,,,,,,,,,,FF,,,,,,,,0.7,,,,,,,,,,,,,,,,,,,,,,60ff244bc01a67f580d9b5ba,61036f0966dec8e5896fc4f8,2021-07-29_22h22.49.719,Simcolourproject_2stim_asymm_v5,2020.2.10,MacIntel,60,61025ae37ef11b136ea224fe,,,,,,,,,4140,-44,57,1,0,0,response7disk,,0,-10,-8,1,0,0,rectangle,-10,-8,1,0,0,-10,-8,1,0,0,0,36,36,141,1,,,,,,,,
,,,,,,,,,,,,,FF,,,,,,,,0.968,,,,,,,,,,,,,,,,,,,,,,60ff244bc01a67f580d9b5ba,61036f0966dec8e5896fc4f8,2021-07-29_22h22.49.719,Simcolourproject_2stim_asymm_v5,2020.2.10,MacIntel,60,61025ae37ef11b136ea224fe,,,,,,,,,1646,51,77,1,0,0,response1disk,,7,11,11,1,0,0,rectangle,11,11,1,0,0,11,11,1,0,0,0,37,37,87,1,,,,,,,,
,,,,,,,,,,,,,FF,,,,,,,,0.899,,,,,,,,,,,,,,,,,,,,,,60ff244bc01a67f580d9b5ba,61036f0966dec8e5896fc4f8,2021-07-29_22h22.49.719,Simcolourproject_2stim_asymm_v5,2020.2.10,MacIntel,60,61025ae37ef11b136ea224fe,,,,,,,,,3409,89,35,1,0,0,response1disk,,6,-23,13,1,0,0,rectangle,-70,-34,1,0,0,7,3,1,0,0,0,38,38,96,1,,response5disk_3,TRUE,2,2,"[202,29,226,185,195,290,8,193,243,177,45,244,272,39,70,302,226,75,282,180]",1.467,rectangle
,,,,,,,,,,,,,FF,,,,,,,,0.901,,,,,,,,,,,,,,,,,,,,,,60ff244bc01a67f580d9b5ba,61036f0966dec8e5896fc4f8,2021-07-29_22h22.49.719,Simcolourproject_2stim_asymm_v5,2020.2.10,MacIntel,60,61025ae37ef11b136ea224fe,,,,,,,,,388,39,73,1,0,0,response1disk,,7,-4,-1,1,0,0,rectangle,-4,-1,1,0,0,-4,-1,1,0,0,0,39,39,93,1,,,,,,,,
,,,,,,,,,,,,,FF,,,,,,,,0.667,,,,,,,,,,,,,,,,,,,,,,60ff244bc01a67f580d9b5ba,61036f0966dec8e5896fc4f8,2021-07-29_22h22.49.719,Simcolourproject_2stim_asymm_v5,2020.2.10,MacIntel,60,61025ae37ef11b136ea224fe,,,,,,,,,1425,43,81,1,0,0,response1disk,,7,8,5,1,0,0,rectangle,8,5,1,0,0,8,5,1,0,0,0,40,40,80,1,,,,,,,,
,,,,,,,,,,,,,FF,,,,,,,,0.533,,,,,,,,,,,,,,,,,,,,,,60ff244bc01a67f580d9b5ba,61036f0966dec8e5896fc4f8,2021-07-29_22h22.49.719,Simcolourproject_2stim_asymm_v5,2020.2.10,MacIntel,60,61025ae37ef11b136ea224fe,,,,,,,,,1504,28,65,1,0,0,response1disk,,7,9,-8,1,0,0,rectangle,9,-8,1,0,0,9,-8,1,0,0,0,41,41,145,1,,,,,,,,
,,,,,,,,,,,,,FF,,,,,,,,0.617,,,,,,,,,,,,,,,,,,,,,,60ff244bc01a67f580d9b5ba,61036f0966dec8e5896fc4f8,2021-07-29_22h22.49.719,Simcolourproject_2stim_asymm_v5,2020.2.10,MacIntel,60,61025ae37ef11b136ea224fe,,,,,,,,,2018,38,72,1,0,0,response1disk,,7,13,7,1,0,0,rectangle,13,7,1,0,0,13,7,1,0,0,0,42,42,148,1,,,,,,,,
,,,,,,,,,,,,,FF,,,,,,,,1.202,,,,,,,,,,,,,,,,,,,,,,60ff244bc01a67f580d9b5ba,61036f0966dec8e5896fc4f8,2021-07-29_22h22.49.719,Simcolourproject_2stim_asymm_v5,2020.2.10,MacIntel,60,61025ae37ef11b136ea224fe,,,,,,,,,3085,19,70,1,0,0,response1disk,,7,-22,-11,1,0,0,rectangle,-22,-11,1,0,0,-22,-11,1,0,0,0,43,43,64,1,,,,,,,,
,,,,,,,,,,,,,FF,,,,,,,,4.987,,,,,,,,,,,,,,,,,,,,,,60ff244bc01a67f580d9b5ba,61036f0966dec8e5896fc4f8,2021-07-29_22h22.49.719,Simcolourproject_2stim_asymm_v5,2020.2.10,MacIntel,60,61025ae37ef11b136ea224fe,,,,,,,,,456,-20,-55,1,0,0,response5disk,,3,-16,7,1,0,0,rectangle,94,45,1,0,0,9,-7,1,0,0,0,44,44,12,1,,response1disk_3,TRUE,6,6,"[202,29,226,185,195,290,8,193,243,177,45,244,272,39,70,302,226,75,282,180]",1.467,rectangle
,,,,,,,,,,,,,FF,,,,,,,,0.768,,,,,,,,,,,,,,,,,,,,,,60ff244bc01a67f580d9b5ba,61036f0966dec8e5896fc4f8,2021-07-29_22h22.49.719,Simcolourproject_2stim_asymm_v5,2020.2.10,MacIntel,60,61025ae37ef11b136ea224fe,,,,,,,,,3724,57,81,1,0,0,response1disk,,7,13,10,1,0,0,rectangle,13,10,1,0,0,13,10,1,0,0,0,45,45,129,1,,,,,,,,
,,,,,,,,,,,,,FF,,,,,,,,0.801,,,,,,,,,,,,,,,,,,,,,,60ff244bc01a67f580d9b5ba,61036f0966dec8e5896fc4f8,2021-07-29_22h22.49.719,Simcolourproject_2stim_asymm_v5,2020.2.10,MacIntel,60,61025ae37ef11b136ea224fe,,,,,,,,,2743,80,35,1,0,0,response1disk,,6,-3,9,1,0,0,rectangle,-3,9,1,0,0,-3,9,1,0,0,0,46,46,138,1,,,,,,,,
,,,,,,,,,,,,,FF,,,,,,,,0.968,,,,,,,,,,,,,,,,,,,,,,60ff244bc01a67f580d9b5ba,61036f0966dec8e5896fc4f8,2021-07-29_22h22.49.719,Simcolourproject_2stim_asymm_v5,2020.2.10,MacIntel,60,61025ae37ef11b136ea224fe,,,,,,,,,3930,35,74,1,0,0,response1disk,,7,-8,-10,1,0,0,rectangle,-8,-10,1,0,0,-8,-10,1,0,0,0,47,47,48,1,,,,,,,,
,,,,,,,,,,,,,FF,,,,,,,,0.717,,,,,,,,,,,,,,,,,,,,,,60ff244bc01a67f580d9b5ba,61036f0966dec8e5896fc4f8,2021-07-29_22h22.49.719,Simcolourproject_2stim_asymm_v5,2020.2.10,MacIntel,60,61025ae37ef11b136ea224fe,,,,,,,,,2157,43,70,1,0,0,response1disk,,7,9,5,1,0,0,rectangle,9,5,1,0,0,9,5,1,0,0,0,48,48,37,1,,,,,,,,
,,,,,,,,,,,,,FF,,,,,,,,0.667,,,,,,,,,,,,,,,,,,,,,,60ff244bc01a67f580d9b5ba,61036f0966dec8e5896fc4f8,2021-07-29_22h22.49.719,Simcolourproject_2stim_asymm_v5,2020.2.10,MacIntel,60,61025ae37ef11b136ea224fe,,,,,,,,,4012,27,61,1,0,0,response1disk,,7,-12,-8,1,0,0,rectangle,-12,-8,1,0,0,-12,-8,1,0,0,0,49,49,152,1,,,,,,,,
,,,,,,,,,,,,,FF,,,,,,,,0.734,,,,,,,,,,,,,,,,,,,,,,60ff244bc01a67f580d9b5ba,61036f0966dec8e5896fc4f8,2021-07-29_22h22.49.719,Simcolourproject_2stim_asymm_v5,2020.2.10,MacIntel,60,61025ae37ef11b136ea224fe,,,,,,,,,4079,50,91,1,0,0,response1disk,,7,-4,-2,1,0,0,rectangle,-4,-2,1,0,0,-4,-2,1,0,0,0,50,50,84,1,,,,,,,,
,,,,,,,,,,,,,FF,,,,,,,,1.251,,,,,,,,,,,,,,,,,,,,,,60ff244bc01a67f580d9b5ba,61036f0966dec8e5896fc4f8,2021-07-29_22h22.49.719,Simcolourproject_2stim_asymm_v5,2020.2.10,MacIntel,60,61025ae37ef11b136ea224fe,,,,,,,,,3169,51,71,1,0,0,response1disk,,7,-3,-11,1,0,0,rectangle,-3,-11,1,0,0,-3,-11,1,0,0,0,51,51,30,1,,,,,,,,
,,,,,,,,,,,,,FF,,,,,,,,1.418,,,,,,,,,,,,,,,,,,,,,,60ff244bc01a67f580d9b5ba,61036f0966dec8e5896fc4f8,2021-07-29_22h22.49.719,Simcolourproject_2stim_asymm_v5,2020.2.10,MacIntel,60,61025ae37ef11b136ea224fe,,,,,,,,,2946,-30,-77,1,0,0,response5disk,,3,-4,0,1,0,0,rectangle,-4,0,1,0,0,-4,0,1,0,0,0,52,52,76,1,,,,,,,,
,,,,,,,,,,,,,FF,,,,,,,,2.467,,,,,,,,,,,,,,,,,,,,,,60ff244bc01a67f580d9b5ba,61036f0966dec8e5896fc4f8,2021-07-29_22h22.49.719,Simcolourproject_2stim_asymm_v5,2020.2.10,MacIntel,60,61025ae37ef11b136ea224fe,,,,,,,,,2671,36,-61,1,0,0,response3disk,,4,-3,2,1,0,0,rectangle,-3,2,1,0,0,-3,2,1,0,0,0,53,53,33,1,,,,,,,,
,,,,,,,,,,,,,FF,,,,,,,,0.633,,,,,,,,,,,,,,,,,,,,,,60ff244bc01a67f580d9b5ba,61036f0966dec8e5896fc4f8,2021-07-29_22h22.49.719,Simcolourproject_2stim_asymm_v5,2020.2.10,MacIntel,60,61025ae37ef11b136ea224fe,,,,,,,,,921,47,94,1,0,0,response1disk,,7,8,5,1,0,0,rectangle,8,5,1,0,0,8,5,1,0,0,0,54,54,8,1,,,,,,,,
,,,,,,,,,,,,,FF,,,,,,,,0.699,,,,,,,,,,,,,,,,,,,,,,60ff244bc01a67f580d9b5ba,61036f0966dec8e5896fc4f8,2021-07-29_22h22.49.719,Simcolourproject_2stim_asymm_v5,2020.2.10,MacIntel,60,61025ae37ef11b136ea224fe,,,,,,,,,2929,34,61,1,0,0,response1disk,,7,-4,-3,1,0,0,rectangle,-4,-3,1,0,0,-4,-3,1,0,0,0,55,55,16,1,,,,,,,,
,,,,,,,,,,,,,FF,,,,,,,,0.734,,,,,,,,,,,,,,,,,,,,,,60ff244bc01a67f580d9b5ba,61036f0966dec8e5896fc4f8,2021-07-29_22h22.49.719,Simcolourproject_2stim_asymm_v5,2020.2.10,MacIntel,60,61025ae37ef11b136ea224fe,,,,,,,,,2623,29,58,1,0,0,response1disk,,7,-3,6,1,0,0,rectangle,-3,6,1,0,0,-3,6,1,0,0,0,56,56,2,1,,,,,,,,
,,,,,,,,,,,,,FF,,,,,,,,0.7,,,,,,,,,,,,,,,,,,,,,,60ff244bc01a67f580d9b5ba,61036f0966dec8e5896fc4f8,2021-07-29_22h22.49.719,Simcolourproject_2stim_asymm_v5,2020.2.10,MacIntel,60,61025ae37ef11b136ea224fe,,,,,,,,,2141,32,75,1,0,0,response1disk,,7,10,13,1,0,0,rectangle,10,13,1,0,0,10,13,1,0,0,0,57,57,34,1,,,,,,,,
,,,,,,,,,,,,,FF,,,,,,,,0.733,,,,,,,,,,,,,,,,,,,,,,60ff244bc01a67f580d9b5ba,61036f0966dec8e5896fc4f8,2021-07-29_22h22.49.719,Simcolourproject_2stim_asymm_v5,2020.2.10,MacIntel,60,61025ae37ef11b136ea224fe,,,,,,,,,1928,33,65,1,0,0,response1disk,,7,20,-13,1,0,0,rectangle,20,-13,1,0,0,20,-13,1,0,0,0,58,58,45,1,,,,,,,,
,,,,,,,,,,,,,FF,,,,,,,,0.749,,,,,,,,,,,,,,,,,,,,,,60ff244bc01a67f580d9b5ba,61036f0966dec8e5896fc4f8,2021-07-29_22h22.49.719,Simcolourproject_2stim_asymm_v5,2020.2.10,MacIntel,60,61025ae37ef11b136ea224fe,,,,,,,,,1255,33,58,1,0,0,response1disk,,7,3,-5,1,0,0,rectangle,3,-5,1,0,0,3,-5,1,0,0,0,59,59,43,1,,,,,,,,
,,,,,,,,,,,,,FF,,,,,,,,0.683,,,,,,,,,,,,,,,,,,,,,,60ff244bc01a67f580d9b5ba,61036f0966dec8e5896fc4f8,2021-07-29_22h22.49.719,Simcolourproject_2stim_asymm_v5,2020.2.10,MacIntel,60,61025ae37ef11b136ea224fe,,,,,,,,,559,48,88,1,0,0,response1disk,,7,-3,5,1,0,0,rectangle,-3,5,1,0,0,-3,5,1,0,0,0,60,60,59,1,,,,,,,,
,,,,,,,,,,,,,FF,,,,,,,,2.518,,,,,,,,,,,,,,,,,,,,,,60ff244bc01a67f580d9b5ba,61036f0966dec8e5896fc4f8,2021-07-29_22h22.49.719,Simcolourproject_2stim_asymm_v5,2020.2.10,MacIntel,60,61025ae37ef11b136ea224fe,,,,,,,,,3952,57,-70,1,0,0,response3disk,,4,11,-5,1,0,0,rectangle,11,-5,1,0,0,11,-5,1,0,0,0,61,61,83,1,,,,,,,,
,,,,,,,,,,,,,FF,,,,,,,,0.866,,,,,,,,,,,,,,,,,,,,,,60ff244bc01a67f580d9b5ba,61036f0966dec8e5896fc4f8,2021-07-29_22h22.49.719,Simcolourproject_2stim_asymm_v5,2020.2.10,MacIntel,60,61025ae37ef11b136ea224fe,,,,,,,,,493,56,99,1,0,0,response1disk,,7,-9,0,1,0,0,rectangle,-9,0,1,0,0,-9,0,1,0,0,0,62,62,108,1,,,,,,,,
,,,,,,,,,,,,,FF,,,,,,,,1.716,,,,,,,,,,,,,,,,,,,,,,60ff244bc01a67f580d9b5ba,61036f0966dec8e5896fc4f8,2021-07-29_22h22.49.719,Simcolourproject_2stim_asymm_v5,2020.2.10,MacIntel,60,61025ae37ef11b136ea224fe,,,,,,,,,956,80,-34,1,0,0,response3disk,,5,6,0,1,0,0,rectangle,6,0,1,0,0,6,0,1,0,0,0,63,63,61,1,,,,,,,,
,,,,,,,,,,,,,FF,,,,,,,,0.815,,,,,,,,,,,,,,,,,,,,,,60ff244bc01a67f580d9b5ba,61036f0966dec8e5896fc4f8,2021-07-29_22h22.49.719,Simcolourproject_2stim_asymm_v5,2020.2.10,MacIntel,60,61025ae37ef11b136ea224fe,,,,,,,,,1863,22,83,1,0,0,response1disk,,7,2,-6,1,0,0,rectangle,2,-6,1,0,0,2,-6,1,0,0,0,64,64,32,1,,,,,,,,
,,,,,,,,,,,,,FF,,,,,,,,0.883,,,,,,,,,,,,,,,,,,,,,,60ff244bc01a67f580d9b5ba,61036f0966dec8e5896fc4f8,2021-07-29_22h22.49.719,Simcolourproject_2stim_asymm_v5,2020.2.10,MacIntel,60,61025ae37ef11b136ea224fe,,,,,,,,,2976,30,60,1,0,0,response1disk,,7,1,-5,1,0,0,rectangle,1,-5,1,0,0,1,-5,1,0,0,0,65,65,119,1,,,,,,,,
,,,,,,,,,,,,,FF,,,,,,,,0.751,,,,,,,,,,,,,,,,,,,,,,60ff244bc01a67f580d9b5ba,61036f0966dec8e5896fc4f8,2021-07-29_22h22.49.719,Simcolourproject_2stim_asymm_v5,2020.2.10,MacIntel,60,61025ae37ef11b136ea224fe,,,,,,,,,1732,27,58,1,0,0,response1disk,,7,13,4,1,0,0,rectangle,13,4,1,0,0,13,4,1,0,0,0,66,66,134,1,,,,,,,,
,,,,,,,,,,,,,FF,,,,,,,,0.633,,,,,,,,,,,,,,,,,,,,,,60ff244bc01a67f580d9b5ba,61036f0966dec8e5896fc4f8,2021-07-29_22h22.49.719,Simcolourproject_2stim_asymm_v5,2020.2.10,MacIntel,60,61025ae37ef11b136ea224fe,,,,,,,,,124,28,62,1,0,0,response1disk,,7,7,-6,1,0,0,rectangle,7,-6,1,0,0,7,-6,1,0,0,0,67,67,81,1,,,,,,,,
,,,,,,,,,,,,,FF,,,,,,,,0.866,,,,,,,,,,,,,,,,,,,,,,60ff244bc01a67f580d9b5ba,61036f0966dec8e5896fc4f8,2021-07-29_22h22.49.719,Simcolourproject_2stim_asymm_v5,2020.2.10,MacIntel,60,61025ae37ef11b136ea224fe,,,,,,,,,2819,43,89,1,0,0,response1disk,,7,-1,6,1,0,0,rectangle,-1,6,1,0,0,-1,6,1,0,0,0,68,68,26,1,,,,,,,,
,,,,,,,,,,,,,FF,,,,,,,,2.25,,,,,,,,,,,,,,,,,,,,,,60ff244bc01a67f580d9b5ba,61036f0966dec8e5896fc4f8,2021-07-29_22h22.49.719,Simcolourproject_2stim_asymm_v5,2020.2.10,MacIntel,60,61025ae37ef11b136ea224fe,,,,,,,,,1896,58,-77,1,0,0,response3disk,,4,-9,1,1,0,0,rectangle,51,93,1,0,0,-4,6,1,0,0,0,69,69,156,1,,response1disk_3,TRUE,7,7,"[202,29,226,185,195,290,8,193,243,177,45,244,272,39,70,302,226,75,282,180]",1.383,rectangle
,,,,,,,,,,,,,FF,,,,,,,,8.153,,,,,,,,,,,,,,,,,,,,,,60ff244bc01a67f580d9b5ba,61036f0966dec8e5896fc4f8,2021-07-29_22h22.49.719,Simcolourproject_2stim_asymm_v5,2020.2.10,MacIntel,60,61025ae37ef11b136ea224fe,,,,,,,,,1943,59,68,1,0,0,response1disk,,7,3,8,1,0,0,rectangle,3,8,1,0,0,3,8,1,0,0,0,70,70,56,1,,,,,,,,
,,,,,,,,,,,,,FF,,,,,,,,0.683,,,,,,,,,,,,,,,,,,,,,,60ff244bc01a67f580d9b5ba,61036f0966dec8e5896fc4f8,2021-07-29_22h22.49.719,Simcolourproject_2stim_asymm_v5,2020.2.10,MacIntel,60,61025ae37ef11b136ea224fe,,,,,,,,,3991,18,72,1,0,0,response1disk,,7,-7,3,1,0,0,rectangle,-7,3,1,0,0,-7,3,1,0,0,0,71,71,139,1,,,,,,,,
,,,,,,,,,,,,,FF,,,,,,,,0.634,,,,,,,,,,,,,,,,,,,,,,60ff244bc01a67f580d9b5ba,61036f0966dec8e5896fc4f8,2021-07-29_22h22.49.719,Simcolourproject_2stim_asymm_v5,2020.2.10,MacIntel,60,61025ae37ef11b136ea224fe,,,,,,,,,1804,37,61,1,0,0,response1disk,,7,11,11,1,0,0,rectangle,11,11,1,0,0,11,11,1,0,0,0,72,72,121,1,,,,,,,,
,,,,,,,,,,,,,FF,,,,,,,,0.632,,,,,,,,,,,,,,,,,,,,,,60ff244bc01a67f580d9b5ba,61036f0966dec8e5896fc4f8,2021-07-29_22h22.49.719,Simcolourproject_2stim_asymm_v5,2020.2.10,MacIntel,60,61025ae37ef11b136ea224fe,,,,,,,,,1088,39,73,1,0,0,response1disk,,7,3,0,1,0,0,rectangle,3,0,1,0,0,3,0,1,0,0,0,73,73,123,1,,,,,,,,
,,,,,,,,,,,,,FF,,,,,,,,1.202,,,,,,,,,,,,,,,,,,,,,,60ff244bc01a67f580d9b5ba,61036f0966dec8e5896fc4f8,2021-07-29_22h22.49.719,Simcolourproject_2stim_asymm_v5,2020.2.10,MacIntel,60,61025ae37ef11b136ea224fe,,,,,,,,,2825,47,-59,1,0,0,response3disk,,4,18,-14,1,0,0,rectangle,-91,-55,1,0,0,-25,-11,1,0,0,0,74,74,113,1,,response5disk_3,TRUE,2,2,"[202,29,226,185,195,290,8,193,243,177,45,244,272,39,70,302,226,75,282,180]",1.55,rectangle
,,,,,,,,,,,,,FF,,,,,,,,1.434,,,,,,,,,,,,,,,,,,,,,,60ff244bc01a67f580d9b5ba,61036f0966dec8e5896fc4f8,2021-07-29_22h22.49.719,Simcolourproject_2stim_asymm_v5,2020.2.10,MacIntel,60,61025ae37ef11b136ea224fe,,,,,,,,,2995,-25,-83,1,0,0,response5disk,,3,-10,-2,1,0,0,rectangle,-10,-2,1,0,0,-10,-2,1,0,0,0,75,75,150,1,,,,,,,,
,,,,,,,,,,,,,FF,,,,,,,,0.834,,,,,,,,,,,,,,,,,,,,,,60ff244bc01a67f580d9b5ba,61036f0966dec8e5896fc4f8,2021-07-29_22h22.49.719,Simcolourproject_2stim_asymm_v5,2020.2.10,MacIntel,60,61025ae37ef11b136ea224fe,,,,,,,,,1941,27,78,1,0,0,response1disk,,7,-4,3,1,0,0,rectangle,-4,3,1,0,0,-4,3,1,0,0,0,76,76,19,1,,,,,,,,
,,,,,,,,,,,,,FF,,,,,,,,0.9,,,,,,,,,,,,,,,,,,,,,,60ff244bc01a67f580d9b5ba,61036f0966dec8e5896fc4f8,2021-07-29_22h22.49.719,Simcolourproject_2stim_asymm_v5,2020.2.10,MacIntel,60,61025ae37ef11b136ea224fe,,,,,,,,,3346,34,64,1,0,0,response1disk,,7,7,2,1,0,0,rectangle,7,2,1,0,0,7,2,1,0,0,0,77,77,155,1,,,,,,,,
,,,,,,,,,,,,,FF,,,,,,,,0.549,,,,,,,,,,,,,,,,,,,,,,60ff244bc01a67f580d9b5ba,61036f0966dec8e5896fc4f8,2021-07-29_22h22.49.719,Simcolourproject_2stim_asymm_v5,2020.2.10,MacIntel,60,61025ae37ef11b136ea224fe,,,,,,,,,2436,29,48,1,0,0,response1disk,,7,10,-2,1,0,0,rectangle,10,-2,1,0,0,10,-2,1,0,0,0,78,78,118,1,,,,,,,,
,,,,,,,,,,,,,FF,,,,,,,,2.735,,,,,,,,,,,,,,,,,,,,,,60ff244bc01a67f580d9b5ba,61036f0966dec8e5896fc4f8,2021-07-29_22h22.49.719,Simcolourproject_2stim_asymm_v5,2020.2.10,MacIntel,60,61025ae37ef11b136ea224fe,,,,,,,,,3487,47,61,1,0,0,response1disk,,7,1,9,1,0,0,rectangle,1,9,1,0,0,1,9,1,0,0,0,79,79,73,1,,,,,,,,
,,,,,,,,,,,,,FF,,,,,,,,0.851,,,,,,,,,,,,,,,,,,,,,,60ff244bc01a67f580d9b5ba,61036f0966dec8e5896fc4f8,2021-07-29_22h22.49.719,Simcolourproject_2stim_asymm_v5,2020.2.10,MacIntel,60,61025ae37ef11b136ea224fe,,,,,,,,,1837,50,93,1,0,0,response1disk,,7,8,-7,1,0,0,rectangle,8,-7,1,0,0,8,-7,1,0,0,0,80,80,125,1,,,,,,,,
,,,,,,,,,,,,,FF,,,,,,,,0.717,,,,,,,,,,,,,,,,,,,,,,60ff244bc01a67f580d9b5ba,61036f0966dec8e5896fc4f8,2021-07-29_22h22.49.719,Simcolourproject_2stim_asymm_v5,2020.2.10,MacIntel,60,61025ae37ef11b136ea224fe,,,,,,,,,3136,33,57,1,0,0,response1disk,,7,-5,11,1,0,0,rectangle,-5,11,1,0,0,-5,11,1,0,0,0,81,81,23,1,,,,,,,,
,,,,,,,,,,,,,FF,,,,,,,,0.517,,,,,,,,,,,,,,,,,,,,,,60ff244bc01a67f580d9b5ba,61036f0966dec8e5896fc4f8,2021-07-29_22h22.49.719,Simcolourproject_2stim_asymm_v5,2020.2.10,MacIntel,60,61025ae37ef11b136ea224fe,,,,,,,,,225,28,49,1,0,0,response1disk,,7,-5,-3,1,0,0,rectangle,-5,-3,1,0,0,-5,-3,1,0,0,0,82,82,130,1,,,,,,,,
,,,,,,,,,,,,,FF,,,,,,,,0.751,,,,,,,,,,,,,,,,,,,,,,60ff244bc01a67f580d9b5ba,61036f0966dec8e5896fc4f8,2021-07-29_22h22.49.719,Simcolourproject_2stim_asymm_v5,2020.2.10,MacIntel,60,61025ae37ef11b136ea224fe,,,,,,,,,1902,39,69,1,0,0,response1disk,,7,14,9,1,0,0,rectangle,14,9,1,0,0,14,9,1,0,0,0,83,83,60,1,,,,,,,,
,,,,,,,,,,,,,FF,,,,,,,,0.368,,,,,,,,,,,,,,,,,,,,,,60ff244bc01a67f580d9b5ba,61036f0966dec8e5896fc4f8,2021-07-29_22h22.49.719,Simcolourproject_2stim_asymm_v5,2020.2.10,MacIntel,60,61025ae37ef11b136ea224fe,,,,,,,,,1415,56,75,1,0,0,response1disk,,7,8,4,1,0,0,rectangle,8,4,1,0,0,8,4,1,0,0,0,84,84,128,1,,,,,,,,
,,,,,,,,,,,,,FF,,,,,,,,0.484,,,,,,,,,,,,,,,,,,,,,,60ff244bc01a67f580d9b5ba,61036f0966dec8e5896fc4f8,2021-07-29_22h22.49.719,Simcolourproject_2stim_asymm_v5,2020.2.10,MacIntel,60,61025ae37ef11b136ea224fe,,,,,,,,,2411,38,62,1,0,0,response1disk,,7,18,-4,1,0,0,rectangle,18,-4,1,0,0,18,-4,1,0,0,0,85,85,47,1,,,,,,,,
,,,,,,,,,,,,,FF,,,,,,,,0.399,,,,,,,,,,,,,,,,,,,,,,60ff244bc01a67f580d9b5ba,61036f0966dec8e5896fc4f8,2021-07-29_22h22.49.719,Simcolourproject_2stim_asymm_v5,2020.2.10,MacIntel,60,61025ae37ef11b136ea224fe,,,,,,,,,1727,42,68,1,0,0,response1disk,,7,16,6,1,0,0,rectangle,16,6,1,0,0,16,6,1,0,0,0,86,86,79,1,,,,,,,,
,,,,,,,,,,,,,FF,,,,,,,,1.085,,,,,,,,,,,,,,,,,,,,,,60ff244bc01a67f580d9b5ba,61036f0966dec8e5896fc4f8,2021-07-29_22h22.49.719,Simcolourproject_2stim_asymm_v5,2020.2.10,MacIntel,60,61025ae37ef11b136ea224fe,,,,,,,,,4346,-39,-56,1,0,0,response5disk,,3,-5,-8,1,0,0,rectangle,-5,-8,1,0,0,-5,-8,1,0,0,0,87,87,39,1,,,,,,,,
,,,,,,,,,,,,,FF,,,,,,,,2.184,,,,,,,,,,,,,,,,,,,,,,60ff244bc01a67f580d9b5ba,61036f0966dec8e5896fc4f8,2021-07-29_22h22.49.719,Simcolourproject_2stim_asymm_v5,2020.2.10,MacIntel,60,61025ae37ef11b136ea224fe,,,,,,,,,470,42,60,1,0,0,response1disk,,7,-4,-6,1,0,0,rectangle,-4,-6,1,0,0,-4,-6,1,0,0,0,88,88,66,1,,,,,,,,
,,,,,,,,,,,,,FF,,,,,,,,2.45,,,,,,,,,,,,,,,,,,,,,,60ff244bc01a67f580d9b5ba,61036f0966dec8e5896fc4f8,2021-07-29_22h22.49.719,Simcolourproject_2stim_asymm_v5,2020.2.10,MacIntel,60,61025ae37ef11b136ea224fe,,,,,,,,,2666,-54,-61,1,0,0,response5disk,,3,-10,2,1,0,0,rectangle,-10,2,1,0,0,-10,2,1,0,0,0,89,89,57,1,,,,,,,,
,,,,,,,,,,,,,FF,,,,,,,,7.937,,,,,,,,,,,,,,,,,,,,,,60ff244bc01a67f580d9b5ba,61036f0966dec8e5896fc4f8,2021-07-29_22h22.49.719,Simcolourproject_2stim_asymm_v5,2020.2.10,MacIntel,60,61025ae37ef11b136ea224fe,,,,,,,,,1953,32,70,1,0,0,response1disk,,7,-6,-3,1,0,0,rectangle,-6,-3,1,0,0,-6,-3,1,0,0,0,90,90,127,1,,,,,,,,
,,,,,,,,,,,,,FF,,,,,,,,0.6,,,,,,,,,,,,,,,,,,,,,,60ff244bc01a67f580d9b5ba,61036f0966dec8e5896fc4f8,2021-07-29_22h22.49.719,Simcolourproject_2stim_asymm_v5,2020.2.10,MacIntel,60,61025ae37ef11b136ea224fe,,,,,,,,,1985,34,85,1,0,0,response1disk,,7,-14,-9,1,0,0,rectangle,-14,-9,1,0,0,-14,-9,1,0,0,0,91,91,135,1,,,,,,,,
,,,,,,,,,,,,,FF,,,,,,,,0.55,,,,,,,,,,,,,,,,,,,,,,60ff244bc01a67f580d9b5ba,61036f0966dec8e5896fc4f8,2021-07-29_22h22.49.719,Simcolourproject_2stim_asymm_v5,2020.2.10,MacIntel,60,61025ae37ef11b136ea224fe,,,,,,,,,858,34,61,1,0,0,response1disk,,7,-10,-16,1,0,0,rectangle,-10,-16,1,0,0,-10,-16,1,0,0,0,92,92,140,1,,,,,,,,
,,,,,,,,,,,,,FF,,,,,,,,0.733,,,,,,,,,,,,,,,,,,,,,,60ff244bc01a67f580d9b5ba,61036f0966dec8e5896fc4f8,2021-07-29_22h22.49.719,Simcolourproject_2stim_asymm_v5,2020.2.10,MacIntel,60,61025ae37ef11b136ea224fe,,,,,,,,,2086,30,55,1,0,0,response1disk,,7,2,-7,1,0,0,rectangle,2,-7,1,0,0,2,-7,1,0,0,0,93,93,110,1,,,,,,,,
,,,,,,,,,,,,,FF,,,,,,,,0.583,,,,,,,,,,,,,,,,,,,,,,60ff244bc01a67f580d9b5ba,61036f0966dec8e5896fc4f8,2021-07-29_22h22.49.719,Simcolourproject_2stim_asymm_v5,2020.2.10,MacIntel,60,61025ae37ef11b136ea224fe,,,,,,,,,422,38,67,1,0,0,response1disk,,7,6,9,1,0,0,rectangle,6,9,1,0,0,6,9,1,0,0,0,94,94,36,1,,,,,,,,
,,,,,,,,,,,,,FF,,,,,,,,0.634,,,,,,,,,,,,,,,,,,,,,,60ff244bc01a67f580d9b5ba,61036f0966dec8e5896fc4f8,2021-07-29_22h22.49.719,Simcolourproject_2stim_asymm_v5,2020.2.10,MacIntel,60,61025ae37ef11b136ea224fe,,,,,,,,,4349,52,98,1,0,0,response1disk,,7,6,8,1,0,0,rectangle,6,8,1,0,0,6,8,1,0,0,0,95,95,0,1,,,,,,,,
,,,,,,,,,,,,,FF,,,,,,,,0.501,,,,,,,,,,,,,,,,,,,,,,60ff244bc01a67f580d9b5ba,61036f0966dec8e5896fc4f8,2021-07-29_22h22.49.719,Simcolourproject_2stim_asymm_v5,2020.2.10,MacIntel,60,61025ae37ef11b136ea224fe,,,,,,,,,2179,39,68,1,0,0,response1disk,,7,-4,-1,1,0,0,rectangle,-4,-1,1,0,0,-4,-1,1,0,0,0,96,96,1,1,,,,,,,,
,,,,,,,,,,,,,FF,,,,,,,,1.484,,,,,,,,,,,,,,,,,,,,,,60ff244bc01a67f580d9b5ba,61036f0966dec8e5896fc4f8,2021-07-29_22h22.49.719,Simcolourproject_2stim_asymm_v5,2020.2.10,MacIntel,60,61025ae37ef11b136ea224fe,,,,,,,,,3139,37,-67,1,0,0,response3disk,,4,-2,-3,1,0,0,rectangle,-2,-3,1,0,0,-2,-3,1,0,0,0,97,97,95,1,,,,,,,,
,,,,,,,,,,,,,FF,,,,,,,,0.768,,,,,,,,,,,,,,,,,,,,,,60ff244bc01a67f580d9b5ba,61036f0966dec8e5896fc4f8,2021-07-29_22h22.49.719,Simcolourproject_2stim_asymm_v5,2020.2.10,MacIntel,60,61025ae37ef11b136ea224fe,,,,,,,,,1780,38,65,1,0,0,response1disk,,7,-3,-4,1,0,0,rectangle,-3,-4,1,0,0,-3,-4,1,0,0,0,98,98,25,1,,,,,,,,
,,,,,,,,,,,,,FF,,,,,,,,0.718,,,,,,,,,,,,,,,,,,,,,,60ff244bc01a67f580d9b5ba,61036f0966dec8e5896fc4f8,2021-07-29_22h22.49.719,Simcolourproject_2stim_asymm_v5,2020.2.10,MacIntel,60,61025ae37ef11b136ea224fe,,,,,,,,,3988,25,51,1,0,0,response1disk,,7,-13,-5,1,0,0,rectangle,-13,-5,1,0,0,-13,-5,1,0,0,0,99,99,82,1,,,,,,,,
,,,,,,,,,,,,,FF,,,,,,,,3.085,,,,,,,,,,,,,,,,,,,,,,60ff244bc01a67f580d9b5ba,61036f0966dec8e5896fc4f8,2021-07-29_22h22.49.719,Simcolourproject_2stim_asymm_v5,2020.2.10,MacIntel,60,61025ae37ef11b136ea224fe,,,,,,,,,3292,85,-39,1,0,0,response3disk,,5,1,5,1,0,0,rectangle,1,5,1,0,0,1,5,1,0,0,0,100,100,146,1,,,,,,,,
,,,,,,,,,,,,,FF,,,,,,,,1.301,,,,,,,,,,,,,,,,,,,,,,60ff244bc01a67f580d9b5ba,61036f0966dec8e5896fc4f8,2021-07-29_22h22.49.719,Simcolourproject_2stim_asymm_v5,2020.2.10,MacIntel,60,61025ae37ef11b136ea224fe,,,,,,,,,1465,90,-41,1,0,0,response3disk,,5,-4,7,1,0,0,rectangle,-4,7,1,0,0,-4,7,1,0,0,0,101,101,72,1,,,,,,,,
,,,,,,,,,,,,,FF,,,,,,,,1.701,,,,,,,,,,,,,,,,,,,,,,60ff244bc01a67f580d9b5ba,61036f0966dec8e5896fc4f8,2021-07-29_22h22.49.719,Simcolourproject_2stim_asymm_v5,2020.2.10,MacIntel,60,61025ae37ef11b136ea224fe,,,,,,,,,2051,23,54,1,0,0,response1disk,,7,-6,-3,1,0,0,rectangle,-6,-3,1,0,0,-6,-3,1,0,0,0,102,102,35,1,,,,,,,,
,,,,,,,,,,,,,FF,,,,,,,,0.75,,,,,,,,,,,,,,,,,,,,,,60ff244bc01a67f580d9b5ba,61036f0966dec8e5896fc4f8,2021-07-29_22h22.49.719,Simcolourproject_2stim_asymm_v5,2020.2.10,MacIntel,60,61025ae37ef11b136ea224fe,,,,,,,,,1534,22,64,1,0,0,response1disk,,7,-5,3,1,0,0,rectangle,-5,3,1,0,0,-5,3,1,0,0,0,103,103,17,1,,,,,,,,
,,,,,,,,,,,,,FF,,,,,,,,0.784,,,,,,,,,,,,,,,,,,,,,,60ff244bc01a67f580d9b5ba,61036f0966dec8e5896fc4f8,2021-07-29_22h22.49.719,Simcolourproject_2stim_asymm_v5,2020.2.10,MacIntel,60,61025ae37ef11b136ea224fe,,,,,,,,,3143,29,52,1,0,0,response1disk,,7,11,10,1,0,0,rectangle,11,10,1,0,0,11,10,1,0,0,0,104,104,133,1,,,,,,,,
,,,,,,,,,,,,,FF,,,,,,,,0.55,,,,,,,,,,,,,,,,,,,,,,60ff244bc01a67f580d9b5ba,61036f0966dec8e5896fc4f8,2021-07-29_22h22.49.719,Simcolourproject_2stim_asymm_v5,2020.2.10,MacIntel,60,61025ae37ef11b136ea224fe,,,,,,,,,563,38,64,1,0,0,response1disk,,7,10,9,1,0,0,rectangle,10,9,1,0,0,10,9,1,0,0,0,105,105,88,1,,,,,,,,
,,,,,,,,,,,,,FF,,,,,,,,1.617,,,,,,,,,,,,,,,,,,,,,,60ff244bc01a67f580d9b5ba,61036f0966dec8e5896fc4f8,2021-07-29_22h22.49.719,Simcolourproject_2stim_asymm_v5,2020.2.10,MacIntel,60,61025ae37ef11b136ea224fe,,,,,,,,,4122,74,-27,1,0,0,response3disk,,5,-10,13,1,0,0,rectangle,-10,13,1,0,0,-10,13,1,0,0,0,106,106,75,1,,,,,,,,
,,,,,,,,,,,,,FF,,,,,,,,0.752,,,,,,,,,,,,,,,,,,,,,,60ff244bc01a67f580d9b5ba,61036f0966dec8e5896fc4f8,2021-07-29_22h22.49.719,Simcolourproject_2stim_asymm_v5,2020.2.10,MacIntel,60,61025ae37ef11b136ea224fe,,,,,,,,,2872,22,57,1,0,0,response1disk,,7,1,7,1,0,0,rectangle,1,7,1,0,0,1,7,1,0,0,0,107,107,10,1,,,,,,,,
,,,,,,,,,,,,,FF,,,,,,,,1.567,,,,,,,,,,,,,,,,,,,,,,60ff244bc01a67f580d9b5ba,61036f0966dec8e5896fc4f8,2021-07-29_22h22.49.719,Simcolourproject_2stim_asymm_v5,2020.2.10,MacIntel,60,61025ae37ef11b136ea224fe,,,,,,,,,2610,70,-49,1,0,0,response3disk,,5,-14,2,1,0,0,rectangle,-14,2,1,0,0,-14,2,1,0,0,0,108,108,89,1,,,,,,,,
,,,,,,,,,,,,,FF,,,,,,,,1.401,,,,,,,,,,,,,,,,,,,,,,60ff244bc01a67f580d9b5ba,61036f0966dec8e5896fc4f8,2021-07-29_22h22.49.719,Simcolourproject_2stim_asymm_v5,2020.2.10,MacIntel,60,61025ae37ef11b136ea224fe,,,,,,,,,2252,27,46,1,0,0,response1disk,,7,-5,-10,1,0,0,rectangle,-5,-10,1,0,0,-5,-10,1,0,0,0,109,109,38,1,,,,,,,,
,,,,,,,,,,,,,FF,,,,,,,,0.616,,,,,,,,,,,,,,,,,,,,,,60ff244bc01a67f580d9b5ba,61036f0966dec8e5896fc4f8,2021-07-29_22h22.49.719,Simcolourproject_2stim_asymm_v5,2020.2.10,MacIntel,60,61025ae37ef11b136ea224fe,,,,,,,,,87,22,50,1,0,0,response1disk,,7,8,7,1,0,0,rectangle,8,7,1,0,0,8,7,1,0,0,0,110,110,3,1,,,,,,,,
,,,,,,,,,,,,,FF,,,,,,,,0.45,,,,,,,,,,,,,,,,,,,,,,60ff244bc01a67f580d9b5ba,61036f0966dec8e5896fc4f8,2021-07-29_22h22.49.719,Simcolourproject_2stim_asymm_v5,2020.2.10,MacIntel,60,61025ae37ef11b136ea224fe,,,,,,,,,2149,30,54,1,0,0,response1disk,,7,13,2,1,0,0,rectangle,13,2,1,0,0,13,2,1,0,0,0,111,111,99,1,,,,,,,,
,,,,,,,,,,,,,FF,,,,,,,,0.568,,,,,,,,,,,,,,,,,,,,,,60ff244bc01a67f580d9b5ba,61036f0966dec8e5896fc4f8,2021-07-29_22h22.49.719,Simcolourproject_2stim_asymm_v5,2020.2.10,MacIntel,60,61025ae37ef11b136ea224fe,,,,,,,,,1426,37,59,1,0,0,response1disk,,7,10,7,1,0,0,rectangle,10,7,1,0,0,10,7,1,0,0,0,112,112,132,1,,,,,,,,
,,,,,,,,,,,,,FF,,,,,,,,0.384,,,,,,,,,,,,,,,,,,,,,,60ff244bc01a67f580d9b5ba,61036f0966dec8e5896fc4f8,2021-07-29_22h22.49.719,Simcolourproject_2stim_asymm_v5,2020.2.10,MacIntel,60,61025ae37ef11b136ea224fe,,,,,,,,,3666,29,48,1,0,0,response1disk,,7,16,13,1,0,0,rectangle,16,13,1,0,0,16,13,1,0,0,0,113,113,105,1,,,,,,,,
,,,,,,,,,,,,,FF,,,,,,,,0.466,,,,,,,,,,,,,,,,,,,,,,60ff244bc01a67f580d9b5ba,61036f0966dec8e5896fc4f8,2021-07-29_22h22.49.719,Simcolourproject_2stim_asymm_v5,2020.2.10,MacIntel,60,61025ae37ef11b136ea224fe,,,,,,,,,2200,40,91,1,0,0,response1disk,,7,13,10,1,0,0,rectangle,13,10,1,0,0,13,10,1,0,0,0,114,114,31,1,,,,,,,,
,,,,,,,,,,,,,FF,,,,,,,,0.684,,,,,,,,,,,,,,,,,,,,,,60ff244bc01a67f580d9b5ba,61036f0966dec8e5896fc4f8,2021-07-29_22h22.49.719,Simcolourproject_2stim_asymm_v5,2020.2.10,MacIntel,60,61025ae37ef11b136ea224fe,,,,,,,,,679,39,59,1,0,0,response1disk,,7,13,3,1,0,0,rectangle,13,3,1,0,0,13,3,1,0,0,0,115,115,21,1,,,,,,,,
,,,,,,,,,,,,,FF,,,,,,,,0.332,,,,,,,,,,,,,,,,,,,,,,60ff244bc01a67f580d9b5ba,61036f0966dec8e5896fc4f8,2021-07-29_22h22.49.719,Simcolourproject_2stim_asymm_v5,2020.2.10,MacIntel,60,61025ae37ef11b136ea224fe,,,,,,,,,1095,36,50,1,0,0,response1disk,,7,22,-2,1,0,0,rectangle,22,-2,1,0,0,22,-2,1,0,0,0,116,116,107,1,,,,,,,,
,,,,,,,,,,,,,FF,,,,,,,,0.366,,,,,,,,,,,,,,,,,,,,,,60ff244bc01a67f580d9b5ba,61036f0966dec8e5896fc4f8,2021-07-29_22h22.49.719,Simcolourproject_2stim_asymm_v5,2020.2.10,MacIntel,60,61025ae37ef11b136ea224fe,,,,,,,,,2692,34,50,1,0,0,response1disk,,7,25,-12,1,0,0,rectangle,25,-12,1,0,0,25,-12,1,0,0,0,117,117,65,1,,,,,,,,
,,,,,,,,,,,,,FF,,,,,,,,0.333,,,,,,,,,,,,,,,,,,,,,,60ff244bc01a67f580d9b5ba,61036f0966dec8e5896fc4f8,2021-07-29_22h22.49.719,Simcolourproject_2stim_asymm_v5,2020.2.10,MacIntel,60,61025ae37ef11b136ea224fe,,,,,,,,,3351,39,64,1,0,0,response1disk,,7,19,7,1,0,0,rectangle,19,7,1,0,0,19,7,1,0,0,0,118,118,120,1,,,,,,,,
,,,,,,,,,,,,,FF,,,,,,,,0.351,,,,,,,,,,,,,,,,,,,,,,60ff244bc01a67f580d9b5ba,61036f0966dec8e5896fc4f8,2021-07-29_22h22.49.719,Simcolourproject_2stim_asymm_v5,2020.2.10,MacIntel,60,61025ae37ef11b136ea224fe,,,,,,,,,3303,34,58,1,0,0,response1disk,,7,27,12,1,0,0,rectangle,27,12,1,0,0,27,12,1,0,0,0,119,119,115,1,,,,,,,,
,,,,,,,,,,,,,FF,,,,,,,,1.566,,,,,,,,,,,,,,,,,,,,,,60ff244bc01a67f580d9b5ba,61036f0966dec8e5896fc4f8,2021-07-29_22h22.49.719,Simcolourproject_2stim_asymm_v5,2020.2.10,MacIntel,60,61025ae37ef11b136ea224fe,,,,,,,,,3995,70,-40,1,0,0,response3disk,,5,-3,-5,1,0,0,rectangle,-3,-5,1,0,0,-3,-5,1,0,0,0,120,120,143,1,,,,,,,,
,,,,,,,,,,,,,FF,,,,,,,,2.636,,,,,,,,,,,,,,,,,,,,,,60ff244bc01a67f580d9b5ba,61036f0966dec8e5896fc4f8,2021-07-29_22h22.49.719,Simcolourproject_2stim_asymm_v5,2020.2.10,MacIntel,60,61025ae37ef11b136ea224fe,,,,,,,,,4269,71,-44,1,0,0,response3disk,,5,7,-11,1,0,0,rectangle,7,-11,1,0,0,7,-11,1,0,0,0,121,121,111,1,,,,,,,,
,,,,,,,,,,,,,FF,,,,,,,,1.152,,,,,,,,,,,,,,,,,,,,,,60ff244bc01a67f580d9b5ba,61036f0966dec8e5896fc4f8,2021-07-29_22h22.49.719,Simcolourproject_2stim_asymm_v5,2020.2.10,MacIntel,60,61025ae37ef11b136ea224fe,,,,,,,,,3488,34,55,1,0,0,response1disk,,7,6,-3,1,0,0,rectangle,6,-3,1,0,0,6,-3,1,0,0,0,122,122,147,1,,,,,,,,
,,,,,,,,,,,,,FF,,,,,,,,0.967,,,,,,,,,,,,,,,,,,,,,,60ff244bc01a67f580d9b5ba,61036f0966dec8e5896fc4f8,2021-07-29_22h22.49.719,Simcolourproject_2stim_asymm_v5,2020.2.10,MacIntel,60,61025ae37ef11b136ea224fe,,,,,,,,,275,20,60,1,0,0,response1disk,,7,6,1,1,0,0,rectangle,6,1,1,0,0,6,1,1,0,0,0,123,123,102,1,,,,,,,,
,,,,,,,,,,,,,FF,,,,,,,,0.466,,,,,,,,,,,,,,,,,,,,,,60ff244bc01a67f580d9b5ba,61036f0966dec8e5896fc4f8,2021-07-29_22h22.49.719,Simcolourproject_2stim_asymm_v5,2020.2.10,MacIntel,60,61025ae37ef11b136ea224fe,,,,,,,,,2379,39,65,1,0,0,response1disk,,7,10,10,1,0,0,rectangle,10,10,1,0,0,10,10,1,0,0,0,124,124,50,1,,,,,,,,
,,,,,,,,,,,,,FF,,,,,,,,0.366,,,,,,,,,,,,,,,,,,,,,,60ff244bc01a67f580d9b5ba,61036f0966dec8e5896fc4f8,2021-07-29_22h22.49.719,Simcolourproject_2stim_asymm_v5,2020.2.10,MacIntel,60,61025ae37ef11b136ea224fe,,,,,,,,,4214,46,86,1,0,0,response1disk,,7,10,5,1,0,0,rectangle,10,5,1,0,0,10,5,1,0,0,0,125,125,74,1,,,,,,,,
,,,,,,,,,,,,,FF,,,,,,,,0.317,,,,,,,,,,,,,,,,,,,,,,60ff244bc01a67f580d9b5ba,61036f0966dec8e5896fc4f8,2021-07-29_22h22.49.719,Simcolourproject_2stim_asymm_v5,2020.2.10,MacIntel,60,61025ae37ef11b136ea224fe,,,,,,,,,2456,41,68,1,0,0,response1disk,,7,31,9,1,0,0,rectangle,31,9,1,0,0,31,9,1,0,0,0,126,126,104,1,,,,,,,,
,,,,,,,,,,,,,FF,,,,,,,,1.967,,,,,,,,,,,,,,,,,,,,,,60ff244bc01a67f580d9b5ba,61036f0966dec8e5896fc4f8,2021-07-29_22h22.49.719,Simcolourproject_2stim_asymm_v5,2020.2.10,MacIntel,60,61025ae37ef11b136ea224fe,,,,,,,,,2221,52,63,1,0,0,response1disk,,7,3,1,1,0,0,rectangle,3,1,1,0,0,3,1,1,0,0,0,127,127,131,1,,,,,,,,
,,,,,,,,,,,,,FF,,,,,,,,0.818,,,,,,,,,,,,,,,,,,,,,,60ff244bc01a67f580d9b5ba,61036f0966dec8e5896fc4f8,2021-07-29_22h22.49.719,Simcolourproject_2stim_asymm_v5,2020.2.10,MacIntel,60,61025ae37ef11b136ea224fe,,,,,,,,,2914,29,66,1,0,0,response1disk,,7,4,-2,1,0,0,rectangle,4,-2,1,0,0,4,-2,1,0,0,0,128,128,54,1,,,,,,,,
,,,,,,,,,,,,,FF,,,,,,,,0.433,,,,,,,,,,,,,,,,,,,,,,60ff244bc01a67f580d9b5ba,61036f0966dec8e5896fc4f8,2021-07-29_22h22.49.719,Simcolourproject_2stim_asymm_v5,2020.2.10,MacIntel,60,61025ae37ef11b136ea224fe,,,,,,,,,1699,42,75,1,0,0,response1disk,,7,23,-4,1,0,0,rectangle,23,-4,1,0,0,23,-4,1,0,0,0,129,129,97,1,,,,,,,,
,,,,,,,,,,,,,FF,,,,,,,,0.4,,,,,,,,,,,,,,,,,,,,,,60ff244bc01a67f580d9b5ba,61036f0966dec8e5896fc4f8,2021-07-29_22h22.49.719,Simcolourproject_2stim_asymm_v5,2020.2.10,MacIntel,60,61025ae37ef11b136ea224fe,,,,,,,,,1945,57,85,1,0,0,response1disk,,7,23,-2,1,0,0,rectangle,23,-2,1,0,0,23,-2,1,0,0,0,130,130,77,1,,,,,,,,
,,,,,,,,,,,,,FF,,,,,,,,0.35,,,,,,,,,,,,,,,,,,,,,,60ff244bc01a67f580d9b5ba,61036f0966dec8e5896fc4f8,2021-07-29_22h22.49.719,Simcolourproject_2stim_asymm_v5,2020.2.10,MacIntel,60,61025ae37ef11b136ea224fe,,,,,,,,,2688,47,88,1,0,0,response1disk,,7,21,14,1,0,0,rectangle,21,14,1,0,0,21,14,1,0,0,0,131,131,70,1,,,,,,,,
,,,,,,,,,,,,,FF,,,,,,,,0.351,,,,,,,,,,,,,,,,,,,,,,60ff244bc01a67f580d9b5ba,61036f0966dec8e5896fc4f8,2021-07-29_22h22.49.719,Simcolourproject_2stim_asymm_v5,2020.2.10,MacIntel,60,61025ae37ef11b136ea224fe,,,,,,,,,1918,52,75,1,0,0,response1disk,,7,15,-15,1,0,0,rectangle,15,-15,1,0,0,15,-15,1,0,0,0,132,132,69,1,,,,,,,,
,,,,,,,,,,,,,FF,,,,,,,,0.417,,,,,,,,,,,,,,,,,,,,,,60ff244bc01a67f580d9b5ba,61036f0966dec8e5896fc4f8,2021-07-29_22h22.49.719,Simcolourproject_2stim_asymm_v5,2020.2.10,MacIntel,60,61025ae37ef11b136ea224fe,,,,,,,,,273,38,54,1,0,0,response1disk,,7,28,-2,1,0,0,rectangle,28,-2,1,0,0,28,-2,1,0,0,0,133,133,9,1,,,,,,,,
,,,,,,,,,,,,,FF,,,,,,,,0.301,,,,,,,,,,,,,,,,,,,,,,60ff244bc01a67f580d9b5ba,61036f0966dec8e5896fc4f8,2021-07-29_22h22.49.719,Simcolourproject_2stim_asymm_v5,2020.2.10,MacIntel,60,61025ae37ef11b136ea224fe,,,,,,,,,917,35,55,1,0,0,response1disk,,7,23,-11,1,0,0,rectangle,23,-11,1,0,0,23,-11,1,0,0,0,134,134,101,1,,,,,,,,
,,,,,,,,,,,,,FF,,,,,,,,0.351,,,,,,,,,,,,,,,,,,,,,,60ff244bc01a67f580d9b5ba,61036f0966dec8e5896fc4f8,2021-07-29_22h22.49.719,Simcolourproject_2stim_asymm_v5,2020.2.10,MacIntel,60,61025ae37ef11b136ea224fe,,,,,,,,,3822,41,53,1,0,0,response1disk,,7,20,-5,1,0,0,rectangle,20,-5,1,0,0,20,-5,1,0,0,0,135,135,136,1,,,,,,,,
,,,,,,,,,,,,,FF,,,,,,,,0.366,,,,,,,,,,,,,,,,,,,,,,60ff244bc01a67f580d9b5ba,61036f0966dec8e5896fc4f8,2021-07-29_22h22.49.719,Simcolourproject_2stim_asymm_v5,2020.2.10,MacIntel,60,61025ae37ef11b136ea224fe,,,,,,,,,2092,24,66,1,0,0,response1disk,,7,-7,-6,1,0,0,rectangle,-7,-6,1,0,0,-7,-6,1,0,0,0,136,136,27,1,,,,,,,,
,,,,,,,,,,,,,FF,,,,,,,,0.3,,,,,,,,,,,,,,,,,,,,,,60ff244bc01a67f580d9b5ba,61036f0966dec8e5896fc4f8,2021-07-29_22h22.49.719,Simcolourproject_2stim_asymm_v5,2020.2.10,MacIntel,60,61025ae37ef11b136ea224fe,,,,,,,,,3441,27,42,1,0,0,response1disk,,7,13,6,1,0,0,rectangle,13,6,1,0,0,13,6,1,0,0,0,137,137,126,1,,,,,,,,
,,,,,,,,,,,,,FF,,,,,,,,0.351,,,,,,,,,,,,,,,,,,,,,,60ff244bc01a67f580d9b5ba,61036f0966dec8e5896fc4f8,2021-07-29_22h22.49.719,Simcolourproject_2stim_asymm_v5,2020.2.10,MacIntel,60,61025ae37ef11b136ea224fe,,,,,,,,,2383,27,83,1,0,0,response1disk,,7,3,-6,1,0,0,rectangle,3,-6,1,0,0,3,-6,1,0,0,0,138,138,91,1,,,,,,,,
,,,,,,,,,,,,,FF,,,,,,,,0.317,,,,,,,,,,,,,,,,,,,,,,60ff244bc01a67f580d9b5ba,61036f0966dec8e5896fc4f8,2021-07-29_22h22.49.719,Simcolourproject_2stim_asymm_v5,2020.2.10,MacIntel,60,61025ae37ef11b136ea224fe,,,,,,,,,396,29,48,1,0,0,response1disk,,7,22,0,1,0,0,rectangle,22,0,1,0,0,22,0,1,0,0,0,139,139,63,1,,,,,,,,
,,,,,,,,,,,,,FF,,,,,,,,0.299,,,,,,,,,,,,,,,,,,,,,,60ff244bc01a67f580d9b5ba,61036f0966dec8e5896fc4f8,2021-07-29_22h22.49.719,Simcolourproject_2stim_asymm_v5,2020.2.10,MacIntel,60,61025ae37ef11b136ea224fe,,,,,,,,,1444,36,59,1,0,0,response1disk,,7,15,-12,1,0,0,rectangle,15,-12,1,0,0,15,-12,1,0,0,0,140,140,42,1,,,,,,,,
,,,,,,,,,,,,,FF,,,,,,,,1.251,,,,,,,,,,,,,,,,,,,,,,60ff244bc01a67f580d9b5ba,61036f0966dec8e5896fc4f8,2021-07-29_22h22.49.719,Simcolourproject_2stim_asymm_v5,2020.2.10,MacIntel,60,61025ae37ef11b136ea224fe,,,,,,,,,720,-48,-54,1,0,0,response5disk,,3,5,-4,1,0,0,rectangle,5,-4,1,0,0,5,-4,1,0,0,0,141,141,157,1,,,,,,,,
,,,,,,,,,,,,,FF,,,,,,,,1.217,,,,,,,,,,,,,,,,,,,,,,60ff244bc01a67f580d9b5ba,61036f0966dec8e5896fc4f8,2021-07-29_22h22.49.719,Simcolourproject_2stim_asymm_v5,2020.2.10,MacIntel,60,61025ae37ef11b136ea224fe,,,,,,,,,250,37,58,1,0,0,response1disk,,7,4,-9,1,0,0,rectangle,4,-9,1,0,0,4,-9,1,0,0,0,142,142,52,1,,,,,,,,
,,,,,,,,,,,,,FF,,,,,,,,0.651,,,,,,,,,,,,,,,,,,,,,,60ff244bc01a67f580d9b5ba,61036f0966dec8e5896fc4f8,2021-07-29_22h22.49.719,Simcolourproject_2stim_asymm_v5,2020.2.10,MacIntel,60,61025ae37ef11b136ea224fe,,,,,,,,,3348,49,73,1,0,0,response1disk,,7,8,4,1,0,0,rectangle,8,4,1,0,0,8,4,1,0,0,0,143,143,98,1,,,,,,,,
,,,,,,,,,,,,,FF,,,,,,,,0.735,,,,,,,,,,,,,,,,,,,,,,60ff244bc01a67f580d9b5ba,61036f0966dec8e5896fc4f8,2021-07-29_22h22.49.719,Simcolourproject_2stim_asymm_v5,2020.2.10,MacIntel,60,61025ae37ef11b136ea224fe,,,,,,,,,3050,26,55,1,0,0,response1disk,,7,14,9,1,0,0,rectangle,14,9,1,0,0,14,9,1,0,0,0,144,144,117,1,,,,,,,,
,,,,,,,,,,,,,FF,,,,,,,,0.568,,,,,,,,,,,,,,,,,,,,,,60ff244bc01a67f580d9b5ba,61036f0966dec8e5896fc4f8,2021-07-29_22h22.49.719,Simcolourproject_2stim_asymm_v5,2020.2.10,MacIntel,60,61025ae37ef11b136ea224fe,,,,,,,,,1653,32,49,1,0,0,response1disk,,7,19,11,1,0,0,rectangle,19,11,1,0,0,19,11,1,0,0,0,145,145,90,1,,,,,,,,
,,,,,,,,,,,,,FF,,,,,,,,2.734,,,,,,,,,,,,,,,,,,,,,,60ff244bc01a67f580d9b5ba,61036f0966dec8e5896fc4f8,2021-07-29_22h22.49.719,Simcolourproject_2stim_asymm_v5,2020.2.10,MacIntel,60,61025ae37ef11b136ea224fe,,,,,,,,,1961,-40,-63,1,0,0,response5disk,,3,-20,0,1,0,0,rectangle,-20,0,1,0,0,-20,0,1,0,0,0,146,146,100,1,,,,,,,,
,,,,,,,,,,,,,FF,,,,,,,,1.649,,,,,,,,,,,,,,,,,,,,,,60ff244bc01a67f580d9b5ba,61036f0966dec8e5896fc4f8,2021-07-29_22h22.49.719,Simcolourproject_2stim_asymm_v5,2020.2.10,MacIntel,60,61025ae37ef11b136ea224fe,,,,,,,,,3167,44,72,1,0,0,response1disk,,7,7,-6,1,0,0,rectangle,7,-6,1,0,0,7,-6,1,0,0,0,147,147,53,1,,,,,,,,
,,,,,,,,,,,,,FF,,,,,,,,0.566,,,,,,,,,,,,,,,,,,,,,,60ff244bc01a67f580d9b5ba,61036f0966dec8e5896fc4f8,2021-07-29_22h22.49.719,Simcolourproject_2stim_asymm_v5,2020.2.10,MacIntel,60,61025ae37ef11b136ea224fe,,,,,,,,,2120,43,88,1,0,0,response1disk,,7,8,5,1,0,0,rectangle,8,5,1,0,0,8,5,1,0,0,0,148,148,28,1,,,,,,,,
,,,,,,,,,,,,,FF,,,,,,,,0.583,,,,,,,,,,,,,,,,,,,,,,60ff244bc01a67f580d9b5ba,61036f0966dec8e5896fc4f8,2021-07-29_22h22.49.719,Simcolourproject_2stim_asymm_v5,2020.2.10,MacIntel,60,61025ae37ef11b136ea224fe,,,,,,,,,3638,32,68,1,0,0,response1disk,,7,9,5,1,0,0,rectangle,9,5,1,0,0,9,5,1,0,0,0,149,149,109,1,,,,,,,,
,,,,,,,,,,,,,FF,,,,,,,,0.516,,,,,,,,,,,,,,,,,,,,,,60ff244bc01a67f580d9b5ba,61036f0966dec8e5896fc4f8,2021-07-29_22h22.49.719,Simcolourproject_2stim_asymm_v5,2020.2.10,MacIntel,60,61025ae37ef11b136ea224fe,,,,,,,,,1795,54,76,1,0,0,response1disk,,7,12,-12,1,0,0,rectangle,12,-12,1,0,0,12,-12,1,0,0,0,150,150,78,1,,,,,,,,
,,,,,,,,,,,,,FF,,,,,,,,0.45,,,,,,,,,,,,,,,,,,,,,,60ff244bc01a67f580d9b5ba,61036f0966dec8e5896fc4f8,2021-07-29_22h22.49.719,Simcolourproject_2stim_asymm_v5,2020.2.10,MacIntel,60,61025ae37ef11b136ea224fe,,,,,,,,,1571,38,58,1,0,0,response1disk,,7,23,-4,1,0,0,rectangle,23,-4,1,0,0,23,-4,1,0,0,0,151,151,112,1,,,,,,,,
,,,,,,,,,,,,,FF,,,,,,,,2.468,,,,,,,,,,,,,,,,,,,,,,60ff244bc01a67f580d9b5ba,61036f0966dec8e5896fc4f8,2021-07-29_22h22.49.719,Simcolourproject_2stim_asymm_v5,2020.2.10,MacIntel,60,61025ae37ef11b136ea224fe,,,,,,,,,1133,-65,-35,1,0,0,response5disk,,2,-2,-13,1,0,0,rectangle,-2,-13,1,0,0,-2,-13,1,0,0,0,152,152,4,1,,,,,,,,
,,,,,,,,,,,,,FF,,,,,,,,0.701,,,,,,,,,,,,,,,,,,,,,,60ff244bc01a67f580d9b5ba,61036f0966dec8e5896fc4f8,2021-07-29_22h22.49.719,Simcolourproject_2stim_asymm_v5,2020.2.10,MacIntel,60,61025ae37ef11b136ea224fe,,,,,,,,,1793,21,54,1,0,0,response1disk,,7,-1,-8,1,0,0,rectangle,-1,-8,1,0,0,-1,-8,1,0,0,0,153,153,68,1,,,,,,,,
,,,,,,,,,,,,,FF,,,,,,,,0.601,,,,,,,,,,,,,,,,,,,,,,60ff244bc01a67f580d9b5ba,61036f0966dec8e5896fc4f8,2021-07-29_22h22.49.719,Simcolourproject_2stim_asymm_v5,2020.2.10,MacIntel,60,61025ae37ef11b136ea224fe,,,,,,,,,4016,25,61,1,0,0,response1disk,,7,8,0,1,0,0,rectangle,8,0,1,0,0,8,0,1,0,0,0,154,154,5,1,,,,,,,,
,,,,,,,,,,,,,FF,,,,,,,,0.418,,,,,,,,,,,,,,,,,,,,,,60ff244bc01a67f580d9b5ba,61036f0966dec8e5896fc4f8,2021-07-29_22h22.49.719,Simcolourproject_2stim_asymm_v5,2020.2.10,MacIntel,60,61025ae37ef11b136ea224fe,,,,,,,,,1067,31,42,1,0,0,response1disk,,7,18,-4,1,0,0,rectangle,18,-4,1,0,0,18,-4,1,0,0,0,155,155,137,1,,,,,,,,
,,,,,,,,,,,,,FF,,,,,,,,0.435,,,,,,,,,,,,,,,,,,,,,,60ff244bc01a67f580d9b5ba,61036f0966dec8e5896fc4f8,2021-07-29_22h22.49.719,Simcolourproject_2stim_asymm_v5,2020.2.10,MacIntel,60,61025ae37ef11b136ea224fe,,,,,,,,,685,34,53,1,0,0,response1disk,,7,25,5,1,0,0,rectangle,25,5,1,0,0,25,5,1,0,0,0,156,156,49,1,,,,,,,,
,,,,,,,,,,,,,FF,,,,,,,,1.184,,,,,,,,,,,,,,,,,,,,,,60ff244bc01a67f580d9b5ba,61036f0966dec8e5896fc4f8,2021-07-29_22h22.49.719,Simcolourproject_2stim_asymm_v5,2020.2.10,MacIntel,60,61025ae37ef11b136ea224fe,,,,,,,,,1052,-61,-35,1,0,0,response5disk,,2,-8,-6,1,0,0,rectangle,-8,-6,1,0,0,-8,-6,1,0,0,0,157,157,159,1,,,,,,,,
,,,,,,,,,,,,,FF,,,,,,,,0.933,,,,,,,,,,,,,,,,,,,,,,60ff244bc01a67f580d9b5ba,61036f0966dec8e5896fc4f8,2021-07-29_22h22.49.719,Simcolourproject_2stim_asymm_v5,2020.2.10,MacIntel,60,61025ae37ef11b136ea224fe,,,,,,,,,4277,24,59,1,0,0,response1disk,,7,-4,-3,1,0,0,rectangle,-4,-3,1,0,0,-4,-3,1,0,0,0,158,158,41,1,,,,,,,,
,,,,,,,,,,,,,FF,,,,,,,,1.984,,,,,,,,,,,,,,,,,,,,,,60ff244bc01a67f580d9b5ba,61036f0966dec8e5896fc4f8,2021-07-29_22h22.49.719,Simcolourproject_2stim_asymm_v5,2020.2.10,MacIntel,60,61025ae37ef11b136ea224fe,,,,,,,,,4253,-38,-105,1,0,0,response5disk,,3,20,1,1,0,0,rectangle,20,1,1,0,0,20,1,1,0,0,0,159,159,18,1,,,,,,,,
,,,,,,,,,,,,,FF,,,,,,,,0.916,,,,,,,,,,,,,,,,,,,,,,60ff244bc01a67f580d9b5ba,61036f0966dec8e5896fc4f8,2021-07-29_22h22.49.719,Simcolourproject_2stim_asymm_v5,2020.2.10,MacIntel,60,61025ae37ef11b136ea224fe,,,,,,,,,3233,35,71,1,0,0,response1disk,,7,-10,-6,1,0,0,rectangle,-10,-6,1,0,0,-10,-6,1,0,0,1,0,160,131,1,,,,,,,,
,,,,,,,,,,,,,FF,,,,,,,,0.566,,,,,,,,,,,,,,,,,,,,,,60ff244bc01a67f580d9b5ba,61036f0966dec8e5896fc4f8,2021-07-29_22h22.49.719,Simcolourproject_2stim_asymm_v5,2020.2.10,MacIntel,60,61025ae37ef11b136ea224fe,,,,,,,,,3981,55,84,1,0,0,response1disk,,7,9,-3,1,0,0,rectangle,9,-3,1,0,0,9,-3,1,0,0,1,1,161,30,1,,,,,,,,
,,,,,,,,,,,,,FF,,,,,,,,1.418,,,,,,,,,,,,,,,,,,,,,,60ff244bc01a67f580d9b5ba,61036f0966dec8e5896fc4f8,2021-07-29_22h22.49.719,Simcolourproject_2stim_asymm_v5,2020.2.10,MacIntel,60,61025ae37ef11b136ea224fe,,,,,,,,,3936,-43,67,1,0,0,response7disk,,0,-5,-9,1,0,0,rectangle,-5,-9,1,0,0,-5,-9,1,0,0,1,2,162,82,1,,,,,,,,
,,,,,,,,,,,,,FF,,,,,,,,0.767,,,,,,,,,,,,,,,,,,,,,,60ff244bc01a67f580d9b5ba,61036f0966dec8e5896fc4f8,2021-07-29_22h22.49.719,Simcolourproject_2stim_asymm_v5,2020.2.10,MacIntel,60,61025ae37ef11b136ea224fe,,,,,,,,,490,22,57,1,0,0,response1disk,,7,-7,-8,1,0,0,rectangle,-7,-8,1,0,0,-7,-8,1,0,0,1,3,163,150,1,,,,,,,,
,,,,,,,,,,,,,FF,,,,,,,,0.601,,,,,,,,,,,,,,,,,,,,,,60ff244bc01a67f580d9b5ba,61036f0966dec8e5896fc4f8,2021-07-29_22h22.49.719,Simcolourproject_2stim_asymm_v5,2020.2.10,MacIntel,60,61025ae37ef11b136ea224fe,,,,,,,,,3796,37,64,1,0,0,response1disk,,7,-1,-9,1,0,0,rectangle,-1,-9,1,0,0,-1,-9,1,0,0,1,4,164,95,1,,,,,,,,
,,,,,,,,,,,,,FF,,,,,,,,1.367,,,,,,,,,,,,,,,,,,,,,,60ff244bc01a67f580d9b5ba,61036f0966dec8e5896fc4f8,2021-07-29_22h22.49.719,Simcolourproject_2stim_asymm_v5,2020.2.10,MacIntel,60,61025ae37ef11b136ea224fe,,,,,,,,,4353,-70,25,1,0,0,response7disk,,1,20,-5,1,0,0,rectangle,20,-5,1,0,0,20,-5,1,0,0,1,5,165,99,1,,,,,,,,
,,,,,,,,,,,,,FF,,,,,,,,0.666,,,,,,,,,,,,,,,,,,,,,,60ff244bc01a67f580d9b5ba,61036f0966dec8e5896fc4f8,2021-07-29_22h22.49.719,Simcolourproject_2stim_asymm_v5,2020.2.10,MacIntel,60,61025ae37ef11b136ea224fe,,,,,,,,,1350,42,72,1,0,0,response1disk,,7,16,-11,1,0,0,rectangle,16,-11,1,0,0,16,-11,1,0,0,1,6,166,70,1,,,,,,,,
,,,,,,,,,,,,,FF,,,,,,,,3.435,,,,,,,,,,,,,,,,,,,,,,60ff244bc01a67f580d9b5ba,61036f0966dec8e5896fc4f8,2021-07-29_22h22.49.719,Simcolourproject_2stim_asymm_v5,2020.2.10,MacIntel,60,61025ae37ef11b136ea224fe,,,,,,,,,360,38,-14,1,0,0,response3disk,,5,10,10,1,0,0,rectangle,10,10,1,0,0,10,10,1,0,0,1,7,167,144,1,,,,,,,,
,,,,,,,,,,,,,FF,,,,,,,,2.233,,,,,,,,,,,,,,,,,,,,,,60ff244bc01a67f580d9b5ba,61036f0966dec8e5896fc4f8,2021-07-29_22h22.49.719,Simcolourproject_2stim_asymm_v5,2020.2.10,MacIntel,60,61025ae37ef11b136ea224fe,,,,,,,,,3848,92,42,1,0,0,response1disk,,6,-7,8,1,0,0,rectangle,-7,8,1,0,0,-7,8,1,0,0,1,8,168,110,1,,,,,,,,
,,,,,,,,,,,,,FF,,,,,,,,0.966,,,,,,,,,,,,,,,,,,,,,,60ff244bc01a67f580d9b5ba,61036f0966dec8e5896fc4f8,2021-07-29_22h22.49.719,Simcolourproject_2stim_asymm_v5,2020.2.10,MacIntel,60,61025ae37ef11b136ea224fe,,,,,,,,,32,34,62,1,0,0,response1disk,,7,7,14,1,0,0,rectangle,7,14,1,0,0,7,14,1,0,0,1,9,169,156,1,,,,,,,,
,,,,,,,,,,,,,FF,,,,,,,,0.667,,,,,,,,,,,,,,,,,,,,,,60ff244bc01a67f580d9b5ba,61036f0966dec8e5896fc4f8,2021-07-29_22h22.49.719,Simcolourproject_2stim_asymm_v5,2020.2.10,MacIntel,60,61025ae37ef11b136ea224fe,,,,,,,,,1944,57,72,1,0,0,response1disk,,7,3,6,1,0,0,rectangle,3,6,1,0,0,3,6,1,0,0,1,10,170,49,1,,,,,,,,
,,,,,,,,,,,,,FF,,,,,,,,0.75,,,,,,,,,,,,,,,,,,,,,,60ff244bc01a67f580d9b5ba,61036f0966dec8e5896fc4f8,2021-07-29_22h22.49.719,Simcolourproject_2stim_asymm_v5,2020.2.10,MacIntel,60,61025ae37ef11b136ea224fe,,,,,,,,,3206,62,84,1,0,0,response1disk,,7,11,15,1,0,0,rectangle,11,15,1,0,0,11,15,1,0,0,1,11,171,120,1,,,,,,,,
,,,,,,,,,,,,,FF,,,,,,,,0.499,,,,,,,,,,,,,,,,,,,,,,60ff244bc01a67f580d9b5ba,61036f0966dec8e5896fc4f8,2021-07-29_22h22.49.719,Simcolourproject_2stim_asymm_v5,2020.2.10,MacIntel,60,61025ae37ef11b136ea224fe,,,,,,,,,2703,30,64,1,0,0,response1disk,,7,-7,-12,1,0,0,rectangle,-7,-12,1,0,0,-7,-12,1,0,0,1,12,172,69,1,,,,,,,,
,,,,,,,,,,,,,FF,,,,,,,,0.4,,,,,,,,,,,,,,,,,,,,,,60ff244bc01a67f580d9b5ba,61036f0966dec8e5896fc4f8,2021-07-29_22h22.49.719,Simcolourproject_2stim_asymm_v5,2020.2.10,MacIntel,60,61025ae37ef11b136ea224fe,,,,,,,,,1485,47,68,1,0,0,response1disk,,7,18,10,1,0,0,rectangle,18,10,1,0,0,18,10,1,0,0,1,13,173,130,1,,,,,,,,
,,,,,,,,,,,,,FF,,,,,,,,0.6,,,,,,,,,,,,,,,,,,,,,,60ff244bc01a67f580d9b5ba,61036f0966dec8e5896fc4f8,2021-07-29_22h22.49.719,Simcolourproject_2stim_asymm_v5,2020.2.10,MacIntel,60,61025ae37ef11b136ea224fe,,,,,,,,,2378,44,66,1,0,0,response1disk,,7,15,15,1,0,0,rectangle,15,15,1,0,0,15,15,1,0,0,1,14,174,83,1,,,,,,,,
,,,,,,,,,,,,,FF,,,,,,,,1.367,,,,,,,,,,,,,,,,,,,,,,60ff244bc01a67f580d9b5ba,61036f0966dec8e5896fc4f8,2021-07-29_22h22.49.719,Simcolourproject_2stim_asymm_v5,2020.2.10,MacIntel,60,61025ae37ef11b136ea224fe,,,,,,,,,3998,-81,30,1,0,0,response7disk,,1,-23,5,1,0,0,rectangle,-23,5,1,0,0,-23,5,1,0,0,1,15,175,72,1,,,,,,,,
,,,,,,,,,,,,,FF,,,,,,,,1.533,,,,,,,,,,,,,,,,,,,,,,60ff244bc01a67f580d9b5ba,61036f0966dec8e5896fc4f8,2021-07-29_22h22.49.719,Simcolourproject_2stim_asymm_v5,2020.2.10,MacIntel,60,61025ae37ef11b136ea224fe,,,,,,,,,460,-80,-51,1,0,0,response5disk,,2,4,7,1,0,0,rectangle,22,66,1,0,0,11,7,1,0,0,1,16,176,126,1,,response1disk_3,TRUE,7,7,"[202,29,226,185,195,290,8,193,243,177,45,244,272,39,70,302,226,75,282,180]",2.834,rectangle
,,,,,,,,,,,,,FF,,,,,,,,1.35,,,,,,,,,,,,,,,,,,,,,,60ff244bc01a67f580d9b5ba,61036f0966dec8e5896fc4f8,2021-07-29_22h22.49.719,Simcolourproject_2stim_asymm_v5,2020.2.10,MacIntel,60,61025ae37ef11b136ea224fe,,,,,,,,,4055,35,71,1,0,0,response1disk,,7,10,2,1,0,0,rectangle,10,2,1,0,0,10,2,1,0,0,1,17,177,96,1,,,,,,,,
,,,,,,,,,,,,,FF,,,,,,,,0.55,,,,,,,,,,,,,,,,,,,,,,60ff244bc01a67f580d9b5ba,61036f0966dec8e5896fc4f8,2021-07-29_22h22.49.719,Simcolourproject_2stim_asymm_v5,2020.2.10,MacIntel,60,61025ae37ef11b136ea224fe,,,,,,,,,3990,26,62,1,0,0,response1disk,,7,-2,-9,1,0,0,rectangle,-2,-9,1,0,0,-2,-9,1,0,0,1,18,178,90,1,,,,,,,,
,,,,,,,,,,,,,FF,,,,,,,,0.516,,,,,,,,,,,,,,,,,,,,,,60ff244bc01a67f580d9b5ba,61036f0966dec8e5896fc4f8,2021-07-29_22h22.49.719,Simcolourproject_2stim_asymm_v5,2020.2.10,MacIntel,60,61025ae37ef11b136ea224fe,,,,,,,,,695,28,63,1,0,0,response1disk,,7,11,-1,1,0,0,rectangle,67,-97,1,0,0,-17,-7,1,0,0,1,19,179,3,1,,response3disk_3,TRUE,4,4,"[202,29,226,185,195,290,8,193,243,177,45,244,272,39,70,302,226,75,282,180]",2.384,rectangle
,,,,,,,,,,,,,FF,,,,,,,,1.8,,,,,,,,,,,,,,,,,,,,,,60ff244bc01a67f580d9b5ba,61036f0966dec8e5896fc4f8,2021-07-29_22h22.49.719,Simcolourproject_2stim_asymm_v5,2020.2.10,MacIntel,60,61025ae37ef11b136ea224fe,,,,,,,,,726,-21,-83,1,0,0,response5disk,,3,4,6,1,0,0,rectangle,4,6,1,0,0,4,6,1,0,0,1,20,180,139,1,,,,,,,,
,,,,,,,,,,,,,FF,,,,,,,,0.767,,,,,,,,,,,,,,,,,,,,,,60ff244bc01a67f580d9b5ba,61036f0966dec8e5896fc4f8,2021-07-29_22h22.49.719,Simcolourproject_2stim_asymm_v5,2020.2.10,MacIntel,60,61025ae37ef11b136ea224fe,,,,,,,,,421,31,46,1,0,0,response1disk,,7,15,5,1,0,0,rectangle,15,5,1,0,0,15,5,1,0,0,1,21,181,84,1,,,,,,,,
,,,,,,,,,,,,,FF,,,,,,,,0.883,,,,,,,,,,,,,,,,,,,,,,60ff244bc01a67f580d9b5ba,61036f0966dec8e5896fc4f8,2021-07-29_22h22.49.719,Simcolourproject_2stim_asymm_v5,2020.2.10,MacIntel,60,61025ae37ef11b136ea224fe,,,,,,,,,1634,29,47,1,0,0,response1disk,,7,-3,-5,1,0,0,rectangle,-3,-5,1,0,0,-3,-5,1,0,0,1,22,182,151,1,,,,,,,,
,,,,,,,,,,,,,FF,,,,,,,,0.583,,,,,,,,,,,,,,,,,,,,,,60ff244bc01a67f580d9b5ba,61036f0966dec8e5896fc4f8,2021-07-29_22h22.49.719,Simcolourproject_2stim_asymm_v5,2020.2.10,MacIntel,60,61025ae37ef11b136ea224fe,,,,,,,,,963,30,57,1,0,0,response1disk,,7,7,10,1,0,0,rectangle,7,10,1,0,0,7,10,1,0,0,1,23,183,154,1,,,,,,,,
,,,,,,,,,,,,,FF,,,,,,,,0.684,,,,,,,,,,,,,,,,,,,,,,60ff244bc01a67f580d9b5ba,61036f0966dec8e5896fc4f8,2021-07-29_22h22.49.719,Simcolourproject_2stim_asymm_v5,2020.2.10,MacIntel,60,61025ae37ef11b136ea224fe,,,,,,,,,2907,28,48,1,0,0,response1disk,,7,6,15,1,0,0,rectangle,-71,34,1,0,0,-14,10,1,0,0,1,24,184,41,1,,response7disk_3,TRUE,1,1,"[202,29,226,185,195,290,8,193,243,177,45,244,272,39,70,302,226,75,282,180]",1.3,rectangle
,,,,,,,,,,,,,FF,,,,,,,,0.599,,,,,,,,,,,,,,,,,,,,,,60ff244bc01a67f580d9b5ba,61036f0966dec8e5896fc4f8,2021-07-29_22h22.49.719,Simcolourproject_2stim_asymm_v5,2020.2.10,MacIntel,60,61025ae37ef11b136ea224fe,,,,,,,,,2593,44,88,1,0,0,response1disk,,7,10,12,1,0,0,rectangle,10,12,1,0,0,10,12,1,0,0,1,25,185,36,1,,,,,,,,
,,,,,,,,,,,,,FF,,,,,,,,0.517,,,,,,,,,,,,,,,,,,,,,,60ff244bc01a67f580d9b5ba,61036f0966dec8e5896fc4f8,2021-07-29_22h22.49.719,Simcolourproject_2stim_asymm_v5,2020.2.10,MacIntel,60,61025ae37ef11b136ea224fe,,,,,,,,,577,35,60,1,0,0,response1disk,,7,-2,0,1,0,0,rectangle,-2,0,1,0,0,-2,0,1,0,0,1,26,186,37,1,,,,,,,,
,,,,,,,,,,,,,FF,,,,,,,,1.351,,,,,,,,,,,,,,,,,,,,,,60ff244bc01a67f580d9b5ba,61036f0966dec8e5896fc4f8,2021-07-29_22h22.49.719,Simcolourproject_2stim_asymm_v5,2020.2.10,MacIntel,60,61025ae37ef11b136ea224fe,,,,,,,,,366,-41,65,1,0,0,response7disk,,0,3,-2,1,0,0,rectangle,3,-2,1,0,0,3,-2,1,0,0,1,27,187,0,1,,,,,,,,
,,,,,,,,,,,,,FF,,,,,,,,1.767,,,,,,,,,,,,,,,,,,,,,,60ff244bc01a67f580d9b5ba,61036f0966dec8e5896fc4f8,2021-07-29_22h22.49.719,Simcolourproject_2stim_asymm_v5,2020.2.10,MacIntel,60,61025ae37ef11b136ea224fe,,,,,,,,,16,33,53,1,0,0,response1disk,,7,-8,4,1,0,0,rectangle,-8,4,1,0,0,-8,4,1,0,0,1,28,188,1,1,,,,,,,,
,,,,,,,,,,,,,FF,,,,,,,,0.417,,,,,,,,,,,,,,,,,,,,,,60ff244bc01a67f580d9b5ba,61036f0966dec8e5896fc4f8,2021-07-29_22h22.49.719,Simcolourproject_2stim_asymm_v5,2020.2.10,MacIntel,60,61025ae37ef11b136ea224fe,,,,,,,,,3359,42,78,1,0,0,response1disk,,7,1,7,1,0,0,rectangle,1,7,1,0,0,1,7,1,0,0,1,29,189,24,1,,,,,,,,
,,,,,,,,,,,,,FF,,,,,,,,0.367,,,,,,,,,,,,,,,,,,,,,,60ff244bc01a67f580d9b5ba,61036f0966dec8e5896fc4f8,2021-07-29_22h22.49.719,Simcolourproject_2stim_asymm_v5,2020.2.10,MacIntel,60,61025ae37ef11b136ea224fe,,,,,,,,,4090,48,82,1,0,0,response1disk,,7,16,11,1,0,0,rectangle,16,11,1,0,0,16,11,1,0,0,1,30,190,79,1,,,,,,,,
,,,,,,,,,,,,,FF,,,,,,,,0.316,,,,,,,,,,,,,,,,,,,,,,60ff244bc01a67f580d9b5ba,61036f0966dec8e5896fc4f8,2021-07-29_22h22.49.719,Simcolourproject_2stim_asymm_v5,2020.2.10,MacIntel,60,61025ae37ef11b136ea224fe,,,,,,,,,3424,48,81,1,0,0,response1disk,,7,8,-13,1,0,0,rectangle,8,-13,1,0,0,8,-13,1,0,0,1,31,191,145,1,,,,,,,,
,,,,,,,,,,,,,FF,,,,,,,,0.3,,,,,,,,,,,,,,,,,,,,,,60ff244bc01a67f580d9b5ba,61036f0966dec8e5896fc4f8,2021-07-29_22h22.49.719,Simcolourproject_2stim_asymm_v5,2020.2.10,MacIntel,60,61025ae37ef11b136ea224fe,,,,,,,,,2579,57,93,1,0,0,response1disk,,7,11,2,1,0,0,rectangle,-82,51,1,0,0,-3,7,1,0,0,1,32,192,140,1,,response7disk_3,TRUE,1,1,"[202,29,226,185,195,290,8,193,243,177,45,244,272,39,70,302,226,75,282,180]",1.467,rectangle
,,,,,,,,,,,,,FF,,,,,,,,1.367,,,,,,,,,,,,,,,,,,,,,,60ff244bc01a67f580d9b5ba,61036f0966dec8e5896fc4f8,2021-07-29_22h22.49.719,Simcolourproject_2stim_asymm_v5,2020.2.10,MacIntel,60,61025ae37ef11b136ea224fe,,,,,,,,,3375,40,-83,1,0,0,response3disk,,4,-6,2,1,0,0,rectangle,-6,2,1,0,0,-6,2,1,0,0,1,33,193,10,1,,,,,,,,
,,,,,,,,,,,,,FF,,,,,,,,0.9,,,,,,,,,,,,,,,,,,,,,,60ff244bc01a67f580d9b5ba,61036f0966dec8e5896fc4f8,2021-07-29_22h22.49.719,Simcolourproject_2stim_asymm_v5,2020.2.10,MacIntel,60,61025ae37ef11b136ea224fe,,,,,,,,,3081,33,59,1,0,0,response1disk,,7,11,-5,1,0,0,rectangle,31,89,1,0,0,6,-8,1,0,0,1,34,194,138,1,,response1disk_3,TRUE,7,7,"[202,29,226,185,195,290,8,193,243,177,45,244,272,39,70,302,226,75,282,180]",1.251,rectangle
,,,,,,,,,,,,,FF,,,,,,,,0.751,,,,,,,,,,,,,,,,,,,,,,60ff244bc01a67f580d9b5ba,61036f0966dec8e5896fc4f8,2021-07-29_22h22.49.719,Simcolourproject_2stim_asymm_v5,2020.2.10,MacIntel,60,61025ae37ef11b136ea224fe,,,,,,,,,1638,32,59,1,0,0,response1disk,,7,13,-5,1,0,0,rectangle,13,-5,1,0,0,13,-5,1,0,0,1,35,195,132,1,,,,,,,,
,,,,,,,,,,,,,FF,,,,,,,,0.617,,,,,,,,,,,,,,,,,,,,,,60ff244bc01a67f580d9b5ba,61036f0966dec8e5896fc4f8,2021-07-29_22h22.49.719,Simcolourproject_2stim_asymm_v5,2020.2.10,MacIntel,60,61025ae37ef11b136ea224fe,,,,,,,,,4140,-32,79,1,0,0,response7disk,,0,-13,1,1,0,0,rectangle,-13,1,1,0,0,-13,1,1,0,0,1,36,196,22,1,,,,,,,,
,,,,,,,,,,,,,FF,,,,,,,,0.434,,,,,,,,,,,,,,,,,,,,,,60ff244bc01a67f580d9b5ba,61036f0966dec8e5896fc4f8,2021-07-29_22h22.49.719,Simcolourproject_2stim_asymm_v5,2020.2.10,MacIntel,60,61025ae37ef11b136ea224fe,,,,,,,,,1646,24,70,1,0,0,response1disk,,7,4,-2,1,0,0,rectangle,4,-2,1,0,0,4,-2,1,0,0,1,37,197,121,1,,,,,,,,
,,,,,,,,,,,,,FF,,,,,,,,0.6,,,,,,,,,,,,,,,,,,,,,,60ff244bc01a67f580d9b5ba,61036f0966dec8e5896fc4f8,2021-07-29_22h22.49.719,Simcolourproject_2stim_asymm_v5,2020.2.10,MacIntel,60,61025ae37ef11b136ea224fe,,,,,,,,,3409,30,55,1,0,0,response1disk,,7,10,-1,1,0,0,rectangle,10,-1,1,0,0,10,-1,1,0,0,1,38,198,11,1,,,,,,,,
,,,,,,,,,,,,,FF,,,,,,,,0.45,,,,,,,,,,,,,,,,,,,,,,60ff244bc01a67f580d9b5ba,61036f0966dec8e5896fc4f8,2021-07-29_22h22.49.719,Simcolourproject_2stim_asymm_v5,2020.2.10,MacIntel,60,61025ae37ef11b136ea224fe,,,,,,,,,388,34,54,1,0,0,response1disk,,7,19,6,1,0,0,rectangle,19,6,1,0,0,19,6,1,0,0,1,39,199,157,1,,,,,,,,
,,,,,,,,,,,,,FF,,,,,,,,0.734,,,,,,,,,,,,,,,,,,,,,,60ff244bc01a67f580d9b5ba,61036f0966dec8e5896fc4f8,2021-07-29_22h22.49.719,Simcolourproject_2stim_asymm_v5,2020.2.10,MacIntel,60,61025ae37ef11b136ea224fe,,,,,,,,,1425,38,58,1,0,0,response1disk,,7,-8,-10,1,0,0,rectangle,-8,-10,1,0,0,-8,-10,1,0,0,1,40,200,86,1,,,,,,,,
,,,,,,,,,,,,,FF,,,,,,,,0.349,,,,,,,,,,,,,,,,,,,,,,60ff244bc01a67f580d9b5ba,61036f0966dec8e5896fc4f8,2021-07-29_22h22.49.719,Simcolourproject_2stim_asymm_v5,2020.2.10,MacIntel,60,61025ae37ef11b136ea224fe,,,,,,,,,1504,37,87,1,0,0,response1disk,,7,6,-16,1,0,0,rectangle,-85,-46,1,0,0,14,-14,1,0,0,1,41,201,146,1,,response5disk_3,TRUE,2,2,"[202,29,226,185,195,290,8,193,243,177,45,244,272,39,70,302,226,75,282,180]",1.566,rectangle
,,,,,,,,,,,,,FF,,,,,,,,0.751,,,,,,,,,,,,,,,,,,,,,,60ff244bc01a67f580d9b5ba,61036f0966dec8e5896fc4f8,2021-07-29_22h22.49.719,Simcolourproject_2stim_asymm_v5,2020.2.10,MacIntel,60,61025ae37ef11b136ea224fe,,,,,,,,,2018,34,64,1,0,0,response1disk,,7,-3,-13,1,0,0,rectangle,-3,-13,1,0,0,-3,-13,1,0,0,1,42,202,113,1,,,,,,,,
,,,,,,,,,,,,,FF,,,,,,,,0.549,,,,,,,,,,,,,,,,,,,,,,60ff244bc01a67f580d9b5ba,61036f0966dec8e5896fc4f8,2021-07-29_22h22.49.719,Simcolourproject_2stim_asymm_v5,2020.2.10,MacIntel,60,61025ae37ef11b136ea224fe,,,,,,,,,3085,32,83,1,0,0,response1disk,,7,8,-3,1,0,0,rectangle,8,-3,1,0,0,8,-3,1,0,0,1,43,203,14,1,,,,,,,,
,,,,,,,,,,,,,FF,,,,,,,,0.967,,,,,,,,,,,,,,,,,,,,,,60ff244bc01a67f580d9b5ba,61036f0966dec8e5896fc4f8,2021-07-29_22h22.49.719,Simcolourproject_2stim_asymm_v5,2020.2.10,MacIntel,60,61025ae37ef11b136ea224fe,,,,,,,,,456,67,-80,1,0,0,response3disk,,4,-9,-11,1,0,0,rectangle,-9,-11,1,0,0,-9,-11,1,0,0,1,44,204,102,1,,,,,,,,
,,,,,,,,,,,,,FF,,,,,,,,0.718,,,,,,,,,,,,,,,,,,,,,,60ff244bc01a67f580d9b5ba,61036f0966dec8e5896fc4f8,2021-07-29_22h22.49.719,Simcolourproject_2stim_asymm_v5,2020.2.10,MacIntel,60,61025ae37ef11b136ea224fe,,,,,,,,,3724,37,57,1,0,0,response1disk,,7,9,6,1,0,0,rectangle,9,6,1,0,0,9,6,1,0,0,1,45,205,81,1,,,,,,,,
,,,,,,,,,,,,,FF,,,,,,,,0.466,,,,,,,,,,,,,,,,,,,,,,60ff244bc01a67f580d9b5ba,61036f0966dec8e5896fc4f8,2021-07-29_22h22.49.719,Simcolourproject_2stim_asymm_v5,2020.2.10,MacIntel,60,61025ae37ef11b136ea224fe,,,,,,,,,2743,32,52,1,0,0,response1disk,,7,3,-10,1,0,0,rectangle,3,-10,1,0,0,3,-10,1,0,0,1,46,206,64,1,,,,,,,,
,,,,,,,,,,,,,FF,,,,,,,,0.451,,,,,,,,,,,,,,,,,,,,,,60ff244bc01a67f580d9b5ba,61036f0966dec8e5896fc4f8,2021-07-29_22h22.49.719,Simcolourproject_2stim_asymm_v5,2020.2.10,MacIntel,60,61025ae37ef11b136ea224fe,,,,,,,,,3930,40,64,1,0,0,response1disk,,7,23,-2,1,0,0,rectangle,23,-2,1,0,0,23,-2,1,0,0,1,47,207,78,1,,,,,,,,
,,,,,,,,,,,,,FF,,,,,,,,0.45,,,,,,,,,,,,,,,,,,,,,,60ff244bc01a67f580d9b5ba,61036f0966dec8e5896fc4f8,2021-07-29_22h22.49.719,Simcolourproject_2stim_asymm_v5,2020.2.10,MacIntel,60,61025ae37ef11b136ea224fe,,,,,,,,,2157,28,71,1,0,0,response1disk,,7,16,2,1,0,0,rectangle,16,2,1,0,0,16,2,1,0,0,1,48,208,60,1,,,,,,,,
,,,,,,,,,,,,,FF,,,,,,,,0.466,,,,,,,,,,,,,,,,,,,,,,60ff244bc01a67f580d9b5ba,61036f0966dec8e5896fc4f8,2021-07-29_22h22.49.719,Simcolourproject_2stim_asymm_v5,2020.2.10,MacIntel,60,61025ae37ef11b136ea224fe,,,,,,,,,4012,33,56,1,0,0,response1disk,,7,20,-1,1,0,0,rectangle,20,-1,1,0,0,20,-1,1,0,0,1,49,209,55,1,,,,,,,,
,,,,,,,,,,,,,FF,,,,,,,,0.433,,,,,,,,,,,,,,,,,,,,,,60ff244bc01a67f580d9b5ba,61036f0966dec8e5896fc4f8,2021-07-29_22h22.49.719,Simcolourproject_2stim_asymm_v5,2020.2.10,MacIntel,60,61025ae37ef11b136ea224fe,,,,,,,,,4079,32,60,1,0,0,response1disk,,7,22,11,1,0,0,rectangle,22,11,1,0,0,22,11,1,0,0,1,50,210,93,1,,,,,,,,
,,,,,,,,,,,,,FF,,,,,,,,0.334,,,,,,,,,,,,,,,,,,,,,,60ff244bc01a67f580d9b5ba,61036f0966dec8e5896fc4f8,2021-07-29_22h22.49.719,Simcolourproject_2stim_asymm_v5,2020.2.10,MacIntel,60,61025ae37ef11b136ea224fe,,,,,,,,,3169,36,70,1,0,0,response1disk,,7,31,10,1,0,0,rectangle,31,10,1,0,0,31,10,1,0,0,1,51,211,88,1,,,,,,,,
,,,,,,,,,,,,,FF,,,,,,,,68.149,,,,,,,,,,,,,,,,,,,,,,60ff244bc01a67f580d9b5ba,61036f0966dec8e5896fc4f8,2021-07-29_22h22.49.719,Simcolourproject_2stim_asymm_v5,2020.2.10,MacIntel,60,61025ae37ef11b136ea224fe,,,,,,,,,2946,23,66,1,0,0,response1disk,,7,7,12,1,0,0,rectangle,7,12,1,0,0,7,12,1,0,0,1,52,212,91,1,,,,,,,,
,,,,,,,,,,,,,FF,,,,,,,,0.733,,,,,,,,,,,,,,,,,,,,,,60ff244bc01a67f580d9b5ba,61036f0966dec8e5896fc4f8,2021-07-29_22h22.49.719,Simcolourproject_2stim_asymm_v5,2020.2.10,MacIntel,60,61025ae37ef11b136ea224fe,,,,,,,,,2671,31,70,1,0,0,response1disk,,7,-1,-1,1,0,0,rectangle,-1,-1,1,0,0,-1,-1,1,0,0,1,53,213,23,1,,,,,,,,
,,,,,,,,,,,,,FF,,,,,,,,0.383,,,,,,,,,,,,,,,,,,,,,,60ff244bc01a67f580d9b5ba,61036f0966dec8e5896fc4f8,2021-07-29_22h22.49.719,Simcolourproject_2stim_asymm_v5,2020.2.10,MacIntel,60,61025ae37ef11b136ea224fe,,,,,,,,,921,27,60,1,0,0,response1disk,,7,8,-9,1,0,0,rectangle,8,-9,1,0,0,8,-9,1,0,0,1,54,214,114,1,,,,,,,,
,,,,,,,,,,,,,FF,,,,,,,,0.366,,,,,,,,,,,,,,,,,,,,,,60ff244bc01a67f580d9b5ba,61036f0966dec8e5896fc4f8,2021-07-29_22h22.49.719,Simcolourproject_2stim_asymm_v5,2020.2.10,MacIntel,60,61025ae37ef11b136ea224fe,,,,,,,,,2929,38,52,1,0,0,response1disk,,7,24,14,1,0,0,rectangle,24,14,1,0,0,24,14,1,0,0,1,55,215,89,1,,,,,,,,
,,,,,,,,,,,,,FF,,,,,,,,0.283,,,,,,,,,,,,,,,,,,,,,,60ff244bc01a67f580d9b5ba,61036f0966dec8e5896fc4f8,2021-07-29_22h22.49.719,Simcolourproject_2stim_asymm_v5,2020.2.10,MacIntel,60,61025ae37ef11b136ea224fe,,,,,,,,,2623,41,81,1,0,0,response1disk,,7,25,12,1,0,0,rectangle,25,12,1,0,0,25,12,1,0,0,1,56,216,97,1,,,,,,,,
,,,,,,,,,,,,,FF,,,,,,,,0.301,,,,,,,,,,,,,,,,,,,,,,60ff244bc01a67f580d9b5ba,61036f0966dec8e5896fc4f8,2021-07-29_22h22.49.719,Simcolourproject_2stim_asymm_v5,2020.2.10,MacIntel,60,61025ae37ef11b136ea224fe,,,,,,,,,2141,38,85,1,0,0,response1disk,,7,17,8,1,0,0,rectangle,17,8,1,0,0,17,8,1,0,0,1,57,217,137,1,,,,,,,,
,,,,,,,,,,,,,FF,,,,,,,,0.35,,,,,,,,,,,,,,,,,,,,,,60ff244bc01a67f580d9b5ba,61036f0966dec8e5896fc4f8,2021-07-29_22h22.49.719,Simcolourproject_2stim_asymm_v5,2020.2.10,MacIntel,60,61025ae37ef11b136ea224fe,,,,,,,,,1928,40,76,1,0,0,response1disk,,7,-7,-1,1,0,0,rectangle,-7,-1,1,0,0,-7,-1,1,0,0,1,58,218,116,1,,,,,,,,
,,,,,,,,,,,,,FF,,,,,,,,0.267,,,,,,,,,,,,,,,,,,,,,,60ff244bc01a67f580d9b5ba,61036f0966dec8e5896fc4f8,2021-07-29_22h22.49.719,Simcolourproject_2stim_asymm_v5,2020.2.10,MacIntel,60,61025ae37ef11b136ea224fe,,,,,,,,,1255,46,98,1,0,0,response1disk,,7,11,10,1,0,0,rectangle,11,10,1,0,0,11,10,1,0,0,1,59,219,80,1,,,,,,,,
,,,,,,,,,,,,,FF,,,,,,,,0.316,,,,,,,,,,,,,,,,,,,,,,60ff244bc01a67f580d9b5ba,61036f0966dec8e5896fc4f8,2021-07-29_22h22.49.719,Simcolourproject_2stim_asymm_v5,2020.2.10,MacIntel,60,61025ae37ef11b136ea224fe,,,,,,,,,559,33,77,1,0,0,response1disk,,7,10,-14,1,0,0,rectangle,10,-14,1,0,0,10,-14,1,0,0,1,60,220,6,1,,,,,,,,
,,,,,,,,,,,,,FF,,,,,,,,0.317,,,,,,,,,,,,,,,,,,,,,,60ff244bc01a67f580d9b5ba,61036f0966dec8e5896fc4f8,2021-07-29_22h22.49.719,Simcolourproject_2stim_asymm_v5,2020.2.10,MacIntel,60,61025ae37ef11b136ea224fe,,,,,,,,,3952,34,87,1,0,0,response1disk,,7,-6,8,1,0,0,rectangle,-6,8,1,0,0,-6,8,1,0,0,1,61,221,5,1,,,,,,,,
,,,,,,,,,,,,,FF,,,,,,,,32.114,,,,,,,,,,,,,,,,,,,,,,60ff244bc01a67f580d9b5ba,61036f0966dec8e5896fc4f8,2021-07-29_22h22.49.719,Simcolourproject_2stim_asymm_v5,2020.2.10,MacIntel,60,61025ae37ef11b136ea224fe,,,,,,,,,493,41,68,1,0,0,response1disk,,7,-21,-4,1,0,0,rectangle,-21,-4,1,0,0,-21,-4,1,0,0,1,62,222,48,1,,,,,,,,
,,,,,,,,,,,,,FF,,,,,,,,0.634,,,,,,,,,,,,,,,,,,,,,,60ff244bc01a67f580d9b5ba,61036f0966dec8e5896fc4f8,2021-07-29_22h22.49.719,Simcolourproject_2stim_asymm_v5,2020.2.10,MacIntel,60,61025ae37ef11b136ea224fe,,,,,,,,,956,22,45,1,0,0,response1disk,,7,12,-11,1,0,0,rectangle,12,-11,1,0,0,12,-11,1,0,0,1,63,223,75,1,,,,,,,,
,,,,,,,,,,,,,FF,,,,,,,,0.267,,,,,,,,,,,,,,,,,,,,,,60ff244bc01a67f580d9b5ba,61036f0966dec8e5896fc4f8,2021-07-29_22h22.49.719,Simcolourproject_2stim_asymm_v5,2020.2.10,MacIntel,60,61025ae37ef11b136ea224fe,,,,,,,,,1863,48,66,1,0,0,response1disk,,7,10,3,1,0,0,rectangle,10,3,1,0,0,10,3,1,0,0,1,64,224,98,1,,,,,,,,
,,,,,,,,,,,,,FF,,,,,,,,0.316,,,,,,,,,,,,,,,,,,,,,,60ff244bc01a67f580d9b5ba,61036f0966dec8e5896fc4f8,2021-07-29_22h22.49.719,Simcolourproject_2stim_asymm_v5,2020.2.10,MacIntel,60,61025ae37ef11b136ea224fe,,,,,,,,,2976,42,73,1,0,0,response1disk,,7,2,-12,1,0,0,rectangle,38,76,1,0,0,0,-3,1,0,0,1,65,225,31,1,,response1disk_3,TRUE,7,2,"[202,29,226,185,195,290,8,193,243,177,45,244,272,39,70,302,226,75,282,180]",1.068,rectangle
,,,,,,,,,,,,,FF,,,,,,,,0.383,,,,,,,,,,,,,,,,,,,,,,60ff244bc01a67f580d9b5ba,61036f0966dec8e5896fc4f8,2021-07-29_22h22.49.719,Simcolourproject_2stim_asymm_v5,2020.2.10,MacIntel,60,61025ae37ef11b136ea224fe,,,,,,,,,1732,27,60,1,0,0,response1disk,,7,7,7,1,0,0,rectangle,7,7,1,0,0,7,7,1,0,0,1,66,226,94,1,,,,,,,,
,,,,,,,,,,,,,FF,,,,,,,,0.316,,,,,,,,,,,,,,,,,,,,,,60ff244bc01a67f580d9b5ba,61036f0966dec8e5896fc4f8,2021-07-29_22h22.49.719,Simcolourproject_2stim_asymm_v5,2020.2.10,MacIntel,60,61025ae37ef11b136ea224fe,,,,,,,,,124,29,46,1,0,0,response1disk,,7,18,6,1,0,0,rectangle,18,6,1,0,0,18,6,1,0,0,1,67,227,54,1,,,,,,,,
,,,,,,,,,,,,,FF,,,,,,,,0.316,,,,,,,,,,,,,,,,,,,,,,60ff244bc01a67f580d9b5ba,61036f0966dec8e5896fc4f8,2021-07-29_22h22.49.719,Simcolourproject_2stim_asymm_v5,2020.2.10,MacIntel,60,61025ae37ef11b136ea224fe,,,,,,,,,2819,34,64,1,0,0,response1disk,,7,19,13,1,0,0,rectangle,19,13,1,0,0,19,13,1,0,0,1,68,228,58,1,,,,,,,,
,,,,,,,,,,,,,FF,,,,,,,,1.634,,,,,,,,,,,,,,,,,,,,,,60ff244bc01a67f580d9b5ba,61036f0966dec8e5896fc4f8,2021-07-29_22h22.49.719,Simcolourproject_2stim_asymm_v5,2020.2.10,MacIntel,60,61025ae37ef11b136ea224fe,,,,,,,,,1896,-23,-63,1,0,0,response5disk,,3,-3,-6,1,0,0,rectangle,-3,-6,1,0,0,-3,-6,1,0,0,1,69,229,76,1,,,,,,,,
,,,,,,,,,,,,,FF,,,,,,,,0.484,,,,,,,,,,,,,,,,,,,,,,60ff244bc01a67f580d9b5ba,61036f0966dec8e5896fc4f8,2021-07-29_22h22.49.719,Simcolourproject_2stim_asymm_v5,2020.2.10,MacIntel,60,61025ae37ef11b136ea224fe,,,,,,,,,1943,24,46,1,0,0,response1disk,,7,10,-5,1,0,0,rectangle,10,-5,1,0,0,10,-5,1,0,0,1,70,230,124,1,,,,,,,,
,,,,,,,,,,,,,FF,,,,,,,,0.283,,,,,,,,,,,,,,,,,,,,,,60ff244bc01a67f580d9b5ba,61036f0966dec8e5896fc4f8,2021-07-29_22h22.49.719,Simcolourproject_2stim_asymm_v5,2020.2.10,MacIntel,60,61025ae37ef11b136ea224fe,,,,,,,,,3991,33,45,1,0,0,response1disk,,7,18,5,1,0,0,rectangle,18,5,1,0,0,18,5,1,0,0,1,71,231,92,1,,,,,,,,
,,,,,,,,,,,,,FF,,,,,,,,0.368,,,,,,,,,,,,,,,,,,,,,,60ff244bc01a67f580d9b5ba,61036f0966dec8e5896fc4f8,2021-07-29_22h22.49.719,Simcolourproject_2stim_asymm_v5,2020.2.10,MacIntel,60,61025ae37ef11b136ea224fe,,,,,,,,,1804,37,63,1,0,0,response1disk,,7,21,-3,1,0,0,rectangle,21,-3,1,0,0,21,-3,1,0,0,1,72,232,133,1,,,,,,,,
,,,,,,,,,,,,,FF,,,,,,,,0.367,,,,,,,,,,,,,,,,,,,,,,60ff244bc01a67f580d9b5ba,61036f0966dec8e5896fc4f8,2021-07-29_22h22.49.719,Simcolourproject_2stim_asymm_v5,2020.2.10,MacIntel,60,61025ae37ef11b136ea224fe,,,,,,,,,1088,29,68,1,0,0,response1disk,,7,14,15,1,0,0,rectangle,14,15,1,0,0,14,15,1,0,0,1,73,233,2,1,,,,,,,,
,,,,,,,,,,,,,FF,,,,,,,,1.018,,,,,,,,,,,,,,,,,,,,,,60ff244bc01a67f580d9b5ba,61036f0966dec8e5896fc4f8,2021-07-29_22h22.49.719,Simcolourproject_2stim_asymm_v5,2020.2.10,MacIntel,60,61025ae37ef11b136ea224fe,,,,,,,,,2825,25,61,1,0,0,response1disk,,7,11,3,1,0,0,rectangle,11,3,1,0,0,11,3,1,0,0,1,74,234,44,1,,,,,,,,
,,,,,,,,,,,,,FF,,,,,,,,1.569,,,,,,,,,,,,,,,,,,,,,,60ff244bc01a67f580d9b5ba,61036f0966dec8e5896fc4f8,2021-07-29_22h22.49.719,Simcolourproject_2stim_asymm_v5,2020.2.10,MacIntel,60,61025ae37ef11b136ea224fe,,,,,,,,,2995,51,-63,1,0,0,response3disk,,4,17,-16,1,0,0,rectangle,17,-16,1,0,0,17,-16,1,0,0,1,75,235,122,1,,,,,,,,
,,,,,,,,,,,,,FF,,,,,,,,0.634,,,,,,,,,,,,,,,,,,,,,,60ff244bc01a67f580d9b5ba,61036f0966dec8e5896fc4f8,2021-07-29_22h22.49.719,Simcolourproject_2stim_asymm_v5,2020.2.10,MacIntel,60,61025ae37ef11b136ea224fe,,,,,,,,,1941,34,53,1,0,0,response1disk,,7,13,1,1,0,0,rectangle,13,1,1,0,0,13,1,1,0,0,1,76,236,108,1,,,,,,,,
,,,,,,,,,,,,,FF,,,,,,,,0.433,,,,,,,,,,,,,,,,,,,,,,60ff244bc01a67f580d9b5ba,61036f0966dec8e5896fc4f8,2021-07-29_22h22.49.719,Simcolourproject_2stim_asymm_v5,2020.2.10,MacIntel,60,61025ae37ef11b136ea224fe,,,,,,,,,3346,27,62,1,0,0,response1disk,,7,8,2,1,0,0,rectangle,8,2,1,0,0,8,2,1,0,0,1,77,237,111,1,,,,,,,,
,,,,,,,,,,,,,FF,,,,,,,,0.332,,,,,,,,,,,,,,,,,,,,,,60ff244bc01a67f580d9b5ba,61036f0966dec8e5896fc4f8,2021-07-29_22h22.49.719,Simcolourproject_2stim_asymm_v5,2020.2.10,MacIntel,60,61025ae37ef11b136ea224fe,,,,,,,,,2436,31,60,1,0,0,response1disk,,7,16,1,1,0,0,rectangle,16,1,1,0,0,16,1,1,0,0,1,78,238,63,1,,,,,,,,
,,,,,,,,,,,,,FF,,,,,,,,0.5,,,,,,,,,,,,,,,,,,,,,,60ff244bc01a67f580d9b5ba,61036f0966dec8e5896fc4f8,2021-07-29_22h22.49.719,Simcolourproject_2stim_asymm_v5,2020.2.10,MacIntel,60,61025ae37ef11b136ea224fe,,,,,,,,,3487,28,46,1,0,0,response1disk,,7,15,-2,1,0,0,rectangle,15,-2,1,0,0,15,-2,1,0,0,1,79,239,52,1,,,,,,,,
,,,,,,,,,,,,,FF,,,,,,,,0.498,,,,,,,,,,,,,,,,,,,,,,60ff244bc01a67f580d9b5ba,61036f0966dec8e5896fc4f8,2021-07-29_22h22.49.719,Simcolourproject_2stim_asymm_v5,2020.2.10,MacIntel,60,61025ae37ef11b136ea224fe,,,,,,,,,1837,32,54,1,0,0,response1disk,,7,21,-11,1,0,0,rectangle,21,-11,1,0,0,21,-11,1,0,0,1,80,240,109,1,,,,,,,,
,,,,,,,,,,,,,FF,,,,,,,,0.549,,,,,,,,,,,,,,,,,,,,,,60ff244bc01a67f580d9b5ba,61036f0966dec8e5896fc4f8,2021-07-29_22h22.49.719,Simcolourproject_2stim_asymm_v5,2020.2.10,MacIntel,60,61025ae37ef11b136ea224fe,,,,,,,,,3136,29,40,1,0,0,response1disk,,7,12,-9,1,0,0,rectangle,12,-9,1,0,0,12,-9,1,0,0,1,81,241,85,1,,,,,,,,
,,,,,,,,,,,,,FF,,,,,,,,0.6,,,,,,,,,,,,,,,,,,,,,,60ff244bc01a67f580d9b5ba,61036f0966dec8e5896fc4f8,2021-07-29_22h22.49.719,Simcolourproject_2stim_asymm_v5,2020.2.10,MacIntel,60,61025ae37ef11b136ea224fe,,,,,,,,,225,24,37,1,0,0,response1disk,,7,10,-11,1,0,0,rectangle,-94,-32,1,0,0,-11,4,1,0,0,1,82,242,39,1,,response5disk_3,TRUE,2,2,"[202,29,226,185,195,290,8,193,243,177,45,244,272,39,70,302,226,75,282,180]",1.584,rectangle
,,,,,,,,,,,,,FF,,,,,,,,0.933,,,,,,,,,,,,,,,,,,,,,,60ff244bc01a67f580d9b5ba,61036f0966dec8e5896fc4f8,2021-07-29_22h22.49.719,Simcolourproject_2stim_asymm_v5,2020.2.10,MacIntel,60,61025ae37ef11b136ea224fe,,,,,,,,,1902,30,71,1,0,0,response1disk,,7,3,-8,1,0,0,rectangle,-31,-82,1,0,0,-9,-3,1,0,0,1,83,243,47,1,,response5disk_3,TRUE,3,3,"[202,29,226,185,195,290,8,193,243,177,45,244,272,39,70,302,226,75,282,180]",2.117,rectangle
,,,,,,,,,,,,,FF,,,,,,,,0.551,,,,,,,,,,,,,,,,,,,,,,60ff244bc01a67f580d9b5ba,61036f0966dec8e5896fc4f8,2021-07-29_22h22.49.719,Simcolourproject_2stim_asymm_v5,2020.2.10,MacIntel,60,61025ae37ef11b136ea224fe,,,,,,,,,1415,22,59,1,0,0,response1disk,,7,1,-14,1,0,0,rectangle,1,-14,1,0,0,1,-14,1,0,0,1,84,244,107,1,,,,,,,,
,,,,,,,,,,,,,FF,,,,,,,,0.416,,,,,,,,,,,,,,,,,,,,,,60ff244bc01a67f580d9b5ba,61036f0966dec8e5896fc4f8,2021-07-29_22h22.49.719,Simcolourproject_2stim_asymm_v5,2020.2.10,MacIntel,60,61025ae37ef11b136ea224fe,,,,,,,,,2411,28,62,1,0,0,response1disk,,7,5,-6,1,0,0,rectangle,5,-6,1,0,0,5,-6,1,0,0,1,85,245,53,1,,,,,,,,
,,,,,,,,,,,,,FF,,,,,,,,0.368,,,,,,,,,,,,,,,,,,,,,,60ff244bc01a67f580d9b5ba,61036f0966dec8e5896fc4f8,2021-07-29_22h22.49.719,Simcolourproject_2stim_asymm_v5,2020.2.10,MacIntel,60,61025ae37ef11b136ea224fe,,,,,,,,,1727,40,87,1,0,0,response1disk,,7,19,14,1,0,0,rectangle,19,14,1,0,0,19,14,1,0,0,1,86,246,100,1,,,,,,,,
,,,,,,,,,,,,,FF,,,,,,,,1.685,,,,,,,,,,,,,,,,,,,,,,60ff244bc01a67f580d9b5ba,61036f0966dec8e5896fc4f8,2021-07-29_22h22.49.719,Simcolourproject_2stim_asymm_v5,2020.2.10,MacIntel,60,61025ae37ef11b136ea224fe,,,,,,,,,4346,44,-78,1,0,0,response3disk,,4,12,-15,1,0,0,rectangle,12,-15,1,0,0,12,-15,1,0,0,1,87,247,25,1,,,,,,,,
,,,,,,,,,,,,,FF,,,,,,,,1.252,,,,,,,,,,,,,,,,,,,,,,60ff244bc01a67f580d9b5ba,61036f0966dec8e5896fc4f8,2021-07-29_22h22.49.719,Simcolourproject_2stim_asymm_v5,2020.2.10,MacIntel,60,61025ae37ef11b136ea224fe,,,,,,,,,470,42,58,1,0,0,response1disk,,7,10,0,1,0,0,rectangle,10,0,1,0,0,10,0,1,0,0,1,88,248,12,1,,,,,,,,
,,,,,,,,,,,,,FF,,,,,,,,0.733,,,,,,,,,,,,,,,,,,,,,,60ff244bc01a67f580d9b5ba,61036f0966dec8e5896fc4f8,2021-07-29_22h22.49.719,Simcolourproject_2stim_asymm_v5,2020.2.10,MacIntel,60,61025ae37ef11b136ea224fe,,,,,,,,,2666,57,-81,1,0,0,response3disk,,4,12,-3,1,0,0,rectangle,12,-3,1,0,0,12,-3,1,0,0,1,89,249,45,1,,,,,,,,
,,,,,,,,,,,,,FF,,,,,,,,0.9,,,,,,,,,,,,,,,,,,,,,,60ff244bc01a67f580d9b5ba,61036f0966dec8e5896fc4f8,2021-07-29_22h22.49.719,Simcolourproject_2stim_asymm_v5,2020.2.10,MacIntel,60,61025ae37ef11b136ea224fe,,,,,,,,,1953,17,39,1,0,0,response1disk,,7,11,2,1,0,0,rectangle,11,2,1,0,0,11,2,1,0,0,1,90,250,104,1,,,,,,,,
,,,,,,,,,,,,,FF,,,,,,,,0.434,,,,,,,,,,,,,,,,,,,,,,60ff244bc01a67f580d9b5ba,61036f0966dec8e5896fc4f8,2021-07-29_22h22.49.719,Simcolourproject_2stim_asymm_v5,2020.2.10,MacIntel,60,61025ae37ef11b136ea224fe,,,,,,,,,1985,47,97,1,0,0,response1disk,,7,1,8,1,0,0,rectangle,1,8,1,0,0,1,8,1,0,0,1,91,251,77,1,,,,,,,,
,,,,,,,,,,,,,FF,,,,,,,,0.584,,,,,,,,,,,,,,,,,,,,,,60ff244bc01a67f580d9b5ba,61036f0966dec8e5896fc4f8,2021-07-29_22h22.49.719,Simcolourproject_2stim_asymm_v5,2020.2.10,MacIntel,60,61025ae37ef11b136ea224fe,,,,,,,,,858,46,84,1,0,0,response1disk,,7,4,3,1,0,0,rectangle,4,3,1,0,0,4,3,1,0,0,1,92,252,33,1,,,,,,,,
,,,,,,,,,,,,,FF,,,,,,,,0.967,,,,,,,,,,,,,,,,,,,,,,60ff244bc01a67f580d9b5ba,61036f0966dec8e5896fc4f8,2021-07-29_22h22.49.719,Simcolourproject_2stim_asymm_v5,2020.2.10,MacIntel,60,61025ae37ef11b136ea224fe,,,,,,,,,2086,21,39,1,0,0,response1disk,,7,-4,-4,1,0,0,rectangle,-4,-4,1,0,0,-4,-4,1,0,0,1,93,253,17,1,,,,,,,,
,,,,,,,,,,,,,FF,,,,,,,,0.367,,,,,,,,,,,,,,,,,,,,,,60ff244bc01a67f580d9b5ba,61036f0966dec8e5896fc4f8,2021-07-29_22h22.49.719,Simcolourproject_2stim_asymm_v5,2020.2.10,MacIntel,60,61025ae37ef11b136ea224fe,,,,,,,,,422,20,47,1,0,0,response1disk,,7,4,-11,1,0,0,rectangle,4,-11,1,0,0,4,-11,1,0,0,1,94,254,127,1,,,,,,,,
,,,,,,,,,,,,,FF,,,,,,,,0.55,,,,,,,,,,,,,,,,,,,,,,60ff244bc01a67f580d9b5ba,61036f0966dec8e5896fc4f8,2021-07-29_22h22.49.719,Simcolourproject_2stim_asymm_v5,2020.2.10,MacIntel,60,61025ae37ef11b136ea224fe,,,,,,,,,4349,22,37,1,0,0,response1disk,,7,4,5,1,0,0,rectangle,4,5,1,0,0,4,5,1,0,0,1,95,255,66,1,,,,,,,,
,,,,,,,,,,,,,FF,,,,,,,,0.716,,,,,,,,,,,,,,,,,,,,,,60ff244bc01a67f580d9b5ba,61036f0966dec8e5896fc4f8,2021-07-29_22h22.49.719,Simcolourproject_2stim_asymm_v5,2020.2.10,MacIntel,60,61025ae37ef11b136ea224fe,,,,,,,,,2179,24,50,1,0,0,response1disk,,7,9,-6,1,0,0,rectangle,9,-6,1,0,0,9,-6,1,0,0,1,96,256,153,1,,,,,,,,
,,,,,,,,,,,,,FF,,,,,,,,1.351,,,,,,,,,,,,,,,,,,,,,,60ff244bc01a67f580d9b5ba,61036f0966dec8e5896fc4f8,2021-07-29_22h22.49.719,Simcolourproject_2stim_asymm_v5,2020.2.10,MacIntel,60,61025ae37ef11b136ea224fe,,,,,,,,,3139,72,-36,1,0,0,response3disk,,5,3,4,1,0,0,rectangle,3,4,1,0,0,3,4,1,0,0,1,97,257,18,1,,,,,,,,
,,,,,,,,,,,,,FF,,,,,,,,0.55,,,,,,,,,,,,,,,,,,,,,,60ff244bc01a67f580d9b5ba,61036f0966dec8e5896fc4f8,2021-07-29_22h22.49.719,Simcolourproject_2stim_asymm_v5,2020.2.10,MacIntel,60,61025ae37ef11b136ea224fe,,,,,,,,,1780,21,46,1,0,0,response1disk,,7,-5,0,1,0,0,rectangle,-5,0,1,0,0,-5,0,1,0,0,1,98,258,42,1,,,,,,,,
,,,,,,,,,,,,,FF,,,,,,,,0.618,,,,,,,,,,,,,,,,,,,,,,60ff244bc01a67f580d9b5ba,61036f0966dec8e5896fc4f8,2021-07-29_22h22.49.719,Simcolourproject_2stim_asymm_v5,2020.2.10,MacIntel,60,61025ae37ef11b136ea224fe,,,,,,,,,3988,30,56,1,0,0,response1disk,,7,6,6,1,0,0,rectangle,6,6,1,0,0,6,6,1,0,0,1,99,259,13,1,,,,,,,,
,,,,,,,,,,,,,FF,,,,,,,,1.602,,,,,,,,,,,,,,,,,,,,,,60ff244bc01a67f580d9b5ba,61036f0966dec8e5896fc4f8,2021-07-29_22h22.49.719,Simcolourproject_2stim_asymm_v5,2020.2.10,MacIntel,60,61025ae37ef11b136ea224fe,,,,,,,,,3292,95,52,1,0,0,response1disk,,6,-13,2,1,0,0,rectangle,-13,2,1,0,0,-13,2,1,0,0,1,100,260,87,1,,,,,,,,
,,,,,,,,,,,,,FF,,,,,,,,2.035,,,,,,,,,,,,,,,,,,,,,,60ff244bc01a67f580d9b5ba,61036f0966dec8e5896fc4f8,2021-07-29_22h22.49.719,Simcolourproject_2stim_asymm_v5,2020.2.10,MacIntel,60,61025ae37ef11b136ea224fe,,,,,,,,,1465,33,-74,1,0,0,response3disk,,4,7,-3,1,0,0,rectangle,7,-3,1,0,0,7,-3,1,0,0,1,101,261,7,1,,,,,,,,
,,,,,,,,,,,,,FF,,,,,,,,0.516,,,,,,,,,,,,,,,,,,,,,,60ff244bc01a67f580d9b5ba,61036f0966dec8e5896fc4f8,2021-07-29_22h22.49.719,Simcolourproject_2stim_asymm_v5,2020.2.10,MacIntel,60,61025ae37ef11b136ea224fe,,,,,,,,,2051,27,42,1,0,0,response1disk,,7,12,-14,1,0,0,rectangle,12,-14,1,0,0,12,-14,1,0,0,1,102,262,38,1,,,,,,,,
,,,,,,,,,,,,,FF,,,,,,,,0.834,,,,,,,,,,,,,,,,,,,,,,60ff244bc01a67f580d9b5ba,61036f0966dec8e5896fc4f8,2021-07-29_22h22.49.719,Simcolourproject_2stim_asymm_v5,2020.2.10,MacIntel,60,61025ae37ef11b136ea224fe,,,,,,,,,1534,60,-79,1,0,0,response3disk,,4,3,-5,1,0,0,rectangle,3,-5,1,0,0,3,-5,1,0,0,1,103,263,125,1,,,,,,,,
,,,,,,,,,,,,,FF,,,,,,,,1.784,,,,,,,,,,,,,,,,,,,,,,60ff244bc01a67f580d9b5ba,61036f0966dec8e5896fc4f8,2021-07-29_22h22.49.719,Simcolourproject_2stim_asymm_v5,2020.2.10,MacIntel,60,61025ae37ef11b136ea224fe,,,,,,,,,3143,22,45,1,0,0,response1disk,,7,-8,-8,1,0,0,rectangle,-8,-8,1,0,0,-8,-8,1,0,0,1,104,264,26,1,,,,,,,,
,,,,,,,,,,,,,FF,,,,,,,,1.65,,,,,,,,,,,,,,,,,,,,,,60ff244bc01a67f580d9b5ba,61036f0966dec8e5896fc4f8,2021-07-29_22h22.49.719,Simcolourproject_2stim_asymm_v5,2020.2.10,MacIntel,60,61025ae37ef11b136ea224fe,,,,,,,,,563,19,37,1,0,0,response1disk,,7,4,-13,1,0,0,rectangle,4,-13,1,0,0,4,-13,1,0,0,1,105,265,61,1,,,,,,,,
,,,,,,,,,,,,,FF,,,,,,,,2.033,,,,,,,,,,,,,,,,,,,,,,60ff244bc01a67f580d9b5ba,61036f0966dec8e5896fc4f8,2021-07-29_22h22.49.719,Simcolourproject_2stim_asymm_v5,2020.2.10,MacIntel,60,61025ae37ef11b136ea224fe,,,,,,,,,4122,89,24,1,0,0,response1disk,,6,-7,4,1,0,0,rectangle,-7,4,1,0,0,-7,4,1,0,0,1,106,266,50,1,,,,,,,,
,,,,,,,,,,,,,FF,,,,,,,,1.283,,,,,,,,,,,,,,,,,,,,,,60ff244bc01a67f580d9b5ba,61036f0966dec8e5896fc4f8,2021-07-29_22h22.49.719,Simcolourproject_2stim_asymm_v5,2020.2.10,MacIntel,60,61025ae37ef11b136ea224fe,,,,,,,,,2872,46,86,1,0,0,response1disk,,7,-1,-5,1,0,0,rectangle,-1,-5,1,0,0,-1,-5,1,0,0,1,107,267,106,1,,,,,,,,
,,,,,,,,,,,,,FF,,,,,,,,0.416,,,,,,,,,,,,,,,,,,,,,,60ff244bc01a67f580d9b5ba,61036f0966dec8e5896fc4f8,2021-07-29_22h22.49.719,Simcolourproject_2stim_asymm_v5,2020.2.10,MacIntel,60,61025ae37ef11b136ea224fe,,,,,,,,,2610,36,63,1,0,0,response1disk,,7,8,-12,1,0,0,rectangle,8,-12,1,0,0,8,-12,1,0,0,1,108,268,128,1,,,,,,,,
,,,,,,,,,,,,,FF,,,,,,,,81.571,,,,,,,,,,,,,,,,,,,,,,60ff244bc01a67f580d9b5ba,61036f0966dec8e5896fc4f8,2021-07-29_22h22.49.719,Simcolourproject_2stim_asymm_v5,2020.2.10,MacIntel,60,61025ae37ef11b136ea224fe,,,,,,,,,2252,33,45,1,0,0,response1disk,,7,-1,2,1,0,0,rectangle,-1,2,1,0,0,-1,2,1,0,0,1,109,269,134,1,,,,,,,,
,,,,,,,,,,,,,FF,,,,,,,,0.717,,,,,,,,,,,,,,,,,,,,,,60ff244bc01a67f580d9b5ba,61036f0966dec8e5896fc4f8,2021-07-29_22h22.49.719,Simcolourproject_2stim_asymm_v5,2020.2.10,MacIntel,60,61025ae37ef11b136ea224fe,,,,,,,,,87,31,104,1,0,0,response1disk,,7,4,7,1,0,0,rectangle,4,7,1,0,0,4,7,1,0,0,1,110,270,4,1,,,,,,,,
,,,,,,,,,,,,,FF,,,,,,,,0.616,,,,,,,,,,,,,,,,,,,,,,60ff244bc01a67f580d9b5ba,61036f0966dec8e5896fc4f8,2021-07-29_22h22.49.719,Simcolourproject_2stim_asymm_v5,2020.2.10,MacIntel,60,61025ae37ef11b136ea224fe,,,,,,,,,2149,51,76,1,0,0,response1disk,,7,7,-5,1,0,0,rectangle,-74,-46,1,0,0,3,9,1,0,0,1,111,271,71,1,,response5disk_3,TRUE,2,2,"[202,29,226,185,195,290,8,193,243,177,45,244,272,39,70,302,226,75,282,180]",2.034,rectangle
,,,,,,,,,,,,,FF,,,,,,,,0.418,,,,,,,,,,,,,,,,,,,,,,60ff244bc01a67f580d9b5ba,61036f0966dec8e5896fc4f8,2021-07-29_22h22.49.719,Simcolourproject_2stim_asymm_v5,2020.2.10,MacIntel,60,61025ae37ef11b136ea224fe,,,,,,,,,1426,32,65,1,0,0,response1disk,,7,12,7,1,0,0,rectangle,12,7,1,0,0,12,7,1,0,0,1,112,272,67,1,,,,,,,,
,,,,,,,,,,,,,FF,,,,,,,,0.551,,,,,,,,,,,,,,,,,,,,,,60ff244bc01a67f580d9b5ba,61036f0966dec8e5896fc4f8,2021-07-29_22h22.49.719,Simcolourproject_2stim_asymm_v5,2020.2.10,MacIntel,60,61025ae37ef11b136ea224fe,,,,,,,,,3666,39,63,1,0,0,response1disk,,7,18,10,1,0,0,rectangle,18,10,1,0,0,18,10,1,0,0,1,113,273,123,1,,,,,,,,
,,,,,,,,,,,,,FF,,,,,,,,0.4,,,,,,,,,,,,,,,,,,,,,,60ff244bc01a67f580d9b5ba,61036f0966dec8e5896fc4f8,2021-07-29_22h22.49.719,Simcolourproject_2stim_asymm_v5,2020.2.10,MacIntel,60,61025ae37ef11b136ea224fe,,,,,,,,,2200,45,71,1,0,0,response1disk,,7,12,9,1,0,0,rectangle,12,9,1,0,0,12,9,1,0,0,1,114,274,28,1,,,,,,,,
,,,,,,,,,,,,,FF,,,,,,,,0.35,,,,,,,,,,,,,,,,,,,,,,60ff244bc01a67f580d9b5ba,61036f0966dec8e5896fc4f8,2021-07-29_22h22.49.719,Simcolourproject_2stim_asymm_v5,2020.2.10,MacIntel,60,61025ae37ef11b136ea224fe,,,,,,,,,679,38,54,1,0,0,response1disk,,7,25,7,1,0,0,rectangle,25,7,1,0,0,25,7,1,0,0,1,115,275,143,1,,,,,,,,
,,,,,,,,,,,,,FF,,,,,,,,0.501,,,,,,,,,,,,,,,,,,,,,,60ff244bc01a67f580d9b5ba,61036f0966dec8e5896fc4f8,2021-07-29_22h22.49.719,Simcolourproject_2stim_asymm_v5,2020.2.10,MacIntel,60,61025ae37ef11b136ea224fe,,,,,,,,,1095,30,99,1,0,0,response1disk,,7,-3,-15,1,0,0,rectangle,-3,-15,1,0,0,-3,-15,1,0,0,1,116,276,103,1,,,,,,,,
,,,,,,,,,,,,,FF,,,,,,,,1.801,,,,,,,,,,,,,,,,,,,,,,60ff244bc01a67f580d9b5ba,61036f0966dec8e5896fc4f8,2021-07-29_22h22.49.719,Simcolourproject_2stim_asymm_v5,2020.2.10,MacIntel,60,61025ae37ef11b136ea224fe,,,,,,,,,2692,30,78,1,0,0,response1disk,,7,6,4,1,0,0,rectangle,6,4,1,0,0,6,4,1,0,0,1,117,277,105,1,,,,,,,,
,,,,,,,,,,,,,FF,,,,,,,,0.467,,,,,,,,,,,,,,,,,,,,,,60ff244bc01a67f580d9b5ba,61036f0966dec8e5896fc4f8,2021-07-29_22h22.49.719,Simcolourproject_2stim_asymm_v5,2020.2.10,MacIntel,60,61025ae37ef11b136ea224fe,,,,,,,,,3351,31,70,1,0,0,response1disk,,7,2,3,1,0,0,rectangle,2,3,1,0,0,2,3,1,0,0,1,118,278,147,1,,,,,,,,
,,,,,,,,,,,,,FF,,,,,,,,0.533,,,,,,,,,,,,,,,,,,,,,,60ff244bc01a67f580d9b5ba,61036f0966dec8e5896fc4f8,2021-07-29_22h22.49.719,Simcolourproject_2stim_asymm_v5,2020.2.10,MacIntel,60,61025ae37ef11b136ea224fe,,,,,,,,,3303,54,100,1,0,0,response1disk,,7,1,1,1,0,0,rectangle,1,1,1,0,0,1,1,1,0,0,1,119,279,141,1,,,,,,,,
,,,,,,,,,,,,,FF,,,,,,,,1.218,,,,,,,,,,,,,,,,,,,,,,60ff244bc01a67f580d9b5ba,61036f0966dec8e5896fc4f8,2021-07-29_22h22.49.719,Simcolourproject_2stim_asymm_v5,2020.2.10,MacIntel,60,61025ae37ef11b136ea224fe,,,,,,,,,3995,28,-56,1,0,0,response3disk,,4,-9,-4,1,0,0,rectangle,-9,-4,1,0,0,-9,-4,1,0,0,1,120,280,129,1,,,,,,,,
,,,,,,,,,,,,,FF,,,,,,,,2.168,,,,,,,,,,,,,,,,,,,,,,60ff244bc01a67f580d9b5ba,61036f0966dec8e5896fc4f8,2021-07-29_22h22.49.719,Simcolourproject_2stim_asymm_v5,2020.2.10,MacIntel,60,61025ae37ef11b136ea224fe,,,,,,,,,4269,45,69,1,0,0,response1disk,,7,9,10,1,0,0,rectangle,30,59,1,0,0,25,-10,1,0,0,1,121,281,43,1,,response1disk_3,TRUE,7,7,"[202,29,226,185,195,290,8,193,243,177,45,244,272,39,70,302,226,75,282,180]",1.333,rectangle
,,,,,,,,,,,,,FF,,,,,,,,1.134,,,,,,,,,,,,,,,,,,,,,,60ff244bc01a67f580d9b5ba,61036f0966dec8e5896fc4f8,2021-07-29_22h22.49.719,Simcolourproject_2stim_asymm_v5,2020.2.10,MacIntel,60,61025ae37ef11b136ea224fe,,,,,,,,,3488,26,41,1,0,0,response1disk,,7,-5,-1,1,0,0,rectangle,-5,-1,1,0,0,-5,-1,1,0,0,1,122,282,101,1,,,,,,,,
,,,,,,,,,,,,,FF,,,,,,,,0.484,,,,,,,,,,,,,,,,,,,,,,60ff244bc01a67f580d9b5ba,61036f0966dec8e5896fc4f8,2021-07-29_22h22.49.719,Simcolourproject_2stim_asymm_v5,2020.2.10,MacIntel,60,61025ae37ef11b136ea224fe,,,,,,,,,275,20,43,1,0,0,response1disk,,7,2,-6,1,0,0,rectangle,2,-6,1,0,0,2,-6,1,0,0,1,123,283,65,1,,,,,,,,
,,,,,,,,,,,,,FF,,,,,,,,0.367,,,,,,,,,,,,,,,,,,,,,,60ff244bc01a67f580d9b5ba,61036f0966dec8e5896fc4f8,2021-07-29_22h22.49.719,Simcolourproject_2stim_asymm_v5,2020.2.10,MacIntel,60,61025ae37ef11b136ea224fe,,,,,,,,,2379,35,55,1,0,0,response1disk,,7,-4,-4,1,0,0,rectangle,-4,-4,1,0,0,-4,-4,1,0,0,1,124,284,59,1,,,,,,,,
,,,,,,,,,,,,,FF,,,,,,,,0.551,,,,,,,,,,,,,,,,,,,,,,60ff244bc01a67f580d9b5ba,61036f0966dec8e5896fc4f8,2021-07-29_22h22.49.719,Simcolourproject_2stim_asymm_v5,2020.2.10,MacIntel,60,61025ae37ef11b136ea224fe,,,,,,,,,4214,26,50,1,0,0,response1disk,,7,-5,1,1,0,0,rectangle,-5,1,1,0,0,-5,1,1,0,0,1,125,285,51,1,,,,,,,,
,,,,,,,,,,,,,FF,,,,,,,,0.466,,,,,,,,,,,,,,,,,,,,,,60ff244bc01a67f580d9b5ba,61036f0966dec8e5896fc4f8,2021-07-29_22h22.49.719,Simcolourproject_2stim_asymm_v5,2020.2.10,MacIntel,60,61025ae37ef11b136ea224fe,,,,,,,,,2456,42,77,1,0,0,response1disk,,7,5,10,1,0,0,rectangle,5,10,1,0,0,5,10,1,0,0,1,126,286,8,1,,,,,,,,
,,,,,,,,,,,,,FF,,,,,,,,0.399,,,,,,,,,,,,,,,,,,,,,,60ff244bc01a67f580d9b5ba,61036f0966dec8e5896fc4f8,2021-07-29_22h22.49.719,Simcolourproject_2stim_asymm_v5,2020.2.10,MacIntel,60,61025ae37ef11b136ea224fe,,,,,,,,,2221,38,64,1,0,0,response1disk,,7,-11,-8,1,0,0,rectangle,-11,-8,1,0,0,-11,-8,1,0,0,1,127,287,135,1,,,,,,,,
,,,,,,,,,,,,,FF,,,,,,,,0.4,,,,,,,,,,,,,,,,,,,,,,60ff244bc01a67f580d9b5ba,61036f0966dec8e5896fc4f8,2021-07-29_22h22.49.719,Simcolourproject_2stim_asymm_v5,2020.2.10,MacIntel,60,61025ae37ef11b136ea224fe,,,,,,,,,2914,24,49,1,0,0,response1disk,,7,3,-3,1,0,0,rectangle,3,-3,1,0,0,3,-3,1,0,0,1,128,288,32,1,,,,,,,,
,,,,,,,,,,,,,FF,,,,,,,,0.351,,,,,,,,,,,,,,,,,,,,,,60ff244bc01a67f580d9b5ba,61036f0966dec8e5896fc4f8,2021-07-29_22h22.49.719,Simcolourproject_2stim_asymm_v5,2020.2.10,MacIntel,60,61025ae37ef11b136ea224fe,,,,,,,,,1699,40,55,1,0,0,response1disk,,7,-3,-7,1,0,0,rectangle,35,-98,1,0,0,-8,-2,1,0,0,1,129,289,40,1,,response3disk_3,TRUE,4,4,"[202,29,226,185,195,290,8,193,243,177,45,244,272,39,70,302,226,75,282,180]",1.718,rectangle
,,,,,,,,,,,,,FF,,,,,,,,1.5,,,,,,,,,,,,,,,,,,,,,,60ff244bc01a67f580d9b5ba,61036f0966dec8e5896fc4f8,2021-07-29_22h22.49.719,Simcolourproject_2stim_asymm_v5,2020.2.10,MacIntel,60,61025ae37ef11b136ea224fe,,,,,,,,,1945,23,44,1,0,0,response1disk,,7,-11,-10,1,0,0,rectangle,-11,-10,1,0,0,-11,-10,1,0,0,1,130,290,27,1,,,,,,,,
,,,,,,,,,,,,,FF,,,,,,,,0.384,,,,,,,,,,,,,,,,,,,,,,60ff244bc01a67f580d9b5ba,61036f0966dec8e5896fc4f8,2021-07-29_22h22.49.719,Simcolourproject_2stim_asymm_v5,2020.2.10,MacIntel,60,61025ae37ef11b136ea224fe,,,,,,,,,2688,26,45,1,0,0,response1disk,,7,5,0,1,0,0,rectangle,5,0,1,0,0,5,0,1,0,0,1,131,291,142,1,,,,,,,,
,,,,,,,,,,,,,FF,,,,,,,,0.351,,,,,,,,,,,,,,,,,,,,,,60ff244bc01a67f580d9b5ba,61036f0966dec8e5896fc4f8,2021-07-29_22h22.49.719,Simcolourproject_2stim_asymm_v5,2020.2.10,MacIntel,60,61025ae37ef11b136ea224fe,,,,,,,,,1918,41,63,1,0,0,response1disk,,7,16,14,1,0,0,rectangle,16,14,1,0,0,16,14,1,0,0,1,132,292,68,1,,,,,,,,
,,,,,,,,,,,,,FF,,,,,,,,0.317,,,,,,,,,,,,,,,,,,,,,,60ff244bc01a67f580d9b5ba,61036f0966dec8e5896fc4f8,2021-07-29_22h22.49.719,Simcolourproject_2stim_asymm_v5,2020.2.10,MacIntel,60,61025ae37ef11b136ea224fe,,,,,,,,,273,34,57,1,0,0,response1disk,,7,12,7,1,0,0,rectangle,12,7,1,0,0,12,7,1,0,0,1,133,293,119,1,,,,,,,,
,,,,,,,,,,,,,FF,,,,,,,,0.333,,,,,,,,,,,,,,,,,,,,,,60ff244bc01a67f580d9b5ba,61036f0966dec8e5896fc4f8,2021-07-29_22h22.49.719,Simcolourproject_2stim_asymm_v5,2020.2.10,MacIntel,60,61025ae37ef11b136ea224fe,,,,,,,,,917,28,59,1,0,0,response1disk,,7,17,10,1,0,0,rectangle,17,10,1,0,0,17,10,1,0,0,1,134,294,117,1,,,,,,,,
,,,,,,,,,,,,,FF,,,,,,,,0.45,,,,,,,,,,,,,,,,,,,,,,60ff244bc01a67f580d9b5ba,61036f0966dec8e5896fc4f8,2021-07-29_22h22.49.719,Simcolourproject_2stim_asymm_v5,2020.2.10,MacIntel,60,61025ae37ef11b136ea224fe,,,,,,,,,3822,37,60,1,0,0,response1disk,,7,11,-7,1,0,0,rectangle,11,-7,1,0,0,11,-7,1,0,0,1,135,295,57,1,,,,,,,,
,,,,,,,,,,,,,FF,,,,,,,,0.75,,,,,,,,,,,,,,,,,,,,,,60ff244bc01a67f580d9b5ba,61036f0966dec8e5896fc4f8,2021-07-29_22h22.49.719,Simcolourproject_2stim_asymm_v5,2020.2.10,MacIntel,60,61025ae37ef11b136ea224fe,,,,,,,,,2092,27,59,1,0,0,response1disk,,7,20,15,1,0,0,rectangle,20,15,1,0,0,20,15,1,0,0,1,136,296,46,1,,,,,,,,
,,,,,,,,,,,,,FF,,,,,,,,0.332,,,,,,,,,,,,,,,,,,,,,,60ff244bc01a67f580d9b5ba,61036f0966dec8e5896fc4f8,2021-07-29_22h22.49.719,Simcolourproject_2stim_asymm_v5,2020.2.10,MacIntel,60,61025ae37ef11b136ea224fe,,,,,,,,,3441,45,75,1,0,0,response1disk,,7,23,13,1,0,0,rectangle,23,13,1,0,0,23,13,1,0,0,1,137,297,16,1,,,,,,,,
,,,,,,,,,,,,,FF,,,,,,,,0.3,,,,,,,,,,,,,,,,,,,,,,60ff244bc01a67f580d9b5ba,61036f0966dec8e5896fc4f8,2021-07-29_22h22.49.719,Simcolourproject_2stim_asymm_v5,2020.2.10,MacIntel,60,61025ae37ef11b136ea224fe,,,,,,,,,2383,27,59,1,0,0,response1disk,,7,18,-4,1,0,0,rectangle,18,-4,1,0,0,18,-4,1,0,0,1,138,298,9,1,,,,,,,,
,,,,,,,,,,,,,FF,,,,,,,,1.635,,,,,,,,,,,,,,,,,,,,,,60ff244bc01a67f580d9b5ba,61036f0966dec8e5896fc4f8,2021-07-29_22h22.49.719,Simcolourproject_2stim_asymm_v5,2020.2.10,MacIntel,60,61025ae37ef11b136ea224fe,,,,,,,,,396,28,58,1,0,0,response1disk,,7,9,-2,1,0,0,rectangle,9,-2,1,0,0,9,-2,1,0,0,1,139,299,159,1,,,,,,,,
,,,,,,,,,,,,,FF,,,,,,,,0.7,,,,,,,,,,,,,,,,,,,,,,60ff244bc01a67f580d9b5ba,61036f0966dec8e5896fc4f8,2021-07-29_22h22.49.719,Simcolourproject_2stim_asymm_v5,2020.2.10,MacIntel,60,61025ae37ef11b136ea224fe,,,,,,,,,1444,26,50,1,0,0,response1disk,,7,7,-2,1,0,0,rectangle,7,-2,1,0,0,7,-2,1,0,0,1,140,300,152,1,,,,,,,,
