key_resp.keys,key_resp.rt,key_resp_14.keys,key_resp_14.rt,key_resp_15.keys,key_resp_15.rt,key_resp_17.keys,key_resp_17.rt,key_resp_9.keys,key_resp_9.rt,key_resp_10.keys,key_resp_10.rt,practice_comparison,Ecc,mouse_5.x,mouse_5.y,mouse_5.leftButton,mouse_5.midButton,mouse_5.rightButton,mouse_5.clicked_name,pracsimilarity,response_time,mouse_10.x,mouse_10.y,mouse_10.leftButton,mouse_10.midButton,mouse_10.rightButton,mouse_10.clicked_name,mouse_7.x,mouse_7.y,mouse_7.leftButton,mouse_7.midButton,mouse_7.rightButton,mouse_6.x,mouse_6.y,mouse_6.leftButton,mouse_6.midButton,mouse_6.rightButton,duringprac.thisRepN,duringprac.thisTrialN,duringprac.thisN,duringprac.thisIndex,duringprac.ran,participant,session,date,expName,psychopyVersion,OS,frameRate,study_id,mouse_7.clicked_name,catchpracsimilarity,catch_response_time,catchnumberprac,catchtrialorderprac,mouse_6.clicked_name,key_resp_22.keys,key_resp_22.rt,realcomparison,mouse.x,mouse.y,mouse.leftButton,mouse.midButton,mouse.rightButton,mouse.clicked_name,Colour2,similarity,mouse_2.x,mouse_2.y,mouse_2.leftButton,mouse_2.midButton,mouse_2.rightButton,mouse_2.clicked_name,mouse_3.x,mouse_3.y,mouse_3.leftButton,mouse_3.midButton,mouse_3.rightButton,mouse_11.x,mouse_11.y,mouse_11.leftButton,mouse_11.midButton,mouse_11.rightButton,trials_2.thisRepN,trials_2.thisTrialN,trials_2.thisN,trials_2.thisIndex,trials_2.ran,Colour1,mouse_3.clicked_name,catchornah,catchsimilarity,catchnumber,catchtrialorder,catchRT,mouse_11.clicked_name
space,0.1746,space,5.0924,space,26.1343,space,5.4843,space,1.069,space,4.8991,160,PF,77.0703125,-55.1484375,1,0,0,response3disk_5,5,9.3816,-8.3984375,-7.421875,1,0,0,rectangle_8,-8.3984375,-7.421875,1,0,0,-8.3984375,-7.421875,1,0,0,0,0,0,2,1,60ff2d35b20f6855da62ae75,610378f51d0d557a19d1c3f1,2021-07-29_23h01.06.046,Simcolourproject_2stim_asymm_v5,2020.2.10,MacIntel,60,61025ae37ef11b136ea224fe,,,,,,,,,,,,,,,,,,,,,,,,,,,,,,,,,,,,,,,,,,,,,,
,,,,,,,,,,,,61,PF,58.75390625,71.52734375,1,0,0,response1disk_5,7,6.7032,-17.62890625,-11.93359375,1,0,0,rectangle_8,85.75,36.9140625,1,0,0,-8.1796875,4.62109375,1,0,0,0,1,1,6,1,60ff2d35b20f6855da62ae75,610378f51d0d557a19d1c3f1,2021-07-29_23h01.06.046,Simcolourproject_2stim_asymm_v5,2020.2.10,MacIntel,60,61025ae37ef11b136ea224fe,response1disk_7,6,2.5918,6,"[2,5]",rectangle_4,,,,,,,,,,,,,,,,,,,,,,,,,,,,,,,,,,,,,,,,
,,,,,,,,,,,,160,FF,-84.51171875,-45.59765625,1,0,0,response5disk_5,2,2.2572,8.625,-12.23046875,1,0,0,rectangle_8,8.625,-12.23046875,1,0,0,8.625,-12.23046875,1,0,0,0,2,2,0,1,60ff2d35b20f6855da62ae75,610378f51d0d557a19d1c3f1,2021-07-29_23h01.06.046,Simcolourproject_2stim_asymm_v5,2020.2.10,MacIntel,60,61025ae37ef11b136ea224fe,,,,,,,,,,,,,,,,,,,,,,,,,,,,,,,,,,,,,,,,,,,,,,
,,,,,,,,,,,,54,FF,20.515625,-112.234375,1,0,0,response3disk_5,4,2.4251,-15.71875,-7.7734375,1,0,0,rectangle_8,-15.71875,-7.7734375,1,0,0,-15.71875,-7.7734375,1,0,0,0,3,3,3,1,60ff2d35b20f6855da62ae75,610378f51d0d557a19d1c3f1,2021-07-29_23h01.06.046,Simcolourproject_2stim_asymm_v5,2020.2.10,MacIntel,60,61025ae37ef11b136ea224fe,,,,,,,,,,,,,,,,,,,,,,,,,,,,,,,,,,,,,,,,,,,,,,
,,,,,,,,,,,,158,PF,-71.5859375,-92.6875,1,0,0,response5disk_5,3,10.3506,-8.734375,-7.29296875,1,0,0,rectangle_8,72.671875,45.5,1,0,0,-5.875,-13.78515625,1,0,0,0,4,4,1,1,60ff2d35b20f6855da62ae75,610378f51d0d557a19d1c3f1,2021-07-29_23h01.06.046,Simcolourproject_2stim_asymm_v5,2020.2.10,MacIntel,60,61025ae37ef11b136ea224fe,response1disk_7,6,2.6909,6,"[2,5]",rectangle_4,,,,,,,,,,,,,,,,,,,,,,,,,,,,,,,,,,,,,,,,
,,,,,,,,,,,,13,PF,59.10546875,-115.4101563,1,0,0,response3disk_5,4,12.525,-0.5390625,-11.9296875,1,0,0,rectangle_8,-0.5390625,-11.9296875,1,0,0,-0.5390625,-11.9296875,1,0,0,0,5,5,4,1,60ff2d35b20f6855da62ae75,610378f51d0d557a19d1c3f1,2021-07-29_23h01.06.046,Simcolourproject_2stim_asymm_v5,2020.2.10,MacIntel,60,61025ae37ef11b136ea224fe,,,,,,,,,,,,,,,,,,,,,,,,,,,,,,,,,,,,,,,,,,,,,,
,,,,,,,,,,,,144,FF,63.71484375,-51.62109375,1,0,0,response3disk_5,5,12.8927,10.6015625,-13.78515625,1,0,0,rectangle_8,10.6015625,-13.78515625,1,0,0,10.6015625,-13.78515625,1,0,0,0,6,6,5,1,60ff2d35b20f6855da62ae75,610378f51d0d557a19d1c3f1,2021-07-29_23h01.06.046,Simcolourproject_2stim_asymm_v5,2020.2.10,MacIntel,60,61025ae37ef11b136ea224fe,,,,,,,,,,,,,,,,,,,,,,,,,,,,,,,,,,,,,,,,,,,,,,
,,,,,,,,,,,,,FF,,,,,,,,2.895,,,,,,,,,,,,,,,,,,,,,,60ff2d35b20f6855da62ae75,610378f51d0d557a19d1c3f1,2021-07-29_23h01.06.046,Simcolourproject_2stim_asymm_v5,2020.2.10,MacIntel,60,61025ae37ef11b136ea224fe,,,,,,,space,4.0384,2605,-93.41796875,-49.7109375,1,0,0,response5disk,,2,-1.078125,-2.99609375,1,0,0,rectangle,-1.078125,-2.99609375,1,0,0,-1.078125,-2.99609375,1,0,0,0,0,0,130,1,,,,,,,,
,,,,,,,,,,,,,FF,,,,,,,,2.0569,,,,,,,,,,,,,,,,,,,,,,60ff2d35b20f6855da62ae75,610378f51d0d557a19d1c3f1,2021-07-29_23h01.06.046,Simcolourproject_2stim_asymm_v5,2020.2.10,MacIntel,60,61025ae37ef11b136ea224fe,,,,,,,,,3926,-26.9609375,-97.3515625,1,0,0,response5disk,,3,8.96484375,1.75390625,1,0,0,rectangle,8.96484375,1.75390625,1,0,0,8.96484375,1.75390625,1,0,0,0,1,1,94,1,,,,,,,,
,,,,,,,,,,,,,FF,,,,,,,,2.8923,,,,,,,,,,,,,,,,,,,,,,60ff2d35b20f6855da62ae75,610378f51d0d557a19d1c3f1,2021-07-29_23h01.06.046,Simcolourproject_2stim_asymm_v5,2020.2.10,MacIntel,60,61025ae37ef11b136ea224fe,,,,,,,,,1226,93.90625,-72.94140625,1,0,0,response3disk,,5,12.9609375,-9.47265625,1,0,0,rectangle,12.9609375,-9.47265625,1,0,0,12.9609375,-9.47265625,1,0,0,0,2,2,57,1,,,,,,,,
,,,,,,,,,,,,,FF,,,,,,,,1.7717,,,,,,,,,,,,,,,,,,,,,,60ff2d35b20f6855da62ae75,610378f51d0d557a19d1c3f1,2021-07-29_23h01.06.046,Simcolourproject_2stim_asymm_v5,2020.2.10,MacIntel,60,61025ae37ef11b136ea224fe,,,,,,,,,4317,90.19921875,33.6796875,1,0,0,response1disk,,6,3.1015625,8.67578125,1,0,0,rectangle,3.1015625,8.67578125,1,0,0,3.1015625,8.67578125,1,0,0,0,3,3,145,1,,,,,,,,
,,,,,,,,,,,,,FF,,,,,,,,3.3268,,,,,,,,,,,,,,,,,,,,,,60ff2d35b20f6855da62ae75,610378f51d0d557a19d1c3f1,2021-07-29_23h01.06.046,Simcolourproject_2stim_asymm_v5,2020.2.10,MacIntel,60,61025ae37ef11b136ea224fe,,,,,,,,,4154,94.30859375,-35.11328125,1,0,0,response3disk,,5,12.078125,8.578125,1,0,0,rectangle,12.078125,8.578125,1,0,0,12.078125,8.578125,1,0,0,0,4,4,128,1,,,,,,,,
,,,,,,,,,,,,,FF,,,,,,,,1.471,,,,,,,,,,,,,,,,,,,,,,60ff2d35b20f6855da62ae75,610378f51d0d557a19d1c3f1,2021-07-29_23h01.06.046,Simcolourproject_2stim_asymm_v5,2020.2.10,MacIntel,60,61025ae37ef11b136ea224fe,,,,,,,,,2196,101.8203125,27.83203125,1,0,0,response1disk,,6,-9.9765625,2.26171875,1,0,0,rectangle,-9.9765625,2.26171875,1,0,0,-9.9765625,2.26171875,1,0,0,0,5,5,99,1,,,,,,,,
,,,,,,,,,,,,,FF,,,,,,,,1.5202,,,,,,,,,,,,,,,,,,,,,,60ff2d35b20f6855da62ae75,610378f51d0d557a19d1c3f1,2021-07-29_23h01.06.046,Simcolourproject_2stim_asymm_v5,2020.2.10,MacIntel,60,61025ae37ef11b136ea224fe,,,,,,,,,2377,-43.28515625,-75.796875,1,0,0,response5disk,,3,-6.79296875,-5.86328125,1,0,0,rectangle,-6.79296875,-5.86328125,1,0,0,-6.79296875,-5.86328125,1,0,0,0,6,6,41,1,,,,,,,,
,,,,,,,,,,,,,FF,,,,,,,,1.4042,,,,,,,,,,,,,,,,,,,,,,60ff2d35b20f6855da62ae75,610378f51d0d557a19d1c3f1,2021-07-29_23h01.06.046,Simcolourproject_2stim_asymm_v5,2020.2.10,MacIntel,60,61025ae37ef11b136ea224fe,,,,,,,,,215,106.6054688,-71.421875,1,0,0,response3disk,,5,-8.0625,1.109375,1,0,0,rectangle,-8.0625,1.109375,1,0,0,-8.0625,1.109375,1,0,0,0,7,7,126,1,,,,,,,,
,,,,,,,,,,,,,FF,,,,,,,,1.4042,,,,,,,,,,,,,,,,,,,,,,60ff2d35b20f6855da62ae75,610378f51d0d557a19d1c3f1,2021-07-29_23h01.06.046,Simcolourproject_2stim_asymm_v5,2020.2.10,MacIntel,60,61025ae37ef11b136ea224fe,,,,,,,,,1813,-104.9609375,-36.171875,1,0,0,response5disk,,2,2.42578125,-4.9375,1,0,0,rectangle,2.42578125,-4.9375,1,0,0,2.42578125,-4.9375,1,0,0,0,8,8,52,1,,,,,,,,
,,,,,,,,,,,,,FF,,,,,,,,1.4206,,,,,,,,,,,,,,,,,,,,,,60ff2d35b20f6855da62ae75,610378f51d0d557a19d1c3f1,2021-07-29_23h01.06.046,Simcolourproject_2stim_asymm_v5,2020.2.10,MacIntel,60,61025ae37ef11b136ea224fe,,,,,,,,,1739,71.29296875,-85.52734375,1,0,0,response3disk,,4,8.796875,-3.16015625,1,0,0,rectangle,8.796875,-3.16015625,1,0,0,8.796875,-3.16015625,1,0,0,0,9,9,73,1,,,,,,,,
,,,,,,,,,,,,,FF,,,,,,,,1.5217,,,,,,,,,,,,,,,,,,,,,,60ff2d35b20f6855da62ae75,610378f51d0d557a19d1c3f1,2021-07-29_23h01.06.046,Simcolourproject_2stim_asymm_v5,2020.2.10,MacIntel,60,61025ae37ef11b136ea224fe,,,,,,,,,4241,-93.23828125,-56.8046875,1,0,0,response5disk,,2,-1.6328125,-11.43359375,1,0,0,rectangle,-1.6328125,-11.43359375,1,0,0,-1.6328125,-11.43359375,1,0,0,0,10,10,51,1,,,,,,,,
,,,,,,,,,,,,,FF,,,,,,,,4.4986,,,,,,,,,,,,,,,,,,,,,,60ff2d35b20f6855da62ae75,610378f51d0d557a19d1c3f1,2021-07-29_23h01.06.046,Simcolourproject_2stim_asymm_v5,2020.2.10,MacIntel,60,61025ae37ef11b136ea224fe,,,,,,,,,1563,61.9921875,98.453125,1,0,0,response1disk,,7,1.25,-0.14453125,1,0,0,rectangle,1.25,-0.14453125,1,0,0,1.25,-0.14453125,1,0,0,0,11,11,6,1,,,,,,,,
,,,,,,,,,,,,,FF,,,,,,,,2.5085,,,,,,,,,,,,,,,,,,,,,,60ff2d35b20f6855da62ae75,610378f51d0d557a19d1c3f1,2021-07-29_23h01.06.046,Simcolourproject_2stim_asymm_v5,2020.2.10,MacIntel,60,61025ae37ef11b136ea224fe,,,,,,,,,234,106.7929688,25.01171875,1,0,0,response1disk,,6,21.078125,2.56640625,1,0,0,rectangle,21.078125,2.56640625,1,0,0,21.078125,2.56640625,1,0,0,0,12,12,54,1,,,,,,,,
,,,,,,,,,,,,,FF,,,,,,,,5.2844,,,,,,,,,,,,,,,,,,,,,,60ff2d35b20f6855da62ae75,610378f51d0d557a19d1c3f1,2021-07-29_23h01.06.046,Simcolourproject_2stim_asymm_v5,2020.2.10,MacIntel,60,61025ae37ef11b136ea224fe,,,,,,,,,3646,-36.37109375,-98.78125,1,0,0,response5disk,,3,-17.890625,-8.390625,1,0,0,rectangle,-17.890625,-8.390625,1,0,0,-17.890625,-8.390625,1,0,0,0,13,13,45,1,,,,,,,,
,,,,,,,,,,,,,FF,,,,,,,,1.6541,,,,,,,,,,,,,,,,,,,,,,60ff2d35b20f6855da62ae75,610378f51d0d557a19d1c3f1,2021-07-29_23h01.06.046,Simcolourproject_2stim_asymm_v5,2020.2.10,MacIntel,60,61025ae37ef11b136ea224fe,,,,,,,,,1232,-22.7421875,-109.1523438,1,0,0,response5disk,,3,-5.4921875,-0.609375,1,0,0,rectangle,-5.4921875,-0.609375,1,0,0,-5.4921875,-0.609375,1,0,0,0,14,14,113,1,,,,,,,,
,,,,,,,,,,,,,FF,,,,,,,,2.1902,,,,,,,,,,,,,,,,,,,,,,60ff2d35b20f6855da62ae75,610378f51d0d557a19d1c3f1,2021-07-29_23h01.06.046,Simcolourproject_2stim_asymm_v5,2020.2.10,MacIntel,60,61025ae37ef11b136ea224fe,,,,,,,,,2478,37.6796875,-85.2421875,1,0,0,response3disk,,4,10.93359375,-4.0546875,1,0,0,rectangle,10.93359375,-4.0546875,1,0,0,10.93359375,-4.0546875,1,0,0,0,15,15,60,1,,,,,,,,
,,,,,,,,,,,,,FF,,,,,,,,4.5819,,,,,,,,,,,,,,,,,,,,,,60ff2d35b20f6855da62ae75,610378f51d0d557a19d1c3f1,2021-07-29_23h01.06.046,Simcolourproject_2stim_asymm_v5,2020.2.10,MacIntel,60,61025ae37ef11b136ea224fe,,,,,,,,,1032,-84.609375,-43.3203125,1,0,0,response5disk,,2,-23.671875,-7.59375,1,0,0,rectangle,-23.671875,-7.59375,1,0,0,-23.671875,-7.59375,1,0,0,0,16,16,64,1,,,,,,,,
,,,,,,,,,,,,,FF,,,,,,,,0.9363,,,,,,,,,,,,,,,,,,,,,,60ff2d35b20f6855da62ae75,610378f51d0d557a19d1c3f1,2021-07-29_23h01.06.046,Simcolourproject_2stim_asymm_v5,2020.2.10,MacIntel,60,61025ae37ef11b136ea224fe,,,,,,,,,2297,-66.0234375,32.98828125,1,0,0,response7disk,,1,-2.51171875,-10.046875,1,0,0,rectangle,-2.51171875,-10.046875,1,0,0,-2.51171875,-10.046875,1,0,0,0,17,17,96,1,,,,,,,,
,,,,,,,,,,,,,FF,,,,,,,,0.8361,,,,,,,,,,,,,,,,,,,,,,60ff2d35b20f6855da62ae75,610378f51d0d557a19d1c3f1,2021-07-29_23h01.06.046,Simcolourproject_2stim_asymm_v5,2020.2.10,MacIntel,60,61025ae37ef11b136ea224fe,,,,,,,,,3849,-86.12109375,49.25,1,0,0,response7disk,,1,-8.0390625,-5.5859375,1,0,0,rectangle,-8.0390625,-5.5859375,1,0,0,-8.0390625,-5.5859375,1,0,0,0,18,18,0,1,,,,,,,,
,,,,,,,,,,,,,FF,,,,,,,,2.7432,,,,,,,,,,,,,,,,,,,,,,60ff2d35b20f6855da62ae75,610378f51d0d557a19d1c3f1,2021-07-29_23h01.06.046,Simcolourproject_2stim_asymm_v5,2020.2.10,MacIntel,60,61025ae37ef11b136ea224fe,,,,,,,,,1276,-58.33203125,-86.8203125,1,0,0,response5disk,,3,-28.54296875,-14.41015625,1,0,0,rectangle,-28.54296875,-14.41015625,1,0,0,-28.54296875,-14.41015625,1,0,0,0,19,19,7,1,,,,,,,,
,,,,,,,,,,,,,FF,,,,,,,,2.7081,,,,,,,,,,,,,,,,,,,,,,60ff2d35b20f6855da62ae75,610378f51d0d557a19d1c3f1,2021-07-29_23h01.06.046,Simcolourproject_2stim_asymm_v5,2020.2.10,MacIntel,60,61025ae37ef11b136ea224fe,,,,,,,,,610,49.24609375,-79.796875,1,0,0,response3disk,,4,15.53515625,-12.25,1,0,0,rectangle,15.53515625,-12.25,1,0,0,15.53515625,-12.25,1,0,0,0,20,20,76,1,,,,,,,,
,,,,,,,,,,,,,FF,,,,,,,,1.7889,,,,,,,,,,,,,,,,,,,,,,60ff2d35b20f6855da62ae75,610378f51d0d557a19d1c3f1,2021-07-29_23h01.06.046,Simcolourproject_2stim_asymm_v5,2020.2.10,MacIntel,60,61025ae37ef11b136ea224fe,,,,,,,,,1137,-92.52734375,-34.484375,1,0,0,response5disk,,2,-27.03515625,3.8828125,1,0,0,rectangle,-27.03515625,3.8828125,1,0,0,-27.03515625,3.8828125,1,0,0,0,21,21,40,1,,,,,,,,
,,,,,,,,,,,,,FF,,,,,,,,1.2547,,,,,,,,,,,,,,,,,,,,,,60ff2d35b20f6855da62ae75,610378f51d0d557a19d1c3f1,2021-07-29_23h01.06.046,Simcolourproject_2stim_asymm_v5,2020.2.10,MacIntel,60,61025ae37ef11b136ea224fe,,,,,,,,,1658,-35.6015625,-108.6445313,1,0,0,response5disk,,3,-6.53515625,-5.74609375,1,0,0,rectangle,-6.53515625,-5.74609375,1,0,0,-6.53515625,-5.74609375,1,0,0,0,22,22,42,1,,,,,,,,
,,,,,,,,,,,,,FF,,,,,,,,2.8763,,,,,,,,,,,,,,,,,,,,,,60ff2d35b20f6855da62ae75,610378f51d0d557a19d1c3f1,2021-07-29_23h01.06.046,Simcolourproject_2stim_asymm_v5,2020.2.10,MacIntel,60,61025ae37ef11b136ea224fe,,,,,,,,,1365,24.85546875,-90.51953125,1,0,0,response3disk,,4,-14.43359375,-6.70703125,1,0,0,rectangle,-14.43359375,-6.70703125,1,0,0,-14.43359375,-6.70703125,1,0,0,0,23,23,17,1,,,,,,,,
,,,,,,,,,,,,,FF,,,,,,,,5.0168,,,,,,,,,,,,,,,,,,,,,,60ff2d35b20f6855da62ae75,610378f51d0d557a19d1c3f1,2021-07-29_23h01.06.046,Simcolourproject_2stim_asymm_v5,2020.2.10,MacIntel,60,61025ae37ef11b136ea224fe,,,,,,,,,1331,78.68359375,-48.73046875,1,0,0,response3disk,,5,9.453125,-3.125,1,0,0,rectangle,9.453125,-3.125,1,0,0,9.453125,-3.125,1,0,0,0,24,24,153,1,,,,,,,,
,,,,,,,,,,,,,FF,,,,,,,,1.7726,,,,,,,,,,,,,,,,,,,,,,60ff2d35b20f6855da62ae75,610378f51d0d557a19d1c3f1,2021-07-29_23h01.06.046,Simcolourproject_2stim_asymm_v5,2020.2.10,MacIntel,60,61025ae37ef11b136ea224fe,,,,,,,,,555,-65.86328125,35.7734375,1,0,0,response7disk,,1,17.72265625,-15.51953125,1,0,0,rectangle,17.72265625,-15.51953125,1,0,0,17.72265625,-15.51953125,1,0,0,0,25,25,86,1,,,,,,,,
,,,,,,,,,,,,,FF,,,,,,,,1.9903,,,,,,,,,,,,,,,,,,,,,,60ff2d35b20f6855da62ae75,610378f51d0d557a19d1c3f1,2021-07-29_23h01.06.046,Simcolourproject_2stim_asymm_v5,2020.2.10,MacIntel,60,61025ae37ef11b136ea224fe,,,,,,,,,1393,85.296875,-54.66796875,1,0,0,response3disk,,5,21.03515625,-8.12109375,1,0,0,rectangle,48.45703125,51.40234375,1,0,0,13.04296875,-10.234375,1,0,0,0,26,26,132,1,,response1disk_3,TRUE,7,7,"[70,131,171,282,242,205,206,46,296,82,125,27,263,160,208,196,270,212,39,186]",2.2571,rectangle
,,,,,,,,,,,,,FF,,,,,,,,1.0202,,,,,,,,,,,,,,,,,,,,,,60ff2d35b20f6855da62ae75,610378f51d0d557a19d1c3f1,2021-07-29_23h01.06.046,Simcolourproject_2stim_asymm_v5,2020.2.10,MacIntel,60,61025ae37ef11b136ea224fe,,,,,,,,,697,-32.78515625,-104.7421875,1,0,0,response5disk,,3,8.71484375,3.18359375,1,0,0,rectangle,8.71484375,3.18359375,1,0,0,8.71484375,3.18359375,1,0,0,0,27,27,34,1,,,,,,,,
,,,,,,,,,,,,,FF,,,,,,,,3.7797,,,,,,,,,,,,,,,,,,,,,,60ff2d35b20f6855da62ae75,610378f51d0d557a19d1c3f1,2021-07-29_23h01.06.046,Simcolourproject_2stim_asymm_v5,2020.2.10,MacIntel,60,61025ae37ef11b136ea224fe,,,,,,,,,702,34.421875,-82.47265625,1,0,0,response3disk,,4,0.625,2.71484375,1,0,0,rectangle,0.625,2.71484375,1,0,0,0.625,2.71484375,1,0,0,0,28,28,133,1,,,,,,,,
,,,,,,,,,,,,,FF,,,,,,,,1.7561,,,,,,,,,,,,,,,,,,,,,,60ff2d35b20f6855da62ae75,610378f51d0d557a19d1c3f1,2021-07-29_23h01.06.046,Simcolourproject_2stim_asymm_v5,2020.2.10,MacIntel,60,61025ae37ef11b136ea224fe,,,,,,,,,3030,86.40234375,39.99609375,1,0,0,response1disk,,6,20.30078125,2.0078125,1,0,0,rectangle,20.30078125,2.0078125,1,0,0,20.30078125,2.0078125,1,0,0,0,29,29,48,1,,,,,,,,
,,,,,,,,,,,,,FF,,,,,,,,1.0035,,,,,,,,,,,,,,,,,,,,,,60ff2d35b20f6855da62ae75,610378f51d0d557a19d1c3f1,2021-07-29_23h01.06.046,Simcolourproject_2stim_asymm_v5,2020.2.10,MacIntel,60,61025ae37ef11b136ea224fe,,,,,,,,,3819,-35.34375,-70.14453125,1,0,0,response5disk,,3,4.81640625,12.05078125,1,0,0,rectangle,4.81640625,12.05078125,1,0,0,4.81640625,12.05078125,1,0,0,0,30,30,39,1,,,,,,,,
,,,,,,,,,,,,,FF,,,,,,,,1.1361,,,,,,,,,,,,,,,,,,,,,,60ff2d35b20f6855da62ae75,610378f51d0d557a19d1c3f1,2021-07-29_23h01.06.046,Simcolourproject_2stim_asymm_v5,2020.2.10,MacIntel,60,61025ae37ef11b136ea224fe,,,,,,,,,3909,-80.328125,52.17578125,1,0,0,response7disk,,1,-1.6796875,4.96484375,1,0,0,rectangle,-1.6796875,4.96484375,1,0,0,-1.6796875,4.96484375,1,0,0,0,31,31,27,1,,,,,,,,
,,,,,,,,,,,,,FF,,,,,,,,2.241,,,,,,,,,,,,,,,,,,,,,,60ff2d35b20f6855da62ae75,610378f51d0d557a19d1c3f1,2021-07-29_23h01.06.046,Simcolourproject_2stim_asymm_v5,2020.2.10,MacIntel,60,61025ae37ef11b136ea224fe,,,,,,,,,1337,121.8203125,-68.390625,1,0,0,response3disk,,5,7.27734375,-6.44921875,1,0,0,rectangle,7.27734375,-6.44921875,1,0,0,7.27734375,-6.44921875,1,0,0,0,32,32,117,1,,,,,,,,
,,,,,,,,,,,,,FF,,,,,,,,1.4718,,,,,,,,,,,,,,,,,,,,,,60ff2d35b20f6855da62ae75,610378f51d0d557a19d1c3f1,2021-07-29_23h01.06.046,Simcolourproject_2stim_asymm_v5,2020.2.10,MacIntel,60,61025ae37ef11b136ea224fe,,,,,,,,,2409,41.8125,58.3828125,1,0,0,response1disk,,7,-18.0703125,10.046875,1,0,0,rectangle,-18.0703125,10.046875,1,0,0,-18.0703125,10.046875,1,0,0,0,33,33,110,1,,,,,,,,
,,,,,,,,,,,,,FF,,,,,,,,1.1692,,,,,,,,,,,,,,,,,,,,,,60ff2d35b20f6855da62ae75,610378f51d0d557a19d1c3f1,2021-07-29_23h01.06.046,Simcolourproject_2stim_asymm_v5,2020.2.10,MacIntel,60,61025ae37ef11b136ea224fe,,,,,,,,,886,-47.08203125,63.28125,1,0,0,response7disk,,0,-11.859375,-2.04296875,1,0,0,rectangle,-11.859375,-2.04296875,1,0,0,-11.859375,-2.04296875,1,0,0,0,34,34,97,1,,,,,,,,
,,,,,,,,,,,,,FF,,,,,,,,1.8557,,,,,,,,,,,,,,,,,,,,,,60ff2d35b20f6855da62ae75,610378f51d0d557a19d1c3f1,2021-07-29_23h01.06.046,Simcolourproject_2stim_asymm_v5,2020.2.10,MacIntel,60,61025ae37ef11b136ea224fe,,,,,,,,,2274,74.09375,-61.1796875,1,0,0,response3disk,,5,3.0390625,14.06640625,1,0,0,rectangle,3.0390625,14.06640625,1,0,0,3.0390625,14.06640625,1,0,0,0,35,35,89,1,,,,,,,,
,,,,,,,,,,,,,FF,,,,,,,,1.2716,,,,,,,,,,,,,,,,,,,,,,60ff2d35b20f6855da62ae75,610378f51d0d557a19d1c3f1,2021-07-29_23h01.06.046,Simcolourproject_2stim_asymm_v5,2020.2.10,MacIntel,60,61025ae37ef11b136ea224fe,,,,,,,,,2382,29.1953125,-85.83203125,1,0,0,response3disk,,4,-0.69921875,15.0390625,1,0,0,rectangle,-0.69921875,15.0390625,1,0,0,-0.69921875,15.0390625,1,0,0,0,36,36,53,1,,,,,,,,
,,,,,,,,,,,,,FF,,,,,,,,1.1374,,,,,,,,,,,,,,,,,,,,,,60ff2d35b20f6855da62ae75,610378f51d0d557a19d1c3f1,2021-07-29_23h01.06.046,Simcolourproject_2stim_asymm_v5,2020.2.10,MacIntel,60,61025ae37ef11b136ea224fe,,,,,,,,,1497,48.23046875,78.6484375,1,0,0,response1disk,,7,8.60546875,0.85546875,1,0,0,rectangle,8.60546875,0.85546875,1,0,0,8.60546875,0.85546875,1,0,0,0,37,37,16,1,,,,,,,,
,,,,,,,,,,,,,FF,,,,,,,,1.1542,,,,,,,,,,,,,,,,,,,,,,60ff2d35b20f6855da62ae75,610378f51d0d557a19d1c3f1,2021-07-29_23h01.06.046,Simcolourproject_2stim_asymm_v5,2020.2.10,MacIntel,60,61025ae37ef11b136ea224fe,,,,,,,,,24,44.54296875,-24.83203125,1,0,0,response3disk,,5,-3.21484375,10.859375,1,0,0,rectangle,-101.4570313,33.25,1,0,0,-21.41015625,12.12109375,1,0,0,0,38,38,159,1,,response7disk_3,TRUE,1,1,"[70,131,171,282,242,205,206,46,296,82,125,27,263,160,208,196,270,212,39,186]",2.0554,rectangle
,,,,,,,,,,,,,FF,,,,,,,,1.1043,,,,,,,,,,,,,,,,,,,,,,60ff2d35b20f6855da62ae75,610378f51d0d557a19d1c3f1,2021-07-29_23h01.06.046,Simcolourproject_2stim_asymm_v5,2020.2.10,MacIntel,60,61025ae37ef11b136ea224fe,,,,,,,,,773,44.3828125,-48.796875,1,0,0,response3disk,,4,0.390625,8.43359375,1,0,0,rectangle,0.390625,8.43359375,1,0,0,0.390625,8.43359375,1,0,0,0,39,39,140,1,,,,,,,,
,,,,,,,,,,,,,FF,,,,,,,,1.1704,,,,,,,,,,,,,,,,,,,,,,60ff2d35b20f6855da62ae75,610378f51d0d557a19d1c3f1,2021-07-29_23h01.06.046,Simcolourproject_2stim_asymm_v5,2020.2.10,MacIntel,60,61025ae37ef11b136ea224fe,,,,,,,,,613,-83.3828125,40.14453125,1,0,0,response7disk,,1,-28.296875,5.3671875,1,0,0,rectangle,-28.296875,5.3671875,1,0,0,-28.296875,5.3671875,1,0,0,0,40,40,104,1,,,,,,,,
,,,,,,,,,,,,,FF,,,,,,,,0.9374,,,,,,,,,,,,,,,,,,,,,,60ff2d35b20f6855da62ae75,610378f51d0d557a19d1c3f1,2021-07-29_23h01.06.046,Simcolourproject_2stim_asymm_v5,2020.2.10,MacIntel,60,61025ae37ef11b136ea224fe,,,,,,,,,661,-30.6484375,-84.71875,1,0,0,response5disk,,3,2.2890625,-12.8125,1,0,0,rectangle,2.2890625,-12.8125,1,0,0,2.2890625,-12.8125,1,0,0,0,41,41,55,1,,,,,,,,
,,,,,,,,,,,,,FF,,,,,,,,1.2711,,,,,,,,,,,,,,,,,,,,,,60ff2d35b20f6855da62ae75,610378f51d0d557a19d1c3f1,2021-07-29_23h01.06.046,Simcolourproject_2stim_asymm_v5,2020.2.10,MacIntel,60,61025ae37ef11b136ea224fe,,,,,,,,,113,85.4765625,-78.484375,1,0,0,response3disk,,5,-20.515625,14.38671875,1,0,0,rectangle,-20.515625,14.38671875,1,0,0,-20.515625,14.38671875,1,0,0,0,42,42,44,1,,,,,,,,
,,,,,,,,,,,,,FF,,,,,,,,0.9026,,,,,,,,,,,,,,,,,,,,,,60ff2d35b20f6855da62ae75,610378f51d0d557a19d1c3f1,2021-07-29_23h01.06.046,Simcolourproject_2stim_asymm_v5,2020.2.10,MacIntel,60,61025ae37ef11b136ea224fe,,,,,,,,,3818,-57.16015625,26.09375,1,0,0,response7disk,,1,-1.74609375,-6.80078125,1,0,0,rectangle,-1.74609375,-6.80078125,1,0,0,-1.74609375,-6.80078125,1,0,0,0,43,43,79,1,,,,,,,,
,,,,,,,,,,,,,FF,,,,,,,,2.3581,,,,,,,,,,,,,,,,,,,,,,60ff2d35b20f6855da62ae75,610378f51d0d557a19d1c3f1,2021-07-29_23h01.06.046,Simcolourproject_2stim_asymm_v5,2020.2.10,MacIntel,60,61025ae37ef11b136ea224fe,,,,,,,,,2919,64.421875,-52.6328125,1,0,0,response3disk,,5,16.08984375,-5.30078125,1,0,0,rectangle,16.08984375,-5.30078125,1,0,0,16.08984375,-5.30078125,1,0,0,0,44,44,66,1,,,,,,,,
,,,,,,,,,,,,,FF,,,,,,,,1.1879,,,,,,,,,,,,,,,,,,,,,,60ff2d35b20f6855da62ae75,610378f51d0d557a19d1c3f1,2021-07-29_23h01.06.046,Simcolourproject_2stim_asymm_v5,2020.2.10,MacIntel,60,61025ae37ef11b136ea224fe,,,,,,,,,1742,65.73828125,51.94140625,1,0,0,response1disk,,6,4.9453125,6.640625,1,0,0,rectangle,74.82421875,37.22265625,1,0,0,4.34375,0.15625,1,0,0,0,45,45,116,1,,response1disk_3,TRUE,6,6,"[70,131,171,282,242,205,206,46,296,82,125,27,263,160,208,196,270,212,39,186]",1.7051,rectangle
,,,,,,,,,,,,,FF,,,,,,,,2.0733,,,,,,,,,,,,,,,,,,,,,,60ff2d35b20f6855da62ae75,610378f51d0d557a19d1c3f1,2021-07-29_23h01.06.046,Simcolourproject_2stim_asymm_v5,2020.2.10,MacIntel,60,61025ae37ef11b136ea224fe,,,,,,,,,849,48.21484375,65.078125,1,0,0,response1disk,,7,12.3984375,3.2421875,1,0,0,rectangle,12.3984375,3.2421875,1,0,0,12.3984375,3.2421875,1,0,0,0,46,46,112,1,,,,,,,,
,,,,,,,,,,,,,FF,,,,,,,,1.4552,,,,,,,,,,,,,,,,,,,,,,60ff2d35b20f6855da62ae75,610378f51d0d557a19d1c3f1,2021-07-29_23h01.06.046,Simcolourproject_2stim_asymm_v5,2020.2.10,MacIntel,60,61025ae37ef11b136ea224fe,,,,,,,,,2335,100.0195313,-31.67578125,1,0,0,response3disk,,5,5.64453125,-9.875,1,0,0,rectangle,5.64453125,-9.875,1,0,0,5.64453125,-9.875,1,0,0,0,47,47,98,1,,,,,,,,
,,,,,,,,,,,,,FF,,,,,,,,3.796,,,,,,,,,,,,,,,,,,,,,,60ff2d35b20f6855da62ae75,610378f51d0d557a19d1c3f1,2021-07-29_23h01.06.046,Simcolourproject_2stim_asymm_v5,2020.2.10,MacIntel,60,61025ae37ef11b136ea224fe,,,,,,,,,337,78.484375,44.06640625,1,0,0,response1disk,,6,-19.8359375,1.5546875,1,0,0,rectangle,-19.8359375,1.5546875,1,0,0,-19.8359375,1.5546875,1,0,0,0,48,48,82,1,,,,,,,,
,,,,,,,,,,,,,FF,,,,,,,,1.5209,,,,,,,,,,,,,,,,,,,,,,60ff2d35b20f6855da62ae75,610378f51d0d557a19d1c3f1,2021-07-29_23h01.06.046,Simcolourproject_2stim_asymm_v5,2020.2.10,MacIntel,60,61025ae37ef11b136ea224fe,,,,,,,,,1175,35.73828125,84.9375,1,0,0,response1disk,,7,2.76171875,-7.765625,1,0,0,rectangle,2.76171875,-7.765625,1,0,0,2.76171875,-7.765625,1,0,0,0,49,49,124,1,,,,,,,,
,,,,,,,,,,,,,FF,,,,,,,,2.1068,,,,,,,,,,,,,,,,,,,,,,60ff2d35b20f6855da62ae75,610378f51d0d557a19d1c3f1,2021-07-29_23h01.06.046,Simcolourproject_2stim_asymm_v5,2020.2.10,MacIntel,60,61025ae37ef11b136ea224fe,,,,,,,,,3357,-74.9296875,-57.12890625,1,0,0,response5disk,,2,-12.265625,-12.49609375,1,0,0,rectangle,-12.265625,-12.49609375,1,0,0,-12.265625,-12.49609375,1,0,0,0,50,50,95,1,,,,,,,,
,,,,,,,,,,,,,FF,,,,,,,,1.6902,,,,,,,,,,,,,,,,,,,,,,60ff2d35b20f6855da62ae75,610378f51d0d557a19d1c3f1,2021-07-29_23h01.06.046,Simcolourproject_2stim_asymm_v5,2020.2.10,MacIntel,60,61025ae37ef11b136ea224fe,,,,,,,,,3897,-48.19921875,-69.1875,1,0,0,response5disk,,3,-16.16796875,-1.3359375,1,0,0,rectangle,-16.16796875,-1.3359375,1,0,0,-16.16796875,-1.3359375,1,0,0,0,51,51,129,1,,,,,,,,
,,,,,,,,,,,,,FF,,,,,,,,1.054,,,,,,,,,,,,,,,,,,,,,,60ff2d35b20f6855da62ae75,610378f51d0d557a19d1c3f1,2021-07-29_23h01.06.046,Simcolourproject_2stim_asymm_v5,2020.2.10,MacIntel,60,61025ae37ef11b136ea224fe,,,,,,,,,596,38.80078125,59.046875,1,0,0,response1disk,,7,16.765625,2.92578125,1,0,0,rectangle,16.765625,2.92578125,1,0,0,16.765625,2.92578125,1,0,0,0,52,52,30,1,,,,,,,,
,,,,,,,,,,,,,FF,,,,,,,,1.3371,,,,,,,,,,,,,,,,,,,,,,60ff2d35b20f6855da62ae75,610378f51d0d557a19d1c3f1,2021-07-29_23h01.06.046,Simcolourproject_2stim_asymm_v5,2020.2.10,MacIntel,60,61025ae37ef11b136ea224fe,,,,,,,,,2672,-54.38671875,-68.7578125,1,0,0,response5disk,,3,0.16796875,-0.46484375,1,0,0,rectangle,0.16796875,-0.46484375,1,0,0,0.16796875,-0.46484375,1,0,0,0,53,53,93,1,,,,,,,,
,,,,,,,,,,,,,FF,,,,,,,,1.505,,,,,,,,,,,,,,,,,,,,,,60ff2d35b20f6855da62ae75,610378f51d0d557a19d1c3f1,2021-07-29_23h01.06.046,Simcolourproject_2stim_asymm_v5,2020.2.10,MacIntel,60,61025ae37ef11b136ea224fe,,,,,,,,,3515,-85.5703125,-27.953125,1,0,0,response5disk,,2,-4.83984375,5.2734375,1,0,0,rectangle,-4.83984375,5.2734375,1,0,0,-4.83984375,5.2734375,1,0,0,0,54,54,4,1,,,,,,,,
,,,,,,,,,,,,,FF,,,,,,,,1.1873,,,,,,,,,,,,,,,,,,,,,,60ff2d35b20f6855da62ae75,610378f51d0d557a19d1c3f1,2021-07-29_23h01.06.046,Simcolourproject_2stim_asymm_v5,2020.2.10,MacIntel,60,61025ae37ef11b136ea224fe,,,,,,,,,2433,-74.58203125,-36.45703125,1,0,0,response5disk,,2,-8.5234375,-4.21484375,1,0,0,rectangle,-8.5234375,-4.21484375,1,0,0,-8.5234375,-4.21484375,1,0,0,0,55,55,37,1,,,,,,,,
,,,,,,,,,,,,,FF,,,,,,,,1.4539,,,,,,,,,,,,,,,,,,,,,,60ff2d35b20f6855da62ae75,610378f51d0d557a19d1c3f1,2021-07-29_23h01.06.046,Simcolourproject_2stim_asymm_v5,2020.2.10,MacIntel,60,61025ae37ef11b136ea224fe,,,,,,,,,3088,-84.73828125,64.2421875,1,0,0,response7disk,,1,-9.73828125,-2.34765625,1,0,0,rectangle,-9.73828125,-2.34765625,1,0,0,-9.73828125,-2.34765625,1,0,0,0,56,56,81,1,,,,,,,,
,,,,,,,,,,,,,FF,,,,,,,,0.8522,,,,,,,,,,,,,,,,,,,,,,60ff2d35b20f6855da62ae75,610378f51d0d557a19d1c3f1,2021-07-29_23h01.06.046,Simcolourproject_2stim_asymm_v5,2020.2.10,MacIntel,60,61025ae37ef11b136ea224fe,,,,,,,,,811,-86.90234375,46.74609375,1,0,0,response7disk,,1,-15.40234375,3.3046875,1,0,0,rectangle,-15.40234375,3.3046875,1,0,0,-15.40234375,3.3046875,1,0,0,0,57,57,84,1,,,,,,,,
,,,,,,,,,,,,,FF,,,,,,,,1.0535,,,,,,,,,,,,,,,,,,,,,,60ff2d35b20f6855da62ae75,610378f51d0d557a19d1c3f1,2021-07-29_23h01.06.046,Simcolourproject_2stim_asymm_v5,2020.2.10,MacIntel,60,61025ae37ef11b136ea224fe,,,,,,,,,3086,93.703125,-28.27734375,1,0,0,response3disk,,5,13.44921875,10.28125,1,0,0,rectangle,13.44921875,10.28125,1,0,0,13.44921875,10.28125,1,0,0,0,58,58,61,1,,,,,,,,
,,,,,,,,,,,,,FF,,,,,,,,0.9374,,,,,,,,,,,,,,,,,,,,,,60ff2d35b20f6855da62ae75,610378f51d0d557a19d1c3f1,2021-07-29_23h01.06.046,Simcolourproject_2stim_asymm_v5,2020.2.10,MacIntel,60,61025ae37ef11b136ea224fe,,,,,,,,,3455,26.703125,65.45703125,1,0,0,response1disk,,7,-7.92578125,9.29296875,1,0,0,rectangle,-7.92578125,9.29296875,1,0,0,-7.92578125,9.29296875,1,0,0,0,59,59,65,1,,,,,,,,
,,,,,,,,,,,,,FF,,,,,,,,1.2203,,,,,,,,,,,,,,,,,,,,,,60ff2d35b20f6855da62ae75,610378f51d0d557a19d1c3f1,2021-07-29_23h01.06.046,Simcolourproject_2stim_asymm_v5,2020.2.10,MacIntel,60,61025ae37ef11b136ea224fe,,,,,,,,,2091,-71.34765625,-24.3203125,1,0,0,response5disk,,2,-33.33984375,-12.46875,1,0,0,rectangle,-33.33984375,-12.46875,1,0,0,-33.33984375,-12.46875,1,0,0,0,60,60,141,1,,,,,,,,
,,,,,,,,,,,,,FF,,,,,,,,1.1533,,,,,,,,,,,,,,,,,,,,,,60ff2d35b20f6855da62ae75,610378f51d0d557a19d1c3f1,2021-07-29_23h01.06.046,Simcolourproject_2stim_asymm_v5,2020.2.10,MacIntel,60,61025ae37ef11b136ea224fe,,,,,,,,,142,93.17578125,42.98046875,1,0,0,response1disk,,6,21.50390625,0.8046875,1,0,0,rectangle,21.50390625,0.8046875,1,0,0,21.50390625,0.8046875,1,0,0,0,61,61,71,1,,,,,,,,
,,,,,,,,,,,,,FF,,,,,,,,1.9564,,,,,,,,,,,,,,,,,,,,,,60ff2d35b20f6855da62ae75,610378f51d0d557a19d1c3f1,2021-07-29_23h01.06.046,Simcolourproject_2stim_asymm_v5,2020.2.10,MacIntel,60,61025ae37ef11b136ea224fe,,,,,,,,,4288,56.18359375,59.6015625,1,0,0,response1disk,,7,19.0234375,9.51953125,1,0,0,rectangle,19.0234375,9.51953125,1,0,0,19.0234375,9.51953125,1,0,0,0,62,62,22,1,,,,,,,,
,,,,,,,,,,,,,FF,,,,,,,,1.1204,,,,,,,,,,,,,,,,,,,,,,60ff2d35b20f6855da62ae75,610378f51d0d557a19d1c3f1,2021-07-29_23h01.06.046,Simcolourproject_2stim_asymm_v5,2020.2.10,MacIntel,60,61025ae37ef11b136ea224fe,,,,,,,,,3349,-53.33203125,-87.85546875,1,0,0,response5disk,,3,2.765625,-3.24609375,1,0,0,rectangle,2.765625,-3.24609375,1,0,0,2.765625,-3.24609375,1,0,0,0,63,63,85,1,,,,,,,,
,,,,,,,,,,,,,FF,,,,,,,,1.1359,,,,,,,,,,,,,,,,,,,,,,60ff2d35b20f6855da62ae75,610378f51d0d557a19d1c3f1,2021-07-29_23h01.06.046,Simcolourproject_2stim_asymm_v5,2020.2.10,MacIntel,60,61025ae37ef11b136ea224fe,,,,,,,,,1562,48.12890625,69.68359375,1,0,0,response1disk,,7,7.10546875,2.8359375,1,0,0,rectangle,7.10546875,2.8359375,1,0,0,7.10546875,2.8359375,1,0,0,0,64,64,1,1,,,,,,,,
,,,,,,,,,,,,,FF,,,,,,,,1.3377,,,,,,,,,,,,,,,,,,,,,,60ff2d35b20f6855da62ae75,610378f51d0d557a19d1c3f1,2021-07-29_23h01.06.046,Simcolourproject_2stim_asymm_v5,2020.2.10,MacIntel,60,61025ae37ef11b136ea224fe,,,,,,,,,3411,91,-47.421875,1,0,0,response3disk,,5,-4.53515625,-7.40625,1,0,0,rectangle,-4.53515625,-7.40625,1,0,0,-4.53515625,-7.40625,1,0,0,0,65,65,135,1,,,,,,,,
,,,,,,,,,,,,,FF,,,,,,,,0.9878,,,,,,,,,,,,,,,,,,,,,,60ff2d35b20f6855da62ae75,610378f51d0d557a19d1c3f1,2021-07-29_23h01.06.046,Simcolourproject_2stim_asymm_v5,2020.2.10,MacIntel,60,61025ae37ef11b136ea224fe,,,,,,,,,3092,-70.703125,-39.5,1,0,0,response5disk,,2,-1.390625,11.796875,1,0,0,rectangle,-1.390625,11.796875,1,0,0,-1.390625,11.796875,1,0,0,0,66,66,21,1,,,,,,,,
,,,,,,,,,,,,,FF,,,,,,,,1.8066,,,,,,,,,,,,,,,,,,,,,,60ff2d35b20f6855da62ae75,610378f51d0d557a19d1c3f1,2021-07-29_23h01.06.046,Simcolourproject_2stim_asymm_v5,2020.2.10,MacIntel,60,61025ae37ef11b136ea224fe,,,,,,,,,967,106.9882813,20.484375,1,0,0,response1disk,,6,1.49609375,-2.23046875,1,0,0,rectangle,1.49609375,-2.23046875,1,0,0,1.49609375,-2.23046875,1,0,0,0,67,67,13,1,,,,,,,,
,,,,,,,,,,,,,FF,,,,,,,,2.0225,,,,,,,,,,,,,,,,,,,,,,60ff2d35b20f6855da62ae75,610378f51d0d557a19d1c3f1,2021-07-29_23h01.06.046,Simcolourproject_2stim_asymm_v5,2020.2.10,MacIntel,60,61025ae37ef11b136ea224fe,,,,,,,,,3659,93.2734375,44.73046875,1,0,0,response1disk,,6,8.60546875,6.515625,1,0,0,rectangle,8.60546875,6.515625,1,0,0,8.60546875,6.515625,1,0,0,0,68,68,47,1,,,,,,,,
,,,,,,,,,,,,,FF,,,,,,,,1.5715,,,,,,,,,,,,,,,,,,,,,,60ff2d35b20f6855da62ae75,610378f51d0d557a19d1c3f1,2021-07-29_23h01.06.046,Simcolourproject_2stim_asymm_v5,2020.2.10,MacIntel,60,61025ae37ef11b136ea224fe,,,,,,,,,1941,80.31640625,-52.171875,1,0,0,response3disk,,5,9.95703125,-11.04296875,1,0,0,rectangle,81.40234375,46.890625,1,0,0,-0.625,-6.80078125,1,0,0,0,69,69,158,1,,response1disk_3,TRUE,6,6,"[70,131,171,282,242,205,206,46,296,82,125,27,263,160,208,196,270,212,39,186]",1.7404,rectangle
,,,,,,,,,,,,,FF,,,,,,,,2.8755,,,,,,,,,,,,,,,,,,,,,,60ff2d35b20f6855da62ae75,610378f51d0d557a19d1c3f1,2021-07-29_23h01.06.046,Simcolourproject_2stim_asymm_v5,2020.2.10,MacIntel,60,61025ae37ef11b136ea224fe,,,,,,,,,701,50.47265625,-79.5546875,1,0,0,response3disk,,4,13.61328125,-10.94921875,1,0,0,rectangle,13.61328125,-10.94921875,1,0,0,13.61328125,-10.94921875,1,0,0,0,70,70,50,1,,,,,,,,
,,,,,,,,,,,,,FF,,,,,,,,3.1104,,,,,,,,,,,,,,,,,,,,,,60ff2d35b20f6855da62ae75,610378f51d0d557a19d1c3f1,2021-07-29_23h01.06.046,Simcolourproject_2stim_asymm_v5,2020.2.10,MacIntel,60,61025ae37ef11b136ea224fe,,,,,,,,,1655,87.515625,33.3671875,1,0,0,response1disk,,6,0.0390625,0.9296875,1,0,0,rectangle,0.0390625,0.9296875,1,0,0,0.0390625,0.9296875,1,0,0,0,71,71,109,1,,,,,,,,
,,,,,,,,,,,,,FF,,,,,,,,2.5911,,,,,,,,,,,,,,,,,,,,,,60ff2d35b20f6855da62ae75,610378f51d0d557a19d1c3f1,2021-07-29_23h01.06.046,Simcolourproject_2stim_asymm_v5,2020.2.10,MacIntel,60,61025ae37ef11b136ea224fe,,,,,,,,,1785,97.5859375,-53.9453125,1,0,0,response3disk,,5,13.9375,-5.25,1,0,0,rectangle,13.9375,-5.25,1,0,0,13.9375,-5.25,1,0,0,0,72,72,121,1,,,,,,,,
,,,,,,,,,,,,,FF,,,,,,,,2.3756,,,,,,,,,,,,,,,,,,,,,,60ff2d35b20f6855da62ae75,610378f51d0d557a19d1c3f1,2021-07-29_23h01.06.046,Simcolourproject_2stim_asymm_v5,2020.2.10,MacIntel,60,61025ae37ef11b136ea224fe,,,,,,,,,1851,30.4296875,-86.50390625,1,0,0,response3disk,,4,11.41015625,-10.9765625,1,0,0,rectangle,11.41015625,-10.9765625,1,0,0,11.41015625,-10.9765625,1,0,0,0,73,73,2,1,,,,,,,,
,,,,,,,,,,,,,FF,,,,,,,,3.2092,,,,,,,,,,,,,,,,,,,,,,60ff2d35b20f6855da62ae75,610378f51d0d557a19d1c3f1,2021-07-29_23h01.06.046,Simcolourproject_2stim_asymm_v5,2020.2.10,MacIntel,60,61025ae37ef11b136ea224fe,,,,,,,,,241,86.53515625,-32.19921875,1,0,0,response3disk,,5,12.25,-8.54296875,1,0,0,rectangle,12.25,-8.54296875,1,0,0,12.25,-8.54296875,1,0,0,0,74,74,75,1,,,,,,,,
,,,,,,,,,,,,,FF,,,,,,,,2.1742,,,,,,,,,,,,,,,,,,,,,,60ff2d35b20f6855da62ae75,610378f51d0d557a19d1c3f1,2021-07-29_23h01.06.046,Simcolourproject_2stim_asymm_v5,2020.2.10,MacIntel,60,61025ae37ef11b136ea224fe,,,,,,,,,102,58.74609375,-84.265625,1,0,0,response3disk,,4,11.57421875,-3.2734375,1,0,0,rectangle,11.57421875,-3.2734375,1,0,0,11.57421875,-3.2734375,1,0,0,0,75,75,125,1,,,,,,,,
,,,,,,,,,,,,,FF,,,,,,,,3.846,,,,,,,,,,,,,,,,,,,,,,60ff2d35b20f6855da62ae75,610378f51d0d557a19d1c3f1,2021-07-29_23h01.06.046,Simcolourproject_2stim_asymm_v5,2020.2.10,MacIntel,60,61025ae37ef11b136ea224fe,,,,,,,,,1784,65.20703125,-80.94921875,1,0,0,response3disk,,4,-13.62109375,9.30859375,1,0,0,rectangle,-13.62109375,9.30859375,1,0,0,-13.62109375,9.30859375,1,0,0,0,76,76,151,1,,,,,,,,
,,,,,,,,,,,,,FF,,,,,,,,1.2208,,,,,,,,,,,,,,,,,,,,,,60ff2d35b20f6855da62ae75,610378f51d0d557a19d1c3f1,2021-07-29_23h01.06.046,Simcolourproject_2stim_asymm_v5,2020.2.10,MacIntel,60,61025ae37ef11b136ea224fe,,,,,,,,,419,89.19921875,39.8359375,1,0,0,response1disk,,6,7.46875,11.24609375,1,0,0,rectangle,7.46875,11.24609375,1,0,0,7.46875,11.24609375,1,0,0,0,77,77,36,1,,,,,,,,
,,,,,,,,,,,,,FF,,,,,,,,1.3035,,,,,,,,,,,,,,,,,,,,,,60ff2d35b20f6855da62ae75,610378f51d0d557a19d1c3f1,2021-07-29_23h01.06.046,Simcolourproject_2stim_asymm_v5,2020.2.10,MacIntel,60,61025ae37ef11b136ea224fe,,,,,,,,,764,62.58203125,68.8671875,1,0,0,response1disk,,7,6.23828125,-2.921875,1,0,0,rectangle,6.23828125,-2.921875,1,0,0,6.23828125,-2.921875,1,0,0,0,78,78,90,1,,,,,,,,
,,,,,,,,,,,,,FF,,,,,,,,1.7559,,,,,,,,,,,,,,,,,,,,,,60ff2d35b20f6855da62ae75,610378f51d0d557a19d1c3f1,2021-07-29_23h01.06.046,Simcolourproject_2stim_asymm_v5,2020.2.10,MacIntel,60,61025ae37ef11b136ea224fe,,,,,,,,,3035,95.2265625,75.9765625,1,0,0,response1disk,,6,17.8046875,12.96484375,1,0,0,rectangle,17.8046875,12.96484375,1,0,0,17.8046875,12.96484375,1,0,0,0,79,79,118,1,,,,,,,,
,,,,,,,,,,,,,FF,,,,,,,,2.1237,,,,,,,,,,,,,,,,,,,,,,60ff2d35b20f6855da62ae75,610378f51d0d557a19d1c3f1,2021-07-29_23h01.06.046,Simcolourproject_2stim_asymm_v5,2020.2.10,MacIntel,60,61025ae37ef11b136ea224fe,,,,,,,,,2182,69.4140625,-59.703125,1,0,0,response3disk,,5,16.07421875,-0.68359375,1,0,0,rectangle,16.07421875,-0.68359375,1,0,0,16.07421875,-0.68359375,1,0,0,0,80,80,119,1,,,,,,,,
,,,,,,,,,,,,,FF,,,,,,,,1.957,,,,,,,,,,,,,,,,,,,,,,60ff2d35b20f6855da62ae75,610378f51d0d557a19d1c3f1,2021-07-29_23h01.06.046,Simcolourproject_2stim_asymm_v5,2020.2.10,MacIntel,60,61025ae37ef11b136ea224fe,,,,,,,,,192,47.29296875,-75.71484375,1,0,0,response3disk,,4,14.08984375,-6.6640625,1,0,0,rectangle,89.51953125,-49.53515625,1,0,0,4.51953125,-12.125,1,0,0,0,81,81,69,1,,response3disk_3,TRUE,5,6,"[70,131,171,282,242,205,206,46,296,82,125,27,263,160,208,196,270,212,39,186]",1.5898,rectangle
,,,,,,,,,,,,,FF,,,,,,,,1.154,,,,,,,,,,,,,,,,,,,,,,60ff2d35b20f6855da62ae75,610378f51d0d557a19d1c3f1,2021-07-29_23h01.06.046,Simcolourproject_2stim_asymm_v5,2020.2.10,MacIntel,60,61025ae37ef11b136ea224fe,,,,,,,,,372,-46.921875,-54.1328125,1,0,0,response5disk,,3,-15.7421875,0.41015625,1,0,0,rectangle,-15.7421875,0.41015625,1,0,0,-15.7421875,0.41015625,1,0,0,0,82,82,120,1,,,,,,,,
,,,,,,,,,,,,,FF,,,,,,,,0.9357,,,,,,,,,,,,,,,,,,,,,,60ff2d35b20f6855da62ae75,610378f51d0d557a19d1c3f1,2021-07-29_23h01.06.046,Simcolourproject_2stim_asymm_v5,2020.2.10,MacIntel,60,61025ae37ef11b136ea224fe,,,,,,,,,3143,-77.8984375,-47.71484375,1,0,0,response5disk,,2,-23.66015625,-14.796875,1,0,0,rectangle,-23.66015625,-14.796875,1,0,0,-23.66015625,-14.796875,1,0,0,0,83,83,38,1,,,,,,,,
,,,,,,,,,,,,,FF,,,,,,,,1.0866,,,,,,,,,,,,,,,,,,,,,,60ff2d35b20f6855da62ae75,610378f51d0d557a19d1c3f1,2021-07-29_23h01.06.046,Simcolourproject_2stim_asymm_v5,2020.2.10,MacIntel,60,61025ae37ef11b136ea224fe,,,,,,,,,3824,-68.05859375,-44.9296875,1,0,0,response5disk,,2,0.63671875,16.84765625,1,0,0,rectangle,0.63671875,16.84765625,1,0,0,0.63671875,16.84765625,1,0,0,0,84,84,139,1,,,,,,,,
,,,,,,,,,,,,,FF,,,,,,,,1.4562,,,,,,,,,,,,,,,,,,,,,,60ff2d35b20f6855da62ae75,610378f51d0d557a19d1c3f1,2021-07-29_23h01.06.046,Simcolourproject_2stim_asymm_v5,2020.2.10,MacIntel,60,61025ae37ef11b136ea224fe,,,,,,,,,1807,77.56640625,-92.796875,1,0,0,response3disk,,4,13.8515625,-0.8671875,1,0,0,rectangle,13.8515625,-0.8671875,1,0,0,13.8515625,-0.8671875,1,0,0,0,85,85,67,1,,,,,,,,
,,,,,,,,,,,,,FF,,,,,,,,1.2712,,,,,,,,,,,,,,,,,,,,,,60ff2d35b20f6855da62ae75,610378f51d0d557a19d1c3f1,2021-07-29_23h01.06.046,Simcolourproject_2stim_asymm_v5,2020.2.10,MacIntel,60,61025ae37ef11b136ea224fe,,,,,,,,,534,54.82421875,78.65625,1,0,0,response1disk,,7,11.3984375,-4.66796875,1,0,0,rectangle,11.3984375,-4.66796875,1,0,0,11.3984375,-4.66796875,1,0,0,0,86,86,25,1,,,,,,,,
,,,,,,,,,,,,,FF,,,,,,,,3.5283,,,,,,,,,,,,,,,,,,,,,,60ff2d35b20f6855da62ae75,610378f51d0d557a19d1c3f1,2021-07-29_23h01.06.046,Simcolourproject_2stim_asymm_v5,2020.2.10,MacIntel,60,61025ae37ef11b136ea224fe,,,,,,,,,1285,98.0859375,-56.9375,1,0,0,response3disk,,5,-4.5,-14.15625,1,0,0,rectangle,-4.5,-14.15625,1,0,0,-4.5,-14.15625,1,0,0,0,87,87,43,1,,,,,,,,
,,,,,,,,,,,,,FF,,,,,,,,2.0397,,,,,,,,,,,,,,,,,,,,,,60ff2d35b20f6855da62ae75,610378f51d0d557a19d1c3f1,2021-07-29_23h01.06.046,Simcolourproject_2stim_asymm_v5,2020.2.10,MacIntel,60,61025ae37ef11b136ea224fe,,,,,,,,,1566,-26.953125,-81.00390625,1,0,0,response5disk,,3,-12.26953125,-0.56640625,1,0,0,rectangle,-12.26953125,-0.56640625,1,0,0,-12.26953125,-0.56640625,1,0,0,0,88,88,9,1,,,,,,,,
,,,,,,,,,,,,,FF,,,,,,,,2.4574,,,,,,,,,,,,,,,,,,,,,,60ff2d35b20f6855da62ae75,610378f51d0d557a19d1c3f1,2021-07-29_23h01.06.046,Simcolourproject_2stim_asymm_v5,2020.2.10,MacIntel,60,61025ae37ef11b136ea224fe,,,,,,,,,1086,72,-49.73828125,1,0,0,response3disk,,5,-19.7578125,-6.203125,1,0,0,rectangle,-19.7578125,-6.203125,1,0,0,-19.7578125,-6.203125,1,0,0,0,89,89,108,1,,,,,,,,
,,,,,,,,,,,,,FF,,,,,,,,1.5707,,,,,,,,,,,,,,,,,,,,,,60ff2d35b20f6855da62ae75,610378f51d0d557a19d1c3f1,2021-07-29_23h01.06.046,Simcolourproject_2stim_asymm_v5,2020.2.10,MacIntel,60,61025ae37ef11b136ea224fe,,,,,,,,,2397,49.01953125,-100.890625,1,0,0,response3disk,,4,1.14453125,-13.734375,1,0,0,rectangle,1.14453125,-13.734375,1,0,0,1.14453125,-13.734375,1,0,0,0,90,90,148,1,,,,,,,,
,,,,,,,,,,,,,FF,,,,,,,,1.571,,,,,,,,,,,,,,,,,,,,,,60ff2d35b20f6855da62ae75,610378f51d0d557a19d1c3f1,2021-07-29_23h01.06.046,Simcolourproject_2stim_asymm_v5,2020.2.10,MacIntel,60,61025ae37ef11b136ea224fe,,,,,,,,,714,28.95703125,-66.08984375,1,0,0,response3disk,,4,0.046875,-10.328125,1,0,0,rectangle,0.046875,-10.328125,1,0,0,0.046875,-10.328125,1,0,0,0,91,91,70,1,,,,,,,,
,,,,,,,,,,,,,FF,,,,,,,,1.7891,,,,,,,,,,,,,,,,,,,,,,60ff2d35b20f6855da62ae75,610378f51d0d557a19d1c3f1,2021-07-29_23h01.06.046,Simcolourproject_2stim_asymm_v5,2020.2.10,MacIntel,60,61025ae37ef11b136ea224fe,,,,,,,,,786,43.85546875,-65.5859375,1,0,0,response3disk,,4,16.40625,-14.9765625,1,0,0,rectangle,16.40625,-14.9765625,1,0,0,16.40625,-14.9765625,1,0,0,0,92,92,147,1,,,,,,,,
,,,,,,,,,,,,,FF,,,,,,,,1.2875,,,,,,,,,,,,,,,,,,,,,,60ff2d35b20f6855da62ae75,610378f51d0d557a19d1c3f1,2021-07-29_23h01.06.046,Simcolourproject_2stim_asymm_v5,2020.2.10,MacIntel,60,61025ae37ef11b136ea224fe,,,,,,,,,1727,100.40625,44.1484375,1,0,0,response1disk,,6,3.94140625,0.07421875,1,0,0,rectangle,3.94140625,0.07421875,1,0,0,3.94140625,0.07421875,1,0,0,0,93,93,127,1,,,,,,,,
,,,,,,,,,,,,,FF,,,,,,,,1.7562,,,,,,,,,,,,,,,,,,,,,,60ff2d35b20f6855da62ae75,610378f51d0d557a19d1c3f1,2021-07-29_23h01.06.046,Simcolourproject_2stim_asymm_v5,2020.2.10,MacIntel,60,61025ae37ef11b136ea224fe,,,,,,,,,3976,-45.48828125,-75.2265625,1,0,0,response5disk,,3,-18.3671875,-5.21875,1,0,0,rectangle,-18.3671875,-5.21875,1,0,0,-18.3671875,-5.21875,1,0,0,0,94,94,91,1,,,,,,,,
,,,,,,,,,,,,,FF,,,,,,,,2.1066,,,,,,,,,,,,,,,,,,,,,,60ff2d35b20f6855da62ae75,610378f51d0d557a19d1c3f1,2021-07-29_23h01.06.046,Simcolourproject_2stim_asymm_v5,2020.2.10,MacIntel,60,61025ae37ef11b136ea224fe,,,,,,,,,3311,68.94921875,-62.56640625,1,0,0,response3disk,,5,7.9765625,-13.42578125,1,0,0,rectangle,7.9765625,-13.42578125,1,0,0,7.9765625,-13.42578125,1,0,0,0,95,95,143,1,,,,,,,,
,,,,,,,,,,,,,FF,,,,,,,,1.0708,,,,,,,,,,,,,,,,,,,,,,60ff2d35b20f6855da62ae75,610378f51d0d557a19d1c3f1,2021-07-29_23h01.06.046,Simcolourproject_2stim_asymm_v5,2020.2.10,MacIntel,60,61025ae37ef11b136ea224fe,,,,,,,,,2788,-44.34765625,-52.08203125,1,0,0,response5disk,,3,-1.015625,-6.93359375,1,0,0,rectangle,-1.015625,-6.93359375,1,0,0,-1.015625,-6.93359375,1,0,0,0,96,96,31,1,,,,,,,,
,,,,,,,,,,,,,FF,,,,,,,,2.7927,,,,,,,,,,,,,,,,,,,,,,60ff2d35b20f6855da62ae75,610378f51d0d557a19d1c3f1,2021-07-29_23h01.06.046,Simcolourproject_2stim_asymm_v5,2020.2.10,MacIntel,60,61025ae37ef11b136ea224fe,,,,,,,,,2360,-92.77734375,-53.91015625,1,0,0,response5disk,,2,21.26953125,5.1171875,1,0,0,rectangle,21.26953125,5.1171875,1,0,0,21.26953125,5.1171875,1,0,0,0,97,97,131,1,,,,,,,,
,,,,,,,,,,,,,FF,,,,,,,,1.9392,,,,,,,,,,,,,,,,,,,,,,60ff2d35b20f6855da62ae75,610378f51d0d557a19d1c3f1,2021-07-29_23h01.06.046,Simcolourproject_2stim_asymm_v5,2020.2.10,MacIntel,60,61025ae37ef11b136ea224fe,,,,,,,,,907,-74.41015625,-22.46875,1,0,0,response5disk,,2,-8.8203125,6.8515625,1,0,0,rectangle,-8.8203125,6.8515625,1,0,0,-8.8203125,6.8515625,1,0,0,0,98,98,114,1,,,,,,,,
,,,,,,,,,,,,,FF,,,,,,,,2.1226,,,,,,,,,,,,,,,,,,,,,,60ff2d35b20f6855da62ae75,610378f51d0d557a19d1c3f1,2021-07-29_23h01.06.046,Simcolourproject_2stim_asymm_v5,2020.2.10,MacIntel,60,61025ae37ef11b136ea224fe,,,,,,,,,3220,75.8671875,-59.5859375,1,0,0,response3disk,,5,-7.25,-7.2890625,1,0,0,rectangle,-7.25,-7.2890625,1,0,0,-7.25,-7.2890625,1,0,0,0,99,99,3,1,,,,,,,,
,,,,,,,,,,,,,FF,,,,,,,,1.5553,,,,,,,,,,,,,,,,,,,,,,60ff2d35b20f6855da62ae75,610378f51d0d557a19d1c3f1,2021-07-29_23h01.06.046,Simcolourproject_2stim_asymm_v5,2020.2.10,MacIntel,60,61025ae37ef11b136ea224fe,,,,,,,,,342,-23.0234375,-80.140625,1,0,0,response5disk,,3,-7.328125,-6.59375,1,0,0,rectangle,-7.328125,-6.59375,1,0,0,-7.328125,-6.59375,1,0,0,0,100,100,26,1,,,,,,,,
,,,,,,,,,,,,,FF,,,,,,,,1.0534,,,,,,,,,,,,,,,,,,,,,,60ff2d35b20f6855da62ae75,610378f51d0d557a19d1c3f1,2021-07-29_23h01.06.046,Simcolourproject_2stim_asymm_v5,2020.2.10,MacIntel,60,61025ae37ef11b136ea224fe,,,,,,,,,2877,74.7578125,56.23828125,1,0,0,response1disk,,6,11.87890625,-8.625,1,0,0,rectangle,11.87890625,-8.625,1,0,0,11.87890625,-8.625,1,0,0,0,101,101,144,1,,,,,,,,
,,,,,,,,,,,,,FF,,,,,,,,2.5086,,,,,,,,,,,,,,,,,,,,,,60ff2d35b20f6855da62ae75,610378f51d0d557a19d1c3f1,2021-07-29_23h01.06.046,Simcolourproject_2stim_asymm_v5,2020.2.10,MacIntel,60,61025ae37ef11b136ea224fe,,,,,,,,,510,84.25390625,29.76953125,1,0,0,response1disk,,6,-7.02734375,-15.4375,1,0,0,rectangle,-7.02734375,-15.4375,1,0,0,-7.02734375,-15.4375,1,0,0,0,102,102,58,1,,,,,,,,
,,,,,,,,,,,,,FF,,,,,,,,1.8226,,,,,,,,,,,,,,,,,,,,,,60ff2d35b20f6855da62ae75,610378f51d0d557a19d1c3f1,2021-07-29_23h01.06.046,Simcolourproject_2stim_asymm_v5,2020.2.10,MacIntel,60,61025ae37ef11b136ea224fe,,,,,,,,,847,67.44921875,-68.28125,1,0,0,response3disk,,4,26.9140625,0.94140625,1,0,0,rectangle,26.9140625,0.94140625,1,0,0,26.9140625,0.94140625,1,0,0,0,103,103,111,1,,,,,,,,
,,,,,,,,,,,,,FF,,,,,,,,1.5884,,,,,,,,,,,,,,,,,,,,,,60ff2d35b20f6855da62ae75,610378f51d0d557a19d1c3f1,2021-07-29_23h01.06.046,Simcolourproject_2stim_asymm_v5,2020.2.10,MacIntel,60,61025ae37ef11b136ea224fe,,,,,,,,,3373,91.41796875,29.15234375,1,0,0,response1disk,,6,11.87109375,-10.0078125,1,0,0,rectangle,11.87109375,-10.0078125,1,0,0,11.87109375,-10.0078125,1,0,0,0,104,104,123,1,,,,,,,,
,,,,,,,,,,,,,FF,,,,,,,,4.3819,,,,,,,,,,,,,,,,,,,,,,60ff2d35b20f6855da62ae75,610378f51d0d557a19d1c3f1,2021-07-29_23h01.06.046,Simcolourproject_2stim_asymm_v5,2020.2.10,MacIntel,60,61025ae37ef11b136ea224fe,,,,,,,,,775,50.95703125,-70.984375,1,0,0,response3disk,,4,-0.1953125,-0.68359375,1,0,0,rectangle,-0.1953125,-0.68359375,1,0,0,-0.1953125,-0.68359375,1,0,0,0,105,105,28,1,,,,,,,,
,,,,,,,,,,,,,FF,,,,,,,,3.5798,,,,,,,,,,,,,,,,,,,,,,60ff2d35b20f6855da62ae75,610378f51d0d557a19d1c3f1,2021-07-29_23h01.06.046,Simcolourproject_2stim_asymm_v5,2020.2.10,MacIntel,60,61025ae37ef11b136ea224fe,,,,,,,,,3750,-52.5078125,-101.1523438,1,0,0,response5disk,,3,25.578125,-3.34765625,1,0,0,rectangle,25.578125,-3.34765625,1,0,0,25.578125,-3.34765625,1,0,0,0,106,106,68,1,,,,,,,,
,,,,,,,,,,,,,FF,,,,,,,,1.5536,,,,,,,,,,,,,,,,,,,,,,60ff2d35b20f6855da62ae75,610378f51d0d557a19d1c3f1,2021-07-29_23h01.06.046,Simcolourproject_2stim_asymm_v5,2020.2.10,MacIntel,60,61025ae37ef11b136ea224fe,,,,,,,,,3018,38.41796875,-70.0546875,1,0,0,response3disk,,4,12.9765625,-16.22265625,1,0,0,rectangle,12.9765625,-16.22265625,1,0,0,12.9765625,-16.22265625,1,0,0,0,107,107,56,1,,,,,,,,
,,,,,,,,,,,,,FF,,,,,,,,0.8857,,,,,,,,,,,,,,,,,,,,,,60ff2d35b20f6855da62ae75,610378f51d0d557a19d1c3f1,2021-07-29_23h01.06.046,Simcolourproject_2stim_asymm_v5,2020.2.10,MacIntel,60,61025ae37ef11b136ea224fe,,,,,,,,,971,-82.640625,18.1171875,1,0,0,response7disk,,1,0.546875,-8.41796875,1,0,0,rectangle,0.546875,-8.41796875,1,0,0,0.546875,-8.41796875,1,0,0,0,108,108,24,1,,,,,,,,
,,,,,,,,,,,,,FF,,,,,,,,2.1554,,,,,,,,,,,,,,,,,,,,,,60ff2d35b20f6855da62ae75,610378f51d0d557a19d1c3f1,2021-07-29_23h01.06.046,Simcolourproject_2stim_asymm_v5,2020.2.10,MacIntel,60,61025ae37ef11b136ea224fe,,,,,,,,,1692,-36.8359375,-114.9296875,1,0,0,response5disk,,3,-13.7265625,-9.30859375,1,0,0,rectangle,-13.7265625,-9.30859375,1,0,0,-13.7265625,-9.30859375,1,0,0,0,109,109,11,1,,,,,,,,
,,,,,,,,,,,,,FF,,,,,,,,0.9366,,,,,,,,,,,,,,,,,,,,,,60ff2d35b20f6855da62ae75,610378f51d0d557a19d1c3f1,2021-07-29_23h01.06.046,Simcolourproject_2stim_asymm_v5,2020.2.10,MacIntel,60,61025ae37ef11b136ea224fe,,,,,,,,,3911,-76.578125,-32.296875,1,0,0,response5disk,,2,-25.82421875,1.73046875,1,0,0,rectangle,-25.82421875,1.73046875,1,0,0,-25.82421875,1.73046875,1,0,0,0,110,110,142,1,,,,,,,,
,,,,,,,,,,,,,FF,,,,,,,,1.0695,,,,,,,,,,,,,,,,,,,,,,60ff2d35b20f6855da62ae75,610378f51d0d557a19d1c3f1,2021-07-29_23h01.06.046,Simcolourproject_2stim_asymm_v5,2020.2.10,MacIntel,60,61025ae37ef11b136ea224fe,,,,,,,,,189,-112.7578125,-53.6875,1,0,0,response5disk,,2,-21.55859375,-1.26171875,1,0,0,rectangle,-21.55859375,-1.26171875,1,0,0,-21.55859375,-1.26171875,1,0,0,0,111,111,149,1,,,,,,,,
,,,,,,,,,,,,,FF,,,,,,,,1.0709,,,,,,,,,,,,,,,,,,,,,,60ff2d35b20f6855da62ae75,610378f51d0d557a19d1c3f1,2021-07-29_23h01.06.046,Simcolourproject_2stim_asymm_v5,2020.2.10,MacIntel,60,61025ae37ef11b136ea224fe,,,,,,,,,2659,78.7890625,-59.6796875,1,0,0,response3disk,,5,3,-7.2890625,1,0,0,rectangle,3,-7.2890625,1,0,0,3,-7.2890625,1,0,0,0,112,112,12,1,,,,,,,,
,,,,,,,,,,,,,FF,,,,,,,,1.2887,,,,,,,,,,,,,,,,,,,,,,60ff2d35b20f6855da62ae75,610378f51d0d557a19d1c3f1,2021-07-29_23h01.06.046,Simcolourproject_2stim_asymm_v5,2020.2.10,MacIntel,60,61025ae37ef11b136ea224fe,,,,,,,,,3890,119.0820313,-39.80078125,1,0,0,response3disk,,5,-35.6484375,1.80078125,1,0,0,rectangle,-35.6484375,1.80078125,1,0,0,-35.6484375,1.80078125,1,0,0,0,113,113,122,1,,,,,,,,
,,,,,,,,,,,,,FF,,,,,,,,0.8697,,,,,,,,,,,,,,,,,,,,,,60ff2d35b20f6855da62ae75,610378f51d0d557a19d1c3f1,2021-07-29_23h01.06.046,Simcolourproject_2stim_asymm_v5,2020.2.10,MacIntel,60,61025ae37ef11b136ea224fe,,,,,,,,,261,-60.40625,31.90234375,1,0,0,response7disk,,1,-12.86328125,15.02734375,1,0,0,rectangle,-12.86328125,15.02734375,1,0,0,-12.86328125,15.02734375,1,0,0,0,114,114,136,1,,,,,,,,
,,,,,,,,,,,,,FF,,,,,,,,1.0546,,,,,,,,,,,,,,,,,,,,,,60ff2d35b20f6855da62ae75,610378f51d0d557a19d1c3f1,2021-07-29_23h01.06.046,Simcolourproject_2stim_asymm_v5,2020.2.10,MacIntel,60,61025ae37ef11b136ea224fe,,,,,,,,,296,-32.4375,-65.70703125,1,0,0,response5disk,,3,5.28125,-6.34765625,1,0,0,rectangle,5.28125,-6.34765625,1,0,0,5.28125,-6.34765625,1,0,0,0,115,115,87,1,,,,,,,,
,,,,,,,,,,,,,FF,,,,,,,,1.0532,,,,,,,,,,,,,,,,,,,,,,60ff2d35b20f6855da62ae75,610378f51d0d557a19d1c3f1,2021-07-29_23h01.06.046,Simcolourproject_2stim_asymm_v5,2020.2.10,MacIntel,60,61025ae37ef11b136ea224fe,,,,,,,,,2021,94.9609375,-30.40625,1,0,0,response3disk,,5,-14.79296875,-3.41015625,1,0,0,rectangle,-14.79296875,-3.41015625,1,0,0,-14.79296875,-3.41015625,1,0,0,0,116,116,146,1,,,,,,,,
,,,,,,,,,,,,,FF,,,,,,,,1.4539,,,,,,,,,,,,,,,,,,,,,,60ff2d35b20f6855da62ae75,610378f51d0d557a19d1c3f1,2021-07-29_23h01.06.046,Simcolourproject_2stim_asymm_v5,2020.2.10,MacIntel,60,61025ae37ef11b136ea224fe,,,,,,,,,4080,91.03125,-48.23828125,1,0,0,response3disk,,5,3.609375,14.80859375,1,0,0,rectangle,3.609375,14.80859375,1,0,0,3.609375,14.80859375,1,0,0,0,117,117,152,1,,,,,,,,
,,,,,,,,,,,,,FF,,,,,,,,1.0208,,,,,,,,,,,,,,,,,,,,,,60ff2d35b20f6855da62ae75,610378f51d0d557a19d1c3f1,2021-07-29_23h01.06.046,Simcolourproject_2stim_asymm_v5,2020.2.10,MacIntel,60,61025ae37ef11b136ea224fe,,,,,,,,,96,-60.34375,25.7109375,1,0,0,response7disk,,1,-28.1484375,13.29296875,1,0,0,rectangle,-28.1484375,13.29296875,1,0,0,-28.1484375,13.29296875,1,0,0,0,118,118,102,1,,,,,,,,
,,,,,,,,,,,,,FF,,,,,,,,1.4549,,,,,,,,,,,,,,,,,,,,,,60ff2d35b20f6855da62ae75,610378f51d0d557a19d1c3f1,2021-07-29_23h01.06.046,Simcolourproject_2stim_asymm_v5,2020.2.10,MacIntel,60,61025ae37ef11b136ea224fe,,,,,,,,,1734,-68.1953125,-58.19921875,1,0,0,response5disk,,2,-9.796875,-7.4765625,1,0,0,rectangle,-9.796875,-7.4765625,1,0,0,-9.796875,-7.4765625,1,0,0,0,119,119,105,1,,,,,,,,
,,,,,,,,,,,,,FF,,,,,,,,1.5879,,,,,,,,,,,,,,,,,,,,,,60ff2d35b20f6855da62ae75,610378f51d0d557a19d1c3f1,2021-07-29_23h01.06.046,Simcolourproject_2stim_asymm_v5,2020.2.10,MacIntel,60,61025ae37ef11b136ea224fe,,,,,,,,,4139,82.31640625,-29.1875,1,0,0,response3disk,,5,15.0390625,-2.921875,1,0,0,rectangle,15.0390625,-2.921875,1,0,0,15.0390625,-2.921875,1,0,0,0,120,120,29,1,,,,,,,,
,,,,,,,,,,,,,FF,,,,,,,,2.4911,,,,,,,,,,,,,,,,,,,,,,60ff2d35b20f6855da62ae75,610378f51d0d557a19d1c3f1,2021-07-29_23h01.06.046,Simcolourproject_2stim_asymm_v5,2020.2.10,MacIntel,60,61025ae37ef11b136ea224fe,,,,,,,,,1417,57.0546875,67.4140625,1,0,0,response1disk,,7,14.40625,3.19140625,1,0,0,rectangle,14.40625,3.19140625,1,0,0,14.40625,3.19140625,1,0,0,0,121,121,23,1,,,,,,,,
,,,,,,,,,,,,,FF,,,,,,,,1.0205,,,,,,,,,,,,,,,,,,,,,,60ff2d35b20f6855da62ae75,610378f51d0d557a19d1c3f1,2021-07-29_23h01.06.046,Simcolourproject_2stim_asymm_v5,2020.2.10,MacIntel,60,61025ae37ef11b136ea224fe,,,,,,,,,3059,-86.48828125,-55.16796875,1,0,0,response5disk,,2,-1.7421875,-6.015625,1,0,0,rectangle,-1.7421875,-6.015625,1,0,0,-1.7421875,-6.015625,1,0,0,0,122,122,18,1,,,,,,,,
,,,,,,,,,,,,,FF,,,,,,,,2.0908,,,,,,,,,,,,,,,,,,,,,,60ff2d35b20f6855da62ae75,610378f51d0d557a19d1c3f1,2021-07-29_23h01.06.046,Simcolourproject_2stim_asymm_v5,2020.2.10,MacIntel,60,61025ae37ef11b136ea224fe,,,,,,,,,1190,-39.5390625,-83.28125,1,0,0,response5disk,,3,-21.65625,-11.8828125,1,0,0,rectangle,-21.65625,-11.8828125,1,0,0,-21.65625,-11.8828125,1,0,0,0,123,123,115,1,,,,,,,,
,,,,,,,,,,,,,FF,,,,,,,,2.5749,,,,,,,,,,,,,,,,,,,,,,60ff2d35b20f6855da62ae75,610378f51d0d557a19d1c3f1,2021-07-29_23h01.06.046,Simcolourproject_2stim_asymm_v5,2020.2.10,MacIntel,60,61025ae37ef11b136ea224fe,,,,,,,,,3345,42.3125,-100.21875,1,0,0,response3disk,,4,-1.51953125,-5.140625,1,0,0,rectangle,93.1484375,37.89453125,1,0,0,12.55078125,1.59375,1,0,0,0,124,124,35,1,,response1disk_3,TRUE,6,6,"[70,131,171,282,242,205,206,46,296,82,125,27,263,160,208,196,270,212,39,186]",1.6217,rectangle
,,,,,,,,,,,,,FF,,,,,,,,5.6177,,,,,,,,,,,,,,,,,,,,,,60ff2d35b20f6855da62ae75,610378f51d0d557a19d1c3f1,2021-07-29_23h01.06.046,Simcolourproject_2stim_asymm_v5,2020.2.10,MacIntel,60,61025ae37ef11b136ea224fe,,,,,,,,,747,40.45703125,-57.5078125,1,0,0,response3disk,,4,14.34765625,-1.07421875,1,0,0,rectangle,14.34765625,-1.07421875,1,0,0,14.34765625,-1.07421875,1,0,0,0,125,125,156,1,,,,,,,,
,,,,,,,,,,,,,FF,,,,,,,,2.39,,,,,,,,,,,,,,,,,,,,,,60ff2d35b20f6855da62ae75,610378f51d0d557a19d1c3f1,2021-07-29_23h01.06.046,Simcolourproject_2stim_asymm_v5,2020.2.10,MacIntel,60,61025ae37ef11b136ea224fe,,,,,,,,,910,34.921875,-86.1328125,1,0,0,response3disk,,4,13.01953125,-11.00390625,1,0,0,rectangle,13.01953125,-11.00390625,1,0,0,13.01953125,-11.00390625,1,0,0,0,126,126,19,1,,,,,,,,
,,,,,,,,,,,,,FF,,,,,,,,2.1241,,,,,,,,,,,,,,,,,,,,,,60ff2d35b20f6855da62ae75,610378f51d0d557a19d1c3f1,2021-07-29_23h01.06.046,Simcolourproject_2stim_asymm_v5,2020.2.10,MacIntel,60,61025ae37ef11b136ea224fe,,,,,,,,,1543,-42.8359375,-73.3359375,1,0,0,response5disk,,3,7.671875,9.65234375,1,0,0,rectangle,7.671875,9.65234375,1,0,0,7.671875,9.65234375,1,0,0,0,127,127,107,1,,,,,,,,
,,,,,,,,,,,,,FF,,,,,,,,1.4546,,,,,,,,,,,,,,,,,,,,,,60ff2d35b20f6855da62ae75,610378f51d0d557a19d1c3f1,2021-07-29_23h01.06.046,Simcolourproject_2stim_asymm_v5,2020.2.10,MacIntel,60,61025ae37ef11b136ea224fe,,,,,,,,,3986,50.49609375,-91.61328125,1,0,0,response3disk,,4,15.94921875,-11.19140625,1,0,0,rectangle,15.94921875,-11.19140625,1,0,0,15.94921875,-11.19140625,1,0,0,0,128,128,62,1,,,,,,,,
,,,,,,,,,,,,,FF,,,,,,,,2.2073,,,,,,,,,,,,,,,,,,,,,,60ff2d35b20f6855da62ae75,610378f51d0d557a19d1c3f1,2021-07-29_23h01.06.046,Simcolourproject_2stim_asymm_v5,2020.2.10,MacIntel,60,61025ae37ef11b136ea224fe,,,,,,,,,770,60.51953125,-85.39453125,1,0,0,response3disk,,4,-1.5078125,9.6796875,1,0,0,rectangle,-1.5078125,9.6796875,1,0,0,-1.5078125,9.6796875,1,0,0,0,129,129,100,1,,,,,,,,
,,,,,,,,,,,,,FF,,,,,,,,2.9266,,,,,,,,,,,,,,,,,,,,,,60ff2d35b20f6855da62ae75,610378f51d0d557a19d1c3f1,2021-07-29_23h01.06.046,Simcolourproject_2stim_asymm_v5,2020.2.10,MacIntel,60,61025ae37ef11b136ea224fe,,,,,,,,,3607,62,-57.40234375,1,0,0,response3disk,,5,-8.97265625,-2.89453125,1,0,0,rectangle,-47.7890625,87.3046875,1,0,0,3.859375,-1.22265625,1,0,0,0,130,130,157,1,,response7disk_3,TRUE,0,0,"[70,131,171,282,242,205,206,46,296,82,125,27,263,160,208,196,270,212,39,186]",2.0225,rectangle
,,,,,,,,,,,,,FF,,,,,,,,1.7557,,,,,,,,,,,,,,,,,,,,,,60ff2d35b20f6855da62ae75,610378f51d0d557a19d1c3f1,2021-07-29_23h01.06.046,Simcolourproject_2stim_asymm_v5,2020.2.10,MacIntel,60,61025ae37ef11b136ea224fe,,,,,,,,,3011,37.79296875,-104.4765625,1,0,0,response3disk,,4,7.48828125,-4.84765625,1,0,0,rectangle,7.48828125,-4.84765625,1,0,0,7.48828125,-4.84765625,1,0,0,0,131,131,80,1,,,,,,,,
,,,,,,,,,,,,,FF,,,,,,,,0.9036,,,,,,,,,,,,,,,,,,,,,,60ff2d35b20f6855da62ae75,610378f51d0d557a19d1c3f1,2021-07-29_23h01.06.046,Simcolourproject_2stim_asymm_v5,2020.2.10,MacIntel,60,61025ae37ef11b136ea224fe,,,,,,,,,1067,-66.28515625,-70.61328125,1,0,0,response5disk,,3,-19.09765625,-4.26171875,1,0,0,rectangle,-19.09765625,-4.26171875,1,0,0,-19.09765625,-4.26171875,1,0,0,0,132,132,14,1,,,,,,,,
,,,,,,,,,,,,,FF,,,,,,,,2.5758,,,,,,,,,,,,,,,,,,,,,,60ff2d35b20f6855da62ae75,610378f51d0d557a19d1c3f1,2021-07-29_23h01.06.046,Simcolourproject_2stim_asymm_v5,2020.2.10,MacIntel,60,61025ae37ef11b136ea224fe,,,,,,,,,1463,47.9140625,-104.15625,1,0,0,response3disk,,4,7.60546875,-13.18359375,1,0,0,rectangle,7.60546875,-13.18359375,1,0,0,7.60546875,-13.18359375,1,0,0,0,133,133,72,1,,,,,,,,
,,,,,,,,,,,,,FF,,,,,,,,1.6535,,,,,,,,,,,,,,,,,,,,,,60ff2d35b20f6855da62ae75,610378f51d0d557a19d1c3f1,2021-07-29_23h01.06.046,Simcolourproject_2stim_asymm_v5,2020.2.10,MacIntel,60,61025ae37ef11b136ea224fe,,,,,,,,,2880,-64.60546875,-97.02734375,1,0,0,response5disk,,3,-8.34375,-14.55078125,1,0,0,rectangle,-8.34375,-14.55078125,1,0,0,-8.34375,-14.55078125,1,0,0,0,134,134,155,1,,,,,,,,
,,,,,,,,,,,,,FF,,,,,,,,1.1543,,,,,,,,,,,,,,,,,,,,,,60ff2d35b20f6855da62ae75,610378f51d0d557a19d1c3f1,2021-07-29_23h01.06.046,Simcolourproject_2stim_asymm_v5,2020.2.10,MacIntel,60,61025ae37ef11b136ea224fe,,,,,,,,,263,-91.79296875,-43.41796875,1,0,0,response5disk,,2,16.59765625,6.4296875,1,0,0,rectangle,16.59765625,6.4296875,1,0,0,16.59765625,6.4296875,1,0,0,0,135,135,154,1,,,,,,,,
,,,,,,,,,,,,,FF,,,,,,,,0.853,,,,,,,,,,,,,,,,,,,,,,60ff2d35b20f6855da62ae75,610378f51d0d557a19d1c3f1,2021-07-29_23h01.06.046,Simcolourproject_2stim_asymm_v5,2020.2.10,MacIntel,60,61025ae37ef11b136ea224fe,,,,,,,,,3500,78.51953125,-39.9296875,1,0,0,response3disk,,5,12.6171875,6.51953125,1,0,0,rectangle,12.6171875,6.51953125,1,0,0,12.6171875,6.51953125,1,0,0,0,136,136,138,1,,,,,,,,
,,,,,,,,,,,,,FF,,,,,,,,1.7888,,,,,,,,,,,,,,,,,,,,,,60ff2d35b20f6855da62ae75,610378f51d0d557a19d1c3f1,2021-07-29_23h01.06.046,Simcolourproject_2stim_asymm_v5,2020.2.10,MacIntel,60,61025ae37ef11b136ea224fe,,,,,,,,,3815,-77.47265625,-59.9921875,1,0,0,response5disk,,2,-18.02734375,-6.2265625,1,0,0,rectangle,-18.02734375,-6.2265625,1,0,0,-18.02734375,-6.2265625,1,0,0,0,137,137,8,1,,,,,,,,
,,,,,,,,,,,,,FF,,,,,,,,2.073,,,,,,,,,,,,,,,,,,,,,,60ff2d35b20f6855da62ae75,610378f51d0d557a19d1c3f1,2021-07-29_23h01.06.046,Simcolourproject_2stim_asymm_v5,2020.2.10,MacIntel,60,61025ae37ef11b136ea224fe,,,,,,,,,4058,-95.3828125,-39.6484375,1,0,0,response5disk,,2,4.140625,-12.578125,1,0,0,rectangle,4.140625,-12.578125,1,0,0,4.140625,-12.578125,1,0,0,0,138,138,59,1,,,,,,,,
,,,,,,,,,,,,,FF,,,,,,,,2.1564,,,,,,,,,,,,,,,,,,,,,,60ff2d35b20f6855da62ae75,610378f51d0d557a19d1c3f1,2021-07-29_23h01.06.046,Simcolourproject_2stim_asymm_v5,2020.2.10,MacIntel,60,61025ae37ef11b136ea224fe,,,,,,,,,3125,79.80078125,28.375,1,0,0,response1disk,,6,4.8046875,6.13671875,1,0,0,rectangle,4.8046875,6.13671875,1,0,0,4.8046875,6.13671875,1,0,0,0,139,139,20,1,,,,,,,,
,,,,,,,,,,,,,FF,,,,,,,,2.826,,,,,,,,,,,,,,,,,,,,,,60ff2d35b20f6855da62ae75,610378f51d0d557a19d1c3f1,2021-07-29_23h01.06.046,Simcolourproject_2stim_asymm_v5,2020.2.10,MacIntel,60,61025ae37ef11b136ea224fe,,,,,,,,,677,40.03125,-70.87109375,1,0,0,response3disk,,4,-11.890625,-10.953125,1,0,0,rectangle,-11.890625,-10.953125,1,0,0,-11.890625,-10.953125,1,0,0,0,140,140,74,1,,,,,,,,
,,,,,,,,,,,,,FF,,,,,,,,1.1045,,,,,,,,,,,,,,,,,,,,,,60ff2d35b20f6855da62ae75,610378f51d0d557a19d1c3f1,2021-07-29_23h01.06.046,Simcolourproject_2stim_asymm_v5,2020.2.10,MacIntel,60,61025ae37ef11b136ea224fe,,,,,,,,,3756,-36.89453125,-92.1328125,1,0,0,response5disk,,3,9.85546875,12.203125,1,0,0,rectangle,9.85546875,12.203125,1,0,0,9.85546875,12.203125,1,0,0,0,141,141,32,1,,,,,,,,
,,,,,,,,,,,,,FF,,,,,,,,1.2888,,,,,,,,,,,,,,,,,,,,,,60ff2d35b20f6855da62ae75,610378f51d0d557a19d1c3f1,2021-07-29_23h01.06.046,Simcolourproject_2stim_asymm_v5,2020.2.10,MacIntel,60,61025ae37ef11b136ea224fe,,,,,,,,,349,-63.80859375,-29.3984375,1,0,0,response5disk,,2,-16.5546875,9.06640625,1,0,0,rectangle,-16.5546875,9.06640625,1,0,0,-16.5546875,9.06640625,1,0,0,0,142,142,106,1,,,,,,,,
,,,,,,,,,,,,,FF,,,,,,,,1.3878,,,,,,,,,,,,,,,,,,,,,,60ff2d35b20f6855da62ae75,610378f51d0d557a19d1c3f1,2021-07-29_23h01.06.046,Simcolourproject_2stim_asymm_v5,2020.2.10,MacIntel,60,61025ae37ef11b136ea224fe,,,,,,,,,126,27.31640625,-85.53515625,1,0,0,response3disk,,4,4.65234375,1.60546875,1,0,0,rectangle,4.65234375,1.60546875,1,0,0,4.65234375,1.60546875,1,0,0,0,143,143,134,1,,,,,,,,
,,,,,,,,,,,,,FF,,,,,,,,1.6717,,,,,,,,,,,,,,,,,,,,,,60ff2d35b20f6855da62ae75,610378f51d0d557a19d1c3f1,2021-07-29_23h01.06.046,Simcolourproject_2stim_asymm_v5,2020.2.10,MacIntel,60,61025ae37ef11b136ea224fe,,,,,,,,,1484,67.71484375,-35.09765625,1,0,0,response3disk,,5,-1.16015625,-6.63671875,1,0,0,rectangle,-1.16015625,-6.63671875,1,0,0,-1.16015625,-6.63671875,1,0,0,0,144,144,92,1,,,,,,,,
,,,,,,,,,,,,,FF,,,,,,,,2.5251,,,,,,,,,,,,,,,,,,,,,,60ff2d35b20f6855da62ae75,610378f51d0d557a19d1c3f1,2021-07-29_23h01.06.046,Simcolourproject_2stim_asymm_v5,2020.2.10,MacIntel,60,61025ae37ef11b136ea224fe,,,,,,,,,1204,-40.265625,-66.3125,1,0,0,response5disk,,3,-15.72265625,-8.078125,1,0,0,rectangle,-15.72265625,-8.078125,1,0,0,-15.72265625,-8.078125,1,0,0,0,145,145,83,1,,,,,,,,
,,,,,,,,,,,,,FF,,,,,,,,1.3202,,,,,,,,,,,,,,,,,,,,,,60ff2d35b20f6855da62ae75,610378f51d0d557a19d1c3f1,2021-07-29_23h01.06.046,Simcolourproject_2stim_asymm_v5,2020.2.10,MacIntel,60,61025ae37ef11b136ea224fe,,,,,,,,,2479,100.3359375,22.0234375,1,0,0,response1disk,,6,-1.21875,-9.25390625,1,0,0,rectangle,-1.21875,-9.25390625,1,0,0,-1.21875,-9.25390625,1,0,0,0,146,146,63,1,,,,,,,,
,,,,,,,,,,,,,FF,,,,,,,,1.7386,,,,,,,,,,,,,,,,,,,,,,60ff2d35b20f6855da62ae75,610378f51d0d557a19d1c3f1,2021-07-29_23h01.06.046,Simcolourproject_2stim_asymm_v5,2020.2.10,MacIntel,60,61025ae37ef11b136ea224fe,,,,,,,,,1257,44.375,-81.328125,1,0,0,response3disk,,4,14.484375,-1.39453125,1,0,0,rectangle,14.484375,-1.39453125,1,0,0,14.484375,-1.39453125,1,0,0,0,147,147,33,1,,,,,,,,
,,,,,,,,,,,,,FF,,,,,,,,0.9368,,,,,,,,,,,,,,,,,,,,,,60ff2d35b20f6855da62ae75,610378f51d0d557a19d1c3f1,2021-07-29_23h01.06.046,Simcolourproject_2stim_asymm_v5,2020.2.10,MacIntel,60,61025ae37ef11b136ea224fe,,,,,,,,,1819,-71.68359375,26.28515625,1,0,0,response7disk,,1,-9.65234375,-0.36328125,1,0,0,rectangle,-9.65234375,-0.36328125,1,0,0,-9.65234375,-0.36328125,1,0,0,0,148,148,101,1,,,,,,,,
,,,,,,,,,,,,,FF,,,,,,,,1.7559,,,,,,,,,,,,,,,,,,,,,,60ff2d35b20f6855da62ae75,610378f51d0d557a19d1c3f1,2021-07-29_23h01.06.046,Simcolourproject_2stim_asymm_v5,2020.2.10,MacIntel,60,61025ae37ef11b136ea224fe,,,,,,,,,3718,-57.04296875,-76.9140625,1,0,0,response5disk,,3,-4.9296875,7.66015625,1,0,0,rectangle,-4.9296875,7.66015625,1,0,0,-4.9296875,7.66015625,1,0,0,0,149,149,137,1,,,,,,,,
,,,,,,,,,,,,,FF,,,,,,,,0.9031,,,,,,,,,,,,,,,,,,,,,,60ff2d35b20f6855da62ae75,610378f51d0d557a19d1c3f1,2021-07-29_23h01.06.046,Simcolourproject_2stim_asymm_v5,2020.2.10,MacIntel,60,61025ae37ef11b136ea224fe,,,,,,,,,852,89.83203125,-46.12109375,1,0,0,response3disk,,5,7.4453125,-11.6875,1,0,0,rectangle,7.4453125,-11.6875,1,0,0,7.4453125,-11.6875,1,0,0,0,150,150,78,1,,,,,,,,
,,,,,,,,,,,,,FF,,,,,,,,2.1563,,,,,,,,,,,,,,,,,,,,,,60ff2d35b20f6855da62ae75,610378f51d0d557a19d1c3f1,2021-07-29_23h01.06.046,Simcolourproject_2stim_asymm_v5,2020.2.10,MacIntel,60,61025ae37ef11b136ea224fe,,,,,,,,,4297,82.09765625,-62.96484375,1,0,0,response3disk,,5,16.11328125,-10.32421875,1,0,0,rectangle,16.11328125,-10.32421875,1,0,0,16.11328125,-10.32421875,1,0,0,0,151,151,150,1,,,,,,,,
,,,,,,,,,,,,,FF,,,,,,,,0.7686,,,,,,,,,,,,,,,,,,,,,,60ff2d35b20f6855da62ae75,610378f51d0d557a19d1c3f1,2021-07-29_23h01.06.046,Simcolourproject_2stim_asymm_v5,2020.2.10,MacIntel,60,61025ae37ef11b136ea224fe,,,,,,,,,1899,-64.1015625,-37.89453125,1,0,0,response5disk,,2,-16.703125,-9.71875,1,0,0,rectangle,-16.703125,-9.71875,1,0,0,-16.703125,-9.71875,1,0,0,0,152,152,10,1,,,,,,,,
,,,,,,,,,,,,,FF,,,,,,,,0.9529,,,,,,,,,,,,,,,,,,,,,,60ff2d35b20f6855da62ae75,610378f51d0d557a19d1c3f1,2021-07-29_23h01.06.046,Simcolourproject_2stim_asymm_v5,2020.2.10,MacIntel,60,61025ae37ef11b136ea224fe,,,,,,,,,3834,67.65234375,77.515625,1,0,0,response1disk,,7,13.08984375,4.59765625,1,0,0,rectangle,13.08984375,4.59765625,1,0,0,13.08984375,4.59765625,1,0,0,0,153,153,49,1,,,,,,,,
,,,,,,,,,,,,,FF,,,,,,,,1.3373,,,,,,,,,,,,,,,,,,,,,,60ff2d35b20f6855da62ae75,610378f51d0d557a19d1c3f1,2021-07-29_23h01.06.046,Simcolourproject_2stim_asymm_v5,2020.2.10,MacIntel,60,61025ae37ef11b136ea224fe,,,,,,,,,3706,-63.06640625,96.11328125,1,0,0,response7disk,,0,6.9453125,-0.1171875,1,0,0,rectangle,6.9453125,-0.1171875,1,0,0,6.9453125,-0.1171875,1,0,0,0,154,154,88,1,,,,,,,,
,,,,,,,,,,,,,FF,,,,,,,,0.9193,,,,,,,,,,,,,,,,,,,,,,60ff2d35b20f6855da62ae75,610378f51d0d557a19d1c3f1,2021-07-29_23h01.06.046,Simcolourproject_2stim_asymm_v5,2020.2.10,MacIntel,60,61025ae37ef11b136ea224fe,,,,,,,,,4316,-41.0234375,80.55859375,1,0,0,response7disk,,0,-8.6875,2.11328125,1,0,0,rectangle,-8.6875,2.11328125,1,0,0,-8.6875,2.11328125,1,0,0,0,155,155,103,1,,,,,,,,
,,,,,,,,,,,,,FF,,,,,,,,1.7559,,,,,,,,,,,,,,,,,,,,,,60ff2d35b20f6855da62ae75,610378f51d0d557a19d1c3f1,2021-07-29_23h01.06.046,Simcolourproject_2stim_asymm_v5,2020.2.10,MacIntel,60,61025ae37ef11b136ea224fe,,,,,,,,,3745,-41.99609375,-91.49609375,1,0,0,response5disk,,3,18.02734375,2.875,1,0,0,rectangle,18.02734375,2.875,1,0,0,18.02734375,2.875,1,0,0,0,156,156,5,1,,,,,,,,
,,,,,,,,,,,,,FF,,,,,,,,0.9539,,,,,,,,,,,,,,,,,,,,,,60ff2d35b20f6855da62ae75,610378f51d0d557a19d1c3f1,2021-07-29_23h01.06.046,Simcolourproject_2stim_asymm_v5,2020.2.10,MacIntel,60,61025ae37ef11b136ea224fe,,,,,,,,,4178,74.17578125,-61.6015625,1,0,0,response3disk,,5,9.3359375,-6.49609375,1,0,0,rectangle,9.3359375,-6.49609375,1,0,0,9.3359375,-6.49609375,1,0,0,0,157,157,46,1,,,,,,,,
,,,,,,,,,,,,,FF,,,,,,,,1.8733,,,,,,,,,,,,,,,,,,,,,,60ff2d35b20f6855da62ae75,610378f51d0d557a19d1c3f1,2021-07-29_23h01.06.046,Simcolourproject_2stim_asymm_v5,2020.2.10,MacIntel,60,61025ae37ef11b136ea224fe,,,,,,,,,2012,81.09765625,34.19140625,1,0,0,response1disk,,6,25.5546875,1.71484375,1,0,0,rectangle,25.5546875,1.71484375,1,0,0,25.5546875,1.71484375,1,0,0,0,158,158,15,1,,,,,,,,
,,,,,,,,,,,,,FF,,,,,,,,1.1549,,,,,,,,,,,,,,,,,,,,,,60ff2d35b20f6855da62ae75,610378f51d0d557a19d1c3f1,2021-07-29_23h01.06.046,Simcolourproject_2stim_asymm_v5,2020.2.10,MacIntel,60,61025ae37ef11b136ea224fe,,,,,,,,,3838,-87.703125,-56.71875,1,0,0,response5disk,,2,25.67578125,9.3203125,1,0,0,rectangle,-95.7734375,-50.859375,1,0,0,14.03515625,1.67578125,1,0,0,0,159,159,77,1,,response5disk_3,TRUE,2,2,"[70,131,171,282,242,205,206,46,296,82,125,27,263,160,208,196,270,212,39,186]",1.8728,rectangle
,,,,,,,,,,,,,FF,,,,,,,,1.0697,,,,,,,,,,,,,,,,,,,,,,60ff2d35b20f6855da62ae75,610378f51d0d557a19d1c3f1,2021-07-29_23h01.06.046,Simcolourproject_2stim_asymm_v5,2020.2.10,MacIntel,60,61025ae37ef11b136ea224fe,,,,,,,,,2605,-124.9140625,34.6328125,1,0,0,response7disk,,1,-19.62890625,-10.1953125,1,0,0,rectangle,-19.62890625,-10.1953125,1,0,0,-19.62890625,-10.1953125,1,0,0,1,0,160,91,1,,,,,,,,
,,,,,,,,,,,,,FF,,,,,,,,0.9034,,,,,,,,,,,,,,,,,,,,,,60ff2d35b20f6855da62ae75,610378f51d0d557a19d1c3f1,2021-07-29_23h01.06.046,Simcolourproject_2stim_asymm_v5,2020.2.10,MacIntel,60,61025ae37ef11b136ea224fe,,,,,,,,,3926,-24.63671875,-66.0078125,1,0,0,response5disk,,3,-14.95703125,-15.23828125,1,0,0,rectangle,-14.95703125,-15.23828125,1,0,0,-14.95703125,-15.23828125,1,0,0,1,1,161,85,1,,,,,,,,
,,,,,,,,,,,,,FF,,,,,,,,0.8024,,,,,,,,,,,,,,,,,,,,,,60ff2d35b20f6855da62ae75,610378f51d0d557a19d1c3f1,2021-07-29_23h01.06.046,Simcolourproject_2stim_asymm_v5,2020.2.10,MacIntel,60,61025ae37ef11b136ea224fe,,,,,,,,,1226,51.61328125,-86.15625,1,0,0,response3disk,,4,-5.11328125,-12.37109375,1,0,0,rectangle,-5.11328125,-12.37109375,1,0,0,-5.11328125,-12.37109375,1,0,0,1,2,162,145,1,,,,,,,,
,,,,,,,,,,,,,FF,,,,,,,,0.8198,,,,,,,,,,,,,,,,,,,,,,60ff2d35b20f6855da62ae75,610378f51d0d557a19d1c3f1,2021-07-29_23h01.06.046,Simcolourproject_2stim_asymm_v5,2020.2.10,MacIntel,60,61025ae37ef11b136ea224fe,,,,,,,,,4317,54.54296875,81.7734375,1,0,0,response1disk,,7,14.47265625,1.30078125,1,0,0,rectangle,14.47265625,1.30078125,1,0,0,14.47265625,1.30078125,1,0,0,1,3,163,81,1,,,,,,,,
,,,,,,,,,,,,,FF,,,,,,,,1.7724,,,,,,,,,,,,,,,,,,,,,,60ff2d35b20f6855da62ae75,610378f51d0d557a19d1c3f1,2021-07-29_23h01.06.046,Simcolourproject_2stim_asymm_v5,2020.2.10,MacIntel,60,61025ae37ef11b136ea224fe,,,,,,,,,4154,78.71875,46.828125,1,0,0,response1disk,,6,8.34375,-3.12890625,1,0,0,rectangle,8.34375,-3.12890625,1,0,0,8.34375,-3.12890625,1,0,0,1,4,164,118,1,,,,,,,,
,,,,,,,,,,,,,FF,,,,,,,,1.0376,,,,,,,,,,,,,,,,,,,,,,60ff2d35b20f6855da62ae75,610378f51d0d557a19d1c3f1,2021-07-29_23h01.06.046,Simcolourproject_2stim_asymm_v5,2020.2.10,MacIntel,60,61025ae37ef11b136ea224fe,,,,,,,,,2196,36.93359375,-70.69921875,1,0,0,response3disk,,4,3.62890625,-0.10546875,1,0,0,rectangle,3.62890625,-0.10546875,1,0,0,3.62890625,-0.10546875,1,0,0,1,5,165,135,1,,,,,,,,
,,,,,,,,,,,,,FF,,,,,,,,0.9696,,,,,,,,,,,,,,,,,,,,,,60ff2d35b20f6855da62ae75,610378f51d0d557a19d1c3f1,2021-07-29_23h01.06.046,Simcolourproject_2stim_asymm_v5,2020.2.10,MacIntel,60,61025ae37ef11b136ea224fe,,,,,,,,,2377,-43.78515625,-71.75,1,0,0,response5disk,,3,-17.8125,3.73046875,1,0,0,rectangle,-17.8125,3.73046875,1,0,0,-17.8125,3.73046875,1,0,0,1,6,166,23,1,,,,,,,,
,,,,,,,,,,,,,FF,,,,,,,,0.8866,,,,,,,,,,,,,,,,,,,,,,60ff2d35b20f6855da62ae75,610378f51d0d557a19d1c3f1,2021-07-29_23h01.06.046,Simcolourproject_2stim_asymm_v5,2020.2.10,MacIntel,60,61025ae37ef11b136ea224fe,,,,,,,,,215,59.27734375,-98.88671875,1,0,0,response3disk,,4,-4.9609375,5.71484375,1,0,0,rectangle,-4.9609375,5.71484375,1,0,0,-4.9609375,5.71484375,1,0,0,1,7,167,17,1,,,,,,,,
,,,,,,,,,,,,,FF,,,,,,,,1.3041,,,,,,,,,,,,,,,,,,,,,,60ff2d35b20f6855da62ae75,610378f51d0d557a19d1c3f1,2021-07-29_23h01.06.046,Simcolourproject_2stim_asymm_v5,2020.2.10,MacIntel,60,61025ae37ef11b136ea224fe,,,,,,,,,1813,-49.421875,-87.859375,1,0,0,response5disk,,3,8.3046875,-14.23046875,1,0,0,rectangle,8.3046875,-14.23046875,1,0,0,8.3046875,-14.23046875,1,0,0,1,8,168,70,1,,,,,,,,
,,,,,,,,,,,,,FF,,,,,,,,1.3874,,,,,,,,,,,,,,,,,,,,,,60ff2d35b20f6855da62ae75,610378f51d0d557a19d1c3f1,2021-07-29_23h01.06.046,Simcolourproject_2stim_asymm_v5,2020.2.10,MacIntel,60,61025ae37ef11b136ea224fe,,,,,,,,,1739,95.7578125,-31.328125,1,0,0,response3disk,,5,-2.6484375,9.00390625,1,0,0,rectangle,-2.6484375,9.00390625,1,0,0,-2.6484375,9.00390625,1,0,0,1,9,169,14,1,,,,,,,,
,,,,,,,,,,,,,FF,,,,,,,,1.1377,,,,,,,,,,,,,,,,,,,,,,60ff2d35b20f6855da62ae75,610378f51d0d557a19d1c3f1,2021-07-29_23h01.06.046,Simcolourproject_2stim_asymm_v5,2020.2.10,MacIntel,60,61025ae37ef11b136ea224fe,,,,,,,,,4241,-50.37890625,-82.20703125,1,0,0,response5disk,,3,11.5703125,0.625,1,0,0,rectangle,-90.97265625,45.078125,1,0,0,-13.91015625,7.40625,1,0,0,1,10,170,42,1,,response7disk_3,TRUE,1,1,"[70,131,171,282,242,205,206,46,296,82,125,27,263,160,208,196,270,212,39,186]",1.404,rectangle
,,,,,,,,,,,,,FF,,,,,,,,1.8903,,,,,,,,,,,,,,,,,,,,,,60ff2d35b20f6855da62ae75,610378f51d0d557a19d1c3f1,2021-07-29_23h01.06.046,Simcolourproject_2stim_asymm_v5,2020.2.10,MacIntel,60,61025ae37ef11b136ea224fe,,,,,,,,,1563,26.53515625,-80.96875,1,0,0,response3disk,,4,7.125,-8.0703125,1,0,0,rectangle,7.125,-8.0703125,1,0,0,7.125,-8.0703125,1,0,0,1,11,171,61,1,,,,,,,,
,,,,,,,,,,,,,FF,,,,,,,,2.3584,,,,,,,,,,,,,,,,,,,,,,60ff2d35b20f6855da62ae75,610378f51d0d557a19d1c3f1,2021-07-29_23h01.06.046,Simcolourproject_2stim_asymm_v5,2020.2.10,MacIntel,60,61025ae37ef11b136ea224fe,,,,,,,,,234,88.1875,-39.6796875,1,0,0,response3disk,,5,0.22265625,2.9765625,1,0,0,rectangle,0.22265625,2.9765625,1,0,0,0.22265625,2.9765625,1,0,0,1,12,172,55,1,,,,,,,,
,,,,,,,,,,,,,FF,,,,,,,,1.0037,,,,,,,,,,,,,,,,,,,,,,60ff2d35b20f6855da62ae75,610378f51d0d557a19d1c3f1,2021-07-29_23h01.06.046,Simcolourproject_2stim_asymm_v5,2020.2.10,MacIntel,60,61025ae37ef11b136ea224fe,,,,,,,,,3646,67.7421875,-33.85546875,1,0,0,response3disk,,5,15.765625,-5.00390625,1,0,0,rectangle,15.765625,-5.00390625,1,0,0,15.765625,-5.00390625,1,0,0,1,13,173,73,1,,,,,,,,
,,,,,,,,,,,,,FF,,,,,,,,0.836,,,,,,,,,,,,,,,,,,,,,,60ff2d35b20f6855da62ae75,610378f51d0d557a19d1c3f1,2021-07-29_23h01.06.046,Simcolourproject_2stim_asymm_v5,2020.2.10,MacIntel,60,61025ae37ef11b136ea224fe,,,,,,,,,1232,-50.2421875,-89.359375,1,0,0,response5disk,,3,-14.55859375,-13.62109375,1,0,0,rectangle,-14.55859375,-13.62109375,1,0,0,-14.55859375,-13.62109375,1,0,0,1,14,174,50,1,,,,,,,,
,,,,,,,,,,,,,FF,,,,,,,,1.0876,,,,,,,,,,,,,,,,,,,,,,60ff2d35b20f6855da62ae75,610378f51d0d557a19d1c3f1,2021-07-29_23h01.06.046,Simcolourproject_2stim_asymm_v5,2020.2.10,MacIntel,60,61025ae37ef11b136ea224fe,,,,,,,,,2478,97.1875,-43.9296875,1,0,0,response3disk,,5,8.96875,-16.09765625,1,0,0,rectangle,8.96875,-16.09765625,1,0,0,8.96875,-16.09765625,1,0,0,1,15,175,37,1,,,,,,,,
,,,,,,,,,,,,,FF,,,,,,,,2.3909,,,,,,,,,,,,,,,,,,,,,,60ff2d35b20f6855da62ae75,610378f51d0d557a19d1c3f1,2021-07-29_23h01.06.046,Simcolourproject_2stim_asymm_v5,2020.2.10,MacIntel,60,61025ae37ef11b136ea224fe,,,,,,,,,1032,47.890625,-91.078125,1,0,0,response3disk,,4,6.15234375,-2.390625,1,0,0,rectangle,6.15234375,-2.390625,1,0,0,6.15234375,-2.390625,1,0,0,1,16,176,11,1,,,,,,,,
,,,,,,,,,,,,,FF,,,,,,,,1.0546,,,,,,,,,,,,,,,,,,,,,,60ff2d35b20f6855da62ae75,610378f51d0d557a19d1c3f1,2021-07-29_23h01.06.046,Simcolourproject_2stim_asymm_v5,2020.2.10,MacIntel,60,61025ae37ef11b136ea224fe,,,,,,,,,2297,-95.09765625,-38.66796875,1,0,0,response5disk,,2,-18.28125,1.88671875,1,0,0,rectangle,-18.28125,1.88671875,1,0,0,-18.28125,1.88671875,1,0,0,1,17,177,5,1,,,,,,,,
,,,,,,,,,,,,,FF,,,,,,,,0.937,,,,,,,,,,,,,,,,,,,,,,60ff2d35b20f6855da62ae75,610378f51d0d557a19d1c3f1,2021-07-29_23h01.06.046,Simcolourproject_2stim_asymm_v5,2020.2.10,MacIntel,60,61025ae37ef11b136ea224fe,,,,,,,,,3849,-78.78515625,45.53515625,1,0,0,response7disk,,1,12.87109375,-3.7578125,1,0,0,rectangle,12.87109375,-3.7578125,1,0,0,12.87109375,-3.7578125,1,0,0,1,18,178,143,1,,,,,,,,
,,,,,,,,,,,,,FF,,,,,,,,1.0708,,,,,,,,,,,,,,,,,,,,,,60ff2d35b20f6855da62ae75,610378f51d0d557a19d1c3f1,2021-07-29_23h01.06.046,Simcolourproject_2stim_asymm_v5,2020.2.10,MacIntel,60,61025ae37ef11b136ea224fe,,,,,,,,,1276,-31.75390625,-93.0546875,1,0,0,response5disk,,3,4.0703125,4.421875,1,0,0,rectangle,4.0703125,4.421875,1,0,0,4.0703125,4.421875,1,0,0,1,19,179,83,1,,,,,,,,
,,,,,,,,,,,,,FF,,,,,,,,1.2707,,,,,,,,,,,,,,,,,,,,,,60ff2d35b20f6855da62ae75,610378f51d0d557a19d1c3f1,2021-07-29_23h01.06.046,Simcolourproject_2stim_asymm_v5,2020.2.10,MacIntel,60,61025ae37ef11b136ea224fe,,,,,,,,,610,66.04296875,-78.78515625,1,0,0,response3disk,,4,21.88671875,-9.01171875,1,0,0,rectangle,21.88671875,-9.01171875,1,0,0,21.88671875,-9.01171875,1,0,0,1,20,180,153,1,,,,,,,,
,,,,,,,,,,,,,FF,,,,,,,,1.2698,,,,,,,,,,,,,,,,,,,,,,60ff2d35b20f6855da62ae75,610378f51d0d557a19d1c3f1,2021-07-29_23h01.06.046,Simcolourproject_2stim_asymm_v5,2020.2.10,MacIntel,60,61025ae37ef11b136ea224fe,,,,,,,,,1137,-94.6484375,-34.12109375,1,0,0,response5disk,,2,9.96875,-4.02734375,1,0,0,rectangle,9.96875,-4.02734375,1,0,0,9.96875,-4.02734375,1,0,0,1,21,181,101,1,,,,,,,,
,,,,,,,,,,,,,FF,,,,,,,,0.8355,,,,,,,,,,,,,,,,,,,,,,60ff2d35b20f6855da62ae75,610378f51d0d557a19d1c3f1,2021-07-29_23h01.06.046,Simcolourproject_2stim_asymm_v5,2020.2.10,MacIntel,60,61025ae37ef11b136ea224fe,,,,,,,,,1658,-43.03515625,-48.8125,1,0,0,response5disk,,3,-14.16015625,-1.4375,1,0,0,rectangle,-14.16015625,-1.4375,1,0,0,-14.16015625,-1.4375,1,0,0,1,22,182,79,1,,,,,,,,
,,,,,,,,,,,,,FF,,,,,,,,2.4916,,,,,,,,,,,,,,,,,,,,,,60ff2d35b20f6855da62ae75,610378f51d0d557a19d1c3f1,2021-07-29_23h01.06.046,Simcolourproject_2stim_asymm_v5,2020.2.10,MacIntel,60,61025ae37ef11b136ea224fe,,,,,,,,,1365,-64.2109375,-79.42578125,1,0,0,response5disk,,3,-8.32421875,-9.15234375,1,0,0,rectangle,-8.32421875,-9.15234375,1,0,0,-8.32421875,-9.15234375,1,0,0,1,23,183,155,1,,,,,,,,
,,,,,,,,,,,,,FF,,,,,,,,1.6049,,,,,,,,,,,,,,,,,,,,,,60ff2d35b20f6855da62ae75,610378f51d0d557a19d1c3f1,2021-07-29_23h01.06.046,Simcolourproject_2stim_asymm_v5,2020.2.10,MacIntel,60,61025ae37ef11b136ea224fe,,,,,,,,,1331,88.2734375,-68.953125,1,0,0,response3disk,,5,8.015625,-9.40625,1,0,0,rectangle,8.015625,-9.40625,1,0,0,8.015625,-9.40625,1,0,0,1,24,184,58,1,,,,,,,,
,,,,,,,,,,,,,FF,,,,,,,,1.1043,,,,,,,,,,,,,,,,,,,,,,60ff2d35b20f6855da62ae75,610378f51d0d557a19d1c3f1,2021-07-29_23h01.06.046,Simcolourproject_2stim_asymm_v5,2020.2.10,MacIntel,60,61025ae37ef11b136ea224fe,,,,,,,,,555,-85.78125,-52.9296875,1,0,0,response5disk,,2,-1.9609375,-6.83984375,1,0,0,rectangle,-48.15234375,-99.63671875,1,0,0,-3.78515625,-12.2109375,1,0,0,1,25,185,20,1,,response5disk_3,TRUE,3,3,"[70,131,171,282,242,205,206,46,296,82,125,27,263,160,208,196,270,212,39,186]",1.4045,rectangle
,,,,,,,,,,,,,FF,,,,,,,,0.9523,,,,,,,,,,,,,,,,,,,,,,60ff2d35b20f6855da62ae75,610378f51d0d557a19d1c3f1,2021-07-29_23h01.06.046,Simcolourproject_2stim_asymm_v5,2020.2.10,MacIntel,60,61025ae37ef11b136ea224fe,,,,,,,,,1393,82.4140625,-110.140625,1,0,0,response3disk,,4,10.68359375,-5.53515625,1,0,0,rectangle,10.68359375,-5.53515625,1,0,0,10.68359375,-5.53515625,1,0,0,1,26,186,6,1,,,,,,,,
,,,,,,,,,,,,,FF,,,,,,,,1.3883,,,,,,,,,,,,,,,,,,,,,,60ff2d35b20f6855da62ae75,610378f51d0d557a19d1c3f1,2021-07-29_23h01.06.046,Simcolourproject_2stim_asymm_v5,2020.2.10,MacIntel,60,61025ae37ef11b136ea224fe,,,,,,,,,697,72.41015625,-44.13671875,1,0,0,response3disk,,5,0.5,-0.390625,1,0,0,rectangle,0.5,-0.390625,1,0,0,0.5,-0.390625,1,0,0,1,27,187,94,1,,,,,,,,
,,,,,,,,,,,,,FF,,,,,,,,1.1541,,,,,,,,,,,,,,,,,,,,,,60ff2d35b20f6855da62ae75,610378f51d0d557a19d1c3f1,2021-07-29_23h01.06.046,Simcolourproject_2stim_asymm_v5,2020.2.10,MacIntel,60,61025ae37ef11b136ea224fe,,,,,,,,,702,-86.75,-48.1484375,1,0,0,response5disk,,2,-5.37890625,-0.25,1,0,0,rectangle,-5.37890625,-0.25,1,0,0,-5.37890625,-0.25,1,0,0,1,28,188,68,1,,,,,,,,
,,,,,,,,,,,,,FF,,,,,,,,1.2717,,,,,,,,,,,,,,,,,,,,,,60ff2d35b20f6855da62ae75,610378f51d0d557a19d1c3f1,2021-07-29_23h01.06.046,Simcolourproject_2stim_asymm_v5,2020.2.10,MacIntel,60,61025ae37ef11b136ea224fe,,,,,,,,,3030,82.87109375,28.703125,1,0,0,response1disk,,6,-24.12109375,-17.1484375,1,0,0,rectangle,-24.12109375,-17.1484375,1,0,0,-24.12109375,-17.1484375,1,0,0,1,29,189,110,1,,,,,,,,
,,,,,,,,,,,,,FF,,,,,,,,1.1705,,,,,,,,,,,,,,,,,,,,,,60ff2d35b20f6855da62ae75,610378f51d0d557a19d1c3f1,2021-07-29_23h01.06.046,Simcolourproject_2stim_asymm_v5,2020.2.10,MacIntel,60,61025ae37ef11b136ea224fe,,,,,,,,,3819,103.0742188,-28.171875,1,0,0,response3disk,,5,-11.02734375,13.2265625,1,0,0,rectangle,-11.02734375,13.2265625,1,0,0,-11.02734375,13.2265625,1,0,0,1,30,190,82,1,,,,,,,,
,,,,,,,,,,,,,FF,,,,,,,,0.8698,,,,,,,,,,,,,,,,,,,,,,60ff2d35b20f6855da62ae75,610378f51d0d557a19d1c3f1,2021-07-29_23h01.06.046,Simcolourproject_2stim_asymm_v5,2020.2.10,MacIntel,60,61025ae37ef11b136ea224fe,,,,,,,,,3909,-73.37109375,54.328125,1,0,0,response7disk,,1,2.12109375,-12.30078125,1,0,0,rectangle,2.12109375,-12.30078125,1,0,0,2.12109375,-12.30078125,1,0,0,1,31,191,112,1,,,,,,,,
,,,,,,,,,,,,,FF,,,,,,,,0.9208,,,,,,,,,,,,,,,,,,,,,,60ff2d35b20f6855da62ae75,610378f51d0d557a19d1c3f1,2021-07-29_23h01.06.046,Simcolourproject_2stim_asymm_v5,2020.2.10,MacIntel,60,61025ae37ef11b136ea224fe,,,,,,,,,1337,95.59375,-80.2734375,1,0,0,response3disk,,5,3.18359375,-0.90625,1,0,0,rectangle,3.18359375,-0.90625,1,0,0,3.18359375,-0.90625,1,0,0,1,32,192,57,1,,,,,,,,
,,,,,,,,,,,,,FF,,,,,,,,1.6541,,,,,,,,,,,,,,,,,,,,,,60ff2d35b20f6855da62ae75,610378f51d0d557a19d1c3f1,2021-07-29_23h01.06.046,Simcolourproject_2stim_asymm_v5,2020.2.10,MacIntel,60,61025ae37ef11b136ea224fe,,,,,,,,,2409,48.03515625,71.79296875,1,0,0,response1disk,,7,20.6875,6.3984375,1,0,0,rectangle,20.6875,6.3984375,1,0,0,20.6875,6.3984375,1,0,0,1,33,193,147,1,,,,,,,,
,,,,,,,,,,,,,FF,,,,,,,,0.9187,,,,,,,,,,,,,,,,,,,,,,60ff2d35b20f6855da62ae75,610378f51d0d557a19d1c3f1,2021-07-29_23h01.06.046,Simcolourproject_2stim_asymm_v5,2020.2.10,MacIntel,60,61025ae37ef11b136ea224fe,,,,,,,,,886,-60.51171875,102.0039063,1,0,0,response7disk,,0,0.36328125,8.3125,1,0,0,rectangle,0.36328125,8.3125,1,0,0,0.36328125,8.3125,1,0,0,1,34,194,43,1,,,,,,,,
,,,,,,,,,,,,,FF,,,,,,,,1.07,,,,,,,,,,,,,,,,,,,,,,60ff2d35b20f6855da62ae75,610378f51d0d557a19d1c3f1,2021-07-29_23h01.06.046,Simcolourproject_2stim_asymm_v5,2020.2.10,MacIntel,60,61025ae37ef11b136ea224fe,,,,,,,,,2274,93.03515625,-44.65234375,1,0,0,response3disk,,5,19.62109375,5.70703125,1,0,0,rectangle,-95.72265625,45.828125,1,0,0,7.796875,-7.56640625,1,0,0,1,35,195,46,1,,response7disk_3,TRUE,1,1,"[70,131,171,282,242,205,206,46,296,82,125,27,263,160,208,196,270,212,39,186]",2.2401,rectangle
,,,,,,,,,,,,,FF,,,,,,,,0.8856,,,,,,,,,,,,,,,,,,,,,,60ff2d35b20f6855da62ae75,610378f51d0d557a19d1c3f1,2021-07-29_23h01.06.046,Simcolourproject_2stim_asymm_v5,2020.2.10,MacIntel,60,61025ae37ef11b136ea224fe,,,,,,,,,2382,86.0703125,-42.60546875,1,0,0,response3disk,,5,19.0234375,-8.6171875,1,0,0,rectangle,19.0234375,-8.6171875,1,0,0,19.0234375,-8.6171875,1,0,0,1,36,196,121,1,,,,,,,,
,,,,,,,,,,,,,FF,,,,,,,,1.0211,,,,,,,,,,,,,,,,,,,,,,60ff2d35b20f6855da62ae75,610378f51d0d557a19d1c3f1,2021-07-29_23h01.06.046,Simcolourproject_2stim_asymm_v5,2020.2.10,MacIntel,60,61025ae37ef11b136ea224fe,,,,,,,,,1497,67.578125,38.921875,1,0,0,response1disk,,6,-5.3046875,11.93359375,1,0,0,rectangle,-5.3046875,11.93359375,1,0,0,-5.3046875,11.93359375,1,0,0,1,37,197,13,1,,,,,,,,
,,,,,,,,,,,,,FF,,,,,,,,0.9695,,,,,,,,,,,,,,,,,,,,,,60ff2d35b20f6855da62ae75,610378f51d0d557a19d1c3f1,2021-07-29_23h01.06.046,Simcolourproject_2stim_asymm_v5,2020.2.10,MacIntel,60,61025ae37ef11b136ea224fe,,,,,,,,,24,85.25,-75.79296875,1,0,0,response3disk,,5,3.90625,-1.1484375,1,0,0,rectangle,3.90625,-1.1484375,1,0,0,3.90625,-1.1484375,1,0,0,1,38,198,19,1,,,,,,,,
,,,,,,,,,,,,,FF,,,,,,,,1.6705,,,,,,,,,,,,,,,,,,,,,,60ff2d35b20f6855da62ae75,610378f51d0d557a19d1c3f1,2021-07-29_23h01.06.046,Simcolourproject_2stim_asymm_v5,2020.2.10,MacIntel,60,61025ae37ef11b136ea224fe,,,,,,,,,773,99.19921875,41.984375,1,0,0,response1disk,,6,15.89453125,-3.12890625,1,0,0,rectangle,15.89453125,-3.12890625,1,0,0,15.89453125,-3.12890625,1,0,0,1,39,199,18,1,,,,,,,,
,,,,,,,,,,,,,FF,,,,,,,,1.0529,,,,,,,,,,,,,,,,,,,,,,60ff2d35b20f6855da62ae75,610378f51d0d557a19d1c3f1,2021-07-29_23h01.06.046,Simcolourproject_2stim_asymm_v5,2020.2.10,MacIntel,60,61025ae37ef11b136ea224fe,,,,,,,,,613,-85.9609375,50.734375,1,0,0,response7disk,,1,-19.88671875,14.28125,1,0,0,rectangle,-19.88671875,14.28125,1,0,0,-19.88671875,14.28125,1,0,0,1,40,200,142,1,,,,,,,,
,,,,,,,,,,,,,FF,,,,,,,,0.8702,,,,,,,,,,,,,,,,,,,,,,60ff2d35b20f6855da62ae75,610378f51d0d557a19d1c3f1,2021-07-29_23h01.06.046,Simcolourproject_2stim_asymm_v5,2020.2.10,MacIntel,60,61025ae37ef11b136ea224fe,,,,,,,,,661,86.95703125,-41.9296875,1,0,0,response3disk,,5,-17.48828125,14.4375,1,0,0,rectangle,-17.48828125,14.4375,1,0,0,-17.48828125,14.4375,1,0,0,1,41,201,45,1,,,,,,,,
,,,,,,,,,,,,,FF,,,,,,,,0.7697,,,,,,,,,,,,,,,,,,,,,,60ff2d35b20f6855da62ae75,610378f51d0d557a19d1c3f1,2021-07-29_23h01.06.046,Simcolourproject_2stim_asymm_v5,2020.2.10,MacIntel,60,61025ae37ef11b136ea224fe,,,,,,,,,113,65.40234375,-93.70703125,1,0,0,response3disk,,4,13.171875,-7.84765625,1,0,0,rectangle,13.171875,-7.84765625,1,0,0,13.171875,-7.84765625,1,0,0,1,42,202,114,1,,,,,,,,
,,,,,,,,,,,,,FF,,,,,,,,0.7697,,,,,,,,,,,,,,,,,,,,,,60ff2d35b20f6855da62ae75,610378f51d0d557a19d1c3f1,2021-07-29_23h01.06.046,Simcolourproject_2stim_asymm_v5,2020.2.10,MacIntel,60,61025ae37ef11b136ea224fe,,,,,,,,,3818,-78.57421875,-45.03125,1,0,0,response5disk,,2,-8.43359375,1.53125,1,0,0,rectangle,-8.43359375,1.53125,1,0,0,-8.43359375,1.53125,1,0,0,1,43,203,113,1,,,,,,,,
,,,,,,,,,,,,,FF,,,,,,,,0.7542,,,,,,,,,,,,,,,,,,,,,,60ff2d35b20f6855da62ae75,610378f51d0d557a19d1c3f1,2021-07-29_23h01.06.046,Simcolourproject_2stim_asymm_v5,2020.2.10,MacIntel,60,61025ae37ef11b136ea224fe,,,,,,,,,2919,103.328125,-43.71875,1,0,0,response3disk,,5,14.921875,2.2421875,1,0,0,rectangle,99.515625,34.92578125,1,0,0,7.29296875,-8.65234375,1,0,0,1,44,204,150,1,,response1disk_3,TRUE,6,6,"[70,131,171,282,242,205,206,46,296,82,125,27,263,160,208,196,270,212,39,186]",1.4709,rectangle
,,,,,,,,,,,,,FF,,,,,,,,0.8355,,,,,,,,,,,,,,,,,,,,,,60ff2d35b20f6855da62ae75,610378f51d0d557a19d1c3f1,2021-07-29_23h01.06.046,Simcolourproject_2stim_asymm_v5,2020.2.10,MacIntel,60,61025ae37ef11b136ea224fe,,,,,,,,,1742,117.6015625,-40.08203125,1,0,0,response3disk,,5,8.00390625,-6.3671875,1,0,0,rectangle,-94.84765625,-44.21484375,1,0,0,-13.12890625,15.1328125,1,0,0,1,45,205,107,1,,response5disk_3,TRUE,2,2,"[70,131,171,282,242,205,206,46,296,82,125,27,263,160,208,196,270,212,39,186]",1.6888,rectangle
,,,,,,,,,,,,,FF,,,,,,,,1.0539,,,,,,,,,,,,,,,,,,,,,,60ff2d35b20f6855da62ae75,610378f51d0d557a19d1c3f1,2021-07-29_23h01.06.046,Simcolourproject_2stim_asymm_v5,2020.2.10,MacIntel,60,61025ae37ef11b136ea224fe,,,,,,,,,849,53.9453125,83.90234375,1,0,0,response1disk,,7,7.32421875,-1.6796875,1,0,0,rectangle,7.32421875,-1.6796875,1,0,0,7.32421875,-1.6796875,1,0,0,1,46,206,131,1,,,,,,,,
,,,,,,,,,,,,,FF,,,,,,,,1.0032,,,,,,,,,,,,,,,,,,,,,,60ff2d35b20f6855da62ae75,610378f51d0d557a19d1c3f1,2021-07-29_23h01.06.046,Simcolourproject_2stim_asymm_v5,2020.2.10,MacIntel,60,61025ae37ef11b136ea224fe,,,,,,,,,2335,83.08203125,-32.91015625,1,0,0,response3disk,,5,3.1640625,5.890625,1,0,0,rectangle,34.55859375,57.55078125,1,0,0,12.80078125,-9.91015625,1,0,0,1,47,207,44,1,,response1disk_3,TRUE,7,7,"[70,131,171,282,242,205,206,46,296,82,125,27,263,160,208,196,270,212,39,186]",1.8559,rectangle
,,,,,,,,,,,,,FF,,,,,,,,1.4373,,,,,,,,,,,,,,,,,,,,,,60ff2d35b20f6855da62ae75,610378f51d0d557a19d1c3f1,2021-07-29_23h01.06.046,Simcolourproject_2stim_asymm_v5,2020.2.10,MacIntel,60,61025ae37ef11b136ea224fe,,,,,,,,,337,58.546875,64.01171875,1,0,0,response1disk,,7,7.0546875,14.7734375,1,0,0,rectangle,7.0546875,14.7734375,1,0,0,7.0546875,14.7734375,1,0,0,1,48,208,29,1,,,,,,,,
,,,,,,,,,,,,,FF,,,,,,,,1.1048,,,,,,,,,,,,,,,,,,,,,,60ff2d35b20f6855da62ae75,610378f51d0d557a19d1c3f1,2021-07-29_23h01.06.046,Simcolourproject_2stim_asymm_v5,2020.2.10,MacIntel,60,61025ae37ef11b136ea224fe,,,,,,,,,1175,32.61328125,77.43359375,1,0,0,response1disk,,7,18.17578125,-12.8046875,1,0,0,rectangle,18.17578125,-12.8046875,1,0,0,18.17578125,-12.8046875,1,0,0,1,49,209,67,1,,,,,,,,
,,,,,,,,,,,,,FF,,,,,,,,1.3545,,,,,,,,,,,,,,,,,,,,,,60ff2d35b20f6855da62ae75,610378f51d0d557a19d1c3f1,2021-07-29_23h01.06.046,Simcolourproject_2stim_asymm_v5,2020.2.10,MacIntel,60,61025ae37ef11b136ea224fe,,,,,,,,,3357,-49.53515625,-78.484375,1,0,0,response5disk,,3,-22.63671875,-6.05859375,1,0,0,rectangle,-22.63671875,-6.05859375,1,0,0,-22.63671875,-6.05859375,1,0,0,1,50,210,1,1,,,,,,,,
,,,,,,,,,,,,,FF,,,,,,,,1.2537,,,,,,,,,,,,,,,,,,,,,,60ff2d35b20f6855da62ae75,610378f51d0d557a19d1c3f1,2021-07-29_23h01.06.046,Simcolourproject_2stim_asymm_v5,2020.2.10,MacIntel,60,61025ae37ef11b136ea224fe,,,,,,,,,3897,82.1484375,31.83984375,1,0,0,response1disk,,6,23.953125,-12.59375,1,0,0,rectangle,-100.9882813,23.515625,1,0,0,-21.984375,-6.203125,1,0,0,1,51,211,104,1,,response7disk_3,TRUE,1,1,"[70,131,171,282,242,205,206,46,296,82,125,27,263,160,208,196,270,212,39,186]",1.3872,rectangle
,,,,,,,,,,,,,FF,,,,,,,,0.9017,,,,,,,,,,,,,,,,,,,,,,60ff2d35b20f6855da62ae75,610378f51d0d557a19d1c3f1,2021-07-29_23h01.06.046,Simcolourproject_2stim_asymm_v5,2020.2.10,MacIntel,60,61025ae37ef11b136ea224fe,,,,,,,,,596,37.30078125,81.828125,1,0,0,response1disk,,7,13.70703125,15.87890625,1,0,0,rectangle,13.70703125,15.87890625,1,0,0,13.70703125,15.87890625,1,0,0,1,52,212,117,1,,,,,,,,
,,,,,,,,,,,,,FF,,,,,,,,1.2868,,,,,,,,,,,,,,,,,,,,,,60ff2d35b20f6855da62ae75,610378f51d0d557a19d1c3f1,2021-07-29_23h01.06.046,Simcolourproject_2stim_asymm_v5,2020.2.10,MacIntel,60,61025ae37ef11b136ea224fe,,,,,,,,,2672,-55.09765625,-88.765625,1,0,0,response5disk,,3,-14.6875,-3.6015625,1,0,0,rectangle,-14.6875,-3.6015625,1,0,0,-14.6875,-3.6015625,1,0,0,1,53,213,123,1,,,,,,,,
,,,,,,,,,,,,,FF,,,,,,,,0.8523,,,,,,,,,,,,,,,,,,,,,,60ff2d35b20f6855da62ae75,610378f51d0d557a19d1c3f1,2021-07-29_23h01.06.046,Simcolourproject_2stim_asymm_v5,2020.2.10,MacIntel,60,61025ae37ef11b136ea224fe,,,,,,,,,3515,-85.33984375,-41.6796875,1,0,0,response5disk,,2,-9.87890625,0.0078125,1,0,0,rectangle,-9.87890625,0.0078125,1,0,0,-9.87890625,0.0078125,1,0,0,1,54,214,71,1,,,,,,,,
,,,,,,,,,,,,,FF,,,,,,,,1.1389,,,,,,,,,,,,,,,,,,,,,,60ff2d35b20f6855da62ae75,610378f51d0d557a19d1c3f1,2021-07-29_23h01.06.046,Simcolourproject_2stim_asymm_v5,2020.2.10,MacIntel,60,61025ae37ef11b136ea224fe,,,,,,,,,2433,-105.3789063,-33.23046875,1,0,0,response5disk,,2,-5.74609375,-15.52734375,1,0,0,rectangle,-5.74609375,-15.52734375,1,0,0,-5.74609375,-15.52734375,1,0,0,1,55,215,86,1,,,,,,,,
,,,,,,,,,,,,,FF,,,,,,,,1.2013,,,,,,,,,,,,,,,,,,,,,,60ff2d35b20f6855da62ae75,610378f51d0d557a19d1c3f1,2021-07-29_23h01.06.046,Simcolourproject_2stim_asymm_v5,2020.2.10,MacIntel,60,61025ae37ef11b136ea224fe,,,,,,,,,3088,-99.77734375,38.59765625,1,0,0,response7disk,,1,-26.00390625,7.41796875,1,0,0,rectangle,-26.00390625,7.41796875,1,0,0,-26.00390625,7.41796875,1,0,0,1,56,216,64,1,,,,,,,,
,,,,,,,,,,,,,FF,,,,,,,,1.171,,,,,,,,,,,,,,,,,,,,,,60ff2d35b20f6855da62ae75,610378f51d0d557a19d1c3f1,2021-07-29_23h01.06.046,Simcolourproject_2stim_asymm_v5,2020.2.10,MacIntel,60,61025ae37ef11b136ea224fe,,,,,,,,,811,-108.9023438,-50.0234375,1,0,0,response5disk,,2,19.20703125,-0.921875,1,0,0,rectangle,19.20703125,-0.921875,1,0,0,19.20703125,-0.921875,1,0,0,1,57,217,129,1,,,,,,,,
,,,,,,,,,,,,,FF,,,,,,,,0.8014,,,,,,,,,,,,,,,,,,,,,,60ff2d35b20f6855da62ae75,610378f51d0d557a19d1c3f1,2021-07-29_23h01.06.046,Simcolourproject_2stim_asymm_v5,2020.2.10,MacIntel,60,61025ae37ef11b136ea224fe,,,,,,,,,3086,92.01953125,-49.65234375,1,0,0,response3disk,,5,19.25390625,-8.93359375,1,0,0,rectangle,19.25390625,-8.93359375,1,0,0,19.25390625,-8.93359375,1,0,0,1,58,218,111,1,,,,,,,,
,,,,,,,,,,,,,FF,,,,,,,,1.3559,,,,,,,,,,,,,,,,,,,,,,60ff2d35b20f6855da62ae75,610378f51d0d557a19d1c3f1,2021-07-29_23h01.06.046,Simcolourproject_2stim_asymm_v5,2020.2.10,MacIntel,60,61025ae37ef11b136ea224fe,,,,,,,,,3455,46.890625,77.02734375,1,0,0,response1disk,,7,13.8984375,9.828125,1,0,0,rectangle,13.8984375,9.828125,1,0,0,13.8984375,9.828125,1,0,0,1,59,219,122,1,,,,,,,,
,,,,,,,,,,,,,FF,,,,,,,,0.986,,,,,,,,,,,,,,,,,,,,,,60ff2d35b20f6855da62ae75,610378f51d0d557a19d1c3f1,2021-07-29_23h01.06.046,Simcolourproject_2stim_asymm_v5,2020.2.10,MacIntel,60,61025ae37ef11b136ea224fe,,,,,,,,,2091,81.3984375,-42.80859375,1,0,0,response3disk,,5,-7.96875,12.18359375,1,0,0,rectangle,-7.96875,12.18359375,1,0,0,-7.96875,12.18359375,1,0,0,1,60,220,40,1,,,,,,,,
,,,,,,,,,,,,,FF,,,,,,,,5.1666,,,,,,,,,,,,,,,,,,,,,,60ff2d35b20f6855da62ae75,610378f51d0d557a19d1c3f1,2021-07-29_23h01.06.046,Simcolourproject_2stim_asymm_v5,2020.2.10,MacIntel,60,61025ae37ef11b136ea224fe,,,,,,,,,142,46.7734375,-100.5703125,1,0,0,response3disk,,4,10.13671875,-5.74609375,1,0,0,rectangle,10.13671875,-5.74609375,1,0,0,10.13671875,-5.74609375,1,0,0,1,61,221,31,1,,,,,,,,
,,,,,,,,,,,,,FF,,,,,,,,1.4893,,,,,,,,,,,,,,,,,,,,,,60ff2d35b20f6855da62ae75,610378f51d0d557a19d1c3f1,2021-07-29_23h01.06.046,Simcolourproject_2stim_asymm_v5,2020.2.10,MacIntel,60,61025ae37ef11b136ea224fe,,,,,,,,,4288,89.4140625,63.0390625,1,0,0,response1disk,,6,5.984375,3.03515625,1,0,0,rectangle,5.984375,3.03515625,1,0,0,5.984375,3.03515625,1,0,0,1,62,222,88,1,,,,,,,,
,,,,,,,,,,,,,FF,,,,,,,,1.4208,,,,,,,,,,,,,,,,,,,,,,60ff2d35b20f6855da62ae75,610378f51d0d557a19d1c3f1,2021-07-29_23h01.06.046,Simcolourproject_2stim_asymm_v5,2020.2.10,MacIntel,60,61025ae37ef11b136ea224fe,,,,,,,,,3349,44.46484375,-80.19921875,1,0,0,response3disk,,4,-2.63671875,1.70703125,1,0,0,rectangle,-2.63671875,1.70703125,1,0,0,-2.63671875,1.70703125,1,0,0,1,63,223,74,1,,,,,,,,
,,,,,,,,,,,,,FF,,,,,,,,0.7855,,,,,,,,,,,,,,,,,,,,,,60ff2d35b20f6855da62ae75,610378f51d0d557a19d1c3f1,2021-07-29_23h01.06.046,Simcolourproject_2stim_asymm_v5,2020.2.10,MacIntel,60,61025ae37ef11b136ea224fe,,,,,,,,,1562,56.2109375,109.4492188,1,0,0,response1disk,,7,17.42578125,3.8671875,1,0,0,rectangle,17.42578125,3.8671875,1,0,0,17.42578125,3.8671875,1,0,0,1,64,224,26,1,,,,,,,,
,,,,,,,,,,,,,FF,,,,,,,,0.8365,,,,,,,,,,,,,,,,,,,,,,60ff2d35b20f6855da62ae75,610378f51d0d557a19d1c3f1,2021-07-29_23h01.06.046,Simcolourproject_2stim_asymm_v5,2020.2.10,MacIntel,60,61025ae37ef11b136ea224fe,,,,,,,,,3411,92.36328125,-44.453125,1,0,0,response3disk,,5,6.75,-9.55078125,1,0,0,rectangle,6.75,-9.55078125,1,0,0,6.75,-9.55078125,1,0,0,1,65,225,134,1,,,,,,,,
,,,,,,,,,,,,,FF,,,,,,,,1.0706,,,,,,,,,,,,,,,,,,,,,,60ff2d35b20f6855da62ae75,610378f51d0d557a19d1c3f1,2021-07-29_23h01.06.046,Simcolourproject_2stim_asymm_v5,2020.2.10,MacIntel,60,61025ae37ef11b136ea224fe,,,,,,,,,3092,-95.5859375,-58.7890625,1,0,0,response5disk,,2,-3.1875,-10.78125,1,0,0,rectangle,-3.1875,-10.78125,1,0,0,-3.1875,-10.78125,1,0,0,1,66,226,130,1,,,,,,,,
,,,,,,,,,,,,,FF,,,,,,,,1.1873,,,,,,,,,,,,,,,,,,,,,,60ff2d35b20f6855da62ae75,610378f51d0d557a19d1c3f1,2021-07-29_23h01.06.046,Simcolourproject_2stim_asymm_v5,2020.2.10,MacIntel,60,61025ae37ef11b136ea224fe,,,,,,,,,967,44.171875,102.859375,1,0,0,response1disk,,7,-0.37109375,10.76953125,1,0,0,rectangle,-0.37109375,10.76953125,1,0,0,-0.37109375,10.76953125,1,0,0,1,67,227,72,1,,,,,,,,
,,,,,,,,,,,,,FF,,,,,,,,0.77,,,,,,,,,,,,,,,,,,,,,,60ff2d35b20f6855da62ae75,610378f51d0d557a19d1c3f1,2021-07-29_23h01.06.046,Simcolourproject_2stim_asymm_v5,2020.2.10,MacIntel,60,61025ae37ef11b136ea224fe,,,,,,,,,3659,49.0078125,109.4882813,1,0,0,response1disk,,7,16.3359375,-2.5546875,1,0,0,rectangle,16.3359375,-2.5546875,1,0,0,16.3359375,-2.5546875,1,0,0,1,68,228,52,1,,,,,,,,
,,,,,,,,,,,,,FF,,,,,,,,0.8862,,,,,,,,,,,,,,,,,,,,,,60ff2d35b20f6855da62ae75,610378f51d0d557a19d1c3f1,2021-07-29_23h01.06.046,Simcolourproject_2stim_asymm_v5,2020.2.10,MacIntel,60,61025ae37ef11b136ea224fe,,,,,,,,,1941,33.43359375,-47.0703125,1,0,0,response3disk,,4,18.76171875,-9.76953125,1,0,0,rectangle,18.76171875,-9.76953125,1,0,0,18.76171875,-9.76953125,1,0,0,1,69,229,92,1,,,,,,,,
,,,,,,,,,,,,,FF,,,,,,,,1.0203,,,,,,,,,,,,,,,,,,,,,,60ff2d35b20f6855da62ae75,610378f51d0d557a19d1c3f1,2021-07-29_23h01.06.046,Simcolourproject_2stim_asymm_v5,2020.2.10,MacIntel,60,61025ae37ef11b136ea224fe,,,,,,,,,701,-64.09765625,-82.34765625,1,0,0,response5disk,,3,-7.65625,-6.4296875,1,0,0,rectangle,-7.65625,-6.4296875,1,0,0,-7.65625,-6.4296875,1,0,0,1,70,230,33,1,,,,,,,,
,,,,,,,,,,,,,FF,,,,,,,,1.9907,,,,,,,,,,,,,,,,,,,,,,60ff2d35b20f6855da62ae75,610378f51d0d557a19d1c3f1,2021-07-29_23h01.06.046,Simcolourproject_2stim_asymm_v5,2020.2.10,MacIntel,60,61025ae37ef11b136ea224fe,,,,,,,,,1655,-65.4296875,-76.53125,1,0,0,response5disk,,3,-16.578125,-4.6953125,1,0,0,rectangle,-16.578125,-4.6953125,1,0,0,-16.578125,-4.6953125,1,0,0,1,71,231,56,1,,,,,,,,
,,,,,,,,,,,,,FF,,,,,,,,0.9529,,,,,,,,,,,,,,,,,,,,,,60ff2d35b20f6855da62ae75,610378f51d0d557a19d1c3f1,2021-07-29_23h01.06.046,Simcolourproject_2stim_asymm_v5,2020.2.10,MacIntel,60,61025ae37ef11b136ea224fe,,,,,,,,,1785,-84.671875,-42.3203125,1,0,0,response5disk,,2,1.828125,-9.36328125,1,0,0,rectangle,1.828125,-9.36328125,1,0,0,1.828125,-9.36328125,1,0,0,1,72,232,28,1,,,,,,,,
,,,,,,,,,,,,,FF,,,,,,,,1.9775,,,,,,,,,,,,,,,,,,,,,,60ff2d35b20f6855da62ae75,610378f51d0d557a19d1c3f1,2021-07-29_23h01.06.046,Simcolourproject_2stim_asymm_v5,2020.2.10,MacIntel,60,61025ae37ef11b136ea224fe,,,,,,,,,1851,36.75,-102.1953125,1,0,0,response3disk,,4,4.109375,-12.00390625,1,0,0,rectangle,4.109375,-12.00390625,1,0,0,4.109375,-12.00390625,1,0,0,1,73,233,151,1,,,,,,,,
,,,,,,,,,,,,,FF,,,,,,,,0.9707,,,,,,,,,,,,,,,,,,,,,,60ff2d35b20f6855da62ae75,610378f51d0d557a19d1c3f1,2021-07-29_23h01.06.046,Simcolourproject_2stim_asymm_v5,2020.2.10,MacIntel,60,61025ae37ef11b136ea224fe,,,,,,,,,241,-48.33984375,-88.2265625,1,0,0,response5disk,,3,-9.94140625,7.0390625,1,0,0,rectangle,-9.94140625,7.0390625,1,0,0,-9.94140625,7.0390625,1,0,0,1,74,234,109,1,,,,,,,,
,,,,,,,,,,,,,FF,,,,,,,,1.5884,,,,,,,,,,,,,,,,,,,,,,60ff2d35b20f6855da62ae75,610378f51d0d557a19d1c3f1,2021-07-29_23h01.06.046,Simcolourproject_2stim_asymm_v5,2020.2.10,MacIntel,60,61025ae37ef11b136ea224fe,,,,,,,,,102,45.203125,-73.91796875,1,0,0,response3disk,,4,8.41796875,11.55859375,1,0,0,rectangle,8.41796875,11.55859375,1,0,0,8.41796875,11.55859375,1,0,0,1,75,235,63,1,,,,,,,,
,,,,,,,,,,,,,FF,,,,,,,,1.6226,,,,,,,,,,,,,,,,,,,,,,60ff2d35b20f6855da62ae75,610378f51d0d557a19d1c3f1,2021-07-29_23h01.06.046,Simcolourproject_2stim_asymm_v5,2020.2.10,MacIntel,60,61025ae37ef11b136ea224fe,,,,,,,,,1784,86.9140625,-59.24609375,1,0,0,response3disk,,5,-0.3203125,1.50390625,1,0,0,rectangle,-0.3203125,1.50390625,1,0,0,-0.3203125,1.50390625,1,0,0,1,76,236,157,1,,,,,,,,
,,,,,,,,,,,,,FF,,,,,,,,0.9365,,,,,,,,,,,,,,,,,,,,,,60ff2d35b20f6855da62ae75,610378f51d0d557a19d1c3f1,2021-07-29_23h01.06.046,Simcolourproject_2stim_asymm_v5,2020.2.10,MacIntel,60,61025ae37ef11b136ea224fe,,,,,,,,,419,74.98046875,46.15234375,1,0,0,response1disk,,6,7.3203125,-2.5859375,1,0,0,rectangle,7.3203125,-2.5859375,1,0,0,7.3203125,-2.5859375,1,0,0,1,77,237,77,1,,,,,,,,
,,,,,,,,,,,,,FF,,,,,,,,0.7362,,,,,,,,,,,,,,,,,,,,,,60ff2d35b20f6855da62ae75,610378f51d0d557a19d1c3f1,2021-07-29_23h01.06.046,Simcolourproject_2stim_asymm_v5,2020.2.10,MacIntel,60,61025ae37ef11b136ea224fe,,,,,,,,,764,72.65625,55.6953125,1,0,0,response1disk,,6,18.0390625,4.53515625,1,0,0,rectangle,18.0390625,4.53515625,1,0,0,18.0390625,4.53515625,1,0,0,1,78,238,84,1,,,,,,,,
,,,,,,,,,,,,,FF,,,,,,,,1.9403,,,,,,,,,,,,,,,,,,,,,,60ff2d35b20f6855da62ae75,610378f51d0d557a19d1c3f1,2021-07-29_23h01.06.046,Simcolourproject_2stim_asymm_v5,2020.2.10,MacIntel,60,61025ae37ef11b136ea224fe,,,,,,,,,3035,52.49609375,97.78125,1,0,0,response1disk,,7,0.12109375,1.41015625,1,0,0,rectangle,0.12109375,1.41015625,1,0,0,0.12109375,1.41015625,1,0,0,1,79,239,152,1,,,,,,,,
,,,,,,,,,,,,,FF,,,,,,,,1.5556,,,,,,,,,,,,,,,,,,,,,,60ff2d35b20f6855da62ae75,610378f51d0d557a19d1c3f1,2021-07-29_23h01.06.046,Simcolourproject_2stim_asymm_v5,2020.2.10,MacIntel,60,61025ae37ef11b136ea224fe,,,,,,,,,2182,59.57421875,-71.91796875,1,0,0,response3disk,,4,12.375,-3.3671875,1,0,0,rectangle,12.375,-3.3671875,1,0,0,12.375,-3.3671875,1,0,0,1,80,240,99,1,,,,,,,,
,,,,,,,,,,,,,FF,,,,,,,,1.0545,,,,,,,,,,,,,,,,,,,,,,60ff2d35b20f6855da62ae75,610378f51d0d557a19d1c3f1,2021-07-29_23h01.06.046,Simcolourproject_2stim_asymm_v5,2020.2.10,MacIntel,60,61025ae37ef11b136ea224fe,,,,,,,,,192,-42.6015625,-78.9921875,1,0,0,response5disk,,3,-21.26953125,12.37890625,1,0,0,rectangle,96.4296875,46.40234375,1,0,0,-6.09375,-2.484375,1,0,0,1,81,241,93,1,,response1disk_3,TRUE,6,6,"[70,131,171,282,242,205,206,46,296,82,125,27,263,160,208,196,270,212,39,186]",1.472,rectangle
,,,,,,,,,,,,,FF,,,,,,,,1.1537,,,,,,,,,,,,,,,,,,,,,,60ff2d35b20f6855da62ae75,610378f51d0d557a19d1c3f1,2021-07-29_23h01.06.046,Simcolourproject_2stim_asymm_v5,2020.2.10,MacIntel,60,61025ae37ef11b136ea224fe,,,,,,,,,372,-40.1484375,-73.4453125,1,0,0,response5disk,,3,2.13671875,-7.703125,1,0,0,rectangle,2.13671875,-7.703125,1,0,0,2.13671875,-7.703125,1,0,0,1,82,242,124,1,,,,,,,,
,,,,,,,,,,,,,FF,,,,,,,,0.9366,,,,,,,,,,,,,,,,,,,,,,60ff2d35b20f6855da62ae75,610378f51d0d557a19d1c3f1,2021-07-29_23h01.06.046,Simcolourproject_2stim_asymm_v5,2020.2.10,MacIntel,60,61025ae37ef11b136ea224fe,,,,,,,,,3143,-67.72265625,-50.01953125,1,0,0,response5disk,,2,-7.60546875,5.44921875,1,0,0,rectangle,-7.60546875,5.44921875,1,0,0,-7.60546875,5.44921875,1,0,0,1,83,243,65,1,,,,,,,,
,,,,,,,,,,,,,FF,,,,,,,,0.7686,,,,,,,,,,,,,,,,,,,,,,60ff2d35b20f6855da62ae75,610378f51d0d557a19d1c3f1,2021-07-29_23h01.06.046,Simcolourproject_2stim_asymm_v5,2020.2.10,MacIntel,60,61025ae37ef11b136ea224fe,,,,,,,,,3824,-46.62109375,-81.421875,1,0,0,response5disk,,3,8.3984375,-13.359375,1,0,0,rectangle,8.3984375,-13.359375,1,0,0,8.3984375,-13.359375,1,0,0,1,84,244,75,1,,,,,,,,
,,,,,,,,,,,,,FF,,,,,,,,1.3052,,,,,,,,,,,,,,,,,,,,,,60ff2d35b20f6855da62ae75,610378f51d0d557a19d1c3f1,2021-07-29_23h01.06.046,Simcolourproject_2stim_asymm_v5,2020.2.10,MacIntel,60,61025ae37ef11b136ea224fe,,,,,,,,,1807,76.00390625,-63.53125,1,0,0,response3disk,,5,19.20703125,-2.03515625,1,0,0,rectangle,19.20703125,-2.03515625,1,0,0,19.20703125,-2.03515625,1,0,0,1,85,245,60,1,,,,,,,,
,,,,,,,,,,,,,FF,,,,,,,,0.9878,,,,,,,,,,,,,,,,,,,,,,60ff2d35b20f6855da62ae75,610378f51d0d557a19d1c3f1,2021-07-29_23h01.06.046,Simcolourproject_2stim_asymm_v5,2020.2.10,MacIntel,60,61025ae37ef11b136ea224fe,,,,,,,,,534,72.24609375,48.28125,1,0,0,response1disk,,6,14.15234375,-0.81640625,1,0,0,rectangle,14.15234375,-0.81640625,1,0,0,14.15234375,-0.81640625,1,0,0,1,86,246,10,1,,,,,,,,
,,,,,,,,,,,,,FF,,,,,,,,1.8401,,,,,,,,,,,,,,,,,,,,,,60ff2d35b20f6855da62ae75,610378f51d0d557a19d1c3f1,2021-07-29_23h01.06.046,Simcolourproject_2stim_asymm_v5,2020.2.10,MacIntel,60,61025ae37ef11b136ea224fe,,,,,,,,,1285,42.3984375,-66.296875,1,0,0,response3disk,,4,1.28125,3.5,1,0,0,rectangle,1.28125,3.5,1,0,0,1.28125,3.5,1,0,0,1,87,247,16,1,,,,,,,,
