key_resp.keys,key_resp.rt,key_resp_14.keys,key_resp_14.rt,key_resp_15.keys,key_resp_15.rt,key_resp_17.keys,key_resp_17.rt,key_resp_9.keys,key_resp_9.rt,key_resp_10.keys,key_resp_10.rt,practice_comparison,Ecc,mouse_5.x,mouse_5.y,mouse_5.leftButton,mouse_5.midButton,mouse_5.rightButton,mouse_5.clicked_name,pracsimilarity,response_time,mouse_10.x,mouse_10.y,mouse_10.leftButton,mouse_10.midButton,mouse_10.rightButton,mouse_10.clicked_name,mouse_7.x,mouse_7.y,mouse_7.leftButton,mouse_7.midButton,mouse_7.rightButton,mouse_6.x,mouse_6.y,mouse_6.leftButton,mouse_6.midButton,mouse_6.rightButton,duringprac.thisRepN,duringprac.thisTrialN,duringprac.thisN,duringprac.thisIndex,duringprac.ran,participant,session,date,expName,psychopyVersion,OS,frameRate,study_id,mouse_7.clicked_name,catchpracsimilarity,catch_response_time,catchnumberprac,catchtrialorderprac,mouse_6.clicked_name,key_resp_22.keys,key_resp_22.rt,realcomparison,mouse.x,mouse.y,mouse.leftButton,mouse.midButton,mouse.rightButton,mouse.clicked_name,Colour2,similarity,mouse_2.x,mouse_2.y,mouse_2.leftButton,mouse_2.midButton,mouse_2.rightButton,mouse_2.clicked_name,mouse_3.x,mouse_3.y,mouse_3.leftButton,mouse_3.midButton,mouse_3.rightButton,mouse_11.x,mouse_11.y,mouse_11.leftButton,mouse_11.midButton,mouse_11.rightButton,trials_2.thisRepN,trials_2.thisTrialN,trials_2.thisN,trials_2.thisIndex,trials_2.ran,Colour1,mouse_3.clicked_name,catchornah,catchsimilarity,catchnumber,catchtrialorder,catchRT,mouse_11.clicked_name
space,0.8268,space,23.1938,space,14.3129,space,26.0624,space,2.9904,space,3.159,123,PF,35.20703125,-76.859375,1,0,0,response3disk_5,4,3.1331,1.4921875,0.8984375,1,0,0,rectangle_8,1.4921875,0.8984375,1,0,0,1.4921875,0.8984375,1,0,0,0,0,0,1,1,60ffc5403089b5fc3e1c1a33,61036bb7bb1416c61fa9c1d1,2021-07-29_23h06.42.389,Simcolourproject_2stim_asymm_v5,2020.2.10,MacIntel,60,61025ae37ef11b136ea224fe,,,,,,,,,,,,,,,,,,,,,,,,,,,,,,,,,,,,,,,,,,,,,,
,,,,,,,,,,,,12,PF,66.30859375,36.15234375,1,0,0,response1disk_5,6,1.9832,10.4765625,-0.578125,1,0,0,rectangle_8,-64.16796875,-31.9296875,1,0,0,-1.734375,-3.15234375,1,0,0,0,1,1,2,1,60ffc5403089b5fc3e1c1a33,61036bb7bb1416c61fa9c1d1,2021-07-29_23h06.42.389,Simcolourproject_2stim_asymm_v5,2020.2.10,MacIntel,60,61025ae37ef11b136ea224fe,response5disk_7,2,2.5997,2,"[2,5]",rectangle_4,,,,,,,,,,,,,,,,,,,,,,,,,,,,,,,,,,,,,,,,
,,,,,,,,,,,,44,FF,33.25390625,-66.16015625,1,0,0,response3disk_5,4,2.6,5.5546875,1.46875,1,0,0,rectangle_8,5.5546875,1.46875,1,0,0,5.5546875,1.46875,1,0,0,0,2,2,0,1,60ffc5403089b5fc3e1c1a33,61036bb7bb1416c61fa9c1d1,2021-07-29_23h06.42.389,Simcolourproject_2stim_asymm_v5,2020.2.10,MacIntel,60,61025ae37ef11b136ea224fe,,,,,,,,,,,,,,,,,,,,,,,,,,,,,,,,,,,,,,,,,,,,,,
,,,,,,,,,,,,36,PF,-38.41796875,-66.21484375,1,0,0,response5disk_5,3,2.6843,13.953125,2.25,1,0,0,rectangle_8,13.953125,2.25,1,0,0,13.953125,2.25,1,0,0,0,3,3,4,1,60ffc5403089b5fc3e1c1a33,61036bb7bb1416c61fa9c1d1,2021-07-29_23h06.42.389,Simcolourproject_2stim_asymm_v5,2020.2.10,MacIntel,60,61025ae37ef11b136ea224fe,,,,,,,,,,,,,,,,,,,,,,,,,,,,,,,,,,,,,,,,,,,,,,
,,,,,,,,,,,,122,FF,39.92578125,-66.7265625,1,0,0,response3disk_5,4,2.2837,3.5390625,-4.0859375,1,0,0,rectangle_8,-67.48828125,-34.54296875,1,0,0,0.203125,2.02734375,1,0,0,0,4,4,5,1,60ffc5403089b5fc3e1c1a33,61036bb7bb1416c61fa9c1d1,2021-07-29_23h06.42.389,Simcolourproject_2stim_asymm_v5,2020.2.10,MacIntel,60,61025ae37ef11b136ea224fe,response5disk_7,2,2.2828,2,"[2,5]",rectangle_4,,,,,,,,,,,,,,,,,,,,,,,,,,,,,,,,,,,,,,,,
,,,,,,,,,,,,149,PF,-66.125,18.1328125,1,0,0,response7disk_5,1,1.5998,5.33984375,-0.37890625,1,0,0,rectangle_8,5.33984375,-0.37890625,1,0,0,5.33984375,-0.37890625,1,0,0,0,5,5,6,1,60ffc5403089b5fc3e1c1a33,61036bb7bb1416c61fa9c1d1,2021-07-29_23h06.42.389,Simcolourproject_2stim_asymm_v5,2020.2.10,MacIntel,60,61025ae37ef11b136ea224fe,,,,,,,,,,,,,,,,,,,,,,,,,,,,,,,,,,,,,,,,,,,,,,
,,,,,,,,,,,,31,FF,-35.32421875,56.078125,1,0,0,response7disk_5,0,1.0153,-2.57421875,1.2265625,1,0,0,rectangle_8,-2.57421875,1.2265625,1,0,0,-2.57421875,1.2265625,1,0,0,0,6,6,3,1,60ffc5403089b5fc3e1c1a33,61036bb7bb1416c61fa9c1d1,2021-07-29_23h06.42.389,Simcolourproject_2stim_asymm_v5,2020.2.10,MacIntel,60,61025ae37ef11b136ea224fe,,,,,,,,,,,,,,,,,,,,,,,,,,,,,,,,,,,,,,,,,,,,,,
,,,,,,,,,,,,,FF,,,,,,,,2.5667,,,,,,,,,,,,,,,,,,,,,,60ffc5403089b5fc3e1c1a33,61036bb7bb1416c61fa9c1d1,2021-07-29_23h06.42.389,Simcolourproject_2stim_asymm_v5,2020.2.10,MacIntel,60,61025ae37ef11b136ea224fe,,,,,,,space,2.3443,1269,53.84765625,-43.609375,1,0,0,response3disk,,5,-6.0859375,3.40625,1,0,0,rectangle,-6.0859375,3.40625,1,0,0,-6.0859375,3.40625,1,0,0,0,0,0,156,1,,,,,,,,
,,,,,,,,,,,,,FF,,,,,,,,1.2824,,,,,,,,,,,,,,,,,,,,,,60ffc5403089b5fc3e1c1a33,61036bb7bb1416c61fa9c1d1,2021-07-29_23h06.42.389,Simcolourproject_2stim_asymm_v5,2020.2.10,MacIntel,60,61025ae37ef11b136ea224fe,,,,,,,,,999,57.93359375,32.015625,1,0,0,response1disk,,6,-9.5,-2.3515625,1,0,0,rectangle,-9.5,-2.3515625,1,0,0,-9.5,-2.3515625,1,0,0,0,1,1,112,1,,,,,,,,
,,,,,,,,,,,,,FF,,,,,,,,2.382,,,,,,,,,,,,,,,,,,,,,,60ffc5403089b5fc3e1c1a33,61036bb7bb1416c61fa9c1d1,2021-07-29_23h06.42.389,Simcolourproject_2stim_asymm_v5,2020.2.10,MacIntel,60,61025ae37ef11b136ea224fe,,,,,,,,,1508,27.4375,56.78515625,1,0,0,response1disk,,7,-0.28515625,-3,1,0,0,rectangle,-0.28515625,-3,1,0,0,-0.28515625,-3,1,0,0,0,2,2,137,1,,,,,,,,
,,,,,,,,,,,,,FF,,,,,,,,1.8993,,,,,,,,,,,,,,,,,,,,,,60ffc5403089b5fc3e1c1a33,61036bb7bb1416c61fa9c1d1,2021-07-29_23h06.42.389,Simcolourproject_2stim_asymm_v5,2020.2.10,MacIntel,60,61025ae37ef11b136ea224fe,,,,,,,,,609,81.50390625,-44.2578125,1,0,0,response3disk,,5,4.28125,-1.6640625,1,0,0,rectangle,4.28125,-1.6640625,1,0,0,4.28125,-1.6640625,1,0,0,0,3,3,14,1,,,,,,,,
,,,,,,,,,,,,,FF,,,,,,,,1.934,,,,,,,,,,,,,,,,,,,,,,60ffc5403089b5fc3e1c1a33,61036bb7bb1416c61fa9c1d1,2021-07-29_23h06.42.389,Simcolourproject_2stim_asymm_v5,2020.2.10,MacIntel,60,61025ae37ef11b136ea224fe,,,,,,,,,3453,71.703125,43.21875,1,0,0,response1disk,,6,3.25390625,1.58984375,1,0,0,rectangle,3.25390625,1.58984375,1,0,0,3.25390625,1.58984375,1,0,0,0,4,4,45,1,,,,,,,,
,,,,,,,,,,,,,FF,,,,,,,,1.1666,,,,,,,,,,,,,,,,,,,,,,60ffc5403089b5fc3e1c1a33,61036bb7bb1416c61fa9c1d1,2021-07-29_23h06.42.389,Simcolourproject_2stim_asymm_v5,2020.2.10,MacIntel,60,61025ae37ef11b136ea224fe,,,,,,,,,1898,-33.73828125,-51.83203125,1,0,0,response5disk,,3,-3.42578125,-0.09765625,1,0,0,rectangle,-3.42578125,-0.09765625,1,0,0,-3.42578125,-0.09765625,1,0,0,0,5,5,56,1,,,,,,,,
,,,,,,,,,,,,,FF,,,,,,,,1.5986,,,,,,,,,,,,,,,,,,,,,,60ffc5403089b5fc3e1c1a33,61036bb7bb1416c61fa9c1d1,2021-07-29_23h06.42.389,Simcolourproject_2stim_asymm_v5,2020.2.10,MacIntel,60,61025ae37ef11b136ea224fe,,,,,,,,,3538,77.06640625,23.69140625,1,0,0,response1disk,,6,3.44921875,-8.32421875,1,0,0,rectangle,3.44921875,-8.32421875,1,0,0,3.44921875,-8.32421875,1,0,0,0,6,6,61,1,,,,,,,,
,,,,,,,,,,,,,FF,,,,,,,,3.4829,,,,,,,,,,,,,,,,,,,,,,60ffc5403089b5fc3e1c1a33,61036bb7bb1416c61fa9c1d1,2021-07-29_23h06.42.389,Simcolourproject_2stim_asymm_v5,2020.2.10,MacIntel,60,61025ae37ef11b136ea224fe,,,,,,,,,46,36.91015625,45.4375,1,0,0,response1disk,,7,14.765625,1.515625,1,0,0,rectangle,14.765625,1.515625,1,0,0,14.765625,1.515625,1,0,0,0,7,7,27,1,,,,,,,,
,,,,,,,,,,,,,FF,,,,,,,,1.568,,,,,,,,,,,,,,,,,,,,,,60ffc5403089b5fc3e1c1a33,61036bb7bb1416c61fa9c1d1,2021-07-29_23h06.42.389,Simcolourproject_2stim_asymm_v5,2020.2.10,MacIntel,60,61025ae37ef11b136ea224fe,,,,,,,,,4336,-61.31640625,-33.00390625,1,0,0,response5disk,,2,15.12109375,10.34765625,1,0,0,rectangle,15.12109375,10.34765625,1,0,0,15.12109375,10.34765625,1,0,0,0,8,8,124,1,,,,,,,,
,,,,,,,,,,,,,FF,,,,,,,,1.5164,,,,,,,,,,,,,,,,,,,,,,60ffc5403089b5fc3e1c1a33,61036bb7bb1416c61fa9c1d1,2021-07-29_23h06.42.389,Simcolourproject_2stim_asymm_v5,2020.2.10,MacIntel,60,61025ae37ef11b136ea224fe,,,,,,,,,3950,17.32421875,-56.359375,1,0,0,response3disk,,4,5.70703125,4.4140625,1,0,0,rectangle,5.70703125,4.4140625,1,0,0,5.70703125,4.4140625,1,0,0,0,9,9,116,1,,,,,,,,
,,,,,,,,,,,,,FF,,,,,,,,4.3333,,,,,,,,,,,,,,,,,,,,,,60ffc5403089b5fc3e1c1a33,61036bb7bb1416c61fa9c1d1,2021-07-29_23h06.42.389,Simcolourproject_2stim_asymm_v5,2020.2.10,MacIntel,60,61025ae37ef11b136ea224fe,,,,,,,,,3039,-34.984375,-76.8515625,1,0,0,response5disk,,3,7.83203125,2.28125,1,0,0,rectangle,7.83203125,2.28125,1,0,0,7.83203125,2.28125,1,0,0,0,10,10,93,1,,,,,,,,
,,,,,,,,,,,,,FF,,,,,,,,1.8491,,,,,,,,,,,,,,,,,,,,,,60ffc5403089b5fc3e1c1a33,61036bb7bb1416c61fa9c1d1,2021-07-29_23h06.42.389,Simcolourproject_2stim_asymm_v5,2020.2.10,MacIntel,60,61025ae37ef11b136ea224fe,,,,,,,,,2017,35.1875,-65.96484375,1,0,0,response3disk,,4,-7.1796875,0.4375,1,0,0,rectangle,-7.1796875,0.4375,1,0,0,-7.1796875,0.4375,1,0,0,0,11,11,152,1,,,,,,,,
,,,,,,,,,,,,,FF,,,,,,,,2.2348,,,,,,,,,,,,,,,,,,,,,,60ffc5403089b5fc3e1c1a33,61036bb7bb1416c61fa9c1d1,2021-07-29_23h06.42.389,Simcolourproject_2stim_asymm_v5,2020.2.10,MacIntel,60,61025ae37ef11b136ea224fe,,,,,,,,,509,64.6328125,-21.6328125,1,0,0,response3disk,,5,-2.34765625,8.5234375,1,0,0,rectangle,-2.34765625,8.5234375,1,0,0,-2.34765625,8.5234375,1,0,0,0,12,12,18,1,,,,,,,,
,,,,,,,,,,,,,FF,,,,,,,,2.1663,,,,,,,,,,,,,,,,,,,,,,60ffc5403089b5fc3e1c1a33,61036bb7bb1416c61fa9c1d1,2021-07-29_23h06.42.389,Simcolourproject_2stim_asymm_v5,2020.2.10,MacIntel,60,61025ae37ef11b136ea224fe,,,,,,,,,1271,63.265625,42.2109375,1,0,0,response1disk,,6,-0.171875,-10.875,1,0,0,rectangle,-0.171875,-10.875,1,0,0,-0.171875,-10.875,1,0,0,0,13,13,143,1,,,,,,,,
,,,,,,,,,,,,,FF,,,,,,,,3.9165,,,,,,,,,,,,,,,,,,,,,,60ffc5403089b5fc3e1c1a33,61036bb7bb1416c61fa9c1d1,2021-07-29_23h06.42.389,Simcolourproject_2stim_asymm_v5,2020.2.10,MacIntel,60,61025ae37ef11b136ea224fe,,,,,,,,,1028,66.29296875,51.22265625,1,0,0,response1disk,,6,-0.37890625,5.6015625,1,0,0,rectangle,-0.37890625,5.6015625,1,0,0,-0.37890625,5.6015625,1,0,0,0,14,14,148,1,,,,,,,,
,,,,,,,,,,,,,FF,,,,,,,,1.7001,,,,,,,,,,,,,,,,,,,,,,60ffc5403089b5fc3e1c1a33,61036bb7bb1416c61fa9c1d1,2021-07-29_23h06.42.389,Simcolourproject_2stim_asymm_v5,2020.2.10,MacIntel,60,61025ae37ef11b136ea224fe,,,,,,,,,688,61.41796875,-44.66015625,1,0,0,response3disk,,5,3.171875,2.83203125,1,0,0,rectangle,3.171875,2.83203125,1,0,0,3.171875,2.83203125,1,0,0,0,15,15,5,1,,,,,,,,
,,,,,,,,,,,,,FF,,,,,,,,2.3672,,,,,,,,,,,,,,,,,,,,,,60ffc5403089b5fc3e1c1a33,61036bb7bb1416c61fa9c1d1,2021-07-29_23h06.42.389,Simcolourproject_2stim_asymm_v5,2020.2.10,MacIntel,60,61025ae37ef11b136ea224fe,,,,,,,,,1046,31.2421875,-46.03125,1,0,0,response3disk,,4,10.1015625,0.3671875,1,0,0,rectangle,10.1015625,0.3671875,1,0,0,10.1015625,0.3671875,1,0,0,0,16,16,53,1,,,,,,,,
,,,,,,,,,,,,,FF,,,,,,,,7.3501,,,,,,,,,,,,,,,,,,,,,,60ffc5403089b5fc3e1c1a33,61036bb7bb1416c61fa9c1d1,2021-07-29_23h06.42.389,Simcolourproject_2stim_asymm_v5,2020.2.10,MacIntel,60,61025ae37ef11b136ea224fe,,,,,,,,,1870,30.5625,-44.640625,1,0,0,response3disk,,4,3.5,-9.72265625,1,0,0,rectangle,3.5,-9.72265625,1,0,0,3.5,-9.72265625,1,0,0,0,17,17,23,1,,,,,,,,
,,,,,,,,,,,,,FF,,,,,,,,2.3007,,,,,,,,,,,,,,,,,,,,,,60ffc5403089b5fc3e1c1a33,61036bb7bb1416c61fa9c1d1,2021-07-29_23h06.42.389,Simcolourproject_2stim_asymm_v5,2020.2.10,MacIntel,60,61025ae37ef11b136ea224fe,,,,,,,,,579,39.01171875,56.02734375,1,0,0,response1disk,,7,-5.078125,-4.25390625,1,0,0,rectangle,-5.078125,-4.25390625,1,0,0,-5.078125,-4.25390625,1,0,0,0,18,18,37,1,,,,,,,,
,,,,,,,,,,,,,FF,,,,,,,,1.2499,,,,,,,,,,,,,,,,,,,,,,60ffc5403089b5fc3e1c1a33,61036bb7bb1416c61fa9c1d1,2021-07-29_23h06.42.389,Simcolourproject_2stim_asymm_v5,2020.2.10,MacIntel,60,61025ae37ef11b136ea224fe,,,,,,,,,1836,-52.6875,-32.734375,1,0,0,response5disk,,2,13.02734375,1.40234375,1,0,0,rectangle,13.02734375,1.40234375,1,0,0,13.02734375,1.40234375,1,0,0,0,19,19,144,1,,,,,,,,
,,,,,,,,,,,,,FF,,,,,,,,1.4172,,,,,,,,,,,,,,,,,,,,,,60ffc5403089b5fc3e1c1a33,61036bb7bb1416c61fa9c1d1,2021-07-29_23h06.42.389,Simcolourproject_2stim_asymm_v5,2020.2.10,MacIntel,60,61025ae37ef11b136ea224fe,,,,,,,,,1510,25.73828125,35.20703125,1,0,0,response1disk,,7,11.8671875,0.6875,1,0,0,rectangle,11.8671875,0.6875,1,0,0,11.8671875,0.6875,1,0,0,0,20,20,145,1,,,,,,,,
,,,,,,,,,,,,,FF,,,,,,,,1.6005,,,,,,,,,,,,,,,,,,,,,,60ffc5403089b5fc3e1c1a33,61036bb7bb1416c61fa9c1d1,2021-07-29_23h06.42.389,Simcolourproject_2stim_asymm_v5,2020.2.10,MacIntel,60,61025ae37ef11b136ea224fe,,,,,,,,,702,57.57421875,-24.37109375,1,0,0,response3disk,,5,16.06640625,2.51171875,1,0,0,rectangle,16.06640625,2.51171875,1,0,0,16.06640625,2.51171875,1,0,0,0,21,21,78,1,,,,,,,,
,,,,,,,,,,,,,FF,,,,,,,,2.5676,,,,,,,,,,,,,,,,,,,,,,60ffc5403089b5fc3e1c1a33,61036bb7bb1416c61fa9c1d1,2021-07-29_23h06.42.389,Simcolourproject_2stim_asymm_v5,2020.2.10,MacIntel,60,61025ae37ef11b136ea224fe,,,,,,,,,52,83.80078125,-33.87890625,1,0,0,response3disk,,5,4.20703125,-6.88671875,1,0,0,rectangle,4.20703125,-6.88671875,1,0,0,4.20703125,-6.88671875,1,0,0,0,22,22,83,1,,,,,,,,
,,,,,,,,,,,,,FF,,,,,,,,1.25,,,,,,,,,,,,,,,,,,,,,,60ffc5403089b5fc3e1c1a33,61036bb7bb1416c61fa9c1d1,2021-07-29_23h06.42.389,Simcolourproject_2stim_asymm_v5,2020.2.10,MacIntel,60,61025ae37ef11b136ea224fe,,,,,,,,,2865,33.28125,48.99609375,1,0,0,response1disk,,7,-6.55859375,-10.47265625,1,0,0,rectangle,68,-35.5625,1,0,0,13.2109375,-6.90625,1,0,0,0,23,23,48,1,,response3disk_3,TRUE,5,5,"[148,24,213,193,165,185,158,50,216,118,315,126,168,323,286,320,99,265,139,28]",2.1308,rectangle
,,,,,,,,,,,,,FF,,,,,,,,1.9,,,,,,,,,,,,,,,,,,,,,,60ffc5403089b5fc3e1c1a33,61036bb7bb1416c61fa9c1d1,2021-07-29_23h06.42.389,Simcolourproject_2stim_asymm_v5,2020.2.10,MacIntel,60,61025ae37ef11b136ea224fe,,,,,,,,,45,32.70703125,56.36328125,1,0,0,response1disk,,7,7.42578125,9,1,0,0,rectangle,7.42578125,9,1,0,0,7.42578125,9,1,0,0,0,24,24,67,1,,,,,,,,
,,,,,,,,,,,,,FF,,,,,,,,1.1498,,,,,,,,,,,,,,,,,,,,,,60ffc5403089b5fc3e1c1a33,61036bb7bb1416c61fa9c1d1,2021-07-29_23h06.42.389,Simcolourproject_2stim_asymm_v5,2020.2.10,MacIntel,60,61025ae37ef11b136ea224fe,,,,,,,,,1130,39.30078125,71.3359375,1,0,0,response1disk,,7,8.23828125,-0.9609375,1,0,0,rectangle,8.23828125,-0.9609375,1,0,0,8.23828125,-0.9609375,1,0,0,0,25,25,29,1,,,,,,,,
,,,,,,,,,,,,,FF,,,,,,,,3.1174,,,,,,,,,,,,,,,,,,,,,,60ffc5403089b5fc3e1c1a33,61036bb7bb1416c61fa9c1d1,2021-07-29_23h06.42.389,Simcolourproject_2stim_asymm_v5,2020.2.10,MacIntel,60,61025ae37ef11b136ea224fe,,,,,,,,,1704,67.265625,-24.078125,1,0,0,response3disk,,5,14.42578125,5.10546875,1,0,0,rectangle,14.42578125,5.10546875,1,0,0,14.42578125,5.10546875,1,0,0,0,26,26,32,1,,,,,,,,
,,,,,,,,,,,,,FF,,,,,,,,3.0156,,,,,,,,,,,,,,,,,,,,,,60ffc5403089b5fc3e1c1a33,61036bb7bb1416c61fa9c1d1,2021-07-29_23h06.42.389,Simcolourproject_2stim_asymm_v5,2020.2.10,MacIntel,60,61025ae37ef11b136ea224fe,,,,,,,,,3874,65.6171875,-32.2109375,1,0,0,response3disk,,5,0.875,-4.44921875,1,0,0,rectangle,42.80078125,57.75,1,0,0,7.2890625,2.0625,1,0,0,0,27,27,135,1,,response1disk_3,TRUE,7,7,"[148,24,213,193,165,185,158,50,216,118,315,126,168,323,286,320,99,265,139,28]",2.1175,rectangle
,,,,,,,,,,,,,FF,,,,,,,,1.1679,,,,,,,,,,,,,,,,,,,,,,60ffc5403089b5fc3e1c1a33,61036bb7bb1416c61fa9c1d1,2021-07-29_23h06.42.389,Simcolourproject_2stim_asymm_v5,2020.2.10,MacIntel,60,61025ae37ef11b136ea224fe,,,,,,,,,3182,66.265625,32.40625,1,0,0,response1disk,,6,16.98046875,-0.9921875,1,0,0,rectangle,16.98046875,-0.9921875,1,0,0,16.98046875,-0.9921875,1,0,0,0,28,28,114,1,,,,,,,,
,,,,,,,,,,,,,FF,,,,,,,,1.8841,,,,,,,,,,,,,,,,,,,,,,60ffc5403089b5fc3e1c1a33,61036bb7bb1416c61fa9c1d1,2021-07-29_23h06.42.389,Simcolourproject_2stim_asymm_v5,2020.2.10,MacIntel,60,61025ae37ef11b136ea224fe,,,,,,,,,1495,31.5625,76.75390625,1,0,0,response1disk,,7,15.546875,9.97265625,1,0,0,rectangle,15.546875,9.97265625,1,0,0,15.546875,9.97265625,1,0,0,0,29,29,130,1,,,,,,,,
,,,,,,,,,,,,,FF,,,,,,,,1.4173,,,,,,,,,,,,,,,,,,,,,,60ffc5403089b5fc3e1c1a33,61036bb7bb1416c61fa9c1d1,2021-07-29_23h06.42.389,Simcolourproject_2stim_asymm_v5,2020.2.10,MacIntel,60,61025ae37ef11b136ea224fe,,,,,,,,,1809,-29.609375,-61.6328125,1,0,0,response5disk,,3,16.1640625,10.890625,1,0,0,rectangle,16.1640625,10.890625,1,0,0,16.1640625,10.890625,1,0,0,0,30,30,84,1,,,,,,,,
,,,,,,,,,,,,,FF,,,,,,,,1.3486,,,,,,,,,,,,,,,,,,,,,,60ffc5403089b5fc3e1c1a33,61036bb7bb1416c61fa9c1d1,2021-07-29_23h06.42.389,Simcolourproject_2stim_asymm_v5,2020.2.10,MacIntel,60,61025ae37ef11b136ea224fe,,,,,,,,,3382,-65.9765625,52.67578125,1,0,0,response7disk,,1,6.328125,4.38671875,1,0,0,rectangle,6.328125,4.38671875,1,0,0,6.328125,4.38671875,1,0,0,0,31,31,22,1,,,,,,,,
,,,,,,,,,,,,,FF,,,,,,,,1.5344,,,,,,,,,,,,,,,,,,,,,,60ffc5403089b5fc3e1c1a33,61036bb7bb1416c61fa9c1d1,2021-07-29_23h06.42.389,Simcolourproject_2stim_asymm_v5,2020.2.10,MacIntel,60,61025ae37ef11b136ea224fe,,,,,,,,,1280,66.53515625,34.19140625,1,0,0,response1disk,,6,24.5546875,-7.203125,1,0,0,rectangle,24.5546875,-7.203125,1,0,0,24.5546875,-7.203125,1,0,0,0,32,32,40,1,,,,,,,,
,,,,,,,,,,,,,FF,,,,,,,,1.0993,,,,,,,,,,,,,,,,,,,,,,60ffc5403089b5fc3e1c1a33,61036bb7bb1416c61fa9c1d1,2021-07-29_23h06.42.389,Simcolourproject_2stim_asymm_v5,2020.2.10,MacIntel,60,61025ae37ef11b136ea224fe,,,,,,,,,3601,19.05078125,65.11328125,1,0,0,response1disk,,7,-6.65234375,9.265625,1,0,0,rectangle,-6.65234375,9.265625,1,0,0,-6.65234375,9.265625,1,0,0,0,33,33,90,1,,,,,,,,
,,,,,,,,,,,,,FF,,,,,,,,1.2333,,,,,,,,,,,,,,,,,,,,,,60ffc5403089b5fc3e1c1a33,61036bb7bb1416c61fa9c1d1,2021-07-29_23h06.42.389,Simcolourproject_2stim_asymm_v5,2020.2.10,MacIntel,60,61025ae37ef11b136ea224fe,,,,,,,,,2905,86.46484375,-58.40234375,1,0,0,response3disk,,5,10.15625,-11.87890625,1,0,0,rectangle,10.15625,-11.87890625,1,0,0,10.15625,-11.87890625,1,0,0,0,34,34,30,1,,,,,,,,
,,,,,,,,,,,,,FF,,,,,,,,0.8156,,,,,,,,,,,,,,,,,,,,,,60ffc5403089b5fc3e1c1a33,61036bb7bb1416c61fa9c1d1,2021-07-29_23h06.42.389,Simcolourproject_2stim_asymm_v5,2020.2.10,MacIntel,60,61025ae37ef11b136ea224fe,,,,,,,,,2138,28.4921875,61.25390625,1,0,0,response1disk,,7,10.484375,-8.0234375,1,0,0,rectangle,10.484375,-8.0234375,1,0,0,10.484375,-8.0234375,1,0,0,0,35,35,52,1,,,,,,,,
,,,,,,,,,,,,,FF,,,,,,,,1.4181,,,,,,,,,,,,,,,,,,,,,,60ffc5403089b5fc3e1c1a33,61036bb7bb1416c61fa9c1d1,2021-07-29_23h06.42.389,Simcolourproject_2stim_asymm_v5,2020.2.10,MacIntel,60,61025ae37ef11b136ea224fe,,,,,,,,,4112,65.01171875,19.62890625,1,0,0,response1disk,,6,22.07421875,-9.26953125,1,0,0,rectangle,22.07421875,-9.26953125,1,0,0,22.07421875,-9.26953125,1,0,0,0,36,36,92,1,,,,,,,,
,,,,,,,,,,,,,FF,,,,,,,,1.7672,,,,,,,,,,,,,,,,,,,,,,60ffc5403089b5fc3e1c1a33,61036bb7bb1416c61fa9c1d1,2021-07-29_23h06.42.389,Simcolourproject_2stim_asymm_v5,2020.2.10,MacIntel,60,61025ae37ef11b136ea224fe,,,,,,,,,2863,42.25390625,55.4296875,1,0,0,response1disk,,7,7.1484375,-0.1796875,1,0,0,rectangle,7.1484375,-0.1796875,1,0,0,7.1484375,-0.1796875,1,0,0,0,37,37,76,1,,,,,,,,
,,,,,,,,,,,,,FF,,,,,,,,2.916,,,,,,,,,,,,,,,,,,,,,,60ffc5403089b5fc3e1c1a33,61036bb7bb1416c61fa9c1d1,2021-07-29_23h06.42.389,Simcolourproject_2stim_asymm_v5,2020.2.10,MacIntel,60,61025ae37ef11b136ea224fe,,,,,,,,,3768,50.42578125,-23.20703125,1,0,0,response3disk,,5,6.4765625,-1.34765625,1,0,0,rectangle,6.4765625,-1.34765625,1,0,0,6.4765625,-1.34765625,1,0,0,0,38,38,98,1,,,,,,,,
,,,,,,,,,,,,,FF,,,,,,,,1.6336,,,,,,,,,,,,,,,,,,,,,,60ffc5403089b5fc3e1c1a33,61036bb7bb1416c61fa9c1d1,2021-07-29_23h06.42.389,Simcolourproject_2stim_asymm_v5,2020.2.10,MacIntel,60,61025ae37ef11b136ea224fe,,,,,,,,,4077,22.125,-64.53515625,1,0,0,response3disk,,4,-1.47265625,4.83984375,1,0,0,rectangle,-1.47265625,4.83984375,1,0,0,-1.47265625,4.83984375,1,0,0,0,39,39,86,1,,,,,,,,
,,,,,,,,,,,,,FF,,,,,,,,1.3842,,,,,,,,,,,,,,,,,,,,,,60ffc5403089b5fc3e1c1a33,61036bb7bb1416c61fa9c1d1,2021-07-29_23h06.42.389,Simcolourproject_2stim_asymm_v5,2020.2.10,MacIntel,60,61025ae37ef11b136ea224fe,,,,,,,,,2783,-40.1015625,-74.34765625,1,0,0,response5disk,,3,-8.2734375,-0.68359375,1,0,0,rectangle,-8.2734375,-0.68359375,1,0,0,-8.2734375,-0.68359375,1,0,0,0,40,40,109,1,,,,,,,,
,,,,,,,,,,,,,FF,,,,,,,,1.4996,,,,,,,,,,,,,,,,,,,,,,60ffc5403089b5fc3e1c1a33,61036bb7bb1416c61fa9c1d1,2021-07-29_23h06.42.389,Simcolourproject_2stim_asymm_v5,2020.2.10,MacIntel,60,61025ae37ef11b136ea224fe,,,,,,,,,3602,63.40234375,40.13671875,1,0,0,response1disk,,6,-3.453125,-11.0078125,1,0,0,rectangle,-3.453125,-11.0078125,1,0,0,-3.453125,-11.0078125,1,0,0,0,41,41,106,1,,,,,,,,
,,,,,,,,,,,,,FF,,,,,,,,1.7835,,,,,,,,,,,,,,,,,,,,,,60ffc5403089b5fc3e1c1a33,61036bb7bb1416c61fa9c1d1,2021-07-29_23h06.42.389,Simcolourproject_2stim_asymm_v5,2020.2.10,MacIntel,60,61025ae37ef11b136ea224fe,,,,,,,,,3898,50.484375,-23.01171875,1,0,0,response3disk,,5,8.78125,-1.8671875,1,0,0,rectangle,8.78125,-1.8671875,1,0,0,8.78125,-1.8671875,1,0,0,0,42,42,138,1,,,,,,,,
,,,,,,,,,,,,,FF,,,,,,,,1.0006,,,,,,,,,,,,,,,,,,,,,,60ffc5403089b5fc3e1c1a33,61036bb7bb1416c61fa9c1d1,2021-07-29_23h06.42.389,Simcolourproject_2stim_asymm_v5,2020.2.10,MacIntel,60,61025ae37ef11b136ea224fe,,,,,,,,,1742,23.4453125,64.88671875,1,0,0,response1disk,,7,1.66796875,8.36328125,1,0,0,rectangle,1.66796875,8.36328125,1,0,0,1.66796875,8.36328125,1,0,0,0,43,43,94,1,,,,,,,,
,,,,,,,,,,,,,FF,,,,,,,,1.6826,,,,,,,,,,,,,,,,,,,,,,60ffc5403089b5fc3e1c1a33,61036bb7bb1416c61fa9c1d1,2021-07-29_23h06.42.389,Simcolourproject_2stim_asymm_v5,2020.2.10,MacIntel,60,61025ae37ef11b136ea224fe,,,,,,,,,325,31.48046875,60.0234375,1,0,0,response1disk,,7,2.8828125,-4.71875,1,0,0,rectangle,2.8828125,-4.71875,1,0,0,2.8828125,-4.71875,1,0,0,0,44,44,99,1,,,,,,,,
,,,,,,,,,,,,,FF,,,,,,,,1.0336,,,,,,,,,,,,,,,,,,,,,,60ffc5403089b5fc3e1c1a33,61036bb7bb1416c61fa9c1d1,2021-07-29_23h06.42.389,Simcolourproject_2stim_asymm_v5,2020.2.10,MacIntel,60,61025ae37ef11b136ea224fe,,,,,,,,,1622,70.3125,32.04296875,1,0,0,response1disk,,6,16.8203125,4,1,0,0,rectangle,16.8203125,4,1,0,0,16.8203125,4,1,0,0,0,45,45,139,1,,,,,,,,
,,,,,,,,,,,,,FF,,,,,,,,2.0175,,,,,,,,,,,,,,,,,,,,,,60ffc5403089b5fc3e1c1a33,61036bb7bb1416c61fa9c1d1,2021-07-29_23h06.42.389,Simcolourproject_2stim_asymm_v5,2020.2.10,MacIntel,60,61025ae37ef11b136ea224fe,,,,,,,,,174,-15.02734375,-74.6875,1,0,0,response5disk,,3,6.15625,-10.37109375,1,0,0,rectangle,6.15625,-10.37109375,1,0,0,6.15625,-10.37109375,1,0,0,0,46,46,88,1,,,,,,,,
,,,,,,,,,,,,,FF,,,,,,,,2.0668,,,,,,,,,,,,,,,,,,,,,,60ffc5403089b5fc3e1c1a33,61036bb7bb1416c61fa9c1d1,2021-07-29_23h06.42.389,Simcolourproject_2stim_asymm_v5,2020.2.10,MacIntel,60,61025ae37ef11b136ea224fe,,,,,,,,,1019,-61.62109375,29.48046875,1,0,0,response7disk,,1,8.35546875,-4.48828125,1,0,0,rectangle,8.35546875,-4.48828125,1,0,0,8.35546875,-4.48828125,1,0,0,0,47,47,38,1,,,,,,,,
,,,,,,,,,,,,,FF,,,,,,,,1.9005,,,,,,,,,,,,,,,,,,,,,,60ffc5403089b5fc3e1c1a33,61036bb7bb1416c61fa9c1d1,2021-07-29_23h06.42.389,Simcolourproject_2stim_asymm_v5,2020.2.10,MacIntel,60,61025ae37ef11b136ea224fe,,,,,,,,,1844,58.70703125,27.05859375,1,0,0,response1disk,,6,3.890625,-4.1640625,1,0,0,rectangle,3.890625,-4.1640625,1,0,0,3.890625,-4.1640625,1,0,0,0,48,48,89,1,,,,,,,,
,,,,,,,,,,,,,FF,,,,,,,,2.1006,,,,,,,,,,,,,,,,,,,,,,60ffc5403089b5fc3e1c1a33,61036bb7bb1416c61fa9c1d1,2021-07-29_23h06.42.389,Simcolourproject_2stim_asymm_v5,2020.2.10,MacIntel,60,61025ae37ef11b136ea224fe,,,,,,,,,3402,-75.59765625,-48.4609375,1,0,0,response5disk,,2,-7.55859375,-1.1796875,1,0,0,rectangle,80.17578125,-35.19140625,1,0,0,-4.875,-9.1875,1,0,0,0,49,49,151,1,,response3disk_3,TRUE,5,5,"[148,24,213,193,165,185,158,50,216,118,315,126,168,323,286,320,99,265,139,28]",1.6002,rectangle
,,,,,,,,,,,,,FF,,,,,,,,1.6661,,,,,,,,,,,,,,,,,,,,,,60ffc5403089b5fc3e1c1a33,61036bb7bb1416c61fa9c1d1,2021-07-29_23h06.42.389,Simcolourproject_2stim_asymm_v5,2020.2.10,MacIntel,60,61025ae37ef11b136ea224fe,,,,,,,,,1219,66.87890625,-29.2421875,1,0,0,response3disk,,5,4.625,-2.85546875,1,0,0,rectangle,4.625,-2.85546875,1,0,0,4.625,-2.85546875,1,0,0,0,50,50,97,1,,,,,,,,
,,,,,,,,,,,,,FF,,,,,,,,1.899,,,,,,,,,,,,,,,,,,,,,,60ffc5403089b5fc3e1c1a33,61036bb7bb1416c61fa9c1d1,2021-07-29_23h06.42.389,Simcolourproject_2stim_asymm_v5,2020.2.10,MacIntel,60,61025ae37ef11b136ea224fe,,,,,,,,,2347,47.51171875,-39.9375,1,0,0,response3disk,,5,-2.8203125,0.390625,1,0,0,rectangle,-2.8203125,0.390625,1,0,0,-2.8203125,0.390625,1,0,0,0,51,51,68,1,,,,,,,,
,,,,,,,,,,,,,FF,,,,,,,,2.3166,,,,,,,,,,,,,,,,,,,,,,60ffc5403089b5fc3e1c1a33,61036bb7bb1416c61fa9c1d1,2021-07-29_23h06.42.389,Simcolourproject_2stim_asymm_v5,2020.2.10,MacIntel,60,61025ae37ef11b136ea224fe,,,,,,,,,942,70.546875,42.76171875,1,0,0,response1disk,,6,7.07421875,12.34375,1,0,0,rectangle,7.07421875,12.34375,1,0,0,7.07421875,12.34375,1,0,0,0,52,52,79,1,,,,,,,,
,,,,,,,,,,,,,FF,,,,,,,,0.9333,,,,,,,,,,,,,,,,,,,,,,60ffc5403089b5fc3e1c1a33,61036bb7bb1416c61fa9c1d1,2021-07-29_23h06.42.389,Simcolourproject_2stim_asymm_v5,2020.2.10,MacIntel,60,61025ae37ef11b136ea224fe,,,,,,,,,2343,17.67578125,57.9609375,1,0,0,response1disk,,7,-11.34765625,10.15234375,1,0,0,rectangle,-11.34765625,10.15234375,1,0,0,-11.34765625,10.15234375,1,0,0,0,53,53,85,1,,,,,,,,
,,,,,,,,,,,,,FF,,,,,,,,1.6824,,,,,,,,,,,,,,,,,,,,,,60ffc5403089b5fc3e1c1a33,61036bb7bb1416c61fa9c1d1,2021-07-29_23h06.42.389,Simcolourproject_2stim_asymm_v5,2020.2.10,MacIntel,60,61025ae37ef11b136ea224fe,,,,,,,,,3877,35.953125,-55.36328125,1,0,0,response3disk,,4,6.27734375,-3.015625,1,0,0,rectangle,6.27734375,-3.015625,1,0,0,6.27734375,-3.015625,1,0,0,0,54,54,39,1,,,,,,,,
,,,,,,,,,,,,,FF,,,,,,,,0.9826,,,,,,,,,,,,,,,,,,,,,,60ffc5403089b5fc3e1c1a33,61036bb7bb1416c61fa9c1d1,2021-07-29_23h06.42.389,Simcolourproject_2stim_asymm_v5,2020.2.10,MacIntel,60,61025ae37ef11b136ea224fe,,,,,,,,,1181,33.83203125,63.82421875,1,0,0,response1disk,,7,15.0234375,10.1875,1,0,0,rectangle,15.0234375,10.1875,1,0,0,15.0234375,10.1875,1,0,0,0,55,55,7,1,,,,,,,,
,,,,,,,,,,,,,FF,,,,,,,,0.7994,,,,,,,,,,,,,,,,,,,,,,60ffc5403089b5fc3e1c1a33,61036bb7bb1416c61fa9c1d1,2021-07-29_23h06.42.389,Simcolourproject_2stim_asymm_v5,2020.2.10,MacIntel,60,61025ae37ef11b136ea224fe,,,,,,,,,2342,26.546875,47.125,1,0,0,response1disk,,7,9.9765625,-7.984375,1,0,0,rectangle,9.9765625,-7.984375,1,0,0,9.9765625,-7.984375,1,0,0,0,56,56,123,1,,,,,,,,
,,,,,,,,,,,,,FF,,,,,,,,1.0011,,,,,,,,,,,,,,,,,,,,,,60ffc5403089b5fc3e1c1a33,61036bb7bb1416c61fa9c1d1,2021-07-29_23h06.42.389,Simcolourproject_2stim_asymm_v5,2020.2.10,MacIntel,60,61025ae37ef11b136ea224fe,,,,,,,,,2590,60.609375,21.7890625,1,0,0,response1disk,,6,24.9453125,-6.96875,1,0,0,rectangle,24.9453125,-6.96875,1,0,0,24.9453125,-6.96875,1,0,0,0,57,57,158,1,,,,,,,,
,,,,,,,,,,,,,FF,,,,,,,,1.3176,,,,,,,,,,,,,,,,,,,,,,60ffc5403089b5fc3e1c1a33,61036bb7bb1416c61fa9c1d1,2021-07-29_23h06.42.389,Simcolourproject_2stim_asymm_v5,2020.2.10,MacIntel,60,61025ae37ef11b136ea224fe,,,,,,,,,3155,-60.921875,-71.01171875,1,0,0,response5disk,,3,2.5,-3.125,1,0,0,rectangle,2.5,-3.125,1,0,0,2.5,-3.125,1,0,0,0,58,58,34,1,,,,,,,,
,,,,,,,,,,,,,FF,,,,,,,,1.1007,,,,,,,,,,,,,,,,,,,,,,60ffc5403089b5fc3e1c1a33,61036bb7bb1416c61fa9c1d1,2021-07-29_23h06.42.389,Simcolourproject_2stim_asymm_v5,2020.2.10,MacIntel,60,61025ae37ef11b136ea224fe,,,,,,,,,2849,30.15234375,45.03515625,1,0,0,response1disk,,7,22.00390625,7.62890625,1,0,0,rectangle,22.00390625,7.62890625,1,0,0,22.00390625,7.62890625,1,0,0,0,59,59,33,1,,,,,,,,
,,,,,,,,,,,,,FF,,,,,,,,1.3488,,,,,,,,,,,,,,,,,,,,,,60ffc5403089b5fc3e1c1a33,61036bb7bb1416c61fa9c1d1,2021-07-29_23h06.42.389,Simcolourproject_2stim_asymm_v5,2020.2.10,MacIntel,60,61025ae37ef11b136ea224fe,,,,,,,,,3389,34.08984375,-62.42578125,1,0,0,response3disk,,4,-6.4609375,-1.18359375,1,0,0,rectangle,-6.4609375,-1.18359375,1,0,0,-6.4609375,-1.18359375,1,0,0,0,60,60,72,1,,,,,,,,
,,,,,,,,,,,,,FF,,,,,,,,1.316,,,,,,,,,,,,,,,,,,,,,,60ffc5403089b5fc3e1c1a33,61036bb7bb1416c61fa9c1d1,2021-07-29_23h06.42.389,Simcolourproject_2stim_asymm_v5,2020.2.10,MacIntel,60,61025ae37ef11b136ea224fe,,,,,,,,,2689,59.98828125,49.76171875,1,0,0,response1disk,,6,1.26953125,5.4453125,1,0,0,rectangle,1.26953125,5.4453125,1,0,0,1.26953125,5.4453125,1,0,0,0,61,61,57,1,,,,,,,,
,,,,,,,,,,,,,FF,,,,,,,,1.6004,,,,,,,,,,,,,,,,,,,,,,60ffc5403089b5fc3e1c1a33,61036bb7bb1416c61fa9c1d1,2021-07-29_23h06.42.389,Simcolourproject_2stim_asymm_v5,2020.2.10,MacIntel,60,61025ae37ef11b136ea224fe,,,,,,,,,2112,56.1171875,-33.2734375,1,0,0,response3disk,,5,8.375,2.89453125,1,0,0,rectangle,8.375,2.89453125,1,0,0,8.375,2.89453125,1,0,0,0,62,62,155,1,,,,,,,,
,,,,,,,,,,,,,FF,,,,,,,,1.8165,,,,,,,,,,,,,,,,,,,,,,60ffc5403089b5fc3e1c1a33,61036bb7bb1416c61fa9c1d1,2021-07-29_23h06.42.389,Simcolourproject_2stim_asymm_v5,2020.2.10,MacIntel,60,61025ae37ef11b136ea224fe,,,,,,,,,2232,55.26171875,-29.94921875,1,0,0,response3disk,,5,2.52734375,11.171875,1,0,0,rectangle,2.52734375,11.171875,1,0,0,2.52734375,11.171875,1,0,0,0,63,63,74,1,,,,,,,,
,,,,,,,,,,,,,FF,,,,,,,,1.1155,,,,,,,,,,,,,,,,,,,,,,60ffc5403089b5fc3e1c1a33,61036bb7bb1416c61fa9c1d1,2021-07-29_23h06.42.389,Simcolourproject_2stim_asymm_v5,2020.2.10,MacIntel,60,61025ae37ef11b136ea224fe,,,,,,,,,2422,29.55078125,-44.265625,1,0,0,response3disk,,4,5.83984375,-6.5078125,1,0,0,rectangle,5.83984375,-6.5078125,1,0,0,5.83984375,-6.5078125,1,0,0,0,64,64,62,1,,,,,,,,
,,,,,,,,,,,,,FF,,,,,,,,1.1163,,,,,,,,,,,,,,,,,,,,,,60ffc5403089b5fc3e1c1a33,61036bb7bb1416c61fa9c1d1,2021-07-29_23h06.42.389,Simcolourproject_2stim_asymm_v5,2020.2.10,MacIntel,60,61025ae37ef11b136ea224fe,,,,,,,,,314,87.5,39.578125,1,0,0,response1disk,,6,-6.66015625,-11.4609375,1,0,0,rectangle,-6.66015625,-11.4609375,1,0,0,-6.66015625,-11.4609375,1,0,0,0,65,65,115,1,,,,,,,,
,,,,,,,,,,,,,FF,,,,,,,,3.0162,,,,,,,,,,,,,,,,,,,,,,60ffc5403089b5fc3e1c1a33,61036bb7bb1416c61fa9c1d1,2021-07-29_23h06.42.389,Simcolourproject_2stim_asymm_v5,2020.2.10,MacIntel,60,61025ae37ef11b136ea224fe,,,,,,,,,342,41.53515625,-69.078125,1,0,0,response3disk,,4,7.16796875,10.46484375,1,0,0,rectangle,7.16796875,10.46484375,1,0,0,7.16796875,10.46484375,1,0,0,0,66,66,128,1,,,,,,,,
,,,,,,,,,,,,,FF,,,,,,,,3.5825,,,,,,,,,,,,,,,,,,,,,,60ffc5403089b5fc3e1c1a33,61036bb7bb1416c61fa9c1d1,2021-07-29_23h06.42.389,Simcolourproject_2stim_asymm_v5,2020.2.10,MacIntel,60,61025ae37ef11b136ea224fe,,,,,,,,,2839,27.09375,-71.33203125,1,0,0,response3disk,,4,-4.734375,1.77734375,1,0,0,rectangle,-4.734375,1.77734375,1,0,0,-4.734375,1.77734375,1,0,0,0,67,67,82,1,,,,,,,,
,,,,,,,,,,,,,FF,,,,,,,,1.4668,,,,,,,,,,,,,,,,,,,,,,60ffc5403089b5fc3e1c1a33,61036bb7bb1416c61fa9c1d1,2021-07-29_23h06.42.389,Simcolourproject_2stim_asymm_v5,2020.2.10,MacIntel,60,61025ae37ef11b136ea224fe,,,,,,,,,1703,66.35546875,37.38671875,1,0,0,response1disk,,6,14.109375,1.03125,1,0,0,rectangle,14.109375,1.03125,1,0,0,14.109375,1.03125,1,0,0,0,68,68,120,1,,,,,,,,
,,,,,,,,,,,,,FF,,,,,,,,1.4168,,,,,,,,,,,,,,,,,,,,,,60ffc5403089b5fc3e1c1a33,61036bb7bb1416c61fa9c1d1,2021-07-29_23h06.42.389,Simcolourproject_2stim_asymm_v5,2020.2.10,MacIntel,60,61025ae37ef11b136ea224fe,,,,,,,,,1255,51.31640625,27.109375,1,0,0,response1disk,,6,14.61328125,5.72265625,1,0,0,rectangle,14.61328125,5.72265625,1,0,0,14.61328125,5.72265625,1,0,0,0,69,69,102,1,,,,,,,,
,,,,,,,,,,,,,FF,,,,,,,,1.3009,,,,,,,,,,,,,,,,,,,,,,60ffc5403089b5fc3e1c1a33,61036bb7bb1416c61fa9c1d1,2021-07-29_23h06.42.389,Simcolourproject_2stim_asymm_v5,2020.2.10,MacIntel,60,61025ae37ef11b136ea224fe,,,,,,,,,2095,58.71484375,-47.71484375,1,0,0,response3disk,,5,6.0234375,-3.5703125,1,0,0,rectangle,6.0234375,-3.5703125,1,0,0,6.0234375,-3.5703125,1,0,0,0,70,70,43,1,,,,,,,,
,,,,,,,,,,,,,FF,,,,,,,,22.1489,,,,,,,,,,,,,,,,,,,,,,60ffc5403089b5fc3e1c1a33,61036bb7bb1416c61fa9c1d1,2021-07-29_23h06.42.389,Simcolourproject_2stim_asymm_v5,2020.2.10,MacIntel,60,61025ae37ef11b136ea224fe,,,,,,,,,765,76.98046875,25.57421875,1,0,0,response1disk,,6,11.75390625,-1.4375,1,0,0,rectangle,11.75390625,-1.4375,1,0,0,11.75390625,-1.4375,1,0,0,0,71,71,132,1,,,,,,,,
,,,,,,,,,,,,,FF,,,,,,,,0.9179,,,,,,,,,,,,,,,,,,,,,,60ffc5403089b5fc3e1c1a33,61036bb7bb1416c61fa9c1d1,2021-07-29_23h06.42.389,Simcolourproject_2stim_asymm_v5,2020.2.10,MacIntel,60,61025ae37ef11b136ea224fe,,,,,,,,,2514,31.3125,53.7734375,1,0,0,response1disk,,7,11.4296875,-8.85546875,1,0,0,rectangle,11.4296875,-8.85546875,1,0,0,11.4296875,-8.85546875,1,0,0,0,72,72,9,1,,,,,,,,
,,,,,,,,,,,,,FF,,,,,,,,1.2839,,,,,,,,,,,,,,,,,,,,,,60ffc5403089b5fc3e1c1a33,61036bb7bb1416c61fa9c1d1,2021-07-29_23h06.42.389,Simcolourproject_2stim_asymm_v5,2020.2.10,MacIntel,60,61025ae37ef11b136ea224fe,,,,,,,,,612,33.90234375,-63.9375,1,0,0,response3disk,,4,-3.12109375,9.171875,1,0,0,rectangle,-3.12109375,9.171875,1,0,0,-3.12109375,9.171875,1,0,0,0,73,73,28,1,,,,,,,,
,,,,,,,,,,,,,FF,,,,,,,,1.7165,,,,,,,,,,,,,,,,,,,,,,60ffc5403089b5fc3e1c1a33,61036bb7bb1416c61fa9c1d1,2021-07-29_23h06.42.389,Simcolourproject_2stim_asymm_v5,2020.2.10,MacIntel,60,61025ae37ef11b136ea224fe,,,,,,,,,2541,-33.6796875,63.89453125,1,0,0,response7disk,,0,9.2109375,-7.63671875,1,0,0,rectangle,9.2109375,-7.63671875,1,0,0,9.2109375,-7.63671875,1,0,0,0,74,74,121,1,,,,,,,,
,,,,,,,,,,,,,FF,,,,,,,,1.0507,,,,,,,,,,,,,,,,,,,,,,60ffc5403089b5fc3e1c1a33,61036bb7bb1416c61fa9c1d1,2021-07-29_23h06.42.389,Simcolourproject_2stim_asymm_v5,2020.2.10,MacIntel,60,61025ae37ef11b136ea224fe,,,,,,,,,2525,24.21875,43.828125,1,0,0,response1disk,,7,16.54296875,9,1,0,0,rectangle,16.54296875,9,1,0,0,16.54296875,9,1,0,0,0,75,75,60,1,,,,,,,,
,,,,,,,,,,,,,FF,,,,,,,,1.0343,,,,,,,,,,,,,,,,,,,,,,60ffc5403089b5fc3e1c1a33,61036bb7bb1416c61fa9c1d1,2021-07-29_23h06.42.389,Simcolourproject_2stim_asymm_v5,2020.2.10,MacIntel,60,61025ae37ef11b136ea224fe,,,,,,,,,3903,57,-35.02734375,1,0,0,response3disk,,5,10.41796875,4.08203125,1,0,0,rectangle,10.41796875,4.08203125,1,0,0,10.41796875,4.08203125,1,0,0,0,76,76,73,1,,,,,,,,
,,,,,,,,,,,,,FF,,,,,,,,1.4174,,,,,,,,,,,,,,,,,,,,,,60ffc5403089b5fc3e1c1a33,61036bb7bb1416c61fa9c1d1,2021-07-29_23h06.42.389,Simcolourproject_2stim_asymm_v5,2020.2.10,MacIntel,60,61025ae37ef11b136ea224fe,,,,,,,,,2096,-43.95703125,-55.3984375,1,0,0,response5disk,,3,12.75,-1.765625,1,0,0,rectangle,12.75,-1.765625,1,0,0,12.75,-1.765625,1,0,0,0,77,77,47,1,,,,,,,,
,,,,,,,,,,,,,FF,,,,,,,,0.9338,,,,,,,,,,,,,,,,,,,,,,60ffc5403089b5fc3e1c1a33,61036bb7bb1416c61fa9c1d1,2021-07-29_23h06.42.389,Simcolourproject_2stim_asymm_v5,2020.2.10,MacIntel,60,61025ae37ef11b136ea224fe,,,,,,,,,3732,43.87890625,60.2109375,1,0,0,response1disk,,7,29.3671875,13.8828125,1,0,0,rectangle,29.3671875,13.8828125,1,0,0,29.3671875,13.8828125,1,0,0,0,78,78,49,1,,,,,,,,
,,,,,,,,,,,,,FF,,,,,,,,3.4669,,,,,,,,,,,,,,,,,,,,,,60ffc5403089b5fc3e1c1a33,61036bb7bb1416c61fa9c1d1,2021-07-29_23h06.42.389,Simcolourproject_2stim_asymm_v5,2020.2.10,MacIntel,60,61025ae37ef11b136ea224fe,,,,,,,,,2046,35.953125,-53.53125,1,0,0,response3disk,,4,4.578125,-13.78515625,1,0,0,rectangle,4.578125,-13.78515625,1,0,0,4.578125,-13.78515625,1,0,0,0,79,79,95,1,,,,,,,,
,,,,,,,,,,,,,FF,,,,,,,,1.382,,,,,,,,,,,,,,,,,,,,,,60ffc5403089b5fc3e1c1a33,61036bb7bb1416c61fa9c1d1,2021-07-29_23h06.42.389,Simcolourproject_2stim_asymm_v5,2020.2.10,MacIntel,60,61025ae37ef11b136ea224fe,,,,,,,,,2607,-63.0546875,-26.49609375,1,0,0,response5disk,,2,-12.75390625,9.52734375,1,0,0,rectangle,-12.75390625,9.52734375,1,0,0,-12.75390625,9.52734375,1,0,0,0,80,80,63,1,,,,,,,,
,,,,,,,,,,,,,FF,,,,,,,,1.1508,,,,,,,,,,,,,,,,,,,,,,60ffc5403089b5fc3e1c1a33,61036bb7bb1416c61fa9c1d1,2021-07-29_23h06.42.389,Simcolourproject_2stim_asymm_v5,2020.2.10,MacIntel,60,61025ae37ef11b136ea224fe,,,,,,,,,1922,27.9296875,69.69140625,1,0,0,response1disk,,7,14.60546875,5.66015625,1,0,0,rectangle,14.60546875,5.66015625,1,0,0,14.60546875,5.66015625,1,0,0,0,81,81,150,1,,,,,,,,
,,,,,,,,,,,,,FF,,,,,,,,1.0833,,,,,,,,,,,,,,,,,,,,,,60ffc5403089b5fc3e1c1a33,61036bb7bb1416c61fa9c1d1,2021-07-29_23h06.42.389,Simcolourproject_2stim_asymm_v5,2020.2.10,MacIntel,60,61025ae37ef11b136ea224fe,,,,,,,,,791,63.30859375,-27.71484375,1,0,0,response3disk,,5,-1.37109375,-0.109375,1,0,0,rectangle,-1.37109375,-0.109375,1,0,0,-1.37109375,-0.109375,1,0,0,0,82,82,10,1,,,,,,,,
,,,,,,,,,,,,,FF,,,,,,,,1.0834,,,,,,,,,,,,,,,,,,,,,,60ffc5403089b5fc3e1c1a33,61036bb7bb1416c61fa9c1d1,2021-07-29_23h06.42.389,Simcolourproject_2stim_asymm_v5,2020.2.10,MacIntel,60,61025ae37ef11b136ea224fe,,,,,,,,,4341,36.40625,56.203125,1,0,0,response1disk,,7,17.578125,-2.2421875,1,0,0,rectangle,17.578125,-2.2421875,1,0,0,17.578125,-2.2421875,1,0,0,0,83,83,25,1,,,,,,,,
,,,,,,,,,,,,,FF,,,,,,,,0.95,,,,,,,,,,,,,,,,,,,,,,60ffc5403089b5fc3e1c1a33,61036bb7bb1416c61fa9c1d1,2021-07-29_23h06.42.389,Simcolourproject_2stim_asymm_v5,2020.2.10,MacIntel,60,61025ae37ef11b136ea224fe,,,,,,,,,1503,64.01953125,23.75390625,1,0,0,response1disk,,6,-1.42578125,-9.5859375,1,0,0,rectangle,-1.42578125,-9.5859375,1,0,0,-1.42578125,-9.5859375,1,0,0,0,84,84,20,1,,,,,,,,
,,,,,,,,,,,,,FF,,,,,,,,1.7491,,,,,,,,,,,,,,,,,,,,,,60ffc5403089b5fc3e1c1a33,61036bb7bb1416c61fa9c1d1,2021-07-29_23h06.42.389,Simcolourproject_2stim_asymm_v5,2020.2.10,MacIntel,60,61025ae37ef11b136ea224fe,,,,,,,,,2244,56.75,-44.48046875,1,0,0,response3disk,,5,4.171875,-10.8515625,1,0,0,rectangle,4.171875,-10.8515625,1,0,0,4.171875,-10.8515625,1,0,0,0,85,85,46,1,,,,,,,,
,,,,,,,,,,,,,FF,,,,,,,,1.3165,,,,,,,,,,,,,,,,,,,,,,60ffc5403089b5fc3e1c1a33,61036bb7bb1416c61fa9c1d1,2021-07-29_23h06.42.389,Simcolourproject_2stim_asymm_v5,2020.2.10,MacIntel,60,61025ae37ef11b136ea224fe,,,,,,,,,7,23.515625,-47.87109375,1,0,0,response3disk,,4,-4.29296875,3.3515625,1,0,0,rectangle,-4.29296875,3.3515625,1,0,0,-4.29296875,3.3515625,1,0,0,0,86,86,104,1,,,,,,,,
,,,,,,,,,,,,,FF,,,,,,,,1.3321,,,,,,,,,,,,,,,,,,,,,,60ffc5403089b5fc3e1c1a33,61036bb7bb1416c61fa9c1d1,2021-07-29_23h06.42.389,Simcolourproject_2stim_asymm_v5,2020.2.10,MacIntel,60,61025ae37ef11b136ea224fe,,,,,,,,,377,33.2890625,69.3984375,1,0,0,response1disk,,7,5.875,-0.51953125,1,0,0,rectangle,5.875,-0.51953125,1,0,0,5.875,-0.51953125,1,0,0,0,87,87,51,1,,,,,,,,
,,,,,,,,,,,,,FF,,,,,,,,1.0512,,,,,,,,,,,,,,,,,,,,,,60ffc5403089b5fc3e1c1a33,61036bb7bb1416c61fa9c1d1,2021-07-29_23h06.42.389,Simcolourproject_2stim_asymm_v5,2020.2.10,MacIntel,60,61025ae37ef11b136ea224fe,,,,,,,,,4254,79.8984375,-30.4453125,1,0,0,response3disk,,5,10.9921875,2.4453125,1,0,0,rectangle,10.9921875,2.4453125,1,0,0,10.9921875,2.4453125,1,0,0,0,88,88,100,1,,,,,,,,
,,,,,,,,,,,,,FF,,,,,,,,1.216,,,,,,,,,,,,,,,,,,,,,,60ffc5403089b5fc3e1c1a33,61036bb7bb1416c61fa9c1d1,2021-07-29_23h06.42.389,Simcolourproject_2stim_asymm_v5,2020.2.10,MacIntel,60,61025ae37ef11b136ea224fe,,,,,,,,,341,-69.109375,35.15234375,1,0,0,response7disk,,1,20.34765625,-1.671875,1,0,0,rectangle,20.34765625,-1.671875,1,0,0,20.34765625,-1.671875,1,0,0,0,89,89,125,1,,,,,,,,
,,,,,,,,,,,,,FF,,,,,,,,2.4515,,,,,,,,,,,,,,,,,,,,,,60ffc5403089b5fc3e1c1a33,61036bb7bb1416c61fa9c1d1,2021-07-29_23h06.42.389,Simcolourproject_2stim_asymm_v5,2020.2.10,MacIntel,60,61025ae37ef11b136ea224fe,,,,,,,,,654,61.6015625,23.15234375,1,0,0,response1disk,,6,1.1953125,-10.22265625,1,0,0,rectangle,1.1953125,-10.22265625,1,0,0,1.1953125,-10.22265625,1,0,0,0,90,90,1,1,,,,,,,,
,,,,,,,,,,,,,FF,,,,,,,,1.367,,,,,,,,,,,,,,,,,,,,,,60ffc5403089b5fc3e1c1a33,61036bb7bb1416c61fa9c1d1,2021-07-29_23h06.42.389,Simcolourproject_2stim_asymm_v5,2020.2.10,MacIntel,60,61025ae37ef11b136ea224fe,,,,,,,,,4346,-67.92578125,24.74609375,1,0,0,response7disk,,1,18.01171875,-2.921875,1,0,0,rectangle,18.01171875,-2.921875,1,0,0,18.01171875,-2.921875,1,0,0,0,91,91,42,1,,,,,,,,
,,,,,,,,,,,,,FF,,,,,,,,1.8164,,,,,,,,,,,,,,,,,,,,,,60ffc5403089b5fc3e1c1a33,61036bb7bb1416c61fa9c1d1,2021-07-29_23h06.42.389,Simcolourproject_2stim_asymm_v5,2020.2.10,MacIntel,60,61025ae37ef11b136ea224fe,,,,,,,,,3606,52.37890625,45.4140625,1,0,0,response1disk,,6,23.34765625,-1.26171875,1,0,0,rectangle,23.34765625,-1.26171875,1,0,0,23.34765625,-1.26171875,1,0,0,0,92,92,105,1,,,,,,,,
,,,,,,,,,,,,,FF,,,,,,,,0.9502,,,,,,,,,,,,,,,,,,,,,,60ffc5403089b5fc3e1c1a33,61036bb7bb1416c61fa9c1d1,2021-07-29_23h06.42.389,Simcolourproject_2stim_asymm_v5,2020.2.10,MacIntel,60,61025ae37ef11b136ea224fe,,,,,,,,,2582,23.46875,51.0234375,1,0,0,response1disk,,7,11.89453125,-1.625,1,0,0,rectangle,11.89453125,-1.625,1,0,0,11.89453125,-1.625,1,0,0,0,93,93,19,1,,,,,,,,
,,,,,,,,,,,,,FF,,,,,,,,1.0491,,,,,,,,,,,,,,,,,,,,,,60ffc5403089b5fc3e1c1a33,61036bb7bb1416c61fa9c1d1,2021-07-29_23h06.42.389,Simcolourproject_2stim_asymm_v5,2020.2.10,MacIntel,60,61025ae37ef11b136ea224fe,,,,,,,,,348,-77.84765625,-41.9765625,1,0,0,response5disk,,2,-6.015625,1.25390625,1,0,0,rectangle,-6.015625,1.25390625,1,0,0,-6.015625,1.25390625,1,0,0,0,94,94,134,1,,,,,,,,
,,,,,,,,,,,,,FF,,,,,,,,0.9495,,,,,,,,,,,,,,,,,,,,,,60ffc5403089b5fc3e1c1a33,61036bb7bb1416c61fa9c1d1,2021-07-29_23h06.42.389,Simcolourproject_2stim_asymm_v5,2020.2.10,MacIntel,60,61025ae37ef11b136ea224fe,,,,,,,,,414,30.09375,58.74609375,1,0,0,response1disk,,7,13.0703125,-3.203125,1,0,0,rectangle,13.0703125,-3.203125,1,0,0,13.0703125,-3.203125,1,0,0,0,95,95,31,1,,,,,,,,
,,,,,,,,,,,,,FF,,,,,,,,1.0005,,,,,,,,,,,,,,,,,,,,,,60ffc5403089b5fc3e1c1a33,61036bb7bb1416c61fa9c1d1,2021-07-29_23h06.42.389,Simcolourproject_2stim_asymm_v5,2020.2.10,MacIntel,60,61025ae37ef11b136ea224fe,,,,,,,,,1342,61.1015625,29.28515625,1,0,0,response1disk,,6,5.734375,-1.078125,1,0,0,rectangle,5.734375,-1.078125,1,0,0,5.734375,-1.078125,1,0,0,0,96,96,75,1,,,,,,,,
,,,,,,,,,,,,,FF,,,,,,,,1.0329,,,,,,,,,,,,,,,,,,,,,,60ffc5403089b5fc3e1c1a33,61036bb7bb1416c61fa9c1d1,2021-07-29_23h06.42.389,Simcolourproject_2stim_asymm_v5,2020.2.10,MacIntel,60,61025ae37ef11b136ea224fe,,,,,,,,,845,37.5390625,58.4453125,1,0,0,response1disk,,7,2.3125,6.33203125,1,0,0,rectangle,2.3125,6.33203125,1,0,0,2.3125,6.33203125,1,0,0,0,97,97,80,1,,,,,,,,
,,,,,,,,,,,,,FF,,,,,,,,1.2997,,,,,,,,,,,,,,,,,,,,,,60ffc5403089b5fc3e1c1a33,61036bb7bb1416c61fa9c1d1,2021-07-29_23h06.42.389,Simcolourproject_2stim_asymm_v5,2020.2.10,MacIntel,60,61025ae37ef11b136ea224fe,,,,,,,,,3057,53.23828125,-33.5703125,1,0,0,response3disk,,5,-2.38671875,-4.55859375,1,0,0,rectangle,30.671875,60.66796875,1,0,0,12.078125,6.70703125,1,0,0,0,98,98,77,1,,response1disk_3,TRUE,7,7,"[148,24,213,193,165,185,158,50,216,118,315,126,168,323,286,320,99,265,139,28]",2.2331,rectangle
,,,,,,,,,,,,,FF,,,,,,,,1.7832,,,,,,,,,,,,,,,,,,,,,,60ffc5403089b5fc3e1c1a33,61036bb7bb1416c61fa9c1d1,2021-07-29_23h06.42.389,Simcolourproject_2stim_asymm_v5,2020.2.10,MacIntel,60,61025ae37ef11b136ea224fe,,,,,,,,,425,56.14453125,-25.41796875,1,0,0,response3disk,,5,4.10546875,-5.25,1,0,0,rectangle,4.10546875,-5.25,1,0,0,4.10546875,-5.25,1,0,0,0,99,99,6,1,,,,,,,,
,,,,,,,,,,,,,FF,,,,,,,,1.1343,,,,,,,,,,,,,,,,,,,,,,60ffc5403089b5fc3e1c1a33,61036bb7bb1416c61fa9c1d1,2021-07-29_23h06.42.389,Simcolourproject_2stim_asymm_v5,2020.2.10,MacIntel,60,61025ae37ef11b136ea224fe,,,,,,,,,1365,25.69921875,-73.34765625,1,0,0,response3disk,,4,2.66015625,-7.80859375,1,0,0,rectangle,2.66015625,-7.80859375,1,0,0,2.66015625,-7.80859375,1,0,0,0,100,100,127,1,,,,,,,,
,,,,,,,,,,,,,FF,,,,,,,,1.6333,,,,,,,,,,,,,,,,,,,,,,60ffc5403089b5fc3e1c1a33,61036bb7bb1416c61fa9c1d1,2021-07-29_23h06.42.389,Simcolourproject_2stim_asymm_v5,2020.2.10,MacIntel,60,61025ae37ef11b136ea224fe,,,,,,,,,1886,-41.38671875,66.58984375,1,0,0,response7disk,,0,-1.47265625,9.8359375,1,0,0,rectangle,-1.47265625,9.8359375,1,0,0,-1.47265625,9.8359375,1,0,0,0,101,101,66,1,,,,,,,,
,,,,,,,,,,,,,FF,,,,,,,,0.9331,,,,,,,,,,,,,,,,,,,,,,60ffc5403089b5fc3e1c1a33,61036bb7bb1416c61fa9c1d1,2021-07-29_23h06.42.389,Simcolourproject_2stim_asymm_v5,2020.2.10,MacIntel,60,61025ae37ef11b136ea224fe,,,,,,,,,1154,22.62890625,65.15625,1,0,0,response1disk,,7,-2.30859375,-7.0234375,1,0,0,rectangle,-2.30859375,-7.0234375,1,0,0,-2.30859375,-7.0234375,1,0,0,0,102,102,147,1,,,,,,,,
,,,,,,,,,,,,,FF,,,,,,,,2.4674,,,,,,,,,,,,,,,,,,,,,,60ffc5403089b5fc3e1c1a33,61036bb7bb1416c61fa9c1d1,2021-07-29_23h06.42.389,Simcolourproject_2stim_asymm_v5,2020.2.10,MacIntel,60,61025ae37ef11b136ea224fe,,,,,,,,,1482,56.7890625,36.47265625,1,0,0,response1disk,,6,15.79296875,0.796875,1,0,0,rectangle,15.79296875,0.796875,1,0,0,15.79296875,0.796875,1,0,0,0,103,103,142,1,,,,,,,,
,,,,,,,,,,,,,FF,,,,,,,,2.5015,,,,,,,,,,,,,,,,,,,,,,60ffc5403089b5fc3e1c1a33,61036bb7bb1416c61fa9c1d1,2021-07-29_23h06.42.389,Simcolourproject_2stim_asymm_v5,2020.2.10,MacIntel,60,61025ae37ef11b136ea224fe,,,,,,,,,431,-36.37890625,-77.2265625,1,0,0,response5disk,,3,-8.2734375,-9.2421875,1,0,0,rectangle,-8.2734375,-9.2421875,1,0,0,-8.2734375,-9.2421875,1,0,0,0,104,104,4,1,,,,,,,,
,,,,,,,,,,,,,FF,,,,,,,,3.8502,,,,,,,,,,,,,,,,,,,,,,60ffc5403089b5fc3e1c1a33,61036bb7bb1416c61fa9c1d1,2021-07-29_23h06.42.389,Simcolourproject_2stim_asymm_v5,2020.2.10,MacIntel,60,61025ae37ef11b136ea224fe,,,,,,,,,1499,44.984375,-21.37109375,1,0,0,response3disk,,5,8.515625,-6.8359375,1,0,0,rectangle,8.515625,-6.8359375,1,0,0,8.515625,-6.8359375,1,0,0,0,105,105,118,1,,,,,,,,
,,,,,,,,,,,,,FF,,,,,,,,1.433,,,,,,,,,,,,,,,,,,,,,,60ffc5403089b5fc3e1c1a33,61036bb7bb1416c61fa9c1d1,2021-07-29_23h06.42.389,Simcolourproject_2stim_asymm_v5,2020.2.10,MacIntel,60,61025ae37ef11b136ea224fe,,,,,,,,,4293,-71.27734375,-18.01953125,1,0,0,response5disk,,2,-15.375,2.140625,1,0,0,rectangle,-15.375,2.140625,1,0,0,-15.375,2.140625,1,0,0,0,106,106,129,1,,,,,,,,
,,,,,,,,,,,,,FF,,,,,,,,1.3512,,,,,,,,,,,,,,,,,,,,,,60ffc5403089b5fc3e1c1a33,61036bb7bb1416c61fa9c1d1,2021-07-29_23h06.42.389,Simcolourproject_2stim_asymm_v5,2020.2.10,MacIntel,60,61025ae37ef11b136ea224fe,,,,,,,,,3282,24.7578125,62.1640625,1,0,0,response1disk,,7,-2.7890625,0.14453125,1,0,0,rectangle,-2.7890625,0.14453125,1,0,0,-2.7890625,0.14453125,1,0,0,0,107,107,154,1,,,,,,,,
,,,,,,,,,,,,,FF,,,,,,,,0.8009,,,,,,,,,,,,,,,,,,,,,,60ffc5403089b5fc3e1c1a33,61036bb7bb1416c61fa9c1d1,2021-07-29_23h06.42.389,Simcolourproject_2stim_asymm_v5,2020.2.10,MacIntel,60,61025ae37ef11b136ea224fe,,,,,,,,,2222,27.89453125,45.828125,1,0,0,response1disk,,7,8.75390625,4.1328125,1,0,0,rectangle,8.75390625,4.1328125,1,0,0,8.75390625,4.1328125,1,0,0,0,108,108,96,1,,,,,,,,
,,,,,,,,,,,,,FF,,,,,,,,1.4679,,,,,,,,,,,,,,,,,,,,,,60ffc5403089b5fc3e1c1a33,61036bb7bb1416c61fa9c1d1,2021-07-29_23h06.42.389,Simcolourproject_2stim_asymm_v5,2020.2.10,MacIntel,60,61025ae37ef11b136ea224fe,,,,,,,,,231,59.19140625,26.953125,1,0,0,response1disk,,6,17.3515625,-13.28125,1,0,0,rectangle,17.3515625,-13.28125,1,0,0,17.3515625,-13.28125,1,0,0,0,109,109,141,1,,,,,,,,
,,,,,,,,,,,,,FF,,,,,,,,1.0991,,,,,,,,,,,,,,,,,,,,,,60ffc5403089b5fc3e1c1a33,61036bb7bb1416c61fa9c1d1,2021-07-29_23h06.42.389,Simcolourproject_2stim_asymm_v5,2020.2.10,MacIntel,60,61025ae37ef11b136ea224fe,,,,,,,,,1562,19.484375,60.3203125,1,0,0,response1disk,,7,-9.97265625,6.49609375,1,0,0,rectangle,-9.97265625,6.49609375,1,0,0,-9.97265625,6.49609375,1,0,0,0,110,110,131,1,,,,,,,,
,,,,,,,,,,,,,FF,,,,,,,,0.9843,,,,,,,,,,,,,,,,,,,,,,60ffc5403089b5fc3e1c1a33,61036bb7bb1416c61fa9c1d1,2021-07-29_23h06.42.389,Simcolourproject_2stim_asymm_v5,2020.2.10,MacIntel,60,61025ae37ef11b136ea224fe,,,,,,,,,3311,48.52734375,18.265625,1,0,0,response1disk,,6,9.28125,-11.9140625,1,0,0,rectangle,9.28125,-11.9140625,1,0,0,9.28125,-11.9140625,1,0,0,0,111,111,24,1,,,,,,,,
,,,,,,,,,,,,,FF,,,,,,,,1.1332,,,,,,,,,,,,,,,,,,,,,,60ffc5403089b5fc3e1c1a33,61036bb7bb1416c61fa9c1d1,2021-07-29_23h06.42.389,Simcolourproject_2stim_asymm_v5,2020.2.10,MacIntel,60,61025ae37ef11b136ea224fe,,,,,,,,,1840,69.12109375,-19.3359375,1,0,0,response3disk,,5,-4.64453125,3.83203125,1,0,0,rectangle,-4.64453125,3.83203125,1,0,0,-4.64453125,3.83203125,1,0,0,0,112,112,35,1,,,,,,,,
,,,,,,,,,,,,,FF,,,,,,,,1.1673,,,,,,,,,,,,,,,,,,,,,,60ffc5403089b5fc3e1c1a33,61036bb7bb1416c61fa9c1d1,2021-07-29_23h06.42.389,Simcolourproject_2stim_asymm_v5,2020.2.10,MacIntel,60,61025ae37ef11b136ea224fe,,,,,,,,,21,83.375,26.80078125,1,0,0,response1disk,,6,-1.53125,-8.64453125,1,0,0,rectangle,-1.53125,-8.64453125,1,0,0,-1.53125,-8.64453125,1,0,0,0,113,113,159,1,,,,,,,,
,,,,,,,,,,,,,FF,,,,,,,,1.3493,,,,,,,,,,,,,,,,,,,,,,60ffc5403089b5fc3e1c1a33,61036bb7bb1416c61fa9c1d1,2021-07-29_23h06.42.389,Simcolourproject_2stim_asymm_v5,2020.2.10,MacIntel,60,61025ae37ef11b136ea224fe,,,,,,,,,4318,35.6171875,66.140625,1,0,0,response1disk,,7,11.9453125,4.875,1,0,0,rectangle,11.9453125,4.875,1,0,0,11.9453125,4.875,1,0,0,0,114,114,87,1,,,,,,,,
,,,,,,,,,,,,,FF,,,,,,,,1.5177,,,,,,,,,,,,,,,,,,,,,,60ffc5403089b5fc3e1c1a33,61036bb7bb1416c61fa9c1d1,2021-07-29_23h06.42.389,Simcolourproject_2stim_asymm_v5,2020.2.10,MacIntel,60,61025ae37ef11b136ea224fe,,,,,,,,,4327,-52.46875,41.609375,1,0,0,response7disk,,1,15.1484375,4.015625,1,0,0,rectangle,15.1484375,4.015625,1,0,0,15.1484375,4.015625,1,0,0,0,115,115,136,1,,,,,,,,
,,,,,,,,,,,,,FF,,,,,,,,0.7667,,,,,,,,,,,,,,,,,,,,,,60ffc5403089b5fc3e1c1a33,61036bb7bb1416c61fa9c1d1,2021-07-29_23h06.42.389,Simcolourproject_2stim_asymm_v5,2020.2.10,MacIntel,60,61025ae37ef11b136ea224fe,,,,,,,,,312,32.55859375,63.36328125,1,0,0,response1disk,,7,15.22265625,-3.46875,1,0,0,rectangle,15.22265625,-3.46875,1,0,0,15.22265625,-3.46875,1,0,0,0,116,116,69,1,,,,,,,,
,,,,,,,,,,,,,FF,,,,,,,,1.2167,,,,,,,,,,,,,,,,,,,,,,60ffc5403089b5fc3e1c1a33,61036bb7bb1416c61fa9c1d1,2021-07-29_23h06.42.389,Simcolourproject_2stim_asymm_v5,2020.2.10,MacIntel,60,61025ae37ef11b136ea224fe,,,,,,,,,1735,-60.8515625,-28.265625,1,0,0,response5disk,,2,8.35546875,3.0625,1,0,0,rectangle,63.96875,-33.1015625,1,0,0,0.953125,-9.51171875,1,0,0,0,117,117,11,1,,response3disk_3,TRUE,5,5,"[148,24,213,193,165,185,158,50,216,118,315,126,168,323,286,320,99,265,139,28]",2.0995,rectangle
,,,,,,,,,,,,,FF,,,,,,,,1.6164,,,,,,,,,,,,,,,,,,,,,,60ffc5403089b5fc3e1c1a33,61036bb7bb1416c61fa9c1d1,2021-07-29_23h06.42.389,Simcolourproject_2stim_asymm_v5,2020.2.10,MacIntel,60,61025ae37ef11b136ea224fe,,,,,,,,,2959,45.0703125,68.45703125,1,0,0,response1disk,,7,12.45703125,4.86328125,1,0,0,rectangle,12.45703125,4.86328125,1,0,0,12.45703125,4.86328125,1,0,0,0,118,118,50,1,,,,,,,,
,,,,,,,,,,,,,FF,,,,,,,,1.4655,,,,,,,,,,,,,,,,,,,,,,60ffc5403089b5fc3e1c1a33,61036bb7bb1416c61fa9c1d1,2021-07-29_23h06.42.389,Simcolourproject_2stim_asymm_v5,2020.2.10,MacIntel,60,61025ae37ef11b136ea224fe,,,,,,,,,3707,-62.44140625,27.75390625,1,0,0,response7disk,,1,-0.34765625,5.1171875,1,0,0,rectangle,-0.34765625,5.1171875,1,0,0,-0.34765625,5.1171875,1,0,0,0,119,119,15,1,,,,,,,,
,,,,,,,,,,,,,FF,,,,,,,,0.7335,,,,,,,,,,,,,,,,,,,,,,60ffc5403089b5fc3e1c1a33,61036bb7bb1416c61fa9c1d1,2021-07-29_23h06.42.389,Simcolourproject_2stim_asymm_v5,2020.2.10,MacIntel,60,61025ae37ef11b136ea224fe,,,,,,,,,1575,24.67578125,69.28125,1,0,0,response1disk,,7,0.2265625,-10.34375,1,0,0,rectangle,0.2265625,-10.34375,1,0,0,0.2265625,-10.34375,1,0,0,0,120,120,8,1,,,,,,,,
,,,,,,,,,,,,,FF,,,,,,,,0.8347,,,,,,,,,,,,,,,,,,,,,,60ffc5403089b5fc3e1c1a33,61036bb7bb1416c61fa9c1d1,2021-07-29_23h06.42.389,Simcolourproject_2stim_asymm_v5,2020.2.10,MacIntel,60,61025ae37ef11b136ea224fe,,,,,,,,,4292,29.14453125,50.72265625,1,0,0,response1disk,,7,8.87109375,3.6796875,1,0,0,rectangle,8.87109375,3.6796875,1,0,0,8.87109375,3.6796875,1,0,0,0,121,121,26,1,,,,,,,,
,,,,,,,,,,,,,FF,,,,,,,,1.3837,,,,,,,,,,,,,,,,,,,,,,60ffc5403089b5fc3e1c1a33,61036bb7bb1416c61fa9c1d1,2021-07-29_23h06.42.389,Simcolourproject_2stim_asymm_v5,2020.2.10,MacIntel,60,61025ae37ef11b136ea224fe,,,,,,,,,659,75.796875,39.140625,1,0,0,response1disk,,6,-0.4609375,-6.6015625,1,0,0,rectangle,-0.4609375,-6.6015625,1,0,0,-0.4609375,-6.6015625,1,0,0,0,122,122,107,1,,,,,,,,
,,,,,,,,,,,,,FF,,,,,,,,0.9649,,,,,,,,,,,,,,,,,,,,,,60ffc5403089b5fc3e1c1a33,61036bb7bb1416c61fa9c1d1,2021-07-29_23h06.42.389,Simcolourproject_2stim_asymm_v5,2020.2.10,MacIntel,60,61025ae37ef11b136ea224fe,,,,,,,,,2260,23.0703125,58.24609375,1,0,0,response1disk,,7,-7.328125,0.1484375,1,0,0,rectangle,-7.328125,0.1484375,1,0,0,-7.328125,0.1484375,1,0,0,0,123,123,3,1,,,,,,,,
,,,,,,,,,,,,,FF,,,,,,,,0.8491,,,,,,,,,,,,,,,,,,,,,,60ffc5403089b5fc3e1c1a33,61036bb7bb1416c61fa9c1d1,2021-07-29_23h06.42.389,Simcolourproject_2stim_asymm_v5,2020.2.10,MacIntel,60,61025ae37ef11b136ea224fe,,,,,,,,,1155,45.85546875,60.50390625,1,0,0,response1disk,,7,12.28515625,-4.33203125,1,0,0,rectangle,12.28515625,-4.33203125,1,0,0,12.28515625,-4.33203125,1,0,0,0,124,124,117,1,,,,,,,,
,,,,,,,,,,,,,FF,,,,,,,,1.2999,,,,,,,,,,,,,,,,,,,,,,60ffc5403089b5fc3e1c1a33,61036bb7bb1416c61fa9c1d1,2021-07-29_23h06.42.389,Simcolourproject_2stim_asymm_v5,2020.2.10,MacIntel,60,61025ae37ef11b136ea224fe,,,,,,,,,2366,66.11328125,-49.98046875,1,0,0,response3disk,,5,11.03515625,-9.80078125,1,0,0,rectangle,-46.109375,-67.94140625,1,0,0,-6.75,3.52734375,1,0,0,0,125,125,44,1,,response5disk_3,TRUE,3,3,"[148,24,213,193,165,185,158,50,216,118,315,126,168,323,286,320,99,265,139,28]",2.033,rectangle
,,,,,,,,,,,,,FF,,,,,,,,2.2159,,,,,,,,,,,,,,,,,,,,,,60ffc5403089b5fc3e1c1a33,61036bb7bb1416c61fa9c1d1,2021-07-29_23h06.42.389,Simcolourproject_2stim_asymm_v5,2020.2.10,MacIntel,60,61025ae37ef11b136ea224fe,,,,,,,,,3005,51.81640625,-25.31640625,1,0,0,response3disk,,5,13.46875,-2.49609375,1,0,0,rectangle,13.46875,-2.49609375,1,0,0,13.46875,-2.49609375,1,0,0,0,126,126,110,1,,,,,,,,
,,,,,,,,,,,,,FF,,,,,,,,0.8004,,,,,,,,,,,,,,,,,,,,,,60ffc5403089b5fc3e1c1a33,61036bb7bb1416c61fa9c1d1,2021-07-29_23h06.42.389,Simcolourproject_2stim_asymm_v5,2020.2.10,MacIntel,60,61025ae37ef11b136ea224fe,,,,,,,,,3886,24.62109375,50.82421875,1,0,0,response1disk,,7,10.3359375,-3.6015625,1,0,0,rectangle,10.3359375,-3.6015625,1,0,0,10.3359375,-3.6015625,1,0,0,0,127,127,149,1,,,,,,,,
,,,,,,,,,,,,,FF,,,,,,,,0.6842,,,,,,,,,,,,,,,,,,,,,,60ffc5403089b5fc3e1c1a33,61036bb7bb1416c61fa9c1d1,2021-07-29_23h06.42.389,Simcolourproject_2stim_asymm_v5,2020.2.10,MacIntel,60,61025ae37ef11b136ea224fe,,,,,,,,,2434,80.70703125,46.00390625,1,0,0,response1disk,,6,7.25,-3.8515625,1,0,0,rectangle,7.25,-3.8515625,1,0,0,7.25,-3.8515625,1,0,0,0,128,128,12,1,,,,,,,,
,,,,,,,,,,,,,FF,,,,,,,,2.3511,,,,,,,,,,,,,,,,,,,,,,60ffc5403089b5fc3e1c1a33,61036bb7bb1416c61fa9c1d1,2021-07-29_23h06.42.389,Simcolourproject_2stim_asymm_v5,2020.2.10,MacIntel,60,61025ae37ef11b136ea224fe,,,,,,,,,1683,-31.76171875,-66.84375,1,0,0,response5disk,,3,0.125,-4.42578125,1,0,0,rectangle,0.125,-4.42578125,1,0,0,0.125,-4.42578125,1,0,0,0,129,129,101,1,,,,,,,,
,,,,,,,,,,,,,FF,,,,,,,,2.3494,,,,,,,,,,,,,,,,,,,,,,60ffc5403089b5fc3e1c1a33,61036bb7bb1416c61fa9c1d1,2021-07-29_23h06.42.389,Simcolourproject_2stim_asymm_v5,2020.2.10,MacIntel,60,61025ae37ef11b136ea224fe,,,,,,,,,4019,62.01953125,-35.08984375,1,0,0,response3disk,,5,15.5546875,-8.140625,1,0,0,rectangle,15.5546875,-8.140625,1,0,0,15.5546875,-8.140625,1,0,0,0,130,130,140,1,,,,,,,,
,,,,,,,,,,,,,FF,,,,,,,,1.1663,,,,,,,,,,,,,,,,,,,,,,60ffc5403089b5fc3e1c1a33,61036bb7bb1416c61fa9c1d1,2021-07-29_23h06.42.389,Simcolourproject_2stim_asymm_v5,2020.2.10,MacIntel,60,61025ae37ef11b136ea224fe,,,,,,,,,1645,31.6171875,55.1953125,1,0,0,response1disk,,7,16.3671875,-9.90234375,1,0,0,rectangle,16.3671875,-9.90234375,1,0,0,16.3671875,-9.90234375,1,0,0,0,131,131,0,1,,,,,,,,
,,,,,,,,,,,,,FF,,,,,,,,0.7012,,,,,,,,,,,,,,,,,,,,,,60ffc5403089b5fc3e1c1a33,61036bb7bb1416c61fa9c1d1,2021-07-29_23h06.42.389,Simcolourproject_2stim_asymm_v5,2020.2.10,MacIntel,60,61025ae37ef11b136ea224fe,,,,,,,,,326,24.3203125,69.1328125,1,0,0,response1disk,,7,5.8984375,4.69140625,1,0,0,rectangle,5.8984375,4.69140625,1,0,0,5.8984375,4.69140625,1,0,0,0,132,132,103,1,,,,,,,,
,,,,,,,,,,,,,FF,,,,,,,,1.1842,,,,,,,,,,,,,,,,,,,,,,60ffc5403089b5fc3e1c1a33,61036bb7bb1416c61fa9c1d1,2021-07-29_23h06.42.389,Simcolourproject_2stim_asymm_v5,2020.2.10,MacIntel,60,61025ae37ef11b136ea224fe,,,,,,,,,48,16.55078125,58.7890625,1,0,0,response1disk,,7,-3.734375,-0.421875,1,0,0,rectangle,-3.734375,-0.421875,1,0,0,-3.734375,-0.421875,1,0,0,0,133,133,55,1,,,,,,,,
,,,,,,,,,,,,,FF,,,,,,,,1.0342,,,,,,,,,,,,,,,,,,,,,,60ffc5403089b5fc3e1c1a33,61036bb7bb1416c61fa9c1d1,2021-07-29_23h06.42.389,Simcolourproject_2stim_asymm_v5,2020.2.10,MacIntel,60,61025ae37ef11b136ea224fe,,,,,,,,,505,25.97265625,53.2890625,1,0,0,response1disk,,7,10.37890625,3,1,0,0,rectangle,10.37890625,3,1,0,0,10.37890625,3,1,0,0,0,134,134,133,1,,,,,,,,
,,,,,,,,,,,,,FF,,,,,,,,0.8171,,,,,,,,,,,,,,,,,,,,,,60ffc5403089b5fc3e1c1a33,61036bb7bb1416c61fa9c1d1,2021-07-29_23h06.42.389,Simcolourproject_2stim_asymm_v5,2020.2.10,MacIntel,60,61025ae37ef11b136ea224fe,,,,,,,,,3545,76.9375,39.390625,1,0,0,response1disk,,6,11.47265625,-7.55859375,1,0,0,rectangle,11.47265625,-7.55859375,1,0,0,11.47265625,-7.55859375,1,0,0,0,135,135,153,1,,,,,,,,
,,,,,,,,,,,,,FF,,,,,,,,0.9,,,,,,,,,,,,,,,,,,,,,,60ffc5403089b5fc3e1c1a33,61036bb7bb1416c61fa9c1d1,2021-07-29_23h06.42.389,Simcolourproject_2stim_asymm_v5,2020.2.10,MacIntel,60,61025ae37ef11b136ea224fe,,,,,,,,,2902,51.12890625,-34.578125,1,0,0,response3disk,,5,-3.94140625,-10.9296875,1,0,0,rectangle,-3.94140625,-10.9296875,1,0,0,-3.94140625,-10.9296875,1,0,0,0,136,136,16,1,,,,,,,,
,,,,,,,,,,,,,FF,,,,,,,,0.8001,,,,,,,,,,,,,,,,,,,,,,60ffc5403089b5fc3e1c1a33,61036bb7bb1416c61fa9c1d1,2021-07-29_23h06.42.389,Simcolourproject_2stim_asymm_v5,2020.2.10,MacIntel,60,61025ae37ef11b136ea224fe,,,,,,,,,249,34.421875,-65.06640625,1,0,0,response3disk,,4,6.28125,-12.73828125,1,0,0,rectangle,6.28125,-12.73828125,1,0,0,6.28125,-12.73828125,1,0,0,0,137,137,70,1,,,,,,,,
,,,,,,,,,,,,,FF,,,,,,,,1.1352,,,,,,,,,,,,,,,,,,,,,,60ffc5403089b5fc3e1c1a33,61036bb7bb1416c61fa9c1d1,2021-07-29_23h06.42.389,Simcolourproject_2stim_asymm_v5,2020.2.10,MacIntel,60,61025ae37ef11b136ea224fe,,,,,,,,,1331,30.984375,63.68359375,1,0,0,response1disk,,7,3.31640625,12.7890625,1,0,0,rectangle,-51.33203125,58.37109375,1,0,0,-7.86328125,-2.390625,1,0,0,0,138,138,113,1,,response7disk_3,TRUE,0,0,"[148,24,213,193,165,185,158,50,216,118,315,126,168,323,286,320,99,265,139,28]",1.6663,rectangle
,,,,,,,,,,,,,FF,,,,,,,,27.0163,,,,,,,,,,,,,,,,,,,,,,60ffc5403089b5fc3e1c1a33,61036bb7bb1416c61fa9c1d1,2021-07-29_23h06.42.389,Simcolourproject_2stim_asymm_v5,2020.2.10,MacIntel,60,61025ae37ef11b136ea224fe,,,,,,,,,4169,37.51171875,-53.43359375,1,0,0,response3disk,,4,-0.01953125,-13.44140625,1,0,0,rectangle,-0.01953125,-13.44140625,1,0,0,-0.01953125,-13.44140625,1,0,0,0,139,139,119,1,,,,,,,,
,,,,,,,,,,,,,FF,,,,,,,,4.6661,,,,,,,,,,,,,,,,,,,,,,60ffc5403089b5fc3e1c1a33,61036bb7bb1416c61fa9c1d1,2021-07-29_23h06.42.389,Simcolourproject_2stim_asymm_v5,2020.2.10,MacIntel,60,61025ae37ef11b136ea224fe,,,,,,,,,88,62.03125,-31.09765625,1,0,0,response3disk,,5,3.66796875,3.53125,1,0,0,rectangle,3.66796875,3.53125,1,0,0,3.66796875,3.53125,1,0,0,0,140,140,65,1,,,,,,,,
,,,,,,,,,,,,,FF,,,,,,,,1.6006,,,,,,,,,,,,,,,,,,,,,,60ffc5403089b5fc3e1c1a33,61036bb7bb1416c61fa9c1d1,2021-07-29_23h06.42.389,Simcolourproject_2stim_asymm_v5,2020.2.10,MacIntel,60,61025ae37ef11b136ea224fe,,,,,,,,,465,38.23046875,51.70703125,1,0,0,response1disk,,7,1.80078125,-5.17578125,1,0,0,rectangle,1.80078125,-5.17578125,1,0,0,1.80078125,-5.17578125,1,0,0,0,141,141,54,1,,,,,,,,
,,,,,,,,,,,,,FF,,,,,,,,0.7335,,,,,,,,,,,,,,,,,,,,,,60ffc5403089b5fc3e1c1a33,61036bb7bb1416c61fa9c1d1,2021-07-29_23h06.42.389,Simcolourproject_2stim_asymm_v5,2020.2.10,MacIntel,60,61025ae37ef11b136ea224fe,,,,,,,,,3495,55.375,30.5703125,1,0,0,response1disk,,6,-1.16015625,-6.109375,1,0,0,rectangle,-1.16015625,-6.109375,1,0,0,-1.16015625,-6.109375,1,0,0,0,142,142,17,1,,,,,,,,
,,,,,,,,,,,,,FF,,,,,,,,0.8994,,,,,,,,,,,,,,,,,,,,,,60ffc5403089b5fc3e1c1a33,61036bb7bb1416c61fa9c1d1,2021-07-29_23h06.42.389,Simcolourproject_2stim_asymm_v5,2020.2.10,MacIntel,60,61025ae37ef11b136ea224fe,,,,,,,,,1383,59.08984375,-44.8046875,1,0,0,response3disk,,5,-7.34765625,4.33984375,1,0,0,rectangle,-7.34765625,4.33984375,1,0,0,-7.34765625,4.33984375,1,0,0,0,143,143,59,1,,,,,,,,
,,,,,,,,,,,,,FF,,,,,,,,0.9164,,,,,,,,,,,,,,,,,,,,,,60ffc5403089b5fc3e1c1a33,61036bb7bb1416c61fa9c1d1,2021-07-29_23h06.42.389,Simcolourproject_2stim_asymm_v5,2020.2.10,MacIntel,60,61025ae37ef11b136ea224fe,,,,,,,,,3358,19.625,83.296875,1,0,0,response1disk,,7,2.48828125,6.9375,1,0,0,rectangle,2.48828125,6.9375,1,0,0,2.48828125,6.9375,1,0,0,0,144,144,36,1,,,,,,,,
,,,,,,,,,,,,,FF,,,,,,,,1.4333,,,,,,,,,,,,,,,,,,,,,,60ffc5403089b5fc3e1c1a33,61036bb7bb1416c61fa9c1d1,2021-07-29_23h06.42.389,Simcolourproject_2stim_asymm_v5,2020.2.10,MacIntel,60,61025ae37ef11b136ea224fe,,,,,,,,,616,38.171875,-47.3515625,1,0,0,response3disk,,4,-10.12109375,9.3203125,1,0,0,rectangle,-10.12109375,9.3203125,1,0,0,-10.12109375,9.3203125,1,0,0,0,145,145,157,1,,,,,,,,
,,,,,,,,,,,,,FF,,,,,,,,0.717,,,,,,,,,,,,,,,,,,,,,,60ffc5403089b5fc3e1c1a33,61036bb7bb1416c61fa9c1d1,2021-07-29_23h06.42.389,Simcolourproject_2stim_asymm_v5,2020.2.10,MacIntel,60,61025ae37ef11b136ea224fe,,,,,,,,,2566,20.64453125,51.63671875,1,0,0,response1disk,,7,3.98828125,-5.2890625,1,0,0,rectangle,3.98828125,-5.2890625,1,0,0,3.98828125,-5.2890625,1,0,0,0,146,146,122,1,,,,,,,,
,,,,,,,,,,,,,FF,,,,,,,,0.7005,,,,,,,,,,,,,,,,,,,,,,60ffc5403089b5fc3e1c1a33,61036bb7bb1416c61fa9c1d1,2021-07-29_23h06.42.389,Simcolourproject_2stim_asymm_v5,2020.2.10,MacIntel,60,61025ae37ef11b136ea224fe,,,,,,,,,4229,67.82421875,17.2578125,1,0,0,response1disk,,6,4.85546875,-6.40234375,1,0,0,rectangle,-20.73828125,60.8515625,1,0,0,0.671875,-1.62890625,1,0,0,0,147,147,71,1,,response7disk_3,TRUE,0,0,"[148,24,213,193,165,185,158,50,216,118,315,126,168,323,286,320,99,265,139,28]",1.4817,rectangle
,,,,,,,,,,,,,FF,,,,,,,,2.0999,,,,,,,,,,,,,,,,,,,,,,60ffc5403089b5fc3e1c1a33,61036bb7bb1416c61fa9c1d1,2021-07-29_23h06.42.389,Simcolourproject_2stim_asymm_v5,2020.2.10,MacIntel,60,61025ae37ef11b136ea224fe,,,,,,,,,4032,-25.50390625,-88.28515625,1,0,0,response5disk,,3,6.796875,-11.85546875,1,0,0,rectangle,6.796875,-11.85546875,1,0,0,6.796875,-11.85546875,1,0,0,0,148,148,64,1,,,,,,,,
,,,,,,,,,,,,,FF,,,,,,,,1.0823,,,,,,,,,,,,,,,,,,,,,,60ffc5403089b5fc3e1c1a33,61036bb7bb1416c61fa9c1d1,2021-07-29_23h06.42.389,Simcolourproject_2stim_asymm_v5,2020.2.10,MacIntel,60,61025ae37ef11b136ea224fe,,,,,,,,,3000,-53.3203125,29.66796875,1,0,0,response7disk,,1,14.57421875,-9,1,0,0,rectangle,14.57421875,-9,1,0,0,14.57421875,-9,1,0,0,0,149,149,13,1,,,,,,,,
,,,,,,,,,,,,,FF,,,,,,,,1.8006,,,,,,,,,,,,,,,,,,,,,,60ffc5403089b5fc3e1c1a33,61036bb7bb1416c61fa9c1d1,2021-07-29_23h06.42.389,Simcolourproject_2stim_asymm_v5,2020.2.10,MacIntel,60,61025ae37ef11b136ea224fe,,,,,,,,,1391,18.390625,-65.703125,1,0,0,response3disk,,4,-8.66796875,5.75,1,0,0,rectangle,-8.66796875,5.75,1,0,0,-8.66796875,5.75,1,0,0,0,150,150,111,1,,,,,,,,
,,,,,,,,,,,,,FF,,,,,,,,1.8167,,,,,,,,,,,,,,,,,,,,,,60ffc5403089b5fc3e1c1a33,61036bb7bb1416c61fa9c1d1,2021-07-29_23h06.42.389,Simcolourproject_2stim_asymm_v5,2020.2.10,MacIntel,60,61025ae37ef11b136ea224fe,,,,,,,,,1004,62.76171875,17.90625,1,0,0,response1disk,,6,16.8359375,-0.1953125,1,0,0,rectangle,16.8359375,-0.1953125,1,0,0,16.8359375,-0.1953125,1,0,0,0,151,151,58,1,,,,,,,,
,,,,,,,,,,,,,FF,,,,,,,,0.7823,,,,,,,,,,,,,,,,,,,,,,60ffc5403089b5fc3e1c1a33,61036bb7bb1416c61fa9c1d1,2021-07-29_23h06.42.389,Simcolourproject_2stim_asymm_v5,2020.2.10,MacIntel,60,61025ae37ef11b136ea224fe,,,,,,,,,1077,26.125,60.23046875,1,0,0,response1disk,,7,-2.21875,7.41015625,1,0,0,rectangle,-2.21875,7.41015625,1,0,0,-2.21875,7.41015625,1,0,0,0,152,152,2,1,,,,,,,,
,,,,,,,,,,,,,FF,,,,,,,,2.0835,,,,,,,,,,,,,,,,,,,,,,60ffc5403089b5fc3e1c1a33,61036bb7bb1416c61fa9c1d1,2021-07-29_23h06.42.389,Simcolourproject_2stim_asymm_v5,2020.2.10,MacIntel,60,61025ae37ef11b136ea224fe,,,,,,,,,196,73.06640625,-33.83984375,1,0,0,response3disk,,5,-15.8828125,13.54296875,1,0,0,rectangle,-15.8828125,13.54296875,1,0,0,-15.8828125,13.54296875,1,0,0,0,153,153,81,1,,,,,,,,
,,,,,,,,,,,,,FF,,,,,,,,1.7658,,,,,,,,,,,,,,,,,,,,,,60ffc5403089b5fc3e1c1a33,61036bb7bb1416c61fa9c1d1,2021-07-29_23h06.42.389,Simcolourproject_2stim_asymm_v5,2020.2.10,MacIntel,60,61025ae37ef11b136ea224fe,,,,,,,,,2768,62.4375,-35.93359375,1,0,0,response3disk,,5,-8.40234375,7.5703125,1,0,0,rectangle,-8.40234375,7.5703125,1,0,0,-8.40234375,7.5703125,1,0,0,0,154,154,108,1,,,,,,,,
,,,,,,,,,,,,,FF,,,,,,,,1.0508,,,,,,,,,,,,,,,,,,,,,,60ffc5403089b5fc3e1c1a33,61036bb7bb1416c61fa9c1d1,2021-07-29_23h06.42.389,Simcolourproject_2stim_asymm_v5,2020.2.10,MacIntel,60,61025ae37ef11b136ea224fe,,,,,,,,,1855,30.08203125,61.109375,1,0,0,response1disk,,7,1.6796875,0.16015625,1,0,0,rectangle,1.6796875,0.16015625,1,0,0,1.6796875,0.16015625,1,0,0,0,155,155,126,1,,,,,,,,
,,,,,,,,,,,,,FF,,,,,,,,1.9834,,,,,,,,,,,,,,,,,,,,,,60ffc5403089b5fc3e1c1a33,61036bb7bb1416c61fa9c1d1,2021-07-29_23h06.42.389,Simcolourproject_2stim_asymm_v5,2020.2.10,MacIntel,60,61025ae37ef11b136ea224fe,,,,,,,,,1040,69.40234375,-35.296875,1,0,0,response3disk,,5,16.79296875,-5.359375,1,0,0,rectangle,16.79296875,-5.359375,1,0,0,16.79296875,-5.359375,1,0,0,0,156,156,91,1,,,,,,,,
,,,,,,,,,,,,,FF,,,,,,,,1.6156,,,,,,,,,,,,,,,,,,,,,,60ffc5403089b5fc3e1c1a33,61036bb7bb1416c61fa9c1d1,2021-07-29_23h06.42.389,Simcolourproject_2stim_asymm_v5,2020.2.10,MacIntel,60,61025ae37ef11b136ea224fe,,,,,,,,,1790,26.05078125,59.078125,1,0,0,response1disk,,7,19.5234375,11.80078125,1,0,0,rectangle,22.84375,87.4375,1,0,0,2.9140625,9.3046875,1,0,0,0,157,157,21,1,,response1disk_3,TRUE,7,7,"[148,24,213,193,165,185,158,50,216,118,315,126,168,323,286,320,99,265,139,28]",1.9165,rectangle
,,,,,,,,,,,,,FF,,,,,,,,2.0169,,,,,,,,,,,,,,,,,,,,,,60ffc5403089b5fc3e1c1a33,61036bb7bb1416c61fa9c1d1,2021-07-29_23h06.42.389,Simcolourproject_2stim_asymm_v5,2020.2.10,MacIntel,60,61025ae37ef11b136ea224fe,,,,,,,,,2812,42.41015625,84.5625,1,0,0,response1disk,,7,18.140625,3.203125,1,0,0,rectangle,18.140625,3.203125,1,0,0,18.140625,3.203125,1,0,0,0,158,158,41,1,,,,,,,,
,,,,,,,,,,,,,FF,,,,,,,,1.2832,,,,,,,,,,,,,,,,,,,,,,60ffc5403089b5fc3e1c1a33,61036bb7bb1416c61fa9c1d1,2021-07-29_23h06.42.389,Simcolourproject_2stim_asymm_v5,2020.2.10,MacIntel,60,61025ae37ef11b136ea224fe,,,,,,,,,591,31.6875,63.71484375,1,0,0,response1disk,,7,7.5546875,-3.03125,1,0,0,rectangle,7.5546875,-3.03125,1,0,0,7.5546875,-3.03125,1,0,0,0,159,159,146,1,,,,,,,,
,,,,,,,,,,,,,FF,,,,,,,,1.783,,,,,,,,,,,,,,,,,,,,,,60ffc5403089b5fc3e1c1a33,61036bb7bb1416c61fa9c1d1,2021-07-29_23h06.42.389,Simcolourproject_2stim_asymm_v5,2020.2.10,MacIntel,60,61025ae37ef11b136ea224fe,,,,,,,,,1269,26.7890625,64.57421875,1,0,0,response1disk,,7,5.57421875,8.94921875,1,0,0,rectangle,5.57421875,8.94921875,1,0,0,5.57421875,8.94921875,1,0,0,1,0,160,79,1,,,,,,,,
,,,,,,,,,,,,,FF,,,,,,,,0.7008,,,,,,,,,,,,,,,,,,,,,,60ffc5403089b5fc3e1c1a33,61036bb7bb1416c61fa9c1d1,2021-07-29_23h06.42.389,Simcolourproject_2stim_asymm_v5,2020.2.10,MacIntel,60,61025ae37ef11b136ea224fe,,,,,,,,,999,73.4609375,54.47265625,1,0,0,response1disk,,6,7.93359375,-4.80859375,1,0,0,rectangle,7.93359375,-4.80859375,1,0,0,7.93359375,-4.80859375,1,0,0,1,1,161,83,1,,,,,,,,
,,,,,,,,,,,,,FF,,,,,,,,0.8164,,,,,,,,,,,,,,,,,,,,,,60ffc5403089b5fc3e1c1a33,61036bb7bb1416c61fa9c1d1,2021-07-29_23h06.42.389,Simcolourproject_2stim_asymm_v5,2020.2.10,MacIntel,60,61025ae37ef11b136ea224fe,,,,,,,,,1508,35.58984375,57.24609375,1,0,0,response1disk,,7,2.39453125,-7.23046875,1,0,0,rectangle,2.39453125,-7.23046875,1,0,0,2.39453125,-7.23046875,1,0,0,1,2,162,7,1,,,,,,,,
,,,,,,,,,,,,,FF,,,,,,,,1.5163,,,,,,,,,,,,,,,,,,,,,,60ffc5403089b5fc3e1c1a33,61036bb7bb1416c61fa9c1d1,2021-07-29_23h06.42.389,Simcolourproject_2stim_asymm_v5,2020.2.10,MacIntel,60,61025ae37ef11b136ea224fe,,,,,,,,,609,53.83984375,-36.87890625,1,0,0,response3disk,,5,13.37890625,-2.5703125,1,0,0,rectangle,13.37890625,-2.5703125,1,0,0,13.37890625,-2.5703125,1,0,0,1,3,163,53,1,,,,,,,,
,,,,,,,,,,,,,FF,,,,,,,,1.733,,,,,,,,,,,,,,,,,,,,,,60ffc5403089b5fc3e1c1a33,61036bb7bb1416c61fa9c1d1,2021-07-29_23h06.42.389,Simcolourproject_2stim_asymm_v5,2020.2.10,MacIntel,60,61025ae37ef11b136ea224fe,,,,,,,,,3453,65.11328125,-39.9921875,1,0,0,response3disk,,5,9.43359375,2.015625,1,0,0,rectangle,-64.3046875,-41.12890625,1,0,0,-5.7265625,10.47265625,1,0,0,1,4,164,0,1,,response5disk_3,TRUE,2,2,"[148,24,213,193,165,185,158,50,216,118,315,126,168,323,286,320,99,265,139,28]",2.5153,rectangle
,,,,,,,,,,,,,FF,,,,,,,,1.2661,,,,,,,,,,,,,,,,,,,,,,60ffc5403089b5fc3e1c1a33,61036bb7bb1416c61fa9c1d1,2021-07-29_23h06.42.389,Simcolourproject_2stim_asymm_v5,2020.2.10,MacIntel,60,61025ae37ef11b136ea224fe,,,,,,,,,1898,-58.35546875,-47.48046875,1,0,0,response5disk,,2,-12.69140625,-4.15234375,1,0,0,rectangle,-12.69140625,-4.15234375,1,0,0,-12.69140625,-4.15234375,1,0,0,1,5,165,20,1,,,,,,,,
,,,,,,,,,,,,,FF,,,,,,,,0.6999,,,,,,,,,,,,,,,,,,,,,,60ffc5403089b5fc3e1c1a33,61036bb7bb1416c61fa9c1d1,2021-07-29_23h06.42.389,Simcolourproject_2stim_asymm_v5,2020.2.10,MacIntel,60,61025ae37ef11b136ea224fe,,,,,,,,,3538,20.9453125,76.140625,1,0,0,response1disk,,7,-6.96875,3.921875,1,0,0,rectangle,-6.96875,3.921875,1,0,0,-6.96875,3.921875,1,0,0,1,6,166,5,1,,,,,,,,
,,,,,,,,,,,,,FF,,,,,,,,1.7512,,,,,,,,,,,,,,,,,,,,,,60ffc5403089b5fc3e1c1a33,61036bb7bb1416c61fa9c1d1,2021-07-29_23h06.42.389,Simcolourproject_2stim_asymm_v5,2020.2.10,MacIntel,60,61025ae37ef11b136ea224fe,,,,,,,,,46,28.78515625,48.8515625,1,0,0,response1disk,,7,6.484375,3.0859375,1,0,0,rectangle,-28.99609375,-78.421875,1,0,0,1.62109375,-8.2578125,1,0,0,1,7,167,109,1,,response5disk_3,TRUE,3,3,"[148,24,213,193,165,185,158,50,216,118,315,126,168,323,286,320,99,265,139,28]",2.3336,rectangle
,,,,,,,,,,,,,FF,,,,,,,,1.2841,,,,,,,,,,,,,,,,,,,,,,60ffc5403089b5fc3e1c1a33,61036bb7bb1416c61fa9c1d1,2021-07-29_23h06.42.389,Simcolourproject_2stim_asymm_v5,2020.2.10,MacIntel,60,61025ae37ef11b136ea224fe,,,,,,,,,4336,-56.10546875,40.08984375,1,0,0,response7disk,,1,-0.5546875,8.0625,1,0,0,rectangle,-0.5546875,8.0625,1,0,0,-0.5546875,8.0625,1,0,0,1,8,168,140,1,,,,,,,,
,,,,,,,,,,,,,FF,,,,,,,,1.2333,,,,,,,,,,,,,,,,,,,,,,60ffc5403089b5fc3e1c1a33,61036bb7bb1416c61fa9c1d1,2021-07-29_23h06.42.389,Simcolourproject_2stim_asymm_v5,2020.2.10,MacIntel,60,61025ae37ef11b136ea224fe,,,,,,,,,3950,-61.47265625,-49.55078125,1,0,0,response5disk,,2,-2.48046875,9.70703125,1,0,0,rectangle,-2.48046875,9.70703125,1,0,0,-2.48046875,9.70703125,1,0,0,1,9,169,81,1,,,,,,,,
,,,,,,,,,,,,,FF,,,,,,,,1.1826,,,,,,,,,,,,,,,,,,,,,,60ffc5403089b5fc3e1c1a33,61036bb7bb1416c61fa9c1d1,2021-07-29_23h06.42.389,Simcolourproject_2stim_asymm_v5,2020.2.10,MacIntel,60,61025ae37ef11b136ea224fe,,,,,,,,,3039,-27.59375,-63.1953125,1,0,0,response5disk,,3,-15.63671875,-7.25,1,0,0,rectangle,-15.63671875,-7.25,1,0,0,-15.63671875,-7.25,1,0,0,1,10,170,123,1,,,,,,,,
,,,,,,,,,,,,,FF,,,,,,,,0.8833,,,,,,,,,,,,,,,,,,,,,,60ffc5403089b5fc3e1c1a33,61036bb7bb1416c61fa9c1d1,2021-07-29_23h06.42.389,Simcolourproject_2stim_asymm_v5,2020.2.10,MacIntel,60,61025ae37ef11b136ea224fe,,,,,,,,,2017,40.73046875,-55.3203125,1,0,0,response3disk,,4,13.1328125,6.0859375,1,0,0,rectangle,13.1328125,6.0859375,1,0,0,13.1328125,6.0859375,1,0,0,1,11,171,99,1,,,,,,,,
,,,,,,,,,,,,,FF,,,,,,,,1.9174,,,,,,,,,,,,,,,,,,,,,,60ffc5403089b5fc3e1c1a33,61036bb7bb1416c61fa9c1d1,2021-07-29_23h06.42.389,Simcolourproject_2stim_asymm_v5,2020.2.10,MacIntel,60,61025ae37ef11b136ea224fe,,,,,,,,,509,48.59375,33.953125,1,0,0,response1disk,,6,-12.35546875,11.12109375,1,0,0,rectangle,-12.35546875,11.12109375,1,0,0,-12.35546875,11.12109375,1,0,0,1,12,172,137,1,,,,,,,,
,,,,,,,,,,,,,FF,,,,,,,,1.1001,,,,,,,,,,,,,,,,,,,,,,60ffc5403089b5fc3e1c1a33,61036bb7bb1416c61fa9c1d1,2021-07-29_23h06.42.389,Simcolourproject_2stim_asymm_v5,2020.2.10,MacIntel,60,61025ae37ef11b136ea224fe,,,,,,,,,1271,57.796875,20.5625,1,0,0,response1disk,,6,19.3828125,-0.24609375,1,0,0,rectangle,19.3828125,-0.24609375,1,0,0,19.3828125,-0.24609375,1,0,0,1,13,173,107,1,,,,,,,,
,,,,,,,,,,,,,FF,,,,,,,,1.5006,,,,,,,,,,,,,,,,,,,,,,60ffc5403089b5fc3e1c1a33,61036bb7bb1416c61fa9c1d1,2021-07-29_23h06.42.389,Simcolourproject_2stim_asymm_v5,2020.2.10,MacIntel,60,61025ae37ef11b136ea224fe,,,,,,,,,1028,31.37109375,36.50390625,1,0,0,response1disk,,7,14.953125,-5.84375,1,0,0,rectangle,14.953125,-5.84375,1,0,0,14.953125,-5.84375,1,0,0,1,14,174,103,1,,,,,,,,
,,,,,,,,,,,,,FF,,,,,,,,1.2668,,,,,,,,,,,,,,,,,,,,,,60ffc5403089b5fc3e1c1a33,61036bb7bb1416c61fa9c1d1,2021-07-29_23h06.42.389,Simcolourproject_2stim_asymm_v5,2020.2.10,MacIntel,60,61025ae37ef11b136ea224fe,,,,,,,,,688,37.81640625,-58.63671875,1,0,0,response3disk,,4,11.578125,-6.97265625,1,0,0,rectangle,11.578125,-6.97265625,1,0,0,11.578125,-6.97265625,1,0,0,1,15,175,36,1,,,,,,,,
,,,,,,,,,,,,,FF,,,,,,,,1.5665,,,,,,,,,,,,,,,,,,,,,,60ffc5403089b5fc3e1c1a33,61036bb7bb1416c61fa9c1d1,2021-07-29_23h06.42.389,Simcolourproject_2stim_asymm_v5,2020.2.10,MacIntel,60,61025ae37ef11b136ea224fe,,,,,,,,,1046,70.07421875,48.76171875,1,0,0,response1disk,,6,-10.640625,-5.70703125,1,0,0,rectangle,-10.640625,-5.70703125,1,0,0,-10.640625,-5.70703125,1,0,0,1,16,176,63,1,,,,,,,,
,,,,,,,,,,,,,FF,,,,,,,,0.8648,,,,,,,,,,,,,,,,,,,,,,60ffc5403089b5fc3e1c1a33,61036bb7bb1416c61fa9c1d1,2021-07-29_23h06.42.389,Simcolourproject_2stim_asymm_v5,2020.2.10,MacIntel,60,61025ae37ef11b136ea224fe,,,,,,,,,1870,15.4296875,75.8515625,1,0,0,response1disk,,7,-2.8046875,10.8828125,1,0,0,rectangle,-2.8046875,10.8828125,1,0,0,-2.8046875,10.8828125,1,0,0,1,17,177,104,1,,,,,,,,
,,,,,,,,,,,,,FF,,,,,,,,0.9835,,,,,,,,,,,,,,,,,,,,,,60ffc5403089b5fc3e1c1a33,61036bb7bb1416c61fa9c1d1,2021-07-29_23h06.42.389,Simcolourproject_2stim_asymm_v5,2020.2.10,MacIntel,60,61025ae37ef11b136ea224fe,,,,,,,,,579,21.2890625,63.0859375,1,0,0,response1disk,,7,9.171875,1.5,1,0,0,rectangle,9.171875,1.5,1,0,0,9.171875,1.5,1,0,0,1,18,178,121,1,,,,,,,,
,,,,,,,,,,,,,FF,,,,,,,,2.5649,,,,,,,,,,,,,,,,,,,,,,60ffc5403089b5fc3e1c1a33,61036bb7bb1416c61fa9c1d1,2021-07-29_23h06.42.389,Simcolourproject_2stim_asymm_v5,2020.2.10,MacIntel,60,61025ae37ef11b136ea224fe,,,,,,,,,1836,20.953125,-69.6171875,1,0,0,response3disk,,4,-0.41015625,-1.8515625,1,0,0,rectangle,-0.41015625,-1.8515625,1,0,0,-0.41015625,-1.8515625,1,0,0,1,19,179,148,1,,,,,,,,
,,,,,,,,,,,,,FF,,,,,,,,0.8505,,,,,,,,,,,,,,,,,,,,,,60ffc5403089b5fc3e1c1a33,61036bb7bb1416c61fa9c1d1,2021-07-29_23h06.42.389,Simcolourproject_2stim_asymm_v5,2020.2.10,MacIntel,60,61025ae37ef11b136ea224fe,,,,,,,,,1510,25.2421875,66.23046875,1,0,0,response1disk,,7,4.93359375,8.00390625,1,0,0,rectangle,4.93359375,8.00390625,1,0,0,4.93359375,8.00390625,1,0,0,1,20,180,136,1,,,,,,,,
,,,,,,,,,,,,,FF,,,,,,,,1.3663,,,,,,,,,,,,,,,,,,,,,,60ffc5403089b5fc3e1c1a33,61036bb7bb1416c61fa9c1d1,2021-07-29_23h06.42.389,Simcolourproject_2stim_asymm_v5,2020.2.10,MacIntel,60,61025ae37ef11b136ea224fe,,,,,,,,,702,-19.671875,-69.4609375,1,0,0,response5disk,,3,-12.9453125,-1.1328125,1,0,0,rectangle,-12.9453125,-1.1328125,1,0,0,-12.9453125,-1.1328125,1,0,0,1,21,181,4,1,,,,,,,,
,,,,,,,,,,,,,FF,,,,,,,,1.1161,,,,,,,,,,,,,,,,,,,,,,60ffc5403089b5fc3e1c1a33,61036bb7bb1416c61fa9c1d1,2021-07-29_23h06.42.389,Simcolourproject_2stim_asymm_v5,2020.2.10,MacIntel,60,61025ae37ef11b136ea224fe,,,,,,,,,52,41.18359375,59.15625,1,0,0,response1disk,,7,6.65625,2.0078125,1,0,0,rectangle,6.65625,2.0078125,1,0,0,6.65625,2.0078125,1,0,0,1,22,182,150,1,,,,,,,,
,,,,,,,,,,,,,FF,,,,,,,,1.0992,,,,,,,,,,,,,,,,,,,,,,60ffc5403089b5fc3e1c1a33,61036bb7bb1416c61fa9c1d1,2021-07-29_23h06.42.389,Simcolourproject_2stim_asymm_v5,2020.2.10,MacIntel,60,61025ae37ef11b136ea224fe,,,,,,,,,2865,22.09765625,74.21484375,1,0,0,response1disk,,7,2.4609375,10.17578125,1,0,0,rectangle,2.4609375,10.17578125,1,0,0,2.4609375,10.17578125,1,0,0,1,23,183,80,1,,,,,,,,
,,,,,,,,,,,,,FF,,,,,,,,0.8655,,,,,,,,,,,,,,,,,,,,,,60ffc5403089b5fc3e1c1a33,61036bb7bb1416c61fa9c1d1,2021-07-29_23h06.42.389,Simcolourproject_2stim_asymm_v5,2020.2.10,MacIntel,60,61025ae37ef11b136ea224fe,,,,,,,,,45,24.87109375,90.27734375,1,0,0,response1disk,,7,7.4140625,13.43359375,1,0,0,rectangle,-58.19921875,28.578125,1,0,0,-4.84765625,1.16015625,1,0,0,1,24,184,117,1,,response7disk_3,TRUE,1,1,"[148,24,213,193,165,185,158,50,216,118,315,126,168,323,286,320,99,265,139,28]",1.4166,rectangle
,,,,,,,,,,,,,FF,,,,,,,,0.8668,,,,,,,,,,,,,,,,,,,,,,60ffc5403089b5fc3e1c1a33,61036bb7bb1416c61fa9c1d1,2021-07-29_23h06.42.389,Simcolourproject_2stim_asymm_v5,2020.2.10,MacIntel,60,61025ae37ef11b136ea224fe,,,,,,,,,1130,43.5703125,73.26171875,1,0,0,response1disk,,7,12.71484375,-1.97265625,1,0,0,rectangle,12.71484375,-1.97265625,1,0,0,12.71484375,-1.97265625,1,0,0,1,25,185,34,1,,,,,,,,
,,,,,,,,,,,,,FF,,,,,,,,1.1167,,,,,,,,,,,,,,,,,,,,,,60ffc5403089b5fc3e1c1a33,61036bb7bb1416c61fa9c1d1,2021-07-29_23h06.42.389,Simcolourproject_2stim_asymm_v5,2020.2.10,MacIntel,60,61025ae37ef11b136ea224fe,,,,,,,,,1704,49.55859375,21.265625,1,0,0,response1disk,,6,-15.4140625,-11.70703125,1,0,0,rectangle,-15.4140625,-11.70703125,1,0,0,-15.4140625,-11.70703125,1,0,0,1,26,186,157,1,,,,,,,,
,,,,,,,,,,,,,FF,,,,,,,,2.7488,,,,,,,,,,,,,,,,,,,,,,60ffc5403089b5fc3e1c1a33,61036bb7bb1416c61fa9c1d1,2021-07-29_23h06.42.389,Simcolourproject_2stim_asymm_v5,2020.2.10,MacIntel,60,61025ae37ef11b136ea224fe,,,,,,,,,3874,59.65625,21.51171875,1,0,0,response1disk,,6,9.19921875,1.578125,1,0,0,rectangle,9.19921875,1.578125,1,0,0,9.19921875,1.578125,1,0,0,1,27,187,119,1,,,,,,,,
,,,,,,,,,,,,,FF,,,,,,,,0.8655,,,,,,,,,,,,,,,,,,,,,,60ffc5403089b5fc3e1c1a33,61036bb7bb1416c61fa9c1d1,2021-07-29_23h06.42.389,Simcolourproject_2stim_asymm_v5,2020.2.10,MacIntel,60,61025ae37ef11b136ea224fe,,,,,,,,,3182,16.21484375,57.71484375,1,0,0,response1disk,,7,-3.06640625,0.3671875,1,0,0,rectangle,-3.06640625,0.3671875,1,0,0,-3.06640625,0.3671875,1,0,0,1,28,188,15,1,,,,,,,,
,,,,,,,,,,,,,FF,,,,,,,,0.8683,,,,,,,,,,,,,,,,,,,,,,60ffc5403089b5fc3e1c1a33,61036bb7bb1416c61fa9c1d1,2021-07-29_23h06.42.389,Simcolourproject_2stim_asymm_v5,2020.2.10,MacIntel,60,61025ae37ef11b136ea224fe,,,,,,,,,1495,39.69140625,72.91796875,1,0,0,response1disk,,7,18.59765625,4.2421875,1,0,0,rectangle,18.59765625,4.2421875,1,0,0,18.59765625,4.2421875,1,0,0,1,29,189,65,1,,,,,,,,
,,,,,,,,,,,,,FF,,,,,,,,1.25,,,,,,,,,,,,,,,,,,,,,,60ffc5403089b5fc3e1c1a33,61036bb7bb1416c61fa9c1d1,2021-07-29_23h06.42.389,Simcolourproject_2stim_asymm_v5,2020.2.10,MacIntel,60,61025ae37ef11b136ea224fe,,,,,,,,,1809,62.4765625,-39.8984375,1,0,0,response3disk,,5,-0.359375,7.02734375,1,0,0,rectangle,-0.359375,7.02734375,1,0,0,-0.359375,7.02734375,1,0,0,1,30,190,46,1,,,,,,,,
,,,,,,,,,,,,,FF,,,,,,,,0.9338,,,,,,,,,,,,,,,,,,,,,,60ffc5403089b5fc3e1c1a33,61036bb7bb1416c61fa9c1d1,2021-07-29_23h06.42.389,Simcolourproject_2stim_asymm_v5,2020.2.10,MacIntel,60,61025ae37ef11b136ea224fe,,,,,,,,,3382,-71.8828125,31.36328125,1,0,0,response7disk,,1,0.81640625,-0.2734375,1,0,0,rectangle,0.81640625,-0.2734375,1,0,0,0.81640625,-0.2734375,1,0,0,1,31,191,9,1,,,,,,,,
,,,,,,,,,,,,,FF,,,,,,,,0.8177,,,,,,,,,,,,,,,,,,,,,,60ffc5403089b5fc3e1c1a33,61036bb7bb1416c61fa9c1d1,2021-07-29_23h06.42.389,Simcolourproject_2stim_asymm_v5,2020.2.10,MacIntel,60,61025ae37ef11b136ea224fe,,,,,,,,,1280,37.2578125,74.91015625,1,0,0,response1disk,,7,11.046875,10.9921875,1,0,0,rectangle,61.51953125,39.015625,1,0,0,0.4453125,-0.8046875,1,0,0,1,32,192,70,1,,response1disk_3,TRUE,6,6,"[148,24,213,193,165,185,158,50,216,118,315,126,168,323,286,320,99,265,139,28]",2.3654,rectangle
,,,,,,,,,,,,,FF,,,,,,,,2.6345,,,,,,,,,,,,,,,,,,,,,,60ffc5403089b5fc3e1c1a33,61036bb7bb1416c61fa9c1d1,2021-07-29_23h06.42.389,Simcolourproject_2stim_asymm_v5,2020.2.10,MacIntel,60,61025ae37ef11b136ea224fe,,,,,,,,,3601,55.39453125,34.91796875,1,0,0,response1disk,,6,5.859375,-5.52734375,1,0,0,rectangle,5.859375,-5.52734375,1,0,0,5.859375,-5.52734375,1,0,0,1,33,193,96,1,,,,,,,,
,,,,,,,,,,,,,FF,,,,,,,,0.6996,,,,,,,,,,,,,,,,,,,,,,60ffc5403089b5fc3e1c1a33,61036bb7bb1416c61fa9c1d1,2021-07-29_23h06.42.389,Simcolourproject_2stim_asymm_v5,2020.2.10,MacIntel,60,61025ae37ef11b136ea224fe,,,,,,,,,2905,27.1171875,48.265625,1,0,0,response1disk,,7,3.953125,-12.1171875,1,0,0,rectangle,3.953125,-12.1171875,1,0,0,3.953125,-12.1171875,1,0,0,1,34,194,32,1,,,,,,,,
,,,,,,,,,,,,,FF,,,,,,,,0.7827,,,,,,,,,,,,,,,,,,,,,,60ffc5403089b5fc3e1c1a33,61036bb7bb1416c61fa9c1d1,2021-07-29_23h06.42.389,Simcolourproject_2stim_asymm_v5,2020.2.10,MacIntel,60,61025ae37ef11b136ea224fe,,,,,,,,,2138,37.015625,81.82421875,1,0,0,response1disk,,7,7.51171875,5.6171875,1,0,0,rectangle,7.51171875,5.6171875,1,0,0,7.51171875,5.6171875,1,0,0,1,35,195,3,1,,,,,,,,
,,,,,,,,,,,,,FF,,,,,,,,0.8667,,,,,,,,,,,,,,,,,,,,,,60ffc5403089b5fc3e1c1a33,61036bb7bb1416c61fa9c1d1,2021-07-29_23h06.42.389,Simcolourproject_2stim_asymm_v5,2020.2.10,MacIntel,60,61025ae37ef11b136ea224fe,,,,,,,,,4112,52.5546875,30.0078125,1,0,0,response1disk,,6,-9.5859375,-12.1328125,1,0,0,rectangle,-9.5859375,-12.1328125,1,0,0,-9.5859375,-12.1328125,1,0,0,1,36,196,59,1,,,,,,,,
,,,,,,,,,,,,,FF,,,,,,,,2.0664,,,,,,,,,,,,,,,,,,,,,,60ffc5403089b5fc3e1c1a33,61036bb7bb1416c61fa9c1d1,2021-07-29_23h06.42.389,Simcolourproject_2stim_asymm_v5,2020.2.10,MacIntel,60,61025ae37ef11b136ea224fe,,,,,,,,,2863,70.1171875,21.7578125,1,0,0,response1disk,,6,4.890625,-3.640625,1,0,0,rectangle,4.890625,-3.640625,1,0,0,4.890625,-3.640625,1,0,0,1,37,197,69,1,,,,,,,,
,,,,,,,,,,,,,FF,,,,,,,,0.7167,,,,,,,,,,,,,,,,,,,,,,60ffc5403089b5fc3e1c1a33,61036bb7bb1416c61fa9c1d1,2021-07-29_23h06.42.389,Simcolourproject_2stim_asymm_v5,2020.2.10,MacIntel,60,61025ae37ef11b136ea224fe,,,,,,,,,3768,28.4921875,55.28515625,1,0,0,response1disk,,7,10.57421875,0.73046875,1,0,0,rectangle,10.57421875,0.73046875,1,0,0,10.57421875,0.73046875,1,0,0,1,38,198,120,1,,,,,,,,
,,,,,,,,,,,,,FF,,,,,,,,1.3997,,,,,,,,,,,,,,,,,,,,,,60ffc5403089b5fc3e1c1a33,61036bb7bb1416c61fa9c1d1,2021-07-29_23h06.42.389,Simcolourproject_2stim_asymm_v5,2020.2.10,MacIntel,60,61025ae37ef11b136ea224fe,,,,,,,,,4077,61.93359375,-51.7890625,1,0,0,response3disk,,5,-2.59765625,3.4921875,1,0,0,rectangle,-2.59765625,3.4921875,1,0,0,-2.59765625,3.4921875,1,0,0,1,39,199,90,1,,,,,,,,
,,,,,,,,,,,,,FF,,,,,,,,1.0002,,,,,,,,,,,,,,,,,,,,,,60ffc5403089b5fc3e1c1a33,61036bb7bb1416c61fa9c1d1,2021-07-29_23h06.42.389,Simcolourproject_2stim_asymm_v5,2020.2.10,MacIntel,60,61025ae37ef11b136ea224fe,,,,,,,,,2783,-46.34765625,-62.125,1,0,0,response5disk,,3,-4.85546875,0.65234375,1,0,0,rectangle,-4.85546875,0.65234375,1,0,0,-4.85546875,0.65234375,1,0,0,1,40,200,102,1,,,,,,,,
,,,,,,,,,,,,,FF,,,,,,,,1.3502,,,,,,,,,,,,,,,,,,,,,,60ffc5403089b5fc3e1c1a33,61036bb7bb1416c61fa9c1d1,2021-07-29_23h06.42.389,Simcolourproject_2stim_asymm_v5,2020.2.10,MacIntel,60,61025ae37ef11b136ea224fe,,,,,,,,,3602,76.10546875,26.87890625,1,0,0,response1disk,,6,-11.16015625,4.58203125,1,0,0,rectangle,-11.16015625,4.58203125,1,0,0,-11.16015625,4.58203125,1,0,0,1,41,201,112,1,,,,,,,,
,,,,,,,,,,,,,FF,,,,,,,,1.4832,,,,,,,,,,,,,,,,,,,,,,60ffc5403089b5fc3e1c1a33,61036bb7bb1416c61fa9c1d1,2021-07-29_23h06.42.389,Simcolourproject_2stim_asymm_v5,2020.2.10,MacIntel,60,61025ae37ef11b136ea224fe,,,,,,,,,3898,77.63671875,33.78125,1,0,0,response1disk,,6,-7.50390625,-0.82421875,1,0,0,rectangle,-7.50390625,-0.82421875,1,0,0,-7.50390625,-0.82421875,1,0,0,1,42,202,13,1,,,,,,,,
,,,,,,,,,,,,,FF,,,,,,,,0.732,,,,,,,,,,,,,,,,,,,,,,60ffc5403089b5fc3e1c1a33,61036bb7bb1416c61fa9c1d1,2021-07-29_23h06.42.389,Simcolourproject_2stim_asymm_v5,2020.2.10,MacIntel,60,61025ae37ef11b136ea224fe,,,,,,,,,1742,27.8984375,64.66796875,1,0,0,response1disk,,7,10.42578125,6.09765625,1,0,0,rectangle,10.42578125,6.09765625,1,0,0,10.42578125,6.09765625,1,0,0,1,43,203,156,1,,,,,,,,
,,,,,,,,,,,,,FF,,,,,,,,1.0847,,,,,,,,,,,,,,,,,,,,,,60ffc5403089b5fc3e1c1a33,61036bb7bb1416c61fa9c1d1,2021-07-29_23h06.42.389,Simcolourproject_2stim_asymm_v5,2020.2.10,MacIntel,60,61025ae37ef11b136ea224fe,,,,,,,,,325,33.6171875,69.0703125,1,0,0,response1disk,,7,13.9765625,2.12890625,1,0,0,rectangle,13.9765625,2.12890625,1,0,0,13.9765625,2.12890625,1,0,0,1,44,204,125,1,,,,,,,,
,,,,,,,,,,,,,FF,,,,,,,,1.2499,,,,,,,,,,,,,,,,,,,,,,60ffc5403089b5fc3e1c1a33,61036bb7bb1416c61fa9c1d1,2021-07-29_23h06.42.389,Simcolourproject_2stim_asymm_v5,2020.2.10,MacIntel,60,61025ae37ef11b136ea224fe,,,,,,,,,1622,76.1328125,22.30859375,1,0,0,response1disk,,6,13.9140625,-4.28515625,1,0,0,rectangle,13.9140625,-4.28515625,1,0,0,13.9140625,-4.28515625,1,0,0,1,45,205,128,1,,,,,,,,
,,,,,,,,,,,,,FF,,,,,,,,0.9341,,,,,,,,,,,,,,,,,,,,,,60ffc5403089b5fc3e1c1a33,61036bb7bb1416c61fa9c1d1,2021-07-29_23h06.42.389,Simcolourproject_2stim_asymm_v5,2020.2.10,MacIntel,60,61025ae37ef11b136ea224fe,,,,,,,,,174,64.3515625,-29.453125,1,0,0,response3disk,,5,24.3671875,-5.26953125,1,0,0,rectangle,24.3671875,-5.26953125,1,0,0,24.3671875,-5.26953125,1,0,0,1,46,206,40,1,,,,,,,,
,,,,,,,,,,,,,FF,,,,,,,,0.9676,,,,,,,,,,,,,,,,,,,,,,60ffc5403089b5fc3e1c1a33,61036bb7bb1416c61fa9c1d1,2021-07-29_23h06.42.389,Simcolourproject_2stim_asymm_v5,2020.2.10,MacIntel,60,61025ae37ef11b136ea224fe,,,,,,,,,1019,23.08984375,-56.0078125,1,0,0,response3disk,,4,-15.8359375,9.47265625,1,0,0,rectangle,-15.8359375,9.47265625,1,0,0,-15.8359375,9.47265625,1,0,0,1,47,207,26,1,,,,,,,,
,,,,,,,,,,,,,FF,,,,,,,,0.915,,,,,,,,,,,,,,,,,,,,,,60ffc5403089b5fc3e1c1a33,61036bb7bb1416c61fa9c1d1,2021-07-29_23h06.42.389,Simcolourproject_2stim_asymm_v5,2020.2.10,MacIntel,60,61025ae37ef11b136ea224fe,,,,,,,,,1844,72.08203125,41.86328125,1,0,0,response1disk,,6,-0.15625,-2.234375,1,0,0,rectangle,-0.15625,-2.234375,1,0,0,-0.15625,-2.234375,1,0,0,1,48,208,45,1,,,,,,,,
,,,,,,,,,,,,,FF,,,,,,,,0.9657,,,,,,,,,,,,,,,,,,,,,,60ffc5403089b5fc3e1c1a33,61036bb7bb1416c61fa9c1d1,2021-07-29_23h06.42.389,Simcolourproject_2stim_asymm_v5,2020.2.10,MacIntel,60,61025ae37ef11b136ea224fe,,,,,,,,,3402,-50.41796875,-76.6640625,1,0,0,response5disk,,3,-14.32421875,-6.3359375,1,0,0,rectangle,-14.32421875,-6.3359375,1,0,0,-14.32421875,-6.3359375,1,0,0,1,49,209,145,1,,,,,,,,
,,,,,,,,,,,,,FF,,,,,,,,0.9495,,,,,,,,,,,,,,,,,,,,,,60ffc5403089b5fc3e1c1a33,61036bb7bb1416c61fa9c1d1,2021-07-29_23h06.42.389,Simcolourproject_2stim_asymm_v5,2020.2.10,MacIntel,60,61025ae37ef11b136ea224fe,,,,,,,,,1219,-32.4765625,-51.06640625,1,0,0,response5disk,,3,-15.61328125,9.0546875,1,0,0,rectangle,-15.61328125,9.0546875,1,0,0,-15.61328125,9.0546875,1,0,0,1,50,210,64,1,,,,,,,,
,,,,,,,,,,,,,FF,,,,,,,,0.8498,,,,,,,,,,,,,,,,,,,,,,60ffc5403089b5fc3e1c1a33,61036bb7bb1416c61fa9c1d1,2021-07-29_23h06.42.389,Simcolourproject_2stim_asymm_v5,2020.2.10,MacIntel,60,61025ae37ef11b136ea224fe,,,,,,,,,2347,23.58984375,71.27734375,1,0,0,response1disk,,7,8.6171875,8.4921875,1,0,0,rectangle,8.6171875,8.4921875,1,0,0,8.6171875,8.4921875,1,0,0,1,51,211,78,1,,,,,,,,
,,,,,,,,,,,,,FF,,,,,,,,2.1,,,,,,,,,,,,,,,,,,,,,,60ffc5403089b5fc3e1c1a33,61036bb7bb1416c61fa9c1d1,2021-07-29_23h06.42.389,Simcolourproject_2stim_asymm_v5,2020.2.10,MacIntel,60,61025ae37ef11b136ea224fe,,,,,,,,,942,59.8046875,33.32421875,1,0,0,response1disk,,6,9.78125,1.671875,1,0,0,rectangle,-34.06640625,58.15234375,1,0,0,0.421875,7.4296875,1,0,0,1,52,212,52,1,,response7disk_3,TRUE,0,0,"[148,24,213,193,165,185,158,50,216,118,315,126,168,323,286,320,99,265,139,28]",1.5832,rectangle
,,,,,,,,,,,,,FF,,,,,,,,2.6347,,,,,,,,,,,,,,,,,,,,,,60ffc5403089b5fc3e1c1a33,61036bb7bb1416c61fa9c1d1,2021-07-29_23h06.42.389,Simcolourproject_2stim_asymm_v5,2020.2.10,MacIntel,60,61025ae37ef11b136ea224fe,,,,,,,,,2343,57.98046875,41.26953125,1,0,0,response1disk,,6,23.8984375,-1.80078125,1,0,0,rectangle,23.8984375,-1.80078125,1,0,0,23.8984375,-1.80078125,1,0,0,1,53,213,60,1,,,,,,,,
,,,,,,,,,,,,,FF,,,,,,,,2.1495,,,,,,,,,,,,,,,,,,,,,,60ffc5403089b5fc3e1c1a33,61036bb7bb1416c61fa9c1d1,2021-07-29_23h06.42.389,Simcolourproject_2stim_asymm_v5,2020.2.10,MacIntel,60,61025ae37ef11b136ea224fe,,,,,,,,,3877,100.546875,-13.234375,1,0,0,response3disk,,5,14.54296875,12.53515625,1,0,0,rectangle,14.54296875,12.53515625,1,0,0,14.54296875,12.53515625,1,0,0,1,54,214,47,1,,,,,,,,
,,,,,,,,,,,,,FF,,,,,,,,1.0183,,,,,,,,,,,,,,,,,,,,,,60ffc5403089b5fc3e1c1a33,61036bb7bb1416c61fa9c1d1,2021-07-29_23h06.42.389,Simcolourproject_2stim_asymm_v5,2020.2.10,MacIntel,60,61025ae37ef11b136ea224fe,,,,,,,,,1181,21.59375,49.08203125,1,0,0,response1disk,,7,2.65625,-6.375,1,0,0,rectangle,76.546875,47.28515625,1,0,0,18.76953125,0.03515625,1,0,0,1,55,215,122,1,,response1disk_3,TRUE,6,6,"[148,24,213,193,165,185,158,50,216,118,315,126,168,323,286,320,99,265,139,28]",1.8337,rectangle
,,,,,,,,,,,,,FF,,,,,,,,0.9512,,,,,,,,,,,,,,,,,,,,,,60ffc5403089b5fc3e1c1a33,61036bb7bb1416c61fa9c1d1,2021-07-29_23h06.42.389,Simcolourproject_2stim_asymm_v5,2020.2.10,MacIntel,60,61025ae37ef11b136ea224fe,,,,,,,,,2342,18.25390625,45.9296875,1,0,0,response1disk,,7,14.8203125,-1.9765625,1,0,0,rectangle,14.8203125,-1.9765625,1,0,0,14.8203125,-1.9765625,1,0,0,1,56,216,77,1,,,,,,,,
,,,,,,,,,,,,,FF,,,,,,,,0.6677,,,,,,,,,,,,,,,,,,,,,,60ffc5403089b5fc3e1c1a33,61036bb7bb1416c61fa9c1d1,2021-07-29_23h06.42.389,Simcolourproject_2stim_asymm_v5,2020.2.10,MacIntel,60,61025ae37ef11b136ea224fe,,,,,,,,,2590,19.296875,45.39453125,1,0,0,response1disk,,7,11.0078125,-4.7734375,1,0,0,rectangle,11.0078125,-4.7734375,1,0,0,11.0078125,-4.7734375,1,0,0,1,57,217,88,1,,,,,,,,
,,,,,,,,,,,,,FF,,,,,,,,3.4165,,,,,,,,,,,,,,,,,,,,,,60ffc5403089b5fc3e1c1a33,61036bb7bb1416c61fa9c1d1,2021-07-29_23h06.42.389,Simcolourproject_2stim_asymm_v5,2020.2.10,MacIntel,60,61025ae37ef11b136ea224fe,,,,,,,,,3155,62.4921875,-13.296875,1,0,0,response3disk,,5,20.2109375,-5.62109375,1,0,0,rectangle,20.2109375,-5.62109375,1,0,0,20.2109375,-5.62109375,1,0,0,1,58,218,105,1,,,,,,,,
,,,,,,,,,,,,,FF,,,,,,,,1.3827,,,,,,,,,,,,,,,,,,,,,,60ffc5403089b5fc3e1c1a33,61036bb7bb1416c61fa9c1d1,2021-07-29_23h06.42.389,Simcolourproject_2stim_asymm_v5,2020.2.10,MacIntel,60,61025ae37ef11b136ea224fe,,,,,,,,,2849,47.00390625,-31.91796875,1,0,0,response3disk,,5,-7.25390625,-1.41796875,1,0,0,rectangle,-7.25390625,-1.41796875,1,0,0,-7.25390625,-1.41796875,1,0,0,1,59,219,124,1,,,,,,,,
,,,,,,,,,,,,,FF,,,,,,,,1.4662,,,,,,,,,,,,,,,,,,,,,,60ffc5403089b5fc3e1c1a33,61036bb7bb1416c61fa9c1d1,2021-07-29_23h06.42.389,Simcolourproject_2stim_asymm_v5,2020.2.10,MacIntel,60,61025ae37ef11b136ea224fe,,,,,,,,,3389,-40.19140625,-46.98046875,1,0,0,response5disk,,3,3.0390625,0.13671875,1,0,0,rectangle,3.0390625,0.13671875,1,0,0,3.0390625,0.13671875,1,0,0,1,60,220,74,1,,,,,,,,
,,,,,,,,,,,,,FF,,,,,,,,1.0836,,,,,,,,,,,,,,,,,,,,,,60ffc5403089b5fc3e1c1a33,61036bb7bb1416c61fa9c1d1,2021-07-29_23h06.42.389,Simcolourproject_2stim_asymm_v5,2020.2.10,MacIntel,60,61025ae37ef11b136ea224fe,,,,,,,,,2689,59.796875,31.22265625,1,0,0,response1disk,,6,10.79296875,-12.09375,1,0,0,rectangle,10.79296875,-12.09375,1,0,0,10.79296875,-12.09375,1,0,0,1,61,221,134,1,,,,,,,,
,,,,,,,,,,,,,FF,,,,,,,,0.9657,,,,,,,,,,,,,,,,,,,,,,60ffc5403089b5fc3e1c1a33,61036bb7bb1416c61fa9c1d1,2021-07-29_23h06.42.389,Simcolourproject_2stim_asymm_v5,2020.2.10,MacIntel,60,61025ae37ef11b136ea224fe,,,,,,,,,2112,53.109375,-35.0234375,1,0,0,response3disk,,5,1.08203125,-9.69921875,1,0,0,rectangle,1.08203125,-9.69921875,1,0,0,1.08203125,-9.69921875,1,0,0,1,62,222,30,1,,,,,,,,
,,,,,,,,,,,,,FF,,,,,,,,1.0529,,,,,,,,,,,,,,,,,,,,,,60ffc5403089b5fc3e1c1a33,61036bb7bb1416c61fa9c1d1,2021-07-29_23h06.42.389,Simcolourproject_2stim_asymm_v5,2020.2.10,MacIntel,60,61025ae37ef11b136ea224fe,,,,,,,,,2232,28.59375,-57.01171875,1,0,0,response3disk,,4,2.10546875,-8.89453125,1,0,0,rectangle,2.10546875,-8.89453125,1,0,0,2.10546875,-8.89453125,1,0,0,1,63,223,138,1,,,,,,,,
,,,,,,,,,,,,,FF,,,,,,,,1.25,,,,,,,,,,,,,,,,,,,,,,60ffc5403089b5fc3e1c1a33,61036bb7bb1416c61fa9c1d1,2021-07-29_23h06.42.389,Simcolourproject_2stim_asymm_v5,2020.2.10,MacIntel,60,61025ae37ef11b136ea224fe,,,,,,,,,2422,63.8046875,-33.11328125,1,0,0,response3disk,,5,13.33984375,-10.42578125,1,0,0,rectangle,13.33984375,-10.42578125,1,0,0,13.33984375,-10.42578125,1,0,0,1,64,224,101,1,,,,,,,,
,,,,,,,,,,,,,FF,,,,,,,,0.7703,,,,,,,,,,,,,,,,,,,,,,60ffc5403089b5fc3e1c1a33,61036bb7bb1416c61fa9c1d1,2021-07-29_23h06.42.389,Simcolourproject_2stim_asymm_v5,2020.2.10,MacIntel,60,61025ae37ef11b136ea224fe,,,,,,,,,314,36.18359375,67.1640625,1,0,0,response1disk,,7,6.7578125,2.66015625,1,0,0,rectangle,6.7578125,2.66015625,1,0,0,6.7578125,2.66015625,1,0,0,1,65,225,39,1,,,,,,,,
,,,,,,,,,,,,,FF,,,,,,,,1.3832,,,,,,,,,,,,,,,,,,,,,,60ffc5403089b5fc3e1c1a33,61036bb7bb1416c61fa9c1d1,2021-07-29_23h06.42.389,Simcolourproject_2stim_asymm_v5,2020.2.10,MacIntel,60,61025ae37ef11b136ea224fe,,,,,,,,,342,37.03125,-65.92578125,1,0,0,response3disk,,4,2.96875,-11.55078125,1,0,0,rectangle,2.96875,-11.55078125,1,0,0,2.96875,-11.55078125,1,0,0,1,66,226,143,1,,,,,,,,
,,,,,,,,,,,,,FF,,,,,,,,1.7988,,,,,,,,,,,,,,,,,,,,,,60ffc5403089b5fc3e1c1a33,61036bb7bb1416c61fa9c1d1,2021-07-29_23h06.42.389,Simcolourproject_2stim_asymm_v5,2020.2.10,MacIntel,60,61025ae37ef11b136ea224fe,,,,,,,,,2839,-67.015625,23.890625,1,0,0,response7disk,,1,13.76953125,-6.2890625,1,0,0,rectangle,13.76953125,-6.2890625,1,0,0,13.76953125,-6.2890625,1,0,0,1,67,227,135,1,,,,,,,,
,,,,,,,,,,,,,FF,,,,,,,,1.1503,,,,,,,,,,,,,,,,,,,,,,60ffc5403089b5fc3e1c1a33,61036bb7bb1416c61fa9c1d1,2021-07-29_23h06.42.389,Simcolourproject_2stim_asymm_v5,2020.2.10,MacIntel,60,61025ae37ef11b136ea224fe,,,,,,,,,1703,60.4609375,-30.7265625,1,0,0,response3disk,,5,3.90234375,3.4296875,1,0,0,rectangle,3.90234375,3.4296875,1,0,0,3.90234375,3.4296875,1,0,0,1,68,228,116,1,,,,,,,,
,,,,,,,,,,,,,FF,,,,,,,,2.032,,,,,,,,,,,,,,,,,,,,,,60ffc5403089b5fc3e1c1a33,61036bb7bb1416c61fa9c1d1,2021-07-29_23h06.42.389,Simcolourproject_2stim_asymm_v5,2020.2.10,MacIntel,60,61025ae37ef11b136ea224fe,,,,,,,,,1255,37.91796875,29.70703125,1,0,0,response1disk,,6,1.33984375,-6.01171875,1,0,0,rectangle,1.33984375,-6.01171875,1,0,0,1.33984375,-6.01171875,1,0,0,1,69,229,56,1,,,,,,,,
,,,,,,,,,,,,,FF,,,,,,,,1.1171,,,,,,,,,,,,,,,,,,,,,,60ffc5403089b5fc3e1c1a33,61036bb7bb1416c61fa9c1d1,2021-07-29_23h06.42.389,Simcolourproject_2stim_asymm_v5,2020.2.10,MacIntel,60,61025ae37ef11b136ea224fe,,,,,,,,,2095,28.9921875,-35.97265625,1,0,0,response3disk,,4,-0.05859375,6.09765625,1,0,0,rectangle,-0.05859375,6.09765625,1,0,0,-0.05859375,6.09765625,1,0,0,1,70,230,155,1,,,,,,,,
,,,,,,,,,,,,,FF,,,,,,,,1.4345,,,,,,,,,,,,,,,,,,,,,,60ffc5403089b5fc3e1c1a33,61036bb7bb1416c61fa9c1d1,2021-07-29_23h06.42.389,Simcolourproject_2stim_asymm_v5,2020.2.10,MacIntel,60,61025ae37ef11b136ea224fe,,,,,,,,,765,50.22265625,19.4609375,1,0,0,response1disk,,6,18.91796875,-11.16015625,1,0,0,rectangle,18.91796875,-11.16015625,1,0,0,18.91796875,-11.16015625,1,0,0,1,71,231,58,1,,,,,,,,
,,,,,,,,,,,,,FF,,,,,,,,0.85,,,,,,,,,,,,,,,,,,,,,,60ffc5403089b5fc3e1c1a33,61036bb7bb1416c61fa9c1d1,2021-07-29_23h06.42.389,Simcolourproject_2stim_asymm_v5,2020.2.10,MacIntel,60,61025ae37ef11b136ea224fe,,,,,,,,,2514,24.04296875,68.2578125,1,0,0,response1disk,,7,10.45703125,-2.296875,1,0,0,rectangle,10.45703125,-2.296875,1,0,0,10.45703125,-2.296875,1,0,0,1,72,232,92,1,,,,,,,,
,,,,,,,,,,,,,FF,,,,,,,,1.8009,,,,,,,,,,,,,,,,,,,,,,60ffc5403089b5fc3e1c1a33,61036bb7bb1416c61fa9c1d1,2021-07-29_23h06.42.389,Simcolourproject_2stim_asymm_v5,2020.2.10,MacIntel,60,61025ae37ef11b136ea224fe,,,,,,,,,612,42.6171875,-72.19921875,1,0,0,response3disk,,4,-3.15234375,-3.69140625,1,0,0,rectangle,-3.15234375,-3.69140625,1,0,0,-3.15234375,-3.69140625,1,0,0,1,73,233,151,1,,,,,,,,
,,,,,,,,,,,,,FF,,,,,,,,1.0667,,,,,,,,,,,,,,,,,,,,,,60ffc5403089b5fc3e1c1a33,61036bb7bb1416c61fa9c1d1,2021-07-29_23h06.42.389,Simcolourproject_2stim_asymm_v5,2020.2.10,MacIntel,60,61025ae37ef11b136ea224fe,,,,,,,,,2541,-57.7421875,-41.1875,1,0,0,response5disk,,2,-13.46484375,-5.77734375,1,0,0,rectangle,-13.46484375,-5.77734375,1,0,0,-13.46484375,-5.77734375,1,0,0,1,74,234,94,1,,,,,,,,
,,,,,,,,,,,,,FF,,,,,,,,1.6489,,,,,,,,,,,,,,,,,,,,,,60ffc5403089b5fc3e1c1a33,61036bb7bb1416c61fa9c1d1,2021-07-29_23h06.42.389,Simcolourproject_2stim_asymm_v5,2020.2.10,MacIntel,60,61025ae37ef11b136ea224fe,,,,,,,,,2525,20.17578125,64.1015625,1,0,0,response1disk,,7,5.05859375,-3.0625,1,0,0,rectangle,5.05859375,-3.0625,1,0,0,5.05859375,-3.0625,1,0,0,1,75,235,87,1,,,,,,,,
,,,,,,,,,,,,,FF,,,,,,,,4.5155,,,,,,,,,,,,,,,,,,,,,,60ffc5403089b5fc3e1c1a33,61036bb7bb1416c61fa9c1d1,2021-07-29_23h06.42.389,Simcolourproject_2stim_asymm_v5,2020.2.10,MacIntel,60,61025ae37ef11b136ea224fe,,,,,,,,,3903,57.359375,-36.9921875,1,0,0,response3disk,,5,14.20703125,-0.375,1,0,0,rectangle,14.20703125,-0.375,1,0,0,14.20703125,-0.375,1,0,0,1,76,236,1,1,,,,,,,,
,,,,,,,,,,,,,FF,,,,,,,,1.3832,,,,,,,,,,,,,,,,,,,,,,60ffc5403089b5fc3e1c1a33,61036bb7bb1416c61fa9c1d1,2021-07-29_23h06.42.389,Simcolourproject_2stim_asymm_v5,2020.2.10,MacIntel,60,61025ae37ef11b136ea224fe,,,,,,,,,2096,24.6875,-52.015625,1,0,0,response3disk,,4,-10.28125,-2.8828125,1,0,0,rectangle,-10.28125,-2.8828125,1,0,0,-10.28125,-2.8828125,1,0,0,1,77,237,149,1,,,,,,,,
,,,,,,,,,,,,,FF,,,,,,,,0.8339,,,,,,,,,,,,,,,,,,,,,,60ffc5403089b5fc3e1c1a33,61036bb7bb1416c61fa9c1d1,2021-07-29_23h06.42.389,Simcolourproject_2stim_asymm_v5,2020.2.10,MacIntel,60,61025ae37ef11b136ea224fe,,,,,,,,,3732,25.8515625,62.81640625,1,0,0,response1disk,,7,11.13671875,3.91796875,1,0,0,rectangle,11.13671875,3.91796875,1,0,0,11.13671875,3.91796875,1,0,0,1,78,238,31,1,,,,,,,,
,,,,,,,,,,,,,FF,,,,,,,,0.8826,,,,,,,,,,,,,,,,,,,,,,60ffc5403089b5fc3e1c1a33,61036bb7bb1416c61fa9c1d1,2021-07-29_23h06.42.389,Simcolourproject_2stim_asymm_v5,2020.2.10,MacIntel,60,61025ae37ef11b136ea224fe,,,,,,,,,2046,-32.9765625,-65.06640625,1,0,0,response5disk,,3,1.25,7.17578125,1,0,0,rectangle,1.25,7.17578125,1,0,0,1.25,7.17578125,1,0,0,1,79,239,21,1,,,,,,,,
,,,,,,,,,,,,,FF,,,,,,,,0.8168,,,,,,,,,,,,,,,,,,,,,,60ffc5403089b5fc3e1c1a33,61036bb7bb1416c61fa9c1d1,2021-07-29_23h06.42.389,Simcolourproject_2stim_asymm_v5,2020.2.10,MacIntel,60,61025ae37ef11b136ea224fe,,,,,,,,,2607,-53.16015625,28.30078125,1,0,0,response7disk,,1,6.19921875,-0.6640625,1,0,0,rectangle,6.19921875,-0.6640625,1,0,0,6.19921875,-0.6640625,1,0,0,1,80,240,82,1,,,,,,,,
,,,,,,,,,,,,,FF,,,,,,,,0.7656,,,,,,,,,,,,,,,,,,,,,,60ffc5403089b5fc3e1c1a33,61036bb7bb1416c61fa9c1d1,2021-07-29_23h06.42.389,Simcolourproject_2stim_asymm_v5,2020.2.10,MacIntel,60,61025ae37ef11b136ea224fe,,,,,,,,,1922,30.89453125,82.04296875,1,0,0,response1disk,,7,2.83984375,5.28515625,1,0,0,rectangle,2.83984375,5.28515625,1,0,0,2.83984375,5.28515625,1,0,0,1,81,241,100,1,,,,,,,,
,,,,,,,,,,,,,FF,,,,,,,,1.2014,,,,,,,,,,,,,,,,,,,,,,60ffc5403089b5fc3e1c1a33,61036bb7bb1416c61fa9c1d1,2021-07-29_23h06.42.389,Simcolourproject_2stim_asymm_v5,2020.2.10,MacIntel,60,61025ae37ef11b136ea224fe,,,,,,,,,791,38.953125,-62.65234375,1,0,0,response3disk,,4,11.5625,-2.515625,1,0,0,rectangle,11.5625,-2.515625,1,0,0,11.5625,-2.515625,1,0,0,1,82,242,89,1,,,,,,,,
,,,,,,,,,,,,,FF,,,,,,,,0.7655,,,,,,,,,,,,,,,,,,,,,,60ffc5403089b5fc3e1c1a33,61036bb7bb1416c61fa9c1d1,2021-07-29_23h06.42.389,Simcolourproject_2stim_asymm_v5,2020.2.10,MacIntel,60,61025ae37ef11b136ea224fe,,,,,,,,,4341,23.359375,63.22265625,1,0,0,response1disk,,7,8.515625,8.55078125,1,0,0,rectangle,8.515625,8.55078125,1,0,0,8.515625,8.55078125,1,0,0,1,83,243,16,1,,,,,,,,
,,,,,,,,,,,,,FF,,,,,,,,0.7488,,,,,,,,,,,,,,,,,,,,,,60ffc5403089b5fc3e1c1a33,61036bb7bb1416c61fa9c1d1,2021-07-29_23h06.42.389,Simcolourproject_2stim_asymm_v5,2020.2.10,MacIntel,60,61025ae37ef11b136ea224fe,,,,,,,,,1503,26.94921875,73.41796875,1,0,0,response1disk,,7,6.08984375,9.85546875,1,0,0,rectangle,6.08984375,9.85546875,1,0,0,6.08984375,9.85546875,1,0,0,1,84,244,75,1,,,,,,,,
,,,,,,,,,,,,,FF,,,,,,,,0.9339,,,,,,,,,,,,,,,,,,,,,,60ffc5403089b5fc3e1c1a33,61036bb7bb1416c61fa9c1d1,2021-07-29_23h06.42.389,Simcolourproject_2stim_asymm_v5,2020.2.10,MacIntel,60,61025ae37ef11b136ea224fe,,,,,,,,,2244,75.9921875,37.93359375,1,0,0,response1disk,,6,-5.96875,-11.33984375,1,0,0,rectangle,-5.96875,-11.33984375,1,0,0,-5.96875,-11.33984375,1,0,0,1,85,245,114,1,,,,,,,,
,,,,,,,,,,,,,FF,,,,,,,,1.3992,,,,,,,,,,,,,,,,,,,,,,60ffc5403089b5fc3e1c1a33,61036bb7bb1416c61fa9c1d1,2021-07-29_23h06.42.389,Simcolourproject_2stim_asymm_v5,2020.2.10,MacIntel,60,61025ae37ef11b136ea224fe,,,,,,,,,7,15.9453125,-67.96875,1,0,0,response3disk,,4,-2.25,-0.53515625,1,0,0,rectangle,-2.25,-0.53515625,1,0,0,-2.25,-0.53515625,1,0,0,1,86,246,154,1,,,,,,,,
,,,,,,,,,,,,,FF,,,,,,,,0.7999,,,,,,,,,,,,,,,,,,,,,,60ffc5403089b5fc3e1c1a33,61036bb7bb1416c61fa9c1d1,2021-07-29_23h06.42.389,Simcolourproject_2stim_asymm_v5,2020.2.10,MacIntel,60,61025ae37ef11b136ea224fe,,,,,,,,,377,26.1484375,62.4765625,1,0,0,response1disk,,7,5.02734375,-4.4609375,1,0,0,rectangle,5.02734375,-4.4609375,1,0,0,5.02734375,-4.4609375,1,0,0,1,87,247,111,1,,,,,,,,
,,,,,,,,,,,,,FF,,,,,,,,0.9156,,,,,,,,,,,,,,,,,,,,,,60ffc5403089b5fc3e1c1a33,61036bb7bb1416c61fa9c1d1,2021-07-29_23h06.42.389,Simcolourproject_2stim_asymm_v5,2020.2.10,MacIntel,60,61025ae37ef11b136ea224fe,,,,,,,,,4254,56.32421875,-27.6171875,1,0,0,response3disk,,5,6.0390625,13.9609375,1,0,0,rectangle,6.0390625,13.9609375,1,0,0,6.0390625,13.9609375,1,0,0,1,88,248,72,1,,,,,,,,
,,,,,,,,,,,,,FF,,,,,,,,0.9836,,,,,,,,,,,,,,,,,,,,,,60ffc5403089b5fc3e1c1a33,61036bb7bb1416c61fa9c1d1,2021-07-29_23h06.42.389,Simcolourproject_2stim_asymm_v5,2020.2.10,MacIntel,60,61025ae37ef11b136ea224fe,,,,,,,,,341,-48.96484375,-58.35546875,1,0,0,response5disk,,3,-10.55078125,3.09375,1,0,0,rectangle,-10.55078125,3.09375,1,0,0,-10.55078125,3.09375,1,0,0,1,89,249,49,1,,,,,,,,
