key_resp.keys,key_resp.rt,key_resp_14.keys,key_resp_14.rt,key_resp_15.keys,key_resp_15.rt,key_resp_17.keys,key_resp_17.rt,key_resp_9.keys,key_resp_9.rt,key_resp_10.keys,key_resp_10.rt,practice_comparison,Ecc,mouse_5.x,mouse_5.y,mouse_5.leftButton,mouse_5.midButton,mouse_5.rightButton,mouse_5.clicked_name,pracsimilarity,response_time,mouse_10.x,mouse_10.y,mouse_10.leftButton,mouse_10.midButton,mouse_10.rightButton,mouse_10.clicked_name,mouse_7.x,mouse_7.y,mouse_7.leftButton,mouse_7.midButton,mouse_7.rightButton,mouse_6.x,mouse_6.y,mouse_6.leftButton,mouse_6.midButton,mouse_6.rightButton,duringprac.thisRepN,duringprac.thisTrialN,duringprac.thisN,duringprac.thisIndex,duringprac.ran,participant,session,date,expName,psychopyVersion,OS,frameRate,study_id,mouse_7.clicked_name,catchpracsimilarity,catch_response_time,catchnumberprac,catchtrialorderprac,mouse_6.clicked_name,key_resp_22.keys,key_resp_22.rt,realcomparison,mouse.x,mouse.y,mouse.leftButton,mouse.midButton,mouse.rightButton,mouse.clicked_name,Colour2,similarity,mouse_2.x,mouse_2.y,mouse_2.leftButton,mouse_2.midButton,mouse_2.rightButton,mouse_2.clicked_name,mouse_3.x,mouse_3.y,mouse_3.leftButton,mouse_3.midButton,mouse_3.rightButton,mouse_11.x,mouse_11.y,mouse_11.leftButton,mouse_11.midButton,mouse_11.rightButton,trials_2.thisRepN,trials_2.thisTrialN,trials_2.thisN,trials_2.thisIndex,trials_2.ran,Colour1,mouse_3.clicked_name,catchornah,catchsimilarity,catchnumber,catchtrialorder,catchRT,mouse_11.clicked_name
space,5.0843,space,9.3515,space,15.2083,space,6.0186,space,2.3739,space,5.351,14,FF,71,137,1,0,0,response1disk_5,7,7.1116,28,9,1,0,0,rectangle_8,28,9,1,0,0,28,9,1,0,0,0,0,0,3,1,60ff41a9ef7f2c9d81bd6a63,61037564795380b16069e749,2021-07-29_23h01.04.872,Simcolourproject_2stim_asymm_v5,2020.2.10,Win32,60,61025ae37ef11b136ea224fe,,,,,,,,,,,,,,,,,,,,,,,,,,,,,,,,,,,,,,,,,,,,,,
,,,,,,,,,,,,16,FF,43,73,1,0,0,response1disk_5,7,4.5968,17,-15,1,0,0,rectangle_8,-63,-129,1,0,0,7,-5,1,0,0,0,1,1,0,1,60ff41a9ef7f2c9d81bd6a63,61037564795380b16069e749,2021-07-29_23h01.04.872,Simcolourproject_2stim_asymm_v5,2020.2.10,Win32,60,61025ae37ef11b136ea224fe,response5disk_7,3,3.3324,3,"[2,5]",rectangle_4,,,,,,,,,,,,,,,,,,,,,,,,,,,,,,,,,,,,,,,,
,,,,,,,,,,,,73,PF,49,94,1,0,0,response1disk_5,7,4.4635,22,6,1,0,0,rectangle_8,22,6,1,0,0,22,6,1,0,0,0,2,2,6,1,60ff41a9ef7f2c9d81bd6a63,61037564795380b16069e749,2021-07-29_23h01.04.872,Simcolourproject_2stim_asymm_v5,2020.2.10,Win32,60,61025ae37ef11b136ea224fe,,,,,,,,,,,,,,,,,,,,,,,,,,,,,,,,,,,,,,,,,,,,,,
,,,,,,,,,,,,84,PF,-109,52,1,0,0,response7disk_5,1,6.379,-7,-11,1,0,0,rectangle_8,-7,-11,1,0,0,-7,-11,1,0,0,0,3,3,4,1,60ff41a9ef7f2c9d81bd6a63,61037564795380b16069e749,2021-07-29_23h01.04.872,Simcolourproject_2stim_asymm_v5,2020.2.10,Win32,60,61025ae37ef11b136ea224fe,,,,,,,,,,,,,,,,,,,,,,,,,,,,,,,,,,,,,,,,,,,,,,
,,,,,,,,,,,,41,PF,53,68,1,0,0,response1disk_5,7,1.8321,11,-3,1,0,0,rectangle_8,-46,-100,1,0,0,-11,11,1,0,0,0,4,4,2,1,60ff41a9ef7f2c9d81bd6a63,61037564795380b16069e749,2021-07-29_23h01.04.872,Simcolourproject_2stim_asymm_v5,2020.2.10,Win32,60,61025ae37ef11b136ea224fe,response5disk_7,3,1.9154,3,"[2,5]",rectangle_4,,,,,,,,,,,,,,,,,,,,,,,,,,,,,,,,,,,,,,,,
,,,,,,,,,,,,44,PF,62,104,1,0,0,response1disk_5,7,2.9812,25,-12,1,0,0,rectangle_8,25,-12,1,0,0,25,-12,1,0,0,0,5,5,1,1,60ff41a9ef7f2c9d81bd6a63,61037564795380b16069e749,2021-07-29_23h01.04.872,Simcolourproject_2stim_asymm_v5,2020.2.10,Win32,60,61025ae37ef11b136ea224fe,,,,,,,,,,,,,,,,,,,,,,,,,,,,,,,,,,,,,,,,,,,,,,
,,,,,,,,,,,,109,FF,44,95,1,0,0,response1disk_5,7,0.9328,29,10,1,0,0,rectangle_8,29,10,1,0,0,29,10,1,0,0,0,6,6,5,1,60ff41a9ef7f2c9d81bd6a63,61037564795380b16069e749,2021-07-29_23h01.04.872,Simcolourproject_2stim_asymm_v5,2020.2.10,Win32,60,61025ae37ef11b136ea224fe,,,,,,,,,,,,,,,,,,,,,,,,,,,,,,,,,,,,,,,,,,,,,,
,,,,,,,,,,,,,FF,,,,,,,,5.2646,,,,,,,,,,,,,,,,,,,,,,60ff41a9ef7f2c9d81bd6a63,61037564795380b16069e749,2021-07-29_23h01.04.872,Simcolourproject_2stim_asymm_v5,2020.2.10,Win32,60,61025ae37ef11b136ea224fe,,,,,,,space,3.3609,1220,95,33,1,0,0,response1disk,,6,12,4,1,0,0,rectangle,12,4,1,0,0,12,4,1,0,0,0,0,0,11,1,,,,,,,,
,,,,,,,,,,,,,FF,,,,,,,,0.9494,,,,,,,,,,,,,,,,,,,,,,60ff41a9ef7f2c9d81bd6a63,61037564795380b16069e749,2021-07-29_23h01.04.872,Simcolourproject_2stim_asymm_v5,2020.2.10,Win32,60,61025ae37ef11b136ea224fe,,,,,,,,,1279,79,121,1,0,0,response1disk,,7,26,9,1,0,0,rectangle,26,9,1,0,0,26,9,1,0,0,0,1,1,29,1,,,,,,,,
,,,,,,,,,,,,,FF,,,,,,,,0.7329,,,,,,,,,,,,,,,,,,,,,,60ff41a9ef7f2c9d81bd6a63,61037564795380b16069e749,2021-07-29_23h01.04.872,Simcolourproject_2stim_asymm_v5,2020.2.10,Win32,60,61025ae37ef11b136ea224fe,,,,,,,,,3124,68,119,1,0,0,response1disk,,7,33,19,1,0,0,rectangle,58,-141,1,0,0,20,-10,1,0,0,0,2,2,47,1,,response3disk_3,TRUE,4,4,"[57,74,312,101,207,81,242,268,157,237,224,5,285,195,246,225,36,3,228,241]",2.0323,rectangle
,,,,,,,,,,,,,FF,,,,,,,,3.0812,,,,,,,,,,,,,,,,,,,,,,60ff41a9ef7f2c9d81bd6a63,61037564795380b16069e749,2021-07-29_23h01.04.872,Simcolourproject_2stim_asymm_v5,2020.2.10,Win32,60,61025ae37ef11b136ea224fe,,,,,,,,,261,98,74,1,0,0,response1disk,,6,31,6,1,0,0,rectangle,31,6,1,0,0,31,6,1,0,0,0,3,3,68,1,,,,,,,,
,,,,,,,,,,,,,FF,,,,,,,,0.7163,,,,,,,,,,,,,,,,,,,,,,60ff41a9ef7f2c9d81bd6a63,61037564795380b16069e749,2021-07-29_23h01.04.872,Simcolourproject_2stim_asymm_v5,2020.2.10,Win32,60,61025ae37ef11b136ea224fe,,,,,,,,,2323,49,101,1,0,0,response1disk,,7,3,-2,1,0,0,rectangle,-53,72,1,0,0,-21,3,1,0,0,0,4,4,101,1,,response7disk_3,TRUE,0,0,"[57,74,312,101,207,81,242,268,157,237,224,5,285,195,246,225,36,3,228,241]",1.8323,rectangle
,,,,,,,,,,,,,FF,,,,,,,,0.7165,,,,,,,,,,,,,,,,,,,,,,60ff41a9ef7f2c9d81bd6a63,61037564795380b16069e749,2021-07-29_23h01.04.872,Simcolourproject_2stim_asymm_v5,2020.2.10,Win32,60,61025ae37ef11b136ea224fe,,,,,,,,,2505,41,90,1,0,0,response1disk,,7,5,8,1,0,0,rectangle,5,8,1,0,0,5,8,1,0,0,0,5,5,127,1,,,,,,,,
,,,,,,,,,,,,,FF,,,,,,,,0.6831,,,,,,,,,,,,,,,,,,,,,,60ff41a9ef7f2c9d81bd6a63,61037564795380b16069e749,2021-07-29_23h01.04.872,Simcolourproject_2stim_asymm_v5,2020.2.10,Win32,60,61025ae37ef11b136ea224fe,,,,,,,,,4264,39,94,1,0,0,response1disk,,7,14,2,1,0,0,rectangle,14,2,1,0,0,14,2,1,0,0,0,6,6,91,1,,,,,,,,
,,,,,,,,,,,,,FF,,,,,,,,0.8328,,,,,,,,,,,,,,,,,,,,,,60ff41a9ef7f2c9d81bd6a63,61037564795380b16069e749,2021-07-29_23h01.04.872,Simcolourproject_2stim_asymm_v5,2020.2.10,Win32,60,61025ae37ef11b136ea224fe,,,,,,,,,401,64,100,1,0,0,response1disk,,7,14,10,1,0,0,rectangle,14,10,1,0,0,14,10,1,0,0,0,7,7,77,1,,,,,,,,
,,,,,,,,,,,,,FF,,,,,,,,4.8632,,,,,,,,,,,,,,,,,,,,,,60ff41a9ef7f2c9d81bd6a63,61037564795380b16069e749,2021-07-29_23h01.04.872,Simcolourproject_2stim_asymm_v5,2020.2.10,Win32,60,61025ae37ef11b136ea224fe,,,,,,,,,1293,-69,-40,1,0,0,response5disk,,2,-15,8,1,0,0,rectangle,-15,8,1,0,0,-15,8,1,0,0,0,8,8,159,1,,,,,,,,
,,,,,,,,,,,,,FF,,,,,,,,2.3153,,,,,,,,,,,,,,,,,,,,,,60ff41a9ef7f2c9d81bd6a63,61037564795380b16069e749,2021-07-29_23h01.04.872,Simcolourproject_2stim_asymm_v5,2020.2.10,Win32,60,61025ae37ef11b136ea224fe,,,,,,,,,2094,-73,40,1,0,0,response7disk,,1,7,6,1,0,0,rectangle,7,6,1,0,0,7,6,1,0,0,0,9,9,143,1,,,,,,,,
,,,,,,,,,,,,,FF,,,,,,,,1.3161,,,,,,,,,,,,,,,,,,,,,,60ff41a9ef7f2c9d81bd6a63,61037564795380b16069e749,2021-07-29_23h01.04.872,Simcolourproject_2stim_asymm_v5,2020.2.10,Win32,60,61025ae37ef11b136ea224fe,,,,,,,,,2304,42,83,1,0,0,response1disk,,7,19,12,1,0,0,rectangle,19,12,1,0,0,19,12,1,0,0,0,10,10,36,1,,,,,,,,
,,,,,,,,,,,,,FF,,,,,,,,0.8158,,,,,,,,,,,,,,,,,,,,,,60ff41a9ef7f2c9d81bd6a63,61037564795380b16069e749,2021-07-29_23h01.04.872,Simcolourproject_2stim_asymm_v5,2020.2.10,Win32,60,61025ae37ef11b136ea224fe,,,,,,,,,3863,40,94,1,0,0,response1disk,,7,14,10,1,0,0,rectangle,14,10,1,0,0,14,10,1,0,0,0,11,11,137,1,,,,,,,,
,,,,,,,,,,,,,FF,,,,,,,,0.5664,,,,,,,,,,,,,,,,,,,,,,60ff41a9ef7f2c9d81bd6a63,61037564795380b16069e749,2021-07-29_23h01.04.872,Simcolourproject_2stim_asymm_v5,2020.2.10,Win32,60,61025ae37ef11b136ea224fe,,,,,,,,,3027,51,93,1,0,0,response1disk,,7,22,5,1,0,0,rectangle,22,5,1,0,0,22,5,1,0,0,0,12,12,132,1,,,,,,,,
,,,,,,,,,,,,,FF,,,,,,,,1.5325,,,,,,,,,,,,,,,,,,,,,,60ff41a9ef7f2c9d81bd6a63,61037564795380b16069e749,2021-07-29_23h01.04.872,Simcolourproject_2stim_asymm_v5,2020.2.10,Win32,60,61025ae37ef11b136ea224fe,,,,,,,,,4162,58,97,1,0,0,response1disk,,7,28,10,1,0,0,rectangle,28,10,1,0,0,28,10,1,0,0,0,13,13,138,1,,,,,,,,
,,,,,,,,,,,,,FF,,,,,,,,1.3165,,,,,,,,,,,,,,,,,,,,,,60ff41a9ef7f2c9d81bd6a63,61037564795380b16069e749,2021-07-29_23h01.04.872,Simcolourproject_2stim_asymm_v5,2020.2.10,Win32,60,61025ae37ef11b136ea224fe,,,,,,,,,1139,47,70,1,0,0,response1disk,,7,26,10,1,0,0,rectangle,26,10,1,0,0,26,10,1,0,0,0,14,14,88,1,,,,,,,,
,,,,,,,,,,,,,FF,,,,,,,,1.3657,,,,,,,,,,,,,,,,,,,,,,60ff41a9ef7f2c9d81bd6a63,61037564795380b16069e749,2021-07-29_23h01.04.872,Simcolourproject_2stim_asymm_v5,2020.2.10,Win32,60,61025ae37ef11b136ea224fe,,,,,,,,,534,41,78,1,0,0,response1disk,,7,15,4,1,0,0,rectangle,15,4,1,0,0,15,4,1,0,0,0,15,15,157,1,,,,,,,,
,,,,,,,,,,,,,FF,,,,,,,,0.7829,,,,,,,,,,,,,,,,,,,,,,60ff41a9ef7f2c9d81bd6a63,61037564795380b16069e749,2021-07-29_23h01.04.872,Simcolourproject_2stim_asymm_v5,2020.2.10,Win32,60,61025ae37ef11b136ea224fe,,,,,,,,,812,55,90,1,0,0,response1disk,,7,7,-5,1,0,0,rectangle,7,-5,1,0,0,7,-5,1,0,0,0,16,16,89,1,,,,,,,,
,,,,,,,,,,,,,FF,,,,,,,,3.4808,,,,,,,,,,,,,,,,,,,,,,60ff41a9ef7f2c9d81bd6a63,61037564795380b16069e749,2021-07-29_23h01.04.872,Simcolourproject_2stim_asymm_v5,2020.2.10,Win32,60,61025ae37ef11b136ea224fe,,,,,,,,,3435,96,47,1,0,0,response1disk,,6,-2,-10,1,0,0,rectangle,-2,-10,1,0,0,-2,-10,1,0,0,0,17,17,37,1,,,,,,,,
,,,,,,,,,,,,,FF,,,,,,,,0.8162,,,,,,,,,,,,,,,,,,,,,,60ff41a9ef7f2c9d81bd6a63,61037564795380b16069e749,2021-07-29_23h01.04.872,Simcolourproject_2stim_asymm_v5,2020.2.10,Win32,60,61025ae37ef11b136ea224fe,,,,,,,,,1171,86,107,1,0,0,response1disk,,7,19,6,1,0,0,rectangle,19,6,1,0,0,19,6,1,0,0,0,18,18,105,1,,,,,,,,
,,,,,,,,,,,,,FF,,,,,,,,0.6331,,,,,,,,,,,,,,,,,,,,,,60ff41a9ef7f2c9d81bd6a63,61037564795380b16069e749,2021-07-29_23h01.04.872,Simcolourproject_2stim_asymm_v5,2020.2.10,Win32,60,61025ae37ef11b136ea224fe,,,,,,,,,1883,64,82,1,0,0,response1disk,,7,14,-14,1,0,0,rectangle,14,-14,1,0,0,14,-14,1,0,0,0,19,19,146,1,,,,,,,,
,,,,,,,,,,,,,FF,,,,,,,,0.7164,,,,,,,,,,,,,,,,,,,,,,60ff41a9ef7f2c9d81bd6a63,61037564795380b16069e749,2021-07-29_23h01.04.872,Simcolourproject_2stim_asymm_v5,2020.2.10,Win32,60,61025ae37ef11b136ea224fe,,,,,,,,,3416,25,80,1,0,0,response1disk,,7,-1,6,1,0,0,rectangle,-1,6,1,0,0,-1,6,1,0,0,0,20,20,28,1,,,,,,,,
,,,,,,,,,,,,,FF,,,,,,,,3.2978,,,,,,,,,,,,,,,,,,,,,,60ff41a9ef7f2c9d81bd6a63,61037564795380b16069e749,2021-07-29_23h01.04.872,Simcolourproject_2stim_asymm_v5,2020.2.10,Win32,60,61025ae37ef11b136ea224fe,,,,,,,,,964,39,62,1,0,0,response1disk,,7,25,13,1,0,0,rectangle,25,13,1,0,0,25,13,1,0,0,0,21,21,63,1,,,,,,,,
,,,,,,,,,,,,,FF,,,,,,,,0.5998,,,,,,,,,,,,,,,,,,,,,,60ff41a9ef7f2c9d81bd6a63,61037564795380b16069e749,2021-07-29_23h01.04.872,Simcolourproject_2stim_asymm_v5,2020.2.10,Win32,60,61025ae37ef11b136ea224fe,,,,,,,,,3659,43,83,1,0,0,response1disk,,7,25,3,1,0,0,rectangle,25,3,1,0,0,25,3,1,0,0,0,22,22,9,1,,,,,,,,
,,,,,,,,,,,,,FF,,,,,,,,0.8829,,,,,,,,,,,,,,,,,,,,,,60ff41a9ef7f2c9d81bd6a63,61037564795380b16069e749,2021-07-29_23h01.04.872,Simcolourproject_2stim_asymm_v5,2020.2.10,Win32,60,61025ae37ef11b136ea224fe,,,,,,,,,2631,59,97,1,0,0,response1disk,,7,26,16,1,0,0,rectangle,26,16,1,0,0,26,16,1,0,0,0,23,23,111,1,,,,,,,,
,,,,,,,,,,,,,FF,,,,,,,,2.8982,,,,,,,,,,,,,,,,,,,,,,60ff41a9ef7f2c9d81bd6a63,61037564795380b16069e749,2021-07-29_23h01.04.872,Simcolourproject_2stim_asymm_v5,2020.2.10,Win32,60,61025ae37ef11b136ea224fe,,,,,,,,,2834,27,58,1,0,0,response1disk,,7,15,16,1,0,0,rectangle,15,16,1,0,0,15,16,1,0,0,0,24,24,134,1,,,,,,,,
,,,,,,,,,,,,,FF,,,,,,,,0.7662,,,,,,,,,,,,,,,,,,,,,,60ff41a9ef7f2c9d81bd6a63,61037564795380b16069e749,2021-07-29_23h01.04.872,Simcolourproject_2stim_asymm_v5,2020.2.10,Win32,60,61025ae37ef11b136ea224fe,,,,,,,,,4326,-47,89,1,0,0,response7disk,,0,-36,3,1,0,0,rectangle,-36,3,1,0,0,-36,3,1,0,0,0,25,25,148,1,,,,,,,,
,,,,,,,,,,,,,FF,,,,,,,,0.6498,,,,,,,,,,,,,,,,,,,,,,60ff41a9ef7f2c9d81bd6a63,61037564795380b16069e749,2021-07-29_23h01.04.872,Simcolourproject_2stim_asymm_v5,2020.2.10,Win32,60,61025ae37ef11b136ea224fe,,,,,,,,,926,43,104,1,0,0,response1disk,,7,14,5,1,0,0,rectangle,14,5,1,0,0,14,5,1,0,0,0,26,26,152,1,,,,,,,,
,,,,,,,,,,,,,FF,,,,,,,,0.6332,,,,,,,,,,,,,,,,,,,,,,60ff41a9ef7f2c9d81bd6a63,61037564795380b16069e749,2021-07-29_23h01.04.872,Simcolourproject_2stim_asymm_v5,2020.2.10,Win32,60,61025ae37ef11b136ea224fe,,,,,,,,,2243,51,94,1,0,0,response1disk,,7,21,-1,1,0,0,rectangle,21,-1,1,0,0,21,-1,1,0,0,0,27,27,122,1,,,,,,,,
,,,,,,,,,,,,,FF,,,,,,,,0.7829,,,,,,,,,,,,,,,,,,,,,,60ff41a9ef7f2c9d81bd6a63,61037564795380b16069e749,2021-07-29_23h01.04.872,Simcolourproject_2stim_asymm_v5,2020.2.10,Win32,60,61025ae37ef11b136ea224fe,,,,,,,,,2475,57,122,1,0,0,response1disk,,7,0,-7,1,0,0,rectangle,0,-7,1,0,0,0,-7,1,0,0,0,28,28,110,1,,,,,,,,
,,,,,,,,,,,,,FF,,,,,,,,2.4151,,,,,,,,,,,,,,,,,,,,,,60ff41a9ef7f2c9d81bd6a63,61037564795380b16069e749,2021-07-29_23h01.04.872,Simcolourproject_2stim_asymm_v5,2020.2.10,Win32,60,61025ae37ef11b136ea224fe,,,,,,,,,3574,50,106,1,0,0,response1disk,,7,6,11,1,0,0,rectangle,6,11,1,0,0,6,11,1,0,0,0,29,29,23,1,,,,,,,,
,,,,,,,,,,,,,FF,,,,,,,,0.9991,,,,,,,,,,,,,,,,,,,,,,60ff41a9ef7f2c9d81bd6a63,61037564795380b16069e749,2021-07-29_23h01.04.872,Simcolourproject_2stim_asymm_v5,2020.2.10,Win32,60,61025ae37ef11b136ea224fe,,,,,,,,,56,36,79,1,0,0,response1disk,,7,13,-10,1,0,0,rectangle,13,-10,1,0,0,13,-10,1,0,0,0,30,30,95,1,,,,,,,,
,,,,,,,,,,,,,FF,,,,,,,,0.6495,,,,,,,,,,,,,,,,,,,,,,60ff41a9ef7f2c9d81bd6a63,61037564795380b16069e749,2021-07-29_23h01.04.872,Simcolourproject_2stim_asymm_v5,2020.2.10,Win32,60,61025ae37ef11b136ea224fe,,,,,,,,,3733,47,99,1,0,0,response1disk,,7,5,6,1,0,0,rectangle,5,6,1,0,0,5,6,1,0,0,0,31,31,14,1,,,,,,,,
,,,,,,,,,,,,,FF,,,,,,,,0.6164,,,,,,,,,,,,,,,,,,,,,,60ff41a9ef7f2c9d81bd6a63,61037564795380b16069e749,2021-07-29_23h01.04.872,Simcolourproject_2stim_asymm_v5,2020.2.10,Win32,60,61025ae37ef11b136ea224fe,,,,,,,,,2066,27,97,1,0,0,response1disk,,7,24,10,1,0,0,rectangle,24,10,1,0,0,24,10,1,0,0,0,32,32,49,1,,,,,,,,
,,,,,,,,,,,,,FF,,,,,,,,1.1493,,,,,,,,,,,,,,,,,,,,,,60ff41a9ef7f2c9d81bd6a63,61037564795380b16069e749,2021-07-29_23h01.04.872,Simcolourproject_2stim_asymm_v5,2020.2.10,Win32,60,61025ae37ef11b136ea224fe,,,,,,,,,3913,55,43,1,0,0,response1disk,,6,14,20,1,0,0,rectangle,14,20,1,0,0,14,20,1,0,0,0,33,33,131,1,,,,,,,,
,,,,,,,,,,,,,FF,,,,,,,,0.7662,,,,,,,,,,,,,,,,,,,,,,60ff41a9ef7f2c9d81bd6a63,61037564795380b16069e749,2021-07-29_23h01.04.872,Simcolourproject_2stim_asymm_v5,2020.2.10,Win32,60,61025ae37ef11b136ea224fe,,,,,,,,,3319,57,90,1,0,0,response1disk,,7,7,10,1,0,0,rectangle,7,10,1,0,0,7,10,1,0,0,0,34,34,144,1,,,,,,,,
,,,,,,,,,,,,,FF,,,,,,,,1.2158,,,,,,,,,,,,,,,,,,,,,,60ff41a9ef7f2c9d81bd6a63,61037564795380b16069e749,2021-07-29_23h01.04.872,Simcolourproject_2stim_asymm_v5,2020.2.10,Win32,60,61025ae37ef11b136ea224fe,,,,,,,,,1649,56,95,1,0,0,response1disk,,7,-20,-7,1,0,0,rectangle,73,-24,1,0,0,-12,16,1,0,0,0,35,35,158,1,,response3disk_3,TRUE,5,5,"[57,74,312,101,207,81,242,268,157,237,224,5,285,195,246,225,36,3,228,241]",1.8152,rectangle
,,,,,,,,,,,,,FF,,,,,,,,0.9328,,,,,,,,,,,,,,,,,,,,,,60ff41a9ef7f2c9d81bd6a63,61037564795380b16069e749,2021-07-29_23h01.04.872,Simcolourproject_2stim_asymm_v5,2020.2.10,Win32,60,61025ae37ef11b136ea224fe,,,,,,,,,2569,52,101,1,0,0,response1disk,,7,10,11,1,0,0,rectangle,10,11,1,0,0,10,11,1,0,0,0,36,36,7,1,,,,,,,,
,,,,,,,,,,,,,FF,,,,,,,,0.7331,,,,,,,,,,,,,,,,,,,,,,60ff41a9ef7f2c9d81bd6a63,61037564795380b16069e749,2021-07-29_23h01.04.872,Simcolourproject_2stim_asymm_v5,2020.2.10,Win32,60,61025ae37ef11b136ea224fe,,,,,,,,,800,62,99,1,0,0,response1disk,,7,20,15,1,0,0,rectangle,20,15,1,0,0,20,15,1,0,0,0,37,37,50,1,,,,,,,,
,,,,,,,,,,,,,FF,,,,,,,,1.3826,,,,,,,,,,,,,,,,,,,,,,60ff41a9ef7f2c9d81bd6a63,61037564795380b16069e749,2021-07-29_23h01.04.872,Simcolourproject_2stim_asymm_v5,2020.2.10,Win32,60,61025ae37ef11b136ea224fe,,,,,,,,,107,46,75,1,0,0,response1disk,,7,6,-2,1,0,0,rectangle,6,-2,1,0,0,6,-2,1,0,0,0,38,38,12,1,,,,,,,,
,,,,,,,,,,,,,FF,,,,,,,,0.7496,,,,,,,,,,,,,,,,,,,,,,60ff41a9ef7f2c9d81bd6a63,61037564795380b16069e749,2021-07-29_23h01.04.872,Simcolourproject_2stim_asymm_v5,2020.2.10,Win32,60,61025ae37ef11b136ea224fe,,,,,,,,,2349,92,167,1,0,0,response1disk,,7,-15,0,1,0,0,rectangle,-15,0,1,0,0,-15,0,1,0,0,0,39,39,74,1,,,,,,,,
,,,,,,,,,,,,,FF,,,,,,,,0.6664,,,,,,,,,,,,,,,,,,,,,,60ff41a9ef7f2c9d81bd6a63,61037564795380b16069e749,2021-07-29_23h01.04.872,Simcolourproject_2stim_asymm_v5,2020.2.10,Win32,60,61025ae37ef11b136ea224fe,,,,,,,,,3429,46,91,1,0,0,response1disk,,7,11,6,1,0,0,rectangle,11,6,1,0,0,11,6,1,0,0,0,40,40,5,1,,,,,,,,
,,,,,,,,,,,,,FF,,,,,,,,0.5498,,,,,,,,,,,,,,,,,,,,,,60ff41a9ef7f2c9d81bd6a63,61037564795380b16069e749,2021-07-29_23h01.04.872,Simcolourproject_2stim_asymm_v5,2020.2.10,Win32,60,61025ae37ef11b136ea224fe,,,,,,,,,3619,55,82,1,0,0,response1disk,,7,14,16,1,0,0,rectangle,14,16,1,0,0,14,16,1,0,0,0,41,41,119,1,,,,,,,,
,,,,,,,,,,,,,FF,,,,,,,,1.6819,,,,,,,,,,,,,,,,,,,,,,60ff41a9ef7f2c9d81bd6a63,61037564795380b16069e749,2021-07-29_23h01.04.872,Simcolourproject_2stim_asymm_v5,2020.2.10,Win32,60,61025ae37ef11b136ea224fe,,,,,,,,,2320,54,80,1,0,0,response1disk,,7,11,2,1,0,0,rectangle,11,2,1,0,0,11,2,1,0,0,0,42,42,92,1,,,,,,,,
,,,,,,,,,,,,,FF,,,,,,,,0.5497,,,,,,,,,,,,,,,,,,,,,,60ff41a9ef7f2c9d81bd6a63,61037564795380b16069e749,2021-07-29_23h01.04.872,Simcolourproject_2stim_asymm_v5,2020.2.10,Win32,60,61025ae37ef11b136ea224fe,,,,,,,,,2621,43,72,1,0,0,response1disk,,7,6,-6,1,0,0,rectangle,6,-6,1,0,0,6,-6,1,0,0,0,43,43,59,1,,,,,,,,
,,,,,,,,,,,,,FF,,,,,,,,1.8149,,,,,,,,,,,,,,,,,,,,,,60ff41a9ef7f2c9d81bd6a63,61037564795380b16069e749,2021-07-29_23h01.04.872,Simcolourproject_2stim_asymm_v5,2020.2.10,Win32,60,61025ae37ef11b136ea224fe,,,,,,,,,1225,42,79,1,0,0,response1disk,,7,10,-5,1,0,0,rectangle,10,-5,1,0,0,10,-5,1,0,0,0,44,44,70,1,,,,,,,,
,,,,,,,,,,,,,FF,,,,,,,,0.4332,,,,,,,,,,,,,,,,,,,,,,60ff41a9ef7f2c9d81bd6a63,61037564795380b16069e749,2021-07-29_23h01.04.872,Simcolourproject_2stim_asymm_v5,2020.2.10,Win32,60,61025ae37ef11b136ea224fe,,,,,,,,,1399,37,86,1,0,0,response1disk,,7,2,10,1,0,0,rectangle,2,10,1,0,0,2,10,1,0,0,0,45,45,48,1,,,,,,,,
,,,,,,,,,,,,,FF,,,,,,,,1.882,,,,,,,,,,,,,,,,,,,,,,60ff41a9ef7f2c9d81bd6a63,61037564795380b16069e749,2021-07-29_23h01.04.872,Simcolourproject_2stim_asymm_v5,2020.2.10,Win32,60,61025ae37ef11b136ea224fe,,,,,,,,,4261,46,81,1,0,0,response1disk,,7,16,13,1,0,0,rectangle,16,13,1,0,0,16,13,1,0,0,0,46,46,41,1,,,,,,,,
,,,,,,,,,,,,,FF,,,,,,,,0.5335,,,,,,,,,,,,,,,,,,,,,,60ff41a9ef7f2c9d81bd6a63,61037564795380b16069e749,2021-07-29_23h01.04.872,Simcolourproject_2stim_asymm_v5,2020.2.10,Win32,60,61025ae37ef11b136ea224fe,,,,,,,,,1494,48,80,1,0,0,response1disk,,7,10,-2,1,0,0,rectangle,10,-2,1,0,0,10,-2,1,0,0,0,47,47,147,1,,,,,,,,
,,,,,,,,,,,,,FF,,,,,,,,0.9996,,,,,,,,,,,,,,,,,,,,,,60ff41a9ef7f2c9d81bd6a63,61037564795380b16069e749,2021-07-29_23h01.04.872,Simcolourproject_2stim_asymm_v5,2020.2.10,Win32,60,61025ae37ef11b136ea224fe,,,,,,,,,483,41,81,1,0,0,response1disk,,7,12,6,1,0,0,rectangle,12,6,1,0,0,12,6,1,0,0,0,48,48,94,1,,,,,,,,
,,,,,,,,,,,,,FF,,,,,,,,0.4499,,,,,,,,,,,,,,,,,,,,,,60ff41a9ef7f2c9d81bd6a63,61037564795380b16069e749,2021-07-29_23h01.04.872,Simcolourproject_2stim_asymm_v5,2020.2.10,Win32,60,61025ae37ef11b136ea224fe,,,,,,,,,4287,62,93,1,0,0,response1disk,,7,21,9,1,0,0,rectangle,21,9,1,0,0,21,9,1,0,0,0,49,49,151,1,,,,,,,,
,,,,,,,,,,,,,FF,,,,,,,,0.5497,,,,,,,,,,,,,,,,,,,,,,60ff41a9ef7f2c9d81bd6a63,61037564795380b16069e749,2021-07-29_23h01.04.872,Simcolourproject_2stim_asymm_v5,2020.2.10,Win32,60,61025ae37ef11b136ea224fe,,,,,,,,,3645,42,77,1,0,0,response1disk,,7,8,6,1,0,0,rectangle,8,6,1,0,0,8,6,1,0,0,0,50,50,17,1,,,,,,,,
,,,,,,,,,,,,,FF,,,,,,,,2.4651,,,,,,,,,,,,,,,,,,,,,,60ff41a9ef7f2c9d81bd6a63,61037564795380b16069e749,2021-07-29_23h01.04.872,Simcolourproject_2stim_asymm_v5,2020.2.10,Win32,60,61025ae37ef11b136ea224fe,,,,,,,,,2605,79,-29,1,0,0,response3disk,,5,36,-6,1,0,0,rectangle,36,-6,1,0,0,36,-6,1,0,0,0,51,51,53,1,,,,,,,,
,,,,,,,,,,,,,FF,,,,,,,,0.967,,,,,,,,,,,,,,,,,,,,,,60ff41a9ef7f2c9d81bd6a63,61037564795380b16069e749,2021-07-29_23h01.04.872,Simcolourproject_2stim_asymm_v5,2020.2.10,Win32,60,61025ae37ef11b136ea224fe,,,,,,,,,2041,79,94,1,0,0,response1disk,,7,29,-3,1,0,0,rectangle,29,-3,1,0,0,29,-3,1,0,0,0,52,52,153,1,,,,,,,,
,,,,,,,,,,,,,FF,,,,,,,,1.532,,,,,,,,,,,,,,,,,,,,,,60ff41a9ef7f2c9d81bd6a63,61037564795380b16069e749,2021-07-29_23h01.04.872,Simcolourproject_2stim_asymm_v5,2020.2.10,Win32,60,61025ae37ef11b136ea224fe,,,,,,,,,2437,67,91,1,0,0,response1disk,,7,17,-15,1,0,0,rectangle,17,-15,1,0,0,17,-15,1,0,0,0,53,53,85,1,,,,,,,,
,,,,,,,,,,,,,FF,,,,,,,,1.6489,,,,,,,,,,,,,,,,,,,,,,60ff41a9ef7f2c9d81bd6a63,61037564795380b16069e749,2021-07-29_23h01.04.872,Simcolourproject_2stim_asymm_v5,2020.2.10,Win32,60,61025ae37ef11b136ea224fe,,,,,,,,,3204,93,30,1,0,0,response1disk,,6,21,-8,1,0,0,rectangle,21,-8,1,0,0,21,-8,1,0,0,0,54,54,75,1,,,,,,,,
,,,,,,,,,,,,,FF,,,,,,,,0.9494,,,,,,,,,,,,,,,,,,,,,,60ff41a9ef7f2c9d81bd6a63,61037564795380b16069e749,2021-07-29_23h01.04.872,Simcolourproject_2stim_asymm_v5,2020.2.10,Win32,60,61025ae37ef11b136ea224fe,,,,,,,,,2285,40,58,1,0,0,response1disk,,7,18,-2,1,0,0,rectangle,18,-2,1,0,0,18,-2,1,0,0,0,55,55,112,1,,,,,,,,
,,,,,,,,,,,,,FF,,,,,,,,3.5975,,,,,,,,,,,,,,,,,,,,,,60ff41a9ef7f2c9d81bd6a63,61037564795380b16069e749,2021-07-29_23h01.04.872,Simcolourproject_2stim_asymm_v5,2020.2.10,Win32,60,61025ae37ef11b136ea224fe,,,,,,,,,233,59,96,1,0,0,response1disk,,7,28,19,1,0,0,rectangle,-83,45,1,0,0,2,-4,1,0,0,0,56,56,116,1,,response7disk_3,TRUE,1,1,"[57,74,312,101,207,81,242,268,157,237,224,5,285,195,246,225,36,3,228,241]",1.3157,rectangle
,,,,,,,,,,,,,FF,,,,,,,,1.599,,,,,,,,,,,,,,,,,,,,,,60ff41a9ef7f2c9d81bd6a63,61037564795380b16069e749,2021-07-29_23h01.04.872,Simcolourproject_2stim_asymm_v5,2020.2.10,Win32,60,61025ae37ef11b136ea224fe,,,,,,,,,3250,91,-43,1,0,0,response3disk,,5,27,7,1,0,0,rectangle,27,7,1,0,0,27,7,1,0,0,0,57,57,20,1,,,,,,,,
,,,,,,,,,,,,,FF,,,,,,,,0.6164,,,,,,,,,,,,,,,,,,,,,,60ff41a9ef7f2c9d81bd6a63,61037564795380b16069e749,2021-07-29_23h01.04.872,Simcolourproject_2stim_asymm_v5,2020.2.10,Win32,60,61025ae37ef11b136ea224fe,,,,,,,,,3356,54,72,1,0,0,response1disk,,7,20,7,1,0,0,rectangle,20,7,1,0,0,20,7,1,0,0,0,58,58,109,1,,,,,,,,
,,,,,,,,,,,,,FF,,,,,,,,0.6831,,,,,,,,,,,,,,,,,,,,,,60ff41a9ef7f2c9d81bd6a63,61037564795380b16069e749,2021-07-29_23h01.04.872,Simcolourproject_2stim_asymm_v5,2020.2.10,Win32,60,61025ae37ef11b136ea224fe,,,,,,,,,1067,49,91,1,0,0,response1disk,,7,18,4,1,0,0,rectangle,18,4,1,0,0,18,4,1,0,0,0,59,59,35,1,,,,,,,,
,,,,,,,,,,,,,FF,,,,,,,,2.0822,,,,,,,,,,,,,,,,,,,,,,60ff41a9ef7f2c9d81bd6a63,61037564795380b16069e749,2021-07-29_23h01.04.872,Simcolourproject_2stim_asymm_v5,2020.2.10,Win32,60,61025ae37ef11b136ea224fe,,,,,,,,,134,31,60,1,0,0,response1disk,,7,-7,-5,1,0,0,rectangle,-7,-5,1,0,0,-7,-5,1,0,0,0,60,60,155,1,,,,,,,,
,,,,,,,,,,,,,FF,,,,,,,,0.9828,,,,,,,,,,,,,,,,,,,,,,60ff41a9ef7f2c9d81bd6a63,61037564795380b16069e749,2021-07-29_23h01.04.872,Simcolourproject_2stim_asymm_v5,2020.2.10,Win32,60,61025ae37ef11b136ea224fe,,,,,,,,,734,45,86,1,0,0,response1disk,,7,24,20,1,0,0,rectangle,24,20,1,0,0,24,20,1,0,0,0,61,61,115,1,,,,,,,,
,,,,,,,,,,,,,FF,,,,,,,,2.5318,,,,,,,,,,,,,,,,,,,,,,60ff41a9ef7f2c9d81bd6a63,61037564795380b16069e749,2021-07-29_23h01.04.872,Simcolourproject_2stim_asymm_v5,2020.2.10,Win32,60,61025ae37ef11b136ea224fe,,,,,,,,,3156,32,66,1,0,0,response1disk,,7,6,14,1,0,0,rectangle,6,14,1,0,0,6,14,1,0,0,0,62,62,124,1,,,,,,,,
,,,,,,,,,,,,,FF,,,,,,,,1.9821,,,,,,,,,,,,,,,,,,,,,,60ff41a9ef7f2c9d81bd6a63,61037564795380b16069e749,2021-07-29_23h01.04.872,Simcolourproject_2stim_asymm_v5,2020.2.10,Win32,60,61025ae37ef11b136ea224fe,,,,,,,,,1065,81,-32,1,0,0,response3disk,,5,22,5,1,0,0,rectangle,22,5,1,0,0,22,5,1,0,0,0,63,63,24,1,,,,,,,,
,,,,,,,,,,,,,FF,,,,,,,,0.6168,,,,,,,,,,,,,,,,,,,,,,60ff41a9ef7f2c9d81bd6a63,61037564795380b16069e749,2021-07-29_23h01.04.872,Simcolourproject_2stim_asymm_v5,2020.2.10,Win32,60,61025ae37ef11b136ea224fe,,,,,,,,,2978,32,52,1,0,0,response1disk,,7,19,9,1,0,0,rectangle,19,9,1,0,0,19,9,1,0,0,0,64,64,19,1,,,,,,,,
,,,,,,,,,,,,,FF,,,,,,,,1.3159,,,,,,,,,,,,,,,,,,,,,,60ff41a9ef7f2c9d81bd6a63,61037564795380b16069e749,2021-07-29_23h01.04.872,Simcolourproject_2stim_asymm_v5,2020.2.10,Win32,60,61025ae37ef11b136ea224fe,,,,,,,,,1890,85,43,1,0,0,response1disk,,6,8,11,1,0,0,rectangle,8,11,1,0,0,8,11,1,0,0,0,65,65,58,1,,,,,,,,
,,,,,,,,,,,,,FF,,,,,,,,1.3824,,,,,,,,,,,,,,,,,,,,,,60ff41a9ef7f2c9d81bd6a63,61037564795380b16069e749,2021-07-29_23h01.04.872,Simcolourproject_2stim_asymm_v5,2020.2.10,Win32,60,61025ae37ef11b136ea224fe,,,,,,,,,2352,53,87,1,0,0,response1disk,,7,1,-4,1,0,0,rectangle,1,-4,1,0,0,1,-4,1,0,0,0,66,66,114,1,,,,,,,,
,,,,,,,,,,,,,FF,,,,,,,,2.8147,,,,,,,,,,,,,,,,,,,,,,60ff41a9ef7f2c9d81bd6a63,61037564795380b16069e749,2021-07-29_23h01.04.872,Simcolourproject_2stim_asymm_v5,2020.2.10,Win32,60,61025ae37ef11b136ea224fe,,,,,,,,,2592,75,26,1,0,0,response1disk,,6,7,-2,1,0,0,rectangle,7,-2,1,0,0,7,-2,1,0,0,0,67,67,121,1,,,,,,,,
,,,,,,,,,,,,,FF,,,,,,,,1.7328,,,,,,,,,,,,,,,,,,,,,,60ff41a9ef7f2c9d81bd6a63,61037564795380b16069e749,2021-07-29_23h01.04.872,Simcolourproject_2stim_asymm_v5,2020.2.10,Win32,60,61025ae37ef11b136ea224fe,,,,,,,,,2378,60,76,1,0,0,response1disk,,7,6,-10,1,0,0,rectangle,6,-10,1,0,0,6,-10,1,0,0,0,68,68,33,1,,,,,,,,
,,,,,,,,,,,,,FF,,,,,,,,0.9828,,,,,,,,,,,,,,,,,,,,,,60ff41a9ef7f2c9d81bd6a63,61037564795380b16069e749,2021-07-29_23h01.04.872,Simcolourproject_2stim_asymm_v5,2020.2.10,Win32,60,61025ae37ef11b136ea224fe,,,,,,,,,2308,37,49,1,0,0,response1disk,,7,16,3,1,0,0,rectangle,16,3,1,0,0,16,3,1,0,0,0,69,69,16,1,,,,,,,,
,,,,,,,,,,,,,FF,,,,,,,,3.0146,,,,,,,,,,,,,,,,,,,,,,60ff41a9ef7f2c9d81bd6a63,61037564795380b16069e749,2021-07-29_23h01.04.872,Simcolourproject_2stim_asymm_v5,2020.2.10,Win32,60,61025ae37ef11b136ea224fe,,,,,,,,,1734,-28,-51,1,0,0,response5disk,,3,-7,4,1,0,0,rectangle,-7,4,1,0,0,-7,4,1,0,0,0,70,70,3,1,,,,,,,,
,,,,,,,,,,,,,FF,,,,,,,,0.6663,,,,,,,,,,,,,,,,,,,,,,60ff41a9ef7f2c9d81bd6a63,61037564795380b16069e749,2021-07-29_23h01.04.872,Simcolourproject_2stim_asymm_v5,2020.2.10,Win32,60,61025ae37ef11b136ea224fe,,,,,,,,,335,37,91,1,0,0,response1disk,,7,0,-2,1,0,0,rectangle,0,-2,1,0,0,0,-2,1,0,0,0,71,71,71,1,,,,,,,,
,,,,,,,,,,,,,FF,,,,,,,,1.6656,,,,,,,,,,,,,,,,,,,,,,60ff41a9ef7f2c9d81bd6a63,61037564795380b16069e749,2021-07-29_23h01.04.872,Simcolourproject_2stim_asymm_v5,2020.2.10,Win32,60,61025ae37ef11b136ea224fe,,,,,,,,,982,99,40,1,0,0,response1disk,,6,34,12,1,0,0,rectangle,34,12,1,0,0,34,12,1,0,0,0,72,72,96,1,,,,,,,,
,,,,,,,,,,,,,FF,,,,,,,,2.748,,,,,,,,,,,,,,,,,,,,,,60ff41a9ef7f2c9d81bd6a63,61037564795380b16069e749,2021-07-29_23h01.04.872,Simcolourproject_2stim_asymm_v5,2020.2.10,Win32,60,61025ae37ef11b136ea224fe,,,,,,,,,1359,38,118,1,0,0,response1disk,,7,-6,11,1,0,0,rectangle,-74,53,1,0,0,-31,-3,1,0,0,0,73,73,154,1,,response7disk_3,TRUE,1,1,"[57,74,312,101,207,81,242,268,157,237,224,5,285,195,246,225,36,3,228,241]",1.2989,rectangle
,,,,,,,,,,,,,FF,,,,,,,,1.7321,,,,,,,,,,,,,,,,,,,,,,60ff41a9ef7f2c9d81bd6a63,61037564795380b16069e749,2021-07-29_23h01.04.872,Simcolourproject_2stim_asymm_v5,2020.2.10,Win32,60,61025ae37ef11b136ea224fe,,,,,,,,,1487,53,94,1,0,0,response1disk,,7,19,11,1,0,0,rectangle,19,11,1,0,0,19,11,1,0,0,0,74,74,40,1,,,,,,,,
,,,,,,,,,,,,,FF,,,,,,,,0.9495,,,,,,,,,,,,,,,,,,,,,,60ff41a9ef7f2c9d81bd6a63,61037564795380b16069e749,2021-07-29_23h01.04.872,Simcolourproject_2stim_asymm_v5,2020.2.10,Win32,60,61025ae37ef11b136ea224fe,,,,,,,,,1188,80,92,1,0,0,response1disk,,7,31,12,1,0,0,rectangle,31,12,1,0,0,31,12,1,0,0,0,75,75,117,1,,,,,,,,
,,,,,,,,,,,,,FF,,,,,,,,0.6003,,,,,,,,,,,,,,,,,,,,,,60ff41a9ef7f2c9d81bd6a63,61037564795380b16069e749,2021-07-29_23h01.04.872,Simcolourproject_2stim_asymm_v5,2020.2.10,Win32,60,61025ae37ef11b136ea224fe,,,,,,,,,1340,56,86,1,0,0,response1disk,,7,19,7,1,0,0,rectangle,19,7,1,0,0,19,7,1,0,0,0,76,76,13,1,,,,,,,,
,,,,,,,,,,,,,FF,,,,,,,,0.9163,,,,,,,,,,,,,,,,,,,,,,60ff41a9ef7f2c9d81bd6a63,61037564795380b16069e749,2021-07-29_23h01.04.872,Simcolourproject_2stim_asymm_v5,2020.2.10,Win32,60,61025ae37ef11b136ea224fe,,,,,,,,,2220,48,64,1,0,0,response1disk,,7,19,7,1,0,0,rectangle,19,7,1,0,0,19,7,1,0,0,0,77,77,145,1,,,,,,,,
,,,,,,,,,,,,,FF,,,,,,,,0.5999,,,,,,,,,,,,,,,,,,,,,,60ff41a9ef7f2c9d81bd6a63,61037564795380b16069e749,2021-07-29_23h01.04.872,Simcolourproject_2stim_asymm_v5,2020.2.10,Win32,60,61025ae37ef11b136ea224fe,,,,,,,,,2913,43,81,1,0,0,response1disk,,7,2,-4,1,0,0,rectangle,2,-4,1,0,0,2,-4,1,0,0,0,78,78,130,1,,,,,,,,
,,,,,,,,,,,,,FF,,,,,,,,1.4825,,,,,,,,,,,,,,,,,,,,,,60ff41a9ef7f2c9d81bd6a63,61037564795380b16069e749,2021-07-29_23h01.04.872,Simcolourproject_2stim_asymm_v5,2020.2.10,Win32,60,61025ae37ef11b136ea224fe,,,,,,,,,4075,70,80,1,0,0,response1disk,,7,14,3,1,0,0,rectangle,14,3,1,0,0,14,3,1,0,0,0,79,79,46,1,,,,,,,,
,,,,,,,,,,,,,FF,,,,,,,,0.7998,,,,,,,,,,,,,,,,,,,,,,60ff41a9ef7f2c9d81bd6a63,61037564795380b16069e749,2021-07-29_23h01.04.872,Simcolourproject_2stim_asymm_v5,2020.2.10,Win32,60,61025ae37ef11b136ea224fe,,,,,,,,,1694,37,78,1,0,0,response1disk,,7,11,2,1,0,0,rectangle,41,100,1,0,0,9,-4,1,0,0,0,80,80,34,1,,response1disk_3,TRUE,7,7,"[57,74,312,101,207,81,242,268,157,237,224,5,285,195,246,225,36,3,228,241]",1.216,rectangle
,,,,,,,,,,,,,FF,,,,,,,,2.998,,,,,,,,,,,,,,,,,,,,,,60ff41a9ef7f2c9d81bd6a63,61037564795380b16069e749,2021-07-29_23h01.04.872,Simcolourproject_2stim_asymm_v5,2020.2.10,Win32,60,61025ae37ef11b136ea224fe,,,,,,,,,1342,52,105,1,0,0,response1disk,,7,10,5,1,0,0,rectangle,10,5,1,0,0,10,5,1,0,0,0,81,81,135,1,,,,,,,,
,,,,,,,,,,,,,FF,,,,,,,,1.2827,,,,,,,,,,,,,,,,,,,,,,60ff41a9ef7f2c9d81bd6a63,61037564795380b16069e749,2021-07-29_23h01.04.872,Simcolourproject_2stim_asymm_v5,2020.2.10,Win32,60,61025ae37ef11b136ea224fe,,,,,,,,,2089,74,-42,1,0,0,response3disk,,5,7,5,1,0,0,rectangle,7,5,1,0,0,7,5,1,0,0,0,82,82,133,1,,,,,,,,
,,,,,,,,,,,,,FF,,,,,,,,0.8996,,,,,,,,,,,,,,,,,,,,,,60ff41a9ef7f2c9d81bd6a63,61037564795380b16069e749,2021-07-29_23h01.04.872,Simcolourproject_2stim_asymm_v5,2020.2.10,Win32,60,61025ae37ef11b136ea224fe,,,,,,,,,525,84,-45,1,0,0,response3disk,,5,8,13,1,0,0,rectangle,8,13,1,0,0,8,13,1,0,0,0,83,83,81,1,,,,,,,,
,,,,,,,,,,,,,FF,,,,,,,,1.0659,,,,,,,,,,,,,,,,,,,,,,60ff41a9ef7f2c9d81bd6a63,61037564795380b16069e749,2021-07-29_23h01.04.872,Simcolourproject_2stim_asymm_v5,2020.2.10,Win32,60,61025ae37ef11b136ea224fe,,,,,,,,,3906,-34,82,1,0,0,response7disk,,0,-37,-6,1,0,0,rectangle,-37,-6,1,0,0,-37,-6,1,0,0,0,84,84,79,1,,,,,,,,
,,,,,,,,,,,,,FF,,,,,,,,0.7499,,,,,,,,,,,,,,,,,,,,,,60ff41a9ef7f2c9d81bd6a63,61037564795380b16069e749,2021-07-29_23h01.04.872,Simcolourproject_2stim_asymm_v5,2020.2.10,Win32,60,61025ae37ef11b136ea224fe,,,,,,,,,155,46,91,1,0,0,response1disk,,7,21,4,1,0,0,rectangle,21,4,1,0,0,21,4,1,0,0,0,85,85,97,1,,,,,,,,
,,,,,,,,,,,,,FF,,,,,,,,0.5993,,,,,,,,,,,,,,,,,,,,,,60ff41a9ef7f2c9d81bd6a63,61037564795380b16069e749,2021-07-29_23h01.04.872,Simcolourproject_2stim_asymm_v5,2020.2.10,Win32,60,61025ae37ef11b136ea224fe,,,,,,,,,1851,65,96,1,0,0,response1disk,,7,21,-17,1,0,0,rectangle,21,-17,1,0,0,21,-17,1,0,0,0,86,86,78,1,,,,,,,,
,,,,,,,,,,,,,FF,,,,,,,,0.7499,,,,,,,,,,,,,,,,,,,,,,60ff41a9ef7f2c9d81bd6a63,61037564795380b16069e749,2021-07-29_23h01.04.872,Simcolourproject_2stim_asymm_v5,2020.2.10,Win32,60,61025ae37ef11b136ea224fe,,,,,,,,,315,37,57,1,0,0,response1disk,,7,15,-6,1,0,0,rectangle,15,-6,1,0,0,15,-6,1,0,0,0,87,87,25,1,,,,,,,,
,,,,,,,,,,,,,FF,,,,,,,,0.6329,,,,,,,,,,,,,,,,,,,,,,60ff41a9ef7f2c9d81bd6a63,61037564795380b16069e749,2021-07-29_23h01.04.872,Simcolourproject_2stim_asymm_v5,2020.2.10,Win32,60,61025ae37ef11b136ea224fe,,,,,,,,,1715,35,58,1,0,0,response1disk,,7,24,3,1,0,0,rectangle,24,3,1,0,0,24,3,1,0,0,0,88,88,142,1,,,,,,,,
,,,,,,,,,,,,,FF,,,,,,,,1.7319,,,,,,,,,,,,,,,,,,,,,,60ff41a9ef7f2c9d81bd6a63,61037564795380b16069e749,2021-07-29_23h01.04.872,Simcolourproject_2stim_asymm_v5,2020.2.10,Win32,60,61025ae37ef11b136ea224fe,,,,,,,,,2546,-88,-52,1,0,0,response5disk,,2,-31,4,1,0,0,rectangle,-31,4,1,0,0,-31,4,1,0,0,0,89,89,123,1,,,,,,,,
,,,,,,,,,,,,,FF,,,,,,,,1.2991,,,,,,,,,,,,,,,,,,,,,,60ff41a9ef7f2c9d81bd6a63,61037564795380b16069e749,2021-07-29_23h01.04.872,Simcolourproject_2stim_asymm_v5,2020.2.10,Win32,60,61025ae37ef11b136ea224fe,,,,,,,,,1451,-65,-80,1,0,0,response5disk,,3,-20,-7,1,0,0,rectangle,-20,-7,1,0,0,-20,-7,1,0,0,0,90,90,140,1,,,,,,,,
,,,,,,,,,,,,,FF,,,,,,,,2.6651,,,,,,,,,,,,,,,,,,,,,,60ff41a9ef7f2c9d81bd6a63,61037564795380b16069e749,2021-07-29_23h01.04.872,Simcolourproject_2stim_asymm_v5,2020.2.10,Win32,60,61025ae37ef11b136ea224fe,,,,,,,,,1751,77,-34,1,0,0,response3disk,,5,21,-4,1,0,0,rectangle,21,-4,1,0,0,21,-4,1,0,0,0,91,91,60,1,,,,,,,,
,,,,,,,,,,,,,FF,,,,,,,,0.7332,,,,,,,,,,,,,,,,,,,,,,60ff41a9ef7f2c9d81bd6a63,61037564795380b16069e749,2021-07-29_23h01.04.872,Simcolourproject_2stim_asymm_v5,2020.2.10,Win32,60,61025ae37ef11b136ea224fe,,,,,,,,,2262,56,107,1,0,0,response1disk,,7,19,12,1,0,0,rectangle,19,12,1,0,0,19,12,1,0,0,0,92,92,118,1,,,,,,,,
,,,,,,,,,,,,,FF,,,,,,,,0.6298,,,,,,,,,,,,,,,,,,,,,,60ff41a9ef7f2c9d81bd6a63,61037564795380b16069e749,2021-07-29_23h01.04.872,Simcolourproject_2stim_asymm_v5,2020.2.10,Win32,60,61025ae37ef11b136ea224fe,,,,,,,,,341,41,64,1,0,0,response1disk,,7,15,-2,1,0,0,rectangle,15,-2,1,0,0,15,-2,1,0,0,0,93,93,87,1,,,,,,,,
,,,,,,,,,,,,,FF,,,,,,,,0.6329,,,,,,,,,,,,,,,,,,,,,,60ff41a9ef7f2c9d81bd6a63,61037564795380b16069e749,2021-07-29_23h01.04.872,Simcolourproject_2stim_asymm_v5,2020.2.10,Win32,60,61025ae37ef11b136ea224fe,,,,,,,,,1151,46,69,1,0,0,response1disk,,7,17,-6,1,0,0,rectangle,17,-6,1,0,0,17,-6,1,0,0,0,94,94,66,1,,,,,,,,
,,,,,,,,,,,,,FF,,,,,,,,1.7657,,,,,,,,,,,,,,,,,,,,,,60ff41a9ef7f2c9d81bd6a63,61037564795380b16069e749,2021-07-29_23h01.04.872,Simcolourproject_2stim_asymm_v5,2020.2.10,Win32,60,61025ae37ef11b136ea224fe,,,,,,,,,235,46,68,1,0,0,response1disk,,7,11,2,1,0,0,rectangle,11,2,1,0,0,11,2,1,0,0,0,95,95,98,1,,,,,,,,
,,,,,,,,,,,,,FF,,,,,,,,1.4823,,,,,,,,,,,,,,,,,,,,,,60ff41a9ef7f2c9d81bd6a63,61037564795380b16069e749,2021-07-29_23h01.04.872,Simcolourproject_2stim_asymm_v5,2020.2.10,Win32,60,61025ae37ef11b136ea224fe,,,,,,,,,1229,-47,-88,1,0,0,response5disk,,3,-23,1,1,0,0,rectangle,-23,1,1,0,0,-23,1,1,0,0,0,96,96,27,1,,,,,,,,
,,,,,,,,,,,,,FF,,,,,,,,0.6995,,,,,,,,,,,,,,,,,,,,,,60ff41a9ef7f2c9d81bd6a63,61037564795380b16069e749,2021-07-29_23h01.04.872,Simcolourproject_2stim_asymm_v5,2020.2.10,Win32,60,61025ae37ef11b136ea224fe,,,,,,,,,1425,51,95,1,0,0,response1disk,,7,1,10,1,0,0,rectangle,1,10,1,0,0,1,10,1,0,0,0,97,97,6,1,,,,,,,,
,,,,,,,,,,,,,FF,,,,,,,,1.6159,,,,,,,,,,,,,,,,,,,,,,60ff41a9ef7f2c9d81bd6a63,61037564795380b16069e749,2021-07-29_23h01.04.872,Simcolourproject_2stim_asymm_v5,2020.2.10,Win32,60,61025ae37ef11b136ea224fe,,,,,,,,,1136,39,-93,1,0,0,response3disk,,4,8,-10,1,0,0,rectangle,8,-10,1,0,0,8,-10,1,0,0,0,98,98,42,1,,,,,,,,
,,,,,,,,,,,,,FF,,,,,,,,0.9995,,,,,,,,,,,,,,,,,,,,,,60ff41a9ef7f2c9d81bd6a63,61037564795380b16069e749,2021-07-29_23h01.04.872,Simcolourproject_2stim_asymm_v5,2020.2.10,Win32,60,61025ae37ef11b136ea224fe,,,,,,,,,2504,69,108,1,0,0,response1disk,,7,13,2,1,0,0,rectangle,13,2,1,0,0,13,2,1,0,0,0,99,99,76,1,,,,,,,,
,,,,,,,,,,,,,FF,,,,,,,,0.5329,,,,,,,,,,,,,,,,,,,,,,60ff41a9ef7f2c9d81bd6a63,61037564795380b16069e749,2021-07-29_23h01.04.872,Simcolourproject_2stim_asymm_v5,2020.2.10,Win32,60,61025ae37ef11b136ea224fe,,,,,,,,,4232,23,78,1,0,0,response1disk,,7,-6,7,1,0,0,rectangle,-62,52,1,0,0,7,-12,1,0,0,0,100,100,120,1,,response7disk_3,TRUE,1,1,"[57,74,312,101,207,81,242,268,157,237,224,5,285,195,246,225,36,3,228,241]",1.5157,rectangle
,,,,,,,,,,,,,FF,,,,,,,,1.7652,,,,,,,,,,,,,,,,,,,,,,60ff41a9ef7f2c9d81bd6a63,61037564795380b16069e749,2021-07-29_23h01.04.872,Simcolourproject_2stim_asymm_v5,2020.2.10,Win32,60,61025ae37ef11b136ea224fe,,,,,,,,,3932,55,-57,1,0,0,response3disk,,4,-2,11,1,0,0,rectangle,-2,11,1,0,0,-2,11,1,0,0,0,101,101,126,1,,,,,,,,
,,,,,,,,,,,,,FF,,,,,,,,0.9159,,,,,,,,,,,,,,,,,,,,,,60ff41a9ef7f2c9d81bd6a63,61037564795380b16069e749,2021-07-29_23h01.04.872,Simcolourproject_2stim_asymm_v5,2020.2.10,Win32,60,61025ae37ef11b136ea224fe,,,,,,,,,2160,-26,141,1,0,0,response7disk,,0,-10,20,1,0,0,rectangle,-10,20,1,0,0,-10,20,1,0,0,0,102,102,52,1,,,,,,,,
,,,,,,,,,,,,,FF,,,,,,,,2.4986,,,,,,,,,,,,,,,,,,,,,,60ff41a9ef7f2c9d81bd6a63,61037564795380b16069e749,2021-07-29_23h01.04.872,Simcolourproject_2stim_asymm_v5,2020.2.10,Win32,60,61025ae37ef11b136ea224fe,,,,,,,,,3899,35,88,1,0,0,response1disk,,7,25,18,1,0,0,rectangle,25,18,1,0,0,25,18,1,0,0,0,103,103,64,1,,,,,,,,
,,,,,,,,,,,,,FF,,,,,,,,0.5329,,,,,,,,,,,,,,,,,,,,,,60ff41a9ef7f2c9d81bd6a63,61037564795380b16069e749,2021-07-29_23h01.04.872,Simcolourproject_2stim_asymm_v5,2020.2.10,Win32,60,61025ae37ef11b136ea224fe,,,,,,,,,3572,60,86,1,0,0,response1disk,,7,34,8,1,0,0,rectangle,34,8,1,0,0,34,8,1,0,0,0,104,104,57,1,,,,,,,,
,,,,,,,,,,,,,FF,,,,,,,,0.483,,,,,,,,,,,,,,,,,,,,,,60ff41a9ef7f2c9d81bd6a63,61037564795380b16069e749,2021-07-29_23h01.04.872,Simcolourproject_2stim_asymm_v5,2020.2.10,Win32,60,61025ae37ef11b136ea224fe,,,,,,,,,1403,46,81,1,0,0,response1disk,,7,35,0,1,0,0,rectangle,35,0,1,0,0,35,0,1,0,0,0,105,105,56,1,,,,,,,,
,,,,,,,,,,,,,FF,,,,,,,,0.4665,,,,,,,,,,,,,,,,,,,,,,60ff41a9ef7f2c9d81bd6a63,61037564795380b16069e749,2021-07-29_23h01.04.872,Simcolourproject_2stim_asymm_v5,2020.2.10,Win32,60,61025ae37ef11b136ea224fe,,,,,,,,,3958,43,98,1,0,0,response1disk,,7,27,4,1,0,0,rectangle,27,4,1,0,0,27,4,1,0,0,0,106,106,0,1,,,,,,,,
,,,,,,,,,,,,,FF,,,,,,,,0.5828,,,,,,,,,,,,,,,,,,,,,,60ff41a9ef7f2c9d81bd6a63,61037564795380b16069e749,2021-07-29_23h01.04.872,Simcolourproject_2stim_asymm_v5,2020.2.10,Win32,60,61025ae37ef11b136ea224fe,,,,,,,,,3808,31,69,1,0,0,response1disk,,7,20,5,1,0,0,rectangle,20,5,1,0,0,20,5,1,0,0,0,107,107,39,1,,,,,,,,
,,,,,,,,,,,,,FF,,,,,,,,1.3658,,,,,,,,,,,,,,,,,,,,,,60ff41a9ef7f2c9d81bd6a63,61037564795380b16069e749,2021-07-29_23h01.04.872,Simcolourproject_2stim_asymm_v5,2020.2.10,Win32,60,61025ae37ef11b136ea224fe,,,,,,,,,819,61,-105,1,0,0,response3disk,,4,5,13,1,0,0,rectangle,5,13,1,0,0,5,13,1,0,0,0,108,108,156,1,,,,,,,,
,,,,,,,,,,,,,FF,,,,,,,,1.2993,,,,,,,,,,,,,,,,,,,,,,60ff41a9ef7f2c9d81bd6a63,61037564795380b16069e749,2021-07-29_23h01.04.872,Simcolourproject_2stim_asymm_v5,2020.2.10,Win32,60,61025ae37ef11b136ea224fe,,,,,,,,,1809,34,89,1,0,0,response1disk,,7,7,-2,1,0,0,rectangle,7,-2,1,0,0,7,-2,1,0,0,0,109,109,108,1,,,,,,,,
,,,,,,,,,,,,,FF,,,,,,,,0.5332,,,,,,,,,,,,,,,,,,,,,,60ff41a9ef7f2c9d81bd6a63,61037564795380b16069e749,2021-07-29_23h01.04.872,Simcolourproject_2stim_asymm_v5,2020.2.10,Win32,60,61025ae37ef11b136ea224fe,,,,,,,,,2796,29,72,1,0,0,response1disk,,7,4,4,1,0,0,rectangle,4,4,1,0,0,4,4,1,0,0,0,110,110,93,1,,,,,,,,
,,,,,,,,,,,,,FF,,,,,,,,1.4493,,,,,,,,,,,,,,,,,,,,,,60ff41a9ef7f2c9d81bd6a63,61037564795380b16069e749,2021-07-29_23h01.04.872,Simcolourproject_2stim_asymm_v5,2020.2.10,Win32,60,61025ae37ef11b136ea224fe,,,,,,,,,2726,-99,-36,1,0,0,response5disk,,2,-22,14,1,0,0,rectangle,-22,14,1,0,0,-22,14,1,0,0,0,111,111,18,1,,,,,,,,
,,,,,,,,,,,,,FF,,,,,,,,0.9162,,,,,,,,,,,,,,,,,,,,,,60ff41a9ef7f2c9d81bd6a63,61037564795380b16069e749,2021-07-29_23h01.04.872,Simcolourproject_2stim_asymm_v5,2020.2.10,Win32,60,61025ae37ef11b136ea224fe,,,,,,,,,1131,-78,127,1,0,0,response7disk,,0,-8,-5,1,0,0,rectangle,-8,-5,1,0,0,-8,-5,1,0,0,0,112,112,55,1,,,,,,,,
,,,,,,,,,,,,,FF,,,,,,,,0.9162,,,,,,,,,,,,,,,,,,,,,,60ff41a9ef7f2c9d81bd6a63,61037564795380b16069e749,2021-07-29_23h01.04.872,Simcolourproject_2stim_asymm_v5,2020.2.10,Win32,60,61025ae37ef11b136ea224fe,,,,,,,,,3191,-63,-39,1,0,0,response5disk,,2,-6,-1,1,0,0,rectangle,-6,-1,1,0,0,-6,-1,1,0,0,0,113,113,44,1,,,,,,,,
,,,,,,,,,,,,,FF,,,,,,,,1.2993,,,,,,,,,,,,,,,,,,,,,,60ff41a9ef7f2c9d81bd6a63,61037564795380b16069e749,2021-07-29_23h01.04.872,Simcolourproject_2stim_asymm_v5,2020.2.10,Win32,60,61025ae37ef11b136ea224fe,,,,,,,,,2204,35,53,1,0,0,response1disk,,7,10,3,1,0,0,rectangle,10,3,1,0,0,10,3,1,0,0,0,114,114,113,1,,,,,,,,
,,,,,,,,,,,,,FF,,,,,,,,1.5658,,,,,,,,,,,,,,,,,,,,,,60ff41a9ef7f2c9d81bd6a63,61037564795380b16069e749,2021-07-29_23h01.04.872,Simcolourproject_2stim_asymm_v5,2020.2.10,Win32,60,61025ae37ef11b136ea224fe,,,,,,,,,2169,78,-54,1,0,0,response3disk,,5,28,-8,1,0,0,rectangle,28,-8,1,0,0,28,-8,1,0,0,0,115,115,67,1,,,,,,,,
,,,,,,,,,,,,,FF,,,,,,,,1.1658,,,,,,,,,,,,,,,,,,,,,,60ff41a9ef7f2c9d81bd6a63,61037564795380b16069e749,2021-07-29_23h01.04.872,Simcolourproject_2stim_asymm_v5,2020.2.10,Win32,60,61025ae37ef11b136ea224fe,,,,,,,,,420,34,120,1,0,0,response1disk,,7,-12,12,1,0,0,rectangle,-12,12,1,0,0,-12,12,1,0,0,0,116,116,43,1,,,,,,,,
,,,,,,,,,,,,,FF,,,,,,,,1.7321,,,,,,,,,,,,,,,,,,,,,,60ff41a9ef7f2c9d81bd6a63,61037564795380b16069e749,2021-07-29_23h01.04.872,Simcolourproject_2stim_asymm_v5,2020.2.10,Win32,60,61025ae37ef11b136ea224fe,,,,,,,,,509,32,91,1,0,0,response1disk,,7,21,17,1,0,0,rectangle,21,17,1,0,0,21,17,1,0,0,0,117,117,15,1,,,,,,,,
,,,,,,,,,,,,,FF,,,,,,,,1.1661,,,,,,,,,,,,,,,,,,,,,,60ff41a9ef7f2c9d81bd6a63,61037564795380b16069e749,2021-07-29_23h01.04.872,Simcolourproject_2stim_asymm_v5,2020.2.10,Win32,60,61025ae37ef11b136ea224fe,,,,,,,,,2912,47,59,1,0,0,response1disk,,7,18,-15,1,0,0,rectangle,18,-15,1,0,0,18,-15,1,0,0,0,118,118,26,1,,,,,,,,
,,,,,,,,,,,,,FF,,,,,,,,0.5997,,,,,,,,,,,,,,,,,,,,,,60ff41a9ef7f2c9d81bd6a63,61037564795380b16069e749,2021-07-29_23h01.04.872,Simcolourproject_2stim_asymm_v5,2020.2.10,Win32,60,61025ae37ef11b136ea224fe,,,,,,,,,4301,42,90,1,0,0,response1disk,,7,10,14,1,0,0,rectangle,10,14,1,0,0,10,14,1,0,0,0,119,119,149,1,,,,,,,,
,,,,,,,,,,,,,FF,,,,,,,,2.4318,,,,,,,,,,,,,,,,,,,,,,60ff41a9ef7f2c9d81bd6a63,61037564795380b16069e749,2021-07-29_23h01.04.872,Simcolourproject_2stim_asymm_v5,2020.2.10,Win32,60,61025ae37ef11b136ea224fe,,,,,,,,,1794,28,95,1,0,0,response1disk,,7,-10,11,1,0,0,rectangle,-10,11,1,0,0,-10,11,1,0,0,0,120,120,73,1,,,,,,,,
,,,,,,,,,,,,,FF,,,,,,,,0.6831,,,,,,,,,,,,,,,,,,,,,,60ff41a9ef7f2c9d81bd6a63,61037564795380b16069e749,2021-07-29_23h01.04.872,Simcolourproject_2stim_asymm_v5,2020.2.10,Win32,60,61025ae37ef11b136ea224fe,,,,,,,,,2208,42,82,1,0,0,response1disk,,7,5,4,1,0,0,rectangle,5,4,1,0,0,5,4,1,0,0,0,121,121,141,1,,,,,,,,
,,,,,,,,,,,,,FF,,,,,,,,2.7648,,,,,,,,,,,,,,,,,,,,,,60ff41a9ef7f2c9d81bd6a63,61037564795380b16069e749,2021-07-29_23h01.04.872,Simcolourproject_2stim_asymm_v5,2020.2.10,Win32,60,61025ae37ef11b136ea224fe,,,,,,,,,3255,32,74,1,0,0,response1disk,,7,-3,-1,1,0,0,rectangle,-3,-1,1,0,0,-3,-1,1,0,0,0,122,122,1,1,,,,,,,,
,,,,,,,,,,,,,FF,,,,,,,,1.8154,,,,,,,,,,,,,,,,,,,,,,60ff41a9ef7f2c9d81bd6a63,61037564795380b16069e749,2021-07-29_23h01.04.872,Simcolourproject_2stim_asymm_v5,2020.2.10,Win32,60,61025ae37ef11b136ea224fe,,,,,,,,,4207,-104,51,1,0,0,response7disk,,1,-30,13,1,0,0,rectangle,-30,13,1,0,0,-30,13,1,0,0,0,123,123,51,1,,,,,,,,
,,,,,,,,,,,,,FF,,,,,,,,0.7496,,,,,,,,,,,,,,,,,,,,,,60ff41a9ef7f2c9d81bd6a63,61037564795380b16069e749,2021-07-29_23h01.04.872,Simcolourproject_2stim_asymm_v5,2020.2.10,Win32,60,61025ae37ef11b136ea224fe,,,,,,,,,1438,28,86,1,0,0,response1disk,,7,0,6,1,0,0,rectangle,0,6,1,0,0,0,6,1,0,0,0,124,124,107,1,,,,,,,,
,,,,,,,,,,,,,FF,,,,,,,,3.2811,,,,,,,,,,,,,,,,,,,,,,60ff41a9ef7f2c9d81bd6a63,61037564795380b16069e749,2021-07-29_23h01.04.872,Simcolourproject_2stim_asymm_v5,2020.2.10,Win32,60,61025ae37ef11b136ea224fe,,,,,,,,,1598,22,-118,1,0,0,response3disk,,4,24,-3,1,0,0,rectangle,24,-3,1,0,0,24,-3,1,0,0,0,125,125,38,1,,,,,,,,
,,,,,,,,,,,,,FF,,,,,,,,2.1156,,,,,,,,,,,,,,,,,,,,,,60ff41a9ef7f2c9d81bd6a63,61037564795380b16069e749,2021-07-29_23h01.04.872,Simcolourproject_2stim_asymm_v5,2020.2.10,Win32,60,61025ae37ef11b136ea224fe,,,,,,,,,2808,69,-41,1,0,0,response3disk,,5,1,16,1,0,0,rectangle,1,16,1,0,0,1,16,1,0,0,0,126,126,82,1,,,,,,,,
,,,,,,,,,,,,,FF,,,,,,,,1.7987,,,,,,,,,,,,,,,,,,,,,,60ff41a9ef7f2c9d81bd6a63,61037564795380b16069e749,2021-07-29_23h01.04.872,Simcolourproject_2stim_asymm_v5,2020.2.10,Win32,60,61025ae37ef11b136ea224fe,,,,,,,,,656,29,49,1,0,0,response1disk,,7,11,11,1,0,0,rectangle,11,11,1,0,0,11,11,1,0,0,0,127,127,83,1,,,,,,,,
,,,,,,,,,,,,,FF,,,,,,,,0.6332,,,,,,,,,,,,,,,,,,,,,,60ff41a9ef7f2c9d81bd6a63,61037564795380b16069e749,2021-07-29_23h01.04.872,Simcolourproject_2stim_asymm_v5,2020.2.10,Win32,60,61025ae37ef11b136ea224fe,,,,,,,,,3005,61,93,1,0,0,response1disk,,7,16,-1,1,0,0,rectangle,16,-1,1,0,0,16,-1,1,0,0,0,128,128,104,1,,,,,,,,
,,,,,,,,,,,,,FF,,,,,,,,0.4666,,,,,,,,,,,,,,,,,,,,,,60ff41a9ef7f2c9d81bd6a63,61037564795380b16069e749,2021-07-29_23h01.04.872,Simcolourproject_2stim_asymm_v5,2020.2.10,Win32,60,61025ae37ef11b136ea224fe,,,,,,,,,3679,53,80,1,0,0,response1disk,,7,18,5,1,0,0,rectangle,18,5,1,0,0,18,5,1,0,0,0,129,129,21,1,,,,,,,,
,,,,,,,,,,,,,FF,,,,,,,,1.2353,,,,,,,,,,,,,,,,,,,,,,60ff41a9ef7f2c9d81bd6a63,61037564795380b16069e749,2021-07-29_23h01.04.872,Simcolourproject_2stim_asymm_v5,2020.2.10,Win32,60,61025ae37ef11b136ea224fe,,,,,,,,,2424,55,39,1,0,0,response1disk,,6,-2,15,1,0,0,rectangle,-2,15,1,0,0,-2,15,1,0,0,0,130,130,10,1,,,,,,,,
,,,,,,,,,,,,,FF,,,,,,,,0.5295,,,,,,,,,,,,,,,,,,,,,,60ff41a9ef7f2c9d81bd6a63,61037564795380b16069e749,2021-07-29_23h01.04.872,Simcolourproject_2stim_asymm_v5,2020.2.10,Win32,60,61025ae37ef11b136ea224fe,,,,,,,,,330,29,83,1,0,0,response1disk,,7,-4,8,1,0,0,rectangle,-4,8,1,0,0,-4,8,1,0,0,0,131,131,61,1,,,,,,,,
,,,,,,,,,,,,,FF,,,,,,,,3.4476,,,,,,,,,,,,,,,,,,,,,,60ff41a9ef7f2c9d81bd6a63,61037564795380b16069e749,2021-07-29_23h01.04.872,Simcolourproject_2stim_asymm_v5,2020.2.10,Win32,60,61025ae37ef11b136ea224fe,,,,,,,,,1952,50,87,1,0,0,response1disk,,7,22,8,1,0,0,rectangle,22,8,1,0,0,22,8,1,0,0,0,132,132,4,1,,,,,,,,
,,,,,,,,,,,,,FF,,,,,,,,1.2993,,,,,,,,,,,,,,,,,,,,,,60ff41a9ef7f2c9d81bd6a63,61037564795380b16069e749,2021-07-29_23h01.04.872,Simcolourproject_2stim_asymm_v5,2020.2.10,Win32,60,61025ae37ef11b136ea224fe,,,,,,,,,3939,113,-31,1,0,0,response3disk,,5,-10,13,1,0,0,rectangle,-10,13,1,0,0,-10,13,1,0,0,0,133,133,62,1,,,,,,,,
,,,,,,,,,,,,,FF,,,,,,,,0.783,,,,,,,,,,,,,,,,,,,,,,60ff41a9ef7f2c9d81bd6a63,61037564795380b16069e749,2021-07-29_23h01.04.872,Simcolourproject_2stim_asymm_v5,2020.2.10,Win32,60,61025ae37ef11b136ea224fe,,,,,,,,,384,62,112,1,0,0,response1disk,,7,-9,-4,1,0,0,rectangle,-9,-4,1,0,0,-9,-4,1,0,0,0,134,134,80,1,,,,,,,,
,,,,,,,,,,,,,FF,,,,,,,,1.3993,,,,,,,,,,,,,,,,,,,,,,60ff41a9ef7f2c9d81bd6a63,61037564795380b16069e749,2021-07-29_23h01.04.872,Simcolourproject_2stim_asymm_v5,2020.2.10,Win32,60,61025ae37ef11b136ea224fe,,,,,,,,,3744,90,-63,1,0,0,response3disk,,5,41,-4,1,0,0,rectangle,41,-4,1,0,0,41,-4,1,0,0,0,135,135,139,1,,,,,,,,
,,,,,,,,,,,,,FF,,,,,,,,1.4325,,,,,,,,,,,,,,,,,,,,,,60ff41a9ef7f2c9d81bd6a63,61037564795380b16069e749,2021-07-29_23h01.04.872,Simcolourproject_2stim_asymm_v5,2020.2.10,Win32,60,61025ae37ef11b136ea224fe,,,,,,,,,3643,50,111,1,0,0,response1disk,,7,-8,18,1,0,0,rectangle,-8,18,1,0,0,-8,18,1,0,0,0,136,136,129,1,,,,,,,,
,,,,,,,,,,,,,FF,,,,,,,,0.9197,,,,,,,,,,,,,,,,,,,,,,60ff41a9ef7f2c9d81bd6a63,61037564795380b16069e749,2021-07-29_23h01.04.872,Simcolourproject_2stim_asymm_v5,2020.2.10,Win32,60,61025ae37ef11b136ea224fe,,,,,,,,,4276,90,-47,1,0,0,response3disk,,5,-5,-10,1,0,0,rectangle,-5,-10,1,0,0,-5,-10,1,0,0,0,137,137,86,1,,,,,,,,
,,,,,,,,,,,,,FF,,,,,,,,1.8485,,,,,,,,,,,,,,,,,,,,,,60ff41a9ef7f2c9d81bd6a63,61037564795380b16069e749,2021-07-29_23h01.04.872,Simcolourproject_2stim_asymm_v5,2020.2.10,Win32,60,61025ae37ef11b136ea224fe,,,,,,,,,1757,100,-114,1,0,0,response3disk,,4,9,-21,1,0,0,rectangle,9,-21,1,0,0,9,-21,1,0,0,0,138,138,32,1,,,,,,,,
,,,,,,,,,,,,,FF,,,,,,,,0.5661,,,,,,,,,,,,,,,,,,,,,,60ff41a9ef7f2c9d81bd6a63,61037564795380b16069e749,2021-07-29_23h01.04.872,Simcolourproject_2stim_asymm_v5,2020.2.10,Win32,60,61025ae37ef11b136ea224fe,,,,,,,,,2845,48,104,1,0,0,response1disk,,7,11,10,1,0,0,rectangle,11,10,1,0,0,11,10,1,0,0,0,139,139,69,1,,,,,,,,
,,,,,,,,,,,,,FF,,,,,,,,0.5495,,,,,,,,,,,,,,,,,,,,,,60ff41a9ef7f2c9d81bd6a63,61037564795380b16069e749,2021-07-29_23h01.04.872,Simcolourproject_2stim_asymm_v5,2020.2.10,Win32,60,61025ae37ef11b136ea224fe,,,,,,,,,2441,60,98,1,0,0,response1disk,,7,3,-9,1,0,0,rectangle,3,-9,1,0,0,3,-9,1,0,0,0,140,140,72,1,,,,,,,,
,,,,,,,,,,,,,FF,,,,,,,,0.9989,,,,,,,,,,,,,,,,,,,,,,60ff41a9ef7f2c9d81bd6a63,61037564795380b16069e749,2021-07-29_23h01.04.872,Simcolourproject_2stim_asymm_v5,2020.2.10,Win32,60,61025ae37ef11b136ea224fe,,,,,,,,,2831,-51,34,1,0,0,response7disk,,1,-7,1,1,0,0,rectangle,-7,1,1,0,0,-7,1,1,0,0,0,141,141,90,1,,,,,,,,
,,,,,,,,,,,,,FF,,,,,,,,0.9992,,,,,,,,,,,,,,,,,,,,,,60ff41a9ef7f2c9d81bd6a63,61037564795380b16069e749,2021-07-29_23h01.04.872,Simcolourproject_2stim_asymm_v5,2020.2.10,Win32,60,61025ae37ef11b136ea224fe,,,,,,,,,579,41,88,1,0,0,response1disk,,7,2,4,1,0,0,rectangle,2,4,1,0,0,2,4,1,0,0,0,142,142,2,1,,,,,,,,
,,,,,,,,,,,,,FF,,,,,,,,0.6327,,,,,,,,,,,,,,,,,,,,,,60ff41a9ef7f2c9d81bd6a63,61037564795380b16069e749,2021-07-29_23h01.04.872,Simcolourproject_2stim_asymm_v5,2020.2.10,Win32,60,61025ae37ef11b136ea224fe,,,,,,,,,2260,46,85,1,0,0,response1disk,,7,-6,-5,1,0,0,rectangle,-6,-5,1,0,0,-6,-5,1,0,0,0,143,143,65,1,,,,,,,,
,,,,,,,,,,,,,FF,,,,,,,,1.9457,,,,,,,,,,,,,,,,,,,,,,60ff41a9ef7f2c9d81bd6a63,61037564795380b16069e749,2021-07-29_23h01.04.872,Simcolourproject_2stim_asymm_v5,2020.2.10,Win32,60,61025ae37ef11b136ea224fe,,,,,,,,,2623,37,81,1,0,0,response1disk,,7,1,-5,1,0,0,rectangle,1,-5,1,0,0,1,-5,1,0,0,0,144,144,30,1,,,,,,,,
,,,,,,,,,,,,,FF,,,,,,,,1.2327,,,,,,,,,,,,,,,,,,,,,,60ff41a9ef7f2c9d81bd6a63,61037564795380b16069e749,2021-07-29_23h01.04.872,Simcolourproject_2stim_asymm_v5,2020.2.10,Win32,60,61025ae37ef11b136ea224fe,,,,,,,,,2677,55,42,1,0,0,response1disk,,6,12,10,1,0,0,rectangle,12,10,1,0,0,12,10,1,0,0,0,145,145,100,1,,,,,,,,
,,,,,,,,,,,,,FF,,,,,,,,1.5324,,,,,,,,,,,,,,,,,,,,,,60ff41a9ef7f2c9d81bd6a63,61037564795380b16069e749,2021-07-29_23h01.04.872,Simcolourproject_2stim_asymm_v5,2020.2.10,Win32,60,61025ae37ef11b136ea224fe,,,,,,,,,1066,54,86,1,0,0,response1disk,,7,14,-3,1,0,0,rectangle,14,-3,1,0,0,14,-3,1,0,0,0,146,146,54,1,,,,,,,,
,,,,,,,,,,,,,FF,,,,,,,,1.0532,,,,,,,,,,,,,,,,,,,,,,60ff41a9ef7f2c9d81bd6a63,61037564795380b16069e749,2021-07-29_23h01.04.872,Simcolourproject_2stim_asymm_v5,2020.2.10,Win32,60,61025ae37ef11b136ea224fe,,,,,,,,,3376,59,31,1,0,0,response1disk,,6,8,-8,1,0,0,rectangle,8,-8,1,0,0,8,-8,1,0,0,0,147,147,84,1,,,,,,,,
,,,,,,,,,,,,,FF,,,,,,,,10.2014,,,,,,,,,,,,,,,,,,,,,,60ff41a9ef7f2c9d81bd6a63,61037564795380b16069e749,2021-07-29_23h01.04.872,Simcolourproject_2stim_asymm_v5,2020.2.10,Win32,60,61025ae37ef11b136ea224fe,,,,,,,,,3276,46,99,1,0,0,response1disk,,7,-1,0,1,0,0,rectangle,-1,0,1,0,0,-1,0,1,0,0,0,148,148,103,1,,,,,,,,
,,,,,,,,,,,,,FF,,,,,,,,0.8831,,,,,,,,,,,,,,,,,,,,,,60ff41a9ef7f2c9d81bd6a63,61037564795380b16069e749,2021-07-29_23h01.04.872,Simcolourproject_2stim_asymm_v5,2020.2.10,Win32,60,61025ae37ef11b136ea224fe,,,,,,,,,2370,83,52,1,0,0,response1disk,,6,-4,7,1,0,0,rectangle,-4,7,1,0,0,-4,7,1,0,0,0,149,149,22,1,,,,,,,,
,,,,,,,,,,,,,FF,,,,,,,,1.5497,,,,,,,,,,,,,,,,,,,,,,60ff41a9ef7f2c9d81bd6a63,61037564795380b16069e749,2021-07-29_23h01.04.872,Simcolourproject_2stim_asymm_v5,2020.2.10,Win32,60,61025ae37ef11b136ea224fe,,,,,,,,,1361,42,69,1,0,0,response1disk,,7,-12,-12,1,0,0,rectangle,-12,-12,1,0,0,-12,-12,1,0,0,0,150,150,106,1,,,,,,,,
,,,,,,,,,,,,,FF,,,,,,,,1.1652,,,,,,,,,,,,,,,,,,,,,,60ff41a9ef7f2c9d81bd6a63,61037564795380b16069e749,2021-07-29_23h01.04.872,Simcolourproject_2stim_asymm_v5,2020.2.10,Win32,60,61025ae37ef11b136ea224fe,,,,,,,,,905,26,72,1,0,0,response1disk,,7,-13,-12,1,0,0,rectangle,-13,-12,1,0,0,-13,-12,1,0,0,0,151,151,136,1,,,,,,,,
,,,,,,,,,,,,,FF,,,,,,,,2.7646,,,,,,,,,,,,,,,,,,,,,,60ff41a9ef7f2c9d81bd6a63,61037564795380b16069e749,2021-07-29_23h01.04.872,Simcolourproject_2stim_asymm_v5,2020.2.10,Win32,60,61025ae37ef11b136ea224fe,,,,,,,,,3968,120,-38,1,0,0,response3disk,,5,36,-1,1,0,0,rectangle,36,-1,1,0,0,36,-1,1,0,0,0,152,152,125,1,,,,,,,,
,,,,,,,,,,,,,FF,,,,,,,,0.7302,,,,,,,,,,,,,,,,,,,,,,60ff41a9ef7f2c9d81bd6a63,61037564795380b16069e749,2021-07-29_23h01.04.872,Simcolourproject_2stim_asymm_v5,2020.2.10,Win32,60,61025ae37ef11b136ea224fe,,,,,,,,,3165,44,62,1,0,0,response1disk,,7,-7,-14,1,0,0,rectangle,-7,-14,1,0,0,-7,-14,1,0,0,0,153,153,102,1,,,,,,,,
,,,,,,,,,,,,,FF,,,,,,,,0.7634,,,,,,,,,,,,,,,,,,,,,,60ff41a9ef7f2c9d81bd6a63,61037564795380b16069e749,2021-07-29_23h01.04.872,Simcolourproject_2stim_asymm_v5,2020.2.10,Win32,60,61025ae37ef11b136ea224fe,,,,,,,,,696,38,82,1,0,0,response1disk,,7,-1,1,1,0,0,rectangle,-1,1,1,0,0,-1,1,1,0,0,0,154,154,150,1,,,,,,,,
,,,,,,,,,,,,,FF,,,,,,,,0.766,,,,,,,,,,,,,,,,,,,,,,60ff41a9ef7f2c9d81bd6a63,61037564795380b16069e749,2021-07-29_23h01.04.872,Simcolourproject_2stim_asymm_v5,2020.2.10,Win32,60,61025ae37ef11b136ea224fe,,,,,,,,,1368,-35,105,1,0,0,response7disk,,0,-4,19,1,0,0,rectangle,-4,19,1,0,0,-4,19,1,0,0,0,155,155,45,1,,,,,,,,
,,,,,,,,,,,,,FF,,,,,,,,1.2863,,,,,,,,,,,,,,,,,,,,,,60ff41a9ef7f2c9d81bd6a63,61037564795380b16069e749,2021-07-29_23h01.04.872,Simcolourproject_2stim_asymm_v5,2020.2.10,Win32,60,61025ae37ef11b136ea224fe,,,,,,,,,1260,59,52,1,0,0,response1disk,,6,5,9,1,0,0,rectangle,109,73,1,0,0,-8,2,1,0,0,0,156,156,8,1,,response1disk_3,TRUE,6,6,"[57,74,312,101,207,81,242,268,157,237,224,5,285,195,246,225,36,3,228,241]",1.5653,rectangle
,,,,,,,,,,,,,FF,,,,,,,,1.0828,,,,,,,,,,,,,,,,,,,,,,60ff41a9ef7f2c9d81bd6a63,61037564795380b16069e749,2021-07-29_23h01.04.872,Simcolourproject_2stim_asymm_v5,2020.2.10,Win32,60,61025ae37ef11b136ea224fe,,,,,,,,,1250,44,70,1,0,0,response1disk,,7,3,19,1,0,0,rectangle,3,19,1,0,0,3,19,1,0,0,0,157,157,128,1,,,,,,,,
,,,,,,,,,,,,,FF,,,,,,,,1.2162,,,,,,,,,,,,,,,,,,,,,,60ff41a9ef7f2c9d81bd6a63,61037564795380b16069e749,2021-07-29_23h01.04.872,Simcolourproject_2stim_asymm_v5,2020.2.10,Win32,60,61025ae37ef11b136ea224fe,,,,,,,,,2899,107,31,1,0,0,response1disk,,6,22,-8,1,0,0,rectangle,22,-8,1,0,0,22,-8,1,0,0,0,158,158,99,1,,,,,,,,
,,,,,,,,,,,,,FF,,,,,,,,0.6495,,,,,,,,,,,,,,,,,,,,,,60ff41a9ef7f2c9d81bd6a63,61037564795380b16069e749,2021-07-29_23h01.04.872,Simcolourproject_2stim_asymm_v5,2020.2.10,Win32,60,61025ae37ef11b136ea224fe,,,,,,,,,1353,22,65,1,0,0,response1disk,,7,-19,-14,1,0,0,rectangle,-19,-14,1,0,0,-19,-14,1,0,0,0,159,159,31,1,,,,,,,,
,,,,,,,,,,,,,FF,,,,,,,,1.3326,,,,,,,,,,,,,,,,,,,,,,60ff41a9ef7f2c9d81bd6a63,61037564795380b16069e749,2021-07-29_23h01.04.872,Simcolourproject_2stim_asymm_v5,2020.2.10,Win32,60,61025ae37ef11b136ea224fe,,,,,,,,,1220,122,-63,1,0,0,response3disk,,5,39,-4,1,0,0,rectangle,39,-4,1,0,0,39,-4,1,0,0,1,0,160,104,1,,,,,,,,
,,,,,,,,,,,,,FF,,,,,,,,0.7995,,,,,,,,,,,,,,,,,,,,,,60ff41a9ef7f2c9d81bd6a63,61037564795380b16069e749,2021-07-29_23h01.04.872,Simcolourproject_2stim_asymm_v5,2020.2.10,Win32,60,61025ae37ef11b136ea224fe,,,,,,,,,1279,68,85,1,0,0,response1disk,,7,32,4,1,0,0,rectangle,32,4,1,0,0,32,4,1,0,0,1,1,161,115,1,,,,,,,,
,,,,,,,,,,,,,FF,,,,,,,,0.7496,,,,,,,,,,,,,,,,,,,,,,60ff41a9ef7f2c9d81bd6a63,61037564795380b16069e749,2021-07-29_23h01.04.872,Simcolourproject_2stim_asymm_v5,2020.2.10,Win32,60,61025ae37ef11b136ea224fe,,,,,,,,,3124,60,114,1,0,0,response1disk,,7,23,-7,1,0,0,rectangle,23,-7,1,0,0,23,-7,1,0,0,1,2,162,34,1,,,,,,,,
,,,,,,,,,,,,,FF,,,,,,,,1.6489,,,,,,,,,,,,,,,,,,,,,,60ff41a9ef7f2c9d81bd6a63,61037564795380b16069e749,2021-07-29_23h01.04.872,Simcolourproject_2stim_asymm_v5,2020.2.10,Win32,60,61025ae37ef11b136ea224fe,,,,,,,,,261,73,-102,1,0,0,response3disk,,4,23,-19,1,0,0,rectangle,23,-19,1,0,0,23,-19,1,0,0,1,3,163,113,1,,,,,,,,
,,,,,,,,,,,,,FF,,,,,,,,0.6996,,,,,,,,,,,,,,,,,,,,,,60ff41a9ef7f2c9d81bd6a63,61037564795380b16069e749,2021-07-29_23h01.04.872,Simcolourproject_2stim_asymm_v5,2020.2.10,Win32,60,61025ae37ef11b136ea224fe,,,,,,,,,2323,59,98,1,0,0,response1disk,,7,-10,1,1,0,0,rectangle,-10,1,1,0,0,-10,1,1,0,0,1,4,164,99,1,,,,,,,,
,,,,,,,,,,,,,FF,,,,,,,,0.5665,,,,,,,,,,,,,,,,,,,,,,60ff41a9ef7f2c9d81bd6a63,61037564795380b16069e749,2021-07-29_23h01.04.872,Simcolourproject_2stim_asymm_v5,2020.2.10,Win32,60,61025ae37ef11b136ea224fe,,,,,,,,,2505,59,121,1,0,0,response1disk,,7,-4,7,1,0,0,rectangle,-4,7,1,0,0,-4,7,1,0,0,1,5,165,9,1,,,,,,,,
,,,,,,,,,,,,,FF,,,,,,,,0.8662,,,,,,,,,,,,,,,,,,,,,,60ff41a9ef7f2c9d81bd6a63,61037564795380b16069e749,2021-07-29_23h01.04.872,Simcolourproject_2stim_asymm_v5,2020.2.10,Win32,60,61025ae37ef11b136ea224fe,,,,,,,,,4264,38,109,1,0,0,response1disk,,7,-21,6,1,0,0,rectangle,-21,6,1,0,0,-21,6,1,0,0,1,6,166,143,1,,,,,,,,
,,,,,,,,,,,,,FF,,,,,,,,0.683,,,,,,,,,,,,,,,,,,,,,,60ff41a9ef7f2c9d81bd6a63,61037564795380b16069e749,2021-07-29_23h01.04.872,Simcolourproject_2stim_asymm_v5,2020.2.10,Win32,60,61025ae37ef11b136ea224fe,,,,,,,,,401,40,80,1,0,0,response1disk,,7,-16,-17,1,0,0,rectangle,-16,-17,1,0,0,-16,-17,1,0,0,1,7,167,64,1,,,,,,,,
,,,,,,,,,,,,,FF,,,,,,,,1.7653,,,,,,,,,,,,,,,,,,,,,,60ff41a9ef7f2c9d81bd6a63,61037564795380b16069e749,2021-07-29_23h01.04.872,Simcolourproject_2stim_asymm_v5,2020.2.10,Win32,60,61025ae37ef11b136ea224fe,,,,,,,,,1293,45,-100,1,0,0,response3disk,,4,9,-5,1,0,0,rectangle,9,-5,1,0,0,9,-5,1,0,0,1,8,168,146,1,,,,,,,,
,,,,,,,,,,,,,FF,,,,,,,,1.6321,,,,,,,,,,,,,,,,,,,,,,60ff41a9ef7f2c9d81bd6a63,61037564795380b16069e749,2021-07-29_23h01.04.872,Simcolourproject_2stim_asymm_v5,2020.2.10,Win32,60,61025ae37ef11b136ea224fe,,,,,,,,,2094,-54,-88,1,0,0,response5disk,,3,-12,-7,1,0,0,rectangle,-12,-7,1,0,0,-12,-7,1,0,0,1,9,169,121,1,,,,,,,,
,,,,,,,,,,,,,FF,,,,,,,,3.031,,,,,,,,,,,,,,,,,,,,,,60ff41a9ef7f2c9d81bd6a63,61037564795380b16069e749,2021-07-29_23h01.04.872,Simcolourproject_2stim_asymm_v5,2020.2.10,Win32,60,61025ae37ef11b136ea224fe,,,,,,,,,2304,58,-32,1,0,0,response3disk,,5,-7,-7,1,0,0,rectangle,-7,-7,1,0,0,-7,-7,1,0,0,1,10,170,42,1,,,,,,,,
,,,,,,,,,,,,,FF,,,,,,,,0.5497,,,,,,,,,,,,,,,,,,,,,,60ff41a9ef7f2c9d81bd6a63,61037564795380b16069e749,2021-07-29_23h01.04.872,Simcolourproject_2stim_asymm_v5,2020.2.10,Win32,60,61025ae37ef11b136ea224fe,,,,,,,,,3863,34,69,1,0,0,response1disk,,7,-18,-8,1,0,0,rectangle,-18,-8,1,0,0,-18,-8,1,0,0,1,11,171,85,1,,,,,,,,
,,,,,,,,,,,,,FF,,,,,,,,0.6162,,,,,,,,,,,,,,,,,,,,,,60ff41a9ef7f2c9d81bd6a63,61037564795380b16069e749,2021-07-29_23h01.04.872,Simcolourproject_2stim_asymm_v5,2020.2.10,Win32,60,61025ae37ef11b136ea224fe,,,,,,,,,3027,66,116,1,0,0,response1disk,,7,9,19,1,0,0,rectangle,9,19,1,0,0,9,19,1,0,0,1,12,172,96,1,,,,,,,,
,,,,,,,,,,,,,FF,,,,,,,,4.8799,,,,,,,,,,,,,,,,,,,,,,60ff41a9ef7f2c9d81bd6a63,61037564795380b16069e749,2021-07-29_23h01.04.872,Simcolourproject_2stim_asymm_v5,2020.2.10,Win32,60,61025ae37ef11b136ea224fe,,,,,,,,,4162,102,-57,1,0,0,response3disk,,5,7,-12,1,0,0,rectangle,7,-12,1,0,0,7,-12,1,0,0,1,13,173,126,1,,,,,,,,
,,,,,,,,,,,,,FF,,,,,,,,1.0163,,,,,,,,,,,,,,,,,,,,,,60ff41a9ef7f2c9d81bd6a63,61037564795380b16069e749,2021-07-29_23h01.04.872,Simcolourproject_2stim_asymm_v5,2020.2.10,Win32,60,61025ae37ef11b136ea224fe,,,,,,,,,1139,76,-37,1,0,0,response3disk,,5,8,-13,1,0,0,rectangle,8,-13,1,0,0,8,-13,1,0,0,1,14,174,142,1,,,,,,,,
,,,,,,,,,,,,,FF,,,,,,,,1.0995,,,,,,,,,,,,,,,,,,,,,,60ff41a9ef7f2c9d81bd6a63,61037564795380b16069e749,2021-07-29_23h01.04.872,Simcolourproject_2stim_asymm_v5,2020.2.10,Win32,60,61025ae37ef11b136ea224fe,,,,,,,,,534,54,91,1,0,0,response1disk,,7,15,2,1,0,0,rectangle,15,2,1,0,0,15,2,1,0,0,1,15,175,30,1,,,,,,,,
,,,,,,,,,,,,,FF,,,,,,,,1.7489,,,,,,,,,,,,,,,,,,,,,,60ff41a9ef7f2c9d81bd6a63,61037564795380b16069e749,2021-07-29_23h01.04.872,Simcolourproject_2stim_asymm_v5,2020.2.10,Win32,60,61025ae37ef11b136ea224fe,,,,,,,,,812,106,60,1,0,0,response1disk,,6,6,8,1,0,0,rectangle,6,8,1,0,0,6,8,1,0,0,1,16,176,36,1,,,,,,,,
,,,,,,,,,,,,,FF,,,,,,,,1.1823,,,,,,,,,,,,,,,,,,,,,,60ff41a9ef7f2c9d81bd6a63,61037564795380b16069e749,2021-07-29_23h01.04.872,Simcolourproject_2stim_asymm_v5,2020.2.10,Win32,60,61025ae37ef11b136ea224fe,,,,,,,,,3435,121,-52,1,0,0,response3disk,,5,11,5,1,0,0,rectangle,11,5,1,0,0,11,5,1,0,0,1,17,177,103,1,,,,,,,,
,,,,,,,,,,,,,FF,,,,,,,,0.6164,,,,,,,,,,,,,,,,,,,,,,60ff41a9ef7f2c9d81bd6a63,61037564795380b16069e749,2021-07-29_23h01.04.872,Simcolourproject_2stim_asymm_v5,2020.2.10,Win32,60,61025ae37ef11b136ea224fe,,,,,,,,,1171,25,94,1,0,0,response1disk,,7,-1,7,1,0,0,rectangle,-1,7,1,0,0,-1,7,1,0,0,1,18,178,154,1,,,,,,,,
,,,,,,,,,,,,,FF,,,,,,,,0.9161,,,,,,,,,,,,,,,,,,,,,,60ff41a9ef7f2c9d81bd6a63,61037564795380b16069e749,2021-07-29_23h01.04.872,Simcolourproject_2stim_asymm_v5,2020.2.10,Win32,60,61025ae37ef11b136ea224fe,,,,,,,,,1883,52,99,1,0,0,response1disk,,7,0,-10,1,0,0,rectangle,0,-10,1,0,0,0,-10,1,0,0,1,19,179,16,1,,,,,,,,
,,,,,,,,,,,,,FF,,,,,,,,0.883,,,,,,,,,,,,,,,,,,,,,,60ff41a9ef7f2c9d81bd6a63,61037564795380b16069e749,2021-07-29_23h01.04.872,Simcolourproject_2stim_asymm_v5,2020.2.10,Win32,60,61025ae37ef11b136ea224fe,,,,,,,,,3416,38,86,1,0,0,response1disk,,7,28,12,1,0,0,rectangle,28,12,1,0,0,28,12,1,0,0,1,20,180,100,1,,,,,,,,
,,,,,,,,,,,,,FF,,,,,,,,1.0534,,,,,,,,,,,,,,,,,,,,,,60ff41a9ef7f2c9d81bd6a63,61037564795380b16069e749,2021-07-29_23h01.04.872,Simcolourproject_2stim_asymm_v5,2020.2.10,Win32,60,61025ae37ef11b136ea224fe,,,,,,,,,964,36,87,1,0,0,response1disk,,7,9,0,1,0,0,rectangle,9,0,1,0,0,9,0,1,0,0,1,21,181,75,1,,,,,,,,
,,,,,,,,,,,,,FF,,,,,,,,0.6325,,,,,,,,,,,,,,,,,,,,,,60ff41a9ef7f2c9d81bd6a63,61037564795380b16069e749,2021-07-29_23h01.04.872,Simcolourproject_2stim_asymm_v5,2020.2.10,Win32,60,61025ae37ef11b136ea224fe,,,,,,,,,3659,27,74,1,0,0,response1disk,,7,23,6,1,0,0,rectangle,23,6,1,0,0,23,6,1,0,0,1,22,182,57,1,,,,,,,,
,,,,,,,,,,,,,FF,,,,,,,,1.7159,,,,,,,,,,,,,,,,,,,,,,60ff41a9ef7f2c9d81bd6a63,61037564795380b16069e749,2021-07-29_23h01.04.872,Simcolourproject_2stim_asymm_v5,2020.2.10,Win32,60,61025ae37ef11b136ea224fe,,,,,,,,,2631,57,96,1,0,0,response1disk,,7,24,-1,1,0,0,rectangle,24,-1,1,0,0,24,-1,1,0,0,1,23,183,19,1,,,,,,,,
,,,,,,,,,,,,,FF,,,,,,,,1.9626,,,,,,,,,,,,,,,,,,,,,,60ff41a9ef7f2c9d81bd6a63,61037564795380b16069e749,2021-07-29_23h01.04.872,Simcolourproject_2stim_asymm_v5,2020.2.10,Win32,60,61025ae37ef11b136ea224fe,,,,,,,,,2834,117,31,1,0,0,response1disk,,6,26,-7,1,0,0,rectangle,26,-7,1,0,0,26,-7,1,0,0,1,24,184,92,1,,,,,,,,
,,,,,,,,,,,,,FF,,,,,,,,1.3363,,,,,,,,,,,,,,,,,,,,,,60ff41a9ef7f2c9d81bd6a63,61037564795380b16069e749,2021-07-29_23h01.04.872,Simcolourproject_2stim_asymm_v5,2020.2.10,Win32,60,61025ae37ef11b136ea224fe,,,,,,,,,4326,-50,60,1,0,0,response7disk,,0,-4,5,1,0,0,rectangle,-4,5,1,0,0,-4,5,1,0,0,1,25,185,48,1,,,,,,,,
,,,,,,,,,,,,,FF,,,,,,,,0.887,,,,,,,,,,,,,,,,,,,,,,60ff41a9ef7f2c9d81bd6a63,61037564795380b16069e749,2021-07-29_23h01.04.872,Simcolourproject_2stim_asymm_v5,2020.2.10,Win32,60,61025ae37ef11b136ea224fe,,,,,,,,,926,25,76,1,0,0,response1disk,,7,19,19,1,0,0,rectangle,19,19,1,0,0,19,19,1,0,0,1,26,186,97,1,,,,,,,,
,,,,,,,,,,,,,FF,,,,,,,,0.816,,,,,,,,,,,,,,,,,,,,,,60ff41a9ef7f2c9d81bd6a63,61037564795380b16069e749,2021-07-29_23h01.04.872,Simcolourproject_2stim_asymm_v5,2020.2.10,Win32,60,61025ae37ef11b136ea224fe,,,,,,,,,2243,40,63,1,0,0,response1disk,,7,31,15,1,0,0,rectangle,31,15,1,0,0,31,15,1,0,0,1,27,187,101,1,,,,,,,,
,,,,,,,,,,,,,FF,,,,,,,,0.7165,,,,,,,,,,,,,,,,,,,,,,60ff41a9ef7f2c9d81bd6a63,61037564795380b16069e749,2021-07-29_23h01.04.872,Simcolourproject_2stim_asymm_v5,2020.2.10,Win32,60,61025ae37ef11b136ea224fe,,,,,,,,,2475,28,55,1,0,0,response1disk,,7,23,12,1,0,0,rectangle,23,12,1,0,0,23,12,1,0,0,1,28,188,27,1,,,,,,,,
,,,,,,,,,,,,,FF,,,,,,,,4.6488,,,,,,,,,,,,,,,,,,,,,,60ff41a9ef7f2c9d81bd6a63,61037564795380b16069e749,2021-07-29_23h01.04.872,Simcolourproject_2stim_asymm_v5,2020.2.10,Win32,60,61025ae37ef11b136ea224fe,,,,,,,,,3574,72,95,1,0,0,response1disk,,7,23,15,1,0,0,rectangle,23,15,1,0,0,23,15,1,0,0,1,29,189,50,1,,,,,,,,
,,,,,,,,,,,,,FF,,,,,,,,1.0328,,,,,,,,,,,,,,,,,,,,,,60ff41a9ef7f2c9d81bd6a63,61037564795380b16069e749,2021-07-29_23h01.04.872,Simcolourproject_2stim_asymm_v5,2020.2.10,Win32,60,61025ae37ef11b136ea224fe,,,,,,,,,56,80,149,1,0,0,response1disk,,7,24,7,1,0,0,rectangle,24,7,1,0,0,24,7,1,0,0,1,30,190,53,1,,,,,,,,
,,,,,,,,,,,,,FF,,,,,,,,0.6831,,,,,,,,,,,,,,,,,,,,,,60ff41a9ef7f2c9d81bd6a63,61037564795380b16069e749,2021-07-29_23h01.04.872,Simcolourproject_2stim_asymm_v5,2020.2.10,Win32,60,61025ae37ef11b136ea224fe,,,,,,,,,3733,77,144,1,0,0,response1disk,,7,26,11,1,0,0,rectangle,26,11,1,0,0,26,11,1,0,0,1,31,191,132,1,,,,,,,,
,,,,,,,,,,,,,FF,,,,,,,,0.7658,,,,,,,,,,,,,,,,,,,,,,60ff41a9ef7f2c9d81bd6a63,61037564795380b16069e749,2021-07-29_23h01.04.872,Simcolourproject_2stim_asymm_v5,2020.2.10,Win32,60,61025ae37ef11b136ea224fe,,,,,,,,,2066,51,107,1,0,0,response1disk,,7,19,15,1,0,0,rectangle,19,15,1,0,0,19,15,1,0,0,1,32,192,87,1,,,,,,,,
,,,,,,,,,,,,,FF,,,,,,,,1.1493,,,,,,,,,,,,,,,,,,,,,,60ff41a9ef7f2c9d81bd6a63,61037564795380b16069e749,2021-07-29_23h01.04.872,Simcolourproject_2stim_asymm_v5,2020.2.10,Win32,60,61025ae37ef11b136ea224fe,,,,,,,,,3913,93,-42,1,0,0,response3disk,,5,33,8,1,0,0,rectangle,33,8,1,0,0,33,8,1,0,0,1,33,193,139,1,,,,,,,,
,,,,,,,,,,,,,FF,,,,,,,,0.4999,,,,,,,,,,,,,,,,,,,,,,60ff41a9ef7f2c9d81bd6a63,61037564795380b16069e749,2021-07-29_23h01.04.872,Simcolourproject_2stim_asymm_v5,2020.2.10,Win32,60,61025ae37ef11b136ea224fe,,,,,,,,,3319,69,103,1,0,0,response1disk,,7,22,5,1,0,0,rectangle,30,-104,1,0,0,-3,1,1,0,0,1,34,194,60,1,,response3disk_3,TRUE,4,4,"[57,74,312,101,207,81,242,268,157,237,224,5,285,195,246,225,36,3,228,241]",2.215,rectangle
,,,,,,,,,,,,,FF,,,,,,,,1.3657,,,,,,,,,,,,,,,,,,,,,,60ff41a9ef7f2c9d81bd6a63,61037564795380b16069e749,2021-07-29_23h01.04.872,Simcolourproject_2stim_asymm_v5,2020.2.10,Win32,60,61025ae37ef11b136ea224fe,,,,,,,,,1649,68,45,1,0,0,response1disk,,6,-7,-1,1,0,0,rectangle,-7,-1,1,0,0,-7,-1,1,0,0,1,35,195,17,1,,,,,,,,
,,,,,,,,,,,,,FF,,,,,,,,0.6667,,,,,,,,,,,,,,,,,,,,,,60ff41a9ef7f2c9d81bd6a63,61037564795380b16069e749,2021-07-29_23h01.04.872,Simcolourproject_2stim_asymm_v5,2020.2.10,Win32,60,61025ae37ef11b136ea224fe,,,,,,,,,2569,86,56,1,0,0,response1disk,,6,25,21,1,0,0,rectangle,25,21,1,0,0,25,21,1,0,0,1,36,196,11,1,,,,,,,,
,,,,,,,,,,,,,FF,,,,,,,,0.5832,,,,,,,,,,,,,,,,,,,,,,60ff41a9ef7f2c9d81bd6a63,61037564795380b16069e749,2021-07-29_23h01.04.872,Simcolourproject_2stim_asymm_v5,2020.2.10,Win32,60,61025ae37ef11b136ea224fe,,,,,,,,,800,56,104,1,0,0,response1disk,,7,22,11,1,0,0,rectangle,22,11,1,0,0,22,11,1,0,0,1,37,197,128,1,,,,,,,,
,,,,,,,,,,,,,FF,,,,,,,,1.2158,,,,,,,,,,,,,,,,,,,,,,60ff41a9ef7f2c9d81bd6a63,61037564795380b16069e749,2021-07-29_23h01.04.872,Simcolourproject_2stim_asymm_v5,2020.2.10,Win32,60,61025ae37ef11b136ea224fe,,,,,,,,,107,117,-33,1,0,0,response3disk,,5,32,17,1,0,0,rectangle,32,17,1,0,0,32,17,1,0,0,1,38,198,156,1,,,,,,,,
,,,,,,,,,,,,,FF,,,,,,,,1.4323,,,,,,,,,,,,,,,,,,,,,,60ff41a9ef7f2c9d81bd6a63,61037564795380b16069e749,2021-07-29_23h01.04.872,Simcolourproject_2stim_asymm_v5,2020.2.10,Win32,60,61025ae37ef11b136ea224fe,,,,,,,,,2349,65,45,1,0,0,response1disk,,6,21,-9,1,0,0,rectangle,21,-9,1,0,0,21,-9,1,0,0,1,39,199,131,1,,,,,,,,
,,,,,,,,,,,,,FF,,,,,,,,1.4824,,,,,,,,,,,,,,,,,,,,,,60ff41a9ef7f2c9d81bd6a63,61037564795380b16069e749,2021-07-29_23h01.04.872,Simcolourproject_2stim_asymm_v5,2020.2.10,Win32,60,61025ae37ef11b136ea224fe,,,,,,,,,3429,129,60,1,0,0,response1disk,,6,27,2,1,0,0,rectangle,27,2,1,0,0,27,2,1,0,0,1,40,200,29,1,,,,,,,,
,,,,,,,,,,,,,FF,,,,,,,,0.6496,,,,,,,,,,,,,,,,,,,,,,60ff41a9ef7f2c9d81bd6a63,61037564795380b16069e749,2021-07-29_23h01.04.872,Simcolourproject_2stim_asymm_v5,2020.2.10,Win32,60,61025ae37ef11b136ea224fe,,,,,,,,,3619,47,82,1,0,0,response1disk,,7,-4,-6,1,0,0,rectangle,-4,-6,1,0,0,-4,-6,1,0,0,1,41,201,147,1,,,,,,,,
,,,,,,,,,,,,,FF,,,,,,,,0.5165,,,,,,,,,,,,,,,,,,,,,,60ff41a9ef7f2c9d81bd6a63,61037564795380b16069e749,2021-07-29_23h01.04.872,Simcolourproject_2stim_asymm_v5,2020.2.10,Win32,60,61025ae37ef11b136ea224fe,,,,,,,,,2320,62,78,1,0,0,response1disk,,7,0,-1,1,0,0,rectangle,0,-1,1,0,0,0,-1,1,0,0,1,42,202,40,1,,,,,,,,
,,,,,,,,,,,,,FF,,,,,,,,0.5993,,,,,,,,,,,,,,,,,,,,,,60ff41a9ef7f2c9d81bd6a63,61037564795380b16069e749,2021-07-29_23h01.04.872,Simcolourproject_2stim_asymm_v5,2020.2.10,Win32,60,61025ae37ef11b136ea224fe,,,,,,,,,2621,55,102,1,0,0,response1disk,,7,21,13,1,0,0,rectangle,21,13,1,0,0,21,13,1,0,0,1,43,203,8,1,,,,,,,,
,,,,,,,,,,,,,FF,,,,,,,,1.5322,,,,,,,,,,,,,,,,,,,,,,60ff41a9ef7f2c9d81bd6a63,61037564795380b16069e749,2021-07-29_23h01.04.872,Simcolourproject_2stim_asymm_v5,2020.2.10,Win32,60,61025ae37ef11b136ea224fe,,,,,,,,,1225,113,53,1,0,0,response1disk,,6,25,-5,1,0,0,rectangle,25,-5,1,0,0,25,-5,1,0,0,1,44,204,140,1,,,,,,,,
,,,,,,,,,,,,,FF,,,,,,,,1.1491,,,,,,,,,,,,,,,,,,,,,,60ff41a9ef7f2c9d81bd6a63,61037564795380b16069e749,2021-07-29_23h01.04.872,Simcolourproject_2stim_asymm_v5,2020.2.10,Win32,60,61025ae37ef11b136ea224fe,,,,,,,,,1399,47,62,1,0,0,response1disk,,7,29,-10,1,0,0,rectangle,29,-10,1,0,0,29,-10,1,0,0,1,45,205,70,1,,,,,,,,
,,,,,,,,,,,,,FF,,,,,,,,0.6169,,,,,,,,,,,,,,,,,,,,,,60ff41a9ef7f2c9d81bd6a63,61037564795380b16069e749,2021-07-29_23h01.04.872,Simcolourproject_2stim_asymm_v5,2020.2.10,Win32,60,61025ae37ef11b136ea224fe,,,,,,,,,4261,43,94,1,0,0,response1disk,,7,-10,1,1,0,0,rectangle,39,96,1,0,0,1,4,1,0,0,1,46,206,66,1,,response1disk_3,TRUE,7,7,"[57,74,312,101,207,81,242,268,157,237,224,5,285,195,246,225,36,3,228,241]",1.1659,rectangle
,,,,,,,,,,,,,FF,,,,,,,,1.2325,,,,,,,,,,,,,,,,,,,,,,60ff41a9ef7f2c9d81bd6a63,61037564795380b16069e749,2021-07-29_23h01.04.872,Simcolourproject_2stim_asymm_v5,2020.2.10,Win32,60,61025ae37ef11b136ea224fe,,,,,,,,,1494,50,89,1,0,0,response1disk,,7,8,-11,1,0,0,rectangle,8,-11,1,0,0,8,-11,1,0,0,1,47,207,18,1,,,,,,,,
,,,,,,,,,,,,,FF,,,,,,,,0.9826,,,,,,,,,,,,,,,,,,,,,,60ff41a9ef7f2c9d81bd6a63,61037564795380b16069e749,2021-07-29_23h01.04.872,Simcolourproject_2stim_asymm_v5,2020.2.10,Win32,60,61025ae37ef11b136ea224fe,,,,,,,,,483,73,31,1,0,0,response1disk,,6,1,1,1,0,0,rectangle,1,1,1,0,0,1,1,1,0,0,1,48,208,5,1,,,,,,,,
,,,,,,,,,,,,,FF,,,,,,,,0.5666,,,,,,,,,,,,,,,,,,,,,,60ff41a9ef7f2c9d81bd6a63,61037564795380b16069e749,2021-07-29_23h01.04.872,Simcolourproject_2stim_asymm_v5,2020.2.10,Win32,60,61025ae37ef11b136ea224fe,,,,,,,,,4287,50,102,1,0,0,response1disk,,7,-7,-7,1,0,0,rectangle,-7,-7,1,0,0,-7,-7,1,0,0,1,49,209,25,1,,,,,,,,
,,,,,,,,,,,,,FF,,,,,,,,0.7329,,,,,,,,,,,,,,,,,,,,,,60ff41a9ef7f2c9d81bd6a63,61037564795380b16069e749,2021-07-29_23h01.04.872,Simcolourproject_2stim_asymm_v5,2020.2.10,Win32,60,61025ae37ef11b136ea224fe,,,,,,,,,3645,52,103,1,0,0,response1disk,,7,13,6,1,0,0,rectangle,13,6,1,0,0,13,6,1,0,0,1,50,210,72,1,,,,,,,,
,,,,,,,,,,,,,FF,,,,,,,,1.2492,,,,,,,,,,,,,,,,,,,,,,60ff41a9ef7f2c9d81bd6a63,61037564795380b16069e749,2021-07-29_23h01.04.872,Simcolourproject_2stim_asymm_v5,2020.2.10,Win32,60,61025ae37ef11b136ea224fe,,,,,,,,,2605,100,-39,1,0,0,response3disk,,5,10,10,1,0,0,rectangle,10,10,1,0,0,10,10,1,0,0,1,51,211,26,1,,,,,,,,
,,,,,,,,,,,,,FF,,,,,,,,0.7162,,,,,,,,,,,,,,,,,,,,,,60ff41a9ef7f2c9d81bd6a63,61037564795380b16069e749,2021-07-29_23h01.04.872,Simcolourproject_2stim_asymm_v5,2020.2.10,Win32,60,61025ae37ef11b136ea224fe,,,,,,,,,2041,80,104,1,0,0,response1disk,,7,33,-5,1,0,0,rectangle,33,-5,1,0,0,33,-5,1,0,0,1,52,212,118,1,,,,,,,,
,,,,,,,,,,,,,FF,,,,,,,,0.8658,,,,,,,,,,,,,,,,,,,,,,60ff41a9ef7f2c9d81bd6a63,61037564795380b16069e749,2021-07-29_23h01.04.872,Simcolourproject_2stim_asymm_v5,2020.2.10,Win32,60,61025ae37ef11b136ea224fe,,,,,,,,,2437,53,85,1,0,0,response1disk,,7,36,11,1,0,0,rectangle,36,11,1,0,0,36,11,1,0,0,1,53,213,61,1,,,,,,,,
,,,,,,,,,,,,,FF,,,,,,,,1.4825,,,,,,,,,,,,,,,,,,,,,,60ff41a9ef7f2c9d81bd6a63,61037564795380b16069e749,2021-07-29_23h01.04.872,Simcolourproject_2stim_asymm_v5,2020.2.10,Win32,60,61025ae37ef11b136ea224fe,,,,,,,,,3204,53,-105,1,0,0,response3disk,,4,17,-20,1,0,0,rectangle,17,-20,1,0,0,17,-20,1,0,0,1,54,214,129,1,,,,,,,,
,,,,,,,,,,,,,FF,,,,,,,,0.6999,,,,,,,,,,,,,,,,,,,,,,60ff41a9ef7f2c9d81bd6a63,61037564795380b16069e749,2021-07-29_23h01.04.872,Simcolourproject_2stim_asymm_v5,2020.2.10,Win32,60,61025ae37ef11b136ea224fe,,,,,,,,,2285,35,88,1,0,0,response1disk,,7,18,8,1,0,0,rectangle,18,8,1,0,0,18,8,1,0,0,1,55,215,102,1,,,,,,,,
,,,,,,,,,,,,,FF,,,,,,,,0.583,,,,,,,,,,,,,,,,,,,,,,60ff41a9ef7f2c9d81bd6a63,61037564795380b16069e749,2021-07-29_23h01.04.872,Simcolourproject_2stim_asymm_v5,2020.2.10,Win32,60,61025ae37ef11b136ea224fe,,,,,,,,,233,43,92,1,0,0,response1disk,,7,17,5,1,0,0,rectangle,17,5,1,0,0,17,5,1,0,0,1,56,216,93,1,,,,,,,,
,,,,,,,,,,,,,FF,,,,,,,,1.016,,,,,,,,,,,,,,,,,,,,,,60ff41a9ef7f2c9d81bd6a63,61037564795380b16069e749,2021-07-29_23h01.04.872,Simcolourproject_2stim_asymm_v5,2020.2.10,Win32,60,61025ae37ef11b136ea224fe,,,,,,,,,3250,107,-34,1,0,0,response3disk,,5,25,7,1,0,0,rectangle,25,7,1,0,0,25,7,1,0,0,1,57,217,49,1,,,,,,,,
,,,,,,,,,,,,,FF,,,,,,,,0.55,,,,,,,,,,,,,,,,,,,,,,60ff41a9ef7f2c9d81bd6a63,61037564795380b16069e749,2021-07-29_23h01.04.872,Simcolourproject_2stim_asymm_v5,2020.2.10,Win32,60,61025ae37ef11b136ea224fe,,,,,,,,,3356,47,85,1,0,0,response1disk,,7,12,-7,1,0,0,rectangle,12,-7,1,0,0,12,-7,1,0,0,1,58,218,4,1,,,,,,,,
,,,,,,,,,,,,,FF,,,,,,,,2.4318,,,,,,,,,,,,,,,,,,,,,,60ff41a9ef7f2c9d81bd6a63,61037564795380b16069e749,2021-07-29_23h01.04.872,Simcolourproject_2stim_asymm_v5,2020.2.10,Win32,60,61025ae37ef11b136ea224fe,,,,,,,,,1067,32,87,1,0,0,response1disk,,7,15,4,1,0,0,rectangle,15,4,1,0,0,15,4,1,0,0,1,59,219,122,1,,,,,,,,
,,,,,,,,,,,,,FF,,,,,,,,0.8993,,,,,,,,,,,,,,,,,,,,,,60ff41a9ef7f2c9d81bd6a63,61037564795380b16069e749,2021-07-29_23h01.04.872,Simcolourproject_2stim_asymm_v5,2020.2.10,Win32,60,61025ae37ef11b136ea224fe,,,,,,,,,134,36,91,1,0,0,response1disk,,7,3,6,1,0,0,rectangle,3,6,1,0,0,3,6,1,0,0,1,60,220,12,1,,,,,,,,
,,,,,,,,,,,,,FF,,,,,,,,1.0996,,,,,,,,,,,,,,,,,,,,,,60ff41a9ef7f2c9d81bd6a63,61037564795380b16069e749,2021-07-29_23h01.04.872,Simcolourproject_2stim_asymm_v5,2020.2.10,Win32,60,61025ae37ef11b136ea224fe,,,,,,,,,734,97,57,1,0,0,response1disk,,6,18,13,1,0,0,rectangle,18,13,1,0,0,18,13,1,0,0,1,61,221,106,1,,,,,,,,
,,,,,,,,,,,,,FF,,,,,,,,0.9497,,,,,,,,,,,,,,,,,,,,,,60ff41a9ef7f2c9d81bd6a63,61037564795380b16069e749,2021-07-29_23h01.04.872,Simcolourproject_2stim_asymm_v5,2020.2.10,Win32,60,61025ae37ef11b136ea224fe,,,,,,,,,3156,67,52,1,0,0,response1disk,,6,21,2,1,0,0,rectangle,21,2,1,0,0,21,2,1,0,0,1,62,222,73,1,,,,,,,,
,,,,,,,,,,,,,FF,,,,,,,,3.1489,,,,,,,,,,,,,,,,,,,,,,60ff41a9ef7f2c9d81bd6a63,61037564795380b16069e749,2021-07-29_23h01.04.872,Simcolourproject_2stim_asymm_v5,2020.2.10,Win32,60,61025ae37ef11b136ea224fe,,,,,,,,,1065,36,97,1,0,0,response1disk,,7,27,11,1,0,0,rectangle,28,103,1,0,0,8,-2,1,0,0,1,63,223,31,1,,response1disk_3,TRUE,7,7,"[57,74,312,101,207,81,242,268,157,237,224,5,285,195,246,225,36,3,228,241]",0.9991,rectangle
,,,,,,,,,,,,,FF,,,,,,,,0.633,,,,,,,,,,,,,,,,,,,,,,60ff41a9ef7f2c9d81bd6a63,61037564795380b16069e749,2021-07-29_23h01.04.872,Simcolourproject_2stim_asymm_v5,2020.2.10,Win32,60,61025ae37ef11b136ea224fe,,,,,,,,,2978,37,111,1,0,0,response1disk,,7,11,16,1,0,0,rectangle,-33,-119,1,0,0,3,2,1,0,0,1,64,224,86,1,,response5disk_3,TRUE,3,3,"[57,74,312,101,207,81,242,268,157,237,224,5,285,195,246,225,36,3,228,241]",4.3799,rectangle
,,,,,,,,,,,,,FF,,,,,,,,3.7139,,,,,,,,,,,,,,,,,,,,,,60ff41a9ef7f2c9d81bd6a63,61037564795380b16069e749,2021-07-29_23h01.04.872,Simcolourproject_2stim_asymm_v5,2020.2.10,Win32,60,61025ae37ef11b136ea224fe,,,,,,,,,1890,92,69,1,0,0,response1disk,,6,-20,12,1,0,0,rectangle,-20,12,1,0,0,-20,12,1,0,0,1,65,225,76,1,,,,,,,,
,,,,,,,,,,,,,FF,,,,,,,,0.9998,,,,,,,,,,,,,,,,,,,,,,60ff41a9ef7f2c9d81bd6a63,61037564795380b16069e749,2021-07-29_23h01.04.872,Simcolourproject_2stim_asymm_v5,2020.2.10,Win32,60,61025ae37ef11b136ea224fe,,,,,,,,,2352,53,151,1,0,0,response1disk,,7,-23,4,1,0,0,rectangle,-23,4,1,0,0,-23,4,1,0,0,1,66,226,32,1,,,,,,,,
,,,,,,,,,,,,,FF,,,,,,,,3.0644,,,,,,,,,,,,,,,,,,,,,,60ff41a9ef7f2c9d81bd6a63,61037564795380b16069e749,2021-07-29_23h01.04.872,Simcolourproject_2stim_asymm_v5,2020.2.10,Win32,60,61025ae37ef11b136ea224fe,,,,,,,,,2592,106,137,1,0,0,response1disk,,7,17,-8,1,0,0,rectangle,-105,-55,1,0,0,22,8,1,0,0,1,67,227,51,1,,response5disk_3,TRUE,2,2,"[57,74,312,101,207,81,242,268,157,237,224,5,285,195,246,225,36,3,228,241]",1.6842,rectangle
,,,,,,,,,,,,,FF,,,,,,,,0.8326,,,,,,,,,,,,,,,,,,,,,,60ff41a9ef7f2c9d81bd6a63,61037564795380b16069e749,2021-07-29_23h01.04.872,Simcolourproject_2stim_asymm_v5,2020.2.10,Win32,60,61025ae37ef11b136ea224fe,,,,,,,,,2378,37,91,1,0,0,response1disk,,7,2,-13,1,0,0,rectangle,2,-13,1,0,0,2,-13,1,0,0,1,68,228,136,1,,,,,,,,
,,,,,,,,,,,,,FF,,,,,,,,0.7791,,,,,,,,,,,,,,,,,,,,,,60ff41a9ef7f2c9d81bd6a63,61037564795380b16069e749,2021-07-29_23h01.04.872,Simcolourproject_2stim_asymm_v5,2020.2.10,Win32,60,61025ae37ef11b136ea224fe,,,,,,,,,2308,47,121,1,0,0,response1disk,,7,-16,13,1,0,0,rectangle,-16,13,1,0,0,-16,13,1,0,0,1,69,229,54,1,,,,,,,,
,,,,,,,,,,,,,FF,,,,,,,,3.4977,,,,,,,,,,,,,,,,,,,,,,60ff41a9ef7f2c9d81bd6a63,61037564795380b16069e749,2021-07-29_23h01.04.872,Simcolourproject_2stim_asymm_v5,2020.2.10,Win32,60,61025ae37ef11b136ea224fe,,,,,,,,,1734,104,45,1,0,0,response1disk,,6,39,5,1,0,0,rectangle,39,5,1,0,0,39,5,1,0,0,1,70,230,112,1,,,,,,,,
,,,,,,,,,,,,,FF,,,,,,,,0.5666,,,,,,,,,,,,,,,,,,,,,,60ff41a9ef7f2c9d81bd6a63,61037564795380b16069e749,2021-07-29_23h01.04.872,Simcolourproject_2stim_asymm_v5,2020.2.10,Win32,60,61025ae37ef11b136ea224fe,,,,,,,,,335,55,90,1,0,0,response1disk,,7,34,6,1,0,0,rectangle,34,6,1,0,0,34,6,1,0,0,1,71,231,10,1,,,,,,,,
,,,,,,,,,,,,,FF,,,,,,,,0.8995,,,,,,,,,,,,,,,,,,,,,,60ff41a9ef7f2c9d81bd6a63,61037564795380b16069e749,2021-07-29_23h01.04.872,Simcolourproject_2stim_asymm_v5,2020.2.10,Win32,60,61025ae37ef11b136ea224fe,,,,,,,,,982,68,43,1,0,0,response1disk,,6,-7,4,1,0,0,rectangle,-7,4,1,0,0,-7,4,1,0,0,1,72,232,38,1,,,,,,,,
,,,,,,,,,,,,,FF,,,,,,,,1.3495,,,,,,,,,,,,,,,,,,,,,,60ff41a9ef7f2c9d81bd6a63,61037564795380b16069e749,2021-07-29_23h01.04.872,Simcolourproject_2stim_asymm_v5,2020.2.10,Win32,60,61025ae37ef11b136ea224fe,,,,,,,,,1359,44,88,1,0,0,response1disk,,7,17,7,1,0,0,rectangle,17,7,1,0,0,17,7,1,0,0,1,73,233,144,1,,,,,,,,
,,,,,,,,,,,,,FF,,,,,,,,0.5667,,,,,,,,,,,,,,,,,,,,,,60ff41a9ef7f2c9d81bd6a63,61037564795380b16069e749,2021-07-29_23h01.04.872,Simcolourproject_2stim_asymm_v5,2020.2.10,Win32,60,61025ae37ef11b136ea224fe,,,,,,,,,1487,37,89,1,0,0,response1disk,,7,-14,-15,1,0,0,rectangle,-14,-15,1,0,0,-14,-15,1,0,0,1,74,234,116,1,,,,,,,,
,,,,,,,,,,,,,FF,,,,,,,,0.52,,,,,,,,,,,,,,,,,,,,,,60ff41a9ef7f2c9d81bd6a63,61037564795380b16069e749,2021-07-29_23h01.04.872,Simcolourproject_2stim_asymm_v5,2020.2.10,Win32,60,61025ae37ef11b136ea224fe,,,,,,,,,1188,65,109,1,0,0,response1disk,,7,27,13,1,0,0,rectangle,27,13,1,0,0,27,13,1,0,0,1,75,235,43,1,,,,,,,,
,,,,,,,,,,,,,FF,,,,,,,,0.5332,,,,,,,,,,,,,,,,,,,,,,60ff41a9ef7f2c9d81bd6a63,61037564795380b16069e749,2021-07-29_23h01.04.872,Simcolourproject_2stim_asymm_v5,2020.2.10,Win32,60,61025ae37ef11b136ea224fe,,,,,,,,,1340,58,99,1,0,0,response1disk,,7,33,17,1,0,0,rectangle,102,43,1,0,0,12,-13,1,0,0,1,76,236,124,1,,response1disk_3,TRUE,6,6,"[57,74,312,101,207,81,242,268,157,237,224,5,285,195,246,225,36,3,228,241]",1.3073,rectangle
,,,,,,,,,,,,,FF,,,,,,,,0.7328,,,,,,,,,,,,,,,,,,,,,,60ff41a9ef7f2c9d81bd6a63,61037564795380b16069e749,2021-07-29_23h01.04.872,Simcolourproject_2stim_asymm_v5,2020.2.10,Win32,60,61025ae37ef11b136ea224fe,,,,,,,,,2220,54,99,1,0,0,response1disk,,7,19,7,1,0,0,rectangle,19,7,1,0,0,19,7,1,0,0,1,77,237,35,1,,,,,,,,
,,,,,,,,,,,,,FF,,,,,,,,0.5464,,,,,,,,,,,,,,,,,,,,,,60ff41a9ef7f2c9d81bd6a63,61037564795380b16069e749,2021-07-29_23h01.04.872,Simcolourproject_2stim_asymm_v5,2020.2.10,Win32,60,61025ae37ef11b136ea224fe,,,,,,,,,2913,28,83,1,0,0,response1disk,,7,13,15,1,0,0,rectangle,13,15,1,0,0,13,15,1,0,0,1,78,238,133,1,,,,,,,,
,,,,,,,,,,,,,FF,,,,,,,,0.6376,,,,,,,,,,,,,,,,,,,,,,60ff41a9ef7f2c9d81bd6a63,61037564795380b16069e749,2021-07-29_23h01.04.872,Simcolourproject_2stim_asymm_v5,2020.2.10,Win32,60,61025ae37ef11b136ea224fe,,,,,,,,,4075,49,99,1,0,0,response1disk,,7,20,7,1,0,0,rectangle,20,7,1,0,0,20,7,1,0,0,1,79,239,109,1,,,,,,,,
,,,,,,,,,,,,,FF,,,,,,,,1.1165,,,,,,,,,,,,,,,,,,,,,,60ff41a9ef7f2c9d81bd6a63,61037564795380b16069e749,2021-07-29_23h01.04.872,Simcolourproject_2stim_asymm_v5,2020.2.10,Win32,60,61025ae37ef11b136ea224fe,,,,,,,,,1694,40,104,1,0,0,response1disk,,7,18,10,1,0,0,rectangle,-77,-49,1,0,0,13,9,1,0,0,1,80,240,95,1,,response5disk_3,TRUE,2,2,"[57,74,312,101,207,81,242,268,157,237,224,5,285,195,246,225,36,3,228,241]",2.5648,rectangle
,,,,,,,,,,,,,FF,,,,,,,,0.6532,,,,,,,,,,,,,,,,,,,,,,60ff41a9ef7f2c9d81bd6a63,61037564795380b16069e749,2021-07-29_23h01.04.872,Simcolourproject_2stim_asymm_v5,2020.2.10,Win32,60,61025ae37ef11b136ea224fe,,,,,,,,,1342,51,105,1,0,0,response1disk,,7,18,5,1,0,0,rectangle,-87,54,1,0,0,-20,6,1,0,0,1,81,241,94,1,,response7disk_3,TRUE,1,1,"[57,74,312,101,207,81,242,268,157,237,224,5,285,195,246,225,36,3,228,241]",2.4978,rectangle
,,,,,,,,,,,,,FF,,,,,,,,3.331,,,,,,,,,,,,,,,,,,,,,,60ff41a9ef7f2c9d81bd6a63,61037564795380b16069e749,2021-07-29_23h01.04.872,Simcolourproject_2stim_asymm_v5,2020.2.10,Win32,60,61025ae37ef11b136ea224fe,,,,,,,,,2089,104,45,1,0,0,response1disk,,6,2,-4,1,0,0,rectangle,2,-4,1,0,0,2,-4,1,0,0,1,82,242,55,1,,,,,,,,
,,,,,,,,,,,,,FF,,,,,,,,1.2158,,,,,,,,,,,,,,,,,,,,,,60ff41a9ef7f2c9d81bd6a63,61037564795380b16069e749,2021-07-29_23h01.04.872,Simcolourproject_2stim_asymm_v5,2020.2.10,Win32,60,61025ae37ef11b136ea224fe,,,,,,,,,525,79,34,1,0,0,response1disk,,6,-8,-8,1,0,0,rectangle,-8,-8,1,0,0,-8,-8,1,0,0,1,83,243,84,1,,,,,,,,
,,,,,,,,,,,,,FF,,,,,,,,0.9134,,,,,,,,,,,,,,,,,,,,,,60ff41a9ef7f2c9d81bd6a63,61037564795380b16069e749,2021-07-29_23h01.04.872,Simcolourproject_2stim_asymm_v5,2020.2.10,Win32,60,61025ae37ef11b136ea224fe,,,,,,,,,3906,-52,78,1,0,0,response7disk,,0,-17,1,1,0,0,rectangle,-17,1,1,0,0,-17,1,1,0,0,1,84,244,125,1,,,,,,,,
,,,,,,,,,,,,,FF,,,,,,,,0.653,,,,,,,,,,,,,,,,,,,,,,60ff41a9ef7f2c9d81bd6a63,61037564795380b16069e749,2021-07-29_23h01.04.872,Simcolourproject_2stim_asymm_v5,2020.2.10,Win32,60,61025ae37ef11b136ea224fe,,,,,,,,,155,44,91,1,0,0,response1disk,,7,26,21,1,0,0,rectangle,48,89,1,0,0,9,-6,1,0,0,1,85,245,117,1,,response1disk_3,TRUE,7,7,"[57,74,312,101,207,81,242,268,157,237,224,5,285,195,246,225,36,3,228,241]",0.9993,rectangle
,,,,,,,,,,,,,FF,,,,,,,,0.7994,,,,,,,,,,,,,,,,,,,,,,60ff41a9ef7f2c9d81bd6a63,61037564795380b16069e749,2021-07-29_23h01.04.872,Simcolourproject_2stim_asymm_v5,2020.2.10,Win32,60,61025ae37ef11b136ea224fe,,,,,,,,,1851,39,71,1,0,0,response1disk,,7,18,-5,1,0,0,rectangle,18,-5,1,0,0,18,-5,1,0,0,1,86,246,137,1,,,,,,,,
,,,,,,,,,,,,,FF,,,,,,,,0.5497,,,,,,,,,,,,,,,,,,,,,,60ff41a9ef7f2c9d81bd6a63,61037564795380b16069e749,2021-07-29_23h01.04.872,Simcolourproject_2stim_asymm_v5,2020.2.10,Win32,60,61025ae37ef11b136ea224fe,,,,,,,,,315,29,79,1,0,0,response1disk,,7,23,16,1,0,0,rectangle,23,16,1,0,0,23,16,1,0,0,1,87,247,157,1,,,,,,,,
,,,,,,,,,,,,,FF,,,,,,,,0.4999,,,,,,,,,,,,,,,,,,,,,,60ff41a9ef7f2c9d81bd6a63,61037564795380b16069e749,2021-07-29_23h01.04.872,Simcolourproject_2stim_asymm_v5,2020.2.10,Win32,60,61025ae37ef11b136ea224fe,,,,,,,,,1715,36,77,1,0,0,response1disk,,7,14,-7,1,0,0,rectangle,14,-7,1,0,0,14,-7,1,0,0,1,88,248,68,1,,,,,,,,
,,,,,,,,,,,,,FF,,,,,,,,1.6991,,,,,,,,,,,,,,,,,,,,,,60ff41a9ef7f2c9d81bd6a63,61037564795380b16069e749,2021-07-29_23h01.04.872,Simcolourproject_2stim_asymm_v5,2020.2.10,Win32,60,61025ae37ef11b136ea224fe,,,,,,,,,2546,-67,-107,1,0,0,response5disk,,3,3,1,1,0,0,rectangle,3,1,1,0,0,3,1,1,0,0,1,89,249,130,1,,,,,,,,
,,,,,,,,,,,,,FF,,,,,,,,1.016,,,,,,,,,,,,,,,,,,,,,,60ff41a9ef7f2c9d81bd6a63,61037564795380b16069e749,2021-07-29_23h01.04.872,Simcolourproject_2stim_asymm_v5,2020.2.10,Win32,60,61025ae37ef11b136ea224fe,,,,,,,,,1451,48,-74,1,0,0,response3disk,,4,8,-1,1,0,0,rectangle,8,-1,1,0,0,8,-1,1,0,0,1,90,250,37,1,,,,,,,,
,,,,,,,,,,,,,FF,,,,,,,,2.1489,,,,,,,,,,,,,,,,,,,,,,60ff41a9ef7f2c9d81bd6a63,61037564795380b16069e749,2021-07-29_23h01.04.872,Simcolourproject_2stim_asymm_v5,2020.2.10,Win32,60,61025ae37ef11b136ea224fe,,,,,,,,,1751,38,-65,1,0,0,response3disk,,4,2,3,1,0,0,rectangle,2,3,1,0,0,2,3,1,0,0,1,91,251,56,1,,,,,,,,
,,,,,,,,,,,,,FF,,,,,,,,0.6163,,,,,,,,,,,,,,,,,,,,,,60ff41a9ef7f2c9d81bd6a63,61037564795380b16069e749,2021-07-29_23h01.04.872,Simcolourproject_2stim_asymm_v5,2020.2.10,Win32,60,61025ae37ef11b136ea224fe,,,,,,,,,2262,27,63,1,0,0,response1disk,,7,5,-2,1,0,0,rectangle,5,-2,1,0,0,5,-2,1,0,0,1,92,252,148,1,,,,,,,,
,,,,,,,,,,,,,FF,,,,,,,,0.5332,,,,,,,,,,,,,,,,,,,,,,60ff41a9ef7f2c9d81bd6a63,61037564795380b16069e749,2021-07-29_23h01.04.872,Simcolourproject_2stim_asymm_v5,2020.2.10,Win32,60,61025ae37ef11b136ea224fe,,,,,,,,,341,55,65,1,0,0,response1disk,,7,19,-1,1,0,0,rectangle,19,-1,1,0,0,19,-1,1,0,0,1,93,253,80,1,,,,,,,,
,,,,,,,,,,,,,FF,,,,,,,,3.3807,,,,,,,,,,,,,,,,,,,,,,60ff41a9ef7f2c9d81bd6a63,61037564795380b16069e749,2021-07-29_23h01.04.872,Simcolourproject_2stim_asymm_v5,2020.2.10,Win32,60,61025ae37ef11b136ea224fe,,,,,,,,,1151,103,-45,1,0,0,response3disk,,5,-3,-2,1,0,0,rectangle,-3,-2,1,0,0,-3,-2,1,0,0,1,94,254,1,1,,,,,,,,
,,,,,,,,,,,,,FF,,,,,,,,1.0495,,,,,,,,,,,,,,,,,,,,,,60ff41a9ef7f2c9d81bd6a63,61037564795380b16069e749,2021-07-29_23h01.04.872,Simcolourproject_2stim_asymm_v5,2020.2.10,Win32,60,61025ae37ef11b136ea224fe,,,,,,,,,235,24,63,1,0,0,response1disk,,7,23,-11,1,0,0,rectangle,23,-11,1,0,0,23,-11,1,0,0,1,95,255,83,1,,,,,,,,
,,,,,,,,,,,,,FF,,,,,,,,2.798,,,,,,,,,,,,,,,,,,,,,,60ff41a9ef7f2c9d81bd6a63,61037564795380b16069e749,2021-07-29_23h01.04.872,Simcolourproject_2stim_asymm_v5,2020.2.10,Win32,60,61025ae37ef11b136ea224fe,,,,,,,,,1229,86,-47,1,0,0,response3disk,,5,-15,-6,1,0,0,rectangle,-15,-6,1,0,0,-15,-6,1,0,0,1,96,256,22,1,,,,,,,,
,,,,,,,,,,,,,FF,,,,,,,,0.833,,,,,,,,,,,,,,,,,,,,,,60ff41a9ef7f2c9d81bd6a63,61037564795380b16069e749,2021-07-29_23h01.04.872,Simcolourproject_2stim_asymm_v5,2020.2.10,Win32,60,61025ae37ef11b136ea224fe,,,,,,,,,1425,47,81,1,0,0,response1disk,,7,-14,-15,1,0,0,rectangle,-14,-15,1,0,0,-14,-15,1,0,0,1,97,257,3,1,,,,,,,,
,,,,,,,,,,,,,FF,,,,,,,,1.6491,,,,,,,,,,,,,,,,,,,,,,60ff41a9ef7f2c9d81bd6a63,61037564795380b16069e749,2021-07-29_23h01.04.872,Simcolourproject_2stim_asymm_v5,2020.2.10,Win32,60,61025ae37ef11b136ea224fe,,,,,,,,,1136,112,-26,1,0,0,response3disk,,5,18,4,1,0,0,rectangle,18,4,1,0,0,18,4,1,0,0,1,98,258,2,1,,,,,,,,
,,,,,,,,,,,,,FF,,,,,,,,0.6327,,,,,,,,,,,,,,,,,,,,,,60ff41a9ef7f2c9d81bd6a63,61037564795380b16069e749,2021-07-29_23h01.04.872,Simcolourproject_2stim_asymm_v5,2020.2.10,Win32,60,61025ae37ef11b136ea224fe,,,,,,,,,2504,50,85,1,0,0,response1disk,,7,19,15,1,0,0,rectangle,19,15,1,0,0,19,15,1,0,0,1,99,259,24,1,,,,,,,,
,,,,,,,,,,,,,FF,,,,,,,,0.6664,,,,,,,,,,,,,,,,,,,,,,60ff41a9ef7f2c9d81bd6a63,61037564795380b16069e749,2021-07-29_23h01.04.872,Simcolourproject_2stim_asymm_v5,2020.2.10,Win32,60,61025ae37ef11b136ea224fe,,,,,,,,,4232,41,82,1,0,0,response1disk,,7,10,0,1,0,0,rectangle,10,0,1,0,0,10,0,1,0,0,1,100,260,62,1,,,,,,,,
,,,,,,,,,,,,,FF,,,,,,,,0.7328,,,,,,,,,,,,,,,,,,,,,,60ff41a9ef7f2c9d81bd6a63,61037564795380b16069e749,2021-07-29_23h01.04.872,Simcolourproject_2stim_asymm_v5,2020.2.10,Win32,60,61025ae37ef11b136ea224fe,,,,,,,,,3932,25,70,1,0,0,response1disk,,7,12,4,1,0,0,rectangle,12,4,1,0,0,12,4,1,0,0,1,101,261,90,1,,,,,,,,
,,,,,,,,,,,,,FF,,,,,,,,1.0327,,,,,,,,,,,,,,,,,,,,,,60ff41a9ef7f2c9d81bd6a63,61037564795380b16069e749,2021-07-29_23h01.04.872,Simcolourproject_2stim_asymm_v5,2020.2.10,Win32,60,61025ae37ef11b136ea224fe,,,,,,,,,2160,-80,41,1,0,0,response7disk,,1,-25,-2,1,0,0,rectangle,-25,-2,1,0,0,-25,-2,1,0,0,1,102,262,0,1,,,,,,,,
,,,,,,,,,,,,,FF,,,,,,,,1.9156,,,,,,,,,,,,,,,,,,,,,,60ff41a9ef7f2c9d81bd6a63,61037564795380b16069e749,2021-07-29_23h01.04.872,Simcolourproject_2stim_asymm_v5,2020.2.10,Win32,60,61025ae37ef11b136ea224fe,,,,,,,,,3899,49,100,1,0,0,response1disk,,7,6,11,1,0,0,rectangle,6,11,1,0,0,6,11,1,0,0,1,103,263,91,1,,,,,,,,
,,,,,,,,,,,,,FF,,,,,,,,0.6327,,,,,,,,,,,,,,,,,,,,,,60ff41a9ef7f2c9d81bd6a63,61037564795380b16069e749,2021-07-29_23h01.04.872,Simcolourproject_2stim_asymm_v5,2020.2.10,Win32,60,61025ae37ef11b136ea224fe,,,,,,,,,3572,31,92,1,0,0,response1disk,,7,7,0,1,0,0,rectangle,7,0,1,0,0,7,0,1,0,0,1,104,264,77,1,,,,,,,,
,,,,,,,,,,,,,FF,,,,,,,,0.4666,,,,,,,,,,,,,,,,,,,,,,60ff41a9ef7f2c9d81bd6a63,61037564795380b16069e749,2021-07-29_23h01.04.872,Simcolourproject_2stim_asymm_v5,2020.2.10,Win32,60,61025ae37ef11b136ea224fe,,,,,,,,,1403,65,112,1,0,0,response1disk,,7,35,14,1,0,0,rectangle,35,14,1,0,0,35,14,1,0,0,1,105,265,81,1,,,,,,,,
,,,,,,,,,,,,,FF,,,,,,,,0.4665,,,,,,,,,,,,,,,,,,,,,,60ff41a9ef7f2c9d81bd6a63,61037564795380b16069e749,2021-07-29_23h01.04.872,Simcolourproject_2stim_asymm_v5,2020.2.10,Win32,60,61025ae37ef11b136ea224fe,,,,,,,,,3958,61,100,1,0,0,response1disk,,7,34,12,1,0,0,rectangle,34,12,1,0,0,34,12,1,0,0,1,106,266,7,1,,,,,,,,
,,,,,,,,,,,,,FF,,,,,,,,0.5491,,,,,,,,,,,,,,,,,,,,,,60ff41a9ef7f2c9d81bd6a63,61037564795380b16069e749,2021-07-29_23h01.04.872,Simcolourproject_2stim_asymm_v5,2020.2.10,Win32,60,61025ae37ef11b136ea224fe,,,,,,,,,3808,54,104,1,0,0,response1disk,,7,23,-3,1,0,0,rectangle,-98,72,1,0,0,-21,-11,1,0,0,1,107,267,158,1,,response7disk_3,TRUE,1,1,"[57,74,312,101,207,81,242,268,157,237,224,5,285,195,246,225,36,3,228,241]",1.3651,rectangle
,,,,,,,,,,,,,FF,,,,,,,,1.1829,,,,,,,,,,,,,,,,,,,,,,60ff41a9ef7f2c9d81bd6a63,61037564795380b16069e749,2021-07-29_23h01.04.872,Simcolourproject_2stim_asymm_v5,2020.2.10,Win32,60,61025ae37ef11b136ea224fe,,,,,,,,,819,97,116,1,0,0,response1disk,,7,-10,8,1,0,0,rectangle,-10,8,1,0,0,-10,8,1,0,0,1,108,268,45,1,,,,,,,,
,,,,,,,,,,,,,FF,,,,,,,,0.4997,,,,,,,,,,,,,,,,,,,,,,60ff41a9ef7f2c9d81bd6a63,61037564795380b16069e749,2021-07-29_23h01.04.872,Simcolourproject_2stim_asymm_v5,2020.2.10,Win32,60,61025ae37ef11b136ea224fe,,,,,,,,,1809,69,117,1,0,0,response1disk,,7,-24,-7,1,0,0,rectangle,-24,-7,1,0,0,-24,-7,1,0,0,1,109,269,98,1,,,,,,,,
,,,,,,,,,,,,,FF,,,,,,,,0.5832,,,,,,,,,,,,,,,,,,,,,,60ff41a9ef7f2c9d81bd6a63,61037564795380b16069e749,2021-07-29_23h01.04.872,Simcolourproject_2stim_asymm_v5,2020.2.10,Win32,60,61025ae37ef11b136ea224fe,,,,,,,,,2796,77,110,1,0,0,response1disk,,7,13,20,1,0,0,rectangle,13,20,1,0,0,13,20,1,0,0,1,110,270,152,1,,,,,,,,
,,,,,,,,,,,,,FF,,,,,,,,1.7158,,,,,,,,,,,,,,,,,,,,,,60ff41a9ef7f2c9d81bd6a63,61037564795380b16069e749,2021-07-29_23h01.04.872,Simcolourproject_2stim_asymm_v5,2020.2.10,Win32,60,61025ae37ef11b136ea224fe,,,,,,,,,2726,116,61,1,0,0,response1disk,,6,16,-3,1,0,0,rectangle,16,-3,1,0,0,16,-3,1,0,0,1,111,271,13,1,,,,,,,,
,,,,,,,,,,,,,FF,,,,,,,,0.8161,,,,,,,,,,,,,,,,,,,,,,60ff41a9ef7f2c9d81bd6a63,61037564795380b16069e749,2021-07-29_23h01.04.872,Simcolourproject_2stim_asymm_v5,2020.2.10,Win32,60,61025ae37ef11b136ea224fe,,,,,,,,,1131,-48,93,1,0,0,response7disk,,0,-9,7,1,0,0,rectangle,-9,7,1,0,0,-9,7,1,0,0,1,112,272,89,1,,,,,,,,
,,,,,,,,,,,,,FF,,,,,,,,0.6995,,,,,,,,,,,,,,,,,,,,,,60ff41a9ef7f2c9d81bd6a63,61037564795380b16069e749,2021-07-29_23h01.04.872,Simcolourproject_2stim_asymm_v5,2020.2.10,Win32,60,61025ae37ef11b136ea224fe,,,,,,,,,3191,32,82,1,0,0,response1disk,,7,-14,19,1,0,0,rectangle,-14,19,1,0,0,-14,19,1,0,0,1,113,273,145,1,,,,,,,,
,,,,,,,,,,,,,FF,,,,,,,,0.4997,,,,,,,,,,,,,,,,,,,,,,60ff41a9ef7f2c9d81bd6a63,61037564795380b16069e749,2021-07-29_23h01.04.872,Simcolourproject_2stim_asymm_v5,2020.2.10,Win32,60,61025ae37ef11b136ea224fe,,,,,,,,,2204,53,95,1,0,0,response1disk,,7,-3,9,1,0,0,rectangle,-3,9,1,0,0,-3,9,1,0,0,1,114,274,6,1,,,,,,,,
,,,,,,,,,,,,,FF,,,,,,,,1.7655,,,,,,,,,,,,,,,,,,,,,,60ff41a9ef7f2c9d81bd6a63,61037564795380b16069e749,2021-07-29_23h01.04.872,Simcolourproject_2stim_asymm_v5,2020.2.10,Win32,60,61025ae37ef11b136ea224fe,,,,,,,,,2169,50,80,1,0,0,response1disk,,7,3,16,1,0,0,rectangle,3,16,1,0,0,3,16,1,0,0,1,115,275,39,1,,,,,,,,
,,,,,,,,,,,,,FF,,,,,,,,0.433,,,,,,,,,,,,,,,,,,,,,,60ff41a9ef7f2c9d81bd6a63,61037564795380b16069e749,2021-07-29_23h01.04.872,Simcolourproject_2stim_asymm_v5,2020.2.10,Win32,60,61025ae37ef11b136ea224fe,,,,,,,,,420,39,95,1,0,0,response1disk,,7,-10,13,1,0,0,rectangle,-10,13,1,0,0,-10,13,1,0,0,1,116,276,108,1,,,,,,,,
,,,,,,,,,,,,,FF,,,,,,,,0.5164,,,,,,,,,,,,,,,,,,,,,,60ff41a9ef7f2c9d81bd6a63,61037564795380b16069e749,2021-07-29_23h01.04.872,Simcolourproject_2stim_asymm_v5,2020.2.10,Win32,60,61025ae37ef11b136ea224fe,,,,,,,,,509,29,90,1,0,0,response1disk,,7,-24,3,1,0,0,rectangle,-24,3,1,0,0,-24,3,1,0,0,1,117,277,21,1,,,,,,,,
,,,,,,,,,,,,,FF,,,,,,,,0.6023,,,,,,,,,,,,,,,,,,,,,,60ff41a9ef7f2c9d81bd6a63,61037564795380b16069e749,2021-07-29_23h01.04.872,Simcolourproject_2stim_asymm_v5,2020.2.10,Win32,60,61025ae37ef11b136ea224fe,,,,,,,,,2912,51,96,1,0,0,response1disk,,7,-6,6,1,0,0,rectangle,-6,6,1,0,0,-6,6,1,0,0,1,118,278,78,1,,,,,,,,
,,,,,,,,,,,,,FF,,,,,,,,0.6671,,,,,,,,,,,,,,,,,,,,,,60ff41a9ef7f2c9d81bd6a63,61037564795380b16069e749,2021-07-29_23h01.04.872,Simcolourproject_2stim_asymm_v5,2020.2.10,Win32,60,61025ae37ef11b136ea224fe,,,,,,,,,4301,38,83,1,0,0,response1disk,,7,5,12,1,0,0,rectangle,5,12,1,0,0,5,12,1,0,0,1,119,279,138,1,,,,,,,,
,,,,,,,,,,,,,FF,,,,,,,,0.6131,,,,,,,,,,,,,,,,,,,,,,60ff41a9ef7f2c9d81bd6a63,61037564795380b16069e749,2021-07-29_23h01.04.872,Simcolourproject_2stim_asymm_v5,2020.2.10,Win32,60,61025ae37ef11b136ea224fe,,,,,,,,,1794,48,67,1,0,0,response1disk,,7,15,9,1,0,0,rectangle,15,9,1,0,0,15,9,1,0,0,1,120,280,150,1,,,,,,,,
,,,,,,,,,,,,,FF,,,,,,,,0.549,,,,,,,,,,,,,,,,,,,,,,60ff41a9ef7f2c9d81bd6a63,61037564795380b16069e749,2021-07-29_23h01.04.872,Simcolourproject_2stim_asymm_v5,2020.2.10,Win32,60,61025ae37ef11b136ea224fe,,,,,,,,,2208,57,81,1,0,0,response1disk,,7,9,3,1,0,0,rectangle,9,3,1,0,0,9,3,1,0,0,1,121,281,114,1,,,,,,,,
,,,,,,,,,,,,,FF,,,,,,,,0.6181,,,,,,,,,,,,,,,,,,,,,,60ff41a9ef7f2c9d81bd6a63,61037564795380b16069e749,2021-07-29_23h01.04.872,Simcolourproject_2stim_asymm_v5,2020.2.10,Win32,60,61025ae37ef11b136ea224fe,,,,,,,,,3255,47,83,1,0,0,response1disk,,7,14,2,1,0,0,rectangle,14,2,1,0,0,14,2,1,0,0,1,122,282,63,1,,,,,,,,
,,,,,,,,,,,,,FF,,,,,,,,1.3032,,,,,,,,,,,,,,,,,,,,,,60ff41a9ef7f2c9d81bd6a63,61037564795380b16069e749,2021-07-29_23h01.04.872,Simcolourproject_2stim_asymm_v5,2020.2.10,Win32,60,61025ae37ef11b136ea224fe,,,,,,,,,4207,56,83,1,0,0,response1disk,,7,2,-19,1,0,0,rectangle,2,-19,1,0,0,2,-19,1,0,0,1,123,283,46,1,,,,,,,,
,,,,,,,,,,,,,FF,,,,,,,,1.0466,,,,,,,,,,,,,,,,,,,,,,60ff41a9ef7f2c9d81bd6a63,61037564795380b16069e749,2021-07-29_23h01.04.872,Simcolourproject_2stim_asymm_v5,2020.2.10,Win32,60,61025ae37ef11b136ea224fe,,,,,,,,,1438,40,57,1,0,0,response1disk,,7,0,-11,1,0,0,rectangle,-130,-50,1,0,0,-22,-1,1,0,0,1,124,284,20,1,,response5disk_3,TRUE,2,2,"[57,74,312,101,207,81,242,268,157,237,224,5,285,195,246,225,36,3,228,241]",1.5163,rectangle
,,,,,,,,,,,,,FF,,,,,,,,1.349,,,,,,,,,,,,,,,,,,,,,,60ff41a9ef7f2c9d81bd6a63,61037564795380b16069e749,2021-07-29_23h01.04.872,Simcolourproject_2stim_asymm_v5,2020.2.10,Win32,60,61025ae37ef11b136ea224fe,,,,,,,,,1598,100,37,1,0,0,response1disk,,6,26,-2,1,0,0,rectangle,26,-2,1,0,0,26,-2,1,0,0,1,125,285,74,1,,,,,,,,
,,,,,,,,,,,,,FF,,,,,,,,0.5165,,,,,,,,,,,,,,,,,,,,,,60ff41a9ef7f2c9d81bd6a63,61037564795380b16069e749,2021-07-29_23h01.04.872,Simcolourproject_2stim_asymm_v5,2020.2.10,Win32,60,61025ae37ef11b136ea224fe,,,,,,,,,2808,84,99,1,0,0,response1disk,,7,22,9,1,0,0,rectangle,22,9,1,0,0,22,9,1,0,0,1,126,286,15,1,,,,,,,,
,,,,,,,,,,,,,FF,,,,,,,,0.5493,,,,,,,,,,,,,,,,,,,,,,60ff41a9ef7f2c9d81bd6a63,61037564795380b16069e749,2021-07-29_23h01.04.872,Simcolourproject_2stim_asymm_v5,2020.2.10,Win32,60,61025ae37ef11b136ea224fe,,,,,,,,,656,68,128,1,0,0,response1disk,,7,22,18,1,0,0,rectangle,22,18,1,0,0,22,18,1,0,0,1,127,287,110,1,,,,,,,,
,,,,,,,,,,,,,FF,,,,,,,,1.3861,,,,,,,,,,,,,,,,,,,,,,60ff41a9ef7f2c9d81bd6a63,61037564795380b16069e749,2021-07-29_23h01.04.872,Simcolourproject_2stim_asymm_v5,2020.2.10,Win32,60,61025ae37ef11b136ea224fe,,,,,,,,,3005,101,41,1,0,0,response1disk,,6,30,6,1,0,0,rectangle,30,6,1,0,0,30,6,1,0,0,1,128,288,65,1,,,,,,,,
,,,,,,,,,,,,,FF,,,,,,,,0.6831,,,,,,,,,,,,,,,,,,,,,,60ff41a9ef7f2c9d81bd6a63,61037564795380b16069e749,2021-07-29_23h01.04.872,Simcolourproject_2stim_asymm_v5,2020.2.10,Win32,60,61025ae37ef11b136ea224fe,,,,,,,,,3679,31,72,1,0,0,response1disk,,7,14,0,1,0,0,rectangle,14,0,1,0,0,14,0,1,0,0,1,129,289,123,1,,,,,,,,
,,,,,,,,,,,,,FF,,,,,,,,1.249,,,,,,,,,,,,,,,,,,,,,,60ff41a9ef7f2c9d81bd6a63,61037564795380b16069e749,2021-07-29_23h01.04.872,Simcolourproject_2stim_asymm_v5,2020.2.10,Win32,60,61025ae37ef11b136ea224fe,,,,,,,,,2424,94,43,1,0,0,response1disk,,6,1,-15,1,0,0,rectangle,1,-15,1,0,0,1,-15,1,0,0,1,130,290,88,1,,,,,,,,
,,,,,,,,,,,,,FF,,,,,,,,0.6662,,,,,,,,,,,,,,,,,,,,,,60ff41a9ef7f2c9d81bd6a63,61037564795380b16069e749,2021-07-29_23h01.04.872,Simcolourproject_2stim_asymm_v5,2020.2.10,Win32,60,61025ae37ef11b136ea224fe,,,,,,,,,330,28,93,1,0,0,response1disk,,7,18,20,1,0,0,rectangle,18,20,1,0,0,18,20,1,0,0,1,131,291,151,1,,,,,,,,
,,,,,,,,,,,,,FF,,,,,,,,0.47,,,,,,,,,,,,,,,,,,,,,,60ff41a9ef7f2c9d81bd6a63,61037564795380b16069e749,2021-07-29_23h01.04.872,Simcolourproject_2stim_asymm_v5,2020.2.10,Win32,60,61025ae37ef11b136ea224fe,,,,,,,,,1952,52,78,1,0,0,response1disk,,7,24,5,1,0,0,rectangle,24,5,1,0,0,24,5,1,0,0,1,132,292,107,1,,,,,,,,
,,,,,,,,,,,,,FF,,,,,,,,1.7991,,,,,,,,,,,,,,,,,,,,,,60ff41a9ef7f2c9d81bd6a63,61037564795380b16069e749,2021-07-29_23h01.04.872,Simcolourproject_2stim_asymm_v5,2020.2.10,Win32,60,61025ae37ef11b136ea224fe,,,,,,,,,3939,80,38,1,0,0,response1disk,,6,34,12,1,0,0,rectangle,34,12,1,0,0,34,12,1,0,0,1,133,293,155,1,,,,,,,,
,,,,,,,,,,,,,FF,,,,,,,,0.6802,,,,,,,,,,,,,,,,,,,,,,60ff41a9ef7f2c9d81bd6a63,61037564795380b16069e749,2021-07-29_23h01.04.872,Simcolourproject_2stim_asymm_v5,2020.2.10,Win32,60,61025ae37ef11b136ea224fe,,,,,,,,,384,33,68,1,0,0,response1disk,,7,9,-1,1,0,0,rectangle,9,-1,1,0,0,9,-1,1,0,0,1,134,294,159,1,,,,,,,,
,,,,,,,,,,,,,FF,,,,,,,,1.7319,,,,,,,,,,,,,,,,,,,,,,60ff41a9ef7f2c9d81bd6a63,61037564795380b16069e749,2021-07-29_23h01.04.872,Simcolourproject_2stim_asymm_v5,2020.2.10,Win32,60,61025ae37ef11b136ea224fe,,,,,,,,,3744,71,-81,1,0,0,response3disk,,4,36,-12,1,0,0,rectangle,36,-12,1,0,0,36,-12,1,0,0,1,135,295,59,1,,,,,,,,
,,,,,,,,,,,,,FF,,,,,,,,1.9492,,,,,,,,,,,,,,,,,,,,,,60ff41a9ef7f2c9d81bd6a63,61037564795380b16069e749,2021-07-29_23h01.04.872,Simcolourproject_2stim_asymm_v5,2020.2.10,Win32,60,61025ae37ef11b136ea224fe,,,,,,,,,3643,80,106,1,0,0,response1disk,,7,0,12,1,0,0,rectangle,0,12,1,0,0,0,12,1,0,0,1,136,296,127,1,,,,,,,,
,,,,,,,,,,,,,FF,,,,,,,,0.5666,,,,,,,,,,,,,,,,,,,,,,60ff41a9ef7f2c9d81bd6a63,61037564795380b16069e749,2021-07-29_23h01.04.872,Simcolourproject_2stim_asymm_v5,2020.2.10,Win32,60,61025ae37ef11b136ea224fe,,,,,,,,,4276,44,88,1,0,0,response1disk,,7,3,-3,1,0,0,rectangle,3,-3,1,0,0,3,-3,1,0,0,1,137,297,47,1,,,,,,,,
,,,,,,,,,,,,,FF,,,,,,,,1.5125,,,,,,,,,,,,,,,,,,,,,,60ff41a9ef7f2c9d81bd6a63,61037564795380b16069e749,2021-07-29_23h01.04.872,Simcolourproject_2stim_asymm_v5,2020.2.10,Win32,60,61025ae37ef11b136ea224fe,,,,,,,,,1757,117,-65,1,0,0,response3disk,,5,29,-7,1,0,0,rectangle,29,-7,1,0,0,29,-7,1,0,0,1,138,298,23,1,,,,,,,,
,,,,,,,,,,,,,FF,,,,,,,,0.9161,,,,,,,,,,,,,,,,,,,,,,60ff41a9ef7f2c9d81bd6a63,61037564795380b16069e749,2021-07-29_23h01.04.872,Simcolourproject_2stim_asymm_v5,2020.2.10,Win32,60,61025ae37ef11b136ea224fe,,,,,,,,,2845,36,97,1,0,0,response1disk,,7,-37,10,1,0,0,rectangle,-37,10,1,0,0,-37,10,1,0,0,1,139,299,28,1,,,,,,,,
,,,,,,,,,,,,,FF,,,,,,,,0.6263,,,,,,,,,,,,,,,,,,,,,,60ff41a9ef7f2c9d81bd6a63,61037564795380b16069e749,2021-07-29_23h01.04.872,Simcolourproject_2stim_asymm_v5,2020.2.10,Win32,60,61025ae37ef11b136ea224fe,,,,,,,,,2441,38,110,1,0,0,response1disk,,7,0,6,1,0,0,rectangle,0,6,1,0,0,0,6,1,0,0,1,140,300,67,1,,,,,,,,
,,,,,,,,,,,,,FF,,,,,,,,1.1628,,,,,,,,,,,,,,,,,,,,,,60ff41a9ef7f2c9d81bd6a63,61037564795380b16069e749,2021-07-29_23h01.04.872,Simcolourproject_2stim_asymm_v5,2020.2.10,Win32,60,61025ae37ef11b136ea224fe,,,,,,,,,2831,-82,37,1,0,0,response7disk,,1,8,12,1,0,0,rectangle,8,12,1,0,0,8,12,1,0,0,1,141,301,79,1,,,,,,,,
,,,,,,,,,,,,,FF,,,,,,,,0.4995,,,,,,,,,,,,,,,,,,,,,,60ff41a9ef7f2c9d81bd6a63,61037564795380b16069e749,2021-07-29_23h01.04.872,Simcolourproject_2stim_asymm_v5,2020.2.10,Win32,60,61025ae37ef11b136ea224fe,,,,,,,,,579,66,111,1,0,0,response1disk,,7,-12,0,1,0,0,rectangle,-12,0,1,0,0,-12,0,1,0,0,1,142,302,111,1,,,,,,,,
