key_resp.keys,key_resp.rt,key_resp_14.keys,key_resp_14.rt,key_resp_15.keys,key_resp_15.rt,key_resp_17.keys,key_resp_17.rt,key_resp_9.keys,key_resp_9.rt,key_resp_10.keys,key_resp_10.rt,practice_comparison,Ecc,mouse_5.x,mouse_5.y,mouse_5.leftButton,mouse_5.midButton,mouse_5.rightButton,mouse_5.clicked_name,pracsimilarity,response_time,mouse_10.x,mouse_10.y,mouse_10.leftButton,mouse_10.midButton,mouse_10.rightButton,mouse_10.clicked_name,mouse_7.x,mouse_7.y,mouse_7.leftButton,mouse_7.midButton,mouse_7.rightButton,mouse_6.x,mouse_6.y,mouse_6.leftButton,mouse_6.midButton,mouse_6.rightButton,duringprac.thisRepN,duringprac.thisTrialN,duringprac.thisN,duringprac.thisIndex,duringprac.ran,participant,session,date,expName,psychopyVersion,OS,frameRate,study_id,mouse_7.clicked_name,catchpracsimilarity,catch_response_time,catchnumberprac,catchtrialorderprac,mouse_6.clicked_name,key_resp_22.keys,key_resp_22.rt,realcomparison,mouse.x,mouse.y,mouse.leftButton,mouse.midButton,mouse.rightButton,mouse.clicked_name,Colour2,similarity,mouse_2.x,mouse_2.y,mouse_2.leftButton,mouse_2.midButton,mouse_2.rightButton,mouse_2.clicked_name,mouse_3.x,mouse_3.y,mouse_3.leftButton,mouse_3.midButton,mouse_3.rightButton,mouse_11.x,mouse_11.y,mouse_11.leftButton,mouse_11.midButton,mouse_11.rightButton,trials_2.thisRepN,trials_2.thisTrialN,trials_2.thisN,trials_2.thisIndex,trials_2.ran,Colour1,mouse_3.clicked_name,catchornah,catchsimilarity,catchnumber,catchtrialorder,catchRT,mouse_11.clicked_name
space,1.0692,space,21.5312,space,23.4922,space,9.1545,space,1.2369,space,5.286,64,PF,84.80001271,-37.600007,1,0,0,response3disk_5,5,12.6825,8.800011575,3.19999361,1,0,0,rectangle_8,8.800011575,3.19999361,1,0,0,8.800011575,3.19999361,1,0,0,0,0,0,6,1,60ff5cdcb618e75bb04533a9,61036c99aab5ee4ae6f6b151,2021-07-29_23h06.23.144,Simcolourproject_2stim_asymm_v5,2020.2.10,Win32,60,61025ae37ef11b136ea224fe,,,,,,,,,,,,,,,,,,,,,,,,,,,,,,,,,,,,,,,,,,,,,,
,,,,,,,,,,,,109,PF,-57.59998941,89.5999949,1,0,0,response7disk_5,0,2.4235,12.00001162,4.799993634,1,0,0,rectangle_8,97.6000129,49.5999943,1,0,0,1.14441E-05,5.599993646,1,0,0,0,1,1,4,1,60ff5cdcb618e75bb04533a9,61036c99aab5ee4ae6f6b151,2021-07-29_23h06.23.144,Simcolourproject_2stim_asymm_v5,2020.2.10,Win32,60,61025ae37ef11b136ea224fe,response1disk_7,6,3.1811,6,"[2,5]",rectangle_4,,,,,,,,,,,,,,,,,,,,,,,,,,,,,,,,,,,,,,,,
,,,,,,,,,,,,74,FF,60.80001235,75.9999947,1,0,0,response1disk_5,7,1.4228,3.200011492,9.599993706,1,0,0,rectangle_8,3.200011492,9.599993706,1,0,0,3.200011492,9.599993706,1,0,0,0,2,2,3,1,60ff5cdcb618e75bb04533a9,61036c99aab5ee4ae6f6b151,2021-07-29_23h06.23.144,Simcolourproject_2stim_asymm_v5,2020.2.10,Win32,60,61025ae37ef11b136ea224fe,,,,,,,,,,,,,,,,,,,,,,,,,,,,,,,,,,,,,,,,,,,,,,
,,,,,,,,,,,,86,PF,38.40001202,89.5999949,1,0,0,response1disk_5,7,1.0686,-3.199988604,-8.000006557,1,0,0,rectangle_8,-3.199988604,-8.000006557,1,0,0,-3.199988604,-8.000006557,1,0,0,0,3,3,2,1,60ff5cdcb618e75bb04533a9,61036c99aab5ee4ae6f6b151,2021-07-29_23h06.23.144,Simcolourproject_2stim_asymm_v5,2020.2.10,Win32,60,61025ae37ef11b136ea224fe,,,,,,,,,,,,,,,,,,,,,,,,,,,,,,,,,,,,,,,,,,,,,,
,,,,,,,,,,,,55,FF,56.80001229,119.9999954,1,0,0,response1disk_5,7,1.2083,-3.999988616,0.799993575,1,0,0,rectangle_8,86.40001273,31.19996961,1,0,0,4.000011504,2.399993598,1,0,0,0,4,4,5,1,60ff5cdcb618e75bb04533a9,61036c99aab5ee4ae6f6b151,2021-07-29_23h06.23.144,Simcolourproject_2stim_asymm_v5,2020.2.10,Win32,60,61025ae37ef11b136ea224fe,response1disk_7,6,2.2218,6,"[2,5]",rectangle_4,,,,,,,,,,,,,,,,,,,,,,,,,,,,,,,,,,,,,,,,
,,,,,,,,,,,,53,PF,44.0000121,-62.40000737,1,0,0,response3disk_5,4,2.4722,-0.799988568,0.799993575,1,0,0,rectangle_8,-0.799988568,0.799993575,1,0,0,-0.799988568,0.799993575,1,0,0,0,5,5,1,1,60ff5cdcb618e75bb04533a9,61036c99aab5ee4ae6f6b151,2021-07-29_23h06.23.144,Simcolourproject_2stim_asymm_v5,2020.2.10,Win32,60,61025ae37ef11b136ea224fe,,,,,,,,,,,,,,,,,,,,,,,,,,,,,,,,,,,,,,,,,,,,,,
,,,,,,,,,,,,96,FF,121.6000133,-64.8000074,1,0,0,response3disk_5,5,5.0274,-2.399939764,-0.800006449,1,0,0,rectangle_8,-2.399939764,-0.800006449,1,0,0,-2.399939764,-0.800006449,1,0,0,0,6,6,0,1,60ff5cdcb618e75bb04533a9,61036c99aab5ee4ae6f6b151,2021-07-29_23h06.23.144,Simcolourproject_2stim_asymm_v5,2020.2.10,Win32,60,61025ae37ef11b136ea224fe,,,,,,,,,,,,,,,,,,,,,,,,,,,,,,,,,,,,,,,,,,,,,,
,,,,,,,,,,,,,FF,,,,,,,,1.2555,,,,,,,,,,,,,,,,,,,,,,60ff5cdcb618e75bb04533a9,61036c99aab5ee4ae6f6b151,2021-07-29_23h06.23.144,Simcolourproject_2stim_asymm_v5,2020.2.10,Win32,60,61025ae37ef11b136ea224fe,,,,,,,space,16.6234,1710,56.80001229,83.19997039,1,0,0,response1disk,,7,7.200011551,-2.400006473,1,0,0,rectangle,7.200011551,-2.400006473,1,0,0,7.200011551,-2.400006473,1,0,0,0,0,0,43,1,,,,,,,,
,,,,,,,,,,,,,FF,,,,,,,,11.9446,,,,,,,,,,,,,,,,,,,,,,60ff5cdcb618e75bb04533a9,61036c99aab5ee4ae6f6b151,2021-07-29_23h06.23.144,Simcolourproject_2stim_asymm_v5,2020.2.10,Win32,60,61025ae37ef11b136ea224fe,,,,,,,,,432,113.6000131,83.99999481,1,0,0,response1disk,,6,-0.799988568,-5.600006521,1,0,0,rectangle,-0.799988568,-5.600006521,1,0,0,-0.799988568,-5.600006521,1,0,0,0,1,1,41,1,,,,,,,,
,,,,,,,,,,,,,FF,,,,,,,,0.9583,,,,,,,,,,,,,,,,,,,,,,60ff5cdcb618e75bb04533a9,61036c99aab5ee4ae6f6b151,2021-07-29_23h06.23.144,Simcolourproject_2stim_asymm_v5,2020.2.10,Win32,60,61025ae37ef11b136ea224fe,,,,,,,,,1067,48.80001217,75.19997027,1,0,0,response1disk,,7,-11.19998872,4.799993634,1,0,0,rectangle,-11.19998872,4.799993634,1,0,0,-11.19998872,4.799993634,1,0,0,0,2,2,146,1,,,,,,,,
,,,,,,,,,,,,,FF,,,,,,,,0.8328,,,,,,,,,,,,,,,,,,,,,,60ff5cdcb618e75bb04533a9,61036c99aab5ee4ae6f6b151,2021-07-29_23h06.23.144,Simcolourproject_2stim_asymm_v5,2020.2.10,Win32,60,61025ae37ef11b136ea224fe,,,,,,,,,2514,47.20001215,91.99999493,1,0,0,response1disk,,7,-13.59998876,2.399993598,1,0,0,rectangle,-13.59998876,2.399993598,1,0,0,-13.59998876,2.399993598,1,0,0,0,3,3,142,1,,,,,,,,
,,,,,,,,,,,,,FF,,,,,,,,3.131,,,,,,,,,,,,,,,,,,,,,,60ff5cdcb618e75bb04533a9,61036c99aab5ee4ae6f6b151,2021-07-29_23h06.23.144,Simcolourproject_2stim_asymm_v5,2020.2.10,Win32,60,61025ae37ef11b136ea224fe,,,,,,,,,549,117.6000132,-70.40000749,1,0,0,response3disk,,5,-3.999988616,-5.600006521,1,0,0,rectangle,-3.999988616,-5.600006521,1,0,0,-3.999988616,-5.600006521,1,0,0,0,4,4,121,1,,,,,,,,
,,,,,,,,,,,,,FF,,,,,,,,1.014,,,,,,,,,,,,,,,,,,,,,,60ff5cdcb618e75bb04533a9,61036c99aab5ee4ae6f6b151,2021-07-29_23h06.23.144,Simcolourproject_2stim_asymm_v5,2020.2.10,Win32,60,61025ae37ef11b136ea224fe,,,,,,,,,2540,52.80001223,71.99999464,1,0,0,response1disk,,7,-3.999988616,-5.600006521,1,0,0,rectangle,-3.999988616,-5.600006521,1,0,0,-3.999988616,-5.600006521,1,0,0,0,5,5,60,1,,,,,,,,
,,,,,,,,,,,,,FF,,,,,,,,0.8326,,,,,,,,,,,,,,,,,,,,,,60ff5cdcb618e75bb04533a9,61036c99aab5ee4ae6f6b151,2021-07-29_23h06.23.144,Simcolourproject_2stim_asymm_v5,2020.2.10,Win32,60,61025ae37ef11b136ea224fe,,,,,,,,,3017,34.40001196,79.19997033,1,0,0,response1disk,,7,1.14441E-05,-7.200006545,1,0,0,rectangle,1.14441E-05,-7.200006545,1,0,0,1.14441E-05,-7.200006545,1,0,0,0,6,6,125,1,,,,,,,,
,,,,,,,,,,,,,FF,,,,,,,,1.3812,,,,,,,,,,,,,,,,,,,,,,60ff5cdcb618e75bb04533a9,61036c99aab5ee4ae6f6b151,2021-07-29_23h06.23.144,Simcolourproject_2stim_asymm_v5,2020.2.10,Win32,60,61025ae37ef11b136ea224fe,,,,,,,,,1334,37.60006083,106.3999951,1,0,0,response1disk,,7,14.40001166,12.79999375,1,0,0,rectangle,14.40001166,12.79999375,1,0,0,14.40001166,12.79999375,1,0,0,0,7,7,3,1,,,,,,,,
,,,,,,,,,,,,,FF,,,,,,,,1.4859,,,,,,,,,,,,,,,,,,,,,,60ff5cdcb618e75bb04533a9,61036c99aab5ee4ae6f6b151,2021-07-29_23h06.23.144,Simcolourproject_2stim_asymm_v5,2020.2.10,Win32,60,61025ae37ef11b136ea224fe,,,,,,,,,200,86.40001273,46.39999425,1,0,0,response1disk,,6,-7.199988663,13.59999377,1,0,0,rectangle,-7.199988663,13.59999377,1,0,0,-7.199988663,13.59999377,1,0,0,0,8,8,72,1,,,,,,,,
,,,,,,,,,,,,,FF,,,,,,,,1.9826,,,,,,,,,,,,,,,,,,,,,,60ff5cdcb618e75bb04533a9,61036c99aab5ee4ae6f6b151,2021-07-29_23h06.23.144,Simcolourproject_2stim_asymm_v5,2020.2.10,Win32,60,61025ae37ef11b136ea224fe,,,,,,,,,2062,64.80001241,83.99999481,1,0,0,response1disk,,7,10.4000116,-8.800006568,1,0,0,rectangle,10.4000116,-8.800006568,1,0,0,10.4000116,-8.800006568,1,0,0,0,9,9,52,1,,,,,,,,
,,,,,,,,,,,,,FF,,,,,,,,0.8191,,,,,,,,,,,,,,,,,,,,,,60ff5cdcb618e75bb04533a9,61036c99aab5ee4ae6f6b151,2021-07-29_23h06.23.144,Simcolourproject_2stim_asymm_v5,2020.2.10,Win32,60,61025ae37ef11b136ea224fe,,,,,,,,,1638,32.00001192,72.79999465,1,0,0,response1disk,,7,4.800011516,0.799993575,1,0,0,rectangle,4.800011516,0.799993575,1,0,0,4.800011516,0.799993575,1,0,0,0,10,10,135,1,,,,,,,,
,,,,,,,,,,,,,FF,,,,,,,,0.9236,,,,,,,,,,,,,,,,,,,,,,60ff5cdcb618e75bb04533a9,61036c99aab5ee4ae6f6b151,2021-07-29_23h06.23.144,Simcolourproject_2stim_asymm_v5,2020.2.10,Win32,60,61025ae37ef11b136ea224fe,,,,,,,,,527,68.00001246,36.79999411,1,0,0,response1disk,,6,-17.59998882,-14.40000665,1,0,0,rectangle,-17.59998882,-14.40000665,1,0,0,-17.59998882,-14.40000665,1,0,0,0,11,11,119,1,,,,,,,,
,,,,,,,,,,,,,FF,,,,,,,,0.8884,,,,,,,,,,,,,,,,,,,,,,60ff5cdcb618e75bb04533a9,61036c99aab5ee4ae6f6b151,2021-07-29_23h06.23.144,Simcolourproject_2stim_asymm_v5,2020.2.10,Win32,60,61025ae37ef11b136ea224fe,,,,,,,,,841,18.40001172,79.19997033,1,0,0,response1disk,,7,5.600060356,-10.40000659,1,0,0,rectangle,5.600060356,-10.40000659,1,0,0,5.600060356,-10.40000659,1,0,0,0,12,12,137,1,,,,,,,,
,,,,,,,,,,,,,FF,,,,,,,,1.0763,,,,,,,,,,,,,,,,,,,,,,60ff5cdcb618e75bb04533a9,61036c99aab5ee4ae6f6b151,2021-07-29_23h06.23.144,Simcolourproject_2stim_asymm_v5,2020.2.10,Win32,60,61025ae37ef11b136ea224fe,,,,,,,,,1997,43.20001209,110.3999952,1,0,0,response1disk,,7,9.600060415,9.599993706,1,0,0,rectangle,9.600060415,9.599993706,1,0,0,9.600060415,9.599993706,1,0,0,0,13,13,2,1,,,,,,,,
,,,,,,,,,,,,,FF,,,,,,,,0.8469,,,,,,,,,,,,,,,,,,,,,,60ff5cdcb618e75bb04533a9,61036c99aab5ee4ae6f6b151,2021-07-29_23h06.23.144,Simcolourproject_2stim_asymm_v5,2020.2.10,Win32,60,61025ae37ef11b136ea224fe,,,,,,,,,1839,48.80001217,28.79999399,1,0,0,response1disk,,6,7.200011551,5.599993646,1,0,0,rectangle,7.200011551,5.599993646,1,0,0,7.200011551,5.599993646,1,0,0,0,14,14,97,1,,,,,,,,
,,,,,,,,,,,,,FF,,,,,,,,0.6559,,,,,,,,,,,,,,,,,,,,,,60ff5cdcb618e75bb04533a9,61036c99aab5ee4ae6f6b151,2021-07-29_23h06.23.144,Simcolourproject_2stim_asymm_v5,2020.2.10,Win32,60,61025ae37ef11b136ea224fe,,,,,,,,,3502,46.40001214,59.99999446,1,0,0,response1disk,,7,19.20001173,10.39999372,1,0,0,rectangle,19.20001173,10.39999372,1,0,0,19.20001173,10.39999372,1,0,0,0,15,15,83,1,,,,,,,,
,,,,,,,,,,,,,FF,,,,,,,,0.8437,,,,,,,,,,,,,,,,,,,,,,60ff5cdcb618e75bb04533a9,61036c99aab5ee4ae6f6b151,2021-07-29_23h06.23.144,Simcolourproject_2stim_asymm_v5,2020.2.10,Win32,60,61025ae37ef11b136ea224fe,,,,,,,,,2085,44.80001211,77.59999472,1,0,0,response1disk,,7,12.80001163,15.9999938,1,0,0,rectangle,12.80001163,15.9999938,1,0,0,12.80001163,15.9999938,1,0,0,0,16,16,15,1,,,,,,,,
,,,,,,,,,,,,,FF,,,,,,,,1.3882,,,,,,,,,,,,,,,,,,,,,,60ff5cdcb618e75bb04533a9,61036c99aab5ee4ae6f6b151,2021-07-29_23h06.23.144,Simcolourproject_2stim_asymm_v5,2020.2.10,Win32,60,61025ae37ef11b136ea224fe,,,,,,,,,2094,76.00001258,-27.20000684,1,0,0,response3disk,,5,-3.199988604,5.599993646,1,0,0,rectangle,54.40001225,135.1999712,1,0,0,6.400011539,-2.400006473,1,0,0,0,17,17,85,1,,response1disk_3,TRUE,7,7,"[91,163,176,178,133,202,137,18,128,81,87,125,275,274,282,126,108,65,125,179]",1.9646,rectangle
,,,,,,,,,,,,,FF,,,,,,,,4.0591,,,,,,,,,,,,,,,,,,,,,,60ff5cdcb618e75bb04533a9,61036c99aab5ee4ae6f6b151,2021-07-29_23h06.23.144,Simcolourproject_2stim_asymm_v5,2020.2.10,Win32,60,61025ae37ef11b136ea224fe,,,,,,,,,3454,81.60001266,79.99999475,1,0,0,response1disk,,6,8.000011563,-6.4373E-06,1,0,0,rectangle,8.000011563,-6.4373E-06,1,0,0,8.000011563,-6.4373E-06,1,0,0,0,18,18,120,1,,,,,,,,
,,,,,,,,,,,,,FF,,,,,,,,0.8813,,,,,,,,,,,,,,,,,,,,,,60ff5cdcb618e75bb04533a9,61036c99aab5ee4ae6f6b151,2021-07-29_23h06.23.144,Simcolourproject_2stim_asymm_v5,2020.2.10,Win32,60,61025ae37ef11b136ea224fe,,,,,,,,,3152,103.200013,56.79999441,1,0,0,response1disk,,6,-6.399939823,8.799993694,1,0,0,rectangle,-6.399939823,8.799993694,1,0,0,-6.399939823,8.799993694,1,0,0,0,19,19,96,1,,,,,,,,
,,,,,,,,,,,,,FF,,,,,,,,1.1387,,,,,,,,,,,,,,,,,,,,,,60ff5cdcb618e75bb04533a9,61036c99aab5ee4ae6f6b151,2021-07-29_23h06.23.144,Simcolourproject_2stim_asymm_v5,2020.2.10,Win32,60,61025ae37ef11b136ea224fe,,,,,,,,,1369,68.80001247,39.19996973,1,0,0,response1disk,,6,-7.199988663,-16.80000669,1,0,0,rectangle,-7.199988663,-16.80000669,1,0,0,-7.199988663,-16.80000669,1,0,0,0,20,20,123,1,,,,,,,,
,,,,,,,,,,,,,FF,,,,,,,,0.7289,,,,,,,,,,,,,,,,,,,,,,60ff5cdcb618e75bb04533a9,61036c99aab5ee4ae6f6b151,2021-07-29_23h06.23.144,Simcolourproject_2stim_asymm_v5,2020.2.10,Win32,60,61025ae37ef11b136ea224fe,,,,,,,,,3637,69.60001248,32.79999405,1,0,0,response1disk,,6,20.00001174,0.799993575,1,0,0,rectangle,20.00001174,0.799993575,1,0,0,20.00001174,0.799993575,1,0,0,0,21,21,84,1,,,,,,,,
,,,,,,,,,,,,,FF,,,,,,,,0.7916,,,,,,,,,,,,,,,,,,,,,,60ff5cdcb618e75bb04533a9,61036c99aab5ee4ae6f6b151,2021-07-29_23h06.23.144,Simcolourproject_2stim_asymm_v5,2020.2.10,Win32,60,61025ae37ef11b136ea224fe,,,,,,,,,4267,74.40001255,36.79999411,1,0,0,response1disk,,6,21.60006059,3.999993622,1,0,0,rectangle,21.60006059,3.999993622,1,0,0,21.60006059,3.999993622,1,0,0,0,22,22,69,1,,,,,,,,
,,,,,,,,,,,,,FF,,,,,,,,0.5733,,,,,,,,,,,,,,,,,,,,,,60ff5cdcb618e75bb04533a9,61036c99aab5ee4ae6f6b151,2021-07-29_23h06.23.144,Simcolourproject_2stim_asymm_v5,2020.2.10,Win32,60,61025ae37ef11b136ea224fe,,,,,,,,,2213,44.0000121,91.99999493,1,0,0,response1disk,,7,2.40001148,3.999993622,1,0,0,rectangle,2.40001148,3.999993622,1,0,0,2.40001148,3.999993622,1,0,0,0,23,23,20,1,,,,,,,,
,,,,,,,,,,,,,FF,,,,,,,,0.6598,,,,,,,,,,,,,,,,,,,,,,60ff5cdcb618e75bb04533a9,61036c99aab5ee4ae6f6b151,2021-07-29_23h06.23.144,Simcolourproject_2stim_asymm_v5,2020.2.10,Win32,60,61025ae37ef11b136ea224fe,,,,,,,,,394,58.40001231,32.79999405,1,0,0,response1disk,,6,30.4000119,16.79999381,1,0,0,rectangle,30.4000119,16.79999381,1,0,0,30.4000119,16.79999381,1,0,0,0,24,24,133,1,,,,,,,,
,,,,,,,,,,,,,FF,,,,,,,,0.764,,,,,,,,,,,,,,,,,,,,,,60ff5cdcb618e75bb04533a9,61036c99aab5ee4ae6f6b151,2021-07-29_23h06.23.144,Simcolourproject_2stim_asymm_v5,2020.2.10,Win32,60,61025ae37ef11b136ea224fe,,,,,,,,,1994,39.20001203,103.9999951,1,0,0,response1disk,,7,10.4000116,-6.400006533,1,0,0,rectangle,10.4000116,-6.400006533,1,0,0,10.4000116,-6.400006533,1,0,0,0,25,25,148,1,,,,,,,,
,,,,,,,,,,,,,FF,,,,,,,,1.0831,,,,,,,,,,,,,,,,,,,,,,60ff5cdcb618e75bb04533a9,61036c99aab5ee4ae6f6b151,2021-07-29_23h06.23.144,Simcolourproject_2stim_asymm_v5,2020.2.10,Win32,60,61025ae37ef11b136ea224fe,,,,,,,,,2025,-33.59998906,73.59999466,1,0,0,response7disk,,0,-5.599988639,11.19999373,1,0,0,rectangle,-5.599988639,11.19999373,1,0,0,-5.599988639,11.19999373,1,0,0,0,26,26,45,1,,,,,,,,
,,,,,,,,,,,,,FF,,,,,,,,0.5514,,,,,,,,,,,,,,,,,,,,,,60ff5cdcb618e75bb04533a9,61036c99aab5ee4ae6f6b151,2021-07-29_23h06.23.144,Simcolourproject_2stim_asymm_v5,2020.2.10,Win32,60,61025ae37ef11b136ea224fe,,,,,,,,,593,42.40001208,99.99999505,1,0,0,response1disk,,7,6.400011539,-3.200006485,1,0,0,rectangle,6.400011539,-3.200006485,1,0,0,6.400011539,-3.200006485,1,0,0,0,27,27,12,1,,,,,,,,
,,,,,,,,,,,,,FF,,,,,,,,0.9792,,,,,,,,,,,,,,,,,,,,,,60ff5cdcb618e75bb04533a9,61036c99aab5ee4ae6f6b151,2021-07-29_23h06.23.144,Simcolourproject_2stim_asymm_v5,2020.2.10,Win32,60,61025ae37ef11b136ea224fe,,,,,,,,,4346,81.60001266,-28.00000685,1,0,0,response3disk,,5,13.60006047,7.999993682,1,0,0,rectangle,13.60006047,7.999993682,1,0,0,13.60006047,7.999993682,1,0,0,0,28,28,0,1,,,,,,,,
,,,,,,,,,,,,,FF,,,,,,,,0.5972,,,,,,,,,,,,,,,,,,,,,,60ff5cdcb618e75bb04533a9,61036c99aab5ee4ae6f6b151,2021-07-29_23h06.23.144,Simcolourproject_2stim_asymm_v5,2020.2.10,Win32,60,61025ae37ef11b136ea224fe,,,,,,,,,1511,36.80001199,71.19997021,1,0,0,response1disk,,7,8.800011575,8.799993694,1,0,0,rectangle,8.800011575,8.799993694,1,0,0,8.800011575,8.799993694,1,0,0,0,29,29,56,1,,,,,,,,
,,,,,,,,,,,,,FF,,,,,,,,0.7015,,,,,,,,,,,,,,,,,,,,,,60ff5cdcb618e75bb04533a9,61036c99aab5ee4ae6f6b151,2021-07-29_23h06.23.144,Simcolourproject_2stim_asymm_v5,2020.2.10,Win32,60,61025ae37ef11b136ea224fe,,,,,,,,,3265,39.20001203,84.79999483,1,0,0,response1disk,,7,5.600060356,-5.600006521,1,0,0,rectangle,5.600060356,-5.600006521,1,0,0,5.600060356,-5.600006521,1,0,0,0,30,30,124,1,,,,,,,,
,,,,,,,,,,,,,FF,,,,,,,,0.7498,,,,,,,,,,,,,,,,,,,,,,60ff5cdcb618e75bb04533a9,61036c99aab5ee4ae6f6b151,2021-07-29_23h06.23.144,Simcolourproject_2stim_asymm_v5,2020.2.10,Win32,60,61025ae37ef11b136ea224fe,,,,,,,,,1846,36.00001198,94.39999497,1,0,0,response1disk,,7,0.800011456,10.39999372,1,0,0,rectangle,0.800011456,10.39999372,1,0,0,0.800011456,10.39999372,1,0,0,0,31,31,149,1,,,,,,,,
,,,,,,,,,,,,,FF,,,,,,,,0.8954,,,,,,,,,,,,,,,,,,,,,,60ff5cdcb618e75bb04533a9,61036c99aab5ee4ae6f6b151,2021-07-29_23h06.23.144,Simcolourproject_2stim_asymm_v5,2020.2.10,Win32,60,61025ae37ef11b136ea224fe,,,,,,,,,3611,21.60006059,88.79999489,1,0,0,response1disk,,7,1.14441E-05,12.79999375,1,0,0,rectangle,1.14441E-05,12.79999375,1,0,0,1.14441E-05,12.79999375,1,0,0,0,32,32,131,1,,,,,,,,
,,,,,,,,,,,,,FF,,,,,,,,0.6243,,,,,,,,,,,,,,,,,,,,,,60ff5cdcb618e75bb04533a9,61036c99aab5ee4ae6f6b151,2021-07-29_23h06.23.144,Simcolourproject_2stim_asymm_v5,2020.2.10,Win32,60,61025ae37ef11b136ea224fe,,,,,,,,,31,30.4000119,79.19997033,1,0,0,response1disk,,7,3.200011492,2.399993598,1,0,0,rectangle,3.200011492,2.399993598,1,0,0,3.200011492,2.399993598,1,0,0,0,33,33,78,1,,,,,,,,
,,,,,,,,,,,,,FF,,,,,,,,0.625,,,,,,,,,,,,,,,,,,,,,,60ff5cdcb618e75bb04533a9,61036c99aab5ee4ae6f6b151,2021-07-29_23h06.23.144,Simcolourproject_2stim_asymm_v5,2020.2.10,Win32,60,61025ae37ef11b136ea224fe,,,,,,,,,315,30.4000119,83.99999481,1,0,0,response1disk,,7,-7.999988675,11.19999373,1,0,0,rectangle,-7.999988675,11.19999373,1,0,0,-7.999988675,11.19999373,1,0,0,0,34,34,82,1,,,,,,,,
,,,,,,,,,,,,,FF,,,,,,,,0.4234,,,,,,,,,,,,,,,,,,,,,,60ff5cdcb618e75bb04533a9,61036c99aab5ee4ae6f6b151,2021-07-29_23h06.23.144,Simcolourproject_2stim_asymm_v5,2020.2.10,Win32,60,61025ae37ef11b136ea224fe,,,,,,,,,2951,32.00001192,60.79999447,1,0,0,response1disk,,7,4.000011504,-9.60000658,1,0,0,rectangle,4.000011504,-9.60000658,1,0,0,4.000011504,-9.60000658,1,0,0,0,35,35,13,1,,,,,,,,
,,,,,,,,,,,,,FF,,,,,,,,0.3332,,,,,,,,,,,,,,,,,,,,,,60ff5cdcb618e75bb04533a9,61036c99aab5ee4ae6f6b151,2021-07-29_23h06.23.144,Simcolourproject_2stim_asymm_v5,2020.2.10,Win32,60,61025ae37ef11b136ea224fe,,,,,,,,,86,35.20001197,52.79999435,1,0,0,response1disk,,7,6.400011539,0.799993575,1,0,0,rectangle,6.400011539,0.799993575,1,0,0,6.400011539,0.799993575,1,0,0,0,36,36,106,1,,,,,,,,
,,,,,,,,,,,,,FF,,,,,,,,0.7914,,,,,,,,,,,,,,,,,,,,,,60ff5cdcb618e75bb04533a9,61036c99aab5ee4ae6f6b151,2021-07-29_23h06.23.144,Simcolourproject_2stim_asymm_v5,2020.2.10,Win32,60,61025ae37ef11b136ea224fe,,,,,,,,,2775,-33.59998906,91.99999493,1,0,0,response7disk,,0,22.40001178,-0.800006449,1,0,0,rectangle,22.40001178,-0.800006449,1,0,0,22.40001178,-0.800006449,1,0,0,0,37,37,134,1,,,,,,,,
,,,,,,,,,,,,,FF,,,,,,,,0.7986,,,,,,,,,,,,,,,,,,,,,,60ff5cdcb618e75bb04533a9,61036c99aab5ee4ae6f6b151,2021-07-29_23h06.23.144,Simcolourproject_2stim_asymm_v5,2020.2.10,Win32,60,61025ae37ef11b136ea224fe,,,,,,,,,3009,28.80001187,94.39999497,1,0,0,response1disk,,7,0.800011456,-1.600006461,1,0,0,rectangle,0.800011456,-1.600006461,1,0,0,0.800011456,-1.600006461,1,0,0,0,38,38,118,1,,,,,,,,
,,,,,,,,,,,,,FF,,,,,,,,0.951,,,,,,,,,,,,,,,,,,,,,,60ff5cdcb618e75bb04533a9,61036c99aab5ee4ae6f6b151,2021-07-29_23h06.23.144,Simcolourproject_2stim_asymm_v5,2020.2.10,Win32,60,61025ae37ef11b136ea224fe,,,,,,,,,3475,84.0000127,-56.00000727,1,0,0,response3disk,,5,7.200011551,7.19999367,1,0,0,rectangle,7.200011551,7.19999367,1,0,0,7.200011551,7.19999367,1,0,0,0,39,39,53,1,,,,,,,,
,,,,,,,,,,,,,FF,,,,,,,,0.9653,,,,,,,,,,,,,,,,,,,,,,60ff5cdcb618e75bb04533a9,61036c99aab5ee4ae6f6b151,2021-07-29_23h06.23.144,Simcolourproject_2stim_asymm_v5,2020.2.10,Win32,60,61025ae37ef11b136ea224fe,,,,,,,,,2999,77.6000126,-33.60000694,1,0,0,response3disk,,5,20.00001174,3.999993622,1,0,0,rectangle,20.00001174,3.999993622,1,0,0,20.00001174,3.999993622,1,0,0,0,40,40,107,1,,,,,,,,
,,,,,,,,,,,,,FF,,,,,,,,0.5348,,,,,,,,,,,,,,,,,,,,,,60ff5cdcb618e75bb04533a9,61036c99aab5ee4ae6f6b151,2021-07-29_23h06.23.144,Simcolourproject_2stim_asymm_v5,2020.2.10,Win32,60,61025ae37ef11b136ea224fe,,,,,,,,,3926,33.60006077,72.79999465,1,0,0,response1disk,,7,5.600060356,-8.000006557,1,0,0,rectangle,5.600060356,-8.000006557,1,0,0,5.600060356,-8.000006557,1,0,0,0,41,41,9,1,,,,,,,,
,,,,,,,,,,,,,FF,,,,,,,,0.5907,,,,,,,,,,,,,,,,,,,,,,60ff5cdcb618e75bb04533a9,61036c99aab5ee4ae6f6b151,2021-07-29_23h06.23.144,Simcolourproject_2stim_asymm_v5,2020.2.10,Win32,60,61025ae37ef11b136ea224fe,,,,,,,,,490,25.60006065,83.19997039,1,0,0,response1disk,,7,4.000011504,13.59999377,1,0,0,rectangle,4.000011504,13.59999377,1,0,0,4.000011504,13.59999377,1,0,0,0,42,42,143,1,,,,,,,,
,,,,,,,,,,,,,FF,,,,,,,,0.9374,,,,,,,,,,,,,,,,,,,,,,60ff5cdcb618e75bb04533a9,61036c99aab5ee4ae6f6b151,2021-07-29_23h06.23.144,Simcolourproject_2stim_asymm_v5,2020.2.10,Win32,60,61025ae37ef11b136ea224fe,,,,,,,,,98,80.80001265,34.39999408,1,0,0,response1disk,,6,24.0000118,1.599993587,1,0,0,rectangle,24.0000118,1.599993587,1,0,0,24.0000118,1.599993587,1,0,0,0,43,43,63,1,,,,,,,,
,,,,,,,,,,,,,FF,,,,,,,,0.6251,,,,,,,,,,,,,,,,,,,,,,60ff5cdcb618e75bb04533a9,61036c99aab5ee4ae6f6b151,2021-07-29_23h06.23.144,Simcolourproject_2stim_asymm_v5,2020.2.10,Win32,60,61025ae37ef11b136ea224fe,,,,,,,,,335,36.00001198,112.7999952,1,0,0,response1disk,,7,10.4000116,-5.600006521,1,0,0,rectangle,10.4000116,-5.600006521,1,0,0,10.4000116,-5.600006521,1,0,0,0,44,44,138,1,,,,,,,,
,,,,,,,,,,,,,FF,,,,,,,,1.2083,,,,,,,,,,,,,,,,,,,,,,60ff5cdcb618e75bb04533a9,61036c99aab5ee4ae6f6b151,2021-07-29_23h06.23.144,Simcolourproject_2stim_asymm_v5,2020.2.10,Win32,60,61025ae37ef11b136ea224fe,,,,,,,,,3942,112.8000131,40.79999417,1,0,0,response1disk,,6,7.200011551,6.399993658,1,0,0,rectangle,7.200011551,6.399993658,1,0,0,7.200011551,6.399993658,1,0,0,0,45,45,34,1,,,,,,,,
,,,,,,,,,,,,,FF,,,,,,,,0.6808,,,,,,,,,,,,,,,,,,,,,,60ff5cdcb618e75bb04533a9,61036c99aab5ee4ae6f6b151,2021-07-29_23h06.23.144,Simcolourproject_2stim_asymm_v5,2020.2.10,Win32,60,61025ae37ef11b136ea224fe,,,,,,,,,30,48.80001217,71.99999464,1,0,0,response1disk,,7,-2.399939764,-4.800006509,1,0,0,rectangle,-2.399939764,-4.800006509,1,0,0,-2.399939764,-4.800006509,1,0,0,0,46,46,39,1,,,,,,,,
,,,,,,,,,,,,,FF,,,,,,,,0.8611,,,,,,,,,,,,,,,,,,,,,,60ff5cdcb618e75bb04533a9,61036c99aab5ee4ae6f6b151,2021-07-29_23h06.23.144,Simcolourproject_2stim_asymm_v5,2020.2.10,Win32,60,61025ae37ef11b136ea224fe,,,,,,,,,2227,49.60006101,-76.80000758,1,0,0,response3disk,,4,1.600060296,6.399993658,1,0,0,rectangle,1.600060296,6.399993658,1,0,0,1.600060296,6.399993658,1,0,0,0,47,47,111,1,,,,,,,,
,,,,,,,,,,,,,FF,,,,,,,,0.4583,,,,,,,,,,,,,,,,,,,,,,60ff5cdcb618e75bb04533a9,61036c99aab5ee4ae6f6b151,2021-07-29_23h06.23.144,Simcolourproject_2stim_asymm_v5,2020.2.10,Win32,60,61025ae37ef11b136ea224fe,,,,,,,,,2467,35.20001197,72.79999465,1,0,0,response1disk,,7,-1.59998858,-10.40000659,1,0,0,rectangle,-1.59998858,-10.40000659,1,0,0,-1.59998858,-10.40000659,1,0,0,0,48,48,114,1,,,,,,,,
,,,,,,,,,,,,,FF,,,,,,,,0.5207,,,,,,,,,,,,,,,,,,,,,,60ff5cdcb618e75bb04533a9,61036c99aab5ee4ae6f6b151,2021-07-29_23h06.23.144,Simcolourproject_2stim_asymm_v5,2020.2.10,Win32,60,61025ae37ef11b136ea224fe,,,,,,,,,320,20.00001174,48.79999429,1,0,0,response1disk,,7,6.400011539,14.39999378,1,0,0,rectangle,6.400011539,14.39999378,1,0,0,6.400011539,14.39999378,1,0,0,0,49,49,145,1,,,,,,,,
,,,,,,,,,,,,,FF,,,,,,,,1.2293,,,,,,,,,,,,,,,,,,,,,,60ff5cdcb618e75bb04533a9,61036c99aab5ee4ae6f6b151,2021-07-29_23h06.23.144,Simcolourproject_2stim_asymm_v5,2020.2.10,Win32,60,61025ae37ef11b136ea224fe,,,,,,,,,2302,87.20001274,36.79999411,1,0,0,response1disk,,6,14.40001166,-6.400006533,1,0,0,rectangle,14.40001166,-6.400006533,1,0,0,14.40001166,-6.400006533,1,0,0,0,50,50,38,1,,,,,,,,
,,,,,,,,,,,,,FF,,,,,,,,0.3959,,,,,,,,,,,,,,,,,,,,,,60ff5cdcb618e75bb04533a9,61036c99aab5ee4ae6f6b151,2021-07-29_23h06.23.144,Simcolourproject_2stim_asymm_v5,2020.2.10,Win32,60,61025ae37ef11b136ea224fe,,,,,,,,,2803,42.40001208,72.79999465,1,0,0,response1disk,,7,8.000011563,8.799993694,1,0,0,rectangle,8.000011563,8.799993694,1,0,0,8.000011563,8.799993694,1,0,0,0,51,51,68,1,,,,,,,,
,,,,,,,,,,,,,FF,,,,,,,,7.3328,,,,,,,,,,,,,,,,,,,,,,60ff5cdcb618e75bb04533a9,61036c99aab5ee4ae6f6b151,2021-07-29_23h06.23.144,Simcolourproject_2stim_asymm_v5,2020.2.10,Win32,60,61025ae37ef11b136ea224fe,,,,,,,,,2635,25.60006065,72.79999465,1,0,0,response1disk,,7,-3.199988604,14.39999378,1,0,0,rectangle,-3.199988604,14.39999378,1,0,0,-3.199988604,14.39999378,1,0,0,0,52,52,25,1,,,,,,,,
,,,,,,,,,,,,,FF,,,,,,,,1.0905,,,,,,,,,,,,,,,,,,,,,,60ff5cdcb618e75bb04533a9,61036c99aab5ee4ae6f6b151,2021-07-29_23h06.23.144,Simcolourproject_2stim_asymm_v5,2020.2.10,Win32,60,61025ae37ef11b136ea224fe,,,,,,,,,1823,30.4000119,-85.60005654,1,0,0,response3disk,,4,8.000011563,7.999993682,1,0,0,rectangle,8.000011563,7.999993682,1,0,0,8.000011563,7.999993682,1,0,0,0,53,53,21,1,,,,,,,,
,,,,,,,,,,,,,FF,,,,,,,,0.4095,,,,,,,,,,,,,,,,,,,,,,60ff5cdcb618e75bb04533a9,61036c99aab5ee4ae6f6b151,2021-07-29_23h06.23.144,Simcolourproject_2stim_asymm_v5,2020.2.10,Win32,60,61025ae37ef11b136ea224fe,,,,,,,,,4035,27.20001185,48.79999429,1,0,0,response1disk,,7,3.200011492,-0.800006449,1,0,0,rectangle,3.200011492,-0.800006449,1,0,0,3.200011492,-0.800006449,1,0,0,0,54,54,40,1,,,,,,,,
,,,,,,,,,,,,,FF,,,,,,,,0.5206,,,,,,,,,,,,,,,,,,,,,,60ff5cdcb618e75bb04533a9,61036c99aab5ee4ae6f6b151,2021-07-29_23h06.23.144,Simcolourproject_2stim_asymm_v5,2020.2.10,Win32,60,61025ae37ef11b136ea224fe,,,,,,,,,3539,47.20001215,97.59999502,1,0,0,response1disk,,7,-0.799988568,1.599993587,1,0,0,rectangle,-0.799988568,1.599993587,1,0,0,-0.799988568,1.599993587,1,0,0,0,55,55,61,1,,,,,,,,
,,,,,,,,,,,,,FF,,,,,,,,1.0555,,,,,,,,,,,,,,,,,,,,,,60ff5cdcb618e75bb04533a9,61036c99aab5ee4ae6f6b151,2021-07-29_23h06.23.144,Simcolourproject_2stim_asymm_v5,2020.2.10,Win32,60,61025ae37ef11b136ea224fe,,,,,,,,,1898,78.40001261,50.39999431,1,0,0,response1disk,,6,-3.199988604,-2.400006473,1,0,0,rectangle,-3.199988604,-2.400006473,1,0,0,-3.199988604,-2.400006473,1,0,0,0,56,56,18,1,,,,,,,,
,,,,,,,,,,,,,FF,,,,,,,,0.9238,,,,,,,,,,,,,,,,,,,,,,60ff5cdcb618e75bb04533a9,61036c99aab5ee4ae6f6b151,2021-07-29_23h06.23.144,Simcolourproject_2stim_asymm_v5,2020.2.10,Win32,60,61025ae37ef11b136ea224fe,,,,,,,,,1244,34.40001196,80.79999477,1,0,0,response1disk,,7,-2.399939764,3.19999361,1,0,0,rectangle,-2.399939764,3.19999361,1,0,0,-2.399939764,3.19999361,1,0,0,0,57,57,75,1,,,,,,,,
,,,,,,,,,,,,,FF,,,,,,,,0.3398,,,,,,,,,,,,,,,,,,,,,,60ff5cdcb618e75bb04533a9,61036c99aab5ee4ae6f6b151,2021-07-29_23h06.23.144,Simcolourproject_2stim_asymm_v5,2020.2.10,Win32,60,61025ae37ef11b136ea224fe,,,,,,,,,2052,45.60006095,52.79999435,1,0,0,response1disk,,7,2.40001148,-10.40000659,1,0,0,rectangle,2.40001148,-10.40000659,1,0,0,2.40001148,-10.40000659,1,0,0,0,58,58,94,1,,,,,,,,
,,,,,,,,,,,,,FF,,,,,,,,2.2987,,,,,,,,,,,,,,,,,,,,,,60ff5cdcb618e75bb04533a9,61036c99aab5ee4ae6f6b151,2021-07-29_23h06.23.144,Simcolourproject_2stim_asymm_v5,2020.2.10,Win32,60,61025ae37ef11b136ea224fe,,,,,,,,,2482,-57.59998941,-90.40000778,1,0,0,response5disk,,3,1.600060296,1.599993587,1,0,0,rectangle,1.600060296,1.599993587,1,0,0,1.600060296,1.599993587,1,0,0,0,59,59,55,1,,,,,,,,
,,,,,,,,,,,,,FF,,,,,,,,1.0346,,,,,,,,,,,,,,,,,,,,,,60ff5cdcb618e75bb04533a9,61036c99aab5ee4ae6f6b151,2021-07-29_23h06.23.144,Simcolourproject_2stim_asymm_v5,2020.2.10,Win32,60,61025ae37ef11b136ea224fe,,,,,,,,,2779,84.0000127,-40.80000705,1,0,0,response3disk,,5,16.80001169,9.599993706,1,0,0,rectangle,16.80001169,9.599993706,1,0,0,16.80001169,9.599993706,1,0,0,0,60,60,90,1,,,,,,,,
,,,,,,,,,,,,,FF,,,,,,,,0.8403,,,,,,,,,,,,,,,,,,,,,,60ff5cdcb618e75bb04533a9,61036c99aab5ee4ae6f6b151,2021-07-29_23h06.23.144,Simcolourproject_2stim_asymm_v5,2020.2.10,Win32,60,61025ae37ef11b136ea224fe,,,,,,,,,4192,31.20001191,74.39999467,1,0,0,response1disk,,7,6.400011539,13.59999377,1,0,0,rectangle,6.400011539,13.59999377,1,0,0,6.400011539,13.59999377,1,0,0,0,61,61,36,1,,,,,,,,
,,,,,,,,,,,,,FF,,,,,,,,1.1805,,,,,,,,,,,,,,,,,,,,,,60ff5cdcb618e75bb04533a9,61036c99aab5ee4ae6f6b151,2021-07-29_23h06.23.144,Simcolourproject_2stim_asymm_v5,2020.2.10,Win32,60,61025ae37ef11b136ea224fe,,,,,,,,,2839,75.20001256,39.99999416,1,0,0,response1disk,,6,19.20001173,1.599993587,1,0,0,rectangle,19.20001173,1.599993587,1,0,0,19.20001173,1.599993587,1,0,0,0,62,62,117,1,,,,,,,,
,,,,,,,,,,,,,FF,,,,,,,,1.118,,,,,,,,,,,,,,,,,,,,,,60ff5cdcb618e75bb04533a9,61036c99aab5ee4ae6f6b151,2021-07-29_23h06.23.144,Simcolourproject_2stim_asymm_v5,2020.2.10,Win32,60,61025ae37ef11b136ea224fe,,,,,,,,,78,-68.79998958,-24.80000681,1,0,0,response5disk,,2,9.600060415,-2.400006473,1,0,0,rectangle,9.600060415,-2.400006473,1,0,0,9.600060415,-2.400006473,1,0,0,0,63,63,86,1,,,,,,,,
,,,,,,,,,,,,,FF,,,,,,,,0.7916,,,,,,,,,,,,,,,,,,,,,,60ff5cdcb618e75bb04533a9,61036c99aab5ee4ae6f6b151,2021-07-29_23h06.23.144,Simcolourproject_2stim_asymm_v5,2020.2.10,Win32,60,61025ae37ef11b136ea224fe,,,,,,,,,802,-31.99998903,-84.00000769,1,0,0,response5disk,,3,4.000011504,3.999993622,1,0,0,rectangle,58.40001231,91.19997051,1,0,0,0.800011456,3.999993622,1,0,0,0,64,64,79,1,,response1disk_3,TRUE,7,7,"[91,163,176,178,133,202,137,18,128,81,87,125,275,274,282,126,108,65,125,179]",1.8542,rectangle
,,,,,,,,,,,,,FF,,,,,,,,1.0831,,,,,,,,,,,,,,,,,,,,,,60ff5cdcb618e75bb04533a9,61036c99aab5ee4ae6f6b151,2021-07-29_23h06.23.144,Simcolourproject_2stim_asymm_v5,2020.2.10,Win32,60,61025ae37ef11b136ea224fe,,,,,,,,,3208,48.00001216,75.19997027,1,0,0,response1disk,,7,-8.799988687,-3.200006485,1,0,0,rectangle,-8.799988687,-3.200006485,1,0,0,-8.799988687,-3.200006485,1,0,0,0,65,65,141,1,,,,,,,,
,,,,,,,,,,,,,FF,,,,,,,,0.486,,,,,,,,,,,,,,,,,,,,,,60ff5cdcb618e75bb04533a9,61036c99aab5ee4ae6f6b151,2021-07-29_23h06.23.144,Simcolourproject_2stim_asymm_v5,2020.2.10,Win32,60,61025ae37ef11b136ea224fe,,,,,,,,,3535,32.80001193,55.9999944,1,0,0,response1disk,,7,2.40001148,10.39999372,1,0,0,rectangle,2.40001148,10.39999372,1,0,0,2.40001148,10.39999372,1,0,0,0,66,66,33,1,,,,,,,,
,,,,,,,,,,,,,FF,,,,,,,,2.0208,,,,,,,,,,,,,,,,,,,,,,60ff5cdcb618e75bb04533a9,61036c99aab5ee4ae6f6b151,2021-07-29_23h06.23.144,Simcolourproject_2stim_asymm_v5,2020.2.10,Win32,60,61025ae37ef11b136ea224fe,,,,,,,,,437,28.00001186,82.39999479,1,0,0,response1disk,,7,0.800011456,-5.600006521,1,0,0,rectangle,0.800011456,-5.600006521,1,0,0,0.800011456,-5.600006521,1,0,0,0,67,67,44,1,,,,,,,,
,,,,,,,,,,,,,FF,,,,,,,,0.7568,,,,,,,,,,,,,,,,,,,,,,60ff5cdcb618e75bb04533a9,61036c99aab5ee4ae6f6b151,2021-07-29_23h06.23.144,Simcolourproject_2stim_asymm_v5,2020.2.10,Win32,60,61025ae37ef11b136ea224fe,,,,,,,,,3195,-51.19998932,102.3999951,1,0,0,response7disk,,0,14.40001166,4.799993634,1,0,0,rectangle,14.40001166,4.799993634,1,0,0,14.40001166,4.799993634,1,0,0,0,68,68,154,1,,,,,,,,
,,,,,,,,,,,,,FF,,,,,,,,2.1172,,,,,,,,,,,,,,,,,,,,,,60ff5cdcb618e75bb04533a9,61036c99aab5ee4ae6f6b151,2021-07-29_23h06.23.144,Simcolourproject_2stim_asymm_v5,2020.2.10,Win32,60,61025ae37ef11b136ea224fe,,,,,,,,,2475,68.00001246,-21.60000676,1,0,0,response3disk,,5,8.000011563,7.19999367,1,0,0,rectangle,8.000011563,7.19999367,1,0,0,8.000011563,7.19999367,1,0,0,0,69,69,153,1,,,,,,,,
,,,,,,,,,,,,,FF,,,,,,,,0.7912,,,,,,,,,,,,,,,,,,,,,,60ff5cdcb618e75bb04533a9,61036c99aab5ee4ae6f6b151,2021-07-29_23h06.23.144,Simcolourproject_2stim_asymm_v5,2020.2.10,Win32,60,61025ae37ef11b136ea224fe,,,,,,,,,979,61.60001236,-36.80000699,1,0,0,response3disk,,5,22.40001178,-11.2000066,1,0,0,rectangle,22.40001178,-11.2000066,1,0,0,22.40001178,-11.2000066,1,0,0,0,70,70,102,1,,,,,,,,
,,,,,,,,,,,,,FF,,,,,,,,1.3057,,,,,,,,,,,,,,,,,,,,,,60ff5cdcb618e75bb04533a9,61036c99aab5ee4ae6f6b151,2021-07-29_23h06.23.144,Simcolourproject_2stim_asymm_v5,2020.2.10,Win32,60,61025ae37ef11b136ea224fe,,,,,,,,,1912,52.00001222,92.79999495,1,0,0,response1disk,,7,19.20001173,16.79999381,1,0,0,rectangle,19.20001173,16.79999381,1,0,0,19.20001173,16.79999381,1,0,0,0,71,71,48,1,,,,,,,,
,,,,,,,,,,,,,FF,,,,,,,,0.5694,,,,,,,,,,,,,,,,,,,,,,60ff5cdcb618e75bb04533a9,61036c99aab5ee4ae6f6b151,2021-07-29_23h06.23.144,Simcolourproject_2stim_asymm_v5,2020.2.10,Win32,60,61025ae37ef11b136ea224fe,,,,,,,,,946,39.20001203,62.39999449,1,0,0,response1disk,,7,16.00001168,10.39999372,1,0,0,rectangle,16.00001168,10.39999372,1,0,0,16.00001168,10.39999372,1,0,0,0,72,72,46,1,,,,,,,,
,,,,,,,,,,,,,FF,,,,,,,,0.4167,,,,,,,,,,,,,,,,,,,,,,60ff5cdcb618e75bb04533a9,61036c99aab5ee4ae6f6b151,2021-07-29_23h06.23.144,Simcolourproject_2stim_asymm_v5,2020.2.10,Win32,60,61025ae37ef11b136ea224fe,,,,,,,,,856,42.40001208,66.39999455,1,0,0,response1disk,,7,12.80001163,4.799993634,1,0,0,rectangle,12.80001163,4.799993634,1,0,0,12.80001163,4.799993634,1,0,0,0,73,73,109,1,,,,,,,,
,,,,,,,,,,,,,FF,,,,,,,,0.4305,,,,,,,,,,,,,,,,,,,,,,60ff5cdcb618e75bb04533a9,61036c99aab5ee4ae6f6b151,2021-07-29_23h06.23.144,Simcolourproject_2stim_asymm_v5,2020.2.10,Win32,60,61025ae37ef11b136ea224fe,,,,,,,,,3563,40.80001205,65.59999454,1,0,0,response1disk,,7,3.200011492,-14.40000665,1,0,0,rectangle,3.200011492,-14.40000665,1,0,0,3.200011492,-14.40000665,1,0,0,0,74,74,8,1,,,,,,,,
,,,,,,,,,,,,,FF,,,,,,,,0.6526,,,,,,,,,,,,,,,,,,,,,,60ff5cdcb618e75bb04533a9,61036c99aab5ee4ae6f6b151,2021-07-29_23h06.23.144,Simcolourproject_2stim_asymm_v5,2020.2.10,Win32,60,61025ae37ef11b136ea224fe,,,,,,,,,4200,-24.79998893,79.99999475,1,0,0,response7disk,,0,6.400011539,-16.80000669,1,0,0,rectangle,6.400011539,-16.80000669,1,0,0,6.400011539,-16.80000669,1,0,0,0,75,75,113,1,,,,,,,,
,,,,,,,,,,,,,FF,,,,,,,,0.5071,,,,,,,,,,,,,,,,,,,,,,60ff5cdcb618e75bb04533a9,61036c99aab5ee4ae6f6b151,2021-07-29_23h06.23.144,Simcolourproject_2stim_asymm_v5,2020.2.10,Win32,60,61025ae37ef11b136ea224fe,,,,,,,,,3766,29.60006071,72.79999465,1,0,0,response1disk,,7,2.40001148,6.399993658,1,0,0,rectangle,2.40001148,6.399993658,1,0,0,2.40001148,6.399993658,1,0,0,0,76,76,22,1,,,,,,,,
,,,,,,,,,,,,,FF,,,,,,,,0.8958,,,,,,,,,,,,,,,,,,,,,,60ff5cdcb618e75bb04533a9,61036c99aab5ee4ae6f6b151,2021-07-29_23h06.23.144,Simcolourproject_2stim_asymm_v5,2020.2.10,Win32,60,61025ae37ef11b136ea224fe,,,,,,,,,211,66.40001243,93.59999496,1,0,0,response1disk,,7,10.4000116,0.799993575,1,0,0,rectangle,10.4000116,0.799993575,1,0,0,10.4000116,0.799993575,1,0,0,0,77,77,31,1,,,,,,,,
,,,,,,,,,,,,,FF,,,,,,,,0.8186,,,,,,,,,,,,,,,,,,,,,,60ff5cdcb618e75bb04533a9,61036c99aab5ee4ae6f6b151,2021-07-29_23h06.23.144,Simcolourproject_2stim_asymm_v5,2020.2.10,Win32,60,61025ae37ef11b136ea224fe,,,,,,,,,2113,43.20001209,96.79999501,1,0,0,response1disk,,7,-1.59998858,15.19999379,1,0,0,rectangle,-1.59998858,15.19999379,1,0,0,-1.59998858,15.19999379,1,0,0,0,78,78,104,1,,,,,,,,
,,,,,,,,,,,,,FF,,,,,,,,0.6111,,,,,,,,,,,,,,,,,,,,,,60ff5cdcb618e75bb04533a9,61036c99aab5ee4ae6f6b151,2021-07-29_23h06.23.144,Simcolourproject_2stim_asymm_v5,2020.2.10,Win32,60,61025ae37ef11b136ea224fe,,,,,,,,,3741,-45.59998924,94.39999497,1,0,0,response7disk,,0,10.4000116,3.999993622,1,0,0,rectangle,10.4000116,3.999993622,1,0,0,10.4000116,3.999993622,1,0,0,0,79,79,139,1,,,,,,,,
,,,,,,,,,,,,,FF,,,,,,,,0.7985,,,,,,,,,,,,,,,,,,,,,,60ff5cdcb618e75bb04533a9,61036c99aab5ee4ae6f6b151,2021-07-29_23h06.23.144,Simcolourproject_2stim_asymm_v5,2020.2.10,Win32,60,61025ae37ef11b136ea224fe,,,,,,,,,427,30.4000119,81.59999478,1,0,0,response1disk,,7,3.200011492,11.99999374,1,0,0,rectangle,51.20001221,65.59999454,1,0,0,19.20001173,-8.000006557,1,0,0,0,80,80,112,1,,response1disk_3,TRUE,7,7,"[91,163,176,178,133,202,137,18,128,81,87,125,275,274,282,126,108,65,125,179]",1.2016,rectangle
,,,,,,,,,,,,,FF,,,,,,,,1.6249,,,,,,,,,,,,,,,,,,,,,,60ff5cdcb618e75bb04533a9,61036c99aab5ee4ae6f6b151,2021-07-29_23h06.23.144,Simcolourproject_2stim_asymm_v5,2020.2.10,Win32,60,61025ae37ef11b136ea224fe,,,,,,,,,63,67.20001245,-56.80000728,1,0,0,response3disk,,5,9.600060415,12.79999375,1,0,0,rectangle,9.600060415,12.79999375,1,0,0,9.600060415,12.79999375,1,0,0,0,81,81,6,1,,,,,,,,
,,,,,,,,,,,,,FF,,,,,,,,0.5484,,,,,,,,,,,,,,,,,,,,,,60ff5cdcb618e75bb04533a9,61036c99aab5ee4ae6f6b151,2021-07-29_23h06.23.144,Simcolourproject_2stim_asymm_v5,2020.2.10,Win32,60,61025ae37ef11b136ea224fe,,,,,,,,,2745,25.60006065,59.19997003,1,0,0,response1disk,,7,0.800011456,2.399993598,1,0,0,rectangle,0.800011456,2.399993598,1,0,0,0.800011456,2.399993598,1,0,0,0,82,82,47,1,,,,,,,,
,,,,,,,,,,,,,FF,,,,,,,,1.7224,,,,,,,,,,,,,,,,,,,,,,60ff5cdcb618e75bb04533a9,61036c99aab5ee4ae6f6b151,2021-07-29_23h06.23.144,Simcolourproject_2stim_asymm_v5,2020.2.10,Win32,60,61025ae37ef11b136ea224fe,,,,,,,,,2101,-76.7999897,-43.20000708,1,0,0,response5disk,,2,-3.199988604,-7.200006545,1,0,0,rectangle,-3.199988604,-7.200006545,1,0,0,-3.199988604,-7.200006545,1,0,0,0,83,83,42,1,,,,,,,,
,,,,,,,,,,,,,FF,,,,,,,,1.4514,,,,,,,,,,,,,,,,,,,,,,60ff5cdcb618e75bb04533a9,61036c99aab5ee4ae6f6b151,2021-07-29_23h06.23.144,Simcolourproject_2stim_asymm_v5,2020.2.10,Win32,60,61025ae37ef11b136ea224fe,,,,,,,,,900,94.40001285,-50.40000719,1,0,0,response3disk,,5,7.200011551,-4.000006497,1,0,0,rectangle,7.200011551,-4.000006497,1,0,0,7.200011551,-4.000006497,1,0,0,0,84,84,4,1,,,,,,,,
,,,,,,,,,,,,,FF,,,,,,,,0.3818,,,,,,,,,,,,,,,,,,,,,,60ff5cdcb618e75bb04533a9,61036c99aab5ee4ae6f6b151,2021-07-29_23h06.23.144,Simcolourproject_2stim_asymm_v5,2020.2.10,Win32,60,61025ae37ef11b136ea224fe,,,,,,,,,3569,23.20001179,59.99999446,1,0,0,response1disk,,7,7.200011551,0.799993575,1,0,0,rectangle,7.200011551,0.799993575,1,0,0,7.200011551,0.799993575,1,0,0,0,85,85,91,1,,,,,,,,
,,,,,,,,,,,,,FF,,,,,,,,0.597,,,,,,,,,,,,,,,,,,,,,,60ff5cdcb618e75bb04533a9,61036c99aab5ee4ae6f6b151,2021-07-29_23h06.23.144,Simcolourproject_2stim_asymm_v5,2020.2.10,Win32,60,61025ae37ef11b136ea224fe,,,,,,,,,2049,33.60006077,65.59999454,1,0,0,response1disk,,7,1.14441E-05,-2.400006473,1,0,0,rectangle,-39.19998914,-104.000008,1,0,0,8.000011563,3.999993622,1,0,0,0,86,86,158,1,,response5disk_3,TRUE,3,3,"[91,163,176,178,133,202,137,18,128,81,87,125,275,274,282,126,108,65,125,179]",2.0967,rectangle
,,,,,,,,,,,,,FF,,,,,,,,0.9028,,,,,,,,,,,,,,,,,,,,,,60ff5cdcb618e75bb04533a9,61036c99aab5ee4ae6f6b151,2021-07-29_23h06.23.144,Simcolourproject_2stim_asymm_v5,2020.2.10,Win32,60,61025ae37ef11b136ea224fe,,,,,,,,,2583,32.00001192,95.99999499,1,0,0,response1disk,,7,-0.799988568,9.599993706,1,0,0,rectangle,-0.799988568,9.599993706,1,0,0,-0.799988568,9.599993706,1,0,0,0,87,87,19,1,,,,,,,,
,,,,,,,,,,,,,FF,,,,,,,,0.5279,,,,,,,,,,,,,,,,,,,,,,60ff5cdcb618e75bb04533a9,61036c99aab5ee4ae6f6b151,2021-07-29_23h06.23.144,Simcolourproject_2stim_asymm_v5,2020.2.10,Win32,60,61025ae37ef11b136ea224fe,,,,,,,,,3402,37.60006083,51.19996991,1,0,0,response1disk,,7,4.800011516,10.39999372,1,0,0,rectangle,4.800011516,10.39999372,1,0,0,4.800011516,10.39999372,1,0,0,0,88,88,37,1,,,,,,,,
,,,,,,,,,,,,,FF,,,,,,,,1.6181,,,,,,,,,,,,,,,,,,,,,,60ff5cdcb618e75bb04533a9,61036c99aab5ee4ae6f6b151,2021-07-29_23h06.23.144,Simcolourproject_2stim_asymm_v5,2020.2.10,Win32,60,61025ae37ef11b136ea224fe,,,,,,,,,2833,56.00001228,-92.80000782,1,0,0,response3disk,,4,6.400011539,11.19999373,1,0,0,rectangle,6.400011539,11.19999373,1,0,0,6.400011539,11.19999373,1,0,0,0,89,89,147,1,,,,,,,,
,,,,,,,,,,,,,FF,,,,,,,,0.493,,,,,,,,,,,,,,,,,,,,,,60ff5cdcb618e75bb04533a9,61036c99aab5ee4ae6f6b151,2021-07-29_23h06.23.144,Simcolourproject_2stim_asymm_v5,2020.2.10,Win32,60,61025ae37ef11b136ea224fe,,,,,,,,,2527,20.00001174,82.39999479,1,0,0,response1disk,,7,-10.39993988,-10.40000659,1,0,0,rectangle,80.80001265,31.99999404,1,0,0,2.40001148,4.799993634,1,0,0,0,90,90,99,1,,response1disk_3,TRUE,6,6,"[91,163,176,178,133,202,137,18,128,81,87,125,275,274,282,126,108,65,125,179]",1.8678,rectangle
,,,,,,,,,,,,,FF,,,,,,,,0.7288,,,,,,,,,,,,,,,,,,,,,,60ff5cdcb618e75bb04533a9,61036c99aab5ee4ae6f6b151,2021-07-29_23h06.23.144,Simcolourproject_2stim_asymm_v5,2020.2.10,Win32,60,61025ae37ef11b136ea224fe,,,,,,,,,2468,24.80001181,82.39999479,1,0,0,response1disk,,7,4.000011504,11.99999374,1,0,0,rectangle,4.000011504,11.99999374,1,0,0,4.000011504,11.99999374,1,0,0,0,91,91,88,1,,,,,,,,
,,,,,,,,,,,,,FF,,,,,,,,0.4027,,,,,,,,,,,,,,,,,,,,,,60ff5cdcb618e75bb04533a9,61036c99aab5ee4ae6f6b151,2021-07-29_23h06.23.144,Simcolourproject_2stim_asymm_v5,2020.2.10,Win32,60,61025ae37ef11b136ea224fe,,,,,,,,,1472,31.20001191,75.19997027,1,0,0,response1disk,,7,4.000011504,12.79999375,1,0,0,rectangle,4.000011504,12.79999375,1,0,0,4.000011504,12.79999375,1,0,0,0,92,92,159,1,,,,,,,,
,,,,,,,,,,,,,FF,,,,,,,,0.4027,,,,,,,,,,,,,,,,,,,,,,60ff5cdcb618e75bb04533a9,61036c99aab5ee4ae6f6b151,2021-07-29_23h06.23.144,Simcolourproject_2stim_asymm_v5,2020.2.10,Win32,60,61025ae37ef11b136ea224fe,,,,,,,,,3649,26.40001184,59.99999446,1,0,0,response1disk,,7,-7.999988675,-4.000006497,1,0,0,rectangle,-7.999988675,-4.000006497,1,0,0,-7.999988675,-4.000006497,1,0,0,0,93,93,132,1,,,,,,,,
,,,,,,,,,,,,,FF,,,,,,,,0.3472,,,,,,,,,,,,,,,,,,,,,,60ff5cdcb618e75bb04533a9,61036c99aab5ee4ae6f6b151,2021-07-29_23h06.23.144,Simcolourproject_2stim_asymm_v5,2020.2.10,Win32,60,61025ae37ef11b136ea224fe,,,,,,,,,519,32.80001193,71.99999464,1,0,0,response1disk,,7,4.800011516,15.19999379,1,0,0,rectangle,4.800011516,15.19999379,1,0,0,4.800011516,15.19999379,1,0,0,0,94,94,28,1,,,,,,,,
,,,,,,,,,,,,,FF,,,,,,,,0.3054,,,,,,,,,,,,,,,,,,,,,,60ff5cdcb618e75bb04533a9,61036c99aab5ee4ae6f6b151,2021-07-29_23h06.23.144,Simcolourproject_2stim_asymm_v5,2020.2.10,Win32,60,61025ae37ef11b136ea224fe,,,,,,,,,511,31.20001191,59.19997003,1,0,0,response1disk,,7,9.600060415,3.999993622,1,0,0,rectangle,9.600060415,3.999993622,1,0,0,9.600060415,3.999993622,1,0,0,0,95,95,35,1,,,,,,,,
,,,,,,,,,,,,,FF,,,,,,,,1.5971,,,,,,,,,,,,,,,,,,,,,,60ff5cdcb618e75bb04533a9,61036c99aab5ee4ae6f6b151,2021-07-29_23h06.23.144,Simcolourproject_2stim_asymm_v5,2020.2.10,Win32,60,61025ae37ef11b136ea224fe,,,,,,,,,1446,61.60001236,43.19996979,1,0,0,response1disk,,6,14.40001166,5.599993646,1,0,0,rectangle,14.40001166,5.599993646,1,0,0,14.40001166,5.599993646,1,0,0,0,96,96,157,1,,,,,,,,
,,,,,,,,,,,,,FF,,,,,,,,1.1805,,,,,,,,,,,,,,,,,,,,,,60ff5cdcb618e75bb04533a9,61036c99aab5ee4ae6f6b151,2021-07-29_23h06.23.144,Simcolourproject_2stim_asymm_v5,2020.2.10,Win32,60,61025ae37ef11b136ea224fe,,,,,,,,,3196,72.80001253,-39.20000702,1,0,0,response3disk,,5,4.000011504,-8.000006557,1,0,0,rectangle,4.000011504,-8.000006557,1,0,0,4.000011504,-8.000006557,1,0,0,0,97,97,49,1,,,,,,,,
,,,,,,,,,,,,,FF,,,,,,,,0.6041,,,,,,,,,,,,,,,,,,,,,,60ff5cdcb618e75bb04533a9,61036c99aab5ee4ae6f6b151,2021-07-29_23h06.23.144,Simcolourproject_2stim_asymm_v5,2020.2.10,Win32,60,61025ae37ef11b136ea224fe,,,,,,,,,410,36.80001199,66.39999455,1,0,0,response1disk,,7,-3.199988604,-8.800006568,1,0,0,rectangle,-3.199988604,-8.800006568,1,0,0,-3.199988604,-8.800006568,1,0,0,0,98,98,76,1,,,,,,,,
,,,,,,,,,,,,,FF,,,,,,,,1.3958,,,,,,,,,,,,,,,,,,,,,,60ff5cdcb618e75bb04533a9,61036c99aab5ee4ae6f6b151,2021-07-29_23h06.23.144,Simcolourproject_2stim_asymm_v5,2020.2.10,Win32,60,61025ae37ef11b136ea224fe,,,,,,,,,1,104.000013,-41.60000706,1,0,0,response3disk,,5,0.800011456,-12.80000663,1,0,0,rectangle,0.800011456,-12.80000663,1,0,0,0.800011456,-12.80000663,1,0,0,0,99,99,54,1,,,,,,,,
,,,,,,,,,,,,,FF,,,,,,,,0.3266,,,,,,,,,,,,,,,,,,,,,,60ff5cdcb618e75bb04533a9,61036c99aab5ee4ae6f6b151,2021-07-29_23h06.23.144,Simcolourproject_2stim_asymm_v5,2020.2.10,Win32,60,61025ae37ef11b136ea224fe,,,,,,,,,2138,51.20001221,71.99999464,1,0,0,response1disk,,7,7.200011551,-3.200006485,1,0,0,rectangle,7.200011551,-3.200006485,1,0,0,7.200011551,-3.200006485,1,0,0,0,100,100,5,1,,,,,,,,
,,,,,,,,,,,,,FF,,,,,,,,0.993,,,,,,,,,,,,,,,,,,,,,,60ff5cdcb618e75bb04533a9,61036c99aab5ee4ae6f6b151,2021-07-29_23h06.23.144,Simcolourproject_2stim_asymm_v5,2020.2.10,Win32,60,61025ae37ef11b136ea224fe,,,,,,,,,973,69.60001248,35.9999941,1,0,0,response1disk,,6,5.600060356,-9.60000658,1,0,0,rectangle,5.600060356,-9.60000658,1,0,0,5.600060356,-9.60000658,1,0,0,0,101,101,62,1,,,,,,,,
,,,,,,,,,,,,,FF,,,,,,,,0.8264,,,,,,,,,,,,,,,,,,,,,,60ff5cdcb618e75bb04533a9,61036c99aab5ee4ae6f6b151,2021-07-29_23h06.23.144,Simcolourproject_2stim_asymm_v5,2020.2.10,Win32,60,61025ae37ef11b136ea224fe,,,,,,,,,1526,36.00001198,-69.60000747,1,0,0,response3disk,,4,6.400011539,-9.60000658,1,0,0,rectangle,6.400011539,-9.60000658,1,0,0,6.400011539,-9.60000658,1,0,0,0,102,102,151,1,,,,,,,,
,,,,,,,,,,,,,FF,,,,,,,,0.3961,,,,,,,,,,,,,,,,,,,,,,60ff5cdcb618e75bb04533a9,61036c99aab5ee4ae6f6b151,2021-07-29_23h06.23.144,Simcolourproject_2stim_asymm_v5,2020.2.10,Win32,60,61025ae37ef11b136ea224fe,,,,,,,,,2738,36.00001198,84.79999483,1,0,0,response1disk,,7,1.14441E-05,-0.800006449,1,0,0,rectangle,1.14441E-05,-0.800006449,1,0,0,1.14441E-05,-0.800006449,1,0,0,0,103,103,32,1,,,,,,,,
,,,,,,,,,,,,,FF,,,,,,,,0.5695,,,,,,,,,,,,,,,,,,,,,,60ff5cdcb618e75bb04533a9,61036c99aab5ee4ae6f6b151,2021-07-29_23h06.23.144,Simcolourproject_2stim_asymm_v5,2020.2.10,Win32,60,61025ae37ef11b136ea224fe,,,,,,,,,3182,36.80001199,59.99999446,1,0,0,response1disk,,7,6.400011539,4.799993634,1,0,0,rectangle,6.400011539,4.799993634,1,0,0,6.400011539,4.799993634,1,0,0,0,104,104,105,1,,,,,,,,
,,,,,,,,,,,,,FF,,,,,,,,0.3864,,,,,,,,,,,,,,,,,,,,,,60ff5cdcb618e75bb04533a9,61036c99aab5ee4ae6f6b151,2021-07-29_23h06.23.144,Simcolourproject_2stim_asymm_v5,2020.2.10,Win32,60,61025ae37ef11b136ea224fe,,,,,,,,,915,41.60006089,78.39999473,1,0,0,response1disk,,7,7.200011551,11.19999373,1,0,0,rectangle,7.200011551,11.19999373,1,0,0,7.200011551,11.19999373,1,0,0,0,105,105,11,1,,,,,,,,
,,,,,,,,,,,,,FF,,,,,,,,0.3029,,,,,,,,,,,,,,,,,,,,,,60ff5cdcb618e75bb04533a9,61036c99aab5ee4ae6f6b151,2021-07-29_23h06.23.144,Simcolourproject_2stim_asymm_v5,2020.2.10,Win32,60,61025ae37ef11b136ea224fe,,,,,,,,,1329,32.00001192,67.99999458,1,0,0,response1disk,,7,4.000011504,-4.000006497,1,0,0,rectangle,4.000011504,-4.000006497,1,0,0,4.000011504,-4.000006497,1,0,0,0,106,106,51,1,,,,,,,,
,,,,,,,,,,,,,FF,,,,,,,,0.6388,,,,,,,,,,,,,,,,,,,,,,60ff5cdcb618e75bb04533a9,61036c99aab5ee4ae6f6b151,2021-07-29_23h06.23.144,Simcolourproject_2stim_asymm_v5,2020.2.10,Win32,60,61025ae37ef11b136ea224fe,,,,,,,,,2598,40.00001204,54.39999437,1,0,0,response1disk,,7,8.000011563,3.19999361,1,0,0,rectangle,84.80001271,25.59999394,1,0,0,12.80001163,-5.600006521,1,0,0,0,107,107,7,1,,response1disk_3,TRUE,6,6,"[91,163,176,178,133,202,137,18,128,81,87,125,275,274,282,126,108,65,125,179]",1.5833,rectangle
,,,,,,,,,,,,,FF,,,,,,,,0.507,,,,,,,,,,,,,,,,,,,,,,60ff5cdcb618e75bb04533a9,61036c99aab5ee4ae6f6b151,2021-07-29_23h06.23.144,Simcolourproject_2stim_asymm_v5,2020.2.10,Win32,60,61025ae37ef11b136ea224fe,,,,,,,,,3525,32.00001192,51.19996991,1,0,0,response1disk,,7,4.800011516,-4.800006509,1,0,0,rectangle,4.800011516,-4.800006509,1,0,0,4.800011516,-4.800006509,1,0,0,0,108,108,30,1,,,,,,,,
,,,,,,,,,,,,,FF,,,,,,,,0.6456,,,,,,,,,,,,,,,,,,,,,,60ff5cdcb618e75bb04533a9,61036c99aab5ee4ae6f6b151,2021-07-29_23h06.23.144,Simcolourproject_2stim_asymm_v5,2020.2.10,Win32,60,61025ae37ef11b136ea224fe,,,,,,,,,4344,-41.59998918,82.39999479,1,0,0,response7disk,,0,7.200011551,4.799993634,1,0,0,rectangle,7.200011551,4.799993634,1,0,0,7.200011551,4.799993634,1,0,0,0,109,109,156,1,,,,,,,,
,,,,,,,,,,,,,FF,,,,,,,,0.3053,,,,,,,,,,,,,,,,,,,,,,60ff5cdcb618e75bb04533a9,61036c99aab5ee4ae6f6b151,2021-07-29_23h06.23.144,Simcolourproject_2stim_asymm_v5,2020.2.10,Win32,60,61025ae37ef11b136ea224fe,,,,,,,,,936,35.20001197,66.39999455,1,0,0,response1disk,,7,4.800011516,9.599993706,1,0,0,rectangle,4.800011516,9.599993706,1,0,0,4.800011516,9.599993706,1,0,0,0,110,110,80,1,,,,,,,,
,,,,,,,,,,,,,FF,,,,,,,,1.0763,,,,,,,,,,,,,,,,,,,,,,60ff5cdcb618e75bb04533a9,61036c99aab5ee4ae6f6b151,2021-07-29_23h06.23.144,Simcolourproject_2stim_asymm_v5,2020.2.10,Win32,60,61025ae37ef11b136ea224fe,,,,,,,,,1452,-34.39994024,-63.20000738,1,0,0,response5disk,,3,13.60006047,-14.40000665,1,0,0,rectangle,13.60006047,-14.40000665,1,0,0,13.60006047,-14.40000665,1,0,0,0,111,111,58,1,,,,,,,,
,,,,,,,,,,,,,FF,,,,,,,,0.4233,,,,,,,,,,,,,,,,,,,,,,60ff5cdcb618e75bb04533a9,61036c99aab5ee4ae6f6b151,2021-07-29_23h06.23.144,Simcolourproject_2stim_asymm_v5,2020.2.10,Win32,60,61025ae37ef11b136ea224fe,,,,,,,,,3087,17.60006053,72.79999465,1,0,0,response1disk,,7,-5.599988639,1.599993587,1,0,0,rectangle,-5.599988639,1.599993587,1,0,0,-5.599988639,1.599993587,1,0,0,0,112,112,64,1,,,,,,,,
,,,,,,,,,,,,,FF,,,,,,,,0.368,,,,,,,,,,,,,,,,,,,,,,60ff5cdcb618e75bb04533a9,61036c99aab5ee4ae6f6b151,2021-07-29_23h06.23.144,Simcolourproject_2stim_asymm_v5,2020.2.10,Win32,60,61025ae37ef11b136ea224fe,,,,,,,,,4244,36.80001199,59.99999446,1,0,0,response1disk,,7,16.80001169,11.99999374,1,0,0,rectangle,16.80001169,11.99999374,1,0,0,16.80001169,11.99999374,1,0,0,0,113,113,81,1,,,,,,,,
,,,,,,,,,,,,,FF,,,,,,,,0.3056,,,,,,,,,,,,,,,,,,,,,,60ff5cdcb618e75bb04533a9,61036c99aab5ee4ae6f6b151,2021-07-29_23h06.23.144,Simcolourproject_2stim_asymm_v5,2020.2.10,Win32,60,61025ae37ef11b136ea224fe,,,,,,,,,2438,34.40001196,71.19997021,1,0,0,response1disk,,7,4.800011516,1.599993587,1,0,0,rectangle,4.800011516,1.599993587,1,0,0,4.800011516,1.599993587,1,0,0,0,114,114,24,1,,,,,,,,
,,,,,,,,,,,,,FF,,,,,,,,0.7497,,,,,,,,,,,,,,,,,,,,,,60ff5cdcb618e75bb04533a9,61036c99aab5ee4ae6f6b151,2021-07-29_23h06.23.144,Simcolourproject_2stim_asymm_v5,2020.2.10,Win32,60,61025ae37ef11b136ea224fe,,,,,,,,,2225,30.4000119,81.59999478,1,0,0,response1disk,,7,6.400011539,16.79999381,1,0,0,rectangle,6.400011539,16.79999381,1,0,0,6.400011539,16.79999381,1,0,0,0,115,115,10,1,,,,,,,,
,,,,,,,,,,,,,FF,,,,,,,,1,,,,,,,,,,,,,,,,,,,,,,60ff5cdcb618e75bb04533a9,61036c99aab5ee4ae6f6b151,2021-07-29_23h06.23.144,Simcolourproject_2stim_asymm_v5,2020.2.10,Win32,60,61025ae37ef11b136ea224fe,,,,,,,,,1766,60.80001235,23.99999392,1,0,0,response1disk,,6,17.60006053,-4.000006497,1,0,0,rectangle,17.60006053,-4.000006497,1,0,0,17.60006053,-4.000006497,1,0,0,0,116,116,128,1,,,,,,,,
,,,,,,,,,,,,,FF,,,,,,,,0.3611,,,,,,,,,,,,,,,,,,,,,,60ff5cdcb618e75bb04533a9,61036c99aab5ee4ae6f6b151,2021-07-29_23h06.23.144,Simcolourproject_2stim_asymm_v5,2020.2.10,Win32,60,61025ae37ef11b136ea224fe,,,,,,,,,1172,38.40001202,71.99999464,1,0,0,response1disk,,7,7.200011551,-0.800006449,1,0,0,rectangle,7.200011551,-0.800006449,1,0,0,7.200011551,-0.800006449,1,0,0,0,117,117,150,1,,,,,,,,
,,,,,,,,,,,,,FF,,,,,,,,0.2985,,,,,,,,,,,,,,,,,,,,,,60ff5cdcb618e75bb04533a9,61036c99aab5ee4ae6f6b151,2021-07-29_23h06.23.144,Simcolourproject_2stim_asymm_v5,2020.2.10,Win32,60,61025ae37ef11b136ea224fe,,,,,,,,,2015,45.60006095,72.79999465,1,0,0,response1disk,,7,8.800011575,4.799993634,1,0,0,rectangle,8.800011575,4.799993634,1,0,0,8.800011575,4.799993634,1,0,0,0,118,118,130,1,,,,,,,,
,,,,,,,,,,,,,FF,,,,,,,,0.3264,,,,,,,,,,,,,,,,,,,,,,60ff5cdcb618e75bb04533a9,61036c99aab5ee4ae6f6b151,2021-07-29_23h06.23.144,Simcolourproject_2stim_asymm_v5,2020.2.10,Win32,60,61025ae37ef11b136ea224fe,,,,,,,,,1256,43.20001209,63.19997009,1,0,0,response1disk,,7,13.60006047,3.19999361,1,0,0,rectangle,13.60006047,3.19999361,1,0,0,13.60006047,3.19999361,1,0,0,0,119,119,26,1,,,,,,,,
,,,,,,,,,,,,,FF,,,,,,,,0.3449,,,,,,,,,,,,,,,,,,,,,,60ff5cdcb618e75bb04533a9,61036c99aab5ee4ae6f6b151,2021-07-29_23h06.23.144,Simcolourproject_2stim_asymm_v5,2020.2.10,Win32,60,61025ae37ef11b136ea224fe,,,,,,,,,3921,44.0000121,67.99999458,1,0,0,response1disk,,7,4.800011516,0.799993575,1,0,0,rectangle,4.800011516,0.799993575,1,0,0,4.800011516,0.799993575,1,0,0,0,120,120,66,1,,,,,,,,
,,,,,,,,,,,,,FF,,,,,,,,0.8264,,,,,,,,,,,,,,,,,,,,,,60ff5cdcb618e75bb04533a9,61036c99aab5ee4ae6f6b151,2021-07-29_23h06.23.144,Simcolourproject_2stim_asymm_v5,2020.2.10,Win32,60,61025ae37ef11b136ea224fe,,,,,,,,,868,42.40001208,79.19997033,1,0,0,response1disk,,7,11.20001161,7.19999367,1,0,0,rectangle,11.20001161,7.19999367,1,0,0,11.20001161,7.19999367,1,0,0,0,121,121,23,1,,,,,,,,
,,,,,,,,,,,,,FF,,,,,,,,0.7638,,,,,,,,,,,,,,,,,,,,,,60ff5cdcb618e75bb04533a9,61036c99aab5ee4ae6f6b151,2021-07-29_23h06.23.144,Simcolourproject_2stim_asymm_v5,2020.2.10,Win32,60,61025ae37ef11b136ea224fe,,,,,,,,,2365,40.00001204,59.99999446,1,0,0,response1disk,,7,6.400011539,-4.800006509,1,0,0,rectangle,6.400011539,-4.800006509,1,0,0,6.400011539,-4.800006509,1,0,0,0,122,122,126,1,,,,,,,,
,,,,,,,,,,,,,FF,,,,,,,,0.2774,,,,,,,,,,,,,,,,,,,,,,60ff5cdcb618e75bb04533a9,61036c99aab5ee4ae6f6b151,2021-07-29_23h06.23.144,Simcolourproject_2stim_asymm_v5,2020.2.10,Win32,60,61025ae37ef11b136ea224fe,,,,,,,,,2212,36.00001198,66.39999455,1,0,0,response1disk,,7,-5.599988639,-14.40000665,1,0,0,rectangle,-5.599988639,-14.40000665,1,0,0,-5.599988639,-14.40000665,1,0,0,0,123,123,27,1,,,,,,,,
,,,,,,,,,,,,,FF,,,,,,,,0.7639,,,,,,,,,,,,,,,,,,,,,,60ff5cdcb618e75bb04533a9,61036c99aab5ee4ae6f6b151,2021-07-29_23h06.23.144,Simcolourproject_2stim_asymm_v5,2020.2.10,Win32,60,61025ae37ef11b136ea224fe,,,,,,,,,21,31.20001191,57.59999442,1,0,0,response1disk,,7,9.600060415,5.599993646,1,0,0,rectangle,71.20001251,40.79999417,1,0,0,7.200011551,-6.4373E-06,1,0,0,0,124,124,70,1,,response1disk_3,TRUE,6,6,"[91,163,176,178,133,202,137,18,128,81,87,125,275,274,282,126,108,65,125,179]",1.6804,rectangle
,,,,,,,,,,,,,FF,,,,,,,,0.3239,,,,,,,,,,,,,,,,,,,,,,60ff5cdcb618e75bb04533a9,61036c99aab5ee4ae6f6b151,2021-07-29_23h06.23.144,Simcolourproject_2stim_asymm_v5,2020.2.10,Win32,60,61025ae37ef11b136ea224fe,,,,,,,,,2347,37.60006083,63.99999452,1,0,0,response1disk,,7,3.200011492,-8.000006557,1,0,0,rectangle,36.00001198,60.79999447,1,0,0,5.600060356,-5.600006521,1,0,0,0,125,125,144,1,,response1disk_3,TRUE,7,6,"[91,163,176,178,133,202,137,18,128,81,87,125,275,274,282,126,108,65,125,179]",1.3819,rectangle
,,,,,,,,,,,,,FF,,,,,,,,0.2222,,,,,,,,,,,,,,,,,,,,,,60ff5cdcb618e75bb04533a9,61036c99aab5ee4ae6f6b151,2021-07-29_23h06.23.144,Simcolourproject_2stim_asymm_v5,2020.2.10,Win32,60,61025ae37ef11b136ea224fe,,,,,,,,,3311,36.80001199,55.9999944,1,0,0,response1disk,,7,12.00001162,7.999993682,1,0,0,rectangle,12.00001162,7.999993682,1,0,0,12.00001162,7.999993682,1,0,0,0,126,126,59,1,,,,,,,,
,,,,,,,,,,,,,FF,,,,,,,,0.7677,,,,,,,,,,,,,,,,,,,,,,60ff5cdcb618e75bb04533a9,61036c99aab5ee4ae6f6b151,2021-07-29_23h06.23.144,Simcolourproject_2stim_asymm_v5,2020.2.10,Win32,60,61025ae37ef11b136ea224fe,,,,,,,,,3967,84.0000127,35.19996967,1,0,0,response1disk,,6,7.200011551,3.999993622,1,0,0,rectangle,41.60006089,65.59999454,1,0,0,4.800011516,0.799993575,1,0,0,0,127,127,127,1,,response1disk_3,TRUE,7,3,"[91,163,176,178,133,202,137,18,128,81,87,125,275,274,282,126,108,65,125,179]",0.5831,rectangle
,,,,,,,,,,,,,FF,,,,,,,,1.4374,,,,,,,,,,,,,,,,,,,,,,60ff5cdcb618e75bb04533a9,61036c99aab5ee4ae6f6b151,2021-07-29_23h06.23.144,Simcolourproject_2stim_asymm_v5,2020.2.10,Win32,60,61025ae37ef11b136ea224fe,,,,,,,,,171,92.00001281,-44.00000709,1,0,0,response3disk,,5,-3.999988616,-1.600006461,1,0,0,rectangle,-3.999988616,-1.600006461,1,0,0,-3.999988616,-1.600006461,1,0,0,0,128,128,29,1,,,,,,,,
,,,,,,,,,,,,,FF,,,,,,,,0.5555,,,,,,,,,,,,,,,,,,,,,,60ff5cdcb618e75bb04533a9,61036c99aab5ee4ae6f6b151,2021-07-29_23h06.23.144,Simcolourproject_2stim_asymm_v5,2020.2.10,Win32,60,61025ae37ef11b136ea224fe,,,,,,,,,1646,36.80001199,76.79999471,1,0,0,response1disk,,7,12.00001162,6.399993658,1,0,0,rectangle,12.00001162,6.399993658,1,0,0,12.00001162,6.399993658,1,0,0,0,129,129,129,1,,,,,,,,
,,,,,,,,,,,,,FF,,,,,,,,1.1525,,,,,,,,,,,,,,,,,,,,,,60ff5cdcb618e75bb04533a9,61036c99aab5ee4ae6f6b151,2021-07-29_23h06.23.144,Simcolourproject_2stim_asymm_v5,2020.2.10,Win32,60,61025ae37ef11b136ea224fe,,,,,,,,,676,54.40001225,68.79999459,1,0,0,response1disk,,7,8.000011563,8.799993694,1,0,0,rectangle,8.000011563,8.799993694,1,0,0,8.000011563,8.799993694,1,0,0,0,130,130,108,1,,,,,,,,
,,,,,,,,,,,,,FF,,,,,,,,0.347,,,,,,,,,,,,,,,,,,,,,,60ff5cdcb618e75bb04533a9,61036c99aab5ee4ae6f6b151,2021-07-29_23h06.23.144,Simcolourproject_2stim_asymm_v5,2020.2.10,Win32,60,61025ae37ef11b136ea224fe,,,,,,,,,922,51.20001221,91.99999493,1,0,0,response1disk,,7,4.000011504,3.999993622,1,0,0,rectangle,4.000011504,3.999993622,1,0,0,4.000011504,3.999993622,1,0,0,0,131,131,1,1,,,,,,,,
,,,,,,,,,,,,,FF,,,,,,,,0.2675,,,,,,,,,,,,,,,,,,,,,,60ff5cdcb618e75bb04533a9,61036c99aab5ee4ae6f6b151,2021-07-29_23h06.23.144,Simcolourproject_2stim_asymm_v5,2020.2.10,Win32,60,61025ae37ef11b136ea224fe,,,,,,,,,218,33.60006077,61.59999448,1,0,0,response1disk,,7,7.200011551,1.599993587,1,0,0,rectangle,-85.59998983,71.99999464,1,0,0,10.4000116,-9.60000658,1,0,0,0,132,132,93,1,,response7disk_3,TRUE,1,1,"[91,163,176,178,133,202,137,18,128,81,87,125,275,274,282,126,108,65,125,179]",4.4306,rectangle
,,,,,,,,,,,,,FF,,,,,,,,1.3681,,,,,,,,,,,,,,,,,,,,,,60ff5cdcb618e75bb04533a9,61036c99aab5ee4ae6f6b151,2021-07-29_23h06.23.144,Simcolourproject_2stim_asymm_v5,2020.2.10,Win32,60,61025ae37ef11b136ea224fe,,,,,,,,,2100,-79.19998974,42.39999419,1,0,0,response7disk,,1,-6.399939823,-16.00000668,1,0,0,rectangle,-6.399939823,-16.00000668,1,0,0,-6.399939823,-16.00000668,1,0,0,0,133,133,67,1,,,,,,,,
,,,,,,,,,,,,,FF,,,,,,,,0.8888,,,,,,,,,,,,,,,,,,,,,,60ff5cdcb618e75bb04533a9,61036c99aab5ee4ae6f6b151,2021-07-29_23h06.23.144,Simcolourproject_2stim_asymm_v5,2020.2.10,Win32,60,61025ae37ef11b136ea224fe,,,,,,,,,1162,46.40001214,85.59999484,1,0,0,response1disk,,7,-19.99998885,0.799993575,1,0,0,rectangle,-19.99998885,0.799993575,1,0,0,-19.99998885,0.799993575,1,0,0,0,134,134,17,1,,,,,,,,
,,,,,,,,,,,,,FF,,,,,,,,0.8568,,,,,,,,,,,,,,,,,,,,,,60ff5cdcb618e75bb04533a9,61036c99aab5ee4ae6f6b151,2021-07-29_23h06.23.144,Simcolourproject_2stim_asymm_v5,2020.2.10,Win32,60,61025ae37ef11b136ea224fe,,,,,,,,,3538,51.20001221,78.39999473,1,0,0,response1disk,,7,-5.599988639,3.999993622,1,0,0,rectangle,-5.599988639,3.999993622,1,0,0,-5.599988639,3.999993622,1,0,0,0,135,135,98,1,,,,,,,,
,,,,,,,,,,,,,FF,,,,,,,,0.9235,,,,,,,,,,,,,,,,,,,,,,60ff5cdcb618e75bb04533a9,61036c99aab5ee4ae6f6b151,2021-07-29_23h06.23.144,Simcolourproject_2stim_asymm_v5,2020.2.10,Win32,60,61025ae37ef11b136ea224fe,,,,,,,,,2298,-82.39994096,-36.00000697,1,0,0,response5disk,,2,16.00001168,-3.200006485,1,0,0,rectangle,-102.3999413,-40.00000703,1,0,0,6.400011539,3.999993622,1,0,0,0,136,136,89,1,,response5disk_3,TRUE,2,2,"[91,163,176,178,133,202,137,18,128,81,87,125,275,274,282,126,108,65,125,179]",2.1873,rectangle
,,,,,,,,,,,,,FF,,,,,,,,1.1041,,,,,,,,,,,,,,,,,,,,,,60ff5cdcb618e75bb04533a9,61036c99aab5ee4ae6f6b151,2021-07-29_23h06.23.144,Simcolourproject_2stim_asymm_v5,2020.2.10,Win32,60,61025ae37ef11b136ea224fe,,,,,,,,,632,-39.19998914,-65.60000741,1,0,0,response5disk,,3,0.800011456,-6.4373E-06,1,0,0,rectangle,0.800011456,-6.4373E-06,1,0,0,0.800011456,-6.4373E-06,1,0,0,0,137,137,115,1,,,,,,,,
,,,,,,,,,,,,,FF,,,,,,,,0.6528,,,,,,,,,,,,,,,,,,,,,,60ff5cdcb618e75bb04533a9,61036c99aab5ee4ae6f6b151,2021-07-29_23h06.23.144,Simcolourproject_2stim_asymm_v5,2020.2.10,Win32,60,61025ae37ef11b136ea224fe,,,,,,,,,2712,34.40001196,60.79999447,1,0,0,response1disk,,7,-3.999988616,-15.20000666,1,0,0,rectangle,-3.999988616,-15.20000666,1,0,0,-3.999988616,-15.20000666,1,0,0,0,138,138,57,1,,,,,,,,
,,,,,,,,,,,,,FF,,,,,,,,0.7986,,,,,,,,,,,,,,,,,,,,,,60ff5cdcb618e75bb04533a9,61036c99aab5ee4ae6f6b151,2021-07-29_23h06.23.144,Simcolourproject_2stim_asymm_v5,2020.2.10,Win32,60,61025ae37ef11b136ea224fe,,,,,,,,,2792,18.40001172,39.19996973,1,0,0,response1disk,,7,4.800011516,8.799993694,1,0,0,rectangle,4.800011516,8.799993694,1,0,0,4.800011516,8.799993694,1,0,0,0,139,139,122,1,,,,,,,,
,,,,,,,,,,,,,FF,,,,,,,,0.4028,,,,,,,,,,,,,,,,,,,,,,60ff5cdcb618e75bb04533a9,61036c99aab5ee4ae6f6b151,2021-07-29_23h06.23.144,Simcolourproject_2stim_asymm_v5,2020.2.10,Win32,60,61025ae37ef11b136ea224fe,,,,,,,,,385,27.20001185,59.19997003,1,0,0,response1disk,,7,4.000011504,-0.800006449,1,0,0,rectangle,4.000011504,-0.800006449,1,0,0,4.000011504,-0.800006449,1,0,0,0,140,140,14,1,,,,,,,,
,,,,,,,,,,,,,FF,,,,,,,,0.3612,,,,,,,,,,,,,,,,,,,,,,60ff5cdcb618e75bb04533a9,61036c99aab5ee4ae6f6b151,2021-07-29_23h06.23.144,Simcolourproject_2stim_asymm_v5,2020.2.10,Win32,60,61025ae37ef11b136ea224fe,,,,,,,,,1390,29.60006071,51.99999434,1,0,0,response1disk,,7,6.400011539,7.19999367,1,0,0,rectangle,6.400011539,7.19999367,1,0,0,6.400011539,7.19999367,1,0,0,0,141,141,136,1,,,,,,,,
,,,,,,,,,,,,,FF,,,,,,,,0.3722,,,,,,,,,,,,,,,,,,,,,,60ff5cdcb618e75bb04533a9,61036c99aab5ee4ae6f6b151,2021-07-29_23h06.23.144,Simcolourproject_2stim_asymm_v5,2020.2.10,Win32,60,61025ae37ef11b136ea224fe,,,,,,,,,552,30.4000119,56.79999441,1,0,0,response1disk,,7,4.800011516,-6.4373E-06,1,0,0,rectangle,4.800011516,-6.4373E-06,1,0,0,4.800011516,-6.4373E-06,1,0,0,0,142,142,77,1,,,,,,,,
,,,,,,,,,,,,,FF,,,,,,,,0.4445,,,,,,,,,,,,,,,,,,,,,,60ff5cdcb618e75bb04533a9,61036c99aab5ee4ae6f6b151,2021-07-29_23h06.23.144,Simcolourproject_2stim_asymm_v5,2020.2.10,Win32,60,61025ae37ef11b136ea224fe,,,,,,,,,1101,44.0000121,79.19997033,1,0,0,response1disk,,7,0.800011456,-1.600006461,1,0,0,rectangle,0.800011456,-1.600006461,1,0,0,0.800011456,-1.600006461,1,0,0,0,143,143,152,1,,,,,,,,
,,,,,,,,,,,,,FF,,,,,,,,0.4094,,,,,,,,,,,,,,,,,,,,,,60ff5cdcb618e75bb04533a9,61036c99aab5ee4ae6f6b151,2021-07-29_23h06.23.144,Simcolourproject_2stim_asymm_v5,2020.2.10,Win32,60,61025ae37ef11b136ea224fe,,,,,,,,,4124,26.40001184,51.19996991,1,0,0,response1disk,,7,8.000011563,16.79999381,1,0,0,rectangle,8.000011563,16.79999381,1,0,0,8.000011563,16.79999381,1,0,0,0,144,144,87,1,,,,,,,,
,,,,,,,,,,,,,FF,,,,,,,,3.3055,,,,,,,,,,,,,,,,,,,,,,60ff5cdcb618e75bb04533a9,61036c99aab5ee4ae6f6b151,2021-07-29_23h06.23.144,Simcolourproject_2stim_asymm_v5,2020.2.10,Win32,60,61025ae37ef11b136ea224fe,,,,,,,,,2948,35.20001197,68.79999459,1,0,0,response1disk,,7,4.000011504,-10.40000659,1,0,0,rectangle,4.000011504,-10.40000659,1,0,0,4.000011504,-10.40000659,1,0,0,0,145,145,73,1,,,,,,,,
,,,,,,,,,,,,,FF,,,,,,,,0.9792,,,,,,,,,,,,,,,,,,,,,,60ff5cdcb618e75bb04533a9,61036c99aab5ee4ae6f6b151,2021-07-29_23h06.23.144,Simcolourproject_2stim_asymm_v5,2020.2.10,Win32,60,61025ae37ef11b136ea224fe,,,,,,,,,3849,75.20001256,-44.8000071,1,0,0,response3disk,,5,11.20001161,-8.800006568,1,0,0,rectangle,11.20001161,-8.800006568,1,0,0,11.20001161,-8.800006568,1,0,0,0,146,146,110,1,,,,,,,,
,,,,,,,,,,,,,FF,,,,,,,,0.5237,,,,,,,,,,,,,,,,,,,,,,60ff5cdcb618e75bb04533a9,61036c99aab5ee4ae6f6b151,2021-07-29_23h06.23.144,Simcolourproject_2stim_asymm_v5,2020.2.10,Win32,60,61025ae37ef11b136ea224fe,,,,,,,,,3415,44.80001211,69.5999946,1,0,0,response1disk,,7,-14.39993994,-0.800006449,1,0,0,rectangle,-14.39993994,-0.800006449,1,0,0,-14.39993994,-0.800006449,1,0,0,0,147,147,16,1,,,,,,,,
,,,,,,,,,,,,,FF,,,,,,,,1.9097,,,,,,,,,,,,,,,,,,,,,,60ff5cdcb618e75bb04533a9,61036c99aab5ee4ae6f6b151,2021-07-29_23h06.23.144,Simcolourproject_2stim_asymm_v5,2020.2.10,Win32,60,61025ae37ef11b136ea224fe,,,,,,,,,4018,21.60006059,59.99999446,1,0,0,response1disk,,7,-15.19998878,-10.40000659,1,0,0,rectangle,-15.19998878,-10.40000659,1,0,0,-15.19998878,-10.40000659,1,0,0,0,148,148,74,1,,,,,,,,
,,,,,,,,,,,,,FF,,,,,,,,2.2083,,,,,,,,,,,,,,,,,,,,,,60ff5cdcb618e75bb04533a9,61036c99aab5ee4ae6f6b151,2021-07-29_23h06.23.144,Simcolourproject_2stim_asymm_v5,2020.2.10,Win32,60,61025ae37ef11b136ea224fe,,,,,,,,,1791,33.60006077,51.19996991,1,0,0,response1disk,,7,1.600060296,-1.600006461,1,0,0,rectangle,1.600060296,-1.600006461,1,0,0,1.600060296,-1.600006461,1,0,0,0,149,149,71,1,,,,,,,,
,,,,,,,,,,,,,FF,,,,,,,,0.579,,,,,,,,,,,,,,,,,,,,,,60ff5cdcb618e75bb04533a9,61036c99aab5ee4ae6f6b151,2021-07-29_23h06.23.144,Simcolourproject_2stim_asymm_v5,2020.2.10,Win32,60,61025ae37ef11b136ea224fe,,,,,,,,,1647,40.80001205,99.19997063,1,0,0,response1disk,,7,1.14441E-05,7.999993682,1,0,0,rectangle,1.14441E-05,7.999993682,1,0,0,1.14441E-05,7.999993682,1,0,0,0,150,150,100,1,,,,,,,,
,,,,,,,,,,,,,FF,,,,,,,,0.5873,,,,,,,,,,,,,,,,,,,,,,60ff5cdcb618e75bb04533a9,61036c99aab5ee4ae6f6b151,2021-07-29_23h06.23.144,Simcolourproject_2stim_asymm_v5,2020.2.10,Win32,60,61025ae37ef11b136ea224fe,,,,,,,,,1348,31.20001191,60.79999447,1,0,0,response1disk,,7,6.400011539,-1.600006461,1,0,0,rectangle,6.400011539,-1.600006461,1,0,0,6.400011539,-1.600006461,1,0,0,0,151,151,92,1,,,,,,,,
,,,,,,,,,,,,,FF,,,,,,,,2.9792,,,,,,,,,,,,,,,,,,,,,,60ff5cdcb618e75bb04533a9,61036c99aab5ee4ae6f6b151,2021-07-29_23h06.23.144,Simcolourproject_2stim_asymm_v5,2020.2.10,Win32,60,61025ae37ef11b136ea224fe,,,,,,,,,2028,58.40001231,75.9999947,1,0,0,response1disk,,7,-7.199988663,-8.800006568,1,0,0,rectangle,-7.199988663,-8.800006568,1,0,0,-7.199988663,-8.800006568,1,0,0,0,152,152,103,1,,,,,,,,
,,,,,,,,,,,,,FF,,,,,,,,0.4262,,,,,,,,,,,,,,,,,,,,,,60ff5cdcb618e75bb04533a9,61036c99aab5ee4ae6f6b151,2021-07-29_23h06.23.144,Simcolourproject_2stim_asymm_v5,2020.2.10,Win32,60,61025ae37ef11b136ea224fe,,,,,,,,,1942,34.40001196,50.39999431,1,0,0,response1disk,,7,1.600060296,0.799993575,1,0,0,rectangle,1.600060296,0.799993575,1,0,0,1.600060296,0.799993575,1,0,0,0,153,153,95,1,,,,,,,,
,,,,,,,,,,,,,FF,,,,,,,,0.5803,,,,,,,,,,,,,,,,,,,,,,60ff5cdcb618e75bb04533a9,61036c99aab5ee4ae6f6b151,2021-07-29_23h06.23.144,Simcolourproject_2stim_asymm_v5,2020.2.10,Win32,60,61025ae37ef11b136ea224fe,,,,,,,,,498,36.80001199,59.99999446,1,0,0,response1disk,,7,14.40001166,7.19999367,1,0,0,rectangle,14.40001166,7.19999367,1,0,0,14.40001166,7.19999367,1,0,0,0,154,154,101,1,,,,,,,,
,,,,,,,,,,,,,FF,,,,,,,,0.4583,,,,,,,,,,,,,,,,,,,,,,60ff5cdcb618e75bb04533a9,61036c99aab5ee4ae6f6b151,2021-07-29_23h06.23.144,Simcolourproject_2stim_asymm_v5,2020.2.10,Win32,60,61025ae37ef11b136ea224fe,,,,,,,,,1208,44.80001211,67.19997015,1,0,0,response1disk,,7,-7.999988675,-16.00000668,1,0,0,rectangle,-7.999988675,-16.00000668,1,0,0,-7.999988675,-16.00000668,1,0,0,0,155,155,155,1,,,,,,,,
,,,,,,,,,,,,,FF,,,,,,,,0.4026,,,,,,,,,,,,,,,,,,,,,,60ff5cdcb618e75bb04533a9,61036c99aab5ee4ae6f6b151,2021-07-29_23h06.23.144,Simcolourproject_2stim_asymm_v5,2020.2.10,Win32,60,61025ae37ef11b136ea224fe,,,,,,,,,725,39.20001203,58.39999443,1,0,0,response1disk,,7,7.200011551,3.19999361,1,0,0,rectangle,7.200011551,3.19999361,1,0,0,7.200011551,3.19999361,1,0,0,0,156,156,65,1,,,,,,,,
,,,,,,,,,,,,,FF,,,,,,,,0.3332,,,,,,,,,,,,,,,,,,,,,,60ff5cdcb618e75bb04533a9,61036c99aab5ee4ae6f6b151,2021-07-29_23h06.23.144,Simcolourproject_2stim_asymm_v5,2020.2.10,Win32,60,61025ae37ef11b136ea224fe,,,,,,,,,3723,31.20001191,46.39999425,1,0,0,response1disk,,7,4.000011504,1.599993587,1,0,0,rectangle,4.000011504,1.599993587,1,0,0,4.000011504,1.599993587,1,0,0,0,157,157,50,1,,,,,,,,
,,,,,,,,,,,,,FF,,,,,,,,0.354,,,,,,,,,,,,,,,,,,,,,,60ff5cdcb618e75bb04533a9,61036c99aab5ee4ae6f6b151,2021-07-29_23h06.23.144,Simcolourproject_2stim_asymm_v5,2020.2.10,Win32,60,61025ae37ef11b136ea224fe,,,,,,,,,1414,22.40001178,57.59999442,1,0,0,response1disk,,7,-0.799988568,-6.4373E-06,1,0,0,rectangle,-0.799988568,-6.4373E-06,1,0,0,-0.799988568,-6.4373E-06,1,0,0,0,158,158,116,1,,,,,,,,
,,,,,,,,,,,,,FF,,,,,,,,0.5164,,,,,,,,,,,,,,,,,,,,,,60ff5cdcb618e75bb04533a9,61036c99aab5ee4ae6f6b151,2021-07-29_23h06.23.144,Simcolourproject_2stim_asymm_v5,2020.2.10,Win32,60,61025ae37ef11b136ea224fe,,,,,,,,,4286,36.00001198,77.59999472,1,0,0,response1disk,,7,4.800011516,11.99999374,1,0,0,rectangle,4.800011516,11.99999374,1,0,0,4.800011516,11.99999374,1,0,0,0,159,159,140,1,,,,,,,,
,,,,,,,,,,,,,FF,,,,,,,,0.3124,,,,,,,,,,,,,,,,,,,,,,60ff5cdcb618e75bb04533a9,61036c99aab5ee4ae6f6b151,2021-07-29_23h06.23.144,Simcolourproject_2stim_asymm_v5,2020.2.10,Win32,60,61025ae37ef11b136ea224fe,,,,,,,,,1710,29.60006071,60.79999447,1,0,0,response1disk,,7,0.800011456,7.999993682,1,0,0,rectangle,0.800011456,7.999993682,1,0,0,0.800011456,7.999993682,1,0,0,1,0,160,51,1,,,,,,,,
,,,,,,,,,,,,,FF,,,,,,,,0.3819,,,,,,,,,,,,,,,,,,,,,,60ff5cdcb618e75bb04533a9,61036c99aab5ee4ae6f6b151,2021-07-29_23h06.23.144,Simcolourproject_2stim_asymm_v5,2020.2.10,Win32,60,61025ae37ef11b136ea224fe,,,,,,,,,432,37.60006083,64.79999453,1,0,0,response1disk,,7,-2.399939764,1.599993587,1,0,0,rectangle,-2.399939764,1.599993587,1,0,0,-2.399939764,1.599993587,1,0,0,1,1,161,123,1,,,,,,,,
,,,,,,,,,,,,,FF,,,,,,,,2.0585,,,,,,,,,,,,,,,,,,,,,,60ff5cdcb618e75bb04533a9,61036c99aab5ee4ae6f6b151,2021-07-29_23h06.23.144,Simcolourproject_2stim_asymm_v5,2020.2.10,Win32,60,61025ae37ef11b136ea224fe,,,,,,,,,1067,24.0000118,68.79999459,1,0,0,response1disk,,7,-0.799988568,3.999993622,1,0,0,rectangle,21.60006059,-93.60005666,1,0,0,1.600060296,11.19999373,1,0,0,1,2,162,20,1,,response3disk_3,TRUE,4,4,"[91,163,176,178,133,202,137,18,128,81,87,125,275,274,282,126,108,65,125,179]",1.7711,rectangle
,,,,,,,,,,,,,FF,,,,,,,,0.3334,,,,,,,,,,,,,,,,,,,,,,60ff5cdcb618e75bb04533a9,61036c99aab5ee4ae6f6b151,2021-07-29_23h06.23.144,Simcolourproject_2stim_asymm_v5,2020.2.10,Win32,60,61025ae37ef11b136ea224fe,,,,,,,,,2514,32.80001193,64.79999453,1,0,0,response1disk,,7,-7.999988675,-10.40000659,1,0,0,rectangle,-7.999988675,-10.40000659,1,0,0,-7.999988675,-10.40000659,1,0,0,1,3,163,29,1,,,,,,,,
,,,,,,,,,,,,,FF,,,,,,,,0.3055,,,,,,,,,,,,,,,,,,,,,,60ff5cdcb618e75bb04533a9,61036c99aab5ee4ae6f6b151,2021-07-29_23h06.23.144,Simcolourproject_2stim_asymm_v5,2020.2.10,Win32,60,61025ae37ef11b136ea224fe,,,,,,,,,549,35.20001197,54.39999437,1,0,0,response1disk,,7,-4.799988627,-9.60000658,1,0,0,rectangle,-4.799988627,-9.60000658,1,0,0,-4.799988627,-9.60000658,1,0,0,1,4,164,28,1,,,,,,,,
,,,,,,,,,,,,,FF,,,,,,,,0.3122,,,,,,,,,,,,,,,,,,,,,,60ff5cdcb618e75bb04533a9,61036c99aab5ee4ae6f6b151,2021-07-29_23h06.23.144,Simcolourproject_2stim_asymm_v5,2020.2.10,Win32,60,61025ae37ef11b136ea224fe,,,,,,,,,2540,29.60006071,57.59999442,1,0,0,response1disk,,7,-4.799988627,9.599993706,1,0,0,rectangle,-4.799988627,9.599993706,1,0,0,-4.799988627,9.599993706,1,0,0,1,5,165,2,1,,,,,,,,
,,,,,,,,,,,,,FF,,,,,,,,0.3124,,,,,,,,,,,,,,,,,,,,,,60ff5cdcb618e75bb04533a9,61036c99aab5ee4ae6f6b151,2021-07-29_23h06.23.144,Simcolourproject_2stim_asymm_v5,2020.2.10,Win32,60,61025ae37ef11b136ea224fe,,,,,,,,,3017,33.60006077,53.59999436,1,0,0,response1disk,,7,2.40001148,4.799993634,1,0,0,rectangle,2.40001148,4.799993634,1,0,0,2.40001148,4.799993634,1,0,0,1,6,166,31,1,,,,,,,,
,,,,,,,,,,,,,FF,,,,,,,,0.2917,,,,,,,,,,,,,,,,,,,,,,60ff5cdcb618e75bb04533a9,61036c99aab5ee4ae6f6b151,2021-07-29_23h06.23.144,Simcolourproject_2stim_asymm_v5,2020.2.10,Win32,60,61025ae37ef11b136ea224fe,,,,,,,,,1334,28.80001187,52.79999435,1,0,0,response1disk,,7,4.000011504,7.19999367,1,0,0,rectangle,4.000011504,7.19999367,1,0,0,4.000011504,7.19999367,1,0,0,1,7,167,99,1,,,,,,,,
,,,,,,,,,,,,,FF,,,,,,,,0.4582,,,,,,,,,,,,,,,,,,,,,,60ff5cdcb618e75bb04533a9,61036c99aab5ee4ae6f6b151,2021-07-29_23h06.23.144,Simcolourproject_2stim_asymm_v5,2020.2.10,Win32,60,61025ae37ef11b136ea224fe,,,,,,,,,200,31.20001191,61.59999448,1,0,0,response1disk,,7,3.200011492,-0.800006449,1,0,0,rectangle,3.200011492,-0.800006449,1,0,0,3.200011492,-0.800006449,1,0,0,1,8,168,34,1,,,,,,,,
,,,,,,,,,,,,,FF,,,,,,,,0.2918,,,,,,,,,,,,,,,,,,,,,,60ff5cdcb618e75bb04533a9,61036c99aab5ee4ae6f6b151,2021-07-29_23h06.23.144,Simcolourproject_2stim_asymm_v5,2020.2.10,Win32,60,61025ae37ef11b136ea224fe,,,,,,,,,2062,42.40001208,64.79999453,1,0,0,response1disk,,7,11.20001161,5.599993646,1,0,0,rectangle,11.20001161,5.599993646,1,0,0,11.20001161,5.599993646,1,0,0,1,9,169,154,1,,,,,,,,
,,,,,,,,,,,,,FF,,,,,,,,0.4375,,,,,,,,,,,,,,,,,,,,,,60ff5cdcb618e75bb04533a9,61036c99aab5ee4ae6f6b151,2021-07-29_23h06.23.144,Simcolourproject_2stim_asymm_v5,2020.2.10,Win32,60,61025ae37ef11b136ea224fe,,,,,,,,,1638,52.80001223,75.9999947,1,0,0,response1disk,,7,2.40001148,3.19999361,1,0,0,rectangle,2.40001148,3.19999361,1,0,0,2.40001148,3.19999361,1,0,0,1,10,170,147,1,,,,,,,,
,,,,,,,,,,,,,FF,,,,,,,,0.2983,,,,,,,,,,,,,,,,,,,,,,60ff5cdcb618e75bb04533a9,61036c99aab5ee4ae6f6b151,2021-07-29_23h06.23.144,Simcolourproject_2stim_asymm_v5,2020.2.10,Win32,60,61025ae37ef11b136ea224fe,,,,,,,,,527,38.40001202,55.19996997,1,0,0,response1disk,,7,5.600060356,-6.4373E-06,1,0,0,rectangle,5.600060356,-6.4373E-06,1,0,0,5.600060356,-6.4373E-06,1,0,0,1,11,171,60,1,,,,,,,,
,,,,,,,,,,,,,FF,,,,,,,,0.3128,,,,,,,,,,,,,,,,,,,,,,60ff5cdcb618e75bb04533a9,61036c99aab5ee4ae6f6b151,2021-07-29_23h06.23.144,Simcolourproject_2stim_asymm_v5,2020.2.10,Win32,60,61025ae37ef11b136ea224fe,,,,,,,,,841,51.20001221,73.59999466,1,0,0,response1disk,,7,5.600060356,13.59999377,1,0,0,rectangle,5.600060356,13.59999377,1,0,0,5.600060356,13.59999377,1,0,0,1,12,172,77,1,,,,,,,,
,,,,,,,,,,,,,FF,,,,,,,,0.2986,,,,,,,,,,,,,,,,,,,,,,60ff5cdcb618e75bb04533a9,61036c99aab5ee4ae6f6b151,2021-07-29_23h06.23.144,Simcolourproject_2stim_asymm_v5,2020.2.10,Win32,60,61025ae37ef11b136ea224fe,,,,,,,,,1997,43.20001209,70.39999461,1,0,0,response1disk,,7,9.600060415,-3.200006485,1,0,0,rectangle,9.600060415,-3.200006485,1,0,0,9.600060415,-3.200006485,1,0,0,1,13,173,158,1,,,,,,,,
,,,,,,,,,,,,,FF,,,,,,,,0.6389,,,,,,,,,,,,,,,,,,,,,,60ff5cdcb618e75bb04533a9,61036c99aab5ee4ae6f6b151,2021-07-29_23h06.23.144,Simcolourproject_2stim_asymm_v5,2020.2.10,Win32,60,61025ae37ef11b136ea224fe,,,,,,,,,1839,43.20001209,63.19997009,1,0,0,response1disk,,7,14.40001166,-4.000006497,1,0,0,rectangle,14.40001166,-4.000006497,1,0,0,14.40001166,-4.000006497,1,0,0,1,14,174,94,1,,,,,,,,
,,,,,,,,,,,,,FF,,,,,,,,0.2776,,,,,,,,,,,,,,,,,,,,,,60ff5cdcb618e75bb04533a9,61036c99aab5ee4ae6f6b151,2021-07-29_23h06.23.144,Simcolourproject_2stim_asymm_v5,2020.2.10,Win32,60,61025ae37ef11b136ea224fe,,,,,,,,,3502,40.00001204,47.19996985,1,0,0,response1disk,,7,1.600060296,8.799993694,1,0,0,rectangle,27.20001185,71.19997021,1,0,0,8.000011563,11.99999374,1,0,0,1,15,175,8,1,,response1disk_3,TRUE,7,7,"[91,163,176,178,133,202,137,18,128,81,87,125,275,274,282,126,108,65,125,179]",1.854,rectangle
,,,,,,,,,,,,,FF,,,,,,,,0.8124,,,,,,,,,,,,,,,,,,,,,,60ff5cdcb618e75bb04533a9,61036c99aab5ee4ae6f6b151,2021-07-29_23h06.23.144,Simcolourproject_2stim_asymm_v5,2020.2.10,Win32,60,61025ae37ef11b136ea224fe,,,,,,,,,2085,46.40001214,75.9999947,1,0,0,response1disk,,7,4.000011504,-15.20000666,1,0,0,rectangle,4.000011504,-15.20000666,1,0,0,4.000011504,-15.20000666,1,0,0,1,16,176,74,1,,,,,,,,
,,,,,,,,,,,,,FF,,,,,,,,1.0902,,,,,,,,,,,,,,,,,,,,,,60ff5cdcb618e75bb04533a9,61036c99aab5ee4ae6f6b151,2021-07-29_23h06.23.144,Simcolourproject_2stim_asymm_v5,2020.2.10,Win32,60,61025ae37ef11b136ea224fe,,,,,,,,,2094,76.80001259,46.39999425,1,0,0,response1disk,,6,24.0000118,-6.4373E-06,1,0,0,rectangle,-38.3999403,-64.8000074,1,0,0,-0.799988568,2.399993598,1,0,0,1,17,177,144,1,,response5disk_3,TRUE,3,3,"[91,163,176,178,133,202,137,18,128,81,87,125,275,274,282,126,108,65,125,179]",1.7991,rectangle
,,,,,,,,,,,,,FF,,,,,,,,0.3609,,,,,,,,,,,,,,,,,,,,,,60ff5cdcb618e75bb04533a9,61036c99aab5ee4ae6f6b151,2021-07-29_23h06.23.144,Simcolourproject_2stim_asymm_v5,2020.2.10,Win32,60,61025ae37ef11b136ea224fe,,,,,,,,,3454,24.80001181,51.19996991,1,0,0,response1disk,,7,3.200011492,-1.600006461,1,0,0,rectangle,107.200013,49.5999943,1,0,0,17.60006053,-6.4373E-06,1,0,0,1,18,178,128,1,,response1disk_3,TRUE,6,6,"[91,163,176,178,133,202,137,18,128,81,87,125,275,274,282,126,108,65,125,179]",1.9998,rectangle
,,,,,,,,,,,,,FF,,,,,,,,0.6874,,,,,,,,,,,,,,,,,,,,,,60ff5cdcb618e75bb04533a9,61036c99aab5ee4ae6f6b151,2021-07-29_23h06.23.144,Simcolourproject_2stim_asymm_v5,2020.2.10,Win32,60,61025ae37ef11b136ea224fe,,,,,,,,,3152,49.60006101,76.79999471,1,0,0,response1disk,,7,-0.799988568,-0.800006449,1,0,0,rectangle,-0.799988568,-0.800006449,1,0,0,-0.799988568,-0.800006449,1,0,0,1,19,179,159,1,,,,,,,,
,,,,,,,,,,,,,FF,,,,,,,,0.326,,,,,,,,,,,,,,,,,,,,,,60ff5cdcb618e75bb04533a9,61036c99aab5ee4ae6f6b151,2021-07-29_23h06.23.144,Simcolourproject_2stim_asymm_v5,2020.2.10,Win32,60,61025ae37ef11b136ea224fe,,,,,,,,,1369,32.00001192,53.59999436,1,0,0,response1disk,,7,8.000011563,11.99999374,1,0,0,rectangle,8.000011563,11.99999374,1,0,0,8.000011563,11.99999374,1,0,0,1,20,180,85,1,,,,,,,,
,,,,,,,,,,,,,FF,,,,,,,,0.2846,,,,,,,,,,,,,,,,,,,,,,60ff5cdcb618e75bb04533a9,61036c99aab5ee4ae6f6b151,2021-07-29_23h06.23.144,Simcolourproject_2stim_asymm_v5,2020.2.10,Win32,60,61025ae37ef11b136ea224fe,,,,,,,,,3637,32.00001192,59.19997003,1,0,0,response1disk,,7,6.400011539,11.99999374,1,0,0,rectangle,6.400011539,11.99999374,1,0,0,6.400011539,11.99999374,1,0,0,1,21,181,58,1,,,,,,,,
,,,,,,,,,,,,,FF,,,,,,,,0.5557,,,,,,,,,,,,,,,,,,,,,,60ff5cdcb618e75bb04533a9,61036c99aab5ee4ae6f6b151,2021-07-29_23h06.23.144,Simcolourproject_2stim_asymm_v5,2020.2.10,Win32,60,61025ae37ef11b136ea224fe,,,,,,,,,4267,29.60006071,49.5999943,1,0,0,response1disk,,7,8.000011563,8.799993694,1,0,0,rectangle,8.000011563,8.799993694,1,0,0,8.000011563,8.799993694,1,0,0,1,22,182,131,1,,,,,,,,
,,,,,,,,,,,,,FF,,,,,,,,0.3054,,,,,,,,,,,,,,,,,,,,,,60ff5cdcb618e75bb04533a9,61036c99aab5ee4ae6f6b151,2021-07-29_23h06.23.144,Simcolourproject_2stim_asymm_v5,2020.2.10,Win32,60,61025ae37ef11b136ea224fe,,,,,,,,,2213,31.20001191,59.19997003,1,0,0,response1disk,,7,1.14441E-05,-5.600006521,1,0,0,rectangle,1.14441E-05,-5.600006521,1,0,0,1.14441E-05,-5.600006521,1,0,0,1,23,183,0,1,,,,,,,,
,,,,,,,,,,,,,FF,,,,,,,,0.3195,,,,,,,,,,,,,,,,,,,,,,60ff5cdcb618e75bb04533a9,61036c99aab5ee4ae6f6b151,2021-07-29_23h06.23.144,Simcolourproject_2stim_asymm_v5,2020.2.10,Win32,60,61025ae37ef11b136ea224fe,,,,,,,,,394,41.60006089,58.39999443,1,0,0,response1disk,,7,8.000011563,-1.600006461,1,0,0,rectangle,8.000011563,-1.600006461,1,0,0,8.000011563,-1.600006461,1,0,0,1,24,184,152,1,,,,,,,,
,,,,,,,,,,,,,FF,,,,,,,,0.2569,,,,,,,,,,,,,,,,,,,,,,60ff5cdcb618e75bb04533a9,61036c99aab5ee4ae6f6b151,2021-07-29_23h06.23.144,Simcolourproject_2stim_asymm_v5,2020.2.10,Win32,60,61025ae37ef11b136ea224fe,,,,,,,,,1994,39.20001203,59.99999446,1,0,0,response1disk,,7,9.600060415,6.399993658,1,0,0,rectangle,9.600060415,6.399993658,1,0,0,9.600060415,6.399993658,1,0,0,1,25,185,4,1,,,,,,,,
,,,,,,,,,,,,,FF,,,,,,,,0.6805,,,,,,,,,,,,,,,,,,,,,,60ff5cdcb618e75bb04533a9,61036c99aab5ee4ae6f6b151,2021-07-29_23h06.23.144,Simcolourproject_2stim_asymm_v5,2020.2.10,Win32,60,61025ae37ef11b136ea224fe,,,,,,,,,2025,-40.79998916,82.39999479,1,0,0,response7disk,,0,-5.599988639,11.99999374,1,0,0,rectangle,-5.599988639,11.99999374,1,0,0,-5.599988639,11.99999374,1,0,0,1,26,186,5,1,,,,,,,,
,,,,,,,,,,,,,FF,,,,,,,,0.2847,,,,,,,,,,,,,,,,,,,,,,60ff5cdcb618e75bb04533a9,61036c99aab5ee4ae6f6b151,2021-07-29_23h06.23.144,Simcolourproject_2stim_asymm_v5,2020.2.10,Win32,60,61025ae37ef11b136ea224fe,,,,,,,,,593,32.80001193,70.39999461,1,0,0,response1disk,,7,2.40001148,14.39999378,1,0,0,rectangle,2.40001148,14.39999378,1,0,0,2.40001148,14.39999378,1,0,0,1,27,187,46,1,,,,,,,,
,,,,,,,,,,,,,FF,,,,,,,,0.9305,,,,,,,,,,,,,,,,,,,,,,60ff5cdcb618e75bb04533a9,61036c99aab5ee4ae6f6b151,2021-07-29_23h06.23.144,Simcolourproject_2stim_asymm_v5,2020.2.10,Win32,60,61025ae37ef11b136ea224fe,,,,,,,,,4346,87.20001274,-38.40000701,1,0,0,response3disk,,5,24.0000118,-7.200006545,1,0,0,rectangle,24.0000118,-7.200006545,1,0,0,24.0000118,-7.200006545,1,0,0,1,28,188,89,1,,,,,,,,
,,,,,,,,,,,,,FF,,,,,,,,0.4862,,,,,,,,,,,,,,,,,,,,,,60ff5cdcb618e75bb04533a9,61036c99aab5ee4ae6f6b151,2021-07-29_23h06.23.144,Simcolourproject_2stim_asymm_v5,2020.2.10,Win32,60,61025ae37ef11b136ea224fe,,,,,,,,,1511,44.80001211,71.99999464,1,0,0,response1disk,,7,8.800011575,4.799993634,1,0,0,rectangle,8.800011575,4.799993634,1,0,0,8.800011575,4.799993634,1,0,0,1,29,189,7,1,,,,,,,,
,,,,,,,,,,,,,FF,,,,,,,,0.2501,,,,,,,,,,,,,,,,,,,,,,60ff5cdcb618e75bb04533a9,61036c99aab5ee4ae6f6b151,2021-07-29_23h06.23.144,Simcolourproject_2stim_asymm_v5,2020.2.10,Win32,60,61025ae37ef11b136ea224fe,,,,,,,,,3265,43.20001209,78.39999473,1,0,0,response1disk,,7,5.600060356,-1.600006461,1,0,0,rectangle,5.600060356,-1.600006461,1,0,0,5.600060356,-1.600006461,1,0,0,1,30,190,37,1,,,,,,,,
,,,,,,,,,,,,,FF,,,,,,,,0.2012,,,,,,,,,,,,,,,,,,,,,,60ff5cdcb618e75bb04533a9,61036c99aab5ee4ae6f6b151,2021-07-29_23h06.23.144,Simcolourproject_2stim_asymm_v5,2020.2.10,Win32,60,61025ae37ef11b136ea224fe,,,,,,,,,1846,44.80001211,53.59999436,1,0,0,response1disk,,7,-7.199988663,-14.40000665,1,0,0,rectangle,-7.199988663,-14.40000665,1,0,0,-7.199988663,-14.40000665,1,0,0,1,31,191,48,1,,,,,,,,
,,,,,,,,,,,,,FF,,,,,,,,0.2776,,,,,,,,,,,,,,,,,,,,,,60ff5cdcb618e75bb04533a9,61036c99aab5ee4ae6f6b151,2021-07-29_23h06.23.144,Simcolourproject_2stim_asymm_v5,2020.2.10,Win32,60,61025ae37ef11b136ea224fe,,,,,,,,,3611,36.80001199,60.79999447,1,0,0,response1disk,,7,6.400011539,-7.200006545,1,0,0,rectangle,6.400011539,-7.200006545,1,0,0,6.400011539,-7.200006545,1,0,0,1,32,192,102,1,,,,,,,,
,,,,,,,,,,,,,FF,,,,,,,,0.3817,,,,,,,,,,,,,,,,,,,,,,60ff5cdcb618e75bb04533a9,61036c99aab5ee4ae6f6b151,2021-07-29_23h06.23.144,Simcolourproject_2stim_asymm_v5,2020.2.10,Win32,60,61025ae37ef11b136ea224fe,,,,,,,,,31,36.80001199,71.19997021,1,0,0,response1disk,,7,4.000011504,-6.4373E-06,1,0,0,rectangle,4.000011504,-6.4373E-06,1,0,0,4.000011504,-6.4373E-06,1,0,0,1,33,193,106,1,,,,,,,,
,,,,,,,,,,,,,FF,,,,,,,,0.4376,,,,,,,,,,,,,,,,,,,,,,60ff5cdcb618e75bb04533a9,61036c99aab5ee4ae6f6b151,2021-07-29_23h06.23.144,Simcolourproject_2stim_asymm_v5,2020.2.10,Win32,60,61025ae37ef11b136ea224fe,,,,,,,,,315,38.40001202,69.5999946,1,0,0,response1disk,,7,7.200011551,-7.200006545,1,0,0,rectangle,7.200011551,-7.200006545,1,0,0,7.200011551,-7.200006545,1,0,0,1,34,194,90,1,,,,,,,,
,,,,,,,,,,,,,FF,,,,,,,,0.7291,,,,,,,,,,,,,,,,,,,,,,60ff5cdcb618e75bb04533a9,61036c99aab5ee4ae6f6b151,2021-07-29_23h06.23.144,Simcolourproject_2stim_asymm_v5,2020.2.10,Win32,60,61025ae37ef11b136ea224fe,,,,,,,,,2951,74.40001255,33.59999406,1,0,0,response1disk,,6,23.20001179,-4.000006497,1,0,0,rectangle,23.20001179,-4.000006497,1,0,0,23.20001179,-4.000006497,1,0,0,1,35,195,42,1,,,,,,,,
,,,,,,,,,,,,,FF,,,,,,,,0.2499,,,,,,,,,,,,,,,,,,,,,,60ff5cdcb618e75bb04533a9,61036c99aab5ee4ae6f6b151,2021-07-29_23h06.23.144,Simcolourproject_2stim_asymm_v5,2020.2.10,Win32,60,61025ae37ef11b136ea224fe,,,,,,,,,86,42.40001208,55.9999944,1,0,0,response1disk,,7,10.4000116,8.799993694,1,0,0,rectangle,10.4000116,8.799993694,1,0,0,10.4000116,8.799993694,1,0,0,1,36,196,21,1,,,,,,,,
,,,,,,,,,,,,,FF,,,,,,,,0.979,,,,,,,,,,,,,,,,,,,,,,60ff5cdcb618e75bb04533a9,61036c99aab5ee4ae6f6b151,2021-07-29_23h06.23.144,Simcolourproject_2stim_asymm_v5,2020.2.10,Win32,60,61025ae37ef11b136ea224fe,,,,,,,,,2775,-47.99998927,71.99999464,1,0,0,response7disk,,0,2.40001148,-9.60000658,1,0,0,rectangle,2.40001148,-9.60000658,1,0,0,2.40001148,-9.60000658,1,0,0,1,37,197,27,1,,,,,,,,
,,,,,,,,,,,,,FF,,,,,,,,0.2915,,,,,,,,,,,,,,,,,,,,,,60ff5cdcb618e75bb04533a9,61036c99aab5ee4ae6f6b151,2021-07-29_23h06.23.144,Simcolourproject_2stim_asymm_v5,2020.2.10,Win32,60,61025ae37ef11b136ea224fe,,,,,,,,,3009,40.00001204,86.39999485,1,0,0,response1disk,,7,-6.399939823,-4.000006497,1,0,0,rectangle,-6.399939823,-4.000006497,1,0,0,-6.399939823,-4.000006497,1,0,0,1,38,198,38,1,,,,,,,,
,,,,,,,,,,,,,FF,,,,,,,,1.8471,,,,,,,,,,,,,,,,,,,,,,60ff5cdcb618e75bb04533a9,61036c99aab5ee4ae6f6b151,2021-07-29_23h06.23.144,Simcolourproject_2stim_asymm_v5,2020.2.10,Win32,60,61025ae37ef11b136ea224fe,,,,,,,,,3475,-38.3999403,-85.60005654,1,0,0,response5disk,,3,16.00001168,-1.600006461,1,0,0,rectangle,16.00001168,-1.600006461,1,0,0,16.00001168,-1.600006461,1,0,0,1,39,199,10,1,,,,,,,,
,,,,,,,,,,,,,FF,,,,,,,,1.021,,,,,,,,,,,,,,,,,,,,,,60ff5cdcb618e75bb04533a9,61036c99aab5ee4ae6f6b151,2021-07-29_23h06.23.144,Simcolourproject_2stim_asymm_v5,2020.2.10,Win32,60,61025ae37ef11b136ea224fe,,,,,,,,,2999,82.40001267,61.59999448,1,0,0,response1disk,,6,11.20001161,-6.4373E-06,1,0,0,rectangle,11.20001161,-6.4373E-06,1,0,0,11.20001161,-6.4373E-06,1,0,0,1,40,200,80,1,,,,,,,,
,,,,,,,,,,,,,FF,,,,,,,,0.2218,,,,,,,,,,,,,,,,,,,,,,60ff5cdcb618e75bb04533a9,61036c99aab5ee4ae6f6b151,2021-07-29_23h06.23.144,Simcolourproject_2stim_asymm_v5,2020.2.10,Win32,60,61025ae37ef11b136ea224fe,,,,,,,,,3926,34.40001196,71.19997021,1,0,0,response1disk,,7,1.600060296,5.599993646,1,0,0,rectangle,-54.39994054,95.99999499,1,0,0,24.80001181,5.599993646,1,0,0,1,41,201,56,1,,response7disk_3,TRUE,0,0,"[91,163,176,178,133,202,137,18,128,81,87,125,275,274,282,126,108,65,125,179]",1.479,rectangle
,,,,,,,,,,,,,FF,,,,,,,,0.5209,,,,,,,,,,,,,,,,,,,,,,60ff5cdcb618e75bb04533a9,61036c99aab5ee4ae6f6b151,2021-07-29_23h06.23.144,Simcolourproject_2stim_asymm_v5,2020.2.10,Win32,60,61025ae37ef11b136ea224fe,,,,,,,,,490,41.60006089,71.19997021,1,0,0,response1disk,,7,-3.999988616,-14.40000665,1,0,0,rectangle,-3.999988616,-14.40000665,1,0,0,-3.999988616,-14.40000665,1,0,0,1,42,202,96,1,,,,,,,,
,,,,,,,,,,,,,FF,,,,,,,,0.8402,,,,,,,,,,,,,,,,,,,,,,60ff5cdcb618e75bb04533a9,61036c99aab5ee4ae6f6b151,2021-07-29_23h06.23.144,Simcolourproject_2stim_asymm_v5,2020.2.10,Win32,60,61025ae37ef11b136ea224fe,,,,,,,,,98,37.60006083,71.19997021,1,0,0,response1disk,,7,8.000011563,-6.4373E-06,1,0,0,rectangle,8.000011563,-6.4373E-06,1,0,0,8.000011563,-6.4373E-06,1,0,0,1,43,203,149,1,,,,,,,,
,,,,,,,,,,,,,FF,,,,,,,,0.2359,,,,,,,,,,,,,,,,,,,,,,60ff5cdcb618e75bb04533a9,61036c99aab5ee4ae6f6b151,2021-07-29_23h06.23.144,Simcolourproject_2stim_asymm_v5,2020.2.10,Win32,60,61025ae37ef11b136ea224fe,,,,,,,,,335,34.40001196,69.5999946,1,0,0,response1disk,,7,3.200011492,10.39999372,1,0,0,rectangle,3.200011492,10.39999372,1,0,0,3.200011492,10.39999372,1,0,0,1,44,204,33,1,,,,,,,,
,,,,,,,,,,,,,FF,,,,,,,,0.8263,,,,,,,,,,,,,,,,,,,,,,60ff5cdcb618e75bb04533a9,61036c99aab5ee4ae6f6b151,2021-07-29_23h06.23.144,Simcolourproject_2stim_asymm_v5,2020.2.10,Win32,60,61025ae37ef11b136ea224fe,,,,,,,,,3942,71.20001251,-50.40000719,1,0,0,response3disk,,5,20.00001174,3.19999361,1,0,0,rectangle,20.00001174,3.19999361,1,0,0,20.00001174,3.19999361,1,0,0,1,45,205,18,1,,,,,,,,
,,,,,,,,,,,,,FF,,,,,,,,0.3123,,,,,,,,,,,,,,,,,,,,,,60ff5cdcb618e75bb04533a9,61036c99aab5ee4ae6f6b151,2021-07-29_23h06.23.144,Simcolourproject_2stim_asymm_v5,2020.2.10,Win32,60,61025ae37ef11b136ea224fe,,,,,,,,,30,20.80001175,47.19996985,1,0,0,response1disk,,7,-4.799988627,-10.40000659,1,0,0,rectangle,-4.799988627,-10.40000659,1,0,0,-4.799988627,-10.40000659,1,0,0,1,46,206,151,1,,,,,,,,
,,,,,,,,,,,,,FF,,,,,,,,1.1775,,,,,,,,,,,,,,,,,,,,,,60ff5cdcb618e75bb04533a9,61036c99aab5ee4ae6f6b151,2021-07-29_23h06.23.144,Simcolourproject_2stim_asymm_v5,2020.2.10,Win32,60,61025ae37ef11b136ea224fe,,,,,,,,,2227,-51.99998933,-81.60005648,1,0,0,response5disk,,3,-17.59998882,-12.00000662,1,0,0,rectangle,-17.59998882,-12.00000662,1,0,0,-17.59998882,-12.00000662,1,0,0,1,47,207,127,1,,,,,,,,
,,,,,,,,,,,,,FF,,,,,,,,0.5625,,,,,,,,,,,,,,,,,,,,,,60ff5cdcb618e75bb04533a9,61036c99aab5ee4ae6f6b151,2021-07-29_23h06.23.144,Simcolourproject_2stim_asymm_v5,2020.2.10,Win32,60,61025ae37ef11b136ea224fe,,,,,,,,,2467,20.80001175,63.99999452,1,0,0,response1disk,,7,-8.799988687,-9.60000658,1,0,0,rectangle,-8.799988687,-9.60000658,1,0,0,-8.799988687,-9.60000658,1,0,0,1,48,208,157,1,,,,,,,,
,,,,,,,,,,,,,FF,,,,,,,,0.3124,,,,,,,,,,,,,,,,,,,,,,60ff5cdcb618e75bb04533a9,61036c99aab5ee4ae6f6b151,2021-07-29_23h06.23.144,Simcolourproject_2stim_asymm_v5,2020.2.10,Win32,60,61025ae37ef11b136ea224fe,,,,,,,,,320,29.60006071,59.19997003,1,0,0,response1disk,,7,3.200011492,9.599993706,1,0,0,rectangle,3.200011492,9.599993706,1,0,0,3.200011492,9.599993706,1,0,0,1,49,209,3,1,,,,,,,,
,,,,,,,,,,,,,FF,,,,,,,,0.3615,,,,,,,,,,,,,,,,,,,,,,60ff5cdcb618e75bb04533a9,61036c99aab5ee4ae6f6b151,2021-07-29_23h06.23.144,Simcolourproject_2stim_asymm_v5,2020.2.10,Win32,60,61025ae37ef11b136ea224fe,,,,,,,,,2302,29.60006071,76.79999471,1,0,0,response1disk,,7,0.800011456,-4.000006497,1,0,0,rectangle,0.800011456,-4.000006497,1,0,0,0.800011456,-4.000006497,1,0,0,1,50,210,105,1,,,,,,,,
,,,,,,,,,,,,,FF,,,,,,,,0.3235,,,,,,,,,,,,,,,,,,,,,,60ff5cdcb618e75bb04533a9,61036c99aab5ee4ae6f6b151,2021-07-29_23h06.23.144,Simcolourproject_2stim_asymm_v5,2020.2.10,Win32,60,61025ae37ef11b136ea224fe,,,,,,,,,2803,28.80001187,55.19996997,1,0,0,response1disk,,7,10.4000116,13.59999377,1,0,0,rectangle,10.4000116,13.59999377,1,0,0,10.4000116,13.59999377,1,0,0,1,51,211,71,1,,,,,,,,
,,,,,,,,,,,,,FF,,,,,,,,0.3375,,,,,,,,,,,,,,,,,,,,,,60ff5cdcb618e75bb04533a9,61036c99aab5ee4ae6f6b151,2021-07-29_23h06.23.144,Simcolourproject_2stim_asymm_v5,2020.2.10,Win32,60,61025ae37ef11b136ea224fe,,,,,,,,,2635,30.4000119,62.39999449,1,0,0,response1disk,,7,8.800011575,14.39999378,1,0,0,rectangle,8.800011575,14.39999378,1,0,0,8.800011575,14.39999378,1,0,0,1,52,212,91,1,,,,,,,,
,,,,,,,,,,,,,FF,,,,,,,,1.1218,,,,,,,,,,,,,,,,,,,,,,60ff5cdcb618e75bb04533a9,61036c99aab5ee4ae6f6b151,2021-07-29_23h06.23.144,Simcolourproject_2stim_asymm_v5,2020.2.10,Win32,60,61025ae37ef11b136ea224fe,,,,,,,,,1823,104.000013,-41.60000706,1,0,0,response3disk,,5,22.40001178,16.79999381,1,0,0,rectangle,22.40001178,16.79999381,1,0,0,22.40001178,16.79999381,1,0,0,1,53,213,112,1,,,,,,,,
,,,,,,,,,,,,,FF,,,,,,,,0.3266,,,,,,,,,,,,,,,,,,,,,,60ff5cdcb618e75bb04533a9,61036c99aab5ee4ae6f6b151,2021-07-29_23h06.23.144,Simcolourproject_2stim_asymm_v5,2020.2.10,Win32,60,61025ae37ef11b136ea224fe,,,,,,,,,4035,30.4000119,55.9999944,1,0,0,response1disk,,7,8.800011575,-6.4373E-06,1,0,0,rectangle,8.800011575,-6.4373E-06,1,0,0,8.800011575,-6.4373E-06,1,0,0,1,54,214,59,1,,,,,,,,
,,,,,,,,,,,,,FF,,,,,,,,0.2498,,,,,,,,,,,,,,,,,,,,,,60ff5cdcb618e75bb04533a9,61036c99aab5ee4ae6f6b151,2021-07-29_23h06.23.144,Simcolourproject_2stim_asymm_v5,2020.2.10,Win32,60,61025ae37ef11b136ea224fe,,,,,,,,,3539,25.60006065,48.79999429,1,0,0,response1disk,,7,5.600060356,-6.4373E-06,1,0,0,rectangle,5.600060356,-6.4373E-06,1,0,0,5.600060356,-6.4373E-06,1,0,0,1,55,215,138,1,,,,,,,,
,,,,,,,,,,,,,FF,,,,,,,,1.7499,,,,,,,,,,,,,,,,,,,,,,60ff5cdcb618e75bb04533a9,61036c99aab5ee4ae6f6b151,2021-07-29_23h06.23.144,Simcolourproject_2stim_asymm_v5,2020.2.10,Win32,60,61025ae37ef11b136ea224fe,,,,,,,,,1898,85.60001272,56.79999441,1,0,0,response1disk,,6,-2.399939764,-13.60000664,1,0,0,rectangle,-2.399939764,-13.60000664,1,0,0,-2.399939764,-13.60000664,1,0,0,1,56,216,124,1,,,,,,,,
,,,,,,,,,,,,,FF,,,,,,,,0.3228,,,,,,,,,,,,,,,,,,,,,,60ff5cdcb618e75bb04533a9,61036c99aab5ee4ae6f6b151,2021-07-29_23h06.23.144,Simcolourproject_2stim_asymm_v5,2020.2.10,Win32,60,61025ae37ef11b136ea224fe,,,,,,,,,1244,28.80001187,48.79999429,1,0,0,response1disk,,7,8.000011563,13.59999377,1,0,0,rectangle,8.000011563,13.59999377,1,0,0,8.000011563,13.59999377,1,0,0,1,57,217,11,1,,,,,,,,
,,,,,,,,,,,,,FF,,,,,,,,0.2985,,,,,,,,,,,,,,,,,,,,,,60ff5cdcb618e75bb04533a9,61036c99aab5ee4ae6f6b151,2021-07-29_23h06.23.144,Simcolourproject_2stim_asymm_v5,2020.2.10,Win32,60,61025ae37ef11b136ea224fe,,,,,,,,,2052,30.4000119,63.19997009,1,0,0,response1disk,,7,8.000011563,10.39999372,1,0,0,rectangle,8.000011563,10.39999372,1,0,0,8.000011563,10.39999372,1,0,0,1,58,218,68,1,,,,,,,,
,,,,,,,,,,,,,FF,,,,,,,,1.0347,,,,,,,,,,,,,,,,,,,,,,60ff5cdcb618e75bb04533a9,61036c99aab5ee4ae6f6b151,2021-07-29_23h06.23.144,Simcolourproject_2stim_asymm_v5,2020.2.10,Win32,60,61025ae37ef11b136ea224fe,,,,,,,,,2482,-73.59998965,-33.60000694,1,0,0,response5disk,,2,1.14441E-05,3.999993622,1,0,0,rectangle,1.14441E-05,3.999993622,1,0,0,1.14441E-05,3.999993622,1,0,0,1,59,219,103,1,,,,,,,,
,,,,,,,,,,,,,FF,,,,,,,,0.2708,,,,,,,,,,,,,,,,,,,,,,60ff5cdcb618e75bb04533a9,61036c99aab5ee4ae6f6b151,2021-07-29_23h06.23.144,Simcolourproject_2stim_asymm_v5,2020.2.10,Win32,60,61025ae37ef11b136ea224fe,,,,,,,,,2779,28.80001187,67.99999458,1,0,0,response1disk,,7,-4.799988627,-4.800006509,1,0,0,rectangle,-4.799988627,-4.800006509,1,0,0,-4.799988627,-4.800006509,1,0,0,1,60,220,39,1,,,,,,,,
,,,,,,,,,,,,,FF,,,,,,,,0.368,,,,,,,,,,,,,,,,,,,,,,60ff5cdcb618e75bb04533a9,61036c99aab5ee4ae6f6b151,2021-07-29_23h06.23.144,Simcolourproject_2stim_asymm_v5,2020.2.10,Win32,60,61025ae37ef11b136ea224fe,,,,,,,,,4192,16.80001169,51.99999434,1,0,0,response1disk,,7,-8.799988687,-16.00000668,1,0,0,rectangle,-8.799988687,-16.00000668,1,0,0,-8.799988687,-16.00000668,1,0,0,1,61,221,104,1,,,,,,,,
,,,,,,,,,,,,,FF,,,,,,,,0.6111,,,,,,,,,,,,,,,,,,,,,,60ff5cdcb618e75bb04533a9,61036c99aab5ee4ae6f6b151,2021-07-29_23h06.23.144,Simcolourproject_2stim_asymm_v5,2020.2.10,Win32,60,61025ae37ef11b136ea224fe,,,,,,,,,2839,28.00001186,56.79999441,1,0,0,response1disk,,7,-1.59998858,3.19999361,1,0,0,rectangle,-1.59998858,3.19999361,1,0,0,-1.59998858,3.19999361,1,0,0,1,62,222,49,1,,,,,,,,
,,,,,,,,,,,,,FF,,,,,,,,0.9998,,,,,,,,,,,,,,,,,,,,,,60ff5cdcb618e75bb04533a9,61036c99aab5ee4ae6f6b151,2021-07-29_23h06.23.144,Simcolourproject_2stim_asymm_v5,2020.2.10,Win32,60,61025ae37ef11b136ea224fe,,,,,,,,,78,52.80001223,-68.00000745,1,0,0,response3disk,,4,12.80001163,-2.400006473,1,0,0,rectangle,12.80001163,-2.400006473,1,0,0,12.80001163,-2.400006473,1,0,0,1,63,223,41,1,,,,,,,,
,,,,,,,,,,,,,FF,,,,,,,,0.9097,,,,,,,,,,,,,,,,,,,,,,60ff5cdcb618e75bb04533a9,61036c99aab5ee4ae6f6b151,2021-07-29_23h06.23.144,Simcolourproject_2stim_asymm_v5,2020.2.10,Win32,60,61025ae37ef11b136ea224fe,,,,,,,,,802,48.80001217,-79.20000762,1,0,0,response3disk,,4,10.4000116,-12.80000663,1,0,0,rectangle,10.4000116,-12.80000663,1,0,0,10.4000116,-12.80000663,1,0,0,1,64,224,84,1,,,,,,,,
,,,,,,,,,,,,,FF,,,,,,,,0.8158,,,,,,,,,,,,,,,,,,,,,,60ff5cdcb618e75bb04533a9,61036c99aab5ee4ae6f6b151,2021-07-29_23h06.23.144,Simcolourproject_2stim_asymm_v5,2020.2.10,Win32,60,61025ae37ef11b136ea224fe,,,,,,,,,3208,40.00001204,67.99999458,1,0,0,response1disk,,7,4.000011504,15.19999379,1,0,0,rectangle,4.000011504,15.19999379,1,0,0,4.000011504,15.19999379,1,0,0,1,65,225,135,1,,,,,,,,
,,,,,,,,,,,,,FF,,,,,,,,0.2985,,,,,,,,,,,,,,,,,,,,,,60ff5cdcb618e75bb04533a9,61036c99aab5ee4ae6f6b151,2021-07-29_23h06.23.144,Simcolourproject_2stim_asymm_v5,2020.2.10,Win32,60,61025ae37ef11b136ea224fe,,,,,,,,,3535,39.20001203,62.39999449,1,0,0,response1disk,,7,-0.799988568,-4.800006509,1,0,0,rectangle,-0.799988568,-4.800006509,1,0,0,-0.799988568,-4.800006509,1,0,0,1,66,226,142,1,,,,,,,,
,,,,,,,,,,,,,FF,,,,,,,,0.6906,,,,,,,,,,,,,,,,,,,,,,60ff5cdcb618e75bb04533a9,61036c99aab5ee4ae6f6b151,2021-07-29_23h06.23.144,Simcolourproject_2stim_asymm_v5,2020.2.10,Win32,60,61025ae37ef11b136ea224fe,,,,,,,,,437,77.6000126,-28.00000685,1,0,0,response3disk,,5,25.60006065,-3.200006485,1,0,0,rectangle,25.60006065,-3.200006485,1,0,0,25.60006065,-3.200006485,1,0,0,1,67,227,64,1,,,,,,,,
,,,,,,,,,,,,,FF,,,,,,,,0.5694,,,,,,,,,,,,,,,,,,,,,,60ff5cdcb618e75bb04533a9,61036c99aab5ee4ae6f6b151,2021-07-29_23h06.23.144,Simcolourproject_2stim_asymm_v5,2020.2.10,Win32,60,61025ae37ef11b136ea224fe,,,,,,,,,3195,-40.79998916,61.59999448,1,0,0,response7disk,,0,0.800011456,-9.60000658,1,0,0,rectangle,0.800011456,-9.60000658,1,0,0,0.800011456,-9.60000658,1,0,0,1,68,228,132,1,,,,,,,,
,,,,,,,,,,,,,FF,,,,,,,,0.6113,,,,,,,,,,,,,,,,,,,,,,60ff5cdcb618e75bb04533a9,61036c99aab5ee4ae6f6b151,2021-07-29_23h06.23.144,Simcolourproject_2stim_asymm_v5,2020.2.10,Win32,60,61025ae37ef11b136ea224fe,,,,,,,,,2475,29.60006071,64.79999453,1,0,0,response1disk,,7,1.600060296,-8.000006557,1,0,0,rectangle,1.600060296,-8.000006557,1,0,0,1.600060296,-8.000006557,1,0,0,1,69,229,79,1,,,,,,,,
,,,,,,,,,,,,,FF,,,,,,,,1.2422,,,,,,,,,,,,,,,,,,,,,,60ff5cdcb618e75bb04533a9,61036c99aab5ee4ae6f6b151,2021-07-29_23h06.23.144,Simcolourproject_2stim_asymm_v5,2020.2.10,Win32,60,61025ae37ef11b136ea224fe,,,,,,,,,979,43.20001209,87.19997045,1,0,0,response1disk,,7,-17.59998882,5.599993646,1,0,0,rectangle,-17.59998882,5.599993646,1,0,0,-17.59998882,5.599993646,1,0,0,1,70,230,35,1,,,,,,,,
,,,,,,,,,,,,,FF,,,,,,,,0.3582,,,,,,,,,,,,,,,,,,,,,,60ff5cdcb618e75bb04533a9,61036c99aab5ee4ae6f6b151,2021-07-29_23h06.23.144,Simcolourproject_2stim_asymm_v5,2020.2.10,Win32,60,61025ae37ef11b136ea224fe,,,,,,,,,1912,43.20001209,45.59999424,1,0,0,response1disk,,7,18.40001172,7.999993682,1,0,0,rectangle,18.40001172,7.999993682,1,0,0,18.40001172,7.999993682,1,0,0,1,71,231,110,1,,,,,,,,
,,,,,,,,,,,,,FF,,,,,,,,0.7014,,,,,,,,,,,,,,,,,,,,,,60ff5cdcb618e75bb04533a9,61036c99aab5ee4ae6f6b151,2021-07-29_23h06.23.144,Simcolourproject_2stim_asymm_v5,2020.2.10,Win32,60,61025ae37ef11b136ea224fe,,,,,,,,,946,36.80001199,73.59999466,1,0,0,response1disk,,7,16.00001168,-2.400006473,1,0,0,rectangle,16.00001168,-2.400006473,1,0,0,16.00001168,-2.400006473,1,0,0,1,72,232,65,1,,,,,,,,
,,,,,,,,,,,,,FF,,,,,,,,0.5553,,,,,,,,,,,,,,,,,,,,,,60ff5cdcb618e75bb04533a9,61036c99aab5ee4ae6f6b151,2021-07-29_23h06.23.144,Simcolourproject_2stim_asymm_v5,2020.2.10,Win32,60,61025ae37ef11b136ea224fe,,,,,,,,,856,36.00001198,68.79999459,1,0,0,response1disk,,7,-10.39993988,12.79999375,1,0,0,rectangle,-10.39993988,12.79999375,1,0,0,-10.39993988,12.79999375,1,0,0,1,73,233,54,1,,,,,,,,
,,,,,,,,,,,,,FF,,,,,,,,0.743,,,,,,,,,,,,,,,,,,,,,,60ff5cdcb618e75bb04533a9,61036c99aab5ee4ae6f6b151,2021-07-29_23h06.23.144,Simcolourproject_2stim_asymm_v5,2020.2.10,Win32,60,61025ae37ef11b136ea224fe,,,,,,,,,3563,34.40001196,70.39999461,1,0,0,response1disk,,7,1.14441E-05,7.999993682,1,0,0,rectangle,1.14441E-05,7.999993682,1,0,0,1.14441E-05,7.999993682,1,0,0,1,74,234,97,1,,,,,,,,
,,,,,,,,,,,,,FF,,,,,,,,0.5903,,,,,,,,,,,,,,,,,,,,,,60ff5cdcb618e75bb04533a9,61036c99aab5ee4ae6f6b151,2021-07-29_23h06.23.144,Simcolourproject_2stim_asymm_v5,2020.2.10,Win32,60,61025ae37ef11b136ea224fe,,,,,,,,,4200,-46.39994042,92.79999495,1,0,0,response7disk,,0,14.40001166,8.799993694,1,0,0,rectangle,14.40001166,8.799993694,1,0,0,14.40001166,8.799993694,1,0,0,1,75,235,101,1,,,,,,,,
,,,,,,,,,,,,,FF,,,,,,,,0.243,,,,,,,,,,,,,,,,,,,,,,60ff5cdcb618e75bb04533a9,61036c99aab5ee4ae6f6b151,2021-07-29_23h06.23.144,Simcolourproject_2stim_asymm_v5,2020.2.10,Win32,60,61025ae37ef11b136ea224fe,,,,,,,,,3766,39.20001203,75.9999947,1,0,0,response1disk,,7,5.600060356,7.19999367,1,0,0,rectangle,5.600060356,7.19999367,1,0,0,5.600060356,7.19999367,1,0,0,1,76,236,122,1,,,,,,,,
,,,,,,,,,,,,,FF,,,,,,,,0.3123,,,,,,,,,,,,,,,,,,,,,,60ff5cdcb618e75bb04533a9,61036c99aab5ee4ae6f6b151,2021-07-29_23h06.23.144,Simcolourproject_2stim_asymm_v5,2020.2.10,Win32,60,61025ae37ef11b136ea224fe,,,,,,,,,211,39.20001203,61.59999448,1,0,0,response1disk,,7,5.600060356,3.999993622,1,0,0,rectangle,5.600060356,3.999993622,1,0,0,5.600060356,3.999993622,1,0,0,1,77,237,72,1,,,,,,,,
,,,,,,,,,,,,,FF,,,,,,,,0.2639,,,,,,,,,,,,,,,,,,,,,,60ff5cdcb618e75bb04533a9,61036c99aab5ee4ae6f6b151,2021-07-29_23h06.23.144,Simcolourproject_2stim_asymm_v5,2020.2.10,Win32,60,61025ae37ef11b136ea224fe,,,,,,,,,2113,38.40001202,76.79999471,1,0,0,response1disk,,7,2.40001148,7.999993682,1,0,0,rectangle,2.40001148,7.999993682,1,0,0,2.40001148,7.999993682,1,0,0,1,78,238,57,1,,,,,,,,
,,,,,,,,,,,,,FF,,,,,,,,0.4858,,,,,,,,,,,,,,,,,,,,,,60ff5cdcb618e75bb04533a9,61036c99aab5ee4ae6f6b151,2021-07-29_23h06.23.144,Simcolourproject_2stim_asymm_v5,2020.2.10,Win32,60,61025ae37ef11b136ea224fe,,,,,,,,,3741,-47.19998926,80.79999477,1,0,0,response7disk,,0,-1.59998858,-0.800006449,1,0,0,rectangle,-1.59998858,-0.800006449,1,0,0,-1.59998858,-0.800006449,1,0,0,1,79,239,9,1,,,,,,,,
,,,,,,,,,,,,,FF,,,,,,,,0.3124,,,,,,,,,,,,,,,,,,,,,,60ff5cdcb618e75bb04533a9,61036c99aab5ee4ae6f6b151,2021-07-29_23h06.23.144,Simcolourproject_2stim_asymm_v5,2020.2.10,Win32,60,61025ae37ef11b136ea224fe,,,,,,,,,427,46.40001214,71.99999464,1,0,0,response1disk,,7,3.200011492,4.799993634,1,0,0,rectangle,3.200011492,4.799993634,1,0,0,3.200011492,4.799993634,1,0,0,1,80,240,26,1,,,,,,,,
,,,,,,,,,,,,,FF,,,,,,,,0.5971,,,,,,,,,,,,,,,,,,,,,,60ff5cdcb618e75bb04533a9,61036c99aab5ee4ae6f6b151,2021-07-29_23h06.23.144,Simcolourproject_2stim_asymm_v5,2020.2.10,Win32,60,61025ae37ef11b136ea224fe,,,,,,,,,63,29.60006071,83.19997039,1,0,0,response1disk,,7,-7.199988663,-8.800006568,1,0,0,rectangle,-7.199988663,-8.800006568,1,0,0,-7.199988663,-8.800006568,1,0,0,1,81,241,139,1,,,,,,,,
,,,,,,,,,,,,,FF,,,,,,,,0.2707,,,,,,,,,,,,,,,,,,,,,,60ff5cdcb618e75bb04533a9,61036c99aab5ee4ae6f6b151,2021-07-29_23h06.23.144,Simcolourproject_2stim_asymm_v5,2020.2.10,Win32,60,61025ae37ef11b136ea224fe,,,,,,,,,2745,32.80001193,71.99999464,1,0,0,response1disk,,7,2.40001148,-3.200006485,1,0,0,rectangle,2.40001148,-3.200006485,1,0,0,2.40001148,-3.200006485,1,0,0,1,82,242,93,1,,,,,,,,
,,,,,,,,,,,,,FF,,,,,,,,0.854,,,,,,,,,,,,,,,,,,,,,,60ff5cdcb618e75bb04533a9,61036c99aab5ee4ae6f6b151,2021-07-29_23h06.23.144,Simcolourproject_2stim_asymm_v5,2020.2.10,Win32,60,61025ae37ef11b136ea224fe,,,,,,,,,2101,-26.39994012,-76.80000758,1,0,0,response5disk,,3,4.000011504,11.99999374,1,0,0,rectangle,4.000011504,11.99999374,1,0,0,4.000011504,11.99999374,1,0,0,1,83,243,66,1,,,,,,,,
