key_resp.keys,key_resp.rt,key_resp_14.keys,key_resp_14.rt,key_resp_15.keys,key_resp_15.rt,key_resp_17.keys,key_resp_17.rt,key_resp_9.keys,key_resp_9.rt,key_resp_10.keys,key_resp_10.rt,practice_comparison,Ecc,mouse_5.x,mouse_5.y,mouse_5.leftButton,mouse_5.midButton,mouse_5.rightButton,mouse_5.clicked_name,pracsimilarity,response_time,mouse_10.x,mouse_10.y,mouse_10.leftButton,mouse_10.midButton,mouse_10.rightButton,mouse_10.clicked_name,mouse_7.x,mouse_7.y,mouse_7.leftButton,mouse_7.midButton,mouse_7.rightButton,mouse_6.x,mouse_6.y,mouse_6.leftButton,mouse_6.midButton,mouse_6.rightButton,duringprac.thisRepN,duringprac.thisTrialN,duringprac.thisN,duringprac.thisIndex,duringprac.ran,participant,session,date,expName,psychopyVersion,OS,frameRate,study_id,mouse_7.clicked_name,catchpracsimilarity,catch_response_time,catchnumberprac,catchtrialorderprac,mouse_6.clicked_name,key_resp_22.keys,key_resp_22.rt,realcomparison,mouse.x,mouse.y,mouse.leftButton,mouse.midButton,mouse.rightButton,mouse.clicked_name,Colour2,similarity,mouse_2.x,mouse_2.y,mouse_2.leftButton,mouse_2.midButton,mouse_2.rightButton,mouse_2.clicked_name,mouse_3.x,mouse_3.y,mouse_3.leftButton,mouse_3.midButton,mouse_3.rightButton,mouse_11.x,mouse_11.y,mouse_11.leftButton,mouse_11.midButton,mouse_11.rightButton,trials_2.thisRepN,trials_2.thisTrialN,trials_2.thisN,trials_2.thisIndex,trials_2.ran,Colour1,mouse_3.clicked_name,catchornah,catchsimilarity,catchnumber,catchtrialorder,catchRT,mouse_11.clicked_name
space,6.6339,space,81.3468,space,31.9951,space,5.0248,space,2.3652,space,4.0383,76,FF,-85.90575155,-45.25982156,1,0,0,response5disk_5,2,6.2816,7.238048661,-5.371979174,1,0,0,rectangle_8,7.238048661,-5.371979174,1,0,0,7.238048661,-5.371979174,1,0,0,0,0,0,3,1,61005f04b9a1eec4bc7e4e48,61037064418fb441f76aa7b5,2021-07-29_20h28.06.730,Simcolourproject_2stim_asymm_v5,2020.2.10,Linux x86_64,60,61025ae37ef11b136ea224fe,,,,,,,,,,,,,,,,,,,,,,,,,,,,,,,,,,,,,,,,,,,,,,
,,,,,,,,,,,,98,PF,84.44259083,28.42745981,1,0,0,response1disk_5,6,2.5327,17.72276561,3.259612752,1,0,0,rectangle_8,-87.18016564,-69.74356216,1,0,0,32.65523654,-4.540973302,1,0,0,0,1,1,2,1,61005f04b9a1eec4bc7e4e48,61037064418fb441f76aa7b5,2021-07-29_20h28.06.730,Simcolourproject_2stim_asymm_v5,2020.2.10,Linux x86_64,60,61025ae37ef11b136ea224fe,response5disk_7,2,3.485,2,"[2,5]",rectangle_4,,,,,,,,,,,,,,,,,,,,,,,,,,,,,,,,,,,,,,,,
,,,,,,,,,,,,13,PF,-46.12713768,-95.21656059,1,0,0,response5disk_5,3,5.6812,8.366417819,-16.25484066,1,0,0,rectangle_8,8.366417819,-16.25484066,1,0,0,8.366417819,-16.25484066,1,0,0,0,2,2,4,1,61005f04b9a1eec4bc7e4e48,61037064418fb441f76aa7b5,2021-07-29_20h28.06.730,Simcolourproject_2stim_asymm_v5,2020.2.10,Linux x86_64,60,61025ae37ef11b136ea224fe,,,,,,,,,,,,,,,,,,,,,,,,,,,,,,,,,,,,,,,,,,,,,,
,,,,,,,,,,,,54,FF,-61.74974534,-104.9445393,1,0,0,response5disk_5,3,3.4472,0.019542694,-10.60186206,1,0,0,rectangle_8,0.019542694,-10.60186206,1,0,0,0.019542694,-10.60186206,1,0,0,0,3,3,5,1,61005f04b9a1eec4bc7e4e48,61037064418fb441f76aa7b5,2021-07-29_20h28.06.730,Simcolourproject_2stim_asymm_v5,2020.2.10,Linux x86_64,60,61025ae37ef11b136ea224fe,,,,,,,,,,,,,,,,,,,,,,,,,,,,,,,,,,,,,,,,,,,,,,
,,,,,,,,,,,,48,FF,110.7911264,-61.69278079,1,0,0,response3disk_5,5,2.6158,6.350060367,-1.372027942,1,0,0,rectangle_8,-93.35526338,-59.84107178,1,0,0,16.58799997,-6.970856151,1,0,0,0,4,4,0,1,61005f04b9a1eec4bc7e4e48,61037064418fb441f76aa7b5,2021-07-29_20h28.06.730,Simcolourproject_2stim_asymm_v5,2020.2.10,Linux x86_64,60,61025ae37ef11b136ea224fe,response5disk_7,2,2.4155,2,"[2,5]",rectangle_4,,,,,,,,,,,,,,,,,,,,,,,,,,,,,,,,,,,,,,,,
,,,,,,,,,,,,69,PF,95.07071599,50.90831952,1,0,0,response1disk_5,6,2.3822,-7.995301175,-11.58032888,1,0,0,rectangle_8,-7.995301175,-11.58032888,1,0,0,-7.995301175,-11.58032888,1,0,0,0,5,5,6,1,61005f04b9a1eec4bc7e4e48,61037064418fb441f76aa7b5,2021-07-29_20h28.06.730,Simcolourproject_2stim_asymm_v5,2020.2.10,Linux x86_64,60,61025ae37ef11b136ea224fe,,,,,,,,,,,,,,,,,,,,,,,,,,,,,,,,,,,,,,,,,,,,,,
,,,,,,,,,,,,6,PF,-92.99222627,-42.16807347,1,0,0,response5disk_5,2,1.5991,21.58526567,1.741546323,1,0,0,rectangle_8,21.58526567,1.741546323,1,0,0,21.58526567,1.741546323,1,0,0,0,6,6,1,1,61005f04b9a1eec4bc7e4e48,61037064418fb441f76aa7b5,2021-07-29_20h28.06.730,Simcolourproject_2stim_asymm_v5,2020.2.10,Linux x86_64,60,61025ae37ef11b136ea224fe,,,,,,,,,,,,,,,,,,,,,,,,,,,,,,,,,,,,,,,,,,,,,,
,,,,,,,,,,,,,FF,,,,,,,,2.095,,,,,,,,,,,,,,,,,,,,,,61005f04b9a1eec4bc7e4e48,61037064418fb441f76aa7b5,2021-07-29_20h28.06.730,Simcolourproject_2stim_asymm_v5,2020.2.10,Linux x86_64,60,61025ae37ef11b136ea224fe,,,,,,,space,1.0009,3359,100.1035286,-45.0678782,1,0,0,response3disk,,5,-10.7720102,3.230608845,1,0,0,rectangle,-10.7720102,3.230608845,1,0,0,-10.7720102,3.230608845,1,0,0,0,0,0,63,1,,,,,,,,
,,,,,,,,,,,,,FF,,,,,,,,1.3986,,,,,,,,,,,,,,,,,,,,,,61005f04b9a1eec4bc7e4e48,61037064418fb441f76aa7b5,2021-07-29_20h28.06.730,Simcolourproject_2stim_asymm_v5,2020.2.10,Linux x86_64,60,61025ae37ef11b136ea224fe,,,,,,,,,2734,45.16695548,-84.66524207,1,0,0,response3disk,,4,-15.66361184,0.712347089,1,0,0,rectangle,-15.66361184,0.712347089,1,0,0,-15.66361184,0.712347089,1,0,0,0,1,1,25,1,,,,,,,,
,,,,,,,,,,,,,FF,,,,,,,,1.2998,,,,,,,,,,,,,,,,,,,,,,61005f04b9a1eec4bc7e4e48,61037064418fb441f76aa7b5,2021-07-29_20h28.06.730,Simcolourproject_2stim_asymm_v5,2020.2.10,Linux x86_64,60,61025ae37ef11b136ea224fe,,,,,,,,,4029,-86.7973043,-29.88032915,1,0,0,response5disk,,2,30.30489471,-5.742682304,1,0,0,rectangle,30.30489471,-5.742682304,1,0,0,30.30489471,-5.742682304,1,0,0,0,2,2,95,1,,,,,,,,
,,,,,,,,,,,,,FF,,,,,,,,2.149,,,,,,,,,,,,,,,,,,,,,,61005f04b9a1eec4bc7e4e48,61037064418fb441f76aa7b5,2021-07-29_20h28.06.730,Simcolourproject_2stim_asymm_v5,2020.2.10,Linux x86_64,60,61025ae37ef11b136ea224fe,,,,,,,,,2026,-93.73558566,-75.83194116,1,0,0,response5disk,,2,6.389611149,-12.28814139,1,0,0,rectangle,6.389611149,-12.28814139,1,0,0,6.389611149,-12.28814139,1,0,0,0,3,3,53,1,,,,,,,,
,,,,,,,,,,,,,FF,,,,,,,,1.6161,,,,,,,,,,,,,,,,,,,,,,61005f04b9a1eec4bc7e4e48,61037064418fb441f76aa7b5,2021-07-29_20h28.06.730,Simcolourproject_2stim_asymm_v5,2020.2.10,Linux x86_64,60,61025ae37ef11b136ea224fe,,,,,,,,,3448,95.22120427,-49.9436107,1,0,0,response3disk,,5,2.147911867,4.216936985,1,0,0,rectangle,2.147911867,4.216936985,1,0,0,2.147911867,4.216936985,1,0,0,0,4,4,103,1,,,,,,,,
,,,,,,,,,,,,,FF,,,,,,,,1.6007,,,,,,,,,,,,,,,,,,,,,,61005f04b9a1eec4bc7e4e48,61037064418fb441f76aa7b5,2021-07-29_20h28.06.730,Simcolourproject_2stim_asymm_v5,2020.2.10,Linux x86_64,60,61025ae37ef11b136ea224fe,,,,,,,,,55,101.6084114,-47.43653058,1,0,0,response3disk,,5,13.8492304,4.474603004,1,0,0,rectangle,13.8492304,4.474603004,1,0,0,13.8492304,4.474603004,1,0,0,0,5,5,75,1,,,,,,,,
,,,,,,,,,,,,,FF,,,,,,,,1.5832,,,,,,,,,,,,,,,,,,,,,,61005f04b9a1eec4bc7e4e48,61037064418fb441f76aa7b5,2021-07-29_20h28.06.730,Simcolourproject_2stim_asymm_v5,2020.2.10,Linux x86_64,60,61025ae37ef11b136ea224fe,,,,,,,,,548,-85.59061483,-61.41250735,1,0,0,response5disk,,2,21.08370316,-10.81192066,1,0,0,rectangle,21.08370316,-10.81192066,1,0,0,21.08370316,-10.81192066,1,0,0,0,6,6,51,1,,,,,,,,
,,,,,,,,,,,,,FF,,,,,,,,1.5342,,,,,,,,,,,,,,,,,,,,,,61005f04b9a1eec4bc7e4e48,61037064418fb441f76aa7b5,2021-07-29_20h28.06.730,Simcolourproject_2stim_asymm_v5,2020.2.10,Linux x86_64,60,61025ae37ef11b136ea224fe,,,,,,,,,426,-54.9641007,-130.1452232,1,0,0,response5disk,,3,24.71285361,-3.857867823,1,0,0,rectangle,24.71285361,-3.857867823,1,0,0,24.71285361,-3.857867823,1,0,0,0,7,7,93,1,,,,,,,,
,,,,,,,,,,,,,FF,,,,,,,,1.1003,,,,,,,,,,,,,,,,,,,,,,61005f04b9a1eec4bc7e4e48,61037064418fb441f76aa7b5,2021-07-29_20h28.06.730,Simcolourproject_2stim_asymm_v5,2020.2.10,Linux x86_64,60,61025ae37ef11b136ea224fe,,,,,,,,,3875,-77.02484322,25.12484745,1,0,0,response7disk,,1,30.71309784,-13.49370781,1,0,0,rectangle,30.71309784,-13.49370781,1,0,0,30.71309784,-13.49370781,1,0,0,0,8,8,152,1,,,,,,,,
,,,,,,,,,,,,,FF,,,,,,,,0.9153,,,,,,,,,,,,,,,,,,,,,,61005f04b9a1eec4bc7e4e48,61037064418fb441f76aa7b5,2021-07-29_20h28.06.730,Simcolourproject_2stim_asymm_v5,2020.2.10,Linux x86_64,60,61025ae37ef11b136ea224fe,,,,,,,,,1898,-93.63416964,-40.67442111,1,0,0,response5disk,,2,-0.993201461,-8.433307344,1,0,0,rectangle,-0.993201461,-8.433307344,1,0,0,-0.993201461,-8.433307344,1,0,0,0,9,9,159,1,,,,,,,,
,,,,,,,,,,,,,FF,,,,,,,,1.599,,,,,,,,,,,,,,,,,,,,,,61005f04b9a1eec4bc7e4e48,61037064418fb441f76aa7b5,2021-07-29_20h28.06.730,Simcolourproject_2stim_asymm_v5,2020.2.10,Linux x86_64,60,61025ae37ef11b136ea224fe,,,,,,,,,40,-42.60228411,-93.92090627,1,0,0,response5disk,,3,-22.75272327,-3.134869765,1,0,0,rectangle,-22.75272327,-3.134869765,1,0,0,-22.75272327,-3.134869765,1,0,0,0,10,10,80,1,,,,,,,,
,,,,,,,,,,,,,FF,,,,,,,,0.9005,,,,,,,,,,,,,,,,,,,,,,61005f04b9a1eec4bc7e4e48,61037064418fb441f76aa7b5,2021-07-29_20h28.06.730,Simcolourproject_2stim_asymm_v5,2020.2.10,Linux x86_64,60,61025ae37ef11b136ea224fe,,,,,,,,,1890,-99.81707989,-35.07818079,1,0,0,response5disk,,2,4.62300956,4.058538545,1,0,0,rectangle,4.62300956,4.058538545,1,0,0,4.62300956,4.058538545,1,0,0,0,11,11,66,1,,,,,,,,
,,,,,,,,,,,,,FF,,,,,,,,1.3826,,,,,,,,,,,,,,,,,,,,,,61005f04b9a1eec4bc7e4e48,61037064418fb441f76aa7b5,2021-07-29_20h28.06.730,Simcolourproject_2stim_asymm_v5,2020.2.10,Linux x86_64,60,61025ae37ef11b136ea224fe,,,,,,,,,2304,-103.6107811,-60.04585694,1,0,0,response5disk,,2,12.5287714,-1.312750597,1,0,0,rectangle,12.5287714,-1.312750597,1,0,0,12.5287714,-1.312750597,1,0,0,0,12,12,37,1,,,,,,,,
,,,,,,,,,,,,,FF,,,,,,,,1.4995,,,,,,,,,,,,,,,,,,,,,,61005f04b9a1eec4bc7e4e48,61037064418fb441f76aa7b5,2021-07-29_20h28.06.730,Simcolourproject_2stim_asymm_v5,2020.2.10,Linux x86_64,60,61025ae37ef11b136ea224fe,,,,,,,,,1815,-118.2650294,48.89064371,1,0,0,response7disk,,1,25.21729698,-7.339069047,1,0,0,rectangle,25.21729698,-7.339069047,1,0,0,25.21729698,-7.339069047,1,0,0,0,13,13,144,1,,,,,,,,
,,,,,,,,,,,,,FF,,,,,,,,1.8333,,,,,,,,,,,,,,,,,,,,,,61005f04b9a1eec4bc7e4e48,61037064418fb441f76aa7b5,2021-07-29_20h28.06.730,Simcolourproject_2stim_asymm_v5,2020.2.10,Linux x86_64,60,61025ae37ef11b136ea224fe,,,,,,,,,181,103.6192513,-63.63394293,1,0,0,response3disk,,5,0.269738011,5.857415525,1,0,0,rectangle,0.269738011,5.857415525,1,0,0,0.269738011,5.857415525,1,0,0,0,14,14,38,1,,,,,,,,
,,,,,,,,,,,,,FF,,,,,,,,1.3658,,,,,,,,,,,,,,,,,,,,,,61005f04b9a1eec4bc7e4e48,61037064418fb441f76aa7b5,2021-07-29_20h28.06.730,Simcolourproject_2stim_asymm_v5,2020.2.10,Linux x86_64,60,61025ae37ef11b136ea224fe,,,,,,,,,1577,109.1776498,40.52516507,1,0,0,response1disk,,6,-10.71219575,1.262688894,1,0,0,rectangle,-10.71219575,1.262688894,1,0,0,-10.71219575,1.262688894,1,0,0,0,15,15,45,1,,,,,,,,
,,,,,,,,,,,,,FF,,,,,,,,1.0476,,,,,,,,,,,,,,,,,,,,,,61005f04b9a1eec4bc7e4e48,61037064418fb441f76aa7b5,2021-07-29_20h28.06.730,Simcolourproject_2stim_asymm_v5,2020.2.10,Linux x86_64,60,61025ae37ef11b136ea224fe,,,,,,,,,3374,-77.27918893,-35.11441126,1,0,0,response5disk,,2,9.257286973,-16.0495184,1,0,0,rectangle,9.257286973,-16.0495184,1,0,0,9.257286973,-16.0495184,1,0,0,0,16,16,97,1,,,,,,,,
,,,,,,,,,,,,,FF,,,,,,,,2.4469,,,,,,,,,,,,,,,,,,,,,,61005f04b9a1eec4bc7e4e48,61037064418fb441f76aa7b5,2021-07-29_20h28.06.730,Simcolourproject_2stim_asymm_v5,2020.2.10,Linux x86_64,60,61025ae37ef11b136ea224fe,,,,,,,,,1023,33.67159398,-118.7497641,1,0,0,response3disk,,4,15.19771675,0.744280683,1,0,0,rectangle,15.19771675,0.744280683,1,0,0,15.19771675,0.744280683,1,0,0,0,17,17,111,1,,,,,,,,
,,,,,,,,,,,,,FF,,,,,,,,1.9154,,,,,,,,,,,,,,,,,,,,,,61005f04b9a1eec4bc7e4e48,61037064418fb441f76aa7b5,2021-07-29_20h28.06.730,Simcolourproject_2stim_asymm_v5,2020.2.10,Linux x86_64,60,61025ae37ef11b136ea224fe,,,,,,,,,809,64.80616475,-94.65376761,1,0,0,response3disk,,4,-12.94657078,-12.11904959,1,0,0,rectangle,-12.94657078,-12.11904959,1,0,0,-12.94657078,-12.11904959,1,0,0,0,18,18,8,1,,,,,,,,
,,,,,,,,,,,,,FF,,,,,,,,1.3012,,,,,,,,,,,,,,,,,,,,,,61005f04b9a1eec4bc7e4e48,61037064418fb441f76aa7b5,2021-07-29_20h28.06.730,Simcolourproject_2stim_asymm_v5,2020.2.10,Linux x86_64,60,61025ae37ef11b136ea224fe,,,,,,,,,790,94.85118473,-44.51836648,1,0,0,response3disk,,5,6.276183413,-2.095758422,1,0,0,rectangle,6.276183413,-2.095758422,1,0,0,6.276183413,-2.095758422,1,0,0,0,19,19,132,1,,,,,,,,
,,,,,,,,,,,,,FF,,,,,,,,1.7158,,,,,,,,,,,,,,,,,,,,,,61005f04b9a1eec4bc7e4e48,61037064418fb441f76aa7b5,2021-07-29_20h28.06.730,Simcolourproject_2stim_asymm_v5,2020.2.10,Linux x86_64,60,61025ae37ef11b136ea224fe,,,,,,,,,4116,79.79923138,39.61276271,1,0,0,response1disk,,6,33.59527562,-10.37056323,1,0,0,rectangle,33.59527562,-10.37056323,1,0,0,33.59527562,-10.37056323,1,0,0,0,20,20,14,1,,,,,,,,
,,,,,,,,,,,,,FF,,,,,,,,1.7165,,,,,,,,,,,,,,,,,,,,,,61005f04b9a1eec4bc7e4e48,61037064418fb441f76aa7b5,2021-07-29_20h28.06.730,Simcolourproject_2stim_asymm_v5,2020.2.10,Linux x86_64,60,61025ae37ef11b136ea224fe,,,,,,,,,3443,59.39532483,-125.9072349,1,0,0,response3disk,,4,-7.01639491,2.748577588,1,0,0,rectangle,-7.01639491,2.748577588,1,0,0,-7.01639491,2.748577588,1,0,0,0,21,21,18,1,,,,,,,,
,,,,,,,,,,,,,FF,,,,,,,,0.8498,,,,,,,,,,,,,,,,,,,,,,61005f04b9a1eec4bc7e4e48,61037064418fb441f76aa7b5,2021-07-29_20h28.06.730,Simcolourproject_2stim_asymm_v5,2020.2.10,Linux x86_64,60,61025ae37ef11b136ea224fe,,,,,,,,,3035,-41.90203996,-81.82686313,1,0,0,response5disk,,3,24.88677939,-1.402887318,1,0,0,rectangle,24.88677939,-1.402887318,1,0,0,24.88677939,-1.402887318,1,0,0,0,22,22,102,1,,,,,,,,
,,,,,,,,,,,,,FF,,,,,,,,0.9323,,,,,,,,,,,,,,,,,,,,,,61005f04b9a1eec4bc7e4e48,61037064418fb441f76aa7b5,2021-07-29_20h28.06.730,Simcolourproject_2stim_asymm_v5,2020.2.10,Linux x86_64,60,61025ae37ef11b136ea224fe,,,,,,,,,2140,87.62862603,-42.09483128,1,0,0,response3disk,,5,28.92847867,1.003167406,1,0,0,rectangle,28.92847867,1.003167406,1,0,0,28.92847867,1.003167406,1,0,0,0,23,23,72,1,,,,,,,,
,,,,,,,,,,,,,FF,,,,,,,,2.168,,,,,,,,,,,,,,,,,,,,,,61005f04b9a1eec4bc7e4e48,61037064418fb441f76aa7b5,2021-07-29_20h28.06.730,Simcolourproject_2stim_asymm_v5,2020.2.10,Linux x86_64,60,61025ae37ef11b136ea224fe,,,,,,,,,4245,88.31329401,105.6575635,1,0,0,response1disk,,7,24.81490439,-2.096637328,1,0,0,rectangle,24.81490439,-2.096637328,1,0,0,24.81490439,-2.096637328,1,0,0,0,24,24,138,1,,,,,,,,
,,,,,,,,,,,,,FF,,,,,,,,2.165,,,,,,,,,,,,,,,,,,,,,,61005f04b9a1eec4bc7e4e48,61037064418fb441f76aa7b5,2021-07-29_20h28.06.730,Simcolourproject_2stim_asymm_v5,2020.2.10,Linux x86_64,60,61025ae37ef11b136ea224fe,,,,,,,,,2781,-21.40970567,-118.4071859,1,0,0,response5disk,,3,8.116222503,1.714983823,1,0,0,rectangle,8.116222503,1.714983823,1,0,0,8.116222503,1.714983823,1,0,0,0,25,25,34,1,,,,,,,,
,,,,,,,,,,,,,FF,,,,,,,,1.5155,,,,,,,,,,,,,,,,,,,,,,61005f04b9a1eec4bc7e4e48,61037064418fb441f76aa7b5,2021-07-29_20h28.06.730,Simcolourproject_2stim_asymm_v5,2020.2.10,Linux x86_64,60,61025ae37ef11b136ea224fe,,,,,,,,,3129,95.99200506,126.3858841,1,0,0,response1disk,,7,-4.279724948,-11.85957693,1,0,0,rectangle,-4.279724948,-11.85957693,1,0,0,-4.279724948,-11.85957693,1,0,0,0,26,26,54,1,,,,,,,,
,,,,,,,,,,,,,FF,,,,,,,,1.5321,,,,,,,,,,,,,,,,,,,,,,61005f04b9a1eec4bc7e4e48,61037064418fb441f76aa7b5,2021-07-29_20h28.06.730,Simcolourproject_2stim_asymm_v5,2020.2.10,Linux x86_64,60,61025ae37ef11b136ea224fe,,,,,,,,,4161,-87.96976526,23.08619996,1,0,0,response7disk,,1,1.597277093,1.241546316,1,0,0,rectangle,41.59620347,116.9673049,1,0,0,2.611388436,-8.582135471,1,0,0,0,27,27,108,1,,response1disk_3,TRUE,7,7,"[82,90,239,299,187,322,96,39,195,268,90,247,45,85,194,267,282,231,28,283]",2.2838,rectangle
,,,,,,,,,,,,,FF,,,,,,,,2.7003,,,,,,,,,,,,,,,,,,,,,,61005f04b9a1eec4bc7e4e48,61037064418fb441f76aa7b5,2021-07-29_20h28.06.730,Simcolourproject_2stim_asymm_v5,2020.2.10,Linux x86_64,60,61025ae37ef11b136ea224fe,,,,,,,,,3860,37.22950419,-80.75117952,1,0,0,response3disk,,4,-0.841590131,-14.06914727,1,0,0,rectangle,-0.841590131,-14.06914727,1,0,0,-0.841590131,-14.06914727,1,0,0,0,28,28,99,1,,,,,,,,
,,,,,,,,,,,,,FF,,,,,,,,1.2141,,,,,,,,,,,,,,,,,,,,,,61005f04b9a1eec4bc7e4e48,61037064418fb441f76aa7b5,2021-07-29_20h28.06.730,Simcolourproject_2stim_asymm_v5,2020.2.10,Linux x86_64,60,61025ae37ef11b136ea224fe,,,,,,,,,2681,54.3257935,-36.80117886,1,0,0,response3disk,,5,2.645226327,-11.3894109,1,0,0,rectangle,2.645226327,-11.3894109,1,0,0,2.645226327,-11.3894109,1,0,0,0,29,29,71,1,,,,,,,,
,,,,,,,,,,,,,FF,,,,,,,,1.2344,,,,,,,,,,,,,,,,,,,,,,61005f04b9a1eec4bc7e4e48,61037064418fb441f76aa7b5,2021-07-29_20h28.06.730,Simcolourproject_2stim_asymm_v5,2020.2.10,Linux x86_64,60,61025ae37ef11b136ea224fe,,,,,,,,,3147,-106.4123437,-93.31792775,1,0,0,response5disk,,2,7.522423666,4.272210423,1,0,0,rectangle,7.522423666,4.272210423,1,0,0,7.522423666,4.272210423,1,0,0,0,30,30,11,1,,,,,,,,
,,,,,,,,,,,,,FF,,,,,,,,1.1062,,,,,,,,,,,,,,,,,,,,,,61005f04b9a1eec4bc7e4e48,61037064418fb441f76aa7b5,2021-07-29_20h28.06.730,Simcolourproject_2stim_asymm_v5,2020.2.10,Linux x86_64,60,61025ae37ef11b136ea224fe,,,,,,,,,3108,-97.18363258,-54.63423577,1,0,0,response5disk,,2,-9.277625413,-12.79868827,1,0,0,rectangle,-9.277625413,-12.79868827,1,0,0,-9.277625413,-12.79868827,1,0,0,0,31,31,153,1,,,,,,,,
,,,,,,,,,,,,,FF,,,,,,,,1.1207,,,,,,,,,,,,,,,,,,,,,,61005f04b9a1eec4bc7e4e48,61037064418fb441f76aa7b5,2021-07-29_20h28.06.730,Simcolourproject_2stim_asymm_v5,2020.2.10,Linux x86_64,60,61025ae37ef11b136ea224fe,,,,,,,,,1369,-72.77054628,-55.86299555,1,0,0,response5disk,,2,-4.754676127,-7.810699913,1,0,0,rectangle,-4.754676127,-7.810699913,1,0,0,-4.754676127,-7.810699913,1,0,0,0,32,32,91,1,,,,,,,,
,,,,,,,,,,,,,FF,,,,,,,,1.9846,,,,,,,,,,,,,,,,,,,,,,61005f04b9a1eec4bc7e4e48,61037064418fb441f76aa7b5,2021-07-29_20h28.06.730,Simcolourproject_2stim_asymm_v5,2020.2.10,Linux x86_64,60,61025ae37ef11b136ea224fe,,,,,,,,,3127,67.75968042,24.83471073,1,0,0,response1disk,,6,24.48189657,-11.76616872,1,0,0,rectangle,24.48189657,-11.76616872,1,0,0,24.48189657,-11.76616872,1,0,0,0,33,33,78,1,,,,,,,,
,,,,,,,,,,,,,FF,,,,,,,,1.3806,,,,,,,,,,,,,,,,,,,,,,61005f04b9a1eec4bc7e4e48,61037064418fb441f76aa7b5,2021-07-29_20h28.06.730,Simcolourproject_2stim_asymm_v5,2020.2.10,Linux x86_64,60,61025ae37ef11b136ea224fe,,,,,,,,,4101,49.18116452,-38.86021209,1,0,0,response3disk,,5,9.117003767,-2.89297523,1,0,0,rectangle,9.117003767,-2.89297523,1,0,0,9.117003767,-2.89297523,1,0,0,0,34,34,149,1,,,,,,,,
,,,,,,,,,,,,,FF,,,,,,,,2.348,,,,,,,,,,,,,,,,,,,,,,61005f04b9a1eec4bc7e4e48,61037064418fb441f76aa7b5,2021-07-29_20h28.06.730,Simcolourproject_2stim_asymm_v5,2020.2.10,Linux x86_64,60,61025ae37ef11b136ea224fe,,,,,,,,,2878,108.6991342,-33.1062081,1,0,0,response3disk,,5,22.6745235,-5.099908857,1,0,0,rectangle,22.6745235,-5.099908857,1,0,0,22.6745235,-5.099908857,1,0,0,0,35,35,114,1,,,,,,,,
,,,,,,,,,,,,,FF,,,,,,,,1.9156,,,,,,,,,,,,,,,,,,,,,,61005f04b9a1eec4bc7e4e48,61037064418fb441f76aa7b5,2021-07-29_20h28.06.730,Simcolourproject_2stim_asymm_v5,2020.2.10,Linux x86_64,60,61025ae37ef11b136ea224fe,,,,,,,,,3581,68.50011012,95.42062487,1,0,0,response1disk,,7,-0.38856278,-3.684723289,1,0,0,rectangle,-0.38856278,-3.684723289,1,0,0,-0.38856278,-3.684723289,1,0,0,0,36,36,74,1,,,,,,,,
,,,,,,,,,,,,,FF,,,,,,,,2.3485,,,,,,,,,,,,,,,,,,,,,,61005f04b9a1eec4bc7e4e48,61037064418fb441f76aa7b5,2021-07-29_20h28.06.730,Simcolourproject_2stim_asymm_v5,2020.2.10,Linux x86_64,60,61025ae37ef11b136ea224fe,,,,,,,,,3853,37.21871317,-80.963826,1,0,0,response3disk,,4,-14.58368018,2.467327584,1,0,0,rectangle,-14.58368018,2.467327584,1,0,0,-14.58368018,2.467327584,1,0,0,0,37,37,156,1,,,,,,,,
,,,,,,,,,,,,,FF,,,,,,,,1.1654,,,,,,,,,,,,,,,,,,,,,,61005f04b9a1eec4bc7e4e48,61037064418fb441f76aa7b5,2021-07-29_20h28.06.730,Simcolourproject_2stim_asymm_v5,2020.2.10,Linux x86_64,60,61025ae37ef11b136ea224fe,,,,,,,,,2087,31.65001192,-101.6910236,1,0,0,response3disk,,4,31.75465059,3.375384238,1,0,0,rectangle,-46.85247949,-97.86934383,1,0,0,-0.293006138,-5.054596356,1,0,0,0,38,38,35,1,,response5disk_3,TRUE,3,3,"[82,90,239,299,187,322,96,39,195,268,90,247,45,85,194,267,282,231,28,283]",1.4505,rectangle
,,,,,,,,,,,,,FF,,,,,,,,3.1993,,,,,,,,,,,,,,,,,,,,,,61005f04b9a1eec4bc7e4e48,61037064418fb441f76aa7b5,2021-07-29_20h28.06.730,Simcolourproject_2stim_asymm_v5,2020.2.10,Linux x86_64,60,61025ae37ef11b136ea224fe,,,,,,,,,931,100.9032356,85.33602999,1,0,0,response1disk,,6,-1.414539358,-8.393707734,1,0,0,rectangle,-1.414539358,-8.393707734,1,0,0,-1.414539358,-8.393707734,1,0,0,0,39,39,13,1,,,,,,,,
,,,,,,,,,,,,,FF,,,,,,,,1.1327,,,,,,,,,,,,,,,,,,,,,,61005f04b9a1eec4bc7e4e48,61037064418fb441f76aa7b5,2021-07-29_20h28.06.730,Simcolourproject_2stim_asymm_v5,2020.2.10,Linux x86_64,60,61025ae37ef11b136ea224fe,,,,,,,,,1738,83.46261034,-54.5348217,1,0,0,response3disk,,5,21.56739458,-5.938873713,1,0,0,rectangle,21.56739458,-5.938873713,1,0,0,21.56739458,-5.938873713,1,0,0,0,40,40,126,1,,,,,,,,
,,,,,,,,,,,,,FF,,,,,,,,1.4329,,,,,,,,,,,,,,,,,,,,,,61005f04b9a1eec4bc7e4e48,61037064418fb441f76aa7b5,2021-07-29_20h28.06.730,Simcolourproject_2stim_asymm_v5,2020.2.10,Linux x86_64,60,61025ae37ef11b136ea224fe,,,,,,,,,2800,53.74464115,-84.14722449,1,0,0,response3disk,,4,4.625206826,-3.38745766,1,0,0,rectangle,4.625206826,-3.38745766,1,0,0,4.625206826,-3.38745766,1,0,0,0,41,41,49,1,,,,,,,,
,,,,,,,,,,,,,FF,,,,,,,,1.8158,,,,,,,,,,,,,,,,,,,,,,61005f04b9a1eec4bc7e4e48,61037064418fb441f76aa7b5,2021-07-29_20h28.06.730,Simcolourproject_2stim_asymm_v5,2020.2.10,Linux x86_64,60,61025ae37ef11b136ea224fe,,,,,,,,,3178,117.4723765,74.56666948,1,0,0,response1disk,,6,-22.06327013,6.286028813,1,0,0,rectangle,-22.06327013,6.286028813,1,0,0,-22.06327013,6.286028813,1,0,0,0,42,42,133,1,,,,,,,,
,,,,,,,,,,,,,FF,,,,,,,,0.9156,,,,,,,,,,,,,,,,,,,,,,61005f04b9a1eec4bc7e4e48,61037064418fb441f76aa7b5,2021-07-29_20h28.06.730,Simcolourproject_2stim_asymm_v5,2020.2.10,Linux x86_64,60,61025ae37ef11b136ea224fe,,,,,,,,,324,45.65870353,88.15272925,1,0,0,response1disk,,7,12.86207218,-9.980719477,1,0,0,rectangle,12.86207218,-9.980719477,1,0,0,12.86207218,-9.980719477,1,0,0,0,43,43,76,1,,,,,,,,
,,,,,,,,,,,,,FF,,,,,,,,3.582,,,,,,,,,,,,,,,,,,,,,,61005f04b9a1eec4bc7e4e48,61037064418fb441f76aa7b5,2021-07-29_20h28.06.730,Simcolourproject_2stim_asymm_v5,2020.2.10,Linux x86_64,60,61025ae37ef11b136ea224fe,,,,,,,,,590,61.4459108,-96.12510553,1,0,0,response3disk,,4,-13.89530126,-1.321832629,1,0,0,rectangle,104.9816536,76.07748493,1,0,0,-7.137391006,-4.703473304,1,0,0,0,44,44,30,1,,response1disk_3,TRUE,6,6,"[82,90,239,299,187,322,96,39,195,268,90,247,45,85,194,267,282,231,28,283]",1.7981,rectangle
,,,,,,,,,,,,,FF,,,,,,,,1.2967,,,,,,,,,,,,,,,,,,,,,,61005f04b9a1eec4bc7e4e48,61037064418fb441f76aa7b5,2021-07-29_20h28.06.730,Simcolourproject_2stim_asymm_v5,2020.2.10,Linux x86_64,60,61025ae37ef11b136ea224fe,,,,,,,,,1430,32.07320528,-83.61040807,1,0,0,response3disk,,4,-13.74491064,1.162542408,1,0,0,rectangle,-13.74491064,1.162542408,1,0,0,-13.74491064,1.162542408,1,0,0,0,45,45,82,1,,,,,,,,
,,,,,,,,,,,,,FF,,,,,,,,0.9478,,,,,,,,,,,,,,,,,,,,,,61005f04b9a1eec4bc7e4e48,61037064418fb441f76aa7b5,2021-07-29_20h28.06.730,Simcolourproject_2stim_asymm_v5,2020.2.10,Linux x86_64,60,61025ae37ef11b136ea224fe,,,,,,,,,1662,107.7566537,-54.86948968,1,0,0,response3disk,,5,10.82188661,6.213372562,1,0,0,rectangle,10.82188661,6.213372562,1,0,0,10.82188661,6.213372562,1,0,0,0,46,46,12,1,,,,,,,,
,,,,,,,,,,,,,FF,,,,,,,,1.3329,,,,,,,,,,,,,,,,,,,,,,61005f04b9a1eec4bc7e4e48,61037064418fb441f76aa7b5,2021-07-29_20h28.06.730,Simcolourproject_2stim_asymm_v5,2020.2.10,Linux x86_64,60,61025ae37ef11b136ea224fe,,,,,,,,,583,62.17364518,93.26076155,1,0,0,response1disk,,7,23.59322469,-9.845221428,1,0,0,rectangle,23.59322469,-9.845221428,1,0,0,23.59322469,-9.845221428,1,0,0,0,47,47,151,1,,,,,,,,
,,,,,,,,,,,,,FF,,,,,,,,1.1485,,,,,,,,,,,,,,,,,,,,,,61005f04b9a1eec4bc7e4e48,61037064418fb441f76aa7b5,2021-07-29_20h28.06.730,Simcolourproject_2stim_asymm_v5,2020.2.10,Linux x86_64,60,61025ae37ef11b136ea224fe,,,,,,,,,2476,27.52882045,-55.77466547,1,0,0,response3disk,,4,9.210900253,-1.762799432,1,0,0,rectangle,9.210900253,-1.762799432,1,0,0,9.210900253,-1.762799432,1,0,0,0,48,48,17,1,,,,,,,,
,,,,,,,,,,,,,FF,,,,,,,,0.8989,,,,,,,,,,,,,,,,,,,,,,61005f04b9a1eec4bc7e4e48,61037064418fb441f76aa7b5,2021-07-29_20h28.06.730,Simcolourproject_2stim_asymm_v5,2020.2.10,Linux x86_64,60,61025ae37ef11b136ea224fe,,,,,,,,,396,92.70372376,-66.30332774,1,0,0,response3disk,,5,11.73926943,-8.261529998,1,0,0,rectangle,11.73926943,-8.261529998,1,0,0,11.73926943,-8.261529998,1,0,0,0,49,49,125,1,,,,,,,,
,,,,,,,,,,,,,FF,,,,,,,,1.6816,,,,,,,,,,,,,,,,,,,,,,61005f04b9a1eec4bc7e4e48,61037064418fb441f76aa7b5,2021-07-29_20h28.06.730,Simcolourproject_2stim_asymm_v5,2020.2.10,Linux x86_64,60,61025ae37ef11b136ea224fe,,,,,,,,,1688,-89.11024379,-66.62388438,1,0,0,response5disk,,2,-25.36380729,-15.80181331,1,0,0,rectangle,-25.36380729,-15.80181331,1,0,0,-25.36380729,-15.80181331,1,0,0,0,50,50,0,1,,,,,,,,
,,,,,,,,,,,,,FF,,,,,,,,0.9328,,,,,,,,,,,,,,,,,,,,,,61005f04b9a1eec4bc7e4e48,61037064418fb441f76aa7b5,2021-07-29_20h28.06.730,Simcolourproject_2stim_asymm_v5,2020.2.10,Linux x86_64,60,61025ae37ef11b136ea224fe,,,,,,,,,1027,29.09630094,-83.3941483,1,0,0,response3disk,,4,14.61768744,4.018645966,1,0,0,rectangle,14.61768744,4.018645966,1,0,0,14.61768744,4.018645966,1,0,0,0,51,51,29,1,,,,,,,,
,,,,,,,,,,,,,FF,,,,,,,,1.3003,,,,,,,,,,,,,,,,,,,,,,61005f04b9a1eec4bc7e4e48,61037064418fb441f76aa7b5,2021-07-29_20h28.06.730,Simcolourproject_2stim_asymm_v5,2020.2.10,Linux x86_64,60,61025ae37ef11b136ea224fe,,,,,,,,,3501,63.78585224,63.37514099,1,0,0,response1disk,,6,10.06832214,-11.60737966,1,0,0,rectangle,10.06832214,-11.60737966,1,0,0,10.06832214,-11.60737966,1,0,0,0,52,52,120,1,,,,,,,,
,,,,,,,,,,,,,FF,,,,,,,,0.7995,,,,,,,,,,,,,,,,,,,,,,61005f04b9a1eec4bc7e4e48,61037064418fb441f76aa7b5,2021-07-29_20h28.06.730,Simcolourproject_2stim_asymm_v5,2020.2.10,Linux x86_64,60,61025ae37ef11b136ea224fe,,,,,,,,,3476,-71.52933532,-34.97163782,1,0,0,response5disk,,2,22.15816607,-4.934039714,1,0,0,rectangle,22.15816607,-4.934039714,1,0,0,22.15816607,-4.934039714,1,0,0,0,53,53,134,1,,,,,,,,
,,,,,,,,,,,,,FF,,,,,,,,1,,,,,,,,,,,,,,,,,,,,,,61005f04b9a1eec4bc7e4e48,61037064418fb441f76aa7b5,2021-07-29_20h28.06.730,Simcolourproject_2stim_asymm_v5,2020.2.10,Linux x86_64,60,61025ae37ef11b136ea224fe,,,,,,,,,2485,-51.44964753,-30.20112993,1,0,0,response5disk,,2,-14.49808448,-6.332623719,1,0,0,rectangle,-14.49808448,-6.332623719,1,0,0,-14.49808448,-6.332623719,1,0,0,0,54,54,46,1,,,,,,,,
,,,,,,,,,,,,,FF,,,,,,,,0.9337,,,,,,,,,,,,,,,,,,,,,,61005f04b9a1eec4bc7e4e48,61037064418fb441f76aa7b5,2021-07-29_20h28.06.730,Simcolourproject_2stim_asymm_v5,2020.2.10,Linux x86_64,60,61025ae37ef11b136ea224fe,,,,,,,,,2526,46.26778557,-94.21724417,1,0,0,response3disk,,4,-0.974060836,-0.684918557,1,0,0,rectangle,-0.974060836,-0.684918557,1,0,0,-0.974060836,-0.684918557,1,0,0,0,55,55,22,1,,,,,,,,
,,,,,,,,,,,,,FF,,,,,,,,1.983,,,,,,,,,,,,,,,,,,,,,,61005f04b9a1eec4bc7e4e48,61037064418fb441f76aa7b5,2021-07-29_20h28.06.730,Simcolourproject_2stim_asymm_v5,2020.2.10,Linux x86_64,60,61025ae37ef11b136ea224fe,,,,,,,,,646,-58.23538981,-103.9327228,1,0,0,response5disk,,3,-13.08841649,-4.081891264,1,0,0,rectangle,-13.08841649,-4.081891264,1,0,0,-13.08841649,-4.081891264,1,0,0,0,56,56,20,1,,,,,,,,
,,,,,,,,,,,,,FF,,,,,,,,1.1657,,,,,,,,,,,,,,,,,,,,,,61005f04b9a1eec4bc7e4e48,61037064418fb441f76aa7b5,2021-07-29_20h28.06.730,Simcolourproject_2stim_asymm_v5,2020.2.10,Linux x86_64,60,61025ae37ef11b136ea224fe,,,,,,,,,1058,-81.1599507,37.8994326,1,0,0,response7disk,,1,-10.06444183,5.852532712,1,0,0,rectangle,-10.06444183,5.852532712,1,0,0,-10.06444183,5.852532712,1,0,0,0,57,57,33,1,,,,,,,,
,,,,,,,,,,,,,FF,,,,,,,,2.2661,,,,,,,,,,,,,,,,,,,,,,61005f04b9a1eec4bc7e4e48,61037064418fb441f76aa7b5,2021-07-29_20h28.06.730,Simcolourproject_2stim_asymm_v5,2020.2.10,Linux x86_64,60,61025ae37ef11b136ea224fe,,,,,,,,,2259,-35.28221564,-83.08228307,1,0,0,response5disk,,3,13.92183782,-1.79048498,1,0,0,rectangle,13.92183782,-1.79048498,1,0,0,13.92183782,-1.79048498,1,0,0,0,58,58,1,1,,,,,,,,
,,,,,,,,,,,,,FF,,,,,,,,1.4989,,,,,,,,,,,,,,,,,,,,,,61005f04b9a1eec4bc7e4e48,61037064418fb441f76aa7b5,2021-07-29_20h28.06.730,Simcolourproject_2stim_asymm_v5,2020.2.10,Linux x86_64,60,61025ae37ef11b136ea224fe,,,,,,,,,2862,67.57647729,32.15512099,1,0,0,response1disk,,6,11.51715029,4.669476054,1,0,0,rectangle,11.51715029,4.669476054,1,0,0,11.51715029,4.669476054,1,0,0,0,59,59,81,1,,,,,,,,
,,,,,,,,,,,,,FF,,,,,,,,1.1501,,,,,,,,,,,,,,,,,,,,,,61005f04b9a1eec4bc7e4e48,61037064418fb441f76aa7b5,2021-07-29_20h28.06.730,Simcolourproject_2stim_asymm_v5,2020.2.10,Linux x86_64,60,61025ae37ef11b136ea224fe,,,,,,,,,610,87.87921197,-30.14878618,1,0,0,response3disk,,5,-4.200232759,2.289788519,1,0,0,rectangle,-4.200232759,2.289788519,1,0,0,-4.200232759,2.289788519,1,0,0,0,60,60,61,1,,,,,,,,
,,,,,,,,,,,,,FF,,,,,,,,0.934,,,,,,,,,,,,,,,,,,,,,,61005f04b9a1eec4bc7e4e48,61037064418fb441f76aa7b5,2021-07-29_20h28.06.730,Simcolourproject_2stim_asymm_v5,2020.2.10,Linux x86_64,60,61025ae37ef11b136ea224fe,,,,,,,,,629,77.32110635,91.17384746,1,0,0,response1disk,,7,18.43214063,5.464593254,1,0,0,rectangle,18.43214063,5.464593254,1,0,0,18.43214063,5.464593254,1,0,0,0,61,61,64,1,,,,,,,,
,,,,,,,,,,,,,FF,,,,,,,,1.0822,,,,,,,,,,,,,,,,,,,,,,61005f04b9a1eec4bc7e4e48,61037064418fb441f76aa7b5,2021-07-29_20h28.06.730,Simcolourproject_2stim_asymm_v5,2020.2.10,Linux x86_64,60,61025ae37ef11b136ea224fe,,,,,,,,,1135,20.29210159,-68.19937269,1,0,0,response3disk,,4,7.650988121,-16.49732114,1,0,0,rectangle,7.650988121,-16.49732114,1,0,0,7.650988121,-16.49732114,1,0,0,0,62,62,147,1,,,,,,,,
,,,,,,,,,,,,,FF,,,,,,,,1.1009,,,,,,,,,,,,,,,,,,,,,,61005f04b9a1eec4bc7e4e48,61037064418fb441f76aa7b5,2021-07-29_20h28.06.730,Simcolourproject_2stim_asymm_v5,2020.2.10,Linux x86_64,60,61025ae37ef11b136ea224fe,,,,,,,,,1865,36.85884988,-98.16167782,1,0,0,response3disk,,4,-11.18607271,-7.043610058,1,0,0,rectangle,-11.18607271,-7.043610058,1,0,0,-11.18607271,-7.043610058,1,0,0,0,63,63,131,1,,,,,,,,
,,,,,,,,,,,,,FF,,,,,,,,0.7839,,,,,,,,,,,,,,,,,,,,,,61005f04b9a1eec4bc7e4e48,61037064418fb441f76aa7b5,2021-07-29_20h28.06.730,Simcolourproject_2stim_asymm_v5,2020.2.10,Linux x86_64,60,61025ae37ef11b136ea224fe,,,,,,,,,1326,-20.16995956,-34.08931359,1,0,0,response5disk,,3,14.47227728,3.725188931,1,0,0,rectangle,14.47227728,3.725188931,1,0,0,14.47227728,3.725188931,1,0,0,0,64,64,70,1,,,,,,,,
,,,,,,,,,,,,,FF,,,,,,,,0.8844,,,,,,,,,,,,,,,,,,,,,,61005f04b9a1eec4bc7e4e48,61037064418fb441f76aa7b5,2021-07-29_20h28.06.730,Simcolourproject_2stim_asymm_v5,2020.2.10,Linux x86_64,60,61025ae37ef11b136ea224fe,,,,,,,,,876,48.78194576,84.10036103,1,0,0,response1disk,,7,-15.23411964,9.8541441,1,0,0,rectangle,-15.23411964,9.8541441,1,0,0,-15.23411964,9.8541441,1,0,0,0,65,65,42,1,,,,,,,,
,,,,,,,,,,,,,FF,,,,,,,,0.8315,,,,,,,,,,,,,,,,,,,,,,61005f04b9a1eec4bc7e4e48,61037064418fb441f76aa7b5,2021-07-29_20h28.06.730,Simcolourproject_2stim_asymm_v5,2020.2.10,Linux x86_64,60,61025ae37ef11b136ea224fe,,,,,,,,,2001,79.53653607,-39.12886444,1,0,0,response3disk,,5,-2.757263988,9.796526912,1,0,0,rectangle,-2.757263988,9.796526912,1,0,0,-2.757263988,9.796526912,1,0,0,0,66,66,155,1,,,,,,,,
,,,,,,,,,,,,,FF,,,,,,,,1.2832,,,,,,,,,,,,,,,,,,,,,,61005f04b9a1eec4bc7e4e48,61037064418fb441f76aa7b5,2021-07-29_20h28.06.730,Simcolourproject_2stim_asymm_v5,2020.2.10,Linux x86_64,60,61025ae37ef11b136ea224fe,,,,,,,,,1397,131.8714978,-62.27998783,1,0,0,response3disk,,5,26.59522668,-5.175543624,1,0,0,rectangle,26.59522668,-5.175543624,1,0,0,26.59522668,-5.175543624,1,0,0,0,67,67,32,1,,,,,,,,
,,,,,,,,,,,,,FF,,,,,,,,0.9668,,,,,,,,,,,,,,,,,,,,,,61005f04b9a1eec4bc7e4e48,61037064418fb441f76aa7b5,2021-07-29_20h28.06.730,Simcolourproject_2stim_asymm_v5,2020.2.10,Linux x86_64,60,61025ae37ef11b136ea224fe,,,,,,,,,3091,-30.87015503,-120.7636313,1,0,0,response5disk,,3,27.71578334,1.384856865,1,0,0,rectangle,27.71578334,1.384856865,1,0,0,27.71578334,1.384856865,1,0,0,0,68,68,59,1,,,,,,,,
,,,,,,,,,,,,,FF,,,,,,,,1.2324,,,,,,,,,,,,,,,,,,,,,,61005f04b9a1eec4bc7e4e48,61037064418fb441f76aa7b5,2021-07-29_20h28.06.730,Simcolourproject_2stim_asymm_v5,2020.2.10,Linux x86_64,60,61025ae37ef11b136ea224fe,,,,,,,,,4243,46.20191643,114.8812941,1,0,0,response1disk,,7,4.534288855,3.716155727,1,0,0,rectangle,4.534288855,3.716155727,1,0,0,4.534288855,3.716155727,1,0,0,0,69,69,90,1,,,,,,,,
,,,,,,,,,,,,,FF,,,,,,,,1.2665,,,,,,,,,,,,,,,,,,,,,,61005f04b9a1eec4bc7e4e48,61037064418fb441f76aa7b5,2021-07-29_20h28.06.730,Simcolourproject_2stim_asymm_v5,2020.2.10,Linux x86_64,60,61025ae37ef11b136ea224fe,,,,,,,,,1455,-106.9692773,-34.53638391,1,0,0,response5disk,,2,16.13843942,-9.873004631,1,0,0,rectangle,16.13843942,-9.873004631,1,0,0,16.13843942,-9.873004631,1,0,0,0,70,70,39,1,,,,,,,,
,,,,,,,,,,,,,FF,,,,,,,,0.8199,,,,,,,,,,,,,,,,,,,,,,61005f04b9a1eec4bc7e4e48,61037064418fb441f76aa7b5,2021-07-29_20h28.06.730,Simcolourproject_2stim_asymm_v5,2020.2.10,Linux x86_64,60,61025ae37ef11b136ea224fe,,,,,,,,,2856,51.97384034,-26.04834667,1,0,0,response3disk,,5,14.43140814,8.924212446,1,0,0,rectangle,14.43140814,8.924212446,1,0,0,14.43140814,8.924212446,1,0,0,0,71,71,27,1,,,,,,,,
,,,,,,,,,,,,,FF,,,,,,,,0.8491,,,,,,,,,,,,,,,,,,,,,,61005f04b9a1eec4bc7e4e48,61037064418fb441f76aa7b5,2021-07-29_20h28.06.730,Simcolourproject_2stim_asymm_v5,2020.2.10,Linux x86_64,60,61025ae37ef11b136ea224fe,,,,,,,,,2199,38.98858624,108.4554639,1,0,0,response1disk,,7,34.08785375,1.854046325,1,0,0,rectangle,34.08785375,1.854046325,1,0,0,34.08785375,1.854046325,1,0,0,0,72,72,96,1,,,,,,,,
,,,,,,,,,,,,,FF,,,,,,,,1.5502,,,,,,,,,,,,,,,,,,,,,,61005f04b9a1eec4bc7e4e48,61037064418fb441f76aa7b5,2021-07-29_20h28.06.730,Simcolourproject_2stim_asymm_v5,2020.2.10,Linux x86_64,60,61025ae37ef11b136ea224fe,,,,,,,,,4354,32.12960177,-84.83614051,1,0,0,response3disk,,4,-10.90760591,2.985442826,1,0,0,rectangle,-10.90760591,2.985442826,1,0,0,-10.90760591,2.985442826,1,0,0,0,73,73,55,1,,,,,,,,
,,,,,,,,,,,,,FF,,,,,,,,1.1326,,,,,,,,,,,,,,,,,,,,,,61005f04b9a1eec4bc7e4e48,61037064418fb441f76aa7b5,2021-07-29_20h28.06.730,Simcolourproject_2stim_asymm_v5,2020.2.10,Linux x86_64,60,61025ae37ef11b136ea224fe,,,,,,,,,1267,42.37364489,-62.05611088,1,0,0,response3disk,,4,16.48365427,-7.823785851,1,0,0,rectangle,16.48365427,-7.823785851,1,0,0,16.48365427,-7.823785851,1,0,0,0,74,74,19,1,,,,,,,,
,,,,,,,,,,,,,FF,,,,,,,,1.3491,,,,,,,,,,,,,,,,,,,,,,61005f04b9a1eec4bc7e4e48,61037064418fb441f76aa7b5,2021-07-29_20h28.06.730,Simcolourproject_2stim_asymm_v5,2020.2.10,Linux x86_64,60,61025ae37ef11b136ea224fe,,,,,,,,,1357,36.87916238,64.1628119,1,0,0,response1disk,,7,19.73482619,5.860589353,1,0,0,rectangle,19.73482619,5.860589353,1,0,0,19.73482619,5.860589353,1,0,0,0,75,75,110,1,,,,,,,,
,,,,,,,,,,,,,FF,,,,,,,,0.9825,,,,,,,,,,,,,,,,,,,,,,61005f04b9a1eec4bc7e4e48,61037064418fb441f76aa7b5,2021-07-29_20h28.06.730,Simcolourproject_2stim_asymm_v5,2020.2.10,Linux x86_64,60,61025ae37ef11b136ea224fe,,,,,,,,,1886,-111.6462305,33.94398821,1,0,0,response7disk,,1,22.15772662,-13.82949883,1,0,0,rectangle,22.15772662,-13.82949883,1,0,0,22.15772662,-13.82949883,1,0,0,0,76,76,87,1,,,,,,,,
,,,,,,,,,,,,,FF,,,,,,,,1.3495,,,,,,,,,,,,,,,,,,,,,,61005f04b9a1eec4bc7e4e48,61037064418fb441f76aa7b5,2021-07-29_20h28.06.730,Simcolourproject_2stim_asymm_v5,2020.2.10,Linux x86_64,60,61025ae37ef11b136ea224fe,,,,,,,,,267,89.93936825,-47.54546613,1,0,0,response3disk,,5,24.61309775,-12.78037772,1,0,0,rectangle,24.61309775,-12.78037772,1,0,0,24.61309775,-12.78037772,1,0,0,0,77,77,31,1,,,,,,,,
,,,,,,,,,,,,,FF,,,,,,,,1.5333,,,,,,,,,,,,,,,,,,,,,,61005f04b9a1eec4bc7e4e48,61037064418fb441f76aa7b5,2021-07-29_20h28.06.730,Simcolourproject_2stim_asymm_v5,2020.2.10,Linux x86_64,60,61025ae37ef11b136ea224fe,,,,,,,,,3317,72.58985628,83.19545379,1,0,0,response1disk,,7,11.41549013,2.700872509,1,0,0,rectangle,11.41549013,2.700872509,1,0,0,11.41549013,2.700872509,1,0,0,0,78,78,84,1,,,,,,,,
,,,,,,,,,,,,,FF,,,,,,,,1.0495,,,,,,,,,,,,,,,,,,,,,,61005f04b9a1eec4bc7e4e48,61037064418fb441f76aa7b5,2021-07-29_20h28.06.730,Simcolourproject_2stim_asymm_v5,2020.2.10,Linux x86_64,60,61025ae37ef11b136ea224fe,,,,,,,,,190,35.98384987,-66.94624767,1,0,0,response3disk,,4,5.437950978,-12.06167654,1,0,0,rectangle,5.437950978,-12.06167654,1,0,0,5.437950978,-12.06167654,1,0,0,0,79,79,109,1,,,,,,,,
,,,,,,,,,,,,,FF,,,,,,,,1.3326,,,,,,,,,,,,,,,,,,,,,,61005f04b9a1eec4bc7e4e48,61037064418fb441f76aa7b5,2021-07-29_20h28.06.730,Simcolourproject_2stim_asymm_v5,2020.2.10,Linux x86_64,60,61025ae37ef11b136ea224fe,,,,,,,,,3986,100.2151497,-48.94697982,1,0,0,response3disk,,5,21.48487505,1.194476002,1,0,0,rectangle,21.48487505,1.194476002,1,0,0,21.48487505,1.194476002,1,0,0,0,80,80,68,1,,,,,,,,
,,,,,,,,,,,,,FF,,,,,,,,0.9335,,,,,,,,,,,,,,,,,,,,,,61005f04b9a1eec4bc7e4e48,61037064418fb441f76aa7b5,2021-07-29_20h28.06.730,Simcolourproject_2stim_asymm_v5,2020.2.10,Linux x86_64,60,61025ae37ef11b136ea224fe,,,,,,,,,2418,-86.29154258,70.16293406,1,0,0,response7disk,,1,-0.448426063,-0.274859957,1,0,0,rectangle,43.13409412,-126.8975669,1,0,0,11.39034365,-8.956110086,1,0,0,0,81,81,21,1,,response3disk_3,TRUE,4,4,"[82,90,239,299,187,322,96,39,195,268,90,247,45,85,194,267,282,231,28,283]",1.6821,rectangle
,,,,,,,,,,,,,FF,,,,,,,,1.099,,,,,,,,,,,,,,,,,,,,,,61005f04b9a1eec4bc7e4e48,61037064418fb441f76aa7b5,2021-07-29_20h28.06.730,Simcolourproject_2stim_asymm_v5,2020.2.10,Linux x86_64,60,61025ae37ef11b136ea224fe,,,,,,,,,2840,23.32921101,-82.76001744,1,0,0,response3disk,,4,6.176964661,4.161614718,1,0,0,rectangle,6.176964661,4.161614718,1,0,0,6.176964661,4.161614718,1,0,0,0,82,82,58,1,,,,,,,,
,,,,,,,,,,,,,FF,,,,,,,,1.515,,,,,,,,,,,,,,,,,,,,,,61005f04b9a1eec4bc7e4e48,61037064418fb441f76aa7b5,2021-07-29_20h28.06.730,Simcolourproject_2stim_asymm_v5,2020.2.10,Linux x86_64,60,61025ae37ef11b136ea224fe,,,,,,,,,2353,88.25421198,48.8817814,1,0,0,response1disk,,6,25.78331261,9.741253473,1,0,0,rectangle,25.78331261,9.741253473,1,0,0,25.78331261,9.741253473,1,0,0,0,83,83,6,1,,,,,,,,
,,,,,,,,,,,,,FF,,,,,,,,1.8818,,,,,,,,,,,,,,,,,,,,,,61005f04b9a1eec4bc7e4e48,61037064418fb441f76aa7b5,2021-07-29_20h28.06.730,Simcolourproject_2stim_asymm_v5,2020.2.10,Linux x86_64,60,61025ae37ef11b136ea224fe,,,,,,,,,2247,65.80303977,85.93505344,1,0,0,response1disk,,7,0.997325912,-2.792193979,1,0,0,rectangle,-49.28495023,89.52077126,1,0,0,20.91793168,4.403655738,1,0,0,0,84,84,56,1,,response7disk_3,TRUE,0,0,"[82,90,239,299,187,322,96,39,195,268,90,247,45,85,194,267,282,231,28,283]",1.8137,rectangle
,,,,,,,,,,,,,FF,,,,,,,,0.933,,,,,,,,,,,,,,,,,,,,,,61005f04b9a1eec4bc7e4e48,61037064418fb441f76aa7b5,2021-07-29_20h28.06.730,Simcolourproject_2stim_asymm_v5,2020.2.10,Linux x86_64,60,61025ae37ef11b136ea224fe,,,,,,,,,3425,-98.32328104,24.38422244,1,0,0,response7disk,,1,16.11627145,4.298675267,1,0,0,rectangle,16.11627145,4.298675267,1,0,0,16.11627145,4.298675267,1,0,0,0,85,85,154,1,,,,,,,,
,,,,,,,,,,,,,FF,,,,,,,,0.9336,,,,,,,,,,,,,,,,,,,,,,61005f04b9a1eec4bc7e4e48,61037064418fb441f76aa7b5,2021-07-29_20h28.06.730,Simcolourproject_2stim_asymm_v5,2020.2.10,Linux x86_64,60,61025ae37ef11b136ea224fe,,,,,,,,,4120,-97.09637672,-47.48701886,1,0,0,response5disk,,2,-14.65716651,-16.44121762,1,0,0,rectangle,-14.65716651,-16.44121762,1,0,0,-14.65716651,-16.44121762,1,0,0,0,86,86,157,1,,,,,,,,
,,,,,,,,,,,,,FF,,,,,,,,1.4327,,,,,,,,,,,,,,,,,,,,,,61005f04b9a1eec4bc7e4e48,61037064418fb441f76aa7b5,2021-07-29_20h28.06.730,Simcolourproject_2stim_asymm_v5,2020.2.10,Linux x86_64,60,61025ae37ef11b136ea224fe,,,,,,,,,366,-104.0053124,32.05026259,1,0,0,response7disk,,1,-18.69242048,-13.8153875,1,0,0,rectangle,-18.69242048,-13.8153875,1,0,0,-18.69242048,-13.8153875,1,0,0,0,87,87,24,1,,,,,,,,
,,,,,,,,,,,,,FF,,,,,,,,0.7349,,,,,,,,,,,,,,,,,,,,,,61005f04b9a1eec4bc7e4e48,61037064418fb441f76aa7b5,2021-07-29_20h28.06.730,Simcolourproject_2stim_asymm_v5,2020.2.10,Linux x86_64,60,61025ae37ef11b136ea224fe,,,,,,,,,3575,111.5598764,-49.1340892,1,0,0,response3disk,,5,20.2516719,-7.230426467,1,0,0,rectangle,20.2516719,-7.230426467,1,0,0,20.2516719,-7.230426467,1,0,0,0,88,88,106,1,,,,,,,,
,,,,,,,,,,,,,FF,,,,,,,,0.9656,,,,,,,,,,,,,,,,,,,,,,61005f04b9a1eec4bc7e4e48,61037064418fb441f76aa7b5,2021-07-29_20h28.06.730,Simcolourproject_2stim_asymm_v5,2020.2.10,Linux x86_64,60,61025ae37ef11b136ea224fe,,,,,,,,,3968,-35.26126838,-68.03843519,1,0,0,response5disk,,3,21.90889849,-8.952643289,1,0,0,rectangle,117.2963023,-88.23604291,1,0,0,0.372814184,5.284808095,1,0,0,0,89,89,48,1,,response3disk_3,TRUE,5,5,"[82,90,239,299,187,322,96,39,195,268,90,247,45,85,194,267,282,231,28,283]",1.5837,rectangle
,,,,,,,,,,,,,FF,,,,,,,,3.3521,,,,,,,,,,,,,,,,,,,,,,61005f04b9a1eec4bc7e4e48,61037064418fb441f76aa7b5,2021-07-29_20h28.06.730,Simcolourproject_2stim_asymm_v5,2020.2.10,Linux x86_64,60,61025ae37ef11b136ea224fe,,,,,,,,,229,108.6039193,-54.61787834,1,0,0,response3disk,,5,8.23116391,-5.178473311,1,0,0,rectangle,8.23116391,-5.178473311,1,0,0,8.23116391,-5.178473311,1,0,0,0,90,90,105,1,,,,,,,,
,,,,,,,,,,,,,FF,,,,,,,,0.8496,,,,,,,,,,,,,,,,,,,,,,61005f04b9a1eec4bc7e4e48,61037064418fb441f76aa7b5,2021-07-29_20h28.06.730,Simcolourproject_2stim_asymm_v5,2020.2.10,Linux x86_64,60,61025ae37ef11b136ea224fe,,,,,,,,,1713,56.13751228,88.54164527,1,0,0,response1disk,,7,9.114220564,8.825433147,1,0,0,rectangle,9.114220564,8.825433147,1,0,0,9.114220564,8.825433147,1,0,0,0,91,91,67,1,,,,,,,,
,,,,,,,,,,,,,FF,,,,,,,,1.1504,,,,,,,,,,,,,,,,,,,,,,61005f04b9a1eec4bc7e4e48,61037064418fb441f76aa7b5,2021-07-29_20h28.06.730,Simcolourproject_2stim_asymm_v5,2020.2.10,Linux x86_64,60,61025ae37ef11b136ea224fe,,,,,,,,,3589,57.14718026,-94.62237113,1,0,0,response3disk,,4,32.62022677,-6.938483103,1,0,0,rectangle,32.62022677,-6.938483103,1,0,0,32.62022677,-6.938483103,1,0,0,0,92,92,2,1,,,,,,,,
,,,,,,,,,,,,,FF,,,,,,,,0.7827,,,,,,,,,,,,,,,,,,,,,,61005f04b9a1eec4bc7e4e48,61037064418fb441f76aa7b5,2021-07-29_20h28.06.730,Simcolourproject_2stim_asymm_v5,2020.2.10,Linux x86_64,60,61025ae37ef11b136ea224fe,,,,,,,,,3050,-50.98490143,-74.99380638,1,0,0,response5disk,,3,23.04298054,-4.200348297,1,0,0,rectangle,23.04298054,-4.200348297,1,0,0,23.04298054,-4.200348297,1,0,0,0,93,93,47,1,,,,,,,,
,,,,,,,,,,,,,FF,,,,,,,,1.0834,,,,,,,,,,,,,,,,,,,,,,61005f04b9a1eec4bc7e4e48,61037064418fb441f76aa7b5,2021-07-29_20h28.06.730,Simcolourproject_2stim_asymm_v5,2020.2.10,Linux x86_64,60,61025ae37ef11b136ea224fe,,,,,,,,,1362,88.97950496,71.35744092,1,0,0,response1disk,,6,9.732042839,-7.434039751,1,0,0,rectangle,9.732042839,-7.434039751,1,0,0,9.732042839,-7.434039751,1,0,0,0,94,94,57,1,,,,,,,,
,,,,,,,,,,,,,FF,,,,,,,,1.2647,,,,,,,,,,,,,,,,,,,,,,61005f04b9a1eec4bc7e4e48,61037064418fb441f76aa7b5,2021-07-29_20h28.06.730,Simcolourproject_2stim_asymm_v5,2020.2.10,Linux x86_64,60,61025ae37ef11b136ea224fe,,,,,,,,,703,105.8856576,-77.92041775,1,0,0,response3disk,,5,25.77203331,6.559271004,1,0,0,rectangle,-71.15213805,-99.97115051,1,0,0,18.03951367,-10.42246753,1,0,0,0,95,95,43,1,,response5disk_3,TRUE,3,3,"[82,90,239,299,187,322,96,39,195,268,90,247,45,85,194,267,282,231,28,283]",1.748,rectangle
,,,,,,,,,,,,,FF,,,,,,,,1.215,,,,,,,,,,,,,,,,,,,,,,61005f04b9a1eec4bc7e4e48,61037064418fb441f76aa7b5,2021-07-29_20h28.06.730,Simcolourproject_2stim_asymm_v5,2020.2.10,Linux x86_64,60,61025ae37ef11b136ea224fe,,,,,,,,,755,127.409193,68.31454536,1,0,0,response1disk,,6,14.82203315,10.39755231,1,0,0,rectangle,14.82203315,10.39755231,1,0,0,14.82203315,10.39755231,1,0,0,0,96,96,127,1,,,,,,,,
,,,,,,,,,,,,,FF,,,,,,,,1.4497,,,,,,,,,,,,,,,,,,,,,,61005f04b9a1eec4bc7e4e48,61037064418fb441f76aa7b5,2021-07-29_20h28.06.730,Simcolourproject_2stim_asymm_v5,2020.2.10,Linux x86_64,60,61025ae37ef11b136ea224fe,,,,,,,,,99,54.33858647,-86.92041789,1,0,0,response3disk,,4,1.021056381,-4.049371732,1,0,0,rectangle,1.021056381,-4.049371732,1,0,0,1.021056381,-4.049371732,1,0,0,0,97,97,150,1,,,,,,,,
,,,,,,,,,,,,,FF,,,,,,,,1.3649,,,,,,,,,,,,,,,,,,,,,,61005f04b9a1eec4bc7e4e48,61037064418fb441f76aa7b5,2021-07-29_20h28.06.730,Simcolourproject_2stim_asymm_v5,2020.2.10,Linux x86_64,60,61025ae37ef11b136ea224fe,,,,,,,,,212,61.76505143,-86.5777421,1,0,0,response3disk,,4,-0.118201448,11.28505232,1,0,0,rectangle,-0.118201448,11.28505232,1,0,0,-0.118201448,11.28505232,1,0,0,0,98,98,44,1,,,,,,,,
,,,,,,,,,,,,,FF,,,,,,,,1.2161,,,,,,,,,,,,,,,,,,,,,,61005f04b9a1eec4bc7e4e48,61037064418fb441f76aa7b5,2021-07-29_20h28.06.730,Simcolourproject_2stim_asymm_v5,2020.2.10,Linux x86_64,60,61025ae37ef11b136ea224fe,,,,,,,,,430,-43.29520404,-103.1023029,1,0,0,response5disk,,3,-16.64701029,4.786761212,1,0,0,rectangle,-16.64701029,4.786761212,1,0,0,-16.64701029,4.786761212,1,0,0,0,99,99,128,1,,,,,,,,
,,,,,,,,,,,,,FF,,,,,,,,0.8491,,,,,,,,,,,,,,,,,,,,,,61005f04b9a1eec4bc7e4e48,61037064418fb441f76aa7b5,2021-07-29_20h28.06.730,Simcolourproject_2stim_asymm_v5,2020.2.10,Linux x86_64,60,61025ae37ef11b136ea224fe,,,,,,,,,1101,80.71895796,47.25709876,1,0,0,response1disk,,6,6.957482251,-0.96333653,1,0,0,rectangle,6.957482251,-0.96333653,1,0,0,6.957482251,-0.96333653,1,0,0,0,100,100,60,1,,,,,,,,
,,,,,,,,,,,,,FF,,,,,,,,1.5689,,,,,,,,,,,,,,,,,,,,,,61005f04b9a1eec4bc7e4e48,61037064418fb441f76aa7b5,2021-07-29_20h28.06.730,Simcolourproject_2stim_asymm_v5,2020.2.10,Linux x86_64,60,61025ae37ef11b136ea224fe,,,,,,,,,3466,45.0998168,-78.64976347,1,0,0,response3disk,,4,8.335265475,0.486565836,1,0,0,rectangle,8.335265475,0.486565836,1,0,0,8.335265475,0.486565836,1,0,0,0,101,101,16,1,,,,,,,,
,,,,,,,,,,,,,FF,,,,,,,,2.3193,,,,,,,,,,,,,,,,,,,,,,61005f04b9a1eec4bc7e4e48,61037064418fb441f76aa7b5,2021-07-29_20h28.06.730,Simcolourproject_2stim_asymm_v5,2020.2.10,Linux x86_64,60,61025ae37ef11b136ea224fe,,,,,,,,,2370,31.04708222,-61.98355228,1,0,0,response3disk,,4,-3.84720541,-7.861920617,1,0,0,rectangle,-3.84720541,-7.861920617,1,0,0,-3.84720541,-7.861920617,1,0,0,0,102,102,123,1,,,,,,,,
,,,,,,,,,,,,,FF,,,,,,,,1.1825,,,,,,,,,,,,,,,,,,,,,,61005f04b9a1eec4bc7e4e48,61037064418fb441f76aa7b5,2021-07-29_20h28.06.730,Simcolourproject_2stim_asymm_v5,2020.2.10,Linux x86_64,60,61025ae37ef11b136ea224fe,,,,,,,,,1906,41.52193589,-84.59771278,1,0,0,response3disk,,4,-0.335730748,-4.907526042,1,0,0,rectangle,-0.335730748,-4.907526042,1,0,0,-0.335730748,-4.907526042,1,0,0,0,103,103,28,1,,,,,,,,
,,,,,,,,,,,,,FF,,,,,,,,1.6515,,,,,,,,,,,,,,,,,,,,,,61005f04b9a1eec4bc7e4e48,61037064418fb441f76aa7b5,2021-07-29_20h28.06.730,Simcolourproject_2stim_asymm_v5,2020.2.10,Linux x86_64,60,61025ae37ef11b136ea224fe,,,,,,,,,380,106.9799935,-64.88379647,1,0,0,response3disk,,5,10.48663269,-3.786627587,1,0,0,rectangle,10.48663269,-3.786627587,1,0,0,10.48663269,-3.786627587,1,0,0,0,104,104,141,1,,,,,,,,
,,,,,,,,,,,,,FF,,,,,,,,1.133,,,,,,,,,,,,,,,,,,,,,,61005f04b9a1eec4bc7e4e48,61037064418fb441f76aa7b5,2021-07-29_20h28.06.730,Simcolourproject_2stim_asymm_v5,2020.2.10,Linux x86_64,60,61025ae37ef11b136ea224fe,,,,,,,,,3251,-51.45365143,-90.65406052,1,0,0,response5disk,,3,20.82086136,-0.694830666,1,0,0,rectangle,20.82086136,-0.694830666,1,0,0,20.82086136,-0.694830666,1,0,0,0,105,105,62,1,,,,,,,,
,,,,,,,,,,,,,FF,,,,,,,,0.8515,,,,,,,,,,,,,,,,,,,,,,61005f04b9a1eec4bc7e4e48,61037064418fb441f76aa7b5,2021-07-29_20h28.06.730,Simcolourproject_2stim_asymm_v5,2020.2.10,Linux x86_64,60,61025ae37ef11b136ea224fe,,,,,,,,,1366,72.97481722,62.43273375,1,0,0,response1disk,,6,-0.167224887,2.244524846,1,0,0,rectangle,-0.167224887,2.244524846,1,0,0,-0.167224887,2.244524846,1,0,0,0,106,106,107,1,,,,,,,,
,,,,,,,,,,,,,FF,,,,,,,,1.8994,,,,,,,,,,,,,,,,,,,,,,61005f04b9a1eec4bc7e4e48,61037064418fb441f76aa7b5,2021-07-29_20h28.06.730,Simcolourproject_2stim_asymm_v5,2020.2.10,Linux x86_64,60,61025ae37ef11b136ea224fe,,,,,,,,,3245,-96.34754859,-42.54024145,1,0,0,response5disk,,2,23.30758015,-13.4134832,1,0,0,rectangle,23.30758015,-13.4134832,1,0,0,23.30758015,-13.4134832,1,0,0,0,107,107,137,1,,,,,,,,
,,,,,,,,,,,,,FF,,,,,,,,0.9503,,,,,,,,,,,,,,,,,,,,,,61005f04b9a1eec4bc7e4e48,61037064418fb441f76aa7b5,2021-07-29_20h28.06.730,Simcolourproject_2stim_asymm_v5,2020.2.10,Linux x86_64,60,61025ae37ef11b136ea224fe,,,,,,,,,2254,101.8396614,28.47120981,1,0,0,response1disk,,6,1.088976304,-10.76162769,1,0,0,rectangle,1.088976304,-10.76162769,1,0,0,1.088976304,-10.76162769,1,0,0,0,108,108,129,1,,,,,,,,
,,,,,,,,,,,,,FF,,,,,,,,0.7328,,,,,,,,,,,,,,,,,,,,,,61005f04b9a1eec4bc7e4e48,61037064418fb441f76aa7b5,2021-07-29_20h28.06.730,Simcolourproject_2stim_asymm_v5,2020.2.10,Linux x86_64,60,61025ae37ef11b136ea224fe,,,,,,,,,1411,80.56378218,99.55285149,1,0,0,response1disk,,7,8.45235532,13.82382189,1,0,0,rectangle,8.45235532,13.82382189,1,0,0,8.45235532,13.82382189,1,0,0,0,109,109,92,1,,,,,,,,
,,,,,,,,,,,,,FF,,,,,,,,1.5321,,,,,,,,,,,,,,,,,,,,,,61005f04b9a1eec4bc7e4e48,61037064418fb441f76aa7b5,2021-07-29_20h28.06.730,Simcolourproject_2stim_asymm_v5,2020.2.10,Linux x86_64,60,61025ae37ef11b136ea224fe,,,,,,,,,4143,-99.04901347,-58.67725341,1,0,0,response5disk,,2,9.097374861,-13.30132499,1,0,0,rectangle,9.097374861,-13.30132499,1,0,0,9.097374861,-13.30132499,1,0,0,0,110,110,142,1,,,,,,,,
,,,,,,,,,,,,,FF,,,,,,,,1.333,,,,,,,,,,,,,,,,,,,,,,61005f04b9a1eec4bc7e4e48,61037064418fb441f76aa7b5,2021-07-29_20h28.06.730,Simcolourproject_2stim_asymm_v5,2020.2.10,Linux x86_64,60,61025ae37ef11b136ea224fe,,,,,,,,,3372,-37.17752817,-103.0535236,1,0,0,response5disk,,3,11.64898623,13.81952502,1,0,0,rectangle,11.64898623,13.81952502,1,0,0,11.64898623,13.81952502,1,0,0,0,111,111,145,1,,,,,,,,
,,,,,,,,,,,,,FF,,,,,,,,1.2323,,,,,,,,,,,,,,,,,,,,,,61005f04b9a1eec4bc7e4e48,61037064418fb441f76aa7b5,2021-07-29_20h28.06.730,Simcolourproject_2stim_asymm_v5,2020.2.10,Linux x86_64,60,61025ae37ef11b136ea224fe,,,,,,,,,3954,36.4052366,-74.53907005,1,0,0,response3disk,,4,-5.346717151,-10.57637378,1,0,0,rectangle,-5.346717151,-10.57637378,1,0,0,-5.346717151,-10.57637378,1,0,0,0,112,112,41,1,,,,,,,,
,,,,,,,,,,,,,FF,,,,,,,,0.7986,,,,,,,,,,,,,,,,,,,,,,61005f04b9a1eec4bc7e4e48,61037064418fb441f76aa7b5,2021-07-29_20h28.06.730,Simcolourproject_2stim_asymm_v5,2020.2.10,Linux x86_64,60,61025ae37ef11b136ea224fe,,,,,,,,,1594,80.99063765,-40.67017306,1,0,0,response3disk,,5,6.154992005,-4.399127597,1,0,0,rectangle,6.154992005,-4.399127597,1,0,0,6.154992005,-4.399127597,1,0,0,0,113,113,88,1,,,,,,,,
,,,,,,,,,,,,,FF,,,,,,,,1.2169,,,,,,,,,,,,,,,,,,,,,,61005f04b9a1eec4bc7e4e48,61037064418fb441f76aa7b5,2021-07-29_20h28.06.730,Simcolourproject_2stim_asymm_v5,2020.2.10,Linux x86_64,60,61025ae37ef11b136ea224fe,,,,,,,,,3850,67.21837182,-127.7196861,1,0,0,response3disk,,4,-2.508728828,7.157562029,1,0,0,rectangle,-2.508728828,7.157562029,1,0,0,-2.508728828,7.157562029,1,0,0,0,114,114,115,1,,,,,,,,
,,,,,,,,,,,,,FF,,,,,,,,0.8675,,,,,,,,,,,,,,,,,,,,,,61005f04b9a1eec4bc7e4e48,61037064418fb441f76aa7b5,2021-07-29_20h28.06.730,Simcolourproject_2stim_asymm_v5,2020.2.10,Linux x86_64,60,61025ae37ef11b136ea224fe,,,,,,,,,3009,77.27999306,33.09108292,1,0,0,response1disk,,6,-14.62450049,-8.284625701,1,0,0,rectangle,-14.62450049,-8.284625701,1,0,0,-14.62450049,-8.284625701,1,0,0,0,115,115,104,1,,,,,,,,
,,,,,,,,,,,,,FF,,,,,,,,1.0491,,,,,,,,,,,,,,,,,,,,,,61005f04b9a1eec4bc7e4e48,61037064418fb441f76aa7b5,2021-07-29_20h28.06.730,Simcolourproject_2stim_asymm_v5,2020.2.10,Linux x86_64,60,61025ae37ef11b136ea224fe,,,,,,,,,3899,93.92696597,-47.07735089,1,0,0,response3disk,,5,22.03985552,-6.007867855,1,0,0,rectangle,22.03985552,-6.007867855,1,0,0,22.03985552,-6.007867855,1,0,0,0,116,116,100,1,,,,,,,,
,,,,,,,,,,,,,FF,,,,,,,,1.3496,,,,,,,,,,,,,,,,,,,,,,61005f04b9a1eec4bc7e4e48,61037064418fb441f76aa7b5,2021-07-29_20h28.06.730,Simcolourproject_2stim_asymm_v5,2020.2.10,Linux x86_64,60,61025ae37ef11b136ea224fe,,,,,,,,,1349,137.0342908,59.21998956,1,0,0,response1disk,,6,17.05084178,2.238909612,1,0,0,rectangle,17.05084178,2.238909612,1,0,0,17.05084178,2.238909612,1,0,0,0,117,117,117,1,,,,,,,,
,,,,,,,,,,,,,FF,,,,,,,,0.8996,,,,,,,,,,,,,,,,,,,,,,61005f04b9a1eec4bc7e4e48,61037064418fb441f76aa7b5,2021-07-29_20h28.06.730,Simcolourproject_2stim_asymm_v5,2020.2.10,Linux x86_64,60,61025ae37ef11b136ea224fe,,,,,,,,,3519,-48.99442288,-69.7085524,1,0,0,response5disk,,3,16.93321482,-3.308356096,1,0,0,rectangle,16.93321482,-3.308356096,1,0,0,16.93321482,-3.308356096,1,0,0,0,118,118,130,1,,,,,,,,
,,,,,,,,,,,,,FF,,,,,,,,1.1488,,,,,,,,,,,,,,,,,,,,,,61005f04b9a1eec4bc7e4e48,61037064418fb441f76aa7b5,2021-07-29_20h28.06.730,Simcolourproject_2stim_asymm_v5,2020.2.10,Linux x86_64,60,61025ae37ef11b136ea224fe,,,,,,,,,3081,108.3296029,34.50880755,1,0,0,response1disk,,6,26.51436731,-4.767731118,1,0,0,rectangle,26.51436731,-4.767731118,1,0,0,26.51436731,-4.767731118,1,0,0,0,119,119,116,1,,,,,,,,
,,,,,,,,,,,,,FF,,,,,,,,1.1026,,,,,,,,,,,,,,,,,,,,,,61005f04b9a1eec4bc7e4e48,61037064418fb441f76aa7b5,2021-07-29_20h28.06.730,Simcolourproject_2stim_asymm_v5,2020.2.10,Linux x86_64,60,61025ae37ef11b136ea224fe,,,,,,,,,3635,38.68702374,-110.3189046,1,0,0,response3disk,,4,2.628038827,2.077727969,1,0,0,rectangle,2.628038827,2.077727969,1,0,0,2.628038827,2.077727969,1,0,0,0,120,120,119,1,,,,,,,,
,,,,,,,,,,,,,FF,,,,,,,,1.0168,,,,,,,,,,,,,,,,,,,,,,61005f04b9a1eec4bc7e4e48,61037064418fb441f76aa7b5,2021-07-29_20h28.06.730,Simcolourproject_2stim_asymm_v5,2020.2.10,Linux x86_64,60,61025ae37ef11b136ea224fe,,,,,,,,,4256,-35.41034065,-83.30318151,1,0,0,response5disk,,3,9.750451043,10.48041364,1,0,0,rectangle,9.750451043,10.48041364,1,0,0,9.750451043,10.48041364,1,0,0,0,121,121,83,1,,,,,,,,
,,,,,,,,,,,,,FF,,,,,,,,0.8995,,,,,,,,,,,,,,,,,,,,,,61005f04b9a1eec4bc7e4e48,61037064418fb441f76aa7b5,2021-07-29_20h28.06.730,Simcolourproject_2stim_asymm_v5,2020.2.10,Linux x86_64,60,61025ae37ef11b136ea224fe,,,,,,,,,3851,-34.91361212,-69.94156021,1,0,0,response5disk,,3,20.03707229,-4.185211578,1,0,0,rectangle,20.03707229,-4.185211578,1,0,0,20.03707229,-4.185211578,1,0,0,0,122,122,94,1,,,,,,,,
,,,,,,,,,,,,,FF,,,,,,,,0.8998,,,,,,,,,,,,,,,,,,,,,,61005f04b9a1eec4bc7e4e48,61037064418fb441f76aa7b5,2021-07-29_20h28.06.730,Simcolourproject_2stim_asymm_v5,2020.2.10,Linux x86_64,60,61025ae37ef11b136ea224fe,,,,,,,,,4360,-100.1338279,-37.61538786,1,0,0,response5disk,,2,-3.88211752,-7.539459675,1,0,0,rectangle,-3.88211752,-7.539459675,1,0,0,-3.88211752,-7.539459675,1,0,0,0,123,123,40,1,,,,,,,,
,,,,,,,,,,,,,FF,,,,,,,,1.8154,,,,,,,,,,,,,,,,,,,,,,61005f04b9a1eec4bc7e4e48,61037064418fb441f76aa7b5,2021-07-29_20h28.06.730,Simcolourproject_2stim_asymm_v5,2020.2.10,Linux x86_64,60,61025ae37ef11b136ea224fe,,,,,,,,,1032,112.0707162,33.95155657,1,0,0,response1disk,,6,15.70186715,9.934612851,1,0,0,rectangle,15.70186715,9.934612851,1,0,0,15.70186715,9.934612851,1,0,0,0,124,124,136,1,,,,,,,,
,,,,,,,,,,,,,FF,,,,,,,,1.2792,,,,,,,,,,,,,,,,,,,,,,61005f04b9a1eec4bc7e4e48,61037064418fb441f76aa7b5,2021-07-29_20h28.06.730,Simcolourproject_2stim_asymm_v5,2020.2.10,Linux x86_64,60,61025ae37ef11b136ea224fe,,,,,,,,,4365,-95.81327123,33.78722551,1,0,0,response7disk,,1,-14.48553565,7.538226097,1,0,0,rectangle,-14.48553565,7.538226097,1,0,0,-14.48553565,7.538226097,1,0,0,0,125,125,36,1,,,,,,,,
,,,,,,,,,,,,,FF,,,,,,,,1.0176,,,,,,,,,,,,,,,,,,,,,,61005f04b9a1eec4bc7e4e48,61037064418fb441f76aa7b5,2021-07-29_20h28.06.730,Simcolourproject_2stim_asymm_v5,2020.2.10,Linux x86_64,60,61025ae37ef11b136ea224fe,,,,,,,,,3392,-83.93729449,-83.51582799,1,0,0,response5disk,,2,14.70245307,-7.147467481,1,0,0,rectangle,14.70245307,-7.147467481,1,0,0,14.70245307,-7.147467481,1,0,0,0,126,126,121,1,,,,,,,,
,,,,,,,,,,,,,FF,,,,,,,,1.6339,,,,,,,,,,,,,,,,,,,,,,61005f04b9a1eec4bc7e4e48,61037064418fb441f76aa7b5,2021-07-29_20h28.06.730,Simcolourproject_2stim_asymm_v5,2020.2.10,Linux x86_64,60,61025ae37ef11b136ea224fe,,,,,,,,,3157,-105.6089257,-47.91538801,1,0,0,response5disk,,2,-1.482947562,-4.146637358,1,0,0,rectangle,-1.482947562,-4.146637358,1,0,0,-1.482947562,-4.146637358,1,0,0,0,127,127,139,1,,,,,,,,
,,,,,,,,,,,,,FF,,,,,,,,0.9498,,,,,,,,,,,,,,,,,,,,,,61005f04b9a1eec4bc7e4e48,61037064418fb441f76aa7b5,2021-07-29_20h28.06.730,Simcolourproject_2stim_asymm_v5,2020.2.10,Linux x86_64,60,61025ae37ef11b136ea224fe,,,,,,,,,865,106.6706185,-42.67344457,1,0,0,response3disk,,5,19.55035353,-11.80513357,1,0,0,rectangle,19.55035353,-11.80513357,1,0,0,19.55035353,-11.80513357,1,0,0,0,128,128,4,1,,,,,,,,
,,,,,,,,,,,,,FF,,,,,,,,1.0493,,,,,,,,,,,,,,,,,,,,,,61005f04b9a1eec4bc7e4e48,61037064418fb441f76aa7b5,2021-07-29_20h28.06.730,Simcolourproject_2stim_asymm_v5,2020.2.10,Linux x86_64,60,61025ae37ef11b136ea224fe,,,,,,,,,1244,86.37706351,-46.01890361,1,0,0,response3disk,,5,-15.71903176,-4.939654948,1,0,0,rectangle,-15.71903176,-4.939654948,1,0,0,-15.71903176,-4.939654948,1,0,0,0,129,129,135,1,,,,,,,,
,,,,,,,,,,,,,FF,,,,,,,,0.9648,,,,,,,,,,,,,,,,,,,,,,61005f04b9a1eec4bc7e4e48,61037064418fb441f76aa7b5,2021-07-29_20h28.06.730,Simcolourproject_2stim_asymm_v5,2020.2.10,Linux x86_64,60,61025ae37ef11b136ea224fe,,,,,,,,,3537,134.745033,75.29420855,1,0,0,response1disk,,6,5.555626761,-8.043756557,1,0,0,rectangle,5.555626761,-8.043756557,1,0,0,5.555626761,-8.043756557,1,0,0,0,130,130,113,1,,,,,,,,
,,,,,,,,,,,,,FF,,,,,,,,1.3832,,,,,,,,,,,,,,,,,,,,,,61005f04b9a1eec4bc7e4e48,61037064418fb441f76aa7b5,2021-07-29_20h28.06.730,Simcolourproject_2stim_asymm_v5,2020.2.10,Linux x86_64,60,61025ae37ef11b136ea224fe,,,,,,,,,1412,58.66387951,-109.8477132,1,0,0,response3disk,,4,8.274620942,-11.538532,1,0,0,rectangle,8.274620942,-11.538532,1,0,0,8.274620942,-11.538532,1,0,0,0,131,131,69,1,,,,,,,,
,,,,,,,,,,,,,FF,,,,,,,,0.9311,,,,,,,,,,,,,,,,,,,,,,61005f04b9a1eec4bc7e4e48,61037064418fb441f76aa7b5,2021-07-29_20h28.06.730,Simcolourproject_2stim_asymm_v5,2020.2.10,Linux x86_64,60,61025ae37ef11b136ea224fe,,,,,,,,,1351,32.80245334,-35.74004603,1,0,0,response3disk,,4,9.694786979,2.669476024,1,0,0,rectangle,9.694786979,2.669476024,1,0,0,9.694786979,2.669476024,1,0,0,0,132,132,50,1,,,,,,,,
,,,,,,,,,,,,,FF,,,,,,,,2.2164,,,,,,,,,,,,,,,,,,,,,,61005f04b9a1eec4bc7e4e48,61037064418fb441f76aa7b5,2021-07-29_20h28.06.730,Simcolourproject_2stim_asymm_v5,2020.2.10,Linux x86_64,60,61025ae37ef11b136ea224fe,,,,,,,,,149,132.0530408,74.40424272,1,0,0,response1disk,,6,10.08174988,1.893841247,1,0,0,rectangle,10.08174988,1.893841247,1,0,0,10.08174988,1.893841247,1,0,0,0,133,133,98,1,,,,,,,,
,,,,,,,,,,,,,FF,,,,,,,,3.7337,,,,,,,,,,,,,,,,,,,,,,61005f04b9a1eec4bc7e4e48,61037064418fb441f76aa7b5,2021-07-29_20h28.06.730,Simcolourproject_2stim_asymm_v5,2020.2.10,Linux x86_64,60,61025ae37ef11b136ea224fe,,,,,,,,,1013,46.45943596,-81.55318148,1,0,0,response3disk,,4,16.7590449,-6.684430365,1,0,0,rectangle,16.7590449,-6.684430365,1,0,0,16.7590449,-6.684430365,1,0,0,0,134,134,112,1,,,,,,,,
,,,,,,,,,,,,,FF,,,,,,,,0.9663,,,,,,,,,,,,,,,,,,,,,,61005f04b9a1eec4bc7e4e48,61037064418fb441f76aa7b5,2021-07-29_20h28.06.730,Simcolourproject_2stim_asymm_v5,2020.2.10,Linux x86_64,60,61025ae37ef11b136ea224fe,,,,,,,,,3289,-29.8730847,-75.91055444,1,0,0,response5disk,,3,31.53179902,4.850921369,1,0,0,rectangle,31.53179902,4.850921369,1,0,0,31.53179902,4.850921369,1,0,0,0,135,135,124,1,,,,,,,,
,,,,,,,,,,,,,FF,,,,,,,,1.1827,,,,,,,,,,,,,,,,,,,,,,61005f04b9a1eec4bc7e4e48,61037064418fb441f76aa7b5,2021-07-29_20h28.06.730,Simcolourproject_2stim_asymm_v5,2020.2.10,Linux x86_64,60,61025ae37ef11b136ea224fe,,,,,,,,,3945,-63.22381762,-122.6254477,1,0,0,response5disk,,3,29.4314572,2.781927198,1,0,0,rectangle,29.4314572,2.781927198,1,0,0,29.4314572,2.781927198,1,0,0,0,136,136,26,1,,,,,,,,
,,,,,,,,,,,,,FF,,,,,,,,0.8661,,,,,,,,,,,,,,,,,,,,,,61005f04b9a1eec4bc7e4e48,61037064418fb441f76aa7b5,2021-07-29_20h28.06.730,Simcolourproject_2stim_asymm_v5,2020.2.10,Linux x86_64,60,61025ae37ef11b136ea224fe,,,,,,,,,3276,45.03243399,-22.24756536,1,0,0,response3disk,,5,25.44869346,2.679632275,1,0,0,rectangle,25.44869346,2.679632275,1,0,0,25.44869346,2.679632275,1,0,0,0,137,137,73,1,,,,,,,,
,,,,,,,,,,,,,FF,,,,,,,,1.7331,,,,,,,,,,,,,,,,,,,,,,61005f04b9a1eec4bc7e4e48,61037064418fb441f76aa7b5,2021-07-29_20h28.06.730,Simcolourproject_2stim_asymm_v5,2020.2.10,Linux x86_64,60,61025ae37ef11b136ea224fe,,,,,,,,,3670,-83.79027301,42.68722564,1,0,0,response7disk,,1,19.50176955,-8.954010477,1,0,0,rectangle,19.50176955,-8.954010477,1,0,0,19.50176955,-8.954010477,1,0,0,0,138,138,146,1,,,,,,,,
,,,,,,,,,,,,,FF,,,,,,,,0.9686,,,,,,,,,,,,,,,,,,,,,,61005f04b9a1eec4bc7e4e48,61037064418fb441f76aa7b5,2021-07-29_20h28.06.730,Simcolourproject_2stim_asymm_v5,2020.2.10,Linux x86_64,60,61025ae37ef11b136ea224fe,,,,,,,,,1113,56.53243416,-42.4434641,1,0,0,response3disk,,5,21.51925005,-9.337018295,1,0,0,rectangle,21.51925005,-9.337018295,1,0,0,21.51925005,-9.337018295,1,0,0,0,139,139,3,1,,,,,,,,
,,,,,,,,,,,,,FF,,,,,,,,0.9487,,,,,,,,,,,,,,,,,,,,,,61005f04b9a1eec4bc7e4e48,61037064418fb441f76aa7b5,2021-07-29_20h28.06.730,Simcolourproject_2stim_asymm_v5,2020.2.10,Linux x86_64,60,61025ae37ef11b136ea224fe,,,,,,,,,427,38.23936748,-69.94927506,1,0,0,response3disk,,4,8.529357274,-5.267633469,1,0,0,rectangle,8.529357274,-5.267633469,1,0,0,8.529357274,-5.267633469,1,0,0,0,140,140,140,1,,,,,,,,
,,,,,,,,,,,,,FF,,,,,,,,0.8496,,,,,,,,,,,,,,,,,,,,,,61005f04b9a1eec4bc7e4e48,61037064418fb441f76aa7b5,2021-07-29_20h28.06.730,Simcolourproject_2stim_asymm_v5,2020.2.10,Linux x86_64,60,61025ae37ef11b136ea224fe,,,,,,,,,1558,79.58565716,-111.6096761,1,0,0,response3disk,,4,-1.843640927,10.95360701,1,0,0,rectangle,-1.843640927,10.95360701,1,0,0,-1.843640927,10.95360701,1,0,0,0,141,141,65,1,,,,,,,,
,,,,,,,,,,,,,FF,,,,,,,,1.1823,,,,,,,,,,,,,,,,,,,,,,61005f04b9a1eec4bc7e4e48,61037064418fb441f76aa7b5,2021-07-29_20h28.06.730,Simcolourproject_2stim_asymm_v5,2020.2.10,Linux x86_64,60,61025ae37ef11b136ea224fe,,,,,,,,,1017,105.3323372,-56.86162838,1,0,0,response3disk,,5,15.23350776,-6.689166693,1,0,0,rectangle,15.23350776,-6.689166693,1,0,0,15.23350776,-6.689166693,1,0,0,0,142,142,52,1,,,,,,,,
,,,,,,,,,,,,,FF,,,,,,,,0.9001,,,,,,,,,,,,,,,,,,,,,,61005f04b9a1eec4bc7e4e48,61037064418fb441f76aa7b5,2021-07-29_20h28.06.730,Simcolourproject_2stim_asymm_v5,2020.2.10,Linux x86_64,60,61025ae37ef11b136ea224fe,,,,,,,,,539,119.3559703,39.75058009,1,0,0,response1disk,,6,8.083263518,-9.006940165,1,0,0,rectangle,8.083263518,-9.006940165,1,0,0,8.083263518,-9.006940165,1,0,0,0,143,143,158,1,,,,,,,,
,,,,,,,,,,,,,FF,,,,,,,,1.3821,,,,,,,,,,,,,,,,,,,,,,61005f04b9a1eec4bc7e4e48,61037064418fb441f76aa7b5,2021-07-29_20h28.06.730,Simcolourproject_2stim_asymm_v5,2020.2.10,Linux x86_64,60,61025ae37ef11b136ea224fe,,,,,,,,,3923,32.66109592,-98.41143368,1,0,0,response3disk,,4,-6.386951542,6.661272959,1,0,0,rectangle,-6.386951542,6.661272959,1,0,0,-6.386951542,6.661272959,1,0,0,0,144,144,5,1,,,,,,,,
,,,,,,,,,,,,,FF,,,,,,,,1.2995,,,,,,,,,,,,,,,,,,,,,,61005f04b9a1eec4bc7e4e48,61037064418fb441f76aa7b5,2021-07-29_20h28.06.730,Simcolourproject_2stim_asymm_v5,2020.2.10,Linux x86_64,60,61025ae37ef11b136ea224fe,,,,,,,,,442,-28.49530148,-62.69522222,1,0,0,response5disk,,3,8.512169774,-10.84819996,1,0,0,rectangle,8.512169774,-10.84819996,1,0,0,8.512169774,-10.84819996,1,0,0,0,145,145,101,1,,,,,,,,
,,,,,,,,,,,,,FF,,,,,,,,1.0822,,,,,,,,,,,,,,,,,,,,,,61005f04b9a1eec4bc7e4e48,61037064418fb441f76aa7b5,2021-07-29_20h28.06.730,Simcolourproject_2stim_asymm_v5,2020.2.10,Linux x86_64,60,61025ae37ef11b136ea224fe,,,,,,,,,3812,-48.08353419,-87.4376054,1,0,0,response5disk,,3,15.78497262,-11.494782,1,0,0,rectangle,15.78497262,-11.494782,1,0,0,15.78497262,-11.494782,1,0,0,0,146,146,79,1,,,,,,,,
,,,,,,,,,,,,,FF,,,,,,,,0.867,,,,,,,,,,,,,,,,,,,,,,61005f04b9a1eec4bc7e4e48,61037064418fb441f76aa7b5,2021-07-29_20h28.06.730,Simcolourproject_2stim_asymm_v5,2020.2.10,Linux x86_64,60,61025ae37ef11b136ea224fe,,,,,,,,,1323,95.79063787,-57.6875073,1,0,0,response3disk,,5,14.06539251,-1.146002548,1,0,0,rectangle,14.06539251,-1.146002548,1,0,0,14.06539251,-1.146002548,1,0,0,0,147,147,143,1,,,,,,,,
,,,,,,,,,,,,,FF,,,,,,,,4.3648,,,,,,,,,,,,,,,,,,,,,,61005f04b9a1eec4bc7e4e48,61037064418fb441f76aa7b5,2021-07-29_20h28.06.730,Simcolourproject_2stim_asymm_v5,2020.2.10,Linux x86_64,60,61025ae37ef11b136ea224fe,,,,,,,,,558,62.33136003,-87.3037675,1,0,0,response3disk,,4,18.88438673,14.73207386,1,0,0,rectangle,18.88438673,14.73207386,1,0,0,18.88438673,14.73207386,1,0,0,0,148,148,15,1,,,,,,,,
,,,,,,,,,,,,,FF,,,,,,,,0.8667,,,,,,,,,,,,,,,,,,,,,,61005f04b9a1eec4bc7e4e48,61037064418fb441f76aa7b5,2021-07-29_20h28.06.730,Simcolourproject_2stim_asymm_v5,2020.2.10,Linux x86_64,60,61025ae37ef11b136ea224fe,,,,,,,,,1665,73.89630161,-25.81470409,1,0,0,response3disk,,5,3.492003684,4.820989728,1,0,0,rectangle,3.492003684,4.820989728,1,0,0,3.492003684,4.820989728,1,0,0,0,149,149,9,1,,,,,,,,
,,,,,,,,,,,,,FF,,,,,,,,1.731,,,,,,,,,,,,,,,,,,,,,,61005f04b9a1eec4bc7e4e48,61037064418fb441f76aa7b5,2021-07-29_20h28.06.730,Simcolourproject_2stim_asymm_v5,2020.2.10,Linux x86_64,60,61025ae37ef11b136ea224fe,,,,,,,,,3396,-57.17020425,-114.3892171,1,0,0,response5disk,,3,23.88521688,-1.211822862,1,0,0,rectangle,23.88521688,-1.211822862,1,0,0,23.88521688,-1.211822862,1,0,0,0,150,150,77,1,,,,,,,,
,,,,,,,,,,,,,FF,,,,,,,,0.9657,,,,,,,,,,,,,,,,,,,,,,61005f04b9a1eec4bc7e4e48,61037064418fb441f76aa7b5,2021-07-29_20h28.06.730,Simcolourproject_2stim_asymm_v5,2020.2.10,Linux x86_64,60,61025ae37ef11b136ea224fe,,,,,,,,,2054,-36.40750863,-75.99800562,1,0,0,response5disk,,3,24.56939658,7.09369484,1,0,0,rectangle,24.56939658,7.09369484,1,0,0,24.56939658,7.09369484,1,0,0,0,151,151,122,1,,,,,,,,
,,,,,,,,,,,,,FF,,,,,,,,1.2335,,,,,,,,,,,,,,,,,,,,,,61005f04b9a1eec4bc7e4e48,61037064418fb441f76aa7b5,2021-07-29_20h28.06.730,Simcolourproject_2stim_asymm_v5,2020.2.10,Linux x86_64,60,61025ae37ef11b136ea224fe,,,,,,,,,3846,-63.43670825,-89.30855269,1,0,0,response5disk,,3,24.38179892,6.719573741,1,0,0,rectangle,24.38179892,6.719573741,1,0,0,24.38179892,6.719573741,1,0,0,0,152,152,7,1,,,,,,,,
,,,,,,,,,,,,,FF,,,,,,,,1.0336,,,,,,,,,,,,,,,,,,,,,,61005f04b9a1eec4bc7e4e48,61037064418fb441f76aa7b5,2021-07-29_20h28.06.730,Simcolourproject_2stim_asymm_v5,2020.2.10,Linux x86_64,60,61025ae37ef11b136ea224fe,,,,,,,,,2020,62.71788347,-31.56480183,1,0,0,response3disk,,5,28.14449429,-9.524322985,1,0,0,rectangle,28.14449429,-9.524322985,1,0,0,28.14449429,-9.524322985,1,0,0,0,153,153,148,1,,,,,,,,
,,,,,,,,,,,,,FF,,,,,,,,0.9497,,,,,,,,,,,,,,,,,,,,,,61005f04b9a1eec4bc7e4e48,61037064418fb441f76aa7b5,2021-07-29_20h28.06.730,Simcolourproject_2stim_asymm_v5,2020.2.10,Linux x86_64,60,61025ae37ef11b136ea224fe,,,,,,,,,1329,57.47130136,-29.5319893,1,0,0,response3disk,,5,12.47603702,7.428899923,1,0,0,rectangle,12.47603702,7.428899923,1,0,0,12.47603702,7.428899923,1,0,0,0,154,154,23,1,,,,,,,,
,,,,,,,,,,,,,FF,,,,,,,,1.2998,,,,,,,,,,,,,,,,,,,,,,61005f04b9a1eec4bc7e4e48,61037064418fb441f76aa7b5,2021-07-29_20h28.06.730,Simcolourproject_2stim_asymm_v5,2020.2.10,Linux x86_64,60,61025ae37ef11b136ea224fe,,,,,,,,,4278,90.9656378,-37.71309294,1,0,0,response3disk,,5,-12.31839694,-9.183307355,1,0,0,rectangle,-12.31839694,-9.183307355,1,0,0,-12.31839694,-9.183307355,1,0,0,0,155,155,118,1,,,,,,,,
,,,,,,,,,,,,,FF,,,,,,,,5.6653,,,,,,,,,,,,,,,,,,,,,,61005f04b9a1eec4bc7e4e48,61037064418fb441f76aa7b5,2021-07-29_20h28.06.730,Simcolourproject_2stim_asymm_v5,2020.2.10,Linux x86_64,60,61025ae37ef11b136ea224fe,,,,,,,,,2442,69.16163357,-79.21475371,1,0,0,response3disk,,4,-8.294373445,-1.477399037,1,0,0,rectangle,-8.294373445,-1.477399037,1,0,0,-8.294373445,-1.477399037,1,0,0,0,156,156,86,1,,,,,,,,
,,,,,,,,,,,,,FF,,,,,,,,1.5173,,,,,,,,,,,,,,,,,,,,,,61005f04b9a1eec4bc7e4e48,61037064418fb441f76aa7b5,2021-07-29_20h28.06.730,Simcolourproject_2stim_asymm_v5,2020.2.10,Linux x86_64,60,61025ae37ef11b136ea224fe,,,,,,,,,2183,84.97764943,-49.10542709,1,0,0,response3disk,,5,-13.71991064,0.11937833,1,0,0,rectangle,-13.71991064,0.11937833,1,0,0,-13.71991064,0.11937833,1,0,0,0,157,157,89,1,,,,,,,,
,,,,,,,,,,,,,FF,,,,,,,,1.4993,,,,,,,,,,,,,,,,,,,,,,61005f04b9a1eec4bc7e4e48,61037064418fb441f76aa7b5,2021-07-29_20h28.06.730,Simcolourproject_2stim_asymm_v5,2020.2.10,Linux x86_64,60,61025ae37ef11b136ea224fe,,,,,,,,,1534,-109.6046777,-88.5549394,1,0,0,response5disk,,2,28.77618375,8.187542513,1,0,0,rectangle,28.77618375,8.187542513,1,0,0,28.77618375,8.187542513,1,0,0,0,158,158,10,1,,,,,,,,
,,,,,,,,,,,,,FF,,,,,,,,0.8992,,,,,,,,,,,,,,,,,,,,,,61005f04b9a1eec4bc7e4e48,61037064418fb441f76aa7b5,2021-07-29_20h28.06.730,Simcolourproject_2stim_asymm_v5,2020.2.10,Linux x86_64,60,61025ae37ef11b136ea224fe,,,,,,,,,84,85.31358693,100.3892773,1,0,0,response1disk,,7,15.72178902,1.609905696,1,0,0,rectangle,15.72178902,1.609905696,1,0,0,15.72178902,1.609905696,1,0,0,0,159,159,85,1,,,,,,,,
,,,,,,,,,,,,,FF,,,,,,,,1.0832,,,,,,,,,,,,,,,,,,,,,,61005f04b9a1eec4bc7e4e48,61037064418fb441f76aa7b5,2021-07-29_20h28.06.730,Simcolourproject_2stim_asymm_v5,2020.2.10,Linux x86_64,60,61025ae37ef11b136ea224fe,,,,,,,,,3359,70.79903594,107.4832715,1,0,0,response1disk,,7,12.86895695,10.31874372,1,0,0,rectangle,12.86895695,10.31874372,1,0,0,12.86895695,10.31874372,1,0,0,1,0,160,93,1,,,,,,,,
,,,,,,,,,,,,,FF,,,,,,,,1.0334,,,,,,,,,,,,,,,,,,,,,,61005f04b9a1eec4bc7e4e48,61037064418fb441f76aa7b5,2021-07-29_20h28.06.730,Simcolourproject_2stim_asymm_v5,2020.2.10,Linux x86_64,60,61025ae37ef11b136ea224fe,,,,,,,,,2734,23.50826375,-52.57974355,1,0,0,response3disk,,4,-0.488562782,-3.163580703,1,0,0,rectangle,-0.488562782,-3.163580703,1,0,0,-0.488562782,-3.163580703,1,0,0,1,1,161,16,1,,,,,,,,
,,,,,,,,,,,,,FF,,,,,,,,0.9007,,,,,,,,,,,,,,,,,,,,,,61005f04b9a1eec4bc7e4e48,61037064418fb441f76aa7b5,2021-07-29_20h28.06.730,Simcolourproject_2stim_asymm_v5,2020.2.10,Linux x86_64,60,61025ae37ef11b136ea224fe,,,,,,,,,4029,-25.06839713,-62.72720464,1,0,0,response5disk,,3,20.4211055,7.5535093,1,0,0,rectangle,20.4211055,7.5535093,1,0,0,20.4211055,7.5535093,1,0,0,1,2,162,36,1,,,,,,,,
,,,,,,,,,,,,,FF,,,,,,,,1.067,,,,,,,,,,,,,,,,,,,,,,61005f04b9a1eec4bc7e4e48,61037064418fb441f76aa7b5,2021-07-29_20h28.06.730,Simcolourproject_2stim_asymm_v5,2020.2.10,Linux x86_64,60,61025ae37ef11b136ea224fe,,,,,,,,,2026,-77.60350534,47.32606849,1,0,0,response7disk,,1,-27.13031123,1.493890069,1,0,0,rectangle,-27.13031123,1.493890069,1,0,0,-27.13031123,1.493890069,1,0,0,1,3,163,64,1,,,,,,,,
,,,,,,,,,,,,,FF,,,,,,,,0.8851,,,,,,,,,,,,,,,,,,,,,,61005f04b9a1eec4bc7e4e48,61037064418fb441f76aa7b5,2021-07-29_20h28.06.730,Simcolourproject_2stim_asymm_v5,2020.2.10,Linux x86_64,60,61025ae37ef11b136ea224fe,,,,,,,,,3448,79.39952435,-30.77476276,1,0,0,response3disk,,5,16.1108027,-3.14595375,1,0,0,rectangle,16.1108027,-3.14595375,1,0,0,16.1108027,-3.14595375,1,0,0,1,4,164,45,1,,,,,,,,
,,,,,,,,,,,,,FF,,,,,,,,0.8825,,,,,,,,,,,,,,,,,,,,,,61005f04b9a1eec4bc7e4e48,61037064418fb441f76aa7b5,2021-07-29_20h28.06.730,Simcolourproject_2stim_asymm_v5,2020.2.10,Linux x86_64,60,61025ae37ef11b136ea224fe,,,,,,,,,55,68.47061793,105.0862988,1,0,0,response1disk,,7,2.419396246,-8.008160854,1,0,0,rectangle,2.419396246,-8.008160854,1,0,0,2.419396246,-8.008160854,1,0,0,1,5,165,0,1,,,,,,,,
,,,,,,,,,,,,,FF,,,,,,,,2.2329,,,,,,,,,,,,,,,,,,,,,,61005f04b9a1eec4bc7e4e48,61037064418fb441f76aa7b5,2021-07-29_20h28.06.730,Simcolourproject_2stim_asymm_v5,2020.2.10,Linux x86_64,60,61025ae37ef11b136ea224fe,,,,,,,,,548,100.1283332,-62.85918706,1,0,0,response3disk,,5,-5.733435907,-4.826324869,1,0,0,rectangle,-5.733435907,-4.826324869,1,0,0,-5.733435907,-4.826324869,1,0,0,1,6,166,24,1,,,,,,,,
,,,,,,,,,,,,,FF,,,,,,,,1.3654,,,,,,,,,,,,,,,,,,,,,,61005f04b9a1eec4bc7e4e48,61037064418fb441f76aa7b5,2021-07-29_20h28.06.730,Simcolourproject_2stim_asymm_v5,2020.2.10,Linux x86_64,60,61025ae37ef11b136ea224fe,,,,,,,,,426,81.17657515,106.3311963,1,0,0,response1disk,,7,-7.379920307,-6.214508483,1,0,0,rectangle,-7.379920307,-6.214508483,1,0,0,-7.379920307,-6.214508483,1,0,0,1,7,167,42,1,,,,,,,,
,,,,,,,,,,,,,FF,,,,,,,,0.7842,,,,,,,,,,,,,,,,,,,,,,61005f04b9a1eec4bc7e4e48,61037064418fb441f76aa7b5,2021-07-29_20h28.06.730,Simcolourproject_2stim_asymm_v5,2020.2.10,Linux x86_64,60,61025ae37ef11b136ea224fe,,,,,,,,,3875,-95.99906225,31.05975965,1,0,0,response7disk,,1,11.25997255,-2.243072877,1,0,0,rectangle,11.25997255,-2.243072877,1,0,0,11.25997255,-2.243072877,1,0,0,1,8,168,7,1,,,,,,,,
,,,,,,,,,,,,,FF,,,,,,,,0.9333,,,,,,,,,,,,,,,,,,,,,,61005f04b9a1eec4bc7e4e48,61037064418fb441f76aa7b5,2021-07-29_20h28.06.730,Simcolourproject_2stim_asymm_v5,2020.2.10,Linux x86_64,60,61025ae37ef11b136ea224fe,,,,,,,,,1898,-53.45169834,-19.04033875,1,0,0,response5disk,,2,11.54927919,1.989837342,1,0,0,rectangle,11.54927919,1.989837342,1,0,0,11.54927919,1.989837342,1,0,0,1,9,169,27,1,,,,,,,,
,,,,,,,,,,,,,FF,,,,,,,,1.6994,,,,,,,,,,,,,,,,,,,,,,61005f04b9a1eec4bc7e4e48,61037064418fb441f76aa7b5,2021-07-29_20h28.06.730,Simcolourproject_2stim_asymm_v5,2020.2.10,Linux x86_64,60,61025ae37ef11b136ea224fe,,,,,,,,,40,120.2311656,41.83131743,1,0,0,response1disk,,6,23.73311727,-2.759820932,1,0,0,rectangle,23.73311727,-2.759820932,1,0,0,23.73311727,-2.759820932,1,0,0,1,10,170,128,1,,,,,,,,
,,,,,,,,,,,,,FF,,,,,,,,0.8832,,,,,,,,,,,,,,,,,,,,,,61005f04b9a1eec4bc7e4e48,61037064418fb441f76aa7b5,2021-07-29_20h28.06.730,Simcolourproject_2stim_asymm_v5,2020.2.10,Linux x86_64,60,61025ae37ef11b136ea224fe,,,,,,,,,1890,-75.8701557,-32.79390341,1,0,0,response5disk,,2,17.81959179,-11.3994695,1,0,0,rectangle,17.81959179,-11.3994695,1,0,0,17.81959179,-11.3994695,1,0,0,1,11,171,151,1,,,,,,,,
,,,,,,,,,,,,,FF,,,,,,,,1.4818,,,,,,,,,,,,,,,,,,,,,,61005f04b9a1eec4bc7e4e48,61037064418fb441f76aa7b5,2021-07-29_20h28.06.730,Simcolourproject_2stim_asymm_v5,2020.2.10,Linux x86_64,60,61025ae37ef11b136ea224fe,,,,,,,,,2304,93.90108706,-65.42193124,1,0,0,response3disk,,5,-5.606385124,-6.882672555,1,0,0,rectangle,-5.606385124,-6.882672555,1,0,0,-5.606385124,-6.882672555,1,0,0,1,12,172,135,1,,,,,,,,
,,,,,,,,,,,,,FF,,,,,,,,1.4658,,,,,,,,,,,,,,,,,,,,,,61005f04b9a1eec4bc7e4e48,61037064418fb441f76aa7b5,2021-07-29_20h28.06.730,Simcolourproject_2stim_asymm_v5,2020.2.10,Linux x86_64,60,61025ae37ef11b136ea224fe,,,,,,,,,1815,-32.0202527,71.94381788,1,0,0,response7disk,,0,10.20045105,-6.01138348,1,0,0,rectangle,10.20045105,-6.01138348,1,0,0,10.20045105,-6.01138348,1,0,0,1,13,173,85,1,,,,,,,,
,,,,,,,,,,,,,FF,,,,,,,,1.4327,,,,,,,,,,,,,,,,,,,,,,61005f04b9a1eec4bc7e4e48,61037064418fb441f76aa7b5,2021-07-29_20h28.06.730,Simcolourproject_2stim_asymm_v5,2020.2.10,Linux x86_64,60,61025ae37ef11b136ea224fe,,,,,,,,,181,58.10245372,75.63209918,1,0,0,response1disk,,7,20.43453323,-0.002106047,1,0,0,rectangle,20.43453323,-0.002106047,1,0,0,20.43453323,-0.002106047,1,0,0,1,14,174,95,1,,,,,,,,
,,,,,,,,,,,,,FF,,,,,,,,1.0653,,,,,,,,,,,,,,,,,,,,,,61005f04b9a1eec4bc7e4e48,61037064418fb441f76aa7b5,2021-07-29_20h28.06.730,Simcolourproject_2stim_asymm_v5,2020.2.10,Linux x86_64,60,61025ae37ef11b136ea224fe,,,,,,,,,1577,37.79268779,-59.67202881,1,0,0,response3disk,,4,13.10421086,-4.195074859,1,0,0,rectangle,13.10421086,-4.195074859,1,0,0,13.10421086,-4.195074859,1,0,0,1,15,175,109,1,,,,,,,,
,,,,,,,,,,,,,FF,,,,,,,,1.0993,,,,,,,,,,,,,,,,,,,,,,61005f04b9a1eec4bc7e4e48,61037064418fb441f76aa7b5,2021-07-29_20h28.06.730,Simcolourproject_2stim_asymm_v5,2020.2.10,Linux x86_64,60,61025ae37ef11b136ea224fe,,,,,,,,,3374,-101.0541405,-42.65000707,1,0,0,response5disk,,2,-11.11659028,-6.777008491,1,0,0,rectangle,-11.11659028,-6.777008491,1,0,0,-11.11659028,-6.777008491,1,0,0,1,16,176,123,1,,,,,,,,
,,,,,,,,,,,,,FF,,,,,,,,1.7669,,,,,,,,,,,,,,,,,,,,,,61005f04b9a1eec4bc7e4e48,61037064418fb441f76aa7b5,2021-07-29_20h28.06.730,Simcolourproject_2stim_asymm_v5,2020.2.10,Linux x86_64,60,61025ae37ef11b136ea224fe,,,,,,,,,1023,100.8947395,54.24242601,1,0,0,response1disk,,6,32.23897677,-0.61372715,1,0,0,rectangle,32.23897677,-0.61372715,1,0,0,32.23897677,-0.61372715,1,0,0,1,17,177,147,1,,,,,,,,
,,,,,,,,,,,,,FF,,,,,,,,1.2983,,,,,,,,,,,,,,,,,,,,,,61005f04b9a1eec4bc7e4e48,61037064418fb441f76aa7b5,2021-07-29_20h28.06.730,Simcolourproject_2stim_asymm_v5,2020.2.10,Linux x86_64,60,61025ae37ef11b136ea224fe,,,,,,,,,809,-36.51825082,-102.3378986,1,0,0,response5disk,,3,6.836534983,3.153265094,1,0,0,rectangle,6.836534983,3.153265094,1,0,0,6.836534983,3.153265094,1,0,0,1,18,178,138,1,,,,,,,,
,,,,,,,,,,,,,FF,,,,,,,,0.866,,,,,,,,,,,,,,,,,,,,,,61005f04b9a1eec4bc7e4e48,61037064418fb441f76aa7b5,2021-07-29_20h28.06.730,Simcolourproject_2stim_asymm_v5,2020.2.10,Linux x86_64,60,61025ae37ef11b136ea224fe,,,,,,,,,790,54.83907476,93.3620555,1,0,0,response1disk,,7,8.860460795,0.803069747,1,0,0,rectangle,8.860460795,0.803069747,1,0,0,8.860460795,0.803069747,1,0,0,1,19,179,20,1,,,,,,,,
,,,,,,,,,,,,,FF,,,,,,,,1.6829,,,,,,,,,,,,,,,,,,,,,,61005f04b9a1eec4bc7e4e48,61037064418fb441f76aa7b5,2021-07-29_20h28.06.730,Simcolourproject_2stim_asymm_v5,2020.2.10,Linux x86_64,60,61025ae37ef11b136ea224fe,,,,,,,,,4116,112.7609506,-36.99575894,1,0,0,response3disk,,5,5.507872854,8.870940961,1,0,0,rectangle,5.507872854,8.870940961,1,0,0,5.507872854,8.870940961,1,0,0,1,20,180,41,1,,,,,,,,
,,,,,,,,,,,,,FF,,,,,,,,1.2829,,,,,,,,,,,,,,,,,,,,,,61005f04b9a1eec4bc7e4e48,61037064418fb441f76aa7b5,2021-07-29_20h28.06.730,Simcolourproject_2stim_asymm_v5,2020.2.10,Linux x86_64,60,61025ae37ef11b136ea224fe,,,,,,,,,3443,78.12003214,-102.4315998,1,0,0,response3disk,,4,-10.67137543,-7.277399124,1,0,0,rectangle,-10.67137543,-7.277399124,1,0,0,-10.67137543,-7.277399124,1,0,0,1,21,181,133,1,,,,,,,,
,,,,,,,,,,,,,FF,,,,,,,,1.4313,,,,,,,,,,,,,,,,,,,,,,61005f04b9a1eec4bc7e4e48,61037064418fb441f76aa7b5,2021-07-29_20h28.06.730,Simcolourproject_2stim_asymm_v5,2020.2.10,Linux x86_64,60,61025ae37ef11b136ea224fe,,,,,,,,,3035,121.405189,-52.11880604,1,0,0,response3disk,,5,21.21138871,6.216888187,1,0,0,rectangle,21.21138871,6.216888187,1,0,0,21.21138871,6.216888187,1,0,0,1,22,182,56,1,,,,,,,,
,,,,,,,,,,,,,FF,,,,,,,,0.7171,,,,,,,,,,,,,,,,,,,,,,61005f04b9a1eec4bc7e4e48,61037064418fb441f76aa7b5,2021-07-29_20h28.06.730,Simcolourproject_2stim_asymm_v5,2020.2.10,Linux x86_64,60,61025ae37ef11b136ea224fe,,,,,,,,,2140,83.87071582,100.8344921,1,0,0,response1disk,,7,10.27300964,13.74369494,1,0,0,rectangle,10.27300964,13.74369494,1,0,0,10.27300964,13.74369494,1,0,0,1,23,183,23,1,,,,,,,,
,,,,,,,,,,,,,FF,,,,,,,,1.1652,,,,,,,,,,,,,,,,,,,,,,61005f04b9a1eec4bc7e4e48,61037064418fb441f76aa7b5,2021-07-29_20h28.06.730,Simcolourproject_2stim_asymm_v5,2020.2.10,Linux x86_64,60,61025ae37ef11b136ea224fe,,,,,,,,,4245,37.02828348,-102.6122638,1,0,0,response3disk,,4,9.507628773,10.89813826,1,0,0,rectangle,9.507628773,10.89813826,1,0,0,9.507628773,10.89813826,1,0,0,1,24,184,35,1,,,,,,,,
,,,,,,,,,,,,,FF,,,,,,,,0.8494,,,,,,,,,,,,,,,,,,,,,,61005f04b9a1eec4bc7e4e48,61037064418fb441f76aa7b5,2021-07-29_20h28.06.730,Simcolourproject_2stim_asymm_v5,2020.2.10,Linux x86_64,60,61025ae37ef11b136ea224fe,,,,,,,,,2781,-46.84622949,-91.35030077,1,0,0,response5disk,,3,-4.51908042,-0.615045509,1,0,0,rectangle,-4.51908042,-0.615045509,1,0,0,-4.51908042,-0.615045509,1,0,0,1,25,185,53,1,,,,,,,,
,,,,,,,,,,,,,FF,,,,,,,,0.85,,,,,,,,,,,,,,,,,,,,,,61005f04b9a1eec4bc7e4e48,61037064418fb441f76aa7b5,2021-07-29_20h28.06.730,Simcolourproject_2stim_asymm_v5,2020.2.10,Linux x86_64,60,61025ae37ef11b136ea224fe,,,,,,,,,3129,42.68721911,75.16701128,1,0,0,response1disk,,7,18.58692578,12.15536484,1,0,0,rectangle,-67.95111262,117.4582717,1,0,0,3.946349394,-4.740680336,1,0,0,1,26,186,145,1,,response7disk_3,TRUE,0,0,"[82,90,239,299,187,322,96,39,195,268,90,247,45,85,194,267,282,231,28,283]",1.7995,rectangle
,,,,,,,,,,,,,FF,,,,,,,,1.0488,,,,,,,,,,,,,,,,,,,,,,61005f04b9a1eec4bc7e4e48,61037064418fb441f76aa7b5,2021-07-29_20h28.06.730,Simcolourproject_2stim_asymm_v5,2020.2.10,Linux x86_64,60,61025ae37ef11b136ea224fe,,,,,,,,,4161,-90.76556608,68.80372994,1,0,0,response7disk,,1,-6.164099976,15.08900746,1,0,0,rectangle,-6.164099976,15.08900746,1,0,0,-6.164099976,15.08900746,1,0,0,1,27,187,79,1,,,,,,,,
,,,,,,,,,,,,,FF,,,,,,,,0.9497,,,,,,,,,,,,,,,,,,,,,,61005f04b9a1eec4bc7e4e48,61037064418fb441f76aa7b5,2021-07-29_20h28.06.730,Simcolourproject_2stim_asymm_v5,2020.2.10,Linux x86_64,60,61025ae37ef11b136ea224fe,,,,,,,,,3860,-24.40799673,-111.8510335,1,0,0,response5disk,,3,4.917443158,-10.4411687,1,0,0,rectangle,4.917443158,-10.4411687,1,0,0,4.917443158,-10.4411687,1,0,0,1,28,188,92,1,,,,,,,,
,,,,,,,,,,,,,FF,,,,,,,,1.0155,,,,,,,,,,,,,,,,,,,,,,61005f04b9a1eec4bc7e4e48,61037064418fb441f76aa7b5,2021-07-29_20h28.06.730,Simcolourproject_2stim_asymm_v5,2020.2.10,Linux x86_64,60,61025ae37ef11b136ea224fe,,,,,,,,,2681,99.05108714,-71.24854266,1,0,0,response3disk,,5,21.94825396,3.345208456,1,0,0,rectangle,21.94825396,3.345208456,1,0,0,21.94825396,3.345208456,1,0,0,1,29,189,141,1,,,,,,,,
,,,,,,,,,,,,,FF,,,,,,,,1.0985,,,,,,,,,,,,,,,,,,,,,,61005f04b9a1eec4bc7e4e48,61037064418fb441f76aa7b5,2021-07-29_20h28.06.730,Simcolourproject_2stim_asymm_v5,2020.2.10,Linux x86_64,60,61025ae37ef11b136ea224fe,,,,,,,,,3147,-117.0592676,-43.49492896,1,0,0,response5disk,,2,-28.76615109,-6.54361005,1,0,0,rectangle,-28.76615109,-6.54361005,1,0,0,-28.76615109,-6.54361005,1,0,0,1,30,190,121,1,,,,,,,,
,,,,,,,,,,,,,FF,,,,,,,,0.7004,,,,,,,,,,,,,,,,,,,,,,61005f04b9a1eec4bc7e4e48,61037064418fb441f76aa7b5,2021-07-29_20h28.06.730,Simcolourproject_2stim_asymm_v5,2020.2.10,Linux x86_64,60,61025ae37ef11b136ea224fe,,,,,,,,,3108,-60.69891524,-27.97432326,1,0,0,response5disk,,2,-26.26273309,-14.24341485,1,0,0,rectangle,-26.26273309,-14.24341485,1,0,0,-26.26273309,-14.24341485,1,0,0,1,31,191,1,1,,,,,,,,
,,,,,,,,,,,,,FF,,,,,,,,0.8502,,,,,,,,,,,,,,,,,,,,,,61005f04b9a1eec4bc7e4e48,61037064418fb441f76aa7b5,2021-07-29_20h28.06.730,Simcolourproject_2stim_asymm_v5,2020.2.10,Linux x86_64,60,61025ae37ef11b136ea224fe,,,,,,,,,1369,-52.6244034,-23.98950875,1,0,0,response5disk,,2,14.45406439,6.386565923,1,0,0,rectangle,14.45406439,6.386565923,1,0,0,14.45406439,6.386565923,1,0,0,1,32,192,77,1,,,,,,,,
,,,,,,,,,,,,,FF,,,,,,,,0.8848,,,,,,,,,,,,,,,,,,,,,,61005f04b9a1eec4bc7e4e48,61037064418fb441f76aa7b5,2021-07-29_20h28.06.730,Simcolourproject_2stim_asymm_v5,2020.2.10,Linux x86_64,60,61025ae37ef11b136ea224fe,,,,,,,,,3127,115.8951304,56.08041432,1,0,0,response1disk,,6,20.76216996,7.752142116,1,0,0,rectangle,-113.6850977,64.63624941,1,0,0,34.48043188,-9.589117908,1,0,0,1,33,193,86,1,,response7disk_3,TRUE,1,1,"[82,90,239,299,187,322,96,39,195,268,90,247,45,85,194,267,282,231,28,283]",1.3843,rectangle
,,,,,,,,,,,,,FF,,,,,,,,0.9826,,,,,,,,,,,,,,,,,,,,,,61005f04b9a1eec4bc7e4e48,61037064418fb441f76aa7b5,2021-07-29_20h28.06.730,Simcolourproject_2stim_asymm_v5,2020.2.10,Linux x86_64,60,61025ae37ef11b136ea224fe,,,,,,,,,4101,41.14986557,-104.72784,1,0,0,response3disk,,4,2.242882571,5.413763175,1,0,0,rectangle,122.968275,-75.4014724,1,0,0,7.042003737,-0.256940035,1,0,0,1,34,194,144,1,,response3disk_3,TRUE,5,5,"[82,90,239,299,187,322,96,39,195,268,90,247,45,85,194,267,282,231,28,283]",1.5823,rectangle
,,,,,,,,,,,,,FF,,,,,,,,1.8654,,,,,,,,,,,,,,,,,,,,,,61005f04b9a1eec4bc7e4e48,61037064418fb441f76aa7b5,2021-07-29_20h28.06.730,Simcolourproject_2stim_asymm_v5,2020.2.10,Linux x86_64,60,61025ae37ef11b136ea224fe,,,,,,,,,2878,88.07481744,-79.69790802,1,0,0,response3disk,,5,31.83526582,12.08715195,1,0,0,rectangle,31.83526582,12.08715195,1,0,0,31.83526582,12.08715195,1,0,0,1,35,195,84,1,,,,,,,,
,,,,,,,,,,,,,FF,,,,,,,,0.7497,,,,,,,,,,,,,,,,,,,,,,61005f04b9a1eec4bc7e4e48,61037064418fb441f76aa7b5,2021-07-29_20h28.06.730,Simcolourproject_2stim_asymm_v5,2020.2.10,Linux x86_64,60,61025ae37ef11b136ea224fe,,,,,,,,,3581,39.52120344,-75.82744897,1,0,0,response3disk,,4,3.783995875,-2.224176392,1,0,0,rectangle,3.783995875,-2.224176392,1,0,0,3.783995875,-2.224176392,1,0,0,1,36,196,126,1,,,,,,,,
,,,,,,,,,,,,,FF,,,,,,,,2.0492,,,,,,,,,,,,,,,,,,,,,,61005f04b9a1eec4bc7e4e48,61037064418fb441f76aa7b5,2021-07-29_20h28.06.730,Simcolourproject_2stim_asymm_v5,2020.2.10,Linux x86_64,60,61025ae37ef11b136ea224fe,,,,,,,,,3853,74.79356725,-104.2495685,1,0,0,response3disk,,4,-12.64847507,10.17406598,1,0,0,rectangle,-12.64847507,10.17406598,1,0,0,-12.64847507,10.17406598,1,0,0,1,37,197,65,1,,,,,,,,
,,,,,,,,,,,,,FF,,,,,,,,2.731,,,,,,,,,,,,,,,,,,,,,,61005f04b9a1eec4bc7e4e48,61037064418fb441f76aa7b5,2021-07-29_20h28.06.730,Simcolourproject_2stim_asymm_v5,2020.2.10,Linux x86_64,60,61025ae37ef11b136ea224fe,,,,,,,,,2087,-17.52923686,-109.6762288,1,0,0,response5disk,,3,-0.688513957,5.947747558,1,0,0,rectangle,-0.688513957,5.947747558,1,0,0,-0.688513957,5.947747558,1,0,0,1,38,198,12,1,,,,,,,,
,,,,,,,,,,,,,FF,,,,,,,,0.9831,,,,,,,,,,,,,,,,,,,,,,61005f04b9a1eec4bc7e4e48,61037064418fb441f76aa7b5,2021-07-29_20h28.06.730,Simcolourproject_2stim_asymm_v5,2020.2.10,Linux x86_64,60,61025ae37ef11b136ea224fe,,,,,,,,,931,43.5590453,99.0976757,1,0,0,response1disk,,7,0.017540741,-5.919586604,1,0,0,rectangle,0.017540741,-5.919586604,1,0,0,0.017540741,-5.919586604,1,0,0,1,39,199,153,1,,,,,,,,
,,,,,,,,,,,,,FF,,,,,,,,1.3653,,,,,,,,,,,,,,,,,,,,,,61005f04b9a1eec4bc7e4e48,61037064418fb441f76aa7b5,2021-07-29_20h28.06.730,Simcolourproject_2stim_asymm_v5,2020.2.10,Linux x86_64,60,61025ae37ef11b136ea224fe,,,,,,,,,1738,83.83507129,-35.47725306,1,0,0,response3disk,,5,25.37335167,-3.980279934,1,0,0,rectangle,25.37335167,-3.980279934,1,0,0,25.37335167,-3.980279934,1,0,0,1,40,200,18,1,,,,,,,,
,,,,,,,,,,,,,FF,,,,,,,,0.899,,,,,,,,,,,,,,,,,,,,,,61005f04b9a1eec4bc7e4e48,61037064418fb441f76aa7b5,2021-07-29_20h28.06.730,Simcolourproject_2stim_asymm_v5,2020.2.10,Linux x86_64,60,61025ae37ef11b136ea224fe,,,,,,,,,2800,45.78878166,-110.6967854,1,0,0,response3disk,,4,17.47335155,-6.603375676,1,0,0,rectangle,17.47335155,-6.603375676,1,0,0,17.47335155,-6.603375676,1,0,0,1,41,201,55,1,,,,,,,,
,,,,,,,,,,,,,FF,,,,,,,,0.8514,,,,,,,,,,,,,,,,,,,,,,61005f04b9a1eec4bc7e4e48,61037064418fb441f76aa7b5,2021-07-29_20h28.06.730,Simcolourproject_2stim_asymm_v5,2020.2.10,Linux x86_64,60,61025ae37ef11b136ea224fe,,,,,,,,,3178,82.92237596,33.37623918,1,0,0,response1disk,,6,25.9924923,-4.406793612,1,0,0,rectangle,25.9924923,-4.406793612,1,0,0,25.9924923,-4.406793612,1,0,0,1,42,202,70,1,,,,,,,,
,,,,,,,,,,,,,FF,,,,,,,,1.3177,,,,,,,,,,,,,,,,,,,,,,61005f04b9a1eec4bc7e4e48,61037064418fb441f76aa7b5,2021-07-29_20h28.06.730,Simcolourproject_2stim_asymm_v5,2020.2.10,Linux x86_64,60,61025ae37ef11b136ea224fe,,,,,,,,,324,93.67657534,47.77318763,1,0,0,response1disk,,6,31.06490449,10.81039411,1,0,0,rectangle,31.06490449,10.81039411,1,0,0,31.06490449,10.81039411,1,0,0,1,43,203,124,1,,,,,,,,
,,,,,,,,,,,,,FF,,,,,,,,0.8501,,,,,,,,,,,,,,,,,,,,,,61005f04b9a1eec4bc7e4e48,61037064418fb441f76aa7b5,2021-07-29_20h28.06.730,Simcolourproject_2stim_asymm_v5,2020.2.10,Linux x86_64,60,61025ae37ef11b136ea224fe,,,,,,,,,590,64.05567646,127.2059525,1,0,0,response1disk,,7,4.736925577,7.408245626,1,0,0,rectangle,4.736925577,7.408245626,1,0,0,4.736925577,7.408245626,1,0,0,1,44,204,44,1,,,,,,,,
,,,,,,,,,,,,,FF,,,,,,,,1.4498,,,,,,,,,,,,,,,,,,,,,,61005f04b9a1eec4bc7e4e48,61037064418fb441f76aa7b5,2021-07-29_20h28.06.730,Simcolourproject_2stim_asymm_v5,2020.2.10,Linux x86_64,60,61025ae37ef11b136ea224fe,,,,,,,,,1430,60.82315688,-38.96607147,1,0,0,response3disk,,5,17.04278514,-8.052496792,1,0,0,rectangle,17.04278514,-8.052496792,1,0,0,17.04278514,-8.052496792,1,0,0,1,45,205,51,1,,,,,,,,
,,,,,,,,,,,,,FF,,,,,,,,1.7011,,,,,,,,,,,,,,,,,,,,,,61005f04b9a1eec4bc7e4e48,61037064418fb441f76aa7b5,2021-07-29_20h28.06.730,Simcolourproject_2stim_asymm_v5,2020.2.10,Linux x86_64,60,61025ae37ef11b136ea224fe,,,,,,,,,1662,87.50157525,-33.2147042,1,0,0,response3disk,,5,22.68165241,3.588811976,1,0,0,rectangle,22.68165241,3.588811976,1,0,0,22.68165241,3.588811976,1,0,0,1,46,206,52,1,,,,,,,,
,,,,,,,,,,,,,FF,,,,,,,,1.0367,,,,,,,,,,,,,,,,,,,,,,61005f04b9a1eec4bc7e4e48,61037064418fb441f76aa7b5,2021-07-29_20h28.06.730,Simcolourproject_2stim_asymm_v5,2020.2.10,Linux x86_64,60,61025ae37ef11b136ea224fe,,,,,,,,,583,117.317396,56.23876393,1,0,0,response1disk,,6,21.3915645,6.638958505,1,0,0,rectangle,21.3915645,6.638958505,1,0,0,21.3915645,6.638958505,1,0,0,1,47,207,29,1,,,,,,,,
,,,,,,,,,,,,,FF,,,,,,,,1.2504,,,,,,,,,,,,,,,,,,,,,,61005f04b9a1eec4bc7e4e48,61037064418fb441f76aa7b5,2021-07-29_20h28.06.730,Simcolourproject_2stim_asymm_v5,2020.2.10,Linux x86_64,60,61025ae37ef11b136ea224fe,,,,,,,,,2476,95.5122199,39.46959864,1,0,0,response1disk,,6,-14.15457861,10.41879255,1,0,0,rectangle,-14.15457861,10.41879255,1,0,0,-14.15457861,10.41879255,1,0,0,1,48,208,13,1,,,,,,,,
,,,,,,,,,,,,,FF,,,,,,,,1.9992,,,,,,,,,,,,,,,,,,,,,,61005f04b9a1eec4bc7e4e48,61037064418fb441f76aa7b5,2021-07-29_20h28.06.730,Simcolourproject_2stim_asymm_v5,2020.2.10,Linux x86_64,60,61025ae37ef11b136ea224fe,,,,,,,,,396,82.47804002,-46.9006419,1,0,0,response3disk,,5,26.64669153,3.855608855,1,0,0,rectangle,26.64669153,3.855608855,1,0,0,26.64669153,3.855608855,1,0,0,1,49,209,62,1,,,,,,,,
,,,,,,,,,,,,,FF,,,,,,,,1.2496,,,,,,,,,,,,,,,,,,,,,,61005f04b9a1eec4bc7e4e48,61037064418fb441f76aa7b5,2021-07-29_20h28.06.730,Simcolourproject_2stim_asymm_v5,2020.2.10,Linux x86_64,60,61025ae37ef11b136ea224fe,,,,,,,,,1688,-49.84539945,-75.80078882,1,0,0,response5disk,,3,9.795617059,-9.580817127,1,0,0,rectangle,9.795617059,-9.580817127,1,0,0,9.795617059,-9.580817127,1,0,0,1,50,210,158,1,,,,,,,,
,,,,,,,,,,,,,FF,,,,,,,,0.8667,,,,,,,,,,,,,,,,,,,,,,61005f04b9a1eec4bc7e4e48,61037064418fb441f76aa7b5,2021-07-29_20h28.06.730,Simcolourproject_2stim_asymm_v5,2020.2.10,Linux x86_64,60,61025ae37ef11b136ea224fe,,,,,,,,,1027,87.87227838,-42.46333715,1,0,0,response3disk,,5,37.98692607,-16.09531918,1,0,0,rectangle,37.98692607,-16.09531918,1,0,0,37.98692607,-16.09531918,1,0,0,1,51,211,72,1,,,,,,,,
,,,,,,,,,,,,,FF,,,,,,,,0.9322,,,,,,,,,,,,,,,,,,,,,,61005f04b9a1eec4bc7e4e48,61037064418fb441f76aa7b5,2021-07-29_20h28.06.730,Simcolourproject_2stim_asymm_v5,2020.2.10,Linux x86_64,60,61025ae37ef11b136ea224fe,,,,,,,,,3501,89.32169246,81.58070767,1,0,0,response1disk,,6,15.89180856,14.02821643,1,0,0,rectangle,15.89180856,14.02821643,1,0,0,15.89180856,14.02821643,1,0,0,1,52,212,82,1,,,,,,,,
,,,,,,,,,,,,,FF,,,,,,,,1.7328,,,,,,,,,,,,,,,,,,,,,,61005f04b9a1eec4bc7e4e48,61037064418fb441f76aa7b5,2021-07-29_20h28.06.730,Simcolourproject_2stim_asymm_v5,2020.2.10,Linux x86_64,60,61025ae37ef11b136ea224fe,,,,,,,,,3476,-79.17191356,-25.29883494,1,0,0,response5disk,,2,17.74215038,8.158001497,1,0,0,rectangle,17.74215038,8.158001497,1,0,0,17.74215038,8.158001497,1,0,0,1,53,213,32,1,,,,,,,,
,,,,,,,,,,,,,FF,,,,,,,,0.8498,,,,,,,,,,,,,,,,,,,,,,61005f04b9a1eec4bc7e4e48,61037064418fb441f76aa7b5,2021-07-29_20h28.06.730,Simcolourproject_2stim_asymm_v5,2020.2.10,Linux x86_64,60,61025ae37ef11b136ea224fe,,,,,,,,,2485,-95.58470678,-34.77217492,1,0,0,response5disk,,2,-0.439978797,12.20394882,1,0,0,rectangle,-0.439978797,12.20394882,1,0,0,-0.439978797,12.20394882,1,0,0,1,54,214,152,1,,,,,,,,
,,,,,,,,,,,,,FF,,,,,,,,0.8503,,,,,,,,,,,,,,,,,,,,,,61005f04b9a1eec4bc7e4e48,61037064418fb441f76aa7b5,2021-07-29_20h28.06.730,Simcolourproject_2stim_asymm_v5,2020.2.10,Linux x86_64,60,61025ae37ef11b136ea224fe,,,,,,,,,2526,62.35968034,-40.2709543,1,0,0,response3disk,,5,22.9748653,-4.18047525,1,0,0,rectangle,22.9748653,-4.18047525,1,0,0,22.9748653,-4.18047525,1,0,0,1,55,215,59,1,,,,,,,,
,,,,,,,,,,,,,FF,,,,,,,,1.5679,,,,,,,,,,,,,,,,,,,,,,61005f04b9a1eec4bc7e4e48,61037064418fb441f76aa7b5,2021-07-29_20h28.06.730,Simcolourproject_2stim_asymm_v5,2020.2.10,Linux x86_64,60,61025ae37ef11b136ea224fe,,,,,,,,,646,-40.79886612,-95.89497857,1,0,0,response5disk,,3,-27.22098506,-15.4825262,1,0,0,rectangle,-27.22098506,-15.4825262,1,0,0,-27.22098506,-15.4825262,1,0,0,1,56,216,114,1,,,,,,,,
,,,,,,,,,,,,,FF,,,,,,,,0.6996,,,,,,,,,,,,,,,,,,,,,,61005f04b9a1eec4bc7e4e48,61037064418fb441f76aa7b5,2021-07-29_20h28.06.730,Simcolourproject_2stim_asymm_v5,2020.2.10,Linux x86_64,60,61025ae37ef11b136ea224fe,,,,,,,,,1058,-82.82850542,-48.00469465,1,0,0,response5disk,,2,-8.49041837,-12.67759452,1,0,0,rectangle,-8.49041837,-12.67759452,1,0,0,-8.49041837,-12.67759452,1,0,0,1,57,217,30,1,,,,,,,,
,,,,,,,,,,,,,FF,,,,,,,,1.0492,,,,,,,,,,,,,,,,,,,,,,61005f04b9a1eec4bc7e4e48,61037064418fb441f76aa7b5,2021-07-29_20h28.06.730,Simcolourproject_2stim_asymm_v5,2020.2.10,Linux x86_64,60,61025ae37ef11b136ea224fe,,,,,,,,,2259,89.19229793,-54.88589593,1,0,0,response3disk,,5,-3.390174153,1.378802177,1,0,0,rectangle,-3.390174153,1.378802177,1,0,0,-3.390174153,1.378802177,1,0,0,1,58,218,149,1,,,,,,,,
,,,,,,,,,,,,,FF,,,,,,,,1.5506,,,,,,,,,,,,,,,,,,,,,,61005f04b9a1eec4bc7e4e48,61037064418fb441f76aa7b5,2021-07-29_20h28.06.730,Simcolourproject_2stim_asymm_v5,2020.2.10,Linux x86_64,60,61025ae37ef11b136ea224fe,,,,,,,,,2862,71.83780548,-82.4528397,1,0,0,response3disk,,4,-13.65809423,-2.793072885,1,0,0,rectangle,-13.65809423,-2.793072885,1,0,0,-13.65809423,-2.793072885,1,0,0,1,59,219,118,1,,,,,,,,
,,,,,,,,,,,,,FF,,,,,,,,1.8487,,,,,,,,,,,,,,,,,,,,,,61005f04b9a1eec4bc7e4e48,61037064418fb441f76aa7b5,2021-07-29_20h28.06.730,Simcolourproject_2stim_asymm_v5,2020.2.10,Linux x86_64,60,61025ae37ef11b136ea224fe,,,,,,,,,610,67.77012964,-84.7777909,1,0,0,response3disk,,4,10.4941034,-0.547565039,1,0,0,rectangle,10.4941034,-0.547565039,1,0,0,10.4941034,-0.547565039,1,0,0,1,60,220,120,1,,,,,,,,
,,,,,,,,,,,,,FF,,,,,,,,1.5819,,,,,,,,,,,,,,,,,,,,,,61005f04b9a1eec4bc7e4e48,61037064418fb441f76aa7b5,2021-07-29_20h28.06.730,Simcolourproject_2stim_asymm_v5,2020.2.10,Linux x86_64,60,61025ae37ef11b136ea224fe,,,,,,,,,629,124.2257945,50.45241131,1,0,0,response1disk,,6,31.5107541,11.08109724,1,0,0,rectangle,31.5107541,11.08109724,1,0,0,31.5107541,11.08109724,1,0,0,1,61,221,61,1,,,,,,,,
,,,,,,,,,,,,,FF,,,,,,,,1.1824,,,,,,,,,,,,,,,,,,,,,,61005f04b9a1eec4bc7e4e48,61037064418fb441f76aa7b5,2021-07-29_20h28.06.730,Simcolourproject_2stim_asymm_v5,2020.2.10,Linux x86_64,60,61025ae37ef11b136ea224fe,,,,,,,,,1135,43.20797107,-110.0417073,1,0,0,response3disk,,4,5.473644338,-10.91553394,1,0,0,rectangle,5.473644338,-10.91553394,1,0,0,5.473644338,-10.91553394,1,0,0,1,62,222,43,1,,,,,,,,
,,,,,,,,,,,,,FF,,,,,,,,1.1979,,,,,,,,,,,,,,,,,,,,,,61005f04b9a1eec4bc7e4e48,61037064418fb441f76aa7b5,2021-07-29_20h28.06.730,Simcolourproject_2stim_asymm_v5,2020.2.10,Linux x86_64,60,61025ae37ef11b136ea224fe,,,,,,,,,1865,87.21622368,-43.98530983,1,0,0,response3disk,,5,4.645226357,-8.545270237,1,0,0,rectangle,4.645226357,-8.545270237,1,0,0,4.645226357,-8.545270237,1,0,0,1,63,223,9,1,,,,,,,,
,,,,,,,,,,,,,FF,,,,,,,,1.0666,,,,,,,,,,,,,,,,,,,,,,61005f04b9a1eec4bc7e4e48,61037064418fb441f76aa7b5,2021-07-29_20h28.06.730,Simcolourproject_2stim_asymm_v5,2020.2.10,Linux x86_64,60,61025ae37ef11b136ea224fe,,,,,,,,,1326,55.69385993,-126.5359458,1,0,0,response3disk,,4,1.819347409,-6.388043642,1,0,0,rectangle,1.819347409,-6.388043642,1,0,0,1.819347409,-6.388043642,1,0,0,1,64,224,47,1,,,,,,,,
,,,,,,,,,,,,,FF,,,,,,,,2.549,,,,,,,,,,,,,,,,,,,,,,61005f04b9a1eec4bc7e4e48,61037064418fb441f76aa7b5,2021-07-29_20h28.06.730,Simcolourproject_2stim_asymm_v5,2020.2.10,Linux x86_64,60,61025ae37ef11b136ea224fe,,,,,,,,,876,108.8793099,29.75194713,1,0,0,response1disk,,6,32.75216037,-5.469391284,1,0,0,rectangle,32.75216037,-5.469391284,1,0,0,32.75216037,-5.469391284,1,0,0,1,65,225,96,1,,,,,,,,
,,,,,,,,,,,,,FF,,,,,,,,1.2326,,,,,,,,,,,,,,,,,,,,,,61005f04b9a1eec4bc7e4e48,61037064418fb441f76aa7b5,2021-07-29_20h28.06.730,Simcolourproject_2stim_asymm_v5,2020.2.10,Linux x86_64,60,61025ae37ef11b136ea224fe,,,,,,,,,2001,120.1038218,54.49318285,1,0,0,response1disk,,6,33.97164281,10.50687848,1,0,0,rectangle,33.97164281,10.50687848,1,0,0,33.97164281,10.50687848,1,0,0,1,66,226,115,1,,,,,,,,
,,,,,,,,,,,,,FF,,,,,,,,0.9658,,,,,,,,,,,,,,,,,,,,,,61005f04b9a1eec4bc7e4e48,61037064418fb441f76aa7b5,2021-07-29_20h28.06.730,Simcolourproject_2stim_asymm_v5,2020.2.10,Linux x86_64,60,61025ae37ef11b136ea224fe,,,,,,,,,1397,72.90860628,-38.04517302,1,0,0,response3disk,,5,20.61163284,-0.951715436,1,0,0,rectangle,20.61163284,-0.951715436,1,0,0,20.61163284,-0.951715436,1,0,0,1,67,227,127,1,,,,,,,,
,,,,,,,,,,,,,FF,,,,,,,,1.1328,,,,,,,,,,,,,,,,,,,,,,61005f04b9a1eec4bc7e4e48,61037064418fb441f76aa7b5,2021-07-29_20h28.06.730,Simcolourproject_2stim_asymm_v5,2020.2.10,Linux x86_64,60,61025ae37ef11b136ea224fe,,,,,,,,,3091,-83.83387652,-61.22017337,1,0,0,response5disk,,2,-0.972693649,-2.17110022,1,0,0,rectangle,-0.972693649,-2.17110022,1,0,0,-0.972693649,-2.17110022,1,0,0,1,68,228,89,1,,,,,,,,
,,,,,,,,,,,,,FF,,,,,,,,1.1163,,,,,,,,,,,,,,,,,,,,,,61005f04b9a1eec4bc7e4e48,61037064418fb441f76aa7b5,2021-07-29_20h28.06.730,Simcolourproject_2stim_asymm_v5,2020.2.10,Linux x86_64,60,61025ae37ef11b136ea224fe,,,,,,,,,4243,73.92384067,128.2682084,1,0,0,response1disk,,7,14.60040229,6.87538429,1,0,0,rectangle,14.60040229,6.87538429,1,0,0,14.60040229,6.87538429,1,0,0,1,69,229,3,1,,,,,,,,
,,,,,,,,,,,,,FF,,,,,,,,0.8168,,,,,,,,,,,,,,,,,,,,,,61005f04b9a1eec4bc7e4e48,61037064418fb441f76aa7b5,2021-07-29_20h28.06.730,Simcolourproject_2stim_asymm_v5,2020.2.10,Linux x86_64,60,61025ae37ef11b136ea224fe,,,,,,,,,1455,-82.43402299,-27.68213576,1,0,0,response5disk,,2,7.149230301,-10.21646167,1,0,0,rectangle,-111.8572168,66.9221137,1,0,0,-15.60199074,-6.506012394,1,0,0,1,70,230,17,1,,response7disk_3,TRUE,1,1,"[82,90,239,299,187,322,96,39,195,268,90,247,45,85,194,267,282,231,28,283]",1.3824,rectangle
,,,,,,,,,,,,,FF,,,,,,,,1.1838,,,,,,,,,,,,,,,,,,,,,,61005f04b9a1eec4bc7e4e48,61037064418fb441f76aa7b5,2021-07-29_20h28.06.730,Simcolourproject_2stim_asymm_v5,2020.2.10,Linux x86_64,60,61025ae37ef11b136ea224fe,,,,,,,,,2856,111.0725717,-46.33482158,1,0,0,response3disk,,5,-19.81473494,3.200091267,1,0,0,rectangle,-19.81473494,3.200091267,1,0,0,-19.81473494,3.200091267,1,0,0,1,71,231,129,1,,,,,,,,
,,,,,,,,,,,,,FF,,,,,,,,0.8669,,,,,,,,,,,,,,,,,,,,,,61005f04b9a1eec4bc7e4e48,61037064418fb441f76aa7b5,2021-07-29_20h28.06.730,Simcolourproject_2stim_asymm_v5,2020.2.10,Linux x86_64,60,61025ae37ef11b136ea224fe,,,,,,,,,2199,80.15997358,34.30897845,1,0,0,response1disk,,6,30.47774627,12.22704453,1,0,0,rectangle,30.47774627,12.22704453,1,0,0,30.47774627,12.22704453,1,0,0,1,72,232,76,1,,,,,,,,
,,,,,,,,,,,,,FF,,,,,,,,2.0321,,,,,,,,,,,,,,,,,,,,,,61005f04b9a1eec4bc7e4e48,61037064418fb441f76aa7b5,2021-07-29_20h28.06.730,Simcolourproject_2stim_asymm_v5,2020.2.10,Linux x86_64,60,61025ae37ef11b136ea224fe,,,,,,,,,4354,-33.27762577,-96.9335528,1,0,0,response5disk,,3,3.872570096,5.194769031,1,0,0,rectangle,3.872570096,5.194769031,1,0,0,3.872570096,5.194769031,1,0,0,1,73,233,102,1,,,,,,,,
,,,,,,,,,,,,,FF,,,,,,,,0.9657,,,,,,,,,,,,,,,,,,,,,,61005f04b9a1eec4bc7e4e48,61037064418fb441f76aa7b5,2021-07-29_20h28.06.730,Simcolourproject_2stim_asymm_v5,2020.2.10,Linux x86_64,60,61025ae37ef11b136ea224fe,,,,,,,,,1267,-21.50658067,-95.61568169,1,0,0,response5disk,,3,14.97603706,2.299065863,1,0,0,rectangle,14.97603706,2.299065863,1,0,0,14.97603706,2.299065863,1,0,0,1,74,234,10,1,,,,,,,,
,,,,,,,,,,,,,FF,,,,,,,,0.8697,,,,,,,,,,,,,,,,,,,,,,61005f04b9a1eec4bc7e4e48,61037064418fb441f76aa7b5,2021-07-29_20h28.06.730,Simcolourproject_2stim_asymm_v5,2020.2.10,Linux x86_64,60,61025ae37ef11b136ea224fe,,,,,,,,,1357,74.50362584,72.32008741,1,0,0,response1disk,,6,-0.873523725,-10.31079761,1,0,0,rectangle,-0.873523725,-10.31079761,1,0,0,-0.873523725,-10.31079761,1,0,0,1,75,235,71,1,,,,,,,,
,,,,,,,,,,,,,FF,,,,,,,,0.8695,,,,,,,,,,,,,,,,,,,,,,61005f04b9a1eec4bc7e4e48,61037064418fb441f76aa7b5,2021-07-29_20h28.06.730,Simcolourproject_2stim_asymm_v5,2020.2.10,Linux x86_64,60,61025ae37ef11b136ea224fe,,,,,,,,,1886,-66.73954033,27.64406136,1,0,0,response7disk,,1,-17.4595103,-0.688336526,1,0,0,rectangle,-17.4595103,-0.688336526,1,0,0,-17.4595103,-0.688336526,1,0,0,1,76,236,21,1,,,,,,,,
,,,,,,,,,,,,,FF,,,,,,,,1.2003,,,,,,,,,,,,,,,,,,,,,,61005f04b9a1eec4bc7e4e48,61037064418fb441f76aa7b5,2021-07-29_20h28.06.730,Simcolourproject_2stim_asymm_v5,2020.2.10,Linux x86_64,60,61025ae37ef11b136ea224fe,,,,,,,,,267,87.88077447,25.76979375,1,0,0,response1disk,,6,28.49654507,4.242962376,1,0,0,rectangle,28.49654507,4.242962376,1,0,0,28.49654507,4.242962376,1,0,0,1,77,237,15,1,,,,,,,,
,,,,,,,,,,,,,FF,,,,,,,,1.2322,,,,,,,,,,,,,,,,,,,,,,61005f04b9a1eec4bc7e4e48,61037064418fb441f76aa7b5,2021-07-29_20h28.06.730,Simcolourproject_2stim_asymm_v5,2020.2.10,Linux x86_64,60,61025ae37ef11b136ea224fe,,,,,,,,,3317,98.95235667,53.63085374,1,0,0,response1disk,,6,20.8620723,2.079925234,1,0,0,rectangle,-101.3953026,50.67782635,1,0,0,-14.33568213,0.208929113,1,0,0,1,78,238,22,1,,response7disk_3,TRUE,1,1,"[82,90,239,299,187,322,96,39,195,268,90,247,45,85,194,267,282,231,28,283]",1.6476,rectangle
,,,,,,,,,,,,,FF,,,,,,,,0.9487,,,,,,,,,,,,,,,,,,,,,,61005f04b9a1eec4bc7e4e48,61037064418fb441f76aa7b5,2021-07-29_20h28.06.730,Simcolourproject_2stim_asymm_v5,2020.2.10,Linux x86_64,60,61025ae37ef11b136ea224fe,,,,,,,,,190,-101.5392967,-23.19785835,1,0,0,response5disk,,2,29.33004118,2.731145947,1,0,0,rectangle,29.33004118,2.731145947,1,0,0,29.33004118,2.731145947,1,0,0,1,79,239,140,1,,,,,,,,
