key_resp.keys,key_resp.rt,key_resp_14.keys,key_resp_14.rt,key_resp_15.keys,key_resp_15.rt,key_resp_17.keys,key_resp_17.rt,key_resp_9.keys,key_resp_9.rt,key_resp_10.keys,key_resp_10.rt,practice_comparison,Ecc,mouse_5.x,mouse_5.y,mouse_5.leftButton,mouse_5.midButton,mouse_5.rightButton,mouse_5.clicked_name,pracsimilarity,response_time,mouse_10.x,mouse_10.y,mouse_10.leftButton,mouse_10.midButton,mouse_10.rightButton,mouse_10.clicked_name,mouse_7.x,mouse_7.y,mouse_7.leftButton,mouse_7.midButton,mouse_7.rightButton,mouse_6.x,mouse_6.y,mouse_6.leftButton,mouse_6.midButton,mouse_6.rightButton,duringprac.thisRepN,duringprac.thisTrialN,duringprac.thisN,duringprac.thisIndex,duringprac.ran,participant,session,date,expName,psychopyVersion,OS,frameRate,study_id,mouse_7.clicked_name,catchpracsimilarity,catch_response_time,catchnumberprac,catchtrialorderprac,mouse_6.clicked_name,key_resp_22.keys,key_resp_22.rt,realcomparison,mouse.x,mouse.y,mouse.leftButton,mouse.midButton,mouse.rightButton,mouse.clicked_name,Colour2,similarity,mouse_2.x,mouse_2.y,mouse_2.leftButton,mouse_2.midButton,mouse_2.rightButton,mouse_2.clicked_name,mouse_3.x,mouse_3.y,mouse_3.leftButton,mouse_3.midButton,mouse_3.rightButton,mouse_11.x,mouse_11.y,mouse_11.leftButton,mouse_11.midButton,mouse_11.rightButton,trials_2.thisRepN,trials_2.thisTrialN,trials_2.thisN,trials_2.thisIndex,trials_2.ran,Colour1,mouse_3.clicked_name,catchornah,catchsimilarity,catchnumber,catchtrialorder,catchRT,mouse_11.clicked_name
space,1.0458,space,7.0221,space,14.9916,space,5.7516,space,1.4342,space,5.2812,143,FF,72.36291504,-56.04611206,1,0,0,response3disk_5,5,35.7101,-1.681091309,2.604949951,1,0,0,rectangle_8,-1.681091309,2.604949951,1,0,0,-1.681091309,2.604949951,1,0,0,0,0,0,0,1,61008b3cfe1543cea836dcee,610378baa44862f47913e481,2021-07-29_23h58.19.775,Simcolourproject_2stim_asymm_v5,2020.2.10,MacIntel,60,61025ae37ef11b136ea224fe,,,,,,,,,,,,,,,,,,,,,,,,,,,,,,,,,,,,,,,,,,,,,,
,,,,,,,,,,,,97,PF,33.75317383,-57.60757446,1,0,0,response3disk_5,4,18.5044,-2.92578125,-0.752532959,1,0,0,rectangle_8,31.97570801,-87.98620605,1,0,0,-4.165039063,-0.695678711,1,0,0,0,1,1,4,1,61008b3cfe1543cea836dcee,610378baa44862f47913e481,2021-07-29_23h58.19.775,Simcolourproject_2stim_asymm_v5,2020.2.10,MacIntel,60,61025ae37ef11b136ea224fe,response3disk_7,4,6.0176,4,"[2,5]",rectangle_4,,,,,,,,,,,,,,,,,,,,,,,,,,,,,,,,,,,,,,,,
,,,,,,,,,,,,159,FF,86.18414307,32.19195557,1,0,0,response1disk_5,6,3.9533,-6.692138672,-8.757049561,1,0,0,rectangle_8,-6.692138672,-8.757049561,1,0,0,-6.692138672,-8.757049561,1,0,0,0,2,2,5,1,61008b3cfe1543cea836dcee,610378baa44862f47913e481,2021-07-29_23h58.19.775,Simcolourproject_2stim_asymm_v5,2020.2.10,MacIntel,60,61025ae37ef11b136ea224fe,,,,,,,,,,,,,,,,,,,,,,,,,,,,,,,,,,,,,,,,,,,,,,
,,,,,,,,,,,,118,PF,33.96185303,-82.69332886,1,0,0,response3disk_5,4,4.7702,1.943237305,-4.491668701,1,0,0,rectangle_8,1.943237305,-4.491668701,1,0,0,1.943237305,-4.491668701,1,0,0,0,3,3,1,1,61008b3cfe1543cea836dcee,610378baa44862f47913e481,2021-07-29_23h58.19.775,Simcolourproject_2stim_asymm_v5,2020.2.10,MacIntel,60,61025ae37ef11b136ea224fe,,,,,,,,,,,,,,,,,,,,,,,,,,,,,,,,,,,,,,,,,,,,,,
,,,,,,,,,,,,91,FF,33.20843506,81.15530396,1,0,0,response1disk_5,7,5.5358,-6.183105469,-13.23605347,1,0,0,rectangle_8,37.73114014,-91.94522095,1,0,0,-2.284790039,5.028686523,1,0,0,0,4,4,3,1,61008b3cfe1543cea836dcee,610378baa44862f47913e481,2021-07-29_23h58.19.775,Simcolourproject_2stim_asymm_v5,2020.2.10,MacIntel,60,61025ae37ef11b136ea224fe,response3disk_7,4,2.1337,4,"[2,5]",rectangle_4,,,,,,,,,,,,,,,,,,,,,,,,,,,,,,,,,,,,,,,,
,,,,,,,,,,,,22,PF,64.10571289,-50.38717651,1,0,0,response3disk_5,5,5.6402,3.053710938,-0.960540771,1,0,0,rectangle_8,3.053710938,-0.960540771,1,0,0,3.053710938,-0.960540771,1,0,0,0,5,5,2,1,61008b3cfe1543cea836dcee,610378baa44862f47913e481,2021-07-29_23h58.19.775,Simcolourproject_2stim_asymm_v5,2020.2.10,MacIntel,60,61025ae37ef11b136ea224fe,,,,,,,,,,,,,,,,,,,,,,,,,,,,,,,,,,,,,,,,,,,,,,
,,,,,,,,,,,,33,PF,29.92401123,69.67160034,1,0,0,response1disk_5,7,1.3011,7.843444824,-1.614837646,1,0,0,rectangle_8,7.843444824,-1.614837646,1,0,0,7.843444824,-1.614837646,1,0,0,0,6,6,6,1,61008b3cfe1543cea836dcee,610378baa44862f47913e481,2021-07-29_23h58.19.775,Simcolourproject_2stim_asymm_v5,2020.2.10,MacIntel,60,61025ae37ef11b136ea224fe,,,,,,,,,,,,,,,,,,,,,,,,,,,,,,,,,,,,,,,,,,,,,,
,,,,,,,,,,,,,FF,,,,,,,,3.2659,,,,,,,,,,,,,,,,,,,,,,61008b3cfe1543cea836dcee,610378baa44862f47913e481,2021-07-29_23h58.19.775,Simcolourproject_2stim_asymm_v5,2020.2.10,MacIntel,60,61025ae37ef11b136ea224fe,,,,,,,space,2.8341,1528,74.75537109,-33.66641235,1,0,0,response3disk,,5,5.674194336,-1.105438232,1,0,0,rectangle,5.674194336,-1.105438232,1,0,0,5.674194336,-1.105438232,1,0,0,0,0,0,156,1,,,,,,,,
,,,,,,,,,,,,,FF,,,,,,,,9.3559,,,,,,,,,,,,,,,,,,,,,,61008b3cfe1543cea836dcee,610378baa44862f47913e481,2021-07-29_23h58.19.775,Simcolourproject_2stim_asymm_v5,2020.2.10,MacIntel,60,61025ae37ef11b136ea224fe,,,,,,,,,754,79.57659912,-30.8899231,1,0,0,response3disk,,5,-3.543273926,-5.150085449,1,0,0,rectangle,-3.543273926,-5.150085449,1,0,0,-3.543273926,-5.150085449,1,0,0,0,1,1,17,1,,,,,,,,
,,,,,,,,,,,,,FF,,,,,,,,3.5178,,,,,,,,,,,,,,,,,,,,,,61008b3cfe1543cea836dcee,610378baa44862f47913e481,2021-07-29_23h58.19.775,Simcolourproject_2stim_asymm_v5,2020.2.10,MacIntel,60,61025ae37ef11b136ea224fe,,,,,,,,,84,37.06811523,91.27774048,1,0,0,response1disk,,7,4.456665039,2.383911133,1,0,0,rectangle,4.456665039,2.383911133,1,0,0,4.456665039,2.383911133,1,0,0,0,2,2,146,1,,,,,,,,
,,,,,,,,,,,,,FF,,,,,,,,1.0016,,,,,,,,,,,,,,,,,,,,,,61008b3cfe1543cea836dcee,610378baa44862f47913e481,2021-07-29_23h58.19.775,Simcolourproject_2stim_asymm_v5,2020.2.10,MacIntel,60,61025ae37ef11b136ea224fe,,,,,,,,,2346,35.69311523,78.70654297,1,0,0,response1disk,,7,-0.939208984,4.374023438,1,0,0,rectangle,-0.939208984,4.374023438,1,0,0,-0.939208984,4.374023438,1,0,0,0,3,3,131,1,,,,,,,,
,,,,,,,,,,,,,FF,,,,,,,,4.6664,,,,,,,,,,,,,,,,,,,,,,61008b3cfe1543cea836dcee,610378baa44862f47913e481,2021-07-29_23h58.19.775,Simcolourproject_2stim_asymm_v5,2020.2.10,MacIntel,60,61025ae37ef11b136ea224fe,,,,,,,,,4349,34.4854126,84.06970215,1,0,0,response1disk,,7,-3.068603516,5.514068604,1,0,0,rectangle,-3.068603516,5.514068604,1,0,0,-3.068603516,5.514068604,1,0,0,0,4,4,73,1,,,,,,,,
,,,,,,,,,,,,,FF,,,,,,,,1.4645,,,,,,,,,,,,,,,,,,,,,,61008b3cfe1543cea836dcee,610378baa44862f47913e481,2021-07-29_23h58.19.775,Simcolourproject_2stim_asymm_v5,2020.2.10,MacIntel,60,61025ae37ef11b136ea224fe,,,,,,,,,2760,38.24914551,94.95794678,1,0,0,response1disk,,7,1.519287109,6.866027832,1,0,0,rectangle,1.519287109,6.866027832,1,0,0,1.519287109,6.866027832,1,0,0,0,5,5,143,1,,,,,,,,
,,,,,,,,,,,,,FF,,,,,,,,0.779,,,,,,,,,,,,,,,,,,,,,,61008b3cfe1543cea836dcee,610378baa44862f47913e481,2021-07-29_23h58.19.775,Simcolourproject_2stim_asymm_v5,2020.2.10,MacIntel,60,61025ae37ef11b136ea224fe,,,,,,,,,1925,32.67926025,95.35482788,1,0,0,response1disk,,7,6.284790039,9.024902344,1,0,0,rectangle,6.284790039,9.024902344,1,0,0,6.284790039,9.024902344,1,0,0,0,6,6,22,1,,,,,,,,
,,,,,,,,,,,,,FF,,,,,,,,3.166,,,,,,,,,,,,,,,,,,,,,,61008b3cfe1543cea836dcee,610378baa44862f47913e481,2021-07-29_23h58.19.775,Simcolourproject_2stim_asymm_v5,2020.2.10,MacIntel,60,61025ae37ef11b136ea224fe,,,,,,,,,4050,27.90783691,-99.52386475,1,0,0,response3disk,,4,5.433166504,0.374237061,1,0,0,rectangle,5.433166504,0.374237061,1,0,0,5.433166504,0.374237061,1,0,0,0,7,7,25,1,,,,,,,,
,,,,,,,,,,,,,FF,,,,,,,,2.8147,,,,,,,,,,,,,,,,,,,,,,61008b3cfe1543cea836dcee,610378baa44862f47913e481,2021-07-29_23h58.19.775,Simcolourproject_2stim_asymm_v5,2020.2.10,MacIntel,60,61025ae37ef11b136ea224fe,,,,,,,,,3512,-77.18048096,-57.19680786,1,0,0,response5disk,,2,-5.621948242,1.774658203,1,0,0,rectangle,-5.621948242,1.774658203,1,0,0,-5.621948242,1.774658203,1,0,0,0,8,8,64,1,,,,,,,,
,,,,,,,,,,,,,FF,,,,,,,,0.9315,,,,,,,,,,,,,,,,,,,,,,61008b3cfe1543cea836dcee,610378baa44862f47913e481,2021-07-29_23h58.19.775,Simcolourproject_2stim_asymm_v5,2020.2.10,MacIntel,60,61025ae37ef11b136ea224fe,,,,,,,,,3553,-76.88690186,-44.32440186,1,0,0,response5disk,,2,-6.936279297,-5.897094727,1,0,0,rectangle,-6.936279297,-5.897094727,1,0,0,-6.936279297,-5.897094727,1,0,0,0,9,9,94,1,,,,,,,,
,,,,,,,,,,,,,FF,,,,,,,,1.8168,,,,,,,,,,,,,,,,,,,,,,61008b3cfe1543cea836dcee,610378baa44862f47913e481,2021-07-29_23h58.19.775,Simcolourproject_2stim_asymm_v5,2020.2.10,MacIntel,60,61025ae37ef11b136ea224fe,,,,,,,,,2281,83.61584473,-47.18887329,1,0,0,response3disk,,5,12.74987793,7.855926514,1,0,0,rectangle,12.74987793,7.855926514,1,0,0,12.74987793,7.855926514,1,0,0,0,10,10,66,1,,,,,,,,
,,,,,,,,,,,,,FF,,,,,,,,2.6823,,,,,,,,,,,,,,,,,,,,,,61008b3cfe1543cea836dcee,610378baa44862f47913e481,2021-07-29_23h58.19.775,Simcolourproject_2stim_asymm_v5,2020.2.10,MacIntel,60,61025ae37ef11b136ea224fe,,,,,,,,,3814,-42.64685059,-74.0067749,1,0,0,response5disk,,3,9.552062988,15.44906616,1,0,0,rectangle,9.552062988,15.44906616,1,0,0,9.552062988,15.44906616,1,0,0,0,11,11,152,1,,,,,,,,
,,,,,,,,,,,,,FF,,,,,,,,3.0847,,,,,,,,,,,,,,,,,,,,,,61008b3cfe1543cea836dcee,610378baa44862f47913e481,2021-07-29_23h58.19.775,Simcolourproject_2stim_asymm_v5,2020.2.10,MacIntel,60,61025ae37ef11b136ea224fe,,,,,,,,,3692,38.68811035,68.98104858,1,0,0,response1disk,,7,8.059814453,-8.164215088,1,0,0,rectangle,8.059814453,-8.164215088,1,0,0,8.059814453,-8.164215088,1,0,0,0,12,12,14,1,,,,,,,,
,,,,,,,,,,,,,FF,,,,,,,,3.7881,,,,,,,,,,,,,,,,,,,,,,61008b3cfe1543cea836dcee,610378baa44862f47913e481,2021-07-29_23h58.19.775,Simcolourproject_2stim_asymm_v5,2020.2.10,MacIntel,60,61025ae37ef11b136ea224fe,,,,,,,,,2076,53.05566406,72.056427,1,0,0,response1disk,,7,5.208618164,15.38180542,1,0,0,rectangle,5.208618164,15.38180542,1,0,0,5.208618164,15.38180542,1,0,0,0,13,13,121,1,,,,,,,,
,,,,,,,,,,,,,FF,,,,,,,,2.9329,,,,,,,,,,,,,,,,,,,,,,61008b3cfe1543cea836dcee,610378baa44862f47913e481,2021-07-29_23h58.19.775,Simcolourproject_2stim_asymm_v5,2020.2.10,MacIntel,60,61025ae37ef11b136ea224fe,,,,,,,,,1519,72.31329346,-31.39599609,1,0,0,response3disk,,5,-6.401000977,-6.370117188,1,0,0,rectangle,-70.29089355,18.12860107,1,0,0,-1.499938965,0.781036377,1,0,0,0,14,14,107,1,,response7disk_3,TRUE,1,1,"[42,153,69,141,33,155,59,248,267,15,33,157,97,46,264,271,74,293,52,198]",2.2191,rectangle
,,,,,,,,,,,,,FF,,,,,,,,2.7839,,,,,,,,,,,,,,,,,,,,,,61008b3cfe1543cea836dcee,610378baa44862f47913e481,2021-07-29_23h58.19.775,Simcolourproject_2stim_asymm_v5,2020.2.10,MacIntel,60,61025ae37ef11b136ea224fe,,,,,,,,,228,28.96459961,70.60079956,1,0,0,response1disk,,7,-5.958557129,4.076629639,1,0,0,rectangle,-5.958557129,4.076629639,1,0,0,-5.958557129,4.076629639,1,0,0,0,15,15,139,1,,,,,,,,
,,,,,,,,,,,,,FF,,,,,,,,2.6357,,,,,,,,,,,,,,,,,,,,,,61008b3cfe1543cea836dcee,610378baa44862f47913e481,2021-07-29_23h58.19.775,Simcolourproject_2stim_asymm_v5,2020.2.10,MacIntel,60,61025ae37ef11b136ea224fe,,,,,,,,,1126,41.43536377,72.59832764,1,0,0,response1disk,,7,9.393798828,7.408081055,1,0,0,rectangle,9.393798828,7.408081055,1,0,0,9.393798828,7.408081055,1,0,0,0,16,16,38,1,,,,,,,,
,,,,,,,,,,,,,FF,,,,,,,,1.3337,,,,,,,,,,,,,,,,,,,,,,61008b3cfe1543cea836dcee,610378baa44862f47913e481,2021-07-29_23h58.19.775,Simcolourproject_2stim_asymm_v5,2020.2.10,MacIntel,60,61025ae37ef11b136ea224fe,,,,,,,,,2913,52.38549805,68.09634399,1,0,0,response1disk,,7,3.562194824,9.871154785,1,0,0,rectangle,3.562194824,9.871154785,1,0,0,3.562194824,9.871154785,1,0,0,0,17,17,0,1,,,,,,,,
,,,,,,,,,,,,,FF,,,,,,,,2.2853,,,,,,,,,,,,,,,,,,,,,,61008b3cfe1543cea836dcee,610378baa44862f47913e481,2021-07-29_23h58.19.775,Simcolourproject_2stim_asymm_v5,2020.2.10,MacIntel,60,61025ae37ef11b136ea224fe,,,,,,,,,2548,-47.3125,-77.77545166,1,0,0,response5disk,,3,0.170349121,11.45846558,1,0,0,rectangle,0.170349121,11.45846558,1,0,0,0.170349121,11.45846558,1,0,0,0,18,18,41,1,,,,,,,,
,,,,,,,,,,,,,FF,,,,,,,,5.3855,,,,,,,,,,,,,,,,,,,,,,61008b3cfe1543cea836dcee,610378baa44862f47913e481,2021-07-29_23h58.19.775,Simcolourproject_2stim_asymm_v5,2020.2.10,MacIntel,60,61025ae37ef11b136ea224fe,,,,,,,,,2961,36.38104248,-100.53125,1,0,0,response3disk,,4,8.416625977,-5.826324463,1,0,0,rectangle,8.416625977,-5.826324463,1,0,0,8.416625977,-5.826324463,1,0,0,0,19,19,34,1,,,,,,,,
,,,,,,,,,,,,,FF,,,,,,,,1.1669,,,,,,,,,,,,,,,,,,,,,,61008b3cfe1543cea836dcee,610378baa44862f47913e481,2021-07-29_23h58.19.775,Simcolourproject_2stim_asymm_v5,2020.2.10,MacIntel,60,61025ae37ef11b136ea224fe,,,,,,,,,3645,24.32385254,74.15548706,1,0,0,response1disk,,7,0.298706055,0.61505127,1,0,0,rectangle,0.298706055,0.61505127,1,0,0,0.298706055,0.61505127,1,0,0,0,20,20,129,1,,,,,,,,
,,,,,,,,,,,,,FF,,,,,,,,1.8836,,,,,,,,,,,,,,,,,,,,,,61008b3cfe1543cea836dcee,610378baa44862f47913e481,2021-07-29_23h58.19.775,Simcolourproject_2stim_asymm_v5,2020.2.10,MacIntel,60,61025ae37ef11b136ea224fe,,,,,,,,,683,29.16442871,69.99346924,1,0,0,response1disk,,7,5.271606445,-3.618041992,1,0,0,rectangle,5.271606445,-3.618041992,1,0,0,5.271606445,-3.618041992,1,0,0,0,21,21,78,1,,,,,,,,
,,,,,,,,,,,,,FF,,,,,,,,2.4349,,,,,,,,,,,,,,,,,,,,,,61008b3cfe1543cea836dcee,610378baa44862f47913e481,2021-07-29_23h58.19.775,Simcolourproject_2stim_asymm_v5,2020.2.10,MacIntel,60,61025ae37ef11b136ea224fe,,,,,,,,,820,35.06427002,79.83068848,1,0,0,response1disk,,7,5.870910645,8.189544678,1,0,0,rectangle,5.870910645,8.189544678,1,0,0,5.870910645,8.189544678,1,0,0,0,22,22,19,1,,,,,,,,
,,,,,,,,,,,,,FF,,,,,,,,3.0174,,,,,,,,,,,,,,,,,,,,,,61008b3cfe1543cea836dcee,610378baa44862f47913e481,2021-07-29_23h58.19.775,Simcolourproject_2stim_asymm_v5,2020.2.10,MacIntel,60,61025ae37ef11b136ea224fe,,,,,,,,,2056,35.98590088,95.9125061,1,0,0,response1disk,,7,4.472351074,-5.630706787,1,0,0,rectangle,4.472351074,-5.630706787,1,0,0,4.472351074,-5.630706787,1,0,0,0,23,23,127,1,,,,,,,,
,,,,,,,,,,,,,FF,,,,,,,,3.0523,,,,,,,,,,,,,,,,,,,,,,61008b3cfe1543cea836dcee,610378baa44862f47913e481,2021-07-29_23h58.19.775,Simcolourproject_2stim_asymm_v5,2020.2.10,MacIntel,60,61025ae37ef11b136ea224fe,,,,,,,,,113,81.28991699,-38.57067871,1,0,0,response3disk,,5,17.55407715,1.474609375,1,0,0,rectangle,17.55407715,1.474609375,1,0,0,17.55407715,1.474609375,1,0,0,0,24,24,76,1,,,,,,,,
,,,,,,,,,,,,,FF,,,,,,,,1.6839,,,,,,,,,,,,,,,,,,,,,,61008b3cfe1543cea836dcee,610378baa44862f47913e481,2021-07-29_23h58.19.775,Simcolourproject_2stim_asymm_v5,2020.2.10,MacIntel,60,61025ae37ef11b136ea224fe,,,,,,,,,686,31.15557861,45.90313721,1,0,0,response1disk,,7,1.680847168,2.564727783,1,0,0,rectangle,1.680847168,2.564727783,1,0,0,1.680847168,2.564727783,1,0,0,0,25,25,53,1,,,,,,,,
,,,,,,,,,,,,,FF,,,,,,,,2.7844,,,,,,,,,,,,,,,,,,,,,,61008b3cfe1543cea836dcee,610378baa44862f47913e481,2021-07-29_23h58.19.775,Simcolourproject_2stim_asymm_v5,2020.2.10,MacIntel,60,61025ae37ef11b136ea224fe,,,,,,,,,891,-77.43243408,-29.82525635,1,0,0,response5disk,,2,7.065734863,-0.873016357,1,0,0,rectangle,7.065734863,-0.873016357,1,0,0,7.065734863,-0.873016357,1,0,0,0,26,26,32,1,,,,,,,,
,,,,,,,,,,,,,FF,,,,,,,,1.9172,,,,,,,,,,,,,,,,,,,,,,61008b3cfe1543cea836dcee,610378baa44862f47913e481,2021-07-29_23h58.19.775,Simcolourproject_2stim_asymm_v5,2020.2.10,MacIntel,60,61025ae37ef11b136ea224fe,,,,,,,,,4006,71.88067627,39.13378906,1,0,0,response1disk,,6,-9.826782227,2.541320801,1,0,0,rectangle,-9.826782227,2.541320801,1,0,0,-9.826782227,2.541320801,1,0,0,0,27,27,122,1,,,,,,,,
,,,,,,,,,,,,,FF,,,,,,,,0.9837,,,,,,,,,,,,,,,,,,,,,,61008b3cfe1543cea836dcee,610378baa44862f47913e481,2021-07-29_23h58.19.775,Simcolourproject_2stim_asymm_v5,2020.2.10,MacIntel,60,61025ae37ef11b136ea224fe,,,,,,,,,1546,35.66448975,89.60955811,1,0,0,response1disk,,7,13.11779785,10.94161987,1,0,0,rectangle,13.11779785,10.94161987,1,0,0,13.11779785,10.94161987,1,0,0,0,28,28,70,1,,,,,,,,
,,,,,,,,,,,,,FF,,,,,,,,0.7009,,,,,,,,,,,,,,,,,,,,,,61008b3cfe1543cea836dcee,610378baa44862f47913e481,2021-07-29_23h58.19.775,Simcolourproject_2stim_asymm_v5,2020.2.10,MacIntel,60,61025ae37ef11b136ea224fe,,,,,,,,,2550,26.55895996,64.1819458,1,0,0,response1disk,,7,5.776123047,-8.065856934,1,0,0,rectangle,5.776123047,-8.065856934,1,0,0,5.776123047,-8.065856934,1,0,0,0,29,29,50,1,,,,,,,,
,,,,,,,,,,,,,FF,,,,,,,,1.1508,,,,,,,,,,,,,,,,,,,,,,61008b3cfe1543cea836dcee,610378baa44862f47913e481,2021-07-29_23h58.19.775,Simcolourproject_2stim_asymm_v5,2020.2.10,MacIntel,60,61025ae37ef11b136ea224fe,,,,,,,,,1761,22.9319458,80.50350952,1,0,0,response1disk,,7,4.885253906,2.454925537,1,0,0,rectangle,4.885253906,2.454925537,1,0,0,4.885253906,2.454925537,1,0,0,0,30,30,27,1,,,,,,,,
,,,,,,,,,,,,,FF,,,,,,,,1.2857,,,,,,,,,,,,,,,,,,,,,,61008b3cfe1543cea836dcee,610378baa44862f47913e481,2021-07-29_23h58.19.775,Simcolourproject_2stim_asymm_v5,2020.2.10,MacIntel,60,61025ae37ef11b136ea224fe,,,,,,,,,329,29.84710693,68.4960022,1,0,0,response1disk,,7,15.73968506,7.990997314,1,0,0,rectangle,15.73968506,7.990997314,1,0,0,15.73968506,7.990997314,1,0,0,0,31,31,112,1,,,,,,,,
,,,,,,,,,,,,,FF,,,,,,,,1.2359,,,,,,,,,,,,,,,,,,,,,,61008b3cfe1543cea836dcee,610378baa44862f47913e481,2021-07-29_23h58.19.775,Simcolourproject_2stim_asymm_v5,2020.2.10,MacIntel,60,61025ae37ef11b136ea224fe,,,,,,,,,367,-81.34173584,42.08035278,1,0,0,response7disk,,1,-11.47216797,9.151092529,1,0,0,rectangle,-78.30340576,18.46154785,1,0,0,-10.76794434,-1.904022217,1,0,0,0,32,32,36,1,,response7disk_3,TRUE,1,1,"[42,153,69,141,33,155,59,248,267,15,33,157,97,46,264,271,74,293,52,198]",1.4676,rectangle
,,,,,,,,,,,,,FF,,,,,,,,1.384,,,,,,,,,,,,,,,,,,,,,,61008b3cfe1543cea836dcee,610378baa44862f47913e481,2021-07-29_23h58.19.775,Simcolourproject_2stim_asymm_v5,2020.2.10,MacIntel,60,61025ae37ef11b136ea224fe,,,,,,,,,492,31.9251709,86.43069458,1,0,0,response1disk,,7,11.46899414,6.725585938,1,0,0,rectangle,11.46899414,6.725585938,1,0,0,11.46899414,6.725585938,1,0,0,0,33,33,11,1,,,,,,,,
,,,,,,,,,,,,,FF,,,,,,,,1.1511,,,,,,,,,,,,,,,,,,,,,,61008b3cfe1543cea836dcee,610378baa44862f47913e481,2021-07-29_23h58.19.775,Simcolourproject_2stim_asymm_v5,2020.2.10,MacIntel,60,61025ae37ef11b136ea224fe,,,,,,,,,3564,37.8939209,-62.58654785,1,0,0,response3disk,,4,19.41625977,8.503234863,1,0,0,rectangle,19.41625977,8.503234863,1,0,0,19.41625977,8.503234863,1,0,0,0,34,34,81,1,,,,,,,,
,,,,,,,,,,,,,FF,,,,,,,,1.5501,,,,,,,,,,,,,,,,,,,,,,61008b3cfe1543cea836dcee,610378baa44862f47913e481,2021-07-29_23h58.19.775,Simcolourproject_2stim_asymm_v5,2020.2.10,MacIntel,60,61025ae37ef11b136ea224fe,,,,,,,,,131,22.722229,86.51394653,1,0,0,response1disk,,7,-2.035888672,-1.395904541,1,0,0,rectangle,-2.035888672,-1.395904541,1,0,0,-2.035888672,-1.395904541,1,0,0,0,35,35,71,1,,,,,,,,
,,,,,,,,,,,,,FF,,,,,,,,1.5491,,,,,,,,,,,,,,,,,,,,,,61008b3cfe1543cea836dcee,610378baa44862f47913e481,2021-07-29_23h58.19.775,Simcolourproject_2stim_asymm_v5,2020.2.10,MacIntel,60,61025ae37ef11b136ea224fe,,,,,,,,,159,26.35180664,-65.79425049,1,0,0,response3disk,,4,-6.54876709,-11.65795898,1,0,0,rectangle,-6.54876709,-11.65795898,1,0,0,-6.54876709,-11.65795898,1,0,0,0,36,36,83,1,,,,,,,,
,,,,,,,,,,,,,FF,,,,,,,,1.0858,,,,,,,,,,,,,,,,,,,,,,61008b3cfe1543cea836dcee,610378baa44862f47913e481,2021-07-29_23h58.19.775,Simcolourproject_2stim_asymm_v5,2020.2.10,MacIntel,60,61025ae37ef11b136ea224fe,,,,,,,,,3126,42.22344971,109.0914917,1,0,0,response1disk,,7,3.804077148,-12.33294678,1,0,0,rectangle,3.804077148,-12.33294678,1,0,0,3.804077148,-12.33294678,1,0,0,0,37,37,119,1,,,,,,,,
,,,,,,,,,,,,,FF,,,,,,,,1.0831,,,,,,,,,,,,,,,,,,,,,,61008b3cfe1543cea836dcee,610378baa44862f47913e481,2021-07-29_23h58.19.775,Simcolourproject_2stim_asymm_v5,2020.2.10,MacIntel,60,61025ae37ef11b136ea224fe,,,,,,,,,4294,-92.21356201,-44.12966919,1,0,0,response5disk,,2,-27.73699951,6.081970215,1,0,0,rectangle,-27.73699951,6.081970215,1,0,0,-27.73699951,6.081970215,1,0,0,0,38,38,39,1,,,,,,,,
,,,,,,,,,,,,,FF,,,,,,,,1.3834,,,,,,,,,,,,,,,,,,,,,,61008b3cfe1543cea836dcee,610378baa44862f47913e481,2021-07-29_23h58.19.775,Simcolourproject_2stim_asymm_v5,2020.2.10,MacIntel,60,61025ae37ef11b136ea224fe,,,,,,,,,3817,-62.75152588,-29.88916016,1,0,0,response5disk,,2,-3.595825195,-3.154449463,1,0,0,rectangle,-3.595825195,-3.154449463,1,0,0,-3.595825195,-3.154449463,1,0,0,0,39,39,20,1,,,,,,,,
,,,,,,,,,,,,,FF,,,,,,,,1.6667,,,,,,,,,,,,,,,,,,,,,,61008b3cfe1543cea836dcee,610378baa44862f47913e481,2021-07-29_23h58.19.775,Simcolourproject_2stim_asymm_v5,2020.2.10,MacIntel,60,61025ae37ef11b136ea224fe,,,,,,,,,1402,75.69775391,-45.21496582,1,0,0,response3disk,,5,-2.739074707,-9.670715332,1,0,0,rectangle,-2.739074707,-9.670715332,1,0,0,-2.739074707,-9.670715332,1,0,0,0,40,40,3,1,,,,,,,,
,,,,,,,,,,,,,FF,,,,,,,,1.2173,,,,,,,,,,,,,,,,,,,,,,61008b3cfe1543cea836dcee,610378baa44862f47913e481,2021-07-29_23h58.19.775,Simcolourproject_2stim_asymm_v5,2020.2.10,MacIntel,60,61025ae37ef11b136ea224fe,,,,,,,,,2956,31.21252441,76.90386963,1,0,0,response1disk,,7,-6.651062012,-14.35168457,1,0,0,rectangle,91.71466064,41.48312378,1,0,0,-6.413269043,-6.799072266,1,0,0,0,41,41,110,1,,response1disk_3,TRUE,6,6,"[42,153,69,141,33,155,59,248,267,15,33,157,97,46,264,271,74,293,52,198]",1.7519,rectangle
,,,,,,,,,,,,,FF,,,,,,,,0.8508,,,,,,,,,,,,,,,,,,,,,,61008b3cfe1543cea836dcee,610378baa44862f47913e481,2021-07-29_23h58.19.775,Simcolourproject_2stim_asymm_v5,2020.2.10,MacIntel,60,61025ae37ef11b136ea224fe,,,,,,,,,295,50.43981934,83.58776855,1,0,0,response1disk,,7,-2.41027832,8.928497314,1,0,0,rectangle,-2.41027832,8.928497314,1,0,0,-2.41027832,8.928497314,1,0,0,0,42,42,37,1,,,,,,,,
,,,,,,,,,,,,,FF,,,,,,,,1.3019,,,,,,,,,,,,,,,,,,,,,,61008b3cfe1543cea836dcee,610378baa44862f47913e481,2021-07-29_23h58.19.775,Simcolourproject_2stim_asymm_v5,2020.2.10,MacIntel,60,61025ae37ef11b136ea224fe,,,,,,,,,1746,-76.27661133,-36.48114014,1,0,0,response5disk,,2,-10.93951416,-12.15386963,1,0,0,rectangle,-10.93951416,-12.15386963,1,0,0,-10.93951416,-12.15386963,1,0,0,0,43,43,111,1,,,,,,,,
,,,,,,,,,,,,,FF,,,,,,,,1.0504,,,,,,,,,,,,,,,,,,,,,,61008b3cfe1543cea836dcee,610378baa44862f47913e481,2021-07-29_23h58.19.775,Simcolourproject_2stim_asymm_v5,2020.2.10,MacIntel,60,61025ae37ef11b136ea224fe,,,,,,,,,3404,87.13122559,-46.19674683,1,0,0,response3disk,,5,14.35345459,-14.53747559,1,0,0,rectangle,14.35345459,-14.53747559,1,0,0,14.35345459,-14.53747559,1,0,0,0,44,44,63,1,,,,,,,,
,,,,,,,,,,,,,FF,,,,,,,,0.7996,,,,,,,,,,,,,,,,,,,,,,61008b3cfe1543cea836dcee,610378baa44862f47913e481,2021-07-29_23h58.19.775,Simcolourproject_2stim_asymm_v5,2020.2.10,MacIntel,60,61025ae37ef11b136ea224fe,,,,,,,,,3908,-89.47613525,-33.90261841,1,0,0,response5disk,,2,-12.49853516,-9.224365234,1,0,0,rectangle,-88.52960205,-59.99404907,1,0,0,-6.978515625,-13.42456055,1,0,0,0,45,45,45,1,,response5disk_3,TRUE,2,2,"[42,153,69,141,33,155,59,248,267,15,33,157,97,46,264,271,74,293,52,198]",1.3,rectangle
,,,,,,,,,,,,,FF,,,,,,,,0.8829,,,,,,,,,,,,,,,,,,,,,,61008b3cfe1543cea836dcee,610378baa44862f47913e481,2021-07-29_23h58.19.775,Simcolourproject_2stim_asymm_v5,2020.2.10,MacIntel,60,61025ae37ef11b136ea224fe,,,,,,,,,373,-87.70721436,42.22460938,1,0,0,response7disk,,1,-7.653686523,8.831481934,1,0,0,rectangle,-7.653686523,8.831481934,1,0,0,-7.653686523,8.831481934,1,0,0,0,46,46,90,1,,,,,,,,
,,,,,,,,,,,,,FF,,,,,,,,1.9342,,,,,,,,,,,,,,,,,,,,,,61008b3cfe1543cea836dcee,610378baa44862f47913e481,2021-07-29_23h58.19.775,Simcolourproject_2stim_asymm_v5,2020.2.10,MacIntel,60,61025ae37ef11b136ea224fe,,,,,,,,,3419,-85.32836914,-34.69335938,1,0,0,response5disk,,2,1.015258789,-14.65838623,1,0,0,rectangle,1.015258789,-14.65838623,1,0,0,1.015258789,-14.65838623,1,0,0,0,47,47,137,1,,,,,,,,
,,,,,,,,,,,,,FF,,,,,,,,1.0003,,,,,,,,,,,,,,,,,,,,,,61008b3cfe1543cea836dcee,610378baa44862f47913e481,2021-07-29_23h58.19.775,Simcolourproject_2stim_asymm_v5,2020.2.10,MacIntel,60,61025ae37ef11b136ea224fe,,,,,,,,,282,-47.5458374,-83.13363647,1,0,0,response5disk,,3,12.24353027,5.285217285,1,0,0,rectangle,12.24353027,5.285217285,1,0,0,12.24353027,5.285217285,1,0,0,0,48,48,74,1,,,,,,,,
,,,,,,,,,,,,,FF,,,,,,,,2.3349,,,,,,,,,,,,,,,,,,,,,,61008b3cfe1543cea836dcee,610378baa44862f47913e481,2021-07-29_23h58.19.775,Simcolourproject_2stim_asymm_v5,2020.2.10,MacIntel,60,61025ae37ef11b136ea224fe,,,,,,,,,3895,19.75152588,72.4375,1,0,0,response1disk,,7,-0.785705566,-10.40124512,1,0,0,rectangle,-0.785705566,-10.40124512,1,0,0,-0.785705566,-10.40124512,1,0,0,0,49,49,72,1,,,,,,,,
,,,,,,,,,,,,,FF,,,,,,,,1.4172,,,,,,,,,,,,,,,,,,,,,,61008b3cfe1543cea836dcee,610378baa44862f47913e481,2021-07-29_23h58.19.775,Simcolourproject_2stim_asymm_v5,2020.2.10,MacIntel,60,61025ae37ef11b136ea224fe,,,,,,,,,4010,21.50036621,69.11981201,1,0,0,response1disk,,7,-1.526977539,4.190063477,1,0,0,rectangle,-1.526977539,4.190063477,1,0,0,-1.526977539,4.190063477,1,0,0,0,50,50,33,1,,,,,,,,
,,,,,,,,,,,,,FF,,,,,,,,1.9037,,,,,,,,,,,,,,,,,,,,,,61008b3cfe1543cea836dcee,610378baa44862f47913e481,2021-07-29_23h58.19.775,Simcolourproject_2stim_asymm_v5,2020.2.10,MacIntel,60,61025ae37ef11b136ea224fe,,,,,,,,,4315,55.50915527,102.1918335,1,0,0,response1disk,,7,14.84124756,9.874420166,1,0,0,rectangle,-40.18579102,76.27792358,1,0,0,-6.79119873,-10.89404297,1,0,0,0,51,51,5,1,,response7disk_3,TRUE,0,0,"[42,153,69,141,33,155,59,248,267,15,33,157,97,46,264,271,74,293,52,198]",1.3993,rectangle
,,,,,,,,,,,,,FF,,,,,,,,0.9342,,,,,,,,,,,,,,,,,,,,,,61008b3cfe1543cea836dcee,610378baa44862f47913e481,2021-07-29_23h58.19.775,Simcolourproject_2stim_asymm_v5,2020.2.10,MacIntel,60,61025ae37ef11b136ea224fe,,,,,,,,,1928,57.89239502,96.74401855,1,0,0,response1disk,,7,19.92285156,3.954956055,1,0,0,rectangle,19.92285156,3.954956055,1,0,0,19.92285156,3.954956055,1,0,0,0,52,52,158,1,,,,,,,,
,,,,,,,,,,,,,FF,,,,,,,,0.8481,,,,,,,,,,,,,,,,,,,,,,61008b3cfe1543cea836dcee,610378baa44862f47913e481,2021-07-29_23h58.19.775,Simcolourproject_2stim_asymm_v5,2020.2.10,MacIntel,60,61025ae37ef11b136ea224fe,,,,,,,,,3646,62.15374756,-38.6960144,1,0,0,response3disk,,5,0.016479492,4.689880371,1,0,0,rectangle,0.016479492,4.689880371,1,0,0,0.016479492,4.689880371,1,0,0,0,53,53,93,1,,,,,,,,
,,,,,,,,,,,,,FF,,,,,,,,1.0353,,,,,,,,,,,,,,,,,,,,,,61008b3cfe1543cea836dcee,610378baa44862f47913e481,2021-07-29_23h58.19.775,Simcolourproject_2stim_asymm_v5,2020.2.10,MacIntel,60,61025ae37ef11b136ea224fe,,,,,,,,,1535,-81.96246338,21.43844604,1,0,0,response7disk,,1,-10.08691406,-3.007354736,1,0,0,rectangle,-10.08691406,-3.007354736,1,0,0,-10.08691406,-3.007354736,1,0,0,0,54,54,61,1,,,,,,,,
,,,,,,,,,,,,,FF,,,,,,,,1.2484,,,,,,,,,,,,,,,,,,,,,,61008b3cfe1543cea836dcee,610378baa44862f47913e481,2021-07-29_23h58.19.775,Simcolourproject_2stim_asymm_v5,2020.2.10,MacIntel,60,61025ae37ef11b136ea224fe,,,,,,,,,1343,-39.59393311,-65.14932251,1,0,0,response5disk,,3,-22.24719238,0.161773682,1,0,0,rectangle,-22.24719238,0.161773682,1,0,0,-22.24719238,0.161773682,1,0,0,0,55,55,113,1,,,,,,,,
,,,,,,,,,,,,,FF,,,,,,,,1.9488,,,,,,,,,,,,,,,,,,,,,,61008b3cfe1543cea836dcee,610378baa44862f47913e481,2021-07-29_23h58.19.775,Simcolourproject_2stim_asymm_v5,2020.2.10,MacIntel,60,61025ae37ef11b136ea224fe,,,,,,,,,542,39.45495605,81.17724609,1,0,0,response1disk,,7,5.698730469,2.282470703,1,0,0,rectangle,5.698730469,2.282470703,1,0,0,5.698730469,2.282470703,1,0,0,0,56,56,12,1,,,,,,,,
,,,,,,,,,,,,,FF,,,,,,,,0.6148,,,,,,,,,,,,,,,,,,,,,,61008b3cfe1543cea836dcee,610378baa44862f47913e481,2021-07-29_23h58.19.775,Simcolourproject_2stim_asymm_v5,2020.2.10,MacIntel,60,61025ae37ef11b136ea224fe,,,,,,,,,1202,-47.22900391,101.4100952,1,0,0,response7disk,,0,-11.4987793,11.98696899,1,0,0,rectangle,-11.4987793,11.98696899,1,0,0,-11.4987793,11.98696899,1,0,0,0,57,57,26,1,,,,,,,,
,,,,,,,,,,,,,FF,,,,,,,,1.0821,,,,,,,,,,,,,,,,,,,,,,61008b3cfe1543cea836dcee,610378baa44862f47913e481,2021-07-29_23h58.19.775,Simcolourproject_2stim_asymm_v5,2020.2.10,MacIntel,60,61025ae37ef11b136ea224fe,,,,,,,,,1104,78.49316406,24.03396606,1,0,0,response1disk,,6,7.782836914,9.713684082,1,0,0,rectangle,-35.07037354,-89.57583618,1,0,0,-9.959106445,-2.964691162,1,0,0,0,58,58,42,1,,response5disk_3,TRUE,3,3,"[42,153,69,141,33,155,59,248,267,15,33,157,97,46,264,271,74,293,52,198]",1.587,rectangle
,,,,,,,,,,,,,FF,,,,,,,,2.1349,,,,,,,,,,,,,,,,,,,,,,61008b3cfe1543cea836dcee,610378baa44862f47913e481,2021-07-29_23h58.19.775,Simcolourproject_2stim_asymm_v5,2020.2.10,MacIntel,60,61025ae37ef11b136ea224fe,,,,,,,,,3040,35.04449463,-76.4921875,1,0,0,response3disk,,4,11.00927734,-2.77331543,1,0,0,rectangle,11.00927734,-2.77331543,1,0,0,11.00927734,-2.77331543,1,0,0,0,59,59,147,1,,,,,,,,
,,,,,,,,,,,,,FF,,,,,,,,1.4984,,,,,,,,,,,,,,,,,,,,,,61008b3cfe1543cea836dcee,610378baa44862f47913e481,2021-07-29_23h58.19.775,Simcolourproject_2stim_asymm_v5,2020.2.10,MacIntel,60,61025ae37ef11b136ea224fe,,,,,,,,,2826,-42.80834961,-80.06451416,1,0,0,response5disk,,3,-11.980896,-7.265808105,1,0,0,rectangle,-11.980896,-7.265808105,1,0,0,-11.980896,-7.265808105,1,0,0,0,60,60,10,1,,,,,,,,
,,,,,,,,,,,,,FF,,,,,,,,0.9978,,,,,,,,,,,,,,,,,,,,,,61008b3cfe1543cea836dcee,610378baa44862f47913e481,2021-07-29_23h58.19.775,Simcolourproject_2stim_asymm_v5,2020.2.10,MacIntel,60,61025ae37ef11b136ea224fe,,,,,,,,,3114,-28.40997314,-64.07830811,1,0,0,response5disk,,3,-7.162658691,8.623901367,1,0,0,rectangle,-7.162658691,8.623901367,1,0,0,-7.162658691,8.623901367,1,0,0,0,61,61,49,1,,,,,,,,
,,,,,,,,,,,,,FF,,,,,,,,0.932,,,,,,,,,,,,,,,,,,,,,,61008b3cfe1543cea836dcee,610378baa44862f47913e481,2021-07-29_23h58.19.775,Simcolourproject_2stim_asymm_v5,2020.2.10,MacIntel,60,61025ae37ef11b136ea224fe,,,,,,,,,556,-61.07995605,22.06802368,1,0,0,response7disk,,1,-0.530334473,-2.705871582,1,0,0,rectangle,-0.530334473,-2.705871582,1,0,0,-0.530334473,-2.705871582,1,0,0,0,62,62,157,1,,,,,,,,
,,,,,,,,,,,,,FF,,,,,,,,1.0492,,,,,,,,,,,,,,,,,,,,,,61008b3cfe1543cea836dcee,610378baa44862f47913e481,2021-07-29_23h58.19.775,Simcolourproject_2stim_asymm_v5,2020.2.10,MacIntel,60,61025ae37ef11b136ea224fe,,,,,,,,,1441,70.9432373,-29.68469238,1,0,0,response3disk,,5,-2.987854004,-3.973144531,1,0,0,rectangle,-2.987854004,-3.973144531,1,0,0,-2.987854004,-3.973144531,1,0,0,0,63,63,79,1,,,,,,,,
,,,,,,,,,,,,,FF,,,,,,,,0.8494,,,,,,,,,,,,,,,,,,,,,,61008b3cfe1543cea836dcee,610378baa44862f47913e481,2021-07-29_23h58.19.775,Simcolourproject_2stim_asymm_v5,2020.2.10,MacIntel,60,61025ae37ef11b136ea224fe,,,,,,,,,3958,23.43615723,71.94308472,1,0,0,response1disk,,7,4.02746582,5.150634766,1,0,0,rectangle,4.02746582,5.150634766,1,0,0,4.02746582,5.150634766,1,0,0,0,64,64,15,1,,,,,,,,
,,,,,,,,,,,,,FF,,,,,,,,0.9516,,,,,,,,,,,,,,,,,,,,,,61008b3cfe1543cea836dcee,610378baa44862f47913e481,2021-07-29_23h58.19.775,Simcolourproject_2stim_asymm_v5,2020.2.10,MacIntel,60,61025ae37ef11b136ea224fe,,,,,,,,,1710,23.00512695,67.33743286,1,0,0,response1disk,,7,-2.900390625,9.900970459,1,0,0,rectangle,-2.900390625,9.900970459,1,0,0,-2.900390625,9.900970459,1,0,0,0,65,65,60,1,,,,,,,,
,,,,,,,,,,,,,FF,,,,,,,,1.5501,,,,,,,,,,,,,,,,,,,,,,61008b3cfe1543cea836dcee,610378baa44862f47913e481,2021-07-29_23h58.19.775,Simcolourproject_2stim_asymm_v5,2020.2.10,MacIntel,60,61025ae37ef11b136ea224fe,,,,,,,,,2609,82.45550537,-29.52151489,1,0,0,response3disk,,5,13.31341553,8.982574463,1,0,0,rectangle,13.31341553,8.982574463,1,0,0,13.31341553,8.982574463,1,0,0,0,66,66,138,1,,,,,,,,
,,,,,,,,,,,,,FF,,,,,,,,0.9007,,,,,,,,,,,,,,,,,,,,,,61008b3cfe1543cea836dcee,610378baa44862f47913e481,2021-07-29_23h58.19.775,Simcolourproject_2stim_asymm_v5,2020.2.10,MacIntel,60,61025ae37ef11b136ea224fe,,,,,,,,,396,22.39501953,99.86117554,1,0,0,response1disk,,7,2.232666016,8.16583252,1,0,0,rectangle,2.232666016,8.16583252,1,0,0,2.232666016,8.16583252,1,0,0,0,67,67,91,1,,,,,,,,
,,,,,,,,,,,,,FF,,,,,,,,2.6193,,,,,,,,,,,,,,,,,,,,,,61008b3cfe1543cea836dcee,610378baa44862f47913e481,2021-07-29_23h58.19.775,Simcolourproject_2stim_asymm_v5,2020.2.10,MacIntel,60,61025ae37ef11b136ea224fe,,,,,,,,,1060,74.98010254,44.39535522,1,0,0,response1disk,,6,10.08325195,11.37017822,1,0,0,rectangle,-35.24353027,66.77148438,1,0,0,-11.91912842,0.704864502,1,0,0,0,68,68,136,1,,response7disk_3,TRUE,0,0,"[42,153,69,141,33,155,59,248,267,15,33,157,97,46,264,271,74,293,52,198]",1.4006,rectangle
,,,,,,,,,,,,,FF,,,,,,,,0.9661,,,,,,,,,,,,,,,,,,,,,,61008b3cfe1543cea836dcee,610378baa44862f47913e481,2021-07-29_23h58.19.775,Simcolourproject_2stim_asymm_v5,2020.2.10,MacIntel,60,61025ae37ef11b136ea224fe,,,,,,,,,47,54.07635498,94.72406006,1,0,0,response1disk,,7,1.183044434,12.48373413,1,0,0,rectangle,1.183044434,12.48373413,1,0,0,1.183044434,12.48373413,1,0,0,0,69,69,130,1,,,,,,,,
,,,,,,,,,,,,,FF,,,,,,,,1.2341,,,,,,,,,,,,,,,,,,,,,,61008b3cfe1543cea836dcee,610378baa44862f47913e481,2021-07-29_23h58.19.775,Simcolourproject_2stim_asymm_v5,2020.2.10,MacIntel,60,61025ae37ef11b136ea224fe,,,,,,,,,3319,35.45440674,86.86434937,1,0,0,response1disk,,7,2.288146973,1.16986084,1,0,0,rectangle,2.288146973,1.16986084,1,0,0,2.288146973,1.16986084,1,0,0,0,70,70,51,1,,,,,,,,
,,,,,,,,,,,,,FF,,,,,,,,2.117,,,,,,,,,,,,,,,,,,,,,,61008b3cfe1543cea836dcee,610378baa44862f47913e481,2021-07-29_23h58.19.775,Simcolourproject_2stim_asymm_v5,2020.2.10,MacIntel,60,61025ae37ef11b136ea224fe,,,,,,,,,1151,48.2175293,-89.19567871,1,0,0,response3disk,,4,3.570800781,-9.626525879,1,0,0,rectangle,3.570800781,-9.626525879,1,0,0,3.570800781,-9.626525879,1,0,0,0,71,71,142,1,,,,,,,,
,,,,,,,,,,,,,FF,,,,,,,,1.1201,,,,,,,,,,,,,,,,,,,,,,61008b3cfe1543cea836dcee,610378baa44862f47913e481,2021-07-29_23h58.19.775,Simcolourproject_2stim_asymm_v5,2020.2.10,MacIntel,60,61025ae37ef11b136ea224fe,,,,,,,,,3625,-45.0614624,-56.94146729,1,0,0,response5disk,,3,8.28302002,3.076629639,1,0,0,rectangle,8.28302002,3.076629639,1,0,0,8.28302002,3.076629639,1,0,0,0,72,72,102,1,,,,,,,,
,,,,,,,,,,,,,FF,,,,,,,,1.0006,,,,,,,,,,,,,,,,,,,,,,61008b3cfe1543cea836dcee,610378baa44862f47913e481,2021-07-29_23h58.19.775,Simcolourproject_2stim_asymm_v5,2020.2.10,MacIntel,60,61025ae37ef11b136ea224fe,,,,,,,,,2976,43.52392578,74.85403442,1,0,0,response1disk,,7,16.40393066,-3.521972656,1,0,0,rectangle,-29.35577393,91.11495972,1,0,0,-29.35577393,2.412689209,1,0,0,0,73,73,114,1,,response7disk_3,TRUE,0,0,"[42,153,69,141,33,155,59,248,267,15,33,157,97,46,264,271,74,293,52,198]",1.3139,rectangle
,,,,,,,,,,,,,FF,,,,,,,,0.7667,,,,,,,,,,,,,,,,,,,,,,61008b3cfe1543cea836dcee,610378baa44862f47913e481,2021-07-29_23h58.19.775,Simcolourproject_2stim_asymm_v5,2020.2.10,MacIntel,60,61025ae37ef11b136ea224fe,,,,,,,,,357,27.65063477,85.51034546,1,0,0,response1disk,,7,0.852478027,-1.072662354,1,0,0,rectangle,0.852478027,-1.072662354,1,0,0,0.852478027,-1.072662354,1,0,0,0,74,74,7,1,,,,,,,,
,,,,,,,,,,,,,FF,,,,,,,,1.6853,,,,,,,,,,,,,,,,,,,,,,61008b3cfe1543cea836dcee,610378baa44862f47913e481,2021-07-29_23h58.19.775,Simcolourproject_2stim_asymm_v5,2020.2.10,MacIntel,60,61025ae37ef11b136ea224fe,,,,,,,,,2593,79.73376465,-38.08987427,1,0,0,response3disk,,5,8.503112793,-7.982391357,1,0,0,rectangle,8.503112793,-7.982391357,1,0,0,8.503112793,-7.982391357,1,0,0,0,75,75,85,1,,,,,,,,
,,,,,,,,,,,,,FF,,,,,,,,0.832,,,,,,,,,,,,,,,,,,,,,,61008b3cfe1543cea836dcee,610378baa44862f47913e481,2021-07-29_23h58.19.775,Simcolourproject_2stim_asymm_v5,2020.2.10,MacIntel,60,61025ae37ef11b136ea224fe,,,,,,,,,1387,29.56884766,88.1468811,1,0,0,response1disk,,7,10.18389893,8.488006592,1,0,0,rectangle,10.18389893,8.488006592,1,0,0,10.18389893,8.488006592,1,0,0,0,76,76,24,1,,,,,,,,
,,,,,,,,,,,,,FF,,,,,,,,0.9675,,,,,,,,,,,,,,,,,,,,,,61008b3cfe1543cea836dcee,610378baa44862f47913e481,2021-07-29_23h58.19.775,Simcolourproject_2stim_asymm_v5,2020.2.10,MacIntel,60,61025ae37ef11b136ea224fe,,,,,,,,,3661,-73.87225342,-23.32940674,1,0,0,response5disk,,2,20.75671387,5.935882568,1,0,0,rectangle,20.75671387,5.935882568,1,0,0,20.75671387,5.935882568,1,0,0,0,77,77,98,1,,,,,,,,
,,,,,,,,,,,,,FF,,,,,,,,1.333,,,,,,,,,,,,,,,,,,,,,,61008b3cfe1543cea836dcee,610378baa44862f47913e481,2021-07-29_23h58.19.775,Simcolourproject_2stim_asymm_v5,2020.2.10,MacIntel,60,61025ae37ef11b136ea224fe,,,,,,,,,2602,-47.30328369,-84.97952271,1,0,0,response5disk,,3,-18.29992676,6.845184326,1,0,0,rectangle,-18.29992676,6.845184326,1,0,0,-18.29992676,6.845184326,1,0,0,0,78,78,58,1,,,,,,,,
,,,,,,,,,,,,,FF,,,,,,,,0.9357,,,,,,,,,,,,,,,,,,,,,,61008b3cfe1543cea836dcee,610378baa44862f47913e481,2021-07-29_23h58.19.775,Simcolourproject_2stim_asymm_v5,2020.2.10,MacIntel,60,61025ae37ef11b136ea224fe,,,,,,,,,2832,-47.20635986,-97.28466797,1,0,0,response5disk,,3,5.764953613,-6.603607178,1,0,0,rectangle,5.764953613,-6.603607178,1,0,0,5.764953613,-6.603607178,1,0,0,0,79,79,118,1,,,,,,,,
,,,,,,,,,,,,,FF,,,,,,,,0.8699,,,,,,,,,,,,,,,,,,,,,,61008b3cfe1543cea836dcee,610378baa44862f47913e481,2021-07-29_23h58.19.775,Simcolourproject_2stim_asymm_v5,2020.2.10,MacIntel,60,61025ae37ef11b136ea224fe,,,,,,,,,2201,59.65240479,-33.47106934,1,0,0,response3disk,,5,5.934936523,5.74017334,1,0,0,rectangle,5.934936523,5.74017334,1,0,0,5.934936523,5.74017334,1,0,0,0,80,80,95,1,,,,,,,,
,,,,,,,,,,,,,FF,,,,,,,,1.431,,,,,,,,,,,,,,,,,,,,,,61008b3cfe1543cea836dcee,610378baa44862f47913e481,2021-07-29_23h58.19.775,Simcolourproject_2stim_asymm_v5,2020.2.10,MacIntel,60,61025ae37ef11b136ea224fe,,,,,,,,,1371,-79.1918335,50.6335144,1,0,0,response7disk,,1,2.536315918,-2.590148926,1,0,0,rectangle,2.536315918,-2.590148926,1,0,0,2.536315918,-2.590148926,1,0,0,0,81,81,9,1,,,,,,,,
,,,,,,,,,,,,,FF,,,,,,,,0.7326,,,,,,,,,,,,,,,,,,,,,,61008b3cfe1543cea836dcee,610378baa44862f47913e481,2021-07-29_23h58.19.775,Simcolourproject_2stim_asymm_v5,2020.2.10,MacIntel,60,61025ae37ef11b136ea224fe,,,,,,,,,2806,40.9899292,66.73498535,1,0,0,response1disk,,7,5.703735352,6.17678833,1,0,0,rectangle,5.703735352,6.17678833,1,0,0,5.703735352,6.17678833,1,0,0,0,82,82,46,1,,,,,,,,
,,,,,,,,,,,,,FF,,,,,,,,0.5504,,,,,,,,,,,,,,,,,,,,,,61008b3cfe1543cea836dcee,610378baa44862f47913e481,2021-07-29_23h58.19.775,Simcolourproject_2stim_asymm_v5,2020.2.10,MacIntel,60,61025ae37ef11b136ea224fe,,,,,,,,,914,32.0324707,68.42120361,1,0,0,response1disk,,7,7.915100098,8.787780762,1,0,0,rectangle,7.915100098,8.787780762,1,0,0,7.915100098,8.787780762,1,0,0,0,83,83,132,1,,,,,,,,
,,,,,,,,,,,,,FF,,,,,,,,0.5315,,,,,,,,,,,,,,,,,,,,,,61008b3cfe1543cea836dcee,610378baa44862f47913e481,2021-07-29_23h58.19.775,Simcolourproject_2stim_asymm_v5,2020.2.10,MacIntel,60,61025ae37ef11b136ea224fe,,,,,,,,,182,42.68640137,51.98608398,1,0,0,response1disk,,7,9.279296875,2.067047119,1,0,0,rectangle,9.279296875,2.067047119,1,0,0,9.279296875,2.067047119,1,0,0,0,84,84,29,1,,,,,,,,
,,,,,,,,,,,,,FF,,,,,,,,0.5007,,,,,,,,,,,,,,,,,,,,,,61008b3cfe1543cea836dcee,610378baa44862f47913e481,2021-07-29_23h58.19.775,Simcolourproject_2stim_asymm_v5,2020.2.10,MacIntel,60,61025ae37ef11b136ea224fe,,,,,,,,,2353,48.80975342,103.0426636,1,0,0,response1disk,,7,2.787963867,0.545715332,1,0,0,rectangle,2.787963867,0.545715332,1,0,0,2.787963867,0.545715332,1,0,0,0,85,85,96,1,,,,,,,,
,,,,,,,,,,,,,FF,,,,,,,,0.5173,,,,,,,,,,,,,,,,,,,,,,61008b3cfe1543cea836dcee,610378baa44862f47913e481,2021-07-29_23h58.19.775,Simcolourproject_2stim_asymm_v5,2020.2.10,MacIntel,60,61025ae37ef11b136ea224fe,,,,,,,,,838,25.940979,69.22991943,1,0,0,response1disk,,7,-1.235961914,-4.880523682,1,0,0,rectangle,-1.235961914,-4.880523682,1,0,0,-1.235961914,-4.880523682,1,0,0,0,86,86,77,1,,,,,,,,
,,,,,,,,,,,,,FF,,,,,,,,0.701,,,,,,,,,,,,,,,,,,,,,,61008b3cfe1543cea836dcee,610378baa44862f47913e481,2021-07-29_23h58.19.775,Simcolourproject_2stim_asymm_v5,2020.2.10,MacIntel,60,61025ae37ef11b136ea224fe,,,,,,,,,2053,36.35614014,72.09896851,1,0,0,response1disk,,7,10.84570313,11.37786865,1,0,0,rectangle,10.84570313,11.37786865,1,0,0,10.84570313,11.37786865,1,0,0,0,87,87,108,1,,,,,,,,
,,,,,,,,,,,,,FF,,,,,,,,0.7492,,,,,,,,,,,,,,,,,,,,,,61008b3cfe1543cea836dcee,610378baa44862f47913e481,2021-07-29_23h58.19.775,Simcolourproject_2stim_asymm_v5,2020.2.10,MacIntel,60,61025ae37ef11b136ea224fe,,,,,,,,,2887,-76.05389404,37.23394775,1,0,0,response7disk,,1,10.90661621,5.80947876,1,0,0,rectangle,10.90661621,5.80947876,1,0,0,10.90661621,5.80947876,1,0,0,0,88,88,31,1,,,,,,,,
,,,,,,,,,,,,,FF,,,,,,,,0.5299,,,,,,,,,,,,,,,,,,,,,,61008b3cfe1543cea836dcee,610378baa44862f47913e481,2021-07-29_23h58.19.775,Simcolourproject_2stim_asymm_v5,2020.2.10,MacIntel,60,61025ae37ef11b136ea224fe,,,,,,,,,2933,-62.65734863,38.02590942,1,0,0,response7disk,,1,-9.742126465,-6.571990967,1,0,0,rectangle,-9.742126465,-6.571990967,1,0,0,-9.742126465,-6.571990967,1,0,0,0,89,89,8,1,,,,,,,,
,,,,,,,,,,,,,FF,,,,,,,,1.2167,,,,,,,,,,,,,,,,,,,,,,61008b3cfe1543cea836dcee,610378baa44862f47913e481,2021-07-29_23h58.19.775,Simcolourproject_2stim_asymm_v5,2020.2.10,MacIntel,60,61025ae37ef11b136ea224fe,,,,,,,,,1235,80.75970459,43.95123291,1,0,0,response1disk,,6,15.29663086,15.78213501,1,0,0,rectangle,15.29663086,15.78213501,1,0,0,15.29663086,15.78213501,1,0,0,0,90,90,140,1,,,,,,,,
,,,,,,,,,,,,,FF,,,,,,,,0.8339,,,,,,,,,,,,,,,,,,,,,,61008b3cfe1543cea836dcee,610378baa44862f47913e481,2021-07-29_23h58.19.775,Simcolourproject_2stim_asymm_v5,2020.2.10,MacIntel,60,61025ae37ef11b136ea224fe,,,,,,,,,404,27.67053223,76.70150757,1,0,0,response1disk,,7,6.974609375,14.88912964,1,0,0,rectangle,6.974609375,14.88912964,1,0,0,6.974609375,14.88912964,1,0,0,0,91,91,62,1,,,,,,,,
,,,,,,,,,,,,,FF,,,,,,,,0.5833,,,,,,,,,,,,,,,,,,,,,,61008b3cfe1543cea836dcee,610378baa44862f47913e481,2021-07-29_23h58.19.775,Simcolourproject_2stim_asymm_v5,2020.2.10,MacIntel,60,61025ae37ef11b136ea224fe,,,,,,,,,454,30.17529297,69.11959839,1,0,0,response1disk,,7,10.37799072,8.6980896,1,0,0,rectangle,10.37799072,8.6980896,1,0,0,10.37799072,8.6980896,1,0,0,0,92,92,84,1,,,,,,,,
,,,,,,,,,,,,,FF,,,,,,,,0.617,,,,,,,,,,,,,,,,,,,,,,61008b3cfe1543cea836dcee,610378baa44862f47913e481,2021-07-29_23h58.19.775,Simcolourproject_2stim_asymm_v5,2020.2.10,MacIntel,60,61025ae37ef11b136ea224fe,,,,,,,,,3222,31.21569824,71.03289795,1,0,0,response1disk,,7,18.23406982,-9.70513916,1,0,0,rectangle,18.23406982,-9.70513916,1,0,0,18.23406982,-9.70513916,1,0,0,0,93,93,65,1,,,,,,,,
,,,,,,,,,,,,,FF,,,,,,,,0.6325,,,,,,,,,,,,,,,,,,,,,,61008b3cfe1543cea836dcee,610378baa44862f47913e481,2021-07-29_23h58.19.775,Simcolourproject_2stim_asymm_v5,2020.2.10,MacIntel,60,61025ae37ef11b136ea224fe,,,,,,,,,2903,35.43908691,84.33782959,1,0,0,response1disk,,7,14.47094727,-1.13760376,1,0,0,rectangle,14.47094727,-1.13760376,1,0,0,14.47094727,-1.13760376,1,0,0,0,94,94,16,1,,,,,,,,
,,,,,,,,,,,,,FF,,,,,,,,0.9538,,,,,,,,,,,,,,,,,,,,,,61008b3cfe1543cea836dcee,610378baa44862f47913e481,2021-07-29_23h58.19.775,Simcolourproject_2stim_asymm_v5,2020.2.10,MacIntel,60,61025ae37ef11b136ea224fe,,,,,,,,,81,-54.65490723,-77.77819824,1,0,0,response5disk,,3,-16.52832031,-14.12887573,1,0,0,rectangle,-16.52832031,-14.12887573,1,0,0,-16.52832031,-14.12887573,1,0,0,0,95,95,23,1,,,,,,,,
,,,,,,,,,,,,,FF,,,,,,,,1.0504,,,,,,,,,,,,,,,,,,,,,,61008b3cfe1543cea836dcee,610378baa44862f47913e481,2021-07-29_23h58.19.775,Simcolourproject_2stim_asymm_v5,2020.2.10,MacIntel,60,61025ae37ef11b136ea224fe,,,,,,,,,2286,-72.69384766,41.13201904,1,0,0,response7disk,,1,13.46533203,6.715179443,1,0,0,rectangle,60.16967773,-52.5038147,1,0,0,-0.074829102,4.0418396,1,0,0,0,96,96,125,1,,response3disk_3,TRUE,5,5,"[42,153,69,141,33,155,59,248,267,15,33,157,97,46,264,271,74,293,52,198]",1.4372,rectangle
,,,,,,,,,,,,,FF,,,,,,,,0.9865,,,,,,,,,,,,,,,,,,,,,,61008b3cfe1543cea836dcee,610378baa44862f47913e481,2021-07-29_23h58.19.775,Simcolourproject_2stim_asymm_v5,2020.2.10,MacIntel,60,61025ae37ef11b136ea224fe,,,,,,,,,3039,-50.9934082,-86.434021,1,0,0,response5disk,,3,-2.323852539,-5.285430908,1,0,0,rectangle,-2.323852539,-5.285430908,1,0,0,-2.323852539,-5.285430908,1,0,0,0,97,97,106,1,,,,,,,,
,,,,,,,,,,,,,FF,,,,,,,,0.9005,,,,,,,,,,,,,,,,,,,,,,61008b3cfe1543cea836dcee,610378baa44862f47913e481,2021-07-29_23h58.19.775,Simcolourproject_2stim_asymm_v5,2020.2.10,MacIntel,60,61025ae37ef11b136ea224fe,,,,,,,,,2941,-57.64776611,-26.01446533,1,0,0,response5disk,,2,-0.035949707,1.115692139,1,0,0,rectangle,-0.035949707,1.115692139,1,0,0,-0.035949707,1.115692139,1,0,0,0,98,98,148,1,,,,,,,,
,,,,,,,,,,,,,FF,,,,,,,,0.9681,,,,,,,,,,,,,,,,,,,,,,61008b3cfe1543cea836dcee,610378baa44862f47913e481,2021-07-29_23h58.19.775,Simcolourproject_2stim_asymm_v5,2020.2.10,MacIntel,60,61025ae37ef11b136ea224fe,,,,,,,,,1967,-43.68981934,-65.84796143,1,0,0,response5disk,,3,2.76739502,5.206939697,1,0,0,rectangle,2.76739502,5.206939697,1,0,0,2.76739502,5.206939697,1,0,0,0,99,99,123,1,,,,,,,,
,,,,,,,,,,,,,FF,,,,,,,,3.4187,,,,,,,,,,,,,,,,,,,,,,61008b3cfe1543cea836dcee,610378baa44862f47913e481,2021-07-29_23h58.19.775,Simcolourproject_2stim_asymm_v5,2020.2.10,MacIntel,60,61025ae37ef11b136ea224fe,,,,,,,,,1242,20.27941895,-69.89950562,1,0,0,response3disk,,4,3.398071289,2.911132813,1,0,0,rectangle,3.398071289,2.911132813,1,0,0,3.398071289,2.911132813,1,0,0,0,100,100,88,1,,,,,,,,
,,,,,,,,,,,,,FF,,,,,,,,0.8658,,,,,,,,,,,,,,,,,,,,,,61008b3cfe1543cea836dcee,610378baa44862f47913e481,2021-07-29_23h58.19.775,Simcolourproject_2stim_asymm_v5,2020.2.10,MacIntel,60,61025ae37ef11b136ea224fe,,,,,,,,,2384,44.80072021,80.10095215,1,0,0,response1disk,,7,3.966552734,2.680541992,1,0,0,rectangle,3.966552734,2.680541992,1,0,0,3.966552734,2.680541992,1,0,0,0,101,101,87,1,,,,,,,,
,,,,,,,,,,,,,FF,,,,,,,,1.2527,,,,,,,,,,,,,,,,,,,,,,61008b3cfe1543cea836dcee,610378baa44862f47913e481,2021-07-29_23h58.19.775,Simcolourproject_2stim_asymm_v5,2020.2.10,MacIntel,60,61025ae37ef11b136ea224fe,,,,,,,,,4000,-74.621521,-34.77960205,1,0,0,response5disk,,2,10.89813232,8.374603271,1,0,0,rectangle,10.89813232,8.374603271,1,0,0,10.89813232,8.374603271,1,0,0,0,102,102,18,1,,,,,,,,
,,,,,,,,,,,,,FF,,,,,,,,1.6898,,,,,,,,,,,,,,,,,,,,,,61008b3cfe1543cea836dcee,610378baa44862f47913e481,2021-07-29_23h58.19.775,Simcolourproject_2stim_asymm_v5,2020.2.10,MacIntel,60,61025ae37ef11b136ea224fe,,,,,,,,,3602,-35.39746094,-87.10009766,1,0,0,response5disk,,3,14.87213135,1.264556885,1,0,0,rectangle,14.87213135,1.264556885,1,0,0,14.87213135,1.264556885,1,0,0,0,103,103,153,1,,,,,,,,
,,,,,,,,,,,,,FF,,,,,,,,1.0987,,,,,,,,,,,,,,,,,,,,,,61008b3cfe1543cea836dcee,610378baa44862f47913e481,2021-07-29_23h58.19.775,Simcolourproject_2stim_asymm_v5,2020.2.10,MacIntel,60,61025ae37ef11b136ea224fe,,,,,,,,,2642,43.29766846,-75.34658813,1,0,0,response3disk,,4,9.74810791,-2.641693115,1,0,0,rectangle,9.74810791,-2.641693115,1,0,0,9.74810791,-2.641693115,1,0,0,0,104,104,159,1,,,,,,,,
,,,,,,,,,,,,,FF,,,,,,,,1.4526,,,,,,,,,,,,,,,,,,,,,,61008b3cfe1543cea836dcee,610378baa44862f47913e481,2021-07-29_23h58.19.775,Simcolourproject_2stim_asymm_v5,2020.2.10,MacIntel,60,61025ae37ef11b136ea224fe,,,,,,,,,2904,42.52130127,75.84124756,1,0,0,response1disk,,7,8.775024414,0.431030273,1,0,0,rectangle,8.775024414,0.431030273,1,0,0,8.775024414,0.431030273,1,0,0,0,105,105,92,1,,,,,,,,
,,,,,,,,,,,,,FF,,,,,,,,1.0835,,,,,,,,,,,,,,,,,,,,,,61008b3cfe1543cea836dcee,610378baa44862f47913e481,2021-07-29_23h58.19.775,Simcolourproject_2stim_asymm_v5,2020.2.10,MacIntel,60,61025ae37ef11b136ea224fe,,,,,,,,,463,-30.71368408,-61.54333496,1,0,0,response5disk,,3,9.195556641,12.00485229,1,0,0,rectangle,9.195556641,12.00485229,1,0,0,9.195556641,12.00485229,1,0,0,0,106,106,57,1,,,,,,,,
,,,,,,,,,,,,,FF,,,,,,,,0.6412,,,,,,,,,,,,,,,,,,,,,,61008b3cfe1543cea836dcee,610378baa44862f47913e481,2021-07-29_23h58.19.775,Simcolourproject_2stim_asymm_v5,2020.2.10,MacIntel,60,61025ae37ef11b136ea224fe,,,,,,,,,3701,27.6003418,69.39025879,1,0,0,response1disk,,7,6.737304688,-13.4637146,1,0,0,rectangle,6.737304688,-13.4637146,1,0,0,6.737304688,-13.4637146,1,0,0,0,107,107,117,1,,,,,,,,
,,,,,,,,,,,,,FF,,,,,,,,0.6187,,,,,,,,,,,,,,,,,,,,,,61008b3cfe1543cea836dcee,610378baa44862f47913e481,2021-07-29_23h58.19.775,Simcolourproject_2stim_asymm_v5,2020.2.10,MacIntel,60,61025ae37ef11b136ea224fe,,,,,,,,,4056,23.48931885,70.6802063,1,0,0,response1disk,,7,0.320800781,-6.681854248,1,0,0,rectangle,0.320800781,-6.681854248,1,0,0,0.320800781,-6.681854248,1,0,0,0,108,108,54,1,,,,,,,,
,,,,,,,,,,,,,FF,,,,,,,,0.665,,,,,,,,,,,,,,,,,,,,,,61008b3cfe1543cea836dcee,610378baa44862f47913e481,2021-07-29_23h58.19.775,Simcolourproject_2stim_asymm_v5,2020.2.10,MacIntel,60,61025ae37ef11b136ea224fe,,,,,,,,,3720,25.4810791,56.96640015,1,0,0,response1disk,,7,-7.918579102,-1.579528809,1,0,0,rectangle,-7.918579102,-1.579528809,1,0,0,-7.918579102,-1.579528809,1,0,0,0,109,109,105,1,,,,,,,,
,,,,,,,,,,,,,FF,,,,,,,,1.4826,,,,,,,,,,,,,,,,,,,,,,61008b3cfe1543cea836dcee,610378baa44862f47913e481,2021-07-29_23h58.19.775,Simcolourproject_2stim_asymm_v5,2020.2.10,MacIntel,60,61025ae37ef11b136ea224fe,,,,,,,,,563,-48.42102051,-87.62213135,1,0,0,response5disk,,3,-8.897521973,-9.242828369,1,0,0,rectangle,-8.897521973,-9.242828369,1,0,0,-8.897521973,-9.242828369,1,0,0,0,110,110,59,1,,,,,,,,
,,,,,,,,,,,,,FF,,,,,,,,1.6688,,,,,,,,,,,,,,,,,,,,,,61008b3cfe1543cea836dcee,610378baa44862f47913e481,2021-07-29_23h58.19.775,Simcolourproject_2stim_asymm_v5,2020.2.10,MacIntel,60,61025ae37ef11b136ea224fe,,,,,,,,,1273,63.3862915,19.92327881,1,0,0,response1disk,,6,15.85168457,-2.388580322,1,0,0,rectangle,15.85168457,-2.388580322,1,0,0,15.85168457,-2.388580322,1,0,0,0,111,111,4,1,,,,,,,,
,,,,,,,,,,,,,FF,,,,,,,,1.0006,,,,,,,,,,,,,,,,,,,,,,61008b3cfe1543cea836dcee,610378baa44862f47913e481,2021-07-29_23h58.19.775,Simcolourproject_2stim_asymm_v5,2020.2.10,MacIntel,60,61025ae37ef11b136ea224fe,,,,,,,,,2568,87.04559326,41.52062988,1,0,0,response1disk,,6,21.07165527,11.81240845,1,0,0,rectangle,21.07165527,11.81240845,1,0,0,21.07165527,11.81240845,1,0,0,0,112,112,128,1,,,,,,,,
,,,,,,,,,,,,,FF,,,,,,,,0.9841,,,,,,,,,,,,,,,,,,,,,,61008b3cfe1543cea836dcee,610378baa44862f47913e481,2021-07-29_23h58.19.775,Simcolourproject_2stim_asymm_v5,2020.2.10,MacIntel,60,61025ae37ef11b136ea224fe,,,,,,,,,3467,35.50268555,75.11141968,1,0,0,response1disk,,7,-2.762329102,5.141967773,1,0,0,rectangle,-2.762329102,5.141967773,1,0,0,-2.762329102,5.141967773,1,0,0,0,113,113,82,1,,,,,,,,
,,,,,,,,,,,,,FF,,,,,,,,0.6668,,,,,,,,,,,,,,,,,,,,,,61008b3cfe1543cea836dcee,610378baa44862f47913e481,2021-07-29_23h58.19.775,Simcolourproject_2stim_asymm_v5,2020.2.10,MacIntel,60,61025ae37ef11b136ea224fe,,,,,,,,,3402,41.7454834,86.77371216,1,0,0,response1disk,,7,-5.303222656,-8.643493652,1,0,0,rectangle,-5.303222656,-8.643493652,1,0,0,-5.303222656,-8.643493652,1,0,0,0,114,114,144,1,,,,,,,,
,,,,,,,,,,,,,FF,,,,,,,,0.8185,,,,,,,,,,,,,,,,,,,,,,61008b3cfe1543cea836dcee,610378baa44862f47913e481,2021-07-29_23h58.19.775,Simcolourproject_2stim_asymm_v5,2020.2.10,MacIntel,60,61025ae37ef11b136ea224fe,,,,,,,,,680,36.78222656,73.20788574,1,0,0,response1disk,,7,2.641845703,6.950683594,1,0,0,rectangle,2.641845703,6.950683594,1,0,0,2.641845703,6.950683594,1,0,0,0,115,115,86,1,,,,,,,,
,,,,,,,,,,,,,FF,,,,,,,,0.4349,,,,,,,,,,,,,,,,,,,,,,61008b3cfe1543cea836dcee,610378baa44862f47913e481,2021-07-29_23h58.19.775,Simcolourproject_2stim_asymm_v5,2020.2.10,MacIntel,60,61025ae37ef11b136ea224fe,,,,,,,,,2977,15.30725098,65.76895142,1,0,0,response1disk,,7,6.407592773,6.547393799,1,0,0,rectangle,6.407592773,6.547393799,1,0,0,6.407592773,6.547393799,1,0,0,0,116,116,56,1,,,,,,,,
,,,,,,,,,,,,,FF,,,,,,,,0.5669,,,,,,,,,,,,,,,,,,,,,,61008b3cfe1543cea836dcee,610378baa44862f47913e481,2021-07-29_23h58.19.775,Simcolourproject_2stim_asymm_v5,2020.2.10,MacIntel,60,61025ae37ef11b136ea224fe,,,,,,,,,768,43.42437744,72.99029541,1,0,0,response1disk,,7,13.49237061,7.242736816,1,0,0,rectangle,13.49237061,7.242736816,1,0,0,13.49237061,7.242736816,1,0,0,0,117,117,124,1,,,,,,,,
,,,,,,,,,,,,,FF,,,,,,,,1.0873,,,,,,,,,,,,,,,,,,,,,,61008b3cfe1543cea836dcee,610378baa44862f47913e481,2021-07-29_23h58.19.775,Simcolourproject_2stim_asymm_v5,2020.2.10,MacIntel,60,61025ae37ef11b136ea224fe,,,,,,,,,1043,35.94561768,75.5958252,1,0,0,response1disk,,7,4.277770996,-1.168762207,1,0,0,rectangle,4.277770996,-1.168762207,1,0,0,4.277770996,-1.168762207,1,0,0,0,118,118,149,1,,,,,,,,
,,,,,,,,,,,,,FF,,,,,,,,0.5171,,,,,,,,,,,,,,,,,,,,,,61008b3cfe1543cea836dcee,610378baa44862f47913e481,2021-07-29_23h58.19.775,Simcolourproject_2stim_asymm_v5,2020.2.10,MacIntel,60,61025ae37ef11b136ea224fe,,,,,,,,,3289,38.50366211,68.90246582,1,0,0,response1disk,,7,9.121398926,-1.278167725,1,0,0,rectangle,9.121398926,-1.278167725,1,0,0,9.121398926,-1.278167725,1,0,0,0,119,119,68,1,,,,,,,,
,,,,,,,,,,,,,FF,,,,,,,,1.3827,,,,,,,,,,,,,,,,,,,,,,61008b3cfe1543cea836dcee,610378baa44862f47913e481,2021-07-29_23h58.19.775,Simcolourproject_2stim_asymm_v5,2020.2.10,MacIntel,60,61025ae37ef11b136ea224fe,,,,,,,,,3417,27.19512939,75.375,1,0,0,response1disk,,7,-0.08013916,15.69564819,1,0,0,rectangle,-0.08013916,15.69564819,1,0,0,-0.08013916,15.69564819,1,0,0,0,120,120,30,1,,,,,,,,
,,,,,,,,,,,,,FF,,,,,,,,0.7798,,,,,,,,,,,,,,,,,,,,,,61008b3cfe1543cea836dcee,610378baa44862f47913e481,2021-07-29_23h58.19.775,Simcolourproject_2stim_asymm_v5,2020.2.10,MacIntel,60,61025ae37ef11b136ea224fe,,,,,,,,,3806,45.29522705,77.43167114,1,0,0,response1disk,,7,5.77532959,4.186126709,1,0,0,rectangle,5.77532959,4.186126709,1,0,0,5.77532959,4.186126709,1,0,0,0,121,121,6,1,,,,,,,,
,,,,,,,,,,,,,FF,,,,,,,,0.6345,,,,,,,,,,,,,,,,,,,,,,61008b3cfe1543cea836dcee,610378baa44862f47913e481,2021-07-29_23h58.19.775,Simcolourproject_2stim_asymm_v5,2020.2.10,MacIntel,60,61025ae37ef11b136ea224fe,,,,,,,,,2682,23.41552734,84.0227356,1,0,0,response1disk,,7,-8.772033691,7.936553955,1,0,0,rectangle,-8.772033691,7.936553955,1,0,0,-8.772033691,7.936553955,1,0,0,0,122,122,120,1,,,,,,,,
,,,,,,,,,,,,,FF,,,,,,,,0.8647,,,,,,,,,,,,,,,,,,,,,,61008b3cfe1543cea836dcee,610378baa44862f47913e481,2021-07-29_23h58.19.775,Simcolourproject_2stim_asymm_v5,2020.2.10,MacIntel,60,61025ae37ef11b136ea224fe,,,,,,,,,4183,-85.12103271,37.94470215,1,0,0,response7disk,,1,-7.269042969,12.78662109,1,0,0,rectangle,-7.269042969,12.78662109,1,0,0,-7.269042969,12.78662109,1,0,0,0,123,123,80,1,,,,,,,,
,,,,,,,,,,,,,FF,,,,,,,,0.8329,,,,,,,,,,,,,,,,,,,,,,61008b3cfe1543cea836dcee,610378baa44862f47913e481,2021-07-29_23h58.19.775,Simcolourproject_2stim_asymm_v5,2020.2.10,MacIntel,60,61025ae37ef11b136ea224fe,,,,,,,,,4313,15.38354492,42.52880859,1,0,0,response1disk,,7,-3.360839844,-3.739868164,1,0,0,rectangle,-3.360839844,-3.739868164,1,0,0,-3.360839844,-3.739868164,1,0,0,0,124,124,134,1,,,,,,,,
,,,,,,,,,,,,,FF,,,,,,,,0.615,,,,,,,,,,,,,,,,,,,,,,61008b3cfe1543cea836dcee,610378baa44862f47913e481,2021-07-29_23h58.19.775,Simcolourproject_2stim_asymm_v5,2020.2.10,MacIntel,60,61025ae37ef11b136ea224fe,,,,,,,,,2018,21.45898438,55.88497925,1,0,0,response1disk,,7,0.712646484,-10.00158691,1,0,0,rectangle,0.712646484,-10.00158691,1,0,0,0.712646484,-10.00158691,1,0,0,0,125,125,67,1,,,,,,,,
,,,,,,,,,,,,,FF,,,,,,,,0.6518,,,,,,,,,,,,,,,,,,,,,,61008b3cfe1543cea836dcee,610378baa44862f47913e481,2021-07-29_23h58.19.775,Simcolourproject_2stim_asymm_v5,2020.2.10,MacIntel,60,61025ae37ef11b136ea224fe,,,,,,,,,932,13.46917725,47.96987915,1,0,0,response1disk,,7,3.223266602,8.109375,1,0,0,rectangle,3.223266602,8.109375,1,0,0,3.223266602,8.109375,1,0,0,0,126,126,150,1,,,,,,,,
,,,,,,,,,,,,,FF,,,,,,,,0.6166,,,,,,,,,,,,,,,,,,,,,,61008b3cfe1543cea836dcee,610378baa44862f47913e481,2021-07-29_23h58.19.775,Simcolourproject_2stim_asymm_v5,2020.2.10,MacIntel,60,61025ae37ef11b136ea224fe,,,,,,,,,3892,32.43133545,55.71929932,1,0,0,response1disk,,7,5.272155762,-1.172607422,1,0,0,rectangle,5.272155762,-1.172607422,1,0,0,5.272155762,-1.172607422,1,0,0,0,127,127,75,1,,,,,,,,
,,,,,,,,,,,,,FF,,,,,,,,0.8189,,,,,,,,,,,,,,,,,,,,,,61008b3cfe1543cea836dcee,610378baa44862f47913e481,2021-07-29_23h58.19.775,Simcolourproject_2stim_asymm_v5,2020.2.10,MacIntel,60,61025ae37ef11b136ea224fe,,,,,,,,,548,-62.64172363,33.83569336,1,0,0,response7disk,,1,2.584594727,3.978851318,1,0,0,rectangle,2.584594727,3.978851318,1,0,0,2.584594727,3.978851318,1,0,0,0,128,128,103,1,,,,,,,,
,,,,,,,,,,,,,FF,,,,,,,,1.1,,,,,,,,,,,,,,,,,,,,,,61008b3cfe1543cea836dcee,610378baa44862f47913e481,2021-07-29_23h58.19.775,Simcolourproject_2stim_asymm_v5,2020.2.10,MacIntel,60,61025ae37ef11b136ea224fe,,,,,,,,,1455,-80.95788574,36.26876831,1,0,0,response7disk,,1,-15.44189453,0.692169189,1,0,0,rectangle,-15.44189453,0.692169189,1,0,0,-15.44189453,0.692169189,1,0,0,0,129,129,52,1,,,,,,,,
,,,,,,,,,,,,,FF,,,,,,,,1.2682,,,,,,,,,,,,,,,,,,,,,,61008b3cfe1543cea836dcee,610378baa44862f47913e481,2021-07-29_23h58.19.775,Simcolourproject_2stim_asymm_v5,2020.2.10,MacIntel,60,61025ae37ef11b136ea224fe,,,,,,,,,2188,27.12463379,81.50488281,1,0,0,response1disk,,7,8.996276855,12.73092651,1,0,0,rectangle,8.996276855,12.73092651,1,0,0,8.996276855,12.73092651,1,0,0,0,130,130,89,1,,,,,,,,
,,,,,,,,,,,,,FF,,,,,,,,1.9841,,,,,,,,,,,,,,,,,,,,,,61008b3cfe1543cea836dcee,610378baa44862f47913e481,2021-07-29_23h58.19.775,Simcolourproject_2stim_asymm_v5,2020.2.10,MacIntel,60,61025ae37ef11b136ea224fe,,,,,,,,,3101,71.409729,-49.76553345,1,0,0,response3disk,,5,14.89312744,8.523681641,1,0,0,rectangle,14.89312744,8.523681641,1,0,0,14.89312744,8.523681641,1,0,0,0,131,131,99,1,,,,,,,,
,,,,,,,,,,,,,FF,,,,,,,,1.8334,,,,,,,,,,,,,,,,,,,,,,61008b3cfe1543cea836dcee,610378baa44862f47913e481,2021-07-29_23h58.19.775,Simcolourproject_2stim_asymm_v5,2020.2.10,MacIntel,60,61025ae37ef11b136ea224fe,,,,,,,,,2888,-59.97131348,42.31002808,1,0,0,response7disk,,1,-9.471496582,-12.52661133,1,0,0,rectangle,-9.471496582,-12.52661133,1,0,0,-9.471496582,-12.52661133,1,0,0,0,132,132,141,1,,,,,,,,
,,,,,,,,,,,,,FF,,,,,,,,0.6031,,,,,,,,,,,,,,,,,,,,,,61008b3cfe1543cea836dcee,610378baa44862f47913e481,2021-07-29_23h58.19.775,Simcolourproject_2stim_asymm_v5,2020.2.10,MacIntel,60,61025ae37ef11b136ea224fe,,,,,,,,,3609,14.14715576,58.97232056,1,0,0,response1disk,,7,0.973449707,4.281158447,1,0,0,rectangle,0.973449707,4.281158447,1,0,0,0.973449707,4.281158447,1,0,0,0,133,133,135,1,,,,,,,,
,,,,,,,,,,,,,FF,,,,,,,,0.9134,,,,,,,,,,,,,,,,,,,,,,61008b3cfe1543cea836dcee,610378baa44862f47913e481,2021-07-29_23h58.19.775,Simcolourproject_2stim_asymm_v5,2020.2.10,MacIntel,60,61025ae37ef11b136ea224fe,,,,,,,,,2890,-49.31890869,-80.52487183,1,0,0,response5disk,,3,-11.79699707,-1.675567627,1,0,0,rectangle,-11.79699707,-1.675567627,1,0,0,-11.79699707,-1.675567627,1,0,0,0,134,134,55,1,,,,,,,,
,,,,,,,,,,,,,FF,,,,,,,,1.4852,,,,,,,,,,,,,,,,,,,,,,61008b3cfe1543cea836dcee,610378baa44862f47913e481,2021-07-29_23h58.19.775,Simcolourproject_2stim_asymm_v5,2020.2.10,MacIntel,60,61025ae37ef11b136ea224fe,,,,,,,,,2927,15.45758057,62.01654053,1,0,0,response1disk,,7,-5.597290039,12.12280273,1,0,0,rectangle,-5.597290039,12.12280273,1,0,0,-5.597290039,12.12280273,1,0,0,0,135,135,13,1,,,,,,,,
,,,,,,,,,,,,,FF,,,,,,,,0.7837,,,,,,,,,,,,,,,,,,,,,,61008b3cfe1543cea836dcee,610378baa44862f47913e481,2021-07-29_23h58.19.775,Simcolourproject_2stim_asymm_v5,2020.2.10,MacIntel,60,61025ae37ef11b136ea224fe,,,,,,,,,1956,-40.52606201,66.33651733,1,0,0,response7disk,,0,-23.4911499,3.646331787,1,0,0,rectangle,-23.4911499,3.646331787,1,0,0,-23.4911499,3.646331787,1,0,0,0,136,136,28,1,,,,,,,,
,,,,,,,,,,,,,FF,,,,,,,,1.387,,,,,,,,,,,,,,,,,,,,,,61008b3cfe1543cea836dcee,610378baa44862f47913e481,2021-07-29_23h58.19.775,Simcolourproject_2stim_asymm_v5,2020.2.10,MacIntel,60,61025ae37ef11b136ea224fe,,,,,,,,,3178,83.31329346,29.76925659,1,0,0,response1disk,,6,28.0680542,0.899536133,1,0,0,rectangle,28.0680542,0.899536133,1,0,0,28.0680542,0.899536133,1,0,0,0,137,137,48,1,,,,,,,,
,,,,,,,,,,,,,FF,,,,,,,,0.8648,,,,,,,,,,,,,,,,,,,,,,61008b3cfe1543cea836dcee,610378baa44862f47913e481,2021-07-29_23h58.19.775,Simcolourproject_2stim_asymm_v5,2020.2.10,MacIntel,60,61025ae37ef11b136ea224fe,,,,,,,,,418,65.15386963,32.53381348,1,0,0,response1disk,,6,26.48199463,2.710327148,1,0,0,rectangle,26.48199463,2.710327148,1,0,0,26.48199463,2.710327148,1,0,0,0,138,138,44,1,,,,,,,,
,,,,,,,,,,,,,FF,,,,,,,,0.6176,,,,,,,,,,,,,,,,,,,,,,61008b3cfe1543cea836dcee,610378baa44862f47913e481,2021-07-29_23h58.19.775,Simcolourproject_2stim_asymm_v5,2020.2.10,MacIntel,60,61025ae37ef11b136ea224fe,,,,,,,,,950,88.62304688,46.67202759,1,0,0,response1disk,,6,28.69018555,5.346618652,1,0,0,rectangle,28.69018555,5.346618652,1,0,0,28.69018555,5.346618652,1,0,0,0,139,139,47,1,,,,,,,,
,,,,,,,,,,,,,FF,,,,,,,,0.5505,,,,,,,,,,,,,,,,,,,,,,61008b3cfe1543cea836dcee,610378baa44862f47913e481,2021-07-29_23h58.19.775,Simcolourproject_2stim_asymm_v5,2020.2.10,MacIntel,60,61025ae37ef11b136ea224fe,,,,,,,,,667,36.89837646,71.9644165,1,0,0,response1disk,,7,11.45947266,8.847259521,1,0,0,rectangle,82.2901001,-25.45379639,1,0,0,-9.328186035,-6.449584961,1,0,0,0,140,140,97,1,,response3disk_3,TRUE,5,5,"[42,153,69,141,33,155,59,248,267,15,33,157,97,46,264,271,74,293,52,198]",1.185,rectangle
,,,,,,,,,,,,,FF,,,,,,,,2.4678,,,,,,,,,,,,,,,,,,,,,,61008b3cfe1543cea836dcee,610378baa44862f47913e481,2021-07-29_23h58.19.775,Simcolourproject_2stim_asymm_v5,2020.2.10,MacIntel,60,61025ae37ef11b136ea224fe,,,,,,,,,590,77.38232422,-29.32485962,1,0,0,response3disk,,5,2.917907715,3.266693115,1,0,0,rectangle,2.917907715,3.266693115,1,0,0,2.917907715,3.266693115,1,0,0,0,141,141,151,1,,,,,,,,
,,,,,,,,,,,,,FF,,,,,,,,1.1339,,,,,,,,,,,,,,,,,,,,,,61008b3cfe1543cea836dcee,610378baa44862f47913e481,2021-07-29_23h58.19.775,Simcolourproject_2stim_asymm_v5,2020.2.10,MacIntel,60,61025ae37ef11b136ea224fe,,,,,,,,,1534,77.56530762,-35.16995239,1,0,0,response3disk,,5,-7.363342285,3.509277344,1,0,0,rectangle,-7.363342285,3.509277344,1,0,0,-7.363342285,3.509277344,1,0,0,0,142,142,116,1,,,,,,,,
,,,,,,,,,,,,,FF,,,,,,,,0.5836,,,,,,,,,,,,,,,,,,,,,,61008b3cfe1543cea836dcee,610378baa44862f47913e481,2021-07-29_23h58.19.775,Simcolourproject_2stim_asymm_v5,2020.2.10,MacIntel,60,61025ae37ef11b136ea224fe,,,,,,,,,674,25.75518799,83.87921143,1,0,0,response1disk,,7,-2.252563477,15.96258545,1,0,0,rectangle,-2.252563477,15.96258545,1,0,0,-2.252563477,15.96258545,1,0,0,0,143,143,21,1,,,,,,,,
,,,,,,,,,,,,,FF,,,,,,,,1.0858,,,,,,,,,,,,,,,,,,,,,,61008b3cfe1543cea836dcee,610378baa44862f47913e481,2021-07-29_23h58.19.775,Simcolourproject_2stim_asymm_v5,2020.2.10,MacIntel,60,61025ae37ef11b136ea224fe,,,,,,,,,1733,-35.24462891,-90.15884399,1,0,0,response5disk,,3,-18.99853516,10.56832886,1,0,0,rectangle,-18.99853516,10.56832886,1,0,0,-18.99853516,10.56832886,1,0,0,0,144,144,115,1,,,,,,,,
,,,,,,,,,,,,,FF,,,,,,,,0.5466,,,,,,,,,,,,,,,,,,,,,,61008b3cfe1543cea836dcee,610378baa44862f47913e481,2021-07-29_23h58.19.775,Simcolourproject_2stim_asymm_v5,2020.2.10,MacIntel,60,61025ae37ef11b136ea224fe,,,,,,,,,4115,19.80206299,59.28286743,1,0,0,response1disk,,7,-6.808410645,1.008026123,1,0,0,rectangle,-6.808410645,1.008026123,1,0,0,-6.808410645,1.008026123,1,0,0,0,145,145,109,1,,,,,,,,
,,,,,,,,,,,,,FF,,,,,,,,0.5476,,,,,,,,,,,,,,,,,,,,,,61008b3cfe1543cea836dcee,610378baa44862f47913e481,2021-07-29_23h58.19.775,Simcolourproject_2stim_asymm_v5,2020.2.10,MacIntel,60,61025ae37ef11b136ea224fe,,,,,,,,,2773,15.73364258,53.59020996,1,0,0,response1disk,,7,14.76593018,-4.549133301,1,0,0,rectangle,14.76593018,-4.549133301,1,0,0,14.76593018,-4.549133301,1,0,0,0,146,146,2,1,,,,,,,,
,,,,,,,,,,,,,FF,,,,,,,,0.7462,,,,,,,,,,,,,,,,,,,,,,61008b3cfe1543cea836dcee,610378baa44862f47913e481,2021-07-29_23h58.19.775,Simcolourproject_2stim_asymm_v5,2020.2.10,MacIntel,60,61025ae37ef11b136ea224fe,,,,,,,,,1283,27.46679688,71.78625488,1,0,0,response1disk,,7,0.236328125,10.52047729,1,0,0,rectangle,0.236328125,10.52047729,1,0,0,0.236328125,10.52047729,1,0,0,0,147,147,43,1,,,,,,,,
,,,,,,,,,,,,,FF,,,,,,,,1.4672,,,,,,,,,,,,,,,,,,,,,,61008b3cfe1543cea836dcee,610378baa44862f47913e481,2021-07-29_23h58.19.775,Simcolourproject_2stim_asymm_v5,2020.2.10,MacIntel,60,61025ae37ef11b136ea224fe,,,,,,,,,2997,-49.01849365,-84.18948364,1,0,0,response5disk,,3,-4.758483887,10.68600464,1,0,0,rectangle,-4.758483887,10.68600464,1,0,0,-4.758483887,10.68600464,1,0,0,0,148,148,35,1,,,,,,,,
,,,,,,,,,,,,,FF,,,,,,,,0.6326,,,,,,,,,,,,,,,,,,,,,,61008b3cfe1543cea836dcee,610378baa44862f47913e481,2021-07-29_23h58.19.775,Simcolourproject_2stim_asymm_v5,2020.2.10,MacIntel,60,61025ae37ef11b136ea224fe,,,,,,,,,468,29.53149414,-58.96218872,1,0,0,response3disk,,4,22.28399658,6.90145874,1,0,0,rectangle,22.28399658,6.90145874,1,0,0,22.28399658,6.90145874,1,0,0,0,149,149,40,1,,,,,,,,
,,,,,,,,,,,,,FF,,,,,,,,0.9166,,,,,,,,,,,,,,,,,,,,,,61008b3cfe1543cea836dcee,610378baa44862f47913e481,2021-07-29_23h58.19.775,Simcolourproject_2stim_asymm_v5,2020.2.10,MacIntel,60,61025ae37ef11b136ea224fe,,,,,,,,,3009,29.09753418,82.71975708,1,0,0,response1disk,,7,11.99621582,13.34976196,1,0,0,rectangle,11.99621582,13.34976196,1,0,0,11.99621582,13.34976196,1,0,0,0,150,150,154,1,,,,,,,,
,,,,,,,,,,,,,FF,,,,,,,,0.5466,,,,,,,,,,,,,,,,,,,,,,61008b3cfe1543cea836dcee,610378baa44862f47913e481,2021-07-29_23h58.19.775,Simcolourproject_2stim_asymm_v5,2020.2.10,MacIntel,60,61025ae37ef11b136ea224fe,,,,,,,,,1715,33.21478271,67.35870361,1,0,0,response1disk,,7,8.653320313,3.63079834,1,0,0,rectangle,8.653320313,3.63079834,1,0,0,8.653320313,3.63079834,1,0,0,0,151,151,104,1,,,,,,,,
,,,,,,,,,,,,,FF,,,,,,,,0.5166,,,,,,,,,,,,,,,,,,,,,,61008b3cfe1543cea836dcee,610378baa44862f47913e481,2021-07-29_23h58.19.775,Simcolourproject_2stim_asymm_v5,2020.2.10,MacIntel,60,61025ae37ef11b136ea224fe,,,,,,,,,3446,23.71850586,54.40200806,1,0,0,response1disk,,7,4.096374512,-2.153594971,1,0,0,rectangle,107.8681641,36.35076904,1,0,0,-3.70123291,7.51776123,1,0,0,0,152,152,133,1,,response1disk_3,TRUE,6,6,"[42,153,69,141,33,155,59,248,267,15,33,157,97,46,264,271,74,293,52,198]",2.0504,rectangle
,,,,,,,,,,,,,FF,,,,,,,,1.1004,,,,,,,,,,,,,,,,,,,,,,61008b3cfe1543cea836dcee,610378baa44862f47913e481,2021-07-29_23h58.19.775,Simcolourproject_2stim_asymm_v5,2020.2.10,MacIntel,60,61025ae37ef11b136ea224fe,,,,,,,,,160,23.97460938,-80.49160767,1,0,0,response3disk,,4,12.34448242,-5.580932617,1,0,0,rectangle,12.34448242,-5.580932617,1,0,0,12.34448242,-5.580932617,1,0,0,0,153,153,69,1,,,,,,,,
,,,,,,,,,,,,,FF,,,,,,,,0.4998,,,,,,,,,,,,,,,,,,,,,,61008b3cfe1543cea836dcee,610378baa44862f47913e481,2021-07-29_23h58.19.775,Simcolourproject_2stim_asymm_v5,2020.2.10,MacIntel,60,61025ae37ef11b136ea224fe,,,,,,,,,476,31.01751709,53.66531372,1,0,0,response1disk,,7,0.123291016,8.817932129,1,0,0,rectangle,80.01672363,30.17016602,1,0,0,8.289672852,6.520141602,1,0,0,0,154,154,100,1,,response1disk_3,TRUE,6,6,"[42,153,69,141,33,155,59,248,267,15,33,157,97,46,264,271,74,293,52,198]",1.8529,rectangle
,,,,,,,,,,,,,FF,,,,,,,,0.9974,,,,,,,,,,,,,,,,,,,,,,61008b3cfe1543cea836dcee,610378baa44862f47913e481,2021-07-29_23h58.19.775,Simcolourproject_2stim_asymm_v5,2020.2.10,MacIntel,60,61025ae37ef11b136ea224fe,,,,,,,,,2309,55.50756836,86.71722412,1,0,0,response1disk,,7,13.64874268,13.31719971,1,0,0,rectangle,13.64874268,13.31719971,1,0,0,13.64874268,13.31719971,1,0,0,0,155,155,155,1,,,,,,,,
,,,,,,,,,,,,,FF,,,,,,,,1.2684,,,,,,,,,,,,,,,,,,,,,,61008b3cfe1543cea836dcee,610378baa44862f47913e481,2021-07-29_23h58.19.775,Simcolourproject_2stim_asymm_v5,2020.2.10,MacIntel,60,61025ae37ef11b136ea224fe,,,,,,,,,1671,-30.98095703,-64.67141724,1,0,0,response5disk,,3,3.53125,7.409423828,1,0,0,rectangle,80.14825439,-31.48812866,1,0,0,-2.674865723,-9.938812256,1,0,0,0,156,156,1,1,,response3disk_3,TRUE,5,5,"[42,153,69,141,33,155,59,248,267,15,33,157,97,46,264,271,74,293,52,198]",1.2543,rectangle
,,,,,,,,,,,,,FF,,,,,,,,0.8338,,,,,,,,,,,,,,,,,,,,,,61008b3cfe1543cea836dcee,610378baa44862f47913e481,2021-07-29_23h58.19.775,Simcolourproject_2stim_asymm_v5,2020.2.10,MacIntel,60,61025ae37ef11b136ea224fe,,,,,,,,,1124,-35.15930176,-53.86587524,1,0,0,response5disk,,3,7.632995605,11.5836792,1,0,0,rectangle,7.632995605,11.5836792,1,0,0,7.632995605,11.5836792,1,0,0,0,157,157,126,1,,,,,,,,
,,,,,,,,,,,,,FF,,,,,,,,1.0144,,,,,,,,,,,,,,,,,,,,,,61008b3cfe1543cea836dcee,610378baa44862f47913e481,2021-07-29_23h58.19.775,Simcolourproject_2stim_asymm_v5,2020.2.10,MacIntel,60,61025ae37ef11b136ea224fe,,,,,,,,,4353,-27.8449707,-62.25317383,1,0,0,response5disk,,3,11.57629395,14.14376831,1,0,0,rectangle,11.57629395,14.14376831,1,0,0,11.57629395,14.14376831,1,0,0,0,158,158,145,1,,,,,,,,
,,,,,,,,,,,,,FF,,,,,,,,1.0356,,,,,,,,,,,,,,,,,,,,,,61008b3cfe1543cea836dcee,610378baa44862f47913e481,2021-07-29_23h58.19.775,Simcolourproject_2stim_asymm_v5,2020.2.10,MacIntel,60,61025ae37ef11b136ea224fe,,,,,,,,,1517,76.71185303,-48.40112305,1,0,0,response3disk,,5,11.88928223,-2.939727783,1,0,0,rectangle,11.88928223,-2.939727783,1,0,0,11.88928223,-2.939727783,1,0,0,0,159,159,101,1,,,,,,,,
,,,,,,,,,,,,,FF,,,,,,,,0.9675,,,,,,,,,,,,,,,,,,,,,,61008b3cfe1543cea836dcee,610378baa44862f47913e481,2021-07-29_23h58.19.775,Simcolourproject_2stim_asymm_v5,2020.2.10,MacIntel,60,61025ae37ef11b136ea224fe,,,,,,,,,1528,-38.73382568,-83.65731812,1,0,0,response5disk,,3,18.62353516,6.244415283,1,0,0,rectangle,18.62353516,6.244415283,1,0,0,18.62353516,6.244415283,1,0,0,1,0,160,48,1,,,,,,,,
,,,,,,,,,,,,,FF,,,,,,,,0.6006,,,,,,,,,,,,,,,,,,,,,,61008b3cfe1543cea836dcee,610378baa44862f47913e481,2021-07-29_23h58.19.775,Simcolourproject_2stim_asymm_v5,2020.2.10,MacIntel,60,61025ae37ef11b136ea224fe,,,,,,,,,754,25.01281738,52.35037231,1,0,0,response1disk,,7,4.801330566,3.095428467,1,0,0,rectangle,4.801330566,3.095428467,1,0,0,4.801330566,3.095428467,1,0,0,1,1,161,140,1,,,,,,,,
,,,,,,,,,,,,,FF,,,,,,,,0.5181,,,,,,,,,,,,,,,,,,,,,,61008b3cfe1543cea836dcee,610378baa44862f47913e481,2021-07-29_23h58.19.775,Simcolourproject_2stim_asymm_v5,2020.2.10,MacIntel,60,61025ae37ef11b136ea224fe,,,,,,,,,84,21.91998291,56.66372681,1,0,0,response1disk,,7,7.348205566,3.541564941,1,0,0,rectangle,7.348205566,3.541564941,1,0,0,7.348205566,3.541564941,1,0,0,1,2,162,9,1,,,,,,,,
,,,,,,,,,,,,,FF,,,,,,,,0.4511,,,,,,,,,,,,,,,,,,,,,,61008b3cfe1543cea836dcee,610378baa44862f47913e481,2021-07-29_23h58.19.775,Simcolourproject_2stim_asymm_v5,2020.2.10,MacIntel,60,61025ae37ef11b136ea224fe,,,,,,,,,2346,13.69885254,66.53512573,1,0,0,response1disk,,7,-11.55700684,13.37860107,1,0,0,rectangle,-11.55700684,13.37860107,1,0,0,-11.55700684,13.37860107,1,0,0,1,3,163,1,1,,,,,,,,
,,,,,,,,,,,,,FF,,,,,,,,0.4006,,,,,,,,,,,,,,,,,,,,,,61008b3cfe1543cea836dcee,610378baa44862f47913e481,2021-07-29_23h58.19.775,Simcolourproject_2stim_asymm_v5,2020.2.10,MacIntel,60,61025ae37ef11b136ea224fe,,,,,,,,,4349,26.07098389,71.05700684,1,0,0,response1disk,,7,3.546875,-3.832092285,1,0,0,rectangle,3.546875,-3.832092285,1,0,0,3.546875,-3.832092285,1,0,0,1,4,164,85,1,,,,,,,,
,,,,,,,,,,,,,FF,,,,,,,,0.4507,,,,,,,,,,,,,,,,,,,,,,61008b3cfe1543cea836dcee,610378baa44862f47913e481,2021-07-29_23h58.19.775,Simcolourproject_2stim_asymm_v5,2020.2.10,MacIntel,60,61025ae37ef11b136ea224fe,,,,,,,,,2760,28.24755859,51.73403931,1,0,0,response1disk,,7,4.746032715,-2.945770264,1,0,0,rectangle,4.746032715,-2.945770264,1,0,0,4.746032715,-2.945770264,1,0,0,1,5,165,11,1,,,,,,,,
,,,,,,,,,,,,,FF,,,,,,,,0.4514,,,,,,,,,,,,,,,,,,,,,,61008b3cfe1543cea836dcee,610378baa44862f47913e481,2021-07-29_23h58.19.775,Simcolourproject_2stim_asymm_v5,2020.2.10,MacIntel,60,61025ae37ef11b136ea224fe,,,,,,,,,1925,41.04498291,51.28326416,1,0,0,response1disk,,7,18.49169922,-0.74432373,1,0,0,rectangle,18.49169922,-0.74432373,1,0,0,18.49169922,-0.74432373,1,0,0,1,6,166,109,1,,,,,,,,
,,,,,,,,,,,,,FF,,,,,,,,0.4841,,,,,,,,,,,,,,,,,,,,,,61008b3cfe1543cea836dcee,610378baa44862f47913e481,2021-07-29_23h58.19.775,Simcolourproject_2stim_asymm_v5,2020.2.10,MacIntel,60,61025ae37ef11b136ea224fe,,,,,,,,,4050,48.24786377,92.49389648,1,0,0,response1disk,,7,8.091674805,1.32131958,1,0,0,rectangle,8.091674805,1.32131958,1,0,0,8.091674805,1.32131958,1,0,0,1,7,167,82,1,,,,,,,,
,,,,,,,,,,,,,FF,,,,,,,,0.4684,,,,,,,,,,,,,,,,,,,,,,61008b3cfe1543cea836dcee,610378baa44862f47913e481,2021-07-29_23h58.19.775,Simcolourproject_2stim_asymm_v5,2020.2.10,MacIntel,60,61025ae37ef11b136ea224fe,,,,,,,,,3512,34.0020752,46.94024658,1,0,0,response1disk,,7,15.65856934,1.904785156,1,0,0,rectangle,15.65856934,1.904785156,1,0,0,15.65856934,1.904785156,1,0,0,1,8,168,39,1,,,,,,,,
,,,,,,,,,,,,,FF,,,,,,,,0.6836,,,,,,,,,,,,,,,,,,,,,,61008b3cfe1543cea836dcee,610378baa44862f47913e481,2021-07-29_23h58.19.775,Simcolourproject_2stim_asymm_v5,2020.2.10,MacIntel,60,61025ae37ef11b136ea224fe,,,,,,,,,3553,-71.85375977,-92.35534668,1,0,0,response5disk,,3,-10.0078125,1.994628906,1,0,0,rectangle,-10.0078125,1.994628906,1,0,0,-10.0078125,1.994628906,1,0,0,1,9,169,76,1,,,,,,,,
,,,,,,,,,,,,,FF,,,,,,,,0.9026,,,,,,,,,,,,,,,,,,,,,,61008b3cfe1543cea836dcee,610378baa44862f47913e481,2021-07-29_23h58.19.775,Simcolourproject_2stim_asymm_v5,2020.2.10,MacIntel,60,61025ae37ef11b136ea224fe,,,,,,,,,2281,33.77325439,67.18911743,1,0,0,response1disk,,7,4.427185059,-12.19476318,1,0,0,rectangle,4.427185059,-12.19476318,1,0,0,4.427185059,-12.19476318,1,0,0,1,10,170,78,1,,,,,,,,
,,,,,,,,,,,,,FF,,,,,,,,0.4993,,,,,,,,,,,,,,,,,,,,,,61008b3cfe1543cea836dcee,610378baa44862f47913e481,2021-07-29_23h58.19.775,Simcolourproject_2stim_asymm_v5,2020.2.10,MacIntel,60,61025ae37ef11b136ea224fe,,,,,,,,,3814,32.14892578,59.21829224,1,0,0,response1disk,,7,10.68243408,-0.207733154,1,0,0,rectangle,10.68243408,-0.207733154,1,0,0,10.68243408,-0.207733154,1,0,0,1,11,171,95,1,,,,,,,,
,,,,,,,,,,,,,FF,,,,,,,,0.5672,,,,,,,,,,,,,,,,,,,,,,61008b3cfe1543cea836dcee,610378baa44862f47913e481,2021-07-29_23h58.19.775,Simcolourproject_2stim_asymm_v5,2020.2.10,MacIntel,60,61025ae37ef11b136ea224fe,,,,,,,,,3692,34.6628418,59.40856934,1,0,0,response1disk,,7,14.88818359,-4.148132324,1,0,0,rectangle,14.88818359,-4.148132324,1,0,0,14.88818359,-4.148132324,1,0,0,1,12,172,34,1,,,,,,,,
,,,,,,,,,,,,,FF,,,,,,,,0.8555,,,,,,,,,,,,,,,,,,,,,,61008b3cfe1543cea836dcee,610378baa44862f47913e481,2021-07-29_23h58.19.775,Simcolourproject_2stim_asymm_v5,2020.2.10,MacIntel,60,61025ae37ef11b136ea224fe,,,,,,,,,2076,-81.96972656,-43.12338257,1,0,0,response5disk,,2,5.41784668,-2.035583496,1,0,0,rectangle,5.41784668,-2.035583496,1,0,0,5.41784668,-2.035583496,1,0,0,1,13,173,108,1,,,,,,,,
,,,,,,,,,,,,,FF,,,,,,,,0.915,,,,,,,,,,,,,,,,,,,,,,61008b3cfe1543cea836dcee,610378baa44862f47913e481,2021-07-29_23h58.19.775,Simcolourproject_2stim_asymm_v5,2020.2.10,MacIntel,60,61025ae37ef11b136ea224fe,,,,,,,,,1519,19.31115723,61.63015747,1,0,0,response1disk,,7,-0.793029785,1.731231689,1,0,0,rectangle,-0.793029785,1.731231689,1,0,0,-0.793029785,1.731231689,1,0,0,1,14,174,111,1,,,,,,,,
,,,,,,,,,,,,,FF,,,,,,,,1.0671,,,,,,,,,,,,,,,,,,,,,,61008b3cfe1543cea836dcee,610378baa44862f47913e481,2021-07-29_23h58.19.775,Simcolourproject_2stim_asymm_v5,2020.2.10,MacIntel,60,61025ae37ef11b136ea224fe,,,,,,,,,228,29.28735352,69.87478638,1,0,0,response1disk,,7,5.602661133,6.375030518,1,0,0,rectangle,5.602661133,6.375030518,1,0,0,5.602661133,6.375030518,1,0,0,1,15,175,93,1,,,,,,,,
,,,,,,,,,,,,,FF,,,,,,,,1.7018,,,,,,,,,,,,,,,,,,,,,,61008b3cfe1543cea836dcee,610378baa44862f47913e481,2021-07-29_23h58.19.775,Simcolourproject_2stim_asymm_v5,2020.2.10,MacIntel,60,61025ae37ef11b136ea224fe,,,,,,,,,1126,37.6003418,71.54077148,1,0,0,response1disk,,7,6.372192383,9.311645508,1,0,0,rectangle,6.372192383,9.311645508,1,0,0,6.372192383,9.311645508,1,0,0,1,16,176,10,1,,,,,,,,
,,,,,,,,,,,,,FF,,,,,,,,0.3532,,,,,,,,,,,,,,,,,,,,,,61008b3cfe1543cea836dcee,610378baa44862f47913e481,2021-07-29_23h58.19.775,Simcolourproject_2stim_asymm_v5,2020.2.10,MacIntel,60,61025ae37ef11b136ea224fe,,,,,,,,,2913,49.28302002,57.8890686,1,0,0,response1disk,,7,18.4309082,-1.33694458,1,0,0,rectangle,18.4309082,-1.33694458,1,0,0,18.4309082,-1.33694458,1,0,0,1,17,177,43,1,,,,,,,,
,,,,,,,,,,,,,FF,,,,,,,,0.3822,,,,,,,,,,,,,,,,,,,,,,61008b3cfe1543cea836dcee,610378baa44862f47913e481,2021-07-29_23h58.19.775,Simcolourproject_2stim_asymm_v5,2020.2.10,MacIntel,60,61025ae37ef11b136ea224fe,,,,,,,,,2548,48.13519287,78.99707031,1,0,0,response1disk,,7,9.88092041,1.157196045,1,0,0,rectangle,9.88092041,1.157196045,1,0,0,9.88092041,1.157196045,1,0,0,1,18,178,118,1,,,,,,,,
,,,,,,,,,,,,,FF,,,,,,,,0.5159,,,,,,,,,,,,,,,,,,,,,,61008b3cfe1543cea836dcee,610378baa44862f47913e481,2021-07-29_23h58.19.775,Simcolourproject_2stim_asymm_v5,2020.2.10,MacIntel,60,61025ae37ef11b136ea224fe,,,,,,,,,2961,27.82501221,78.40951538,1,0,0,response1disk,,7,2.075073242,3.290496826,1,0,0,rectangle,2.075073242,3.290496826,1,0,0,2.075073242,3.290496826,1,0,0,1,19,179,75,1,,,,,,,,
,,,,,,,,,,,,,FF,,,,,,,,1.3677,,,,,,,,,,,,,,,,,,,,,,61008b3cfe1543cea836dcee,610378baa44862f47913e481,2021-07-29_23h58.19.775,Simcolourproject_2stim_asymm_v5,2020.2.10,MacIntel,60,61025ae37ef11b136ea224fe,,,,,,,,,3645,31.35986328,69.33251953,1,0,0,response1disk,,7,2.465454102,-4.265716553,1,0,0,rectangle,2.465454102,-4.265716553,1,0,0,2.465454102,-4.265716553,1,0,0,1,20,180,22,1,,,,,,,,
,,,,,,,,,,,,,FF,,,,,,,,0.7165,,,,,,,,,,,,,,,,,,,,,,61008b3cfe1543cea836dcee,610378baa44862f47913e481,2021-07-29_23h58.19.775,Simcolourproject_2stim_asymm_v5,2020.2.10,MacIntel,60,61025ae37ef11b136ea224fe,,,,,,,,,683,36.68634033,61.48355103,1,0,0,response1disk,,7,4.562744141,-6.673248291,1,0,0,rectangle,4.562744141,-6.673248291,1,0,0,4.562744141,-6.673248291,1,0,0,1,21,181,148,1,,,,,,,,
,,,,,,,,,,,,,FF,,,,,,,,0.9841,,,,,,,,,,,,,,,,,,,,,,61008b3cfe1543cea836dcee,610378baa44862f47913e481,2021-07-29_23h58.19.775,Simcolourproject_2stim_asymm_v5,2020.2.10,MacIntel,60,61025ae37ef11b136ea224fe,,,,,,,,,820,25.27856445,61.09609985,1,0,0,response1disk,,7,10.38482666,-7.645172119,1,0,0,rectangle,10.38482666,-7.645172119,1,0,0,10.38482666,-7.645172119,1,0,0,1,22,182,38,1,,,,,,,,
,,,,,,,,,,,,,FF,,,,,,,,0.7515,,,,,,,,,,,,,,,,,,,,,,61008b3cfe1543cea836dcee,610378baa44862f47913e481,2021-07-29_23h58.19.775,Simcolourproject_2stim_asymm_v5,2020.2.10,MacIntel,60,61025ae37ef11b136ea224fe,,,,,,,,,2056,24.13122559,36.05230713,1,0,0,response1disk,,7,11.08984375,-1.461425781,1,0,0,rectangle,11.08984375,-1.461425781,1,0,0,11.08984375,-1.461425781,1,0,0,1,23,183,71,1,,,,,,,,
,,,,,,,,,,,,,FF,,,,,,,,0.6832,,,,,,,,,,,,,,,,,,,,,,61008b3cfe1543cea836dcee,610378baa44862f47913e481,2021-07-29_23h58.19.775,Simcolourproject_2stim_asymm_v5,2020.2.10,MacIntel,60,61025ae37ef11b136ea224fe,,,,,,,,,113,32.38562012,78.67752075,1,0,0,response1disk,,7,3.292236328,0.838256836,1,0,0,rectangle,3.292236328,0.838256836,1,0,0,3.292236328,0.838256836,1,0,0,1,24,184,134,1,,,,,,,,
,,,,,,,,,,,,,FF,,,,,,,,1.3497,,,,,,,,,,,,,,,,,,,,,,61008b3cfe1543cea836dcee,610378baa44862f47913e481,2021-07-29_23h58.19.775,Simcolourproject_2stim_asymm_v5,2020.2.10,MacIntel,60,61025ae37ef11b136ea224fe,,,,,,,,,686,34.3536377,70.1177063,1,0,0,response1disk,,7,-6.338012695,-1.831665039,1,0,0,rectangle,-6.338012695,-1.831665039,1,0,0,-6.338012695,-1.831665039,1,0,0,1,25,185,139,1,,,,,,,,
,,,,,,,,,,,,,FF,,,,,,,,0.7338,,,,,,,,,,,,,,,,,,,,,,61008b3cfe1543cea836dcee,610378baa44862f47913e481,2021-07-29_23h58.19.775,Simcolourproject_2stim_asymm_v5,2020.2.10,MacIntel,60,61025ae37ef11b136ea224fe,,,,,,,,,891,-73.23565674,-45.00045776,1,0,0,response5disk,,2,11.15673828,5.130126953,1,0,0,rectangle,11.15673828,5.130126953,1,0,0,11.15673828,5.130126953,1,0,0,1,26,186,142,1,,,,,,,,
,,,,,,,,,,,,,FF,,,,,,,,0.6508,,,,,,,,,,,,,,,,,,,,,,61008b3cfe1543cea836dcee,610378baa44862f47913e481,2021-07-29_23h58.19.775,Simcolourproject_2stim_asymm_v5,2020.2.10,MacIntel,60,61025ae37ef11b136ea224fe,,,,,,,,,4006,25.48449707,45.38754272,1,0,0,response1disk,,7,3.16986084,-7.303924561,1,0,0,rectangle,3.16986084,-7.303924561,1,0,0,3.16986084,-7.303924561,1,0,0,1,27,187,113,1,,,,,,,,
,,,,,,,,,,,,,FF,,,,,,,,0.5822,,,,,,,,,,,,,,,,,,,,,,61008b3cfe1543cea836dcee,610378baa44862f47913e481,2021-07-29_23h58.19.775,Simcolourproject_2stim_asymm_v5,2020.2.10,MacIntel,60,61025ae37ef11b136ea224fe,,,,,,,,,1546,18.26086426,51.76031494,1,0,0,response1disk,,7,3.206726074,11.04763794,1,0,0,rectangle,3.206726074,11.04763794,1,0,0,3.206726074,11.04763794,1,0,0,1,28,188,88,1,,,,,,,,
,,,,,,,,,,,,,FF,,,,,,,,0.4484,,,,,,,,,,,,,,,,,,,,,,61008b3cfe1543cea836dcee,610378baa44862f47913e481,2021-07-29_23h58.19.775,Simcolourproject_2stim_asymm_v5,2020.2.10,MacIntel,60,61025ae37ef11b136ea224fe,,,,,,,,,2550,23.35430908,43.23608398,1,0,0,response1disk,,7,8.928955078,8.072967529,1,0,0,rectangle,8.928955078,8.072967529,1,0,0,8.928955078,8.072967529,1,0,0,1,29,189,35,1,,,,,,,,
,,,,,,,,,,,,,FF,,,,,,,,0.7664,,,,,,,,,,,,,,,,,,,,,,61008b3cfe1543cea836dcee,610378baa44862f47913e481,2021-07-29_23h58.19.775,Simcolourproject_2stim_asymm_v5,2020.2.10,MacIntel,60,61025ae37ef11b136ea224fe,,,,,,,,,1761,38.8348999,59.01113892,1,0,0,response1disk,,7,17.66833496,13.29605103,1,0,0,rectangle,17.66833496,13.29605103,1,0,0,17.66833496,13.29605103,1,0,0,1,30,190,36,1,,,,,,,,
,,,,,,,,,,,,,FF,,,,,,,,0.485,,,,,,,,,,,,,,,,,,,,,,61008b3cfe1543cea836dcee,610378baa44862f47913e481,2021-07-29_23h58.19.775,Simcolourproject_2stim_asymm_v5,2020.2.10,MacIntel,60,61025ae37ef11b136ea224fe,,,,,,,,,329,35.96258545,61.77609253,1,0,0,response1disk,,7,13.09912109,5.42175293,1,0,0,rectangle,13.09912109,5.42175293,1,0,0,13.09912109,5.42175293,1,0,0,1,31,191,86,1,,,,,,,,
,,,,,,,,,,,,,FF,,,,,,,,0.467,,,,,,,,,,,,,,,,,,,,,,61008b3cfe1543cea836dcee,610378baa44862f47913e481,2021-07-29_23h58.19.775,Simcolourproject_2stim_asymm_v5,2020.2.10,MacIntel,60,61025ae37ef11b136ea224fe,,,,,,,,,367,26.60198975,43.88919067,1,0,0,response1disk,,7,16.8616333,7.307647705,1,0,0,rectangle,16.8616333,7.307647705,1,0,0,16.8616333,7.307647705,1,0,0,1,32,192,32,1,,,,,,,,
,,,,,,,,,,,,,FF,,,,,,,,0.6849,,,,,,,,,,,,,,,,,,,,,,61008b3cfe1543cea836dcee,610378baa44862f47913e481,2021-07-29_23h58.19.775,Simcolourproject_2stim_asymm_v5,2020.2.10,MacIntel,60,61025ae37ef11b136ea224fe,,,,,,,,,492,20.89477539,47.22363281,1,0,0,response1disk,,7,9.93762207,-4.685302734,1,0,0,rectangle,9.93762207,-4.685302734,1,0,0,9.93762207,-4.685302734,1,0,0,1,33,193,112,1,,,,,,,,
,,,,,,,,,,,,,FF,,,,,,,,0.5838,,,,,,,,,,,,,,,,,,,,,,61008b3cfe1543cea836dcee,610378baa44862f47913e481,2021-07-29_23h58.19.775,Simcolourproject_2stim_asymm_v5,2020.2.10,MacIntel,60,61025ae37ef11b136ea224fe,,,,,,,,,3564,18.3527832,61.1468811,1,0,0,response1disk,,7,6.843017578,-4.548492432,1,0,0,rectangle,6.843017578,-4.548492432,1,0,0,6.843017578,-4.548492432,1,0,0,1,34,194,143,1,,,,,,,,
,,,,,,,,,,,,,FF,,,,,,,,0.5507,,,,,,,,,,,,,,,,,,,,,,61008b3cfe1543cea836dcee,610378baa44862f47913e481,2021-07-29_23h58.19.775,Simcolourproject_2stim_asymm_v5,2020.2.10,MacIntel,60,61025ae37ef11b136ea224fe,,,,,,,,,131,29.95007324,58.67938232,1,0,0,response1disk,,7,10.04376221,-8.450927734,1,0,0,rectangle,10.04376221,-8.450927734,1,0,0,10.04376221,-8.450927734,1,0,0,1,35,195,50,1,,,,,,,,
,,,,,,,,,,,,,FF,,,,,,,,0.4163,,,,,,,,,,,,,,,,,,,,,,61008b3cfe1543cea836dcee,610378baa44862f47913e481,2021-07-29_23h58.19.775,Simcolourproject_2stim_asymm_v5,2020.2.10,MacIntel,60,61025ae37ef11b136ea224fe,,,,,,,,,159,31.39758301,59.89630127,1,0,0,response1disk,,7,10.40808105,-1.702911377,1,0,0,rectangle,10.40808105,-1.702911377,1,0,0,10.40808105,-1.702911377,1,0,0,1,36,196,57,1,,,,,,,,
,,,,,,,,,,,,,FF,,,,,,,,0.5341,,,,,,,,,,,,,,,,,,,,,,61008b3cfe1543cea836dcee,610378baa44862f47913e481,2021-07-29_23h58.19.775,Simcolourproject_2stim_asymm_v5,2020.2.10,MacIntel,60,61025ae37ef11b136ea224fe,,,,,,,,,3126,41.03692627,78.99920654,1,0,0,response1disk,,7,8.929016113,-1.916381836,1,0,0,rectangle,-50.34313965,-96.61123657,1,0,0,-7.977905273,-2.41595459,1,0,0,1,37,197,72,1,,response5disk_3,TRUE,3,3,"[42,153,69,141,33,155,59,248,267,15,33,157,97,46,264,271,74,293,52,198]",1.4506,rectangle
,,,,,,,,,,,,,FF,,,,,,,,1.9347,,,,,,,,,,,,,,,,,,,,,,61008b3cfe1543cea836dcee,610378baa44862f47913e481,2021-07-29_23h58.19.775,Simcolourproject_2stim_asymm_v5,2020.2.10,MacIntel,60,61025ae37ef11b136ea224fe,,,,,,,,,4294,25.96508789,57.02737427,1,0,0,response1disk,,7,8.153930664,6.535125732,1,0,0,rectangle,8.153930664,6.535125732,1,0,0,8.153930664,6.535125732,1,0,0,1,38,198,153,1,,,,,,,,
,,,,,,,,,,,,,FF,,,,,,,,1.2161,,,,,,,,,,,,,,,,,,,,,,61008b3cfe1543cea836dcee,610378baa44862f47913e481,2021-07-29_23h58.19.775,Simcolourproject_2stim_asymm_v5,2020.2.10,MacIntel,60,61025ae37ef11b136ea224fe,,,,,,,,,3817,-85.73736572,46.1307373,1,0,0,response7disk,,1,5.746582031,0.779205322,1,0,0,rectangle,5.746582031,0.779205322,1,0,0,5.746582031,0.779205322,1,0,0,1,39,199,56,1,,,,,,,,
,,,,,,,,,,,,,FF,,,,,,,,0.9335,,,,,,,,,,,,,,,,,,,,,,61008b3cfe1543cea836dcee,610378baa44862f47913e481,2021-07-29_23h58.19.775,Simcolourproject_2stim_asymm_v5,2020.2.10,MacIntel,60,61025ae37ef11b136ea224fe,,,,,,,,,1402,38.10339355,97.29104614,1,0,0,response1disk,,7,9.643676758,-15.75192261,1,0,0,rectangle,9.643676758,-15.75192261,1,0,0,9.643676758,-15.75192261,1,0,0,1,40,200,129,1,,,,,,,,
,,,,,,,,,,,,,FF,,,,,,,,0.4673,,,,,,,,,,,,,,,,,,,,,,61008b3cfe1543cea836dcee,610378baa44862f47913e481,2021-07-29_23h58.19.775,Simcolourproject_2stim_asymm_v5,2020.2.10,MacIntel,60,61025ae37ef11b136ea224fe,,,,,,,,,2956,26.73443604,62.66986084,1,0,0,response1disk,,7,13.87322998,-13.80072021,1,0,0,rectangle,13.87322998,-13.80072021,1,0,0,13.87322998,-13.80072021,1,0,0,1,41,201,17,1,,,,,,,,
,,,,,,,,,,,,,FF,,,,,,,,0.4698,,,,,,,,,,,,,,,,,,,,,,61008b3cfe1543cea836dcee,610378baa44862f47913e481,2021-07-29_23h58.19.775,Simcolourproject_2stim_asymm_v5,2020.2.10,MacIntel,60,61025ae37ef11b136ea224fe,,,,,,,,,295,28.90991211,51.77774048,1,0,0,response1disk,,7,7.426513672,-3.899658203,1,0,0,rectangle,7.426513672,-3.899658203,1,0,0,7.426513672,-3.899658203,1,0,0,1,42,202,81,1,,,,,,,,
,,,,,,,,,,,,,FF,,,,,,,,1.5673,,,,,,,,,,,,,,,,,,,,,,61008b3cfe1543cea836dcee,610378baa44862f47913e481,2021-07-29_23h58.19.775,Simcolourproject_2stim_asymm_v5,2020.2.10,MacIntel,60,61025ae37ef11b136ea224fe,,,,,,,,,1746,-77.90600586,-41.21850586,1,0,0,response5disk,,2,4.20300293,3.060638428,1,0,0,rectangle,4.20300293,3.060638428,1,0,0,4.20300293,3.060638428,1,0,0,1,43,203,121,1,,,,,,,,
,,,,,,,,,,,,,FF,,,,,,,,0.5174,,,,,,,,,,,,,,,,,,,,,,61008b3cfe1543cea836dcee,610378baa44862f47913e481,2021-07-29_23h58.19.775,Simcolourproject_2stim_asymm_v5,2020.2.10,MacIntel,60,61025ae37ef11b136ea224fe,,,,,,,,,3404,22.99304199,80.53305054,1,0,0,response1disk,,7,7.698242188,5.584899902,1,0,0,rectangle,7.698242188,5.584899902,1,0,0,7.698242188,5.584899902,1,0,0,1,44,204,83,1,,,,,,,,
,,,,,,,,,,,,,FF,,,,,,,,0.8508,,,,,,,,,,,,,,,,,,,,,,61008b3cfe1543cea836dcee,610378baa44862f47913e481,2021-07-29_23h58.19.775,Simcolourproject_2stim_asymm_v5,2020.2.10,MacIntel,60,61025ae37ef11b136ea224fe,,,,,,,,,3908,-72.68188477,-27.33621216,1,0,0,response5disk,,2,18.85314941,4.732727051,1,0,0,rectangle,18.85314941,4.732727051,1,0,0,18.85314941,4.732727051,1,0,0,1,45,205,79,1,,,,,,,,
,,,,,,,,,,,,,FF,,,,,,,,0.8508,,,,,,,,,,,,,,,,,,,,,,61008b3cfe1543cea836dcee,610378baa44862f47913e481,2021-07-29_23h58.19.775,Simcolourproject_2stim_asymm_v5,2020.2.10,MacIntel,60,61025ae37ef11b136ea224fe,,,,,,,,,373,-68.70007324,-45.24182129,1,0,0,response5disk,,2,-4.33215332,-4.069702148,1,0,0,rectangle,-4.33215332,-4.069702148,1,0,0,-4.33215332,-4.069702148,1,0,0,1,46,206,137,1,,,,,,,,
,,,,,,,,,,,,,FF,,,,,,,,0.5681,,,,,,,,,,,,,,,,,,,,,,61008b3cfe1543cea836dcee,610378baa44862f47913e481,2021-07-29_23h58.19.775,Simcolourproject_2stim_asymm_v5,2020.2.10,MacIntel,60,61025ae37ef11b136ea224fe,,,,,,,,,3419,-77.76483154,-39.58804321,1,0,0,response5disk,,2,5.204284668,-1.108673096,1,0,0,rectangle,5.204284668,-1.108673096,1,0,0,5.204284668,-1.108673096,1,0,0,1,47,207,158,1,,,,,,,,
,,,,,,,,,,,,,FF,,,,,,,,0.5831,,,,,,,,,,,,,,,,,,,,,,61008b3cfe1543cea836dcee,610378baa44862f47913e481,2021-07-29_23h58.19.775,Simcolourproject_2stim_asymm_v5,2020.2.10,MacIntel,60,61025ae37ef11b136ea224fe,,,,,,,,,282,-29.75836182,-86.61105347,1,0,0,response5disk,,3,-2.42767334,2.445495605,1,0,0,rectangle,-2.42767334,2.445495605,1,0,0,-2.42767334,2.445495605,1,0,0,1,48,208,24,1,,,,,,,,
,,,,,,,,,,,,,FF,,,,,,,,0.7509,,,,,,,,,,,,,,,,,,,,,,61008b3cfe1543cea836dcee,610378baa44862f47913e481,2021-07-29_23h58.19.775,Simcolourproject_2stim_asymm_v5,2020.2.10,MacIntel,60,61025ae37ef11b136ea224fe,,,,,,,,,3895,-40.94598389,-88.48800659,1,0,0,response5disk,,3,-4.222045898,6.321807861,1,0,0,rectangle,-4.222045898,6.321807861,1,0,0,-4.222045898,6.321807861,1,0,0,1,49,209,157,1,,,,,,,,
,,,,,,,,,,,,,FF,,,,,,,,1.4845,,,,,,,,,,,,,,,,,,,,,,61008b3cfe1543cea836dcee,610378baa44862f47913e481,2021-07-29_23h58.19.775,Simcolourproject_2stim_asymm_v5,2020.2.10,MacIntel,60,61025ae37ef11b136ea224fe,,,,,,,,,4010,-37.44482422,-69.88424683,1,0,0,response5disk,,3,11.10009766,4.055084229,1,0,0,rectangle,11.10009766,4.055084229,1,0,0,11.10009766,4.055084229,1,0,0,1,50,210,114,1,,,,,,,,
,,,,,,,,,,,,,FF,,,,,,,,0.6011,,,,,,,,,,,,,,,,,,,,,,61008b3cfe1543cea836dcee,610378baa44862f47913e481,2021-07-29_23h58.19.775,Simcolourproject_2stim_asymm_v5,2020.2.10,MacIntel,60,61025ae37ef11b136ea224fe,,,,,,,,,4315,37.46252441,68.55078125,1,0,0,response1disk,,7,-2.013244629,-0.520080566,1,0,0,rectangle,-2.013244629,-0.520080566,1,0,0,-2.013244629,-0.520080566,1,0,0,1,51,211,151,1,,,,,,,,
,,,,,,,,,,,,,FF,,,,,,,,0.7667,,,,,,,,,,,,,,,,,,,,,,61008b3cfe1543cea836dcee,610378baa44862f47913e481,2021-07-29_23h58.19.775,Simcolourproject_2stim_asymm_v5,2020.2.10,MacIntel,60,61025ae37ef11b136ea224fe,,,,,,,,,1928,14.75219727,-81.64172363,1,0,0,response3disk,,4,3.124328613,-10.36169434,1,0,0,rectangle,3.124328613,-10.36169434,1,0,0,3.124328613,-10.36169434,1,0,0,1,52,212,115,1,,,,,,,,
,,,,,,,,,,,,,FF,,,,,,,,1.3174,,,,,,,,,,,,,,,,,,,,,,61008b3cfe1543cea836dcee,610378baa44862f47913e481,2021-07-29_23h58.19.775,Simcolourproject_2stim_asymm_v5,2020.2.10,MacIntel,60,61025ae37ef11b136ea224fe,,,,,,,,,3646,49.21813965,71.74121094,1,0,0,response1disk,,7,15.18762207,5.238769531,1,0,0,rectangle,15.18762207,5.238769531,1,0,0,15.18762207,5.238769531,1,0,0,1,53,213,136,1,,,,,,,,
,,,,,,,,,,,,,FF,,,,,,,,0.6667,,,,,,,,,,,,,,,,,,,,,,61008b3cfe1543cea836dcee,610378baa44862f47913e481,2021-07-29_23h58.19.775,Simcolourproject_2stim_asymm_v5,2020.2.10,MacIntel,60,61025ae37ef11b136ea224fe,,,,,,,,,1535,-73.4776001,-35.27087402,1,0,0,response5disk,,2,18.61962891,9.712341309,1,0,0,rectangle,18.61962891,9.712341309,1,0,0,18.61962891,9.712341309,1,0,0,1,54,214,61,1,,,,,,,,
,,,,,,,,,,,,,FF,,,,,,,,0.5672,,,,,,,,,,,,,,,,,,,,,,61008b3cfe1543cea836dcee,610378baa44862f47913e481,2021-07-29_23h58.19.775,Simcolourproject_2stim_asymm_v5,2020.2.10,MacIntel,60,61025ae37ef11b136ea224fe,,,,,,,,,1343,25.97363281,53.44287109,1,0,0,response1disk,,7,2.208496094,-1.260070801,1,0,0,rectangle,2.208496094,-1.260070801,1,0,0,2.208496094,-1.260070801,1,0,0,1,55,215,97,1,,,,,,,,
,,,,,,,,,,,,,FF,,,,,,,,0.5499,,,,,,,,,,,,,,,,,,,,,,61008b3cfe1543cea836dcee,610378baa44862f47913e481,2021-07-29_23h58.19.775,Simcolourproject_2stim_asymm_v5,2020.2.10,MacIntel,60,61025ae37ef11b136ea224fe,,,,,,,,,542,35.36315918,55.36502075,1,0,0,response1disk,,7,24.75109863,-2.851135254,1,0,0,rectangle,24.75109863,-2.851135254,1,0,0,24.75109863,-2.851135254,1,0,0,1,56,216,19,1,,,,,,,,
,,,,,,,,,,,,,FF,,,,,,,,0.8855,,,,,,,,,,,,,,,,,,,,,,61008b3cfe1543cea836dcee,610378baa44862f47913e481,2021-07-29_23h58.19.775,Simcolourproject_2stim_asymm_v5,2020.2.10,MacIntel,60,61025ae37ef11b136ea224fe,,,,,,,,,1202,-34.74346924,65.93515015,1,0,0,response7disk,,0,-13.3571167,13.34509277,1,0,0,rectangle,-13.3571167,13.34509277,1,0,0,-13.3571167,13.34509277,1,0,0,1,57,217,94,1,,,,,,,,
,,,,,,,,,,,,,FF,,,,,,,,1.0672,,,,,,,,,,,,,,,,,,,,,,61008b3cfe1543cea836dcee,610378baa44862f47913e481,2021-07-29_23h58.19.775,Simcolourproject_2stim_asymm_v5,2020.2.10,MacIntel,60,61025ae37ef11b136ea224fe,,,,,,,,,1104,35.24285889,69.46020508,1,0,0,response1disk,,7,-11.6965332,-1.488708496,1,0,0,rectangle,-11.6965332,-1.488708496,1,0,0,-11.6965332,-1.488708496,1,0,0,1,58,218,84,1,,,,,,,,
,,,,,,,,,,,,,FF,,,,,,,,1.269,,,,,,,,,,,,,,,,,,,,,,61008b3cfe1543cea836dcee,610378baa44862f47913e481,2021-07-29_23h58.19.775,Simcolourproject_2stim_asymm_v5,2020.2.10,MacIntel,60,61025ae37ef11b136ea224fe,,,,,,,,,3040,43.79577637,-73.1366272,1,0,0,response3disk,,4,24.45050049,5.213562012,1,0,0,rectangle,24.45050049,5.213562012,1,0,0,24.45050049,5.213562012,1,0,0,1,59,219,20,1,,,,,,,,
,,,,,,,,,,,,,FF,,,,,,,,0.8353,,,,,,,,,,,,,,,,,,,,,,61008b3cfe1543cea836dcee,610378baa44862f47913e481,2021-07-29_23h58.19.775,Simcolourproject_2stim_asymm_v5,2020.2.10,MacIntel,60,61025ae37ef11b136ea224fe,,,,,,,,,2826,37.74908447,-80.51675415,1,0,0,response3disk,,4,14.57495117,-13.88449097,1,0,0,rectangle,14.57495117,-13.88449097,1,0,0,14.57495117,-13.88449097,1,0,0,1,60,220,49,1,,,,,,,,
,,,,,,,,,,,,,FF,,,,,,,,0.8179,,,,,,,,,,,,,,,,,,,,,,61008b3cfe1543cea836dcee,610378baa44862f47913e481,2021-07-29_23h58.19.775,Simcolourproject_2stim_asymm_v5,2020.2.10,MacIntel,60,61025ae37ef11b136ea224fe,,,,,,,,,3114,34.53320313,-59.61743164,1,0,0,response3disk,,4,5.679931641,-6.025146484,1,0,0,rectangle,5.679931641,-6.025146484,1,0,0,5.679931641,-6.025146484,1,0,0,1,61,221,116,1,,,,,,,,
,,,,,,,,,,,,,FF,,,,,,,,0.9019,,,,,,,,,,,,,,,,,,,,,,61008b3cfe1543cea836dcee,610378baa44862f47913e481,2021-07-29_23h58.19.775,Simcolourproject_2stim_asymm_v5,2020.2.10,MacIntel,60,61025ae37ef11b136ea224fe,,,,,,,,,556,-48.10693359,-63.99468994,1,0,0,response5disk,,3,-5.176818848,-0.190582275,1,0,0,rectangle,-5.176818848,-0.190582275,1,0,0,-5.176818848,-0.190582275,1,0,0,1,62,222,28,1,,,,,,,,
,,,,,,,,,,,,,FF,,,,,,,,0.7342,,,,,,,,,,,,,,,,,,,,,,61008b3cfe1543cea836dcee,610378baa44862f47913e481,2021-07-29_23h58.19.775,Simcolourproject_2stim_asymm_v5,2020.2.10,MacIntel,60,61025ae37ef11b136ea224fe,,,,,,,,,1441,41.82147217,-56.37582397,1,0,0,response3disk,,4,6.963684082,-4.543548584,1,0,0,rectangle,6.963684082,-4.543548584,1,0,0,6.963684082,-4.543548584,1,0,0,1,63,223,53,1,,,,,,,,
,,,,,,,,,,,,,FF,,,,,,,,0.7689,,,,,,,,,,,,,,,,,,,,,,61008b3cfe1543cea836dcee,610378baa44862f47913e481,2021-07-29_23h58.19.775,Simcolourproject_2stim_asymm_v5,2020.2.10,MacIntel,60,61025ae37ef11b136ea224fe,,,,,,,,,3958,31.2855835,74.96514893,1,0,0,response1disk,,7,5.610778809,-1.883728027,1,0,0,rectangle,5.610778809,-1.883728027,1,0,0,5.610778809,-1.883728027,1,0,0,1,64,224,152,1,,,,,,,,
,,,,,,,,,,,,,FF,,,,,,,,0.7667,,,,,,,,,,,,,,,,,,,,,,61008b3cfe1543cea836dcee,610378baa44862f47913e481,2021-07-29_23h58.19.775,Simcolourproject_2stim_asymm_v5,2020.2.10,MacIntel,60,61025ae37ef11b136ea224fe,,,,,,,,,1710,40.53314209,78.12420654,1,0,0,response1disk,,7,5.71484375,6.788604736,1,0,0,rectangle,5.71484375,6.788604736,1,0,0,5.71484375,6.788604736,1,0,0,1,65,225,27,1,,,,,,,,
,,,,,,,,,,,,,FF,,,,,,,,0.4342,,,,,,,,,,,,,,,,,,,,,,61008b3cfe1543cea836dcee,610378baa44862f47913e481,2021-07-29_23h58.19.775,Simcolourproject_2stim_asymm_v5,2020.2.10,MacIntel,60,61025ae37ef11b136ea224fe,,,,,,,,,2609,36.63684082,85.4161377,1,0,0,response1disk,,7,15.33636475,10.6322937,1,0,0,rectangle,15.33636475,10.6322937,1,0,0,15.33636475,10.6322937,1,0,0,1,66,226,70,1,,,,,,,,
,,,,,,,,,,,,,FF,,,,,,,,0.7503,,,,,,,,,,,,,,,,,,,,,,61008b3cfe1543cea836dcee,610378baa44862f47913e481,2021-07-29_23h58.19.775,Simcolourproject_2stim_asymm_v5,2020.2.10,MacIntel,60,61025ae37ef11b136ea224fe,,,,,,,,,396,-69.11651611,-39.14685059,1,0,0,response5disk,,2,0.071044922,-15.59127808,1,0,0,rectangle,0.071044922,-15.59127808,1,0,0,0.071044922,-15.59127808,1,0,0,1,67,227,0,1,,,,,,,,
,,,,,,,,,,,,,FF,,,,,,,,0.5666,,,,,,,,,,,,,,,,,,,,,,61008b3cfe1543cea836dcee,610378baa44862f47913e481,2021-07-29_23h58.19.775,Simcolourproject_2stim_asymm_v5,2020.2.10,MacIntel,60,61025ae37ef11b136ea224fe,,,,,,,,,1060,38.92425537,64.07019043,1,0,0,response1disk,,7,4.542785645,4.421295166,1,0,0,rectangle,4.542785645,4.421295166,1,0,0,4.542785645,4.421295166,1,0,0,1,68,228,23,1,,,,,,,,
,,,,,,,,,,,,,FF,,,,,,,,0.8333,,,,,,,,,,,,,,,,,,,,,,61008b3cfe1543cea836dcee,610378baa44862f47913e481,2021-07-29_23h58.19.775,Simcolourproject_2stim_asymm_v5,2020.2.10,MacIntel,60,61025ae37ef11b136ea224fe,,,,,,,,,47,32.51147461,68.2512207,1,0,0,response1disk,,7,-4.309020996,14.50402832,1,0,0,rectangle,-4.309020996,14.50402832,1,0,0,-4.309020996,14.50402832,1,0,0,1,69,229,123,1,,,,,,,,
,,,,,,,,,,,,,FF,,,,,,,,0.6008,,,,,,,,,,,,,,,,,,,,,,61008b3cfe1543cea836dcee,610378baa44862f47913e481,2021-07-29_23h58.19.775,Simcolourproject_2stim_asymm_v5,2020.2.10,MacIntel,60,61025ae37ef11b136ea224fe,,,,,,,,,3319,31.97674561,67.62966919,1,0,0,response1disk,,7,-6.840820313,-7.598419189,1,0,0,rectangle,-6.840820313,-7.598419189,1,0,0,-6.840820313,-7.598419189,1,0,0,1,70,230,12,1,,,,,,,,
,,,,,,,,,,,,,FF,,,,,,,,0.9353,,,,,,,,,,,,,,,,,,,,,,61008b3cfe1543cea836dcee,610378baa44862f47913e481,2021-07-29_23h58.19.775,Simcolourproject_2stim_asymm_v5,2020.2.10,MacIntel,60,61025ae37ef11b136ea224fe,,,,,,,,,1151,-73.63006592,42.64401245,1,0,0,response7disk,,1,-2.681274414,5.493530273,1,0,0,rectangle,-2.681274414,5.493530273,1,0,0,-2.681274414,5.493530273,1,0,0,1,71,231,73,1,,,,,,,,
,,,,,,,,,,,,,FF,,,,,,,,0.734,,,,,,,,,,,,,,,,,,,,,,61008b3cfe1543cea836dcee,610378baa44862f47913e481,2021-07-29_23h58.19.775,Simcolourproject_2stim_asymm_v5,2020.2.10,MacIntel,60,61025ae37ef11b136ea224fe,,,,,,,,,3625,-86.01831055,21.87112427,1,0,0,response7disk,,1,-11.0423584,-8.58013916,1,0,0,rectangle,-11.0423584,-8.58013916,1,0,0,-11.0423584,-8.58013916,1,0,0,1,72,232,141,1,,,,,,,,
,,,,,,,,,,,,,FF,,,,,,,,0.844,,,,,,,,,,,,,,,,,,,,,,61008b3cfe1543cea836dcee,610378baa44862f47913e481,2021-07-29_23h58.19.775,Simcolourproject_2stim_asymm_v5,2020.2.10,MacIntel,60,61025ae37ef11b136ea224fe,,,,,,,,,2976,24.2019043,71.36138916,1,0,0,response1disk,,7,-3.055541992,-0.933807373,1,0,0,rectangle,-3.055541992,-0.933807373,1,0,0,-3.055541992,-0.933807373,1,0,0,1,73,233,92,1,,,,,,,,
,,,,,,,,,,,,,FF,,,,,,,,1.7002,,,,,,,,,,,,,,,,,,,,,,61008b3cfe1543cea836dcee,610378baa44862f47913e481,2021-07-29_23h58.19.775,Simcolourproject_2stim_asymm_v5,2020.2.10,MacIntel,60,61025ae37ef11b136ea224fe,,,,,,,,,357,41.25341797,71.5447998,1,0,0,response1disk,,7,-9.795959473,11.36456299,1,0,0,rectangle,-9.795959473,11.36456299,1,0,0,-9.795959473,11.36456299,1,0,0,1,74,234,74,1,,,,,,,,
,,,,,,,,,,,,,FF,,,,,,,,0.7016,,,,,,,,,,,,,,,,,,,,,,61008b3cfe1543cea836dcee,610378baa44862f47913e481,2021-07-29_23h58.19.775,Simcolourproject_2stim_asymm_v5,2020.2.10,MacIntel,60,61025ae37ef11b136ea224fe,,,,,,,,,2593,-65.36987305,26.34954834,1,0,0,response7disk,,1,-12.11126709,-4.983062744,1,0,0,rectangle,-12.11126709,-4.983062744,1,0,0,-12.11126709,-4.983062744,1,0,0,1,75,235,128,1,,,,,,,,
,,,,,,,,,,,,,FF,,,,,,,,0.783,,,,,,,,,,,,,,,,,,,,,,61008b3cfe1543cea836dcee,610378baa44862f47913e481,2021-07-29_23h58.19.775,Simcolourproject_2stim_asymm_v5,2020.2.10,MacIntel,60,61025ae37ef11b136ea224fe,,,,,,,,,1387,39.06280518,84.7616272,1,0,0,response1disk,,7,0.616088867,10.98352051,1,0,0,rectangle,0.616088867,10.98352051,1,0,0,0.616088867,10.98352051,1,0,0,1,76,236,98,1,,,,,,,,
,,,,,,,,,,,,,FF,,,,,,,,0.5668,,,,,,,,,,,,,,,,,,,,,,61008b3cfe1543cea836dcee,610378baa44862f47913e481,2021-07-29_23h58.19.775,Simcolourproject_2stim_asymm_v5,2020.2.10,MacIntel,60,61025ae37ef11b136ea224fe,,,,,,,,,3661,-61.29406738,30.78826904,1,0,0,response7disk,,1,12.4196167,8.307006836,1,0,0,rectangle,12.4196167,8.307006836,1,0,0,12.4196167,8.307006836,1,0,0,1,77,237,52,1,,,,,,,,
,,,,,,,,,,,,,FF,,,,,,,,0.7339,,,,,,,,,,,,,,,,,,,,,,61008b3cfe1543cea836dcee,610378baa44862f47913e481,2021-07-29_23h58.19.775,Simcolourproject_2stim_asymm_v5,2020.2.10,MacIntel,60,61025ae37ef11b136ea224fe,,,,,,,,,2602,-88.69226074,20.42166138,1,0,0,response7disk,,1,-14.6887207,5.358459473,1,0,0,rectangle,-14.6887207,5.358459473,1,0,0,-14.6887207,5.358459473,1,0,0,1,78,238,6,1,,,,,,,,
,,,,,,,,,,,,,FF,,,,,,,,0.5,,,,,,,,,,,,,,,,,,,,,,61008b3cfe1543cea836dcee,610378baa44862f47913e481,2021-07-29_23h58.19.775,Simcolourproject_2stim_asymm_v5,2020.2.10,MacIntel,60,61025ae37ef11b136ea224fe,,,,,,,,,2832,-72.39605713,36.90472412,1,0,0,response7disk,,1,-7.07800293,-5.610595703,1,0,0,rectangle,-7.07800293,-5.610595703,1,0,0,-7.07800293,-5.610595703,1,0,0,1,79,239,124,1,,,,,,,,
,,,,,,,,,,,,,FF,,,,,,,,0.7504,,,,,,,,,,,,,,,,,,,,,,61008b3cfe1543cea836dcee,610378baa44862f47913e481,2021-07-29_23h58.19.775,Simcolourproject_2stim_asymm_v5,2020.2.10,MacIntel,60,61025ae37ef11b136ea224fe,,,,,,,,,2201,30.62805176,74.70037842,1,0,0,response1disk,,7,-7.865478516,10.85968018,1,0,0,rectangle,-7.865478516,10.85968018,1,0,0,-7.865478516,10.85968018,1,0,0,1,80,240,46,1,,,,,,,,
,,,,,,,,,,,,,FF,,,,,,,,0.7665,,,,,,,,,,,,,,,,,,,,,,61008b3cfe1543cea836dcee,610378baa44862f47913e481,2021-07-29_23h58.19.775,Simcolourproject_2stim_asymm_v5,2020.2.10,MacIntel,60,61025ae37ef11b136ea224fe,,,,,,,,,1371,-34.01818848,-79.22790527,1,0,0,response5disk,,3,-3.514038086,-5.400939941,1,0,0,rectangle,-3.514038086,-5.400939941,1,0,0,-3.514038086,-5.400939941,1,0,0,1,81,241,117,1,,,,,,,,
