key_resp.keys,key_resp.rt,key_resp_14.keys,key_resp_14.rt,key_resp_15.keys,key_resp_15.rt,key_resp_17.keys,key_resp_17.rt,key_resp_9.keys,key_resp_9.rt,key_resp_10.keys,key_resp_10.rt,practice_comparison,Ecc,mouse_5.x,mouse_5.y,mouse_5.leftButton,mouse_5.midButton,mouse_5.rightButton,mouse_5.clicked_name,pracsimilarity,response_time,mouse_10.x,mouse_10.y,mouse_10.leftButton,mouse_10.midButton,mouse_10.rightButton,mouse_10.clicked_name,mouse_7.x,mouse_7.y,mouse_7.leftButton,mouse_7.midButton,mouse_7.rightButton,mouse_6.x,mouse_6.y,mouse_6.leftButton,mouse_6.midButton,mouse_6.rightButton,duringprac.thisRepN,duringprac.thisTrialN,duringprac.thisN,duringprac.thisIndex,duringprac.ran,participant,session,date,expName,psychopyVersion,OS,frameRate,study_id,mouse_7.clicked_name,catchpracsimilarity,catch_response_time,catchnumberprac,catchtrialorderprac,mouse_6.clicked_name,key_resp_22.keys,key_resp_22.rt,realcomparison,mouse.x,mouse.y,mouse.leftButton,mouse.midButton,mouse.rightButton,mouse.clicked_name,Colour2,similarity,mouse_2.x,mouse_2.y,mouse_2.leftButton,mouse_2.midButton,mouse_2.rightButton,mouse_2.clicked_name,mouse_3.x,mouse_3.y,mouse_3.leftButton,mouse_3.midButton,mouse_3.rightButton,mouse_11.x,mouse_11.y,mouse_11.leftButton,mouse_11.midButton,mouse_11.rightButton,trials_2.thisRepN,trials_2.thisTrialN,trials_2.thisN,trials_2.thisIndex,trials_2.ran,Colour1,mouse_3.clicked_name,catchornah,catchsimilarity,catchnumber,catchtrialorder,catchRT,mouse_11.clicked_name
space,1.7097,space,25.2186,space,33.0014,space,7.5732,space,0.9542,space,2.9903,101,PF,68,113,1,0,0,response1disk_5,7,4.5226,-9,-5,1,0,0,rectangle_8,-9,-5,1,0,0,-9,-5,1,0,0,0,0,0,2,1,61003c15bb9c1a8561eac292,61036bc74359aaedd3b9c352,2021-07-29_22h03.04.848,Simcolourproject_2stim_asymm_v5,2020.2.10,Win32,60,61025ae37ef11b136ea224fe,,,,,,,,,,,,,,,,,,,,,,,,,,,,,,,,,,,,,,,,,,,,,,
,,,,,,,,,,,,126,FF,133,-64,1,0,0,response3disk_5,5,5.3543,15,-8,1,0,0,rectangle_8,-63,121,1,0,0,-1,-10,1,0,0,0,1,1,3,1,61003c15bb9c1a8561eac292,61036bc74359aaedd3b9c352,2021-07-29_22h03.04.848,Simcolourproject_2stim_asymm_v5,2020.2.10,Win32,60,61025ae37ef11b136ea224fe,response7disk_7,0,2.4355,0,"[2,5]",rectangle_4,,,,,,,,,,,,,,,,,,,,,,,,,,,,,,,,,,,,,,,,
,,,,,,,,,,,,91,PF,63,112,1,0,0,response1disk_5,7,4.3034,3,-7,1,0,0,rectangle_8,3,-7,1,0,0,3,-7,1,0,0,0,2,2,6,1,61003c15bb9c1a8561eac292,61036bc74359aaedd3b9c352,2021-07-29_22h03.04.848,Simcolourproject_2stim_asymm_v5,2020.2.10,Win32,60,61025ae37ef11b136ea224fe,,,,,,,,,,,,,,,,,,,,,,,,,,,,,,,,,,,,,,,,,,,,,,
,,,,,,,,,,,,78,FF,40,122,1,0,0,response1disk_5,7,0.7505,18,-6,1,0,0,rectangle_8,18,-6,1,0,0,18,-6,1,0,0,0,3,3,5,1,61003c15bb9c1a8561eac292,61036bc74359aaedd3b9c352,2021-07-29_22h03.04.848,Simcolourproject_2stim_asymm_v5,2020.2.10,Win32,60,61025ae37ef11b136ea224fe,,,,,,,,,,,,,,,,,,,,,,,,,,,,,,,,,,,,,,,,,,,,,,
,,,,,,,,,,,,130,FF,-90,144,1,0,0,response7disk_5,0,1.8346,33,-6,1,0,0,rectangle_8,-46,152,1,0,0,6,3,1,0,0,0,4,4,0,1,61003c15bb9c1a8561eac292,61036bc74359aaedd3b9c352,2021-07-29_22h03.04.848,Simcolourproject_2stim_asymm_v5,2020.2.10,Win32,60,61025ae37ef11b136ea224fe,response7disk_7,0,1.6344,0,"[2,5]",rectangle_4,,,,,,,,,,,,,,,,,,,,,,,,,,,,,,,,,,,,,,,,
,,,,,,,,,,,,106,PF,86,-52,1,0,0,response3disk_5,5,6.6886,-3,-12,1,0,0,rectangle_8,-3,-12,1,0,0,-3,-12,1,0,0,0,5,5,1,1,61003c15bb9c1a8561eac292,61036bc74359aaedd3b9c352,2021-07-29_22h03.04.848,Simcolourproject_2stim_asymm_v5,2020.2.10,Win32,60,61025ae37ef11b136ea224fe,,,,,,,,,,,,,,,,,,,,,,,,,,,,,,,,,,,,,,,,,,,,,,
,,,,,,,,,,,,123,PF,-59,-98,1,0,0,response5disk_5,3,2.552,-28,6,1,0,0,rectangle_8,-28,6,1,0,0,-28,6,1,0,0,0,6,6,4,1,61003c15bb9c1a8561eac292,61036bc74359aaedd3b9c352,2021-07-29_22h03.04.848,Simcolourproject_2stim_asymm_v5,2020.2.10,Win32,60,61025ae37ef11b136ea224fe,,,,,,,,,,,,,,,,,,,,,,,,,,,,,,,,,,,,,,,,,,,,,,
,,,,,,,,,,,,,FF,,,,,,,,2.4523,,,,,,,,,,,,,,,,,,,,,,61003c15bb9c1a8561eac292,61036bc74359aaedd3b9c352,2021-07-29_22h03.04.848,Simcolourproject_2stim_asymm_v5,2020.2.10,Win32,60,61025ae37ef11b136ea224fe,,,,,,,space,4.162,4108,-43,-112,1,0,0,response5disk,,3,3,12,1,0,0,rectangle,3,12,1,0,0,3,12,1,0,0,0,0,0,21,1,,,,,,,,
,,,,,,,,,,,,,FF,,,,,,,,1.5012,,,,,,,,,,,,,,,,,,,,,,61003c15bb9c1a8561eac292,61036bc74359aaedd3b9c352,2021-07-29_22h03.04.848,Simcolourproject_2stim_asymm_v5,2020.2.10,Win32,60,61025ae37ef11b136ea224fe,,,,,,,,,3330,43,-116,1,0,0,response3disk,,4,-5,1,1,0,0,rectangle,-5,1,1,0,0,-5,1,1,0,0,0,1,1,45,1,,,,,,,,
,,,,,,,,,,,,,FF,,,,,,,,2.5688,,,,,,,,,,,,,,,,,,,,,,61003c15bb9c1a8561eac292,61036bc74359aaedd3b9c352,2021-07-29_22h03.04.848,Simcolourproject_2stim_asymm_v5,2020.2.10,Win32,60,61025ae37ef11b136ea224fe,,,,,,,,,50,123,39,1,0,0,response1disk,,6,0,5,1,0,0,rectangle,0,5,1,0,0,0,5,1,0,0,0,2,2,126,1,,,,,,,,
,,,,,,,,,,,,,FF,,,,,,,,1.2678,,,,,,,,,,,,,,,,,,,,,,61003c15bb9c1a8561eac292,61036bc74359aaedd3b9c352,2021-07-29_22h03.04.848,Simcolourproject_2stim_asymm_v5,2020.2.10,Win32,60,61025ae37ef11b136ea224fe,,,,,,,,,1429,-65,-134,1,0,0,response5disk,,3,11,13,1,0,0,rectangle,11,13,1,0,0,11,13,1,0,0,0,3,3,95,1,,,,,,,,
,,,,,,,,,,,,,FF,,,,,,,,1.618,,,,,,,,,,,,,,,,,,,,,,61003c15bb9c1a8561eac292,61036bc74359aaedd3b9c352,2021-07-29_22h03.04.848,Simcolourproject_2stim_asymm_v5,2020.2.10,Win32,60,61025ae37ef11b136ea224fe,,,,,,,,,4230,60,120,1,0,0,response1disk,,7,-1,-13,1,0,0,rectangle,-1,-13,1,0,0,-1,-13,1,0,0,0,4,4,58,1,,,,,,,,
,,,,,,,,,,,,,FF,,,,,,,,1.3677,,,,,,,,,,,,,,,,,,,,,,61003c15bb9c1a8561eac292,61036bc74359aaedd3b9c352,2021-07-29_22h03.04.848,Simcolourproject_2stim_asymm_v5,2020.2.10,Win32,60,61025ae37ef11b136ea224fe,,,,,,,,,2373,116,59,1,0,0,response1disk,,6,9,-6,1,0,0,rectangle,9,-6,1,0,0,9,-6,1,0,0,0,5,5,41,1,,,,,,,,
,,,,,,,,,,,,,FF,,,,,,,,0.8841,,,,,,,,,,,,,,,,,,,,,,61003c15bb9c1a8561eac292,61036bc74359aaedd3b9c352,2021-07-29_22h03.04.848,Simcolourproject_2stim_asymm_v5,2020.2.10,Win32,60,61025ae37ef11b136ea224fe,,,,,,,,,543,-77,124,1,0,0,response7disk,,0,11,1,1,0,0,rectangle,-122,54,1,0,0,-16,1,1,0,0,0,6,6,13,1,,response7disk_3,TRUE,1,1,"[142,68,92,14,41,155,111,76,311,165,42,7,304,94,295,55,250,289,250,161]",1.5513,rectangle
,,,,,,,,,,,,,FF,,,,,,,,1.1512,,,,,,,,,,,,,,,,,,,,,,61003c15bb9c1a8561eac292,61036bc74359aaedd3b9c352,2021-07-29_22h03.04.848,Simcolourproject_2stim_asymm_v5,2020.2.10,Win32,60,61025ae37ef11b136ea224fe,,,,,,,,,1896,-107,-46,1,0,0,response5disk,,2,19,15,1,0,0,rectangle,19,15,1,0,0,19,15,1,0,0,0,7,7,158,1,,,,,,,,
,,,,,,,,,,,,,FF,,,,,,,,0.9841,,,,,,,,,,,,,,,,,,,,,,61003c15bb9c1a8561eac292,61036bc74359aaedd3b9c352,2021-07-29_22h03.04.848,Simcolourproject_2stim_asymm_v5,2020.2.10,Win32,60,61025ae37ef11b136ea224fe,,,,,,,,,787,61,-122,1,0,0,response3disk,,4,-5,0,1,0,0,rectangle,-5,0,1,0,0,-5,0,1,0,0,0,8,8,82,1,,,,,,,,
,,,,,,,,,,,,,FF,,,,,,,,3.8529,,,,,,,,,,,,,,,,,,,,,,61003c15bb9c1a8561eac292,61036bc74359aaedd3b9c352,2021-07-29_22h03.04.848,Simcolourproject_2stim_asymm_v5,2020.2.10,Win32,60,61025ae37ef11b136ea224fe,,,,,,,,,1019,130,-35,1,0,0,response3disk,,5,-3,10,1,0,0,rectangle,-3,10,1,0,0,-3,10,1,0,0,0,9,9,136,1,,,,,,,,
,,,,,,,,,,,,,FF,,,,,,,,1.985,,,,,,,,,,,,,,,,,,,,,,61003c15bb9c1a8561eac292,61036bc74359aaedd3b9c352,2021-07-29_22h03.04.848,Simcolourproject_2stim_asymm_v5,2020.2.10,Win32,60,61025ae37ef11b136ea224fe,,,,,,,,,591,119,55,1,0,0,response1disk,,6,5,7,1,0,0,rectangle,5,7,1,0,0,5,7,1,0,0,0,10,10,48,1,,,,,,,,
,,,,,,,,,,,,,FF,,,,,,,,0.7172,,,,,,,,,,,,,,,,,,,,,,61003c15bb9c1a8561eac292,61036bc74359aaedd3b9c352,2021-07-29_22h03.04.848,Simcolourproject_2stim_asymm_v5,2020.2.10,Win32,60,61025ae37ef11b136ea224fe,,,,,,,,,2016,70,120,1,0,0,response1disk,,7,12,0,1,0,0,rectangle,12,0,1,0,0,12,0,1,0,0,0,11,11,69,1,,,,,,,,
,,,,,,,,,,,,,FF,,,,,,,,0.6505,,,,,,,,,,,,,,,,,,,,,,61003c15bb9c1a8561eac292,61036bc74359aaedd3b9c352,2021-07-29_22h03.04.848,Simcolourproject_2stim_asymm_v5,2020.2.10,Win32,60,61025ae37ef11b136ea224fe,,,,,,,,,4139,63,113,1,0,0,response1disk,,7,16,2,1,0,0,rectangle,16,2,1,0,0,16,2,1,0,0,0,12,12,105,1,,,,,,,,
,,,,,,,,,,,,,FF,,,,,,,,0.6334,,,,,,,,,,,,,,,,,,,,,,61003c15bb9c1a8561eac292,61036bc74359aaedd3b9c352,2021-07-29_22h03.04.848,Simcolourproject_2stim_asymm_v5,2020.2.10,Win32,60,61025ae37ef11b136ea224fe,,,,,,,,,1320,66,115,1,0,0,response1disk,,7,13,-12,1,0,0,rectangle,42,-114,1,0,0,0,14,1,0,0,0,13,13,57,1,,response3disk_3,TRUE,4,4,"[142,68,92,14,41,155,111,76,311,165,42,7,304,94,295,55,250,289,250,161]",1.5678,rectangle
,,,,,,,,,,,,,FF,,,,,,,,1.2676,,,,,,,,,,,,,,,,,,,,,,61003c15bb9c1a8561eac292,61036bc74359aaedd3b9c352,2021-07-29_22h03.04.848,Simcolourproject_2stim_asymm_v5,2020.2.10,Win32,60,61025ae37ef11b136ea224fe,,,,,,,,,3057,-132,51,1,0,0,response7disk,,1,-20,0,1,0,0,rectangle,-20,0,1,0,0,-20,0,1,0,0,0,14,14,6,1,,,,,,,,
,,,,,,,,,,,,,FF,,,,,,,,1.0345,,,,,,,,,,,,,,,,,,,,,,61003c15bb9c1a8561eac292,61036bc74359aaedd3b9c352,2021-07-29_22h03.04.848,Simcolourproject_2stim_asymm_v5,2020.2.10,Win32,60,61025ae37ef11b136ea224fe,,,,,,,,,612,67,113,1,0,0,response1disk,,7,29,9,1,0,0,rectangle,29,9,1,0,0,29,9,1,0,0,0,15,15,87,1,,,,,,,,
,,,,,,,,,,,,,FF,,,,,,,,0.884,,,,,,,,,,,,,,,,,,,,,,61003c15bb9c1a8561eac292,61036bc74359aaedd3b9c352,2021-07-29_22h03.04.848,Simcolourproject_2stim_asymm_v5,2020.2.10,Win32,60,61025ae37ef11b136ea224fe,,,,,,,,,1033,43,112,1,0,0,response1disk,,7,19,-8,1,0,0,rectangle,19,-8,1,0,0,19,-8,1,0,0,0,16,16,86,1,,,,,,,,
,,,,,,,,,,,,,FF,,,,,,,,1.1015,,,,,,,,,,,,,,,,,,,,,,61003c15bb9c1a8561eac292,61036bc74359aaedd3b9c352,2021-07-29_22h03.04.848,Simcolourproject_2stim_asymm_v5,2020.2.10,Win32,60,61025ae37ef11b136ea224fe,,,,,,,,,2229,-106,-65,1,0,0,response5disk,,2,-30,-3,1,0,0,rectangle,-30,-3,1,0,0,-30,-3,1,0,0,0,17,17,35,1,,,,,,,,
,,,,,,,,,,,,,FF,,,,,,,,1.0842,,,,,,,,,,,,,,,,,,,,,,61003c15bb9c1a8561eac292,61036bc74359aaedd3b9c352,2021-07-29_22h03.04.848,Simcolourproject_2stim_asymm_v5,2020.2.10,Win32,60,61025ae37ef11b136ea224fe,,,,,,,,,1680,-114,-46,1,0,0,response5disk,,2,-2,11,1,0,0,rectangle,-2,11,1,0,0,-2,11,1,0,0,0,18,18,85,1,,,,,,,,
,,,,,,,,,,,,,FF,,,,,,,,0.4672,,,,,,,,,,,,,,,,,,,,,,61003c15bb9c1a8561eac292,61036bc74359aaedd3b9c352,2021-07-29_22h03.04.848,Simcolourproject_2stim_asymm_v5,2020.2.10,Win32,60,61025ae37ef11b136ea224fe,,,,,,,,,1754,-89,-36,1,0,0,response5disk,,2,11,16,1,0,0,rectangle,11,16,1,0,0,11,16,1,0,0,0,19,19,89,1,,,,,,,,
,,,,,,,,,,,,,FF,,,,,,,,1.4845,,,,,,,,,,,,,,,,,,,,,,61003c15bb9c1a8561eac292,61036bc74359aaedd3b9c352,2021-07-29_22h03.04.848,Simcolourproject_2stim_asymm_v5,2020.2.10,Win32,60,61025ae37ef11b136ea224fe,,,,,,,,,1879,55,-109,1,0,0,response3disk,,4,15,-3,1,0,0,rectangle,15,-3,1,0,0,15,-3,1,0,0,0,20,20,4,1,,,,,,,,
,,,,,,,,,,,,,FF,,,,,,,,1.0511,,,,,,,,,,,,,,,,,,,,,,61003c15bb9c1a8561eac292,61036bc74359aaedd3b9c352,2021-07-29_22h03.04.848,Simcolourproject_2stim_asymm_v5,2020.2.10,Win32,60,61025ae37ef11b136ea224fe,,,,,,,,,1806,62,113,1,0,0,response1disk,,7,-31,-2,1,0,0,rectangle,-31,-2,1,0,0,-31,-2,1,0,0,0,21,21,40,1,,,,,,,,
,,,,,,,,,,,,,FF,,,,,,,,1.2675,,,,,,,,,,,,,,,,,,,,,,61003c15bb9c1a8561eac292,61036bc74359aaedd3b9c352,2021-07-29_22h03.04.848,Simcolourproject_2stim_asymm_v5,2020.2.10,Win32,60,61025ae37ef11b136ea224fe,,,,,,,,,217,134,-76,1,0,0,response3disk,,5,-2,-12,1,0,0,rectangle,-2,-12,1,0,0,-2,-12,1,0,0,0,22,22,1,1,,,,,,,,
,,,,,,,,,,,,,FF,,,,,,,,0.9342,,,,,,,,,,,,,,,,,,,,,,61003c15bb9c1a8561eac292,61036bc74359aaedd3b9c352,2021-07-29_22h03.04.848,Simcolourproject_2stim_asymm_v5,2020.2.10,Win32,60,61025ae37ef11b136ea224fe,,,,,,,,,268,102,-55,1,0,0,response3disk,,5,-10,6,1,0,0,rectangle,-10,6,1,0,0,-10,6,1,0,0,0,23,23,97,1,,,,,,,,
,,,,,,,,,,,,,FF,,,,,,,,0.9341,,,,,,,,,,,,,,,,,,,,,,61003c15bb9c1a8561eac292,61036bc74359aaedd3b9c352,2021-07-29_22h03.04.848,Simcolourproject_2stim_asymm_v5,2020.2.10,Win32,60,61025ae37ef11b136ea224fe,,,,,,,,,1487,67,93,1,0,0,response1disk,,7,17,1,1,0,0,rectangle,17,1,1,0,0,17,1,1,0,0,0,24,24,151,1,,,,,,,,
,,,,,,,,,,,,,FF,,,,,,,,1.3512,,,,,,,,,,,,,,,,,,,,,,61003c15bb9c1a8561eac292,61036bc74359aaedd3b9c352,2021-07-29_22h03.04.848,Simcolourproject_2stim_asymm_v5,2020.2.10,Win32,60,61025ae37ef11b136ea224fe,,,,,,,,,2450,105,40,1,0,0,response1disk,,6,13,0,1,0,0,rectangle,13,0,1,0,0,13,0,1,0,0,0,25,25,108,1,,,,,,,,
,,,,,,,,,,,,,FF,,,,,,,,0.7838,,,,,,,,,,,,,,,,,,,,,,61003c15bb9c1a8561eac292,61036bc74359aaedd3b9c352,2021-07-29_22h03.04.848,Simcolourproject_2stim_asymm_v5,2020.2.10,Win32,60,61025ae37ef11b136ea224fe,,,,,,,,,1119,138,-77,1,0,0,response3disk,,5,-11,-4,1,0,0,rectangle,-11,-4,1,0,0,-11,-4,1,0,0,0,26,26,96,1,,,,,,,,
,,,,,,,,,,,,,FF,,,,,,,,1.0175,,,,,,,,,,,,,,,,,,,,,,61003c15bb9c1a8561eac292,61036bc74359aaedd3b9c352,2021-07-29_22h03.04.848,Simcolourproject_2stim_asymm_v5,2020.2.10,Win32,60,61025ae37ef11b136ea224fe,,,,,,,,,2753,35,102,1,0,0,response1disk,,7,-12,5,1,0,0,rectangle,-12,5,1,0,0,-12,5,1,0,0,0,27,27,117,1,,,,,,,,
,,,,,,,,,,,,,FF,,,,,,,,1.0676,,,,,,,,,,,,,,,,,,,,,,61003c15bb9c1a8561eac292,61036bc74359aaedd3b9c352,2021-07-29_22h03.04.848,Simcolourproject_2stim_asymm_v5,2020.2.10,Win32,60,61025ae37ef11b136ea224fe,,,,,,,,,839,67,104,1,0,0,response1disk,,7,12,1,1,0,0,rectangle,12,1,1,0,0,12,1,1,0,0,0,28,28,36,1,,,,,,,,
,,,,,,,,,,,,,FF,,,,,,,,0.8339,,,,,,,,,,,,,,,,,,,,,,61003c15bb9c1a8561eac292,61036bc74359aaedd3b9c352,2021-07-29_22h03.04.848,Simcolourproject_2stim_asymm_v5,2020.2.10,Win32,60,61025ae37ef11b136ea224fe,,,,,,,,,3101,-122,-77,1,0,0,response5disk,,2,-10,4,1,0,0,rectangle,-10,4,1,0,0,-10,4,1,0,0,0,29,29,68,1,,,,,,,,
,,,,,,,,,,,,,FF,,,,,,,,0.7003,,,,,,,,,,,,,,,,,,,,,,61003c15bb9c1a8561eac292,61036bc74359aaedd3b9c352,2021-07-29_22h03.04.848,Simcolourproject_2stim_asymm_v5,2020.2.10,Win32,60,61025ae37ef11b136ea224fe,,,,,,,,,2661,-103,36,1,0,0,response7disk,,1,27,1,1,0,0,rectangle,27,1,1,0,0,27,1,1,0,0,0,30,30,102,1,,,,,,,,
,,,,,,,,,,,,,FF,,,,,,,,1.2675,,,,,,,,,,,,,,,,,,,,,,61003c15bb9c1a8561eac292,61036bc74359aaedd3b9c352,2021-07-29_22h03.04.848,Simcolourproject_2stim_asymm_v5,2020.2.10,Win32,60,61025ae37ef11b136ea224fe,,,,,,,,,2907,119,-77,1,0,0,response3disk,,5,-14,-11,1,0,0,rectangle,-14,-11,1,0,0,-14,-11,1,0,0,0,31,31,155,1,,,,,,,,
,,,,,,,,,,,,,FF,,,,,,,,2.4186,,,,,,,,,,,,,,,,,,,,,,61003c15bb9c1a8561eac292,61036bc74359aaedd3b9c352,2021-07-29_22h03.04.848,Simcolourproject_2stim_asymm_v5,2020.2.10,Win32,60,61025ae37ef11b136ea224fe,,,,,,,,,3563,74,101,1,0,0,response1disk,,7,1,-1,1,0,0,rectangle,1,-1,1,0,0,1,-1,1,0,0,0,32,32,38,1,,,,,,,,
,,,,,,,,,,,,,FF,,,,,,,,0.5338,,,,,,,,,,,,,,,,,,,,,,61003c15bb9c1a8561eac292,61036bc74359aaedd3b9c352,2021-07-29_22h03.04.848,Simcolourproject_2stim_asymm_v5,2020.2.10,Win32,60,61025ae37ef11b136ea224fe,,,,,,,,,2151,77,98,1,0,0,response1disk,,7,10,2,1,0,0,rectangle,10,2,1,0,0,10,2,1,0,0,0,33,33,70,1,,,,,,,,
,,,,,,,,,,,,,FF,,,,,,,,1.6012,,,,,,,,,,,,,,,,,,,,,,61003c15bb9c1a8561eac292,61036bc74359aaedd3b9c352,2021-07-29_22h03.04.848,Simcolourproject_2stim_asymm_v5,2020.2.10,Win32,60,61025ae37ef11b136ea224fe,,,,,,,,,2171,-98,-64,1,0,0,response5disk,,2,22,13,1,0,0,rectangle,22,13,1,0,0,22,13,1,0,0,0,34,34,122,1,,,,,,,,
,,,,,,,,,,,,,FF,,,,,,,,0.867,,,,,,,,,,,,,,,,,,,,,,61003c15bb9c1a8561eac292,61036bc74359aaedd3b9c352,2021-07-29_22h03.04.848,Simcolourproject_2stim_asymm_v5,2020.2.10,Win32,60,61025ae37ef11b136ea224fe,,,,,,,,,1307,-101,31,1,0,0,response7disk,,1,25,-1,1,0,0,rectangle,25,-1,1,0,0,25,-1,1,0,0,0,35,35,149,1,,,,,,,,
,,,,,,,,,,,,,FF,,,,,,,,1.2509,,,,,,,,,,,,,,,,,,,,,,61003c15bb9c1a8561eac292,61036bc74359aaedd3b9c352,2021-07-29_22h03.04.848,Simcolourproject_2stim_asymm_v5,2020.2.10,Win32,60,61025ae37ef11b136ea224fe,,,,,,,,,196,134,-57,1,0,0,response3disk,,5,1,-4,1,0,0,rectangle,1,-4,1,0,0,1,-4,1,0,0,0,36,36,147,1,,,,,,,,
,,,,,,,,,,,,,FF,,,,,,,,0.7341,,,,,,,,,,,,,,,,,,,,,,61003c15bb9c1a8561eac292,61036bc74359aaedd3b9c352,2021-07-29_22h03.04.848,Simcolourproject_2stim_asymm_v5,2020.2.10,Win32,60,61025ae37ef11b136ea224fe,,,,,,,,,884,54,108,1,0,0,response1disk,,7,-4,-3,1,0,0,rectangle,-4,-3,1,0,0,-4,-3,1,0,0,0,37,37,31,1,,,,,,,,
,,,,,,,,,,,,,FF,,,,,,,,0.8002,,,,,,,,,,,,,,,,,,,,,,61003c15bb9c1a8561eac292,61036bc74359aaedd3b9c352,2021-07-29_22h03.04.848,Simcolourproject_2stim_asymm_v5,2020.2.10,Win32,60,61025ae37ef11b136ea224fe,,,,,,,,,931,45,126,1,0,0,response1disk,,7,-14,4,1,0,0,rectangle,-14,4,1,0,0,-14,4,1,0,0,0,38,38,125,1,,,,,,,,
,,,,,,,,,,,,,FF,,,,,,,,0.5838,,,,,,,,,,,,,,,,,,,,,,61003c15bb9c1a8561eac292,61036bc74359aaedd3b9c352,2021-07-29_22h03.04.848,Simcolourproject_2stim_asymm_v5,2020.2.10,Win32,60,61025ae37ef11b136ea224fe,,,,,,,,,1246,52,122,1,0,0,response1disk,,7,0,-21,1,0,0,rectangle,0,-21,1,0,0,0,-21,1,0,0,0,39,39,33,1,,,,,,,,
,,,,,,,,,,,,,FF,,,,,,,,0.8674,,,,,,,,,,,,,,,,,,,,,,61003c15bb9c1a8561eac292,61036bc74359aaedd3b9c352,2021-07-29_22h03.04.848,Simcolourproject_2stim_asymm_v5,2020.2.10,Win32,60,61025ae37ef11b136ea224fe,,,,,,,,,1847,121,-36,1,0,0,response3disk,,5,4,13,1,0,0,rectangle,-61,130,1,0,0,8,10,1,0,0,0,40,40,113,1,,response7disk_3,TRUE,0,0,"[142,68,92,14,41,155,111,76,311,165,42,7,304,94,295,55,250,289,250,161]",1.3176,rectangle
,,,,,,,,,,,,,FF,,,,,,,,1.5348,,,,,,,,,,,,,,,,,,,,,,61003c15bb9c1a8561eac292,61036bc74359aaedd3b9c352,2021-07-29_22h03.04.848,Simcolourproject_2stim_asymm_v5,2020.2.10,Win32,60,61025ae37ef11b136ea224fe,,,,,,,,,1306,-63,-146,1,0,0,response5disk,,3,-9,-11,1,0,0,rectangle,57,-143,1,0,0,-1,-1,1,0,0,0,41,41,121,1,,response3disk_3,TRUE,4,4,"[142,68,92,14,41,155,111,76,311,165,42,7,304,94,295,55,250,289,250,161]",1.3677,rectangle
,,,,,,,,,,,,,FF,,,,,,,,1.251,,,,,,,,,,,,,,,,,,,,,,61003c15bb9c1a8561eac292,61036bc74359aaedd3b9c352,2021-07-29_22h03.04.848,Simcolourproject_2stim_asymm_v5,2020.2.10,Win32,60,61025ae37ef11b136ea224fe,,,,,,,,,2558,72,112,1,0,0,response1disk,,7,-3,10,1,0,0,rectangle,-3,10,1,0,0,-3,10,1,0,0,0,42,42,107,1,,,,,,,,
,,,,,,,,,,,,,FF,,,,,,,,1.0342,,,,,,,,,,,,,,,,,,,,,,61003c15bb9c1a8561eac292,61036bc74359aaedd3b9c352,2021-07-29_22h03.04.848,Simcolourproject_2stim_asymm_v5,2020.2.10,Win32,60,61025ae37ef11b136ea224fe,,,,,,,,,2434,113,38,1,0,0,response1disk,,6,7,-15,1,0,0,rectangle,7,-15,1,0,0,7,-15,1,0,0,0,43,43,0,1,,,,,,,,
,,,,,,,,,,,,,FF,,,,,,,,0.5338,,,,,,,,,,,,,,,,,,,,,,61003c15bb9c1a8561eac292,61036bc74359aaedd3b9c352,2021-07-29_22h03.04.848,Simcolourproject_2stim_asymm_v5,2020.2.10,Win32,60,61025ae37ef11b136ea224fe,,,,,,,,,388,57,116,1,0,0,response1disk,,7,11,1,1,0,0,rectangle,11,1,1,0,0,11,1,1,0,0,0,44,44,144,1,,,,,,,,
,,,,,,,,,,,,,FF,,,,,,,,0.4839,,,,,,,,,,,,,,,,,,,,,,61003c15bb9c1a8561eac292,61036bc74359aaedd3b9c352,2021-07-29_22h03.04.848,Simcolourproject_2stim_asymm_v5,2020.2.10,Win32,60,61025ae37ef11b136ea224fe,,,,,,,,,2189,64,103,1,0,0,response1disk,,7,11,-10,1,0,0,rectangle,11,-10,1,0,0,11,-10,1,0,0,0,45,45,79,1,,,,,,,,
,,,,,,,,,,,,,FF,,,,,,,,0.5505,,,,,,,,,,,,,,,,,,,,,,61003c15bb9c1a8561eac292,61036bc74359aaedd3b9c352,2021-07-29_22h03.04.848,Simcolourproject_2stim_asymm_v5,2020.2.10,Win32,60,61025ae37ef11b136ea224fe,,,,,,,,,3307,50,130,1,0,0,response1disk,,7,3,-7,1,0,0,rectangle,3,-7,1,0,0,3,-7,1,0,0,0,46,46,118,1,,,,,,,,
,,,,,,,,,,,,,FF,,,,,,,,0.4335,,,,,,,,,,,,,,,,,,,,,,61003c15bb9c1a8561eac292,61036bc74359aaedd3b9c352,2021-07-29_22h03.04.848,Simcolourproject_2stim_asymm_v5,2020.2.10,Win32,60,61025ae37ef11b136ea224fe,,,,,,,,,2386,54,104,1,0,0,response1disk,,7,6,-9,1,0,0,rectangle,6,-9,1,0,0,6,-9,1,0,0,0,47,47,56,1,,,,,,,,
,,,,,,,,,,,,,FF,,,,,,,,0.4837,,,,,,,,,,,,,,,,,,,,,,61003c15bb9c1a8561eac292,61036bc74359aaedd3b9c352,2021-07-29_22h03.04.848,Simcolourproject_2stim_asymm_v5,2020.2.10,Win32,60,61025ae37ef11b136ea224fe,,,,,,,,,49,77,135,1,0,0,response1disk,,7,20,9,1,0,0,rectangle,20,9,1,0,0,20,9,1,0,0,0,48,48,61,1,,,,,,,,
,,,,,,,,,,,,,FF,,,,,,,,0.4502,,,,,,,,,,,,,,,,,,,,,,61003c15bb9c1a8561eac292,61036bc74359aaedd3b9c352,2021-07-29_22h03.04.848,Simcolourproject_2stim_asymm_v5,2020.2.10,Win32,60,61025ae37ef11b136ea224fe,,,,,,,,,1653,59,109,1,0,0,response1disk,,7,11,6,1,0,0,rectangle,11,6,1,0,0,11,6,1,0,0,0,49,49,72,1,,,,,,,,
,,,,,,,,,,,,,FF,,,,,,,,0.5006,,,,,,,,,,,,,,,,,,,,,,61003c15bb9c1a8561eac292,61036bc74359aaedd3b9c352,2021-07-29_22h03.04.848,Simcolourproject_2stim_asymm_v5,2020.2.10,Win32,60,61025ae37ef11b136ea224fe,,,,,,,,,3955,55,133,1,0,0,response1disk,,7,19,4,1,0,0,rectangle,19,4,1,0,0,19,4,1,0,0,0,50,50,12,1,,,,,,,,
,,,,,,,,,,,,,FF,,,,,,,,1.2678,,,,,,,,,,,,,,,,,,,,,,61003c15bb9c1a8561eac292,61036bc74359aaedd3b9c352,2021-07-29_22h03.04.848,Simcolourproject_2stim_asymm_v5,2020.2.10,Win32,60,61025ae37ef11b136ea224fe,,,,,,,,,728,94,-54,1,0,0,response3disk,,5,0,14,1,0,0,rectangle,0,14,1,0,0,0,14,1,0,0,0,51,51,111,1,,,,,,,,
,,,,,,,,,,,,,FF,,,,,,,,0.6507,,,,,,,,,,,,,,,,,,,,,,61003c15bb9c1a8561eac292,61036bc74359aaedd3b9c352,2021-07-29_22h03.04.848,Simcolourproject_2stim_asymm_v5,2020.2.10,Win32,60,61025ae37ef11b136ea224fe,,,,,,,,,1129,43,125,1,0,0,response1disk,,7,-13,-7,1,0,0,rectangle,-13,-7,1,0,0,-13,-7,1,0,0,0,52,52,132,1,,,,,,,,
,,,,,,,,,,,,,FF,,,,,,,,1.1678,,,,,,,,,,,,,,,,,,,,,,61003c15bb9c1a8561eac292,61036bc74359aaedd3b9c352,2021-07-29_22h03.04.848,Simcolourproject_2stim_asymm_v5,2020.2.10,Win32,60,61025ae37ef11b136ea224fe,,,,,,,,,734,126,-53,1,0,0,response3disk,,5,18,12,1,0,0,rectangle,18,12,1,0,0,18,12,1,0,0,0,53,53,81,1,,,,,,,,
,,,,,,,,,,,,,FF,,,,,,,,0.834,,,,,,,,,,,,,,,,,,,,,,61003c15bb9c1a8561eac292,61036bc74359aaedd3b9c352,2021-07-29_22h03.04.848,Simcolourproject_2stim_asymm_v5,2020.2.10,Win32,60,61025ae37ef11b136ea224fe,,,,,,,,,949,58,122,1,0,0,response1disk,,7,-18,3,1,0,0,rectangle,75,127,1,0,0,-19,-9,1,0,0,0,54,54,110,1,,response1disk_3,TRUE,7,7,"[142,68,92,14,41,155,111,76,311,165,42,7,304,94,295,55,250,289,250,161]",1.3678,rectangle
,,,,,,,,,,,,,FF,,,,,,,,1.084,,,,,,,,,,,,,,,,,,,,,,61003c15bb9c1a8561eac292,61036bc74359aaedd3b9c352,2021-07-29_22h03.04.848,Simcolourproject_2stim_asymm_v5,2020.2.10,Win32,60,61025ae37ef11b136ea224fe,,,,,,,,,1888,-129,48,1,0,0,response7disk,,1,2,-7,1,0,0,rectangle,2,-7,1,0,0,2,-7,1,0,0,0,55,55,14,1,,,,,,,,
,,,,,,,,,,,,,FF,,,,,,,,1.718,,,,,,,,,,,,,,,,,,,,,,61003c15bb9c1a8561eac292,61036bc74359aaedd3b9c352,2021-07-29_22h03.04.848,Simcolourproject_2stim_asymm_v5,2020.2.10,Win32,60,61025ae37ef11b136ea224fe,,,,,,,,,2966,85,104,1,0,0,response1disk,,7,29,0,1,0,0,rectangle,29,0,1,0,0,29,0,1,0,0,0,56,56,18,1,,,,,,,,
,,,,,,,,,,,,,FF,,,,,,,,1.3511,,,,,,,,,,,,,,,,,,,,,,61003c15bb9c1a8561eac292,61036bc74359aaedd3b9c352,2021-07-29_22h03.04.848,Simcolourproject_2stim_asymm_v5,2020.2.10,Win32,60,61025ae37ef11b136ea224fe,,,,,,,,,1311,71,-128,1,0,0,response3disk,,4,-14,-8,1,0,0,rectangle,-14,-8,1,0,0,-14,-8,1,0,0,0,57,57,119,1,,,,,,,,
,,,,,,,,,,,,,FF,,,,,,,,1.5177,,,,,,,,,,,,,,,,,,,,,,61003c15bb9c1a8561eac292,61036bc74359aaedd3b9c352,2021-07-29_22h03.04.848,Simcolourproject_2stim_asymm_v5,2020.2.10,Win32,60,61025ae37ef11b136ea224fe,,,,,,,,,3256,70,144,1,0,0,response1disk,,7,0,7,1,0,0,rectangle,0,7,1,0,0,0,7,1,0,0,0,58,58,138,1,,,,,,,,
,,,,,,,,,,,,,FF,,,,,,,,0.6505,,,,,,,,,,,,,,,,,,,,,,61003c15bb9c1a8561eac292,61036bc74359aaedd3b9c352,2021-07-29_22h03.04.848,Simcolourproject_2stim_asymm_v5,2020.2.10,Win32,60,61025ae37ef11b136ea224fe,,,,,,,,,568,93,126,1,0,0,response1disk,,7,16,5,1,0,0,rectangle,16,5,1,0,0,16,5,1,0,0,0,59,59,157,1,,,,,,,,
,,,,,,,,,,,,,FF,,,,,,,,1.4677,,,,,,,,,,,,,,,,,,,,,,61003c15bb9c1a8561eac292,61036bc74359aaedd3b9c352,2021-07-29_22h03.04.848,Simcolourproject_2stim_asymm_v5,2020.2.10,Win32,60,61025ae37ef11b136ea224fe,,,,,,,,,1718,131,43,1,0,0,response1disk,,6,19,8,1,0,0,rectangle,19,8,1,0,0,19,8,1,0,0,0,60,60,124,1,,,,,,,,
,,,,,,,,,,,,,FF,,,,,,,,1.4842,,,,,,,,,,,,,,,,,,,,,,61003c15bb9c1a8561eac292,61036bc74359aaedd3b9c352,2021-07-29_22h03.04.848,Simcolourproject_2stim_asymm_v5,2020.2.10,Win32,60,61025ae37ef11b136ea224fe,,,,,,,,,4299,-39,-122,1,0,0,response5disk,,3,-2,3,1,0,0,rectangle,-2,3,1,0,0,-2,3,1,0,0,0,61,61,80,1,,,,,,,,
,,,,,,,,,,,,,FF,,,,,,,,1.9347,,,,,,,,,,,,,,,,,,,,,,61003c15bb9c1a8561eac292,61036bc74359aaedd3b9c352,2021-07-29_22h03.04.848,Simcolourproject_2stim_asymm_v5,2020.2.10,Win32,60,61025ae37ef11b136ea224fe,,,,,,,,,287,143,83,1,0,0,response1disk,,6,12,14,1,0,0,rectangle,12,14,1,0,0,12,14,1,0,0,0,62,62,135,1,,,,,,,,
,,,,,,,,,,,,,FF,,,,,,,,1.1511,,,,,,,,,,,,,,,,,,,,,,61003c15bb9c1a8561eac292,61036bc74359aaedd3b9c352,2021-07-29_22h03.04.848,Simcolourproject_2stim_asymm_v5,2020.2.10,Win32,60,61025ae37ef11b136ea224fe,,,,,,,,,1052,-56,-129,1,0,0,response5disk,,3,-11,-9,1,0,0,rectangle,-11,-9,1,0,0,-11,-9,1,0,0,0,63,63,16,1,,,,,,,,
,,,,,,,,,,,,,FF,,,,,,,,0.8174,,,,,,,,,,,,,,,,,,,,,,61003c15bb9c1a8561eac292,61036bc74359aaedd3b9c352,2021-07-29_22h03.04.848,Simcolourproject_2stim_asymm_v5,2020.2.10,Win32,60,61025ae37ef11b136ea224fe,,,,,,,,,3306,52,145,1,0,0,response1disk,,7,5,13,1,0,0,rectangle,5,13,1,0,0,5,13,1,0,0,0,64,64,109,1,,,,,,,,
,,,,,,,,,,,,,FF,,,,,,,,0.5671,,,,,,,,,,,,,,,,,,,,,,61003c15bb9c1a8561eac292,61036bc74359aaedd3b9c352,2021-07-29_22h03.04.848,Simcolourproject_2stim_asymm_v5,2020.2.10,Win32,60,61025ae37ef11b136ea224fe,,,,,,,,,2093,-63,119,1,0,0,response7disk,,0,-18,13,1,0,0,rectangle,-18,13,1,0,0,-18,13,1,0,0,0,65,65,24,1,,,,,,,,
,,,,,,,,,,,,,FF,,,,,,,,0.6838,,,,,,,,,,,,,,,,,,,,,,61003c15bb9c1a8561eac292,61036bc74359aaedd3b9c352,2021-07-29_22h03.04.848,Simcolourproject_2stim_asymm_v5,2020.2.10,Win32,60,61025ae37ef11b136ea224fe,,,,,,,,,3592,-117,53,1,0,0,response7disk,,1,6,-12,1,0,0,rectangle,6,-12,1,0,0,6,-12,1,0,0,0,66,66,22,1,,,,,,,,
,,,,,,,,,,,,,FF,,,,,,,,1.0843,,,,,,,,,,,,,,,,,,,,,,61003c15bb9c1a8561eac292,61036bc74359aaedd3b9c352,2021-07-29_22h03.04.848,Simcolourproject_2stim_asymm_v5,2020.2.10,Win32,60,61025ae37ef11b136ea224fe,,,,,,,,,1874,74,133,1,0,0,response1disk,,7,17,-12,1,0,0,rectangle,-125,-47,1,0,0,-12,-3,1,0,0,0,67,67,115,1,,response5disk_3,TRUE,2,2,"[142,68,92,14,41,155,111,76,311,165,42,7,304,94,295,55,250,289,250,161]",1.3174,rectangle
,,,,,,,,,,,,,FF,,,,,,,,1.2844,,,,,,,,,,,,,,,,,,,,,,61003c15bb9c1a8561eac292,61036bc74359aaedd3b9c352,2021-07-29_22h03.04.848,Simcolourproject_2stim_asymm_v5,2020.2.10,Win32,60,61025ae37ef11b136ea224fe,,,,,,,,,2760,58,123,1,0,0,response1disk,,7,11,-14,1,0,0,rectangle,11,-14,1,0,0,11,-14,1,0,0,0,68,68,65,1,,,,,,,,
,,,,,,,,,,,,,FF,,,,,,,,0.6503,,,,,,,,,,,,,,,,,,,,,,61003c15bb9c1a8561eac292,61036bc74359aaedd3b9c352,2021-07-29_22h03.04.848,Simcolourproject_2stim_asymm_v5,2020.2.10,Win32,60,61025ae37ef11b136ea224fe,,,,,,,,,2444,32,120,1,0,0,response1disk,,7,1,-6,1,0,0,rectangle,1,-6,1,0,0,1,-6,1,0,0,0,69,69,143,1,,,,,,,,
,,,,,,,,,,,,,FF,,,,,,,,0.4838,,,,,,,,,,,,,,,,,,,,,,61003c15bb9c1a8561eac292,61036bc74359aaedd3b9c352,2021-07-29_22h03.04.848,Simcolourproject_2stim_asymm_v5,2020.2.10,Win32,60,61025ae37ef11b136ea224fe,,,,,,,,,2607,-74,117,1,0,0,response7disk,,0,0,-8,1,0,0,rectangle,0,-8,1,0,0,0,-8,1,0,0,0,70,70,42,1,,,,,,,,
,,,,,,,,,,,,,FF,,,,,,,,1.3009,,,,,,,,,,,,,,,,,,,,,,61003c15bb9c1a8561eac292,61036bc74359aaedd3b9c352,2021-07-29_22h03.04.848,Simcolourproject_2stim_asymm_v5,2020.2.10,Win32,60,61025ae37ef11b136ea224fe,,,,,,,,,460,-116,47,1,0,0,response7disk,,1,-21,4,1,0,0,rectangle,-21,4,1,0,0,-21,4,1,0,0,0,71,71,3,1,,,,,,,,
,,,,,,,,,,,,,FF,,,,,,,,0.6174,,,,,,,,,,,,,,,,,,,,,,61003c15bb9c1a8561eac292,61036bc74359aaedd3b9c352,2021-07-29_22h03.04.848,Simcolourproject_2stim_asymm_v5,2020.2.10,Win32,60,61025ae37ef11b136ea224fe,,,,,,,,,4356,-85,115,1,0,0,response7disk,,0,-26,10,1,0,0,rectangle,-26,10,1,0,0,-26,10,1,0,0,0,72,72,59,1,,,,,,,,
,,,,,,,,,,,,,FF,,,,,,,,1.0008,,,,,,,,,,,,,,,,,,,,,,61003c15bb9c1a8561eac292,61036bc74359aaedd3b9c352,2021-07-29_22h03.04.848,Simcolourproject_2stim_asymm_v5,2020.2.10,Win32,60,61025ae37ef11b136ea224fe,,,,,,,,,3679,-89,-55,1,0,0,response5disk,,2,-5,-1,1,0,0,rectangle,-5,-1,1,0,0,-5,-1,1,0,0,0,73,73,32,1,,,,,,,,
,,,,,,,,,,,,,FF,,,,,,,,1.5678,,,,,,,,,,,,,,,,,,,,,,61003c15bb9c1a8561eac292,61036bc74359aaedd3b9c352,2021-07-29_22h03.04.848,Simcolourproject_2stim_asymm_v5,2020.2.10,Win32,60,61025ae37ef11b136ea224fe,,,,,,,,,3663,-101,-63,1,0,0,response5disk,,2,-21,-7,1,0,0,rectangle,-21,-7,1,0,0,-21,-7,1,0,0,0,74,74,77,1,,,,,,,,
,,,,,,,,,,,,,FF,,,,,,,,1.3511,,,,,,,,,,,,,,,,,,,,,,61003c15bb9c1a8561eac292,61036bc74359aaedd3b9c352,2021-07-29_22h03.04.848,Simcolourproject_2stim_asymm_v5,2020.2.10,Win32,60,61025ae37ef11b136ea224fe,,,,,,,,,90,64,93,1,0,0,response1disk,,7,-5,5,1,0,0,rectangle,65,123,1,0,0,19,9,1,0,0,0,75,75,99,1,,response1disk_3,TRUE,7,7,"[142,68,92,14,41,155,111,76,311,165,42,7,304,94,295,55,250,289,250,161]",4.1367,rectangle
,,,,,,,,,,,,,FF,,,,,,,,3.2192,,,,,,,,,,,,,,,,,,,,,,61003c15bb9c1a8561eac292,61036bc74359aaedd3b9c352,2021-07-29_22h03.04.848,Simcolourproject_2stim_asymm_v5,2020.2.10,Win32,60,61025ae37ef11b136ea224fe,,,,,,,,,275,109,-42,1,0,0,response3disk,,5,8,0,1,0,0,rectangle,8,0,1,0,0,8,0,1,0,0,0,76,76,101,1,,,,,,,,
,,,,,,,,,,,,,FF,,,,,,,,1.1676,,,,,,,,,,,,,,,,,,,,,,61003c15bb9c1a8561eac292,61036bc74359aaedd3b9c352,2021-07-29_22h03.04.848,Simcolourproject_2stim_asymm_v5,2020.2.10,Win32,60,61025ae37ef11b136ea224fe,,,,,,,,,308,65,90,1,0,0,response1disk,,7,-3,-14,1,0,0,rectangle,-3,-14,1,0,0,-3,-14,1,0,0,0,77,77,92,1,,,,,,,,
,,,,,,,,,,,,,FF,,,,,,,,0.4838,,,,,,,,,,,,,,,,,,,,,,61003c15bb9c1a8561eac292,61036bc74359aaedd3b9c352,2021-07-29_22h03.04.848,Simcolourproject_2stim_asymm_v5,2020.2.10,Win32,60,61025ae37ef11b136ea224fe,,,,,,,,,2939,78,115,1,0,0,response1disk,,7,22,-4,1,0,0,rectangle,22,-4,1,0,0,22,-4,1,0,0,0,78,78,67,1,,,,,,,,
,,,,,,,,,,,,,FF,,,,,,,,0.6002,,,,,,,,,,,,,,,,,,,,,,61003c15bb9c1a8561eac292,61036bc74359aaedd3b9c352,2021-07-29_22h03.04.848,Simcolourproject_2stim_asymm_v5,2020.2.10,Win32,60,61025ae37ef11b136ea224fe,,,,,,,,,2215,51,115,1,0,0,response1disk,,7,21,3,1,0,0,rectangle,21,3,1,0,0,21,3,1,0,0,0,79,79,146,1,,,,,,,,
,,,,,,,,,,,,,FF,,,,,,,,0.367,,,,,,,,,,,,,,,,,,,,,,61003c15bb9c1a8561eac292,61036bc74359aaedd3b9c352,2021-07-29_22h03.04.848,Simcolourproject_2stim_asymm_v5,2020.2.10,Win32,60,61025ae37ef11b136ea224fe,,,,,,,,,1984,64,149,1,0,0,response1disk,,7,10,-13,1,0,0,rectangle,10,-13,1,0,0,10,-13,1,0,0,0,80,80,127,1,,,,,,,,
,,,,,,,,,,,,,FF,,,,,,,,0.5171,,,,,,,,,,,,,,,,,,,,,,61003c15bb9c1a8561eac292,61036bc74359aaedd3b9c352,2021-07-29_22h03.04.848,Simcolourproject_2stim_asymm_v5,2020.2.10,Win32,60,61025ae37ef11b136ea224fe,,,,,,,,,519,65,102,1,0,0,response1disk,,7,21,11,1,0,0,rectangle,21,11,1,0,0,21,11,1,0,0,0,81,81,8,1,,,,,,,,
,,,,,,,,,,,,,FF,,,,,,,,1.1676,,,,,,,,,,,,,,,,,,,,,,61003c15bb9c1a8561eac292,61036bc74359aaedd3b9c352,2021-07-29_22h03.04.848,Simcolourproject_2stim_asymm_v5,2020.2.10,Win32,60,61025ae37ef11b136ea224fe,,,,,,,,,2062,91,-67,1,0,0,response3disk,,5,-12,-3,1,0,0,rectangle,-12,-3,1,0,0,-12,-3,1,0,0,0,82,82,133,1,,,,,,,,
,,,,,,,,,,,,,FF,,,,,,,,0.7337,,,,,,,,,,,,,,,,,,,,,,61003c15bb9c1a8561eac292,61036bc74359aaedd3b9c352,2021-07-29_22h03.04.848,Simcolourproject_2stim_asymm_v5,2020.2.10,Win32,60,61025ae37ef11b136ea224fe,,,,,,,,,1357,59,107,1,0,0,response1disk,,7,22,11,1,0,0,rectangle,22,11,1,0,0,22,11,1,0,0,0,83,83,106,1,,,,,,,,
,,,,,,,,,,,,,FF,,,,,,,,0.9673,,,,,,,,,,,,,,,,,,,,,,61003c15bb9c1a8561eac292,61036bc74359aaedd3b9c352,2021-07-29_22h03.04.848,Simcolourproject_2stim_asymm_v5,2020.2.10,Win32,60,61025ae37ef11b136ea224fe,,,,,,,,,4273,62,-122,1,0,0,response3disk,,4,0,-14,1,0,0,rectangle,0,-14,1,0,0,0,-14,1,0,0,0,84,84,150,1,,,,,,,,
,,,,,,,,,,,,,FF,,,,,,,,1.0174,,,,,,,,,,,,,,,,,,,,,,61003c15bb9c1a8561eac292,61036bc74359aaedd3b9c352,2021-07-29_22h03.04.848,Simcolourproject_2stim_asymm_v5,2020.2.10,Win32,60,61025ae37ef11b136ea224fe,,,,,,,,,2204,70,123,1,0,0,response1disk,,7,-2,-9,1,0,0,rectangle,-2,-9,1,0,0,-2,-9,1,0,0,0,85,85,145,1,,,,,,,,
,,,,,,,,,,,,,FF,,,,,,,,1.0341,,,,,,,,,,,,,,,,,,,,,,61003c15bb9c1a8561eac292,61036bc74359aaedd3b9c352,2021-07-29_22h03.04.848,Simcolourproject_2stim_asymm_v5,2020.2.10,Win32,60,61025ae37ef11b136ea224fe,,,,,,,,,577,47,-128,1,0,0,response3disk,,4,2,7,1,0,0,rectangle,2,7,1,0,0,2,7,1,0,0,0,86,86,83,1,,,,,,,,
,,,,,,,,,,,,,FF,,,,,,,,1.2173,,,,,,,,,,,,,,,,,,,,,,61003c15bb9c1a8561eac292,61036bc74359aaedd3b9c352,2021-07-29_22h03.04.848,Simcolourproject_2stim_asymm_v5,2020.2.10,Win32,60,61025ae37ef11b136ea224fe,,,,,,,,,3683,-58,-117,1,0,0,response5disk,,3,-20,0,1,0,0,rectangle,-20,0,1,0,0,-20,0,1,0,0,0,87,87,39,1,,,,,,,,
,,,,,,,,,,,,,FF,,,,,,,,1.2512,,,,,,,,,,,,,,,,,,,,,,61003c15bb9c1a8561eac292,61036bc74359aaedd3b9c352,2021-07-29_22h03.04.848,Simcolourproject_2stim_asymm_v5,2020.2.10,Win32,60,61025ae37ef11b136ea224fe,,,,,,,,,3282,-124,-71,1,0,0,response5disk,,2,-14,13,1,0,0,rectangle,-14,13,1,0,0,-14,13,1,0,0,0,88,88,93,1,,,,,,,,
,,,,,,,,,,,,,FF,,,,,,,,0.6839,,,,,,,,,,,,,,,,,,,,,,61003c15bb9c1a8561eac292,61036bc74359aaedd3b9c352,2021-07-29_22h03.04.848,Simcolourproject_2stim_asymm_v5,2020.2.10,Win32,60,61025ae37ef11b136ea224fe,,,,,,,,,1104,62,145,1,0,0,response1disk,,7,-13,-3,1,0,0,rectangle,-13,-3,1,0,0,-13,-3,1,0,0,0,89,89,142,1,,,,,,,,
,,,,,,,,,,,,,FF,,,,,,,,0.9007,,,,,,,,,,,,,,,,,,,,,,61003c15bb9c1a8561eac292,61036bc74359aaedd3b9c352,2021-07-29_22h03.04.848,Simcolourproject_2stim_asymm_v5,2020.2.10,Win32,60,61025ae37ef11b136ea224fe,,,,,,,,,13,-88,-60,1,0,0,response5disk,,2,-17,15,1,0,0,rectangle,-17,15,1,0,0,-17,15,1,0,0,0,90,90,74,1,,,,,,,,
,,,,,,,,,,,,,FF,,,,,,,,1.1009,,,,,,,,,,,,,,,,,,,,,,61003c15bb9c1a8561eac292,61036bc74359aaedd3b9c352,2021-07-29_22h03.04.848,Simcolourproject_2stim_asymm_v5,2020.2.10,Win32,60,61025ae37ef11b136ea224fe,,,,,,,,,4176,62,148,1,0,0,response1disk,,7,-6,-7,1,0,0,rectangle,44,127,1,0,0,16,7,1,0,0,0,91,91,91,1,,response1disk_3,TRUE,7,7,"[142,68,92,14,41,155,111,76,311,165,42,7,304,94,295,55,250,289,250,161]",1.2675,rectangle
,,,,,,,,,,,,,FF,,,,,,,,0.7507,,,,,,,,,,,,,,,,,,,,,,61003c15bb9c1a8561eac292,61036bc74359aaedd3b9c352,2021-07-29_22h03.04.848,Simcolourproject_2stim_asymm_v5,2020.2.10,Win32,60,61025ae37ef11b136ea224fe,,,,,,,,,1510,51,116,1,0,0,response1disk,,7,-10,4,1,0,0,rectangle,-10,4,1,0,0,-10,4,1,0,0,0,92,92,98,1,,,,,,,,
,,,,,,,,,,,,,FF,,,,,,,,1.4011,,,,,,,,,,,,,,,,,,,,,,61003c15bb9c1a8561eac292,61036bc74359aaedd3b9c352,2021-07-29_22h03.04.848,Simcolourproject_2stim_asymm_v5,2020.2.10,Win32,60,61025ae37ef11b136ea224fe,,,,,,,,,2648,64,-132,1,0,0,response3disk,,4,26,0,1,0,0,rectangle,55,-168,1,0,0,-14,-12,1,0,0,0,93,93,140,1,,response3disk_3,TRUE,4,4,"[142,68,92,14,41,155,111,76,311,165,42,7,304,94,295,55,250,289,250,161]",1.6846,rectangle
,,,,,,,,,,,,,FF,,,,,,,,1.5846,,,,,,,,,,,,,,,,,,,,,,61003c15bb9c1a8561eac292,61036bc74359aaedd3b9c352,2021-07-29_22h03.04.848,Simcolourproject_2stim_asymm_v5,2020.2.10,Win32,60,61025ae37ef11b136ea224fe,,,,,,,,,1731,129,-55,1,0,0,response3disk,,5,24,15,1,0,0,rectangle,24,15,1,0,0,24,15,1,0,0,0,94,94,154,1,,,,,,,,
,,,,,,,,,,,,,FF,,,,,,,,0.5836,,,,,,,,,,,,,,,,,,,,,,61003c15bb9c1a8561eac292,61036bc74359aaedd3b9c352,2021-07-29_22h03.04.848,Simcolourproject_2stim_asymm_v5,2020.2.10,Win32,60,61025ae37ef11b136ea224fe,,,,,,,,,3807,97,137,1,0,0,response1disk,,7,26,5,1,0,0,rectangle,26,5,1,0,0,26,5,1,0,0,0,95,95,159,1,,,,,,,,
,,,,,,,,,,,,,FF,,,,,,,,1.3342,,,,,,,,,,,,,,,,,,,,,,61003c15bb9c1a8561eac292,61036bc74359aaedd3b9c352,2021-07-29_22h03.04.848,Simcolourproject_2stim_asymm_v5,2020.2.10,Win32,60,61025ae37ef11b136ea224fe,,,,,,,,,1054,47,-125,1,0,0,response3disk,,4,-12,3,1,0,0,rectangle,-12,3,1,0,0,-12,3,1,0,0,0,96,96,26,1,,,,,,,,
,,,,,,,,,,,,,FF,,,,,,,,0.8006,,,,,,,,,,,,,,,,,,,,,,61003c15bb9c1a8561eac292,61036bc74359aaedd3b9c352,2021-07-29_22h03.04.848,Simcolourproject_2stim_asymm_v5,2020.2.10,Win32,60,61025ae37ef11b136ea224fe,,,,,,,,,4179,61,114,1,0,0,response1disk,,7,3,-11,1,0,0,rectangle,3,-11,1,0,0,3,-11,1,0,0,0,97,97,53,1,,,,,,,,
,,,,,,,,,,,,,FF,,,,,,,,1.2011,,,,,,,,,,,,,,,,,,,,,,61003c15bb9c1a8561eac292,61036bc74359aaedd3b9c352,2021-07-29_22h03.04.848,Simcolourproject_2stim_asymm_v5,2020.2.10,Win32,60,61025ae37ef11b136ea224fe,,,,,,,,,4122,46,-146,1,0,0,response3disk,,4,2,1,1,0,0,rectangle,2,1,1,0,0,2,1,1,0,0,0,98,98,5,1,,,,,,,,
,,,,,,,,,,,,,FF,,,,,,,,0.7172,,,,,,,,,,,,,,,,,,,,,,61003c15bb9c1a8561eac292,61036bc74359aaedd3b9c352,2021-07-29_22h03.04.848,Simcolourproject_2stim_asymm_v5,2020.2.10,Win32,60,61025ae37ef11b136ea224fe,,,,,,,,,1291,-102,44,1,0,0,response7disk,,1,-10,-1,1,0,0,rectangle,-10,-1,1,0,0,-10,-1,1,0,0,0,99,99,103,1,,,,,,,,
,,,,,,,,,,,,,FF,,,,,,,,1.151,,,,,,,,,,,,,,,,,,,,,,61003c15bb9c1a8561eac292,61036bc74359aaedd3b9c352,2021-07-29_22h03.04.848,Simcolourproject_2stim_asymm_v5,2020.2.10,Win32,60,61025ae37ef11b136ea224fe,,,,,,,,,1721,112,-58,1,0,0,response3disk,,5,-4,-9,1,0,0,rectangle,-4,-9,1,0,0,-4,-9,1,0,0,0,100,100,128,1,,,,,,,,
,,,,,,,,,,,,,FF,,,,,,,,0.5172,,,,,,,,,,,,,,,,,,,,,,61003c15bb9c1a8561eac292,61036bc74359aaedd3b9c352,2021-07-29_22h03.04.848,Simcolourproject_2stim_asymm_v5,2020.2.10,Win32,60,61025ae37ef11b136ea224fe,,,,,,,,,2774,69,154,1,0,0,response1disk,,7,-5,-6,1,0,0,rectangle,-5,-6,1,0,0,-5,-6,1,0,0,0,101,101,37,1,,,,,,,,
,,,,,,,,,,,,,FF,,,,,,,,0.5337,,,,,,,,,,,,,,,,,,,,,,61003c15bb9c1a8561eac292,61036bc74359aaedd3b9c352,2021-07-29_22h03.04.848,Simcolourproject_2stim_asymm_v5,2020.2.10,Win32,60,61025ae37ef11b136ea224fe,,,,,,,,,1997,54,129,1,0,0,response1disk,,7,-15,-13,1,0,0,rectangle,-15,-13,1,0,0,-15,-13,1,0,0,0,102,102,25,1,,,,,,,,
,,,,,,,,,,,,,FF,,,,,,,,0.7171,,,,,,,,,,,,,,,,,,,,,,61003c15bb9c1a8561eac292,61036bc74359aaedd3b9c352,2021-07-29_22h03.04.848,Simcolourproject_2stim_asymm_v5,2020.2.10,Win32,60,61025ae37ef11b136ea224fe,,,,,,,,,3714,-116,41,1,0,0,response7disk,,1,-24,-1,1,0,0,rectangle,-24,-1,1,0,0,-24,-1,1,0,0,0,103,103,29,1,,,,,,,,
,,,,,,,,,,,,,FF,,,,,,,,1.1843,,,,,,,,,,,,,,,,,,,,,,61003c15bb9c1a8561eac292,61036bc74359aaedd3b9c352,2021-07-29_22h03.04.848,Simcolourproject_2stim_asymm_v5,2020.2.10,Win32,60,61025ae37ef11b136ea224fe,,,,,,,,,3526,123,68,1,0,0,response1disk,,6,-23,22,1,0,0,rectangle,-23,22,1,0,0,-23,22,1,0,0,0,104,104,50,1,,,,,,,,
,,,,,,,,,,,,,FF,,,,,,,,0.6337,,,,,,,,,,,,,,,,,,,,,,61003c15bb9c1a8561eac292,61036bc74359aaedd3b9c352,2021-07-29_22h03.04.848,Simcolourproject_2stim_asymm_v5,2020.2.10,Win32,60,61025ae37ef11b136ea224fe,,,,,,,,,904,77,130,1,0,0,response1disk,,7,1,4,1,0,0,rectangle,1,4,1,0,0,1,4,1,0,0,0,105,105,60,1,,,,,,,,
,,,,,,,,,,,,,FF,,,,,,,,1.0006,,,,,,,,,,,,,,,,,,,,,,61003c15bb9c1a8561eac292,61036bc74359aaedd3b9c352,2021-07-29_22h03.04.848,Simcolourproject_2stim_asymm_v5,2020.2.10,Win32,60,61025ae37ef11b136ea224fe,,,,,,,,,3904,118,77,1,0,0,response1disk,,6,16,10,1,0,0,rectangle,16,10,1,0,0,16,10,1,0,0,0,106,106,114,1,,,,,,,,
,,,,,,,,,,,,,FF,,,,,,,,0.884,,,,,,,,,,,,,,,,,,,,,,61003c15bb9c1a8561eac292,61036bc74359aaedd3b9c352,2021-07-29_22h03.04.848,Simcolourproject_2stim_asymm_v5,2020.2.10,Win32,60,61025ae37ef11b136ea224fe,,,,,,,,,3103,-106,-62,1,0,0,response5disk,,2,-17,-5,1,0,0,rectangle,-17,-5,1,0,0,-17,-5,1,0,0,0,107,107,131,1,,,,,,,,
,,,,,,,,,,,,,FF,,,,,,,,0.8675,,,,,,,,,,,,,,,,,,,,,,61003c15bb9c1a8561eac292,61036bc74359aaedd3b9c352,2021-07-29_22h03.04.848,Simcolourproject_2stim_asymm_v5,2020.2.10,Win32,60,61025ae37ef11b136ea224fe,,,,,,,,,2453,57,124,1,0,0,response1disk,,7,10,0,1,0,0,rectangle,10,0,1,0,0,10,0,1,0,0,0,108,108,139,1,,,,,,,,
,,,,,,,,,,,,,FF,,,,,,,,0.4172,,,,,,,,,,,,,,,,,,,,,,61003c15bb9c1a8561eac292,61036bc74359aaedd3b9c352,2021-07-29_22h03.04.848,Simcolourproject_2stim_asymm_v5,2020.2.10,Win32,60,61025ae37ef11b136ea224fe,,,,,,,,,2626,58,127,1,0,0,response1disk,,7,-10,0,1,0,0,rectangle,-10,0,1,0,0,-10,0,1,0,0,0,109,109,120,1,,,,,,,,
,,,,,,,,,,,,,FF,,,,,,,,0.9672,,,,,,,,,,,,,,,,,,,,,,61003c15bb9c1a8561eac292,61036bc74359aaedd3b9c352,2021-07-29_22h03.04.848,Simcolourproject_2stim_asymm_v5,2020.2.10,Win32,60,61025ae37ef11b136ea224fe,,,,,,,,,1977,85,122,1,0,0,response1disk,,7,25,6,1,0,0,rectangle,44,-107,1,0,0,10,21,1,0,0,0,110,110,2,1,,response3disk_3,TRUE,4,4,"[142,68,92,14,41,155,111,76,311,165,42,7,304,94,295,55,250,289,250,161]",1.5848,rectangle
,,,,,,,,,,,,,FF,,,,,,,,0.6337,,,,,,,,,,,,,,,,,,,,,,61003c15bb9c1a8561eac292,61036bc74359aaedd3b9c352,2021-07-29_22h03.04.848,Simcolourproject_2stim_asymm_v5,2020.2.10,Win32,60,61025ae37ef11b136ea224fe,,,,,,,,,1147,93,160,1,0,0,response1disk,,7,25,9,1,0,0,rectangle,25,9,1,0,0,25,9,1,0,0,0,111,111,62,1,,,,,,,,
,,,,,,,,,,,,,FF,,,,,,,,2.2017,,,,,,,,,,,,,,,,,,,,,,61003c15bb9c1a8561eac292,61036bc74359aaedd3b9c352,2021-07-29_22h03.04.848,Simcolourproject_2stim_asymm_v5,2020.2.10,Win32,60,61025ae37ef11b136ea224fe,,,,,,,,,4055,123,-41,1,0,0,response3disk,,5,-28,5,1,0,0,rectangle,-28,5,1,0,0,-28,5,1,0,0,0,112,112,148,1,,,,,,,,
,,,,,,,,,,,,,FF,,,,,,,,0.6673,,,,,,,,,,,,,,,,,,,,,,61003c15bb9c1a8561eac292,61036bc74359aaedd3b9c352,2021-07-29_22h03.04.848,Simcolourproject_2stim_asymm_v5,2020.2.10,Win32,60,61025ae37ef11b136ea224fe,,,,,,,,,1022,77,112,1,0,0,response1disk,,7,30,-22,1,0,0,rectangle,30,-22,1,0,0,30,-22,1,0,0,0,113,113,100,1,,,,,,,,
,,,,,,,,,,,,,FF,,,,,,,,1.2008,,,,,,,,,,,,,,,,,,,,,,61003c15bb9c1a8561eac292,61036bc74359aaedd3b9c352,2021-07-29_22h03.04.848,Simcolourproject_2stim_asymm_v5,2020.2.10,Win32,60,61025ae37ef11b136ea224fe,,,,,,,,,350,-30,-138,1,0,0,response5disk,,3,15,2,1,0,0,rectangle,15,2,1,0,0,15,2,1,0,0,0,114,114,49,1,,,,,,,,
,,,,,,,,,,,,,FF,,,,,,,,0.8842,,,,,,,,,,,,,,,,,,,,,,61003c15bb9c1a8561eac292,61036bc74359aaedd3b9c352,2021-07-29_22h03.04.848,Simcolourproject_2stim_asymm_v5,2020.2.10,Win32,60,61025ae37ef11b136ea224fe,,,,,,,,,1236,130,66,1,0,0,response1disk,,6,-5,13,1,0,0,rectangle,-5,13,1,0,0,-5,13,1,0,0,0,115,115,141,1,,,,,,,,
,,,,,,,,,,,,,FF,,,,,,,,0.5839,,,,,,,,,,,,,,,,,,,,,,61003c15bb9c1a8561eac292,61036bc74359aaedd3b9c352,2021-07-29_22h03.04.848,Simcolourproject_2stim_asymm_v5,2020.2.10,Win32,60,61025ae37ef11b136ea224fe,,,,,,,,,3733,45,124,1,0,0,response1disk,,7,-15,-8,1,0,0,rectangle,-15,-8,1,0,0,-15,-8,1,0,0,0,116,116,75,1,,,,,,,,
,,,,,,,,,,,,,FF,,,,,,,,1.4177,,,,,,,,,,,,,,,,,,,,,,61003c15bb9c1a8561eac292,61036bc74359aaedd3b9c352,2021-07-29_22h03.04.848,Simcolourproject_2stim_asymm_v5,2020.2.10,Win32,60,61025ae37ef11b136ea224fe,,,,,,,,,3021,103,-58,1,0,0,response3disk,,5,-9,-4,1,0,0,rectangle,-9,-4,1,0,0,-9,-4,1,0,0,0,117,117,130,1,,,,,,,,
,,,,,,,,,,,,,FF,,,,,,,,0.7173,,,,,,,,,,,,,,,,,,,,,,61003c15bb9c1a8561eac292,61036bc74359aaedd3b9c352,2021-07-29_22h03.04.848,Simcolourproject_2stim_asymm_v5,2020.2.10,Win32,60,61025ae37ef11b136ea224fe,,,,,,,,,2560,72,141,1,0,0,response1disk,,7,4,3,1,0,0,rectangle,4,3,1,0,0,4,3,1,0,0,0,118,118,27,1,,,,,,,,
,,,,,,,,,,,,,FF,,,,,,,,1.7349,,,,,,,,,,,,,,,,,,,,,,61003c15bb9c1a8561eac292,61036bc74359aaedd3b9c352,2021-07-29_22h03.04.848,Simcolourproject_2stim_asymm_v5,2020.2.10,Win32,60,61025ae37ef11b136ea224fe,,,,,,,,,2026,-135,-75,1,0,0,response5disk,,2,7,10,1,0,0,rectangle,7,10,1,0,0,7,10,1,0,0,0,119,119,78,1,,,,,,,,
,,,,,,,,,,,,,FF,,,,,,,,0.6171,,,,,,,,,,,,,,,,,,,,,,61003c15bb9c1a8561eac292,61036bc74359aaedd3b9c352,2021-07-29_22h03.04.848,Simcolourproject_2stim_asymm_v5,2020.2.10,Win32,60,61025ae37ef11b136ea224fe,,,,,,,,,3451,62,113,1,0,0,response1disk,,7,17,5,1,0,0,rectangle,17,5,1,0,0,17,5,1,0,0,0,120,120,137,1,,,,,,,,
,,,,,,,,,,,,,FF,,,,,,,,0.8172,,,,,,,,,,,,,,,,,,,,,,61003c15bb9c1a8561eac292,61036bc74359aaedd3b9c352,2021-07-29_22h03.04.848,Simcolourproject_2stim_asymm_v5,2020.2.10,Win32,60,61025ae37ef11b136ea224fe,,,,,,,,,4317,151,55,1,0,0,response1disk,,6,5,-1,1,0,0,rectangle,5,-1,1,0,0,5,-1,1,0,0,0,121,121,30,1,,,,,,,,
,,,,,,,,,,,,,FF,,,,,,,,2.7687,,,,,,,,,,,,,,,,,,,,,,61003c15bb9c1a8561eac292,61036bc74359aaedd3b9c352,2021-07-29_22h03.04.848,Simcolourproject_2stim_asymm_v5,2020.2.10,Win32,60,61025ae37ef11b136ea224fe,,,,,,,,,800,90,-47,1,0,0,response3disk,,5,33,11,1,0,0,rectangle,33,11,1,0,0,33,11,1,0,0,0,122,122,9,1,,,,,,,,
,,,,,,,,,,,,,FF,,,,,,,,1.4345,,,,,,,,,,,,,,,,,,,,,,61003c15bb9c1a8561eac292,61036bc74359aaedd3b9c352,2021-07-29_22h03.04.848,Simcolourproject_2stim_asymm_v5,2020.2.10,Win32,60,61025ae37ef11b136ea224fe,,,,,,,,,2665,-85,-117,1,0,0,response5disk,,3,-9,-8,1,0,0,rectangle,-9,-8,1,0,0,-9,-8,1,0,0,0,123,123,66,1,,,,,,,,
,,,,,,,,,,,,,FF,,,,,,,,0.5671,,,,,,,,,,,,,,,,,,,,,,61003c15bb9c1a8561eac292,61036bc74359aaedd3b9c352,2021-07-29_22h03.04.848,Simcolourproject_2stim_asymm_v5,2020.2.10,Win32,60,61025ae37ef11b136ea224fe,,,,,,,,,2572,79,116,1,0,0,response1disk,,7,19,-4,1,0,0,rectangle,19,-4,1,0,0,19,-4,1,0,0,0,124,124,20,1,,,,,,,,
,,,,,,,,,,,,,FF,,,,,,,,0.9507,,,,,,,,,,,,,,,,,,,,,,61003c15bb9c1a8561eac292,61036bc74359aaedd3b9c352,2021-07-29_22h03.04.848,Simcolourproject_2stim_asymm_v5,2020.2.10,Win32,60,61025ae37ef11b136ea224fe,,,,,,,,,4074,108,31,1,0,0,response1disk,,6,19,-10,1,0,0,rectangle,19,-10,1,0,0,19,-10,1,0,0,0,125,125,17,1,,,,,,,,
,,,,,,,,,,,,,FF,,,,,,,,0.9673,,,,,,,,,,,,,,,,,,,,,,61003c15bb9c1a8561eac292,61036bc74359aaedd3b9c352,2021-07-29_22h03.04.848,Simcolourproject_2stim_asymm_v5,2020.2.10,Win32,60,61025ae37ef11b136ea224fe,,,,,,,,,1985,66,136,1,0,0,response1disk,,7,5,22,1,0,0,rectangle,5,22,1,0,0,5,22,1,0,0,0,126,126,129,1,,,,,,,,
,,,,,,,,,,,,,FF,,,,,,,,0.9675,,,,,,,,,,,,,,,,,,,,,,61003c15bb9c1a8561eac292,61036bc74359aaedd3b9c352,2021-07-29_22h03.04.848,Simcolourproject_2stim_asymm_v5,2020.2.10,Win32,60,61025ae37ef11b136ea224fe,,,,,,,,,2852,69,102,1,0,0,response1disk,,7,16,-20,1,0,0,rectangle,16,-20,1,0,0,16,-20,1,0,0,0,127,127,44,1,,,,,,,,
,,,,,,,,,,,,,FF,,,,,,,,0.7173,,,,,,,,,,,,,,,,,,,,,,61003c15bb9c1a8561eac292,61036bc74359aaedd3b9c352,2021-07-29_22h03.04.848,Simcolourproject_2stim_asymm_v5,2020.2.10,Win32,60,61025ae37ef11b136ea224fe,,,,,,,,,114,69,108,1,0,0,response1disk,,7,29,5,1,0,0,rectangle,29,5,1,0,0,29,5,1,0,0,0,128,128,104,1,,,,,,,,
,,,,,,,,,,,,,FF,,,,,,,,1.2342,,,,,,,,,,,,,,,,,,,,,,61003c15bb9c1a8561eac292,61036bc74359aaedd3b9c352,2021-07-29_22h03.04.848,Simcolourproject_2stim_asymm_v5,2020.2.10,Win32,60,61025ae37ef11b136ea224fe,,,,,,,,,1193,122,23,1,0,0,response1disk,,6,-17,-7,1,0,0,rectangle,-17,-7,1,0,0,-17,-7,1,0,0,0,129,129,76,1,,,,,,,,
,,,,,,,,,,,,,FF,,,,,,,,0.6002,,,,,,,,,,,,,,,,,,,,,,61003c15bb9c1a8561eac292,61036bc74359aaedd3b9c352,2021-07-29_22h03.04.848,Simcolourproject_2stim_asymm_v5,2020.2.10,Win32,60,61025ae37ef11b136ea224fe,,,,,,,,,4344,-64,127,1,0,0,response7disk,,0,1,-2,1,0,0,rectangle,1,-2,1,0,0,1,-2,1,0,0,0,130,130,23,1,,,,,,,,
,,,,,,,,,,,,,FF,,,,,,,,0.9338,,,,,,,,,,,,,,,,,,,,,,61003c15bb9c1a8561eac292,61036bc74359aaedd3b9c352,2021-07-29_22h03.04.848,Simcolourproject_2stim_asymm_v5,2020.2.10,Win32,60,61025ae37ef11b136ea224fe,,,,,,,,,2246,43,116,1,0,0,response1disk,,7,-3,19,1,0,0,rectangle,-3,19,1,0,0,-3,19,1,0,0,0,131,131,47,1,,,,,,,,
,,,,,,,,,,,,,FF,,,,,,,,0.8671,,,,,,,,,,,,,,,,,,,,,,61003c15bb9c1a8561eac292,61036bc74359aaedd3b9c352,2021-07-29_22h03.04.848,Simcolourproject_2stim_asymm_v5,2020.2.10,Win32,60,61025ae37ef11b136ea224fe,,,,,,,,,570,126,-56,1,0,0,response3disk,,5,-17,15,1,0,0,rectangle,-17,15,1,0,0,-17,15,1,0,0,0,132,132,51,1,,,,,,,,
,,,,,,,,,,,,,FF,,,,,,,,2.5353,,,,,,,,,,,,,,,,,,,,,,61003c15bb9c1a8561eac292,61036bc74359aaedd3b9c352,2021-07-29_22h03.04.848,Simcolourproject_2stim_asymm_v5,2020.2.10,Win32,60,61025ae37ef11b136ea224fe,,,,,,,,,1812,120,84,1,0,0,response1disk,,6,32,-10,1,0,0,rectangle,32,-10,1,0,0,32,-10,1,0,0,0,133,133,46,1,,,,,,,,
,,,,,,,,,,,,,FF,,,,,,,,0.4168,,,,,,,,,,,,,,,,,,,,,,61003c15bb9c1a8561eac292,61036bc74359aaedd3b9c352,2021-07-29_22h03.04.848,Simcolourproject_2stim_asymm_v5,2020.2.10,Win32,60,61025ae37ef11b136ea224fe,,,,,,,,,137,68,134,1,0,0,response1disk,,7,4,14,1,0,0,rectangle,4,14,1,0,0,4,14,1,0,0,0,134,134,156,1,,,,,,,,
,,,,,,,,,,,,,FF,,,,,,,,0.4504,,,,,,,,,,,,,,,,,,,,,,61003c15bb9c1a8561eac292,61036bc74359aaedd3b9c352,2021-07-29_22h03.04.848,Simcolourproject_2stim_asymm_v5,2020.2.10,Win32,60,61025ae37ef11b136ea224fe,,,,,,,,,63,78,105,1,0,0,response1disk,,7,-6,-12,1,0,0,rectangle,-6,-12,1,0,0,-6,-12,1,0,0,0,135,135,153,1,,,,,,,,
,,,,,,,,,,,,,FF,,,,,,,,0.3835,,,,,,,,,,,,,,,,,,,,,,61003c15bb9c1a8561eac292,61036bc74359aaedd3b9c352,2021-07-29_22h03.04.848,Simcolourproject_2stim_asymm_v5,2020.2.10,Win32,60,61025ae37ef11b136ea224fe,,,,,,,,,3532,73,91,1,0,0,response1disk,,7,-10,8,1,0,0,rectangle,-10,8,1,0,0,-10,8,1,0,0,0,136,136,10,1,,,,,,,,
,,,,,,,,,,,,,FF,,,,,,,,0.5331,,,,,,,,,,,,,,,,,,,,,,61003c15bb9c1a8561eac292,61036bc74359aaedd3b9c352,2021-07-29_22h03.04.848,Simcolourproject_2stim_asymm_v5,2020.2.10,Win32,60,61025ae37ef11b136ea224fe,,,,,,,,,3681,72,112,1,0,0,response1disk,,7,0,-5,1,0,0,rectangle,0,-5,1,0,0,0,-5,1,0,0,0,137,137,64,1,,,,,,,,
,,,,,,,,,,,,,FF,,,,,,,,0.417,,,,,,,,,,,,,,,,,,,,,,61003c15bb9c1a8561eac292,61036bc74359aaedd3b9c352,2021-07-29_22h03.04.848,Simcolourproject_2stim_asymm_v5,2020.2.10,Win32,60,61025ae37ef11b136ea224fe,,,,,,,,,3353,73,74,1,0,0,response1disk,,7,18,-23,1,0,0,rectangle,18,-23,1,0,0,18,-23,1,0,0,0,138,138,43,1,,,,,,,,
,,,,,,,,,,,,,FF,,,,,,,,0.6337,,,,,,,,,,,,,,,,,,,,,,61003c15bb9c1a8561eac292,61036bc74359aaedd3b9c352,2021-07-29_22h03.04.848,Simcolourproject_2stim_asymm_v5,2020.2.10,Win32,60,61025ae37ef11b136ea224fe,,,,,,,,,3158,111,40,1,0,0,response1disk,,6,-13,-11,1,0,0,rectangle,-13,-11,1,0,0,-13,-11,1,0,0,0,139,139,123,1,,,,,,,,
,,,,,,,,,,,,,FF,,,,,,,,0.3169,,,,,,,,,,,,,,,,,,,,,,61003c15bb9c1a8561eac292,61036bc74359aaedd3b9c352,2021-07-29_22h03.04.848,Simcolourproject_2stim_asymm_v5,2020.2.10,Win32,60,61025ae37ef11b136ea224fe,,,,,,,,,1876,106,-40,1,0,0,response3disk,,5,11,14,1,0,0,rectangle,11,14,1,0,0,11,14,1,0,0,0,140,140,55,1,,,,,,,,
,,,,,,,,,,,,,FF,,,,,,,,0.3838,,,,,,,,,,,,,,,,,,,,,,61003c15bb9c1a8561eac292,61036bc74359aaedd3b9c352,2021-07-29_22h03.04.848,Simcolourproject_2stim_asymm_v5,2020.2.10,Win32,60,61025ae37ef11b136ea224fe,,,,,,,,,694,82,47,1,0,0,response1disk,,6,-4,-13,1,0,0,rectangle,-143,65,1,0,0,-24,21,1,0,0,0,141,141,84,1,,response7disk_3,TRUE,1,1,"[142,68,92,14,41,155,111,76,311,165,42,7,304,94,295,55,250,289,250,161]",1.4173,rectangle
,,,,,,,,,,,,,FF,,,,,,,,1.4511,,,,,,,,,,,,,,,,,,,,,,61003c15bb9c1a8561eac292,61036bc74359aaedd3b9c352,2021-07-29_22h03.04.848,Simcolourproject_2stim_asymm_v5,2020.2.10,Win32,60,61025ae37ef11b136ea224fe,,,,,,,,,3979,102,-76,1,0,0,response3disk,,5,4,11,1,0,0,rectangle,4,11,1,0,0,4,11,1,0,0,0,142,142,94,1,,,,,,,,
,,,,,,,,,,,,,FF,,,,,,,,0.5671,,,,,,,,,,,,,,,,,,,,,,61003c15bb9c1a8561eac292,61036bc74359aaedd3b9c352,2021-07-29_22h03.04.848,Simcolourproject_2stim_asymm_v5,2020.2.10,Win32,60,61025ae37ef11b136ea224fe,,,,,,,,,2822,40,108,1,0,0,response1disk,,7,-23,-1,1,0,0,rectangle,-23,-1,1,0,0,-23,-1,1,0,0,0,143,143,63,1,,,,,,,,
,,,,,,,,,,,,,FF,,,,,,,,0.4171,,,,,,,,,,,,,,,,,,,,,,61003c15bb9c1a8561eac292,61036bc74359aaedd3b9c352,2021-07-29_22h03.04.848,Simcolourproject_2stim_asymm_v5,2020.2.10,Win32,60,61025ae37ef11b136ea224fe,,,,,,,,,2863,48,113,1,0,0,response1disk,,7,2,3,1,0,0,rectangle,2,3,1,0,0,2,3,1,0,0,0,144,144,152,1,,,,,,,,
,,,,,,,,,,,,,FF,,,,,,,,1.0842,,,,,,,,,,,,,,,,,,,,,,61003c15bb9c1a8561eac292,61036bc74359aaedd3b9c352,2021-07-29_22h03.04.848,Simcolourproject_2stim_asymm_v5,2020.2.10,Win32,60,61025ae37ef11b136ea224fe,,,,,,,,,1072,51,-113,1,0,0,response3disk,,4,-4,0,1,0,0,rectangle,-4,0,1,0,0,-4,0,1,0,0,0,145,145,19,1,,,,,,,,
,,,,,,,,,,,,,FF,,,,,,,,5.7713,,,,,,,,,,,,,,,,,,,,,,61003c15bb9c1a8561eac292,61036bc74359aaedd3b9c352,2021-07-29_22h03.04.848,Simcolourproject_2stim_asymm_v5,2020.2.10,Win32,60,61025ae37ef11b136ea224fe,,,,,,,,,3883,105,51,1,0,0,response1disk,,6,22,-8,1,0,0,rectangle,22,-8,1,0,0,22,-8,1,0,0,0,146,146,90,1,,,,,,,,
,,,,,,,,,,,,,FF,,,,,,,,0.6338,,,,,,,,,,,,,,,,,,,,,,61003c15bb9c1a8561eac292,61036bc74359aaedd3b9c352,2021-07-29_22h03.04.848,Simcolourproject_2stim_asymm_v5,2020.2.10,Win32,60,61025ae37ef11b136ea224fe,,,,,,,,,1088,42,118,1,0,0,response1disk,,7,3,5,1,0,0,rectangle,3,5,1,0,0,3,5,1,0,0,0,147,147,88,1,,,,,,,,
,,,,,,,,,,,,,FF,,,,,,,,0.9007,,,,,,,,,,,,,,,,,,,,,,61003c15bb9c1a8561eac292,61036bc74359aaedd3b9c352,2021-07-29_22h03.04.848,Simcolourproject_2stim_asymm_v5,2020.2.10,Win32,60,61025ae37ef11b136ea224fe,,,,,,,,,3197,-91,-59,1,0,0,response5disk,,2,18,-5,1,0,0,rectangle,18,-5,1,0,0,18,-5,1,0,0,0,148,148,34,1,,,,,,,,
,,,,,,,,,,,,,FF,,,,,,,,2.0349,,,,,,,,,,,,,,,,,,,,,,61003c15bb9c1a8561eac292,61036bc74359aaedd3b9c352,2021-07-29_22h03.04.848,Simcolourproject_2stim_asymm_v5,2020.2.10,Win32,60,61025ae37ef11b136ea224fe,,,,,,,,,3574,43,112,1,0,0,response1disk,,7,-19,12,1,0,0,rectangle,-19,12,1,0,0,-19,12,1,0,0,0,149,149,73,1,,,,,,,,
,,,,,,,,,,,,,FF,,,,,,,,0.4336,,,,,,,,,,,,,,,,,,,,,,61003c15bb9c1a8561eac292,61036bc74359aaedd3b9c352,2021-07-29_22h03.04.848,Simcolourproject_2stim_asymm_v5,2020.2.10,Win32,60,61025ae37ef11b136ea224fe,,,,,,,,,1416,71,122,1,0,0,response1disk,,7,24,-6,1,0,0,rectangle,24,-6,1,0,0,24,-6,1,0,0,0,150,150,11,1,,,,,,,,
,,,,,,,,,,,,,FF,,,,,,,,0.884,,,,,,,,,,,,,,,,,,,,,,61003c15bb9c1a8561eac292,61036bc74359aaedd3b9c352,2021-07-29_22h03.04.848,Simcolourproject_2stim_asymm_v5,2020.2.10,Win32,60,61025ae37ef11b136ea224fe,,,,,,,,,2421,-102,-52,1,0,0,response5disk,,2,-4,15,1,0,0,rectangle,-4,15,1,0,0,-4,15,1,0,0,0,151,151,134,1,,,,,,,,
,,,,,,,,,,,,,FF,,,,,,,,1.5177,,,,,,,,,,,,,,,,,,,,,,61003c15bb9c1a8561eac292,61036bc74359aaedd3b9c352,2021-07-29_22h03.04.848,Simcolourproject_2stim_asymm_v5,2020.2.10,Win32,60,61025ae37ef11b136ea224fe,,,,,,,,,2021,105,36,1,0,0,response1disk,,6,-15,-11,1,0,0,rectangle,-15,-11,1,0,0,-15,-11,1,0,0,0,152,152,54,1,,,,,,,,
,,,,,,,,,,,,,FF,,,,,,,,0.8006,,,,,,,,,,,,,,,,,,,,,,61003c15bb9c1a8561eac292,61036bc74359aaedd3b9c352,2021-07-29_22h03.04.848,Simcolourproject_2stim_asymm_v5,2020.2.10,Win32,60,61025ae37ef11b136ea224fe,,,,,,,,,2304,66,97,1,0,0,response1disk,,7,-10,5,1,0,0,rectangle,-10,5,1,0,0,-10,5,1,0,0,0,153,153,15,1,,,,,,,,
,,,,,,,,,,,,,FF,,,,,,,,1.2177,,,,,,,,,,,,,,,,,,,,,,61003c15bb9c1a8561eac292,61036bc74359aaedd3b9c352,2021-07-29_22h03.04.848,Simcolourproject_2stim_asymm_v5,2020.2.10,Win32,60,61025ae37ef11b136ea224fe,,,,,,,,,3728,108,64,1,0,0,response1disk,,6,12,-6,1,0,0,rectangle,36,143,1,0,0,15,17,1,0,0,0,154,154,116,1,,response1disk_3,TRUE,7,7,"[142,68,92,14,41,155,111,76,311,165,42,7,304,94,295,55,250,289,250,161]",1.5345,rectangle
,,,,,,,,,,,,,FF,,,,,,,,0.6672,,,,,,,,,,,,,,,,,,,,,,61003c15bb9c1a8561eac292,61036bc74359aaedd3b9c352,2021-07-29_22h03.04.848,Simcolourproject_2stim_asymm_v5,2020.2.10,Win32,60,61025ae37ef11b136ea224fe,,,,,,,,,3455,52,108,1,0,0,response1disk,,7,8,1,1,0,0,rectangle,8,1,1,0,0,8,1,1,0,0,0,155,155,52,1,,,,,,,,
,,,,,,,,,,,,,FF,,,,,,,,3.2526,,,,,,,,,,,,,,,,,,,,,,61003c15bb9c1a8561eac292,61036bc74359aaedd3b9c352,2021-07-29_22h03.04.848,Simcolourproject_2stim_asymm_v5,2020.2.10,Win32,60,61025ae37ef11b136ea224fe,,,,,,,,,4051,104,55,1,0,0,response1disk,,6,40,-12,1,0,0,rectangle,40,-12,1,0,0,40,-12,1,0,0,0,156,156,112,1,,,,,,,,
,,,,,,,,,,,,,FF,,,,,,,,5.1375,,,,,,,,,,,,,,,,,,,,,,61003c15bb9c1a8561eac292,61036bc74359aaedd3b9c352,2021-07-29_22h03.04.848,Simcolourproject_2stim_asymm_v5,2020.2.10,Win32,60,61025ae37ef11b136ea224fe,,,,,,,,,1154,112,54,1,0,0,response1disk,,6,7,-12,1,0,0,rectangle,7,-12,1,0,0,7,-12,1,0,0,0,157,157,71,1,,,,,,,,
,,,,,,,,,,,,,FF,,,,,,,,1.0343,,,,,,,,,,,,,,,,,,,,,,61003c15bb9c1a8561eac292,61036bc74359aaedd3b9c352,2021-07-29_22h03.04.848,Simcolourproject_2stim_asymm_v5,2020.2.10,Win32,60,61025ae37ef11b136ea224fe,,,,,,,,,4014,45,92,1,0,0,response1disk,,7,4,-3,1,0,0,rectangle,4,-3,1,0,0,4,-3,1,0,0,0,158,158,28,1,,,,,,,,
,,,,,,,,,,,,,FF,,,,,,,,0.5504,,,,,,,,,,,,,,,,,,,,,,61003c15bb9c1a8561eac292,61036bc74359aaedd3b9c352,2021-07-29_22h03.04.848,Simcolourproject_2stim_asymm_v5,2020.2.10,Win32,60,61025ae37ef11b136ea224fe,,,,,,,,,2520,60,115,1,0,0,response1disk,,7,2,-19,1,0,0,rectangle,2,-19,1,0,0,2,-19,1,0,0,0,159,159,7,1,,,,,,,,
,,,,,,,,,,,,,FF,,,,,,,,0.8676,,,,,,,,,,,,,,,,,,,,,,61003c15bb9c1a8561eac292,61036bc74359aaedd3b9c352,2021-07-29_22h03.04.848,Simcolourproject_2stim_asymm_v5,2020.2.10,Win32,60,61025ae37ef11b136ea224fe,,,,,,,,,4108,100,-67,1,0,0,response3disk,,5,3,5,1,0,0,rectangle,54,115,1,0,0,21,0,1,0,0,1,0,160,123,1,,response1disk_3,TRUE,7,7,"[142,68,92,14,41,155,111,76,311,165,42,7,304,94,295,55,250,289,250,161]",2.0349,rectangle
,,,,,,,,,,,,,FF,,,,,,,,1.4512,,,,,,,,,,,,,,,,,,,,,,61003c15bb9c1a8561eac292,61036bc74359aaedd3b9c352,2021-07-29_22h03.04.848,Simcolourproject_2stim_asymm_v5,2020.2.10,Win32,60,61025ae37ef11b136ea224fe,,,,,,,,,3330,-64,-132,1,0,0,response5disk,,3,-12,-17,1,0,0,rectangle,-12,-17,1,0,0,-12,-17,1,0,0,1,1,161,81,1,,,,,,,,
,,,,,,,,,,,,,FF,,,,,,,,1.7515,,,,,,,,,,,,,,,,,,,,,,61003c15bb9c1a8561eac292,61036bc74359aaedd3b9c352,2021-07-29_22h03.04.848,Simcolourproject_2stim_asymm_v5,2020.2.10,Win32,60,61025ae37ef11b136ea224fe,,,,,,,,,50,118,47,1,0,0,response1disk,,6,20,11,1,0,0,rectangle,20,11,1,0,0,20,11,1,0,0,1,2,162,134,1,,,,,,,,
,,,,,,,,,,,,,FF,,,,,,,,1.4846,,,,,,,,,,,,,,,,,,,,,,61003c15bb9c1a8561eac292,61036bc74359aaedd3b9c352,2021-07-29_22h03.04.848,Simcolourproject_2stim_asymm_v5,2020.2.10,Win32,60,61025ae37ef11b136ea224fe,,,,,,,,,1429,70,-128,1,0,0,response3disk,,4,17,-15,1,0,0,rectangle,17,-15,1,0,0,17,-15,1,0,0,1,3,163,86,1,,,,,,,,
,,,,,,,,,,,,,FF,,,,,,,,0.6675,,,,,,,,,,,,,,,,,,,,,,61003c15bb9c1a8561eac292,61036bc74359aaedd3b9c352,2021-07-29_22h03.04.848,Simcolourproject_2stim_asymm_v5,2020.2.10,Win32,60,61025ae37ef11b136ea224fe,,,,,,,,,4230,49,86,1,0,0,response1disk,,7,7,-6,1,0,0,rectangle,-87,44,1,0,0,-11,-2,1,0,0,1,4,164,113,1,,response7disk_3,TRUE,1,1,"[142,68,92,14,41,155,111,76,311,165,42,7,304,94,295,55,250,289,250,161]",1.2508,rectangle
,,,,,,,,,,,,,FF,,,,,,,,4.0532,,,,,,,,,,,,,,,,,,,,,,61003c15bb9c1a8561eac292,61036bc74359aaedd3b9c352,2021-07-29_22h03.04.848,Simcolourproject_2stim_asymm_v5,2020.2.10,Win32,60,61025ae37ef11b136ea224fe,,,,,,,,,2373,84,45,1,0,0,response1disk,,6,21,-9,1,0,0,rectangle,21,-9,1,0,0,21,-9,1,0,0,1,5,165,6,1,,,,,,,,
,,,,,,,,,,,,,FF,,,,,,,,0.5838,,,,,,,,,,,,,,,,,,,,,,61003c15bb9c1a8561eac292,61036bc74359aaedd3b9c352,2021-07-29_22h03.04.848,Simcolourproject_2stim_asymm_v5,2020.2.10,Win32,60,61025ae37ef11b136ea224fe,,,,,,,,,543,-50,115,1,0,0,response7disk,,0,-6,-3,1,0,0,rectangle,-6,-3,1,0,0,-6,-3,1,0,0,1,6,166,58,1,,,,,,,,
,,,,,,,,,,,,,FF,,,,,,,,0.6839,,,,,,,,,,,,,,,,,,,,,,61003c15bb9c1a8561eac292,61036bc74359aaedd3b9c352,2021-07-29_22h03.04.848,Simcolourproject_2stim_asymm_v5,2020.2.10,Win32,60,61025ae37ef11b136ea224fe,,,,,,,,,1896,-93,44,1,0,0,response7disk,,1,-8,-14,1,0,0,rectangle,-8,-14,1,0,0,-8,-14,1,0,0,1,7,167,93,1,,,,,,,,
,,,,,,,,,,,,,FF,,,,,,,,0.7674,,,,,,,,,,,,,,,,,,,,,,61003c15bb9c1a8561eac292,61036bc74359aaedd3b9c352,2021-07-29_22h03.04.848,Simcolourproject_2stim_asymm_v5,2020.2.10,Win32,60,61025ae37ef11b136ea224fe,,,,,,,,,787,-43,-82,1,0,0,response5disk,,3,6,-10,1,0,0,rectangle,6,-10,1,0,0,6,-10,1,0,0,1,8,168,55,1,,,,,,,,
,,,,,,,,,,,,,FF,,,,,,,,0.7674,,,,,,,,,,,,,,,,,,,,,,61003c15bb9c1a8561eac292,61036bc74359aaedd3b9c352,2021-07-29_22h03.04.848,Simcolourproject_2stim_asymm_v5,2020.2.10,Win32,60,61025ae37ef11b136ea224fe,,,,,,,,,1019,80,-38,1,0,0,response3disk,,5,20,17,1,0,0,rectangle,20,17,1,0,0,20,17,1,0,0,1,9,169,122,1,,,,,,,,
,,,,,,,,,,,,,FF,,,,,,,,0.6004,,,,,,,,,,,,,,,,,,,,,,61003c15bb9c1a8561eac292,61036bc74359aaedd3b9c352,2021-07-29_22h03.04.848,Simcolourproject_2stim_asymm_v5,2020.2.10,Win32,60,61025ae37ef11b136ea224fe,,,,,,,,,591,89,45,1,0,0,response1disk,,6,5,1,1,0,0,rectangle,5,1,1,0,0,5,1,1,0,0,1,10,170,12,1,,,,,,,,
,,,,,,,,,,,,,FF,,,,,,,,0.534,,,,,,,,,,,,,,,,,,,,,,61003c15bb9c1a8561eac292,61036bc74359aaedd3b9c352,2021-07-29_22h03.04.848,Simcolourproject_2stim_asymm_v5,2020.2.10,Win32,60,61025ae37ef11b136ea224fe,,,,,,,,,2016,72,116,1,0,0,response1disk,,7,18,1,1,0,0,rectangle,18,1,1,0,0,18,1,1,0,0,1,11,171,56,1,,,,,,,,
,,,,,,,,,,,,,FF,,,,,,,,0.8674,,,,,,,,,,,,,,,,,,,,,,61003c15bb9c1a8561eac292,61036bc74359aaedd3b9c352,2021-07-29_22h03.04.848,Simcolourproject_2stim_asymm_v5,2020.2.10,Win32,60,61025ae37ef11b136ea224fe,,,,,,,,,4139,60,84,1,0,0,response1disk,,7,20,11,1,0,0,rectangle,20,11,1,0,0,20,11,1,0,0,1,12,172,9,1,,,,,,,,
,,,,,,,,,,,,,FF,,,,,,,,0.6505,,,,,,,,,,,,,,,,,,,,,,61003c15bb9c1a8561eac292,61036bc74359aaedd3b9c352,2021-07-29_22h03.04.848,Simcolourproject_2stim_asymm_v5,2020.2.10,Win32,60,61025ae37ef11b136ea224fe,,,,,,,,,1320,45,94,1,0,0,response1disk,,7,3,1,1,0,0,rectangle,3,1,1,0,0,3,1,1,0,0,1,13,173,148,1,,,,,,,,
,,,,,,,,,,,,,FF,,,,,,,,0.9174,,,,,,,,,,,,,,,,,,,,,,61003c15bb9c1a8561eac292,61036bc74359aaedd3b9c352,2021-07-29_22h03.04.848,Simcolourproject_2stim_asymm_v5,2020.2.10,Win32,60,61025ae37ef11b136ea224fe,,,,,,,,,3057,-86,-52,1,0,0,response5disk,,2,0,-15,1,0,0,rectangle,0,-15,1,0,0,0,-15,1,0,0,1,14,174,77,1,,,,,,,,
,,,,,,,,,,,,,FF,,,,,,,,0.9174,,,,,,,,,,,,,,,,,,,,,,61003c15bb9c1a8561eac292,61036bc74359aaedd3b9c352,2021-07-29_22h03.04.848,Simcolourproject_2stim_asymm_v5,2020.2.10,Win32,60,61025ae37ef11b136ea224fe,,,,,,,,,612,131,-60,1,0,0,response3disk,,5,-3,-8,1,0,0,rectangle,-3,-8,1,0,0,-3,-8,1,0,0,1,15,175,49,1,,,,,,,,
,,,,,,,,,,,,,FF,,,,,,,,0.6672,,,,,,,,,,,,,,,,,,,,,,61003c15bb9c1a8561eac292,61036bc74359aaedd3b9c352,2021-07-29_22h03.04.848,Simcolourproject_2stim_asymm_v5,2020.2.10,Win32,60,61025ae37ef11b136ea224fe,,,,,,,,,1033,103,-47,1,0,0,response3disk,,5,-5,5,1,0,0,rectangle,-5,5,1,0,0,-5,5,1,0,0,1,16,176,150,1,,,,,,,,
,,,,,,,,,,,,,FF,,,,,,,,0.9008,,,,,,,,,,,,,,,,,,,,,,61003c15bb9c1a8561eac292,61036bc74359aaedd3b9c352,2021-07-29_22h03.04.848,Simcolourproject_2stim_asymm_v5,2020.2.10,Win32,60,61025ae37ef11b136ea224fe,,,,,,,,,2229,-79,-118,1,0,0,response5disk,,3,-34,1,1,0,0,rectangle,-34,1,1,0,0,-34,1,1,0,0,1,17,177,107,1,,,,,,,,
,,,,,,,,,,,,,FF,,,,,,,,0.6841,,,,,,,,,,,,,,,,,,,,,,61003c15bb9c1a8561eac292,61036bc74359aaedd3b9c352,2021-07-29_22h03.04.848,Simcolourproject_2stim_asymm_v5,2020.2.10,Win32,60,61025ae37ef11b136ea224fe,,,,,,,,,1680,-54,-118,1,0,0,response5disk,,3,14,15,1,0,0,rectangle,14,15,1,0,0,14,15,1,0,0,1,18,178,111,1,,,,,,,,
,,,,,,,,,,,,,FF,,,,,,,,0.6507,,,,,,,,,,,,,,,,,,,,,,61003c15bb9c1a8561eac292,61036bc74359aaedd3b9c352,2021-07-29_22h03.04.848,Simcolourproject_2stim_asymm_v5,2020.2.10,Win32,60,61025ae37ef11b136ea224fe,,,,,,,,,1754,-48,-103,1,0,0,response5disk,,3,10,-9,1,0,0,rectangle,10,-9,1,0,0,10,-9,1,0,0,1,19,179,89,1,,,,,,,,
,,,,,,,,,,,,,FF,,,,,,,,0.9007,,,,,,,,,,,,,,,,,,,,,,61003c15bb9c1a8561eac292,61036bc74359aaedd3b9c352,2021-07-29_22h03.04.848,Simcolourproject_2stim_asymm_v5,2020.2.10,Win32,60,61025ae37ef11b136ea224fe,,,,,,,,,1879,61,-133,1,0,0,response3disk,,4,13,-18,1,0,0,rectangle,13,-18,1,0,0,13,-18,1,0,0,1,20,180,10,1,,,,,,,,
,,,,,,,,,,,,,FF,,,,,,,,0.6339,,,,,,,,,,,,,,,,,,,,,,61003c15bb9c1a8561eac292,61036bc74359aaedd3b9c352,2021-07-29_22h03.04.848,Simcolourproject_2stim_asymm_v5,2020.2.10,Win32,60,61025ae37ef11b136ea224fe,,,,,,,,,1806,50,132,1,0,0,response1disk,,7,-8,1,1,0,0,rectangle,-8,1,1,0,0,-8,1,1,0,0,1,21,181,139,1,,,,,,,,
,,,,,,,,,,,,,FF,,,,,,,,0.7339,,,,,,,,,,,,,,,,,,,,,,61003c15bb9c1a8561eac292,61036bc74359aaedd3b9c352,2021-07-29_22h03.04.848,Simcolourproject_2stim_asymm_v5,2020.2.10,Win32,60,61025ae37ef11b136ea224fe,,,,,,,,,217,115,49,1,0,0,response1disk,,6,19,9,1,0,0,rectangle,19,9,1,0,0,19,9,1,0,0,1,22,182,51,1,,,,,,,,
,,,,,,,,,,,,,FF,,,,,,,,0.7507,,,,,,,,,,,,,,,,,,,,,,61003c15bb9c1a8561eac292,61036bc74359aaedd3b9c352,2021-07-29_22h03.04.848,Simcolourproject_2stim_asymm_v5,2020.2.10,Win32,60,61025ae37ef11b136ea224fe,,,,,,,,,268,69,40,1,0,0,response1disk,,6,19,-7,1,0,0,rectangle,19,-7,1,0,0,19,-7,1,0,0,1,23,183,34,1,,,,,,,,
,,,,,,,,,,,,,FF,,,,,,,,0.5672,,,,,,,,,,,,,,,,,,,,,,61003c15bb9c1a8561eac292,61036bc74359aaedd3b9c352,2021-07-29_22h03.04.848,Simcolourproject_2stim_asymm_v5,2020.2.10,Win32,60,61025ae37ef11b136ea224fe,,,,,,,,,1487,60,130,1,0,0,response1disk,,7,-1,-1,1,0,0,rectangle,-1,-1,1,0,0,-1,-1,1,0,0,1,24,184,95,1,,,,,,,,
,,,,,,,,,,,,,FF,,,,,,,,0.5004,,,,,,,,,,,,,,,,,,,,,,61003c15bb9c1a8561eac292,61036bc74359aaedd3b9c352,2021-07-29_22h03.04.848,Simcolourproject_2stim_asymm_v5,2020.2.10,Win32,60,61025ae37ef11b136ea224fe,,,,,,,,,2450,49,112,1,0,0,response1disk,,7,6,15,1,0,0,rectangle,6,15,1,0,0,6,15,1,0,0,1,25,185,63,1,,,,,,,,
,,,,,,,,,,,,,FF,,,,,,,,1.8517,,,,,,,,,,,,,,,,,,,,,,61003c15bb9c1a8561eac292,61036bc74359aaedd3b9c352,2021-07-29_22h03.04.848,Simcolourproject_2stim_asymm_v5,2020.2.10,Win32,60,61025ae37ef11b136ea224fe,,,,,,,,,1119,104,-70,1,0,0,response3disk,,5,4,-15,1,0,0,rectangle,4,-15,1,0,0,4,-15,1,0,0,1,26,186,78,1,,,,,,,,
,,,,,,,,,,,,,FF,,,,,,,,0.4504,,,,,,,,,,,,,,,,,,,,,,61003c15bb9c1a8561eac292,61036bc74359aaedd3b9c352,2021-07-29_22h03.04.848,Simcolourproject_2stim_asymm_v5,2020.2.10,Win32,60,61025ae37ef11b136ea224fe,,,,,,,,,2753,43,88,1,0,0,response1disk,,7,2,20,1,0,0,rectangle,2,20,1,0,0,2,20,1,0,0,1,27,187,84,1,,,,,,,,
,,,,,,,,,,,,,FF,,,,,,,,0.5339,,,,,,,,,,,,,,,,,,,,,,61003c15bb9c1a8561eac292,61036bc74359aaedd3b9c352,2021-07-29_22h03.04.848,Simcolourproject_2stim_asymm_v5,2020.2.10,Win32,60,61025ae37ef11b136ea224fe,,,,,,,,,839,38,122,1,0,0,response1disk,,7,-27,16,1,0,0,rectangle,-27,16,1,0,0,-27,16,1,0,0,1,28,188,23,1,,,,,,,,
,,,,,,,,,,,,,FF,,,,,,,,0.8339,,,,,,,,,,,,,,,,,,,,,,61003c15bb9c1a8561eac292,61036bc74359aaedd3b9c352,2021-07-29_22h03.04.848,Simcolourproject_2stim_asymm_v5,2020.2.10,Win32,60,61025ae37ef11b136ea224fe,,,,,,,,,3101,-97,-122,1,0,0,response5disk,,3,-12,-1,1,0,0,rectangle,-12,-1,1,0,0,-12,-1,1,0,0,1,29,189,37,1,,,,,,,,
,,,,,,,,,,,,,FF,,,,,,,,0.5838,,,,,,,,,,,,,,,,,,,,,,61003c15bb9c1a8561eac292,61036bc74359aaedd3b9c352,2021-07-29_22h03.04.848,Simcolourproject_2stim_asymm_v5,2020.2.10,Win32,60,61025ae37ef11b136ea224fe,,,,,,,,,2661,-94,-48,1,0,0,response5disk,,2,3,19,1,0,0,rectangle,3,19,1,0,0,3,19,1,0,0,1,30,190,69,1,,,,,,,,
,,,,,,,,,,,,,FF,,,,,,,,0.9008,,,,,,,,,,,,,,,,,,,,,,61003c15bb9c1a8561eac292,61036bc74359aaedd3b9c352,2021-07-29_22h03.04.848,Simcolourproject_2stim_asymm_v5,2020.2.10,Win32,60,61025ae37ef11b136ea224fe,,,,,,,,,2907,45,-106,1,0,0,response3disk,,4,-2,10,1,0,0,rectangle,-2,10,1,0,0,-2,10,1,0,0,1,31,191,28,1,,,,,,,,
,,,,,,,,,,,,,FF,,,,,,,,0.5671,,,,,,,,,,,,,,,,,,,,,,61003c15bb9c1a8561eac292,61036bc74359aaedd3b9c352,2021-07-29_22h03.04.848,Simcolourproject_2stim_asymm_v5,2020.2.10,Win32,60,61025ae37ef11b136ea224fe,,,,,,,,,3563,80,-62,1,0,0,response3disk,,5,6,-5,1,0,0,rectangle,6,-5,1,0,0,6,-5,1,0,0,1,32,192,155,1,,,,,,,,
,,,,,,,,,,,,,FF,,,,,,,,0.5005,,,,,,,,,,,,,,,,,,,,,,61003c15bb9c1a8561eac292,61036bc74359aaedd3b9c352,2021-07-29_22h03.04.848,Simcolourproject_2stim_asymm_v5,2020.2.10,Win32,60,61025ae37ef11b136ea224fe,,,,,,,,,2151,40,108,1,0,0,response1disk,,7,5,-11,1,0,0,rectangle,5,-11,1,0,0,5,-11,1,0,0,1,33,193,153,1,,,,,,,,
,,,,,,,,,,,,,FF,,,,,,,,0.5004,,,,,,,,,,,,,,,,,,,,,,61003c15bb9c1a8561eac292,61036bc74359aaedd3b9c352,2021-07-29_22h03.04.848,Simcolourproject_2stim_asymm_v5,2020.2.10,Win32,60,61025ae37ef11b136ea224fe,,,,,,,,,2171,72,110,1,0,0,response1disk,,7,10,8,1,0,0,rectangle,10,8,1,0,0,10,8,1,0,0,1,34,194,90,1,,,,,,,,
,,,,,,,,,,,,,FF,,,,,,,,1.1009,,,,,,,,,,,,,,,,,,,,,,61003c15bb9c1a8561eac292,61036bc74359aaedd3b9c352,2021-07-29_22h03.04.848,Simcolourproject_2stim_asymm_v5,2020.2.10,Win32,60,61025ae37ef11b136ea224fe,,,,,,,,,1307,-113,-86,1,0,0,response5disk,,2,-12,4,1,0,0,rectangle,-12,4,1,0,0,-12,4,1,0,0,1,35,195,26,1,,,,,,,,
,,,,,,,,,,,,,FF,,,,,,,,0.6506,,,,,,,,,,,,,,,,,,,,,,61003c15bb9c1a8561eac292,61036bc74359aaedd3b9c352,2021-07-29_22h03.04.848,Simcolourproject_2stim_asymm_v5,2020.2.10,Win32,60,61025ae37ef11b136ea224fe,,,,,,,,,196,55,-109,1,0,0,response3disk,,4,38,0,1,0,0,rectangle,38,0,1,0,0,38,0,1,0,0,1,36,196,119,1,,,,,,,,
,,,,,,,,,,,,,FF,,,,,,,,0.784,,,,,,,,,,,,,,,,,,,,,,61003c15bb9c1a8561eac292,61036bc74359aaedd3b9c352,2021-07-29_22h03.04.848,Simcolourproject_2stim_asymm_v5,2020.2.10,Win32,60,61025ae37ef11b136ea224fe,,,,,,,,,884,42,89,1,0,0,response1disk,,7,-3,8,1,0,0,rectangle,-3,8,1,0,0,-3,8,1,0,0,1,37,197,32,1,,,,,,,,
,,,,,,,,,,,,,FF,,,,,,,,0.8508,,,,,,,,,,,,,,,,,,,,,,61003c15bb9c1a8561eac292,61036bc74359aaedd3b9c352,2021-07-29_22h03.04.848,Simcolourproject_2stim_asymm_v5,2020.2.10,Win32,60,61025ae37ef11b136ea224fe,,,,,,,,,931,83,38,1,0,0,response1disk,,6,20,0,1,0,0,rectangle,20,0,1,0,0,20,0,1,0,0,1,38,198,159,1,,,,,,,,
,,,,,,,,,,,,,FF,,,,,,,,0.9841,,,,,,,,,,,,,,,,,,,,,,61003c15bb9c1a8561eac292,61036bc74359aaedd3b9c352,2021-07-29_22h03.04.848,Simcolourproject_2stim_asymm_v5,2020.2.10,Win32,60,61025ae37ef11b136ea224fe,,,,,,,,,1246,54,140,1,0,0,response1disk,,7,-11,-7,1,0,0,rectangle,-11,-7,1,0,0,-11,-7,1,0,0,1,39,199,137,1,,,,,,,,
,,,,,,,,,,,,,FF,,,,,,,,0.5004,,,,,,,,,,,,,,,,,,,,,,61003c15bb9c1a8561eac292,61036bc74359aaedd3b9c352,2021-07-29_22h03.04.848,Simcolourproject_2stim_asymm_v5,2020.2.10,Win32,60,61025ae37ef11b136ea224fe,,,,,,,,,1847,29,93,1,0,0,response1disk,,7,-1,5,1,0,0,rectangle,-1,5,1,0,0,-1,5,1,0,0,1,40,200,145,1,,,,,,,,
,,,,,,,,,,,,,FF,,,,,,,,0.5839,,,,,,,,,,,,,,,,,,,,,,61003c15bb9c1a8561eac292,61036bc74359aaedd3b9c352,2021-07-29_22h03.04.848,Simcolourproject_2stim_asymm_v5,2020.2.10,Win32,60,61025ae37ef11b136ea224fe,,,,,,,,,1306,119,-28,1,0,0,response3disk,,5,17,16,1,0,0,rectangle,17,16,1,0,0,17,16,1,0,0,1,41,201,99,1,,,,,,,,
,,,,,,,,,,,,,FF,,,,,,,,0.5672,,,,,,,,,,,,,,,,,,,,,,61003c15bb9c1a8561eac292,61036bc74359aaedd3b9c352,2021-07-29_22h03.04.848,Simcolourproject_2stim_asymm_v5,2020.2.10,Win32,60,61025ae37ef11b136ea224fe,,,,,,,,,2558,28,107,1,0,0,response1disk,,7,-10,-11,1,0,0,rectangle,-10,-11,1,0,0,-10,-11,1,0,0,1,42,202,48,1,,,,,,,,
,,,,,,,,,,,,,FF,,,,,,,,0.8507,,,,,,,,,,,,,,,,,,,,,,61003c15bb9c1a8561eac292,61036bc74359aaedd3b9c352,2021-07-29_22h03.04.848,Simcolourproject_2stim_asymm_v5,2020.2.10,Win32,60,61025ae37ef11b136ea224fe,,,,,,,,,2434,115,-67,1,0,0,response3disk,,5,-2,-17,1,0,0,rectangle,-2,-17,1,0,0,-2,-17,1,0,0,1,43,203,31,1,,,,,,,,
,,,,,,,,,,,,,FF,,,,,,,,0.6506,,,,,,,,,,,,,,,,,,,,,,61003c15bb9c1a8561eac292,61036bc74359aaedd3b9c352,2021-07-29_22h03.04.848,Simcolourproject_2stim_asymm_v5,2020.2.10,Win32,60,61025ae37ef11b136ea224fe,,,,,,,,,388,37,92,1,0,0,response1disk,,7,10,7,1,0,0,rectangle,10,7,1,0,0,10,7,1,0,0,1,44,204,43,1,,,,,,,,
,,,,,,,,,,,,,FF,,,,,,,,0.6171,,,,,,,,,,,,,,,,,,,,,,61003c15bb9c1a8561eac292,61036bc74359aaedd3b9c352,2021-07-29_22h03.04.848,Simcolourproject_2stim_asymm_v5,2020.2.10,Win32,60,61025ae37ef11b136ea224fe,,,,,,,,,2189,48,76,1,0,0,response1disk,,7,24,7,1,0,0,rectangle,24,7,1,0,0,24,7,1,0,0,1,45,205,103,1,,,,,,,,
,,,,,,,,,,,,,FF,,,,,,,,0.7673,,,,,,,,,,,,,,,,,,,,,,61003c15bb9c1a8561eac292,61036bc74359aaedd3b9c352,2021-07-29_22h03.04.848,Simcolourproject_2stim_asymm_v5,2020.2.10,Win32,60,61025ae37ef11b136ea224fe,,,,,,,,,3307,49,81,1,0,0,response1disk,,7,22,7,1,0,0,rectangle,22,7,1,0,0,22,7,1,0,0,1,46,206,147,1,,,,,,,,
,,,,,,,,,,,,,FF,,,,,,,,6.8222,,,,,,,,,,,,,,,,,,,,,,61003c15bb9c1a8561eac292,61036bc74359aaedd3b9c352,2021-07-29_22h03.04.848,Simcolourproject_2stim_asymm_v5,2020.2.10,Win32,60,61025ae37ef11b136ea224fe,,,,,,,,,2386,128,34,1,0,0,response1disk,,6,11,-18,1,0,0,rectangle,11,-18,1,0,0,11,-18,1,0,0,1,47,207,38,1,,,,,,,,
,,,,,,,,,,,,,FF,,,,,,,,8.1398,,,,,,,,,,,,,,,,,,,,,,61003c15bb9c1a8561eac292,61036bc74359aaedd3b9c352,2021-07-29_22h03.04.848,Simcolourproject_2stim_asymm_v5,2020.2.10,Win32,60,61025ae37ef11b136ea224fe,,,,,,,,,49,129,-80,1,0,0,response3disk,,5,46,-9,1,0,0,rectangle,46,-9,1,0,0,46,-9,1,0,0,1,48,208,73,1,,,,,,,,
,,,,,,,,,,,,,FF,,,,,,,,0.9007,,,,,,,,,,,,,,,,,,,,,,61003c15bb9c1a8561eac292,61036bc74359aaedd3b9c352,2021-07-29_22h03.04.848,Simcolourproject_2stim_asymm_v5,2020.2.10,Win32,60,61025ae37ef11b136ea224fe,,,,,,,,,1653,49,105,1,0,0,response1disk,,7,-1,-19,1,0,0,rectangle,-1,-19,1,0,0,-1,-19,1,0,0,1,49,209,68,1,,,,,,,,
,,,,,,,,,,,,,FF,,,,,,,,1.2676,,,,,,,,,,,,,,,,,,,,,,61003c15bb9c1a8561eac292,61036bc74359aaedd3b9c352,2021-07-29_22h03.04.848,Simcolourproject_2stim_asymm_v5,2020.2.10,Win32,60,61025ae37ef11b136ea224fe,,,,,,,,,3955,50,-111,1,0,0,response3disk,,4,-6,8,1,0,0,rectangle,-6,8,1,0,0,-6,8,1,0,0,1,50,210,108,1,,,,,,,,
,,,,,,,,,,,,,FF,,,,,,,,8.6402,,,,,,,,,,,,,,,,,,,,,,61003c15bb9c1a8561eac292,61036bc74359aaedd3b9c352,2021-07-29_22h03.04.848,Simcolourproject_2stim_asymm_v5,2020.2.10,Win32,60,61025ae37ef11b136ea224fe,,,,,,,,,728,89,-40,1,0,0,response3disk,,5,1,7,1,0,0,rectangle,1,7,1,0,0,1,7,1,0,0,1,51,211,2,1,,,,,,,,
,,,,,,,,,,,,,FF,,,,,,,,2.3354,,,,,,,,,,,,,,,,,,,,,,61003c15bb9c1a8561eac292,61036bc74359aaedd3b9c352,2021-07-29_22h03.04.848,Simcolourproject_2stim_asymm_v5,2020.2.10,Win32,60,61025ae37ef11b136ea224fe,,,,,,,,,1129,36,132,1,0,0,response1disk,,7,2,10,1,0,0,rectangle,2,10,1,0,0,2,10,1,0,0,1,52,212,71,1,,,,,,,,
,,,,,,,,,,,,,FF,,,,,,,,0.7004,,,,,,,,,,,,,,,,,,,,,,61003c15bb9c1a8561eac292,61036bc74359aaedd3b9c352,2021-07-29_22h03.04.848,Simcolourproject_2stim_asymm_v5,2020.2.10,Win32,60,61025ae37ef11b136ea224fe,,,,,,,,,734,113,57,1,0,0,response1disk,,6,43,-15,1,0,0,rectangle,43,-15,1,0,0,43,-15,1,0,0,1,53,213,52,1,,,,,,,,
,,,,,,,,,,,,,FF,,,,,,,,0.7506,,,,,,,,,,,,,,,,,,,,,,61003c15bb9c1a8561eac292,61036bc74359aaedd3b9c352,2021-07-29_22h03.04.848,Simcolourproject_2stim_asymm_v5,2020.2.10,Win32,60,61025ae37ef11b136ea224fe,,,,,,,,,949,103,-70,1,0,0,response3disk,,5,-5,-3,1,0,0,rectangle,-5,-3,1,0,0,-5,-3,1,0,0,1,54,214,20,1,,,,,,,,
,,,,,,,,,,,,,FF,,,,,,,,0.7341,,,,,,,,,,,,,,,,,,,,,,61003c15bb9c1a8561eac292,61036bc74359aaedd3b9c352,2021-07-29_22h03.04.848,Simcolourproject_2stim_asymm_v5,2020.2.10,Win32,60,61025ae37ef11b136ea224fe,,,,,,,,,1888,-107,-63,1,0,0,response5disk,,2,-11,3,1,0,0,rectangle,-11,3,1,0,0,-11,3,1,0,0,1,55,215,142,1,,,,,,,,
,,,,,,,,,,,,,FF,,,,,,,,14.6616,,,,,,,,,,,,,,,,,,,,,,61003c15bb9c1a8561eac292,61036bc74359aaedd3b9c352,2021-07-29_22h03.04.848,Simcolourproject_2stim_asymm_v5,2020.2.10,Win32,60,61025ae37ef11b136ea224fe,,,,,,,,,2966,41,108,1,0,0,response1disk,,7,10,16,1,0,0,rectangle,10,16,1,0,0,10,16,1,0,0,1,56,216,124,1,,,,,,,,
,,,,,,,,,,,,,FF,,,,,,,,1.2009,,,,,,,,,,,,,,,,,,,,,,61003c15bb9c1a8561eac292,61036bc74359aaedd3b9c352,2021-07-29_22h03.04.848,Simcolourproject_2stim_asymm_v5,2020.2.10,Win32,60,61025ae37ef11b136ea224fe,,,,,,,,,1311,84,-113,1,0,0,response3disk,,4,6,-19,1,0,0,rectangle,6,-19,1,0,0,6,-19,1,0,0,1,57,217,92,1,,,,,,,,
,,,,,,,,,,,,,FF,,,,,,,,0.8839,,,,,,,,,,,,,,,,,,,,,,61003c15bb9c1a8561eac292,61036bc74359aaedd3b9c352,2021-07-29_22h03.04.848,Simcolourproject_2stim_asymm_v5,2020.2.10,Win32,60,61025ae37ef11b136ea224fe,,,,,,,,,3256,53,93,1,0,0,response1disk,,7,11,4,1,0,0,rectangle,11,4,1,0,0,11,4,1,0,0,1,58,218,1,1,,,,,,,,
,,,,,,,,,,,,,FF,,,,,,,,0.9007,,,,,,,,,,,,,,,,,,,,,,61003c15bb9c1a8561eac292,61036bc74359aaedd3b9c352,2021-07-29_22h03.04.848,Simcolourproject_2stim_asymm_v5,2020.2.10,Win32,60,61025ae37ef11b136ea224fe,,,,,,,,,568,109,-53,1,0,0,response3disk,,5,-12,-10,1,0,0,rectangle,-12,-10,1,0,0,-12,-10,1,0,0,1,59,219,117,1,,,,,,,,
,,,,,,,,,,,,,FF,,,,,,,,0.6004,,,,,,,,,,,,,,,,,,,,,,61003c15bb9c1a8561eac292,61036bc74359aaedd3b9c352,2021-07-29_22h03.04.848,Simcolourproject_2stim_asymm_v5,2020.2.10,Win32,60,61025ae37ef11b136ea224fe,,,,,,,,,1718,79,51,1,0,0,response1disk,,6,-19,-12,1,0,0,rectangle,-19,-12,1,0,0,-19,-12,1,0,0,1,60,220,42,1,,,,,,,,
,,,,,,,,,,,,,FF,,,,,,,,0.5837,,,,,,,,,,,,,,,,,,,,,,61003c15bb9c1a8561eac292,61036bc74359aaedd3b9c352,2021-07-29_22h03.04.848,Simcolourproject_2stim_asymm_v5,2020.2.10,Win32,60,61025ae37ef11b136ea224fe,,,,,,,,,4299,54,126,1,0,0,response1disk,,7,12,4,1,0,0,rectangle,12,4,1,0,0,12,4,1,0,0,1,61,221,104,1,,,,,,,,
,,,,,,,,,,,,,FF,,,,,,,,0.984,,,,,,,,,,,,,,,,,,,,,,61003c15bb9c1a8561eac292,61036bc74359aaedd3b9c352,2021-07-29_22h03.04.848,Simcolourproject_2stim_asymm_v5,2020.2.10,Win32,60,61025ae37ef11b136ea224fe,,,,,,,,,287,52,-134,1,0,0,response3disk,,4,-10,6,1,0,0,rectangle,-10,6,1,0,0,-10,6,1,0,0,1,62,222,138,1,,,,,,,,
,,,,,,,,,,,,,FF,,,,,,,,0.6841,,,,,,,,,,,,,,,,,,,,,,61003c15bb9c1a8561eac292,61036bc74359aaedd3b9c352,2021-07-29_22h03.04.848,Simcolourproject_2stim_asymm_v5,2020.2.10,Win32,60,61025ae37ef11b136ea224fe,,,,,,,,,1052,-111,-72,1,0,0,response5disk,,2,-14,11,1,0,0,rectangle,-14,11,1,0,0,-14,11,1,0,0,1,63,223,15,1,,,,,,,,
,,,,,,,,,,,,,FF,,,,,,,,0.6016,,,,,,,,,,,,,,,,,,,,,,61003c15bb9c1a8561eac292,61036bc74359aaedd3b9c352,2021-07-29_22h03.04.848,Simcolourproject_2stim_asymm_v5,2020.2.10,Win32,60,61025ae37ef11b136ea224fe,,,,,,,,,3306,66,111,1,0,0,response1disk,,7,-13,-15,1,0,0,rectangle,-13,-15,1,0,0,-13,-15,1,0,0,1,64,224,116,1,,,,,,,,
,,,,,,,,,,,,,FF,,,,,,,,0.5669,,,,,,,,,,,,,,,,,,,,,,61003c15bb9c1a8561eac292,61036bc74359aaedd3b9c352,2021-07-29_22h03.04.848,Simcolourproject_2stim_asymm_v5,2020.2.10,Win32,60,61025ae37ef11b136ea224fe,,,,,,,,,2093,-60,96,1,0,0,response7disk,,0,4,11,1,0,0,rectangle,4,11,1,0,0,4,11,1,0,0,1,65,225,88,1,,,,,,,,
,,,,,,,,,,,,,FF,,,,,,,,0.6505,,,,,,,,,,,,,,,,,,,,,,61003c15bb9c1a8561eac292,61036bc74359aaedd3b9c352,2021-07-29_22h03.04.848,Simcolourproject_2stim_asymm_v5,2020.2.10,Win32,60,61025ae37ef11b136ea224fe,,,,,,,,,3592,-113,48,1,0,0,response7disk,,1,-8,-8,1,0,0,rectangle,-8,-8,1,0,0,-8,-8,1,0,0,1,66,226,118,1,,,,,,,,
,,,,,,,,,,,,,FF,,,,,,,,1.4344,,,,,,,,,,,,,,,,,,,,,,61003c15bb9c1a8561eac292,61036bc74359aaedd3b9c352,2021-07-29_22h03.04.848,Simcolourproject_2stim_asymm_v5,2020.2.10,Win32,60,61025ae37ef11b136ea224fe,,,,,,,,,1874,49,-121,1,0,0,response3disk,,4,3,-17,1,0,0,rectangle,3,-17,1,0,0,3,-17,1,0,0,1,67,227,33,1,,,,,,,,
,,,,,,,,,,,,,FF,,,,,,,,0.7506,,,,,,,,,,,,,,,,,,,,,,61003c15bb9c1a8561eac292,61036bc74359aaedd3b9c352,2021-07-29_22h03.04.848,Simcolourproject_2stim_asymm_v5,2020.2.10,Win32,60,61025ae37ef11b136ea224fe,,,,,,,,,2760,38,109,1,0,0,response1disk,,7,8,10,1,0,0,rectangle,8,10,1,0,0,8,10,1,0,0,1,68,228,149,1,,,,,,,,
,,,,,,,,,,,,,FF,,,,,,,,0.7339,,,,,,,,,,,,,,,,,,,,,,61003c15bb9c1a8561eac292,61036bc74359aaedd3b9c352,2021-07-29_22h03.04.848,Simcolourproject_2stim_asymm_v5,2020.2.10,Win32,60,61025ae37ef11b136ea224fe,,,,,,,,,2444,36,77,1,0,0,response1disk,,7,4,14,1,0,0,rectangle,4,14,1,0,0,4,14,1,0,0,1,69,229,87,1,,,,,,,,
,,,,,,,,,,,,,FF,,,,,,,,0.6005,,,,,,,,,,,,,,,,,,,,,,61003c15bb9c1a8561eac292,61036bc74359aaedd3b9c352,2021-07-29_22h03.04.848,Simcolourproject_2stim_asymm_v5,2020.2.10,Win32,60,61025ae37ef11b136ea224fe,,,,,,,,,2607,-58,94,1,0,0,response7disk,,0,7,6,1,0,0,rectangle,7,6,1,0,0,7,6,1,0,0,1,70,230,101,1,,,,,,,,
,,,,,,,,,,,,,FF,,,,,,,,0.6341,,,,,,,,,,,,,,,,,,,,,,61003c15bb9c1a8561eac292,61036bc74359aaedd3b9c352,2021-07-29_22h03.04.848,Simcolourproject_2stim_asymm_v5,2020.2.10,Win32,60,61025ae37ef11b136ea224fe,,,,,,,,,460,-109,45,1,0,0,response7disk,,1,-12,4,1,0,0,rectangle,-12,4,1,0,0,-12,4,1,0,0,1,71,231,13,1,,,,,,,,
,,,,,,,,,,,,,FF,,,,,,,,0.4838,,,,,,,,,,,,,,,,,,,,,,61003c15bb9c1a8561eac292,61036bc74359aaedd3b9c352,2021-07-29_22h03.04.848,Simcolourproject_2stim_asymm_v5,2020.2.10,Win32,60,61025ae37ef11b136ea224fe,,,,,,,,,4356,-41,97,1,0,0,response7disk,,0,22,7,1,0,0,rectangle,22,7,1,0,0,22,7,1,0,0,1,72,232,110,1,,,,,,,,
,,,,,,,,,,,,,FF,,,,,,,,1.3344,,,,,,,,,,,,,,,,,,,,,,61003c15bb9c1a8561eac292,61036bc74359aaedd3b9c352,2021-07-29_22h03.04.848,Simcolourproject_2stim_asymm_v5,2020.2.10,Win32,60,61025ae37ef11b136ea224fe,,,,,,,,,3679,-55,-141,1,0,0,response5disk,,3,-12,-9,1,0,0,rectangle,-12,-9,1,0,0,-12,-9,1,0,0,1,73,233,94,1,,,,,,,,
,,,,,,,,,,,,,FF,,,,,,,,0.7673,,,,,,,,,,,,,,,,,,,,,,61003c15bb9c1a8561eac292,61036bc74359aaedd3b9c352,2021-07-29_22h03.04.848,Simcolourproject_2stim_asymm_v5,2020.2.10,Win32,60,61025ae37ef11b136ea224fe,,,,,,,,,3663,-117,44,1,0,0,response7disk,,1,15,-11,1,0,0,rectangle,15,-11,1,0,0,15,-11,1,0,0,1,74,234,4,1,,,,,,,,
,,,,,,,,,,,,,FF,,,,,,,,1.8683,,,,,,,,,,,,,,,,,,,,,,61003c15bb9c1a8561eac292,61036bc74359aaedd3b9c352,2021-07-29_22h03.04.848,Simcolourproject_2stim_asymm_v5,2020.2.10,Win32,60,61025ae37ef11b136ea224fe,,,,,,,,,90,107,43,1,0,0,response1disk,,6,21,-6,1,0,0,rectangle,21,-6,1,0,0,21,-6,1,0,0,1,75,235,126,1,,,,,,,,
,,,,,,,,,,,,,FF,,,,,,,,0.6838,,,,,,,,,,,,,,,,,,,,,,61003c15bb9c1a8561eac292,61036bc74359aaedd3b9c352,2021-07-29_22h03.04.848,Simcolourproject_2stim_asymm_v5,2020.2.10,Win32,60,61025ae37ef11b136ea224fe,,,,,,,,,275,67,130,1,0,0,response1disk,,7,-3,13,1,0,0,rectangle,-3,13,1,0,0,-3,13,1,0,0,1,76,236,18,1,,,,,,,,
,,,,,,,,,,,,,FF,,,,,,,,0.5334,,,,,,,,,,,,,,,,,,,,,,61003c15bb9c1a8561eac292,61036bc74359aaedd3b9c352,2021-07-29_22h03.04.848,Simcolourproject_2stim_asymm_v5,2020.2.10,Win32,60,61025ae37ef11b136ea224fe,,,,,,,,,308,49,104,1,0,0,response1disk,,7,4,-10,1,0,0,rectangle,4,-10,1,0,0,4,-10,1,0,0,1,77,237,98,1,,,,,,,,
,,,,,,,,,,,,,FF,,,,,,,,0.4671,,,,,,,,,,,,,,,,,,,,,,61003c15bb9c1a8561eac292,61036bc74359aaedd3b9c352,2021-07-29_22h03.04.848,Simcolourproject_2stim_asymm_v5,2020.2.10,Win32,60,61025ae37ef11b136ea224fe,,,,,,,,,2939,77,93,1,0,0,response1disk,,7,-5,-1,1,0,0,rectangle,-5,-1,1,0,0,-5,-1,1,0,0,1,78,238,129,1,,,,,,,,
,,,,,,,,,,,,,FF,,,,,,,,0.3503,,,,,,,,,,,,,,,,,,,,,,61003c15bb9c1a8561eac292,61036bc74359aaedd3b9c352,2021-07-29_22h03.04.848,Simcolourproject_2stim_asymm_v5,2020.2.10,Win32,60,61025ae37ef11b136ea224fe,,,,,,,,,2215,71,138,1,0,0,response1disk,,7,0,4,1,0,0,rectangle,0,4,1,0,0,0,4,1,0,0,1,79,239,96,1,,,,,,,,
,,,,,,,,,,,,,FF,,,,,,,,0.3334,,,,,,,,,,,,,,,,,,,,,,61003c15bb9c1a8561eac292,61036bc74359aaedd3b9c352,2021-07-29_22h03.04.848,Simcolourproject_2stim_asymm_v5,2020.2.10,Win32,60,61025ae37ef11b136ea224fe,,,,,,,,,1984,65,87,1,0,0,response1disk,,7,-4,-9,1,0,0,rectangle,-4,-9,1,0,0,-4,-9,1,0,0,1,80,240,132,1,,,,,,,,
,,,,,,,,,,,,,FF,,,,,,,,0.2833,,,,,,,,,,,,,,,,,,,,,,61003c15bb9c1a8561eac292,61036bc74359aaedd3b9c352,2021-07-29_22h03.04.848,Simcolourproject_2stim_asymm_v5,2020.2.10,Win32,60,61025ae37ef11b136ea224fe,,,,,,,,,519,64,151,1,0,0,response1disk,,7,0,10,1,0,0,rectangle,0,10,1,0,0,0,10,1,0,0,1,81,241,0,1,,,,,,,,
,,,,,,,,,,,,,FF,,,,,,,,0.4336,,,,,,,,,,,,,,,,,,,,,,61003c15bb9c1a8561eac292,61036bc74359aaedd3b9c352,2021-07-29_22h03.04.848,Simcolourproject_2stim_asymm_v5,2020.2.10,Win32,60,61025ae37ef11b136ea224fe,,,,,,,,,2062,51,107,1,0,0,response1disk,,7,-2,-2,1,0,0,rectangle,-2,-2,1,0,0,-2,-2,1,0,0,1,82,242,135,1,,,,,,,,
,,,,,,,,,,,,,FF,,,,,,,,0.6171,,,,,,,,,,,,,,,,,,,,,,61003c15bb9c1a8561eac292,61036bc74359aaedd3b9c352,2021-07-29_22h03.04.848,Simcolourproject_2stim_asymm_v5,2020.2.10,Win32,60,61025ae37ef11b136ea224fe,,,,,,,,,1357,66,114,1,0,0,response1disk,,7,4,-11,1,0,0,rectangle,4,-11,1,0,0,4,-11,1,0,0,1,83,243,54,1,,,,,,,,
,,,,,,,,,,,,,FF,,,,,,,,0.6672,,,,,,,,,,,,,,,,,,,,,,61003c15bb9c1a8561eac292,61036bc74359aaedd3b9c352,2021-07-29_22h03.04.848,Simcolourproject_2stim_asymm_v5,2020.2.10,Win32,60,61025ae37ef11b136ea224fe,,,,,,,,,4273,115,40,1,0,0,response1disk,,6,-2,-12,1,0,0,rectangle,-2,-12,1,0,0,-2,-12,1,0,0,1,84,244,67,1,,,,,,,,
,,,,,,,,,,,,,FF,,,,,,,,0.4503,,,,,,,,,,,,,,,,,,,,,,61003c15bb9c1a8561eac292,61036bc74359aaedd3b9c352,2021-07-29_22h03.04.848,Simcolourproject_2stim_asymm_v5,2020.2.10,Win32,60,61025ae37ef11b136ea224fe,,,,,,,,,2204,72,123,1,0,0,response1disk,,7,7,-7,1,0,0,rectangle,7,-7,1,0,0,7,-7,1,0,0,1,85,245,17,1,,,,,,,,
,,,,,,,,,,,,,FF,,,,,,,,1.351,,,,,,,,,,,,,,,,,,,,,,61003c15bb9c1a8561eac292,61036bc74359aaedd3b9c352,2021-07-29_22h03.04.848,Simcolourproject_2stim_asymm_v5,2020.2.10,Win32,60,61025ae37ef11b136ea224fe,,,,,,,,,577,69,-131,1,0,0,response3disk,,4,17,-4,1,0,0,rectangle,17,-4,1,0,0,17,-4,1,0,0,1,86,246,14,1,,,,,,,,
,,,,,,,,,,,,,FF,,,,,,,,0.9339,,,,,,,,,,,,,,,,,,,,,,61003c15bb9c1a8561eac292,61036bc74359aaedd3b9c352,2021-07-29_22h03.04.848,Simcolourproject_2stim_asymm_v5,2020.2.10,Win32,60,61025ae37ef11b136ea224fe,,,,,,,,,3683,119,-88,1,0,0,response3disk,,5,-3,9,1,0,0,rectangle,-3,9,1,0,0,-3,9,1,0,0,1,87,247,29,1,,,,,,,,
,,,,,,,,,,,,,FF,,,,,,,,0.9007,,,,,,,,,,,,,,,,,,,,,,61003c15bb9c1a8561eac292,61036bc74359aaedd3b9c352,2021-07-29_22h03.04.848,Simcolourproject_2stim_asymm_v5,2020.2.10,Win32,60,61025ae37ef11b136ea224fe,,,,,,,,,3282,-73,-115,1,0,0,response5disk,,3,-33,16,1,0,0,rectangle,-33,16,1,0,0,-33,16,1,0,0,1,88,248,141,1,,,,,,,,
,,,,,,,,,,,,,FF,,,,,,,,0.7506,,,,,,,,,,,,,,,,,,,,,,61003c15bb9c1a8561eac292,61036bc74359aaedd3b9c352,2021-07-29_22h03.04.848,Simcolourproject_2stim_asymm_v5,2020.2.10,Win32,60,61025ae37ef11b136ea224fe,,,,,,,,,1104,74,121,1,0,0,response1disk,,7,21,19,1,0,0,rectangle,-57,-142,1,0,0,16,-11,1,0,0,1,89,249,41,1,,response5disk_3,TRUE,3,3,"[142,68,92,14,41,155,111,76,311,165,42,7,304,94,295,55,250,289,250,161]",2.1849,rectangle
,,,,,,,,,,,,,FF,,,,,,,,1.051,,,,,,,,,,,,,,,,,,,,,,61003c15bb9c1a8561eac292,61036bc74359aaedd3b9c352,2021-07-29_22h03.04.848,Simcolourproject_2stim_asymm_v5,2020.2.10,Win32,60,61025ae37ef11b136ea224fe,,,,,,,,,13,-21,-116,1,0,0,response5disk,,3,20,-11,1,0,0,rectangle,20,-11,1,0,0,20,-11,1,0,0,1,90,250,91,1,,,,,,,,
,,,,,,,,,,,,,FF,,,,,,,,0.6005,,,,,,,,,,,,,,,,,,,,,,61003c15bb9c1a8561eac292,61036bc74359aaedd3b9c352,2021-07-29_22h03.04.848,Simcolourproject_2stim_asymm_v5,2020.2.10,Win32,60,61025ae37ef11b136ea224fe,,,,,,,,,4176,67,91,1,0,0,response1disk,,7,-1,-11,1,0,0,rectangle,-1,-11,1,0,0,-1,-11,1,0,0,1,91,251,156,1,,,,,,,,
,,,,,,,,,,,,,FF,,,,,,,,0.7174,,,,,,,,,,,,,,,,,,,,,,61003c15bb9c1a8561eac292,61036bc74359aaedd3b9c352,2021-07-29_22h03.04.848,Simcolourproject_2stim_asymm_v5,2020.2.10,Win32,60,61025ae37ef11b136ea224fe,,,,,,,,,1510,41,102,1,0,0,response1disk,,7,-2,-14,1,0,0,rectangle,-2,-14,1,0,0,-2,-14,1,0,0,1,92,252,39,1,,,,,,,,
,,,,,,,,,,,,,FF,,,,,,,,0.8172,,,,,,,,,,,,,,,,,,,,,,61003c15bb9c1a8561eac292,61036bc74359aaedd3b9c352,2021-07-29_22h03.04.848,Simcolourproject_2stim_asymm_v5,2020.2.10,Win32,60,61025ae37ef11b136ea224fe,,,,,,,,,2648,101,43,1,0,0,response1disk,,6,33,-14,1,0,0,rectangle,33,-14,1,0,0,33,-14,1,0,0,1,93,253,79,1,,,,,,,,
,,,,,,,,,,,,,FF,,,,,,,,1.0841,,,,,,,,,,,,,,,,,,,,,,61003c15bb9c1a8561eac292,61036bc74359aaedd3b9c352,2021-07-29_22h03.04.848,Simcolourproject_2stim_asymm_v5,2020.2.10,Win32,60,61025ae37ef11b136ea224fe,,,,,,,,,1731,98,49,1,0,0,response1disk,,6,16,-24,1,0,0,rectangle,16,-24,1,0,0,16,-24,1,0,0,1,94,254,66,1,,,,,,,,
,,,,,,,,,,,,,FF,,,,,,,,0.4505,,,,,,,,,,,,,,,,,,,,,,61003c15bb9c1a8561eac292,61036bc74359aaedd3b9c352,2021-07-29_22h03.04.848,Simcolourproject_2stim_asymm_v5,2020.2.10,Win32,60,61025ae37ef11b136ea224fe,,,,,,,,,3807,61,105,1,0,0,response1disk,,7,-6,5,1,0,0,rectangle,-6,5,1,0,0,-6,5,1,0,0,1,95,255,8,1,,,,,,,,
,,,,,,,,,,,,,FF,,,,,,,,1.101,,,,,,,,,,,,,,,,,,,,,,61003c15bb9c1a8561eac292,61036bc74359aaedd3b9c352,2021-07-29_22h03.04.848,Simcolourproject_2stim_asymm_v5,2020.2.10,Win32,60,61025ae37ef11b136ea224fe,,,,,,,,,1054,-68,-99,1,0,0,response5disk,,3,-32,-15,1,0,0,rectangle,-32,-15,1,0,0,-32,-15,1,0,0,1,96,256,128,1,,,,,,,,
,,,,,,,,,,,,,FF,,,,,,,,0.5838,,,,,,,,,,,,,,,,,,,,,,61003c15bb9c1a8561eac292,61036bc74359aaedd3b9c352,2021-07-29_22h03.04.848,Simcolourproject_2stim_asymm_v5,2020.2.10,Win32,60,61025ae37ef11b136ea224fe,,,,,,,,,4179,51,102,1,0,0,response1disk,,7,4,16,1,0,0,rectangle,4,16,1,0,0,4,16,1,0,0,1,97,257,50,1,,,,,,,,
,,,,,,,,,,,,,FF,,,,,,,,0.8839,,,,,,,,,,,,,,,,,,,,,,61003c15bb9c1a8561eac292,61036bc74359aaedd3b9c352,2021-07-29_22h03.04.848,Simcolourproject_2stim_asymm_v5,2020.2.10,Win32,60,61025ae37ef11b136ea224fe,,,,,,,,,4122,-104,-50,1,0,0,response5disk,,2,-12,9,1,0,0,rectangle,-12,9,1,0,0,-12,9,1,0,0,1,98,258,24,1,,,,,,,,
,,,,,,,,,,,,,FF,,,,,,,,0.9843,,,,,,,,,,,,,,,,,,,,,,61003c15bb9c1a8561eac292,61036bc74359aaedd3b9c352,2021-07-29_22h03.04.848,Simcolourproject_2stim_asymm_v5,2020.2.10,Win32,60,61025ae37ef11b136ea224fe,,,,,,,,,1291,-97,47,1,0,0,response7disk,,1,-4,19,1,0,0,rectangle,-4,19,1,0,0,-4,19,1,0,0,1,99,259,131,1,,,,,,,,
,,,,,,,,,,,,,FF,,,,,,,,1.201,,,,,,,,,,,,,,,,,,,,,,61003c15bb9c1a8561eac292,61036bc74359aaedd3b9c352,2021-07-29_22h03.04.848,Simcolourproject_2stim_asymm_v5,2020.2.10,Win32,60,61025ae37ef11b136ea224fe,,,,,,,,,1721,49,148,1,0,0,response1disk,,7,6,-8,1,0,0,rectangle,6,-8,1,0,0,6,-8,1,0,0,1,100,260,157,1,,,,,,,,
,,,,,,,,,,,,,FF,,,,,,,,0.5169,,,,,,,,,,,,,,,,,,,,,,61003c15bb9c1a8561eac292,61036bc74359aaedd3b9c352,2021-07-29_22h03.04.848,Simcolourproject_2stim_asymm_v5,2020.2.10,Win32,60,61025ae37ef11b136ea224fe,,,,,,,,,2774,67,117,1,0,0,response1disk,,7,-1,-5,1,0,0,rectangle,-1,-5,1,0,0,-1,-5,1,0,0,1,101,261,158,1,,,,,,,,
,,,,,,,,,,,,,FF,,,,,,,,0.5504,,,,,,,,,,,,,,,,,,,,,,61003c15bb9c1a8561eac292,61036bc74359aaedd3b9c352,2021-07-29_22h03.04.848,Simcolourproject_2stim_asymm_v5,2020.2.10,Win32,60,61025ae37ef11b136ea224fe,,,,,,,,,1997,51,116,1,0,0,response1disk,,7,5,12,1,0,0,rectangle,5,12,1,0,0,5,12,1,0,0,1,102,262,72,1,,,,,,,,
,,,,,,,,,,,,,FF,,,,,,,,0.8506,,,,,,,,,,,,,,,,,,,,,,61003c15bb9c1a8561eac292,61036bc74359aaedd3b9c352,2021-07-29_22h03.04.848,Simcolourproject_2stim_asymm_v5,2020.2.10,Win32,60,61025ae37ef11b136ea224fe,,,,,,,,,3714,-89,65,1,0,0,response7disk,,1,-20,-4,1,0,0,rectangle,-20,-4,1,0,0,-20,-4,1,0,0,1,103,263,35,1,,,,,,,,
,,,,,,,,,,,,,FF,,,,,,,,1.2344,,,,,,,,,,,,,,,,,,,,,,61003c15bb9c1a8561eac292,61036bc74359aaedd3b9c352,2021-07-29_22h03.04.848,Simcolourproject_2stim_asymm_v5,2020.2.10,Win32,60,61025ae37ef11b136ea224fe,,,,,,,,,3526,-65,-97,1,0,0,response5disk,,3,-11,-1,1,0,0,rectangle,-11,-1,1,0,0,-11,-1,1,0,0,1,104,264,45,1,,,,,,,,
,,,,,,,,,,,,,FF,,,,,,,,0.9031,,,,,,,,,,,,,,,,,,,,,,61003c15bb9c1a8561eac292,61036bc74359aaedd3b9c352,2021-07-29_22h03.04.848,Simcolourproject_2stim_asymm_v5,2020.2.10,Win32,60,61025ae37ef11b136ea224fe,,,,,,,,,904,80,111,1,0,0,response1disk,,7,34,4,1,0,0,rectangle,34,4,1,0,0,34,4,1,0,0,1,105,265,62,1,,,,,,,,
,,,,,,,,,,,,,FF,,,,,,,,0.5838,,,,,,,,,,,,,,,,,,,,,,61003c15bb9c1a8561eac292,61036bc74359aaedd3b9c352,2021-07-29_22h03.04.848,Simcolourproject_2stim_asymm_v5,2020.2.10,Win32,60,61025ae37ef11b136ea224fe,,,,,,,,,3904,43,144,1,0,0,response1disk,,7,27,5,1,0,0,rectangle,27,5,1,0,0,27,5,1,0,0,1,106,266,106,1,,,,,,,,
,,,,,,,,,,,,,FF,,,,,,,,1.3677,,,,,,,,,,,,,,,,,,,,,,61003c15bb9c1a8561eac292,61036bc74359aaedd3b9c352,2021-07-29_22h03.04.848,Simcolourproject_2stim_asymm_v5,2020.2.10,Win32,60,61025ae37ef11b136ea224fe,,,,,,,,,3103,-63,-135,1,0,0,response5disk,,3,-7,1,1,0,0,rectangle,-7,1,1,0,0,-7,1,1,0,0,1,107,267,19,1,,,,,,,,
,,,,,,,,,,,,,FF,,,,,,,,0.6663,,,,,,,,,,,,,,,,,,,,,,61003c15bb9c1a8561eac292,61036bc74359aaedd3b9c352,2021-07-29_22h03.04.848,Simcolourproject_2stim_asymm_v5,2020.2.10,Win32,60,61025ae37ef11b136ea224fe,,,,,,,,,2453,63,140,1,0,0,response1disk,,7,9,14,1,0,0,rectangle,9,14,1,0,0,9,14,1,0,0,1,108,268,112,1,,,,,,,,
,,,,,,,,,,,,,FF,,,,,,,,0.3832,,,,,,,,,,,,,,,,,,,,,,61003c15bb9c1a8561eac292,61036bc74359aaedd3b9c352,2021-07-29_22h03.04.848,Simcolourproject_2stim_asymm_v5,2020.2.10,Win32,60,61025ae37ef11b136ea224fe,,,,,,,,,2626,63,127,1,0,0,response1disk,,7,14,5,1,0,0,rectangle,14,5,1,0,0,14,5,1,0,0,1,109,269,57,1,,,,,,,,
,,,,,,,,,,,,,FF,,,,,,,,0.8673,,,,,,,,,,,,,,,,,,,,,,61003c15bb9c1a8561eac292,61036bc74359aaedd3b9c352,2021-07-29_22h03.04.848,Simcolourproject_2stim_asymm_v5,2020.2.10,Win32,60,61025ae37ef11b136ea224fe,,,,,,,,,1977,113,73,1,0,0,response1disk,,6,25,11,1,0,0,rectangle,25,11,1,0,0,25,11,1,0,0,1,110,270,85,1,,,,,,,,
,,,,,,,,,,,,,FF,,,,,,,,0.4836,,,,,,,,,,,,,,,,,,,,,,61003c15bb9c1a8561eac292,61036bc74359aaedd3b9c352,2021-07-29_22h03.04.848,Simcolourproject_2stim_asymm_v5,2020.2.10,Win32,60,61025ae37ef11b136ea224fe,,,,,,,,,1147,50,103,1,0,0,response1disk,,7,22,-11,1,0,0,rectangle,22,-11,1,0,0,22,-11,1,0,0,1,111,271,120,1,,,,,,,,
,,,,,,,,,,,,,FF,,,,,,,,0.3837,,,,,,,,,,,,,,,,,,,,,,61003c15bb9c1a8561eac292,61036bc74359aaedd3b9c352,2021-07-29_22h03.04.848,Simcolourproject_2stim_asymm_v5,2020.2.10,Win32,60,61025ae37ef11b136ea224fe,,,,,,,,,4055,43,122,1,0,0,response1disk,,7,22,-11,1,0,0,rectangle,22,-11,1,0,0,22,-11,1,0,0,1,112,272,70,1,,,,,,,,
,,,,,,,,,,,,,FF,,,,,,,,0.7674,,,,,,,,,,,,,,,,,,,,,,61003c15bb9c1a8561eac292,61036bc74359aaedd3b9c352,2021-07-29_22h03.04.848,Simcolourproject_2stim_asymm_v5,2020.2.10,Win32,60,61025ae37ef11b136ea224fe,,,,,,,,,1022,69,94,1,0,0,response1disk,,7,37,4,1,0,0,rectangle,37,4,1,0,0,37,4,1,0,0,1,113,273,53,1,,,,,,,,
,,,,,,,,,,,,,FF,,,,,,,,1.3511,,,,,,,,,,,,,,,,,,,,,,61003c15bb9c1a8561eac292,61036bc74359aaedd3b9c352,2021-07-29_22h03.04.848,Simcolourproject_2stim_asymm_v5,2020.2.10,Win32,60,61025ae37ef11b136ea224fe,,,,,,,,,350,-45,-111,1,0,0,response5disk,,3,3,-5,1,0,0,rectangle,3,-5,1,0,0,3,-5,1,0,0,1,114,274,154,1,,,,,,,,
,,,,,,,,,,,,,FF,,,,,,,,0.7358,,,,,,,,,,,,,,,,,,,,,,61003c15bb9c1a8561eac292,61036bc74359aaedd3b9c352,2021-07-29_22h03.04.848,Simcolourproject_2stim_asymm_v5,2020.2.10,Win32,60,61025ae37ef11b136ea224fe,,,,,,,,,1236,132,-82,1,0,0,response3disk,,5,8,-14,1,0,0,rectangle,8,-14,1,0,0,8,-14,1,0,0,1,115,275,22,1,,,,,,,,
,,,,,,,,,,,,,FF,,,,,,,,0.5338,,,,,,,,,,,,,,,,,,,,,,61003c15bb9c1a8561eac292,61036bc74359aaedd3b9c352,2021-07-29_22h03.04.848,Simcolourproject_2stim_asymm_v5,2020.2.10,Win32,60,61025ae37ef11b136ea224fe,,,,,,,,,3733,45,98,1,0,0,response1disk,,7,-12,9,1,0,0,rectangle,-12,9,1,0,0,-12,9,1,0,0,1,116,276,5,1,,,,,,,,
,,,,,,,,,,,,,FF,,,,,,,,1.0507,,,,,,,,,,,,,,,,,,,,,,61003c15bb9c1a8561eac292,61036bc74359aaedd3b9c352,2021-07-29_22h03.04.848,Simcolourproject_2stim_asymm_v5,2020.2.10,Win32,60,61025ae37ef11b136ea224fe,,,,,,,,,3021,31,-118,1,0,0,response3disk,,4,-7,-12,1,0,0,rectangle,-7,-12,1,0,0,-7,-12,1,0,0,1,117,277,21,1,,,,,,,,
,,,,,,,,,,,,,FF,,,,,,,,0.4336,,,,,,,,,,,,,,,,,,,,,,61003c15bb9c1a8561eac292,61036bc74359aaedd3b9c352,2021-07-29_22h03.04.848,Simcolourproject_2stim_asymm_v5,2020.2.10,Win32,60,61025ae37ef11b136ea224fe,,,,,,,,,2560,67,80,1,0,0,response1disk,,7,8,-13,1,0,0,rectangle,8,-13,1,0,0,8,-13,1,0,0,1,118,278,82,1,,,,,,,,
,,,,,,,,,,,,,FF,,,,,,,,0.9175,,,,,,,,,,,,,,,,,,,,,,61003c15bb9c1a8561eac292,61036bc74359aaedd3b9c352,2021-07-29_22h03.04.848,Simcolourproject_2stim_asymm_v5,2020.2.10,Win32,60,61025ae37ef11b136ea224fe,,,,,,,,,2026,-43,-128,1,0,0,response5disk,,3,2,-7,1,0,0,rectangle,2,-7,1,0,0,2,-7,1,0,0,1,119,279,61,1,,,,,,,,
,,,,,,,,,,,,,FF,,,,,,,,0.4505,,,,,,,,,,,,,,,,,,,,,,61003c15bb9c1a8561eac292,61036bc74359aaedd3b9c352,2021-07-29_22h03.04.848,Simcolourproject_2stim_asymm_v5,2020.2.10,Win32,60,61025ae37ef11b136ea224fe,,,,,,,,,3451,74,121,1,0,0,response1disk,,7,7,2,1,0,0,rectangle,7,2,1,0,0,7,2,1,0,0,1,120,280,100,1,,,,,,,,
,,,,,,,,,,,,,FF,,,,,,,,0.8172,,,,,,,,,,,,,,,,,,,,,,61003c15bb9c1a8561eac292,61036bc74359aaedd3b9c352,2021-07-29_22h03.04.848,Simcolourproject_2stim_asymm_v5,2020.2.10,Win32,60,61025ae37ef11b136ea224fe,,,,,,,,,4317,68,107,1,0,0,response1disk,,7,1,7,1,0,0,rectangle,1,7,1,0,0,1,7,1,0,0,1,121,281,140,1,,,,,,,,
,,,,,,,,,,,,,FF,,,,,,,,0.3669,,,,,,,,,,,,,,,,,,,,,,61003c15bb9c1a8561eac292,61036bc74359aaedd3b9c352,2021-07-29_22h03.04.848,Simcolourproject_2stim_asymm_v5,2020.2.10,Win32,60,61025ae37ef11b136ea224fe,,,,,,,,,800,45,89,1,0,0,response1disk,,7,-10,5,1,0,0,rectangle,-10,5,1,0,0,-10,5,1,0,0,1,122,282,46,1,,,,,,,,
,,,,,,,,,,,,,FF,,,,,,,,0.7336,,,,,,,,,,,,,,,,,,,,,,61003c15bb9c1a8561eac292,61036bc74359aaedd3b9c352,2021-07-29_22h03.04.848,Simcolourproject_2stim_asymm_v5,2020.2.10,Win32,60,61025ae37ef11b136ea224fe,,,,,,,,,2665,-111,-61,1,0,0,response5disk,,2,-17,11,1,0,0,rectangle,-17,11,1,0,0,-17,11,1,0,0,1,123,283,130,1,,,,,,,,
,,,,,,,,,,,,,FF,,,,,,,,0.4667,,,,,,,,,,,,,,,,,,,,,,61003c15bb9c1a8561eac292,61036bc74359aaedd3b9c352,2021-07-29_22h03.04.848,Simcolourproject_2stim_asymm_v5,2020.2.10,Win32,60,61025ae37ef11b136ea224fe,,,,,,,,,2572,44,102,1,0,0,response1disk,,7,-23,-5,1,0,0,rectangle,-23,-5,1,0,0,-23,-5,1,0,0,1,124,284,105,1,,,,,,,,
,,,,,,,,,,,,,FF,,,,,,,,0.5837,,,,,,,,,,,,,,,,,,,,,,61003c15bb9c1a8561eac292,61036bc74359aaedd3b9c352,2021-07-29_22h03.04.848,Simcolourproject_2stim_asymm_v5,2020.2.10,Win32,60,61025ae37ef11b136ea224fe,,,,,,,,,4074,66,86,1,0,0,response1disk,,7,14,8,1,0,0,rectangle,14,8,1,0,0,14,8,1,0,0,1,125,285,60,1,,,,,,,,
,,,,,,,,,,,,,FF,,,,,,,,0.8172,,,,,,,,,,,,,,,,,,,,,,61003c15bb9c1a8561eac292,61036bc74359aaedd3b9c352,2021-07-29_22h03.04.848,Simcolourproject_2stim_asymm_v5,2020.2.10,Win32,60,61025ae37ef11b136ea224fe,,,,,,,,,1985,110,-75,1,0,0,response3disk,,5,-29,-6,1,0,0,rectangle,-29,-6,1,0,0,-29,-6,1,0,0,1,126,286,136,1,,,,,,,,
,,,,,,,,,,,,,FF,,,,,,,,0.3502,,,,,,,,,,,,,,,,,,,,,,61003c15bb9c1a8561eac292,61036bc74359aaedd3b9c352,2021-07-29_22h03.04.848,Simcolourproject_2stim_asymm_v5,2020.2.10,Win32,60,61025ae37ef11b136ea224fe,,,,,,,,,2852,56,96,1,0,0,response1disk,,7,-13,11,1,0,0,rectangle,-13,11,1,0,0,-13,11,1,0,0,1,127,287,121,1,,,,,,,,
,,,,,,,,,,,,,FF,,,,,,,,0.7672,,,,,,,,,,,,,,,,,,,,,,61003c15bb9c1a8561eac292,61036bc74359aaedd3b9c352,2021-07-29_22h03.04.848,Simcolourproject_2stim_asymm_v5,2020.2.10,Win32,60,61025ae37ef11b136ea224fe,,,,,,,,,114,56,108,1,0,0,response1disk,,7,16,-8,1,0,0,rectangle,126,-49,1,0,0,4,1,1,0,0,1,128,288,133,1,,response3disk_3,TRUE,5,5,"[142,68,92,14,41,155,111,76,311,165,42,7,304,94,295,55,250,289,250,161]",1.1505,rectangle
,,,,,,,,,,,,,FF,,,,,,,,1.0508,,,,,,,,,,,,,,,,,,,,,,61003c15bb9c1a8561eac292,61036bc74359aaedd3b9c352,2021-07-29_22h03.04.848,Simcolourproject_2stim_asymm_v5,2020.2.10,Win32,60,61025ae37ef11b136ea224fe,,,,,,,,,1193,73,125,1,0,0,response1disk,,7,23,0,1,0,0,rectangle,23,0,1,0,0,23,0,1,0,0,1,129,289,143,1,,,,,,,,
,,,,,,,,,,,,,FF,,,,,,,,0.5669,,,,,,,,,,,,,,,,,,,,,,61003c15bb9c1a8561eac292,61036bc74359aaedd3b9c352,2021-07-29_22h03.04.848,Simcolourproject_2stim_asymm_v5,2020.2.10,Win32,60,61025ae37ef11b136ea224fe,,,,,,,,,4344,-67,161,1,0,0,response7disk,,0,3,1,1,0,0,rectangle,3,1,1,0,0,3,1,1,0,0,1,130,290,44,1,,,,,,,,
,,,,,,,,,,,,,FF,,,,,,,,1.9016,,,,,,,,,,,,,,,,,,,,,,61003c15bb9c1a8561eac292,61036bc74359aaedd3b9c352,2021-07-29_22h03.04.848,Simcolourproject_2stim_asymm_v5,2020.2.10,Win32,60,61025ae37ef11b136ea224fe,,,,,,,,,2246,36,134,1,0,0,response1disk,,7,-5,-6,1,0,0,rectangle,-5,-6,1,0,0,-5,-6,1,0,0,1,131,291,152,1,,,,,,,,
,,,,,,,,,,,,,FF,,,,,,,,0.934,,,,,,,,,,,,,,,,,,,,,,61003c15bb9c1a8561eac292,61036bc74359aaedd3b9c352,2021-07-29_22h03.04.848,Simcolourproject_2stim_asymm_v5,2020.2.10,Win32,60,61025ae37ef11b136ea224fe,,,,,,,,,570,119,-43,1,0,0,response3disk,,5,-6,16,1,0,0,rectangle,-6,16,1,0,0,-6,16,1,0,0,1,132,292,109,1,,,,,,,,
,,,,,,,,,,,,,FF,,,,,,,,0.5671,,,,,,,,,,,,,,,,,,,,,,61003c15bb9c1a8561eac292,61036bc74359aaedd3b9c352,2021-07-29_22h03.04.848,Simcolourproject_2stim_asymm_v5,2020.2.10,Win32,60,61025ae37ef11b136ea224fe,,,,,,,,,1812,48,81,1,0,0,response1disk,,7,3,-6,1,0,0,rectangle,3,-6,1,0,0,3,-6,1,0,0,1,133,293,36,1,,,,,,,,
,,,,,,,,,,,,,FF,,,,,,,,0.567,,,,,,,,,,,,,,,,,,,,,,61003c15bb9c1a8561eac292,61036bc74359aaedd3b9c352,2021-07-29_22h03.04.848,Simcolourproject_2stim_asymm_v5,2020.2.10,Win32,60,61025ae37ef11b136ea224fe,,,,,,,,,137,54,100,1,0,0,response1disk,,7,-2,-12,1,0,0,rectangle,45,142,1,0,0,-27,-7,1,0,0,1,134,294,11,1,,response1disk_3,TRUE,7,7,"[142,68,92,14,41,155,111,76,311,165,42,7,304,94,295,55,250,289,250,161]",1.2006,rectangle
,,,,,,,,,,,,,FF,,,,,,,,0.984,,,,,,,,,,,,,,,,,,,,,,61003c15bb9c1a8561eac292,61036bc74359aaedd3b9c352,2021-07-29_22h03.04.848,Simcolourproject_2stim_asymm_v5,2020.2.10,Win32,60,61025ae37ef11b136ea224fe,,,,,,,,,63,119,44,1,0,0,response1disk,,6,42,1,1,0,0,rectangle,42,1,1,0,0,42,1,1,0,0,1,135,295,144,1,,,,,,,,
,,,,,,,,,,,,,FF,,,,,,,,0.4003,,,,,,,,,,,,,,,,,,,,,,61003c15bb9c1a8561eac292,61036bc74359aaedd3b9c352,2021-07-29_22h03.04.848,Simcolourproject_2stim_asymm_v5,2020.2.10,Win32,60,61025ae37ef11b136ea224fe,,,,,,,,,3532,78,109,1,0,0,response1disk,,7,-5,22,1,0,0,rectangle,-5,22,1,0,0,-5,22,1,0,0,1,136,296,125,1,,,,,,,,
,,,,,,,,,,,,,FF,,,,,,,,29.5234,,,,,,,,,,,,,,,,,,,,,,61003c15bb9c1a8561eac292,61036bc74359aaedd3b9c352,2021-07-29_22h03.04.848,Simcolourproject_2stim_asymm_v5,2020.2.10,Win32,60,61025ae37ef11b136ea224fe,,,,,,,,,3681,70,133,1,0,0,response1disk,,7,-4,7,1,0,0,rectangle,-4,7,1,0,0,-4,7,1,0,0,1,137,297,16,1,,,,,,,,
,,,,,,,,,,,,,FF,,,,,,,,0.8839,,,,,,,,,,,,,,,,,,,,,,61003c15bb9c1a8561eac292,61036bc74359aaedd3b9c352,2021-07-29_22h03.04.848,Simcolourproject_2stim_asymm_v5,2020.2.10,Win32,60,61025ae37ef11b136ea224fe,,,,,,,,,3353,133,45,1,0,0,response1disk,,6,1,-17,1,0,0,rectangle,1,-17,1,0,0,1,-17,1,0,0,1,138,298,146,1,,,,,,,,
,,,,,,,,,,,,,FF,,,,,,,,7.7896,,,,,,,,,,,,,,,,,,,,,,61003c15bb9c1a8561eac292,61036bc74359aaedd3b9c352,2021-07-29_22h03.04.848,Simcolourproject_2stim_asymm_v5,2020.2.10,Win32,60,61025ae37ef11b136ea224fe,,,,,,,,,3158,105,30,1,0,0,response1disk,,6,-5,-18,1,0,0,rectangle,-5,-18,1,0,0,-5,-18,1,0,0,1,139,299,114,1,,,,,,,,
,,,,,,,,,,,,,FF,,,,,,,,0.7339,,,,,,,,,,,,,,,,,,,,,,61003c15bb9c1a8561eac292,61036bc74359aaedd3b9c352,2021-07-29_22h03.04.848,Simcolourproject_2stim_asymm_v5,2020.2.10,Win32,60,61025ae37ef11b136ea224fe,,,,,,,,,1876,51,100,1,0,0,response1disk,,7,20,-13,1,0,0,rectangle,20,-13,1,0,0,20,-13,1,0,0,1,140,300,80,1,,,,,,,,
,,,,,,,,,,,,,FF,,,,,,,,0.3335,,,,,,,,,,,,,,,,,,,,,,61003c15bb9c1a8561eac292,61036bc74359aaedd3b9c352,2021-07-29_22h03.04.848,Simcolourproject_2stim_asymm_v5,2020.2.10,Win32,60,61025ae37ef11b136ea224fe,,,,,,,,,694,52,112,1,0,0,response1disk,,7,10,5,1,0,0,rectangle,10,5,1,0,0,10,5,1,0,0,1,141,301,3,1,,,,,,,,
