key_resp.keys,key_resp.rt,key_resp_14.keys,key_resp_14.rt,key_resp_15.keys,key_resp_15.rt,key_resp_17.keys,key_resp_17.rt,key_resp_9.keys,key_resp_9.rt,key_resp_10.keys,key_resp_10.rt,practice_comparison,Ecc,mouse_5.x,mouse_5.y,mouse_5.leftButton,mouse_5.midButton,mouse_5.rightButton,mouse_5.clicked_name,pracsimilarity,response_time,mouse_10.x,mouse_10.y,mouse_10.leftButton,mouse_10.midButton,mouse_10.rightButton,mouse_10.clicked_name,mouse_7.x,mouse_7.y,mouse_7.leftButton,mouse_7.midButton,mouse_7.rightButton,mouse_6.x,mouse_6.y,mouse_6.leftButton,mouse_6.midButton,mouse_6.rightButton,duringprac.thisRepN,duringprac.thisTrialN,duringprac.thisN,duringprac.thisIndex,duringprac.ran,participant,session,date,expName,psychopyVersion,OS,frameRate,study_id,mouse_7.clicked_name,catchpracsimilarity,catch_response_time,catchnumberprac,catchtrialorderprac,mouse_6.clicked_name,key_resp_22.keys,key_resp_22.rt,realcomparison,mouse.x,mouse.y,mouse.leftButton,mouse.midButton,mouse.rightButton,mouse.clicked_name,Colour2,similarity,mouse_2.x,mouse_2.y,mouse_2.leftButton,mouse_2.midButton,mouse_2.rightButton,mouse_2.clicked_name,mouse_3.x,mouse_3.y,mouse_3.leftButton,mouse_3.midButton,mouse_3.rightButton,mouse_11.x,mouse_11.y,mouse_11.leftButton,mouse_11.midButton,mouse_11.rightButton,trials_2.thisRepN,trials_2.thisTrialN,trials_2.thisN,trials_2.thisIndex,trials_2.ran,Colour1,mouse_3.clicked_name,catchornah,catchsimilarity,catchnumber,catchtrialorder,catchRT,mouse_11.clicked_name
space,10.8616,space,13.8126,space,106.8019,space,4.8089,space,1.1685,space,3.5901,147,FF,-105.7856863,-39.35723277,1,0,0,response5disk_5,2,7.6127,-10.92839971,-5.071447194,1,0,0,rectangle_8,-10.92839971,-5.071447194,1,0,0,-10.92839971,-5.071447194,1,0,0,0,0,0,0,1,610050997aff9a6e73bccaad,6103741073908f631258f8ef,2021-07-29_20h58.22.549,Simcolourproject_2stim_asymm_v5,2020.2.10,Win32,60,61025ae37ef11b136ea224fe,,,,,,,,,,,,,,,,,,,,,,,,,,,,,,,,,,,,,,,,,,,,,,
,,,,,,,,,,,,89,PF,-40.07139766,-28.50008942,1,0,0,response5disk_5,2,9.9494,-2.357110262,-3.92859,1,0,0,rectangle_8,89.07160476,48.64284092,1,0,0,-10.35711062,1.214197619,1,0,0,0,1,1,6,1,610050997aff9a6e73bccaad,6103741073908f631258f8ef,2021-07-29_20h58.22.549,Simcolourproject_2stim_asymm_v5,2020.2.10,Win32,60,61025ae37ef11b136ea224fe,response1disk_7,6,3.6846,6,"[2,5]",rectangle_4,,,,,,,,,,,,,,,,,,,,,,,,,,,,,,,,,,,,,,,,
,,,,,,,,,,,,82,PF,75.35717893,-36.50008978,1,0,0,response3disk_5,5,5.8168,-13.7856822,-8.50008853,1,0,0,rectangle_8,-13.7856822,-8.50008853,1,0,0,-13.7856822,-8.50008853,1,0,0,0,2,2,4,1,610050997aff9a6e73bccaad,6103741073908f631258f8ef,2021-07-29_20h58.22.549,Simcolourproject_2stim_asymm_v5,2020.2.10,Win32,60,61025ae37ef11b136ea224fe,,,,,,,,,,,,,,,,,,,,,,,,,,,,,,,,,,,,,,,,,,,,,,
,,,,,,,,,,,,108,FF,41.07160262,89.7856999,1,0,0,response1disk_5,7,2.1504,-6.357110441,7.499912185,1,0,0,rectangle_8,-6.357110441,7.499912185,1,0,0,-6.357110441,7.499912185,1,0,0,0,3,3,3,1,610050997aff9a6e73bccaad,6103741073908f631258f8ef,2021-07-29_20h58.22.549,Simcolourproject_2stim_asymm_v5,2020.2.10,Win32,60,61025ae37ef11b136ea224fe,,,,,,,,,,,,,,,,,,,,,,,,,,,,,,,,,,,,,,,,,,,,,,
,,,,,,,,,,,,74,PF,-94.35711437,-47.92859197,1,0,0,response5disk_5,2,3.3671,-3.499827947,2.928553164,1,0,0,rectangle_8,99.35718,54.92855549,1,0,0,14.78588716,-3.357161403,1,0,0,0,4,4,1,1,610050997aff9a6e73bccaad,6103741073908f631258f8ef,2021-07-29_20h58.22.549,Simcolourproject_2stim_asymm_v5,2020.2.10,Win32,60,61025ae37ef11b136ea224fe,response1disk_7,6,3.6704,6,"[2,5]",rectangle_4,,,,,,,,,,,,,,,,,,,,,,,,,,,,,,,,,,,,,,,,
,,,,,,,,,,,,41,PF,-94.92840346,-39.35723277,1,0,0,response5disk_5,2,2.9998,-1.214113559,7.499912185,1,0,0,rectangle_8,-1.214113559,7.499912185,1,0,0,-1.214113559,7.499912185,1,0,0,0,5,5,2,1,610050997aff9a6e73bccaad,6103741073908f631258f8ef,2021-07-29_20h58.22.549,Simcolourproject_2stim_asymm_v5,2020.2.10,Win32,60,61025ae37ef11b136ea224fe,,,,,,,,,,,,,,,,,,,,,,,,,,,,,,,,,,,,,,,,,,,,,,
,,,,,,,,,,,,94,FF,26.78588769,-81.07145059,1,0,0,response3disk_5,4,1.884,6.785886799,-9.071447372,1,0,0,rectangle_8,6.785886799,-9.071447372,1,0,0,6.785886799,-9.071447372,1,0,0,0,6,6,5,1,610050997aff9a6e73bccaad,6103741073908f631258f8ef,2021-07-29_20h58.22.549,Simcolourproject_2stim_asymm_v5,2020.2.10,Win32,60,61025ae37ef11b136ea224fe,,,,,,,,,,,,,,,,,,,,,,,,,,,,,,,,,,,,,,,,,,,,,,
,,,,,,,,,,,,,FF,,,,,,,,3.5871,,,,,,,,,,,,,,,,,,,,,,610050997aff9a6e73bccaad,6103741073908f631258f8ef,2021-07-29_20h58.22.549,Simcolourproject_2stim_asymm_v5,2020.2.10,Win32,60,61025ae37ef11b136ea224fe,,,,,,,space,2.5139,2282,25.64289099,-71.3572342,1,0,0,response3disk,,4,-4.64282465,-13.6429459,1,0,0,rectangle,-4.64282465,-13.6429459,1,0,0,-4.64282465,-13.6429459,1,0,0,0,0,0,92,1,,,,,,,,
,,,,,,,,,,,,,FF,,,,,,,,2.2666,,,,,,,,,,,,,,,,,,,,,,610050997aff9a6e73bccaad,6103741073908f631258f8ef,2021-07-29_20h58.22.549,Simcolourproject_2stim_asymm_v5,2020.2.10,Win32,60,61025ae37ef11b136ea224fe,,,,,,,,,2638,-52.6428268,-69.64294841,1,0,0,response5disk,,3,-6.928399529,-7.928590178,1,0,0,rectangle,-6.928399529,-7.928590178,1,0,0,-6.928399529,-7.928590178,1,0,0,0,1,1,155,1,,,,,,,,
,,,,,,,,,,,,,FF,,,,,,,,3.0333,,,,,,,,,,,,,,,,,,,,,,610050997aff9a6e73bccaad,6103741073908f631258f8ef,2021-07-29_20h58.22.549,Simcolourproject_2stim_asymm_v5,2020.2.10,Win32,60,61025ae37ef11b136ea224fe,,,,,,,,,3179,20.50017313,-67.92859286,1,0,0,response3disk,,4,-4.64282465,0.071410179,1,0,0,rectangle,49.07160297,88.07141411,1,0,0,-5.214113738,-7.357161582,1,0,0,0,2,2,117,1,,response1disk_3,TRUE,7,7,"[206,321,15,103,3,0,174,149,13,146,237,320,315,164,218,321,194,24,245,259]",2.4076,rectangle
,,,,,,,,,,,,,FF,,,,,,,,2.6007,,,,,,,,,,,,,,,,,,,,,,610050997aff9a6e73bccaad,6103741073908f631258f8ef,2021-07-29_20h58.22.549,Simcolourproject_2stim_asymm_v5,2020.2.10,Win32,60,61025ae37ef11b136ea224fe,,,,,,,,,2497,99.9286086,-46.78580453,1,0,0,response3disk,,5,27.92860538,-5.071447194,1,0,0,rectangle,27.92860538,-5.071447194,1,0,0,27.92860538,-5.071447194,1,0,0,0,3,3,107,1,,,,,,,,
,,,,,,,,,,,,,FF,,,,,,,,2.7828,,,,,,,,,,,,,,,,,,,,,,610050997aff9a6e73bccaad,6103741073908f631258f8ef,2021-07-29_20h58.22.549,Simcolourproject_2stim_asymm_v5,2020.2.10,Win32,60,61025ae37ef11b136ea224fe,,,,,,,,,335,-49.2141157,-70.21430725,1,0,0,response5disk,,3,-8.071396232,1.78569597,1,0,0,rectangle,-8.071396232,1.78569597,1,0,0,-8.071396232,1.78569597,1,0,0,0,4,4,158,1,,,,,,,,
,,,,,,,,,,,,,FF,,,,,,,,1.3341,,,,,,,,,,,,,,,,,,,,,,610050997aff9a6e73bccaad,6103741073908f631258f8ef,2021-07-29_20h58.22.549,Simcolourproject_2stim_asymm_v5,2020.2.10,Win32,60,61025ae37ef11b136ea224fe,,,,,,,,,424,-87.49997121,-25.64294644,1,0,0,response5disk,,2,-12.07139641,-6.214304388,1,0,0,rectangle,-12.07139641,-6.214304388,1,0,0,-12.07139641,-6.214304388,1,0,0,0,5,5,102,1,,,,,,,,
,,,,,,,,,,,,,FF,,,,,,,,2.3332,,,,,,,,,,,,,,,,,,,,,,610050997aff9a6e73bccaad,6103741073908f631258f8ef,2021-07-29_20h58.22.549,Simcolourproject_2stim_asymm_v5,2020.2.10,Win32,60,61025ae37ef11b136ea224fe,,,,,,,,,3983,-43.49982974,87.49998552,1,0,0,response7disk,,0,7.357175887,-2.214304209,1,0,0,rectangle,7.357175887,-2.214304209,1,0,0,7.357175887,-2.214304209,1,0,0,0,6,6,91,1,,,,,,,,
,,,,,,,,,,,,,FF,,,,,,,,1.2172,,,,,,,,,,,,,,,,,,,,,,610050997aff9a6e73bccaad,6103741073908f631258f8ef,2021-07-29_20h58.22.549,Simcolourproject_2stim_asymm_v5,2020.2.10,Win32,60,61025ae37ef11b136ea224fe,,,,,,,,,2150,-22.35711116,-63.35723384,1,0,0,response5disk,,3,20.50017313,2.928553164,1,0,0,rectangle,20.50017313,2.928553164,1,0,0,20.50017313,2.928553164,1,0,0,0,7,7,154,1,,,,,,,,
,,,,,,,,,,,,,FF,,,,,,,,4.2998,,,,,,,,,,,,,,,,,,,,,,610050997aff9a6e73bccaad,6103741073908f631258f8ef,2021-07-29_20h58.22.549,Simcolourproject_2stim_asymm_v5,2020.2.10,Win32,60,61025ae37ef11b136ea224fe,,,,,,,,,892,-77.78568506,127.4999873,1,0,0,response7disk,,0,8.50017259,-3.92859,1,0,0,rectangle,8.50017259,-3.92859,1,0,0,8.50017259,-3.92859,1,0,0,0,8,8,106,1,,,,,,,,
,,,,,,,,,,,,,FF,,,,,,,,2.5841,,,,,,,,,,,,,,,,,,,,,,610050997aff9a6e73bccaad,6103741073908f631258f8ef,2021-07-29_20h58.22.549,Simcolourproject_2stim_asymm_v5,2020.2.10,Win32,60,61025ae37ef11b136ea224fe,,,,,,,,,2002,32.50017366,-70.21430725,1,0,0,response3disk,,4,3.928604305,3.499912007,1,0,0,rectangle,3.928604305,3.499912007,1,0,0,3.928604305,3.499912007,1,0,0,0,9,9,11,1,,,,,,,,
,,,,,,,,,,,,,FF,,,,,,,,5.3664,,,,,,,,,,,,,,,,,,,,,,610050997aff9a6e73bccaad,6103741073908f631258f8ef,2021-07-29_20h58.22.549,Simcolourproject_2stim_asymm_v5,2020.2.10,Win32,60,61025ae37ef11b136ea224fe,,,,,,,,,1043,107.3571804,30.35705606,1,0,0,response1disk,,6,19.35717642,-2.78580256,1,0,0,rectangle,19.35717642,-2.78580256,1,0,0,19.35717642,-2.78580256,1,0,0,0,10,10,40,1,,,,,,,,
,,,,,,,,,,,,,FF,,,,,,,,1.2946,,,,,,,,,,,,,,,,,,,,,,610050997aff9a6e73bccaad,6103741073908f631258f8ef,2021-07-29_20h58.22.549,Simcolourproject_2stim_asymm_v5,2020.2.10,Win32,60,61025ae37ef11b136ea224fe,,,,,,,,,99,-56.07139838,109.7857008,1,0,0,response7disk,,0,-4.071396053,5.214197797,1,0,0,rectangle,-4.071396053,5.214197797,1,0,0,-4.071396053,5.214197797,1,0,0,0,11,11,56,1,,,,,,,,
,,,,,,,,,,,,,FF,,,,,,,,1.9502,,,,,,,,,,,,,,,,,,,,,,610050997aff9a6e73bccaad,6103741073908f631258f8ef,2021-07-29_20h58.22.549,Simcolourproject_2stim_asymm_v5,2020.2.10,Win32,60,61025ae37ef11b136ea224fe,,,,,,,,,4159,-48.07139802,-26.78580363,1,0,0,response5disk,,2,1.071600829,-3.357161403,1,0,0,rectangle,31.35717696,-66.21430707,1,0,0,-0.642824471,1.214197619,1,0,0,0,12,12,45,1,,response3disk_3,TRUE,4,4,"[206,321,15,103,3,0,174,149,13,146,237,320,315,164,218,321,194,24,245,259]",1.6557,rectangle
,,,,,,,,,,,,,FF,,,,,,,,5.0004,,,,,,,,,,,,,,,,,,,,,,610050997aff9a6e73bccaad,6103741073908f631258f8ef,2021-07-29_20h58.22.549,Simcolourproject_2stim_asymm_v5,2020.2.10,Win32,60,61025ae37ef11b136ea224fe,,,,,,,,,245,-90.3571142,-36.50008978,1,0,0,response5disk,,2,3.928604305,11.49991236,1,0,0,rectangle,3.928604305,11.49991236,1,0,0,3.928604305,11.49991236,1,0,0,0,13,13,16,1,,,,,,,,
,,,,,,,,,,,,,FF,,,,,,,,1.0667,,,,,,,,,,,,,,,,,,,,,,610050997aff9a6e73bccaad,6103741073908f631258f8ef,2021-07-29_20h58.22.549,Simcolourproject_2stim_asymm_v5,2020.2.10,Win32,60,61025ae37ef11b136ea224fe,,,,,,,,,1904,-49.2141157,105.2142023,1,0,0,response7disk,,0,2.78588662,4.071410358,1,0,0,rectangle,108.5001771,41.21419941,1,0,0,-6.928399529,4.642838955,1,0,0,0,14,14,9,1,,response1disk_3,TRUE,6,6,"[206,321,15,103,3,0,174,149,13,146,237,320,315,164,218,321,194,24,245,259]",1.8671,rectangle
,,,,,,,,,,,,,FF,,,,,,,,1.7663,,,,,,,,,,,,,,,,,,,,,,610050997aff9a6e73bccaad,6103741073908f631258f8ef,2021-07-29_20h58.22.549,Simcolourproject_2stim_asymm_v5,2020.2.10,Win32,60,61025ae37ef11b136ea224fe,,,,,,,,,3531,-96.07140017,-43.35723295,1,0,0,response5disk,,2,5.642890096,-2.78580256,1,0,0,rectangle,5.642890096,-2.78580256,1,0,0,5.642890096,-2.78580256,1,0,0,0,15,15,131,1,,,,,,,,
,,,,,,,,,,,,,FF,,,,,,,,24.5639,,,,,,,,,,,,,,,,,,,,,,610050997aff9a6e73bccaad,6103741073908f631258f8ef,2021-07-29_20h58.22.549,Simcolourproject_2stim_asymm_v5,2020.2.10,Win32,60,61025ae37ef11b136ea224fe,,,,,,,,,382,-42.92840114,-107.3572009,1,0,0,response5disk,,3,-5.785681844,1.78569597,1,0,0,rectangle,-5.785681844,1.78569597,1,0,0,-5.785681844,1.78569597,1,0,0,0,16,16,151,1,,,,,,,,
,,,,,,,,,,,,,FF,,,,,,,,1.2832,,,,,,,,,,,,,,,,,,,,,,610050997aff9a6e73bccaad,6103741073908f631258f8ef,2021-07-29_20h58.22.549,Simcolourproject_2stim_asymm_v5,2020.2.10,Win32,60,61025ae37ef11b136ea224fe,,,,,,,,,4064,-59.49996996,38.92855477,1,0,0,response7disk,,1,13.07160137,1.78569597,1,0,0,rectangle,13.07160137,1.78569597,1,0,0,13.07160137,1.78569597,1,0,0,0,17,17,23,1,,,,,,,,
,,,,,,,,,,,,,FF,,,,,,,,1.6506,,,,,,,,,,,,,,,,,,,,,,610050997aff9a6e73bccaad,6103741073908f631258f8ef,2021-07-29_20h58.22.549,Simcolourproject_2stim_asymm_v5,2020.2.10,Win32,60,61025ae37ef11b136ea224fe,,,,,,,,,258,-44.64282644,68.07141322,1,0,0,response7disk,,0,-4.071396053,1.78569597,1,0,0,rectangle,-4.071396053,1.78569597,1,0,0,-4.071396053,1.78569597,1,0,0,0,18,18,75,1,,,,,,,,
,,,,,,,,,,,,,FF,,,,,,,,0.951,,,,,,,,,,,,,,,,,,,,,,610050997aff9a6e73bccaad,6103741073908f631258f8ef,2021-07-29_20h58.22.549,Simcolourproject_2stim_asymm_v5,2020.2.10,Win32,60,61025ae37ef11b136ea224fe,,,,,,,,,2574,69.07160387,-26.78580363,1,0,0,response3disk,,5,12.50017277,-1.642945366,1,0,0,rectangle,12.50017277,-1.642945366,1,0,0,12.50017277,-1.642945366,1,0,0,0,19,19,138,1,,,,,,,,
,,,,,,,,,,,,,FF,,,,,,,,2.9,,,,,,,,,,,,,,,,,,,,,,610050997aff9a6e73bccaad,6103741073908f631258f8ef,2021-07-29_20h58.22.549,Simcolourproject_2stim_asymm_v5,2020.2.10,Win32,60,61025ae37ef11b136ea224fe,,,,,,,,,1487,107.3571804,58.35705732,1,0,0,response1disk,,6,1.071600829,-3.357161403,1,0,0,rectangle,1.071600829,-3.357161403,1,0,0,1.071600829,-3.357161403,1,0,0,0,20,20,58,1,,,,,,,,
,,,,,,,,,,,,,FF,,,,,,,,3.3995,,,,,,,,,,,,,,,,,,,,,,610050997aff9a6e73bccaad,6103741073908f631258f8ef,2021-07-29_20h58.22.549,Simcolourproject_2stim_asymm_v5,2020.2.10,Win32,60,61025ae37ef11b136ea224fe,,,,,,,,,1796,62.7858893,-37.64294698,1,0,0,response3disk,,5,-2.357110262,-5.642945545,1,0,0,rectangle,-2.357110262,-5.642945545,1,0,0,-2.357110262,-5.642945545,1,0,0,0,21,21,36,1,,,,,,,,
,,,,,,,,,,,,,FF,,,,,,,,2.8001,,,,,,,,,,,,,,,,,,,,,,610050997aff9a6e73bccaad,6103741073908f631258f8ef,2021-07-29_20h58.22.549,Simcolourproject_2stim_asymm_v5,2020.2.10,Win32,60,61025ae37ef11b136ea224fe,,,,,,,,,2188,-89.7856856,-23.3571623,1,0,0,response5disk,,2,12.50017277,-9.071447372,1,0,0,rectangle,12.50017277,-9.071447372,1,0,0,12.50017277,-9.071447372,1,0,0,0,22,22,28,1,,,,,,,,
,,,,,,,,,,,,,FF,,,,,,,,2.8836,,,,,,,,,,,,,,,,,,,,,,610050997aff9a6e73bccaad,6103741073908f631258f8ef,2021-07-29_20h58.22.549,Simcolourproject_2stim_asymm_v5,2020.2.10,Win32,60,61025ae37ef11b136ea224fe,,,,,,,,,3768,-94.35711437,45.78569794,1,0,0,response7disk,,1,2.214318514,-0.500088172,1,0,0,rectangle,-41.78568345,105.7857006,1,0,0,-3.499827947,-1.071447015,1,0,0,0,23,23,120,1,,response7disk_3,TRUE,0,0,"[206,321,15,103,3,0,174,149,13,146,237,320,315,164,218,321,194,24,245,259]",1.6493,rectangle
,,,,,,,,,,,,,FF,,,,,,,,1.9004,,,,,,,,,,,,,,,,,,,,,,610050997aff9a6e73bccaad,6103741073908f631258f8ef,2021-07-29_20h58.22.549,Simcolourproject_2stim_asymm_v5,2020.2.10,Win32,60,61025ae37ef11b136ea224fe,,,,,,,,,950,-76.07139927,36.07141179,1,0,0,response7disk,,1,5.642890096,-14.7858031,1,0,0,rectangle,5.642890096,-14.7858031,1,0,0,5.642890096,-14.7858031,1,0,0,0,24,24,47,1,,,,,,,,
,,,,,,,,,,,,,FF,,,,,,,,2.9842,,,,,,,,,,,,,,,,,,,,,,610050997aff9a6e73bccaad,6103741073908f631258f8ef,2021-07-29_20h58.22.549,Simcolourproject_2stim_asymm_v5,2020.2.10,Win32,60,61025ae37ef11b136ea224fe,,,,,,,,,1482,46.78588859,-57.07144952,1,0,0,response3disk,,4,-14.3571108,-2.78580256,1,0,0,rectangle,-14.3571108,-2.78580256,1,0,0,-14.3571108,-2.78580256,1,0,0,0,25,25,111,1,,,,,,,,
,,,,,,,,,,,,,FF,,,,,,,,0.9001,,,,,,,,,,,,,,,,,,,,,,610050997aff9a6e73bccaad,6103741073908f631258f8ef,2021-07-29_20h58.22.549,Simcolourproject_2stim_asymm_v5,2020.2.10,Win32,60,61025ae37ef11b136ea224fe,,,,,,,,,1571,-26.92840042,-63.35723384,1,0,0,response5disk,,3,12.50017277,4.071410358,1,0,0,rectangle,12.50017277,4.071410358,1,0,0,12.50017277,4.071410358,1,0,0,0,26,26,132,1,,,,,,,,
,,,,,,,,,,,,,FF,,,,,,,,1.3834,,,,,,,,,,,,,,,,,,,,,,610050997aff9a6e73bccaad,6103741073908f631258f8ef,2021-07-29_20h58.22.549,Simcolourproject_2stim_asymm_v5,2020.2.10,Win32,60,61025ae37ef11b136ea224fe,,,,,,,,,549,-81.78568524,40.64284056,1,0,0,response7disk,,1,21.64289081,0.071410179,1,0,0,rectangle,21.64289081,0.071410179,1,0,0,21.64289081,0.071410179,1,0,0,0,27,27,115,1,,,,,,,,
,,,,,,,,,,,,,FF,,,,,,,,1.1835,,,,,,,,,,,,,,,,,,,,,,610050997aff9a6e73bccaad,6103741073908f631258f8ef,2021-07-29_20h58.22.549,Simcolourproject_2stim_asymm_v5,2020.2.10,Win32,60,61025ae37ef11b136ea224fe,,,,,,,,,710,101.0716053,-65.07144988,1,0,0,response3disk,,5,7.928604484,5.214197797,1,0,0,rectangle,7.928604484,5.214197797,1,0,0,7.928604484,5.214197797,1,0,0,0,28,28,63,1,,,,,,,,
,,,,,,,,,,,,,FF,,,,,,,,0.7844,,,,,,,,,,,,,,,,,,,,,,610050997aff9a6e73bccaad,6103741073908f631258f8ef,2021-07-29_20h58.22.549,Simcolourproject_2stim_asymm_v5,2020.2.10,Win32,60,61025ae37ef11b136ea224fe,,,,,,,,,2745,81.07160441,40.64284056,1,0,0,response1disk,,6,18.78588734,6.928553343,1,0,0,rectangle,18.78588734,6.928553343,1,0,0,18.78588734,6.928553343,1,0,0,0,29,29,39,1,,,,,,,,
,,,,,,,,,,,,,FF,,,,,,,,2.8999,,,,,,,,,,,,,,,,,,,,,,610050997aff9a6e73bccaad,6103741073908f631258f8ef,2021-07-29_20h58.22.549,Simcolourproject_2stim_asymm_v5,2020.2.10,Win32,60,61025ae37ef11b136ea224fe,,,,,,,,,21,45.0716028,77.21420102,1,0,0,response1disk,,7,-8.071396232,-1.071447015,1,0,0,rectangle,-8.071396232,-1.071447015,1,0,0,-8.071396232,-1.071447015,1,0,0,0,30,30,79,1,,,,,,,,
,,,,,,,,,,,,,FF,,,,,,,,0.9834,,,,,,,,,,,,,,,,,,,,,,610050997aff9a6e73bccaad,6103741073908f631258f8ef,2021-07-29_20h58.22.549,Simcolourproject_2stim_asymm_v5,2020.2.10,Win32,60,61025ae37ef11b136ea224fe,,,,,,,,,1120,-66.92840221,-25.64294644,1,0,0,response5disk,,2,-4.071396053,-9.642945724,1,0,0,rectangle,-4.071396053,-9.642945724,1,0,0,-4.071396053,-9.642945724,1,0,0,0,31,31,33,1,,,,,,,,
,,,,,,,,,,,,,FF,,,,,,,,1.0674,,,,,,,,,,,,,,,,,,,,,,610050997aff9a6e73bccaad,6103741073908f631258f8ef,2021-07-29_20h58.22.549,Simcolourproject_2stim_asymm_v5,2020.2.10,Win32,60,61025ae37ef11b136ea224fe,,,,,,,,,4316,-44.07139784,82.92855674,1,0,0,response7disk,,0,-6.928399529,9.214197976,1,0,0,rectangle,-6.928399529,9.214197976,1,0,0,-6.928399529,9.214197976,1,0,0,0,32,32,8,1,,,,,,,,
,,,,,,,,,,,,,FF,,,,,,,,1.5511,,,,,,,,,,,,,,,,,,,,,,610050997aff9a6e73bccaad,6103741073908f631258f8ef,2021-07-29_20h58.22.549,Simcolourproject_2stim_asymm_v5,2020.2.10,Win32,60,61025ae37ef11b136ea224fe,,,,,,,,,2850,54.78588894,42.3570566,1,0,0,response1disk,,6,6.785886799,-2.78580256,1,0,0,rectangle,6.785886799,-2.78580256,1,0,0,6.785886799,-2.78580256,1,0,0,0,33,33,49,1,,,,,,,,
,,,,,,,,,,,,,FF,,,,,,,,22.7151,,,,,,,,,,,,,,,,,,,,,,610050997aff9a6e73bccaad,6103741073908f631258f8ef,2021-07-29_20h58.22.549,Simcolourproject_2stim_asymm_v5,2020.2.10,Win32,60,61025ae37ef11b136ea224fe,,,,,,,,,1708,-45.21411553,-82.21430779,1,0,0,response5disk,,3,-8.642824829,-9.642945724,1,0,0,rectangle,-8.642824829,-9.642945724,1,0,0,-8.642824829,-9.642945724,1,0,0,0,34,34,105,1,,,,,,,,
,,,,,,,,,,,,,FF,,,,,,,,7.1334,,,,,,,,,,,,,,,,,,,,,,610050997aff9a6e73bccaad,6103741073908f631258f8ef,2021-07-29_20h58.22.549,Simcolourproject_2stim_asymm_v5,2020.2.10,Win32,60,61025ae37ef11b136ea224fe,,,,,,,,,3409,99.9286086,-53.64294769,1,0,0,response3disk,,5,-4.071396053,4.642838955,1,0,0,rectangle,-4.071396053,4.642838955,1,0,0,-4.071396053,4.642838955,1,0,0,0,35,35,84,1,,,,,,,,
,,,,,,,,,,,,,FF,,,,,,,,2.0167,,,,,,,,,,,,,,,,,,,,,,610050997aff9a6e73bccaad,6103741073908f631258f8ef,2021-07-29_20h58.22.549,Simcolourproject_2stim_asymm_v5,2020.2.10,Win32,60,61025ae37ef11b136ea224fe,,,,,,,,,1098,91.35717964,-61.0714497,1,0,0,response3disk,,5,19.92860502,-2.214304209,1,0,0,rectangle,19.92860502,-2.214304209,1,0,0,19.92860502,-2.214304209,1,0,0,0,36,36,64,1,,,,,,,,
,,,,,,,,,,,,,FF,,,,,,,,1.383,,,,,,,,,,,,,,,,,,,,,,610050997aff9a6e73bccaad,6103741073908f631258f8ef,2021-07-29_20h58.22.549,Simcolourproject_2stim_asymm_v5,2020.2.10,Win32,60,61025ae37ef11b136ea224fe,,,,,,,,,2046,-81.21411714,30.92855442,1,0,0,response7disk,,1,6.785886799,6.357054991,1,0,0,rectangle,6.785886799,6.357054991,1,0,0,6.785886799,6.357054991,1,0,0,0,37,37,144,1,,,,,,,,
,,,,,,,,,,,,,FF,,,,,,,,10.9987,,,,,,,,,,,,,,,,,,,,,,610050997aff9a6e73bccaad,6103741073908f631258f8ef,2021-07-29_20h58.22.549,Simcolourproject_2stim_asymm_v5,2020.2.10,Win32,60,61025ae37ef11b136ea224fe,,,,,,,,,1080,-51.4999696,-90.21430814,1,0,0,response5disk,,3,-4.64282465,-5.642945545,1,0,0,rectangle,-4.64282465,-5.642945545,1,0,0,-4.64282465,-5.642945545,1,0,0,0,38,38,57,1,,,,,,,,
,,,,,,,,,,,,,FF,,,,,,,,1.3162,,,,,,,,,,,,,,,,,,,,,,610050997aff9a6e73bccaad,6103741073908f631258f8ef,2021-07-29_20h58.22.549,Simcolourproject_2stim_asymm_v5,2020.2.10,Win32,60,61025ae37ef11b136ea224fe,,,,,,,,,690,97.07160512,50.35705696,1,0,0,response1disk,,6,5.642890096,5.214197797,1,0,0,rectangle,5.642890096,5.214197797,1,0,0,5.642890096,5.214197797,1,0,0,0,39,39,99,1,,,,,,,,
,,,,,,,,,,,,,FF,,,,,,,,1.0166,,,,,,,,,,,,,,,,,,,,,,610050997aff9a6e73bccaad,6103741073908f631258f8ef,2021-07-29_20h58.22.549,Simcolourproject_2stim_asymm_v5,2020.2.10,Win32,60,61025ae37ef11b136ea224fe,,,,,,,,,45,71.35717875,114.9285582,1,0,0,response1disk,,7,7.357175887,-0.500088172,1,0,0,rectangle,7.357175887,-0.500088172,1,0,0,7.357175887,-0.500088172,1,0,0,0,40,40,50,1,,,,,,,,
,,,,,,,,,,,,,FF,,,,,,,,0.8337,,,,,,,,,,,,,,,,,,,,,,610050997aff9a6e73bccaad,6103741073908f631258f8ef,2021-07-29_20h58.22.549,Simcolourproject_2stim_asymm_v5,2020.2.10,Win32,60,61025ae37ef11b136ea224fe,,,,,,,,,3473,-32.6428259,62.92855585,1,0,0,response7disk,,0,-2.357110262,5.785696149,1,0,0,rectangle,-2.357110262,5.785696149,1,0,0,-2.357110262,5.785696149,1,0,0,0,41,41,17,1,,,,,,,,
,,,,,,,,,,,,,FF,,,,,,,,0.782,,,,,,,,,,,,,,,,,,,,,,610050997aff9a6e73bccaad,6103741073908f631258f8ef,2021-07-29_20h58.22.549,Simcolourproject_2stim_asymm_v5,2020.2.10,Win32,60,61025ae37ef11b136ea224fe,,,,,,,,,70,-44.07139784,81.21420119,1,0,0,response7disk,,0,-2.357110262,-15.92859054,1,0,0,rectangle,-2.357110262,-15.92859054,1,0,0,-2.357110262,-15.92859054,1,0,0,0,42,42,3,1,,,,,,,,
,,,,,,,,,,,,,FF,,,,,,,,0.8337,,,,,,,,,,,,,,,,,,,,,,610050997aff9a6e73bccaad,6103741073908f631258f8ef,2021-07-29_20h58.22.549,Simcolourproject_2stim_asymm_v5,2020.2.10,Win32,60,61025ae37ef11b136ea224fe,,,,,,,,,3869,63.35717839,-29.64294662,1,0,0,response3disk,,5,31.92860556,-6.214304388,1,0,0,rectangle,31.92860556,-6.214304388,1,0,0,31.92860556,-6.214304388,1,0,0,0,43,43,67,1,,,,,,,,
,,,,,,,,,,,,,FF,,,,,,,,0.9497,,,,,,,,,,,,,,,,,,,,,,610050997aff9a6e73bccaad,6103741073908f631258f8ef,2021-07-29_20h58.22.549,Simcolourproject_2stim_asymm_v5,2020.2.10,Win32,60,61025ae37ef11b136ea224fe,,,,,,,,,4121,-39.49982956,66.92855603,1,0,0,response7disk,,0,-4.64282465,-5.071447194,1,0,0,rectangle,-4.64282465,-5.071447194,1,0,0,-4.64282465,-5.071447194,1,0,0,0,44,44,100,1,,,,,,,,
,,,,,,,,,,,,,FF,,,,,,,,7.4495,,,,,,,,,,,,,,,,,,,,,,610050997aff9a6e73bccaad,6103741073908f631258f8ef,2021-07-29_20h58.22.549,Simcolourproject_2stim_asymm_v5,2020.2.10,Win32,60,61025ae37ef11b136ea224fe,,,,,,,,,3724,-46.92840132,-69.07145005,1,0,0,response5disk,,3,3.928604305,-2.78580256,1,0,0,rectangle,3.928604305,-2.78580256,1,0,0,3.928604305,-2.78580256,1,0,0,0,45,45,25,1,,,,,,,,
,,,,,,,,,,,,,FF,,,,,,,,1.367,,,,,,,,,,,,,,,,,,,,,,610050997aff9a6e73bccaad,6103741073908f631258f8ef,2021-07-29_20h58.22.549,Simcolourproject_2stim_asymm_v5,2020.2.10,Win32,60,61025ae37ef11b136ea224fe,,,,,,,,,4161,-16.07139659,120.6428441,1,0,0,response7disk,,0,-1.785681665,-8.50008853,1,0,0,rectangle,-1.785681665,-8.50008853,1,0,0,-1.785681665,-8.50008853,1,0,0,0,46,46,61,1,,,,,,,,
,,,,,,,,,,,,,FF,,,,,,,,11.1661,,,,,,,,,,,,,,,,,,,,,,610050997aff9a6e73bccaad,6103741073908f631258f8ef,2021-07-29_20h58.22.549,Simcolourproject_2stim_asymm_v5,2020.2.10,Win32,60,61025ae37ef11b136ea224fe,,,,,,,,,2386,-46.92840132,-87.35723491,1,0,0,response5disk,,3,14.78588716,-5.642945545,1,0,0,rectangle,14.78588716,-5.642945545,1,0,0,14.78588716,-5.642945545,1,0,0,0,47,47,133,1,,,,,,,,
,,,,,,,,,,,,,FF,,,,,,,,0.8505,,,,,,,,,,,,,,,,,,,,,,610050997aff9a6e73bccaad,6103741073908f631258f8ef,2021-07-29_20h58.22.549,Simcolourproject_2stim_asymm_v5,2020.2.10,Win32,60,61025ae37ef11b136ea224fe,,,,,,,,,1478,79.9286077,40.07141197,1,0,0,response1disk,,6,-0.071395874,-5.642945545,1,0,0,rectangle,-0.071395874,-5.642945545,1,0,0,-0.071395874,-5.642945545,1,0,0,0,48,48,51,1,,,,,,,,
,,,,,,,,,,,,,FF,,,,,,,,0.8651,,,,,,,,,,,,,,,,,,,,,,610050997aff9a6e73bccaad,6103741073908f631258f8ef,2021-07-29_20h58.22.549,Simcolourproject_2stim_asymm_v5,2020.2.10,Win32,60,61025ae37ef11b136ea224fe,,,,,,,,,1709,91.92860824,47.49991397,1,0,0,response1disk,,6,5.071601008,2.357054813,1,0,0,rectangle,5.071601008,2.357054813,1,0,0,5.071601008,2.357054813,1,0,0,0,49,49,7,1,,,,,,,,
,,,,,,,,,,,,,FF,,,,,,,,1.2001,,,,,,,,,,,,,,,,,,,,,,610050997aff9a6e73bccaad,6103741073908f631258f8ef,2021-07-29_20h58.22.549,Simcolourproject_2stim_asymm_v5,2020.2.10,Win32,60,61025ae37ef11b136ea224fe,,,,,,,,,1262,28.50017348,-70.7858056,1,0,0,response3disk,,4,2.214318514,-9.642945724,1,0,0,rectangle,2.214318514,-9.642945724,1,0,0,2.214318514,-9.642945724,1,0,0,0,50,50,0,1,,,,,,,,
,,,,,,,,,,,,,FF,,,,,,,,0.8665,,,,,,,,,,,,,,,,,,,,,,610050997aff9a6e73bccaad,6103741073908f631258f8ef,2021-07-29_20h58.22.549,Simcolourproject_2stim_asymm_v5,2020.2.10,Win32,60,61025ae37ef11b136ea224fe,,,,,,,,,3156,-34.92840078,81.21420119,1,0,0,response7disk,,0,-6.928399529,6.357054991,1,0,0,rectangle,-6.928399529,6.357054991,1,0,0,-6.928399529,6.357054991,1,0,0,0,51,51,52,1,,,,,,,,
,,,,,,,,,,,,,FF,,,,,,,,1.1001,,,,,,,,,,,,,,,,,,,,,,610050997aff9a6e73bccaad,6103741073908f631258f8ef,2021-07-29_20h58.22.549,Simcolourproject_2stim_asymm_v5,2020.2.10,Win32,60,61025ae37ef11b136ea224fe,,,,,,,,,1352,-74.92840257,37.78569758,1,0,0,response7disk,,1,-7.499828126,1.78569597,1,0,0,rectangle,-7.499828126,1.78569597,1,0,0,-7.499828126,1.78569597,1,0,0,0,52,52,152,1,,,,,,,,
,,,,,,,,,,,,,FF,,,,,,,,1.3663,,,,,,,,,,,,,,,,,,,,,,610050997aff9a6e73bccaad,6103741073908f631258f8ef,2021-07-29_20h58.22.549,Simcolourproject_2stim_asymm_v5,2020.2.10,Win32,60,61025ae37ef11b136ea224fe,,,,,,,,,4053,-87.49997121,-48.50009032,1,0,0,response5disk,,2,4.500172411,3.499912007,1,0,0,rectangle,4.500172411,3.499912007,1,0,0,4.500172411,3.499912007,1,0,0,0,53,53,148,1,,,,,,,,
,,,,,,,,,,,,,FF,,,,,,,,2.4507,,,,,,,,,,,,,,,,,,,,,,610050997aff9a6e73bccaad,6103741073908f631258f8ef,2021-07-29_20h58.22.549,Simcolourproject_2stim_asymm_v5,2020.2.10,Win32,60,61025ae37ef11b136ea224fe,,,,,,,,,745,107.3571804,-49.64294751,1,0,0,response3disk,,5,9.642890275,2.928553164,1,0,0,rectangle,9.642890275,2.928553164,1,0,0,9.642890275,2.928553164,1,0,0,0,54,54,98,1,,,,,,,,
,,,,,,,,,,,,,FF,,,,,,,,7.9496,,,,,,,,,,,,,,,,,,,,,,610050997aff9a6e73bccaad,6103741073908f631258f8ef,2021-07-29_20h58.22.549,Simcolourproject_2stim_asymm_v5,2020.2.10,Win32,60,61025ae37ef11b136ea224fe,,,,,,,,,2207,-41.21411535,-93.07145113,1,0,0,response5disk,,3,-15.49982848,-5.642945545,1,0,0,rectangle,-15.49982848,-5.642945545,1,0,0,-15.49982848,-5.642945545,1,0,0,0,55,55,156,1,,,,,,,,
,,,,,,,,,,,,,FF,,,,,,,,4.7499,,,,,,,,,,,,,,,,,,,,,,610050997aff9a6e73bccaad,6103741073908f631258f8ef,2021-07-29_20h58.22.549,Simcolourproject_2stim_asymm_v5,2020.2.10,Win32,60,61025ae37ef11b136ea224fe,,,,,,,,,647,-51.4999696,-77.07145041,1,0,0,response5disk,,3,-10.35711062,4.071410358,1,0,0,rectangle,-10.35711062,4.071410358,1,0,0,-10.35711062,4.071410358,1,0,0,0,56,56,55,1,,,,,,,,
,,,,,,,,,,,,,FF,,,,,,,,0.9485,,,,,,,,,,,,,,,,,,,,,,610050997aff9a6e73bccaad,6103741073908f631258f8ef,2021-07-29_20h58.22.549,Simcolourproject_2stim_asymm_v5,2020.2.10,Win32,60,61025ae37ef11b136ea224fe,,,,,,,,,172,-85.21411731,45.78569794,1,0,0,response7disk,,1,-14.3571108,5.214197797,1,0,0,rectangle,-14.3571108,5.214197797,1,0,0,-14.3571108,5.214197797,1,0,0,0,57,57,118,1,,,,,,,,
,,,,,,,,,,,,,FF,,,,,,,,1.3333,,,,,,,,,,,,,,,,,,,,,,610050997aff9a6e73bccaad,6103741073908f631258f8ef,2021-07-29_20h58.22.549,Simcolourproject_2stim_asymm_v5,2020.2.10,Win32,60,61025ae37ef11b136ea224fe,,,,,,,,,1137,-46.92840132,69.21420066,1,0,0,response7disk,,0,15.35717624,-10.78580292,1,0,0,rectangle,15.35717624,-10.78580292,1,0,0,15.35717624,-10.78580292,1,0,0,0,58,58,6,1,,,,,,,,
,,,,,,,,,,,,,FF,,,,,,,,0.9833,,,,,,,,,,,,,,,,,,,,,,610050997aff9a6e73bccaad,6103741073908f631258f8ef,2021-07-29_20h58.22.549,Simcolourproject_2stim_asymm_v5,2020.2.10,Win32,60,61025ae37ef11b136ea224fe,,,,,,,,,3924,-54.35711259,-99.92859429,1,0,0,response5disk,,3,15.92860484,-1.071447015,1,0,0,rectangle,15.92860484,-1.071447015,1,0,0,15.92860484,-1.071447015,1,0,0,0,59,59,62,1,,,,,,,,
,,,,,,,,,,,,,FF,,,,,,,,2.1667,,,,,,,,,,,,,,,,,,,,,,610050997aff9a6e73bccaad,6103741073908f631258f8ef,2021-07-29_20h58.22.549,Simcolourproject_2stim_asymm_v5,2020.2.10,Win32,60,61025ae37ef11b136ea224fe,,,,,,,,,378,18.21431923,-64.50009103,1,0,0,response3disk,,4,3.357175708,-6.785802739,1,0,0,rectangle,3.357175708,-6.785802739,1,0,0,3.357175708,-6.785802739,1,0,0,0,60,60,86,1,,,,,,,,
,,,,,,,,,,,,,FF,,,,,,,,0.8339,,,,,,,,,,,,,,,,,,,,,,610050997aff9a6e73bccaad,6103741073908f631258f8ef,2021-07-29_20h58.22.549,Simcolourproject_2stim_asymm_v5,2020.2.10,Win32,60,61025ae37ef11b136ea224fe,,,,,,,,,2193,80.50017581,-29.64294662,1,0,0,response3disk,,5,11.92860466,0.642838776,1,0,0,rectangle,11.92860466,0.642838776,1,0,0,11.92860466,0.642838776,1,0,0,0,61,61,126,1,,,,,,,,
,,,,,,,,,,,,,FF,,,,,,,,0.9497,,,,,,,,,,,,,,,,,,,,,,610050997aff9a6e73bccaad,6103741073908f631258f8ef,2021-07-29_20h58.22.549,Simcolourproject_2stim_asymm_v5,2020.2.10,Win32,60,61025ae37ef11b136ea224fe,,,,,,,,,1903,-92.07139999,-41.64294715,1,0,0,response5disk,,2,3.928604305,5.785696149,1,0,0,rectangle,3.928604305,5.785696149,1,0,0,3.928604305,5.785696149,1,0,0,0,62,62,48,1,,,,,,,,
,,,,,,,,,,,,,FF,,,,,,,,1.6168,,,,,,,,,,,,,,,,,,,,,,610050997aff9a6e73bccaad,6103741073908f631258f8ef,2021-07-29_20h58.22.549,Simcolourproject_2stim_asymm_v5,2020.2.10,Win32,60,61025ae37ef11b136ea224fe,,,,,,,,,1554,95.92860842,-45.07144898,1,0,0,response3disk,,5,-5.785681844,5.785696149,1,0,0,rectangle,-5.785681844,5.785696149,1,0,0,-5.785681844,5.785696149,1,0,0,0,63,63,71,1,,,,,,,,
,,,,,,,,,,,,,FF,,,,,,,,2.3837,,,,,,,,,,,,,,,,,,,,,,610050997aff9a6e73bccaad,6103741073908f631258f8ef,2021-07-29_20h58.22.549,Simcolourproject_2stim_asymm_v5,2020.2.10,Win32,60,61025ae37ef11b136ea224fe,,,,,,,,,1059,-75.49997067,30.35705606,1,0,0,response7disk,,1,1.642889917,3.499912007,1,0,0,rectangle,1.642889917,3.499912007,1,0,0,1.642889917,3.499912007,1,0,0,0,64,64,142,1,,,,,,,,
,,,,,,,,,,,,,FF,,,,,,,,34.564,,,,,,,,,,,,,,,,,,,,,,610050997aff9a6e73bccaad,6103741073908f631258f8ef,2021-07-29_20h58.22.549,Simcolourproject_2stim_asymm_v5,2020.2.10,Win32,60,61025ae37ef11b136ea224fe,,,,,,,,,829,-35.49982938,-35.35723259,1,0,0,response5disk,,2,-11.4998283,-2.78580256,1,0,0,rectangle,-11.4998283,-2.78580256,1,0,0,-11.4998283,-2.78580256,1,0,0,0,65,65,78,1,,,,,,,,
,,,,,,,,,,,,,FF,,,,,,,,0.833,,,,,,,,,,,,,,,,,,,,,,610050997aff9a6e73bccaad,6103741073908f631258f8ef,2021-07-29_20h58.22.549,Simcolourproject_2stim_asymm_v5,2020.2.10,Win32,60,61025ae37ef11b136ea224fe,,,,,,,,,2087,-98.92840364,-32.5000896,1,0,0,response5disk,,2,7.928604484,-7.928590178,1,0,0,rectangle,7.928604484,-7.928590178,1,0,0,7.928604484,-7.928590178,1,0,0,0,66,66,14,1,,,,,,,,
,,,,,,,,,,,,,FF,,,,,,,,0.8995,,,,,,,,,,,,,,,,,,,,,,610050997aff9a6e73bccaad,6103741073908f631258f8ef,2021-07-29_20h58.22.549,Simcolourproject_2stim_asymm_v5,2020.2.10,Win32,60,61025ae37ef11b136ea224fe,,,,,,,,,2851,65.64289278,-23.92859089,1,0,0,response3disk,,5,9.642890275,12.07141072,1,0,0,rectangle,9.642890275,12.07141072,1,0,0,9.642890275,12.07141072,1,0,0,0,67,67,109,1,,,,,,,,
,,,,,,,,,,,,,FF,,,,,,,,1.016,,,,,,,,,,,,,,,,,,,,,,610050997aff9a6e73bccaad,6103741073908f631258f8ef,2021-07-29_20h58.22.549,Simcolourproject_2stim_asymm_v5,2020.2.10,Win32,60,61025ae37ef11b136ea224fe,,,,,,,,,2024,51.92860645,86.92855692,1,0,0,response1disk,,7,-0.071395874,-2.214304209,1,0,0,rectangle,-0.071395874,-2.214304209,1,0,0,-0.071395874,-2.214304209,1,0,0,0,68,68,80,1,,,,,,,,
,,,,,,,,,,,,,FF,,,,,,,,0.7663,,,,,,,,,,,,,,,,,,,,,,610050997aff9a6e73bccaad,6103741073908f631258f8ef,2021-07-29_20h58.22.549,Simcolourproject_2stim_asymm_v5,2020.2.10,Win32,60,61025ae37ef11b136ea224fe,,,,,,,,,81,-108.0714007,-22.78580345,1,0,0,response5disk,,2,1.071600829,-8.50008853,1,0,0,rectangle,1.071600829,-8.50008853,1,0,0,1.071600829,-8.50008853,1,0,0,0,69,69,108,1,,,,,,,,
,,,,,,,,,,,,,FF,,,,,,,,1.2831,,,,,,,,,,,,,,,,,,,,,,610050997aff9a6e73bccaad,6103741073908f631258f8ef,2021-07-29_20h58.22.549,Simcolourproject_2stim_asymm_v5,2020.2.10,Win32,60,61025ae37ef11b136ea224fe,,,,,,,,,1550,-22.92840024,-75.92859322,1,0,0,response5disk,,3,4.500172411,3.499912007,1,0,0,rectangle,4.500172411,3.499912007,1,0,0,4.500172411,3.499912007,1,0,0,0,70,70,157,1,,,,,,,,
,,,,,,,,,,,,,FF,,,,,,,,1.2337,,,,,,,,,,,,,,,,,,,,,,610050997aff9a6e73bccaad,6103741073908f631258f8ef,2021-07-29_20h58.22.549,Simcolourproject_2stim_asymm_v5,2020.2.10,Win32,60,61025ae37ef11b136ea224fe,,,,,,,,,278,-52.0713982,65.78569883,1,0,0,response7disk,,0,-1.214113559,8.071410537,1,0,0,rectangle,-1.214113559,8.071410537,1,0,0,-1.214113559,8.071410537,1,0,0,0,71,71,46,1,,,,,,,,
,,,,,,,,,,,,,FF,,,,,,,,1.1005,,,,,,,,,,,,,,,,,,,,,,610050997aff9a6e73bccaad,6103741073908f631258f8ef,2021-07-29_20h58.22.549,Simcolourproject_2stim_asymm_v5,2020.2.10,Win32,60,61025ae37ef11b136ea224fe,,,,,,,,,3007,-94.35711437,45.21419959,1,0,0,response7disk,,1,2.214318514,14.35705535,1,0,0,rectangle,2.214318514,14.35705535,1,0,0,2.214318514,14.35705535,1,0,0,0,72,72,1,1,,,,,,,,
,,,,,,,,,,,,,FF,,,,,,,,1.1002,,,,,,,,,,,,,,,,,,,,,,610050997aff9a6e73bccaad,6103741073908f631258f8ef,2021-07-29_20h58.22.549,Simcolourproject_2stim_asymm_v5,2020.2.10,Win32,60,61025ae37ef11b136ea224fe,,,,,,,,,1853,102.214323,45.21419959,1,0,0,response1disk,,6,5.071601008,2.928553164,1,0,0,rectangle,5.071601008,2.928553164,1,0,0,5.071601008,2.928553164,1,0,0,0,73,73,37,1,,,,,,,,
,,,,,,,,,,,,,FF,,,,,,,,3.7665,,,,,,,,,,,,,,,,,,,,,,610050997aff9a6e73bccaad,6103741073908f631258f8ef,2021-07-29_20h58.22.549,Simcolourproject_2stim_asymm_v5,2020.2.10,Win32,60,61025ae37ef11b136ea224fe,,,,,,,,,479,84.50017599,39.49991362,1,0,0,response1disk,,6,-26.92840042,-5.642945545,1,0,0,rectangle,-26.92840042,-5.642945545,1,0,0,-26.92840042,-5.642945545,1,0,0,0,74,74,83,1,,,,,,,,
,,,,,,,,,,,,,FF,,,,,,,,1.6662,,,,,,,,,,,,,,,,,,,,,,610050997aff9a6e73bccaad,6103741073908f631258f8ef,2021-07-29_20h58.22.549,Simcolourproject_2stim_asymm_v5,2020.2.10,Win32,60,61025ae37ef11b136ea224fe,,,,,,,,,404,41.07160262,90.9285571,1,0,0,response1disk,,7,-9.214113917,-2.78580256,1,0,0,rectangle,-9.214113917,-2.78580256,1,0,0,-9.214113917,-2.78580256,1,0,0,0,75,75,113,1,,,,,,,,
,,,,,,,,,,,,,FF,,,,,,,,2.0666,,,,,,,,,,,,,,,,,,,,,,610050997aff9a6e73bccaad,6103741073908f631258f8ef,2021-07-29_20h58.22.549,Simcolourproject_2stim_asymm_v5,2020.2.10,Win32,60,61025ae37ef11b136ea224fe,,,,,,,,,845,50.21432066,-70.7858056,1,0,0,response3disk,,4,3.357175708,-2.78580256,1,0,0,rectangle,3.357175708,-2.78580256,1,0,0,3.357175708,-2.78580256,1,0,0,0,76,76,60,1,,,,,,,,
,,,,,,,,,,,,,FF,,,,,,,,1.5172,,,,,,,,,,,,,,,,,,,,,,610050997aff9a6e73bccaad,6103741073908f631258f8ef,2021-07-29_20h58.22.549,Simcolourproject_2stim_asymm_v5,2020.2.10,Win32,60,61025ae37ef11b136ea224fe,,,,,,,,,256,-96.07140017,43.49991379,1,0,0,response7disk,,1,0.500172232,6.357054991,1,0,0,rectangle,0.500172232,6.357054991,1,0,0,0.500172232,6.357054991,1,0,0,0,77,77,147,1,,,,,,,,
,,,,,,,,,,,,,FF,,,,,,,,0.9001,,,,,,,,,,,,,,,,,,,,,,610050997aff9a6e73bccaad,6103741073908f631258f8ef,2021-07-29_20h58.22.549,Simcolourproject_2stim_asymm_v5,2020.2.10,Win32,60,61025ae37ef11b136ea224fe,,,,,,,,,1296,-54.92840167,98.92855746,1,0,0,response7disk,,0,-11.4998283,2.357054813,1,0,0,rectangle,-11.4998283,2.357054813,1,0,0,-11.4998283,2.357054813,1,0,0,0,78,78,24,1,,,,,,,,
,,,,,,,,,,,,,FF,,,,,,,,1.8348,,,,,,,,,,,,,,,,,,,,,,610050997aff9a6e73bccaad,6103741073908f631258f8ef,2021-07-29_20h58.22.549,Simcolourproject_2stim_asymm_v5,2020.2.10,Win32,60,61025ae37ef11b136ea224fe,,,,,,,,,782,-44.07139784,-87.35723491,1,0,0,response5disk,,3,2.214318514,0.642838776,1,0,0,rectangle,2.214318514,0.642838776,1,0,0,2.214318514,0.642838776,1,0,0,0,79,79,32,1,,,,,,,,
,,,,,,,,,,,,,FF,,,,,,,,1.5833,,,,,,,,,,,,,,,,,,,,,,610050997aff9a6e73bccaad,6103741073908f631258f8ef,2021-07-29_20h58.22.549,Simcolourproject_2stim_asymm_v5,2020.2.10,Win32,60,61025ae37ef11b136ea224fe,,,,,,,,,2503,51.92860645,-74.78580578,1,0,0,response3disk,,4,-0.071395874,-6.214304388,1,0,0,rectangle,-0.071395874,-6.214304388,1,0,0,-0.071395874,-6.214304388,1,0,0,0,80,80,134,1,,,,,,,,
,,,,,,,,,,,,,FF,,,,,,,,1.6175,,,,,,,,,,,,,,,,,,,,,,610050997aff9a6e73bccaad,6103741073908f631258f8ef,2021-07-29_20h58.22.549,Simcolourproject_2stim_asymm_v5,2020.2.10,Win32,60,61025ae37ef11b136ea224fe,,,,,,,,,698,-53.78568399,-94.21430832,1,0,0,response5disk,,3,-9.785682023,9.785696328,1,0,0,rectangle,-9.785682023,9.785696328,1,0,0,-9.785682023,9.785696328,1,0,0,0,81,81,139,1,,,,,,,,
,,,,,,,,,,,,,FF,,,,,,,,1.0172,,,,,,,,,,,,,,,,,,,,,,610050997aff9a6e73bccaad,6103741073908f631258f8ef,2021-07-29_20h58.22.549,Simcolourproject_2stim_asymm_v5,2020.2.10,Win32,60,61025ae37ef11b136ea224fe,,,,,,,,,305,57.07160333,-22.2143051,1,0,0,response3disk,,5,6.785886799,2.357054813,1,0,0,rectangle,6.785886799,2.357054813,1,0,0,6.785886799,2.357054813,1,0,0,0,82,82,5,1,,,,,,,,
,,,,,,,,,,,,,FF,,,,,,,,1.3332,,,,,,,,,,,,,,,,,,,,,,610050997aff9a6e73bccaad,6103741073908f631258f8ef,2021-07-29_20h58.22.549,Simcolourproject_2stim_asymm_v5,2020.2.10,Win32,60,61025ae37ef11b136ea224fe,,,,,,,,,295,90.78589055,44.07141215,1,0,0,response1disk,,6,-13.7856822,-2.78580256,1,0,0,rectangle,-13.7856822,-2.78580256,1,0,0,-13.7856822,-2.78580256,1,0,0,0,83,83,85,1,,,,,,,,
,,,,,,,,,,,,,FF,,,,,,,,4.0836,,,,,,,,,,,,,,,,,,,,,,610050997aff9a6e73bccaad,6103741073908f631258f8ef,2021-07-29_20h58.22.549,Simcolourproject_2stim_asymm_v5,2020.2.10,Win32,60,61025ae37ef11b136ea224fe,,,,,,,,,1481,-56.07139838,-67.35723402,1,0,0,response5disk,,3,13.64289045,0.071410179,1,0,0,rectangle,13.64289045,0.071410179,1,0,0,13.64289045,0.071410179,1,0,0,0,84,84,90,1,,,,,,,,
,,,,,,,,,,,,,FF,,,,,,,,2.2675,,,,,,,,,,,,,,,,,,,,,,610050997aff9a6e73bccaad,6103741073908f631258f8ef,2021-07-29_20h58.22.549,Simcolourproject_2stim_asymm_v5,2020.2.10,Win32,60,61025ae37ef11b136ea224fe,,,,,,,,,3165,-62.92840203,-42.214306,1,0,0,response5disk,,2,-0.071395874,6.928553343,1,0,0,rectangle,-0.071395874,6.928553343,1,0,0,-0.071395874,6.928553343,1,0,0,0,85,85,97,1,,,,,,,,
,,,,,,,,,,,,,FF,,,,,,,,1.3013,,,,,,,,,,,,,,,,,,,,,,610050997aff9a6e73bccaad,6103741073908f631258f8ef,2021-07-29_20h58.22.549,Simcolourproject_2stim_asymm_v5,2020.2.10,Win32,60,61025ae37ef11b136ea224fe,,,,,,,,,2974,30.21431977,-102.2143087,1,0,0,response3disk,,4,13.64289045,-4.500088351,1,0,0,rectangle,13.64289045,-4.500088351,1,0,0,13.64289045,-4.500088351,1,0,0,0,86,86,59,1,,,,,,,,
,,,,,,,,,,,,,FF,,,,,,,,1.1508,,,,,,,,,,,,,,,,,,,,,,610050997aff9a6e73bccaad,6103741073908f631258f8ef,2021-07-29_20h58.22.549,Simcolourproject_2stim_asymm_v5,2020.2.10,Win32,60,61025ae37ef11b136ea224fe,,,,,,,,,3717,86.21432227,-35.35723259,1,0,0,response3disk,,5,-8.071396232,5.214197797,1,0,0,rectangle,-8.071396232,5.214197797,1,0,0,-8.071396232,5.214197797,1,0,0,0,87,87,129,1,,,,,,,,
,,,,,,,,,,,,,FF,,,,,,,,2.0662,,,,,,,,,,,,,,,,,,,,,,610050997aff9a6e73bccaad,6103741073908f631258f8ef,2021-07-29_20h58.22.549,Simcolourproject_2stim_asymm_v5,2020.2.10,Win32,60,61025ae37ef11b136ea224fe,,,,,,,,,1587,37.64289153,96.07141447,1,0,0,response1disk,,7,15.35717624,-1.642945366,1,0,0,rectangle,15.35717624,-1.642945366,1,0,0,15.35717624,-1.642945366,1,0,0,0,88,88,29,1,,,,,,,,
,,,,,,,,,,,,,FF,,,,,,,,0.8823,,,,,,,,,,,,,,,,,,,,,,610050997aff9a6e73bccaad,6103741073908f631258f8ef,2021-07-29_20h58.22.549,Simcolourproject_2stim_asymm_v5,2020.2.10,Win32,60,61025ae37ef11b136ea224fe,,,,,,,,,800,26.78588769,86.92855692,1,0,0,response1disk,,7,5.071601008,-8.50008853,1,0,0,rectangle,5.071601008,-8.50008853,1,0,0,5.071601008,-8.50008853,1,0,0,0,89,89,122,1,,,,,,,,
,,,,,,,,,,,,,FF,,,,,,,,0.8499,,,,,,,,,,,,,,,,,,,,,,610050997aff9a6e73bccaad,6103741073908f631258f8ef,2021-07-29_20h58.22.549,Simcolourproject_2stim_asymm_v5,2020.2.10,Win32,60,61025ae37ef11b136ea224fe,,,,,,,,,969,-51.4999696,24.64283985,1,0,0,response7disk,,1,3.928604305,3.499912007,1,0,0,rectangle,3.928604305,3.499912007,1,0,0,3.928604305,3.499912007,1,0,0,0,90,90,19,1,,,,,,,,
,,,,,,,,,,,,,FF,,,,,,,,0.6672,,,,,,,,,,,,,,,,,,,,,,610050997aff9a6e73bccaad,6103741073908f631258f8ef,2021-07-29_20h58.22.549,Simcolourproject_2stim_asymm_v5,2020.2.10,Win32,60,61025ae37ef11b136ea224fe,,,,,,,,,3240,77.07160423,-24.50008925,1,0,0,response3disk,,5,9.642890275,1.78569597,1,0,0,rectangle,9.642890275,1.78569597,1,0,0,9.642890275,1.78569597,1,0,0,0,91,91,38,1,,,,,,,,
,,,,,,,,,,,,,FF,,,,,,,,3.4329,,,,,,,,,,,,,,,,,,,,,,610050997aff9a6e73bccaad,6103741073908f631258f8ef,2021-07-29_20h58.22.549,Simcolourproject_2stim_asymm_v5,2020.2.10,Win32,60,61025ae37ef11b136ea224fe,,,,,,,,,2672,-33.7856831,-69.64294841,1,0,0,response5disk,,3,-8.642824829,4.071410358,1,0,0,rectangle,-8.642824829,4.071410358,1,0,0,-8.642824829,4.071410358,1,0,0,0,92,92,66,1,,,,,,,,
,,,,,,,,,,,,,FF,,,,,,,,1.1176,,,,,,,,,,,,,,,,,,,,,,610050997aff9a6e73bccaad,6103741073908f631258f8ef,2021-07-29_20h58.22.549,Simcolourproject_2stim_asymm_v5,2020.2.10,Win32,60,61025ae37ef11b136ea224fe,,,,,,,,,3076,81.64289349,-34.78580399,1,0,0,response3disk,,5,9.071601186,3.499912007,1,0,0,rectangle,9.071601186,3.499912007,1,0,0,9.071601186,3.499912007,1,0,0,0,93,93,110,1,,,,,,,,
,,,,,,,,,,,,,FF,,,,,,,,1.184,,,,,,,,,,,,,,,,,,,,,,610050997aff9a6e73bccaad,6103741073908f631258f8ef,2021-07-29_20h58.22.549,Simcolourproject_2stim_asymm_v5,2020.2.10,Win32,60,61025ae37ef11b136ea224fe,,,,,,,,,1088,82.7858902,45.78569794,1,0,0,response1disk,,6,-18.92840007,-2.214304209,1,0,0,rectangle,-18.92840007,-2.214304209,1,0,0,-18.92840007,-2.214304209,1,0,0,0,94,94,153,1,,,,,,,,
,,,,,,,,,,,,,FF,,,,,,,,2.0176,,,,,,,,,,,,,,,,,,,,,,610050997aff9a6e73bccaad,6103741073908f631258f8ef,2021-07-29_20h58.22.549,Simcolourproject_2stim_asymm_v5,2020.2.10,Win32,60,61025ae37ef11b136ea224fe,,,,,,,,,1459,-55.49996978,-102.7858419,1,0,0,response5disk,,3,-8.071396232,5.785696149,1,0,0,rectangle,-8.071396232,5.785696149,1,0,0,-8.071396232,5.785696149,1,0,0,0,95,95,22,1,,,,,,,,
,,,,,,,,,,,,,FF,,,,,,,,6.2399,,,,,,,,,,,,,,,,,,,,,,610050997aff9a6e73bccaad,6103741073908f631258f8ef,2021-07-29_20h58.22.549,Simcolourproject_2stim_asymm_v5,2020.2.10,Win32,60,61025ae37ef11b136ea224fe,,,,,,,,,3827,22.78588751,-90.21430814,1,0,0,response3disk,,4,-7.499828126,0.071410179,1,0,0,rectangle,-7.499828126,0.071410179,1,0,0,-7.499828126,0.071410179,1,0,0,0,96,96,114,1,,,,,,,,
,,,,,,,,,,,,,FF,,,,,,,,2.0834,,,,,,,,,,,,,,,,,,,,,,610050997aff9a6e73bccaad,6103741073908f631258f8ef,2021-07-29_20h58.22.549,Simcolourproject_2stim_asymm_v5,2020.2.10,Win32,60,61025ae37ef11b136ea224fe,,,,,,,,,2129,85.07160458,-23.3571623,1,0,0,response3disk,,5,-18.35711098,6.357054991,1,0,0,rectangle,-18.35711098,6.357054991,1,0,0,-18.35711098,6.357054991,1,0,0,0,97,97,15,1,,,,,,,,
,,,,,,,,,,,,,FF,,,,,,,,0.9163,,,,,,,,,,,,,,,,,,,,,,610050997aff9a6e73bccaad,6103741073908f631258f8ef,2021-07-29_20h58.22.549,Simcolourproject_2stim_asymm_v5,2020.2.10,Win32,60,61025ae37ef11b136ea224fe,,,,,,,,,1343,89.07160476,49.78569812,1,0,0,response1disk,,6,-6.928399529,1.214197619,1,0,0,rectangle,-6.928399529,1.214197619,1,0,0,-6.928399529,1.214197619,1,0,0,0,98,98,94,1,,,,,,,,
,,,,,,,,,,,,,FF,,,,,,,,1.1169,,,,,,,,,,,,,,,,,,,,,,610050997aff9a6e73bccaad,6103741073908f631258f8ef,2021-07-29_20h58.22.549,Simcolourproject_2stim_asymm_v5,2020.2.10,Win32,60,61025ae37ef11b136ea224fe,,,,,,,,,2130,70.78588966,87.49998552,1,0,0,response1disk,,7,13.07160137,-3.92859,1,0,0,rectangle,13.07160137,-3.92859,1,0,0,13.07160137,-3.92859,1,0,0,0,99,99,82,1,,,,,,,,
,,,,,,,,,,,,,FF,,,,,,,,1.1004,,,,,,,,,,,,,,,,,,,,,,610050997aff9a6e73bccaad,6103741073908f631258f8ef,2021-07-29_20h58.22.549,Simcolourproject_2stim_asymm_v5,2020.2.10,Win32,60,61025ae37ef11b136ea224fe,,,,,,,,,2077,90.21432245,44.64284074,1,0,0,response1disk,,6,19.35717642,6.928553343,1,0,0,rectangle,19.35717642,6.928553343,1,0,0,19.35717642,6.928553343,1,0,0,0,100,100,150,1,,,,,,,,
,,,,,,,,,,,,,FF,,,,,,,,1.1333,,,,,,,,,,,,,,,,,,,,,,610050997aff9a6e73bccaad,6103741073908f631258f8ef,2021-07-29_20h58.22.549,Simcolourproject_2stim_asymm_v5,2020.2.10,Win32,60,61025ae37ef11b136ea224fe,,,,,,,,,1453,-81.78568524,25.78569704,1,0,0,response7disk,,1,-3.499827947,-4.500088351,1,0,0,rectangle,-3.499827947,-4.500088351,1,0,0,-3.499827947,-4.500088351,1,0,0,0,101,101,30,1,,,,,,,,
,,,,,,,,,,,,,FF,,,,,,,,0.6835,,,,,,,,,,,,,,,,,,,,,,610050997aff9a6e73bccaad,6103741073908f631258f8ef,2021-07-29_20h58.22.549,Simcolourproject_2stim_asymm_v5,2020.2.10,Win32,60,61025ae37ef11b136ea224fe,,,,,,,,,2498,81.07160441,-34.21430564,1,0,0,response3disk,,5,3.928604305,-11.92859036,1,0,0,rectangle,96.50017652,48.64284092,1,0,0,15.35717624,5.785696149,1,0,0,0,102,102,42,1,,response1disk_3,TRUE,6,6,"[206,321,15,103,3,0,174,149,13,146,237,320,315,164,218,321,194,24,245,259]",2.4514,rectangle
,,,,,,,,,,,,,FF,,,,,,,,1.1675,,,,,,,,,,,,,,,,,,,,,,610050997aff9a6e73bccaad,6103741073908f631258f8ef,2021-07-29_20h58.22.549,Simcolourproject_2stim_asymm_v5,2020.2.10,Win32,60,61025ae37ef11b136ea224fe,,,,,,,,,3153,-81.78568524,-33.6429468,1,0,0,response5disk,,2,7.928604484,4.642838955,1,0,0,rectangle,7.928604484,4.642838955,1,0,0,7.928604484,4.642838955,1,0,0,0,103,103,53,1,,,,,,,,
,,,,,,,,,,,,,FF,,,,,,,,2.2662,,,,,,,,,,,,,,,,,,,,,,610050997aff9a6e73bccaad,6103741073908f631258f8ef,2021-07-29_20h58.22.549,Simcolourproject_2stim_asymm_v5,2020.2.10,Win32,60,61025ae37ef11b136ea224fe,,,,,,,,,3371,-45.78568363,-70.7858056,1,0,0,response5disk,,3,5.071601008,13.78569651,1,0,0,rectangle,5.071601008,13.78569651,1,0,0,5.071601008,13.78569651,1,0,0,0,104,104,125,1,,,,,,,,
,,,,,,,,,,,,,FF,,,,,,,,1.9334,,,,,,,,,,,,,,,,,,,,,,610050997aff9a6e73bccaad,6103741073908f631258f8ef,2021-07-29_20h58.22.549,Simcolourproject_2stim_asymm_v5,2020.2.10,Win32,60,61025ae37ef11b136ea224fe,,,,,,,,,3102,-28.07139713,-87.92859375,1,0,0,response5disk,,3,17.64289063,9.214197976,1,0,0,rectangle,17.64289063,9.214197976,1,0,0,17.64289063,9.214197976,1,0,0,0,105,105,20,1,,,,,,,,
,,,,,,,,,,,,,FF,,,,,,,,6.1326,,,,,,,,,,,,,,,,,,,,,,610050997aff9a6e73bccaad,6103741073908f631258f8ef,2021-07-29_20h58.22.549,Simcolourproject_2stim_asymm_v5,2020.2.10,Win32,60,61025ae37ef11b136ea224fe,,,,,,,,,1950,-33.7856831,-78.21430761,1,0,0,response5disk,,3,-6.357110441,-3.92859,1,0,0,rectangle,-6.357110441,-3.92859,1,0,0,-6.357110441,-3.92859,1,0,0,0,106,106,124,1,,,,,,,,
,,,,,,,,,,,,,FF,,,,,,,,1.4664,,,,,,,,,,,,,,,,,,,,,,610050997aff9a6e73bccaad,6103741073908f631258f8ef,2021-07-29_20h58.22.549,Simcolourproject_2stim_asymm_v5,2020.2.10,Win32,60,61025ae37ef11b136ea224fe,,,,,,,,,464,30.21431977,-57.64294787,1,0,0,response3disk,,4,2.78588662,-2.78580256,1,0,0,rectangle,2.78588662,-2.78580256,1,0,0,2.78588662,-2.78580256,1,0,0,0,107,107,70,1,,,,,,,,
,,,,,,,,,,,,,FF,,,,,,,,1.0334,,,,,,,,,,,,,,,,,,,,,,610050997aff9a6e73bccaad,6103741073908f631258f8ef,2021-07-29_20h58.22.549,Simcolourproject_2stim_asymm_v5,2020.2.10,Win32,60,61025ae37ef11b136ea224fe,,,,,,,,,363,70.21432155,23.4999129,1,0,0,response1disk,,6,7.928604484,1.214197619,1,0,0,rectangle,7.928604484,1.214197619,1,0,0,7.928604484,1.214197619,1,0,0,0,108,108,73,1,,,,,,,,
,,,,,,,,,,,,,FF,,,,,,,,1.2502,,,,,,,,,,,,,,,,,,,,,,610050997aff9a6e73bccaad,6103741073908f631258f8ef,2021-07-29_20h58.22.549,Simcolourproject_2stim_asymm_v5,2020.2.10,Win32,60,61025ae37ef11b136ea224fe,,,,,,,,,1907,-58.35711277,-82.78580614,1,0,0,response5disk,,3,-1.785681665,0.071410179,1,0,0,rectangle,-1.785681665,0.071410179,1,0,0,-1.785681665,0.071410179,1,0,0,0,109,109,81,1,,,,,,,,
,,,,,,,,,,,,,FF,,,,,,,,1.2993,,,,,,,,,,,,,,,,,,,,,,610050997aff9a6e73bccaad,6103741073908f631258f8ef,2021-07-29_20h58.22.549,Simcolourproject_2stim_asymm_v5,2020.2.10,Win32,60,61025ae37ef11b136ea224fe,,,,,,,,,2208,63.92860699,-33.6429468,1,0,0,response3disk,,5,29.64289117,-9.642945724,1,0,0,rectangle,29.64289117,-9.642945724,1,0,0,29.64289117,-9.642945724,1,0,0,0,110,110,87,1,,,,,,,,
,,,,,,,,,,,,,FF,,,,,,,,1.5671,,,,,,,,,,,,,,,,,,,,,,610050997aff9a6e73bccaad,6103741073908f631258f8ef,2021-07-29_20h58.22.549,Simcolourproject_2stim_asymm_v5,2020.2.10,Win32,60,61025ae37ef11b136ea224fe,,,,,,,,,272,33.07160226,-22.2143051,1,0,0,response3disk,,5,1.642889917,2.928553164,1,0,0,rectangle,1.642889917,2.928553164,1,0,0,1.642889917,2.928553164,1,0,0,0,111,111,77,1,,,,,,,,
,,,,,,,,,,,,,FF,,,,,,,,3.5833,,,,,,,,,,,,,,,,,,,,,,610050997aff9a6e73bccaad,6103741073908f631258f8ef,2021-07-29_20h58.22.549,Simcolourproject_2stim_asymm_v5,2020.2.10,Win32,60,61025ae37ef11b136ea224fe,,,,,,,,,1176,81.64289349,-39.35723277,1,0,0,response3disk,,5,3.357175708,-4.500088351,1,0,0,rectangle,3.357175708,-4.500088351,1,0,0,3.357175708,-4.500088351,1,0,0,0,112,112,128,1,,,,,,,,
,,,,,,,,,,,,,FF,,,,,,,,2.1166,,,,,,,,,,,,,,,,,,,,,,610050997aff9a6e73bccaad,6103741073908f631258f8ef,2021-07-29_20h58.22.549,Simcolourproject_2stim_asymm_v5,2020.2.10,Win32,60,61025ae37ef11b136ea224fe,,,,,,,,,3868,-25.21411463,-59.9285925,1,0,0,response5disk,,3,-0.642824471,-1.642945366,1,0,0,rectangle,-0.642824471,-1.642945366,1,0,0,-0.642824471,-1.642945366,1,0,0,0,113,113,68,1,,,,,,,,
,,,,,,,,,,,,,FF,,,,,,,,1.8002,,,,,,,,,,,,,,,,,,,,,,610050997aff9a6e73bccaad,6103741073908f631258f8ef,2021-07-29_20h58.22.549,Simcolourproject_2stim_asymm_v5,2020.2.10,Win32,60,61025ae37ef11b136ea224fe,,,,,,,,,2415,-55.49996978,-93.64294948,1,0,0,response5disk,,3,-3.499827947,4.642838955,1,0,0,rectangle,-3.499827947,4.642838955,1,0,0,-3.499827947,4.642838955,1,0,0,0,114,114,4,1,,,,,,,,
,,,,,,,,,,,,,FF,,,,,,,,7.2342,,,,,,,,,,,,,,,,,,,,,,610050997aff9a6e73bccaad,6103741073908f631258f8ef,2021-07-29_20h58.22.549,Simcolourproject_2stim_asymm_v5,2020.2.10,Win32,60,61025ae37ef11b136ea224fe,,,,,,,,,298,57.64289242,-85.64294912,1,0,0,response3disk,,4,10.78588698,-2.214304209,1,0,0,rectangle,10.78588698,-2.214304209,1,0,0,10.78588698,-2.214304209,1,0,0,0,115,115,34,1,,,,,,,,
,,,,,,,,,,,,,FF,,,,,,,,1.1837,,,,,,,,,,,,,,,,,,,,,,610050997aff9a6e73bccaad,6103741073908f631258f8ef,2021-07-29_20h58.22.549,Simcolourproject_2stim_asymm_v5,2020.2.10,Win32,60,61025ae37ef11b136ea224fe,,,,,,,,,3265,75.92860752,-45.07144898,1,0,0,response3disk,,5,-15.49982848,8.071410537,1,0,0,rectangle,-15.49982848,8.071410537,1,0,0,-15.49982848,8.071410537,1,0,0,0,116,116,89,1,,,,,,,,
,,,,,,,,,,,,,FF,,,,,,,,0.8017,,,,,,,,,,,,,,,,,,,,,,610050997aff9a6e73bccaad,6103741073908f631258f8ef,2021-07-29_20h58.22.549,Simcolourproject_2stim_asymm_v5,2020.2.10,Win32,60,61025ae37ef11b136ea224fe,,,,,,,,,4260,83.92860788,24.07141125,1,0,0,response1disk,,6,15.35717624,4.071410358,1,0,0,rectangle,15.35717624,4.071410358,1,0,0,15.35717624,4.071410358,1,0,0,0,117,117,74,1,,,,,,,,
,,,,,,,,,,,,,FF,,,,,,,,1.5837,,,,,,,,,,,,,,,,,,,,,,610050997aff9a6e73bccaad,6103741073908f631258f8ef,2021-07-29_20h58.22.549,Simcolourproject_2stim_asymm_v5,2020.2.10,Win32,60,61025ae37ef11b136ea224fe,,,,,,,,,1191,-61.21411624,-87.35723491,1,0,0,response5disk,,3,-5.785681844,4.642838955,1,0,0,rectangle,-5.785681844,4.642838955,1,0,0,-5.785681844,4.642838955,1,0,0,0,118,118,44,1,,,,,,,,
,,,,,,,,,,,,,FF,,,,,,,,1.3508,,,,,,,,,,,,,,,,,,,,,,610050997aff9a6e73bccaad,6103741073908f631258f8ef,2021-07-29_20h58.22.549,Simcolourproject_2stim_asymm_v5,2020.2.10,Win32,60,61025ae37ef11b136ea224fe,,,,,,,,,3573,94.21432263,-42.214306,1,0,0,response3disk,,5,-6.928399529,1.78569597,1,0,0,rectangle,-6.928399529,1.78569597,1,0,0,-6.928399529,1.78569597,1,0,0,0,119,119,159,1,,,,,,,,
,,,,,,,,,,,,,FF,,,,,,,,2.1845,,,,,,,,,,,,,,,,,,,,,,610050997aff9a6e73bccaad,6103741073908f631258f8ef,2021-07-29_20h58.22.549,Simcolourproject_2stim_asymm_v5,2020.2.10,Win32,60,61025ae37ef11b136ea224fe,,,,,,,,,3328,108.5001771,36.07141179,1,0,0,response1disk,,6,11.92860466,1.78569597,1,0,0,rectangle,11.92860466,1.78569597,1,0,0,11.92860466,1.78569597,1,0,0,0,120,120,13,1,,,,,,,,
,,,,,,,,,,,,,FF,,,,,,,,2.0164,,,,,,,,,,,,,,,,,,,,,,610050997aff9a6e73bccaad,6103741073908f631258f8ef,2021-07-29_20h58.22.549,Simcolourproject_2stim_asymm_v5,2020.2.10,Win32,60,61025ae37ef11b136ea224fe,,,,,,,,,941,67.35717857,-93.07145113,1,0,0,response3disk,,4,-2.357110262,-9.642945724,1,0,0,rectangle,-2.357110262,-9.642945724,1,0,0,-2.357110262,-9.642945724,1,0,0,0,121,121,65,1,,,,,,,,
,,,,,,,,,,,,,FF,,,,,,,,0.8668,,,,,,,,,,,,,,,,,,,,,,610050997aff9a6e73bccaad,6103741073908f631258f8ef,2021-07-29_20h58.22.549,Simcolourproject_2stim_asymm_v5,2020.2.10,Win32,60,61025ae37ef11b136ea224fe,,,,,,,,,1992,95.92860842,-26.78580363,1,0,0,response3disk,,5,-4.071396053,-0.500088172,1,0,0,rectangle,-4.071396053,-0.500088172,1,0,0,-4.071396053,-0.500088172,1,0,0,0,122,122,101,1,,,,,,,,
,,,,,,,,,,,,,FF,,,,,,,,0.9334,,,,,,,,,,,,,,,,,,,,,,610050997aff9a6e73bccaad,6103741073908f631258f8ef,2021-07-29_20h58.22.549,Simcolourproject_2stim_asymm_v5,2020.2.10,Win32,60,61025ae37ef11b136ea224fe,,,,,,,,,3385,-85.78568542,-51.92859215,1,0,0,response5disk,,2,-10.92839971,1.78569597,1,0,0,rectangle,-10.92839971,1.78569597,1,0,0,-10.92839971,1.78569597,1,0,0,0,123,123,10,1,,,,,,,,
,,,,,,,,,,,,,FF,,,,,,,,3.7992,,,,,,,,,,,,,,,,,,,,,,610050997aff9a6e73bccaad,6103741073908f631258f8ef,2021-07-29_20h58.22.549,Simcolourproject_2stim_asymm_v5,2020.2.10,Win32,60,61025ae37ef11b136ea224fe,,,,,,,,,3647,95.92860842,-41.64294715,1,0,0,response3disk,,5,-16.64282519,-3.92859,1,0,0,rectangle,-16.64282519,-3.92859,1,0,0,-16.64282519,-3.92859,1,0,0,0,124,124,88,1,,,,,,,,
,,,,,,,,,,,,,FF,,,,,,,,1.4672,,,,,,,,,,,,,,,,,,,,,,610050997aff9a6e73bccaad,6103741073908f631258f8ef,2021-07-29_20h58.22.549,Simcolourproject_2stim_asymm_v5,2020.2.10,Win32,60,61025ae37ef11b136ea224fe,,,,,,,,,3394,51.35717785,-99.35723545,1,0,0,response3disk,,4,-1.785681665,-1.071447015,1,0,0,rectangle,-1.785681665,-1.071447015,1,0,0,-1.785681665,-1.071447015,1,0,0,0,125,125,135,1,,,,,,,,
,,,,,,,,,,,,,FF,,,,,,,,0.7669,,,,,,,,,,,,,,,,,,,,,,610050997aff9a6e73bccaad,6103741073908f631258f8ef,2021-07-29_20h58.22.549,Simcolourproject_2stim_asymm_v5,2020.2.10,Win32,60,61025ae37ef11b136ea224fe,,,,,,,,,3126,86.21432227,36.64284039,1,0,0,response1disk,,6,16.50017295,-0.500088172,1,0,0,rectangle,16.50017295,-0.500088172,1,0,0,16.50017295,-0.500088172,1,0,0,0,126,126,119,1,,,,,,,,
,,,,,,,,,,,,,FF,,,,,,,,1.3169,,,,,,,,,,,,,,,,,,,,,,610050997aff9a6e73bccaad,6103741073908f631258f8ef,2021-07-29_20h58.22.549,Simcolourproject_2stim_asymm_v5,2020.2.10,Win32,60,61025ae37ef11b136ea224fe,,,,,,,,,3879,-24.07139695,-83.35723473,1,0,0,response5disk,,3,1.071600829,-11.35716176,1,0,0,rectangle,1.071600829,-11.35716176,1,0,0,1.071600829,-11.35716176,1,0,0,0,127,127,112,1,,,,,,,,
,,,,,,,,,,,,,FF,,,,,,,,0.9508,,,,,,,,,,,,,,,,,,,,,,610050997aff9a6e73bccaad,6103741073908f631258f8ef,2021-07-29_20h58.22.549,Simcolourproject_2stim_asymm_v5,2020.2.10,Win32,60,61025ae37ef11b136ea224fe,,,,,,,,,2349,60.50017491,101.2142021,1,0,0,response1disk,,7,-5.214113738,-1.071447015,1,0,0,rectangle,-5.214113738,-1.071447015,1,0,0,-5.214113738,-1.071447015,1,0,0,0,128,128,103,1,,,,,,,,
,,,,,,,,,,,,,FF,,,,,,,,1.5424,,,,,,,,,,,,,,,,,,,,,,610050997aff9a6e73bccaad,6103741073908f631258f8ef,2021-07-29_20h58.22.549,Simcolourproject_2stim_asymm_v5,2020.2.10,Win32,60,61025ae37ef11b136ea224fe,,,,,,,,,3430,61.6428926,-79.9285934,1,0,0,response3disk,,4,31.92860556,-4.500088351,1,0,0,rectangle,31.92860556,-4.500088351,1,0,0,31.92860556,-4.500088351,1,0,0,0,129,129,31,1,,,,,,,,
,,,,,,,,,,,,,FF,,,,,,,,1.6827,,,,,,,,,,,,,,,,,,,,,,610050997aff9a6e73bccaad,6103741073908f631258f8ef,2021-07-29_20h58.22.549,Simcolourproject_2stim_asymm_v5,2020.2.10,Win32,60,61025ae37ef11b136ea224fe,,,,,,,,,1619,62.2143212,-35.35723259,1,0,0,response3disk,,5,-11.4998283,-15.35716194,1,0,0,rectangle,-11.4998283,-15.35716194,1,0,0,-11.4998283,-15.35716194,1,0,0,0,130,130,116,1,,,,,,,,
,,,,,,,,,,,,,FF,,,,,,,,0.8669,,,,,,,,,,,,,,,,,,,,,,610050997aff9a6e73bccaad,6103741073908f631258f8ef,2021-07-29_20h58.22.549,Simcolourproject_2stim_asymm_v5,2020.2.10,Win32,60,61025ae37ef11b136ea224fe,,,,,,,,,2474,94.21432263,34.92855459,1,0,0,response1disk,,6,11.35717607,-1.642945366,1,0,0,rectangle,11.35717607,-1.642945366,1,0,0,11.35717607,-1.642945366,1,0,0,0,131,131,136,1,,,,,,,,
,,,,,,,,,,,,,FF,,,,,,,,2.0337,,,,,,,,,,,,,,,,,,,,,,610050997aff9a6e73bccaad,6103741073908f631258f8ef,2021-07-29_20h58.22.549,Simcolourproject_2stim_asymm_v5,2020.2.10,Win32,60,61025ae37ef11b136ea224fe,,,,,,,,,3273,54.21432084,100.6428432,1,0,0,response1disk,,7,5.071601008,-6.785802739,1,0,0,rectangle,5.071601008,-6.785802739,1,0,0,5.071601008,-6.785802739,1,0,0,0,132,132,96,1,,,,,,,,
,,,,,,,,,,,,,FF,,,,,,,,1.1502,,,,,,,,,,,,,,,,,,,,,,610050997aff9a6e73bccaad,6103741073908f631258f8ef,2021-07-29_20h58.22.549,Simcolourproject_2stim_asymm_v5,2020.2.10,Win32,60,61025ae37ef11b136ea224fe,,,,,,,,,2020,73.07160405,-38.78580417,1,0,0,response3disk,,5,11.92860466,9.785696328,1,0,0,rectangle,11.92860466,9.785696328,1,0,0,11.92860466,9.785696328,1,0,0,0,133,133,26,1,,,,,,,,
,,,,,,,,,,,,,FF,,,,,,,,0.8667,,,,,,,,,,,,,,,,,,,,,,610050997aff9a6e73bccaad,6103741073908f631258f8ef,2021-07-29_20h58.22.549,Simcolourproject_2stim_asymm_v5,2020.2.10,Win32,60,61025ae37ef11b136ea224fe,,,,,,,,,74,-46.35711223,-104.5000231,1,0,0,response5disk,,3,4.500172411,10.92855352,1,0,0,rectangle,4.500172411,10.92855352,1,0,0,4.500172411,10.92855352,1,0,0,0,134,134,41,1,,,,,,,,
,,,,,,,,,,,,,FF,,,,,,,,1.5004,,,,,,,,,,,,,,,,,,,,,,610050997aff9a6e73bccaad,6103741073908f631258f8ef,2021-07-29_20h58.22.549,Simcolourproject_2stim_asymm_v5,2020.2.10,Win32,60,61025ae37ef11b136ea224fe,,,,,,,,,1285,-32.0713973,-101.6429498,1,0,0,response5disk,,3,-2.357110262,-15.35716194,1,0,0,rectangle,-2.357110262,-15.35716194,1,0,0,-2.357110262,-15.35716194,1,0,0,0,135,135,123,1,,,,,,,,
,,,,,,,,,,,,,FF,,,,,,,,2.6768,,,,,,,,,,,,,,,,,,,,,,610050997aff9a6e73bccaad,6103741073908f631258f8ef,2021-07-29_20h58.22.549,Simcolourproject_2stim_asymm_v5,2020.2.10,Win32,60,61025ae37ef11b136ea224fe,,,,,,,,,2033,-56.07139838,28.07141143,1,0,0,response7disk,,1,-4.071396053,2.928553164,1,0,0,rectangle,-4.071396053,2.928553164,1,0,0,-4.071396053,2.928553164,1,0,0,0,136,136,137,1,,,,,,,,
,,,,,,,,,,,,,FF,,,,,,,,1.8333,,,,,,,,,,,,,,,,,,,,,,610050997aff9a6e73bccaad,6103741073908f631258f8ef,2021-07-29_20h58.22.549,Simcolourproject_2stim_asymm_v5,2020.2.10,Win32,60,61025ae37ef11b136ea224fe,,,,,,,,,551,-90.92840328,-24.50008925,1,0,0,response5disk,,2,14.78588716,-2.214304209,1,0,0,rectangle,14.78588716,-2.214304209,1,0,0,14.78588716,-2.214304209,1,0,0,0,137,137,141,1,,,,,,,,
,,,,,,,,,,,,,FF,,,,,,,,2.483,,,,,,,,,,,,,,,,,,,,,,610050997aff9a6e73bccaad,6103741073908f631258f8ef,2021-07-29_20h58.22.549,Simcolourproject_2stim_asymm_v5,2020.2.10,Win32,60,61025ae37ef11b136ea224fe,,,,,,,,,3683,-103.4999719,30.92855442,1,0,0,response7disk,,1,-4.64282465,-0.500088172,1,0,0,rectangle,-4.64282465,-0.500088172,1,0,0,-4.64282465,-0.500088172,1,0,0,0,138,138,35,1,,,,,,,,
,,,,,,,,,,,,,FF,,,,,,,,3.1002,,,,,,,,,,,,,,,,,,,,,,610050997aff9a6e73bccaad,6103741073908f631258f8ef,2021-07-29_20h58.22.549,Simcolourproject_2stim_asymm_v5,2020.2.10,Win32,60,61025ae37ef11b136ea224fe,,,,,,,,,2683,-32.6428259,-69.64294841,1,0,0,response5disk,,3,11.92860466,2.357054813,1,0,0,rectangle,11.92860466,2.357054813,1,0,0,11.92860466,2.357054813,1,0,0,0,139,139,18,1,,,,,,,,
,,,,,,,,,,,,,FF,,,,,,,,13.4317,,,,,,,,,,,,,,,,,,,,,,610050997aff9a6e73bccaad,6103741073908f631258f8ef,2021-07-29_20h58.22.549,Simcolourproject_2stim_asymm_v5,2020.2.10,Win32,60,61025ae37ef11b136ea224fe,,,,,,,,,3606,-37.78568327,-82.78580614,1,0,0,response5disk,,3,5.071601008,3.499912007,1,0,0,rectangle,5.071601008,3.499912007,1,0,0,5.071601008,3.499912007,1,0,0,0,140,140,27,1,,,,,,,,
,,,,,,,,,,,,,FF,,,,,,,,10.3831,,,,,,,,,,,,,,,,,,,,,,610050997aff9a6e73bccaad,6103741073908f631258f8ef,2021-07-29_20h58.22.549,Simcolourproject_2stim_asymm_v5,2020.2.10,Win32,60,61025ae37ef11b136ea224fe,,,,,,,,,2807,74.21432173,-57.64294787,1,0,0,response3disk,,5,-15.49982848,-2.214304209,1,0,0,rectangle,-15.49982848,-2.214304209,1,0,0,-15.49982848,-2.214304209,1,0,0,0,141,141,145,1,,,,,,,,
,,,,,,,,,,,,,FF,,,,,,,,1.3007,,,,,,,,,,,,,,,,,,,,,,610050997aff9a6e73bccaad,6103741073908f631258f8ef,2021-07-29_20h58.22.549,Simcolourproject_2stim_asymm_v5,2020.2.10,Win32,60,61025ae37ef11b136ea224fe,,,,,,,,,753,-34.92840078,-62.21430689,1,0,0,response5disk,,3,3.357175708,-3.357161403,1,0,0,rectangle,3.357175708,-3.357161403,1,0,0,3.357175708,-3.357161403,1,0,0,0,142,142,2,1,,,,,,,,
,,,,,,,,,,,,,FF,,,,,,,,1.7172,,,,,,,,,,,,,,,,,,,,,,610050997aff9a6e73bccaad,6103741073908f631258f8ef,2021-07-29_20h58.22.549,Simcolourproject_2stim_asymm_v5,2020.2.10,Win32,60,61025ae37ef11b136ea224fe,,,,,,,,,3899,34.78588805,-67.35723402,1,0,0,response3disk,,4,15.35717624,-7.357161582,1,0,0,rectangle,15.35717624,-7.357161582,1,0,0,15.35717624,-7.357161582,1,0,0,0,143,143,143,1,,,,,,,,
,,,,,,,,,,,,,FF,,,,,,,,1.2501,,,,,,,,,,,,,,,,,,,,,,610050997aff9a6e73bccaad,6103741073908f631258f8ef,2021-07-29_20h58.22.549,Simcolourproject_2stim_asymm_v5,2020.2.10,Win32,60,61025ae37ef11b136ea224fe,,,,,,,,,3088,-67.49997032,22.92855406,1,0,0,response7disk,,1,-26.35711133,1.78569597,1,0,0,rectangle,-26.35711133,1.78569597,1,0,0,-26.35711133,1.78569597,1,0,0,0,144,144,54,1,,,,,,,,
,,,,,,,,,,,,,FF,,,,,,,,0.9668,,,,,,,,,,,,,,,,,,,,,,610050997aff9a6e73bccaad,6103741073908f631258f8ef,2021-07-29_20h58.22.549,Simcolourproject_2stim_asymm_v5,2020.2.10,Win32,60,61025ae37ef11b136ea224fe,,,,,,,,,3758,-69.2141166,-25.07144809,1,0,0,response5disk,,2,6.785886799,-1.642945366,1,0,0,rectangle,118.2143237,57.78569847,1,0,0,-12.64282501,-11.92859036,1,0,0,0,145,145,12,1,,response1disk_3,TRUE,6,6,"[206,321,15,103,3,0,174,149,13,146,237,320,315,164,218,321,194,24,245,259]",1.5511,rectangle
,,,,,,,,,,,,,FF,,,,,,,,1.5997,,,,,,,,,,,,,,,,,,,,,,610050997aff9a6e73bccaad,6103741073908f631258f8ef,2021-07-29_20h58.22.549,Simcolourproject_2stim_asymm_v5,2020.2.10,Win32,60,61025ae37ef11b136ea224fe,,,,,,,,,3516,-67.49997032,-37.07144862,1,0,0,response5disk,,2,-6.928399529,2.357054813,1,0,0,rectangle,-6.928399529,2.357054813,1,0,0,-6.928399529,2.357054813,1,0,0,0,146,146,93,1,,,,,,,,
,,,,,,,,,,,,,FF,,,,,,,,0.6992,,,,,,,,,,,,,,,,,,,,,,610050997aff9a6e73bccaad,6103741073908f631258f8ef,2021-07-29_20h58.22.549,Simcolourproject_2stim_asymm_v5,2020.2.10,Win32,60,61025ae37ef11b136ea224fe,,,,,,,,,509,-34.35711169,-62.21430689,1,0,0,response5disk,,3,-1.214113559,-5.642945545,1,0,0,rectangle,-1.214113559,-5.642945545,1,0,0,-1.214113559,-5.642945545,1,0,0,0,147,147,72,1,,,,,,,,
,,,,,,,,,,,,,FF,,,,,,,,0.9502,,,,,,,,,,,,,,,,,,,,,,610050997aff9a6e73bccaad,6103741073908f631258f8ef,2021-07-29_20h58.22.549,Simcolourproject_2stim_asymm_v5,2020.2.10,Win32,60,61025ae37ef11b136ea224fe,,,,,,,,,3645,22.21431941,-46.78580453,1,0,0,response3disk,,4,15.35717624,3.499912007,1,0,0,rectangle,-71.4999705,-38.78580417,1,0,0,-2.357110262,6.357054991,1,0,0,0,148,148,149,1,,response5disk_3,TRUE,2,2,"[206,321,15,103,3,0,174,149,13,146,237,320,315,164,218,321,194,24,245,259]",5.75,rectangle
,,,,,,,,,,,,,FF,,,,,,,,1.0838,,,,,,,,,,,,,,,,,,,,,,610050997aff9a6e73bccaad,6103741073908f631258f8ef,2021-07-29_20h58.22.549,Simcolourproject_2stim_asymm_v5,2020.2.10,Win32,60,61025ae37ef11b136ea224fe,,,,,,,,,1433,-28.64282572,-69.64294841,1,0,0,response5disk,,3,14.21431905,3.499912007,1,0,0,rectangle,14.21431905,3.499912007,1,0,0,14.21431905,3.499912007,1,0,0,0,149,149,140,1,,,,,,,,
,,,,,,,,,,,,,FF,,,,,,,,0.9335,,,,,,,,,,,,,,,,,,,,,,610050997aff9a6e73bccaad,6103741073908f631258f8ef,2021-07-29_20h58.22.549,Simcolourproject_2stim_asymm_v5,2020.2.10,Win32,60,61025ae37ef11b136ea224fe,,,,,,,,,3452,-36.64282608,-55.35723348,1,0,0,response5disk,,3,-11.4998283,-7.357161582,1,0,0,rectangle,-11.4998283,-7.357161582,1,0,0,-11.4998283,-7.357161582,1,0,0,0,150,150,43,1,,,,,,,,
,,,,,,,,,,,,,FF,,,,,,,,1.1001,,,,,,,,,,,,,,,,,,,,,,610050997aff9a6e73bccaad,6103741073908f631258f8ef,2021-07-29_20h58.22.549,Simcolourproject_2stim_asymm_v5,2020.2.10,Win32,60,61025ae37ef11b136ea224fe,,,,,,,,,2450,75.92860752,-21.07144791,1,0,0,response3disk,,5,10.21431887,0.642838776,1,0,0,rectangle,10.21431887,0.642838776,1,0,0,10.21431887,0.642838776,1,0,0,0,151,151,146,1,,,,,,,,
,,,,,,,,,,,,,FF,,,,,,,,0.9669,,,,,,,,,,,,,,,,,,,,,,610050997aff9a6e73bccaad,6103741073908f631258f8ef,2021-07-29_20h58.22.549,Simcolourproject_2stim_asymm_v5,2020.2.10,Win32,60,61025ae37ef11b136ea224fe,,,,,,,,,1337,95.35717982,36.64284039,1,0,0,response1disk,,6,-20.64282537,-10.21430457,1,0,0,rectangle,-20.64282537,-10.21430457,1,0,0,-20.64282537,-10.21430457,1,0,0,0,152,152,130,1,,,,,,,,
,,,,,,,,,,,,,FF,,,,,,,,3.3337,,,,,,,,,,,,,,,,,,,,,,610050997aff9a6e73bccaad,6103741073908f631258f8ef,2021-07-29_20h58.22.549,Simcolourproject_2stim_asymm_v5,2020.2.10,Win32,60,61025ae37ef11b136ea224fe,,,,,,,,,127,49.07160297,88.64284271,1,0,0,response1disk,,7,4.500172411,-9.642945724,1,0,0,rectangle,4.500172411,-9.642945724,1,0,0,4.500172411,-9.642945724,1,0,0,0,153,153,21,1,,,,,,,,
,,,,,,,,,,,,,FF,,,,,,,,0.8662,,,,,,,,,,,,,,,,,,,,,,610050997aff9a6e73bccaad,6103741073908f631258f8ef,2021-07-29_20h58.22.549,Simcolourproject_2stim_asymm_v5,2020.2.10,Win32,60,61025ae37ef11b136ea224fe,,,,,,,,,3618,-39.49982956,-66.78580542,1,0,0,response5disk,,3,0.500172232,-3.92859,1,0,0,rectangle,0.500172232,-3.92859,1,0,0,0.500172232,-3.92859,1,0,0,0,154,154,76,1,,,,,,,,
,,,,,,,,,,,,,FF,,,,,,,,0.9937,,,,,,,,,,,,,,,,,,,,,,610050997aff9a6e73bccaad,6103741073908f631258f8ef,2021-07-29_20h58.22.549,Simcolourproject_2stim_asymm_v5,2020.2.10,Win32,60,61025ae37ef11b136ea224fe,,,,,,,,,4201,-36.07139748,70.9285562,1,0,0,response7disk,,0,-14.3571108,1.214197619,1,0,0,rectangle,-14.3571108,1.214197619,1,0,0,-14.3571108,1.214197619,1,0,0,0,155,155,104,1,,,,,,,,
,,,,,,,,,,,,,FF,,,,,,,,2.8171,,,,,,,,,,,,,,,,,,,,,,610050997aff9a6e73bccaad,6103741073908f631258f8ef,2021-07-29_20h58.22.549,Simcolourproject_2stim_asymm_v5,2020.2.10,Win32,60,61025ae37ef11b136ea224fe,,,,,,,,,3052,34.21431994,-87.92859375,1,0,0,response3disk,,4,13.64289045,-1.071447015,1,0,0,rectangle,13.64289045,-1.071447015,1,0,0,13.64289045,-1.071447015,1,0,0,0,156,156,121,1,,,,,,,,
,,,,,,,,,,,,,FF,,,,,,,,1.2334,,,,,,,,,,,,,,,,,,,,,,610050997aff9a6e73bccaad,6103741073908f631258f8ef,2021-07-29_20h58.22.549,Simcolourproject_2stim_asymm_v5,2020.2.10,Win32,60,61025ae37ef11b136ea224fe,,,,,,,,,1805,95.92860842,-37.64294698,1,0,0,response3disk,,5,2.214318514,-2.214304209,1,0,0,rectangle,2.214318514,-2.214304209,1,0,0,2.214318514,-2.214304209,1,0,0,0,157,157,95,1,,,,,,,,
,,,,,,,,,,,,,FF,,,,,,,,1.0169,,,,,,,,,,,,,,,,,,,,,,610050997aff9a6e73bccaad,6103741073908f631258f8ef,2021-07-29_20h58.22.549,Simcolourproject_2stim_asymm_v5,2020.2.10,Win32,60,61025ae37ef11b136ea224fe,,,,,,,,,1843,65.07160369,50.35705696,1,0,0,response1disk,,6,8.50017259,16.07141089,1,0,0,rectangle,8.50017259,16.07141089,1,0,0,8.50017259,16.07141089,1,0,0,0,158,158,69,1,,,,,,,,
,,,,,,,,,,,,,FF,,,,,,,,0.6835,,,,,,,,,,,,,,,,,,,,,,610050997aff9a6e73bccaad,6103741073908f631258f8ef,2021-07-29_20h58.22.549,Simcolourproject_2stim_asymm_v5,2020.2.10,Win32,60,61025ae37ef11b136ea224fe,,,,,,,,,2218,-44.64282644,77.78569937,1,0,0,response7disk,,0,-14.3571108,10.35705517,1,0,0,rectangle,-14.3571108,10.35705517,1,0,0,-14.3571108,10.35705517,1,0,0,0,159,159,127,1,,,,,,,,
,,,,,,,,,,,,,FF,,,,,,,,0.9168,,,,,,,,,,,,,,,,,,,,,,610050997aff9a6e73bccaad,6103741073908f631258f8ef,2021-07-29_20h58.22.549,Simcolourproject_2stim_asymm_v5,2020.2.10,Win32,60,61025ae37ef11b136ea224fe,,,,,,,,,2282,57.64289242,99.49998605,1,0,0,response1disk,,7,13.64289045,9.785696328,1,0,0,rectangle,13.64289045,9.785696328,1,0,0,13.64289045,9.785696328,1,0,0,1,0,160,5,1,,,,,,,,
,,,,,,,,,,,,,FF,,,,,,,,0.9168,,,,,,,,,,,,,,,,,,,,,,610050997aff9a6e73bccaad,6103741073908f631258f8ef,2021-07-29_20h58.22.549,Simcolourproject_2stim_asymm_v5,2020.2.10,Win32,60,61025ae37ef11b136ea224fe,,,,,,,,,2638,51.35717785,-27.35723223,1,0,0,response3disk,,5,9.642890275,-2.78580256,1,0,0,rectangle,9.642890275,-2.78580256,1,0,0,9.642890275,-2.78580256,1,0,0,1,1,161,124,1,,,,,,,,
,,,,,,,,,,,,,FF,,,,,,,,1.0168,,,,,,,,,,,,,,,,,,,,,,610050997aff9a6e73bccaad,6103741073908f631258f8ef,2021-07-29_20h58.22.549,Simcolourproject_2stim_asymm_v5,2020.2.10,Win32,60,61025ae37ef11b136ea224fe,,,,,,,,,3179,-26.35711133,-79.9285934,1,0,0,response5disk,,3,14.21431905,1.78569597,1,0,0,rectangle,14.21431905,1.78569597,1,0,0,14.21431905,1.78569597,1,0,0,1,2,162,14,1,,,,,,,,
,,,,,,,,,,,,,FF,,,,,,,,1.434,,,,,,,,,,,,,,,,,,,,,,610050997aff9a6e73bccaad,6103741073908f631258f8ef,2021-07-29_20h58.22.549,Simcolourproject_2stim_asymm_v5,2020.2.10,Win32,60,61025ae37ef11b136ea224fe,,,,,,,,,2497,83.92860788,-34.78580399,1,0,0,response3disk,,5,21.07160172,1.214197619,1,0,0,rectangle,43.3571775,-78.21430761,1,0,0,10.21431887,11.49991236,1,0,0,1,3,163,64,1,,response3disk_3,TRUE,4,5,"[206,321,15,103,3,0,174,149,13,146,237,320,315,164,218,321,194,24,245,259]",1.5001,rectangle
,,,,,,,,,,,,,FF,,,,,,,,0.7167,,,,,,,,,,,,,,,,,,,,,,610050997aff9a6e73bccaad,6103741073908f631258f8ef,2021-07-29_20h58.22.549,Simcolourproject_2stim_asymm_v5,2020.2.10,Win32,60,61025ae37ef11b136ea224fe,,,,,,,,,335,81.07160441,56.64284128,1,0,0,response1disk,,6,15.92860484,14.9285537,1,0,0,rectangle,15.92860484,14.9285537,1,0,0,15.92860484,14.9285537,1,0,0,1,4,164,82,1,,,,,,,,
,,,,,,,,,,,,,FF,,,,,,,,2.1832,,,,,,,,,,,,,,,,,,,,,,610050997aff9a6e73bccaad,6103741073908f631258f8ef,2021-07-29_20h58.22.549,Simcolourproject_2stim_asymm_v5,2020.2.10,Win32,60,61025ae37ef11b136ea224fe,,,,,,,,,424,99.9286086,45.78569794,1,0,0,response1disk,,6,22.21431941,-1.642945366,1,0,0,rectangle,22.21431941,-1.642945366,1,0,0,22.21431941,-1.642945366,1,0,0,1,5,165,1,1,,,,,,,,
,,,,,,,,,,,,,FF,,,,,,,,0.7503,,,,,,,,,,,,,,,,,,,,,,610050997aff9a6e73bccaad,6103741073908f631258f8ef,2021-07-29_20h58.22.549,Simcolourproject_2stim_asymm_v5,2020.2.10,Win32,60,61025ae37ef11b136ea224fe,,,,,,,,,3983,-25.78568274,-75.92859322,1,0,0,response5disk,,3,0.500172232,-14.7858031,1,0,0,rectangle,0.500172232,-14.7858031,1,0,0,0.500172232,-14.7858031,1,0,0,1,6,166,55,1,,,,,,,,
,,,,,,,,,,,,,FF,,,,,,,,1.5339,,,,,,,,,,,,,,,,,,,,,,610050997aff9a6e73bccaad,6103741073908f631258f8ef,2021-07-29_20h58.22.549,Simcolourproject_2stim_asymm_v5,2020.2.10,Win32,60,61025ae37ef11b136ea224fe,,,,,,,,,2150,29.64289117,-45.07144898,1,0,0,response3disk,,4,21.07160172,-2.78580256,1,0,0,rectangle,21.07160172,-2.78580256,1,0,0,21.07160172,-2.78580256,1,0,0,1,7,167,112,1,,,,,,,,
,,,,,,,,,,,,,FF,,,,,,,,1.034,,,,,,,,,,,,,,,,,,,,,,610050997aff9a6e73bccaad,6103741073908f631258f8ef,2021-07-29_20h58.22.549,Simcolourproject_2stim_asymm_v5,2020.2.10,Win32,60,61025ae37ef11b136ea224fe,,,,,,,,,892,-88.07139981,35.49991344,1,0,0,response7disk,,1,-11.4998283,-13.07144755,1,0,0,rectangle,-11.4998283,-13.07144755,1,0,0,-11.4998283,-13.07144755,1,0,0,1,8,168,87,1,,,,,,,,
,,,,,,,,,,,,,FF,,,,,,,,0.9499,,,,,,,,,,,,,,,,,,,,,,610050997aff9a6e73bccaad,6103741073908f631258f8ef,2021-07-29_20h58.22.549,Simcolourproject_2stim_asymm_v5,2020.2.10,Win32,60,61025ae37ef11b136ea224fe,,,,,,,,,2002,-40.64282626,-116.5000236,1,0,0,response5disk,,3,7.357175887,2.928553164,1,0,0,rectangle,7.357175887,2.928553164,1,0,0,7.357175887,2.928553164,1,0,0,1,9,169,147,1,,,,,,,,
,,,,,,,,,,,,,FF,,,,,,,,1.6838,,,,,,,,,,,,,,,,,,,,,,610050997aff9a6e73bccaad,6103741073908f631258f8ef,2021-07-29_20h58.22.549,Simcolourproject_2stim_asymm_v5,2020.2.10,Win32,60,61025ae37ef11b136ea224fe,,,,,,,,,1043,39.35717732,-95.92859411,1,0,0,response3disk,,4,16.50017295,-3.92859,1,0,0,rectangle,16.50017295,-3.92859,1,0,0,16.50017295,-3.92859,1,0,0,1,10,170,52,1,,,,,,,,
,,,,,,,,,,,,,FF,,,,,,,,6.7659,,,,,,,,,,,,,,,,,,,,,,610050997aff9a6e73bccaad,6103741073908f631258f8ef,2021-07-29_20h58.22.549,Simcolourproject_2stim_asymm_v5,2020.2.10,Win32,60,61025ae37ef11b136ea224fe,,,,,,,,,99,-37.78568327,-113.6429504,1,0,0,response5disk,,3,6.214318693,4.071410358,1,0,0,rectangle,6.214318693,4.071410358,1,0,0,6.214318693,4.071410358,1,0,0,1,11,171,95,1,,,,,,,,
,,,,,,,,,,,,,FF,,,,,,,,2.251,,,,,,,,,,,,,,,,,,,,,,610050997aff9a6e73bccaad,6103741073908f631258f8ef,2021-07-29_20h58.22.549,Simcolourproject_2stim_asymm_v5,2020.2.10,Win32,60,61025ae37ef11b136ea224fe,,,,,,,,,4159,59.35717821,-98.2143085,1,0,0,response3disk,,4,14.78588716,-7.928590178,1,0,0,rectangle,14.78588716,-7.928590178,1,0,0,14.78588716,-7.928590178,1,0,0,1,12,172,93,1,,,,,,,,
,,,,,,,,,,,,,FF,,,,,,,,1.2497,,,,,,,,,,,,,,,,,,,,,,610050997aff9a6e73bccaad,6103741073908f631258f8ef,2021-07-29_20h58.22.549,Simcolourproject_2stim_asymm_v5,2020.2.10,Win32,60,61025ae37ef11b136ea224fe,,,,,,,,,245,34.21431994,-52.5000905,1,0,0,response3disk,,4,5.642890096,3.499912007,1,0,0,rectangle,29.64289117,-95.92859411,1,0,0,-9.785682023,-5.071447194,1,0,0,1,13,173,24,1,,response3disk_3,TRUE,4,4,"[206,321,15,103,3,0,174,149,13,146,237,320,315,164,218,321,194,24,245,259]",1.3494,rectangle
,,,,,,,,,,,,,FF,,,,,,,,0.7176,,,,,,,,,,,,,,,,,,,,,,610050997aff9a6e73bccaad,6103741073908f631258f8ef,2021-07-29_20h58.22.549,Simcolourproject_2stim_asymm_v5,2020.2.10,Win32,60,61025ae37ef11b136ea224fe,,,,,,,,,1904,-60.07139856,-112.5000234,1,0,0,response5disk,,3,-8.071396232,2.357054813,1,0,0,rectangle,-8.071396232,2.357054813,1,0,0,-8.071396232,2.357054813,1,0,0,1,14,174,114,1,,,,,,,,
,,,,,,,,,,,,,FF,,,,,,,,1.8502,,,,,,,,,,,,,,,,,,,,,,610050997aff9a6e73bccaad,6103741073908f631258f8ef,2021-07-29_20h58.22.549,Simcolourproject_2stim_asymm_v5,2020.2.10,Win32,60,61025ae37ef11b136ea224fe,,,,,,,,,3531,70.21432155,-58.21430671,1,0,0,response3disk,,5,2.214318514,0.071410179,1,0,0,rectangle,2.214318514,0.071410179,1,0,0,2.214318514,0.071410179,1,0,0,1,15,175,116,1,,,,,,,,
,,,,,,,,,,,,,FF,,,,,,,,1.2333,,,,,,,,,,,,,,,,,,,,,,610050997aff9a6e73bccaad,6103741073908f631258f8ef,2021-07-29_20h58.22.549,Simcolourproject_2stim_asymm_v5,2020.2.10,Win32,60,61025ae37ef11b136ea224fe,,,,,,,,,382,-40.07139766,-65.64294823,1,0,0,response5disk,,3,-10.35711062,-7.928590178,1,0,0,rectangle,-10.35711062,-7.928590178,1,0,0,-10.35711062,-7.928590178,1,0,0,1,16,176,34,1,,,,,,,,
,,,,,,,,,,,,,FF,,,,,,,,0.8998,,,,,,,,,,,,,,,,,,,,,,610050997aff9a6e73bccaad,6103741073908f631258f8ef,2021-07-29_20h58.22.549,Simcolourproject_2stim_asymm_v5,2020.2.10,Win32,60,61025ae37ef11b136ea224fe,,,,,,,,,4064,56.50017474,-91.92859393,1,0,0,response3disk,,4,16.50017295,4.071410358,1,0,0,rectangle,16.50017295,4.071410358,1,0,0,16.50017295,4.071410358,1,0,0,1,17,177,6,1,,,,,,,,
,,,,,,,,,,,,,FF,,,,,,,,0.7496,,,,,,,,,,,,,,,,,,,,,,610050997aff9a6e73bccaad,6103741073908f631258f8ef,2021-07-29_20h58.22.549,Simcolourproject_2stim_asymm_v5,2020.2.10,Win32,60,61025ae37ef11b136ea224fe,,,,,,,,,258,-71.4999705,52.0714125,1,0,0,response7disk,,1,7.928604484,-4.500088351,1,0,0,rectangle,7.928604484,-4.500088351,1,0,0,7.928604484,-4.500088351,1,0,0,1,18,178,129,1,,,,,,,,
,,,,,,,,,,,,,FF,,,,,,,,0.8334,,,,,,,,,,,,,,,,,,,,,,610050997aff9a6e73bccaad,6103741073908f631258f8ef,2021-07-29_20h58.22.549,Simcolourproject_2stim_asymm_v5,2020.2.10,Win32,60,61025ae37ef11b136ea224fe,,,,,,,,,2574,85.07160458,-37.07144862,1,0,0,response3disk,,5,18.78588734,2.928553164,1,0,0,rectangle,18.78588734,2.928553164,1,0,0,18.78588734,2.928553164,1,0,0,1,19,179,154,1,,,,,,,,
,,,,,,,,,,,,,FF,,,,,,,,0.8506,,,,,,,,,,,,,,,,,,,,,,610050997aff9a6e73bccaad,6103741073908f631258f8ef,2021-07-29_20h58.22.549,Simcolourproject_2stim_asymm_v5,2020.2.10,Win32,60,61025ae37ef11b136ea224fe,,,,,,,,,1487,58.21432102,-37.64294698,1,0,0,response3disk,,5,15.35717624,-13.07144755,1,0,0,rectangle,15.35717624,-13.07144755,1,0,0,15.35717624,-13.07144755,1,0,0,1,20,180,157,1,,,,,,,,
,,,,,,,,,,,,,FF,,,,,,,,1.0002,,,,,,,,,,,,,,,,,,,,,,610050997aff9a6e73bccaad,6103741073908f631258f8ef,2021-07-29_20h58.22.549,Simcolourproject_2stim_asymm_v5,2020.2.10,Win32,60,61025ae37ef11b136ea224fe,,,,,,,,,1796,100.5001767,42.92855495,1,0,0,response1disk,,6,-8.642824829,-1.071447015,1,0,0,rectangle,-8.642824829,-1.071447015,1,0,0,-8.642824829,-1.071447015,1,0,0,1,21,181,135,1,,,,,,,,
,,,,,,,,,,,,,FF,,,,,,,,1.3669,,,,,,,,,,,,,,,,,,,,,,610050997aff9a6e73bccaad,6103741073908f631258f8ef,2021-07-29_20h58.22.549,Simcolourproject_2stim_asymm_v5,2020.2.10,Win32,60,61025ae37ef11b136ea224fe,,,,,,,,,2188,-50.35711241,-47.35723312,1,0,0,response5disk,,2,-9.214113917,2.357054813,1,0,0,rectangle,-9.214113917,2.357054813,1,0,0,-9.214113917,2.357054813,1,0,0,1,22,182,97,1,,,,,,,,
,,,,,,,,,,,,,FF,,,,,,,,1.0168,,,,,,,,,,,,,,,,,,,,,,610050997aff9a6e73bccaad,6103741073908f631258f8ef,2021-07-29_20h58.22.549,Simcolourproject_2stim_asymm_v5,2020.2.10,Win32,60,61025ae37ef11b136ea224fe,,,,,,,,,3768,91.35717964,-40.50008996,1,0,0,response3disk,,5,3.928604305,-5.071447194,1,0,0,rectangle,3.928604305,-5.071447194,1,0,0,3.928604305,-5.071447194,1,0,0,1,23,183,113,1,,,,,,,,
,,,,,,,,,,,,,FF,,,,,,,,3.9997,,,,,,,,,,,,,,,,,,,,,,610050997aff9a6e73bccaad,6103741073908f631258f8ef,2021-07-29_20h58.22.549,Simcolourproject_2stim_asymm_v5,2020.2.10,Win32,60,61025ae37ef11b136ea224fe,,,,,,,,,950,40.50017402,-115.3572013,1,0,0,response3disk,,4,2.214318514,-1.642945366,1,0,0,rectangle,2.214318514,-1.642945366,1,0,0,2.214318514,-1.642945366,1,0,0,1,24,184,27,1,,,,,,,,
,,,,,,,,,,,,,FF,,,,,,,,0.9668,,,,,,,,,,,,,,,,,,,,,,610050997aff9a6e73bccaad,6103741073908f631258f8ef,2021-07-29_20h58.22.549,Simcolourproject_2stim_asymm_v5,2020.2.10,Win32,60,61025ae37ef11b136ea224fe,,,,,,,,,1482,-38.35711187,-74.21430743,1,0,0,response5disk,,3,1.642889917,4.642838955,1,0,0,rectangle,1.642889917,4.642838955,1,0,0,1.642889917,4.642838955,1,0,0,1,25,185,151,1,,,,,,,,
,,,,,,,,,,,,,FF,,,,,,,,0.8007,,,,,,,,,,,,,,,,,,,,,,610050997aff9a6e73bccaad,6103741073908f631258f8ef,2021-07-29_20h58.22.549,Simcolourproject_2stim_asymm_v5,2020.2.10,Win32,60,61025ae37ef11b136ea224fe,,,,,,,,,1571,42.78588841,-91.35723509,1,0,0,response3disk,,4,-1.785681665,5.214197797,1,0,0,rectangle,-1.785681665,5.214197797,1,0,0,-1.785681665,5.214197797,1,0,0,1,26,186,29,1,,,,,,,,
,,,,,,,,,,,,,FF,,,,,,,,1.0006,,,,,,,,,,,,,,,,,,,,,,610050997aff9a6e73bccaad,6103741073908f631258f8ef,2021-07-29_20h58.22.549,Simcolourproject_2stim_asymm_v5,2020.2.10,Win32,60,61025ae37ef11b136ea224fe,,,,,,,,,549,-88.07139981,57.78569847,1,0,0,response7disk,,1,-5.785681844,-2.78580256,1,0,0,rectangle,-5.785681844,-2.78580256,1,0,0,-5.785681844,-2.78580256,1,0,0,1,27,187,102,1,,,,,,,,
,,,,,,,,,,,,,FF,,,,,,,,1.0346,,,,,,,,,,,,,,,,,,,,,,610050997aff9a6e73bccaad,6103741073908f631258f8ef,2021-07-29_20h58.22.549,Simcolourproject_2stim_asymm_v5,2020.2.10,Win32,60,61025ae37ef11b136ea224fe,,,,,,,,,710,45.64289188,-73.64294858,1,0,0,response3disk,,4,14.21431905,8.642839134,1,0,0,rectangle,14.21431905,8.642839134,1,0,0,14.21431905,8.642839134,1,0,0,1,28,188,101,1,,,,,,,,
,,,,,,,,,,,,,FF,,,,,,,,1.0341,,,,,,,,,,,,,,,,,,,,,,610050997aff9a6e73bccaad,6103741073908f631258f8ef,2021-07-29_20h58.22.549,Simcolourproject_2stim_asymm_v5,2020.2.10,Win32,60,61025ae37ef11b136ea224fe,,,,,,,,,2745,-37.21411517,-63.92859268,1,0,0,response5disk,,3,-10.35711062,-11.92859036,1,0,0,rectangle,-10.35711062,-11.92859036,1,0,0,-10.35711062,-11.92859036,1,0,0,1,29,189,30,1,,,,,,,,
,,,,,,,,,,,,,FF,,,,,,,,2.4662,,,,,,,,,,,,,,,,,,,,,,610050997aff9a6e73bccaad,6103741073908f631258f8ef,2021-07-29_20h58.22.549,Simcolourproject_2stim_asymm_v5,2020.2.10,Win32,60,61025ae37ef11b136ea224fe,,,,,,,,,21,-81.78568524,-47.92859197,1,0,0,response5disk,,2,3.357175708,-2.78580256,1,0,0,rectangle,3.357175708,-2.78580256,1,0,0,3.357175708,-2.78580256,1,0,0,1,30,190,72,1,,,,,,,,
,,,,,,,,,,,,,FF,,,,,,,,0.6341,,,,,,,,,,,,,,,,,,,,,,610050997aff9a6e73bccaad,6103741073908f631258f8ef,2021-07-29_20h58.22.549,Simcolourproject_2stim_asymm_v5,2020.2.10,Win32,60,61025ae37ef11b136ea224fe,,,,,,,,,1120,-68.64282751,36.64284039,1,0,0,response7disk,,1,-0.071395874,4.071410358,1,0,0,rectangle,-0.071395874,4.071410358,1,0,0,-0.071395874,4.071410358,1,0,0,1,31,191,69,1,,,,,,,,
,,,,,,,,,,,,,FF,,,,,,,,0.518,,,,,,,,,,,,,,,,,,,,,,610050997aff9a6e73bccaad,6103741073908f631258f8ef,2021-07-29_20h58.22.549,Simcolourproject_2stim_asymm_v5,2020.2.10,Win32,60,61025ae37ef11b136ea224fe,,,,,,,,,4316,-38.92840096,81.21420119,1,0,0,response7disk,,0,-0.642824471,-0.500088172,1,0,0,rectangle,-0.642824471,-0.500088172,1,0,0,-0.642824471,-0.500088172,1,0,0,1,32,192,138,1,,,,,,,,
,,,,,,,,,,,,,FF,,,,,,,,0.8668,,,,,,,,,,,,,,,,,,,,,,610050997aff9a6e73bccaad,6103741073908f631258f8ef,2021-07-29_20h58.22.549,Simcolourproject_2stim_asymm_v5,2020.2.10,Win32,60,61025ae37ef11b136ea224fe,,,,,,,,,2850,82.21432209,21.78569686,1,0,0,response1disk,,6,-10.35711062,-5.071447194,1,0,0,rectangle,-82.35711384,-40.50008996,1,0,0,-0.642824471,-10.78580292,1,0,0,1,33,193,77,1,,response5disk_3,TRUE,2,2,"[206,321,15,103,3,0,174,149,13,146,237,320,315,164,218,321,194,24,245,259]",2.0497,rectangle
,,,,,,,,,,,,,FF,,,,,,,,0.8565,,,,,,,,,,,,,,,,,,,,,,610050997aff9a6e73bccaad,6103741073908f631258f8ef,2021-07-29_20h58.22.549,Simcolourproject_2stim_asymm_v5,2020.2.10,Win32,60,61025ae37ef11b136ea224fe,,,,,,,,,1708,83.35717928,-49.64294751,1,0,0,response3disk,,5,-1.785681665,-0.500088172,1,0,0,rectangle,-1.785681665,-0.500088172,1,0,0,-1.785681665,-0.500088172,1,0,0,1,34,194,127,1,,,,,,,,
,,,,,,,,,,,,,FF,,,,,,,,1.1905,,,,,,,,,,,,,,,,,,,,,,610050997aff9a6e73bccaad,6103741073908f631258f8ef,2021-07-29_20h58.22.549,Simcolourproject_2stim_asymm_v5,2020.2.10,Win32,60,61025ae37ef11b136ea224fe,,,,,,,,,3409,41.64289171,-83.35723473,1,0,0,response3disk,,4,7.928604484,-1.071447015,1,0,0,rectangle,7.928604484,-1.071447015,1,0,0,7.928604484,-1.071447015,1,0,0,1,35,195,90,1,,,,,,,,
,,,,,,,,,,,,,FF,,,,,,,,1.1839,,,,,,,,,,,,,,,,,,,,,,610050997aff9a6e73bccaad,6103741073908f631258f8ef,2021-07-29_20h58.22.549,Simcolourproject_2stim_asymm_v5,2020.2.10,Win32,60,61025ae37ef11b136ea224fe,,,,,,,,,1098,93.07160494,26.35705589,1,0,0,response1disk,,6,-5.214113738,-14.21430475,1,0,0,rectangle,-5.214113738,-14.21430475,1,0,0,-5.214113738,-14.21430475,1,0,0,1,36,196,153,1,,,,,,,,
,,,,,,,,,,,,,FF,,,,,,,,0.7663,,,,,,,,,,,,,,,,,,,,,,610050997aff9a6e73bccaad,6103741073908f631258f8ef,2021-07-29_20h58.22.549,Simcolourproject_2stim_asymm_v5,2020.2.10,Win32,60,61025ae37ef11b136ea224fe,,,,,,,,,2046,-80.64282805,-18.21430492,1,0,0,response5disk,,2,-0.642824471,-12.50008871,1,0,0,rectangle,-0.642824471,-12.50008871,1,0,0,-0.642824471,-12.50008871,1,0,0,1,37,197,130,1,,,,,,,,
,,,,,,,,,,,,,FF,,,,,,,,0.9333,,,,,,,,,,,,,,,,,,,,,,610050997aff9a6e73bccaad,6103741073908f631258f8ef,2021-07-29_20h58.22.549,Simcolourproject_2stim_asymm_v5,2020.2.10,Win32,60,61025ae37ef11b136ea224fe,,,,,,,,,1080,86.21432227,-37.07144862,1,0,0,response3disk,,5,15.92860484,-3.92859,1,0,0,rectangle,15.92860484,-3.92859,1,0,0,15.92860484,-3.92859,1,0,0,1,38,198,125,1,,,,,,,,
,,,,,,,,,,,,,FF,,,,,,,,4.6161,,,,,,,,,,,,,,,,,,,,,,610050997aff9a6e73bccaad,6103741073908f631258f8ef,2021-07-29_20h58.22.549,Simcolourproject_2stim_asymm_v5,2020.2.10,Win32,60,61025ae37ef11b136ea224fe,,,,,,,,,690,-18.35711098,-64.50009103,1,0,0,response5disk,,3,5.642890096,2.928553164,1,0,0,rectangle,5.642890096,2.928553164,1,0,0,5.642890096,2.928553164,1,0,0,1,39,199,120,1,,,,,,,,
,,,,,,,,,,,,,FF,,,,,,,,0.9001,,,,,,,,,,,,,,,,,,,,,,610050997aff9a6e73bccaad,6103741073908f631258f8ef,2021-07-29_20h58.22.549,Simcolourproject_2stim_asymm_v5,2020.2.10,Win32,60,61025ae37ef11b136ea224fe,,,,,,,,,45,114.7858916,-44.50009014,1,0,0,response3disk,,5,-2.92839935,-2.214304209,1,0,0,rectangle,-2.92839935,-2.214304209,1,0,0,-2.92839935,-2.214304209,1,0,0,1,40,200,40,1,,,,,,,,
,,,,,,,,,,,,,FF,,,,,,,,1.167,,,,,,,,,,,,,,,,,,,,,,610050997aff9a6e73bccaad,6103741073908f631258f8ef,2021-07-29_20h58.22.549,Simcolourproject_2stim_asymm_v5,2020.2.10,Win32,60,61025ae37ef11b136ea224fe,,,,,,,,,3473,-44.64282644,100.6428432,1,0,0,response7disk,,0,10.21431887,-7.357161582,1,0,0,rectangle,10.21431887,-7.357161582,1,0,0,10.21431887,-7.357161582,1,0,0,1,41,201,38,1,,,,,,,,
,,,,,,,,,,,,,FF,,,,,,,,2.6446,,,,,,,,,,,,,,,,,,,,,,610050997aff9a6e73bccaad,6103741073908f631258f8ef,2021-07-29_20h58.22.549,Simcolourproject_2stim_asymm_v5,2020.2.10,Win32,60,61025ae37ef11b136ea224fe,,,,,,,,,70,-57.78568417,-73.64294858,1,0,0,response5disk,,3,-10.35711062,2.928553164,1,0,0,rectangle,-10.35711062,2.928553164,1,0,0,-10.35711062,2.928553164,1,0,0,1,42,202,45,1,,,,,,,,
,,,,,,,,,,,,,FF,,,,,,,,1.201,,,,,,,,,,,,,,,,,,,,,,610050997aff9a6e73bccaad,6103741073908f631258f8ef,2021-07-29_20h58.22.549,Simcolourproject_2stim_asymm_v5,2020.2.10,Win32,60,61025ae37ef11b136ea224fe,,,,,,,,,3869,36.50017384,-74.21430743,1,0,0,response3disk,,4,-5.785681844,-3.357161403,1,0,0,rectangle,-5.785681844,-3.357161403,1,0,0,-5.785681844,-3.357161403,1,0,0,1,43,203,78,1,,,,,,,,
,,,,,,,,,,,,,FF,,,,,,,,0.7674,,,,,,,,,,,,,,,,,,,,,,610050997aff9a6e73bccaad,6103741073908f631258f8ef,2021-07-29_20h58.22.549,Simcolourproject_2stim_asymm_v5,2020.2.10,Win32,60,61025ae37ef11b136ea224fe,,,,,,,,,4121,-74.92840257,-38.21430582,1,0,0,response5disk,,2,1.642889917,-9.642945724,1,0,0,rectangle,1.642889917,-9.642945724,1,0,0,1.642889917,-9.642945724,1,0,0,1,44,204,3,1,,,,,,,,
,,,,,,,,,,,,,FF,,,,,,,,2.1794,,,,,,,,,,,,,,,,,,,,,,610050997aff9a6e73bccaad,6103741073908f631258f8ef,2021-07-29_20h58.22.549,Simcolourproject_2stim_asymm_v5,2020.2.10,Win32,60,61025ae37ef11b136ea224fe,,,,,,,,,3724,-70.3571133,-91.92859393,1,0,0,response5disk,,3,-1.214113559,10.92855352,1,0,0,rectangle,-32.6428259,106.3570595,1,0,0,1.642889917,-3.357161403,1,0,0,1,45,205,63,1,,response7disk_3,TRUE,0,0,"[206,321,15,103,3,0,174,149,13,146,237,320,315,164,218,321,194,24,245,259]",1.8495,rectangle
,,,,,,,,,,,,,FF,,,,,,,,0.8502,,,,,,,,,,,,,,,,,,,,,,610050997aff9a6e73bccaad,6103741073908f631258f8ef,2021-07-29_20h58.22.549,Simcolourproject_2stim_asymm_v5,2020.2.10,Win32,60,61025ae37ef11b136ea224fe,,,,,,,,,4161,-54.92840167,117.2142028,1,0,0,response7disk,,0,-6.357110441,-1.071447015,1,0,0,rectangle,-6.357110441,-1.071447015,1,0,0,-6.357110441,-1.071447015,1,0,0,1,46,206,25,1,,,,,,,,
,,,,,,,,,,,,,FF,,,,,,,,1.0671,,,,,,,,,,,,,,,,,,,,,,610050997aff9a6e73bccaad,6103741073908f631258f8ef,2021-07-29_20h58.22.549,Simcolourproject_2stim_asymm_v5,2020.2.10,Win32,60,61025ae37ef11b136ea224fe,,,,,,,,,2386,50.78588877,-97.64294966,1,0,0,response3disk,,4,19.92860502,8.071410537,1,0,0,rectangle,19.92860502,8.071410537,1,0,0,19.92860502,8.071410537,1,0,0,1,47,207,128,1,,,,,,,,
,,,,,,,,,,,,,FF,,,,,,,,0.7508,,,,,,,,,,,,,,,,,,,,,,610050997aff9a6e73bccaad,6103741073908f631258f8ef,2021-07-29_20h58.22.549,Simcolourproject_2stim_asymm_v5,2020.2.10,Win32,60,61025ae37ef11b136ea224fe,,,,,,,,,1478,67.35717857,-31.92859125,1,0,0,response3disk,,5,26.78588769,2.928553164,1,0,0,rectangle,26.78588769,2.928553164,1,0,0,26.78588769,2.928553164,1,0,0,1,48,208,103,1,,,,,,,,
,,,,,,,,,,,,,FF,,,,,,,,0.7336,,,,,,,,,,,,,,,,,,,,,,610050997aff9a6e73bccaad,6103741073908f631258f8ef,2021-07-29_20h58.22.549,Simcolourproject_2stim_asymm_v5,2020.2.10,Win32,60,61025ae37ef11b136ea224fe,,,,,,,,,1709,49.64289206,33.7856974,1,0,0,response1disk,,6,-7.499828126,5.785696149,1,0,0,rectangle,-7.499828126,5.785696149,1,0,0,-7.499828126,5.785696149,1,0,0,1,49,209,89,1,,,,,,,,
,,,,,,,,,,,,,FF,,,,,,,,1.0497,,,,,,,,,,,,,,,,,,,,,,610050997aff9a6e73bccaad,6103741073908f631258f8ef,2021-07-29_20h58.22.549,Simcolourproject_2stim_asymm_v5,2020.2.10,Win32,60,61025ae37ef11b136ea224fe,,,,,,,,,1262,-31.4998292,-73.64294858,1,0,0,response5disk,,3,-11.4998283,-5.071447194,1,0,0,rectangle,-11.4998283,-5.071447194,1,0,0,-11.4998283,-5.071447194,1,0,0,1,50,210,0,1,,,,,,,,
,,,,,,,,,,,,,FF,,,,,,,,0.8168,,,,,,,,,,,,,,,,,,,,,,610050997aff9a6e73bccaad,6103741073908f631258f8ef,2021-07-29_20h58.22.549,Simcolourproject_2stim_asymm_v5,2020.2.10,Win32,60,61025ae37ef11b136ea224fe,,,,,,,,,3156,-90.92840328,52.0714125,1,0,0,response7disk,,1,4.500172411,2.357054813,1,0,0,rectangle,4.500172411,2.357054813,1,0,0,4.500172411,2.357054813,1,0,0,1,51,211,81,1,,,,,,,,
,,,,,,,,,,,,,FF,,,,,,,,1.2171,,,,,,,,,,,,,,,,,,,,,,610050997aff9a6e73bccaad,6103741073908f631258f8ef,2021-07-29_20h58.22.549,Simcolourproject_2stim_asymm_v5,2020.2.10,Win32,60,61025ae37ef11b136ea224fe,,,,,,,,,1352,-51.4999696,95.49998587,1,0,0,response7disk,,0,-3.499827947,16.07141089,1,0,0,rectangle,-3.499827947,16.07141089,1,0,0,-3.499827947,16.07141089,1,0,0,1,52,212,88,1,,,,,,,,
,,,,,,,,,,,,,FF,,,,,,,,1.2834,,,,,,,,,,,,,,,,,,,,,,610050997aff9a6e73bccaad,6103741073908f631258f8ef,2021-07-29_20h58.22.549,Simcolourproject_2stim_asymm_v5,2020.2.10,Win32,60,61025ae37ef11b136ea224fe,,,,,,,,,4053,-44.64282644,-76.50009157,1,0,0,response5disk,,3,-6.357110441,1.78569597,1,0,0,rectangle,-6.357110441,1.78569597,1,0,0,-6.357110441,1.78569597,1,0,0,1,53,213,107,1,,,,,,,,
,,,,,,,,,,,,,FF,,,,,,,,0.9165,,,,,,,,,,,,,,,,,,,,,,610050997aff9a6e73bccaad,6103741073908f631258f8ef,2021-07-29_20h58.22.549,Simcolourproject_2stim_asymm_v5,2020.2.10,Win32,60,61025ae37ef11b136ea224fe,,,,,,,,,745,24.5001733,-45.07144898,1,0,0,response3disk,,4,-3.499827947,9.214197976,1,0,0,rectangle,-3.499827947,9.214197976,1,0,0,-3.499827947,9.214197976,1,0,0,1,54,214,139,1,,,,,,,,
,,,,,,,,,,,,,FF,,,,,,,,0.8666,,,,,,,,,,,,,,,,,,,,,,610050997aff9a6e73bccaad,6103741073908f631258f8ef,2021-07-29_20h58.22.549,Simcolourproject_2stim_asymm_v5,2020.2.10,Win32,60,61025ae37ef11b136ea224fe,,,,,,,,,2207,83.92860788,-21.07144791,1,0,0,response3disk,,5,16.50017295,-5.642945545,1,0,0,rectangle,16.50017295,-5.642945545,1,0,0,16.50017295,-5.642945545,1,0,0,1,55,215,4,1,,,,,,,,
,,,,,,,,,,,,,FF,,,,,,,,1.0238,,,,,,,,,,,,,,,,,,,,,,610050997aff9a6e73bccaad,6103741073908f631258f8ef,2021-07-29_20h58.22.549,Simcolourproject_2stim_asymm_v5,2020.2.10,Win32,60,61025ae37ef11b136ea224fe,,,,,,,,,647,30.78588787,-86.21430796,1,0,0,response3disk,,4,4.500172411,-6.214304388,1,0,0,rectangle,4.500172411,-6.214304388,1,0,0,4.500172411,-6.214304388,1,0,0,1,56,216,122,1,,,,,,,,
,,,,,,,,,,,,,FF,,,,,,,,0.9667,,,,,,,,,,,,,,,,,,,,,,610050997aff9a6e73bccaad,6103741073908f631258f8ef,2021-07-29_20h58.22.549,Simcolourproject_2stim_asymm_v5,2020.2.10,Win32,60,61025ae37ef11b136ea224fe,,,,,,,,,172,-40.64282626,121.7857013,1,0,0,response7disk,,0,-4.64282465,8.642839134,1,0,0,rectangle,45.64289188,88.07141411,1,0,0,6.785886799,-9.071447372,1,0,0,1,57,217,148,1,,response1disk_3,TRUE,7,7,"[206,321,15,103,3,0,174,149,13,146,237,320,315,164,218,321,194,24,245,259]",3.1327,rectangle
,,,,,,,,,,,,,FF,,,,,,,,1.1014,,,,,,,,,,,,,,,,,,,,,,610050997aff9a6e73bccaad,6103741073908f631258f8ef,2021-07-29_20h58.22.549,Simcolourproject_2stim_asymm_v5,2020.2.10,Win32,60,61025ae37ef11b136ea224fe,,,,,,,,,1137,-94.35711437,-44.50009014,1,0,0,response5disk,,2,-4.64282465,-5.642945545,1,0,0,rectangle,-4.64282465,-5.642945545,1,0,0,-4.64282465,-5.642945545,1,0,0,1,58,218,121,1,,,,,,,,
,,,,,,,,,,,,,FF,,,,,,,,2.0669,,,,,,,,,,,,,,,,,,,,,,610050997aff9a6e73bccaad,6103741073908f631258f8ef,2021-07-29_20h58.22.549,Simcolourproject_2stim_asymm_v5,2020.2.10,Win32,60,61025ae37ef11b136ea224fe,,,,,,,,,3924,37.64289153,-69.64294841,1,0,0,response3disk,,4,22.78588751,-3.92859,1,0,0,rectangle,22.78588751,-3.92859,1,0,0,22.78588751,-3.92859,1,0,0,1,59,219,50,1,,,,,,,,
,,,,,,,,,,,,,FF,,,,,,,,1.8835,,,,,,,,,,,,,,,,,,,,,,610050997aff9a6e73bccaad,6103741073908f631258f8ef,2021-07-29_20h58.22.549,Simcolourproject_2stim_asymm_v5,2020.2.10,Win32,60,61025ae37ef11b136ea224fe,,,,,,,,,378,-29.21411481,-90.21430814,1,0,0,response5disk,,3,3.928604305,-3.92859,1,0,0,rectangle,3.928604305,-3.92859,1,0,0,3.928604305,-3.92859,1,0,0,1,60,220,23,1,,,,,,,,
,,,,,,,,,,,,,FF,,,,,,,,0.8662,,,,,,,,,,,,,,,,,,,,,,610050997aff9a6e73bccaad,6103741073908f631258f8ef,2021-07-29_20h58.22.549,Simcolourproject_2stim_asymm_v5,2020.2.10,Win32,60,61025ae37ef11b136ea224fe,,,,,,,,,2193,54.78588894,-26.78580363,1,0,0,response3disk,,5,2.214318514,10.35705517,1,0,0,rectangle,2.214318514,10.35705517,1,0,0,2.214318514,10.35705517,1,0,0,1,61,221,146,1,,,,,,,,
,,,,,,,,,,,,,FF,,,,,,,,1.4009,,,,,,,,,,,,,,,,,,,,,,610050997aff9a6e73bccaad,6103741073908f631258f8ef,2021-07-29_20h58.22.549,Simcolourproject_2stim_asymm_v5,2020.2.10,Win32,60,61025ae37ef11b136ea224fe,,,,,,,,,1903,-46.35711223,-69.07145005,1,0,0,response5disk,,3,-4.64282465,-5.642945545,1,0,0,rectangle,-4.64282465,-5.642945545,1,0,0,-4.64282465,-5.642945545,1,0,0,1,62,222,22,1,,,,,,,,
,,,,,,,,,,,,,FF,,,,,,,,2.4164,,,,,,,,,,,,,,,,,,,,,,610050997aff9a6e73bccaad,6103741073908f631258f8ef,2021-07-29_20h58.22.549,Simcolourproject_2stim_asymm_v5,2020.2.10,Win32,60,61025ae37ef11b136ea224fe,,,,,,,,,1554,26.78588769,-90.78580649,1,0,0,response3disk,,4,-0.642824471,1.214197619,1,0,0,rectangle,-0.642824471,1.214197619,1,0,0,-0.642824471,1.214197619,1,0,0,1,63,223,111,1,,,,,,,,
,,,,,,,,,,,,,FF,,,,,,,,1.3554,,,,,,,,,,,,,,,,,,,,,,610050997aff9a6e73bccaad,6103741073908f631258f8ef,2021-07-29_20h58.22.549,Simcolourproject_2stim_asymm_v5,2020.2.10,Win32,60,61025ae37ef11b136ea224fe,,,,,,,,,1059,66.21432137,-45.07144898,1,0,0,response3disk,,5,11.35717607,0.642838776,1,0,0,rectangle,11.35717607,0.642838776,1,0,0,11.35717607,0.642838776,1,0,0,1,64,224,140,1,,,,,,,,
,,,,,,,,,,,,,FF,,,,,,,,1.6165,,,,,,,,,,,,,,,,,,,,,,610050997aff9a6e73bccaad,6103741073908f631258f8ef,2021-07-29_20h58.22.549,Simcolourproject_2stim_asymm_v5,2020.2.10,Win32,60,61025ae37ef11b136ea224fe,,,,,,,,,829,-34.92840078,-38.78580417,1,0,0,response5disk,,3,-1.214113559,14.35705535,1,0,0,rectangle,-1.214113559,14.35705535,1,0,0,-1.214113559,14.35705535,1,0,0,1,65,225,133,1,,,,,,,,
,,,,,,,,,,,,,FF,,,,,,,,2.4334,,,,,,,,,,,,,,,,,,,,,,610050997aff9a6e73bccaad,6103741073908f631258f8ef,2021-07-29_20h58.22.549,Simcolourproject_2stim_asymm_v5,2020.2.10,Win32,60,61025ae37ef11b136ea224fe,,,,,,,,,2087,43.92860609,-94.21430832,1,0,0,response3disk,,4,5.642890096,0.642838776,1,0,0,rectangle,5.642890096,0.642838776,1,0,0,5.642890096,0.642838776,1,0,0,1,66,226,37,1,,,,,,,,
,,,,,,,,,,,,,FF,,,,,,,,2.5337,,,,,,,,,,,,,,,,,,,,,,610050997aff9a6e73bccaad,6103741073908f631258f8ef,2021-07-29_20h58.22.549,Simcolourproject_2stim_asymm_v5,2020.2.10,Win32,60,61025ae37ef11b136ea224fe,,,,,,,,,2851,109.6428947,42.92855495,1,0,0,response1disk,,6,2.78588662,0.642838776,1,0,0,rectangle,2.78588662,0.642838776,1,0,0,2.78588662,0.642838776,1,0,0,1,67,227,134,1,,,,,,,,
,,,,,,,,,,,,,FF,,,,,,,,1.2334,,,,,,,,,,,,,,,,,,,,,,610050997aff9a6e73bccaad,6103741073908f631258f8ef,2021-07-29_20h58.22.549,Simcolourproject_2stim_asymm_v5,2020.2.10,Win32,60,61025ae37ef11b136ea224fe,,,,,,,,,2024,83.92860788,50.92855531,1,0,0,response1disk,,6,-25.21411463,-2.78580256,1,0,0,rectangle,-25.21411463,-2.78580256,1,0,0,-25.21411463,-2.78580256,1,0,0,1,68,228,57,1,,,,,,,,
,,,,,,,,,,,,,FF,,,,,,,,1.3997,,,,,,,,,,,,,,,,,,,,,,610050997aff9a6e73bccaad,6103741073908f631258f8ef,2021-07-29_20h58.22.549,Simcolourproject_2stim_asymm_v5,2020.2.10,Win32,60,61025ae37ef11b136ea224fe,,,,,,,,,81,-63.49997014,-50.21430635,1,0,0,response5disk,,2,-10.92839971,-7.357161582,1,0,0,rectangle,-10.92839971,-7.357161582,1,0,0,-10.92839971,-7.357161582,1,0,0,1,69,229,68,1,,,,,,,,
,,,,,,,,,,,,,FF,,,,,,,,0.8171,,,,,,,,,,,,,,,,,,,,,,610050997aff9a6e73bccaad,6103741073908f631258f8ef,2021-07-29_20h58.22.549,Simcolourproject_2stim_asymm_v5,2020.2.10,Win32,60,61025ae37ef11b136ea224fe,,,,,,,,,1550,66.21432137,-26.21430528,1,0,0,response3disk,,5,11.92860466,-7.357161582,1,0,0,rectangle,11.92860466,-7.357161582,1,0,0,11.92860466,-7.357161582,1,0,0,1,70,230,35,1,,,,,,,,
,,,,,,,,,,,,,FF,,,,,,,,0.7666,,,,,,,,,,,,,,,,,,,,,,610050997aff9a6e73bccaad,6103741073908f631258f8ef,2021-07-29_20h58.22.549,Simcolourproject_2stim_asymm_v5,2020.2.10,Win32,60,61025ae37ef11b136ea224fe,,,,,,,,,278,-40.07139766,102.3570593,1,0,0,response7disk,,0,11.35717607,-6.785802739,1,0,0,rectangle,11.35717607,-6.785802739,1,0,0,11.35717607,-6.785802739,1,0,0,1,71,231,26,1,,,,,,,,
,,,,,,,,,,,,,FF,,,,,,,,0.9668,,,,,,,,,,,,,,,,,,,,,,610050997aff9a6e73bccaad,6103741073908f631258f8ef,2021-07-29_20h58.22.549,Simcolourproject_2stim_asymm_v5,2020.2.10,Win32,60,61025ae37ef11b136ea224fe,,,,,,,,,3007,-58.35711277,78.35705821,1,0,0,response7disk,,0,-10.35711062,7.499912185,1,0,0,rectangle,-10.35711062,7.499912185,1,0,0,-10.35711062,7.499912185,1,0,0,1,72,232,159,1,,,,,,,,
,,,,,,,,,,,,,FF,,,,,,,,1.0438,,,,,,,,,,,,,,,,,,,,,,610050997aff9a6e73bccaad,6103741073908f631258f8ef,2021-07-29_20h58.22.549,Simcolourproject_2stim_asymm_v5,2020.2.10,Win32,60,61025ae37ef11b136ea224fe,,,,,,,,,1853,80.50017581,-30.21430546,1,0,0,response3disk,,5,26.78588769,-6.785802739,1,0,0,rectangle,26.78588769,-6.785802739,1,0,0,26.78588769,-6.785802739,1,0,0,1,73,233,46,1,,,,,,,,
,,,,,,,,,,,,,FF,,,,,,,,1.8004,,,,,,,,,,,,,,,,,,,,,,610050997aff9a6e73bccaad,6103741073908f631258f8ef,2021-07-29_20h58.22.549,Simcolourproject_2stim_asymm_v5,2020.2.10,Win32,60,61025ae37ef11b136ea224fe,,,,,,,,,479,93.64289403,46.35705678,1,0,0,response1disk,,6,-4.64282465,5.214197797,1,0,0,rectangle,-4.64282465,5.214197797,1,0,0,-4.64282465,5.214197797,1,0,0,1,74,234,33,1,,,,,,,,
,,,,,,,,,,,,,FF,,,,,,,,1.8496,,,,,,,,,,,,,,,,,,,,,,610050997aff9a6e73bccaad,6103741073908f631258f8ef,2021-07-29_20h58.22.549,Simcolourproject_2stim_asymm_v5,2020.2.10,Win32,60,61025ae37ef11b136ea224fe,,,,,,,,,404,31.92860556,-83.92859358,1,0,0,response3disk,,4,7.928604484,10.92855352,1,0,0,rectangle,7.928604484,10.92855352,1,0,0,7.928604484,10.92855352,1,0,0,1,75,235,83,1,,,,,,,,
,,,,,,,,,,,,,FF,,,,,,,,1.6337,,,,,,,,,,,,,,,,,,,,,,610050997aff9a6e73bccaad,6103741073908f631258f8ef,2021-07-29_20h58.22.549,Simcolourproject_2stim_asymm_v5,2020.2.10,Win32,60,61025ae37ef11b136ea224fe,,,,,,,,,845,88.50017617,-45.64294733,1,0,0,response3disk,,5,13.64289045,-3.92859,1,0,0,rectangle,-80.64282805,-42.78580435,1,0,0,4.500172411,9.214197976,1,0,0,1,76,236,7,1,,response5disk_3,TRUE,2,2,"[206,321,15,103,3,0,174,149,13,146,237,320,315,164,218,321,194,24,245,259]",1.6172,rectangle
,,,,,,,,,,,,,FF,,,,,,,,0.8501,,,,,,,,,,,,,,,,,,,,,,610050997aff9a6e73bccaad,6103741073908f631258f8ef,2021-07-29_20h58.22.549,Simcolourproject_2stim_asymm_v5,2020.2.10,Win32,60,61025ae37ef11b136ea224fe,,,,,,,,,256,-64.64282733,36.07141179,1,0,0,response7disk,,1,1.071600829,-4.500088351,1,0,0,rectangle,1.071600829,-4.500088351,1,0,0,1.071600829,-4.500088351,1,0,0,1,77,237,67,1,,,,,,,,
,,,,,,,,,,,,,FF,,,,,,,,2.183,,,,,,,,,,,,,,,,,,,,,,610050997aff9a6e73bccaad,6103741073908f631258f8ef,2021-07-29_20h58.22.549,Simcolourproject_2stim_asymm_v5,2020.2.10,Win32,60,61025ae37ef11b136ea224fe,,,,,,,,,1296,-65.21411642,-44.50009014,1,0,0,response5disk,,2,-8.071396232,4.071410358,1,0,0,rectangle,-8.071396232,4.071410358,1,0,0,-8.071396232,4.071410358,1,0,0,1,78,238,155,1,,,,,,,,
,,,,,,,,,,,,,FF,,,,,,,,1.2335,,,,,,,,,,,,,,,,,,,,,,610050997aff9a6e73bccaad,6103741073908f631258f8ef,2021-07-29_20h58.22.549,Simcolourproject_2stim_asymm_v5,2020.2.10,Win32,60,61025ae37ef11b136ea224fe,,,,,,,,,782,51.92860645,-93.64294948,1,0,0,response3disk,,4,-4.071396053,2.357054813,1,0,0,rectangle,-4.071396053,2.357054813,1,0,0,-4.071396053,2.357054813,1,0,0,1,79,239,92,1,,,,,,,,
,,,,,,,,,,,,,FF,,,,,,,,0.9004,,,,,,,,,,,,,,,,,,,,,,610050997aff9a6e73bccaad,6103741073908f631258f8ef,2021-07-29_20h58.22.549,Simcolourproject_2stim_asymm_v5,2020.2.10,Win32,60,61025ae37ef11b136ea224fe,,,,,,,,,2503,77.07160423,-35.35723259,1,0,0,response3disk,,5,-4.071396053,6.928553343,1,0,0,rectangle,-4.071396053,6.928553343,1,0,0,-4.071396053,6.928553343,1,0,0,1,80,240,61,1,,,,,,,,
,,,,,,,,,,,,,FF,,,,,,,,0.9833,,,,,,,,,,,,,,,,,,,,,,610050997aff9a6e73bccaad,6103741073908f631258f8ef,2021-07-29_20h58.22.549,Simcolourproject_2stim_asymm_v5,2020.2.10,Win32,60,61025ae37ef11b136ea224fe,,,,,,,,,698,-52.6428268,-99.92859429,1,0,0,response5disk,,3,-8.642824829,-4.500088351,1,0,0,rectangle,-8.642824829,-4.500088351,1,0,0,-8.642824829,-4.500088351,1,0,0,1,81,241,137,1,,,,,,,,
,,,,,,,,,,,,,FF,,,,,,,,2.0666,,,,,,,,,,,,,,,,,,,,,,610050997aff9a6e73bccaad,6103741073908f631258f8ef,2021-07-29_20h58.22.549,Simcolourproject_2stim_asymm_v5,2020.2.10,Win32,60,61025ae37ef11b136ea224fe,,,,,,,,,305,68.50017527,-27.92859107,1,0,0,response3disk,,5,-1.214113559,9.785696328,1,0,0,rectangle,-1.214113559,9.785696328,1,0,0,-1.214113559,9.785696328,1,0,0,1,82,242,115,1,,,,,,,,
,,,,,,,,,,,,,FF,,,,,,,,0.9007,,,,,,,,,,,,,,,,,,,,,,610050997aff9a6e73bccaad,6103741073908f631258f8ef,2021-07-29_20h58.22.549,Simcolourproject_2stim_asymm_v5,2020.2.10,Win32,60,61025ae37ef11b136ea224fe,,,,,,,,,295,73.07160405,31.49991326,1,0,0,response1disk,,6,5.071601008,-4.500088351,1,0,0,rectangle,5.071601008,-4.500088351,1,0,0,5.071601008,-4.500088351,1,0,0,1,83,243,91,1,,,,,,,,
