key_resp.keys,key_resp.rt,key_resp_14.keys,key_resp_14.rt,key_resp_15.keys,key_resp_15.rt,key_resp_17.keys,key_resp_17.rt,key_resp_9.keys,key_resp_9.rt,key_resp_10.keys,key_resp_10.rt,practice_comparison,Ecc,mouse_5.x,mouse_5.y,mouse_5.leftButton,mouse_5.midButton,mouse_5.rightButton,mouse_5.clicked_name,pracsimilarity,response_time,mouse_10.x,mouse_10.y,mouse_10.leftButton,mouse_10.midButton,mouse_10.rightButton,mouse_10.clicked_name,mouse_7.x,mouse_7.y,mouse_7.leftButton,mouse_7.midButton,mouse_7.rightButton,mouse_6.x,mouse_6.y,mouse_6.leftButton,mouse_6.midButton,mouse_6.rightButton,duringprac.thisRepN,duringprac.thisTrialN,duringprac.thisN,duringprac.thisIndex,duringprac.ran,participant,session,date,expName,psychopyVersion,OS,frameRate,study_id,mouse_7.clicked_name,catchpracsimilarity,catch_response_time,catchnumberprac,catchtrialorderprac,mouse_6.clicked_name,key_resp_22.keys,key_resp_22.rt,realcomparison,mouse.x,mouse.y,mouse.leftButton,mouse.midButton,mouse.rightButton,mouse.clicked_name,Colour2,similarity,mouse_2.x,mouse_2.y,mouse_2.leftButton,mouse_2.midButton,mouse_2.rightButton,mouse_2.clicked_name,mouse_3.x,mouse_3.y,mouse_3.leftButton,mouse_3.midButton,mouse_3.rightButton,mouse_11.x,mouse_11.y,mouse_11.leftButton,mouse_11.midButton,mouse_11.rightButton,trials_2.thisRepN,trials_2.thisTrialN,trials_2.thisN,trials_2.thisIndex,trials_2.ran,Colour1,mouse_3.clicked_name,catchornah,catchsimilarity,catchnumber,catchtrialorder,catchRT,mouse_11.clicked_name
space,1.2197,space,55.3478,space,44.037,space,12.8805,space,0.9026,space,3.4128,48,FF,27,58,1,0,0,response1disk_5,7,9.9617,0,-5,1,0,0,rectangle_8,0,-5,1,0,0,0,-5,1,0,0,0,0,0,5,1,610049238423f388e4bd4a32,6103686bd281cbf50c8e6ed9,2021-07-29_22h53.23.389,Simcolourproject_2stim_asymm_v5,2020.2.10,Win32,60,61025ae37ef11b136ea224fe,,,,,,,,,,,,,,,,,,,,,,,,,,,,,,,,,,,,,,,,,,,,,,
,,,,,,,,,,,,27,FF,-31,-53,1,0,0,response5disk_5,3,4.0256,-13,-5,1,0,0,rectangle_8,-61,25,1,0,0,-3,-7,1,0,0,0,1,1,3,1,610049238423f388e4bd4a32,6103686bd281cbf50c8e6ed9,2021-07-29_22h53.23.389,Simcolourproject_2stim_asymm_v5,2020.2.10,Win32,60,61025ae37ef11b136ea224fe,response7disk_7,1,2.3517,1,"[2,5]",rectangle_4,,,,,,,,,,,,,,,,,,,,,,,,,,,,,,,,,,,,,,,,
,,,,,,,,,,,,40,PF,31,59,1,0,0,response1disk_5,7,2.4759,10,6,1,0,0,rectangle_8,10,6,1,0,0,10,6,1,0,0,0,2,2,4,1,610049238423f388e4bd4a32,6103686bd281cbf50c8e6ed9,2021-07-29_22h53.23.389,Simcolourproject_2stim_asymm_v5,2020.2.10,Win32,60,61025ae37ef11b136ea224fe,,,,,,,,,,,,,,,,,,,,,,,,,,,,,,,,,,,,,,,,,,,,,,
,,,,,,,,,,,,142,PF,-24,-48,1,0,0,response5disk_5,3,1.9258,-7,-4,1,0,0,rectangle_8,-7,-4,1,0,0,-7,-4,1,0,0,0,3,3,2,1,610049238423f388e4bd4a32,6103686bd281cbf50c8e6ed9,2021-07-29_22h53.23.389,Simcolourproject_2stim_asymm_v5,2020.2.10,Win32,60,61025ae37ef11b136ea224fe,,,,,,,,,,,,,,,,,,,,,,,,,,,,,,,,,,,,,,,,,,,,,,
,,,,,,,,,,,,103,PF,-46,-19,1,0,0,response5disk_5,2,1.6259,-7,0,1,0,0,rectangle_8,-59,30,1,0,0,-3,5,1,0,0,0,4,4,6,1,610049238423f388e4bd4a32,6103686bd281cbf50c8e6ed9,2021-07-29_22h53.23.389,Simcolourproject_2stim_asymm_v5,2020.2.10,Win32,60,61025ae37ef11b136ea224fe,response7disk_7,1,1.4754,1,"[2,5]",rectangle_4,,,,,,,,,,,,,,,,,,,,,,,,,,,,,,,,,,,,,,,,
,,,,,,,,,,,,79,FF,-16,-53,1,0,0,response5disk_5,3,5.3264,10,-5,1,0,0,rectangle_8,10,-5,1,0,0,10,-5,1,0,0,0,5,5,0,1,610049238423f388e4bd4a32,6103686bd281cbf50c8e6ed9,2021-07-29_22h53.23.389,Simcolourproject_2stim_asymm_v5,2020.2.10,Win32,60,61025ae37ef11b136ea224fe,,,,,,,,,,,,,,,,,,,,,,,,,,,,,,,,,,,,,,,,,,,,,,
,,,,,,,,,,,,28,PF,-22,-41,1,0,0,response5disk_5,3,2.2753,-11,-14,1,0,0,rectangle_8,-11,-14,1,0,0,-11,-14,1,0,0,0,6,6,1,1,610049238423f388e4bd4a32,6103686bd281cbf50c8e6ed9,2021-07-29_22h53.23.389,Simcolourproject_2stim_asymm_v5,2020.2.10,Win32,60,61025ae37ef11b136ea224fe,,,,,,,,,,,,,,,,,,,,,,,,,,,,,,,,,,,,,,,,,,,,,,
,,,,,,,,,,,,,FF,,,,,,,,2.7228,,,,,,,,,,,,,,,,,,,,,,610049238423f388e4bd4a32,6103686bd281cbf50c8e6ed9,2021-07-29_22h53.23.389,Simcolourproject_2stim_asymm_v5,2020.2.10,Win32,60,61025ae37ef11b136ea224fe,,,,,,,space,3.544,2828,58,21,1,0,0,response1disk,,6,30,-7,1,0,0,rectangle,30,-7,1,0,0,30,-7,1,0,0,0,0,0,73,1,,,,,,,,
,,,,,,,,,,,,,FF,,,,,,,,5.227,,,,,,,,,,,,,,,,,,,,,,610049238423f388e4bd4a32,6103686bd281cbf50c8e6ed9,2021-07-29_22h53.23.389,Simcolourproject_2stim_asymm_v5,2020.2.10,Win32,60,61025ae37ef11b136ea224fe,,,,,,,,,1388,35,-23,1,0,0,response3disk,,5,27,-4,1,0,0,rectangle,27,-4,1,0,0,27,-4,1,0,0,0,1,1,7,1,,,,,,,,
,,,,,,,,,,,,,FF,,,,,,,,1.2495,,,,,,,,,,,,,,,,,,,,,,610049238423f388e4bd4a32,6103686bd281cbf50c8e6ed9,2021-07-29_22h53.23.389,Simcolourproject_2stim_asymm_v5,2020.2.10,Win32,60,61025ae37ef11b136ea224fe,,,,,,,,,2188,50,22,1,0,0,response1disk,,6,34,0,1,0,0,rectangle,20,59,1,0,0,16,3,1,0,0,0,2,2,116,1,,response1disk_3,TRUE,7,7,"[37,319,167,192,173,23,27,43,302,269,323,49,3,157,248,90,66,102,77,297]",1.8517,rectangle
,,,,,,,,,,,,,FF,,,,,,,,3.9226,,,,,,,,,,,,,,,,,,,,,,610049238423f388e4bd4a32,6103686bd281cbf50c8e6ed9,2021-07-29_22h53.23.389,Simcolourproject_2stim_asymm_v5,2020.2.10,Win32,60,61025ae37ef11b136ea224fe,,,,,,,,,4129,30,-36,1,0,0,response3disk,,4,16,0,1,0,0,rectangle,16,0,1,0,0,16,0,1,0,0,0,3,3,130,1,,,,,,,,
,,,,,,,,,,,,,FF,,,,,,,,1.6007,,,,,,,,,,,,,,,,,,,,,,610049238423f388e4bd4a32,6103686bd281cbf50c8e6ed9,2021-07-29_22h53.23.389,Simcolourproject_2stim_asymm_v5,2020.2.10,Win32,60,61025ae37ef11b136ea224fe,,,,,,,,,3002,18,-30,1,0,0,response3disk,,4,15,-6,1,0,0,rectangle,15,-6,1,0,0,15,-6,1,0,0,0,4,4,13,1,,,,,,,,
,,,,,,,,,,,,,FF,,,,,,,,1.3009,,,,,,,,,,,,,,,,,,,,,,610049238423f388e4bd4a32,6103686bd281cbf50c8e6ed9,2021-07-29_22h53.23.389,Simcolourproject_2stim_asymm_v5,2020.2.10,Win32,60,61025ae37ef11b136ea224fe,,,,,,,,,4159,-38,-19,1,0,0,response5disk,,2,-15,2,1,0,0,rectangle,-15,2,1,0,0,-15,2,1,0,0,0,5,5,144,1,,,,,,,,
,,,,,,,,,,,,,FF,,,,,,,,1.1255,,,,,,,,,,,,,,,,,,,,,,610049238423f388e4bd4a32,6103686bd281cbf50c8e6ed9,2021-07-29_22h53.23.389,Simcolourproject_2stim_asymm_v5,2020.2.10,Win32,60,61025ae37ef11b136ea224fe,,,,,,,,,1966,-15,-42,1,0,0,response5disk,,3,1,-3,1,0,0,rectangle,1,-3,1,0,0,1,-3,1,0,0,0,6,6,128,1,,,,,,,,
,,,,,,,,,,,,,FF,,,,,,,,1.1468,,,,,,,,,,,,,,,,,,,,,,610049238423f388e4bd4a32,6103686bd281cbf50c8e6ed9,2021-07-29_22h53.23.389,Simcolourproject_2stim_asymm_v5,2020.2.10,Win32,60,61025ae37ef11b136ea224fe,,,,,,,,,597,20,-43,1,0,0,response3disk,,4,2,-4,1,0,0,rectangle,2,-4,1,0,0,2,-4,1,0,0,0,7,7,110,1,,,,,,,,
,,,,,,,,,,,,,FF,,,,,,,,1.0755,,,,,,,,,,,,,,,,,,,,,,610049238423f388e4bd4a32,6103686bd281cbf50c8e6ed9,2021-07-29_22h53.23.389,Simcolourproject_2stim_asymm_v5,2020.2.10,Win32,60,61025ae37ef11b136ea224fe,,,,,,,,,2204,-22,-31,1,0,0,response5disk,,3,-2,1,1,0,0,rectangle,-2,1,1,0,0,-2,1,1,0,0,0,8,8,25,1,,,,,,,,
,,,,,,,,,,,,,FF,,,,,,,,1.676,,,,,,,,,,,,,,,,,,,,,,610049238423f388e4bd4a32,6103686bd281cbf50c8e6ed9,2021-07-29_22h53.23.389,Simcolourproject_2stim_asymm_v5,2020.2.10,Win32,60,61025ae37ef11b136ea224fe,,,,,,,,,32,-42,21,1,0,0,response7disk,,1,-19,2,1,0,0,rectangle,-19,2,1,0,0,-19,2,1,0,0,0,9,9,133,1,,,,,,,,
,,,,,,,,,,,,,FF,,,,,,,,2.0758,,,,,,,,,,,,,,,,,,,,,,610049238423f388e4bd4a32,6103686bd281cbf50c8e6ed9,2021-07-29_22h53.23.389,Simcolourproject_2stim_asymm_v5,2020.2.10,Win32,60,61025ae37ef11b136ea224fe,,,,,,,,,4226,-25,-34,1,0,0,response5disk,,3,-16,-9,1,0,0,rectangle,-16,-9,1,0,0,-16,-9,1,0,0,0,10,10,17,1,,,,,,,,
,,,,,,,,,,,,,FF,,,,,,,,0.8256,,,,,,,,,,,,,,,,,,,,,,610049238423f388e4bd4a32,6103686bd281cbf50c8e6ed9,2021-07-29_22h53.23.389,Simcolourproject_2stim_asymm_v5,2020.2.10,Win32,60,61025ae37ef11b136ea224fe,,,,,,,,,2609,42,-22,1,0,0,response3disk,,5,0,1,1,0,0,rectangle,0,1,1,0,0,0,1,1,0,0,0,11,11,122,1,,,,,,,,
,,,,,,,,,,,,,FF,,,,,,,,0.5994,,,,,,,,,,,,,,,,,,,,,,610049238423f388e4bd4a32,6103686bd281cbf50c8e6ed9,2021-07-29_22h53.23.389,Simcolourproject_2stim_asymm_v5,2020.2.10,Win32,60,61025ae37ef11b136ea224fe,,,,,,,,,3641,30,-18,1,0,0,response3disk,,5,9,-6,1,0,0,rectangle,9,-6,1,0,0,9,-6,1,0,0,0,12,12,51,1,,,,,,,,
,,,,,,,,,,,,,FF,,,,,,,,3.4253,,,,,,,,,,,,,,,,,,,,,,610049238423f388e4bd4a32,6103686bd281cbf50c8e6ed9,2021-07-29_22h53.23.389,Simcolourproject_2stim_asymm_v5,2020.2.10,Win32,60,61025ae37ef11b136ea224fe,,,,,,,,,3268,48,31,1,0,0,response1disk,,6,36,-6,1,0,0,rectangle,36,-6,1,0,0,36,-6,1,0,0,0,13,13,85,1,,,,,,,,
,,,,,,,,,,,,,FF,,,,,,,,0.9,,,,,,,,,,,,,,,,,,,,,,610049238423f388e4bd4a32,6103686bd281cbf50c8e6ed9,2021-07-29_22h53.23.389,Simcolourproject_2stim_asymm_v5,2020.2.10,Win32,60,61025ae37ef11b136ea224fe,,,,,,,,,2517,-20,-49,1,0,0,response5disk,,3,-1,-7,1,0,0,rectangle,-1,-7,1,0,0,-1,-7,1,0,0,0,14,14,80,1,,,,,,,,
,,,,,,,,,,,,,FF,,,,,,,,1.2752,,,,,,,,,,,,,,,,,,,,,,610049238423f388e4bd4a32,6103686bd281cbf50c8e6ed9,2021-07-29_22h53.23.389,Simcolourproject_2stim_asymm_v5,2020.2.10,Win32,60,61025ae37ef11b136ea224fe,,,,,,,,,4045,19,-35,1,0,0,response3disk,,4,12,-7,1,0,0,rectangle,12,-7,1,0,0,12,-7,1,0,0,0,15,15,126,1,,,,,,,,
,,,,,,,,,,,,,FF,,,,,,,,0.7251,,,,,,,,,,,,,,,,,,,,,,610049238423f388e4bd4a32,6103686bd281cbf50c8e6ed9,2021-07-29_22h53.23.389,Simcolourproject_2stim_asymm_v5,2020.2.10,Win32,60,61025ae37ef11b136ea224fe,,,,,,,,,210,-37,-20,1,0,0,response5disk,,2,-2,-3,1,0,0,rectangle,-2,-3,1,0,0,-2,-3,1,0,0,0,16,16,138,1,,,,,,,,
,,,,,,,,,,,,,FF,,,,,,,,2.7006,,,,,,,,,,,,,,,,,,,,,,610049238423f388e4bd4a32,6103686bd281cbf50c8e6ed9,2021-07-29_22h53.23.389,Simcolourproject_2stim_asymm_v5,2020.2.10,Win32,60,61025ae37ef11b136ea224fe,,,,,,,,,3774,-19,-45,1,0,0,response5disk,,3,-6,-6,1,0,0,rectangle,-6,-6,1,0,0,-6,-6,1,0,0,0,17,17,15,1,,,,,,,,
,,,,,,,,,,,,,FF,,,,,,,,2.7257,,,,,,,,,,,,,,,,,,,,,,610049238423f388e4bd4a32,6103686bd281cbf50c8e6ed9,2021-07-29_22h53.23.389,Simcolourproject_2stim_asymm_v5,2020.2.10,Win32,60,61025ae37ef11b136ea224fe,,,,,,,,,2769,-40,20,1,0,0,response7disk,,1,-28,-2,1,0,0,rectangle,-28,-2,1,0,0,-28,-2,1,0,0,0,18,18,140,1,,,,,,,,
,,,,,,,,,,,,,FF,,,,,,,,0.7504,,,,,,,,,,,,,,,,,,,,,,610049238423f388e4bd4a32,6103686bd281cbf50c8e6ed9,2021-07-29_22h53.23.389,Simcolourproject_2stim_asymm_v5,2020.2.10,Win32,60,61025ae37ef11b136ea224fe,,,,,,,,,2282,-37,-26,1,0,0,response5disk,,2,3,-5,1,0,0,rectangle,3,-5,1,0,0,3,-5,1,0,0,0,19,19,22,1,,,,,,,,
,,,,,,,,,,,,,FF,,,,,,,,0.775,,,,,,,,,,,,,,,,,,,,,,610049238423f388e4bd4a32,6103686bd281cbf50c8e6ed9,2021-07-29_22h53.23.389,Simcolourproject_2stim_asymm_v5,2020.2.10,Win32,60,61025ae37ef11b136ea224fe,,,,,,,,,1757,-50,-16,1,0,0,response5disk,,2,-8,3,1,0,0,rectangle,-8,3,1,0,0,-8,3,1,0,0,0,20,20,19,1,,,,,,,,
,,,,,,,,,,,,,FF,,,,,,,,3.8506,,,,,,,,,,,,,,,,,,,,,,610049238423f388e4bd4a32,6103686bd281cbf50c8e6ed9,2021-07-29_22h53.23.389,Simcolourproject_2stim_asymm_v5,2020.2.10,Win32,60,61025ae37ef11b136ea224fe,,,,,,,,,472,27,50,1,0,0,response1disk,,7,11,6,1,0,0,rectangle,11,6,1,0,0,11,6,1,0,0,0,21,21,158,1,,,,,,,,
,,,,,,,,,,,,,FF,,,,,,,,1.2255,,,,,,,,,,,,,,,,,,,,,,610049238423f388e4bd4a32,6103686bd281cbf50c8e6ed9,2021-07-29_22h53.23.389,Simcolourproject_2stim_asymm_v5,2020.2.10,Win32,60,61025ae37ef11b136ea224fe,,,,,,,,,4365,48,-29,1,0,0,response3disk,,5,2,-3,1,0,0,rectangle,30,-39,1,0,0,23,8,1,0,0,0,22,22,97,1,,response3disk_3,TRUE,4,4,"[37,319,167,192,173,23,27,43,302,269,323,49,3,157,248,90,66,102,77,297]",1.176,rectangle
,,,,,,,,,,,,,FF,,,,,,,,1.3251,,,,,,,,,,,,,,,,,,,,,,610049238423f388e4bd4a32,6103686bd281cbf50c8e6ed9,2021-07-29_22h53.23.389,Simcolourproject_2stim_asymm_v5,2020.2.10,Win32,60,61025ae37ef11b136ea224fe,,,,,,,,,1555,29,44,1,0,0,response1disk,,7,12,1,1,0,0,rectangle,12,1,1,0,0,12,1,1,0,0,0,23,23,23,1,,,,,,,,
,,,,,,,,,,,,,FF,,,,,,,,2.4253,,,,,,,,,,,,,,,,,,,,,,610049238423f388e4bd4a32,6103686bd281cbf50c8e6ed9,2021-07-29_22h53.23.389,Simcolourproject_2stim_asymm_v5,2020.2.10,Win32,60,61025ae37ef11b136ea224fe,,,,,,,,,735,-20,-41,1,0,0,response5disk,,3,3,-6,1,0,0,rectangle,3,-6,1,0,0,3,-6,1,0,0,0,24,24,14,1,,,,,,,,
,,,,,,,,,,,,,FF,,,,,,,,0.9003,,,,,,,,,,,,,,,,,,,,,,610049238423f388e4bd4a32,6103686bd281cbf50c8e6ed9,2021-07-29_22h53.23.389,Simcolourproject_2stim_asymm_v5,2020.2.10,Win32,60,61025ae37ef11b136ea224fe,,,,,,,,,941,20,-38,1,0,0,response3disk,,4,4,3,1,0,0,rectangle,4,3,1,0,0,4,3,1,0,0,0,25,25,119,1,,,,,,,,
,,,,,,,,,,,,,FF,,,,,,,,0.7246,,,,,,,,,,,,,,,,,,,,,,610049238423f388e4bd4a32,6103686bd281cbf50c8e6ed9,2021-07-29_22h53.23.389,Simcolourproject_2stim_asymm_v5,2020.2.10,Win32,60,61025ae37ef11b136ea224fe,,,,,,,,,3717,-35,-21,1,0,0,response5disk,,2,11,6,1,0,0,rectangle,-54,25,1,0,0,-21,-7,1,0,0,0,26,26,159,1,,response7disk_3,TRUE,1,1,"[37,319,167,192,173,23,27,43,302,269,323,49,3,157,248,90,66,102,77,297]",1.8751,rectangle
,,,,,,,,,,,,,FF,,,,,,,,5.5261,,,,,,,,,,,,,,,,,,,,,,610049238423f388e4bd4a32,6103686bd281cbf50c8e6ed9,2021-07-29_22h53.23.389,Simcolourproject_2stim_asymm_v5,2020.2.10,Win32,60,61025ae37ef11b136ea224fe,,,,,,,,,639,-52,-22,1,0,0,response5disk,,2,-35,-5,1,0,0,rectangle,-35,-5,1,0,0,-35,-5,1,0,0,0,27,27,115,1,,,,,,,,
,,,,,,,,,,,,,FF,,,,,,,,0.475,,,,,,,,,,,,,,,,,,,,,,610049238423f388e4bd4a32,6103686bd281cbf50c8e6ed9,2021-07-29_22h53.23.389,Simcolourproject_2stim_asymm_v5,2020.2.10,Win32,60,61025ae37ef11b136ea224fe,,,,,,,,,4,-38,-21,1,0,0,response5disk,,2,-21,-2,1,0,0,rectangle,-21,-2,1,0,0,-21,-2,1,0,0,0,28,28,121,1,,,,,,,,
,,,,,,,,,,,,,FF,,,,,,,,1.2995,,,,,,,,,,,,,,,,,,,,,,610049238423f388e4bd4a32,6103686bd281cbf50c8e6ed9,2021-07-29_22h53.23.389,Simcolourproject_2stim_asymm_v5,2020.2.10,Win32,60,61025ae37ef11b136ea224fe,,,,,,,,,3536,-42,16,1,0,0,response7disk,,1,-15,1,1,0,0,rectangle,-15,1,1,0,0,-15,1,1,0,0,0,29,29,43,1,,,,,,,,
,,,,,,,,,,,,,FF,,,,,,,,0.5502,,,,,,,,,,,,,,,,,,,,,,610049238423f388e4bd4a32,6103686bd281cbf50c8e6ed9,2021-07-29_22h53.23.389,Simcolourproject_2stim_asymm_v5,2020.2.10,Win32,60,61025ae37ef11b136ea224fe,,,,,,,,,3649,-46,29,1,0,0,response7disk,,1,-19,5,1,0,0,rectangle,-19,5,1,0,0,-19,5,1,0,0,0,30,30,42,1,,,,,,,,
,,,,,,,,,,,,,FF,,,,,,,,0.4246,,,,,,,,,,,,,,,,,,,,,,610049238423f388e4bd4a32,6103686bd281cbf50c8e6ed9,2021-07-29_22h53.23.389,Simcolourproject_2stim_asymm_v5,2020.2.10,Win32,60,61025ae37ef11b136ea224fe,,,,,,,,,4022,-49,-16,1,0,0,response5disk,,2,-4,-2,1,0,0,rectangle,-4,-2,1,0,0,-4,-2,1,0,0,0,31,31,151,1,,,,,,,,
,,,,,,,,,,,,,FF,,,,,,,,0.5499,,,,,,,,,,,,,,,,,,,,,,610049238423f388e4bd4a32,6103686bd281cbf50c8e6ed9,2021-07-29_22h53.23.389,Simcolourproject_2stim_asymm_v5,2020.2.10,Win32,60,61025ae37ef11b136ea224fe,,,,,,,,,1823,-39,22,1,0,0,response7disk,,1,-13,-2,1,0,0,rectangle,-13,-2,1,0,0,-13,-2,1,0,0,0,32,32,41,1,,,,,,,,
,,,,,,,,,,,,,FF,,,,,,,,0.7754,,,,,,,,,,,,,,,,,,,,,,610049238423f388e4bd4a32,6103686bd281cbf50c8e6ed9,2021-07-29_22h53.23.389,Simcolourproject_2stim_asymm_v5,2020.2.10,Win32,60,61025ae37ef11b136ea224fe,,,,,,,,,1414,-54,26,1,0,0,response7disk,,1,-13,1,1,0,0,rectangle,-13,1,1,0,0,-13,1,1,0,0,0,33,33,72,1,,,,,,,,
,,,,,,,,,,,,,FF,,,,,,,,1.6999,,,,,,,,,,,,,,,,,,,,,,610049238423f388e4bd4a32,6103686bd281cbf50c8e6ed9,2021-07-29_22h53.23.389,Simcolourproject_2stim_asymm_v5,2020.2.10,Win32,60,61025ae37ef11b136ea224fe,,,,,,,,,1112,34,-25,1,0,0,response3disk,,5,-14,-2,1,0,0,rectangle,-14,-2,1,0,0,-14,-2,1,0,0,0,34,34,6,1,,,,,,,,
,,,,,,,,,,,,,FF,,,,,,,,0.7499,,,,,,,,,,,,,,,,,,,,,,610049238423f388e4bd4a32,6103686bd281cbf50c8e6ed9,2021-07-29_22h53.23.389,Simcolourproject_2stim_asymm_v5,2020.2.10,Win32,60,61025ae37ef11b136ea224fe,,,,,,,,,2532,-46,22,1,0,0,response7disk,,1,-17,0,1,0,0,rectangle,-17,0,1,0,0,-17,0,1,0,0,0,35,35,48,1,,,,,,,,
,,,,,,,,,,,,,FF,,,,,,,,0.7005,,,,,,,,,,,,,,,,,,,,,,610049238423f388e4bd4a32,6103686bd281cbf50c8e6ed9,2021-07-29_22h53.23.389,Simcolourproject_2stim_asymm_v5,2020.2.10,Win32,60,61025ae37ef11b136ea224fe,,,,,,,,,1453,50,-20,1,0,0,response3disk,,5,3,-4,1,0,0,rectangle,17,50,1,0,0,3,3,1,0,0,0,36,36,150,1,,response1disk_3,TRUE,7,7,"[37,319,167,192,173,23,27,43,302,269,323,49,3,157,248,90,66,102,77,297]",1.5254,rectangle
,,,,,,,,,,,,,FF,,,,,,,,3.2501,,,,,,,,,,,,,,,,,,,,,,610049238423f388e4bd4a32,6103686bd281cbf50c8e6ed9,2021-07-29_22h53.23.389,Simcolourproject_2stim_asymm_v5,2020.2.10,Win32,60,61025ae37ef11b136ea224fe,,,,,,,,,2906,24,40,1,0,0,response1disk,,7,15,1,1,0,0,rectangle,15,1,1,0,0,15,1,1,0,0,0,37,37,30,1,,,,,,,,
,,,,,,,,,,,,,FF,,,,,,,,4.3758,,,,,,,,,,,,,,,,,,,,,,610049238423f388e4bd4a32,6103686bd281cbf50c8e6ed9,2021-07-29_22h53.23.389,Simcolourproject_2stim_asymm_v5,2020.2.10,Win32,60,61025ae37ef11b136ea224fe,,,,,,,,,3677,-42,-48,1,0,0,response5disk,,3,-20,-6,1,0,0,rectangle,-20,-6,1,0,0,-20,-6,1,0,0,0,38,38,105,1,,,,,,,,
,,,,,,,,,,,,,FF,,,,,,,,2.5765,,,,,,,,,,,,,,,,,,,,,,610049238423f388e4bd4a32,6103686bd281cbf50c8e6ed9,2021-07-29_22h53.23.389,Simcolourproject_2stim_asymm_v5,2020.2.10,Win32,60,61025ae37ef11b136ea224fe,,,,,,,,,2056,21,50,1,0,0,response1disk,,7,-5,-2,1,0,0,rectangle,-5,-2,1,0,0,-5,-2,1,0,0,0,39,39,78,1,,,,,,,,
,,,,,,,,,,,,,FF,,,,,,,,0.8749,,,,,,,,,,,,,,,,,,,,,,610049238423f388e4bd4a32,6103686bd281cbf50c8e6ed9,2021-07-29_22h53.23.389,Simcolourproject_2stim_asymm_v5,2020.2.10,Win32,60,61025ae37ef11b136ea224fe,,,,,,,,,363,-25,-45,1,0,0,response5disk,,3,-12,-10,1,0,0,rectangle,-12,-10,1,0,0,-12,-10,1,0,0,0,40,40,38,1,,,,,,,,
,,,,,,,,,,,,,FF,,,,,,,,3.4759,,,,,,,,,,,,,,,,,,,,,,610049238423f388e4bd4a32,6103686bd281cbf50c8e6ed9,2021-07-29_22h53.23.389,Simcolourproject_2stim_asymm_v5,2020.2.10,Win32,60,61025ae37ef11b136ea224fe,,,,,,,,,440,28,-43,1,0,0,response3disk,,4,13,-9,1,0,0,rectangle,13,-9,1,0,0,13,-9,1,0,0,0,41,41,26,1,,,,,,,,
,,,,,,,,,,,,,FF,,,,,,,,0.8254,,,,,,,,,,,,,,,,,,,,,,610049238423f388e4bd4a32,6103686bd281cbf50c8e6ed9,2021-07-29_22h53.23.389,Simcolourproject_2stim_asymm_v5,2020.2.10,Win32,60,61025ae37ef11b136ea224fe,,,,,,,,,570,-42,-17,1,0,0,response5disk,,2,-12,11,1,0,0,rectangle,48,-25,1,0,0,19,-5,1,0,0,0,42,42,63,1,,response3disk_3,TRUE,5,5,"[37,319,167,192,173,23,27,43,302,269,323,49,3,157,248,90,66,102,77,297]",1.7498,rectangle
,,,,,,,,,,,,,FF,,,,,,,,1.9255,,,,,,,,,,,,,,,,,,,,,,610049238423f388e4bd4a32,6103686bd281cbf50c8e6ed9,2021-07-29_22h53.23.389,Simcolourproject_2stim_asymm_v5,2020.2.10,Win32,60,61025ae37ef11b136ea224fe,,,,,,,,,1672,34,46,1,0,0,response1disk,,7,32,3,1,0,0,rectangle,32,3,1,0,0,32,3,1,0,0,0,43,43,54,1,,,,,,,,
,,,,,,,,,,,,,FF,,,,,,,,0.6754,,,,,,,,,,,,,,,,,,,,,,610049238423f388e4bd4a32,6103686bd281cbf50c8e6ed9,2021-07-29_22h53.23.389,Simcolourproject_2stim_asymm_v5,2020.2.10,Win32,60,61025ae37ef11b136ea224fe,,,,,,,,,2042,17,54,1,0,0,response1disk,,7,16,7,1,0,0,rectangle,16,7,1,0,0,16,7,1,0,0,0,44,44,102,1,,,,,,,,
,,,,,,,,,,,,,FF,,,,,,,,4.7511,,,,,,,,,,,,,,,,,,,,,,610049238423f388e4bd4a32,6103686bd281cbf50c8e6ed9,2021-07-29_22h53.23.389,Simcolourproject_2stim_asymm_v5,2020.2.10,Win32,60,61025ae37ef11b136ea224fe,,,,,,,,,1472,50,23,1,0,0,response1disk,,6,25,-3,1,0,0,rectangle,25,-3,1,0,0,25,-3,1,0,0,0,45,45,66,1,,,,,,,,
,,,,,,,,,,,,,FF,,,,,,,,1.7497,,,,,,,,,,,,,,,,,,,,,,610049238423f388e4bd4a32,6103686bd281cbf50c8e6ed9,2021-07-29_22h53.23.389,Simcolourproject_2stim_asymm_v5,2020.2.10,Win32,60,61025ae37ef11b136ea224fe,,,,,,,,,125,-21,-38,1,0,0,response5disk,,3,-13,-6,1,0,0,rectangle,-13,-6,1,0,0,-13,-6,1,0,0,0,46,46,141,1,,,,,,,,
,,,,,,,,,,,,,FF,,,,,,,,0.7752,,,,,,,,,,,,,,,,,,,,,,610049238423f388e4bd4a32,6103686bd281cbf50c8e6ed9,2021-07-29_22h53.23.389,Simcolourproject_2stim_asymm_v5,2020.2.10,Win32,60,61025ae37ef11b136ea224fe,,,,,,,,,2815,-35,-20,1,0,0,response5disk,,2,3,-4,1,0,0,rectangle,3,-4,1,0,0,3,-4,1,0,0,0,47,47,124,1,,,,,,,,
,,,,,,,,,,,,,FF,,,,,,,,0.9995,,,,,,,,,,,,,,,,,,,,,,610049238423f388e4bd4a32,6103686bd281cbf50c8e6ed9,2021-07-29_22h53.23.389,Simcolourproject_2stim_asymm_v5,2020.2.10,Win32,60,61025ae37ef11b136ea224fe,,,,,,,,,159,31,-37,1,0,0,response3disk,,4,17,-14,1,0,0,rectangle,-23,43,1,0,0,-22,3,1,0,0,0,48,48,1,1,,response7disk_3,TRUE,0,0,"[37,319,167,192,173,23,27,43,302,269,323,49,3,157,248,90,66,102,77,297]",1.3,rectangle
,,,,,,,,,,,,,FF,,,,,,,,6.8267,,,,,,,,,,,,,,,,,,,,,,610049238423f388e4bd4a32,6103686bd281cbf50c8e6ed9,2021-07-29_22h53.23.389,Simcolourproject_2stim_asymm_v5,2020.2.10,Win32,60,61025ae37ef11b136ea224fe,,,,,,,,,2008,-19,-32,1,0,0,response5disk,,3,-5,-4,1,0,0,rectangle,-5,-4,1,0,0,-5,-4,1,0,0,0,49,49,21,1,,,,,,,,
,,,,,,,,,,,,,FF,,,,,,,,1.9256,,,,,,,,,,,,,,,,,,,,,,610049238423f388e4bd4a32,6103686bd281cbf50c8e6ed9,2021-07-29_22h53.23.389,Simcolourproject_2stim_asymm_v5,2020.2.10,Win32,60,61025ae37ef11b136ea224fe,,,,,,,,,1868,-29,-41,1,0,0,response5disk,,3,-7,-1,1,0,0,rectangle,-7,-1,1,0,0,-7,-1,1,0,0,0,50,50,10,1,,,,,,,,
,,,,,,,,,,,,,FF,,,,,,,,0.8252,,,,,,,,,,,,,,,,,,,,,,610049238423f388e4bd4a32,6103686bd281cbf50c8e6ed9,2021-07-29_22h53.23.389,Simcolourproject_2stim_asymm_v5,2020.2.10,Win32,60,61025ae37ef11b136ea224fe,,,,,,,,,72,-22,49,1,0,0,response7disk,,0,-23,7,1,0,0,rectangle,-23,7,1,0,0,-23,7,1,0,0,0,51,51,109,1,,,,,,,,
,,,,,,,,,,,,,FF,,,,,,,,1.0493,,,,,,,,,,,,,,,,,,,,,,610049238423f388e4bd4a32,6103686bd281cbf50c8e6ed9,2021-07-29_22h53.23.389,Simcolourproject_2stim_asymm_v5,2020.2.10,Win32,60,61025ae37ef11b136ea224fe,,,,,,,,,4023,-25,19,1,0,0,response7disk,,1,-8,1,1,0,0,rectangle,-8,1,1,0,0,-8,1,1,0,0,0,52,52,91,1,,,,,,,,
,,,,,,,,,,,,,FF,,,,,,,,1.8006,,,,,,,,,,,,,,,,,,,,,,610049238423f388e4bd4a32,6103686bd281cbf50c8e6ed9,2021-07-29_22h53.23.389,Simcolourproject_2stim_asymm_v5,2020.2.10,Win32,60,61025ae37ef11b136ea224fe,,,,,,,,,232,-34,-52,1,0,0,response5disk,,3,-18,-13,1,0,0,rectangle,-18,-13,1,0,0,-18,-13,1,0,0,0,53,53,3,1,,,,,,,,
,,,,,,,,,,,,,FF,,,,,,,,1.8508,,,,,,,,,,,,,,,,,,,,,,610049238423f388e4bd4a32,6103686bd281cbf50c8e6ed9,2021-07-29_22h53.23.389,Simcolourproject_2stim_asymm_v5,2020.2.10,Win32,60,61025ae37ef11b136ea224fe,,,,,,,,,1610,25,-39,1,0,0,response3disk,,4,-1,-8,1,0,0,rectangle,-1,-8,1,0,0,-1,-8,1,0,0,0,54,54,29,1,,,,,,,,
,,,,,,,,,,,,,FF,,,,,,,,0.9256,,,,,,,,,,,,,,,,,,,,,,610049238423f388e4bd4a32,6103686bd281cbf50c8e6ed9,2021-07-29_22h53.23.389,Simcolourproject_2stim_asymm_v5,2020.2.10,Win32,60,61025ae37ef11b136ea224fe,,,,,,,,,760,-42,28,1,0,0,response7disk,,1,-4,0,1,0,0,rectangle,-4,0,1,0,0,-4,0,1,0,0,0,55,55,20,1,,,,,,,,
,,,,,,,,,,,,,FF,,,,,,,,4.4259,,,,,,,,,,,,,,,,,,,,,,610049238423f388e4bd4a32,6103686bd281cbf50c8e6ed9,2021-07-29_22h53.23.389,Simcolourproject_2stim_asymm_v5,2020.2.10,Win32,60,61025ae37ef11b136ea224fe,,,,,,,,,856,44,-26,1,0,0,response3disk,,5,15,-8,1,0,0,rectangle,15,-8,1,0,0,15,-8,1,0,0,0,56,56,56,1,,,,,,,,
,,,,,,,,,,,,,FF,,,,,,,,1.3006,,,,,,,,,,,,,,,,,,,,,,610049238423f388e4bd4a32,6103686bd281cbf50c8e6ed9,2021-07-29_22h53.23.389,Simcolourproject_2stim_asymm_v5,2020.2.10,Win32,60,61025ae37ef11b136ea224fe,,,,,,,,,728,-23,-44,1,0,0,response5disk,,3,-6,-6,1,0,0,rectangle,-6,-6,1,0,0,-6,-6,1,0,0,0,57,57,113,1,,,,,,,,
,,,,,,,,,,,,,FF,,,,,,,,0.6752,,,,,,,,,,,,,,,,,,,,,,610049238423f388e4bd4a32,6103686bd281cbf50c8e6ed9,2021-07-29_22h53.23.389,Simcolourproject_2stim_asymm_v5,2020.2.10,Win32,60,61025ae37ef11b136ea224fe,,,,,,,,,4086,-33,-24,1,0,0,response5disk,,2,-18,-14,1,0,0,rectangle,-18,-14,1,0,0,-18,-14,1,0,0,0,58,58,107,1,,,,,,,,
,,,,,,,,,,,,,FF,,,,,,,,1.9256,,,,,,,,,,,,,,,,,,,,,,610049238423f388e4bd4a32,6103686bd281cbf50c8e6ed9,2021-07-29_22h53.23.389,Simcolourproject_2stim_asymm_v5,2020.2.10,Win32,60,61025ae37ef11b136ea224fe,,,,,,,,,1982,-23,-29,1,0,0,response5disk,,3,-13,-8,1,0,0,rectangle,-13,-8,1,0,0,-13,-8,1,0,0,0,59,59,79,1,,,,,,,,
,,,,,,,,,,,,,FF,,,,,,,,2.3509,,,,,,,,,,,,,,,,,,,,,,610049238423f388e4bd4a32,6103686bd281cbf50c8e6ed9,2021-07-29_22h53.23.389,Simcolourproject_2stim_asymm_v5,2020.2.10,Win32,60,61025ae37ef11b136ea224fe,,,,,,,,,3514,-47,17,1,0,0,response7disk,,1,-17,0,1,0,0,rectangle,-17,0,1,0,0,-17,0,1,0,0,0,60,60,84,1,,,,,,,,
,,,,,,,,,,,,,FF,,,,,,,,0.9003,,,,,,,,,,,,,,,,,,,,,,610049238423f388e4bd4a32,6103686bd281cbf50c8e6ed9,2021-07-29_22h53.23.389,Simcolourproject_2stim_asymm_v5,2020.2.10,Win32,60,61025ae37ef11b136ea224fe,,,,,,,,,3288,-18,37,1,0,0,response7disk,,0,-13,3,1,0,0,rectangle,-13,3,1,0,0,-13,3,1,0,0,0,61,61,118,1,,,,,,,,
,,,,,,,,,,,,,FF,,,,,,,,0.8753,,,,,,,,,,,,,,,,,,,,,,610049238423f388e4bd4a32,6103686bd281cbf50c8e6ed9,2021-07-29_22h53.23.389,Simcolourproject_2stim_asymm_v5,2020.2.10,Win32,60,61025ae37ef11b136ea224fe,,,,,,,,,2953,-26,-36,1,0,0,response5disk,,3,-7,-3,1,0,0,rectangle,-7,-3,1,0,0,-7,-3,1,0,0,0,62,62,93,1,,,,,,,,
,,,,,,,,,,,,,FF,,,,,,,,0.9253,,,,,,,,,,,,,,,,,,,,,,610049238423f388e4bd4a32,6103686bd281cbf50c8e6ed9,2021-07-29_22h53.23.389,Simcolourproject_2stim_asymm_v5,2020.2.10,Win32,60,61025ae37ef11b136ea224fe,,,,,,,,,409,-48,-17,1,0,0,response5disk,,2,-8,-4,1,0,0,rectangle,-8,-4,1,0,0,-8,-4,1,0,0,0,63,63,39,1,,,,,,,,
,,,,,,,,,,,,,FF,,,,,,,,0.9502,,,,,,,,,,,,,,,,,,,,,,610049238423f388e4bd4a32,6103686bd281cbf50c8e6ed9,2021-07-29_22h53.23.389,Simcolourproject_2stim_asymm_v5,2020.2.10,Win32,60,61025ae37ef11b136ea224fe,,,,,,,,,4148,29,-44,1,0,0,response3disk,,4,1,-1,1,0,0,rectangle,1,-1,1,0,0,1,-1,1,0,0,0,64,64,134,1,,,,,,,,
,,,,,,,,,,,,,FF,,,,,,,,0.8255,,,,,,,,,,,,,,,,,,,,,,610049238423f388e4bd4a32,6103686bd281cbf50c8e6ed9,2021-07-29_22h53.23.389,Simcolourproject_2stim_asymm_v5,2020.2.10,Win32,60,61025ae37ef11b136ea224fe,,,,,,,,,2454,-19,36,1,0,0,response7disk,,0,-14,2,1,0,0,rectangle,-17,-52,1,0,0,1,5,1,0,0,0,65,65,100,1,,response5disk_3,TRUE,3,3,"[37,319,167,192,173,23,27,43,302,269,323,49,3,157,248,90,66,102,77,297]",1.8747,rectangle
,,,,,,,,,,,,,FF,,,,,,,,2.8005,,,,,,,,,,,,,,,,,,,,,,610049238423f388e4bd4a32,6103686bd281cbf50c8e6ed9,2021-07-29_22h53.23.389,Simcolourproject_2stim_asymm_v5,2020.2.10,Win32,60,61025ae37ef11b136ea224fe,,,,,,,,,2049,17,-40,1,0,0,response3disk,,4,-5,-12,1,0,0,rectangle,-5,-12,1,0,0,-5,-12,1,0,0,0,66,66,76,1,,,,,,,,
,,,,,,,,,,,,,FF,,,,,,,,1.2505,,,,,,,,,,,,,,,,,,,,,,610049238423f388e4bd4a32,6103686bd281cbf50c8e6ed9,2021-07-29_22h53.23.389,Simcolourproject_2stim_asymm_v5,2020.2.10,Win32,60,61025ae37ef11b136ea224fe,,,,,,,,,1461,-17,-39,1,0,0,response5disk,,3,4,-8,1,0,0,rectangle,4,-8,1,0,0,4,-8,1,0,0,0,67,67,112,1,,,,,,,,
,,,,,,,,,,,,,FF,,,,,,,,0.9255,,,,,,,,,,,,,,,,,,,,,,610049238423f388e4bd4a32,6103686bd281cbf50c8e6ed9,2021-07-29_22h53.23.389,Simcolourproject_2stim_asymm_v5,2020.2.10,Win32,60,61025ae37ef11b136ea224fe,,,,,,,,,2306,-36,-18,1,0,0,response5disk,,2,2,-3,1,0,0,rectangle,2,-3,1,0,0,2,-3,1,0,0,0,68,68,108,1,,,,,,,,
,,,,,,,,,,,,,FF,,,,,,,,0.75,,,,,,,,,,,,,,,,,,,,,,610049238423f388e4bd4a32,6103686bd281cbf50c8e6ed9,2021-07-29_22h53.23.389,Simcolourproject_2stim_asymm_v5,2020.2.10,Win32,60,61025ae37ef11b136ea224fe,,,,,,,,,2245,-26,41,1,0,0,response7disk,,0,-14,-5,1,0,0,rectangle,-14,-5,1,0,0,-14,-5,1,0,0,0,69,69,4,1,,,,,,,,
,,,,,,,,,,,,,FF,,,,,,,,0.6499,,,,,,,,,,,,,,,,,,,,,,610049238423f388e4bd4a32,6103686bd281cbf50c8e6ed9,2021-07-29_22h53.23.389,Simcolourproject_2stim_asymm_v5,2020.2.10,Win32,60,61025ae37ef11b136ea224fe,,,,,,,,,1088,-17,33,1,0,0,response7disk,,0,-9,0,1,0,0,rectangle,-9,0,1,0,0,-9,0,1,0,0,0,70,70,12,1,,,,,,,,
,,,,,,,,,,,,,FF,,,,,,,,0.9002,,,,,,,,,,,,,,,,,,,,,,610049238423f388e4bd4a32,6103686bd281cbf50c8e6ed9,2021-07-29_22h53.23.389,Simcolourproject_2stim_asymm_v5,2020.2.10,Win32,60,61025ae37ef11b136ea224fe,,,,,,,,,1551,-17,-53,1,0,0,response5disk,,3,-3,-7,1,0,0,rectangle,-3,-7,1,0,0,-3,-7,1,0,0,0,71,71,9,1,,,,,,,,
,,,,,,,,,,,,,FF,,,,,,,,0.9254,,,,,,,,,,,,,,,,,,,,,,610049238423f388e4bd4a32,6103686bd281cbf50c8e6ed9,2021-07-29_22h53.23.389,Simcolourproject_2stim_asymm_v5,2020.2.10,Win32,60,61025ae37ef11b136ea224fe,,,,,,,,,238,-21,-35,1,0,0,response5disk,,3,3,-4,1,0,0,rectangle,3,-4,1,0,0,3,-4,1,0,0,0,72,72,60,1,,,,,,,,
,,,,,,,,,,,,,FF,,,,,,,,1.2246,,,,,,,,,,,,,,,,,,,,,,610049238423f388e4bd4a32,6103686bd281cbf50c8e6ed9,2021-07-29_22h53.23.389,Simcolourproject_2stim_asymm_v5,2020.2.10,Win32,60,61025ae37ef11b136ea224fe,,,,,,,,,4224,-48,-23,1,0,0,response5disk,,2,-17,-4,1,0,0,rectangle,-17,-4,1,0,0,-17,-4,1,0,0,0,73,73,46,1,,,,,,,,
,,,,,,,,,,,,,FF,,,,,,,,2.0259,,,,,,,,,,,,,,,,,,,,,,610049238423f388e4bd4a32,6103686bd281cbf50c8e6ed9,2021-07-29_22h53.23.389,Simcolourproject_2stim_asymm_v5,2020.2.10,Win32,60,61025ae37ef11b136ea224fe,,,,,,,,,723,-40,-18,1,0,0,response5disk,,2,-19,-6,1,0,0,rectangle,-19,-6,1,0,0,-19,-6,1,0,0,0,74,74,57,1,,,,,,,,
,,,,,,,,,,,,,FF,,,,,,,,1.0005,,,,,,,,,,,,,,,,,,,,,,610049238423f388e4bd4a32,6103686bd281cbf50c8e6ed9,2021-07-29_22h53.23.389,Simcolourproject_2stim_asymm_v5,2020.2.10,Win32,60,61025ae37ef11b136ea224fe,,,,,,,,,4118,25,-35,1,0,0,response3disk,,4,9,-8,1,0,0,rectangle,9,-8,1,0,0,9,-8,1,0,0,0,75,75,157,1,,,,,,,,
,,,,,,,,,,,,,FF,,,,,,,,1.6756,,,,,,,,,,,,,,,,,,,,,,610049238423f388e4bd4a32,6103686bd281cbf50c8e6ed9,2021-07-29_22h53.23.389,Simcolourproject_2stim_asymm_v5,2020.2.10,Win32,60,61025ae37ef11b136ea224fe,,,,,,,,,3603,29,-39,1,0,0,response3disk,,4,4,1,1,0,0,rectangle,45,-33,1,0,0,21,-11,1,0,0,0,76,76,129,1,,response3disk_3,TRUE,5,5,"[37,319,167,192,173,23,27,43,302,269,323,49,3,157,248,90,66,102,77,297]",1.2502,rectangle
,,,,,,,,,,,,,FF,,,,,,,,4.4509,,,,,,,,,,,,,,,,,,,,,,610049238423f388e4bd4a32,6103686bd281cbf50c8e6ed9,2021-07-29_22h53.23.389,Simcolourproject_2stim_asymm_v5,2020.2.10,Win32,60,61025ae37ef11b136ea224fe,,,,,,,,,3371,-13,-43,1,0,0,response5disk,,3,-5,-3,1,0,0,rectangle,-5,-3,1,0,0,-5,-3,1,0,0,0,77,77,34,1,,,,,,,,
,,,,,,,,,,,,,FF,,,,,,,,1.7498,,,,,,,,,,,,,,,,,,,,,,610049238423f388e4bd4a32,6103686bd281cbf50c8e6ed9,2021-07-29_22h53.23.389,Simcolourproject_2stim_asymm_v5,2020.2.10,Win32,60,61025ae37ef11b136ea224fe,,,,,,,,,4197,-42,-28,1,0,0,response5disk,,2,-10,-1,1,0,0,rectangle,-10,-1,1,0,0,-10,-1,1,0,0,0,78,78,47,1,,,,,,,,
,,,,,,,,,,,,,FF,,,,,,,,1.275,,,,,,,,,,,,,,,,,,,,,,610049238423f388e4bd4a32,6103686bd281cbf50c8e6ed9,2021-07-29_22h53.23.389,Simcolourproject_2stim_asymm_v5,2020.2.10,Win32,60,61025ae37ef11b136ea224fe,,,,,,,,,670,-40,13,1,0,0,response7disk,,1,-11,-7,1,0,0,rectangle,-11,-7,1,0,0,-11,-7,1,0,0,0,79,79,65,1,,,,,,,,
,,,,,,,,,,,,,FF,,,,,,,,0.7748,,,,,,,,,,,,,,,,,,,,,,610049238423f388e4bd4a32,6103686bd281cbf50c8e6ed9,2021-07-29_22h53.23.389,Simcolourproject_2stim_asymm_v5,2020.2.10,Win32,60,61025ae37ef11b136ea224fe,,,,,,,,,1726,25,-29,1,0,0,response3disk,,4,6,-6,1,0,0,rectangle,6,-6,1,0,0,6,-6,1,0,0,0,80,80,87,1,,,,,,,,
,,,,,,,,,,,,,FF,,,,,,,,5.6517,,,,,,,,,,,,,,,,,,,,,,610049238423f388e4bd4a32,6103686bd281cbf50c8e6ed9,2021-07-29_22h53.23.389,Simcolourproject_2stim_asymm_v5,2020.2.10,Win32,60,61025ae37ef11b136ea224fe,,,,,,,,,2811,58,17,1,0,0,response1disk,,6,6,-11,1,0,0,rectangle,6,-11,1,0,0,6,-11,1,0,0,0,81,81,125,1,,,,,,,,
,,,,,,,,,,,,,FF,,,,,,,,1.1503,,,,,,,,,,,,,,,,,,,,,,610049238423f388e4bd4a32,6103686bd281cbf50c8e6ed9,2021-07-29_22h53.23.389,Simcolourproject_2stim_asymm_v5,2020.2.10,Win32,60,61025ae37ef11b136ea224fe,,,,,,,,,1027,-33,-34,1,0,0,response5disk,,3,-8,-7,1,0,0,rectangle,-8,-7,1,0,0,-8,-7,1,0,0,0,82,82,83,1,,,,,,,,
,,,,,,,,,,,,,FF,,,,,,,,1.6249,,,,,,,,,,,,,,,,,,,,,,610049238423f388e4bd4a32,6103686bd281cbf50c8e6ed9,2021-07-29_22h53.23.389,Simcolourproject_2stim_asymm_v5,2020.2.10,Win32,60,61025ae37ef11b136ea224fe,,,,,,,,,350,44,33,1,0,0,response1disk,,6,24,-3,1,0,0,rectangle,24,-3,1,0,0,24,-3,1,0,0,0,83,83,90,1,,,,,,,,
,,,,,,,,,,,,,FF,,,,,,,,3.826,,,,,,,,,,,,,,,,,,,,,,610049238423f388e4bd4a32,6103686bd281cbf50c8e6ed9,2021-07-29_22h53.23.389,Simcolourproject_2stim_asymm_v5,2020.2.10,Win32,60,61025ae37ef11b136ea224fe,,,,,,,,,1713,37,-47,1,0,0,response3disk,,4,26,-6,1,0,0,rectangle,26,-6,1,0,0,26,-6,1,0,0,0,84,84,153,1,,,,,,,,
,,,,,,,,,,,,,FF,,,,,,,,0.9003,,,,,,,,,,,,,,,,,,,,,,610049238423f388e4bd4a32,6103686bd281cbf50c8e6ed9,2021-07-29_22h53.23.389,Simcolourproject_2stim_asymm_v5,2020.2.10,Win32,60,61025ae37ef11b136ea224fe,,,,,,,,,1410,-17,44,1,0,0,response7disk,,0,3,0,1,0,0,rectangle,3,0,1,0,0,3,0,1,0,0,0,85,85,62,1,,,,,,,,
,,,,,,,,,,,,,FF,,,,,,,,0.5502,,,,,,,,,,,,,,,,,,,,,,610049238423f388e4bd4a32,6103686bd281cbf50c8e6ed9,2021-07-29_22h53.23.389,Simcolourproject_2stim_asymm_v5,2020.2.10,Win32,60,61025ae37ef11b136ea224fe,,,,,,,,,3314,-25,44,1,0,0,response7disk,,0,-12,9,1,0,0,rectangle,-12,9,1,0,0,-12,9,1,0,0,0,86,86,2,1,,,,,,,,
,,,,,,,,,,,,,FF,,,,,,,,0.9503,,,,,,,,,,,,,,,,,,,,,,610049238423f388e4bd4a32,6103686bd281cbf50c8e6ed9,2021-07-29_22h53.23.389,Simcolourproject_2stim_asymm_v5,2020.2.10,Win32,60,61025ae37ef11b136ea224fe,,,,,,,,,3788,-37,19,1,0,0,response7disk,,1,-12,-2,1,0,0,rectangle,-12,-2,1,0,0,-12,-2,1,0,0,0,87,87,64,1,,,,,,,,
,,,,,,,,,,,,,FF,,,,,,,,0.875,,,,,,,,,,,,,,,,,,,,,,610049238423f388e4bd4a32,6103686bd281cbf50c8e6ed9,2021-07-29_22h53.23.389,Simcolourproject_2stim_asymm_v5,2020.2.10,Win32,60,61025ae37ef11b136ea224fe,,,,,,,,,1642,-33,20,1,0,0,response7disk,,1,1,-1,1,0,0,rectangle,1,-1,1,0,0,1,-1,1,0,0,0,88,88,135,1,,,,,,,,
,,,,,,,,,,,,,FF,,,,,,,,0.6005,,,,,,,,,,,,,,,,,,,,,,610049238423f388e4bd4a32,6103686bd281cbf50c8e6ed9,2021-07-29_22h53.23.389,Simcolourproject_2stim_asymm_v5,2020.2.10,Win32,60,61025ae37ef11b136ea224fe,,,,,,,,,1633,-34,23,1,0,0,response7disk,,1,-6,6,1,0,0,rectangle,28,-46,1,0,0,15,-9,1,0,0,0,89,89,95,1,,response3disk_3,TRUE,4,4,"[37,319,167,192,173,23,27,43,302,269,323,49,3,157,248,90,66,102,77,297]",1.0249,rectangle
,,,,,,,,,,,,,FF,,,,,,,,0.8504,,,,,,,,,,,,,,,,,,,,,,610049238423f388e4bd4a32,6103686bd281cbf50c8e6ed9,2021-07-29_22h53.23.389,Simcolourproject_2stim_asymm_v5,2020.2.10,Win32,60,61025ae37ef11b136ea224fe,,,,,,,,,1041,-38,-22,1,0,0,response5disk,,2,-13,0,1,0,0,rectangle,-13,0,1,0,0,-13,0,1,0,0,0,90,90,11,1,,,,,,,,
,,,,,,,,,,,,,FF,,,,,,,,3.7261,,,,,,,,,,,,,,,,,,,,,,610049238423f388e4bd4a32,6103686bd281cbf50c8e6ed9,2021-07-29_22h53.23.389,Simcolourproject_2stim_asymm_v5,2020.2.10,Win32,60,61025ae37ef11b136ea224fe,,,,,,,,,3356,20,-44,1,0,0,response3disk,,4,11,-18,1,0,0,rectangle,11,-18,1,0,0,11,-18,1,0,0,0,91,91,86,1,,,,,,,,
,,,,,,,,,,,,,FF,,,,,,,,1.2997,,,,,,,,,,,,,,,,,,,,,,610049238423f388e4bd4a32,6103686bd281cbf50c8e6ed9,2021-07-29_22h53.23.389,Simcolourproject_2stim_asymm_v5,2020.2.10,Win32,60,61025ae37ef11b136ea224fe,,,,,,,,,2644,18,-42,1,0,0,response3disk,,4,16,0,1,0,0,rectangle,16,0,1,0,0,16,0,1,0,0,0,92,92,50,1,,,,,,,,
,,,,,,,,,,,,,FF,,,,,,,,1.9996,,,,,,,,,,,,,,,,,,,,,,610049238423f388e4bd4a32,6103686bd281cbf50c8e6ed9,2021-07-29_22h53.23.389,Simcolourproject_2stim_asymm_v5,2020.2.10,Win32,60,61025ae37ef11b136ea224fe,,,,,,,,,2361,54,-16,1,0,0,response3disk,,5,-12,10,1,0,0,rectangle,-12,10,1,0,0,-12,10,1,0,0,0,93,93,123,1,,,,,,,,
,,,,,,,,,,,,,FF,,,,,,,,3.5503,,,,,,,,,,,,,,,,,,,,,,610049238423f388e4bd4a32,6103686bd281cbf50c8e6ed9,2021-07-29_22h53.23.389,Simcolourproject_2stim_asymm_v5,2020.2.10,Win32,60,61025ae37ef11b136ea224fe,,,,,,,,,4370,-16,-43,1,0,0,response5disk,,3,0,-6,1,0,0,rectangle,0,-6,1,0,0,0,-6,1,0,0,0,94,94,127,1,,,,,,,,
,,,,,,,,,,,,,FF,,,,,,,,1.3003,,,,,,,,,,,,,,,,,,,,,,610049238423f388e4bd4a32,6103686bd281cbf50c8e6ed9,2021-07-29_22h53.23.389,Simcolourproject_2stim_asymm_v5,2020.2.10,Win32,60,61025ae37ef11b136ea224fe,,,,,,,,,1097,-55,19,1,0,0,response7disk,,1,-15,1,1,0,0,rectangle,-15,1,1,0,0,-15,1,1,0,0,0,95,95,103,1,,,,,,,,
,,,,,,,,,,,,,FF,,,,,,,,1.1505,,,,,,,,,,,,,,,,,,,,,,610049238423f388e4bd4a32,6103686bd281cbf50c8e6ed9,2021-07-29_22h53.23.389,Simcolourproject_2stim_asymm_v5,2020.2.10,Win32,60,61025ae37ef11b136ea224fe,,,,,,,,,1385,-22,-38,1,0,0,response5disk,,3,-17,-6,1,0,0,rectangle,-17,-6,1,0,0,-17,-6,1,0,0,0,96,96,81,1,,,,,,,,
,,,,,,,,,,,,,FF,,,,,,,,0.6254,,,,,,,,,,,,,,,,,,,,,,610049238423f388e4bd4a32,6103686bd281cbf50c8e6ed9,2021-07-29_22h53.23.389,Simcolourproject_2stim_asymm_v5,2020.2.10,Win32,60,61025ae37ef11b136ea224fe,,,,,,,,,2179,-20,-32,1,0,0,response5disk,,3,-9,-2,1,0,0,rectangle,-9,-2,1,0,0,-9,-2,1,0,0,0,97,97,111,1,,,,,,,,
,,,,,,,,,,,,,FF,,,,,,,,1.0754,,,,,,,,,,,,,,,,,,,,,,610049238423f388e4bd4a32,6103686bd281cbf50c8e6ed9,2021-07-29_22h53.23.389,Simcolourproject_2stim_asymm_v5,2020.2.10,Win32,60,61025ae37ef11b136ea224fe,,,,,,,,,4215,-38,13,1,0,0,response7disk,,1,-23,-2,1,0,0,rectangle,-23,-2,1,0,0,-23,-2,1,0,0,0,98,98,98,1,,,,,,,,
,,,,,,,,,,,,,FF,,,,,,,,0.8255,,,,,,,,,,,,,,,,,,,,,,610049238423f388e4bd4a32,6103686bd281cbf50c8e6ed9,2021-07-29_22h53.23.389,Simcolourproject_2stim_asymm_v5,2020.2.10,Win32,60,61025ae37ef11b136ea224fe,,,,,,,,,2171,-38,-23,1,0,0,response5disk,,2,-10,-2,1,0,0,rectangle,-10,-2,1,0,0,-10,-2,1,0,0,0,99,99,143,1,,,,,,,,
,,,,,,,,,,,,,FF,,,,,,,,0.8755,,,,,,,,,,,,,,,,,,,,,,610049238423f388e4bd4a32,6103686bd281cbf50c8e6ed9,2021-07-29_22h53.23.389,Simcolourproject_2stim_asymm_v5,2020.2.10,Win32,60,61025ae37ef11b136ea224fe,,,,,,,,,298,-43,22,1,0,0,response7disk,,1,-13,-2,1,0,0,rectangle,-13,-2,1,0,0,-13,-2,1,0,0,0,100,100,59,1,,,,,,,,
,,,,,,,,,,,,,FF,,,,,,,,2.4509,,,,,,,,,,,,,,,,,,,,,,610049238423f388e4bd4a32,6103686bd281cbf50c8e6ed9,2021-07-29_22h53.23.389,Simcolourproject_2stim_asymm_v5,2020.2.10,Win32,60,61025ae37ef11b136ea224fe,,,,,,,,,2961,38,-27,1,0,0,response3disk,,5,-8,2,1,0,0,rectangle,-51,-28,1,0,0,-25,-6,1,0,0,0,101,101,147,1,,response5disk_3,TRUE,2,2,"[37,319,167,192,173,23,27,43,302,269,323,49,3,157,248,90,66,102,77,297]",1.5498,rectangle
,,,,,,,,,,,,,FF,,,,,,,,4.1511,,,,,,,,,,,,,,,,,,,,,,610049238423f388e4bd4a32,6103686bd281cbf50c8e6ed9,2021-07-29_22h53.23.389,Simcolourproject_2stim_asymm_v5,2020.2.10,Win32,60,61025ae37ef11b136ea224fe,,,,,,,,,4315,-22,-44,1,0,0,response5disk,,3,-13,-13,1,0,0,rectangle,-13,-13,1,0,0,-13,-13,1,0,0,0,102,102,45,1,,,,,,,,
,,,,,,,,,,,,,FF,,,,,,,,0.676,,,,,,,,,,,,,,,,,,,,,,610049238423f388e4bd4a32,6103686bd281cbf50c8e6ed9,2021-07-29_22h53.23.389,Simcolourproject_2stim_asymm_v5,2020.2.10,Win32,60,61025ae37ef11b136ea224fe,,,,,,,,,808,-33,19,1,0,0,response7disk,,1,-18,2,1,0,0,rectangle,-18,2,1,0,0,-18,2,1,0,0,0,103,103,104,1,,,,,,,,
,,,,,,,,,,,,,FF,,,,,,,,0.5252,,,,,,,,,,,,,,,,,,,,,,610049238423f388e4bd4a32,6103686bd281cbf50c8e6ed9,2021-07-29_22h53.23.389,Simcolourproject_2stim_asymm_v5,2020.2.10,Win32,60,61025ae37ef11b136ea224fe,,,,,,,,,2695,-25,30,1,0,0,response7disk,,0,-18,1,1,0,0,rectangle,-18,1,1,0,0,-18,1,1,0,0,0,104,104,75,1,,,,,,,,
,,,,,,,,,,,,,FF,,,,,,,,2.6256,,,,,,,,,,,,,,,,,,,,,,610049238423f388e4bd4a32,6103686bd281cbf50c8e6ed9,2021-07-29_22h53.23.389,Simcolourproject_2stim_asymm_v5,2020.2.10,Win32,60,61025ae37ef11b136ea224fe,,,,,,,,,2987,19,-41,1,0,0,response3disk,,4,2,0,1,0,0,rectangle,2,0,1,0,0,2,0,1,0,0,0,105,105,132,1,,,,,,,,
,,,,,,,,,,,,,FF,,,,,,,,2.5007,,,,,,,,,,,,,,,,,,,,,,610049238423f388e4bd4a32,6103686bd281cbf50c8e6ed9,2021-07-29_22h53.23.389,Simcolourproject_2stim_asymm_v5,2020.2.10,Win32,60,61025ae37ef11b136ea224fe,,,,,,,,,2263,-37,14,1,0,0,response7disk,,1,-17,-1,1,0,0,rectangle,-17,-1,1,0,0,-17,-1,1,0,0,0,106,106,82,1,,,,,,,,
,,,,,,,,,,,,,FF,,,,,,,,0.5754,,,,,,,,,,,,,,,,,,,,,,610049238423f388e4bd4a32,6103686bd281cbf50c8e6ed9,2021-07-29_22h53.23.389,Simcolourproject_2stim_asymm_v5,2020.2.10,Win32,60,61025ae37ef11b136ea224fe,,,,,,,,,2501,-18,37,1,0,0,response7disk,,0,-11,2,1,0,0,rectangle,-11,2,1,0,0,-11,2,1,0,0,0,107,107,68,1,,,,,,,,
,,,,,,,,,,,,,FF,,,,,,,,0.7753,,,,,,,,,,,,,,,,,,,,,,610049238423f388e4bd4a32,6103686bd281cbf50c8e6ed9,2021-07-29_22h53.23.389,Simcolourproject_2stim_asymm_v5,2020.2.10,Win32,60,61025ae37ef11b136ea224fe,,,,,,,,,3069,-31,-24,1,0,0,response5disk,,2,-3,4,1,0,0,rectangle,-3,4,1,0,0,-3,4,1,0,0,0,108,108,16,1,,,,,,,,
,,,,,,,,,,,,,FF,,,,,,,,0.7003,,,,,,,,,,,,,,,,,,,,,,610049238423f388e4bd4a32,6103686bd281cbf50c8e6ed9,2021-07-29_22h53.23.389,Simcolourproject_2stim_asymm_v5,2020.2.10,Win32,60,61025ae37ef11b136ea224fe,,,,,,,,,924,-40,17,1,0,0,response7disk,,1,1,-10,1,0,0,rectangle,1,-10,1,0,0,1,-10,1,0,0,0,109,109,142,1,,,,,,,,
,,,,,,,,,,,,,FF,,,,,,,,0.8004,,,,,,,,,,,,,,,,,,,,,,610049238423f388e4bd4a32,6103686bd281cbf50c8e6ed9,2021-07-29_22h53.23.389,Simcolourproject_2stim_asymm_v5,2020.2.10,Win32,60,61025ae37ef11b136ea224fe,,,,,,,,,1479,20,-30,1,0,0,response3disk,,4,-8,6,1,0,0,rectangle,-8,6,1,0,0,-8,6,1,0,0,0,110,110,149,1,,,,,,,,
,,,,,,,,,,,,,FF,,,,,,,,0.6253,,,,,,,,,,,,,,,,,,,,,,610049238423f388e4bd4a32,6103686bd281cbf50c8e6ed9,2021-07-29_22h53.23.389,Simcolourproject_2stim_asymm_v5,2020.2.10,Win32,60,61025ae37ef11b136ea224fe,,,,,,,,,2287,-27,30,1,0,0,response7disk,,0,-16,-5,1,0,0,rectangle,-16,-5,1,0,0,-16,-5,1,0,0,0,111,111,33,1,,,,,,,,
,,,,,,,,,,,,,FF,,,,,,,,1.9006,,,,,,,,,,,,,,,,,,,,,,610049238423f388e4bd4a32,6103686bd281cbf50c8e6ed9,2021-07-29_22h53.23.389,Simcolourproject_2stim_asymm_v5,2020.2.10,Win32,60,61025ae37ef11b136ea224fe,,,,,,,,,1695,-37,23,1,0,0,response7disk,,1,-28,-1,1,0,0,rectangle,-28,-1,1,0,0,-28,-1,1,0,0,0,112,112,49,1,,,,,,,,
,,,,,,,,,,,,,FF,,,,,,,,1.5254,,,,,,,,,,,,,,,,,,,,,,610049238423f388e4bd4a32,6103686bd281cbf50c8e6ed9,2021-07-29_22h53.23.389,Simcolourproject_2stim_asymm_v5,2020.2.10,Win32,60,61025ae37ef11b136ea224fe,,,,,,,,,905,17,-35,1,0,0,response3disk,,4,3,-5,1,0,0,rectangle,3,-5,1,0,0,3,-5,1,0,0,0,113,113,94,1,,,,,,,,
,,,,,,,,,,,,,FF,,,,,,,,1.1008,,,,,,,,,,,,,,,,,,,,,,610049238423f388e4bd4a32,6103686bd281cbf50c8e6ed9,2021-07-29_22h53.23.389,Simcolourproject_2stim_asymm_v5,2020.2.10,Win32,60,61025ae37ef11b136ea224fe,,,,,,,,,833,37,-26,1,0,0,response3disk,,5,4,-6,1,0,0,rectangle,4,-6,1,0,0,4,-6,1,0,0,0,114,114,101,1,,,,,,,,
,,,,,,,,,,,,,FF,,,,,,,,1.3004,,,,,,,,,,,,,,,,,,,,,,610049238423f388e4bd4a32,6103686bd281cbf50c8e6ed9,2021-07-29_22h53.23.389,Simcolourproject_2stim_asymm_v5,2020.2.10,Win32,60,61025ae37ef11b136ea224fe,,,,,,,,,1352,-16,-25,1,0,0,response5disk,,3,0,-2,1,0,0,rectangle,0,-2,1,0,0,0,-2,1,0,0,0,115,115,152,1,,,,,,,,
,,,,,,,,,,,,,FF,,,,,,,,0.8,,,,,,,,,,,,,,,,,,,,,,610049238423f388e4bd4a32,6103686bd281cbf50c8e6ed9,2021-07-29_22h53.23.389,Simcolourproject_2stim_asymm_v5,2020.2.10,Win32,60,61025ae37ef11b136ea224fe,,,,,,,,,4142,-40,19,1,0,0,response7disk,,1,-8,1,1,0,0,rectangle,-8,1,1,0,0,-8,1,1,0,0,0,116,116,52,1,,,,,,,,
,,,,,,,,,,,,,FF,,,,,,,,0.8752,,,,,,,,,,,,,,,,,,,,,,610049238423f388e4bd4a32,6103686bd281cbf50c8e6ed9,2021-07-29_22h53.23.389,Simcolourproject_2stim_asymm_v5,2020.2.10,Win32,60,61025ae37ef11b136ea224fe,,,,,,,,,129,-33,19,1,0,0,response7disk,,1,-20,-4,1,0,0,rectangle,-20,-4,1,0,0,-20,-4,1,0,0,0,117,117,35,1,,,,,,,,
,,,,,,,,,,,,,FF,,,,,,,,0.5999,,,,,,,,,,,,,,,,,,,,,,610049238423f388e4bd4a32,6103686bd281cbf50c8e6ed9,2021-07-29_22h53.23.389,Simcolourproject_2stim_asymm_v5,2020.2.10,Win32,60,61025ae37ef11b136ea224fe,,,,,,,,,1702,-32,22,1,0,0,response7disk,,1,-29,7,1,0,0,rectangle,-29,7,1,0,0,-29,7,1,0,0,0,118,118,131,1,,,,,,,,
,,,,,,,,,,,,,FF,,,,,,,,0.7753,,,,,,,,,,,,,,,,,,,,,,610049238423f388e4bd4a32,6103686bd281cbf50c8e6ed9,2021-07-29_22h53.23.389,Simcolourproject_2stim_asymm_v5,2020.2.10,Win32,60,61025ae37ef11b136ea224fe,,,,,,,,,3633,-16,32,1,0,0,response7disk,,0,-9,1,1,0,0,rectangle,-9,1,1,0,0,-9,1,1,0,0,0,119,119,44,1,,,,,,,,
,,,,,,,,,,,,,FF,,,,,,,,1.0756,,,,,,,,,,,,,,,,,,,,,,610049238423f388e4bd4a32,6103686bd281cbf50c8e6ed9,2021-07-29_22h53.23.389,Simcolourproject_2stim_asymm_v5,2020.2.10,Win32,60,61025ae37ef11b136ea224fe,,,,,,,,,796,-13,31,1,0,0,response7disk,,0,-9,3,1,0,0,rectangle,-9,3,1,0,0,-9,3,1,0,0,0,120,120,28,1,,,,,,,,
,,,,,,,,,,,,,FF,,,,,,,,1.4002,,,,,,,,,,,,,,,,,,,,,,610049238423f388e4bd4a32,6103686bd281cbf50c8e6ed9,2021-07-29_22h53.23.389,Simcolourproject_2stim_asymm_v5,2020.2.10,Win32,60,61025ae37ef11b136ea224fe,,,,,,,,,2737,-39,21,1,0,0,response7disk,,1,6,2,1,0,0,rectangle,6,2,1,0,0,6,2,1,0,0,0,121,121,5,1,,,,,,,,
,,,,,,,,,,,,,FF,,,,,,,,1.4757,,,,,,,,,,,,,,,,,,,,,,610049238423f388e4bd4a32,6103686bd281cbf50c8e6ed9,2021-07-29_22h53.23.389,Simcolourproject_2stim_asymm_v5,2020.2.10,Win32,60,61025ae37ef11b136ea224fe,,,,,,,,,3728,-43,-19,1,0,0,response5disk,,2,-11,-6,1,0,0,rectangle,-11,-6,1,0,0,-11,-6,1,0,0,0,122,122,77,1,,,,,,,,
,,,,,,,,,,,,,FF,,,,,,,,1.5258,,,,,,,,,,,,,,,,,,,,,,610049238423f388e4bd4a32,6103686bd281cbf50c8e6ed9,2021-07-29_22h53.23.389,Simcolourproject_2stim_asymm_v5,2020.2.10,Win32,60,61025ae37ef11b136ea224fe,,,,,,,,,1491,-39,21,1,0,0,response7disk,,1,-16,5,1,0,0,rectangle,-16,5,1,0,0,-16,5,1,0,0,0,123,123,67,1,,,,,,,,
,,,,,,,,,,,,,FF,,,,,,,,1.2496,,,,,,,,,,,,,,,,,,,,,,610049238423f388e4bd4a32,6103686bd281cbf50c8e6ed9,2021-07-29_22h53.23.389,Simcolourproject_2stim_asymm_v5,2020.2.10,Win32,60,61025ae37ef11b136ea224fe,,,,,,,,,1457,-27,15,1,0,0,response7disk,,1,-6,7,1,0,0,rectangle,-6,7,1,0,0,-6,7,1,0,0,0,124,124,106,1,,,,,,,,
,,,,,,,,,,,,,FF,,,,,,,,1.85,,,,,,,,,,,,,,,,,,,,,,610049238423f388e4bd4a32,6103686bd281cbf50c8e6ed9,2021-07-29_22h53.23.389,Simcolourproject_2stim_asymm_v5,2020.2.10,Win32,60,61025ae37ef11b136ea224fe,,,,,,,,,698,-11,-42,1,0,0,response5disk,,3,-4,1,1,0,0,rectangle,-4,1,1,0,0,-4,1,1,0,0,0,125,125,89,1,,,,,,,,
,,,,,,,,,,,,,FF,,,,,,,,1.1247,,,,,,,,,,,,,,,,,,,,,,610049238423f388e4bd4a32,6103686bd281cbf50c8e6ed9,2021-07-29_22h53.23.389,Simcolourproject_2stim_asymm_v5,2020.2.10,Win32,60,61025ae37ef11b136ea224fe,,,,,,,,,2933,-24,32,1,0,0,response7disk,,0,-18,14,1,0,0,rectangle,-18,14,1,0,0,-18,14,1,0,0,0,126,126,96,1,,,,,,,,
,,,,,,,,,,,,,FF,,,,,,,,1.4753,,,,,,,,,,,,,,,,,,,,,,610049238423f388e4bd4a32,6103686bd281cbf50c8e6ed9,2021-07-29_22h53.23.389,Simcolourproject_2stim_asymm_v5,2020.2.10,Win32,60,61025ae37ef11b136ea224fe,,,,,,,,,3617,44,-26,1,0,0,response3disk,,5,-16,1,1,0,0,rectangle,-16,1,1,0,0,-16,1,1,0,0,0,127,127,61,1,,,,,,,,
,,,,,,,,,,,,,FF,,,,,,,,1.5004,,,,,,,,,,,,,,,,,,,,,,610049238423f388e4bd4a32,6103686bd281cbf50c8e6ed9,2021-07-29_22h53.23.389,Simcolourproject_2stim_asymm_v5,2020.2.10,Win32,60,61025ae37ef11b136ea224fe,,,,,,,,,2716,30,41,1,0,0,response1disk,,7,23,1,1,0,0,rectangle,23,1,1,0,0,23,1,1,0,0,0,128,128,156,1,,,,,,,,
,,,,,,,,,,,,,FF,,,,,,,,0.7256,,,,,,,,,,,,,,,,,,,,,,610049238423f388e4bd4a32,6103686bd281cbf50c8e6ed9,2021-07-29_22h53.23.389,Simcolourproject_2stim_asymm_v5,2020.2.10,Win32,60,61025ae37ef11b136ea224fe,,,,,,,,,254,-33,43,1,0,0,response7disk,,0,-11,5,1,0,0,rectangle,-11,5,1,0,0,-11,5,1,0,0,0,129,129,137,1,,,,,,,,
,,,,,,,,,,,,,FF,,,,,,,,0.9007,,,,,,,,,,,,,,,,,,,,,,610049238423f388e4bd4a32,6103686bd281cbf50c8e6ed9,2021-07-29_22h53.23.389,Simcolourproject_2stim_asymm_v5,2020.2.10,Win32,60,61025ae37ef11b136ea224fe,,,,,,,,,1731,-22,38,1,0,0,response7disk,,0,-14,7,1,0,0,rectangle,-14,7,1,0,0,-14,7,1,0,0,0,130,130,18,1,,,,,,,,
,,,,,,,,,,,,,FF,,,,,,,,2.5254,,,,,,,,,,,,,,,,,,,,,,610049238423f388e4bd4a32,6103686bd281cbf50c8e6ed9,2021-07-29_22h53.23.389,Simcolourproject_2stim_asymm_v5,2020.2.10,Win32,60,61025ae37ef11b136ea224fe,,,,,,,,,2506,-36,-18,1,0,0,response5disk,,2,-9,-6,1,0,0,rectangle,-9,-6,1,0,0,-9,-6,1,0,0,0,131,131,53,1,,,,,,,,
,,,,,,,,,,,,,FF,,,,,,,,1.0007,,,,,,,,,,,,,,,,,,,,,,610049238423f388e4bd4a32,6103686bd281cbf50c8e6ed9,2021-07-29_22h53.23.389,Simcolourproject_2stim_asymm_v5,2020.2.10,Win32,60,61025ae37ef11b136ea224fe,,,,,,,,,4069,-18,-37,1,0,0,response5disk,,3,6,-1,1,0,0,rectangle,6,-1,1,0,0,6,-1,1,0,0,0,132,132,27,1,,,,,,,,
,,,,,,,,,,,,,FF,,,,,,,,2.7508,,,,,,,,,,,,,,,,,,,,,,610049238423f388e4bd4a32,6103686bd281cbf50c8e6ed9,2021-07-29_22h53.23.389,Simcolourproject_2stim_asymm_v5,2020.2.10,Win32,60,61025ae37ef11b136ea224fe,,,,,,,,,1985,-26,15,1,0,0,response7disk,,1,-8,12,1,0,0,rectangle,-8,12,1,0,0,-8,12,1,0,0,0,133,133,155,1,,,,,,,,
,,,,,,,,,,,,,FF,,,,,,,,1.7503,,,,,,,,,,,,,,,,,,,,,,610049238423f388e4bd4a32,6103686bd281cbf50c8e6ed9,2021-07-29_22h53.23.389,Simcolourproject_2stim_asymm_v5,2020.2.10,Win32,60,61025ae37ef11b136ea224fe,,,,,,,,,1619,-34,13,1,0,0,response7disk,,1,-5,0,1,0,0,rectangle,-5,0,1,0,0,-5,0,1,0,0,0,134,134,58,1,,,,,,,,
,,,,,,,,,,,,,FF,,,,,,,,2.3009,,,,,,,,,,,,,,,,,,,,,,610049238423f388e4bd4a32,6103686bd281cbf50c8e6ed9,2021-07-29_22h53.23.389,Simcolourproject_2stim_asymm_v5,2020.2.10,Win32,60,61025ae37ef11b136ea224fe,,,,,,,,,4127,-38,17,1,0,0,response7disk,,1,-15,8,1,0,0,rectangle,-15,8,1,0,0,-15,8,1,0,0,0,135,135,55,1,,,,,,,,
,,,,,,,,,,,,,FF,,,,,,,,2.0255,,,,,,,,,,,,,,,,,,,,,,610049238423f388e4bd4a32,6103686bd281cbf50c8e6ed9,2021-07-29_22h53.23.389,Simcolourproject_2stim_asymm_v5,2020.2.10,Win32,60,61025ae37ef11b136ea224fe,,,,,,,,,4031,-19,-39,1,0,0,response5disk,,3,-2,-8,1,0,0,rectangle,-2,-8,1,0,0,-2,-8,1,0,0,0,136,136,114,1,,,,,,,,
,,,,,,,,,,,,,FF,,,,,,,,0.9005,,,,,,,,,,,,,,,,,,,,,,610049238423f388e4bd4a32,6103686bd281cbf50c8e6ed9,2021-07-29_22h53.23.389,Simcolourproject_2stim_asymm_v5,2020.2.10,Win32,60,61025ae37ef11b136ea224fe,,,,,,,,,3830,-36,-22,1,0,0,response5disk,,2,-2,-3,1,0,0,rectangle,-2,-3,1,0,0,-2,-3,1,0,0,0,137,137,0,1,,,,,,,,
,,,,,,,,,,,,,FF,,,,,,,,3.4772,,,,,,,,,,,,,,,,,,,,,,610049238423f388e4bd4a32,6103686bd281cbf50c8e6ed9,2021-07-29_22h53.23.389,Simcolourproject_2stim_asymm_v5,2020.2.10,Win32,60,61025ae37ef11b136ea224fe,,,,,,,,,968,18,33,1,0,0,response1disk,,7,14,-9,1,0,0,rectangle,14,-9,1,0,0,14,-9,1,0,0,0,138,138,37,1,,,,,,,,
,,,,,,,,,,,,,FF,,,,,,,,0.8503,,,,,,,,,,,,,,,,,,,,,,610049238423f388e4bd4a32,6103686bd281cbf50c8e6ed9,2021-07-29_22h53.23.389,Simcolourproject_2stim_asymm_v5,2020.2.10,Win32,60,61025ae37ef11b136ea224fe,,,,,,,,,3955,20,35,1,0,0,response1disk,,7,5,3,1,0,0,rectangle,5,3,1,0,0,5,3,1,0,0,0,139,139,69,1,,,,,,,,
,,,,,,,,,,,,,FF,,,,,,,,1.0749,,,,,,,,,,,,,,,,,,,,,,610049238423f388e4bd4a32,6103686bd281cbf50c8e6ed9,2021-07-29_22h53.23.389,Simcolourproject_2stim_asymm_v5,2020.2.10,Win32,60,61025ae37ef11b136ea224fe,,,,,,,,,3869,-52,-16,1,0,0,response5disk,,2,-3,4,1,0,0,rectangle,-3,4,1,0,0,-3,4,1,0,0,0,140,140,31,1,,,,,,,,
,,,,,,,,,,,,,FF,,,,,,,,3.1507,,,,,,,,,,,,,,,,,,,,,,610049238423f388e4bd4a32,6103686bd281cbf50c8e6ed9,2021-07-29_22h53.23.389,Simcolourproject_2stim_asymm_v5,2020.2.10,Win32,60,61025ae37ef11b136ea224fe,,,,,,,,,2039,53,-16,1,0,0,response3disk,,5,-10,4,1,0,0,rectangle,-10,4,1,0,0,-10,4,1,0,0,0,141,141,71,1,,,,,,,,
,,,,,,,,,,,,,FF,,,,,,,,0.8002,,,,,,,,,,,,,,,,,,,,,,610049238423f388e4bd4a32,6103686bd281cbf50c8e6ed9,2021-07-29_22h53.23.389,Simcolourproject_2stim_asymm_v5,2020.2.10,Win32,60,61025ae37ef11b136ea224fe,,,,,,,,,2786,19,35,1,0,0,response1disk,,7,2,0,1,0,0,rectangle,2,0,1,0,0,2,0,1,0,0,0,142,142,92,1,,,,,,,,
,,,,,,,,,,,,,FF,,,,,,,,0.8006,,,,,,,,,,,,,,,,,,,,,,610049238423f388e4bd4a32,6103686bd281cbf50c8e6ed9,2021-07-29_22h53.23.389,Simcolourproject_2stim_asymm_v5,2020.2.10,Win32,60,61025ae37ef11b136ea224fe,,,,,,,,,4245,-12,43,1,0,0,response7disk,,0,0,-4,1,0,0,rectangle,0,-4,1,0,0,0,-4,1,0,0,0,143,143,32,1,,,,,,,,
,,,,,,,,,,,,,FF,,,,,,,,1.1503,,,,,,,,,,,,,,,,,,,,,,610049238423f388e4bd4a32,6103686bd281cbf50c8e6ed9,2021-07-29_22h53.23.389,Simcolourproject_2stim_asymm_v5,2020.2.10,Win32,60,61025ae37ef11b136ea224fe,,,,,,,,,2498,55,-26,1,0,0,response3disk,,5,16,-4,1,0,0,rectangle,16,-4,1,0,0,16,-4,1,0,0,0,144,144,120,1,,,,,,,,
,,,,,,,,,,,,,FF,,,,,,,,1.3501,,,,,,,,,,,,,,,,,,,,,,610049238423f388e4bd4a32,6103686bd281cbf50c8e6ed9,2021-07-29_22h53.23.389,Simcolourproject_2stim_asymm_v5,2020.2.10,Win32,60,61025ae37ef11b136ea224fe,,,,,,,,,3230,-24,-40,1,0,0,response5disk,,3,-1,-11,1,0,0,rectangle,-1,-11,1,0,0,-1,-11,1,0,0,0,145,145,117,1,,,,,,,,
,,,,,,,,,,,,,FF,,,,,,,,2.2754,,,,,,,,,,,,,,,,,,,,,,610049238423f388e4bd4a32,6103686bd281cbf50c8e6ed9,2021-07-29_22h53.23.389,Simcolourproject_2stim_asymm_v5,2020.2.10,Win32,60,61025ae37ef11b136ea224fe,,,,,,,,,4113,-43,-18,1,0,0,response5disk,,2,-18,-1,1,0,0,rectangle,-18,-1,1,0,0,-18,-1,1,0,0,0,146,146,88,1,,,,,,,,
,,,,,,,,,,,,,FF,,,,,,,,0.8249,,,,,,,,,,,,,,,,,,,,,,610049238423f388e4bd4a32,6103686bd281cbf50c8e6ed9,2021-07-29_22h53.23.389,Simcolourproject_2stim_asymm_v5,2020.2.10,Win32,60,61025ae37ef11b136ea224fe,,,,,,,,,1691,-32,-19,1,0,0,response5disk,,2,-7,-3,1,0,0,rectangle,-7,-3,1,0,0,-7,-3,1,0,0,0,147,147,154,1,,,,,,,,
,,,,,,,,,,,,,FF,,,,,,,,1.3502,,,,,,,,,,,,,,,,,,,,,,610049238423f388e4bd4a32,6103686bd281cbf50c8e6ed9,2021-07-29_22h53.23.389,Simcolourproject_2stim_asymm_v5,2020.2.10,Win32,60,61025ae37ef11b136ea224fe,,,,,,,,,4026,-14,36,1,0,0,response7disk,,0,-2,1,1,0,0,rectangle,-2,1,1,0,0,-2,1,1,0,0,0,148,148,40,1,,,,,,,,
,,,,,,,,,,,,,FF,,,,,,,,19.3285,,,,,,,,,,,,,,,,,,,,,,610049238423f388e4bd4a32,6103686bd281cbf50c8e6ed9,2021-07-29_22h53.23.389,Simcolourproject_2stim_asymm_v5,2020.2.10,Win32,60,61025ae37ef11b136ea224fe,,,,,,,,,1117,-23,-43,1,0,0,response5disk,,3,-5,0,1,0,0,rectangle,-5,0,1,0,0,-5,0,1,0,0,0,149,149,146,1,,,,,,,,
,,,,,,,,,,,,,FF,,,,,,,,0.8503,,,,,,,,,,,,,,,,,,,,,,610049238423f388e4bd4a32,6103686bd281cbf50c8e6ed9,2021-07-29_22h53.23.389,Simcolourproject_2stim_asymm_v5,2020.2.10,Win32,60,61025ae37ef11b136ea224fe,,,,,,,,,3796,-49,18,1,0,0,response7disk,,1,3,-8,1,0,0,rectangle,3,-8,1,0,0,3,-8,1,0,0,0,150,150,139,1,,,,,,,,
,,,,,,,,,,,,,FF,,,,,,,,1.1253,,,,,,,,,,,,,,,,,,,,,,610049238423f388e4bd4a32,6103686bd281cbf50c8e6ed9,2021-07-29_22h53.23.389,Simcolourproject_2stim_asymm_v5,2020.2.10,Win32,60,61025ae37ef11b136ea224fe,,,,,,,,,749,44,-22,1,0,0,response3disk,,5,-13,1,1,0,0,rectangle,-13,1,1,0,0,-13,1,1,0,0,0,151,151,148,1,,,,,,,,
,,,,,,,,,,,,,FF,,,,,,,,0.6251,,,,,,,,,,,,,,,,,,,,,,610049238423f388e4bd4a32,6103686bd281cbf50c8e6ed9,2021-07-29_22h53.23.389,Simcolourproject_2stim_asymm_v5,2020.2.10,Win32,60,61025ae37ef11b136ea224fe,,,,,,,,,2749,-18,35,1,0,0,response7disk,,0,9,-8,1,0,0,rectangle,9,-8,1,0,0,9,-8,1,0,0,0,152,152,24,1,,,,,,,,
,,,,,,,,,,,,,FF,,,,,,,,0.6002,,,,,,,,,,,,,,,,,,,,,,610049238423f388e4bd4a32,6103686bd281cbf50c8e6ed9,2021-07-29_22h53.23.389,Simcolourproject_2stim_asymm_v5,2020.2.10,Win32,60,61025ae37ef11b136ea224fe,,,,,,,,,3231,-19,40,1,0,0,response7disk,,0,-7,5,1,0,0,rectangle,-7,5,1,0,0,-7,5,1,0,0,0,153,153,99,1,,,,,,,,
,,,,,,,,,,,,,FF,,,,,,,,0.6001,,,,,,,,,,,,,,,,,,,,,,610049238423f388e4bd4a32,6103686bd281cbf50c8e6ed9,2021-07-29_22h53.23.389,Simcolourproject_2stim_asymm_v5,2020.2.10,Win32,60,61025ae37ef11b136ea224fe,,,,,,,,,4009,-35,20,1,0,0,response7disk,,1,-7,2,1,0,0,rectangle,-7,2,1,0,0,-7,2,1,0,0,0,154,154,8,1,,,,,,,,
,,,,,,,,,,,,,FF,,,,,,,,0.5752,,,,,,,,,,,,,,,,,,,,,,610049238423f388e4bd4a32,6103686bd281cbf50c8e6ed9,2021-07-29_22h53.23.389,Simcolourproject_2stim_asymm_v5,2020.2.10,Win32,60,61025ae37ef11b136ea224fe,,,,,,,,,303,-40,22,1,0,0,response7disk,,1,14,-1,1,0,0,rectangle,14,-1,1,0,0,14,-1,1,0,0,0,155,155,136,1,,,,,,,,
,,,,,,,,,,,,,FF,,,,,,,,0.7252,,,,,,,,,,,,,,,,,,,,,,610049238423f388e4bd4a32,6103686bd281cbf50c8e6ed9,2021-07-29_22h53.23.389,Simcolourproject_2stim_asymm_v5,2020.2.10,Win32,60,61025ae37ef11b136ea224fe,,,,,,,,,514,-28,16,1,0,0,response7disk,,1,-7,-4,1,0,0,rectangle,-32,-50,1,0,0,-21,-1,1,0,0,0,156,156,145,1,,response5disk_3,TRUE,3,3,"[37,319,167,192,173,23,27,43,302,269,323,49,3,157,248,90,66,102,77,297]",1.5005,rectangle
,,,,,,,,,,,,,FF,,,,,,,,0.9002,,,,,,,,,,,,,,,,,,,,,,610049238423f388e4bd4a32,6103686bd281cbf50c8e6ed9,2021-07-29_22h53.23.389,Simcolourproject_2stim_asymm_v5,2020.2.10,Win32,60,61025ae37ef11b136ea224fe,,,,,,,,,3882,-38,19,1,0,0,response7disk,,1,-21,2,1,0,0,rectangle,-21,2,1,0,0,-21,2,1,0,0,0,157,157,36,1,,,,,,,,
,,,,,,,,,,,,,FF,,,,,,,,1.0503,,,,,,,,,,,,,,,,,,,,,,610049238423f388e4bd4a32,6103686bd281cbf50c8e6ed9,2021-07-29_22h53.23.389,Simcolourproject_2stim_asymm_v5,2020.2.10,Win32,60,61025ae37ef11b136ea224fe,,,,,,,,,1360,-29,-24,1,0,0,response5disk,,2,-7,0,1,0,0,rectangle,-7,0,1,0,0,-7,0,1,0,0,0,158,158,74,1,,,,,,,,
,,,,,,,,,,,,,FF,,,,,,,,3.5258,,,,,,,,,,,,,,,,,,,,,,610049238423f388e4bd4a32,6103686bd281cbf50c8e6ed9,2021-07-29_22h53.23.389,Simcolourproject_2stim_asymm_v5,2020.2.10,Win32,60,61025ae37ef11b136ea224fe,,,,,,,,,3871,-19,-39,1,0,0,response5disk,,3,-9,-12,1,0,0,rectangle,-9,-12,1,0,0,-9,-12,1,0,0,0,159,159,70,1,,,,,,,,
,,,,,,,,,,,,,FF,,,,,,,,0.6502,,,,,,,,,,,,,,,,,,,,,,610049238423f388e4bd4a32,6103686bd281cbf50c8e6ed9,2021-07-29_22h53.23.389,Simcolourproject_2stim_asymm_v5,2020.2.10,Win32,60,61025ae37ef11b136ea224fe,,,,,,,,,2828,-13,-24,1,0,0,response5disk,,3,-2,11,1,0,0,rectangle,-2,11,1,0,0,-2,11,1,0,0,1,0,160,107,1,,,,,,,,
,,,,,,,,,,,,,FF,,,,,,,,1.1002,,,,,,,,,,,,,,,,,,,,,,610049238423f388e4bd4a32,6103686bd281cbf50c8e6ed9,2021-07-29_22h53.23.389,Simcolourproject_2stim_asymm_v5,2020.2.10,Win32,60,61025ae37ef11b136ea224fe,,,,,,,,,1388,42,-17,1,0,0,response3disk,,5,-11,10,1,0,0,rectangle,-11,10,1,0,0,-11,10,1,0,0,1,1,161,111,1,,,,,,,,
,,,,,,,,,,,,,FF,,,,,,,,1.2252,,,,,,,,,,,,,,,,,,,,,,610049238423f388e4bd4a32,6103686bd281cbf50c8e6ed9,2021-07-29_22h53.23.389,Simcolourproject_2stim_asymm_v5,2020.2.10,Win32,60,61025ae37ef11b136ea224fe,,,,,,,,,2188,25,48,1,0,0,response1disk,,7,9,10,1,0,0,rectangle,9,10,1,0,0,9,10,1,0,0,1,2,162,47,1,,,,,,,,
,,,,,,,,,,,,,FF,,,,,,,,1.7005,,,,,,,,,,,,,,,,,,,,,,610049238423f388e4bd4a32,6103686bd281cbf50c8e6ed9,2021-07-29_22h53.23.389,Simcolourproject_2stim_asymm_v5,2020.2.10,Win32,60,61025ae37ef11b136ea224fe,,,,,,,,,4129,25,-44,1,0,0,response3disk,,4,0,-6,1,0,0,rectangle,0,-6,1,0,0,0,-6,1,0,0,1,3,163,37,1,,,,,,,,
,,,,,,,,,,,,,FF,,,,,,,,0.7251,,,,,,,,,,,,,,,,,,,,,,610049238423f388e4bd4a32,6103686bd281cbf50c8e6ed9,2021-07-29_22h53.23.389,Simcolourproject_2stim_asymm_v5,2020.2.10,Win32,60,61025ae37ef11b136ea224fe,,,,,,,,,3002,-22,-36,1,0,0,response5disk,,3,-6,-6,1,0,0,rectangle,-6,-6,1,0,0,-6,-6,1,0,0,1,4,164,70,1,,,,,,,,
,,,,,,,,,,,,,FF,,,,,,,,0.6751,,,,,,,,,,,,,,,,,,,,,,610049238423f388e4bd4a32,6103686bd281cbf50c8e6ed9,2021-07-29_22h53.23.389,Simcolourproject_2stim_asymm_v5,2020.2.10,Win32,60,61025ae37ef11b136ea224fe,,,,,,,,,4159,-19,44,1,0,0,response7disk,,0,-8,8,1,0,0,rectangle,-8,8,1,0,0,-8,8,1,0,0,1,5,165,103,1,,,,,,,,
,,,,,,,,,,,,,FF,,,,,,,,0.7502,,,,,,,,,,,,,,,,,,,,,,610049238423f388e4bd4a32,6103686bd281cbf50c8e6ed9,2021-07-29_22h53.23.389,Simcolourproject_2stim_asymm_v5,2020.2.10,Win32,60,61025ae37ef11b136ea224fe,,,,,,,,,1966,-29,13,1,0,0,response7disk,,1,0,-1,1,0,0,rectangle,46,-32,1,0,0,16,-5,1,0,0,1,6,166,59,1,,response3disk_3,TRUE,5,5,"[37,319,167,192,173,23,27,43,302,269,323,49,3,157,248,90,66,102,77,297]",1.4002,rectangle
,,,,,,,,,,,,,FF,,,,,,,,2.9256,,,,,,,,,,,,,,,,,,,,,,610049238423f388e4bd4a32,6103686bd281cbf50c8e6ed9,2021-07-29_22h53.23.389,Simcolourproject_2stim_asymm_v5,2020.2.10,Win32,60,61025ae37ef11b136ea224fe,,,,,,,,,597,-43,-15,1,0,0,response5disk,,2,18,-5,1,0,0,rectangle,18,-5,1,0,0,18,-5,1,0,0,1,7,167,74,1,,,,,,,,
,,,,,,,,,,,,,FF,,,,,,,,6.5265,,,,,,,,,,,,,,,,,,,,,,610049238423f388e4bd4a32,6103686bd281cbf50c8e6ed9,2021-07-29_22h53.23.389,Simcolourproject_2stim_asymm_v5,2020.2.10,Win32,60,61025ae37ef11b136ea224fe,,,,,,,,,2204,34,-20,1,0,0,response3disk,,5,7,4,1,0,0,rectangle,7,4,1,0,0,7,4,1,0,0,1,8,168,26,1,,,,,,,,
,,,,,,,,,,,,,FF,,,,,,,,0.6746,,,,,,,,,,,,,,,,,,,,,,610049238423f388e4bd4a32,6103686bd281cbf50c8e6ed9,2021-07-29_22h53.23.389,Simcolourproject_2stim_asymm_v5,2020.2.10,Win32,60,61025ae37ef11b136ea224fe,,,,,,,,,32,-19,39,1,0,0,response7disk,,0,0,-2,1,0,0,rectangle,0,-2,1,0,0,0,-2,1,0,0,1,9,169,49,1,,,,,,,,
,,,,,,,,,,,,,FF,,,,,,,,0.6005,,,,,,,,,,,,,,,,,,,,,,610049238423f388e4bd4a32,6103686bd281cbf50c8e6ed9,2021-07-29_22h53.23.389,Simcolourproject_2stim_asymm_v5,2020.2.10,Win32,60,61025ae37ef11b136ea224fe,,,,,,,,,4226,-48,25,1,0,0,response7disk,,1,-8,1,1,0,0,rectangle,-8,1,1,0,0,-8,1,1,0,0,1,10,170,2,1,,,,,,,,
,,,,,,,,,,,,,FF,,,,,,,,1.8254,,,,,,,,,,,,,,,,,,,,,,610049238423f388e4bd4a32,6103686bd281cbf50c8e6ed9,2021-07-29_22h53.23.389,Simcolourproject_2stim_asymm_v5,2020.2.10,Win32,60,61025ae37ef11b136ea224fe,,,,,,,,,2609,-30,-14,1,0,0,response5disk,,2,-4,-7,1,0,0,rectangle,-4,-7,1,0,0,-4,-7,1,0,0,1,11,171,124,1,,,,,,,,
,,,,,,,,,,,,,FF,,,,,,,,4.0761,,,,,,,,,,,,,,,,,,,,,,610049238423f388e4bd4a32,6103686bd281cbf50c8e6ed9,2021-07-29_22h53.23.389,Simcolourproject_2stim_asymm_v5,2020.2.10,Win32,60,61025ae37ef11b136ea224fe,,,,,,,,,3641,46,-29,1,0,0,response3disk,,5,-4,-6,1,0,0,rectangle,58,-38,1,0,0,13,-7,1,0,0,1,12,172,76,1,,response3disk_3,TRUE,5,5,"[37,319,167,192,173,23,27,43,302,269,323,49,3,157,248,90,66,102,77,297]",1.1747,rectangle
,,,,,,,,,,,,,FF,,,,,,,,2.4256,,,,,,,,,,,,,,,,,,,,,,610049238423f388e4bd4a32,6103686bd281cbf50c8e6ed9,2021-07-29_22h53.23.389,Simcolourproject_2stim_asymm_v5,2020.2.10,Win32,60,61025ae37ef11b136ea224fe,,,,,,,,,3268,24,-40,1,0,0,response3disk,,4,7,-11,1,0,0,rectangle,7,-11,1,0,0,7,-11,1,0,0,1,13,173,65,1,,,,,,,,
,,,,,,,,,,,,,FF,,,,,,,,4.1265,,,,,,,,,,,,,,,,,,,,,,610049238423f388e4bd4a32,6103686bd281cbf50c8e6ed9,2021-07-29_22h53.23.389,Simcolourproject_2stim_asymm_v5,2020.2.10,Win32,60,61025ae37ef11b136ea224fe,,,,,,,,,2517,45,20,1,0,0,response1disk,,6,6,-9,1,0,0,rectangle,6,-9,1,0,0,6,-9,1,0,0,1,14,174,41,1,,,,,,,,
,,,,,,,,,,,,,FF,,,,,,,,1.4007,,,,,,,,,,,,,,,,,,,,,,610049238423f388e4bd4a32,6103686bd281cbf50c8e6ed9,2021-07-29_22h53.23.389,Simcolourproject_2stim_asymm_v5,2020.2.10,Win32,60,61025ae37ef11b136ea224fe,,,,,,,,,4045,37,25,1,0,0,response1disk,,6,11,2,1,0,0,rectangle,11,2,1,0,0,11,2,1,0,0,1,15,175,94,1,,,,,,,,
,,,,,,,,,,,,,FF,,,,,,,,0.5753,,,,,,,,,,,,,,,,,,,,,,610049238423f388e4bd4a32,6103686bd281cbf50c8e6ed9,2021-07-29_22h53.23.389,Simcolourproject_2stim_asymm_v5,2020.2.10,Win32,60,61025ae37ef11b136ea224fe,,,,,,,,,210,39,25,1,0,0,response1disk,,6,3,-3,1,0,0,rectangle,3,-3,1,0,0,3,-3,1,0,0,1,16,176,143,1,,,,,,,,
,,,,,,,,,,,,,FF,,,,,,,,0.5502,,,,,,,,,,,,,,,,,,,,,,610049238423f388e4bd4a32,6103686bd281cbf50c8e6ed9,2021-07-29_22h53.23.389,Simcolourproject_2stim_asymm_v5,2020.2.10,Win32,60,61025ae37ef11b136ea224fe,,,,,,,,,3774,35,19,1,0,0,response1disk,,6,7,-4,1,0,0,rectangle,7,-4,1,0,0,7,-4,1,0,0,1,17,177,57,1,,,,,,,,
,,,,,,,,,,,,,FF,,,,,,,,1.2248,,,,,,,,,,,,,,,,,,,,,,610049238423f388e4bd4a32,6103686bd281cbf50c8e6ed9,2021-07-29_22h53.23.389,Simcolourproject_2stim_asymm_v5,2020.2.10,Win32,60,61025ae37ef11b136ea224fe,,,,,,,,,2769,34,19,1,0,0,response1disk,,6,15,-1,1,0,0,rectangle,15,-1,1,0,0,15,-1,1,0,0,1,18,178,147,1,,,,,,,,
,,,,,,,,,,,,,FF,,,,,,,,2.2759,,,,,,,,,,,,,,,,,,,,,,610049238423f388e4bd4a32,6103686bd281cbf50c8e6ed9,2021-07-29_22h53.23.389,Simcolourproject_2stim_asymm_v5,2020.2.10,Win32,60,61025ae37ef11b136ea224fe,,,,,,,,,2282,-17,-28,1,0,0,response5disk,,3,-2,-6,1,0,0,rectangle,-2,-6,1,0,0,-2,-6,1,0,0,1,19,179,23,1,,,,,,,,
,,,,,,,,,,,,,FF,,,,,,,,1.5257,,,,,,,,,,,,,,,,,,,,,,610049238423f388e4bd4a32,6103686bd281cbf50c8e6ed9,2021-07-29_22h53.23.389,Simcolourproject_2stim_asymm_v5,2020.2.10,Win32,60,61025ae37ef11b136ea224fe,,,,,,,,,1757,25,-15,1,0,0,response3disk,,5,-15,-9,1,0,0,rectangle,-15,-9,1,0,0,-15,-9,1,0,0,1,20,180,84,1,,,,,,,,
,,,,,,,,,,,,,FF,,,,,,,,0.8257,,,,,,,,,,,,,,,,,,,,,,610049238423f388e4bd4a32,6103686bd281cbf50c8e6ed9,2021-07-29_22h53.23.389,Simcolourproject_2stim_asymm_v5,2020.2.10,Win32,60,61025ae37ef11b136ea224fe,,,,,,,,,472,-27,41,1,0,0,response7disk,,0,-10,4,1,0,0,rectangle,-10,4,1,0,0,-10,4,1,0,0,1,21,181,91,1,,,,,,,,
,,,,,,,,,,,,,FF,,,,,,,,3.0509,,,,,,,,,,,,,,,,,,,,,,610049238423f388e4bd4a32,6103686bd281cbf50c8e6ed9,2021-07-29_22h53.23.389,Simcolourproject_2stim_asymm_v5,2020.2.10,Win32,60,61025ae37ef11b136ea224fe,,,,,,,,,4365,-16,-29,1,0,0,response5disk,,3,2,0,1,0,0,rectangle,2,0,1,0,0,2,0,1,0,0,1,22,182,110,1,,,,,,,,
,,,,,,,,,,,,,FF,,,,,,,,0.8,,,,,,,,,,,,,,,,,,,,,,610049238423f388e4bd4a32,6103686bd281cbf50c8e6ed9,2021-07-29_22h53.23.389,Simcolourproject_2stim_asymm_v5,2020.2.10,Win32,60,61025ae37ef11b136ea224fe,,,,,,,,,1555,33,14,1,0,0,response1disk,,6,13,-8,1,0,0,rectangle,13,-8,1,0,0,13,-8,1,0,0,1,23,183,119,1,,,,,,,,
,,,,,,,,,,,,,FF,,,,,,,,1.7003,,,,,,,,,,,,,,,,,,,,,,610049238423f388e4bd4a32,6103686bd281cbf50c8e6ed9,2021-07-29_22h53.23.389,Simcolourproject_2stim_asymm_v5,2020.2.10,Win32,60,61025ae37ef11b136ea224fe,,,,,,,,,735,-41,-23,1,0,0,response5disk,,2,-21,-5,1,0,0,rectangle,-21,-5,1,0,0,-21,-5,1,0,0,1,24,184,137,1,,,,,,,,
,,,,,,,,,,,,,FF,,,,,,,,0.8248,,,,,,,,,,,,,,,,,,,,,,610049238423f388e4bd4a32,6103686bd281cbf50c8e6ed9,2021-07-29_22h53.23.389,Simcolourproject_2stim_asymm_v5,2020.2.10,Win32,60,61025ae37ef11b136ea224fe,,,,,,,,,941,-12,34,1,0,0,response7disk,,0,-11,2,1,0,0,rectangle,-11,2,1,0,0,-11,2,1,0,0,1,25,185,36,1,,,,,,,,
,,,,,,,,,,,,,FF,,,,,,,,3.7514,,,,,,,,,,,,,,,,,,,,,,610049238423f388e4bd4a32,6103686bd281cbf50c8e6ed9,2021-07-29_22h53.23.389,Simcolourproject_2stim_asymm_v5,2020.2.10,Win32,60,61025ae37ef11b136ea224fe,,,,,,,,,3717,-13,-28,1,0,0,response5disk,,3,-5,-5,1,0,0,rectangle,-5,-5,1,0,0,-5,-5,1,0,0,1,26,186,100,1,,,,,,,,
,,,,,,,,,,,,,FF,,,,,,,,2.1007,,,,,,,,,,,,,,,,,,,,,,610049238423f388e4bd4a32,6103686bd281cbf50c8e6ed9,2021-07-29_22h53.23.389,Simcolourproject_2stim_asymm_v5,2020.2.10,Win32,60,61025ae37ef11b136ea224fe,,,,,,,,,639,23,-9,1,0,0,response3disk,,5,5,-5,1,0,0,rectangle,5,-5,1,0,0,5,-5,1,0,0,1,27,187,108,1,,,,,,,,
,,,,,,,,,,,,,FF,,,,,,,,0.7252,,,,,,,,,,,,,,,,,,,,,,610049238423f388e4bd4a32,6103686bd281cbf50c8e6ed9,2021-07-29_22h53.23.389,Simcolourproject_2stim_asymm_v5,2020.2.10,Win32,60,61025ae37ef11b136ea224fe,,,,,,,,,4,37,-19,1,0,0,response3disk,,5,-15,-4,1,0,0,rectangle,-15,-4,1,0,0,-15,-4,1,0,0,1,28,188,158,1,,,,,,,,
,,,,,,,,,,,,,FF,,,,,,,,1.2003,,,,,,,,,,,,,,,,,,,,,,610049238423f388e4bd4a32,6103686bd281cbf50c8e6ed9,2021-07-29_22h53.23.389,Simcolourproject_2stim_asymm_v5,2020.2.10,Win32,60,61025ae37ef11b136ea224fe,,,,,,,,,3536,-33,17,1,0,0,response7disk,,1,-8,-10,1,0,0,rectangle,-8,-10,1,0,0,-8,-10,1,0,0,1,29,189,56,1,,,,,,,,
,,,,,,,,,,,,,FF,,,,,,,,1.5504,,,,,,,,,,,,,,,,,,,,,,610049238423f388e4bd4a32,6103686bd281cbf50c8e6ed9,2021-07-29_22h53.23.389,Simcolourproject_2stim_asymm_v5,2020.2.10,Win32,60,61025ae37ef11b136ea224fe,,,,,,,,,3649,32,18,1,0,0,response1disk,,6,6,-7,1,0,0,rectangle,6,-7,1,0,0,6,-7,1,0,0,1,30,190,101,1,,,,,,,,
,,,,,,,,,,,,,FF,,,,,,,,0.7001,,,,,,,,,,,,,,,,,,,,,,610049238423f388e4bd4a32,6103686bd281cbf50c8e6ed9,2021-07-29_22h53.23.389,Simcolourproject_2stim_asymm_v5,2020.2.10,Win32,60,61025ae37ef11b136ea224fe,,,,,,,,,4022,-12,32,1,0,0,response7disk,,0,-10,2,1,0,0,rectangle,-59,26,1,0,0,-19,2,1,0,0,1,31,191,142,1,,response7disk_3,TRUE,1,1,"[37,319,167,192,173,23,27,43,302,269,323,49,3,157,248,90,66,102,77,297]",1.4003,rectangle
,,,,,,,,,,,,,FF,,,,,,,,0.6754,,,,,,,,,,,,,,,,,,,,,,610049238423f388e4bd4a32,6103686bd281cbf50c8e6ed9,2021-07-29_22h53.23.389,Simcolourproject_2stim_asymm_v5,2020.2.10,Win32,60,61025ae37ef11b136ea224fe,,,,,,,,,1823,-17,33,1,0,0,response7disk,,0,-8,-1,1,0,0,rectangle,-8,-1,1,0,0,-8,-1,1,0,0,1,32,192,99,1,,,,,,,,
,,,,,,,,,,,,,FF,,,,,,,,1.5,,,,,,,,,,,,,,,,,,,,,,610049238423f388e4bd4a32,6103686bd281cbf50c8e6ed9,2021-07-29_22h53.23.389,Simcolourproject_2stim_asymm_v5,2020.2.10,Win32,60,61025ae37ef11b136ea224fe,,,,,,,,,1414,-36,13,1,0,0,response7disk,,1,5,0,1,0,0,rectangle,5,0,1,0,0,5,0,1,0,0,1,33,193,140,1,,,,,,,,
,,,,,,,,,,,,,FF,,,,,,,,2.6007,,,,,,,,,,,,,,,,,,,,,,610049238423f388e4bd4a32,6103686bd281cbf50c8e6ed9,2021-07-29_22h53.23.389,Simcolourproject_2stim_asymm_v5,2020.2.10,Win32,60,61025ae37ef11b136ea224fe,,,,,,,,,1112,-38,17,1,0,0,response7disk,,1,-18,4,1,0,0,rectangle,-18,4,1,0,0,-18,4,1,0,0,1,34,194,112,1,,,,,,,,
,,,,,,,,,,,,,FF,,,,,,,,2.0008,,,,,,,,,,,,,,,,,,,,,,610049238423f388e4bd4a32,6103686bd281cbf50c8e6ed9,2021-07-29_22h53.23.389,Simcolourproject_2stim_asymm_v5,2020.2.10,Win32,60,61025ae37ef11b136ea224fe,,,,,,,,,2532,-57,-24,1,0,0,response5disk,,2,-5,3,1,0,0,rectangle,-5,3,1,0,0,-5,3,1,0,0,1,35,195,139,1,,,,,,,,
,,,,,,,,,,,,,FF,,,,,,,,0.6505,,,,,,,,,,,,,,,,,,,,,,610049238423f388e4bd4a32,6103686bd281cbf50c8e6ed9,2021-07-29_22h53.23.389,Simcolourproject_2stim_asymm_v5,2020.2.10,Win32,60,61025ae37ef11b136ea224fe,,,,,,,,,1453,-29,20,1,0,0,response7disk,,1,-20,1,1,0,0,rectangle,-20,1,1,0,0,-20,1,1,0,0,1,36,196,30,1,,,,,,,,
,,,,,,,,,,,,,FF,,,,,,,,1.2504,,,,,,,,,,,,,,,,,,,,,,610049238423f388e4bd4a32,6103686bd281cbf50c8e6ed9,2021-07-29_22h53.23.389,Simcolourproject_2stim_asymm_v5,2020.2.10,Win32,60,61025ae37ef11b136ea224fe,,,,,,,,,2906,-29,-21,1,0,0,response5disk,,2,-1,-8,1,0,0,rectangle,-1,-8,1,0,0,-1,-8,1,0,0,1,37,197,131,1,,,,,,,,
,,,,,,,,,,,,,FF,,,,,,,,3.3008,,,,,,,,,,,,,,,,,,,,,,610049238423f388e4bd4a32,6103686bd281cbf50c8e6ed9,2021-07-29_22h53.23.389,Simcolourproject_2stim_asymm_v5,2020.2.10,Win32,60,61025ae37ef11b136ea224fe,,,,,,,,,3677,39,22,1,0,0,response1disk,,6,17,-12,1,0,0,rectangle,17,-12,1,0,0,17,-12,1,0,0,1,38,198,12,1,,,,,,,,
,,,,,,,,,,,,,FF,,,,,,,,1.6001,,,,,,,,,,,,,,,,,,,,,,610049238423f388e4bd4a32,6103686bd281cbf50c8e6ed9,2021-07-29_22h53.23.389,Simcolourproject_2stim_asymm_v5,2020.2.10,Win32,60,61025ae37ef11b136ea224fe,,,,,,,,,2056,-25,-30,1,0,0,response5disk,,3,-3,-3,1,0,0,rectangle,-3,-3,1,0,0,-3,-3,1,0,0,1,39,199,72,1,,,,,,,,
,,,,,,,,,,,,,FF,,,,,,,,1.3251,,,,,,,,,,,,,,,,,,,,,,610049238423f388e4bd4a32,6103686bd281cbf50c8e6ed9,2021-07-29_22h53.23.389,Simcolourproject_2stim_asymm_v5,2020.2.10,Win32,60,61025ae37ef11b136ea224fe,,,,,,,,,363,14,-37,1,0,0,response3disk,,4,6,-18,1,0,0,rectangle,6,-18,1,0,0,6,-18,1,0,0,1,40,200,63,1,,,,,,,,
,,,,,,,,,,,,,FF,,,,,,,,1.8505,,,,,,,,,,,,,,,,,,,,,,610049238423f388e4bd4a32,6103686bd281cbf50c8e6ed9,2021-07-29_22h53.23.389,Simcolourproject_2stim_asymm_v5,2020.2.10,Win32,60,61025ae37ef11b136ea224fe,,,,,,,,,440,12,-30,1,0,0,response3disk,,4,13,-10,1,0,0,rectangle,13,-10,1,0,0,13,-10,1,0,0,1,41,201,62,1,,,,,,,,
,,,,,,,,,,,,,FF,,,,,,,,1.0505,,,,,,,,,,,,,,,,,,,,,,610049238423f388e4bd4a32,6103686bd281cbf50c8e6ed9,2021-07-29_22h53.23.389,Simcolourproject_2stim_asymm_v5,2020.2.10,Win32,60,61025ae37ef11b136ea224fe,,,,,,,,,570,12,-27,1,0,0,response3disk,,4,12,-13,1,0,0,rectangle,12,-13,1,0,0,12,-13,1,0,0,1,42,202,27,1,,,,,,,,
,,,,,,,,,,,,,FF,,,,,,,,0.6254,,,,,,,,,,,,,,,,,,,,,,610049238423f388e4bd4a32,6103686bd281cbf50c8e6ed9,2021-07-29_22h53.23.389,Simcolourproject_2stim_asymm_v5,2020.2.10,Win32,60,61025ae37ef11b136ea224fe,,,,,,,,,1672,10,-29,1,0,0,response3disk,,4,14,1,1,0,0,rectangle,14,1,1,0,0,14,1,1,0,0,1,43,203,125,1,,,,,,,,
,,,,,,,,,,,,,FF,,,,,,,,1.8506,,,,,,,,,,,,,,,,,,,,,,610049238423f388e4bd4a32,6103686bd281cbf50c8e6ed9,2021-07-29_22h53.23.389,Simcolourproject_2stim_asymm_v5,2020.2.10,Win32,60,61025ae37ef11b136ea224fe,,,,,,,,,2042,-42,-13,1,0,0,response5disk,,2,-10,-1,1,0,0,rectangle,-10,-1,1,0,0,-10,-1,1,0,0,1,44,204,123,1,,,,,,,,
,,,,,,,,,,,,,FF,,,,,,,,1.4754,,,,,,,,,,,,,,,,,,,,,,610049238423f388e4bd4a32,6103686bd281cbf50c8e6ed9,2021-07-29_22h53.23.389,Simcolourproject_2stim_asymm_v5,2020.2.10,Win32,60,61025ae37ef11b136ea224fe,,,,,,,,,1472,-38,21,1,0,0,response7disk,,1,-3,7,1,0,0,rectangle,-3,7,1,0,0,-3,7,1,0,0,1,45,205,114,1,,,,,,,,
,,,,,,,,,,,,,FF,,,,,,,,0.8503,,,,,,,,,,,,,,,,,,,,,,610049238423f388e4bd4a32,6103686bd281cbf50c8e6ed9,2021-07-29_22h53.23.389,Simcolourproject_2stim_asymm_v5,2020.2.10,Win32,60,61025ae37ef11b136ea224fe,,,,,,,,,125,-28,15,1,0,0,response7disk,,1,-15,6,1,0,0,rectangle,-15,6,1,0,0,-15,6,1,0,0,1,46,206,109,1,,,,,,,,
,,,,,,,,,,,,,FF,,,,,,,,1.0004,,,,,,,,,,,,,,,,,,,,,,610049238423f388e4bd4a32,6103686bd281cbf50c8e6ed9,2021-07-29_22h53.23.389,Simcolourproject_2stim_asymm_v5,2020.2.10,Win32,60,61025ae37ef11b136ea224fe,,,,,,,,,2815,-27,13,1,0,0,response7disk,,1,-11,-1,1,0,0,rectangle,-11,-1,1,0,0,-11,-1,1,0,0,1,47,207,38,1,,,,,,,,
,,,,,,,,,,,,,FF,,,,,,,,0.6005,,,,,,,,,,,,,,,,,,,,,,610049238423f388e4bd4a32,6103686bd281cbf50c8e6ed9,2021-07-29_22h53.23.389,Simcolourproject_2stim_asymm_v5,2020.2.10,Win32,60,61025ae37ef11b136ea224fe,,,,,,,,,159,-43,26,1,0,0,response7disk,,1,-10,1,1,0,0,rectangle,-10,1,1,0,0,-10,1,1,0,0,1,48,208,1,1,,,,,,,,
,,,,,,,,,,,,,FF,,,,,,,,0.8761,,,,,,,,,,,,,,,,,,,,,,610049238423f388e4bd4a32,6103686bd281cbf50c8e6ed9,2021-07-29_22h53.23.389,Simcolourproject_2stim_asymm_v5,2020.2.10,Win32,60,61025ae37ef11b136ea224fe,,,,,,,,,2008,-39,16,1,0,0,response7disk,,1,-12,3,1,0,0,rectangle,-12,3,1,0,0,-12,3,1,0,0,1,49,209,80,1,,,,,,,,
,,,,,,,,,,,,,FF,,,,,,,,1.6504,,,,,,,,,,,,,,,,,,,,,,610049238423f388e4bd4a32,6103686bd281cbf50c8e6ed9,2021-07-29_22h53.23.389,Simcolourproject_2stim_asymm_v5,2020.2.10,Win32,60,61025ae37ef11b136ea224fe,,,,,,,,,1868,-23,16,1,0,0,response7disk,,1,-10,2,1,0,0,rectangle,-10,2,1,0,0,-10,2,1,0,0,1,50,210,120,1,,,,,,,,
,,,,,,,,,,,,,FF,,,,,,,,0.8504,,,,,,,,,,,,,,,,,,,,,,610049238423f388e4bd4a32,6103686bd281cbf50c8e6ed9,2021-07-29_22h53.23.389,Simcolourproject_2stim_asymm_v5,2020.2.10,Win32,60,61025ae37ef11b136ea224fe,,,,,,,,,72,-10,25,1,0,0,response7disk,,0,-4,-1,1,0,0,rectangle,-4,-1,1,0,0,-4,-1,1,0,0,1,51,211,52,1,,,,,,,,
,,,,,,,,,,,,,FF,,,,,,,,5.1513,,,,,,,,,,,,,,,,,,,,,,610049238423f388e4bd4a32,6103686bd281cbf50c8e6ed9,2021-07-29_22h53.23.389,Simcolourproject_2stim_asymm_v5,2020.2.10,Win32,60,61025ae37ef11b136ea224fe,,,,,,,,,4023,47,-23,1,0,0,response3disk,,5,3,-3,1,0,0,rectangle,3,-3,1,0,0,3,-3,1,0,0,1,52,212,122,1,,,,,,,,
,,,,,,,,,,,,,FF,,,,,,,,1.1504,,,,,,,,,,,,,,,,,,,,,,610049238423f388e4bd4a32,6103686bd281cbf50c8e6ed9,2021-07-29_22h53.23.389,Simcolourproject_2stim_asymm_v5,2020.2.10,Win32,60,61025ae37ef11b136ea224fe,,,,,,,,,232,-15,27,1,0,0,response7disk,,0,-2,2,1,0,0,rectangle,-2,2,1,0,0,-2,2,1,0,0,1,53,213,83,1,,,,,,,,
,,,,,,,,,,,,,FF,,,,,,,,4.6762,,,,,,,,,,,,,,,,,,,,,,610049238423f388e4bd4a32,6103686bd281cbf50c8e6ed9,2021-07-29_22h53.23.389,Simcolourproject_2stim_asymm_v5,2020.2.10,Win32,60,61025ae37ef11b136ea224fe,,,,,,,,,1610,-38,-39,1,0,0,response5disk,,3,-12,-5,1,0,0,rectangle,-12,-5,1,0,0,-12,-5,1,0,0,1,54,214,86,1,,,,,,,,
,,,,,,,,,,,,,FF,,,,,,,,1.7757,,,,,,,,,,,,,,,,,,,,,,610049238423f388e4bd4a32,6103686bd281cbf50c8e6ed9,2021-07-29_22h53.23.389,Simcolourproject_2stim_asymm_v5,2020.2.10,Win32,60,61025ae37ef11b136ea224fe,,,,,,,,,760,32,41,1,0,0,response1disk,,7,22,7,1,0,0,rectangle,22,7,1,0,0,22,7,1,0,0,1,55,215,93,1,,,,,,,,
,,,,,,,,,,,,,FF,,,,,,,,1.0998,,,,,,,,,,,,,,,,,,,,,,610049238423f388e4bd4a32,6103686bd281cbf50c8e6ed9,2021-07-29_22h53.23.389,Simcolourproject_2stim_asymm_v5,2020.2.10,Win32,60,61025ae37ef11b136ea224fe,,,,,,,,,856,-39,-16,1,0,0,response5disk,,2,-6,-4,1,0,0,rectangle,-6,-4,1,0,0,-6,-4,1,0,0,1,56,216,46,1,,,,,,,,
,,,,,,,,,,,,,FF,,,,,,,,1.6755,,,,,,,,,,,,,,,,,,,,,,610049238423f388e4bd4a32,6103686bd281cbf50c8e6ed9,2021-07-29_22h53.23.389,Simcolourproject_2stim_asymm_v5,2020.2.10,Win32,60,61025ae37ef11b136ea224fe,,,,,,,,,728,-29,-18,1,0,0,response5disk,,2,-6,-6,1,0,0,rectangle,-6,-6,1,0,0,-6,-6,1,0,0,1,57,217,149,1,,,,,,,,
,,,,,,,,,,,,,FF,,,,,,,,1.5515,,,,,,,,,,,,,,,,,,,,,,610049238423f388e4bd4a32,6103686bd281cbf50c8e6ed9,2021-07-29_22h53.23.389,Simcolourproject_2stim_asymm_v5,2020.2.10,Win32,60,61025ae37ef11b136ea224fe,,,,,,,,,4086,-39,-21,1,0,0,response5disk,,2,2,-8,1,0,0,rectangle,2,-8,1,0,0,2,-8,1,0,0,1,58,218,121,1,,,,,,,,
,,,,,,,,,,,,,FF,,,,,,,,2.2255,,,,,,,,,,,,,,,,,,,,,,610049238423f388e4bd4a32,6103686bd281cbf50c8e6ed9,2021-07-29_22h53.23.389,Simcolourproject_2stim_asymm_v5,2020.2.10,Win32,60,61025ae37ef11b136ea224fe,,,,,,,,,1982,-55,-29,1,0,0,response5disk,,2,5,-8,1,0,0,rectangle,5,-8,1,0,0,5,-8,1,0,0,1,59,219,42,1,,,,,,,,
,,,,,,,,,,,,,FF,,,,,,,,1.6007,,,,,,,,,,,,,,,,,,,,,,610049238423f388e4bd4a32,6103686bd281cbf50c8e6ed9,2021-07-29_22h53.23.389,Simcolourproject_2stim_asymm_v5,2020.2.10,Win32,60,61025ae37ef11b136ea224fe,,,,,,,,,3514,29,39,1,0,0,response1disk,,7,15,8,1,0,0,rectangle,15,8,1,0,0,15,8,1,0,0,1,60,220,48,1,,,,,,,,
,,,,,,,,,,,,,FF,,,,,,,,4.8761,,,,,,,,,,,,,,,,,,,,,,610049238423f388e4bd4a32,6103686bd281cbf50c8e6ed9,2021-07-29_22h53.23.389,Simcolourproject_2stim_asymm_v5,2020.2.10,Win32,60,61025ae37ef11b136ea224fe,,,,,,,,,3288,-16,-28,1,0,0,response5disk,,3,4,-7,1,0,0,rectangle,4,-7,1,0,0,4,-7,1,0,0,1,61,221,156,1,,,,,,,,
,,,,,,,,,,,,,FF,,,,,,,,1.2256,,,,,,,,,,,,,,,,,,,,,,610049238423f388e4bd4a32,6103686bd281cbf50c8e6ed9,2021-07-29_22h53.23.389,Simcolourproject_2stim_asymm_v5,2020.2.10,Win32,60,61025ae37ef11b136ea224fe,,,,,,,,,2953,-42,16,1,0,0,response7disk,,1,20,-7,1,0,0,rectangle,20,-7,1,0,0,20,-7,1,0,0,1,62,222,28,1,,,,,,,,
,,,,,,,,,,,,,FF,,,,,,,,1.4003,,,,,,,,,,,,,,,,,,,,,,610049238423f388e4bd4a32,6103686bd281cbf50c8e6ed9,2021-07-29_22h53.23.389,Simcolourproject_2stim_asymm_v5,2020.2.10,Win32,60,61025ae37ef11b136ea224fe,,,,,,,,,409,45,29,1,0,0,response1disk,,6,7,-3,1,0,0,rectangle,7,-3,1,0,0,7,-3,1,0,0,1,63,223,95,1,,,,,,,,
,,,,,,,,,,,,,FF,,,,,,,,1.0253,,,,,,,,,,,,,,,,,,,,,,610049238423f388e4bd4a32,6103686bd281cbf50c8e6ed9,2021-07-29_22h53.23.389,Simcolourproject_2stim_asymm_v5,2020.2.10,Win32,60,61025ae37ef11b136ea224fe,,,,,,,,,4148,32,50,1,0,0,response1disk,,7,17,12,1,0,0,rectangle,17,12,1,0,0,17,12,1,0,0,1,64,224,54,1,,,,,,,,
,,,,,,,,,,,,,FF,,,,,,,,1.4256,,,,,,,,,,,,,,,,,,,,,,610049238423f388e4bd4a32,6103686bd281cbf50c8e6ed9,2021-07-29_22h53.23.389,Simcolourproject_2stim_asymm_v5,2020.2.10,Win32,60,61025ae37ef11b136ea224fe,,,,,,,,,2454,-35,47,1,0,0,response7disk,,0,-15,11,1,0,0,rectangle,-15,11,1,0,0,-15,11,1,0,0,1,65,225,105,1,,,,,,,,
,,,,,,,,,,,,,FF,,,,,,,,4.3257,,,,,,,,,,,,,,,,,,,,,,610049238423f388e4bd4a32,6103686bd281cbf50c8e6ed9,2021-07-29_22h53.23.389,Simcolourproject_2stim_asymm_v5,2020.2.10,Win32,60,61025ae37ef11b136ea224fe,,,,,,,,,2049,39,30,1,0,0,response1disk,,6,10,5,1,0,0,rectangle,10,5,1,0,0,10,5,1,0,0,1,66,226,71,1,,,,,,,,
,,,,,,,,,,,,,FF,,,,,,,,0.8753,,,,,,,,,,,,,,,,,,,,,,610049238423f388e4bd4a32,6103686bd281cbf50c8e6ed9,2021-07-29_22h53.23.389,Simcolourproject_2stim_asymm_v5,2020.2.10,Win32,60,61025ae37ef11b136ea224fe,,,,,,,,,1461,-48,19,1,0,0,response7disk,,1,17,-8,1,0,0,rectangle,17,-8,1,0,0,17,-8,1,0,0,1,67,227,17,1,,,,,,,,
,,,,,,,,,,,,,FF,,,,,,,,0.7004,,,,,,,,,,,,,,,,,,,,,,610049238423f388e4bd4a32,6103686bd281cbf50c8e6ed9,2021-07-29_22h53.23.389,Simcolourproject_2stim_asymm_v5,2020.2.10,Win32,60,61025ae37ef11b136ea224fe,,,,,,,,,2306,-32,17,1,0,0,response7disk,,1,-17,7,1,0,0,rectangle,-17,7,1,0,0,-17,7,1,0,0,1,68,228,60,1,,,,,,,,
,,,,,,,,,,,,,FF,,,,,,,,0.5753,,,,,,,,,,,,,,,,,,,,,,610049238423f388e4bd4a32,6103686bd281cbf50c8e6ed9,2021-07-29_22h53.23.389,Simcolourproject_2stim_asymm_v5,2020.2.10,Win32,60,61025ae37ef11b136ea224fe,,,,,,,,,2245,-37,16,1,0,0,response7disk,,1,-16,4,1,0,0,rectangle,-16,4,1,0,0,-16,4,1,0,0,1,69,229,127,1,,,,,,,,
,,,,,,,,,,,,,FF,,,,,,,,1.6503,,,,,,,,,,,,,,,,,,,,,,610049238423f388e4bd4a32,6103686bd281cbf50c8e6ed9,2021-07-29_22h53.23.389,Simcolourproject_2stim_asymm_v5,2020.2.10,Win32,60,61025ae37ef11b136ea224fe,,,,,,,,,1088,33,21,1,0,0,response1disk,,6,12,2,1,0,0,rectangle,12,2,1,0,0,12,2,1,0,0,1,70,230,16,1,,,,,,,,
,,,,,,,,,,,,,FF,,,,,,,,2.3251,,,,,,,,,,,,,,,,,,,,,,610049238423f388e4bd4a32,6103686bd281cbf50c8e6ed9,2021-07-29_22h53.23.389,Simcolourproject_2stim_asymm_v5,2020.2.10,Win32,60,61025ae37ef11b136ea224fe,,,,,,,,,1551,-25,-43,1,0,0,response5disk,,3,-12,-15,1,0,0,rectangle,-12,-15,1,0,0,-12,-15,1,0,0,1,71,231,138,1,,,,,,,,
,,,,,,,,,,,,,FF,,,,,,,,0.8497,,,,,,,,,,,,,,,,,,,,,,610049238423f388e4bd4a32,6103686bd281cbf50c8e6ed9,2021-07-29_22h53.23.389,Simcolourproject_2stim_asymm_v5,2020.2.10,Win32,60,61025ae37ef11b136ea224fe,,,,,,,,,238,-48,-14,1,0,0,response5disk,,2,-8,4,1,0,0,rectangle,-8,4,1,0,0,-8,4,1,0,0,1,72,232,11,1,,,,,,,,
,,,,,,,,,,,,,FF,,,,,,,,1.4504,,,,,,,,,,,,,,,,,,,,,,610049238423f388e4bd4a32,6103686bd281cbf50c8e6ed9,2021-07-29_22h53.23.389,Simcolourproject_2stim_asymm_v5,2020.2.10,Win32,60,61025ae37ef11b136ea224fe,,,,,,,,,4224,33,-16,1,0,0,response3disk,,5,-20,4,1,0,0,rectangle,-20,4,1,0,0,-20,4,1,0,0,1,73,233,69,1,,,,,,,,
,,,,,,,,,,,,,FF,,,,,,,,1.3251,,,,,,,,,,,,,,,,,,,,,,610049238423f388e4bd4a32,6103686bd281cbf50c8e6ed9,2021-07-29_22h53.23.389,Simcolourproject_2stim_asymm_v5,2020.2.10,Win32,60,61025ae37ef11b136ea224fe,,,,,,,,,723,25,46,1,0,0,response1disk,,7,14,8,1,0,0,rectangle,14,8,1,0,0,14,8,1,0,0,1,74,234,39,1,,,,,,,,
,,,,,,,,,,,,,FF,,,,,,,,2.2256,,,,,,,,,,,,,,,,,,,,,,610049238423f388e4bd4a32,6103686bd281cbf50c8e6ed9,2021-07-29_22h53.23.389,Simcolourproject_2stim_asymm_v5,2020.2.10,Win32,60,61025ae37ef11b136ea224fe,,,,,,,,,4118,-25,41,1,0,0,response7disk,,0,-11,4,1,0,0,rectangle,-11,4,1,0,0,-11,4,1,0,0,1,75,235,141,1,,,,,,,,
,,,,,,,,,,,,,FF,,,,,,,,0.8778,,,,,,,,,,,,,,,,,,,,,,610049238423f388e4bd4a32,6103686bd281cbf50c8e6ed9,2021-07-29_22h53.23.389,Simcolourproject_2stim_asymm_v5,2020.2.10,Win32,60,61025ae37ef11b136ea224fe,,,,,,,,,3603,-20,31,1,0,0,response7disk,,0,-12,6,1,0,0,rectangle,-12,6,1,0,0,-12,6,1,0,0,1,76,236,97,1,,,,,,,,
,,,,,,,,,,,,,FF,,,,,,,,0.8503,,,,,,,,,,,,,,,,,,,,,,610049238423f388e4bd4a32,6103686bd281cbf50c8e6ed9,2021-07-29_22h53.23.389,Simcolourproject_2stim_asymm_v5,2020.2.10,Win32,60,61025ae37ef11b136ea224fe,,,,,,,,,3371,-34,15,1,0,0,response7disk,,1,6,1,1,0,0,rectangle,6,1,1,0,0,6,1,1,0,0,1,77,237,102,1,,,,,,,,
,,,,,,,,,,,,,FF,,,,,,,,1.4755,,,,,,,,,,,,,,,,,,,,,,610049238423f388e4bd4a32,6103686bd281cbf50c8e6ed9,2021-07-29_22h53.23.389,Simcolourproject_2stim_asymm_v5,2020.2.10,Win32,60,61025ae37ef11b136ea224fe,,,,,,,,,4197,-44,-16,1,0,0,response5disk,,2,-5,1,1,0,0,rectangle,-5,1,1,0,0,-5,1,1,0,0,1,78,238,21,1,,,,,,,,
,,,,,,,,,,,,,FF,,,,,,,,0.9501,,,,,,,,,,,,,,,,,,,,,,610049238423f388e4bd4a32,6103686bd281cbf50c8e6ed9,2021-07-29_22h53.23.389,Simcolourproject_2stim_asymm_v5,2020.2.10,Win32,60,61025ae37ef11b136ea224fe,,,,,,,,,670,-39,10,1,0,0,response7disk,,1,-4,-4,1,0,0,rectangle,-4,-4,1,0,0,-4,-4,1,0,0,1,79,239,130,1,,,,,,,,
,,,,,,,,,,,,,FF,,,,,,,,1.0002,,,,,,,,,,,,,,,,,,,,,,610049238423f388e4bd4a32,6103686bd281cbf50c8e6ed9,2021-07-29_22h53.23.389,Simcolourproject_2stim_asymm_v5,2020.2.10,Win32,60,61025ae37ef11b136ea224fe,,,,,,,,,1726,15,-35,1,0,0,response3disk,,4,4,3,1,0,0,rectangle,4,3,1,0,0,4,3,1,0,0,1,80,240,4,1,,,,,,,,
,,,,,,,,,,,,,FF,,,,,,,,1.2255,,,,,,,,,,,,,,,,,,,,,,610049238423f388e4bd4a32,6103686bd281cbf50c8e6ed9,2021-07-29_22h53.23.389,Simcolourproject_2stim_asymm_v5,2020.2.10,Win32,60,61025ae37ef11b136ea224fe,,,,,,,,,2811,-41,18,1,0,0,response7disk,,1,-10,9,1,0,0,rectangle,-10,9,1,0,0,-10,9,1,0,0,1,81,241,115,1,,,,,,,,
,,,,,,,,,,,,,FF,,,,,,,,1.0251,,,,,,,,,,,,,,,,,,,,,,610049238423f388e4bd4a32,6103686bd281cbf50c8e6ed9,2021-07-29_22h53.23.389,Simcolourproject_2stim_asymm_v5,2020.2.10,Win32,60,61025ae37ef11b136ea224fe,,,,,,,,,1027,-49,-24,1,0,0,response5disk,,2,-12,-8,1,0,0,rectangle,-12,-8,1,0,0,-12,-8,1,0,0,1,82,242,146,1,,,,,,,,
,,,,,,,,,,,,,FF,,,,,,,,0.7501,,,,,,,,,,,,,,,,,,,,,,610049238423f388e4bd4a32,6103686bd281cbf50c8e6ed9,2021-07-29_22h53.23.389,Simcolourproject_2stim_asymm_v5,2020.2.10,Win32,60,61025ae37ef11b136ea224fe,,,,,,,,,350,-22,-49,1,0,0,response5disk,,3,-4,-9,1,0,0,rectangle,-4,-9,1,0,0,-4,-9,1,0,0,1,83,243,58,1,,,,,,,,
,,,,,,,,,,,,,FF,,,,,,,,3.2758,,,,,,,,,,,,,,,,,,,,,,610049238423f388e4bd4a32,6103686bd281cbf50c8e6ed9,2021-07-29_22h53.23.389,Simcolourproject_2stim_asymm_v5,2020.2.10,Win32,60,61025ae37ef11b136ea224fe,,,,,,,,,1713,25,42,1,0,0,response1disk,,7,9,4,1,0,0,rectangle,9,4,1,0,0,9,4,1,0,0,1,84,244,3,1,,,,,,,,
,,,,,,,,,,,,,FF,,,,,,,,2.1004,,,,,,,,,,,,,,,,,,,,,,610049238423f388e4bd4a32,6103686bd281cbf50c8e6ed9,2021-07-29_22h53.23.389,Simcolourproject_2stim_asymm_v5,2020.2.10,Win32,60,61025ae37ef11b136ea224fe,,,,,,,,,1410,-27,-35,1,0,0,response5disk,,3,-14,11,1,0,0,rectangle,-14,11,1,0,0,-14,11,1,0,0,1,85,245,79,1,,,,,,,,
,,,,,,,,,,,,,FF,,,,,,,,1.5257,,,,,,,,,,,,,,,,,,,,,,610049238423f388e4bd4a32,6103686bd281cbf50c8e6ed9,2021-07-29_22h53.23.389,Simcolourproject_2stim_asymm_v5,2020.2.10,Win32,60,61025ae37ef11b136ea224fe,,,,,,,,,3314,33,24,1,0,0,response1disk,,6,4,-2,1,0,0,rectangle,4,-2,1,0,0,4,-2,1,0,0,1,86,246,129,1,,,,,,,,
,,,,,,,,,,,,,FF,,,,,,,,3.2258,,,,,,,,,,,,,,,,,,,,,,610049238423f388e4bd4a32,6103686bd281cbf50c8e6ed9,2021-07-29_22h53.23.389,Simcolourproject_2stim_asymm_v5,2020.2.10,Win32,60,61025ae37ef11b136ea224fe,,,,,,,,,3788,-24,-39,1,0,0,response5disk,,3,-1,-7,1,0,0,rectangle,-38,48,1,0,0,-24,-3,1,0,0,1,87,247,89,1,,response7disk_3,TRUE,0,0,"[37,319,167,192,173,23,27,43,302,269,323,49,3,157,248,90,66,102,77,297]",1.4014,rectangle
,,,,,,,,,,,,,FF,,,,,,,,4.6766,,,,,,,,,,,,,,,,,,,,,,610049238423f388e4bd4a32,6103686bd281cbf50c8e6ed9,2021-07-29_22h53.23.389,Simcolourproject_2stim_asymm_v5,2020.2.10,Win32,60,61025ae37ef11b136ea224fe,,,,,,,,,1642,-49,-16,1,0,0,response5disk,,2,-25,1,1,0,0,rectangle,-25,1,1,0,0,-25,1,1,0,0,1,88,248,44,1,,,,,,,,
,,,,,,,,,,,,,FF,,,,,,,,0.9004,,,,,,,,,,,,,,,,,,,,,,610049238423f388e4bd4a32,6103686bd281cbf50c8e6ed9,2021-07-29_22h53.23.389,Simcolourproject_2stim_asymm_v5,2020.2.10,Win32,60,61025ae37ef11b136ea224fe,,,,,,,,,1633,-31,26,1,0,0,response7disk,,1,-15,4,1,0,0,rectangle,-15,4,1,0,0,-15,4,1,0,0,1,89,249,155,1,,,,,,,,
,,,,,,,,,,,,,FF,,,,,,,,0.8998,,,,,,,,,,,,,,,,,,,,,,610049238423f388e4bd4a32,6103686bd281cbf50c8e6ed9,2021-07-29_22h53.23.389,Simcolourproject_2stim_asymm_v5,2020.2.10,Win32,60,61025ae37ef11b136ea224fe,,,,,,,,,1041,-24,-36,1,0,0,response5disk,,3,-5,-1,1,0,0,rectangle,-5,-1,1,0,0,-5,-1,1,0,0,1,90,250,92,1,,,,,,,,
,,,,,,,,,,,,,FF,,,,,,,,1.0004,,,,,,,,,,,,,,,,,,,,,,610049238423f388e4bd4a32,6103686bd281cbf50c8e6ed9,2021-07-29_22h53.23.389,Simcolourproject_2stim_asymm_v5,2020.2.10,Win32,60,61025ae37ef11b136ea224fe,,,,,,,,,3356,9,-31,1,0,0,response3disk,,4,7,-7,1,0,0,rectangle,7,-7,1,0,0,7,-7,1,0,0,1,91,251,136,1,,,,,,,,
,,,,,,,,,,,,,FF,,,,,,,,0.7003,,,,,,,,,,,,,,,,,,,,,,610049238423f388e4bd4a32,6103686bd281cbf50c8e6ed9,2021-07-29_22h53.23.389,Simcolourproject_2stim_asymm_v5,2020.2.10,Win32,60,61025ae37ef11b136ea224fe,,,,,,,,,2644,-19,36,1,0,0,response7disk,,0,-12,3,1,0,0,rectangle,-12,3,1,0,0,-12,3,1,0,0,1,92,252,45,1,,,,,,,,
,,,,,,,,,,,,,FF,,,,,,,,0.7003,,,,,,,,,,,,,,,,,,,,,,610049238423f388e4bd4a32,6103686bd281cbf50c8e6ed9,2021-07-29_22h53.23.389,Simcolourproject_2stim_asymm_v5,2020.2.10,Win32,60,61025ae37ef11b136ea224fe,,,,,,,,,2361,-28,18,1,0,0,response7disk,,1,-5,4,1,0,0,rectangle,-5,4,1,0,0,-5,4,1,0,0,1,93,253,85,1,,,,,,,,
,,,,,,,,,,,,,FF,,,,,,,,0.7252,,,,,,,,,,,,,,,,,,,,,,610049238423f388e4bd4a32,6103686bd281cbf50c8e6ed9,2021-07-29_22h53.23.389,Simcolourproject_2stim_asymm_v5,2020.2.10,Win32,60,61025ae37ef11b136ea224fe,,,,,,,,,4370,-35,11,1,0,0,response7disk,,1,-15,0,1,0,0,rectangle,-15,0,1,0,0,-15,0,1,0,0,1,94,254,144,1,,,,,,,,
,,,,,,,,,,,,,FF,,,,,,,,0.6749,,,,,,,,,,,,,,,,,,,,,,610049238423f388e4bd4a32,6103686bd281cbf50c8e6ed9,2021-07-29_22h53.23.389,Simcolourproject_2stim_asymm_v5,2020.2.10,Win32,60,61025ae37ef11b136ea224fe,,,,,,,,,1097,-38,14,1,0,0,response7disk,,1,-21,0,1,0,0,rectangle,-21,0,1,0,0,-21,0,1,0,0,1,95,255,81,1,,,,,,,,
,,,,,,,,,,,,,FF,,,,,,,,5.1012,,,,,,,,,,,,,,,,,,,,,,610049238423f388e4bd4a32,6103686bd281cbf50c8e6ed9,2021-07-29_22h53.23.389,Simcolourproject_2stim_asymm_v5,2020.2.10,Win32,60,61025ae37ef11b136ea224fe,,,,,,,,,1385,-19,-34,1,0,0,response5disk,,3,-1,0,1,0,0,rectangle,-1,0,1,0,0,-1,0,1,0,0,1,96,256,75,1,,,,,,,,
,,,,,,,,,,,,,FF,,,,,,,,0.7003,,,,,,,,,,,,,,,,,,,,,,610049238423f388e4bd4a32,6103686bd281cbf50c8e6ed9,2021-07-29_22h53.23.389,Simcolourproject_2stim_asymm_v5,2020.2.10,Win32,60,61025ae37ef11b136ea224fe,,,,,,,,,2179,13,-45,1,0,0,response3disk,,4,10,-9,1,0,0,rectangle,10,-9,1,0,0,10,-9,1,0,0,1,97,257,0,1,,,,,,,,
,,,,,,,,,,,,,FF,,,,,,,,1.0751,,,,,,,,,,,,,,,,,,,,,,610049238423f388e4bd4a32,6103686bd281cbf50c8e6ed9,2021-07-29_22h53.23.389,Simcolourproject_2stim_asymm_v5,2020.2.10,Win32,60,61025ae37ef11b136ea224fe,,,,,,,,,4215,-41,21,1,0,0,response7disk,,1,-12,5,1,0,0,rectangle,-12,5,1,0,0,-12,5,1,0,0,1,98,258,77,1,,,,,,,,
,,,,,,,,,,,,,FF,,,,,,,,1.1255,,,,,,,,,,,,,,,,,,,,,,610049238423f388e4bd4a32,6103686bd281cbf50c8e6ed9,2021-07-29_22h53.23.389,Simcolourproject_2stim_asymm_v5,2020.2.10,Win32,60,61025ae37ef11b136ea224fe,,,,,,,,,2171,55,22,1,0,0,response1disk,,6,15,0,1,0,0,rectangle,15,0,1,0,0,15,0,1,0,0,1,99,259,25,1,,,,,,,,
,,,,,,,,,,,,,FF,,,,,,,,0.9005,,,,,,,,,,,,,,,,,,,,,,610049238423f388e4bd4a32,6103686bd281cbf50c8e6ed9,2021-07-29_22h53.23.389,Simcolourproject_2stim_asymm_v5,2020.2.10,Win32,60,61025ae37ef11b136ea224fe,,,,,,,,,298,-41,-14,1,0,0,response5disk,,2,9,4,1,0,0,rectangle,9,4,1,0,0,9,4,1,0,0,1,100,260,55,1,,,,,,,,
,,,,,,,,,,,,,FF,,,,,,,,1.4252,,,,,,,,,,,,,,,,,,,,,,610049238423f388e4bd4a32,6103686bd281cbf50c8e6ed9,2021-07-29_22h53.23.389,Simcolourproject_2stim_asymm_v5,2020.2.10,Win32,60,61025ae37ef11b136ea224fe,,,,,,,,,2961,53,19,1,0,0,response1disk,,6,18,-9,1,0,0,rectangle,18,-9,1,0,0,18,-9,1,0,0,1,101,261,134,1,,,,,,,,
,,,,,,,,,,,,,FF,,,,,,,,0.8004,,,,,,,,,,,,,,,,,,,,,,610049238423f388e4bd4a32,6103686bd281cbf50c8e6ed9,2021-07-29_22h53.23.389,Simcolourproject_2stim_asymm_v5,2020.2.10,Win32,60,61025ae37ef11b136ea224fe,,,,,,,,,4315,-23,44,1,0,0,response7disk,,0,-9,8,1,0,0,rectangle,-9,8,1,0,0,-9,8,1,0,0,1,102,262,78,1,,,,,,,,
,,,,,,,,,,,,,FF,,,,,,,,0.6752,,,,,,,,,,,,,,,,,,,,,,610049238423f388e4bd4a32,6103686bd281cbf50c8e6ed9,2021-07-29_22h53.23.389,Simcolourproject_2stim_asymm_v5,2020.2.10,Win32,60,61025ae37ef11b136ea224fe,,,,,,,,,808,-43,19,1,0,0,response7disk,,1,-10,5,1,0,0,rectangle,-10,5,1,0,0,-10,5,1,0,0,1,103,263,19,1,,,,,,,,
,,,,,,,,,,,,,FF,,,,,,,,0.6576,,,,,,,,,,,,,,,,,,,,,,610049238423f388e4bd4a32,6103686bd281cbf50c8e6ed9,2021-07-29_22h53.23.389,Simcolourproject_2stim_asymm_v5,2020.2.10,Win32,60,61025ae37ef11b136ea224fe,,,,,,,,,2695,-31,-20,1,0,0,response5disk,,2,-11,-1,1,0,0,rectangle,-11,-1,1,0,0,-11,-1,1,0,0,1,104,264,96,1,,,,,,,,
,,,,,,,,,,,,,FF,,,,,,,,2.7006,,,,,,,,,,,,,,,,,,,,,,610049238423f388e4bd4a32,6103686bd281cbf50c8e6ed9,2021-07-29_22h53.23.389,Simcolourproject_2stim_asymm_v5,2020.2.10,Win32,60,61025ae37ef11b136ea224fe,,,,,,,,,2987,34,28,1,0,0,response1disk,,6,13,13,1,0,0,rectangle,13,13,1,0,0,13,13,1,0,0,1,105,265,29,1,,,,,,,,
,,,,,,,,,,,,,FF,,,,,,,,1.0497,,,,,,,,,,,,,,,,,,,,,,610049238423f388e4bd4a32,6103686bd281cbf50c8e6ed9,2021-07-29_22h53.23.389,Simcolourproject_2stim_asymm_v5,2020.2.10,Win32,60,61025ae37ef11b136ea224fe,,,,,,,,,2263,-36,-27,1,0,0,response5disk,,2,-8,-3,1,0,0,rectangle,-8,-3,1,0,0,-8,-3,1,0,0,1,106,266,10,1,,,,,,,,
,,,,,,,,,,,,,FF,,,,,,,,0.8753,,,,,,,,,,,,,,,,,,,,,,610049238423f388e4bd4a32,6103686bd281cbf50c8e6ed9,2021-07-29_22h53.23.389,Simcolourproject_2stim_asymm_v5,2020.2.10,Win32,60,61025ae37ef11b136ea224fe,,,,,,,,,2501,-40,16,1,0,0,response7disk,,1,7,8,1,0,0,rectangle,7,8,1,0,0,7,8,1,0,0,1,107,267,145,1,,,,,,,,
,,,,,,,,,,,,,FF,,,,,,,,2.0247,,,,,,,,,,,,,,,,,,,,,,610049238423f388e4bd4a32,6103686bd281cbf50c8e6ed9,2021-07-29_22h53.23.389,Simcolourproject_2stim_asymm_v5,2020.2.10,Win32,60,61025ae37ef11b136ea224fe,,,,,,,,,3069,48,23,1,0,0,response1disk,,6,20,-1,1,0,0,rectangle,35,42,1,0,0,16,10,1,0,0,1,108,268,50,1,,response1disk_3,TRUE,7,7,"[37,319,167,192,173,23,27,43,302,269,323,49,3,157,248,90,66,102,77,297]",1.8507,rectangle
,,,,,,,,,,,,,FF,,,,,,,,2.9008,,,,,,,,,,,,,,,,,,,,,,610049238423f388e4bd4a32,6103686bd281cbf50c8e6ed9,2021-07-29_22h53.23.389,Simcolourproject_2stim_asymm_v5,2020.2.10,Win32,60,61025ae37ef11b136ea224fe,,,,,,,,,924,-14,-25,1,0,0,response5disk,,3,-2,-3,1,0,0,rectangle,-2,-3,1,0,0,-2,-3,1,0,0,1,109,269,64,1,,,,,,,,
,,,,,,,,,,,,,FF,,,,,,,,0.7255,,,,,,,,,,,,,,,,,,,,,,610049238423f388e4bd4a32,6103686bd281cbf50c8e6ed9,2021-07-29_22h53.23.389,Simcolourproject_2stim_asymm_v5,2020.2.10,Win32,60,61025ae37ef11b136ea224fe,,,,,,,,,1479,-47,25,1,0,0,response7disk,,1,-11,12,1,0,0,rectangle,-11,12,1,0,0,-11,12,1,0,0,1,110,270,117,1,,,,,,,,
,,,,,,,,,,,,,FF,,,,,,,,0.7252,,,,,,,,,,,,,,,,,,,,,,610049238423f388e4bd4a32,6103686bd281cbf50c8e6ed9,2021-07-29_22h53.23.389,Simcolourproject_2stim_asymm_v5,2020.2.10,Win32,60,61025ae37ef11b136ea224fe,,,,,,,,,2287,24,-32,1,0,0,response3disk,,4,10,-13,1,0,0,rectangle,10,-13,1,0,0,10,-13,1,0,0,1,111,271,159,1,,,,,,,,
,,,,,,,,,,,,,FF,,,,,,,,1.1001,,,,,,,,,,,,,,,,,,,,,,610049238423f388e4bd4a32,6103686bd281cbf50c8e6ed9,2021-07-29_22h53.23.389,Simcolourproject_2stim_asymm_v5,2020.2.10,Win32,60,61025ae37ef11b136ea224fe,,,,,,,,,1695,-37,-26,1,0,0,response5disk,,2,-18,-9,1,0,0,rectangle,-18,-9,1,0,0,-18,-9,1,0,0,1,112,272,98,1,,,,,,,,
,,,,,,,,,,,,,FF,,,,,,,,2.2005,,,,,,,,,,,,,,,,,,,,,,610049238423f388e4bd4a32,6103686bd281cbf50c8e6ed9,2021-07-29_22h53.23.389,Simcolourproject_2stim_asymm_v5,2020.2.10,Win32,60,61025ae37ef11b136ea224fe,,,,,,,,,905,-17,37,1,0,0,response7disk,,0,3,2,1,0,0,rectangle,3,2,1,0,0,3,2,1,0,0,1,113,273,132,1,,,,,,,,
,,,,,,,,,,,,,FF,,,,,,,,1.0753,,,,,,,,,,,,,,,,,,,,,,610049238423f388e4bd4a32,6103686bd281cbf50c8e6ed9,2021-07-29_22h53.23.389,Simcolourproject_2stim_asymm_v5,2020.2.10,Win32,60,61025ae37ef11b136ea224fe,,,,,,,,,833,23,41,1,0,0,response1disk,,7,12,2,1,0,0,rectangle,12,2,1,0,0,12,2,1,0,0,1,114,274,66,1,,,,,,,,
,,,,,,,,,,,,,FF,,,,,,,,1.4753,,,,,,,,,,,,,,,,,,,,,,610049238423f388e4bd4a32,6103686bd281cbf50c8e6ed9,2021-07-29_22h53.23.389,Simcolourproject_2stim_asymm_v5,2020.2.10,Win32,60,61025ae37ef11b136ea224fe,,,,,,,,,1352,-41,16,1,0,0,response7disk,,1,8,-3,1,0,0,rectangle,8,-3,1,0,0,8,-3,1,0,0,1,115,275,43,1,,,,,,,,
,,,,,,,,,,,,,FF,,,,,,,,3.451,,,,,,,,,,,,,,,,,,,,,,610049238423f388e4bd4a32,6103686bd281cbf50c8e6ed9,2021-07-29_22h53.23.389,Simcolourproject_2stim_asymm_v5,2020.2.10,Win32,60,61025ae37ef11b136ea224fe,,,,,,,,,4142,41,27,1,0,0,response1disk,,6,19,9,1,0,0,rectangle,19,9,1,0,0,19,9,1,0,0,1,116,276,104,1,,,,,,,,
,,,,,,,,,,,,,FF,,,,,,,,1.6756,,,,,,,,,,,,,,,,,,,,,,610049238423f388e4bd4a32,6103686bd281cbf50c8e6ed9,2021-07-29_22h53.23.389,Simcolourproject_2stim_asymm_v5,2020.2.10,Win32,60,61025ae37ef11b136ea224fe,,,,,,,,,129,27,39,1,0,0,response1disk,,7,2,3,1,0,0,rectangle,2,3,1,0,0,2,3,1,0,0,1,117,277,24,1,,,,,,,,
,,,,,,,,,,,,,FF,,,,,,,,1.8005,,,,,,,,,,,,,,,,,,,,,,610049238423f388e4bd4a32,6103686bd281cbf50c8e6ed9,2021-07-29_22h53.23.389,Simcolourproject_2stim_asymm_v5,2020.2.10,Win32,60,61025ae37ef11b136ea224fe,,,,,,,,,1702,14,-33,1,0,0,response3disk,,4,-25,-11,1,0,0,rectangle,-25,-11,1,0,0,-25,-11,1,0,0,1,118,278,33,1,,,,,,,,
,,,,,,,,,,,,,FF,,,,,,,,0.9496,,,,,,,,,,,,,,,,,,,,,,610049238423f388e4bd4a32,6103686bd281cbf50c8e6ed9,2021-07-29_22h53.23.389,Simcolourproject_2stim_asymm_v5,2020.2.10,Win32,60,61025ae37ef11b136ea224fe,,,,,,,,,3633,-25,-38,1,0,0,response5disk,,3,-14,-9,1,0,0,rectangle,-14,-9,1,0,0,-14,-9,1,0,0,1,119,279,51,1,,,,,,,,
,,,,,,,,,,,,,FF,,,,,,,,2.2514,,,,,,,,,,,,,,,,,,,,,,610049238423f388e4bd4a32,6103686bd281cbf50c8e6ed9,2021-07-29_22h53.23.389,Simcolourproject_2stim_asymm_v5,2020.2.10,Win32,60,61025ae37ef11b136ea224fe,,,,,,,,,796,-17,-40,1,0,0,response5disk,,3,-10,-11,1,0,0,rectangle,-10,-11,1,0,0,-10,-11,1,0,0,1,120,280,14,1,,,,,,,,
,,,,,,,,,,,,,FF,,,,,,,,0.8255,,,,,,,,,,,,,,,,,,,,,,610049238423f388e4bd4a32,6103686bd281cbf50c8e6ed9,2021-07-29_22h53.23.389,Simcolourproject_2stim_asymm_v5,2020.2.10,Win32,60,61025ae37ef11b136ea224fe,,,,,,,,,2737,21,-41,1,0,0,response3disk,,4,1,-6,1,0,0,rectangle,1,-6,1,0,0,1,-6,1,0,0,1,121,281,13,1,,,,,,,,
,,,,,,,,,,,,,FF,,,,,,,,0.8253,,,,,,,,,,,,,,,,,,,,,,610049238423f388e4bd4a32,6103686bd281cbf50c8e6ed9,2021-07-29_22h53.23.389,Simcolourproject_2stim_asymm_v5,2020.2.10,Win32,60,61025ae37ef11b136ea224fe,,,,,,,,,3728,-32,-22,1,0,0,response5disk,,2,-10,-4,1,0,0,rectangle,-10,-4,1,0,0,-10,-4,1,0,0,1,122,282,34,1,,,,,,,,
,,,,,,,,,,,,,FF,,,,,,,,0.7251,,,,,,,,,,,,,,,,,,,,,,610049238423f388e4bd4a32,6103686bd281cbf50c8e6ed9,2021-07-29_22h53.23.389,Simcolourproject_2stim_asymm_v5,2020.2.10,Win32,60,61025ae37ef11b136ea224fe,,,,,,,,,1491,-34,-18,1,0,0,response5disk,,2,-15,-4,1,0,0,rectangle,-15,-4,1,0,0,-15,-4,1,0,0,1,123,283,157,1,,,,,,,,
,,,,,,,,,,,,,FF,,,,,,,,1.3254,,,,,,,,,,,,,,,,,,,,,,610049238423f388e4bd4a32,6103686bd281cbf50c8e6ed9,2021-07-29_22h53.23.389,Simcolourproject_2stim_asymm_v5,2020.2.10,Win32,60,61025ae37ef11b136ea224fe,,,,,,,,,1457,22,-35,1,0,0,response3disk,,4,10,-6,1,0,0,rectangle,10,-6,1,0,0,10,-6,1,0,0,1,124,284,7,1,,,,,,,,
,,,,,,,,,,,,,FF,,,,,,,,0.9254,,,,,,,,,,,,,,,,,,,,,,610049238423f388e4bd4a32,6103686bd281cbf50c8e6ed9,2021-07-29_22h53.23.389,Simcolourproject_2stim_asymm_v5,2020.2.10,Win32,60,61025ae37ef11b136ea224fe,,,,,,,,,698,19,-18,1,0,0,response3disk,,5,10,-7,1,0,0,rectangle,10,-7,1,0,0,10,-7,1,0,0,1,125,285,68,1,,,,,,,,
,,,,,,,,,,,,,FF,,,,,,,,1.7255,,,,,,,,,,,,,,,,,,,,,,610049238423f388e4bd4a32,6103686bd281cbf50c8e6ed9,2021-07-29_22h53.23.389,Simcolourproject_2stim_asymm_v5,2020.2.10,Win32,60,61025ae37ef11b136ea224fe,,,,,,,,,2933,-21,-38,1,0,0,response5disk,,3,-12,-11,1,0,0,rectangle,-12,-11,1,0,0,-12,-11,1,0,0,1,126,286,133,1,,,,,,,,
,,,,,,,,,,,,,FF,,,,,,,,0.8749,,,,,,,,,,,,,,,,,,,,,,610049238423f388e4bd4a32,6103686bd281cbf50c8e6ed9,2021-07-29_22h53.23.389,Simcolourproject_2stim_asymm_v5,2020.2.10,Win32,60,61025ae37ef11b136ea224fe,,,,,,,,,3617,48,-23,1,0,0,response3disk,,5,25,-7,1,0,0,rectangle,25,-7,1,0,0,25,-7,1,0,0,1,127,287,18,1,,,,,,,,
,,,,,,,,,,,,,FF,,,,,,,,1.7255,,,,,,,,,,,,,,,,,,,,,,610049238423f388e4bd4a32,6103686bd281cbf50c8e6ed9,2021-07-29_22h53.23.389,Simcolourproject_2stim_asymm_v5,2020.2.10,Win32,60,61025ae37ef11b136ea224fe,,,,,,,,,2716,21,45,1,0,0,response1disk,,7,3,6,1,0,0,rectangle,3,6,1,0,0,3,6,1,0,0,1,128,288,87,1,,,,,,,,
,,,,,,,,,,,,,FF,,,,,,,,2.4758,,,,,,,,,,,,,,,,,,,,,,610049238423f388e4bd4a32,6103686bd281cbf50c8e6ed9,2021-07-29_22h53.23.389,Simcolourproject_2stim_asymm_v5,2020.2.10,Win32,60,61025ae37ef11b136ea224fe,,,,,,,,,254,55,17,1,0,0,response1disk,,6,27,-1,1,0,0,rectangle,27,-1,1,0,0,27,-1,1,0,0,1,129,289,61,1,,,,,,,,
,,,,,,,,,,,,,FF,,,,,,,,0.8001,,,,,,,,,,,,,,,,,,,,,,610049238423f388e4bd4a32,6103686bd281cbf50c8e6ed9,2021-07-29_22h53.23.389,Simcolourproject_2stim_asymm_v5,2020.2.10,Win32,60,61025ae37ef11b136ea224fe,,,,,,,,,1731,28,36,1,0,0,response1disk,,7,5,2,1,0,0,rectangle,5,2,1,0,0,5,2,1,0,0,1,130,290,9,1,,,,,,,,
,,,,,,,,,,,,,FF,,,,,,,,0.7748,,,,,,,,,,,,,,,,,,,,,,610049238423f388e4bd4a32,6103686bd281cbf50c8e6ed9,2021-07-29_22h53.23.389,Simcolourproject_2stim_asymm_v5,2020.2.10,Win32,60,61025ae37ef11b136ea224fe,,,,,,,,,2506,-51,-16,1,0,0,response5disk,,2,-8,7,1,0,0,rectangle,-8,7,1,0,0,-8,7,1,0,0,1,131,291,53,1,,,,,,,,
,,,,,,,,,,,,,FF,,,,,,,,1.0757,,,,,,,,,,,,,,,,,,,,,,610049238423f388e4bd4a32,6103686bd281cbf50c8e6ed9,2021-07-29_22h53.23.389,Simcolourproject_2stim_asymm_v5,2020.2.10,Win32,60,61025ae37ef11b136ea224fe,,,,,,,,,4069,41,12,1,0,0,response1disk,,6,12,-12,1,0,0,rectangle,12,-12,1,0,0,12,-12,1,0,0,1,132,292,88,1,,,,,,,,
,,,,,,,,,,,,,FF,,,,,,,,0.9002,,,,,,,,,,,,,,,,,,,,,,610049238423f388e4bd4a32,6103686bd281cbf50c8e6ed9,2021-07-29_22h53.23.389,Simcolourproject_2stim_asymm_v5,2020.2.10,Win32,60,61025ae37ef11b136ea224fe,,,,,,,,,1985,-25,41,1,0,0,response7disk,,0,-3,9,1,0,0,rectangle,-3,9,1,0,0,-3,9,1,0,0,1,133,293,150,1,,,,,,,,
,,,,,,,,,,,,,FF,,,,,,,,0.7502,,,,,,,,,,,,,,,,,,,,,,610049238423f388e4bd4a32,6103686bd281cbf50c8e6ed9,2021-07-29_22h53.23.389,Simcolourproject_2stim_asymm_v5,2020.2.10,Win32,60,61025ae37ef11b136ea224fe,,,,,,,,,1619,-38,16,1,0,0,response7disk,,1,-21,2,1,0,0,rectangle,-21,2,1,0,0,-21,2,1,0,0,1,134,294,90,1,,,,,,,,
,,,,,,,,,,,,,FF,,,,,,,,0.9754,,,,,,,,,,,,,,,,,,,,,,610049238423f388e4bd4a32,6103686bd281cbf50c8e6ed9,2021-07-29_22h53.23.389,Simcolourproject_2stim_asymm_v5,2020.2.10,Win32,60,61025ae37ef11b136ea224fe,,,,,,,,,4127,-14,28,1,0,0,response7disk,,0,-5,-5,1,0,0,rectangle,-5,-5,1,0,0,-5,-5,1,0,0,1,135,295,118,1,,,,,,,,
,,,,,,,,,,,,,FF,,,,,,,,1.7501,,,,,,,,,,,,,,,,,,,,,,610049238423f388e4bd4a32,6103686bd281cbf50c8e6ed9,2021-07-29_22h53.23.389,Simcolourproject_2stim_asymm_v5,2020.2.10,Win32,60,61025ae37ef11b136ea224fe,,,,,,,,,4031,40,29,1,0,0,response1disk,,6,23,1,1,0,0,rectangle,17,-51,1,0,0,-2,2,1,0,0,1,136,296,126,1,,response3disk_3,TRUE,4,4,"[37,319,167,192,173,23,27,43,302,269,323,49,3,157,248,90,66,102,77,297]",1.2249,rectangle
,,,,,,,,,,,,,FF,,,,,,,,2.7252,,,,,,,,,,,,,,,,,,,,,,610049238423f388e4bd4a32,6103686bd281cbf50c8e6ed9,2021-07-29_22h53.23.389,Simcolourproject_2stim_asymm_v5,2020.2.10,Win32,60,61025ae37ef11b136ea224fe,,,,,,,,,3830,-14,-42,1,0,0,response5disk,,3,5,-14,1,0,0,rectangle,5,-14,1,0,0,5,-14,1,0,0,1,137,297,128,1,,,,,,,,
,,,,,,,,,,,,,FF,,,,,,,,1.0004,,,,,,,,,,,,,,,,,,,,,,610049238423f388e4bd4a32,6103686bd281cbf50c8e6ed9,2021-07-29_22h53.23.389,Simcolourproject_2stim_asymm_v5,2020.2.10,Win32,60,61025ae37ef11b136ea224fe,,,,,,,,,968,44,-20,1,0,0,response3disk,,5,10,-8,1,0,0,rectangle,10,-8,1,0,0,10,-8,1,0,0,1,138,298,73,1,,,,,,,,
,,,,,,,,,,,,,FF,,,,,,,,1.3251,,,,,,,,,,,,,,,,,,,,,,610049238423f388e4bd4a32,6103686bd281cbf50c8e6ed9,2021-07-29_22h53.23.389,Simcolourproject_2stim_asymm_v5,2020.2.10,Win32,60,61025ae37ef11b136ea224fe,,,,,,,,,3955,43,14,1,0,0,response1disk,,6,14,-4,1,0,0,rectangle,14,-4,1,0,0,14,-4,1,0,0,1,139,299,116,1,,,,,,,,
,,,,,,,,,,,,,FF,,,,,,,,0.8,,,,,,,,,,,,,,,,,,,,,,610049238423f388e4bd4a32,6103686bd281cbf50c8e6ed9,2021-07-29_22h53.23.389,Simcolourproject_2stim_asymm_v5,2020.2.10,Win32,60,61025ae37ef11b136ea224fe,,,,,,,,,3869,46,26,1,0,0,response1disk,,6,19,1,1,0,0,rectangle,19,1,1,0,0,19,1,1,0,0,1,140,300,135,1,,,,,,,,
,,,,,,,,,,,,,FF,,,,,,,,1.025,,,,,,,,,,,,,,,,,,,,,,610049238423f388e4bd4a32,6103686bd281cbf50c8e6ed9,2021-07-29_22h53.23.389,Simcolourproject_2stim_asymm_v5,2020.2.10,Win32,60,61025ae37ef11b136ea224fe,,,,,,,,,2039,-29,-39,1,0,0,response5disk,,3,2,0,1,0,0,rectangle,-48,-24,1,0,0,-20,3,1,0,0,1,141,301,154,1,,response5disk_3,TRUE,2,2,"[37,319,167,192,173,23,27,43,302,269,323,49,3,157,248,90,66,102,77,297]",2.0757,rectangle
