key_resp.keys,key_resp.rt,key_resp_14.keys,key_resp_14.rt,key_resp_15.keys,key_resp_15.rt,key_resp_17.keys,key_resp_17.rt,key_resp_9.keys,key_resp_9.rt,key_resp_10.keys,key_resp_10.rt,practice_comparison,Ecc,mouse_5.x,mouse_5.y,mouse_5.leftButton,mouse_5.midButton,mouse_5.rightButton,mouse_5.clicked_name,pracsimilarity,response_time,mouse_10.x,mouse_10.y,mouse_10.leftButton,mouse_10.midButton,mouse_10.rightButton,mouse_10.clicked_name,mouse_7.x,mouse_7.y,mouse_7.leftButton,mouse_7.midButton,mouse_7.rightButton,mouse_6.x,mouse_6.y,mouse_6.leftButton,mouse_6.midButton,mouse_6.rightButton,duringprac.thisRepN,duringprac.thisTrialN,duringprac.thisN,duringprac.thisIndex,duringprac.ran,participant,session,date,expName,psychopyVersion,OS,frameRate,study_id,mouse_7.clicked_name,catchpracsimilarity,catch_response_time,catchnumberprac,catchtrialorderprac,mouse_6.clicked_name,key_resp_22.keys,key_resp_22.rt,realcomparison,mouse.x,mouse.y,mouse.leftButton,mouse.midButton,mouse.rightButton,mouse.clicked_name,Colour2,similarity,mouse_2.x,mouse_2.y,mouse_2.leftButton,mouse_2.midButton,mouse_2.rightButton,mouse_2.clicked_name,mouse_3.x,mouse_3.y,mouse_3.leftButton,mouse_3.midButton,mouse_3.rightButton,mouse_11.x,mouse_11.y,mouse_11.leftButton,mouse_11.midButton,mouse_11.rightButton,trials_2.thisRepN,trials_2.thisTrialN,trials_2.thisN,trials_2.thisIndex,trials_2.ran,Colour1,mouse_3.clicked_name,catchornah,catchsimilarity,catchnumber,catchtrialorder,catchRT,mouse_11.clicked_name
space,1.363895,space,5.51331,space,15.18898,space,15.33549,space,2.16645,space,5.14323,26,FF,96.296875,64.51953125,1,0,0,response1disk_5,6,6.80726,-1.0703125,1.890625,1,0,0,rectangle_8,-1.0703125,1.890625,1,0,0,-1.0703125,1.890625,1,0,0,0,0,0,3,1,6100987a26cc8c75ffe99d67,61036d956c80f4089f7f113f,2021-07-29_23h10.50.999,Simcolourproject_2stim_asymm_v5,2020.2.10,MacIntel,60,61025ae37ef11b136ea224fe,,,,,,,,,,,,,,,,,,,,,,,,,,,,,,,,,,,,,,,,,,,,,,
,,,,,,,,,,,,4,FF,38.78125,-80.40625,1,0,0,response3disk_5,4,6.29851,1.66796875,1.9765625,1,0,0,rectangle_8,-41.390625,-109.1445313,1,0,0,-7.7109375,7.87890625,1,0,0,0,1,1,5,1,6100987a26cc8c75ffe99d67,61036d956c80f4089f7f113f,2021-07-29_23h10.50.999,Simcolourproject_2stim_asymm_v5,2020.2.10,MacIntel,60,61025ae37ef11b136ea224fe,response5disk_7,3,4.28453,3,"[2,5]",rectangle_4,,,,,,,,,,,,,,,,,,,,,,,,,,,,,,,,,,,,,,,,
,,,,,,,,,,,,108,PF,-70.6171875,-52.27734375,1,0,0,response5disk_5,2,3.552445,1.484375,0.11328125,1,0,0,rectangle_8,1.484375,0.11328125,1,0,0,1.484375,0.11328125,1,0,0,0,2,2,4,1,6100987a26cc8c75ffe99d67,61036d956c80f4089f7f113f,2021-07-29_23h10.50.999,Simcolourproject_2stim_asymm_v5,2020.2.10,MacIntel,60,61025ae37ef11b136ea224fe,,,,,,,,,,,,,,,,,,,,,,,,,,,,,,,,,,,,,,,,,,,,,,
,,,,,,,,,,,,123,FF,41.0703125,108.6757813,1,0,0,response1disk_5,7,2.26697,1.79296875,5.75390625,1,0,0,rectangle_8,1.79296875,5.75390625,1,0,0,1.79296875,5.75390625,1,0,0,0,3,3,0,1,6100987a26cc8c75ffe99d67,61036d956c80f4089f7f113f,2021-07-29_23h10.50.999,Simcolourproject_2stim_asymm_v5,2020.2.10,MacIntel,60,61025ae37ef11b136ea224fe,,,,,,,,,,,,,,,,,,,,,,,,,,,,,,,,,,,,,,,,,,,,,,
,,,,,,,,,,,,120,PF,58.73828125,-98.03125,1,0,0,response3disk_5,4,2.76455,-6.1953125,3.23828125,1,0,0,rectangle_8,-45.43359375,-86.65625,1,0,0,12.20703125,1.765625,1,0,0,0,4,4,1,1,6100987a26cc8c75ffe99d67,61036d956c80f4089f7f113f,2021-07-29_23h10.50.999,Simcolourproject_2stim_asymm_v5,2020.2.10,MacIntel,60,61025ae37ef11b136ea224fe,response5disk_7,3,2.16614,3,"[2,5]",rectangle_4,,,,,,,,,,,,,,,,,,,,,,,,,,,,,,,,,,,,,,,,
,,,,,,,,,,,,88,PF,90.9921875,-58.18359375,1,0,0,response3disk_5,5,3.215605,7.8203125,4.1953125,1,0,0,rectangle_8,7.8203125,4.1953125,1,0,0,7.8203125,4.1953125,1,0,0,0,5,5,2,1,6100987a26cc8c75ffe99d67,61036d956c80f4089f7f113f,2021-07-29_23h10.50.999,Simcolourproject_2stim_asymm_v5,2020.2.10,MacIntel,60,61025ae37ef11b136ea224fe,,,,,,,,,,,,,,,,,,,,,,,,,,,,,,,,,,,,,,,,,,,,,,
,,,,,,,,,,,,50,PF,42.54296875,72.48046875,1,0,0,response1disk_5,7,1.583535,-1.515625,1.25390625,1,0,0,rectangle_8,-1.515625,1.25390625,1,0,0,-1.515625,1.25390625,1,0,0,0,6,6,6,1,6100987a26cc8c75ffe99d67,61036d956c80f4089f7f113f,2021-07-29_23h10.50.999,Simcolourproject_2stim_asymm_v5,2020.2.10,MacIntel,60,61025ae37ef11b136ea224fe,,,,,,,,,,,,,,,,,,,,,,,,,,,,,,,,,,,,,,,,,,,,,,
,,,,,,,,,,,,,FF,,,,,,,,2.818975,,,,,,,,,,,,,,,,,,,,,,6100987a26cc8c75ffe99d67,61036d956c80f4089f7f113f,2021-07-29_23h10.50.999,Simcolourproject_2stim_asymm_v5,2020.2.10,MacIntel,60,61025ae37ef11b136ea224fe,,,,,,,space,4.176605,1658,85.25390625,-51.875,1,0,0,response3disk,,5,-2.47265625,2.80859375,1,0,0,rectangle,-2.47265625,2.80859375,1,0,0,-2.47265625,2.80859375,1,0,0,0,0,0,13,1,,,,,,,,
,,,,,,,,,,,,,FF,,,,,,,,1.599905,,,,,,,,,,,,,,,,,,,,,,6100987a26cc8c75ffe99d67,61036d956c80f4089f7f113f,2021-07-29_23h10.50.999,Simcolourproject_2stim_asymm_v5,2020.2.10,MacIntel,60,61025ae37ef11b136ea224fe,,,,,,,,,3743,-84.6875,46.5625,1,0,0,response7disk,,1,-4.90234375,-0.74609375,1,0,0,rectangle,-4.90234375,-0.74609375,1,0,0,-4.90234375,-0.74609375,1,0,0,0,1,1,154,1,,,,,,,,
,,,,,,,,,,,,,FF,,,,,,,,1.416845,,,,,,,,,,,,,,,,,,,,,,6100987a26cc8c75ffe99d67,61036d956c80f4089f7f113f,2021-07-29_23h10.50.999,Simcolourproject_2stim_asymm_v5,2020.2.10,MacIntel,60,61025ae37ef11b136ea224fe,,,,,,,,,3343,-84.9921875,29.80859375,1,0,0,response7disk,,1,-2.04296875,0.29296875,1,0,0,rectangle,-2.04296875,0.29296875,1,0,0,-2.04296875,0.29296875,1,0,0,0,2,2,49,1,,,,,,,,
,,,,,,,,,,,,,FF,,,,,,,,1.566285,,,,,,,,,,,,,,,,,,,,,,6100987a26cc8c75ffe99d67,61036d956c80f4089f7f113f,2021-07-29_23h10.50.999,Simcolourproject_2stim_asymm_v5,2020.2.10,MacIntel,60,61025ae37ef11b136ea224fe,,,,,,,,,1668,37.15625,83.98046875,1,0,0,response1disk,,7,-3.125,0.50390625,1,0,0,rectangle,-3.125,0.50390625,1,0,0,-3.125,0.50390625,1,0,0,0,3,3,55,1,,,,,,,,
,,,,,,,,,,,,,FF,,,,,,,,1.50015,,,,,,,,,,,,,,,,,,,,,,6100987a26cc8c75ffe99d67,61036d956c80f4089f7f113f,2021-07-29_23h10.50.999,Simcolourproject_2stim_asymm_v5,2020.2.10,MacIntel,60,61025ae37ef11b136ea224fe,,,,,,,,,3975,94.1015625,-65.04296875,1,0,0,response3disk,,5,5.41796875,4.15625,1,0,0,rectangle,5.41796875,4.15625,1,0,0,5.41796875,4.15625,1,0,0,0,4,4,66,1,,,,,,,,
,,,,,,,,,,,,,FF,,,,,,,,2.167415,,,,,,,,,,,,,,,,,,,,,,6100987a26cc8c75ffe99d67,61036d956c80f4089f7f113f,2021-07-29_23h10.50.999,Simcolourproject_2stim_asymm_v5,2020.2.10,MacIntel,60,61025ae37ef11b136ea224fe,,,,,,,,,654,90.2265625,31.8515625,1,0,0,response1disk,,6,-5.83203125,0.98828125,1,0,0,rectangle,-5.83203125,0.98828125,1,0,0,-5.83203125,0.98828125,1,0,0,0,5,5,105,1,,,,,,,,
,,,,,,,,,,,,,FF,,,,,,,,2.416675,,,,,,,,,,,,,,,,,,,,,,6100987a26cc8c75ffe99d67,61036d956c80f4089f7f113f,2021-07-29_23h10.50.999,Simcolourproject_2stim_asymm_v5,2020.2.10,MacIntel,60,61025ae37ef11b136ea224fe,,,,,,,,,3255,103.7695313,-72.23828125,1,0,0,response3disk,,5,-11.3046875,6.0703125,1,0,0,rectangle,-11.3046875,6.0703125,1,0,0,-11.3046875,6.0703125,1,0,0,0,6,6,75,1,,,,,,,,
,,,,,,,,,,,,,FF,,,,,,,,1.66776,,,,,,,,,,,,,,,,,,,,,,6100987a26cc8c75ffe99d67,61036d956c80f4089f7f113f,2021-07-29_23h10.50.999,Simcolourproject_2stim_asymm_v5,2020.2.10,MacIntel,60,61025ae37ef11b136ea224fe,,,,,,,,,439,35.265625,-109.2148438,1,0,0,response3disk,,4,10.65625,9.09765625,1,0,0,rectangle,10.65625,9.09765625,1,0,0,10.65625,9.09765625,1,0,0,0,7,7,156,1,,,,,,,,
,,,,,,,,,,,,,FF,,,,,,,,1.33347,,,,,,,,,,,,,,,,,,,,,,6100987a26cc8c75ffe99d67,61036d956c80f4089f7f113f,2021-07-29_23h10.50.999,Simcolourproject_2stim_asymm_v5,2020.2.10,MacIntel,60,61025ae37ef11b136ea224fe,,,,,,,,,2790,-32.97265625,-116.2578125,1,0,0,response5disk,,3,4.875,15.93359375,1,0,0,rectangle,4.875,15.93359375,1,0,0,4.875,15.93359375,1,0,0,0,8,8,34,1,,,,,,,,
,,,,,,,,,,,,,FF,,,,,,,,1.30134,,,,,,,,,,,,,,,,,,,,,,6100987a26cc8c75ffe99d67,61036d956c80f4089f7f113f,2021-07-29_23h10.50.999,Simcolourproject_2stim_asymm_v5,2020.2.10,MacIntel,60,61025ae37ef11b136ea224fe,,,,,,,,,2659,48.93359375,76.65625,1,0,0,response1disk,,7,12.125,6.3359375,1,0,0,rectangle,12.125,6.3359375,1,0,0,12.125,6.3359375,1,0,0,0,9,9,31,1,,,,,,,,
,,,,,,,,,,,,,FF,,,,,,,,1.232795,,,,,,,,,,,,,,,,,,,,,,6100987a26cc8c75ffe99d67,61036d956c80f4089f7f113f,2021-07-29_23h10.50.999,Simcolourproject_2stim_asymm_v5,2020.2.10,MacIntel,60,61025ae37ef11b136ea224fe,,,,,,,,,830,25.7109375,44.79296875,1,0,0,response1disk,,7,15.29296875,5.29296875,1,0,0,rectangle,15.29296875,5.29296875,1,0,0,15.29296875,5.29296875,1,0,0,0,10,10,68,1,,,,,,,,
,,,,,,,,,,,,,FF,,,,,,,,1.63421,,,,,,,,,,,,,,,,,,,,,,6100987a26cc8c75ffe99d67,61036d956c80f4089f7f113f,2021-07-29_23h10.50.999,Simcolourproject_2stim_asymm_v5,2020.2.10,MacIntel,60,61025ae37ef11b136ea224fe,,,,,,,,,2676,48.5859375,-108.8671875,1,0,0,response3disk,,4,4.8359375,7.375,1,0,0,rectangle,4.8359375,7.375,1,0,0,4.8359375,7.375,1,0,0,0,11,11,126,1,,,,,,,,
,,,,,,,,,,,,,FF,,,,,,,,2.03246,,,,,,,,,,,,,,,,,,,,,,6100987a26cc8c75ffe99d67,61036d956c80f4089f7f113f,2021-07-29_23h10.50.999,Simcolourproject_2stim_asymm_v5,2020.2.10,MacIntel,60,61025ae37ef11b136ea224fe,,,,,,,,,3562,99.55078125,49.00390625,1,0,0,response1disk,,6,-3.84765625,0.390625,1,0,0,rectangle,56.69921875,-108.4804688,1,0,0,-9.27734375,11.52734375,1,0,0,0,12,12,10,1,,response3disk_3,TRUE,4,4,"[136,296,218,318,202,197,60,34,124,150,14,163,225,320,31,141,31,282,222,13]",2.51815,rectangle
,,,,,,,,,,,,,FF,,,,,,,,1.986325,,,,,,,,,,,,,,,,,,,,,,6100987a26cc8c75ffe99d67,61036d956c80f4089f7f113f,2021-07-29_23h10.50.999,Simcolourproject_2stim_asymm_v5,2020.2.10,MacIntel,60,61025ae37ef11b136ea224fe,,,,,,,,,3547,-42.9609375,-102.3671875,1,0,0,response5disk,,3,7.0859375,5.86328125,1,0,0,rectangle,51.83984375,-112.6328125,1,0,0,-1.734375,5.65234375,1,0,0,0,13,13,138,1,,response3disk_3,TRUE,4,4,"[136,296,218,318,202,197,60,34,124,150,14,163,225,320,31,141,31,282,222,13]",2.434065,rectangle
,,,,,,,,,,,,,FF,,,,,,,,2.182845,,,,,,,,,,,,,,,,,,,,,,6100987a26cc8c75ffe99d67,61036d956c80f4089f7f113f,2021-07-29_23h10.50.999,Simcolourproject_2stim_asymm_v5,2020.2.10,MacIntel,60,61025ae37ef11b136ea224fe,,,,,,,,,461,91.01953125,-56.19921875,1,0,0,response3disk,,5,-12.76171875,0.40234375,1,0,0,rectangle,-12.76171875,0.40234375,1,0,0,-12.76171875,0.40234375,1,0,0,0,14,14,46,1,,,,,,,,
,,,,,,,,,,,,,FF,,,,,,,,1.06663,,,,,,,,,,,,,,,,,,,,,,6100987a26cc8c75ffe99d67,61036d956c80f4089f7f113f,2021-07-29_23h10.50.999,Simcolourproject_2stim_asymm_v5,2020.2.10,MacIntel,60,61025ae37ef11b136ea224fe,,,,,,,,,4031,50.7421875,80.57421875,1,0,0,response1disk,,7,-3.0390625,7.34765625,1,0,0,rectangle,-3.0390625,7.34765625,1,0,0,-3.0390625,7.34765625,1,0,0,0,15,15,78,1,,,,,,,,
,,,,,,,,,,,,,FF,,,,,,,,1.06697,,,,,,,,,,,,,,,,,,,,,,6100987a26cc8c75ffe99d67,61036d956c80f4089f7f113f,2021-07-29_23h10.50.999,Simcolourproject_2stim_asymm_v5,2020.2.10,MacIntel,60,61025ae37ef11b136ea224fe,,,,,,,,,1245,41.40625,103.0195313,1,0,0,response1disk,,7,-0.26171875,1.625,1,0,0,rectangle,-0.26171875,1.625,1,0,0,-0.26171875,1.625,1,0,0,0,16,16,5,1,,,,,,,,
,,,,,,,,,,,,,FF,,,,,,,,1.11571,,,,,,,,,,,,,,,,,,,,,,6100987a26cc8c75ffe99d67,61036d956c80f4089f7f113f,2021-07-29_23h10.50.999,Simcolourproject_2stim_asymm_v5,2020.2.10,MacIntel,60,61025ae37ef11b136ea224fe,,,,,,,,,2569,41.40625,69.6015625,1,0,0,response1disk,,7,5.68359375,2.0546875,1,0,0,rectangle,5.68359375,2.0546875,1,0,0,5.68359375,2.0546875,1,0,0,0,17,17,73,1,,,,,,,,
,,,,,,,,,,,,,FF,,,,,,,,1.68471,,,,,,,,,,,,,,,,,,,,,,6100987a26cc8c75ffe99d67,61036d956c80f4089f7f113f,2021-07-29_23h10.50.999,Simcolourproject_2stim_asymm_v5,2020.2.10,MacIntel,60,61025ae37ef11b136ea224fe,,,,,,,,,825,86.89453125,38,1,0,0,response1disk,,6,5.41796875,5.3203125,1,0,0,rectangle,5.41796875,5.3203125,1,0,0,5.41796875,5.3203125,1,0,0,0,18,18,38,1,,,,,,,,
,,,,,,,,,,,,,FF,,,,,,,,0.88278,,,,,,,,,,,,,,,,,,,,,,6100987a26cc8c75ffe99d67,61036d956c80f4089f7f113f,2021-07-29_23h10.50.999,Simcolourproject_2stim_asymm_v5,2020.2.10,MacIntel,60,61025ae37ef11b136ea224fe,,,,,,,,,1414,50.6015625,95.25390625,1,0,0,response1disk,,7,-1.13671875,10.1796875,1,0,0,rectangle,-1.13671875,10.1796875,1,0,0,-1.13671875,10.1796875,1,0,0,0,19,19,42,1,,,,,,,,
,,,,,,,,,,,,,FF,,,,,,,,1.065765,,,,,,,,,,,,,,,,,,,,,,6100987a26cc8c75ffe99d67,61036d956c80f4089f7f113f,2021-07-29_23h10.50.999,Simcolourproject_2stim_asymm_v5,2020.2.10,MacIntel,60,61025ae37ef11b136ea224fe,,,,,,,,,2334,47.4765625,92.39453125,1,0,0,response1disk,,7,-4.26171875,6.3203125,1,0,0,rectangle,-4.26171875,6.3203125,1,0,0,-4.26171875,6.3203125,1,0,0,0,20,20,90,1,,,,,,,,
,,,,,,,,,,,,,FF,,,,,,,,2.61756,,,,,,,,,,,,,,,,,,,,,,6100987a26cc8c75ffe99d67,61036d956c80f4089f7f113f,2021-07-29_23h10.50.999,Simcolourproject_2stim_asymm_v5,2020.2.10,MacIntel,60,61025ae37ef11b136ea224fe,,,,,,,,,1533,76.60546875,30.1953125,1,0,0,response1disk,,6,-13.20703125,2.375,1,0,0,rectangle,-13.20703125,2.375,1,0,0,-13.20703125,2.375,1,0,0,0,21,21,109,1,,,,,,,,
,,,,,,,,,,,,,FF,,,,,,,,2.11698,,,,,,,,,,,,,,,,,,,,,,6100987a26cc8c75ffe99d67,61036d956c80f4089f7f113f,2021-07-29_23h10.50.999,Simcolourproject_2stim_asymm_v5,2020.2.10,MacIntel,60,61025ae37ef11b136ea224fe,,,,,,,,,3863,38.57421875,61.66796875,1,0,0,response1disk,,7,-5.1796875,2.6796875,1,0,0,rectangle,-5.1796875,2.6796875,1,0,0,-5.1796875,2.6796875,1,0,0,0,22,22,59,1,,,,,,,,
,,,,,,,,,,,,,FF,,,,,,,,1.68355,,,,,,,,,,,,,,,,,,,,,,6100987a26cc8c75ffe99d67,61036d956c80f4089f7f113f,2021-07-29_23h10.50.999,Simcolourproject_2stim_asymm_v5,2020.2.10,MacIntel,60,61025ae37ef11b136ea224fe,,,,,,,,,1601,-93.3359375,-74.1015625,1,0,0,response5disk,,2,-10.38671875,3.45703125,1,0,0,rectangle,-10.38671875,3.45703125,1,0,0,-10.38671875,3.45703125,1,0,0,0,23,23,120,1,,,,,,,,
,,,,,,,,,,,,,FF,,,,,,,,2.5,,,,,,,,,,,,,,,,,,,,,,6100987a26cc8c75ffe99d67,61036d956c80f4089f7f113f,2021-07-29_23h10.50.999,Simcolourproject_2stim_asymm_v5,2020.2.10,MacIntel,60,61025ae37ef11b136ea224fe,,,,,,,,,291,86.1484375,-67.07421875,1,0,0,response3disk,,5,14.046875,-9.29296875,1,0,0,rectangle,14.046875,-9.29296875,1,0,0,14.046875,-9.29296875,1,0,0,0,24,24,56,1,,,,,,,,
,,,,,,,,,,,,,FF,,,,,,,,1.61555,,,,,,,,,,,,,,,,,,,,,,6100987a26cc8c75ffe99d67,61036d956c80f4089f7f113f,2021-07-29_23h10.50.999,Simcolourproject_2stim_asymm_v5,2020.2.10,MacIntel,60,61025ae37ef11b136ea224fe,,,,,,,,,3211,89.05078125,-38.9765625,1,0,0,response3disk,,5,1.90625,1.40234375,1,0,0,rectangle,1.90625,1.40234375,1,0,0,1.90625,1.40234375,1,0,0,0,25,25,132,1,,,,,,,,
,,,,,,,,,,,,,FF,,,,,,,,0.915635,,,,,,,,,,,,,,,,,,,,,,6100987a26cc8c75ffe99d67,61036d956c80f4089f7f113f,2021-07-29_23h10.50.999,Simcolourproject_2stim_asymm_v5,2020.2.10,MacIntel,60,61025ae37ef11b136ea224fe,,,,,,,,,1490,35.9375,42.3359375,1,0,0,response1disk,,7,-5.6484375,0.31640625,1,0,0,rectangle,-5.6484375,0.31640625,1,0,0,-5.6484375,0.31640625,1,0,0,0,26,26,88,1,,,,,,,,
,,,,,,,,,,,,,FF,,,,,,,,2.685285,,,,,,,,,,,,,,,,,,,,,,6100987a26cc8c75ffe99d67,61036d956c80f4089f7f113f,2021-07-29_23h10.50.999,Simcolourproject_2stim_asymm_v5,2020.2.10,MacIntel,60,61025ae37ef11b136ea224fe,,,,,,,,,2089,-31.69140625,-108.0664063,1,0,0,response5disk,,3,-8.42578125,-2.23828125,1,0,0,rectangle,-8.42578125,-2.23828125,1,0,0,-8.42578125,-2.23828125,1,0,0,0,27,27,152,1,,,,,,,,
,,,,,,,,,,,,,FF,,,,,,,,1.01693,,,,,,,,,,,,,,,,,,,,,,6100987a26cc8c75ffe99d67,61036d956c80f4089f7f113f,2021-07-29_23h10.50.999,Simcolourproject_2stim_asymm_v5,2020.2.10,MacIntel,60,61025ae37ef11b136ea224fe,,,,,,,,,3186,30.07421875,113.1289063,1,0,0,response1disk,,7,-8.08203125,-3.3359375,1,0,0,rectangle,-8.08203125,-3.3359375,1,0,0,-8.08203125,-3.3359375,1,0,0,0,28,28,85,1,,,,,,,,
,,,,,,,,,,,,,FF,,,,,,,,0.883675,,,,,,,,,,,,,,,,,,,,,,6100987a26cc8c75ffe99d67,61036d956c80f4089f7f113f,2021-07-29_23h10.50.999,Simcolourproject_2stim_asymm_v5,2020.2.10,MacIntel,60,61025ae37ef11b136ea224fe,,,,,,,,,762,40.14453125,83.61328125,1,0,0,response1disk,,7,-0.3984375,2.484375,1,0,0,rectangle,-0.3984375,2.484375,1,0,0,-0.3984375,2.484375,1,0,0,0,29,29,122,1,,,,,,,,
,,,,,,,,,,,,,FF,,,,,,,,1.29879,,,,,,,,,,,,,,,,,,,,,,6100987a26cc8c75ffe99d67,61036d956c80f4089f7f113f,2021-07-29_23h10.50.999,Simcolourproject_2stim_asymm_v5,2020.2.10,MacIntel,60,61025ae37ef11b136ea224fe,,,,,,,,,4344,-47.625,120.8515625,1,0,0,response7disk,,0,-2.828125,1.01171875,1,0,0,rectangle,-39.59765625,90.86328125,1,0,0,-2.953125,-10.18359375,1,0,0,0,30,30,158,1,,response7disk_3,TRUE,0,0,"[136,296,218,318,202,197,60,34,124,150,14,163,225,320,31,141,31,282,222,13]",1.78597,rectangle
,,,,,,,,,,,,,FF,,,,,,,,1.36682,,,,,,,,,,,,,,,,,,,,,,6100987a26cc8c75ffe99d67,61036d956c80f4089f7f113f,2021-07-29_23h10.50.999,Simcolourproject_2stim_asymm_v5,2020.2.10,MacIntel,60,61025ae37ef11b136ea224fe,,,,,,,,,3224,95.96875,39.390625,1,0,0,response1disk,,6,16.18359375,10.21875,1,0,0,rectangle,16.18359375,10.21875,1,0,0,16.18359375,10.21875,1,0,0,0,31,31,84,1,,,,,,,,
,,,,,,,,,,,,,FF,,,,,,,,0.982095,,,,,,,,,,,,,,,,,,,,,,6100987a26cc8c75ffe99d67,61036d956c80f4089f7f113f,2021-07-29_23h10.50.999,Simcolourproject_2stim_asymm_v5,2020.2.10,MacIntel,60,61025ae37ef11b136ea224fe,,,,,,,,,1395,34.2421875,76.8515625,1,0,0,response1disk,,7,-14.63671875,-7.75390625,1,0,0,rectangle,-14.63671875,-7.75390625,1,0,0,-14.63671875,-7.75390625,1,0,0,0,32,32,95,1,,,,,,,,
,,,,,,,,,,,,,FF,,,,,,,,1.73499,,,,,,,,,,,,,,,,,,,,,,6100987a26cc8c75ffe99d67,61036d956c80f4089f7f113f,2021-07-29_23h10.50.999,Simcolourproject_2stim_asymm_v5,2020.2.10,MacIntel,60,61025ae37ef11b136ea224fe,,,,,,,,,373,58.58984375,-100.46875,1,0,0,response3disk,,4,-5.953125,11.1796875,1,0,0,rectangle,84.5078125,38.1796875,1,0,0,-9.46875,-4.1015625,1,0,0,0,33,33,40,1,,response1disk_3,TRUE,6,6,"[136,296,218,318,202,197,60,34,124,150,14,163,225,320,31,141,31,282,222,13]",2.083495,rectangle
,,,,,,,,,,,,,FF,,,,,,,,1.83225,,,,,,,,,,,,,,,,,,,,,,6100987a26cc8c75ffe99d67,61036d956c80f4089f7f113f,2021-07-29_23h10.50.999,Simcolourproject_2stim_asymm_v5,2020.2.10,MacIntel,60,61025ae37ef11b136ea224fe,,,,,,,,,4122,46.4375,-97.28515625,1,0,0,response3disk,,4,-1.7890625,-9.3359375,1,0,0,rectangle,-1.7890625,-9.3359375,1,0,0,-1.7890625,-9.3359375,1,0,0,0,34,34,18,1,,,,,,,,
,,,,,,,,,,,,,FF,,,,,,,,1.74914,,,,,,,,,,,,,,,,,,,,,,6100987a26cc8c75ffe99d67,61036d956c80f4089f7f113f,2021-07-29_23h10.50.999,Simcolourproject_2stim_asymm_v5,2020.2.10,MacIntel,60,61025ae37ef11b136ea224fe,,,,,,,,,3836,107.5507813,-50.26953125,1,0,0,response3disk,,5,15.3515625,7.33203125,1,0,0,rectangle,15.3515625,7.33203125,1,0,0,15.3515625,7.33203125,1,0,0,0,35,35,107,1,,,,,,,,
,,,,,,,,,,,,,FF,,,,,,,,1.10041,,,,,,,,,,,,,,,,,,,,,,6100987a26cc8c75ffe99d67,61036d956c80f4089f7f113f,2021-07-29_23h10.50.999,Simcolourproject_2stim_asymm_v5,2020.2.10,MacIntel,60,61025ae37ef11b136ea224fe,,,,,,,,,3466,27.8515625,71.140625,1,0,0,response1disk,,7,-14.0390625,0.1640625,1,0,0,rectangle,-14.0390625,0.1640625,1,0,0,-14.0390625,0.1640625,1,0,0,0,36,36,121,1,,,,,,,,
,,,,,,,,,,,,,FF,,,,,,,,1.06724,,,,,,,,,,,,,,,,,,,,,,6100987a26cc8c75ffe99d67,61036d956c80f4089f7f113f,2021-07-29_23h10.50.999,Simcolourproject_2stim_asymm_v5,2020.2.10,MacIntel,60,61025ae37ef11b136ea224fe,,,,,,,,,2152,42.5625,73.6953125,1,0,0,response1disk,,7,1.2421875,-2.65625,1,0,0,rectangle,1.2421875,-2.65625,1,0,0,1.2421875,-2.65625,1,0,0,0,37,37,111,1,,,,,,,,
,,,,,,,,,,,,,FF,,,,,,,,0.94988,,,,,,,,,,,,,,,,,,,,,,6100987a26cc8c75ffe99d67,61036d956c80f4089f7f113f,2021-07-29_23h10.50.999,Simcolourproject_2stim_asymm_v5,2020.2.10,MacIntel,60,61025ae37ef11b136ea224fe,,,,,,,,,3739,52.28515625,95.44921875,1,0,0,response1disk,,7,-12.609375,2.7734375,1,0,0,rectangle,-12.609375,2.7734375,1,0,0,-12.609375,2.7734375,1,0,0,0,38,38,117,1,,,,,,,,
,,,,,,,,,,,,,FF,,,,,,,,0.915645,,,,,,,,,,,,,,,,,,,,,,6100987a26cc8c75ffe99d67,61036d956c80f4089f7f113f,2021-07-29_23h10.50.999,Simcolourproject_2stim_asymm_v5,2020.2.10,MacIntel,60,61025ae37ef11b136ea224fe,,,,,,,,,1107,35.66015625,87.11328125,1,0,0,response1disk,,7,-18.859375,-11.80859375,1,0,0,rectangle,-18.859375,-11.80859375,1,0,0,-18.859375,-11.80859375,1,0,0,0,39,39,48,1,,,,,,,,
,,,,,,,,,,,,,FF,,,,,,,,1.418495,,,,,,,,,,,,,,,,,,,,,,6100987a26cc8c75ffe99d67,61036d956c80f4089f7f113f,2021-07-29_23h10.50.999,Simcolourproject_2stim_asymm_v5,2020.2.10,MacIntel,60,61025ae37ef11b136ea224fe,,,,,,,,,633,38.82421875,-90.9375,1,0,0,response3disk,,4,7.96484375,6.24609375,1,0,0,rectangle,7.96484375,6.24609375,1,0,0,7.96484375,6.24609375,1,0,0,0,40,40,2,1,,,,,,,,
,,,,,,,,,,,,,FF,,,,,,,,1.832275,,,,,,,,,,,,,,,,,,,,,,6100987a26cc8c75ffe99d67,61036d956c80f4089f7f113f,2021-07-29_23h10.50.999,Simcolourproject_2stim_asymm_v5,2020.2.10,MacIntel,60,61025ae37ef11b136ea224fe,,,,,,,,,2312,56.83984375,-89.71875,1,0,0,response3disk,,4,-7.01171875,6.38671875,1,0,0,rectangle,-7.01171875,6.38671875,1,0,0,-7.01171875,6.38671875,1,0,0,0,41,41,61,1,,,,,,,,
,,,,,,,,,,,,,FF,,,,,,,,0.816445,,,,,,,,,,,,,,,,,,,,,,6100987a26cc8c75ffe99d67,61036d956c80f4089f7f113f,2021-07-29_23h10.50.999,Simcolourproject_2stim_asymm_v5,2020.2.10,MacIntel,60,61025ae37ef11b136ea224fe,,,,,,,,,3129,22.50390625,77.875,1,0,0,response1disk,,7,-6.6640625,-9.19921875,1,0,0,rectangle,-6.6640625,-9.19921875,1,0,0,-6.6640625,-9.19921875,1,0,0,0,42,42,36,1,,,,,,,,
,,,,,,,,,,,,,FF,,,,,,,,0.749495,,,,,,,,,,,,,,,,,,,,,,6100987a26cc8c75ffe99d67,61036d956c80f4089f7f113f,2021-07-29_23h10.50.999,Simcolourproject_2stim_asymm_v5,2020.2.10,MacIntel,60,61025ae37ef11b136ea224fe,,,,,,,,,4307,35.0078125,70.375,1,0,0,response1disk,,7,-3.19140625,7.26171875,1,0,0,rectangle,-3.19140625,7.26171875,1,0,0,-3.19140625,7.26171875,1,0,0,0,43,43,74,1,,,,,,,,
,,,,,,,,,,,,,FF,,,,,,,,2.982355,,,,,,,,,,,,,,,,,,,,,,6100987a26cc8c75ffe99d67,61036d956c80f4089f7f113f,2021-07-29_23h10.50.999,Simcolourproject_2stim_asymm_v5,2020.2.10,MacIntel,60,61025ae37ef11b136ea224fe,,,,,,,,,89,-48.5546875,-101.3867188,1,0,0,response5disk,,3,-5.84375,10.87109375,1,0,0,rectangle,-5.84375,10.87109375,1,0,0,-5.84375,10.87109375,1,0,0,0,44,44,124,1,,,,,,,,
,,,,,,,,,,,,,FF,,,,,,,,0.90023,,,,,,,,,,,,,,,,,,,,,,6100987a26cc8c75ffe99d67,61036d956c80f4089f7f113f,2021-07-29_23h10.50.999,Simcolourproject_2stim_asymm_v5,2020.2.10,MacIntel,60,61025ae37ef11b136ea224fe,,,,,,,,,2913,38.2578125,74.02734375,1,0,0,response1disk,,7,8.7421875,-4.75390625,1,0,0,rectangle,8.7421875,-4.75390625,1,0,0,8.7421875,-4.75390625,1,0,0,0,45,45,115,1,,,,,,,,
,,,,,,,,,,,,,FF,,,,,,,,1.49888,,,,,,,,,,,,,,,,,,,,,,6100987a26cc8c75ffe99d67,61036d956c80f4089f7f113f,2021-07-29_23h10.50.999,Simcolourproject_2stim_asymm_v5,2020.2.10,MacIntel,60,61025ae37ef11b136ea224fe,,,,,,,,,484,36.48046875,69.515625,1,0,0,response1disk,,7,21.19921875,6.359375,1,0,0,rectangle,21.19921875,6.359375,1,0,0,21.19921875,6.359375,1,0,0,0,46,46,116,1,,,,,,,,
,,,,,,,,,,,,,FF,,,,,,,,1.133695,,,,,,,,,,,,,,,,,,,,,,6100987a26cc8c75ffe99d67,61036d956c80f4089f7f113f,2021-07-29_23h10.50.999,Simcolourproject_2stim_asymm_v5,2020.2.10,MacIntel,60,61025ae37ef11b136ea224fe,,,,,,,,,3727,36.1328125,73.3359375,1,0,0,response1disk,,7,11.4765625,-2.62890625,1,0,0,rectangle,11.4765625,-2.62890625,1,0,0,11.4765625,-2.62890625,1,0,0,0,47,47,106,1,,,,,,,,
,,,,,,,,,,,,,FF,,,,,,,,1.116545,,,,,,,,,,,,,,,,,,,,,,6100987a26cc8c75ffe99d67,61036d956c80f4089f7f113f,2021-07-29_23h10.50.999,Simcolourproject_2stim_asymm_v5,2020.2.10,MacIntel,60,61025ae37ef11b136ea224fe,,,,,,,,,1130,29.921875,81.05859375,1,0,0,response1disk,,7,-3.0234375,-3.5859375,1,0,0,rectangle,-3.0234375,-3.5859375,1,0,0,-3.0234375,-3.5859375,1,0,0,0,48,48,33,1,,,,,,,,
,,,,,,,,,,,,,FF,,,,,,,,0.948925,,,,,,,,,,,,,,,,,,,,,,6100987a26cc8c75ffe99d67,61036d956c80f4089f7f113f,2021-07-29_23h10.50.999,Simcolourproject_2stim_asymm_v5,2020.2.10,MacIntel,60,61025ae37ef11b136ea224fe,,,,,,,,,2189,46.28515625,98.80859375,1,0,0,response1disk,,7,10.90625,2.31640625,1,0,0,rectangle,10.90625,2.31640625,1,0,0,10.90625,2.31640625,1,0,0,0,49,49,80,1,,,,,,,,
,,,,,,,,,,,,,FF,,,,,,,,0.666285,,,,,,,,,,,,,,,,,,,,,,6100987a26cc8c75ffe99d67,61036d956c80f4089f7f113f,2021-07-29_23h10.50.999,Simcolourproject_2stim_asymm_v5,2020.2.10,MacIntel,60,61025ae37ef11b136ea224fe,,,,,,,,,1341,46.71484375,80.625,1,0,0,response1disk,,7,-11.23046875,-7.44921875,1,0,0,rectangle,-11.23046875,-7.44921875,1,0,0,-11.23046875,-7.44921875,1,0,0,0,50,50,24,1,,,,,,,,
,,,,,,,,,,,,,FF,,,,,,,,1.4665,,,,,,,,,,,,,,,,,,,,,,6100987a26cc8c75ffe99d67,61036d956c80f4089f7f113f,2021-07-29_23h10.50.999,Simcolourproject_2stim_asymm_v5,2020.2.10,MacIntel,60,61025ae37ef11b136ea224fe,,,,,,,,,3287,-57.0703125,-101.8984375,1,0,0,response5disk,,3,-27.20703125,-2.5859375,1,0,0,rectangle,-27.20703125,-2.5859375,1,0,0,-27.20703125,-2.5859375,1,0,0,0,51,51,83,1,,,,,,,,
,,,,,,,,,,,,,FF,,,,,,,,1.03374,,,,,,,,,,,,,,,,,,,,,,6100987a26cc8c75ffe99d67,61036d956c80f4089f7f113f,2021-07-29_23h10.50.999,Simcolourproject_2stim_asymm_v5,2020.2.10,MacIntel,60,61025ae37ef11b136ea224fe,,,,,,,,,3082,43.6328125,69.5546875,1,0,0,response1disk,,7,5.4375,-7.65625,1,0,0,rectangle,5.4375,-7.65625,1,0,0,5.4375,-7.65625,1,0,0,0,52,52,6,1,,,,,,,,
,,,,,,,,,,,,,FF,,,,,,,,0.9011,,,,,,,,,,,,,,,,,,,,,,6100987a26cc8c75ffe99d67,61036d956c80f4089f7f113f,2021-07-29_23h10.50.999,Simcolourproject_2stim_asymm_v5,2020.2.10,MacIntel,60,61025ae37ef11b136ea224fe,,,,,,,,,3483,48.83984375,54.45703125,1,0,0,response1disk,,7,18.62890625,15.9140625,1,0,0,rectangle,18.62890625,15.9140625,1,0,0,18.62890625,15.9140625,1,0,0,0,53,53,63,1,,,,,,,,
,,,,,,,,,,,,,FF,,,,,,,,0.91544,,,,,,,,,,,,,,,,,,,,,,6100987a26cc8c75ffe99d67,61036d956c80f4089f7f113f,2021-07-29_23h10.50.999,Simcolourproject_2stim_asymm_v5,2020.2.10,MacIntel,60,61025ae37ef11b136ea224fe,,,,,,,,,427,37.421875,72.86328125,1,0,0,response1disk,,7,8.94921875,-8.26953125,1,0,0,rectangle,8.94921875,-8.26953125,1,0,0,8.94921875,-8.26953125,1,0,0,0,54,54,98,1,,,,,,,,
,,,,,,,,,,,,,FF,,,,,,,,1.317425,,,,,,,,,,,,,,,,,,,,,,6100987a26cc8c75ffe99d67,61036d956c80f4089f7f113f,2021-07-29_23h10.50.999,Simcolourproject_2stim_asymm_v5,2020.2.10,MacIntel,60,61025ae37ef11b136ea224fe,,,,,,,,,739,93.33203125,32.58203125,1,0,0,response1disk,,6,6.8671875,-2.14453125,1,0,0,rectangle,6.8671875,-2.14453125,1,0,0,6.8671875,-2.14453125,1,0,0,0,55,55,157,1,,,,,,,,
,,,,,,,,,,,,,FF,,,,,,,,0.900535,,,,,,,,,,,,,,,,,,,,,,6100987a26cc8c75ffe99d67,61036d956c80f4089f7f113f,2021-07-29_23h10.50.999,Simcolourproject_2stim_asymm_v5,2020.2.10,MacIntel,60,61025ae37ef11b136ea224fe,,,,,,,,,2251,37.03515625,101.0859375,1,0,0,response1disk,,7,-14.01171875,4.2890625,1,0,0,rectangle,-14.01171875,4.2890625,1,0,0,-14.01171875,4.2890625,1,0,0,0,56,56,146,1,,,,,,,,
,,,,,,,,,,,,,FF,,,,,,,,2.04961,,,,,,,,,,,,,,,,,,,,,,6100987a26cc8c75ffe99d67,61036d956c80f4089f7f113f,2021-07-29_23h10.50.999,Simcolourproject_2stim_asymm_v5,2020.2.10,MacIntel,60,61025ae37ef11b136ea224fe,,,,,,,,,1822,-82.375,32.63671875,1,0,0,response7disk,,1,-3.67578125,14.92578125,1,0,0,rectangle,-3.67578125,14.92578125,1,0,0,-3.67578125,14.92578125,1,0,0,0,57,57,21,1,,,,,,,,
,,,,,,,,,,,,,FF,,,,,,,,2.333915,,,,,,,,,,,,,,,,,,,,,,6100987a26cc8c75ffe99d67,61036d956c80f4089f7f113f,2021-07-29_23h10.50.999,Simcolourproject_2stim_asymm_v5,2020.2.10,MacIntel,60,61025ae37ef11b136ea224fe,,,,,,,,,3286,-68.45703125,27.08203125,1,0,0,response7disk,,1,6.50390625,-6.51953125,1,0,0,rectangle,6.50390625,-6.51953125,1,0,0,6.50390625,-6.51953125,1,0,0,0,58,58,41,1,,,,,,,,
,,,,,,,,,,,,,FF,,,,,,,,1.40023,,,,,,,,,,,,,,,,,,,,,,6100987a26cc8c75ffe99d67,61036d956c80f4089f7f113f,2021-07-29_23h10.50.999,Simcolourproject_2stim_asymm_v5,2020.2.10,MacIntel,60,61025ae37ef11b136ea224fe,,,,,,,,,4150,-37.38671875,-91.73046875,1,0,0,response5disk,,3,-6.48046875,-7.12890625,1,0,0,rectangle,-98.72265625,-47.8828125,1,0,0,3.32421875,-6.64453125,1,0,0,0,59,59,155,1,,response5disk_3,TRUE,2,2,"[136,296,218,318,202,197,60,34,124,150,14,163,225,320,31,141,31,282,222,13]",1.85041,rectangle
,,,,,,,,,,,,,FF,,,,,,,,0.93307,,,,,,,,,,,,,,,,,,,,,,6100987a26cc8c75ffe99d67,61036d956c80f4089f7f113f,2021-07-29_23h10.50.999,Simcolourproject_2stim_asymm_v5,2020.2.10,MacIntel,60,61025ae37ef11b136ea224fe,,,,,,,,,270,43.60546875,56.77734375,1,0,0,response1disk,,7,15.171875,-5.37890625,1,0,0,rectangle,15.171875,-5.37890625,1,0,0,15.171875,-5.37890625,1,0,0,0,60,60,108,1,,,,,,,,
,,,,,,,,,,,,,FF,,,,,,,,0.93303,,,,,,,,,,,,,,,,,,,,,,6100987a26cc8c75ffe99d67,61036d956c80f4089f7f113f,2021-07-29_23h10.50.999,Simcolourproject_2stim_asymm_v5,2020.2.10,MacIntel,60,61025ae37ef11b136ea224fe,,,,,,,,,243,41.5625,86.9453125,1,0,0,response1disk,,7,-12.5625,14.10546875,1,0,0,rectangle,-12.5625,14.10546875,1,0,0,-12.5625,14.10546875,1,0,0,0,61,61,30,1,,,,,,,,
,,,,,,,,,,,,,FF,,,,,,,,0.90012,,,,,,,,,,,,,,,,,,,,,,6100987a26cc8c75ffe99d67,61036d956c80f4089f7f113f,2021-07-29_23h10.50.999,Simcolourproject_2stim_asymm_v5,2020.2.10,MacIntel,60,61025ae37ef11b136ea224fe,,,,,,,,,2203,29.10546875,82.390625,1,0,0,response1disk,,7,-0.71484375,-4.21484375,1,0,0,rectangle,-0.71484375,-4.21484375,1,0,0,-0.71484375,-4.21484375,1,0,0,0,62,62,71,1,,,,,,,,
,,,,,,,,,,,,,FF,,,,,,,,0.85025,,,,,,,,,,,,,,,,,,,,,,6100987a26cc8c75ffe99d67,61036d956c80f4089f7f113f,2021-07-29_23h10.50.999,Simcolourproject_2stim_asymm_v5,2020.2.10,MacIntel,60,61025ae37ef11b136ea224fe,,,,,,,,,3229,30.53515625,90.27734375,1,0,0,response1disk,,7,14.2578125,13.2734375,1,0,0,rectangle,14.2578125,13.2734375,1,0,0,14.2578125,13.2734375,1,0,0,0,63,63,62,1,,,,,,,,
,,,,,,,,,,,,,FF,,,,,,,,0.7822,,,,,,,,,,,,,,,,,,,,,,6100987a26cc8c75ffe99d67,61036d956c80f4089f7f113f,2021-07-29_23h10.50.999,Simcolourproject_2stim_asymm_v5,2020.2.10,MacIntel,60,61025ae37ef11b136ea224fe,,,,,,,,,2205,52.8828125,76.73828125,1,0,0,response1disk,,7,9.82421875,0.69140625,1,0,0,rectangle,9.82421875,0.69140625,1,0,0,9.82421875,0.69140625,1,0,0,0,64,64,43,1,,,,,,,,
,,,,,,,,,,,,,FF,,,,,,,,0.817165,,,,,,,,,,,,,,,,,,,,,,6100987a26cc8c75ffe99d67,61036d956c80f4089f7f113f,2021-07-29_23h10.50.999,Simcolourproject_2stim_asymm_v5,2020.2.10,MacIntel,60,61025ae37ef11b136ea224fe,,,,,,,,,2508,35.17578125,73.83203125,1,0,0,response1disk,,7,7.046875,5.203125,1,0,0,rectangle,7.046875,5.203125,1,0,0,7.046875,5.203125,1,0,0,0,65,65,96,1,,,,,,,,
,,,,,,,,,,,,,FF,,,,,,,,1.18365,,,,,,,,,,,,,,,,,,,,,,6100987a26cc8c75ffe99d67,61036d956c80f4089f7f113f,2021-07-29_23h10.50.999,Simcolourproject_2stim_asymm_v5,2020.2.10,MacIntel,60,61025ae37ef11b136ea224fe,,,,,,,,,4223,-38.74609375,-88.46875,1,0,0,response5disk,,3,-15.1328125,4.12109375,1,0,0,rectangle,-15.1328125,4.12109375,1,0,0,-15.1328125,4.12109375,1,0,0,0,66,66,100,1,,,,,,,,
,,,,,,,,,,,,,FF,,,,,,,,0.748805,,,,,,,,,,,,,,,,,,,,,,6100987a26cc8c75ffe99d67,61036d956c80f4089f7f113f,2021-07-29_23h10.50.999,Simcolourproject_2stim_asymm_v5,2020.2.10,MacIntel,60,61025ae37ef11b136ea224fe,,,,,,,,,707,42.078125,100.2226563,1,0,0,response1disk,,7,-3.328125,-4.08984375,1,0,0,rectangle,-3.328125,-4.08984375,1,0,0,-3.328125,-4.08984375,1,0,0,0,67,67,28,1,,,,,,,,
,,,,,,,,,,,,,FF,,,,,,,,1.148725,,,,,,,,,,,,,,,,,,,,,,6100987a26cc8c75ffe99d67,61036d956c80f4089f7f113f,2021-07-29_23h10.50.999,Simcolourproject_2stim_asymm_v5,2020.2.10,MacIntel,60,61025ae37ef11b136ea224fe,,,,,,,,,620,-79.2890625,27.734375,1,0,0,response7disk,,1,-8.92578125,3.8984375,1,0,0,rectangle,-8.92578125,3.8984375,1,0,0,-8.92578125,3.8984375,1,0,0,0,68,68,32,1,,,,,,,,
,,,,,,,,,,,,,FF,,,,,,,,0.81569,,,,,,,,,,,,,,,,,,,,,,6100987a26cc8c75ffe99d67,61036d956c80f4089f7f113f,2021-07-29_23h10.50.999,Simcolourproject_2stim_asymm_v5,2020.2.10,MacIntel,60,61025ae37ef11b136ea224fe,,,,,,,,,1784,25.41015625,81.16796875,1,0,0,response1disk,,7,2.83984375,-6.94921875,1,0,0,rectangle,2.83984375,-6.94921875,1,0,0,2.83984375,-6.94921875,1,0,0,0,69,69,14,1,,,,,,,,
,,,,,,,,,,,,,FF,,,,,,,,0.86861,,,,,,,,,,,,,,,,,,,,,,6100987a26cc8c75ffe99d67,61036d956c80f4089f7f113f,2021-07-29_23h10.50.999,Simcolourproject_2stim_asymm_v5,2020.2.10,MacIntel,60,61025ae37ef11b136ea224fe,,,,,,,,,47,34.4375,88.0703125,1,0,0,response1disk,,7,5.96484375,-7.296875,1,0,0,rectangle,5.96484375,-7.296875,1,0,0,5.96484375,-7.296875,1,0,0,0,70,70,139,1,,,,,,,,
,,,,,,,,,,,,,FF,,,,,,,,0.8162,,,,,,,,,,,,,,,,,,,,,,6100987a26cc8c75ffe99d67,61036d956c80f4089f7f113f,2021-07-29_23h10.50.999,Simcolourproject_2stim_asymm_v5,2020.2.10,MacIntel,60,61025ae37ef11b136ea224fe,,,,,,,,,2860,29.53515625,73.4453125,1,0,0,response1disk,,7,7.3125,-10.8515625,1,0,0,rectangle,7.3125,-10.8515625,1,0,0,7.3125,-10.8515625,1,0,0,0,71,71,101,1,,,,,,,,
,,,,,,,,,,,,,FF,,,,,,,,0.816495,,,,,,,,,,,,,,,,,,,,,,6100987a26cc8c75ffe99d67,61036d956c80f4089f7f113f,2021-07-29_23h10.50.999,Simcolourproject_2stim_asymm_v5,2020.2.10,MacIntel,60,61025ae37ef11b136ea224fe,,,,,,,,,2319,36.48046875,85.29296875,1,0,0,response1disk,,7,9.046875,-1.78125,1,0,0,rectangle,9.046875,-1.78125,1,0,0,9.046875,-1.78125,1,0,0,0,72,72,147,1,,,,,,,,
,,,,,,,,,,,,,FF,,,,,,,,1.21747,,,,,,,,,,,,,,,,,,,,,,6100987a26cc8c75ffe99d67,61036d956c80f4089f7f113f,2021-07-29_23h10.50.999,Simcolourproject_2stim_asymm_v5,2020.2.10,MacIntel,60,61025ae37ef11b136ea224fe,,,,,,,,,3625,-102.375,-53.91015625,1,0,0,response5disk,,2,4.1875,1.2578125,1,0,0,rectangle,4.1875,1.2578125,1,0,0,4.1875,1.2578125,1,0,0,0,73,73,44,1,,,,,,,,
,,,,,,,,,,,,,FF,,,,,,,,0.76666,,,,,,,,,,,,,,,,,,,,,,6100987a26cc8c75ffe99d67,61036d956c80f4089f7f113f,2021-07-29_23h10.50.999,Simcolourproject_2stim_asymm_v5,2020.2.10,MacIntel,60,61025ae37ef11b136ea224fe,,,,,,,,,139,46.55078125,111.2109375,1,0,0,response1disk,,7,-8.3125,-14.1015625,1,0,0,rectangle,-8.3125,-14.1015625,1,0,0,-8.3125,-14.1015625,1,0,0,0,74,74,16,1,,,,,,,,
,,,,,,,,,,,,,FF,,,,,,,,1.15128,,,,,,,,,,,,,,,,,,,,,,6100987a26cc8c75ffe99d67,61036d956c80f4089f7f113f,2021-07-29_23h10.50.999,Simcolourproject_2stim_asymm_v5,2020.2.10,MacIntel,60,61025ae37ef11b136ea224fe,,,,,,,,,3705,-52.0234375,87.640625,1,0,0,response7disk,,0,-0.37109375,9.94140625,1,0,0,rectangle,-0.37109375,9.94140625,1,0,0,-0.37109375,9.94140625,1,0,0,0,75,75,140,1,,,,,,,,
,,,,,,,,,,,,,FF,,,,,,,,1.58363,,,,,,,,,,,,,,,,,,,,,,6100987a26cc8c75ffe99d67,61036d956c80f4089f7f113f,2021-07-29_23h10.50.999,Simcolourproject_2stim_asymm_v5,2020.2.10,MacIntel,60,61025ae37ef11b136ea224fe,,,,,,,,,1748,45.10546875,-98.88671875,1,0,0,response3disk,,4,-6.55078125,-4.6015625,1,0,0,rectangle,-6.55078125,-4.6015625,1,0,0,-6.55078125,-4.6015625,1,0,0,0,76,76,52,1,,,,,,,,
,,,,,,,,,,,,,FF,,,,,,,,0.883265,,,,,,,,,,,,,,,,,,,,,,6100987a26cc8c75ffe99d67,61036d956c80f4089f7f113f,2021-07-29_23h10.50.999,Simcolourproject_2stim_asymm_v5,2020.2.10,MacIntel,60,61025ae37ef11b136ea224fe,,,,,,,,,4132,46.578125,79.390625,1,0,0,response1disk,,7,-4.1171875,0.60546875,1,0,0,rectangle,-4.1171875,0.60546875,1,0,0,-4.1171875,0.60546875,1,0,0,0,77,77,58,1,,,,,,,,
,,,,,,,,,,,,,FF,,,,,,,,0.766325,,,,,,,,,,,,,,,,,,,,,,6100987a26cc8c75ffe99d67,61036d956c80f4089f7f113f,2021-07-29_23h10.50.999,Simcolourproject_2stim_asymm_v5,2020.2.10,MacIntel,60,61025ae37ef11b136ea224fe,,,,,,,,,4080,51.09375,98.8359375,1,0,0,response1disk,,7,-12.71484375,-1.26953125,1,0,0,rectangle,-12.71484375,-1.26953125,1,0,0,-12.71484375,-1.26953125,1,0,0,0,78,78,151,1,,,,,,,,
,,,,,,,,,,,,,FF,,,,,,,,1.11653,,,,,,,,,,,,,,,,,,,,,,6100987a26cc8c75ffe99d67,61036d956c80f4089f7f113f,2021-07-29_23h10.50.999,Simcolourproject_2stim_asymm_v5,2020.2.10,MacIntel,60,61025ae37ef11b136ea224fe,,,,,,,,,9,68.109375,-38.296875,1,0,0,response3disk,,5,2.64453125,-0.1015625,1,0,0,rectangle,2.64453125,-0.1015625,1,0,0,2.64453125,-0.1015625,1,0,0,0,79,79,60,1,,,,,,,,
,,,,,,,,,,,,,FF,,,,,,,,0.918455,,,,,,,,,,,,,,,,,,,,,,6100987a26cc8c75ffe99d67,61036d956c80f4089f7f113f,2021-07-29_23h10.50.999,Simcolourproject_2stim_asymm_v5,2020.2.10,MacIntel,60,61025ae37ef11b136ea224fe,,,,,,,,,4300,40.84375,91.4453125,1,0,0,response1disk,,7,0.60546875,10.31640625,1,0,0,rectangle,0.60546875,10.31640625,1,0,0,0.60546875,10.31640625,1,0,0,0,80,80,25,1,,,,,,,,
,,,,,,,,,,,,,FF,,,,,,,,0.732635,,,,,,,,,,,,,,,,,,,,,,6100987a26cc8c75ffe99d67,61036d956c80f4089f7f113f,2021-07-29_23h10.50.999,Simcolourproject_2stim_asymm_v5,2020.2.10,MacIntel,60,61025ae37ef11b136ea224fe,,,,,,,,,2011,48.21875,85.97265625,1,0,0,response1disk,,7,3.078125,5.80078125,1,0,0,rectangle,3.078125,5.80078125,1,0,0,3.078125,5.80078125,1,0,0,0,81,81,47,1,,,,,,,,
,,,,,,,,,,,,,FF,,,,,,,,0.81698,,,,,,,,,,,,,,,,,,,,,,6100987a26cc8c75ffe99d67,61036d956c80f4089f7f113f,2021-07-29_23h10.50.999,Simcolourproject_2stim_asymm_v5,2020.2.10,MacIntel,60,61025ae37ef11b136ea224fe,,,,,,,,,1030,48.9140625,91.140625,1,0,0,response1disk,,7,-3.5625,-2.00390625,1,0,0,rectangle,-3.5625,-2.00390625,1,0,0,-3.5625,-2.00390625,1,0,0,0,82,82,9,1,,,,,,,,
,,,,,,,,,,,,,FF,,,,,,,,1.41785,,,,,,,,,,,,,,,,,,,,,,6100987a26cc8c75ffe99d67,61036d956c80f4089f7f113f,2021-07-29_23h10.50.999,Simcolourproject_2stim_asymm_v5,2020.2.10,MacIntel,60,61025ae37ef11b136ea224fe,,,,,,,,,665,39.5390625,88.7109375,1,0,0,response1disk,,7,-0.046875,10.31640625,1,0,0,rectangle,-0.046875,10.31640625,1,0,0,-0.046875,10.31640625,1,0,0,0,83,83,22,1,,,,,,,,
,,,,,,,,,,,,,FF,,,,,,,,0.66652,,,,,,,,,,,,,,,,,,,,,,6100987a26cc8c75ffe99d67,61036d956c80f4089f7f113f,2021-07-29_23h10.50.999,Simcolourproject_2stim_asymm_v5,2020.2.10,MacIntel,60,61025ae37ef11b136ea224fe,,,,,,,,,3620,54.12109375,86.015625,1,0,0,response1disk,,7,-0.046875,4.76171875,1,0,0,rectangle,-0.046875,4.76171875,1,0,0,-0.046875,4.76171875,1,0,0,0,84,84,119,1,,,,,,,,
,,,,,,,,,,,,,FF,,,,,,,,0.749065,,,,,,,,,,,,,,,,,,,,,,6100987a26cc8c75ffe99d67,61036d956c80f4089f7f113f,2021-07-29_23h10.50.999,Simcolourproject_2stim_asymm_v5,2020.2.10,MacIntel,60,61025ae37ef11b136ea224fe,,,,,,,,,2815,33.28515625,65.140625,1,0,0,response1disk,,7,-1.08984375,-1.40625,1,0,0,rectangle,-1.08984375,-1.40625,1,0,0,-1.08984375,-1.40625,1,0,0,0,85,85,65,1,,,,,,,,
,,,,,,,,,,,,,FF,,,,,,,,0.633525,,,,,,,,,,,,,,,,,,,,,,6100987a26cc8c75ffe99d67,61036d956c80f4089f7f113f,2021-07-29_23h10.50.999,Simcolourproject_2stim_asymm_v5,2020.2.10,MacIntel,60,61025ae37ef11b136ea224fe,,,,,,,,,1169,39.19140625,66.52734375,1,0,0,response1disk,,7,-1.78515625,-15.37890625,1,0,0,rectangle,-1.78515625,-15.37890625,1,0,0,-1.78515625,-15.37890625,1,0,0,0,86,86,144,1,,,,,,,,
,,,,,,,,,,,,,FF,,,,,,,,0.865365,,,,,,,,,,,,,,,,,,,,,,6100987a26cc8c75ffe99d67,61036d956c80f4089f7f113f,2021-07-29_23h10.50.999,Simcolourproject_2stim_asymm_v5,2020.2.10,MacIntel,60,61025ae37ef11b136ea224fe,,,,,,,,,2746,22.5234375,68.20703125,1,0,0,response1disk,,7,-5.2578125,-8.83984375,1,0,0,rectangle,-5.2578125,-8.83984375,1,0,0,-5.2578125,-8.83984375,1,0,0,0,87,87,127,1,,,,,,,,
,,,,,,,,,,,,,FF,,,,,,,,1.617975,,,,,,,,,,,,,,,,,,,,,,6100987a26cc8c75ffe99d67,61036d956c80f4089f7f113f,2021-07-29_23h10.50.999,Simcolourproject_2stim_asymm_v5,2020.2.10,MacIntel,60,61025ae37ef11b136ea224fe,,,,,,,,,1194,89.8046875,-37.3125,1,0,0,response3disk,,5,-1.828125,5.05078125,1,0,0,rectangle,-1.828125,5.05078125,1,0,0,-1.828125,5.05078125,1,0,0,0,88,88,110,1,,,,,,,,
,,,,,,,,,,,,,FF,,,,,,,,9.28401,,,,,,,,,,,,,,,,,,,,,,6100987a26cc8c75ffe99d67,61036d956c80f4089f7f113f,2021-07-29_23h10.50.999,Simcolourproject_2stim_asymm_v5,2020.2.10,MacIntel,60,61025ae37ef11b136ea224fe,,,,,,,,,1011,30.42578125,60.52734375,1,0,0,response1disk,,7,-1.51953125,-1.50390625,1,0,0,rectangle,-1.51953125,-1.50390625,1,0,0,-1.51953125,-1.50390625,1,0,0,0,89,89,159,1,,,,,,,,
,,,,,,,,,,,,,FF,,,,,,,,0.88287,,,,,,,,,,,,,,,,,,,,,,6100987a26cc8c75ffe99d67,61036d956c80f4089f7f113f,2021-07-29_23h10.50.999,Simcolourproject_2stim_asymm_v5,2020.2.10,MacIntel,60,61025ae37ef11b136ea224fe,,,,,,,,,1738,26.953125,51.19140625,1,0,0,response1disk,,7,18.6171875,14.1640625,1,0,0,rectangle,18.6171875,14.1640625,1,0,0,18.6171875,14.1640625,1,0,0,0,90,90,143,1,,,,,,,,
,,,,,,,,,,,,,FF,,,,,,,,0.91711,,,,,,,,,,,,,,,,,,,,,,6100987a26cc8c75ffe99d67,61036d956c80f4089f7f113f,2021-07-29_23h10.50.999,Simcolourproject_2stim_asymm_v5,2020.2.10,MacIntel,60,61025ae37ef11b136ea224fe,,,,,,,,,524,68.234375,32.17578125,1,0,0,response1disk,,6,26.30078125,6.48046875,1,0,0,rectangle,26.30078125,6.48046875,1,0,0,26.30078125,6.48046875,1,0,0,0,91,91,148,1,,,,,,,,
,,,,,,,,,,,,,FF,,,,,,,,0.70219,,,,,,,,,,,,,,,,,,,,,,6100987a26cc8c75ffe99d67,61036d956c80f4089f7f113f,2021-07-29_23h10.50.999,Simcolourproject_2stim_asymm_v5,2020.2.10,MacIntel,60,61025ae37ef11b136ea224fe,,,,,,,,,993,43.6640625,74.1953125,1,0,0,response1disk,,7,9.328125,-4.9375,1,0,0,rectangle,9.328125,-4.9375,1,0,0,9.328125,-4.9375,1,0,0,0,92,92,27,1,,,,,,,,
,,,,,,,,,,,,,FF,,,,,,,,0.73369,,,,,,,,,,,,,,,,,,,,,,6100987a26cc8c75ffe99d67,61036d956c80f4089f7f113f,2021-07-29_23h10.50.999,Simcolourproject_2stim_asymm_v5,2020.2.10,MacIntel,60,61025ae37ef11b136ea224fe,,,,,,,,,4156,47.48046875,77.02734375,1,0,0,response1disk,,7,2.73046875,-2.9765625,1,0,0,rectangle,2.73046875,-2.9765625,1,0,0,2.73046875,-2.9765625,1,0,0,0,93,93,72,1,,,,,,,,
,,,,,,,,,,,,,FF,,,,,,,,1.26716,,,,,,,,,,,,,,,,,,,,,,6100987a26cc8c75ffe99d67,61036d956c80f4089f7f113f,2021-07-29_23h10.50.999,Simcolourproject_2stim_asymm_v5,2020.2.10,MacIntel,60,61025ae37ef11b136ea224fe,,,,,,,,,672,30.8125,66.3046875,1,0,0,response1disk,,7,-0.4375,10.5234375,1,0,0,rectangle,-0.4375,10.5234375,1,0,0,-0.4375,10.5234375,1,0,0,0,94,94,37,1,,,,,,,,
,,,,,,,,,,,,,FF,,,,,,,,2.683655,,,,,,,,,,,,,,,,,,,,,,6100987a26cc8c75ffe99d67,61036d956c80f4089f7f113f,2021-07-29_23h10.50.999,Simcolourproject_2stim_asymm_v5,2020.2.10,MacIntel,60,61025ae37ef11b136ea224fe,,,,,,,,,3056,-37.24609375,-88.5234375,1,0,0,response5disk,,3,-5.30078125,5.49609375,1,0,0,rectangle,-5.30078125,5.49609375,1,0,0,-5.30078125,5.49609375,1,0,0,0,95,95,19,1,,,,,,,,
,,,,,,,,,,,,,FF,,,,,,,,0.616785,,,,,,,,,,,,,,,,,,,,,,6100987a26cc8c75ffe99d67,61036d956c80f4089f7f113f,2021-07-29_23h10.50.999,Simcolourproject_2stim_asymm_v5,2020.2.10,MacIntel,60,61025ae37ef11b136ea224fe,,,,,,,,,122,36.98046875,55.84375,1,0,0,response1disk,,7,6.1171875,-12.48046875,1,0,0,rectangle,6.1171875,-12.48046875,1,0,0,6.1171875,-12.48046875,1,0,0,0,96,96,12,1,,,,,,,,
,,,,,,,,,,,,,FF,,,,,,,,0.6488,,,,,,,,,,,,,,,,,,,,,,6100987a26cc8c75ffe99d67,61036d956c80f4089f7f113f,2021-07-29_23h10.50.999,Simcolourproject_2stim_asymm_v5,2020.2.10,MacIntel,60,61025ae37ef11b136ea224fe,,,,,,,,,925,40.80078125,76.984375,1,0,0,response1disk,,7,-0.51953125,0.328125,1,0,0,rectangle,-0.51953125,0.328125,1,0,0,-0.51953125,0.328125,1,0,0,0,97,97,113,1,,,,,,,,
,,,,,,,,,,,,,FF,,,,,,,,1.23435,,,,,,,,,,,,,,,,,,,,,,6100987a26cc8c75ffe99d67,61036d956c80f4089f7f113f,2021-07-29_23h10.50.999,Simcolourproject_2stim_asymm_v5,2020.2.10,MacIntel,60,61025ae37ef11b136ea224fe,,,,,,,,,563,80.609375,44.42578125,1,0,0,response1disk,,6,-5.03515625,5.8828125,1,0,0,rectangle,-5.03515625,5.8828125,1,0,0,-5.03515625,5.8828125,1,0,0,0,98,98,145,1,,,,,,,,
,,,,,,,,,,,,,FF,,,,,,,,1.399,,,,,,,,,,,,,,,,,,,,,,6100987a26cc8c75ffe99d67,61036d956c80f4089f7f113f,2021-07-29_23h10.50.999,Simcolourproject_2stim_asymm_v5,2020.2.10,MacIntel,60,61025ae37ef11b136ea224fe,,,,,,,,,2999,-78.69140625,-61.7890625,1,0,0,response5disk,,2,-1.30078125,14.2578125,1,0,0,rectangle,-1.30078125,14.2578125,1,0,0,-1.30078125,14.2578125,1,0,0,0,99,99,125,1,,,,,,,,
,,,,,,,,,,,,,FF,,,,,,,,1.08372,,,,,,,,,,,,,,,,,,,,,,6100987a26cc8c75ffe99d67,61036d956c80f4089f7f113f,2021-07-29_23h10.50.999,Simcolourproject_2stim_asymm_v5,2020.2.10,MacIntel,60,61025ae37ef11b136ea224fe,,,,,,,,,3463,-84.47265625,-36.35546875,1,0,0,response5disk,,2,13.453125,7.05078125,1,0,0,rectangle,13.453125,7.05078125,1,0,0,13.453125,7.05078125,1,0,0,0,100,100,3,1,,,,,,,,
,,,,,,,,,,,,,FF,,,,,,,,1.150105,,,,,,,,,,,,,,,,,,,,,,6100987a26cc8c75ffe99d67,61036d956c80f4089f7f113f,2021-07-29_23h10.50.999,Simcolourproject_2stim_asymm_v5,2020.2.10,MacIntel,60,61025ae37ef11b136ea224fe,,,,,,,,,768,41.96875,69.4296875,1,0,0,response1disk,,7,11.41015625,8.09375,1,0,0,rectangle,11.41015625,8.09375,1,0,0,11.41015625,8.09375,1,0,0,0,101,101,128,1,,,,,,,,
,,,,,,,,,,,,,FF,,,,,,,,0.71701,,,,,,,,,,,,,,,,,,,,,,6100987a26cc8c75ffe99d67,61036d956c80f4089f7f113f,2021-07-29_23h10.50.999,Simcolourproject_2stim_asymm_v5,2020.2.10,MacIntel,60,61025ae37ef11b136ea224fe,,,,,,,,,3984,42.2734375,71.51171875,1,0,0,response1disk,,7,-8.6875,-7.57421875,1,0,0,rectangle,-8.6875,-7.57421875,1,0,0,-8.6875,-7.57421875,1,0,0,0,102,102,82,1,,,,,,,,
,,,,,,,,,,,,,FF,,,,,,,,1.19967,,,,,,,,,,,,,,,,,,,,,,6100987a26cc8c75ffe99d67,61036d956c80f4089f7f113f,2021-07-29_23h10.50.999,Simcolourproject_2stim_asymm_v5,2020.2.10,MacIntel,60,61025ae37ef11b136ea224fe,,,,,,,,,353,-29.4375,-107.5390625,1,0,0,response5disk,,3,7.67578125,6.6328125,1,0,0,rectangle,7.67578125,6.6328125,1,0,0,7.67578125,6.6328125,1,0,0,0,103,103,104,1,,,,,,,,
,,,,,,,,,,,,,FF,,,,,,,,1.13297,,,,,,,,,,,,,,,,,,,,,,6100987a26cc8c75ffe99d67,61036d956c80f4089f7f113f,2021-07-29_23h10.50.999,Simcolourproject_2stim_asymm_v5,2020.2.10,MacIntel,60,61025ae37ef11b136ea224fe,,,,,,,,,2715,-55.87109375,-88.20703125,1,0,0,response5disk,,3,-10.3828125,-3.8671875,1,0,0,rectangle,-10.3828125,-3.8671875,1,0,0,-10.3828125,-3.8671875,1,0,0,0,104,104,149,1,,,,,,,,
,,,,,,,,,,,,,FF,,,,,,,,0.651555,,,,,,,,,,,,,,,,,,,,,,6100987a26cc8c75ffe99d67,61036d956c80f4089f7f113f,2021-07-29_23h10.50.999,Simcolourproject_2stim_asymm_v5,2020.2.10,MacIntel,60,61025ae37ef11b136ea224fe,,,,,,,,,1411,36.49609375,73.1796875,1,0,0,response1disk,,7,11.96484375,4.6328125,1,0,0,rectangle,11.96484375,4.6328125,1,0,0,11.96484375,4.6328125,1,0,0,0,105,105,50,1,,,,,,,,
,,,,,,,,,,,,,FF,,,,,,,,1.6183,,,,,,,,,,,,,,,,,,,,,,6100987a26cc8c75ffe99d67,61036d956c80f4089f7f113f,2021-07-29_23h10.50.999,Simcolourproject_2stim_asymm_v5,2020.2.10,MacIntel,60,61025ae37ef11b136ea224fe,,,,,,,,,187,36.578125,-107.0546875,1,0,0,response3disk,,4,13.3125,-4.96484375,1,0,0,rectangle,13.3125,-4.96484375,1,0,0,13.3125,-4.96484375,1,0,0,0,106,106,91,1,,,,,,,,
,,,,,,,,,,,,,FF,,,,,,,,0.768455,,,,,,,,,,,,,,,,,,,,,,6100987a26cc8c75ffe99d67,61036d956c80f4089f7f113f,2021-07-29_23h10.50.999,Simcolourproject_2stim_asymm_v5,2020.2.10,MacIntel,60,61025ae37ef11b136ea224fe,,,,,,,,,647,31.71875,68.65234375,1,0,0,response1disk,,7,-11.2578125,0.37109375,1,0,0,rectangle,-11.2578125,0.37109375,1,0,0,-11.2578125,0.37109375,1,0,0,0,107,107,87,1,,,,,,,,
,,,,,,,,,,,,,FF,,,,,,,,0.734105,,,,,,,,,,,,,,,,,,,,,,6100987a26cc8c75ffe99d67,61036d956c80f4089f7f113f,2021-07-29_23h10.50.999,Simcolourproject_2stim_asymm_v5,2020.2.10,MacIntel,60,61025ae37ef11b136ea224fe,,,,,,,,,3787,24.5078125,57.96875,1,0,0,response1disk,,7,3.328125,4.2734375,1,0,0,rectangle,3.328125,4.2734375,1,0,0,3.328125,4.2734375,1,0,0,0,108,108,94,1,,,,,,,,
,,,,,,,,,,,,,FF,,,,,,,,0.798805,,,,,,,,,,,,,,,,,,,,,,6100987a26cc8c75ffe99d67,61036d956c80f4089f7f113f,2021-07-29_23h10.50.999,Simcolourproject_2stim_asymm_v5,2020.2.10,MacIntel,60,61025ae37ef11b136ea224fe,,,,,,,,,4257,37.31640625,65.56640625,1,0,0,response1disk,,7,1.203125,-2.796875,1,0,0,rectangle,1.203125,-2.796875,1,0,0,1.203125,-2.796875,1,0,0,0,109,109,114,1,,,,,,,,
,,,,,,,,,,,,,FF,,,,,,,,0.999605,,,,,,,,,,,,,,,,,,,,,,6100987a26cc8c75ffe99d67,61036d956c80f4089f7f113f,2021-07-29_23h10.50.999,Simcolourproject_2stim_asymm_v5,2020.2.10,MacIntel,60,61025ae37ef11b136ea224fe,,,,,,,,,3965,-57.01171875,81.58203125,1,0,0,response7disk,,0,-4.66015625,5.66015625,1,0,0,rectangle,-4.66015625,5.66015625,1,0,0,-4.66015625,5.66015625,1,0,0,0,110,110,64,1,,,,,,,,
,,,,,,,,,,,,,FF,,,,,,,,0.66642,,,,,,,,,,,,,,,,,,,,,,6100987a26cc8c75ffe99d67,61036d956c80f4089f7f113f,2021-07-29_23h10.50.999,Simcolourproject_2stim_asymm_v5,2020.2.10,MacIntel,60,61025ae37ef11b136ea224fe,,,,,,,,,4304,32.84375,76.109375,1,0,0,response1disk,,7,9.6171875,-5.3671875,1,0,0,rectangle,9.6171875,-5.3671875,1,0,0,9.6171875,-5.3671875,1,0,0,0,111,111,103,1,,,,,,,,
,,,,,,,,,,,,,FF,,,,,,,,0.616975,,,,,,,,,,,,,,,,,,,,,,6100987a26cc8c75ffe99d67,61036d956c80f4089f7f113f,2021-07-29_23h10.50.999,Simcolourproject_2stim_asymm_v5,2020.2.10,MacIntel,60,61025ae37ef11b136ea224fe,,,,,,,,,2327,39.13671875,61.9140625,1,0,0,response1disk,,7,5.1484375,-1.421875,1,0,0,rectangle,5.1484375,-1.421875,1,0,0,5.1484375,-1.421875,1,0,0,0,112,112,26,1,,,,,,,,
,,,,,,,,,,,,,FF,,,,,,,,0.76638,,,,,,,,,,,,,,,,,,,,,,6100987a26cc8c75ffe99d67,61036d956c80f4089f7f113f,2021-07-29_23h10.50.999,Simcolourproject_2stim_asymm_v5,2020.2.10,MacIntel,60,61025ae37ef11b136ea224fe,,,,,,,,,3764,37.7890625,86.4296875,1,0,0,response1disk,,7,6.53515625,1.48046875,1,0,0,rectangle,6.53515625,1.48046875,1,0,0,6.53515625,1.48046875,1,0,0,0,113,113,136,1,,,,,,,,
,,,,,,,,,,,,,FF,,,,,,,,0.80025,,,,,,,,,,,,,,,,,,,,,,6100987a26cc8c75ffe99d67,61036d956c80f4089f7f113f,2021-07-29_23h10.50.999,Simcolourproject_2stim_asymm_v5,2020.2.10,MacIntel,60,61025ae37ef11b136ea224fe,,,,,,,,,1596,-37.828125,85.86328125,1,0,0,response7disk,,0,-18.3828125,-11.671875,1,0,0,rectangle,-18.3828125,-11.671875,1,0,0,-18.3828125,-11.671875,1,0,0,0,114,114,153,1,,,,,,,,
,,,,,,,,,,,,,FF,,,,,,,,0.74878,,,,,,,,,,,,,,,,,,,,,,6100987a26cc8c75ffe99d67,61036d956c80f4089f7f113f,2021-07-29_23h10.50.999,Simcolourproject_2stim_asymm_v5,2020.2.10,MacIntel,60,61025ae37ef11b136ea224fe,,,,,,,,,2136,43.51171875,80.3046875,1,0,0,response1disk,,7,-4.0625,-4.19921875,1,0,0,rectangle,-4.0625,-4.19921875,1,0,0,-4.0625,-4.19921875,1,0,0,0,115,115,89,1,,,,,,,,
,,,,,,,,,,,,,FF,,,,,,,,0.79937,,,,,,,,,,,,,,,,,,,,,,6100987a26cc8c75ffe99d67,61036d956c80f4089f7f113f,2021-07-29_23h10.50.999,Simcolourproject_2stim_asymm_v5,2020.2.10,MacIntel,60,61025ae37ef11b136ea224fe,,,,,,,,,3453,29.96875,97.375,1,0,0,response1disk,,7,-3.58984375,4.828125,1,0,0,rectangle,-3.58984375,4.828125,1,0,0,-3.58984375,4.828125,1,0,0,0,116,116,0,1,,,,,,,,
,,,,,,,,,,,,,FF,,,,,,,,1.40029,,,,,,,,,,,,,,,,,,,,,,6100987a26cc8c75ffe99d67,61036d956c80f4089f7f113f,2021-07-29_23h10.50.999,Simcolourproject_2stim_asymm_v5,2020.2.10,MacIntel,60,61025ae37ef11b136ea224fe,,,,,,,,,3425,-76.12109375,45.58203125,1,0,0,response7disk,,1,-19.5625,-2.9921875,1,0,0,rectangle,-19.5625,-2.9921875,1,0,0,-19.5625,-2.9921875,1,0,0,0,117,117,97,1,,,,,,,,
,,,,,,,,,,,,,FF,,,,,,,,1.6514,,,,,,,,,,,,,,,,,,,,,,6100987a26cc8c75ffe99d67,61036d956c80f4089f7f113f,2021-07-29_23h10.50.999,Simcolourproject_2stim_asymm_v5,2020.2.10,MacIntel,60,61025ae37ef11b136ea224fe,,,,,,,,,2995,48.59375,-104.9140625,1,0,0,response3disk,,4,3.10546875,-3.03125,1,0,0,rectangle,3.10546875,-3.03125,1,0,0,3.10546875,-3.03125,1,0,0,0,118,118,93,1,,,,,,,,
,,,,,,,,,,,,,FF,,,,,,,,1.615775,,,,,,,,,,,,,,,,,,,,,,6100987a26cc8c75ffe99d67,61036d956c80f4089f7f113f,2021-07-29_23h10.50.999,Simcolourproject_2stim_asymm_v5,2020.2.10,MacIntel,60,61025ae37ef11b136ea224fe,,,,,,,,,606,85.19140625,24.6640625,1,0,0,response1disk,,6,20.30078125,9.73046875,1,0,0,rectangle,20.30078125,9.73046875,1,0,0,20.30078125,9.73046875,1,0,0,0,119,119,112,1,,,,,,,,
,,,,,,,,,,,,,FF,,,,,,,,1.516825,,,,,,,,,,,,,,,,,,,,,,6100987a26cc8c75ffe99d67,61036d956c80f4089f7f113f,2021-07-29_23h10.50.999,Simcolourproject_2stim_asymm_v5,2020.2.10,MacIntel,60,61025ae37ef11b136ea224fe,,,,,,,,,2365,61.5390625,75.8046875,1,0,0,response1disk,,7,12.4375,-5.41015625,1,0,0,rectangle,12.4375,-5.41015625,1,0,0,12.4375,-5.41015625,1,0,0,0,120,120,77,1,,,,,,,,
,,,,,,,,,,,,,FF,,,,,,,,3.34998,,,,,,,,,,,,,,,,,,,,,,6100987a26cc8c75ffe99d67,61036d956c80f4089f7f113f,2021-07-29_23h10.50.999,Simcolourproject_2stim_asymm_v5,2020.2.10,MacIntel,60,61025ae37ef11b136ea224fe,,,,,,,,,3645,16.30078125,64.69140625,1,0,0,response1disk,,7,-14.9921875,-9.96484375,1,0,0,rectangle,-14.9921875,-9.96484375,1,0,0,-14.9921875,-9.96484375,1,0,0,0,121,121,131,1,,,,,,,,
,,,,,,,,,,,,,FF,,,,,,,,1.10059,,,,,,,,,,,,,,,,,,,,,,6100987a26cc8c75ffe99d67,61036d956c80f4089f7f113f,2021-07-29_23h10.50.999,Simcolourproject_2stim_asymm_v5,2020.2.10,MacIntel,60,61025ae37ef11b136ea224fe,,,,,,,,,3427,-82.01171875,-49.98046875,1,0,0,response5disk,,2,7.8828125,-3.8828125,1,0,0,rectangle,7.8828125,-3.8828125,1,0,0,7.8828125,-3.8828125,1,0,0,0,122,122,45,1,,,,,,,,
,,,,,,,,,,,,,FF,,,,,,,,0.80048,,,,,,,,,,,,,,,,,,,,,,6100987a26cc8c75ffe99d67,61036d956c80f4089f7f113f,2021-07-29_23h10.50.999,Simcolourproject_2stim_asymm_v5,2020.2.10,MacIntel,60,61025ae37ef11b136ea224fe,,,,,,,,,1168,53.80078125,91.22265625,1,0,0,response1disk,,7,10.3984375,-0.96484375,1,0,0,rectangle,88.75,-52.703125,1,0,0,-10.8671875,6.28515625,1,0,0,0,123,123,86,1,,response3disk_3,TRUE,5,5,"[136,296,218,318,202,197,60,34,124,150,14,163,225,320,31,141,31,282,222,13]",2.38397,rectangle
,,,,,,,,,,,,,FF,,,,,,,,1.332955,,,,,,,,,,,,,,,,,,,,,,6100987a26cc8c75ffe99d67,61036d956c80f4089f7f113f,2021-07-29_23h10.50.999,Simcolourproject_2stim_asymm_v5,2020.2.10,MacIntel,60,61025ae37ef11b136ea224fe,,,,,,,,,1122,42.9140625,102.0820313,1,0,0,response1disk,,7,3.328125,5.6328125,1,0,0,rectangle,3.328125,5.6328125,1,0,0,3.328125,5.6328125,1,0,0,0,124,124,133,1,,,,,,,,
,,,,,,,,,,,,,FF,,,,,,,,1.18365,,,,,,,,,,,,,,,,,,,,,,6100987a26cc8c75ffe99d67,61036d956c80f4089f7f113f,2021-07-29_23h10.50.999,Simcolourproject_2stim_asymm_v5,2020.2.10,MacIntel,60,61025ae37ef11b136ea224fe,,,,,,,,,1212,-40.078125,-100.109375,1,0,0,response5disk,,3,10.96484375,6.7578125,1,0,0,rectangle,10.96484375,6.7578125,1,0,0,10.96484375,6.7578125,1,0,0,0,125,125,129,1,,,,,,,,
,,,,,,,,,,,,,FF,,,,,,,,0.8159,,,,,,,,,,,,,,,,,,,,,,6100987a26cc8c75ffe99d67,61036d956c80f4089f7f113f,2021-07-29_23h10.50.999,Simcolourproject_2stim_asymm_v5,2020.2.10,MacIntel,60,61025ae37ef11b136ea224fe,,,,,,,,,1880,35.578125,66.0546875,1,0,0,response1disk,,7,3.98046875,-5.78515625,1,0,0,rectangle,3.98046875,-5.78515625,1,0,0,3.98046875,-5.78515625,1,0,0,0,126,126,4,1,,,,,,,,
,,,,,,,,,,,,,FF,,,,,,,,0.85134,,,,,,,,,,,,,,,,,,,,,,6100987a26cc8c75ffe99d67,61036d956c80f4089f7f113f,2021-07-29_23h10.50.999,Simcolourproject_2stim_asymm_v5,2020.2.10,MacIntel,60,61025ae37ef11b136ea224fe,,,,,,,,,2310,34.5390625,93.83203125,1,0,0,response1disk,,7,0.55078125,1.203125,1,0,0,rectangle,0.55078125,1.203125,1,0,0,0.55078125,1.203125,1,0,0,0,127,127,54,1,,,,,,,,
,,,,,,,,,,,,,FF,,,,,,,,1.133975,,,,,,,,,,,,,,,,,,,,,,6100987a26cc8c75ffe99d67,61036d956c80f4089f7f113f,2021-07-29_23h10.50.999,Simcolourproject_2stim_asymm_v5,2020.2.10,MacIntel,60,61025ae37ef11b136ea224fe,,,,,,,,,2997,34.578125,-90.77734375,1,0,0,response3disk,,4,-20.98046875,12.2734375,1,0,0,rectangle,-20.98046875,12.2734375,1,0,0,-20.98046875,12.2734375,1,0,0,0,128,128,99,1,,,,,,,,
,,,,,,,,,,,,,FF,,,,,,,,1.4336,,,,,,,,,,,,,,,,,,,,,,6100987a26cc8c75ffe99d67,61036d956c80f4089f7f113f,2021-07-29_23h10.50.999,Simcolourproject_2stim_asymm_v5,2020.2.10,MacIntel,60,61025ae37ef11b136ea224fe,,,,,,,,,3449,45.6484375,77.77734375,1,0,0,response1disk,,7,3.6328125,-5.51953125,1,0,0,rectangle,3.6328125,-5.51953125,1,0,0,3.6328125,-5.51953125,1,0,0,0,129,129,137,1,,,,,,,,
,,,,,,,,,,,,,FF,,,,,,,,0.83489,,,,,,,,,,,,,,,,,,,,,,6100987a26cc8c75ffe99d67,61036d956c80f4089f7f113f,2021-07-29_23h10.50.999,Simcolourproject_2stim_asymm_v5,2020.2.10,MacIntel,60,61025ae37ef11b136ea224fe,,,,,,,,,2819,28.203125,66.58203125,1,0,0,response1disk,,7,-13.1171875,-1.78515625,1,0,0,rectangle,-13.1171875,-1.78515625,1,0,0,-13.1171875,-1.78515625,1,0,0,0,130,130,123,1,,,,,,,,
,,,,,,,,,,,,,FF,,,,,,,,0.851515,,,,,,,,,,,,,,,,,,,,,,6100987a26cc8c75ffe99d67,61036d956c80f4089f7f113f,2021-07-29_23h10.50.999,Simcolourproject_2stim_asymm_v5,2020.2.10,MacIntel,60,61025ae37ef11b136ea224fe,,,,,,,,,885,-49.49609375,79.4296875,1,0,0,response7disk,,0,-6.828125,5.24609375,1,0,0,rectangle,-6.828125,5.24609375,1,0,0,-6.828125,5.24609375,1,0,0,0,131,131,17,1,,,,,,,,
,,,,,,,,,,,,,FF,,,,,,,,0.833505,,,,,,,,,,,,,,,,,,,,,,6100987a26cc8c75ffe99d67,61036d956c80f4089f7f113f,2021-07-29_23h10.50.999,Simcolourproject_2stim_asymm_v5,2020.2.10,MacIntel,60,61025ae37ef11b136ea224fe,,,,,,,,,3272,44.87109375,99,1,0,0,response1disk,,7,-0.6171875,5.24609375,1,0,0,rectangle,-0.6171875,5.24609375,1,0,0,-0.6171875,5.24609375,1,0,0,0,132,132,8,1,,,,,,,,
,,,,,,,,,,,,,FF,,,,,,,,1.031855,,,,,,,,,,,,,,,,,,,,,,6100987a26cc8c75ffe99d67,61036d956c80f4089f7f113f,2021-07-29_23h10.50.999,Simcolourproject_2stim_asymm_v5,2020.2.10,MacIntel,60,61025ae37ef11b136ea224fe,,,,,,,,,1404,36.5390625,74.56640625,1,0,0,response1disk,,7,-0.6171875,-4.2578125,1,0,0,rectangle,-0.6171875,-4.2578125,1,0,0,-0.6171875,-4.2578125,1,0,0,0,133,133,29,1,,,,,,,,
,,,,,,,,,,,,,FF,,,,,,,,1.083375,,,,,,,,,,,,,,,,,,,,,,6100987a26cc8c75ffe99d67,61036d956c80f4089f7f113f,2021-07-29_23h10.50.999,Simcolourproject_2stim_asymm_v5,2020.2.10,MacIntel,60,61025ae37ef11b136ea224fe,,,,,,,,,1280,85.15234375,50.9140625,1,0,0,response1disk,,6,-5.35546875,3.078125,1,0,0,rectangle,-5.35546875,3.078125,1,0,0,-5.35546875,3.078125,1,0,0,0,134,134,57,1,,,,,,,,
,,,,,,,,,,,,,FF,,,,,,,,1.2828,,,,,,,,,,,,,,,,,,,,,,6100987a26cc8c75ffe99d67,61036d956c80f4089f7f113f,2021-07-29_23h10.50.999,Simcolourproject_2stim_asymm_v5,2020.2.10,MacIntel,60,61025ae37ef11b136ea224fe,,,,,,,,,1115,26.8984375,96.140625,1,0,0,response1disk,,7,-5.703125,-1.3515625,1,0,0,rectangle,-96.2890625,-42.71875,1,0,0,10.96484375,7.98046875,1,0,0,0,135,135,150,1,,response5disk_3,TRUE,2,2,"[136,296,218,318,202,197,60,34,124,150,14,163,225,320,31,141,31,282,222,13]",1.633025,rectangle
,,,,,,,,,,,,,FF,,,,,,,,1.784085,,,,,,,,,,,,,,,,,,,,,,6100987a26cc8c75ffe99d67,61036d956c80f4089f7f113f,2021-07-29_23h10.50.999,Simcolourproject_2stim_asymm_v5,2020.2.10,MacIntel,60,61025ae37ef11b136ea224fe,,,,,,,,,2759,50.1640625,68.70703125,1,0,0,response1disk,,7,10.578125,0.078125,1,0,0,rectangle,10.578125,0.078125,1,0,0,10.578125,0.078125,1,0,0,0,136,136,53,1,,,,,,,,
,,,,,,,,,,,,,FF,,,,,,,,1.451005,,,,,,,,,,,,,,,,,,,,,,6100987a26cc8c75ffe99d67,61036d956c80f4089f7f113f,2021-07-29_23h10.50.999,Simcolourproject_2stim_asymm_v5,2020.2.10,MacIntel,60,61025ae37ef11b136ea224fe,,,,,,,,,2604,105.6796875,35.49609375,1,0,0,response1disk,,6,5.10546875,-1.96484375,1,0,0,rectangle,5.10546875,-1.96484375,1,0,0,5.10546875,-1.96484375,1,0,0,0,137,137,67,1,,,,,,,,
,,,,,,,,,,,,,FF,,,,,,,,1.432215,,,,,,,,,,,,,,,,,,,,,,6100987a26cc8c75ffe99d67,61036d956c80f4089f7f113f,2021-07-29_23h10.50.999,Simcolourproject_2stim_asymm_v5,2020.2.10,MacIntel,60,61025ae37ef11b136ea224fe,,,,,,,,,97,52.0234375,-92.63671875,1,0,0,response3disk,,4,-11.828125,-0.4375,1,0,0,rectangle,-11.828125,-0.4375,1,0,0,-11.828125,-0.4375,1,0,0,0,138,138,135,1,,,,,,,,
,,,,,,,,,,,,,FF,,,,,,,,1.018025,,,,,,,,,,,,,,,,,,,,,,6100987a26cc8c75ffe99d67,61036d956c80f4089f7f113f,2021-07-29_23h10.50.999,Simcolourproject_2stim_asymm_v5,2020.2.10,MacIntel,60,61025ae37ef11b136ea224fe,,,,,,,,,268,36.44140625,80.65234375,1,0,0,response1disk,,7,-1.41015625,7.85546875,1,0,0,rectangle,-1.41015625,7.85546875,1,0,0,-1.41015625,7.85546875,1,0,0,0,139,139,141,1,,,,,,,,
,,,,,,,,,,,,,FF,,,,,,,,1.53406,,,,,,,,,,,,,,,,,,,,,,6100987a26cc8c75ffe99d67,61036d956c80f4089f7f113f,2021-07-29_23h10.50.999,Simcolourproject_2stim_asymm_v5,2020.2.10,MacIntel,60,61025ae37ef11b136ea224fe,,,,,,,,,3206,22.16015625,87.2890625,1,0,0,response1disk,,7,-9.08984375,0.1328125,1,0,0,rectangle,-43.078125,89.72265625,1,0,0,-11.48046875,0.8671875,1,0,0,0,140,140,81,1,,response7disk_3,TRUE,0,0,"[136,296,218,318,202,197,60,34,124,150,14,163,225,320,31,141,31,282,222,13]",1.649535,rectangle
,,,,,,,,,,,,,FF,,,,,,,,0.83325,,,,,,,,,,,,,,,,,,,,,,6100987a26cc8c75ffe99d67,61036d956c80f4089f7f113f,2021-07-29_23h10.50.999,Simcolourproject_2stim_asymm_v5,2020.2.10,MacIntel,60,61025ae37ef11b136ea224fe,,,,,,,,,3086,46.078125,95.625,1,0,0,response1disk,,7,-0.0625,4.33984375,1,0,0,rectangle,-0.0625,4.33984375,1,0,0,-0.0625,4.33984375,1,0,0,0,141,141,51,1,,,,,,,,
,,,,,,,,,,,,,FF,,,,,,,,0.683575,,,,,,,,,,,,,,,,,,,,,,6100987a26cc8c75ffe99d67,61036d956c80f4089f7f113f,2021-07-29_23h10.50.999,Simcolourproject_2stim_asymm_v5,2020.2.10,MacIntel,60,61025ae37ef11b136ea224fe,,,,,,,,,1558,42.60546875,78.875,1,0,0,response1disk,,7,-7.3125,-12.328125,1,0,0,rectangle,-7.3125,-12.328125,1,0,0,-7.3125,-12.328125,1,0,0,0,142,142,15,1,,,,,,,,
,,,,,,,,,,,,,FF,,,,,,,,1.083135,,,,,,,,,,,,,,,,,,,,,,6100987a26cc8c75ffe99d67,61036d956c80f4089f7f113f,2021-07-29_23h10.50.999,Simcolourproject_2stim_asymm_v5,2020.2.10,MacIntel,60,61025ae37ef11b136ea224fe,,,,,,,,,2188,89.52734375,40.4140625,1,0,0,response1disk,,6,9.0078125,-0.21484375,1,0,0,rectangle,9.0078125,-0.21484375,1,0,0,9.0078125,-0.21484375,1,0,0,0,143,143,134,1,,,,,,,,
,,,,,,,,,,,,,FF,,,,,,,,11.968535,,,,,,,,,,,,,,,,,,,,,,6100987a26cc8c75ffe99d67,61036d956c80f4089f7f113f,2021-07-29_23h10.50.999,Simcolourproject_2stim_asymm_v5,2020.2.10,MacIntel,60,61025ae37ef11b136ea224fe,,,,,,,,,1605,104.3320313,41.37109375,1,0,0,response1disk,,6,-0.1875,2.51953125,1,0,0,rectangle,-0.1875,2.51953125,1,0,0,-0.1875,2.51953125,1,0,0,0,144,144,7,1,,,,,,,,
,,,,,,,,,,,,,FF,,,,,,,,1.482105,,,,,,,,,,,,,,,,,,,,,,6100987a26cc8c75ffe99d67,61036d956c80f4089f7f113f,2021-07-29_23h10.50.999,Simcolourproject_2stim_asymm_v5,2020.2.10,MacIntel,60,61025ae37ef11b136ea224fe,,,,,,,,,610,96.34765625,49.3984375,1,0,0,response1disk,,6,-1.14453125,-16.2734375,1,0,0,rectangle,-1.14453125,-16.2734375,1,0,0,-1.14453125,-16.2734375,1,0,0,0,145,145,118,1,,,,,,,,
,,,,,,,,,,,,,FF,,,,,,,,1.53323,,,,,,,,,,,,,,,,,,,,,,6100987a26cc8c75ffe99d67,61036d956c80f4089f7f113f,2021-07-29_23h10.50.999,Simcolourproject_2stim_asymm_v5,2020.2.10,MacIntel,60,61025ae37ef11b136ea224fe,,,,,,,,,3474,-40.81640625,-110.2929688,1,0,0,response5disk,,3,-13.46484375,2.14453125,1,0,0,rectangle,-13.46484375,2.14453125,1,0,0,-13.46484375,2.14453125,1,0,0,0,146,146,20,1,,,,,,,,
,,,,,,,,,,,,,FF,,,,,,,,1.53356,,,,,,,,,,,,,,,,,,,,,,6100987a26cc8c75ffe99d67,61036d956c80f4089f7f113f,2021-07-29_23h10.50.999,Simcolourproject_2stim_asymm_v5,2020.2.10,MacIntel,60,61025ae37ef11b136ea224fe,,,,,,,,,1203,58.06640625,-94.38671875,1,0,0,response3disk,,4,16.4375,3.921875,1,0,0,rectangle,16.4375,3.921875,1,0,0,16.4375,3.921875,1,0,0,0,147,147,70,1,,,,,,,,
,,,,,,,,,,,,,FF,,,,,,,,0.68391,,,,,,,,,,,,,,,,,,,,,,6100987a26cc8c75ffe99d67,61036d956c80f4089f7f113f,2021-07-29_23h10.50.999,Simcolourproject_2stim_asymm_v5,2020.2.10,MacIntel,60,61025ae37ef11b136ea224fe,,,,,,,,,2709,33.06640625,97.33203125,1,0,0,response1disk,,7,0.76953125,-0.5078125,1,0,0,rectangle,0.76953125,-0.5078125,1,0,0,0.76953125,-0.5078125,1,0,0,0,148,148,92,1,,,,,,,,
,,,,,,,,,,,,,FF,,,,,,,,1.0346,,,,,,,,,,,,,,,,,,,,,,6100987a26cc8c75ffe99d67,61036d956c80f4089f7f113f,2021-07-29_23h10.50.999,Simcolourproject_2stim_asymm_v5,2020.2.10,MacIntel,60,61025ae37ef11b136ea224fe,,,,,,,,,976,90.70703125,33.48046875,1,0,0,response1disk,,6,-16.46484375,9.8671875,1,0,0,rectangle,107.890625,37.6484375,1,0,0,7.2734375,5.578125,1,0,0,0,149,149,79,1,,response1disk_3,TRUE,6,6,"[136,296,218,318,202,197,60,34,124,150,14,163,225,320,31,141,31,282,222,13]",1.816545,rectangle
,,,,,,,,,,,,,FF,,,,,,,,0.85096,,,,,,,,,,,,,,,,,,,,,,6100987a26cc8c75ffe99d67,61036d956c80f4089f7f113f,2021-07-29_23h10.50.999,Simcolourproject_2stim_asymm_v5,2020.2.10,MacIntel,60,61025ae37ef11b136ea224fe,,,,,,,,,3773,57.2734375,112.8320313,1,0,0,response1disk,,7,-2.44921875,-1.67578125,1,0,0,rectangle,-2.44921875,-1.67578125,1,0,0,-2.44921875,-1.67578125,1,0,0,0,150,150,11,1,,,,,,,,
,,,,,,,,,,,,,FF,,,,,,,,0.949645,,,,,,,,,,,,,,,,,,,,,,6100987a26cc8c75ffe99d67,61036d956c80f4089f7f113f,2021-07-29_23h10.50.999,Simcolourproject_2stim_asymm_v5,2020.2.10,MacIntel,60,61025ae37ef11b136ea224fe,,,,,,,,,256,100.3320313,46.24609375,1,0,0,response1disk,,6,2.8828125,4.578125,1,0,0,rectangle,2.8828125,4.578125,1,0,0,2.8828125,4.578125,1,0,0,0,151,151,1,1,,,,,,,,
,,,,,,,,,,,,,FF,,,,,,,,1.15124,,,,,,,,,,,,,,,,,,,,,,6100987a26cc8c75ffe99d67,61036d956c80f4089f7f113f,2021-07-29_23h10.50.999,Simcolourproject_2stim_asymm_v5,2020.2.10,MacIntel,60,61025ae37ef11b136ea224fe,,,,,,,,,1373,97.6796875,48.19140625,1,0,0,response1disk,,6,9.5625,3.703125,1,0,0,rectangle,9.5625,3.703125,1,0,0,9.5625,3.703125,1,0,0,0,152,152,39,1,,,,,,,,
,,,,,,,,,,,,,FF,,,,,,,,0.73361,,,,,,,,,,,,,,,,,,,,,,6100987a26cc8c75ffe99d67,61036d956c80f4089f7f113f,2021-07-29_23h10.50.999,Simcolourproject_2stim_asymm_v5,2020.2.10,MacIntel,60,61025ae37ef11b136ea224fe,,,,,,,,,3267,47.4140625,102.5,1,0,0,response1disk,,7,0.92578125,-1.5078125,1,0,0,rectangle,0.92578125,-1.5078125,1,0,0,0.92578125,-1.5078125,1,0,0,0,153,153,76,1,,,,,,,,
,,,,,,,,,,,,,FF,,,,,,,,0.78292,,,,,,,,,,,,,,,,,,,,,,6100987a26cc8c75ffe99d67,61036d956c80f4089f7f113f,2021-07-29_23h10.50.999,Simcolourproject_2stim_asymm_v5,2020.2.10,MacIntel,60,61025ae37ef11b136ea224fe,,,,,,,,,4312,43.94140625,102.109375,1,0,0,response1disk,,7,-13.703125,-6.14453125,1,0,0,rectangle,-13.703125,-6.14453125,1,0,0,-13.703125,-6.14453125,1,0,0,0,154,154,69,1,,,,,,,,
,,,,,,,,,,,,,FF,,,,,,,,0.732655,,,,,,,,,,,,,,,,,,,,,,6100987a26cc8c75ffe99d67,61036d956c80f4089f7f113f,2021-07-29_23h10.50.999,Simcolourproject_2stim_asymm_v5,2020.2.10,MacIntel,60,61025ae37ef11b136ea224fe,,,,,,,,,4243,41.81640625,81.9296875,1,0,0,response1disk,,7,3.2734375,9.7421875,1,0,0,rectangle,3.2734375,9.7421875,1,0,0,3.2734375,9.7421875,1,0,0,0,155,155,23,1,,,,,,,,
,,,,,,,,,,,,,FF,,,,,,,,3.31706,,,,,,,,,,,,,,,,,,,,,,6100987a26cc8c75ffe99d67,61036d956c80f4089f7f113f,2021-07-29_23h10.50.999,Simcolourproject_2stim_asymm_v5,2020.2.10,MacIntel,60,61025ae37ef11b136ea224fe,,,,,,,,,3829,26.8828125,58.92578125,1,0,0,response1disk,,7,3.96484375,1.6328125,1,0,0,rectangle,3.96484375,1.6328125,1,0,0,3.96484375,1.6328125,1,0,0,0,156,156,102,1,,,,,,,,
,,,,,,,,,,,,,FF,,,,,,,,0.883115,,,,,,,,,,,,,,,,,,,,,,6100987a26cc8c75ffe99d67,61036d956c80f4089f7f113f,2021-07-29_23h10.50.999,Simcolourproject_2stim_asymm_v5,2020.2.10,MacIntel,60,61025ae37ef11b136ea224fe,,,,,,,,,376,39.6484375,81.84375,1,0,0,response1disk,,7,2.1875,-2.83984375,1,0,0,rectangle,2.1875,-2.83984375,1,0,0,2.1875,-2.83984375,1,0,0,0,157,157,142,1,,,,,,,,
,,,,,,,,,,,,,FF,,,,,,,,1.250095,,,,,,,,,,,,,,,,,,,,,,6100987a26cc8c75ffe99d67,61036d956c80f4089f7f113f,2021-07-29_23h10.50.999,Simcolourproject_2stim_asymm_v5,2020.2.10,MacIntel,60,61025ae37ef11b136ea224fe,,,,,,,,,3782,-57.1484375,-98.90234375,1,0,0,response5disk,,3,-12.046875,1.6328125,1,0,0,rectangle,-12.046875,1.6328125,1,0,0,-12.046875,1.6328125,1,0,0,0,158,158,130,1,,,,,,,,
,,,,,,,,,,,,,FF,,,,,,,,1.33472,,,,,,,,,,,,,,,,,,,,,,6100987a26cc8c75ffe99d67,61036d956c80f4089f7f113f,2021-07-29_23h10.50.999,Simcolourproject_2stim_asymm_v5,2020.2.10,MacIntel,60,61025ae37ef11b136ea224fe,,,,,,,,,2047,90.38671875,37.05078125,1,0,0,response1disk,,6,-10.23046875,6.8828125,1,0,0,rectangle,-10.23046875,6.8828125,1,0,0,-10.23046875,6.8828125,1,0,0,0,159,159,35,1,,,,,,,,
,,,,,,,,,,,,,FF,,,,,,,,0.73357,,,,,,,,,,,,,,,,,,,,,,6100987a26cc8c75ffe99d67,61036d956c80f4089f7f113f,2021-07-29_23h10.50.999,Simcolourproject_2stim_asymm_v5,2020.2.10,MacIntel,60,61025ae37ef11b136ea224fe,,,,,,,,,1658,31.09375,68.30078125,1,0,0,response1disk,,7,-1.16015625,-5.3125,1,0,0,rectangle,-1.16015625,-5.3125,1,0,0,-1.16015625,-5.3125,1,0,0,1,0,160,90,1,,,,,,,,
,,,,,,,,,,,,,FF,,,,,,,,0.99873,,,,,,,,,,,,,,,,,,,,,,6100987a26cc8c75ffe99d67,61036d956c80f4089f7f113f,2021-07-29_23h10.50.999,Simcolourproject_2stim_asymm_v5,2020.2.10,MacIntel,60,61025ae37ef11b136ea224fe,,,,,,,,,3743,-45.91015625,-97.984375,1,0,0,response5disk,,3,-17.4375,-5.35546875,1,0,0,rectangle,-17.4375,-5.35546875,1,0,0,-17.4375,-5.35546875,1,0,0,1,1,161,98,1,,,,,,,,
,,,,,,,,,,,,,FF,,,,,,,,1.315445,,,,,,,,,,,,,,,,,,,,,,6100987a26cc8c75ffe99d67,61036d956c80f4089f7f113f,2021-07-29_23h10.50.999,Simcolourproject_2stim_asymm_v5,2020.2.10,MacIntel,60,61025ae37ef11b136ea224fe,,,,,,,,,3343,-85.84375,-37.85546875,1,0,0,response5disk,,2,-12.66015625,0.94921875,1,0,0,rectangle,-44.60546875,-100.7929688,1,0,0,1.23046875,-8.6328125,1,0,0,1,2,162,62,1,,response5disk_3,TRUE,3,3,"[136,296,218,318,202,197,60,34,124,150,14,163,225,320,31,141,31,282,222,13]",1.48191,rectangle
,,,,,,,,,,,,,FF,,,,,,,,0.850365,,,,,,,,,,,,,,,,,,,,,,6100987a26cc8c75ffe99d67,61036d956c80f4089f7f113f,2021-07-29_23h10.50.999,Simcolourproject_2stim_asymm_v5,2020.2.10,MacIntel,60,61025ae37ef11b136ea224fe,,,,,,,,,1668,45.33203125,90.2890625,1,0,0,response1disk,,7,11.30078125,-4.99609375,1,0,0,rectangle,11.30078125,-4.99609375,1,0,0,11.30078125,-4.99609375,1,0,0,1,3,163,80,1,,,,,,,,
,,,,,,,,,,,,,FF,,,,,,,,2.016495,,,,,,,,,,,,,,,,,,,,,,6100987a26cc8c75ffe99d67,61036d956c80f4089f7f113f,2021-07-29_23h10.50.999,Simcolourproject_2stim_asymm_v5,2020.2.10,MacIntel,60,61025ae37ef11b136ea224fe,,,,,,,,,3975,50.109375,96.875,1,0,0,response1disk,,7,0.453125,-13.8984375,1,0,0,rectangle,0.453125,-13.8984375,1,0,0,0.453125,-13.8984375,1,0,0,1,4,164,143,1,,,,,,,,
,,,,,,,,,,,,,FF,,,,,,,,0.966515,,,,,,,,,,,,,,,,,,,,,,6100987a26cc8c75ffe99d67,61036d956c80f4089f7f113f,2021-07-29_23h10.50.999,Simcolourproject_2stim_asymm_v5,2020.2.10,MacIntel,60,61025ae37ef11b136ea224fe,,,,,,,,,654,18.8125,52.30078125,1,0,0,response1disk,,7,-11.7421875,-8.078125,1,0,0,rectangle,-11.7421875,-8.078125,1,0,0,-11.7421875,-8.078125,1,0,0,1,5,165,116,1,,,,,,,,
,,,,,,,,,,,,,FF,,,,,,,,1.0672,,,,,,,,,,,,,,,,,,,,,,6100987a26cc8c75ffe99d67,61036d956c80f4089f7f113f,2021-07-29_23h10.50.999,Simcolourproject_2stim_asymm_v5,2020.2.10,MacIntel,60,61025ae37ef11b136ea224fe,,,,,,,,,3255,97.984375,52.34375,1,0,0,response1disk,,6,-16.51953125,-4.99609375,1,0,0,rectangle,-16.51953125,-4.99609375,1,0,0,-16.51953125,-4.99609375,1,0,0,1,6,166,96,1,,,,,,,,
,,,,,,,,,,,,,FF,,,,,,,,1.384215,,,,,,,,,,,,,,,,,,,,,,6100987a26cc8c75ffe99d67,61036d956c80f4089f7f113f,2021-07-29_23h10.50.999,Simcolourproject_2stim_asymm_v5,2020.2.10,MacIntel,60,61025ae37ef11b136ea224fe,,,,,,,,,439,71.2890625,24.5625,1,0,0,response1disk,,6,13.3828125,1.296875,1,0,0,rectangle,13.3828125,1.296875,1,0,0,13.3828125,1.296875,1,0,0,1,7,167,130,1,,,,,,,,
,,,,,,,,,,,,,FF,,,,,,,,0.915795,,,,,,,,,,,,,,,,,,,,,,6100987a26cc8c75ffe99d67,61036d956c80f4089f7f113f,2021-07-29_23h10.50.999,Simcolourproject_2stim_asymm_v5,2020.2.10,MacIntel,60,61025ae37ef11b136ea224fe,,,,,,,,,2790,96.33203125,32.46484375,1,0,0,response1disk,,6,1.703125,0.4765625,1,0,0,rectangle,1.703125,0.4765625,1,0,0,1.703125,0.4765625,1,0,0,1,8,168,8,1,,,,,,,,
,,,,,,,,,,,,,FF,,,,,,,,0.750085,,,,,,,,,,,,,,,,,,,,,,6100987a26cc8c75ffe99d67,61036d956c80f4089f7f113f,2021-07-29_23h10.50.999,Simcolourproject_2stim_asymm_v5,2020.2.10,MacIntel,60,61025ae37ef11b136ea224fe,,,,,,,,,2659,31.9140625,96.15234375,1,0,0,response1disk,,7,4.87109375,1.4375,1,0,0,rectangle,4.87109375,1.4375,1,0,0,4.87109375,1.4375,1,0,0,1,9,169,114,1,,,,,,,,
,,,,,,,,,,,,,FF,,,,,,,,0.833715,,,,,,,,,,,,,,,,,,,,,,6100987a26cc8c75ffe99d67,61036d956c80f4089f7f113f,2021-07-29_23h10.50.999,Simcolourproject_2stim_asymm_v5,2020.2.10,MacIntel,60,61025ae37ef11b136ea224fe,,,,,,,,,830,48.96875,81.609375,1,0,0,response1disk,,7,-1.421875,2.046875,1,0,0,rectangle,-1.421875,2.046875,1,0,0,-1.421875,2.046875,1,0,0,1,10,170,33,1,,,,,,,,
,,,,,,,,,,,,,FF,,,,,,,,1.78343,,,,,,,,,,,,,,,,,,,,,,6100987a26cc8c75ffe99d67,61036d956c80f4089f7f113f,2021-07-29_23h10.50.999,Simcolourproject_2stim_asymm_v5,2020.2.10,MacIntel,60,61025ae37ef11b136ea224fe,,,,,,,,,2676,92.984375,-49.26171875,1,0,0,response3disk,,5,0.6171875,0.7421875,1,0,0,rectangle,0.6171875,0.7421875,1,0,0,0.6171875,0.7421875,1,0,0,1,11,171,16,1,,,,,,,,
,,,,,,,,,,,,,FF,,,,,,,,0.849885,,,,,,,,,,,,,,,,,,,,,,6100987a26cc8c75ffe99d67,61036d956c80f4089f7f113f,2021-07-29_23h10.50.999,Simcolourproject_2stim_asymm_v5,2020.2.10,MacIntel,60,61025ae37ef11b136ea224fe,,,,,,,,,3562,95.6796875,-31.8984375,1,0,0,response3disk,,5,-5.98046875,0.00390625,1,0,0,rectangle,-5.98046875,0.00390625,1,0,0,-5.98046875,0.00390625,1,0,0,1,12,172,64,1,,,,,,,,
,,,,,,,,,,,,,FF,,,,,,,,0.915335,,,,,,,,,,,,,,,,,,,,,,6100987a26cc8c75ffe99d67,61036d956c80f4089f7f113f,2021-07-29_23h10.50.999,Simcolourproject_2stim_asymm_v5,2020.2.10,MacIntel,60,61025ae37ef11b136ea224fe,,,,,,,,,3547,96.0703125,-42.359375,1,0,0,response3disk,,5,-4.16015625,-6.24609375,1,0,0,rectangle,-4.16015625,-6.24609375,1,0,0,-4.16015625,-6.24609375,1,0,0,1,13,173,60,1,,,,,,,,
,,,,,,,,,,,,,FF,,,,,,,,1.015605,,,,,,,,,,,,,,,,,,,,,,6100987a26cc8c75ffe99d67,61036d956c80f4089f7f113f,2021-07-29_23h10.50.999,Simcolourproject_2stim_asymm_v5,2020.2.10,MacIntel,60,61025ae37ef11b136ea224fe,,,,,,,,,461,105.75,28.78515625,1,0,0,response1disk,,6,11.3828125,4.91015625,1,0,0,rectangle,11.3828125,4.91015625,1,0,0,11.3828125,4.91015625,1,0,0,1,14,174,57,1,,,,,,,,
,,,,,,,,,,,,,FF,,,,,,,,1.366625,,,,,,,,,,,,,,,,,,,,,,6100987a26cc8c75ffe99d67,61036d956c80f4089f7f113f,2021-07-29_23h10.50.999,Simcolourproject_2stim_asymm_v5,2020.2.10,MacIntel,60,61025ae37ef11b136ea224fe,,,,,,,,,4031,35.44140625,64.55078125,1,0,0,response1disk,,7,-1.671875,13.85546875,1,0,0,rectangle,-1.671875,13.85546875,1,0,0,-1.671875,13.85546875,1,0,0,1,15,175,99,1,,,,,,,,
,,,,,,,,,,,,,FF,,,,,,,,0.68345,,,,,,,,,,,,,,,,,,,,,,6100987a26cc8c75ffe99d67,61036d956c80f4089f7f113f,2021-07-29_23h10.50.999,Simcolourproject_2stim_asymm_v5,2020.2.10,MacIntel,60,61025ae37ef11b136ea224fe,,,,,,,,,1245,42.42578125,68.67578125,1,0,0,response1disk,,7,-6.4921875,-4.24609375,1,0,0,rectangle,-6.4921875,-4.24609375,1,0,0,-6.4921875,-4.24609375,1,0,0,1,16,176,142,1,,,,,,,,
,,,,,,,,,,,,,FF,,,,,,,,0.617745,,,,,,,,,,,,,,,,,,,,,,6100987a26cc8c75ffe99d67,61036d956c80f4089f7f113f,2021-07-29_23h10.50.999,Simcolourproject_2stim_asymm_v5,2020.2.10,MacIntel,60,61025ae37ef11b136ea224fe,,,,,,,,,2569,28.92578125,66.55078125,1,0,0,response1disk,,7,0.80078125,6.5625,1,0,0,rectangle,0.80078125,6.5625,1,0,0,0.80078125,6.5625,1,0,0,1,17,177,2,1,,,,,,,,
,,,,,,,,,,,,,FF,,,,,,,,0.733165,,,,,,,,,,,,,,,,,,,,,,6100987a26cc8c75ffe99d67,61036d956c80f4089f7f113f,2021-07-29_23h10.50.999,Simcolourproject_2stim_asymm_v5,2020.2.10,MacIntel,60,61025ae37ef11b136ea224fe,,,,,,,,,825,46.2890625,75.5390625,1,0,0,response1disk,,7,3.92578125,5.08984375,1,0,0,rectangle,3.92578125,5.08984375,1,0,0,3.92578125,5.08984375,1,0,0,1,18,178,40,1,,,,,,,,
,,,,,,,,,,,,,FF,,,,,,,,0.6668,,,,,,,,,,,,,,,,,,,,,,6100987a26cc8c75ffe99d67,61036d956c80f4089f7f113f,2021-07-29_23h10.50.999,Simcolourproject_2stim_asymm_v5,2020.2.10,MacIntel,60,61025ae37ef11b136ea224fe,,,,,,,,,1414,42.46875,96.6796875,1,0,0,response1disk,,7,6.703125,4.3515625,1,0,0,rectangle,6.703125,4.3515625,1,0,0,6.703125,4.3515625,1,0,0,1,19,179,145,1,,,,,,,,
,,,,,,,,,,,,,FF,,,,,,,,1.265625,,,,,,,,,,,,,,,,,,,,,,6100987a26cc8c75ffe99d67,61036d956c80f4089f7f113f,2021-07-29_23h10.50.999,Simcolourproject_2stim_asymm_v5,2020.2.10,MacIntel,60,61025ae37ef11b136ea224fe,,,,,,,,,2334,52.5390625,84.5234375,1,0,0,response1disk,,7,6.74609375,8.296875,1,0,0,rectangle,6.74609375,8.296875,1,0,0,6.74609375,8.296875,1,0,0,1,20,180,132,1,,,,,,,,
,,,,,,,,,,,,,FF,,,,,,,,1.218245,,,,,,,,,,,,,,,,,,,,,,6100987a26cc8c75ffe99d67,61036d956c80f4089f7f113f,2021-07-29_23h10.50.999,Simcolourproject_2stim_asymm_v5,2020.2.10,MacIntel,60,61025ae37ef11b136ea224fe,,,,,,,,,1533,108.8359375,-54.63671875,1,0,0,response3disk,,5,3.828125,-0.46875,1,0,0,rectangle,3.828125,-0.46875,1,0,0,3.828125,-0.46875,1,0,0,1,21,181,131,1,,,,,,,,
,,,,,,,,,,,,,FF,,,,,,,,15.31813,,,,,,,,,,,,,,,,,,,,,,6100987a26cc8c75ffe99d67,61036d956c80f4089f7f113f,2021-07-29_23h10.50.999,Simcolourproject_2stim_asymm_v5,2020.2.10,MacIntel,60,61025ae37ef11b136ea224fe,,,,,,,,,3863,90.125,32.8671875,1,0,0,response1disk,,6,-3.6328125,3.046875,1,0,0,rectangle,-3.6328125,3.046875,1,0,0,-3.6328125,3.046875,1,0,0,1,22,182,71,1,,,,,,,,
,,,,,,,,,,,,,FF,,,,,,,,1.1156,,,,,,,,,,,,,,,,,,,,,,6100987a26cc8c75ffe99d67,61036d956c80f4089f7f113f,2021-07-29_23h10.50.999,Simcolourproject_2stim_asymm_v5,2020.2.10,MacIntel,60,61025ae37ef11b136ea224fe,,,,,,,,,1601,55.70703125,-80.59765625,1,0,0,response3disk,,4,8.953125,2.69921875,1,0,0,rectangle,8.953125,2.69921875,1,0,0,8.953125,2.69921875,1,0,0,1,23,183,93,1,,,,,,,,
,,,,,,,,,,,,,FF,,,,,,,,0.815575,,,,,,,,,,,,,,,,,,,,,,6100987a26cc8c75ffe99d67,61036d956c80f4089f7f113f,2021-07-29_23h10.50.999,Simcolourproject_2stim_asymm_v5,2020.2.10,MacIntel,60,61025ae37ef11b136ea224fe,,,,,,,,,291,105.4882813,-57.02734375,1,0,0,response3disk,,5,8.6484375,5.12890625,1,0,0,rectangle,8.6484375,5.12890625,1,0,0,8.6484375,5.12890625,1,0,0,1,24,184,6,1,,,,,,,,
,,,,,,,,,,,,,FF,,,,,,,,0.81612,,,,,,,,,,,,,,,,,,,,,,6100987a26cc8c75ffe99d67,61036d956c80f4089f7f113f,2021-07-29_23h10.50.999,Simcolourproject_2stim_asymm_v5,2020.2.10,MacIntel,60,61025ae37ef11b136ea224fe,,,,,,,,,3211,94.375,-34.109375,1,0,0,response3disk,,5,0.1328125,14.3828125,1,0,0,rectangle,0.1328125,14.3828125,1,0,0,0.1328125,14.3828125,1,0,0,1,25,185,137,1,,,,,,,,
,,,,,,,,,,,,,FF,,,,,,,,0.700225,,,,,,,,,,,,,,,,,,,,,,6100987a26cc8c75ffe99d67,61036d956c80f4089f7f113f,2021-07-29_23h10.50.999,Simcolourproject_2stim_asymm_v5,2020.2.10,MacIntel,60,61025ae37ef11b136ea224fe,,,,,,,,,1490,45.5390625,86.26171875,1,0,0,response1disk,,7,15.37109375,4.08984375,1,0,0,rectangle,15.37109375,4.08984375,1,0,0,15.37109375,4.08984375,1,0,0,1,26,186,144,1,,,,,,,,
,,,,,,,,,,,,,FF,,,,,,,,1.167815,,,,,,,,,,,,,,,,,,,,,,6100987a26cc8c75ffe99d67,61036d956c80f4089f7f113f,2021-07-29_23h10.50.999,Simcolourproject_2stim_asymm_v5,2020.2.10,MacIntel,60,61025ae37ef11b136ea224fe,,,,,,,,,2089,48.359375,83.9140625,1,0,0,response1disk,,7,21.2734375,17.98046875,1,0,0,rectangle,21.2734375,17.98046875,1,0,0,21.2734375,17.98046875,1,0,0,1,27,187,85,1,,,,,,,,
,,,,,,,,,,,,,FF,,,,,,,,0.6501,,,,,,,,,,,,,,,,,,,,,,6100987a26cc8c75ffe99d67,61036d956c80f4089f7f113f,2021-07-29_23h10.50.999,Simcolourproject_2stim_asymm_v5,2020.2.10,MacIntel,60,61025ae37ef11b136ea224fe,,,,,,,,,3186,38.984375,92.2890625,1,0,0,response1disk,,7,10.5078125,7.33984375,1,0,0,rectangle,10.5078125,7.33984375,1,0,0,10.5078125,7.33984375,1,0,0,1,28,188,78,1,,,,,,,,
,,,,,,,,,,,,,FF,,,,,,,,1.416925,,,,,,,,,,,,,,,,,,,,,,6100987a26cc8c75ffe99d67,61036d956c80f4089f7f113f,2021-07-29_23h10.50.999,Simcolourproject_2stim_asymm_v5,2020.2.10,MacIntel,60,61025ae37ef11b136ea224fe,,,,,,,,,762,59.859375,88.51171875,1,0,0,response1disk,,7,6.3828125,-5.203125,1,0,0,rectangle,6.3828125,-5.203125,1,0,0,6.3828125,-5.203125,1,0,0,1,29,189,72,1,,,,,,,,
,,,,,,,,,,,,,FF,,,,,,,,0.967005,,,,,,,,,,,,,,,,,,,,,,6100987a26cc8c75ffe99d67,61036d956c80f4089f7f113f,2021-07-29_23h10.50.999,Simcolourproject_2stim_asymm_v5,2020.2.10,MacIntel,60,61025ae37ef11b136ea224fe,,,,,,,,,4344,-53.5234375,101.3164063,1,0,0,response7disk,,0,11.71875,-2.5078125,1,0,0,rectangle,11.71875,-2.5078125,1,0,0,11.71875,-2.5078125,1,0,0,1,30,190,101,1,,,,,,,,
,,,,,,,,,,,,,FF,,,,,,,,0.900485,,,,,,,,,,,,,,,,,,,,,,6100987a26cc8c75ffe99d67,61036d956c80f4089f7f113f,2021-07-29_23h10.50.999,Simcolourproject_2stim_asymm_v5,2020.2.10,MacIntel,60,61025ae37ef11b136ea224fe,,,,,,,,,3224,45.359375,85.30078125,1,0,0,response1disk,,7,-0.7421875,-1.7734375,1,0,0,rectangle,-0.7421875,-1.7734375,1,0,0,-0.7421875,-1.7734375,1,0,0,1,31,191,5,1,,,,,,,,
,,,,,,,,,,,,,FF,,,,,,,,0.917025,,,,,,,,,,,,,,,,,,,,,,6100987a26cc8c75ffe99d67,61036d956c80f4089f7f113f,2021-07-29_23h10.50.999,Simcolourproject_2stim_asymm_v5,2020.2.10,MacIntel,60,61025ae37ef11b136ea224fe,,,,,,,,,1395,38.71875,73.92578125,1,0,0,response1disk,,7,6.46875,0.046875,1,0,0,rectangle,6.46875,0.046875,1,0,0,6.46875,0.046875,1,0,0,1,32,192,28,1,,,,,,,,
,,,,,,,,,,,,,FF,,,,,,,,1.032865,,,,,,,,,,,,,,,,,,,,,,6100987a26cc8c75ffe99d67,61036d956c80f4089f7f113f,2021-07-29_23h10.50.999,Simcolourproject_2stim_asymm_v5,2020.2.10,MacIntel,60,61025ae37ef11b136ea224fe,,,,,,,,,373,98.40234375,32.953125,1,0,0,response1disk,,6,16.84375,5.91015625,1,0,0,rectangle,16.84375,5.91015625,1,0,0,16.84375,5.91015625,1,0,0,1,33,193,147,1,,,,,,,,
,,,,,,,,,,,,,FF,,,,,,,,1.1822,,,,,,,,,,,,,,,,,,,,,,6100987a26cc8c75ffe99d67,61036d956c80f4089f7f113f,2021-07-29_23h10.50.999,Simcolourproject_2stim_asymm_v5,2020.2.10,MacIntel,60,61025ae37ef11b136ea224fe,,,,,,,,,4122,25.56640625,85.08203125,1,0,0,response1disk,,7,-17.10546875,-12.10546875,1,0,0,rectangle,-17.10546875,-12.10546875,1,0,0,-17.10546875,-12.10546875,1,0,0,1,34,194,44,1,,,,,,,,
,,,,,,,,,,,,,FF,,,,,,,,0.983325,,,,,,,,,,,,,,,,,,,,,,6100987a26cc8c75ffe99d67,61036d956c80f4089f7f113f,2021-07-29_23h10.50.999,Simcolourproject_2stim_asymm_v5,2020.2.10,MacIntel,60,61025ae37ef11b136ea224fe,,,,,,,,,3836,81.8203125,44.41015625,1,0,0,response1disk,,6,2.42578125,10.546875,1,0,0,rectangle,2.42578125,10.546875,1,0,0,2.42578125,10.546875,1,0,0,1,35,195,54,1,,,,,,,,
,,,,,,,,,,,,,FF,,,,,,,,1.350205,,,,,,,,,,,,,,,,,,,,,,6100987a26cc8c75ffe99d67,61036d956c80f4089f7f113f,2021-07-29_23h10.50.999,Simcolourproject_2stim_asymm_v5,2020.2.10,MacIntel,60,61025ae37ef11b136ea224fe,,,,,,,,,3466,91.9296875,38.6328125,1,0,0,response1disk,,6,-5.94921875,-0.60546875,1,0,0,rectangle,101.3046875,49.66015625,1,0,0,0.30078125,-2.7734375,1,0,0,1,36,196,53,1,,response1disk_3,TRUE,6,6,"[136,296,218,318,202,197,60,34,124,150,14,163,225,320,31,141,31,282,222,13]",1.45096,rectangle
,,,,,,,,,,,,,FF,,,,,,,,2.26716,,,,,,,,,,,,,,,,,,,,,,6100987a26cc8c75ffe99d67,61036d956c80f4089f7f113f,2021-07-29_23h10.50.999,Simcolourproject_2stim_asymm_v5,2020.2.10,MacIntel,60,61025ae37ef11b136ea224fe,,,,,,,,,2152,41.84375,-63.9296875,1,0,0,response3disk,,4,-2.25390625,15.85546875,1,0,0,rectangle,-2.25390625,15.85546875,1,0,0,-2.25390625,15.85546875,1,0,0,1,37,197,127,1,,,,,,,,
,,,,,,,,,,,,,FF,,,,,,,,1.650655,,,,,,,,,,,,,,,,,,,,,,6100987a26cc8c75ffe99d67,61036d956c80f4089f7f113f,2021-07-29_23h10.50.999,Simcolourproject_2stim_asymm_v5,2020.2.10,MacIntel,60,61025ae37ef11b136ea224fe,,,,,,,,,3739,58.46875,77.31640625,1,0,0,response1disk,,7,-12.98046875,15.58984375,1,0,0,rectangle,-12.98046875,15.58984375,1,0,0,-12.98046875,15.58984375,1,0,0,1,38,198,76,1,,,,,,,,
,,,,,,,,,,,,,FF,,,,,,,,0.98511,,,,,,,,,,,,,,,,,,,,,,6100987a26cc8c75ffe99d67,61036d956c80f4089f7f113f,2021-07-29_23h10.50.999,Simcolourproject_2stim_asymm_v5,2020.2.10,MacIntel,60,61025ae37ef11b136ea224fe,,,,,,,,,1107,33.203125,94.76171875,1,0,0,response1disk,,7,5.42578125,12.9375,1,0,0,rectangle,5.42578125,12.9375,1,0,0,5.42578125,12.9375,1,0,0,1,39,199,140,1,,,,,,,,
,,,,,,,,,,,,,FF,,,,,,,,1.08404,,,,,,,,,,,,,,,,,,,,,,6100987a26cc8c75ffe99d67,61036d956c80f4089f7f113f,2021-07-29_23h10.50.999,Simcolourproject_2stim_asymm_v5,2020.2.10,MacIntel,60,61025ae37ef11b136ea224fe,,,,,,,,,633,87.33203125,-39.453125,1,0,0,response3disk,,5,-3.08984375,0.4375,1,0,0,rectangle,-3.08984375,0.4375,1,0,0,-3.08984375,0.4375,1,0,0,1,40,200,38,1,,,,,,,,
,,,,,,,,,,,,,FF,,,,,,,,0.816595,,,,,,,,,,,,,,,,,,,,,,6100987a26cc8c75ffe99d67,61036d956c80f4089f7f113f,2021-07-29_23h10.50.999,Simcolourproject_2stim_asymm_v5,2020.2.10,MacIntel,60,61025ae37ef11b136ea224fe,,,,,,,,,2312,32.67578125,86.20703125,1,0,0,response1disk,,7,-4.4375,7.07421875,1,0,0,rectangle,-44.0234375,-94.58203125,1,0,0,8.06640625,10.85546875,1,0,0,1,41,201,95,1,,response5disk_3,TRUE,3,3,"[136,296,218,318,202,197,60,34,124,150,14,163,225,320,31,141,31,282,222,13]",1.500245,rectangle
,,,,,,,,,,,,,FF,,,,,,,,1.217135,,,,,,,,,,,,,,,,,,,,,,6100987a26cc8c75ffe99d67,61036d956c80f4089f7f113f,2021-07-29_23h10.50.999,Simcolourproject_2stim_asymm_v5,2020.2.10,MacIntel,60,61025ae37ef11b136ea224fe,,,,,,,,,3129,41.3984375,78.21875,1,0,0,response1disk,,7,3.55078125,5.6875,1,0,0,rectangle,3.55078125,5.6875,1,0,0,3.55078125,5.6875,1,0,0,1,42,202,17,1,,,,,,,,
,,,,,,,,,,,,,FF,,,,,,,,2.300485,,,,,,,,,,,,,,,,,,,,,,6100987a26cc8c75ffe99d67,61036d956c80f4089f7f113f,2021-07-29_23h10.50.999,Simcolourproject_2stim_asymm_v5,2020.2.10,MacIntel,60,61025ae37ef11b136ea224fe,,,,,,,,,4307,33.4140625,71.92578125,1,0,0,response1disk,,7,-4.78515625,-2.33984375,1,0,0,rectangle,-4.78515625,-2.33984375,1,0,0,-4.78515625,-2.33984375,1,0,0,1,43,203,68,1,,,,,,,,
,,,,,,,,,,,,,FF,,,,,,,,1.365485,,,,,,,,,,,,,,,,,,,,,,6100987a26cc8c75ffe99d67,61036d956c80f4089f7f113f,2021-07-29_23h10.50.999,Simcolourproject_2stim_asymm_v5,2020.2.10,MacIntel,60,61025ae37ef11b136ea224fe,,,,,,,,,89,-47.41015625,-70.83203125,1,0,0,response5disk,,3,-4.3515625,9.171875,1,0,0,rectangle,-4.3515625,9.171875,1,0,0,-4.3515625,9.171875,1,0,0,1,44,204,141,1,,,,,,,,
,,,,,,,,,,,,,FF,,,,,,,,0.90038,,,,,,,,,,,,,,,,,,,,,,6100987a26cc8c75ffe99d67,61036d956c80f4089f7f113f,2021-07-29_23h10.50.999,Simcolourproject_2stim_asymm_v5,2020.2.10,MacIntel,60,61025ae37ef11b136ea224fe,,,,,,,,,2913,33.06640625,67.46875,1,0,0,response1disk,,7,6.37109375,8.12890625,1,0,0,rectangle,6.37109375,8.12890625,1,0,0,6.37109375,8.12890625,1,0,0,1,45,205,48,1,,,,,,,,
,,,,,,,,,,,,,FF,,,,,,,,1.333875,,,,,,,,,,,,,,,,,,,,,,6100987a26cc8c75ffe99d67,61036d956c80f4089f7f113f,2021-07-29_23h10.50.999,Simcolourproject_2stim_asymm_v5,2020.2.10,MacIntel,60,61025ae37ef11b136ea224fe,,,,,,,,,484,89.70703125,28.6171875,1,0,0,response1disk,,6,0.55078125,16.19921875,1,0,0,rectangle,0.55078125,16.19921875,1,0,0,0.55078125,16.19921875,1,0,0,1,46,206,87,1,,,,,,,,
,,,,,,,,,,,,,FF,,,,,,,,0.9851,,,,,,,,,,,,,,,,,,,,,,6100987a26cc8c75ffe99d67,61036d956c80f4089f7f113f,2021-07-29_23h10.50.999,Simcolourproject_2stim_asymm_v5,2020.2.10,MacIntel,60,61025ae37ef11b136ea224fe,,,,,,,,,3727,41.56640625,72.76171875,1,0,0,response1disk,,7,9.2734375,-2.328125,1,0,0,rectangle,9.2734375,-2.328125,1,0,0,9.2734375,-2.328125,1,0,0,1,47,207,126,1,,,,,,,,
,,,,,,,,,,,,,FF,,,,,,,,0.766705,,,,,,,,,,,,,,,,,,,,,,6100987a26cc8c75ffe99d67,61036d956c80f4089f7f113f,2021-07-29_23h10.50.999,Simcolourproject_2stim_asymm_v5,2020.2.10,MacIntel,60,61025ae37ef11b136ea224fe,,,,,,,,,1130,41.9140625,89.21875,1,0,0,response1disk,,7,-5.3125,-14.56640625,1,0,0,rectangle,-5.3125,-14.56640625,1,0,0,-5.3125,-14.56640625,1,0,0,1,48,208,15,1,,,,,,,,
,,,,,,,,,,,,,FF,,,,,,,,1.033665,,,,,,,,,,,,,,,,,,,,,,6100987a26cc8c75ffe99d67,61036d956c80f4089f7f113f,2021-07-29_23h10.50.999,Simcolourproject_2stim_asymm_v5,2020.2.10,MacIntel,60,61025ae37ef11b136ea224fe,,,,,,,,,2189,42.609375,72.46875,1,0,0,response1disk,,7,-6.69921875,-0.1484375,1,0,0,rectangle,-6.69921875,-0.1484375,1,0,0,-6.69921875,-0.1484375,1,0,0,1,49,209,112,1,,,,,,,,
,,,,,,,,,,,,,FF,,,,,,,,1.4008,,,,,,,,,,,,,,,,,,,,,,6100987a26cc8c75ffe99d67,61036d956c80f4089f7f113f,2021-07-29_23h10.50.999,Simcolourproject_2stim_asymm_v5,2020.2.10,MacIntel,60,61025ae37ef11b136ea224fe,,,,,,,,,1341,44.65234375,83.76171875,1,0,0,response1disk,,7,5.7578125,7.83984375,1,0,0,rectangle,5.7578125,7.83984375,1,0,0,5.7578125,7.83984375,1,0,0,1,50,210,122,1,,,,,,,,
,,,,,,,,,,,,,FF,,,,,,,,1.18323,,,,,,,,,,,,,,,,,,,,,,6100987a26cc8c75ffe99d67,61036d956c80f4089f7f113f,2021-07-29_23h10.50.999,Simcolourproject_2stim_asymm_v5,2020.2.10,MacIntel,60,61025ae37ef11b136ea224fe,,,,,,,,,3287,94.09765625,-52.6640625,1,0,0,response3disk,,5,-18.671875,-2.35546875,1,0,0,rectangle,-18.671875,-2.35546875,1,0,0,-18.671875,-2.35546875,1,0,0,1,51,211,88,1,,,,,,,,
,,,,,,,,,,,,,FF,,,,,,,,1.20029,,,,,,,,,,,,,,,,,,,,,,6100987a26cc8c75ffe99d67,61036d956c80f4089f7f113f,2021-07-29_23h10.50.999,Simcolourproject_2stim_asymm_v5,2020.2.10,MacIntel,60,61025ae37ef11b136ea224fe,,,,,,,,,3082,44.1796875,73.99609375,1,0,0,response1disk,,7,12.92578125,3.19921875,1,0,0,rectangle,12.92578125,3.19921875,1,0,0,12.92578125,3.19921875,1,0,0,1,52,212,109,1,,,,,,,,
,,,,,,,,,,,,,FF,,,,,,,,1.351555,,,,,,,,,,,,,,,,,,,,,,6100987a26cc8c75ffe99d67,61036d956c80f4089f7f113f,2021-07-29_23h10.50.999,Simcolourproject_2stim_asymm_v5,2020.2.10,MacIntel,60,61025ae37ef11b136ea224fe,,,,,,,,,3483,110.15625,-38.51171875,1,0,0,response3disk,,5,-3.00390625,6.28125,1,0,0,rectangle,-3.00390625,6.28125,1,0,0,-3.00390625,6.28125,1,0,0,1,53,213,94,1,,,,,,,,
,,,,,,,,,,,,,FF,,,,,,,,1.96641,,,,,,,,,,,,,,,,,,,,,,6100987a26cc8c75ffe99d67,61036d956c80f4089f7f113f,2021-07-29_23h10.50.999,Simcolourproject_2stim_asymm_v5,2020.2.10,MacIntel,60,61025ae37ef11b136ea224fe,,,,,,,,,427,34.49609375,60.71484375,1,0,0,response1disk,,7,20.26171875,10.0625,1,0,0,rectangle,20.26171875,10.0625,1,0,0,20.26171875,10.0625,1,0,0,1,54,214,4,1,,,,,,,,
,,,,,,,,,,,,,FF,,,,,,,,2.38251,,,,,,,,,,,,,,,,,,,,,,6100987a26cc8c75ffe99d67,61036d956c80f4089f7f113f,2021-07-29_23h10.50.999,Simcolourproject_2stim_asymm_v5,2020.2.10,MacIntel,60,61025ae37ef11b136ea224fe,,,,,,,,,739,113.28125,-27.83203125,1,0,0,response3disk,,5,12.578125,13.4921875,1,0,0,rectangle,12.578125,13.4921875,1,0,0,12.578125,13.4921875,1,0,0,1,55,215,155,1,,,,,,,,
,,,,,,,,,,,,,FF,,,,,,,,1.416905,,,,,,,,,,,,,,,,,,,,,,6100987a26cc8c75ffe99d67,61036d956c80f4089f7f113f,2021-07-29_23h10.50.999,Simcolourproject_2stim_asymm_v5,2020.2.10,MacIntel,60,61025ae37ef11b136ea224fe,,,,,,,,,2251,42.7890625,58.16015625,1,0,0,response1disk,,7,27.8984375,-4.69140625,1,0,0,rectangle,27.8984375,-4.69140625,1,0,0,27.8984375,-4.69140625,1,0,0,1,56,216,37,1,,,,,,,,
,,,,,,,,,,,,,FF,,,,,,,,1.115885,,,,,,,,,,,,,,,,,,,,,,6100987a26cc8c75ffe99d67,61036d956c80f4089f7f113f,2021-07-29_23h10.50.999,Simcolourproject_2stim_asymm_v5,2020.2.10,MacIntel,60,61025ae37ef11b136ea224fe,,,,,,,,,1822,-29.39453125,73.44140625,1,0,0,response7disk,,0,-13.421875,0.55859375,1,0,0,rectangle,106.5976563,31.03515625,1,0,0,7.1484375,0.78125,1,0,0,1,57,217,32,1,,response1disk_3,TRUE,6,6,"[136,296,218,318,202,197,60,34,124,150,14,163,225,320,31,141,31,282,222,13]",1.86682,rectangle
,,,,,,,,,,,,,FF,,,,,,,,1.000395,,,,,,,,,,,,,,,,,,,,,,6100987a26cc8c75ffe99d67,61036d956c80f4089f7f113f,2021-07-29_23h10.50.999,Simcolourproject_2stim_asymm_v5,2020.2.10,MacIntel,60,61025ae37ef11b136ea224fe,,,,,,,,,3286,-50.10546875,-113.4179688,1,0,0,response5disk,,3,6.84375,-4.85546875,1,0,0,rectangle,6.84375,-4.85546875,1,0,0,6.84375,-4.85546875,1,0,0,1,58,218,77,1,,,,,,,,
,,,,,,,,,,,,,FF,,,,,,,,1.784765,,,,,,,,,,,,,,,,,,,,,,6100987a26cc8c75ffe99d67,61036d956c80f4089f7f113f,2021-07-29_23h10.50.999,Simcolourproject_2stim_asymm_v5,2020.2.10,MacIntel,60,61025ae37ef11b136ea224fe,,,,,,,,,4150,87.75,-63.45703125,1,0,0,response3disk,,5,-7.00390625,1.73828125,1,0,0,rectangle,-7.00390625,1.73828125,1,0,0,-7.00390625,1.73828125,1,0,0,1,59,219,106,1,,,,,,,,
,,,,,,,,,,,,,FF,,,,,,,,0.90029,,,,,,,,,,,,,,,,,,,,,,6100987a26cc8c75ffe99d67,61036d956c80f4089f7f113f,2021-07-29_23h10.50.999,Simcolourproject_2stim_asymm_v5,2020.2.10,MacIntel,60,61025ae37ef11b136ea224fe,,,,,,,,,270,42.26171875,71.7578125,1,0,0,response1disk,,7,-1.14453125,6.64453125,1,0,0,rectangle,-1.14453125,6.64453125,1,0,0,-1.14453125,6.64453125,1,0,0,1,60,220,39,1,,,,,,,,
,,,,,,,,,,,,,FF,,,,,,,,0.817625,,,,,,,,,,,,,,,,,,,,,,6100987a26cc8c75ffe99d67,61036d956c80f4089f7f113f,2021-07-29_23h10.50.999,Simcolourproject_2stim_asymm_v5,2020.2.10,MacIntel,60,61025ae37ef11b136ea224fe,,,,,,,,,243,31.1484375,54.8671875,1,0,0,response1disk,,7,1.37109375,6.76953125,1,0,0,rectangle,-37.48046875,-73.4453125,1,0,0,5.578125,3.94921875,1,0,0,1,61,221,119,1,,response5disk_3,TRUE,3,3,"[136,296,218,318,202,197,60,34,124,150,14,163,225,320,31,141,31,282,222,13]",1.44917,rectangle
,,,,,,,,,,,,,FF,,,,,,,,0.883595,,,,,,,,,,,,,,,,,,,,,,6100987a26cc8c75ffe99d67,61036d956c80f4089f7f113f,2021-07-29_23h10.50.999,Simcolourproject_2stim_asymm_v5,2020.2.10,MacIntel,60,61025ae37ef11b136ea224fe,,,,,,,,,2203,52.8046875,112.5546875,1,0,0,response1disk,,7,-2.05859375,-6.8984375,1,0,0,rectangle,-2.05859375,-6.8984375,1,0,0,-2.05859375,-6.8984375,1,0,0,1,62,222,20,1,,,,,,,,
,,,,,,,,,,,,,FF,,,,,,,,0.884745,,,,,,,,,,,,,,,,,,,,,,6100987a26cc8c75ffe99d67,61036d956c80f4089f7f113f,2021-07-29_23h10.50.999,Simcolourproject_2stim_asymm_v5,2020.2.10,MacIntel,60,61025ae37ef11b136ea224fe,,,,,,,,,3229,38.87109375,63.85546875,1,0,0,response1disk,,7,15.60546875,5.6015625,1,0,0,rectangle,15.60546875,5.6015625,1,0,0,15.60546875,5.6015625,1,0,0,1,63,223,65,1,,,,,,,,
,,,,,,,,,,,,,FF,,,,,,,,0.98602,,,,,,,,,,,,,,,,,,,,,,6100987a26cc8c75ffe99d67,61036d956c80f4089f7f113f,2021-07-29_23h10.50.999,Simcolourproject_2stim_asymm_v5,2020.2.10,MacIntel,60,61025ae37ef11b136ea224fe,,,,,,,,,2205,49.63671875,88.12109375,1,0,0,response1disk,,7,-20.421875,-3.85546875,1,0,0,rectangle,-38.8671875,83.91015625,1,0,0,-16.296875,4.0859375,1,0,0,1,64,224,154,1,,response7disk_3,TRUE,0,0,"[136,296,218,318,202,197,60,34,124,150,14,163,225,320,31,141,31,282,222,13]",1.749905,rectangle
,,,,,,,,,,,,,FF,,,,,,,,0.740865,,,,,,,,,,,,,,,,,,,,,,6100987a26cc8c75ffe99d67,61036d956c80f4089f7f113f,2021-07-29_23h10.50.999,Simcolourproject_2stim_asymm_v5,2020.2.10,MacIntel,60,61025ae37ef11b136ea224fe,,,,,,,,,2508,41.34375,80.828125,1,0,0,response1disk,,7,-8.3515625,-2.81640625,1,0,0,rectangle,-8.3515625,-2.81640625,1,0,0,-8.3515625,-2.81640625,1,0,0,1,65,225,46,1,,,,,,,,
,,,,,,,,,,,,,FF,,,,,,,,0.966745,,,,,,,,,,,,,,,,,,,,,,6100987a26cc8c75ffe99d67,61036d956c80f4089f7f113f,2021-07-29_23h10.50.999,Simcolourproject_2stim_asymm_v5,2020.2.10,MacIntel,60,61025ae37ef11b136ea224fe,,,,,,,,,4223,-52.41015625,-76.4296875,1,0,0,response5disk,,3,0.71875,9.55859375,1,0,0,rectangle,0.71875,9.55859375,1,0,0,0.71875,9.55859375,1,0,0,1,66,226,0,1,,,,,,,,
,,,,,,,,,,,,,FF,,,,,,,,0.83475,,,,,,,,,,,,,,,,,,,,,,6100987a26cc8c75ffe99d67,61036d956c80f4089f7f113f,2021-07-29_23h10.50.999,Simcolourproject_2stim_asymm_v5,2020.2.10,MacIntel,60,61025ae37ef11b136ea224fe,,,,,,,,,707,49.6796875,107.3984375,1,0,0,response1disk,,7,-14.21484375,-4.4140625,1,0,0,rectangle,-14.21484375,-4.4140625,1,0,0,-14.21484375,-4.4140625,1,0,0,1,67,227,153,1,,,,,,,,
,,,,,,,,,,,,,FF,,,,,,,,1.299845,,,,,,,,,,,,,,,,,,,,,,6100987a26cc8c75ffe99d67,61036d956c80f4089f7f113f,2021-07-29_23h10.50.999,Simcolourproject_2stim_asymm_v5,2020.2.10,MacIntel,60,61025ae37ef11b136ea224fe,,,,,,,,,620,-54.10546875,-77.4296875,1,0,0,response5disk,,3,-10.046875,7.296875,1,0,0,rectangle,-10.046875,7.296875,1,0,0,-10.046875,7.296875,1,0,0,1,68,228,63,1,,,,,,,,
,,,,,,,,,,,,,FF,,,,,,,,8.10078,,,,,,,,,,,,,,,,,,,,,,6100987a26cc8c75ffe99d67,61036d956c80f4089f7f113f,2021-07-29_23h10.50.999,Simcolourproject_2stim_asymm_v5,2020.2.10,MacIntel,60,61025ae37ef11b136ea224fe,,,,,,,,,1784,41.99609375,73.578125,1,0,0,response1disk,,7,-4.87890625,-8.63671875,1,0,0,rectangle,-4.87890625,-8.63671875,1,0,0,-4.87890625,-8.63671875,1,0,0,1,69,229,75,1,,,,,,,,
,,,,,,,,,,,,,FF,,,,,,,,0.866245,,,,,,,,,,,,,,,,,,,,,,6100987a26cc8c75ffe99d67,61036d956c80f4089f7f113f,2021-07-29_23h10.50.999,Simcolourproject_2stim_asymm_v5,2020.2.10,MacIntel,60,61025ae37ef11b136ea224fe,,,,,,,,,47,41.99609375,87.42578125,1,0,0,response1disk,,7,13.87109375,12.19921875,1,0,0,rectangle,13.87109375,12.19921875,1,0,0,13.87109375,12.19921875,1,0,0,1,70,230,21,1,,,,,,,,
,,,,,,,,,,,,,FF,,,,,,,,0.7824,,,,,,,,,,,,,,,,,,,,,,6100987a26cc8c75ffe99d67,61036d956c80f4089f7f113f,2021-07-29_23h10.50.999,Simcolourproject_2stim_asymm_v5,2020.2.10,MacIntel,60,61025ae37ef11b136ea224fe,,,,,,,,,2860,47.20703125,74.62109375,1,0,0,response1disk,,7,20.51171875,-2.69140625,1,0,0,rectangle,20.51171875,-2.69140625,1,0,0,20.51171875,-2.69140625,1,0,0,1,71,231,124,1,,,,,,,,
,,,,,,,,,,,,,FF,,,,,,,,0.733675,,,,,,,,,,,,,,,,,,,,,,6100987a26cc8c75ffe99d67,61036d956c80f4089f7f113f,2021-07-29_23h10.50.999,Simcolourproject_2stim_asymm_v5,2020.2.10,MacIntel,60,61025ae37ef11b136ea224fe,,,,,,,,,2319,48.63671875,114.6367188,1,0,0,response1disk,,7,-0.80859375,-0.828125,1,0,0,rectangle,-0.80859375,-0.828125,1,0,0,-0.80859375,-0.828125,1,0,0,1,72,232,100,1,,,,,,,,
,,,,,,,,,,,,,FF,,,,,,,,1.16548,,,,,,,,,,,,,,,,,,,,,,6100987a26cc8c75ffe99d67,61036d956c80f4089f7f113f,2021-07-29_23h10.50.999,Simcolourproject_2stim_asymm_v5,2020.2.10,MacIntel,60,61025ae37ef11b136ea224fe,,,,,,,,,3625,-55.98046875,-85.47265625,1,0,0,response5disk,,3,-9.1015625,-9.81640625,1,0,0,rectangle,-9.1015625,-9.81640625,1,0,0,-9.1015625,-9.81640625,1,0,0,1,73,233,35,1,,,,,,,,
,,,,,,,,,,,,,FF,,,,,,,,0.716965,,,,,,,,,,,,,,,,,,,,,,6100987a26cc8c75ffe99d67,61036d956c80f4089f7f113f,2021-07-29_23h10.50.999,Simcolourproject_2stim_asymm_v5,2020.2.10,MacIntel,60,61025ae37ef11b136ea224fe,,,,,,,,,139,22.84375,95.359375,1,0,0,response1disk,,7,-1.1171875,-15.06640625,1,0,0,rectangle,-1.1171875,-15.06640625,1,0,0,-1.1171875,-15.06640625,1,0,0,1,74,234,14,1,,,,,,,,
,,,,,,,,,,,,,FF,,,,,,,,0.915885,,,,,,,,,,,,,,,,,,,,,,6100987a26cc8c75ffe99d67,61036d956c80f4089f7f113f,2021-07-29_23h10.50.999,Simcolourproject_2stim_asymm_v5,2020.2.10,MacIntel,60,61025ae37ef11b136ea224fe,,,,,,,,,3705,-52.46484375,101.9570313,1,0,0,response7disk,,0,-19.82421875,-1.828125,1,0,0,rectangle,-19.82421875,-1.828125,1,0,0,-19.82421875,-1.828125,1,0,0,1,75,235,157,1,,,,,,,,
,,,,,,,,,,,,,FF,,,,,,,,1.617215,,,,,,,,,,,,,,,,,,,,,,6100987a26cc8c75ffe99d67,61036d956c80f4089f7f113f,2021-07-29_23h10.50.999,Simcolourproject_2stim_asymm_v5,2020.2.10,MacIntel,60,61025ae37ef11b136ea224fe,,,,,,,,,1748,98.11328125,-37.984375,1,0,0,response3disk,,5,-4.93359375,4.68359375,1,0,0,rectangle,-4.93359375,4.68359375,1,0,0,-4.93359375,4.68359375,1,0,0,1,76,236,34,1,,,,,,,,
,,,,,,,,,,,,,FF,,,,,,,,0.650085,,,,,,,,,,,,,,,,,,,,,,6100987a26cc8c75ffe99d67,61036d956c80f4089f7f113f,2021-07-29_23h10.50.999,Simcolourproject_2stim_asymm_v5,2020.2.10,MacIntel,60,61025ae37ef11b136ea224fe,,,,,,,,,4132,32.9140625,70.62109375,1,0,0,response1disk,,7,8.99609375,8.71484375,1,0,0,rectangle,8.99609375,8.71484375,1,0,0,8.99609375,8.71484375,1,0,0,1,77,237,22,1,,,,,,,,
,,,,,,,,,,,,,FF,,,,,,,,0.765945,,,,,,,,,,,,,,,,,,,,,,6100987a26cc8c75ffe99d67,61036d956c80f4089f7f113f,2021-07-29_23h10.50.999,Simcolourproject_2stim_asymm_v5,2020.2.10,MacIntel,60,61025ae37ef11b136ea224fe,,,,,,,,,4080,61.08203125,102.0390625,1,0,0,response1disk,,7,11.46875,-0.44140625,1,0,0,rectangle,11.46875,-0.44140625,1,0,0,11.46875,-0.44140625,1,0,0,1,78,238,66,1,,,,,,,,
,,,,,,,,,,,,,FF,,,,,,,,0.850035,,,,,,,,,,,,,,,,,,,,,,6100987a26cc8c75ffe99d67,61036d956c80f4089f7f113f,2021-07-29_23h10.50.999,Simcolourproject_2stim_asymm_v5,2020.2.10,MacIntel,60,61025ae37ef11b136ea224fe,,,,,,,,,9,100.015625,46.7421875,1,0,0,response1disk,,6,8.38671875,6.89453125,1,0,0,rectangle,8.38671875,6.89453125,1,0,0,8.38671875,6.89453125,1,0,0,1,79,239,29,1,,,,,,,,
,,,,,,,,,,,,,FF,,,,,,,,0.734085,,,,,,,,,,,,,,,,,,,,,,6100987a26cc8c75ffe99d67,61036d956c80f4089f7f113f,2021-07-29_23h10.50.999,Simcolourproject_2stim_asymm_v5,2020.2.10,MacIntel,60,61025ae37ef11b136ea224fe,,,,,,,,,4300,50.40234375,75.60546875,1,0,0,response1disk,,7,4.56640625,11.1015625,1,0,0,rectangle,4.56640625,11.1015625,1,0,0,4.56640625,11.1015625,1,0,0,1,80,240,97,1,,,,,,,,
,,,,,,,,,,,,,FF,,,,,,,,0.683285,,,,,,,,,,,,,,,,,,,,,,6100987a26cc8c75ffe99d67,61036d956c80f4089f7f113f,2021-07-29_23h10.50.999,Simcolourproject_2stim_asymm_v5,2020.2.10,MacIntel,60,61025ae37ef11b136ea224fe,,,,,,,,,2011,41.02734375,64.53515625,1,0,0,response1disk,,7,-10.3671875,-6.26171875,1,0,0,rectangle,-10.3671875,-6.26171875,1,0,0,-10.3671875,-6.26171875,1,0,0,1,81,241,13,1,,,,,,,,
,,,,,,,,,,,,,FF,,,,,,,,0.668,,,,,,,,,,,,,,,,,,,,,,6100987a26cc8c75ffe99d67,61036d956c80f4089f7f113f,2021-07-29_23h10.50.999,Simcolourproject_2stim_asymm_v5,2020.2.10,MacIntel,60,61025ae37ef11b136ea224fe,,,,,,,,,1030,45.88671875,79.5078125,1,0,0,response1disk,,7,10.8984375,11.921875,1,0,0,rectangle,10.8984375,11.921875,1,0,0,10.8984375,11.921875,1,0,0,1,82,242,81,1,,,,,,,,
,,,,,,,,,,,,,FF,,,,,,,,0.73488,,,,,,,,,,,,,,,,,,,,,,6100987a26cc8c75ffe99d67,61036d956c80f4089f7f113f,2021-07-29_23h10.50.999,Simcolourproject_2stim_asymm_v5,2020.2.10,MacIntel,60,61025ae37ef11b136ea224fe,,,,,,,,,665,38.6796875,62.92578125,1,0,0,response1disk,,7,-2.64453125,-14.7734375,1,0,0,rectangle,-2.64453125,-14.7734375,1,0,0,-2.64453125,-14.7734375,1,0,0,1,83,243,151,1,,,,,,,,
,,,,,,,,,,,,,FF,,,,,,,,0.599985,,,,,,,,,,,,,,,,,,,,,,6100987a26cc8c75ffe99d67,61036d956c80f4089f7f113f,2021-07-29_23h10.50.999,Simcolourproject_2stim_asymm_v5,2020.2.10,MacIntel,60,61025ae37ef11b136ea224fe,,,,,,,,,3620,28.26171875,81.0234375,1,0,0,response1disk,,7,0.828125,9.1875,1,0,0,rectangle,0.828125,9.1875,1,0,0,0.828125,9.1875,1,0,0,1,84,244,150,1,,,,,,,,
,,,,,,,,,,,,,FF,,,,,,,,0.683425,,,,,,,,,,,,,,,,,,,,,,6100987a26cc8c75ffe99d67,61036d956c80f4089f7f113f,2021-07-29_23h10.50.999,Simcolourproject_2stim_asymm_v5,2020.2.10,MacIntel,60,61025ae37ef11b136ea224fe,,,,,,,,,2815,35.90234375,57.0234375,1,0,0,response1disk,,7,11.59375,-2.2734375,1,0,0,rectangle,11.59375,-2.2734375,1,0,0,11.59375,-2.2734375,1,0,0,1,85,245,50,1,,,,,,,,
,,,,,,,,,,,,,FF,,,,,,,,0.55107,,,,,,,,,,,,,,,,,,,,,,6100987a26cc8c75ffe99d67,61036d956c80f4089f7f113f,2021-07-29_23h10.50.999,Simcolourproject_2stim_asymm_v5,2020.2.10,MacIntel,60,61025ae37ef11b136ea224fe,,,,,,,,,1169,40.4140625,76.85546875,1,0,0,response1disk,,7,4.30078125,-1.53515625,1,0,0,rectangle,4.30078125,-1.53515625,1,0,0,4.30078125,-1.53515625,1,0,0,1,86,246,55,1,,,,,,,,
,,,,,,,,,,,,,FF,,,,,,,,0.59927,,,,,,,,,,,,,,,,,,,,,,6100987a26cc8c75ffe99d67,61036d956c80f4089f7f113f,2021-07-29_23h10.50.999,Simcolourproject_2stim_asymm_v5,2020.2.10,MacIntel,60,61025ae37ef11b136ea224fe,,,,,,,,,2746,47.01171875,73.73046875,1,0,0,response1disk,,7,11.24609375,-1.84375,1,0,0,rectangle,11.24609375,-1.84375,1,0,0,11.24609375,-1.84375,1,0,0,1,87,247,43,1,,,,,,,,
