key_resp.keys,key_resp.rt,key_resp_14.keys,key_resp_14.rt,key_resp_15.keys,key_resp_15.rt,key_resp_17.keys,key_resp_17.rt,key_resp_9.keys,key_resp_9.rt,key_resp_10.keys,key_resp_10.rt,practice_comparison,Ecc,mouse_5.x,mouse_5.y,mouse_5.leftButton,mouse_5.midButton,mouse_5.rightButton,mouse_5.clicked_name,pracsimilarity,response_time,mouse_10.x,mouse_10.y,mouse_10.leftButton,mouse_10.midButton,mouse_10.rightButton,mouse_10.clicked_name,mouse_7.x,mouse_7.y,mouse_7.leftButton,mouse_7.midButton,mouse_7.rightButton,mouse_6.x,mouse_6.y,mouse_6.leftButton,mouse_6.midButton,mouse_6.rightButton,duringprac.thisRepN,duringprac.thisTrialN,duringprac.thisN,duringprac.thisIndex,duringprac.ran,participant,session,date,expName,psychopyVersion,OS,frameRate,study_id,mouse_7.clicked_name,catchpracsimilarity,catch_response_time,catchnumberprac,catchtrialorderprac,mouse_6.clicked_name,key_resp_22.keys,key_resp_22.rt,realcomparison,mouse.x,mouse.y,mouse.leftButton,mouse.midButton,mouse.rightButton,mouse.clicked_name,Colour2,similarity,mouse_2.x,mouse_2.y,mouse_2.leftButton,mouse_2.midButton,mouse_2.rightButton,mouse_2.clicked_name,mouse_3.x,mouse_3.y,mouse_3.leftButton,mouse_3.midButton,mouse_3.rightButton,mouse_11.x,mouse_11.y,mouse_11.leftButton,mouse_11.midButton,mouse_11.rightButton,trials_2.thisRepN,trials_2.thisTrialN,trials_2.thisN,trials_2.thisIndex,trials_2.ran,Colour1,mouse_3.clicked_name,catchornah,catchsimilarity,catchnumber,catchtrialorder,catchRT,mouse_11.clicked_name
space,0.9273,space,13.1774,space,7.1496,space,3.0217,space,1.7076,space,3.7101,138,FF,-75.55078125,39.26171875,1,0,0,response7disk_5,1,7.6008,-5.7265625,2.2109375,1,0,0,rectangle_8,-5.7265625,2.2109375,1,0,0,-5.7265625,2.2109375,1,0,0,0,0,0,3,1,61005c79654dfd48f61ab93c,61036e3fd1f92de10ffb3ef6,2021-07-29_20h14.32.660,Simcolourproject_2stim_asymm_v5,2020.2.10,MacIntel,60,61025ae37ef11b136ea224fe,,,,,,,,,,,,,,,,,,,,,,,,,,,,,,,,,,,,,,,,,,,,,,
,,,,,,,,,,,,92,PF,-27.60546875,82.03125,1,0,0,response7disk_5,0,3.9654,5.74609375,-0.57421875,1,0,0,rectangle_8,34.03515625,63.20703125,1,0,0,3.5,4.23046875,1,0,0,0,1,1,1,1,61005c79654dfd48f61ab93c,61036e3fd1f92de10ffb3ef6,2021-07-29_20h14.32.660,Simcolourproject_2stim_asymm_v5,2020.2.10,MacIntel,60,61025ae37ef11b136ea224fe,response1disk_7,7,3.7009,7,"[2,5]",rectangle_4,,,,,,,,,,,,,,,,,,,,,,,,,,,,,,,,,,,,,,,,
,,,,,,,,,,,,50,PF,51.96875,-101.4335938,1,0,0,response3disk_5,4,4.0001,-16.40234375,11.046875,1,0,0,rectangle_8,-16.40234375,11.046875,1,0,0,-16.40234375,11.046875,1,0,0,0,2,2,4,1,61005c79654dfd48f61ab93c,61036e3fd1f92de10ffb3ef6,2021-07-29_20h14.32.660,Simcolourproject_2stim_asymm_v5,2020.2.10,MacIntel,60,61025ae37ef11b136ea224fe,,,,,,,,,,,,,,,,,,,,,,,,,,,,,,,,,,,,,,,,,,,,,,
,,,,,,,,,,,,28,PF,64.3359375,-47.734375,1,0,0,response3disk_5,5,3.4174,11.265625,-9.01953125,1,0,0,rectangle_8,11.265625,-9.01953125,1,0,0,11.265625,-9.01953125,1,0,0,0,3,3,2,1,61005c79654dfd48f61ab93c,61036e3fd1f92de10ffb3ef6,2021-07-29_20h14.32.660,Simcolourproject_2stim_asymm_v5,2020.2.10,MacIntel,60,61025ae37ef11b136ea224fe,,,,,,,,,,,,,,,,,,,,,,,,,,,,,,,,,,,,,,,,,,,,,,
,,,,,,,,,,,,138,PF,69.7109375,-26.7890625,1,0,0,response3disk_5,5,1.7999,12.42578125,0.78125,1,0,0,rectangle_8,26.3203125,79.06640625,1,0,0,5.8125,-12.91015625,1,0,0,0,4,4,6,1,61005c79654dfd48f61ab93c,61036e3fd1f92de10ffb3ef6,2021-07-29_20h14.32.660,Simcolourproject_2stim_asymm_v5,2020.2.10,MacIntel,60,61025ae37ef11b136ea224fe,response1disk_7,7,1.7346,7,"[2,5]",rectangle_4,,,,,,,,,,,,,,,,,,,,,,,,,,,,,,,,,,,,,,,,
,,,,,,,,,,,,56,FF,41.5390625,65.85546875,1,0,0,response1disk_5,7,3.0992,10.22265625,-0.13671875,1,0,0,rectangle_8,10.22265625,-0.13671875,1,0,0,10.22265625,-0.13671875,1,0,0,0,5,5,0,1,61005c79654dfd48f61ab93c,61036e3fd1f92de10ffb3ef6,2021-07-29_20h14.32.660,Simcolourproject_2stim_asymm_v5,2020.2.10,MacIntel,60,61025ae37ef11b136ea224fe,,,,,,,,,,,,,,,,,,,,,,,,,,,,,,,,,,,,,,,,,,,,,,
,,,,,,,,,,,,140,FF,-48.05859375,-89.81640625,1,0,0,response5disk_5,3,1.3501,-7.5703125,-10.390625,1,0,0,rectangle_8,-7.5703125,-10.390625,1,0,0,-7.5703125,-10.390625,1,0,0,0,6,6,5,1,61005c79654dfd48f61ab93c,61036e3fd1f92de10ffb3ef6,2021-07-29_20h14.32.660,Simcolourproject_2stim_asymm_v5,2020.2.10,MacIntel,60,61025ae37ef11b136ea224fe,,,,,,,,,,,,,,,,,,,,,,,,,,,,,,,,,,,,,,,,,,,,,,
,,,,,,,,,,,,,FF,,,,,,,,5.0334,,,,,,,,,,,,,,,,,,,,,,61005c79654dfd48f61ab93c,61036e3fd1f92de10ffb3ef6,2021-07-29_20h14.32.660,Simcolourproject_2stim_asymm_v5,2020.2.10,MacIntel,60,61025ae37ef11b136ea224fe,,,,,,,space,2.0843,2992,90.33203125,34.76171875,1,0,0,response1disk,,6,0.140625,-12.08203125,1,0,0,rectangle,0.140625,-12.08203125,1,0,0,0.140625,-12.08203125,1,0,0,0,0,0,142,1,,,,,,,,
,,,,,,,,,,,,,FF,,,,,,,,1.4665,,,,,,,,,,,,,,,,,,,,,,61005c79654dfd48f61ab93c,61036e3fd1f92de10ffb3ef6,2021-07-29_20h14.32.660,Simcolourproject_2stim_asymm_v5,2020.2.10,MacIntel,60,61025ae37ef11b136ea224fe,,,,,,,,,1928,68.4375,-45.51953125,1,0,0,response3disk,,5,19.1328125,3.25390625,1,0,0,rectangle,19.1328125,3.25390625,1,0,0,19.1328125,3.25390625,1,0,0,0,1,1,75,1,,,,,,,,
,,,,,,,,,,,,,FF,,,,,,,,1.8004,,,,,,,,,,,,,,,,,,,,,,61005c79654dfd48f61ab93c,61036e3fd1f92de10ffb3ef6,2021-07-29_20h14.32.660,Simcolourproject_2stim_asymm_v5,2020.2.10,MacIntel,60,61025ae37ef11b136ea224fe,,,,,,,,,167,-79.73828125,-46.53125,1,0,0,response5disk,,2,-13.796875,-1.83984375,1,0,0,rectangle,-13.796875,-1.83984375,1,0,0,-13.796875,-1.83984375,1,0,0,0,2,2,55,1,,,,,,,,
,,,,,,,,,,,,,FF,,,,,,,,1.0163,,,,,,,,,,,,,,,,,,,,,,61005c79654dfd48f61ab93c,61036e3fd1f92de10ffb3ef6,2021-07-29_20h14.32.660,Simcolourproject_2stim_asymm_v5,2020.2.10,MacIntel,60,61025ae37ef11b136ea224fe,,,,,,,,,806,-67.76171875,-43.703125,1,0,0,response5disk,,2,-13.1953125,4.07421875,1,0,0,rectangle,-13.1953125,4.07421875,1,0,0,-13.1953125,4.07421875,1,0,0,0,3,3,156,1,,,,,,,,
,,,,,,,,,,,,,FF,,,,,,,,1.7678,,,,,,,,,,,,,,,,,,,,,,61005c79654dfd48f61ab93c,61036e3fd1f92de10ffb3ef6,2021-07-29_20h14.32.660,Simcolourproject_2stim_asymm_v5,2020.2.10,MacIntel,60,61025ae37ef11b136ea224fe,,,,,,,,,4324,-30.7734375,-77.3046875,1,0,0,response5disk,,3,9.82421875,-9.2578125,1,0,0,rectangle,9.82421875,-9.2578125,1,0,0,9.82421875,-9.2578125,1,0,0,0,4,4,3,1,,,,,,,,
,,,,,,,,,,,,,FF,,,,,,,,0.9343,,,,,,,,,,,,,,,,,,,,,,61005c79654dfd48f61ab93c,61036e3fd1f92de10ffb3ef6,2021-07-29_20h14.32.660,Simcolourproject_2stim_asymm_v5,2020.2.10,MacIntel,60,61025ae37ef11b136ea224fe,,,,,,,,,1515,24.3046875,-79.30078125,1,0,0,response3disk,,4,10.59765625,0.53125,1,0,0,rectangle,10.59765625,0.53125,1,0,0,10.59765625,0.53125,1,0,0,0,5,5,155,1,,,,,,,,
,,,,,,,,,,,,,FF,,,,,,,,1.2,,,,,,,,,,,,,,,,,,,,,,61005c79654dfd48f61ab93c,61036e3fd1f92de10ffb3ef6,2021-07-29_20h14.32.660,Simcolourproject_2stim_asymm_v5,2020.2.10,MacIntel,60,61025ae37ef11b136ea224fe,,,,,,,,,4315,79.76171875,-37.33984375,1,0,0,response3disk,,5,19.03125,-12.5234375,1,0,0,rectangle,19.03125,-12.5234375,1,0,0,19.03125,-12.5234375,1,0,0,0,6,6,0,1,,,,,,,,
,,,,,,,,,,,,,FF,,,,,,,,1.3492,,,,,,,,,,,,,,,,,,,,,,61005c79654dfd48f61ab93c,61036e3fd1f92de10ffb3ef6,2021-07-29_20h14.32.660,Simcolourproject_2stim_asymm_v5,2020.2.10,MacIntel,60,61025ae37ef11b136ea224fe,,,,,,,,,290,42.49609375,61.06640625,1,0,0,response1disk,,7,16.00390625,10.5703125,1,0,0,rectangle,16.00390625,10.5703125,1,0,0,16.00390625,10.5703125,1,0,0,0,7,7,79,1,,,,,,,,
,,,,,,,,,,,,,FF,,,,,,,,1.0001,,,,,,,,,,,,,,,,,,,,,,61005c79654dfd48f61ab93c,61036e3fd1f92de10ffb3ef6,2021-07-29_20h14.32.660,Simcolourproject_2stim_asymm_v5,2020.2.10,MacIntel,60,61025ae37ef11b136ea224fe,,,,,,,,,7,34.62109375,-79.87109375,1,0,0,response3disk,,4,16.92578125,-5.62890625,1,0,0,rectangle,16.92578125,-5.62890625,1,0,0,16.92578125,-5.62890625,1,0,0,0,8,8,82,1,,,,,,,,
,,,,,,,,,,,,,FF,,,,,,,,0.8167,,,,,,,,,,,,,,,,,,,,,,61005c79654dfd48f61ab93c,61036e3fd1f92de10ffb3ef6,2021-07-29_20h14.32.660,Simcolourproject_2stim_asymm_v5,2020.2.10,MacIntel,60,61025ae37ef11b136ea224fe,,,,,,,,,1572,30.203125,-57.4296875,1,0,0,response3disk,,4,20.07421875,0.30078125,1,0,0,rectangle,20.07421875,0.30078125,1,0,0,20.07421875,0.30078125,1,0,0,0,9,9,72,1,,,,,,,,
,,,,,,,,,,,,,FF,,,,,,,,1.6331,,,,,,,,,,,,,,,,,,,,,,61005c79654dfd48f61ab93c,61036e3fd1f92de10ffb3ef6,2021-07-29_20h14.32.660,Simcolourproject_2stim_asymm_v5,2020.2.10,MacIntel,60,61025ae37ef11b136ea224fe,,,,,,,,,1468,-39.24609375,-73.7734375,1,0,0,response5disk,,3,-4.13671875,-5.8046875,1,0,0,rectangle,-4.13671875,-5.8046875,1,0,0,-4.13671875,-5.8046875,1,0,0,0,10,10,12,1,,,,,,,,
,,,,,,,,,,,,,FF,,,,,,,,1.3167,,,,,,,,,,,,,,,,,,,,,,61005c79654dfd48f61ab93c,61036e3fd1f92de10ffb3ef6,2021-07-29_20h14.32.660,Simcolourproject_2stim_asymm_v5,2020.2.10,MacIntel,60,61025ae37ef11b136ea224fe,,,,,,,,,1075,46.046875,-90.23828125,1,0,0,response3disk,,4,21.46484375,-10.4140625,1,0,0,rectangle,21.46484375,-10.4140625,1,0,0,21.46484375,-10.4140625,1,0,0,0,11,11,68,1,,,,,,,,
,,,,,,,,,,,,,FF,,,,,,,,0.7819,,,,,,,,,,,,,,,,,,,,,,61005c79654dfd48f61ab93c,61036e3fd1f92de10ffb3ef6,2021-07-29_20h14.32.660,Simcolourproject_2stim_asymm_v5,2020.2.10,MacIntel,60,61025ae37ef11b136ea224fe,,,,,,,,,377,69.66015625,-34,1,0,0,response3disk,,5,15.5234375,5.98828125,1,0,0,rectangle,15.5234375,5.98828125,1,0,0,15.5234375,5.98828125,1,0,0,0,12,12,137,1,,,,,,,,
,,,,,,,,,,,,,FF,,,,,,,,0.9159,,,,,,,,,,,,,,,,,,,,,,61005c79654dfd48f61ab93c,61036e3fd1f92de10ffb3ef6,2021-07-29_20h14.32.660,Simcolourproject_2stim_asymm_v5,2020.2.10,MacIntel,60,61025ae37ef11b136ea224fe,,,,,,,,,686,22.5,-68.1796875,1,0,0,response3disk,,4,4.328125,-3.7421875,1,0,0,rectangle,4.328125,-3.7421875,1,0,0,4.328125,-3.7421875,1,0,0,0,13,13,115,1,,,,,,,,
,,,,,,,,,,,,,FF,,,,,,,,1.051,,,,,,,,,,,,,,,,,,,,,,61005c79654dfd48f61ab93c,61036e3fd1f92de10ffb3ef6,2021-07-29_20h14.32.660,Simcolourproject_2stim_asymm_v5,2020.2.10,MacIntel,60,61025ae37ef11b136ea224fe,,,,,,,,,3317,85.95703125,-21.8515625,1,0,0,response3disk,,5,14.47265625,-2.05078125,1,0,0,rectangle,14.47265625,-2.05078125,1,0,0,14.47265625,-2.05078125,1,0,0,0,14,14,145,1,,,,,,,,
,,,,,,,,,,,,,FF,,,,,,,,0.9486,,,,,,,,,,,,,,,,,,,,,,61005c79654dfd48f61ab93c,61036e3fd1f92de10ffb3ef6,2021-07-29_20h14.32.660,Simcolourproject_2stim_asymm_v5,2020.2.10,MacIntel,60,61025ae37ef11b136ea224fe,,,,,,,,,1685,35.984375,-86.2734375,1,0,0,response3disk,,4,5.21875,8.83984375,1,0,0,rectangle,5.21875,8.83984375,1,0,0,5.21875,8.83984375,1,0,0,0,15,15,62,1,,,,,,,,
,,,,,,,,,,,,,FF,,,,,,,,1.7345,,,,,,,,,,,,,,,,,,,,,,61005c79654dfd48f61ab93c,61036e3fd1f92de10ffb3ef6,2021-07-29_20h14.32.660,Simcolourproject_2stim_asymm_v5,2020.2.10,MacIntel,60,61025ae37ef11b136ea224fe,,,,,,,,,743,55.15625,86.49609375,1,0,0,response1disk,,7,7.828125,1.59765625,1,0,0,rectangle,7.828125,1.59765625,1,0,0,7.828125,1.59765625,1,0,0,0,16,16,26,1,,,,,,,,
,,,,,,,,,,,,,FF,,,,,,,,1.049,,,,,,,,,,,,,,,,,,,,,,61005c79654dfd48f61ab93c,61036e3fd1f92de10ffb3ef6,2021-07-29_20h14.32.660,Simcolourproject_2stim_asymm_v5,2020.2.10,MacIntel,60,61025ae37ef11b136ea224fe,,,,,,,,,3104,-73.4609375,-39.94921875,1,0,0,response5disk,,2,-5.58203125,-4.9609375,1,0,0,rectangle,-5.58203125,-4.9609375,1,0,0,-5.58203125,-4.9609375,1,0,0,0,17,17,14,1,,,,,,,,
,,,,,,,,,,,,,FF,,,,,,,,1.433,,,,,,,,,,,,,,,,,,,,,,61005c79654dfd48f61ab93c,61036e3fd1f92de10ffb3ef6,2021-07-29_20h14.32.660,Simcolourproject_2stim_asymm_v5,2020.2.10,MacIntel,60,61025ae37ef11b136ea224fe,,,,,,,,,1927,68.0390625,-31.046875,1,0,0,response3disk,,5,15.7734375,12.2734375,1,0,0,rectangle,15.7734375,12.2734375,1,0,0,15.7734375,12.2734375,1,0,0,0,18,18,30,1,,,,,,,,
,,,,,,,,,,,,,FF,,,,,,,,0.7661,,,,,,,,,,,,,,,,,,,,,,61005c79654dfd48f61ab93c,61036e3fd1f92de10ffb3ef6,2021-07-29_20h14.32.660,Simcolourproject_2stim_asymm_v5,2020.2.10,MacIntel,60,61025ae37ef11b136ea224fe,,,,,,,,,4203,-71.4296875,-41.79296875,1,0,0,response5disk,,2,8.83984375,-6.89453125,1,0,0,rectangle,8.83984375,-6.89453125,1,0,0,8.83984375,-6.89453125,1,0,0,0,19,19,113,1,,,,,,,,
,,,,,,,,,,,,,FF,,,,,,,,1.1488,,,,,,,,,,,,,,,,,,,,,,61005c79654dfd48f61ab93c,61036e3fd1f92de10ffb3ef6,2021-07-29_20h14.32.660,Simcolourproject_2stim_asymm_v5,2020.2.10,MacIntel,60,61025ae37ef11b136ea224fe,,,,,,,,,2767,-37.6328125,-74.34375,1,0,0,response5disk,,3,-3.15625,1.4765625,1,0,0,rectangle,-3.15625,1.4765625,1,0,0,-3.15625,1.4765625,1,0,0,0,20,20,112,1,,,,,,,,
,,,,,,,,,,,,,FF,,,,,,,,0.7666,,,,,,,,,,,,,,,,,,,,,,61005c79654dfd48f61ab93c,61036e3fd1f92de10ffb3ef6,2021-07-29_20h14.32.660,Simcolourproject_2stim_asymm_v5,2020.2.10,MacIntel,60,61025ae37ef11b136ea224fe,,,,,,,,,2069,47.78515625,-59.55078125,1,0,0,response3disk,,4,25.19140625,-0.76953125,1,0,0,rectangle,25.19140625,-0.76953125,1,0,0,25.19140625,-0.76953125,1,0,0,0,21,21,61,1,,,,,,,,
,,,,,,,,,,,,,FF,,,,,,,,0.9175,,,,,,,,,,,,,,,,,,,,,,61005c79654dfd48f61ab93c,61036e3fd1f92de10ffb3ef6,2021-07-29_20h14.32.660,Simcolourproject_2stim_asymm_v5,2020.2.10,MacIntel,60,61025ae37ef11b136ea224fe,,,,,,,,,1612,-44.421875,-87.68359375,1,0,0,response5disk,,3,0.58203125,3.73046875,1,0,0,rectangle,0.58203125,3.73046875,1,0,0,0.58203125,3.73046875,1,0,0,0,22,22,138,1,,,,,,,,
,,,,,,,,,,,,,FF,,,,,,,,1.1508,,,,,,,,,,,,,,,,,,,,,,61005c79654dfd48f61ab93c,61036e3fd1f92de10ffb3ef6,2021-07-29_20h14.32.660,Simcolourproject_2stim_asymm_v5,2020.2.10,MacIntel,60,61025ae37ef11b136ea224fe,,,,,,,,,3177,73.12890625,-33.2734375,1,0,0,response3disk,,5,16.4921875,3.296875,1,0,0,rectangle,16.4921875,3.296875,1,0,0,16.4921875,3.296875,1,0,0,0,23,23,51,1,,,,,,,,
,,,,,,,,,,,,,FF,,,,,,,,0.733,,,,,,,,,,,,,,,,,,,,,,61005c79654dfd48f61ab93c,61036e3fd1f92de10ffb3ef6,2021-07-29_20h14.32.660,Simcolourproject_2stim_asymm_v5,2020.2.10,MacIntel,60,61025ae37ef11b136ea224fe,,,,,,,,,2338,65.37109375,33.26171875,1,0,0,response1disk,,6,11.9453125,-0.2890625,1,0,0,rectangle,11.9453125,-0.2890625,1,0,0,11.9453125,-0.2890625,1,0,0,0,24,24,99,1,,,,,,,,
,,,,,,,,,,,,,FF,,,,,,,,0.8168,,,,,,,,,,,,,,,,,,,,,,61005c79654dfd48f61ab93c,61036e3fd1f92de10ffb3ef6,2021-07-29_20h14.32.660,Simcolourproject_2stim_asymm_v5,2020.2.10,MacIntel,60,61025ae37ef11b136ea224fe,,,,,,,,,1370,-65.10546875,-22.81640625,1,0,0,response5disk,,2,-3.16015625,16.66015625,1,0,0,rectangle,-3.16015625,16.66015625,1,0,0,-3.16015625,16.66015625,1,0,0,0,25,25,33,1,,,,,,,,
,,,,,,,,,,,,,FF,,,,,,,,0.8674,,,,,,,,,,,,,,,,,,,,,,61005c79654dfd48f61ab93c,61036e3fd1f92de10ffb3ef6,2021-07-29_20h14.32.660,Simcolourproject_2stim_asymm_v5,2020.2.10,MacIntel,60,61025ae37ef11b136ea224fe,,,,,,,,,3906,-32.8828125,75.5703125,1,0,0,response7disk,,0,-9.421875,1.0234375,1,0,0,rectangle,-9.421875,1.0234375,1,0,0,-9.421875,1.0234375,1,0,0,0,26,26,149,1,,,,,,,,
,,,,,,,,,,,,,FF,,,,,,,,2.6168,,,,,,,,,,,,,,,,,,,,,,61005c79654dfd48f61ab93c,61036e3fd1f92de10ffb3ef6,2021-07-29_20h14.32.660,Simcolourproject_2stim_asymm_v5,2020.2.10,MacIntel,60,61025ae37ef11b136ea224fe,,,,,,,,,3550,41.2890625,-88.53515625,1,0,0,response3disk,,4,6.109375,-2.796875,1,0,0,rectangle,6.109375,-2.796875,1,0,0,6.109375,-2.796875,1,0,0,0,27,27,118,1,,,,,,,,
,,,,,,,,,,,,,FF,,,,,,,,1.5832,,,,,,,,,,,,,,,,,,,,,,61005c79654dfd48f61ab93c,61036e3fd1f92de10ffb3ef6,2021-07-29_20h14.32.660,Simcolourproject_2stim_asymm_v5,2020.2.10,MacIntel,60,61025ae37ef11b136ea224fe,,,,,,,,,1474,51.67578125,-83.125,1,0,0,response3disk,,4,22.46484375,-6.55078125,1,0,0,rectangle,22.46484375,-6.55078125,1,0,0,22.46484375,-6.55078125,1,0,0,0,28,28,157,1,,,,,,,,
,,,,,,,,,,,,,FF,,,,,,,,0.9331,,,,,,,,,,,,,,,,,,,,,,61005c79654dfd48f61ab93c,61036e3fd1f92de10ffb3ef6,2021-07-29_20h14.32.660,Simcolourproject_2stim_asymm_v5,2020.2.10,MacIntel,60,61025ae37ef11b136ea224fe,,,,,,,,,2475,76.80078125,-31.51171875,1,0,0,response3disk,,5,18.30078125,-3.32421875,1,0,0,rectangle,18.30078125,-3.32421875,1,0,0,18.30078125,-3.32421875,1,0,0,0,29,29,41,1,,,,,,,,
,,,,,,,,,,,,,FF,,,,,,,,0.6005,,,,,,,,,,,,,,,,,,,,,,61005c79654dfd48f61ab93c,61036e3fd1f92de10ffb3ef6,2021-07-29_20h14.32.660,Simcolourproject_2stim_asymm_v5,2020.2.10,MacIntel,60,61025ae37ef11b136ea224fe,,,,,,,,,3648,78.359375,48.58984375,1,0,0,response1disk,,6,-5.27734375,1.61328125,1,0,0,rectangle,-5.27734375,1.61328125,1,0,0,-5.27734375,1.61328125,1,0,0,0,30,30,125,1,,,,,,,,
,,,,,,,,,,,,,FF,,,,,,,,0.7502,,,,,,,,,,,,,,,,,,,,,,61005c79654dfd48f61ab93c,61036e3fd1f92de10ffb3ef6,2021-07-29_20h14.32.660,Simcolourproject_2stim_asymm_v5,2020.2.10,MacIntel,60,61025ae37ef11b136ea224fe,,,,,,,,,2931,82.765625,36.1171875,1,0,0,response1disk,,6,8.90625,-1.6875,1,0,0,rectangle,8.90625,-1.6875,1,0,0,8.90625,-1.6875,1,0,0,0,31,31,57,1,,,,,,,,
,,,,,,,,,,,,,FF,,,,,,,,1.2826,,,,,,,,,,,,,,,,,,,,,,61005c79654dfd48f61ab93c,61036e3fd1f92de10ffb3ef6,2021-07-29_20h14.32.660,Simcolourproject_2stim_asymm_v5,2020.2.10,MacIntel,60,61025ae37ef11b136ea224fe,,,,,,,,,630,-49.21484375,25.375,1,0,0,response7disk,,1,11.3203125,5.00390625,1,0,0,rectangle,11.3203125,5.00390625,1,0,0,11.3203125,5.00390625,1,0,0,0,32,32,56,1,,,,,,,,
,,,,,,,,,,,,,FF,,,,,,,,1.4835,,,,,,,,,,,,,,,,,,,,,,61005c79654dfd48f61ab93c,61036e3fd1f92de10ffb3ef6,2021-07-29_20h14.32.660,Simcolourproject_2stim_asymm_v5,2020.2.10,MacIntel,60,61025ae37ef11b136ea224fe,,,,,,,,,4364,-64.7734375,-27.41796875,1,0,0,response5disk,,2,-17.640625,6.796875,1,0,0,rectangle,-39.4609375,-76.10546875,1,0,0,10.796875,-2.4140625,1,0,0,0,33,33,147,1,,response5disk_3,TRUE,3,3,"[235,170,67,283,36,137,34,106,150,47,161,179,82,145,203,248,231,200,44,172]",2.7008,rectangle
,,,,,,,,,,,,,FF,,,,,,,,1.7333,,,,,,,,,,,,,,,,,,,,,,61005c79654dfd48f61ab93c,61036e3fd1f92de10ffb3ef6,2021-07-29_20h14.32.660,Simcolourproject_2stim_asymm_v5,2020.2.10,MacIntel,60,61025ae37ef11b136ea224fe,,,,,,,,,2759,-36.23828125,28.59765625,1,0,0,response7disk,,1,-17.83203125,9.0625,1,0,0,rectangle,-17.83203125,9.0625,1,0,0,-17.83203125,9.0625,1,0,0,0,34,34,10,1,,,,,,,,
,,,,,,,,,,,,,FF,,,,,,,,0.9175,,,,,,,,,,,,,,,,,,,,,,61005c79654dfd48f61ab93c,61036e3fd1f92de10ffb3ef6,2021-07-29_20h14.32.660,Simcolourproject_2stim_asymm_v5,2020.2.10,MacIntel,60,61025ae37ef11b136ea224fe,,,,,,,,,264,-70.1640625,-48.9921875,1,0,0,response5disk,,2,5.79296875,-4.484375,1,0,0,rectangle,-73.64453125,-40.95703125,1,0,0,4.1484375,-1.34375,1,0,0,0,35,35,117,1,,response5disk_3,TRUE,2,2,"[235,170,67,283,36,137,34,106,150,47,161,179,82,145,203,248,231,200,44,172]",4.15,rectangle
,,,,,,,,,,,,,FF,,,,,,,,1.1009,,,,,,,,,,,,,,,,,,,,,,61005c79654dfd48f61ab93c,61036e3fd1f92de10ffb3ef6,2021-07-29_20h14.32.660,Simcolourproject_2stim_asymm_v5,2020.2.10,MacIntel,60,61025ae37ef11b136ea224fe,,,,,,,,,2493,63.34375,-91.1328125,1,0,0,response3disk,,4,17.66015625,-10.49609375,1,0,0,rectangle,17.66015625,-10.49609375,1,0,0,17.66015625,-10.49609375,1,0,0,0,36,36,101,1,,,,,,,,
,,,,,,,,,,,,,FF,,,,,,,,0.7499,,,,,,,,,,,,,,,,,,,,,,61005c79654dfd48f61ab93c,61036e3fd1f92de10ffb3ef6,2021-07-29_20h14.32.660,Simcolourproject_2stim_asymm_v5,2020.2.10,MacIntel,60,61025ae37ef11b136ea224fe,,,,,,,,,489,59.13671875,-37.53125,1,0,0,response3disk,,5,18.53125,-1.609375,1,0,0,rectangle,18.53125,-1.609375,1,0,0,18.53125,-1.609375,1,0,0,0,37,37,23,1,,,,,,,,
,,,,,,,,,,,,,FF,,,,,,,,0.5339,,,,,,,,,,,,,,,,,,,,,,61005c79654dfd48f61ab93c,61036e3fd1f92de10ffb3ef6,2021-07-29_20h14.32.660,Simcolourproject_2stim_asymm_v5,2020.2.10,MacIntel,60,61025ae37ef11b136ea224fe,,,,,,,,,2921,35.75,-70.71875,1,0,0,response3disk,,4,11.09765625,3.86328125,1,0,0,rectangle,11.09765625,3.86328125,1,0,0,11.09765625,3.86328125,1,0,0,0,38,38,48,1,,,,,,,,
,,,,,,,,,,,,,FF,,,,,,,,1.2327,,,,,,,,,,,,,,,,,,,,,,61005c79654dfd48f61ab93c,61036e3fd1f92de10ffb3ef6,2021-07-29_20h14.32.660,Simcolourproject_2stim_asymm_v5,2020.2.10,MacIntel,60,61025ae37ef11b136ea224fe,,,,,,,,,365,71.12109375,31.828125,1,0,0,response1disk,,6,7.40234375,10.609375,1,0,0,rectangle,7.40234375,10.609375,1,0,0,7.40234375,10.609375,1,0,0,0,39,39,153,1,,,,,,,,
,,,,,,,,,,,,,FF,,,,,,,,0.8674,,,,,,,,,,,,,,,,,,,,,,61005c79654dfd48f61ab93c,61036e3fd1f92de10ffb3ef6,2021-07-29_20h14.32.660,Simcolourproject_2stim_asymm_v5,2020.2.10,MacIntel,60,61025ae37ef11b136ea224fe,,,,,,,,,987,70.88671875,-33.9765625,1,0,0,response3disk,,5,15.03515625,-14.40625,1,0,0,rectangle,15.03515625,-14.40625,1,0,0,15.03515625,-14.40625,1,0,0,0,40,40,5,1,,,,,,,,
,,,,,,,,,,,,,FF,,,,,,,,0.6334,,,,,,,,,,,,,,,,,,,,,,61005c79654dfd48f61ab93c,61036e3fd1f92de10ffb3ef6,2021-07-29_20h14.32.660,Simcolourproject_2stim_asymm_v5,2020.2.10,MacIntel,60,61025ae37ef11b136ea224fe,,,,,,,,,1345,37.3515625,-77.3359375,1,0,0,response3disk,,4,15.69140625,0.3046875,1,0,0,rectangle,15.69140625,0.3046875,1,0,0,15.69140625,0.3046875,1,0,0,0,41,41,83,1,,,,,,,,
,,,,,,,,,,,,,FF,,,,,,,,0.5654,,,,,,,,,,,,,,,,,,,,,,61005c79654dfd48f61ab93c,61036e3fd1f92de10ffb3ef6,2021-07-29_20h14.32.660,Simcolourproject_2stim_asymm_v5,2020.2.10,MacIntel,60,61025ae37ef11b136ea224fe,,,,,,,,,589,54.97265625,-71.7890625,1,0,0,response3disk,,4,4.30859375,7.74609375,1,0,0,rectangle,4.30859375,7.74609375,1,0,0,4.30859375,7.74609375,1,0,0,0,42,42,150,1,,,,,,,,
,,,,,,,,,,,,,FF,,,,,,,,0.4665,,,,,,,,,,,,,,,,,,,,,,61005c79654dfd48f61ab93c,61036e3fd1f92de10ffb3ef6,2021-07-29_20h14.32.660,Simcolourproject_2stim_asymm_v5,2020.2.10,MacIntel,60,61025ae37ef11b136ea224fe,,,,,,,,,2005,41.66796875,-75.640625,1,0,0,response3disk,,4,4.125,-1.16796875,1,0,0,rectangle,-41.80078125,88.33984375,1,0,0,4.25,-11.48046875,1,0,0,0,43,43,146,1,,response7disk_3,TRUE,0,0,"[235,170,67,283,36,137,34,106,150,47,161,179,82,145,203,248,231,200,44,172]",1.5507,rectangle
,,,,,,,,,,,,,FF,,,,,,,,0.8989,,,,,,,,,,,,,,,,,,,,,,61005c79654dfd48f61ab93c,61036e3fd1f92de10ffb3ef6,2021-07-29_20h14.32.660,Simcolourproject_2stim_asymm_v5,2020.2.10,MacIntel,60,61025ae37ef11b136ea224fe,,,,,,,,,3227,62.69140625,34.45703125,1,0,0,response1disk,,6,1.30859375,-9.23046875,1,0,0,rectangle,1.30859375,-9.23046875,1,0,0,1.30859375,-9.23046875,1,0,0,0,44,44,71,1,,,,,,,,
,,,,,,,,,,,,,FF,,,,,,,,0.8834,,,,,,,,,,,,,,,,,,,,,,61005c79654dfd48f61ab93c,61036e3fd1f92de10ffb3ef6,2021-07-29_20h14.32.660,Simcolourproject_2stim_asymm_v5,2020.2.10,MacIntel,60,61025ae37ef11b136ea224fe,,,,,,,,,4168,-43.6875,-87.2734375,1,0,0,response5disk,,3,-6.50390625,-15.015625,1,0,0,rectangle,-6.50390625,-15.015625,1,0,0,-6.50390625,-15.015625,1,0,0,0,45,45,158,1,,,,,,,,
,,,,,,,,,,,,,FF,,,,,,,,0.9672,,,,,,,,,,,,,,,,,,,,,,61005c79654dfd48f61ab93c,61036e3fd1f92de10ffb3ef6,2021-07-29_20h14.32.660,Simcolourproject_2stim_asymm_v5,2020.2.10,MacIntel,60,61025ae37ef11b136ea224fe,,,,,,,,,3627,-40.4296875,-81.6484375,1,0,0,response5disk,,3,2.421875,9.265625,1,0,0,rectangle,-71.56640625,-45.7578125,1,0,0,1.33203125,6.234375,1,0,0,0,46,46,69,1,,response5disk_3,TRUE,2,2,"[235,170,67,283,36,137,34,106,150,47,161,179,82,145,203,248,231,200,44,172]",1.9682,rectangle
,,,,,,,,,,,,,FF,,,,,,,,0.6508,,,,,,,,,,,,,,,,,,,,,,61005c79654dfd48f61ab93c,61036e3fd1f92de10ffb3ef6,2021-07-29_20h14.32.660,Simcolourproject_2stim_asymm_v5,2020.2.10,MacIntel,60,61025ae37ef11b136ea224fe,,,,,,,,,3392,-41.80078125,-74.61328125,1,0,0,response5disk,,3,6.05859375,17.94921875,1,0,0,rectangle,6.05859375,17.94921875,1,0,0,6.05859375,17.94921875,1,0,0,0,47,47,135,1,,,,,,,,
,,,,,,,,,,,,,FF,,,,,,,,0.7345,,,,,,,,,,,,,,,,,,,,,,61005c79654dfd48f61ab93c,61036e3fd1f92de10ffb3ef6,2021-07-29_20h14.32.660,Simcolourproject_2stim_asymm_v5,2020.2.10,MacIntel,60,61025ae37ef11b136ea224fe,,,,,,,,,309,74.0625,-26.39453125,1,0,0,response3disk,,5,22.51953125,-8.74609375,1,0,0,rectangle,22.51953125,-8.74609375,1,0,0,22.51953125,-8.74609375,1,0,0,0,48,48,46,1,,,,,,,,
,,,,,,,,,,,,,FF,,,,,,,,0.6157,,,,,,,,,,,,,,,,,,,,,,61005c79654dfd48f61ab93c,61036e3fd1f92de10ffb3ef6,2021-07-29_20h14.32.660,Simcolourproject_2stim_asymm_v5,2020.2.10,MacIntel,60,61025ae37ef11b136ea224fe,,,,,,,,,2409,66.28125,-30.55859375,1,0,0,response3disk,,5,11.31640625,-7.1171875,1,0,0,rectangle,11.31640625,-7.1171875,1,0,0,11.31640625,-7.1171875,1,0,0,0,49,49,123,1,,,,,,,,
,,,,,,,,,,,,,FF,,,,,,,,0.8337,,,,,,,,,,,,,,,,,,,,,,61005c79654dfd48f61ab93c,61036e3fd1f92de10ffb3ef6,2021-07-29_20h14.32.660,Simcolourproject_2stim_asymm_v5,2020.2.10,MacIntel,60,61025ae37ef11b136ea224fe,,,,,,,,,464,31.1171875,-83.13671875,1,0,0,response3disk,,4,7.671875,-8.58984375,1,0,0,rectangle,7.671875,-8.58984375,1,0,0,7.671875,-8.58984375,1,0,0,0,50,50,129,1,,,,,,,,
,,,,,,,,,,,,,FF,,,,,,,,0.816,,,,,,,,,,,,,,,,,,,,,,61005c79654dfd48f61ab93c,61036e3fd1f92de10ffb3ef6,2021-07-29_20h14.32.660,Simcolourproject_2stim_asymm_v5,2020.2.10,MacIntel,60,61025ae37ef11b136ea224fe,,,,,,,,,3709,41.921875,-68.7109375,1,0,0,response3disk,,4,19.80078125,-8.4609375,1,0,0,rectangle,19.80078125,-8.4609375,1,0,0,19.80078125,-8.4609375,1,0,0,0,51,51,52,1,,,,,,,,
,,,,,,,,,,,,,FF,,,,,,,,0.584,,,,,,,,,,,,,,,,,,,,,,61005c79654dfd48f61ab93c,61036e3fd1f92de10ffb3ef6,2021-07-29_20h14.32.660,Simcolourproject_2stim_asymm_v5,2020.2.10,MacIntel,60,61025ae37ef11b136ea224fe,,,,,,,,,3041,39.5703125,-68.99609375,1,0,0,response3disk,,4,23.24609375,6.57421875,1,0,0,rectangle,23.24609375,6.57421875,1,0,0,23.24609375,6.57421875,1,0,0,0,52,52,28,1,,,,,,,,
,,,,,,,,,,,,,FF,,,,,,,,0.5666,,,,,,,,,,,,,,,,,,,,,,61005c79654dfd48f61ab93c,61036e3fd1f92de10ffb3ef6,2021-07-29_20h14.32.660,Simcolourproject_2stim_asymm_v5,2020.2.10,MacIntel,60,61025ae37ef11b136ea224fe,,,,,,,,,2679,42.99609375,-80.41796875,1,0,0,response3disk,,4,-11.28125,7.49609375,1,0,0,rectangle,-11.28125,7.49609375,1,0,0,-11.28125,7.49609375,1,0,0,0,53,53,50,1,,,,,,,,
,,,,,,,,,,,,,FF,,,,,,,,1.2497,,,,,,,,,,,,,,,,,,,,,,61005c79654dfd48f61ab93c,61036e3fd1f92de10ffb3ef6,2021-07-29_20h14.32.660,Simcolourproject_2stim_asymm_v5,2020.2.10,MacIntel,60,61025ae37ef11b136ea224fe,,,,,,,,,3919,47.68359375,-78.99609375,1,0,0,response3disk,,4,11.79296875,-5.515625,1,0,0,rectangle,11.79296875,-5.515625,1,0,0,11.79296875,-5.515625,1,0,0,0,54,54,93,1,,,,,,,,
,,,,,,,,,,,,,FF,,,,,,,,1.2674,,,,,,,,,,,,,,,,,,,,,,61005c79654dfd48f61ab93c,61036e3fd1f92de10ffb3ef6,2021-07-29_20h14.32.660,Simcolourproject_2stim_asymm_v5,2020.2.10,MacIntel,60,61025ae37ef11b136ea224fe,,,,,,,,,3834,73.8046875,-47.8828125,1,0,0,response3disk,,5,25.5390625,-0.2734375,1,0,0,rectangle,25.5390625,-0.2734375,1,0,0,25.5390625,-0.2734375,1,0,0,0,55,55,109,1,,,,,,,,
,,,,,,,,,,,,,FF,,,,,,,,0.7821,,,,,,,,,,,,,,,,,,,,,,61005c79654dfd48f61ab93c,61036e3fd1f92de10ffb3ef6,2021-07-29_20h14.32.660,Simcolourproject_2stim_asymm_v5,2020.2.10,MacIntel,60,61025ae37ef11b136ea224fe,,,,,,,,,852,74.12109375,-39.734375,1,0,0,response3disk,,5,14.66796875,4.296875,1,0,0,rectangle,14.66796875,4.296875,1,0,0,14.66796875,4.296875,1,0,0,0,56,56,19,1,,,,,,,,
,,,,,,,,,,,,,FF,,,,,,,,0.8176,,,,,,,,,,,,,,,,,,,,,,61005c79654dfd48f61ab93c,61036e3fd1f92de10ffb3ef6,2021-07-29_20h14.32.660,Simcolourproject_2stim_asymm_v5,2020.2.10,MacIntel,60,61025ae37ef11b136ea224fe,,,,,,,,,4140,-38.82421875,54.05859375,1,0,0,response7disk,,0,3.1953125,-1.55078125,1,0,0,rectangle,3.1953125,-1.55078125,1,0,0,3.1953125,-1.55078125,1,0,0,0,57,57,17,1,,,,,,,,
,,,,,,,,,,,,,FF,,,,,,,,1.0007,,,,,,,,,,,,,,,,,,,,,,61005c79654dfd48f61ab93c,61036e3fd1f92de10ffb3ef6,2021-07-29_20h14.32.660,Simcolourproject_2stim_asymm_v5,2020.2.10,MacIntel,60,61025ae37ef11b136ea224fe,,,,,,,,,1966,-76.234375,-39.03515625,1,0,0,response5disk,,2,-4.53515625,-11,1,0,0,rectangle,-4.53515625,-11,1,0,0,-4.53515625,-11,1,0,0,0,58,58,159,1,,,,,,,,
,,,,,,,,,,,,,FF,,,,,,,,0.8662,,,,,,,,,,,,,,,,,,,,,,61005c79654dfd48f61ab93c,61036e3fd1f92de10ffb3ef6,2021-07-29_20h14.32.660,Simcolourproject_2stim_asymm_v5,2020.2.10,MacIntel,60,61025ae37ef11b136ea224fe,,,,,,,,,3795,-34.16796875,-80.734375,1,0,0,response5disk,,3,-8.02734375,-13.3984375,1,0,0,rectangle,-8.02734375,-13.3984375,1,0,0,-8.02734375,-13.3984375,1,0,0,0,59,59,120,1,,,,,,,,
,,,,,,,,,,,,,FF,,,,,,,,0.634,,,,,,,,,,,,,,,,,,,,,,61005c79654dfd48f61ab93c,61036e3fd1f92de10ffb3ef6,2021-07-29_20h14.32.660,Simcolourproject_2stim_asymm_v5,2020.2.10,MacIntel,60,61025ae37ef11b136ea224fe,,,,,,,,,439,-41.53125,-86.40625,1,0,0,response5disk,,3,-5.87890625,-2.23046875,1,0,0,rectangle,-5.87890625,-2.23046875,1,0,0,-5.87890625,-2.23046875,1,0,0,0,60,60,127,1,,,,,,,,
,,,,,,,,,,,,,FF,,,,,,,,0.5824,,,,,,,,,,,,,,,,,,,,,,61005c79654dfd48f61ab93c,61036e3fd1f92de10ffb3ef6,2021-07-29_20h14.32.660,Simcolourproject_2stim_asymm_v5,2020.2.10,MacIntel,60,61025ae37ef11b136ea224fe,,,,,,,,,2253,36.87109375,-75.2109375,1,0,0,response3disk,,4,19.515625,2.79296875,1,0,0,rectangle,19.515625,2.79296875,1,0,0,19.515625,2.79296875,1,0,0,0,61,61,42,1,,,,,,,,
,,,,,,,,,,,,,FF,,,,,,,,0.9838,,,,,,,,,,,,,,,,,,,,,,61005c79654dfd48f61ab93c,61036e3fd1f92de10ffb3ef6,2021-07-29_20h14.32.660,Simcolourproject_2stim_asymm_v5,2020.2.10,MacIntel,60,61025ae37ef11b136ea224fe,,,,,,,,,4356,-32.453125,93.8203125,1,0,0,response7disk,,0,-5.76171875,12.19921875,1,0,0,rectangle,-5.76171875,12.19921875,1,0,0,-5.76171875,12.19921875,1,0,0,0,62,62,37,1,,,,,,,,
,,,,,,,,,,,,,FF,,,,,,,,0.8645,,,,,,,,,,,,,,,,,,,,,,61005c79654dfd48f61ab93c,61036e3fd1f92de10ffb3ef6,2021-07-29_20h14.32.660,Simcolourproject_2stim_asymm_v5,2020.2.10,MacIntel,60,61025ae37ef11b136ea224fe,,,,,,,,,436,-56.46484375,-65.77734375,1,0,0,response5disk,,3,10.1796875,0.4296875,1,0,0,rectangle,10.1796875,0.4296875,1,0,0,10.1796875,0.4296875,1,0,0,0,63,63,121,1,,,,,,,,
,,,,,,,,,,,,,FF,,,,,,,,1.068,,,,,,,,,,,,,,,,,,,,,,61005c79654dfd48f61ab93c,61036e3fd1f92de10ffb3ef6,2021-07-29_20h14.32.660,Simcolourproject_2stim_asymm_v5,2020.2.10,MacIntel,60,61025ae37ef11b136ea224fe,,,,,,,,,1622,53.74609375,-61.7734375,1,0,0,response3disk,,4,27.4296875,1.09765625,1,0,0,rectangle,27.4296875,1.09765625,1,0,0,27.4296875,1.09765625,1,0,0,0,64,64,25,1,,,,,,,,
,,,,,,,,,,,,,FF,,,,,,,,1.1506,,,,,,,,,,,,,,,,,,,,,,61005c79654dfd48f61ab93c,61036e3fd1f92de10ffb3ef6,2021-07-29_20h14.32.660,Simcolourproject_2stim_asymm_v5,2020.2.10,MacIntel,60,61025ae37ef11b136ea224fe,,,,,,,,,3452,87.12890625,-35.93359375,1,0,0,response3disk,,5,14.83984375,-1.578125,1,0,0,rectangle,14.83984375,-1.578125,1,0,0,14.83984375,-1.578125,1,0,0,0,65,65,73,1,,,,,,,,
,,,,,,,,,,,,,FF,,,,,,,,1.0159,,,,,,,,,,,,,,,,,,,,,,61005c79654dfd48f61ab93c,61036e3fd1f92de10ffb3ef6,2021-07-29_20h14.32.660,Simcolourproject_2stim_asymm_v5,2020.2.10,MacIntel,60,61025ae37ef11b136ea224fe,,,,,,,,,1969,39.40625,-88.52734375,1,0,0,response3disk,,4,29.09765625,-12.4609375,1,0,0,rectangle,-76.5390625,46.3828125,1,0,0,-5.74609375,-2.390625,1,0,0,0,66,66,88,1,,response7disk_3,TRUE,1,1,"[235,170,67,283,36,137,34,106,150,47,161,179,82,145,203,248,231,200,44,172]",1.3999,rectangle
,,,,,,,,,,,,,FF,,,,,,,,0.8509,,,,,,,,,,,,,,,,,,,,,,61005c79654dfd48f61ab93c,61036e3fd1f92de10ffb3ef6,2021-07-29_20h14.32.660,Simcolourproject_2stim_asymm_v5,2020.2.10,MacIntel,60,61025ae37ef11b136ea224fe,,,,,,,,,4192,-36.8515625,-81.26171875,1,0,0,response5disk,,3,-7.390625,-14.10546875,1,0,0,rectangle,-7.390625,-14.10546875,1,0,0,-7.390625,-14.10546875,1,0,0,0,67,67,18,1,,,,,,,,
,,,,,,,,,,,,,FF,,,,,,,,0.5176,,,,,,,,,,,,,,,,,,,,,,61005c79654dfd48f61ab93c,61036e3fd1f92de10ffb3ef6,2021-07-29_20h14.32.660,Simcolourproject_2stim_asymm_v5,2020.2.10,MacIntel,60,61025ae37ef11b136ea224fe,,,,,,,,,4215,38.203125,-72.765625,1,0,0,response3disk,,4,-0.32421875,4.45703125,1,0,0,rectangle,-0.32421875,4.45703125,1,0,0,-0.32421875,4.45703125,1,0,0,0,68,68,35,1,,,,,,,,
,,,,,,,,,,,,,FF,,,,,,,,0.4814,,,,,,,,,,,,,,,,,,,,,,61005c79654dfd48f61ab93c,61036e3fd1f92de10ffb3ef6,2021-07-29_20h14.32.660,Simcolourproject_2stim_asymm_v5,2020.2.10,MacIntel,60,61025ae37ef11b136ea224fe,,,,,,,,,3842,65.140625,-36.32421875,1,0,0,response3disk,,5,18.59765625,9.22265625,1,0,0,rectangle,18.59765625,9.22265625,1,0,0,18.59765625,9.22265625,1,0,0,0,69,69,70,1,,,,,,,,
,,,,,,,,,,,,,FF,,,,,,,,1.0823,,,,,,,,,,,,,,,,,,,,,,61005c79654dfd48f61ab93c,61036e3fd1f92de10ffb3ef6,2021-07-29_20h14.32.660,Simcolourproject_2stim_asymm_v5,2020.2.10,MacIntel,60,61025ae37ef11b136ea224fe,,,,,,,,,2310,89.04296875,-37.71875,1,0,0,response3disk,,5,24.19921875,-14.4375,1,0,0,rectangle,24.19921875,-14.4375,1,0,0,24.19921875,-14.4375,1,0,0,0,70,70,40,1,,,,,,,,
,,,,,,,,,,,,,FF,,,,,,,,0.6325,,,,,,,,,,,,,,,,,,,,,,61005c79654dfd48f61ab93c,61036e3fd1f92de10ffb3ef6,2021-07-29_20h14.32.660,Simcolourproject_2stim_asymm_v5,2020.2.10,MacIntel,60,61025ae37ef11b136ea224fe,,,,,,,,,783,67.40234375,-46.37109375,1,0,0,response3disk,,5,10.58984375,-11.03125,1,0,0,rectangle,10.58984375,-11.03125,1,0,0,10.58984375,-11.03125,1,0,0,0,71,71,100,1,,,,,,,,
,,,,,,,,,,,,,FF,,,,,,,,0.8832,,,,,,,,,,,,,,,,,,,,,,61005c79654dfd48f61ab93c,61036e3fd1f92de10ffb3ef6,2021-07-29_20h14.32.660,Simcolourproject_2stim_asymm_v5,2020.2.10,MacIntel,60,61025ae37ef11b136ea224fe,,,,,,,,,2553,88.40625,-22.484375,1,0,0,response3disk,,5,-2.27734375,0.91015625,1,0,0,rectangle,-2.27734375,0.91015625,1,0,0,-2.27734375,0.91015625,1,0,0,0,72,72,34,1,,,,,,,,
,,,,,,,,,,,,,FF,,,,,,,,0.4328,,,,,,,,,,,,,,,,,,,,,,61005c79654dfd48f61ab93c,61036e3fd1f92de10ffb3ef6,2021-07-29_20h14.32.660,Simcolourproject_2stim_asymm_v5,2020.2.10,MacIntel,60,61025ae37ef11b136ea224fe,,,,,,,,,2845,79.0625,-43.0703125,1,0,0,response3disk,,5,19.67578125,-13.76171875,1,0,0,rectangle,19.67578125,-13.76171875,1,0,0,19.67578125,-13.76171875,1,0,0,0,73,73,21,1,,,,,,,,
,,,,,,,,,,,,,FF,,,,,,,,0.4005,,,,,,,,,,,,,,,,,,,,,,61005c79654dfd48f61ab93c,61036e3fd1f92de10ffb3ef6,2021-07-29_20h14.32.660,Simcolourproject_2stim_asymm_v5,2020.2.10,MacIntel,60,61025ae37ef11b136ea224fe,,,,,,,,,502,83.80859375,-45.7109375,1,0,0,response3disk,,5,-6.00390625,11.29296875,1,0,0,rectangle,-6.00390625,11.29296875,1,0,0,-6.00390625,11.29296875,1,0,0,0,74,74,151,1,,,,,,,,
,,,,,,,,,,,,,FF,,,,,,,,0.5668,,,,,,,,,,,,,,,,,,,,,,61005c79654dfd48f61ab93c,61036e3fd1f92de10ffb3ef6,2021-07-29_20h14.32.660,Simcolourproject_2stim_asymm_v5,2020.2.10,MacIntel,60,61025ae37ef11b136ea224fe,,,,,,,,,2838,78.40625,35.921875,1,0,0,response1disk,,6,0.8828125,6.328125,1,0,0,rectangle,0.8828125,6.328125,1,0,0,0.8828125,6.328125,1,0,0,0,75,75,80,1,,,,,,,,
,,,,,,,,,,,,,FF,,,,,,,,0.9851,,,,,,,,,,,,,,,,,,,,,,61005c79654dfd48f61ab93c,61036e3fd1f92de10ffb3ef6,2021-07-29_20h14.32.660,Simcolourproject_2stim_asymm_v5,2020.2.10,MacIntel,60,61025ae37ef11b136ea224fe,,,,,,,,,1218,-50.18359375,-85.84765625,1,0,0,response5disk,,3,-15.31640625,-0.29296875,1,0,0,rectangle,-15.31640625,-0.29296875,1,0,0,-15.31640625,-0.29296875,1,0,0,0,76,76,86,1,,,,,,,,
,,,,,,,,,,,,,FF,,,,,,,,0.899,,,,,,,,,,,,,,,,,,,,,,61005c79654dfd48f61ab93c,61036e3fd1f92de10ffb3ef6,2021-07-29_20h14.32.660,Simcolourproject_2stim_asymm_v5,2020.2.10,MacIntel,60,61025ae37ef11b136ea224fe,,,,,,,,,3025,45.40234375,-84.29296875,1,0,0,response3disk,,4,29.9296875,-3.95703125,1,0,0,rectangle,29.9296875,-3.95703125,1,0,0,29.9296875,-3.95703125,1,0,0,0,77,77,128,1,,,,,,,,
,,,,,,,,,,,,,FF,,,,,,,,1.467,,,,,,,,,,,,,,,,,,,,,,61005c79654dfd48f61ab93c,61036e3fd1f92de10ffb3ef6,2021-07-29_20h14.32.660,Simcolourproject_2stim_asymm_v5,2020.2.10,MacIntel,60,61025ae37ef11b136ea224fe,,,,,,,,,54,79.87890625,-42.62109375,1,0,0,response3disk,,5,15.875,11.1953125,1,0,0,rectangle,15.875,11.1953125,1,0,0,15.875,11.1953125,1,0,0,0,78,78,141,1,,,,,,,,
,,,,,,,,,,,,,FF,,,,,,,,0.7997,,,,,,,,,,,,,,,,,,,,,,61005c79654dfd48f61ab93c,61036e3fd1f92de10ffb3ef6,2021-07-29_20h14.32.660,Simcolourproject_2stim_asymm_v5,2020.2.10,MacIntel,60,61025ae37ef11b136ea224fe,,,,,,,,,4240,-43.50390625,-93.8828125,1,0,0,response5disk,,3,4.58984375,-2.90234375,1,0,0,rectangle,4.58984375,-2.90234375,1,0,0,4.58984375,-2.90234375,1,0,0,0,79,79,43,1,,,,,,,,
,,,,,,,,,,,,,FF,,,,,,,,0.5826,,,,,,,,,,,,,,,,,,,,,,61005c79654dfd48f61ab93c,61036e3fd1f92de10ffb3ef6,2021-07-29_20h14.32.660,Simcolourproject_2stim_asymm_v5,2020.2.10,MacIntel,60,61025ae37ef11b136ea224fe,,,,,,,,,780,-27.0234375,-76.17578125,1,0,0,response5disk,,3,-18.65234375,-1.1640625,1,0,0,rectangle,-18.65234375,-1.1640625,1,0,0,-18.65234375,-1.1640625,1,0,0,0,80,80,63,1,,,,,,,,
,,,,,,,,,,,,,FF,,,,,,,,0.616,,,,,,,,,,,,,,,,,,,,,,61005c79654dfd48f61ab93c,61036e3fd1f92de10ffb3ef6,2021-07-29_20h14.32.660,Simcolourproject_2stim_asymm_v5,2020.2.10,MacIntel,60,61025ae37ef11b136ea224fe,,,,,,,,,1101,40.765625,-80.359375,1,0,0,response3disk,,4,11.66796875,-0.8125,1,0,0,rectangle,43.10546875,96.5546875,1,0,0,-2.9296875,-4.84375,1,0,0,0,81,81,20,1,,response1disk_3,TRUE,7,7,"[235,170,67,283,36,137,34,106,150,47,161,179,82,145,203,248,231,200,44,172]",1.316,rectangle
,,,,,,,,,,,,,FF,,,,,,,,0.5829,,,,,,,,,,,,,,,,,,,,,,61005c79654dfd48f61ab93c,61036e3fd1f92de10ffb3ef6,2021-07-29_20h14.32.660,Simcolourproject_2stim_asymm_v5,2020.2.10,MacIntel,60,61025ae37ef11b136ea224fe,,,,,,,,,4010,66.5078125,-44.14453125,1,0,0,response3disk,,5,10.0390625,-10.21875,1,0,0,rectangle,10.0390625,-10.21875,1,0,0,10.0390625,-10.21875,1,0,0,0,82,82,16,1,,,,,,,,
,,,,,,,,,,,,,FF,,,,,,,,1.2993,,,,,,,,,,,,,,,,,,,,,,61005c79654dfd48f61ab93c,61036e3fd1f92de10ffb3ef6,2021-07-29_20h14.32.660,Simcolourproject_2stim_asymm_v5,2020.2.10,MacIntel,60,61025ae37ef11b136ea224fe,,,,,,,,,3849,-38.375,-73.23046875,1,0,0,response5disk,,3,-3.84375,-8.66796875,1,0,0,rectangle,-3.84375,-8.66796875,1,0,0,-3.84375,-8.66796875,1,0,0,0,83,83,66,1,,,,,,,,
,,,,,,,,,,,,,FF,,,,,,,,0.7165,,,,,,,,,,,,,,,,,,,,,,61005c79654dfd48f61ab93c,61036e3fd1f92de10ffb3ef6,2021-07-29_20h14.32.660,Simcolourproject_2stim_asymm_v5,2020.2.10,MacIntel,60,61025ae37ef11b136ea224fe,,,,,,,,,474,82.94921875,56.21875,1,0,0,response1disk,,6,15.91796875,10.40625,1,0,0,rectangle,15.91796875,10.40625,1,0,0,15.91796875,10.40625,1,0,0,0,84,84,22,1,,,,,,,,
,,,,,,,,,,,,,FF,,,,,,,,0.6997,,,,,,,,,,,,,,,,,,,,,,61005c79654dfd48f61ab93c,61036e3fd1f92de10ffb3ef6,2021-07-29_20h14.32.660,Simcolourproject_2stim_asymm_v5,2020.2.10,MacIntel,60,61025ae37ef11b136ea224fe,,,,,,,,,2826,-25.64453125,-73.65625,1,0,0,response5disk,,3,20.1953125,9.1796875,1,0,0,rectangle,20.1953125,9.1796875,1,0,0,20.1953125,9.1796875,1,0,0,0,85,85,87,1,,,,,,,,
,,,,,,,,,,,,,FF,,,,,,,,0.7336,,,,,,,,,,,,,,,,,,,,,,61005c79654dfd48f61ab93c,61036e3fd1f92de10ffb3ef6,2021-07-29_20h14.32.660,Simcolourproject_2stim_asymm_v5,2020.2.10,MacIntel,60,61025ae37ef11b136ea224fe,,,,,,,,,3830,82.66796875,-65.046875,1,0,0,response3disk,,5,2.30859375,-13.796875,1,0,0,rectangle,2.30859375,-13.796875,1,0,0,2.30859375,-13.796875,1,0,0,0,86,86,133,1,,,,,,,,
,,,,,,,,,,,,,FF,,,,,,,,0.5497,,,,,,,,,,,,,,,,,,,,,,61005c79654dfd48f61ab93c,61036e3fd1f92de10ffb3ef6,2021-07-29_20h14.32.660,Simcolourproject_2stim_asymm_v5,2020.2.10,MacIntel,60,61025ae37ef11b136ea224fe,,,,,,,,,796,78.234375,-49.40625,1,0,0,response3disk,,5,19.9375,1.17578125,1,0,0,rectangle,19.9375,1.17578125,1,0,0,19.9375,1.17578125,1,0,0,0,87,87,114,1,,,,,,,,
,,,,,,,,,,,,,FF,,,,,,,,0.7496,,,,,,,,,,,,,,,,,,,,,,61005c79654dfd48f61ab93c,61036e3fd1f92de10ffb3ef6,2021-07-29_20h14.32.660,Simcolourproject_2stim_asymm_v5,2020.2.10,MacIntel,60,61025ae37ef11b136ea224fe,,,,,,,,,4261,36.5390625,68.26953125,1,0,0,response1disk,,7,-14.859375,-4.01171875,1,0,0,rectangle,-14.859375,-4.01171875,1,0,0,-14.859375,-4.01171875,1,0,0,0,88,88,122,1,,,,,,,,
,,,,,,,,,,,,,FF,,,,,,,,1.4349,,,,,,,,,,,,,,,,,,,,,,61005c79654dfd48f61ab93c,61036e3fd1f92de10ffb3ef6,2021-07-29_20h14.32.660,Simcolourproject_2stim_asymm_v5,2020.2.10,MacIntel,60,61025ae37ef11b136ea224fe,,,,,,,,,3311,77.8125,-41.0625,1,0,0,response3disk,,5,0.1640625,-2.61328125,1,0,0,rectangle,0.1640625,-2.61328125,1,0,0,0.1640625,-2.61328125,1,0,0,0,89,89,98,1,,,,,,,,
,,,,,,,,,,,,,FF,,,,,,,,0.9824,,,,,,,,,,,,,,,,,,,,,,61005c79654dfd48f61ab93c,61036e3fd1f92de10ffb3ef6,2021-07-29_20h14.32.660,Simcolourproject_2stim_asymm_v5,2020.2.10,MacIntel,60,61025ae37ef11b136ea224fe,,,,,,,,,2934,-51.328125,-72.3203125,1,0,0,response5disk,,3,-12.859375,-8.54296875,1,0,0,rectangle,-12.859375,-8.54296875,1,0,0,-12.859375,-8.54296875,1,0,0,0,90,90,102,1,,,,,,,,
,,,,,,,,,,,,,FF,,,,,,,,0.55,,,,,,,,,,,,,,,,,,,,,,61005c79654dfd48f61ab93c,61036e3fd1f92de10ffb3ef6,2021-07-29_20h14.32.660,Simcolourproject_2stim_asymm_v5,2020.2.10,MacIntel,60,61025ae37ef11b136ea224fe,,,,,,,,,2262,80.625,-56.19921875,1,0,0,response3disk,,5,14.38671875,1.3984375,1,0,0,rectangle,14.38671875,1.3984375,1,0,0,14.38671875,1.3984375,1,0,0,0,91,91,95,1,,,,,,,,
,,,,,,,,,,,,,FF,,,,,,,,1.1162,,,,,,,,,,,,,,,,,,,,,,61005c79654dfd48f61ab93c,61036e3fd1f92de10ffb3ef6,2021-07-29_20h14.32.660,Simcolourproject_2stim_asymm_v5,2020.2.10,MacIntel,60,61025ae37ef11b136ea224fe,,,,,,,,,94,-84.1171875,-43.11328125,1,0,0,response5disk,,2,1.85546875,-1.23828125,1,0,0,rectangle,1.85546875,-1.23828125,1,0,0,1.85546875,-1.23828125,1,0,0,0,92,92,74,1,,,,,,,,
,,,,,,,,,,,,,FF,,,,,,,,0.6984,,,,,,,,,,,,,,,,,,,,,,61005c79654dfd48f61ab93c,61036e3fd1f92de10ffb3ef6,2021-07-29_20h14.32.660,Simcolourproject_2stim_asymm_v5,2020.2.10,MacIntel,60,61025ae37ef11b136ea224fe,,,,,,,,,2204,88.01953125,23.515625,1,0,0,response1disk,,6,0.1875,-0.1171875,1,0,0,rectangle,0.1875,-0.1171875,1,0,0,0.1875,-0.1171875,1,0,0,0,93,93,24,1,,,,,,,,
,,,,,,,,,,,,,FF,,,,,,,,0.5322,,,,,,,,,,,,,,,,,,,,,,61005c79654dfd48f61ab93c,61036e3fd1f92de10ffb3ef6,2021-07-29_20h14.32.660,Simcolourproject_2stim_asymm_v5,2020.2.10,MacIntel,60,61025ae37ef11b136ea224fe,,,,,,,,,1173,62.79296875,-42.5859375,1,0,0,response3disk,,5,-18.015625,-16.30078125,1,0,0,rectangle,-18.015625,-16.30078125,1,0,0,-18.015625,-16.30078125,1,0,0,0,94,94,81,1,,,,,,,,
,,,,,,,,,,,,,FF,,,,,,,,0.5497,,,,,,,,,,,,,,,,,,,,,,61005c79654dfd48f61ab93c,61036e3fd1f92de10ffb3ef6,2021-07-29_20h14.32.660,Simcolourproject_2stim_asymm_v5,2020.2.10,MacIntel,60,61025ae37ef11b136ea224fe,,,,,,,,,3322,72.12890625,39.7734375,1,0,0,response1disk,,6,9.34375,3.59765625,1,0,0,rectangle,9.34375,3.59765625,1,0,0,9.34375,3.59765625,1,0,0,0,95,95,39,1,,,,,,,,
,,,,,,,,,,,,,FF,,,,,,,,0.367,,,,,,,,,,,,,,,,,,,,,,61005c79654dfd48f61ab93c,61036e3fd1f92de10ffb3ef6,2021-07-29_20h14.32.660,Simcolourproject_2stim_asymm_v5,2020.2.10,MacIntel,60,61025ae37ef11b136ea224fe,,,,,,,,,1497,86.43359375,29.8203125,1,0,0,response1disk,,6,13.11328125,-4.2734375,1,0,0,rectangle,13.11328125,-4.2734375,1,0,0,13.11328125,-4.2734375,1,0,0,0,96,96,143,1,,,,,,,,
,,,,,,,,,,,,,FF,,,,,,,,0.5507,,,,,,,,,,,,,,,,,,,,,,61005c79654dfd48f61ab93c,61036e3fd1f92de10ffb3ef6,2021-07-29_20h14.32.660,Simcolourproject_2stim_asymm_v5,2020.2.10,MacIntel,60,61025ae37ef11b136ea224fe,,,,,,,,,2904,46.82421875,75.578125,1,0,0,response1disk,,7,21.8984375,9.6640625,1,0,0,rectangle,21.8984375,9.6640625,1,0,0,21.8984375,9.6640625,1,0,0,0,97,97,45,1,,,,,,,,
,,,,,,,,,,,,,FF,,,,,,,,0.9503,,,,,,,,,,,,,,,,,,,,,,61005c79654dfd48f61ab93c,61036e3fd1f92de10ffb3ef6,2021-07-29_20h14.32.660,Simcolourproject_2stim_asymm_v5,2020.2.10,MacIntel,60,61025ae37ef11b136ea224fe,,,,,,,,,2771,42.93359375,-83.08984375,1,0,0,response3disk,,4,-4.43359375,1.2890625,1,0,0,rectangle,-4.43359375,1.2890625,1,0,0,-4.43359375,1.2890625,1,0,0,0,98,98,144,1,,,,,,,,
,,,,,,,,,,,,,FF,,,,,,,,0.8008,,,,,,,,,,,,,,,,,,,,,,61005c79654dfd48f61ab93c,61036e3fd1f92de10ffb3ef6,2021-07-29_20h14.32.660,Simcolourproject_2stim_asymm_v5,2020.2.10,MacIntel,60,61025ae37ef11b136ea224fe,,,,,,,,,1465,-69,-80.77734375,1,0,0,response5disk,,3,-9.42578125,4.0390625,1,0,0,rectangle,-9.42578125,4.0390625,1,0,0,-9.42578125,4.0390625,1,0,0,0,99,99,84,1,,,,,,,,
,,,,,,,,,,,,,FF,,,,,,,,0.5165,,,,,,,,,,,,,,,,,,,,,,61005c79654dfd48f61ab93c,61036e3fd1f92de10ffb3ef6,2021-07-29_20h14.32.660,Simcolourproject_2stim_asymm_v5,2020.2.10,MacIntel,60,61025ae37ef11b136ea224fe,,,,,,,,,1935,40.81640625,-78.48046875,1,0,0,response3disk,,4,20.75390625,1.4375,1,0,0,rectangle,20.75390625,1.4375,1,0,0,20.75390625,1.4375,1,0,0,0,100,100,11,1,,,,,,,,
,,,,,,,,,,,,,FF,,,,,,,,0.5507,,,,,,,,,,,,,,,,,,,,,,61005c79654dfd48f61ab93c,61036e3fd1f92de10ffb3ef6,2021-07-29_20h14.32.660,Simcolourproject_2stim_asymm_v5,2020.2.10,MacIntel,60,61025ae37ef11b136ea224fe,,,,,,,,,3135,56.4453125,-27.2265625,1,0,0,response3disk,,5,1.6640625,-1.3671875,1,0,0,rectangle,1.6640625,-1.3671875,1,0,0,1.6640625,-1.3671875,1,0,0,0,101,101,107,1,,,,,,,,
,,,,,,,,,,,,,FF,,,,,,,,0.4337,,,,,,,,,,,,,,,,,,,,,,61005c79654dfd48f61ab93c,61036e3fd1f92de10ffb3ef6,2021-07-29_20h14.32.660,Simcolourproject_2stim_asymm_v5,2020.2.10,MacIntel,60,61025ae37ef11b136ea224fe,,,,,,,,,3132,47.97265625,-43.50390625,1,0,0,response3disk,,5,-8.69140625,1.05859375,1,0,0,rectangle,-8.69140625,1.05859375,1,0,0,-8.69140625,1.05859375,1,0,0,0,102,102,60,1,,,,,,,,
,,,,,,,,,,,,,FF,,,,,,,,0.7485,,,,,,,,,,,,,,,,,,,,,,61005c79654dfd48f61ab93c,61036e3fd1f92de10ffb3ef6,2021-07-29_20h14.32.660,Simcolourproject_2stim_asymm_v5,2020.2.10,MacIntel,60,61025ae37ef11b136ea224fe,,,,,,,,,1963,-39.14453125,76.86328125,1,0,0,response7disk,,0,1.140625,14.10546875,1,0,0,rectangle,1.140625,14.10546875,1,0,0,1.140625,14.10546875,1,0,0,0,103,103,90,1,,,,,,,,
,,,,,,,,,,,,,FF,,,,,,,,0.8503,,,,,,,,,,,,,,,,,,,,,,61005c79654dfd48f61ab93c,61036e3fd1f92de10ffb3ef6,2021-07-29_20h14.32.660,Simcolourproject_2stim_asymm_v5,2020.2.10,MacIntel,60,61025ae37ef11b136ea224fe,,,,,,,,,2799,69.32421875,40.73046875,1,0,0,response1disk,,6,17.51171875,9.45703125,1,0,0,rectangle,17.51171875,9.45703125,1,0,0,17.51171875,9.45703125,1,0,0,0,104,104,85,1,,,,,,,,
,,,,,,,,,,,,,FF,,,,,,,,0.8319,,,,,,,,,,,,,,,,,,,,,,61005c79654dfd48f61ab93c,61036e3fd1f92de10ffb3ef6,2021-07-29_20h14.32.660,Simcolourproject_2stim_asymm_v5,2020.2.10,MacIntel,60,61025ae37ef11b136ea224fe,,,,,,,,,643,-32.5625,-81.0546875,1,0,0,response5disk,,3,-3.74609375,-6.1484375,1,0,0,rectangle,-36.109375,80.16015625,1,0,0,-3.34375,-0.16796875,1,0,0,0,105,105,94,1,,response7disk_3,TRUE,0,0,"[235,170,67,283,36,137,34,106,150,47,161,179,82,145,203,248,231,200,44,172]",1.3,rectangle
,,,,,,,,,,,,,FF,,,,,,,,1.5496,,,,,,,,,,,,,,,,,,,,,,61005c79654dfd48f61ab93c,61036e3fd1f92de10ffb3ef6,2021-07-29_20h14.32.660,Simcolourproject_2stim_asymm_v5,2020.2.10,MacIntel,60,61025ae37ef11b136ea224fe,,,,,,,,,3154,-48.6015625,-73.5078125,1,0,0,response5disk,,3,4.28125,-8.22265625,1,0,0,rectangle,4.28125,-8.22265625,1,0,0,4.28125,-8.22265625,1,0,0,0,106,106,49,1,,,,,,,,
,,,,,,,,,,,,,FF,,,,,,,,0.6331,,,,,,,,,,,,,,,,,,,,,,61005c79654dfd48f61ab93c,61036e3fd1f92de10ffb3ef6,2021-07-29_20h14.32.660,Simcolourproject_2stim_asymm_v5,2020.2.10,MacIntel,60,61025ae37ef11b136ea224fe,,,,,,,,,1869,92.6796875,-39.81640625,1,0,0,response3disk,,5,2.015625,0.73046875,1,0,0,rectangle,2.015625,0.73046875,1,0,0,2.015625,0.73046875,1,0,0,0,107,107,59,1,,,,,,,,
,,,,,,,,,,,,,FF,,,,,,,,0.3338,,,,,,,,,,,,,,,,,,,,,,61005c79654dfd48f61ab93c,61036e3fd1f92de10ffb3ef6,2021-07-29_20h14.32.660,Simcolourproject_2stim_asymm_v5,2020.2.10,MacIntel,60,61025ae37ef11b136ea224fe,,,,,,,,,2572,76.43359375,-57.12890625,1,0,0,response3disk,,5,7.3203125,-10.28515625,1,0,0,rectangle,7.3203125,-10.28515625,1,0,0,7.3203125,-10.28515625,1,0,0,0,108,108,105,1,,,,,,,,
,,,,,,,,,,,,,FF,,,,,,,,0.5161,,,,,,,,,,,,,,,,,,,,,,61005c79654dfd48f61ab93c,61036e3fd1f92de10ffb3ef6,2021-07-29_20h14.32.660,Simcolourproject_2stim_asymm_v5,2020.2.10,MacIntel,60,61025ae37ef11b136ea224fe,,,,,,,,,2815,68.2265625,-34.13671875,1,0,0,response3disk,,5,-2.1796875,16.26171875,1,0,0,rectangle,-2.1796875,16.26171875,1,0,0,-2.1796875,16.26171875,1,0,0,0,109,109,31,1,,,,,,,,
,,,,,,,,,,,,,FF,,,,,,,,0.6502,,,,,,,,,,,,,,,,,,,,,,61005c79654dfd48f61ab93c,61036e3fd1f92de10ffb3ef6,2021-07-29_20h14.32.660,Simcolourproject_2stim_asymm_v5,2020.2.10,MacIntel,60,61025ae37ef11b136ea224fe,,,,,,,,,2228,-42.515625,-70.15625,1,0,0,response5disk,,3,-3.46484375,-1.66796875,1,0,0,rectangle,-3.46484375,-1.66796875,1,0,0,-3.46484375,-1.66796875,1,0,0,0,110,110,15,1,,,,,,,,
,,,,,,,,,,,,,FF,,,,,,,,0.8001,,,,,,,,,,,,,,,,,,,,,,61005c79654dfd48f61ab93c,61036e3fd1f92de10ffb3ef6,2021-07-29_20h14.32.660,Simcolourproject_2stim_asymm_v5,2020.2.10,MacIntel,60,61025ae37ef11b136ea224fe,,,,,,,,,980,-24.41796875,-85.94140625,1,0,0,response5disk,,3,17.3984375,1.25,1,0,0,rectangle,17.3984375,1.25,1,0,0,17.3984375,1.25,1,0,0,0,111,111,54,1,,,,,,,,
,,,,,,,,,,,,,FF,,,,,,,,0.7666,,,,,,,,,,,,,,,,,,,,,,61005c79654dfd48f61ab93c,61036e3fd1f92de10ffb3ef6,2021-07-29_20h14.32.660,Simcolourproject_2stim_asymm_v5,2020.2.10,MacIntel,60,61025ae37ef11b136ea224fe,,,,,,,,,2229,-35.0390625,-77.6328125,1,0,0,response5disk,,3,23.20703125,2.0546875,1,0,0,rectangle,23.20703125,2.0546875,1,0,0,23.20703125,2.0546875,1,0,0,0,112,112,44,1,,,,,,,,
,,,,,,,,,,,,,FF,,,,,,,,0.9488,,,,,,,,,,,,,,,,,,,,,,61005c79654dfd48f61ab93c,61036e3fd1f92de10ffb3ef6,2021-07-29_20h14.32.660,Simcolourproject_2stim_asymm_v5,2020.2.10,MacIntel,60,61025ae37ef11b136ea224fe,,,,,,,,,901,44.953125,-84.28125,1,0,0,response3disk,,4,0.5078125,7.53125,1,0,0,rectangle,0.5078125,7.53125,1,0,0,0.5078125,7.53125,1,0,0,0,113,113,136,1,,,,,,,,
,,,,,,,,,,,,,FF,,,,,,,,1.4843,,,,,,,,,,,,,,,,,,,,,,61005c79654dfd48f61ab93c,61036e3fd1f92de10ffb3ef6,2021-07-29_20h14.32.660,Simcolourproject_2stim_asymm_v5,2020.2.10,MacIntel,60,61025ae37ef11b136ea224fe,,,,,,,,,3019,102.9960938,-39.41796875,1,0,0,response3disk,,5,22.64453125,1.1328125,1,0,0,rectangle,22.64453125,1.1328125,1,0,0,22.64453125,1.1328125,1,0,0,0,114,114,134,1,,,,,,,,
,,,,,,,,,,,,,FF,,,,,,,,0.7171,,,,,,,,,,,,,,,,,,,,,,61005c79654dfd48f61ab93c,61036e3fd1f92de10ffb3ef6,2021-07-29_20h14.32.660,Simcolourproject_2stim_asymm_v5,2020.2.10,MacIntel,60,61025ae37ef11b136ea224fe,,,,,,,,,1079,67.08203125,18.5,1,0,0,response1disk,,6,12.921875,-0.296875,1,0,0,rectangle,12.921875,-0.296875,1,0,0,12.921875,-0.296875,1,0,0,0,115,115,106,1,,,,,,,,
,,,,,,,,,,,,,FF,,,,,,,,0.6674,,,,,,,,,,,,,,,,,,,,,,61005c79654dfd48f61ab93c,61036e3fd1f92de10ffb3ef6,2021-07-29_20h14.32.660,Simcolourproject_2stim_asymm_v5,2020.2.10,MacIntel,60,61025ae37ef11b136ea224fe,,,,,,,,,138,45.51171875,-65.3046875,1,0,0,response3disk,,4,5.93359375,-7.97265625,1,0,0,rectangle,5.93359375,-7.97265625,1,0,0,5.93359375,-7.97265625,1,0,0,0,116,116,76,1,,,,,,,,
,,,,,,,,,,,,,FF,,,,,,,,1.1993,,,,,,,,,,,,,,,,,,,,,,61005c79654dfd48f61ab93c,61036e3fd1f92de10ffb3ef6,2021-07-29_20h14.32.660,Simcolourproject_2stim_asymm_v5,2020.2.10,MacIntel,60,61025ae37ef11b136ea224fe,,,,,,,,,2302,-47.734375,-95.87890625,1,0,0,response5disk,,3,12.01953125,13.26171875,1,0,0,rectangle,12.01953125,13.26171875,1,0,0,12.01953125,13.26171875,1,0,0,0,117,117,1,1,,,,,,,,
,,,,,,,,,,,,,FF,,,,,,,,0.5664,,,,,,,,,,,,,,,,,,,,,,61005c79654dfd48f61ab93c,61036e3fd1f92de10ffb3ef6,2021-07-29_20h14.32.660,Simcolourproject_2stim_asymm_v5,2020.2.10,MacIntel,60,61025ae37ef11b136ea224fe,,,,,,,,,3644,99.3828125,-36.9609375,1,0,0,response3disk,,5,14.65234375,-2.40625,1,0,0,rectangle,14.65234375,-2.40625,1,0,0,14.65234375,-2.40625,1,0,0,0,118,118,108,1,,,,,,,,
,,,,,,,,,,,,,FF,,,,,,,,0.733,,,,,,,,,,,,,,,,,,,,,,61005c79654dfd48f61ab93c,61036e3fd1f92de10ffb3ef6,2021-07-29_20h14.32.660,Simcolourproject_2stim_asymm_v5,2020.2.10,MacIntel,60,61025ae37ef11b136ea224fe,,,,,,,,,2719,-67.82421875,-31.15234375,1,0,0,response5disk,,2,22.15625,12.6640625,1,0,0,rectangle,22.15625,12.6640625,1,0,0,22.15625,12.6640625,1,0,0,0,119,119,140,1,,,,,,,,
,,,,,,,,,,,,,FF,,,,,,,,0.966,,,,,,,,,,,,,,,,,,,,,,61005c79654dfd48f61ab93c,61036e3fd1f92de10ffb3ef6,2021-07-29_20h14.32.660,Simcolourproject_2stim_asymm_v5,2020.2.10,MacIntel,60,61025ae37ef11b136ea224fe,,,,,,,,,1511,42.625,-78.48046875,1,0,0,response3disk,,4,7.953125,12.0390625,1,0,0,rectangle,7.953125,12.0390625,1,0,0,7.953125,12.0390625,1,0,0,0,120,120,89,1,,,,,,,,
,,,,,,,,,,,,,FF,,,,,,,,0.6165,,,,,,,,,,,,,,,,,,,,,,61005c79654dfd48f61ab93c,61036e3fd1f92de10ffb3ef6,2021-07-29_20h14.32.660,Simcolourproject_2stim_asymm_v5,2020.2.10,MacIntel,60,61025ae37ef11b136ea224fe,,,,,,,,,2979,76.63671875,24.80859375,1,0,0,response1disk,,6,5.2109375,17.7734375,1,0,0,rectangle,5.2109375,17.7734375,1,0,0,5.2109375,17.7734375,1,0,0,0,121,121,126,1,,,,,,,,
,,,,,,,,,,,,,FF,,,,,,,,0.6164,,,,,,,,,,,,,,,,,,,,,,61005c79654dfd48f61ab93c,61036e3fd1f92de10ffb3ef6,2021-07-29_20h14.32.660,Simcolourproject_2stim_asymm_v5,2020.2.10,MacIntel,60,61025ae37ef11b136ea224fe,,,,,,,,,1769,76.515625,55.484375,1,0,0,response1disk,,6,-8.16796875,2.13671875,1,0,0,rectangle,-8.16796875,2.13671875,1,0,0,-8.16796875,2.13671875,1,0,0,0,122,122,58,1,,,,,,,,
,,,,,,,,,,,,,FF,,,,,,,,0.5501,,,,,,,,,,,,,,,,,,,,,,61005c79654dfd48f61ab93c,61036e3fd1f92de10ffb3ef6,2021-07-29_20h14.32.660,Simcolourproject_2stim_asymm_v5,2020.2.10,MacIntel,60,61025ae37ef11b136ea224fe,,,,,,,,,1857,66.61328125,-36.33203125,1,0,0,response3disk,,5,-18.171875,8.90234375,1,0,0,rectangle,-18.171875,8.90234375,1,0,0,-18.171875,8.90234375,1,0,0,0,123,123,36,1,,,,,,,,
,,,,,,,,,,,,,FF,,,,,,,,0.8493,,,,,,,,,,,,,,,,,,,,,,61005c79654dfd48f61ab93c,61036e3fd1f92de10ffb3ef6,2021-07-29_20h14.32.660,Simcolourproject_2stim_asymm_v5,2020.2.10,MacIntel,60,61025ae37ef11b136ea224fe,,,,,,,,,2780,-53.234375,-79.125,1,0,0,response5disk,,3,-6.46484375,-11.02734375,1,0,0,rectangle,-6.46484375,-11.02734375,1,0,0,-6.46484375,-11.02734375,1,0,0,0,124,124,154,1,,,,,,,,
,,,,,,,,,,,,,FF,,,,,,,,1.4007,,,,,,,,,,,,,,,,,,,,,,61005c79654dfd48f61ab93c,61036e3fd1f92de10ffb3ef6,2021-07-29_20h14.32.660,Simcolourproject_2stim_asymm_v5,2020.2.10,MacIntel,60,61025ae37ef11b136ea224fe,,,,,,,,,517,91.859375,-39.94921875,1,0,0,response3disk,,5,9.1953125,4.30859375,1,0,0,rectangle,9.1953125,4.30859375,1,0,0,9.1953125,4.30859375,1,0,0,0,125,125,29,1,,,,,,,,
,,,,,,,,,,,,,FF,,,,,,,,0.9503,,,,,,,,,,,,,,,,,,,,,,61005c79654dfd48f61ab93c,61036e3fd1f92de10ffb3ef6,2021-07-29_20h14.32.660,Simcolourproject_2stim_asymm_v5,2020.2.10,MacIntel,60,61025ae37ef11b136ea224fe,,,,,,,,,954,-41.984375,-79,1,0,0,response5disk,,3,4.45703125,-3.01171875,1,0,0,rectangle,4.45703125,-3.01171875,1,0,0,4.45703125,-3.01171875,1,0,0,0,126,126,7,1,,,,,,,,
,,,,,,,,,,,,,FF,,,,,,,,0.433,,,,,,,,,,,,,,,,,,,,,,61005c79654dfd48f61ab93c,61036e3fd1f92de10ffb3ef6,2021-07-29_20h14.32.660,Simcolourproject_2stim_asymm_v5,2020.2.10,MacIntel,60,61025ae37ef11b136ea224fe,,,,,,,,,3692,72.1484375,-43.33203125,1,0,0,response3disk,,5,8.9921875,-3.34375,1,0,0,rectangle,8.9921875,-3.34375,1,0,0,8.9921875,-3.34375,1,0,0,0,127,127,103,1,,,,,,,,
,,,,,,,,,,,,,FF,,,,,,,,0.4002,,,,,,,,,,,,,,,,,,,,,,61005c79654dfd48f61ab93c,61036e3fd1f92de10ffb3ef6,2021-07-29_20h14.32.660,Simcolourproject_2stim_asymm_v5,2020.2.10,MacIntel,60,61025ae37ef11b136ea224fe,,,,,,,,,574,84.6015625,-39.30078125,1,0,0,response3disk,,5,-0.40234375,8.62109375,1,0,0,rectangle,-0.40234375,8.62109375,1,0,0,-0.40234375,8.62109375,1,0,0,0,128,128,38,1,,,,,,,,
,,,,,,,,,,,,,FF,,,,,,,,0.5165,,,,,,,,,,,,,,,,,,,,,,61005c79654dfd48f61ab93c,61036e3fd1f92de10ffb3ef6,2021-07-29_20h14.32.660,Simcolourproject_2stim_asymm_v5,2020.2.10,MacIntel,60,61025ae37ef11b136ea224fe,,,,,,,,,362,79.1171875,32.34375,1,0,0,response1disk,,6,21.08984375,-6.27734375,1,0,0,rectangle,21.08984375,-6.27734375,1,0,0,21.08984375,-6.27734375,1,0,0,0,129,129,116,1,,,,,,,,
,,,,,,,,,,,,,FF,,,,,,,,0.7507,,,,,,,,,,,,,,,,,,,,,,61005c79654dfd48f61ab93c,61036e3fd1f92de10ffb3ef6,2021-07-29_20h14.32.660,Simcolourproject_2stim_asymm_v5,2020.2.10,MacIntel,60,61025ae37ef11b136ea224fe,,,,,,,,,3343,-57.83203125,-29.5234375,1,0,0,response5disk,,2,-10.07421875,7.03515625,1,0,0,rectangle,-10.07421875,7.03515625,1,0,0,-10.07421875,7.03515625,1,0,0,0,130,130,67,1,,,,,,,,
,,,,,,,,,,,,,FF,,,,,,,,1.0504,,,,,,,,,,,,,,,,,,,,,,61005c79654dfd48f61ab93c,61036e3fd1f92de10ffb3ef6,2021-07-29_20h14.32.660,Simcolourproject_2stim_asymm_v5,2020.2.10,MacIntel,60,61025ae37ef11b136ea224fe,,,,,,,,,735,-28.88671875,-72.48828125,1,0,0,response5disk,,3,2.68359375,-5.41015625,1,0,0,rectangle,2.68359375,-5.41015625,1,0,0,2.68359375,-5.41015625,1,0,0,0,131,131,111,1,,,,,,,,
,,,,,,,,,,,,,FF,,,,,,,,1.2158,,,,,,,,,,,,,,,,,,,,,,61005c79654dfd48f61ab93c,61036e3fd1f92de10ffb3ef6,2021-07-29_20h14.32.660,Simcolourproject_2stim_asymm_v5,2020.2.10,MacIntel,60,61025ae37ef11b136ea224fe,,,,,,,,,1937,37.875,-54.02734375,1,0,0,response3disk,,4,14.0390625,3.44140625,1,0,0,rectangle,14.0390625,3.44140625,1,0,0,14.0390625,3.44140625,1,0,0,0,132,132,65,1,,,,,,,,
,,,,,,,,,,,,,FF,,,,,,,,0.433,,,,,,,,,,,,,,,,,,,,,,61005c79654dfd48f61ab93c,61036e3fd1f92de10ffb3ef6,2021-07-29_20h14.32.660,Simcolourproject_2stim_asymm_v5,2020.2.10,MacIntel,60,61025ae37ef11b136ea224fe,,,,,,,,,3321,71.64453125,39.625,1,0,0,response1disk,,6,-1.44921875,0.68359375,1,0,0,rectangle,-1.44921875,0.68359375,1,0,0,-1.44921875,0.68359375,1,0,0,0,133,133,131,1,,,,,,,,
,,,,,,,,,,,,,FF,,,,,,,,0.8329,,,,,,,,,,,,,,,,,,,,,,61005c79654dfd48f61ab93c,61036e3fd1f92de10ffb3ef6,2021-07-29_20h14.32.660,Simcolourproject_2stim_asymm_v5,2020.2.10,MacIntel,60,61025ae37ef11b136ea224fe,,,,,,,,,3877,71.07421875,-43.28125,1,0,0,response3disk,,5,16.84375,2.37890625,1,0,0,rectangle,16.84375,2.37890625,1,0,0,16.84375,2.37890625,1,0,0,0,134,134,91,1,,,,,,,,
,,,,,,,,,,,,,FF,,,,,,,,0.7826,,,,,,,,,,,,,,,,,,,,,,61005c79654dfd48f61ab93c,61036e3fd1f92de10ffb3ef6,2021-07-29_20h14.32.660,Simcolourproject_2stim_asymm_v5,2020.2.10,MacIntel,60,61025ae37ef11b136ea224fe,,,,,,,,,3672,-61.00390625,-85.90625,1,0,0,response5disk,,3,-9.0703125,-0.078125,1,0,0,rectangle,-9.0703125,-0.078125,1,0,0,-9.0703125,-0.078125,1,0,0,0,135,135,119,1,,,,,,,,
,,,,,,,,,,,,,FF,,,,,,,,1.5172,,,,,,,,,,,,,,,,,,,,,,61005c79654dfd48f61ab93c,61036e3fd1f92de10ffb3ef6,2021-07-29_20h14.32.660,Simcolourproject_2stim_asymm_v5,2020.2.10,MacIntel,60,61025ae37ef11b136ea224fe,,,,,,,,,838,76.91015625,-20.84375,1,0,0,response3disk,,5,11.2890625,3.359375,1,0,0,rectangle,-41.87109375,-89.71484375,1,0,0,-3.8359375,10.796875,1,0,0,0,136,136,124,1,,response5disk_3,TRUE,3,3,"[235,170,67,283,36,137,34,106,150,47,161,179,82,145,203,248,231,200,44,172]",1.6997,rectangle
,,,,,,,,,,,,,FF,,,,,,,,1.0672,,,,,,,,,,,,,,,,,,,,,,61005c79654dfd48f61ab93c,61036e3fd1f92de10ffb3ef6,2021-07-29_20h14.32.660,Simcolourproject_2stim_asymm_v5,2020.2.10,MacIntel,60,61025ae37ef11b136ea224fe,,,,,,,,,1648,82.37109375,32.69140625,1,0,0,response1disk,,6,5.08984375,-5.37109375,1,0,0,rectangle,5.08984375,-5.37109375,1,0,0,5.08984375,-5.37109375,1,0,0,0,137,137,27,1,,,,,,,,
,,,,,,,,,,,,,FF,,,,,,,,0.767,,,,,,,,,,,,,,,,,,,,,,61005c79654dfd48f61ab93c,61036e3fd1f92de10ffb3ef6,2021-07-29_20h14.32.660,Simcolourproject_2stim_asymm_v5,2020.2.10,MacIntel,60,61025ae37ef11b136ea224fe,,,,,,,,,3142,-22.62890625,-65.8125,1,0,0,response5disk,,3,0.8203125,-1.421875,1,0,0,rectangle,0.8203125,-1.421875,1,0,0,0.8203125,-1.421875,1,0,0,0,138,138,92,1,,,,,,,,
,,,,,,,,,,,,,FF,,,,,,,,0.9036,,,,,,,,,,,,,,,,,,,,,,61005c79654dfd48f61ab93c,61036e3fd1f92de10ffb3ef6,2021-07-29_20h14.32.660,Simcolourproject_2stim_asymm_v5,2020.2.10,MacIntel,60,61025ae37ef11b136ea224fe,,,,,,,,,742,42.22265625,-69.66796875,1,0,0,response3disk,,4,21.3203125,4.04296875,1,0,0,rectangle,21.3203125,4.04296875,1,0,0,21.3203125,4.04296875,1,0,0,0,139,139,96,1,,,,,,,,
,,,,,,,,,,,,,FF,,,,,,,,1.7826,,,,,,,,,,,,,,,,,,,,,,61005c79654dfd48f61ab93c,61036e3fd1f92de10ffb3ef6,2021-07-29_20h14.32.660,Simcolourproject_2stim_asymm_v5,2020.2.10,MacIntel,60,61025ae37ef11b136ea224fe,,,,,,,,,3159,-43.53125,-76.671875,1,0,0,response5disk,,3,1.0703125,9.99609375,1,0,0,rectangle,1.0703125,9.99609375,1,0,0,1.0703125,9.99609375,1,0,0,0,140,140,77,1,,,,,,,,
,,,,,,,,,,,,,FF,,,,,,,,0.9166,,,,,,,,,,,,,,,,,,,,,,61005c79654dfd48f61ab93c,61036e3fd1f92de10ffb3ef6,2021-07-29_20h14.32.660,Simcolourproject_2stim_asymm_v5,2020.2.10,MacIntel,60,61025ae37ef11b136ea224fe,,,,,,,,,4336,-42.09375,-62.00390625,1,0,0,response5disk,,3,-1.70703125,-0.91796875,1,0,0,rectangle,-1.70703125,-0.91796875,1,0,0,-1.70703125,-0.91796875,1,0,0,0,141,141,2,1,,,,,,,,
,,,,,,,,,,,,,FF,,,,,,,,0.451,,,,,,,,,,,,,,,,,,,,,,61005c79654dfd48f61ab93c,61036e3fd1f92de10ffb3ef6,2021-07-29_20h14.32.660,Simcolourproject_2stim_asymm_v5,2020.2.10,MacIntel,60,61025ae37ef11b136ea224fe,,,,,,,,,1529,-38.00390625,-69.39453125,1,0,0,response5disk,,3,-2.41015625,-8,1,0,0,rectangle,-2.41015625,-8,1,0,0,-2.41015625,-8,1,0,0,0,142,142,132,1,,,,,,,,
,,,,,,,,,,,,,FF,,,,,,,,0.5836,,,,,,,,,,,,,,,,,,,,,,61005c79654dfd48f61ab93c,61036e3fd1f92de10ffb3ef6,2021-07-29_20h14.32.660,Simcolourproject_2stim_asymm_v5,2020.2.10,MacIntel,60,61025ae37ef11b136ea224fe,,,,,,,,,3787,-31.734375,-56.890625,1,0,0,response5disk,,3,13.60546875,13.5,1,0,0,rectangle,13.60546875,13.5,1,0,0,13.60546875,13.5,1,0,0,0,143,143,130,1,,,,,,,,
,,,,,,,,,,,,,FF,,,,,,,,0.8172,,,,,,,,,,,,,,,,,,,,,,61005c79654dfd48f61ab93c,61036e3fd1f92de10ffb3ef6,2021-07-29_20h14.32.660,Simcolourproject_2stim_asymm_v5,2020.2.10,MacIntel,60,61025ae37ef11b136ea224fe,,,,,,,,,2513,78.9375,-35.8125,1,0,0,response3disk,,5,22.47265625,-1.5703125,1,0,0,rectangle,100.9726563,34.42578125,1,0,0,22.09765625,1.1484375,1,0,0,0,144,144,110,1,,response1disk_3,TRUE,6,6,"[235,170,67,283,36,137,34,106,150,47,161,179,82,145,203,248,231,200,44,172]",1.4327,rectangle
,,,,,,,,,,,,,FF,,,,,,,,1.416,,,,,,,,,,,,,,,,,,,,,,61005c79654dfd48f61ab93c,61036e3fd1f92de10ffb3ef6,2021-07-29_20h14.32.660,Simcolourproject_2stim_asymm_v5,2020.2.10,MacIntel,60,61025ae37ef11b136ea224fe,,,,,,,,,697,25.63671875,-83.25390625,1,0,0,response3disk,,4,-0.40625,-13.91015625,1,0,0,rectangle,-0.40625,-13.91015625,1,0,0,-0.40625,-13.91015625,1,0,0,0,145,145,148,1,,,,,,,,
,,,,,,,,,,,,,FF,,,,,,,,1.015,,,,,,,,,,,,,,,,,,,,,,61005c79654dfd48f61ab93c,61036e3fd1f92de10ffb3ef6,2021-07-29_20h14.32.660,Simcolourproject_2stim_asymm_v5,2020.2.10,MacIntel,60,61025ae37ef11b136ea224fe,,,,,,,,,3337,38.9765625,-75.22265625,1,0,0,response3disk,,4,18.328125,-3.53515625,1,0,0,rectangle,18.328125,-3.53515625,1,0,0,18.328125,-3.53515625,1,0,0,0,146,146,104,1,,,,,,,,
,,,,,,,,,,,,,FF,,,,,,,,0.6497,,,,,,,,,,,,,,,,,,,,,,61005c79654dfd48f61ab93c,61036e3fd1f92de10ffb3ef6,2021-07-29_20h14.32.660,Simcolourproject_2stim_asymm_v5,2020.2.10,MacIntel,60,61025ae37ef11b136ea224fe,,,,,,,,,1154,41.42578125,-64.48046875,1,0,0,response3disk,,4,7.74609375,-1.953125,1,0,0,rectangle,7.74609375,-1.953125,1,0,0,7.74609375,-1.953125,1,0,0,0,147,147,53,1,,,,,,,,
,,,,,,,,,,,,,FF,,,,,,,,1.0163,,,,,,,,,,,,,,,,,,,,,,61005c79654dfd48f61ab93c,61036e3fd1f92de10ffb3ef6,2021-07-29_20h14.32.660,Simcolourproject_2stim_asymm_v5,2020.2.10,MacIntel,60,61025ae37ef11b136ea224fe,,,,,,,,,1068,-38.05859375,-52.45703125,1,0,0,response5disk,,3,-0.7109375,-4.68359375,1,0,0,rectangle,-0.7109375,-4.68359375,1,0,0,-0.7109375,-4.68359375,1,0,0,0,148,148,9,1,,,,,,,,
,,,,,,,,,,,,,FF,,,,,,,,0.5985,,,,,,,,,,,,,,,,,,,,,,61005c79654dfd48f61ab93c,61036e3fd1f92de10ffb3ef6,2021-07-29_20h14.32.660,Simcolourproject_2stim_asymm_v5,2020.2.10,MacIntel,60,61025ae37ef11b136ea224fe,,,,,,,,,1124,67.41015625,-25.16015625,1,0,0,response3disk,,5,19.5859375,7.578125,1,0,0,rectangle,-32.78125,82.73828125,1,0,0,-9.12890625,9.92578125,1,0,0,0,149,149,8,1,,response7disk_3,TRUE,0,0,"[235,170,67,283,36,137,34,106,150,47,161,179,82,145,203,248,231,200,44,172]",1.2496,rectangle
,,,,,,,,,,,,,FF,,,,,,,,0.8331,,,,,,,,,,,,,,,,,,,,,,61005c79654dfd48f61ab93c,61036e3fd1f92de10ffb3ef6,2021-07-29_20h14.32.660,Simcolourproject_2stim_asymm_v5,2020.2.10,MacIntel,60,61025ae37ef11b136ea224fe,,,,,,,,,2158,78.99609375,-33,1,0,0,response3disk,,5,10.203125,-4.3359375,1,0,0,rectangle,10.203125,-4.3359375,1,0,0,10.203125,-4.3359375,1,0,0,0,150,150,78,1,,,,,,,,
,,,,,,,,,,,,,FF,,,,,,,,0.7996,,,,,,,,,,,,,,,,,,,,,,61005c79654dfd48f61ab93c,61036e3fd1f92de10ffb3ef6,2021-07-29_20h14.32.660,Simcolourproject_2stim_asymm_v5,2020.2.10,MacIntel,60,61025ae37ef11b136ea224fe,,,,,,,,,660,56.08203125,-29.61328125,1,0,0,response3disk,,5,21.59765625,-3.7578125,1,0,0,rectangle,21.59765625,-3.7578125,1,0,0,21.59765625,-3.7578125,1,0,0,0,151,151,32,1,,,,,,,,
,,,,,,,,,,,,,FF,,,,,,,,0.7157,,,,,,,,,,,,,,,,,,,,,,61005c79654dfd48f61ab93c,61036e3fd1f92de10ffb3ef6,2021-07-29_20h14.32.660,Simcolourproject_2stim_asymm_v5,2020.2.10,MacIntel,60,61025ae37ef11b136ea224fe,,,,,,,,,2919,68.859375,28.625,1,0,0,response1disk,,6,-6.9609375,-3.71484375,1,0,0,rectangle,-6.9609375,-3.71484375,1,0,0,-6.9609375,-3.71484375,1,0,0,0,152,152,13,1,,,,,,,,
,,,,,,,,,,,,,FF,,,,,,,,1.6666,,,,,,,,,,,,,,,,,,,,,,61005c79654dfd48f61ab93c,61036e3fd1f92de10ffb3ef6,2021-07-29_20h14.32.660,Simcolourproject_2stim_asymm_v5,2020.2.10,MacIntel,60,61025ae37ef11b136ea224fe,,,,,,,,,355,-31.65625,-92.36328125,1,0,0,response5disk,,3,-1.609375,11.87890625,1,0,0,rectangle,-1.609375,11.87890625,1,0,0,-1.609375,11.87890625,1,0,0,0,153,153,4,1,,,,,,,,
,,,,,,,,,,,,,FF,,,,,,,,0.9827,,,,,,,,,,,,,,,,,,,,,,61005c79654dfd48f61ab93c,61036e3fd1f92de10ffb3ef6,2021-07-29_20h14.32.660,Simcolourproject_2stim_asymm_v5,2020.2.10,MacIntel,60,61025ae37ef11b136ea224fe,,,,,,,,,4251,-75.09375,33.91015625,1,0,0,response7disk,,1,-1.1484375,9.90625,1,0,0,rectangle,-1.1484375,9.90625,1,0,0,-1.1484375,9.90625,1,0,0,0,154,154,64,1,,,,,,,,
,,,,,,,,,,,,,FF,,,,,,,,1.0997,,,,,,,,,,,,,,,,,,,,,,61005c79654dfd48f61ab93c,61036e3fd1f92de10ffb3ef6,2021-07-29_20h14.32.660,Simcolourproject_2stim_asymm_v5,2020.2.10,MacIntel,60,61025ae37ef11b136ea224fe,,,,,,,,,162,-78.2578125,31.75,1,0,0,response7disk,,1,-30.21484375,-1.89453125,1,0,0,rectangle,-30.21484375,-1.89453125,1,0,0,-30.21484375,-1.89453125,1,0,0,0,155,155,6,1,,,,,,,,
,,,,,,,,,,,,,FF,,,,,,,,1.5667,,,,,,,,,,,,,,,,,,,,,,61005c79654dfd48f61ab93c,61036e3fd1f92de10ffb3ef6,2021-07-29_20h14.32.660,Simcolourproject_2stim_asymm_v5,2020.2.10,MacIntel,60,61025ae37ef11b136ea224fe,,,,,,,,,1030,81.37890625,33.09375,1,0,0,response1disk,,6,16.1484375,-5.328125,1,0,0,rectangle,16.1484375,-5.328125,1,0,0,16.1484375,-5.328125,1,0,0,0,156,156,97,1,,,,,,,,
,,,,,,,,,,,,,FF,,,,,,,,0.6164,,,,,,,,,,,,,,,,,,,,,,61005c79654dfd48f61ab93c,61036e3fd1f92de10ffb3ef6,2021-07-29_20h14.32.660,Simcolourproject_2stim_asymm_v5,2020.2.10,MacIntel,60,61025ae37ef11b136ea224fe,,,,,,,,,432,-51.3046875,-70.62109375,1,0,0,response5disk,,3,4.34765625,4.2109375,1,0,0,rectangle,4.34765625,4.2109375,1,0,0,4.34765625,4.2109375,1,0,0,0,157,157,152,1,,,,,,,,
,,,,,,,,,,,,,FF,,,,,,,,0.7668,,,,,,,,,,,,,,,,,,,,,,61005c79654dfd48f61ab93c,61036e3fd1f92de10ffb3ef6,2021-07-29_20h14.32.660,Simcolourproject_2stim_asymm_v5,2020.2.10,MacIntel,60,61025ae37ef11b136ea224fe,,,,,,,,,2489,-47.41796875,-61.37890625,1,0,0,response5disk,,3,-5.33203125,-5.47265625,1,0,0,rectangle,-5.33203125,-5.47265625,1,0,0,-5.33203125,-5.47265625,1,0,0,0,158,158,139,1,,,,,,,,
,,,,,,,,,,,,,FF,,,,,,,,0.8995,,,,,,,,,,,,,,,,,,,,,,61005c79654dfd48f61ab93c,61036e3fd1f92de10ffb3ef6,2021-07-29_20h14.32.660,Simcolourproject_2stim_asymm_v5,2020.2.10,MacIntel,60,61025ae37ef11b136ea224fe,,,,,,,,,483,75.78125,-47.08203125,1,0,0,response3disk,,5,5.55078125,-0.7265625,1,0,0,rectangle,5.55078125,-0.7265625,1,0,0,5.55078125,-0.7265625,1,0,0,0,159,159,47,1,,,,,,,,
,,,,,,,,,,,,,FF,,,,,,,,0.616,,,,,,,,,,,,,,,,,,,,,,61005c79654dfd48f61ab93c,61036e3fd1f92de10ffb3ef6,2021-07-29_20h14.32.660,Simcolourproject_2stim_asymm_v5,2020.2.10,MacIntel,60,61025ae37ef11b136ea224fe,,,,,,,,,2992,78.0390625,31.41015625,1,0,0,response1disk,,6,8.83203125,2.53125,1,0,0,rectangle,-36.6328125,-90.94921875,1,0,0,0.8828125,-0.03515625,1,0,0,1,0,160,67,1,,response5disk_3,TRUE,3,3,"[235,170,67,283,36,137,34,106,150,47,161,179,82,145,203,248,231,200,44,172]",2.2165,rectangle
,,,,,,,,,,,,,FF,,,,,,,,0.7323,,,,,,,,,,,,,,,,,,,,,,61005c79654dfd48f61ab93c,61036e3fd1f92de10ffb3ef6,2021-07-29_20h14.32.660,Simcolourproject_2stim_asymm_v5,2020.2.10,MacIntel,60,61025ae37ef11b136ea224fe,,,,,,,,,1928,66.9140625,44.2421875,1,0,0,response1disk,,6,11.6328125,14.05859375,1,0,0,rectangle,11.6328125,14.05859375,1,0,0,11.6328125,14.05859375,1,0,0,1,1,161,50,1,,,,,,,,
,,,,,,,,,,,,,FF,,,,,,,,0.7006,,,,,,,,,,,,,,,,,,,,,,61005c79654dfd48f61ab93c,61036e3fd1f92de10ffb3ef6,2021-07-29_20h14.32.660,Simcolourproject_2stim_asymm_v5,2020.2.10,MacIntel,60,61025ae37ef11b136ea224fe,,,,,,,,,167,-38.26953125,-67.828125,1,0,0,response5disk,,3,-14.20703125,-11.26953125,1,0,0,rectangle,-14.20703125,-11.26953125,1,0,0,-14.20703125,-11.26953125,1,0,0,1,2,162,68,1,,,,,,,,
,,,,,,,,,,,,,FF,,,,,,,,0.9,,,,,,,,,,,,,,,,,,,,,,61005c79654dfd48f61ab93c,61036e3fd1f92de10ffb3ef6,2021-07-29_20h14.32.660,Simcolourproject_2stim_asymm_v5,2020.2.10,MacIntel,60,61025ae37ef11b136ea224fe,,,,,,,,,806,-62.5703125,-37.1796875,1,0,0,response5disk,,2,0.2109375,-4.2109375,1,0,0,rectangle,0.2109375,-4.2109375,1,0,0,0.2109375,-4.2109375,1,0,0,1,3,163,73,1,,,,,,,,
,,,,,,,,,,,,,FF,,,,,,,,0.8679,,,,,,,,,,,,,,,,,,,,,,61005c79654dfd48f61ab93c,61036e3fd1f92de10ffb3ef6,2021-07-29_20h14.32.660,Simcolourproject_2stim_asymm_v5,2020.2.10,MacIntel,60,61025ae37ef11b136ea224fe,,,,,,,,,4324,50.66796875,88.33984375,1,0,0,response1disk,,7,2.87109375,10.83984375,1,0,0,rectangle,2.87109375,10.83984375,1,0,0,2.87109375,10.83984375,1,0,0,1,4,164,69,1,,,,,,,,
,,,,,,,,,,,,,FF,,,,,,,,0.8667,,,,,,,,,,,,,,,,,,,,,,61005c79654dfd48f61ab93c,61036e3fd1f92de10ffb3ef6,2021-07-29_20h14.32.660,Simcolourproject_2stim_asymm_v5,2020.2.10,MacIntel,60,61025ae37ef11b136ea224fe,,,,,,,,,1515,63.13671875,-46.4921875,1,0,0,response3disk,,5,8.921875,-14.69921875,1,0,0,rectangle,8.921875,-14.69921875,1,0,0,8.921875,-14.69921875,1,0,0,1,5,165,35,1,,,,,,,,
,,,,,,,,,,,,,FF,,,,,,,,0.9655,,,,,,,,,,,,,,,,,,,,,,61005c79654dfd48f61ab93c,61036e3fd1f92de10ffb3ef6,2021-07-29_20h14.32.660,Simcolourproject_2stim_asymm_v5,2020.2.10,MacIntel,60,61025ae37ef11b136ea224fe,,,,,,,,,4315,33.2421875,60.2265625,1,0,0,response1disk,,7,3.2109375,3.140625,1,0,0,rectangle,3.2109375,3.140625,1,0,0,3.2109375,3.140625,1,0,0,1,6,166,60,1,,,,,,,,
,,,,,,,,,,,,,FF,,,,,,,,1.4494,,,,,,,,,,,,,,,,,,,,,,61005c79654dfd48f61ab93c,61036e3fd1f92de10ffb3ef6,2021-07-29_20h14.32.660,Simcolourproject_2stim_asymm_v5,2020.2.10,MacIntel,60,61025ae37ef11b136ea224fe,,,,,,,,,290,34.10546875,-69.0703125,1,0,0,response3disk,,4,6.921875,16.31640625,1,0,0,rectangle,6.921875,16.31640625,1,0,0,6.921875,16.31640625,1,0,0,1,7,167,104,1,,,,,,,,
,,,,,,,,,,,,,FF,,,,,,,,0.7174,,,,,,,,,,,,,,,,,,,,,,61005c79654dfd48f61ab93c,61036e3fd1f92de10ffb3ef6,2021-07-29_20h14.32.660,Simcolourproject_2stim_asymm_v5,2020.2.10,MacIntel,60,61025ae37ef11b136ea224fe,,,,,,,,,7,-44.3671875,-68.63671875,1,0,0,response5disk,,3,-17.03515625,-9.99609375,1,0,0,rectangle,-17.03515625,-9.99609375,1,0,0,-17.03515625,-9.99609375,1,0,0,1,8,168,93,1,,,,,,,,
,,,,,,,,,,,,,FF,,,,,,,,0.9335,,,,,,,,,,,,,,,,,,,,,,61005c79654dfd48f61ab93c,61036e3fd1f92de10ffb3ef6,2021-07-29_20h14.32.660,Simcolourproject_2stim_asymm_v5,2020.2.10,MacIntel,60,61025ae37ef11b136ea224fe,,,,,,,,,1572,71.2421875,41.32421875,1,0,0,response1disk,,6,-8.75,-5.6171875,1,0,0,rectangle,67.64453125,-33.34765625,1,0,0,13.8984375,-5.203125,1,0,0,1,9,169,45,1,,response3disk_3,TRUE,5,5,"[235,170,67,283,36,137,34,106,150,47,161,179,82,145,203,248,231,200,44,172]",1.6006,rectangle
,,,,,,,,,,,,,FF,,,,,,,,0.7835,,,,,,,,,,,,,,,,,,,,,,61005c79654dfd48f61ab93c,61036e3fd1f92de10ffb3ef6,2021-07-29_20h14.32.660,Simcolourproject_2stim_asymm_v5,2020.2.10,MacIntel,60,61025ae37ef11b136ea224fe,,,,,,,,,1468,95.7578125,-51.359375,1,0,0,response3disk,,5,3.86328125,-7.62890625,1,0,0,rectangle,3.86328125,-7.62890625,1,0,0,3.86328125,-7.62890625,1,0,0,1,10,170,108,1,,,,,,,,
,,,,,,,,,,,,,FF,,,,,,,,1.0324,,,,,,,,,,,,,,,,,,,,,,61005c79654dfd48f61ab93c,61036e3fd1f92de10ffb3ef6,2021-07-29_20h14.32.660,Simcolourproject_2stim_asymm_v5,2020.2.10,MacIntel,60,61025ae37ef11b136ea224fe,,,,,,,,,1075,66.48828125,33.87890625,1,0,0,response1disk,,6,13.25,-2.3671875,1,0,0,rectangle,42.1171875,77.49609375,1,0,0,0.0703125,-11.88671875,1,0,0,1,11,171,28,1,,response1disk_3,TRUE,7,7,"[235,170,67,283,36,137,34,106,150,47,161,179,82,145,203,248,231,200,44,172]",1.533,rectangle
,,,,,,,,,,,,,FF,,,,,,,,0.7149,,,,,,,,,,,,,,,,,,,,,,61005c79654dfd48f61ab93c,61036e3fd1f92de10ffb3ef6,2021-07-29_20h14.32.660,Simcolourproject_2stim_asymm_v5,2020.2.10,MacIntel,60,61025ae37ef11b136ea224fe,,,,,,,,,377,72.31640625,54.140625,1,0,0,response1disk,,6,-2.21875,6.0078125,1,0,0,rectangle,-2.21875,6.0078125,1,0,0,-2.21875,6.0078125,1,0,0,1,12,172,121,1,,,,,,,,
,,,,,,,,,,,,,FF,,,,,,,,0.6322,,,,,,,,,,,,,,,,,,,,,,61005c79654dfd48f61ab93c,61036e3fd1f92de10ffb3ef6,2021-07-29_20h14.32.660,Simcolourproject_2stim_asymm_v5,2020.2.10,MacIntel,60,61025ae37ef11b136ea224fe,,,,,,,,,686,44.13671875,-55.609375,1,0,0,response3disk,,4,24.96875,-15.96875,1,0,0,rectangle,24.96875,-15.96875,1,0,0,24.96875,-15.96875,1,0,0,1,13,173,143,1,,,,,,,,
,,,,,,,,,,,,,FF,,,,,,,,0.5165,,,,,,,,,,,,,,,,,,,,,,61005c79654dfd48f61ab93c,61036e3fd1f92de10ffb3ef6,2021-07-29_20h14.32.660,Simcolourproject_2stim_asymm_v5,2020.2.10,MacIntel,60,61025ae37ef11b136ea224fe,,,,,,,,,3317,60.90625,-30.421875,1,0,0,response3disk,,5,-0.5859375,9.21484375,1,0,0,rectangle,-0.5859375,9.21484375,1,0,0,-0.5859375,9.21484375,1,0,0,1,14,174,142,1,,,,,,,,
,,,,,,,,,,,,,FF,,,,,,,,1.25,,,,,,,,,,,,,,,,,,,,,,61005c79654dfd48f61ab93c,61036e3fd1f92de10ffb3ef6,2021-07-29_20h14.32.660,Simcolourproject_2stim_asymm_v5,2020.2.10,MacIntel,60,61025ae37ef11b136ea224fe,,,,,,,,,1685,50.48046875,-74.42578125,1,0,0,response3disk,,4,33.6328125,5.8671875,1,0,0,rectangle,33.6328125,5.8671875,1,0,0,33.6328125,5.8671875,1,0,0,1,15,175,55,1,,,,,,,,
,,,,,,,,,,,,,FF,,,,,,,,0.6343,,,,,,,,,,,,,,,,,,,,,,61005c79654dfd48f61ab93c,61036e3fd1f92de10ffb3ef6,2021-07-29_20h14.32.660,Simcolourproject_2stim_asymm_v5,2020.2.10,MacIntel,60,61025ae37ef11b136ea224fe,,,,,,,,,743,38.59375,-59.515625,1,0,0,response3disk,,4,18.0546875,0.14453125,1,0,0,rectangle,18.0546875,0.14453125,1,0,0,18.0546875,0.14453125,1,0,0,1,16,176,63,1,,,,,,,,
,,,,,,,,,,,,,FF,,,,,,,,0.6832,,,,,,,,,,,,,,,,,,,,,,61005c79654dfd48f61ab93c,61036e3fd1f92de10ffb3ef6,2021-07-29_20h14.32.660,Simcolourproject_2stim_asymm_v5,2020.2.10,MacIntel,60,61025ae37ef11b136ea224fe,,,,,,,,,3104,75.37109375,20.38671875,1,0,0,response1disk,,6,9.73046875,-3.6484375,1,0,0,rectangle,9.73046875,-3.6484375,1,0,0,9.73046875,-3.6484375,1,0,0,1,17,177,10,1,,,,,,,,
,,,,,,,,,,,,,FF,,,,,,,,0.8497,,,,,,,,,,,,,,,,,,,,,,61005c79654dfd48f61ab93c,61036e3fd1f92de10ffb3ef6,2021-07-29_20h14.32.660,Simcolourproject_2stim_asymm_v5,2020.2.10,MacIntel,60,61025ae37ef11b136ea224fe,,,,,,,,,1927,24.71875,-81.92578125,1,0,0,response3disk,,4,16.984375,-0.80078125,1,0,0,rectangle,45.453125,-103.7578125,1,0,0,12.69921875,-5.92578125,1,0,0,1,18,178,76,1,,response3disk_3,TRUE,4,4,"[235,170,67,283,36,137,34,106,150,47,161,179,82,145,203,248,231,200,44,172]",1.6994,rectangle
,,,,,,,,,,,,,FF,,,,,,,,0.7329,,,,,,,,,,,,,,,,,,,,,,61005c79654dfd48f61ab93c,61036e3fd1f92de10ffb3ef6,2021-07-29_20h14.32.660,Simcolourproject_2stim_asymm_v5,2020.2.10,MacIntel,60,61025ae37ef11b136ea224fe,,,,,,,,,4203,-49.34375,-73.83984375,1,0,0,response5disk,,3,-6.9375,1.078125,1,0,0,rectangle,-6.9375,1.078125,1,0,0,-6.9375,1.078125,1,0,0,1,19,179,31,1,,,,,,,,
,,,,,,,,,,,,,FF,,,,,,,,0.9006,,,,,,,,,,,,,,,,,,,,,,61005c79654dfd48f61ab93c,61036e3fd1f92de10ffb3ef6,2021-07-29_20h14.32.660,Simcolourproject_2stim_asymm_v5,2020.2.10,MacIntel,60,61025ae37ef11b136ea224fe,,,,,,,,,2767,46.9609375,-73.49609375,1,0,0,response3disk,,4,23.30078125,-13.703125,1,0,0,rectangle,23.30078125,-13.703125,1,0,0,23.30078125,-13.703125,1,0,0,1,20,180,154,1,,,,,,,,
,,,,,,,,,,,,,FF,,,,,,,,0.7331,,,,,,,,,,,,,,,,,,,,,,61005c79654dfd48f61ab93c,61036e3fd1f92de10ffb3ef6,2021-07-29_20h14.32.660,Simcolourproject_2stim_asymm_v5,2020.2.10,MacIntel,60,61025ae37ef11b136ea224fe,,,,,,,,,2069,71.15234375,37.79296875,1,0,0,response1disk,,6,-4.35546875,4.5078125,1,0,0,rectangle,-4.35546875,4.5078125,1,0,0,-4.35546875,4.5078125,1,0,0,1,21,181,92,1,,,,,,,,
,,,,,,,,,,,,,FF,,,,,,,,0.7151,,,,,,,,,,,,,,,,,,,,,,61005c79654dfd48f61ab93c,61036e3fd1f92de10ffb3ef6,2021-07-29_20h14.32.660,Simcolourproject_2stim_asymm_v5,2020.2.10,MacIntel,60,61025ae37ef11b136ea224fe,,,,,,,,,1612,47.4765625,87.03125,1,0,0,response1disk,,7,3.796875,-6.28515625,1,0,0,rectangle,3.796875,-6.28515625,1,0,0,3.796875,-6.28515625,1,0,0,1,22,182,42,1,,,,,,,,
,,,,,,,,,,,,,FF,,,,,,,,0.6165,,,,,,,,,,,,,,,,,,,,,,61005c79654dfd48f61ab93c,61036e3fd1f92de10ffb3ef6,2021-07-29_20h14.32.660,Simcolourproject_2stim_asymm_v5,2020.2.10,MacIntel,60,61025ae37ef11b136ea224fe,,,,,,,,,3177,43.16796875,67.859375,1,0,0,response1disk,,7,12.4765625,-6.35546875,1,0,0,rectangle,12.4765625,-6.35546875,1,0,0,12.4765625,-6.35546875,1,0,0,1,23,183,148,1,,,,,,,,
,,,,,,,,,,,,,FF,,,,,,,,0.6498,,,,,,,,,,,,,,,,,,,,,,61005c79654dfd48f61ab93c,61036e3fd1f92de10ffb3ef6,2021-07-29_20h14.32.660,Simcolourproject_2stim_asymm_v5,2020.2.10,MacIntel,60,61025ae37ef11b136ea224fe,,,,,,,,,2338,39.01953125,70.140625,1,0,0,response1disk,,7,6.05078125,7.54296875,1,0,0,rectangle,6.05078125,7.54296875,1,0,0,6.05078125,7.54296875,1,0,0,1,24,184,21,1,,,,,,,,
,,,,,,,,,,,,,FF,,,,,,,,0.8669,,,,,,,,,,,,,,,,,,,,,,61005c79654dfd48f61ab93c,61036e3fd1f92de10ffb3ef6,2021-07-29_20h14.32.660,Simcolourproject_2stim_asymm_v5,2020.2.10,MacIntel,60,61025ae37ef11b136ea224fe,,,,,,,,,1370,-45.8984375,-65.08203125,1,0,0,response5disk,,3,-12.5,4.890625,1,0,0,rectangle,-12.5,4.890625,1,0,0,-12.5,4.890625,1,0,0,1,25,185,99,1,,,,,,,,
,,,,,,,,,,,,,FF,,,,,,,,0.6827,,,,,,,,,,,,,,,,,,,,,,61005c79654dfd48f61ab93c,61036e3fd1f92de10ffb3ef6,2021-07-29_20h14.32.660,Simcolourproject_2stim_asymm_v5,2020.2.10,MacIntel,60,61025ae37ef11b136ea224fe,,,,,,,,,3906,-42.55078125,57.796875,1,0,0,response7disk,,0,-20.58984375,3.703125,1,0,0,rectangle,-20.58984375,3.703125,1,0,0,-20.58984375,3.703125,1,0,0,1,26,186,119,1,,,,,,,,
,,,,,,,,,,,,,FF,,,,,,,,0.7164,,,,,,,,,,,,,,,,,,,,,,61005c79654dfd48f61ab93c,61036e3fd1f92de10ffb3ef6,2021-07-29_20h14.32.660,Simcolourproject_2stim_asymm_v5,2020.2.10,MacIntel,60,61025ae37ef11b136ea224fe,,,,,,,,,3550,95.70703125,42.0859375,1,0,0,response1disk,,6,10.015625,-2.8671875,1,0,0,rectangle,10.015625,-2.8671875,1,0,0,10.015625,-2.8671875,1,0,0,1,27,187,33,1,,,,,,,,
,,,,,,,,,,,,,FF,,,,,,,,0.7343,,,,,,,,,,,,,,,,,,,,,,61005c79654dfd48f61ab93c,61036e3fd1f92de10ffb3ef6,2021-07-29_20h14.32.660,Simcolourproject_2stim_asymm_v5,2020.2.10,MacIntel,60,61025ae37ef11b136ea224fe,,,,,,,,,1474,62.96484375,-38.6640625,1,0,0,response3disk,,5,6.68359375,-4.9375,1,0,0,rectangle,6.68359375,-4.9375,1,0,0,6.68359375,-4.9375,1,0,0,1,28,188,34,1,,,,,,,,
,,,,,,,,,,,,,FF,,,,,,,,0.4844,,,,,,,,,,,,,,,,,,,,,,61005c79654dfd48f61ab93c,61036e3fd1f92de10ffb3ef6,2021-07-29_20h14.32.660,Simcolourproject_2stim_asymm_v5,2020.2.10,MacIntel,60,61025ae37ef11b136ea224fe,,,,,,,,,2475,71.4765625,-42.6640625,1,0,0,response3disk,,5,0.6015625,-2.6953125,1,0,0,rectangle,0.6015625,-2.6953125,1,0,0,0.6015625,-2.6953125,1,0,0,1,29,189,15,1,,,,,,,,
,,,,,,,,,,,,,FF,,,,,,,,0.5837,,,,,,,,,,,,,,,,,,,,,,61005c79654dfd48f61ab93c,61036e3fd1f92de10ffb3ef6,2021-07-29_20h14.32.660,Simcolourproject_2stim_asymm_v5,2020.2.10,MacIntel,60,61025ae37ef11b136ea224fe,,,,,,,,,3648,92.68359375,34.9453125,1,0,0,response1disk,,6,2.50390625,-0.8671875,1,0,0,rectangle,2.50390625,-0.8671875,1,0,0,2.50390625,-0.8671875,1,0,0,1,30,190,145,1,,,,,,,,
,,,,,,,,,,,,,FF,,,,,,,,1.3007,,,,,,,,,,,,,,,,,,,,,,61005c79654dfd48f61ab93c,61036e3fd1f92de10ffb3ef6,2021-07-29_20h14.32.660,Simcolourproject_2stim_asymm_v5,2020.2.10,MacIntel,60,61025ae37ef11b136ea224fe,,,,,,,,,2931,34.4765625,84.72265625,1,0,0,response1disk,,7,-1.90234375,-6.5390625,1,0,0,rectangle,-1.90234375,-6.5390625,1,0,0,-1.90234375,-6.5390625,1,0,0,1,31,191,54,1,,,,,,,,
,,,,,,,,,,,,,FF,,,,,,,,0.6171,,,,,,,,,,,,,,,,,,,,,,61005c79654dfd48f61ab93c,61036e3fd1f92de10ffb3ef6,2021-07-29_20h14.32.660,Simcolourproject_2stim_asymm_v5,2020.2.10,MacIntel,60,61025ae37ef11b136ea224fe,,,,,,,,,630,-47.1875,61.66015625,1,0,0,response7disk,,0,-22.6796875,14.13671875,1,0,0,rectangle,-22.6796875,14.13671875,1,0,0,-22.6796875,14.13671875,1,0,0,1,32,192,32,1,,,,,,,,
,,,,,,,,,,,,,FF,,,,,,,,0.9339,,,,,,,,,,,,,,,,,,,,,,61005c79654dfd48f61ab93c,61036e3fd1f92de10ffb3ef6,2021-07-29_20h14.32.660,Simcolourproject_2stim_asymm_v5,2020.2.10,MacIntel,60,61025ae37ef11b136ea224fe,,,,,,,,,4364,-51.59765625,35.3671875,1,0,0,response7disk,,1,-12.95703125,8.21875,1,0,0,rectangle,-12.95703125,8.21875,1,0,0,-12.95703125,8.21875,1,0,0,1,33,193,75,1,,,,,,,,
,,,,,,,,,,,,,FF,,,,,,,,1.2667,,,,,,,,,,,,,,,,,,,,,,61005c79654dfd48f61ab93c,61036e3fd1f92de10ffb3ef6,2021-07-29_20h14.32.660,Simcolourproject_2stim_asymm_v5,2020.2.10,MacIntel,60,61025ae37ef11b136ea224fe,,,,,,,,,2759,67.45703125,-87.15625,1,0,0,response3disk,,4,3.69921875,1.98046875,1,0,0,rectangle,3.69921875,1.98046875,1,0,0,3.69921875,1.98046875,1,0,0,1,34,194,156,1,,,,,,,,
,,,,,,,,,,,,,FF,,,,,,,,0.9488,,,,,,,,,,,,,,,,,,,,,,61005c79654dfd48f61ab93c,61036e3fd1f92de10ffb3ef6,2021-07-29_20h14.32.660,Simcolourproject_2stim_asymm_v5,2020.2.10,MacIntel,60,61025ae37ef11b136ea224fe,,,,,,,,,264,-75.21484375,-36.5390625,1,0,0,response5disk,,2,-5.34765625,-16.80859375,1,0,0,rectangle,-5.34765625,-16.80859375,1,0,0,-5.34765625,-16.80859375,1,0,0,1,35,195,41,1,,,,,,,,
,,,,,,,,,,,,,FF,,,,,,,,0.7162,,,,,,,,,,,,,,,,,,,,,,61005c79654dfd48f61ab93c,61036e3fd1f92de10ffb3ef6,2021-07-29_20h14.32.660,Simcolourproject_2stim_asymm_v5,2020.2.10,MacIntel,60,61025ae37ef11b136ea224fe,,,,,,,,,2493,89.31640625,44.09375,1,0,0,response1disk,,6,-14.34765625,5.48828125,1,0,0,rectangle,-14.34765625,5.48828125,1,0,0,-14.34765625,5.48828125,1,0,0,1,36,196,12,1,,,,,,,,
,,,,,,,,,,,,,FF,,,,,,,,0.3511,,,,,,,,,,,,,,,,,,,,,,61005c79654dfd48f61ab93c,61036e3fd1f92de10ffb3ef6,2021-07-29_20h14.32.660,Simcolourproject_2stim_asymm_v5,2020.2.10,MacIntel,60,61025ae37ef11b136ea224fe,,,,,,,,,489,81.87109375,-55.2421875,1,0,0,response3disk,,5,19.4140625,-4.32421875,1,0,0,rectangle,19.4140625,-4.32421875,1,0,0,19.4140625,-4.32421875,1,0,0,1,37,197,36,1,,,,,,,,
,,,,,,,,,,,,,FF,,,,,,,,0.3497,,,,,,,,,,,,,,,,,,,,,,61005c79654dfd48f61ab93c,61036e3fd1f92de10ffb3ef6,2021-07-29_20h14.32.660,Simcolourproject_2stim_asymm_v5,2020.2.10,MacIntel,60,61025ae37ef11b136ea224fe,,,,,,,,,2921,79.59765625,-38.16015625,1,0,0,response3disk,,5,15.44921875,0.8828125,1,0,0,rectangle,15.44921875,0.8828125,1,0,0,15.44921875,0.8828125,1,0,0,1,38,198,116,1,,,,,,,,
,,,,,,,,,,,,,FF,,,,,,,,0.9665,,,,,,,,,,,,,,,,,,,,,,61005c79654dfd48f61ab93c,61036e3fd1f92de10ffb3ef6,2021-07-29_20h14.32.660,Simcolourproject_2stim_asymm_v5,2020.2.10,MacIntel,60,61025ae37ef11b136ea224fe,,,,,,,,,365,39.55859375,81.171875,1,0,0,response1disk,,7,-1.0078125,-12.265625,1,0,0,rectangle,36.12890625,71.69921875,1,0,0,9.5859375,17.6796875,1,0,0,1,39,199,26,1,,response1disk_3,TRUE,7,7,"[235,170,67,283,36,137,34,106,150,47,161,179,82,145,203,248,231,200,44,172]",1.2333,rectangle
,,,,,,,,,,,,,FF,,,,,,,,0.7489,,,,,,,,,,,,,,,,,,,,,,61005c79654dfd48f61ab93c,61036e3fd1f92de10ffb3ef6,2021-07-29_20h14.32.660,Simcolourproject_2stim_asymm_v5,2020.2.10,MacIntel,60,61025ae37ef11b136ea224fe,,,,,,,,,987,96.33984375,-28.921875,1,0,0,response3disk,,5,-12.12890625,3.79296875,1,0,0,rectangle,-12.12890625,3.79296875,1,0,0,-12.12890625,3.79296875,1,0,0,1,40,200,138,1,,,,,,,,
,,,,,,,,,,,,,FF,,,,,,,,0.6834,,,,,,,,,,,,,,,,,,,,,,61005c79654dfd48f61ab93c,61036e3fd1f92de10ffb3ef6,2021-07-29_20h14.32.660,Simcolourproject_2stim_asymm_v5,2020.2.10,MacIntel,60,61025ae37ef11b136ea224fe,,,,,,,,,1345,84.4921875,48.50390625,1,0,0,response1disk,,6,17.98828125,-0.9140625,1,0,0,rectangle,17.98828125,-0.9140625,1,0,0,17.98828125,-0.9140625,1,0,0,1,41,201,134,1,,,,,,,,
,,,,,,,,,,,,,FF,,,,,,,,0.4001,,,,,,,,,,,,,,,,,,,,,,61005c79654dfd48f61ab93c,61036e3fd1f92de10ffb3ef6,2021-07-29_20h14.32.660,Simcolourproject_2stim_asymm_v5,2020.2.10,MacIntel,60,61025ae37ef11b136ea224fe,,,,,,,,,589,103.296875,31.578125,1,0,0,response1disk,,6,17.14453125,-0.140625,1,0,0,rectangle,84.34375,40.07421875,1,0,0,9.49609375,9.203125,1,0,0,1,42,202,129,1,,response1disk_3,TRUE,6,6,"[235,170,67,283,36,137,34,106,150,47,161,179,82,145,203,248,231,200,44,172]",1.4489,rectangle
,,,,,,,,,,,,,FF,,,,,,,,0.4987,,,,,,,,,,,,,,,,,,,,,,61005c79654dfd48f61ab93c,61036e3fd1f92de10ffb3ef6,2021-07-29_20h14.32.660,Simcolourproject_2stim_asymm_v5,2020.2.10,MacIntel,60,61025ae37ef11b136ea224fe,,,,,,,,,2005,78.9609375,39.37109375,1,0,0,response1disk,,6,24.46875,5.44921875,1,0,0,rectangle,24.46875,5.44921875,1,0,0,24.46875,5.44921875,1,0,0,1,43,203,23,1,,,,,,,,
,,,,,,,,,,,,,FF,,,,,,,,0.4336,,,,,,,,,,,,,,,,,,,,,,61005c79654dfd48f61ab93c,61036e3fd1f92de10ffb3ef6,2021-07-29_20h14.32.660,Simcolourproject_2stim_asymm_v5,2020.2.10,MacIntel,60,61025ae37ef11b136ea224fe,,,,,,,,,3227,85.75390625,36.4375,1,0,0,response1disk,,6,23.03125,3.66796875,1,0,0,rectangle,23.03125,3.66796875,1,0,0,23.03125,3.66796875,1,0,0,1,44,204,40,1,,,,,,,,
,,,,,,,,,,,,,FF,,,,,,,,0.7999,,,,,,,,,,,,,,,,,,,,,,61005c79654dfd48f61ab93c,61036e3fd1f92de10ffb3ef6,2021-07-29_20h14.32.660,Simcolourproject_2stim_asymm_v5,2020.2.10,MacIntel,60,61025ae37ef11b136ea224fe,,,,,,,,,4168,-39.88671875,-81.69140625,1,0,0,response5disk,,3,-10.21875,-13.3984375,1,0,0,rectangle,-10.21875,-13.3984375,1,0,0,-10.21875,-13.3984375,1,0,0,1,45,205,120,1,,,,,,,,
,,,,,,,,,,,,,FF,,,,,,,,1.0834,,,,,,,,,,,,,,,,,,,,,,61005c79654dfd48f61ab93c,61036e3fd1f92de10ffb3ef6,2021-07-29_20h14.32.660,Simcolourproject_2stim_asymm_v5,2020.2.10,MacIntel,60,61025ae37ef11b136ea224fe,,,,,,,,,3627,46.015625,-90.453125,1,0,0,response3disk,,4,23.09765625,-2.28515625,1,0,0,rectangle,23.09765625,-2.28515625,1,0,0,23.09765625,-2.28515625,1,0,0,1,46,206,107,1,,,,,,,,
,,,,,,,,,,,,,FF,,,,,,,,0.4499,,,,,,,,,,,,,,,,,,,,,,61005c79654dfd48f61ab93c,61036e3fd1f92de10ffb3ef6,2021-07-29_20h14.32.660,Simcolourproject_2stim_asymm_v5,2020.2.10,MacIntel,60,61025ae37ef11b136ea224fe,,,,,,,,,3392,54.65625,-83.796875,1,0,0,response3disk,,4,9.859375,-1.30078125,1,0,0,rectangle,9.859375,-1.30078125,1,0,0,9.859375,-1.30078125,1,0,0,1,47,207,77,1,,,,,,,,
,,,,,,,,,,,,,FF,,,,,,,,1.1513,,,,,,,,,,,,,,,,,,,,,,61005c79654dfd48f61ab93c,61036e3fd1f92de10ffb3ef6,2021-07-29_20h14.32.660,Simcolourproject_2stim_asymm_v5,2020.2.10,MacIntel,60,61025ae37ef11b136ea224fe,,,,,,,,,309,105.0664063,30.8984375,1,0,0,response1disk,,6,-8.984375,-1.8125,1,0,0,rectangle,-8.984375,-1.8125,1,0,0,-8.984375,-1.8125,1,0,0,1,48,208,110,1,,,,,,,,
,,,,,,,,,,,,,FF,,,,,,,,0.4331,,,,,,,,,,,,,,,,,,,,,,61005c79654dfd48f61ab93c,61036e3fd1f92de10ffb3ef6,2021-07-29_20h14.32.660,Simcolourproject_2stim_asymm_v5,2020.2.10,MacIntel,60,61025ae37ef11b136ea224fe,,,,,,,,,2409,55.25,-26.6328125,1,0,0,response3disk,,5,14.9453125,-3.1171875,1,0,0,rectangle,14.9453125,-3.1171875,1,0,0,14.9453125,-3.1171875,1,0,0,1,49,209,27,1,,,,,,,,
,,,,,,,,,,,,,FF,,,,,,,,0.7834,,,,,,,,,,,,,,,,,,,,,,61005c79654dfd48f61ab93c,61036e3fd1f92de10ffb3ef6,2021-07-29_20h14.32.660,Simcolourproject_2stim_asymm_v5,2020.2.10,MacIntel,60,61025ae37ef11b136ea224fe,,,,,,,,,464,-37.51953125,-77.69921875,1,0,0,response5disk,,3,-4.96875,-9.87109375,1,0,0,rectangle,-4.96875,-9.87109375,1,0,0,-4.96875,-9.87109375,1,0,0,1,50,210,64,1,,,,,,,,
,,,,,,,,,,,,,FF,,,,,,,,0.6835,,,,,,,,,,,,,,,,,,,,,,61005c79654dfd48f61ab93c,61036e3fd1f92de10ffb3ef6,2021-07-29_20h14.32.660,Simcolourproject_2stim_asymm_v5,2020.2.10,MacIntel,60,61025ae37ef11b136ea224fe,,,,,,,,,3709,-53.76171875,-76.6328125,1,0,0,response5disk,,3,-13.47265625,-12.7578125,1,0,0,rectangle,-13.47265625,-12.7578125,1,0,0,-13.47265625,-12.7578125,1,0,0,1,51,211,17,1,,,,,,,,
,,,,,,,,,,,,,FF,,,,,,,,0.5828,,,,,,,,,,,,,,,,,,,,,,61005c79654dfd48f61ab93c,61036e3fd1f92de10ffb3ef6,2021-07-29_20h14.32.660,Simcolourproject_2stim_asymm_v5,2020.2.10,MacIntel,60,61025ae37ef11b136ea224fe,,,,,,,,,3041,-40.50390625,-69.859375,1,0,0,response5disk,,3,-5.1171875,1.25,1,0,0,rectangle,-5.1171875,1.25,1,0,0,-5.1171875,1.25,1,0,0,1,52,212,127,1,,,,,,,,
,,,,,,,,,,,,,FF,,,,,,,,0.5174,,,,,,,,,,,,,,,,,,,,,,61005c79654dfd48f61ab93c,61036e3fd1f92de10ffb3ef6,2021-07-29_20h14.32.660,Simcolourproject_2stim_asymm_v5,2020.2.10,MacIntel,60,61025ae37ef11b136ea224fe,,,,,,,,,2679,-53.375,-82.6640625,1,0,0,response5disk,,3,17.83984375,6.87890625,1,0,0,rectangle,17.83984375,6.87890625,1,0,0,17.83984375,6.87890625,1,0,0,1,53,213,135,1,,,,,,,,
,,,,,,,,,,,,,FF,,,,,,,,0.5668,,,,,,,,,,,,,,,,,,,,,,61005c79654dfd48f61ab93c,61036e3fd1f92de10ffb3ef6,2021-07-29_20h14.32.660,Simcolourproject_2stim_asymm_v5,2020.2.10,MacIntel,60,61025ae37ef11b136ea224fe,,,,,,,,,3919,35.78515625,-62.49609375,1,0,0,response3disk,,4,27.7734375,-2.5546875,1,0,0,rectangle,27.7734375,-2.5546875,1,0,0,27.7734375,-2.5546875,1,0,0,1,54,214,6,1,,,,,,,,
,,,,,,,,,,,,,FF,,,,,,,,0.6823,,,,,,,,,,,,,,,,,,,,,,61005c79654dfd48f61ab93c,61036e3fd1f92de10ffb3ef6,2021-07-29_20h14.32.660,Simcolourproject_2stim_asymm_v5,2020.2.10,MacIntel,60,61025ae37ef11b136ea224fe,,,,,,,,,3834,47.83984375,75.609375,1,0,0,response1disk,,7,1.00390625,3.01171875,1,0,0,rectangle,1.00390625,3.01171875,1,0,0,1.00390625,3.01171875,1,0,0,1,55,215,87,1,,,,,,,,
,,,,,,,,,,,,,FF,,,,,,,,1.0173,,,,,,,,,,,,,,,,,,,,,,61005c79654dfd48f61ab93c,61036e3fd1f92de10ffb3ef6,2021-07-29_20h14.32.660,Simcolourproject_2stim_asymm_v5,2020.2.10,MacIntel,60,61025ae37ef11b136ea224fe,,,,,,,,,852,60.8671875,-37.453125,1,0,0,response3disk,,5,6.22265625,5.0390625,1,0,0,rectangle,6.22265625,5.0390625,1,0,0,6.22265625,5.0390625,1,0,0,1,56,216,13,1,,,,,,,,
,,,,,,,,,,,,,FF,,,,,,,,0.7154,,,,,,,,,,,,,,,,,,,,,,61005c79654dfd48f61ab93c,61036e3fd1f92de10ffb3ef6,2021-07-29_20h14.32.660,Simcolourproject_2stim_asymm_v5,2020.2.10,MacIntel,60,61025ae37ef11b136ea224fe,,,,,,,,,4140,-48.31640625,71.0859375,1,0,0,response7disk,,0,-21.30859375,10.51171875,1,0,0,rectangle,-21.30859375,10.51171875,1,0,0,-21.30859375,10.51171875,1,0,0,1,57,217,52,1,,,,,,,,
,,,,,,,,,,,,,FF,,,,,,,,1.1337,,,,,,,,,,,,,,,,,,,,,,61005c79654dfd48f61ab93c,61036e3fd1f92de10ffb3ef6,2021-07-29_20h14.32.660,Simcolourproject_2stim_asymm_v5,2020.2.10,MacIntel,60,61025ae37ef11b136ea224fe,,,,,,,,,1966,-68.26953125,-37.52734375,1,0,0,response5disk,,2,2.09375,8.4921875,1,0,0,rectangle,2.09375,8.4921875,1,0,0,2.09375,8.4921875,1,0,0,1,58,218,125,1,,,,,,,,
,,,,,,,,,,,,,FF,,,,,,,,0.9342,,,,,,,,,,,,,,,,,,,,,,61005c79654dfd48f61ab93c,61036e3fd1f92de10ffb3ef6,2021-07-29_20h14.32.660,Simcolourproject_2stim_asymm_v5,2020.2.10,MacIntel,60,61025ae37ef11b136ea224fe,,,,,,,,,3795,61.60546875,-30.75,1,0,0,response3disk,,5,2.640625,-3.28125,1,0,0,rectangle,2.640625,-3.28125,1,0,0,2.640625,-3.28125,1,0,0,1,59,219,95,1,,,,,,,,
,,,,,,,,,,,,,FF,,,,,,,,0.6673,,,,,,,,,,,,,,,,,,,,,,61005c79654dfd48f61ab93c,61036e3fd1f92de10ffb3ef6,2021-07-29_20h14.32.660,Simcolourproject_2stim_asymm_v5,2020.2.10,MacIntel,60,61025ae37ef11b136ea224fe,,,,,,,,,439,-35.47265625,-92.328125,1,0,0,response5disk,,3,1.984375,8.47265625,1,0,0,rectangle,1.984375,8.47265625,1,0,0,1.984375,8.47265625,1,0,0,1,60,220,58,1,,,,,,,,
,,,,,,,,,,,,,FF,,,,,,,,0.6164,,,,,,,,,,,,,,,,,,,,,,61005c79654dfd48f61ab93c,61036e3fd1f92de10ffb3ef6,2021-07-29_20h14.32.660,Simcolourproject_2stim_asymm_v5,2020.2.10,MacIntel,60,61025ae37ef11b136ea224fe,,,,,,,,,2253,90.3515625,-42.69921875,1,0,0,response3disk,,5,9.46484375,8.33203125,1,0,0,rectangle,9.46484375,8.33203125,1,0,0,9.46484375,8.33203125,1,0,0,1,61,221,62,1,,,,,,,,
,,,,,,,,,,,,,FF,,,,,,,,0.6836,,,,,,,,,,,,,,,,,,,,,,61005c79654dfd48f61ab93c,61036e3fd1f92de10ffb3ef6,2021-07-29_20h14.32.660,Simcolourproject_2stim_asymm_v5,2020.2.10,MacIntel,60,61025ae37ef11b136ea224fe,,,,,,,,,4356,-24.7578125,69.02734375,1,0,0,response7disk,,0,-0.5078125,9.80859375,1,0,0,rectangle,-0.5078125,9.80859375,1,0,0,-0.5078125,9.80859375,1,0,0,1,62,222,4,1,,,,,,,,
,,,,,,,,,,,,,FF,,,,,,,,0.7507,,,,,,,,,,,,,,,,,,,,,,61005c79654dfd48f61ab93c,61036e3fd1f92de10ffb3ef6,2021-07-29_20h14.32.660,Simcolourproject_2stim_asymm_v5,2020.2.10,MacIntel,60,61025ae37ef11b136ea224fe,,,,,,,,,436,-46.8359375,-84.703125,1,0,0,response5disk,,3,9.55859375,6.13671875,1,0,0,rectangle,9.55859375,6.13671875,1,0,0,9.55859375,6.13671875,1,0,0,1,63,223,25,1,,,,,,,,
,,,,,,,,,,,,,FF,,,,,,,,0.6856,,,,,,,,,,,,,,,,,,,,,,61005c79654dfd48f61ab93c,61036e3fd1f92de10ffb3ef6,2021-07-29_20h14.32.660,Simcolourproject_2stim_asymm_v5,2020.2.10,MacIntel,60,61025ae37ef11b136ea224fe,,,,,,,,,1622,67.046875,33.33203125,1,0,0,response1disk,,6,14.78125,13.15625,1,0,0,rectangle,14.78125,13.15625,1,0,0,14.78125,13.15625,1,0,0,1,64,224,19,1,,,,,,,,
,,,,,,,,,,,,,FF,,,,,,,,0.466,,,,,,,,,,,,,,,,,,,,,,61005c79654dfd48f61ab93c,61036e3fd1f92de10ffb3ef6,2021-07-29_20h14.32.660,Simcolourproject_2stim_asymm_v5,2020.2.10,MacIntel,60,61025ae37ef11b136ea224fe,,,,,,,,,3452,76.69140625,44.5,1,0,0,response1disk,,6,-1.203125,-15.6171875,1,0,0,rectangle,-1.203125,-15.6171875,1,0,0,-1.203125,-15.6171875,1,0,0,1,65,225,24,1,,,,,,,,
,,,,,,,,,,,,,FF,,,,,,,,0.4665,,,,,,,,,,,,,,,,,,,,,,61005c79654dfd48f61ab93c,61036e3fd1f92de10ffb3ef6,2021-07-29_20h14.32.660,Simcolourproject_2stim_asymm_v5,2020.2.10,MacIntel,60,61025ae37ef11b136ea224fe,,,,,,,,,1969,92.484375,22.12890625,1,0,0,response1disk,,6,16.38671875,14.890625,1,0,0,rectangle,16.38671875,14.890625,1,0,0,16.38671875,14.890625,1,0,0,1,66,226,114,1,,,,,,,,
,,,,,,,,,,,,,FF,,,,,,,,0.4182,,,,,,,,,,,,,,,,,,,,,,61005c79654dfd48f61ab93c,61036e3fd1f92de10ffb3ef6,2021-07-29_20h14.32.660,Simcolourproject_2stim_asymm_v5,2020.2.10,MacIntel,60,61025ae37ef11b136ea224fe,,,,,,,,,4192,86.62109375,35.4609375,1,0,0,response1disk,,6,-8.1796875,-7.7890625,1,0,0,rectangle,-8.1796875,-7.7890625,1,0,0,-8.1796875,-7.7890625,1,0,0,1,67,227,82,1,,,,,,,,
,,,,,,,,,,,,,FF,,,,,,,,0.3835,,,,,,,,,,,,,,,,,,,,,,61005c79654dfd48f61ab93c,61036e3fd1f92de10ffb3ef6,2021-07-29_20h14.32.660,Simcolourproject_2stim_asymm_v5,2020.2.10,MacIntel,60,61025ae37ef11b136ea224fe,,,,,,,,,4215,69.26953125,28.5390625,1,0,0,response1disk,,6,9.01171875,1.09375,1,0,0,rectangle,9.01171875,1.09375,1,0,0,9.01171875,1.09375,1,0,0,1,68,228,89,1,,,,,,,,
,,,,,,,,,,,,,FF,,,,,,,,0.3832,,,,,,,,,,,,,,,,,,,,,,61005c79654dfd48f61ab93c,61036e3fd1f92de10ffb3ef6,2021-07-29_20h14.32.660,Simcolourproject_2stim_asymm_v5,2020.2.10,MacIntel,60,61025ae37ef11b136ea224fe,,,,,,,,,3842,79.2265625,42.1015625,1,0,0,response1disk,,6,5.88671875,11.5859375,1,0,0,rectangle,5.88671875,11.5859375,1,0,0,5.88671875,11.5859375,1,0,0,1,69,229,141,1,,,,,,,,
,,,,,,,,,,,,,FF,,,,,,,,0.3828,,,,,,,,,,,,,,,,,,,,,,61005c79654dfd48f61ab93c,61036e3fd1f92de10ffb3ef6,2021-07-29_20h14.32.660,Simcolourproject_2stim_asymm_v5,2020.2.10,MacIntel,60,61025ae37ef11b136ea224fe,,,,,,,,,2310,84.30078125,32.41796875,1,0,0,response1disk,,6,2.765625,-6.07421875,1,0,0,rectangle,-68.515625,39.33984375,1,0,0,11.4375,-16.625,1,0,0,1,70,230,152,1,,response7disk_3,TRUE,1,1,"[235,170,67,283,36,137,34,106,150,47,161,179,82,145,203,248,231,200,44,172]",1.2666,rectangle
,,,,,,,,,,,,,FF,,,,,,,,0.6171,,,,,,,,,,,,,,,,,,,,,,61005c79654dfd48f61ab93c,61036e3fd1f92de10ffb3ef6,2021-07-29_20h14.32.660,Simcolourproject_2stim_asymm_v5,2020.2.10,MacIntel,60,61025ae37ef11b136ea224fe,,,,,,,,,783,87.06640625,32.4765625,1,0,0,response1disk,,6,7.75,-3.49609375,1,0,0,rectangle,7.75,-3.49609375,1,0,0,7.75,-3.49609375,1,0,0,1,71,231,96,1,,,,,,,,
,,,,,,,,,,,,,FF,,,,,,,,0.3497,,,,,,,,,,,,,,,,,,,,,,61005c79654dfd48f61ab93c,61036e3fd1f92de10ffb3ef6,2021-07-29_20h14.32.660,Simcolourproject_2stim_asymm_v5,2020.2.10,MacIntel,60,61025ae37ef11b136ea224fe,,,,,,,,,2553,63.21484375,-35.69921875,1,0,0,response3disk,,5,14.3984375,-10.18359375,1,0,0,rectangle,14.3984375,-10.18359375,1,0,0,14.3984375,-10.18359375,1,0,0,1,72,232,8,1,,,,,,,,
,,,,,,,,,,,,,FF,,,,,,,,0.3872,,,,,,,,,,,,,,,,,,,,,,61005c79654dfd48f61ab93c,61036e3fd1f92de10ffb3ef6,2021-07-29_20h14.32.660,Simcolourproject_2stim_asymm_v5,2020.2.10,MacIntel,60,61025ae37ef11b136ea224fe,,,,,,,,,2845,71.9609375,-30.32421875,1,0,0,response3disk,,5,-8.3515625,-11.53125,1,0,0,rectangle,-8.3515625,-11.53125,1,0,0,-8.3515625,-11.53125,1,0,0,1,73,233,124,1,,,,,,,,
,,,,,,,,,,,,,FF,,,,,,,,0.3505,,,,,,,,,,,,,,,,,,,,,,61005c79654dfd48f61ab93c,61036e3fd1f92de10ffb3ef6,2021-07-29_20h14.32.660,Simcolourproject_2stim_asymm_v5,2020.2.10,MacIntel,60,61025ae37ef11b136ea224fe,,,,,,,,,502,89.55859375,-41.03125,1,0,0,response3disk,,5,9.19921875,-3.08203125,1,0,0,rectangle,-71.73828125,-40.453125,1,0,0,-0.79296875,16.140625,1,0,0,1,74,234,153,1,,response5disk_3,TRUE,2,2,"[235,170,67,283,36,137,34,106,150,47,161,179,82,145,203,248,231,200,44,172]",1.3655,rectangle
,,,,,,,,,,,,,FF,,,,,,,,0.7165,,,,,,,,,,,,,,,,,,,,,,61005c79654dfd48f61ab93c,61036e3fd1f92de10ffb3ef6,2021-07-29_20h14.32.660,Simcolourproject_2stim_asymm_v5,2020.2.10,MacIntel,60,61025ae37ef11b136ea224fe,,,,,,,,,2838,93.484375,50.6640625,1,0,0,response1disk,,6,-18.203125,15.44140625,1,0,0,rectangle,-18.203125,15.44140625,1,0,0,-18.203125,15.44140625,1,0,0,1,75,235,150,1,,,,,,,,
,,,,,,,,,,,,,FF,,,,,,,,0.9165,,,,,,,,,,,,,,,,,,,,,,61005c79654dfd48f61ab93c,61036e3fd1f92de10ffb3ef6,2021-07-29_20h14.32.660,Simcolourproject_2stim_asymm_v5,2020.2.10,MacIntel,60,61025ae37ef11b136ea224fe,,,,,,,,,1218,-59.30078125,-82.6171875,1,0,0,response5disk,,3,-2.4296875,6.91015625,1,0,0,rectangle,-2.4296875,6.91015625,1,0,0,-2.4296875,6.91015625,1,0,0,1,76,236,106,1,,,,,,,,
,,,,,,,,,,,,,FF,,,,,,,,0.4833,,,,,,,,,,,,,,,,,,,,,,61005c79654dfd48f61ab93c,61036e3fd1f92de10ffb3ef6,2021-07-29_20h14.32.660,Simcolourproject_2stim_asymm_v5,2020.2.10,MacIntel,60,61025ae37ef11b136ea224fe,,,,,,,,,3025,39.12109375,-48.18359375,1,0,0,response3disk,,4,8.3046875,6.03515625,1,0,0,rectangle,8.3046875,6.03515625,1,0,0,8.3046875,6.03515625,1,0,0,1,77,237,136,1,,,,,,,,
,,,,,,,,,,,,,FF,,,,,,,,0.5845,,,,,,,,,,,,,,,,,,,,,,61005c79654dfd48f61ab93c,61036e3fd1f92de10ffb3ef6,2021-07-29_20h14.32.660,Simcolourproject_2stim_asymm_v5,2020.2.10,MacIntel,60,61025ae37ef11b136ea224fe,,,,,,,,,54,67.55078125,-31.1640625,1,0,0,response3disk,,5,27.30078125,-0.44921875,1,0,0,rectangle,27.30078125,-0.44921875,1,0,0,27.30078125,-0.44921875,1,0,0,1,78,238,130,1,,,,,,,,
,,,,,,,,,,,,,FF,,,,,,,,0.3163,,,,,,,,,,,,,,,,,,,,,,61005c79654dfd48f61ab93c,61036e3fd1f92de10ffb3ef6,2021-07-29_20h14.32.660,Simcolourproject_2stim_asymm_v5,2020.2.10,MacIntel,60,61025ae37ef11b136ea224fe,,,,,,,,,4240,43.48046875,-89.359375,1,0,0,response3disk,,4,-9.4296875,-5.4375,1,0,0,rectangle,-9.4296875,-5.4375,1,0,0,-9.4296875,-5.4375,1,0,0,1,79,239,47,1,,,,,,,,
,,,,,,,,,,,,,FF,,,,,,,,0.6337,,,,,,,,,,,,,,,,,,,,,,61005c79654dfd48f61ab93c,61036e3fd1f92de10ffb3ef6,2021-07-29_20h14.32.660,Simcolourproject_2stim_asymm_v5,2020.2.10,MacIntel,60,61025ae37ef11b136ea224fe,,,,,,,,,780,-33.46875,-89.21875,1,0,0,response5disk,,3,-12.66796875,-2.59765625,1,0,0,rectangle,-12.66796875,-2.59765625,1,0,0,-12.66796875,-2.59765625,1,0,0,1,80,240,1,1,,,,,,,,
,,,,,,,,,,,,,FF,,,,,,,,0.534,,,,,,,,,,,,,,,,,,,,,,61005c79654dfd48f61ab93c,61036e3fd1f92de10ffb3ef6,2021-07-29_20h14.32.660,Simcolourproject_2stim_asymm_v5,2020.2.10,MacIntel,60,61025ae37ef11b136ea224fe,,,,,,,,,1101,20.93359375,-65.5703125,1,0,0,response3disk,,4,0.34375,5.87109375,1,0,0,rectangle,0.34375,5.87109375,1,0,0,0.34375,5.87109375,1,0,0,1,81,241,137,1,,,,,,,,
,,,,,,,,,,,,,FF,,,,,,,,0.7829,,,,,,,,,,,,,,,,,,,,,,61005c79654dfd48f61ab93c,61036e3fd1f92de10ffb3ef6,2021-07-29_20h14.32.660,Simcolourproject_2stim_asymm_v5,2020.2.10,MacIntel,60,61025ae37ef11b136ea224fe,,,,,,,,,4010,47.83203125,-80.44140625,1,0,0,response3disk,,4,19.26171875,-0.53515625,1,0,0,rectangle,19.26171875,-0.53515625,1,0,0,19.26171875,-0.53515625,1,0,0,1,82,242,22,1,,,,,,,,
,,,,,,,,,,,,,FF,,,,,,,,1.4828,,,,,,,,,,,,,,,,,,,,,,61005c79654dfd48f61ab93c,61036e3fd1f92de10ffb3ef6,2021-07-29_20h14.32.660,Simcolourproject_2stim_asymm_v5,2020.2.10,MacIntel,60,61025ae37ef11b136ea224fe,,,,,,,,,3849,-38.80078125,-72.38671875,1,0,0,response5disk,,3,-1.35546875,6.3203125,1,0,0,rectangle,-1.35546875,6.3203125,1,0,0,-1.35546875,6.3203125,1,0,0,1,83,243,97,1,,,,,,,,
,,,,,,,,,,,,,FF,,,,,,,,0.5337,,,,,,,,,,,,,,,,,,,,,,61005c79654dfd48f61ab93c,61036e3fd1f92de10ffb3ef6,2021-07-29_20h14.32.660,Simcolourproject_2stim_asymm_v5,2020.2.10,MacIntel,60,61025ae37ef11b136ea224fe,,,,,,,,,474,34.8828125,-74.6484375,1,0,0,response3disk,,4,22.55078125,7.82421875,1,0,0,rectangle,22.55078125,7.82421875,1,0,0,22.55078125,7.82421875,1,0,0,1,84,244,123,1,,,,,,,,
,,,,,,,,,,,,,FF,,,,,,,,0.5161,,,,,,,,,,,,,,,,,,,,,,61005c79654dfd48f61ab93c,61036e3fd1f92de10ffb3ef6,2021-07-29_20h14.32.660,Simcolourproject_2stim_asymm_v5,2020.2.10,MacIntel,60,61025ae37ef11b136ea224fe,,,,,,,,,2826,-27.4296875,-63.50390625,1,0,0,response5disk,,3,10.4453125,5.58203125,1,0,0,rectangle,10.4453125,5.58203125,1,0,0,10.4453125,5.58203125,1,0,0,1,85,245,61,1,,,,,,,,
,,,,,,,,,,,,,FF,,,,,,,,0.8009,,,,,,,,,,,,,,,,,,,,,,61005c79654dfd48f61ab93c,61036e3fd1f92de10ffb3ef6,2021-07-29_20h14.32.660,Simcolourproject_2stim_asymm_v5,2020.2.10,MacIntel,60,61025ae37ef11b136ea224fe,,,,,,,,,3830,46.6640625,-83.16796875,1,0,0,response3disk,,4,4.0234375,1.140625,1,0,0,rectangle,4.0234375,1.140625,1,0,0,4.0234375,1.140625,1,0,0,1,86,246,122,1,,,,,,,,
