key_resp.keys,key_resp.rt,key_resp_14.keys,key_resp_14.rt,key_resp_15.keys,key_resp_15.rt,key_resp_17.keys,key_resp_17.rt,key_resp_9.keys,key_resp_9.rt,key_resp_10.keys,key_resp_10.rt,practice_comparison,Ecc,mouse_5.x,mouse_5.y,mouse_5.leftButton,mouse_5.midButton,mouse_5.rightButton,mouse_5.clicked_name,pracsimilarity,response_time,mouse_10.x,mouse_10.y,mouse_10.leftButton,mouse_10.midButton,mouse_10.rightButton,mouse_10.clicked_name,mouse_7.x,mouse_7.y,mouse_7.leftButton,mouse_7.midButton,mouse_7.rightButton,mouse_6.x,mouse_6.y,mouse_6.leftButton,mouse_6.midButton,mouse_6.rightButton,duringprac.thisRepN,duringprac.thisTrialN,duringprac.thisN,duringprac.thisIndex,duringprac.ran,participant,session,date,expName,psychopyVersion,OS,frameRate,study_id,mouse_7.clicked_name,catchpracsimilarity,catch_response_time,catchnumberprac,catchtrialorderprac,mouse_6.clicked_name,key_resp_22.keys,key_resp_22.rt,realcomparison,mouse.x,mouse.y,mouse.leftButton,mouse.midButton,mouse.rightButton,mouse.clicked_name,Colour2,similarity,mouse_2.x,mouse_2.y,mouse_2.leftButton,mouse_2.midButton,mouse_2.rightButton,mouse_2.clicked_name,mouse_3.x,mouse_3.y,mouse_3.leftButton,mouse_3.midButton,mouse_3.rightButton,mouse_3.clicked_name,catchornah,catchsimilarity,catchnumber,catchtrialorder,catchRT,mouse_11.x,mouse_11.y,mouse_11.leftButton,mouse_11.midButton,mouse_11.rightButton,mouse_11.clicked_name,trials_2.thisRepN,trials_2.thisTrialN,trials_2.thisN,trials_2.thisIndex,trials_2.ran,Colour1
space,1.4,space,2.477,space,38.178,space,10.796,space,4.228,space,4.505,63,PF,96,33,1,0,0,response1disk_5,6,13.336,5,-3,1,0,0,rectangle_8,5,-3,1,0,0,5,-3,1,0,0,0,0,0,2,1,610037b2225e262487da1b1f,61036efed7f05ec17b7b77a5,2021-07-29_23h36.55.512,Simcolourproject_2stim_asymm_v5,2020.2.10,MacIntel,60,61025ae37ef11b136ea224fe,,,,,,,,,,,,,,,,,,,,,,,,,,,,,,,,,,,,,,,,,,,,,,
,,,,,,,,,,,,126,FF,-46,-73,1,0,0,response5disk_5,3,2.784,1,2,1,0,0,rectangle_8,35,88,1,0,0,-1,-3,1,0,0,0,1,1,3,1,610037b2225e262487da1b1f,61036efed7f05ec17b7b77a5,2021-07-29_23h36.55.512,Simcolourproject_2stim_asymm_v5,2020.2.10,MacIntel,60,61025ae37ef11b136ea224fe,response1disk_7,7,3.767,7,"[2,5]",rectangle_4,,,,,,,,,,,,,,,,,,,,,,,,,,,,,,,,,,,,,,,,
,,,,,,,,,,,,152,PF,34,-93,1,0,0,response3disk_5,4,1.9,9,4,1,0,0,rectangle_8,9,4,1,0,0,9,4,1,0,0,0,2,2,1,1,610037b2225e262487da1b1f,61036efed7f05ec17b7b77a5,2021-07-29_23h36.55.512,Simcolourproject_2stim_asymm_v5,2020.2.10,MacIntel,60,61025ae37ef11b136ea224fe,,,,,,,,,,,,,,,,,,,,,,,,,,,,,,,,,,,,,,,,,,,,,,
,,,,,,,,,,,,41,FF,80,41,1,0,0,response1disk_5,6,2.084,-1,-6,1,0,0,rectangle_8,-1,-6,1,0,0,-1,-6,1,0,0,0,3,3,0,1,610037b2225e262487da1b1f,61036efed7f05ec17b7b77a5,2021-07-29_23h36.55.512,Simcolourproject_2stim_asymm_v5,2020.2.10,MacIntel,60,61025ae37ef11b136ea224fe,,,,,,,,,,,,,,,,,,,,,,,,,,,,,,,,,,,,,,,,,,,,,,
,,,,,,,,,,,,155,PF,29,-58,1,0,0,response3disk_5,4,1.701,-7,-1,1,0,0,rectangle_8,55,89,1,0,0,-3,-7,1,0,0,0,4,4,4,1,610037b2225e262487da1b1f,61036efed7f05ec17b7b77a5,2021-07-29_23h36.55.512,Simcolourproject_2stim_asymm_v5,2020.2.10,MacIntel,60,61025ae37ef11b136ea224fe,response1disk_7,7,2.468,7,"[2,5]",rectangle_4,,,,,,,,,,,,,,,,,,,,,,,,,,,,,,,,,,,,,,,,
,,,,,,,,,,,,133,FF,73,-34,1,0,0,response3disk_5,5,1.518,8,4,1,0,0,rectangle_8,8,4,1,0,0,8,4,1,0,0,0,5,5,5,1,610037b2225e262487da1b1f,61036efed7f05ec17b7b77a5,2021-07-29_23h36.55.512,Simcolourproject_2stim_asymm_v5,2020.2.10,MacIntel,60,61025ae37ef11b136ea224fe,,,,,,,,,,,,,,,,,,,,,,,,,,,,,,,,,,,,,,,,,,,,,,
,,,,,,,,,,,,126,PF,-90,-45,1,0,0,response5disk_5,2,1.6,9,-3,1,0,0,rectangle_8,9,-3,1,0,0,9,-3,1,0,0,0,6,6,6,1,610037b2225e262487da1b1f,61036efed7f05ec17b7b77a5,2021-07-29_23h36.55.512,Simcolourproject_2stim_asymm_v5,2020.2.10,MacIntel,60,61025ae37ef11b136ea224fe,,,,,,,,,,,,,,,,,,,,,,,,,,,,,,,,,,,,,,,,,,,,,,
,,,,,,,,,,,,,FF,,,,,,,,1.34,,,,,,,,,,,,,,,,,,,,,,610037b2225e262487da1b1f,61036efed7f05ec17b7b77a5,2021-07-29_23h36.55.512,Simcolourproject_2stim_asymm_v5,2020.2.10,MacIntel,60,61025ae37ef11b136ea224fe,,,,,,,space,2.217,1168,103,46,1,0,0,response1disk,,6,4,-8,1,0,0,rectangle,43,79,1,0,0,response1disk_3,TRUE,7,7,"[206,260,18,301,196,184,162,121,50,115,24,176,82,181,35,89,307,1,176,67]",1.483,0,1,1,0,0,rectangle,0,0,0,139,1,
,,,,,,,,,,,,,FF,,,,,,,,2.15,,,,,,,,,,,,,,,,,,,,,,610037b2225e262487da1b1f,61036efed7f05ec17b7b77a5,2021-07-29_23h36.55.512,Simcolourproject_2stim_asymm_v5,2020.2.10,MacIntel,60,61025ae37ef11b136ea224fe,,,,,,,,,603,51,-36,1,0,0,response3disk,,5,-19,-4,1,0,0,rectangle,-19,-4,1,0,0,,,,,,,-19,-4,1,0,0,,0,1,1,4,1,
,,,,,,,,,,,,,FF,,,,,,,,3.366,,,,,,,,,,,,,,,,,,,,,,610037b2225e262487da1b1f,61036efed7f05ec17b7b77a5,2021-07-29_23h36.55.512,Simcolourproject_2stim_asymm_v5,2020.2.10,MacIntel,60,61025ae37ef11b136ea224fe,,,,,,,,,3265,101,-34,1,0,0,response3disk,,5,-2,4,1,0,0,rectangle,-2,4,1,0,0,,,,,,,-2,4,1,0,0,,0,2,2,39,1,
,,,,,,,,,,,,,FF,,,,,,,,0.883,,,,,,,,,,,,,,,,,,,,,,610037b2225e262487da1b1f,61036efed7f05ec17b7b77a5,2021-07-29_23h36.55.512,Simcolourproject_2stim_asymm_v5,2020.2.10,MacIntel,60,61025ae37ef11b136ea224fe,,,,,,,,,2473,-37,-75,1,0,0,response5disk,,3,-1,-3,1,0,0,rectangle,-1,-3,1,0,0,,,,,,,-1,-3,1,0,0,,0,3,3,94,1,
,,,,,,,,,,,,,FF,,,,,,,,2.851,,,,,,,,,,,,,,,,,,,,,,610037b2225e262487da1b1f,61036efed7f05ec17b7b77a5,2021-07-29_23h36.55.512,Simcolourproject_2stim_asymm_v5,2020.2.10,MacIntel,60,61025ae37ef11b136ea224fe,,,,,,,,,3467,58,-73,1,0,0,response3disk,,4,2,3,1,0,0,rectangle,2,3,1,0,0,,,,,,,2,3,1,0,0,,0,4,4,104,1,
,,,,,,,,,,,,,FF,,,,,,,,1.4,,,,,,,,,,,,,,,,,,,,,,610037b2225e262487da1b1f,61036efed7f05ec17b7b77a5,2021-07-29_23h36.55.512,Simcolourproject_2stim_asymm_v5,2020.2.10,MacIntel,60,61025ae37ef11b136ea224fe,,,,,,,,,3207,-51,-71,1,0,0,response5disk,,3,10,7,1,0,0,rectangle,10,7,1,0,0,,,,,,,10,7,1,0,0,,0,5,5,19,1,
,,,,,,,,,,,,,FF,,,,,,,,1.133,,,,,,,,,,,,,,,,,,,,,,610037b2225e262487da1b1f,61036efed7f05ec17b7b77a5,2021-07-29_23h36.55.512,Simcolourproject_2stim_asymm_v5,2020.2.10,MacIntel,60,61025ae37ef11b136ea224fe,,,,,,,,,2285,21,-63,1,0,0,response3disk,,4,-2,-2,1,0,0,rectangle,-2,-2,1,0,0,,,,,,,-2,-2,1,0,0,,0,6,6,47,1,
,,,,,,,,,,,,,FF,,,,,,,,1.635,,,,,,,,,,,,,,,,,,,,,,610037b2225e262487da1b1f,61036efed7f05ec17b7b77a5,2021-07-29_23h36.55.512,Simcolourproject_2stim_asymm_v5,2020.2.10,MacIntel,60,61025ae37ef11b136ea224fe,,,,,,,,,205,80,36,1,0,0,response1disk,,6,17,-2,1,0,0,rectangle,17,-2,1,0,0,,,,,,,17,-2,1,0,0,,0,7,7,42,1,
,,,,,,,,,,,,,FF,,,,,,,,2.099,,,,,,,,,,,,,,,,,,,,,,610037b2225e262487da1b1f,61036efed7f05ec17b7b77a5,2021-07-29_23h36.55.512,Simcolourproject_2stim_asymm_v5,2020.2.10,MacIntel,60,61025ae37ef11b136ea224fe,,,,,,,,,276,-47,81,1,0,0,response7disk,,0,10,5,1,0,0,rectangle,10,5,1,0,0,,,,,,,10,5,1,0,0,,0,8,8,90,1,
,,,,,,,,,,,,,FF,,,,,,,,1.4,,,,,,,,,,,,,,,,,,,,,,610037b2225e262487da1b1f,61036efed7f05ec17b7b77a5,2021-07-29_23h36.55.512,Simcolourproject_2stim_asymm_v5,2020.2.10,MacIntel,60,61025ae37ef11b136ea224fe,,,,,,,,,3051,-84,-31,1,0,0,response5disk,,2,-5,9,1,0,0,rectangle,-5,9,1,0,0,,,,,,,-5,9,1,0,0,,0,9,9,119,1,
,,,,,,,,,,,,,FF,,,,,,,,1.182,,,,,,,,,,,,,,,,,,,,,,610037b2225e262487da1b1f,61036efed7f05ec17b7b77a5,2021-07-29_23h36.55.512,Simcolourproject_2stim_asymm_v5,2020.2.10,MacIntel,60,61025ae37ef11b136ea224fe,,,,,,,,,1076,29,-83,1,0,0,response3disk,,4,7,-1,1,0,0,rectangle,7,-1,1,0,0,,,,,,,7,-1,1,0,0,,0,10,10,148,1,
,,,,,,,,,,,,,FF,,,,,,,,1.233,,,,,,,,,,,,,,,,,,,,,,610037b2225e262487da1b1f,61036efed7f05ec17b7b77a5,2021-07-29_23h36.55.512,Simcolourproject_2stim_asymm_v5,2020.2.10,MacIntel,60,61025ae37ef11b136ea224fe,,,,,,,,,1637,92,-44,1,0,0,response3disk,,5,2,-4,1,0,0,rectangle,2,-4,1,0,0,,,,,,,2,-4,1,0,0,,0,11,11,103,1,
,,,,,,,,,,,,,FF,,,,,,,,1.35,,,,,,,,,,,,,,,,,,,,,,610037b2225e262487da1b1f,61036efed7f05ec17b7b77a5,2021-07-29_23h36.55.512,Simcolourproject_2stim_asymm_v5,2020.2.10,MacIntel,60,61025ae37ef11b136ea224fe,,,,,,,,,974,-49,-68,1,0,0,response5disk,,3,13,-6,1,0,0,rectangle,13,-6,1,0,0,,,,,,,13,-6,1,0,0,,0,12,12,27,1,
,,,,,,,,,,,,,FF,,,,,,,,3.783,,,,,,,,,,,,,,,,,,,,,,610037b2225e262487da1b1f,61036efed7f05ec17b7b77a5,2021-07-29_23h36.55.512,Simcolourproject_2stim_asymm_v5,2020.2.10,MacIntel,60,61025ae37ef11b136ea224fe,,,,,,,,,1210,90,-35,1,0,0,response3disk,,5,13,-3,1,0,0,rectangle,13,-3,1,0,0,,,,,,,13,-3,1,0,0,,0,13,13,133,1,
,,,,,,,,,,,,,FF,,,,,,,,6.666,,,,,,,,,,,,,,,,,,,,,,610037b2225e262487da1b1f,61036efed7f05ec17b7b77a5,2021-07-29_23h36.55.512,Simcolourproject_2stim_asymm_v5,2020.2.10,MacIntel,60,61025ae37ef11b136ea224fe,,,,,,,,,2281,65,-35,1,0,0,response3disk,,5,3,-3,1,0,0,rectangle,3,-3,1,0,0,,,,,,,3,-3,1,0,0,,0,14,14,156,1,
,,,,,,,,,,,,,FF,,,,,,,,1.718,,,,,,,,,,,,,,,,,,,,,,610037b2225e262487da1b1f,61036efed7f05ec17b7b77a5,2021-07-29_23h36.55.512,Simcolourproject_2stim_asymm_v5,2020.2.10,MacIntel,60,61025ae37ef11b136ea224fe,,,,,,,,,4002,-39,-72,1,0,0,response5disk,,3,13,-5,1,0,0,rectangle,13,-5,1,0,0,,,,,,,13,-5,1,0,0,,0,15,15,0,1,
,,,,,,,,,,,,,FF,,,,,,,,1.317,,,,,,,,,,,,,,,,,,,,,,610037b2225e262487da1b1f,61036efed7f05ec17b7b77a5,2021-07-29_23h36.55.512,Simcolourproject_2stim_asymm_v5,2020.2.10,MacIntel,60,61025ae37ef11b136ea224fe,,,,,,,,,3253,33,-71,1,0,0,response3disk,,4,10,-2,1,0,0,rectangle,10,-2,1,0,0,,,,,,,10,-2,1,0,0,,0,16,16,37,1,
,,,,,,,,,,,,,FF,,,,,,,,1.25,,,,,,,,,,,,,,,,,,,,,,610037b2225e262487da1b1f,61036efed7f05ec17b7b77a5,2021-07-29_23h36.55.512,Simcolourproject_2stim_asymm_v5,2020.2.10,MacIntel,60,61025ae37ef11b136ea224fe,,,,,,,,,685,94,35,1,0,0,response1disk,,6,1,-10,1,0,0,rectangle,79,-31,1,0,0,response3disk_3,TRUE,5,5,"[206,260,18,301,196,184,162,121,50,115,24,176,82,181,35,89,307,1,176,67]",3.3,18,-4,1,0,0,rectangle,0,17,17,131,1,
,,,,,,,,,,,,,FF,,,,,,,,3.366,,,,,,,,,,,,,,,,,,,,,,610037b2225e262487da1b1f,61036efed7f05ec17b7b77a5,2021-07-29_23h36.55.512,Simcolourproject_2stim_asymm_v5,2020.2.10,MacIntel,60,61025ae37ef11b136ea224fe,,,,,,,,,1098,78,-39,1,0,0,response3disk,,5,3,-1,1,0,0,rectangle,3,-1,1,0,0,,,,,,,3,-1,1,0,0,,0,18,18,151,1,
,,,,,,,,,,,,,FF,,,,,,,,5.967,,,,,,,,,,,,,,,,,,,,,,610037b2225e262487da1b1f,61036efed7f05ec17b7b77a5,2021-07-29_23h36.55.512,Simcolourproject_2stim_asymm_v5,2020.2.10,MacIntel,60,61025ae37ef11b136ea224fe,,,,,,,,,3640,111,-62,1,0,0,response3disk,,5,14,2,1,0,0,rectangle,14,2,1,0,0,,,,,,,14,2,1,0,0,,0,19,19,25,1,
,,,,,,,,,,,,,FF,,,,,,,,2.867,,,,,,,,,,,,,,,,,,,,,,610037b2225e262487da1b1f,61036efed7f05ec17b7b77a5,2021-07-29_23h36.55.512,Simcolourproject_2stim_asymm_v5,2020.2.10,MacIntel,60,61025ae37ef11b136ea224fe,,,,,,,,,509,51,83,1,0,0,response1disk,,7,1,-5,1,0,0,rectangle,1,-5,1,0,0,,,,,,,1,-5,1,0,0,,0,20,20,141,1,
,,,,,,,,,,,,,FF,,,,,,,,1.216,,,,,,,,,,,,,,,,,,,,,,610037b2225e262487da1b1f,61036efed7f05ec17b7b77a5,2021-07-29_23h36.55.512,Simcolourproject_2stim_asymm_v5,2020.2.10,MacIntel,60,61025ae37ef11b136ea224fe,,,,,,,,,3128,37,59,1,0,0,response1disk,,7,7,-2,1,0,0,rectangle,7,-2,1,0,0,,,,,,,7,-2,1,0,0,,0,21,21,102,1,
,,,,,,,,,,,,,FF,,,,,,,,1.617,,,,,,,,,,,,,,,,,,,,,,610037b2225e262487da1b1f,61036efed7f05ec17b7b77a5,2021-07-29_23h36.55.512,Simcolourproject_2stim_asymm_v5,2020.2.10,MacIntel,60,61025ae37ef11b136ea224fe,,,,,,,,,1041,72,-44,1,0,0,response3disk,,5,13,-7,1,0,0,rectangle,13,-7,1,0,0,,,,,,,13,-7,1,0,0,,0,22,22,140,1,
,,,,,,,,,,,,,FF,,,,,,,,0.874,,,,,,,,,,,,,,,,,,,,,,610037b2225e262487da1b1f,61036efed7f05ec17b7b77a5,2021-07-29_23h36.55.512,Simcolourproject_2stim_asymm_v5,2020.2.10,MacIntel,60,61025ae37ef11b136ea224fe,,,,,,,,,755,65,-31,1,0,0,response3disk,,5,16,-3,1,0,0,rectangle,-85,35,1,0,0,response7disk_3,TRUE,1,1,"[206,260,18,301,196,184,162,121,50,115,24,176,82,181,35,89,307,1,176,67]",1.649,3,-1,1,0,0,rectangle,0,23,23,115,1,
,,,,,,,,,,,,,FF,,,,,,,,1.633,,,,,,,,,,,,,,,,,,,,,,610037b2225e262487da1b1f,61036efed7f05ec17b7b77a5,2021-07-29_23h36.55.512,Simcolourproject_2stim_asymm_v5,2020.2.10,MacIntel,60,61025ae37ef11b136ea224fe,,,,,,,,,2704,71,-30,1,0,0,response3disk,,5,7,-4,1,0,0,rectangle,7,-4,1,0,0,,,,,,,7,-4,1,0,0,,0,24,24,31,1,
,,,,,,,,,,,,,FF,,,,,,,,1.65,,,,,,,,,,,,,,,,,,,,,,610037b2225e262487da1b1f,61036efed7f05ec17b7b77a5,2021-07-29_23h36.55.512,Simcolourproject_2stim_asymm_v5,2020.2.10,MacIntel,60,61025ae37ef11b136ea224fe,,,,,,,,,4238,-48,-72,1,0,0,response5disk,,3,11,-8,1,0,0,rectangle,11,-8,1,0,0,,,,,,,11,-8,1,0,0,,0,25,25,89,1,
,,,,,,,,,,,,,FF,,,,,,,,1.567,,,,,,,,,,,,,,,,,,,,,,610037b2225e262487da1b1f,61036efed7f05ec17b7b77a5,2021-07-29_23h36.55.512,Simcolourproject_2stim_asymm_v5,2020.2.10,MacIntel,60,61025ae37ef11b136ea224fe,,,,,,,,,3634,32,-70,1,0,0,response3disk,,4,1,-3,1,0,0,rectangle,1,-3,1,0,0,,,,,,,1,-3,1,0,0,,0,26,26,129,1,
,,,,,,,,,,,,,FF,,,,,,,,1.151,,,,,,,,,,,,,,,,,,,,,,610037b2225e262487da1b1f,61036efed7f05ec17b7b77a5,2021-07-29_23h36.55.512,Simcolourproject_2stim_asymm_v5,2020.2.10,MacIntel,60,61025ae37ef11b136ea224fe,,,,,,,,,804,-84,-38,1,0,0,response5disk,,2,-1,5,1,0,0,rectangle,-1,5,1,0,0,,,,,,,-1,5,1,0,0,,0,27,27,105,1,
,,,,,,,,,,,,,FF,,,,,,,,1.95,,,,,,,,,,,,,,,,,,,,,,610037b2225e262487da1b1f,61036efed7f05ec17b7b77a5,2021-07-29_23h36.55.512,Simcolourproject_2stim_asymm_v5,2020.2.10,MacIntel,60,61025ae37ef11b136ea224fe,,,,,,,,,2274,85,-36,1,0,0,response3disk,,5,9,1,1,0,0,rectangle,9,1,1,0,0,,,,,,,9,1,1,0,0,,0,28,28,98,1,
,,,,,,,,,,,,,FF,,,,,,,,1.484,,,,,,,,,,,,,,,,,,,,,,610037b2225e262487da1b1f,61036efed7f05ec17b7b77a5,2021-07-29_23h36.55.512,Simcolourproject_2stim_asymm_v5,2020.2.10,MacIntel,60,61025ae37ef11b136ea224fe,,,,,,,,,4358,-95,-47,1,0,0,response5disk,,2,-3,-1,1,0,0,rectangle,-3,-1,1,0,0,,,,,,,-3,-1,1,0,0,,0,29,29,45,1,
,,,,,,,,,,,,,FF,,,,,,,,1.649,,,,,,,,,,,,,,,,,,,,,,610037b2225e262487da1b1f,61036efed7f05ec17b7b77a5,2021-07-29_23h36.55.512,Simcolourproject_2stim_asymm_v5,2020.2.10,MacIntel,60,61025ae37ef11b136ea224fe,,,,,,,,,2768,40,-97,1,0,0,response3disk,,4,-5,-1,1,0,0,rectangle,-5,-1,1,0,0,,,,,,,-5,-1,1,0,0,,0,30,30,53,1,
,,,,,,,,,,,,,FF,,,,,,,,1.151,,,,,,,,,,,,,,,,,,,,,,610037b2225e262487da1b1f,61036efed7f05ec17b7b77a5,2021-07-29_23h36.55.512,Simcolourproject_2stim_asymm_v5,2020.2.10,MacIntel,60,61025ae37ef11b136ea224fe,,,,,,,,,188,-84,-40,1,0,0,response5disk,,2,-1,6,1,0,0,rectangle,-1,6,1,0,0,,,,,,,-1,6,1,0,0,,0,31,31,110,1,
,,,,,,,,,,,,,FF,,,,,,,,1.016,,,,,,,,,,,,,,,,,,,,,,610037b2225e262487da1b1f,61036efed7f05ec17b7b77a5,2021-07-29_23h36.55.512,Simcolourproject_2stim_asymm_v5,2020.2.10,MacIntel,60,61025ae37ef11b136ea224fe,,,,,,,,,3135,51,68,1,0,0,response1disk,,7,7,0,1,0,0,rectangle,7,0,1,0,0,,,,,,,7,0,1,0,0,,0,32,32,108,1,
,,,,,,,,,,,,,FF,,,,,,,,1.1,,,,,,,,,,,,,,,,,,,,,,610037b2225e262487da1b1f,61036efed7f05ec17b7b77a5,2021-07-29_23h36.55.512,Simcolourproject_2stim_asymm_v5,2020.2.10,MacIntel,60,61025ae37ef11b136ea224fe,,,,,,,,,2129,88,-46,1,0,0,response3disk,,5,7,-9,1,0,0,rectangle,7,-9,1,0,0,,,,,,,7,-9,1,0,0,,0,33,33,88,1,
,,,,,,,,,,,,,FF,,,,,,,,1.301,,,,,,,,,,,,,,,,,,,,,,610037b2225e262487da1b1f,61036efed7f05ec17b7b77a5,2021-07-29_23h36.55.512,Simcolourproject_2stim_asymm_v5,2020.2.10,MacIntel,60,61025ae37ef11b136ea224fe,,,,,,,,,151,95,-56,1,0,0,response3disk,,5,0,2,1,0,0,rectangle,91,49,1,0,0,response1disk_3,TRUE,6,6,"[206,260,18,301,196,184,162,121,50,115,24,176,82,181,35,89,307,1,176,67]",1.683,5,-3,1,0,0,rectangle,0,34,34,95,1,
,,,,,,,,,,,,,FF,,,,,,,,1.3,,,,,,,,,,,,,,,,,,,,,,610037b2225e262487da1b1f,61036efed7f05ec17b7b77a5,2021-07-29_23h36.55.512,Simcolourproject_2stim_asymm_v5,2020.2.10,MacIntel,60,61025ae37ef11b136ea224fe,,,,,,,,,2589,93,32,1,0,0,response1disk,,6,1,-3,1,0,0,rectangle,1,-3,1,0,0,,,,,,,1,-3,1,0,0,,0,35,35,69,1,
,,,,,,,,,,,,,FF,,,,,,,,1.284,,,,,,,,,,,,,,,,,,,,,,610037b2225e262487da1b1f,61036efed7f05ec17b7b77a5,2021-07-29_23h36.55.512,Simcolourproject_2stim_asymm_v5,2020.2.10,MacIntel,60,61025ae37ef11b136ea224fe,,,,,,,,,3418,27,-82,1,0,0,response3disk,,4,-6,-1,1,0,0,rectangle,-6,-1,1,0,0,,,,,,,-6,-1,1,0,0,,0,36,36,117,1,
,,,,,,,,,,,,,FF,,,,,,,,1.716,,,,,,,,,,,,,,,,,,,,,,610037b2225e262487da1b1f,61036efed7f05ec17b7b77a5,2021-07-29_23h36.55.512,Simcolourproject_2stim_asymm_v5,2020.2.10,MacIntel,60,61025ae37ef11b136ea224fe,,,,,,,,,3973,-24,-125,1,0,0,response5disk,,3,-3,-2,1,0,0,rectangle,-3,-2,1,0,0,,,,,,,-3,-2,1,0,0,,0,37,37,78,1,
,,,,,,,,,,,,,FF,,,,,,,,1.632,,,,,,,,,,,,,,,,,,,,,,610037b2225e262487da1b1f,61036efed7f05ec17b7b77a5,2021-07-29_23h36.55.512,Simcolourproject_2stim_asymm_v5,2020.2.10,MacIntel,60,61025ae37ef11b136ea224fe,,,,,,,,,1986,73,-56,1,0,0,response3disk,,5,8,-6,1,0,0,rectangle,8,-6,1,0,0,,,,,,,8,-6,1,0,0,,0,38,38,145,1,
,,,,,,,,,,,,,FF,,,,,,,,1.25,,,,,,,,,,,,,,,,,,,,,,610037b2225e262487da1b1f,61036efed7f05ec17b7b77a5,2021-07-29_23h36.55.512,Simcolourproject_2stim_asymm_v5,2020.2.10,MacIntel,60,61025ae37ef11b136ea224fe,,,,,,,,,1540,39,-78,1,0,0,response3disk,,4,10,-4,1,0,0,rectangle,10,-4,1,0,0,,,,,,,10,-4,1,0,0,,0,39,39,111,1,
,,,,,,,,,,,,,FF,,,,,,,,1.6,,,,,,,,,,,,,,,,,,,,,,610037b2225e262487da1b1f,61036efed7f05ec17b7b77a5,2021-07-29_23h36.55.512,Simcolourproject_2stim_asymm_v5,2020.2.10,MacIntel,60,61025ae37ef11b136ea224fe,,,,,,,,,1962,-89,-28,1,0,0,response5disk,,2,-2,2,1,0,0,rectangle,-2,2,1,0,0,,,,,,,-2,2,1,0,0,,0,40,40,159,1,
,,,,,,,,,,,,,FF,,,,,,,,1.6,,,,,,,,,,,,,,,,,,,,,,610037b2225e262487da1b1f,61036efed7f05ec17b7b77a5,2021-07-29_23h36.55.512,Simcolourproject_2stim_asymm_v5,2020.2.10,MacIntel,60,61025ae37ef11b136ea224fe,,,,,,,,,1488,72,44,1,0,0,response1disk,,6,-2,1,1,0,0,rectangle,-2,1,1,0,0,,,,,,,-2,1,1,0,0,,0,41,41,77,1,
,,,,,,,,,,,,,FF,,,,,,,,1.7,,,,,,,,,,,,,,,,,,,,,,610037b2225e262487da1b1f,61036efed7f05ec17b7b77a5,2021-07-29_23h36.55.512,Simcolourproject_2stim_asymm_v5,2020.2.10,MacIntel,60,61025ae37ef11b136ea224fe,,,,,,,,,329,82,22,1,0,0,response1disk,,6,2,-4,1,0,0,rectangle,2,-4,1,0,0,,,,,,,2,-4,1,0,0,,0,42,42,18,1,
,,,,,,,,,,,,,FF,,,,,,,,1.116,,,,,,,,,,,,,,,,,,,,,,610037b2225e262487da1b1f,61036efed7f05ec17b7b77a5,2021-07-29_23h36.55.512,Simcolourproject_2stim_asymm_v5,2020.2.10,MacIntel,60,61025ae37ef11b136ea224fe,,,,,,,,,3628,42,-67,1,0,0,response3disk,,4,1,7,1,0,0,rectangle,1,7,1,0,0,,,,,,,1,7,1,0,0,,0,43,43,57,1,
,,,,,,,,,,,,,FF,,,,,,,,1.116,,,,,,,,,,,,,,,,,,,,,,610037b2225e262487da1b1f,61036efed7f05ec17b7b77a5,2021-07-29_23h36.55.512,Simcolourproject_2stim_asymm_v5,2020.2.10,MacIntel,60,61025ae37ef11b136ea224fe,,,,,,,,,3990,77,22,1,0,0,response1disk,,6,14,-3,1,0,0,rectangle,14,-3,1,0,0,,,,,,,14,-3,1,0,0,,0,44,44,155,1,
,,,,,,,,,,,,,FF,,,,,,,,1.083,,,,,,,,,,,,,,,,,,,,,,610037b2225e262487da1b1f,61036efed7f05ec17b7b77a5,2021-07-29_23h36.55.512,Simcolourproject_2stim_asymm_v5,2020.2.10,MacIntel,60,61025ae37ef11b136ea224fe,,,,,,,,,290,69,-31,1,0,0,response3disk,,5,13,0,1,0,0,rectangle,13,0,1,0,0,,,,,,,13,0,1,0,0,,0,45,45,43,1,
,,,,,,,,,,,,,FF,,,,,,,,2.067,,,,,,,,,,,,,,,,,,,,,,610037b2225e262487da1b1f,61036efed7f05ec17b7b77a5,2021-07-29_23h36.55.512,Simcolourproject_2stim_asymm_v5,2020.2.10,MacIntel,60,61025ae37ef11b136ea224fe,,,,,,,,,226,90,24,1,0,0,response1disk,,6,12,-7,1,0,0,rectangle,12,-7,1,0,0,,,,,,,12,-7,1,0,0,,0,46,46,96,1,
,,,,,,,,,,,,,FF,,,,,,,,1.334,,,,,,,,,,,,,,,,,,,,,,610037b2225e262487da1b1f,61036efed7f05ec17b7b77a5,2021-07-29_23h36.55.512,Simcolourproject_2stim_asymm_v5,2020.2.10,MacIntel,60,61025ae37ef11b136ea224fe,,,,,,,,,3923,74,-38,1,0,0,response3disk,,5,8,1,1,0,0,rectangle,8,1,1,0,0,,,,,,,8,1,1,0,0,,0,47,47,50,1,
,,,,,,,,,,,,,FF,,,,,,,,0.968,,,,,,,,,,,,,,,,,,,,,,610037b2225e262487da1b1f,61036efed7f05ec17b7b77a5,2021-07-29_23h36.55.512,Simcolourproject_2stim_asymm_v5,2020.2.10,MacIntel,60,61025ae37ef11b136ea224fe,,,,,,,,,2042,32,-67,1,0,0,response3disk,,4,6,8,1,0,0,rectangle,6,8,1,0,0,,,,,,,6,8,1,0,0,,0,48,48,60,1,
,,,,,,,,,,,,,FF,,,,,,,,1.517,,,,,,,,,,,,,,,,,,,,,,610037b2225e262487da1b1f,61036efed7f05ec17b7b77a5,2021-07-29_23h36.55.512,Simcolourproject_2stim_asymm_v5,2020.2.10,MacIntel,60,61025ae37ef11b136ea224fe,,,,,,,,,4321,72,-45,1,0,0,response3disk,,5,3,-4,1,0,0,rectangle,-94,-46,1,0,0,response5disk_3,TRUE,2,2,"[206,260,18,301,196,184,162,121,50,115,24,176,82,181,35,89,307,1,176,67]",1.716,-6,-4,1,0,0,rectangle,0,49,49,86,1,
,,,,,,,,,,,,,FF,,,,,,,,1.951,,,,,,,,,,,,,,,,,,,,,,610037b2225e262487da1b1f,61036efed7f05ec17b7b77a5,2021-07-29_23h36.55.512,Simcolourproject_2stim_asymm_v5,2020.2.10,MacIntel,60,61025ae37ef11b136ea224fe,,,,,,,,,2638,87,-40,1,0,0,response3disk,,5,-9,-2,1,0,0,rectangle,-9,-2,1,0,0,,,,,,,-9,-2,1,0,0,,0,50,50,3,1,
,,,,,,,,,,,,,FF,,,,,,,,1.882,,,,,,,,,,,,,,,,,,,,,,610037b2225e262487da1b1f,61036efed7f05ec17b7b77a5,2021-07-29_23h36.55.512,Simcolourproject_2stim_asymm_v5,2020.2.10,MacIntel,60,61025ae37ef11b136ea224fe,,,,,,,,,3895,95,36,1,0,0,response1disk,,6,9,-12,1,0,0,rectangle,9,-12,1,0,0,,,,,,,9,-12,1,0,0,,0,51,51,157,1,
,,,,,,,,,,,,,FF,,,,,,,,0.999,,,,,,,,,,,,,,,,,,,,,,610037b2225e262487da1b1f,61036efed7f05ec17b7b77a5,2021-07-29_23h36.55.512,Simcolourproject_2stim_asymm_v5,2020.2.10,MacIntel,60,61025ae37ef11b136ea224fe,,,,,,,,,3667,103,-51,1,0,0,response3disk,,5,6,-6,1,0,0,rectangle,6,-6,1,0,0,,,,,,,6,-6,1,0,0,,0,52,52,121,1,
,,,,,,,,,,,,,FF,,,,,,,,1.082,,,,,,,,,,,,,,,,,,,,,,610037b2225e262487da1b1f,61036efed7f05ec17b7b77a5,2021-07-29_23h36.55.512,Simcolourproject_2stim_asymm_v5,2020.2.10,MacIntel,60,61025ae37ef11b136ea224fe,,,,,,,,,2756,83,45,1,0,0,response1disk,,6,1,-2,1,0,0,rectangle,1,-2,1,0,0,,,,,,,1,-2,1,0,0,,0,53,53,127,1,
,,,,,,,,,,,,,FF,,,,,,,,1.6,,,,,,,,,,,,,,,,,,,,,,610037b2225e262487da1b1f,61036efed7f05ec17b7b77a5,2021-07-29_23h36.55.512,Simcolourproject_2stim_asymm_v5,2020.2.10,MacIntel,60,61025ae37ef11b136ea224fe,,,,,,,,,1042,91,37,1,0,0,response1disk,,6,10,-1,1,0,0,rectangle,10,-1,1,0,0,,,,,,,10,-1,1,0,0,,0,54,54,114,1,
,,,,,,,,,,,,,FF,,,,,,,,1.966,,,,,,,,,,,,,,,,,,,,,,610037b2225e262487da1b1f,61036efed7f05ec17b7b77a5,2021-07-29_23h36.55.512,Simcolourproject_2stim_asymm_v5,2020.2.10,MacIntel,60,61025ae37ef11b136ea224fe,,,,,,,,,3240,-35,-100,1,0,0,response5disk,,3,8,7,1,0,0,rectangle,8,7,1,0,0,,,,,,,8,7,1,0,0,,0,55,55,64,1,
,,,,,,,,,,,,,FF,,,,,,,,1.033,,,,,,,,,,,,,,,,,,,,,,610037b2225e262487da1b1f,61036efed7f05ec17b7b77a5,2021-07-29_23h36.55.512,Simcolourproject_2stim_asymm_v5,2020.2.10,MacIntel,60,61025ae37ef11b136ea224fe,,,,,,,,,1014,41,73,1,0,0,response1disk,,7,5,4,1,0,0,rectangle,5,4,1,0,0,,,,,,,5,4,1,0,0,,0,56,56,137,1,
,,,,,,,,,,,,,FF,,,,,,,,1.833,,,,,,,,,,,,,,,,,,,,,,610037b2225e262487da1b1f,61036efed7f05ec17b7b77a5,2021-07-29_23h36.55.512,Simcolourproject_2stim_asymm_v5,2020.2.10,MacIntel,60,61025ae37ef11b136ea224fe,,,,,,,,,3948,-37,-84,1,0,0,response5disk,,3,13,3,1,0,0,rectangle,13,3,1,0,0,,,,,,,13,3,1,0,0,,0,57,57,13,1,
,,,,,,,,,,,,,FF,,,,,,,,1.285,,,,,,,,,,,,,,,,,,,,,,610037b2225e262487da1b1f,61036efed7f05ec17b7b77a5,2021-07-29_23h36.55.512,Simcolourproject_2stim_asymm_v5,2020.2.10,MacIntel,60,61025ae37ef11b136ea224fe,,,,,,,,,2034,-72,27,1,0,0,response7disk,,1,-1,4,1,0,0,rectangle,-1,4,1,0,0,,,,,,,-1,4,1,0,0,,0,58,58,138,1,
,,,,,,,,,,,,,FF,,,,,,,,4.4,,,,,,,,,,,,,,,,,,,,,,610037b2225e262487da1b1f,61036efed7f05ec17b7b77a5,2021-07-29_23h36.55.512,Simcolourproject_2stim_asymm_v5,2020.2.10,MacIntel,60,61025ae37ef11b136ea224fe,,,,,,,,,727,51,-84,1,0,0,response3disk,,4,10,1,1,0,0,rectangle,10,1,1,0,0,,,,,,,10,1,1,0,0,,0,59,59,81,1,
,,,,,,,,,,,,,FF,,,,,,,,1.784,,,,,,,,,,,,,,,,,,,,,,610037b2225e262487da1b1f,61036efed7f05ec17b7b77a5,2021-07-29_23h36.55.512,Simcolourproject_2stim_asymm_v5,2020.2.10,MacIntel,60,61025ae37ef11b136ea224fe,,,,,,,,,673,86,25,1,0,0,response1disk,,6,-4,-7,1,0,0,rectangle,-4,-7,1,0,0,,,,,,,-4,-7,1,0,0,,0,60,60,61,1,
,,,,,,,,,,,,,FF,,,,,,,,1.333,,,,,,,,,,,,,,,,,,,,,,610037b2225e262487da1b1f,61036efed7f05ec17b7b77a5,2021-07-29_23h36.55.512,Simcolourproject_2stim_asymm_v5,2020.2.10,MacIntel,60,61025ae37ef11b136ea224fe,,,,,,,,,3119,40,-78,1,0,0,response3disk,,4,4,2,1,0,0,rectangle,4,2,1,0,0,,,,,,,4,2,1,0,0,,0,61,61,70,1,
,,,,,,,,,,,,,FF,,,,,,,,1.267,,,,,,,,,,,,,,,,,,,,,,610037b2225e262487da1b1f,61036efed7f05ec17b7b77a5,2021-07-29_23h36.55.512,Simcolourproject_2stim_asymm_v5,2020.2.10,MacIntel,60,61025ae37ef11b136ea224fe,,,,,,,,,2064,48,-57,1,0,0,response3disk,,4,20,-6,1,0,0,rectangle,20,-6,1,0,0,,,,,,,20,-6,1,0,0,,0,62,62,158,1,
,,,,,,,,,,,,,FF,,,,,,,,2.166,,,,,,,,,,,,,,,,,,,,,,610037b2225e262487da1b1f,61036efed7f05ec17b7b77a5,2021-07-29_23h36.55.512,Simcolourproject_2stim_asymm_v5,2020.2.10,MacIntel,60,61025ae37ef11b136ea224fe,,,,,,,,,4153,64,-24,1,0,0,response3disk,,5,11,0,1,0,0,rectangle,11,0,1,0,0,,,,,,,11,0,1,0,0,,0,63,63,72,1,
,,,,,,,,,,,,,FF,,,,,,,,1.084,,,,,,,,,,,,,,,,,,,,,,610037b2225e262487da1b1f,61036efed7f05ec17b7b77a5,2021-07-29_23h36.55.512,Simcolourproject_2stim_asymm_v5,2020.2.10,MacIntel,60,61025ae37ef11b136ea224fe,,,,,,,,,1837,34,-83,1,0,0,response3disk,,4,11,-2,1,0,0,rectangle,11,-2,1,0,0,,,,,,,11,-2,1,0,0,,0,64,64,118,1,
,,,,,,,,,,,,,FF,,,,,,,,1.851,,,,,,,,,,,,,,,,,,,,,,610037b2225e262487da1b1f,61036efed7f05ec17b7b77a5,2021-07-29_23h36.55.512,Simcolourproject_2stim_asymm_v5,2020.2.10,MacIntel,60,61025ae37ef11b136ea224fe,,,,,,,,,3762,94,-29,1,0,0,response3disk,,5,8,0,1,0,0,rectangle,8,0,1,0,0,,,,,,,8,0,1,0,0,,0,65,65,1,1,
,,,,,,,,,,,,,FF,,,,,,,,1.65,,,,,,,,,,,,,,,,,,,,,,610037b2225e262487da1b1f,61036efed7f05ec17b7b77a5,2021-07-29_23h36.55.512,Simcolourproject_2stim_asymm_v5,2020.2.10,MacIntel,60,61025ae37ef11b136ea224fe,,,,,,,,,736,31,-80,1,0,0,response3disk,,4,2,-4,1,0,0,rectangle,-47,95,1,0,0,response7disk_3,TRUE,0,0,"[206,260,18,301,196,184,162,121,50,115,24,176,82,181,35,89,307,1,176,67]",1.515,-2,-3,1,0,0,rectangle,0,66,66,92,1,
,,,,,,,,,,,,,FF,,,,,,,,1.167,,,,,,,,,,,,,,,,,,,,,,610037b2225e262487da1b1f,61036efed7f05ec17b7b77a5,2021-07-29_23h36.55.512,Simcolourproject_2stim_asymm_v5,2020.2.10,MacIntel,60,61025ae37ef11b136ea224fe,,,,,,,,,3005,-83,21,1,0,0,response7disk,,1,-4,-4,1,0,0,rectangle,-4,-4,1,0,0,,,,,,,-4,-4,1,0,0,,0,67,67,11,1,
,,,,,,,,,,,,,FF,,,,,,,,2.417,,,,,,,,,,,,,,,,,,,,,,610037b2225e262487da1b1f,61036efed7f05ec17b7b77a5,2021-07-29_23h36.55.512,Simcolourproject_2stim_asymm_v5,2020.2.10,MacIntel,60,61025ae37ef11b136ea224fe,,,,,,,,,1718,99,41,1,0,0,response1disk,,6,6,2,1,0,0,rectangle,6,2,1,0,0,,,,,,,6,2,1,0,0,,0,68,68,126,1,
,,,,,,,,,,,,,FF,,,,,,,,1.584,,,,,,,,,,,,,,,,,,,,,,610037b2225e262487da1b1f,61036efed7f05ec17b7b77a5,2021-07-29_23h36.55.512,Simcolourproject_2stim_asymm_v5,2020.2.10,MacIntel,60,61025ae37ef11b136ea224fe,,,,,,,,,3534,100,37,1,0,0,response1disk,,6,-3,-5,1,0,0,rectangle,-3,-5,1,0,0,,,,,,,-3,-5,1,0,0,,0,69,69,38,1,
,,,,,,,,,,,,,FF,,,,,,,,1.017,,,,,,,,,,,,,,,,,,,,,,610037b2225e262487da1b1f,61036efed7f05ec17b7b77a5,2021-07-29_23h36.55.512,Simcolourproject_2stim_asymm_v5,2020.2.10,MacIntel,60,61025ae37ef11b136ea224fe,,,,,,,,,2195,31,-68,1,0,0,response3disk,,4,-2,-2,1,0,0,rectangle,-2,-2,1,0,0,,,,,,,-2,-2,1,0,0,,0,70,70,135,1,
,,,,,,,,,,,,,FF,,,,,,,,1.399,,,,,,,,,,,,,,,,,,,,,,610037b2225e262487da1b1f,61036efed7f05ec17b7b77a5,2021-07-29_23h36.55.512,Simcolourproject_2stim_asymm_v5,2020.2.10,MacIntel,60,61025ae37ef11b136ea224fe,,,,,,,,,2725,-86,-38,1,0,0,response5disk,,2,-19,0,1,0,0,rectangle,-19,0,1,0,0,,,,,,,-19,0,1,0,0,,0,71,71,30,1,
,,,,,,,,,,,,,FF,,,,,,,,1.034,,,,,,,,,,,,,,,,,,,,,,610037b2225e262487da1b1f,61036efed7f05ec17b7b77a5,2021-07-29_23h36.55.512,Simcolourproject_2stim_asymm_v5,2020.2.10,MacIntel,60,61025ae37ef11b136ea224fe,,,,,,,,,953,-58,-85,1,0,0,response5disk,,3,-11,-11,1,0,0,rectangle,-11,-11,1,0,0,,,,,,,-11,-11,1,0,0,,0,72,72,40,1,
,,,,,,,,,,,,,FF,,,,,,,,1.1,,,,,,,,,,,,,,,,,,,,,,610037b2225e262487da1b1f,61036efed7f05ec17b7b77a5,2021-07-29_23h36.55.512,Simcolourproject_2stim_asymm_v5,2020.2.10,MacIntel,60,61025ae37ef11b136ea224fe,,,,,,,,,410,93,54,1,0,0,response1disk,,6,12,3,1,0,0,rectangle,12,3,1,0,0,,,,,,,12,3,1,0,0,,0,73,73,112,1,
,,,,,,,,,,,,,FF,,,,,,,,1.082,,,,,,,,,,,,,,,,,,,,,,610037b2225e262487da1b1f,61036efed7f05ec17b7b77a5,2021-07-29_23h36.55.512,Simcolourproject_2stim_asymm_v5,2020.2.10,MacIntel,60,61025ae37ef11b136ea224fe,,,,,,,,,1199,39,-63,1,0,0,response3disk,,4,-7,3,1,0,0,rectangle,-7,3,1,0,0,,,,,,,-7,3,1,0,0,,0,74,74,8,1,
,,,,,,,,,,,,,FF,,,,,,,,1.583,,,,,,,,,,,,,,,,,,,,,,610037b2225e262487da1b1f,61036efed7f05ec17b7b77a5,2021-07-29_23h36.55.512,Simcolourproject_2stim_asymm_v5,2020.2.10,MacIntel,60,61025ae37ef11b136ea224fe,,,,,,,,,763,107,-29,1,0,0,response3disk,,5,8,-1,1,0,0,rectangle,8,-1,1,0,0,,,,,,,8,-1,1,0,0,,0,75,75,26,1,
,,,,,,,,,,,,,FF,,,,,,,,1.167,,,,,,,,,,,,,,,,,,,,,,610037b2225e262487da1b1f,61036efed7f05ec17b7b77a5,2021-07-29_23h36.55.512,Simcolourproject_2stim_asymm_v5,2020.2.10,MacIntel,60,61025ae37ef11b136ea224fe,,,,,,,,,3348,-38,-88,1,0,0,response5disk,,3,9,2,1,0,0,rectangle,9,2,1,0,0,,,,,,,9,2,1,0,0,,0,76,76,12,1,
,,,,,,,,,,,,,FF,,,,,,,,1.433,,,,,,,,,,,,,,,,,,,,,,610037b2225e262487da1b1f,61036efed7f05ec17b7b77a5,2021-07-29_23h36.55.512,Simcolourproject_2stim_asymm_v5,2020.2.10,MacIntel,60,61025ae37ef11b136ea224fe,,,,,,,,,401,67,51,1,0,0,response1disk,,6,12,2,1,0,0,rectangle,12,2,1,0,0,,,,,,,12,2,1,0,0,,0,77,77,120,1,
,,,,,,,,,,,,,FF,,,,,,,,2.733,,,,,,,,,,,,,,,,,,,,,,610037b2225e262487da1b1f,61036efed7f05ec17b7b77a5,2021-07-29_23h36.55.512,Simcolourproject_2stim_asymm_v5,2020.2.10,MacIntel,60,61025ae37ef11b136ea224fe,,,,,,,,,4062,67,52,1,0,0,response1disk,,6,5,6,1,0,0,rectangle,5,6,1,0,0,,,,,,,5,6,1,0,0,,0,78,78,55,1,
,,,,,,,,,,,,,FF,,,,,,,,1.75,,,,,,,,,,,,,,,,,,,,,,610037b2225e262487da1b1f,61036efed7f05ec17b7b77a5,2021-07-29_23h36.55.512,Simcolourproject_2stim_asymm_v5,2020.2.10,MacIntel,60,61025ae37ef11b136ea224fe,,,,,,,,,3699,78,-48,1,0,0,response3disk,,5,7,1,1,0,0,rectangle,7,1,1,0,0,,,,,,,7,1,1,0,0,,0,79,79,49,1,
,,,,,,,,,,,,,FF,,,,,,,,2.35,,,,,,,,,,,,,,,,,,,,,,610037b2225e262487da1b1f,61036efed7f05ec17b7b77a5,2021-07-29_23h36.55.512,Simcolourproject_2stim_asymm_v5,2020.2.10,MacIntel,60,61025ae37ef11b136ea224fe,,,,,,,,,82,-34,-69,1,0,0,response5disk,,3,1,-2,1,0,0,rectangle,1,-2,1,0,0,,,,,,,1,-2,1,0,0,,0,80,80,79,1,
,,,,,,,,,,,,,FF,,,,,,,,1.2,,,,,,,,,,,,,,,,,,,,,,610037b2225e262487da1b1f,61036efed7f05ec17b7b77a5,2021-07-29_23h36.55.512,Simcolourproject_2stim_asymm_v5,2020.2.10,MacIntel,60,61025ae37ef11b136ea224fe,,,,,,,,,4353,-93,-40,1,0,0,response5disk,,2,-11,3,1,0,0,rectangle,37,-87,1,0,0,response3disk_3,TRUE,4,4,"[206,260,18,301,196,184,162,121,50,115,24,176,82,181,35,89,307,1,176,67]",1.932,-7,1,1,0,0,rectangle,0,81,81,63,1,
,,,,,,,,,,,,,FF,,,,,,,,1.183,,,,,,,,,,,,,,,,,,,,,,610037b2225e262487da1b1f,61036efed7f05ec17b7b77a5,2021-07-29_23h36.55.512,Simcolourproject_2stim_asymm_v5,2020.2.10,MacIntel,60,61025ae37ef11b136ea224fe,,,,,,,,,583,80,35,1,0,0,response1disk,,6,19,-11,1,0,0,rectangle,19,-11,1,0,0,,,,,,,19,-11,1,0,0,,0,82,82,68,1,
,,,,,,,,,,,,,FF,,,,,,,,1.067,,,,,,,,,,,,,,,,,,,,,,610037b2225e262487da1b1f,61036efed7f05ec17b7b77a5,2021-07-29_23h36.55.512,Simcolourproject_2stim_asymm_v5,2020.2.10,MacIntel,60,61025ae37ef11b136ea224fe,,,,,,,,,3043,90,37,1,0,0,response1disk,,6,-5,-9,1,0,0,rectangle,-5,-9,1,0,0,,,,,,,-5,-9,1,0,0,,0,83,83,116,1,
,,,,,,,,,,,,,FF,,,,,,,,1.101,,,,,,,,,,,,,,,,,,,,,,610037b2225e262487da1b1f,61036efed7f05ec17b7b77a5,2021-07-29_23h36.55.512,Simcolourproject_2stim_asymm_v5,2020.2.10,MacIntel,60,61025ae37ef11b136ea224fe,,,,,,,,,3677,-75,-38,1,0,0,response5disk,,2,-19,-8,1,0,0,rectangle,-19,-8,1,0,0,,,,,,,-19,-8,1,0,0,,0,84,84,46,1,
,,,,,,,,,,,,,FF,,,,,,,,1.184,,,,,,,,,,,,,,,,,,,,,,610037b2225e262487da1b1f,61036efed7f05ec17b7b77a5,2021-07-29_23h36.55.512,Simcolourproject_2stim_asymm_v5,2020.2.10,MacIntel,60,61025ae37ef11b136ea224fe,,,,,,,,,2315,92,32,1,0,0,response1disk,,6,14,-3,1,0,0,rectangle,14,-3,1,0,0,,,,,,,14,-3,1,0,0,,0,85,85,147,1,
,,,,,,,,,,,,,FF,,,,,,,,1.001,,,,,,,,,,,,,,,,,,,,,,610037b2225e262487da1b1f,61036efed7f05ec17b7b77a5,2021-07-29_23h36.55.512,Simcolourproject_2stim_asymm_v5,2020.2.10,MacIntel,60,61025ae37ef11b136ea224fe,,,,,,,,,2663,-81,-50,1,0,0,response5disk,,2,-3,-5,1,0,0,rectangle,-3,-5,1,0,0,,,,,,,-3,-5,1,0,0,,0,86,86,41,1,
,,,,,,,,,,,,,FF,,,,,,,,0.865,,,,,,,,,,,,,,,,,,,,,,610037b2225e262487da1b1f,61036efed7f05ec17b7b77a5,2021-07-29_23h36.55.512,Simcolourproject_2stim_asymm_v5,2020.2.10,MacIntel,60,61025ae37ef11b136ea224fe,,,,,,,,,3517,-81,-43,1,0,0,response5disk,,2,0,-5,1,0,0,rectangle,0,-5,1,0,0,,,,,,,0,-5,1,0,0,,0,87,87,83,1,
,,,,,,,,,,,,,FF,,,,,,,,0.966,,,,,,,,,,,,,,,,,,,,,,610037b2225e262487da1b1f,61036efed7f05ec17b7b77a5,2021-07-29_23h36.55.512,Simcolourproject_2stim_asymm_v5,2020.2.10,MacIntel,60,61025ae37ef11b136ea224fe,,,,,,,,,2773,100,45,1,0,0,response1disk,,6,7,-2,1,0,0,rectangle,-52,103,1,0,0,response7disk_3,TRUE,0,0,"[206,260,18,301,196,184,162,121,50,115,24,176,82,181,35,89,307,1,176,67]",1.384,-2,-4,1,0,0,rectangle,0,88,88,125,1,
,,,,,,,,,,,,,FF,,,,,,,,1.15,,,,,,,,,,,,,,,,,,,,,,610037b2225e262487da1b1f,61036efed7f05ec17b7b77a5,2021-07-29_23h36.55.512,Simcolourproject_2stim_asymm_v5,2020.2.10,MacIntel,60,61025ae37ef11b136ea224fe,,,,,,,,,3171,57,-93,1,0,0,response3disk,,4,10,-3,1,0,0,rectangle,10,-3,1,0,0,,,,,,,10,-3,1,0,0,,0,89,89,2,1,
,,,,,,,,,,,,,FF,,,,,,,,1.233,,,,,,,,,,,,,,,,,,,,,,610037b2225e262487da1b1f,61036efed7f05ec17b7b77a5,2021-07-29_23h36.55.512,Simcolourproject_2stim_asymm_v5,2020.2.10,MacIntel,60,61025ae37ef11b136ea224fe,,,,,,,,,2240,-43,-72,1,0,0,response5disk,,3,-6,-3,1,0,0,rectangle,-6,-3,1,0,0,,,,,,,-6,-3,1,0,0,,0,90,90,91,1,
,,,,,,,,,,,,,FF,,,,,,,,1.033,,,,,,,,,,,,,,,,,,,,,,610037b2225e262487da1b1f,61036efed7f05ec17b7b77a5,2021-07-29_23h36.55.512,Simcolourproject_2stim_asymm_v5,2020.2.10,MacIntel,60,61025ae37ef11b136ea224fe,,,,,,,,,2320,83,-27,1,0,0,response3disk,,5,3,2,1,0,0,rectangle,3,2,1,0,0,,,,,,,3,2,1,0,0,,0,91,91,150,1,
,,,,,,,,,,,,,FF,,,,,,,,0.867,,,,,,,,,,,,,,,,,,,,,,610037b2225e262487da1b1f,61036efed7f05ec17b7b77a5,2021-07-29_23h36.55.512,Simcolourproject_2stim_asymm_v5,2020.2.10,MacIntel,60,61025ae37ef11b136ea224fe,,,,,,,,,431,-98,-40,1,0,0,response5disk,,2,4,1,1,0,0,rectangle,4,1,1,0,0,,,,,,,4,1,1,0,0,,0,92,92,80,1,
,,,,,,,,,,,,,FF,,,,,,,,1.616,,,,,,,,,,,,,,,,,,,,,,610037b2225e262487da1b1f,61036efed7f05ec17b7b77a5,2021-07-29_23h36.55.512,Simcolourproject_2stim_asymm_v5,2020.2.10,MacIntel,60,61025ae37ef11b136ea224fe,,,,,,,,,2441,21,-84,1,0,0,response3disk,,4,-5,0,1,0,0,rectangle,-5,0,1,0,0,,,,,,,-5,0,1,0,0,,0,93,93,142,1,
,,,,,,,,,,,,,FF,,,,,,,,3.732,,,,,,,,,,,,,,,,,,,,,,610037b2225e262487da1b1f,61036efed7f05ec17b7b77a5,2021-07-29_23h36.55.512,Simcolourproject_2stim_asymm_v5,2020.2.10,MacIntel,60,61025ae37ef11b136ea224fe,,,,,,,,,3094,79,-43,1,0,0,response3disk,,5,-2,5,1,0,0,rectangle,-2,5,1,0,0,,,,,,,-2,5,1,0,0,,0,94,94,136,1,
,,,,,,,,,,,,,FF,,,,,,,,1.049,,,,,,,,,,,,,,,,,,,,,,610037b2225e262487da1b1f,61036efed7f05ec17b7b77a5,2021-07-29_23h36.55.512,Simcolourproject_2stim_asymm_v5,2020.2.10,MacIntel,60,61025ae37ef11b136ea224fe,,,,,,,,,3056,-48,-99,1,0,0,response5disk,,3,15,11,1,0,0,rectangle,15,11,1,0,0,,,,,,,15,11,1,0,0,,0,95,95,22,1,
,,,,,,,,,,,,,FF,,,,,,,,1,,,,,,,,,,,,,,,,,,,,,,610037b2225e262487da1b1f,61036efed7f05ec17b7b77a5,2021-07-29_23h36.55.512,Simcolourproject_2stim_asymm_v5,2020.2.10,MacIntel,60,61025ae37ef11b136ea224fe,,,,,,,,,2533,32,-76,1,0,0,response3disk,,4,7,-3,1,0,0,rectangle,7,-3,1,0,0,,,,,,,7,-3,1,0,0,,0,96,96,146,1,
,,,,,,,,,,,,,FF,,,,,,,,0.935,,,,,,,,,,,,,,,,,,,,,,610037b2225e262487da1b1f,61036efed7f05ec17b7b77a5,2021-07-29_23h36.55.512,Simcolourproject_2stim_asymm_v5,2020.2.10,MacIntel,60,61025ae37ef11b136ea224fe,,,,,,,,,1296,-83,-38,1,0,0,response5disk,,2,-3,-1,1,0,0,rectangle,-3,-1,1,0,0,,,,,,,-3,-1,1,0,0,,0,97,97,128,1,
,,,,,,,,,,,,,FF,,,,,,,,0.918,,,,,,,,,,,,,,,,,,,,,,610037b2225e262487da1b1f,61036efed7f05ec17b7b77a5,2021-07-29_23h36.55.512,Simcolourproject_2stim_asymm_v5,2020.2.10,MacIntel,60,61025ae37ef11b136ea224fe,,,,,,,,,3151,-78,-37,1,0,0,response5disk,,2,8,-1,1,0,0,rectangle,8,-1,1,0,0,,,,,,,8,-1,1,0,0,,0,98,98,20,1,
,,,,,,,,,,,,,FF,,,,,,,,1.016,,,,,,,,,,,,,,,,,,,,,,610037b2225e262487da1b1f,61036efed7f05ec17b7b77a5,2021-07-29_23h36.55.512,Simcolourproject_2stim_asymm_v5,2020.2.10,MacIntel,60,61025ae37ef11b136ea224fe,,,,,,,,,1815,-36,92,1,0,0,response7disk,,0,3,0,1,0,0,rectangle,3,0,1,0,0,,,,,,,3,0,1,0,0,,0,99,99,5,1,
,,,,,,,,,,,,,FF,,,,,,,,1.099,,,,,,,,,,,,,,,,,,,,,,610037b2225e262487da1b1f,61036efed7f05ec17b7b77a5,2021-07-29_23h36.55.512,Simcolourproject_2stim_asymm_v5,2020.2.10,MacIntel,60,61025ae37ef11b136ea224fe,,,,,,,,,4000,-78,-31,1,0,0,response5disk,,2,-16,-9,1,0,0,rectangle,-16,-9,1,0,0,,,,,,,-16,-9,1,0,0,,0,100,100,36,1,
,,,,,,,,,,,,,FF,,,,,,,,0.899,,,,,,,,,,,,,,,,,,,,,,610037b2225e262487da1b1f,61036efed7f05ec17b7b77a5,2021-07-29_23h36.55.512,Simcolourproject_2stim_asymm_v5,2020.2.10,MacIntel,60,61025ae37ef11b136ea224fe,,,,,,,,,236,89,41,1,0,0,response1disk,,6,13,-1,1,0,0,rectangle,13,-1,1,0,0,,,,,,,13,-1,1,0,0,,0,101,101,152,1,
,,,,,,,,,,,,,FF,,,,,,,,1.051,,,,,,,,,,,,,,,,,,,,,,610037b2225e262487da1b1f,61036efed7f05ec17b7b77a5,2021-07-29_23h36.55.512,Simcolourproject_2stim_asymm_v5,2020.2.10,MacIntel,60,61025ae37ef11b136ea224fe,,,,,,,,,1720,35,91,1,0,0,response1disk,,7,10,9,1,0,0,rectangle,10,9,1,0,0,,,,,,,10,9,1,0,0,,0,102,102,122,1,
,,,,,,,,,,,,,FF,,,,,,,,1.8,,,,,,,,,,,,,,,,,,,,,,610037b2225e262487da1b1f,61036efed7f05ec17b7b77a5,2021-07-29_23h36.55.512,Simcolourproject_2stim_asymm_v5,2020.2.10,MacIntel,60,61025ae37ef11b136ea224fe,,,,,,,,,2861,45,71,1,0,0,response1disk,,7,24,9,1,0,0,rectangle,24,9,1,0,0,,,,,,,24,9,1,0,0,,0,103,103,65,1,
,,,,,,,,,,,,,FF,,,,,,,,1.766,,,,,,,,,,,,,,,,,,,,,,610037b2225e262487da1b1f,61036efed7f05ec17b7b77a5,2021-07-29_23h36.55.512,Simcolourproject_2stim_asymm_v5,2020.2.10,MacIntel,60,61025ae37ef11b136ea224fe,,,,,,,,,3946,84,-55,1,0,0,response3disk,,5,11,2,1,0,0,rectangle,11,2,1,0,0,,,,,,,11,2,1,0,0,,0,104,104,24,1,
,,,,,,,,,,,,,FF,,,,,,,,0.901,,,,,,,,,,,,,,,,,,,,,,610037b2225e262487da1b1f,61036efed7f05ec17b7b77a5,2021-07-29_23h36.55.512,Simcolourproject_2stim_asymm_v5,2020.2.10,MacIntel,60,61025ae37ef11b136ea224fe,,,,,,,,,1999,109,50,1,0,0,response1disk,,6,2,-4,1,0,0,rectangle,2,-4,1,0,0,,,,,,,2,-4,1,0,0,,0,105,105,66,1,
,,,,,,,,,,,,,FF,,,,,,,,1.785,,,,,,,,,,,,,,,,,,,,,,610037b2225e262487da1b1f,61036efed7f05ec17b7b77a5,2021-07-29_23h36.55.512,Simcolourproject_2stim_asymm_v5,2020.2.10,MacIntel,60,61025ae37ef11b136ea224fe,,,,,,,,,827,82,52,1,0,0,response1disk,,6,3,-6,1,0,0,rectangle,3,-6,1,0,0,,,,,,,3,-6,1,0,0,,0,106,106,44,1,
,,,,,,,,,,,,,FF,,,,,,,,1.65,,,,,,,,,,,,,,,,,,,,,,610037b2225e262487da1b1f,61036efed7f05ec17b7b77a5,2021-07-29_23h36.55.512,Simcolourproject_2stim_asymm_v5,2020.2.10,MacIntel,60,61025ae37ef11b136ea224fe,,,,,,,,,1011,91,36,1,0,0,response1disk,,6,4,5,1,0,0,rectangle,4,5,1,0,0,,,,,,,4,5,1,0,0,,0,107,107,16,1,
,,,,,,,,,,,,,FF,,,,,,,,0.968,,,,,,,,,,,,,,,,,,,,,,610037b2225e262487da1b1f,61036efed7f05ec17b7b77a5,2021-07-29_23h36.55.512,Simcolourproject_2stim_asymm_v5,2020.2.10,MacIntel,60,61025ae37ef11b136ea224fe,,,,,,,,,4095,-43,85,1,0,0,response7disk,,0,1,1,1,0,0,rectangle,1,1,1,0,0,,,,,,,1,1,1,0,0,,0,108,108,93,1,
,,,,,,,,,,,,,FF,,,,,,,,1.899,,,,,,,,,,,,,,,,,,,,,,610037b2225e262487da1b1f,61036efed7f05ec17b7b77a5,2021-07-29_23h36.55.512,Simcolourproject_2stim_asymm_v5,2020.2.10,MacIntel,60,61025ae37ef11b136ea224fe,,,,,,,,,3500,53,75,1,0,0,response1disk,,7,8,3,1,0,0,rectangle,8,3,1,0,0,,,,,,,8,3,1,0,0,,0,109,109,87,1,
,,,,,,,,,,,,,FF,,,,,,,,1.1,,,,,,,,,,,,,,,,,,,,,,610037b2225e262487da1b1f,61036efed7f05ec17b7b77a5,2021-07-29_23h36.55.512,Simcolourproject_2stim_asymm_v5,2020.2.10,MacIntel,60,61025ae37ef11b136ea224fe,,,,,,,,,1064,80,-45,1,0,0,response3disk,,5,6,-9,1,0,0,rectangle,6,-9,1,0,0,,,,,,,6,-9,1,0,0,,0,110,110,54,1,
,,,,,,,,,,,,,FF,,,,,,,,0.916,,,,,,,,,,,,,,,,,,,,,,610037b2225e262487da1b1f,61036efed7f05ec17b7b77a5,2021-07-29_23h36.55.512,Simcolourproject_2stim_asymm_v5,2020.2.10,MacIntel,60,61025ae37ef11b136ea224fe,,,,,,,,,2248,43,-84,1,0,0,response3disk,,4,15,0,1,0,0,rectangle,15,0,1,0,0,,,,,,,15,0,1,0,0,,0,111,111,9,1,
,,,,,,,,,,,,,FF,,,,,,,,0.916,,,,,,,,,,,,,,,,,,,,,,610037b2225e262487da1b1f,61036efed7f05ec17b7b77a5,2021-07-29_23h36.55.512,Simcolourproject_2stim_asymm_v5,2020.2.10,MacIntel,60,61025ae37ef11b136ea224fe,,,,,,,,,598,93,48,1,0,0,response1disk,,6,-8,0,1,0,0,rectangle,-8,0,1,0,0,,,,,,,-8,0,1,0,0,,0,112,112,149,1,
,,,,,,,,,,,,,FF,,,,,,,,0.95,,,,,,,,,,,,,,,,,,,,,,610037b2225e262487da1b1f,61036efed7f05ec17b7b77a5,2021-07-29_23h36.55.512,Simcolourproject_2stim_asymm_v5,2020.2.10,MacIntel,60,61025ae37ef11b136ea224fe,,,,,,,,,1393,31,-86,1,0,0,response3disk,,4,1,0,1,0,0,rectangle,1,0,1,0,0,,,,,,,1,0,1,0,0,,0,113,113,33,1,
,,,,,,,,,,,,,FF,,,,,,,,1.117,,,,,,,,,,,,,,,,,,,,,,610037b2225e262487da1b1f,61036efed7f05ec17b7b77a5,2021-07-29_23h36.55.512,Simcolourproject_2stim_asymm_v5,2020.2.10,MacIntel,60,61025ae37ef11b136ea224fe,,,,,,,,,280,-43,-73,1,0,0,response5disk,,3,-4,2,1,0,0,rectangle,58,107,1,0,0,response1disk_3,TRUE,7,7,"[206,260,18,301,196,184,162,121,50,115,24,176,82,181,35,89,307,1,176,67]",1.745,4,0,1,0,0,rectangle,0,114,114,34,1,
,,,,,,,,,,,,,FF,,,,,,,,1.166,,,,,,,,,,,,,,,,,,,,,,610037b2225e262487da1b1f,61036efed7f05ec17b7b77a5,2021-07-29_23h36.55.512,Simcolourproject_2stim_asymm_v5,2020.2.10,MacIntel,60,61025ae37ef11b136ea224fe,,,,,,,,,2703,91,43,1,0,0,response1disk,,6,9,-14,1,0,0,rectangle,9,-14,1,0,0,,,,,,,9,-14,1,0,0,,0,115,115,59,1,
,,,,,,,,,,,,,FF,,,,,,,,1.05,,,,,,,,,,,,,,,,,,,,,,610037b2225e262487da1b1f,61036efed7f05ec17b7b77a5,2021-07-29_23h36.55.512,Simcolourproject_2stim_asymm_v5,2020.2.10,MacIntel,60,61025ae37ef11b136ea224fe,,,,,,,,,2219,39,-67,1,0,0,response3disk,,4,-5,-4,1,0,0,rectangle,-5,-4,1,0,0,,,,,,,-5,-4,1,0,0,,0,116,116,15,1,
,,,,,,,,,,,,,FF,,,,,,,,1.283,,,,,,,,,,,,,,,,,,,,,,610037b2225e262487da1b1f,61036efed7f05ec17b7b77a5,2021-07-29_23h36.55.512,Simcolourproject_2stim_asymm_v5,2020.2.10,MacIntel,60,61025ae37ef11b136ea224fe,,,,,,,,,1948,91,-35,1,0,0,response3disk,,5,-8,4,1,0,0,rectangle,-8,4,1,0,0,,,,,,,-8,4,1,0,0,,0,117,117,123,1,
,,,,,,,,,,,,,FF,,,,,,,,1.932,,,,,,,,,,,,,,,,,,,,,,610037b2225e262487da1b1f,61036efed7f05ec17b7b77a5,2021-07-29_23h36.55.512,Simcolourproject_2stim_asymm_v5,2020.2.10,MacIntel,60,61025ae37ef11b136ea224fe,,,,,,,,,1394,87,-26,1,0,0,response3disk,,5,-3,-9,1,0,0,rectangle,-3,-9,1,0,0,,,,,,,-3,-9,1,0,0,,0,118,118,85,1,
,,,,,,,,,,,,,FF,,,,,,,,1.433,,,,,,,,,,,,,,,,,,,,,,610037b2225e262487da1b1f,61036efed7f05ec17b7b77a5,2021-07-29_23h36.55.512,Simcolourproject_2stim_asymm_v5,2020.2.10,MacIntel,60,61025ae37ef11b136ea224fe,,,,,,,,,2344,87,23,1,0,0,response1disk,,6,-1,-1,1,0,0,rectangle,-1,-1,1,0,0,,,,,,,-1,-1,1,0,0,,0,119,119,35,1,
,,,,,,,,,,,,,FF,,,,,,,,1,,,,,,,,,,,,,,,,,,,,,,610037b2225e262487da1b1f,61036efed7f05ec17b7b77a5,2021-07-29_23h36.55.512,Simcolourproject_2stim_asymm_v5,2020.2.10,MacIntel,60,61025ae37ef11b136ea224fe,,,,,,,,,1842,88,-42,1,0,0,response3disk,,5,3,-3,1,0,0,rectangle,42,-88,1,0,0,response3disk_3,TRUE,4,4,"[206,260,18,301,196,184,162,121,50,115,24,176,82,181,35,89,307,1,176,67]",1.584,-1,6,1,0,0,rectangle,0,120,120,10,1,
,,,,,,,,,,,,,FF,,,,,,,,0.986,,,,,,,,,,,,,,,,,,,,,,610037b2225e262487da1b1f,61036efed7f05ec17b7b77a5,2021-07-29_23h36.55.512,Simcolourproject_2stim_asymm_v5,2020.2.10,MacIntel,60,61025ae37ef11b136ea224fe,,,,,,,,,2685,-50,-82,1,0,0,response5disk,,3,8,-5,1,0,0,rectangle,8,-5,1,0,0,,,,,,,8,-5,1,0,0,,0,121,121,99,1,
,,,,,,,,,,,,,FF,,,,,,,,0.967,,,,,,,,,,,,,,,,,,,,,,610037b2225e262487da1b1f,61036efed7f05ec17b7b77a5,2021-07-29_23h36.55.512,Simcolourproject_2stim_asymm_v5,2020.2.10,MacIntel,60,61025ae37ef11b136ea224fe,,,,,,,,,4101,-88,-43,1,0,0,response5disk,,2,12,0,1,0,0,rectangle,12,0,1,0,0,,,,,,,12,0,1,0,0,,0,122,122,28,1,
,,,,,,,,,,,,,FF,,,,,,,,0.733,,,,,,,,,,,,,,,,,,,,,,610037b2225e262487da1b1f,61036efed7f05ec17b7b77a5,2021-07-29_23h36.55.512,Simcolourproject_2stim_asymm_v5,2020.2.10,MacIntel,60,61025ae37ef11b136ea224fe,,,,,,,,,1465,-89,-60,1,0,0,response5disk,,2,0,4,1,0,0,rectangle,0,4,1,0,0,,,,,,,0,4,1,0,0,,0,123,123,71,1,
,,,,,,,,,,,,,FF,,,,,,,,1.049,,,,,,,,,,,,,,,,,,,,,,610037b2225e262487da1b1f,61036efed7f05ec17b7b77a5,2021-07-29_23h36.55.512,Simcolourproject_2stim_asymm_v5,2020.2.10,MacIntel,60,61025ae37ef11b136ea224fe,,,,,,,,,537,93,33,1,0,0,response1disk,,6,13,-1,1,0,0,rectangle,13,-1,1,0,0,,,,,,,13,-1,1,0,0,,0,124,124,74,1,
,,,,,,,,,,,,,FF,,,,,,,,1.251,,,,,,,,,,,,,,,,,,,,,,610037b2225e262487da1b1f,61036efed7f05ec17b7b77a5,2021-07-29_23h36.55.512,Simcolourproject_2stim_asymm_v5,2020.2.10,MacIntel,60,61025ae37ef11b136ea224fe,,,,,,,,,2884,81,-41,1,0,0,response3disk,,5,3,9,1,0,0,rectangle,3,9,1,0,0,,,,,,,3,9,1,0,0,,0,125,125,143,1,
,,,,,,,,,,,,,FF,,,,,,,,2.4,,,,,,,,,,,,,,,,,,,,,,610037b2225e262487da1b1f,61036efed7f05ec17b7b77a5,2021-07-29_23h36.55.512,Simcolourproject_2stim_asymm_v5,2020.2.10,MacIntel,60,61025ae37ef11b136ea224fe,,,,,,,,,977,84,-37,1,0,0,response3disk,,5,0,1,1,0,0,rectangle,0,1,1,0,0,,,,,,,0,1,1,0,0,,0,126,126,6,1,
,,,,,,,,,,,,,FF,,,,,,,,1.033,,,,,,,,,,,,,,,,,,,,,,610037b2225e262487da1b1f,61036efed7f05ec17b7b77a5,2021-07-29_23h36.55.512,Simcolourproject_2stim_asymm_v5,2020.2.10,MacIntel,60,61025ae37ef11b136ea224fe,,,,,,,,,97,-34,-84,1,0,0,response5disk,,3,-4,-7,1,0,0,rectangle,-4,-7,1,0,0,,,,,,,-4,-7,1,0,0,,0,127,127,132,1,
,,,,,,,,,,,,,FF,,,,,,,,1.366,,,,,,,,,,,,,,,,,,,,,,610037b2225e262487da1b1f,61036efed7f05ec17b7b77a5,2021-07-29_23h36.55.512,Simcolourproject_2stim_asymm_v5,2020.2.10,MacIntel,60,61025ae37ef11b136ea224fe,,,,,,,,,777,96,63,1,0,0,response1disk,,6,4,4,1,0,0,rectangle,4,4,1,0,0,,,,,,,4,4,1,0,0,,0,128,128,107,1,
,,,,,,,,,,,,,FF,,,,,,,,0.851,,,,,,,,,,,,,,,,,,,,,,610037b2225e262487da1b1f,61036efed7f05ec17b7b77a5,2021-07-29_23h36.55.512,Simcolourproject_2stim_asymm_v5,2020.2.10,MacIntel,60,61025ae37ef11b136ea224fe,,,,,,,,,691,94,44,1,0,0,response1disk,,6,-2,-3,1,0,0,rectangle,-2,-3,1,0,0,,,,,,,-2,-3,1,0,0,,0,129,129,56,1,
,,,,,,,,,,,,,FF,,,,,,,,1.099,,,,,,,,,,,,,,,,,,,,,,610037b2225e262487da1b1f,61036efed7f05ec17b7b77a5,2021-07-29_23h36.55.512,Simcolourproject_2stim_asymm_v5,2020.2.10,MacIntel,60,61025ae37ef11b136ea224fe,,,,,,,,,2395,89,40,1,0,0,response1disk,,6,6,2,1,0,0,rectangle,6,2,1,0,0,,,,,,,6,2,1,0,0,,0,130,130,58,1,
,,,,,,,,,,,,,FF,,,,,,,,0.934,,,,,,,,,,,,,,,,,,,,,,610037b2225e262487da1b1f,61036efed7f05ec17b7b77a5,2021-07-29_23h36.55.512,Simcolourproject_2stim_asymm_v5,2020.2.10,MacIntel,60,61025ae37ef11b136ea224fe,,,,,,,,,2484,-30,-74,1,0,0,response5disk,,3,7,0,1,0,0,rectangle,7,0,1,0,0,,,,,,,7,0,1,0,0,,0,131,131,130,1,
,,,,,,,,,,,,,FF,,,,,,,,0.916,,,,,,,,,,,,,,,,,,,,,,610037b2225e262487da1b1f,61036efed7f05ec17b7b77a5,2021-07-29_23h36.55.512,Simcolourproject_2stim_asymm_v5,2020.2.10,MacIntel,60,61025ae37ef11b136ea224fe,,,,,,,,,3706,-86,33,1,0,0,response7disk,,1,4,12,1,0,0,rectangle,4,12,1,0,0,,,,,,,4,12,1,0,0,,0,132,132,62,1,
,,,,,,,,,,,,,FF,,,,,,,,1.083,,,,,,,,,,,,,,,,,,,,,,610037b2225e262487da1b1f,61036efed7f05ec17b7b77a5,2021-07-29_23h36.55.512,Simcolourproject_2stim_asymm_v5,2020.2.10,MacIntel,60,61025ae37ef11b136ea224fe,,,,,,,,,501,92,47,1,0,0,response1disk,,6,7,4,1,0,0,rectangle,7,4,1,0,0,,,,,,,7,4,1,0,0,,0,133,133,23,1,
,,,,,,,,,,,,,FF,,,,,,,,2.367,,,,,,,,,,,,,,,,,,,,,,610037b2225e262487da1b1f,61036efed7f05ec17b7b77a5,2021-07-29_23h36.55.512,Simcolourproject_2stim_asymm_v5,2020.2.10,MacIntel,60,61025ae37ef11b136ea224fe,,,,,,,,,2190,85,70,1,0,0,response1disk,,6,-2,1,1,0,0,rectangle,-2,1,1,0,0,,,,,,,-2,1,1,0,0,,0,134,134,144,1,
,,,,,,,,,,,,,FF,,,,,,,,0.985,,,,,,,,,,,,,,,,,,,,,,610037b2225e262487da1b1f,61036efed7f05ec17b7b77a5,2021-07-29_23h36.55.512,Simcolourproject_2stim_asymm_v5,2020.2.10,MacIntel,60,61025ae37ef11b136ea224fe,,,,,,,,,1001,95,35,1,0,0,response1disk,,6,0,-7,1,0,0,rectangle,0,-7,1,0,0,,,,,,,0,-7,1,0,0,,0,135,135,84,1,
,,,,,,,,,,,,,FF,,,,,,,,1.017,,,,,,,,,,,,,,,,,,,,,,610037b2225e262487da1b1f,61036efed7f05ec17b7b77a5,2021-07-29_23h36.55.512,Simcolourproject_2stim_asymm_v5,2020.2.10,MacIntel,60,61025ae37ef11b136ea224fe,,,,,,,,,2770,-43,-85,1,0,0,response5disk,,3,-2,3,1,0,0,rectangle,-2,3,1,0,0,,,,,,,-2,3,1,0,0,,0,136,136,32,1,
,,,,,,,,,,,,,FF,,,,,,,,1.134,,,,,,,,,,,,,,,,,,,,,,610037b2225e262487da1b1f,61036efed7f05ec17b7b77a5,2021-07-29_23h36.55.512,Simcolourproject_2stim_asymm_v5,2020.2.10,MacIntel,60,61025ae37ef11b136ea224fe,,,,,,,,,4106,-95,-39,1,0,0,response5disk,,2,0,7,1,0,0,rectangle,0,7,1,0,0,,,,,,,0,7,1,0,0,,0,137,137,67,1,
,,,,,,,,,,,,,FF,,,,,,,,1.385,,,,,,,,,,,,,,,,,,,,,,610037b2225e262487da1b1f,61036efed7f05ec17b7b77a5,2021-07-29_23h36.55.512,Simcolourproject_2stim_asymm_v5,2020.2.10,MacIntel,60,61025ae37ef11b136ea224fe,,,,,,,,,2207,48,88,1,0,0,response1disk,,7,7,7,1,0,0,rectangle,7,7,1,0,0,,,,,,,7,7,1,0,0,,0,138,138,14,1,
,,,,,,,,,,,,,FF,,,,,,,,1.382,,,,,,,,,,,,,,,,,,,,,,610037b2225e262487da1b1f,61036efed7f05ec17b7b77a5,2021-07-29_23h36.55.512,Simcolourproject_2stim_asymm_v5,2020.2.10,MacIntel,60,61025ae37ef11b136ea224fe,,,,,,,,,1320,100,-16,1,0,0,response3disk,,5,3,14,1,0,0,rectangle,3,14,1,0,0,,,,,,,3,14,1,0,0,,0,139,139,154,1,
,,,,,,,,,,,,,FF,,,,,,,,1,,,,,,,,,,,,,,,,,,,,,,610037b2225e262487da1b1f,61036efed7f05ec17b7b77a5,2021-07-29_23h36.55.512,Simcolourproject_2stim_asymm_v5,2020.2.10,MacIntel,60,61025ae37ef11b136ea224fe,,,,,,,,,1395,91,-16,1,0,0,response3disk,,5,-3,2,1,0,0,rectangle,-3,2,1,0,0,,,,,,,-3,2,1,0,0,,0,140,140,51,1,
,,,,,,,,,,,,,FF,,,,,,,,0.916,,,,,,,,,,,,,,,,,,,,,,610037b2225e262487da1b1f,61036efed7f05ec17b7b77a5,2021-07-29_23h36.55.512,Simcolourproject_2stim_asymm_v5,2020.2.10,MacIntel,60,61025ae37ef11b136ea224fe,,,,,,,,,36,69,41,1,0,0,response1disk,,6,-12,-5,1,0,0,rectangle,-12,-5,1,0,0,,,,,,,-12,-5,1,0,0,,0,141,141,17,1,
,,,,,,,,,,,,,FF,,,,,,,,1.167,,,,,,,,,,,,,,,,,,,,,,610037b2225e262487da1b1f,61036efed7f05ec17b7b77a5,2021-07-29_23h36.55.512,Simcolourproject_2stim_asymm_v5,2020.2.10,MacIntel,60,61025ae37ef11b136ea224fe,,,,,,,,,3314,43,71,1,0,0,response1disk,,7,2,10,1,0,0,rectangle,2,10,1,0,0,,,,,,,2,10,1,0,0,,0,142,142,76,1,
,,,,,,,,,,,,,FF,,,,,,,,1.067,,,,,,,,,,,,,,,,,,,,,,610037b2225e262487da1b1f,61036efed7f05ec17b7b77a5,2021-07-29_23h36.55.512,Simcolourproject_2stim_asymm_v5,2020.2.10,MacIntel,60,61025ae37ef11b136ea224fe,,,,,,,,,2004,48,59,1,0,0,response1disk,,7,17,4,1,0,0,rectangle,17,4,1,0,0,,,,,,,17,4,1,0,0,,0,143,143,124,1,
,,,,,,,,,,,,,FF,,,,,,,,2.4,,,,,,,,,,,,,,,,,,,,,,610037b2225e262487da1b1f,61036efed7f05ec17b7b77a5,2021-07-29_23h36.55.512,Simcolourproject_2stim_asymm_v5,2020.2.10,MacIntel,60,61025ae37ef11b136ea224fe,,,,,,,,,2849,98,31,1,0,0,response1disk,,6,1,0,1,0,0,rectangle,1,0,1,0,0,,,,,,,1,0,1,0,0,,0,144,144,21,1,
,,,,,,,,,,,,,FF,,,,,,,,1.184,,,,,,,,,,,,,,,,,,,,,,610037b2225e262487da1b1f,61036efed7f05ec17b7b77a5,2021-07-29_23h36.55.512,Simcolourproject_2stim_asymm_v5,2020.2.10,MacIntel,60,61025ae37ef11b136ea224fe,,,,,,,,,1409,32,51,1,0,0,response1disk,,7,10,7,1,0,0,rectangle,10,7,1,0,0,,,,,,,10,7,1,0,0,,0,145,145,97,1,
,,,,,,,,,,,,,FF,,,,,,,,1.083,,,,,,,,,,,,,,,,,,,,,,610037b2225e262487da1b1f,61036efed7f05ec17b7b77a5,2021-07-29_23h36.55.512,Simcolourproject_2stim_asymm_v5,2020.2.10,MacIntel,60,61025ae37ef11b136ea224fe,,,,,,,,,891,-96,-45,1,0,0,response5disk,,2,3,7,1,0,0,rectangle,3,7,1,0,0,,,,,,,3,7,1,0,0,,0,146,146,113,1,
,,,,,,,,,,,,,FF,,,,,,,,0.982,,,,,,,,,,,,,,,,,,,,,,610037b2225e262487da1b1f,61036efed7f05ec17b7b77a5,2021-07-29_23h36.55.512,Simcolourproject_2stim_asymm_v5,2020.2.10,MacIntel,60,61025ae37ef11b136ea224fe,,,,,,,,,955,88,-34,1,0,0,response3disk,,5,-4,-7,1,0,0,rectangle,-4,-7,1,0,0,,,,,,,-4,-7,1,0,0,,0,147,147,73,1,
,,,,,,,,,,,,,FF,,,,,,,,0.967,,,,,,,,,,,,,,,,,,,,,,610037b2225e262487da1b1f,61036efed7f05ec17b7b77a5,2021-07-29_23h36.55.512,Simcolourproject_2stim_asymm_v5,2020.2.10,MacIntel,60,61025ae37ef11b136ea224fe,,,,,,,,,2260,78,-26,1,0,0,response3disk,,5,17,6,1,0,0,rectangle,17,6,1,0,0,,,,,,,17,6,1,0,0,,0,148,148,75,1,
,,,,,,,,,,,,,FF,,,,,,,,1.732,,,,,,,,,,,,,,,,,,,,,,610037b2225e262487da1b1f,61036efed7f05ec17b7b77a5,2021-07-29_23h36.55.512,Simcolourproject_2stim_asymm_v5,2020.2.10,MacIntel,60,61025ae37ef11b136ea224fe,,,,,,,,,3629,79,28,1,0,0,response1disk,,6,6,-11,1,0,0,rectangle,6,-11,1,0,0,,,,,,,6,-11,1,0,0,,0,149,149,52,1,
,,,,,,,,,,,,,FF,,,,,,,,0.949,,,,,,,,,,,,,,,,,,,,,,610037b2225e262487da1b1f,61036efed7f05ec17b7b77a5,2021-07-29_23h36.55.512,Simcolourproject_2stim_asymm_v5,2020.2.10,MacIntel,60,61025ae37ef11b136ea224fe,,,,,,,,,208,90,44,1,0,0,response1disk,,6,4,0,1,0,0,rectangle,4,0,1,0,0,,,,,,,4,0,1,0,0,,0,150,150,100,1,
,,,,,,,,,,,,,FF,,,,,,,,1.083,,,,,,,,,,,,,,,,,,,,,,610037b2225e262487da1b1f,61036efed7f05ec17b7b77a5,2021-07-29_23h36.55.512,Simcolourproject_2stim_asymm_v5,2020.2.10,MacIntel,60,61025ae37ef11b136ea224fe,,,,,,,,,2689,50,-84,1,0,0,response3disk,,4,-1,4,1,0,0,rectangle,-1,4,1,0,0,,,,,,,-1,4,1,0,0,,0,151,151,106,1,
,,,,,,,,,,,,,FF,,,,,,,,1.217,,,,,,,,,,,,,,,,,,,,,,610037b2225e262487da1b1f,61036efed7f05ec17b7b77a5,2021-07-29_23h36.55.512,Simcolourproject_2stim_asymm_v5,2020.2.10,MacIntel,60,61025ae37ef11b136ea224fe,,,,,,,,,3219,75,38,1,0,0,response1disk,,6,-2,0,1,0,0,rectangle,-2,0,1,0,0,,,,,,,-2,0,1,0,0,,0,152,152,7,1,
,,,,,,,,,,,,,FF,,,,,,,,0.849,,,,,,,,,,,,,,,,,,,,,,610037b2225e262487da1b1f,61036efed7f05ec17b7b77a5,2021-07-29_23h36.55.512,Simcolourproject_2stim_asymm_v5,2020.2.10,MacIntel,60,61025ae37ef11b136ea224fe,,,,,,,,,873,-99,-40,1,0,0,response5disk,,2,-12,-3,1,0,0,rectangle,-12,-3,1,0,0,,,,,,,-12,-3,1,0,0,,0,153,153,153,1,
,,,,,,,,,,,,,FF,,,,,,,,0.799,,,,,,,,,,,,,,,,,,,,,,610037b2225e262487da1b1f,61036efed7f05ec17b7b77a5,2021-07-29_23h36.55.512,Simcolourproject_2stim_asymm_v5,2020.2.10,MacIntel,60,61025ae37ef11b136ea224fe,,,,,,,,,1727,70,30,1,0,0,response1disk,,6,5,-10,1,0,0,rectangle,5,-10,1,0,0,,,,,,,5,-10,1,0,0,,0,154,154,82,1,
,,,,,,,,,,,,,FF,,,,,,,,0.867,,,,,,,,,,,,,,,,,,,,,,610037b2225e262487da1b1f,61036efed7f05ec17b7b77a5,2021-07-29_23h36.55.512,Simcolourproject_2stim_asymm_v5,2020.2.10,MacIntel,60,61025ae37ef11b136ea224fe,,,,,,,,,1389,32,-94,1,0,0,response3disk,,4,-1,-15,1,0,0,rectangle,-1,-15,1,0,0,,,,,,,-1,-15,1,0,0,,0,155,155,134,1,
,,,,,,,,,,,,,FF,,,,,,,,1.817,,,,,,,,,,,,,,,,,,,,,,610037b2225e262487da1b1f,61036efed7f05ec17b7b77a5,2021-07-29_23h36.55.512,Simcolourproject_2stim_asymm_v5,2020.2.10,MacIntel,60,61025ae37ef11b136ea224fe,,,,,,,,,3142,68,-31,1,0,0,response3disk,,5,1,-5,1,0,0,rectangle,1,-5,1,0,0,,,,,,,1,-5,1,0,0,,0,156,156,48,1,
,,,,,,,,,,,,,FF,,,,,,,,1.016,,,,,,,,,,,,,,,,,,,,,,610037b2225e262487da1b1f,61036efed7f05ec17b7b77a5,2021-07-29_23h36.55.512,Simcolourproject_2stim_asymm_v5,2020.2.10,MacIntel,60,61025ae37ef11b136ea224fe,,,,,,,,,2676,39,-86,1,0,0,response3disk,,4,1,5,1,0,0,rectangle,1,5,1,0,0,,,,,,,1,5,1,0,0,,0,157,157,29,1,
,,,,,,,,,,,,,FF,,,,,,,,1.3,,,,,,,,,,,,,,,,,,,,,,610037b2225e262487da1b1f,61036efed7f05ec17b7b77a5,2021-07-29_23h36.55.512,Simcolourproject_2stim_asymm_v5,2020.2.10,MacIntel,60,61025ae37ef11b136ea224fe,,,,,,,,,2594,48,-66,1,0,0,response3disk,,4,11,16,1,0,0,rectangle,11,16,1,0,0,,,,,,,11,16,1,0,0,,0,158,158,101,1,
,,,,,,,,,,,,,FF,,,,,,,,1.133,,,,,,,,,,,,,,,,,,,,,,610037b2225e262487da1b1f,61036efed7f05ec17b7b77a5,2021-07-29_23h36.55.512,Simcolourproject_2stim_asymm_v5,2020.2.10,MacIntel,60,61025ae37ef11b136ea224fe,,,,,,,,,3491,64,-32,1,0,0,response3disk,,5,3,-3,1,0,0,rectangle,3,-3,1,0,0,,,,,,,3,-3,1,0,0,,0,159,159,109,1,
,,,,,,,,,,,,,FF,,,,,,,,0.934,,,,,,,,,,,,,,,,,,,,,,610037b2225e262487da1b1f,61036efed7f05ec17b7b77a5,2021-07-29_23h36.55.512,Simcolourproject_2stim_asymm_v5,2020.2.10,MacIntel,60,61025ae37ef11b136ea224fe,,,,,,,,,1168,72,30,1,0,0,response1disk,,6,-2,-9,1,0,0,rectangle,-2,-9,1,0,0,,,,,,,-2,-9,1,0,0,,1,0,160,99,1,
,,,,,,,,,,,,,FF,,,,,,,,1.099,,,,,,,,,,,,,,,,,,,,,,610037b2225e262487da1b1f,61036efed7f05ec17b7b77a5,2021-07-29_23h36.55.512,Simcolourproject_2stim_asymm_v5,2020.2.10,MacIntel,60,61025ae37ef11b136ea224fe,,,,,,,,,603,53,-30,1,0,0,response3disk,,5,-6,5,1,0,0,rectangle,94,43,1,0,0,response1disk_3,TRUE,6,6,"[206,260,18,301,196,184,162,121,50,115,24,176,82,181,35,89,307,1,176,67]",1.733,1,-5,1,0,0,rectangle,1,1,161,120,1,
,,,,,,,,,,,,,FF,,,,,,,,4.116,,,,,,,,,,,,,,,,,,,,,,610037b2225e262487da1b1f,61036efed7f05ec17b7b77a5,2021-07-29_23h36.55.512,Simcolourproject_2stim_asymm_v5,2020.2.10,MacIntel,60,61025ae37ef11b136ea224fe,,,,,,,,,3265,32,-77,1,0,0,response3disk,,4,-1,-4,1,0,0,rectangle,-1,-4,1,0,0,,,,,,,-1,-4,1,0,0,,1,2,162,53,1,
,,,,,,,,,,,,,FF,,,,,,,,1.584,,,,,,,,,,,,,,,,,,,,,,610037b2225e262487da1b1f,61036efed7f05ec17b7b77a5,2021-07-29_23h36.55.512,Simcolourproject_2stim_asymm_v5,2020.2.10,MacIntel,60,61025ae37ef11b136ea224fe,,,,,,,,,2473,43,-79,1,0,0,response3disk,,4,3,0,1,0,0,rectangle,3,0,1,0,0,,,,,,,3,0,1,0,0,,1,3,163,114,1,
,,,,,,,,,,,,,FF,,,,,,,,1.149,,,,,,,,,,,,,,,,,,,,,,610037b2225e262487da1b1f,61036efed7f05ec17b7b77a5,2021-07-29_23h36.55.512,Simcolourproject_2stim_asymm_v5,2020.2.10,MacIntel,60,61025ae37ef11b136ea224fe,,,,,,,,,3467,77,28,1,0,0,response1disk,,6,2,-3,1,0,0,rectangle,2,-3,1,0,0,,,,,,,2,-3,1,0,0,,1,4,164,49,1,
,,,,,,,,,,,,,FF,,,,,,,,1.583,,,,,,,,,,,,,,,,,,,,,,610037b2225e262487da1b1f,61036efed7f05ec17b7b77a5,2021-07-29_23h36.55.512,Simcolourproject_2stim_asymm_v5,2020.2.10,MacIntel,60,61025ae37ef11b136ea224fe,,,,,,,,,3207,39,-82,1,0,0,response3disk,,4,-3,2,1,0,0,rectangle,-3,2,1,0,0,,,,,,,-3,2,1,0,0,,1,5,165,125,1,
,,,,,,,,,,,,,FF,,,,,,,,1.384,,,,,,,,,,,,,,,,,,,,,,610037b2225e262487da1b1f,61036efed7f05ec17b7b77a5,2021-07-29_23h36.55.512,Simcolourproject_2stim_asymm_v5,2020.2.10,MacIntel,60,61025ae37ef11b136ea224fe,,,,,,,,,2285,49,-86,1,0,0,response3disk,,4,6,8,1,0,0,rectangle,6,8,1,0,0,,,,,,,6,8,1,0,0,,1,6,166,1,1,
,,,,,,,,,,,,,FF,,,,,,,,1.283,,,,,,,,,,,,,,,,,,,,,,610037b2225e262487da1b1f,61036efed7f05ec17b7b77a5,2021-07-29_23h36.55.512,Simcolourproject_2stim_asymm_v5,2020.2.10,MacIntel,60,61025ae37ef11b136ea224fe,,,,,,,,,205,75,41,1,0,0,response1disk,,6,8,1,1,0,0,rectangle,8,1,1,0,0,,,,,,,8,1,1,0,0,,1,7,167,26,1,
,,,,,,,,,,,,,FF,,,,,,,,1.034,,,,,,,,,,,,,,,,,,,,,,610037b2225e262487da1b1f,61036efed7f05ec17b7b77a5,2021-07-29_23h36.55.512,Simcolourproject_2stim_asymm_v5,2020.2.10,MacIntel,60,61025ae37ef11b136ea224fe,,,,,,,,,276,-46,78,1,0,0,response7disk,,0,-2,8,1,0,0,rectangle,-2,8,1,0,0,,,,,,,-2,8,1,0,0,,1,8,168,9,1,
,,,,,,,,,,,,,FF,,,,,,,,1.15,,,,,,,,,,,,,,,,,,,,,,610037b2225e262487da1b1f,61036efed7f05ec17b7b77a5,2021-07-29_23h36.55.512,Simcolourproject_2stim_asymm_v5,2020.2.10,MacIntel,60,61025ae37ef11b136ea224fe,,,,,,,,,3051,-78,-50,1,0,0,response5disk,,2,7,3,1,0,0,rectangle,7,3,1,0,0,,,,,,,7,3,1,0,0,,1,9,169,0,1,
,,,,,,,,,,,,,FF,,,,,,,,3.167,,,,,,,,,,,,,,,,,,,,,,610037b2225e262487da1b1f,61036efed7f05ec17b7b77a5,2021-07-29_23h36.55.512,Simcolourproject_2stim_asymm_v5,2020.2.10,MacIntel,60,61025ae37ef11b136ea224fe,,,,,,,,,1076,51,-84,1,0,0,response3disk,,4,25,-10,1,0,0,rectangle,25,-10,1,0,0,,,,,,,25,-10,1,0,0,,1,10,170,143,1,
,,,,,,,,,,,,,FF,,,,,,,,0.916,,,,,,,,,,,,,,,,,,,,,,610037b2225e262487da1b1f,61036efed7f05ec17b7b77a5,2021-07-29_23h36.55.512,Simcolourproject_2stim_asymm_v5,2020.2.10,MacIntel,60,61025ae37ef11b136ea224fe,,,,,,,,,1637,70,41,1,0,0,response1disk,,6,10,9,1,0,0,rectangle,10,9,1,0,0,,,,,,,10,9,1,0,0,,1,11,171,92,1,
,,,,,,,,,,,,,FF,,,,,,,,1.033,,,,,,,,,,,,,,,,,,,,,,610037b2225e262487da1b1f,61036efed7f05ec17b7b77a5,2021-07-29_23h36.55.512,Simcolourproject_2stim_asymm_v5,2020.2.10,MacIntel,60,61025ae37ef11b136ea224fe,,,,,,,,,974,35,-77,1,0,0,response3disk,,4,6,-7,1,0,0,rectangle,6,-7,1,0,0,,,,,,,6,-7,1,0,0,,1,12,172,138,1,
,,,,,,,,,,,,,FF,,,,,,,,0.784,,,,,,,,,,,,,,,,,,,,,,610037b2225e262487da1b1f,61036efed7f05ec17b7b77a5,2021-07-29_23h36.55.512,Simcolourproject_2stim_asymm_v5,2020.2.10,MacIntel,60,61025ae37ef11b136ea224fe,,,,,,,,,1210,103,51,1,0,0,response1disk,,6,4,-8,1,0,0,rectangle,4,-8,1,0,0,,,,,,,4,-8,1,0,0,,1,13,173,34,1,
,,,,,,,,,,,,,FF,,,,,,,,1.117,,,,,,,,,,,,,,,,,,,,,,610037b2225e262487da1b1f,61036efed7f05ec17b7b77a5,2021-07-29_23h36.55.512,Simcolourproject_2stim_asymm_v5,2020.2.10,MacIntel,60,61025ae37ef11b136ea224fe,,,,,,,,,2281,81,-31,1,0,0,response3disk,,5,5,-1,1,0,0,rectangle,5,-1,1,0,0,,,,,,,5,-1,1,0,0,,1,14,174,145,1,
,,,,,,,,,,,,,FF,,,,,,,,1.3,,,,,,,,,,,,,,,,,,,,,,610037b2225e262487da1b1f,61036efed7f05ec17b7b77a5,2021-07-29_23h36.55.512,Simcolourproject_2stim_asymm_v5,2020.2.10,MacIntel,60,61025ae37ef11b136ea224fe,,,,,,,,,4002,21,-67,1,0,0,response3disk,,4,8,-11,1,0,0,rectangle,-79,42,1,0,0,response7disk_3,TRUE,1,1,"[206,260,18,301,196,184,162,121,50,115,24,176,82,181,35,89,307,1,176,67]",1.299,-13,11,1,0,0,rectangle,1,15,175,153,1,
,,,,,,,,,,,,,FF,,,,,,,,1.033,,,,,,,,,,,,,,,,,,,,,,610037b2225e262487da1b1f,61036efed7f05ec17b7b77a5,2021-07-29_23h36.55.512,Simcolourproject_2stim_asymm_v5,2020.2.10,MacIntel,60,61025ae37ef11b136ea224fe,,,,,,,,,3253,23,-64,1,0,0,response3disk,,4,7,-6,1,0,0,rectangle,7,-6,1,0,0,,,,,,,7,-6,1,0,0,,1,16,176,28,1,
,,,,,,,,,,,,,FF,,,,,,,,0.884,,,,,,,,,,,,,,,,,,,,,,610037b2225e262487da1b1f,61036efed7f05ec17b7b77a5,2021-07-29_23h36.55.512,Simcolourproject_2stim_asymm_v5,2020.2.10,MacIntel,60,61025ae37ef11b136ea224fe,,,,,,,,,685,45,77,1,0,0,response1disk,,7,16,12,1,0,0,rectangle,16,12,1,0,0,,,,,,,16,12,1,0,0,,1,17,177,51,1,
,,,,,,,,,,,,,FF,,,,,,,,0.899,,,,,,,,,,,,,,,,,,,,,,610037b2225e262487da1b1f,61036efed7f05ec17b7b77a5,2021-07-29_23h36.55.512,Simcolourproject_2stim_asymm_v5,2020.2.10,MacIntel,60,61025ae37ef11b136ea224fe,,,,,,,,,1098,29,99,1,0,0,response1disk,,7,-1,-1,1,0,0,rectangle,-1,-1,1,0,0,,,,,,,-1,-1,1,0,0,,1,18,178,150,1,
,,,,,,,,,,,,,FF,,,,,,,,1.05,,,,,,,,,,,,,,,,,,,,,,610037b2225e262487da1b1f,61036efed7f05ec17b7b77a5,2021-07-29_23h36.55.512,Simcolourproject_2stim_asymm_v5,2020.2.10,MacIntel,60,61025ae37ef11b136ea224fe,,,,,,,,,3640,32,74,1,0,0,response1disk,,7,4,1,1,0,0,rectangle,4,1,1,0,0,,,,,,,4,1,1,0,0,,1,19,179,96,1,
,,,,,,,,,,,,,FF,,,,,,,,0.868,,,,,,,,,,,,,,,,,,,,,,610037b2225e262487da1b1f,61036efed7f05ec17b7b77a5,2021-07-29_23h36.55.512,Simcolourproject_2stim_asymm_v5,2020.2.10,MacIntel,60,61025ae37ef11b136ea224fe,,,,,,,,,509,34,73,1,0,0,response1disk,,7,5,-1,1,0,0,rectangle,-43,95,1,0,0,response7disk_3,TRUE,0,0,"[206,260,18,301,196,184,162,121,50,115,24,176,82,181,35,89,307,1,176,67]",1.749,6,3,1,0,0,rectangle,1,20,180,58,1,
,,,,,,,,,,,,,FF,,,,,,,,0.833,,,,,,,,,,,,,,,,,,,,,,610037b2225e262487da1b1f,61036efed7f05ec17b7b77a5,2021-07-29_23h36.55.512,Simcolourproject_2stim_asymm_v5,2020.2.10,MacIntel,60,61025ae37ef11b136ea224fe,,,,,,,,,3128,34,72,1,0,0,response1disk,,7,10,3,1,0,0,rectangle,10,3,1,0,0,,,,,,,10,3,1,0,0,,1,21,181,18,1,
,,,,,,,,,,,,,FF,,,,,,,,1,,,,,,,,,,,,,,,,,,,,,,610037b2225e262487da1b1f,61036efed7f05ec17b7b77a5,2021-07-29_23h36.55.512,Simcolourproject_2stim_asymm_v5,2020.2.10,MacIntel,60,61025ae37ef11b136ea224fe,,,,,,,,,1041,72,27,1,0,0,response1disk,,6,1,2,1,0,0,rectangle,1,2,1,0,0,,,,,,,1,2,1,0,0,,1,22,182,2,1,
,,,,,,,,,,,,,FF,,,,,,,,1.135,,,,,,,,,,,,,,,,,,,,,,610037b2225e262487da1b1f,61036efed7f05ec17b7b77a5,2021-07-29_23h36.55.512,Simcolourproject_2stim_asymm_v5,2020.2.10,MacIntel,60,61025ae37ef11b136ea224fe,,,,,,,,,755,44,77,1,0,0,response1disk,,7,5,0,1,0,0,rectangle,95,-38,1,0,0,response3disk_3,TRUE,5,5,"[206,260,18,301,196,184,162,121,50,115,24,176,82,181,35,89,307,1,176,67]",2.298,3,-2,1,0,0,rectangle,1,23,183,74,1,
,,,,,,,,,,,,,FF,,,,,,,,1.117,,,,,,,,,,,,,,,,,,,,,,610037b2225e262487da1b1f,61036efed7f05ec17b7b77a5,2021-07-29_23h36.55.512,Simcolourproject_2stim_asymm_v5,2020.2.10,MacIntel,60,61025ae37ef11b136ea224fe,,,,,,,,,2704,31,51,1,0,0,response1disk,,7,6,-1,1,0,0,rectangle,6,-1,1,0,0,,,,,,,6,-1,1,0,0,,1,24,184,100,1,
,,,,,,,,,,,,,FF,,,,,,,,1.084,,,,,,,,,,,,,,,,,,,,,,610037b2225e262487da1b1f,61036efed7f05ec17b7b77a5,2021-07-29_23h36.55.512,Simcolourproject_2stim_asymm_v5,2020.2.10,MacIntel,60,61025ae37ef11b136ea224fe,,,,,,,,,4238,43,-81,1,0,0,response3disk,,4,-8,-3,1,0,0,rectangle,-8,-3,1,0,0,,,,,,,-8,-3,1,0,0,,1,25,185,159,1,
,,,,,,,,,,,,,FF,,,,,,,,0.967,,,,,,,,,,,,,,,,,,,,,,610037b2225e262487da1b1f,61036efed7f05ec17b7b77a5,2021-07-29_23h36.55.512,Simcolourproject_2stim_asymm_v5,2020.2.10,MacIntel,60,61025ae37ef11b136ea224fe,,,,,,,,,3634,44,-98,1,0,0,response3disk,,4,3,4,1,0,0,rectangle,3,4,1,0,0,,,,,,,3,4,1,0,0,,1,26,186,77,1,
,,,,,,,,,,,,,FF,,,,,,,,0.882,,,,,,,,,,,,,,,,,,,,,,610037b2225e262487da1b1f,61036efed7f05ec17b7b77a5,2021-07-29_23h36.55.512,Simcolourproject_2stim_asymm_v5,2020.2.10,MacIntel,60,61025ae37ef11b136ea224fe,,,,,,,,,804,-101,-43,1,0,0,response5disk,,2,1,16,1,0,0,rectangle,1,16,1,0,0,,,,,,,1,16,1,0,0,,1,27,187,124,1,
,,,,,,,,,,,,,FF,,,,,,,,0.832,,,,,,,,,,,,,,,,,,,,,,610037b2225e262487da1b1f,61036efed7f05ec17b7b77a5,2021-07-29_23h36.55.512,Simcolourproject_2stim_asymm_v5,2020.2.10,MacIntel,60,61025ae37ef11b136ea224fe,,,,,,,,,2274,93,53,1,0,0,response1disk,,6,2,4,1,0,0,rectangle,2,4,1,0,0,,,,,,,2,4,1,0,0,,1,28,188,144,1,
,,,,,,,,,,,,,FF,,,,,,,,1.333,,,,,,,,,,,,,,,,,,,,,,610037b2225e262487da1b1f,61036efed7f05ec17b7b77a5,2021-07-29_23h36.55.512,Simcolourproject_2stim_asymm_v5,2020.2.10,MacIntel,60,61025ae37ef11b136ea224fe,,,,,,,,,4358,-90,-53,1,0,0,response5disk,,2,2,-3,1,0,0,rectangle,2,-3,1,0,0,,,,,,,2,-3,1,0,0,,1,29,189,75,1,
,,,,,,,,,,,,,FF,,,,,,,,0.851,,,,,,,,,,,,,,,,,,,,,,610037b2225e262487da1b1f,61036efed7f05ec17b7b77a5,2021-07-29_23h36.55.512,Simcolourproject_2stim_asymm_v5,2020.2.10,MacIntel,60,61025ae37ef11b136ea224fe,,,,,,,,,2768,-90,-34,1,0,0,response5disk,,2,-12,-7,1,0,0,rectangle,-12,-7,1,0,0,,,,,,,-12,-7,1,0,0,,1,30,190,50,1,
,,,,,,,,,,,,,FF,,,,,,,,0.751,,,,,,,,,,,,,,,,,,,,,,610037b2225e262487da1b1f,61036efed7f05ec17b7b77a5,2021-07-29_23h36.55.512,Simcolourproject_2stim_asymm_v5,2020.2.10,MacIntel,60,61025ae37ef11b136ea224fe,,,,,,,,,188,-78,-48,1,0,0,response5disk,,2,-2,-8,1,0,0,rectangle,-2,-8,1,0,0,,,,,,,-2,-8,1,0,0,,1,31,191,122,1,
,,,,,,,,,,,,,FF,,,,,,,,0.85,,,,,,,,,,,,,,,,,,,,,,610037b2225e262487da1b1f,61036efed7f05ec17b7b77a5,2021-07-29_23h36.55.512,Simcolourproject_2stim_asymm_v5,2020.2.10,MacIntel,60,61025ae37ef11b136ea224fe,,,,,,,,,3135,30,66,1,0,0,response1disk,,7,2,-1,1,0,0,rectangle,2,-1,1,0,0,,,,,,,2,-1,1,0,0,,1,32,192,36,1,
,,,,,,,,,,,,,FF,,,,,,,,0.932,,,,,,,,,,,,,,,,,,,,,,610037b2225e262487da1b1f,61036efed7f05ec17b7b77a5,2021-07-29_23h36.55.512,Simcolourproject_2stim_asymm_v5,2020.2.10,MacIntel,60,61025ae37ef11b136ea224fe,,,,,,,,,2129,90,-41,1,0,0,response3disk,,5,-5,-1,1,0,0,rectangle,-5,-1,1,0,0,,,,,,,-5,-1,1,0,0,,1,33,193,78,1,
,,,,,,,,,,,,,FF,,,,,,,,0.883,,,,,,,,,,,,,,,,,,,,,,610037b2225e262487da1b1f,61036efed7f05ec17b7b77a5,2021-07-29_23h36.55.512,Simcolourproject_2stim_asymm_v5,2020.2.10,MacIntel,60,61025ae37ef11b136ea224fe,,,,,,,,,151,67,47,1,0,0,response1disk,,6,-1,4,1,0,0,rectangle,-1,4,1,0,0,,,,,,,-1,4,1,0,0,,1,34,194,97,1,
,,,,,,,,,,,,,FF,,,,,,,,1.267,,,,,,,,,,,,,,,,,,,,,,610037b2225e262487da1b1f,61036efed7f05ec17b7b77a5,2021-07-29_23h36.55.512,Simcolourproject_2stim_asymm_v5,2020.2.10,MacIntel,60,61025ae37ef11b136ea224fe,,,,,,,,,2589,69,25,1,0,0,response1disk,,6,1,-1,1,0,0,rectangle,-84,38,1,0,0,response7disk_3,TRUE,1,1,"[206,260,18,301,196,184,162,121,50,115,24,176,82,181,35,89,307,1,176,67]",1.335,-13,10,1,0,0,rectangle,1,35,195,66,1,
,,,,,,,,,,,,,FF,,,,,,,,1.583,,,,,,,,,,,,,,,,,,,,,,610037b2225e262487da1b1f,61036efed7f05ec17b7b77a5,2021-07-29_23h36.55.512,Simcolourproject_2stim_asymm_v5,2020.2.10,MacIntel,60,61025ae37ef11b136ea224fe,,,,,,,,,3418,-33,-67,1,0,0,response5disk,,3,7,1,1,0,0,rectangle,7,1,1,0,0,,,,,,,7,1,1,0,0,,1,36,196,126,1,
,,,,,,,,,,,,,FF,,,,,,,,0.866,,,,,,,,,,,,,,,,,,,,,,610037b2225e262487da1b1f,61036efed7f05ec17b7b77a5,2021-07-29_23h36.55.512,Simcolourproject_2stim_asymm_v5,2020.2.10,MacIntel,60,61025ae37ef11b136ea224fe,,,,,,,,,3973,-96,-50,1,0,0,response5disk,,2,6,0,1,0,0,rectangle,6,0,1,0,0,,,,,,,6,0,1,0,0,,1,37,197,76,1,
,,,,,,,,,,,,,FF,,,,,,,,1.216,,,,,,,,,,,,,,,,,,,,,,610037b2225e262487da1b1f,61036efed7f05ec17b7b77a5,2021-07-29_23h36.55.512,Simcolourproject_2stim_asymm_v5,2020.2.10,MacIntel,60,61025ae37ef11b136ea224fe,,,,,,,,,1986,43,-80,1,0,0,response3disk,,4,-2,3,1,0,0,rectangle,-2,3,1,0,0,,,,,,,-2,3,1,0,0,,1,38,198,79,1,
,,,,,,,,,,,,,FF,,,,,,,,0.916,,,,,,,,,,,,,,,,,,,,,,610037b2225e262487da1b1f,61036efed7f05ec17b7b77a5,2021-07-29_23h36.55.512,Simcolourproject_2stim_asymm_v5,2020.2.10,MacIntel,60,61025ae37ef11b136ea224fe,,,,,,,,,1540,36,-68,1,0,0,response3disk,,4,1,-2,1,0,0,rectangle,1,-2,1,0,0,,,,,,,1,-2,1,0,0,,1,39,199,25,1,
,,,,,,,,,,,,,FF,,,,,,,,0.834,,,,,,,,,,,,,,,,,,,,,,610037b2225e262487da1b1f,61036efed7f05ec17b7b77a5,2021-07-29_23h36.55.512,Simcolourproject_2stim_asymm_v5,2020.2.10,MacIntel,60,61025ae37ef11b136ea224fe,,,,,,,,,1962,-102,-61,1,0,0,response5disk,,2,2,-2,1,0,0,rectangle,2,-2,1,0,0,,,,,,,2,-2,1,0,0,,1,40,200,61,1,
,,,,,,,,,,,,,FF,,,,,,,,1.25,,,,,,,,,,,,,,,,,,,,,,610037b2225e262487da1b1f,61036efed7f05ec17b7b77a5,2021-07-29_23h36.55.512,Simcolourproject_2stim_asymm_v5,2020.2.10,MacIntel,60,61025ae37ef11b136ea224fe,,,,,,,,,1488,78,-20,1,0,0,response3disk,,5,0,0,1,0,0,rectangle,0,0,1,0,0,,,,,,,0,0,1,0,0,,1,41,201,101,1,
,,,,,,,,,,,,,FF,,,,,,,,0.959,,,,,,,,,,,,,,,,,,,,,,610037b2225e262487da1b1f,61036efed7f05ec17b7b77a5,2021-07-29_23h36.55.512,Simcolourproject_2stim_asymm_v5,2020.2.10,MacIntel,60,61025ae37ef11b136ea224fe,,,,,,,,,329,78,39,1,0,0,response1disk,,6,2,6,1,0,0,rectangle,2,6,1,0,0,,,,,,,2,6,1,0,0,,1,42,202,71,1,
,,,,,,,,,,,,,FF,,,,,,,,1.632,,,,,,,,,,,,,,,,,,,,,,610037b2225e262487da1b1f,61036efed7f05ec17b7b77a5,2021-07-29_23h36.55.512,Simcolourproject_2stim_asymm_v5,2020.2.10,MacIntel,60,61025ae37ef11b136ea224fe,,,,,,,,,3628,31,-77,1,0,0,response3disk,,4,0,-1,1,0,0,rectangle,0,-1,1,0,0,,,,,,,0,-1,1,0,0,,1,43,203,106,1,
,,,,,,,,,,,,,FF,,,,,,,,1.284,,,,,,,,,,,,,,,,,,,,,,610037b2225e262487da1b1f,61036efed7f05ec17b7b77a5,2021-07-29_23h36.55.512,Simcolourproject_2stim_asymm_v5,2020.2.10,MacIntel,60,61025ae37ef11b136ea224fe,,,,,,,,,3990,70,-25,1,0,0,response3disk,,5,11,5,1,0,0,rectangle,11,5,1,0,0,,,,,,,11,5,1,0,0,,1,44,204,121,1,
,,,,,,,,,,,,,FF,,,,,,,,1.084,,,,,,,,,,,,,,,,,,,,,,610037b2225e262487da1b1f,61036efed7f05ec17b7b77a5,2021-07-29_23h36.55.512,Simcolourproject_2stim_asymm_v5,2020.2.10,MacIntel,60,61025ae37ef11b136ea224fe,,,,,,,,,290,62,38,1,0,0,response1disk,,6,4,4,1,0,0,rectangle,-92,47,1,0,0,response7disk_3,TRUE,1,1,"[206,260,18,301,196,184,162,121,50,115,24,176,82,181,35,89,307,1,176,67]",1.249,-11,3,1,0,0,rectangle,1,45,205,15,1,
,,,,,,,,,,,,,FF,,,,,,,,0.817,,,,,,,,,,,,,,,,,,,,,,610037b2225e262487da1b1f,61036efed7f05ec17b7b77a5,2021-07-29_23h36.55.512,Simcolourproject_2stim_asymm_v5,2020.2.10,MacIntel,60,61025ae37ef11b136ea224fe,,,,,,,,,226,84,32,1,0,0,response1disk,,6,4,-11,1,0,0,rectangle,4,-11,1,0,0,,,,,,,4,-11,1,0,0,,1,46,206,110,1,
,,,,,,,,,,,,,FF,,,,,,,,1.201,,,,,,,,,,,,,,,,,,,,,,610037b2225e262487da1b1f,61036efed7f05ec17b7b77a5,2021-07-29_23h36.55.512,Simcolourproject_2stim_asymm_v5,2020.2.10,MacIntel,60,61025ae37ef11b136ea224fe,,,,,,,,,3923,71,-43,1,0,0,response3disk,,5,3,-7,1,0,0,rectangle,3,-7,1,0,0,,,,,,,3,-7,1,0,0,,1,47,207,93,1,
,,,,,,,,,,,,,FF,,,,,,,,0.951,,,,,,,,,,,,,,,,,,,,,,610037b2225e262487da1b1f,61036efed7f05ec17b7b77a5,2021-07-29_23h36.55.512,Simcolourproject_2stim_asymm_v5,2020.2.10,MacIntel,60,61025ae37ef11b136ea224fe,,,,,,,,,2042,17,-79,1,0,0,response3disk,,4,-9,-5,1,0,0,rectangle,-9,-5,1,0,0,,,,,,,-9,-5,1,0,0,,1,48,208,46,1,
,,,,,,,,,,,,,FF,,,,,,,,1.166,,,,,,,,,,,,,,,,,,,,,,610037b2225e262487da1b1f,61036efed7f05ec17b7b77a5,2021-07-29_23h36.55.512,Simcolourproject_2stim_asymm_v5,2020.2.10,MacIntel,60,61025ae37ef11b136ea224fe,,,,,,,,,4321,89,49,1,0,0,response1disk,,6,9,-2,1,0,0,rectangle,9,-2,1,0,0,,,,,,,9,-2,1,0,0,,1,49,209,64,1,
,,,,,,,,,,,,,FF,,,,,,,,0.985,,,,,,,,,,,,,,,,,,,,,,610037b2225e262487da1b1f,61036efed7f05ec17b7b77a5,2021-07-29_23h36.55.512,Simcolourproject_2stim_asymm_v5,2020.2.10,MacIntel,60,61025ae37ef11b136ea224fe,,,,,,,,,2638,85,41,1,0,0,response1disk,,6,0,2,1,0,0,rectangle,0,2,1,0,0,,,,,,,0,2,1,0,0,,1,50,210,20,1,
,,,,,,,,,,,,,FF,,,,,,,,0.817,,,,,,,,,,,,,,,,,,,,,,610037b2225e262487da1b1f,61036efed7f05ec17b7b77a5,2021-07-29_23h36.55.512,Simcolourproject_2stim_asymm_v5,2020.2.10,MacIntel,60,61025ae37ef11b136ea224fe,,,,,,,,,3895,76,34,1,0,0,response1disk,,6,12,6,1,0,0,rectangle,12,6,1,0,0,,,,,,,12,6,1,0,0,,1,51,211,21,1,
,,,,,,,,,,,,,FF,,,,,,,,0.767,,,,,,,,,,,,,,,,,,,,,,610037b2225e262487da1b1f,61036efed7f05ec17b7b77a5,2021-07-29_23h36.55.512,Simcolourproject_2stim_asymm_v5,2020.2.10,MacIntel,60,61025ae37ef11b136ea224fe,,,,,,,,,3667,78,40,1,0,0,response1disk,,6,-7,-7,1,0,0,rectangle,-7,-7,1,0,0,,,,,,,-7,-7,1,0,0,,1,52,212,52,1,
,,,,,,,,,,,,,FF,,,,,,,,1.149,,,,,,,,,,,,,,,,,,,,,,610037b2225e262487da1b1f,61036efed7f05ec17b7b77a5,2021-07-29_23h36.55.512,Simcolourproject_2stim_asymm_v5,2020.2.10,MacIntel,60,61025ae37ef11b136ea224fe,,,,,,,,,2756,71,32,1,0,0,response1disk,,6,-1,-7,1,0,0,rectangle,-1,-7,1,0,0,,,,,,,-1,-7,1,0,0,,1,53,213,156,1,
,,,,,,,,,,,,,FF,,,,,,,,0.751,,,,,,,,,,,,,,,,,,,,,,610037b2225e262487da1b1f,61036efed7f05ec17b7b77a5,2021-07-29_23h36.55.512,Simcolourproject_2stim_asymm_v5,2020.2.10,MacIntel,60,61025ae37ef11b136ea224fe,,,,,,,,,1042,57,-36,1,0,0,response3disk,,5,-9,3,1,0,0,rectangle,-9,3,1,0,0,,,,,,,-9,3,1,0,0,,1,54,214,130,1,
,,,,,,,,,,,,,FF,,,,,,,,0.75,,,,,,,,,,,,,,,,,,,,,,610037b2225e262487da1b1f,61036efed7f05ec17b7b77a5,2021-07-29_23h36.55.512,Simcolourproject_2stim_asymm_v5,2020.2.10,MacIntel,60,61025ae37ef11b136ea224fe,,,,,,,,,3240,36,-70,1,0,0,response3disk,,4,-3,-2,1,0,0,rectangle,-3,-2,1,0,0,,,,,,,-3,-2,1,0,0,,1,55,215,131,1,
,,,,,,,,,,,,,FF,,,,,,,,0.983,,,,,,,,,,,,,,,,,,,,,,610037b2225e262487da1b1f,61036efed7f05ec17b7b77a5,2021-07-29_23h36.55.512,Simcolourproject_2stim_asymm_v5,2020.2.10,MacIntel,60,61025ae37ef11b136ea224fe,,,,,,,,,1014,44,76,1,0,0,response1disk,,7,2,0,1,0,0,rectangle,2,0,1,0,0,,,,,,,2,0,1,0,0,,1,56,216,70,1,
,,,,,,,,,,,,,FF,,,,,,,,1.017,,,,,,,,,,,,,,,,,,,,,,610037b2225e262487da1b1f,61036efed7f05ec17b7b77a5,2021-07-29_23h36.55.512,Simcolourproject_2stim_asymm_v5,2020.2.10,MacIntel,60,61025ae37ef11b136ea224fe,,,,,,,,,3948,39,-68,1,0,0,response3disk,,4,7,11,1,0,0,rectangle,7,11,1,0,0,,,,,,,7,11,1,0,0,,1,57,217,154,1,
,,,,,,,,,,,,,FF,,,,,,,,0.816,,,,,,,,,,,,,,,,,,,,,,610037b2225e262487da1b1f,61036efed7f05ec17b7b77a5,2021-07-29_23h36.55.512,Simcolourproject_2stim_asymm_v5,2020.2.10,MacIntel,60,61025ae37ef11b136ea224fe,,,,,,,,,2034,-92,-37,1,0,0,response5disk,,2,-5,-3,1,0,0,rectangle,-5,-3,1,0,0,,,,,,,-5,-3,1,0,0,,1,58,218,86,1,
,,,,,,,,,,,,,FF,,,,,,,,0.85,,,,,,,,,,,,,,,,,,,,,,610037b2225e262487da1b1f,61036efed7f05ec17b7b77a5,2021-07-29_23h36.55.512,Simcolourproject_2stim_asymm_v5,2020.2.10,MacIntel,60,61025ae37ef11b136ea224fe,,,,,,,,,727,32,-75,1,0,0,response3disk,,4,0,1,1,0,0,rectangle,0,1,1,0,0,,,,,,,0,1,1,0,0,,1,59,219,135,1,
,,,,,,,,,,,,,FF,,,,,,,,0.85,,,,,,,,,,,,,,,,,,,,,,610037b2225e262487da1b1f,61036efed7f05ec17b7b77a5,2021-07-29_23h36.55.512,Simcolourproject_2stim_asymm_v5,2020.2.10,MacIntel,60,61025ae37ef11b136ea224fe,,,,,,,,,673,72,34,1,0,0,response1disk,,6,8,7,1,0,0,rectangle,8,7,1,0,0,,,,,,,8,7,1,0,0,,1,60,220,111,1,
,,,,,,,,,,,,,FF,,,,,,,,0.9,,,,,,,,,,,,,,,,,,,,,,610037b2225e262487da1b1f,61036efed7f05ec17b7b77a5,2021-07-29_23h36.55.512,Simcolourproject_2stim_asymm_v5,2020.2.10,MacIntel,60,61025ae37ef11b136ea224fe,,,,,,,,,3119,58,34,1,0,0,response1disk,,6,6,2,1,0,0,rectangle,6,2,1,0,0,,,,,,,6,2,1,0,0,,1,61,221,85,1,
,,,,,,,,,,,,,FF,,,,,,,,0.784,,,,,,,,,,,,,,,,,,,,,,610037b2225e262487da1b1f,61036efed7f05ec17b7b77a5,2021-07-29_23h36.55.512,Simcolourproject_2stim_asymm_v5,2020.2.10,MacIntel,60,61025ae37ef11b136ea224fe,,,,,,,,,2064,73,35,1,0,0,response1disk,,6,6,-1,1,0,0,rectangle,6,-1,1,0,0,,,,,,,6,-1,1,0,0,,1,62,222,147,1,
,,,,,,,,,,,,,FF,,,,,,,,0.8,,,,,,,,,,,,,,,,,,,,,,610037b2225e262487da1b1f,61036efed7f05ec17b7b77a5,2021-07-29_23h36.55.512,Simcolourproject_2stim_asymm_v5,2020.2.10,MacIntel,60,61025ae37ef11b136ea224fe,,,,,,,,,4153,70,33,1,0,0,response1disk,,6,0,0,1,0,0,rectangle,0,0,1,0,0,,,,,,,0,0,1,0,0,,1,63,223,98,1,
,,,,,,,,,,,,,FF,,,,,,,,0.834,,,,,,,,,,,,,,,,,,,,,,610037b2225e262487da1b1f,61036efed7f05ec17b7b77a5,2021-07-29_23h36.55.512,Simcolourproject_2stim_asymm_v5,2020.2.10,MacIntel,60,61025ae37ef11b136ea224fe,,,,,,,,,1837,36,-74,1,0,0,response3disk,,4,3,-13,1,0,0,rectangle,3,-13,1,0,0,,,,,,,3,-13,1,0,0,,1,64,224,149,1,
,,,,,,,,,,,,,FF,,,,,,,,0.933,,,,,,,,,,,,,,,,,,,,,,610037b2225e262487da1b1f,61036efed7f05ec17b7b77a5,2021-07-29_23h36.55.512,Simcolourproject_2stim_asymm_v5,2020.2.10,MacIntel,60,61025ae37ef11b136ea224fe,,,,,,,,,3762,35,-68,1,0,0,response3disk,,4,4,10,1,0,0,rectangle,4,10,1,0,0,,,,,,,4,10,1,0,0,,1,65,225,6,1,
,,,,,,,,,,,,,FF,,,,,,,,1.017,,,,,,,,,,,,,,,,,,,,,,610037b2225e262487da1b1f,61036efed7f05ec17b7b77a5,2021-07-29_23h36.55.512,Simcolourproject_2stim_asymm_v5,2020.2.10,MacIntel,60,61025ae37ef11b136ea224fe,,,,,,,,,736,-32,-61,1,0,0,response5disk,,3,2,-6,1,0,0,rectangle,2,-6,1,0,0,,,,,,,2,-6,1,0,0,,1,66,226,38,1,
,,,,,,,,,,,,,FF,,,,,,,,0.834,,,,,,,,,,,,,,,,,,,,,,610037b2225e262487da1b1f,61036efed7f05ec17b7b77a5,2021-07-29_23h36.55.512,Simcolourproject_2stim_asymm_v5,2020.2.10,MacIntel,60,61025ae37ef11b136ea224fe,,,,,,,,,3005,-86,-41,1,0,0,response5disk,,2,10,17,1,0,0,rectangle,10,17,1,0,0,,,,,,,10,17,1,0,0,,1,67,227,72,1,
,,,,,,,,,,,,,FF,,,,,,,,0.783,,,,,,,,,,,,,,,,,,,,,,610037b2225e262487da1b1f,61036efed7f05ec17b7b77a5,2021-07-29_23h36.55.512,Simcolourproject_2stim_asymm_v5,2020.2.10,MacIntel,60,61025ae37ef11b136ea224fe,,,,,,,,,1718,74,37,1,0,0,response1disk,,6,-12,-3,1,0,0,rectangle,-12,-3,1,0,0,,,,,,,-12,-3,1,0,0,,1,68,228,44,1,
,,,,,,,,,,,,,FF,,,,,,,,1.117,,,,,,,,,,,,,,,,,,,,,,610037b2225e262487da1b1f,61036efed7f05ec17b7b77a5,2021-07-29_23h36.55.512,Simcolourproject_2stim_asymm_v5,2020.2.10,MacIntel,60,61025ae37ef11b136ea224fe,,,,,,,,,3534,26,53,1,0,0,response1disk,,7,3,3,1,0,0,rectangle,3,3,1,0,0,,,,,,,3,3,1,0,0,,1,69,229,12,1,
,,,,,,,,,,,,,FF,,,,,,,,1.2,,,,,,,,,,,,,,,,,,,,,,610037b2225e262487da1b1f,61036efed7f05ec17b7b77a5,2021-07-29_23h36.55.512,Simcolourproject_2stim_asymm_v5,2020.2.10,MacIntel,60,61025ae37ef11b136ea224fe,,,,,,,,,2195,69,-46,1,0,0,response3disk,,5,7,-13,1,0,0,rectangle,7,-13,1,0,0,,,,,,,7,-13,1,0,0,,1,70,230,24,1,
,,,,,,,,,,,,,FF,,,,,,,,1.868,,,,,,,,,,,,,,,,,,,,,,610037b2225e262487da1b1f,61036efed7f05ec17b7b77a5,2021-07-29_23h36.55.512,Simcolourproject_2stim_asymm_v5,2020.2.10,MacIntel,60,61025ae37ef11b136ea224fe,,,,,,,,,2725,-73,22,1,0,0,response7disk,,1,-7,1,1,0,0,rectangle,-7,1,1,0,0,,,,,,,-7,1,1,0,0,,1,71,231,155,1,
,,,,,,,,,,,,,FF,,,,,,,,1.067,,,,,,,,,,,,,,,,,,,,,,610037b2225e262487da1b1f,61036efed7f05ec17b7b77a5,2021-07-29_23h36.55.512,Simcolourproject_2stim_asymm_v5,2020.2.10,MacIntel,60,61025ae37ef11b136ea224fe,,,,,,,,,953,39,-84,1,0,0,response3disk,,4,2,5,1,0,0,rectangle,2,5,1,0,0,,,,,,,2,5,1,0,0,,1,72,232,41,1,
,,,,,,,,,,,,,FF,,,,,,,,0.835,,,,,,,,,,,,,,,,,,,,,,610037b2225e262487da1b1f,61036efed7f05ec17b7b77a5,2021-07-29_23h36.55.512,Simcolourproject_2stim_asymm_v5,2020.2.10,MacIntel,60,61025ae37ef11b136ea224fe,,,,,,,,,410,36,74,1,0,0,response1disk,,7,3,5,1,0,0,rectangle,3,5,1,0,0,,,,,,,3,5,1,0,0,,1,73,233,43,1,
,,,,,,,,,,,,,FF,,,,,,,,1.185,,,,,,,,,,,,,,,,,,,,,,610037b2225e262487da1b1f,61036efed7f05ec17b7b77a5,2021-07-29_23h36.55.512,Simcolourproject_2stim_asymm_v5,2020.2.10,MacIntel,60,61025ae37ef11b136ea224fe,,,,,,,,,1199,26,-66,1,0,0,response3disk,,4,-2,7,1,0,0,rectangle,-2,7,1,0,0,,,,,,,-2,7,1,0,0,,1,74,234,83,1,
,,,,,,,,,,,,,FF,,,,,,,,4.032,,,,,,,,,,,,,,,,,,,,,,610037b2225e262487da1b1f,61036efed7f05ec17b7b77a5,2021-07-29_23h36.55.512,Simcolourproject_2stim_asymm_v5,2020.2.10,MacIntel,60,61025ae37ef11b136ea224fe,,,,,,,,,763,78,-25,1,0,0,response3disk,,5,9,5,1,0,0,rectangle,9,5,1,0,0,,,,,,,9,5,1,0,0,,1,75,235,117,1,
,,,,,,,,,,,,,FF,,,,,,,,1.718,,,,,,,,,,,,,,,,,,,,,,610037b2225e262487da1b1f,61036efed7f05ec17b7b77a5,2021-07-29_23h36.55.512,Simcolourproject_2stim_asymm_v5,2020.2.10,MacIntel,60,61025ae37ef11b136ea224fe,,,,,,,,,3348,35,-84,1,0,0,response3disk,,4,6,-4,1,0,0,rectangle,6,-4,1,0,0,,,,,,,6,-4,1,0,0,,1,76,236,141,1,
,,,,,,,,,,,,,FF,,,,,,,,0.866,,,,,,,,,,,,,,,,,,,,,,610037b2225e262487da1b1f,61036efed7f05ec17b7b77a5,2021-07-29_23h36.55.512,Simcolourproject_2stim_asymm_v5,2020.2.10,MacIntel,60,61025ae37ef11b136ea224fe,,,,,,,,,401,85,35,1,0,0,response1disk,,6,29,0,1,0,0,rectangle,29,0,1,0,0,,,,,,,29,0,1,0,0,,1,77,237,62,1,
,,,,,,,,,,,,,FF,,,,,,,,0.983,,,,,,,,,,,,,,,,,,,,,,610037b2225e262487da1b1f,61036efed7f05ec17b7b77a5,2021-07-29_23h36.55.512,Simcolourproject_2stim_asymm_v5,2020.2.10,MacIntel,60,61025ae37ef11b136ea224fe,,,,,,,,,4062,38,79,1,0,0,response1disk,,7,5,11,1,0,0,rectangle,5,11,1,0,0,,,,,,,5,11,1,0,0,,1,78,238,115,1,
,,,,,,,,,,,,,FF,,,,,,,,1.383,,,,,,,,,,,,,,,,,,,,,,610037b2225e262487da1b1f,61036efed7f05ec17b7b77a5,2021-07-29_23h36.55.512,Simcolourproject_2stim_asymm_v5,2020.2.10,MacIntel,60,61025ae37ef11b136ea224fe,,,,,,,,,3699,41,-74,1,0,0,response3disk,,4,7,5,1,0,0,rectangle,7,5,1,0,0,,,,,,,7,5,1,0,0,,1,79,239,108,1,
,,,,,,,,,,,,,FF,,,,,,,,0.866,,,,,,,,,,,,,,,,,,,,,,610037b2225e262487da1b1f,61036efed7f05ec17b7b77a5,2021-07-29_23h36.55.512,Simcolourproject_2stim_asymm_v5,2020.2.10,MacIntel,60,61025ae37ef11b136ea224fe,,,,,,,,,82,-43,-78,1,0,0,response5disk,,3,-12,2,1,0,0,rectangle,-12,2,1,0,0,,,,,,,-12,2,1,0,0,,1,80,240,148,1,
,,,,,,,,,,,,,FF,,,,,,,,0.916,,,,,,,,,,,,,,,,,,,,,,610037b2225e262487da1b1f,61036efed7f05ec17b7b77a5,2021-07-29_23h36.55.512,Simcolourproject_2stim_asymm_v5,2020.2.10,MacIntel,60,61025ae37ef11b136ea224fe,,,,,,,,,4353,-91,-50,1,0,0,response5disk,,2,0,-7,1,0,0,rectangle,0,-7,1,0,0,,,,,,,0,-7,1,0,0,,1,81,241,60,1,
,,,,,,,,,,,,,FF,,,,,,,,0.734,,,,,,,,,,,,,,,,,,,,,,610037b2225e262487da1b1f,61036efed7f05ec17b7b77a5,2021-07-29_23h36.55.512,Simcolourproject_2stim_asymm_v5,2020.2.10,MacIntel,60,61025ae37ef11b136ea224fe,,,,,,,,,583,106,54,1,0,0,response1disk,,6,6,10,1,0,0,rectangle,6,10,1,0,0,,,,,,,6,10,1,0,0,,1,82,242,68,1,
,,,,,,,,,,,,,FF,,,,,,,,0.716,,,,,,,,,,,,,,,,,,,,,,610037b2225e262487da1b1f,61036efed7f05ec17b7b77a5,2021-07-29_23h36.55.512,Simcolourproject_2stim_asymm_v5,2020.2.10,MacIntel,60,61025ae37ef11b136ea224fe,,,,,,,,,3043,75,37,1,0,0,response1disk,,6,9,5,1,0,0,rectangle,9,5,1,0,0,,,,,,,9,5,1,0,0,,1,83,243,142,1,
,,,,,,,,,,,,,FF,,,,,,,,0.835,,,,,,,,,,,,,,,,,,,,,,610037b2225e262487da1b1f,61036efed7f05ec17b7b77a5,2021-07-29_23h36.55.512,Simcolourproject_2stim_asymm_v5,2020.2.10,MacIntel,60,61025ae37ef11b136ea224fe,,,,,,,,,3677,-78,-39,1,0,0,response5disk,,2,-1,7,1,0,0,rectangle,-1,7,1,0,0,,,,,,,-1,7,1,0,0,,1,84,244,113,1,
,,,,,,,,,,,,,FF,,,,,,,,1.634,,,,,,,,,,,,,,,,,,,,,,610037b2225e262487da1b1f,61036efed7f05ec17b7b77a5,2021-07-29_23h36.55.512,Simcolourproject_2stim_asymm_v5,2020.2.10,MacIntel,60,61025ae37ef11b136ea224fe,,,,,,,,,2315,-45,-85,1,0,0,response5disk,,3,1,-3,1,0,0,rectangle,1,-3,1,0,0,,,,,,,1,-3,1,0,0,,1,85,245,4,1,
,,,,,,,,,,,,,FF,,,,,,,,0.766,,,,,,,,,,,,,,,,,,,,,,610037b2225e262487da1b1f,61036efed7f05ec17b7b77a5,2021-07-29_23h36.55.512,Simcolourproject_2stim_asymm_v5,2020.2.10,MacIntel,60,61025ae37ef11b136ea224fe,,,,,,,,,2663,-73,-31,1,0,0,response5disk,,2,7,17,1,0,0,rectangle,7,17,1,0,0,,,,,,,7,17,1,0,0,,1,86,246,103,1,
,,,,,,,,,,,,,FF,,,,,,,,0.966,,,,,,,,,,,,,,,,,,,,,,610037b2225e262487da1b1f,61036efed7f05ec17b7b77a5,2021-07-29_23h36.55.512,Simcolourproject_2stim_asymm_v5,2020.2.10,MacIntel,60,61025ae37ef11b136ea224fe,,,,,,,,,3517,-84,31,1,0,0,response7disk,,1,-6,11,1,0,0,rectangle,-6,11,1,0,0,,,,,,,-6,11,1,0,0,,1,87,247,91,1,
,,,,,,,,,,,,,FF,,,,,,,,0.917,,,,,,,,,,,,,,,,,,,,,,610037b2225e262487da1b1f,61036efed7f05ec17b7b77a5,2021-07-29_23h36.55.512,Simcolourproject_2stim_asymm_v5,2020.2.10,MacIntel,60,61025ae37ef11b136ea224fe,,,,,,,,,2773,87,32,1,0,0,response1disk,,6,19,1,1,0,0,rectangle,19,1,1,0,0,,,,,,,19,1,1,0,0,,1,88,248,10,1,
,,,,,,,,,,,,,FF,,,,,,,,1.866,,,,,,,,,,,,,,,,,,,,,,610037b2225e262487da1b1f,61036efed7f05ec17b7b77a5,2021-07-29_23h36.55.512,Simcolourproject_2stim_asymm_v5,2020.2.10,MacIntel,60,61025ae37ef11b136ea224fe,,,,,,,,,3171,65,-36,1,0,0,response3disk,,5,-9,-4,1,0,0,rectangle,-9,-4,1,0,0,,,,,,,-9,-4,1,0,0,,1,89,249,16,1,
,,,,,,,,,,,,,FF,,,,,,,,0.682,,,,,,,,,,,,,,,,,,,,,,610037b2225e262487da1b1f,61036efed7f05ec17b7b77a5,2021-07-29_23h36.55.512,Simcolourproject_2stim_asymm_v5,2020.2.10,MacIntel,60,61025ae37ef11b136ea224fe,,,,,,,,,2240,-81,-45,1,0,0,response5disk,,2,14,-6,1,0,0,rectangle,14,-6,1,0,0,,,,,,,14,-6,1,0,0,,1,90,250,69,1,
,,,,,,,,,,,,,FF,,,,,,,,0.833,,,,,,,,,,,,,,,,,,,,,,610037b2225e262487da1b1f,61036efed7f05ec17b7b77a5,2021-07-29_23h36.55.512,Simcolourproject_2stim_asymm_v5,2020.2.10,MacIntel,60,61025ae37ef11b136ea224fe,,,,,,,,,2320,100,-22,1,0,0,response3disk,,5,10,16,1,0,0,rectangle,10,16,1,0,0,,,,,,,10,16,1,0,0,,1,91,251,7,1,
,,,,,,,,,,,,,FF,,,,,,,,0.882,,,,,,,,,,,,,,,,,,,,,,610037b2225e262487da1b1f,61036efed7f05ec17b7b77a5,2021-07-29_23h36.55.512,Simcolourproject_2stim_asymm_v5,2020.2.10,MacIntel,60,61025ae37ef11b136ea224fe,,,,,,,,,431,49,-92,1,0,0,response3disk,,4,2,11,1,0,0,rectangle,2,11,1,0,0,,,,,,,2,11,1,0,0,,1,92,252,112,1,
,,,,,,,,,,,,,FF,,,,,,,,0.967,,,,,,,,,,,,,,,,,,,,,,610037b2225e262487da1b1f,61036efed7f05ec17b7b77a5,2021-07-29_23h36.55.512,Simcolourproject_2stim_asymm_v5,2020.2.10,MacIntel,60,61025ae37ef11b136ea224fe,,,,,,,,,2441,30,-69,1,0,0,response3disk,,4,1,2,1,0,0,rectangle,1,2,1,0,0,,,,,,,1,2,1,0,0,,1,93,253,40,1,
,,,,,,,,,,,,,FF,,,,,,,,1.184,,,,,,,,,,,,,,,,,,,,,,610037b2225e262487da1b1f,61036efed7f05ec17b7b77a5,2021-07-29_23h36.55.512,Simcolourproject_2stim_asymm_v5,2020.2.10,MacIntel,60,61025ae37ef11b136ea224fe,,,,,,,,,3094,-40,-72,1,0,0,response5disk,,3,7,-2,1,0,0,rectangle,7,-2,1,0,0,,,,,,,7,-2,1,0,0,,1,94,254,146,1,
,,,,,,,,,,,,,FF,,,,,,,,0.715,,,,,,,,,,,,,,,,,,,,,,610037b2225e262487da1b1f,61036efed7f05ec17b7b77a5,2021-07-29_23h36.55.512,Simcolourproject_2stim_asymm_v5,2020.2.10,MacIntel,60,61025ae37ef11b136ea224fe,,,,,,,,,3056,-95,-41,1,0,0,response5disk,,2,-5,-2,1,0,0,rectangle,-5,-2,1,0,0,,,,,,,-5,-2,1,0,0,,1,95,255,133,1,
,,,,,,,,,,,,,FF,,,,,,,,1.583,,,,,,,,,,,,,,,,,,,,,,610037b2225e262487da1b1f,61036efed7f05ec17b7b77a5,2021-07-29_23h36.55.512,Simcolourproject_2stim_asymm_v5,2020.2.10,MacIntel,60,61025ae37ef11b136ea224fe,,,,,,,,,2533,-36,-85,1,0,0,response5disk,,3,3,12,1,0,0,rectangle,3,12,1,0,0,,,,,,,3,12,1,0,0,,1,96,256,136,1,
,,,,,,,,,,,,,FF,,,,,,,,1.451,,,,,,,,,,,,,,,,,,,,,,610037b2225e262487da1b1f,61036efed7f05ec17b7b77a5,2021-07-29_23h36.55.512,Simcolourproject_2stim_asymm_v5,2020.2.10,MacIntel,60,61025ae37ef11b136ea224fe,,,,,,,,,1296,-86,40,1,0,0,response7disk,,1,-10,10,1,0,0,rectangle,-10,10,1,0,0,,,,,,,-10,10,1,0,0,,1,97,257,45,1,
,,,,,,,,,,,,,FF,,,,,,,,0.733,,,,,,,,,,,,,,,,,,,,,,610037b2225e262487da1b1f,61036efed7f05ec17b7b77a5,2021-07-29_23h36.55.512,Simcolourproject_2stim_asymm_v5,2020.2.10,MacIntel,60,61025ae37ef11b136ea224fe,,,,,,,,,3151,-64,-39,1,0,0,response5disk,,2,0,-6,1,0,0,rectangle,0,-6,1,0,0,,,,,,,0,-6,1,0,0,,1,98,258,82,1,
,,,,,,,,,,,,,FF,,,,,,,,0.835,,,,,,,,,,,,,,,,,,,,,,610037b2225e262487da1b1f,61036efed7f05ec17b7b77a5,2021-07-29_23h36.55.512,Simcolourproject_2stim_asymm_v5,2020.2.10,MacIntel,60,61025ae37ef11b136ea224fe,,,,,,,,,1815,-38,89,1,0,0,response7disk,,0,-2,3,1,0,0,rectangle,-78,-49,1,0,0,response5disk_3,TRUE,2,2,"[206,260,18,301,196,184,162,121,50,115,24,176,82,181,35,89,307,1,176,67]",1.767,6,9,1,0,0,rectangle,1,99,259,80,1,
,,,,,,,,,,,,,FF,,,,,,,,1.365,,,,,,,,,,,,,,,,,,,,,,610037b2225e262487da1b1f,61036efed7f05ec17b7b77a5,2021-07-29_23h36.55.512,Simcolourproject_2stim_asymm_v5,2020.2.10,MacIntel,60,61025ae37ef11b136ea224fe,,,,,,,,,4000,-77,23,1,0,0,response7disk,,1,-11,-5,1,0,0,rectangle,-11,-5,1,0,0,,,,,,,-11,-5,1,0,0,,1,100,260,128,1,
,,,,,,,,,,,,,FF,,,,,,,,1.067,,,,,,,,,,,,,,,,,,,,,,610037b2225e262487da1b1f,61036efed7f05ec17b7b77a5,2021-07-29_23h36.55.512,Simcolourproject_2stim_asymm_v5,2020.2.10,MacIntel,60,61025ae37ef11b136ea224fe,,,,,,,,,236,77,-35,1,0,0,response3disk,,5,7,-5,1,0,0,rectangle,7,-5,1,0,0,,,,,,,7,-5,1,0,0,,1,101,261,47,1,
,,,,,,,,,,,,,FF,,,,,,,,0.716,,,,,,,,,,,,,,,,,,,,,,610037b2225e262487da1b1f,61036efed7f05ec17b7b77a5,2021-07-29_23h36.55.512,Simcolourproject_2stim_asymm_v5,2020.2.10,MacIntel,60,61025ae37ef11b136ea224fe,,,,,,,,,1720,82,39,1,0,0,response1disk,,6,11,5,1,0,0,rectangle,11,5,1,0,0,,,,,,,11,5,1,0,0,,1,102,262,104,1,
,,,,,,,,,,,,,FF,,,,,,,,0.75,,,,,,,,,,,,,,,,,,,,,,610037b2225e262487da1b1f,61036efed7f05ec17b7b77a5,2021-07-29_23h36.55.512,Simcolourproject_2stim_asymm_v5,2020.2.10,MacIntel,60,61025ae37ef11b136ea224fe,,,,,,,,,2861,71,34,1,0,0,response1disk,,6,9,5,1,0,0,rectangle,9,5,1,0,0,,,,,,,9,5,1,0,0,,1,103,263,23,1,
,,,,,,,,,,,,,FF,,,,,,,,0.9,,,,,,,,,,,,,,,,,,,,,,610037b2225e262487da1b1f,61036efed7f05ec17b7b77a5,2021-07-29_23h36.55.512,Simcolourproject_2stim_asymm_v5,2020.2.10,MacIntel,60,61025ae37ef11b136ea224fe,,,,,,,,,3946,-89,-41,1,0,0,response5disk,,2,0,8,1,0,0,rectangle,0,8,1,0,0,,,,,,,0,8,1,0,0,,1,104,264,42,1,
,,,,,,,,,,,,,FF,,,,,,,,0.949,,,,,,,,,,,,,,,,,,,,,,610037b2225e262487da1b1f,61036efed7f05ec17b7b77a5,2021-07-29_23h36.55.512,Simcolourproject_2stim_asymm_v5,2020.2.10,MacIntel,60,61025ae37ef11b136ea224fe,,,,,,,,,1999,79,39,1,0,0,response1disk,,6,-5,1,1,0,0,rectangle,-5,1,1,0,0,,,,,,,-5,1,1,0,0,,1,105,265,90,1,
,,,,,,,,,,,,,FF,,,,,,,,0.884,,,,,,,,,,,,,,,,,,,,,,610037b2225e262487da1b1f,61036efed7f05ec17b7b77a5,2021-07-29_23h36.55.512,Simcolourproject_2stim_asymm_v5,2020.2.10,MacIntel,60,61025ae37ef11b136ea224fe,,,,,,,,,827,88,-38,1,0,0,response3disk,,5,-2,0,1,0,0,rectangle,-2,0,1,0,0,,,,,,,-2,0,1,0,0,,1,106,266,35,1,
,,,,,,,,,,,,,FF,,,,,,,,1.933,,,,,,,,,,,,,,,,,,,,,,610037b2225e262487da1b1f,61036efed7f05ec17b7b77a5,2021-07-29_23h36.55.512,Simcolourproject_2stim_asymm_v5,2020.2.10,MacIntel,60,61025ae37ef11b136ea224fe,,,,,,,,,1011,82,35,1,0,0,response1disk,,6,14,4,1,0,0,rectangle,14,4,1,0,0,,,,,,,14,4,1,0,0,,1,107,267,5,1,
,,,,,,,,,,,,,FF,,,,,,,,0.783,,,,,,,,,,,,,,,,,,,,,,610037b2225e262487da1b1f,61036efed7f05ec17b7b77a5,2021-07-29_23h36.55.512,Simcolourproject_2stim_asymm_v5,2020.2.10,MacIntel,60,61025ae37ef11b136ea224fe,,,,,,,,,4095,-43,82,1,0,0,response7disk,,0,-4,7,1,0,0,rectangle,-4,7,1,0,0,,,,,,,-4,7,1,0,0,,1,108,268,127,1,
,,,,,,,,,,,,,FF,,,,,,,,0.867,,,,,,,,,,,,,,,,,,,,,,610037b2225e262487da1b1f,61036efed7f05ec17b7b77a5,2021-07-29_23h36.55.512,Simcolourproject_2stim_asymm_v5,2020.2.10,MacIntel,60,61025ae37ef11b136ea224fe,,,,,,,,,3500,40,91,1,0,0,response1disk,,7,-1,2,1,0,0,rectangle,-1,2,1,0,0,,,,,,,-1,2,1,0,0,,1,109,269,33,1,
,,,,,,,,,,,,,FF,,,,,,,,1.283,,,,,,,,,,,,,,,,,,,,,,610037b2225e262487da1b1f,61036efed7f05ec17b7b77a5,2021-07-29_23h36.55.512,Simcolourproject_2stim_asymm_v5,2020.2.10,MacIntel,60,61025ae37ef11b136ea224fe,,,,,,,,,1064,90,-57,1,0,0,response3disk,,5,-10,2,1,0,0,rectangle,-10,2,1,0,0,,,,,,,-10,2,1,0,0,,1,110,270,67,1,
,,,,,,,,,,,,,FF,,,,,,,,1.133,,,,,,,,,,,,,,,,,,,,,,610037b2225e262487da1b1f,61036efed7f05ec17b7b77a5,2021-07-29_23h36.55.512,Simcolourproject_2stim_asymm_v5,2020.2.10,MacIntel,60,61025ae37ef11b136ea224fe,,,,,,,,,2248,81,-36,1,0,0,response3disk,,5,7,2,1,0,0,rectangle,7,2,1,0,0,,,,,,,7,2,1,0,0,,1,111,271,54,1,
,,,,,,,,,,,,,FF,,,,,,,,1.184,,,,,,,,,,,,,,,,,,,,,,610037b2225e262487da1b1f,61036efed7f05ec17b7b77a5,2021-07-29_23h36.55.512,Simcolourproject_2stim_asymm_v5,2020.2.10,MacIntel,60,61025ae37ef11b136ea224fe,,,,,,,,,598,89,49,1,0,0,response1disk,,6,4,5,1,0,0,rectangle,4,5,1,0,0,,,,,,,4,5,1,0,0,,1,112,272,31,1,
,,,,,,,,,,,,,FF,,,,,,,,1.1,,,,,,,,,,,,,,,,,,,,,,610037b2225e262487da1b1f,61036efed7f05ec17b7b77a5,2021-07-29_23h36.55.512,Simcolourproject_2stim_asymm_v5,2020.2.10,MacIntel,60,61025ae37ef11b136ea224fe,,,,,,,,,1393,45,-76,1,0,0,response3disk,,4,-3,6,1,0,0,rectangle,-3,6,1,0,0,,,,,,,-3,6,1,0,0,,1,113,273,84,1,
,,,,,,,,,,,,,FF,,,,,,,,0.91,,,,,,,,,,,,,,,,,,,,,,610037b2225e262487da1b1f,61036efed7f05ec17b7b77a5,2021-07-29_23h36.55.512,Simcolourproject_2stim_asymm_v5,2020.2.10,MacIntel,60,61025ae37ef11b136ea224fe,,,,,,,,,280,-41,-67,1,0,0,response5disk,,3,3,-1,1,0,0,rectangle,3,-1,1,0,0,,,,,,,3,-1,1,0,0,,1,114,274,118,1,
,,,,,,,,,,,,,FF,,,,,,,,0.883,,,,,,,,,,,,,,,,,,,,,,610037b2225e262487da1b1f,61036efed7f05ec17b7b77a5,2021-07-29_23h36.55.512,Simcolourproject_2stim_asymm_v5,2020.2.10,MacIntel,60,61025ae37ef11b136ea224fe,,,,,,,,,2703,75,33,1,0,0,response1disk,,6,8,1,1,0,0,rectangle,8,1,1,0,0,,,,,,,8,1,1,0,0,,1,115,275,63,1,
,,,,,,,,,,,,,FF,,,,,,,,0.901,,,,,,,,,,,,,,,,,,,,,,610037b2225e262487da1b1f,61036efed7f05ec17b7b77a5,2021-07-29_23h36.55.512,Simcolourproject_2stim_asymm_v5,2020.2.10,MacIntel,60,61025ae37ef11b136ea224fe,,,,,,,,,2219,38,-71,1,0,0,response3disk,,4,3,4,1,0,0,rectangle,3,4,1,0,0,,,,,,,3,4,1,0,0,,1,116,276,17,1,
,,,,,,,,,,,,,FF,,,,,,,,0.915,,,,,,,,,,,,,,,,,,,,,,610037b2225e262487da1b1f,61036efed7f05ec17b7b77a5,2021-07-29_23h36.55.512,Simcolourproject_2stim_asymm_v5,2020.2.10,MacIntel,60,61025ae37ef11b136ea224fe,,,,,,,,,1948,36,-67,1,0,0,response3disk,,4,6,2,1,0,0,rectangle,6,2,1,0,0,,,,,,,6,2,1,0,0,,1,117,277,19,1,
,,,,,,,,,,,,,FF,,,,,,,,0.867,,,,,,,,,,,,,,,,,,,,,,610037b2225e262487da1b1f,61036efed7f05ec17b7b77a5,2021-07-29_23h36.55.512,Simcolourproject_2stim_asymm_v5,2020.2.10,MacIntel,60,61025ae37ef11b136ea224fe,,,,,,,,,1394,37,-67,1,0,0,response3disk,,4,2,-2,1,0,0,rectangle,2,-2,1,0,0,,,,,,,2,-2,1,0,0,,1,118,278,3,1,
,,,,,,,,,,,,,FF,,,,,,,,1.6,,,,,,,,,,,,,,,,,,,,,,610037b2225e262487da1b1f,61036efed7f05ec17b7b77a5,2021-07-29_23h36.55.512,Simcolourproject_2stim_asymm_v5,2020.2.10,MacIntel,60,61025ae37ef11b136ea224fe,,,,,,,,,2344,80,28,1,0,0,response1disk,,6,10,5,1,0,0,rectangle,10,5,1,0,0,,,,,,,10,5,1,0,0,,1,119,279,119,1,
,,,,,,,,,,,,,FF,,,,,,,,1.1,,,,,,,,,,,,,,,,,,,,,,610037b2225e262487da1b1f,61036efed7f05ec17b7b77a5,2021-07-29_23h36.55.512,Simcolourproject_2stim_asymm_v5,2020.2.10,MacIntel,60,61025ae37ef11b136ea224fe,,,,,,,,,1842,87,-56,1,0,0,response3disk,,5,-6,-1,1,0,0,rectangle,-6,-1,1,0,0,,,,,,,-6,-1,1,0,0,,1,120,280,56,1,
,,,,,,,,,,,,,FF,,,,,,,,0.883,,,,,,,,,,,,,,,,,,,,,,610037b2225e262487da1b1f,61036efed7f05ec17b7b77a5,2021-07-29_23h36.55.512,Simcolourproject_2stim_asymm_v5,2020.2.10,MacIntel,60,61025ae37ef11b136ea224fe,,,,,,,,,2685,39,-71,1,0,0,response3disk,,4,9,-2,1,0,0,rectangle,9,-2,1,0,0,,,,,,,9,-2,1,0,0,,1,121,281,29,1,
,,,,,,,,,,,,,FF,,,,,,,,0.833,,,,,,,,,,,,,,,,,,,,,,610037b2225e262487da1b1f,61036efed7f05ec17b7b77a5,2021-07-29_23h36.55.512,Simcolourproject_2stim_asymm_v5,2020.2.10,MacIntel,60,61025ae37ef11b136ea224fe,,,,,,,,,4101,-39,-78,1,0,0,response5disk,,3,-11,-7,1,0,0,rectangle,-11,-7,1,0,0,,,,,,,-11,-7,1,0,0,,1,122,282,102,1,
,,,,,,,,,,,,,FF,,,,,,,,0.816,,,,,,,,,,,,,,,,,,,,,,610037b2225e262487da1b1f,61036efed7f05ec17b7b77a5,2021-07-29_23h36.55.512,Simcolourproject_2stim_asymm_v5,2020.2.10,MacIntel,60,61025ae37ef11b136ea224fe,,,,,,,,,1465,-44,-85,1,0,0,response5disk,,3,3,-6,1,0,0,rectangle,3,-6,1,0,0,,,,,,,3,-6,1,0,0,,1,123,283,81,1,
,,,,,,,,,,,,,FF,,,,,,,,0.899,,,,,,,,,,,,,,,,,,,,,,610037b2225e262487da1b1f,61036efed7f05ec17b7b77a5,2021-07-29_23h36.55.512,Simcolourproject_2stim_asymm_v5,2020.2.10,MacIntel,60,61025ae37ef11b136ea224fe,,,,,,,,,537,90,41,1,0,0,response1disk,,6,15,8,1,0,0,rectangle,15,8,1,0,0,,,,,,,15,8,1,0,0,,1,124,284,73,1,
,,,,,,,,,,,,,FF,,,,,,,,0.8,,,,,,,,,,,,,,,,,,,,,,610037b2225e262487da1b1f,61036efed7f05ec17b7b77a5,2021-07-29_23h36.55.512,Simcolourproject_2stim_asymm_v5,2020.2.10,MacIntel,60,61025ae37ef11b136ea224fe,,,,,,,,,2884,85,49,1,0,0,response1disk,,6,-6,6,1,0,0,rectangle,-6,6,1,0,0,,,,,,,-6,6,1,0,0,,1,125,285,8,1,
,,,,,,,,,,,,,FF,,,,,,,,1.267,,,,,,,,,,,,,,,,,,,,,,610037b2225e262487da1b1f,61036efed7f05ec17b7b77a5,2021-07-29_23h36.55.512,Simcolourproject_2stim_asymm_v5,2020.2.10,MacIntel,60,61025ae37ef11b136ea224fe,,,,,,,,,977,-30,-78,1,0,0,response5disk,,3,0,1,1,0,0,rectangle,0,1,1,0,0,,,,,,,0,1,1,0,0,,1,126,286,14,1,
,,,,,,,,,,,,,FF,,,,,,,,1.016,,,,,,,,,,,,,,,,,,,,,,610037b2225e262487da1b1f,61036efed7f05ec17b7b77a5,2021-07-29_23h36.55.512,Simcolourproject_2stim_asymm_v5,2020.2.10,MacIntel,60,61025ae37ef11b136ea224fe,,,,,,,,,97,-98,-39,1,0,0,response5disk,,2,-1,0,1,0,0,rectangle,-1,0,1,0,0,,,,,,,-1,0,1,0,0,,1,127,287,95,1,
,,,,,,,,,,,,,FF,,,,,,,,0.8,,,,,,,,,,,,,,,,,,,,,,610037b2225e262487da1b1f,61036efed7f05ec17b7b77a5,2021-07-29_23h36.55.512,Simcolourproject_2stim_asymm_v5,2020.2.10,MacIntel,60,61025ae37ef11b136ea224fe,,,,,,,,,777,94,56,1,0,0,response1disk,,6,1,-6,1,0,0,rectangle,1,-6,1,0,0,,,,,,,1,-6,1,0,0,,1,128,288,57,1,
,,,,,,,,,,,,,FF,,,,,,,,0.95,,,,,,,,,,,,,,,,,,,,,,610037b2225e262487da1b1f,61036efed7f05ec17b7b77a5,2021-07-29_23h36.55.512,Simcolourproject_2stim_asymm_v5,2020.2.10,MacIntel,60,61025ae37ef11b136ea224fe,,,,,,,,,691,74,24,1,0,0,response1disk,,6,-22,-15,1,0,0,rectangle,-22,-15,1,0,0,,,,,,,-22,-15,1,0,0,,1,129,289,158,1,
,,,,,,,,,,,,,FF,,,,,,,,0.949,,,,,,,,,,,,,,,,,,,,,,610037b2225e262487da1b1f,61036efed7f05ec17b7b77a5,2021-07-29_23h36.55.512,Simcolourproject_2stim_asymm_v5,2020.2.10,MacIntel,60,61025ae37ef11b136ea224fe,,,,,,,,,2395,111,44,1,0,0,response1disk,,6,7,10,1,0,0,rectangle,7,10,1,0,0,,,,,,,7,10,1,0,0,,1,130,290,151,1,
,,,,,,,,,,,,,FF,,,,,,,,0.916,,,,,,,,,,,,,,,,,,,,,,610037b2225e262487da1b1f,61036efed7f05ec17b7b77a5,2021-07-29_23h36.55.512,Simcolourproject_2stim_asymm_v5,2020.2.10,MacIntel,60,61025ae37ef11b136ea224fe,,,,,,,,,2484,-79,-40,1,0,0,response5disk,,2,-6,-4,1,0,0,rectangle,-6,-4,1,0,0,,,,,,,-6,-4,1,0,0,,1,131,291,139,1,
,,,,,,,,,,,,,FF,,,,,,,,0.949,,,,,,,,,,,,,,,,,,,,,,610037b2225e262487da1b1f,61036efed7f05ec17b7b77a5,2021-07-29_23h36.55.512,Simcolourproject_2stim_asymm_v5,2020.2.10,MacIntel,60,61025ae37ef11b136ea224fe,,,,,,,,,3706,-79,39,1,0,0,response7disk,,1,-2,4,1,0,0,rectangle,-2,4,1,0,0,,,,,,,-2,4,1,0,0,,1,132,292,89,1,
,,,,,,,,,,,,,FF,,,,,,,,1.067,,,,,,,,,,,,,,,,,,,,,,610037b2225e262487da1b1f,61036efed7f05ec17b7b77a5,2021-07-29_23h36.55.512,Simcolourproject_2stim_asymm_v5,2020.2.10,MacIntel,60,61025ae37ef11b136ea224fe,,,,,,,,,501,-32,-68,1,0,0,response5disk,,3,3,4,1,0,0,rectangle,3,4,1,0,0,,,,,,,3,4,1,0,0,,1,133,293,30,1,
,,,,,,,,,,,,,FF,,,,,,,,0.849,,,,,,,,,,,,,,,,,,,,,,610037b2225e262487da1b1f,61036efed7f05ec17b7b77a5,2021-07-29_23h36.55.512,Simcolourproject_2stim_asymm_v5,2020.2.10,MacIntel,60,61025ae37ef11b136ea224fe,,,,,,,,,2190,93,49,1,0,0,response1disk,,6,6,2,1,0,0,rectangle,6,2,1,0,0,,,,,,,6,2,1,0,0,,1,134,294,140,1,
,,,,,,,,,,,,,FF,,,,,,,,0.867,,,,,,,,,,,,,,,,,,,,,,610037b2225e262487da1b1f,61036efed7f05ec17b7b77a5,2021-07-29_23h36.55.512,Simcolourproject_2stim_asymm_v5,2020.2.10,MacIntel,60,61025ae37ef11b136ea224fe,,,,,,,,,1001,77,-27,1,0,0,response3disk,,5,4,-4,1,0,0,rectangle,4,-4,1,0,0,,,,,,,4,-4,1,0,0,,1,135,295,137,1,
,,,,,,,,,,,,,FF,,,,,,,,0.917,,,,,,,,,,,,,,,,,,,,,,610037b2225e262487da1b1f,61036efed7f05ec17b7b77a5,2021-07-29_23h36.55.512,Simcolourproject_2stim_asymm_v5,2020.2.10,MacIntel,60,61025ae37ef11b136ea224fe,,,,,,,,,2770,-72,-39,1,0,0,response5disk,,2,5,-7,1,0,0,rectangle,5,-7,1,0,0,,,,,,,5,-7,1,0,0,,1,136,296,22,1,
,,,,,,,,,,,,,FF,,,,,,,,0.933,,,,,,,,,,,,,,,,,,,,,,610037b2225e262487da1b1f,61036efed7f05ec17b7b77a5,2021-07-29_23h36.55.512,Simcolourproject_2stim_asymm_v5,2020.2.10,MacIntel,60,61025ae37ef11b136ea224fe,,,,,,,,,4106,-86,-38,1,0,0,response5disk,,2,2,6,1,0,0,rectangle,2,6,1,0,0,,,,,,,2,6,1,0,0,,1,137,297,105,1,
,,,,,,,,,,,,,FF,,,,,,,,0.765,,,,,,,,,,,,,,,,,,,,,,610037b2225e262487da1b1f,61036efed7f05ec17b7b77a5,2021-07-29_23h36.55.512,Simcolourproject_2stim_asymm_v5,2020.2.10,MacIntel,60,61025ae37ef11b136ea224fe,,,,,,,,,2207,90,45,1,0,0,response1disk,,6,8,1,1,0,0,rectangle,8,1,1,0,0,,,,,,,8,1,1,0,0,,1,138,298,152,1,
,,,,,,,,,,,,,FF,,,,,,,,0.899,,,,,,,,,,,,,,,,,,,,,,610037b2225e262487da1b1f,61036efed7f05ec17b7b77a5,2021-07-29_23h36.55.512,Simcolourproject_2stim_asymm_v5,2020.2.10,MacIntel,60,61025ae37ef11b136ea224fe,,,,,,,,,1320,79,27,1,0,0,response1disk,,6,-16,-9,1,0,0,rectangle,-16,-9,1,0,0,,,,,,,-16,-9,1,0,0,,1,139,299,132,1,
,,,,,,,,,,,,,FF,,,,,,,,0.817,,,,,,,,,,,,,,,,,,,,,,610037b2225e262487da1b1f,61036efed7f05ec17b7b77a5,2021-07-29_23h36.55.512,Simcolourproject_2stim_asymm_v5,2020.2.10,MacIntel,60,61025ae37ef11b136ea224fe,,,,,,,,,1395,75,-27,1,0,0,response3disk,,5,3,-5,1,0,0,rectangle,95,70,1,0,0,response1disk_3,TRUE,6,6,"[206,260,18,301,196,184,162,121,50,115,24,176,82,181,35,89,307,1,176,67]",1.583,8,7,1,0,0,rectangle,1,140,300,55,1,
,,,,,,,,,,,,,FF,,,,,,,,0.917,,,,,,,,,,,,,,,,,,,,,,610037b2225e262487da1b1f,61036efed7f05ec17b7b77a5,2021-07-29_23h36.55.512,Simcolourproject_2stim_asymm_v5,2020.2.10,MacIntel,60,61025ae37ef11b136ea224fe,,,,,,,,,36,87,-20,1,0,0,response3disk,,5,14,0,1,0,0,rectangle,14,0,1,0,0,,,,,,,14,0,1,0,0,,1,141,301,109,1,
