key_resp.keys,key_resp.rt,key_resp_14.keys,key_resp_14.rt,key_resp_15.keys,key_resp_15.rt,key_resp_17.keys,key_resp_17.rt,key_resp_9.keys,key_resp_9.rt,key_resp_10.keys,key_resp_10.rt,practice_comparison,Ecc,mouse_5.x,mouse_5.y,mouse_5.leftButton,mouse_5.midButton,mouse_5.rightButton,mouse_5.clicked_name,pracsimilarity,response_time,mouse_10.x,mouse_10.y,mouse_10.leftButton,mouse_10.midButton,mouse_10.rightButton,mouse_10.clicked_name,mouse_7.x,mouse_7.y,mouse_7.leftButton,mouse_7.midButton,mouse_7.rightButton,mouse_6.x,mouse_6.y,mouse_6.leftButton,mouse_6.midButton,mouse_6.rightButton,duringprac.thisRepN,duringprac.thisTrialN,duringprac.thisN,duringprac.thisIndex,duringprac.ran,participant,session,date,expName,psychopyVersion,OS,frameRate,study_id,mouse_7.clicked_name,catchpracsimilarity,catch_response_time,catchnumberprac,catchtrialorderprac,mouse_6.clicked_name,key_resp_22.keys,key_resp_22.rt,realcomparison,mouse.x,mouse.y,mouse.leftButton,mouse.midButton,mouse.rightButton,mouse.clicked_name,Colour2,similarity,mouse_2.x,mouse_2.y,mouse_2.leftButton,mouse_2.midButton,mouse_2.rightButton,mouse_2.clicked_name,mouse_3.x,mouse_3.y,mouse_3.leftButton,mouse_3.midButton,mouse_3.rightButton,mouse_11.x,mouse_11.y,mouse_11.leftButton,mouse_11.midButton,mouse_11.rightButton,trials_2.thisRepN,trials_2.thisTrialN,trials_2.thisN,trials_2.thisIndex,trials_2.ran,Colour1,mouse_3.clicked_name,catchornah,catchsimilarity,catchnumber,catchtrialorder,catchRT,mouse_11.clicked_name
space,1.4257,space,2.5183,space,34.6877,space,11.1347,space,0.2656,space,4.007,27,PF,-70.44193296,-42.92056372,1,0,0,response5disk_5,2,3.5679,7.574913901,-6.018268246,1,0,0,rectangle_8,7.574913901,-6.018268246,1,0,0,7.574913901,-6.018268246,1,0,0,0,0,0,2,1,6100a1f6c5c81614e604da15,61036d9296564cde52710f75,2021-07-29_21h11.39.915,Simcolourproject_2stim_asymm_v5,2020.2.10,Linux x86_64,60,61025ae37ef11b136ea224fe,,,,,,,,,,,,,,,,,,,,,,,,,,,,,,,,,,,,,,,,,,,,,,
,,,,,,,,,,,,108,PF,48.3434692,-108.2578206,1,0,0,response3disk_5,4,1.9507,1.516808342,-5.094440107,1,0,0,rectangle_8,-68.01468684,30.16173718,1,0,0,4.980675581,-2.990094372,1,0,0,0,1,1,4,1,6100a1f6c5c81614e604da15,61036d9296564cde52710f75,2021-07-29_21h11.39.915,Simcolourproject_2stim_asymm_v5,2020.2.10,Linux x86_64,60,61025ae37ef11b136ea224fe,response7disk_7,1,3.5012,1,"[2,5]",rectangle_4,,,,,,,,,,,,,,,,,,,,,,,,,,,,,,,,,,,,,,,,
,,,,,,,,,,,,36,FF,121.6965953,64.08075624,1,0,0,response1disk_5,6,2.1272,8.597130713,0.419866616,1,0,0,rectangle_8,8.597130713,0.419866616,1,0,0,8.597130713,0.419866616,1,0,0,0,2,2,3,1,6100a1f6c5c81614e604da15,61036d9296564cde52710f75,2021-07-29_21h11.39.915,Simcolourproject_2stim_asymm_v5,2020.2.10,Linux x86_64,60,61025ae37ef11b136ea224fe,,,,,,,,,,,,,,,,,,,,,,,,,,,,,,,,,,,,,,,,,,,,,,
,,,,,,,,,,,,52,FF,49.07125241,78.53314903,1,0,0,response1disk_5,7,2.4331,12.24044131,-10.64492847,1,0,0,rectangle_8,12.24044131,-10.64492847,1,0,0,12.24044131,-10.64492847,1,0,0,0,3,3,0,1,6100a1f6c5c81614e604da15,61036d9296564cde52710f75,2021-07-29_21h11.39.915,Simcolourproject_2stim_asymm_v5,2020.2.10,Linux x86_64,60,61025ae37ef11b136ea224fe,,,,,,,,,,,,,,,,,,,,,,,,,,,,,,,,,,,,,,,,,,,,,,
,,,,,,,,,,,,57,FF,49.99166258,83.41090789,1,0,0,response1disk_5,7,1.3825,-9.542517995,-0.738824808,1,0,0,rectangle_8,-83.23758745,38.74391504,1,0,0,-12.63787937,5.192571765,1,0,0,0,4,4,5,1,6100a1f6c5c81614e604da15,61036d9296564cde52710f75,2021-07-29_21h11.39.915,Simcolourproject_2stim_asymm_v5,2020.2.10,Linux x86_64,60,61025ae37ef11b136ea224fe,response7disk_7,1,1.8164,1,"[2,5]",rectangle_4,,,,,,,,,,,,,,,,,,,,,,,,,,,,,,,,,,,,,,,,
,,,,,,,,,,,,26,PF,-105.419912,-71.27232195,1,0,0,response5disk_5,2,1.6228,-13.4530161,-5.470367847,1,0,0,rectangle_8,-13.4530161,-5.470367847,1,0,0,-13.4530161,-5.470367847,1,0,0,0,5,5,1,1,6100a1f6c5c81614e604da15,61036d9296564cde52710f75,2021-07-29_21h11.39.915,Simcolourproject_2stim_asymm_v5,2020.2.10,Linux x86_64,60,61025ae37ef11b136ea224fe,,,,,,,,,,,,,,,,,,,,,,,,,,,,,,,,,,,,,,,,,,,,,,
,,,,,,,,,,,,4,PF,-81.03680617,-61.70923587,1,0,0,response5disk_5,2,2.332,-2.039588196,-2.061432249,1,0,0,rectangle_8,-2.039588196,-2.061432249,1,0,0,-2.039588196,-2.061432249,1,0,0,0,6,6,6,1,6100a1f6c5c81614e604da15,61036d9296564cde52710f75,2021-07-29_21h11.39.915,Simcolourproject_2stim_asymm_v5,2020.2.10,Linux x86_64,60,61025ae37ef11b136ea224fe,,,,,,,,,,,,,,,,,,,,,,,,,,,,,,,,,,,,,,,,,,,,,,
,,,,,,,,,,,,,FF,,,,,,,,2.0104,,,,,,,,,,,,,,,,,,,,,,6100a1f6c5c81614e604da15,61036d9296564cde52710f75,2021-07-29_21h11.39.915,Simcolourproject_2stim_asymm_v5,2020.2.10,Linux x86_64,60,61025ae37ef11b136ea224fe,,,,,,,space,1.9869,2422,-63.21146411,-30.6055733,1,0,0,response5disk,,2,6.250597475,3.583929163,1,0,0,rectangle,6.250597475,3.583929163,1,0,0,6.250597475,3.583929163,1,0,0,0,0,0,54,1,,,,,,,,
,,,,,,,,,,,,,FF,,,,,,,,2.2184,,,,,,,,,,,,,,,,,,,,,,6100a1f6c5c81614e604da15,61036d9296564cde52710f75,2021-07-29_21h11.39.915,Simcolourproject_2stim_asymm_v5,2020.2.10,Linux x86_64,60,61025ae37ef11b136ea224fe,,,,,,,,,1395,41.28155503,-74.19795676,1,0,0,response3disk,,4,-2.365760076,-1.977350217,1,0,0,rectangle,-2.365760076,-1.977350217,1,0,0,-2.365760076,-1.977350217,1,0,0,0,1,1,64,1,,,,,,,,
,,,,,,,,,,,,,FF,,,,,,,,1.6691,,,,,,,,,,,,,,,,,,,,,,6100a1f6c5c81614e604da15,61036d9296564cde52710f75,2021-07-29_21h11.39.915,Simcolourproject_2stim_asymm_v5,2020.2.10,Linux x86_64,60,61025ae37ef11b136ea224fe,,,,,,,,,957,-38.86161023,-66.46358165,1,0,0,response5disk,,3,12.7721796,-3.417779926,1,0,0,rectangle,12.7721796,-3.417779926,1,0,0,12.7721796,-3.417779926,1,0,0,0,2,2,94,1,,,,,,,,
,,,,,,,,,,,,,FF,,,,,,,,1.2256,,,,,,,,,,,,,,,,,,,,,,6100a1f6c5c81614e604da15,61036d9296564cde52710f75,2021-07-29_21h11.39.915,Simcolourproject_2stim_asymm_v5,2020.2.10,Linux x86_64,60,61025ae37ef11b136ea224fe,,,,,,,,,4124,-80.48197218,-51.34292712,1,0,0,response5disk,,2,8.418273288,-3.235797501,1,0,0,rectangle,36.10167214,-61.35493899,1,0,0,0.780236065,-5.37051433,1,0,0,0,3,3,125,1,,response3disk_3,TRUE,4,4,"[227,4,0,40,67,31,219,294,13,22,200,107,78,291,109,309,62,89,308,258]",2.4985,rectangle
,,,,,,,,,,,,,FF,,,,,,,,1.5274,,,,,,,,,,,,,,,,,,,,,,6100a1f6c5c81614e604da15,61036d9296564cde52710f75,2021-07-29_21h11.39.915,Simcolourproject_2stim_asymm_v5,2020.2.10,Linux x86_64,60,61025ae37ef11b136ea224fe,,,,,,,,,4087,-35.84691292,-61.43491946,1,0,0,response5disk,,3,0.966417708,-6.216852233,1,0,0,rectangle,0.966417708,-6.216852233,1,0,0,0.966417708,-6.216852233,1,0,0,0,4,4,19,1,,,,,,,,
,,,,,,,,,,,,,FF,,,,,,,,1.5071,,,,,,,,,,,,,,,,,,,,,,6100a1f6c5c81614e604da15,61036d9296564cde52710f75,2021-07-29_21h11.39.915,Simcolourproject_2stim_asymm_v5,2020.2.10,Linux x86_64,60,61025ae37ef11b136ea224fe,,,,,,,,,1476,45.62359611,-84.2168534,1,0,0,response3disk,,4,-3.920838224,-6.269049499,1,0,0,rectangle,-3.920838224,-6.269049499,1,0,0,-3.920838224,-6.269049499,1,0,0,0,5,5,87,1,,,,,,,,
,,,,,,,,,,,,,FF,,,,,,,,0.9314,,,,,,,,,,,,,,,,,,,,,,6100a1f6c5c81614e604da15,61036d9296564cde52710f75,2021-07-29_21h11.39.915,Simcolourproject_2stim_asymm_v5,2020.2.10,Linux x86_64,60,61025ae37ef11b136ea224fe,,,,,,,,,1378,-95.86913061,-40.34937227,1,0,0,response5disk,,2,4.460900182,-5.328619798,1,0,0,rectangle,4.460900182,-5.328619798,1,0,0,4.460900182,-5.328619798,1,0,0,0,6,6,43,1,,,,,,,,
,,,,,,,,,,,,,FF,,,,,,,,2.3057,,,,,,,,,,,,,,,,,,,,,,6100a1f6c5c81614e604da15,61036d9296564cde52710f75,2021-07-29_21h11.39.915,Simcolourproject_2stim_asymm_v5,2020.2.10,Linux x86_64,60,61025ae37ef11b136ea224fe,,,,,,,,,2130,105.1554818,-55.23125726,1,0,0,response3disk,,5,16.14742379,2.248528752,1,0,0,rectangle,16.14742379,2.248528752,1,0,0,16.14742379,2.248528752,1,0,0,0,7,7,73,1,,,,,,,,
,,,,,,,,,,,,,FF,,,,,,,,1.5168,,,,,,,,,,,,,,,,,,,,,,6100a1f6c5c81614e604da15,61036d9296564cde52710f75,2021-07-29_21h11.39.915,Simcolourproject_2stim_asymm_v5,2020.2.10,Linux x86_64,60,61025ae37ef11b136ea224fe,,,,,,,,,2269,89.51593075,-53.87085685,1,0,0,response3disk,,5,13.0341425,8.06439798,1,0,0,rectangle,13.0341425,8.06439798,1,0,0,13.0341425,8.06439798,1,0,0,0,8,8,6,1,,,,,,,,
,,,,,,,,,,,,,FF,,,,,,,,1.3757,,,,,,,,,,,,,,,,,,,,,,6100a1f6c5c81614e604da15,61036d9296564cde52710f75,2021-07-29_21h11.39.915,Simcolourproject_2stim_asymm_v5,2020.2.10,Linux x86_64,60,61025ae37ef11b136ea224fe,,,,,,,,,4113,97.77266915,49.13002359,1,0,0,response1disk,,6,24.80089072,5.434563956,1,0,0,rectangle,24.80089072,5.434563956,1,0,0,24.80089072,5.434563956,1,0,0,0,9,9,39,1,,,,,,,,
,,,,,,,,,,,,,FF,,,,,,,,1.4735,,,,,,,,,,,,,,,,,,,,,,6100a1f6c5c81614e604da15,61036d9296564cde52710f75,2021-07-29_21h11.39.915,Simcolourproject_2stim_asymm_v5,2020.2.10,Linux x86_64,60,61025ae37ef11b136ea224fe,,,,,,,,,3012,76.47335243,32.59945694,1,0,0,response1disk,,6,33.6879514,-1.626764274,1,0,0,rectangle,33.6879514,-1.626764274,1,0,0,33.6879514,-1.626764274,1,0,0,0,10,10,63,1,,,,,,,,
,,,,,,,,,,,,,FF,,,,,,,,1.4086,,,,,,,,,,,,,,,,,,,,,,6100a1f6c5c81614e604da15,61036d9296564cde52710f75,2021-07-29_21h11.39.915,Simcolourproject_2stim_asymm_v5,2020.2.10,Linux x86_64,60,61025ae37ef11b136ea224fe,,,,,,,,,3806,-63.79725513,-115.9522054,1,0,0,response5disk,,3,-8.754871499,-3.897125636,1,0,0,rectangle,-8.754871499,-3.897125636,1,0,0,-8.754871499,-3.897125636,1,0,0,0,11,11,75,1,,,,,,,,
,,,,,,,,,,,,,FF,,,,,,,,2.1105,,,,,,,,,,,,,,,,,,,,,,6100a1f6c5c81614e604da15,61036d9296564cde52710f75,2021-07-29_21h11.39.915,Simcolourproject_2stim_asymm_v5,2020.2.10,Linux x86_64,60,61025ae37ef11b136ea224fe,,,,,,,,,952,-36.33924691,-119.6064047,1,0,0,response5disk,,3,-6.306678103,-10.89434254,1,0,0,rectangle,59.55548108,81.20770962,1,0,0,-13.60794774,-7.800934288,1,0,0,0,12,12,52,1,,response1disk_3,TRUE,7,7,"[227,4,0,40,67,31,219,294,13,22,200,107,78,291,109,309,62,89,308,258]",2.5326,rectangle
,,,,,,,,,,,,,FF,,,,,,,,1.0926,,,,,,,,,,,,,,,,,,,,,,6100a1f6c5c81614e604da15,61036d9296564cde52710f75,2021-07-29_21h11.39.915,Simcolourproject_2stim_asymm_v5,2020.2.10,Linux x86_64,60,61025ae37ef11b136ea224fe,,,,,,,,,3445,-55.31375891,-42.34844457,1,0,0,response5disk,,2,9.604747915,-2.643805305,1,0,0,rectangle,9.604747915,-2.643805305,1,0,0,9.604747915,-2.643805305,1,0,0,0,13,13,143,1,,,,,,,,
,,,,,,,,,,,,,FF,,,,,,,,1.2662,,,,,,,,,,,,,,,,,,,,,,6100a1f6c5c81614e604da15,61036d9296564cde52710f75,2021-07-29_21h11.39.915,Simcolourproject_2stim_asymm_v5,2020.2.10,Linux x86_64,60,61025ae37ef11b136ea224fe,,,,,,,,,2595,-25.25003776,-68.39995863,1,0,0,response5disk,,3,22.83443561,-13.41968437,1,0,0,rectangle,22.83443561,-13.41968437,1,0,0,22.83443561,-13.41968437,1,0,0,0,14,14,23,1,,,,,,,,
,,,,,,,,,,,,,FF,,,,,,,,1.0216,,,,,,,,,,,,,,,,,,,,,,6100a1f6c5c81614e604da15,61036d9296564cde52710f75,2021-07-29_21h11.39.915,Simcolourproject_2stim_asymm_v5,2020.2.10,Linux x86_64,60,61025ae37ef11b136ea224fe,,,,,,,,,198,-52.30765535,-78.03399198,1,0,0,response5disk,,3,-2.655555002,-7.926471399,1,0,0,rectangle,-2.655555002,-7.926471399,1,0,0,-2.655555002,-7.926471399,1,0,0,0,15,15,146,1,,,,,,,,
,,,,,,,,,,,,,FF,,,,,,,,1.4876,,,,,,,,,,,,,,,,,,,,,,6100a1f6c5c81614e604da15,61036d9296564cde52710f75,2021-07-29_21h11.39.915,Simcolourproject_2stim_asymm_v5,2020.2.10,Linux x86_64,60,61025ae37ef11b136ea224fe,,,,,,,,,4109,44.83179922,61.88617613,1,0,0,response1disk,,7,29.74229704,8.493011267,1,0,0,rectangle,29.74229704,8.493011267,1,0,0,29.74229704,8.493011267,1,0,0,0,16,16,66,1,,,,,,,,
,,,,,,,,,,,,,FF,,,,,,,,2.1169,,,,,,,,,,,,,,,,,,,,,,6100a1f6c5c81614e604da15,61036d9296564cde52710f75,2021-07-29_21h11.39.915,Simcolourproject_2stim_asymm_v5,2020.2.10,Linux x86_64,60,61025ae37ef11b136ea224fe,,,,,,,,,2772,-41.04149307,-78.10108182,1,0,0,response5disk,,3,-20.62030136,5.184026843,1,0,0,rectangle,-20.62030136,5.184026843,1,0,0,-20.62030136,5.184026843,1,0,0,0,17,17,122,1,,,,,,,,
,,,,,,,,,,,,,FF,,,,,,,,1.2358,,,,,,,,,,,,,,,,,,,,,,6100a1f6c5c81614e604da15,61036d9296564cde52710f75,2021-07-29_21h11.39.915,Simcolourproject_2stim_asymm_v5,2020.2.10,Linux x86_64,60,61025ae37ef11b136ea224fe,,,,,,,,,1592,-24.05926626,-85.21577919,1,0,0,response5disk,,3,25.40035362,-1.179108017,1,0,0,rectangle,25.40035362,-1.179108017,1,0,0,25.40035362,-1.179108017,1,0,0,0,18,18,53,1,,,,,,,,
,,,,,,,,,,,,,FF,,,,,,,,2.0178,,,,,,,,,,,,,,,,,,,,,,6100a1f6c5c81614e604da15,61036d9296564cde52710f75,2021-07-29_21h11.39.915,Simcolourproject_2stim_asymm_v5,2020.2.10,Linux x86_64,60,61025ae37ef11b136ea224fe,,,,,,,,,4211,44.18712148,-64.08950935,1,0,0,response3disk,,4,19.84371291,-11.30928395,1,0,0,rectangle,19.84371291,-11.30928395,1,0,0,19.84371291,-11.30928395,1,0,0,0,19,19,79,1,,,,,,,,
,,,,,,,,,,,,,FF,,,,,,,,1.8333,,,,,,,,,,,,,,,,,,,,,,6100a1f6c5c81614e604da15,61036d9296564cde52710f75,2021-07-29_21h11.39.915,Simcolourproject_2stim_asymm_v5,2020.2.10,Linux x86_64,60,61025ae37ef11b136ea224fe,,,,,,,,,2182,79.18770794,37.0407656,1,0,0,response1disk,,6,31.08770722,6.113616701,1,0,0,rectangle,31.08770722,6.113616701,1,0,0,31.08770722,6.113616701,1,0,0,0,20,20,113,1,,,,,,,,
,,,,,,,,,,,,,FF,,,,,,,,1.1502,,,,,,,,,,,,,,,,,,,,,,6100a1f6c5c81614e604da15,61036d9296564cde52710f75,2021-07-29_21h11.39.915,Simcolourproject_2stim_asymm_v5,2020.2.10,Linux x86_64,60,61025ae37ef11b136ea224fe,,,,,,,,,3101,-31.04447144,-83.49165807,1,0,0,response5disk,,3,-12.15946139,-8.398883516,1,0,0,rectangle,73.1681766,33.10682999,1,0,0,26.52833215,6.689251475,1,0,0,0,21,21,101,1,,response1disk_3,TRUE,6,6,"[227,4,0,40,67,31,219,294,13,22,200,107,78,291,109,309,62,89,308,258]",1.8331,rectangle
,,,,,,,,,,,,,FF,,,,,,,,1.1835,,,,,,,,,,,,,,,,,,,,,,6100a1f6c5c81614e604da15,61036d9296564cde52710f75,2021-07-29_21h11.39.915,Simcolourproject_2stim_asymm_v5,2020.2.10,Linux x86_64,60,61025ae37ef11b136ea224fe,,,,,,,,,1200,-66.7726458,-136.1596276,1,0,0,response5disk,,3,15.34092964,5.10673192,1,0,0,rectangle,15.34092964,5.10673192,1,0,0,15.34092964,5.10673192,1,0,0,0,22,22,153,1,,,,,,,,
,,,,,,,,,,,,,FF,,,,,,,,1.171,,,,,,,,,,,,,,,,,,,,,,6100a1f6c5c81614e604da15,61036d9296564cde52710f75,2021-07-29_21h11.39.915,Simcolourproject_2stim_asymm_v5,2020.2.10,Linux x86_64,60,61025ae37ef11b136ea224fe,,,,,,,,,127,57.56368418,-48.17871809,1,0,0,response3disk,,5,11.05147645,-11.48164723,1,0,0,rectangle,11.05147645,-11.48164723,1,0,0,11.05147645,-11.48164723,1,0,0,0,23,23,123,1,,,,,,,,
,,,,,,,,,,,,,FF,,,,,,,,1.8225,,,,,,,,,,,,,,,,,,,,,,6100a1f6c5c81614e604da15,61036d9296564cde52710f75,2021-07-29_21h11.39.915,Simcolourproject_2stim_asymm_v5,2020.2.10,Linux x86_64,60,61025ae37ef11b136ea224fe,,,,,,,,,1737,-28.9423718,-119.2218832,1,0,0,response5disk,,3,-5.947303098,-0.146881439,1,0,0,rectangle,-5.947303098,-0.146881439,1,0,0,-5.947303098,-0.146881439,1,0,0,0,24,24,34,1,,,,,,,,
,,,,,,,,,,,,,FF,,,,,,,,1.0718,,,,,,,,,,,,,,,,,,,,,,6100a1f6c5c81614e604da15,61036d9296564cde52710f75,2021-07-29_21h11.39.915,Simcolourproject_2stim_asymm_v5,2020.2.10,Linux x86_64,60,61025ae37ef11b136ea224fe,,,,,,,,,1490,57.45421152,-83.16060338,1,0,0,response3disk,,4,9.018175641,10.11303082,1,0,0,rectangle,9.018175641,10.11303082,1,0,0,9.018175641,10.11303082,1,0,0,0,25,25,50,1,,,,,,,,
,,,,,,,,,,,,,FF,,,,,,,,1.3452,,,,,,,,,,,,,,,,,,,,,,6100a1f6c5c81614e604da15,61036d9296564cde52710f75,2021-07-29_21h11.39.915,Simcolourproject_2stim_asymm_v5,2020.2.10,Linux x86_64,60,61025ae37ef11b136ea224fe,,,,,,,,,987,-42.40091692,-87.08086711,1,0,0,response5disk,,3,19.44683791,4.983001449,1,0,0,rectangle,19.44683791,4.983001449,1,0,0,19.44683791,4.983001449,1,0,0,0,26,26,112,1,,,,,,,,
,,,,,,,,,,,,,FF,,,,,,,,1.5442,,,,,,,,,,,,,,,,,,,,,,6100a1f6c5c81614e604da15,61036d9296564cde52710f75,2021-07-29_21h11.39.915,Simcolourproject_2stim_asymm_v5,2020.2.10,Linux x86_64,60,61025ae37ef11b136ea224fe,,,,,,,,,2778,-82.69974565,-26.37588574,1,0,0,response5disk,,2,-25.92186394,-5.478912769,1,0,0,rectangle,-25.92186394,-5.478912769,1,0,0,-25.92186394,-5.478912769,1,0,0,0,27,27,155,1,,,,,,,,
,,,,,,,,,,,,,FF,,,,,,,,1.1508,,,,,,,,,,,,,,,,,,,,,,6100a1f6c5c81614e604da15,61036d9296564cde52710f75,2021-07-29_21h11.39.915,Simcolourproject_2stim_asymm_v5,2020.2.10,Linux x86_64,60,61025ae37ef11b136ea224fe,,,,,,,,,1438,22.02803912,-49.71890366,1,0,0,response3disk,,4,-3.501013999,-0.404840428,1,0,0,rectangle,-3.501013999,-0.404840428,1,0,0,-3.501013999,-0.404840428,1,0,0,0,28,28,121,1,,,,,,,,
,,,,,,,,,,,,,FF,,,,,,,,1.0995,,,,,,,,,,,,,,,,,,,,,,6100a1f6c5c81614e604da15,61036d9296564cde52710f75,2021-07-29_21h11.39.915,Simcolourproject_2stim_asymm_v5,2020.2.10,Linux x86_64,60,61025ae37ef11b136ea224fe,,,,,,,,,2794,-28.16361202,-56.29600337,1,0,0,response5disk,,3,1.351378652,-11.47490895,1,0,0,rectangle,1.351378652,-11.47490895,1,0,0,1.351378652,-11.47490895,1,0,0,0,29,29,32,1,,,,,,,,
,,,,,,,,,,,,,FF,,,,,,,,1.1351,,,,,,,,,,,,,,,,,,,,,,6100a1f6c5c81614e604da15,61036d9296564cde52710f75,2021-07-29_21h11.39.915,Simcolourproject_2stim_asymm_v5,2020.2.10,Linux x86_64,60,61025ae37ef11b136ea224fe,,,,,,,,,862,-28.36615109,-54.36709709,1,0,0,response5disk,,3,14.24898627,6.948724135,1,0,0,rectangle,-59.42083905,-32.3989327,1,0,0,13.25538274,-4.213043609,1,0,0,0,30,30,40,1,,response5disk_3,TRUE,2,2,"[227,4,0,40,67,31,219,294,13,22,200,107,78,291,109,309,62,89,308,258]",2.283,rectangle
,,,,,,,,,,,,,FF,,,,,,,,1.35,,,,,,,,,,,,,,,,,,,,,,6100a1f6c5c81614e604da15,61036d9296564cde52710f75,2021-07-29_21h11.39.915,Simcolourproject_2stim_asymm_v5,2020.2.10,Linux x86_64,60,61025ae37ef11b136ea224fe,,,,,,,,,1154,61.14249282,-32.28633504,1,0,0,response3disk,,5,25.16719932,-9.864264397,1,0,0,rectangle,25.16719932,-9.864264397,1,0,0,25.16719932,-9.864264397,1,0,0,0,31,31,14,1,,,,,,,,
,,,,,,,,,,,,,FF,,,,,,,,0.8831,,,,,,,,,,,,,,,,,,,,,,6100a1f6c5c81614e604da15,61036d9296564cde52710f75,2021-07-29_21h11.39.915,Simcolourproject_2stim_asymm_v5,2020.2.10,Linux x86_64,60,61025ae37ef11b136ea224fe,,,,,,,,,486,46.25274651,-29.3366768,1,0,0,response3disk,,5,23.32003132,-6.012457699,1,0,0,rectangle,23.32003132,-6.012457699,1,0,0,23.32003132,-6.012457699,1,0,0,0,32,32,135,1,,,,,,,,
,,,,,,,,,,,,,FF,,,,,,,,0.8366,,,,,,,,,,,,,,,,,,,,,,6100a1f6c5c81614e604da15,61036d9296564cde52710f75,2021-07-29_21h11.39.915,Simcolourproject_2stim_asymm_v5,2020.2.10,Linux x86_64,60,61025ae37ef11b136ea224fe,,,,,,,,,1954,-21.8647838,-53.81548575,1,0,0,response5disk,,3,11.59278505,1.6767514,1,0,0,rectangle,11.59278505,1.6767514,1,0,0,11.59278505,1.6767514,1,0,0,0,33,33,38,1,,,,,,,,
,,,,,,,,,,,,,FF,,,,,,,,1.733,,,,,,,,,,,,,,,,,,,,,,6100a1f6c5c81614e604da15,61036d9296564cde52710f75,2021-07-29_21h11.39.915,Simcolourproject_2stim_asymm_v5,2020.2.10,Linux x86_64,60,61025ae37ef11b136ea224fe,,,,,,,,,557,-55.03324133,-55.39654047,1,0,0,response5disk,,3,3.285948993,-7.875250695,1,0,0,rectangle,3.285948993,-7.875250695,1,0,0,3.285948993,-7.875250695,1,0,0,0,34,34,108,1,,,,,,,,
,,,,,,,,,,,,,FF,,,,,,,,2.0494,,,,,,,,,,,,,,,,,,,,,,6100a1f6c5c81614e604da15,61036d9296564cde52710f75,2021-07-29_21h11.39.915,Simcolourproject_2stim_asymm_v5,2020.2.10,Linux x86_64,60,61025ae37ef11b136ea224fe,,,,,,,,,2832,-81.73114212,22.90602418,1,0,0,response7disk,,1,-3.855945645,0.264251379,1,0,0,rectangle,-3.855945645,0.264251379,1,0,0,-3.855945645,0.264251379,1,0,0,0,35,35,56,1,,,,,,,,
,,,,,,,,,,,,,FF,,,,,,,,1.2679,,,,,,,,,,,,,,,,,,,,,,6100a1f6c5c81614e604da15,61036d9296564cde52710f75,2021-07-29_21h11.39.915,Simcolourproject_2stim_asymm_v5,2020.2.10,Linux x86_64,60,61025ae37ef11b136ea224fe,,,,,,,,,2567,55.97091072,27.14596565,1,0,0,response1disk,,6,29.95259978,-0.562457618,1,0,0,rectangle,29.95259978,-0.562457618,1,0,0,29.95259978,-0.562457618,1,0,0,0,36,36,24,1,,,,,,,,
,,,,,,,,,,,,,FF,,,,,,,,1.4563,,,,,,,,,,,,,,,,,,,,,,6100a1f6c5c81614e604da15,61036d9296564cde52710f75,2021-07-29_21h11.39.915,Simcolourproject_2stim_asymm_v5,2020.2.10,Linux x86_64,60,61025ae37ef11b136ea224fe,,,,,,,,,1433,22.67745319,-69.36182388,1,0,0,response3disk,,4,-7.20970546,-9.12510423,1,0,0,rectangle,-7.20970546,-9.12510423,1,0,0,-7.20970546,-9.12510423,1,0,0,0,37,37,129,1,,,,,,,,
,,,,,,,,,,,,,FF,,,,,,,,1.2835,,,,,,,,,,,,,,,,,,,,,,6100a1f6c5c81614e604da15,61036d9296564cde52710f75,2021-07-29_21h11.39.915,Simcolourproject_2stim_asymm_v5,2020.2.10,Linux x86_64,60,61025ae37ef11b136ea224fe,,,,,,,,,903,-34.26297735,-108.1215413,1,0,0,response5disk,,3,14.23106634,-12.22681326,1,0,0,rectangle,14.23106634,-12.22681326,1,0,0,14.23106634,-12.22681326,1,0,0,0,38,38,65,1,,,,,,,,
,,,,,,,,,,,,,FF,,,,,,,,1.5092,,,,,,,,,,,,,,,,,,,,,,6100a1f6c5c81614e604da15,61036d9296564cde52710f75,2021-07-29_21h11.39.915,Simcolourproject_2stim_asymm_v5,2020.2.10,Linux x86_64,60,61025ae37ef11b136ea224fe,,,,,,,,,1658,39.99683821,-74.51133567,1,0,0,response3disk,,4,8.458947117,-3.401617816,1,0,0,rectangle,-43.1362685,-102.6316486,1,0,0,25.95635949,-12.73428397,1,0,0,0,39,39,68,1,,response5disk_3,TRUE,3,3,"[227,4,0,40,67,31,219,294,13,22,200,107,78,291,109,309,62,89,308,258]",2.8671,rectangle
,,,,,,,,,,,,,FF,,,,,,,,1.1762,,,,,,,,,,,,,,,,,,,,,,6100a1f6c5c81614e604da15,61036d9296564cde52710f75,2021-07-29_21h11.39.915,Simcolourproject_2stim_asymm_v5,2020.2.10,Linux x86_64,60,61025ae37ef11b136ea224fe,,,,,,,,,626,91.02442686,-50.89820056,1,0,0,response3disk,,5,30.3402951,-9.593072986,1,0,0,rectangle,30.3402951,-9.593072986,1,0,0,30.3402951,-9.593072986,1,0,0,0,40,40,61,1,,,,,,,,
,,,,,,,,,,,,,FF,,,,,,,,0.9363,,,,,,,,,,,,,,,,,,,,,,6100a1f6c5c81614e604da15,61036d9296564cde52710f75,2021-07-29_21h11.39.915,Simcolourproject_2stim_asymm_v5,2020.2.10,Linux x86_64,60,61025ae37ef11b136ea224fe,,,,,,,,,266,-57.4841691,-72.2864333,1,0,0,response5disk,,3,-33.99539922,-6.962213572,1,0,0,rectangle,-33.99539922,-6.962213572,1,0,0,-33.99539922,-6.962213572,1,0,0,0,41,41,70,1,,,,,,,,
,,,,,,,,,,,,,FF,,,,,,,,1.1347,,,,,,,,,,,,,,,,,,,,,,6100a1f6c5c81614e604da15,61036d9296564cde52710f75,2021-07-29_21h11.39.915,Simcolourproject_2stim_asymm_v5,2020.2.10,Linux x86_64,60,61025ae37ef11b136ea224fe,,,,,,,,,2563,-33.63514531,-42.11704808,1,0,0,response5disk,,3,-4.612488625,1.279778738,1,0,0,rectangle,-4.612488625,1.279778738,1,0,0,-4.612488625,1.279778738,1,0,0,0,42,42,11,1,,,,,,,,
,,,,,,,,,,,,,FF,,,,,,,,1.3815,,,,,,,,,,,,,,,,,,,,,,6100a1f6c5c81614e604da15,61036d9296564cde52710f75,2021-07-29_21h11.39.915,Simcolourproject_2stim_asymm_v5,2020.2.10,Linux x86_64,60,61025ae37ef11b136ea224fe,,,,,,,,,3132,91.80518859,-48.079597,1,0,0,response3disk,,5,0.492150123,-7.519635456,1,0,0,rectangle,0.492150123,-7.519635456,1,0,0,0.492150123,-7.519635456,1,0,0,0,43,43,91,1,,,,,,,,
,,,,,,,,,,,,,FF,,,,,,,,1.4243,,,,,,,,,,,,,,,,,,,,,,6100a1f6c5c81614e604da15,61036d9296564cde52710f75,2021-07-29_21h11.39.915,Simcolourproject_2stim_asymm_v5,2020.2.10,Linux x86_64,60,61025ae37ef11b136ea224fe,,,,,,,,,220,113.5749155,-33.50493858,1,0,0,response3disk,,5,9.916222529,-1.022565046,1,0,0,rectangle,9.916222529,-1.022565046,1,0,0,9.916222529,-1.022565046,1,0,0,0,44,44,127,1,,,,,,,,
,,,,,,,,,,,,,FF,,,,,,,,1.0838,,,,,,,,,,,,,,,,,,,,,,6100a1f6c5c81614e604da15,61036d9296564cde52710f75,2021-07-29_21h11.39.915,Simcolourproject_2stim_asymm_v5,2020.2.10,Linux x86_64,60,61025ae37ef11b136ea224fe,,,,,,,,,336,44.18267812,-72.13365009,1,0,0,response3disk,,4,12.10069522,-8.063092495,1,0,0,rectangle,12.10069522,-8.063092495,1,0,0,12.10069522,-8.063092495,1,0,0,0,45,45,107,1,,,,,,,,
,,,,,,,,,,,,,FF,,,,,,,,1.816,,,,,,,,,,,,,,,,,,,,,,6100a1f6c5c81614e604da15,61036d9296564cde52710f75,2021-07-29_21h11.39.915,Simcolourproject_2stim_asymm_v5,2020.2.10,Linux x86_64,60,61025ae37ef11b136ea224fe,,,,,,,,,4331,47.17095941,62.44030211,1,0,0,response1disk,,7,12.57642765,2.682171337,1,0,0,rectangle,12.57642765,2.682171337,1,0,0,12.57642765,2.682171337,1,0,0,0,46,46,149,1,,,,,,,,
,,,,,,,,,,,,,FF,,,,,,,,1.2265,,,,,,,,,,,,,,,,,,,,,,6100a1f6c5c81614e604da15,61036d9296564cde52710f75,2021-07-29_21h11.39.915,Simcolourproject_2stim_asymm_v5,2020.2.10,Linux x86_64,60,61025ae37ef11b136ea224fe,,,,,,,,,666,66.64649681,-34.82808313,1,0,0,response3disk,,5,0.138878634,-0.654645119,1,0,0,rectangle,0.138878634,-0.654645119,1,0,0,0.138878634,-0.654645119,1,0,0,0,47,47,41,1,,,,,,,,
,,,,,,,,,,,,,FF,,,,,,,,1.0239,,,,,,,,,,,,,,,,,,,,,,6100a1f6c5c81614e604da15,61036d9296564cde52710f75,2021-07-29_21h11.39.915,Simcolourproject_2stim_asymm_v5,2020.2.10,Linux x86_64,60,61025ae37ef11b136ea224fe,,,,,,,,,915,-34.22889532,-79.80313263,1,0,0,response5disk,,3,-15.43529152,-13.07832694,1,0,0,rectangle,-15.43529152,-13.07832694,1,0,0,-15.43529152,-13.07832694,1,0,0,0,48,48,4,1,,,,,,,,
,,,,,,,,,,,,,FF,,,,,,,,1.6837,,,,,,,,,,,,,,,,,,,,,,6100a1f6c5c81614e604da15,61036d9296564cde52710f75,2021-07-29_21h11.39.915,Simcolourproject_2stim_asymm_v5,2020.2.10,Linux x86_64,60,61025ae37ef11b136ea224fe,,,,,,,,,863,41.31734604,-67.48350354,1,0,0,response3disk,,4,0.453575904,-10.09600268,1,0,0,rectangle,0.453575904,-10.09600268,1,0,0,0.453575904,-10.09600268,1,0,0,0,49,49,29,1,,,,,,,,
,,,,,,,,,,,,,FF,,,,,,,,1.0983,,,,,,,,,,,,,,,,,,,,,,6100a1f6c5c81614e604da15,61036d9296564cde52710f75,2021-07-29_21h11.39.915,Simcolourproject_2stim_asymm_v5,2020.2.10,Linux x86_64,60,61025ae37ef11b136ea224fe,,,,,,,,,1061,-48.45946193,-80.6759842,1,0,0,response5disk,,3,-17.84476421,-12.12466482,1,0,0,rectangle,-17.84476421,-12.12466482,1,0,0,-17.84476421,-12.12466482,1,0,0,0,50,50,55,1,,,,,,,,
,,,,,,,,,,,,,FF,,,,,,,,0.9543,,,,,,,,,,,,,,,,,,,,,,6100a1f6c5c81614e604da15,61036d9296564cde52710f75,2021-07-29_21h11.39.915,Simcolourproject_2stim_asymm_v5,2020.2.10,Linux x86_64,60,61025ae37ef11b136ea224fe,,,,,,,,,3268,90.03507138,-60.1881421,1,0,0,response3disk,,5,10.1750116,1.228118581,1,0,0,rectangle,10.1750116,1.228118581,1,0,0,10.1750116,1.228118581,1,0,0,0,51,51,36,1,,,,,,,,
,,,,,,,,,,,,,FF,,,,,,,,1.024,,,,,,,,,,,,,,,,,,,,,,6100a1f6c5c81614e604da15,61036d9296564cde52710f75,2021-07-29_21h11.39.915,Simcolourproject_2stim_asymm_v5,2020.2.10,Linux x86_64,60,61025ae37ef11b136ea224fe,,,,,,,,,492,35.94576393,-62.88072026,1,0,0,response3disk,,4,4.160363069,-1.986822873,1,0,0,rectangle,4.160363069,-1.986822873,1,0,0,4.160363069,-1.986822873,1,0,0,0,52,52,0,1,,,,,,,,
,,,,,,,,,,,,,FF,,,,,,,,0.86,,,,,,,,,,,,,,,,,,,,,,6100a1f6c5c81614e604da15,61036d9296564cde52710f75,2021-07-29_21h11.39.915,Simcolourproject_2stim_asymm_v5,2020.2.10,Linux x86_64,60,61025ae37ef11b136ea224fe,,,,,,,,,2128,87.90655572,-36.79077847,1,0,0,response3disk,,5,10.17340027,0.792229903,1,0,0,rectangle,10.17340027,0.792229903,1,0,0,10.17340027,0.792229903,1,0,0,0,53,53,67,1,,,,,,,,
,,,,,,,,,,,,,FF,,,,,,,,0.9381,,,,,,,,,,,,,,,,,,,,,,6100a1f6c5c81614e604da15,61036d9296564cde52710f75,2021-07-29_21h11.39.915,Simcolourproject_2stim_asymm_v5,2020.2.10,Linux x86_64,60,61025ae37ef11b136ea224fe,,,,,,,,,4210,102.1036262,55.9772649,1,0,0,response1disk,,6,16.38018747,4.059124483,1,0,0,rectangle,16.38018747,4.059124483,1,0,0,16.38018747,4.059124483,1,0,0,0,54,54,104,1,,,,,,,,
,,,,,,,,,,,,,FF,,,,,,,,0.7493,,,,,,,,,,,,,,,,,,,,,,6100a1f6c5c81614e604da15,61036d9296564cde52710f75,2021-07-29_21h11.39.915,Simcolourproject_2stim_asymm_v5,2020.2.10,Linux x86_64,60,61025ae37ef11b136ea224fe,,,,,,,,,1636,74.87755162,45.20614658,1,0,0,response1disk,,6,8.7785272,2.431048286,1,0,0,rectangle,8.7785272,2.431048286,1,0,0,8.7785272,2.431048286,1,0,0,0,55,55,5,1,,,,,,,,
,,,,,,,,,,,,,FF,,,,,,,,1.0833,,,,,,,,,,,,,,,,,,,,,,6100a1f6c5c81614e604da15,61036d9296564cde52710f75,2021-07-29_21h11.39.915,Simcolourproject_2stim_asymm_v5,2020.2.10,Linux x86_64,60,61025ae37ef11b136ea224fe,,,,,,,,,3217,-26.88040888,-114.9975179,1,0,0,response5disk,,3,10.33541199,-13.87149102,1,0,0,rectangle,10.33541199,-13.87149102,1,0,0,10.33541199,-13.87149102,1,0,0,0,56,56,134,1,,,,,,,,
,,,,,,,,,,,,,FF,,,,,,,,0.694,,,,,,,,,,,,,,,,,,,,,,6100a1f6c5c81614e604da15,61036d9296564cde52710f75,2021-07-29_21h11.39.915,Simcolourproject_2stim_asymm_v5,2020.2.10,Linux x86_64,60,61025ae37ef11b136ea224fe,,,,,,,,,2958,74.43370396,-40.3122629,1,0,0,response3disk,,5,9.888634638,-3.903961574,1,0,0,rectangle,9.888634638,-3.903961574,1,0,0,9.888634638,-3.903961574,1,0,0,0,57,57,136,1,,,,,,,,
,,,,,,,,,,,,,FF,,,,,,,,1.686,,,,,,,,,,,,,,,,,,,,,,6100a1f6c5c81614e604da15,61036d9296564cde52710f75,2021-07-29_21h11.39.915,Simcolourproject_2stim_asymm_v5,2020.2.10,Linux x86_64,60,61025ae37ef11b136ea224fe,,,,,,,,,1036,-24.96380729,-86.99239055,1,0,0,response5disk,,3,10.21924988,-11.30625661,1,0,0,rectangle,10.21924988,-11.30625661,1,0,0,10.21924988,-11.30625661,1,0,0,0,58,58,8,1,,,,,,,,
,,,,,,,,,,,,,FF,,,,,,,,1.0163,,,,,,,,,,,,,,,,,,,,,,6100a1f6c5c81614e604da15,61036d9296564cde52710f75,2021-07-29_21h11.39.915,Simcolourproject_2stim_asymm_v5,2020.2.10,Linux x86_64,60,61025ae37ef11b136ea224fe,,,,,,,,,4089,-26.27703973,-73.80762472,1,0,0,response5disk,,3,3.932579862,-9.095856182,1,0,0,rectangle,3.932579862,-9.095856182,1,0,0,3.932579862,-9.095856182,1,0,0,0,59,59,28,1,,,,,,,,
,,,,,,,,,,,,,FF,,,,,,,,0.9595,,,,,,,,,,,,,,,,,,,,,,6100a1f6c5c81614e604da15,61036d9296564cde52710f75,2021-07-29_21h11.39.915,Simcolourproject_2stim_asymm_v5,2020.2.10,Linux x86_64,60,61025ae37ef11b136ea224fe,,,,,,,,,301,116.2122202,-38.85537811,1,0,0,response3disk,,5,-8.257850007,-5.178522139,1,0,0,rectangle,-8.257850007,-5.178522139,1,0,0,-8.257850007,-5.178522139,1,0,0,0,60,60,30,1,,,,,,,,
,,,,,,,,,,,,,FF,,,,,,,,0.6167,,,,,,,,,,,,,,,,,,,,,,6100a1f6c5c81614e604da15,61036d9296564cde52710f75,2021-07-29_21h11.39.915,Simcolourproject_2stim_asymm_v5,2020.2.10,Linux x86_64,60,61025ae37ef11b136ea224fe,,,,,,,,,4322,63.2158327,-41.67901096,1,0,0,response3disk,,5,16.30689645,2.185979923,1,0,0,rectangle,34.84273657,-81.58116,1,0,0,-18.51873883,9.382220265,1,0,0,0,61,61,44,1,,response3disk_3,TRUE,4,4,"[227,4,0,40,67,31,219,294,13,22,200,107,78,291,109,309,62,89,308,258]",2.4947,rectangle
,,,,,,,,,,,,,FF,,,,,,,,0.8382,,,,,,,,,,,,,,,,,,,,,,6100a1f6c5c81614e604da15,61036d9296564cde52710f75,2021-07-29_21h11.39.915,Simcolourproject_2stim_asymm_v5,2020.2.10,Linux x86_64,60,61025ae37ef11b136ea224fe,,,,,,,,,1231,-40.48783096,-75.67588647,1,0,0,response5disk,,3,-19.53162947,-9.862555412,1,0,0,rectangle,-19.53162947,-9.862555412,1,0,0,-19.53162947,-9.862555412,1,0,0,0,62,62,3,1,,,,,,,,
,,,,,,,,,,,,,FF,,,,,,,,0.9879,,,,,,,,,,,,,,,,,,,,,,6100a1f6c5c81614e604da15,61036d9296564cde52710f75,2021-07-29_21h11.39.915,Simcolourproject_2stim_asymm_v5,2020.2.10,Linux x86_64,60,61025ae37ef11b136ea224fe,,,,,,,,,1447,-71.02249938,22.25956421,1,0,0,response7disk,,1,-12.56073093,-0.235553316,1,0,0,rectangle,-12.56073093,-0.235553316,1,0,0,-12.56073093,-0.235553316,1,0,0,0,63,63,159,1,,,,,,,,
,,,,,,,,,,,,,FF,,,,,,,,2.3211,,,,,,,,,,,,,,,,,,,,,,6100a1f6c5c81614e604da15,61036d9296564cde52710f75,2021-07-29_21h11.39.915,Simcolourproject_2stim_asymm_v5,2020.2.10,Linux x86_64,60,61025ae37ef11b136ea224fe,,,,,,,,,1801,105.8332161,-33.37481162,1,0,0,response3disk,,5,26.61910364,-7.070026074,1,0,0,rectangle,26.61910364,-7.070026074,1,0,0,26.61910364,-7.070026074,1,0,0,0,64,64,51,1,,,,,,,,
,,,,,,,,,,,,,FF,,,,,,,,1.0585,,,,,,,,,,,,,,,,,,,,,,6100a1f6c5c81614e604da15,61036d9296564cde52710f75,2021-07-29_21h11.39.915,Simcolourproject_2stim_asymm_v5,2020.2.10,Linux x86_64,60,61025ae37ef11b136ea224fe,,,,,,,,,1267,-38.16849498,-60.98443117,1,0,0,response5disk,,3,-10.42259613,-2.737311166,1,0,0,rectangle,-10.42259613,-2.737311166,1,0,0,-10.42259613,-2.737311166,1,0,0,0,65,65,20,1,,,,,,,,
,,,,,,,,,,,,,FF,,,,,,,,0.9836,,,,,,,,,,,,,,,,,,,,,,6100a1f6c5c81614e604da15,61036d9296564cde52710f75,2021-07-29_21h11.39.915,Simcolourproject_2stim_asymm_v5,2020.2.10,Linux x86_64,60,61025ae37ef11b136ea224fe,,,,,,,,,1185,91.65587218,-55.0693432,1,0,0,response3disk,,5,24.2963497,-9.793561271,1,0,0,rectangle,74.22637974,90.10499979,1,0,0,34.1776975,13.0064879,1,0,0,0,66,66,84,1,,response1disk_3,TRUE,7,7,"[227,4,0,40,67,31,219,294,13,22,200,107,78,291,109,309,62,89,308,258]",1.8164,rectangle
,,,,,,,,,,,,,FF,,,,,,,,1.0168,,,,,,,,,,,,,,,,,,,,,,6100a1f6c5c81614e604da15,61036d9296564cde52710f75,2021-07-29_21h11.39.915,Simcolourproject_2stim_asymm_v5,2020.2.10,Linux x86_64,60,61025ae37ef11b136ea224fe,,,,,,,,,57,-55.99100502,-34.17505577,1,0,0,response5disk,,2,-15.75589699,4.285247533,1,0,0,rectangle,-15.75589699,4.285247533,1,0,0,-15.75589699,4.285247533,1,0,0,0,67,67,69,1,,,,,,,,
,,,,,,,,,,,,,FF,,,,,,,,1.2995,,,,,,,,,,,,,,,,,,,,,,6100a1f6c5c81614e604da15,61036d9296564cde52710f75,2021-07-29_21h11.39.915,Simcolourproject_2stim_asymm_v5,2020.2.10,Linux x86_64,60,61025ae37ef11b136ea224fe,,,,,,,,,2169,-45.1108779,-35.02783899,1,0,0,response5disk,,2,-11.92557467,-7.827887413,1,0,0,rectangle,-11.92557467,-7.827887413,1,0,0,-11.92557467,-7.827887413,1,0,0,0,68,68,35,1,,,,,,,,
,,,,,,,,,,,,,FF,,,,,,,,1.182,,,,,,,,,,,,,,,,,,,,,,6100a1f6c5c81614e604da15,61036d9296564cde52710f75,2021-07-29_21h11.39.915,Simcolourproject_2stim_asymm_v5,2020.2.10,Linux x86_64,60,61025ae37ef11b136ea224fe,,,,,,,,,3992,-55.45155188,-23.42197944,1,0,0,response5disk,,2,-11.11966646,0.239690832,1,0,0,rectangle,-11.11966646,0.239690832,1,0,0,-11.11966646,0.239690832,1,0,0,0,69,69,58,1,,,,,,,,
,,,,,,,,,,,,,FF,,,,,,,,1.2344,,,,,,,,,,,,,,,,,,,,,,6100a1f6c5c81614e604da15,61036d9296564cde52710f75,2021-07-29_21h11.39.915,Simcolourproject_2stim_asymm_v5,2020.2.10,Linux x86_64,60,61025ae37ef11b136ea224fe,,,,,,,,,804,-69.98949155,32.64503799,1,0,0,response7disk,,1,-25.515028,-0.204254487,1,0,0,rectangle,-25.515028,-0.204254487,1,0,0,-25.515028,-0.204254487,1,0,0,0,70,70,154,1,,,,,,,,
,,,,,,,,,,,,,FF,,,,,,,,2.2192,,,,,,,,,,,,,,,,,,,,,,6100a1f6c5c81614e604da15,61036d9296564cde52710f75,2021-07-29_21h11.39.915,Simcolourproject_2stim_asymm_v5,2020.2.10,Linux x86_64,60,61025ae37ef11b136ea224fe,,,,,,,,,1123,49.16866452,-47.42603253,1,0,0,response3disk,,5,9.254601426,-10.33623706,1,0,0,rectangle,9.254601426,-10.33623706,1,0,0,9.254601426,-10.33623706,1,0,0,0,71,71,83,1,,,,,,,,
,,,,,,,,,,,,,FF,,,,,,,,1.2673,,,,,,,,,,,,,,,,,,,,,,6100a1f6c5c81614e604da15,61036d9296564cde52710f75,2021-07-29_21h11.39.915,Simcolourproject_2stim_asymm_v5,2020.2.10,Linux x86_64,60,61025ae37ef11b136ea224fe,,,,,,,,,2556,27.3442013,-77.28452907,1,0,0,response3disk,,4,-8.471228917,2.855755324,1,0,0,rectangle,-8.471228917,2.855755324,1,0,0,-8.471228917,2.855755324,1,0,0,0,72,72,59,1,,,,,,,,
,,,,,,,,,,,,,FF,,,,,,,,0.9334,,,,,,,,,,,,,,,,,,,,,,6100a1f6c5c81614e604da15,61036d9296564cde52710f75,2021-07-29_21h11.39.915,Simcolourproject_2stim_asymm_v5,2020.2.10,Linux x86_64,60,61025ae37ef11b136ea224fe,,,,,,,,,1683,-37.81952037,-79.04405058,1,0,0,response5disk,,3,-12.54642429,1.95004242,1,0,0,rectangle,-12.54642429,1.95004242,1,0,0,-12.54642429,1.95004242,1,0,0,0,73,73,144,1,,,,,,,,
,,,,,,,,,,,,,FF,,,,,,,,0.9705,,,,,,,,,,,,,,,,,,,,,,6100a1f6c5c81614e604da15,61036d9296564cde52710f75,2021-07-29_21h11.39.915,Simcolourproject_2stim_asymm_v5,2020.2.10,Linux x86_64,60,61025ae37ef11b136ea224fe,,,,,,,,,2803,66.76700463,-49.05322982,1,0,0,response3disk,,5,13.48365422,-1.263141222,1,0,0,rectangle,13.48365422,-1.263141222,1,0,0,13.48365422,-1.263141222,1,0,0,0,74,74,22,1,,,,,,,,
,,,,,,,,,,,,,FF,,,,,,,,0.9656,,,,,,,,,,,,,,,,,,,,,,6100a1f6c5c81614e604da15,61036d9296564cde52710f75,2021-07-29_21h11.39.915,Simcolourproject_2stim_asymm_v5,2020.2.10,Linux x86_64,60,61025ae37ef11b136ea224fe,,,,,,,,,832,111.2067514,-53.76143302,1,0,0,response3disk,,5,19.70196486,-8.982184306,1,0,0,rectangle,19.70196486,-8.982184306,1,0,0,19.70196486,-8.982184306,1,0,0,0,75,75,120,1,,,,,,,,
,,,,,,,,,,,,,FF,,,,,,,,1.4831,,,,,,,,,,,,,,,,,,,,,,6100a1f6c5c81614e604da15,61036d9296564cde52710f75,2021-07-29_21h11.39.915,Simcolourproject_2stim_asymm_v5,2020.2.10,Linux x86_64,60,61025ae37ef11b136ea224fe,,,,,,,,,79,-85.40892538,56.39291432,1,0,0,response7disk,,1,9.666710807,5.643060053,1,0,0,rectangle,9.666710807,5.643060053,1,0,0,9.666710807,5.643060053,1,0,0,0,76,76,102,1,,,,,,,,
,,,,,,,,,,,,,FF,,,,,,,,3.3226,,,,,,,,,,,,,,,,,,,,,,6100a1f6c5c81614e604da15,61036d9296564cde52710f75,2021-07-29_21h11.39.915,Simcolourproject_2stim_asymm_v5,2020.2.10,Linux x86_64,60,61025ae37ef11b136ea224fe,,,,,,,,,1694,23.15425984,-45.27105203,1,0,0,response3disk,,4,-3.583289391,-1.488434194,1,0,0,rectangle,-85.71800741,48.51149331,1,0,0,17.9057246,-7.099274121,1,0,0,0,77,77,72,1,,response7disk_3,TRUE,1,1,"[227,4,0,40,67,31,219,294,13,22,200,107,78,291,109,309,62,89,308,258]",2.0834,rectangle
,,,,,,,,,,,,,FF,,,,,,,,3.7264,,,,,,,,,,,,,,,,,,,,,,6100a1f6c5c81614e604da15,61036d9296564cde52710f75,2021-07-29_21h11.39.915,Simcolourproject_2stim_asymm_v5,2020.2.10,Linux x86_64,60,61025ae37ef11b136ea224fe,,,,,,,,,1997,61.71817643,29.16830454,1,0,0,response1disk,,6,6.446300603,-5.018317059,1,0,0,rectangle,6.446300603,-5.018317059,1,0,0,6.446300603,-5.018317059,1,0,0,0,78,78,76,1,,,,,,,,
,,,,,,,,,,,,,FF,,,,,,,,1.7603,,,,,,,,,,,,,,,,,,,,,,6100a1f6c5c81614e604da15,61036d9296564cde52710f75,2021-07-29_21h11.39.915,Simcolourproject_2stim_asymm_v5,2020.2.10,Linux x86_64,60,61025ae37ef11b136ea224fe,,,,,,,,,505,-22.98968616,-93.78130666,1,0,0,response5disk,,3,25.87520714,-4.770221352,1,0,0,rectangle,25.87520714,-4.770221352,1,0,0,25.87520714,-4.770221352,1,0,0,0,79,79,82,1,,,,,,,,
,,,,,,,,,,,,,FF,,,,,,,,0.8497,,,,,,,,,,,,,,,,,,,,,,6100a1f6c5c81614e604da15,61036d9296564cde52710f75,2021-07-29_21h11.39.915,Simcolourproject_2stim_asymm_v5,2020.2.10,Linux x86_64,60,61025ae37ef11b136ea224fe,,,,,,,,,567,-64.03495045,-80.23824005,1,0,0,response5disk,,3,-10.83182465,-14.89707697,1,0,0,rectangle,-10.83182465,-14.89707697,1,0,0,-10.83182465,-14.89707697,1,0,0,0,80,80,142,1,,,,,,,,
,,,,,,,,,,,,,FF,,,,,,,,1.3973,,,,,,,,,,,,,,,,,,,,,,6100a1f6c5c81614e604da15,61036d9296564cde52710f75,2021-07-29_21h11.39.915,Simcolourproject_2stim_asymm_v5,2020.2.10,Linux x86_64,60,61025ae37ef11b136ea224fe,,,,,,,,,101,-74.44681584,40.01315334,1,0,0,response7disk,,1,5.908898251,2.083001406,1,0,0,rectangle,5.908898251,2.083001406,1,0,0,5.908898251,2.083001406,1,0,0,0,81,81,10,1,,,,,,,,
,,,,,,,,,,,,,FF,,,,,,,,1.0318,,,,,,,,,,,,,,,,,,,,,,6100a1f6c5c81614e604da15,61036d9296564cde52710f75,2021-07-29_21h11.39.915,Simcolourproject_2stim_asymm_v5,2020.2.10,Linux x86_64,60,61025ae37ef11b136ea224fe,,,,,,,,,917,111.5685678,-64.2946363,1,0,0,response3disk,,5,13.42628118,-6.096686216,1,0,0,rectangle,13.42628118,-6.096686216,1,0,0,13.42628118,-6.096686216,1,0,0,0,82,82,139,1,,,,,,,,
,,,,,,,,,,,,,FF,,,,,,,,2.007,,,,,,,,,,,,,,,,,,,,,,6100a1f6c5c81614e604da15,61036d9296564cde52710f75,2021-07-29_21h11.39.915,Simcolourproject_2stim_asymm_v5,2020.2.10,Linux x86_64,60,61025ae37ef11b136ea224fe,,,,,,,,,189,-68.44334895,-40.8973215,1,0,0,response5disk,,2,-4.869666363,-7.290680374,1,0,0,rectangle,-4.869666363,-7.290680374,1,0,0,-4.869666363,-7.290680374,1,0,0,0,83,83,111,1,,,,,,,,
,,,,,,,,,,,,,FF,,,,,,,,0.9165,,,,,,,,,,,,,,,,,,,,,,6100a1f6c5c81614e604da15,61036d9296564cde52710f75,2021-07-29_21h11.39.915,Simcolourproject_2stim_asymm_v5,2020.2.10,Linux x86_64,60,61025ae37ef11b136ea224fe,,,,,,,,,1894,-79.57914013,35.08900776,1,0,0,response7disk,,1,-10.22147308,-3.857135401,1,0,0,rectangle,-10.22147308,-3.857135401,1,0,0,-10.22147308,-3.857135401,1,0,0,0,84,84,98,1,,,,,,,,
,,,,,,,,,,,,,FF,,,,,,,,1.409,,,,,,,,,,,,,,,,,,,,,,6100a1f6c5c81614e604da15,61036d9296564cde52710f75,2021-07-29_21h11.39.915,Simcolourproject_2stim_asymm_v5,2020.2.10,Linux x86_64,60,61025ae37ef11b136ea224fe,,,,,,,,,2922,61.1257936,-35.85405971,1,0,0,response3disk,,5,23.20875202,-7.029059276,1,0,0,rectangle,23.20875202,-7.029059276,1,0,0,23.20875202,-7.029059276,1,0,0,0,85,85,49,1,,,,,,,,
,,,,,,,,,,,,,FF,,,,,,,,1.0507,,,,,,,,,,,,,,,,,,,,,,6100a1f6c5c81614e604da15,61036d9296564cde52710f75,2021-07-29_21h11.39.915,Simcolourproject_2stim_asymm_v5,2020.2.10,Linux x86_64,60,61025ae37ef11b136ea224fe,,,,,,,,,3935,-89.86854458,45.81190831,1,0,0,response7disk,,1,-32.24676638,8.07167337,1,0,0,rectangle,-32.24676638,8.07167337,1,0,0,-32.24676638,8.07167337,1,0,0,0,86,86,60,1,,,,,,,,
,,,,,,,,,,,,,FF,,,,,,,,0.9407,,,,,,,,,,,,,,,,,,,,,,6100a1f6c5c81614e604da15,61036d9296564cde52710f75,2021-07-29_21h11.39.915,Simcolourproject_2stim_asymm_v5,2020.2.10,Linux x86_64,60,61025ae37ef11b136ea224fe,,,,,,,,,644,-65.13329031,29.22694712,1,0,0,response7disk,,1,-14.97025245,-8.317145233,1,0,0,rectangle,-14.97025245,-8.317145233,1,0,0,-14.97025245,-8.317145233,1,0,0,0,87,87,103,1,,,,,,,,
,,,,,,,,,,,,,FF,,,,,,,,0.8999,,,,,,,,,,,,,,,,,,,,,,6100a1f6c5c81614e604da15,61036d9296564cde52710f75,2021-07-29_21h11.39.915,Simcolourproject_2stim_asymm_v5,2020.2.10,Linux x86_64,60,61025ae37ef11b136ea224fe,,,,,,,,,3984,46.90313714,59.80585383,1,0,0,response1disk,,7,14.71016791,5.827435056,1,0,0,rectangle,-65.32938406,-105.6234943,1,0,0,-12.51629734,-15.71333675,1,0,0,0,88,88,48,1,,response5disk_3,TRUE,3,3,"[227,4,0,40,67,31,219,294,13,22,200,107,78,291,109,309,62,89,308,258]",2.0825,rectangle
,,,,,,,,,,,,,FF,,,,,,,,1.0157,,,,,,,,,,,,,,,,,,,,,,6100a1f6c5c81614e604da15,61036d9296564cde52710f75,2021-07-29_21h11.39.915,Simcolourproject_2stim_asymm_v5,2020.2.10,Linux x86_64,60,61025ae37ef11b136ea224fe,,,,,,,,,2219,-45.15750876,-79.09273223,1,0,0,response5disk,,3,-12.98963719,0.46874357,1,0,0,rectangle,-12.98963719,0.46874357,1,0,0,-12.98963719,0.46874357,1,0,0,0,89,89,27,1,,,,,,,,
,,,,,,,,,,,,,FF,,,,,,,,0.816,,,,,,,,,,,,,,,,,,,,,,6100a1f6c5c81614e604da15,61036d9296564cde52710f75,2021-07-29_21h11.39.915,Simcolourproject_2stim_asymm_v5,2020.2.10,Linux x86_64,60,61025ae37ef11b136ea224fe,,,,,,,,,477,-39.86834852,-65.67139413,1,0,0,response5disk,,3,7.901574062,-7.352496781,1,0,0,rectangle,7.901574062,-7.352496781,1,0,0,7.901574062,-7.352496781,1,0,0,0,90,90,42,1,,,,,,,,
,,,,,,,,,,,,,FF,,,,,,,,0.6938,,,,,,,,,,,,,,,,,,,,,,6100a1f6c5c81614e604da15,61036d9296564cde52710f75,2021-07-29_21h11.39.915,Simcolourproject_2stim_asymm_v5,2020.2.10,Linux x86_64,60,61025ae37ef11b136ea224fe,,,,,,,,,3643,65.75401633,-35.03921594,1,0,0,response3disk,,5,24.44410361,-8.624225316,1,0,0,rectangle,24.44410361,-8.624225316,1,0,0,24.44410361,-8.624225316,1,0,0,0,91,91,90,1,,,,,,,,
,,,,,,,,,,,,,FF,,,,,,,,0.9318,,,,,,,,,,,,,,,,,,,,,,6100a1f6c5c81614e604da15,61036d9296564cde52710f75,2021-07-29_21h11.39.915,Simcolourproject_2stim_asymm_v5,2020.2.10,Linux x86_64,60,61025ae37ef11b136ea224fe,,,,,,,,,2191,93.49425112,-33.77725303,1,0,0,response3disk,,5,5.142052536,13.68329455,1,0,0,rectangle,5.142052536,13.68329455,1,0,0,5.142052536,13.68329455,1,0,0,0,92,92,57,1,,,,,,,,
,,,,,,,,,,,,,FF,,,,,,,,1.0167,,,,,,,,,,,,,,,,,,,,,,6100a1f6c5c81614e604da15,61036d9296564cde52710f75,2021-07-29_21h11.39.915,Simcolourproject_2stim_asymm_v5,2020.2.10,Linux x86_64,60,61025ae37ef11b136ea224fe,,,,,,,,,4177,21.53277544,46.52052648,1,0,0,response1disk,,7,17.68087108,8.083782746,1,0,0,rectangle,17.68087108,8.083782746,1,0,0,17.68087108,8.083782746,1,0,0,0,93,93,17,1,,,,,,,,
,,,,,,,,,,,,,FF,,,,,,,,1.3627,,,,,,,,,,,,,,,,,,,,,,6100a1f6c5c81614e604da15,61036d9296564cde52710f75,2021-07-29_21h11.39.915,Simcolourproject_2stim_asymm_v5,2020.2.10,Linux x86_64,60,61025ae37ef11b136ea224fe,,,,,,,,,2689,49.58262937,19.42704463,1,0,0,response1disk,,6,30.11143767,6.526800301,1,0,0,rectangle,30.11143767,6.526800301,1,0,0,30.11143767,6.526800301,1,0,0,0,94,94,117,1,,,,,,,,
,,,,,,,,,,,,,FF,,,,,,,,0.9532,,,,,,,,,,,,,,,,,,,,,,6100a1f6c5c81614e604da15,61036d9296564cde52710f75,2021-07-29_21h11.39.915,Simcolourproject_2stim_asymm_v5,2020.2.10,Linux x86_64,60,61025ae37ef11b136ea224fe,,,,,,,,,4042,21.9910274,-46.48018291,1,0,0,response3disk,,4,0.098839571,-10.04976245,1,0,0,rectangle,0.098839571,-10.04976245,1,0,0,0.098839571,-10.04976245,1,0,0,0,95,95,151,1,,,,,,,,
,,,,,,,,,,,,,FF,,,,,,,,1.2657,,,,,,,,,,,,,,,,,,,,,,6100a1f6c5c81614e604da15,61036d9296564cde52710f75,2021-07-29_21h11.39.915,Simcolourproject_2stim_asymm_v5,2020.2.10,Linux x86_64,60,61025ae37ef11b136ea224fe,,,,,,,,,3657,74.82120397,30.94420789,1,0,0,response1disk,,6,21.2412227,6.574358895,1,0,0,rectangle,21.2412227,6.574358895,1,0,0,21.2412227,6.574358895,1,0,0,0,96,96,25,1,,,,,,,,
,,,,,,,,,,,,,FF,,,,,,,,1.1002,,,,,,,,,,,,,,,,,,,,,,6100a1f6c5c81614e604da15,61036d9296564cde52710f75,2021-07-29_21h11.39.915,Simcolourproject_2stim_asymm_v5,2020.2.10,Linux x86_64,60,61025ae37ef11b136ea224fe,,,,,,,,,1178,59.58604749,34.4896181,1,0,0,response1disk,,6,21.40801958,6.361956548,1,0,0,rectangle,21.40801958,6.361956548,1,0,0,21.40801958,6.361956548,1,0,0,0,97,97,92,1,,,,,,,,
,,,,,,,,,,,,,FF,,,,,,,,0.9331,,,,,,,,,,,,,,,,,,,,,,6100a1f6c5c81614e604da15,61036d9296564cde52710f75,2021-07-29_21h11.39.915,Simcolourproject_2stim_asymm_v5,2020.2.10,Linux x86_64,60,61025ae37ef11b136ea224fe,,,,,,,,,2495,-40.03226454,-35.73076869,1,0,0,response5disk,,2,-29.70023314,-11.60010427,1,0,0,rectangle,-29.70023314,-11.60010427,1,0,0,-29.70023314,-11.60010427,1,0,0,0,98,98,114,1,,,,,,,,
,,,,,,,,,,,,,FF,,,,,,,,4.3183,,,,,,,,,,,,,,,,,,,,,,6100a1f6c5c81614e604da15,61036d9296564cde52710f75,2021-07-29_21h11.39.915,Simcolourproject_2stim_asymm_v5,2020.2.10,Linux x86_64,60,61025ae37ef11b136ea224fe,,,,,,,,,2340,24.3725704,-46.81079815,1,0,0,response3disk,,4,12.84957218,-11.7126531,1,0,0,rectangle,12.84957218,-11.7126531,1,0,0,12.84957218,-11.7126531,1,0,0,0,99,99,157,1,,,,,,,,
,,,,,,,,,,,,,FF,,,,,,,,0.9689,,,,,,,,,,,,,,,,,,,,,,6100a1f6c5c81614e604da15,61036d9296564cde52710f75,2021-07-29_21h11.39.915,Simcolourproject_2stim_asymm_v5,2020.2.10,Linux x86_64,60,61025ae37ef11b136ea224fe,,,,,,,,,760,30.78096893,-56.10000727,1,0,0,response3disk,,4,7.624718589,-6.741949897,1,0,0,rectangle,7.624718589,-6.741949897,1,0,0,7.624718589,-6.741949897,1,0,0,0,100,100,47,1,,,,,,,,
,,,,,,,,,,,,,FF,,,,,,,,0.8827,,,,,,,,,,,,,,,,,,,,,,6100a1f6c5c81614e604da15,61036d9296564cde52710f75,2021-07-29_21h11.39.915,Simcolourproject_2stim_asymm_v5,2020.2.10,Linux x86_64,60,61025ae37ef11b136ea224fe,,,,,,,,,4146,-68.7429095,-18.92603211,1,0,0,response5disk,,2,-18.02952984,6.592669442,1,0,0,rectangle,-18.02952984,6.592669442,1,0,0,-18.02952984,6.592669442,1,0,0,0,101,101,33,1,,,,,,,,
,,,,,,,,,,,,,FF,,,,,,,,1.0994,,,,,,,,,,,,,,,,,,,,,,6100a1f6c5c81614e604da15,61036d9296564cde52710f75,2021-07-29_21h11.39.915,Simcolourproject_2stim_asymm_v5,2020.2.10,Linux x86_64,60,61025ae37ef11b136ea224fe,,,,,,,,,1597,-26.61815302,104.9758496,1,0,0,response7disk,,0,-9.968445736,15.83036489,1,0,0,rectangle,-9.968445736,15.83036489,1,0,0,-9.968445736,15.83036489,1,0,0,0,102,102,26,1,,,,,,,,
,,,,,,,,,,,,,FF,,,,,,,,1.3715,,,,,,,,,,,,,,,,,,,,,,6100a1f6c5c81614e604da15,61036d9296564cde52710f75,2021-07-29_21h11.39.915,Simcolourproject_2stim_asymm_v5,2020.2.10,Linux x86_64,60,61025ae37ef11b136ea224fe,,,,,,,,,1026,-45.6763076,-82.22027133,1,0,0,response5disk,,3,-14.1852915,-6.557574894,1,0,0,rectangle,-14.1852915,-6.557574894,1,0,0,-14.1852915,-6.557574894,1,0,0,0,103,103,81,1,,,,,,,,
,,,,,,,,,,,,,FF,,,,,,,,1.0004,,,,,,,,,,,,,,,,,,,,,,6100a1f6c5c81614e604da15,61036d9296564cde52710f75,2021-07-29_21h11.39.915,Simcolourproject_2stim_asymm_v5,2020.2.10,Linux x86_64,60,61025ae37ef11b136ea224fe,,,,,,,,,4206,-68.41751887,29.21046763,1,0,0,response7disk,,1,-11.51151216,-1.600201774,1,0,0,rectangle,-11.51151216,-1.600201774,1,0,0,-11.51151216,-1.600201774,1,0,0,0,104,104,62,1,,,,,,,,
,,,,,,,,,,,,,FF,,,,,,,,1.1488,,,,,,,,,,,,,,,,,,,,,,6100a1f6c5c81614e604da15,61036d9296564cde52710f75,2021-07-29_21h11.39.915,Simcolourproject_2stim_asymm_v5,2020.2.10,Linux x86_64,60,61025ae37ef11b136ea224fe,,,,,,,,,2170,102.8200325,-49.74903062,1,0,0,response3disk,,5,-6.050525755,-6.003668636,1,0,0,rectangle,-6.050525755,-6.003668636,1,0,0,-6.050525755,-6.003668636,1,0,0,0,105,105,89,1,,,,,,,,
,,,,,,,,,,,,,FF,,,,,,,,1.3919,,,,,,,,,,,,,,,,,,,,,,6100a1f6c5c81614e604da15,61036d9296564cde52710f75,2021-07-29_21h11.39.915,Simcolourproject_2stim_asymm_v5,2020.2.10,Linux x86_64,60,61025ae37ef11b136ea224fe,,,,,,,,,3803,-23.47752797,-41.772468,1,0,0,response5disk,,3,-12.08988131,-5.514606129,1,0,0,rectangle,-27.21507685,-111.475887,1,0,0,0.940050521,0.245550207,1,0,0,0,106,106,106,1,,response5disk_3,TRUE,3,3,"[227,4,0,40,67,31,219,294,13,22,200,107,78,291,109,309,62,89,308,258]",2.802,rectangle
,,,,,,,,,,,,,FF,,,,,,,,3.8144,,,,,,,,,,,,,,,,,,,,,,6100a1f6c5c81614e604da15,61036d9296564cde52710f75,2021-07-29_21h11.39.915,Simcolourproject_2stim_asymm_v5,2020.2.10,Linux x86_64,60,61025ae37ef11b136ea224fe,,,,,,,,,3763,34.73580298,-43.21177466,1,0,0,response3disk,,4,-9.165027755,4.877386214,1,0,0,rectangle,-9.165027755,4.877386214,1,0,0,-9.165027755,4.877386214,1,0,0,0,107,107,86,1,,,,,,,,
,,,,,,,,,,,,,FF,,,,,,,,2.1194,,,,,,,,,,,,,,,,,,,,,,6100a1f6c5c81614e604da15,61036d9296564cde52710f75,2021-07-29_21h11.39.915,Simcolourproject_2stim_asymm_v5,2020.2.10,Linux x86_64,60,61025ae37ef11b136ea224fe,,,,,,,,,1898,31.46529512,-87.79761517,1,0,0,response3disk,,4,-9.763465264,-6.749029975,1,0,0,rectangle,-46.68543847,-76.17935328,1,0,0,-6.869861705,-12.86026054,1,0,0,0,108,108,97,1,,response5disk_3,TRUE,3,3,"[227,4,0,40,67,31,219,294,13,22,200,107,78,291,109,309,62,89,308,258]",2.273,rectangle
,,,,,,,,,,,,,FF,,,,,,,,0.8376,,,,,,,,,,,,,,,,,,,,,,6100a1f6c5c81614e604da15,61036d9296564cde52710f75,2021-07-29_21h11.39.915,Simcolourproject_2stim_asymm_v5,2020.2.10,Linux x86_64,60,61025ae37ef11b136ea224fe,,,,,,,,,2299,-56.44925698,-42.0634348,1,0,0,response5disk,,2,4.82882011,3.666351039,1,0,0,rectangle,4.82882011,3.666351039,1,0,0,4.82882011,3.666351039,1,0,0,0,109,109,105,1,,,,,,,,
,,,,,,,,,,,,,FF,,,,,,,,1.2977,,,,,,,,,,,,,,,,,,,,,,6100a1f6c5c81614e604da15,61036d9296564cde52710f75,2021-07-29_21h11.39.915,Simcolourproject_2stim_asymm_v5,2020.2.10,Linux x86_64,60,61025ae37ef11b136ea224fe,,,,,,,,,311,98.16680978,-51.66270252,1,0,0,response3disk,,5,14.69493354,-5.197858077,1,0,0,rectangle,14.69493354,-5.197858077,1,0,0,14.69493354,-5.197858077,1,0,0,0,110,110,74,1,,,,,,,,
,,,,,,,,,,,,,FF,,,,,,,,0.618,,,,,,,,,,,,,,,,,,,,,,6100a1f6c5c81614e604da15,61036d9296564cde52710f75,2021-07-29_21h11.39.915,Simcolourproject_2stim_asymm_v5,2020.2.10,Linux x86_64,60,61025ae37ef11b136ea224fe,,,,,,,,,3001,59.27335217,-42.21094457,1,0,0,response3disk,,5,5.411241993,-12.38526053,1,0,0,rectangle,5.411241993,-12.38526053,1,0,0,5.411241993,-12.38526053,1,0,0,0,111,111,128,1,,,,,,,,
,,,,,,,,,,,,,FF,,,,,,,,0.8839,,,,,,,,,,,,,,,,,,,,,,6100a1f6c5c81614e604da15,61036d9296564cde52710f75,2021-07-29_21h11.39.915,Simcolourproject_2stim_asymm_v5,2020.2.10,Linux x86_64,60,61025ae37ef11b136ea224fe,,,,,,,,,3544,33.09991428,-67.51548596,1,0,0,response3disk,,4,-5.324256213,-10.71543628,1,0,0,rectangle,-5.324256213,-10.71543628,1,0,0,-5.324256213,-10.71543628,1,0,0,0,112,112,31,1,,,,,,,,
,,,,,,,,,,,,,FF,,,,,,,,1.5682,,,,,,,,,,,,,,,,,,,,,,6100a1f6c5c81614e604da15,61036d9296564cde52710f75,2021-07-29_21h11.39.915,Simcolourproject_2stim_asymm_v5,2020.2.10,Linux x86_64,60,61025ae37ef11b136ea224fe,,,,,,,,,1444,-51.94730378,-26.88838574,1,0,0,response5disk,,2,-18.74027204,-12.12588552,1,0,0,rectangle,-18.74027204,-12.12588552,1,0,0,-18.74027204,-12.12588552,1,0,0,0,113,113,152,1,,,,,,,,
,,,,,,,,,,,,,FF,,,,,,,,1.1333,,,,,,,,,,,,,,,,,,,,,,6100a1f6c5c81614e604da15,61036d9296564cde52710f75,2021-07-29_21h11.39.915,Simcolourproject_2stim_asymm_v5,2020.2.10,Linux x86_64,60,61025ae37ef11b136ea224fe,,,,,,,,,1255,34.7065061,-55.4646557,1,0,0,response3disk,,4,-26.57620966,-16.24614926,1,0,0,rectangle,-26.57620966,-16.24614926,1,0,0,-26.57620966,-16.24614926,1,0,0,0,114,114,130,1,,,,,,,,
,,,,,,,,,,,,,FF,,,,,,,,1.8669,,,,,,,,,,,,,,,,,,,,,,6100a1f6c5c81614e604da15,61036d9296564cde52710f75,2021-07-29_21h11.39.915,Simcolourproject_2stim_asymm_v5,2020.2.10,Linux x86_64,60,61025ae37ef11b136ea224fe,,,,,,,,,883,35.07344947,-92.74019337,1,0,0,response3disk,,4,-2.926062818,-4.39956705,1,0,0,rectangle,-2.926062818,-4.39956705,1,0,0,-2.926062818,-4.39956705,1,0,0,0,115,115,37,1,,,,,,,,
,,,,,,,,,,,,,FF,,,,,,,,1.2431,,,,,,,,,,,,,,,,,,,,,,6100a1f6c5c81614e604da15,61036d9296564cde52710f75,2021-07-29_21h11.39.915,Simcolourproject_2stim_asymm_v5,2020.2.10,Linux x86_64,60,61025ae37ef11b136ea224fe,,,,,,,,,1338,34.65943579,-104.2683674,1,0,0,response3disk,,4,-18.60936383,-15.94175472,1,0,0,rectangle,-18.60936383,-15.94175472,1,0,0,-18.60936383,-15.94175472,1,0,0,0,116,116,131,1,,,,,,,,
,,,,,,,,,,,,,FF,,,,,,,,1.1502,,,,,,,,,,,,,,,,,,,,,,6100a1f6c5c81614e604da15,61036d9296564cde52710f75,2021-07-29_21h11.39.915,Simcolourproject_2stim_asymm_v5,2020.2.10,Linux x86_64,60,61025ae37ef11b136ea224fe,,,,,,,,,366,-40.01419814,61.42580014,1,0,0,response7disk,,0,-1.63905108,-0.776471293,1,0,0,rectangle,-1.63905108,-0.776471293,1,0,0,-1.63905108,-0.776471293,1,0,0,0,117,117,95,1,,,,,,,,
,,,,,,,,,,,,,FF,,,,,,,,1.5473,,,,,,,,,,,,,,,,,,,,,,6100a1f6c5c81614e604da15,61036d9296564cde52710f75,2021-07-29_21h11.39.915,Simcolourproject_2stim_asymm_v5,2020.2.10,Linux x86_64,60,61025ae37ef11b136ea224fe,,,,,,,,,3907,-66.36551689,47.48585853,1,0,0,response7disk,,1,-23.96161001,8.531097205,1,0,0,rectangle,-23.96161001,8.531097205,1,0,0,-23.96161001,8.531097205,1,0,0,0,118,118,93,1,,,,,,,,
,,,,,,,,,,,,,FF,,,,,,,,1.0287,,,,,,,,,,,,,,,,,,,,,,6100a1f6c5c81614e604da15,61036d9296564cde52710f75,2021-07-29_21h11.39.915,Simcolourproject_2stim_asymm_v5,2020.2.10,Linux x86_64,60,61025ae37ef11b136ea224fe,,,,,,,,,2054,-63.71746997,-53.25415762,1,0,0,response5disk,,2,-18.37601422,-10.55440113,1,0,0,rectangle,-18.37601422,-10.55440113,1,0,0,-18.37601422,-10.55440113,1,0,0,0,119,119,13,1,,,,,,,,
,,,,,,,,,,,,,FF,,,,,,,,1.3286,,,,,,,,,,,,,,,,,,,,,,6100a1f6c5c81614e604da15,61036d9296564cde52710f75,2021-07-29_21h11.39.915,Simcolourproject_2stim_asymm_v5,2020.2.10,Linux x86_64,60,61025ae37ef11b136ea224fe,,,,,,,,,1237,43.81134022,-61.27451907,1,0,0,response3disk,,4,-14.35765479,6.549407723,1,0,0,rectangle,-14.35765479,6.549407723,1,0,0,-14.35765479,6.549407723,1,0,0,0,120,120,99,1,,,,,,,,
,,,,,,,,,,,,,FF,,,,,,,,0.8391,,,,,,,,,,,,,,,,,,,,,,6100a1f6c5c81614e604da15,61036d9296564cde52710f75,2021-07-29_21h11.39.915,Simcolourproject_2stim_asymm_v5,2020.2.10,Linux x86_64,60,61025ae37ef11b136ea224fe,,,,,,,,,4023,-47.3024795,-42.58428442,1,0,0,response5disk,,2,-23.98245962,-7.753278037,1,0,0,rectangle,-23.98245962,-7.753278037,1,0,0,-23.98245962,-7.753278037,1,0,0,0,121,121,158,1,,,,,,,,
,,,,,,,,,,,,,FF,,,,,,,,0.8001,,,,,,,,,,,,,,,,,,,,,,6100a1f6c5c81614e604da15,61036d9296564cde52710f75,2021-07-29_21h11.39.915,Simcolourproject_2stim_asymm_v5,2020.2.10,Linux x86_64,60,61025ae37ef11b136ea224fe,,,,,,,,,3193,-45.46292869,-28.87320023,1,0,0,response5disk,,2,-23.32000843,-5.546979176,1,0,0,rectangle,-23.32000843,-5.546979176,1,0,0,-23.32000843,-5.546979176,1,0,0,0,122,122,9,1,,,,,,,,
,,,,,,,,,,,,,FF,,,,,,,,0.8753,,,,,,,,,,,,,,,,,,,,,,6100a1f6c5c81614e604da15,61036d9296564cde52710f75,2021-07-29_21h11.39.915,Simcolourproject_2stim_asymm_v5,2020.2.10,Linux x86_64,60,61025ae37ef11b136ea224fe,,,,,,,,,197,-44.0041396,-66.1149,1,0,0,response5disk,,3,-20.22513534,-7.633697957,1,0,0,rectangle,-20.22513534,-7.633697957,1,0,0,-20.22513534,-7.633697957,1,0,0,0,123,123,119,1,,,,,,,,
,,,,,,,,,,,,,FF,,,,,,,,0.7224,,,,,,,,,,,,,,,,,,,,,,6100a1f6c5c81614e604da15,61036d9296564cde52710f75,2021-07-29_21h11.39.915,Simcolourproject_2stim_asymm_v5,2020.2.10,Linux x86_64,60,61025ae37ef11b136ea224fe,,,,,,,,,3775,-43.72479389,-36.27119838,1,0,0,response5disk,,2,-24.58045767,-11.6038152,1,0,0,rectangle,-24.58045767,-11.6038152,1,0,0,-24.58045767,-11.6038152,1,0,0,0,124,124,109,1,,,,,,,,
,,,,,,,,,,,,,FF,,,,,,,,1.4549,,,,,,,,,,,,,,,,,,,,,,6100a1f6c5c81614e604da15,61036d9296564cde52710f75,2021-07-29_21h11.39.915,Simcolourproject_2stim_asymm_v5,2020.2.10,Linux x86_64,60,61025ae37ef11b136ea224fe,,,,,,,,,2003,62.50421159,51.04967694,1,0,0,response1disk,,6,17.32540233,-15.51641292,1,0,0,rectangle,17.32540233,-15.51641292,1,0,0,17.32540233,-15.51641292,1,0,0,0,125,125,100,1,,,,,,,,
,,,,,,,,,,,,,FF,,,,,,,,0.7722,,,,,,,,,,,,,,,,,,,,,,6100a1f6c5c81614e604da15,61036d9296564cde52710f75,2021-07-29_21h11.39.915,Simcolourproject_2stim_asymm_v5,2020.2.10,Linux x86_64,60,61025ae37ef11b136ea224fe,,,,,,,,,1377,-62.95160082,-40.75698947,1,0,0,response5disk,,2,3.277599384,4.044476045,1,0,0,rectangle,3.277599384,4.044476045,1,0,0,3.277599384,4.044476045,1,0,0,0,126,126,116,1,,,,,,,,
,,,,,,,,,,,,,FF,,,,,,,,1.3003,,,,,,,,,,,,,,,,,,,,,,6100a1f6c5c81614e604da15,61036d9296564cde52710f75,2021-07-29_21h11.39.915,Simcolourproject_2stim_asymm_v5,2020.2.10,Linux x86_64,60,61025ae37ef11b136ea224fe,,,,,,,,,1702,54.87237554,-33.16636435,1,0,0,response3disk,,5,17.87935741,-6.020856136,1,0,0,rectangle,17.87935741,-6.020856136,1,0,0,17.87935741,-6.020856136,1,0,0,0,127,127,16,1,,,,,,,,
,,,,,,,,,,,,,FF,,,,,,,,1.6388,,,,,,,,,,,,,,,,,,,,,,6100a1f6c5c81614e604da15,61036d9296564cde52710f75,2021-07-29_21h11.39.915,Simcolourproject_2stim_asymm_v5,2020.2.10,Linux x86_64,60,61025ae37ef11b136ea224fe,,,,,,,,,1451,-74.42406193,-32.24673543,1,0,0,response5disk,,2,-27.52860225,0.958929124,1,0,0,rectangle,-27.52860225,0.958929124,1,0,0,-27.52860225,0.958929124,1,0,0,0,128,128,115,1,,,,,,,,
,,,,,,,,,,,,,FF,,,,,,,,0.7993,,,,,,,,,,,,,,,,,,,,,,6100a1f6c5c81614e604da15,61036d9296564cde52710f75,2021-07-29_21h11.39.915,Simcolourproject_2stim_asymm_v5,2020.2.10,Linux x86_64,60,61025ae37ef11b136ea224fe,,,,,,,,,3180,44.13424062,83.51808563,1,0,0,response1disk,,7,11.2038202,-3.738971337,1,0,0,rectangle,11.2038202,-3.738971337,1,0,0,11.2038202,-3.738971337,1,0,0,0,129,129,15,1,,,,,,,,
,,,,,,,,,,,,,FF,,,,,,,,0.871,,,,,,,,,,,,,,,,,,,,,,6100a1f6c5c81614e604da15,61036d9296564cde52710f75,2021-07-29_21h11.39.915,Simcolourproject_2stim_asymm_v5,2020.2.10,Linux x86_64,60,61025ae37ef11b136ea224fe,,,,,,,,,3434,-68.5745013,28.9081727,1,0,0,response7disk,,1,3.629503686,-1.930719357,1,0,0,rectangle,3.629503686,-1.930719357,1,0,0,3.629503686,-1.930719357,1,0,0,0,130,130,156,1,,,,,,,,
,,,,,,,,,,,,,FF,,,,,,,,0.9328,,,,,,,,,,,,,,,,,,,,,,6100a1f6c5c81614e604da15,61036d9296564cde52710f75,2021-07-29_21h11.39.915,Simcolourproject_2stim_asymm_v5,2020.2.10,Linux x86_64,60,61025ae37ef11b136ea224fe,,,,,,,,,834,108.9016732,43.57484773,1,0,0,response1disk,,6,6.827941233,0.315667396,1,0,0,rectangle,6.827941233,0.315667396,1,0,0,6.827941233,0.315667396,1,0,0,0,131,131,7,1,,,,,,,,
,,,,,,,,,,,,,FF,,,,,,,,1.0178,,,,,,,,,,,,,,,,,,,,,,6100a1f6c5c81614e604da15,61036d9296564cde52710f75,2021-07-29_21h11.39.915,Simcolourproject_2stim_asymm_v5,2020.2.10,Linux x86_64,60,61025ae37ef11b136ea224fe,,,,,,,,,346,-92.87372041,31.22340711,1,0,0,response7disk,,1,-1.312488575,-14.82197931,1,0,0,rectangle,-1.312488575,-14.82197931,1,0,0,-1.312488575,-14.82197931,1,0,0,0,132,132,78,1,,,,,,,,
,,,,,,,,,,,,,FF,,,,,,,,0.6844,,,,,,,,,,,,,,,,,,,,,,6100a1f6c5c81614e604da15,61036d9296564cde52710f75,2021-07-29_21h11.39.915,Simcolourproject_2stim_asymm_v5,2020.2.10,Linux x86_64,60,61025ae37ef11b136ea224fe,,,,,,,,,1188,54.51114507,-23.98926461,1,0,0,response3disk,,5,24.46285361,-6.765924507,1,0,0,rectangle,24.46285361,-6.765924507,1,0,0,24.46285361,-6.765924507,1,0,0,0,133,133,12,1,,,,,,,,
,,,,,,,,,,,,,FF,,,,,,,,0.6925,,,,,,,,,,,,,,,,,,,,,,6100a1f6c5c81614e604da15,61036d9296564cde52710f75,2021-07-29_21h11.39.915,Simcolourproject_2stim_asymm_v5,2020.2.10,Linux x86_64,60,61025ae37ef11b136ea224fe,,,,,,,,,247,59.95587171,-21.79365911,1,0,0,response3disk,,5,20.19464065,-0.295904879,1,0,0,rectangle,20.19464065,-0.295904879,1,0,0,20.19464065,-0.295904879,1,0,0,0,134,134,46,1,,,,,,,,
,,,,,,,,,,,,,FF,,,,,,,,3.1539,,,,,,,,,,,,,,,,,,,,,,6100a1f6c5c81614e604da15,61036d9296564cde52710f75,2021-07-29_21h11.39.915,Simcolourproject_2stim_asymm_v5,2020.2.10,Linux x86_64,60,61025ae37ef11b136ea224fe,,,,,,,,,2655,67.91182886,-23.00098334,1,0,0,response3disk,,5,35.05479712,-1.576227164,1,0,0,rectangle,35.05479712,-1.576227164,1,0,0,35.05479712,-1.576227164,1,0,0,0,135,135,80,1,,,,,,,,
,,,,,,,,,,,,,FF,,,,,,,,1.2867,,,,,,,,,,,,,,,,,,,,,,6100a1f6c5c81614e604da15,61036d9296564cde52710f75,2021-07-29_21h11.39.915,Simcolourproject_2stim_asymm_v5,2020.2.10,Linux x86_64,60,61025ae37ef11b136ea224fe,,,,,,,,,1052,67.19776635,-33.86362999,1,0,0,response3disk,,5,20.3879512,-13.68736016,1,0,0,rectangle,20.3879512,-13.68736016,1,0,0,20.3879512,-13.68736016,1,0,0,0,136,136,141,1,,,,,,,,
,,,,,,,,,,,,,FF,,,,,,,,0.7512,,,,,,,,,,,,,,,,,,,,,,6100a1f6c5c81614e604da15,61036d9296564cde52710f75,2021-07-29_21h11.39.915,Simcolourproject_2stim_asymm_v5,2020.2.10,Linux x86_64,60,61025ae37ef11b136ea224fe,,,,,,,,,277,-45.51561423,-42.26865941,1,0,0,response5disk,,2,33.34298069,3.117962359,1,0,0,rectangle,33.34298069,3.117962359,1,0,0,33.34298069,3.117962359,1,0,0,0,137,137,132,1,,,,,,,,
,,,,,,,,,,,,,FF,,,,,,,,1.8414,,,,,,,,,,,,,,,,,,,,,,6100a1f6c5c81614e604da15,61036d9296564cde52710f75,2021-07-29_21h11.39.915,Simcolourproject_2stim_asymm_v5,2020.2.10,Linux x86_64,60,61025ae37ef11b136ea224fe,,,,,,,,,2194,77.60137979,-41.19302463,1,0,0,response3disk,,5,21.26446489,-2.254303346,1,0,0,rectangle,21.26446489,-2.254303346,1,0,0,21.26446489,-2.254303346,1,0,0,0,138,138,71,1,,,,,,,,
,,,,,,,,,,,,,FF,,,,,,,,0.7092,,,,,,,,,,,,,,,,,,,,,,6100a1f6c5c81614e604da15,61036d9296564cde52710f75,2021-07-29_21h11.39.915,Simcolourproject_2stim_asymm_v5,2020.2.10,Linux x86_64,60,61025ae37ef11b136ea224fe,,,,,,,,,1134,-47.55150294,-19.40664735,1,0,0,response5disk,,2,8.950451031,5.151507311,1,0,0,rectangle,8.950451031,5.151507311,1,0,0,8.950451031,5.151507311,1,0,0,0,139,139,150,1,,,,,,,,
,,,,,,,,,,,,,FF,,,,,,,,1.9767,,,,,,,,,,,,,,,,,,,,,,6100a1f6c5c81614e604da15,61036d9296564cde52710f75,2021-07-29_21h11.39.915,Simcolourproject_2stim_asymm_v5,2020.2.10,Linux x86_64,60,61025ae37ef11b136ea224fe,,,,,,,,,3044,-62.31756761,-24.04102242,1,0,0,response5disk,,2,-28.82415891,-8.053278042,1,0,0,rectangle,-28.82415891,-8.053278042,1,0,0,-28.82415891,-8.053278042,1,0,0,0,140,140,96,1,,,,,,,,
,,,,,,,,,,,,,FF,,,,,,,,1.6819,,,,,,,,,,,,,,,,,,,,,,6100a1f6c5c81614e604da15,61036d9296564cde52710f75,2021-07-29_21h11.39.915,Simcolourproject_2stim_asymm_v5,2020.2.10,Linux x86_64,60,61025ae37ef11b136ea224fe,,,,,,,,,3463,-27.15111201,-89.44038863,1,0,0,response5disk,,3,0.088097383,-8.387115937,1,0,0,rectangle,0.088097383,-8.387115937,1,0,0,0.088097383,-8.387115937,1,0,0,0,141,141,137,1,,,,,,,,
,,,,,,,,,,,,,FF,,,,,,,,1.0166,,,,,,,,,,,,,,,,,,,,,,6100a1f6c5c81614e604da15,61036d9296564cde52710f75,2021-07-29_21h11.39.915,Simcolourproject_2stim_asymm_v5,2020.2.10,Linux x86_64,60,61025ae37ef11b136ea224fe,,,,,,,,,866,30.85006073,-63.30650152,1,0,0,response3disk,,4,-10.32572113,-4.223102203,1,0,0,rectangle,-10.32572113,-4.223102203,1,0,0,-10.32572113,-4.223102203,1,0,0,0,142,142,2,1,,,,,,,,
,,,,,,,,,,,,,FF,,,,,,,,0.9928,,,,,,,,,,,,,,,,,,,,,,6100a1f6c5c81614e604da15,61036d9296564cde52710f75,2021-07-29_21h11.39.915,Simcolourproject_2stim_asymm_v5,2020.2.10,Linux x86_64,60,61025ae37ef11b136ea224fe,,,,,,,,,3286,-45.01517477,-63.04614995,1,0,0,response5disk,,3,-35.35521369,-14.63623712,1,0,0,rectangle,-35.35521369,-14.63623712,1,0,0,-35.35521369,-14.63623712,1,0,0,0,143,143,147,1,,,,,,,,
,,,,,,,,,,,,,FF,,,,,,,,0.7828,,,,,,,,,,,,,,,,,,,,,,6100a1f6c5c81614e604da15,61036d9296564cde52710f75,2021-07-29_21h11.39.915,Simcolourproject_2stim_asymm_v5,2020.2.10,Linux x86_64,60,61025ae37ef11b136ea224fe,,,,,,,,,1213,-62.2533098,-23.31978218,1,0,0,response5disk,,2,-34.11693242,2.687347118,1,0,0,rectangle,-34.11693242,2.687347118,1,0,0,-34.11693242,2.687347118,1,0,0,0,144,144,138,1,,,,,,,,
,,,,,,,,,,,,,FF,,,,,,,,0.9214,,,,,,,,,,,,,,,,,,,,,,6100a1f6c5c81614e604da15,61036d9296564cde52710f75,2021-07-29_21h11.39.915,Simcolourproject_2stim_asymm_v5,2020.2.10,Linux x86_64,60,61025ae37ef11b136ea224fe,,,,,,,,,2732,-55.3882218,-46.65166729,1,0,0,response5disk,,2,-34.61761602,-2.273346315,1,0,0,rectangle,-34.61761602,-2.273346315,1,0,0,-34.61761602,-2.273346315,1,0,0,0,145,145,45,1,,,,,,,,
,,,,,,,,,,,,,FF,,,,,,,,0.9674,,,,,,,,,,,,,,,,,,,,,,6100a1f6c5c81614e604da15,61036d9296564cde52710f75,2021-07-29_21h11.39.915,Simcolourproject_2stim_asymm_v5,2020.2.10,Linux x86_64,60,61025ae37ef11b136ea224fe,,,,,,,,,180,-67.66278253,-45.61519266,1,0,0,response5disk,,2,-19.33939314,-13.57730156,1,0,0,rectangle,-19.33939314,-13.57730156,1,0,0,-19.33939314,-13.57730156,1,0,0,0,146,146,18,1,,,,,,,,
,,,,,,,,,,,,,FF,,,,,,,,1.1904,,,,,,,,,,,,,,,,,,,,,,6100a1f6c5c81614e604da15,61036d9296564cde52710f75,2021-07-29_21h11.39.915,Simcolourproject_2stim_asymm_v5,2020.2.10,Linux x86_64,60,61025ae37ef11b136ea224fe,,,,,,,,,1116,44.27808828,-71.68106219,1,0,0,response3disk,,4,-13.52952977,5.03925145,1,0,0,rectangle,-13.52952977,5.03925145,1,0,0,-13.52952977,5.03925145,1,0,0,0,147,147,148,1,,,,,,,,
,,,,,,,,,,,,,FF,,,,,,,,1.2092,,,,,,,,,,,,,,,,,,,,,,6100a1f6c5c81614e604da15,61036d9296564cde52710f75,2021-07-29_21h11.39.915,Simcolourproject_2stim_asymm_v5,2020.2.10,Linux x86_64,60,61025ae37ef11b136ea224fe,,,,,,,,,3954,46.01241447,-46.71465557,1,0,0,response3disk,,4,3.854113064,-2.089166625,1,0,0,rectangle,3.854113064,-2.089166625,1,0,0,3.854113064,-2.089166625,1,0,0,0,148,148,126,1,,,,,,,,
,,,,,,,,,,,,,FF,,,,,,,,0.877,,,,,,,,,,,,,,,,,,,,,,6100a1f6c5c81614e604da15,61036d9296564cde52710f75,2021-07-29_21h11.39.915,Simcolourproject_2stim_asymm_v5,2020.2.10,Linux x86_64,60,61025ae37ef11b136ea224fe,,,,,,,,,3927,67.73751245,104.7129834,1,0,0,response1disk,,7,18.56685742,0.72924162,1,0,0,rectangle,18.56685742,0.72924162,1,0,0,18.56685742,0.72924162,1,0,0,0,149,149,21,1,,,,,,,,
,,,,,,,,,,,,,FF,,,,,,,,1.6185,,,,,,,,,,,,,,,,,,,,,,6100a1f6c5c81614e604da15,61036d9296564cde52710f75,2021-07-29_21h11.39.915,Simcolourproject_2stim_asymm_v5,2020.2.10,Linux x86_64,60,61025ae37ef11b136ea224fe,,,,,,,,,755,67.89180933,32.26503311,1,0,0,response1disk,,6,32.42598849,8.234954623,1,0,0,rectangle,32.42598849,8.234954623,1,0,0,32.42598849,8.234954623,1,0,0,0,150,150,110,1,,,,,,,,
,,,,,,,,,,,,,FF,,,,,,,,0.868,,,,,,,,,,,,,,,,,,,,,,6100a1f6c5c81614e604da15,61036d9296564cde52710f75,2021-07-29_21h11.39.915,Simcolourproject_2stim_asymm_v5,2020.2.10,Linux x86_64,60,61025ae37ef11b136ea224fe,,,,,,,,,806,-34.20604375,-45.46592508,1,0,0,response5disk,,3,-25.80560417,-7.62398116,1,0,0,rectangle,-25.80560417,-7.62398116,1,0,0,-25.80560417,-7.62398116,1,0,0,0,151,151,124,1,,,,,,,,
,,,,,,,,,,,,,FF,,,,,,,,1.2519,,,,,,,,,,,,,,,,,,,,,,6100a1f6c5c81614e604da15,61036d9296564cde52710f75,2021-07-29_21h11.39.915,Simcolourproject_2stim_asymm_v5,2020.2.10,Linux x86_64,60,61025ae37ef11b136ea224fe,,,,,,,,,688,26.22471887,-66.34448985,1,0,0,response3disk,,4,-12.23631686,0.143987705,1,0,0,rectangle,-12.23631686,0.143987705,1,0,0,-12.23631686,0.143987705,1,0,0,0,152,152,118,1,,,,,,,,
,,,,,,,,,,,,,FF,,,,,,,,1.4003,,,,,,,,,,,,,,,,,,,,,,6100a1f6c5c81614e604da15,61036d9296564cde52710f75,2021-07-29_21h11.39.915,Simcolourproject_2stim_asymm_v5,2020.2.10,Linux x86_64,60,61025ae37ef11b136ea224fe,,,,,,,,,1534,-31.61502809,-90.63594529,1,0,0,response5disk,,3,-6.096717162,-5.749762382,1,0,0,rectangle,-6.096717162,-5.749762382,1,0,0,-6.096717162,-5.749762382,1,0,0,0,153,153,140,1,,,,,,,,
,,,,,,,,,,,,,FF,,,,,,,,2.133,,,,,,,,,,,,,,,,,,,,,,6100a1f6c5c81614e604da15,61036d9296564cde52710f75,2021-07-29_21h11.39.915,Simcolourproject_2stim_asymm_v5,2020.2.10,Linux x86_64,60,61025ae37ef11b136ea224fe,,,,,,,,,420,30.73009003,-75.2374099,1,0,0,response3disk,,4,-6.222840211,8.075042511,1,0,0,rectangle,-6.222840211,8.075042511,1,0,0,-6.222840211,8.075042511,1,0,0,0,154,154,145,1,,,,,,,,
,,,,,,,,,,,,,FF,,,,,,,,1.6401,,,,,,,,,,,,,,,,,,,,,,6100a1f6c5c81614e604da15,61036d9296564cde52710f75,2021-07-29_21h11.39.915,Simcolourproject_2stim_asymm_v5,2020.2.10,Linux x86_64,60,61025ae37ef11b136ea224fe,,,,,,,,,83,-54.49510656,-69.77456802,1,0,0,response5disk,,3,-31.5898816,-9.809576896,1,0,0,rectangle,-31.5898816,-9.809576896,1,0,0,-31.5898816,-9.809576896,1,0,0,0,155,155,133,1,,,,,,,,
,,,,,,,,,,,,,FF,,,,,,,,0.9494,,,,,,,,,,,,,,,,,,,,,,6100a1f6c5c81614e604da15,61036d9296564cde52710f75,2021-07-29_21h11.39.915,Simcolourproject_2stim_asymm_v5,2020.2.10,Linux x86_64,60,61025ae37ef11b136ea224fe,,,,,,,,,3755,-57.53348551,-34.03819054,1,0,0,response5disk,,2,-36.56712777,-12.18696951,1,0,0,rectangle,-36.56712777,-12.18696951,1,0,0,-36.56712777,-12.18696951,1,0,0,0,156,156,1,1,,,,,,,,
,,,,,,,,,,,,,FF,,,,,,,,0.9946,,,,,,,,,,,,,,,,,,,,,,6100a1f6c5c81614e604da15,61036d9296564cde52710f75,2021-07-29_21h11.39.915,Simcolourproject_2stim_asymm_v5,2020.2.10,Linux x86_64,60,61025ae37ef11b136ea224fe,,,,,,,,,3235,48.53023678,71.46740185,1,0,0,response1disk,,7,18.15118359,7.462249533,1,0,0,rectangle,18.15118359,7.462249533,1,0,0,18.15118359,7.462249533,1,0,0,0,157,157,77,1,,,,,,,,
,,,,,,,,,,,,,FF,,,,,,,,1.2077,,,,,,,,,,,,,,,,,,,,,,6100a1f6c5c81614e604da15,61036d9296564cde52710f75,2021-07-29_21h11.39.915,Simcolourproject_2stim_asymm_v5,2020.2.10,Linux x86_64,60,61025ae37ef11b136ea224fe,,,,,,,,,2227,-83.04779253,-25.07193064,1,0,0,response5disk,,2,-30.63944214,5.900579588,1,0,0,rectangle,-30.63944214,5.900579588,1,0,0,-30.63944214,5.900579588,1,0,0,0,158,158,88,1,,,,,,,,
,,,,,,,,,,,,,FF,,,,,,,,1.5164,,,,,,,,,,,,,,,,,,,,,,6100a1f6c5c81614e604da15,61036d9296564cde52710f75,2021-07-29_21h11.39.915,Simcolourproject_2stim_asymm_v5,2020.2.10,Linux x86_64,60,61025ae37ef11b136ea224fe,,,,,,,,,2091,86.77149711,41.6484561,1,0,0,response1disk,,6,31.78023653,4.300335424,1,0,0,rectangle,31.78023653,4.300335424,1,0,0,31.78023653,4.300335424,1,0,0,0,159,159,85,1,,,,,,,,
,,,,,,,,,,,,,FF,,,,,,,,1.8653,,,,,,,,,,,,,,,,,,,,,,6100a1f6c5c81614e604da15,61036d9296564cde52710f75,2021-07-29_21h11.39.915,Simcolourproject_2stim_asymm_v5,2020.2.10,Linux x86_64,60,61025ae37ef11b136ea224fe,,,,,,,,,2422,-31.72020387,-50.65537829,1,0,0,response5disk,,3,-11.48905123,-3.860113917,1,0,0,rectangle,-11.48905123,-3.860113917,1,0,0,-11.48905123,-3.860113917,1,0,0,1,0,160,13,1,,,,,,,,
,,,,,,,,,,,,,FF,,,,,,,,1.0321,,,,,,,,,,,,,,,,,,,,,,6100a1f6c5c81614e604da15,61036d9296564cde52710f75,2021-07-29_21h11.39.915,Simcolourproject_2stim_asymm_v5,2020.2.10,Linux x86_64,60,61025ae37ef11b136ea224fe,,,,,,,,,1395,54.73135992,18.88925166,1,0,0,response1disk,,6,2.304210697,-4.508258458,1,0,0,rectangle,2.304210697,-4.508258458,1,0,0,2.304210697,-4.508258458,1,0,0,1,1,161,27,1,,,,,,,,
,,,,,,,,,,,,,FF,,,,,,,,0.8679,,,,,,,,,,,,,,,,,,,,,,6100a1f6c5c81614e604da15,61036d9296564cde52710f75,2021-07-29_21h11.39.915,Simcolourproject_2stim_asymm_v5,2020.2.10,Linux x86_64,60,61025ae37ef11b136ea224fe,,,,,,,,,957,48.03170161,-29.4766182,1,0,0,response3disk,,5,14.25245306,-6.00903973,1,0,0,rectangle,14.25245306,-6.00903973,1,0,0,14.25245306,-6.00903973,1,0,0,1,2,162,30,1,,,,,,,,
,,,,,,,,,,,,,FF,,,,,,,,2.1496,,,,,,,,,,,,,,,,,,,,,,6100a1f6c5c81614e604da15,61036d9296564cde52710f75,2021-07-29_21h11.39.915,Simcolourproject_2stim_asymm_v5,2020.2.10,Linux x86_64,60,61025ae37ef11b136ea224fe,,,,,,,,,4124,-54.57201085,-37.93433317,1,0,0,response5disk,,2,-4.182996431,-9.943317132,1,0,0,rectangle,-4.182996431,-9.943317132,1,0,0,-4.182996431,-9.943317132,1,0,0,1,3,163,74,1,,,,,,,,
,,,,,,,,,,,,,FF,,,,,,,,0.9136,,,,,,,,,,,,,,,,,,,,,,6100a1f6c5c81614e604da15,61036d9296564cde52710f75,2021-07-29_21h11.39.915,Simcolourproject_2stim_asymm_v5,2020.2.10,Linux x86_64,60,61025ae37ef11b136ea224fe,,,,,,,,,4087,99.74552074,-39.4952707,1,0,0,response3disk,,5,-1.983631164,-10.25132495,1,0,0,rectangle,-1.983631164,-10.25132495,1,0,0,-1.983631164,-10.25132495,1,0,0,1,4,164,107,1,,,,,,,,
,,,,,,,,,,,,,FF,,,,,,,,1.2677,,,,,,,,,,,,,,,,,,,,,,6100a1f6c5c81614e604da15,61036d9296564cde52710f75,2021-07-29_21h11.39.915,Simcolourproject_2stim_asymm_v5,2020.2.10,Linux x86_64,60,61025ae37ef11b136ea224fe,,,,,,,,,1476,43.11812732,-84.65576942,1,0,0,response3disk,,4,-11.16995943,5.515520989,1,0,0,rectangle,-11.16995943,5.515520989,1,0,0,-11.16995943,5.515520989,1,0,0,1,5,165,153,1,,,,,,,,
,,,,,,,,,,,,,FF,,,,,,,,2.6118,,,,,,,,,,,,,,,,,,,,,,6100a1f6c5c81614e604da15,61036d9296564cde52710f75,2021-07-29_21h11.39.915,Simcolourproject_2stim_asymm_v5,2020.2.10,Linux x86_64,60,61025ae37ef11b136ea224fe,,,,,,,,,1378,-52.41800692,-88.74995893,1,0,0,response5disk,,3,-6.528357794,-6.20337567,1,0,0,rectangle,-6.528357794,-6.20337567,1,0,0,-6.528357794,-6.20337567,1,0,0,1,6,166,113,1,,,,,,,,
,,,,,,,,,,,,,FF,,,,,,,,1.2667,,,,,,,,,,,,,,,,,,,,,,6100a1f6c5c81614e604da15,61036d9296564cde52710f75,2021-07-29_21h11.39.915,Simcolourproject_2stim_asymm_v5,2020.2.10,Linux x86_64,60,61025ae37ef11b136ea224fe,,,,,,,,,2130,89.32393856,46.6096134,1,0,0,response1disk,,6,32.92730686,9.388665578,1,0,0,rectangle,32.92730686,9.388665578,1,0,0,32.92730686,9.388665578,1,0,0,1,7,167,51,1,,,,,,,,
,,,,,,,,,,,,,FF,,,,,,,,2.1541,,,,,,,,,,,,,,,,,,,,,,6100a1f6c5c81614e604da15,61036d9296564cde52710f75,2021-07-29_21h11.39.915,Simcolourproject_2stim_asymm_v5,2020.2.10,Linux x86_64,60,61025ae37ef11b136ea224fe,,,,,,,,,2269,73.71065707,76.76339803,1,0,0,response1disk,,7,30.91109589,3.295061971,1,0,0,rectangle,30.91109589,3.295061971,1,0,0,30.91109589,3.295061971,1,0,0,1,8,168,63,1,,,,,,,,
,,,,,,,,,,,,,FF,,,,,,,,1.5799,,,,,,,,,,,,,,,,,,,,,,6100a1f6c5c81614e604da15,61036d9296564cde52710f75,2021-07-29_21h11.39.915,Simcolourproject_2stim_asymm_v5,2020.2.10,Linux x86_64,60,61025ae37ef11b136ea224fe,,,,,,,,,4113,99.06124339,64.03029237,1,0,0,response1disk,,6,29.22510954,9.056780807,1,0,0,rectangle,29.22510954,9.056780807,1,0,0,29.22510954,9.056780807,1,0,0,1,9,169,97,1,,,,,,,,
,,,,,,,,,,,,,FF,,,,,,,,0.7477,,,,,,,,,,,,,,,,,,,,,,6100a1f6c5c81614e604da15,61036d9296564cde52710f75,2021-07-29_21h11.39.915,Simcolourproject_2stim_asymm_v5,2020.2.10,Linux x86_64,60,61025ae37ef11b136ea224fe,,,,,,,,,3012,83.650208,39.21083399,1,0,0,response1disk,,6,30.69215057,4.786858868,1,0,0,rectangle,30.69215057,4.786858868,1,0,0,30.69215057,4.786858868,1,0,0,1,10,170,15,1,,,,,,,,
,,,,,,,,,,,,,FF,,,,,,,,0.611,,,,,,,,,,,,,,,,,,,,,,6100a1f6c5c81614e604da15,61036d9296564cde52710f75,2021-07-29_21h11.39.915,Simcolourproject_2stim_asymm_v5,2020.2.10,Linux x86_64,60,61025ae37ef11b136ea224fe,,,,,,,,,3806,108.5668099,58.12179619,1,0,0,response1disk,,6,24.973254,0.528802164,1,0,0,rectangle,24.973254,0.528802164,1,0,0,24.973254,0.528802164,1,0,0,1,11,171,39,1,,,,,,,,
,,,,,,,,,,,,,FF,,,,,,,,1.4199,,,,,,,,,,,,,,,,,,,,,,6100a1f6c5c81614e604da15,61036d9296564cde52710f75,2021-07-29_21h11.39.915,Simcolourproject_2stim_asymm_v5,2020.2.10,Linux x86_64,60,61025ae37ef11b136ea224fe,,,,,,,,,952,34.14117406,-61.23701907,1,0,0,response3disk,,4,-4.216590181,-5.566852223,1,0,0,rectangle,-4.216590181,-5.566852223,1,0,0,-4.216590181,-5.566852223,1,0,0,1,12,172,130,1,,,,,,,,
,,,,,,,,,,,,,FF,,,,,,,,0.8834,,,,,,,,,,,,,,,,,,,,,,6100a1f6c5c81614e604da15,61036d9296564cde52710f75,2021-07-29_21h11.39.915,Simcolourproject_2stim_asymm_v5,2020.2.10,Linux x86_64,60,61025ae37ef11b136ea224fe,,,,,,,,,3445,35.31109595,-55.81153071,1,0,0,response3disk,,4,-14.26541846,-2.690533821,1,0,0,rectangle,-14.26541846,-2.690533821,1,0,0,-14.26541846,-2.690533821,1,0,0,1,13,173,117,1,,,,,,,,
,,,,,,,,,,,,,FF,,,,,,,,1.5669,,,,,,,,,,,,,,,,,,,,,,6100a1f6c5c81614e604da15,61036d9296564cde52710f75,2021-07-29_21h11.39.915,Simcolourproject_2stim_asymm_v5,2020.2.10,Linux x86_64,60,61025ae37ef11b136ea224fe,,,,,,,,,2595,22.98780476,-63.48115973,1,0,0,response3disk,,4,-16.33831888,-2.643756477,1,0,0,rectangle,-16.33831888,-2.643756477,1,0,0,-16.33831888,-2.643756477,1,0,0,1,14,174,49,1,,,,,,,,
,,,,,,,,,,,,,FF,,,,,,,,1.0199,,,,,,,,,,,,,,,,,,,,,,6100a1f6c5c81614e604da15,61036d9296564cde52710f75,2021-07-29_21h11.39.915,Simcolourproject_2stim_asymm_v5,2020.2.10,Linux x86_64,60,61025ae37ef11b136ea224fe,,,,,,,,,198,-52.61576082,-82.21006626,1,0,0,response5disk,,3,-19.24222517,2.226067815,1,0,0,rectangle,-19.24222517,2.226067815,1,0,0,-19.24222517,2.226067815,1,0,0,1,15,175,38,1,,,,,,,,
,,,,,,,,,,,,,FF,,,,,,,,1.2793,,,,,,,,,,,,,,,,,,,,,,6100a1f6c5c81614e604da15,61036d9296564cde52710f75,2021-07-29_21h11.39.915,Simcolourproject_2stim_asymm_v5,2020.2.10,Linux x86_64,60,61025ae37ef11b136ea224fe,,,,,,,,,4109,86.26348929,51.50509687,1,0,0,response1disk,,6,8.804650247,-4.676276038,1,0,0,rectangle,8.804650247,-4.676276038,1,0,0,8.804650247,-4.676276038,1,0,0,1,16,176,62,1,,,,,,,,
,,,,,,,,,,,,,FF,,,,,,,,1.4323,,,,,,,,,,,,,,,,,,,,,,6100a1f6c5c81614e604da15,61036d9296564cde52710f75,2021-07-29_21h11.39.915,Simcolourproject_2stim_asymm_v5,2020.2.10,Linux x86_64,60,61025ae37ef11b136ea224fe,,,,,,,,,2772,-25.03094596,-54.7374096,1,0,0,response5disk,,3,-5.687537469,-1.422027943,1,0,0,rectangle,-5.687537469,-1.422027943,1,0,0,-5.687537469,-1.422027943,1,0,0,1,17,177,129,1,,,,,,,,
,,,,,,,,,,,,,FF,,,,,,,,1.0667,,,,,,,,,,,,,,,,,,,,,,6100a1f6c5c81614e604da15,61036d9296564cde52710f75,2021-07-29_21h11.39.915,Simcolourproject_2stim_asymm_v5,2020.2.10,Linux x86_64,60,61025ae37ef11b136ea224fe,,,,,,,,,1592,45.64849845,-33.25005576,1,0,0,response3disk,,5,0.878624738,-3.516852193,1,0,0,rectangle,0.878624738,-3.516852193,1,0,0,0.878624738,-3.516852193,1,0,0,1,18,178,24,1,,,,,,,,
,,,,,,,,,,,,,FF,,,,,,,,1.0788,,,,,,,,,,,,,,,,,,,,,,6100a1f6c5c81614e604da15,61036d9296564cde52710f75,2021-07-29_21h11.39.915,Simcolourproject_2stim_asymm_v5,2020.2.10,Linux x86_64,60,61025ae37ef11b136ea224fe,,,,,,,,,4211,77.01983681,27.19428108,1,0,0,response1disk,,6,-28.02494015,-0.138483002,1,0,0,rectangle,-28.02494015,-0.138483002,1,0,0,-28.02494015,-0.138483002,1,0,0,1,19,179,98,1,,,,,,,,
,,,,,,,,,,,,,FF,,,,,,,,2.1575,,,,,,,,,,,,,,,,,,,,,,6100a1f6c5c81614e604da15,61036d9296564cde52710f75,2021-07-29_21h11.39.915,Simcolourproject_2stim_asymm_v5,2020.2.10,Linux x86_64,60,61025ae37ef11b136ea224fe,,,,,,,,,2182,50.98677978,40.92885159,1,0,0,response1disk,,6,21.44200395,8.750384318,1,0,0,rectangle,21.44200395,8.750384318,1,0,0,21.44200395,8.750384318,1,0,0,1,20,180,118,1,,,,,,,,
,,,,,,,,,,,,,FF,,,,,,,,2.8886,,,,,,,,,,,,,,,,,,,,,,6100a1f6c5c81614e604da15,61036d9296564cde52710f75,2021-07-29_21h11.39.915,Simcolourproject_2stim_asymm_v5,2020.2.10,Linux x86_64,60,61025ae37ef11b136ea224fe,,,,,,,,,3101,39.71724836,75.28805621,1,0,0,response1disk,,7,-2.451160467,-12.74776053,1,0,0,rectangle,-2.451160467,-12.74776053,1,0,0,-2.451160467,-12.74776053,1,0,0,1,21,181,103,1,,,,,,,,
,,,,,,,,,,,,,FF,,,,,,,,2.7823,,,,,,,,,,,,,,,,,,,,,,6100a1f6c5c81614e604da15,61036d9296564cde52710f75,2021-07-29_21h11.39.915,Simcolourproject_2stim_asymm_v5,2020.2.10,Linux x86_64,60,61025ae37ef11b136ea224fe,,,,,,,,,1200,58.9464967,-67.04063244,1,0,0,response3disk,,4,9.422911975,-13.9094793,1,0,0,rectangle,9.422911975,-13.9094793,1,0,0,9.422911975,-13.9094793,1,0,0,1,22,182,102,1,,,,,,,,
,,,,,,,,,,,,,FF,,,,,,,,0.747,,,,,,,,,,,,,,,,,,,,,,6100a1f6c5c81614e604da15,61036d9296564cde52710f75,2021-07-29_21h11.39.915,Simcolourproject_2stim_asymm_v5,2020.2.10,Linux x86_64,60,61025ae37ef11b136ea224fe,,,,,,,,,127,57.44034433,-44.68086648,1,0,0,response3disk,,5,-9.525867604,9.309075733,1,0,0,rectangle,-9.525867604,9.309075733,1,0,0,-9.525867604,9.309075733,1,0,0,1,23,183,144,1,,,,,,,,
,,,,,,,,,,,,,FF,,,,,,,,0.8051,,,,,,,,,,,,,,,,,,,,,,6100a1f6c5c81614e604da15,61036d9296564cde52710f75,2021-07-29_21h11.39.915,Simcolourproject_2stim_asymm_v5,2020.2.10,Linux x86_64,60,61025ae37ef11b136ea224fe,,,,,,,,,1737,-44.66043844,-46.50904033,1,0,0,response5disk,,3,5.414806447,7.9620054,1,0,0,rectangle,5.414806447,7.9620054,1,0,0,5.414806447,7.9620054,1,0,0,1,24,184,119,1,,,,,,,,
,,,,,,,,,,,,,FF,,,,,,,,1.2994,,,,,,,,,,,,,,,,,,,,,,6100a1f6c5c81614e604da15,61036d9296564cde52710f75,2021-07-29_21h11.39.915,Simcolourproject_2stim_asymm_v5,2020.2.10,Linux x86_64,60,61025ae37ef11b136ea224fe,,,,,,,,,1490,64.96759054,-42.16060277,1,0,0,response3disk,,5,14.80816596,3.843352995,1,0,0,rectangle,14.80816596,3.843352995,1,0,0,14.80816596,3.843352995,1,0,0,1,25,185,127,1,,,,,,,,
,,,,,,,,,,,,,FF,,,,,,,,1.5744,,,,,,,,,,,,,,,,,,,,,,6100a1f6c5c81614e604da15,61036d9296564cde52710f75,2021-07-29_21h11.39.915,Simcolourproject_2stim_asymm_v5,2020.2.10,Linux x86_64,60,61025ae37ef11b136ea224fe,,,,,,,,,987,16.96627146,-67.80830823,1,0,0,response3disk,,4,-0.751844036,-0.277203707,1,0,0,rectangle,-0.751844036,-0.277203707,1,0,0,-0.751844036,-0.277203707,1,0,0,1,26,186,128,1,,,,,,,,
,,,,,,,,,,,,,FF,,,,,,,,1.0793,,,,,,,,,,,,,,,,,,,,,,6100a1f6c5c81614e604da15,61036d9296564cde52710f75,2021-07-29_21h11.39.915,Simcolourproject_2stim_asymm_v5,2020.2.10,Linux x86_64,60,61025ae37ef11b136ea224fe,,,,,,,,,2778,-45.92118065,-57.70015378,1,0,0,response5disk,,3,-10.46659027,-4.717096351,1,0,0,rectangle,-10.46659027,-4.717096351,1,0,0,-10.46659027,-4.717096351,1,0,0,1,27,187,154,1,,,,,,,,
,,,,,,,,,,,,,FF,,,,,,,,1.2181,,,,,,,,,,,,,,,,,,,,,,6100a1f6c5c81614e604da15,61036d9296564cde52710f75,2021-07-29_21h11.39.915,Simcolourproject_2stim_asymm_v5,2020.2.10,Linux x86_64,60,61025ae37ef11b136ea224fe,,,,,,,,,1438,-27.47952998,-80.89649202,1,0,0,response5disk,,3,0.480284889,-15.19981135,1,0,0,rectangle,0.480284889,-15.19981135,1,0,0,0.480284889,-15.19981135,1,0,0,1,28,188,121,1,,,,,,,,
,,,,,,,,,,,,,FF,,,,,,,,1.4835,,,,,,,,,,,,,,,,,,,,,,6100a1f6c5c81614e604da15,61036d9296564cde52710f75,2021-07-29_21h11.39.915,Simcolourproject_2stim_asymm_v5,2020.2.10,Linux x86_64,60,61025ae37ef11b136ea224fe,,,,,,,,,2794,31.00904511,-78.5631912,1,0,0,response3disk,,4,1.563927483,-2.725006478,1,0,0,rectangle,1.563927483,-2.725006478,1,0,0,1.563927483,-2.725006478,1,0,0,1,29,189,44,1,,,,,,,,
,,,,,,,,,,,,,FF,,,,,,,,0.9554,,,,,,,,,,,,,,,,,,,,,,6100a1f6c5c81614e604da15,61036d9296564cde52710f75,2021-07-29_21h11.39.915,Simcolourproject_2stim_asymm_v5,2020.2.10,Linux x86_64,60,61025ae37ef11b136ea224fe,,,,,,,,,862,-23.44339711,-53.76680411,1,0,0,response5disk,,3,-0.804431927,-0.763385355,1,0,0,rectangle,-0.804431927,-0.763385355,1,0,0,-0.804431927,-0.763385355,1,0,0,1,30,190,58,1,,,,,,,,
,,,,,,,,,,,,,FF,,,,,,,,0.7768,,,,,,,,,,,,,,,,,,,,,,6100a1f6c5c81614e604da15,61036d9296564cde52710f75,2021-07-29_21h11.39.915,Simcolourproject_2stim_asymm_v5,2020.2.10,Linux x86_64,60,61025ae37ef11b136ea224fe,,,,,,,,,1154,37.11475809,-45.90088603,1,0,0,response3disk,,4,1.011241928,1.981780702,1,0,0,rectangle,1.011241928,1.981780702,1,0,0,1.011241928,1.981780702,1,0,0,1,31,191,96,1,,,,,,,,
,,,,,,,,,,,,,FF,,,,,,,,0.8476,,,,,,,,,,,,,,,,,,,,,,6100a1f6c5c81614e604da15,61036d9296564cde52710f75,2021-07-29_21h11.39.915,Simcolourproject_2stim_asymm_v5,2020.2.10,Linux x86_64,60,61025ae37ef11b136ea224fe,,,,,,,,,486,29.45845915,-68.33032972,1,0,0,response3disk,,4,19.5966426,-8.673004613,1,0,0,rectangle,19.5966426,-8.673004613,1,0,0,19.5966426,-8.673004613,1,0,0,1,32,192,28,1,,,,,,,,
,,,,,,,,,,,,,FF,,,,,,,,1.5477,,,,,,,,,,,,,,,,,,,,,,6100a1f6c5c81614e604da15,61036d9296564cde52710f75,2021-07-29_21h11.39.915,Simcolourproject_2stim_asymm_v5,2020.2.10,Linux x86_64,60,61025ae37ef11b136ea224fe,,,,,,,,,1954,-23.8822643,-46.33159892,1,0,0,response5disk,,3,14.75489448,-10.277448,1,0,0,rectangle,14.75489448,-10.277448,1,0,0,14.75489448,-10.277448,1,0,0,1,33,193,115,1,,,,,,,,
,,,,,,,,,,,,,FF,,,,,,,,2.0626,,,,,,,,,,,,,,,,,,,,,,6100a1f6c5c81614e604da15,61036d9296564cde52710f75,2021-07-29_21h11.39.915,Simcolourproject_2stim_asymm_v5,2020.2.10,Linux x86_64,60,61025ae37ef11b136ea224fe,,,,,,,,,557,-21.64066271,-90.62056443,1,0,0,response5disk,,3,11.43316591,-7.091412793,1,0,0,rectangle,11.43316591,-7.091412793,1,0,0,11.43316591,-7.091412793,1,0,0,1,34,194,87,1,,,,,,,,
,,,,,,,,,,,,,FF,,,,,,,,1.3837,,,,,,,,,,,,,,,,,,,,,,6100a1f6c5c81614e604da15,61036d9296564cde52710f75,2021-07-29_21h11.39.915,Simcolourproject_2stim_asymm_v5,2020.2.10,Linux x86_64,60,61025ae37ef11b136ea224fe,,,,,,,,,2832,-61.34618088,21.22308958,1,0,0,response7disk,,1,-15.27948097,-11.90132497,1,0,0,rectangle,-15.27948097,-11.90132497,1,0,0,-15.27948097,-11.90132497,1,0,0,1,35,195,85,1,,,,,,,,
,,,,,,,,,,,,,FF,,,,,,,,1.2316,,,,,,,,,,,,,,,,,,,,,,6100a1f6c5c81614e604da15,61036d9296564cde52710f75,2021-07-29_21h11.39.915,Simcolourproject_2stim_asymm_v5,2020.2.10,Linux x86_64,60,61025ae37ef11b136ea224fe,,,,,,,,,2567,118.9838999,29.64601451,1,0,0,response1disk,,6,-4.980506208,-4.185651031,1,0,0,rectangle,-4.980506208,-4.185651031,1,0,0,-4.980506208,-4.185651031,1,0,0,1,36,196,83,1,,,,,,,,
,,,,,,,,,,,,,FF,,,,,,,,1.0495,,,,,,,,,,,,,,,,,,,,,,6100a1f6c5c81614e604da15,61036d9296564cde52710f75,2021-07-29_21h11.39.915,Simcolourproject_2stim_asymm_v5,2020.2.10,Linux x86_64,60,61025ae37ef11b136ea224fe,,,,,,,,,1433,45.39327384,-33.8438546,1,0,0,response3disk,,5,9.558214712,-3.700641258,1,0,0,rectangle,9.558214712,-3.700641258,1,0,0,9.558214712,-3.700641258,1,0,0,1,37,197,19,1,,,,,,,,
,,,,,,,,,,,,,FF,,,,,,,,1.1331,,,,,,,,,,,,,,,,,,,,,,6100a1f6c5c81614e604da15,61036d9296564cde52710f75,2021-07-29_21h11.39.915,Simcolourproject_2stim_asymm_v5,2020.2.10,Linux x86_64,60,61025ae37ef11b136ea224fe,,,,,,,,,903,57.72960215,31.5742372,1,0,0,response1disk,,6,28.77877164,7.577728051,1,0,0,rectangle,28.77877164,7.577728051,1,0,0,28.77877164,7.577728051,1,0,0,1,38,198,88,1,,,,,,,,
,,,,,,,,,,,,,FF,,,,,,,,0.914,,,,,,,,,,,,,,,,,,,,,,6100a1f6c5c81614e604da15,61036d9296564cde52710f75,2021-07-29_21h11.39.915,Simcolourproject_2stim_asymm_v5,2020.2.10,Linux x86_64,60,61025ae37ef11b136ea224fe,,,,,,,,,1658,59.39913342,16.59984733,1,0,0,response1disk,,6,17.00562693,-5.598639333,1,0,0,rectangle,70.2618289,98.70812492,1,0,0,9.261193223,-0.38081699,1,0,0,1,39,199,70,1,,response1disk_3,TRUE,7,7,"[227,4,0,40,67,31,219,294,13,22,200,107,78,291,109,309,62,89,308,258]",2.0496,rectangle
,,,,,,,,,,,,,FF,,,,,,,,1.1895,,,,,,,,,,,,,,,,,,,,,,6100a1f6c5c81614e604da15,61036d9296564cde52710f75,2021-07-29_21h11.39.915,Simcolourproject_2stim_asymm_v5,2020.2.10,Linux x86_64,60,61025ae37ef11b136ea224fe,,,,,,,,,626,53.89630131,-22.54732123,1,0,0,response3disk,,5,2.348595463,0.767132246,1,0,0,rectangle,2.348595463,0.767132246,1,0,0,2.348595463,0.767132246,1,0,0,1,40,200,1,1,,,,,,,,
,,,,,,,,,,,,,FF,,,,,,,,1.1164,,,,,,,,,,,,,,,,,,,,,,6100a1f6c5c81614e604da15,61036d9296564cde52710f75,2021-07-29_21h11.39.915,Simcolourproject_2stim_asymm_v5,2020.2.10,Linux x86_64,60,61025ae37ef11b136ea224fe,,,,,,,,,266,-65.6318743,-56.13350337,1,0,0,response5disk,,2,8.858117045,-5.713971366,1,0,0,rectangle,8.858117045,-5.713971366,1,0,0,8.858117045,-5.713971366,1,0,0,1,41,201,104,1,,,,,,,,
,,,,,,,,,,,,,FF,,,,,,,,1.5163,,,,,,,,,,,,,,,,,,,,,,6100a1f6c5c81614e604da15,61036d9296564cde52710f75,2021-07-29_21h11.39.915,Simcolourproject_2stim_asymm_v5,2020.2.10,Linux x86_64,60,61025ae37ef11b136ea224fe,,,,,,,,,2563,-47.0229873,-34.96109094,1,0,0,response5disk,,2,0.017638397,-13.59204766,1,0,0,rectangle,0.017638397,-13.59204766,1,0,0,0.017638397,-13.59204766,1,0,0,1,42,202,48,1,,,,,,,,
,,,,,,,,,,,,,FF,,,,,,,,1.1971,,,,,,,,,,,,,,,,,,,,,,6100a1f6c5c81614e604da15,61036d9296564cde52710f75,2021-07-29_21h11.39.915,Simcolourproject_2stim_asymm_v5,2020.2.10,Linux x86_64,60,61025ae37ef11b136ea224fe,,,,,,,,,3132,75.70987585,77.16200643,1,0,0,response1disk,,7,6.180870911,7.443450705,1,0,0,rectangle,6.180870911,7.443450705,1,0,0,6.180870911,7.443450705,1,0,0,1,43,203,35,1,,,,,,,,
,,,,,,,,,,,,,FF,,,,,,,,0.8034,,,,,,,,,,,,,,,,,,,,,,6100a1f6c5c81614e604da15,61036d9296564cde52710f75,2021-07-29_21h11.39.915,Simcolourproject_2stim_asymm_v5,2020.2.10,Linux x86_64,60,61025ae37ef11b136ea224fe,,,,,,,,,220,58.5201295,42.82850983,1,0,0,response1disk,,6,15.96758981,12.50145859,1,0,0,rectangle,15.96758981,12.50145859,1,0,0,15.96758981,12.50145859,1,0,0,1,44,204,81,1,,,,,,,,
,,,,,,,,,,,,,FF,,,,,,,,1.6573,,,,,,,,,,,,,,,,,,,,,,6100a1f6c5c81614e604da15,61036d9296564cde52710f75,2021-07-29_21h11.39.915,Simcolourproject_2stim_asymm_v5,2020.2.10,Linux x86_64,60,61025ae37ef11b136ea224fe,,,,,,,,,336,57.27940683,-37.39400114,1,0,0,response3disk,,5,5.784484187,6.16156592,1,0,0,rectangle,5.784484187,6.16156592,1,0,0,5.784484187,6.16156592,1,0,0,1,45,205,33,1,,,,,,,,
,,,,,,,,,,,,,FF,,,,,,,,1.5336,,,,,,,,,,,,,,,,,,,,,,6100a1f6c5c81614e604da15,61036d9296564cde52710f75,2021-07-29_21h11.39.915,Simcolourproject_2stim_asymm_v5,2020.2.10,Linux x86_64,60,61025ae37ef11b136ea224fe,,,,,,,,,4331,53.07149661,-63.39629644,1,0,0,response3disk,,4,7.422911945,-11.98902029,1,0,0,rectangle,7.422911945,-11.98902029,1,0,0,7.422911945,-11.98902029,1,0,0,1,46,206,43,1,,,,,,,,
,,,,,,,,,,,,,FF,,,,,,,,1.1936,,,,,,,,,,,,,,,,,,,,,,6100a1f6c5c81614e604da15,61036d9296564cde52710f75,2021-07-29_21h11.39.915,Simcolourproject_2stim_asymm_v5,2020.2.10,Linux x86_64,60,61025ae37ef11b136ea224fe,,,,,,,,,666,52.27647707,-52.94776113,1,0,0,response3disk,,4,24.02696493,12.15858749,1,0,0,rectangle,24.02696493,12.15858749,1,0,0,24.02696493,12.15858749,1,0,0,1,47,207,122,1,,,,,,,,
,,,,,,,,,,,,,FF,,,,,,,,2.7355,,,,,,,,,,,,,,,,,,,,,,6100a1f6c5c81614e604da15,61036d9296564cde52710f75,2021-07-29_21h11.39.915,Simcolourproject_2stim_asymm_v5,2020.2.10,Linux x86_64,60,61025ae37ef11b136ea224fe,,,,,,,,,915,49.95172117,-50.77442126,1,0,0,response3disk,,4,7.478478352,-6.046344418,1,0,0,rectangle,7.478478352,-6.046344418,1,0,0,7.478478352,-6.046344418,1,0,0,1,48,208,124,1,,,,,,,,
,,,,,,,,,,,,,FF,,,,,,,,1.3902,,,,,,,,,,,,,,,,,,,,,,6100a1f6c5c81614e604da15,61036d9296564cde52710f75,2021-07-29_21h11.39.915,Simcolourproject_2stim_asymm_v5,2020.2.10,Linux x86_64,60,61025ae37ef11b136ea224fe,,,,,,,,,863,36.02745339,-65.96651133,1,0,0,response3disk,,4,-3.087146805,2.470159615,1,0,0,rectangle,-3.087146805,2.470159615,1,0,0,-3.087146805,2.470159615,1,0,0,1,49,209,114,1,,,,,,,,
,,,,,,,,,,,,,FF,,,,,,,,1.0333,,,,,,,,,,,,,,,,,,,,,,6100a1f6c5c81614e604da15,61036d9296564cde52710f75,2021-07-29_21h11.39.915,Simcolourproject_2stim_asymm_v5,2020.2.10,Linux x86_64,60,61025ae37ef11b136ea224fe,,,,,,,,,1061,-92.04911102,-103.5285724,1,0,0,response5disk,,3,-16.70584818,-11.56148122,1,0,0,rectangle,-16.70584818,-11.56148122,1,0,0,-16.70584818,-11.56148122,1,0,0,1,50,210,50,1,,,,,,,,
,,,,,,,,,,,,,FF,,,,,,,,1.5334,,,,,,,,,,,,,,,,,,,,,,6100a1f6c5c81614e604da15,61036d9296564cde52710f75,2021-07-29_21h11.39.915,Simcolourproject_2stim_asymm_v5,2020.2.10,Linux x86_64,60,61025ae37ef11b136ea224fe,,,,,,,,,3268,90.93009092,87.23976537,1,0,0,response1disk,,6,8.863536967,2.500872506,1,0,0,rectangle,8.863536967,2.500872506,1,0,0,8.863536967,2.500872506,1,0,0,1,51,211,5,1,,,,,,,,
,,,,,,,,,,,,,FF,,,,,,,,1.1721,,,,,,,,,,,,,,,,,,,,,,6100a1f6c5c81614e604da15,61036d9296564cde52710f75,2021-07-29_21h11.39.915,Simcolourproject_2stim_asymm_v5,2020.2.10,Linux x86_64,60,61025ae37ef11b136ea224fe,,,,,,,,,492,22.30225787,34.24342669,1,0,0,response1disk,,7,-3.060926102,6.902776869,1,0,0,rectangle,-3.060926102,6.902776869,1,0,0,-3.060926102,6.902776869,1,0,0,1,52,212,84,1,,,,,,,,
,,,,,,,,,,,,,FF,,,,,,,,1.2993,,,,,,,,,,,,,,,,,,,,,,6100a1f6c5c81614e604da15,61036d9296564cde52710f75,2021-07-29_21h11.39.915,Simcolourproject_2stim_asymm_v5,2020.2.10,Linux x86_64,60,61025ae37ef11b136ea224fe,,,,,,,,,2128,83.54952441,78.11520469,1,0,0,response1disk,,6,-4.3976937,10.99901716,1,0,0,rectangle,-4.3976937,10.99901716,1,0,0,-4.3976937,10.99901716,1,0,0,1,53,213,147,1,,,,,,,,
,,,,,,,,,,,,,FF,,,,,,,,1.9828,,,,,,,,,,,,,,,,,,,,,,6100a1f6c5c81614e604da15,61036d9296564cde52710f75,2021-07-29_21h11.39.915,Simcolourproject_2stim_asymm_v5,2020.2.10,Linux x86_64,60,61025ae37ef11b136ea224fe,,,,,,,,,4210,72.23878205,48.48529702,1,0,0,response1disk,,6,22.58209186,10.03866559,1,0,0,rectangle,22.58209186,10.03866559,1,0,0,22.58209186,10.03866559,1,0,0,1,54,214,157,1,,,,,,,,
,,,,,,,,,,,,,FF,,,,,,,,1.2569,,,,,,,,,,,,,,,,,,,,,,6100a1f6c5c81614e604da15,61036d9296564cde52710f75,2021-07-29_21h11.39.915,Simcolourproject_2stim_asymm_v5,2020.2.10,Linux x86_64,60,61025ae37ef11b136ea224fe,,,,,,,,,1636,49.16607663,59.49769953,1,0,0,response1disk,,7,8.681212745,-10.18604175,1,0,0,rectangle,8.681212745,-10.18604175,1,0,0,8.681212745,-10.18604175,1,0,0,1,55,215,90,1,,,,,,,,
,,,,,,,,,,,,,FF,,,,,,,,1.4888,,,,,,,,,,,,,,,,,,,,,,6100a1f6c5c81614e604da15,61036d9296564cde52710f75,2021-07-29_21h11.39.915,Simcolourproject_2stim_asymm_v5,2020.2.10,Linux x86_64,60,61025ae37ef11b136ea224fe,,,,,,,,,3217,29.95997283,-27.43970411,1,0,0,response3disk,,5,7.721447106,-8.98779954,1,0,0,rectangle,7.721447106,-8.98779954,1,0,0,7.721447106,-8.98779954,1,0,0,1,56,216,93,1,,,,,,,,
,,,,,,,,,,,,,FF,,,,,,,,1.0346,,,,,,,,,,,,,,,,,,,,,,6100a1f6c5c81614e604da15,61036d9296564cde52710f75,2021-07-29_21h11.39.915,Simcolourproject_2stim_asymm_v5,2020.2.10,Linux x86_64,60,61025ae37ef11b136ea224fe,,,,,,,,,2958,40.91217026,43.12477448,1,0,0,response1disk,,7,17.05342967,8.09877298,1,0,0,rectangle,17.05342967,8.09877298,1,0,0,17.05342967,8.09877298,1,0,0,1,57,217,42,1,,,,,,,,
,,,,,,,,,,,,,FF,,,,,,,,1.4667,,,,,,,,,,,,,,,,,,,,,,6100a1f6c5c81614e604da15,61036d9296564cde52710f75,2021-07-29_21h11.39.915,Simcolourproject_2stim_asymm_v5,2020.2.10,Linux x86_64,60,61025ae37ef11b136ea224fe,,,,,,,,,1036,-42.41410052,-58.74868895,1,0,0,response5disk,,3,-3.494910483,8.217034701,1,0,0,rectangle,-23.8095104,-49.13125717,1,0,0,-10.04784027,-3.960797512,1,0,0,1,58,218,23,1,,response5disk_3,TRUE,3,3,"[227,4,0,40,67,31,219,294,13,22,200,107,78,291,109,309,62,89,308,258]",2.0254,rectangle
,,,,,,,,,,,,,FF,,,,,,,,1.1104,,,,,,,,,,,,,,,,,,,,,,6100a1f6c5c81614e604da15,61036d9296564cde52710f75,2021-07-29_21h11.39.915,Simcolourproject_2stim_asymm_v5,2020.2.10,Linux x86_64,60,61025ae37ef11b136ea224fe,,,,,,,,,4089,-43.69266499,-37.40474332,1,0,0,response5disk,,2,-20.11576034,11.08182967,1,0,0,rectangle,-20.11576034,11.08182967,1,0,0,-20.11576034,11.08182967,1,0,0,1,59,219,71,1,,,,,,,,
,,,,,,,,,,,,,FF,,,,,,,,2.0662,,,,,,,,,,,,,,,,,,,,,,6100a1f6c5c81614e604da15,61036d9296564cde52710f75,2021-07-29_21h11.39.915,Simcolourproject_2stim_asymm_v5,2020.2.10,Linux x86_64,60,61025ae37ef11b136ea224fe,,,,,,,,,301,57.11065683,23.00075074,1,0,0,response1disk,,6,21.96754107,-5.111725263,1,0,0,rectangle,21.96754107,-5.111725263,1,0,0,21.96754107,-5.111725263,1,0,0,1,60,220,3,1,,,,,,,,
,,,,,,,,,,,,,FF,,,,,,,,1.7702,,,,,,,,,,,,,,,,,,,,,,6100a1f6c5c81614e604da15,61036d9296564cde52710f75,2021-07-29_21h11.39.915,Simcolourproject_2stim_asymm_v5,2020.2.10,Linux x86_64,60,61025ae37ef11b136ea224fe,,,,,,,,,4322,21.96754107,-28.1111885,1,0,0,response3disk,,4,6.488243963,11.57264999,1,0,0,rectangle,6.488243963,11.57264999,1,0,0,6.488243963,11.57264999,1,0,0,1,61,221,34,1,,,,,,,,
,,,,,,,,,,,,,FF,,,,,,,,0.9754,,,,,,,,,,,,,,,,,,,,,,6100a1f6c5c81614e604da15,61036d9296564cde52710f75,2021-07-29_21h11.39.915,Simcolourproject_2stim_asymm_v5,2020.2.10,Linux x86_64,60,61025ae37ef11b136ea224fe,,,,,,,,,1231,-71.16190368,-32.33257528,1,0,0,response5disk,,2,-3.774109706,1.919427185,1,0,0,rectangle,-3.774109706,1.919427185,1,0,0,-3.774109706,1.919427185,1,0,0,1,62,222,158,1,,,,,,,,
,,,,,,,,,,,,,FF,,,,,,,,1.2929,,,,,,,,,,,,,,,,,,,,,,6100a1f6c5c81614e604da15,61036d9296564cde52710f75,2021-07-29_21h11.39.915,Simcolourproject_2stim_asymm_v5,2020.2.10,Linux x86_64,60,61025ae37ef11b136ea224fe,,,,,,,,,1447,-33.64896367,26.70275275,1,0,0,response7disk,,1,-9.018787518,2.318841254,1,0,0,rectangle,-9.018787518,2.318841254,1,0,0,-9.018787518,2.318841254,1,0,0,1,63,223,152,1,,,,,,,,
,,,,,,,,,,,,,FF,,,,,,,,2.7016,,,,,,,,,,,,,,,,,,,,,,6100a1f6c5c81614e604da15,61036d9296564cde52710f75,2021-07-29_21h11.39.915,Simcolourproject_2stim_asymm_v5,2020.2.10,Linux x86_64,60,61025ae37ef11b136ea224fe,,,,,,,,,1801,103.6538216,-33.97866905,1,0,0,response3disk,,5,9.016564313,-7.326031937,1,0,0,rectangle,9.016564313,-7.326031937,1,0,0,9.016564313,-7.326031937,1,0,0,1,64,224,76,1,,,,,,,,
,,,,,,,,,,,,,FF,,,,,,,,0.9747,,,,,,,,,,,,,,,,,,,,,,6100a1f6c5c81614e604da15,61036d9296564cde52710f75,2021-07-29_21h11.39.915,Simcolourproject_2stim_asymm_v5,2020.2.10,Linux x86_64,60,61025ae37ef11b136ea224fe,,,,,,,,,1267,-27.74027217,-46.70694073,1,0,0,response5disk,,3,-10.54569184,-9.896539788,1,0,0,rectangle,-10.54569184,-9.896539788,1,0,0,-10.54569184,-9.896539788,1,0,0,1,65,225,73,1,,,,,,,,
,,,,,,,,,,,,,FF,,,,,,,,3.1965,,,,,,,,,,,,,,,,,,,,,,6100a1f6c5c81614e604da15,61036d9296564cde52710f75,2021-07-29_21h11.39.915,Simcolourproject_2stim_asymm_v5,2020.2.10,Linux x86_64,60,61025ae37ef11b136ea224fe,,,,,,,,,1185,74.44425083,-27.6117256,1,0,0,response3disk,,5,15.77642769,-7.731354209,1,0,0,rectangle,-42.13114153,-32.93643271,1,0,0,-8.081433989,-14.20698907,1,0,0,1,66,226,95,1,,response5disk_3,TRUE,2,2,"[227,4,0,40,67,31,219,294,13,22,200,107,78,291,109,309,62,89,308,258]",2.0468,rectangle
,,,,,,,,,,,,,FF,,,,,,,,1.5875,,,,,,,,,,,,,,,,,,,,,,6100a1f6c5c81614e604da15,61036d9296564cde52710f75,2021-07-29_21h11.39.915,Simcolourproject_2stim_asymm_v5,2020.2.10,Linux x86_64,60,61025ae37ef11b136ea224fe,,,,,,,,,57,-104.5942772,-46.95352276,1,0,0,response5disk,,2,-16.29412942,9.431097219,1,0,0,rectangle,-16.29412942,9.431097219,1,0,0,-16.29412942,9.431097219,1,0,0,1,67,227,57,1,,,,,,,,
,,,,,,,,,,,,,FF,,,,,,,,1.1985,,,,,,,,,,,,,,,,,,,,,,6100a1f6c5c81614e604da15,61036d9296564cde52710f75,2021-07-29_21h11.39.915,Simcolourproject_2stim_asymm_v5,2020.2.10,Linux x86_64,60,61025ae37ef11b136ea224fe,,,,,,,,,2169,-54.78421789,-36.03653041,1,0,0,response5disk,,2,-9.70365081,12.00414413,1,0,0,rectangle,-9.70365081,12.00414413,1,0,0,-9.70365081,12.00414413,1,0,0,1,68,228,72,1,,,,,,,,
,,,,,,,,,,,,,FF,,,,,,,,0.9756,,,,,,,,,,,,,,,,,,,,,,6100a1f6c5c81614e604da15,61036d9296564cde52710f75,2021-07-29_21h11.39.915,Simcolourproject_2stim_asymm_v5,2020.2.10,Linux x86_64,60,61025ae37ef11b136ea224fe,,,,,,,,,3992,-64.66429616,-31.47300495,1,0,0,response5disk,,2,-16.60160013,13.27748399,1,0,0,rectangle,-16.60160013,13.27748399,1,0,0,-16.60160013,13.27748399,1,0,0,1,69,229,134,1,,,,,,,,
,,,,,,,,,,,,,FF,,,,,,,,1.5688,,,,,,,,,,,,,,,,,,,,,,6100a1f6c5c81614e604da15,61036d9296564cde52710f75,2021-07-29_21h11.39.915,Simcolourproject_2stim_asymm_v5,2020.2.10,Linux x86_64,60,61025ae37ef11b136ea224fe,,,,,,,,,804,-65.99393485,114.9723097,1,0,0,response7disk,,0,-28.92772336,11.53197616,1,0,0,rectangle,-28.92772336,11.53197616,1,0,0,-28.92772336,11.53197616,1,0,0,1,70,230,25,1,,,,,,,,
,,,,,,,,,,,,,FF,,,,,,,,1.6166,,,,,,,,,,,,,,,,,,,,,,6100a1f6c5c81614e604da15,61036d9296564cde52710f75,2021-07-29_21h11.39.915,Simcolourproject_2stim_asymm_v5,2020.2.10,Linux x86_64,60,61025ae37ef11b136ea224fe,,,,,,,,,1123,-64.04579029,27.41244514,1,0,0,response7disk,,1,-25.6865612,-3.266852189,1,0,0,rectangle,-25.6865612,-3.266852189,1,0,0,-25.6865612,-3.266852189,1,0,0,1,71,231,142,1,,,,,,,,
,,,,,,,,,,,,,FF,,,,,,,,1.0159,,,,,,,,,,,,,,,,,,,,,,6100a1f6c5c81614e604da15,61036d9296564cde52710f75,2021-07-29_21h11.39.915,Simcolourproject_2stim_asymm_v5,2020.2.10,Linux x86_64,60,61025ae37ef11b136ea224fe,,,,,,,,,2556,-93.08197236,34.90099506,1,0,0,response7disk,,1,-11.39471529,-5.682037772,1,0,0,rectangle,-11.39471529,-5.682037772,1,0,0,-11.39471529,-5.682037772,1,0,0,1,72,232,75,1,,,,,,,,
,,,,,,,,,,,,,FF,,,,,,,,1.5319,,,,,,,,,,,,,,,,,,,,,,6100a1f6c5c81614e604da15,61036d9296564cde52710f75,2021-07-29_21h11.39.915,Simcolourproject_2stim_asymm_v5,2020.2.10,Linux x86_64,60,61025ae37ef11b136ea224fe,,,,,,,,,1683,-90.37860318,20.66610715,1,0,0,response7disk,,1,-35.57523323,5.019427231,1,0,0,rectangle,-35.57523323,5.019427231,1,0,0,-35.57523323,5.019427231,1,0,0,1,73,233,17,1,,,,,,,,
,,,,,,,,,,,,,FF,,,,,,,,1.733,,,,,,,,,,,,,,,,,,,,,,6100a1f6c5c81614e604da15,61036d9296564cde52710f75,2021-07-29_21h11.39.915,Simcolourproject_2stim_asymm_v5,2020.2.10,Linux x86_64,60,61025ae37ef11b136ea224fe,,,,,,,,,2803,40.60552963,-85.62315224,1,0,0,response3disk,,4,1.681847407,-6.5381413,1,0,0,rectangle,1.681847407,-6.5381413,1,0,0,1.681847407,-6.5381413,1,0,0,1,74,234,52,1,,,,,,,,
,,,,,,,,,,,,,FF,,,,,,,,1.3181,,,,,,,,,,,,,,,,,,,,,,6100a1f6c5c81614e604da15,61036d9296564cde52710f75,2021-07-29_21h11.39.915,Simcolourproject_2stim_asymm_v5,2020.2.10,Linux x86_64,60,61025ae37ef11b136ea224fe,,,,,,,,,832,39.85303938,-27.83433302,1,0,0,response3disk,,5,-6.158680054,-0.494635351,1,0,0,rectangle,-6.158680054,-0.494635351,1,0,0,-6.158680054,-0.494635351,1,0,0,1,75,235,61,1,,,,,,,,
,,,,,,,,,,,,,FF,,,,,,,,1.1489,,,,,,,,,,,,,,,,,,,,,,6100a1f6c5c81614e604da15,61036d9296564cde52710f75,2021-07-29_21h11.39.915,Simcolourproject_2stim_asymm_v5,2020.2.10,Linux x86_64,60,61025ae37ef11b136ea224fe,,,,,,,,,79,-69.46292904,30.60216687,1,0,0,response7disk,,1,-25.80326042,-0.044733,1,0,0,rectangle,-25.80326042,-0.044733,1,0,0,-25.80326042,-0.044733,1,0,0,1,76,236,101,1,,,,,,,,
,,,,,,,,,,,,,FF,,,,,,,,1.4497,,,,,,,,,,,,,,,,,,,,,,6100a1f6c5c81614e604da15,61036d9296564cde52710f75,2021-07-29_21h11.39.915,Simcolourproject_2stim_asymm_v5,2020.2.10,Linux x86_64,60,61025ae37ef11b136ea224fe,,,,,,,,,1694,50.20567625,36.5527529,1,0,0,response1disk,,6,-8.049988676,2.883929153,1,0,0,rectangle,-8.049988676,2.883929153,1,0,0,-8.049988676,2.883929153,1,0,0,1,77,237,91,1,,,,,,,,
,,,,,,,,,,,,,FF,,,,,,,,1.3548,,,,,,,,,,,,,,,,,,,,,,6100a1f6c5c81614e604da15,61036d9296564cde52710f75,2021-07-29_21h11.39.915,Simcolourproject_2stim_asymm_v5,2020.2.10,Linux x86_64,60,61025ae37ef11b136ea224fe,,,,,,,,,1997,39.32178937,32.1358583,1,0,0,response1disk,,6,7.881408046,0.844378341,1,0,0,rectangle,7.881408046,0.844378341,1,0,0,7.881408046,0.844378341,1,0,0,1,78,238,106,1,,,,,,,,
