key_resp.keys,key_resp.rt,key_resp_14.keys,key_resp_14.rt,key_resp_15.keys,key_resp_15.rt,key_resp_17.keys,key_resp_17.rt,key_resp_9.keys,key_resp_9.rt,key_resp_10.keys,key_resp_10.rt,practice_comparison,Ecc,mouse_5.x,mouse_5.y,mouse_5.leftButton,mouse_5.midButton,mouse_5.rightButton,mouse_5.clicked_name,pracsimilarity,response_time,mouse_10.x,mouse_10.y,mouse_10.leftButton,mouse_10.midButton,mouse_10.rightButton,mouse_10.clicked_name,mouse_7.x,mouse_7.y,mouse_7.leftButton,mouse_7.midButton,mouse_7.rightButton,mouse_6.x,mouse_6.y,mouse_6.leftButton,mouse_6.midButton,mouse_6.rightButton,duringprac.thisRepN,duringprac.thisTrialN,duringprac.thisN,duringprac.thisIndex,duringprac.ran,participant,session,date,expName,psychopyVersion,OS,frameRate,study_id,mouse_7.clicked_name,catchpracsimilarity,catch_response_time,catchnumberprac,catchtrialorderprac,mouse_6.clicked_name,key_resp_22.keys,key_resp_22.rt,realcomparison,mouse.x,mouse.y,mouse.leftButton,mouse.midButton,mouse.rightButton,mouse.clicked_name,Colour2,similarity,mouse_2.x,mouse_2.y,mouse_2.leftButton,mouse_2.midButton,mouse_2.rightButton,mouse_2.clicked_name,mouse_3.x,mouse_3.y,mouse_3.leftButton,mouse_3.midButton,mouse_3.rightButton,mouse_11.x,mouse_11.y,mouse_11.leftButton,mouse_11.midButton,mouse_11.rightButton,trials_2.thisRepN,trials_2.thisTrialN,trials_2.thisN,trials_2.thisIndex,trials_2.ran,Colour1,mouse_3.clicked_name,catchornah,catchsimilarity,catchnumber,catchtrialorder,catchRT,mouse_11.clicked_name
space,1.5132,space,15.5295,space,44.8664,space,5.5154,space,1.5157,space,5.3941,88,FF,-43.20703125,101.1132813,1,0,0,response7disk_5,0,5.4014,-5.35546875,-0.9609375,1,0,0,rectangle_8,-5.35546875,-0.9609375,1,0,0,-5.35546875,-0.9609375,1,0,0,0,0,0,3,1,61007d3e328431a4409a59cc,61036ca384ad83fd30723a66,2021-07-29_23h06.50.173,Simcolourproject_2stim_asymm_v5,2020.2.10,MacIntel,60,61025ae37ef11b136ea224fe,,,,,,,,,,,,,,,,,,,,,,,,,,,,,,,,,,,,,,,,,,,,,,
,,,,,,,,,,,,70,PF,90.2265625,-31.75,1,0,0,response3disk_5,5,4.3829,0.53515625,3.23046875,1,0,0,rectangle_8,-80.42578125,-46.51953125,1,0,0,11.6484375,4.44140625,1,0,0,0,1,1,6,1,61007d3e328431a4409a59cc,61036ca384ad83fd30723a66,2021-07-29_23h06.50.173,Simcolourproject_2stim_asymm_v5,2020.2.10,MacIntel,60,61025ae37ef11b136ea224fe,response5disk_7,2,2.468,2,"[2,5]",rectangle_4,,,,,,,,,,,,,,,,,,,,,,,,,,,,,,,,,,,,,,,,
,,,,,,,,,,,,113,PF,28.2421875,69.74609375,1,0,0,response1disk_5,7,2.6,4.6640625,6.20703125,1,0,0,rectangle_8,4.6640625,6.20703125,1,0,0,4.6640625,6.20703125,1,0,0,0,2,2,1,1,61007d3e328431a4409a59cc,61036ca384ad83fd30723a66,2021-07-29_23h06.50.173,Simcolourproject_2stim_asymm_v5,2020.2.10,MacIntel,60,61025ae37ef11b136ea224fe,,,,,,,,,,,,,,,,,,,,,,,,,,,,,,,,,,,,,,,,,,,,,,
,,,,,,,,,,,,8,FF,102.8164063,39.56640625,1,0,0,response1disk_5,6,2.6497,9.71875,5.859375,1,0,0,rectangle_8,9.71875,5.859375,1,0,0,9.71875,5.859375,1,0,0,0,3,3,0,1,61007d3e328431a4409a59cc,61036ca384ad83fd30723a66,2021-07-29_23h06.50.173,Simcolourproject_2stim_asymm_v5,2020.2.10,MacIntel,60,61025ae37ef11b136ea224fe,,,,,,,,,,,,,,,,,,,,,,,,,,,,,,,,,,,,,,,,,,,,,,
,,,,,,,,,,,,159,PF,-22.18359375,-69.1953125,1,0,0,response5disk_5,3,2.7816,3.09765625,6.01953125,1,0,0,rectangle_8,-73.66796875,-43.28125,1,0,0,1.44140625,-2.37109375,1,0,0,0,4,4,2,1,61007d3e328431a4409a59cc,61036ca384ad83fd30723a66,2021-07-29_23h06.50.173,Simcolourproject_2stim_asymm_v5,2020.2.10,MacIntel,60,61025ae37ef11b136ea224fe,response5disk_7,2,1.5506,2,"[2,5]",rectangle_4,,,,,,,,,,,,,,,,,,,,,,,,,,,,,,,,,,,,,,,,
,,,,,,,,,,,,144,FF,53.328125,-90.55078125,1,0,0,response3disk_5,4,2.6157,3.73046875,2.83984375,1,0,0,rectangle_8,3.73046875,2.83984375,1,0,0,3.73046875,2.83984375,1,0,0,0,5,5,5,1,61007d3e328431a4409a59cc,61036ca384ad83fd30723a66,2021-07-29_23h06.50.173,Simcolourproject_2stim_asymm_v5,2020.2.10,MacIntel,60,61025ae37ef11b136ea224fe,,,,,,,,,,,,,,,,,,,,,,,,,,,,,,,,,,,,,,,,,,,,,,
,,,,,,,,,,,,86,PF,-35.00390625,-104.46875,1,0,0,response5disk_5,3,3.5838,17.5234375,10.9921875,1,0,0,rectangle_8,17.5234375,10.9921875,1,0,0,17.5234375,10.9921875,1,0,0,0,6,6,4,1,61007d3e328431a4409a59cc,61036ca384ad83fd30723a66,2021-07-29_23h06.50.173,Simcolourproject_2stim_asymm_v5,2020.2.10,MacIntel,60,61025ae37ef11b136ea224fe,,,,,,,,,,,,,,,,,,,,,,,,,,,,,,,,,,,,,,,,,,,,,,
,,,,,,,,,,,,,FF,,,,,,,,4.819,,,,,,,,,,,,,,,,,,,,,,61007d3e328431a4409a59cc,61036ca384ad83fd30723a66,2021-07-29_23h06.50.173,Simcolourproject_2stim_asymm_v5,2020.2.10,MacIntel,60,61025ae37ef11b136ea224fe,,,,,,,space,3.2183,790,40.5859375,-85.83984375,1,0,0,response3disk,,4,1.19140625,8.02734375,1,0,0,rectangle,1.19140625,8.02734375,1,0,0,1.19140625,8.02734375,1,0,0,0,0,0,41,1,,,,,,,,
,,,,,,,,,,,,,FF,,,,,,,,2.5492,,,,,,,,,,,,,,,,,,,,,,61007d3e328431a4409a59cc,61036ca384ad83fd30723a66,2021-07-29_23h06.50.173,Simcolourproject_2stim_asymm_v5,2020.2.10,MacIntel,60,61025ae37ef11b136ea224fe,,,,,,,,,907,-37.359375,-63.34765625,1,0,0,response5disk,,3,8.0390625,-0.640625,1,0,0,rectangle,8.0390625,-0.640625,1,0,0,8.0390625,-0.640625,1,0,0,0,1,1,93,1,,,,,,,,
,,,,,,,,,,,,,FF,,,,,,,,2.1675,,,,,,,,,,,,,,,,,,,,,,61007d3e328431a4409a59cc,61036ca384ad83fd30723a66,2021-07-29_23h06.50.173,Simcolourproject_2stim_asymm_v5,2020.2.10,MacIntel,60,61025ae37ef11b136ea224fe,,,,,,,,,3203,-71.0625,23.43359375,1,0,0,response7disk,,1,-1.78515625,5.25,1,0,0,rectangle,-1.78515625,5.25,1,0,0,-1.78515625,5.25,1,0,0,0,2,2,28,1,,,,,,,,
,,,,,,,,,,,,,FF,,,,,,,,2.5165,,,,,,,,,,,,,,,,,,,,,,61007d3e328431a4409a59cc,61036ca384ad83fd30723a66,2021-07-29_23h06.50.173,Simcolourproject_2stim_asymm_v5,2020.2.10,MacIntel,60,61025ae37ef11b136ea224fe,,,,,,,,,2906,-44.42578125,-76.38671875,1,0,0,response5disk,,3,-5.2734375,-3.27734375,1,0,0,rectangle,-5.2734375,-3.27734375,1,0,0,-5.2734375,-3.27734375,1,0,0,0,3,3,157,1,,,,,,,,
,,,,,,,,,,,,,FF,,,,,,,,1.2667,,,,,,,,,,,,,,,,,,,,,,61007d3e328431a4409a59cc,61036ca384ad83fd30723a66,2021-07-29_23h06.50.173,Simcolourproject_2stim_asymm_v5,2020.2.10,MacIntel,60,61025ae37ef11b136ea224fe,,,,,,,,,1911,79.7421875,-47.44140625,1,0,0,response3disk,,5,10.21484375,6.796875,1,0,0,rectangle,10.21484375,6.796875,1,0,0,10.21484375,6.796875,1,0,0,0,4,4,103,1,,,,,,,,
,,,,,,,,,,,,,FF,,,,,,,,1.3163,,,,,,,,,,,,,,,,,,,,,,61007d3e328431a4409a59cc,61036ca384ad83fd30723a66,2021-07-29_23h06.50.173,Simcolourproject_2stim_asymm_v5,2020.2.10,MacIntel,60,61025ae37ef11b136ea224fe,,,,,,,,,451,114.7539063,90.6953125,1,0,0,response1disk,,6,-5.6015625,-4.6328125,1,0,0,rectangle,-5.6015625,-4.6328125,1,0,0,-5.6015625,-4.6328125,1,0,0,0,5,5,148,1,,,,,,,,
,,,,,,,,,,,,,FF,,,,,,,,1.2333,,,,,,,,,,,,,,,,,,,,,,61007d3e328431a4409a59cc,61036ca384ad83fd30723a66,2021-07-29_23h06.50.173,Simcolourproject_2stim_asymm_v5,2020.2.10,MacIntel,60,61025ae37ef11b136ea224fe,,,,,,,,,1630,122.2265625,-28.6328125,1,0,0,response3disk,,5,19.74609375,0.71484375,1,0,0,rectangle,19.74609375,0.71484375,1,0,0,19.74609375,0.71484375,1,0,0,0,6,6,151,1,,,,,,,,
,,,,,,,,,,,,,FF,,,,,,,,1.6009,,,,,,,,,,,,,,,,,,,,,,61007d3e328431a4409a59cc,61036ca384ad83fd30723a66,2021-07-29_23h06.50.173,Simcolourproject_2stim_asymm_v5,2020.2.10,MacIntel,60,61025ae37ef11b136ea224fe,,,,,,,,,1155,77.359375,20.0859375,1,0,0,response1disk,,6,1.10546875,1.359375,1,0,0,rectangle,1.10546875,1.359375,1,0,0,1.10546875,1.359375,1,0,0,0,7,7,80,1,,,,,,,,
,,,,,,,,,,,,,FF,,,,,,,,1.5654,,,,,,,,,,,,,,,,,,,,,,61007d3e328431a4409a59cc,61036ca384ad83fd30723a66,2021-07-29_23h06.50.173,Simcolourproject_2stim_asymm_v5,2020.2.10,MacIntel,60,61025ae37ef11b136ea224fe,,,,,,,,,1416,99.859375,51.4140625,1,0,0,response1disk,,6,1.7578125,-8.43359375,1,0,0,rectangle,1.7578125,-8.43359375,1,0,0,1.7578125,-8.43359375,1,0,0,0,8,8,62,1,,,,,,,,
,,,,,,,,,,,,,FF,,,,,,,,1.4673,,,,,,,,,,,,,,,,,,,,,,61007d3e328431a4409a59cc,61036ca384ad83fd30723a66,2021-07-29_23h06.50.173,Simcolourproject_2stim_asymm_v5,2020.2.10,MacIntel,60,61025ae37ef11b136ea224fe,,,,,,,,,1010,53.4453125,92.703125,1,0,0,response1disk,,7,23.63671875,9.40625,1,0,0,rectangle,23.63671875,9.40625,1,0,0,23.63671875,9.40625,1,0,0,0,9,9,78,1,,,,,,,,
,,,,,,,,,,,,,FF,,,,,,,,1.334,,,,,,,,,,,,,,,,,,,,,,61007d3e328431a4409a59cc,61036ca384ad83fd30723a66,2021-07-29_23h06.50.173,Simcolourproject_2stim_asymm_v5,2020.2.10,MacIntel,60,61025ae37ef11b136ea224fe,,,,,,,,,325,91.1015625,57.140625,1,0,0,response1disk,,6,16.19140625,12.5078125,1,0,0,rectangle,16.19140625,12.5078125,1,0,0,16.19140625,12.5078125,1,0,0,0,10,10,99,1,,,,,,,,
,,,,,,,,,,,,,FF,,,,,,,,0.9174,,,,,,,,,,,,,,,,,,,,,,61007d3e328431a4409a59cc,61036ca384ad83fd30723a66,2021-07-29_23h06.50.173,Simcolourproject_2stim_asymm_v5,2020.2.10,MacIntel,60,61025ae37ef11b136ea224fe,,,,,,,,,1171,44.41796875,122.8398438,1,0,0,response1disk,,7,-1.62890625,-10.46875,1,0,0,rectangle,-1.62890625,-10.46875,1,0,0,-1.62890625,-10.46875,1,0,0,0,11,11,145,1,,,,,,,,
,,,,,,,,,,,,,FF,,,,,,,,1.1162,,,,,,,,,,,,,,,,,,,,,,61007d3e328431a4409a59cc,61036ca384ad83fd30723a66,2021-07-29_23h06.50.173,Simcolourproject_2stim_asymm_v5,2020.2.10,MacIntel,60,61025ae37ef11b136ea224fe,,,,,,,,,1144,38.01953125,-52.73046875,1,0,0,response3disk,,4,28.01953125,3.06640625,1,0,0,rectangle,28.01953125,3.06640625,1,0,0,28.01953125,3.06640625,1,0,0,0,12,12,123,1,,,,,,,,
,,,,,,,,,,,,,FF,,,,,,,,1.3677,,,,,,,,,,,,,,,,,,,,,,61007d3e328431a4409a59cc,61036ca384ad83fd30723a66,2021-07-29_23h06.50.173,Simcolourproject_2stim_asymm_v5,2020.2.10,MacIntel,60,61025ae37ef11b136ea224fe,,,,,,,,,4014,46.98828125,-30.4375,1,0,0,response3disk,,5,8.953125,-0.5390625,1,0,0,rectangle,8.953125,-0.5390625,1,0,0,8.953125,-0.5390625,1,0,0,0,13,13,49,1,,,,,,,,
,,,,,,,,,,,,,FF,,,,,,,,1.467,,,,,,,,,,,,,,,,,,,,,,61007d3e328431a4409a59cc,61036ca384ad83fd30723a66,2021-07-29_23h06.50.173,Simcolourproject_2stim_asymm_v5,2020.2.10,MacIntel,60,61025ae37ef11b136ea224fe,,,,,,,,,3051,-42.37890625,-72.328125,1,0,0,response5disk,,3,-18.796875,-5.95703125,1,0,0,rectangle,-18.796875,-5.95703125,1,0,0,-18.796875,-5.95703125,1,0,0,0,14,14,40,1,,,,,,,,
,,,,,,,,,,,,,FF,,,,,,,,0.9825,,,,,,,,,,,,,,,,,,,,,,61007d3e328431a4409a59cc,61036ca384ad83fd30723a66,2021-07-29_23h06.50.173,Simcolourproject_2stim_asymm_v5,2020.2.10,MacIntel,60,61025ae37ef11b136ea224fe,,,,,,,,,3956,31.94921875,57.39453125,1,0,0,response1disk,,7,1.296875,-12.65234375,1,0,0,rectangle,1.296875,-12.65234375,1,0,0,1.296875,-12.65234375,1,0,0,0,15,15,19,1,,,,,,,,
,,,,,,,,,,,,,FF,,,,,,,,1.6331,,,,,,,,,,,,,,,,,,,,,,61007d3e328431a4409a59cc,61036ca384ad83fd30723a66,2021-07-29_23h06.50.173,Simcolourproject_2stim_asymm_v5,2020.2.10,MacIntel,60,61025ae37ef11b136ea224fe,,,,,,,,,1517,80.3046875,39.69921875,1,0,0,response1disk,,6,7.7109375,-2.7109375,1,0,0,rectangle,7.7109375,-2.7109375,1,0,0,7.7109375,-2.7109375,1,0,0,0,16,16,10,1,,,,,,,,
,,,,,,,,,,,,,FF,,,,,,,,1.1002,,,,,,,,,,,,,,,,,,,,,,61007d3e328431a4409a59cc,61036ca384ad83fd30723a66,2021-07-29_23h06.50.173,Simcolourproject_2stim_asymm_v5,2020.2.10,MacIntel,60,61025ae37ef11b136ea224fe,,,,,,,,,3803,41.30078125,-91.97265625,1,0,0,response3disk,,4,13.8984375,-4.5078125,1,0,0,rectangle,13.8984375,-4.5078125,1,0,0,13.8984375,-4.5078125,1,0,0,0,17,17,158,1,,,,,,,,
,,,,,,,,,,,,,FF,,,,,,,,2.0161,,,,,,,,,,,,,,,,,,,,,,61007d3e328431a4409a59cc,61036ca384ad83fd30723a66,2021-07-29_23h06.50.173,Simcolourproject_2stim_asymm_v5,2020.2.10,MacIntel,60,61025ae37ef11b136ea224fe,,,,,,,,,2133,85.58984375,44.3515625,1,0,0,response1disk,,6,20.01953125,1.3515625,1,0,0,rectangle,20.01953125,1.3515625,1,0,0,20.01953125,1.3515625,1,0,0,0,18,18,2,1,,,,,,,,
,,,,,,,,,,,,,FF,,,,,,,,0.9333,,,,,,,,,,,,,,,,,,,,,,61007d3e328431a4409a59cc,61036ca384ad83fd30723a66,2021-07-29_23h06.50.173,Simcolourproject_2stim_asymm_v5,2020.2.10,MacIntel,60,61025ae37ef11b136ea224fe,,,,,,,,,733,32.53125,-54.4609375,1,0,0,response3disk,,4,14.49609375,2.765625,1,0,0,rectangle,14.49609375,2.765625,1,0,0,14.49609375,2.765625,1,0,0,0,19,19,88,1,,,,,,,,
,,,,,,,,,,,,,FF,,,,,,,,1.5662,,,,,,,,,,,,,,,,,,,,,,61007d3e328431a4409a59cc,61036ca384ad83fd30723a66,2021-07-29_23h06.50.173,Simcolourproject_2stim_asymm_v5,2020.2.10,MacIntel,60,61025ae37ef11b136ea224fe,,,,,,,,,293,66.51953125,36.359375,1,0,0,response1disk,,6,15.49609375,3.34765625,1,0,0,rectangle,15.49609375,3.34765625,1,0,0,15.49609375,3.34765625,1,0,0,0,20,20,114,1,,,,,,,,
,,,,,,,,,,,,,FF,,,,,,,,1.5888,,,,,,,,,,,,,,,,,,,,,,61007d3e328431a4409a59cc,61036ca384ad83fd30723a66,2021-07-29_23h06.50.173,Simcolourproject_2stim_asymm_v5,2020.2.10,MacIntel,60,61025ae37ef11b136ea224fe,,,,,,,,,794,68.99609375,-42.62890625,1,0,0,response3disk,,5,14.6171875,0.42578125,1,0,0,rectangle,14.6171875,0.42578125,1,0,0,14.6171875,0.42578125,1,0,0,0,21,21,45,1,,,,,,,,
,,,,,,,,,,,,,FF,,,,,,,,1.3987,,,,,,,,,,,,,,,,,,,,,,61007d3e328431a4409a59cc,61036ca384ad83fd30723a66,2021-07-29_23h06.50.173,Simcolourproject_2stim_asymm_v5,2020.2.10,MacIntel,60,61025ae37ef11b136ea224fe,,,,,,,,,2667,-73.37890625,-57.625,1,0,0,response5disk,,2,-26.3125,-3.546875,1,0,0,rectangle,-26.3125,-3.546875,1,0,0,-26.3125,-3.546875,1,0,0,0,22,22,144,1,,,,,,,,
,,,,,,,,,,,,,FF,,,,,,,,2.0004,,,,,,,,,,,,,,,,,,,,,,61007d3e328431a4409a59cc,61036ca384ad83fd30723a66,2021-07-29_23h06.50.173,Simcolourproject_2stim_asymm_v5,2020.2.10,MacIntel,60,61025ae37ef11b136ea224fe,,,,,,,,,1432,62.0546875,-76.0078125,1,0,0,response3disk,,4,15.1328125,-9.265625,1,0,0,rectangle,15.1328125,-9.265625,1,0,0,15.1328125,-9.265625,1,0,0,0,23,23,18,1,,,,,,,,
,,,,,,,,,,,,,FF,,,,,,,,1.7498,,,,,,,,,,,,,,,,,,,,,,61007d3e328431a4409a59cc,61036ca384ad83fd30723a66,2021-07-29_23h06.50.173,Simcolourproject_2stim_asymm_v5,2020.2.10,MacIntel,60,61025ae37ef11b136ea224fe,,,,,,,,,3978,23.40234375,-105.4335938,1,0,0,response3disk,,4,-11.76953125,3.6640625,1,0,0,rectangle,-11.76953125,3.6640625,1,0,0,-11.76953125,3.6640625,1,0,0,0,24,24,76,1,,,,,,,,
,,,,,,,,,,,,,FF,,,,,,,,1,,,,,,,,,,,,,,,,,,,,,,61007d3e328431a4409a59cc,61036ca384ad83fd30723a66,2021-07-29_23h06.50.173,Simcolourproject_2stim_asymm_v5,2020.2.10,MacIntel,60,61025ae37ef11b136ea224fe,,,,,,,,,4011,95.921875,41.15234375,1,0,0,response1disk,,6,16.109375,-4.91015625,1,0,0,rectangle,16.109375,-4.91015625,1,0,0,16.109375,-4.91015625,1,0,0,0,25,25,75,1,,,,,,,,
,,,,,,,,,,,,,FF,,,,,,,,1.0178,,,,,,,,,,,,,,,,,,,,,,61007d3e328431a4409a59cc,61036ca384ad83fd30723a66,2021-07-29_23h06.50.173,Simcolourproject_2stim_asymm_v5,2020.2.10,MacIntel,60,61025ae37ef11b136ea224fe,,,,,,,,,3519,-34.43359375,-95.44921875,1,0,0,response5disk,,3,-20.7734375,-6.02734375,1,0,0,rectangle,-20.7734375,-6.02734375,1,0,0,-20.7734375,-6.02734375,1,0,0,0,26,26,86,1,,,,,,,,
,,,,,,,,,,,,,FF,,,,,,,,1.0501,,,,,,,,,,,,,,,,,,,,,,61007d3e328431a4409a59cc,61036ca384ad83fd30723a66,2021-07-29_23h06.50.173,Simcolourproject_2stim_asymm_v5,2020.2.10,MacIntel,60,61025ae37ef11b136ea224fe,,,,,,,,,2138,82.52734375,34.05078125,1,0,0,response1disk,,6,28.5,2.7890625,1,0,0,rectangle,28.5,2.7890625,1,0,0,28.5,2.7890625,1,0,0,0,27,27,117,1,,,,,,,,
,,,,,,,,,,,,,FF,,,,,,,,0.8832,,,,,,,,,,,,,,,,,,,,,,61007d3e328431a4409a59cc,61036ca384ad83fd30723a66,2021-07-29_23h06.50.173,Simcolourproject_2stim_asymm_v5,2020.2.10,MacIntel,60,61025ae37ef11b136ea224fe,,,,,,,,,389,72.08203125,-34.95703125,1,0,0,response3disk,,5,3.7109375,-8.23828125,1,0,0,rectangle,-78.59375,-47.16796875,1,0,0,-21.5234375,-4.171875,1,0,0,0,28,28,107,1,,response5disk_3,TRUE,2,2,"[246,129,173,195,173,269,300,308,185,206,29,34,194,93,146,213,92,151,34,223]",1.8831,rectangle
,,,,,,,,,,,,,FF,,,,,,,,1.0355,,,,,,,,,,,,,,,,,,,,,,61007d3e328431a4409a59cc,61036ca384ad83fd30723a66,2021-07-29_23h06.50.173,Simcolourproject_2stim_asymm_v5,2020.2.10,MacIntel,60,61025ae37ef11b136ea224fe,,,,,,,,,3433,-55.04296875,-35.95703125,1,0,0,response5disk,,2,-19.875,6.96875,1,0,0,rectangle,-19.875,6.96875,1,0,0,-19.875,6.96875,1,0,0,0,29,29,63,1,,,,,,,,
,,,,,,,,,,,,,FF,,,,,,,,1.1163,,,,,,,,,,,,,,,,,,,,,,61007d3e328431a4409a59cc,61036ca384ad83fd30723a66,2021-07-29_23h06.50.173,Simcolourproject_2stim_asymm_v5,2020.2.10,MacIntel,60,61025ae37ef11b136ea224fe,,,,,,,,,1266,71.41015625,-44.62109375,1,0,0,response3disk,,5,8.28125,-8.8359375,1,0,0,rectangle,8.28125,-8.8359375,1,0,0,8.28125,-8.8359375,1,0,0,0,30,30,51,1,,,,,,,,
,,,,,,,,,,,,,FF,,,,,,,,0.8672,,,,,,,,,,,,,,,,,,,,,,61007d3e328431a4409a59cc,61036ca384ad83fd30723a66,2021-07-29_23h06.50.173,Simcolourproject_2stim_asymm_v5,2020.2.10,MacIntel,60,61025ae37ef11b136ea224fe,,,,,,,,,3295,-30.59375,-75.80078125,1,0,0,response5disk,,3,-3.79296875,-2.1484375,1,0,0,rectangle,-3.79296875,-2.1484375,1,0,0,-3.79296875,-2.1484375,1,0,0,0,31,31,72,1,,,,,,,,
,,,,,,,,,,,,,FF,,,,,,,,0.8338,,,,,,,,,,,,,,,,,,,,,,61007d3e328431a4409a59cc,61036ca384ad83fd30723a66,2021-07-29_23h06.50.173,Simcolourproject_2stim_asymm_v5,2020.2.10,MacIntel,60,61025ae37ef11b136ea224fe,,,,,,,,,65,-73.390625,-36.1171875,1,0,0,response5disk,,2,-14.734375,-6.75390625,1,0,0,rectangle,-14.734375,-6.75390625,1,0,0,-14.734375,-6.75390625,1,0,0,0,32,32,79,1,,,,,,,,
,,,,,,,,,,,,,FF,,,,,,,,0.7493,,,,,,,,,,,,,,,,,,,,,,61007d3e328431a4409a59cc,61036ca384ad83fd30723a66,2021-07-29_23h06.50.173,Simcolourproject_2stim_asymm_v5,2020.2.10,MacIntel,60,61025ae37ef11b136ea224fe,,,,,,,,,4247,80.1484375,-48.56640625,1,0,0,response3disk,,5,33.72265625,-6.05859375,1,0,0,rectangle,-53.109375,95.0625,1,0,0,-22.3359375,-7.796875,1,0,0,0,33,33,56,1,,response7disk_3,TRUE,0,0,"[246,129,173,195,173,269,300,308,185,206,29,34,194,93,146,213,92,151,34,223]",1.4836,rectangle
,,,,,,,,,,,,,FF,,,,,,,,1.4002,,,,,,,,,,,,,,,,,,,,,,61007d3e328431a4409a59cc,61036ca384ad83fd30723a66,2021-07-29_23h06.50.173,Simcolourproject_2stim_asymm_v5,2020.2.10,MacIntel,60,61025ae37ef11b136ea224fe,,,,,,,,,300,-59.36328125,-72.984375,1,0,0,response5disk,,3,-2.93359375,10.94921875,1,0,0,rectangle,-2.93359375,10.94921875,1,0,0,-2.93359375,10.94921875,1,0,0,0,34,34,155,1,,,,,,,,
,,,,,,,,,,,,,FF,,,,,,,,1.4189,,,,,,,,,,,,,,,,,,,,,,61007d3e328431a4409a59cc,61036ca384ad83fd30723a66,2021-07-29_23h06.50.173,Simcolourproject_2stim_asymm_v5,2020.2.10,MacIntel,60,61025ae37ef11b136ea224fe,,,,,,,,,1246,36.0234375,-73.5390625,1,0,0,response3disk,,4,7.30859375,-5.80859375,1,0,0,rectangle,7.30859375,-5.80859375,1,0,0,7.30859375,-5.80859375,1,0,0,0,35,35,137,1,,,,,,,,
,,,,,,,,,,,,,FF,,,,,,,,0.7179,,,,,,,,,,,,,,,,,,,,,,61007d3e328431a4409a59cc,61036ca384ad83fd30723a66,2021-07-29_23h06.50.173,Simcolourproject_2stim_asymm_v5,2020.2.10,MacIntel,60,61025ae37ef11b136ea224fe,,,,,,,,,267,76.6640625,-34.50390625,1,0,0,response3disk,,5,11.484375,3.9296875,1,0,0,rectangle,11.484375,3.9296875,1,0,0,11.484375,3.9296875,1,0,0,0,36,36,26,1,,,,,,,,
,,,,,,,,,,,,,FF,,,,,,,,1.3165,,,,,,,,,,,,,,,,,,,,,,61007d3e328431a4409a59cc,61036ca384ad83fd30723a66,2021-07-29_23h06.50.173,Simcolourproject_2stim_asymm_v5,2020.2.10,MacIntel,60,61025ae37ef11b136ea224fe,,,,,,,,,1760,31.73046875,-101.8632813,1,0,0,response3disk,,4,-9.375,-17.58984375,1,0,0,rectangle,-9.375,-17.58984375,1,0,0,-9.375,-17.58984375,1,0,0,0,37,37,34,1,,,,,,,,
,,,,,,,,,,,,,FF,,,,,,,,3.2342,,,,,,,,,,,,,,,,,,,,,,61007d3e328431a4409a59cc,61036ca384ad83fd30723a66,2021-07-29_23h06.50.173,Simcolourproject_2stim_asymm_v5,2020.2.10,MacIntel,60,61025ae37ef11b136ea224fe,,,,,,,,,1440,32.01953125,-69.38671875,1,0,0,response3disk,,4,4.3515625,3.18359375,1,0,0,rectangle,4.3515625,3.18359375,1,0,0,4.3515625,3.18359375,1,0,0,0,38,38,138,1,,,,,,,,
,,,,,,,,,,,,,FF,,,,,,,,1.2841,,,,,,,,,,,,,,,,,,,,,,61007d3e328431a4409a59cc,61036ca384ad83fd30723a66,2021-07-29_23h06.50.173,Simcolourproject_2stim_asymm_v5,2020.2.10,MacIntel,60,61025ae37ef11b136ea224fe,,,,,,,,,3116,87.62890625,-21.015625,1,0,0,response3disk,,5,18.234375,-7.5078125,1,0,0,rectangle,18.234375,-7.5078125,1,0,0,18.234375,-7.5078125,1,0,0,0,39,39,119,1,,,,,,,,
,,,,,,,,,,,,,FF,,,,,,,,1.6172,,,,,,,,,,,,,,,,,,,,,,61007d3e328431a4409a59cc,61036ca384ad83fd30723a66,2021-07-29_23h06.50.173,Simcolourproject_2stim_asymm_v5,2020.2.10,MacIntel,60,61025ae37ef11b136ea224fe,,,,,,,,,553,42.796875,-61.30078125,1,0,0,response3disk,,4,17.96484375,-0.30859375,1,0,0,rectangle,17.96484375,-0.30859375,1,0,0,17.96484375,-0.30859375,1,0,0,0,40,40,48,1,,,,,,,,
,,,,,,,,,,,,,FF,,,,,,,,1.0005,,,,,,,,,,,,,,,,,,,,,,61007d3e328431a4409a59cc,61036ca384ad83fd30723a66,2021-07-29_23h06.50.173,Simcolourproject_2stim_asymm_v5,2020.2.10,MacIntel,60,61025ae37ef11b136ea224fe,,,,,,,,,3727,-31.26953125,-71.4296875,1,0,0,response5disk,,3,-1.9609375,8.10546875,1,0,0,rectangle,-1.9609375,8.10546875,1,0,0,-1.9609375,8.10546875,1,0,0,0,41,41,152,1,,,,,,,,
,,,,,,,,,,,,,FF,,,,,,,,1.2846,,,,,,,,,,,,,,,,,,,,,,61007d3e328431a4409a59cc,61036ca384ad83fd30723a66,2021-07-29_23h06.50.173,Simcolourproject_2stim_asymm_v5,2020.2.10,MacIntel,60,61025ae37ef11b136ea224fe,,,,,,,,,3629,80.6328125,45.23046875,1,0,0,response1disk,,6,14.3828125,3.78125,1,0,0,rectangle,14.3828125,3.78125,1,0,0,14.3828125,3.78125,1,0,0,0,42,42,131,1,,,,,,,,
,,,,,,,,,,,,,FF,,,,,,,,1.5823,,,,,,,,,,,,,,,,,,,,,,61007d3e328431a4409a59cc,61036ca384ad83fd30723a66,2021-07-29_23h06.50.173,Simcolourproject_2stim_asymm_v5,2020.2.10,MacIntel,60,61025ae37ef11b136ea224fe,,,,,,,,,4212,70.51953125,-25.35546875,1,0,0,response3disk,,5,15.30078125,-4.58203125,1,0,0,rectangle,15.30078125,-4.58203125,1,0,0,15.30078125,-4.58203125,1,0,0,0,43,43,39,1,,,,,,,,
,,,,,,,,,,,,,FF,,,,,,,,0.8664,,,,,,,,,,,,,,,,,,,,,,61007d3e328431a4409a59cc,61036ca384ad83fd30723a66,2021-07-29_23h06.50.173,Simcolourproject_2stim_asymm_v5,2020.2.10,MacIntel,60,61025ae37ef11b136ea224fe,,,,,,,,,2703,67.6015625,38.09375,1,0,0,response1disk,,6,18.34765625,1.3984375,1,0,0,rectangle,18.34765625,1.3984375,1,0,0,18.34765625,1.3984375,1,0,0,0,44,44,30,1,,,,,,,,
,,,,,,,,,,,,,FF,,,,,,,,0.9007,,,,,,,,,,,,,,,,,,,,,,61007d3e328431a4409a59cc,61036ca384ad83fd30723a66,2021-07-29_23h06.50.173,Simcolourproject_2stim_asymm_v5,2020.2.10,MacIntel,60,61025ae37ef11b136ea224fe,,,,,,,,,3250,-44.45703125,-103.9609375,1,0,0,response5disk,,3,-11.75,-14.0078125,1,0,0,rectangle,-11.75,-14.0078125,1,0,0,-11.75,-14.0078125,1,0,0,0,45,45,113,1,,,,,,,,
,,,,,,,,,,,,,FF,,,,,,,,0.8683,,,,,,,,,,,,,,,,,,,,,,61007d3e328431a4409a59cc,61036ca384ad83fd30723a66,2021-07-29_23h06.50.173,Simcolourproject_2stim_asymm_v5,2020.2.10,MacIntel,60,61025ae37ef11b136ea224fe,,,,,,,,,3932,55.13671875,-39.03125,1,0,0,response3disk,,5,11.35546875,-2.6640625,1,0,0,rectangle,11.35546875,-2.6640625,1,0,0,11.35546875,-2.6640625,1,0,0,0,46,46,146,1,,,,,,,,
,,,,,,,,,,,,,FF,,,,,,,,1.0499,,,,,,,,,,,,,,,,,,,,,,61007d3e328431a4409a59cc,61036ca384ad83fd30723a66,2021-07-29_23h06.50.173,Simcolourproject_2stim_asymm_v5,2020.2.10,MacIntel,60,61025ae37ef11b136ea224fe,,,,,,,,,3570,84.7578125,-31.55859375,1,0,0,response3disk,,5,12.87890625,-1.32421875,1,0,0,rectangle,12.87890625,-1.32421875,1,0,0,12.87890625,-1.32421875,1,0,0,0,47,47,13,1,,,,,,,,
,,,,,,,,,,,,,FF,,,,,,,,0.7681,,,,,,,,,,,,,,,,,,,,,,61007d3e328431a4409a59cc,61036ca384ad83fd30723a66,2021-07-29_23h06.50.173,Simcolourproject_2stim_asymm_v5,2020.2.10,MacIntel,60,61025ae37ef11b136ea224fe,,,,,,,,,350,41.125,-84.59765625,1,0,0,response3disk,,4,4.34765625,-5.3359375,1,0,0,rectangle,4.34765625,-5.3359375,1,0,0,4.34765625,-5.3359375,1,0,0,0,48,48,66,1,,,,,,,,
,,,,,,,,,,,,,FF,,,,,,,,2.0002,,,,,,,,,,,,,,,,,,,,,,61007d3e328431a4409a59cc,61036ca384ad83fd30723a66,2021-07-29_23h06.50.173,Simcolourproject_2stim_asymm_v5,2020.2.10,MacIntel,60,61025ae37ef11b136ea224fe,,,,,,,,,2322,72.453125,-57.47265625,1,0,0,response3disk,,5,7.0390625,-1.96875,1,0,0,rectangle,7.0390625,-1.96875,1,0,0,7.0390625,-1.96875,1,0,0,0,49,49,159,1,,,,,,,,
,,,,,,,,,,,,,FF,,,,,,,,1.334,,,,,,,,,,,,,,,,,,,,,,61007d3e328431a4409a59cc,61036ca384ad83fd30723a66,2021-07-29_23h06.50.173,Simcolourproject_2stim_asymm_v5,2020.2.10,MacIntel,60,61025ae37ef11b136ea224fe,,,,,,,,,1990,85.3515625,-36.40625,1,0,0,response3disk,,5,9.4140625,1.9921875,1,0,0,rectangle,9.4140625,1.9921875,1,0,0,9.4140625,1.9921875,1,0,0,0,50,50,64,1,,,,,,,,
,,,,,,,,,,,,,FF,,,,,,,,0.7331,,,,,,,,,,,,,,,,,,,,,,61007d3e328431a4409a59cc,61036ca384ad83fd30723a66,2021-07-29_23h06.50.173,Simcolourproject_2stim_asymm_v5,2020.2.10,MacIntel,60,61025ae37ef11b136ea224fe,,,,,,,,,266,37.7421875,-94.67578125,1,0,0,response3disk,,4,1.7421875,-3.0390625,1,0,0,rectangle,1.7421875,-3.0390625,1,0,0,1.7421875,-3.0390625,1,0,0,0,51,51,77,1,,,,,,,,
,,,,,,,,,,,,,FF,,,,,,,,1.6008,,,,,,,,,,,,,,,,,,,,,,61007d3e328431a4409a59cc,61036ca384ad83fd30723a66,2021-07-29_23h06.50.173,Simcolourproject_2stim_asymm_v5,2020.2.10,MacIntel,60,61025ae37ef11b136ea224fe,,,,,,,,,2055,74.0390625,-31.09765625,1,0,0,response3disk,,5,13.23828125,6.625,1,0,0,rectangle,13.23828125,6.625,1,0,0,13.23828125,6.625,1,0,0,0,52,52,44,1,,,,,,,,
,,,,,,,,,,,,,FF,,,,,,,,0.8505,,,,,,,,,,,,,,,,,,,,,,61007d3e328431a4409a59cc,61036ca384ad83fd30723a66,2021-07-29_23h06.50.173,Simcolourproject_2stim_asymm_v5,2020.2.10,MacIntel,60,61025ae37ef11b136ea224fe,,,,,,,,,2891,-42.87890625,-97.5,1,0,0,response5disk,,3,2.2734375,-2.41796875,1,0,0,rectangle,2.2734375,-2.41796875,1,0,0,2.2734375,-2.41796875,1,0,0,0,53,53,36,1,,,,,,,,
,,,,,,,,,,,,,FF,,,,,,,,1.3163,,,,,,,,,,,,,,,,,,,,,,61007d3e328431a4409a59cc,61036ca384ad83fd30723a66,2021-07-29_23h06.50.173,Simcolourproject_2stim_asymm_v5,2020.2.10,MacIntel,60,61025ae37ef11b136ea224fe,,,,,,,,,3228,61.18359375,-53.0859375,1,0,0,response3disk,,5,3.4609375,9.1953125,1,0,0,rectangle,3.4609375,9.1953125,1,0,0,3.4609375,9.1953125,1,0,0,0,54,54,84,1,,,,,,,,
,,,,,,,,,,,,,FF,,,,,,,,0.8356,,,,,,,,,,,,,,,,,,,,,,61007d3e328431a4409a59cc,61036ca384ad83fd30723a66,2021-07-29_23h06.50.173,Simcolourproject_2stim_asymm_v5,2020.2.10,MacIntel,60,61025ae37ef11b136ea224fe,,,,,,,,,752,68.38671875,-37.3671875,1,0,0,response3disk,,5,19.91015625,1.6484375,1,0,0,rectangle,19.91015625,1.6484375,1,0,0,19.91015625,1.6484375,1,0,0,0,55,55,73,1,,,,,,,,
,,,,,,,,,,,,,FF,,,,,,,,0.8844,,,,,,,,,,,,,,,,,,,,,,61007d3e328431a4409a59cc,61036ca384ad83fd30723a66,2021-07-29_23h06.50.173,Simcolourproject_2stim_asymm_v5,2020.2.10,MacIntel,60,61025ae37ef11b136ea224fe,,,,,,,,,2854,72.46875,-49.26953125,1,0,0,response3disk,,5,23.39453125,-4.5859375,1,0,0,rectangle,23.39453125,-4.5859375,1,0,0,23.39453125,-4.5859375,1,0,0,0,56,56,5,1,,,,,,,,
,,,,,,,,,,,,,FF,,,,,,,,1.4505,,,,,,,,,,,,,,,,,,,,,,61007d3e328431a4409a59cc,61036ca384ad83fd30723a66,2021-07-29_23h06.50.173,Simcolourproject_2stim_asymm_v5,2020.2.10,MacIntel,60,61025ae37ef11b136ea224fe,,,,,,,,,87,49.99609375,-34.484375,1,0,0,response3disk,,5,3.921875,-0.1796875,1,0,0,rectangle,3.921875,-0.1796875,1,0,0,3.921875,-0.1796875,1,0,0,0,57,57,27,1,,,,,,,,
,,,,,,,,,,,,,FF,,,,,,,,1.9668,,,,,,,,,,,,,,,,,,,,,,61007d3e328431a4409a59cc,61036ca384ad83fd30723a66,2021-07-29_23h06.50.173,Simcolourproject_2stim_asymm_v5,2020.2.10,MacIntel,60,61025ae37ef11b136ea224fe,,,,,,,,,2541,-55.796875,68.8359375,1,0,0,response7disk,,0,-11.00390625,2.85546875,1,0,0,rectangle,-11.00390625,2.85546875,1,0,0,-11.00390625,2.85546875,1,0,0,0,58,58,3,1,,,,,,,,
,,,,,,,,,,,,,FF,,,,,,,,2.1679,,,,,,,,,,,,,,,,,,,,,,61007d3e328431a4409a59cc,61036ca384ad83fd30723a66,2021-07-29_23h06.50.173,Simcolourproject_2stim_asymm_v5,2020.2.10,MacIntel,60,61025ae37ef11b136ea224fe,,,,,,,,,4228,80.515625,-53.2734375,1,0,0,response3disk,,5,2.5625,-6.62109375,1,0,0,rectangle,2.5625,-6.62109375,1,0,0,2.5625,-6.62109375,1,0,0,0,59,59,132,1,,,,,,,,
,,,,,,,,,,,,,FF,,,,,,,,1.4,,,,,,,,,,,,,,,,,,,,,,61007d3e328431a4409a59cc,61036ca384ad83fd30723a66,2021-07-29_23h06.50.173,Simcolourproject_2stim_asymm_v5,2020.2.10,MacIntel,60,61025ae37ef11b136ea224fe,,,,,,,,,2352,78.8984375,32.91796875,1,0,0,response1disk,,6,6.42578125,7.08984375,1,0,0,rectangle,6.42578125,7.08984375,1,0,0,6.42578125,7.08984375,1,0,0,0,60,60,102,1,,,,,,,,
,,,,,,,,,,,,,FF,,,,,,,,0.8665,,,,,,,,,,,,,,,,,,,,,,61007d3e328431a4409a59cc,61036ca384ad83fd30723a66,2021-07-29_23h06.50.173,Simcolourproject_2stim_asymm_v5,2020.2.10,MacIntel,60,61025ae37ef11b136ea224fe,,,,,,,,,2790,40.4453125,-87.96875,1,0,0,response3disk,,4,20.1015625,-9.6796875,1,0,0,rectangle,20.1015625,-9.6796875,1,0,0,20.1015625,-9.6796875,1,0,0,0,61,61,35,1,,,,,,,,
,,,,,,,,,,,,,FF,,,,,,,,1.4161,,,,,,,,,,,,,,,,,,,,,,61007d3e328431a4409a59cc,61036ca384ad83fd30723a66,2021-07-29_23h06.50.173,Simcolourproject_2stim_asymm_v5,2020.2.10,MacIntel,60,61025ae37ef11b136ea224fe,,,,,,,,,2612,73.78125,-38.98828125,1,0,0,response3disk,,5,22.9140625,-9.015625,1,0,0,rectangle,22.9140625,-9.015625,1,0,0,22.9140625,-9.015625,1,0,0,0,62,62,108,1,,,,,,,,
,,,,,,,,,,,,,FF,,,,,,,,0.6172,,,,,,,,,,,,,,,,,,,,,,61007d3e328431a4409a59cc,61036ca384ad83fd30723a66,2021-07-29_23h06.50.173,Simcolourproject_2stim_asymm_v5,2020.2.10,MacIntel,60,61025ae37ef11b136ea224fe,,,,,,,,,1513,104.78125,-45.265625,1,0,0,response3disk,,5,19.4296875,-0.26953125,1,0,0,rectangle,19.4296875,-0.26953125,1,0,0,19.4296875,-0.26953125,1,0,0,0,63,63,97,1,,,,,,,,
,,,,,,,,,,,,,FF,,,,,,,,1.7176,,,,,,,,,,,,,,,,,,,,,,61007d3e328431a4409a59cc,61036ca384ad83fd30723a66,2021-07-29_23h06.50.173,Simcolourproject_2stim_asymm_v5,2020.2.10,MacIntel,60,61025ae37ef11b136ea224fe,,,,,,,,,3880,37.66796875,-98.0390625,1,0,0,response3disk,,4,3.95703125,-13.5078125,1,0,0,rectangle,3.95703125,-13.5078125,1,0,0,3.95703125,-13.5078125,1,0,0,0,64,64,74,1,,,,,,,,
,,,,,,,,,,,,,FF,,,,,,,,1.1842,,,,,,,,,,,,,,,,,,,,,,61007d3e328431a4409a59cc,61036ca384ad83fd30723a66,2021-07-29_23h06.50.173,Simcolourproject_2stim_asymm_v5,2020.2.10,MacIntel,60,61025ae37ef11b136ea224fe,,,,,,,,,537,70.94140625,-48.09375,1,0,0,response3disk,,5,7.46484375,-2.453125,1,0,0,rectangle,7.46484375,-2.453125,1,0,0,7.46484375,-2.453125,1,0,0,0,65,65,136,1,,,,,,,,
,,,,,,,,,,,,,FF,,,,,,,,0.8496,,,,,,,,,,,,,,,,,,,,,,61007d3e328431a4409a59cc,61036ca384ad83fd30723a66,2021-07-29_23h06.50.173,Simcolourproject_2stim_asymm_v5,2020.2.10,MacIntel,60,61025ae37ef11b136ea224fe,,,,,,,,,3186,63.3671875,23.99609375,1,0,0,response1disk,,6,8.6328125,8.859375,1,0,0,rectangle,8.6328125,8.859375,1,0,0,8.6328125,8.859375,1,0,0,0,66,66,32,1,,,,,,,,
,,,,,,,,,,,,,FF,,,,,,,,0.7667,,,,,,,,,,,,,,,,,,,,,,61007d3e328431a4409a59cc,61036ca384ad83fd30723a66,2021-07-29_23h06.50.173,Simcolourproject_2stim_asymm_v5,2020.2.10,MacIntel,60,61025ae37ef11b136ea224fe,,,,,,,,,4055,106.09375,-46.48828125,1,0,0,response3disk,,5,-8.83203125,-5.41015625,1,0,0,rectangle,-8.83203125,-5.41015625,1,0,0,-8.83203125,-5.41015625,1,0,0,0,67,67,55,1,,,,,,,,
,,,,,,,,,,,,,FF,,,,,,,,0.8499,,,,,,,,,,,,,,,,,,,,,,61007d3e328431a4409a59cc,61036ca384ad83fd30723a66,2021-07-29_23h06.50.173,Simcolourproject_2stim_asymm_v5,2020.2.10,MacIntel,60,61025ae37ef11b136ea224fe,,,,,,,,,3922,-38.55078125,-81.73828125,1,0,0,response5disk,,3,-27.2265625,6.5625,1,0,0,rectangle,-27.2265625,6.5625,1,0,0,-27.2265625,6.5625,1,0,0,0,68,68,111,1,,,,,,,,
,,,,,,,,,,,,,FF,,,,,,,,1.2008,,,,,,,,,,,,,,,,,,,,,,61007d3e328431a4409a59cc,61036ca384ad83fd30723a66,2021-07-29_23h06.50.173,Simcolourproject_2stim_asymm_v5,2020.2.10,MacIntel,60,61025ae37ef11b136ea224fe,,,,,,,,,170,-69.19921875,-29.765625,1,0,0,response5disk,,2,-1.28515625,-11.21875,1,0,0,rectangle,-1.28515625,-11.21875,1,0,0,-1.28515625,-11.21875,1,0,0,0,69,69,25,1,,,,,,,,
,,,,,,,,,,,,,FF,,,,,,,,1.6668,,,,,,,,,,,,,,,,,,,,,,61007d3e328431a4409a59cc,61036ca384ad83fd30723a66,2021-07-29_23h06.50.173,Simcolourproject_2stim_asymm_v5,2020.2.10,MacIntel,60,61025ae37ef11b136ea224fe,,,,,,,,,988,38.03125,-70.9375,1,0,0,response3disk,,4,12.67578125,-9.203125,1,0,0,rectangle,12.67578125,-9.203125,1,0,0,12.67578125,-9.203125,1,0,0,0,70,70,134,1,,,,,,,,
,,,,,,,,,,,,,FF,,,,,,,,0.9997,,,,,,,,,,,,,,,,,,,,,,61007d3e328431a4409a59cc,61036ca384ad83fd30723a66,2021-07-29_23h06.50.173,Simcolourproject_2stim_asymm_v5,2020.2.10,MacIntel,60,61025ae37ef11b136ea224fe,,,,,,,,,2645,100.2890625,29.67578125,1,0,0,response1disk,,6,27.18359375,-0.49609375,1,0,0,rectangle,27.18359375,-0.49609375,1,0,0,27.18359375,-0.49609375,1,0,0,0,71,71,118,1,,,,,,,,
,,,,,,,,,,,,,FF,,,,,,,,6.2508,,,,,,,,,,,,,,,,,,,,,,61007d3e328431a4409a59cc,61036ca384ad83fd30723a66,2021-07-29_23h06.50.173,Simcolourproject_2stim_asymm_v5,2020.2.10,MacIntel,60,61025ae37ef11b136ea224fe,,,,,,,,,2573,44.1328125,-86.86328125,1,0,0,response3disk,,4,16.09375,-4.875,1,0,0,rectangle,16.09375,-4.875,1,0,0,16.09375,-4.875,1,0,0,0,72,72,65,1,,,,,,,,
,,,,,,,,,,,,,FF,,,,,,,,1.1345,,,,,,,,,,,,,,,,,,,,,,61007d3e328431a4409a59cc,61036ca384ad83fd30723a66,2021-07-29_23h06.50.173,Simcolourproject_2stim_asymm_v5,2020.2.10,MacIntel,60,61025ae37ef11b136ea224fe,,,,,,,,,2676,-79.671875,-52.46484375,1,0,0,response5disk,,2,-6.9765625,-1.3125,1,0,0,rectangle,-6.9765625,-1.3125,1,0,0,-6.9765625,-1.3125,1,0,0,0,73,73,109,1,,,,,,,,
,,,,,,,,,,,,,FF,,,,,,,,0.8157,,,,,,,,,,,,,,,,,,,,,,61007d3e328431a4409a59cc,61036ca384ad83fd30723a66,2021-07-29_23h06.50.173,Simcolourproject_2stim_asymm_v5,2020.2.10,MacIntel,60,61025ae37ef11b136ea224fe,,,,,,,,,3107,-58.45703125,-34.6875,1,0,0,response5disk,,2,-20.44921875,4.703125,1,0,0,rectangle,-20.44921875,4.703125,1,0,0,-20.44921875,4.703125,1,0,0,0,74,74,147,1,,,,,,,,
,,,,,,,,,,,,,FF,,,,,,,,3.2668,,,,,,,,,,,,,,,,,,,,,,61007d3e328431a4409a59cc,61036ca384ad83fd30723a66,2021-07-29_23h06.50.173,Simcolourproject_2stim_asymm_v5,2020.2.10,MacIntel,60,61025ae37ef11b136ea224fe,,,,,,,,,2745,69.9296875,-29.85546875,1,0,0,response3disk,,5,15.54296875,-2.48046875,1,0,0,rectangle,15.54296875,-2.48046875,1,0,0,15.54296875,-2.48046875,1,0,0,0,75,75,126,1,,,,,,,,
,,,,,,,,,,,,,FF,,,,,,,,1.3832,,,,,,,,,,,,,,,,,,,,,,61007d3e328431a4409a59cc,61036ca384ad83fd30723a66,2021-07-29_23h06.50.173,Simcolourproject_2stim_asymm_v5,2020.2.10,MacIntel,60,61025ae37ef11b136ea224fe,,,,,,,,,1069,52.1015625,-67.4921875,1,0,0,response3disk,,4,23.5234375,-13.75390625,1,0,0,rectangle,23.5234375,-13.75390625,1,0,0,23.5234375,-13.75390625,1,0,0,0,76,76,61,1,,,,,,,,
,,,,,,,,,,,,,FF,,,,,,,,0.8688,,,,,,,,,,,,,,,,,,,,,,61007d3e328431a4409a59cc,61036ca384ad83fd30723a66,2021-07-29_23h06.50.173,Simcolourproject_2stim_asymm_v5,2020.2.10,MacIntel,60,61025ae37ef11b136ea224fe,,,,,,,,,2028,-28.1328125,-86.7578125,1,0,0,response5disk,,3,-10.48046875,-11.58203125,1,0,0,rectangle,-10.48046875,-11.58203125,1,0,0,-10.48046875,-11.58203125,1,0,0,0,77,77,156,1,,,,,,,,
,,,,,,,,,,,,,FF,,,,,,,,1.0839,,,,,,,,,,,,,,,,,,,,,,61007d3e328431a4409a59cc,61036ca384ad83fd30723a66,2021-07-29_23h06.50.173,Simcolourproject_2stim_asymm_v5,2020.2.10,MacIntel,60,61025ae37ef11b136ea224fe,,,,,,,,,3628,30.1015625,-72.83984375,1,0,0,response3disk,,4,12.59765625,-9.06640625,1,0,0,rectangle,12.59765625,-9.06640625,1,0,0,12.59765625,-9.06640625,1,0,0,0,78,78,140,1,,,,,,,,
,,,,,,,,,,,,,FF,,,,,,,,0.734,,,,,,,,,,,,,,,,,,,,,,61007d3e328431a4409a59cc,61036ca384ad83fd30723a66,2021-07-29_23h06.50.173,Simcolourproject_2stim_asymm_v5,2020.2.10,MacIntel,60,61025ae37ef11b136ea224fe,,,,,,,,,3090,78.63671875,-32.59375,1,0,0,response3disk,,5,23.2734375,-4.26953125,1,0,0,rectangle,23.2734375,-4.26953125,1,0,0,23.2734375,-4.26953125,1,0,0,0,79,79,94,1,,,,,,,,
,,,,,,,,,,,,,FF,,,,,,,,0.717,,,,,,,,,,,,,,,,,,,,,,61007d3e328431a4409a59cc,61036ca384ad83fd30723a66,2021-07-29_23h06.50.173,Simcolourproject_2stim_asymm_v5,2020.2.10,MacIntel,60,61025ae37ef11b136ea224fe,,,,,,,,,1945,96.296875,-44.421875,1,0,0,response3disk,,5,26.3984375,-1.19921875,1,0,0,rectangle,26.3984375,-1.19921875,1,0,0,26.3984375,-1.19921875,1,0,0,0,80,80,139,1,,,,,,,,
,,,,,,,,,,,,,FF,,,,,,,,0.8009,,,,,,,,,,,,,,,,,,,,,,61007d3e328431a4409a59cc,61036ca384ad83fd30723a66,2021-07-29_23h06.50.173,Simcolourproject_2stim_asymm_v5,2020.2.10,MacIntel,60,61025ae37ef11b136ea224fe,,,,,,,,,1032,44.4609375,-76.7421875,1,0,0,response3disk,,4,19.78515625,-1.74609375,1,0,0,rectangle,19.78515625,-1.74609375,1,0,0,19.78515625,-1.74609375,1,0,0,0,81,81,17,1,,,,,,,,
,,,,,,,,,,,,,FF,,,,,,,,0.9163,,,,,,,,,,,,,,,,,,,,,,61007d3e328431a4409a59cc,61036ca384ad83fd30723a66,2021-07-29_23h06.50.173,Simcolourproject_2stim_asymm_v5,2020.2.10,MacIntel,60,61025ae37ef11b136ea224fe,,,,,,,,,403,23.99609375,-62.02734375,1,0,0,response3disk,,4,11.25390625,10.359375,1,0,0,rectangle,11.25390625,10.359375,1,0,0,11.25390625,10.359375,1,0,0,0,82,82,116,1,,,,,,,,
,,,,,,,,,,,,,FF,,,,,,,,1.0328,,,,,,,,,,,,,,,,,,,,,,61007d3e328431a4409a59cc,61036ca384ad83fd30723a66,2021-07-29_23h06.50.173,Simcolourproject_2stim_asymm_v5,2020.2.10,MacIntel,60,61025ae37ef11b136ea224fe,,,,,,,,,4336,-72.68359375,-33.4140625,1,0,0,response5disk,,2,-21.41796875,-8.89453125,1,0,0,rectangle,-21.41796875,-8.89453125,1,0,0,-21.41796875,-8.89453125,1,0,0,0,83,83,128,1,,,,,,,,
,,,,,,,,,,,,,FF,,,,,,,,0.9834,,,,,,,,,,,,,,,,,,,,,,61007d3e328431a4409a59cc,61036ca384ad83fd30723a66,2021-07-29_23h06.50.173,Simcolourproject_2stim_asymm_v5,2020.2.10,MacIntel,60,61025ae37ef11b136ea224fe,,,,,,,,,1336,67.1875,52.80859375,1,0,0,response1disk,,6,8.71484375,9.234375,1,0,0,rectangle,8.71484375,9.234375,1,0,0,8.71484375,9.234375,1,0,0,0,84,84,95,1,,,,,,,,
,,,,,,,,,,,,,FF,,,,,,,,1.0165,,,,,,,,,,,,,,,,,,,,,,61007d3e328431a4409a59cc,61036ca384ad83fd30723a66,2021-07-29_23h06.50.173,Simcolourproject_2stim_asymm_v5,2020.2.10,MacIntel,60,61025ae37ef11b136ea224fe,,,,,,,,,3598,-64.90234375,-48.30078125,1,0,0,response5disk,,2,-2.7578125,-13.80859375,1,0,0,rectangle,-2.7578125,-13.80859375,1,0,0,-2.7578125,-13.80859375,1,0,0,0,85,85,8,1,,,,,,,,
,,,,,,,,,,,,,FF,,,,,,,,1.1166,,,,,,,,,,,,,,,,,,,,,,61007d3e328431a4409a59cc,61036ca384ad83fd30723a66,2021-07-29_23h06.50.173,Simcolourproject_2stim_asymm_v5,2020.2.10,MacIntel,60,61025ae37ef11b136ea224fe,,,,,,,,,100,-35.04296875,-53.08984375,1,0,0,response5disk,,3,-6.94921875,-3.83203125,1,0,0,rectangle,-6.94921875,-3.83203125,1,0,0,-6.94921875,-3.83203125,1,0,0,0,86,86,143,1,,,,,,,,
,,,,,,,,,,,,,FF,,,,,,,,1.0832,,,,,,,,,,,,,,,,,,,,,,61007d3e328431a4409a59cc,61036ca384ad83fd30723a66,2021-07-29_23h06.50.173,Simcolourproject_2stim_asymm_v5,2020.2.10,MacIntel,60,61025ae37ef11b136ea224fe,,,,,,,,,3282,-76.6484375,-50.8203125,1,0,0,response5disk,,2,-13.5546875,-12.39453125,1,0,0,rectangle,-13.5546875,-12.39453125,1,0,0,-13.5546875,-12.39453125,1,0,0,0,87,87,135,1,,,,,,,,
,,,,,,,,,,,,,FF,,,,,,,,0.8336,,,,,,,,,,,,,,,,,,,,,,61007d3e328431a4409a59cc,61036ca384ad83fd30723a66,2021-07-29_23h06.50.173,Simcolourproject_2stim_asymm_v5,2020.2.10,MacIntel,60,61025ae37ef11b136ea224fe,,,,,,,,,2718,-40.39453125,63.51171875,1,0,0,response7disk,,0,-27.13671875,9.7734375,1,0,0,rectangle,-27.13671875,9.7734375,1,0,0,-27.13671875,9.7734375,1,0,0,0,88,88,133,1,,,,,,,,
,,,,,,,,,,,,,FF,,,,,,,,1.5679,,,,,,,,,,,,,,,,,,,,,,61007d3e328431a4409a59cc,61036ca384ad83fd30723a66,2021-07-29_23h06.50.173,Simcolourproject_2stim_asymm_v5,2020.2.10,MacIntel,60,61025ae37ef11b136ea224fe,,,,,,,,,2857,63.1484375,-27.48046875,1,0,0,response3disk,,5,22.6328125,-6.30078125,1,0,0,rectangle,22.6328125,-6.30078125,1,0,0,22.6328125,-6.30078125,1,0,0,0,89,89,15,1,,,,,,,,
,,,,,,,,,,,,,FF,,,,,,,,0.7859,,,,,,,,,,,,,,,,,,,,,,61007d3e328431a4409a59cc,61036ca384ad83fd30723a66,2021-07-29_23h06.50.173,Simcolourproject_2stim_asymm_v5,2020.2.10,MacIntel,60,61025ae37ef11b136ea224fe,,,,,,,,,1134,-36.2890625,-69.046875,1,0,0,response5disk,,3,-15.03125,7.203125,1,0,0,rectangle,-15.03125,7.203125,1,0,0,-15.03125,7.203125,1,0,0,0,90,90,127,1,,,,,,,,
,,,,,,,,,,,,,FF,,,,,,,,4.0493,,,,,,,,,,,,,,,,,,,,,,61007d3e328431a4409a59cc,61036ca384ad83fd30723a66,2021-07-29_23h06.50.173,Simcolourproject_2stim_asymm_v5,2020.2.10,MacIntel,60,61025ae37ef11b136ea224fe,,,,,,,,,1789,49.421875,34.859375,1,0,0,response1disk,,6,18.0546875,-1.89453125,1,0,0,rectangle,80.27734375,62.41015625,1,0,0,13.91796875,-13.02734375,1,0,0,0,91,91,33,1,,response1disk_3,TRUE,6,6,"[246,129,173,195,173,269,300,308,185,206,29,34,194,93,146,213,92,151,34,223]",2.2667,rectangle
,,,,,,,,,,,,,FF,,,,,,,,0.9997,,,,,,,,,,,,,,,,,,,,,,61007d3e328431a4409a59cc,61036ca384ad83fd30723a66,2021-07-29_23h06.50.173,Simcolourproject_2stim_asymm_v5,2020.2.10,MacIntel,60,61025ae37ef11b136ea224fe,,,,,,,,,1215,-60.64453125,-30.55078125,1,0,0,response5disk,,2,-6.7578125,-5.4921875,1,0,0,rectangle,-37.83984375,-72.09375,1,0,0,-13.265625,-5.71484375,1,0,0,0,92,92,50,1,,response5disk_3,TRUE,3,3,"[246,129,173,195,173,269,300,308,185,206,29,34,194,93,146,213,92,151,34,223]",1.8,rectangle
,,,,,,,,,,,,,FF,,,,,,,,5.0672,,,,,,,,,,,,,,,,,,,,,,61007d3e328431a4409a59cc,61036ca384ad83fd30723a66,2021-07-29_23h06.50.173,Simcolourproject_2stim_asymm_v5,2020.2.10,MacIntel,60,61025ae37ef11b136ea224fe,,,,,,,,,3379,68.1796875,-28.1796875,1,0,0,response3disk,,5,17.09765625,-6.50390625,1,0,0,rectangle,17.09765625,-6.50390625,1,0,0,17.09765625,-6.50390625,1,0,0,0,93,93,68,1,,,,,,,,
,,,,,,,,,,,,,FF,,,,,,,,0.7508,,,,,,,,,,,,,,,,,,,,,,61007d3e328431a4409a59cc,61036ca384ad83fd30723a66,2021-07-29_23h06.50.173,Simcolourproject_2stim_asymm_v5,2020.2.10,MacIntel,60,61025ae37ef11b136ea224fe,,,,,,,,,3412,89.1171875,-42.8671875,1,0,0,response3disk,,5,22.48046875,-10.25,1,0,0,rectangle,22.48046875,-10.25,1,0,0,22.48046875,-10.25,1,0,0,0,94,94,122,1,,,,,,,,
,,,,,,,,,,,,,FF,,,,,,,,1.0999,,,,,,,,,,,,,,,,,,,,,,61007d3e328431a4409a59cc,61036ca384ad83fd30723a66,2021-07-29_23h06.50.173,Simcolourproject_2stim_asymm_v5,2020.2.10,MacIntel,60,61025ae37ef11b136ea224fe,,,,,,,,,1980,89.80078125,26.52734375,1,0,0,response1disk,,6,16.328125,3.76953125,1,0,0,rectangle,16.328125,3.76953125,1,0,0,16.328125,3.76953125,1,0,0,0,95,95,101,1,,,,,,,,
,,,,,,,,,,,,,FF,,,,,,,,0.8659,,,,,,,,,,,,,,,,,,,,,,61007d3e328431a4409a59cc,61036ca384ad83fd30723a66,2021-07-29_23h06.50.173,Simcolourproject_2stim_asymm_v5,2020.2.10,MacIntel,60,61025ae37ef11b136ea224fe,,,,,,,,,4096,-57.5234375,-33.5234375,1,0,0,response5disk,,2,3.62109375,-3.7890625,1,0,0,rectangle,3.62109375,-3.7890625,1,0,0,3.62109375,-3.7890625,1,0,0,0,96,96,42,1,,,,,,,,
,,,,,,,,,,,,,FF,,,,,,,,1.317,,,,,,,,,,,,,,,,,,,,,,61007d3e328431a4409a59cc,61036ca384ad83fd30723a66,2021-07-29_23h06.50.173,Simcolourproject_2stim_asymm_v5,2020.2.10,MacIntel,60,61025ae37ef11b136ea224fe,,,,,,,,,1916,52.16796875,-73.05078125,1,0,0,response3disk,,4,9.7421875,-3.8203125,1,0,0,rectangle,9.7421875,-3.8203125,1,0,0,9.7421875,-3.8203125,1,0,0,0,97,97,11,1,,,,,,,,
,,,,,,,,,,,,,FF,,,,,,,,0.9841,,,,,,,,,,,,,,,,,,,,,,61007d3e328431a4409a59cc,61036ca384ad83fd30723a66,2021-07-29_23h06.50.173,Simcolourproject_2stim_asymm_v5,2020.2.10,MacIntel,60,61025ae37ef11b136ea224fe,,,,,,,,,725,31.79296875,-59.4375,1,0,0,response3disk,,4,17.28125,-12.671875,1,0,0,rectangle,17.28125,-12.671875,1,0,0,17.28125,-12.671875,1,0,0,0,98,98,83,1,,,,,,,,
,,,,,,,,,,,,,FF,,,,,,,,0.9153,,,,,,,,,,,,,,,,,,,,,,61007d3e328431a4409a59cc,61036ca384ad83fd30723a66,2021-07-29_23h06.50.173,Simcolourproject_2stim_asymm_v5,2020.2.10,MacIntel,60,61025ae37ef11b136ea224fe,,,,,,,,,2505,79.05859375,33.15234375,1,0,0,response1disk,,6,0.953125,4.63671875,1,0,0,rectangle,0.953125,4.63671875,1,0,0,0.953125,4.63671875,1,0,0,0,99,99,31,1,,,,,,,,
,,,,,,,,,,,,,FF,,,,,,,,0.8332,,,,,,,,,,,,,,,,,,,,,,61007d3e328431a4409a59cc,61036ca384ad83fd30723a66,2021-07-29_23h06.50.173,Simcolourproject_2stim_asymm_v5,2020.2.10,MacIntel,60,61025ae37ef11b136ea224fe,,,,,,,,,561,79.21875,-33.7421875,1,0,0,response3disk,,5,7.92578125,-0.6953125,1,0,0,rectangle,7.92578125,-0.6953125,1,0,0,7.92578125,-0.6953125,1,0,0,0,100,100,9,1,,,,,,,,
,,,,,,,,,,,,,FF,,,,,,,,0.7325,,,,,,,,,,,,,,,,,,,,,,61007d3e328431a4409a59cc,61036ca384ad83fd30723a66,2021-07-29_23h06.50.173,Simcolourproject_2stim_asymm_v5,2020.2.10,MacIntel,60,61025ae37ef11b136ea224fe,,,,,,,,,4161,-41.109375,76.70703125,1,0,0,response7disk,,0,-15.359375,14.14453125,1,0,0,rectangle,-15.359375,14.14453125,1,0,0,-15.359375,14.14453125,1,0,0,0,101,101,69,1,,,,,,,,
,,,,,,,,,,,,,FF,,,,,,,,1.8658,,,,,,,,,,,,,,,,,,,,,,61007d3e328431a4409a59cc,61036ca384ad83fd30723a66,2021-07-29_23h06.50.173,Simcolourproject_2stim_asymm_v5,2020.2.10,MacIntel,60,61025ae37ef11b136ea224fe,,,,,,,,,3484,-26.98828125,-80.24609375,1,0,0,response5disk,,3,-3.9375,3.8671875,1,0,0,rectangle,-3.9375,3.8671875,1,0,0,-3.9375,3.8671875,1,0,0,0,102,102,57,1,,,,,,,,
,,,,,,,,,,,,,FF,,,,,,,,0.9665,,,,,,,,,,,,,,,,,,,,,,61007d3e328431a4409a59cc,61036ca384ad83fd30723a66,2021-07-29_23h06.50.173,Simcolourproject_2stim_asymm_v5,2020.2.10,MacIntel,60,61025ae37ef11b136ea224fe,,,,,,,,,687,70.7734375,33.94921875,1,0,0,response1disk,,6,29.30859375,10.60546875,1,0,0,rectangle,29.30859375,10.60546875,1,0,0,29.30859375,10.60546875,1,0,0,0,103,103,24,1,,,,,,,,
,,,,,,,,,,,,,FF,,,,,,,,1.2167,,,,,,,,,,,,,,,,,,,,,,61007d3e328431a4409a59cc,61036ca384ad83fd30723a66,2021-07-29_23h06.50.173,Simcolourproject_2stim_asymm_v5,2020.2.10,MacIntel,60,61025ae37ef11b136ea224fe,,,,,,,,,3976,58.4921875,-71.0234375,1,0,0,response3disk,,4,21.28125,-10.09375,1,0,0,rectangle,21.28125,-10.09375,1,0,0,21.28125,-10.09375,1,0,0,0,104,104,43,1,,,,,,,,
,,,,,,,,,,,,,FF,,,,,,,,1.1849,,,,,,,,,,,,,,,,,,,,,,61007d3e328431a4409a59cc,61036ca384ad83fd30723a66,2021-07-29_23h06.50.173,Simcolourproject_2stim_asymm_v5,2020.2.10,MacIntel,60,61025ae37ef11b136ea224fe,,,,,,,,,4311,97.70703125,-27.59765625,1,0,0,response3disk,,5,24.1953125,-3.4453125,1,0,0,rectangle,24.1953125,-3.4453125,1,0,0,24.1953125,-3.4453125,1,0,0,0,105,105,20,1,,,,,,,,
,,,,,,,,,,,,,FF,,,,,,,,0.6168,,,,,,,,,,,,,,,,,,,,,,61007d3e328431a4409a59cc,61036ca384ad83fd30723a66,2021-07-29_23h06.50.173,Simcolourproject_2stim_asymm_v5,2020.2.10,MacIntel,60,61025ae37ef11b136ea224fe,,,,,,,,,964,93.265625,-46,1,0,0,response3disk,,5,16.765625,4.3828125,1,0,0,rectangle,16.765625,4.3828125,1,0,0,16.765625,4.3828125,1,0,0,0,106,106,91,1,,,,,,,,
,,,,,,,,,,,,,FF,,,,,,,,1.0004,,,,,,,,,,,,,,,,,,,,,,61007d3e328431a4409a59cc,61036ca384ad83fd30723a66,2021-07-29_23h06.50.173,Simcolourproject_2stim_asymm_v5,2020.2.10,MacIntel,60,61025ae37ef11b136ea224fe,,,,,,,,,1959,-76.4375,-39.41796875,1,0,0,response5disk,,2,-12.0078125,-9.08203125,1,0,0,rectangle,-12.0078125,-9.08203125,1,0,0,-12.0078125,-9.08203125,1,0,0,0,107,107,4,1,,,,,,,,
,,,,,,,,,,,,,FF,,,,,,,,2.7166,,,,,,,,,,,,,,,,,,,,,,61007d3e328431a4409a59cc,61036ca384ad83fd30723a66,2021-07-29_23h06.50.173,Simcolourproject_2stim_asymm_v5,2020.2.10,MacIntel,60,61025ae37ef11b136ea224fe,,,,,,,,,2053,45.84375,-78.6640625,1,0,0,response3disk,,4,-13.78515625,13.359375,1,0,0,rectangle,-13.78515625,13.359375,1,0,0,-13.78515625,13.359375,1,0,0,0,108,108,71,1,,,,,,,,
,,,,,,,,,,,,,FF,,,,,,,,1.3832,,,,,,,,,,,,,,,,,,,,,,61007d3e328431a4409a59cc,61036ca384ad83fd30723a66,2021-07-29_23h06.50.173,Simcolourproject_2stim_asymm_v5,2020.2.10,MacIntel,60,61025ae37ef11b136ea224fe,,,,,,,,,3958,65.6796875,-40.58984375,1,0,0,response3disk,,5,24.91015625,-9.7421875,1,0,0,rectangle,24.91015625,-9.7421875,1,0,0,24.91015625,-9.7421875,1,0,0,0,109,109,115,1,,,,,,,,
,,,,,,,,,,,,,FF,,,,,,,,1.4662,,,,,,,,,,,,,,,,,,,,,,61007d3e328431a4409a59cc,61036ca384ad83fd30723a66,2021-07-29_23h06.50.173,Simcolourproject_2stim_asymm_v5,2020.2.10,MacIntel,60,61025ae37ef11b136ea224fe,,,,,,,,,953,22.28125,-76.04296875,1,0,0,response3disk,,4,17.4375,-8.31640625,1,0,0,rectangle,17.4375,-8.31640625,1,0,0,17.4375,-8.31640625,1,0,0,0,110,110,125,1,,,,,,,,
,,,,,,,,,,,,,FF,,,,,,,,0.8501,,,,,,,,,,,,,,,,,,,,,,61007d3e328431a4409a59cc,61036ca384ad83fd30723a66,2021-07-29_23h06.50.173,Simcolourproject_2stim_asymm_v5,2020.2.10,MacIntel,60,61025ae37ef11b136ea224fe,,,,,,,,,4340,31.55078125,-47.015625,1,0,0,response3disk,,4,23.40625,-0.796875,1,0,0,rectangle,23.40625,-0.796875,1,0,0,23.40625,-0.796875,1,0,0,0,111,111,60,1,,,,,,,,
,,,,,,,,,,,,,FF,,,,,,,,0.7823,,,,,,,,,,,,,,,,,,,,,,61007d3e328431a4409a59cc,61036ca384ad83fd30723a66,2021-07-29_23h06.50.173,Simcolourproject_2stim_asymm_v5,2020.2.10,MacIntel,60,61025ae37ef11b136ea224fe,,,,,,,,,1382,-22.703125,-61.21875,1,0,0,response5disk,,3,-17.38671875,-5.2265625,1,0,0,rectangle,-17.38671875,-5.2265625,1,0,0,-17.38671875,-5.2265625,1,0,0,0,112,112,14,1,,,,,,,,
,,,,,,,,,,,,,FF,,,,,,,,0.8166,,,,,,,,,,,,,,,,,,,,,,61007d3e328431a4409a59cc,61036ca384ad83fd30723a66,2021-07-29_23h06.50.173,Simcolourproject_2stim_asymm_v5,2020.2.10,MacIntel,60,61025ae37ef11b136ea224fe,,,,,,,,,1548,75.53125,-27.81640625,1,0,0,response3disk,,5,22.9375,-5.86328125,1,0,0,rectangle,22.9375,-5.86328125,1,0,0,22.9375,-5.86328125,1,0,0,0,113,113,142,1,,,,,,,,
,,,,,,,,,,,,,FF,,,,,,,,0.8168,,,,,,,,,,,,,,,,,,,,,,61007d3e328431a4409a59cc,61036ca384ad83fd30723a66,2021-07-29_23h06.50.173,Simcolourproject_2stim_asymm_v5,2020.2.10,MacIntel,60,61025ae37ef11b136ea224fe,,,,,,,,,1269,31.94140625,-87.015625,1,0,0,response3disk,,4,7.68359375,-12.90625,1,0,0,rectangle,7.68359375,-12.90625,1,0,0,7.68359375,-12.90625,1,0,0,0,114,114,6,1,,,,,,,,
,,,,,,,,,,,,,FF,,,,,,,,0.9316,,,,,,,,,,,,,,,,,,,,,,61007d3e328431a4409a59cc,61036ca384ad83fd30723a66,2021-07-29_23h06.50.173,Simcolourproject_2stim_asymm_v5,2020.2.10,MacIntel,60,61025ae37ef11b136ea224fe,,,,,,,,,1443,-31.16796875,-79.82421875,1,0,0,response5disk,,3,-4.55859375,14.94921875,1,0,0,rectangle,-4.55859375,14.94921875,1,0,0,-4.55859375,14.94921875,1,0,0,0,115,115,1,1,,,,,,,,
,,,,,,,,,,,,,FF,,,,,,,,0.7176,,,,,,,,,,,,,,,,,,,,,,61007d3e328431a4409a59cc,61036ca384ad83fd30723a66,2021-07-29_23h06.50.173,Simcolourproject_2stim_asymm_v5,2020.2.10,MacIntel,60,61025ae37ef11b136ea224fe,,,,,,,,,3197,-71.43359375,-24.45703125,1,0,0,response5disk,,2,-21.796875,2.515625,1,0,0,rectangle,-21.796875,2.515625,1,0,0,-21.796875,2.515625,1,0,0,0,116,116,106,1,,,,,,,,
,,,,,,,,,,,,,FF,,,,,,,,2.8828,,,,,,,,,,,,,,,,,,,,,,61007d3e328431a4409a59cc,61036ca384ad83fd30723a66,2021-07-29_23h06.50.173,Simcolourproject_2stim_asymm_v5,2020.2.10,MacIntel,60,61025ae37ef11b136ea224fe,,,,,,,,,1262,76.30078125,-24.6875,1,0,0,response3disk,,5,15.74609375,-8.49609375,1,0,0,rectangle,15.74609375,-8.49609375,1,0,0,15.74609375,-8.49609375,1,0,0,0,117,117,46,1,,,,,,,,
,,,,,,,,,,,,,FF,,,,,,,,1.299,,,,,,,,,,,,,,,,,,,,,,61007d3e328431a4409a59cc,61036ca384ad83fd30723a66,2021-07-29_23h06.50.173,Simcolourproject_2stim_asymm_v5,2020.2.10,MacIntel,60,61025ae37ef11b136ea224fe,,,,,,,,,3903,-20.5703125,-86.2578125,1,0,0,response5disk,,3,-6.89453125,-6.48046875,1,0,0,rectangle,-6.89453125,-6.48046875,1,0,0,-6.89453125,-6.48046875,1,0,0,0,118,118,141,1,,,,,,,,
,,,,,,,,,,,,,FF,,,,,,,,0.9166,,,,,,,,,,,,,,,,,,,,,,61007d3e328431a4409a59cc,61036ca384ad83fd30723a66,2021-07-29_23h06.50.173,Simcolourproject_2stim_asymm_v5,2020.2.10,MacIntel,60,61025ae37ef11b136ea224fe,,,,,,,,,2062,82.8125,33.2890625,1,0,0,response1disk,,6,23.515625,1.984375,1,0,0,rectangle,23.515625,1.984375,1,0,0,23.515625,1.984375,1,0,0,0,119,119,120,1,,,,,,,,
,,,,,,,,,,,,,FF,,,,,,,,0.6003,,,,,,,,,,,,,,,,,,,,,,61007d3e328431a4409a59cc,61036ca384ad83fd30723a66,2021-07-29_23h06.50.173,Simcolourproject_2stim_asymm_v5,2020.2.10,MacIntel,60,61025ae37ef11b136ea224fe,,,,,,,,,55,80.4453125,34.03515625,1,0,0,response1disk,,6,9.5546875,10.1875,1,0,0,rectangle,9.5546875,10.1875,1,0,0,9.5546875,10.1875,1,0,0,0,120,120,150,1,,,,,,,,
,,,,,,,,,,,,,FF,,,,,,,,0.8504,,,,,,,,,,,,,,,,,,,,,,61007d3e328431a4409a59cc,61036ca384ad83fd30723a66,2021-07-29_23h06.50.173,Simcolourproject_2stim_asymm_v5,2020.2.10,MacIntel,60,61025ae37ef11b136ea224fe,,,,,,,,,1060,78.7890625,-44.3984375,1,0,0,response3disk,,5,7.984375,1.24609375,1,0,0,rectangle,7.984375,1.24609375,1,0,0,7.984375,1.24609375,1,0,0,0,121,121,82,1,,,,,,,,
,,,,,,,,,,,,,FF,,,,,,,,0.6004,,,,,,,,,,,,,,,,,,,,,,61007d3e328431a4409a59cc,61036ca384ad83fd30723a66,2021-07-29_23h06.50.173,Simcolourproject_2stim_asymm_v5,2020.2.10,MacIntel,60,61025ae37ef11b136ea224fe,,,,,,,,,3868,86.109375,-45.33984375,1,0,0,response3disk,,5,15,-6.43359375,1,0,0,rectangle,15,-6.43359375,1,0,0,15,-6.43359375,1,0,0,0,122,122,153,1,,,,,,,,
,,,,,,,,,,,,,FF,,,,,,,,0.7335,,,,,,,,,,,,,,,,,,,,,,61007d3e328431a4409a59cc,61036ca384ad83fd30723a66,2021-07-29_23h06.50.173,Simcolourproject_2stim_asymm_v5,2020.2.10,MacIntel,60,61025ae37ef11b136ea224fe,,,,,,,,,1418,37.27734375,-62.44921875,1,0,0,response3disk,,4,15.9296875,-9.21875,1,0,0,rectangle,15.9296875,-9.21875,1,0,0,15.9296875,-9.21875,1,0,0,0,123,123,38,1,,,,,,,,
,,,,,,,,,,,,,FF,,,,,,,,2.5995,,,,,,,,,,,,,,,,,,,,,,61007d3e328431a4409a59cc,61036ca384ad83fd30723a66,2021-07-29_23h06.50.173,Simcolourproject_2stim_asymm_v5,2020.2.10,MacIntel,60,61025ae37ef11b136ea224fe,,,,,,,,,473,51.2421875,-69.8828125,1,0,0,response3disk,,4,12.82421875,-8.4453125,1,0,0,rectangle,12.82421875,-8.4453125,1,0,0,12.82421875,-8.4453125,1,0,0,0,124,124,96,1,,,,,,,,
,,,,,,,,,,,,,FF,,,,,,,,1.0155,,,,,,,,,,,,,,,,,,,,,,61007d3e328431a4409a59cc,61036ca384ad83fd30723a66,2021-07-29_23h06.50.173,Simcolourproject_2stim_asymm_v5,2020.2.10,MacIntel,60,61025ae37ef11b136ea224fe,,,,,,,,,3407,75.11328125,29.5,1,0,0,response1disk,,6,21.859375,11.109375,1,0,0,rectangle,21.859375,11.109375,1,0,0,21.859375,11.109375,1,0,0,0,125,125,110,1,,,,,,,,
,,,,,,,,,,,,,FF,,,,,,,,1.1495,,,,,,,,,,,,,,,,,,,,,,61007d3e328431a4409a59cc,61036ca384ad83fd30723a66,2021-07-29_23h06.50.173,Simcolourproject_2stim_asymm_v5,2020.2.10,MacIntel,60,61025ae37ef11b136ea224fe,,,,,,,,,2301,-19.9609375,-94.44921875,1,0,0,response5disk,,3,-2.8359375,-7.63671875,1,0,0,rectangle,-2.8359375,-7.63671875,1,0,0,-2.8359375,-7.63671875,1,0,0,0,126,126,58,1,,,,,,,,
,,,,,,,,,,,,,FF,,,,,,,,0.9937,,,,,,,,,,,,,,,,,,,,,,61007d3e328431a4409a59cc,61036ca384ad83fd30723a66,2021-07-29_23h06.50.173,Simcolourproject_2stim_asymm_v5,2020.2.10,MacIntel,60,61025ae37ef11b136ea224fe,,,,,,,,,164,-89.93359375,-29.93359375,1,0,0,response5disk,,2,-12.0625,8.9296875,1,0,0,rectangle,-12.0625,8.9296875,1,0,0,-12.0625,8.9296875,1,0,0,0,127,127,47,1,,,,,,,,
,,,,,,,,,,,,,FF,,,,,,,,0.8345,,,,,,,,,,,,,,,,,,,,,,61007d3e328431a4409a59cc,61036ca384ad83fd30723a66,2021-07-29_23h06.50.173,Simcolourproject_2stim_asymm_v5,2020.2.10,MacIntel,60,61025ae37ef11b136ea224fe,,,,,,,,,2273,68,-16.26953125,1,0,0,response3disk,,5,14.17578125,-2.8125,1,0,0,rectangle,32.54296875,71.546875,1,0,0,1.84375,0.7265625,1,0,0,0,128,128,59,1,,response1disk_3,TRUE,7,7,"[246,129,173,195,173,269,300,308,185,206,29,34,194,93,146,213,92,151,34,223]",1.8339,rectangle
,,,,,,,,,,,,,FF,,,,,,,,0.8828,,,,,,,,,,,,,,,,,,,,,,61007d3e328431a4409a59cc,61036ca384ad83fd30723a66,2021-07-29_23h06.50.173,Simcolourproject_2stim_asymm_v5,2020.2.10,MacIntel,60,61025ae37ef11b136ea224fe,,,,,,,,,2845,-74.26953125,-38.42578125,1,0,0,response5disk,,2,-16.44921875,-2.12890625,1,0,0,rectangle,-16.44921875,-2.12890625,1,0,0,-16.44921875,-2.12890625,1,0,0,0,129,129,129,1,,,,,,,,
,,,,,,,,,,,,,FF,,,,,,,,0.9333,,,,,,,,,,,,,,,,,,,,,,61007d3e328431a4409a59cc,61036ca384ad83fd30723a66,2021-07-29_23h06.50.173,Simcolourproject_2stim_asymm_v5,2020.2.10,MacIntel,60,61025ae37ef11b136ea224fe,,,,,,,,,175,-30.70703125,-66.28125,1,0,0,response5disk,,3,-20.19140625,10.12890625,1,0,0,rectangle,-20.19140625,10.12890625,1,0,0,-20.19140625,10.12890625,1,0,0,0,130,130,98,1,,,,,,,,
,,,,,,,,,,,,,FF,,,,,,,,0.7666,,,,,,,,,,,,,,,,,,,,,,61007d3e328431a4409a59cc,61036ca384ad83fd30723a66,2021-07-29_23h06.50.173,Simcolourproject_2stim_asymm_v5,2020.2.10,MacIntel,60,61025ae37ef11b136ea224fe,,,,,,,,,3054,-66.08203125,27.3515625,1,0,0,response7disk,,1,-11.1796875,-3.578125,1,0,0,rectangle,-11.1796875,-3.578125,1,0,0,-11.1796875,-3.578125,1,0,0,0,131,131,112,1,,,,,,,,
,,,,,,,,,,,,,FF,,,,,,,,0.8171,,,,,,,,,,,,,,,,,,,,,,61007d3e328431a4409a59cc,61036ca384ad83fd30723a66,2021-07-29_23h06.50.173,Simcolourproject_2stim_asymm_v5,2020.2.10,MacIntel,60,61025ae37ef11b136ea224fe,,,,,,,,,3553,-86.27734375,-28.99609375,1,0,0,response5disk,,2,-26.5859375,-10.671875,1,0,0,rectangle,-26.5859375,-10.671875,1,0,0,-26.5859375,-10.671875,1,0,0,0,132,132,130,1,,,,,,,,
,,,,,,,,,,,,,FF,,,,,,,,0.8346,,,,,,,,,,,,,,,,,,,,,,61007d3e328431a4409a59cc,61036ca384ad83fd30723a66,2021-07-29_23h06.50.173,Simcolourproject_2stim_asymm_v5,2020.2.10,MacIntel,60,61025ae37ef11b136ea224fe,,,,,,,,,1307,-71.265625,-21.92578125,1,0,0,response5disk,,2,-24.19921875,-7.26953125,1,0,0,rectangle,-24.19921875,-7.26953125,1,0,0,-24.19921875,-7.26953125,1,0,0,0,133,133,154,1,,,,,,,,
,,,,,,,,,,,,,FF,,,,,,,,1.5169,,,,,,,,,,,,,,,,,,,,,,61007d3e328431a4409a59cc,61036ca384ad83fd30723a66,2021-07-29_23h06.50.173,Simcolourproject_2stim_asymm_v5,2020.2.10,MacIntel,60,61025ae37ef11b136ea224fe,,,,,,,,,1137,-84.8125,36.375,1,0,0,response7disk,,1,-30.546875,0.6328125,1,0,0,rectangle,-30.546875,0.6328125,1,0,0,-30.546875,0.6328125,1,0,0,0,134,134,67,1,,,,,,,,
,,,,,,,,,,,,,FF,,,,,,,,0.9667,,,,,,,,,,,,,,,,,,,,,,61007d3e328431a4409a59cc,61036ca384ad83fd30723a66,2021-07-29_23h06.50.173,Simcolourproject_2stim_asymm_v5,2020.2.10,MacIntel,60,61025ae37ef11b136ea224fe,,,,,,,,,999,53.9921875,-40.2265625,1,0,0,response3disk,,5,7.19921875,-4.21875,1,0,0,rectangle,7.19921875,-4.21875,1,0,0,7.19921875,-4.21875,1,0,0,0,135,135,105,1,,,,,,,,
,,,,,,,,,,,,,FF,,,,,,,,1.0508,,,,,,,,,,,,,,,,,,,,,,61007d3e328431a4409a59cc,61036ca384ad83fd30723a66,2021-07-29_23h06.50.173,Simcolourproject_2stim_asymm_v5,2020.2.10,MacIntel,60,61025ae37ef11b136ea224fe,,,,,,,,,3906,-39.984375,74.76171875,1,0,0,response7disk,,0,-10.21484375,12.8203125,1,0,0,rectangle,-10.21484375,12.8203125,1,0,0,-10.21484375,12.8203125,1,0,0,0,136,136,22,1,,,,,,,,
,,,,,,,,,,,,,FF,,,,,,,,1.1509,,,,,,,,,,,,,,,,,,,,,,61007d3e328431a4409a59cc,61036ca384ad83fd30723a66,2021-07-29_23h06.50.173,Simcolourproject_2stim_asymm_v5,2020.2.10,MacIntel,60,61025ae37ef11b136ea224fe,,,,,,,,,3071,75.515625,30.171875,1,0,0,response1disk,,6,5.82421875,3.03125,1,0,0,rectangle,5.82421875,3.03125,1,0,0,5.82421875,3.03125,1,0,0,0,137,137,16,1,,,,,,,,
,,,,,,,,,,,,,FF,,,,,,,,1.5331,,,,,,,,,,,,,,,,,,,,,,61007d3e328431a4409a59cc,61036ca384ad83fd30723a66,2021-07-29_23h06.50.173,Simcolourproject_2stim_asymm_v5,2020.2.10,MacIntel,60,61025ae37ef11b136ea224fe,,,,,,,,,1668,89.08203125,-27.265625,1,0,0,response3disk,,5,8.41015625,-10.09375,1,0,0,rectangle,8.41015625,-10.09375,1,0,0,8.41015625,-10.09375,1,0,0,0,138,138,54,1,,,,,,,,
,,,,,,,,,,,,,FF,,,,,,,,2.4166,,,,,,,,,,,,,,,,,,,,,,61007d3e328431a4409a59cc,61036ca384ad83fd30723a66,2021-07-29_23h06.50.173,Simcolourproject_2stim_asymm_v5,2020.2.10,MacIntel,60,61025ae37ef11b136ea224fe,,,,,,,,,2870,94.59765625,-44.01171875,1,0,0,response3disk,,5,19.40234375,-0.4453125,1,0,0,rectangle,19.40234375,-0.4453125,1,0,0,19.40234375,-0.4453125,1,0,0,0,139,139,81,1,,,,,,,,
,,,,,,,,,,,,,FF,,,,,,,,0.8009,,,,,,,,,,,,,,,,,,,,,,61007d3e328431a4409a59cc,61036ca384ad83fd30723a66,2021-07-29_23h06.50.173,Simcolourproject_2stim_asymm_v5,2020.2.10,MacIntel,60,61025ae37ef11b136ea224fe,,,,,,,,,1742,79.078125,22.27734375,1,0,0,response1disk,,6,2.51953125,3.69140625,1,0,0,rectangle,2.51953125,3.69140625,1,0,0,2.51953125,3.69140625,1,0,0,0,140,140,21,1,,,,,,,,
,,,,,,,,,,,,,FF,,,,,,,,0.7326,,,,,,,,,,,,,,,,,,,,,,61007d3e328431a4409a59cc,61036ca384ad83fd30723a66,2021-07-29_23h06.50.173,Simcolourproject_2stim_asymm_v5,2020.2.10,MacIntel,60,61025ae37ef11b136ea224fe,,,,,,,,,2444,82.421875,29.94921875,1,0,0,response1disk,,6,9.83203125,2.1796875,1,0,0,rectangle,9.83203125,2.1796875,1,0,0,9.83203125,2.1796875,1,0,0,0,141,141,100,1,,,,,,,,
,,,,,,,,,,,,,FF,,,,,,,,0.7671,,,,,,,,,,,,,,,,,,,,,,61007d3e328431a4409a59cc,61036ca384ad83fd30723a66,2021-07-29_23h06.50.173,Simcolourproject_2stim_asymm_v5,2020.2.10,MacIntel,60,61025ae37ef11b136ea224fe,,,,,,,,,1014,27.58984375,68.71875,1,0,0,response1disk,,7,18.2421875,6.0390625,1,0,0,rectangle,18.2421875,6.0390625,1,0,0,18.2421875,6.0390625,1,0,0,0,142,142,90,1,,,,,,,,
,,,,,,,,,,,,,FF,,,,,,,,0.8665,,,,,,,,,,,,,,,,,,,,,,61007d3e328431a4409a59cc,61036ca384ad83fd30723a66,2021-07-29_23h06.50.173,Simcolourproject_2stim_asymm_v5,2020.2.10,MacIntel,60,61025ae37ef11b136ea224fe,,,,,,,,,910,93.0625,56.62109375,1,0,0,response1disk,,6,11.18359375,4.5390625,1,0,0,rectangle,11.18359375,4.5390625,1,0,0,11.18359375,4.5390625,1,0,0,0,143,143,85,1,,,,,,,,
,,,,,,,,,,,,,FF,,,,,,,,1.0834,,,,,,,,,,,,,,,,,,,,,,61007d3e328431a4409a59cc,61036ca384ad83fd30723a66,2021-07-29_23h06.50.173,Simcolourproject_2stim_asymm_v5,2020.2.10,MacIntel,60,61025ae37ef11b136ea224fe,,,,,,,,,1719,44.875,-60.9453125,1,0,0,response3disk,,4,17.015625,-4,1,0,0,rectangle,17.015625,-4,1,0,0,17.015625,-4,1,0,0,0,144,144,89,1,,,,,,,,
,,,,,,,,,,,,,FF,,,,,,,,1.283,,,,,,,,,,,,,,,,,,,,,,61007d3e328431a4409a59cc,61036ca384ad83fd30723a66,2021-07-29_23h06.50.173,Simcolourproject_2stim_asymm_v5,2020.2.10,MacIntel,60,61025ae37ef11b136ea224fe,,,,,,,,,982,36.58203125,-37.94140625,1,0,0,response3disk,,4,11.546875,-2.42578125,1,0,0,rectangle,82.94921875,44.29296875,1,0,0,-0.4140625,-9.2734375,1,0,0,0,145,145,53,1,,response1disk_3,TRUE,6,6,"[246,129,173,195,173,269,300,308,185,206,29,34,194,93,146,213,92,151,34,223]",1.5512,rectangle
,,,,,,,,,,,,,FF,,,,,,,,0.8843,,,,,,,,,,,,,,,,,,,,,,61007d3e328431a4409a59cc,61036ca384ad83fd30723a66,2021-07-29_23h06.50.173,Simcolourproject_2stim_asymm_v5,2020.2.10,MacIntel,60,61025ae37ef11b136ea224fe,,,,,,,,,1800,96.0078125,31.40234375,1,0,0,response1disk,,6,30.7734375,9.296875,1,0,0,rectangle,30.7734375,9.296875,1,0,0,30.7734375,9.296875,1,0,0,0,146,146,92,1,,,,,,,,
,,,,,,,,,,,,,FF,,,,,,,,1.1675,,,,,,,,,,,,,,,,,,,,,,61007d3e328431a4409a59cc,61036ca384ad83fd30723a66,2021-07-29_23h06.50.173,Simcolourproject_2stim_asymm_v5,2020.2.10,MacIntel,60,61025ae37ef11b136ea224fe,,,,,,,,,3662,30.1328125,-81.26953125,1,0,0,response3disk,,4,10.51953125,-3.83984375,1,0,0,rectangle,10.51953125,-3.83984375,1,0,0,10.51953125,-3.83984375,1,0,0,0,147,147,87,1,,,,,,,,
,,,,,,,,,,,,,FF,,,,,,,,0.9501,,,,,,,,,,,,,,,,,,,,,,61007d3e328431a4409a59cc,61036ca384ad83fd30723a66,2021-07-29_23h06.50.173,Simcolourproject_2stim_asymm_v5,2020.2.10,MacIntel,60,61025ae37ef11b136ea224fe,,,,,,,,,1791,91.484375,36.9453125,1,0,0,response1disk,,6,13.83984375,4.40234375,1,0,0,rectangle,13.83984375,4.40234375,1,0,0,13.83984375,4.40234375,1,0,0,0,148,148,124,1,,,,,,,,
,,,,,,,,,,,,,FF,,,,,,,,1.0171,,,,,,,,,,,,,,,,,,,,,,61007d3e328431a4409a59cc,61036ca384ad83fd30723a66,2021-07-29_23h06.50.173,Simcolourproject_2stim_asymm_v5,2020.2.10,MacIntel,60,61025ae37ef11b136ea224fe,,,,,,,,,1605,78.94921875,-47.58984375,1,0,0,response3disk,,5,15.37109375,-6.8671875,1,0,0,rectangle,15.37109375,-6.8671875,1,0,0,15.37109375,-6.8671875,1,0,0,0,149,149,121,1,,,,,,,,
,,,,,,,,,,,,,FF,,,,,,,,0.8005,,,,,,,,,,,,,,,,,,,,,,61007d3e328431a4409a59cc,61036ca384ad83fd30723a66,2021-07-29_23h06.50.173,Simcolourproject_2stim_asymm_v5,2020.2.10,MacIntel,60,61025ae37ef11b136ea224fe,,,,,,,,,484,73.52734375,25.28125,1,0,0,response1disk,,6,13.734375,3.8515625,1,0,0,rectangle,26.8125,81.1015625,1,0,0,14.859375,13.66796875,1,0,0,0,150,150,0,1,,response1disk_3,TRUE,7,7,"[246,129,173,195,173,269,300,308,185,206,29,34,194,93,146,213,92,151,34,223]",1.3495,rectangle
,,,,,,,,,,,,,FF,,,,,,,,1.1503,,,,,,,,,,,,,,,,,,,,,,61007d3e328431a4409a59cc,61036ca384ad83fd30723a66,2021-07-29_23h06.50.173,Simcolourproject_2stim_asymm_v5,2020.2.10,MacIntel,60,61025ae37ef11b136ea224fe,,,,,,,,,4260,42.125,-82.421875,1,0,0,response3disk,,4,20.01171875,-4.52734375,1,0,0,rectangle,20.01171875,-4.52734375,1,0,0,20.01171875,-4.52734375,1,0,0,0,151,151,70,1,,,,,,,,
,,,,,,,,,,,,,FF,,,,,,,,0.8507,,,,,,,,,,,,,,,,,,,,,,61007d3e328431a4409a59cc,61036ca384ad83fd30723a66,2021-07-29_23h06.50.173,Simcolourproject_2stim_asymm_v5,2020.2.10,MacIntel,60,61025ae37ef11b136ea224fe,,,,,,,,,645,-54.41015625,-68.73046875,1,0,0,response5disk,,3,-26.65625,-5.296875,1,0,0,rectangle,-26.65625,-5.296875,1,0,0,-26.65625,-5.296875,1,0,0,0,152,152,37,1,,,,,,,,
,,,,,,,,,,,,,FF,,,,,,,,0.7179,,,,,,,,,,,,,,,,,,,,,,61007d3e328431a4409a59cc,61036ca384ad83fd30723a66,2021-07-29_23h06.50.173,Simcolourproject_2stim_asymm_v5,2020.2.10,MacIntel,60,61025ae37ef11b136ea224fe,,,,,,,,,1341,46.92578125,-27.6640625,1,0,0,response3disk,,5,-0.5078125,7.9375,1,0,0,rectangle,-0.5078125,7.9375,1,0,0,-0.5078125,7.9375,1,0,0,0,153,153,149,1,,,,,,,,
,,,,,,,,,,,,,FF,,,,,,,,0.7502,,,,,,,,,,,,,,,,,,,,,,61007d3e328431a4409a59cc,61036ca384ad83fd30723a66,2021-07-29_23h06.50.173,Simcolourproject_2stim_asymm_v5,2020.2.10,MacIntel,60,61025ae37ef11b136ea224fe,,,,,,,,,4365,-56.36328125,27.34375,1,0,0,response7disk,,1,14.3984375,-2.6171875,1,0,0,rectangle,14.3984375,-2.6171875,1,0,0,14.3984375,-2.6171875,1,0,0,0,154,154,12,1,,,,,,,,
,,,,,,,,,,,,,FF,,,,,,,,1.0854,,,,,,,,,,,,,,,,,,,,,,61007d3e328431a4409a59cc,61036ca384ad83fd30723a66,2021-07-29_23h06.50.173,Simcolourproject_2stim_asymm_v5,2020.2.10,MacIntel,60,61025ae37ef11b136ea224fe,,,,,,,,,110,-48.35546875,-85.2578125,1,0,0,response5disk,,3,-10.39453125,-4.828125,1,0,0,rectangle,-10.39453125,-4.828125,1,0,0,-10.39453125,-4.828125,1,0,0,0,155,155,29,1,,,,,,,,
,,,,,,,,,,,,,FF,,,,,,,,0.784,,,,,,,,,,,,,,,,,,,,,,61007d3e328431a4409a59cc,61036ca384ad83fd30723a66,2021-07-29_23h06.50.173,Simcolourproject_2stim_asymm_v5,2020.2.10,MacIntel,60,61025ae37ef11b136ea224fe,,,,,,,,,1745,-71.4921875,-35.94921875,1,0,0,response5disk,,2,-16.91015625,-4.81640625,1,0,0,rectangle,-16.91015625,-4.81640625,1,0,0,-16.91015625,-4.81640625,1,0,0,0,156,156,52,1,,,,,,,,
,,,,,,,,,,,,,FF,,,,,,,,0.7661,,,,,,,,,,,,,,,,,,,,,,61007d3e328431a4409a59cc,61036ca384ad83fd30723a66,2021-07-29_23h06.50.173,Simcolourproject_2stim_asymm_v5,2020.2.10,MacIntel,60,61025ae37ef11b136ea224fe,,,,,,,,,1170,56.6875,-18.3046875,1,0,0,response3disk,,5,19.23828125,-1.82421875,1,0,0,rectangle,19.23828125,-1.82421875,1,0,0,19.23828125,-1.82421875,1,0,0,0,157,157,104,1,,,,,,,,
,,,,,,,,,,,,,FF,,,,,,,,0.8001,,,,,,,,,,,,,,,,,,,,,,61007d3e328431a4409a59cc,61036ca384ad83fd30723a66,2021-07-29_23h06.50.173,Simcolourproject_2stim_asymm_v5,2020.2.10,MacIntel,60,61025ae37ef11b136ea224fe,,,,,,,,,3061,-68.03515625,-32.57421875,1,0,0,response5disk,,2,-8.66796875,-6.28125,1,0,0,rectangle,-8.66796875,-6.28125,1,0,0,-8.66796875,-6.28125,1,0,0,0,158,158,7,1,,,,,,,,
,,,,,,,,,,,,,FF,,,,,,,,0.784,,,,,,,,,,,,,,,,,,,,,,61007d3e328431a4409a59cc,61036ca384ad83fd30723a66,2021-07-29_23h06.50.173,Simcolourproject_2stim_asymm_v5,2020.2.10,MacIntel,60,61025ae37ef11b136ea224fe,,,,,,,,,1220,-63.33203125,-43.48828125,1,0,0,response5disk,,2,-7.45703125,-3.17578125,1,0,0,rectangle,-7.45703125,-3.17578125,1,0,0,-7.45703125,-3.17578125,1,0,0,0,159,159,23,1,,,,,,,,
,,,,,,,,,,,,,FF,,,,,,,,0.7509,,,,,,,,,,,,,,,,,,,,,,61007d3e328431a4409a59cc,61036ca384ad83fd30723a66,2021-07-29_23h06.50.173,Simcolourproject_2stim_asymm_v5,2020.2.10,MacIntel,60,61025ae37ef11b136ea224fe,,,,,,,,,790,72.8984375,-35.984375,1,0,0,response3disk,,5,16.51171875,-9.18359375,1,0,0,rectangle,16.51171875,-9.18359375,1,0,0,16.51171875,-9.18359375,1,0,0,1,0,160,141,1,,,,,,,,
,,,,,,,,,,,,,FF,,,,,,,,1.1331,,,,,,,,,,,,,,,,,,,,,,61007d3e328431a4409a59cc,61036ca384ad83fd30723a66,2021-07-29_23h06.50.173,Simcolourproject_2stim_asymm_v5,2020.2.10,MacIntel,60,61025ae37ef11b136ea224fe,,,,,,,,,907,-89.140625,18.7421875,1,0,0,response7disk,,1,-27.46484375,-3.3984375,1,0,0,rectangle,-27.46484375,-3.3984375,1,0,0,-27.46484375,-3.3984375,1,0,0,1,1,161,73,1,,,,,,,,
,,,,,,,,,,,,,FF,,,,,,,,0.933,,,,,,,,,,,,,,,,,,,,,,61007d3e328431a4409a59cc,61036ca384ad83fd30723a66,2021-07-29_23h06.50.173,Simcolourproject_2stim_asymm_v5,2020.2.10,MacIntel,60,61025ae37ef11b136ea224fe,,,,,,,,,3203,-77.703125,-42.75390625,1,0,0,response5disk,,2,-9.98046875,0.60546875,1,0,0,rectangle,-9.98046875,0.60546875,1,0,0,-9.98046875,0.60546875,1,0,0,1,2,162,113,1,,,,,,,,
,,,,,,,,,,,,,FF,,,,,,,,0.7668,,,,,,,,,,,,,,,,,,,,,,61007d3e328431a4409a59cc,61036ca384ad83fd30723a66,2021-07-29_23h06.50.173,Simcolourproject_2stim_asymm_v5,2020.2.10,MacIntel,60,61025ae37ef11b136ea224fe,,,,,,,,,2906,84.59375,36.62109375,1,0,0,response1disk,,6,24.4765625,16.6953125,1,0,0,rectangle,24.4765625,16.6953125,1,0,0,24.4765625,16.6953125,1,0,0,1,3,163,69,1,,,,,,,,
,,,,,,,,,,,,,FF,,,,,,,,0.7679,,,,,,,,,,,,,,,,,,,,,,61007d3e328431a4409a59cc,61036ca384ad83fd30723a66,2021-07-29_23h06.50.173,Simcolourproject_2stim_asymm_v5,2020.2.10,MacIntel,60,61025ae37ef11b136ea224fe,,,,,,,,,1911,59.9765625,-43.6328125,1,0,0,response3disk,,5,0.41015625,-4.48046875,1,0,0,rectangle,0.41015625,-4.48046875,1,0,0,0.41015625,-4.48046875,1,0,0,1,4,164,157,1,,,,,,,,
,,,,,,,,,,,,,FF,,,,,,,,1.467,,,,,,,,,,,,,,,,,,,,,,61007d3e328431a4409a59cc,61036ca384ad83fd30723a66,2021-07-29_23h06.50.173,Simcolourproject_2stim_asymm_v5,2020.2.10,MacIntel,60,61025ae37ef11b136ea224fe,,,,,,,,,451,73.05859375,-35.33984375,1,0,0,response3disk,,5,18.3203125,-8.59765625,1,0,0,rectangle,18.3203125,-8.59765625,1,0,0,18.3203125,-8.59765625,1,0,0,1,5,165,66,1,,,,,,,,
,,,,,,,,,,,,,FF,,,,,,,,1.1002,,,,,,,,,,,,,,,,,,,,,,61007d3e328431a4409a59cc,61036ca384ad83fd30723a66,2021-07-29_23h06.50.173,Simcolourproject_2stim_asymm_v5,2020.2.10,MacIntel,60,61025ae37ef11b136ea224fe,,,,,,,,,1630,76.5546875,-16.76171875,1,0,0,response3disk,,5,21.17578125,-5.4296875,1,0,0,rectangle,21.17578125,-5.4296875,1,0,0,21.17578125,-5.4296875,1,0,0,1,6,166,71,1,,,,,,,,
,,,,,,,,,,,,,FF,,,,,,,,0.7673,,,,,,,,,,,,,,,,,,,,,,61007d3e328431a4409a59cc,61036ca384ad83fd30723a66,2021-07-29_23h06.50.173,Simcolourproject_2stim_asymm_v5,2020.2.10,MacIntel,60,61025ae37ef11b136ea224fe,,,,,,,,,1155,-24.9375,-54.765625,1,0,0,response5disk,,3,-16.375,-4.69140625,1,0,0,rectangle,-16.375,-4.69140625,1,0,0,-16.375,-4.69140625,1,0,0,1,7,167,1,1,,,,,,,,
,,,,,,,,,,,,,FF,,,,,,,,1.134,,,,,,,,,,,,,,,,,,,,,,61007d3e328431a4409a59cc,61036ca384ad83fd30723a66,2021-07-29_23h06.50.173,Simcolourproject_2stim_asymm_v5,2020.2.10,MacIntel,60,61025ae37ef11b136ea224fe,,,,,,,,,1416,77.06640625,34.45703125,1,0,0,response1disk,,6,12.19921875,-3.80859375,1,0,0,rectangle,12.19921875,-3.80859375,1,0,0,12.19921875,-3.80859375,1,0,0,1,8,168,159,1,,,,,,,,
,,,,,,,,,,,,,FF,,,,,,,,0.7004,,,,,,,,,,,,,,,,,,,,,,61007d3e328431a4409a59cc,61036ca384ad83fd30723a66,2021-07-29_23h06.50.173,Simcolourproject_2stim_asymm_v5,2020.2.10,MacIntel,60,61025ae37ef11b136ea224fe,,,,,,,,,1010,57.15625,-37.109375,1,0,0,response3disk,,5,6.4453125,2.04296875,1,0,0,rectangle,6.4453125,2.04296875,1,0,0,6.4453125,2.04296875,1,0,0,1,9,169,11,1,,,,,,,,
,,,,,,,,,,,,,FF,,,,,,,,0.8501,,,,,,,,,,,,,,,,,,,,,,61007d3e328431a4409a59cc,61036ca384ad83fd30723a66,2021-07-29_23h06.50.173,Simcolourproject_2stim_asymm_v5,2020.2.10,MacIntel,60,61025ae37ef11b136ea224fe,,,,,,,,,325,77.734375,45.49609375,1,0,0,response1disk,,6,10.703125,-1.890625,1,0,0,rectangle,10.703125,-1.890625,1,0,0,10.703125,-1.890625,1,0,0,1,10,170,155,1,,,,,,,,
,,,,,,,,,,,,,FF,,,,,,,,0.8833,,,,,,,,,,,,,,,,,,,,,,61007d3e328431a4409a59cc,61036ca384ad83fd30723a66,2021-07-29_23h06.50.173,Simcolourproject_2stim_asymm_v5,2020.2.10,MacIntel,60,61025ae37ef11b136ea224fe,,,,,,,,,1171,83.55859375,-22.6640625,1,0,0,response3disk,,5,27.90234375,-5.62109375,1,0,0,rectangle,27.90234375,-5.62109375,1,0,0,27.90234375,-5.62109375,1,0,0,1,11,171,119,1,,,,,,,,
,,,,,,,,,,,,,FF,,,,,,,,1.0339,,,,,,,,,,,,,,,,,,,,,,61007d3e328431a4409a59cc,61036ca384ad83fd30723a66,2021-07-29_23h06.50.173,Simcolourproject_2stim_asymm_v5,2020.2.10,MacIntel,60,61025ae37ef11b136ea224fe,,,,,,,,,1144,-19.0546875,-85.60546875,1,0,0,response5disk,,3,-2.109375,-5.734375,1,0,0,rectangle,-83.94921875,-41.76953125,1,0,0,-6.78515625,-3.1640625,1,0,0,1,12,172,31,1,,response5disk_3,TRUE,2,2,"[246,129,173,195,173,269,300,308,185,206,29,34,194,93,146,213,92,151,34,223]",1.7165,rectangle
,,,,,,,,,,,,,FF,,,,,,,,0.6837,,,,,,,,,,,,,,,,,,,,,,61007d3e328431a4409a59cc,61036ca384ad83fd30723a66,2021-07-29_23h06.50.173,Simcolourproject_2stim_asymm_v5,2020.2.10,MacIntel,60,61025ae37ef11b136ea224fe,,,,,,,,,4014,81.48828125,-20.5,1,0,0,response3disk,,5,17.03125,-0.890625,1,0,0,rectangle,17.03125,-0.890625,1,0,0,17.03125,-0.890625,1,0,0,1,13,173,90,1,,,,,,,,
,,,,,,,,,,,,,FF,,,,,,,,0.7003,,,,,,,,,,,,,,,,,,,,,,61007d3e328431a4409a59cc,61036ca384ad83fd30723a66,2021-07-29_23h06.50.173,Simcolourproject_2stim_asymm_v5,2020.2.10,MacIntel,60,61025ae37ef11b136ea224fe,,,,,,,,,3051,-29.95703125,-58.14453125,1,0,0,response5disk,,3,-9.2578125,1.47265625,1,0,0,rectangle,-9.2578125,1.47265625,1,0,0,-9.2578125,1.47265625,1,0,0,1,14,174,111,1,,,,,,,,
,,,,,,,,,,,,,FF,,,,,,,,1.417,,,,,,,,,,,,,,,,,,,,,,61007d3e328431a4409a59cc,61036ca384ad83fd30723a66,2021-07-29_23h06.50.173,Simcolourproject_2stim_asymm_v5,2020.2.10,MacIntel,60,61025ae37ef11b136ea224fe,,,,,,,,,3956,96.078125,28.3984375,1,0,0,response1disk,,6,24.27734375,1.9375,1,0,0,rectangle,24.27734375,1.9375,1,0,0,24.27734375,1.9375,1,0,0,1,15,175,115,1,,,,,,,,
,,,,,,,,,,,,,FF,,,,,,,,0.7174,,,,,,,,,,,,,,,,,,,,,,61007d3e328431a4409a59cc,61036ca384ad83fd30723a66,2021-07-29_23h06.50.173,Simcolourproject_2stim_asymm_v5,2020.2.10,MacIntel,60,61025ae37ef11b136ea224fe,,,,,,,,,1517,39.546875,-63.9921875,1,0,0,response3disk,,4,20.4765625,-6.90625,1,0,0,rectangle,20.4765625,-6.90625,1,0,0,20.4765625,-6.90625,1,0,0,1,16,176,20,1,,,,,,,,
,,,,,,,,,,,,,FF,,,,,,,,1.0166,,,,,,,,,,,,,,,,,,,,,,61007d3e328431a4409a59cc,61036ca384ad83fd30723a66,2021-07-29_23h06.50.173,Simcolourproject_2stim_asymm_v5,2020.2.10,MacIntel,60,61025ae37ef11b136ea224fe,,,,,,,,,3803,27.44921875,-86.98046875,1,0,0,response3disk,,4,13.47265625,-5.66796875,1,0,0,rectangle,13.47265625,-5.66796875,1,0,0,13.47265625,-5.66796875,1,0,0,1,17,177,24,1,,,,,,,,
,,,,,,,,,,,,,FF,,,,,,,,0.9831,,,,,,,,,,,,,,,,,,,,,,61007d3e328431a4409a59cc,61036ca384ad83fd30723a66,2021-07-29_23h06.50.173,Simcolourproject_2stim_asymm_v5,2020.2.10,MacIntel,60,61025ae37ef11b136ea224fe,,,,,,,,,2133,78.35546875,27.87890625,1,0,0,response1disk,,6,15.6640625,14.76953125,1,0,0,rectangle,15.6640625,14.76953125,1,0,0,15.6640625,14.76953125,1,0,0,1,18,178,109,1,,,,,,,,
,,,,,,,,,,,,,FF,,,,,,,,0.9165,,,,,,,,,,,,,,,,,,,,,,61007d3e328431a4409a59cc,61036ca384ad83fd30723a66,2021-07-29_23h06.50.173,Simcolourproject_2stim_asymm_v5,2020.2.10,MacIntel,60,61025ae37ef11b136ea224fe,,,,,,,,,733,-66.0390625,-49.6640625,1,0,0,response5disk,,2,-12.08984375,-11.4609375,1,0,0,rectangle,-12.08984375,-11.4609375,1,0,0,-12.08984375,-11.4609375,1,0,0,1,19,179,34,1,,,,,,,,
,,,,,,,,,,,,,FF,,,,,,,,0.7188,,,,,,,,,,,,,,,,,,,,,,61007d3e328431a4409a59cc,61036ca384ad83fd30723a66,2021-07-29_23h06.50.173,Simcolourproject_2stim_asymm_v5,2020.2.10,MacIntel,60,61025ae37ef11b136ea224fe,,,,,,,,,293,71.578125,-26.23046875,1,0,0,response3disk,,5,17.87109375,-8.93359375,1,0,0,rectangle,17.87109375,-8.93359375,1,0,0,17.87109375,-8.93359375,1,0,0,1,20,180,48,1,,,,,,,,
,,,,,,,,,,,,,FF,,,,,,,,0.9669,,,,,,,,,,,,,,,,,,,,,,61007d3e328431a4409a59cc,61036ca384ad83fd30723a66,2021-07-29_23h06.50.173,Simcolourproject_2stim_asymm_v5,2020.2.10,MacIntel,60,61025ae37ef11b136ea224fe,,,,,,,,,794,68.38671875,-33.6171875,1,0,0,response3disk,,5,8.5390625,-6.48046875,1,0,0,rectangle,8.5390625,-6.48046875,1,0,0,8.5390625,-6.48046875,1,0,0,1,21,181,9,1,,,,,,,,
,,,,,,,,,,,,,FF,,,,,,,,0.8166,,,,,,,,,,,,,,,,,,,,,,61007d3e328431a4409a59cc,61036ca384ad83fd30723a66,2021-07-29_23h06.50.173,Simcolourproject_2stim_asymm_v5,2020.2.10,MacIntel,60,61025ae37ef11b136ea224fe,,,,,,,,,2667,-62.52734375,26.984375,1,0,0,response7disk,,1,-4.64453125,8.04296875,1,0,0,rectangle,-4.64453125,8.04296875,1,0,0,-4.64453125,8.04296875,1,0,0,1,22,182,28,1,,,,,,,,
,,,,,,,,,,,,,FF,,,,,,,,0.7348,,,,,,,,,,,,,,,,,,,,,,61007d3e328431a4409a59cc,61036ca384ad83fd30723a66,2021-07-29_23h06.50.173,Simcolourproject_2stim_asymm_v5,2020.2.10,MacIntel,60,61025ae37ef11b136ea224fe,,,,,,,,,1432,54.58203125,33.203125,1,0,0,response1disk,,6,-2.625,3.33203125,1,0,0,rectangle,-2.625,3.33203125,1,0,0,-2.625,3.33203125,1,0,0,1,23,183,146,1,,,,,,,,
,,,,,,,,,,,,,FF,,,,,,,,1.3506,,,,,,,,,,,,,,,,,,,,,,61007d3e328431a4409a59cc,61036ca384ad83fd30723a66,2021-07-29_23h06.50.173,Simcolourproject_2stim_asymm_v5,2020.2.10,MacIntel,60,61025ae37ef11b136ea224fe,,,,,,,,,3978,-44.71484375,-57.421875,1,0,0,response5disk,,3,-3.85546875,11.19140625,1,0,0,rectangle,88.97265625,30.22265625,1,0,0,18.47265625,13.69921875,1,0,0,1,24,184,41,1,,response1disk_3,TRUE,6,6,"[246,129,173,195,173,269,300,308,185,206,29,34,194,93,146,213,92,151,34,223]",1.3495,rectangle
,,,,,,,,,,,,,FF,,,,,,,,0.7675,,,,,,,,,,,,,,,,,,,,,,61007d3e328431a4409a59cc,61036ca384ad83fd30723a66,2021-07-29_23h06.50.173,Simcolourproject_2stim_asymm_v5,2020.2.10,MacIntel,60,61025ae37ef11b136ea224fe,,,,,,,,,4011,85.4453125,39.8984375,1,0,0,response1disk,,6,18.49609375,5.67578125,1,0,0,rectangle,18.49609375,5.67578125,1,0,0,18.49609375,5.67578125,1,0,0,1,25,185,47,1,,,,,,,,
,,,,,,,,,,,,,FF,,,,,,,,0.9002,,,,,,,,,,,,,,,,,,,,,,61007d3e328431a4409a59cc,61036ca384ad83fd30723a66,2021-07-29_23h06.50.173,Simcolourproject_2stim_asymm_v5,2020.2.10,MacIntel,60,61025ae37ef11b136ea224fe,,,,,,,,,3519,-67.09765625,-34.65234375,1,0,0,response5disk,,2,-0.4453125,-7.421875,1,0,0,rectangle,-0.4453125,-7.421875,1,0,0,-0.4453125,-7.421875,1,0,0,1,26,186,104,1,,,,,,,,
,,,,,,,,,,,,,FF,,,,,,,,1.0829,,,,,,,,,,,,,,,,,,,,,,61007d3e328431a4409a59cc,61036ca384ad83fd30723a66,2021-07-29_23h06.50.173,Simcolourproject_2stim_asymm_v5,2020.2.10,MacIntel,60,61025ae37ef11b136ea224fe,,,,,,,,,2138,57.33203125,25.4609375,1,0,0,response1disk,,6,19.72265625,-0.71484375,1,0,0,rectangle,19.72265625,-0.71484375,1,0,0,19.72265625,-0.71484375,1,0,0,1,27,187,120,1,,,,,,,,
,,,,,,,,,,,,,FF,,,,,,,,1.0326,,,,,,,,,,,,,,,,,,,,,,61007d3e328431a4409a59cc,61036ca384ad83fd30723a66,2021-07-29_23h06.50.173,Simcolourproject_2stim_asymm_v5,2020.2.10,MacIntel,60,61025ae37ef11b136ea224fe,,,,,,,,,389,-30.33203125,-81.52734375,1,0,0,response5disk,,3,-8.1171875,1.53515625,1,0,0,rectangle,-8.1171875,1.53515625,1,0,0,-8.1171875,1.53515625,1,0,0,1,28,188,68,1,,,,,,,,
,,,,,,,,,,,,,FF,,,,,,,,0.6831,,,,,,,,,,,,,,,,,,,,,,61007d3e328431a4409a59cc,61036ca384ad83fd30723a66,2021-07-29_23h06.50.173,Simcolourproject_2stim_asymm_v5,2020.2.10,MacIntel,60,61025ae37ef11b136ea224fe,,,,,,,,,3433,-64.484375,-24.71484375,1,0,0,response5disk,,2,-12.6328125,0.6484375,1,0,0,rectangle,-12.6328125,0.6484375,1,0,0,-12.6328125,0.6484375,1,0,0,1,29,189,70,1,,,,,,,,
,,,,,,,,,,,,,FF,,,,,,,,0.767,,,,,,,,,,,,,,,,,,,,,,61007d3e328431a4409a59cc,61036ca384ad83fd30723a66,2021-07-29_23h06.50.173,Simcolourproject_2stim_asymm_v5,2020.2.10,MacIntel,60,61025ae37ef11b136ea224fe,,,,,,,,,1266,78.45703125,38.4921875,1,0,0,response1disk,,6,-5.5078125,0.76953125,1,0,0,rectangle,-5.5078125,0.76953125,1,0,0,-5.5078125,0.76953125,1,0,0,1,30,190,17,1,,,,,,,,
,,,,,,,,,,,,,FF,,,,,,,,0.9995,,,,,,,,,,,,,,,,,,,,,,61007d3e328431a4409a59cc,61036ca384ad83fd30723a66,2021-07-29_23h06.50.173,Simcolourproject_2stim_asymm_v5,2020.2.10,MacIntel,60,61025ae37ef11b136ea224fe,,,,,,,,,3295,-49.41015625,-94.2421875,1,0,0,response5disk,,3,-28.8125,-10.25,1,0,0,rectangle,-28.8125,-10.25,1,0,0,-28.8125,-10.25,1,0,0,1,31,191,144,1,,,,,,,,
,,,,,,,,,,,,,FF,,,,,,,,0.6493,,,,,,,,,,,,,,,,,,,,,,61007d3e328431a4409a59cc,61036ca384ad83fd30723a66,2021-07-29_23h06.50.173,Simcolourproject_2stim_asymm_v5,2020.2.10,MacIntel,60,61025ae37ef11b136ea224fe,,,,,,,,,65,-69.8359375,-32.296875,1,0,0,response5disk,,2,-6.546875,2.94921875,1,0,0,rectangle,-6.546875,2.94921875,1,0,0,-6.546875,2.94921875,1,0,0,1,32,192,143,1,,,,,,,,
,,,,,,,,,,,,,FF,,,,,,,,0.8164,,,,,,,,,,,,,,,,,,,,,,61007d3e328431a4409a59cc,61036ca384ad83fd30723a66,2021-07-29_23h06.50.173,Simcolourproject_2stim_asymm_v5,2020.2.10,MacIntel,60,61025ae37ef11b136ea224fe,,,,,,,,,4247,-63.6875,-47.08984375,1,0,0,response5disk,,2,-8.38671875,4.5546875,1,0,0,rectangle,-78.75,22.78125,1,0,0,-22.625,2.63671875,1,0,0,1,33,193,94,1,,response7disk_3,TRUE,1,1,"[246,129,173,195,173,269,300,308,185,206,29,34,194,93,146,213,92,151,34,223]",1.8824,rectangle
,,,,,,,,,,,,,FF,,,,,,,,0.8017,,,,,,,,,,,,,,,,,,,,,,61007d3e328431a4409a59cc,61036ca384ad83fd30723a66,2021-07-29_23h06.50.173,Simcolourproject_2stim_asymm_v5,2020.2.10,MacIntel,60,61025ae37ef11b136ea224fe,,,,,,,,,300,84.96484375,51.5,1,0,0,response1disk,,6,-3.35546875,-11.1484375,1,0,0,rectangle,31.94140625,58.29296875,1,0,0,16.1328125,11.40234375,1,0,0,1,34,194,114,1,,response1disk_3,TRUE,7,7,"[246,129,173,195,173,269,300,308,185,206,29,34,194,93,146,213,92,151,34,223]",2.183,rectangle
,,,,,,,,,,,,,FF,,,,,,,,0.7677,,,,,,,,,,,,,,,,,,,,,,61007d3e328431a4409a59cc,61036ca384ad83fd30723a66,2021-07-29_23h06.50.173,Simcolourproject_2stim_asymm_v5,2020.2.10,MacIntel,60,61025ae37ef11b136ea224fe,,,,,,,,,1246,-46.62109375,-70.4765625,1,0,0,response5disk,,3,-3.515625,-1.32421875,1,0,0,rectangle,-3.515625,-1.32421875,1,0,0,-3.515625,-1.32421875,1,0,0,1,35,195,100,1,,,,,,,,
,,,,,,,,,,,,,FF,,,,,,,,0.8676,,,,,,,,,,,,,,,,,,,,,,61007d3e328431a4409a59cc,61036ca384ad83fd30723a66,2021-07-29_23h06.50.173,Simcolourproject_2stim_asymm_v5,2020.2.10,MacIntel,60,61025ae37ef11b136ea224fe,,,,,,,,,267,-72.46875,-44.17578125,1,0,0,response5disk,,2,-4.78125,-2.19140625,1,0,0,rectangle,-4.78125,-2.19140625,1,0,0,-4.78125,-2.19140625,1,0,0,1,36,196,77,1,,,,,,,,
,,,,,,,,,,,,,FF,,,,,,,,0.7168,,,,,,,,,,,,,,,,,,,,,,61007d3e328431a4409a59cc,61036ca384ad83fd30723a66,2021-07-29_23h06.50.173,Simcolourproject_2stim_asymm_v5,2020.2.10,MacIntel,60,61025ae37ef11b136ea224fe,,,,,,,,,1760,-85.703125,-58.890625,1,0,0,response5disk,,2,-7.796875,-0.2578125,1,0,0,rectangle,-7.796875,-0.2578125,1,0,0,-7.796875,-0.2578125,1,0,0,1,37,197,93,1,,,,,,,,
,,,,,,,,,,,,,FF,,,,,,,,1.6668,,,,,,,,,,,,,,,,,,,,,,61007d3e328431a4409a59cc,61036ca384ad83fd30723a66,2021-07-29_23h06.50.173,Simcolourproject_2stim_asymm_v5,2020.2.10,MacIntel,60,61025ae37ef11b136ea224fe,,,,,,,,,1440,-41.83203125,-96.66015625,1,0,0,response5disk,,3,-12.76953125,-10.78125,1,0,0,rectangle,-12.76953125,-10.78125,1,0,0,-12.76953125,-10.78125,1,0,0,1,38,198,116,1,,,,,,,,
,,,,,,,,,,,,,FF,,,,,,,,0.6837,,,,,,,,,,,,,,,,,,,,,,61007d3e328431a4409a59cc,61036ca384ad83fd30723a66,2021-07-29_23h06.50.173,Simcolourproject_2stim_asymm_v5,2020.2.10,MacIntel,60,61025ae37ef11b136ea224fe,,,,,,,,,3116,62.484375,-32.51171875,1,0,0,response3disk,,5,11.125,-6.59765625,1,0,0,rectangle,11.125,-6.59765625,1,0,0,11.125,-6.59765625,1,0,0,1,39,199,55,1,,,,,,,,
,,,,,,,,,,,,,FF,,,,,,,,0.7004,,,,,,,,,,,,,,,,,,,,,,61007d3e328431a4409a59cc,61036ca384ad83fd30723a66,2021-07-29_23h06.50.173,Simcolourproject_2stim_asymm_v5,2020.2.10,MacIntel,60,61025ae37ef11b136ea224fe,,,,,,,,,553,26.6796875,-57.7109375,1,0,0,response3disk,,4,18.4765625,-11.36328125,1,0,0,rectangle,18.4765625,-11.36328125,1,0,0,18.4765625,-11.36328125,1,0,0,1,40,200,106,1,,,,,,,,
,,,,,,,,,,,,,FF,,,,,,,,1.4008,,,,,,,,,,,,,,,,,,,,,,61007d3e328431a4409a59cc,61036ca384ad83fd30723a66,2021-07-29_23h06.50.173,Simcolourproject_2stim_asymm_v5,2020.2.10,MacIntel,60,61025ae37ef11b136ea224fe,,,,,,,,,3727,35.61328125,-60.35546875,1,0,0,response3disk,,4,14.53515625,-17.08203125,1,0,0,rectangle,14.53515625,-17.08203125,1,0,0,14.53515625,-17.08203125,1,0,0,1,41,201,59,1,,,,,,,,
,,,,,,,,,,,,,FF,,,,,,,,0.5673,,,,,,,,,,,,,,,,,,,,,,61007d3e328431a4409a59cc,61036ca384ad83fd30723a66,2021-07-29_23h06.50.173,Simcolourproject_2stim_asymm_v5,2020.2.10,MacIntel,60,61025ae37ef11b136ea224fe,,,,,,,,,3629,40.76171875,-61.078125,1,0,0,response3disk,,4,27.671875,-1.15625,1,0,0,rectangle,27.671875,-1.15625,1,0,0,27.671875,-1.15625,1,0,0,1,42,202,50,1,,,,,,,,
,,,,,,,,,,,,,FF,,,,,,,,0.6498,,,,,,,,,,,,,,,,,,,,,,61007d3e328431a4409a59cc,61036ca384ad83fd30723a66,2021-07-29_23h06.50.173,Simcolourproject_2stim_asymm_v5,2020.2.10,MacIntel,60,61025ae37ef11b136ea224fe,,,,,,,,,4212,63.15234375,-33.51171875,1,0,0,response3disk,,5,24.69921875,5.43359375,1,0,0,rectangle,24.69921875,5.43359375,1,0,0,24.69921875,5.43359375,1,0,0,1,43,203,134,1,,,,,,,,
,,,,,,,,,,,,,FF,,,,,,,,0.6675,,,,,,,,,,,,,,,,,,,,,,61007d3e328431a4409a59cc,61036ca384ad83fd30723a66,2021-07-29_23h06.50.173,Simcolourproject_2stim_asymm_v5,2020.2.10,MacIntel,60,61025ae37ef11b136ea224fe,,,,,,,,,2703,75.40625,-31.7578125,1,0,0,response3disk,,5,3.6640625,-5.1328125,1,0,0,rectangle,3.6640625,-5.1328125,1,0,0,3.6640625,-5.1328125,1,0,0,1,44,204,67,1,,,,,,,,
,,,,,,,,,,,,,FF,,,,,,,,0.7672,,,,,,,,,,,,,,,,,,,,,,61007d3e328431a4409a59cc,61036ca384ad83fd30723a66,2021-07-29_23h06.50.173,Simcolourproject_2stim_asymm_v5,2020.2.10,MacIntel,60,61025ae37ef11b136ea224fe,,,,,,,,,3250,-71.36328125,-38.7109375,1,0,0,response5disk,,2,-6.8125,-7.140625,1,0,0,rectangle,36.421875,66.90234375,1,0,0,7.4921875,4.19921875,1,0,0,1,45,205,107,1,,response1disk_3,TRUE,7,7,"[246,129,173,195,173,269,300,308,185,206,29,34,194,93,146,213,92,151,34,223]",1.2323,rectangle
,,,,,,,,,,,,,FF,,,,,,,,0.7,,,,,,,,,,,,,,,,,,,,,,61007d3e328431a4409a59cc,61036ca384ad83fd30723a66,2021-07-29_23h06.50.173,Simcolourproject_2stim_asymm_v5,2020.2.10,MacIntel,60,61025ae37ef11b136ea224fe,,,,,,,,,3932,-73.44921875,-46.1328125,1,0,0,response5disk,,2,-9.0234375,7.08984375,1,0,0,rectangle,-9.0234375,7.08984375,1,0,0,-9.0234375,7.08984375,1,0,0,1,46,206,21,1,,,,,,,,
,,,,,,,,,,,,,FF,,,,,,,,0.6176,,,,,,,,,,,,,,,,,,,,,,61007d3e328431a4409a59cc,61036ca384ad83fd30723a66,2021-07-29_23h06.50.173,Simcolourproject_2stim_asymm_v5,2020.2.10,MacIntel,60,61025ae37ef11b136ea224fe,,,,,,,,,3570,66.13671875,-28.2109375,1,0,0,response3disk,,5,4.26953125,3.03515625,1,0,0,rectangle,4.26953125,3.03515625,1,0,0,4.26953125,3.03515625,1,0,0,1,47,207,54,1,,,,,,,,
,,,,,,,,,,,,,FF,,,,,,,,0.634,,,,,,,,,,,,,,,,,,,,,,61007d3e328431a4409a59cc,61036ca384ad83fd30723a66,2021-07-29_23h06.50.173,Simcolourproject_2stim_asymm_v5,2020.2.10,MacIntel,60,61025ae37ef11b136ea224fe,,,,,,,,,350,-24.6953125,-71.3671875,1,0,0,response5disk,,3,-13.87109375,-7.625,1,0,0,rectangle,-13.87109375,-7.625,1,0,0,-13.87109375,-7.625,1,0,0,1,48,208,103,1,,,,,,,,
,,,,,,,,,,,,,FF,,,,,,,,0.8158,,,,,,,,,,,,,,,,,,,,,,61007d3e328431a4409a59cc,61036ca384ad83fd30723a66,2021-07-29_23h06.50.173,Simcolourproject_2stim_asymm_v5,2020.2.10,MacIntel,60,61025ae37ef11b136ea224fe,,,,,,,,,2322,77.765625,-24.53125,1,0,0,response3disk,,5,21.12890625,1.62109375,1,0,0,rectangle,21.12890625,1.62109375,1,0,0,21.12890625,1.62109375,1,0,0,1,49,209,23,1,,,,,,,,
,,,,,,,,,,,,,FF,,,,,,,,1.35,,,,,,,,,,,,,,,,,,,,,,61007d3e328431a4409a59cc,61036ca384ad83fd30723a66,2021-07-29_23h06.50.173,Simcolourproject_2stim_asymm_v5,2020.2.10,MacIntel,60,61025ae37ef11b136ea224fe,,,,,,,,,1990,72.23828125,51.10546875,1,0,0,response1disk,,6,-10.3828125,-4.234375,1,0,0,rectangle,-10.3828125,-4.234375,1,0,0,-10.3828125,-4.234375,1,0,0,1,50,210,142,1,,,,,,,,
,,,,,,,,,,,,,FF,,,,,,,,0.8334,,,,,,,,,,,,,,,,,,,,,,61007d3e328431a4409a59cc,61036ca384ad83fd30723a66,2021-07-29_23h06.50.173,Simcolourproject_2stim_asymm_v5,2020.2.10,MacIntel,60,61025ae37ef11b136ea224fe,,,,,,,,,266,-50.51171875,-77.8984375,1,0,0,response5disk,,3,-17.17578125,-0.08203125,1,0,0,rectangle,-17.17578125,-0.08203125,1,0,0,-17.17578125,-0.08203125,1,0,0,1,51,211,65,1,,,,,,,,
,,,,,,,,,,,,,FF,,,,,,,,0.5836,,,,,,,,,,,,,,,,,,,,,,61007d3e328431a4409a59cc,61036ca384ad83fd30723a66,2021-07-29_23h06.50.173,Simcolourproject_2stim_asymm_v5,2020.2.10,MacIntel,60,61025ae37ef11b136ea224fe,,,,,,,,,2055,76.44140625,-31.76171875,1,0,0,response3disk,,5,7.1015625,-14.765625,1,0,0,rectangle,-46.88671875,-90.09375,1,0,0,-16.30078125,1.765625,1,0,0,1,52,212,153,1,,response5disk_3,TRUE,3,3,"[246,129,173,195,173,269,300,308,185,206,29,34,194,93,146,213,92,151,34,223]",1.5499,rectangle
,,,,,,,,,,,,,FF,,,,,,,,0.8505,,,,,,,,,,,,,,,,,,,,,,61007d3e328431a4409a59cc,61036ca384ad83fd30723a66,2021-07-29_23h06.50.173,Simcolourproject_2stim_asymm_v5,2020.2.10,MacIntel,60,61025ae37ef11b136ea224fe,,,,,,,,,2891,-46.7265625,-72.80859375,1,0,0,response5disk,,3,-11.453125,3.26171875,1,0,0,rectangle,-11.453125,3.26171875,1,0,0,-11.453125,3.26171875,1,0,0,1,53,213,42,1,,,,,,,,
,,,,,,,,,,,,,FF,,,,,,,,0.6826,,,,,,,,,,,,,,,,,,,,,,61007d3e328431a4409a59cc,61036ca384ad83fd30723a66,2021-07-29_23h06.50.173,Simcolourproject_2stim_asymm_v5,2020.2.10,MacIntel,60,61025ae37ef11b136ea224fe,,,,,,,,,3228,61.38671875,-42.96484375,1,0,0,response3disk,,5,6.42578125,-6.28125,1,0,0,rectangle,6.42578125,-6.28125,1,0,0,6.42578125,-6.28125,1,0,0,1,54,214,126,1,,,,,,,,
,,,,,,,,,,,,,FF,,,,,,,,0.7006,,,,,,,,,,,,,,,,,,,,,,61007d3e328431a4409a59cc,61036ca384ad83fd30723a66,2021-07-29_23h06.50.173,Simcolourproject_2stim_asymm_v5,2020.2.10,MacIntel,60,61025ae37ef11b136ea224fe,,,,,,,,,752,-84.9140625,-56.79296875,1,0,0,response5disk,,2,-10.35546875,-9.78515625,1,0,0,rectangle,-10.35546875,-9.78515625,1,0,0,-10.35546875,-9.78515625,1,0,0,1,55,215,85,1,,,,,,,,
,,,,,,,,,,,,,FF,,,,,,,,0.7164,,,,,,,,,,,,,,,,,,,,,,61007d3e328431a4409a59cc,61036ca384ad83fd30723a66,2021-07-29_23h06.50.173,Simcolourproject_2stim_asymm_v5,2020.2.10,MacIntel,60,61025ae37ef11b136ea224fe,,,,,,,,,2854,91.453125,-29.171875,1,0,0,response3disk,,5,18.7265625,-10.0234375,1,0,0,rectangle,18.7265625,-10.0234375,1,0,0,18.7265625,-10.0234375,1,0,0,1,56,216,122,1,,,,,,,,
,,,,,,,,,,,,,FF,,,,,,,,0.6503,,,,,,,,,,,,,,,,,,,,,,61007d3e328431a4409a59cc,61036ca384ad83fd30723a66,2021-07-29_23h06.50.173,Simcolourproject_2stim_asymm_v5,2020.2.10,MacIntel,60,61025ae37ef11b136ea224fe,,,,,,,,,87,30.9609375,-63.69921875,1,0,0,response3disk,,4,17.5390625,-2.046875,1,0,0,rectangle,17.5390625,-2.046875,1,0,0,17.5390625,-2.046875,1,0,0,1,57,217,4,1,,,,,,,,
,,,,,,,,,,,,,FF,,,,,,,,0.7668,,,,,,,,,,,,,,,,,,,,,,61007d3e328431a4409a59cc,61036ca384ad83fd30723a66,2021-07-29_23h06.50.173,Simcolourproject_2stim_asymm_v5,2020.2.10,MacIntel,60,61025ae37ef11b136ea224fe,,,,,,,,,2541,-40.79296875,67.640625,1,0,0,response7disk,,0,-22.72265625,10.38671875,1,0,0,rectangle,-22.72265625,10.38671875,1,0,0,-22.72265625,10.38671875,1,0,0,1,58,218,132,1,,,,,,,,
,,,,,,,,,,,,,FF,,,,,,,,2.0831,,,,,,,,,,,,,,,,,,,,,,61007d3e328431a4409a59cc,61036ca384ad83fd30723a66,2021-07-29_23h06.50.173,Simcolourproject_2stim_asymm_v5,2020.2.10,MacIntel,60,61025ae37ef11b136ea224fe,,,,,,,,,4228,69.65234375,-26.2109375,1,0,0,response3disk,,5,24.6875,-5.3203125,1,0,0,rectangle,24.6875,-5.3203125,1,0,0,24.6875,-5.3203125,1,0,0,1,59,219,57,1,,,,,,,,
,,,,,,,,,,,,,FF,,,,,,,,0.718,,,,,,,,,,,,,,,,,,,,,,61007d3e328431a4409a59cc,61036ca384ad83fd30723a66,2021-07-29_23h06.50.173,Simcolourproject_2stim_asymm_v5,2020.2.10,MacIntel,60,61025ae37ef11b136ea224fe,,,,,,,,,2352,28.74609375,-62.28515625,1,0,0,response3disk,,4,23.2421875,-15.68359375,1,0,0,rectangle,23.2421875,-15.68359375,1,0,0,23.2421875,-15.68359375,1,0,0,1,60,220,105,1,,,,,,,,
,,,,,,,,,,,,,FF,,,,,,,,0.7833,,,,,,,,,,,,,,,,,,,,,,61007d3e328431a4409a59cc,61036ca384ad83fd30723a66,2021-07-29_23h06.50.173,Simcolourproject_2stim_asymm_v5,2020.2.10,MacIntel,60,61025ae37ef11b136ea224fe,,,,,,,,,2790,-27.1796875,-94.828125,1,0,0,response5disk,,3,-12.484375,3.82421875,1,0,0,rectangle,-12.484375,3.82421875,1,0,0,-12.484375,3.82421875,1,0,0,1,61,221,46,1,,,,,,,,
,,,,,,,,,,,,,FF,,,,,,,,0.7998,,,,,,,,,,,,,,,,,,,,,,61007d3e328431a4409a59cc,61036ca384ad83fd30723a66,2021-07-29_23h06.50.173,Simcolourproject_2stim_asymm_v5,2020.2.10,MacIntel,60,61025ae37ef11b136ea224fe,,,,,,,,,2612,89.59375,-22.71484375,1,0,0,response3disk,,5,9.8046875,0.046875,1,0,0,rectangle,92.984375,-28.64453125,1,0,0,9.1171875,-11.0546875,1,0,0,1,62,222,78,1,,response3disk_3,TRUE,5,5,"[246,129,173,195,173,269,300,308,185,206,29,34,194,93,146,213,92,151,34,223]",1.5664,rectangle
,,,,,,,,,,,,,FF,,,,,,,,3.8158,,,,,,,,,,,,,,,,,,,,,,61007d3e328431a4409a59cc,61036ca384ad83fd30723a66,2021-07-29_23h06.50.173,Simcolourproject_2stim_asymm_v5,2020.2.10,MacIntel,60,61025ae37ef11b136ea224fe,,,,,,,,,1513,-58.05859375,-39.03515625,1,0,0,response5disk,,2,2.16796875,-3.23046875,1,0,0,rectangle,2.16796875,-3.23046875,1,0,0,2.16796875,-3.23046875,1,0,0,1,63,223,158,1,,,,,,,,
,,,,,,,,,,,,,FF,,,,,,,,0.8003,,,,,,,,,,,,,,,,,,,,,,61007d3e328431a4409a59cc,61036ca384ad83fd30723a66,2021-07-29_23h06.50.173,Simcolourproject_2stim_asymm_v5,2020.2.10,MacIntel,60,61025ae37ef11b136ea224fe,,,,,,,,,3880,-30.79296875,-74.90625,1,0,0,response5disk,,3,-13.58984375,2.7578125,1,0,0,rectangle,-13.58984375,2.7578125,1,0,0,-13.58984375,2.7578125,1,0,0,1,64,224,19,1,,,,,,,,
,,,,,,,,,,,,,FF,,,,,,,,2.5834,,,,,,,,,,,,,,,,,,,,,,61007d3e328431a4409a59cc,61036ca384ad83fd30723a66,2021-07-29_23h06.50.173,Simcolourproject_2stim_asymm_v5,2020.2.10,MacIntel,60,61025ae37ef11b136ea224fe,,,,,,,,,537,28.125,-59.40625,1,0,0,response3disk,,4,20.01953125,-4.80859375,1,0,0,rectangle,20.01953125,-4.80859375,1,0,0,20.01953125,-4.80859375,1,0,0,1,65,225,45,1,,,,,,,,
,,,,,,,,,,,,,FF,,,,,,,,4.9685,,,,,,,,,,,,,,,,,,,,,,61007d3e328431a4409a59cc,61036ca384ad83fd30723a66,2021-07-29_23h06.50.173,Simcolourproject_2stim_asymm_v5,2020.2.10,MacIntel,60,61025ae37ef11b136ea224fe,,,,,,,,,3186,79.25390625,-49.7734375,1,0,0,response3disk,,5,20.55859375,-3.9140625,1,0,0,rectangle,20.55859375,-3.9140625,1,0,0,20.55859375,-3.9140625,1,0,0,1,66,226,36,1,,,,,,,,
,,,,,,,,,,,,,FF,,,,,,,,2.1844,,,,,,,,,,,,,,,,,,,,,,61007d3e328431a4409a59cc,61036ca384ad83fd30723a66,2021-07-29_23h06.50.173,Simcolourproject_2stim_asymm_v5,2020.2.10,MacIntel,60,61025ae37ef11b136ea224fe,,,,,,,,,4055,-27.13671875,-92.82421875,1,0,0,response5disk,,3,4.80859375,-6.66015625,1,0,0,rectangle,4.80859375,-6.66015625,1,0,0,4.80859375,-6.66015625,1,0,0,1,67,227,26,1,,,,,,,,
,,,,,,,,,,,,,FF,,,,,,,,0.9331,,,,,,,,,,,,,,,,,,,,,,61007d3e328431a4409a59cc,61036ca384ad83fd30723a66,2021-07-29_23h06.50.173,Simcolourproject_2stim_asymm_v5,2020.2.10,MacIntel,60,61025ae37ef11b136ea224fe,,,,,,,,,3922,-35.65234375,-61.08984375,1,0,0,response5disk,,3,-17.2890625,10.328125,1,0,0,rectangle,-17.2890625,10.328125,1,0,0,-17.2890625,10.328125,1,0,0,1,68,228,27,1,,,,,,,,
,,,,,,,,,,,,,FF,,,,,,,,1.3508,,,,,,,,,,,,,,,,,,,,,,61007d3e328431a4409a59cc,61036ca384ad83fd30723a66,2021-07-29_23h06.50.173,Simcolourproject_2stim_asymm_v5,2020.2.10,MacIntel,60,61025ae37ef11b136ea224fe,,,,,,,,,170,-83.08984375,-31.47265625,1,0,0,response5disk,,2,6.8828125,4.19140625,1,0,0,rectangle,6.8828125,4.19140625,1,0,0,6.8828125,4.19140625,1,0,0,1,69,229,97,1,,,,,,,,
,,,,,,,,,,,,,FF,,,,,,,,1.0324,,,,,,,,,,,,,,,,,,,,,,61007d3e328431a4409a59cc,61036ca384ad83fd30723a66,2021-07-29_23h06.50.173,Simcolourproject_2stim_asymm_v5,2020.2.10,MacIntel,60,61025ae37ef11b136ea224fe,,,,,,,,,988,26.49609375,-87.18359375,1,0,0,response3disk,,4,6.99609375,-2.27734375,1,0,0,rectangle,6.99609375,-2.27734375,1,0,0,6.99609375,-2.27734375,1,0,0,1,70,230,61,1,,,,,,,,
,,,,,,,,,,,,,FF,,,,,,,,1.6507,,,,,,,,,,,,,,,,,,,,,,61007d3e328431a4409a59cc,61036ca384ad83fd30723a66,2021-07-29_23h06.50.173,Simcolourproject_2stim_asymm_v5,2020.2.10,MacIntel,60,61025ae37ef11b136ea224fe,,,,,,,,,2645,61.0859375,-41.4296875,1,0,0,response3disk,,5,12.48046875,6.22265625,1,0,0,rectangle,12.48046875,6.22265625,1,0,0,12.48046875,6.22265625,1,0,0,1,71,231,51,1,,,,,,,,
,,,,,,,,,,,,,FF,,,,,,,,0.9503,,,,,,,,,,,,,,,,,,,,,,61007d3e328431a4409a59cc,61036ca384ad83fd30723a66,2021-07-29_23h06.50.173,Simcolourproject_2stim_asymm_v5,2020.2.10,MacIntel,60,61025ae37ef11b136ea224fe,,,,,,,,,2573,55.9765625,-77.91015625,1,0,0,response3disk,,4,15.2265625,-7.1640625,1,0,0,rectangle,15.2265625,-7.1640625,1,0,0,15.2265625,-7.1640625,1,0,0,1,72,232,5,1,,,,,,,,
,,,,,,,,,,,,,FF,,,,,,,,0.8671,,,,,,,,,,,,,,,,,,,,,,61007d3e328431a4409a59cc,61036ca384ad83fd30723a66,2021-07-29_23h06.50.173,Simcolourproject_2stim_asymm_v5,2020.2.10,MacIntel,60,61025ae37ef11b136ea224fe,,,,,,,,,2676,-50.33984375,-92.96484375,1,0,0,response5disk,,3,0.7109375,1.8359375,1,0,0,rectangle,0.7109375,1.8359375,1,0,0,0.7109375,1.8359375,1,0,0,1,73,233,95,1,,,,,,,,
,,,,,,,,,,,,,FF,,,,,,,,1.5004,,,,,,,,,,,,,,,,,,,,,,61007d3e328431a4409a59cc,61036ca384ad83fd30723a66,2021-07-29_23h06.50.173,Simcolourproject_2stim_asymm_v5,2020.2.10,MacIntel,60,61025ae37ef11b136ea224fe,,,,,,,,,3107,-59.56640625,-72.390625,1,0,0,response5disk,,3,-22.88671875,-3.61328125,1,0,0,rectangle,-22.88671875,-3.61328125,1,0,0,-22.88671875,-3.61328125,1,0,0,1,74,234,149,1,,,,,,,,
,,,,,,,,,,,,,FF,,,,,,,,0.784,,,,,,,,,,,,,,,,,,,,,,61007d3e328431a4409a59cc,61036ca384ad83fd30723a66,2021-07-29_23h06.50.173,Simcolourproject_2stim_asymm_v5,2020.2.10,MacIntel,60,61025ae37ef11b136ea224fe,,,,,,,,,2745,69.7578125,-37.4453125,1,0,0,response3disk,,5,1.4375,0.1796875,1,0,0,rectangle,1.4375,0.1796875,1,0,0,1.4375,0.1796875,1,0,0,1,75,235,99,1,,,,,,,,
,,,,,,,,,,,,,FF,,,,,,,,0.9991,,,,,,,,,,,,,,,,,,,,,,61007d3e328431a4409a59cc,61036ca384ad83fd30723a66,2021-07-29_23h06.50.173,Simcolourproject_2stim_asymm_v5,2020.2.10,MacIntel,60,61025ae37ef11b136ea224fe,,,,,,,,,1069,44.6328125,77.65234375,1,0,0,response1disk,,7,-7.75390625,5.95703125,1,0,0,rectangle,-7.75390625,5.95703125,1,0,0,-7.75390625,5.95703125,1,0,0,1,76,236,102,1,,,,,,,,
,,,,,,,,,,,,,FF,,,,,,,,1.3339,,,,,,,,,,,,,,,,,,,,,,61007d3e328431a4409a59cc,61036ca384ad83fd30723a66,2021-07-29_23h06.50.173,Simcolourproject_2stim_asymm_v5,2020.2.10,MacIntel,60,61025ae37ef11b136ea224fe,,,,,,,,,2028,-32.84765625,-80.1484375,1,0,0,response5disk,,3,1.578125,11.29296875,1,0,0,rectangle,1.578125,11.29296875,1,0,0,1.578125,11.29296875,1,0,0,1,77,237,150,1,,,,,,,,
,,,,,,,,,,,,,FF,,,,,,,,0.8343,,,,,,,,,,,,,,,,,,,,,,61007d3e328431a4409a59cc,61036ca384ad83fd30723a66,2021-07-29_23h06.50.173,Simcolourproject_2stim_asymm_v5,2020.2.10,MacIntel,60,61025ae37ef11b136ea224fe,,,,,,,,,3628,76.0859375,-30.82421875,1,0,0,response3disk,,5,16.28515625,-2.25390625,1,0,0,rectangle,16.28515625,-2.25390625,1,0,0,16.28515625,-2.25390625,1,0,0,1,78,238,43,1,,,,,,,,
,,,,,,,,,,,,,FF,,,,,,,,0.7665,,,,,,,,,,,,,,,,,,,,,,61007d3e328431a4409a59cc,61036ca384ad83fd30723a66,2021-07-29_23h06.50.173,Simcolourproject_2stim_asymm_v5,2020.2.10,MacIntel,60,61025ae37ef11b136ea224fe,,,,,,,,,3090,42.82421875,-78.9921875,1,0,0,response3disk,,4,23.7109375,-0.16796875,1,0,0,rectangle,23.7109375,-0.16796875,1,0,0,23.7109375,-0.16796875,1,0,0,1,79,239,96,1,,,,,,,,
,,,,,,,,,,,,,FF,,,,,,,,0.7825,,,,,,,,,,,,,,,,,,,,,,61007d3e328431a4409a59cc,61036ca384ad83fd30723a66,2021-07-29_23h06.50.173,Simcolourproject_2stim_asymm_v5,2020.2.10,MacIntel,60,61025ae37ef11b136ea224fe,,,,,,,,,1945,70.30859375,23.71484375,1,0,0,response1disk,,6,21.2109375,-2.8046875,1,0,0,rectangle,21.2109375,-2.8046875,1,0,0,21.2109375,-2.8046875,1,0,0,1,80,240,154,1,,,,,,,,
,,,,,,,,,,,,,FF,,,,,,,,0.7177,,,,,,,,,,,,,,,,,,,,,,61007d3e328431a4409a59cc,61036ca384ad83fd30723a66,2021-07-29_23h06.50.173,Simcolourproject_2stim_asymm_v5,2020.2.10,MacIntel,60,61025ae37ef11b136ea224fe,,,,,,,,,1032,83.2578125,30.42578125,1,0,0,response1disk,,6,13.4296875,-1.02734375,1,0,0,rectangle,13.4296875,-1.02734375,1,0,0,13.4296875,-1.02734375,1,0,0,1,81,241,8,1,,,,,,,,
,,,,,,,,,,,,,FF,,,,,,,,0.7512,,,,,,,,,,,,,,,,,,,,,,61007d3e328431a4409a59cc,61036ca384ad83fd30723a66,2021-07-29_23h06.50.173,Simcolourproject_2stim_asymm_v5,2020.2.10,MacIntel,60,61025ae37ef11b136ea224fe,,,,,,,,,403,-32.34375,-64.6015625,1,0,0,response5disk,,3,-7.13671875,-3.09765625,1,0,0,rectangle,-7.13671875,-3.09765625,1,0,0,-7.13671875,-3.09765625,1,0,0,1,82,242,30,1,,,,,,,,
,,,,,,,,,,,,,FF,,,,,,,,1.0505,,,,,,,,,,,,,,,,,,,,,,61007d3e328431a4409a59cc,61036ca384ad83fd30723a66,2021-07-29_23h06.50.173,Simcolourproject_2stim_asymm_v5,2020.2.10,MacIntel,60,61025ae37ef11b136ea224fe,,,,,,,,,4336,35.90234375,-80.2265625,1,0,0,response3disk,,4,10.3203125,-6.69140625,1,0,0,rectangle,10.3203125,-6.69140625,1,0,0,10.3203125,-6.69140625,1,0,0,1,83,243,44,1,,,,,,,,
,,,,,,,,,,,,,FF,,,,,,,,0.75,,,,,,,,,,,,,,,,,,,,,,61007d3e328431a4409a59cc,61036ca384ad83fd30723a66,2021-07-29_23h06.50.173,Simcolourproject_2stim_asymm_v5,2020.2.10,MacIntel,60,61025ae37ef11b136ea224fe,,,,,,,,,1336,76.06640625,32.484375,1,0,0,response1disk,,6,23.40234375,1.44921875,1,0,0,rectangle,23.40234375,1.44921875,1,0,0,23.40234375,1.44921875,1,0,0,1,84,244,16,1,,,,,,,,
,,,,,,,,,,,,,FF,,,,,,,,0.7834,,,,,,,,,,,,,,,,,,,,,,61007d3e328431a4409a59cc,61036ca384ad83fd30723a66,2021-07-29_23h06.50.173,Simcolourproject_2stim_asymm_v5,2020.2.10,MacIntel,60,61025ae37ef11b136ea224fe,,,,,,,,,3598,-62.40234375,-41.79296875,1,0,0,response5disk,,2,7.1484375,-8.75,1,0,0,rectangle,97.40625,-36.91015625,1,0,0,-17.53515625,6.96484375,1,0,0,1,85,245,39,1,,response3disk_3,TRUE,5,5,"[246,129,173,195,173,269,300,308,185,206,29,34,194,93,146,213,92,151,34,223]",3.8179,rectangle
,,,,,,,,,,,,,FF,,,,,,,,0.8003,,,,,,,,,,,,,,,,,,,,,,61007d3e328431a4409a59cc,61036ca384ad83fd30723a66,2021-07-29_23h06.50.173,Simcolourproject_2stim_asymm_v5,2020.2.10,MacIntel,60,61025ae37ef11b136ea224fe,,,,,,,,,100,-41.66015625,-79.51953125,1,0,0,response5disk,,3,-18.21875,8.07421875,1,0,0,rectangle,-18.21875,8.07421875,1,0,0,-18.21875,8.07421875,1,0,0,1,86,246,81,1,,,,,,,,
,,,,,,,,,,,,,FF,,,,,,,,0.868,,,,,,,,,,,,,,,,,,,,,,61007d3e328431a4409a59cc,61036ca384ad83fd30723a66,2021-07-29_23h06.50.173,Simcolourproject_2stim_asymm_v5,2020.2.10,MacIntel,60,61025ae37ef11b136ea224fe,,,,,,,,,3282,-51.53125,-97.75,1,0,0,response5disk,,3,-31.3671875,-0.69921875,1,0,0,rectangle,-31.3671875,-0.69921875,1,0,0,-31.3671875,-0.69921875,1,0,0,1,87,247,35,1,,,,,,,,
