key_resp.keys,key_resp.rt,key_resp_14.keys,key_resp_14.rt,key_resp_15.keys,key_resp_15.rt,key_resp_17.keys,key_resp_17.rt,key_resp_9.keys,key_resp_9.rt,key_resp_10.keys,key_resp_10.rt,practice_comparison,Ecc,mouse_5.x,mouse_5.y,mouse_5.leftButton,mouse_5.midButton,mouse_5.rightButton,mouse_5.clicked_name,pracsimilarity,response_time,mouse_10.x,mouse_10.y,mouse_10.leftButton,mouse_10.midButton,mouse_10.rightButton,mouse_10.clicked_name,mouse_7.x,mouse_7.y,mouse_7.leftButton,mouse_7.midButton,mouse_7.rightButton,mouse_6.x,mouse_6.y,mouse_6.leftButton,mouse_6.midButton,mouse_6.rightButton,duringprac.thisRepN,duringprac.thisTrialN,duringprac.thisN,duringprac.thisIndex,duringprac.ran,participant,session,date,expName,psychopyVersion,OS,frameRate,study_id,mouse_7.clicked_name,catchpracsimilarity,catch_response_time,catchnumberprac,catchtrialorderprac,mouse_6.clicked_name,key_resp_22.keys,key_resp_22.rt,realcomparison,mouse.x,mouse.y,mouse.leftButton,mouse.midButton,mouse.rightButton,mouse.clicked_name,Colour2,similarity,mouse_2.x,mouse_2.y,mouse_2.leftButton,mouse_2.midButton,mouse_2.rightButton,mouse_2.clicked_name,mouse_3.x,mouse_3.y,mouse_3.leftButton,mouse_3.midButton,mouse_3.rightButton,mouse_11.x,mouse_11.y,mouse_11.leftButton,mouse_11.midButton,mouse_11.rightButton,trials_2.thisRepN,trials_2.thisTrialN,trials_2.thisN,trials_2.thisIndex,trials_2.ran,Colour1,mouse_3.clicked_name,catchornah,catchsimilarity,catchnumber,catchtrialorder,catchRT,mouse_11.clicked_name
space,1.4816,space,8.6116,space,23.2201,space,2.1835,space,0.7854,space,4.5338,105,PF,38.18359375,75.1875,1,0,0,response1disk_5,7,6.268,4.0703125,-6.3203125,1,0,0,rectangle_8,4.0703125,-6.3203125,1,0,0,4.0703125,-6.3203125,1,0,0,0,0,0,4,1,6100914955639de64ec75a58,61036e50cd475cdc97453beb,2021-07-29_23h13.49.747,Simcolourproject_2stim_asymm_v5,2020.2.10,MacIntel,60,61025ae37ef11b136ea224fe,,,,,,,,,,,,,,,,,,,,,,,,,,,,,,,,,,,,,,,,,,,,,,
,,,,,,,,,,,,92,PF,40.41796875,83.7734375,1,0,0,response1disk_5,7,1.3179,-5.37109375,-3.5703125,1,0,0,rectangle_8,87.8046875,37.40625,1,0,0,-1.3984375,-1.5703125,1,0,0,0,1,1,1,1,6100914955639de64ec75a58,61036e50cd475cdc97453beb,2021-07-29_23h13.49.747,Simcolourproject_2stim_asymm_v5,2020.2.10,MacIntel,60,61025ae37ef11b136ea224fe,response1disk_7,6,2.6516,6,"[2,5]",rectangle_4,,,,,,,,,,,,,,,,,,,,,,,,,,,,,,,,,,,,,,,,
,,,,,,,,,,,,60,PF,40.69140625,71.46875,1,0,0,response1disk_5,7,1.418,-1.3515625,-5.15234375,1,0,0,rectangle_8,-1.3515625,-5.15234375,1,0,0,-1.3515625,-5.15234375,1,0,0,0,2,2,6,1,6100914955639de64ec75a58,61036e50cd475cdc97453beb,2021-07-29_23h13.49.747,Simcolourproject_2stim_asymm_v5,2020.2.10,MacIntel,60,61025ae37ef11b136ea224fe,,,,,,,,,,,,,,,,,,,,,,,,,,,,,,,,,,,,,,,,,,,,,,
,,,,,,,,,,,,38,FF,42.38671875,84.34375,1,0,0,response1disk_5,7,0.8671,2.73828125,-2.75,1,0,0,rectangle_8,2.73828125,-2.75,1,0,0,2.73828125,-2.75,1,0,0,0,3,3,5,1,6100914955639de64ec75a58,61036e50cd475cdc97453beb,2021-07-29_23h13.49.747,Simcolourproject_2stim_asymm_v5,2020.2.10,MacIntel,60,61025ae37ef11b136ea224fe,,,,,,,,,,,,,,,,,,,,,,,,,,,,,,,,,,,,,,,,,,,,,,
,,,,,,,,,,,,116,PF,38.44921875,75.0390625,1,0,0,response1disk_5,7,3.2505,0.98046875,7.57421875,1,0,0,rectangle_8,97.44140625,55.484375,1,0,0,-4.59765625,-0.484375,1,0,0,0,4,4,2,1,6100914955639de64ec75a58,61036e50cd475cdc97453beb,2021-07-29_23h13.49.747,Simcolourproject_2stim_asymm_v5,2020.2.10,MacIntel,60,61025ae37ef11b136ea224fe,response1disk_7,6,1.6329,6,"[2,5]",rectangle_4,,,,,,,,,,,,,,,,,,,,,,,,,,,,,,,,,,,,,,,,
,,,,,,,,,,,,40,FF,32.2578125,68.35546875,1,0,0,response1disk_5,7,0.7329,1.91015625,8.38671875,1,0,0,rectangle_8,1.91015625,8.38671875,1,0,0,1.91015625,8.38671875,1,0,0,0,5,5,3,1,6100914955639de64ec75a58,61036e50cd475cdc97453beb,2021-07-29_23h13.49.747,Simcolourproject_2stim_asymm_v5,2020.2.10,MacIntel,60,61025ae37ef11b136ea224fe,,,,,,,,,,,,,,,,,,,,,,,,,,,,,,,,,,,,,,,,,,,,,,
,,,,,,,,,,,,78,FF,44.87109375,73.55859375,1,0,0,response1disk_5,7,0.75,6.6015625,1.97265625,1,0,0,rectangle_8,6.6015625,1.97265625,1,0,0,6.6015625,1.97265625,1,0,0,0,6,6,0,1,6100914955639de64ec75a58,61036e50cd475cdc97453beb,2021-07-29_23h13.49.747,Simcolourproject_2stim_asymm_v5,2020.2.10,MacIntel,60,61025ae37ef11b136ea224fe,,,,,,,,,,,,,,,,,,,,,,,,,,,,,,,,,,,,,,,,,,,,,,
,,,,,,,,,,,,,FF,,,,,,,,1.1842,,,,,,,,,,,,,,,,,,,,,,6100914955639de64ec75a58,61036e50cd475cdc97453beb,2021-07-29_23h13.49.747,Simcolourproject_2stim_asymm_v5,2020.2.10,MacIntel,60,61025ae37ef11b136ea224fe,,,,,,,space,2.6091,2254,31.18359375,78.796875,1,0,0,response1disk,,7,4.2109375,-2.35546875,1,0,0,rectangle,4.2109375,-2.35546875,1,0,0,4.2109375,-2.35546875,1,0,0,0,0,0,86,1,,,,,,,,
,,,,,,,,,,,,,FF,,,,,,,,0.7179,,,,,,,,,,,,,,,,,,,,,,6100914955639de64ec75a58,61036e50cd475cdc97453beb,2021-07-29_23h13.49.747,Simcolourproject_2stim_asymm_v5,2020.2.10,MacIntel,60,61025ae37ef11b136ea224fe,,,,,,,,,2191,46.796875,74.984375,1,0,0,response1disk,,7,3.34375,-10.0703125,1,0,0,rectangle,3.34375,-10.0703125,1,0,0,3.34375,-10.0703125,1,0,0,0,1,1,20,1,,,,,,,,
,,,,,,,,,,,,,FF,,,,,,,,1.85,,,,,,,,,,,,,,,,,,,,,,6100914955639de64ec75a58,61036e50cd475cdc97453beb,2021-07-29_23h13.49.747,Simcolourproject_2stim_asymm_v5,2020.2.10,MacIntel,60,61025ae37ef11b136ea224fe,,,,,,,,,262,-74.34375,-34.765625,1,0,0,response5disk,,2,-16.921875,9.09375,1,0,0,rectangle,-16.921875,9.09375,1,0,0,-16.921875,9.09375,1,0,0,0,2,2,59,1,,,,,,,,
,,,,,,,,,,,,,FF,,,,,,,,0.9342,,,,,,,,,,,,,,,,,,,,,,6100914955639de64ec75a58,61036e50cd475cdc97453beb,2021-07-29_23h13.49.747,Simcolourproject_2stim_asymm_v5,2020.2.10,MacIntel,60,61025ae37ef11b136ea224fe,,,,,,,,,2458,44.59375,80.203125,1,0,0,response1disk,,7,21,-7.56640625,1,0,0,rectangle,-36.375,77.1796875,1,0,0,-17.13671875,1.7890625,1,0,0,0,3,3,137,1,,response7disk_3,TRUE,0,0,"[101,257,154,300,183,238,50,250,161,96,40,252,285,137,262,299,229,224,97,4]",3.4497,rectangle
,,,,,,,,,,,,,FF,,,,,,,,1.5659,,,,,,,,,,,,,,,,,,,,,,6100914955639de64ec75a58,61036e50cd475cdc97453beb,2021-07-29_23h13.49.747,Simcolourproject_2stim_asymm_v5,2020.2.10,MacIntel,60,61025ae37ef11b136ea224fe,,,,,,,,,1011,39.26953125,67.15234375,1,0,0,response1disk,,7,0.20703125,-3.33984375,1,0,0,rectangle,0.20703125,-3.33984375,1,0,0,0.20703125,-3.33984375,1,0,0,0,4,4,90,1,,,,,,,,
,,,,,,,,,,,,,FF,,,,,,,,1.8334,,,,,,,,,,,,,,,,,,,,,,6100914955639de64ec75a58,61036e50cd475cdc97453beb,2021-07-29_23h13.49.747,Simcolourproject_2stim_asymm_v5,2020.2.10,MacIntel,60,61025ae37ef11b136ea224fe,,,,,,,,,871,27.0390625,-55.796875,1,0,0,response3disk,,4,12.9609375,-7.05078125,1,0,0,rectangle,12.9609375,-7.05078125,1,0,0,12.9609375,-7.05078125,1,0,0,0,5,5,84,1,,,,,,,,
,,,,,,,,,,,,,FF,,,,,,,,1.4338,,,,,,,,,,,,,,,,,,,,,,6100914955639de64ec75a58,61036e50cd475cdc97453beb,2021-07-29_23h13.49.747,Simcolourproject_2stim_asymm_v5,2020.2.10,MacIntel,60,61025ae37ef11b136ea224fe,,,,,,,,,3817,17.11328125,-79.85546875,1,0,0,response3disk,,4,7.19921875,-5.72265625,1,0,0,rectangle,7.19921875,-5.72265625,1,0,0,7.19921875,-5.72265625,1,0,0,0,6,6,97,1,,,,,,,,
,,,,,,,,,,,,,FF,,,,,,,,1.467,,,,,,,,,,,,,,,,,,,,,,6100914955639de64ec75a58,61036e50cd475cdc97453beb,2021-07-29_23h13.49.747,Simcolourproject_2stim_asymm_v5,2020.2.10,MacIntel,60,61025ae37ef11b136ea224fe,,,,,,,,,662,79.58203125,49.06640625,1,0,0,response1disk,,6,25.609375,0.171875,1,0,0,rectangle,25.609375,0.171875,1,0,0,25.609375,0.171875,1,0,0,0,7,7,122,1,,,,,,,,
,,,,,,,,,,,,,FF,,,,,,,,0.8165,,,,,,,,,,,,,,,,,,,,,,6100914955639de64ec75a58,61036e50cd475cdc97453beb,2021-07-29_23h13.49.747,Simcolourproject_2stim_asymm_v5,2020.2.10,MacIntel,60,61025ae37ef11b136ea224fe,,,,,,,,,2589,46.35546875,78.40625,1,0,0,response1disk,,7,12.81640625,7.40234375,1,0,0,rectangle,12.81640625,7.40234375,1,0,0,12.81640625,7.40234375,1,0,0,0,8,8,8,1,,,,,,,,
,,,,,,,,,,,,,FF,,,,,,,,1.0507,,,,,,,,,,,,,,,,,,,,,,6100914955639de64ec75a58,61036e50cd475cdc97453beb,2021-07-29_23h13.49.747,Simcolourproject_2stim_asymm_v5,2020.2.10,MacIntel,60,61025ae37ef11b136ea224fe,,,,,,,,,2395,66.68359375,29.75,1,0,0,response1disk,,6,10.76171875,7.23828125,1,0,0,rectangle,10.76171875,7.23828125,1,0,0,10.76171875,7.23828125,1,0,0,0,9,9,88,1,,,,,,,,
,,,,,,,,,,,,,FF,,,,,,,,0.8,,,,,,,,,,,,,,,,,,,,,,6100914955639de64ec75a58,61036e50cd475cdc97453beb,2021-07-29_23h13.49.747,Simcolourproject_2stim_asymm_v5,2020.2.10,MacIntel,60,61025ae37ef11b136ea224fe,,,,,,,,,1863,54.10546875,26.75390625,1,0,0,response1disk,,6,10.57421875,0.90234375,1,0,0,rectangle,10.57421875,0.90234375,1,0,0,10.57421875,0.90234375,1,0,0,0,10,10,110,1,,,,,,,,
,,,,,,,,,,,,,FF,,,,,,,,1.2327,,,,,,,,,,,,,,,,,,,,,,6100914955639de64ec75a58,61036e50cd475cdc97453beb,2021-07-29_23h13.49.747,Simcolourproject_2stim_asymm_v5,2020.2.10,MacIntel,60,61025ae37ef11b136ea224fe,,,,,,,,,1005,38.34765625,62.796875,1,0,0,response1disk,,7,1.01171875,13.44140625,1,0,0,rectangle,1.01171875,13.44140625,1,0,0,1.01171875,13.44140625,1,0,0,0,11,11,9,1,,,,,,,,
,,,,,,,,,,,,,FF,,,,,,,,0.9831,,,,,,,,,,,,,,,,,,,,,,6100914955639de64ec75a58,61036e50cd475cdc97453beb,2021-07-29_23h13.49.747,Simcolourproject_2stim_asymm_v5,2020.2.10,MacIntel,60,61025ae37ef11b136ea224fe,,,,,,,,,3573,44.2265625,67.984375,1,0,0,response1disk,,7,6.109375,-3.2421875,1,0,0,rectangle,6.109375,-3.2421875,1,0,0,6.109375,-3.2421875,1,0,0,0,12,12,6,1,,,,,,,,
,,,,,,,,,,,,,FF,,,,,,,,5.6169,,,,,,,,,,,,,,,,,,,,,,6100914955639de64ec75a58,61036e50cd475cdc97453beb,2021-07-29_23h13.49.747,Simcolourproject_2stim_asymm_v5,2020.2.10,MacIntel,60,61025ae37ef11b136ea224fe,,,,,,,,,392,35.26953125,74.3125,1,0,0,response1disk,,7,0.9453125,1.1875,1,0,0,rectangle,0.9453125,1.1875,1,0,0,0.9453125,1.1875,1,0,0,0,13,13,155,1,,,,,,,,
,,,,,,,,,,,,,FF,,,,,,,,4.718,,,,,,,,,,,,,,,,,,,,,,6100914955639de64ec75a58,61036e50cd475cdc97453beb,2021-07-29_23h13.49.747,Simcolourproject_2stim_asymm_v5,2020.2.10,MacIntel,60,61025ae37ef11b136ea224fe,,,,,,,,,3518,-35.24609375,72.875,1,0,0,response7disk,,0,-7.79296875,-5.8515625,1,0,0,rectangle,-7.79296875,-5.8515625,1,0,0,-7.79296875,-5.8515625,1,0,0,0,14,14,45,1,,,,,,,,
,,,,,,,,,,,,,FF,,,,,,,,5.3156,,,,,,,,,,,,,,,,,,,,,,6100914955639de64ec75a58,61036e50cd475cdc97453beb,2021-07-29_23h13.49.747,Simcolourproject_2stim_asymm_v5,2020.2.10,MacIntel,60,61025ae37ef11b136ea224fe,,,,,,,,,2273,37.96484375,81.2734375,1,0,0,response1disk,,7,-0.2890625,-0.26171875,1,0,0,rectangle,-0.2890625,-0.26171875,1,0,0,-0.2890625,-0.26171875,1,0,0,0,15,15,147,1,,,,,,,,
,,,,,,,,,,,,,FF,,,,,,,,0.8162,,,,,,,,,,,,,,,,,,,,,,6100914955639de64ec75a58,61036e50cd475cdc97453beb,2021-07-29_23h13.49.747,Simcolourproject_2stim_asymm_v5,2020.2.10,MacIntel,60,61025ae37ef11b136ea224fe,,,,,,,,,2862,52.2734375,107.015625,1,0,0,response1disk,,7,-19.5546875,-11.56640625,1,0,0,rectangle,-19.5546875,-11.56640625,1,0,0,-19.5546875,-11.56640625,1,0,0,0,16,16,24,1,,,,,,,,
,,,,,,,,,,,,,FF,,,,,,,,1.2005,,,,,,,,,,,,,,,,,,,,,,6100914955639de64ec75a58,61036e50cd475cdc97453beb,2021-07-29_23h13.49.747,Simcolourproject_2stim_asymm_v5,2020.2.10,MacIntel,60,61025ae37ef11b136ea224fe,,,,,,,,,1835,-27.015625,65.6484375,1,0,0,response7disk,,0,-26.01953125,-4.01953125,1,0,0,rectangle,-26.01953125,-4.01953125,1,0,0,-26.01953125,-4.01953125,1,0,0,0,17,17,62,1,,,,,,,,
,,,,,,,,,,,,,FF,,,,,,,,0.6347,,,,,,,,,,,,,,,,,,,,,,6100914955639de64ec75a58,61036e50cd475cdc97453beb,2021-07-29_23h13.49.747,Simcolourproject_2stim_asymm_v5,2020.2.10,MacIntel,60,61025ae37ef11b136ea224fe,,,,,,,,,3795,42.76953125,91.5078125,1,0,0,response1disk,,7,6.5,-6.171875,1,0,0,rectangle,6.5,-6.171875,1,0,0,6.5,-6.171875,1,0,0,0,18,18,11,1,,,,,,,,
,,,,,,,,,,,,,FF,,,,,,,,0.9005,,,,,,,,,,,,,,,,,,,,,,6100914955639de64ec75a58,61036e50cd475cdc97453beb,2021-07-29_23h13.49.747,Simcolourproject_2stim_asymm_v5,2020.2.10,MacIntel,60,61025ae37ef11b136ea224fe,,,,,,,,,1407,41.4921875,78.203125,1,0,0,response1disk,,7,-7.4609375,-7.8984375,1,0,0,rectangle,-7.4609375,-7.8984375,1,0,0,-7.4609375,-7.8984375,1,0,0,0,19,19,80,1,,,,,,,,
,,,,,,,,,,,,,FF,,,,,,,,0.7165,,,,,,,,,,,,,,,,,,,,,,6100914955639de64ec75a58,61036e50cd475cdc97453beb,2021-07-29_23h13.49.747,Simcolourproject_2stim_asymm_v5,2020.2.10,MacIntel,60,61025ae37ef11b136ea224fe,,,,,,,,,1909,41.4453125,84.91015625,1,0,0,response1disk,,7,-5.66015625,-7.39453125,1,0,0,rectangle,-5.66015625,-7.39453125,1,0,0,-5.66015625,-7.39453125,1,0,0,0,20,20,157,1,,,,,,,,
,,,,,,,,,,,,,FF,,,,,,,,0.667,,,,,,,,,,,,,,,,,,,,,,6100914955639de64ec75a58,61036e50cd475cdc97453beb,2021-07-29_23h13.49.747,Simcolourproject_2stim_asymm_v5,2020.2.10,MacIntel,60,61025ae37ef11b136ea224fe,,,,,,,,,677,42.16796875,88.234375,1,0,0,response1disk,,7,-4.046875,-2.80078125,1,0,0,rectangle,-4.046875,-2.80078125,1,0,0,-4.046875,-2.80078125,1,0,0,0,21,21,152,1,,,,,,,,
,,,,,,,,,,,,,FF,,,,,,,,1.3345,,,,,,,,,,,,,,,,,,,,,,6100914955639de64ec75a58,61036e50cd475cdc97453beb,2021-07-29_23h13.49.747,Simcolourproject_2stim_asymm_v5,2020.2.10,MacIntel,60,61025ae37ef11b136ea224fe,,,,,,,,,1221,-39.828125,77.9296875,1,0,0,response7disk,,0,-25.35546875,0.58984375,1,0,0,rectangle,-25.35546875,0.58984375,1,0,0,-25.35546875,0.58984375,1,0,0,0,22,22,133,1,,,,,,,,
,,,,,,,,,,,,,FF,,,,,,,,1.6492,,,,,,,,,,,,,,,,,,,,,,6100914955639de64ec75a58,61036e50cd475cdc97453beb,2021-07-29_23h13.49.747,Simcolourproject_2stim_asymm_v5,2020.2.10,MacIntel,60,61025ae37ef11b136ea224fe,,,,,,,,,1621,46.53125,87.80859375,1,0,0,response1disk,,7,6.91015625,6.3203125,1,0,0,rectangle,6.91015625,6.3203125,1,0,0,6.91015625,6.3203125,1,0,0,0,23,23,29,1,,,,,,,,
,,,,,,,,,,,,,FF,,,,,,,,1.2003,,,,,,,,,,,,,,,,,,,,,,6100914955639de64ec75a58,61036e50cd475cdc97453beb,2021-07-29_23h13.49.747,Simcolourproject_2stim_asymm_v5,2020.2.10,MacIntel,60,61025ae37ef11b136ea224fe,,,,,,,,,35,62.625,79.39453125,1,0,0,response1disk,,7,-0.015625,-0.921875,1,0,0,rectangle,-0.015625,-0.921875,1,0,0,-0.015625,-0.921875,1,0,0,0,24,24,106,1,,,,,,,,
,,,,,,,,,,,,,FF,,,,,,,,0.8672,,,,,,,,,,,,,,,,,,,,,,6100914955639de64ec75a58,61036e50cd475cdc97453beb,2021-07-29_23h13.49.747,Simcolourproject_2stim_asymm_v5,2020.2.10,MacIntel,60,61025ae37ef11b136ea224fe,,,,,,,,,4225,-40.3671875,72.2109375,1,0,0,response7disk,,0,-19.953125,2.80859375,1,0,0,rectangle,-19.953125,2.80859375,1,0,0,-19.953125,2.80859375,1,0,0,0,25,25,21,1,,,,,,,,
,,,,,,,,,,,,,FF,,,,,,,,2.184,,,,,,,,,,,,,,,,,,,,,,6100914955639de64ec75a58,61036e50cd475cdc97453beb,2021-07-29_23h13.49.747,Simcolourproject_2stim_asymm_v5,2020.2.10,MacIntel,60,61025ae37ef11b136ea224fe,,,,,,,,,142,28.91015625,91.1015625,1,0,0,response1disk,,7,-1.6171875,11.1796875,1,0,0,rectangle,-1.6171875,11.1796875,1,0,0,-1.6171875,11.1796875,1,0,0,0,26,26,123,1,,,,,,,,
,,,,,,,,,,,,,FF,,,,,,,,1.4997,,,,,,,,,,,,,,,,,,,,,,6100914955639de64ec75a58,61036e50cd475cdc97453beb,2021-07-29_23h13.49.747,Simcolourproject_2stim_asymm_v5,2020.2.10,MacIntel,60,61025ae37ef11b136ea224fe,,,,,,,,,2717,24.16015625,82.98828125,1,0,0,response1disk,,7,-3.82421875,10.5,1,0,0,rectangle,-3.82421875,10.5,1,0,0,-3.82421875,10.5,1,0,0,0,27,27,91,1,,,,,,,,
,,,,,,,,,,,,,FF,,,,,,,,1.3164,,,,,,,,,,,,,,,,,,,,,,6100914955639de64ec75a58,61036e50cd475cdc97453beb,2021-07-29_23h13.49.747,Simcolourproject_2stim_asymm_v5,2020.2.10,MacIntel,60,61025ae37ef11b136ea224fe,,,,,,,,,4359,-32.8125,76.00390625,1,0,0,response7disk,,0,-27.01171875,2.94921875,1,0,0,rectangle,-27.01171875,2.94921875,1,0,0,-27.01171875,2.94921875,1,0,0,0,28,28,0,1,,,,,,,,
,,,,,,,,,,,,,FF,,,,,,,,1.6674,,,,,,,,,,,,,,,,,,,,,,6100914955639de64ec75a58,61036e50cd475cdc97453beb,2021-07-29_23h13.49.747,Simcolourproject_2stim_asymm_v5,2020.2.10,MacIntel,60,61025ae37ef11b136ea224fe,,,,,,,,,435,-30.05078125,67.99609375,1,0,0,response7disk,,0,-21.09765625,3.2109375,1,0,0,rectangle,-21.09765625,3.2109375,1,0,0,-21.09765625,3.2109375,1,0,0,0,29,29,156,1,,,,,,,,
,,,,,,,,,,,,,FF,,,,,,,,2.5674,,,,,,,,,,,,,,,,,,,,,,6100914955639de64ec75a58,61036e50cd475cdc97453beb,2021-07-29_23h13.49.747,Simcolourproject_2stim_asymm_v5,2020.2.10,MacIntel,60,61025ae37ef11b136ea224fe,,,,,,,,,4215,58.3046875,97.14453125,1,0,0,response1disk,,7,-1.34375,-3.2578125,1,0,0,rectangle,-1.34375,-3.2578125,1,0,0,-1.34375,-3.2578125,1,0,0,0,30,30,129,1,,,,,,,,
,,,,,,,,,,,,,FF,,,,,,,,1.25,,,,,,,,,,,,,,,,,,,,,,6100914955639de64ec75a58,61036e50cd475cdc97453beb,2021-07-29_23h13.49.747,Simcolourproject_2stim_asymm_v5,2020.2.10,MacIntel,60,61025ae37ef11b136ea224fe,,,,,,,,,4213,30.20703125,85.87109375,1,0,0,response1disk,,7,-7.83203125,6.578125,1,0,0,rectangle,-7.83203125,6.578125,1,0,0,-7.83203125,6.578125,1,0,0,0,31,31,28,1,,,,,,,,
,,,,,,,,,,,,,FF,,,,,,,,1.9676,,,,,,,,,,,,,,,,,,,,,,6100914955639de64ec75a58,61036e50cd475cdc97453beb,2021-07-29_23h13.49.747,Simcolourproject_2stim_asymm_v5,2020.2.10,MacIntel,60,61025ae37ef11b136ea224fe,,,,,,,,,593,44.12109375,90.390625,1,0,0,response1disk,,7,-5.2421875,4.3359375,1,0,0,rectangle,-5.2421875,4.3359375,1,0,0,-5.2421875,4.3359375,1,0,0,0,32,32,36,1,,,,,,,,
,,,,,,,,,,,,,FF,,,,,,,,1.1823,,,,,,,,,,,,,,,,,,,,,,6100914955639de64ec75a58,61036e50cd475cdc97453beb,2021-07-29_23h13.49.747,Simcolourproject_2stim_asymm_v5,2020.2.10,MacIntel,60,61025ae37ef11b136ea224fe,,,,,,,,,2405,35.875,84.30859375,1,0,0,response1disk,,7,0.953125,0.109375,1,0,0,rectangle,0.953125,0.109375,1,0,0,0.953125,0.109375,1,0,0,0,33,33,58,1,,,,,,,,
,,,,,,,,,,,,,FF,,,,,,,,1.85,,,,,,,,,,,,,,,,,,,,,,6100914955639de64ec75a58,61036e50cd475cdc97453beb,2021-07-29_23h13.49.747,Simcolourproject_2stim_asymm_v5,2020.2.10,MacIntel,60,61025ae37ef11b136ea224fe,,,,,,,,,2277,36.48828125,75.3828125,1,0,0,response1disk,,7,-0.22265625,0.078125,1,0,0,rectangle,-0.22265625,0.078125,1,0,0,-0.22265625,0.078125,1,0,0,0,34,34,98,1,,,,,,,,
,,,,,,,,,,,,,FF,,,,,,,,1.9495,,,,,,,,,,,,,,,,,,,,,,6100914955639de64ec75a58,61036e50cd475cdc97453beb,2021-07-29_23h13.49.747,Simcolourproject_2stim_asymm_v5,2020.2.10,MacIntel,60,61025ae37ef11b136ea224fe,,,,,,,,,2400,42.71484375,97.22265625,1,0,0,response1disk,,7,-12.1640625,3.63671875,1,0,0,rectangle,-12.1640625,3.63671875,1,0,0,-12.1640625,3.63671875,1,0,0,0,35,35,70,1,,,,,,,,
,,,,,,,,,,,,,FF,,,,,,,,1.0178,,,,,,,,,,,,,,,,,,,,,,6100914955639de64ec75a58,61036e50cd475cdc97453beb,2021-07-29_23h13.49.747,Simcolourproject_2stim_asymm_v5,2020.2.10,MacIntel,60,61025ae37ef11b136ea224fe,,,,,,,,,2052,32.98046875,80.578125,1,0,0,response1disk,,7,-3.71484375,-17.18359375,1,0,0,rectangle,-3.71484375,-17.18359375,1,0,0,-3.71484375,-17.18359375,1,0,0,0,36,36,48,1,,,,,,,,
,,,,,,,,,,,,,FF,,,,,,,,0.8668,,,,,,,,,,,,,,,,,,,,,,6100914955639de64ec75a58,61036e50cd475cdc97453beb,2021-07-29_23h13.49.747,Simcolourproject_2stim_asymm_v5,2020.2.10,MacIntel,60,61025ae37ef11b136ea224fe,,,,,,,,,2582,37.3125,61.84375,1,0,0,response1disk,,7,13.5234375,-5.43359375,1,0,0,rectangle,13.5234375,-5.43359375,1,0,0,13.5234375,-5.43359375,1,0,0,0,37,37,148,1,,,,,,,,
,,,,,,,,,,,,,FF,,,,,,,,0.6833,,,,,,,,,,,,,,,,,,,,,,6100914955639de64ec75a58,61036e50cd475cdc97453beb,2021-07-29_23h13.49.747,Simcolourproject_2stim_asymm_v5,2020.2.10,MacIntel,60,61025ae37ef11b136ea224fe,,,,,,,,,3860,40.98046875,84.6171875,1,0,0,response1disk,,7,14.80078125,14.7421875,1,0,0,rectangle,14.80078125,14.7421875,1,0,0,14.80078125,14.7421875,1,0,0,0,38,38,128,1,,,,,,,,
,,,,,,,,,,,,,FF,,,,,,,,0.4999,,,,,,,,,,,,,,,,,,,,,,6100914955639de64ec75a58,61036e50cd475cdc97453beb,2021-07-29_23h13.49.747,Simcolourproject_2stim_asymm_v5,2020.2.10,MacIntel,60,61025ae37ef11b136ea224fe,,,,,,,,,1013,50.91796875,93.71484375,1,0,0,response1disk,,7,7.921875,7.9921875,1,0,0,rectangle,-30.203125,67.515625,1,0,0,12.05859375,-5.1875,1,0,0,0,39,39,101,1,,response7disk_3,TRUE,0,0,"[101,257,154,300,183,238,50,250,161,96,40,252,285,137,262,299,229,224,97,4]",2.0656,rectangle
,,,,,,,,,,,,,FF,,,,,,,,1.483,,,,,,,,,,,,,,,,,,,,,,6100914955639de64ec75a58,61036e50cd475cdc97453beb,2021-07-29_23h13.49.747,Simcolourproject_2stim_asymm_v5,2020.2.10,MacIntel,60,61025ae37ef11b136ea224fe,,,,,,,,,1382,35.7421875,79.7109375,1,0,0,response1disk,,7,-5.4765625,-3.09375,1,0,0,rectangle,-5.4765625,-3.09375,1,0,0,-5.4765625,-3.09375,1,0,0,0,40,40,100,1,,,,,,,,
,,,,,,,,,,,,,FF,,,,,,,,0.8845,,,,,,,,,,,,,,,,,,,,,,6100914955639de64ec75a58,61036e50cd475cdc97453beb,2021-07-29_23h13.49.747,Simcolourproject_2stim_asymm_v5,2020.2.10,MacIntel,60,61025ae37ef11b136ea224fe,,,,,,,,,1586,25.2265625,82.546875,1,0,0,response1disk,,7,-4.26953125,2.640625,1,0,0,rectangle,-4.26953125,2.640625,1,0,0,-4.26953125,2.640625,1,0,0,0,41,41,116,1,,,,,,,,
,,,,,,,,,,,,,FF,,,,,,,,0.5826,,,,,,,,,,,,,,,,,,,,,,6100914955639de64ec75a58,61036e50cd475cdc97453beb,2021-07-29_23h13.49.747,Simcolourproject_2stim_asymm_v5,2020.2.10,MacIntel,60,61025ae37ef11b136ea224fe,,,,,,,,,3722,44.59375,81.6796875,1,0,0,response1disk,,7,5.0390625,8.9609375,1,0,0,rectangle,5.0390625,8.9609375,1,0,0,5.0390625,8.9609375,1,0,0,0,42,42,103,1,,,,,,,,
,,,,,,,,,,,,,FF,,,,,,,,0.5827,,,,,,,,,,,,,,,,,,,,,,6100914955639de64ec75a58,61036e50cd475cdc97453beb,2021-07-29_23h13.49.747,Simcolourproject_2stim_asymm_v5,2020.2.10,MacIntel,60,61025ae37ef11b136ea224fe,,,,,,,,,264,-20.17578125,78.76171875,1,0,0,response7disk,,0,-18.35546875,-4.03515625,1,0,0,rectangle,-18.35546875,-4.03515625,1,0,0,-18.35546875,-4.03515625,1,0,0,0,43,43,72,1,,,,,,,,
,,,,,,,,,,,,,FF,,,,,,,,0.8166,,,,,,,,,,,,,,,,,,,,,,6100914955639de64ec75a58,61036e50cd475cdc97453beb,2021-07-29_23h13.49.747,Simcolourproject_2stim_asymm_v5,2020.2.10,MacIntel,60,61025ae37ef11b136ea224fe,,,,,,,,,3993,-41.265625,79.68359375,1,0,0,response7disk,,0,-34.0625,-8.109375,1,0,0,rectangle,-34.0625,-8.109375,1,0,0,-34.0625,-8.109375,1,0,0,0,44,44,87,1,,,,,,,,
,,,,,,,,,,,,,FF,,,,,,,,0.9504,,,,,,,,,,,,,,,,,,,,,,6100914955639de64ec75a58,61036e50cd475cdc97453beb,2021-07-29_23h13.49.747,Simcolourproject_2stim_asymm_v5,2020.2.10,MacIntel,60,61025ae37ef11b136ea224fe,,,,,,,,,2710,60.953125,91.19140625,1,0,0,response1disk,,7,15.12109375,4.5625,1,0,0,rectangle,15.12109375,4.5625,1,0,0,15.12109375,4.5625,1,0,0,0,45,45,61,1,,,,,,,,
,,,,,,,,,,,,,FF,,,,,,,,3.0668,,,,,,,,,,,,,,,,,,,,,,6100914955639de64ec75a58,61036e50cd475cdc97453beb,2021-07-29_23h13.49.747,Simcolourproject_2stim_asymm_v5,2020.2.10,MacIntel,60,61025ae37ef11b136ea224fe,,,,,,,,,702,35.10546875,104.296875,1,0,0,response1disk,,7,12.98828125,5.40625,1,0,0,rectangle,12.98828125,5.40625,1,0,0,12.98828125,5.40625,1,0,0,0,46,46,68,1,,,,,,,,
,,,,,,,,,,,,,FF,,,,,,,,1.1506,,,,,,,,,,,,,,,,,,,,,,6100914955639de64ec75a58,61036e50cd475cdc97453beb,2021-07-29_23h13.49.747,Simcolourproject_2stim_asymm_v5,2020.2.10,MacIntel,60,61025ae37ef11b136ea224fe,,,,,,,,,3003,36.02734375,74.86328125,1,0,0,response1disk,,7,6.58203125,0.65625,1,0,0,rectangle,6.58203125,0.65625,1,0,0,6.58203125,0.65625,1,0,0,0,47,47,50,1,,,,,,,,
,,,,,,,,,,,,,FF,,,,,,,,0.8504,,,,,,,,,,,,,,,,,,,,,,6100914955639de64ec75a58,61036e50cd475cdc97453beb,2021-07-29_23h13.49.747,Simcolourproject_2stim_asymm_v5,2020.2.10,MacIntel,60,61025ae37ef11b136ea224fe,,,,,,,,,2618,36.21875,66.94921875,1,0,0,response1disk,,7,16.3828125,-15.421875,1,0,0,rectangle,16.3828125,-15.421875,1,0,0,16.3828125,-15.421875,1,0,0,0,48,48,60,1,,,,,,,,
,,,,,,,,,,,,,FF,,,,,,,,0.9324,,,,,,,,,,,,,,,,,,,,,,6100914955639de64ec75a58,61036e50cd475cdc97453beb,2021-07-29_23h13.49.747,Simcolourproject_2stim_asymm_v5,2020.2.10,MacIntel,60,61025ae37ef11b136ea224fe,,,,,,,,,1053,-42.17578125,86.87109375,1,0,0,response7disk,,0,-24.0859375,10.39453125,1,0,0,rectangle,-91.5859375,-48.6796875,1,0,0,2.77734375,3.98046875,1,0,0,0,49,49,44,1,,response5disk_3,TRUE,2,2,"[101,257,154,300,183,238,50,250,161,96,40,252,285,137,262,299,229,224,97,4]",2.333,rectangle
,,,,,,,,,,,,,FF,,,,,,,,0.7659,,,,,,,,,,,,,,,,,,,,,,6100914955639de64ec75a58,61036e50cd475cdc97453beb,2021-07-29_23h13.49.747,Simcolourproject_2stim_asymm_v5,2020.2.10,MacIntel,60,61025ae37ef11b136ea224fe,,,,,,,,,1327,33.05859375,90.2578125,1,0,0,response1disk,,7,-3.4296875,-2.046875,1,0,0,rectangle,-3.4296875,-2.046875,1,0,0,-3.4296875,-2.046875,1,0,0,0,50,50,108,1,,,,,,,,
,,,,,,,,,,,,,FF,,,,,,,,0.8173,,,,,,,,,,,,,,,,,,,,,,6100914955639de64ec75a58,61036e50cd475cdc97453beb,2021-07-29_23h13.49.747,Simcolourproject_2stim_asymm_v5,2020.2.10,MacIntel,60,61025ae37ef11b136ea224fe,,,,,,,,,2788,32.58203125,92.05078125,1,0,0,response1disk,,7,11.3359375,17.17578125,1,0,0,rectangle,11.3359375,17.17578125,1,0,0,11.3359375,17.17578125,1,0,0,0,51,51,40,1,,,,,,,,
,,,,,,,,,,,,,FF,,,,,,,,0.5502,,,,,,,,,,,,,,,,,,,,,,6100914955639de64ec75a58,61036e50cd475cdc97453beb,2021-07-29_23h13.49.747,Simcolourproject_2stim_asymm_v5,2020.2.10,MacIntel,60,61025ae37ef11b136ea224fe,,,,,,,,,2588,39.40625,100.0234375,1,0,0,response1disk,,7,4.64453125,5.1796875,1,0,0,rectangle,4.64453125,5.1796875,1,0,0,4.64453125,5.1796875,1,0,0,0,52,52,131,1,,,,,,,,
,,,,,,,,,,,,,FF,,,,,,,,0.6161,,,,,,,,,,,,,,,,,,,,,,6100914955639de64ec75a58,61036e50cd475cdc97453beb,2021-07-29_23h13.49.747,Simcolourproject_2stim_asymm_v5,2020.2.10,MacIntel,60,61025ae37ef11b136ea224fe,,,,,,,,,4232,39.06640625,87.12890625,1,0,0,response1disk,,7,8.6171875,-13.20703125,1,0,0,rectangle,8.6171875,-13.20703125,1,0,0,8.6171875,-13.20703125,1,0,0,0,53,53,141,1,,,,,,,,
,,,,,,,,,,,,,FF,,,,,,,,0.5172,,,,,,,,,,,,,,,,,,,,,,6100914955639de64ec75a58,61036e50cd475cdc97453beb,2021-07-29_23h13.49.747,Simcolourproject_2stim_asymm_v5,2020.2.10,MacIntel,60,61025ae37ef11b136ea224fe,,,,,,,,,655,46.328125,84.22265625,1,0,0,response1disk,,7,15.99609375,-0.0625,1,0,0,rectangle,15.99609375,-0.0625,1,0,0,15.99609375,-0.0625,1,0,0,0,54,54,2,1,,,,,,,,
,,,,,,,,,,,,,FF,,,,,,,,0.6157,,,,,,,,,,,,,,,,,,,,,,6100914955639de64ec75a58,61036e50cd475cdc97453beb,2021-07-29_23h13.49.747,Simcolourproject_2stim_asymm_v5,2020.2.10,MacIntel,60,61025ae37ef11b136ea224fe,,,,,,,,,1427,42.59375,88.51171875,1,0,0,response1disk,,7,9.421875,-1.625,1,0,0,rectangle,9.421875,-1.625,1,0,0,9.421875,-1.625,1,0,0,0,55,55,96,1,,,,,,,,
,,,,,,,,,,,,,FF,,,,,,,,0.7158,,,,,,,,,,,,,,,,,,,,,,6100914955639de64ec75a58,61036e50cd475cdc97453beb,2021-07-29_23h13.49.747,Simcolourproject_2stim_asymm_v5,2020.2.10,MacIntel,60,61025ae37ef11b136ea224fe,,,,,,,,,880,33.44921875,108.828125,1,0,0,response1disk,,7,2.96875,-5.64453125,1,0,0,rectangle,2.96875,-5.64453125,1,0,0,2.96875,-5.64453125,1,0,0,0,56,56,26,1,,,,,,,,
,,,,,,,,,,,,,FF,,,,,,,,0.6507,,,,,,,,,,,,,,,,,,,,,,6100914955639de64ec75a58,61036e50cd475cdc97453beb,2021-07-29_23h13.49.747,Simcolourproject_2stim_asymm_v5,2020.2.10,MacIntel,60,61025ae37ef11b136ea224fe,,,,,,,,,2785,-35.73828125,71.96875,1,0,0,response7disk,,0,-15.00390625,-1.13671875,1,0,0,rectangle,-15.00390625,-1.13671875,1,0,0,-15.00390625,-1.13671875,1,0,0,0,57,57,3,1,,,,,,,,
,,,,,,,,,,,,,FF,,,,,,,,0.6997,,,,,,,,,,,,,,,,,,,,,,6100914955639de64ec75a58,61036e50cd475cdc97453beb,2021-07-29_23h13.49.747,Simcolourproject_2stim_asymm_v5,2020.2.10,MacIntel,60,61025ae37ef11b136ea224fe,,,,,,,,,2809,47.25390625,82.3046875,1,0,0,response1disk,,7,15.0390625,-1.19921875,1,0,0,rectangle,15.0390625,-1.19921875,1,0,0,15.0390625,-1.19921875,1,0,0,0,58,58,127,1,,,,,,,,
,,,,,,,,,,,,,FF,,,,,,,,0.5672,,,,,,,,,,,,,,,,,,,,,,6100914955639de64ec75a58,61036e50cd475cdc97453beb,2021-07-29_23h13.49.747,Simcolourproject_2stim_asymm_v5,2020.2.10,MacIntel,60,61025ae37ef11b136ea224fe,,,,,,,,,757,49.77734375,97.8125,1,0,0,response1disk,,7,24.35546875,-3.2421875,1,0,0,rectangle,24.35546875,-3.2421875,1,0,0,24.35546875,-3.2421875,1,0,0,0,59,59,126,1,,,,,,,,
,,,,,,,,,,,,,FF,,,,,,,,1.0161,,,,,,,,,,,,,,,,,,,,,,6100914955639de64ec75a58,61036e50cd475cdc97453beb,2021-07-29_23h13.49.747,Simcolourproject_2stim_asymm_v5,2020.2.10,MacIntel,60,61025ae37ef11b136ea224fe,,,,,,,,,1392,42.3359375,89.6875,1,0,0,response1disk,,7,-0.01953125,-10.65234375,1,0,0,rectangle,-0.01953125,-10.65234375,1,0,0,-0.01953125,-10.65234375,1,0,0,0,60,60,16,1,,,,,,,,
,,,,,,,,,,,,,FF,,,,,,,,0.816,,,,,,,,,,,,,,,,,,,,,,6100914955639de64ec75a58,61036e50cd475cdc97453beb,2021-07-29_23h13.49.747,Simcolourproject_2stim_asymm_v5,2020.2.10,MacIntel,60,61025ae37ef11b136ea224fe,,,,,,,,,1681,-32.8359375,89.66015625,1,0,0,response7disk,,0,-20.9609375,7.06640625,1,0,0,rectangle,-20.9609375,7.06640625,1,0,0,-20.9609375,7.06640625,1,0,0,0,61,61,115,1,,,,,,,,
,,,,,,,,,,,,,FF,,,,,,,,0.4989,,,,,,,,,,,,,,,,,,,,,,6100914955639de64ec75a58,61036e50cd475cdc97453beb,2021-07-29_23h13.49.747,Simcolourproject_2stim_asymm_v5,2020.2.10,MacIntel,60,61025ae37ef11b136ea224fe,,,,,,,,,3444,45.26953125,100.2070313,1,0,0,response1disk,,7,-9.43359375,-11.57421875,1,0,0,rectangle,-9.43359375,-11.57421875,1,0,0,-9.43359375,-11.57421875,1,0,0,0,62,62,93,1,,,,,,,,
,,,,,,,,,,,,,FF,,,,,,,,0.7008,,,,,,,,,,,,,,,,,,,,,,6100914955639de64ec75a58,61036e50cd475cdc97453beb,2021-07-29_23h13.49.747,Simcolourproject_2stim_asymm_v5,2020.2.10,MacIntel,60,61025ae37ef11b136ea224fe,,,,,,,,,712,25.2421875,93.89453125,1,0,0,response1disk,,7,-13.91796875,0.47265625,1,0,0,rectangle,-13.91796875,0.47265625,1,0,0,-13.91796875,0.47265625,1,0,0,0,63,63,54,1,,,,,,,,
,,,,,,,,,,,,,FF,,,,,,,,0.6347,,,,,,,,,,,,,,,,,,,,,,6100914955639de64ec75a58,61036e50cd475cdc97453beb,2021-07-29_23h13.49.747,Simcolourproject_2stim_asymm_v5,2020.2.10,MacIntel,60,61025ae37ef11b136ea224fe,,,,,,,,,3244,-27.5625,97.8515625,1,0,0,response7disk,,0,-12.10546875,5.234375,1,0,0,rectangle,-12.10546875,5.234375,1,0,0,-12.10546875,5.234375,1,0,0,0,64,64,38,1,,,,,,,,
,,,,,,,,,,,,,FF,,,,,,,,0.7007,,,,,,,,,,,,,,,,,,,,,,6100914955639de64ec75a58,61036e50cd475cdc97453beb,2021-07-29_23h13.49.747,Simcolourproject_2stim_asymm_v5,2020.2.10,MacIntel,60,61025ae37ef11b136ea224fe,,,,,,,,,2751,38.7734375,76.7265625,1,0,0,response1disk,,7,1.62890625,3.86328125,1,0,0,rectangle,1.62890625,3.86328125,1,0,0,1.62890625,3.86328125,1,0,0,0,65,65,136,1,,,,,,,,
,,,,,,,,,,,,,FF,,,,,,,,1.1659,,,,,,,,,,,,,,,,,,,,,,6100914955639de64ec75a58,61036e50cd475cdc97453beb,2021-07-29_23h13.49.747,Simcolourproject_2stim_asymm_v5,2020.2.10,MacIntel,60,61025ae37ef11b136ea224fe,,,,,,,,,2800,31.6015625,85.7421875,1,0,0,response1disk,,7,10.35546875,-12.6015625,1,0,0,rectangle,10.35546875,-12.6015625,1,0,0,10.35546875,-12.6015625,1,0,0,0,66,66,17,1,,,,,,,,
,,,,,,,,,,,,,FF,,,,,,,,0.4835,,,,,,,,,,,,,,,,,,,,,,6100914955639de64ec75a58,61036e50cd475cdc97453beb,2021-07-29_23h13.49.747,Simcolourproject_2stim_asymm_v5,2020.2.10,MacIntel,60,61025ae37ef11b136ea224fe,,,,,,,,,2443,35.44140625,70.41796875,1,0,0,response1disk,,7,1.96484375,-13.69921875,1,0,0,rectangle,1.96484375,-13.69921875,1,0,0,1.96484375,-13.69921875,1,0,0,0,67,67,10,1,,,,,,,,
,,,,,,,,,,,,,FF,,,,,,,,1.9008,,,,,,,,,,,,,,,,,,,,,,6100914955639de64ec75a58,61036e50cd475cdc97453beb,2021-07-29_23h13.49.747,Simcolourproject_2stim_asymm_v5,2020.2.10,MacIntel,60,61025ae37ef11b136ea224fe,,,,,,,,,3910,39.84375,83.02734375,1,0,0,response1disk,,7,2.7578125,-4.25390625,1,0,0,rectangle,2.7578125,-4.25390625,1,0,0,2.7578125,-4.25390625,1,0,0,0,68,68,138,1,,,,,,,,
,,,,,,,,,,,,,FF,,,,,,,,0.6827,,,,,,,,,,,,,,,,,,,,,,6100914955639de64ec75a58,61036e50cd475cdc97453beb,2021-07-29_23h13.49.747,Simcolourproject_2stim_asymm_v5,2020.2.10,MacIntel,60,61025ae37ef11b136ea224fe,,,,,,,,,317,20.890625,88.515625,1,0,0,response1disk,,7,3.3828125,2.45703125,1,0,0,rectangle,3.3828125,2.45703125,1,0,0,3.3828125,2.45703125,1,0,0,0,69,69,25,1,,,,,,,,
,,,,,,,,,,,,,FF,,,,,,,,0.6171,,,,,,,,,,,,,,,,,,,,,,6100914955639de64ec75a58,61036e50cd475cdc97453beb,2021-07-29_23h13.49.747,Simcolourproject_2stim_asymm_v5,2020.2.10,MacIntel,60,61025ae37ef11b136ea224fe,,,,,,,,,2290,55.68359375,105.40625,1,0,0,response1disk,,7,-2.53515625,3.203125,1,0,0,rectangle,-2.53515625,3.203125,1,0,0,-2.53515625,3.203125,1,0,0,0,70,70,75,1,,,,,,,,
,,,,,,,,,,,,,FF,,,,,,,,0.7171,,,,,,,,,,,,,,,,,,,,,,6100914955639de64ec75a58,61036e50cd475cdc97453beb,2021-07-29_23h13.49.747,Simcolourproject_2stim_asymm_v5,2020.2.10,MacIntel,60,61025ae37ef11b136ea224fe,,,,,,,,,1218,-38.32421875,87.5234375,1,0,0,response7disk,,0,-22.4296875,-4.875,1,0,0,rectangle,-22.4296875,-4.875,1,0,0,-22.4296875,-4.875,1,0,0,0,71,71,149,1,,,,,,,,
,,,,,,,,,,,,,FF,,,,,,,,0.7826,,,,,,,,,,,,,,,,,,,,,,6100914955639de64ec75a58,61036e50cd475cdc97453beb,2021-07-29_23h13.49.747,Simcolourproject_2stim_asymm_v5,2020.2.10,MacIntel,60,61025ae37ef11b136ea224fe,,,,,,,,,3746,-36.60546875,67.98828125,1,0,0,response7disk,,0,-24.25390625,10.48828125,1,0,0,rectangle,-24.25390625,10.48828125,1,0,0,-24.25390625,10.48828125,1,0,0,0,72,72,158,1,,,,,,,,
,,,,,,,,,,,,,FF,,,,,,,,0.5169,,,,,,,,,,,,,,,,,,,,,,6100914955639de64ec75a58,61036e50cd475cdc97453beb,2021-07-29_23h13.49.747,Simcolourproject_2stim_asymm_v5,2020.2.10,MacIntel,60,61025ae37ef11b136ea224fe,,,,,,,,,1430,42.96484375,95.8828125,1,0,0,response1disk,,7,-7.40234375,-7.46484375,1,0,0,rectangle,-7.40234375,-7.46484375,1,0,0,-7.40234375,-7.46484375,1,0,0,0,73,73,144,1,,,,,,,,
,,,,,,,,,,,,,FF,,,,,,,,0.4667,,,,,,,,,,,,,,,,,,,,,,6100914955639de64ec75a58,61036e50cd475cdc97453beb,2021-07-29_23h13.49.747,Simcolourproject_2stim_asymm_v5,2020.2.10,MacIntel,60,61025ae37ef11b136ea224fe,,,,,,,,,572,56.1328125,81.99609375,1,0,0,response1disk,,7,-7.51171875,-1.20703125,1,0,0,rectangle,-7.51171875,-1.20703125,1,0,0,-7.51171875,-1.20703125,1,0,0,0,74,74,49,1,,,,,,,,
,,,,,,,,,,,,,FF,,,,,,,,0.5006,,,,,,,,,,,,,,,,,,,,,,6100914955639de64ec75a58,61036e50cd475cdc97453beb,2021-07-29_23h13.49.747,Simcolourproject_2stim_asymm_v5,2020.2.10,MacIntel,60,61025ae37ef11b136ea224fe,,,,,,,,,1857,48.234375,93.8125,1,0,0,response1disk,,7,-6.75390625,4.234375,1,0,0,rectangle,-6.75390625,4.234375,1,0,0,-6.75390625,4.234375,1,0,0,0,75,75,51,1,,,,,,,,
,,,,,,,,,,,,,FF,,,,,,,,0.8823,,,,,,,,,,,,,,,,,,,,,,6100914955639de64ec75a58,61036e50cd475cdc97453beb,2021-07-29_23h13.49.747,Simcolourproject_2stim_asymm_v5,2020.2.10,MacIntel,60,61025ae37ef11b136ea224fe,,,,,,,,,2680,-32.09765625,86.40625,1,0,0,response7disk,,0,-16.78125,9.9140625,1,0,0,rectangle,-16.78125,9.9140625,1,0,0,-16.78125,9.9140625,1,0,0,0,76,76,114,1,,,,,,,,
,,,,,,,,,,,,,FF,,,,,,,,0.4164,,,,,,,,,,,,,,,,,,,,,,6100914955639de64ec75a58,61036e50cd475cdc97453beb,2021-07-29_23h13.49.747,Simcolourproject_2stim_asymm_v5,2020.2.10,MacIntel,60,61025ae37ef11b136ea224fe,,,,,,,,,116,44.765625,68.27734375,1,0,0,response1disk,,7,10.69921875,0.5546875,1,0,0,rectangle,10.69921875,0.5546875,1,0,0,10.69921875,0.5546875,1,0,0,0,77,77,43,1,,,,,,,,
,,,,,,,,,,,,,FF,,,,,,,,0.5332,,,,,,,,,,,,,,,,,,,,,,6100914955639de64ec75a58,61036e50cd475cdc97453beb,2021-07-29_23h13.49.747,Simcolourproject_2stim_asymm_v5,2020.2.10,MacIntel,60,61025ae37ef11b136ea224fe,,,,,,,,,1360,45.88671875,90.77734375,1,0,0,response1disk,,7,2.671875,2.64453125,1,0,0,rectangle,2.671875,2.64453125,1,0,0,2.671875,2.64453125,1,0,0,0,78,78,69,1,,,,,,,,
,,,,,,,,,,,,,FF,,,,,,,,0.6508,,,,,,,,,,,,,,,,,,,,,,6100914955639de64ec75a58,61036e50cd475cdc97453beb,2021-07-29_23h13.49.747,Simcolourproject_2stim_asymm_v5,2020.2.10,MacIntel,60,61025ae37ef11b136ea224fe,,,,,,,,,735,31.390625,87.95703125,1,0,0,response1disk,,7,2.48046875,6.390625,1,0,0,rectangle,2.48046875,6.390625,1,0,0,2.48046875,6.390625,1,0,0,0,79,79,27,1,,,,,,,,
,,,,,,,,,,,,,FF,,,,,,,,0.8002,,,,,,,,,,,,,,,,,,,,,,6100914955639de64ec75a58,61036e50cd475cdc97453beb,2021-07-29_23h13.49.747,Simcolourproject_2stim_asymm_v5,2020.2.10,MacIntel,60,61025ae37ef11b136ea224fe,,,,,,,,,230,26.5625,93.5546875,1,0,0,response1disk,,7,24.21484375,9.609375,1,0,0,rectangle,24.21484375,9.609375,1,0,0,24.21484375,9.609375,1,0,0,0,80,80,22,1,,,,,,,,
,,,,,,,,,,,,,FF,,,,,,,,1.6683,,,,,,,,,,,,,,,,,,,,,,6100914955639de64ec75a58,61036e50cd475cdc97453beb,2021-07-29_23h13.49.747,Simcolourproject_2stim_asymm_v5,2020.2.10,MacIntel,60,61025ae37ef11b136ea224fe,,,,,,,,,638,20.56640625,91.60546875,1,0,0,response1disk,,7,-10.90234375,0.8359375,1,0,0,rectangle,-10.90234375,0.8359375,1,0,0,-10.90234375,0.8359375,1,0,0,0,81,81,32,1,,,,,,,,
,,,,,,,,,,,,,FF,,,,,,,,0.6322,,,,,,,,,,,,,,,,,,,,,,6100914955639de64ec75a58,61036e50cd475cdc97453beb,2021-07-29_23h13.49.747,Simcolourproject_2stim_asymm_v5,2020.2.10,MacIntel,60,61025ae37ef11b136ea224fe,,,,,,,,,1446,-29.72265625,52.5234375,1,0,0,response7disk,,0,-14.1015625,-8.84765625,1,0,0,rectangle,-14.1015625,-8.84765625,1,0,0,-14.1015625,-8.84765625,1,0,0,0,82,82,92,1,,,,,,,,
,,,,,,,,,,,,,FF,,,,,,,,0.4337,,,,,,,,,,,,,,,,,,,,,,6100914955639de64ec75a58,61036e50cd475cdc97453beb,2021-07-29_23h13.49.747,Simcolourproject_2stim_asymm_v5,2020.2.10,MacIntel,60,61025ae37ef11b136ea224fe,,,,,,,,,1492,42.31640625,72.90234375,1,0,0,response1disk,,7,1.7578125,-4.5625,1,0,0,rectangle,1.7578125,-4.5625,1,0,0,1.7578125,-4.5625,1,0,0,0,83,83,73,1,,,,,,,,
,,,,,,,,,,,,,FF,,,,,,,,1.1659,,,,,,,,,,,,,,,,,,,,,,6100914955639de64ec75a58,61036e50cd475cdc97453beb,2021-07-29_23h13.49.747,Simcolourproject_2stim_asymm_v5,2020.2.10,MacIntel,60,61025ae37ef11b136ea224fe,,,,,,,,,3951,38.375,88.77734375,1,0,0,response1disk,,7,12.50390625,-8.91796875,1,0,0,rectangle,12.50390625,-8.91796875,1,0,0,12.50390625,-8.91796875,1,0,0,0,84,84,104,1,,,,,,,,
,,,,,,,,,,,,,FF,,,,,,,,0.75,,,,,,,,,,,,,,,,,,,,,,6100914955639de64ec75a58,61036e50cd475cdc97453beb,2021-07-29_23h13.49.747,Simcolourproject_2stim_asymm_v5,2020.2.10,MacIntel,60,61025ae37ef11b136ea224fe,,,,,,,,,875,-30.9765625,84.51171875,1,0,0,response7disk,,0,-26.10546875,-9.62109375,1,0,0,rectangle,-26.10546875,-9.62109375,1,0,0,-26.10546875,-9.62109375,1,0,0,0,85,85,153,1,,,,,,,,
,,,,,,,,,,,,,FF,,,,,,,,0.4993,,,,,,,,,,,,,,,,,,,,,,6100914955639de64ec75a58,61036e50cd475cdc97453beb,2021-07-29_23h13.49.747,Simcolourproject_2stim_asymm_v5,2020.2.10,MacIntel,60,61025ae37ef11b136ea224fe,,,,,,,,,3024,38.50390625,89.30859375,1,0,0,response1disk,,7,-15.23046875,-8.38671875,1,0,0,rectangle,-15.23046875,-8.38671875,1,0,0,-15.23046875,-8.38671875,1,0,0,0,86,86,71,1,,,,,,,,
,,,,,,,,,,,,,FF,,,,,,,,0.351,,,,,,,,,,,,,,,,,,,,,,6100914955639de64ec75a58,61036e50cd475cdc97453beb,2021-07-29_23h13.49.747,Simcolourproject_2stim_asymm_v5,2020.2.10,MacIntel,60,61025ae37ef11b136ea224fe,,,,,,,,,1634,32.30078125,68.3828125,1,0,0,response1disk,,7,-0.9375,-1.79296875,1,0,0,rectangle,-0.9375,-1.79296875,1,0,0,-0.9375,-1.79296875,1,0,0,0,87,87,154,1,,,,,,,,
,,,,,,,,,,,,,FF,,,,,,,,0.4344,,,,,,,,,,,,,,,,,,,,,,6100914955639de64ec75a58,61036e50cd475cdc97453beb,2021-07-29_23h13.49.747,Simcolourproject_2stim_asymm_v5,2020.2.10,MacIntel,60,61025ae37ef11b136ea224fe,,,,,,,,,2591,57.23046875,107.8398438,1,0,0,response1disk,,7,-7.70703125,6.9609375,1,0,0,rectangle,-7.70703125,6.9609375,1,0,0,-7.70703125,6.9609375,1,0,0,0,88,88,95,1,,,,,,,,
,,,,,,,,,,,,,FF,,,,,,,,0.4177,,,,,,,,,,,,,,,,,,,,,,6100914955639de64ec75a58,61036e50cd475cdc97453beb,2021-07-29_23h13.49.747,Simcolourproject_2stim_asymm_v5,2020.2.10,MacIntel,60,61025ae37ef11b136ea224fe,,,,,,,,,1476,23.0390625,92.1015625,1,0,0,response1disk,,7,-6.3203125,-4.3515625,1,0,0,rectangle,-6.3203125,-4.3515625,1,0,0,-6.3203125,-4.3515625,1,0,0,0,89,89,65,1,,,,,,,,
,,,,,,,,,,,,,FF,,,,,,,,0.3835,,,,,,,,,,,,,,,,,,,,,,6100914955639de64ec75a58,61036e50cd475cdc97453beb,2021-07-29_23h13.49.747,Simcolourproject_2stim_asymm_v5,2020.2.10,MacIntel,60,61025ae37ef11b136ea224fe,,,,,,,,,110,34.01171875,78.6953125,1,0,0,response1disk,,7,-6.76171875,-17.57421875,1,0,0,rectangle,-6.76171875,-17.57421875,1,0,0,-6.76171875,-17.57421875,1,0,0,0,90,90,82,1,,,,,,,,
,,,,,,,,,,,,,FF,,,,,,,,0.4839,,,,,,,,,,,,,,,,,,,,,,6100914955639de64ec75a58,61036e50cd475cdc97453beb,2021-07-29_23h13.49.747,Simcolourproject_2stim_asymm_v5,2020.2.10,MacIntel,60,61025ae37ef11b136ea224fe,,,,,,,,,3705,-49.40625,83.3515625,1,0,0,response7disk,,0,-13.55078125,-1.9453125,1,0,0,rectangle,-13.55078125,-1.9453125,1,0,0,-13.55078125,-1.9453125,1,0,0,0,91,91,125,1,,,,,,,,
,,,,,,,,,,,,,FF,,,,,,,,0.5659,,,,,,,,,,,,,,,,,,,,,,6100914955639de64ec75a58,61036e50cd475cdc97453beb,2021-07-29_23h13.49.747,Simcolourproject_2stim_asymm_v5,2020.2.10,MacIntel,60,61025ae37ef11b136ea224fe,,,,,,,,,3016,33.28515625,76.98046875,1,0,0,response1disk,,7,-6.84375,11.58203125,1,0,0,rectangle,-6.84375,11.58203125,1,0,0,-6.84375,11.58203125,1,0,0,0,92,92,77,1,,,,,,,,
,,,,,,,,,,,,,FF,,,,,,,,0.5345,,,,,,,,,,,,,,,,,,,,,,6100914955639de64ec75a58,61036e50cd475cdc97453beb,2021-07-29_23h13.49.747,Simcolourproject_2stim_asymm_v5,2020.2.10,MacIntel,60,61025ae37ef11b136ea224fe,,,,,,,,,2684,33.71484375,79.4296875,1,0,0,response1disk,,7,2.23046875,9.1171875,1,0,0,rectangle,2.23046875,9.1171875,1,0,0,2.23046875,9.1171875,1,0,0,0,93,93,5,1,,,,,,,,
,,,,,,,,,,,,,FF,,,,,,,,0.5665,,,,,,,,,,,,,,,,,,,,,,6100914955639de64ec75a58,61036e50cd475cdc97453beb,2021-07-29_23h13.49.747,Simcolourproject_2stim_asymm_v5,2020.2.10,MacIntel,60,61025ae37ef11b136ea224fe,,,,,,,,,850,32.52734375,74.828125,1,0,0,response1disk,,7,6.41796875,6.69921875,1,0,0,rectangle,6.41796875,6.69921875,1,0,0,6.41796875,6.69921875,1,0,0,0,94,94,120,1,,,,,,,,
,,,,,,,,,,,,,FF,,,,,,,,0.3672,,,,,,,,,,,,,,,,,,,,,,6100914955639de64ec75a58,61036e50cd475cdc97453beb,2021-07-29_23h13.49.747,Simcolourproject_2stim_asymm_v5,2020.2.10,MacIntel,60,61025ae37ef11b136ea224fe,,,,,,,,,3689,23.9375,62.4453125,1,0,0,response1disk,,7,1.3984375,-5.15234375,1,0,0,rectangle,-74.9921875,32.015625,1,0,0,-11.57421875,-0.00390625,1,0,0,0,95,95,30,1,,response7disk_3,TRUE,1,1,"[101,257,154,300,183,238,50,250,161,96,40,252,285,137,262,299,229,224,97,4]",1.7005,rectangle
,,,,,,,,,,,,,FF,,,,,,,,0.599,,,,,,,,,,,,,,,,,,,,,,6100914955639de64ec75a58,61036e50cd475cdc97453beb,2021-07-29_23h13.49.747,Simcolourproject_2stim_asymm_v5,2020.2.10,MacIntel,60,61025ae37ef11b136ea224fe,,,,,,,,,2248,43.66796875,83.37109375,1,0,0,response1disk,,7,0.87109375,9.234375,1,0,0,rectangle,-85.87109375,-33.234375,1,0,0,23.01171875,-5.9140625,1,0,0,0,96,96,74,1,,response5disk_3,TRUE,2,2,"[101,257,154,300,183,238,50,250,161,96,40,252,285,137,262,299,229,224,97,4]",1.8995,rectangle
,,,,,,,,,,,,,FF,,,,,,,,0.5499,,,,,,,,,,,,,,,,,,,,,,6100914955639de64ec75a58,61036e50cd475cdc97453beb,2021-07-29_23h13.49.747,Simcolourproject_2stim_asymm_v5,2020.2.10,MacIntel,60,61025ae37ef11b136ea224fe,,,,,,,,,924,49.4609375,89.86328125,1,0,0,response1disk,,7,-2.65625,8.4609375,1,0,0,rectangle,-2.65625,8.4609375,1,0,0,-2.65625,8.4609375,1,0,0,0,97,97,118,1,,,,,,,,
,,,,,,,,,,,,,FF,,,,,,,,0.7494,,,,,,,,,,,,,,,,,,,,,,6100914955639de64ec75a58,61036e50cd475cdc97453beb,2021-07-29_23h13.49.747,Simcolourproject_2stim_asymm_v5,2020.2.10,MacIntel,60,61025ae37ef11b136ea224fe,,,,,,,,,3332,39.4921875,87.5546875,1,0,0,response1disk,,7,-2.34765625,1.203125,1,0,0,rectangle,-2.34765625,1.203125,1,0,0,-2.34765625,1.203125,1,0,0,0,98,98,37,1,,,,,,,,
,,,,,,,,,,,,,FF,,,,,,,,0.5825,,,,,,,,,,,,,,,,,,,,,,6100914955639de64ec75a58,61036e50cd475cdc97453beb,2021-07-29_23h13.49.747,Simcolourproject_2stim_asymm_v5,2020.2.10,MacIntel,60,61025ae37ef11b136ea224fe,,,,,,,,,3135,34.171875,75.83203125,1,0,0,response1disk,,7,-9.5078125,-8.33984375,1,0,0,rectangle,-9.5078125,-8.33984375,1,0,0,-9.5078125,-8.33984375,1,0,0,0,99,99,46,1,,,,,,,,
,,,,,,,,,,,,,FF,,,,,,,,1.4172,,,,,,,,,,,,,,,,,,,,,,6100914955639de64ec75a58,61036e50cd475cdc97453beb,2021-07-29_23h13.49.747,Simcolourproject_2stim_asymm_v5,2020.2.10,MacIntel,60,61025ae37ef11b136ea224fe,,,,,,,,,1122,25.89453125,84.0078125,1,0,0,response1disk,,7,-7.3515625,2.00390625,1,0,0,rectangle,-34.40625,-87.3203125,1,0,0,0.69140625,-2.85546875,1,0,0,0,100,100,89,1,,response5disk_3,TRUE,3,3,"[101,257,154,300,183,238,50,250,161,96,40,252,285,137,262,299,229,224,97,4]",2.3659,rectangle
,,,,,,,,,,,,,FF,,,,,,,,0.7339,,,,,,,,,,,,,,,,,,,,,,6100914955639de64ec75a58,61036e50cd475cdc97453beb,2021-07-29_23h13.49.747,Simcolourproject_2stim_asymm_v5,2020.2.10,MacIntel,60,61025ae37ef11b136ea224fe,,,,,,,,,368,-44.7421875,69.54296875,1,0,0,response7disk,,0,-29.140625,5.484375,1,0,0,rectangle,-29.140625,5.484375,1,0,0,-29.140625,5.484375,1,0,0,0,101,101,23,1,,,,,,,,
,,,,,,,,,,,,,FF,,,,,,,,0.4836,,,,,,,,,,,,,,,,,,,,,,6100914955639de64ec75a58,61036e50cd475cdc97453beb,2021-07-29_23h13.49.747,Simcolourproject_2stim_asymm_v5,2020.2.10,MacIntel,60,61025ae37ef11b136ea224fe,,,,,,,,,2354,36.3671875,75.56640625,1,0,0,response1disk,,7,6.13671875,1.921875,1,0,0,rectangle,6.13671875,1.921875,1,0,0,6.13671875,1.921875,1,0,0,0,102,102,76,1,,,,,,,,
,,,,,,,,,,,,,FF,,,,,,,,0.5001,,,,,,,,,,,,,,,,,,,,,,6100914955639de64ec75a58,61036e50cd475cdc97453beb,2021-07-29_23h13.49.747,Simcolourproject_2stim_asymm_v5,2020.2.10,MacIntel,60,61025ae37ef11b136ea224fe,,,,,,,,,46,25.515625,75.51171875,1,0,0,response1disk,,7,-2.54296875,-9.84375,1,0,0,rectangle,-2.54296875,-9.84375,1,0,0,-2.54296875,-9.84375,1,0,0,0,103,103,81,1,,,,,,,,
,,,,,,,,,,,,,FF,,,,,,,,0.6844,,,,,,,,,,,,,,,,,,,,,,6100914955639de64ec75a58,61036e50cd475cdc97453beb,2021-07-29_23h13.49.747,Simcolourproject_2stim_asymm_v5,2020.2.10,MacIntel,60,61025ae37ef11b136ea224fe,,,,,,,,,1960,27.22265625,75.5234375,1,0,0,response1disk,,7,5.93359375,8.625,1,0,0,rectangle,5.93359375,8.625,1,0,0,5.93359375,8.625,1,0,0,0,104,104,99,1,,,,,,,,
,,,,,,,,,,,,,FF,,,,,,,,0.4667,,,,,,,,,,,,,,,,,,,,,,6100914955639de64ec75a58,61036e50cd475cdc97453beb,2021-07-29_23h13.49.747,Simcolourproject_2stim_asymm_v5,2020.2.10,MacIntel,60,61025ae37ef11b136ea224fe,,,,,,,,,206,37.140625,75.171875,1,0,0,response1disk,,7,13.61328125,8.1640625,1,0,0,rectangle,13.61328125,8.1640625,1,0,0,13.61328125,8.1640625,1,0,0,0,105,105,150,1,,,,,,,,
,,,,,,,,,,,,,FF,,,,,,,,0.6328,,,,,,,,,,,,,,,,,,,,,,6100914955639de64ec75a58,61036e50cd475cdc97453beb,2021-07-29_23h13.49.747,Simcolourproject_2stim_asymm_v5,2020.2.10,MacIntel,60,61025ae37ef11b136ea224fe,,,,,,,,,991,31.546875,89.49609375,1,0,0,response1disk,,7,-3.93359375,8.3984375,1,0,0,rectangle,-3.93359375,8.3984375,1,0,0,-3.93359375,8.3984375,1,0,0,0,106,106,151,1,,,,,,,,
,,,,,,,,,,,,,FF,,,,,,,,0.7663,,,,,,,,,,,,,,,,,,,,,,6100914955639de64ec75a58,61036e50cd475cdc97453beb,2021-07-29_23h13.49.747,Simcolourproject_2stim_asymm_v5,2020.2.10,MacIntel,60,61025ae37ef11b136ea224fe,,,,,,,,,4137,28.11328125,77.51171875,1,0,0,response1disk,,7,-2.03515625,-4.35546875,1,0,0,rectangle,-2.03515625,-4.35546875,1,0,0,-2.03515625,-4.35546875,1,0,0,0,107,107,135,1,,,,,,,,
,,,,,,,,,,,,,FF,,,,,,,,0.4498,,,,,,,,,,,,,,,,,,,,,,6100914955639de64ec75a58,61036e50cd475cdc97453beb,2021-07-29_23h13.49.747,Simcolourproject_2stim_asymm_v5,2020.2.10,MacIntel,60,61025ae37ef11b136ea224fe,,,,,,,,,2008,38.609375,66.7265625,1,0,0,response1disk,,7,13.33203125,-9.6484375,1,0,0,rectangle,13.33203125,-9.6484375,1,0,0,13.33203125,-9.6484375,1,0,0,0,108,108,146,1,,,,,,,,
,,,,,,,,,,,,,FF,,,,,,,,0.4993,,,,,,,,,,,,,,,,,,,,,,6100914955639de64ec75a58,61036e50cd475cdc97453beb,2021-07-29_23h13.49.747,Simcolourproject_2stim_asymm_v5,2020.2.10,MacIntel,60,61025ae37ef11b136ea224fe,,,,,,,,,787,32.671875,63.69140625,1,0,0,response1disk,,7,6.01171875,2.76953125,1,0,0,rectangle,6.01171875,2.76953125,1,0,0,6.01171875,2.76953125,1,0,0,0,109,109,7,1,,,,,,,,
,,,,,,,,,,,,,FF,,,,,,,,0.6006,,,,,,,,,,,,,,,,,,,,,,6100914955639de64ec75a58,61036e50cd475cdc97453beb,2021-07-29_23h13.49.747,Simcolourproject_2stim_asymm_v5,2020.2.10,MacIntel,60,61025ae37ef11b136ea224fe,,,,,,,,,977,30.03515625,78.50390625,1,0,0,response1disk,,7,3.60546875,-2.546875,1,0,0,rectangle,3.60546875,-2.546875,1,0,0,3.60546875,-2.546875,1,0,0,0,110,110,145,1,,,,,,,,
,,,,,,,,,,,,,FF,,,,,,,,0.4839,,,,,,,,,,,,,,,,,,,,,,6100914955639de64ec75a58,61036e50cd475cdc97453beb,2021-07-29_23h13.49.747,Simcolourproject_2stim_asymm_v5,2020.2.10,MacIntel,60,61025ae37ef11b136ea224fe,,,,,,,,,3723,25.359375,64.9765625,1,0,0,response1disk,,7,-0.34765625,-6.55859375,1,0,0,rectangle,-0.34765625,-6.55859375,1,0,0,-0.34765625,-6.55859375,1,0,0,0,111,111,102,1,,,,,,,,
,,,,,,,,,,,,,FF,,,,,,,,0.5164,,,,,,,,,,,,,,,,,,,,,,6100914955639de64ec75a58,61036e50cd475cdc97453beb,2021-07-29_23h13.49.747,Simcolourproject_2stim_asymm_v5,2020.2.10,MacIntel,60,61025ae37ef11b136ea224fe,,,,,,,,,3069,37.453125,62.8203125,1,0,0,response1disk,,7,4.11328125,2.609375,1,0,0,rectangle,4.11328125,2.609375,1,0,0,4.11328125,2.609375,1,0,0,0,112,112,117,1,,,,,,,,
,,,,,,,,,,,,,FF,,,,,,,,0.5658,,,,,,,,,,,,,,,,,,,,,,6100914955639de64ec75a58,61036e50cd475cdc97453beb,2021-07-29_23h13.49.747,Simcolourproject_2stim_asymm_v5,2020.2.10,MacIntel,60,61025ae37ef11b136ea224fe,,,,,,,,,4254,30.83203125,92.71875,1,0,0,response1disk,,7,-3.3203125,9.01171875,1,0,0,rectangle,-3.3203125,9.01171875,1,0,0,-3.3203125,9.01171875,1,0,0,0,113,113,112,1,,,,,,,,
,,,,,,,,,,,,,FF,,,,,,,,0.6669,,,,,,,,,,,,,,,,,,,,,,6100914955639de64ec75a58,61036e50cd475cdc97453beb,2021-07-29_23h13.49.747,Simcolourproject_2stim_asymm_v5,2020.2.10,MacIntel,60,61025ae37ef11b136ea224fe,,,,,,,,,2460,30.484375,87.65625,1,0,0,response1disk,,7,-2.28515625,8.78515625,1,0,0,rectangle,-2.28515625,8.78515625,1,0,0,-2.28515625,8.78515625,1,0,0,0,114,114,18,1,,,,,,,,
,,,,,,,,,,,,,FF,,,,,,,,0.5997,,,,,,,,,,,,,,,,,,,,,,6100914955639de64ec75a58,61036e50cd475cdc97453beb,2021-07-29_23h13.49.747,Simcolourproject_2stim_asymm_v5,2020.2.10,MacIntel,60,61025ae37ef11b136ea224fe,,,,,,,,,453,27.92578125,58.95703125,1,0,0,response1disk,,7,3.296875,3.91796875,1,0,0,rectangle,3.296875,3.91796875,1,0,0,3.296875,3.91796875,1,0,0,0,115,115,47,1,,,,,,,,
,,,,,,,,,,,,,FF,,,,,,,,0.7325,,,,,,,,,,,,,,,,,,,,,,6100914955639de64ec75a58,61036e50cd475cdc97453beb,2021-07-29_23h13.49.747,Simcolourproject_2stim_asymm_v5,2020.2.10,MacIntel,60,61025ae37ef11b136ea224fe,,,,,,,,,2163,-26.88671875,82.234375,1,0,0,response7disk,,0,-1.62109375,-1.17578125,1,0,0,rectangle,-1.62109375,-1.17578125,1,0,0,-1.62109375,-1.17578125,1,0,0,0,116,116,31,1,,,,,,,,
,,,,,,,,,,,,,FF,,,,,,,,0.5334,,,,,,,,,,,,,,,,,,,,,,6100914955639de64ec75a58,61036e50cd475cdc97453beb,2021-07-29_23h13.49.747,Simcolourproject_2stim_asymm_v5,2020.2.10,MacIntel,60,61025ae37ef11b136ea224fe,,,,,,,,,2539,31.390625,60.16015625,1,0,0,response1disk,,7,2.44921875,-2.69140625,1,0,0,rectangle,2.44921875,-2.69140625,1,0,0,2.44921875,-2.69140625,1,0,0,0,117,117,14,1,,,,,,,,
,,,,,,,,,,,,,FF,,,,,,,,0.616,,,,,,,,,,,,,,,,,,,,,,6100914955639de64ec75a58,61036e50cd475cdc97453beb,2021-07-29_23h13.49.747,Simcolourproject_2stim_asymm_v5,2020.2.10,MacIntel,60,61025ae37ef11b136ea224fe,,,,,,,,,1077,29.71484375,73.93359375,1,0,0,response1disk,,7,4.88671875,-3.4921875,1,0,0,rectangle,4.88671875,-3.4921875,1,0,0,4.88671875,-3.4921875,1,0,0,0,118,118,134,1,,,,,,,,
,,,,,,,,,,,,,FF,,,,,,,,0.7486,,,,,,,,,,,,,,,,,,,,,,6100914955639de64ec75a58,61036e50cd475cdc97453beb,2021-07-29_23h13.49.747,Simcolourproject_2stim_asymm_v5,2020.2.10,MacIntel,60,61025ae37ef11b136ea224fe,,,,,,,,,2782,-31.13671875,63.875,1,0,0,response7disk,,0,-14.3359375,3.34765625,1,0,0,rectangle,-14.3359375,3.34765625,1,0,0,-14.3359375,3.34765625,1,0,0,0,119,119,12,1,,,,,,,,
,,,,,,,,,,,,,FF,,,,,,,,0.9503,,,,,,,,,,,,,,,,,,,,,,6100914955639de64ec75a58,61036e50cd475cdc97453beb,2021-07-29_23h13.49.747,Simcolourproject_2stim_asymm_v5,2020.2.10,MacIntel,60,61025ae37ef11b136ea224fe,,,,,,,,,3,-30.8125,65.3515625,1,0,0,response7disk,,0,-20.83203125,4.87109375,1,0,0,rectangle,-20.83203125,4.87109375,1,0,0,-20.83203125,4.87109375,1,0,0,0,120,120,4,1,,,,,,,,
,,,,,,,,,,,,,FF,,,,,,,,1.5993,,,,,,,,,,,,,,,,,,,,,,6100914955639de64ec75a58,61036e50cd475cdc97453beb,2021-07-29_23h13.49.747,Simcolourproject_2stim_asymm_v5,2020.2.10,MacIntel,60,61025ae37ef11b136ea224fe,,,,,,,,,2103,-31.0234375,68.62109375,1,0,0,response7disk,,0,-30.05859375,-5.953125,1,0,0,rectangle,-30.05859375,-5.953125,1,0,0,-30.05859375,-5.953125,1,0,0,0,121,121,139,1,,,,,,,,
,,,,,,,,,,,,,FF,,,,,,,,0.5324,,,,,,,,,,,,,,,,,,,,,,6100914955639de64ec75a58,61036e50cd475cdc97453beb,2021-07-29_23h13.49.747,Simcolourproject_2stim_asymm_v5,2020.2.10,MacIntel,60,61025ae37ef11b136ea224fe,,,,,,,,,929,50.67578125,55.9765625,1,0,0,response1disk,,7,0.64453125,11.078125,1,0,0,rectangle,0.64453125,11.078125,1,0,0,0.64453125,11.078125,1,0,0,0,122,122,121,1,,,,,,,,
,,,,,,,,,,,,,FF,,,,,,,,1.3324,,,,,,,,,,,,,,,,,,,,,,6100914955639de64ec75a58,61036e50cd475cdc97453beb,2021-07-29_23h13.49.747,Simcolourproject_2stim_asymm_v5,2020.2.10,MacIntel,60,61025ae37ef11b136ea224fe,,,,,,,,,2598,-40.890625,88.8359375,1,0,0,response7disk,,0,-11.03515625,-10.70703125,1,0,0,rectangle,-11.03515625,-10.70703125,1,0,0,-11.03515625,-10.70703125,1,0,0,0,123,123,33,1,,,,,,,,
,,,,,,,,,,,,,FF,,,,,,,,2.1667,,,,,,,,,,,,,,,,,,,,,,6100914955639de64ec75a58,61036e50cd475cdc97453beb,2021-07-29_23h13.49.747,Simcolourproject_2stim_asymm_v5,2020.2.10,MacIntel,60,61025ae37ef11b136ea224fe,,,,,,,,,2513,28.66796875,91.94921875,1,0,0,response1disk,,7,-10.7421875,4.4765625,1,0,0,rectangle,-10.7421875,4.4765625,1,0,0,-10.7421875,4.4765625,1,0,0,0,124,124,113,1,,,,,,,,
,,,,,,,,,,,,,FF,,,,,,,,0.4156,,,,,,,,,,,,,,,,,,,,,,6100914955639de64ec75a58,61036e50cd475cdc97453beb,2021-07-29_23h13.49.747,Simcolourproject_2stim_asymm_v5,2020.2.10,MacIntel,60,61025ae37ef11b136ea224fe,,,,,,,,,143,29.99609375,93.87890625,1,0,0,response1disk,,7,-7.66015625,5.1640625,1,0,0,rectangle,-7.66015625,5.1640625,1,0,0,-7.66015625,5.1640625,1,0,0,0,125,125,111,1,,,,,,,,
,,,,,,,,,,,,,FF,,,,,,,,0.5155,,,,,,,,,,,,,,,,,,,,,,6100914955639de64ec75a58,61036e50cd475cdc97453beb,2021-07-29_23h13.49.747,Simcolourproject_2stim_asymm_v5,2020.2.10,MacIntel,60,61025ae37ef11b136ea224fe,,,,,,,,,2156,50.37109375,80.90625,1,0,0,response1disk,,7,0.64453125,-0.796875,1,0,0,rectangle,0.64453125,-0.796875,1,0,0,0.64453125,-0.796875,1,0,0,0,126,126,105,1,,,,,,,,
,,,,,,,,,,,,,FF,,,,,,,,0.4824,,,,,,,,,,,,,,,,,,,,,,6100914955639de64ec75a58,61036e50cd475cdc97453beb,2021-07-29_23h13.49.747,Simcolourproject_2stim_asymm_v5,2020.2.10,MacIntel,60,61025ae37ef11b136ea224fe,,,,,,,,,2271,41.73046875,72.56640625,1,0,0,response1disk,,7,-2.265625,-10.80859375,1,0,0,rectangle,-2.265625,-10.80859375,1,0,0,-2.265625,-10.80859375,1,0,0,0,127,127,107,1,,,,,,,,
,,,,,,,,,,,,,FF,,,,,,,,0.6165,,,,,,,,,,,,,,,,,,,,,,6100914955639de64ec75a58,61036e50cd475cdc97453beb,2021-07-29_23h13.49.747,Simcolourproject_2stim_asymm_v5,2020.2.10,MacIntel,60,61025ae37ef11b136ea224fe,,,,,,,,,2388,25.8984375,63.1328125,1,0,0,response1disk,,7,-1.4765625,1.23828125,1,0,0,rectangle,-1.4765625,1.23828125,1,0,0,-1.4765625,1.23828125,1,0,0,0,128,128,109,1,,,,,,,,
,,,,,,,,,,,,,FF,,,,,,,,0.384,,,,,,,,,,,,,,,,,,,,,,6100914955639de64ec75a58,61036e50cd475cdc97453beb,2021-07-29_23h13.49.747,Simcolourproject_2stim_asymm_v5,2020.2.10,MacIntel,60,61025ae37ef11b136ea224fe,,,,,,,,,1640,24.890625,67.34375,1,0,0,response1disk,,7,3.265625,-8.984375,1,0,0,rectangle,3.265625,-8.984375,1,0,0,3.265625,-8.984375,1,0,0,0,129,129,15,1,,,,,,,,
,,,,,,,,,,,,,FF,,,,,,,,0.5338,,,,,,,,,,,,,,,,,,,,,,6100914955639de64ec75a58,61036e50cd475cdc97453beb,2021-07-29_23h13.49.747,Simcolourproject_2stim_asymm_v5,2020.2.10,MacIntel,60,61025ae37ef11b136ea224fe,,,,,,,,,2173,30.2265625,67.3828125,1,0,0,response1disk,,7,3.5390625,4.43359375,1,0,0,rectangle,3.5390625,4.43359375,1,0,0,3.5390625,4.43359375,1,0,0,0,130,130,57,1,,,,,,,,
,,,,,,,,,,,,,FF,,,,,,,,0.4501,,,,,,,,,,,,,,,,,,,,,,6100914955639de64ec75a58,61036e50cd475cdc97453beb,2021-07-29_23h13.49.747,Simcolourproject_2stim_asymm_v5,2020.2.10,MacIntel,60,61025ae37ef11b136ea224fe,,,,,,,,,2441,34.015625,88.46875,1,0,0,response1disk,,7,-11.09375,-11.05859375,1,0,0,rectangle,-11.09375,-11.05859375,1,0,0,-11.09375,-11.05859375,1,0,0,0,131,131,55,1,,,,,,,,
,,,,,,,,,,,,,FF,,,,,,,,0.5162,,,,,,,,,,,,,,,,,,,,,,6100914955639de64ec75a58,61036e50cd475cdc97453beb,2021-07-29_23h13.49.747,Simcolourproject_2stim_asymm_v5,2020.2.10,MacIntel,60,61025ae37ef11b136ea224fe,,,,,,,,,201,25.85546875,59.43359375,1,0,0,response1disk,,7,9.890625,-9.62109375,1,0,0,rectangle,9.890625,-9.62109375,1,0,0,9.890625,-9.62109375,1,0,0,0,132,132,132,1,,,,,,,,
,,,,,,,,,,,,,FF,,,,,,,,0.6165,,,,,,,,,,,,,,,,,,,,,,6100914955639de64ec75a58,61036e50cd475cdc97453beb,2021-07-29_23h13.49.747,Simcolourproject_2stim_asymm_v5,2020.2.10,MacIntel,60,61025ae37ef11b136ea224fe,,,,,,,,,2301,37.41015625,58.7734375,1,0,0,response1disk,,7,7.05859375,-0.2734375,1,0,0,rectangle,7.05859375,-0.2734375,1,0,0,7.05859375,-0.2734375,1,0,0,0,133,133,19,1,,,,,,,,
,,,,,,,,,,,,,FF,,,,,,,,0.4507,,,,,,,,,,,,,,,,,,,,,,6100914955639de64ec75a58,61036e50cd475cdc97453beb,2021-07-29_23h13.49.747,Simcolourproject_2stim_asymm_v5,2020.2.10,MacIntel,60,61025ae37ef11b136ea224fe,,,,,,,,,1300,45.453125,74.03515625,1,0,0,response1disk,,7,9.07421875,17.23046875,1,0,0,rectangle,9.07421875,17.23046875,1,0,0,9.07421875,17.23046875,1,0,0,0,134,134,130,1,,,,,,,,
,,,,,,,,,,,,,FF,,,,,,,,0.4504,,,,,,,,,,,,,,,,,,,,,,6100914955639de64ec75a58,61036e50cd475cdc97453beb,2021-07-29_23h13.49.747,Simcolourproject_2stim_asymm_v5,2020.2.10,MacIntel,60,61025ae37ef11b136ea224fe,,,,,,,,,3485,38.99609375,100.7265625,1,0,0,response1disk,,7,-2.4453125,12.23828125,1,0,0,rectangle,-2.4453125,12.23828125,1,0,0,-2.4453125,12.23828125,1,0,0,0,135,135,35,1,,,,,,,,
,,,,,,,,,,,,,FF,,,,,,,,0.4837,,,,,,,,,,,,,,,,,,,,,,6100914955639de64ec75a58,61036e50cd475cdc97453beb,2021-07-29_23h13.49.747,Simcolourproject_2stim_asymm_v5,2020.2.10,MacIntel,60,61025ae37ef11b136ea224fe,,,,,,,,,2537,24.0234375,77.95703125,1,0,0,response1disk,,7,-1.8203125,7.296875,1,0,0,rectangle,35.50390625,109.015625,1,0,0,-20.26953125,-0.69921875,1,0,0,0,136,136,39,1,,response1disk_3,TRUE,7,7,"[101,257,154,300,183,238,50,250,161,96,40,252,285,137,262,299,229,224,97,4]",1.7993,rectangle
,,,,,,,,,,,,,FF,,,,,,,,0.7663,,,,,,,,,,,,,,,,,,,,,,6100914955639de64ec75a58,61036e50cd475cdc97453beb,2021-07-29_23h13.49.747,Simcolourproject_2stim_asymm_v5,2020.2.10,MacIntel,60,61025ae37ef11b136ea224fe,,,,,,,,,1810,29.4453125,77.29296875,1,0,0,response1disk,,7,-2.0625,-12.30859375,1,0,0,rectangle,-2.0625,-12.30859375,1,0,0,-2.0625,-12.30859375,1,0,0,0,137,137,41,1,,,,,,,,
,,,,,,,,,,,,,FF,,,,,,,,0.6844,,,,,,,,,,,,,,,,,,,,,,6100914955639de64ec75a58,61036e50cd475cdc97453beb,2021-07-29_23h13.49.747,Simcolourproject_2stim_asymm_v5,2020.2.10,MacIntel,60,61025ae37ef11b136ea224fe,,,,,,,,,149,27.48046875,67.68359375,1,0,0,response1disk,,7,9.55078125,-1.74609375,1,0,0,rectangle,9.55078125,-1.74609375,1,0,0,9.55078125,-1.74609375,1,0,0,0,138,138,52,1,,,,,,,,
,,,,,,,,,,,,,FF,,,,,,,,0.7165,,,,,,,,,,,,,,,,,,,,,,6100914955639de64ec75a58,61036e50cd475cdc97453beb,2021-07-29_23h13.49.747,Simcolourproject_2stim_asymm_v5,2020.2.10,MacIntel,60,61025ae37ef11b136ea224fe,,,,,,,,,2724,-33.4453125,58.0859375,1,0,0,response7disk,,0,-7.359375,8.15234375,1,0,0,rectangle,-7.359375,8.15234375,1,0,0,-7.359375,8.15234375,1,0,0,0,139,139,119,1,,,,,,,,
,,,,,,,,,,,,,FF,,,,,,,,0.4498,,,,,,,,,,,,,,,,,,,,,,6100914955639de64ec75a58,61036e50cd475cdc97453beb,2021-07-29_23h13.49.747,Simcolourproject_2stim_asymm_v5,2020.2.10,MacIntel,60,61025ae37ef11b136ea224fe,,,,,,,,,380,31.4765625,58.12109375,1,0,0,response1disk,,7,1.34375,-3.54296875,1,0,0,rectangle,1.34375,-3.54296875,1,0,0,1.34375,-3.54296875,1,0,0,0,140,140,66,1,,,,,,,,
,,,,,,,,,,,,,FF,,,,,,,,0.9161,,,,,,,,,,,,,,,,,,,,,,6100914955639de64ec75a58,61036e50cd475cdc97453beb,2021-07-29_23h13.49.747,Simcolourproject_2stim_asymm_v5,2020.2.10,MacIntel,60,61025ae37ef11b136ea224fe,,,,,,,,,87,38.6875,80.48046875,1,0,0,response1disk,,7,7.96875,2.796875,1,0,0,rectangle,7.96875,2.796875,1,0,0,7.96875,2.796875,1,0,0,0,141,141,143,1,,,,,,,,
,,,,,,,,,,,,,FF,,,,,,,,2.199,,,,,,,,,,,,,,,,,,,,,,6100914955639de64ec75a58,61036e50cd475cdc97453beb,2021-07-29_23h13.49.747,Simcolourproject_2stim_asymm_v5,2020.2.10,MacIntel,60,61025ae37ef11b136ea224fe,,,,,,,,,3086,28.96875,87.53125,1,0,0,response1disk,,7,-20.1328125,-7.9609375,1,0,0,rectangle,-20.1328125,-7.9609375,1,0,0,-20.1328125,-7.9609375,1,0,0,0,142,142,34,1,,,,,,,,
,,,,,,,,,,,,,FF,,,,,,,,1.0341,,,,,,,,,,,,,,,,,,,,,,6100914955639de64ec75a58,61036e50cd475cdc97453beb,2021-07-29_23h13.49.747,Simcolourproject_2stim_asymm_v5,2020.2.10,MacIntel,60,61025ae37ef11b136ea224fe,,,,,,,,,286,29.5625,82.7734375,1,0,0,response1disk,,7,5.015625,9.5546875,1,0,0,rectangle,5.015625,9.5546875,1,0,0,5.015625,9.5546875,1,0,0,0,143,143,79,1,,,,,,,,
,,,,,,,,,,,,,FF,,,,,,,,0.4332,,,,,,,,,,,,,,,,,,,,,,6100914955639de64ec75a58,61036e50cd475cdc97453beb,2021-07-29_23h13.49.747,Simcolourproject_2stim_asymm_v5,2020.2.10,MacIntel,60,61025ae37ef11b136ea224fe,,,,,,,,,3371,30.90625,54.81640625,1,0,0,response1disk,,7,6.77734375,1.28125,1,0,0,rectangle,6.77734375,1.28125,1,0,0,6.77734375,1.28125,1,0,0,0,144,144,83,1,,,,,,,,
,,,,,,,,,,,,,FF,,,,,,,,0.416,,,,,,,,,,,,,,,,,,,,,,6100914955639de64ec75a58,61036e50cd475cdc97453beb,2021-07-29_23h13.49.747,Simcolourproject_2stim_asymm_v5,2020.2.10,MacIntel,60,61025ae37ef11b136ea224fe,,,,,,,,,1791,27.921875,53.48828125,1,0,0,response1disk,,7,6.8125,-7.828125,1,0,0,rectangle,6.8125,-7.828125,1,0,0,6.8125,-7.828125,1,0,0,0,145,145,159,1,,,,,,,,
,,,,,,,,,,,,,FF,,,,,,,,0.4334,,,,,,,,,,,,,,,,,,,,,,6100914955639de64ec75a58,61036e50cd475cdc97453beb,2021-07-29_23h13.49.747,Simcolourproject_2stim_asymm_v5,2020.2.10,MacIntel,60,61025ae37ef11b136ea224fe,,,,,,,,,2823,33.16796875,58.484375,1,0,0,response1disk,,7,10.6015625,2.3359375,1,0,0,rectangle,10.6015625,2.3359375,1,0,0,10.6015625,2.3359375,1,0,0,0,146,146,67,1,,,,,,,,
,,,,,,,,,,,,,FF,,,,,,,,0.666,,,,,,,,,,,,,,,,,,,,,,6100914955639de64ec75a58,61036e50cd475cdc97453beb,2021-07-29_23h13.49.747,Simcolourproject_2stim_asymm_v5,2020.2.10,MacIntel,60,61025ae37ef11b136ea224fe,,,,,,,,,4091,28.97265625,60.23046875,1,0,0,response1disk,,7,9.94921875,5.51953125,1,0,0,rectangle,9.94921875,5.51953125,1,0,0,9.94921875,5.51953125,1,0,0,0,147,147,64,1,,,,,,,,
,,,,,,,,,,,,,FF,,,,,,,,0.3846,,,,,,,,,,,,,,,,,,,,,,6100914955639de64ec75a58,61036e50cd475cdc97453beb,2021-07-29_23h13.49.747,Simcolourproject_2stim_asymm_v5,2020.2.10,MacIntel,60,61025ae37ef11b136ea224fe,,,,,,,,,2802,40.77734375,69.0390625,1,0,0,response1disk,,7,15.5390625,7.77734375,1,0,0,rectangle,15.5390625,7.77734375,1,0,0,15.5390625,7.77734375,1,0,0,0,148,148,1,1,,,,,,,,
,,,,,,,,,,,,,FF,,,,,,,,0.4333,,,,,,,,,,,,,,,,,,,,,,6100914955639de64ec75a58,61036e50cd475cdc97453beb,2021-07-29_23h13.49.747,Simcolourproject_2stim_asymm_v5,2020.2.10,MacIntel,60,61025ae37ef11b136ea224fe,,,,,,,,,4324,23.61328125,62.47265625,1,0,0,response1disk,,7,6.7890625,4.84375,1,0,0,rectangle,6.7890625,4.84375,1,0,0,6.7890625,4.84375,1,0,0,0,149,149,140,1,,,,,,,,
,,,,,,,,,,,,,FF,,,,,,,,0.5494,,,,,,,,,,,,,,,,,,,,,,6100914955639de64ec75a58,61036e50cd475cdc97453beb,2021-07-29_23h13.49.747,Simcolourproject_2stim_asymm_v5,2020.2.10,MacIntel,60,61025ae37ef11b136ea224fe,,,,,,,,,604,32.296875,76.546875,1,0,0,response1disk,,7,6.70703125,-3.07421875,1,0,0,rectangle,6.70703125,-3.07421875,1,0,0,6.70703125,-3.07421875,1,0,0,0,150,150,13,1,,,,,,,,
,,,,,,,,,,,,,FF,,,,,,,,0.5513,,,,,,,,,,,,,,,,,,,,,,6100914955639de64ec75a58,61036e50cd475cdc97453beb,2021-07-29_23h13.49.747,Simcolourproject_2stim_asymm_v5,2020.2.10,MacIntel,60,61025ae37ef11b136ea224fe,,,,,,,,,3544,34.203125,64.41015625,1,0,0,response1disk,,7,14.7578125,7.15625,1,0,0,rectangle,14.7578125,7.15625,1,0,0,14.7578125,7.15625,1,0,0,0,151,151,63,1,,,,,,,,
,,,,,,,,,,,,,FF,,,,,,,,0.5658,,,,,,,,,,,,,,,,,,,,,,6100914955639de64ec75a58,61036e50cd475cdc97453beb,2021-07-29_23h13.49.747,Simcolourproject_2stim_asymm_v5,2020.2.10,MacIntel,60,61025ae37ef11b136ea224fe,,,,,,,,,3971,30.703125,59.4296875,1,0,0,response1disk,,7,8.6484375,0.15234375,1,0,0,rectangle,8.6484375,0.15234375,1,0,0,8.6484375,0.15234375,1,0,0,0,152,152,85,1,,,,,,,,
,,,,,,,,,,,,,FF,,,,,,,,0.6159,,,,,,,,,,,,,,,,,,,,,,6100914955639de64ec75a58,61036e50cd475cdc97453beb,2021-07-29_23h13.49.747,Simcolourproject_2stim_asymm_v5,2020.2.10,MacIntel,60,61025ae37ef11b136ea224fe,,,,,,,,,189,32.73046875,58.125,1,0,0,response1disk,,7,20.20703125,9.0703125,1,0,0,rectangle,-76.23828125,38.7265625,1,0,0,-19.609375,3.35546875,1,0,0,0,153,153,78,1,,response7disk_3,TRUE,1,1,"[101,257,154,300,183,238,50,250,161,96,40,252,285,137,262,299,229,224,97,4]",1.6507,rectangle
,,,,,,,,,,,,,FF,,,,,,,,1.0163,,,,,,,,,,,,,,,,,,,,,,6100914955639de64ec75a58,61036e50cd475cdc97453beb,2021-07-29_23h13.49.747,Simcolourproject_2stim_asymm_v5,2020.2.10,MacIntel,60,61025ae37ef11b136ea224fe,,,,,,,,,3073,40.75390625,84.671875,1,0,0,response1disk,,7,4.44921875,-8.76171875,1,0,0,rectangle,4.44921875,-8.76171875,1,0,0,4.44921875,-8.76171875,1,0,0,0,154,154,56,1,,,,,,,,
,,,,,,,,,,,,,FF,,,,,,,,1.0004,,,,,,,,,,,,,,,,,,,,,,6100914955639de64ec75a58,61036e50cd475cdc97453beb,2021-07-29_23h13.49.747,Simcolourproject_2stim_asymm_v5,2020.2.10,MacIntel,60,61025ae37ef11b136ea224fe,,,,,,,,,2920,18.6640625,52.44140625,1,0,0,response1disk,,7,0.421875,5.234375,1,0,0,rectangle,0.421875,5.234375,1,0,0,0.421875,5.234375,1,0,0,0,155,155,124,1,,,,,,,,
,,,,,,,,,,,,,FF,,,,,,,,0.5501,,,,,,,,,,,,,,,,,,,,,,6100914955639de64ec75a58,61036e50cd475cdc97453beb,2021-07-29_23h13.49.747,Simcolourproject_2stim_asymm_v5,2020.2.10,MacIntel,60,61025ae37ef11b136ea224fe,,,,,,,,,3119,27.22265625,81.99609375,1,0,0,response1disk,,7,2.16796875,3.53125,1,0,0,rectangle,2.16796875,3.53125,1,0,0,2.16796875,3.53125,1,0,0,0,156,156,94,1,,,,,,,,
,,,,,,,,,,,,,FF,,,,,,,,0.7513,,,,,,,,,,,,,,,,,,,,,,6100914955639de64ec75a58,61036e50cd475cdc97453beb,2021-07-29_23h13.49.747,Simcolourproject_2stim_asymm_v5,2020.2.10,MacIntel,60,61025ae37ef11b136ea224fe,,,,,,,,,543,-39.3125,74.4453125,1,0,0,response7disk,,0,-13.01953125,3.53515625,1,0,0,rectangle,-13.01953125,3.53515625,1,0,0,-13.01953125,3.53515625,1,0,0,0,157,157,142,1,,,,,,,,
,,,,,,,,,,,,,FF,,,,,,,,0.4674,,,,,,,,,,,,,,,,,,,,,,6100914955639de64ec75a58,61036e50cd475cdc97453beb,2021-07-29_23h13.49.747,Simcolourproject_2stim_asymm_v5,2020.2.10,MacIntel,60,61025ae37ef11b136ea224fe,,,,,,,,,862,30.0859375,60.21484375,1,0,0,response1disk,,7,2.01171875,-2.5390625,1,0,0,rectangle,2.01171875,-2.5390625,1,0,0,2.01171875,-2.5390625,1,0,0,0,158,158,53,1,,,,,,,,
,,,,,,,,,,,,,FF,,,,,,,,0.7334,,,,,,,,,,,,,,,,,,,,,,6100914955639de64ec75a58,61036e50cd475cdc97453beb,2021-07-29_23h13.49.747,Simcolourproject_2stim_asymm_v5,2020.2.10,MacIntel,60,61025ae37ef11b136ea224fe,,,,,,,,,3744,-40.390625,79.7265625,1,0,0,response7disk,,0,2.640625,7,1,0,0,rectangle,2.640625,7,1,0,0,2.640625,7,1,0,0,0,159,159,42,1,,,,,,,,
,,,,,,,,,,,,,FF,,,,,,,,0.4659,,,,,,,,,,,,,,,,,,,,,,6100914955639de64ec75a58,61036e50cd475cdc97453beb,2021-07-29_23h13.49.747,Simcolourproject_2stim_asymm_v5,2020.2.10,MacIntel,60,61025ae37ef11b136ea224fe,,,,,,,,,2254,35.34375,78.4140625,1,0,0,response1disk,,7,-4.23046875,-8.2265625,1,0,0,rectangle,42.62109375,-75.24609375,1,0,0,6.9296875,12.8359375,1,0,0,1,0,160,55,1,,response3disk_3,TRUE,4,4,"[101,257,154,300,183,238,50,250,161,96,40,252,285,137,262,299,229,224,97,4]",2.0667,rectangle
,,,,,,,,,,,,,FF,,,,,,,,0.5498,,,,,,,,,,,,,,,,,,,,,,6100914955639de64ec75a58,61036e50cd475cdc97453beb,2021-07-29_23h13.49.747,Simcolourproject_2stim_asymm_v5,2020.2.10,MacIntel,60,61025ae37ef11b136ea224fe,,,,,,,,,2191,16.23828125,61.859375,1,0,0,response1disk,,7,3.171875,-0.13671875,1,0,0,rectangle,3.171875,-0.13671875,1,0,0,3.171875,-0.13671875,1,0,0,1,1,161,36,1,,,,,,,,
,,,,,,,,,,,,,FF,,,,,,,,0.9989,,,,,,,,,,,,,,,,,,,,,,6100914955639de64ec75a58,61036e50cd475cdc97453beb,2021-07-29_23h13.49.747,Simcolourproject_2stim_asymm_v5,2020.2.10,MacIntel,60,61025ae37ef11b136ea224fe,,,,,,,,,262,-34.56640625,66.0625,1,0,0,response7disk,,0,-15.18359375,-9.71484375,1,0,0,rectangle,-15.18359375,-9.71484375,1,0,0,-15.18359375,-9.71484375,1,0,0,1,2,162,38,1,,,,,,,,
,,,,,,,,,,,,,FF,,,,,,,,0.4497,,,,,,,,,,,,,,,,,,,,,,6100914955639de64ec75a58,61036e50cd475cdc97453beb,2021-07-29_23h13.49.747,Simcolourproject_2stim_asymm_v5,2020.2.10,MacIntel,60,61025ae37ef11b136ea224fe,,,,,,,,,2458,23.72265625,67.03515625,1,0,0,response1disk,,7,-2.44921875,5.75,1,0,0,rectangle,-2.44921875,5.75,1,0,0,-2.44921875,5.75,1,0,0,1,3,163,157,1,,,,,,,,
,,,,,,,,,,,,,FF,,,,,,,,0.583,,,,,,,,,,,,,,,,,,,,,,6100914955639de64ec75a58,61036e50cd475cdc97453beb,2021-07-29_23h13.49.747,Simcolourproject_2stim_asymm_v5,2020.2.10,MacIntel,60,61025ae37ef11b136ea224fe,,,,,,,,,1011,30.7421875,65.48046875,1,0,0,response1disk,,7,4.53125,8.76953125,1,0,0,rectangle,4.53125,8.76953125,1,0,0,4.53125,8.76953125,1,0,0,1,4,164,147,1,,,,,,,,
,,,,,,,,,,,,,FF,,,,,,,,1.2841,,,,,,,,,,,,,,,,,,,,,,6100914955639de64ec75a58,61036e50cd475cdc97453beb,2021-07-29_23h13.49.747,Simcolourproject_2stim_asymm_v5,2020.2.10,MacIntel,60,61025ae37ef11b136ea224fe,,,,,,,,,871,35.65625,84.671875,1,0,0,response1disk,,7,2.9609375,-11.3828125,1,0,0,rectangle,2.9609375,-11.3828125,1,0,0,2.9609375,-11.3828125,1,0,0,1,5,165,41,1,,,,,,,,
,,,,,,,,,,,,,FF,,,,,,,,0.5823,,,,,,,,,,,,,,,,,,,,,,6100914955639de64ec75a58,61036e50cd475cdc97453beb,2021-07-29_23h13.49.747,Simcolourproject_2stim_asymm_v5,2020.2.10,MacIntel,60,61025ae37ef11b136ea224fe,,,,,,,,,3817,26.859375,63.59375,1,0,0,response1disk,,7,-3.08203125,-7.69921875,1,0,0,rectangle,-3.08203125,-7.69921875,1,0,0,-3.08203125,-7.69921875,1,0,0,1,6,166,24,1,,,,,,,,
,,,,,,,,,,,,,FF,,,,,,,,0.384,,,,,,,,,,,,,,,,,,,,,,6100914955639de64ec75a58,61036e50cd475cdc97453beb,2021-07-29_23h13.49.747,Simcolourproject_2stim_asymm_v5,2020.2.10,MacIntel,60,61025ae37ef11b136ea224fe,,,,,,,,,662,27.46484375,61.58203125,1,0,0,response1disk,,7,16.33203125,-15.58984375,1,0,0,rectangle,16.33203125,-15.58984375,1,0,0,16.33203125,-15.58984375,1,0,0,1,7,167,8,1,,,,,,,,
,,,,,,,,,,,,,FF,,,,,,,,0.5839,,,,,,,,,,,,,,,,,,,,,,6100914955639de64ec75a58,61036e50cd475cdc97453beb,2021-07-29_23h13.49.747,Simcolourproject_2stim_asymm_v5,2020.2.10,MacIntel,60,61025ae37ef11b136ea224fe,,,,,,,,,2589,26.47265625,51.984375,1,0,0,response1disk,,7,18.04296875,-3.140625,1,0,0,rectangle,18.04296875,-3.140625,1,0,0,18.04296875,-3.140625,1,0,0,1,8,168,6,1,,,,,,,,
,,,,,,,,,,,,,FF,,,,,,,,0.4169,,,,,,,,,,,,,,,,,,,,,,6100914955639de64ec75a58,61036e50cd475cdc97453beb,2021-07-29_23h13.49.747,Simcolourproject_2stim_asymm_v5,2020.2.10,MacIntel,60,61025ae37ef11b136ea224fe,,,,,,,,,2395,36.29296875,58.36328125,1,0,0,response1disk,,7,11.546875,14.35546875,1,0,0,rectangle,11.546875,14.35546875,1,0,0,11.546875,14.35546875,1,0,0,1,9,169,21,1,,,,,,,,
,,,,,,,,,,,,,FF,,,,,,,,0.4002,,,,,,,,,,,,,,,,,,,,,,6100914955639de64ec75a58,61036e50cd475cdc97453beb,2021-07-29_23h13.49.747,Simcolourproject_2stim_asymm_v5,2020.2.10,MacIntel,60,61025ae37ef11b136ea224fe,,,,,,,,,1863,27.71875,54.3671875,1,0,0,response1disk,,7,2.23828125,6.12109375,1,0,0,rectangle,2.23828125,6.12109375,1,0,0,2.23828125,6.12109375,1,0,0,1,10,170,145,1,,,,,,,,
,,,,,,,,,,,,,FF,,,,,,,,0.8838,,,,,,,,,,,,,,,,,,,,,,6100914955639de64ec75a58,61036e50cd475cdc97453beb,2021-07-29_23h13.49.747,Simcolourproject_2stim_asymm_v5,2020.2.10,MacIntel,60,61025ae37ef11b136ea224fe,,,,,,,,,1005,29.14453125,49.5390625,1,0,0,response1disk,,7,-2.7109375,-5.08984375,1,0,0,rectangle,-2.7109375,-5.08984375,1,0,0,-2.7109375,-5.08984375,1,0,0,1,11,171,115,1,,,,,,,,
,,,,,,,,,,,,,FF,,,,,,,,0.8668,,,,,,,,,,,,,,,,,,,,,,6100914955639de64ec75a58,61036e50cd475cdc97453beb,2021-07-29_23h13.49.747,Simcolourproject_2stim_asymm_v5,2020.2.10,MacIntel,60,61025ae37ef11b136ea224fe,,,,,,,,,3573,20.7578125,50.55859375,1,0,0,response1disk,,7,-3.2734375,3.42578125,1,0,0,rectangle,-3.2734375,3.42578125,1,0,0,-3.2734375,3.42578125,1,0,0,1,12,172,152,1,,,,,,,,
,,,,,,,,,,,,,FF,,,,,,,,1.05,,,,,,,,,,,,,,,,,,,,,,6100914955639de64ec75a58,61036e50cd475cdc97453beb,2021-07-29_23h13.49.747,Simcolourproject_2stim_asymm_v5,2020.2.10,MacIntel,60,61025ae37ef11b136ea224fe,,,,,,,,,392,41.9921875,82.9921875,1,0,0,response1disk,,7,9.14453125,12.234375,1,0,0,rectangle,9.14453125,12.234375,1,0,0,9.14453125,12.234375,1,0,0,1,13,173,132,1,,,,,,,,
,,,,,,,,,,,,,FF,,,,,,,,0.9678,,,,,,,,,,,,,,,,,,,,,,6100914955639de64ec75a58,61036e50cd475cdc97453beb,2021-07-29_23h13.49.747,Simcolourproject_2stim_asymm_v5,2020.2.10,MacIntel,60,61025ae37ef11b136ea224fe,,,,,,,,,3518,26.37109375,65.16015625,1,0,0,response1disk,,7,1.0625,1.08984375,1,0,0,rectangle,1.0625,1.08984375,1,0,0,1.0625,1.08984375,1,0,0,1,14,174,127,1,,,,,,,,
,,,,,,,,,,,,,FF,,,,,,,,0.6829,,,,,,,,,,,,,,,,,,,,,,6100914955639de64ec75a58,61036e50cd475cdc97453beb,2021-07-29_23h13.49.747,Simcolourproject_2stim_asymm_v5,2020.2.10,MacIntel,60,61025ae37ef11b136ea224fe,,,,,,,,,2273,26.69921875,60.35546875,1,0,0,response1disk,,7,3.75390625,10.80859375,1,0,0,rectangle,3.75390625,10.80859375,1,0,0,3.75390625,10.80859375,1,0,0,1,15,175,34,1,,,,,,,,
,,,,,,,,,,,,,FF,,,,,,,,0.3993,,,,,,,,,,,,,,,,,,,,,,6100914955639de64ec75a58,61036e50cd475cdc97453beb,2021-07-29_23h13.49.747,Simcolourproject_2stim_asymm_v5,2020.2.10,MacIntel,60,61025ae37ef11b136ea224fe,,,,,,,,,2862,26.43359375,59.46875,1,0,0,response1disk,,7,11.55078125,1.50390625,1,0,0,rectangle,11.55078125,1.50390625,1,0,0,11.55078125,1.50390625,1,0,0,1,16,176,75,1,,,,,,,,
,,,,,,,,,,,,,FF,,,,,,,,0.3671,,,,,,,,,,,,,,,,,,,,,,6100914955639de64ec75a58,61036e50cd475cdc97453beb,2021-07-29_23h13.49.747,Simcolourproject_2stim_asymm_v5,2020.2.10,MacIntel,60,61025ae37ef11b136ea224fe,,,,,,,,,1835,35.89453125,54.765625,1,0,0,response1disk,,7,9.44921875,7.078125,1,0,0,rectangle,9.44921875,7.078125,1,0,0,9.44921875,7.078125,1,0,0,1,17,177,96,1,,,,,,,,
,,,,,,,,,,,,,FF,,,,,,,,0.3832,,,,,,,,,,,,,,,,,,,,,,6100914955639de64ec75a58,61036e50cd475cdc97453beb,2021-07-29_23h13.49.747,Simcolourproject_2stim_asymm_v5,2020.2.10,MacIntel,60,61025ae37ef11b136ea224fe,,,,,,,,,3795,41.3984375,79.8203125,1,0,0,response1disk,,7,5.40234375,5.82421875,1,0,0,rectangle,5.40234375,5.82421875,1,0,0,5.40234375,5.82421875,1,0,0,1,18,178,58,1,,,,,,,,
,,,,,,,,,,,,,FF,,,,,,,,0.4167,,,,,,,,,,,,,,,,,,,,,,6100914955639de64ec75a58,61036e50cd475cdc97453beb,2021-07-29_23h13.49.747,Simcolourproject_2stim_asymm_v5,2020.2.10,MacIntel,60,61025ae37ef11b136ea224fe,,,,,,,,,1407,38.8984375,72.94921875,1,0,0,response1disk,,7,-4.76953125,-10.2578125,1,0,0,rectangle,-4.76953125,-10.2578125,1,0,0,-4.76953125,-10.2578125,1,0,0,1,19,179,74,1,,,,,,,,
,,,,,,,,,,,,,FF,,,,,,,,0.7,,,,,,,,,,,,,,,,,,,,,,6100914955639de64ec75a58,61036e50cd475cdc97453beb,2021-07-29_23h13.49.747,Simcolourproject_2stim_asymm_v5,2020.2.10,MacIntel,60,61025ae37ef11b136ea224fe,,,,,,,,,1909,31.4609375,77.76171875,1,0,0,response1disk,,7,-1.12109375,-6.74609375,1,0,0,rectangle,-1.12109375,-6.74609375,1,0,0,-1.12109375,-6.74609375,1,0,0,1,20,180,9,1,,,,,,,,
,,,,,,,,,,,,,FF,,,,,,,,0.4843,,,,,,,,,,,,,,,,,,,,,,6100914955639de64ec75a58,61036e50cd475cdc97453beb,2021-07-29_23h13.49.747,Simcolourproject_2stim_asymm_v5,2020.2.10,MacIntel,60,61025ae37ef11b136ea224fe,,,,,,,,,677,34.0390625,48.00390625,1,0,0,response1disk,,7,6.22265625,-5.578125,1,0,0,rectangle,6.22265625,-5.578125,1,0,0,6.22265625,-5.578125,1,0,0,1,21,181,114,1,,,,,,,,
,,,,,,,,,,,,,FF,,,,,,,,0.4834,,,,,,,,,,,,,,,,,,,,,,6100914955639de64ec75a58,61036e50cd475cdc97453beb,2021-07-29_23h13.49.747,Simcolourproject_2stim_asymm_v5,2020.2.10,MacIntel,60,61025ae37ef11b136ea224fe,,,,,,,,,1221,32.14453125,67.21875,1,0,0,response1disk,,7,2.0625,-6.5546875,1,0,0,rectangle,-34.41796875,-83.625,1,0,0,4.8984375,-6.36328125,1,0,0,1,22,182,66,1,,response5disk_3,TRUE,3,3,"[101,257,154,300,183,238,50,250,161,96,40,252,285,137,262,299,229,224,97,4]",2.0668,rectangle
,,,,,,,,,,,,,FF,,,,,,,,0.3989,,,,,,,,,,,,,,,,,,,,,,6100914955639de64ec75a58,61036e50cd475cdc97453beb,2021-07-29_23h13.49.747,Simcolourproject_2stim_asymm_v5,2020.2.10,MacIntel,60,61025ae37ef11b136ea224fe,,,,,,,,,1621,30.21875,53.75390625,1,0,0,response1disk,,7,2.5625,3.38671875,1,0,0,rectangle,2.5625,3.38671875,1,0,0,2.5625,3.38671875,1,0,0,1,23,183,29,1,,,,,,,,
,,,,,,,,,,,,,FF,,,,,,,,0.4829,,,,,,,,,,,,,,,,,,,,,,6100914955639de64ec75a58,61036e50cd475cdc97453beb,2021-07-29_23h13.49.747,Simcolourproject_2stim_asymm_v5,2020.2.10,MacIntel,60,61025ae37ef11b136ea224fe,,,,,,,,,35,34.55859375,79.015625,1,0,0,response1disk,,7,5.16796875,2.90234375,1,0,0,rectangle,5.16796875,2.90234375,1,0,0,5.16796875,2.90234375,1,0,0,1,24,184,146,1,,,,,,,,
,,,,,,,,,,,,,FF,,,,,,,,0.7165,,,,,,,,,,,,,,,,,,,,,,6100914955639de64ec75a58,61036e50cd475cdc97453beb,2021-07-29_23h13.49.747,Simcolourproject_2stim_asymm_v5,2020.2.10,MacIntel,60,61025ae37ef11b136ea224fe,,,,,,,,,4225,-35.234375,72.12109375,1,0,0,response7disk,,0,-13.01171875,7.62890625,1,0,0,rectangle,-13.01171875,7.62890625,1,0,0,-13.01171875,7.62890625,1,0,0,1,25,185,103,1,,,,,,,,
,,,,,,,,,,,,,FF,,,,,,,,0.5159,,,,,,,,,,,,,,,,,,,,,,6100914955639de64ec75a58,61036e50cd475cdc97453beb,2021-07-29_23h13.49.747,Simcolourproject_2stim_asymm_v5,2020.2.10,MacIntel,60,61025ae37ef11b136ea224fe,,,,,,,,,142,38.7265625,83.19921875,1,0,0,response1disk,,7,1.01953125,-10.2734375,1,0,0,rectangle,1.01953125,-10.2734375,1,0,0,1.01953125,-10.2734375,1,0,0,1,26,186,138,1,,,,,,,,
,,,,,,,,,,,,,FF,,,,,,,,7.6328,,,,,,,,,,,,,,,,,,,,,,6100914955639de64ec75a58,61036e50cd475cdc97453beb,2021-07-29_23h13.49.747,Simcolourproject_2stim_asymm_v5,2020.2.10,MacIntel,60,61025ae37ef11b136ea224fe,,,,,,,,,2717,27.00390625,55.82421875,1,0,0,response1disk,,7,-4.08984375,-6.30078125,1,0,0,rectangle,-4.08984375,-6.30078125,1,0,0,-4.08984375,-6.30078125,1,0,0,1,27,187,109,1,,,,,,,,
,,,,,,,,,,,,,FF,,,,,,,,0.683,,,,,,,,,,,,,,,,,,,,,,6100914955639de64ec75a58,61036e50cd475cdc97453beb,2021-07-29_23h13.49.747,Simcolourproject_2stim_asymm_v5,2020.2.10,MacIntel,60,61025ae37ef11b136ea224fe,,,,,,,,,4359,21.85546875,61.5625,1,0,0,response1disk,,7,-0.4140625,-13.50390625,1,0,0,rectangle,-0.4140625,-13.50390625,1,0,0,-0.4140625,-13.50390625,1,0,0,1,28,188,106,1,,,,,,,,
,,,,,,,,,,,,,FF,,,,,,,,0.4329,,,,,,,,,,,,,,,,,,,,,,6100914955639de64ec75a58,61036e50cd475cdc97453beb,2021-07-29_23h13.49.747,Simcolourproject_2stim_asymm_v5,2020.2.10,MacIntel,60,61025ae37ef11b136ea224fe,,,,,,,,,435,26.1328125,55.84765625,1,0,0,response1disk,,7,8.76171875,4.12890625,1,0,0,rectangle,8.76171875,4.12890625,1,0,0,8.76171875,4.12890625,1,0,0,1,29,189,125,1,,,,,,,,
,,,,,,,,,,,,,FF,,,,,,,,0.4843,,,,,,,,,,,,,,,,,,,,,,6100914955639de64ec75a58,61036e50cd475cdc97453beb,2021-07-29_23h13.49.747,Simcolourproject_2stim_asymm_v5,2020.2.10,MacIntel,60,61025ae37ef11b136ea224fe,,,,,,,,,4215,29.125,67.2578125,1,0,0,response1disk,,7,-0.25,-3.73828125,1,0,0,rectangle,-0.25,-3.73828125,1,0,0,-0.25,-3.73828125,1,0,0,1,30,190,40,1,,,,,,,,
,,,,,,,,,,,,,FF,,,,,,,,0.4992,,,,,,,,,,,,,,,,,,,,,,6100914955639de64ec75a58,61036e50cd475cdc97453beb,2021-07-29_23h13.49.747,Simcolourproject_2stim_asymm_v5,2020.2.10,MacIntel,60,61025ae37ef11b136ea224fe,,,,,,,,,4213,25.30078125,60.640625,1,0,0,response1disk,,7,0.0703125,-5.21484375,1,0,0,rectangle,0.0703125,-5.21484375,1,0,0,0.0703125,-5.21484375,1,0,0,1,31,191,84,1,,,,,,,,
,,,,,,,,,,,,,FF,,,,,,,,0.6002,,,,,,,,,,,,,,,,,,,,,,6100914955639de64ec75a58,61036e50cd475cdc97453beb,2021-07-29_23h13.49.747,Simcolourproject_2stim_asymm_v5,2020.2.10,MacIntel,60,61025ae37ef11b136ea224fe,,,,,,,,,593,28.65625,69.03515625,1,0,0,response1disk,,7,5.90625,-6.99609375,1,0,0,rectangle,5.90625,-6.99609375,1,0,0,5.90625,-6.99609375,1,0,0,1,32,192,19,1,,,,,,,,
,,,,,,,,,,,,,FF,,,,,,,,0.6168,,,,,,,,,,,,,,,,,,,,,,6100914955639de64ec75a58,61036e50cd475cdc97453beb,2021-07-29_23h13.49.747,Simcolourproject_2stim_asymm_v5,2020.2.10,MacIntel,60,61025ae37ef11b136ea224fe,,,,,,,,,2405,27.5703125,50.6171875,1,0,0,response1disk,,7,5.04296875,-8.046875,1,0,0,rectangle,5.04296875,-8.046875,1,0,0,5.04296875,-8.046875,1,0,0,1,33,193,158,1,,,,,,,,
,,,,,,,,,,,,,FF,,,,,,,,0.5011,,,,,,,,,,,,,,,,,,,,,,6100914955639de64ec75a58,61036e50cd475cdc97453beb,2021-07-29_23h13.49.747,Simcolourproject_2stim_asymm_v5,2020.2.10,MacIntel,60,61025ae37ef11b136ea224fe,,,,,,,,,2277,31.29296875,54.1484375,1,0,0,response1disk,,7,10.203125,8.90625,1,0,0,rectangle,10.203125,8.90625,1,0,0,10.203125,8.90625,1,0,0,1,34,194,108,1,,,,,,,,
,,,,,,,,,,,,,FF,,,,,,,,0.3827,,,,,,,,,,,,,,,,,,,,,,6100914955639de64ec75a58,61036e50cd475cdc97453beb,2021-07-29_23h13.49.747,Simcolourproject_2stim_asymm_v5,2020.2.10,MacIntel,60,61025ae37ef11b136ea224fe,,,,,,,,,2400,39.2109375,83.296875,1,0,0,response1disk,,7,8.01953125,-3.44921875,1,0,0,rectangle,8.01953125,-3.44921875,1,0,0,8.01953125,-3.44921875,1,0,0,1,35,195,89,1,,,,,,,,
,,,,,,,,,,,,,FF,,,,,,,,0.4829,,,,,,,,,,,,,,,,,,,,,,6100914955639de64ec75a58,61036e50cd475cdc97453beb,2021-07-29_23h13.49.747,Simcolourproject_2stim_asymm_v5,2020.2.10,MacIntel,60,61025ae37ef11b136ea224fe,,,,,,,,,2052,27.34765625,70.20703125,1,0,0,response1disk,,7,2.546875,8.88671875,1,0,0,rectangle,2.546875,8.88671875,1,0,0,2.546875,8.88671875,1,0,0,1,36,196,118,1,,,,,,,,
,,,,,,,,,,,,,FF,,,,,,,,0.4998,,,,,,,,,,,,,,,,,,,,,,6100914955639de64ec75a58,61036e50cd475cdc97453beb,2021-07-29_23h13.49.747,Simcolourproject_2stim_asymm_v5,2020.2.10,MacIntel,60,61025ae37ef11b136ea224fe,,,,,,,,,2582,24.171875,68.55078125,1,0,0,response1disk,,7,-0.72265625,9.5,1,0,0,rectangle,-0.72265625,9.5,1,0,0,-0.72265625,9.5,1,0,0,1,37,197,154,1,,,,,,,,
,,,,,,,,,,,,,FF,,,,,,,,0.4503,,,,,,,,,,,,,,,,,,,,,,6100914955639de64ec75a58,61036e50cd475cdc97453beb,2021-07-29_23h13.49.747,Simcolourproject_2stim_asymm_v5,2020.2.10,MacIntel,60,61025ae37ef11b136ea224fe,,,,,,,,,3860,17.39453125,46.37890625,1,0,0,response1disk,,7,8.31640625,-0.43359375,1,0,0,rectangle,8.31640625,-0.43359375,1,0,0,8.31640625,-0.43359375,1,0,0,1,38,198,10,1,,,,,,,,
,,,,,,,,,,,,,FF,,,,,,,,0.6163,,,,,,,,,,,,,,,,,,,,,,6100914955639de64ec75a58,61036e50cd475cdc97453beb,2021-07-29_23h13.49.747,Simcolourproject_2stim_asymm_v5,2020.2.10,MacIntel,60,61025ae37ef11b136ea224fe,,,,,,,,,1013,25.47265625,46.625,1,0,0,response1disk,,7,5.875,-7.79296875,1,0,0,rectangle,5.875,-7.79296875,1,0,0,5.875,-7.79296875,1,0,0,1,39,199,143,1,,,,,,,,
,,,,,,,,,,,,,FF,,,,,,,,0.3997,,,,,,,,,,,,,,,,,,,,,,6100914955639de64ec75a58,61036e50cd475cdc97453beb,2021-07-29_23h13.49.747,Simcolourproject_2stim_asymm_v5,2020.2.10,MacIntel,60,61025ae37ef11b136ea224fe,,,,,,,,,1382,33.34765625,68.1640625,1,0,0,response1disk,,7,16.22265625,-6.859375,1,0,0,rectangle,16.22265625,-6.859375,1,0,0,16.22265625,-6.859375,1,0,0,1,40,200,93,1,,,,,,,,
,,,,,,,,,,,,,FF,,,,,,,,0.4166,,,,,,,,,,,,,,,,,,,,,,6100914955639de64ec75a58,61036e50cd475cdc97453beb,2021-07-29_23h13.49.747,Simcolourproject_2stim_asymm_v5,2020.2.10,MacIntel,60,61025ae37ef11b136ea224fe,,,,,,,,,1586,40.296875,54.71484375,1,0,0,response1disk,,7,13.5,11.21484375,1,0,0,rectangle,13.5,11.21484375,1,0,0,13.5,11.21484375,1,0,0,1,41,201,128,1,,,,,,,,
,,,,,,,,,,,,,FF,,,,,,,,0.5497,,,,,,,,,,,,,,,,,,,,,,6100914955639de64ec75a58,61036e50cd475cdc97453beb,2021-07-29_23h13.49.747,Simcolourproject_2stim_asymm_v5,2020.2.10,MacIntel,60,61025ae37ef11b136ea224fe,,,,,,,,,3722,35.0546875,72.2421875,1,0,0,response1disk,,7,13.2265625,10.31640625,1,0,0,rectangle,13.2265625,10.31640625,1,0,0,13.2265625,10.31640625,1,0,0,1,42,202,134,1,,,,,,,,
,,,,,,,,,,,,,FF,,,,,,,,0.9824,,,,,,,,,,,,,,,,,,,,,,6100914955639de64ec75a58,61036e50cd475cdc97453beb,2021-07-29_23h13.49.747,Simcolourproject_2stim_asymm_v5,2020.2.10,MacIntel,60,61025ae37ef11b136ea224fe,,,,,,,,,264,34.03125,63.73828125,1,0,0,response1disk,,7,4.3671875,5.2109375,1,0,0,rectangle,4.3671875,5.2109375,1,0,0,4.3671875,5.2109375,1,0,0,1,43,203,104,1,,,,,,,,
,,,,,,,,,,,,,FF,,,,,,,,0.6171,,,,,,,,,,,,,,,,,,,,,,6100914955639de64ec75a58,61036e50cd475cdc97453beb,2021-07-29_23h13.49.747,Simcolourproject_2stim_asymm_v5,2020.2.10,MacIntel,60,61025ae37ef11b136ea224fe,,,,,,,,,3993,-29.40625,76.296875,1,0,0,response7disk,,0,-15.6484375,11.1796875,1,0,0,rectangle,-15.6484375,11.1796875,1,0,0,-15.6484375,11.1796875,1,0,0,1,44,204,92,1,,,,,,,,
,,,,,,,,,,,,,FF,,,,,,,,0.4491,,,,,,,,,,,,,,,,,,,,,,6100914955639de64ec75a58,61036e50cd475cdc97453beb,2021-07-29_23h13.49.747,Simcolourproject_2stim_asymm_v5,2020.2.10,MacIntel,60,61025ae37ef11b136ea224fe,,,,,,,,,2710,27.30078125,59.59765625,1,0,0,response1disk,,7,-1.05859375,7.2890625,1,0,0,rectangle,-1.05859375,7.2890625,1,0,0,-1.05859375,7.2890625,1,0,0,1,45,205,112,1,,,,,,,,
,,,,,,,,,,,,,FF,,,,,,,,1.1844,,,,,,,,,,,,,,,,,,,,,,6100914955639de64ec75a58,61036e50cd475cdc97453beb,2021-07-29_23h13.49.747,Simcolourproject_2stim_asymm_v5,2020.2.10,MacIntel,60,61025ae37ef11b136ea224fe,,,,,,,,,702,38.796875,79.765625,1,0,0,response1disk,,7,5.0546875,7.6328125,1,0,0,rectangle,5.0546875,7.6328125,1,0,0,5.0546875,7.6328125,1,0,0,1,46,206,73,1,,,,,,,,
,,,,,,,,,,,,,FF,,,,,,,,0.4332,,,,,,,,,,,,,,,,,,,,,,6100914955639de64ec75a58,61036e50cd475cdc97453beb,2021-07-29_23h13.49.747,Simcolourproject_2stim_asymm_v5,2020.2.10,MacIntel,60,61025ae37ef11b136ea224fe,,,,,,,,,3003,17.453125,57.42578125,1,0,0,response1disk,,7,3.98828125,-6.00390625,1,0,0,rectangle,3.98828125,-6.00390625,1,0,0,3.98828125,-6.00390625,1,0,0,1,47,207,133,1,,,,,,,,
,,,,,,,,,,,,,FF,,,,,,,,0.4491,,,,,,,,,,,,,,,,,,,,,,6100914955639de64ec75a58,61036e50cd475cdc97453beb,2021-07-29_23h13.49.747,Simcolourproject_2stim_asymm_v5,2020.2.10,MacIntel,60,61025ae37ef11b136ea224fe,,,,,,,,,2618,42.1796875,67.078125,1,0,0,response1disk,,7,10.42578125,4.03515625,1,0,0,rectangle,10.42578125,4.03515625,1,0,0,10.42578125,4.03515625,1,0,0,1,48,208,65,1,,,,,,,,
,,,,,,,,,,,,,FF,,,,,,,,0.45,,,,,,,,,,,,,,,,,,,,,,6100914955639de64ec75a58,61036e50cd475cdc97453beb,2021-07-29_23h13.49.747,Simcolourproject_2stim_asymm_v5,2020.2.10,MacIntel,60,61025ae37ef11b136ea224fe,,,,,,,,,1053,43.76953125,80.62890625,1,0,0,response1disk,,7,-20.18359375,11.828125,1,0,0,rectangle,-20.18359375,11.828125,1,0,0,-20.18359375,11.828125,1,0,0,1,49,209,126,1,,,,,,,,
,,,,,,,,,,,,,FF,,,,,,,,0.6168,,,,,,,,,,,,,,,,,,,,,,6100914955639de64ec75a58,61036e50cd475cdc97453beb,2021-07-29_23h13.49.747,Simcolourproject_2stim_asymm_v5,2020.2.10,MacIntel,60,61025ae37ef11b136ea224fe,,,,,,,,,1327,34.2109375,88.21484375,1,0,0,response1disk,,7,0.96484375,-10.83984375,1,0,0,rectangle,0.96484375,-10.83984375,1,0,0,0.96484375,-10.83984375,1,0,0,1,50,210,7,1,,,,,,,,
,,,,,,,,,,,,,FF,,,,,,,,0.5498,,,,,,,,,,,,,,,,,,,,,,6100914955639de64ec75a58,61036e50cd475cdc97453beb,2021-07-29_23h13.49.747,Simcolourproject_2stim_asymm_v5,2020.2.10,MacIntel,60,61025ae37ef11b136ea224fe,,,,,,,,,2788,27.3515625,74.44140625,1,0,0,response1disk,,7,1.6796875,8.3125,1,0,0,rectangle,1.6796875,8.3125,1,0,0,1.6796875,8.3125,1,0,0,1,51,211,113,1,,,,,,,,
,,,,,,,,,,,,,FF,,,,,,,,0.4341,,,,,,,,,,,,,,,,,,,,,,6100914955639de64ec75a58,61036e50cd475cdc97453beb,2021-07-29_23h13.49.747,Simcolourproject_2stim_asymm_v5,2020.2.10,MacIntel,60,61025ae37ef11b136ea224fe,,,,,,,,,2588,33.54296875,79.453125,1,0,0,response1disk,,7,11.11328125,16.5,1,0,0,rectangle,11.11328125,16.5,1,0,0,11.11328125,16.5,1,0,0,1,52,212,83,1,,,,,,,,
,,,,,,,,,,,,,FF,,,,,,,,0.4166,,,,,,,,,,,,,,,,,,,,,,6100914955639de64ec75a58,61036e50cd475cdc97453beb,2021-07-29_23h13.49.747,Simcolourproject_2stim_asymm_v5,2020.2.10,MacIntel,60,61025ae37ef11b136ea224fe,,,,,,,,,4232,35.3671875,69.62890625,1,0,0,response1disk,,7,5.40625,14.44140625,1,0,0,rectangle,5.40625,14.44140625,1,0,0,5.40625,14.44140625,1,0,0,1,53,213,18,1,,,,,,,,
,,,,,,,,,,,,,FF,,,,,,,,0.4163,,,,,,,,,,,,,,,,,,,,,,6100914955639de64ec75a58,61036e50cd475cdc97453beb,2021-07-29_23h13.49.747,Simcolourproject_2stim_asymm_v5,2020.2.10,MacIntel,60,61025ae37ef11b136ea224fe,,,,,,,,,655,33.6484375,77.5625,1,0,0,response1disk,,7,11.2890625,4.8984375,1,0,0,rectangle,11.2890625,4.8984375,1,0,0,11.2890625,4.8984375,1,0,0,1,54,214,105,1,,,,,,,,
,,,,,,,,,,,,,FF,,,,,,,,0.5328,,,,,,,,,,,,,,,,,,,,,,6100914955639de64ec75a58,61036e50cd475cdc97453beb,2021-07-29_23h13.49.747,Simcolourproject_2stim_asymm_v5,2020.2.10,MacIntel,60,61025ae37ef11b136ea224fe,,,,,,,,,1427,23.6953125,67.49609375,1,0,0,response1disk,,7,-5.546875,-1.640625,1,0,0,rectangle,-5.546875,-1.640625,1,0,0,-5.546875,-1.640625,1,0,0,1,55,215,62,1,,,,,,,,
,,,,,,,,,,,,,FF,,,,,,,,0.3991,,,,,,,,,,,,,,,,,,,,,,6100914955639de64ec75a58,61036e50cd475cdc97453beb,2021-07-29_23h13.49.747,Simcolourproject_2stim_asymm_v5,2020.2.10,MacIntel,60,61025ae37ef11b136ea224fe,,,,,,,,,880,25.36328125,61.37890625,1,0,0,response1disk,,7,1.56640625,-2.30078125,1,0,0,rectangle,1.56640625,-2.30078125,1,0,0,1.56640625,-2.30078125,1,0,0,1,56,216,91,1,,,,,,,,
,,,,,,,,,,,,,FF,,,,,,,,0.4673,,,,,,,,,,,,,,,,,,,,,,6100914955639de64ec75a58,61036e50cd475cdc97453beb,2021-07-29_23h13.49.747,Simcolourproject_2stim_asymm_v5,2020.2.10,MacIntel,60,61025ae37ef11b136ea224fe,,,,,,,,,2785,34.5,69.84375,1,0,0,response1disk,,7,3.10546875,-12.57421875,1,0,0,rectangle,3.10546875,-12.57421875,1,0,0,3.10546875,-12.57421875,1,0,0,1,57,217,32,1,,,,,,,,
,,,,,,,,,,,,,FF,,,,,,,,0.3996,,,,,,,,,,,,,,,,,,,,,,6100914955639de64ec75a58,61036e50cd475cdc97453beb,2021-07-29_23h13.49.747,Simcolourproject_2stim_asymm_v5,2020.2.10,MacIntel,60,61025ae37ef11b136ea224fe,,,,,,,,,2809,38.78125,79.25,1,0,0,response1disk,,7,17.89453125,11.2265625,1,0,0,rectangle,17.89453125,11.2265625,1,0,0,17.89453125,11.2265625,1,0,0,1,58,218,82,1,,,,,,,,
,,,,,,,,,,,,,FF,,,,,,,,0.3666,,,,,,,,,,,,,,,,,,,,,,6100914955639de64ec75a58,61036e50cd475cdc97453beb,2021-07-29_23h13.49.747,Simcolourproject_2stim_asymm_v5,2020.2.10,MacIntel,60,61025ae37ef11b136ea224fe,,,,,,,,,757,34.171875,74.24609375,1,0,0,response1disk,,7,4.15625,2.703125,1,0,0,rectangle,4.15625,2.703125,1,0,0,4.15625,2.703125,1,0,0,1,59,219,54,1,,,,,,,,
,,,,,,,,,,,,,FF,,,,,,,,0.5001,,,,,,,,,,,,,,,,,,,,,,6100914955639de64ec75a58,61036e50cd475cdc97453beb,2021-07-29_23h13.49.747,Simcolourproject_2stim_asymm_v5,2020.2.10,MacIntel,60,61025ae37ef11b136ea224fe,,,,,,,,,1392,29.84375,68.25390625,1,0,0,response1disk,,7,17.53125,3.81640625,1,0,0,rectangle,17.53125,3.81640625,1,0,0,17.53125,3.81640625,1,0,0,1,60,220,70,1,,,,,,,,
,,,,,,,,,,,,,FF,,,,,,,,0.4827,,,,,,,,,,,,,,,,,,,,,,6100914955639de64ec75a58,61036e50cd475cdc97453beb,2021-07-29_23h13.49.747,Simcolourproject_2stim_asymm_v5,2020.2.10,MacIntel,60,61025ae37ef11b136ea224fe,,,,,,,,,1681,38.85546875,71.51171875,1,0,0,response1disk,,7,16.7265625,15.1484375,1,0,0,rectangle,16.7265625,15.1484375,1,0,0,16.7265625,15.1484375,1,0,0,1,61,221,46,1,,,,,,,,
,,,,,,,,,,,,,FF,,,,,,,,0.3833,,,,,,,,,,,,,,,,,,,,,,6100914955639de64ec75a58,61036e50cd475cdc97453beb,2021-07-29_23h13.49.747,Simcolourproject_2stim_asymm_v5,2020.2.10,MacIntel,60,61025ae37ef11b136ea224fe,,,,,,,,,3444,26.75,68.37109375,1,0,0,response1disk,,7,14.90625,-4.55078125,1,0,0,rectangle,14.90625,-4.55078125,1,0,0,14.90625,-4.55078125,1,0,0,1,62,222,110,1,,,,,,,,
,,,,,,,,,,,,,FF,,,,,,,,0.4664,,,,,,,,,,,,,,,,,,,,,,6100914955639de64ec75a58,61036e50cd475cdc97453beb,2021-07-29_23h13.49.747,Simcolourproject_2stim_asymm_v5,2020.2.10,MacIntel,60,61025ae37ef11b136ea224fe,,,,,,,,,712,29.5,49.84765625,1,0,0,response1disk,,7,7.796875,-4.6640625,1,0,0,rectangle,-96.6953125,-38.48828125,1,0,0,-18.45703125,11.01953125,1,0,0,1,63,223,121,1,,response5disk_3,TRUE,2,2,"[101,257,154,300,183,238,50,250,161,96,40,252,285,137,262,299,229,224,97,4]",1.7507,rectangle
,,,,,,,,,,,,,FF,,,,,,,,0.6497,,,,,,,,,,,,,,,,,,,,,,6100914955639de64ec75a58,61036e50cd475cdc97453beb,2021-07-29_23h13.49.747,Simcolourproject_2stim_asymm_v5,2020.2.10,MacIntel,60,61025ae37ef11b136ea224fe,,,,,,,,,3244,-31.2578125,53.10546875,1,0,0,response7disk,,0,-29.40625,1.37109375,1,0,0,rectangle,-29.40625,1.37109375,1,0,0,-29.40625,1.37109375,1,0,0,1,64,224,137,1,,,,,,,,
,,,,,,,,,,,,,FF,,,,,,,,0.6666,,,,,,,,,,,,,,,,,,,,,,6100914955639de64ec75a58,61036e50cd475cdc97453beb,2021-07-29_23h13.49.747,Simcolourproject_2stim_asymm_v5,2020.2.10,MacIntel,60,61025ae37ef11b136ea224fe,,,,,,,,,2751,31.72265625,72.53515625,1,0,0,response1disk,,7,-6.36328125,-4.48828125,1,0,0,rectangle,-6.36328125,-4.48828125,1,0,0,-6.36328125,-4.48828125,1,0,0,1,65,225,99,1,,,,,,,,
,,,,,,,,,,,,,FF,,,,,,,,0.5345,,,,,,,,,,,,,,,,,,,,,,6100914955639de64ec75a58,61036e50cd475cdc97453beb,2021-07-29_23h13.49.747,Simcolourproject_2stim_asymm_v5,2020.2.10,MacIntel,60,61025ae37ef11b136ea224fe,,,,,,,,,2800,25.7421875,44.19140625,1,0,0,response1disk,,7,5.9453125,0.8671875,1,0,0,rectangle,5.9453125,0.8671875,1,0,0,5.9453125,0.8671875,1,0,0,1,66,226,90,1,,,,,,,,
,,,,,,,,,,,,,FF,,,,,,,,0.433,,,,,,,,,,,,,,,,,,,,,,6100914955639de64ec75a58,61036e50cd475cdc97453beb,2021-07-29_23h13.49.747,Simcolourproject_2stim_asymm_v5,2020.2.10,MacIntel,60,61025ae37ef11b136ea224fe,,,,,,,,,2443,31.78125,64.640625,1,0,0,response1disk,,7,-0.8046875,-0.21484375,1,0,0,rectangle,-0.8046875,-0.21484375,1,0,0,-0.8046875,-0.21484375,1,0,0,1,67,227,120,1,,,,,,,,
,,,,,,,,,,,,,FF,,,,,,,,1.1155,,,,,,,,,,,,,,,,,,,,,,6100914955639de64ec75a58,61036e50cd475cdc97453beb,2021-07-29_23h13.49.747,Simcolourproject_2stim_asymm_v5,2020.2.10,MacIntel,60,61025ae37ef11b136ea224fe,,,,,,,,,3910,-23.328125,47.84765625,1,0,0,response7disk,,0,-7.43359375,5.2109375,1,0,0,rectangle,42.66015625,79.015625,1,0,0,-5.2265625,-15.9375,1,0,0,1,68,228,130,1,,response1disk_3,TRUE,7,1,"[101,257,154,300,183,238,50,250,161,96,40,252,285,137,262,299,229,224,97,4]",1.1672,rectangle
,,,,,,,,,,,,,FF,,,,,,,,2.3494,,,,,,,,,,,,,,,,,,,,,,6100914955639de64ec75a58,61036e50cd475cdc97453beb,2021-07-29_23h13.49.747,Simcolourproject_2stim_asymm_v5,2020.2.10,MacIntel,60,61025ae37ef11b136ea224fe,,,,,,,,,317,38.6953125,75.6796875,1,0,0,response1disk,,7,12.1328125,5.52734375,1,0,0,rectangle,12.1328125,5.52734375,1,0,0,12.1328125,5.52734375,1,0,0,1,69,229,57,1,,,,,,,,
,,,,,,,,,,,,,FF,,,,,,,,0.4668,,,,,,,,,,,,,,,,,,,,,,6100914955639de64ec75a58,61036e50cd475cdc97453beb,2021-07-29_23h13.49.747,Simcolourproject_2stim_asymm_v5,2020.2.10,MacIntel,60,61025ae37ef11b136ea224fe,,,,,,,,,2290,30.13671875,68.07421875,1,0,0,response1disk,,7,-3.66015625,-5.26171875,1,0,0,rectangle,-3.66015625,-5.26171875,1,0,0,-3.66015625,-5.26171875,1,0,0,1,70,230,30,1,,,,,,,,
,,,,,,,,,,,,,FF,,,,,,,,1.3007,,,,,,,,,,,,,,,,,,,,,,6100914955639de64ec75a58,61036e50cd475cdc97453beb,2021-07-29_23h13.49.747,Simcolourproject_2stim_asymm_v5,2020.2.10,MacIntel,60,61025ae37ef11b136ea224fe,,,,,,,,,1218,39.6640625,81.609375,1,0,0,response1disk,,7,7.61328125,10.23828125,1,0,0,rectangle,7.61328125,10.23828125,1,0,0,7.61328125,10.23828125,1,0,0,1,71,231,69,1,,,,,,,,
,,,,,,,,,,,,,FF,,,,,,,,0.9332,,,,,,,,,,,,,,,,,,,,,,6100914955639de64ec75a58,61036e50cd475cdc97453beb,2021-07-29_23h13.49.747,Simcolourproject_2stim_asymm_v5,2020.2.10,MacIntel,60,61025ae37ef11b136ea224fe,,,,,,,,,3746,-27.8125,74.12109375,1,0,0,response7disk,,0,-10.36328125,12.90234375,1,0,0,rectangle,-10.36328125,12.90234375,1,0,0,-10.36328125,12.90234375,1,0,0,1,72,232,80,1,,,,,,,,
,,,,,,,,,,,,,FF,,,,,,,,1.2339,,,,,,,,,,,,,,,,,,,,,,6100914955639de64ec75a58,61036e50cd475cdc97453beb,2021-07-29_23h13.49.747,Simcolourproject_2stim_asymm_v5,2020.2.10,MacIntel,60,61025ae37ef11b136ea224fe,,,,,,,,,1430,21.1875,76.88671875,1,0,0,response1disk,,7,-6.328125,10.56640625,1,0,0,rectangle,-6.328125,10.56640625,1,0,0,-6.328125,10.56640625,1,0,0,1,73,233,71,1,,,,,,,,
,,,,,,,,,,,,,FF,,,,,,,,0.4222,,,,,,,,,,,,,,,,,,,,,,6100914955639de64ec75a58,61036e50cd475cdc97453beb,2021-07-29_23h13.49.747,Simcolourproject_2stim_asymm_v5,2020.2.10,MacIntel,60,61025ae37ef11b136ea224fe,,,,,,,,,572,20.77734375,61.46875,1,0,0,response1disk,,7,-2.39453125,-5.984375,1,0,0,rectangle,-2.39453125,-5.984375,1,0,0,-2.39453125,-5.984375,1,0,0,1,74,234,56,1,,,,,,,,
,,,,,,,,,,,,,FF,,,,,,,,0.5328,,,,,,,,,,,,,,,,,,,,,,6100914955639de64ec75a58,61036e50cd475cdc97453beb,2021-07-29_23h13.49.747,Simcolourproject_2stim_asymm_v5,2020.2.10,MacIntel,60,61025ae37ef11b136ea224fe,,,,,,,,,1857,29.78125,65.4296875,1,0,0,response1disk,,7,-2.7890625,12.19140625,1,0,0,rectangle,-2.7890625,12.19140625,1,0,0,-2.7890625,12.19140625,1,0,0,1,75,235,98,1,,,,,,,,
,,,,,,,,,,,,,FF,,,,,,,,0.5332,,,,,,,,,,,,,,,,,,,,,,6100914955639de64ec75a58,61036e50cd475cdc97453beb,2021-07-29_23h13.49.747,Simcolourproject_2stim_asymm_v5,2020.2.10,MacIntel,60,61025ae37ef11b136ea224fe,,,,,,,,,2680,35.17578125,87.83203125,1,0,0,response1disk,,7,-0.53515625,-8.26953125,1,0,0,rectangle,-0.53515625,-8.26953125,1,0,0,-0.53515625,-8.26953125,1,0,0,1,76,236,0,1,,,,,,,,
,,,,,,,,,,,,,FF,,,,,,,,0.4159,,,,,,,,,,,,,,,,,,,,,,6100914955639de64ec75a58,61036e50cd475cdc97453beb,2021-07-29_23h13.49.747,Simcolourproject_2stim_asymm_v5,2020.2.10,MacIntel,60,61025ae37ef11b136ea224fe,,,,,,,,,116,31.84375,63.44140625,1,0,0,response1disk,,7,1.29296875,0.79296875,1,0,0,rectangle,-91.734375,-39.09375,1,0,0,-11.1328125,-3.25390625,1,0,0,1,77,237,142,1,,response5disk_3,TRUE,2,2,"[101,257,154,300,183,238,50,250,161,96,40,252,285,137,262,299,229,224,97,4]",1.9343,rectangle
,,,,,,,,,,,,,FF,,,,,,,,0.6678,,,,,,,,,,,,,,,,,,,,,,6100914955639de64ec75a58,61036e50cd475cdc97453beb,2021-07-29_23h13.49.747,Simcolourproject_2stim_asymm_v5,2020.2.10,MacIntel,60,61025ae37ef11b136ea224fe,,,,,,,,,1360,37.77734375,106.8554688,1,0,0,response1disk,,7,0.83203125,12.19921875,1,0,0,rectangle,0.83203125,12.19921875,1,0,0,0.83203125,12.19921875,1,0,0,1,78,238,119,1,,,,,,,,
,,,,,,,,,,,,,FF,,,,,,,,1.6323,,,,,,,,,,,,,,,,,,,,,,6100914955639de64ec75a58,61036e50cd475cdc97453beb,2021-07-29_23h13.49.747,Simcolourproject_2stim_asymm_v5,2020.2.10,MacIntel,60,61025ae37ef11b136ea224fe,,,,,,,,,735,26.1953125,64.80859375,1,0,0,response1disk,,7,-11.30078125,0.18359375,1,0,0,rectangle,-11.30078125,0.18359375,1,0,0,-11.30078125,0.18359375,1,0,0,1,79,239,28,1,,,,,,,,
,,,,,,,,,,,,,FF,,,,,,,,0.5172,,,,,,,,,,,,,,,,,,,,,,6100914955639de64ec75a58,61036e50cd475cdc97453beb,2021-07-29_23h13.49.747,Simcolourproject_2stim_asymm_v5,2020.2.10,MacIntel,60,61025ae37ef11b136ea224fe,,,,,,,,,230,30.890625,60.40625,1,0,0,response1disk,,7,-4.45703125,-0.0703125,1,0,0,rectangle,-4.45703125,-0.0703125,1,0,0,-4.45703125,-0.0703125,1,0,0,1,80,240,48,1,,,,,,,,
,,,,,,,,,,,,,FF,,,,,,,,0.3997,,,,,,,,,,,,,,,,,,,,,,6100914955639de64ec75a58,61036e50cd475cdc97453beb,2021-07-29_23h13.49.747,Simcolourproject_2stim_asymm_v5,2020.2.10,MacIntel,60,61025ae37ef11b136ea224fe,,,,,,,,,638,29.7578125,57.70703125,1,0,0,response1disk,,7,6.73046875,-2.28125,1,0,0,rectangle,6.73046875,-2.28125,1,0,0,6.73046875,-2.28125,1,0,0,1,81,241,131,1,,,,,,,,
,,,,,,,,,,,,,FF,,,,,,,,0.4004,,,,,,,,,,,,,,,,,,,,,,6100914955639de64ec75a58,61036e50cd475cdc97453beb,2021-07-29_23h13.49.747,Simcolourproject_2stim_asymm_v5,2020.2.10,MacIntel,60,61025ae37ef11b136ea224fe,,,,,,,,,1446,39.9609375,64.87109375,1,0,0,response1disk,,7,5.18359375,-4.546875,1,0,0,rectangle,5.18359375,-4.546875,1,0,0,5.18359375,-4.546875,1,0,0,1,82,242,63,1,,,,,,,,
,,,,,,,,,,,,,FF,,,,,,,,0.4835,,,,,,,,,,,,,,,,,,,,,,6100914955639de64ec75a58,61036e50cd475cdc97453beb,2021-07-29_23h13.49.747,Simcolourproject_2stim_asymm_v5,2020.2.10,MacIntel,60,61025ae37ef11b136ea224fe,,,,,,,,,1492,25.23046875,53.75,1,0,0,response1disk,,7,3.34375,-5.29296875,1,0,0,rectangle,3.34375,-5.29296875,1,0,0,3.34375,-5.29296875,1,0,0,1,83,243,153,1,,,,,,,,
,,,,,,,,,,,,,FF,,,,,,,,0.4836,,,,,,,,,,,,,,,,,,,,,,6100914955639de64ec75a58,61036e50cd475cdc97453beb,2021-07-29_23h13.49.747,Simcolourproject_2stim_asymm_v5,2020.2.10,MacIntel,60,61025ae37ef11b136ea224fe,,,,,,,,,3951,30.19140625,67.09375,1,0,0,response1disk,,7,7.3046875,16.3828125,1,0,0,rectangle,7.3046875,16.3828125,1,0,0,7.3046875,16.3828125,1,0,0,1,84,244,102,1,,,,,,,,
,,,,,,,,,,,,,FF,,,,,,,,0.4672,,,,,,,,,,,,,,,,,,,,,,6100914955639de64ec75a58,61036e50cd475cdc97453beb,2021-07-29_23h13.49.747,Simcolourproject_2stim_asymm_v5,2020.2.10,MacIntel,60,61025ae37ef11b136ea224fe,,,,,,,,,875,32.828125,77.5234375,1,0,0,response1disk,,7,-0.234375,-1.17578125,1,0,0,rectangle,-0.234375,-1.17578125,1,0,0,-0.234375,-1.17578125,1,0,0,1,85,245,159,1,,,,,,,,
,,,,,,,,,,,,,FF,,,,,,,,0.4828,,,,,,,,,,,,,,,,,,,,,,6100914955639de64ec75a58,61036e50cd475cdc97453beb,2021-07-29_23h13.49.747,Simcolourproject_2stim_asymm_v5,2020.2.10,MacIntel,60,61025ae37ef11b136ea224fe,,,,,,,,,3024,24.83203125,56.16796875,1,0,0,response1disk,,7,4.171875,-1.08984375,1,0,0,rectangle,4.171875,-1.08984375,1,0,0,4.171875,-1.08984375,1,0,0,1,86,246,100,1,,,,,,,,
,,,,,,,,,,,,,FF,,,,,,,,0.467,,,,,,,,,,,,,,,,,,,,,,6100914955639de64ec75a58,61036e50cd475cdc97453beb,2021-07-29_23h13.49.747,Simcolourproject_2stim_asymm_v5,2020.2.10,MacIntel,60,61025ae37ef11b136ea224fe,,,,,,,,,1634,32.296875,72.40625,1,0,0,response1disk,,7,5.1640625,6.046875,1,0,0,rectangle,5.1640625,6.046875,1,0,0,5.1640625,6.046875,1,0,0,1,87,247,39,1,,,,,,,,
,,,,,,,,,,,,,FF,,,,,,,,0.5004,,,,,,,,,,,,,,,,,,,,,,6100914955639de64ec75a58,61036e50cd475cdc97453beb,2021-07-29_23h13.49.747,Simcolourproject_2stim_asymm_v5,2020.2.10,MacIntel,60,61025ae37ef11b136ea224fe,,,,,,,,,2591,38.31640625,76.890625,1,0,0,response1disk,,7,2.9609375,-11.9375,1,0,0,rectangle,2.9609375,-11.9375,1,0,0,2.9609375,-11.9375,1,0,0,1,88,248,76,1,,,,,,,,
,,,,,,,,,,,,,FF,,,,,,,,0.4844,,,,,,,,,,,,,,,,,,,,,,6100914955639de64ec75a58,61036e50cd475cdc97453beb,2021-07-29_23h13.49.747,Simcolourproject_2stim_asymm_v5,2020.2.10,MacIntel,60,61025ae37ef11b136ea224fe,,,,,,,,,1476,25.81640625,56.73046875,1,0,0,response1disk,,7,9.30859375,-1.11328125,1,0,0,rectangle,-44.73828125,84.87890625,1,0,0,-11.328125,-0.15234375,1,0,0,1,89,249,139,1,,response7disk_3,TRUE,0,0,"[101,257,154,300,183,238,50,250,161,96,40,252,285,137,262,299,229,224,97,4]",1.8336,rectangle
