key_resp.keys,key_resp.rt,key_resp_14.keys,key_resp_14.rt,key_resp_15.keys,key_resp_15.rt,key_resp_17.keys,key_resp_17.rt,key_resp_9.keys,key_resp_9.rt,key_resp_10.keys,key_resp_10.rt,practice_comparison,Ecc,mouse_5.x,mouse_5.y,mouse_5.leftButton,mouse_5.midButton,mouse_5.rightButton,mouse_5.clicked_name,pracsimilarity,response_time,mouse_10.x,mouse_10.y,mouse_10.leftButton,mouse_10.midButton,mouse_10.rightButton,mouse_10.clicked_name,mouse_7.x,mouse_7.y,mouse_7.leftButton,mouse_7.midButton,mouse_7.rightButton,mouse_6.x,mouse_6.y,mouse_6.leftButton,mouse_6.midButton,mouse_6.rightButton,duringprac.thisRepN,duringprac.thisTrialN,duringprac.thisN,duringprac.thisIndex,duringprac.ran,participant,session,date,expName,psychopyVersion,OS,frameRate,study_id,mouse_7.clicked_name,catchpracsimilarity,catch_response_time,catchnumberprac,catchtrialorderprac,mouse_6.clicked_name,key_resp_22.keys,key_resp_22.rt,realcomparison,mouse.x,mouse.y,mouse.leftButton,mouse.midButton,mouse.rightButton,mouse.clicked_name,Colour2,similarity,mouse_2.x,mouse_2.y,mouse_2.leftButton,mouse_2.midButton,mouse_2.rightButton,mouse_2.clicked_name,mouse_3.x,mouse_3.y,mouse_3.leftButton,mouse_3.midButton,mouse_3.rightButton,mouse_11.x,mouse_11.y,mouse_11.leftButton,mouse_11.midButton,mouse_11.rightButton,trials_2.thisRepN,trials_2.thisTrialN,trials_2.thisN,trials_2.thisIndex,trials_2.ran,Colour1,mouse_3.clicked_name,catchornah,catchsimilarity,catchnumber,catchtrialorder,catchRT,mouse_11.clicked_name
space,2.204,space,15.7243,space,16.2324,space,6.5656,space,10.0979,space,5.6741,159,FF,98.40001291,-46.40000713,1,0,0,response3disk_5,5,6.4584,7.200011551,7.19999367,1,0,0,rectangle_8,7.200011551,7.19999367,1,0,0,7.200011551,7.19999367,1,0,0,0,0,0,3,1,6100b7d1d121da73b60c7b6e,61036ad27baab5273ba77ca5,2021-07-30_04h59.42.070,Simcolourproject_2stim_asymm_v5,2020.2.10,Win32,60,61025ae37ef11b136ea224fe,,,,,,,,,,,,,,,,,,,,,,,,,,,,,,,,,,,,,,,,,,,,,,
,,,,,,,,,,,,141,PF,46.40001214,-87.20000774,1,0,0,response3disk_5,4,6.4567,-0.799988568,6.399993658,1,0,0,rectangle_8,36.00001198,70.39999461,1,0,0,-2.399939764,10.39999372,1,0,0,0,1,1,2,1,6100b7d1d121da73b60c7b6e,61036ad27baab5273ba77ca5,2021-07-30_04h59.42.070,Simcolourproject_2stim_asymm_v5,2020.2.10,Win32,60,61025ae37ef11b136ea224fe,response1disk_7,7,3.6113,7,"[2,5]",rectangle_4,,,,,,,,,,,,,,,,,,,,,,,,,,,,,,,,,,,,,,,,
,,,,,,,,,,,,150,PF,-78.3999409,44.79999423,1,0,0,response7disk_5,1,3.4509,-7.199988663,-6.4373E-06,1,0,0,rectangle_8,-7.199988663,-6.4373E-06,1,0,0,-7.199988663,-6.4373E-06,1,0,0,0,2,2,1,1,6100b7d1d121da73b60c7b6e,61036ad27baab5273ba77ca5,2021-07-30_04h59.42.070,Simcolourproject_2stim_asymm_v5,2020.2.10,Win32,60,61025ae37ef11b136ea224fe,,,,,,,,,,,,,,,,,,,,,,,,,,,,,,,,,,,,,,,,,,,,,,
,,,,,,,,,,,,12,PF,37.60006083,63.19997009,1,0,0,response1disk_5,7,2.0339,-1.59998858,5.599993646,1,0,0,rectangle_8,-1.59998858,5.599993646,1,0,0,-1.59998858,5.599993646,1,0,0,0,3,3,4,1,6100b7d1d121da73b60c7b6e,61036ad27baab5273ba77ca5,2021-07-30_04h59.42.070,Simcolourproject_2stim_asymm_v5,2020.2.10,Win32,60,61025ae37ef11b136ea224fe,,,,,,,,,,,,,,,,,,,,,,,,,,,,,,,,,,,,,,,,,,,,,,
,,,,,,,,,,,,134,FF,-26.39994012,70.39999461,1,0,0,response7disk_5,0,1.7162,-9.599988699,4.799993634,1,0,0,rectangle_8,39.20001203,101.5999951,1,0,0,-4.799988627,3.19999361,1,0,0,0,4,4,5,1,6100b7d1d121da73b60c7b6e,61036ad27baab5273ba77ca5,2021-07-30_04h59.42.070,Simcolourproject_2stim_asymm_v5,2020.2.10,Win32,60,61025ae37ef11b136ea224fe,response1disk_7,7,4.1167,7,"[2,5]",rectangle_4,,,,,,,,,,,,,,,,,,,,,,,,,,,,,,,,,,,,,,,,
,,,,,,,,,,,,152,FF,30.4000119,-100.8000079,1,0,0,response3disk_5,4,3.6597,-5.599988639,-6.4373E-06,1,0,0,rectangle_8,-5.599988639,-6.4373E-06,1,0,0,-5.599988639,-6.4373E-06,1,0,0,0,5,5,0,1,6100b7d1d121da73b60c7b6e,61036ad27baab5273ba77ca5,2021-07-30_04h59.42.070,Simcolourproject_2stim_asymm_v5,2020.2.10,Win32,60,61025ae37ef11b136ea224fe,,,,,,,,,,,,,,,,,,,,,,,,,,,,,,,,,,,,,,,,,,,,,,
,,,,,,,,,,,,116,PF,-34.39994024,77.59999472,1,0,0,response7disk_5,0,3.8664,24.80001181,-9.60000658,1,0,0,rectangle_8,24.80001181,-9.60000658,1,0,0,24.80001181,-9.60000658,1,0,0,0,6,6,6,1,6100b7d1d121da73b60c7b6e,61036ad27baab5273ba77ca5,2021-07-30_04h59.42.070,Simcolourproject_2stim_asymm_v5,2020.2.10,Win32,60,61025ae37ef11b136ea224fe,,,,,,,,,,,,,,,,,,,,,,,,,,,,,,,,,,,,,,,,,,,,,,
,,,,,,,,,,,,,FF,,,,,,,,3.8998,,,,,,,,,,,,,,,,,,,,,,6100b7d1d121da73b60c7b6e,61036ad27baab5273ba77ca5,2021-07-30_04h59.42.070,Simcolourproject_2stim_asymm_v5,2020.2.10,Win32,60,61025ae37ef11b136ea224fe,,,,,,,space,2.9009,2635,42.40001208,87.19997045,1,0,0,response1disk,,7,-2.399939764,-1.600006461,1,0,0,rectangle,-2.399939764,-1.600006461,1,0,0,-2.399939764,-1.600006461,1,0,0,0,0,0,47,1,,,,,,,,
,,,,,,,,,,,,,FF,,,,,,,,2.0665,,,,,,,,,,,,,,,,,,,,,,6100b7d1d121da73b60c7b6e,61036ad27baab5273ba77ca5,2021-07-30_04h59.42.070,Simcolourproject_2stim_asymm_v5,2020.2.10,Win32,60,61025ae37ef11b136ea224fe,,,,,,,,,3607,52.80001223,-80.00000763,1,0,0,response3disk,,4,-2.399939764,9.599993706,1,0,0,rectangle,-2.399939764,9.599993706,1,0,0,-2.399939764,9.599993706,1,0,0,0,1,1,27,1,,,,,,,,
,,,,,,,,,,,,,FF,,,,,,,,3.9171,,,,,,,,,,,,,,,,,,,,,,6100b7d1d121da73b60c7b6e,61036ad27baab5273ba77ca5,2021-07-30_04h59.42.070,Simcolourproject_2stim_asymm_v5,2020.2.10,Win32,60,61025ae37ef11b136ea224fe,,,,,,,,,63,87.20001274,52.79999435,1,0,0,response1disk,,6,7.200011551,15.9999938,1,0,0,rectangle,7.200011551,15.9999938,1,0,0,7.200011551,15.9999938,1,0,0,0,2,2,77,1,,,,,,,,
,,,,,,,,,,,,,FF,,,,,,,,1.1844,,,,,,,,,,,,,,,,,,,,,,6100b7d1d121da73b60c7b6e,61036ad27baab5273ba77ca5,2021-07-30_04h59.42.070,Simcolourproject_2stim_asymm_v5,2020.2.10,Win32,60,61025ae37ef11b136ea224fe,,,,,,,,,3404,69.60001248,35.19996967,1,0,0,response1disk,,6,6.400011539,7.999993682,1,0,0,rectangle,6.400011539,7.999993682,1,0,0,6.400011539,7.999993682,1,0,0,0,3,3,20,1,,,,,,,,
,,,,,,,,,,,,,FF,,,,,,,,3.2334,,,,,,,,,,,,,,,,,,,,,,6100b7d1d121da73b60c7b6e,61036ad27baab5273ba77ca5,2021-07-30_04h59.42.070,Simcolourproject_2stim_asymm_v5,2020.2.10,Win32,60,61025ae37ef11b136ea224fe,,,,,,,,,2086,-99.99999005,-52.00000721,1,0,0,response5disk,,2,1.14441E-05,13.59999377,1,0,0,rectangle,-43.1999892,-80.80000764,1,0,0,-1.59998858,3.19999361,1,0,0,0,4,4,70,1,,response5disk_3,TRUE,3,3,"[170,5,301,279,263,148,169,272,158,237,238,194,192,140,255,115,163,176,157,293]",3.4885,rectangle
,,,,,,,,,,,,,FF,,,,,,,,3.6825,,,,,,,,,,,,,,,,,,,,,,6100b7d1d121da73b60c7b6e,61036ad27baab5273ba77ca5,2021-07-30_04h59.42.070,Simcolourproject_2stim_asymm_v5,2020.2.10,Win32,60,61025ae37ef11b136ea224fe,,,,,,,,,2371,-78.3999409,-36.80000699,1,0,0,response5disk,,2,-4.799988627,3.999993622,1,0,0,rectangle,-4.799988627,3.999993622,1,0,0,-4.799988627,3.999993622,1,0,0,0,5,5,24,1,,,,,,,,
,,,,,,,,,,,,,FF,,,,,,,,1.3159,,,,,,,,,,,,,,,,,,,,,,6100b7d1d121da73b60c7b6e,61036ad27baab5273ba77ca5,2021-07-30_04h59.42.070,Simcolourproject_2stim_asymm_v5,2020.2.10,Win32,60,61025ae37ef11b136ea224fe,,,,,,,,,571,-83.99998981,50.39999431,1,0,0,response7disk,,1,-9.599988699,1.599993587,1,0,0,rectangle,-9.599988699,1.599993587,1,0,0,-9.599988699,1.599993587,1,0,0,0,6,6,14,1,,,,,,,,
,,,,,,,,,,,,,FF,,,,,,,,1.7828,,,,,,,,,,,,,,,,,,,,,,6100b7d1d121da73b60c7b6e,61036ad27baab5273ba77ca5,2021-07-30_04h59.42.070,Simcolourproject_2stim_asymm_v5,2020.2.10,Win32,60,61025ae37ef11b136ea224fe,,,,,,,,,2434,-39.99998915,-71.2000075,1,0,0,response5disk,,3,-0.799988568,1.599993587,1,0,0,rectangle,-0.799988568,1.599993587,1,0,0,-0.799988568,1.599993587,1,0,0,0,7,7,135,1,,,,,,,,
,,,,,,,,,,,,,FF,,,,,,,,1.5659,,,,,,,,,,,,,,,,,,,,,,6100b7d1d121da73b60c7b6e,61036ad27baab5273ba77ca5,2021-07-30_04h59.42.070,Simcolourproject_2stim_asymm_v5,2020.2.10,Win32,60,61025ae37ef11b136ea224fe,,,,,,,,,897,-56.7999894,-71.2000075,1,0,0,response5disk,,3,5.600060356,11.99999374,1,0,0,rectangle,5.600060356,11.99999374,1,0,0,5.600060356,11.99999374,1,0,0,0,8,8,89,1,,,,,,,,
,,,,,,,,,,,,,FF,,,,,,,,3.316,,,,,,,,,,,,,,,,,,,,,,6100b7d1d121da73b60c7b6e,61036ad27baab5273ba77ca5,2021-07-30_04h59.42.070,Simcolourproject_2stim_asymm_v5,2020.2.10,Win32,60,61025ae37ef11b136ea224fe,,,,,,,,,3685,53.60001224,79.99999475,1,0,0,response1disk,,7,27.20001185,15.19999379,1,0,0,rectangle,27.20001185,15.19999379,1,0,0,27.20001185,15.19999379,1,0,0,0,9,9,5,1,,,,,,,,
,,,,,,,,,,,,,FF,,,,,,,,2.5991,,,,,,,,,,,,,,,,,,,,,,6100b7d1d121da73b60c7b6e,61036ad27baab5273ba77ca5,2021-07-30_04h59.42.070,Simcolourproject_2stim_asymm_v5,2020.2.10,Win32,60,61025ae37ef11b136ea224fe,,,,,,,,,484,52.80001223,-88.00000775,1,0,0,response3disk,,4,13.60006047,-8.000006557,1,0,0,rectangle,13.60006047,-8.000006557,1,0,0,13.60006047,-8.000006557,1,0,0,0,10,10,79,1,,,,,,,,
,,,,,,,,,,,,,FF,,,,,,,,1.3663,,,,,,,,,,,,,,,,,,,,,,6100b7d1d121da73b60c7b6e,61036ad27baab5273ba77ca5,2021-07-30_04h59.42.070,Simcolourproject_2stim_asymm_v5,2020.2.10,Win32,60,61025ae37ef11b136ea224fe,,,,,,,,,1311,43.20001209,-78.40000761,1,0,0,response3disk,,4,10.4000116,0.799993575,1,0,0,rectangle,10.4000116,0.799993575,1,0,0,10.4000116,0.799993575,1,0,0,0,11,11,138,1,,,,,,,,
,,,,,,,,,,,,,FF,,,,,,,,3.0325,,,,,,,,,,,,,,,,,,,,,,6100b7d1d121da73b60c7b6e,61036ad27baab5273ba77ca5,2021-07-30_04h59.42.070,Simcolourproject_2stim_asymm_v5,2020.2.10,Win32,60,61025ae37ef11b136ea224fe,,,,,,,,,296,88.80001277,-51.2000072,1,0,0,response3disk,,5,19.20001173,-8.000006557,1,0,0,rectangle,19.20001173,-8.000006557,1,0,0,19.20001173,-8.000006557,1,0,0,0,12,12,76,1,,,,,,,,
,,,,,,,,,,,,,FF,,,,,,,,1.3501,,,,,,,,,,,,,,,,,,,,,,6100b7d1d121da73b60c7b6e,61036ad27baab5273ba77ca5,2021-07-30_04h59.42.070,Simcolourproject_2stim_asymm_v5,2020.2.10,Win32,60,61025ae37ef11b136ea224fe,,,,,,,,,79,-84.79998982,51.19996991,1,0,0,response7disk,,1,-11.99998873,11.19999373,1,0,0,rectangle,-11.99998873,11.19999373,1,0,0,-11.99998873,11.19999373,1,0,0,0,13,13,43,1,,,,,,,,
,,,,,,,,,,,,,FF,,,,,,,,2.3835,,,,,,,,,,,,,,,,,,,,,,6100b7d1d121da73b60c7b6e,61036ad27baab5273ba77ca5,2021-07-30_04h59.42.070,Simcolourproject_2stim_asymm_v5,2020.2.10,Win32,60,61025ae37ef11b136ea224fe,,,,,,,,,1199,72.00001252,42.39999419,1,0,0,response1disk,,6,1.600060296,-7.200006545,1,0,0,rectangle,1.600060296,-7.200006545,1,0,0,1.600060296,-7.200006545,1,0,0,0,14,14,113,1,,,,,,,,
,,,,,,,,,,,,,FF,,,,,,,,2.8898,,,,,,,,,,,,,,,,,,,,,,6100b7d1d121da73b60c7b6e,61036ad27baab5273ba77ca5,2021-07-30_04h59.42.070,Simcolourproject_2stim_asymm_v5,2020.2.10,Win32,60,61025ae37ef11b136ea224fe,,,,,,,,,2295,78.40001261,-44.00000709,1,0,0,response3disk,,5,8.800011575,4.799993634,1,0,0,rectangle,8.800011575,4.799993634,1,0,0,8.800011575,4.799993634,1,0,0,0,15,15,96,1,,,,,,,,
,,,,,,,,,,,,,FF,,,,,,,,1.7335,,,,,,,,,,,,,,,,,,,,,,6100b7d1d121da73b60c7b6e,61036ad27baab5273ba77ca5,2021-07-30_04h59.42.070,Simcolourproject_2stim_asymm_v5,2020.2.10,Win32,60,61025ae37ef11b136ea224fe,,,,,,,,,2967,57.6000123,79.19997033,1,0,0,response1disk,,7,8.000011563,-4.000006497,1,0,0,rectangle,8.000011563,-4.000006497,1,0,0,8.000011563,-4.000006497,1,0,0,0,16,16,117,1,,,,,,,,
,,,,,,,,,,,,,FF,,,,,,,,1.5662,,,,,,,,,,,,,,,,,,,,,,6100b7d1d121da73b60c7b6e,61036ad27baab5273ba77ca5,2021-07-30_04h59.42.070,Simcolourproject_2stim_asymm_v5,2020.2.10,Win32,60,61025ae37ef11b136ea224fe,,,,,,,,,795,64.0000124,-35.20000696,1,0,0,response3disk,,5,18.40001172,-6.400006533,1,0,0,rectangle,18.40001172,-6.400006533,1,0,0,18.40001172,-6.400006533,1,0,0,0,17,17,101,1,,,,,,,,
,,,,,,,,,,,,,FF,,,,,,,,1.5334,,,,,,,,,,,,,,,,,,,,,,6100b7d1d121da73b60c7b6e,61036ad27baab5273ba77ca5,2021-07-30_04h59.42.070,Simcolourproject_2stim_asymm_v5,2020.2.10,Win32,60,61025ae37ef11b136ea224fe,,,,,,,,,1683,-64.79998952,-40.00000703,1,0,0,response5disk,,2,-7.999988675,-8.000006557,1,0,0,rectangle,-7.999988675,-8.000006557,1,0,0,-7.999988675,-8.000006557,1,0,0,0,18,18,68,1,,,,,,,,
,,,,,,,,,,,,,FF,,,,,,,,1.7838,,,,,,,,,,,,,,,,,,,,,,6100b7d1d121da73b60c7b6e,61036ad27baab5273ba77ca5,2021-07-30_04h59.42.070,Simcolourproject_2stim_asymm_v5,2020.2.10,Win32,60,61025ae37ef11b136ea224fe,,,,,,,,,505,91.2000128,42.39999419,1,0,0,response1disk,,6,13.60006047,4.799993634,1,0,0,rectangle,13.60006047,4.799993634,1,0,0,13.60006047,4.799993634,1,0,0,0,19,19,98,1,,,,,,,,
,,,,,,,,,,,,,FF,,,,,,,,1.4498,,,,,,,,,,,,,,,,,,,,,,6100b7d1d121da73b60c7b6e,61036ad27baab5273ba77ca5,2021-07-30_04h59.42.070,Simcolourproject_2stim_asymm_v5,2020.2.10,Win32,60,61025ae37ef11b136ea224fe,,,,,,,,,1842,68.80001247,38.39999413,1,0,0,response1disk,,6,-7.999988675,-4.800006509,1,0,0,rectangle,-7.999988675,-4.800006509,1,0,0,-7.999988675,-4.800006509,1,0,0,0,20,20,105,1,,,,,,,,
,,,,,,,,,,,,,FF,,,,,,,,2.6157,,,,,,,,,,,,,,,,,,,,,,6100b7d1d121da73b60c7b6e,61036ad27baab5273ba77ca5,2021-07-30_04h59.42.070,Simcolourproject_2stim_asymm_v5,2020.2.10,Win32,60,61025ae37ef11b136ea224fe,,,,,,,,,3466,32.00001192,-61.60000736,1,0,0,response3disk,,4,1.600060296,-6.4373E-06,1,0,0,rectangle,1.600060296,-6.4373E-06,1,0,0,1.600060296,-6.4373E-06,1,0,0,0,21,21,92,1,,,,,,,,
,,,,,,,,,,,,,FF,,,,,,,,2.2825,,,,,,,,,,,,,,,,,,,,,,6100b7d1d121da73b60c7b6e,61036ad27baab5273ba77ca5,2021-07-30_04h59.42.070,Simcolourproject_2stim_asymm_v5,2020.2.10,Win32,60,61025ae37ef11b136ea224fe,,,,,,,,,894,-63.99998951,-68.80000746,1,0,0,response5disk,,3,-0.799988568,8.799993694,1,0,0,rectangle,-0.799988568,8.799993694,1,0,0,-0.799988568,8.799993694,1,0,0,0,22,22,132,1,,,,,,,,
,,,,,,,,,,,,,FF,,,,,,,,2.0332,,,,,,,,,,,,,,,,,,,,,,6100b7d1d121da73b60c7b6e,61036ad27baab5273ba77ca5,2021-07-30_04h59.42.070,Simcolourproject_2stim_asymm_v5,2020.2.10,Win32,60,61025ae37ef11b136ea224fe,,,,,,,,,3128,72.00001252,28.79999399,1,0,0,response1disk,,6,8.000011563,0.799993575,1,0,0,rectangle,8.000011563,0.799993575,1,0,0,8.000011563,0.799993575,1,0,0,0,23,23,26,1,,,,,,,,
,,,,,,,,,,,,,FF,,,,,,,,2.4664,,,,,,,,,,,,,,,,,,,,,,6100b7d1d121da73b60c7b6e,61036ad27baab5273ba77ca5,2021-07-30_04h59.42.070,Simcolourproject_2stim_asymm_v5,2020.2.10,Win32,60,61025ae37ef11b136ea224fe,,,,,,,,,379,85.60001272,-56.80000728,1,0,0,response3disk,,5,15.20001167,-10.40000659,1,0,0,rectangle,15.20001167,-10.40000659,1,0,0,15.20001167,-10.40000659,1,0,0,0,24,24,40,1,,,,,,,,
,,,,,,,,,,,,,FF,,,,,,,,1.4329,,,,,,,,,,,,,,,,,,,,,,6100b7d1d121da73b60c7b6e,61036ad27baab5273ba77ca5,2021-07-30_04h59.42.070,Simcolourproject_2stim_asymm_v5,2020.2.10,Win32,60,61025ae37ef11b136ea224fe,,,,,,,,,3508,85.60001272,-63.20000738,1,0,0,response3disk,,5,11.20001161,5.599993646,1,0,0,rectangle,11.20001161,5.599993646,1,0,0,11.20001161,5.599993646,1,0,0,0,25,25,52,1,,,,,,,,
,,,,,,,,,,,,,FF,,,,,,,,3.6155,,,,,,,,,,,,,,,,,,,,,,6100b7d1d121da73b60c7b6e,61036ad27baab5273ba77ca5,2021-07-30_04h59.42.070,Simcolourproject_2stim_asymm_v5,2020.2.10,Win32,60,61025ae37ef11b136ea224fe,,,,,,,,,3507,41.60006089,-78.40000761,1,0,0,response3disk,,4,13.60006047,-6.400006533,1,0,0,rectangle,13.60006047,-6.400006533,1,0,0,13.60006047,-6.400006533,1,0,0,0,26,26,128,1,,,,,,,,
,,,,,,,,,,,,,FF,,,,,,,,4.8326,,,,,,,,,,,,,,,,,,,,,,6100b7d1d121da73b60c7b6e,61036ad27baab5273ba77ca5,2021-07-30_04h59.42.070,Simcolourproject_2stim_asymm_v5,2020.2.10,Win32,60,61025ae37ef11b136ea224fe,,,,,,,,,2962,-73.59998965,-32.00000691,1,0,0,response5disk,,2,2.40001148,1.599993587,1,0,0,rectangle,2.40001148,1.599993587,1,0,0,2.40001148,1.599993587,1,0,0,0,27,27,158,1,,,,,,,,
,,,,,,,,,,,,,FF,,,,,,,,1.3666,,,,,,,,,,,,,,,,,,,,,,6100b7d1d121da73b60c7b6e,61036ad27baab5273ba77ca5,2021-07-30_04h59.42.070,Simcolourproject_2stim_asymm_v5,2020.2.10,Win32,60,61025ae37ef11b136ea224fe,,,,,,,,,3680,-71.99998963,-36.80000699,1,0,0,response5disk,,2,-21.59998888,-3.200006485,1,0,0,rectangle,-21.59998888,-3.200006485,1,0,0,-21.59998888,-3.200006485,1,0,0,0,28,28,122,1,,,,,,,,
,,,,,,,,,,,,,FF,,,,,,,,1.433,,,,,,,,,,,,,,,,,,,,,,6100b7d1d121da73b60c7b6e,61036ad27baab5273ba77ca5,2021-07-30_04h59.42.070,Simcolourproject_2stim_asymm_v5,2020.2.10,Win32,60,61025ae37ef11b136ea224fe,,,,,,,,,1312,-87.99998987,-51.2000072,1,0,0,response5disk,,2,-13.59998876,-0.800006449,1,0,0,rectangle,-13.59998876,-0.800006449,1,0,0,-13.59998876,-0.800006449,1,0,0,0,29,29,80,1,,,,,,,,
,,,,,,,,,,,,,FF,,,,,,,,3.5,,,,,,,,,,,,,,,,,,,,,,6100b7d1d121da73b60c7b6e,61036ad27baab5273ba77ca5,2021-07-30_04h59.42.070,Simcolourproject_2stim_asymm_v5,2020.2.10,Win32,60,61025ae37ef11b136ea224fe,,,,,,,,,2859,100.8000129,-32.80000693,1,0,0,response3disk,,5,36.80001199,-6.4373E-06,1,0,0,rectangle,36.80001199,-6.4373E-06,1,0,0,36.80001199,-6.4373E-06,1,0,0,0,30,30,146,1,,,,,,,,
,,,,,,,,,,,,,FF,,,,,,,,1.516,,,,,,,,,,,,,,,,,,,,,,6100b7d1d121da73b60c7b6e,61036ad27baab5273ba77ca5,2021-07-30_04h59.42.070,Simcolourproject_2stim_asymm_v5,2020.2.10,Win32,60,61025ae37ef11b136ea224fe,,,,,,,,,3699,68.80001247,-45.60000712,1,0,0,response3disk,,5,-11.19998872,16.79999381,1,0,0,rectangle,-11.19998872,16.79999381,1,0,0,-11.19998872,16.79999381,1,0,0,0,31,31,139,1,,,,,,,,
,,,,,,,,,,,,,FF,,,,,,,,0.9331,,,,,,,,,,,,,,,,,,,,,,6100b7d1d121da73b60c7b6e,61036ad27baab5273ba77ca5,2021-07-30_04h59.42.070,Simcolourproject_2stim_asymm_v5,2020.2.10,Win32,60,61025ae37ef11b136ea224fe,,,,,,,,,1452,-23.1999889,62.39999449,1,0,0,response7disk,,0,6.400011539,2.399993598,1,0,0,rectangle,6.400011539,2.399993598,1,0,0,6.400011539,2.399993598,1,0,0,0,32,32,32,1,,,,,,,,
,,,,,,,,,,,,,FF,,,,,,,,1.3496,,,,,,,,,,,,,,,,,,,,,,6100b7d1d121da73b60c7b6e,61036ad27baab5273ba77ca5,2021-07-30_04h59.42.070,Simcolourproject_2stim_asymm_v5,2020.2.10,Win32,60,61025ae37ef11b136ea224fe,,,,,,,,,3169,-23.99998891,-80.80000764,1,0,0,response5disk,,3,8.000011563,-2.400006473,1,0,0,rectangle,8.000011563,-2.400006473,1,0,0,8.000011563,-2.400006473,1,0,0,0,33,33,118,1,,,,,,,,
,,,,,,,,,,,,,FF,,,,,,,,1.3336,,,,,,,,,,,,,,,,,,,,,,6100b7d1d121da73b60c7b6e,61036ad27baab5273ba77ca5,2021-07-30_04h59.42.070,Simcolourproject_2stim_asymm_v5,2020.2.10,Win32,60,61025ae37ef11b136ea224fe,,,,,,,,,4322,56.80001229,37.59999412,1,0,0,response1disk,,6,-13.59998876,3.19999361,1,0,0,rectangle,-13.59998876,3.19999361,1,0,0,-13.59998876,3.19999361,1,0,0,0,34,34,54,1,,,,,,,,
,,,,,,,,,,,,,FF,,,,,,,,1.3669,,,,,,,,,,,,,,,,,,,,,,6100b7d1d121da73b60c7b6e,61036ad27baab5273ba77ca5,2021-07-30_04h59.42.070,Simcolourproject_2stim_asymm_v5,2020.2.10,Win32,60,61025ae37ef11b136ea224fe,,,,,,,,,465,58.40001231,31.19996961,1,0,0,response1disk,,6,9.600060415,-2.400006473,1,0,0,rectangle,9.600060415,-2.400006473,1,0,0,9.600060415,-2.400006473,1,0,0,0,35,35,30,1,,,,,,,,
,,,,,,,,,,,,,FF,,,,,,,,1.2329,,,,,,,,,,,,,,,,,,,,,,6100b7d1d121da73b60c7b6e,61036ad27baab5273ba77ca5,2021-07-30_04h59.42.070,Simcolourproject_2stim_asymm_v5,2020.2.10,Win32,60,61025ae37ef11b136ea224fe,,,,,,,,,1385,25.60006065,-70.40000749,1,0,0,response3disk,,4,0.800011456,-12.00000662,1,0,0,rectangle,0.800011456,-12.00000662,1,0,0,0.800011456,-12.00000662,1,0,0,0,36,36,95,1,,,,,,,,
,,,,,,,,,,,,,FF,,,,,,,,1.3994,,,,,,,,,,,,,,,,,,,,,,6100b7d1d121da73b60c7b6e,61036ad27baab5273ba77ca5,2021-07-30_04h59.42.070,Simcolourproject_2stim_asymm_v5,2020.2.10,Win32,60,61025ae37ef11b136ea224fe,,,,,,,,,1456,65.60001242,-47.20000714,1,0,0,response3disk,,5,8.000011563,-0.800006449,1,0,0,rectangle,8.000011563,-0.800006449,1,0,0,8.000011563,-0.800006449,1,0,0,0,37,37,63,1,,,,,,,,
,,,,,,,,,,,,,FF,,,,,,,,1.6828,,,,,,,,,,,,,,,,,,,,,,6100b7d1d121da73b60c7b6e,61036ad27baab5273ba77ca5,2021-07-30_04h59.42.070,Simcolourproject_2stim_asymm_v5,2020.2.10,Win32,60,61025ae37ef11b136ea224fe,,,,,,,,,3658,-65.59998953,-85.60005654,1,0,0,response5disk,,3,8.000011563,-0.800006449,1,0,0,rectangle,8.000011563,-0.800006449,1,0,0,8.000011563,-0.800006449,1,0,0,0,38,38,141,1,,,,,,,,
,,,,,,,,,,,,,FF,,,,,,,,2.2831,,,,,,,,,,,,,,,,,,,,,,6100b7d1d121da73b60c7b6e,61036ad27baab5273ba77ca5,2021-07-30_04h59.42.070,Simcolourproject_2stim_asymm_v5,2020.2.10,Win32,60,61025ae37ef11b136ea224fe,,,,,,,,,2776,96.00001287,-34.40000695,1,0,0,response3disk,,5,-5.599988639,14.39999378,1,0,0,rectangle,-5.599988639,14.39999378,1,0,0,-5.599988639,14.39999378,1,0,0,0,39,39,112,1,,,,,,,,
,,,,,,,,,,,,,FF,,,,,,,,1.5007,,,,,,,,,,,,,,,,,,,,,,6100b7d1d121da73b60c7b6e,61036ad27baab5273ba77ca5,2021-07-30_04h59.42.070,Simcolourproject_2stim_asymm_v5,2020.2.10,Win32,60,61025ae37ef11b136ea224fe,,,,,,,,,1437,-46.39994042,-53.60000724,1,0,0,response5disk,,3,-1.59998858,5.599993646,1,0,0,rectangle,-1.59998858,5.599993646,1,0,0,-1.59998858,5.599993646,1,0,0,0,40,40,17,1,,,,,,,,
,,,,,,,,,,,,,FF,,,,,,,,1.5331,,,,,,,,,,,,,,,,,,,,,,6100b7d1d121da73b60c7b6e,61036ad27baab5273ba77ca5,2021-07-30_04h59.42.070,Simcolourproject_2stim_asymm_v5,2020.2.10,Win32,60,61025ae37ef11b136ea224fe,,,,,,,,,2785,-39.19998914,-76.00000757,1,0,0,response5disk,,3,11.20001161,-6.4373E-06,1,0,0,rectangle,11.20001161,-6.4373E-06,1,0,0,11.20001161,-6.4373E-06,1,0,0,0,41,41,111,1,,,,,,,,
,,,,,,,,,,,,,FF,,,,,,,,2.3831,,,,,,,,,,,,,,,,,,,,,,6100b7d1d121da73b60c7b6e,61036ad27baab5273ba77ca5,2021-07-30_04h59.42.070,Simcolourproject_2stim_asymm_v5,2020.2.10,Win32,60,61025ae37ef11b136ea224fe,,,,,,,,,45,-47.19998926,-87.20000774,1,0,0,response5disk,,3,11.20001161,7.19999367,1,0,0,rectangle,11.20001161,7.19999367,1,0,0,11.20001161,7.19999367,1,0,0,0,42,42,90,1,,,,,,,,
,,,,,,,,,,,,,FF,,,,,,,,3.3999,,,,,,,,,,,,,,,,,,,,,,6100b7d1d121da73b60c7b6e,61036ad27baab5273ba77ca5,2021-07-30_04h59.42.070,Simcolourproject_2stim_asymm_v5,2020.2.10,Win32,60,61025ae37ef11b136ea224fe,,,,,,,,,2789,-22.39994006,-92.80000782,1,0,0,response5disk,,3,22.40001178,2.399993598,1,0,0,rectangle,22.40001178,2.399993598,1,0,0,22.40001178,2.399993598,1,0,0,0,43,43,97,1,,,,,,,,
,,,,,,,,,,,,,FF,,,,,,,,1.617,,,,,,,,,,,,,,,,,,,,,,6100b7d1d121da73b60c7b6e,61036ad27baab5273ba77ca5,2021-07-30_04h59.42.070,Simcolourproject_2stim_asymm_v5,2020.2.10,Win32,60,61025ae37ef11b136ea224fe,,,,,,,,,1043,-98.39994119,-24.00000679,1,0,0,response5disk,,2,-12.79998875,-2.400006473,1,0,0,rectangle,-12.79998875,-2.400006473,1,0,0,-12.79998875,-2.400006473,1,0,0,0,44,44,82,1,,,,,,,,
,,,,,,,,,,,,,FF,,,,,,,,1.5502,,,,,,,,,,,,,,,,,,,,,,6100b7d1d121da73b60c7b6e,61036ad27baab5273ba77ca5,2021-07-30_04h59.42.070,Simcolourproject_2stim_asymm_v5,2020.2.10,Win32,60,61025ae37ef11b136ea224fe,,,,,,,,,2124,60.80001235,36.79999411,1,0,0,response1disk,,6,1.14441E-05,5.599993646,1,0,0,rectangle,1.14441E-05,5.599993646,1,0,0,1.14441E-05,5.599993646,1,0,0,0,45,45,127,1,,,,,,,,
,,,,,,,,,,,,,FF,,,,,,,,2.0162,,,,,,,,,,,,,,,,,,,,,,6100b7d1d121da73b60c7b6e,61036ad27baab5273ba77ca5,2021-07-30_04h59.42.070,Simcolourproject_2stim_asymm_v5,2020.2.10,Win32,60,61025ae37ef11b136ea224fe,,,,,,,,,405,76.00001258,35.9999941,1,0,0,response1disk,,6,11.20001161,-4.800006509,1,0,0,rectangle,11.20001161,-4.800006509,1,0,0,11.20001161,-4.800006509,1,0,0,0,46,46,159,1,,,,,,,,
,,,,,,,,,,,,,FF,,,,,,,,1.3497,,,,,,,,,,,,,,,,,,,,,,6100b7d1d121da73b60c7b6e,61036ad27baab5273ba77ca5,2021-07-30_04h59.42.070,Simcolourproject_2stim_asymm_v5,2020.2.10,Win32,60,61025ae37ef11b136ea224fe,,,,,,,,,1298,-54.39994054,36.79999411,1,0,0,response7disk,,1,16.80001169,-2.400006473,1,0,0,rectangle,16.80001169,-2.400006473,1,0,0,16.80001169,-2.400006473,1,0,0,0,47,47,9,1,,,,,,,,
,,,,,,,,,,,,,FF,,,,,,,,1.5169,,,,,,,,,,,,,,,,,,,,,,6100b7d1d121da73b60c7b6e,61036ad27baab5273ba77ca5,2021-07-30_04h59.42.070,Simcolourproject_2stim_asymm_v5,2020.2.10,Win32,60,61025ae37ef11b136ea224fe,,,,,,,,,1258,-43.99998921,-74.40000755,1,0,0,response5disk,,3,-1.59998858,-4.000006497,1,0,0,rectangle,-1.59998858,-4.000006497,1,0,0,-1.59998858,-4.000006497,1,0,0,0,48,48,114,1,,,,,,,,
,,,,,,,,,,,,,FF,,,,,,,,2.8001,,,,,,,,,,,,,,,,,,,,,,6100b7d1d121da73b60c7b6e,61036ad27baab5273ba77ca5,2021-07-30_04h59.42.070,Simcolourproject_2stim_asymm_v5,2020.2.10,Win32,60,61025ae37ef11b136ea224fe,,,,,,,,,3501,60.00001234,87.99999487,1,0,0,response1disk,,7,6.400011539,-3.200006485,1,0,0,rectangle,6.400011539,-3.200006485,1,0,0,6.400011539,-3.200006485,1,0,0,0,49,49,36,1,,,,,,,,
,,,,,,,,,,,,,FF,,,,,,,,1.367,,,,,,,,,,,,,,,,,,,,,,6100b7d1d121da73b60c7b6e,61036ad27baab5273ba77ca5,2021-07-30_04h59.42.070,Simcolourproject_2stim_asymm_v5,2020.2.10,Win32,60,61025ae37ef11b136ea224fe,,,,,,,,,277,-35.19998908,59.99999446,1,0,0,response7disk,,0,0.800011456,1.599993587,1,0,0,rectangle,0.800011456,1.599993587,1,0,0,0.800011456,1.599993587,1,0,0,0,50,50,12,1,,,,,,,,
,,,,,,,,,,,,,FF,,,,,,,,2.7993,,,,,,,,,,,,,,,,,,,,,,6100b7d1d121da73b60c7b6e,61036ad27baab5273ba77ca5,2021-07-30_04h59.42.070,Simcolourproject_2stim_asymm_v5,2020.2.10,Win32,60,61025ae37ef11b136ea224fe,,,,,,,,,112,92.00001281,-21.60000676,1,0,0,response3disk,,5,4.800011516,6.399993658,1,0,0,rectangle,4.800011516,6.399993658,1,0,0,4.800011516,6.399993658,1,0,0,0,51,51,153,1,,,,,,,,
,,,,,,,,,,,,,FF,,,,,,,,1.0836,,,,,,,,,,,,,,,,,,,,,,6100b7d1d121da73b60c7b6e,61036ad27baab5273ba77ca5,2021-07-30_04h59.42.070,Simcolourproject_2stim_asymm_v5,2020.2.10,Win32,60,61025ae37ef11b136ea224fe,,,,,,,,,3890,92.00001281,-42.40000707,1,0,0,response3disk,,5,11.20001161,2.399993598,1,0,0,rectangle,11.20001161,2.399993598,1,0,0,11.20001161,2.399993598,1,0,0,0,52,52,91,1,,,,,,,,
,,,,,,,,,,,,,FF,,,,,,,,1.2334,,,,,,,,,,,,,,,,,,,,,,6100b7d1d121da73b60c7b6e,61036ad27baab5273ba77ca5,2021-07-30_04h59.42.070,Simcolourproject_2stim_asymm_v5,2020.2.10,Win32,60,61025ae37ef11b136ea224fe,,,,,,,,,399,95.20001286,-28.00000685,1,0,0,response3disk,,5,16.00001168,3.999993622,1,0,0,rectangle,16.00001168,3.999993622,1,0,0,16.00001168,3.999993622,1,0,0,0,53,53,130,1,,,,,,,,
,,,,,,,,,,,,,FF,,,,,,,,1.7994,,,,,,,,,,,,,,,,,,,,,,6100b7d1d121da73b60c7b6e,61036ad27baab5273ba77ca5,2021-07-30_04h59.42.070,Simcolourproject_2stim_asymm_v5,2020.2.10,Win32,60,61025ae37ef11b136ea224fe,,,,,,,,,2020,65.60001242,59.99999446,1,0,0,response1disk,,6,5.600060356,3.19999361,1,0,0,rectangle,5.600060356,3.19999361,1,0,0,5.600060356,3.19999361,1,0,0,0,54,54,64,1,,,,,,,,
,,,,,,,,,,,,,FF,,,,,,,,1.6503,,,,,,,,,,,,,,,,,,,,,,6100b7d1d121da73b60c7b6e,61036ad27baab5273ba77ca5,2021-07-30_04h59.42.070,Simcolourproject_2stim_asymm_v5,2020.2.10,Win32,60,61025ae37ef11b136ea224fe,,,,,,,,,2573,41.60006089,61.59999448,1,0,0,response1disk,,7,1.600060296,-11.2000066,1,0,0,rectangle,1.600060296,-11.2000066,1,0,0,1.600060296,-11.2000066,1,0,0,0,55,55,7,1,,,,,,,,
,,,,,,,,,,,,,FF,,,,,,,,1.2828,,,,,,,,,,,,,,,,,,,,,,6100b7d1d121da73b60c7b6e,61036ad27baab5273ba77ca5,2021-07-30_04h59.42.070,Simcolourproject_2stim_asymm_v5,2020.2.10,Win32,60,61025ae37ef11b136ea224fe,,,,,,,,,1559,53.60001224,63.19997009,1,0,0,response1disk,,7,16.00001168,11.19999373,1,0,0,rectangle,16.00001168,11.19999373,1,0,0,16.00001168,11.19999373,1,0,0,0,56,56,124,1,,,,,,,,
,,,,,,,,,,,,,FF,,,,,,,,2.8832,,,,,,,,,,,,,,,,,,,,,,6100b7d1d121da73b60c7b6e,61036ad27baab5273ba77ca5,2021-07-30_04h59.42.070,Simcolourproject_2stim_asymm_v5,2020.2.10,Win32,60,61025ae37ef11b136ea224fe,,,,,,,,,2380,80.00001264,-32.80000693,1,0,0,response3disk,,5,16.80001169,8.799993694,1,0,0,rectangle,16.80001169,8.799993694,1,0,0,16.80001169,8.799993694,1,0,0,0,57,57,140,1,,,,,,,,
,,,,,,,,,,,,,FF,,,,,,,,1.8333,,,,,,,,,,,,,,,,,,,,,,6100b7d1d121da73b60c7b6e,61036ad27baab5273ba77ca5,2021-07-30_04h59.42.070,Simcolourproject_2stim_asymm_v5,2020.2.10,Win32,60,61025ae37ef11b136ea224fe,,,,,,,,,3770,36.00001198,69.5999946,1,0,0,response1disk,,7,8.000011563,11.19999373,1,0,0,rectangle,8.000011563,11.19999373,1,0,0,8.000011563,11.19999373,1,0,0,0,58,58,66,1,,,,,,,,
,,,,,,,,,,,,,FF,,,,,,,,1.2166,,,,,,,,,,,,,,,,,,,,,,6100b7d1d121da73b60c7b6e,61036ad27baab5273ba77ca5,2021-07-30_04h59.42.070,Simcolourproject_2stim_asymm_v5,2020.2.10,Win32,60,61025ae37ef11b136ea224fe,,,,,,,,,4181,-82.39994096,31.99999404,1,0,0,response7disk,,1,-11.99998873,-8.000006557,1,0,0,rectangle,-11.99998873,-8.000006557,1,0,0,-11.99998873,-8.000006557,1,0,0,0,59,59,33,1,,,,,,,,
,,,,,,,,,,,,,FF,,,,,,,,1.6825,,,,,,,,,,,,,,,,,,,,,,6100b7d1d121da73b60c7b6e,61036ad27baab5273ba77ca5,2021-07-30_04h59.42.070,Simcolourproject_2stim_asymm_v5,2020.2.10,Win32,60,61025ae37ef11b136ea224fe,,,,,,,,,588,56.00001228,-32.80000693,1,0,0,response3disk,,5,28.80001187,-2.400006473,1,0,0,rectangle,28.80001187,-2.400006473,1,0,0,28.80001187,-2.400006473,1,0,0,0,60,60,103,1,,,,,,,,
,,,,,,,,,,,,,FF,,,,,,,,2.3658,,,,,,,,,,,,,,,,,,,,,,6100b7d1d121da73b60c7b6e,61036ad27baab5273ba77ca5,2021-07-30_04h59.42.070,Simcolourproject_2stim_asymm_v5,2020.2.10,Win32,60,61025ae37ef11b136ea224fe,,,,,,,,,2247,-27.99998897,-93.60005666,1,0,0,response5disk,,3,19.20001173,4.799993634,1,0,0,rectangle,19.20001173,4.799993634,1,0,0,19.20001173,4.799993634,1,0,0,0,61,61,78,1,,,,,,,,
,,,,,,,,,,,,,FF,,,,,,,,1.2242,,,,,,,,,,,,,,,,,,,,,,6100b7d1d121da73b60c7b6e,61036ad27baab5273ba77ca5,2021-07-30_04h59.42.070,Simcolourproject_2stim_asymm_v5,2020.2.10,Win32,60,61025ae37ef11b136ea224fe,,,,,,,,,3082,61.60001236,-40.80000705,1,0,0,response3disk,,5,15.20001167,-8.000006557,1,0,0,rectangle,15.20001167,-8.000006557,1,0,0,15.20001167,-8.000006557,1,0,0,0,62,62,29,1,,,,,,,,
,,,,,,,,,,,,,FF,,,,,,,,1.0891,,,,,,,,,,,,,,,,,,,,,,6100b7d1d121da73b60c7b6e,61036ad27baab5273ba77ca5,2021-07-30_04h59.42.070,Simcolourproject_2stim_asymm_v5,2020.2.10,Win32,60,61025ae37ef11b136ea224fe,,,,,,,,,621,-55.19998938,38.39999413,1,0,0,response7disk,,1,0.800011456,2.399993598,1,0,0,rectangle,0.800011456,2.399993598,1,0,0,0.800011456,2.399993598,1,0,0,0,63,63,38,1,,,,,,,,
,,,,,,,,,,,,,FF,,,,,,,,1.5432,,,,,,,,,,,,,,,,,,,,,,6100b7d1d121da73b60c7b6e,61036ad27baab5273ba77ca5,2021-07-30_04h59.42.070,Simcolourproject_2stim_asymm_v5,2020.2.10,Win32,60,61025ae37ef11b136ea224fe,,,,,,,,,837,-24.79998893,-79.20000762,1,0,0,response5disk,,3,4.000011504,-4.800006509,1,0,0,rectangle,4.000011504,-4.800006509,1,0,0,4.000011504,-4.800006509,1,0,0,0,64,64,51,1,,,,,,,,
,,,,,,,,,,,,,FF,,,,,,,,1.2397,,,,,,,,,,,,,,,,,,,,,,6100b7d1d121da73b60c7b6e,61036ad27baab5273ba77ca5,2021-07-30_04h59.42.070,Simcolourproject_2stim_asymm_v5,2020.2.10,Win32,60,61025ae37ef11b136ea224fe,,,,,,,,,582,-46.39994042,-67.20000744,1,0,0,response5disk,,3,-9.599988699,-11.2000066,1,0,0,rectangle,-9.599988699,-11.2000066,1,0,0,-9.599988699,-11.2000066,1,0,0,0,65,65,84,1,,,,,,,,
,,,,,,,,,,,,,FF,,,,,,,,2.1329,,,,,,,,,,,,,,,,,,,,,,6100b7d1d121da73b60c7b6e,61036ad27baab5273ba77ca5,2021-07-30_04h59.42.070,Simcolourproject_2stim_asymm_v5,2020.2.10,Win32,60,61025ae37ef11b136ea224fe,,,,,,,,,1384,-88.79998988,-52.80000722,1,0,0,response5disk,,2,-31.19998902,-14.40000665,1,0,0,rectangle,-31.19998902,-14.40000665,1,0,0,-31.19998902,-14.40000665,1,0,0,0,66,66,131,1,,,,,,,,
,,,,,,,,,,,,,FF,,,,,,,,2.1997,,,,,,,,,,,,,,,,,,,,,,6100b7d1d121da73b60c7b6e,61036ad27baab5273ba77ca5,2021-07-30_04h59.42.070,Simcolourproject_2stim_asymm_v5,2020.2.10,Win32,60,61025ae37ef11b136ea224fe,,,,,,,,,2625,82.40001267,39.19996973,1,0,0,response1disk,,6,20.00001174,6.399993658,1,0,0,rectangle,20.00001174,6.399993658,1,0,0,20.00001174,6.399993658,1,0,0,0,67,67,22,1,,,,,,,,
,,,,,,,,,,,,,FF,,,,,,,,1.1498,,,,,,,,,,,,,,,,,,,,,,6100b7d1d121da73b60c7b6e,61036ad27baab5273ba77ca5,2021-07-30_04h59.42.070,Simcolourproject_2stim_asymm_v5,2020.2.10,Win32,60,61025ae37ef11b136ea224fe,,,,,,,,,1668,60.00001234,79.19997033,1,0,0,response1disk,,7,13.60006047,13.59999377,1,0,0,rectangle,13.60006047,13.59999377,1,0,0,13.60006047,13.59999377,1,0,0,0,68,68,116,1,,,,,,,,
,,,,,,,,,,,,,FF,,,,,,,,1.8168,,,,,,,,,,,,,,,,,,,,,,6100b7d1d121da73b60c7b6e,61036ad27baab5273ba77ca5,2021-07-30_04h59.42.070,Simcolourproject_2stim_asymm_v5,2020.2.10,Win32,60,61025ae37ef11b136ea224fe,,,,,,,,,1918,72.80001253,-48.00000715,1,0,0,response3disk,,5,25.60006065,-1.600006461,1,0,0,rectangle,25.60006065,-1.600006461,1,0,0,25.60006065,-1.600006461,1,0,0,0,69,69,93,1,,,,,,,,
,,,,,,,,,,,,,FF,,,,,,,,1.6574,,,,,,,,,,,,,,,,,,,,,,6100b7d1d121da73b60c7b6e,61036ad27baab5273ba77ca5,2021-07-30_04h59.42.070,Simcolourproject_2stim_asymm_v5,2020.2.10,Win32,60,61025ae37ef11b136ea224fe,,,,,,,,,1694,66.40001243,-54.40000725,1,0,0,response3disk,,5,2.40001148,7.19999367,1,0,0,rectangle,2.40001148,7.19999367,1,0,0,2.40001148,7.19999367,1,0,0,0,70,70,142,1,,,,,,,,
,,,,,,,,,,,,,FF,,,,,,,,2.6991,,,,,,,,,,,,,,,,,,,,,,6100b7d1d121da73b60c7b6e,61036ad27baab5273ba77ca5,2021-07-30_04h59.42.070,Simcolourproject_2stim_asymm_v5,2020.2.10,Win32,60,61025ae37ef11b136ea224fe,,,,,,,,,3805,77.6000126,46.39999425,1,0,0,response1disk,,6,18.40001172,-4.800006509,1,0,0,rectangle,18.40001172,-4.800006509,1,0,0,18.40001172,-4.800006509,1,0,0,0,71,71,16,1,,,,,,,,
,,,,,,,,,,,,,FF,,,,,,,,1.9436,,,,,,,,,,,,,,,,,,,,,,6100b7d1d121da73b60c7b6e,61036ad27baab5273ba77ca5,2021-07-30_04h59.42.070,Simcolourproject_2stim_asymm_v5,2020.2.10,Win32,60,61025ae37ef11b136ea224fe,,,,,,,,,1086,-43.99998921,-102.400008,1,0,0,response5disk,,3,20.00001174,-14.40000665,1,0,0,rectangle,20.00001174,-14.40000665,1,0,0,20.00001174,-14.40000665,1,0,0,0,72,72,120,1,,,,,,,,
,,,,,,,,,,,,,FF,,,,,,,,1.9669,,,,,,,,,,,,,,,,,,,,,,6100b7d1d121da73b60c7b6e,61036ad27baab5273ba77ca5,2021-07-30_04h59.42.070,Simcolourproject_2stim_asymm_v5,2020.2.10,Win32,60,61025ae37ef11b136ea224fe,,,,,,,,,1910,-57.59998941,-80.80000764,1,0,0,response5disk,,3,4.000011504,3.999993622,1,0,0,rectangle,4.000011504,3.999993622,1,0,0,4.000011504,3.999993622,1,0,0,0,73,73,148,1,,,,,,,,
,,,,,,,,,,,,,FF,,,,,,,,1.468,,,,,,,,,,,,,,,,,,,,,,6100b7d1d121da73b60c7b6e,61036ad27baab5273ba77ca5,2021-07-30_04h59.42.070,Simcolourproject_2stim_asymm_v5,2020.2.10,Win32,60,61025ae37ef11b136ea224fe,,,,,,,,,1700,56.00001228,68.79999459,1,0,0,response1disk,,7,1.600060296,1.599993587,1,0,0,rectangle,1.600060296,1.599993587,1,0,0,1.600060296,1.599993587,1,0,0,0,74,74,25,1,,,,,,,,
,,,,,,,,,,,,,FF,,,,,,,,1.6828,,,,,,,,,,,,,,,,,,,,,,6100b7d1d121da73b60c7b6e,61036ad27baab5273ba77ca5,2021-07-30_04h59.42.070,Simcolourproject_2stim_asymm_v5,2020.2.10,Win32,60,61025ae37ef11b136ea224fe,,,,,,,,,1658,47.20001215,76.79999471,1,0,0,response1disk,,7,4.800011516,3.999993622,1,0,0,rectangle,4.800011516,3.999993622,1,0,0,4.800011516,3.999993622,1,0,0,0,75,75,100,1,,,,,,,,
,,,,,,,,,,,,,FF,,,,,,,,2.6668,,,,,,,,,,,,,,,,,,,,,,6100b7d1d121da73b60c7b6e,61036ad27baab5273ba77ca5,2021-07-30_04h59.42.070,Simcolourproject_2stim_asymm_v5,2020.2.10,Win32,60,61025ae37ef11b136ea224fe,,,,,,,,,3824,84.0000127,-40.80000705,1,0,0,response3disk,,5,7.200011551,13.59999377,1,0,0,rectangle,7.200011551,13.59999377,1,0,0,7.200011551,13.59999377,1,0,0,0,76,76,53,1,,,,,,,,
,,,,,,,,,,,,,FF,,,,,,,,1.7831,,,,,,,,,,,,,,,,,,,,,,6100b7d1d121da73b60c7b6e,61036ad27baab5273ba77ca5,2021-07-30_04h59.42.070,Simcolourproject_2stim_asymm_v5,2020.2.10,Win32,60,61025ae37ef11b136ea224fe,,,,,,,,,1772,46.40001214,-87.20000774,1,0,0,response3disk,,4,-1.59998858,15.19999379,1,0,0,rectangle,-1.59998858,15.19999379,1,0,0,-1.59998858,15.19999379,1,0,0,0,77,77,119,1,,,,,,,,
,,,,,,,,,,,,,FF,,,,,,,,1.1999,,,,,,,,,,,,,,,,,,,,,,6100b7d1d121da73b60c7b6e,61036ad27baab5273ba77ca5,2021-07-30_04h59.42.070,Simcolourproject_2stim_asymm_v5,2020.2.10,Win32,60,61025ae37ef11b136ea224fe,,,,,,,,,658,49.60006101,-68.80000746,1,0,0,response3disk,,4,7.200011551,3.19999361,1,0,0,rectangle,7.200011551,3.19999361,1,0,0,7.200011551,3.19999361,1,0,0,0,78,78,6,1,,,,,,,,
,,,,,,,,,,,,,FF,,,,,,,,1.3165,,,,,,,,,,,,,,,,,,,,,,6100b7d1d121da73b60c7b6e,61036ad27baab5273ba77ca5,2021-07-30_04h59.42.070,Simcolourproject_2stim_asymm_v5,2020.2.10,Win32,60,61025ae37ef11b136ea224fe,,,,,,,,,2449,61.60001236,55.19996997,1,0,0,response1disk,,6,16.80001169,15.9999938,1,0,0,rectangle,16.80001169,15.9999938,1,0,0,16.80001169,15.9999938,1,0,0,0,79,79,155,1,,,,,,,,
,,,,,,,,,,,,,FF,,,,,,,,1.4998,,,,,,,,,,,,,,,,,,,,,,6100b7d1d121da73b60c7b6e,61036ad27baab5273ba77ca5,2021-07-30_04h59.42.070,Simcolourproject_2stim_asymm_v5,2020.2.10,Win32,60,61025ae37ef11b136ea224fe,,,,,,,,,2914,75.20001256,53.59999436,1,0,0,response1disk,,6,18.40001172,10.39999372,1,0,0,rectangle,18.40001172,10.39999372,1,0,0,18.40001172,10.39999372,1,0,0,0,80,80,88,1,,,,,,,,
,,,,,,,,,,,,,FF,,,,,,,,1.6169,,,,,,,,,,,,,,,,,,,,,,6100b7d1d121da73b60c7b6e,61036ad27baab5273ba77ca5,2021-07-30_04h59.42.070,Simcolourproject_2stim_asymm_v5,2020.2.10,Win32,60,61025ae37ef11b136ea224fe,,,,,,,,,160,-55.99998939,-67.20000744,1,0,0,response5disk,,3,-4.799988627,0.799993575,1,0,0,rectangle,-4.799988627,0.799993575,1,0,0,-4.799988627,0.799993575,1,0,0,0,81,81,67,1,,,,,,,,
,,,,,,,,,,,,,FF,,,,,,,,1.0565,,,,,,,,,,,,,,,,,,,,,,6100b7d1d121da73b60c7b6e,61036ad27baab5273ba77ca5,2021-07-30_04h59.42.070,Simcolourproject_2stim_asymm_v5,2020.2.10,Win32,60,61025ae37ef11b136ea224fe,,,,,,,,,4324,43.20001209,52.79999435,1,0,0,response1disk,,7,11.20001161,10.39999372,1,0,0,rectangle,11.20001161,10.39999372,1,0,0,11.20001161,10.39999372,1,0,0,0,82,82,108,1,,,,,,,,
,,,,,,,,,,,,,FF,,,,,,,,1.366,,,,,,,,,,,,,,,,,,,,,,6100b7d1d121da73b60c7b6e,61036ad27baab5273ba77ca5,2021-07-30_04h59.42.070,Simcolourproject_2stim_asymm_v5,2020.2.10,Win32,60,61025ae37ef11b136ea224fe,,,,,,,,,3874,37.60006083,71.19997021,1,0,0,response1disk,,7,11.20001161,11.19999373,1,0,0,rectangle,11.20001161,11.19999373,1,0,0,11.20001161,11.19999373,1,0,0,0,83,83,99,1,,,,,,,,
,,,,,,,,,,,,,FF,,,,,,,,3.1325,,,,,,,,,,,,,,,,,,,,,,6100b7d1d121da73b60c7b6e,61036ad27baab5273ba77ca5,2021-07-30_04h59.42.070,Simcolourproject_2stim_asymm_v5,2020.2.10,Win32,60,61025ae37ef11b136ea224fe,,,,,,,,,976,-65.59998953,-109.6000569,1,0,0,response5disk,,3,-0.799988568,2.399993598,1,0,0,rectangle,-0.799988568,2.399993598,1,0,0,-0.799988568,2.399993598,1,0,0,0,84,84,35,1,,,,,,,,
,,,,,,,,,,,,,FF,,,,,,,,2.7828,,,,,,,,,,,,,,,,,,,,,,6100b7d1d121da73b60c7b6e,61036ad27baab5273ba77ca5,2021-07-30_04h59.42.070,Simcolourproject_2stim_asymm_v5,2020.2.10,Win32,60,61025ae37ef11b136ea224fe,,,,,,,,,3779,68.00001246,-47.20000714,1,0,0,response3disk,,5,22.40001178,-0.800006449,1,0,0,rectangle,22.40001178,-0.800006449,1,0,0,22.40001178,-0.800006449,1,0,0,0,85,85,83,1,,,,,,,,
,,,,,,,,,,,,,FF,,,,,,,,0.9831,,,,,,,,,,,,,,,,,,,,,,6100b7d1d121da73b60c7b6e,61036ad27baab5273ba77ca5,2021-07-30_04h59.42.070,Simcolourproject_2stim_asymm_v5,2020.2.10,Win32,60,61025ae37ef11b136ea224fe,,,,,,,,,2690,44.80001211,-80.80000764,1,0,0,response3disk,,4,-7.199988663,16.79999381,1,0,0,rectangle,-7.199988663,16.79999381,1,0,0,-7.199988663,16.79999381,1,0,0,0,86,86,134,1,,,,,,,,
,,,,,,,,,,,,,FF,,,,,,,,1.4667,,,,,,,,,,,,,,,,,,,,,,6100b7d1d121da73b60c7b6e,61036ad27baab5273ba77ca5,2021-07-30_04h59.42.070,Simcolourproject_2stim_asymm_v5,2020.2.10,Win32,60,61025ae37ef11b136ea224fe,,,,,,,,,1133,35.20001197,-76.00000757,1,0,0,response3disk,,4,1.14441E-05,1.599993587,1,0,0,rectangle,1.14441E-05,1.599993587,1,0,0,1.14441E-05,1.599993587,1,0,0,0,87,87,34,1,,,,,,,,
,,,,,,,,,,,,,FF,,,,,,,,1.4506,,,,,,,,,,,,,,,,,,,,,,6100b7d1d121da73b60c7b6e,61036ad27baab5273ba77ca5,2021-07-30_04h59.42.070,Simcolourproject_2stim_asymm_v5,2020.2.10,Win32,60,61025ae37ef11b136ea224fe,,,,,,,,,3944,47.20001215,-54.40000725,1,0,0,response3disk,,4,2.40001148,7.19999367,1,0,0,rectangle,2.40001148,7.19999367,1,0,0,2.40001148,7.19999367,1,0,0,0,88,88,46,1,,,,,,,,
,,,,,,,,,,,,,FF,,,,,,,,1.7899,,,,,,,,,,,,,,,,,,,,,,6100b7d1d121da73b60c7b6e,61036ad27baab5273ba77ca5,2021-07-30_04h59.42.070,Simcolourproject_2stim_asymm_v5,2020.2.10,Win32,60,61025ae37ef11b136ea224fe,,,,,,,,,2653,-59.99998945,-74.40000755,1,0,0,response5disk,,3,-18.39994,7.999993682,1,0,0,rectangle,-18.39994,7.999993682,1,0,0,-18.39994,7.999993682,1,0,0,0,89,89,149,1,,,,,,,,
,,,,,,,,,,,,,FF,,,,,,,,1.2993,,,,,,,,,,,,,,,,,,,,,,6100b7d1d121da73b60c7b6e,61036ad27baab5273ba77ca5,2021-07-30_04h59.42.070,Simcolourproject_2stim_asymm_v5,2020.2.10,Win32,60,61025ae37ef11b136ea224fe,,,,,,,,,1348,66.40001243,47.99999428,1,0,0,response1disk,,6,28.00001186,9.599993706,1,0,0,rectangle,28.00001186,9.599993706,1,0,0,28.00001186,9.599993706,1,0,0,0,90,90,151,1,,,,,,,,
,,,,,,,,,,,,,FF,,,,,,,,1.7435,,,,,,,,,,,,,,,,,,,,,,6100b7d1d121da73b60c7b6e,61036ad27baab5273ba77ca5,2021-07-30_04h59.42.070,Simcolourproject_2stim_asymm_v5,2020.2.10,Win32,60,61025ae37ef11b136ea224fe,,,,,,,,,895,-94.39994113,-52.80000722,1,0,0,response5disk,,2,4.800011516,3.999993622,1,0,0,rectangle,4.800011516,3.999993622,1,0,0,4.800011516,3.999993622,1,0,0,0,91,91,21,1,,,,,,,,
,,,,,,,,,,,,,FF,,,,,,,,1.3738,,,,,,,,,,,,,,,,,,,,,,6100b7d1d121da73b60c7b6e,61036ad27baab5273ba77ca5,2021-07-30_04h59.42.070,Simcolourproject_2stim_asymm_v5,2020.2.10,Win32,60,61025ae37ef11b136ea224fe,,,,,,,,,602,80.00001264,33.59999406,1,0,0,response1disk,,6,18.40001172,-11.2000066,1,0,0,rectangle,18.40001172,-11.2000066,1,0,0,18.40001172,-11.2000066,1,0,0,0,92,92,61,1,,,,,,,,
,,,,,,,,,,,,,FF,,,,,,,,2.0665,,,,,,,,,,,,,,,,,,,,,,6100b7d1d121da73b60c7b6e,61036ad27baab5273ba77ca5,2021-07-30_04h59.42.070,Simcolourproject_2stim_asymm_v5,2020.2.10,Win32,60,61025ae37ef11b136ea224fe,,,,,,,,,1761,72.80001253,-51.2000072,1,0,0,response3disk,,5,13.60006047,3.999993622,1,0,0,rectangle,13.60006047,3.999993622,1,0,0,13.60006047,3.999993622,1,0,0,0,93,93,136,1,,,,,,,,
,,,,,,,,,,,,,FF,,,,,,,,1.5999,,,,,,,,,,,,,,,,,,,,,,6100b7d1d121da73b60c7b6e,61036ad27baab5273ba77ca5,2021-07-30_04h59.42.070,Simcolourproject_2stim_asymm_v5,2020.2.10,Win32,60,61025ae37ef11b136ea224fe,,,,,,,,,424,-45.59998924,-72.00000751,1,0,0,response5disk,,3,11.20001161,8.799993694,1,0,0,rectangle,11.20001161,8.799993694,1,0,0,11.20001161,8.799993694,1,0,0,0,94,94,69,1,,,,,,,,
,,,,,,,,,,,,,FF,,,,,,,,1.5603,,,,,,,,,,,,,,,,,,,,,,6100b7d1d121da73b60c7b6e,61036ad27baab5273ba77ca5,2021-07-30_04h59.42.070,Simcolourproject_2stim_asymm_v5,2020.2.10,Win32,60,61025ae37ef11b136ea224fe,,,,,,,,,3841,52.00001222,-36.80000699,1,0,0,response3disk,,5,4.800011516,-4.000006497,1,0,0,rectangle,4.800011516,-4.000006497,1,0,0,4.800011516,-4.000006497,1,0,0,0,95,95,94,1,,,,,,,,
,,,,,,,,,,,,,FF,,,,,,,,1.1835,,,,,,,,,,,,,,,,,,,,,,6100b7d1d121da73b60c7b6e,61036ad27baab5273ba77ca5,2021-07-30_04h59.42.070,Simcolourproject_2stim_asymm_v5,2020.2.10,Win32,60,61025ae37ef11b136ea224fe,,,,,,,,,250,-32.79998904,-57.6000073,1,0,0,response5disk,,3,-3.199988604,-8.800006568,1,0,0,rectangle,-3.199988604,-8.800006568,1,0,0,-3.199988604,-8.800006568,1,0,0,0,96,96,42,1,,,,,,,,
,,,,,,,,,,,,,FF,,,,,,,,1.5996,,,,,,,,,,,,,,,,,,,,,,6100b7d1d121da73b60c7b6e,61036ad27baab5273ba77ca5,2021-07-30_04h59.42.070,Simcolourproject_2stim_asymm_v5,2020.2.10,Win32,60,61025ae37ef11b136ea224fe,,,,,,,,,611,-39.19998914,-74.40000755,1,0,0,response5disk,,3,19.20001173,1.599993587,1,0,0,rectangle,19.20001173,1.599993587,1,0,0,19.20001173,1.599993587,1,0,0,0,97,97,3,1,,,,,,,,
,,,,,,,,,,,,,FF,,,,,,,,1.3334,,,,,,,,,,,,,,,,,,,,,,6100b7d1d121da73b60c7b6e,61036ad27baab5273ba77ca5,2021-07-30_04h59.42.070,Simcolourproject_2stim_asymm_v5,2020.2.10,Win32,60,61025ae37ef11b136ea224fe,,,,,,,,,2912,20.80001175,74.39999467,1,0,0,response1disk,,7,-6.399939823,13.59999377,1,0,0,rectangle,-6.399939823,13.59999377,1,0,0,-6.399939823,13.59999377,1,0,0,0,98,98,48,1,,,,,,,,
,,,,,,,,,,,,,FF,,,,,,,,1.1662,,,,,,,,,,,,,,,,,,,,,,6100b7d1d121da73b60c7b6e,61036ad27baab5273ba77ca5,2021-07-30_04h59.42.070,Simcolourproject_2stim_asymm_v5,2020.2.10,Win32,60,61025ae37ef11b136ea224fe,,,,,,,,,2845,36.80001199,90.39999491,1,0,0,response1disk,,7,4.000011504,0.799993575,1,0,0,rectangle,4.000011504,0.799993575,1,0,0,4.000011504,0.799993575,1,0,0,0,99,99,37,1,,,,,,,,
,,,,,,,,,,,,,FF,,,,,,,,1.4498,,,,,,,,,,,,,,,,,,,,,,6100b7d1d121da73b60c7b6e,61036ad27baab5273ba77ca5,2021-07-30_04h59.42.070,Simcolourproject_2stim_asymm_v5,2020.2.10,Win32,60,61025ae37ef11b136ea224fe,,,,,,,,,3810,-37.59998912,79.19997033,1,0,0,response7disk,,0,11.20001161,3.19999361,1,0,0,rectangle,11.20001161,3.19999361,1,0,0,11.20001161,3.19999361,1,0,0,0,100,100,123,1,,,,,,,,
,,,,,,,,,,,,,FF,,,,,,,,1.6665,,,,,,,,,,,,,,,,,,,,,,6100b7d1d121da73b60c7b6e,61036ad27baab5273ba77ca5,2021-07-30_04h59.42.070,Simcolourproject_2stim_asymm_v5,2020.2.10,Win32,60,61025ae37ef11b136ea224fe,,,,,,,,,2603,33.60006077,-60.80000734,1,0,0,response3disk,,4,5.600060356,-13.60000664,1,0,0,rectangle,5.600060356,-13.60000664,1,0,0,5.600060356,-13.60000664,1,0,0,0,101,101,85,1,,,,,,,,
,,,,,,,,,,,,,FF,,,,,,,,1.1165,,,,,,,,,,,,,,,,,,,,,,6100b7d1d121da73b60c7b6e,61036ad27baab5273ba77ca5,2021-07-30_04h59.42.070,Simcolourproject_2stim_asymm_v5,2020.2.10,Win32,60,61025ae37ef11b136ea224fe,,,,,,,,,248,-38.3999403,-62.40000737,1,0,0,response5disk,,3,-0.799988568,-2.400006473,1,0,0,rectangle,-0.799988568,-2.400006473,1,0,0,-0.799988568,-2.400006473,1,0,0,0,102,102,62,1,,,,,,,,
,,,,,,,,,,,,,FF,,,,,,,,1.0662,,,,,,,,,,,,,,,,,,,,,,6100b7d1d121da73b60c7b6e,61036ad27baab5273ba77ca5,2021-07-30_04h59.42.070,Simcolourproject_2stim_asymm_v5,2020.2.10,Win32,60,61025ae37ef11b136ea224fe,,,,,,,,,201,46.40001214,-68.80000746,1,0,0,response3disk,,4,-3.999988616,9.599993706,1,0,0,rectangle,-3.999988616,9.599993706,1,0,0,-3.999988616,9.599993706,1,0,0,0,103,103,106,1,,,,,,,,
,,,,,,,,,,,,,FF,,,,,,,,0.9669,,,,,,,,,,,,,,,,,,,,,,6100b7d1d121da73b60c7b6e,61036ad27baab5273ba77ca5,2021-07-30_04h59.42.070,Simcolourproject_2stim_asymm_v5,2020.2.10,Win32,60,61025ae37ef11b136ea224fe,,,,,,,,,717,-26.39994012,67.99999458,1,0,0,response7disk,,0,16.80001169,-1.600006461,1,0,0,rectangle,16.80001169,-1.600006461,1,0,0,16.80001169,-1.600006461,1,0,0,0,104,104,50,1,,,,,,,,
,,,,,,,,,,,,,FF,,,,,,,,1.2996,,,,,,,,,,,,,,,,,,,,,,6100b7d1d121da73b60c7b6e,61036ad27baab5273ba77ca5,2021-07-30_04h59.42.070,Simcolourproject_2stim_asymm_v5,2020.2.10,Win32,60,61025ae37ef11b136ea224fe,,,,,,,,,3366,52.00001222,-33.60000694,1,0,0,response3disk,,5,-0.799988568,11.19999373,1,0,0,rectangle,-0.799988568,11.19999373,1,0,0,-0.799988568,11.19999373,1,0,0,0,105,105,56,1,,,,,,,,
,,,,,,,,,,,,,FF,,,,,,,,1.5167,,,,,,,,,,,,,,,,,,,,,,6100b7d1d121da73b60c7b6e,61036ad27baab5273ba77ca5,2021-07-30_04h59.42.070,Simcolourproject_2stim_asymm_v5,2020.2.10,Win32,60,61025ae37ef11b136ea224fe,,,,,,,,,2385,59.20001233,23.19996949,1,0,0,response1disk,,6,5.600060356,15.9999938,1,0,0,rectangle,5.600060356,15.9999938,1,0,0,5.600060356,15.9999938,1,0,0,0,106,106,137,1,,,,,,,,
,,,,,,,,,,,,,FF,,,,,,,,1.3171,,,,,,,,,,,,,,,,,,,,,,6100b7d1d121da73b60c7b6e,61036ad27baab5273ba77ca5,2021-07-30_04h59.42.070,Simcolourproject_2stim_asymm_v5,2020.2.10,Win32,60,61025ae37ef11b136ea224fe,,,,,,,,,2440,40.00001204,76.79999471,1,0,0,response1disk,,7,12.00001162,7.999993682,1,0,0,rectangle,12.00001162,7.999993682,1,0,0,12.00001162,7.999993682,1,0,0,0,107,107,55,1,,,,,,,,
,,,,,,,,,,,,,FF,,,,,,,,0.9667,,,,,,,,,,,,,,,,,,,,,,6100b7d1d121da73b60c7b6e,61036ad27baab5273ba77ca5,2021-07-30_04h59.42.070,Simcolourproject_2stim_asymm_v5,2020.2.10,Win32,60,61025ae37ef11b136ea224fe,,,,,,,,,3925,54.40001225,70.39999461,1,0,0,response1disk,,7,16.80001169,10.39999372,1,0,0,rectangle,16.80001169,10.39999372,1,0,0,16.80001169,10.39999372,1,0,0,0,108,108,0,1,,,,,,,,
,,,,,,,,,,,,,FF,,,,,,,,2.1667,,,,,,,,,,,,,,,,,,,,,,6100b7d1d121da73b60c7b6e,61036ad27baab5273ba77ca5,2021-07-30_04h59.42.070,Simcolourproject_2stim_asymm_v5,2020.2.10,Win32,60,61025ae37ef11b136ea224fe,,,,,,,,,3896,-27.19998896,-96.80000788,1,0,0,response5disk,,3,12.00001162,-4.800006509,1,0,0,rectangle,12.00001162,-4.800006509,1,0,0,12.00001162,-4.800006509,1,0,0,0,109,109,4,1,,,,,,,,
,,,,,,,,,,,,,FF,,,,,,,,1.25,,,,,,,,,,,,,,,,,,,,,,6100b7d1d121da73b60c7b6e,61036ad27baab5273ba77ca5,2021-07-30_04h59.42.070,Simcolourproject_2stim_asymm_v5,2020.2.10,Win32,60,61025ae37ef11b136ea224fe,,,,,,,,,2678,25.60006065,-60.00000733,1,0,0,response3disk,,4,-2.399939764,-2.400006473,1,0,0,rectangle,-2.399939764,-2.400006473,1,0,0,-2.399939764,-2.400006473,1,0,0,0,110,110,8,1,,,,,,,,
,,,,,,,,,,,,,FF,,,,,,,,0.9663,,,,,,,,,,,,,,,,,,,,,,6100b7d1d121da73b60c7b6e,61036ad27baab5273ba77ca5,2021-07-30_04h59.42.070,Simcolourproject_2stim_asymm_v5,2020.2.10,Win32,60,61025ae37ef11b136ea224fe,,,,,,,,,290,52.80001223,82.39999479,1,0,0,response1disk,,7,0.800011456,-4.800006509,1,0,0,rectangle,0.800011456,-4.800006509,1,0,0,0.800011456,-4.800006509,1,0,0,0,111,111,71,1,,,,,,,,
,,,,,,,,,,,,,FF,,,,,,,,1.2662,,,,,,,,,,,,,,,,,,,,,,6100b7d1d121da73b60c7b6e,61036ad27baab5273ba77ca5,2021-07-30_04h59.42.070,Simcolourproject_2stim_asymm_v5,2020.2.10,Win32,60,61025ae37ef11b136ea224fe,,,,,,,,,2846,58.40001231,31.19996961,1,0,0,response1disk,,6,-1.59998858,-16.00000668,1,0,0,rectangle,-1.59998858,-16.00000668,1,0,0,-1.59998858,-16.00000668,1,0,0,0,112,112,2,1,,,,,,,,
,,,,,,,,,,,,,FF,,,,,,,,1.4331,,,,,,,,,,,,,,,,,,,,,,6100b7d1d121da73b60c7b6e,61036ad27baab5273ba77ca5,2021-07-30_04h59.42.070,Simcolourproject_2stim_asymm_v5,2020.2.10,Win32,60,61025ae37ef11b136ea224fe,,,,,,,,,1375,-44.79998922,-68.80000746,1,0,0,response5disk,,3,-3.199988604,-12.00000662,1,0,0,rectangle,-3.199988604,-12.00000662,1,0,0,-3.199988604,-12.00000662,1,0,0,0,113,113,73,1,,,,,,,,
,,,,,,,,,,,,,FF,,,,,,,,1.1,,,,,,,,,,,,,,,,,,,,,,6100b7d1d121da73b60c7b6e,61036ad27baab5273ba77ca5,2021-07-30_04h59.42.070,Simcolourproject_2stim_asymm_v5,2020.2.10,Win32,60,61025ae37ef11b136ea224fe,,,,,,,,,3337,46.40001214,95.19997057,1,0,0,response1disk,,7,16.80001169,7.999993682,1,0,0,rectangle,-74.39994084,-41.60000706,1,0,0,-4.799988627,-0.800006449,1,0,0,0,114,114,81,1,,response5disk_3,TRUE,2,2,"[170,5,301,279,263,148,169,272,158,237,238,194,192,140,255,115,163,176,157,293]",3.1328,rectangle
,,,,,,,,,,,,,FF,,,,,,,,1.2667,,,,,,,,,,,,,,,,,,,,,,6100b7d1d121da73b60c7b6e,61036ad27baab5273ba77ca5,2021-07-30_04h59.42.070,Simcolourproject_2stim_asymm_v5,2020.2.10,Win32,60,61025ae37ef11b136ea224fe,,,,,,,,,2561,45.60006095,-64.8000074,1,0,0,response3disk,,4,8.000011563,-7.200006545,1,0,0,rectangle,8.000011563,-7.200006545,1,0,0,8.000011563,-7.200006545,1,0,0,0,115,115,28,1,,,,,,,,
,,,,,,,,,,,,,FF,,,,,,,,1.3678,,,,,,,,,,,,,,,,,,,,,,6100b7d1d121da73b60c7b6e,61036ad27baab5273ba77ca5,2021-07-30_04h59.42.070,Simcolourproject_2stim_asymm_v5,2020.2.10,Win32,60,61025ae37ef11b136ea224fe,,,,,,,,,3223,49.60006101,80.79999477,1,0,0,response1disk,,7,9.600060415,6.399993658,1,0,0,rectangle,9.600060415,6.399993658,1,0,0,9.600060415,6.399993658,1,0,0,0,116,116,60,1,,,,,,,,
,,,,,,,,,,,,,FF,,,,,,,,1.3161,,,,,,,,,,,,,,,,,,,,,,6100b7d1d121da73b60c7b6e,61036ad27baab5273ba77ca5,2021-07-30_04h59.42.070,Simcolourproject_2stim_asymm_v5,2020.2.10,Win32,60,61025ae37ef11b136ea224fe,,,,,,,,,2034,-75.19998968,-40.00000703,1,0,0,response5disk,,2,-4.799988627,-11.2000066,1,0,0,rectangle,-4.799988627,-11.2000066,1,0,0,-4.799988627,-11.2000066,1,0,0,0,117,117,144,1,,,,,,,,
,,,,,,,,,,,,,FF,,,,,,,,1.5837,,,,,,,,,,,,,,,,,,,,,,6100b7d1d121da73b60c7b6e,61036ad27baab5273ba77ca5,2021-07-30_04h59.42.070,Simcolourproject_2stim_asymm_v5,2020.2.10,Win32,60,61025ae37ef11b136ea224fe,,,,,,,,,1225,-68.79998958,-33.60000694,1,0,0,response5disk,,2,-7.199988663,-4.000006497,1,0,0,rectangle,-7.199988663,-4.000006497,1,0,0,-7.199988663,-4.000006497,1,0,0,0,118,118,115,1,,,,,,,,
,,,,,,,,,,,,,FF,,,,,,,,1.7236,,,,,,,,,,,,,,,,,,,,,,6100b7d1d121da73b60c7b6e,61036ad27baab5273ba77ca5,2021-07-30_04h59.42.070,Simcolourproject_2stim_asymm_v5,2020.2.10,Win32,60,61025ae37ef11b136ea224fe,,,,,,,,,4066,46.40001214,-44.8000071,1,0,0,response3disk,,5,-3.199988604,9.599993706,1,0,0,rectangle,-3.199988604,9.599993706,1,0,0,-3.199988604,9.599993706,1,0,0,0,119,119,152,1,,,,,,,,
,,,,,,,,,,,,,FF,,,,,,,,0.9339,,,,,,,,,,,,,,,,,,,,,,6100b7d1d121da73b60c7b6e,61036ad27baab5273ba77ca5,2021-07-30_04h59.42.070,Simcolourproject_2stim_asymm_v5,2020.2.10,Win32,60,61025ae37ef11b136ea224fe,,,,,,,,,4041,59.20001233,-34.40000695,1,0,0,response3disk,,5,2.40001148,-1.600006461,1,0,0,rectangle,2.40001148,-1.600006461,1,0,0,2.40001148,-1.600006461,1,0,0,0,120,120,126,1,,,,,,,,
,,,,,,,,,,,,,FF,,,,,,,,1.4163,,,,,,,,,,,,,,,,,,,,,,6100b7d1d121da73b60c7b6e,61036ad27baab5273ba77ca5,2021-07-30_04h59.42.070,Simcolourproject_2stim_asymm_v5,2020.2.10,Win32,60,61025ae37ef11b136ea224fe,,,,,,,,,3145,46.40001214,84.79999483,1,0,0,response1disk,,7,1.14441E-05,14.39999378,1,0,0,rectangle,1.14441E-05,14.39999378,1,0,0,1.14441E-05,14.39999378,1,0,0,0,121,121,49,1,,,,,,,,
,,,,,,,,,,,,,FF,,,,,,,,1.0333,,,,,,,,,,,,,,,,,,,,,,6100b7d1d121da73b60c7b6e,61036ad27baab5273ba77ca5,2021-07-30_04h59.42.070,Simcolourproject_2stim_asymm_v5,2020.2.10,Win32,60,61025ae37ef11b136ea224fe,,,,,,,,,3372,-67.19998956,35.19996967,1,0,0,response7disk,,1,2.40001148,-8.800006568,1,0,0,rectangle,2.40001148,-8.800006568,1,0,0,2.40001148,-8.800006568,1,0,0,0,122,122,87,1,,,,,,,,
,,,,,,,,,,,,,FF,,,,,,,,1.1567,,,,,,,,,,,,,,,,,,,,,,6100b7d1d121da73b60c7b6e,61036ad27baab5273ba77ca5,2021-07-30_04h59.42.070,Simcolourproject_2stim_asymm_v5,2020.2.10,Win32,60,61025ae37ef11b136ea224fe,,,,,,,,,3125,63.20001239,38.39999413,1,0,0,response1disk,,6,16.00001168,15.9999938,1,0,0,rectangle,16.00001168,15.9999938,1,0,0,16.00001168,15.9999938,1,0,0,0,123,123,57,1,,,,,,,,
,,,,,,,,,,,,,FF,,,,,,,,2.067,,,,,,,,,,,,,,,,,,,,,,6100b7d1d121da73b60c7b6e,61036ad27baab5273ba77ca5,2021-07-30_04h59.42.070,Simcolourproject_2stim_asymm_v5,2020.2.10,Win32,60,61025ae37ef11b136ea224fe,,,,,,,,,2664,-30.39994018,-84.8000077,1,0,0,response5disk,,3,20.80001175,-5.600006521,1,0,0,rectangle,20.80001175,-5.600006521,1,0,0,20.80001175,-5.600006521,1,0,0,0,124,124,59,1,,,,,,,,
,,,,,,,,,,,,,FF,,,,,,,,0.9067,,,,,,,,,,,,,,,,,,,,,,6100b7d1d121da73b60c7b6e,61036ad27baab5273ba77ca5,2021-07-30_04h59.42.070,Simcolourproject_2stim_asymm_v5,2020.2.10,Win32,60,61025ae37ef11b136ea224fe,,,,,,,,,558,57.6000123,-28.00000685,1,0,0,response3disk,,5,7.200011551,3.999993622,1,0,0,rectangle,7.200011551,3.999993622,1,0,0,7.200011551,3.999993622,1,0,0,0,125,125,19,1,,,,,,,,
,,,,,,,,,,,,,FF,,,,,,,,0.8171,,,,,,,,,,,,,,,,,,,,,,6100b7d1d121da73b60c7b6e,61036ad27baab5273ba77ca5,2021-07-30_04h59.42.070,Simcolourproject_2stim_asymm_v5,2020.2.10,Win32,60,61025ae37ef11b136ea224fe,,,,,,,,,786,92.80001283,-39.20000702,1,0,0,response3disk,,5,11.20001161,-3.200006485,1,0,0,rectangle,11.20001161,-3.200006485,1,0,0,11.20001161,-3.200006485,1,0,0,0,126,126,31,1,,,,,,,,
,,,,,,,,,,,,,FF,,,,,,,,1.2166,,,,,,,,,,,,,,,,,,,,,,6100b7d1d121da73b60c7b6e,61036ad27baab5273ba77ca5,2021-07-30_04h59.42.070,Simcolourproject_2stim_asymm_v5,2020.2.10,Win32,60,61025ae37ef11b136ea224fe,,,,,,,,,3763,55.20001227,95.19997057,1,0,0,response1disk,,7,4.000011504,3.19999361,1,0,0,rectangle,4.000011504,3.19999361,1,0,0,4.000011504,3.19999361,1,0,0,0,127,127,150,1,,,,,,,,
,,,,,,,,,,,,,FF,,,,,,,,1.4605,,,,,,,,,,,,,,,,,,,,,,6100b7d1d121da73b60c7b6e,61036ad27baab5273ba77ca5,2021-07-30_04h59.42.070,Simcolourproject_2stim_asymm_v5,2020.2.10,Win32,60,61025ae37ef11b136ea224fe,,,,,,,,,2569,76.00001258,30.39999402,1,0,0,response1disk,,6,19.20001173,-8.000006557,1,0,0,rectangle,19.20001173,-8.000006557,1,0,0,19.20001173,-8.000006557,1,0,0,0,128,128,110,1,,,,,,,,
,,,,,,,,,,,,,FF,,,,,,,,1.5,,,,,,,,,,,,,,,,,,,,,,6100b7d1d121da73b60c7b6e,61036ad27baab5273ba77ca5,2021-07-30_04h59.42.070,Simcolourproject_2stim_asymm_v5,2020.2.10,Win32,60,61025ae37ef11b136ea224fe,,,,,,,,,2259,48.80001217,87.19997045,1,0,0,response1disk,,7,5.600060356,0.799993575,1,0,0,rectangle,5.600060356,0.799993575,1,0,0,5.600060356,0.799993575,1,0,0,0,129,129,143,1,,,,,,,,
,,,,,,,,,,,,,FF,,,,,,,,1.2163,,,,,,,,,,,,,,,,,,,,,,6100b7d1d121da73b60c7b6e,61036ad27baab5273ba77ca5,2021-07-30_04h59.42.070,Simcolourproject_2stim_asymm_v5,2020.2.10,Win32,60,61025ae37ef11b136ea224fe,,,,,,,,,4297,48.80001217,83.19997039,1,0,0,response1disk,,7,9.600060415,5.599993646,1,0,0,rectangle,9.600060415,5.599993646,1,0,0,9.600060415,5.599993646,1,0,0,0,130,130,39,1,,,,,,,,
,,,,,,,,,,,,,FF,,,,,,,,1.4126,,,,,,,,,,,,,,,,,,,,,,6100b7d1d121da73b60c7b6e,61036ad27baab5273ba77ca5,2021-07-30_04h59.42.070,Simcolourproject_2stim_asymm_v5,2020.2.10,Win32,60,61025ae37ef11b136ea224fe,,,,,,,,,3376,57.6000123,82.39999479,1,0,0,response1disk,,7,0.800011456,-4.800006509,1,0,0,rectangle,0.800011456,-4.800006509,1,0,0,0.800011456,-4.800006509,1,0,0,0,131,131,10,1,,,,,,,,
,,,,,,,,,,,,,FF,,,,,,,,1.0328,,,,,,,,,,,,,,,,,,,,,,6100b7d1d121da73b60c7b6e,61036ad27baab5273ba77ca5,2021-07-30_04h59.42.070,Simcolourproject_2stim_asymm_v5,2020.2.10,Win32,60,61025ae37ef11b136ea224fe,,,,,,,,,2852,57.6000123,83.19997039,1,0,0,response1disk,,7,11.20001161,10.39999372,1,0,0,rectangle,11.20001161,10.39999372,1,0,0,11.20001161,10.39999372,1,0,0,0,132,132,15,1,,,,,,,,
,,,,,,,,,,,,,FF,,,,,,,,1.1165,,,,,,,,,,,,,,,,,,,,,,6100b7d1d121da73b60c7b6e,61036ad27baab5273ba77ca5,2021-07-30_04h59.42.070,Simcolourproject_2stim_asymm_v5,2020.2.10,Win32,60,61025ae37ef11b136ea224fe,,,,,,,,,1651,51.20001221,67.99999458,1,0,0,response1disk,,7,9.600060415,-6.4373E-06,1,0,0,rectangle,9.600060415,-6.4373E-06,1,0,0,9.600060415,-6.4373E-06,1,0,0,0,133,133,74,1,,,,,,,,
,,,,,,,,,,,,,FF,,,,,,,,0.867,,,,,,,,,,,,,,,,,,,,,,6100b7d1d121da73b60c7b6e,61036ad27baab5273ba77ca5,2021-07-30_04h59.42.070,Simcolourproject_2stim_asymm_v5,2020.2.10,Win32,60,61025ae37ef11b136ea224fe,,,,,,,,,2093,-26.39994012,76.79999471,1,0,0,response7disk,,0,-0.799988568,5.599993646,1,0,0,rectangle,-0.799988568,5.599993646,1,0,0,-0.799988568,5.599993646,1,0,0,0,134,134,102,1,,,,,,,,
,,,,,,,,,,,,,FF,,,,,,,,0.9839,,,,,,,,,,,,,,,,,,,,,,6100b7d1d121da73b60c7b6e,61036ad27baab5273ba77ca5,2021-07-30_04h59.42.070,Simcolourproject_2stim_asymm_v5,2020.2.10,Win32,60,61025ae37ef11b136ea224fe,,,,,,,,,2171,-93.59998995,31.99999404,1,0,0,response7disk,,1,-21.59998888,3.999993622,1,0,0,rectangle,-21.59998888,3.999993622,1,0,0,-21.59998888,3.999993622,1,0,0,0,135,135,11,1,,,,,,,,
,,,,,,,,,,,,,FF,,,,,,,,1.4821,,,,,,,,,,,,,,,,,,,,,,6100b7d1d121da73b60c7b6e,61036ad27baab5273ba77ca5,2021-07-30_04h59.42.070,Simcolourproject_2stim_asymm_v5,2020.2.10,Win32,60,61025ae37ef11b136ea224fe,,,,,,,,,1830,-35.99998909,-84.8000077,1,0,0,response5disk,,3,-2.399939764,-10.40000659,1,0,0,rectangle,-2.399939764,-10.40000659,1,0,0,-2.399939764,-10.40000659,1,0,0,0,136,136,154,1,,,,,,,,
,,,,,,,,,,,,,FF,,,,,,,,1.2664,,,,,,,,,,,,,,,,,,,,,,6100b7d1d121da73b60c7b6e,61036ad27baab5273ba77ca5,2021-07-30_04h59.42.070,Simcolourproject_2stim_asymm_v5,2020.2.10,Win32,60,61025ae37ef11b136ea224fe,,,,,,,,,1932,68.00001246,47.99999428,1,0,0,response1disk,,6,1.14441E-05,-1.600006461,1,0,0,rectangle,1.14441E-05,-1.600006461,1,0,0,1.14441E-05,-1.600006461,1,0,0,0,137,137,157,1,,,,,,,,
,,,,,,,,,,,,,FF,,,,,,,,1.5326,,,,,,,,,,,,,,,,,,,,,,6100b7d1d121da73b60c7b6e,61036ad27baab5273ba77ca5,2021-07-30_04h59.42.070,Simcolourproject_2stim_asymm_v5,2020.2.10,Win32,60,61025ae37ef11b136ea224fe,,,,,,,,,3580,60.00001234,66.39999455,1,0,0,response1disk,,7,-3.199988604,10.39999372,1,0,0,rectangle,-3.199988604,10.39999372,1,0,0,-3.199988604,10.39999372,1,0,0,0,138,138,156,1,,,,,,,,
,,,,,,,,,,,,,FF,,,,,,,,2.0658,,,,,,,,,,,,,,,,,,,,,,6100b7d1d121da73b60c7b6e,61036ad27baab5273ba77ca5,2021-07-30_04h59.42.070,Simcolourproject_2stim_asymm_v5,2020.2.10,Win32,60,61025ae37ef11b136ea224fe,,,,,,,,,3553,-43.99998921,-112.8000081,1,0,0,response5disk,,3,1.600060296,-12.00000662,1,0,0,rectangle,-61.59998947,-76.00000757,1,0,0,1.600060296,-1.600006461,1,0,0,0,139,139,58,1,,response5disk_3,TRUE,3,2,"[170,5,301,279,263,148,169,272,158,237,238,194,192,140,255,115,163,176,157,293]",2.7486,rectangle
,,,,,,,,,,,,,FF,,,,,,,,2.1721,,,,,,,,,,,,,,,,,,,,,,6100b7d1d121da73b60c7b6e,61036ad27baab5273ba77ca5,2021-07-30_04h59.42.070,Simcolourproject_2stim_asymm_v5,2020.2.10,Win32,60,61025ae37ef11b136ea224fe,,,,,,,,,4252,-95.19998997,-49.60000718,1,0,0,response5disk,,2,-10.39993988,4.799993634,1,0,0,rectangle,-10.39993988,4.799993634,1,0,0,-10.39993988,4.799993634,1,0,0,0,140,140,75,1,,,,,,,,
,,,,,,,,,,,,,FF,,,,,,,,2.3667,,,,,,,,,,,,,,,,,,,,,,6100b7d1d121da73b60c7b6e,61036ad27baab5273ba77ca5,2021-07-30_04h59.42.070,Simcolourproject_2stim_asymm_v5,2020.2.10,Win32,60,61025ae37ef11b136ea224fe,,,,,,,,,808,-97.59999001,43.19996979,1,0,0,response7disk,,1,-13.59998876,16.79999381,1,0,0,rectangle,-13.59998876,16.79999381,1,0,0,-13.59998876,16.79999381,1,0,0,0,141,141,104,1,,,,,,,,
,,,,,,,,,,,,,FF,,,,,,,,1.116,,,,,,,,,,,,,,,,,,,,,,6100b7d1d121da73b60c7b6e,61036ad27baab5273ba77ca5,2021-07-30_04h59.42.070,Simcolourproject_2stim_asymm_v5,2020.2.10,Win32,60,61025ae37ef11b136ea224fe,,,,,,,,,3862,68.80001247,47.19996985,1,0,0,response1disk,,6,7.200011551,-7.200006545,1,0,0,rectangle,7.200011551,-7.200006545,1,0,0,7.200011551,-7.200006545,1,0,0,0,142,142,133,1,,,,,,,,
,,,,,,,,,,,,,FF,,,,,,,,1.2001,,,,,,,,,,,,,,,,,,,,,,6100b7d1d121da73b60c7b6e,61036ad27baab5273ba77ca5,2021-07-30_04h59.42.070,Simcolourproject_2stim_asymm_v5,2020.2.10,Win32,60,61025ae37ef11b136ea224fe,,,,,,,,,1156,31.20001191,-67.20000744,1,0,0,response3disk,,4,2.40001148,-12.80000663,1,0,0,rectangle,2.40001148,-12.80000663,1,0,0,2.40001148,-12.80000663,1,0,0,0,143,143,18,1,,,,,,,,
,,,,,,,,,,,,,FF,,,,,,,,1.0171,,,,,,,,,,,,,,,,,,,,,,6100b7d1d121da73b60c7b6e,61036ad27baab5273ba77ca5,2021-07-30_04h59.42.070,Simcolourproject_2stim_asymm_v5,2020.2.10,Win32,60,61025ae37ef11b136ea224fe,,,,,,,,,2545,33.60006077,-81.60005648,1,0,0,response3disk,,4,1.600060296,3.999993622,1,0,0,rectangle,1.600060296,3.999993622,1,0,0,1.600060296,3.999993622,1,0,0,0,144,144,129,1,,,,,,,,
,,,,,,,,,,,,,FF,,,,,,,,1.4895,,,,,,,,,,,,,,,,,,,,,,6100b7d1d121da73b60c7b6e,61036ad27baab5273ba77ca5,2021-07-30_04h59.42.070,Simcolourproject_2stim_asymm_v5,2020.2.10,Win32,60,61025ae37ef11b136ea224fe,,,,,,,,,2123,86.40001273,-34.40000695,1,0,0,response3disk,,5,20.80001175,9.599993706,1,0,0,rectangle,20.80001175,9.599993706,1,0,0,20.80001175,9.599993706,1,0,0,0,145,145,145,1,,,,,,,,
,,,,,,,,,,,,,FF,,,,,,,,2.084,,,,,,,,,,,,,,,,,,,,,,6100b7d1d121da73b60c7b6e,61036ad27baab5273ba77ca5,2021-07-30_04h59.42.070,Simcolourproject_2stim_asymm_v5,2020.2.10,Win32,60,61025ae37ef11b136ea224fe,,,,,,,,,3293,49.60006101,-84.8000077,1,0,0,response3disk,,4,3.200011492,-5.600006521,1,0,0,rectangle,3.200011492,-5.600006521,1,0,0,3.200011492,-5.600006521,1,0,0,0,146,146,65,1,,,,,,,,
,,,,,,,,,,,,,FF,,,,,,,,1.2833,,,,,,,,,,,,,,,,,,,,,,6100b7d1d121da73b60c7b6e,61036ad27baab5273ba77ca5,2021-07-30_04h59.42.070,Simcolourproject_2stim_asymm_v5,2020.2.10,Win32,60,61025ae37ef11b136ea224fe,,,,,,,,,3542,56.80001229,85.59999484,1,0,0,response1disk,,7,16.80001169,9.599993706,1,0,0,rectangle,-35.99998909,-106.400008,1,0,0,2.40001148,-0.800006449,1,0,0,0,147,147,121,1,,response5disk_3,TRUE,3,3,"[170,5,301,279,263,148,169,272,158,237,238,194,192,140,255,115,163,176,157,293]",2.2336,rectangle
,,,,,,,,,,,,,FF,,,,,,,,0.9828,,,,,,,,,,,,,,,,,,,,,,6100b7d1d121da73b60c7b6e,61036ad27baab5273ba77ca5,2021-07-30_04h59.42.070,Simcolourproject_2stim_asymm_v5,2020.2.10,Win32,60,61025ae37ef11b136ea224fe,,,,,,,,,3500,56.00001228,94.39999497,1,0,0,response1disk,,7,10.4000116,0.799993575,1,0,0,rectangle,10.4000116,0.799993575,1,0,0,10.4000116,0.799993575,1,0,0,0,148,148,13,1,,,,,,,,
,,,,,,,,,,,,,FF,,,,,,,,0.8669,,,,,,,,,,,,,,,,,,,,,,6100b7d1d121da73b60c7b6e,61036ad27baab5273ba77ca5,2021-07-30_04h59.42.070,Simcolourproject_2stim_asymm_v5,2020.2.10,Win32,60,61025ae37ef11b136ea224fe,,,,,,,,,386,66.40001243,46.39999425,1,0,0,response1disk,,6,19.20001173,3.999993622,1,0,0,rectangle,19.20001173,3.999993622,1,0,0,19.20001173,3.999993622,1,0,0,0,149,149,45,1,,,,,,,,
,,,,,,,,,,,,,FF,,,,,,,,1.567,,,,,,,,,,,,,,,,,,,,,,6100b7d1d121da73b60c7b6e,61036ad27baab5273ba77ca5,2021-07-30_04h59.42.070,Simcolourproject_2stim_asymm_v5,2020.2.10,Win32,60,61025ae37ef11b136ea224fe,,,,,,,,,1893,-84.79998982,-46.40000713,1,0,0,response5disk,,2,10.4000116,4.799993634,1,0,0,rectangle,10.4000116,4.799993634,1,0,0,10.4000116,4.799993634,1,0,0,0,150,150,41,1,,,,,,,,
,,,,,,,,,,,,,FF,,,,,,,,2.0672,,,,,,,,,,,,,,,,,,,,,,6100b7d1d121da73b60c7b6e,61036ad27baab5273ba77ca5,2021-07-30_04h59.42.070,Simcolourproject_2stim_asymm_v5,2020.2.10,Win32,60,61025ae37ef11b136ea224fe,,,,,,,,,2083,78.40001261,-38.40000701,1,0,0,response3disk,,5,18.40001172,-1.600006461,1,0,0,rectangle,18.40001172,-1.600006461,1,0,0,18.40001172,-1.600006461,1,0,0,0,151,151,125,1,,,,,,,,
,,,,,,,,,,,,,FF,,,,,,,,1.2341,,,,,,,,,,,,,,,,,,,,,,6100b7d1d121da73b60c7b6e,61036ad27baab5273ba77ca5,2021-07-30_04h59.42.070,Simcolourproject_2stim_asymm_v5,2020.2.10,Win32,60,61025ae37ef11b136ea224fe,,,,,,,,,4037,84.0000127,47.19996985,1,0,0,response1disk,,6,32.80001193,10.39999372,1,0,0,rectangle,32.80001193,10.39999372,1,0,0,32.80001193,10.39999372,1,0,0,0,152,152,109,1,,,,,,,,
,,,,,,,,,,,,,FF,,,,,,,,1.4902,,,,,,,,,,,,,,,,,,,,,,6100b7d1d121da73b60c7b6e,61036ad27baab5273ba77ca5,2021-07-30_04h59.42.070,Simcolourproject_2stim_asymm_v5,2020.2.10,Win32,60,61025ae37ef11b136ea224fe,,,,,,,,,3899,-90.39994107,-41.60000706,1,0,0,response5disk,,2,20.80001175,7.19999367,1,0,0,rectangle,20.80001175,7.19999367,1,0,0,20.80001175,7.19999367,1,0,0,0,153,153,72,1,,,,,,,,
,,,,,,,,,,,,,FF,,,,,,,,0.9012,,,,,,,,,,,,,,,,,,,,,,6100b7d1d121da73b60c7b6e,61036ad27baab5273ba77ca5,2021-07-30_04h59.42.070,Simcolourproject_2stim_asymm_v5,2020.2.10,Win32,60,61025ae37ef11b136ea224fe,,,,,,,,,2552,90.40001279,41.59999418,1,0,0,response1disk,,6,14.40001166,-16.80000669,1,0,0,rectangle,14.40001166,-16.80000669,1,0,0,14.40001166,-16.80000669,1,0,0,0,154,154,23,1,,,,,,,,
,,,,,,,,,,,,,FF,,,,,,,,1.1604,,,,,,,,,,,,,,,,,,,,,,6100b7d1d121da73b60c7b6e,61036ad27baab5273ba77ca5,2021-07-30_04h59.42.070,Simcolourproject_2stim_asymm_v5,2020.2.10,Win32,60,61025ae37ef11b136ea224fe,,,,,,,,,292,34.40001196,51.99999434,1,0,0,response1disk,,7,-4.799988627,4.799993634,1,0,0,rectangle,-4.799988627,4.799993634,1,0,0,-4.799988627,4.799993634,1,0,0,0,155,155,147,1,,,,,,,,
,,,,,,,,,,,,,FF,,,,,,,,1.5162,,,,,,,,,,,,,,,,,,,,,,6100b7d1d121da73b60c7b6e,61036ad27baab5273ba77ca5,2021-07-30_04h59.42.070,Simcolourproject_2stim_asymm_v5,2020.2.10,Win32,60,61025ae37ef11b136ea224fe,,,,,,,,,3375,-99.99999005,-48.80000716,1,0,0,response5disk,,2,5.600060356,-3.200006485,1,0,0,rectangle,-50.39994048,-82.40000767,1,0,0,7.200011551,6.399993658,1,0,0,0,156,156,107,1,,response5disk_3,TRUE,3,3,"[170,5,301,279,263,148,169,272,158,237,238,194,192,140,255,115,163,176,157,293]",2.184,rectangle
,,,,,,,,,,,,,FF,,,,,,,,1.5995,,,,,,,,,,,,,,,,,,,,,,6100b7d1d121da73b60c7b6e,61036ad27baab5273ba77ca5,2021-07-30_04h59.42.070,Simcolourproject_2stim_asymm_v5,2020.2.10,Win32,60,61025ae37ef11b136ea224fe,,,,,,,,,1853,65.60001242,84.79999483,1,0,0,response1disk,,7,12.00001162,8.799993694,1,0,0,rectangle,-47.19998926,-80.00000763,1,0,0,-4.799988627,-8.800006568,1,0,0,0,157,157,44,1,,response5disk_3,TRUE,3,3,"[170,5,301,279,263,148,169,272,158,237,238,194,192,140,255,115,163,176,157,293]",2.0662,rectangle
,,,,,,,,,,,,,FF,,,,,,,,1.3999,,,,,,,,,,,,,,,,,,,,,,6100b7d1d121da73b60c7b6e,61036ad27baab5273ba77ca5,2021-07-30_04h59.42.070,Simcolourproject_2stim_asymm_v5,2020.2.10,Win32,60,61025ae37ef11b136ea224fe,,,,,,,,,3428,-88.79998988,-40.80000705,1,0,0,response5disk,,2,-3.999988616,-8.800006568,1,0,0,rectangle,-3.999988616,-8.800006568,1,0,0,-3.999988616,-8.800006568,1,0,0,0,158,158,86,1,,,,,,,,
,,,,,,,,,,,,,FF,,,,,,,,1.9,,,,,,,,,,,,,,,,,,,,,,6100b7d1d121da73b60c7b6e,61036ad27baab5273ba77ca5,2021-07-30_04h59.42.070,Simcolourproject_2stim_asymm_v5,2020.2.10,Win32,60,61025ae37ef11b136ea224fe,,,,,,,,,1762,38.40001202,-83.20000768,1,0,0,response3disk,,4,3.200011492,-3.200006485,1,0,0,rectangle,3.200011492,-3.200006485,1,0,0,3.200011492,-3.200006485,1,0,0,0,159,159,1,1,,,,,,,,
,,,,,,,,,,,,,FF,,,,,,,,0.9164,,,,,,,,,,,,,,,,,,,,,,6100b7d1d121da73b60c7b6e,61036ad27baab5273ba77ca5,2021-07-30_04h59.42.070,Simcolourproject_2stim_asymm_v5,2020.2.10,Win32,60,61025ae37ef11b136ea224fe,,,,,,,,,2635,78.40001261,-41.60000706,1,0,0,response3disk,,5,23.20001179,-3.200006485,1,0,0,rectangle,23.20001179,-3.200006485,1,0,0,23.20001179,-3.200006485,1,0,0,1,0,160,84,1,,,,,,,,
,,,,,,,,,,,,,FF,,,,,,,,1.5998,,,,,,,,,,,,,,,,,,,,,,6100b7d1d121da73b60c7b6e,61036ad27baab5273ba77ca5,2021-07-30_04h59.42.070,Simcolourproject_2stim_asymm_v5,2020.2.10,Win32,60,61025ae37ef11b136ea224fe,,,,,,,,,3607,48.00001216,87.99999487,1,0,0,response1disk,,7,1.14441E-05,3.19999361,1,0,0,rectangle,1.14441E-05,3.19999361,1,0,0,1.14441E-05,3.19999361,1,0,0,1,1,161,62,1,,,,,,,,
,,,,,,,,,,,,,FF,,,,,,,,1.6003,,,,,,,,,,,,,,,,,,,,,,6100b7d1d121da73b60c7b6e,61036ad27baab5273ba77ca5,2021-07-30_04h59.42.070,Simcolourproject_2stim_asymm_v5,2020.2.10,Win32,60,61025ae37ef11b136ea224fe,,,,,,,,,63,80.00001264,23.99999392,1,0,0,response1disk,,6,32.00001192,-3.200006485,1,0,0,rectangle,54.40001225,90.39999491,1,0,0,21.60006059,12.79999375,1,0,0,1,2,162,33,1,,response1disk_3,TRUE,7,7,"[170,5,301,279,263,148,169,272,158,237,238,194,192,140,255,115,163,176,157,293]",2.0322,rectangle
,,,,,,,,,,,,,FF,,,,,,,,1.1163,,,,,,,,,,,,,,,,,,,,,,6100b7d1d121da73b60c7b6e,61036ad27baab5273ba77ca5,2021-07-30_04h59.42.070,Simcolourproject_2stim_asymm_v5,2020.2.10,Win32,60,61025ae37ef11b136ea224fe,,,,,,,,,3404,54.40001225,99.19997063,1,0,0,response1disk,,7,12.80001163,15.9999938,1,0,0,rectangle,12.80001163,15.9999938,1,0,0,12.80001163,15.9999938,1,0,0,1,3,163,106,1,,,,,,,,
,,,,,,,,,,,,,FF,,,,,,,,1.8332,,,,,,,,,,,,,,,,,,,,,,6100b7d1d121da73b60c7b6e,61036ad27baab5273ba77ca5,2021-07-30_04h59.42.070,Simcolourproject_2stim_asymm_v5,2020.2.10,Win32,60,61025ae37ef11b136ea224fe,,,,,,,,,2086,-52.79998934,-63.20000738,1,0,0,response5disk,,3,5.600060356,-3.200006485,1,0,0,rectangle,5.600060356,-3.200006485,1,0,0,5.600060356,-3.200006485,1,0,0,1,4,164,10,1,,,,,,,,
,,,,,,,,,,,,,FF,,,,,,,,1.5234,,,,,,,,,,,,,,,,,,,,,,6100b7d1d121da73b60c7b6e,61036ad27baab5273ba77ca5,2021-07-30_04h59.42.070,Simcolourproject_2stim_asymm_v5,2020.2.10,Win32,60,61025ae37ef11b136ea224fe,,,,,,,,,2371,-41.59998918,-88.00000775,1,0,0,response5disk,,3,7.200011551,-4.800006509,1,0,0,rectangle,7.200011551,-4.800006509,1,0,0,7.200011551,-4.800006509,1,0,0,1,5,165,60,1,,,,,,,,
,,,,,,,,,,,,,FF,,,,,,,,1.2828,,,,,,,,,,,,,,,,,,,,,,6100b7d1d121da73b60c7b6e,61036ad27baab5273ba77ca5,2021-07-30_04h59.42.070,Simcolourproject_2stim_asymm_v5,2020.2.10,Win32,60,61025ae37ef11b136ea224fe,,,,,,,,,571,-83.1999898,-34.40000695,1,0,0,response5disk,,2,6.400011539,13.59999377,1,0,0,rectangle,6.400011539,13.59999377,1,0,0,6.400011539,13.59999377,1,0,0,1,6,166,153,1,,,,,,,,
,,,,,,,,,,,,,FF,,,,,,,,1.8681,,,,,,,,,,,,,,,,,,,,,,6100b7d1d121da73b60c7b6e,61036ad27baab5273ba77ca5,2021-07-30_04h59.42.070,Simcolourproject_2stim_asymm_v5,2020.2.10,Win32,60,61025ae37ef11b136ea224fe,,,,,,,,,2434,83.20001268,51.19996991,1,0,0,response1disk,,6,15.20001167,7.999993682,1,0,0,rectangle,15.20001167,7.999993682,1,0,0,15.20001167,7.999993682,1,0,0,1,7,167,18,1,,,,,,,,
,,,,,,,,,,,,,FF,,,,,,,,1.3991,,,,,,,,,,,,,,,,,,,,,,6100b7d1d121da73b60c7b6e,61036ad27baab5273ba77ca5,2021-07-30_04h59.42.070,Simcolourproject_2stim_asymm_v5,2020.2.10,Win32,60,61025ae37ef11b136ea224fe,,,,,,,,,897,75.20001256,51.19996991,1,0,0,response1disk,,6,-0.799988568,-0.800006449,1,0,0,rectangle,-94.39994113,40.79999417,1,0,0,-7.999988675,7.999993682,1,0,0,1,8,168,49,1,,response7disk_3,TRUE,1,1,"[170,5,301,279,263,148,169,272,158,237,238,194,192,140,255,115,163,176,157,293]",2.2324,rectangle
,,,,,,,,,,,,,FF,,,,,,,,1.0503,,,,,,,,,,,,,,,,,,,,,,6100b7d1d121da73b60c7b6e,61036ad27baab5273ba77ca5,2021-07-30_04h59.42.070,Simcolourproject_2stim_asymm_v5,2020.2.10,Win32,60,61025ae37ef11b136ea224fe,,,,,,,,,3685,44.0000121,85.59999484,1,0,0,response1disk,,7,1.600060296,14.39999378,1,0,0,rectangle,85.60001272,61.59999448,1,0,0,16.00001168,0.799993575,1,0,0,1,9,169,2,1,,response1disk_3,TRUE,6,6,"[170,5,301,279,263,148,169,272,158,237,238,194,192,140,255,115,163,176,157,293]",2.0822,rectangle
,,,,,,,,,,,,,FF,,,,,,,,1.783,,,,,,,,,,,,,,,,,,,,,,6100b7d1d121da73b60c7b6e,61036ad27baab5273ba77ca5,2021-07-30_04h59.42.070,Simcolourproject_2stim_asymm_v5,2020.2.10,Win32,60,61025ae37ef11b136ea224fe,,,,,,,,,484,83.20001268,-42.40000707,1,0,0,response3disk,,5,27.20001185,4.799993634,1,0,0,rectangle,27.20001185,4.799993634,1,0,0,27.20001185,4.799993634,1,0,0,1,10,170,58,1,,,,,,,,
,,,,,,,,,,,,,FF,,,,,,,,1.6733,,,,,,,,,,,,,,,,,,,,,,6100b7d1d121da73b60c7b6e,61036ad27baab5273ba77ca5,2021-07-30_04h59.42.070,Simcolourproject_2stim_asymm_v5,2020.2.10,Win32,60,61025ae37ef11b136ea224fe,,,,,,,,,1311,82.40001267,-36.00000697,1,0,0,response3disk,,5,18.40001172,11.19999373,1,0,0,rectangle,18.40001172,11.19999373,1,0,0,18.40001172,11.19999373,1,0,0,1,11,171,67,1,,,,,,,,
,,,,,,,,,,,,,FF,,,,,,,,1.2603,,,,,,,,,,,,,,,,,,,,,,6100b7d1d121da73b60c7b6e,61036ad27baab5273ba77ca5,2021-07-30_04h59.42.070,Simcolourproject_2stim_asymm_v5,2020.2.10,Win32,60,61025ae37ef11b136ea224fe,,,,,,,,,296,87.20001274,55.19996997,1,0,0,response1disk,,6,15.20001167,7.19999367,1,0,0,rectangle,15.20001167,7.19999367,1,0,0,15.20001167,7.19999367,1,0,0,1,12,172,86,1,,,,,,,,
,,,,,,,,,,,,,FF,,,,,,,,1.9995,,,,,,,,,,,,,,,,,,,,,,6100b7d1d121da73b60c7b6e,61036ad27baab5273ba77ca5,2021-07-30_04h59.42.070,Simcolourproject_2stim_asymm_v5,2020.2.10,Win32,60,61025ae37ef11b136ea224fe,,,,,,,,,79,-74.39994084,-30.40000689,1,0,0,response5disk,,2,-0.799988568,11.19999373,1,0,0,rectangle,-0.799988568,11.19999373,1,0,0,-0.799988568,11.19999373,1,0,0,1,13,173,144,1,,,,,,,,
,,,,,,,,,,,,,FF,,,,,,,,1.2241,,,,,,,,,,,,,,,,,,,,,,6100b7d1d121da73b60c7b6e,61036ad27baab5273ba77ca5,2021-07-30_04h59.42.070,Simcolourproject_2stim_asymm_v5,2020.2.10,Win32,60,61025ae37ef11b136ea224fe,,,,,,,,,1199,75.20001256,32.79999405,1,0,0,response1disk,,6,12.80001163,3.19999361,1,0,0,rectangle,12.80001163,3.19999361,1,0,0,12.80001163,3.19999361,1,0,0,1,14,174,95,1,,,,,,,,
,,,,,,,,,,,,,FF,,,,,,,,1.5905,,,,,,,,,,,,,,,,,,,,,,6100b7d1d121da73b60c7b6e,61036ad27baab5273ba77ca5,2021-07-30_04h59.42.070,Simcolourproject_2stim_asymm_v5,2020.2.10,Win32,60,61025ae37ef11b136ea224fe,,,,,,,,,2295,20.00001174,-82.40000767,1,0,0,response3disk,,4,-6.399939823,-7.200006545,1,0,0,rectangle,43.20001209,-69.60000747,1,0,0,11.20001161,-5.600006521,1,0,0,1,15,175,146,1,,response3disk_3,TRUE,4,4,"[170,5,301,279,263,148,169,272,158,237,238,194,192,140,255,115,163,176,157,293]",1.9261,rectangle
,,,,,,,,,,,,,FF,,,,,,,,0.9994,,,,,,,,,,,,,,,,,,,,,,6100b7d1d121da73b60c7b6e,61036ad27baab5273ba77ca5,2021-07-30_04h59.42.070,Simcolourproject_2stim_asymm_v5,2020.2.10,Win32,60,61025ae37ef11b136ea224fe,,,,,,,,,2967,72.80001253,47.19996985,1,0,0,response1disk,,6,18.40001172,7.999993682,1,0,0,rectangle,18.40001172,7.999993682,1,0,0,18.40001172,7.999993682,1,0,0,1,16,176,140,1,,,,,,,,
,,,,,,,,,,,,,FF,,,,,,,,0.8507,,,,,,,,,,,,,,,,,,,,,,6100b7d1d121da73b60c7b6e,61036ad27baab5273ba77ca5,2021-07-30_04h59.42.070,Simcolourproject_2stim_asymm_v5,2020.2.10,Win32,60,61025ae37ef11b136ea224fe,,,,,,,,,795,81.60001266,48.79999429,1,0,0,response1disk,,6,27.20001185,3.999993622,1,0,0,rectangle,27.20001185,3.999993622,1,0,0,27.20001185,3.999993622,1,0,0,1,17,177,135,1,,,,,,,,
,,,,,,,,,,,,,FF,,,,,,,,1.0329,,,,,,,,,,,,,,,,,,,,,,6100b7d1d121da73b60c7b6e,61036ad27baab5273ba77ca5,2021-07-30_04h59.42.070,Simcolourproject_2stim_asymm_v5,2020.2.10,Win32,60,61025ae37ef11b136ea224fe,,,,,,,,,1683,68.00001246,-37.600007,1,0,0,response3disk,,5,11.20001161,10.39999372,1,0,0,rectangle,11.20001161,10.39999372,1,0,0,11.20001161,10.39999372,1,0,0,1,18,178,118,1,,,,,,,,
,,,,,,,,,,,,,FF,,,,,,,,1.4341,,,,,,,,,,,,,,,,,,,,,,6100b7d1d121da73b60c7b6e,61036ad27baab5273ba77ca5,2021-07-30_04h59.42.070,Simcolourproject_2stim_asymm_v5,2020.2.10,Win32,60,61025ae37ef11b136ea224fe,,,,,,,,,505,32.80001193,88.79999489,1,0,0,response1disk,,7,1.14441E-05,12.79999375,1,0,0,rectangle,1.14441E-05,12.79999375,1,0,0,1.14441E-05,12.79999375,1,0,0,1,19,179,139,1,,,,,,,,
,,,,,,,,,,,,,FF,,,,,,,,1.2834,,,,,,,,,,,,,,,,,,,,,,6100b7d1d121da73b60c7b6e,61036ad27baab5273ba77ca5,2021-07-30_04h59.42.070,Simcolourproject_2stim_asymm_v5,2020.2.10,Win32,60,61025ae37ef11b136ea224fe,,,,,,,,,1842,51.20001221,87.19997045,1,0,0,response1disk,,7,6.400011539,-4.800006509,1,0,0,rectangle,6.400011539,-4.800006509,1,0,0,6.400011539,-4.800006509,1,0,0,1,20,180,71,1,,,,,,,,
,,,,,,,,,,,,,FF,,,,,,,,0.9835,,,,,,,,,,,,,,,,,,,,,,6100b7d1d121da73b60c7b6e,61036ad27baab5273ba77ca5,2021-07-30_04h59.42.070,Simcolourproject_2stim_asymm_v5,2020.2.10,Win32,60,61025ae37ef11b136ea224fe,,,,,,,,,3466,52.00001222,92.79999495,1,0,0,response1disk,,7,11.20001161,10.39999372,1,0,0,rectangle,11.20001161,10.39999372,1,0,0,11.20001161,10.39999372,1,0,0,1,21,181,124,1,,,,,,,,
,,,,,,,,,,,,,FF,,,,,,,,1.317,,,,,,,,,,,,,,,,,,,,,,6100b7d1d121da73b60c7b6e,61036ad27baab5273ba77ca5,2021-07-30_04h59.42.070,Simcolourproject_2stim_asymm_v5,2020.2.10,Win32,60,61025ae37ef11b136ea224fe,,,,,,,,,894,45.60006095,-72.80000752,1,0,0,response3disk,,4,10.4000116,-7.200006545,1,0,0,rectangle,10.4000116,-7.200006545,1,0,0,10.4000116,-7.200006545,1,0,0,1,22,182,157,1,,,,,,,,
,,,,,,,,,,,,,FF,,,,,,,,1.3237,,,,,,,,,,,,,,,,,,,,,,6100b7d1d121da73b60c7b6e,61036ad27baab5273ba77ca5,2021-07-30_04h59.42.070,Simcolourproject_2stim_asymm_v5,2020.2.10,Win32,60,61025ae37ef11b136ea224fe,,,,,,,,,3128,48.80001217,80.79999477,1,0,0,response1disk,,7,-5.599988639,-6.4373E-06,1,0,0,rectangle,-5.599988639,-6.4373E-06,1,0,0,-5.599988639,-6.4373E-06,1,0,0,1,23,183,126,1,,,,,,,,
,,,,,,,,,,,,,FF,,,,,,,,1.7162,,,,,,,,,,,,,,,,,,,,,,6100b7d1d121da73b60c7b6e,61036ad27baab5273ba77ca5,2021-07-30_04h59.42.070,Simcolourproject_2stim_asymm_v5,2020.2.10,Win32,60,61025ae37ef11b136ea224fe,,,,,,,,,379,60.80001235,43.99999422,1,0,0,response1disk,,6,15.20001167,15.19999379,1,0,0,rectangle,15.20001167,15.19999379,1,0,0,15.20001167,15.19999379,1,0,0,1,24,184,96,1,,,,,,,,
,,,,,,,,,,,,,FF,,,,,,,,1.0995,,,,,,,,,,,,,,,,,,,,,,6100b7d1d121da73b60c7b6e,61036ad27baab5273ba77ca5,2021-07-30_04h59.42.070,Simcolourproject_2stim_asymm_v5,2020.2.10,Win32,60,61025ae37ef11b136ea224fe,,,,,,,,,3508,42.40001208,95.19997057,1,0,0,response1disk,,7,5.600060356,13.59999377,1,0,0,rectangle,5.600060356,13.59999377,1,0,0,5.600060356,13.59999377,1,0,0,1,25,185,147,1,,,,,,,,
,,,,,,,,,,,,,FF,,,,,,,,0.7241,,,,,,,,,,,,,,,,,,,,,,6100b7d1d121da73b60c7b6e,61036ad27baab5273ba77ca5,2021-07-30_04h59.42.070,Simcolourproject_2stim_asymm_v5,2020.2.10,Win32,60,61025ae37ef11b136ea224fe,,,,,,,,,3507,38.40001202,66.39999455,1,0,0,response1disk,,7,-3.999988616,3.999993622,1,0,0,rectangle,-3.999988616,3.999993622,1,0,0,-3.999988616,3.999993622,1,0,0,1,26,186,44,1,,,,,,,,
,,,,,,,,,,,,,FF,,,,,,,,1.6993,,,,,,,,,,,,,,,,,,,,,,6100b7d1d121da73b60c7b6e,61036ad27baab5273ba77ca5,2021-07-30_04h59.42.070,Simcolourproject_2stim_asymm_v5,2020.2.10,Win32,60,61025ae37ef11b136ea224fe,,,,,,,,,2962,66.40001243,-35.20000696,1,0,0,response3disk,,5,7.200011551,6.399993658,1,0,0,rectangle,7.200011551,6.399993658,1,0,0,7.200011551,6.399993658,1,0,0,1,27,187,3,1,,,,,,,,
,,,,,,,,,,,,,FF,,,,,,,,1.0401,,,,,,,,,,,,,,,,,,,,,,6100b7d1d121da73b60c7b6e,61036ad27baab5273ba77ca5,2021-07-30_04h59.42.070,Simcolourproject_2stim_asymm_v5,2020.2.10,Win32,60,61025ae37ef11b136ea224fe,,,,,,,,,3680,63.20001239,107.9999952,1,0,0,response1disk,,7,-6.399939823,15.19999379,1,0,0,rectangle,-6.399939823,15.19999379,1,0,0,-6.399939823,15.19999379,1,0,0,1,28,188,137,1,,,,,,,,
,,,,,,,,,,,,,FF,,,,,,,,1.6064,,,,,,,,,,,,,,,,,,,,,,6100b7d1d121da73b60c7b6e,61036ad27baab5273ba77ca5,2021-07-30_04h59.42.070,Simcolourproject_2stim_asymm_v5,2020.2.10,Win32,60,61025ae37ef11b136ea224fe,,,,,,,,,1312,82.40001267,41.59999418,1,0,0,response1disk,,6,35.20001197,-3.200006485,1,0,0,rectangle,35.20001197,-3.200006485,1,0,0,35.20001197,-3.200006485,1,0,0,1,29,189,133,1,,,,,,,,
,,,,,,,,,,,,,FF,,,,,,,,1.0497,,,,,,,,,,,,,,,,,,,,,,6100b7d1d121da73b60c7b6e,61036ad27baab5273ba77ca5,2021-07-30_04h59.42.070,Simcolourproject_2stim_asymm_v5,2020.2.10,Win32,60,61025ae37ef11b136ea224fe,,,,,,,,,2859,46.40001214,91.99999493,1,0,0,response1disk,,7,4.800011516,10.39999372,1,0,0,rectangle,4.800011516,10.39999372,1,0,0,4.800011516,10.39999372,1,0,0,1,30,190,117,1,,,,,,,,
,,,,,,,,,,,,,FF,,,,,,,,1.0163,,,,,,,,,,,,,,,,,,,,,,6100b7d1d121da73b60c7b6e,61036ad27baab5273ba77ca5,2021-07-30_04h59.42.070,Simcolourproject_2stim_asymm_v5,2020.2.10,Win32,60,61025ae37ef11b136ea224fe,,,,,,,,,3699,51.20001221,103.1999707,1,0,0,response1disk,,7,13.60006047,-6.400006533,1,0,0,rectangle,-61.59998947,-23.20000678,1,0,0,-2.399939764,7.19999367,1,0,0,1,31,191,69,1,,response5disk_3,TRUE,2,2,"[170,5,301,279,263,148,169,272,158,237,238,194,192,140,255,115,163,176,157,293]",2.392,rectangle
,,,,,,,,,,,,,FF,,,,,,,,1.2934,,,,,,,,,,,,,,,,,,,,,,6100b7d1d121da73b60c7b6e,61036ad27baab5273ba77ca5,2021-07-30_04h59.42.070,Simcolourproject_2stim_asymm_v5,2020.2.10,Win32,60,61025ae37ef11b136ea224fe,,,,,,,,,1452,-55.99998939,46.39999425,1,0,0,response7disk,,1,15.20001167,-6.400006533,1,0,0,rectangle,15.20001167,-6.400006533,1,0,0,15.20001167,-6.400006533,1,0,0,1,32,192,150,1,,,,,,,,
,,,,,,,,,,,,,FF,,,,,,,,1.4832,,,,,,,,,,,,,,,,,,,,,,6100b7d1d121da73b60c7b6e,61036ad27baab5273ba77ca5,2021-07-30_04h59.42.070,Simcolourproject_2stim_asymm_v5,2020.2.10,Win32,60,61025ae37ef11b136ea224fe,,,,,,,,,3169,46.40001214,84.79999483,1,0,0,response1disk,,7,3.200011492,-7.200006545,1,0,0,rectangle,36.00001198,86.39999485,1,0,0,-0.799988568,12.79999375,1,0,0,1,33,193,37,1,,response1disk_3,TRUE,7,7,"[170,5,301,279,263,148,169,272,158,237,238,194,192,140,255,115,163,176,157,293]",2.0165,rectangle
,,,,,,,,,,,,,FF,,,,,,,,1.5659,,,,,,,,,,,,,,,,,,,,,,6100b7d1d121da73b60c7b6e,61036ad27baab5273ba77ca5,2021-07-30_04h59.42.070,Simcolourproject_2stim_asymm_v5,2020.2.10,Win32,60,61025ae37ef11b136ea224fe,,,,,,,,,4322,42.40001208,97.59999502,1,0,0,response1disk,,7,12.00001162,-0.800006449,1,0,0,rectangle,12.00001162,-0.800006449,1,0,0,12.00001162,-0.800006449,1,0,0,1,34,194,15,1,,,,,,,,
,,,,,,,,,,,,,FF,,,,,,,,1.6828,,,,,,,,,,,,,,,,,,,,,,6100b7d1d121da73b60c7b6e,61036ad27baab5273ba77ca5,2021-07-30_04h59.42.070,Simcolourproject_2stim_asymm_v5,2020.2.10,Win32,60,61025ae37ef11b136ea224fe,,,,,,,,,465,80.80001265,-34.40000695,1,0,0,response3disk,,5,20.00001174,5.599993646,1,0,0,rectangle,20.00001174,5.599993646,1,0,0,20.00001174,5.599993646,1,0,0,1,35,195,13,1,,,,,,,,
,,,,,,,,,,,,,FF,,,,,,,,1.3,,,,,,,,,,,,,,,,,,,,,,6100b7d1d121da73b60c7b6e,61036ad27baab5273ba77ca5,2021-07-30_04h59.42.070,Simcolourproject_2stim_asymm_v5,2020.2.10,Win32,60,61025ae37ef11b136ea224fe,,,,,,,,,1385,33.60006077,-92.80000782,1,0,0,response3disk,,4,1.14441E-05,-11.2000066,1,0,0,rectangle,1.14441E-05,-11.2000066,1,0,0,1.14441E-05,-11.2000066,1,0,0,1,36,196,79,1,,,,,,,,
,,,,,,,,,,,,,FF,,,,,,,,1.5336,,,,,,,,,,,,,,,,,,,,,,6100b7d1d121da73b60c7b6e,61036ad27baab5273ba77ca5,2021-07-30_04h59.42.070,Simcolourproject_2stim_asymm_v5,2020.2.10,Win32,60,61025ae37ef11b136ea224fe,,,,,,,,,1456,47.20001215,-61.60000736,1,0,0,response3disk,,4,13.60006047,0.799993575,1,0,0,rectangle,13.60006047,0.799993575,1,0,0,13.60006047,0.799993575,1,0,0,1,37,197,145,1,,,,,,,,
,,,,,,,,,,,,,FF,,,,,,,,1.4003,,,,,,,,,,,,,,,,,,,,,,6100b7d1d121da73b60c7b6e,61036ad27baab5273ba77ca5,2021-07-30_04h59.42.070,Simcolourproject_2stim_asymm_v5,2020.2.10,Win32,60,61025ae37ef11b136ea224fe,,,,,,,,,3658,51.20001221,-81.60005648,1,0,0,response3disk,,4,0.800011456,9.599993706,1,0,0,rectangle,0.800011456,9.599993706,1,0,0,0.800011456,9.599993706,1,0,0,1,38,198,27,1,,,,,,,,
,,,,,,,,,,,,,FF,,,,,,,,1.3738,,,,,,,,,,,,,,,,,,,,,,6100b7d1d121da73b60c7b6e,61036ad27baab5273ba77ca5,2021-07-30_04h59.42.070,Simcolourproject_2stim_asymm_v5,2020.2.10,Win32,60,61025ae37ef11b136ea224fe,,,,,,,,,2776,-43.1999892,-64.00000739,1,0,0,response5disk,,3,-2.399939764,-10.40000659,1,0,0,rectangle,-2.399939764,-10.40000659,1,0,0,-2.399939764,-10.40000659,1,0,0,1,39,199,46,1,,,,,,,,
,,,,,,,,,,,,,FF,,,,,,,,2.0325,,,,,,,,,,,,,,,,,,,,,,6100b7d1d121da73b60c7b6e,61036ad27baab5273ba77ca5,2021-07-30_04h59.42.070,Simcolourproject_2stim_asymm_v5,2020.2.10,Win32,60,61025ae37ef11b136ea224fe,,,,,,,,,1437,84.80001271,-31.2000069,1,0,0,response3disk,,5,8.000011563,8.799993694,1,0,0,rectangle,8.000011563,8.799993694,1,0,0,8.000011563,8.799993694,1,0,0,1,40,200,156,1,,,,,,,,
,,,,,,,,,,,,,FF,,,,,,,,1.3166,,,,,,,,,,,,,,,,,,,,,,6100b7d1d121da73b60c7b6e,61036ad27baab5273ba77ca5,2021-07-30_04h59.42.070,Simcolourproject_2stim_asymm_v5,2020.2.10,Win32,60,61025ae37ef11b136ea224fe,,,,,,,,,2785,68.00001246,-43.20000708,1,0,0,response3disk,,5,18.40001172,2.399993598,1,0,0,rectangle,18.40001172,2.399993598,1,0,0,18.40001172,2.399993598,1,0,0,1,41,201,129,1,,,,,,,,
,,,,,,,,,,,,,FF,,,,,,,,1.2832,,,,,,,,,,,,,,,,,,,,,,6100b7d1d121da73b60c7b6e,61036ad27baab5273ba77ca5,2021-07-30_04h59.42.070,Simcolourproject_2stim_asymm_v5,2020.2.10,Win32,60,61025ae37ef11b136ea224fe,,,,,,,,,45,33.60006077,-94.40000784,1,0,0,response3disk,,4,-9.599988699,3.19999361,1,0,0,rectangle,-9.599988699,3.19999361,1,0,0,-9.599988699,3.19999361,1,0,0,1,42,202,36,1,,,,,,,,
,,,,,,,,,,,,,FF,,,,,,,,1.0327,,,,,,,,,,,,,,,,,,,,,,6100b7d1d121da73b60c7b6e,61036ad27baab5273ba77ca5,2021-07-30_04h59.42.070,Simcolourproject_2stim_asymm_v5,2020.2.10,Win32,60,61025ae37ef11b136ea224fe,,,,,,,,,2789,-24.79998893,-71.2000075,1,0,0,response5disk,,3,8.000011563,-12.00000662,1,0,0,rectangle,8.000011563,-12.00000662,1,0,0,8.000011563,-12.00000662,1,0,0,1,43,203,22,1,,,,,,,,
,,,,,,,,,,,,,FF,,,,,,,,1.6834,,,,,,,,,,,,,,,,,,,,,,6100b7d1d121da73b60c7b6e,61036ad27baab5273ba77ca5,2021-07-30_04h59.42.070,Simcolourproject_2stim_asymm_v5,2020.2.10,Win32,60,61025ae37ef11b136ea224fe,,,,,,,,,1043,-31.19998902,-86.40000772,1,0,0,response5disk,,3,1.600060296,10.39999372,1,0,0,rectangle,1.600060296,10.39999372,1,0,0,1.600060296,10.39999372,1,0,0,1,44,204,38,1,,,,,,,,
,,,,,,,,,,,,,FF,,,,,,,,0.8671,,,,,,,,,,,,,,,,,,,,,,6100b7d1d121da73b60c7b6e,61036ad27baab5273ba77ca5,2021-07-30_04h59.42.070,Simcolourproject_2stim_asymm_v5,2020.2.10,Win32,60,61025ae37ef11b136ea224fe,,,,,,,,,2124,45.60006095,99.99999505,1,0,0,response1disk,,7,-11.19998872,-9.60000658,1,0,0,rectangle,-11.19998872,-9.60000658,1,0,0,-11.19998872,-9.60000658,1,0,0,1,45,205,66,1,,,,,,,,
,,,,,,,,,,,,,FF,,,,,,,,0.9832,,,,,,,,,,,,,,,,,,,,,,6100b7d1d121da73b60c7b6e,61036ad27baab5273ba77ca5,2021-07-30_04h59.42.070,Simcolourproject_2stim_asymm_v5,2020.2.10,Win32,60,61025ae37ef11b136ea224fe,,,,,,,,,405,52.80001223,28.79999399,1,0,0,response1disk,,6,16.80001169,4.799993634,1,0,0,rectangle,16.80001169,4.799993634,1,0,0,16.80001169,4.799993634,1,0,0,1,46,206,113,1,,,,,,,,
,,,,,,,,,,,,,FF,,,,,,,,1.2326,,,,,,,,,,,,,,,,,,,,,,6100b7d1d121da73b60c7b6e,61036ad27baab5273ba77ca5,2021-07-30_04h59.42.070,Simcolourproject_2stim_asymm_v5,2020.2.10,Win32,60,61025ae37ef11b136ea224fe,,,,,,,,,1298,-54.39994054,35.9999941,1,0,0,response7disk,,1,8.000011563,-6.400006533,1,0,0,rectangle,8.000011563,-6.400006533,1,0,0,8.000011563,-6.400006533,1,0,0,1,47,207,123,1,,,,,,,,
,,,,,,,,,,,,,FF,,,,,,,,1.4328,,,,,,,,,,,,,,,,,,,,,,6100b7d1d121da73b60c7b6e,61036ad27baab5273ba77ca5,2021-07-30_04h59.42.070,Simcolourproject_2stim_asymm_v5,2020.2.10,Win32,60,61025ae37ef11b136ea224fe,,,,,,,,,1258,70.40001249,47.19996985,1,0,0,response1disk,,6,-14.39993994,-16.00000668,1,0,0,rectangle,-14.39993994,-16.00000668,1,0,0,-14.39993994,-16.00000668,1,0,0,1,48,208,74,1,,,,,,,,
,,,,,,,,,,,,,FF,,,,,,,,0.8333,,,,,,,,,,,,,,,,,,,,,,6100b7d1d121da73b60c7b6e,61036ad27baab5273ba77ca5,2021-07-30_04h59.42.070,Simcolourproject_2stim_asymm_v5,2020.2.10,Win32,60,61025ae37ef11b136ea224fe,,,,,,,,,3501,58.40001231,88.79999489,1,0,0,response1disk,,7,-1.59998858,1.599993587,1,0,0,rectangle,-1.59998858,1.599993587,1,0,0,-1.59998858,1.599993587,1,0,0,1,49,209,100,1,,,,,,,,
,,,,,,,,,,,,,FF,,,,,,,,1.3995,,,,,,,,,,,,,,,,,,,,,,6100b7d1d121da73b60c7b6e,61036ad27baab5273ba77ca5,2021-07-30_04h59.42.070,Simcolourproject_2stim_asymm_v5,2020.2.10,Win32,60,61025ae37ef11b136ea224fe,,,,,,,,,277,-39.99998915,-70.40000749,1,0,0,response5disk,,3,2.40001148,-3.200006485,1,0,0,rectangle,2.40001148,-3.200006485,1,0,0,2.40001148,-3.200006485,1,0,0,1,50,210,61,1,,,,,,,,
,,,,,,,,,,,,,FF,,,,,,,,0.8996,,,,,,,,,,,,,,,,,,,,,,6100b7d1d121da73b60c7b6e,61036ad27baab5273ba77ca5,2021-07-30_04h59.42.070,Simcolourproject_2stim_asymm_v5,2020.2.10,Win32,60,61025ae37ef11b136ea224fe,,,,,,,,,112,44.80001211,75.19997027,1,0,0,response1disk,,7,4.800011516,-8.800006568,1,0,0,rectangle,4.800011516,-8.800006568,1,0,0,4.800011516,-8.800006568,1,0,0,1,51,211,159,1,,,,,,,,
,,,,,,,,,,,,,FF,,,,,,,,0.8002,,,,,,,,,,,,,,,,,,,,,,6100b7d1d121da73b60c7b6e,61036ad27baab5273ba77ca5,2021-07-30_04h59.42.070,Simcolourproject_2stim_asymm_v5,2020.2.10,Win32,60,61025ae37ef11b136ea224fe,,,,,,,,,3890,41.60006089,72.79999465,1,0,0,response1disk,,7,-0.799988568,-1.600006461,1,0,0,rectangle,-0.799988568,-1.600006461,1,0,0,-0.799988568,-1.600006461,1,0,0,1,52,212,99,1,,,,,,,,
,,,,,,,,,,,,,FF,,,,,,,,0.8333,,,,,,,,,,,,,,,,,,,,,,6100b7d1d121da73b60c7b6e,61036ad27baab5273ba77ca5,2021-07-30_04h59.42.070,Simcolourproject_2stim_asymm_v5,2020.2.10,Win32,60,61025ae37ef11b136ea224fe,,,,,,,,,399,41.60006089,111.1999708,1,0,0,response1disk,,7,-3.199988604,1.599993587,1,0,0,rectangle,-3.199988604,1.599993587,1,0,0,-3.199988604,1.599993587,1,0,0,1,53,213,32,1,,,,,,,,
,,,,,,,,,,,,,FF,,,,,,,,1.5329,,,,,,,,,,,,,,,,,,,,,,6100b7d1d121da73b60c7b6e,61036ad27baab5273ba77ca5,2021-07-30_04h59.42.070,Simcolourproject_2stim_asymm_v5,2020.2.10,Win32,60,61025ae37ef11b136ea224fe,,,,,,,,,2020,36.80001199,95.99999499,1,0,0,response1disk,,7,10.4000116,10.39999372,1,0,0,rectangle,10.4000116,10.39999372,1,0,0,10.4000116,10.39999372,1,0,0,1,54,214,158,1,,,,,,,,
,,,,,,,,,,,,,FF,,,,,,,,1.1503,,,,,,,,,,,,,,,,,,,,,,6100b7d1d121da73b60c7b6e,61036ad27baab5273ba77ca5,2021-07-30_04h59.42.070,Simcolourproject_2stim_asymm_v5,2020.2.10,Win32,60,61025ae37ef11b136ea224fe,,,,,,,,,2573,45.60006095,85.59999484,1,0,0,response1disk,,7,-8.799988687,-13.60000664,1,0,0,rectangle,-8.799988687,-13.60000664,1,0,0,-8.799988687,-13.60000664,1,0,0,1,55,215,12,1,,,,,,,,
,,,,,,,,,,,,,FF,,,,,,,,0.7666,,,,,,,,,,,,,,,,,,,,,,6100b7d1d121da73b60c7b6e,61036ad27baab5273ba77ca5,2021-07-30_04h59.42.070,Simcolourproject_2stim_asymm_v5,2020.2.10,Win32,60,61025ae37ef11b136ea224fe,,,,,,,,,1559,63.20001239,99.19997063,1,0,0,response1disk,,7,0.800011456,11.19999373,1,0,0,rectangle,0.800011456,11.19999373,1,0,0,0.800011456,11.19999373,1,0,0,1,56,216,53,1,,,,,,,,
,,,,,,,,,,,,,FF,,,,,,,,1.5996,,,,,,,,,,,,,,,,,,,,,,6100b7d1d121da73b60c7b6e,61036ad27baab5273ba77ca5,2021-07-30_04h59.42.070,Simcolourproject_2stim_asymm_v5,2020.2.10,Win32,60,61025ae37ef11b136ea224fe,,,,,,,,,2380,75.20001256,48.79999429,1,0,0,response1disk,,6,16.00001168,9.599993706,1,0,0,rectangle,16.00001168,9.599993706,1,0,0,16.00001168,9.599993706,1,0,0,1,57,217,16,1,,,,,,,,
,,,,,,,,,,,,,FF,,,,,,,,1.3727,,,,,,,,,,,,,,,,,,,,,,6100b7d1d121da73b60c7b6e,61036ad27baab5273ba77ca5,2021-07-30_04h59.42.070,Simcolourproject_2stim_asymm_v5,2020.2.10,Win32,60,61025ae37ef11b136ea224fe,,,,,,,,,3770,52.80001223,90.39999491,1,0,0,response1disk,,7,12.80001163,11.19999373,1,0,0,rectangle,12.80001163,11.19999373,1,0,0,12.80001163,11.19999373,1,0,0,1,58,218,125,1,,,,,,,,
,,,,,,,,,,,,,FF,,,,,,,,1.2666,,,,,,,,,,,,,,,,,,,,,,6100b7d1d121da73b60c7b6e,61036ad27baab5273ba77ca5,2021-07-30_04h59.42.070,Simcolourproject_2stim_asymm_v5,2020.2.10,Win32,60,61025ae37ef11b136ea224fe,,,,,,,,,4181,-24.79998893,71.19997021,1,0,0,response7disk,,0,9.600060415,4.799993634,1,0,0,rectangle,9.600060415,4.799993634,1,0,0,9.600060415,4.799993634,1,0,0,1,59,219,119,1,,,,,,,,
,,,,,,,,,,,,,FF,,,,,,,,1.0161,,,,,,,,,,,,,,,,,,,,,,6100b7d1d121da73b60c7b6e,61036ad27baab5273ba77ca5,2021-07-30_04h59.42.070,Simcolourproject_2stim_asymm_v5,2020.2.10,Win32,60,61025ae37ef11b136ea224fe,,,,,,,,,588,76.80001259,95.19997057,1,0,0,response1disk,,7,20.80001175,3.19999361,1,0,0,rectangle,20.80001175,3.19999361,1,0,0,20.80001175,3.19999361,1,0,0,1,60,220,34,1,,,,,,,,
,,,,,,,,,,,,,FF,,,,,,,,1.6168,,,,,,,,,,,,,,,,,,,,,,6100b7d1d121da73b60c7b6e,61036ad27baab5273ba77ca5,2021-07-30_04h59.42.070,Simcolourproject_2stim_asymm_v5,2020.2.10,Win32,60,61025ae37ef11b136ea224fe,,,,,,,,,2247,80.00001264,-30.40000689,1,0,0,response3disk,,5,15.20001167,12.79999375,1,0,0,rectangle,15.20001167,12.79999375,1,0,0,15.20001167,12.79999375,1,0,0,1,61,221,41,1,,,,,,,,
,,,,,,,,,,,,,FF,,,,,,,,1.7835,,,,,,,,,,,,,,,,,,,,,,6100b7d1d121da73b60c7b6e,61036ad27baab5273ba77ca5,2021-07-30_04h59.42.070,Simcolourproject_2stim_asymm_v5,2020.2.10,Win32,60,61025ae37ef11b136ea224fe,,,,,,,,,3082,70.40001249,-59.20000732,1,0,0,response3disk,,5,22.40001178,-15.20000666,1,0,0,rectangle,22.40001178,-15.20000666,1,0,0,22.40001178,-15.20000666,1,0,0,1,62,222,112,1,,,,,,,,
,,,,,,,,,,,,,FF,,,,,,,,1.3365,,,,,,,,,,,,,,,,,,,,,,6100b7d1d121da73b60c7b6e,61036ad27baab5273ba77ca5,2021-07-30_04h59.42.070,Simcolourproject_2stim_asymm_v5,2020.2.10,Win32,60,61025ae37ef11b136ea224fe,,,,,,,,,621,-57.59998941,-34.40000695,1,0,0,response5disk,,2,-3.999988616,-3.200006485,1,0,0,rectangle,-3.999988616,-3.200006485,1,0,0,-3.999988616,-3.200006485,1,0,0,1,63,223,65,1,,,,,,,,
,,,,,,,,,,,,,FF,,,,,,,,1.217,,,,,,,,,,,,,,,,,,,,,,6100b7d1d121da73b60c7b6e,61036ad27baab5273ba77ca5,2021-07-30_04h59.42.070,Simcolourproject_2stim_asymm_v5,2020.2.10,Win32,60,61025ae37ef11b136ea224fe,,,,,,,,,837,27.20001185,-75.20000756,1,0,0,response3disk,,4,-4.799988627,-8.800006568,1,0,0,rectangle,-4.799988627,-8.800006568,1,0,0,-4.799988627,-8.800006568,1,0,0,1,64,224,80,1,,,,,,,,
,,,,,,,,,,,,,FF,,,,,,,,1.1065,,,,,,,,,,,,,,,,,,,,,,6100b7d1d121da73b60c7b6e,61036ad27baab5273ba77ca5,2021-07-30_04h59.42.070,Simcolourproject_2stim_asymm_v5,2020.2.10,Win32,60,61025ae37ef11b136ea224fe,,,,,,,,,582,52.80001223,-36.00000697,1,0,0,response3disk,,5,9.600060415,7.19999367,1,0,0,rectangle,9.600060415,7.19999367,1,0,0,9.600060415,7.19999367,1,0,0,1,65,225,9,1,,,,,,,,
,,,,,,,,,,,,,FF,,,,,,,,1.9666,,,,,,,,,,,,,,,,,,,,,,6100b7d1d121da73b60c7b6e,61036ad27baab5273ba77ca5,2021-07-30_04h59.42.070,Simcolourproject_2stim_asymm_v5,2020.2.10,Win32,60,61025ae37ef11b136ea224fe,,,,,,,,,1384,28.00001186,-71.2000075,1,0,0,response3disk,,4,-14.39993994,-7.200006545,1,0,0,rectangle,-14.39993994,-7.200006545,1,0,0,-14.39993994,-7.200006545,1,0,0,1,66,226,52,1,,,,,,,,
,,,,,,,,,,,,,FF,,,,,,,,1.0762,,,,,,,,,,,,,,,,,,,,,,6100b7d1d121da73b60c7b6e,61036ad27baab5273ba77ca5,2021-07-30_04h59.42.070,Simcolourproject_2stim_asymm_v5,2020.2.10,Win32,60,61025ae37ef11b136ea224fe,,,,,,,,,2625,50.4000122,87.19997045,1,0,0,response1disk,,7,-1.59998858,12.79999375,1,0,0,rectangle,-1.59998858,12.79999375,1,0,0,-1.59998858,12.79999375,1,0,0,1,67,227,30,1,,,,,,,,
,,,,,,,,,,,,,FF,,,,,,,,0.8834,,,,,,,,,,,,,,,,,,,,,,6100b7d1d121da73b60c7b6e,61036ad27baab5273ba77ca5,2021-07-30_04h59.42.070,Simcolourproject_2stim_asymm_v5,2020.2.10,Win32,60,61025ae37ef11b136ea224fe,,,,,,,,,1668,62.40001237,110.3999952,1,0,0,response1disk,,7,1.600060296,3.999993622,1,0,0,rectangle,1.600060296,3.999993622,1,0,0,1.600060296,3.999993622,1,0,0,1,68,228,128,1,,,,,,,,
,,,,,,,,,,,,,FF,,,,,,,,1.7332,,,,,,,,,,,,,,,,,,,,,,6100b7d1d121da73b60c7b6e,61036ad27baab5273ba77ca5,2021-07-30_04h59.42.070,Simcolourproject_2stim_asymm_v5,2020.2.10,Win32,60,61025ae37ef11b136ea224fe,,,,,,,,,1918,40.80001205,-84.8000077,1,0,0,response3disk,,4,17.60006053,-1.600006461,1,0,0,rectangle,17.60006053,-1.600006461,1,0,0,17.60006053,-1.600006461,1,0,0,1,69,229,48,1,,,,,,,,
,,,,,,,,,,,,,FF,,,,,,,,1.6172,,,,,,,,,,,,,,,,,,,,,,6100b7d1d121da73b60c7b6e,61036ad27baab5273ba77ca5,2021-07-30_04h59.42.070,Simcolourproject_2stim_asymm_v5,2020.2.10,Win32,60,61025ae37ef11b136ea224fe,,,,,,,,,1694,74.40001255,-56.80000728,1,0,0,response3disk,,5,22.40001178,3.19999361,1,0,0,rectangle,22.40001178,3.19999361,1,0,0,22.40001178,3.19999361,1,0,0,1,70,230,76,1,,,,,,,,
,,,,,,,,,,,,,FF,,,,,,,,2.6495,,,,,,,,,,,,,,,,,,,,,,6100b7d1d121da73b60c7b6e,61036ad27baab5273ba77ca5,2021-07-30_04h59.42.070,Simcolourproject_2stim_asymm_v5,2020.2.10,Win32,60,61025ae37ef11b136ea224fe,,,,,,,,,3805,69.60001248,32.79999405,1,0,0,response1disk,,6,9.600060415,-12.80000663,1,0,0,rectangle,9.600060415,-12.80000663,1,0,0,9.600060415,-12.80000663,1,0,0,1,71,231,7,1,,,,,,,,
,,,,,,,,,,,,,FF,,,,,,,,1.1998,,,,,,,,,,,,,,,,,,,,,,6100b7d1d121da73b60c7b6e,61036ad27baab5273ba77ca5,2021-07-30_04h59.42.070,Simcolourproject_2stim_asymm_v5,2020.2.10,Win32,60,61025ae37ef11b136ea224fe,,,,,,,,,1086,-52.79998934,-29.60000688,1,0,0,response5disk,,2,-1.59998858,-8.800006568,1,0,0,rectangle,-1.59998858,-8.800006568,1,0,0,-1.59998858,-8.800006568,1,0,0,1,72,232,90,1,,,,,,,,
,,,,,,,,,,,,,FF,,,,,,,,1.2068,,,,,,,,,,,,,,,,,,,,,,6100b7d1d121da73b60c7b6e,61036ad27baab5273ba77ca5,2021-07-30_04h59.42.070,Simcolourproject_2stim_asymm_v5,2020.2.10,Win32,60,61025ae37ef11b136ea224fe,,,,,,,,,1910,-44.79998922,-80.00000763,1,0,0,response5disk,,3,12.80001163,-5.600006521,1,0,0,rectangle,12.80001163,-5.600006521,1,0,0,12.80001163,-5.600006521,1,0,0,1,73,233,51,1,,,,,,,,
,,,,,,,,,,,,,FF,,,,,,,,0.8004,,,,,,,,,,,,,,,,,,,,,,6100b7d1d121da73b60c7b6e,61036ad27baab5273ba77ca5,2021-07-30_04h59.42.070,Simcolourproject_2stim_asymm_v5,2020.2.10,Win32,60,61025ae37ef11b136ea224fe,,,,,,,,,1700,43.20001209,89.5999949,1,0,0,response1disk,,7,-0.799988568,-7.200006545,1,0,0,rectangle,-0.799988568,-7.200006545,1,0,0,-0.799988568,-7.200006545,1,0,0,1,74,234,152,1,,,,,,,,
,,,,,,,,,,,,,FF,,,,,,,,1.2992,,,,,,,,,,,,,,,,,,,,,,6100b7d1d121da73b60c7b6e,61036ad27baab5273ba77ca5,2021-07-30_04h59.42.070,Simcolourproject_2stim_asymm_v5,2020.2.10,Win32,60,61025ae37ef11b136ea224fe,,,,,,,,,1658,28.80001187,-75.20000756,1,0,0,response3disk,,4,-4.799988627,0.799993575,1,0,0,rectangle,-4.799988627,0.799993575,1,0,0,-4.799988627,0.799993575,1,0,0,1,75,235,59,1,,,,,,,,
,,,,,,,,,,,,,FF,,,,,,,,2.0267,,,,,,,,,,,,,,,,,,,,,,6100b7d1d121da73b60c7b6e,61036ad27baab5273ba77ca5,2021-07-30_04h59.42.070,Simcolourproject_2stim_asymm_v5,2020.2.10,Win32,60,61025ae37ef11b136ea224fe,,,,,,,,,3824,-42.39994036,-60.00000733,1,0,0,response5disk,,3,-7.199988663,-4.800006509,1,0,0,rectangle,-24.79998893,-87.20000774,1,0,0,-3.199988604,-8.000006557,1,0,0,1,76,236,75,1,,response5disk_3,TRUE,3,3,"[170,5,301,279,263,148,169,272,158,237,238,194,192,140,255,115,163,176,157,293]",2.3601,rectangle
,,,,,,,,,,,,,FF,,,,,,,,1.2005,,,,,,,,,,,,,,,,,,,,,,6100b7d1d121da73b60c7b6e,61036ad27baab5273ba77ca5,2021-07-30_04h59.42.070,Simcolourproject_2stim_asymm_v5,2020.2.10,Win32,60,61025ae37ef11b136ea224fe,,,,,,,,,1772,-43.99998921,-69.60000747,1,0,0,response5disk,,3,-2.399939764,-8.000006557,1,0,0,rectangle,49.60006101,95.99999499,1,0,0,2.40001148,13.59999377,1,0,0,1,77,237,54,1,,response1disk_3,TRUE,7,7,"[170,5,301,279,263,148,169,272,158,237,238,194,192,140,255,115,163,176,157,293]",1.5829,rectangle
,,,,,,,,,,,,,FF,,,,,,,,1.4498,,,,,,,,,,,,,,,,,,,,,,6100b7d1d121da73b60c7b6e,61036ad27baab5273ba77ca5,2021-07-30_04h59.42.070,Simcolourproject_2stim_asymm_v5,2020.2.10,Win32,60,61025ae37ef11b136ea224fe,,,,,,,,,658,-89.59998989,-43.20000708,1,0,0,response5disk,,2,-2.399939764,0.799993575,1,0,0,rectangle,-2.399939764,0.799993575,1,0,0,-2.399939764,0.799993575,1,0,0,1,78,238,78,1,,,,,,,,
,,,,,,,,,,,,,FF,,,,,,,,1.8998,,,,,,,,,,,,,,,,,,,,,,6100b7d1d121da73b60c7b6e,61036ad27baab5273ba77ca5,2021-07-30_04h59.42.070,Simcolourproject_2stim_asymm_v5,2020.2.10,Win32,60,61025ae37ef11b136ea224fe,,,,,,,,,2449,76.00001258,-48.80000716,1,0,0,response3disk,,5,18.40001172,-14.40000665,1,0,0,rectangle,18.40001172,-14.40000665,1,0,0,18.40001172,-14.40000665,1,0,0,1,79,239,103,1,,,,,,,,
,,,,,,,,,,,,,FF,,,,,,,,1.2827,,,,,,,,,,,,,,,,,,,,,,6100b7d1d121da73b60c7b6e,61036ad27baab5273ba77ca5,2021-07-30_04h59.42.070,Simcolourproject_2stim_asymm_v5,2020.2.10,Win32,60,61025ae37ef11b136ea224fe,,,,,,,,,2914,65.60001242,-40.80000705,1,0,0,response3disk,,5,-2.399939764,6.399993658,1,0,0,rectangle,-2.399939764,6.399993658,1,0,0,-2.399939764,6.399993658,1,0,0,1,80,240,56,1,,,,,,,,
,,,,,,,,,,,,,FF,,,,,,,,1.0496,,,,,,,,,,,,,,,,,,,,,,6100b7d1d121da73b60c7b6e,61036ad27baab5273ba77ca5,2021-07-30_04h59.42.070,Simcolourproject_2stim_asymm_v5,2020.2.10,Win32,60,61025ae37ef11b136ea224fe,,,,,,,,,160,-46.39994042,-71.2000075,1,0,0,response5disk,,3,-14.39993994,-11.2000066,1,0,0,rectangle,-14.39993994,-11.2000066,1,0,0,-14.39993994,-11.2000066,1,0,0,1,81,241,83,1,,,,,,,,
,,,,,,,,,,,,,FF,,,,,,,,0.9322,,,,,,,,,,,,,,,,,,,,,,6100b7d1d121da73b60c7b6e,61036ad27baab5273ba77ca5,2021-07-30_04h59.42.070,Simcolourproject_2stim_asymm_v5,2020.2.10,Win32,60,61025ae37ef11b136ea224fe,,,,,,,,,4324,63.20001239,79.99999475,1,0,0,response1disk,,7,4.000011504,-5.600006521,1,0,0,rectangle,4.000011504,-5.600006521,1,0,0,4.000011504,-5.600006521,1,0,0,1,82,242,111,1,,,,,,,,
,,,,,,,,,,,,,FF,,,,,,,,0.917,,,,,,,,,,,,,,,,,,,,,,6100b7d1d121da73b60c7b6e,61036ad27baab5273ba77ca5,2021-07-30_04h59.42.070,Simcolourproject_2stim_asymm_v5,2020.2.10,Win32,60,61025ae37ef11b136ea224fe,,,,,,,,,3874,55.20001227,70.39999461,1,0,0,response1disk,,7,12.00001162,-4.000006497,1,0,0,rectangle,12.00001162,-4.000006497,1,0,0,12.00001162,-4.000006497,1,0,0,1,83,243,92,1,,,,,,,,
