key_resp.keys,key_resp.rt,key_resp_14.keys,key_resp_14.rt,key_resp_15.keys,key_resp_15.rt,key_resp_17.keys,key_resp_17.rt,key_resp_9.keys,key_resp_9.rt,key_resp_10.keys,key_resp_10.rt,practice_comparison,Ecc,mouse_5.x,mouse_5.y,mouse_5.leftButton,mouse_5.midButton,mouse_5.rightButton,mouse_5.clicked_name,pracsimilarity,response_time,mouse_10.x,mouse_10.y,mouse_10.leftButton,mouse_10.midButton,mouse_10.rightButton,mouse_10.clicked_name,mouse_7.x,mouse_7.y,mouse_7.leftButton,mouse_7.midButton,mouse_7.rightButton,mouse_6.x,mouse_6.y,mouse_6.leftButton,mouse_6.midButton,mouse_6.rightButton,duringprac.thisRepN,duringprac.thisTrialN,duringprac.thisN,duringprac.thisIndex,duringprac.ran,participant,session,date,expName,psychopyVersion,OS,frameRate,study_id,mouse_7.clicked_name,catchpracsimilarity,catch_response_time,catchnumberprac,catchtrialorderprac,mouse_6.clicked_name,key_resp_22.keys,key_resp_22.rt,realcomparison,mouse.x,mouse.y,mouse.leftButton,mouse.midButton,mouse.rightButton,mouse.clicked_name,Colour2,similarity,mouse_2.x,mouse_2.y,mouse_2.leftButton,mouse_2.midButton,mouse_2.rightButton,mouse_2.clicked_name,mouse_3.x,mouse_3.y,mouse_3.leftButton,mouse_3.midButton,mouse_3.rightButton,mouse_11.x,mouse_11.y,mouse_11.leftButton,mouse_11.midButton,mouse_11.rightButton,trials_2.thisRepN,trials_2.thisTrialN,trials_2.thisN,trials_2.thisIndex,trials_2.ran,Colour1,mouse_3.clicked_name,catchornah,catchsimilarity,catchnumber,catchtrialorder,catchRT,mouse_11.clicked_name
space,1.779075,space,7.35244,space,15.213885,space,4.35277,space,1.01729,space,2.703425,100,PF,-36.15234375,74.63671875,1,0,0,response7disk_5,0,6.17493,7.12890625,0.87890625,1,0,0,rectangle_8,7.12890625,0.87890625,1,0,0,7.12890625,0.87890625,1,0,0,0,0,0,1,1,61002f666835203714619c62,610378b7667d227694650990,2021-07-29_20h58.51.680,Simcolourproject_2stim_asymm_v5,2020.2.10,MacIntel,60,61025ae37ef11b136ea224fe,,,,,,,,,,,,,,,,,,,,,,,,,,,,,,,,,,,,,,,,,,,,,,
,,,,,,,,,,,,27,PF,43.41796875,71.515625,1,0,0,response1disk_5,7,3.321345,3.140625,8.1328125,1,0,0,rectangle_8,29.08203125,69.63671875,1,0,0,4.52734375,14.93359375,1,0,0,0,1,1,4,1,61002f666835203714619c62,610378b7667d227694650990,2021-07-29_20h58.51.680,Simcolourproject_2stim_asymm_v5,2020.2.10,MacIntel,60,61025ae37ef11b136ea224fe,response1disk_7,7,2.076465,7,"[2,5]",rectangle_4,,,,,,,,,,,,,,,,,,,,,,,,,,,,,,,,,,,,,,,,
,,,,,,,,,,,,58,PF,48.58203125,67.24609375,1,0,0,response1disk_5,7,2.301885,-5.84375,-3.41015625,1,0,0,rectangle_8,-5.84375,-3.41015625,1,0,0,-5.84375,-3.41015625,1,0,0,0,2,2,2,1,61002f666835203714619c62,610378b7667d227694650990,2021-07-29_20h58.51.680,Simcolourproject_2stim_asymm_v5,2020.2.10,MacIntel,60,61025ae37ef11b136ea224fe,,,,,,,,,,,,,,,,,,,,,,,,,,,,,,,,,,,,,,,,,,,,,,
,,,,,,,,,,,,150,PF,37.53515625,-81.30078125,1,0,0,response3disk_5,4,2.81988,6.8828125,-12.1328125,1,0,0,rectangle_8,6.8828125,-12.1328125,1,0,0,6.8828125,-12.1328125,1,0,0,0,3,3,6,1,61002f666835203714619c62,610378b7667d227694650990,2021-07-29_20h58.51.680,Simcolourproject_2stim_asymm_v5,2020.2.10,MacIntel,60,61025ae37ef11b136ea224fe,,,,,,,,,,,,,,,,,,,,,,,,,,,,,,,,,,,,,,,,,,,,,,
,,,,,,,,,,,,83,FF,82.86328125,-46.00390625,1,0,0,response3disk_5,5,1.234725,-6.08984375,14.640625,1,0,0,rectangle_8,57.74609375,59.140625,1,0,0,8.9765625,-10.76171875,1,0,0,0,4,4,3,1,61002f666835203714619c62,610378b7667d227694650990,2021-07-29_20h58.51.680,Simcolourproject_2stim_asymm_v5,2020.2.10,MacIntel,60,61025ae37ef11b136ea224fe,response1disk_7,7,1.333665,7,"[2,5]",rectangle_4,,,,,,,,,,,,,,,,,,,,,,,,,,,,,,,,,,,,,,,,
,,,,,,,,,,,,8,FF,-43.484375,-65.84765625,1,0,0,response5disk_5,3,2.40302,-4.66015625,-0.3984375,1,0,0,rectangle_8,-4.66015625,-0.3984375,1,0,0,-4.66015625,-0.3984375,1,0,0,0,5,5,5,1,61002f666835203714619c62,610378b7667d227694650990,2021-07-29_20h58.51.680,Simcolourproject_2stim_asymm_v5,2020.2.10,MacIntel,60,61025ae37ef11b136ea224fe,,,,,,,,,,,,,,,,,,,,,,,,,,,,,,,,,,,,,,,,,,,,,,
,,,,,,,,,,,,114,FF,74.75390625,-44.51171875,1,0,0,response3disk_5,5,1.810735,-25.56640625,0.87890625,1,0,0,rectangle_8,-25.56640625,0.87890625,1,0,0,-25.56640625,0.87890625,1,0,0,0,6,6,0,1,61002f666835203714619c62,610378b7667d227694650990,2021-07-29_20h58.51.680,Simcolourproject_2stim_asymm_v5,2020.2.10,MacIntel,60,61025ae37ef11b136ea224fe,,,,,,,,,,,,,,,,,,,,,,,,,,,,,,,,,,,,,,,,,,,,,,
,,,,,,,,,,,,,FF,,,,,,,,4.189145,,,,,,,,,,,,,,,,,,,,,,61002f666835203714619c62,610378b7667d227694650990,2021-07-29_20h58.51.680,Simcolourproject_2stim_asymm_v5,2020.2.10,MacIntel,60,61025ae37ef11b136ea224fe,,,,,,,space,1.373205,2664,-38.6640625,-53.90234375,1,0,0,response5disk,,3,-19.21484375,-5.17578125,1,0,0,rectangle,-19.21484375,-5.17578125,1,0,0,-19.21484375,-5.17578125,1,0,0,0,0,0,85,1,,,,,,,,
,,,,,,,,,,,,,FF,,,,,,,,1.335305,,,,,,,,,,,,,,,,,,,,,,61002f666835203714619c62,610378b7667d227694650990,2021-07-29_20h58.51.680,Simcolourproject_2stim_asymm_v5,2020.2.10,MacIntel,60,61025ae37ef11b136ea224fe,,,,,,,,,1954,83.546875,-36.6328125,1,0,0,response3disk,,5,-21.625,2.8203125,1,0,0,rectangle,-21.625,2.8203125,1,0,0,-21.625,2.8203125,1,0,0,0,1,1,73,1,,,,,,,,
,,,,,,,,,,,,,FF,,,,,,,,3.28594,,,,,,,,,,,,,,,,,,,,,,61002f666835203714619c62,610378b7667d227694650990,2021-07-29_20h58.51.680,Simcolourproject_2stim_asymm_v5,2020.2.10,MacIntel,60,61025ae37ef11b136ea224fe,,,,,,,,,1472,-40.1953125,-40.7265625,1,0,0,response5disk,,3,7.078125,-8.78515625,1,0,0,rectangle,7.078125,-8.78515625,1,0,0,7.078125,-8.78515625,1,0,0,0,2,2,114,1,,,,,,,,
,,,,,,,,,,,,,FF,,,,,,,,4.853645,,,,,,,,,,,,,,,,,,,,,,61002f666835203714619c62,610378b7667d227694650990,2021-07-29_20h58.51.680,Simcolourproject_2stim_asymm_v5,2020.2.10,MacIntel,60,61025ae37ef11b136ea224fe,,,,,,,,,1213,-46.08984375,-45.12890625,1,0,0,response5disk,,2,-11.88671875,4.30078125,1,0,0,rectangle,104.7265625,-42.45703125,1,0,0,-7.91015625,-4.0859375,1,0,0,0,3,3,156,1,,response3disk_3,TRUE,5,5,"[63,152,104,61,84,239,62,297,81,34,211,292,99,98,128,147,199,7,4,29]",2.101355,rectangle
,,,,,,,,,,,,,FF,,,,,,,,1.118455,,,,,,,,,,,,,,,,,,,,,,61002f666835203714619c62,610378b7667d227694650990,2021-07-29_20h58.51.680,Simcolourproject_2stim_asymm_v5,2020.2.10,MacIntel,60,61025ae37ef11b136ea224fe,,,,,,,,,861,72.140625,28.4296875,1,0,0,response1disk,,6,-5.1953125,-7.3203125,1,0,0,rectangle,-5.1953125,-7.3203125,1,0,0,-5.1953125,-7.3203125,1,0,0,0,4,4,50,1,,,,,,,,
,,,,,,,,,,,,,FF,,,,,,,,2.27758,,,,,,,,,,,,,,,,,,,,,,61002f666835203714619c62,610378b7667d227694650990,2021-07-29_20h58.51.680,Simcolourproject_2stim_asymm_v5,2020.2.10,MacIntel,60,61025ae37ef11b136ea224fe,,,,,,,,,1180,-71.55859375,-65.58203125,1,0,0,response5disk,,2,-4.1953125,-14.9375,1,0,0,rectangle,-4.1953125,-14.9375,1,0,0,-4.1953125,-14.9375,1,0,0,0,5,5,133,1,,,,,,,,
,,,,,,,,,,,,,FF,,,,,,,,0.933915,,,,,,,,,,,,,,,,,,,,,,61002f666835203714619c62,610378b7667d227694650990,2021-07-29_20h58.51.680,Simcolourproject_2stim_asymm_v5,2020.2.10,MacIntel,60,61025ae37ef11b136ea224fe,,,,,,,,,269,103.9726563,-36.73046875,1,0,0,response3disk,,5,-5.75,-12.26171875,1,0,0,rectangle,-23.65234375,-91.18359375,1,0,0,-22.02734375,-10.65625,1,0,0,0,6,6,8,1,,response5disk_3,TRUE,3,3,"[63,152,104,61,84,239,62,297,81,34,211,292,99,98,128,147,199,7,4,29]",1.86767,rectangle
,,,,,,,,,,,,,FF,,,,,,,,3.00394,,,,,,,,,,,,,,,,,,,,,,61002f666835203714619c62,610378b7667d227694650990,2021-07-29_20h58.51.680,Simcolourproject_2stim_asymm_v5,2020.2.10,MacIntel,60,61025ae37ef11b136ea224fe,,,,,,,,,2667,-68.35546875,32.421875,1,0,0,response7disk,,1,-5.015625,-0.8125,1,0,0,rectangle,-5.015625,-0.8125,1,0,0,-5.015625,-0.8125,1,0,0,0,7,7,46,1,,,,,,,,
,,,,,,,,,,,,,FF,,,,,,,,1.451515,,,,,,,,,,,,,,,,,,,,,,61002f666835203714619c62,610378b7667d227694650990,2021-07-29_20h58.51.680,Simcolourproject_2stim_asymm_v5,2020.2.10,MacIntel,60,61025ae37ef11b136ea224fe,,,,,,,,,1943,47.3671875,-55.65234375,1,0,0,response3disk,,4,-16.4609375,-4.35546875,1,0,0,rectangle,-16.4609375,-4.35546875,1,0,0,-16.4609375,-4.35546875,1,0,0,0,8,8,148,1,,,,,,,,
,,,,,,,,,,,,,FF,,,,,,,,1.50056,,,,,,,,,,,,,,,,,,,,,,61002f666835203714619c62,610378b7667d227694650990,2021-07-29_20h58.51.680,Simcolourproject_2stim_asymm_v5,2020.2.10,MacIntel,60,61025ae37ef11b136ea224fe,,,,,,,,,1775,-53.27734375,-67.21875,1,0,0,response5disk,,3,-26.87109375,1.82421875,1,0,0,rectangle,-26.87109375,1.82421875,1,0,0,-26.87109375,1.82421875,1,0,0,0,9,9,124,1,,,,,,,,
,,,,,,,,,,,,,FF,,,,,,,,0.50142,,,,,,,,,,,,,,,,,,,,,,61002f666835203714619c62,610378b7667d227694650990,2021-07-29_20h58.51.680,Simcolourproject_2stim_asymm_v5,2020.2.10,MacIntel,60,61025ae37ef11b136ea224fe,,,,,,,,,614,64.41015625,37.4140625,1,0,0,response1disk,,6,-10.12109375,3.71484375,1,0,0,rectangle,-10.12109375,3.71484375,1,0,0,-10.12109375,3.71484375,1,0,0,0,10,10,143,1,,,,,,,,
,,,,,,,,,,,,,FF,,,,,,,,0.551345,,,,,,,,,,,,,,,,,,,,,,61002f666835203714619c62,610378b7667d227694650990,2021-07-29_20h58.51.680,Simcolourproject_2stim_asymm_v5,2020.2.10,MacIntel,60,61025ae37ef11b136ea224fe,,,,,,,,,1233,-56.07421875,-49.65625,1,0,0,response5disk,,2,41.3828125,-4.0234375,1,0,0,rectangle,41.3828125,-4.0234375,1,0,0,41.3828125,-4.0234375,1,0,0,0,11,11,25,1,,,,,,,,
,,,,,,,,,,,,,FF,,,,,,,,0.96716,,,,,,,,,,,,,,,,,,,,,,61002f666835203714619c62,610378b7667d227694650990,2021-07-29_20h58.51.680,Simcolourproject_2stim_asymm_v5,2020.2.10,MacIntel,60,61025ae37ef11b136ea224fe,,,,,,,,,3340,68.37890625,-36.3046875,1,0,0,response3disk,,5,-6.8359375,-9.44140625,1,0,0,rectangle,-6.8359375,-9.44140625,1,0,0,-6.8359375,-9.44140625,1,0,0,0,12,12,45,1,,,,,,,,
,,,,,,,,,,,,,FF,,,,,,,,2.36725,,,,,,,,,,,,,,,,,,,,,,61002f666835203714619c62,610378b7667d227694650990,2021-07-29_20h58.51.680,Simcolourproject_2stim_asymm_v5,2020.2.10,MacIntel,60,61025ae37ef11b136ea224fe,,,,,,,,,4316,-41.00390625,91.859375,1,0,0,response7disk,,0,0.28515625,-3.59375,1,0,0,rectangle,0.28515625,-3.59375,1,0,0,0.28515625,-3.59375,1,0,0,0,13,13,135,1,,,,,,,,
,,,,,,,,,,,,,FF,,,,,,,,1.16748,,,,,,,,,,,,,,,,,,,,,,61002f666835203714619c62,610378b7667d227694650990,2021-07-29_20h58.51.680,Simcolourproject_2stim_asymm_v5,2020.2.10,MacIntel,60,61025ae37ef11b136ea224fe,,,,,,,,,2347,-42.53125,-76.4609375,1,0,0,response5disk,,3,21.27734375,7.6640625,1,0,0,rectangle,21.27734375,7.6640625,1,0,0,21.27734375,7.6640625,1,0,0,0,14,14,67,1,,,,,,,,
,,,,,,,,,,,,,FF,,,,,,,,1.283625,,,,,,,,,,,,,,,,,,,,,,61002f666835203714619c62,610378b7667d227694650990,2021-07-29_20h58.51.680,Simcolourproject_2stim_asymm_v5,2020.2.10,MacIntel,60,61025ae37ef11b136ea224fe,,,,,,,,,204,70.4609375,-38.453125,1,0,0,response3disk,,5,-16.9375,-3.2734375,1,0,0,rectangle,-16.9375,-3.2734375,1,0,0,-16.9375,-3.2734375,1,0,0,0,15,15,101,1,,,,,,,,
,,,,,,,,,,,,,FF,,,,,,,,1.08359,,,,,,,,,,,,,,,,,,,,,,61002f666835203714619c62,610378b7667d227694650990,2021-07-29_20h58.51.680,Simcolourproject_2stim_asymm_v5,2020.2.10,MacIntel,60,61025ae37ef11b136ea224fe,,,,,,,,,1267,-23.53125,-74.19140625,1,0,0,response5disk,,3,8.2421875,-10.5234375,1,0,0,rectangle,8.2421875,-10.5234375,1,0,0,8.2421875,-10.5234375,1,0,0,0,16,16,7,1,,,,,,,,
,,,,,,,,,,,,,FF,,,,,,,,0.667105,,,,,,,,,,,,,,,,,,,,,,61002f666835203714619c62,610378b7667d227694650990,2021-07-29_20h58.51.680,Simcolourproject_2stim_asymm_v5,2020.2.10,MacIntel,60,61025ae37ef11b136ea224fe,,,,,,,,,570,50.57421875,-77.2265625,1,0,0,response3disk,,4,21.91796875,0.02734375,1,0,0,rectangle,21.91796875,0.02734375,1,0,0,21.91796875,0.02734375,1,0,0,0,17,17,118,1,,,,,,,,
,,,,,,,,,,,,,FF,,,,,,,,1.000875,,,,,,,,,,,,,,,,,,,,,,61002f666835203714619c62,610378b7667d227694650990,2021-07-29_20h58.51.680,Simcolourproject_2stim_asymm_v5,2020.2.10,MacIntel,60,61025ae37ef11b136ea224fe,,,,,,,,,565,36.0859375,-63.45703125,1,0,0,response3disk,,4,2.6484375,-11.55859375,1,0,0,rectangle,2.6484375,-11.55859375,1,0,0,2.6484375,-11.55859375,1,0,0,0,18,18,137,1,,,,,,,,
,,,,,,,,,,,,,FF,,,,,,,,0.783575,,,,,,,,,,,,,,,,,,,,,,61002f666835203714619c62,610378b7667d227694650990,2021-07-29_20h58.51.680,Simcolourproject_2stim_asymm_v5,2020.2.10,MacIntel,60,61025ae37ef11b136ea224fe,,,,,,,,,3722,-31.765625,-73.44140625,1,0,0,response5disk,,3,-11.02734375,-6.140625,1,0,0,rectangle,-11.02734375,-6.140625,1,0,0,-11.02734375,-6.140625,1,0,0,0,19,19,90,1,,,,,,,,
,,,,,,,,,,,,,FF,,,,,,,,1.149935,,,,,,,,,,,,,,,,,,,,,,61002f666835203714619c62,610378b7667d227694650990,2021-07-29_20h58.51.680,Simcolourproject_2stim_asymm_v5,2020.2.10,MacIntel,60,61025ae37ef11b136ea224fe,,,,,,,,,2872,-35.984375,-74.42578125,1,0,0,response5disk,,3,-11.32421875,-0.390625,1,0,0,rectangle,-11.32421875,-0.390625,1,0,0,-11.32421875,-0.390625,1,0,0,0,20,20,79,1,,,,,,,,
,,,,,,,,,,,,,FF,,,,,,,,0.9335,,,,,,,,,,,,,,,,,,,,,,61002f666835203714619c62,610378b7667d227694650990,2021-07-29_20h58.51.680,Simcolourproject_2stim_asymm_v5,2020.2.10,MacIntel,60,61025ae37ef11b136ea224fe,,,,,,,,,2931,59.109375,95.86328125,1,0,0,response1disk,,7,3.8671875,-6.58203125,1,0,0,rectangle,3.8671875,-6.58203125,1,0,0,3.8671875,-6.58203125,1,0,0,0,21,21,123,1,,,,,,,,
,,,,,,,,,,,,,FF,,,,,,,,2.25095,,,,,,,,,,,,,,,,,,,,,,61002f666835203714619c62,610378b7667d227694650990,2021-07-29_20h58.51.680,Simcolourproject_2stim_asymm_v5,2020.2.10,MacIntel,60,61025ae37ef11b136ea224fe,,,,,,,,,1145,59.8515625,-82.80078125,1,0,0,response3disk,,4,26.01171875,-4.171875,1,0,0,rectangle,26.01171875,-4.171875,1,0,0,26.01171875,-4.171875,1,0,0,0,22,22,139,1,,,,,,,,
,,,,,,,,,,,,,FF,,,,,,,,2.13576,,,,,,,,,,,,,,,,,,,,,,61002f666835203714619c62,610378b7667d227694650990,2021-07-29_20h58.51.680,Simcolourproject_2stim_asymm_v5,2020.2.10,MacIntel,60,61025ae37ef11b136ea224fe,,,,,,,,,1150,-74.32421875,-73.140625,1,0,0,response5disk,,2,-37.03125,-10.7734375,1,0,0,rectangle,-37.03125,-10.7734375,1,0,0,-37.03125,-10.7734375,1,0,0,0,23,23,154,1,,,,,,,,
,,,,,,,,,,,,,FF,,,,,,,,1.78477,,,,,,,,,,,,,,,,,,,,,,61002f666835203714619c62,610378b7667d227694650990,2021-07-29_20h58.51.680,Simcolourproject_2stim_asymm_v5,2020.2.10,MacIntel,60,61025ae37ef11b136ea224fe,,,,,,,,,3859,24.7578125,-72.03125,1,0,0,response3disk,,4,15.36328125,-11.80078125,1,0,0,rectangle,15.36328125,-11.80078125,1,0,0,15.36328125,-11.80078125,1,0,0,0,24,24,35,1,,,,,,,,
,,,,,,,,,,,,,FF,,,,,,,,0.79362,,,,,,,,,,,,,,,,,,,,,,61002f666835203714619c62,610378b7667d227694650990,2021-07-29_20h58.51.680,Simcolourproject_2stim_asymm_v5,2020.2.10,MacIntel,60,61025ae37ef11b136ea224fe,,,,,,,,,3906,-66.26953125,-30.70703125,1,0,0,response5disk,,2,-19.33984375,-10.03125,1,0,0,rectangle,-19.33984375,-10.03125,1,0,0,-19.33984375,-10.03125,1,0,0,0,25,25,22,1,,,,,,,,
,,,,,,,,,,,,,FF,,,,,,,,0.850165,,,,,,,,,,,,,,,,,,,,,,61002f666835203714619c62,610378b7667d227694650990,2021-07-29_20h58.51.680,Simcolourproject_2stim_asymm_v5,2020.2.10,MacIntel,60,61025ae37ef11b136ea224fe,,,,,,,,,3532,20.44140625,-63.38671875,1,0,0,response3disk,,4,4.5,-3.2109375,1,0,0,rectangle,4.5,-3.2109375,1,0,0,4.5,-3.2109375,1,0,0,0,26,26,145,1,,,,,,,,
,,,,,,,,,,,,,FF,,,,,,,,1.18562,,,,,,,,,,,,,,,,,,,,,,61002f666835203714619c62,610378b7667d227694650990,2021-07-29_20h58.51.680,Simcolourproject_2stim_asymm_v5,2020.2.10,MacIntel,60,61025ae37ef11b136ea224fe,,,,,,,,,3022,92.390625,22.328125,1,0,0,response1disk,,6,-10.71875,-17.4453125,1,0,0,rectangle,-10.71875,-17.4453125,1,0,0,-10.71875,-17.4453125,1,0,0,0,27,27,88,1,,,,,,,,
,,,,,,,,,,,,,FF,,,,,,,,1.65254,,,,,,,,,,,,,,,,,,,,,,61002f666835203714619c62,610378b7667d227694650990,2021-07-29_20h58.51.680,Simcolourproject_2stim_asymm_v5,2020.2.10,MacIntel,60,61025ae37ef11b136ea224fe,,,,,,,,,578,49.05859375,-69.68359375,1,0,0,response3disk,,4,-34.765625,-3.8984375,1,0,0,rectangle,-93.07421875,37.49609375,1,0,0,-4.51953125,-5.3125,1,0,0,0,28,28,20,1,,response7disk_3,TRUE,1,1,"[63,152,104,61,84,239,62,297,81,34,211,292,99,98,128,147,199,7,4,29]",1.200455,rectangle
,,,,,,,,,,,,,FF,,,,,,,,2.126805,,,,,,,,,,,,,,,,,,,,,,61002f666835203714619c62,610378b7667d227694650990,2021-07-29_20h58.51.680,Simcolourproject_2stim_asymm_v5,2020.2.10,MacIntel,60,61025ae37ef11b136ea224fe,,,,,,,,,4304,40.328125,74.78125,1,0,0,response1disk,,7,17.82421875,-8.234375,1,0,0,rectangle,17.82421875,-8.234375,1,0,0,17.82421875,-8.234375,1,0,0,0,29,29,42,1,,,,,,,,
,,,,,,,,,,,,,FF,,,,,,,,1.00185,,,,,,,,,,,,,,,,,,,,,,61002f666835203714619c62,610378b7667d227694650990,2021-07-29_20h58.51.680,Simcolourproject_2stim_asymm_v5,2020.2.10,MacIntel,60,61025ae37ef11b136ea224fe,,,,,,,,,3382,30.70703125,-65.78515625,1,0,0,response3disk,,4,19.86328125,-5.98046875,1,0,0,rectangle,19.86328125,-5.98046875,1,0,0,19.86328125,-5.98046875,1,0,0,0,30,30,24,1,,,,,,,,
,,,,,,,,,,,,,FF,,,,,,,,1.001075,,,,,,,,,,,,,,,,,,,,,,61002f666835203714619c62,610378b7667d227694650990,2021-07-29_20h58.51.680,Simcolourproject_2stim_asymm_v5,2020.2.10,MacIntel,60,61025ae37ef11b136ea224fe,,,,,,,,,1388,-26.4765625,-69.77734375,1,0,0,response5disk,,3,20.3359375,-13.78125,1,0,0,rectangle,20.3359375,-13.78125,1,0,0,20.3359375,-13.78125,1,0,0,0,31,31,6,1,,,,,,,,
,,,,,,,,,,,,,FF,,,,,,,,0.834355,,,,,,,,,,,,,,,,,,,,,,61002f666835203714619c62,610378b7667d227694650990,2021-07-29_20h58.51.680,Simcolourproject_2stim_asymm_v5,2020.2.10,MacIntel,60,61025ae37ef11b136ea224fe,,,,,,,,,2486,23.87109375,-36.0703125,1,0,0,response3disk,,4,23.25390625,14.7265625,1,0,0,rectangle,23.25390625,14.7265625,1,0,0,23.25390625,14.7265625,1,0,0,0,32,32,32,1,,,,,,,,
,,,,,,,,,,,,,FF,,,,,,,,1.341945,,,,,,,,,,,,,,,,,,,,,,61002f666835203714619c62,610378b7667d227694650990,2021-07-29_20h58.51.680,Simcolourproject_2stim_asymm_v5,2020.2.10,MacIntel,60,61025ae37ef11b136ea224fe,,,,,,,,,3279,56.59765625,66.09765625,1,0,0,response1disk,,7,40.79296875,-10.74609375,1,0,0,rectangle,-88.7421875,37.03125,1,0,0,-6.6015625,-2.1796875,1,0,0,0,33,33,102,1,,response7disk_3,TRUE,1,1,"[63,152,104,61,84,239,62,297,81,34,211,292,99,98,128,147,199,7,4,29]",1.317205,rectangle
,,,,,,,,,,,,,FF,,,,,,,,0.633135,,,,,,,,,,,,,,,,,,,,,,61002f666835203714619c62,610378b7667d227694650990,2021-07-29_20h58.51.680,Simcolourproject_2stim_asymm_v5,2020.2.10,MacIntel,60,61025ae37ef11b136ea224fe,,,,,,,,,3983,-29.3984375,-46.80859375,1,0,0,response5disk,,3,-1.6953125,-5.9609375,1,0,0,rectangle,-1.6953125,-5.9609375,1,0,0,-1.6953125,-5.9609375,1,0,0,0,34,34,136,1,,,,,,,,
,,,,,,,,,,,,,FF,,,,,,,,0.46751,,,,,,,,,,,,,,,,,,,,,,61002f666835203714619c62,610378b7667d227694650990,2021-07-29_20h58.51.680,Simcolourproject_2stim_asymm_v5,2020.2.10,MacIntel,60,61025ae37ef11b136ea224fe,,,,,,,,,2077,68.28515625,-55.7109375,1,0,0,response3disk,,5,3.3203125,10.65234375,1,0,0,rectangle,3.3203125,10.65234375,1,0,0,3.3203125,10.65234375,1,0,0,0,35,35,2,1,,,,,,,,
,,,,,,,,,,,,,FF,,,,,,,,0.39831,,,,,,,,,,,,,,,,,,,,,,61002f666835203714619c62,610378b7667d227694650990,2021-07-29_20h58.51.680,Simcolourproject_2stim_asymm_v5,2020.2.10,MacIntel,60,61025ae37ef11b136ea224fe,,,,,,,,,1274,-50.30859375,-50.33984375,1,0,0,response5disk,,3,-0.50390625,-1.15625,1,0,0,rectangle,-0.50390625,-1.15625,1,0,0,-0.50390625,-1.15625,1,0,0,0,36,36,113,1,,,,,,,,
,,,,,,,,,,,,,FF,,,,,,,,0.816615,,,,,,,,,,,,,,,,,,,,,,61002f666835203714619c62,610378b7667d227694650990,2021-07-29_20h58.51.680,Simcolourproject_2stim_asymm_v5,2020.2.10,MacIntel,60,61025ae37ef11b136ea224fe,,,,,,,,,2398,66.02734375,34.62109375,1,0,0,response1disk,,6,-3.515625,-7.13671875,1,0,0,rectangle,-3.515625,-7.13671875,1,0,0,-3.515625,-7.13671875,1,0,0,0,37,37,112,1,,,,,,,,
,,,,,,,,,,,,,FF,,,,,,,,0.817645,,,,,,,,,,,,,,,,,,,,,,61002f666835203714619c62,610378b7667d227694650990,2021-07-29_20h58.51.680,Simcolourproject_2stim_asymm_v5,2020.2.10,MacIntel,60,61025ae37ef11b136ea224fe,,,,,,,,,4229,-54.8359375,-52.421875,1,0,0,response5disk,,2,8.33203125,7.89453125,1,0,0,rectangle,8.33203125,7.89453125,1,0,0,8.33203125,7.89453125,1,0,0,0,38,38,100,1,,,,,,,,
,,,,,,,,,,,,,FF,,,,,,,,0.884075,,,,,,,,,,,,,,,,,,,,,,61002f666835203714619c62,610378b7667d227694650990,2021-07-29_20h58.51.680,Simcolourproject_2stim_asymm_v5,2020.2.10,MacIntel,60,61025ae37ef11b136ea224fe,,,,,,,,,4210,75.5390625,40.03125,1,0,0,response1disk,,6,17.58984375,8.2421875,1,0,0,rectangle,17.58984375,8.2421875,1,0,0,17.58984375,8.2421875,1,0,0,0,39,39,96,1,,,,,,,,
,,,,,,,,,,,,,FF,,,,,,,,0.86685,,,,,,,,,,,,,,,,,,,,,,61002f666835203714619c62,610378b7667d227694650990,2021-07-29_20h58.51.680,Simcolourproject_2stim_asymm_v5,2020.2.10,MacIntel,60,61025ae37ef11b136ea224fe,,,,,,,,,2263,41.62890625,-55.0546875,1,0,0,response3disk,,4,1.54296875,-10.6015625,1,0,0,rectangle,1.54296875,-10.6015625,1,0,0,1.54296875,-10.6015625,1,0,0,0,40,40,34,1,,,,,,,,
,,,,,,,,,,,,,FF,,,,,,,,0.91754,,,,,,,,,,,,,,,,,,,,,,61002f666835203714619c62,610378b7667d227694650990,2021-07-29_20h58.51.680,Simcolourproject_2stim_asymm_v5,2020.2.10,MacIntel,60,61025ae37ef11b136ea224fe,,,,,,,,,3602,48.296875,-57.671875,1,0,0,response3disk,,4,22.20703125,-7.40625,1,0,0,rectangle,22.20703125,-7.40625,1,0,0,22.20703125,-7.40625,1,0,0,0,41,41,9,1,,,,,,,,
,,,,,,,,,,,,,FF,,,,,,,,0.94999,,,,,,,,,,,,,,,,,,,,,,61002f666835203714619c62,610378b7667d227694650990,2021-07-29_20h58.51.680,Simcolourproject_2stim_asymm_v5,2020.2.10,MacIntel,60,61025ae37ef11b136ea224fe,,,,,,,,,2783,-86.921875,-35.19140625,1,0,0,response5disk,,2,-31.4765625,3.8359375,1,0,0,rectangle,-31.4765625,3.8359375,1,0,0,-31.4765625,3.8359375,1,0,0,0,42,42,106,1,,,,,,,,
,,,,,,,,,,,,,FF,,,,,,,,0.909295,,,,,,,,,,,,,,,,,,,,,,61002f666835203714619c62,610378b7667d227694650990,2021-07-29_20h58.51.680,Simcolourproject_2stim_asymm_v5,2020.2.10,MacIntel,60,61025ae37ef11b136ea224fe,,,,,,,,,1446,-88.45703125,-37.16796875,1,0,0,response5disk,,2,6.8125,0.6171875,1,0,0,rectangle,6.8125,0.6171875,1,0,0,6.8125,0.6171875,1,0,0,0,43,43,142,1,,,,,,,,
,,,,,,,,,,,,,FF,,,,,,,,0.86677,,,,,,,,,,,,,,,,,,,,,,61002f666835203714619c62,610378b7667d227694650990,2021-07-29_20h58.51.680,Simcolourproject_2stim_asymm_v5,2020.2.10,MacIntel,60,61025ae37ef11b136ea224fe,,,,,,,,,725,-42.1328125,-49.97265625,1,0,0,response5disk,,3,-8.91015625,-5.765625,1,0,0,rectangle,-8.91015625,-5.765625,1,0,0,-8.91015625,-5.765625,1,0,0,0,44,44,33,1,,,,,,,,
,,,,,,,,,,,,,FF,,,,,,,,0.7001,,,,,,,,,,,,,,,,,,,,,,61002f666835203714619c62,610378b7667d227694650990,2021-07-29_20h58.51.680,Simcolourproject_2stim_asymm_v5,2020.2.10,MacIntel,60,61025ae37ef11b136ea224fe,,,,,,,,,396,-48.8359375,-52.92578125,1,0,0,response5disk,,3,-8.6328125,-6.03515625,1,0,0,rectangle,-8.6328125,-6.03515625,1,0,0,-8.6328125,-6.03515625,1,0,0,0,45,45,53,1,,,,,,,,
,,,,,,,,,,,,,FF,,,,,,,,1.35112,,,,,,,,,,,,,,,,,,,,,,61002f666835203714619c62,610378b7667d227694650990,2021-07-29_20h58.51.680,Simcolourproject_2stim_asymm_v5,2020.2.10,MacIntel,60,61025ae37ef11b136ea224fe,,,,,,,,,2439,91.5703125,-38.6875,1,0,0,response3disk,,5,17.22265625,-0.171875,1,0,0,rectangle,17.22265625,-0.171875,1,0,0,17.22265625,-0.171875,1,0,0,0,46,46,19,1,,,,,,,,
,,,,,,,,,,,,,FF,,,,,,,,2.18496,,,,,,,,,,,,,,,,,,,,,,61002f666835203714619c62,610378b7667d227694650990,2021-07-29_20h58.51.680,Simcolourproject_2stim_asymm_v5,2020.2.10,MacIntel,60,61025ae37ef11b136ea224fe,,,,,,,,,1103,88.19921875,29.6171875,1,0,0,response1disk,,6,-6.9453125,-11.3515625,1,0,0,rectangle,-6.9453125,-11.3515625,1,0,0,-6.9453125,-11.3515625,1,0,0,0,47,47,64,1,,,,,,,,
,,,,,,,,,,,,,FF,,,,,,,,0.765995,,,,,,,,,,,,,,,,,,,,,,61002f666835203714619c62,610378b7667d227694650990,2021-07-29_20h58.51.680,Simcolourproject_2stim_asymm_v5,2020.2.10,MacIntel,60,61025ae37ef11b136ea224fe,,,,,,,,,2160,-89.56640625,25.31640625,1,0,0,response7disk,,1,0.08984375,5.6171875,1,0,0,rectangle,0.08984375,5.6171875,1,0,0,0.08984375,5.6171875,1,0,0,0,48,48,122,1,,,,,,,,
,,,,,,,,,,,,,FF,,,,,,,,1.650035,,,,,,,,,,,,,,,,,,,,,,61002f666835203714619c62,610378b7667d227694650990,2021-07-29_20h58.51.680,Simcolourproject_2stim_asymm_v5,2020.2.10,MacIntel,60,61025ae37ef11b136ea224fe,,,,,,,,,884,102.4179688,30.4140625,1,0,0,response1disk,,6,16.08203125,0.80859375,1,0,0,rectangle,16.08203125,0.80859375,1,0,0,16.08203125,0.80859375,1,0,0,0,49,49,104,1,,,,,,,,
,,,,,,,,,,,,,FF,,,,,,,,0.901625,,,,,,,,,,,,,,,,,,,,,,61002f666835203714619c62,610378b7667d227694650990,2021-07-29_20h58.51.680,Simcolourproject_2stim_asymm_v5,2020.2.10,MacIntel,60,61025ae37ef11b136ea224fe,,,,,,,,,1782,23.73046875,-55.55859375,1,0,0,response3disk,,4,-32.46875,6.3046875,1,0,0,rectangle,-32.46875,6.3046875,1,0,0,-32.46875,6.3046875,1,0,0,0,50,50,12,1,,,,,,,,
,,,,,,,,,,,,,FF,,,,,,,,0.916145,,,,,,,,,,,,,,,,,,,,,,61002f666835203714619c62,610378b7667d227694650990,2021-07-29_20h58.51.680,Simcolourproject_2stim_asymm_v5,2020.2.10,MacIntel,60,61025ae37ef11b136ea224fe,,,,,,,,,279,-21.83203125,-46.55859375,1,0,0,response5disk,,3,7.55078125,-3.07421875,1,0,0,rectangle,7.55078125,-3.07421875,1,0,0,7.55078125,-3.07421875,1,0,0,0,51,51,125,1,,,,,,,,
,,,,,,,,,,,,,FF,,,,,,,,0.867675,,,,,,,,,,,,,,,,,,,,,,61002f666835203714619c62,610378b7667d227694650990,2021-07-29_20h58.51.680,Simcolourproject_2stim_asymm_v5,2020.2.10,MacIntel,60,61025ae37ef11b136ea224fe,,,,,,,,,3514,-48.4765625,-18.62890625,1,0,0,response5disk,,2,-16.3203125,8.37109375,1,0,0,rectangle,-16.3203125,8.37109375,1,0,0,-16.3203125,8.37109375,1,0,0,0,52,52,126,1,,,,,,,,
,,,,,,,,,,,,,FF,,,,,,,,1.217265,,,,,,,,,,,,,,,,,,,,,,61002f666835203714619c62,610378b7667d227694650990,2021-07-29_20h58.51.680,Simcolourproject_2stim_asymm_v5,2020.2.10,MacIntel,60,61025ae37ef11b136ea224fe,,,,,,,,,2019,41.38671875,-61.15234375,1,0,0,response3disk,,4,24.125,-14.25,1,0,0,rectangle,24.125,-14.25,1,0,0,24.125,-14.25,1,0,0,0,53,53,131,1,,,,,,,,
,,,,,,,,,,,,,FF,,,,,,,,1.217175,,,,,,,,,,,,,,,,,,,,,,61002f666835203714619c62,610378b7667d227694650990,2021-07-29_20h58.51.680,Simcolourproject_2stim_asymm_v5,2020.2.10,MacIntel,60,61025ae37ef11b136ea224fe,,,,,,,,,1055,58.10546875,-30.8984375,1,0,0,response3disk,,5,11.10546875,-16.59375,1,0,0,rectangle,11.10546875,-16.59375,1,0,0,11.10546875,-16.59375,1,0,0,0,54,54,84,1,,,,,,,,
,,,,,,,,,,,,,FF,,,,,,,,1.151865,,,,,,,,,,,,,,,,,,,,,,61002f666835203714619c62,610378b7667d227694650990,2021-07-29_20h58.51.680,Simcolourproject_2stim_asymm_v5,2020.2.10,MacIntel,60,61025ae37ef11b136ea224fe,,,,,,,,,2940,-75.5,27.82421875,1,0,0,response7disk,,1,-18.89453125,-2.20703125,1,0,0,rectangle,-18.89453125,-2.20703125,1,0,0,-18.89453125,-2.20703125,1,0,0,0,55,55,83,1,,,,,,,,
,,,,,,,,,,,,,FF,,,,,,,,0.95053,,,,,,,,,,,,,,,,,,,,,,61002f666835203714619c62,610378b7667d227694650990,2021-07-29_20h58.51.680,Simcolourproject_2stim_asymm_v5,2020.2.10,MacIntel,60,61025ae37ef11b136ea224fe,,,,,,,,,4026,-55.14453125,-59.921875,1,0,0,response5disk,,3,-8.6640625,4.8515625,1,0,0,rectangle,-8.6640625,4.8515625,1,0,0,-8.6640625,4.8515625,1,0,0,0,56,56,108,1,,,,,,,,
,,,,,,,,,,,,,FF,,,,,,,,1.05068,,,,,,,,,,,,,,,,,,,,,,61002f666835203714619c62,610378b7667d227694650990,2021-07-29_20h58.51.680,Simcolourproject_2stim_asymm_v5,2020.2.10,MacIntel,60,61025ae37ef11b136ea224fe,,,,,,,,,904,105.5234375,33.73046875,1,0,0,response1disk,,6,44.8359375,-18.39453125,1,0,0,rectangle,44.8359375,-18.39453125,1,0,0,44.8359375,-18.39453125,1,0,0,0,57,57,59,1,,,,,,,,
,,,,,,,,,,,,,FF,,,,,,,,1.00039,,,,,,,,,,,,,,,,,,,,,,61002f666835203714619c62,610378b7667d227694650990,2021-07-29_20h58.51.680,Simcolourproject_2stim_asymm_v5,2020.2.10,MacIntel,60,61025ae37ef11b136ea224fe,,,,,,,,,1637,73.5078125,23.0390625,1,0,0,response1disk,,6,19.76953125,-6.9765625,1,0,0,rectangle,19.76953125,-6.9765625,1,0,0,19.76953125,-6.9765625,1,0,0,0,58,58,159,1,,,,,,,,
,,,,,,,,,,,,,FF,,,,,,,,0.93519,,,,,,,,,,,,,,,,,,,,,,61002f666835203714619c62,610378b7667d227694650990,2021-07-29_20h58.51.680,Simcolourproject_2stim_asymm_v5,2020.2.10,MacIntel,60,61025ae37ef11b136ea224fe,,,,,,,,,1456,32.3515625,-51.96484375,1,0,0,response3disk,,4,-0.5703125,-15.14453125,1,0,0,rectangle,-0.5703125,-15.14453125,1,0,0,-0.5703125,-15.14453125,1,0,0,0,59,59,63,1,,,,,,,,
,,,,,,,,,,,,,FF,,,,,,,,0.750955,,,,,,,,,,,,,,,,,,,,,,61002f666835203714619c62,610378b7667d227694650990,2021-07-29_20h58.51.680,Simcolourproject_2stim_asymm_v5,2020.2.10,MacIntel,60,61025ae37ef11b136ea224fe,,,,,,,,,169,-75.77734375,-28.9140625,1,0,0,response5disk,,2,-38.90625,9.09765625,1,0,0,rectangle,99.21484375,59.00390625,1,0,0,15.1796875,16.9765625,1,0,0,0,60,60,47,1,,response1disk_3,TRUE,6,6,"[63,152,104,61,84,239,62,297,81,34,211,292,99,98,128,147,199,7,4,29]",1.2685,rectangle
,,,,,,,,,,,,,FF,,,,,,,,0.850345,,,,,,,,,,,,,,,,,,,,,,61002f666835203714619c62,610378b7667d227694650990,2021-07-29_20h58.51.680,Simcolourproject_2stim_asymm_v5,2020.2.10,MacIntel,60,61025ae37ef11b136ea224fe,,,,,,,,,765,28.3984375,-71.11328125,1,0,0,response3disk,,4,16.3984375,-6.98046875,1,0,0,rectangle,-99.203125,-46.7890625,1,0,0,3.77734375,1.70703125,1,0,0,0,61,61,68,1,,response5disk_3,TRUE,2,2,"[63,152,104,61,84,239,62,297,81,34,211,292,99,98,128,147,199,7,4,29]",1.54244,rectangle
,,,,,,,,,,,,,FF,,,,,,,,1.133835,,,,,,,,,,,,,,,,,,,,,,61002f666835203714619c62,610378b7667d227694650990,2021-07-29_20h58.51.680,Simcolourproject_2stim_asymm_v5,2020.2.10,MacIntel,60,61025ae37ef11b136ea224fe,,,,,,,,,499,110.6523438,41.8984375,1,0,0,response1disk,,6,22.04296875,-8.5,1,0,0,rectangle,-38.0703125,59.234375,1,0,0,-32.046875,5.36328125,1,0,0,0,62,62,149,1,,response7disk_3,TRUE,0,0,"[63,152,104,61,84,239,62,297,81,34,211,292,99,98,128,147,199,7,4,29]",1.26709,rectangle
,,,,,,,,,,,,,FF,,,,,,,,0.733655,,,,,,,,,,,,,,,,,,,,,,61002f666835203714619c62,610378b7667d227694650990,2021-07-29_20h58.51.680,Simcolourproject_2stim_asymm_v5,2020.2.10,MacIntel,60,61025ae37ef11b136ea224fe,,,,,,,,,2353,-23.7890625,-64.0234375,1,0,0,response5disk,,3,10.62890625,-12.19140625,1,0,0,rectangle,10.62890625,-12.19140625,1,0,0,10.62890625,-12.19140625,1,0,0,0,63,63,39,1,,,,,,,,
,,,,,,,,,,,,,FF,,,,,,,,0.76621,,,,,,,,,,,,,,,,,,,,,,61002f666835203714619c62,610378b7667d227694650990,2021-07-29_20h58.51.680,Simcolourproject_2stim_asymm_v5,2020.2.10,MacIntel,60,61025ae37ef11b136ea224fe,,,,,,,,,551,66.55859375,27.8046875,1,0,0,response1disk,,6,29.45703125,-7.234375,1,0,0,rectangle,29.45703125,-7.234375,1,0,0,29.45703125,-7.234375,1,0,0,0,64,64,15,1,,,,,,,,
,,,,,,,,,,,,,FF,,,,,,,,0.47231,,,,,,,,,,,,,,,,,,,,,,61002f666835203714619c62,610378b7667d227694650990,2021-07-29_20h58.51.680,Simcolourproject_2stim_asymm_v5,2020.2.10,MacIntel,60,61025ae37ef11b136ea224fe,,,,,,,,,241,-48.96484375,-55.1796875,1,0,0,response5disk,,3,-25.75,-17.1640625,1,0,0,rectangle,-25.75,-17.1640625,1,0,0,-25.75,-17.1640625,1,0,0,0,65,65,157,1,,,,,,,,
,,,,,,,,,,,,,FF,,,,,,,,0.983765,,,,,,,,,,,,,,,,,,,,,,61002f666835203714619c62,610378b7667d227694650990,2021-07-29_20h58.51.680,Simcolourproject_2stim_asymm_v5,2020.2.10,MacIntel,60,61025ae37ef11b136ea224fe,,,,,,,,,958,-74.0390625,37.9921875,1,0,0,response7disk,,1,3.98828125,-5.828125,1,0,0,rectangle,3.98828125,-5.828125,1,0,0,3.98828125,-5.828125,1,0,0,0,66,66,62,1,,,,,,,,
,,,,,,,,,,,,,FF,,,,,,,,1.68536,,,,,,,,,,,,,,,,,,,,,,61002f666835203714619c62,610378b7667d227694650990,2021-07-29_20h58.51.680,Simcolourproject_2stim_asymm_v5,2020.2.10,MacIntel,60,61025ae37ef11b136ea224fe,,,,,,,,,1024,59.6875,-52.21875,1,0,0,response3disk,,5,12.24609375,3.1875,1,0,0,rectangle,12.24609375,3.1875,1,0,0,12.24609375,3.1875,1,0,0,0,67,67,129,1,,,,,,,,
,,,,,,,,,,,,,FF,,,,,,,,0.96848,,,,,,,,,,,,,,,,,,,,,,61002f666835203714619c62,610378b7667d227694650990,2021-07-29_20h58.51.680,Simcolourproject_2stim_asymm_v5,2020.2.10,MacIntel,60,61025ae37ef11b136ea224fe,,,,,,,,,3339,-32.0390625,-53.2578125,1,0,0,response5disk,,3,-11.8203125,-15.23046875,1,0,0,rectangle,-11.8203125,-15.23046875,1,0,0,-11.8203125,-15.23046875,1,0,0,0,68,68,78,1,,,,,,,,
,,,,,,,,,,,,,FF,,,,,,,,1.217425,,,,,,,,,,,,,,,,,,,,,,61002f666835203714619c62,610378b7667d227694650990,2021-07-29_20h58.51.680,Simcolourproject_2stim_asymm_v5,2020.2.10,MacIntel,60,61025ae37ef11b136ea224fe,,,,,,,,,3160,38.11328125,-48.140625,1,0,0,response3disk,,4,0.98046875,-4.49609375,1,0,0,rectangle,0.98046875,-4.49609375,1,0,0,0.98046875,-4.49609375,1,0,0,0,69,69,89,1,,,,,,,,
,,,,,,,,,,,,,FF,,,,,,,,1.40817,,,,,,,,,,,,,,,,,,,,,,61002f666835203714619c62,610378b7667d227694650990,2021-07-29_20h58.51.680,Simcolourproject_2stim_asymm_v5,2020.2.10,MacIntel,60,61025ae37ef11b136ea224fe,,,,,,,,,2837,-100.7109375,-38.90234375,1,0,0,response5disk,,2,-21.7734375,-4.484375,1,0,0,rectangle,-21.7734375,-4.484375,1,0,0,-21.7734375,-4.484375,1,0,0,0,70,70,56,1,,,,,,,,
,,,,,,,,,,,,,FF,,,,,,,,0.78299,,,,,,,,,,,,,,,,,,,,,,61002f666835203714619c62,610378b7667d227694650990,2021-07-29_20h58.51.680,Simcolourproject_2stim_asymm_v5,2020.2.10,MacIntel,60,61025ae37ef11b136ea224fe,,,,,,,,,1993,73.5390625,-48.00390625,1,0,0,response3disk,,5,14.578125,3.55859375,1,0,0,rectangle,14.578125,3.55859375,1,0,0,14.578125,3.55859375,1,0,0,0,71,71,97,1,,,,,,,,
,,,,,,,,,,,,,FF,,,,,,,,0.934565,,,,,,,,,,,,,,,,,,,,,,61002f666835203714619c62,610378b7667d227694650990,2021-07-29_20h58.51.680,Simcolourproject_2stim_asymm_v5,2020.2.10,MacIntel,60,61025ae37ef11b136ea224fe,,,,,,,,,685,86.41015625,45.73828125,1,0,0,response1disk,,6,33.42578125,-6.6484375,1,0,0,rectangle,33.42578125,-6.6484375,1,0,0,33.42578125,-6.6484375,1,0,0,0,72,72,92,1,,,,,,,,
,,,,,,,,,,,,,FF,,,,,,,,0.73429,,,,,,,,,,,,,,,,,,,,,,61002f666835203714619c62,610378b7667d227694650990,2021-07-29_20h58.51.680,Simcolourproject_2stim_asymm_v5,2020.2.10,MacIntel,60,61025ae37ef11b136ea224fe,,,,,,,,,336,-23.9921875,-59.046875,1,0,0,response5disk,,3,9.7578125,-1.375,1,0,0,rectangle,9.7578125,-1.375,1,0,0,9.7578125,-1.375,1,0,0,0,73,73,43,1,,,,,,,,
,,,,,,,,,,,,,FF,,,,,,,,0.96777,,,,,,,,,,,,,,,,,,,,,,61002f666835203714619c62,610378b7667d227694650990,2021-07-29_20h58.51.680,Simcolourproject_2stim_asymm_v5,2020.2.10,MacIntel,60,61025ae37ef11b136ea224fe,,,,,,,,,1179,54.1953125,90.109375,1,0,0,response1disk,,7,-3.9609375,9.62109375,1,0,0,rectangle,-3.9609375,9.62109375,1,0,0,-3.9609375,9.62109375,1,0,0,0,74,74,17,1,,,,,,,,
,,,,,,,,,,,,,FF,,,,,,,,0.958085,,,,,,,,,,,,,,,,,,,,,,61002f666835203714619c62,610378b7667d227694650990,2021-07-29_20h58.51.680,Simcolourproject_2stim_asymm_v5,2020.2.10,MacIntel,60,61025ae37ef11b136ea224fe,,,,,,,,,639,-25.06640625,-61.0625,1,0,0,response5disk,,3,24.12109375,-20.33984375,1,0,0,rectangle,24.12109375,-20.33984375,1,0,0,24.12109375,-20.33984375,1,0,0,0,75,75,80,1,,,,,,,,
,,,,,,,,,,,,,FF,,,,,,,,0.816775,,,,,,,,,,,,,,,,,,,,,,61002f666835203714619c62,610378b7667d227694650990,2021-07-29_20h58.51.680,Simcolourproject_2stim_asymm_v5,2020.2.10,MacIntel,60,61025ae37ef11b136ea224fe,,,,,,,,,2038,-63.04296875,-40.7421875,1,0,0,response5disk,,2,-24.125,-10.890625,1,0,0,rectangle,-24.125,-10.890625,1,0,0,-24.125,-10.890625,1,0,0,0,76,76,48,1,,,,,,,,
,,,,,,,,,,,,,FF,,,,,,,,0.81849,,,,,,,,,,,,,,,,,,,,,,61002f666835203714619c62,610378b7667d227694650990,2021-07-29_20h58.51.680,Simcolourproject_2stim_asymm_v5,2020.2.10,MacIntel,60,61025ae37ef11b136ea224fe,,,,,,,,,1796,124.2851563,-28.26953125,1,0,0,response3disk,,5,-7.890625,4.34375,1,0,0,rectangle,-7.890625,4.34375,1,0,0,-7.890625,4.34375,1,0,0,0,77,77,91,1,,,,,,,,
,,,,,,,,,,,,,FF,,,,,,,,0.81865,,,,,,,,,,,,,,,,,,,,,,61002f666835203714619c62,610378b7667d227694650990,2021-07-29_20h58.51.680,Simcolourproject_2stim_asymm_v5,2020.2.10,MacIntel,60,61025ae37ef11b136ea224fe,,,,,,,,,3056,-70.7890625,-40.7734375,1,0,0,response5disk,,2,-7.5859375,-5.6015625,1,0,0,rectangle,-7.5859375,-5.6015625,1,0,0,-7.5859375,-5.6015625,1,0,0,0,78,78,128,1,,,,,,,,
,,,,,,,,,,,,,FF,,,,,,,,1.09992,,,,,,,,,,,,,,,,,,,,,,61002f666835203714619c62,610378b7667d227694650990,2021-07-29_20h58.51.680,Simcolourproject_2stim_asymm_v5,2020.2.10,MacIntel,60,61025ae37ef11b136ea224fe,,,,,,,,,1027,-33.78125,-57.66796875,1,0,0,response5disk,,3,14.2890625,-2.87109375,1,0,0,rectangle,14.2890625,-2.87109375,1,0,0,14.2890625,-2.87109375,1,0,0,0,79,79,77,1,,,,,,,,
,,,,,,,,,,,,,FF,,,,,,,,0.776835,,,,,,,,,,,,,,,,,,,,,,61002f666835203714619c62,610378b7667d227694650990,2021-07-29_20h58.51.680,Simcolourproject_2stim_asymm_v5,2020.2.10,MacIntel,60,61025ae37ef11b136ea224fe,,,,,,,,,4301,92.203125,23.1328125,1,0,0,response1disk,,6,9.6171875,-2.96484375,1,0,0,rectangle,-70.5546875,-36.64453125,1,0,0,27.265625,15.25,1,0,0,0,80,80,87,1,,response5disk_3,TRUE,2,2,"[63,152,104,61,84,239,62,297,81,34,211,292,99,98,128,147,199,7,4,29]",1.533315,rectangle
,,,,,,,,,,,,,FF,,,,,,,,1.268365,,,,,,,,,,,,,,,,,,,,,,61002f666835203714619c62,610378b7667d227694650990,2021-07-29_20h58.51.680,Simcolourproject_2stim_asymm_v5,2020.2.10,MacIntel,60,61025ae37ef11b136ea224fe,,,,,,,,,1123,-42.71875,-29,1,0,0,response5disk,,2,30.45703125,3.6953125,1,0,0,rectangle,30.45703125,3.6953125,1,0,0,30.45703125,3.6953125,1,0,0,0,81,81,150,1,,,,,,,,
,,,,,,,,,,,,,FF,,,,,,,,0.951265,,,,,,,,,,,,,,,,,,,,,,61002f666835203714619c62,610378b7667d227694650990,2021-07-29_20h58.51.680,Simcolourproject_2stim_asymm_v5,2020.2.10,MacIntel,60,61025ae37ef11b136ea224fe,,,,,,,,,842,107.71875,21.765625,1,0,0,response1disk,,6,24.1875,-2.73828125,1,0,0,rectangle,24.1875,-2.73828125,1,0,0,24.1875,-2.73828125,1,0,0,0,82,82,52,1,,,,,,,,
,,,,,,,,,,,,,FF,,,,,,,,1.86839,,,,,,,,,,,,,,,,,,,,,,61002f666835203714619c62,610378b7667d227694650990,2021-07-29_20h58.51.680,Simcolourproject_2stim_asymm_v5,2020.2.10,MacIntel,60,61025ae37ef11b136ea224fe,,,,,,,,,2488,-53.75390625,-64.390625,1,0,0,response5disk,,3,-15.02734375,-1.33984375,1,0,0,rectangle,95.28125,51.59375,1,0,0,10.55078125,1.9375,1,0,0,0,83,83,55,1,,response1disk_3,TRUE,6,6,"[63,152,104,61,84,239,62,297,81,34,211,292,99,98,128,147,199,7,4,29]",1.4021,rectangle
,,,,,,,,,,,,,FF,,,,,,,,0.816715,,,,,,,,,,,,,,,,,,,,,,61002f666835203714619c62,610378b7667d227694650990,2021-07-29_20h58.51.680,Simcolourproject_2stim_asymm_v5,2020.2.10,MacIntel,60,61025ae37ef11b136ea224fe,,,,,,,,,150,-41.06640625,-59.5,1,0,0,response5disk,,3,-9.90234375,-9.83984375,1,0,0,rectangle,-9.90234375,-9.83984375,1,0,0,-9.90234375,-9.83984375,1,0,0,0,84,84,111,1,,,,,,,,
,,,,,,,,,,,,,FF,,,,,,,,0.73439,,,,,,,,,,,,,,,,,,,,,,61002f666835203714619c62,610378b7667d227694650990,2021-07-29_20h58.51.680,Simcolourproject_2stim_asymm_v5,2020.2.10,MacIntel,60,61025ae37ef11b136ea224fe,,,,,,,,,3311,22.9609375,-54.45703125,1,0,0,response3disk,,4,21.1484375,1.875,1,0,0,rectangle,21.1484375,1.875,1,0,0,21.1484375,1.875,1,0,0,0,85,85,110,1,,,,,,,,
,,,,,,,,,,,,,FF,,,,,,,,1.235525,,,,,,,,,,,,,,,,,,,,,,61002f666835203714619c62,610378b7667d227694650990,2021-07-29_20h58.51.680,Simcolourproject_2stim_asymm_v5,2020.2.10,MacIntel,60,61025ae37ef11b136ea224fe,,,,,,,,,3901,86.9609375,-67.15234375,1,0,0,response3disk,,5,-45.0546875,-4.53515625,1,0,0,rectangle,-45.0546875,-4.53515625,1,0,0,-45.0546875,-4.53515625,1,0,0,0,86,86,14,1,,,,,,,,
,,,,,,,,,,,,,FF,,,,,,,,0.65199,,,,,,,,,,,,,,,,,,,,,,61002f666835203714619c62,610378b7667d227694650990,2021-07-29_20h58.51.680,Simcolourproject_2stim_asymm_v5,2020.2.10,MacIntel,60,61025ae37ef11b136ea224fe,,,,,,,,,2772,-44.82421875,-57.0234375,1,0,0,response5disk,,3,0.48828125,1.41015625,1,0,0,rectangle,0.48828125,1.41015625,1,0,0,0.48828125,1.41015625,1,0,0,0,87,87,1,1,,,,,,,,
,,,,,,,,,,,,,FF,,,,,,,,1.207665,,,,,,,,,,,,,,,,,,,,,,61002f666835203714619c62,610378b7667d227694650990,2021-07-29_20h58.51.680,Simcolourproject_2stim_asymm_v5,2020.2.10,MacIntel,60,61025ae37ef11b136ea224fe,,,,,,,,,2453,63.859375,75.15625,1,0,0,response1disk,,7,24.39453125,4.07421875,1,0,0,rectangle,24.39453125,4.07421875,1,0,0,24.39453125,4.07421875,1,0,0,0,88,88,74,1,,,,,,,,
,,,,,,,,,,,,,FF,,,,,,,,0.750585,,,,,,,,,,,,,,,,,,,,,,61002f666835203714619c62,610378b7667d227694650990,2021-07-29_20h58.51.680,Simcolourproject_2stim_asymm_v5,2020.2.10,MacIntel,60,61025ae37ef11b136ea224fe,,,,,,,,,1712,-19.62109375,-60.5546875,1,0,0,response5disk,,3,19.36328125,-5.01171875,1,0,0,rectangle,19.36328125,-5.01171875,1,0,0,19.36328125,-5.01171875,1,0,0,0,89,89,13,1,,,,,,,,
,,,,,,,,,,,,,FF,,,,,,,,2.06949,,,,,,,,,,,,,,,,,,,,,,61002f666835203714619c62,610378b7667d227694650990,2021-07-29_20h58.51.680,Simcolourproject_2stim_asymm_v5,2020.2.10,MacIntel,60,61025ae37ef11b136ea224fe,,,,,,,,,559,89.42578125,-70.04296875,1,0,0,response3disk,,5,-5.41015625,-13.1328125,1,0,0,rectangle,-5.41015625,-13.1328125,1,0,0,-5.41015625,-13.1328125,1,0,0,0,90,90,155,1,,,,,,,,
,,,,,,,,,,,,,FF,,,,,,,,1.71879,,,,,,,,,,,,,,,,,,,,,,61002f666835203714619c62,610378b7667d227694650990,2021-07-29_20h58.51.680,Simcolourproject_2stim_asymm_v5,2020.2.10,MacIntel,60,61025ae37ef11b136ea224fe,,,,,,,,,2415,37.98046875,-63.3515625,1,0,0,response3disk,,4,27.58984375,-11.0625,1,0,0,rectangle,27.58984375,-11.0625,1,0,0,27.58984375,-11.0625,1,0,0,0,91,91,99,1,,,,,,,,
,,,,,,,,,,,,,FF,,,,,,,,1.425515,,,,,,,,,,,,,,,,,,,,,,61002f666835203714619c62,610378b7667d227694650990,2021-07-29_20h58.51.680,Simcolourproject_2stim_asymm_v5,2020.2.10,MacIntel,60,61025ae37ef11b136ea224fe,,,,,,,,,2017,-64.6171875,-35.8515625,1,0,0,response5disk,,2,-8.8125,-8.7734375,1,0,0,rectangle,-8.8125,-8.7734375,1,0,0,-8.8125,-8.7734375,1,0,0,0,92,92,109,1,,,,,,,,
,,,,,,,,,,,,,FF,,,,,,,,0.667405,,,,,,,,,,,,,,,,,,,,,,61002f666835203714619c62,610378b7667d227694650990,2021-07-29_20h58.51.680,Simcolourproject_2stim_asymm_v5,2020.2.10,MacIntel,60,61025ae37ef11b136ea224fe,,,,,,,,,2110,32.23828125,-74.51171875,1,0,0,response3disk,,4,13.03125,5.90234375,1,0,0,rectangle,13.03125,5.90234375,1,0,0,13.03125,5.90234375,1,0,0,0,93,93,158,1,,,,,,,,
,,,,,,,,,,,,,FF,,,,,,,,0.366475,,,,,,,,,,,,,,,,,,,,,,61002f666835203714619c62,610378b7667d227694650990,2021-07-29_20h58.51.680,Simcolourproject_2stim_asymm_v5,2020.2.10,MacIntel,60,61025ae37ef11b136ea224fe,,,,,,,,,3503,-34.46875,-66.8515625,1,0,0,response5disk,,3,3.28515625,-2.2578125,1,0,0,rectangle,3.28515625,-2.2578125,1,0,0,3.28515625,-2.2578125,1,0,0,0,94,94,146,1,,,,,,,,
,,,,,,,,,,,,,FF,,,,,,,,0.3007,,,,,,,,,,,,,,,,,,,,,,61002f666835203714619c62,610378b7667d227694650990,2021-07-29_20h58.51.680,Simcolourproject_2stim_asymm_v5,2020.2.10,MacIntel,60,61025ae37ef11b136ea224fe,,,,,,,,,4124,75.27734375,-50.765625,1,0,0,response3disk,,5,-24.2578125,-3.04296875,1,0,0,rectangle,-24.2578125,-3.04296875,1,0,0,-24.2578125,-3.04296875,1,0,0,0,95,95,94,1,,,,,,,,
,,,,,,,,,,,,,FF,,,,,,,,0.73361,,,,,,,,,,,,,,,,,,,,,,61002f666835203714619c62,610378b7667d227694650990,2021-07-29_20h58.51.680,Simcolourproject_2stim_asymm_v5,2020.2.10,MacIntel,60,61025ae37ef11b136ea224fe,,,,,,,,,2733,-21.9609375,-65.75390625,1,0,0,response5disk,,3,-5.03515625,-5.578125,1,0,0,rectangle,-5.03515625,-5.578125,1,0,0,-5.03515625,-5.578125,1,0,0,0,96,96,28,1,,,,,,,,
,,,,,,,,,,,,,FF,,,,,,,,0.817125,,,,,,,,,,,,,,,,,,,,,,61002f666835203714619c62,610378b7667d227694650990,2021-07-29_20h58.51.680,Simcolourproject_2stim_asymm_v5,2020.2.10,MacIntel,60,61025ae37ef11b136ea224fe,,,,,,,,,1644,79.7890625,33.90625,1,0,0,response1disk,,6,25.9453125,-1.5390625,1,0,0,rectangle,52.44921875,-94.29296875,1,0,0,11.21484375,-7.98828125,1,0,0,0,97,97,132,1,,response3disk_3,TRUE,4,4,"[63,152,104,61,84,239,62,297,81,34,211,292,99,98,128,147,199,7,4,29]",1.742665,rectangle
,,,,,,,,,,,,,FF,,,,,,,,0.501375,,,,,,,,,,,,,,,,,,,,,,61002f666835203714619c62,610378b7667d227694650990,2021-07-29_20h58.51.680,Simcolourproject_2stim_asymm_v5,2020.2.10,MacIntel,60,61025ae37ef11b136ea224fe,,,,,,,,,2249,-37.84375,-41.82421875,1,0,0,response5disk,,3,-10.953125,13.27734375,1,0,0,rectangle,31.53125,80.17578125,1,0,0,-1.76953125,3.0859375,1,0,0,0,98,98,144,1,,response1disk_3,TRUE,7,7,"[63,152,104,61,84,239,62,297,81,34,211,292,99,98,128,147,199,7,4,29]",1.517845,rectangle
,,,,,,,,,,,,,FF,,,,,,,,0.683335,,,,,,,,,,,,,,,,,,,,,,61002f666835203714619c62,610378b7667d227694650990,2021-07-29_20h58.51.680,Simcolourproject_2stim_asymm_v5,2020.2.10,MacIntel,60,61025ae37ef11b136ea224fe,,,,,,,,,141,105.4296875,-43.296875,1,0,0,response3disk,,5,6.38671875,-3.29296875,1,0,0,rectangle,6.38671875,-3.29296875,1,0,0,6.38671875,-3.29296875,1,0,0,0,99,99,105,1,,,,,,,,
,,,,,,,,,,,,,FF,,,,,,,,0.983725,,,,,,,,,,,,,,,,,,,,,,61002f666835203714619c62,610378b7667d227694650990,2021-07-29_20h58.51.680,Simcolourproject_2stim_asymm_v5,2020.2.10,MacIntel,60,61025ae37ef11b136ea224fe,,,,,,,,,4200,-53.86328125,66.8125,1,0,0,response7disk,,0,-10.38671875,-11.6015625,1,0,0,rectangle,-10.38671875,-11.6015625,1,0,0,-10.38671875,-11.6015625,1,0,0,0,100,100,11,1,,,,,,,,
,,,,,,,,,,,,,FF,,,,,,,,1.09271,,,,,,,,,,,,,,,,,,,,,,61002f666835203714619c62,610378b7667d227694650990,2021-07-29_20h58.51.680,Simcolourproject_2stim_asymm_v5,2020.2.10,MacIntel,60,61025ae37ef11b136ea224fe,,,,,,,,,3533,76.5390625,31.32421875,1,0,0,response1disk,,6,43.21484375,-1.99609375,1,0,0,rectangle,43.21484375,-1.99609375,1,0,0,43.21484375,-1.99609375,1,0,0,0,101,101,152,1,,,,,,,,
,,,,,,,,,,,,,FF,,,,,,,,0.96739,,,,,,,,,,,,,,,,,,,,,,61002f666835203714619c62,610378b7667d227694650990,2021-07-29_20h58.51.680,Simcolourproject_2stim_asymm_v5,2020.2.10,MacIntel,60,61025ae37ef11b136ea224fe,,,,,,,,,518,-19.125,-79.38671875,1,0,0,response5disk,,3,25.2421875,-3.109375,1,0,0,rectangle,25.2421875,-3.109375,1,0,0,25.2421875,-3.109375,1,0,0,0,102,102,140,1,,,,,,,,
,,,,,,,,,,,,,FF,,,,,,,,1.885375,,,,,,,,,,,,,,,,,,,,,,61002f666835203714619c62,610378b7667d227694650990,2021-07-29_20h58.51.680,Simcolourproject_2stim_asymm_v5,2020.2.10,MacIntel,60,61025ae37ef11b136ea224fe,,,,,,,,,3827,54.72265625,-27.4296875,1,0,0,response3disk,,5,-2.828125,-8.0390625,1,0,0,rectangle,82.24609375,-24.953125,1,0,0,9.765625,1.65234375,1,0,0,0,103,103,95,1,,response3disk_3,TRUE,5,5,"[63,152,104,61,84,239,62,297,81,34,211,292,99,98,128,147,199,7,4,29]",1.468915,rectangle
,,,,,,,,,,,,,FF,,,,,,,,0.94985,,,,,,,,,,,,,,,,,,,,,,61002f666835203714619c62,610378b7667d227694650990,2021-07-29_20h58.51.680,Simcolourproject_2stim_asymm_v5,2020.2.10,MacIntel,60,61025ae37ef11b136ea224fe,,,,,,,,,3204,-78.65625,-16.7265625,1,0,0,response5disk,,2,-10.36328125,6.8671875,1,0,0,rectangle,-10.36328125,6.8671875,1,0,0,-10.36328125,6.8671875,1,0,0,0,104,104,134,1,,,,,,,,
,,,,,,,,,,,,,FF,,,,,,,,1.000905,,,,,,,,,,,,,,,,,,,,,,61002f666835203714619c62,610378b7667d227694650990,2021-07-29_20h58.51.680,Simcolourproject_2stim_asymm_v5,2020.2.10,MacIntel,60,61025ae37ef11b136ea224fe,,,,,,,,,1917,-23.69140625,-56.734375,1,0,0,response5disk,,3,26.03515625,-15.5546875,1,0,0,rectangle,26.03515625,-15.5546875,1,0,0,26.03515625,-15.5546875,1,0,0,0,105,105,31,1,,,,,,,,
,,,,,,,,,,,,,FF,,,,,,,,1.066765,,,,,,,,,,,,,,,,,,,,,,61002f666835203714619c62,610378b7667d227694650990,2021-07-29_20h58.51.680,Simcolourproject_2stim_asymm_v5,2020.2.10,MacIntel,60,61025ae37ef11b136ea224fe,,,,,,,,,2148,65.234375,67.46875,1,0,0,response1disk,,7,25.41796875,-1.17578125,1,0,0,rectangle,25.41796875,-1.17578125,1,0,0,25.41796875,-1.17578125,1,0,0,0,106,106,40,1,,,,,,,,
,,,,,,,,,,,,,FF,,,,,,,,1.033365,,,,,,,,,,,,,,,,,,,,,,61002f666835203714619c62,610378b7667d227694650990,2021-07-29_20h58.51.680,Simcolourproject_2stim_asymm_v5,2020.2.10,MacIntel,60,61025ae37ef11b136ea224fe,,,,,,,,,1074,96.8203125,30.17578125,1,0,0,response1disk,,6,35.12890625,-7.953125,1,0,0,rectangle,35.12890625,-7.953125,1,0,0,35.12890625,-7.953125,1,0,0,0,107,107,71,1,,,,,,,,
,,,,,,,,,,,,,FF,,,,,,,,1.46823,,,,,,,,,,,,,,,,,,,,,,61002f666835203714619c62,610378b7667d227694650990,2021-07-29_20h58.51.680,Simcolourproject_2stim_asymm_v5,2020.2.10,MacIntel,60,61025ae37ef11b136ea224fe,,,,,,,,,4318,45.12890625,-71.3203125,1,0,0,response3disk,,4,8.390625,-6.484375,1,0,0,rectangle,8.390625,-6.484375,1,0,0,8.390625,-6.484375,1,0,0,0,108,108,57,1,,,,,,,,
,,,,,,,,,,,,,FF,,,,,,,,1.14317,,,,,,,,,,,,,,,,,,,,,,61002f666835203714619c62,610378b7667d227694650990,2021-07-29_20h58.51.680,Simcolourproject_2stim_asymm_v5,2020.2.10,MacIntel,60,61025ae37ef11b136ea224fe,,,,,,,,,3807,74.2734375,-27,1,0,0,response3disk,,5,14.5390625,1.0234375,1,0,0,rectangle,14.5390625,1.0234375,1,0,0,14.5390625,1.0234375,1,0,0,0,109,109,29,1,,,,,,,,
,,,,,,,,,,,,,FF,,,,,,,,0.766705,,,,,,,,,,,,,,,,,,,,,,61002f666835203714619c62,610378b7667d227694650990,2021-07-29_20h58.51.680,Simcolourproject_2stim_asymm_v5,2020.2.10,MacIntel,60,61025ae37ef11b136ea224fe,,,,,,,,,286,39.35546875,65.28125,1,0,0,response1disk,,7,17.1015625,1.18359375,1,0,0,rectangle,17.1015625,1.18359375,1,0,0,17.1015625,1.18359375,1,0,0,0,110,110,119,1,,,,,,,,
,,,,,,,,,,,,,FF,,,,,,,,0.851265,,,,,,,,,,,,,,,,,,,,,,61002f666835203714619c62,610378b7667d227694650990,2021-07-29_20h58.51.680,Simcolourproject_2stim_asymm_v5,2020.2.10,MacIntel,60,61025ae37ef11b136ea224fe,,,,,,,,,261,-80.61328125,-42.89453125,1,0,0,response5disk,,2,-23.27734375,-0.37109375,1,0,0,rectangle,-23.27734375,-0.37109375,1,0,0,-23.27734375,-0.37109375,1,0,0,0,111,111,49,1,,,,,,,,
,,,,,,,,,,,,,FF,,,,,,,,1.450245,,,,,,,,,,,,,,,,,,,,,,61002f666835203714619c62,610378b7667d227694650990,2021-07-29_20h58.51.680,Simcolourproject_2stim_asymm_v5,2020.2.10,MacIntel,60,61025ae37ef11b136ea224fe,,,,,,,,,3847,45.94921875,-77.17578125,1,0,0,response3disk,,4,9.61328125,6.4921875,1,0,0,rectangle,9.61328125,6.4921875,1,0,0,9.61328125,6.4921875,1,0,0,0,112,112,86,1,,,,,,,,
,,,,,,,,,,,,,FF,,,,,,,,0.71738,,,,,,,,,,,,,,,,,,,,,,61002f666835203714619c62,610378b7667d227694650990,2021-07-29_20h58.51.680,Simcolourproject_2stim_asymm_v5,2020.2.10,MacIntel,60,61025ae37ef11b136ea224fe,,,,,,,,,4333,41.37109375,55.34375,1,0,0,response1disk,,7,31.984375,-1.69921875,1,0,0,rectangle,31.984375,-1.69921875,1,0,0,31.984375,-1.69921875,1,0,0,0,113,113,117,1,,,,,,,,
,,,,,,,,,,,,,FF,,,,,,,,1.02624,,,,,,,,,,,,,,,,,,,,,,61002f666835203714619c62,610378b7667d227694650990,2021-07-29_20h58.51.680,Simcolourproject_2stim_asymm_v5,2020.2.10,MacIntel,60,61025ae37ef11b136ea224fe,,,,,,,,,3856,78.19140625,-31.17578125,1,0,0,response3disk,,5,30.47265625,-9.12109375,1,0,0,rectangle,30.47265625,-9.12109375,1,0,0,30.47265625,-9.12109375,1,0,0,0,114,114,4,1,,,,,,,,
,,,,,,,,,,,,,FF,,,,,,,,1.03478,,,,,,,,,,,,,,,,,,,,,,61002f666835203714619c62,610378b7667d227694650990,2021-07-29_20h58.51.680,Simcolourproject_2stim_asymm_v5,2020.2.10,MacIntel,60,61025ae37ef11b136ea224fe,,,,,,,,,1695,-52.75,-22.45703125,1,0,0,response5disk,,2,-12.82421875,12.69140625,1,0,0,rectangle,-12.82421875,12.69140625,1,0,0,-12.82421875,12.69140625,1,0,0,0,115,115,16,1,,,,,,,,
,,,,,,,,,,,,,FF,,,,,,,,0.766295,,,,,,,,,,,,,,,,,,,,,,61002f666835203714619c62,610378b7667d227694650990,2021-07-29_20h58.51.680,Simcolourproject_2stim_asymm_v5,2020.2.10,MacIntel,60,61025ae37ef11b136ea224fe,,,,,,,,,1167,45.2734375,74.703125,1,0,0,response1disk,,7,27.16796875,8.20703125,1,0,0,rectangle,27.16796875,8.20703125,1,0,0,27.16796875,8.20703125,1,0,0,0,116,116,58,1,,,,,,,,
,,,,,,,,,,,,,FF,,,,,,,,0.71621,,,,,,,,,,,,,,,,,,,,,,61002f666835203714619c62,610378b7667d227694650990,2021-07-29_20h58.51.680,Simcolourproject_2stim_asymm_v5,2020.2.10,MacIntel,60,61025ae37ef11b136ea224fe,,,,,,,,,1414,65.6640625,-54.0078125,1,0,0,response3disk,,5,11.9375,5.83984375,1,0,0,rectangle,11.9375,5.83984375,1,0,0,11.9375,5.83984375,1,0,0,0,117,117,38,1,,,,,,,,
,,,,,,,,,,,,,FF,,,,,,,,1.018525,,,,,,,,,,,,,,,,,,,,,,61002f666835203714619c62,610378b7667d227694650990,2021-07-29_20h58.51.680,Simcolourproject_2stim_asymm_v5,2020.2.10,MacIntel,60,61025ae37ef11b136ea224fe,,,,,,,,,748,41.14453125,-71.0078125,1,0,0,response3disk,,4,18.34765625,-18.265625,1,0,0,rectangle,18.34765625,-18.265625,1,0,0,18.34765625,-18.265625,1,0,0,0,118,118,120,1,,,,,,,,
,,,,,,,,,,,,,FF,,,,,,,,0.51617,,,,,,,,,,,,,,,,,,,,,,61002f666835203714619c62,610378b7667d227694650990,2021-07-29_20h58.51.680,Simcolourproject_2stim_asymm_v5,2020.2.10,MacIntel,60,61025ae37ef11b136ea224fe,,,,,,,,,114,69.1171875,37.06640625,1,0,0,response1disk,,6,24.00390625,-11.94921875,1,0,0,rectangle,24.00390625,-11.94921875,1,0,0,24.00390625,-11.94921875,1,0,0,0,119,119,76,1,,,,,,,,
,,,,,,,,,,,,,FF,,,,,,,,0.50794,,,,,,,,,,,,,,,,,,,,,,61002f666835203714619c62,610378b7667d227694650990,2021-07-29_20h58.51.680,Simcolourproject_2stim_asymm_v5,2020.2.10,MacIntel,60,61025ae37ef11b136ea224fe,,,,,,,,,1557,65.078125,36.890625,1,0,0,response1disk,,6,25.8203125,-6.71484375,1,0,0,rectangle,25.8203125,-6.71484375,1,0,0,25.8203125,-6.71484375,1,0,0,0,120,120,69,1,,,,,,,,
,,,,,,,,,,,,,FF,,,,,,,,0.56762,,,,,,,,,,,,,,,,,,,,,,61002f666835203714619c62,610378b7667d227694650990,2021-07-29_20h58.51.680,Simcolourproject_2stim_asymm_v5,2020.2.10,MacIntel,60,61025ae37ef11b136ea224fe,,,,,,,,,1532,63.29296875,31.26171875,1,0,0,response1disk,,6,25.16015625,-8.234375,1,0,0,rectangle,25.16015625,-8.234375,1,0,0,25.16015625,-8.234375,1,0,0,0,121,121,127,1,,,,,,,,
,,,,,,,,,,,,,FF,,,,,,,,0.766275,,,,,,,,,,,,,,,,,,,,,,61002f666835203714619c62,610378b7667d227694650990,2021-07-29_20h58.51.680,Simcolourproject_2stim_asymm_v5,2020.2.10,MacIntel,60,61025ae37ef11b136ea224fe,,,,,,,,,1196,41.28515625,50.60546875,1,0,0,response1disk,,7,38.390625,-2.1171875,1,0,0,rectangle,38.390625,-2.1171875,1,0,0,38.390625,-2.1171875,1,0,0,0,122,122,41,1,,,,,,,,
,,,,,,,,,,,,,FF,,,,,,,,0.900695,,,,,,,,,,,,,,,,,,,,,,61002f666835203714619c62,610378b7667d227694650990,2021-07-29_20h58.51.680,Simcolourproject_2stim_asymm_v5,2020.2.10,MacIntel,60,61025ae37ef11b136ea224fe,,,,,,,,,2585,93.02734375,-32.96484375,1,0,0,response3disk,,5,34.88671875,-8.13671875,1,0,0,rectangle,34.88671875,-8.13671875,1,0,0,34.88671875,-8.13671875,1,0,0,0,123,123,54,1,,,,,,,,
,,,,,,,,,,,,,FF,,,,,,,,1.151535,,,,,,,,,,,,,,,,,,,,,,61002f666835203714619c62,610378b7667d227694650990,2021-07-29_20h58.51.680,Simcolourproject_2stim_asymm_v5,2020.2.10,MacIntel,60,61025ae37ef11b136ea224fe,,,,,,,,,2238,-47.3984375,-76.1640625,1,0,0,response5disk,,3,0.6015625,-6.9765625,1,0,0,rectangle,0.6015625,-6.9765625,1,0,0,0.6015625,-6.9765625,1,0,0,0,124,124,5,1,,,,,,,,
,,,,,,,,,,,,,FF,,,,,,,,0.85054,,,,,,,,,,,,,,,,,,,,,,61002f666835203714619c62,610378b7667d227694650990,2021-07-29_20h58.51.680,Simcolourproject_2stim_asymm_v5,2020.2.10,MacIntel,60,61025ae37ef11b136ea224fe,,,,,,,,,821,32.38671875,-56.1640625,1,0,0,response3disk,,4,27.5,-6.0859375,1,0,0,rectangle,27.5,-6.0859375,1,0,0,27.5,-6.0859375,1,0,0,0,125,125,51,1,,,,,,,,
,,,,,,,,,,,,,FF,,,,,,,,1.08415,,,,,,,,,,,,,,,,,,,,,,61002f666835203714619c62,610378b7667d227694650990,2021-07-29_20h58.51.680,Simcolourproject_2stim_asymm_v5,2020.2.10,MacIntel,60,61025ae37ef11b136ea224fe,,,,,,,,,1547,-24.87890625,-51.578125,1,0,0,response5disk,,3,3.67578125,1.51171875,1,0,0,rectangle,3.67578125,1.51171875,1,0,0,3.67578125,1.51171875,1,0,0,0,126,126,21,1,,,,,,,,
,,,,,,,,,,,,,FF,,,,,,,,0.767835,,,,,,,,,,,,,,,,,,,,,,61002f666835203714619c62,610378b7667d227694650990,2021-07-29_20h58.51.680,Simcolourproject_2stim_asymm_v5,2020.2.10,MacIntel,60,61025ae37ef11b136ea224fe,,,,,,,,,2980,67.2578125,87.34375,1,0,0,response1disk,,7,39.875,4.15625,1,0,0,rectangle,-84.73828125,51.83203125,1,0,0,-38.16796875,12.40625,1,0,0,0,127,127,141,1,,response7disk_3,TRUE,1,1,"[63,152,104,61,84,239,62,297,81,34,211,292,99,98,128,147,199,7,4,29]",1.30109,rectangle
,,,,,,,,,,,,,FF,,,,,,,,0.634725,,,,,,,,,,,,,,,,,,,,,,61002f666835203714619c62,610378b7667d227694650990,2021-07-29_20h58.51.680,Simcolourproject_2stim_asymm_v5,2020.2.10,MacIntel,60,61025ae37ef11b136ea224fe,,,,,,,,,587,-39.515625,-58.31640625,1,0,0,response5disk,,3,-15.625,6.390625,1,0,0,rectangle,-15.625,6.390625,1,0,0,-15.625,6.390625,1,0,0,0,128,128,107,1,,,,,,,,
,,,,,,,,,,,,,FF,,,,,,,,0.818795,,,,,,,,,,,,,,,,,,,,,,61002f666835203714619c62,610378b7667d227694650990,2021-07-29_20h58.51.680,Simcolourproject_2stim_asymm_v5,2020.2.10,MacIntel,60,61025ae37ef11b136ea224fe,,,,,,,,,1838,-56.71484375,-45.19921875,1,0,0,response5disk,,2,-17.8984375,0.0078125,1,0,0,rectangle,-17.8984375,0.0078125,1,0,0,-17.8984375,0.0078125,1,0,0,0,129,129,26,1,,,,,,,,
,,,,,,,,,,,,,FF,,,,,,,,0.717225,,,,,,,,,,,,,,,,,,,,,,61002f666835203714619c62,610378b7667d227694650990,2021-07-29_20h58.51.680,Simcolourproject_2stim_asymm_v5,2020.2.10,MacIntel,60,61025ae37ef11b136ea224fe,,,,,,,,,667,21.76171875,-60.67578125,1,0,0,response3disk,,4,-14.61328125,5.23046875,1,0,0,rectangle,-14.61328125,5.23046875,1,0,0,-14.61328125,5.23046875,1,0,0,0,130,130,75,1,,,,,,,,
,,,,,,,,,,,,,FF,,,,,,,,0.93408,,,,,,,,,,,,,,,,,,,,,,61002f666835203714619c62,610378b7667d227694650990,2021-07-29_20h58.51.680,Simcolourproject_2stim_asymm_v5,2020.2.10,MacIntel,60,61025ae37ef11b136ea224fe,,,,,,,,,2669,-64.1953125,42.66796875,1,0,0,response7disk,,1,-3.0859375,-12.1953125,1,0,0,rectangle,-3.0859375,-12.1953125,1,0,0,-3.0859375,-12.1953125,1,0,0,0,131,131,121,1,,,,,,,,
,,,,,,,,,,,,,FF,,,,,,,,0.8007,,,,,,,,,,,,,,,,,,,,,,61002f666835203714619c62,610378b7667d227694650990,2021-07-29_20h58.51.680,Simcolourproject_2stim_asymm_v5,2020.2.10,MacIntel,60,61025ae37ef11b136ea224fe,,,,,,,,,289,44.98046875,-58.72265625,1,0,0,response3disk,,4,33.21875,-10.34375,1,0,0,rectangle,33.21875,-10.34375,1,0,0,33.21875,-10.34375,1,0,0,0,132,132,70,1,,,,,,,,
,,,,,,,,,,,,,FF,,,,,,,,1.000885,,,,,,,,,,,,,,,,,,,,,,61002f666835203714619c62,610378b7667d227694650990,2021-07-29_20h58.51.680,Simcolourproject_2stim_asymm_v5,2020.2.10,MacIntel,60,61025ae37ef11b136ea224fe,,,,,,,,,813,-49.55859375,-51.93359375,1,0,0,response5disk,,3,12.12109375,-10.57421875,1,0,0,rectangle,12.12109375,-10.57421875,1,0,0,12.12109375,-10.57421875,1,0,0,0,133,133,93,1,,,,,,,,
,,,,,,,,,,,,,FF,,,,,,,,1.13457,,,,,,,,,,,,,,,,,,,,,,61002f666835203714619c62,610378b7667d227694650990,2021-07-29_20h58.51.680,Simcolourproject_2stim_asymm_v5,2020.2.10,MacIntel,60,61025ae37ef11b136ea224fe,,,,,,,,,2652,-63.2734375,-42.45703125,1,0,0,response5disk,,2,9.27734375,7.921875,1,0,0,rectangle,9.27734375,7.921875,1,0,0,9.27734375,7.921875,1,0,0,0,134,134,65,1,,,,,,,,
,,,,,,,,,,,,,FF,,,,,,,,0.6521,,,,,,,,,,,,,,,,,,,,,,61002f666835203714619c62,610378b7667d227694650990,2021-07-29_20h58.51.680,Simcolourproject_2stim_asymm_v5,2020.2.10,MacIntel,60,61025ae37ef11b136ea224fe,,,,,,,,,1170,37.54296875,83.0390625,1,0,0,response1disk,,7,30.3515625,6.67578125,1,0,0,rectangle,30.3515625,6.67578125,1,0,0,30.3515625,6.67578125,1,0,0,0,135,135,116,1,,,,,,,,
,,,,,,,,,,,,,FF,,,,,,,,0.883645,,,,,,,,,,,,,,,,,,,,,,61002f666835203714619c62,610378b7667d227694650990,2021-07-29_20h58.51.680,Simcolourproject_2stim_asymm_v5,2020.2.10,MacIntel,60,61025ae37ef11b136ea224fe,,,,,,,,,3636,45.37890625,-60.1328125,1,0,0,response3disk,,4,12.35546875,-19.7265625,1,0,0,rectangle,12.35546875,-19.7265625,1,0,0,12.35546875,-19.7265625,1,0,0,0,136,136,151,1,,,,,,,,
,,,,,,,,,,,,,FF,,,,,,,,0.96672,,,,,,,,,,,,,,,,,,,,,,61002f666835203714619c62,610378b7667d227694650990,2021-07-29_20h58.51.680,Simcolourproject_2stim_asymm_v5,2020.2.10,MacIntel,60,61025ae37ef11b136ea224fe,,,,,,,,,3350,61.56640625,-31.47265625,1,0,0,response3disk,,5,0.38671875,-1.31640625,1,0,0,rectangle,0.38671875,-1.31640625,1,0,0,0.38671875,-1.31640625,1,0,0,0,137,137,153,1,,,,,,,,
,,,,,,,,,,,,,FF,,,,,,,,1.28425,,,,,,,,,,,,,,,,,,,,,,61002f666835203714619c62,610378b7667d227694650990,2021-07-29_20h58.51.680,Simcolourproject_2stim_asymm_v5,2020.2.10,MacIntel,60,61025ae37ef11b136ea224fe,,,,,,,,,143,66.52734375,28.671875,1,0,0,response1disk,,6,24.55078125,-11.125,1,0,0,rectangle,24.55078125,-11.125,1,0,0,24.55078125,-11.125,1,0,0,0,138,138,81,1,,,,,,,,
,,,,,,,,,,,,,FF,,,,,,,,0.84995,,,,,,,,,,,,,,,,,,,,,,61002f666835203714619c62,610378b7667d227694650990,2021-07-29_20h58.51.680,Simcolourproject_2stim_asymm_v5,2020.2.10,MacIntel,60,61025ae37ef11b136ea224fe,,,,,,,,,2556,-26.7734375,-65.8359375,1,0,0,response5disk,,3,-10.265625,-8.23046875,1,0,0,rectangle,-10.265625,-8.23046875,1,0,0,-10.265625,-8.23046875,1,0,0,0,139,139,18,1,,,,,,,,
,,,,,,,,,,,,,FF,,,,,,,,0.81712,,,,,,,,,,,,,,,,,,,,,,61002f666835203714619c62,610378b7667d227694650990,2021-07-29_20h58.51.680,Simcolourproject_2stim_asymm_v5,2020.2.10,MacIntel,60,61025ae37ef11b136ea224fe,,,,,,,,,881,73.3671875,-47.8671875,1,0,0,response3disk,,5,26.51953125,12.890625,1,0,0,rectangle,26.51953125,12.890625,1,0,0,26.51953125,12.890625,1,0,0,0,140,140,60,1,,,,,,,,
,,,,,,,,,,,,,FF,,,,,,,,0.84239,,,,,,,,,,,,,,,,,,,,,,61002f666835203714619c62,610378b7667d227694650990,2021-07-29_20h58.51.680,Simcolourproject_2stim_asymm_v5,2020.2.10,MacIntel,60,61025ae37ef11b136ea224fe,,,,,,,,,652,-18.28125,-54.01953125,1,0,0,response5disk,,3,-11.9375,-13.515625,1,0,0,rectangle,-11.9375,-13.515625,1,0,0,-11.9375,-13.515625,1,0,0,0,141,141,23,1,,,,,,,,
,,,,,,,,,,,,,FF,,,,,,,,0.767465,,,,,,,,,,,,,,,,,,,,,,61002f666835203714619c62,610378b7667d227694650990,2021-07-29_20h58.51.680,Simcolourproject_2stim_asymm_v5,2020.2.10,MacIntel,60,61025ae37ef11b136ea224fe,,,,,,,,,1301,41.8671875,-59.43359375,1,0,0,response3disk,,4,11.13671875,-3.9453125,1,0,0,rectangle,11.13671875,-3.9453125,1,0,0,11.13671875,-3.9453125,1,0,0,0,142,142,115,1,,,,,,,,
,,,,,,,,,,,,,FF,,,,,,,,1.06921,,,,,,,,,,,,,,,,,,,,,,61002f666835203714619c62,610378b7667d227694650990,2021-07-29_20h58.51.680,Simcolourproject_2stim_asymm_v5,2020.2.10,MacIntel,60,61025ae37ef11b136ea224fe,,,,,,,,,1458,-84.64453125,-43.05859375,1,0,0,response5disk,,2,-23.54296875,-5.92578125,1,0,0,rectangle,-23.54296875,-5.92578125,1,0,0,-23.54296875,-5.92578125,1,0,0,0,143,143,98,1,,,,,,,,
,,,,,,,,,,,,,FF,,,,,,,,0.8005,,,,,,,,,,,,,,,,,,,,,,61002f666835203714619c62,610378b7667d227694650990,2021-07-29_20h58.51.680,Simcolourproject_2stim_asymm_v5,2020.2.10,MacIntel,60,61025ae37ef11b136ea224fe,,,,,,,,,2285,37.99609375,-65.609375,1,0,0,response3disk,,4,-2.6796875,0.15234375,1,0,0,rectangle,-2.6796875,0.15234375,1,0,0,-2.6796875,0.15234375,1,0,0,0,144,144,3,1,,,,,,,,
,,,,,,,,,,,,,FF,,,,,,,,0.8012,,,,,,,,,,,,,,,,,,,,,,61002f666835203714619c62,610378b7667d227694650990,2021-07-29_20h58.51.680,Simcolourproject_2stim_asymm_v5,2020.2.10,MacIntel,60,61025ae37ef11b136ea224fe,,,,,,,,,2812,110.9414063,41.0234375,1,0,0,response1disk,,6,14.171875,1.40625,1,0,0,rectangle,14.171875,1.40625,1,0,0,14.171875,1.40625,1,0,0,0,145,145,30,1,,,,,,,,
,,,,,,,,,,,,,FF,,,,,,,,0.666085,,,,,,,,,,,,,,,,,,,,,,61002f666835203714619c62,610378b7667d227694650990,2021-07-29_20h58.51.680,Simcolourproject_2stim_asymm_v5,2020.2.10,MacIntel,60,61025ae37ef11b136ea224fe,,,,,,,,,1721,39.59765625,76.91015625,1,0,0,response1disk,,7,34.49609375,-7.84765625,1,0,0,rectangle,-34.8828125,-64.06640625,1,0,0,5.59375,5.97265625,1,0,0,0,146,146,44,1,,response5disk_3,TRUE,3,3,"[63,152,104,61,84,239,62,297,81,34,211,292,99,98,128,147,199,7,4,29]",1.691855,rectangle
,,,,,,,,,,,,,FF,,,,,,,,0.949625,,,,,,,,,,,,,,,,,,,,,,61002f666835203714619c62,610378b7667d227694650990,2021-07-29_20h58.51.680,Simcolourproject_2stim_asymm_v5,2020.2.10,MacIntel,60,61025ae37ef11b136ea224fe,,,,,,,,,1969,-76.53515625,-45.31640625,1,0,0,response5disk,,2,-16.6796875,-18.15234375,1,0,0,rectangle,-16.6796875,-18.15234375,1,0,0,-16.6796875,-18.15234375,1,0,0,0,147,147,138,1,,,,,,,,
,,,,,,,,,,,,,FF,,,,,,,,1.10076,,,,,,,,,,,,,,,,,,,,,,61002f666835203714619c62,610378b7667d227694650990,2021-07-29_20h58.51.680,Simcolourproject_2stim_asymm_v5,2020.2.10,MacIntel,60,61025ae37ef11b136ea224fe,,,,,,,,,2146,104.5195313,40.56640625,1,0,0,response1disk,,6,43.0546875,6.69140625,1,0,0,rectangle,43.0546875,6.69140625,1,0,0,43.0546875,6.69140625,1,0,0,0,148,148,82,1,,,,,,,,
,,,,,,,,,,,,,FF,,,,,,,,1.01661,,,,,,,,,,,,,,,,,,,,,,61002f666835203714619c62,610378b7667d227694650990,2021-07-29_20h58.51.680,Simcolourproject_2stim_asymm_v5,2020.2.10,MacIntel,60,61025ae37ef11b136ea224fe,,,,,,,,,918,72.2265625,65.60546875,1,0,0,response1disk,,6,38.67578125,2.2265625,1,0,0,rectangle,38.67578125,2.2265625,1,0,0,38.67578125,2.2265625,1,0,0,0,149,149,147,1,,,,,,,,
,,,,,,,,,,,,,FF,,,,,,,,0.90011,,,,,,,,,,,,,,,,,,,,,,61002f666835203714619c62,610378b7667d227694650990,2021-07-29_20h58.51.680,Simcolourproject_2stim_asymm_v5,2020.2.10,MacIntel,60,61025ae37ef11b136ea224fe,,,,,,,,,4348,29.40625,56.97265625,1,0,0,response1disk,,7,-11.390625,-0.9609375,1,0,0,rectangle,-11.390625,-0.9609375,1,0,0,-11.390625,-0.9609375,1,0,0,0,150,150,0,1,,,,,,,,
,,,,,,,,,,,,,FF,,,,,,,,0.884255,,,,,,,,,,,,,,,,,,,,,,61002f666835203714619c62,610378b7667d227694650990,2021-07-29_20h58.51.680,Simcolourproject_2stim_asymm_v5,2020.2.10,MacIntel,60,61025ae37ef11b136ea224fe,,,,,,,,,3528,73.98046875,-33.31640625,1,0,0,response3disk,,5,33.0234375,-15.70703125,1,0,0,rectangle,93.28125,-44.80078125,1,0,0,12.109375,-6.265625,1,0,0,0,151,151,37,1,,response3disk_3,TRUE,5,5,"[63,152,104,61,84,239,62,297,81,34,211,292,99,98,128,147,199,7,4,29]",1.2668,rectangle
,,,,,,,,,,,,,FF,,,,,,,,1.76893,,,,,,,,,,,,,,,,,,,,,,61002f666835203714619c62,610378b7667d227694650990,2021-07-29_20h58.51.680,Simcolourproject_2stim_asymm_v5,2020.2.10,MacIntel,60,61025ae37ef11b136ea224fe,,,,,,,,,367,-61.96875,-49.61328125,1,0,0,response5disk,,2,22.80078125,2.078125,1,0,0,rectangle,22.80078125,2.078125,1,0,0,22.80078125,2.078125,1,0,0,0,152,152,72,1,,,,,,,,
,,,,,,,,,,,,,FF,,,,,,,,0.366915,,,,,,,,,,,,,,,,,,,,,,61002f666835203714619c62,610378b7667d227694650990,2021-07-29_20h58.51.680,Simcolourproject_2stim_asymm_v5,2020.2.10,MacIntel,60,61025ae37ef11b136ea224fe,,,,,,,,,3140,57.078125,-63.609375,1,0,0,response3disk,,4,-6.6875,13.59375,1,0,0,rectangle,-6.6875,13.59375,1,0,0,-6.6875,13.59375,1,0,0,0,153,153,66,1,,,,,,,,
,,,,,,,,,,,,,FF,,,,,,,,0.816545,,,,,,,,,,,,,,,,,,,,,,61002f666835203714619c62,610378b7667d227694650990,2021-07-29_20h58.51.680,Simcolourproject_2stim_asymm_v5,2020.2.10,MacIntel,60,61025ae37ef11b136ea224fe,,,,,,,,,2364,-52.81640625,-58.76953125,1,0,0,response5disk,,3,3.859375,3.1015625,1,0,0,rectangle,3.859375,3.1015625,1,0,0,3.859375,3.1015625,1,0,0,0,154,154,61,1,,,,,,,,
,,,,,,,,,,,,,FF,,,,,,,,0.758745,,,,,,,,,,,,,,,,,,,,,,61002f666835203714619c62,610378b7667d227694650990,2021-07-29_20h58.51.680,Simcolourproject_2stim_asymm_v5,2020.2.10,MacIntel,60,61025ae37ef11b136ea224fe,,,,,,,,,732,94.28515625,50.89453125,1,0,0,response1disk,,6,-1.55859375,-13.03515625,1,0,0,rectangle,-1.55859375,-13.03515625,1,0,0,-1.55859375,-13.03515625,1,0,0,0,155,155,130,1,,,,,,,,
,,,,,,,,,,,,,FF,,,,,,,,0.850495,,,,,,,,,,,,,,,,,,,,,,61002f666835203714619c62,610378b7667d227694650990,2021-07-29_20h58.51.680,Simcolourproject_2stim_asymm_v5,2020.2.10,MacIntel,60,61025ae37ef11b136ea224fe,,,,,,,,,192,-87.9921875,-38.296875,1,0,0,response5disk,,2,-8.14453125,-15.609375,1,0,0,rectangle,-8.14453125,-15.609375,1,0,0,-8.14453125,-15.609375,1,0,0,0,156,156,103,1,,,,,,,,
,,,,,,,,,,,,,FF,,,,,,,,0.649565,,,,,,,,,,,,,,,,,,,,,,61002f666835203714619c62,610378b7667d227694650990,2021-07-29_20h58.51.680,Simcolourproject_2stim_asymm_v5,2020.2.10,MacIntel,60,61025ae37ef11b136ea224fe,,,,,,,,,3358,101.453125,47.265625,1,0,0,response1disk,,6,-9.81640625,-14.26171875,1,0,0,rectangle,-9.81640625,-14.26171875,1,0,0,-9.81640625,-14.26171875,1,0,0,0,157,157,10,1,,,,,,,,
,,,,,,,,,,,,,FF,,,,,,,,1.050195,,,,,,,,,,,,,,,,,,,,,,61002f666835203714619c62,610378b7667d227694650990,2021-07-29_20h58.51.680,Simcolourproject_2stim_asymm_v5,2020.2.10,MacIntel,60,61025ae37ef11b136ea224fe,,,,,,,,,3136,64.00390625,60.89453125,1,0,0,response1disk,,6,9.10546875,-19.11328125,1,0,0,rectangle,9.10546875,-19.11328125,1,0,0,9.10546875,-19.11328125,1,0,0,0,158,158,27,1,,,,,,,,
,,,,,,,,,,,,,FF,,,,,,,,0.767325,,,,,,,,,,,,,,,,,,,,,,61002f666835203714619c62,610378b7667d227694650990,2021-07-29_20h58.51.680,Simcolourproject_2stim_asymm_v5,2020.2.10,MacIntel,60,61025ae37ef11b136ea224fe,,,,,,,,,491,19.03515625,-54.78515625,1,0,0,response3disk,,4,-32.3125,0.96875,1,0,0,rectangle,-32.3125,0.96875,1,0,0,-32.3125,0.96875,1,0,0,0,159,159,36,1,,,,,,,,
,,,,,,,,,,,,,FF,,,,,,,,0.91845,,,,,,,,,,,,,,,,,,,,,,61002f666835203714619c62,610378b7667d227694650990,2021-07-29_20h58.51.680,Simcolourproject_2stim_asymm_v5,2020.2.10,MacIntel,60,61025ae37ef11b136ea224fe,,,,,,,,,2664,-41.11328125,-51.72265625,1,0,0,response5disk,,3,-9.0234375,0.0078125,1,0,0,rectangle,-9.0234375,0.0078125,1,0,0,-9.0234375,0.0078125,1,0,0,1,0,160,122,1,,,,,,,,
,,,,,,,,,,,,,FF,,,,,,,,0.567925,,,,,,,,,,,,,,,,,,,,,,61002f666835203714619c62,610378b7667d227694650990,2021-07-29_20h58.51.680,Simcolourproject_2stim_asymm_v5,2020.2.10,MacIntel,60,61025ae37ef11b136ea224fe,,,,,,,,,1954,64.75390625,-27.66796875,1,0,0,response3disk,,5,9.8046875,14.515625,1,0,0,rectangle,9.8046875,14.515625,1,0,0,9.8046875,14.515625,1,0,0,1,1,161,121,1,,,,,,,,
,,,,,,,,,,,,,FF,,,,,,,,0.66683,,,,,,,,,,,,,,,,,,,,,,61002f666835203714619c62,610378b7667d227694650990,2021-07-29_20h58.51.680,Simcolourproject_2stim_asymm_v5,2020.2.10,MacIntel,60,61025ae37ef11b136ea224fe,,,,,,,,,1472,-40.4296875,-26.5,1,0,0,response5disk,,2,-5.34765625,8.74609375,1,0,0,rectangle,-5.34765625,8.74609375,1,0,0,-5.34765625,8.74609375,1,0,0,1,2,162,140,1,,,,,,,,
,,,,,,,,,,,,,FF,,,,,,,,0.816815,,,,,,,,,,,,,,,,,,,,,,61002f666835203714619c62,610378b7667d227694650990,2021-07-29_20h58.51.680,Simcolourproject_2stim_asymm_v5,2020.2.10,MacIntel,60,61025ae37ef11b136ea224fe,,,,,,,,,1213,-59.6640625,45.63671875,1,0,0,response7disk,,1,12.51171875,7.8828125,1,0,0,rectangle,12.51171875,7.8828125,1,0,0,12.51171875,7.8828125,1,0,0,1,3,163,125,1,,,,,,,,
,,,,,,,,,,,,,FF,,,,,,,,0.83323,,,,,,,,,,,,,,,,,,,,,,61002f666835203714619c62,610378b7667d227694650990,2021-07-29_20h58.51.680,Simcolourproject_2stim_asymm_v5,2020.2.10,MacIntel,60,61025ae37ef11b136ea224fe,,,,,,,,,861,-41.078125,-49.45703125,1,0,0,response5disk,,3,-0.8671875,-10.53515625,1,0,0,rectangle,-0.8671875,-10.53515625,1,0,0,-0.8671875,-10.53515625,1,0,0,1,4,164,53,1,,,,,,,,
,,,,,,,,,,,,,FF,,,,,,,,1.650355,,,,,,,,,,,,,,,,,,,,,,61002f666835203714619c62,610378b7667d227694650990,2021-07-29_20h58.51.680,Simcolourproject_2stim_asymm_v5,2020.2.10,MacIntel,60,61025ae37ef11b136ea224fe,,,,,,,,,1180,-64.4296875,-25.00390625,1,0,0,response5disk,,2,-25.64453125,7.0390625,1,0,0,rectangle,-25.64453125,7.0390625,1,0,0,-25.64453125,7.0390625,1,0,0,1,5,165,10,1,,,,,,,,
,,,,,,,,,,,,,FF,,,,,,,,0.67431,,,,,,,,,,,,,,,,,,,,,,61002f666835203714619c62,610378b7667d227694650990,2021-07-29_20h58.51.680,Simcolourproject_2stim_asymm_v5,2020.2.10,MacIntel,60,61025ae37ef11b136ea224fe,,,,,,,,,269,39.89453125,-53.390625,1,0,0,response3disk,,4,27.765625,-16.1875,1,0,0,rectangle,27.765625,-16.1875,1,0,0,27.765625,-16.1875,1,0,0,1,6,166,27,1,,,,,,,,
,,,,,,,,,,,,,FF,,,,,,,,1.084325,,,,,,,,,,,,,,,,,,,,,,61002f666835203714619c62,610378b7667d227694650990,2021-07-29_20h58.51.680,Simcolourproject_2stim_asymm_v5,2020.2.10,MacIntel,60,61025ae37ef11b136ea224fe,,,,,,,,,2667,-52.45703125,76.93359375,1,0,0,response7disk,,0,-40.21875,5.88671875,1,0,0,rectangle,-40.21875,5.88671875,1,0,0,-40.21875,5.88671875,1,0,0,1,7,167,61,1,,,,,,,,
,,,,,,,,,,,,,FF,,,,,,,,0.816715,,,,,,,,,,,,,,,,,,,,,,61002f666835203714619c62,610378b7667d227694650990,2021-07-29_20h58.51.680,Simcolourproject_2stim_asymm_v5,2020.2.10,MacIntel,60,61025ae37ef11b136ea224fe,,,,,,,,,1943,-45.12109375,-62.390625,1,0,0,response5disk,,3,34.19140625,-5.72265625,1,0,0,rectangle,34.19140625,-5.72265625,1,0,0,34.19140625,-5.72265625,1,0,0,1,8,168,13,1,,,,,,,,
,,,,,,,,,,,,,FF,,,,,,,,0.616025,,,,,,,,,,,,,,,,,,,,,,61002f666835203714619c62,610378b7667d227694650990,2021-07-29_20h58.51.680,Simcolourproject_2stim_asymm_v5,2020.2.10,MacIntel,60,61025ae37ef11b136ea224fe,,,,,,,,,1775,-43.69921875,-50.19921875,1,0,0,response5disk,,3,1.69140625,-14.88671875,1,0,0,rectangle,1.69140625,-14.88671875,1,0,0,1.69140625,-14.88671875,1,0,0,1,9,169,56,1,,,,,,,,
,,,,,,,,,,,,,FF,,,,,,,,0.968185,,,,,,,,,,,,,,,,,,,,,,61002f666835203714619c62,610378b7667d227694650990,2021-07-29_20h58.51.680,Simcolourproject_2stim_asymm_v5,2020.2.10,MacIntel,60,61025ae37ef11b136ea224fe,,,,,,,,,614,-61.05859375,-35.68359375,1,0,0,response5disk,,2,-4.9765625,-9.546875,1,0,0,rectangle,-4.9765625,-9.546875,1,0,0,-4.9765625,-9.546875,1,0,0,1,10,170,124,1,,,,,,,,
,,,,,,,,,,,,,FF,,,,,,,,0.70168,,,,,,,,,,,,,,,,,,,,,,61002f666835203714619c62,610378b7667d227694650990,2021-07-29_20h58.51.680,Simcolourproject_2stim_asymm_v5,2020.2.10,MacIntel,60,61025ae37ef11b136ea224fe,,,,,,,,,1233,41.91796875,-65.58984375,1,0,0,response3disk,,4,15.71484375,-12.8125,1,0,0,rectangle,15.71484375,-12.8125,1,0,0,15.71484375,-12.8125,1,0,0,1,11,171,153,1,,,,,,,,
,,,,,,,,,,,,,FF,,,,,,,,1.85212,,,,,,,,,,,,,,,,,,,,,,61002f666835203714619c62,610378b7667d227694650990,2021-07-29_20h58.51.680,Simcolourproject_2stim_asymm_v5,2020.2.10,MacIntel,60,61025ae37ef11b136ea224fe,,,,,,,,,3340,-27.6484375,-52.88671875,1,0,0,response5disk,,3,9.60546875,-7.9921875,1,0,0,rectangle,9.60546875,-7.9921875,1,0,0,9.60546875,-7.9921875,1,0,0,1,12,172,116,1,,,,,,,,
,,,,,,,,,,,,,FF,,,,,,,,0.733975,,,,,,,,,,,,,,,,,,,,,,61002f666835203714619c62,610378b7667d227694650990,2021-07-29_20h58.51.680,Simcolourproject_2stim_asymm_v5,2020.2.10,MacIntel,60,61025ae37ef11b136ea224fe,,,,,,,,,4316,-50.3828125,62.5625,1,0,0,response7disk,,0,-20.1484375,-11.7890625,1,0,0,rectangle,-20.1484375,-11.7890625,1,0,0,-20.1484375,-11.7890625,1,0,0,1,13,173,97,1,,,,,,,,
,,,,,,,,,,,,,FF,,,,,,,,0.95166,,,,,,,,,,,,,,,,,,,,,,61002f666835203714619c62,610378b7667d227694650990,2021-07-29_20h58.51.680,Simcolourproject_2stim_asymm_v5,2020.2.10,MacIntel,60,61025ae37ef11b136ea224fe,,,,,,,,,2347,105.6289063,29.55078125,1,0,0,response1disk,,6,35.03125,-11.28515625,1,0,0,rectangle,35.03125,-11.28515625,1,0,0,35.03125,-11.28515625,1,0,0,1,14,174,98,1,,,,,,,,
,,,,,,,,,,,,,FF,,,,,,,,0.75014,,,,,,,,,,,,,,,,,,,,,,61002f666835203714619c62,610378b7667d227694650990,2021-07-29_20h58.51.680,Simcolourproject_2stim_asymm_v5,2020.2.10,MacIntel,60,61025ae37ef11b136ea224fe,,,,,,,,,204,-41.66015625,-37.140625,1,0,0,response5disk,,2,9.08203125,1.2734375,1,0,0,rectangle,9.08203125,1.2734375,1,0,0,9.08203125,1.2734375,1,0,0,1,15,175,58,1,,,,,,,,
,,,,,,,,,,,,,FF,,,,,,,,0.83466,,,,,,,,,,,,,,,,,,,,,,61002f666835203714619c62,610378b7667d227694650990,2021-07-29_20h58.51.680,Simcolourproject_2stim_asymm_v5,2020.2.10,MacIntel,60,61025ae37ef11b136ea224fe,,,,,,,,,1267,-71.17578125,-17.06640625,1,0,0,response5disk,,2,19.06640625,17.17578125,1,0,0,rectangle,19.06640625,17.17578125,1,0,0,19.06640625,17.17578125,1,0,0,1,16,176,12,1,,,,,,,,
,,,,,,,,,,,,,FF,,,,,,,,0.507945,,,,,,,,,,,,,,,,,,,,,,61002f666835203714619c62,610378b7667d227694650990,2021-07-29_20h58.51.680,Simcolourproject_2stim_asymm_v5,2020.2.10,MacIntel,60,61025ae37ef11b136ea224fe,,,,,,,,,570,44.29296875,-41.24609375,1,0,0,response3disk,,5,21.890625,14.1796875,1,0,0,rectangle,21.890625,14.1796875,1,0,0,21.890625,14.1796875,1,0,0,1,17,177,31,1,,,,,,,,
,,,,,,,,,,,,,FF,,,,,,,,0.49961,,,,,,,,,,,,,,,,,,,,,,61002f666835203714619c62,610378b7667d227694650990,2021-07-29_20h58.51.680,Simcolourproject_2stim_asymm_v5,2020.2.10,MacIntel,60,61025ae37ef11b136ea224fe,,,,,,,,,565,-23.796875,-41.0859375,1,0,0,response5disk,,3,17.6328125,6.55859375,1,0,0,rectangle,17.6328125,6.55859375,1,0,0,17.6328125,6.55859375,1,0,0,1,18,178,117,1,,,,,,,,
,,,,,,,,,,,,,FF,,,,,,,,1.08332,,,,,,,,,,,,,,,,,,,,,,61002f666835203714619c62,610378b7667d227694650990,2021-07-29_20h58.51.680,Simcolourproject_2stim_asymm_v5,2020.2.10,MacIntel,60,61025ae37ef11b136ea224fe,,,,,,,,,3722,70.3125,-42.58984375,1,0,0,response3disk,,5,6.76171875,-21.54296875,1,0,0,rectangle,6.76171875,-21.54296875,1,0,0,6.76171875,-21.54296875,1,0,0,1,19,179,18,1,,,,,,,,
,,,,,,,,,,,,,FF,,,,,,,,0.430755,,,,,,,,,,,,,,,,,,,,,,61002f666835203714619c62,610378b7667d227694650990,2021-07-29_20h58.51.680,Simcolourproject_2stim_asymm_v5,2020.2.10,MacIntel,60,61025ae37ef11b136ea224fe,,,,,,,,,2872,51.45703125,-52.375,1,0,0,response3disk,,4,20.30859375,-4.02734375,1,0,0,rectangle,20.30859375,-4.02734375,1,0,0,20.30859375,-4.02734375,1,0,0,1,20,180,136,1,,,,,,,,
,,,,,,,,,,,,,FF,,,,,,,,0.634825,,,,,,,,,,,,,,,,,,,,,,61002f666835203714619c62,610378b7667d227694650990,2021-07-29_20h58.51.680,Simcolourproject_2stim_asymm_v5,2020.2.10,MacIntel,60,61025ae37ef11b136ea224fe,,,,,,,,,2931,69.94921875,81.91015625,1,0,0,response1disk,,7,36.05078125,5.9296875,1,0,0,rectangle,36.05078125,5.9296875,1,0,0,36.05078125,5.9296875,1,0,0,1,21,181,142,1,,,,,,,,
,,,,,,,,,,,,,FF,,,,,,,,1.73543,,,,,,,,,,,,,,,,,,,,,,61002f666835203714619c62,610378b7667d227694650990,2021-07-29_20h58.51.680,Simcolourproject_2stim_asymm_v5,2020.2.10,MacIntel,60,61025ae37ef11b136ea224fe,,,,,,,,,1145,-27.5546875,-84.3359375,1,0,0,response5disk,,3,21.8203125,-15.08203125,1,0,0,rectangle,21.8203125,-15.08203125,1,0,0,21.8203125,-15.08203125,1,0,0,1,22,182,17,1,,,,,,,,
,,,,,,,,,,,,,FF,,,,,,,,0.60867,,,,,,,,,,,,,,,,,,,,,,61002f666835203714619c62,610378b7667d227694650990,2021-07-29_20h58.51.680,Simcolourproject_2stim_asymm_v5,2020.2.10,MacIntel,60,61025ae37ef11b136ea224fe,,,,,,,,,1150,24.0625,-68.5859375,1,0,0,response3disk,,4,3.5703125,-19.1484375,1,0,0,rectangle,3.5703125,-19.1484375,1,0,0,3.5703125,-19.1484375,1,0,0,1,23,183,8,1,,,,,,,,
,,,,,,,,,,,,,FF,,,,,,,,0.650655,,,,,,,,,,,,,,,,,,,,,,61002f666835203714619c62,610378b7667d227694650990,2021-07-29_20h58.51.680,Simcolourproject_2stim_asymm_v5,2020.2.10,MacIntel,60,61025ae37ef11b136ea224fe,,,,,,,,,3859,-54.9765625,-49.734375,1,0,0,response5disk,,2,-18.9375,-8.53515625,1,0,0,rectangle,-18.9375,-8.53515625,1,0,0,-18.9375,-8.53515625,1,0,0,1,24,184,149,1,,,,,,,,
,,,,,,,,,,,,,FF,,,,,,,,0.8501,,,,,,,,,,,,,,,,,,,,,,61002f666835203714619c62,610378b7667d227694650990,2021-07-29_20h58.51.680,Simcolourproject_2stim_asymm_v5,2020.2.10,MacIntel,60,61025ae37ef11b136ea224fe,,,,,,,,,3906,-44.1875,53.109375,1,0,0,response7disk,,0,-32.921875,4.57421875,1,0,0,rectangle,-32.921875,4.57421875,1,0,0,-32.921875,4.57421875,1,0,0,1,25,185,143,1,,,,,,,,
,,,,,,,,,,,,,FF,,,,,,,,0.399675,,,,,,,,,,,,,,,,,,,,,,61002f666835203714619c62,610378b7667d227694650990,2021-07-29_20h58.51.680,Simcolourproject_2stim_asymm_v5,2020.2.10,MacIntel,60,61025ae37ef11b136ea224fe,,,,,,,,,3532,34.87890625,-75.7578125,1,0,0,response3disk,,4,-1.92578125,0.84375,1,0,0,rectangle,-1.92578125,0.84375,1,0,0,-1.92578125,0.84375,1,0,0,1,26,186,113,1,,,,,,,,
,,,,,,,,,,,,,FF,,,,,,,,1.08455,,,,,,,,,,,,,,,,,,,,,,61002f666835203714619c62,610378b7667d227694650990,2021-07-29_20h58.51.680,Simcolourproject_2stim_asymm_v5,2020.2.10,MacIntel,60,61025ae37ef11b136ea224fe,,,,,,,,,3022,80.12890625,-35.59765625,1,0,0,response3disk,,5,-7.859375,-3.86328125,1,0,0,rectangle,-7.859375,-3.86328125,1,0,0,-7.859375,-3.86328125,1,0,0,1,27,187,106,1,,,,,,,,
,,,,,,,,,,,,,FF,,,,,,,,1.25118,,,,,,,,,,,,,,,,,,,,,,61002f666835203714619c62,610378b7667d227694650990,2021-07-29_20h58.51.680,Simcolourproject_2stim_asymm_v5,2020.2.10,MacIntel,60,61025ae37ef11b136ea224fe,,,,,,,,,578,46.2578125,-73.1171875,1,0,0,response3disk,,4,-16.8515625,2.9375,1,0,0,rectangle,-16.8515625,2.9375,1,0,0,-16.8515625,2.9375,1,0,0,1,28,188,96,1,,,,,,,,
,,,,,,,,,,,,,FF,,,,,,,,0.916905,,,,,,,,,,,,,,,,,,,,,,61002f666835203714619c62,610378b7667d227694650990,2021-07-29_20h58.51.680,Simcolourproject_2stim_asymm_v5,2020.2.10,MacIntel,60,61025ae37ef11b136ea224fe,,,,,,,,,4304,52.47265625,70.8828125,1,0,0,response1disk,,7,35.640625,2.09375,1,0,0,rectangle,35.640625,2.09375,1,0,0,35.640625,2.09375,1,0,0,1,29,189,138,1,,,,,,,,
,,,,,,,,,,,,,FF,,,,,,,,0.684705,,,,,,,,,,,,,,,,,,,,,,61002f666835203714619c62,610378b7667d227694650990,2021-07-29_20h58.51.680,Simcolourproject_2stim_asymm_v5,2020.2.10,MacIntel,60,61025ae37ef11b136ea224fe,,,,,,,,,3382,-36.9609375,56.51171875,1,0,0,response7disk,,0,-20.61328125,-14.7890625,1,0,0,rectangle,-20.61328125,-14.7890625,1,0,0,-20.61328125,-14.7890625,1,0,0,1,30,190,44,1,,,,,,,,
,,,,,,,,,,,,,FF,,,,,,,,0.733315,,,,,,,,,,,,,,,,,,,,,,61002f666835203714619c62,610378b7667d227694650990,2021-07-29_20h58.51.680,Simcolourproject_2stim_asymm_v5,2020.2.10,MacIntel,60,61025ae37ef11b136ea224fe,,,,,,,,,1388,33.8046875,-62.84765625,1,0,0,response3disk,,4,-0.546875,0.515625,1,0,0,rectangle,-0.546875,0.515625,1,0,0,-0.546875,0.515625,1,0,0,1,31,191,57,1,,,,,,,,
,,,,,,,,,,,,,FF,,,,,,,,0.55045,,,,,,,,,,,,,,,,,,,,,,61002f666835203714619c62,610378b7667d227694650990,2021-07-29_20h58.51.680,Simcolourproject_2stim_asymm_v5,2020.2.10,MacIntel,60,61025ae37ef11b136ea224fe,,,,,,,,,2486,-32.625,-38.4921875,1,0,0,response5disk,,3,-8.84765625,4.81640625,1,0,0,rectangle,-8.84765625,4.81640625,1,0,0,-8.84765625,4.81640625,1,0,0,1,32,192,152,1,,,,,,,,
,,,,,,,,,,,,,FF,,,,,,,,0.600185,,,,,,,,,,,,,,,,,,,,,,61002f666835203714619c62,610378b7667d227694650990,2021-07-29_20h58.51.680,Simcolourproject_2stim_asymm_v5,2020.2.10,MacIntel,60,61025ae37ef11b136ea224fe,,,,,,,,,3279,84.40625,33.9609375,1,0,0,response1disk,,6,-11.71484375,0.6640625,1,0,0,rectangle,-11.71484375,0.6640625,1,0,0,-11.71484375,0.6640625,1,0,0,1,33,193,109,1,,,,,,,,
,,,,,,,,,,,,,FF,,,,,,,,0.65044,,,,,,,,,,,,,,,,,,,,,,61002f666835203714619c62,610378b7667d227694650990,2021-07-29_20h58.51.680,Simcolourproject_2stim_asymm_v5,2020.2.10,MacIntel,60,61025ae37ef11b136ea224fe,,,,,,,,,3983,32.234375,-73.19921875,1,0,0,response3disk,,4,-1.08203125,2.3828125,1,0,0,rectangle,-1.08203125,2.3828125,1,0,0,-1.08203125,2.3828125,1,0,0,1,34,194,38,1,,,,,,,,
,,,,,,,,,,,,,FF,,,,,,,,0.900485,,,,,,,,,,,,,,,,,,,,,,61002f666835203714619c62,610378b7667d227694650990,2021-07-29_20h58.51.680,Simcolourproject_2stim_asymm_v5,2020.2.10,MacIntel,60,61025ae37ef11b136ea224fe,,,,,,,,,2077,48.5,40.0546875,1,0,0,response1disk,,6,1.48046875,11.43359375,1,0,0,rectangle,1.48046875,11.43359375,1,0,0,1.48046875,11.43359375,1,0,0,1,35,195,102,1,,,,,,,,
,,,,,,,,,,,,,FF,,,,,,,,1.15065,,,,,,,,,,,,,,,,,,,,,,61002f666835203714619c62,610378b7667d227694650990,2021-07-29_20h58.51.680,Simcolourproject_2stim_asymm_v5,2020.2.10,MacIntel,60,61025ae37ef11b136ea224fe,,,,,,,,,1274,26.22265625,-64.84765625,1,0,0,response3disk,,4,4.44921875,5.89453125,1,0,0,rectangle,4.44921875,5.89453125,1,0,0,4.44921875,5.89453125,1,0,0,1,36,196,132,1,,,,,,,,
,,,,,,,,,,,,,FF,,,,,,,,0.76706,,,,,,,,,,,,,,,,,,,,,,61002f666835203714619c62,610378b7667d227694650990,2021-07-29_20h58.51.680,Simcolourproject_2stim_asymm_v5,2020.2.10,MacIntel,60,61025ae37ef11b136ea224fe,,,,,,,,,2398,64.05078125,28.28515625,1,0,0,response1disk,,6,20.484375,-8.1484375,1,0,0,rectangle,20.484375,-8.1484375,1,0,0,20.484375,-8.1484375,1,0,0,1,37,197,154,1,,,,,,,,
,,,,,,,,,,,,,FF,,,,,,,,0.76685,,,,,,,,,,,,,,,,,,,,,,61002f666835203714619c62,610378b7667d227694650990,2021-07-29_20h58.51.680,Simcolourproject_2stim_asymm_v5,2020.2.10,MacIntel,60,61025ae37ef11b136ea224fe,,,,,,,,,4229,48.11328125,27.625,1,0,0,response1disk,,6,18.60546875,-20.51171875,1,0,0,rectangle,-57.125,92.91015625,1,0,0,-16.17578125,15.7265625,1,0,0,1,38,198,9,1,,response7disk_3,TRUE,0,0,"[63,152,104,61,84,239,62,297,81,34,211,292,99,98,128,147,199,7,4,29]",1.284055,rectangle
,,,,,,,,,,,,,FF,,,,,,,,0.59194,,,,,,,,,,,,,,,,,,,,,,61002f666835203714619c62,610378b7667d227694650990,2021-07-29_20h58.51.680,Simcolourproject_2stim_asymm_v5,2020.2.10,MacIntel,60,61025ae37ef11b136ea224fe,,,,,,,,,4210,50.91796875,73.078125,1,0,0,response1disk,,7,27.015625,-4.05078125,1,0,0,rectangle,27.015625,-4.05078125,1,0,0,27.015625,-4.05078125,1,0,0,1,39,199,14,1,,,,,,,,
,,,,,,,,,,,,,FF,,,,,,,,0.834415,,,,,,,,,,,,,,,,,,,,,,61002f666835203714619c62,610378b7667d227694650990,2021-07-29_20h58.51.680,Simcolourproject_2stim_asymm_v5,2020.2.10,MacIntel,60,61025ae37ef11b136ea224fe,,,,,,,,,2263,-46.37109375,-59.2109375,1,0,0,response5disk,,3,-37.75390625,-1.6875,1,0,0,rectangle,-37.75390625,-1.6875,1,0,0,-37.75390625,-1.6875,1,0,0,1,40,200,23,1,,,,,,,,
,,,,,,,,,,,,,FF,,,,,,,,0.64855,,,,,,,,,,,,,,,,,,,,,,61002f666835203714619c62,610378b7667d227694650990,2021-07-29_20h58.51.680,Simcolourproject_2stim_asymm_v5,2020.2.10,MacIntel,60,61025ae37ef11b136ea224fe,,,,,,,,,3602,37.19140625,-45.625,1,0,0,response3disk,,4,8.140625,-1.52734375,1,0,0,rectangle,8.140625,-1.52734375,1,0,0,8.140625,-1.52734375,1,0,0,1,41,201,72,1,,,,,,,,
,,,,,,,,,,,,,FF,,,,,,,,0.700965,,,,,,,,,,,,,,,,,,,,,,61002f666835203714619c62,610378b7667d227694650990,2021-07-29_20h58.51.680,Simcolourproject_2stim_asymm_v5,2020.2.10,MacIntel,60,61025ae37ef11b136ea224fe,,,,,,,,,2783,-33.3515625,70.23046875,1,0,0,response7disk,,0,-15.92578125,-11.41796875,1,0,0,rectangle,-15.92578125,-11.41796875,1,0,0,-15.92578125,-11.41796875,1,0,0,1,42,202,120,1,,,,,,,,
,,,,,,,,,,,,,FF,,,,,,,,2.73726,,,,,,,,,,,,,,,,,,,,,,61002f666835203714619c62,610378b7667d227694650990,2021-07-29_20h58.51.680,Simcolourproject_2stim_asymm_v5,2020.2.10,MacIntel,60,61025ae37ef11b136ea224fe,,,,,,,,,1446,16.97265625,-58.27734375,1,0,0,response3disk,,4,-5.36328125,-7.12890625,1,0,0,rectangle,-5.36328125,-7.12890625,1,0,0,-5.36328125,-7.12890625,1,0,0,1,43,203,85,1,,,,,,,,
,,,,,,,,,,,,,FF,,,,,,,,0.85926,,,,,,,,,,,,,,,,,,,,,,61002f666835203714619c62,610378b7667d227694650990,2021-07-29_20h58.51.680,Simcolourproject_2stim_asymm_v5,2020.2.10,MacIntel,60,61025ae37ef11b136ea224fe,,,,,,,,,725,58.37109375,-29.97265625,1,0,0,response3disk,,5,-20.171875,0.05859375,1,0,0,rectangle,-20.171875,0.05859375,1,0,0,-20.171875,0.05859375,1,0,0,1,44,204,74,1,,,,,,,,
,,,,,,,,,,,,,FF,,,,,,,,0.69923,,,,,,,,,,,,,,,,,,,,,,61002f666835203714619c62,610378b7667d227694650990,2021-07-29_20h58.51.680,Simcolourproject_2stim_asymm_v5,2020.2.10,MacIntel,60,61025ae37ef11b136ea224fe,,,,,,,,,396,64.13671875,-20.85546875,1,0,0,response3disk,,5,-27.234375,7.05078125,1,0,0,rectangle,-27.234375,7.05078125,1,0,0,-27.234375,7.05078125,1,0,0,1,45,205,54,1,,,,,,,,
,,,,,,,,,,,,,FF,,,,,,,,1.40244,,,,,,,,,,,,,,,,,,,,,,61002f666835203714619c62,610378b7667d227694650990,2021-07-29_20h58.51.680,Simcolourproject_2stim_asymm_v5,2020.2.10,MacIntel,60,61025ae37ef11b136ea224fe,,,,,,,,,2439,59.58984375,25.51171875,1,0,0,response1disk,,6,-22.7265625,-0.21875,1,0,0,rectangle,-22.7265625,-0.21875,1,0,0,-22.7265625,-0.21875,1,0,0,1,46,206,64,1,,,,,,,,
,,,,,,,,,,,,,FF,,,,,,,,1.46786,,,,,,,,,,,,,,,,,,,,,,61002f666835203714619c62,610378b7667d227694650990,2021-07-29_20h58.51.680,Simcolourproject_2stim_asymm_v5,2020.2.10,MacIntel,60,61025ae37ef11b136ea224fe,,,,,,,,,1103,107.2382813,21.13671875,1,0,0,response1disk,,6,33.63671875,2.2890625,1,0,0,rectangle,33.63671875,2.2890625,1,0,0,33.63671875,2.2890625,1,0,0,1,47,207,110,1,,,,,,,,
,,,,,,,,,,,,,FF,,,,,,,,0.65067,,,,,,,,,,,,,,,,,,,,,,61002f666835203714619c62,610378b7667d227694650990,2021-07-29_20h58.51.680,Simcolourproject_2stim_asymm_v5,2020.2.10,MacIntel,60,61025ae37ef11b136ea224fe,,,,,,,,,2160,-45.93359375,57.16015625,1,0,0,response7disk,,0,-28.9765625,-11.5,1,0,0,rectangle,-28.9765625,-11.5,1,0,0,-28.9765625,-11.5,1,0,0,1,48,208,95,1,,,,,,,,
,,,,,,,,,,,,,FF,,,,,,,,0.877415,,,,,,,,,,,,,,,,,,,,,,61002f666835203714619c62,610378b7667d227694650990,2021-07-29_20h58.51.680,Simcolourproject_2stim_asymm_v5,2020.2.10,MacIntel,60,61025ae37ef11b136ea224fe,,,,,,,,,884,56.1953125,77.86328125,1,0,0,response1disk,,7,31.75390625,6.5,1,0,0,rectangle,31.75390625,6.5,1,0,0,31.75390625,6.5,1,0,0,1,49,209,131,1,,,,,,,,
,,,,,,,,,,,,,FF,,,,,,,,1.26828,,,,,,,,,,,,,,,,,,,,,,61002f666835203714619c62,610378b7667d227694650990,2021-07-29_20h58.51.680,Simcolourproject_2stim_asymm_v5,2020.2.10,MacIntel,60,61025ae37ef11b136ea224fe,,,,,,,,,1782,36.51953125,-60.41796875,1,0,0,response3disk,,4,-0.70703125,-11.70703125,1,0,0,rectangle,-64.7890625,43.54296875,1,0,0,-2.01171875,7.0078125,1,0,0,1,50,210,78,1,,response7disk_3,TRUE,1,1,"[63,152,104,61,84,239,62,297,81,34,211,292,99,98,128,147,199,7,4,29]",1.41724,rectangle
,,,,,,,,,,,,,FF,,,,,,,,1.01704,,,,,,,,,,,,,,,,,,,,,,61002f666835203714619c62,610378b7667d227694650990,2021-07-29_20h58.51.680,Simcolourproject_2stim_asymm_v5,2020.2.10,MacIntel,60,61025ae37ef11b136ea224fe,,,,,,,,,279,-74.41796875,-30.0859375,1,0,0,response5disk,,2,-41.0703125,-12.83203125,1,0,0,rectangle,-41.0703125,-12.83203125,1,0,0,-41.0703125,-12.83203125,1,0,0,1,51,211,60,1,,,,,,,,
,,,,,,,,,,,,,FF,,,,,,,,1.216365,,,,,,,,,,,,,,,,,,,,,,61002f666835203714619c62,610378b7667d227694650990,2021-07-29_20h58.51.680,Simcolourproject_2stim_asymm_v5,2020.2.10,MacIntel,60,61025ae37ef11b136ea224fe,,,,,,,,,3514,-36.1796875,-71.17578125,1,0,0,response5disk,,3,14.46875,-13.4375,1,0,0,rectangle,14.46875,-13.4375,1,0,0,14.46875,-13.4375,1,0,0,1,52,212,82,1,,,,,,,,
,,,,,,,,,,,,,FF,,,,,,,,0.742015,,,,,,,,,,,,,,,,,,,,,,61002f666835203714619c62,610378b7667d227694650990,2021-07-29_20h58.51.680,Simcolourproject_2stim_asymm_v5,2020.2.10,MacIntel,60,61025ae37ef11b136ea224fe,,,,,,,,,2019,75.7265625,-21.921875,1,0,0,response3disk,,5,31.26953125,15.79296875,1,0,0,rectangle,31.26953125,15.79296875,1,0,0,31.26953125,15.79296875,1,0,0,1,53,213,3,1,,,,,,,,
,,,,,,,,,,,,,FF,,,,,,,,0.95028,,,,,,,,,,,,,,,,,,,,,,61002f666835203714619c62,610378b7667d227694650990,2021-07-29_20h58.51.680,Simcolourproject_2stim_asymm_v5,2020.2.10,MacIntel,60,61025ae37ef11b136ea224fe,,,,,,,,,1055,27.9375,-50.13671875,1,0,0,response3disk,,4,-4.8359375,-11.90234375,1,0,0,rectangle,-4.8359375,-11.90234375,1,0,0,-4.8359375,-11.90234375,1,0,0,1,54,214,144,1,,,,,,,,
,,,,,,,,,,,,,FF,,,,,,,,0.699295,,,,,,,,,,,,,,,,,,,,,,61002f666835203714619c62,610378b7667d227694650990,2021-07-29_20h58.51.680,Simcolourproject_2stim_asymm_v5,2020.2.10,MacIntel,60,61025ae37ef11b136ea224fe,,,,,,,,,2940,-35.25,68.09375,1,0,0,response7disk,,0,7.18359375,-0.48046875,1,0,0,rectangle,7.18359375,-0.48046875,1,0,0,7.18359375,-0.48046875,1,0,0,1,55,215,20,1,,,,,,,,
,,,,,,,,,,,,,FF,,,,,,,,0.782665,,,,,,,,,,,,,,,,,,,,,,61002f666835203714619c62,610378b7667d227694650990,2021-07-29_20h58.51.680,Simcolourproject_2stim_asymm_v5,2020.2.10,MacIntel,60,61025ae37ef11b136ea224fe,,,,,,,,,4026,-40.63671875,-23.81640625,1,0,0,response5disk,,2,-13.5390625,7.65234375,1,0,0,rectangle,-13.5390625,7.65234375,1,0,0,-13.5390625,7.65234375,1,0,0,1,56,216,21,1,,,,,,,,
,,,,,,,,,,,,,FF,,,,,,,,0.868225,,,,,,,,,,,,,,,,,,,,,,61002f666835203714619c62,610378b7667d227694650990,2021-07-29_20h58.51.680,Simcolourproject_2stim_asymm_v5,2020.2.10,MacIntel,60,61025ae37ef11b136ea224fe,,,,,,,,,904,84.765625,45.69140625,1,0,0,response1disk,,6,19.921875,3.37890625,1,0,0,rectangle,19.921875,3.37890625,1,0,0,19.921875,3.37890625,1,0,0,1,57,217,87,1,,,,,,,,
,,,,,,,,,,,,,FF,,,,,,,,0.8174,,,,,,,,,,,,,,,,,,,,,,61002f666835203714619c62,610378b7667d227694650990,2021-07-29_20h58.51.680,Simcolourproject_2stim_asymm_v5,2020.2.10,MacIntel,60,61025ae37ef11b136ea224fe,,,,,,,,,1637,95.41015625,28.89453125,1,0,0,response1disk,,6,41.73828125,-1.8984375,1,0,0,rectangle,41.73828125,-1.8984375,1,0,0,41.73828125,-1.8984375,1,0,0,1,58,218,68,1,,,,,,,,
,,,,,,,,,,,,,FF,,,,,,,,1.133225,,,,,,,,,,,,,,,,,,,,,,61002f666835203714619c62,610378b7667d227694650990,2021-07-29_20h58.51.680,Simcolourproject_2stim_asymm_v5,2020.2.10,MacIntel,60,61025ae37ef11b136ea224fe,,,,,,,,,1456,-24.8203125,-68.40234375,1,0,0,response5disk,,3,-15.31640625,-12.7421875,1,0,0,rectangle,-15.31640625,-12.7421875,1,0,0,-15.31640625,-12.7421875,1,0,0,1,59,219,55,1,,,,,,,,
,,,,,,,,,,,,,FF,,,,,,,,0.866825,,,,,,,,,,,,,,,,,,,,,,61002f666835203714619c62,610378b7667d227694650990,2021-07-29_20h58.51.680,Simcolourproject_2stim_asymm_v5,2020.2.10,MacIntel,60,61025ae37ef11b136ea224fe,,,,,,,,,169,-53.46484375,23.34375,1,0,0,response7disk,,1,11.98046875,1.4453125,1,0,0,rectangle,11.98046875,1.4453125,1,0,0,11.98046875,1.4453125,1,0,0,1,60,220,4,1,,,,,,,,
,,,,,,,,,,,,,FF,,,,,,,,0.70084,,,,,,,,,,,,,,,,,,,,,,61002f666835203714619c62,610378b7667d227694650990,2021-07-29_20h58.51.680,Simcolourproject_2stim_asymm_v5,2020.2.10,MacIntel,60,61025ae37ef11b136ea224fe,,,,,,,,,765,62.3671875,-63.10546875,1,0,0,response3disk,,4,27.34375,2.6953125,1,0,0,rectangle,27.34375,2.6953125,1,0,0,27.34375,2.6953125,1,0,0,1,61,221,105,1,,,,,,,,
,,,,,,,,,,,,,FF,,,,,,,,1.301275,,,,,,,,,,,,,,,,,,,,,,61002f666835203714619c62,610378b7667d227694650990,2021-07-29_20h58.51.680,Simcolourproject_2stim_asymm_v5,2020.2.10,MacIntel,60,61025ae37ef11b136ea224fe,,,,,,,,,499,60.29296875,-28.57421875,1,0,0,response3disk,,5,30.61328125,-0.03125,1,0,0,rectangle,30.61328125,-0.03125,1,0,0,30.61328125,-0.03125,1,0,0,1,62,222,148,1,,,,,,,,
,,,,,,,,,,,,,FF,,,,,,,,0.70054,,,,,,,,,,,,,,,,,,,,,,61002f666835203714619c62,610378b7667d227694650990,2021-07-29_20h58.51.680,Simcolourproject_2stim_asymm_v5,2020.2.10,MacIntel,60,61025ae37ef11b136ea224fe,,,,,,,,,2353,46.3828125,86.2578125,1,0,0,response1disk,,7,26.30859375,-1.44921875,1,0,0,rectangle,26.30859375,-1.44921875,1,0,0,26.30859375,-1.44921875,1,0,0,1,63,223,59,1,,,,,,,,
,,,,,,,,,,,,,FF,,,,,,,,0.87513,,,,,,,,,,,,,,,,,,,,,,61002f666835203714619c62,610378b7667d227694650990,2021-07-29_20h58.51.680,Simcolourproject_2stim_asymm_v5,2020.2.10,MacIntel,60,61025ae37ef11b136ea224fe,,,,,,,,,551,58.1171875,-48.45703125,1,0,0,response3disk,,5,13.64453125,-5.14453125,1,0,0,rectangle,13.64453125,-5.14453125,1,0,0,13.64453125,-5.14453125,1,0,0,1,64,224,26,1,,,,,,,,
,,,,,,,,,,,,,FF,,,,,,,,0.770305,,,,,,,,,,,,,,,,,,,,,,61002f666835203714619c62,610378b7667d227694650990,2021-07-29_20h58.51.680,Simcolourproject_2stim_asymm_v5,2020.2.10,MacIntel,60,61025ae37ef11b136ea224fe,,,,,,,,,241,-16.41796875,-45.6484375,1,0,0,response5disk,,3,12.6640625,-6.65625,1,0,0,rectangle,12.6640625,-6.65625,1,0,0,12.6640625,-6.65625,1,0,0,1,65,225,37,1,,,,,,,,
,,,,,,,,,,,,,FF,,,,,,,,0.71813,,,,,,,,,,,,,,,,,,,,,,61002f666835203714619c62,610378b7667d227694650990,2021-07-29_20h58.51.680,Simcolourproject_2stim_asymm_v5,2020.2.10,MacIntel,60,61025ae37ef11b136ea224fe,,,,,,,,,958,-72.484375,20.015625,1,0,0,response7disk,,1,10.2109375,-13.625,1,0,0,rectangle,10.2109375,-13.625,1,0,0,10.2109375,-13.625,1,0,0,1,66,226,83,1,,,,,,,,
,,,,,,,,,,,,,FF,,,,,,,,0.684355,,,,,,,,,,,,,,,,,,,,,,61002f666835203714619c62,610378b7667d227694650990,2021-07-29_20h58.51.680,Simcolourproject_2stim_asymm_v5,2020.2.10,MacIntel,60,61025ae37ef11b136ea224fe,,,,,,,,,1024,41.62890625,-61.16015625,1,0,0,response3disk,,4,19.58203125,0.39453125,1,0,0,rectangle,19.58203125,0.39453125,1,0,0,19.58203125,0.39453125,1,0,0,1,67,227,71,1,,,,,,,,
,,,,,,,,,,,,,FF,,,,,,,,0.88387,,,,,,,,,,,,,,,,,,,,,,61002f666835203714619c62,610378b7667d227694650990,2021-07-29_20h58.51.680,Simcolourproject_2stim_asymm_v5,2020.2.10,MacIntel,60,61025ae37ef11b136ea224fe,,,,,,,,,3339,-42.671875,-68.59375,1,0,0,response5disk,,3,-17.328125,-5.359375,1,0,0,rectangle,-17.328125,-5.359375,1,0,0,-17.328125,-5.359375,1,0,0,1,68,228,129,1,,,,,,,,
,,,,,,,,,,,,,FF,,,,,,,,1.843885,,,,,,,,,,,,,,,,,,,,,,61002f666835203714619c62,610378b7667d227694650990,2021-07-29_20h58.51.680,Simcolourproject_2stim_asymm_v5,2020.2.10,MacIntel,60,61025ae37ef11b136ea224fe,,,,,,,,,3160,-60.6328125,-23.78515625,1,0,0,response5disk,,2,-47.17578125,-5.11328125,1,0,0,rectangle,-47.17578125,-5.11328125,1,0,0,-47.17578125,-5.11328125,1,0,0,1,69,229,111,1,,,,,,,,
,,,,,,,,,,,,,FF,,,,,,,,0.73512,,,,,,,,,,,,,,,,,,,,,,61002f666835203714619c62,610378b7667d227694650990,2021-07-29_20h58.51.680,Simcolourproject_2stim_asymm_v5,2020.2.10,MacIntel,60,61025ae37ef11b136ea224fe,,,,,,,,,2837,-68.1484375,-34.515625,1,0,0,response5disk,,2,-18.35546875,-3.82421875,1,0,0,rectangle,-18.35546875,-3.82421875,1,0,0,-18.35546875,-3.82421875,1,0,0,1,70,230,137,1,,,,,,,,
,,,,,,,,,,,,,FF,,,,,,,,0.78367,,,,,,,,,,,,,,,,,,,,,,61002f666835203714619c62,610378b7667d227694650990,2021-07-29_20h58.51.680,Simcolourproject_2stim_asymm_v5,2020.2.10,MacIntel,60,61025ae37ef11b136ea224fe,,,,,,,,,1993,76.44921875,-35.875,1,0,0,response3disk,,5,19.0625,0.9140625,1,0,0,rectangle,19.0625,0.9140625,1,0,0,19.0625,0.9140625,1,0,0,1,71,231,130,1,,,,,,,,
,,,,,,,,,,,,,FF,,,,,,,,0.666645,,,,,,,,,,,,,,,,,,,,,,61002f666835203714619c62,610378b7667d227694650990,2021-07-29_20h58.51.680,Simcolourproject_2stim_asymm_v5,2020.2.10,MacIntel,60,61025ae37ef11b136ea224fe,,,,,,,,,685,70.94921875,39.09765625,1,0,0,response1disk,,6,12.0546875,1.7421875,1,0,0,rectangle,12.0546875,1.7421875,1,0,0,12.0546875,1.7421875,1,0,0,1,72,232,141,1,,,,,,,,
,,,,,,,,,,,,,FF,,,,,,,,1.10138,,,,,,,,,,,,,,,,,,,,,,61002f666835203714619c62,610378b7667d227694650990,2021-07-29_20h58.51.680,Simcolourproject_2stim_asymm_v5,2020.2.10,MacIntel,60,61025ae37ef11b136ea224fe,,,,,,,,,336,32.12109375,-48.49609375,1,0,0,response3disk,,4,6.1484375,-6.0390625,1,0,0,rectangle,6.1484375,-6.0390625,1,0,0,6.1484375,-6.0390625,1,0,0,1,73,233,69,1,,,,,,,,
,,,,,,,,,,,,,FF,,,,,,,,0.683785,,,,,,,,,,,,,,,,,,,,,,61002f666835203714619c62,610378b7667d227694650990,2021-07-29_20h58.51.680,Simcolourproject_2stim_asymm_v5,2020.2.10,MacIntel,60,61025ae37ef11b136ea224fe,,,,,,,,,1179,41.38671875,90.6171875,1,0,0,response1disk,,7,38.13671875,12.91796875,1,0,0,rectangle,38.13671875,12.91796875,1,0,0,38.13671875,12.91796875,1,0,0,1,74,234,49,1,,,,,,,,
,,,,,,,,,,,,,FF,,,,,,,,0.741385,,,,,,,,,,,,,,,,,,,,,,61002f666835203714619c62,610378b7667d227694650990,2021-07-29_20h58.51.680,Simcolourproject_2stim_asymm_v5,2020.2.10,MacIntel,60,61025ae37ef11b136ea224fe,,,,,,,,,639,-65.74609375,-29.55859375,1,0,0,response5disk,,2,-35.76171875,-8.8671875,1,0,0,rectangle,-35.76171875,-8.8671875,1,0,0,-35.76171875,-8.8671875,1,0,0,1,75,235,32,1,,,,,,,,
,,,,,,,,,,,,,FF,,,,,,,,0.83154,,,,,,,,,,,,,,,,,,,,,,61002f666835203714619c62,610378b7667d227694650990,2021-07-29_20h58.51.680,Simcolourproject_2stim_asymm_v5,2020.2.10,MacIntel,60,61025ae37ef11b136ea224fe,,,,,,,,,2038,-71.5546875,-35.140625,1,0,0,response5disk,,2,-5.45703125,-1.51953125,1,0,0,rectangle,-5.45703125,-1.51953125,1,0,0,-5.45703125,-1.51953125,1,0,0,1,76,236,73,1,,,,,,,,
,,,,,,,,,,,,,FF,,,,,,,,0.83379,,,,,,,,,,,,,,,,,,,,,,61002f666835203714619c62,610378b7667d227694650990,2021-07-29_20h58.51.680,Simcolourproject_2stim_asymm_v5,2020.2.10,MacIntel,60,61025ae37ef11b136ea224fe,,,,,,,,,1796,83.2734375,-60.234375,1,0,0,response3disk,,5,1.84765625,-7.04296875,1,0,0,rectangle,1.84765625,-7.04296875,1,0,0,1.84765625,-7.04296875,1,0,0,1,77,237,22,1,,,,,,,,
,,,,,,,,,,,,,FF,,,,,,,,0.818335,,,,,,,,,,,,,,,,,,,,,,61002f666835203714619c62,610378b7667d227694650990,2021-07-29_20h58.51.680,Simcolourproject_2stim_asymm_v5,2020.2.10,MacIntel,60,61025ae37ef11b136ea224fe,,,,,,,,,3056,-36.26953125,-73.6796875,1,0,0,response5disk,,3,-17.3203125,-20.23046875,1,0,0,rectangle,28.76171875,104.5351563,1,0,0,-3.578125,1.6875,1,0,0,1,78,238,135,1,,response1disk_3,TRUE,7,7,"[63,152,104,61,84,239,62,297,81,34,211,292,99,98,128,147,199,7,4,29]",1.61807,rectangle
,,,,,,,,,,,,,FF,,,,,,,,0.81764,,,,,,,,,,,,,,,,,,,,,,61002f666835203714619c62,610378b7667d227694650990,2021-07-29_20h58.51.680,Simcolourproject_2stim_asymm_v5,2020.2.10,MacIntel,60,61025ae37ef11b136ea224fe,,,,,,,,,1027,-51.92578125,-38.25390625,1,0,0,response5disk,,2,22.20703125,-1.0703125,1,0,0,rectangle,22.20703125,-1.0703125,1,0,0,22.20703125,-1.0703125,1,0,0,1,79,239,93,1,,,,,,,,
,,,,,,,,,,,,,FF,,,,,,,,0.69144,,,,,,,,,,,,,,,,,,,,,,61002f666835203714619c62,610378b7667d227694650990,2021-07-29_20h58.51.680,Simcolourproject_2stim_asymm_v5,2020.2.10,MacIntel,60,61025ae37ef11b136ea224fe,,,,,,,,,4301,58.453125,-30.72265625,1,0,0,response3disk,,5,26.140625,-3.38671875,1,0,0,rectangle,26.140625,-3.38671875,1,0,0,26.140625,-3.38671875,1,0,0,1,80,240,84,1,,,,,,,,
,,,,,,,,,,,,,FF,,,,,,,,1.618955,,,,,,,,,,,,,,,,,,,,,,61002f666835203714619c62,610378b7667d227694650990,2021-07-29_20h58.51.680,Simcolourproject_2stim_asymm_v5,2020.2.10,MacIntel,60,61025ae37ef11b136ea224fe,,,,,,,,,1123,-83.9921875,-25.16015625,1,0,0,response5disk,,2,-37.34375,15.171875,1,0,0,rectangle,-37.34375,15.171875,1,0,0,-37.34375,15.171875,1,0,0,1,81,241,156,1,,,,,,,,
,,,,,,,,,,,,,FF,,,,,,,,0.7165,,,,,,,,,,,,,,,,,,,,,,61002f666835203714619c62,610378b7667d227694650990,2021-07-29_20h58.51.680,Simcolourproject_2stim_asymm_v5,2020.2.10,MacIntel,60,61025ae37ef11b136ea224fe,,,,,,,,,842,52.8125,-55.08203125,1,0,0,response3disk,,4,38.5390625,-16.71875,1,0,0,rectangle,38.5390625,-16.71875,1,0,0,38.5390625,-16.71875,1,0,0,1,82,242,28,1,,,,,,,,
,,,,,,,,,,,,,FF,,,,,,,,0.882945,,,,,,,,,,,,,,,,,,,,,,61002f666835203714619c62,610378b7667d227694650990,2021-07-29_20h58.51.680,Simcolourproject_2stim_asymm_v5,2020.2.10,MacIntel,60,61025ae37ef11b136ea224fe,,,,,,,,,2488,-79.9453125,-33.8828125,1,0,0,response5disk,,2,9.1640625,-4.2421875,1,0,0,rectangle,9.1640625,-4.2421875,1,0,0,9.1640625,-4.2421875,1,0,0,1,83,243,81,1,,,,,,,,
,,,,,,,,,,,,,FF,,,,,,,,0.733775,,,,,,,,,,,,,,,,,,,,,,61002f666835203714619c62,610378b7667d227694650990,2021-07-29_20h58.51.680,Simcolourproject_2stim_asymm_v5,2020.2.10,MacIntel,60,61025ae37ef11b136ea224fe,,,,,,,,,150,84.7890625,-39.8515625,1,0,0,response3disk,,5,19.17578125,5.66015625,1,0,0,rectangle,19.17578125,5.66015625,1,0,0,19.17578125,5.66015625,1,0,0,1,84,244,86,1,,,,,,,,
,,,,,,,,,,,,,FF,,,,,,,,0.82725,,,,,,,,,,,,,,,,,,,,,,61002f666835203714619c62,610378b7667d227694650990,2021-07-29_20h58.51.680,Simcolourproject_2stim_asymm_v5,2020.2.10,MacIntel,60,61025ae37ef11b136ea224fe,,,,,,,,,3311,-22.796875,-63.3828125,1,0,0,response5disk,,3,12.7265625,-9.95703125,1,0,0,rectangle,12.7265625,-9.95703125,1,0,0,12.7265625,-9.95703125,1,0,0,1,85,245,76,1,,,,,,,,
