key_resp.keys,key_resp.rt,key_resp_14.keys,key_resp_14.rt,key_resp_15.keys,key_resp_15.rt,key_resp_17.keys,key_resp_17.rt,key_resp_9.keys,key_resp_9.rt,key_resp_10.keys,key_resp_10.rt,practice_comparison,Ecc,mouse_5.x,mouse_5.y,mouse_5.leftButton,mouse_5.midButton,mouse_5.rightButton,mouse_5.clicked_name,pracsimilarity,response_time,mouse_10.x,mouse_10.y,mouse_10.leftButton,mouse_10.midButton,mouse_10.rightButton,mouse_10.clicked_name,mouse_7.x,mouse_7.y,mouse_7.leftButton,mouse_7.midButton,mouse_7.rightButton,mouse_6.x,mouse_6.y,mouse_6.leftButton,mouse_6.midButton,mouse_6.rightButton,duringprac.thisRepN,duringprac.thisTrialN,duringprac.thisN,duringprac.thisIndex,duringprac.ran,participant,session,date,expName,psychopyVersion,OS,frameRate,study_id,mouse_7.clicked_name,catchpracsimilarity,catch_response_time,catchnumberprac,catchtrialorderprac,mouse_6.clicked_name,key_resp_22.keys,key_resp_22.rt,realcomparison,mouse.x,mouse.y,mouse.leftButton,mouse.midButton,mouse.rightButton,mouse.clicked_name,Colour2,similarity,mouse_2.x,mouse_2.y,mouse_2.leftButton,mouse_2.midButton,mouse_2.rightButton,mouse_2.clicked_name,mouse_3.x,mouse_3.y,mouse_3.leftButton,mouse_3.midButton,mouse_3.rightButton,mouse_11.x,mouse_11.y,mouse_11.leftButton,mouse_11.midButton,mouse_11.rightButton,trials_2.thisRepN,trials_2.thisTrialN,trials_2.thisN,trials_2.thisIndex,trials_2.ran,Colour1,mouse_3.clicked_name,catchornah,catchsimilarity,catchnumber,catchtrialorder,catchRT,mouse_11.clicked_name
space,2.2975,space,5.1108,space,7.0276,space,3.3648,space,0.8625,space,3.5292,83,PF,92.00001281,-42.40000707,1,0,0,response3disk_5,5,10.8897,6.400011539,7.999993682,1,0,0,rectangle_8,6.400011539,7.999993682,1,0,0,6.400011539,7.999993682,1,0,0,0,0,0,4,1,6100eaa1c4af53132eaf57eb,61036dede8cc2214e6e7bf1b,2021-07-29_20h13.45.017,Simcolourproject_2stim_asymm_v5,2020.2.10,Win32,60,61025ae37ef11b136ea224fe,,,,,,,,,,,,,,,,,,,,,,,,,,,,,,,,,,,,,,,,,,,,,,
,,,,,,,,,,,,139,PF,49.60006101,-95.20000786,1,0,0,response3disk_5,4,2.431,12.00001162,6.399993658,1,0,0,rectangle_8,113.6000131,43.19996979,1,0,0,-4.799988627,-1.600006461,1,0,0,0,1,1,2,1,6100eaa1c4af53132eaf57eb,61036dede8cc2214e6e7bf1b,2021-07-29_20h13.45.017,Simcolourproject_2stim_asymm_v5,2020.2.10,Win32,60,61025ae37ef11b136ea224fe,response1disk_7,6,2.1949,6,"[2,5]",rectangle_4,,,,,,,,,,,,,,,,,,,,,,,,,,,,,,,,,,,,,,,,
,,,,,,,,,,,,13,PF,-55.19998938,-93.60005666,1,0,0,response5disk_5,3,4.9637,5.600060356,-4.800006509,1,0,0,rectangle_8,5.600060356,-4.800006509,1,0,0,5.600060356,-4.800006509,1,0,0,0,2,2,1,1,6100eaa1c4af53132eaf57eb,61036dede8cc2214e6e7bf1b,2021-07-29_20h13.45.017,Simcolourproject_2stim_asymm_v5,2020.2.10,Win32,60,61025ae37ef11b136ea224fe,,,,,,,,,,,,,,,,,,,,,,,,,,,,,,,,,,,,,,,,,,,,,,
,,,,,,,,,,,,43,FF,-78.3999409,42.39999419,1,0,0,response7disk_5,1,1.9129,23.20001179,-4.800006509,1,0,0,rectangle_8,23.20001179,-4.800006509,1,0,0,23.20001179,-4.800006509,1,0,0,0,3,3,3,1,6100eaa1c4af53132eaf57eb,61036dede8cc2214e6e7bf1b,2021-07-29_20h13.45.017,Simcolourproject_2stim_asymm_v5,2020.2.10,Win32,60,61025ae37ef11b136ea224fe,,,,,,,,,,,,,,,,,,,,,,,,,,,,,,,,,,,,,,,,,,,,,,
,,,,,,,,,,,,54,FF,49.60006101,96.79999501,1,0,0,response1disk_5,7,1.6149,-3.199988604,-6.4373E-06,1,0,0,rectangle_8,92.00001281,39.19996973,1,0,0,18.40001172,4.799993634,1,0,0,0,4,4,0,1,6100eaa1c4af53132eaf57eb,61036dede8cc2214e6e7bf1b,2021-07-29_20h13.45.017,Simcolourproject_2stim_asymm_v5,2020.2.10,Win32,60,61025ae37ef11b136ea224fe,response1disk_7,6,1.6652,6,"[2,5]",rectangle_4,,,,,,,,,,,,,,,,,,,,,,,,,,,,,,,,,,,,,,,,
,,,,,,,,,,,,153,FF,-115.9999903,37.59999412,1,0,0,response7disk_5,1,1.5746,2.40001148,-6.400006533,1,0,0,rectangle_8,2.40001148,-6.400006533,1,0,0,2.40001148,-6.400006533,1,0,0,0,5,5,5,1,6100eaa1c4af53132eaf57eb,61036dede8cc2214e6e7bf1b,2021-07-29_20h13.45.017,Simcolourproject_2stim_asymm_v5,2020.2.10,Win32,60,61025ae37ef11b136ea224fe,,,,,,,,,,,,,,,,,,,,,,,,,,,,,,,,,,,,,,,,,,,,,,
,,,,,,,,,,,,78,PF,56.00001228,-104.800008,1,0,0,response3disk_5,4,2.1526,0.800011456,-3.200006485,1,0,0,rectangle_8,0.800011456,-3.200006485,1,0,0,0.800011456,-3.200006485,1,0,0,0,6,6,6,1,6100eaa1c4af53132eaf57eb,61036dede8cc2214e6e7bf1b,2021-07-29_20h13.45.017,Simcolourproject_2stim_asymm_v5,2020.2.10,Win32,60,61025ae37ef11b136ea224fe,,,,,,,,,,,,,,,,,,,,,,,,,,,,,,,,,,,,,,,,,,,,,,
,,,,,,,,,,,,,FF,,,,,,,,2.4829,,,,,,,,,,,,,,,,,,,,,,6100eaa1c4af53132eaf57eb,61036dede8cc2214e6e7bf1b,2021-07-29_20h13.45.017,Simcolourproject_2stim_asymm_v5,2020.2.10,Win32,60,61025ae37ef11b136ea224fe,,,,,,,space,2.2203,1360,55.20001227,-87.20000774,1,0,0,response3disk,,4,-5.599988639,4.799993634,1,0,0,rectangle,-5.599988639,4.799993634,1,0,0,-5.599988639,4.799993634,1,0,0,0,0,0,69,1,,,,,,,,
,,,,,,,,,,,,,FF,,,,,,,,1.8325,,,,,,,,,,,,,,,,,,,,,,6100eaa1c4af53132eaf57eb,61036dede8cc2214e6e7bf1b,2021-07-29_20h13.45.017,Simcolourproject_2stim_asymm_v5,2020.2.10,Win32,60,61025ae37ef11b136ea224fe,,,,,,,,,1847,64.80001241,-120.8000082,1,0,0,response3disk,,4,4.000011504,2.399993598,1,0,0,rectangle,4.000011504,2.399993598,1,0,0,4.000011504,2.399993598,1,0,0,0,1,1,129,1,,,,,,,,
,,,,,,,,,,,,,FF,,,,,,,,1.4494,,,,,,,,,,,,,,,,,,,,,,6100eaa1c4af53132eaf57eb,61036dede8cc2214e6e7bf1b,2021-07-29_20h13.45.017,Simcolourproject_2stim_asymm_v5,2020.2.10,Win32,60,61025ae37ef11b136ea224fe,,,,,,,,,753,88.00001276,35.9999941,1,0,0,response1disk,,6,-7.999988675,-2.400006473,1,0,0,rectangle,-7.999988675,-2.400006473,1,0,0,-7.999988675,-2.400006473,1,0,0,0,2,2,149,1,,,,,,,,
,,,,,,,,,,,,,FF,,,,,,,,5.4876,,,,,,,,,,,,,,,,,,,,,,6100eaa1c4af53132eaf57eb,61036dede8cc2214e6e7bf1b,2021-07-29_20h13.45.017,Simcolourproject_2stim_asymm_v5,2020.2.10,Win32,60,61025ae37ef11b136ea224fe,,,,,,,,,439,-92.79998994,-34.40000695,1,0,0,response5disk,,2,-11.19998872,-4.800006509,1,0,0,rectangle,-11.19998872,-4.800006509,1,0,0,-11.19998872,-4.800006509,1,0,0,0,3,3,123,1,,,,,,,,
,,,,,,,,,,,,,FF,,,,,,,,0.9818,,,,,,,,,,,,,,,,,,,,,,6100eaa1c4af53132eaf57eb,61036dede8cc2214e6e7bf1b,2021-07-29_20h13.45.017,Simcolourproject_2stim_asymm_v5,2020.2.10,Win32,60,61025ae37ef11b136ea224fe,,,,,,,,,3340,-79.99998975,40.79999417,1,0,0,response7disk,,1,1.600060296,-2.400006473,1,0,0,rectangle,1.600060296,-2.400006473,1,0,0,1.600060296,-2.400006473,1,0,0,0,4,4,33,1,,,,,,,,
,,,,,,,,,,,,,FF,,,,,,,,0.9835,,,,,,,,,,,,,,,,,,,,,,6100eaa1c4af53132eaf57eb,61036dede8cc2214e6e7bf1b,2021-07-29_20h13.45.017,Simcolourproject_2stim_asymm_v5,2020.2.10,Win32,60,61025ae37ef11b136ea224fe,,,,,,,,,665,-47.99998927,-114.4000081,1,0,0,response5disk,,3,2.40001148,-3.200006485,1,0,0,rectangle,2.40001148,-3.200006485,1,0,0,2.40001148,-3.200006485,1,0,0,0,5,5,15,1,,,,,,,,
,,,,,,,,,,,,,FF,,,,,,,,1.0816,,,,,,,,,,,,,,,,,,,,,,6100eaa1c4af53132eaf57eb,61036dede8cc2214e6e7bf1b,2021-07-29_20h13.45.017,Simcolourproject_2stim_asymm_v5,2020.2.10,Win32,60,61025ae37ef11b136ea224fe,,,,,,,,,601,47.20001215,-98.4000079,1,0,0,response3disk,,4,3.200011492,-3.200006485,1,0,0,rectangle,44.80001211,-99.20000792,1,0,0,-2.399939764,5.599993646,1,0,0,0,6,6,55,1,,response3disk_3,TRUE,4,4,"[66,65,124,268,150,305,88,46,7,70,91,317,197,238,105,33,36,126,293,156]",2.5012,rectangle
,,,,,,,,,,,,,FF,,,,,,,,2.2149,,,,,,,,,,,,,,,,,,,,,,6100eaa1c4af53132eaf57eb,61036dede8cc2214e6e7bf1b,2021-07-29_20h13.45.017,Simcolourproject_2stim_asymm_v5,2020.2.10,Win32,60,61025ae37ef11b136ea224fe,,,,,,,,,3367,100.8000129,34.39999408,1,0,0,response1disk,,6,-9.599988699,-7.200006545,1,0,0,rectangle,-9.599988699,-7.200006545,1,0,0,-9.599988699,-7.200006545,1,0,0,0,7,7,132,1,,,,,,,,
,,,,,,,,,,,,,FF,,,,,,,,1.8153,,,,,,,,,,,,,,,,,,,,,,6100eaa1c4af53132eaf57eb,61036dede8cc2214e6e7bf1b,2021-07-29_20h13.45.017,Simcolourproject_2stim_asymm_v5,2020.2.10,Win32,60,61025ae37ef11b136ea224fe,,,,,,,,,1274,-39.19998914,-90.40000778,1,0,0,response5disk,,3,2.40001148,11.99999374,1,0,0,rectangle,2.40001148,11.99999374,1,0,0,2.40001148,11.99999374,1,0,0,0,8,8,83,1,,,,,,,,
,,,,,,,,,,,,,FF,,,,,,,,0.7503,,,,,,,,,,,,,,,,,,,,,,6100eaa1c4af53132eaf57eb,61036dede8cc2214e6e7bf1b,2021-07-29_20h13.45.017,Simcolourproject_2stim_asymm_v5,2020.2.10,Win32,60,61025ae37ef11b136ea224fe,,,,,,,,,3744,-99.99999005,37.59999412,1,0,0,response7disk,,1,12.80001163,2.399993598,1,0,0,rectangle,12.80001163,2.399993598,1,0,0,12.80001163,2.399993598,1,0,0,0,9,9,144,1,,,,,,,,
,,,,,,,,,,,,,FF,,,,,,,,1.1321,,,,,,,,,,,,,,,,,,,,,,6100eaa1c4af53132eaf57eb,61036dede8cc2214e6e7bf1b,2021-07-29_20h13.45.017,Simcolourproject_2stim_asymm_v5,2020.2.10,Win32,60,61025ae37ef11b136ea224fe,,,,,,,,,4065,90.40001279,-40.80000705,1,0,0,response3disk,,5,9.600060415,1.599993587,1,0,0,rectangle,9.600060415,1.599993587,1,0,0,9.600060415,1.599993587,1,0,0,0,10,10,128,1,,,,,,,,
,,,,,,,,,,,,,FF,,,,,,,,0.8323,,,,,,,,,,,,,,,,,,,,,,6100eaa1c4af53132eaf57eb,61036dede8cc2214e6e7bf1b,2021-07-29_20h13.45.017,Simcolourproject_2stim_asymm_v5,2020.2.10,Win32,60,61025ae37ef11b136ea224fe,,,,,,,,,1525,-103.9999901,39.19996973,1,0,0,response7disk,,1,-5.599988639,-5.600006521,1,0,0,rectangle,-5.599988639,-5.600006521,1,0,0,-5.599988639,-5.600006521,1,0,0,0,11,11,11,1,,,,,,,,
,,,,,,,,,,,,,FF,,,,,,,,0.8187,,,,,,,,,,,,,,,,,,,,,,6100eaa1c4af53132eaf57eb,61036dede8cc2214e6e7bf1b,2021-07-29_20h13.45.017,Simcolourproject_2stim_asymm_v5,2020.2.10,Win32,60,61025ae37ef11b136ea224fe,,,,,,,,,2165,-98.39994119,42.39999419,1,0,0,response7disk,,1,9.600060415,-1.600006461,1,0,0,rectangle,9.600060415,-1.600006461,1,0,0,9.600060415,-1.600006461,1,0,0,0,12,12,127,1,,,,,,,,
,,,,,,,,,,,,,FF,,,,,,,,1.6903,,,,,,,,,,,,,,,,,,,,,,6100eaa1c4af53132eaf57eb,61036dede8cc2214e6e7bf1b,2021-07-29_20h13.45.017,Simcolourproject_2stim_asymm_v5,2020.2.10,Win32,60,61025ae37ef11b136ea224fe,,,,,,,,,1691,-86.39994102,-40.00000703,1,0,0,response5disk,,2,0.800011456,6.399993658,1,0,0,rectangle,0.800011456,6.399993658,1,0,0,0.800011456,6.399993658,1,0,0,0,13,13,104,1,,,,,,,,
,,,,,,,,,,,,,FF,,,,,,,,1.035,,,,,,,,,,,,,,,,,,,,,,6100eaa1c4af53132eaf57eb,61036dede8cc2214e6e7bf1b,2021-07-29_20h13.45.017,Simcolourproject_2stim_asymm_v5,2020.2.10,Win32,60,61025ae37ef11b136ea224fe,,,,,,,,,1859,-37.59998912,-92.00000781,1,0,0,response5disk,,3,-2.399939764,3.999993622,1,0,0,rectangle,-2.399939764,3.999993622,1,0,0,-2.399939764,3.999993622,1,0,0,0,14,14,6,1,,,,,,,,
,,,,,,,,,,,,,FF,,,,,,,,1.0324,,,,,,,,,,,,,,,,,,,,,,6100eaa1c4af53132eaf57eb,61036dede8cc2214e6e7bf1b,2021-07-29_20h13.45.017,Simcolourproject_2stim_asymm_v5,2020.2.10,Win32,60,61025ae37ef11b136ea224fe,,,,,,,,,3362,55.20001227,-96.00000787,1,0,0,response3disk,,4,-6.399939823,12.79999375,1,0,0,rectangle,-6.399939823,12.79999375,1,0,0,-6.399939823,12.79999375,1,0,0,0,15,15,136,1,,,,,,,,
,,,,,,,,,,,,,FF,,,,,,,,1.0993,,,,,,,,,,,,,,,,,,,,,,6100eaa1c4af53132eaf57eb,61036dede8cc2214e6e7bf1b,2021-07-29_20h13.45.017,Simcolourproject_2stim_asymm_v5,2020.2.10,Win32,60,61025ae37ef11b136ea224fe,,,,,,,,,3694,51.20001221,-91.2000078,1,0,0,response3disk,,4,-3.199988604,-2.400006473,1,0,0,rectangle,-3.199988604,-2.400006473,1,0,0,-3.199988604,-2.400006473,1,0,0,0,16,16,75,1,,,,,,,,
,,,,,,,,,,,,,FF,,,,,,,,0.8177,,,,,,,,,,,,,,,,,,,,,,6100eaa1c4af53132eaf57eb,61036dede8cc2214e6e7bf1b,2021-07-29_20h13.45.017,Simcolourproject_2stim_asymm_v5,2020.2.10,Win32,60,61025ae37ef11b136ea224fe,,,,,,,,,2748,61.60001236,-120.8000082,1,0,0,response3disk,,4,-11.99998873,-4.800006509,1,0,0,rectangle,-11.99998873,-4.800006509,1,0,0,-11.99998873,-4.800006509,1,0,0,0,17,17,92,1,,,,,,,,
,,,,,,,,,,,,,FF,,,,,,,,1.3006,,,,,,,,,,,,,,,,,,,,,,6100eaa1c4af53132eaf57eb,61036dede8cc2214e6e7bf1b,2021-07-29_20h13.45.017,Simcolourproject_2stim_asymm_v5,2020.2.10,Win32,60,61025ae37ef11b136ea224fe,,,,,,,,,196,-43.99998921,-104.000008,1,0,0,response5disk,,3,-17.59998882,-2.400006473,1,0,0,rectangle,-17.59998882,-2.400006473,1,0,0,-17.59998882,-2.400006473,1,0,0,0,18,18,158,1,,,,,,,,
,,,,,,,,,,,,,FF,,,,,,,,0.8315,,,,,,,,,,,,,,,,,,,,,,6100eaa1c4af53132eaf57eb,61036dede8cc2214e6e7bf1b,2021-07-29_20h13.45.017,Simcolourproject_2stim_asymm_v5,2020.2.10,Win32,60,61025ae37ef11b136ea224fe,,,,,,,,,3943,-95.99998999,45.59999424,1,0,0,response7disk,,1,4.000011504,0.799993575,1,0,0,rectangle,4.000011504,0.799993575,1,0,0,4.000011504,0.799993575,1,0,0,0,19,19,90,1,,,,,,,,
,,,,,,,,,,,,,FF,,,,,,,,1.3246,,,,,,,,,,,,,,,,,,,,,,6100eaa1c4af53132eaf57eb,61036dede8cc2214e6e7bf1b,2021-07-29_20h13.45.017,Simcolourproject_2stim_asymm_v5,2020.2.10,Win32,60,61025ae37ef11b136ea224fe,,,,,,,,,3509,88.80001277,-48.80000716,1,0,0,response3disk,,5,-7.999988675,11.99999374,1,0,0,rectangle,-7.999988675,11.99999374,1,0,0,-7.999988675,11.99999374,1,0,0,0,20,20,80,1,,,,,,,,
,,,,,,,,,,,,,FF,,,,,,,,0.95,,,,,,,,,,,,,,,,,,,,,,6100eaa1c4af53132eaf57eb,61036dede8cc2214e6e7bf1b,2021-07-29_20h13.45.017,Simcolourproject_2stim_asymm_v5,2020.2.10,Win32,60,61025ae37ef11b136ea224fe,,,,,,,,,2586,56.80001229,-116.8000082,1,0,0,response3disk,,4,-6.399939823,-1.600006461,1,0,0,rectangle,-6.399939823,-1.600006461,1,0,0,-6.399939823,-1.600006461,1,0,0,0,21,21,145,1,,,,,,,,
,,,,,,,,,,,,,FF,,,,,,,,0.7644,,,,,,,,,,,,,,,,,,,,,,6100eaa1c4af53132eaf57eb,61036dede8cc2214e6e7bf1b,2021-07-29_20h13.45.017,Simcolourproject_2stim_asymm_v5,2020.2.10,Win32,60,61025ae37ef11b136ea224fe,,,,,,,,,4051,-93.59998995,-40.00000703,1,0,0,response5disk,,2,10.4000116,-0.800006449,1,0,0,rectangle,10.4000116,-0.800006449,1,0,0,10.4000116,-0.800006449,1,0,0,0,22,22,61,1,,,,,,,,
,,,,,,,,,,,,,FF,,,,,,,,0.8851,,,,,,,,,,,,,,,,,,,,,,6100eaa1c4af53132eaf57eb,61036dede8cc2214e6e7bf1b,2021-07-29_20h13.45.017,Simcolourproject_2stim_asymm_v5,2020.2.10,Win32,60,61025ae37ef11b136ea224fe,,,,,,,,,2009,28.80001187,-105.6000568,1,0,0,response3disk,,4,-10.39993988,-3.200006485,1,0,0,rectangle,-10.39993988,-3.200006485,1,0,0,-10.39993988,-3.200006485,1,0,0,0,23,23,68,1,,,,,,,,
,,,,,,,,,,,,,FF,,,,,,,,1.1661,,,,,,,,,,,,,,,,,,,,,,6100eaa1c4af53132eaf57eb,61036dede8cc2214e6e7bf1b,2021-07-29_20h13.45.017,Simcolourproject_2stim_asymm_v5,2020.2.10,Win32,60,61025ae37ef11b136ea224fe,,,,,,,,,193,-93.59998995,-39.20000702,1,0,0,response5disk,,2,-18.39994,-4.000006497,1,0,0,rectangle,-18.39994,-4.000006497,1,0,0,-18.39994,-4.000006497,1,0,0,0,24,24,79,1,,,,,,,,
,,,,,,,,,,,,,FF,,,,,,,,1.7314,,,,,,,,,,,,,,,,,,,,,,6100eaa1c4af53132eaf57eb,61036dede8cc2214e6e7bf1b,2021-07-29_20h13.45.017,Simcolourproject_2stim_asymm_v5,2020.2.10,Win32,60,61025ae37ef11b136ea224fe,,,,,,,,,1501,41.60006089,-106.400008,1,0,0,response3disk,,4,-6.399939823,-14.40000665,1,0,0,rectangle,-6.399939823,-14.40000665,1,0,0,-6.399939823,-14.40000665,1,0,0,0,25,25,13,1,,,,,,,,
,,,,,,,,,,,,,FF,,,,,,,,0.886,,,,,,,,,,,,,,,,,,,,,,6100eaa1c4af53132eaf57eb,61036dede8cc2214e6e7bf1b,2021-07-29_20h13.45.017,Simcolourproject_2stim_asymm_v5,2020.2.10,Win32,60,61025ae37ef11b136ea224fe,,,,,,,,,1247,-67.99998957,-92.00000781,1,0,0,response5disk,,3,2.40001148,-2.400006473,1,0,0,rectangle,2.40001148,-2.400006473,1,0,0,2.40001148,-2.400006473,1,0,0,0,26,26,3,1,,,,,,,,
,,,,,,,,,,,,,FF,,,,,,,,0.7194,,,,,,,,,,,,,,,,,,,,,,6100eaa1c4af53132eaf57eb,61036dede8cc2214e6e7bf1b,2021-07-29_20h13.45.017,Simcolourproject_2stim_asymm_v5,2020.2.10,Win32,60,61025ae37ef11b136ea224fe,,,,,,,,,4187,-95.99998999,38.39999413,1,0,0,response7disk,,1,1.14441E-05,3.19999361,1,0,0,rectangle,1.14441E-05,3.19999361,1,0,0,1.14441E-05,3.19999361,1,0,0,0,27,27,1,1,,,,,,,,
,,,,,,,,,,,,,FF,,,,,,,,1.8163,,,,,,,,,,,,,,,,,,,,,,6100eaa1c4af53132eaf57eb,61036dede8cc2214e6e7bf1b,2021-07-29_20h13.45.017,Simcolourproject_2stim_asymm_v5,2020.2.10,Win32,60,61025ae37ef11b136ea224fe,,,,,,,,,1561,44.80001211,-98.4000079,1,0,0,response3disk,,4,4.000011504,-12.00000662,1,0,0,rectangle,4.000011504,-12.00000662,1,0,0,4.000011504,-12.00000662,1,0,0,0,28,28,46,1,,,,,,,,
,,,,,,,,,,,,,FF,,,,,,,,0.7337,,,,,,,,,,,,,,,,,,,,,,6100eaa1c4af53132eaf57eb,61036dede8cc2214e6e7bf1b,2021-07-29_20h13.45.017,Simcolourproject_2stim_asymm_v5,2020.2.10,Win32,60,61025ae37ef11b136ea224fe,,,,,,,,,616,-112.7999902,30.39999402,1,0,0,response7disk,,1,-6.399939823,-6.4373E-06,1,0,0,rectangle,-6.399939823,-6.4373E-06,1,0,0,-6.399939823,-6.4373E-06,1,0,0,0,29,29,37,1,,,,,,,,
,,,,,,,,,,,,,FF,,,,,,,,0.7015,,,,,,,,,,,,,,,,,,,,,,6100eaa1c4af53132eaf57eb,61036dede8cc2214e6e7bf1b,2021-07-29_20h13.45.017,Simcolourproject_2stim_asymm_v5,2020.2.10,Win32,60,61025ae37ef11b136ea224fe,,,,,,,,,1116,-87.19998986,-48.80000716,1,0,0,response5disk,,2,2.40001148,6.399993658,1,0,0,rectangle,2.40001148,6.399993658,1,0,0,2.40001148,6.399993658,1,0,0,0,30,30,130,1,,,,,,,,
,,,,,,,,,,,,,FF,,,,,,,,0.7674,,,,,,,,,,,,,,,,,,,,,,6100eaa1c4af53132eaf57eb,61036dede8cc2214e6e7bf1b,2021-07-29_20h13.45.017,Simcolourproject_2stim_asymm_v5,2020.2.10,Win32,60,61025ae37ef11b136ea224fe,,,,,,,,,167,-90.39994107,-45.60000712,1,0,0,response5disk,,2,-10.39993988,3.19999361,1,0,0,rectangle,-10.39993988,3.19999361,1,0,0,-10.39993988,3.19999361,1,0,0,0,31,31,156,1,,,,,,,,
,,,,,,,,,,,,,FF,,,,,,,,1.025,,,,,,,,,,,,,,,,,,,,,,6100eaa1c4af53132eaf57eb,61036dede8cc2214e6e7bf1b,2021-07-29_20h13.45.017,Simcolourproject_2stim_asymm_v5,2020.2.10,Win32,60,61025ae37ef11b136ea224fe,,,,,,,,,2716,-67.99998957,-95.20000786,1,0,0,response5disk,,3,8.000011563,-6.4373E-06,1,0,0,rectangle,44.0000121,83.99999481,1,0,0,-7.999988675,-11.2000066,1,0,0,0,32,32,154,1,,response1disk_3,TRUE,7,7,"[66,65,124,268,150,305,88,46,7,70,91,317,197,238,105,33,36,126,293,156]",1.4162,rectangle
,,,,,,,,,,,,,FF,,,,,,,,0.9656,,,,,,,,,,,,,,,,,,,,,,6100eaa1c4af53132eaf57eb,61036dede8cc2214e6e7bf1b,2021-07-29_20h13.45.017,Simcolourproject_2stim_asymm_v5,2020.2.10,Win32,60,61025ae37ef11b136ea224fe,,,,,,,,,1109,-35.99998909,-86.40000772,1,0,0,response5disk,,3,4.800011516,7.19999367,1,0,0,rectangle,4.800011516,7.19999367,1,0,0,4.800011516,7.19999367,1,0,0,0,33,33,36,1,,,,,,,,
,,,,,,,,,,,,,FF,,,,,,,,4.832,,,,,,,,,,,,,,,,,,,,,,6100eaa1c4af53132eaf57eb,61036dede8cc2214e6e7bf1b,2021-07-29_20h13.45.017,Simcolourproject_2stim_asymm_v5,2020.2.10,Win32,60,61025ae37ef11b136ea224fe,,,,,,,,,1455,-59.99998945,-87.20000774,1,0,0,response5disk,,3,4.000011504,-6.4373E-06,1,0,0,rectangle,4.000011504,-6.4373E-06,1,0,0,4.000011504,-6.4373E-06,1,0,0,0,34,34,146,1,,,,,,,,
,,,,,,,,,,,,,FF,,,,,,,,0.7692,,,,,,,,,,,,,,,,,,,,,,6100eaa1c4af53132eaf57eb,61036dede8cc2214e6e7bf1b,2021-07-29_20h13.45.017,Simcolourproject_2stim_asymm_v5,2020.2.10,Win32,60,61025ae37ef11b136ea224fe,,,,,,,,,1649,-105.5999901,-41.60000706,1,0,0,response5disk,,2,-14.39993994,3.19999361,1,0,0,rectangle,-111.1999902,51.19996991,1,0,0,3.200011492,-6.4373E-06,1,0,0,0,35,35,78,1,,response7disk_3,TRUE,1,1,"[66,65,124,268,150,305,88,46,7,70,91,317,197,238,105,33,36,126,293,156]",1.3001,rectangle
,,,,,,,,,,,,,FF,,,,,,,,0.9851,,,,,,,,,,,,,,,,,,,,,,6100eaa1c4af53132eaf57eb,61036dede8cc2214e6e7bf1b,2021-07-29_20h13.45.017,Simcolourproject_2stim_asymm_v5,2020.2.10,Win32,60,61025ae37ef11b136ea224fe,,,,,,,,,2487,-102.3999413,-42.40000707,1,0,0,response5disk,,2,-9.599988699,-3.200006485,1,0,0,rectangle,-9.599988699,-3.200006485,1,0,0,-9.599988699,-3.200006485,1,0,0,0,36,36,8,1,,,,,,,,
,,,,,,,,,,,,,FF,,,,,,,,0.8136,,,,,,,,,,,,,,,,,,,,,,6100eaa1c4af53132eaf57eb,61036dede8cc2214e6e7bf1b,2021-07-29_20h13.45.017,Simcolourproject_2stim_asymm_v5,2020.2.10,Win32,60,61025ae37ef11b136ea224fe,,,,,,,,,2078,-43.99998921,-108.8000081,1,0,0,response5disk,,3,-6.399939823,3.999993622,1,0,0,rectangle,-6.399939823,3.999993622,1,0,0,-6.399939823,3.999993622,1,0,0,0,37,37,94,1,,,,,,,,
,,,,,,,,,,,,,FF,,,,,,,,1.2834,,,,,,,,,,,,,,,,,,,,,,6100eaa1c4af53132eaf57eb,61036dede8cc2214e6e7bf1b,2021-07-29_20h13.45.017,Simcolourproject_2stim_asymm_v5,2020.2.10,Win32,60,61025ae37ef11b136ea224fe,,,,,,,,,679,-87.19998986,-45.60000712,1,0,0,response5disk,,2,12.00001162,10.39999372,1,0,0,rectangle,12.00001162,10.39999372,1,0,0,12.00001162,10.39999372,1,0,0,0,38,38,70,1,,,,,,,,
,,,,,,,,,,,,,FF,,,,,,,,0.9359,,,,,,,,,,,,,,,,,,,,,,6100eaa1c4af53132eaf57eb,61036dede8cc2214e6e7bf1b,2021-07-29_20h13.45.017,Simcolourproject_2stim_asymm_v5,2020.2.10,Win32,60,61025ae37ef11b136ea224fe,,,,,,,,,465,33.60006077,-88.00000775,1,0,0,response3disk,,4,-4.799988627,-5.600006521,1,0,0,rectangle,-4.799988627,-5.600006521,1,0,0,-4.799988627,-5.600006521,1,0,0,0,39,39,151,1,,,,,,,,
,,,,,,,,,,,,,FF,,,,,,,,0.9156,,,,,,,,,,,,,,,,,,,,,,6100eaa1c4af53132eaf57eb,61036dede8cc2214e6e7bf1b,2021-07-29_20h13.45.017,Simcolourproject_2stim_asymm_v5,2020.2.10,Win32,60,61025ae37ef11b136ea224fe,,,,,,,,,536,116.8000132,-27.20000684,1,0,0,response3disk,,5,-12.79998875,2.399993598,1,0,0,rectangle,-12.79998875,2.399993598,1,0,0,-12.79998875,2.399993598,1,0,0,0,40,40,23,1,,,,,,,,
,,,,,,,,,,,,,FF,,,,,,,,0.7818,,,,,,,,,,,,,,,,,,,,,,6100eaa1c4af53132eaf57eb,61036dede8cc2214e6e7bf1b,2021-07-29_20h13.45.017,Simcolourproject_2stim_asymm_v5,2020.2.10,Win32,60,61025ae37ef11b136ea224fe,,,,,,,,,2145,40.80001205,-116.0000082,1,0,0,response3disk,,4,-12.79998875,5.599993646,1,0,0,rectangle,-12.79998875,5.599993646,1,0,0,-12.79998875,5.599993646,1,0,0,0,41,41,60,1,,,,,,,,
,,,,,,,,,,,,,FF,,,,,,,,1.0428,,,,,,,,,,,,,,,,,,,,,,6100eaa1c4af53132eaf57eb,61036dede8cc2214e6e7bf1b,2021-07-29_20h13.45.017,Simcolourproject_2stim_asymm_v5,2020.2.10,Win32,60,61025ae37ef11b136ea224fe,,,,,,,,,4262,79.20001262,-53.60000724,1,0,0,response3disk,,5,-4.799988627,6.399993658,1,0,0,rectangle,-4.799988627,6.399993658,1,0,0,-4.799988627,6.399993658,1,0,0,0,42,42,105,1,,,,,,,,
,,,,,,,,,,,,,FF,,,,,,,,0.5996,,,,,,,,,,,,,,,,,,,,,,6100eaa1c4af53132eaf57eb,61036dede8cc2214e6e7bf1b,2021-07-29_20h13.45.017,Simcolourproject_2stim_asymm_v5,2020.2.10,Win32,60,61025ae37ef11b136ea224fe,,,,,,,,,3298,-86.39994102,43.19996979,1,0,0,response7disk,,1,-2.399939764,-5.600006521,1,0,0,rectangle,-2.399939764,-5.600006521,1,0,0,-2.399939764,-5.600006521,1,0,0,0,43,43,64,1,,,,,,,,
,,,,,,,,,,,,,FF,,,,,,,,1.1821,,,,,,,,,,,,,,,,,,,,,,6100eaa1c4af53132eaf57eb,61036dede8cc2214e6e7bf1b,2021-07-29_20h13.45.017,Simcolourproject_2stim_asymm_v5,2020.2.10,Win32,60,61025ae37ef11b136ea224fe,,,,,,,,,2961,-75.99998969,-84.00000769,1,0,0,response5disk,,3,-9.599988699,-0.800006449,1,0,0,rectangle,-9.599988699,-0.800006449,1,0,0,-9.599988699,-0.800006449,1,0,0,0,44,44,142,1,,,,,,,,
,,,,,,,,,,,,,FF,,,,,,,,0.9681,,,,,,,,,,,,,,,,,,,,,,6100eaa1c4af53132eaf57eb,61036dede8cc2214e6e7bf1b,2021-07-29_20h13.45.017,Simcolourproject_2stim_asymm_v5,2020.2.10,Win32,60,61025ae37ef11b136ea224fe,,,,,,,,,3656,21.60006059,-100.8000079,1,0,0,response3disk,,4,-9.599988699,-3.200006485,1,0,0,rectangle,-44.79998922,-84.8000077,1,0,0,4.000011504,0.799993575,1,0,0,0,45,45,112,1,,response5disk_3,TRUE,3,3,"[66,65,124,268,150,305,88,46,7,70,91,317,197,238,105,33,36,126,293,156]",2.4162,rectangle
,,,,,,,,,,,,,FF,,,,,,,,0.8495,,,,,,,,,,,,,,,,,,,,,,6100eaa1c4af53132eaf57eb,61036dede8cc2214e6e7bf1b,2021-07-29_20h13.45.017,Simcolourproject_2stim_asymm_v5,2020.2.10,Win32,60,61025ae37ef11b136ea224fe,,,,,,,,,1568,89.60001278,-56.00000727,1,0,0,response3disk,,5,-2.399939764,-7.200006545,1,0,0,rectangle,-2.399939764,-7.200006545,1,0,0,-2.399939764,-7.200006545,1,0,0,0,46,46,153,1,,,,,,,,
,,,,,,,,,,,,,FF,,,,,,,,0.9322,,,,,,,,,,,,,,,,,,,,,,6100eaa1c4af53132eaf57eb,61036dede8cc2214e6e7bf1b,2021-07-29_20h13.45.017,Simcolourproject_2stim_asymm_v5,2020.2.10,Win32,60,61025ae37ef11b136ea224fe,,,,,,,,,2458,86.40001273,-76.80000758,1,0,0,response3disk,,5,1.600060296,7.999993682,1,0,0,rectangle,1.600060296,7.999993682,1,0,0,1.600060296,7.999993682,1,0,0,0,47,47,139,1,,,,,,,,
,,,,,,,,,,,,,FF,,,,,,,,0.9668,,,,,,,,,,,,,,,,,,,,,,6100eaa1c4af53132eaf57eb,61036dede8cc2214e6e7bf1b,2021-07-29_20h13.45.017,Simcolourproject_2stim_asymm_v5,2020.2.10,Win32,60,61025ae37ef11b136ea224fe,,,,,,,,,417,104.800013,-63.20000738,1,0,0,response3disk,,5,-5.599988639,-0.800006449,1,0,0,rectangle,-5.599988639,-0.800006449,1,0,0,-5.599988639,-0.800006449,1,0,0,0,48,48,19,1,,,,,,,,
,,,,,,,,,,,,,FF,,,,,,,,0.6011,,,,,,,,,,,,,,,,,,,,,,6100eaa1c4af53132eaf57eb,61036dede8cc2214e6e7bf1b,2021-07-29_20h13.45.017,Simcolourproject_2stim_asymm_v5,2020.2.10,Win32,60,61025ae37ef11b136ea224fe,,,,,,,,,1548,61.60001236,-94.40000784,1,0,0,response3disk,,4,-5.599988639,-9.60000658,1,0,0,rectangle,-5.599988639,-9.60000658,1,0,0,-5.599988639,-9.60000658,1,0,0,0,49,49,141,1,,,,,,,,
,,,,,,,,,,,,,FF,,,,,,,,0.7832,,,,,,,,,,,,,,,,,,,,,,6100eaa1c4af53132eaf57eb,61036dede8cc2214e6e7bf1b,2021-07-29_20h13.45.017,Simcolourproject_2stim_asymm_v5,2020.2.10,Win32,60,61025ae37ef11b136ea224fe,,,,,,,,,1572,36.80001199,-92.80000782,1,0,0,response3disk,,4,-3.999988616,-0.800006449,1,0,0,rectangle,-3.999988616,-0.800006449,1,0,0,-3.999988616,-0.800006449,1,0,0,0,50,50,114,1,,,,,,,,
,,,,,,,,,,,,,FF,,,,,,,,0.6358,,,,,,,,,,,,,,,,,,,,,,6100eaa1c4af53132eaf57eb,61036dede8cc2214e6e7bf1b,2021-07-29_20h13.45.017,Simcolourproject_2stim_asymm_v5,2020.2.10,Win32,60,61025ae37ef11b136ea224fe,,,,,,,,,999,45.60006095,-110.4000081,1,0,0,response3disk,,4,-12.79998875,10.39999372,1,0,0,rectangle,-12.79998875,10.39999372,1,0,0,-12.79998875,10.39999372,1,0,0,0,51,51,89,1,,,,,,,,
,,,,,,,,,,,,,FF,,,,,,,,0.6003,,,,,,,,,,,,,,,,,,,,,,6100eaa1c4af53132eaf57eb,61036dede8cc2214e6e7bf1b,2021-07-29_20h13.45.017,Simcolourproject_2stim_asymm_v5,2020.2.10,Win32,60,61025ae37ef11b136ea224fe,,,,,,,,,2062,-48.79998928,-128.8000084,1,0,0,response5disk,,3,-12.79998875,-4.000006497,1,0,0,rectangle,-12.79998875,-4.000006497,1,0,0,-12.79998875,-4.000006497,1,0,0,0,52,52,54,1,,,,,,,,
,,,,,,,,,,,,,FF,,,,,,,,0.7336,,,,,,,,,,,,,,,,,,,,,,6100eaa1c4af53132eaf57eb,61036dede8cc2214e6e7bf1b,2021-07-29_20h13.45.017,Simcolourproject_2stim_asymm_v5,2020.2.10,Win32,60,61025ae37ef11b136ea224fe,,,,,,,,,3174,88.00001276,-53.60000724,1,0,0,response3disk,,5,-6.399939823,-4.800006509,1,0,0,rectangle,-6.399939823,-4.800006509,1,0,0,-6.399939823,-4.800006509,1,0,0,0,53,53,43,1,,,,,,,,
,,,,,,,,,,,,,FF,,,,,,,,0.7333,,,,,,,,,,,,,,,,,,,,,,6100eaa1c4af53132eaf57eb,61036dede8cc2214e6e7bf1b,2021-07-29_20h13.45.017,Simcolourproject_2stim_asymm_v5,2020.2.10,Win32,60,61025ae37ef11b136ea224fe,,,,,,,,,3320,59.20001233,-77.60000759,1,0,0,response3disk,,4,5.600060356,-5.600006521,1,0,0,rectangle,5.600060356,-5.600006521,1,0,0,5.600060356,-5.600006521,1,0,0,0,54,54,119,1,,,,,,,,
,,,,,,,,,,,,,FF,,,,,,,,1.0212,,,,,,,,,,,,,,,,,,,,,,6100eaa1c4af53132eaf57eb,61036dede8cc2214e6e7bf1b,2021-07-29_20h13.45.017,Simcolourproject_2stim_asymm_v5,2020.2.10,Win32,60,61025ae37ef11b136ea224fe,,,,,,,,,1952,-63.1999895,-76.00000757,1,0,0,response5disk,,3,-12.79998875,14.39999378,1,0,0,rectangle,-12.79998875,14.39999378,1,0,0,-12.79998875,14.39999378,1,0,0,0,55,55,5,1,,,,,,,,
,,,,,,,,,,,,,FF,,,,,,,,0.6812,,,,,,,,,,,,,,,,,,,,,,6100eaa1c4af53132eaf57eb,61036dede8cc2214e6e7bf1b,2021-07-29_20h13.45.017,Simcolourproject_2stim_asymm_v5,2020.2.10,Win32,60,61025ae37ef11b136ea224fe,,,,,,,,,2187,62.40001237,-88.80000776,1,0,0,response3disk,,4,-4.799988627,-5.600006521,1,0,0,rectangle,-4.799988627,-5.600006521,1,0,0,-4.799988627,-5.600006521,1,0,0,0,56,56,62,1,,,,,,,,
,,,,,,,,,,,,,FF,,,,,,,,0.9,,,,,,,,,,,,,,,,,,,,,,6100eaa1c4af53132eaf57eb,61036dede8cc2214e6e7bf1b,2021-07-29_20h13.45.017,Simcolourproject_2stim_asymm_v5,2020.2.10,Win32,60,61025ae37ef11b136ea224fe,,,,,,,,,460,76.80001259,25.59999394,1,0,0,response1disk,,6,1.14441E-05,-2.400006473,1,0,0,rectangle,1.14441E-05,-2.400006473,1,0,0,1.14441E-05,-2.400006473,1,0,0,0,57,57,126,1,,,,,,,,
,,,,,,,,,,,,,FF,,,,,,,,0.7522,,,,,,,,,,,,,,,,,,,,,,6100eaa1c4af53132eaf57eb,61036dede8cc2214e6e7bf1b,2021-07-29_20h13.45.017,Simcolourproject_2stim_asymm_v5,2020.2.10,Win32,60,61025ae37ef11b136ea224fe,,,,,,,,,2598,73.60001254,-60.80000734,1,0,0,response3disk,,5,1.14441E-05,-1.600006461,1,0,0,rectangle,1.14441E-05,-1.600006461,1,0,0,1.14441E-05,-1.600006461,1,0,0,0,58,58,125,1,,,,,,,,
,,,,,,,,,,,,,FF,,,,,,,,0.6224,,,,,,,,,,,,,,,,,,,,,,6100eaa1c4af53132eaf57eb,61036dede8cc2214e6e7bf1b,2021-07-29_20h13.45.017,Simcolourproject_2stim_asymm_v5,2020.2.10,Win32,60,61025ae37ef11b136ea224fe,,,,,,,,,2490,112.0000131,-37.600007,1,0,0,response3disk,,5,-13.59998876,-8.800006568,1,0,0,rectangle,-13.59998876,-8.800006568,1,0,0,-13.59998876,-8.800006568,1,0,0,0,59,59,124,1,,,,,,,,
,,,,,,,,,,,,,FF,,,,,,,,0.8324,,,,,,,,,,,,,,,,,,,,,,6100eaa1c4af53132eaf57eb,61036dede8cc2214e6e7bf1b,2021-07-29_20h13.45.017,Simcolourproject_2stim_asymm_v5,2020.2.10,Win32,60,61025ae37ef11b136ea224fe,,,,,,,,,794,129.6000134,-44.8000071,1,0,0,response3disk,,5,-11.19998872,9.599993706,1,0,0,rectangle,-11.19998872,9.599993706,1,0,0,-11.19998872,9.599993706,1,0,0,0,60,60,97,1,,,,,,,,
,,,,,,,,,,,,,FF,,,,,,,,0.7362,,,,,,,,,,,,,,,,,,,,,,6100eaa1c4af53132eaf57eb,61036dede8cc2214e6e7bf1b,2021-07-29_20h13.45.017,Simcolourproject_2stim_asymm_v5,2020.2.10,Win32,60,61025ae37ef11b136ea224fe,,,,,,,,,1770,47.20001215,-86.40000772,1,0,0,response3disk,,4,-3.199988604,-4.800006509,1,0,0,rectangle,-3.199988604,-4.800006509,1,0,0,-3.199988604,-4.800006509,1,0,0,0,61,61,120,1,,,,,,,,
,,,,,,,,,,,,,FF,,,,,,,,0.7501,,,,,,,,,,,,,,,,,,,,,,6100eaa1c4af53132eaf57eb,61036dede8cc2214e6e7bf1b,2021-07-29_20h13.45.017,Simcolourproject_2stim_asymm_v5,2020.2.10,Win32,60,61025ae37ef11b136ea224fe,,,,,,,,,1387,-84.79998982,-49.60000718,1,0,0,response5disk,,2,-9.599988699,-2.400006473,1,0,0,rectangle,-9.599988699,-2.400006473,1,0,0,-9.599988699,-2.400006473,1,0,0,0,62,62,85,1,,,,,,,,
,,,,,,,,,,,,,FF,,,,,,,,0.6997,,,,,,,,,,,,,,,,,,,,,,6100eaa1c4af53132eaf57eb,61036dede8cc2214e6e7bf1b,2021-07-29_20h13.45.017,Simcolourproject_2stim_asymm_v5,2020.2.10,Win32,60,61025ae37ef11b136ea224fe,,,,,,,,,1014,-47.19998926,-91.2000078,1,0,0,response5disk,,3,-0.799988568,-12.00000662,1,0,0,rectangle,-0.799988568,-12.00000662,1,0,0,-0.799988568,-12.00000662,1,0,0,0,63,63,147,1,,,,,,,,
,,,,,,,,,,,,,FF,,,,,,,,0.9351,,,,,,,,,,,,,,,,,,,,,,6100eaa1c4af53132eaf57eb,61036dede8cc2214e6e7bf1b,2021-07-29_20h13.45.017,Simcolourproject_2stim_asymm_v5,2020.2.10,Win32,60,61025ae37ef11b136ea224fe,,,,,,,,,1743,-27.99998897,94.39999497,1,0,0,response7disk,,0,-7.999988675,-6.400006533,1,0,0,rectangle,88.80001277,-44.8000071,1,0,0,-4.799988627,2.399993598,1,0,0,0,64,64,106,1,,response3disk_3,TRUE,5,5,"[66,65,124,268,150,305,88,46,7,70,91,317,197,238,105,33,36,126,293,156]",1.4944,rectangle
,,,,,,,,,,,,,FF,,,,,,,,1.1857,,,,,,,,,,,,,,,,,,,,,,6100eaa1c4af53132eaf57eb,61036dede8cc2214e6e7bf1b,2021-07-29_20h13.45.017,Simcolourproject_2stim_asymm_v5,2020.2.10,Win32,60,61025ae37ef11b136ea224fe,,,,,,,,,2214,-45.59998924,-92.00000781,1,0,0,response5disk,,3,-1.59998858,11.19999373,1,0,0,rectangle,49.60006101,-88.80000776,1,0,0,-4.799988627,-10.40000659,1,0,0,0,65,65,157,1,,response3disk_3,TRUE,4,4,"[66,65,124,268,150,305,88,46,7,70,91,317,197,238,105,33,36,126,293,156]",1.1335,rectangle
,,,,,,,,,,,,,FF,,,,,,,,1.0996,,,,,,,,,,,,,,,,,,,,,,6100eaa1c4af53132eaf57eb,61036dede8cc2214e6e7bf1b,2021-07-29_20h13.45.017,Simcolourproject_2stim_asymm_v5,2020.2.10,Win32,60,61025ae37ef11b136ea224fe,,,,,,,,,101,-80.79998976,-40.80000705,1,0,0,response5disk,,2,-15.99998879,-4.800006509,1,0,0,rectangle,-15.99998879,-4.800006509,1,0,0,-15.99998879,-4.800006509,1,0,0,0,66,66,35,1,,,,,,,,
,,,,,,,,,,,,,FF,,,,,,,,1.0588,,,,,,,,,,,,,,,,,,,,,,6100eaa1c4af53132eaf57eb,61036dede8cc2214e6e7bf1b,2021-07-29_20h13.45.017,Simcolourproject_2stim_asymm_v5,2020.2.10,Win32,60,61025ae37ef11b136ea224fe,,,,,,,,,3729,-111.1999902,-48.00000715,1,0,0,response5disk,,2,4.000011504,-4.800006509,1,0,0,rectangle,4.000011504,-4.800006509,1,0,0,4.000011504,-4.800006509,1,0,0,0,67,67,32,1,,,,,,,,
,,,,,,,,,,,,,FF,,,,,,,,0.4501,,,,,,,,,,,,,,,,,,,,,,6100eaa1c4af53132eaf57eb,61036dede8cc2214e6e7bf1b,2021-07-29_20h13.45.017,Simcolourproject_2stim_asymm_v5,2020.2.10,Win32,60,61025ae37ef11b136ea224fe,,,,,,,,,3764,-96.79999,-46.40000713,1,0,0,response5disk,,2,4.000011504,-6.400006533,1,0,0,rectangle,4.000011504,-6.400006533,1,0,0,4.000011504,-6.400006533,1,0,0,0,68,68,100,1,,,,,,,,
,,,,,,,,,,,,,FF,,,,,,,,0.9165,,,,,,,,,,,,,,,,,,,,,,6100eaa1c4af53132eaf57eb,61036dede8cc2214e6e7bf1b,2021-07-29_20h13.45.017,Simcolourproject_2stim_asymm_v5,2020.2.10,Win32,60,61025ae37ef11b136ea224fe,,,,,,,,,3416,-47.19998926,-116.0000082,1,0,0,response5disk,,3,-7.999988675,-6.4373E-06,1,0,0,rectangle,-43.1999892,-105.6000568,1,0,0,-3.199988604,2.399993598,1,0,0,0,69,69,72,1,,response5disk_3,TRUE,3,3,"[66,65,124,268,150,305,88,46,7,70,91,317,197,238,105,33,36,126,293,156]",5.4791,rectangle
,,,,,,,,,,,,,FF,,,,,,,,0.9321,,,,,,,,,,,,,,,,,,,,,,6100eaa1c4af53132eaf57eb,61036dede8cc2214e6e7bf1b,2021-07-29_20h13.45.017,Simcolourproject_2stim_asymm_v5,2020.2.10,Win32,60,61025ae37ef11b136ea224fe,,,,,,,,,2316,60.00001234,-116.0000082,1,0,0,response3disk,,4,-5.599988639,-11.2000066,1,0,0,rectangle,-5.599988639,-11.2000066,1,0,0,-5.599988639,-11.2000066,1,0,0,0,70,70,18,1,,,,,,,,
,,,,,,,,,,,,,FF,,,,,,,,0.9008,,,,,,,,,,,,,,,,,,,,,,6100eaa1c4af53132eaf57eb,61036dede8cc2214e6e7bf1b,2021-07-29_20h13.45.017,Simcolourproject_2stim_asymm_v5,2020.2.10,Win32,60,61025ae37ef11b136ea224fe,,,,,,,,,2286,-46.39994042,-70.40000749,1,0,0,response5disk,,3,-23.99998891,-12.00000662,1,0,0,rectangle,-23.99998891,-12.00000662,1,0,0,-23.99998891,-12.00000662,1,0,0,0,71,71,66,1,,,,,,,,
,,,,,,,,,,,,,FF,,,,,,,,0.9315,,,,,,,,,,,,,,,,,,,,,,6100eaa1c4af53132eaf57eb,61036dede8cc2214e6e7bf1b,2021-07-29_20h13.45.017,Simcolourproject_2stim_asymm_v5,2020.2.10,Win32,60,61025ae37ef11b136ea224fe,,,,,,,,,1844,62.40001237,-81.60005648,1,0,0,response3disk,,4,3.200011492,-10.40000659,1,0,0,rectangle,3.200011492,-10.40000659,1,0,0,3.200011492,-10.40000659,1,0,0,0,72,72,109,1,,,,,,,,
,,,,,,,,,,,,,FF,,,,,,,,0.4994,,,,,,,,,,,,,,,,,,,,,,6100eaa1c4af53132eaf57eb,61036dede8cc2214e6e7bf1b,2021-07-29_20h13.45.017,Simcolourproject_2stim_asymm_v5,2020.2.10,Win32,60,61025ae37ef11b136ea224fe,,,,,,,,,843,39.20001203,-74.40000755,1,0,0,response3disk,,4,-1.59998858,-5.600006521,1,0,0,rectangle,-1.59998858,-5.600006521,1,0,0,-1.59998858,-5.600006521,1,0,0,0,73,73,86,1,,,,,,,,
,,,,,,,,,,,,,FF,,,,,,,,0.7853,,,,,,,,,,,,,,,,,,,,,,6100eaa1c4af53132eaf57eb,61036dede8cc2214e6e7bf1b,2021-07-29_20h13.45.017,Simcolourproject_2stim_asymm_v5,2020.2.10,Win32,60,61025ae37ef11b136ea224fe,,,,,,,,,526,-75.19998968,36.79999411,1,0,0,response7disk,,1,-10.39993988,5.599993646,1,0,0,rectangle,-10.39993988,5.599993646,1,0,0,-10.39993988,5.599993646,1,0,0,0,74,74,41,1,,,,,,,,
,,,,,,,,,,,,,FF,,,,,,,,0.7193,,,,,,,,,,,,,,,,,,,,,,6100eaa1c4af53132eaf57eb,61036dede8cc2214e6e7bf1b,2021-07-29_20h13.45.017,Simcolourproject_2stim_asymm_v5,2020.2.10,Win32,60,61025ae37ef11b136ea224fe,,,,,,,,,3617,-45.59998924,-104.800008,1,0,0,response5disk,,3,0.800011456,2.399993598,1,0,0,rectangle,0.800011456,2.399993598,1,0,0,0.800011456,2.399993598,1,0,0,0,75,75,28,1,,,,,,,,
,,,,,,,,,,,,,FF,,,,,,,,2.2681,,,,,,,,,,,,,,,,,,,,,,6100eaa1c4af53132eaf57eb,61036dede8cc2214e6e7bf1b,2021-07-29_20h13.45.017,Simcolourproject_2stim_asymm_v5,2020.2.10,Win32,60,61025ae37ef11b136ea224fe,,,,,,,,,2693,53.60001224,-90.40000778,1,0,0,response3disk,,4,-13.59998876,5.599993646,1,0,0,rectangle,-13.59998876,5.599993646,1,0,0,-13.59998876,5.599993646,1,0,0,0,76,76,111,1,,,,,,,,
,,,,,,,,,,,,,FF,,,,,,,,0.5396,,,,,,,,,,,,,,,,,,,,,,6100eaa1c4af53132eaf57eb,61036dede8cc2214e6e7bf1b,2021-07-29_20h13.45.017,Simcolourproject_2stim_asymm_v5,2020.2.10,Win32,60,61025ae37ef11b136ea224fe,,,,,,,,,2091,66.40001243,-68.80000746,1,0,0,response3disk,,4,-23.1999889,5.599993646,1,0,0,rectangle,-23.1999889,5.599993646,1,0,0,-23.1999889,5.599993646,1,0,0,0,77,77,101,1,,,,,,,,
,,,,,,,,,,,,,FF,,,,,,,,0.7142,,,,,,,,,,,,,,,,,,,,,,6100eaa1c4af53132eaf57eb,61036dede8cc2214e6e7bf1b,2021-07-29_20h13.45.017,Simcolourproject_2stim_asymm_v5,2020.2.10,Win32,60,61025ae37ef11b136ea224fe,,,,,,,,,306,-53.59998935,-66.40000743,1,0,0,response5disk,,3,-1.59998858,-2.400006473,1,0,0,rectangle,-1.59998858,-2.400006473,1,0,0,-1.59998858,-2.400006473,1,0,0,0,78,78,58,1,,,,,,,,
,,,,,,,,,,,,,FF,,,,,,,,0.4323,,,,,,,,,,,,,,,,,,,,,,6100eaa1c4af53132eaf57eb,61036dede8cc2214e6e7bf1b,2021-07-29_20h13.45.017,Simcolourproject_2stim_asymm_v5,2020.2.10,Win32,60,61025ae37ef11b136ea224fe,,,,,,,,,2342,36.80001199,-125.6000571,1,0,0,response3disk,,4,-15.99998879,3.19999361,1,0,0,rectangle,-15.99998879,3.19999361,1,0,0,-15.99998879,3.19999361,1,0,0,0,79,79,34,1,,,,,,,,
,,,,,,,,,,,,,FF,,,,,,,,0.9649,,,,,,,,,,,,,,,,,,,,,,6100eaa1c4af53132eaf57eb,61036dede8cc2214e6e7bf1b,2021-07-29_20h13.45.017,Simcolourproject_2stim_asymm_v5,2020.2.10,Win32,60,61025ae37ef11b136ea224fe,,,,,,,,,4334,-86.39994102,47.99999428,1,0,0,response7disk,,1,-16.79998881,-8.800006568,1,0,0,rectangle,-16.79998881,-8.800006568,1,0,0,-16.79998881,-8.800006568,1,0,0,0,80,80,38,1,,,,,,,,
,,,,,,,,,,,,,FF,,,,,,,,0.4836,,,,,,,,,,,,,,,,,,,,,,6100eaa1c4af53132eaf57eb,61036dede8cc2214e6e7bf1b,2021-07-29_20h13.45.017,Simcolourproject_2stim_asymm_v5,2020.2.10,Win32,60,61025ae37ef11b136ea224fe,,,,,,,,,2744,50.4000122,-87.20000774,1,0,0,response3disk,,4,-9.599988699,-10.40000659,1,0,0,rectangle,-9.599988699,-10.40000659,1,0,0,-9.599988699,-10.40000659,1,0,0,0,81,81,31,1,,,,,,,,
,,,,,,,,,,,,,FF,,,,,,,,0.4863,,,,,,,,,,,,,,,,,,,,,,6100eaa1c4af53132eaf57eb,61036dede8cc2214e6e7bf1b,2021-07-29_20h13.45.017,Simcolourproject_2stim_asymm_v5,2020.2.10,Win32,60,61025ae37ef11b136ea224fe,,,,,,,,,2533,-67.19998956,-107.200008,1,0,0,response5disk,,3,6.400011539,5.599993646,1,0,0,rectangle,6.400011539,5.599993646,1,0,0,6.400011539,5.599993646,1,0,0,0,82,82,21,1,,,,,,,,
,,,,,,,,,,,,,FF,,,,,,,,0.568,,,,,,,,,,,,,,,,,,,,,,6100eaa1c4af53132eaf57eb,61036dede8cc2214e6e7bf1b,2021-07-29_20h13.45.017,Simcolourproject_2stim_asymm_v5,2020.2.10,Win32,60,61025ae37ef11b136ea224fe,,,,,,,,,908,-94.39994113,-56.80000728,1,0,0,response5disk,,2,-22.39994006,-7.200006545,1,0,0,rectangle,-22.39994006,-7.200006545,1,0,0,-22.39994006,-7.200006545,1,0,0,0,83,83,134,1,,,,,,,,
,,,,,,,,,,,,,FF,,,,,,,,0.3531,,,,,,,,,,,,,,,,,,,,,,6100eaa1c4af53132eaf57eb,61036dede8cc2214e6e7bf1b,2021-07-29_20h13.45.017,Simcolourproject_2stim_asymm_v5,2020.2.10,Win32,60,61025ae37ef11b136ea224fe,,,,,,,,,3745,56.80001229,-91.2000078,1,0,0,response3disk,,4,-26.39994012,-5.600006521,1,0,0,rectangle,-26.39994012,-5.600006521,1,0,0,-26.39994012,-5.600006521,1,0,0,0,84,84,29,1,,,,,,,,
,,,,,,,,,,,,,FF,,,,,,,,0.7032,,,,,,,,,,,,,,,,,,,,,,6100eaa1c4af53132eaf57eb,61036dede8cc2214e6e7bf1b,2021-07-29_20h13.45.017,Simcolourproject_2stim_asymm_v5,2020.2.10,Win32,60,61025ae37ef11b136ea224fe,,,,,,,,,4195,-31.19998902,-112.0000081,1,0,0,response5disk,,3,4.800011516,10.39999372,1,0,0,rectangle,4.800011516,10.39999372,1,0,0,4.800011516,10.39999372,1,0,0,0,85,85,65,1,,,,,,,,
,,,,,,,,,,,,,FF,,,,,,,,0.576,,,,,,,,,,,,,,,,,,,,,,6100eaa1c4af53132eaf57eb,61036dede8cc2214e6e7bf1b,2021-07-29_20h13.45.017,Simcolourproject_2stim_asymm_v5,2020.2.10,Win32,60,61025ae37ef11b136ea224fe,,,,,,,,,45,-58.3999406,-94.40000784,1,0,0,response5disk,,3,-10.39993988,-11.2000066,1,0,0,rectangle,-10.39993988,-11.2000066,1,0,0,-10.39993988,-11.2000066,1,0,0,0,86,86,4,1,,,,,,,,
,,,,,,,,,,,,,FF,,,,,,,,0.7353,,,,,,,,,,,,,,,,,,,,,,6100eaa1c4af53132eaf57eb,61036dede8cc2214e6e7bf1b,2021-07-29_20h13.45.017,Simcolourproject_2stim_asymm_v5,2020.2.10,Win32,60,61025ae37ef11b136ea224fe,,,,,,,,,1703,-38.3999403,-102.400008,1,0,0,response5disk,,3,-3.199988604,15.19999379,1,0,0,rectangle,-106.3999413,47.99999428,1,0,0,7.200011551,-4.000006497,1,0,0,0,87,87,76,1,,response7disk_3,TRUE,1,1,"[66,65,124,268,150,305,88,46,7,70,91,317,197,238,105,33,36,126,293,156]",1.0122,rectangle
,,,,,,,,,,,,,FF,,,,,,,,0.8011,,,,,,,,,,,,,,,,,,,,,,6100eaa1c4af53132eaf57eb,61036dede8cc2214e6e7bf1b,2021-07-29_20h13.45.017,Simcolourproject_2stim_asymm_v5,2020.2.10,Win32,60,61025ae37ef11b136ea224fe,,,,,,,,,3779,-109.5999902,19.99999386,1,0,0,response7disk,,1,-30.39994018,3.19999361,1,0,0,rectangle,-30.39994018,3.19999361,1,0,0,-30.39994018,3.19999361,1,0,0,0,88,88,52,1,,,,,,,,
,,,,,,,,,,,,,FF,,,,,,,,0.4971,,,,,,,,,,,,,,,,,,,,,,6100eaa1c4af53132eaf57eb,61036dede8cc2214e6e7bf1b,2021-07-29_20h13.45.017,Simcolourproject_2stim_asymm_v5,2020.2.10,Win32,60,61025ae37ef11b136ea224fe,,,,,,,,,2908,48.80001217,-42.40000707,1,0,0,response3disk,,5,9.600060415,-15.20000666,1,0,0,rectangle,9.600060415,-15.20000666,1,0,0,9.600060415,-15.20000666,1,0,0,0,89,89,48,1,,,,,,,,
,,,,,,,,,,,,,FF,,,,,,,,0.5038,,,,,,,,,,,,,,,,,,,,,,6100eaa1c4af53132eaf57eb,61036dede8cc2214e6e7bf1b,2021-07-29_20h13.45.017,Simcolourproject_2stim_asymm_v5,2020.2.10,Win32,60,61025ae37ef11b136ea224fe,,,,,,,,,4007,64.0000124,-74.40000755,1,0,0,response3disk,,4,0.800011456,-9.60000658,1,0,0,rectangle,-108.7999902,-38.40000701,1,0,0,-20.79998887,-8.800006568,1,0,0,0,90,90,138,1,,response5disk_3,TRUE,2,2,"[66,65,124,268,150,305,88,46,7,70,91,317,197,238,105,33,36,126,293,156]",1.1324,rectangle
,,,,,,,,,,,,,FF,,,,,,,,0.8165,,,,,,,,,,,,,,,,,,,,,,6100eaa1c4af53132eaf57eb,61036dede8cc2214e6e7bf1b,2021-07-29_20h13.45.017,Simcolourproject_2stim_asymm_v5,2020.2.10,Win32,60,61025ae37ef11b136ea224fe,,,,,,,,,4074,-90.39994107,-45.60000712,1,0,0,response5disk,,2,-7.199988663,-4.800006509,1,0,0,rectangle,-7.199988663,-4.800006509,1,0,0,-7.199988663,-4.800006509,1,0,0,0,91,91,99,1,,,,,,,,
,,,,,,,,,,,,,FF,,,,,,,,1.134,,,,,,,,,,,,,,,,,,,,,,6100eaa1c4af53132eaf57eb,61036dede8cc2214e6e7bf1b,2021-07-29_20h13.45.017,Simcolourproject_2stim_asymm_v5,2020.2.10,Win32,60,61025ae37ef11b136ea224fe,,,,,,,,,2612,-44.79998922,-108.000008,1,0,0,response5disk,,3,-1.59998858,-1.600006461,1,0,0,rectangle,-1.59998858,-1.600006461,1,0,0,-1.59998858,-1.600006461,1,0,0,0,92,92,30,1,,,,,,,,
,,,,,,,,,,,,,FF,,,,,,,,1.1322,,,,,,,,,,,,,,,,,,,,,,6100eaa1c4af53132eaf57eb,61036dede8cc2214e6e7bf1b,2021-07-29_20h13.45.017,Simcolourproject_2stim_asymm_v5,2020.2.10,Win32,60,61025ae37ef11b136ea224fe,,,,,,,,,4332,-59.99998945,-40.00000703,1,0,0,response5disk,,2,-14.39993994,-4.800006509,1,0,0,rectangle,-14.39993994,-4.800006509,1,0,0,-14.39993994,-4.800006509,1,0,0,0,93,93,24,1,,,,,,,,
,,,,,,,,,,,,,FF,,,,,,,,0.7339,,,,,,,,,,,,,,,,,,,,,,6100eaa1c4af53132eaf57eb,61036dede8cc2214e6e7bf1b,2021-07-29_20h13.45.017,Simcolourproject_2stim_asymm_v5,2020.2.10,Win32,60,61025ae37ef11b136ea224fe,,,,,,,,,4095,-43.1999892,98.39999503,1,0,0,response7disk,,0,-7.999988675,5.599993646,1,0,0,rectangle,-7.999988675,5.599993646,1,0,0,-7.999988675,5.599993646,1,0,0,0,94,94,82,1,,,,,,,,
,,,,,,,,,,,,,FF,,,,,,,,0.5518,,,,,,,,,,,,,,,,,,,,,,6100eaa1c4af53132eaf57eb,61036dede8cc2214e6e7bf1b,2021-07-29_20h13.45.017,Simcolourproject_2stim_asymm_v5,2020.2.10,Win32,60,61025ae37ef11b136ea224fe,,,,,,,,,2732,-49.5999893,-124.8000083,1,0,0,response5disk,,3,-4.799988627,-15.20000666,1,0,0,rectangle,-4.799988627,-15.20000666,1,0,0,-4.799988627,-15.20000666,1,0,0,0,95,95,63,1,,,,,,,,
,,,,,,,,,,,,,FF,,,,,,,,0.5666,,,,,,,,,,,,,,,,,,,,,,6100eaa1c4af53132eaf57eb,61036dede8cc2214e6e7bf1b,2021-07-29_20h13.45.017,Simcolourproject_2stim_asymm_v5,2020.2.10,Win32,60,61025ae37ef11b136ea224fe,,,,,,,,,685,-50.39994048,-88.80000776,1,0,0,response5disk,,3,-5.599988639,-10.40000659,1,0,0,rectangle,-5.599988639,-10.40000659,1,0,0,-5.599988639,-10.40000659,1,0,0,0,96,96,12,1,,,,,,,,
,,,,,,,,,,,,,FF,,,,,,,,0.5649,,,,,,,,,,,,,,,,,,,,,,6100eaa1c4af53132eaf57eb,61036dede8cc2214e6e7bf1b,2021-07-29_20h13.45.017,Simcolourproject_2stim_asymm_v5,2020.2.10,Win32,60,61025ae37ef11b136ea224fe,,,,,,,,,65,-83.99998981,-50.40000719,1,0,0,response5disk,,2,-27.19998896,-15.20000666,1,0,0,rectangle,-27.19998896,-15.20000666,1,0,0,-27.19998896,-15.20000666,1,0,0,0,97,97,49,1,,,,,,,,
,,,,,,,,,,,,,FF,,,,,,,,0.3846,,,,,,,,,,,,,,,,,,,,,,6100eaa1c4af53132eaf57eb,61036dede8cc2214e6e7bf1b,2021-07-29_20h13.45.017,Simcolourproject_2stim_asymm_v5,2020.2.10,Win32,60,61025ae37ef11b136ea224fe,,,,,,,,,2856,64.0000124,-89.6000566,1,0,0,response3disk,,4,6.400011539,9.599993706,1,0,0,rectangle,6.400011539,9.599993706,1,0,0,6.400011539,9.599993706,1,0,0,0,98,98,93,1,,,,,,,,
,,,,,,,,,,,,,FF,,,,,,,,0.9183,,,,,,,,,,,,,,,,,,,,,,6100eaa1c4af53132eaf57eb,61036dede8cc2214e6e7bf1b,2021-07-29_20h13.45.017,Simcolourproject_2stim_asymm_v5,2020.2.10,Win32,60,61025ae37ef11b136ea224fe,,,,,,,,,3503,-102.3999413,-64.8000074,1,0,0,response5disk,,2,-32.79998904,-12.80000663,1,0,0,rectangle,-32.79998904,-12.80000663,1,0,0,-32.79998904,-12.80000663,1,0,0,0,99,99,137,1,,,,,,,,
,,,,,,,,,,,,,FF,,,,,,,,1.1316,,,,,,,,,,,,,,,,,,,,,,6100eaa1c4af53132eaf57eb,61036dede8cc2214e6e7bf1b,2021-07-29_20h13.45.017,Simcolourproject_2stim_asymm_v5,2020.2.10,Win32,60,61025ae37ef11b136ea224fe,,,,,,,,,2988,45.60006095,-121.6000571,1,0,0,response3disk,,4,-11.99998873,-12.00000662,1,0,0,rectangle,-11.99998873,-12.00000662,1,0,0,-11.99998873,-12.00000662,1,0,0,0,100,100,73,1,,,,,,,,
,,,,,,,,,,,,,FF,,,,,,,,0.595,,,,,,,,,,,,,,,,,,,,,,6100eaa1c4af53132eaf57eb,61036dede8cc2214e6e7bf1b,2021-07-29_20h13.45.017,Simcolourproject_2stim_asymm_v5,2020.2.10,Win32,60,61025ae37ef11b136ea224fe,,,,,,,,,4220,-95.19998997,23.19996949,1,0,0,response7disk,,1,-31.99998903,-4.000006497,1,0,0,rectangle,-31.99998903,-4.000006497,1,0,0,-31.99998903,-4.000006497,1,0,0,0,101,101,17,1,,,,,,,,
,,,,,,,,,,,,,FF,,,,,,,,0.9995,,,,,,,,,,,,,,,,,,,,,,6100eaa1c4af53132eaf57eb,61036dede8cc2214e6e7bf1b,2021-07-29_20h13.45.017,Simcolourproject_2stim_asymm_v5,2020.2.10,Win32,60,61025ae37ef11b136ea224fe,,,,,,,,,4104,-58.3999406,17.59999382,1,0,0,response7disk,,1,-22.39994006,1.599993587,1,0,0,rectangle,-22.39994006,1.599993587,1,0,0,-22.39994006,1.599993587,1,0,0,0,102,102,140,1,,,,,,,,
,,,,,,,,,,,,,FF,,,,,,,,1.2512,,,,,,,,,,,,,,,,,,,,,,6100eaa1c4af53132eaf57eb,61036dede8cc2214e6e7bf1b,2021-07-29_20h13.45.017,Simcolourproject_2stim_asymm_v5,2020.2.10,Win32,60,61025ae37ef11b136ea224fe,,,,,,,,,841,-46.39994042,-86.40000772,1,0,0,response5disk,,3,-0.799988568,-3.200006485,1,0,0,rectangle,-0.799988568,-3.200006485,1,0,0,-0.799988568,-3.200006485,1,0,0,0,103,103,103,1,,,,,,,,
,,,,,,,,,,,,,FF,,,,,,,,0.7515,,,,,,,,,,,,,,,,,,,,,,6100eaa1c4af53132eaf57eb,61036dede8cc2214e6e7bf1b,2021-07-29_20h13.45.017,Simcolourproject_2stim_asymm_v5,2020.2.10,Win32,60,61025ae37ef11b136ea224fe,,,,,,,,,3980,-44.79998922,-74.40000755,1,0,0,response5disk,,3,-0.799988568,12.79999375,1,0,0,rectangle,-47.99998927,89.5999949,1,0,0,-10.39993988,-13.60000664,1,0,0,0,104,104,53,1,,response7disk_3,TRUE,0,0,"[66,65,124,268,150,305,88,46,7,70,91,317,197,238,105,33,36,126,293,156]",1.4141,rectangle
,,,,,,,,,,,,,FF,,,,,,,,1.4167,,,,,,,,,,,,,,,,,,,,,,6100eaa1c4af53132eaf57eb,61036dede8cc2214e6e7bf1b,2021-07-29_20h13.45.017,Simcolourproject_2stim_asymm_v5,2020.2.10,Win32,60,61025ae37ef11b136ea224fe,,,,,,,,,3013,-50.39994048,-136.8000085,1,0,0,response5disk,,3,-9.599988699,3.999993622,1,0,0,rectangle,-9.599988699,3.999993622,1,0,0,-9.599988699,3.999993622,1,0,0,0,105,105,20,1,,,,,,,,
,,,,,,,,,,,,,FF,,,,,,,,2.1316,,,,,,,,,,,,,,,,,,,,,,6100eaa1c4af53132eaf57eb,61036dede8cc2214e6e7bf1b,2021-07-29_20h13.45.017,Simcolourproject_2stim_asymm_v5,2020.2.10,Win32,60,61025ae37ef11b136ea224fe,,,,,,,,,1261,-33.59998906,-98.4000079,1,0,0,response5disk,,3,-1.59998858,9.599993706,1,0,0,rectangle,-1.59998858,9.599993706,1,0,0,-1.59998858,9.599993706,1,0,0,0,106,106,27,1,,,,,,,,
,,,,,,,,,,,,,FF,,,,,,,,1.0201,,,,,,,,,,,,,,,,,,,,,,6100eaa1c4af53132eaf57eb,61036dede8cc2214e6e7bf1b,2021-07-29_20h13.45.017,Simcolourproject_2stim_asymm_v5,2020.2.10,Win32,60,61025ae37ef11b136ea224fe,,,,,,,,,3592,-99.99999005,-43.20000708,1,0,0,response5disk,,2,-10.39993988,3.19999361,1,0,0,rectangle,-10.39993988,3.19999361,1,0,0,-10.39993988,3.19999361,1,0,0,0,107,107,96,1,,,,,,,,
,,,,,,,,,,,,,FF,,,,,,,,1.1188,,,,,,,,,,,,,,,,,,,,,,6100eaa1c4af53132eaf57eb,61036dede8cc2214e6e7bf1b,2021-07-29_20h13.45.017,Simcolourproject_2stim_asymm_v5,2020.2.10,Win32,60,61025ae37ef11b136ea224fe,,,,,,,,,2409,102.400013,-52.80000722,1,0,0,response3disk,,5,20.80001175,7.19999367,1,0,0,rectangle,20.80001175,7.19999367,1,0,0,20.80001175,7.19999367,1,0,0,0,108,108,88,1,,,,,,,,
,,,,,,,,,,,,,FF,,,,,,,,1.3201,,,,,,,,,,,,,,,,,,,,,,6100eaa1c4af53132eaf57eb,61036dede8cc2214e6e7bf1b,2021-07-29_20h13.45.017,Simcolourproject_2stim_asymm_v5,2020.2.10,Win32,60,61025ae37ef11b136ea224fe,,,,,,,,,1679,-91.99998993,-52.00000721,1,0,0,response5disk,,2,-22.39994006,-7.200006545,1,0,0,rectangle,-22.39994006,-7.200006545,1,0,0,-22.39994006,-7.200006545,1,0,0,0,109,109,59,1,,,,,,,,
,,,,,,,,,,,,,FF,,,,,,,,0.7192,,,,,,,,,,,,,,,,,,,,,,6100eaa1c4af53132eaf57eb,61036dede8cc2214e6e7bf1b,2021-07-29_20h13.45.017,Simcolourproject_2stim_asymm_v5,2020.2.10,Win32,60,61025ae37ef11b136ea224fe,,,,,,,,,1515,60.80001235,-92.80000782,1,0,0,response3disk,,4,13.60006047,-11.2000066,1,0,0,rectangle,13.60006047,-11.2000066,1,0,0,13.60006047,-11.2000066,1,0,0,0,110,110,91,1,,,,,,,,
,,,,,,,,,,,,,FF,,,,,,,,0.7475,,,,,,,,,,,,,,,,,,,,,,6100eaa1c4af53132eaf57eb,61036dede8cc2214e6e7bf1b,2021-07-29_20h13.45.017,Simcolourproject_2stim_asymm_v5,2020.2.10,Win32,60,61025ae37ef11b136ea224fe,,,,,,,,,2919,51.20001221,-28.00000685,1,0,0,response3disk,,5,16.00001168,-8.000006557,1,0,0,rectangle,16.00001168,-8.000006557,1,0,0,16.00001168,-8.000006557,1,0,0,0,111,111,42,1,,,,,,,,
,,,,,,,,,,,,,FF,,,,,,,,0.7595,,,,,,,,,,,,,,,,,,,,,,6100eaa1c4af53132eaf57eb,61036dede8cc2214e6e7bf1b,2021-07-29_20h13.45.017,Simcolourproject_2stim_asymm_v5,2020.2.10,Win32,60,61025ae37ef11b136ea224fe,,,,,,,,,646,-40.79998916,-75.20000756,1,0,0,response5disk,,3,-16.79998881,16.79999381,1,0,0,rectangle,-16.79998881,16.79999381,1,0,0,-16.79998881,16.79999381,1,0,0,0,112,112,155,1,,,,,,,,
,,,,,,,,,,,,,FF,,,,,,,,0.6373,,,,,,,,,,,,,,,,,,,,,,6100eaa1c4af53132eaf57eb,61036dede8cc2214e6e7bf1b,2021-07-29_20h13.45.017,Simcolourproject_2stim_asymm_v5,2020.2.10,Win32,60,61025ae37ef11b136ea224fe,,,,,,,,,3403,-88.79998988,-30.40000689,1,0,0,response5disk,,2,-3.199988604,2.399993598,1,0,0,rectangle,-3.199988604,2.399993598,1,0,0,-3.199988604,2.399993598,1,0,0,0,113,113,14,1,,,,,,,,
,,,,,,,,,,,,,FF,,,,,,,,0.5352,,,,,,,,,,,,,,,,,,,,,,6100eaa1c4af53132eaf57eb,61036dede8cc2214e6e7bf1b,2021-07-29_20h13.45.017,Simcolourproject_2stim_asymm_v5,2020.2.10,Win32,60,61025ae37ef11b136ea224fe,,,,,,,,,4150,-80.79998976,-54.40000725,1,0,0,response5disk,,2,-3.999988616,2.399993598,1,0,0,rectangle,-3.999988616,2.399993598,1,0,0,-3.999988616,2.399993598,1,0,0,0,114,114,39,1,,,,,,,,
,,,,,,,,,,,,,FF,,,,,,,,0.6686,,,,,,,,,,,,,,,,,,,,,,6100eaa1c4af53132eaf57eb,61036dede8cc2214e6e7bf1b,2021-07-29_20h13.45.017,Simcolourproject_2stim_asymm_v5,2020.2.10,Win32,60,61025ae37ef11b136ea224fe,,,,,,,,,334,-25.59998894,-100.0000079,1,0,0,response5disk,,3,-17.59998882,-4.000006497,1,0,0,rectangle,-17.59998882,-4.000006497,1,0,0,-17.59998882,-4.000006497,1,0,0,0,115,115,133,1,,,,,,,,
,,,,,,,,,,,,,FF,,,,,,,,0.6512,,,,,,,,,,,,,,,,,,,,,,6100eaa1c4af53132eaf57eb,61036dede8cc2214e6e7bf1b,2021-07-29_20h13.45.017,Simcolourproject_2stim_asymm_v5,2020.2.10,Win32,60,61025ae37ef11b136ea224fe,,,,,,,,,2709,84.80001271,-50.40000719,1,0,0,response3disk,,5,1.600060296,-7.200006545,1,0,0,rectangle,1.600060296,-7.200006545,1,0,0,1.600060296,-7.200006545,1,0,0,0,116,116,7,1,,,,,,,,
,,,,,,,,,,,,,FF,,,,,,,,0.5984,,,,,,,,,,,,,,,,,,,,,,6100eaa1c4af53132eaf57eb,61036dede8cc2214e6e7bf1b,2021-07-29_20h13.45.017,Simcolourproject_2stim_asymm_v5,2020.2.10,Win32,60,61025ae37ef11b136ea224fe,,,,,,,,,1344,50.4000122,-84.8000077,1,0,0,response3disk,,4,-5.599988639,4.799993634,1,0,0,rectangle,-5.599988639,4.799993634,1,0,0,-5.599988639,4.799993634,1,0,0,0,117,117,9,1,,,,,,,,
,,,,,,,,,,,,,FF,,,,,,,,0.8328,,,,,,,,,,,,,,,,,,,,,,6100eaa1c4af53132eaf57eb,61036dede8cc2214e6e7bf1b,2021-07-29_20h13.45.017,Simcolourproject_2stim_asymm_v5,2020.2.10,Win32,60,61025ae37ef11b136ea224fe,,,,,,,,,121,90.40001279,-20.00000674,1,0,0,response3disk,,5,19.20001173,-2.400006473,1,0,0,rectangle,19.20001173,-2.400006473,1,0,0,19.20001173,-2.400006473,1,0,0,0,118,118,150,1,,,,,,,,
,,,,,,,,,,,,,FF,,,,,,,,0.8322,,,,,,,,,,,,,,,,,,,,,,6100eaa1c4af53132eaf57eb,61036dede8cc2214e6e7bf1b,2021-07-29_20h13.45.017,Simcolourproject_2stim_asymm_v5,2020.2.10,Win32,60,61025ae37ef11b136ea224fe,,,,,,,,,4138,83.20001268,17.59999382,1,0,0,response1disk,,6,6.400011539,-6.400006533,1,0,0,rectangle,6.400011539,-6.400006533,1,0,0,6.400011539,-6.400006533,1,0,0,0,119,119,148,1,,,,,,,,
,,,,,,,,,,,,,FF,,,,,,,,1.0495,,,,,,,,,,,,,,,,,,,,,,6100eaa1c4af53132eaf57eb,61036dede8cc2214e6e7bf1b,2021-07-29_20h13.45.017,Simcolourproject_2stim_asymm_v5,2020.2.10,Win32,60,61025ae37ef11b136ea224fe,,,,,,,,,2853,-36.7999891,-92.00000781,1,0,0,response5disk,,3,-16.79998881,2.399993598,1,0,0,rectangle,-16.79998881,2.399993598,1,0,0,-16.79998881,2.399993598,1,0,0,0,120,120,118,1,,,,,,,,
,,,,,,,,,,,,,FF,,,,,,,,0.7497,,,,,,,,,,,,,,,,,,,,,,6100eaa1c4af53132eaf57eb,61036dede8cc2214e6e7bf1b,2021-07-29_20h13.45.017,Simcolourproject_2stim_asymm_v5,2020.2.10,Win32,60,61025ae37ef11b136ea224fe,,,,,,,,,320,71.20001251,-48.80000716,1,0,0,response3disk,,5,-9.599988699,5.599993646,1,0,0,rectangle,-9.599988699,5.599993646,1,0,0,-9.599988699,5.599993646,1,0,0,0,121,121,26,1,,,,,,,,
,,,,,,,,,,,,,FF,,,,,,,,0.733,,,,,,,,,,,,,,,,,,,,,,6100eaa1c4af53132eaf57eb,61036dede8cc2214e6e7bf1b,2021-07-29_20h13.45.017,Simcolourproject_2stim_asymm_v5,2020.2.10,Win32,60,61025ae37ef11b136ea224fe,,,,,,,,,1428,92.00001281,16.79999381,1,0,0,response1disk,,6,-19.19998884,2.399993598,1,0,0,rectangle,-19.19998884,2.399993598,1,0,0,-19.19998884,2.399993598,1,0,0,0,122,122,67,1,,,,,,,,
,,,,,,,,,,,,,FF,,,,,,,,0.5012,,,,,,,,,,,,,,,,,,,,,,6100eaa1c4af53132eaf57eb,61036dede8cc2214e6e7bf1b,2021-07-29_20h13.45.017,Simcolourproject_2stim_asymm_v5,2020.2.10,Win32,60,61025ae37ef11b136ea224fe,,,,,,,,,2879,96.00001287,-48.00000715,1,0,0,response3disk,,5,1.14441E-05,1.599993587,1,0,0,rectangle,108.8000131,27.99999398,1,0,0,-7.999988675,-8.800006568,1,0,0,0,123,123,115,1,,response1disk_3,TRUE,6,6,"[66,65,124,268,150,305,88,46,7,70,91,317,197,238,105,33,36,126,293,156]",1.5007,rectangle
,,,,,,,,,,,,,FF,,,,,,,,0.8932,,,,,,,,,,,,,,,,,,,,,,6100eaa1c4af53132eaf57eb,61036dede8cc2214e6e7bf1b,2021-07-29_20h13.45.017,Simcolourproject_2stim_asymm_v5,2020.2.10,Win32,60,61025ae37ef11b136ea224fe,,,,,,,,,4145,-59.19998944,31.99999404,1,0,0,response7disk,,1,-20.79998887,-6.4373E-06,1,0,0,rectangle,-20.79998887,-6.4373E-06,1,0,0,-20.79998887,-6.4373E-06,1,0,0,0,124,124,40,1,,,,,,,,
,,,,,,,,,,,,,FF,,,,,,,,0.5839,,,,,,,,,,,,,,,,,,,,,,6100eaa1c4af53132eaf57eb,61036dede8cc2214e6e7bf1b,2021-07-29_20h13.45.017,Simcolourproject_2stim_asymm_v5,2020.2.10,Win32,60,61025ae37ef11b136ea224fe,,,,,,,,,3217,55.20001227,-96.80000788,1,0,0,response3disk,,4,1.14441E-05,-9.60000658,1,0,0,rectangle,30.4000119,85.59999484,1,0,0,-7.999988675,-4.800006509,1,0,0,0,125,125,57,1,,response1disk_3,TRUE,7,7,"[66,65,124,268,150,305,88,46,7,70,91,317,197,238,105,33,36,126,293,156]",1.2507,rectangle
,,,,,,,,,,,,,FF,,,,,,,,4.0675,,,,,,,,,,,,,,,,,,,,,,6100eaa1c4af53132eaf57eb,61036dede8cc2214e6e7bf1b,2021-07-29_20h13.45.017,Simcolourproject_2stim_asymm_v5,2020.2.10,Win32,60,61025ae37ef11b136ea224fe,,,,,,,,,42,26.40001184,-74.40000755,1,0,0,response3disk,,4,-23.99998891,-2.400006473,1,0,0,rectangle,-23.99998891,-2.400006473,1,0,0,-23.99998891,-2.400006473,1,0,0,0,126,126,0,1,,,,,,,,
,,,,,,,,,,,,,FF,,,,,,,,0.7839,,,,,,,,,,,,,,,,,,,,,,6100eaa1c4af53132eaf57eb,61036dede8cc2214e6e7bf1b,2021-07-29_20h13.45.017,Simcolourproject_2stim_asymm_v5,2020.2.10,Win32,60,61025ae37ef11b136ea224fe,,,,,,,,,1982,-80.79998976,-91.2000078,1,0,0,response5disk,,3,-15.19998878,15.9999938,1,0,0,rectangle,-15.19998878,15.9999938,1,0,0,-15.19998878,15.9999938,1,0,0,0,127,127,56,1,,,,,,,,
,,,,,,,,,,,,,FF,,,,,,,,0.618,,,,,,,,,,,,,,,,,,,,,,6100eaa1c4af53132eaf57eb,61036dede8cc2214e6e7bf1b,2021-07-29_20h13.45.017,Simcolourproject_2stim_asymm_v5,2020.2.10,Win32,60,61025ae37ef11b136ea224fe,,,,,,,,,2766,102.400013,49.5999943,1,0,0,response1disk,,6,14.40001166,-0.800006449,1,0,0,rectangle,14.40001166,-0.800006449,1,0,0,14.40001166,-0.800006449,1,0,0,0,128,128,95,1,,,,,,,,
,,,,,,,,,,,,,FF,,,,,,,,0.6339,,,,,,,,,,,,,,,,,,,,,,6100eaa1c4af53132eaf57eb,61036dede8cc2214e6e7bf1b,2021-07-29_20h13.45.017,Simcolourproject_2stim_asymm_v5,2020.2.10,Win32,60,61025ae37ef11b136ea224fe,,,,,,,,,3166,-82.39994096,-69.60000747,1,0,0,response5disk,,2,-22.39994006,-1.600006461,1,0,0,rectangle,-22.39994006,-1.600006461,1,0,0,-22.39994006,-1.600006461,1,0,0,0,129,129,2,1,,,,,,,,
,,,,,,,,,,,,,FF,,,,,,,,0.5347,,,,,,,,,,,,,,,,,,,,,,6100eaa1c4af53132eaf57eb,61036dede8cc2214e6e7bf1b,2021-07-29_20h13.45.017,Simcolourproject_2stim_asymm_v5,2020.2.10,Win32,60,61025ae37ef11b136ea224fe,,,,,,,,,3799,-40.79998916,-79.20000762,1,0,0,response5disk,,3,-3.199988604,0.799993575,1,0,0,rectangle,-3.199988604,0.799993575,1,0,0,-3.199988604,0.799993575,1,0,0,0,130,130,159,1,,,,,,,,
,,,,,,,,,,,,,FF,,,,,,,,0.6,,,,,,,,,,,,,,,,,,,,,,6100eaa1c4af53132eaf57eb,61036dede8cc2214e6e7bf1b,2021-07-29_20h13.45.017,Simcolourproject_2stim_asymm_v5,2020.2.10,Win32,60,61025ae37ef11b136ea224fe,,,,,,,,,1637,82.40001267,-37.600007,1,0,0,response3disk,,5,17.60006053,-6.4373E-06,1,0,0,rectangle,17.60006053,-6.4373E-06,1,0,0,17.60006053,-6.4373E-06,1,0,0,0,131,131,16,1,,,,,,,,
,,,,,,,,,,,,,FF,,,,,,,,0.6496,,,,,,,,,,,,,,,,,,,,,,6100eaa1c4af53132eaf57eb,61036dede8cc2214e6e7bf1b,2021-07-29_20h13.45.017,Simcolourproject_2stim_asymm_v5,2020.2.10,Win32,60,61025ae37ef11b136ea224fe,,,,,,,,,885,-65.59998953,94.39999497,1,0,0,response7disk,,0,-12.79998875,3.19999361,1,0,0,rectangle,-12.79998875,3.19999361,1,0,0,-12.79998875,3.19999361,1,0,0,0,132,132,77,1,,,,,,,,
,,,,,,,,,,,,,FF,,,,,,,,0.6662,,,,,,,,,,,,,,,,,,,,,,6100eaa1c4af53132eaf57eb,61036dede8cc2214e6e7bf1b,2021-07-29_20h13.45.017,Simcolourproject_2stim_asymm_v5,2020.2.10,Win32,60,61025ae37ef11b136ea224fe,,,,,,,,,3956,-35.99998909,-50.40000719,1,0,0,response5disk,,3,-4.799988627,6.399993658,1,0,0,rectangle,-4.799988627,6.399993658,1,0,0,-4.799988627,6.399993658,1,0,0,0,133,133,121,1,,,,,,,,
,,,,,,,,,,,,,FF,,,,,,,,0.7331,,,,,,,,,,,,,,,,,,,,,,6100eaa1c4af53132eaf57eb,61036dede8cc2214e6e7bf1b,2021-07-29_20h13.45.017,Simcolourproject_2stim_asymm_v5,2020.2.10,Win32,60,61025ae37ef11b136ea224fe,,,,,,,,,2608,-54.39994054,71.19997021,1,0,0,response7disk,,0,-18.39994,2.399993598,1,0,0,rectangle,-18.39994,2.399993598,1,0,0,-18.39994,2.399993598,1,0,0,0,134,134,74,1,,,,,,,,
,,,,,,,,,,,,,FF,,,,,,,,1.2346,,,,,,,,,,,,,,,,,,,,,,6100eaa1c4af53132eaf57eb,61036dede8cc2214e6e7bf1b,2021-07-29_20h13.45.017,Simcolourproject_2stim_asymm_v5,2020.2.10,Win32,60,61025ae37ef11b136ea224fe,,,,,,,,,2143,-75.99998969,-106.400008,1,0,0,response5disk,,3,-1.59998858,6.399993658,1,0,0,rectangle,-1.59998858,6.399993658,1,0,0,-1.59998858,6.399993658,1,0,0,0,135,135,108,1,,,,,,,,
,,,,,,,,,,,,,FF,,,,,,,,0.5198,,,,,,,,,,,,,,,,,,,,,,6100eaa1c4af53132eaf57eb,61036dede8cc2214e6e7bf1b,2021-07-29_20h13.45.017,Simcolourproject_2stim_asymm_v5,2020.2.10,Win32,60,61025ae37ef11b136ea224fe,,,,,,,,,2814,64.0000124,-71.2000075,1,0,0,response3disk,,4,8.800011575,-4.800006509,1,0,0,rectangle,8.800011575,-4.800006509,1,0,0,8.800011575,-4.800006509,1,0,0,0,136,136,135,1,,,,,,,,
,,,,,,,,,,,,,FF,,,,,,,,0.6372,,,,,,,,,,,,,,,,,,,,,,6100eaa1c4af53132eaf57eb,61036dede8cc2214e6e7bf1b,2021-07-29_20h13.45.017,Simcolourproject_2stim_asymm_v5,2020.2.10,Win32,60,61025ae37ef11b136ea224fe,,,,,,,,,3079,22.40001178,-73.60000753,1,0,0,response3disk,,4,-3.999988616,14.39999378,1,0,0,rectangle,-3.999988616,14.39999378,1,0,0,-3.999988616,14.39999378,1,0,0,0,137,137,71,1,,,,,,,,
,,,,,,,,,,,,,FF,,,,,,,,1.0129,,,,,,,,,,,,,,,,,,,,,,6100eaa1c4af53132eaf57eb,61036dede8cc2214e6e7bf1b,2021-07-29_20h13.45.017,Simcolourproject_2stim_asymm_v5,2020.2.10,Win32,60,61025ae37ef11b136ea224fe,,,,,,,,,2584,-84.79998982,-40.00000703,1,0,0,response5disk,,2,-3.199988604,-4.800006509,1,0,0,rectangle,-3.199988604,-4.800006509,1,0,0,-3.199988604,-4.800006509,1,0,0,0,138,138,117,1,,,,,,,,
,,,,,,,,,,,,,FF,,,,,,,,0.6503,,,,,,,,,,,,,,,,,,,,,,6100eaa1c4af53132eaf57eb,61036dede8cc2214e6e7bf1b,2021-07-29_20h13.45.017,Simcolourproject_2stim_asymm_v5,2020.2.10,Win32,60,61025ae37ef11b136ea224fe,,,,,,,,,3458,-52.79998934,-84.00000769,1,0,0,response5disk,,3,12.80001163,-4.000006497,1,0,0,rectangle,12.80001163,-4.000006497,1,0,0,12.80001163,-4.000006497,1,0,0,0,139,139,51,1,,,,,,,,
,,,,,,,,,,,,,FF,,,,,,,,0.7144,,,,,,,,,,,,,,,,,,,,,,6100eaa1c4af53132eaf57eb,61036dede8cc2214e6e7bf1b,2021-07-29_20h13.45.017,Simcolourproject_2stim_asymm_v5,2020.2.10,Win32,60,61025ae37ef11b136ea224fe,,,,,,,,,3510,-35.99998909,105.5999951,1,0,0,response7disk,,0,-6.399939823,-15.20000666,1,0,0,rectangle,-6.399939823,-15.20000666,1,0,0,-6.399939823,-15.20000666,1,0,0,0,140,140,113,1,,,,,,,,
,,,,,,,,,,,,,FF,,,,,,,,0.7874,,,,,,,,,,,,,,,,,,,,,,6100eaa1c4af53132eaf57eb,61036dede8cc2214e6e7bf1b,2021-07-29_20h13.45.017,Simcolourproject_2stim_asymm_v5,2020.2.10,Win32,60,61025ae37ef11b136ea224fe,,,,,,,,,4083,98.40001291,19.99999386,1,0,0,response1disk,,6,26.40001184,-5.600006521,1,0,0,rectangle,26.40001184,-5.600006521,1,0,0,26.40001184,-5.600006521,1,0,0,0,141,141,44,1,,,,,,,,
,,,,,,,,,,,,,FF,,,,,,,,0.984,,,,,,,,,,,,,,,,,,,,,,6100eaa1c4af53132eaf57eb,61036dede8cc2214e6e7bf1b,2021-07-29_20h13.45.017,Simcolourproject_2stim_asymm_v5,2020.2.10,Win32,60,61025ae37ef11b136ea224fe,,,,,,,,,2061,-75.19998968,-18.40000671,1,0,0,response5disk,,2,-27.19998896,-8.800006568,1,0,0,rectangle,-27.19998896,-8.800006568,1,0,0,-27.19998896,-8.800006568,1,0,0,0,142,142,102,1,,,,,,,,
,,,,,,,,,,,,,FF,,,,,,,,1.003,,,,,,,,,,,,,,,,,,,,,,6100eaa1c4af53132eaf57eb,61036dede8cc2214e6e7bf1b,2021-07-29_20h13.45.017,Simcolourproject_2stim_asymm_v5,2020.2.10,Win32,60,61025ae37ef11b136ea224fe,,,,,,,,,1964,-102.3999413,32.79999405,1,0,0,response7disk,,1,-15.19998878,-10.40000659,1,0,0,rectangle,-15.19998878,-10.40000659,1,0,0,-15.19998878,-10.40000659,1,0,0,0,143,143,47,1,,,,,,,,
,,,,,,,,,,,,,FF,,,,,,,,0.9191,,,,,,,,,,,,,,,,,,,,,,6100eaa1c4af53132eaf57eb,61036dede8cc2214e6e7bf1b,2021-07-29_20h13.45.017,Simcolourproject_2stim_asymm_v5,2020.2.10,Win32,60,61025ae37ef11b136ea224fe,,,,,,,,,3396,-83.99998981,-20.00000674,1,0,0,response5disk,,2,-15.99998879,-7.200006545,1,0,0,rectangle,-15.99998879,-7.200006545,1,0,0,-15.99998879,-7.200006545,1,0,0,0,144,144,110,1,,,,,,,,
,,,,,,,,,,,,,FF,,,,,,,,0.5659,,,,,,,,,,,,,,,,,,,,,,6100eaa1c4af53132eaf57eb,61036dede8cc2214e6e7bf1b,2021-07-29_20h13.45.017,Simcolourproject_2stim_asymm_v5,2020.2.10,Win32,60,61025ae37ef11b136ea224fe,,,,,,,,,893,-111.9999902,51.99999434,1,0,0,response7disk,,1,1.14441E-05,3.999993622,1,0,0,rectangle,1.14441E-05,3.999993622,1,0,0,1.14441E-05,3.999993622,1,0,0,0,145,145,81,1,,,,,,,,
,,,,,,,,,,,,,FF,,,,,,,,0.5331,,,,,,,,,,,,,,,,,,,,,,6100eaa1c4af53132eaf57eb,61036dede8cc2214e6e7bf1b,2021-07-29_20h13.45.017,Simcolourproject_2stim_asymm_v5,2020.2.10,Win32,60,61025ae37ef11b136ea224fe,,,,,,,,,373,-103.1999901,54.39999437,1,0,0,response7disk,,1,-27.19998896,5.599993646,1,0,0,rectangle,-27.19998896,5.599993646,1,0,0,-27.19998896,5.599993646,1,0,0,0,146,146,122,1,,,,,,,,
,,,,,,,,,,,,,FF,,,,,,,,0.7156,,,,,,,,,,,,,,,,,,,,,,6100eaa1c4af53132eaf57eb,61036dede8cc2214e6e7bf1b,2021-07-29_20h13.45.017,Simcolourproject_2stim_asymm_v5,2020.2.10,Win32,60,61025ae37ef11b136ea224fe,,,,,,,,,2873,85.60001272,-124.8000083,1,0,0,response3disk,,4,-2.399939764,-5.600006521,1,0,0,rectangle,-2.399939764,-5.600006521,1,0,0,-2.399939764,-5.600006521,1,0,0,0,147,147,22,1,,,,,,,,
,,,,,,,,,,,,,FF,,,,,,,,0.5501,,,,,,,,,,,,,,,,,,,,,,6100eaa1c4af53132eaf57eb,61036dede8cc2214e6e7bf1b,2021-07-29_20h13.45.017,Simcolourproject_2stim_asymm_v5,2020.2.10,Win32,60,61025ae37ef11b136ea224fe,,,,,,,,,618,-79.19998974,51.19996991,1,0,0,response7disk,,1,-24.79998893,8.799993694,1,0,0,rectangle,-24.79998893,8.799993694,1,0,0,-24.79998893,8.799993694,1,0,0,0,148,148,25,1,,,,,,,,
,,,,,,,,,,,,,FF,,,,,,,,1.216,,,,,,,,,,,,,,,,,,,,,,6100eaa1c4af53132eaf57eb,61036dede8cc2214e6e7bf1b,2021-07-29_20h13.45.017,Simcolourproject_2stim_asymm_v5,2020.2.10,Win32,60,61025ae37ef11b136ea224fe,,,,,,,,,877,49.60006101,59.19997003,1,0,0,response1disk,,7,0.800011456,7.999993682,1,0,0,rectangle,-43.1999892,127.9999955,1,0,0,-6.399939823,0.799993575,1,0,0,0,149,149,131,1,,response7disk_3,TRUE,0,0,"[66,65,124,268,150,305,88,46,7,70,91,317,197,238,105,33,36,126,293,156]",1.5999,rectangle
,,,,,,,,,,,,,FF,,,,,,,,9.9753,,,,,,,,,,,,,,,,,,,,,,6100eaa1c4af53132eaf57eb,61036dede8cc2214e6e7bf1b,2021-07-29_20h13.45.017,Simcolourproject_2stim_asymm_v5,2020.2.10,Win32,60,61025ae37ef11b136ea224fe,,,,,,,,,1607,80.00001264,-64.8000074,1,0,0,response3disk,,5,14.40001166,-8.000006557,1,0,0,rectangle,14.40001166,-8.000006557,1,0,0,14.40001166,-8.000006557,1,0,0,0,150,150,10,1,,,,,,,,
,,,,,,,,,,,,,FF,,,,,,,,0.6531,,,,,,,,,,,,,,,,,,,,,,6100eaa1c4af53132eaf57eb,61036dede8cc2214e6e7bf1b,2021-07-29_20h13.45.017,Simcolourproject_2stim_asymm_v5,2020.2.10,Win32,60,61025ae37ef11b136ea224fe,,,,,,,,,2042,-93.59998995,35.9999941,1,0,0,response7disk,,1,-31.19998902,5.599993646,1,0,0,rectangle,-31.19998902,5.599993646,1,0,0,-31.19998902,5.599993646,1,0,0,0,151,151,152,1,,,,,,,,
,,,,,,,,,,,,,FF,,,,,,,,0.5805,,,,,,,,,,,,,,,,,,,,,,6100eaa1c4af53132eaf57eb,61036dede8cc2214e6e7bf1b,2021-07-29_20h13.45.017,Simcolourproject_2stim_asymm_v5,2020.2.10,Win32,60,61025ae37ef11b136ea224fe,,,,,,,,,801,-46.39994042,108.7999952,1,0,0,response7disk,,0,-0.799988568,-4.800006509,1,0,0,rectangle,-0.799988568,-4.800006509,1,0,0,-0.799988568,-4.800006509,1,0,0,0,152,152,45,1,,,,,,,,
,,,,,,,,,,,,,FF,,,,,,,,0.9163,,,,,,,,,,,,,,,,,,,,,,6100eaa1c4af53132eaf57eb,61036dede8cc2214e6e7bf1b,2021-07-29_20h13.45.017,Simcolourproject_2stim_asymm_v5,2020.2.10,Win32,60,61025ae37ef11b136ea224fe,,,,,,,,,2421,-97.59999001,39.99999416,1,0,0,response7disk,,1,-34.39994024,9.599993706,1,0,0,rectangle,-34.39994024,9.599993706,1,0,0,-34.39994024,9.599993706,1,0,0,0,153,153,98,1,,,,,,,,
,,,,,,,,,,,,,FF,,,,,,,,0.5819,,,,,,,,,,,,,,,,,,,,,,6100eaa1c4af53132eaf57eb,61036dede8cc2214e6e7bf1b,2021-07-29_20h13.45.017,Simcolourproject_2stim_asymm_v5,2020.2.10,Win32,60,61025ae37ef11b136ea224fe,,,,,,,,,3147,-91.99998993,51.19996991,1,0,0,response7disk,,1,-20.79998887,-0.800006449,1,0,0,rectangle,-20.79998887,-0.800006449,1,0,0,-20.79998887,-0.800006449,1,0,0,0,154,154,50,1,,,,,,,,
,,,,,,,,,,,,,FF,,,,,,,,0.6002,,,,,,,,,,,,,,,,,,,,,,6100eaa1c4af53132eaf57eb,61036dede8cc2214e6e7bf1b,2021-07-29_20h13.45.017,Simcolourproject_2stim_asymm_v5,2020.2.10,Win32,60,61025ae37ef11b136ea224fe,,,,,,,,,1526,-95.19998997,40.79999417,1,0,0,response7disk,,1,-25.59998894,-0.800006449,1,0,0,rectangle,56.00001228,113.5999953,1,0,0,-11.19998872,-4.000006497,1,0,0,0,155,155,116,1,,response1disk_3,TRUE,7,7,"[66,65,124,268,150,305,88,46,7,70,91,317,197,238,105,33,36,126,293,156]",1.3671,rectangle
,,,,,,,,,,,,,FF,,,,,,,,0.6523,,,,,,,,,,,,,,,,,,,,,,6100eaa1c4af53132eaf57eb,61036dede8cc2214e6e7bf1b,2021-07-29_20h13.45.017,Simcolourproject_2stim_asymm_v5,2020.2.10,Win32,60,61025ae37ef11b136ea224fe,,,,,,,,,1926,-39.99998915,-103.200008,1,0,0,response5disk,,3,11.20001161,3.19999361,1,0,0,rectangle,11.20001161,3.19999361,1,0,0,11.20001161,3.19999361,1,0,0,0,156,156,87,1,,,,,,,,
,,,,,,,,,,,,,FF,,,,,,,,0.6827,,,,,,,,,,,,,,,,,,,,,,6100eaa1c4af53132eaf57eb,61036dede8cc2214e6e7bf1b,2021-07-29_20h13.45.017,Simcolourproject_2stim_asymm_v5,2020.2.10,Win32,60,61025ae37ef11b136ea224fe,,,,,,,,,3430,-79.19998974,33.59999406,1,0,0,response7disk,,1,-15.99998879,-0.800006449,1,0,0,rectangle,-15.99998879,-0.800006449,1,0,0,-15.99998879,-0.800006449,1,0,0,0,157,157,143,1,,,,,,,,
,,,,,,,,,,,,,FF,,,,,,,,0.4812,,,,,,,,,,,,,,,,,,,,,,6100eaa1c4af53132eaf57eb,61036dede8cc2214e6e7bf1b,2021-07-29_20h13.45.017,Simcolourproject_2stim_asymm_v5,2020.2.10,Win32,60,61025ae37ef11b136ea224fe,,,,,,,,,1895,-90.39994107,51.19996991,1,0,0,response7disk,,1,-19.19998884,-12.00000662,1,0,0,rectangle,-19.19998884,-12.00000662,1,0,0,-19.19998884,-12.00000662,1,0,0,0,158,158,84,1,,,,,,,,
,,,,,,,,,,,,,FF,,,,,,,,0.7331,,,,,,,,,,,,,,,,,,,,,,6100eaa1c4af53132eaf57eb,61036dede8cc2214e6e7bf1b,2021-07-29_20h13.45.017,Simcolourproject_2stim_asymm_v5,2020.2.10,Win32,60,61025ae37ef11b136ea224fe,,,,,,,,,3455,-71.99998963,-108.8000081,1,0,0,response5disk,,3,1.14441E-05,11.19999373,1,0,0,rectangle,1.14441E-05,11.19999373,1,0,0,1.14441E-05,11.19999373,1,0,0,0,159,159,107,1,,,,,,,,
,,,,,,,,,,,,,FF,,,,,,,,0.667,,,,,,,,,,,,,,,,,,,,,,6100eaa1c4af53132eaf57eb,61036dede8cc2214e6e7bf1b,2021-07-29_20h13.45.017,Simcolourproject_2stim_asymm_v5,2020.2.10,Win32,60,61025ae37ef11b136ea224fe,,,,,,,,,1360,72.00001252,-80.00000763,1,0,0,response3disk,,4,-0.799988568,-6.4373E-06,1,0,0,rectangle,-0.799988568,-6.4373E-06,1,0,0,-0.799988568,-6.4373E-06,1,0,0,1,0,160,31,1,,,,,,,,
,,,,,,,,,,,,,FF,,,,,,,,0.4829,,,,,,,,,,,,,,,,,,,,,,6100eaa1c4af53132eaf57eb,61036dede8cc2214e6e7bf1b,2021-07-29_20h13.45.017,Simcolourproject_2stim_asymm_v5,2020.2.10,Win32,60,61025ae37ef11b136ea224fe,,,,,,,,,1847,49.60006101,-68.80000746,1,0,0,response3disk,,4,12.80001163,-12.00000662,1,0,0,rectangle,12.80001163,-12.00000662,1,0,0,12.80001163,-12.00000662,1,0,0,1,1,161,98,1,,,,,,,,
,,,,,,,,,,,,,FF,,,,,,,,0.5327,,,,,,,,,,,,,,,,,,,,,,6100eaa1c4af53132eaf57eb,61036dede8cc2214e6e7bf1b,2021-07-29_20h13.45.017,Simcolourproject_2stim_asymm_v5,2020.2.10,Win32,60,61025ae37ef11b136ea224fe,,,,,,,,,753,-63.99998951,-112.0000081,1,0,0,response5disk,,3,-1.59998858,11.19999373,1,0,0,rectangle,-1.59998858,11.19999373,1,0,0,-1.59998858,11.19999373,1,0,0,1,2,162,119,1,,,,,,,,
,,,,,,,,,,,,,FF,,,,,,,,0.6853,,,,,,,,,,,,,,,,,,,,,,6100eaa1c4af53132eaf57eb,61036dede8cc2214e6e7bf1b,2021-07-29_20h13.45.017,Simcolourproject_2stim_asymm_v5,2020.2.10,Win32,60,61025ae37ef11b136ea224fe,,,,,,,,,439,-91.19998991,-80.00000763,1,0,0,response5disk,,2,-15.99998879,-10.40000659,1,0,0,rectangle,-15.99998879,-10.40000659,1,0,0,-15.99998879,-10.40000659,1,0,0,1,3,163,4,1,,,,,,,,
,,,,,,,,,,,,,FF,,,,,,,,0.9009,,,,,,,,,,,,,,,,,,,,,,6100eaa1c4af53132eaf57eb,61036dede8cc2214e6e7bf1b,2021-07-29_20h13.45.017,Simcolourproject_2stim_asymm_v5,2020.2.10,Win32,60,61025ae37ef11b136ea224fe,,,,,,,,,3340,-88.79998988,-36.80000699,1,0,0,response5disk,,2,-36.7999891,-16.80000669,1,0,0,rectangle,-36.7999891,-16.80000669,1,0,0,-36.7999891,-16.80000669,1,0,0,1,4,164,148,1,,,,,,,,
,,,,,,,,,,,,,FF,,,,,,,,0.5657,,,,,,,,,,,,,,,,,,,,,,6100eaa1c4af53132eaf57eb,61036dede8cc2214e6e7bf1b,2021-07-29_20h13.45.017,Simcolourproject_2stim_asymm_v5,2020.2.10,Win32,60,61025ae37ef11b136ea224fe,,,,,,,,,665,-77.59998971,-36.00000697,1,0,0,response5disk,,2,-16.79998881,-12.80000663,1,0,0,rectangle,-16.79998881,-12.80000663,1,0,0,-16.79998881,-12.80000663,1,0,0,1,5,165,127,1,,,,,,,,
,,,,,,,,,,,,,FF,,,,,,,,0.4163,,,,,,,,,,,,,,,,,,,,,,6100eaa1c4af53132eaf57eb,61036dede8cc2214e6e7bf1b,2021-07-29_20h13.45.017,Simcolourproject_2stim_asymm_v5,2020.2.10,Win32,60,61025ae37ef11b136ea224fe,,,,,,,,,601,70.40001249,35.9999941,1,0,0,response1disk,,6,10.4000116,-6.4373E-06,1,0,0,rectangle,10.4000116,-6.4373E-06,1,0,0,10.4000116,-6.4373E-06,1,0,0,1,6,166,54,1,,,,,,,,
,,,,,,,,,,,,,FF,,,,,,,,0.9484,,,,,,,,,,,,,,,,,,,,,,6100eaa1c4af53132eaf57eb,61036dede8cc2214e6e7bf1b,2021-07-29_20h13.45.017,Simcolourproject_2stim_asymm_v5,2020.2.10,Win32,60,61025ae37ef11b136ea224fe,,,,,,,,,3367,56.00001228,19.99999386,1,0,0,response1disk,,6,4.000011504,-6.4373E-06,1,0,0,rectangle,4.000011504,-6.4373E-06,1,0,0,4.000011504,-6.4373E-06,1,0,0,1,7,167,13,1,,,,,,,,
,,,,,,,,,,,,,FF,,,,,,,,0.7013,,,,,,,,,,,,,,,,,,,,,,6100eaa1c4af53132eaf57eb,61036dede8cc2214e6e7bf1b,2021-07-29_20h13.45.017,Simcolourproject_2stim_asymm_v5,2020.2.10,Win32,60,61025ae37ef11b136ea224fe,,,,,,,,,1274,36.80001199,-88.00000775,1,0,0,response3disk,,4,-6.399939823,10.39999372,1,0,0,rectangle,-6.399939823,10.39999372,1,0,0,-6.399939823,10.39999372,1,0,0,1,8,168,41,1,,,,,,,,
,,,,,,,,,,,,,FF,,,,,,,,0.6031,,,,,,,,,,,,,,,,,,,,,,6100eaa1c4af53132eaf57eb,61036dede8cc2214e6e7bf1b,2021-07-29_20h13.45.017,Simcolourproject_2stim_asymm_v5,2020.2.10,Win32,60,61025ae37ef11b136ea224fe,,,,,,,,,3744,-82.39994096,27.99999398,1,0,0,response7disk,,1,-19.99998885,3.19999361,1,0,0,rectangle,-19.99998885,3.19999361,1,0,0,-19.99998885,3.19999361,1,0,0,1,9,169,154,1,,,,,,,,
,,,,,,,,,,,,,FF,,,,,,,,0.6663,,,,,,,,,,,,,,,,,,,,,,6100eaa1c4af53132eaf57eb,61036dede8cc2214e6e7bf1b,2021-07-29_20h13.45.017,Simcolourproject_2stim_asymm_v5,2020.2.10,Win32,60,61025ae37ef11b136ea224fe,,,,,,,,,4065,-64.79998952,-86.40000772,1,0,0,response5disk,,3,-3.199988604,-13.60000664,1,0,0,rectangle,-3.199988604,-13.60000664,1,0,0,-3.199988604,-13.60000664,1,0,0,1,10,170,65,1,,,,,,,,
,,,,,,,,,,,,,FF,,,,,,,,1.1339,,,,,,,,,,,,,,,,,,,,,,6100eaa1c4af53132eaf57eb,61036dede8cc2214e6e7bf1b,2021-07-29_20h13.45.017,Simcolourproject_2stim_asymm_v5,2020.2.10,Win32,60,61025ae37ef11b136ea224fe,,,,,,,,,1525,-60.79998946,34.39999408,1,0,0,response7disk,,1,-7.199988663,-4.800006509,1,0,0,rectangle,-7.199988663,-4.800006509,1,0,0,-7.199988663,-4.800006509,1,0,0,1,11,171,87,1,,,,,,,,
,,,,,,,,,,,,,FF,,,,,,,,0.468,,,,,,,,,,,,,,,,,,,,,,6100eaa1c4af53132eaf57eb,61036dede8cc2214e6e7bf1b,2021-07-29_20h13.45.017,Simcolourproject_2stim_asymm_v5,2020.2.10,Win32,60,61025ae37ef11b136ea224fe,,,,,,,,,2165,-63.99998951,35.19996967,1,0,0,response7disk,,1,-10.39993988,7.999993682,1,0,0,rectangle,-10.39993988,7.999993682,1,0,0,-10.39993988,7.999993682,1,0,0,1,12,172,130,1,,,,,,,,
,,,,,,,,,,,,,FF,,,,,,,,0.4993,,,,,,,,,,,,,,,,,,,,,,6100eaa1c4af53132eaf57eb,61036dede8cc2214e6e7bf1b,2021-07-29_20h13.45.017,Simcolourproject_2stim_asymm_v5,2020.2.10,Win32,60,61025ae37ef11b136ea224fe,,,,,,,,,1691,-74.39994084,43.19996979,1,0,0,response7disk,,1,-30.39994018,5.599993646,1,0,0,rectangle,-30.39994018,5.599993646,1,0,0,-30.39994018,5.599993646,1,0,0,1,13,173,90,1,,,,,,,,
,,,,,,,,,,,,,FF,,,,,,,,0.7174,,,,,,,,,,,,,,,,,,,,,,6100eaa1c4af53132eaf57eb,61036dede8cc2214e6e7bf1b,2021-07-29_20h13.45.017,Simcolourproject_2stim_asymm_v5,2020.2.10,Win32,60,61025ae37ef11b136ea224fe,,,,,,,,,1859,46.40001214,-96.00000787,0,0,1,response3disk,,4,4.000011504,4.799993634,1,0,0,rectangle,4.000011504,4.799993634,1,0,0,4.000011504,4.799993634,1,0,0,1,14,174,96,1,,,,,,,,
,,,,,,,,,,,,,FF,,,,,,,,0.7044,,,,,,,,,,,,,,,,,,,,,,6100eaa1c4af53132eaf57eb,61036dede8cc2214e6e7bf1b,2021-07-29_20h13.45.017,Simcolourproject_2stim_asymm_v5,2020.2.10,Win32,60,61025ae37ef11b136ea224fe,,,,,,,,,3362,37.60006083,-79.20000762,1,0,0,response3disk,,4,1.14441E-05,-9.60000658,0,0,1,rectangle,1.14441E-05,-9.60000658,0,0,1,1.14441E-05,-9.60000658,0,0,1,1,15,175,99,1,,,,,,,,
,,,,,,,,,,,,,FF,,,,,,,,0.6789,,,,,,,,,,,,,,,,,,,,,,6100eaa1c4af53132eaf57eb,61036dede8cc2214e6e7bf1b,2021-07-29_20h13.45.017,Simcolourproject_2stim_asymm_v5,2020.2.10,Win32,60,61025ae37ef11b136ea224fe,,,,,,,,,3694,-43.1999892,-62.40000737,1,0,0,response5disk,,3,-20.79998887,-0.800006449,1,0,0,rectangle,-20.79998887,-0.800006449,1,0,0,-20.79998887,-0.800006449,1,0,0,1,16,176,125,1,,,,,,,,
,,,,,,,,,,,,,FF,,,,,,,,0.4687,,,,,,,,,,,,,,,,,,,,,,6100eaa1c4af53132eaf57eb,61036dede8cc2214e6e7bf1b,2021-07-29_20h13.45.017,Simcolourproject_2stim_asymm_v5,2020.2.10,Win32,60,61025ae37ef11b136ea224fe,,,,,,,,,2748,-42.39994036,-108.000008,1,0,0,response5disk,,3,-19.19998884,-1.600006461,1,0,0,rectangle,-19.19998884,-1.600006461,1,0,0,-19.19998884,-1.600006461,1,0,0,1,17,177,142,1,,,,,,,,
,,,,,,,,,,,,,FF,,,,,,,,0.4341,,,,,,,,,,,,,,,,,,,,,,6100eaa1c4af53132eaf57eb,61036dede8cc2214e6e7bf1b,2021-07-29_20h13.45.017,Simcolourproject_2stim_asymm_v5,2020.2.10,Win32,60,61025ae37ef11b136ea224fe,,,,,,,,,196,-83.99998981,-26.40000683,1,0,0,response5disk,,2,-18.39994,3.999993622,1,0,0,rectangle,-18.39994,3.999993622,1,0,0,-18.39994,3.999993622,1,0,0,1,18,178,51,1,,,,,,,,
,,,,,,,,,,,,,FF,,,,,,,,0.6179,,,,,,,,,,,,,,,,,,,,,,6100eaa1c4af53132eaf57eb,61036dede8cc2214e6e7bf1b,2021-07-29_20h13.45.017,Simcolourproject_2stim_asymm_v5,2020.2.10,Win32,60,61025ae37ef11b136ea224fe,,,,,,,,,3943,-76.7999897,-25.60000682,1,0,0,response5disk,,2,-12.79998875,-3.200006485,1,0,0,rectangle,-12.79998875,-3.200006485,1,0,0,-12.79998875,-3.200006485,1,0,0,1,19,179,66,1,,,,,,,,
,,,,,,,,,,,,,FF,,,,,,,,0.6503,,,,,,,,,,,,,,,,,,,,,,6100eaa1c4af53132eaf57eb,61036dede8cc2214e6e7bf1b,2021-07-29_20h13.45.017,Simcolourproject_2stim_asymm_v5,2020.2.10,Win32,60,61025ae37ef11b136ea224fe,,,,,,,,,3509,66.40001243,-119.2000082,1,0,0,response3disk,,4,-24.79998893,-5.600006521,1,0,0,rectangle,-24.79998893,-5.600006521,1,0,0,-24.79998893,-5.600006521,1,0,0,1,20,180,151,1,,,,,,,,
,,,,,,,,,,,,,FF,,,,,,,,0.5344,,,,,,,,,,,,,,,,,,,,,,6100eaa1c4af53132eaf57eb,61036dede8cc2214e6e7bf1b,2021-07-29_20h13.45.017,Simcolourproject_2stim_asymm_v5,2020.2.10,Win32,60,61025ae37ef11b136ea224fe,,,,,,,,,2586,31.20001191,-76.80000758,1,0,0,response3disk,,4,-17.59998882,2.399993598,1,0,0,rectangle,-17.59998882,2.399993598,1,0,0,-17.59998882,2.399993598,1,0,0,1,21,181,63,1,,,,,,,,
,,,,,,,,,,,,,FF,,,,,,,,0.6833,,,,,,,,,,,,,,,,,,,,,,6100eaa1c4af53132eaf57eb,61036dede8cc2214e6e7bf1b,2021-07-29_20h13.45.017,Simcolourproject_2stim_asymm_v5,2020.2.10,Win32,60,61025ae37ef11b136ea224fe,,,,,,,,,4051,-47.19998926,-64.8000074,1,0,0,response5disk,,3,-25.59998894,-13.60000664,1,0,0,rectangle,-25.59998894,-13.60000664,1,0,0,-25.59998894,-13.60000664,1,0,0,1,22,182,78,1,,,,,,,,
,,,,,,,,,,,,,FF,,,,,,,,1.068,,,,,,,,,,,,,,,,,,,,,,6100eaa1c4af53132eaf57eb,61036dede8cc2214e6e7bf1b,2021-07-29_20h13.45.017,Simcolourproject_2stim_asymm_v5,2020.2.10,Win32,60,61025ae37ef11b136ea224fe,,,,,,,,,2009,76.00001258,51.19996991,1,0,0,response1disk,,6,8.000011563,11.99999374,1,0,0,rectangle,8.000011563,11.99999374,1,0,0,8.000011563,11.99999374,1,0,0,1,23,183,60,1,,,,,,,,
,,,,,,,,,,,,,FF,,,,,,,,1.45,,,,,,,,,,,,,,,,,,,,,,6100eaa1c4af53132eaf57eb,61036dede8cc2214e6e7bf1b,2021-07-29_20h13.45.017,Simcolourproject_2stim_asymm_v5,2020.2.10,Win32,60,61025ae37ef11b136ea224fe,,,,,,,,,193,50.4000122,-51.2000072,1,0,0,response3disk,,4,-14.39993994,7.19999367,1,0,0,rectangle,-14.39993994,7.19999367,1,0,0,-14.39993994,7.19999367,1,0,0,1,24,184,92,1,,,,,,,,
,,,,,,,,,,,,,FF,,,,,,,,0.8341,,,,,,,,,,,,,,,,,,,,,,6100eaa1c4af53132eaf57eb,61036dede8cc2214e6e7bf1b,2021-07-29_20h13.45.017,Simcolourproject_2stim_asymm_v5,2020.2.10,Win32,60,61025ae37ef11b136ea224fe,,,,,,,,,1501,113.6000131,32.79999405,1,0,0,response1disk,,6,-13.59998876,-5.600006521,1,0,0,rectangle,-13.59998876,-5.600006521,1,0,0,-13.59998876,-5.600006521,1,0,0,1,25,185,95,1,,,,,,,,
,,,,,,,,,,,,,FF,,,,,,,,0.6189,,,,,,,,,,,,,,,,,,,,,,6100eaa1c4af53132eaf57eb,61036dede8cc2214e6e7bf1b,2021-07-29_20h13.45.017,Simcolourproject_2stim_asymm_v5,2020.2.10,Win32,60,61025ae37ef11b136ea224fe,,,,,,,,,1247,80.80001265,24.79999393,1,0,0,response1disk,,6,8.000011563,-7.200006545,1,0,0,rectangle,8.000011563,-7.200006545,1,0,0,8.000011563,-7.200006545,1,0,0,1,26,186,121,1,,,,,,,,
,,,,,,,,,,,,,FF,,,,,,,,0.819,,,,,,,,,,,,,,,,,,,,,,6100eaa1c4af53132eaf57eb,61036dede8cc2214e6e7bf1b,2021-07-29_20h13.45.017,Simcolourproject_2stim_asymm_v5,2020.2.10,Win32,60,61025ae37ef11b136ea224fe,,,,,,,,,4187,-71.19998962,-72.80000752,1,0,0,response5disk,,3,-13.59998876,-16.00000668,1,0,0,rectangle,-13.59998876,-16.00000668,1,0,0,-13.59998876,-16.00000668,1,0,0,1,27,187,75,1,,,,,,,,
,,,,,,,,,,,,,FF,,,,,,,,1.1859,,,,,,,,,,,,,,,,,,,,,,6100eaa1c4af53132eaf57eb,61036dede8cc2214e6e7bf1b,2021-07-29_20h13.45.017,Simcolourproject_2stim_asymm_v5,2020.2.10,Win32,60,61025ae37ef11b136ea224fe,,,,,,,,,1561,24.0000118,110.3999952,1,0,0,response1disk,,7,1.14441E-05,7.19999367,1,0,0,rectangle,1.14441E-05,7.19999367,1,0,0,1.14441E-05,7.19999367,1,0,0,1,28,188,120,1,,,,,,,,
,,,,,,,,,,,,,FF,,,,,,,,0.7169,,,,,,,,,,,,,,,,,,,,,,6100eaa1c4af53132eaf57eb,61036dede8cc2214e6e7bf1b,2021-07-29_20h13.45.017,Simcolourproject_2stim_asymm_v5,2020.2.10,Win32,60,61025ae37ef11b136ea224fe,,,,,,,,,616,-87.19998986,-52.80000722,1,0,0,response5disk,,2,-18.39994,-13.60000664,1,0,0,rectangle,-18.39994,-13.60000664,1,0,0,-18.39994,-13.60000664,1,0,0,1,29,189,46,1,,,,,,,,
,,,,,,,,,,,,,FF,,,,,,,,0.5018,,,,,,,,,,,,,,,,,,,,,,6100eaa1c4af53132eaf57eb,61036dede8cc2214e6e7bf1b,2021-07-29_20h13.45.017,Simcolourproject_2stim_asymm_v5,2020.2.10,Win32,60,61025ae37ef11b136ea224fe,,,,,,,,,1116,-100.7999901,-17.6000067,1,0,0,response5disk,,2,-14.39993994,13.59999377,1,0,0,rectangle,-14.39993994,13.59999377,1,0,0,-14.39993994,13.59999377,1,0,0,1,30,190,48,1,,,,,,,,
,,,,,,,,,,,,,FF,,,,,,,,0.701,,,,,,,,,,,,,,,,,,,,,,6100eaa1c4af53132eaf57eb,61036dede8cc2214e6e7bf1b,2021-07-29_20h13.45.017,Simcolourproject_2stim_asymm_v5,2020.2.10,Win32,60,61025ae37ef11b136ea224fe,,,,,,,,,167,-44.79998922,-94.40000784,1,0,0,response5disk,,3,1.14441E-05,-0.800006449,1,0,0,rectangle,1.14441E-05,-0.800006449,1,0,0,1.14441E-05,-0.800006449,1,0,0,1,31,191,49,1,,,,,,,,
,,,,,,,,,,,,,FF,,,,,,,,0.799,,,,,,,,,,,,,,,,,,,,,,6100eaa1c4af53132eaf57eb,61036dede8cc2214e6e7bf1b,2021-07-29_20h13.45.017,Simcolourproject_2stim_asymm_v5,2020.2.10,Win32,60,61025ae37ef11b136ea224fe,,,,,,,,,2716,46.40001214,-96.00000787,1,0,0,response3disk,,4,-5.599988639,3.19999361,1,0,0,rectangle,-5.599988639,3.19999361,1,0,0,-5.599988639,3.19999361,1,0,0,1,32,192,143,1,,,,,,,,
,,,,,,,,,,,,,FF,,,,,,,,0.9003,,,,,,,,,,,,,,,,,,,,,,6100eaa1c4af53132eaf57eb,61036dede8cc2214e6e7bf1b,2021-07-29_20h13.45.017,Simcolourproject_2stim_asymm_v5,2020.2.10,Win32,60,61025ae37ef11b136ea224fe,,,,,,,,,1109,102.400013,-31.2000069,1,0,0,response3disk,,5,-7.999988675,-2.400006473,1,0,0,rectangle,-7.999988675,-2.400006473,1,0,0,-7.999988675,-2.400006473,1,0,0,1,33,193,84,1,,,,,,,,
,,,,,,,,,,,,,FF,,,,,,,,1.0179,,,,,,,,,,,,,,,,,,,,,,6100eaa1c4af53132eaf57eb,61036dede8cc2214e6e7bf1b,2021-07-29_20h13.45.017,Simcolourproject_2stim_asymm_v5,2020.2.10,Win32,60,61025ae37ef11b136ea224fe,,,,,,,,,1455,-74.39994084,-45.60000712,1,0,0,response5disk,,2,0.800011456,3.999993622,1,0,0,rectangle,0.800011456,3.999993622,1,0,0,0.800011456,3.999993622,1,0,0,1,34,194,85,1,,,,,,,,
,,,,,,,,,,,,,FF,,,,,,,,0.5349,,,,,,,,,,,,,,,,,,,,,,6100eaa1c4af53132eaf57eb,61036dede8cc2214e6e7bf1b,2021-07-29_20h13.45.017,Simcolourproject_2stim_asymm_v5,2020.2.10,Win32,60,61025ae37ef11b136ea224fe,,,,,,,,,1649,-61.59998947,-36.00000697,1,0,0,response5disk,,2,-14.39993994,-11.2000066,1,0,0,rectangle,-14.39993994,-11.2000066,1,0,0,-14.39993994,-11.2000066,1,0,0,1,35,195,59,1,,,,,,,,
,,,,,,,,,,,,,FF,,,,,,,,0.6299,,,,,,,,,,,,,,,,,,,,,,6100eaa1c4af53132eaf57eb,61036dede8cc2214e6e7bf1b,2021-07-29_20h13.45.017,Simcolourproject_2stim_asymm_v5,2020.2.10,Win32,60,61025ae37ef11b136ea224fe,,,,,,,,,2487,-56.7999894,-106.400008,1,0,0,response5disk,,3,-6.399939823,1.599993587,1,0,0,rectangle,-44.79998922,94.39999497,1,0,0,-7.999988675,-8.800006568,1,0,0,1,36,196,124,1,,response7disk_3,TRUE,0,0,"[66,65,124,268,150,305,88,46,7,70,91,317,197,238,105,33,36,126,293,156]",1.1498,rectangle
,,,,,,,,,,,,,FF,,,,,,,,8.0695,,,,,,,,,,,,,,,,,,,,,,6100eaa1c4af53132eaf57eb,61036dede8cc2214e6e7bf1b,2021-07-29_20h13.45.017,Simcolourproject_2stim_asymm_v5,2020.2.10,Win32,60,61025ae37ef11b136ea224fe,,,,,,,,,2078,-61.59998947,-76.80000758,1,0,0,response5disk,,3,-0.799988568,15.19999379,1,0,0,rectangle,-0.799988568,15.19999379,1,0,0,-0.799988568,15.19999379,1,0,0,1,37,197,45,1,,,,,,,,
,,,,,,,,,,,,,FF,,,,,,,,0.5142,,,,,,,,,,,,,,,,,,,,,,6100eaa1c4af53132eaf57eb,61036dede8cc2214e6e7bf1b,2021-07-29_20h13.45.017,Simcolourproject_2stim_asymm_v5,2020.2.10,Win32,60,61025ae37ef11b136ea224fe,,,,,,,,,679,-38.3999403,-80.00000763,1,0,0,response5disk,,3,-3.199988604,-1.600006461,1,0,0,rectangle,-3.199988604,-1.600006461,1,0,0,-3.199988604,-1.600006461,1,0,0,1,38,198,144,1,,,,,,,,
,,,,,,,,,,,,,FF,,,,,,,,0.4525,,,,,,,,,,,,,,,,,,,,,,6100eaa1c4af53132eaf57eb,61036dede8cc2214e6e7bf1b,2021-07-29_20h13.45.017,Simcolourproject_2stim_asymm_v5,2020.2.10,Win32,60,61025ae37ef11b136ea224fe,,,,,,,,,465,76.80001259,-62.40000737,1,0,0,response3disk,,5,7.200011551,-6.400006533,1,0,0,rectangle,7.200011551,-6.400006533,1,0,0,7.200011551,-6.400006533,1,0,0,1,39,199,139,1,,,,,,,,
,,,,,,,,,,,,,FF,,,,,,,,0.2985,,,,,,,,,,,,,,,,,,,,,,6100eaa1c4af53132eaf57eb,61036dede8cc2214e6e7bf1b,2021-07-29_20h13.45.017,Simcolourproject_2stim_asymm_v5,2020.2.10,Win32,60,61025ae37ef11b136ea224fe,,,,,,,,,536,53.60001224,-84.00000769,1,0,0,response3disk,,4,-3.199988604,-4.800006509,1,0,0,rectangle,-3.199988604,-4.800006509,1,0,0,-3.199988604,-4.800006509,1,0,0,1,40,200,43,1,,,,,,,,
,,,,,,,,,,,,,FF,,,,,,,,0.4829,,,,,,,,,,,,,,,,,,,,,,6100eaa1c4af53132eaf57eb,61036dede8cc2214e6e7bf1b,2021-07-29_20h13.45.017,Simcolourproject_2stim_asymm_v5,2020.2.10,Win32,60,61025ae37ef11b136ea224fe,,,,,,,,,2145,28.80001187,-108.000008,1,0,0,response3disk,,4,-12.79998875,-16.00000668,1,0,0,rectangle,-12.79998875,-16.00000668,1,0,0,-12.79998875,-16.00000668,1,0,0,1,41,201,97,1,,,,,,,,
,,,,,,,,,,,,,FF,,,,,,,,1.4336,,,,,,,,,,,,,,,,,,,,,,6100eaa1c4af53132eaf57eb,61036dede8cc2214e6e7bf1b,2021-07-29_20h13.45.017,Simcolourproject_2stim_asymm_v5,2020.2.10,Win32,60,61025ae37ef11b136ea224fe,,,,,,,,,4262,76.80001259,77.59999472,1,0,0,response1disk,,7,-11.19998872,13.59999377,1,0,0,rectangle,-11.19998872,13.59999377,1,0,0,-11.19998872,13.59999377,1,0,0,1,42,202,146,1,,,,,,,,
,,,,,,,,,,,,,FF,,,,,,,,0.7324,,,,,,,,,,,,,,,,,,,,,,6100eaa1c4af53132eaf57eb,61036dede8cc2214e6e7bf1b,2021-07-29_20h13.45.017,Simcolourproject_2stim_asymm_v5,2020.2.10,Win32,60,61025ae37ef11b136ea224fe,,,,,,,,,3298,-100.7999901,46.39999425,1,0,0,response7disk,,1,-10.39993988,-5.600006521,1,0,0,rectangle,-10.39993988,-5.600006521,1,0,0,-10.39993988,-5.600006521,1,0,0,1,43,203,112,1,,,,,,,,
,,,,,,,,,,,,,FF,,,,,,,,0.5995,,,,,,,,,,,,,,,,,,,,,,6100eaa1c4af53132eaf57eb,61036dede8cc2214e6e7bf1b,2021-07-29_20h13.45.017,Simcolourproject_2stim_asymm_v5,2020.2.10,Win32,60,61025ae37ef11b136ea224fe,,,,,,,,,2961,-71.99998963,-47.20000714,1,0,0,response5disk,,2,-10.39993988,-8.800006568,1,0,0,rectangle,-10.39993988,-8.800006568,1,0,0,-10.39993988,-8.800006568,1,0,0,1,44,204,111,1,,,,,,,,
,,,,,,,,,,,,,FF,,,,,,,,0.6814,,,,,,,,,,,,,,,,,,,,,,6100eaa1c4af53132eaf57eb,61036dede8cc2214e6e7bf1b,2021-07-29_20h13.45.017,Simcolourproject_2stim_asymm_v5,2020.2.10,Win32,60,61025ae37ef11b136ea224fe,,,,,,,,,3656,-49.5999893,-104.000008,1,0,0,response5disk,,3,0.800011456,-7.200006545,1,0,0,rectangle,0.800011456,-7.200006545,1,0,0,0.800011456,-7.200006545,1,0,0,1,45,205,157,1,,,,,,,,
,,,,,,,,,,,,,FF,,,,,,,,0.4003,,,,,,,,,,,,,,,,,,,,,,6100eaa1c4af53132eaf57eb,61036dede8cc2214e6e7bf1b,2021-07-29_20h13.45.017,Simcolourproject_2stim_asymm_v5,2020.2.10,Win32,60,61025ae37ef11b136ea224fe,,,,,,,,,1568,52.00001222,-61.60000736,1,0,0,response3disk,,4,-4.799988627,10.39999372,1,0,0,rectangle,-4.799988627,10.39999372,1,0,0,-4.799988627,10.39999372,1,0,0,1,46,206,147,1,,,,,,,,
,,,,,,,,,,,,,FF,,,,,,,,0.3645,,,,,,,,,,,,,,,,,,,,,,6100eaa1c4af53132eaf57eb,61036dede8cc2214e6e7bf1b,2021-07-29_20h13.45.017,Simcolourproject_2stim_asymm_v5,2020.2.10,Win32,60,61025ae37ef11b136ea224fe,,,,,,,,,2458,98.40001291,45.59999424,1,0,0,response1disk,,6,4.000011504,6.399993658,1,0,0,rectangle,4.000011504,6.399993658,1,0,0,4.000011504,6.399993658,1,0,0,1,47,207,76,1,,,,,,,,
,,,,,,,,,,,,,FF,,,,,,,,0.4477,,,,,,,,,,,,,,,,,,,,,,6100eaa1c4af53132eaf57eb,61036dede8cc2214e6e7bf1b,2021-07-29_20h13.45.017,Simcolourproject_2stim_asymm_v5,2020.2.10,Win32,60,61025ae37ef11b136ea224fe,,,,,,,,,417,46.40001214,34.39999408,1,0,0,response1disk,,6,2.40001148,-8.000006557,1,0,0,rectangle,2.40001148,-8.000006557,1,0,0,2.40001148,-8.000006557,1,0,0,1,48,208,109,1,,,,,,,,
,,,,,,,,,,,,,FF,,,,,,,,0.9997,,,,,,,,,,,,,,,,,,,,,,6100eaa1c4af53132eaf57eb,61036dede8cc2214e6e7bf1b,2021-07-29_20h13.45.017,Simcolourproject_2stim_asymm_v5,2020.2.10,Win32,60,61025ae37ef11b136ea224fe,,,,,,,,,1548,46.40001214,-85.60005654,1,0,0,response3disk,,4,1.14441E-05,-12.80000663,1,0,0,rectangle,1.14441E-05,-12.80000663,1,0,0,1.14441E-05,-12.80000663,1,0,0,1,49,209,7,1,,,,,,,,
,,,,,,,,,,,,,FF,,,,,,,,0.4837,,,,,,,,,,,,,,,,,,,,,,6100eaa1c4af53132eaf57eb,61036dede8cc2214e6e7bf1b,2021-07-29_20h13.45.017,Simcolourproject_2stim_asymm_v5,2020.2.10,Win32,60,61025ae37ef11b136ea224fe,,,,,,,,,1572,72.00001252,23.19996949,1,0,0,response1disk,,6,-1.59998858,-9.60000658,1,0,0,rectangle,-1.59998858,-9.60000658,1,0,0,-1.59998858,-9.60000658,1,0,0,1,50,210,53,1,,,,,,,,
,,,,,,,,,,,,,FF,,,,,,,,0.483,,,,,,,,,,,,,,,,,,,,,,6100eaa1c4af53132eaf57eb,61036dede8cc2214e6e7bf1b,2021-07-29_20h13.45.017,Simcolourproject_2stim_asymm_v5,2020.2.10,Win32,60,61025ae37ef11b136ea224fe,,,,,,,,,999,64.0000124,44.79999423,1,0,0,response1disk,,6,4.000011504,12.79999375,1,0,0,rectangle,4.000011504,12.79999375,1,0,0,4.000011504,12.79999375,1,0,0,1,51,211,5,1,,,,,,,,
,,,,,,,,,,,,,FF,,,,,,,,0.4167,,,,,,,,,,,,,,,,,,,,,,6100eaa1c4af53132eaf57eb,61036dede8cc2214e6e7bf1b,2021-07-29_20h13.45.017,Simcolourproject_2stim_asymm_v5,2020.2.10,Win32,60,61025ae37ef11b136ea224fe,,,,,,,,,2062,56.80001229,48.79999429,1,0,0,response1disk,,6,5.600060356,1.599993587,1,0,0,rectangle,5.600060356,1.599993587,1,0,0,5.600060356,1.599993587,1,0,0,1,52,212,93,1,,,,,,,,
,,,,,,,,,,,,,FF,,,,,,,,0.6664,,,,,,,,,,,,,,,,,,,,,,6100eaa1c4af53132eaf57eb,61036dede8cc2214e6e7bf1b,2021-07-29_20h13.45.017,Simcolourproject_2stim_asymm_v5,2020.2.10,Win32,60,61025ae37ef11b136ea224fe,,,,,,,,,3174,-43.1999892,-105.6000568,1,0,0,response5disk,,3,8.000011563,3.19999361,1,0,0,rectangle,8.000011563,3.19999361,1,0,0,8.000011563,3.19999361,1,0,0,1,53,213,26,1,,,,,,,,
,,,,,,,,,,,,,FF,,,,,,,,0.5013,,,,,,,,,,,,,,,,,,,,,,6100eaa1c4af53132eaf57eb,61036dede8cc2214e6e7bf1b,2021-07-29_20h13.45.017,Simcolourproject_2stim_asymm_v5,2020.2.10,Win32,60,61025ae37ef11b136ea224fe,,,,,,,,,3320,-45.59998924,-88.80000776,1,0,0,response5disk,,3,-3.199988604,-11.2000066,1,0,0,rectangle,-3.199988604,-11.2000066,1,0,0,-3.199988604,-11.2000066,1,0,0,1,54,214,158,1,,,,,,,,
,,,,,,,,,,,,,FF,,,,,,,,0.3836,,,,,,,,,,,,,,,,,,,,,,6100eaa1c4af53132eaf57eb,61036dede8cc2214e6e7bf1b,2021-07-29_20h13.45.017,Simcolourproject_2stim_asymm_v5,2020.2.10,Win32,60,61025ae37ef11b136ea224fe,,,,,,,,,1952,34.40001196,-107.200008,1,0,0,response3disk,,4,-14.39993994,-3.200006485,1,0,0,rectangle,-14.39993994,-3.200006485,1,0,0,-14.39993994,-3.200006485,1,0,0,1,55,215,68,1,,,,,,,,
,,,,,,,,,,,,,FF,,,,,,,,0.5172,,,,,,,,,,,,,,,,,,,,,,6100eaa1c4af53132eaf57eb,61036dede8cc2214e6e7bf1b,2021-07-29_20h13.45.017,Simcolourproject_2stim_asymm_v5,2020.2.10,Win32,60,61025ae37ef11b136ea224fe,,,,,,,,,2187,44.0000121,-88.80000776,1,0,0,response3disk,,4,-15.19998878,12.79999375,1,0,0,rectangle,-15.19998878,12.79999375,1,0,0,-15.19998878,12.79999375,1,0,0,1,56,216,33,1,,,,,,,,
,,,,,,,,,,,,,FF,,,,,,,,0.7326,,,,,,,,,,,,,,,,,,,,,,6100eaa1c4af53132eaf57eb,61036dede8cc2214e6e7bf1b,2021-07-29_20h13.45.017,Simcolourproject_2stim_asymm_v5,2020.2.10,Win32,60,61025ae37ef11b136ea224fe,,,,,,,,,460,-40.79998916,-99.20000792,1,0,0,response5disk,,3,-25.59998894,-2.400006473,1,0,0,rectangle,-25.59998894,-2.400006473,1,0,0,-25.59998894,-2.400006473,1,0,0,1,57,217,42,1,,,,,,,,
,,,,,,,,,,,,,FF,,,,,,,,0.7344,,,,,,,,,,,,,,,,,,,,,,6100eaa1c4af53132eaf57eb,61036dede8cc2214e6e7bf1b,2021-07-29_20h13.45.017,Simcolourproject_2stim_asymm_v5,2020.2.10,Win32,60,61025ae37ef11b136ea224fe,,,,,,,,,2598,-81.59998977,-84.00000769,1,0,0,response5disk,,3,-1.59998858,-6.400006533,1,0,0,rectangle,-1.59998858,-6.400006533,1,0,0,-1.59998858,-6.400006533,1,0,0,1,58,218,132,1,,,,,,,,
,,,,,,,,,,,,,FF,,,,,,,,0.3974,,,,,,,,,,,,,,,,,,,,,,6100eaa1c4af53132eaf57eb,61036dede8cc2214e6e7bf1b,2021-07-29_20h13.45.017,Simcolourproject_2stim_asymm_v5,2020.2.10,Win32,60,61025ae37ef11b136ea224fe,,,,,,,,,2490,-56.7999894,-84.8000077,1,0,0,response5disk,,3,19.20001173,-8.800006568,1,0,0,rectangle,19.20001173,-8.800006568,1,0,0,19.20001173,-8.800006568,1,0,0,1,59,219,81,1,,,,,,,,
,,,,,,,,,,,,,FF,,,,,,,,0.5522,,,,,,,,,,,,,,,,,,,,,,6100eaa1c4af53132eaf57eb,61036dede8cc2214e6e7bf1b,2021-07-29_20h13.45.017,Simcolourproject_2stim_asymm_v5,2020.2.10,Win32,60,61025ae37ef11b136ea224fe,,,,,,,,,794,-34.39994024,-87.20000774,1,0,0,response5disk,,3,2.40001148,-12.00000662,1,0,0,rectangle,2.40001148,-12.00000662,1,0,0,2.40001148,-12.00000662,1,0,0,1,60,220,138,1,,,,,,,,
,,,,,,,,,,,,,FF,,,,,,,,0.399,,,,,,,,,,,,,,,,,,,,,,6100eaa1c4af53132eaf57eb,61036dede8cc2214e6e7bf1b,2021-07-29_20h13.45.017,Simcolourproject_2stim_asymm_v5,2020.2.10,Win32,60,61025ae37ef11b136ea224fe,,,,,,,,,1770,30.4000119,-73.60000753,1,0,0,response3disk,,4,0.800011456,7.19999367,1,0,0,rectangle,0.800011456,7.19999367,1,0,0,0.800011456,7.19999367,1,0,0,1,61,221,123,1,,,,,,,,
,,,,,,,,,,,,,FF,,,,,,,,0.3506,,,,,,,,,,,,,,,,,,,,,,6100eaa1c4af53132eaf57eb,61036dede8cc2214e6e7bf1b,2021-07-29_20h13.45.017,Simcolourproject_2stim_asymm_v5,2020.2.10,Win32,60,61025ae37ef11b136ea224fe,,,,,,,,,1387,41.60006089,-71.2000075,1,0,0,response3disk,,4,-3.999988616,0.799993575,1,0,0,rectangle,-3.999988616,0.799993575,1,0,0,-3.999988616,0.799993575,1,0,0,1,62,222,22,1,,,,,,,,
,,,,,,,,,,,,,FF,,,,,,,,0.6303,,,,,,,,,,,,,,,,,,,,,,6100eaa1c4af53132eaf57eb,61036dede8cc2214e6e7bf1b,2021-07-29_20h13.45.017,Simcolourproject_2stim_asymm_v5,2020.2.10,Win32,60,61025ae37ef11b136ea224fe,,,,,,,,,1014,-64.79998952,-96.80000788,1,0,0,response5disk,,3,-12.79998875,-6.400006533,1,0,0,rectangle,-12.79998875,-6.400006533,1,0,0,-12.79998875,-6.400006533,1,0,0,1,63,223,73,1,,,,,,,,
,,,,,,,,,,,,,FF,,,,,,,,0.7325,,,,,,,,,,,,,,,,,,,,,,6100eaa1c4af53132eaf57eb,61036dede8cc2214e6e7bf1b,2021-07-29_20h13.45.017,Simcolourproject_2stim_asymm_v5,2020.2.10,Win32,60,61025ae37ef11b136ea224fe,,,,,,,,,1743,-23.1999889,88.79999489,1,0,0,response7disk,,0,-6.399939823,3.19999361,1,0,0,rectangle,-6.399939823,3.19999361,1,0,0,-6.399939823,3.19999361,1,0,0,1,64,224,34,1,,,,,,,,
,,,,,,,,,,,,,FF,,,,,,,,0.6345,,,,,,,,,,,,,,,,,,,,,,6100eaa1c4af53132eaf57eb,61036dede8cc2214e6e7bf1b,2021-07-29_20h13.45.017,Simcolourproject_2stim_asymm_v5,2020.2.10,Win32,60,61025ae37ef11b136ea224fe,,,,,,,,,2214,87.20001274,63.99999452,1,0,0,response1disk,,6,-7.199988663,-9.60000658,1,0,0,rectangle,-7.199988663,-9.60000658,1,0,0,-7.199988663,-9.60000658,1,0,0,1,65,225,17,1,,,,,,,,
,,,,,,,,,,,,,FF,,,,,,,,0.9678,,,,,,,,,,,,,,,,,,,,,,6100eaa1c4af53132eaf57eb,61036dede8cc2214e6e7bf1b,2021-07-29_20h13.45.017,Simcolourproject_2stim_asymm_v5,2020.2.10,Win32,60,61025ae37ef11b136ea224fe,,,,,,,,,101,-106.3999413,-23.20000678,1,0,0,response5disk,,2,-3.199988604,15.9999938,1,0,0,rectangle,-3.199988604,15.9999938,1,0,0,-3.199988604,15.9999938,1,0,0,1,66,226,10,1,,,,,,,,
,,,,,,,,,,,,,FF,,,,,,,,1.2996,,,,,,,,,,,,,,,,,,,,,,6100eaa1c4af53132eaf57eb,61036dede8cc2214e6e7bf1b,2021-07-29_20h13.45.017,Simcolourproject_2stim_asymm_v5,2020.2.10,Win32,60,61025ae37ef11b136ea224fe,,,,,,,,,3729,101.600013,74.39999467,1,0,0,response1disk,,6,-13.59998876,2.399993598,1,0,0,rectangle,-13.59998876,2.399993598,1,0,0,-13.59998876,2.399993598,1,0,0,1,67,227,8,1,,,,,,,,
,,,,,,,,,,,,,FF,,,,,,,,0.5684,,,,,,,,,,,,,,,,,,,,,,6100eaa1c4af53132eaf57eb,61036dede8cc2214e6e7bf1b,2021-07-29_20h13.45.017,Simcolourproject_2stim_asymm_v5,2020.2.10,Win32,60,61025ae37ef11b136ea224fe,,,,,,,,,3764,98.40001291,56.79999441,1,0,0,response1disk,,6,-15.99998879,-9.60000658,1,0,0,rectangle,-15.99998879,-9.60000658,1,0,0,-15.99998879,-9.60000658,1,0,0,1,68,228,79,1,,,,,,,,
,,,,,,,,,,,,,FF,,,,,,,,1.1663,,,,,,,,,,,,,,,,,,,,,,6100eaa1c4af53132eaf57eb,61036dede8cc2214e6e7bf1b,2021-07-29_20h13.45.017,Simcolourproject_2stim_asymm_v5,2020.2.10,Win32,60,61025ae37ef11b136ea224fe,,,,,,,,,3416,27.20001185,99.99999505,1,0,0,response1disk,,7,-7.199988663,5.599993646,1,0,0,rectangle,-7.199988663,5.599993646,1,0,0,-7.199988663,5.599993646,1,0,0,1,69,229,131,1,,,,,,,,
,,,,,,,,,,,,,FF,,,,,,,,0.5827,,,,,,,,,,,,,,,,,,,,,,6100eaa1c4af53132eaf57eb,61036dede8cc2214e6e7bf1b,2021-07-29_20h13.45.017,Simcolourproject_2stim_asymm_v5,2020.2.10,Win32,60,61025ae37ef11b136ea224fe,,,,,,,,,2316,56.00001228,-74.40000755,1,0,0,response3disk,,4,9.600060415,-2.400006473,1,0,0,rectangle,9.600060415,-2.400006473,1,0,0,9.600060415,-2.400006473,1,0,0,1,70,230,141,1,,,,,,,,
,,,,,,,,,,,,,FF,,,,,,,,0.6804,,,,,,,,,,,,,,,,,,,,,,6100eaa1c4af53132eaf57eb,61036dede8cc2214e6e7bf1b,2021-07-29_20h13.45.017,Simcolourproject_2stim_asymm_v5,2020.2.10,Win32,60,61025ae37ef11b136ea224fe,,,,,,,,,2286,44.80001211,-60.00000733,1,0,0,response3disk,,4,3.200011492,-7.200006545,1,0,0,rectangle,3.200011492,-7.200006545,1,0,0,3.200011492,-7.200006545,1,0,0,1,71,231,28,1,,,,,,,,
,,,,,,,,,,,,,FF,,,,,,,,0.4672,,,,,,,,,,,,,,,,,,,,,,6100eaa1c4af53132eaf57eb,61036dede8cc2214e6e7bf1b,2021-07-29_20h13.45.017,Simcolourproject_2stim_asymm_v5,2020.2.10,Win32,60,61025ae37ef11b136ea224fe,,,,,,,,,1844,26.40001184,-59.20000732,1,0,0,response3disk,,4,3.200011492,6.399993658,1,0,0,rectangle,3.200011492,6.399993658,1,0,0,3.200011492,6.399993658,1,0,0,1,72,232,16,1,,,,,,,,
,,,,,,,,,,,,,FF,,,,,,,,0.4991,,,,,,,,,,,,,,,,,,,,,,6100eaa1c4af53132eaf57eb,61036dede8cc2214e6e7bf1b,2021-07-29_20h13.45.017,Simcolourproject_2stim_asymm_v5,2020.2.10,Win32,60,61025ae37ef11b136ea224fe,,,,,,,,,843,-62.39994066,-77.60000759,1,0,0,response5disk,,3,0.800011456,12.79999375,1,0,0,rectangle,0.800011456,12.79999375,1,0,0,0.800011456,12.79999375,1,0,0,1,73,233,56,1,,,,,,,,
,,,,,,,,,,,,,FF,,,,,,,,0.9494,,,,,,,,,,,,,,,,,,,,,,6100eaa1c4af53132eaf57eb,61036dede8cc2214e6e7bf1b,2021-07-29_20h13.45.017,Simcolourproject_2stim_asymm_v5,2020.2.10,Win32,60,61025ae37ef11b136ea224fe,,,,,,,,,526,-114.3999414,35.9999941,1,0,0,response7disk,,1,-3.999988616,14.39999378,1,0,0,rectangle,-3.999988616,14.39999378,1,0,0,-3.999988616,14.39999378,1,0,0,1,74,234,30,1,,,,,,,,
,,,,,,,,,,,,,FF,,,,,,,,0.7994,,,,,,,,,,,,,,,,,,,,,,6100eaa1c4af53132eaf57eb,61036dede8cc2214e6e7bf1b,2021-07-29_20h13.45.017,Simcolourproject_2stim_asymm_v5,2020.2.10,Win32,60,61025ae37ef11b136ea224fe,,,,,,,,,3617,109.6000131,38.39999413,1,0,0,response1disk,,6,9.600060415,1.599993587,1,0,0,rectangle,9.600060415,1.599993587,1,0,0,9.600060415,1.599993587,1,0,0,1,75,235,18,1,,,,,,,,
,,,,,,,,,,,,,FF,,,,,,,,4.7631,,,,,,,,,,,,,,,,,,,,,,6100eaa1c4af53132eaf57eb,61036dede8cc2214e6e7bf1b,2021-07-29_20h13.45.017,Simcolourproject_2stim_asymm_v5,2020.2.10,Win32,60,61025ae37ef11b136ea224fe,,,,,,,,,2693,100.8000129,-45.60000712,1,0,0,response3disk,,5,21.60006059,15.19999379,1,0,0,rectangle,21.60006059,15.19999379,1,0,0,21.60006059,15.19999379,1,0,0,1,76,236,72,1,,,,,,,,
,,,,,,,,,,,,,FF,,,,,,,,0.5171,,,,,,,,,,,,,,,,,,,,,,6100eaa1c4af53132eaf57eb,61036dede8cc2214e6e7bf1b,2021-07-29_20h13.45.017,Simcolourproject_2stim_asymm_v5,2020.2.10,Win32,60,61025ae37ef11b136ea224fe,,,,,,,,,2091,21.60006059,-59.20000732,1,0,0,response3disk,,4,4.000011504,-6.400006533,1,0,0,rectangle,-96.79999,40.79999417,1,0,0,-15.99998879,-10.40000659,1,0,0,1,77,237,39,1,,response7disk_3,TRUE,1,1,"[66,65,124,268,150,305,88,46,7,70,91,317,197,238,105,33,36,126,293,156]",1.065,rectangle
,,,,,,,,,,,,,FF,,,,,,,,0.6186,,,,,,,,,,,,,,,,,,,,,,6100eaa1c4af53132eaf57eb,61036dede8cc2214e6e7bf1b,2021-07-29_20h13.45.017,Simcolourproject_2stim_asymm_v5,2020.2.10,Win32,60,61025ae37ef11b136ea224fe,,,,,,,,,306,-59.19998944,-61.60000736,1,0,0,response5disk,,3,-23.99998891,-1.600006461,1,0,0,rectangle,-23.99998891,-1.600006461,1,0,0,-23.99998891,-1.600006461,1,0,0,1,78,238,70,1,,,,,,,,
,,,,,,,,,,,,,FF,,,,,,,,0.3479,,,,,,,,,,,,,,,,,,,,,,6100eaa1c4af53132eaf57eb,61036dede8cc2214e6e7bf1b,2021-07-29_20h13.45.017,Simcolourproject_2stim_asymm_v5,2020.2.10,Win32,60,61025ae37ef11b136ea224fe,,,,,,,,,2342,32.00001192,-57.6000073,1,0,0,response3disk,,4,11.20001161,-13.60000664,1,0,0,rectangle,11.20001161,-13.60000664,1,0,0,11.20001161,-13.60000664,1,0,0,1,79,239,88,1,,,,,,,,
,,,,,,,,,,,,,FF,,,,,,,,1.6656,,,,,,,,,,,,,,,,,,,,,,6100eaa1c4af53132eaf57eb,61036dede8cc2214e6e7bf1b,2021-07-29_20h13.45.017,Simcolourproject_2stim_asymm_v5,2020.2.10,Win32,60,61025ae37ef11b136ea224fe,,,,,,,,,4334,-83.99998981,56.79999441,1,0,0,response7disk,,1,-29.599989,15.9999938,1,0,0,rectangle,-29.599989,15.9999938,1,0,0,-29.599989,15.9999938,1,0,0,1,80,240,32,1,,,,,,,,
,,,,,,,,,,,,,FF,,,,,,,,0.4999,,,,,,,,,,,,,,,,,,,,,,6100eaa1c4af53132eaf57eb,61036dede8cc2214e6e7bf1b,2021-07-29_20h13.45.017,Simcolourproject_2stim_asymm_v5,2020.2.10,Win32,60,61025ae37ef11b136ea224fe,,,,,,,,,2744,67.20001245,-26.40000683,1,0,0,response3disk,,5,-32.79998904,10.39999372,1,0,0,rectangle,-32.79998904,10.39999372,1,0,0,-32.79998904,10.39999372,1,0,0,1,81,241,116,1,,,,,,,,
,,,,,,,,,,,,,FF,,,,,,,,0.948,,,,,,,,,,,,,,,,,,,,,,6100eaa1c4af53132eaf57eb,61036dede8cc2214e6e7bf1b,2021-07-29_20h13.45.017,Simcolourproject_2stim_asymm_v5,2020.2.10,Win32,60,61025ae37ef11b136ea224fe,,,,,,,,,2533,61.60001236,-67.20000744,1,0,0,response3disk,,4,-6.399939823,15.9999938,1,0,0,rectangle,-6.399939823,15.9999938,1,0,0,-6.399939823,15.9999938,1,0,0,1,82,242,77,1,,,,,,,,
