key_resp.keys,key_resp.rt,key_resp_14.keys,key_resp_14.rt,key_resp_15.keys,key_resp_15.rt,key_resp_17.keys,key_resp_17.rt,key_resp_9.keys,key_resp_9.rt,key_resp_10.keys,key_resp_10.rt,practice_comparison,Ecc,mouse_5.x,mouse_5.y,mouse_5.leftButton,mouse_5.midButton,mouse_5.rightButton,mouse_5.clicked_name,pracsimilarity,response_time,mouse_10.x,mouse_10.y,mouse_10.leftButton,mouse_10.midButton,mouse_10.rightButton,mouse_10.clicked_name,mouse_7.x,mouse_7.y,mouse_7.leftButton,mouse_7.midButton,mouse_7.rightButton,mouse_6.x,mouse_6.y,mouse_6.leftButton,mouse_6.midButton,mouse_6.rightButton,duringprac.thisRepN,duringprac.thisTrialN,duringprac.thisN,duringprac.thisIndex,duringprac.ran,participant,session,date,expName,psychopyVersion,OS,frameRate,study_id,mouse_7.clicked_name,catchpracsimilarity,catch_response_time,catchnumberprac,catchtrialorderprac,mouse_6.clicked_name,key_resp_22.keys,key_resp_22.rt,realcomparison,mouse.x,mouse.y,mouse.leftButton,mouse.midButton,mouse.rightButton,mouse.clicked_name,Colour2,similarity,mouse_2.x,mouse_2.y,mouse_2.leftButton,mouse_2.midButton,mouse_2.rightButton,mouse_2.clicked_name,mouse_3.x,mouse_3.y,mouse_3.leftButton,mouse_3.midButton,mouse_3.rightButton,mouse_11.x,mouse_11.y,mouse_11.leftButton,mouse_11.midButton,mouse_11.rightButton,trials_2.thisRepN,trials_2.thisTrialN,trials_2.thisN,trials_2.thisIndex,trials_2.ran,Colour1,mouse_3.clicked_name,catchornah,catchsimilarity,catchnumber,catchtrialorder,catchRT,mouse_11.clicked_name
space,1.2658,space,11.4092,space,23.8653,space,2.6089,space,0.8006,space,6.2177,73,FF,92.140625,-25.05340576,1,0,0,response3disk_5,5,2.0045,-14.84088135,15.02667236,1,0,0,rectangle_8,-14.84088135,15.02667236,1,0,0,-14.84088135,15.02667236,1,0,0,0,0,0,0,1,6100dbf4d8e0cc51cf89039c,610365d47a29a4a977a46b5a,2021-07-29_22h37.49.676,Simcolourproject_2stim_asymm_v5,2020.2.10,MacIntel,60,61025ae37ef11b136ea224fe,,,,,,,,,,,,,,,,,,,,,,,,,,,,,,,,,,,,,,,,,,,,,,
,,,,,,,,,,,,24,PF,31.68139648,75.19622803,1,0,0,response1disk_5,7,1.7334,7.221618652,0.841918945,1,0,0,rectangle_8,103.6310425,64.96209717,1,0,0,-4.885009766,-4.75592041,1,0,0,0,1,1,2,1,6100dbf4d8e0cc51cf89039c,610365d47a29a4a977a46b5a,2021-07-29_22h37.49.676,Simcolourproject_2stim_asymm_v5,2020.2.10,MacIntel,60,61025ae37ef11b136ea224fe,response1disk_7,6,4.4509,6,"[2,5]",rectangle_4,,,,,,,,,,,,,,,,,,,,,,,,,,,,,,,,,,,,,,,,
,,,,,,,,,,,,66,PF,-68.52764893,-53.39447021,1,0,0,response5disk_5,2,2.2844,7.512451172,-3.352874756,1,0,0,rectangle_8,7.512451172,-3.352874756,1,0,0,7.512451172,-3.352874756,1,0,0,0,2,2,4,1,6100dbf4d8e0cc51cf89039c,610365d47a29a4a977a46b5a,2021-07-29_22h37.49.676,Simcolourproject_2stim_asymm_v5,2020.2.10,MacIntel,60,61025ae37ef11b136ea224fe,,,,,,,,,,,,,,,,,,,,,,,,,,,,,,,,,,,,,,,,,,,,,,
,,,,,,,,,,,,158,FF,98.75268555,33.4118042,1,0,0,response1disk_5,6,2.5688,-0.79675293,12.15859985,1,0,0,rectangle_8,-0.79675293,12.15859985,1,0,0,-0.79675293,12.15859985,1,0,0,0,3,3,3,1,6100dbf4d8e0cc51cf89039c,610365d47a29a4a977a46b5a,2021-07-29_22h37.49.676,Simcolourproject_2stim_asymm_v5,2020.2.10,MacIntel,60,61025ae37ef11b136ea224fe,,,,,,,,,,,,,,,,,,,,,,,,,,,,,,,,,,,,,,,,,,,,,,
,,,,,,,,,,,,39,FF,105.7759399,-39.375,1,0,0,response3disk_5,5,3.0179,6.49206543,1.231384277,1,0,0,rectangle_8,83.12329102,-44.19412231,1,0,0,-8.35559082,-4.238891602,1,0,0,0,4,4,5,1,6100dbf4d8e0cc51cf89039c,610365d47a29a4a977a46b5a,2021-07-29_22h37.49.676,Simcolourproject_2stim_asymm_v5,2020.2.10,MacIntel,60,61025ae37ef11b136ea224fe,response3disk_7,5,1.7015,6,"[2,5]",rectangle_4,,,,,,,,,,,,,,,,,,,,,,,,,,,,,,,,,,,,,,,,
,,,,,,,,,,,,44,PF,32.00189209,70.81188965,1,0,0,response1disk_5,7,1.434,4.393737793,1.46661377,1,0,0,rectangle_8,4.393737793,1.46661377,1,0,0,4.393737793,1.46661377,1,0,0,0,5,5,1,1,6100dbf4d8e0cc51cf89039c,610365d47a29a4a977a46b5a,2021-07-29_22h37.49.676,Simcolourproject_2stim_asymm_v5,2020.2.10,MacIntel,60,61025ae37ef11b136ea224fe,,,,,,,,,,,,,,,,,,,,,,,,,,,,,,,,,,,,,,,,,,,,,,
,,,,,,,,,,,,112,PF,54.73138428,-67.02246094,1,0,0,response3disk_5,4,1.6167,-7.376281738,9.355102539,1,0,0,rectangle_8,-7.376281738,9.355102539,1,0,0,-7.376281738,9.355102539,1,0,0,0,6,6,6,1,6100dbf4d8e0cc51cf89039c,610365d47a29a4a977a46b5a,2021-07-29_22h37.49.676,Simcolourproject_2stim_asymm_v5,2020.2.10,MacIntel,60,61025ae37ef11b136ea224fe,,,,,,,,,,,,,,,,,,,,,,,,,,,,,,,,,,,,,,,,,,,,,,
,,,,,,,,,,,,,FF,,,,,,,,1.4319,,,,,,,,,,,,,,,,,,,,,,6100dbf4d8e0cc51cf89039c,610365d47a29a4a977a46b5a,2021-07-29_22h37.49.676,Simcolourproject_2stim_asymm_v5,2020.2.10,MacIntel,60,61025ae37ef11b136ea224fe,,,,,,,space,4.7618,3165,-26.70495605,-61.84649658,1,0,0,response5disk,,3,-0.593811035,-6.521240234,1,0,0,rectangle,-0.593811035,-6.521240234,1,0,0,-0.593811035,-6.521240234,1,0,0,0,0,0,91,1,,,,,,,,
,,,,,,,,,,,,,FF,,,,,,,,1.95,,,,,,,,,,,,,,,,,,,,,,6100dbf4d8e0cc51cf89039c,610365d47a29a4a977a46b5a,2021-07-29_22h37.49.676,Simcolourproject_2stim_asymm_v5,2020.2.10,MacIntel,60,61025ae37ef11b136ea224fe,,,,,,,,,3456,99.27172852,47.70532227,1,0,0,response1disk,,6,-0.208129883,-1.097747803,1,0,0,rectangle,-0.208129883,-1.097747803,1,0,0,-0.208129883,-1.097747803,1,0,0,0,1,1,48,1,,,,,,,,
,,,,,,,,,,,,,FF,,,,,,,,1.6002,,,,,,,,,,,,,,,,,,,,,,6100dbf4d8e0cc51cf89039c,610365d47a29a4a977a46b5a,2021-07-29_22h37.49.676,Simcolourproject_2stim_asymm_v5,2020.2.10,MacIntel,60,61025ae37ef11b136ea224fe,,,,,,,,,2713,-59.58270264,36.44677734,1,0,0,response7disk,,1,11.74768066,15.19595337,1,0,0,rectangle,11.74768066,15.19595337,1,0,0,11.74768066,15.19595337,1,0,0,0,2,2,128,1,,,,,,,,
,,,,,,,,,,,,,FF,,,,,,,,0.8831,,,,,,,,,,,,,,,,,,,,,,6100dbf4d8e0cc51cf89039c,610365d47a29a4a977a46b5a,2021-07-29_22h37.49.676,Simcolourproject_2stim_asymm_v5,2020.2.10,MacIntel,60,61025ae37ef11b136ea224fe,,,,,,,,,1163,74.25494385,28.44073486,1,0,0,response1disk,,6,-3.369812012,-6.409362793,1,0,0,rectangle,-3.369812012,-6.409362793,1,0,0,-3.369812012,-6.409362793,1,0,0,0,3,3,87,1,,,,,,,,
,,,,,,,,,,,,,FF,,,,,,,,2.3829,,,,,,,,,,,,,,,,,,,,,,6100dbf4d8e0cc51cf89039c,610365d47a29a4a977a46b5a,2021-07-29_22h37.49.676,Simcolourproject_2stim_asymm_v5,2020.2.10,MacIntel,60,61025ae37ef11b136ea224fe,,,,,,,,,3,-83.51263428,56.45703125,1,0,0,response7disk,,1,1.20324707,3.133911133,1,0,0,rectangle,1.20324707,3.133911133,1,0,0,1.20324707,3.133911133,1,0,0,0,4,4,12,1,,,,,,,,
,,,,,,,,,,,,,FF,,,,,,,,2.2488,,,,,,,,,,,,,,,,,,,,,,6100dbf4d8e0cc51cf89039c,610365d47a29a4a977a46b5a,2021-07-29_22h37.49.676,Simcolourproject_2stim_asymm_v5,2020.2.10,MacIntel,60,61025ae37ef11b136ea224fe,,,,,,,,,2816,78.64404297,-55.0625,1,0,0,response3disk,,5,-0.55078125,-11.12527466,1,0,0,rectangle,-0.55078125,-11.12527466,1,0,0,-0.55078125,-11.12527466,1,0,0,0,5,5,138,1,,,,,,,,
,,,,,,,,,,,,,FF,,,,,,,,1.6339,,,,,,,,,,,,,,,,,,,,,,6100dbf4d8e0cc51cf89039c,610365d47a29a4a977a46b5a,2021-07-29_22h37.49.676,Simcolourproject_2stim_asymm_v5,2020.2.10,MacIntel,60,61025ae37ef11b136ea224fe,,,,,,,,,18,-58.78985596,-36.53814697,1,0,0,response5disk,,2,-3.037597656,7.013000488,1,0,0,rectangle,-3.037597656,7.013000488,1,0,0,-3.037597656,7.013000488,1,0,0,0,6,6,98,1,,,,,,,,
,,,,,,,,,,,,,FF,,,,,,,,2.3507,,,,,,,,,,,,,,,,,,,,,,6100dbf4d8e0cc51cf89039c,610365d47a29a4a977a46b5a,2021-07-29_22h37.49.676,Simcolourproject_2stim_asymm_v5,2020.2.10,MacIntel,60,61025ae37ef11b136ea224fe,,,,,,,,,3355,80.9979248,34.39221191,1,0,0,response1disk,,6,3.209777832,13.47265625,1,0,0,rectangle,3.209777832,13.47265625,1,0,0,3.209777832,13.47265625,1,0,0,0,7,7,130,1,,,,,,,,
,,,,,,,,,,,,,FF,,,,,,,,1.5173,,,,,,,,,,,,,,,,,,,,,,6100dbf4d8e0cc51cf89039c,610365d47a29a4a977a46b5a,2021-07-29_22h37.49.676,Simcolourproject_2stim_asymm_v5,2020.2.10,MacIntel,60,61025ae37ef11b136ea224fe,,,,,,,,,945,-53.92089844,49.84326172,1,0,0,response7disk,,1,-15.15881348,-9.342834473,1,0,0,rectangle,-15.15881348,-9.342834473,1,0,0,-15.15881348,-9.342834473,1,0,0,0,8,8,22,1,,,,,,,,
,,,,,,,,,,,,,FF,,,,,,,,3.6183,,,,,,,,,,,,,,,,,,,,,,6100dbf4d8e0cc51cf89039c,610365d47a29a4a977a46b5a,2021-07-29_22h37.49.676,Simcolourproject_2stim_asymm_v5,2020.2.10,MacIntel,60,61025ae37ef11b136ea224fe,,,,,,,,,1854,66.08294678,24.45428467,1,0,0,response1disk,,6,-3.570800781,3.743896484,1,0,0,rectangle,-3.570800781,3.743896484,1,0,0,-3.570800781,3.743896484,1,0,0,0,9,9,90,1,,,,,,,,
,,,,,,,,,,,,,FF,,,,,,,,2.416,,,,,,,,,,,,,,,,,,,,,,6100dbf4d8e0cc51cf89039c,610365d47a29a4a977a46b5a,2021-07-29_22h37.49.676,Simcolourproject_2stim_asymm_v5,2020.2.10,MacIntel,60,61025ae37ef11b136ea224fe,,,,,,,,,3224,41.83514404,69.90325928,1,0,0,response1disk,,7,14.79095459,4.728210449,1,0,0,rectangle,14.79095459,4.728210449,1,0,0,14.79095459,4.728210449,1,0,0,0,10,10,58,1,,,,,,,,
,,,,,,,,,,,,,FF,,,,,,,,0.9685,,,,,,,,,,,,,,,,,,,,,,6100dbf4d8e0cc51cf89039c,610365d47a29a4a977a46b5a,2021-07-29_22h37.49.676,Simcolourproject_2stim_asymm_v5,2020.2.10,MacIntel,60,61025ae37ef11b136ea224fe,,,,,,,,,4166,-38.28192139,62.09637451,1,0,0,response7disk,,0,-1.331481934,-4.069030762,1,0,0,rectangle,-1.331481934,-4.069030762,1,0,0,-1.331481934,-4.069030762,1,0,0,0,11,11,35,1,,,,,,,,
,,,,,,,,,,,,,FF,,,,,,,,1.0351,,,,,,,,,,,,,,,,,,,,,,6100dbf4d8e0cc51cf89039c,610365d47a29a4a977a46b5a,2021-07-29_22h37.49.676,Simcolourproject_2stim_asymm_v5,2020.2.10,MacIntel,60,61025ae37ef11b136ea224fe,,,,,,,,,400,62.1394043,28.20159912,1,0,0,response1disk,,6,-21.48144531,6.284484863,1,0,0,rectangle,-21.48144531,6.284484863,1,0,0,-21.48144531,6.284484863,1,0,0,0,12,12,109,1,,,,,,,,
,,,,,,,,,,,,,FF,,,,,,,,1.2347,,,,,,,,,,,,,,,,,,,,,,6100dbf4d8e0cc51cf89039c,610365d47a29a4a977a46b5a,2021-07-29_22h37.49.676,Simcolourproject_2stim_asymm_v5,2020.2.10,MacIntel,60,61025ae37ef11b136ea224fe,,,,,,,,,2356,42.71966553,-75.71655273,1,0,0,response3disk,,4,3.556274414,-6.865905762,1,0,0,rectangle,3.556274414,-6.865905762,1,0,0,3.556274414,-6.865905762,1,0,0,0,13,13,44,1,,,,,,,,
,,,,,,,,,,,,,FF,,,,,,,,1.6171,,,,,,,,,,,,,,,,,,,,,,6100dbf4d8e0cc51cf89039c,610365d47a29a4a977a46b5a,2021-07-29_22h37.49.676,Simcolourproject_2stim_asymm_v5,2020.2.10,MacIntel,60,61025ae37ef11b136ea224fe,,,,,,,,,1628,54.69842529,-104.5206909,1,0,0,response3disk,,4,19.2600708,10.90148926,1,0,0,rectangle,19.2600708,10.90148926,1,0,0,19.2600708,10.90148926,1,0,0,0,14,14,13,1,,,,,,,,
,,,,,,,,,,,,,FF,,,,,,,,1.7178,,,,,,,,,,,,,,,,,,,,,,6100dbf4d8e0cc51cf89039c,610365d47a29a4a977a46b5a,2021-07-29_22h37.49.676,Simcolourproject_2stim_asymm_v5,2020.2.10,MacIntel,60,61025ae37ef11b136ea224fe,,,,,,,,,361,21.12854004,81.62145996,1,0,0,response1disk,,7,10.58673096,3.816711426,1,0,0,rectangle,10.58673096,3.816711426,1,0,0,10.58673096,3.816711426,1,0,0,0,15,15,153,1,,,,,,,,
,,,,,,,,,,,,,FF,,,,,,,,1.1185,,,,,,,,,,,,,,,,,,,,,,6100dbf4d8e0cc51cf89039c,610365d47a29a4a977a46b5a,2021-07-29_22h37.49.676,Simcolourproject_2stim_asymm_v5,2020.2.10,MacIntel,60,61025ae37ef11b136ea224fe,,,,,,,,,84,34.76672363,79.78826904,1,0,0,response1disk,,7,17.93157959,-13.22259521,1,0,0,rectangle,17.93157959,-13.22259521,1,0,0,17.93157959,-13.22259521,1,0,0,0,16,16,145,1,,,,,,,,
,,,,,,,,,,,,,FF,,,,,,,,0.9998,,,,,,,,,,,,,,,,,,,,,,6100dbf4d8e0cc51cf89039c,610365d47a29a4a977a46b5a,2021-07-29_22h37.49.676,Simcolourproject_2stim_asymm_v5,2020.2.10,MacIntel,60,61025ae37ef11b136ea224fe,,,,,,,,,2494,71.61553955,52.29083252,1,0,0,response1disk,,6,1.82989502,-0.536468506,1,0,0,rectangle,1.82989502,-0.536468506,1,0,0,1.82989502,-0.536468506,1,0,0,0,17,17,16,1,,,,,,,,
,,,,,,,,,,,,,FF,,,,,,,,0.9853,,,,,,,,,,,,,,,,,,,,,,6100dbf4d8e0cc51cf89039c,610365d47a29a4a977a46b5a,2021-07-29_22h37.49.676,Simcolourproject_2stim_asymm_v5,2020.2.10,MacIntel,60,61025ae37ef11b136ea224fe,,,,,,,,,2845,-31.17950439,-65.2901001,1,0,0,response5disk,,3,-8.06262207,0.50680542,1,0,0,rectangle,-8.06262207,0.50680542,1,0,0,-8.06262207,0.50680542,1,0,0,0,18,18,65,1,,,,,,,,
,,,,,,,,,,,,,FF,,,,,,,,1.4671,,,,,,,,,,,,,,,,,,,,,,6100dbf4d8e0cc51cf89039c,610365d47a29a4a977a46b5a,2021-07-29_22h37.49.676,Simcolourproject_2stim_asymm_v5,2020.2.10,MacIntel,60,61025ae37ef11b136ea224fe,,,,,,,,,4085,-23.93475342,-49.99990845,1,0,0,response5disk,,3,-0.323852539,13.48034668,1,0,0,rectangle,-0.323852539,13.48034668,1,0,0,-0.323852539,13.48034668,1,0,0,0,19,19,125,1,,,,,,,,
,,,,,,,,,,,,,FF,,,,,,,,1.0163,,,,,,,,,,,,,,,,,,,,,,6100dbf4d8e0cc51cf89039c,610365d47a29a4a977a46b5a,2021-07-29_22h37.49.676,Simcolourproject_2stim_asymm_v5,2020.2.10,MacIntel,60,61025ae37ef11b136ea224fe,,,,,,,,,1323,35.84423828,56.47290039,1,0,0,response1disk,,7,19.34356689,11.78338623,1,0,0,rectangle,19.34356689,11.78338623,1,0,0,19.34356689,11.78338623,1,0,0,0,20,20,147,1,,,,,,,,
,,,,,,,,,,,,,FF,,,,,,,,1.3679,,,,,,,,,,,,,,,,,,,,,,6100dbf4d8e0cc51cf89039c,610365d47a29a4a977a46b5a,2021-07-29_22h37.49.676,Simcolourproject_2stim_asymm_v5,2020.2.10,MacIntel,60,61025ae37ef11b136ea224fe,,,,,,,,,882,48.246521,91.54541016,1,0,0,response1disk,,7,16.92614746,9.411315918,1,0,0,rectangle,16.92614746,9.411315918,1,0,0,16.92614746,9.411315918,1,0,0,0,21,21,17,1,,,,,,,,
,,,,,,,,,,,,,FF,,,,,,,,0.6667,,,,,,,,,,,,,,,,,,,,,,6100dbf4d8e0cc51cf89039c,610365d47a29a4a977a46b5a,2021-07-29_22h37.49.676,Simcolourproject_2stim_asymm_v5,2020.2.10,MacIntel,60,61025ae37ef11b136ea224fe,,,,,,,,,2398,22.96893311,71.53024292,1,0,0,response1disk,,7,-0.452636719,-10.98400879,1,0,0,rectangle,-0.452636719,-10.98400879,1,0,0,-0.452636719,-10.98400879,1,0,0,0,22,22,52,1,,,,,,,,
,,,,,,,,,,,,,FF,,,,,,,,1.2667,,,,,,,,,,,,,,,,,,,,,,6100dbf4d8e0cc51cf89039c,610365d47a29a4a977a46b5a,2021-07-29_22h37.49.676,Simcolourproject_2stim_asymm_v5,2020.2.10,MacIntel,60,61025ae37ef11b136ea224fe,,,,,,,,,2961,57.52630615,-32.32800293,1,0,0,response3disk,,5,21.9052124,-14.37765503,1,0,0,rectangle,21.9052124,-14.37765503,1,0,0,21.9052124,-14.37765503,1,0,0,0,23,23,64,1,,,,,,,,
,,,,,,,,,,,,,FF,,,,,,,,1.485,,,,,,,,,,,,,,,,,,,,,,6100dbf4d8e0cc51cf89039c,610365d47a29a4a977a46b5a,2021-07-29_22h37.49.676,Simcolourproject_2stim_asymm_v5,2020.2.10,MacIntel,60,61025ae37ef11b136ea224fe,,,,,,,,,4018,30.51367188,83.96337891,1,0,0,response1disk,,7,6.39440918,-9.199157715,1,0,0,rectangle,6.39440918,-9.199157715,1,0,0,6.39440918,-9.199157715,1,0,0,0,24,24,36,1,,,,,,,,
,,,,,,,,,,,,,FF,,,,,,,,1.1176,,,,,,,,,,,,,,,,,,,,,,6100dbf4d8e0cc51cf89039c,610365d47a29a4a977a46b5a,2021-07-29_22h37.49.676,Simcolourproject_2stim_asymm_v5,2020.2.10,MacIntel,60,61025ae37ef11b136ea224fe,,,,,,,,,3075,-48.78601074,-87.56018066,1,0,0,response5disk,,3,-10.02496338,2.989074707,1,0,0,rectangle,-10.02496338,2.989074707,1,0,0,-10.02496338,2.989074707,1,0,0,0,25,25,69,1,,,,,,,,
,,,,,,,,,,,,,FF,,,,,,,,1.5674,,,,,,,,,,,,,,,,,,,,,,6100dbf4d8e0cc51cf89039c,610365d47a29a4a977a46b5a,2021-07-29_22h37.49.676,Simcolourproject_2stim_asymm_v5,2020.2.10,MacIntel,60,61025ae37ef11b136ea224fe,,,,,,,,,2282,37.85650635,77.95947266,1,0,0,response1disk,,7,11.19384766,2.12701416,1,0,0,rectangle,11.19384766,2.12701416,1,0,0,11.19384766,2.12701416,1,0,0,0,26,26,5,1,,,,,,,,
,,,,,,,,,,,,,FF,,,,,,,,1.984,,,,,,,,,,,,,,,,,,,,,,6100dbf4d8e0cc51cf89039c,610365d47a29a4a977a46b5a,2021-07-29_22h37.49.676,Simcolourproject_2stim_asymm_v5,2020.2.10,MacIntel,60,61025ae37ef11b136ea224fe,,,,,,,,,1989,31.88891602,53.15100098,1,0,0,response1disk,,7,12.96655273,4.49041748,1,0,0,rectangle,12.96655273,4.49041748,1,0,0,12.96655273,4.49041748,1,0,0,0,27,27,159,1,,,,,,,,
,,,,,,,,,,,,,FF,,,,,,,,1.1679,,,,,,,,,,,,,,,,,,,,,,6100dbf4d8e0cc51cf89039c,610365d47a29a4a977a46b5a,2021-07-29_22h37.49.676,Simcolourproject_2stim_asymm_v5,2020.2.10,MacIntel,60,61025ae37ef11b136ea224fe,,,,,,,,,1675,-56.83990479,40.96710205,1,0,0,response7disk,,1,11.19683838,-4.636138916,1,0,0,rectangle,11.19683838,-4.636138916,1,0,0,11.19683838,-4.636138916,1,0,0,0,28,28,76,1,,,,,,,,
,,,,,,,,,,,,,FF,,,,,,,,1.1,,,,,,,,,,,,,,,,,,,,,,6100dbf4d8e0cc51cf89039c,610365d47a29a4a977a46b5a,2021-07-29_22h37.49.676,Simcolourproject_2stim_asymm_v5,2020.2.10,MacIntel,60,61025ae37ef11b136ea224fe,,,,,,,,,3689,69.72894287,-38.07110596,1,0,0,response3disk,,5,18.45111084,-13.76403809,1,0,0,rectangle,18.45111084,-13.76403809,1,0,0,18.45111084,-13.76403809,1,0,0,0,29,29,104,1,,,,,,,,
,,,,,,,,,,,,,FF,,,,,,,,1.7164,,,,,,,,,,,,,,,,,,,,,,6100dbf4d8e0cc51cf89039c,610365d47a29a4a977a46b5a,2021-07-29_22h37.49.676,Simcolourproject_2stim_asymm_v5,2020.2.10,MacIntel,60,61025ae37ef11b136ea224fe,,,,,,,,,1414,33.69689941,69.06378174,1,0,0,response1disk,,7,2.307373047,1.125854492,1,0,0,rectangle,2.307373047,1.125854492,1,0,0,2.307373047,1.125854492,1,0,0,0,30,30,38,1,,,,,,,,
,,,,,,,,,,,,,FF,,,,,,,,1.1844,,,,,,,,,,,,,,,,,,,,,,6100dbf4d8e0cc51cf89039c,610365d47a29a4a977a46b5a,2021-07-29_22h37.49.676,Simcolourproject_2stim_asymm_v5,2020.2.10,MacIntel,60,61025ae37ef11b136ea224fe,,,,,,,,,1394,-65.44091797,25.81243896,1,0,0,response7disk,,1,21.76727295,-2.131652832,1,0,0,rectangle,21.76727295,-2.131652832,1,0,0,21.76727295,-2.131652832,1,0,0,0,31,31,21,1,,,,,,,,
,,,,,,,,,,,,,FF,,,,,,,,1.8845,,,,,,,,,,,,,,,,,,,,,,6100dbf4d8e0cc51cf89039c,610365d47a29a4a977a46b5a,2021-07-29_22h37.49.676,Simcolourproject_2stim_asymm_v5,2020.2.10,MacIntel,60,61025ae37ef11b136ea224fe,,,,,,,,,3694,37.78216553,-69.56567383,1,0,0,response3disk,,4,18.55065918,1.398468018,1,0,0,rectangle,18.55065918,1.398468018,1,0,0,18.55065918,1.398468018,1,0,0,0,32,32,66,1,,,,,,,,
,,,,,,,,,,,,,FF,,,,,,,,1.1834,,,,,,,,,,,,,,,,,,,,,,6100dbf4d8e0cc51cf89039c,610365d47a29a4a977a46b5a,2021-07-29_22h37.49.676,Simcolourproject_2stim_asymm_v5,2020.2.10,MacIntel,60,61025ae37ef11b136ea224fe,,,,,,,,,174,36.15557861,60.43331909,1,0,0,response1disk,,7,-6.935974121,5.448486328,1,0,0,rectangle,-6.935974121,5.448486328,1,0,0,-6.935974121,5.448486328,1,0,0,0,33,33,89,1,,,,,,,,
,,,,,,,,,,,,,FF,,,,,,,,2.3176,,,,,,,,,,,,,,,,,,,,,,6100dbf4d8e0cc51cf89039c,610365d47a29a4a977a46b5a,2021-07-29_22h37.49.676,Simcolourproject_2stim_asymm_v5,2020.2.10,MacIntel,60,61025ae37ef11b136ea224fe,,,,,,,,,3851,65.972229,36.53442383,1,0,0,response1disk,,6,-0.558837891,6.691650391,1,0,0,rectangle,-0.558837891,6.691650391,1,0,0,-0.558837891,6.691650391,1,0,0,0,34,34,107,1,,,,,,,,
,,,,,,,,,,,,,FF,,,,,,,,1.3672,,,,,,,,,,,,,,,,,,,,,,6100dbf4d8e0cc51cf89039c,610365d47a29a4a977a46b5a,2021-07-29_22h37.49.676,Simcolourproject_2stim_asymm_v5,2020.2.10,MacIntel,60,61025ae37ef11b136ea224fe,,,,,,,,,1920,99.63000488,48.96490479,1,0,0,response1disk,,6,11.16796875,4.914489746,1,0,0,rectangle,11.16796875,4.914489746,1,0,0,11.16796875,4.914489746,1,0,0,0,35,35,133,1,,,,,,,,
,,,,,,,,,,,,,FF,,,,,,,,0.7173,,,,,,,,,,,,,,,,,,,,,,6100dbf4d8e0cc51cf89039c,610365d47a29a4a977a46b5a,2021-07-29_22h37.49.676,Simcolourproject_2stim_asymm_v5,2020.2.10,MacIntel,60,61025ae37ef11b136ea224fe,,,,,,,,,3263,37.10754395,77.4548645,1,0,0,response1disk,,7,-3.808654785,0.204467773,1,0,0,rectangle,-3.808654785,0.204467773,1,0,0,-3.808654785,0.204467773,1,0,0,0,36,36,150,1,,,,,,,,
,,,,,,,,,,,,,FF,,,,,,,,1.1173,,,,,,,,,,,,,,,,,,,,,,6100dbf4d8e0cc51cf89039c,610365d47a29a4a977a46b5a,2021-07-29_22h37.49.676,Simcolourproject_2stim_asymm_v5,2020.2.10,MacIntel,60,61025ae37ef11b136ea224fe,,,,,,,,,3476,-65.8918457,20.41519165,1,0,0,response7disk,,1,-0.828735352,4.900787354,1,0,0,rectangle,-0.828735352,4.900787354,1,0,0,-0.828735352,4.900787354,1,0,0,0,37,37,4,1,,,,,,,,
,,,,,,,,,,,,,FF,,,,,,,,1.5006,,,,,,,,,,,,,,,,,,,,,,6100dbf4d8e0cc51cf89039c,610365d47a29a4a977a46b5a,2021-07-29_22h37.49.676,Simcolourproject_2stim_asymm_v5,2020.2.10,MacIntel,60,61025ae37ef11b136ea224fe,,,,,,,,,3940,-64.51861572,34.71234131,1,0,0,response7disk,,1,-18.57092285,16.75881958,1,0,0,rectangle,-18.57092285,16.75881958,1,0,0,-18.57092285,16.75881958,1,0,0,0,38,38,146,1,,,,,,,,
,,,,,,,,,,,,,FF,,,,,,,,1.4505,,,,,,,,,,,,,,,,,,,,,,6100dbf4d8e0cc51cf89039c,610365d47a29a4a977a46b5a,2021-07-29_22h37.49.676,Simcolourproject_2stim_asymm_v5,2020.2.10,MacIntel,60,61025ae37ef11b136ea224fe,,,,,,,,,2055,58.62390137,-28.26147461,1,0,0,response3disk,,5,10.75500488,-10.87011719,1,0,0,rectangle,10.75500488,-10.87011719,1,0,0,10.75500488,-10.87011719,1,0,0,0,39,39,50,1,,,,,,,,
,,,,,,,,,,,,,FF,,,,,,,,0.8348,,,,,,,,,,,,,,,,,,,,,,6100dbf4d8e0cc51cf89039c,610365d47a29a4a977a46b5a,2021-07-29_22h37.49.676,Simcolourproject_2stim_asymm_v5,2020.2.10,MacIntel,60,61025ae37ef11b136ea224fe,,,,,,,,,2907,-22.44482422,-55.146698,1,0,0,response5disk,,3,-1.437255859,7.110839844,1,0,0,rectangle,-1.437255859,7.110839844,1,0,0,-1.437255859,7.110839844,1,0,0,0,40,40,15,1,,,,,,,,
,,,,,,,,,,,,,FF,,,,,,,,0.9168,,,,,,,,,,,,,,,,,,,,,,6100dbf4d8e0cc51cf89039c,610365d47a29a4a977a46b5a,2021-07-29_22h37.49.676,Simcolourproject_2stim_asymm_v5,2020.2.10,MacIntel,60,61025ae37ef11b136ea224fe,,,,,,,,,593,83.19726563,40.79345703,1,0,0,response1disk,,6,-15.8782959,-0.063293457,1,0,0,rectangle,-15.8782959,-0.063293457,1,0,0,-15.8782959,-0.063293457,1,0,0,0,41,41,84,1,,,,,,,,
,,,,,,,,,,,,,FF,,,,,,,,1.2334,,,,,,,,,,,,,,,,,,,,,,6100dbf4d8e0cc51cf89039c,610365d47a29a4a977a46b5a,2021-07-29_22h37.49.676,Simcolourproject_2stim_asymm_v5,2020.2.10,MacIntel,60,61025ae37ef11b136ea224fe,,,,,,,,,3666,32.42901611,105.9088745,1,0,0,response1disk,,7,18.7197876,-9.659729004,1,0,0,rectangle,18.7197876,-9.659729004,1,0,0,18.7197876,-9.659729004,1,0,0,0,42,42,157,1,,,,,,,,
,,,,,,,,,,,,,FF,,,,,,,,0.8171,,,,,,,,,,,,,,,,,,,,,,6100dbf4d8e0cc51cf89039c,610365d47a29a4a977a46b5a,2021-07-29_22h37.49.676,Simcolourproject_2stim_asymm_v5,2020.2.10,MacIntel,60,61025ae37ef11b136ea224fe,,,,,,,,,830,107.133606,58.48294067,1,0,0,response1disk,,6,9.604248047,7.493103027,1,0,0,rectangle,9.604248047,7.493103027,1,0,0,9.604248047,7.493103027,1,0,0,0,43,43,114,1,,,,,,,,
,,,,,,,,,,,,,FF,,,,,,,,0.6163,,,,,,,,,,,,,,,,,,,,,,6100dbf4d8e0cc51cf89039c,610365d47a29a4a977a46b5a,2021-07-29_22h37.49.676,Simcolourproject_2stim_asymm_v5,2020.2.10,MacIntel,60,61025ae37ef11b136ea224fe,,,,,,,,,3126,85.03302002,41.75238037,1,0,0,response1disk,,6,23.809021,2.743469238,1,0,0,rectangle,23.809021,2.743469238,1,0,0,23.809021,2.743469238,1,0,0,0,44,44,61,1,,,,,,,,
,,,,,,,,,,,,,FF,,,,,,,,0.9167,,,,,,,,,,,,,,,,,,,,,,6100dbf4d8e0cc51cf89039c,610365d47a29a4a977a46b5a,2021-07-29_22h37.49.676,Simcolourproject_2stim_asymm_v5,2020.2.10,MacIntel,60,61025ae37ef11b136ea224fe,,,,,,,,,226,84.62384033,-35.41186523,1,0,0,response3disk,,5,9.25378418,-6.021789551,1,0,0,rectangle,-62.86035156,25.73284912,1,0,0,0.371948242,3.176940918,1,0,0,0,45,45,54,1,,response7disk_3,TRUE,1,1,"[153,63,148,46,131,250,97,275,112,193,193,270,141,306,185,298,309,133,106,68]",3.4817,rectangle
,,,,,,,,,,,,,FF,,,,,,,,2.8181,,,,,,,,,,,,,,,,,,,,,,6100dbf4d8e0cc51cf89039c,610365d47a29a4a977a46b5a,2021-07-29_22h37.49.676,Simcolourproject_2stim_asymm_v5,2020.2.10,MacIntel,60,61025ae37ef11b136ea224fe,,,,,,,,,3609,31.81048584,59.14431763,1,0,0,response1disk,,7,-1.829467773,-4.231323242,1,0,0,rectangle,-1.829467773,-4.231323242,1,0,0,-1.829467773,-4.231323242,1,0,0,0,46,46,45,1,,,,,,,,
,,,,,,,,,,,,,FF,,,,,,,,0.6341,,,,,,,,,,,,,,,,,,,,,,6100dbf4d8e0cc51cf89039c,610365d47a29a4a977a46b5a,2021-07-29_22h37.49.676,Simcolourproject_2stim_asymm_v5,2020.2.10,MacIntel,60,61025ae37ef11b136ea224fe,,,,,,,,,3989,31.13031006,48.04827881,1,0,0,response1disk,,7,-1.575378418,-11.41815186,1,0,0,rectangle,-1.575378418,-11.41815186,1,0,0,-1.575378418,-11.41815186,1,0,0,0,47,47,94,1,,,,,,,,
,,,,,,,,,,,,,FF,,,,,,,,0.6501,,,,,,,,,,,,,,,,,,,,,,6100dbf4d8e0cc51cf89039c,610365d47a29a4a977a46b5a,2021-07-29_22h37.49.676,Simcolourproject_2stim_asymm_v5,2020.2.10,MacIntel,60,61025ae37ef11b136ea224fe,,,,,,,,,1651,30.69763184,77.42703247,1,0,0,response1disk,,7,1.590759277,-13.10858154,1,0,0,rectangle,1.590759277,-13.10858154,1,0,0,1.590759277,-13.10858154,1,0,0,0,48,48,19,1,,,,,,,,
,,,,,,,,,,,,,FF,,,,,,,,0.4678,,,,,,,,,,,,,,,,,,,,,,6100dbf4d8e0cc51cf89039c,610365d47a29a4a977a46b5a,2021-07-29_22h37.49.676,Simcolourproject_2stim_asymm_v5,2020.2.10,MacIntel,60,61025ae37ef11b136ea224fe,,,,,,,,,1629,41.08355713,81.19714355,1,0,0,response1disk,,7,21.7098999,0.58190918,1,0,0,rectangle,21.7098999,0.58190918,1,0,0,21.7098999,0.58190918,1,0,0,0,49,49,93,1,,,,,,,,
,,,,,,,,,,,,,FF,,,,,,,,1.1485,,,,,,,,,,,,,,,,,,,,,,6100dbf4d8e0cc51cf89039c,610365d47a29a4a977a46b5a,2021-07-29_22h37.49.676,Simcolourproject_2stim_asymm_v5,2020.2.10,MacIntel,60,61025ae37ef11b136ea224fe,,,,,,,,,4306,-74.96240234,-47.61599731,1,0,0,response5disk,,2,-21.12463379,-2.280944824,1,0,0,rectangle,-21.12463379,-2.280944824,1,0,0,-21.12463379,-2.280944824,1,0,0,0,50,50,57,1,,,,,,,,
,,,,,,,,,,,,,FF,,,,,,,,1.4005,,,,,,,,,,,,,,,,,,,,,,6100dbf4d8e0cc51cf89039c,610365d47a29a4a977a46b5a,2021-07-29_22h37.49.676,Simcolourproject_2stim_asymm_v5,2020.2.10,MacIntel,60,61025ae37ef11b136ea224fe,,,,,,,,,3552,-65.87860107,46.0201416,1,0,0,response7disk,,1,-3.299194336,4.118255615,1,0,0,rectangle,-3.299194336,4.118255615,1,0,0,-3.299194336,4.118255615,1,0,0,0,51,51,118,1,,,,,,,,
,,,,,,,,,,,,,FF,,,,,,,,0.8341,,,,,,,,,,,,,,,,,,,,,,6100dbf4d8e0cc51cf89039c,610365d47a29a4a977a46b5a,2021-07-29_22h37.49.676,Simcolourproject_2stim_asymm_v5,2020.2.10,MacIntel,60,61025ae37ef11b136ea224fe,,,,,,,,,4058,41.4074707,72.03991699,1,0,0,response1disk,,7,-6.126464844,-7.504699707,1,0,0,rectangle,-6.126464844,-7.504699707,1,0,0,-6.126464844,-7.504699707,1,0,0,0,52,52,124,1,,,,,,,,
,,,,,,,,,,,,,FF,,,,,,,,0.5832,,,,,,,,,,,,,,,,,,,,,,6100dbf4d8e0cc51cf89039c,610365d47a29a4a977a46b5a,2021-07-29_22h37.49.676,Simcolourproject_2stim_asymm_v5,2020.2.10,MacIntel,60,61025ae37ef11b136ea224fe,,,,,,,,,2349,36.4407959,86.52203369,1,0,0,response1disk,,7,20.50567627,4.565795898,1,0,0,rectangle,20.50567627,4.565795898,1,0,0,20.50567627,4.565795898,1,0,0,0,53,53,120,1,,,,,,,,
,,,,,,,,,,,,,FF,,,,,,,,0.6836,,,,,,,,,,,,,,,,,,,,,,6100dbf4d8e0cc51cf89039c,610365d47a29a4a977a46b5a,2021-07-29_22h37.49.676,Simcolourproject_2stim_asymm_v5,2020.2.10,MacIntel,60,61025ae37ef11b136ea224fe,,,,,,,,,987,32.62945557,77.69506836,1,0,0,response1disk,,7,17.25982666,14.88848877,1,0,0,rectangle,17.25982666,14.88848877,1,0,0,17.25982666,14.88848877,1,0,0,0,54,54,40,1,,,,,,,,
,,,,,,,,,,,,,FF,,,,,,,,0.5503,,,,,,,,,,,,,,,,,,,,,,6100dbf4d8e0cc51cf89039c,610365d47a29a4a977a46b5a,2021-07-29_22h37.49.676,Simcolourproject_2stim_asymm_v5,2020.2.10,MacIntel,60,61025ae37ef11b136ea224fe,,,,,,,,,704,21.69329834,55.23120117,1,0,0,response1disk,,7,14.8404541,5.76461792,1,0,0,rectangle,14.8404541,5.76461792,1,0,0,14.8404541,5.76461792,1,0,0,0,55,55,47,1,,,,,,,,
,,,,,,,,,,,,,FF,,,,,,,,0.6335,,,,,,,,,,,,,,,,,,,,,,6100dbf4d8e0cc51cf89039c,610365d47a29a4a977a46b5a,2021-07-29_22h37.49.676,Simcolourproject_2stim_asymm_v5,2020.2.10,MacIntel,60,61025ae37ef11b136ea224fe,,,,,,,,,3962,104.37677,47.73150635,1,0,0,response1disk,,6,14.605896,8.231506348,1,0,0,rectangle,14.605896,8.231506348,1,0,0,14.605896,8.231506348,1,0,0,0,56,56,10,1,,,,,,,,
,,,,,,,,,,,,,FF,,,,,,,,1.3837,,,,,,,,,,,,,,,,,,,,,,6100dbf4d8e0cc51cf89039c,610365d47a29a4a977a46b5a,2021-07-29_22h37.49.676,Simcolourproject_2stim_asymm_v5,2020.2.10,MacIntel,60,61025ae37ef11b136ea224fe,,,,,,,,,2251,97.97747803,53.67840576,1,0,0,response1disk,,6,18.73388672,17.09362793,1,0,0,rectangle,18.73388672,17.09362793,1,0,0,18.73388672,17.09362793,1,0,0,0,57,57,140,1,,,,,,,,
,,,,,,,,,,,,,FF,,,,,,,,0.7668,,,,,,,,,,,,,,,,,,,,,,6100dbf4d8e0cc51cf89039c,610365d47a29a4a977a46b5a,2021-07-29_22h37.49.676,Simcolourproject_2stim_asymm_v5,2020.2.10,MacIntel,60,61025ae37ef11b136ea224fe,,,,,,,,,498,28.56091309,66.60369873,1,0,0,response1disk,,7,10.25457764,2.760864258,1,0,0,rectangle,10.25457764,2.760864258,1,0,0,10.25457764,2.760864258,1,0,0,0,58,58,155,1,,,,,,,,
,,,,,,,,,,,,,FF,,,,,,,,0.8004,,,,,,,,,,,,,,,,,,,,,,6100dbf4d8e0cc51cf89039c,610365d47a29a4a977a46b5a,2021-07-29_22h37.49.676,Simcolourproject_2stim_asymm_v5,2020.2.10,MacIntel,60,61025ae37ef11b136ea224fe,,,,,,,,,1711,30.01806641,64.25823975,1,0,0,response1disk,,7,7.370178223,0.016662598,1,0,0,rectangle,7.370178223,0.016662598,1,0,0,7.370178223,0.016662598,1,0,0,0,59,59,9,1,,,,,,,,
,,,,,,,,,,,,,FF,,,,,,,,1.6506,,,,,,,,,,,,,,,,,,,,,,6100dbf4d8e0cc51cf89039c,610365d47a29a4a977a46b5a,2021-07-29_22h37.49.676,Simcolourproject_2stim_asymm_v5,2020.2.10,MacIntel,60,61025ae37ef11b136ea224fe,,,,,,,,,3882,-92.04443359,-44.20880127,1,0,0,response5disk,,2,-34.98046875,-7.365661621,1,0,0,rectangle,-34.98046875,-7.365661621,1,0,0,-34.98046875,-7.365661621,1,0,0,0,60,60,97,1,,,,,,,,
,,,,,,,,,,,,,FF,,,,,,,,1.1497,,,,,,,,,,,,,,,,,,,,,,6100dbf4d8e0cc51cf89039c,610365d47a29a4a977a46b5a,2021-07-29_22h37.49.676,Simcolourproject_2stim_asymm_v5,2020.2.10,MacIntel,60,61025ae37ef11b136ea224fe,,,,,,,,,4350,-33.80822754,94.16040039,1,0,0,response7disk,,0,-6.816040039,9.38885498,1,0,0,rectangle,-6.816040039,9.38885498,1,0,0,-6.816040039,9.38885498,1,0,0,0,61,61,103,1,,,,,,,,
,,,,,,,,,,,,,FF,,,,,,,,0.6338,,,,,,,,,,,,,,,,,,,,,,6100dbf4d8e0cc51cf89039c,610365d47a29a4a977a46b5a,2021-07-29_22h37.49.676,Simcolourproject_2stim_asymm_v5,2020.2.10,MacIntel,60,61025ae37ef11b136ea224fe,,,,,,,,,298,50.86682129,87.61676025,1,0,0,response1disk,,7,7.875854492,3.987609863,1,0,0,rectangle,-28.15209961,-70.75482178,1,0,0,6.530212402,6.505249023,1,0,0,0,62,62,102,1,,response5disk_3,TRUE,3,3,"[153,63,148,46,131,250,97,275,112,193,193,270,141,306,185,298,309,133,106,68]",3.2001,rectangle
,,,,,,,,,,,,,FF,,,,,,,,1.1832,,,,,,,,,,,,,,,,,,,,,,6100dbf4d8e0cc51cf89039c,610365d47a29a4a977a46b5a,2021-07-29_22h37.49.676,Simcolourproject_2stim_asymm_v5,2020.2.10,MacIntel,60,61025ae37ef11b136ea224fe,,,,,,,,,2101,36.80645752,63.61669922,1,0,0,response1disk,,7,2.627624512,14.50036621,1,0,0,rectangle,2.627624512,14.50036621,1,0,0,2.627624512,14.50036621,1,0,0,0,63,63,46,1,,,,,,,,
,,,,,,,,,,,,,FF,,,,,,,,1.8662,,,,,,,,,,,,,,,,,,,,,,6100dbf4d8e0cc51cf89039c,610365d47a29a4a977a46b5a,2021-07-29_22h37.49.676,Simcolourproject_2stim_asymm_v5,2020.2.10,MacIntel,60,61025ae37ef11b136ea224fe,,,,,,,,,1055,-87.90869141,31.605896,1,0,0,response7disk,,1,15.08416748,9.087158203,1,0,0,rectangle,15.08416748,9.087158203,1,0,0,15.08416748,9.087158203,1,0,0,0,64,64,11,1,,,,,,,,
,,,,,,,,,,,,,FF,,,,,,,,1.5654,,,,,,,,,,,,,,,,,,,,,,6100dbf4d8e0cc51cf89039c,610365d47a29a4a977a46b5a,2021-07-29_22h37.49.676,Simcolourproject_2stim_asymm_v5,2020.2.10,MacIntel,60,61025ae37ef11b136ea224fe,,,,,,,,,12,-68.61535645,-33.85324097,1,0,0,response5disk,,2,-2.566101074,1.041381836,1,0,0,rectangle,-2.566101074,1.041381836,1,0,0,-2.566101074,1.041381836,1,0,0,0,65,65,24,1,,,,,,,,
,,,,,,,,,,,,,FF,,,,,,,,0.9487,,,,,,,,,,,,,,,,,,,,,,6100dbf4d8e0cc51cf89039c,610365d47a29a4a977a46b5a,2021-07-29_22h37.49.676,Simcolourproject_2stim_asymm_v5,2020.2.10,MacIntel,60,61025ae37ef11b136ea224fe,,,,,,,,,2545,-39.21502686,-55.92388916,1,0,0,response5disk,,3,-18.1932373,-7.675506592,1,0,0,rectangle,-18.1932373,-7.675506592,1,0,0,-18.1932373,-7.675506592,1,0,0,0,66,66,158,1,,,,,,,,
,,,,,,,,,,,,,FF,,,,,,,,7.2845,,,,,,,,,,,,,,,,,,,,,,6100dbf4d8e0cc51cf89039c,610365d47a29a4a977a46b5a,2021-07-29_22h37.49.676,Simcolourproject_2stim_asymm_v5,2020.2.10,MacIntel,60,61025ae37ef11b136ea224fe,,,,,,,,,1593,94.41778564,39.59838867,1,0,0,response1disk,,6,-3.999511719,11.00811768,1,0,0,rectangle,75.35369873,-33.07818604,1,0,0,25.20080566,-12.21478271,1,0,0,0,67,67,121,1,,response3disk_3,TRUE,5,5,"[153,63,148,46,131,250,97,275,112,193,193,270,141,306,185,298,309,133,106,68]",2.3504,rectangle
,,,,,,,,,,,,,FF,,,,,,,,1.2675,,,,,,,,,,,,,,,,,,,,,,6100dbf4d8e0cc51cf89039c,610365d47a29a4a977a46b5a,2021-07-29_22h37.49.676,Simcolourproject_2stim_asymm_v5,2020.2.10,MacIntel,60,61025ae37ef11b136ea224fe,,,,,,,,,3046,-84.14080811,38.8157959,1,0,0,response7disk,,1,4.861328125,16.03527832,1,0,0,rectangle,4.861328125,16.03527832,1,0,0,4.861328125,16.03527832,1,0,0,0,68,68,77,1,,,,,,,,
,,,,,,,,,,,,,FF,,,,,,,,1.4983,,,,,,,,,,,,,,,,,,,,,,6100dbf4d8e0cc51cf89039c,610365d47a29a4a977a46b5a,2021-07-29_22h37.49.676,Simcolourproject_2stim_asymm_v5,2020.2.10,MacIntel,60,61025ae37ef11b136ea224fe,,,,,,,,,2630,49.1875,45.51275635,1,0,0,response1disk,,6,-12.58959961,4.447906494,1,0,0,rectangle,-12.58959961,4.447906494,1,0,0,-12.58959961,4.447906494,1,0,0,0,69,69,28,1,,,,,,,,
,,,,,,,,,,,,,FF,,,,,,,,1.351,,,,,,,,,,,,,,,,,,,,,,6100dbf4d8e0cc51cf89039c,610365d47a29a4a977a46b5a,2021-07-29_22h37.49.676,Simcolourproject_2stim_asymm_v5,2020.2.10,MacIntel,60,61025ae37ef11b136ea224fe,,,,,,,,,437,-40.11938477,-70.48876953,1,0,0,response5disk,,3,-14.46783447,-10.49633789,1,0,0,rectangle,-14.46783447,-10.49633789,1,0,0,-14.46783447,-10.49633789,1,0,0,0,70,70,39,1,,,,,,,,
,,,,,,,,,,,,,FF,,,,,,,,1.4495,,,,,,,,,,,,,,,,,,,,,,6100dbf4d8e0cc51cf89039c,610365d47a29a4a977a46b5a,2021-07-29_22h37.49.676,Simcolourproject_2stim_asymm_v5,2020.2.10,MacIntel,60,61025ae37ef11b136ea224fe,,,,,,,,,2710,49.50146484,57.94714355,1,0,0,response1disk,,7,-9.223083496,7.12701416,1,0,0,rectangle,-9.223083496,7.12701416,1,0,0,-9.223083496,7.12701416,1,0,0,0,71,71,81,1,,,,,,,,
,,,,,,,,,,,,,FF,,,,,,,,1.1332,,,,,,,,,,,,,,,,,,,,,,6100dbf4d8e0cc51cf89039c,610365d47a29a4a977a46b5a,2021-07-29_22h37.49.676,Simcolourproject_2stim_asymm_v5,2020.2.10,MacIntel,60,61025ae37ef11b136ea224fe,,,,,,,,,1919,-81.44415283,42.22171021,1,0,0,response7disk,,1,-3.700256348,9.158935547,1,0,0,rectangle,-3.700256348,9.158935547,1,0,0,-3.700256348,9.158935547,1,0,0,0,72,72,154,1,,,,,,,,
,,,,,,,,,,,,,FF,,,,,,,,0.9987,,,,,,,,,,,,,,,,,,,,,,6100dbf4d8e0cc51cf89039c,610365d47a29a4a977a46b5a,2021-07-29_22h37.49.676,Simcolourproject_2stim_asymm_v5,2020.2.10,MacIntel,60,61025ae37ef11b136ea224fe,,,,,,,,,2399,69.0803833,36.97583008,1,0,0,response1disk,,6,9.863586426,-1.086364746,1,0,0,rectangle,9.863586426,-1.086364746,1,0,0,9.863586426,-1.086364746,1,0,0,0,73,73,149,1,,,,,,,,
,,,,,,,,,,,,,FF,,,,,,,,0.6829,,,,,,,,,,,,,,,,,,,,,,6100dbf4d8e0cc51cf89039c,610365d47a29a4a977a46b5a,2021-07-29_22h37.49.676,Simcolourproject_2stim_asymm_v5,2020.2.10,MacIntel,60,61025ae37ef11b136ea224fe,,,,,,,,,1856,37.00939941,65.36688232,1,0,0,response1disk,,7,0.425964355,-11.5380249,1,0,0,rectangle,0.425964355,-11.5380249,1,0,0,0.425964355,-11.5380249,1,0,0,0,74,74,126,1,,,,,,,,
,,,,,,,,,,,,,FF,,,,,,,,0.5856,,,,,,,,,,,,,,,,,,,,,,6100dbf4d8e0cc51cf89039c,610365d47a29a4a977a46b5a,2021-07-29_22h37.49.676,Simcolourproject_2stim_asymm_v5,2020.2.10,MacIntel,60,61025ae37ef11b136ea224fe,,,,,,,,,1849,26.88757324,58.80780029,1,0,0,response1disk,,7,9.815551758,-3.137756348,1,0,0,rectangle,9.815551758,-3.137756348,1,0,0,9.815551758,-3.137756348,1,0,0,0,75,75,127,1,,,,,,,,
,,,,,,,,,,,,,FF,,,,,,,,0.7677,,,,,,,,,,,,,,,,,,,,,,6100dbf4d8e0cc51cf89039c,610365d47a29a4a977a46b5a,2021-07-29_22h37.49.676,Simcolourproject_2stim_asymm_v5,2020.2.10,MacIntel,60,61025ae37ef11b136ea224fe,,,,,,,,,1888,-53.09393311,23.62200928,1,0,0,response7disk,,1,-6.749816895,9.331176758,1,0,0,rectangle,-6.749816895,9.331176758,1,0,0,-6.749816895,9.331176758,1,0,0,0,76,76,85,1,,,,,,,,
,,,,,,,,,,,,,FF,,,,,,,,0.8515,,,,,,,,,,,,,,,,,,,,,,6100dbf4d8e0cc51cf89039c,610365d47a29a4a977a46b5a,2021-07-29_22h37.49.676,Simcolourproject_2stim_asymm_v5,2020.2.10,MacIntel,60,61025ae37ef11b136ea224fe,,,,,,,,,1752,-47.47351074,-31.52630615,1,0,0,response5disk,,2,-11.02581787,-8.291870117,1,0,0,rectangle,-11.02581787,-8.291870117,1,0,0,-11.02581787,-8.291870117,1,0,0,0,77,77,72,1,,,,,,,,
,,,,,,,,,,,,,FF,,,,,,,,0.6132,,,,,,,,,,,,,,,,,,,,,,6100dbf4d8e0cc51cf89039c,610365d47a29a4a977a46b5a,2021-07-29_22h37.49.676,Simcolourproject_2stim_asymm_v5,2020.2.10,MacIntel,60,61025ae37ef11b136ea224fe,,,,,,,,,2232,-41.2142334,-63.64508057,1,0,0,response5disk,,3,-17.46087646,-9.786804199,1,0,0,rectangle,-17.46087646,-9.786804199,1,0,0,-17.46087646,-9.786804199,1,0,0,0,78,78,56,1,,,,,,,,
,,,,,,,,,,,,,FF,,,,,,,,1.2835,,,,,,,,,,,,,,,,,,,,,,6100dbf4d8e0cc51cf89039c,610365d47a29a4a977a46b5a,2021-07-29_22h37.49.676,Simcolourproject_2stim_asymm_v5,2020.2.10,MacIntel,60,61025ae37ef11b136ea224fe,,,,,,,,,310,42.5546875,54.85900879,1,0,0,response1disk,,7,16.25402832,1.230102539,1,0,0,rectangle,16.25402832,1.230102539,1,0,0,16.25402832,1.230102539,1,0,0,0,79,79,112,1,,,,,,,,
,,,,,,,,,,,,,FF,,,,,,,,0.5176,,,,,,,,,,,,,,,,,,,,,,6100dbf4d8e0cc51cf89039c,610365d47a29a4a977a46b5a,2021-07-29_22h37.49.676,Simcolourproject_2stim_asymm_v5,2020.2.10,MacIntel,60,61025ae37ef11b136ea224fe,,,,,,,,,311,36.87921143,88.76153564,1,0,0,response1disk,,7,9.437133789,17.89404297,1,0,0,rectangle,9.437133789,17.89404297,1,0,0,9.437133789,17.89404297,1,0,0,0,80,80,131,1,,,,,,,,
,,,,,,,,,,,,,FF,,,,,,,,0.8995,,,,,,,,,,,,,,,,,,,,,,6100dbf4d8e0cc51cf89039c,610365d47a29a4a977a46b5a,2021-07-29_22h37.49.676,Simcolourproject_2stim_asymm_v5,2020.2.10,MacIntel,60,61025ae37ef11b136ea224fe,,,,,,,,,1428,62.39825439,32.30334473,1,0,0,response1disk,,6,7.337219238,3.073791504,1,0,0,rectangle,7.337219238,3.073791504,1,0,0,7.337219238,3.073791504,1,0,0,0,81,81,59,1,,,,,,,,
,,,,,,,,,,,,,FF,,,,,,,,0.867,,,,,,,,,,,,,,,,,,,,,,6100dbf4d8e0cc51cf89039c,610365d47a29a4a977a46b5a,2021-07-29_22h37.49.676,Simcolourproject_2stim_asymm_v5,2020.2.10,MacIntel,60,61025ae37ef11b136ea224fe,,,,,,,,,3062,72.96697998,-41.31787109,1,0,0,response3disk,,5,15.49725342,-11.88006592,1,0,0,rectangle,15.49725342,-11.88006592,1,0,0,15.49725342,-11.88006592,1,0,0,0,82,82,80,1,,,,,,,,
,,,,,,,,,,,,,FF,,,,,,,,1.5839,,,,,,,,,,,,,,,,,,,,,,6100dbf4d8e0cc51cf89039c,610365d47a29a4a977a46b5a,2021-07-29_22h37.49.676,Simcolourproject_2stim_asymm_v5,2020.2.10,MacIntel,60,61025ae37ef11b136ea224fe,,,,,,,,,4023,-38.82598877,-87.94567871,1,0,0,response5disk,,3,-6.004943848,-8.893341064,1,0,0,rectangle,-6.004943848,-8.893341064,1,0,0,-6.004943848,-8.893341064,1,0,0,0,83,83,100,1,,,,,,,,
,,,,,,,,,,,,,FF,,,,,,,,0.9014,,,,,,,,,,,,,,,,,,,,,,6100dbf4d8e0cc51cf89039c,610365d47a29a4a977a46b5a,2021-07-29_22h37.49.676,Simcolourproject_2stim_asymm_v5,2020.2.10,MacIntel,60,61025ae37ef11b136ea224fe,,,,,,,,,4184,78.95703125,56.25628662,1,0,0,response1disk,,6,12.29846191,9.548553467,1,0,0,rectangle,12.29846191,9.548553467,1,0,0,12.29846191,9.548553467,1,0,0,0,84,84,2,1,,,,,,,,
,,,,,,,,,,,,,FF,,,,,,,,0.5832,,,,,,,,,,,,,,,,,,,,,,6100dbf4d8e0cc51cf89039c,610365d47a29a4a977a46b5a,2021-07-29_22h37.49.676,Simcolourproject_2stim_asymm_v5,2020.2.10,MacIntel,60,61025ae37ef11b136ea224fe,,,,,,,,,1950,30.73431396,70.86676025,1,0,0,response1disk,,7,14.9730835,4.372039795,1,0,0,rectangle,14.9730835,4.372039795,1,0,0,14.9730835,4.372039795,1,0,0,0,85,85,75,1,,,,,,,,
,,,,,,,,,,,,,FF,,,,,,,,0.5671,,,,,,,,,,,,,,,,,,,,,,6100dbf4d8e0cc51cf89039c,610365d47a29a4a977a46b5a,2021-07-29_22h37.49.676,Simcolourproject_2stim_asymm_v5,2020.2.10,MacIntel,60,61025ae37ef11b136ea224fe,,,,,,,,,2142,35.7197876,78.88119507,1,0,0,response1disk,,7,10.71173096,-1.582946777,1,0,0,rectangle,10.71173096,-1.582946777,1,0,0,10.71173096,-1.582946777,1,0,0,0,86,86,53,1,,,,,,,,
,,,,,,,,,,,,,FF,,,,,,,,1.3622,,,,,,,,,,,,,,,,,,,,,,6100dbf4d8e0cc51cf89039c,610365d47a29a4a977a46b5a,2021-07-29_22h37.49.676,Simcolourproject_2stim_asymm_v5,2020.2.10,MacIntel,60,61025ae37ef11b136ea224fe,,,,,,,,,3641,18.81097412,56.00048828,1,0,0,response1disk,,7,9.193786621,3.867919922,1,0,0,rectangle,9.193786621,3.867919922,1,0,0,9.193786621,3.867919922,1,0,0,0,87,87,108,1,,,,,,,,
,,,,,,,,,,,,,FF,,,,,,,,0.7993,,,,,,,,,,,,,,,,,,,,,,6100dbf4d8e0cc51cf89039c,610365d47a29a4a977a46b5a,2021-07-29_22h37.49.676,Simcolourproject_2stim_asymm_v5,2020.2.10,MacIntel,60,61025ae37ef11b136ea224fe,,,,,,,,,410,33.52349854,60.7322998,1,0,0,response1disk,,7,13.4666748,-14.7276001,1,0,0,rectangle,13.4666748,-14.7276001,1,0,0,13.4666748,-14.7276001,1,0,0,0,88,88,33,1,,,,,,,,
,,,,,,,,,,,,,FF,,,,,,,,0.4337,,,,,,,,,,,,,,,,,,,,,,6100dbf4d8e0cc51cf89039c,610365d47a29a4a977a46b5a,2021-07-29_22h37.49.676,Simcolourproject_2stim_asymm_v5,2020.2.10,MacIntel,60,61025ae37ef11b136ea224fe,,,,,,,,,2744,78.94494629,25.97509766,1,0,0,response1disk,,6,1.643737793,-0.147583008,1,0,0,rectangle,1.643737793,-0.147583008,1,0,0,1.643737793,-0.147583008,1,0,0,0,89,89,18,1,,,,,,,,
,,,,,,,,,,,,,FF,,,,,,,,0.7501,,,,,,,,,,,,,,,,,,,,,,6100dbf4d8e0cc51cf89039c,610365d47a29a4a977a46b5a,2021-07-29_22h37.49.676,Simcolourproject_2stim_asymm_v5,2020.2.10,MacIntel,60,61025ae37ef11b136ea224fe,,,,,,,,,2038,64.24536133,-35.03964233,1,0,0,response3disk,,5,20.28997803,-6.911560059,1,0,0,rectangle,20.28997803,-6.911560059,1,0,0,20.28997803,-6.911560059,1,0,0,0,90,90,136,1,,,,,,,,
,,,,,,,,,,,,,FF,,,,,,,,1.5676,,,,,,,,,,,,,,,,,,,,,,6100dbf4d8e0cc51cf89039c,610365d47a29a4a977a46b5a,2021-07-29_22h37.49.676,Simcolourproject_2stim_asymm_v5,2020.2.10,MacIntel,60,61025ae37ef11b136ea224fe,,,,,,,,,572,41.18945313,65.46008301,1,0,0,response1disk,,7,16.45196533,6.434692383,1,0,0,rectangle,16.45196533,6.434692383,1,0,0,16.45196533,6.434692383,1,0,0,0,91,91,6,1,,,,,,,,
,,,,,,,,,,,,,FF,,,,,,,,1.201,,,,,,,,,,,,,,,,,,,,,,6100dbf4d8e0cc51cf89039c,610365d47a29a4a977a46b5a,2021-07-29_22h37.49.676,Simcolourproject_2stim_asymm_v5,2020.2.10,MacIntel,60,61025ae37ef11b136ea224fe,,,,,,,,,4013,40.11218262,45.63000488,1,0,0,response1disk,,7,18.17181396,6.227355957,1,0,0,rectangle,18.17181396,6.227355957,1,0,0,18.17181396,6.227355957,1,0,0,0,92,92,139,1,,,,,,,,
,,,,,,,,,,,,,FF,,,,,,,,0.584,,,,,,,,,,,,,,,,,,,,,,6100dbf4d8e0cc51cf89039c,610365d47a29a4a977a46b5a,2021-07-29_22h37.49.676,Simcolourproject_2stim_asymm_v5,2020.2.10,MacIntel,60,61025ae37ef11b136ea224fe,,,,,,,,,4312,61.28619385,41.28997803,1,0,0,response1disk,,6,13.55859375,9.17199707,1,0,0,rectangle,13.55859375,9.17199707,1,0,0,13.55859375,9.17199707,1,0,0,0,93,93,132,1,,,,,,,,
,,,,,,,,,,,,,FF,,,,,,,,0.4665,,,,,,,,,,,,,,,,,,,,,,6100dbf4d8e0cc51cf89039c,610365d47a29a4a977a46b5a,2021-07-29_22h37.49.676,Simcolourproject_2stim_asymm_v5,2020.2.10,MacIntel,60,61025ae37ef11b136ea224fe,,,,,,,,,1640,36.82897949,69.13598633,1,0,0,response1disk,,7,21.99517822,3.893920898,1,0,0,rectangle,21.99517822,3.893920898,1,0,0,21.99517822,3.893920898,1,0,0,0,94,94,73,1,,,,,,,,
,,,,,,,,,,,,,FF,,,,,,,,2.7341,,,,,,,,,,,,,,,,,,,,,,6100dbf4d8e0cc51cf89039c,610365d47a29a4a977a46b5a,2021-07-29_22h37.49.676,Simcolourproject_2stim_asymm_v5,2020.2.10,MacIntel,60,61025ae37ef11b136ea224fe,,,,,,,,,504,31.00671387,67.50830078,1,0,0,response1disk,,7,17.24981689,-14.36358643,1,0,0,rectangle,17.24981689,-14.36358643,1,0,0,17.24981689,-14.36358643,1,0,0,0,95,95,78,1,,,,,,,,
,,,,,,,,,,,,,FF,,,,,,,,1.1846,,,,,,,,,,,,,,,,,,,,,,6100dbf4d8e0cc51cf89039c,610365d47a29a4a977a46b5a,2021-07-29_22h37.49.676,Simcolourproject_2stim_asymm_v5,2020.2.10,MacIntel,60,61025ae37ef11b136ea224fe,,,,,,,,,4233,68.84442139,-36.08001709,1,0,0,response3disk,,5,-4.849487305,-10.95581055,1,0,0,rectangle,75.61804199,-21.88647461,1,0,0,12.63311768,-8.156646729,1,0,0,0,96,96,95,1,,response3disk_3,TRUE,5,5,"[153,63,148,46,131,250,97,275,112,193,193,270,141,306,185,298,309,133,106,68]",1.7665,rectangle
,,,,,,,,,,,,,FF,,,,,,,,2.2015,,,,,,,,,,,,,,,,,,,,,,6100dbf4d8e0cc51cf89039c,610365d47a29a4a977a46b5a,2021-07-29_22h37.49.676,Simcolourproject_2stim_asymm_v5,2020.2.10,MacIntel,60,61025ae37ef11b136ea224fe,,,,,,,,,1364,24.24511719,59.55709839,1,0,0,response1disk,,7,6.869506836,-15.95559692,1,0,0,rectangle,6.869506836,-15.95559692,1,0,0,6.869506836,-15.95559692,1,0,0,0,97,97,110,1,,,,,,,,
,,,,,,,,,,,,,FF,,,,,,,,1.2846,,,,,,,,,,,,,,,,,,,,,,6100dbf4d8e0cc51cf89039c,610365d47a29a4a977a46b5a,2021-07-29_22h37.49.676,Simcolourproject_2stim_asymm_v5,2020.2.10,MacIntel,60,61025ae37ef11b136ea224fe,,,,,,,,,3040,-72.24188232,39.67041016,1,0,0,response7disk,,1,-7.325134277,7.857513428,1,0,0,rectangle,-7.325134277,7.857513428,1,0,0,-7.325134277,7.857513428,1,0,0,0,98,98,83,1,,,,,,,,
,,,,,,,,,,,,,FF,,,,,,,,0.7675,,,,,,,,,,,,,,,,,,,,,,6100dbf4d8e0cc51cf89039c,610365d47a29a4a977a46b5a,2021-07-29_22h37.49.676,Simcolourproject_2stim_asymm_v5,2020.2.10,MacIntel,60,61025ae37ef11b136ea224fe,,,,,,,,,1369,-62.79455566,46.51599121,1,0,0,response7disk,,1,0.34564209,-9.753662109,1,0,0,rectangle,0.34564209,-9.753662109,1,0,0,0.34564209,-9.753662109,1,0,0,0,99,99,1,1,,,,,,,,
,,,,,,,,,,,,,FF,,,,,,,,0.7001,,,,,,,,,,,,,,,,,,,,,,6100dbf4d8e0cc51cf89039c,610365d47a29a4a977a46b5a,2021-07-29_22h37.49.676,Simcolourproject_2stim_asymm_v5,2020.2.10,MacIntel,60,61025ae37ef11b136ea224fe,,,,,,,,,4002,72.61437988,-49.409729,1,0,0,response3disk,,5,-11.33551025,-2.852874756,1,0,0,rectangle,-11.33551025,-2.852874756,1,0,0,-11.33551025,-2.852874756,1,0,0,0,100,100,32,1,,,,,,,,
,,,,,,,,,,,,,FF,,,,,,,,0.7994,,,,,,,,,,,,,,,,,,,,,,6100dbf4d8e0cc51cf89039c,610365d47a29a4a977a46b5a,2021-07-29_22h37.49.676,Simcolourproject_2stim_asymm_v5,2020.2.10,MacIntel,60,61025ae37ef11b136ea224fe,,,,,,,,,2831,-33.33343506,97.22070313,1,0,0,response7disk,,0,-13.28167725,8.569519043,1,0,0,rectangle,-13.28167725,8.569519043,1,0,0,-13.28167725,8.569519043,1,0,0,0,101,101,25,1,,,,,,,,
,,,,,,,,,,,,,FF,,,,,,,,1.0326,,,,,,,,,,,,,,,,,,,,,,6100dbf4d8e0cc51cf89039c,610365d47a29a4a977a46b5a,2021-07-29_22h37.49.676,Simcolourproject_2stim_asymm_v5,2020.2.10,MacIntel,60,61025ae37ef11b136ea224fe,,,,,,,,,1966,39.32952881,86.70159912,1,0,0,response1disk,,7,-2.475585938,11.67156982,1,0,0,rectangle,-2.475585938,11.67156982,1,0,0,-2.475585938,11.67156982,1,0,0,0,102,102,70,1,,,,,,,,
,,,,,,,,,,,,,FF,,,,,,,,1.4015,,,,,,,,,,,,,,,,,,,,,,6100dbf4d8e0cc51cf89039c,610365d47a29a4a977a46b5a,2021-07-29_22h37.49.676,Simcolourproject_2stim_asymm_v5,2020.2.10,MacIntel,60,61025ae37ef11b136ea224fe,,,,,,,,,2221,-40.98858643,-49.08877563,1,0,0,response5disk,,3,-14.30511475,-7.652160645,1,0,0,rectangle,-14.30511475,-7.652160645,1,0,0,-14.30511475,-7.652160645,1,0,0,0,103,103,29,1,,,,,,,,
,,,,,,,,,,,,,FF,,,,,,,,1.1521,,,,,,,,,,,,,,,,,,,,,,6100dbf4d8e0cc51cf89039c,610365d47a29a4a977a46b5a,2021-07-29_22h37.49.676,Simcolourproject_2stim_asymm_v5,2020.2.10,MacIntel,60,61025ae37ef11b136ea224fe,,,,,,,,,1755,92.58361816,-33.8706665,1,0,0,response3disk,,5,-5.700439453,-17.06314087,1,0,0,rectangle,-5.700439453,-17.06314087,1,0,0,-5.700439453,-17.06314087,1,0,0,0,104,104,115,1,,,,,,,,
,,,,,,,,,,,,,FF,,,,,,,,0.7179,,,,,,,,,,,,,,,,,,,,,,6100dbf4d8e0cc51cf89039c,610365d47a29a4a977a46b5a,2021-07-29_22h37.49.676,Simcolourproject_2stim_asymm_v5,2020.2.10,MacIntel,60,61025ae37ef11b136ea224fe,,,,,,,,,520,74.18389893,36.36346436,1,0,0,response1disk,,6,8.467041016,5.52154541,1,0,0,rectangle,-43.54266357,-72.04779053,1,0,0,-5.320922852,-4.187896729,1,0,0,0,105,105,71,1,,response5disk_3,TRUE,3,3,"[153,63,148,46,131,250,97,275,112,193,193,270,141,306,185,298,309,133,106,68]",2.5331,rectangle
,,,,,,,,,,,,,FF,,,,,,,,0.6848,,,,,,,,,,,,,,,,,,,,,,6100dbf4d8e0cc51cf89039c,610365d47a29a4a977a46b5a,2021-07-29_22h37.49.676,Simcolourproject_2stim_asymm_v5,2020.2.10,MacIntel,60,61025ae37ef11b136ea224fe,,,,,,,,,769,55.86181641,97.21026611,1,0,0,response1disk,,7,12.20550537,4.449920654,1,0,0,rectangle,12.20550537,4.449920654,1,0,0,12.20550537,4.449920654,1,0,0,0,106,106,129,1,,,,,,,,
,,,,,,,,,,,,,FF,,,,,,,,1.2843,,,,,,,,,,,,,,,,,,,,,,6100dbf4d8e0cc51cf89039c,610365d47a29a4a977a46b5a,2021-07-29_22h37.49.676,Simcolourproject_2stim_asymm_v5,2020.2.10,MacIntel,60,61025ae37ef11b136ea224fe,,,,,,,,,948,80.76220703,28.18325806,1,0,0,response1disk,,6,14.29589844,-2.15536499,1,0,0,rectangle,14.29589844,-2.15536499,1,0,0,14.29589844,-2.15536499,1,0,0,0,107,107,49,1,,,,,,,,
,,,,,,,,,,,,,FF,,,,,,,,0.6502,,,,,,,,,,,,,,,,,,,,,,6100dbf4d8e0cc51cf89039c,610365d47a29a4a977a46b5a,2021-07-29_22h37.49.676,Simcolourproject_2stim_asymm_v5,2020.2.10,MacIntel,60,61025ae37ef11b136ea224fe,,,,,,,,,66,41.67584229,-90.83575439,1,0,0,response3disk,,4,19.706604,-8.882843018,1,0,0,rectangle,19.706604,-8.882843018,1,0,0,19.706604,-8.882843018,1,0,0,0,108,108,111,1,,,,,,,,
,,,,,,,,,,,,,FF,,,,,,,,0.9673,,,,,,,,,,,,,,,,,,,,,,6100dbf4d8e0cc51cf89039c,610365d47a29a4a977a46b5a,2021-07-29_22h37.49.676,Simcolourproject_2stim_asymm_v5,2020.2.10,MacIntel,60,61025ae37ef11b136ea224fe,,,,,,,,,3483,30.01446533,60.06634521,1,0,0,response1disk,,7,8.07434082,6.090911865,1,0,0,rectangle,8.07434082,6.090911865,1,0,0,8.07434082,6.090911865,1,0,0,0,109,109,8,1,,,,,,,,
,,,,,,,,,,,,,FF,,,,,,,,0.6658,,,,,,,,,,,,,,,,,,,,,,6100dbf4d8e0cc51cf89039c,610365d47a29a4a977a46b5a,2021-07-29_22h37.49.676,Simcolourproject_2stim_asymm_v5,2020.2.10,MacIntel,60,61025ae37ef11b136ea224fe,,,,,,,,,3452,85.58374023,33.70892334,1,0,0,response1disk,,6,7.078735352,13.36129761,1,0,0,rectangle,7.078735352,13.36129761,1,0,0,7.078735352,13.36129761,1,0,0,0,110,110,34,1,,,,,,,,
,,,,,,,,,,,,,FF,,,,,,,,0.5351,,,,,,,,,,,,,,,,,,,,,,6100dbf4d8e0cc51cf89039c,610365d47a29a4a977a46b5a,2021-07-29_22h37.49.676,Simcolourproject_2stim_asymm_v5,2020.2.10,MacIntel,60,61025ae37ef11b136ea224fe,,,,,,,,,40,61.61016846,-38.93023682,1,0,0,response3disk,,5,26.73101807,-13.7835083,1,0,0,rectangle,15.93084717,-70.1362915,1,0,0,9.233703613,-6.886108398,1,0,0,0,111,111,141,1,,response3disk_3,TRUE,4,4,"[153,63,148,46,131,250,97,275,112,193,193,270,141,306,185,298,309,133,106,68]",1.3167,rectangle
,,,,,,,,,,,,,FF,,,,,,,,1.1357,,,,,,,,,,,,,,,,,,,,,,6100dbf4d8e0cc51cf89039c,610365d47a29a4a977a46b5a,2021-07-29_22h37.49.676,Simcolourproject_2stim_asymm_v5,2020.2.10,MacIntel,60,61025ae37ef11b136ea224fe,,,,,,,,,392,49.51434326,86.91625977,1,0,0,response1disk,,7,-8.313903809,-0.678131104,1,0,0,rectangle,-8.313903809,-0.678131104,1,0,0,-8.313903809,-0.678131104,1,0,0,0,112,112,142,1,,,,,,,,
,,,,,,,,,,,,,FF,,,,,,,,0.7349,,,,,,,,,,,,,,,,,,,,,,6100dbf4d8e0cc51cf89039c,610365d47a29a4a977a46b5a,2021-07-29_22h37.49.676,Simcolourproject_2stim_asymm_v5,2020.2.10,MacIntel,60,61025ae37ef11b136ea224fe,,,,,,,,,1311,115.4234009,37.50006104,1,0,0,response1disk,,6,27.34887695,13.95874023,1,0,0,rectangle,27.34887695,13.95874023,1,0,0,27.34887695,13.95874023,1,0,0,0,113,113,14,1,,,,,,,,
,,,,,,,,,,,,,FF,,,,,,,,1.0173,,,,,,,,,,,,,,,,,,,,,,6100dbf4d8e0cc51cf89039c,610365d47a29a4a977a46b5a,2021-07-29_22h37.49.676,Simcolourproject_2stim_asymm_v5,2020.2.10,MacIntel,60,61025ae37ef11b136ea224fe,,,,,,,,,2593,29.15533447,-42.9133606,1,0,0,response3disk,,4,16.48413086,-15.81005859,1,0,0,rectangle,16.48413086,-15.81005859,1,0,0,16.48413086,-15.81005859,1,0,0,0,114,114,152,1,,,,,,,,
,,,,,,,,,,,,,FF,,,,,,,,0.683,,,,,,,,,,,,,,,,,,,,,,6100dbf4d8e0cc51cf89039c,610365d47a29a4a977a46b5a,2021-07-29_22h37.49.676,Simcolourproject_2stim_asymm_v5,2020.2.10,MacIntel,60,61025ae37ef11b136ea224fe,,,,,,,,,1749,22.4050293,-65.66149902,1,0,0,response3disk,,4,2.626647949,-7.742004395,1,0,0,rectangle,2.626647949,-7.742004395,1,0,0,2.626647949,-7.742004395,1,0,0,0,115,115,134,1,,,,,,,,
,,,,,,,,,,,,,FF,,,,,,,,0.9509,,,,,,,,,,,,,,,,,,,,,,6100dbf4d8e0cc51cf89039c,610365d47a29a4a977a46b5a,2021-07-29_22h37.49.676,Simcolourproject_2stim_asymm_v5,2020.2.10,MacIntel,60,61025ae37ef11b136ea224fe,,,,,,,,,408,47.90124512,-65.04876709,1,0,0,response3disk,,4,30.25872803,-14.58721924,1,0,0,rectangle,30.25872803,-14.58721924,1,0,0,30.25872803,-14.58721924,1,0,0,0,116,116,122,1,,,,,,,,
,,,,,,,,,,,,,FF,,,,,,,,0.3996,,,,,,,,,,,,,,,,,,,,,,6100dbf4d8e0cc51cf89039c,610365d47a29a4a977a46b5a,2021-07-29_22h37.49.676,Simcolourproject_2stim_asymm_v5,2020.2.10,MacIntel,60,61025ae37ef11b136ea224fe,,,,,,,,,2043,60.70355225,-28.06994629,1,0,0,response3disk,,5,12.1987915,-8.696411133,1,0,0,rectangle,12.1987915,-8.696411133,1,0,0,12.1987915,-8.696411133,1,0,0,0,117,117,96,1,,,,,,,,
,,,,,,,,,,,,,FF,,,,,,,,0.8338,,,,,,,,,,,,,,,,,,,,,,6100dbf4d8e0cc51cf89039c,610365d47a29a4a977a46b5a,2021-07-29_22h37.49.676,Simcolourproject_2stim_asymm_v5,2020.2.10,MacIntel,60,61025ae37ef11b136ea224fe,,,,,,,,,3248,-44.67932129,-117.6346436,1,0,0,response5disk,,3,-16.61505127,9.387145996,1,0,0,rectangle,-16.61505127,9.387145996,1,0,0,-16.61505127,9.387145996,1,0,0,0,118,118,3,1,,,,,,,,
,,,,,,,,,,,,,FF,,,,,,,,1.0995,,,,,,,,,,,,,,,,,,,,,,6100dbf4d8e0cc51cf89039c,610365d47a29a4a977a46b5a,2021-07-29_22h37.49.676,Simcolourproject_2stim_asymm_v5,2020.2.10,MacIntel,60,61025ae37ef11b136ea224fe,,,,,,,,,3033,-63.52215576,-23.06536865,1,0,0,response5disk,,2,17.75036621,4.756774902,1,0,0,rectangle,17.75036621,4.756774902,1,0,0,17.75036621,4.756774902,1,0,0,0,119,119,106,1,,,,,,,,
,,,,,,,,,,,,,FF,,,,,,,,0.7655,,,,,,,,,,,,,,,,,,,,,,6100dbf4d8e0cc51cf89039c,610365d47a29a4a977a46b5a,2021-07-29_22h37.49.676,Simcolourproject_2stim_asymm_v5,2020.2.10,MacIntel,60,61025ae37ef11b136ea224fe,,,,,,,,,2923,79.99395752,24.39178467,1,0,0,response1disk,,6,5.312316895,-5.909057617,1,0,0,rectangle,5.312316895,-5.909057617,1,0,0,5.312316895,-5.909057617,1,0,0,0,120,120,99,1,,,,,,,,
,,,,,,,,,,,,,FF,,,,,,,,0.6005,,,,,,,,,,,,,,,,,,,,,,6100dbf4d8e0cc51cf89039c,610365d47a29a4a977a46b5a,2021-07-29_22h37.49.676,Simcolourproject_2stim_asymm_v5,2020.2.10,MacIntel,60,61025ae37ef11b136ea224fe,,,,,,,,,3321,17.88458252,49.46728516,1,0,0,response1disk,,7,-17.11071777,-5.872436523,1,0,0,rectangle,-17.11071777,-5.872436523,1,0,0,-17.11071777,-5.872436523,1,0,0,0,121,121,68,1,,,,,,,,
,,,,,,,,,,,,,FF,,,,,,,,0.6018,,,,,,,,,,,,,,,,,,,,,,6100dbf4d8e0cc51cf89039c,610365d47a29a4a977a46b5a,2021-07-29_22h37.49.676,Simcolourproject_2stim_asymm_v5,2020.2.10,MacIntel,60,61025ae37ef11b136ea224fe,,,,,,,,,3039,73.87145996,-35.85421753,1,0,0,response3disk,,5,0.199829102,14.3626709,1,0,0,rectangle,0.199829102,14.3626709,1,0,0,0.199829102,14.3626709,1,0,0,0,122,122,20,1,,,,,,,,
,,,,,,,,,,,,,FF,,,,,,,,0.7838,,,,,,,,,,,,,,,,,,,,,,6100dbf4d8e0cc51cf89039c,610365d47a29a4a977a46b5a,2021-07-29_22h37.49.676,Simcolourproject_2stim_asymm_v5,2020.2.10,MacIntel,60,61025ae37ef11b136ea224fe,,,,,,,,,4293,-35.15545654,97.11553955,1,0,0,response7disk,,0,-3.34954834,-4.508056641,1,0,0,rectangle,-3.34954834,-4.508056641,1,0,0,-3.34954834,-4.508056641,1,0,0,0,123,123,92,1,,,,,,,,
,,,,,,,,,,,,,FF,,,,,,,,0.902,,,,,,,,,,,,,,,,,,,,,,6100dbf4d8e0cc51cf89039c,610365d47a29a4a977a46b5a,2021-07-29_22h37.49.676,Simcolourproject_2stim_asymm_v5,2020.2.10,MacIntel,60,61025ae37ef11b136ea224fe,,,,,,,,,827,40.35327148,21.921875,1,0,0,response1disk,,6,-7.730102539,-6.232299805,1,0,0,rectangle,-7.730102539,-6.232299805,1,0,0,-7.730102539,-6.232299805,1,0,0,0,124,124,117,1,,,,,,,,
,,,,,,,,,,,,,FF,,,,,,,,1.1843,,,,,,,,,,,,,,,,,,,,,,6100dbf4d8e0cc51cf89039c,610365d47a29a4a977a46b5a,2021-07-29_22h37.49.676,Simcolourproject_2stim_asymm_v5,2020.2.10,MacIntel,60,61025ae37ef11b136ea224fe,,,,,,,,,1529,41.99822998,97.29217529,1,0,0,response1disk,,7,11.37573242,1.354858398,1,0,0,rectangle,11.37573242,1.354858398,1,0,0,11.37573242,1.354858398,1,0,0,0,125,125,63,1,,,,,,,,
,,,,,,,,,,,,,FF,,,,,,,,0.6171,,,,,,,,,,,,,,,,,,,,,,6100dbf4d8e0cc51cf89039c,610365d47a29a4a977a46b5a,2021-07-29_22h37.49.676,Simcolourproject_2stim_asymm_v5,2020.2.10,MacIntel,60,61025ae37ef11b136ea224fe,,,,,,,,,815,32.31427002,62.74090576,1,0,0,response1disk,,7,24.29547119,4.022216797,1,0,0,rectangle,24.29547119,4.022216797,1,0,0,24.29547119,4.022216797,1,0,0,0,126,126,60,1,,,,,,,,
,,,,,,,,,,,,,FF,,,,,,,,0.4179,,,,,,,,,,,,,,,,,,,,,,6100dbf4d8e0cc51cf89039c,610365d47a29a4a977a46b5a,2021-07-29_22h37.49.676,Simcolourproject_2stim_asymm_v5,2020.2.10,MacIntel,60,61025ae37ef11b136ea224fe,,,,,,,,,350,45.15014648,50.88098145,1,0,0,response1disk,,7,13.39294434,5.623535156,1,0,0,rectangle,13.39294434,5.623535156,1,0,0,13.39294434,5.623535156,1,0,0,0,127,127,31,1,,,,,,,,
,,,,,,,,,,,,,FF,,,,,,,,1.0177,,,,,,,,,,,,,,,,,,,,,,6100dbf4d8e0cc51cf89039c,610365d47a29a4a977a46b5a,2021-07-29_22h37.49.676,Simcolourproject_2stim_asymm_v5,2020.2.10,MacIntel,60,61025ae37ef11b136ea224fe,,,,,,,,,2164,39.75115967,-88.19494629,1,0,0,response3disk,,4,2.755187988,-14.93786621,1,0,0,rectangle,2.755187988,-14.93786621,1,0,0,2.755187988,-14.93786621,1,0,0,0,128,128,119,1,,,,,,,,
,,,,,,,,,,,,,FF,,,,,,,,0.9494,,,,,,,,,,,,,,,,,,,,,,6100dbf4d8e0cc51cf89039c,610365d47a29a4a977a46b5a,2021-07-29_22h37.49.676,Simcolourproject_2stim_asymm_v5,2020.2.10,MacIntel,60,61025ae37ef11b136ea224fe,,,,,,,,,880,-48.63354492,-83.98144531,1,0,0,response5disk,,3,-13.14825439,-2.520996094,1,0,0,rectangle,-13.14825439,-2.520996094,1,0,0,-13.14825439,-2.520996094,1,0,0,0,129,129,27,1,,,,,,,,
,,,,,,,,,,,,,FF,,,,,,,,0.917,,,,,,,,,,,,,,,,,,,,,,6100dbf4d8e0cc51cf89039c,610365d47a29a4a977a46b5a,2021-07-29_22h37.49.676,Simcolourproject_2stim_asymm_v5,2020.2.10,MacIntel,60,61025ae37ef11b136ea224fe,,,,,,,,,4008,-35.83575439,112.8551025,1,0,0,response7disk,,0,6.262939453,7.872009277,1,0,0,rectangle,-38.71960449,-93.68859863,1,0,0,-16.67047119,7.539154053,1,0,0,0,130,130,86,1,,response5disk_3,TRUE,3,3,"[153,63,148,46,131,250,97,275,112,193,193,270,141,306,185,298,309,133,106,68]",2.2322,rectangle
,,,,,,,,,,,,,FF,,,,,,,,2.6333,,,,,,,,,,,,,,,,,,,,,,6100dbf4d8e0cc51cf89039c,610365d47a29a4a977a46b5a,2021-07-29_22h37.49.676,Simcolourproject_2stim_asymm_v5,2020.2.10,MacIntel,60,61025ae37ef11b136ea224fe,,,,,,,,,1063,36.93121338,68.5022583,1,0,0,response1disk,,7,5.953979492,-4.966430664,1,0,0,rectangle,5.953979492,-4.966430664,1,0,0,5.953979492,-4.966430664,1,0,0,0,131,131,43,1,,,,,,,,
,,,,,,,,,,,,,FF,,,,,,,,1.6171,,,,,,,,,,,,,,,,,,,,,,6100dbf4d8e0cc51cf89039c,610365d47a29a4a977a46b5a,2021-07-29_22h37.49.676,Simcolourproject_2stim_asymm_v5,2020.2.10,MacIntel,60,61025ae37ef11b136ea224fe,,,,,,,,,1393,24.19647217,64.51708984,1,0,0,response1disk,,7,14.76617432,6.19543457,1,0,0,rectangle,47.28979492,-96.58349609,1,0,0,20.9732666,5.473754883,1,0,0,0,132,132,26,1,,response3disk_3,TRUE,4,4,"[153,63,148,46,131,250,97,275,112,193,193,270,141,306,185,298,309,133,106,68]",1.6001,rectangle
,,,,,,,,,,,,,FF,,,,,,,,1.1339,,,,,,,,,,,,,,,,,,,,,,6100dbf4d8e0cc51cf89039c,610365d47a29a4a977a46b5a,2021-07-29_22h37.49.676,Simcolourproject_2stim_asymm_v5,2020.2.10,MacIntel,60,61025ae37ef11b136ea224fe,,,,,,,,,1101,66.88665771,44.83709717,1,0,0,response1disk,,6,9.923156738,4.006896973,1,0,0,rectangle,9.923156738,4.006896973,1,0,0,9.923156738,4.006896973,1,0,0,0,133,133,41,1,,,,,,,,
,,,,,,,,,,,,,FF,,,,,,,,0.7343,,,,,,,,,,,,,,,,,,,,,,6100dbf4d8e0cc51cf89039c,610365d47a29a4a977a46b5a,2021-07-29_22h37.49.676,Simcolourproject_2stim_asymm_v5,2020.2.10,MacIntel,60,61025ae37ef11b136ea224fe,,,,,,,,,1533,32.47094727,74.75466919,1,0,0,response1disk,,7,5.202758789,7.39743042,1,0,0,rectangle,5.202758789,7.39743042,1,0,0,5.202758789,7.39743042,1,0,0,0,134,134,42,1,,,,,,,,
,,,,,,,,,,,,,FF,,,,,,,,1.25,,,,,,,,,,,,,,,,,,,,,,6100dbf4d8e0cc51cf89039c,610365d47a29a4a977a46b5a,2021-07-29_22h37.49.676,Simcolourproject_2stim_asymm_v5,2020.2.10,MacIntel,60,61025ae37ef11b136ea224fe,,,,,,,,,123,59.74627686,-47.69299316,1,0,0,response3disk,,5,-7.194213867,-13.42880249,1,0,0,rectangle,-7.194213867,-13.42880249,1,0,0,-7.194213867,-13.42880249,1,0,0,0,135,135,23,1,,,,,,,,
,,,,,,,,,,,,,FF,,,,,,,,1.7833,,,,,,,,,,,,,,,,,,,,,,6100dbf4d8e0cc51cf89039c,610365d47a29a4a977a46b5a,2021-07-29_22h37.49.676,Simcolourproject_2stim_asymm_v5,2020.2.10,MacIntel,60,61025ae37ef11b136ea224fe,,,,,,,,,2368,-44.58685303,-64.36212158,1,0,0,response5disk,,3,2.766967773,-7.132141113,1,0,0,rectangle,2.766967773,-7.132141113,1,0,0,2.766967773,-7.132141113,1,0,0,0,136,136,88,1,,,,,,,,
,,,,,,,,,,,,,FF,,,,,,,,0.9847,,,,,,,,,,,,,,,,,,,,,,6100dbf4d8e0cc51cf89039c,610365d47a29a4a977a46b5a,2021-07-29_22h37.49.676,Simcolourproject_2stim_asymm_v5,2020.2.10,MacIntel,60,61025ae37ef11b136ea224fe,,,,,,,,,3036,86.15441895,22.07061768,1,0,0,response1disk,,6,35.28820801,7.973052979,1,0,0,rectangle,35.28820801,7.973052979,1,0,0,35.28820801,7.973052979,1,0,0,0,137,137,144,1,,,,,,,,
,,,,,,,,,,,,,FF,,,,,,,,1.3836,,,,,,,,,,,,,,,,,,,,,,6100dbf4d8e0cc51cf89039c,610365d47a29a4a977a46b5a,2021-07-29_22h37.49.676,Simcolourproject_2stim_asymm_v5,2020.2.10,MacIntel,60,61025ae37ef11b136ea224fe,,,,,,,,,290,32.97607422,70.74926758,1,0,0,response1disk,,7,19.7277832,9.37286377,1,0,0,rectangle,19.7277832,9.37286377,1,0,0,19.7277832,9.37286377,1,0,0,0,138,138,37,1,,,,,,,,
,,,,,,,,,,,,,FF,,,,,,,,0.916,,,,,,,,,,,,,,,,,,,,,,6100dbf4d8e0cc51cf89039c,610365d47a29a4a977a46b5a,2021-07-29_22h37.49.676,Simcolourproject_2stim_asymm_v5,2020.2.10,MacIntel,60,61025ae37ef11b136ea224fe,,,,,,,,,102,62.69824219,-81.85632324,1,0,0,response3disk,,4,18.61553955,8.141967773,1,0,0,rectangle,18.61553955,8.141967773,1,0,0,18.61553955,8.141967773,1,0,0,0,139,139,79,1,,,,,,,,
,,,,,,,,,,,,,FF,,,,,,,,0.8012,,,,,,,,,,,,,,,,,,,,,,6100dbf4d8e0cc51cf89039c,610365d47a29a4a977a46b5a,2021-07-29_22h37.49.676,Simcolourproject_2stim_asymm_v5,2020.2.10,MacIntel,60,61025ae37ef11b136ea224fe,,,,,,,,,3233,88.50671387,-19.30841064,1,0,0,response3disk,,5,18.26879883,-9.698181152,1,0,0,rectangle,32.9029541,-66.53894043,1,0,0,9.794921875,7.994873047,1,0,0,0,140,140,135,1,,response3disk_3,TRUE,4,4,"[153,63,148,46,131,250,97,275,112,193,193,270,141,306,185,298,309,133,106,68]",1.4152,rectangle
,,,,,,,,,,,,,FF,,,,,,,,1.6167,,,,,,,,,,,,,,,,,,,,,,6100dbf4d8e0cc51cf89039c,610365d47a29a4a977a46b5a,2021-07-29_22h37.49.676,Simcolourproject_2stim_asymm_v5,2020.2.10,MacIntel,60,61025ae37ef11b136ea224fe,,,,,,,,,2836,-36.80462646,-48.56549072,1,0,0,response5disk,,3,-10.70269775,7.917266846,1,0,0,rectangle,-10.70269775,7.917266846,1,0,0,-10.70269775,7.917266846,1,0,0,0,141,141,7,1,,,,,,,,
,,,,,,,,,,,,,FF,,,,,,,,2.15,,,,,,,,,,,,,,,,,,,,,,6100dbf4d8e0cc51cf89039c,610365d47a29a4a977a46b5a,2021-07-29_22h37.49.676,Simcolourproject_2stim_asymm_v5,2020.2.10,MacIntel,60,61025ae37ef11b136ea224fe,,,,,,,,,5,-72.29980469,-40.87371826,1,0,0,response5disk,,2,-17.07214355,2.381103516,1,0,0,rectangle,-17.07214355,2.381103516,1,0,0,-17.07214355,2.381103516,1,0,0,0,142,142,51,1,,,,,,,,
,,,,,,,,,,,,,FF,,,,,,,,0.9155,,,,,,,,,,,,,,,,,,,,,,6100dbf4d8e0cc51cf89039c,610365d47a29a4a977a46b5a,2021-07-29_22h37.49.676,Simcolourproject_2stim_asymm_v5,2020.2.10,MacIntel,60,61025ae37ef11b136ea224fe,,,,,,,,,2329,38.91107178,82.70703125,1,0,0,response1disk,,7,8.90814209,-0.93347168,1,0,0,rectangle,8.90814209,-0.93347168,1,0,0,8.90814209,-0.93347168,1,0,0,0,143,143,62,1,,,,,,,,
,,,,,,,,,,,,,FF,,,,,,,,0.5005,,,,,,,,,,,,,,,,,,,,,,6100dbf4d8e0cc51cf89039c,610365d47a29a4a977a46b5a,2021-07-29_22h37.49.676,Simcolourproject_2stim_asymm_v5,2020.2.10,MacIntel,60,61025ae37ef11b136ea224fe,,,,,,,,,470,70.41436768,62.01947021,1,0,0,response1disk,,6,2.73236084,-12.31640625,1,0,0,rectangle,2.73236084,-12.31640625,1,0,0,2.73236084,-12.31640625,1,0,0,0,144,144,101,1,,,,,,,,
,,,,,,,,,,,,,FF,,,,,,,,0.4668,,,,,,,,,,,,,,,,,,,,,,6100dbf4d8e0cc51cf89039c,610365d47a29a4a977a46b5a,2021-07-29_22h37.49.676,Simcolourproject_2stim_asymm_v5,2020.2.10,MacIntel,60,61025ae37ef11b136ea224fe,,,,,,,,,3016,64.04510498,48.66821289,1,0,0,response1disk,,6,24.31811523,4.875732422,1,0,0,rectangle,24.31811523,4.875732422,1,0,0,24.31811523,4.875732422,1,0,0,0,145,145,156,1,,,,,,,,
,,,,,,,,,,,,,FF,,,,,,,,0.8514,,,,,,,,,,,,,,,,,,,,,,6100dbf4d8e0cc51cf89039c,610365d47a29a4a977a46b5a,2021-07-29_22h37.49.676,Simcolourproject_2stim_asymm_v5,2020.2.10,MacIntel,60,61025ae37ef11b136ea224fe,,,,,,,,,1743,-43.12420654,69.3059082,1,0,0,response7disk,,0,-4.228637695,3.001281738,1,0,0,rectangle,-4.228637695,3.001281738,1,0,0,-4.228637695,3.001281738,1,0,0,0,146,146,116,1,,,,,,,,
,,,,,,,,,,,,,FF,,,,,,,,0.9514,,,,,,,,,,,,,,,,,,,,,,6100dbf4d8e0cc51cf89039c,610365d47a29a4a977a46b5a,2021-07-29_22h37.49.676,Simcolourproject_2stim_asymm_v5,2020.2.10,MacIntel,60,61025ae37ef11b136ea224fe,,,,,,,,,3284,-86.06420898,-55.26885986,1,0,0,response5disk,,2,-6.937255859,-5.300628662,1,0,0,rectangle,-40.24169922,-88.49249268,1,0,0,-18.83422852,-3.967193604,1,0,0,0,147,147,67,1,,response5disk_3,TRUE,3,3,"[153,63,148,46,131,250,97,275,112,193,193,270,141,306,185,298,309,133,106,68]",1.9003,rectangle
,,,,,,,,,,,,,FF,,,,,,,,1.099,,,,,,,,,,,,,,,,,,,,,,6100dbf4d8e0cc51cf89039c,610365d47a29a4a977a46b5a,2021-07-29_22h37.49.676,Simcolourproject_2stim_asymm_v5,2020.2.10,MacIntel,60,61025ae37ef11b136ea224fe,,,,,,,,,2502,62.84692383,40.75311279,1,0,0,response1disk,,6,10.37164307,-4.710144043,1,0,0,rectangle,10.37164307,-4.710144043,1,0,0,10.37164307,-4.710144043,1,0,0,0,148,148,148,1,,,,,,,,
,,,,,,,,,,,,,FF,,,,,,,,0.667,,,,,,,,,,,,,,,,,,,,,,6100dbf4d8e0cc51cf89039c,610365d47a29a4a977a46b5a,2021-07-29_22h37.49.676,Simcolourproject_2stim_asymm_v5,2020.2.10,MacIntel,60,61025ae37ef11b136ea224fe,,,,,,,,,647,37.53704834,80.23736572,1,0,0,response1disk,,7,11.49487305,-5.668792725,1,0,0,rectangle,11.49487305,-5.668792725,1,0,0,11.49487305,-5.668792725,1,0,0,0,149,149,30,1,,,,,,,,
,,,,,,,,,,,,,FF,,,,,,,,0.5001,,,,,,,,,,,,,,,,,,,,,,6100dbf4d8e0cc51cf89039c,610365d47a29a4a977a46b5a,2021-07-29_22h37.49.676,Simcolourproject_2stim_asymm_v5,2020.2.10,MacIntel,60,61025ae37ef11b136ea224fe,,,,,,,,,2385,44.54876709,60.33105469,1,0,0,response1disk,,7,14.29455566,7.732849121,1,0,0,rectangle,14.29455566,7.732849121,1,0,0,14.29455566,7.732849121,1,0,0,0,150,150,113,1,,,,,,,,
,,,,,,,,,,,,,FF,,,,,,,,0.6663,,,,,,,,,,,,,,,,,,,,,,6100dbf4d8e0cc51cf89039c,610365d47a29a4a977a46b5a,2021-07-29_22h37.49.676,Simcolourproject_2stim_asymm_v5,2020.2.10,MacIntel,60,61025ae37ef11b136ea224fe,,,,,,,,,4204,45.9609375,61.31604004,1,0,0,response1disk,,7,14.75488281,2.404174805,1,0,0,rectangle,14.75488281,2.404174805,1,0,0,14.75488281,2.404174805,1,0,0,0,151,151,137,1,,,,,,,,
,,,,,,,,,,,,,FF,,,,,,,,0.4669,,,,,,,,,,,,,,,,,,,,,,6100dbf4d8e0cc51cf89039c,610365d47a29a4a977a46b5a,2021-07-29_22h37.49.676,Simcolourproject_2stim_asymm_v5,2020.2.10,MacIntel,60,61025ae37ef11b136ea224fe,,,,,,,,,3909,88.46343994,24.61968994,1,0,0,response1disk,,6,-1.797302246,2.547790527,1,0,0,rectangle,52.89996338,-85.99420166,1,0,0,20.51281738,-7.140258789,1,0,0,0,152,152,123,1,,response3disk_3,TRUE,4,4,"[153,63,148,46,131,250,97,275,112,193,193,270,141,306,185,298,309,133,106,68]",1.5153,rectangle
,,,,,,,,,,,,,FF,,,,,,,,1.4683,,,,,,,,,,,,,,,,,,,,,,6100dbf4d8e0cc51cf89039c,610365d47a29a4a977a46b5a,2021-07-29_22h37.49.676,Simcolourproject_2stim_asymm_v5,2020.2.10,MacIntel,60,61025ae37ef11b136ea224fe,,,,,,,,,319,17.87078857,49.97967529,1,0,0,response1disk,,7,-18.80871582,-7.978271484,1,0,0,rectangle,-18.80871582,-7.978271484,1,0,0,-18.80871582,-7.978271484,1,0,0,0,153,153,55,1,,,,,,,,
,,,,,,,,,,,,,FF,,,,,,,,1.1171,,,,,,,,,,,,,,,,,,,,,,6100dbf4d8e0cc51cf89039c,610365d47a29a4a977a46b5a,2021-07-29_22h37.49.676,Simcolourproject_2stim_asymm_v5,2020.2.10,MacIntel,60,61025ae37ef11b136ea224fe,,,,,,,,,887,-67.4375,-49.18167114,1,0,0,response5disk,,2,-6.839782715,1.113433838,1,0,0,rectangle,-6.839782715,1.113433838,1,0,0,-6.839782715,1.113433838,1,0,0,0,154,154,151,1,,,,,,,,
,,,,,,,,,,,,,FF,,,,,,,,0.5829,,,,,,,,,,,,,,,,,,,,,,6100dbf4d8e0cc51cf89039c,610365d47a29a4a977a46b5a,2021-07-29_22h37.49.676,Simcolourproject_2stim_asymm_v5,2020.2.10,MacIntel,60,61025ae37ef11b136ea224fe,,,,,,,,,3782,-26.25646973,-68.6262207,1,0,0,response5disk,,3,-6.89251709,-15.0317688,1,0,0,rectangle,-6.89251709,-15.0317688,1,0,0,-6.89251709,-15.0317688,1,0,0,0,155,155,0,1,,,,,,,,
,,,,,,,,,,,,,FF,,,,,,,,1.1341,,,,,,,,,,,,,,,,,,,,,,6100dbf4d8e0cc51cf89039c,610365d47a29a4a977a46b5a,2021-07-29_22h37.49.676,Simcolourproject_2stim_asymm_v5,2020.2.10,MacIntel,60,61025ae37ef11b136ea224fe,,,,,,,,,1464,23.44024658,-49.95431519,1,0,0,response3disk,,4,6.396179199,-2.602844238,1,0,0,rectangle,6.396179199,-2.602844238,1,0,0,6.396179199,-2.602844238,1,0,0,0,156,156,82,1,,,,,,,,
,,,,,,,,,,,,,FF,,,,,,,,2.3657,,,,,,,,,,,,,,,,,,,,,,6100dbf4d8e0cc51cf89039c,610365d47a29a4a977a46b5a,2021-07-29_22h37.49.676,Simcolourproject_2stim_asymm_v5,2020.2.10,MacIntel,60,61025ae37ef11b136ea224fe,,,,,,,,,3548,59.14666748,32.84539795,1,0,0,response1disk,,6,12.88574219,-2.179931641,1,0,0,rectangle,12.88574219,-2.179931641,1,0,0,12.88574219,-2.179931641,1,0,0,0,157,157,143,1,,,,,,,,
,,,,,,,,,,,,,FF,,,,,,,,0.7829,,,,,,,,,,,,,,,,,,,,,,6100dbf4d8e0cc51cf89039c,610365d47a29a4a977a46b5a,2021-07-29_22h37.49.676,Simcolourproject_2stim_asymm_v5,2020.2.10,MacIntel,60,61025ae37ef11b136ea224fe,,,,,,,,,847,34.29705811,-72.32092285,1,0,0,response3disk,,4,6.107421875,-15.8269043,1,0,0,rectangle,6.107421875,-15.8269043,1,0,0,6.107421875,-15.8269043,1,0,0,0,158,158,74,1,,,,,,,,
,,,,,,,,,,,,,FF,,,,,,,,1.3022,,,,,,,,,,,,,,,,,,,,,,6100dbf4d8e0cc51cf89039c,610365d47a29a4a977a46b5a,2021-07-29_22h37.49.676,Simcolourproject_2stim_asymm_v5,2020.2.10,MacIntel,60,61025ae37ef11b136ea224fe,,,,,,,,,3418,-43.4017334,-66.81384277,1,0,0,response5disk,,3,-2.849304199,-10.75909424,1,0,0,rectangle,-2.849304199,-10.75909424,1,0,0,-2.849304199,-10.75909424,1,0,0,0,159,159,105,1,,,,,,,,
,,,,,,,,,,,,,FF,,,,,,,,0.9659,,,,,,,,,,,,,,,,,,,,,,6100dbf4d8e0cc51cf89039c,610365d47a29a4a977a46b5a,2021-07-29_22h37.49.676,Simcolourproject_2stim_asymm_v5,2020.2.10,MacIntel,60,61025ae37ef11b136ea224fe,,,,,,,,,3165,59.31524658,-45.296875,1,0,0,response3disk,,5,-16.22735596,4.825500488,1,0,0,rectangle,-16.22735596,4.825500488,1,0,0,-16.22735596,4.825500488,1,0,0,1,0,160,94,1,,,,,,,,
,,,,,,,,,,,,,FF,,,,,,,,0.65,,,,,,,,,,,,,,,,,,,,,,6100dbf4d8e0cc51cf89039c,610365d47a29a4a977a46b5a,2021-07-29_22h37.49.676,Simcolourproject_2stim_asymm_v5,2020.2.10,MacIntel,60,61025ae37ef11b136ea224fe,,,,,,,,,3456,42.96356201,27.69610596,1,0,0,response1disk,,6,-4.675231934,-10.72650146,1,0,0,rectangle,-4.675231934,-10.72650146,1,0,0,-4.675231934,-10.72650146,1,0,0,1,1,161,101,1,,,,,,,,
,,,,,,,,,,,,,FF,,,,,,,,2.5998,,,,,,,,,,,,,,,,,,,,,,6100dbf4d8e0cc51cf89039c,610365d47a29a4a977a46b5a,2021-07-29_22h37.49.676,Simcolourproject_2stim_asymm_v5,2020.2.10,MacIntel,60,61025ae37ef11b136ea224fe,,,,,,,,,2713,-50.70568848,-22.92550659,1,0,0,response5disk,,2,-6.146118164,-3.433898926,1,0,0,rectangle,-6.146118164,-3.433898926,1,0,0,-6.146118164,-3.433898926,1,0,0,1,2,162,158,1,,,,,,,,
,,,,,,,,,,,,,FF,,,,,,,,1.084,,,,,,,,,,,,,,,,,,,,,,6100dbf4d8e0cc51cf89039c,610365d47a29a4a977a46b5a,2021-07-29_22h37.49.676,Simcolourproject_2stim_asymm_v5,2020.2.10,MacIntel,60,61025ae37ef11b136ea224fe,,,,,,,,,1163,24.35797119,-59.3729248,1,0,0,response3disk,,4,19.7388916,6.062133789,1,0,0,rectangle,19.7388916,6.062133789,1,0,0,19.7388916,6.062133789,1,0,0,1,3,163,121,1,,,,,,,,
,,,,,,,,,,,,,FF,,,,,,,,0.9,,,,,,,,,,,,,,,,,,,,,,6100dbf4d8e0cc51cf89039c,610365d47a29a4a977a46b5a,2021-07-29_22h37.49.676,Simcolourproject_2stim_asymm_v5,2020.2.10,MacIntel,60,61025ae37ef11b136ea224fe,,,,,,,,,3,42.02069092,27.29095459,1,0,0,response1disk,,6,7.342224121,0.280029297,1,0,0,rectangle,7.342224121,0.280029297,1,0,0,7.342224121,0.280029297,1,0,0,1,4,164,103,1,,,,,,,,
,,,,,,,,,,,,,FF,,,,,,,,0.6502,,,,,,,,,,,,,,,,,,,,,,6100dbf4d8e0cc51cf89039c,610365d47a29a4a977a46b5a,2021-07-29_22h37.49.676,Simcolourproject_2stim_asymm_v5,2020.2.10,MacIntel,60,61025ae37ef11b136ea224fe,,,,,,,,,2816,68.41650391,43.17297363,1,0,0,response1disk,,6,16.51873779,-1.183349609,1,0,0,rectangle,16.51873779,-1.183349609,1,0,0,16.51873779,-1.183349609,1,0,0,1,5,165,9,1,,,,,,,,
,,,,,,,,,,,,,FF,,,,,,,,0.4677,,,,,,,,,,,,,,,,,,,,,,6100dbf4d8e0cc51cf89039c,610365d47a29a4a977a46b5a,2021-07-29_22h37.49.676,Simcolourproject_2stim_asymm_v5,2020.2.10,MacIntel,60,61025ae37ef11b136ea224fe,,,,,,,,,18,48.13525391,32.97570801,1,0,0,response1disk,,6,27.69714355,2.083770752,1,0,0,rectangle,27.69714355,2.083770752,1,0,0,27.69714355,2.083770752,1,0,0,1,6,166,80,1,,,,,,,,
,,,,,,,,,,,,,FF,,,,,,,,0.3847,,,,,,,,,,,,,,,,,,,,,,6100dbf4d8e0cc51cf89039c,610365d47a29a4a977a46b5a,2021-07-29_22h37.49.676,Simcolourproject_2stim_asymm_v5,2020.2.10,MacIntel,60,61025ae37ef11b136ea224fe,,,,,,,,,3355,64.00683594,32.6987915,1,0,0,response1disk,,6,17.99987793,-3.431213379,1,0,0,rectangle,17.99987793,-3.431213379,1,0,0,17.99987793,-3.431213379,1,0,0,1,7,167,131,1,,,,,,,,
,,,,,,,,,,,,,FF,,,,,,,,0.4663,,,,,,,,,,,,,,,,,,,,,,6100dbf4d8e0cc51cf89039c,610365d47a29a4a977a46b5a,2021-07-29_22h37.49.676,Simcolourproject_2stim_asymm_v5,2020.2.10,MacIntel,60,61025ae37ef11b136ea224fe,,,,,,,,,945,36.85406494,80.20559692,1,0,0,response1disk,,7,19.44702148,-9.66217041,1,0,0,rectangle,19.44702148,-9.66217041,1,0,0,19.44702148,-9.66217041,1,0,0,1,8,168,0,1,,,,,,,,
,,,,,,,,,,,,,FF,,,,,,,,0.5005,,,,,,,,,,,,,,,,,,,,,,6100dbf4d8e0cc51cf89039c,610365d47a29a4a977a46b5a,2021-07-29_22h37.49.676,Simcolourproject_2stim_asymm_v5,2020.2.10,MacIntel,60,61025ae37ef11b136ea224fe,,,,,,,,,1854,60.65582275,-30.4251709,1,0,0,response3disk,,5,27.55914307,-6.144042969,1,0,0,rectangle,27.55914307,-6.144042969,1,0,0,27.55914307,-6.144042969,1,0,0,1,9,169,124,1,,,,,,,,
,,,,,,,,,,,,,FF,,,,,,,,0.4345,,,,,,,,,,,,,,,,,,,,,,6100dbf4d8e0cc51cf89039c,610365d47a29a4a977a46b5a,2021-07-29_22h37.49.676,Simcolourproject_2stim_asymm_v5,2020.2.10,MacIntel,60,61025ae37ef11b136ea224fe,,,,,,,,,3224,45.8168335,59.64620972,1,0,0,response1disk,,7,17.62701416,14.39117432,1,0,0,rectangle,17.62701416,14.39117432,1,0,0,17.62701416,14.39117432,1,0,0,1,10,170,15,1,,,,,,,,
,,,,,,,,,,,,,FF,,,,,,,,0.8511,,,,,,,,,,,,,,,,,,,,,,6100dbf4d8e0cc51cf89039c,610365d47a29a4a977a46b5a,2021-07-29_22h37.49.676,Simcolourproject_2stim_asymm_v5,2020.2.10,MacIntel,60,61025ae37ef11b136ea224fe,,,,,,,,,4166,31.60241699,-74.8918457,1,0,0,response3disk,,4,30.63391113,3.648010254,1,0,0,rectangle,30.63391113,3.648010254,1,0,0,30.63391113,3.648010254,1,0,0,1,11,171,142,1,,,,,,,,
,,,,,,,,,,,,,FF,,,,,,,,0.7837,,,,,,,,,,,,,,,,,,,,,,6100dbf4d8e0cc51cf89039c,610365d47a29a4a977a46b5a,2021-07-29_22h37.49.676,Simcolourproject_2stim_asymm_v5,2020.2.10,MacIntel,60,61025ae37ef11b136ea224fe,,,,,,,,,400,-42.69470215,-84.28723145,1,0,0,response5disk,,3,-17.77978516,-9.305297852,1,0,0,rectangle,-17.77978516,-9.305297852,1,0,0,-17.77978516,-9.305297852,1,0,0,1,12,172,58,1,,,,,,,,
,,,,,,,,,,,,,FF,,,,,,,,1.9667,,,,,,,,,,,,,,,,,,,,,,6100dbf4d8e0cc51cf89039c,610365d47a29a4a977a46b5a,2021-07-29_22h37.49.676,Simcolourproject_2stim_asymm_v5,2020.2.10,MacIntel,60,61025ae37ef11b136ea224fe,,,,,,,,,2356,-20.70544434,-47.19927979,1,0,0,response5disk,,3,-2.931213379,6.735595703,1,0,0,rectangle,-2.931213379,6.735595703,1,0,0,-2.931213379,6.735595703,1,0,0,1,13,173,36,1,,,,,,,,
,,,,,,,,,,,,,FF,,,,,,,,1.0343,,,,,,,,,,,,,,,,,,,,,,6100dbf4d8e0cc51cf89039c,610365d47a29a4a977a46b5a,2021-07-29_22h37.49.676,Simcolourproject_2stim_asymm_v5,2020.2.10,MacIntel,60,61025ae37ef11b136ea224fe,,,,,,,,,1628,80.847229,34.84576416,1,0,0,response1disk,,6,-14.25048828,-0.771240234,1,0,0,rectangle,-14.25048828,-0.771240234,1,0,0,-14.25048828,-0.771240234,1,0,0,1,14,174,69,1,,,,,,,,
,,,,,,,,,,,,,FF,,,,,,,,0.5497,,,,,,,,,,,,,,,,,,,,,,6100dbf4d8e0cc51cf89039c,610365d47a29a4a977a46b5a,2021-07-29_22h37.49.676,Simcolourproject_2stim_asymm_v5,2020.2.10,MacIntel,60,61025ae37ef11b136ea224fe,,,,,,,,,361,28.9553833,57.04089355,1,0,0,response1disk,,7,14.99365234,3.418823242,1,0,0,rectangle,14.99365234,3.418823242,1,0,0,14.99365234,3.418823242,1,0,0,1,15,175,68,1,,,,,,,,
,,,,,,,,,,,,,FF,,,,,,,,0.4837,,,,,,,,,,,,,,,,,,,,,,6100dbf4d8e0cc51cf89039c,610365d47a29a4a977a46b5a,2021-07-29_22h37.49.676,Simcolourproject_2stim_asymm_v5,2020.2.10,MacIntel,60,61025ae37ef11b136ea224fe,,,,,,,,,84,34.17932129,61.84475708,1,0,0,response1disk,,7,18.59710693,-1.784545898,1,0,0,rectangle,18.59710693,-1.784545898,1,0,0,18.59710693,-1.784545898,1,0,0,1,16,176,155,1,,,,,,,,
,,,,,,,,,,,,,FF,,,,,,,,0.3841,,,,,,,,,,,,,,,,,,,,,,6100dbf4d8e0cc51cf89039c,610365d47a29a4a977a46b5a,2021-07-29_22h37.49.676,Simcolourproject_2stim_asymm_v5,2020.2.10,MacIntel,60,61025ae37ef11b136ea224fe,,,,,,,,,2494,37.21789551,87.39529419,1,0,0,response1disk,,7,25.74731445,14.2578125,1,0,0,rectangle,25.74731445,14.2578125,1,0,0,25.74731445,14.2578125,1,0,0,1,17,177,148,1,,,,,,,,
,,,,,,,,,,,,,FF,,,,,,,,1.7007,,,,,,,,,,,,,,,,,,,,,,6100dbf4d8e0cc51cf89039c,610365d47a29a4a977a46b5a,2021-07-29_22h37.49.676,Simcolourproject_2stim_asymm_v5,2020.2.10,MacIntel,60,61025ae37ef11b136ea224fe,,,,,,,,,2845,34.19885254,50.62353516,1,0,0,response1disk,,7,23.59216309,9.898193359,1,0,0,rectangle,23.59216309,9.898193359,1,0,0,23.59216309,9.898193359,1,0,0,1,18,178,67,1,,,,,,,,
,,,,,,,,,,,,,FF,,,,,,,,0.7173,,,,,,,,,,,,,,,,,,,,,,6100dbf4d8e0cc51cf89039c,610365d47a29a4a977a46b5a,2021-07-29_22h37.49.676,Simcolourproject_2stim_asymm_v5,2020.2.10,MacIntel,60,61025ae37ef11b136ea224fe,,,,,,,,,4085,26.78173828,49.73120117,1,0,0,response1disk,,7,-5.872009277,4.767486572,1,0,0,rectangle,-5.872009277,4.767486572,1,0,0,-5.872009277,4.767486572,1,0,0,1,19,179,2,1,,,,,,,,
,,,,,,,,,,,,,FF,,,,,,,,0.9008,,,,,,,,,,,,,,,,,,,,,,6100dbf4d8e0cc51cf89039c,610365d47a29a4a977a46b5a,2021-07-29_22h37.49.676,Simcolourproject_2stim_asymm_v5,2020.2.10,MacIntel,60,61025ae37ef11b136ea224fe,,,,,,,,,1323,29.22320557,46.48040771,1,0,0,response1disk,,7,15.95977783,12.5557251,1,0,0,rectangle,15.95977783,12.5557251,1,0,0,15.95977783,12.5557251,1,0,0,1,20,180,77,1,,,,,,,,
,,,,,,,,,,,,,FF,,,,,,,,0.5995,,,,,,,,,,,,,,,,,,,,,,6100dbf4d8e0cc51cf89039c,610365d47a29a4a977a46b5a,2021-07-29_22h37.49.676,Simcolourproject_2stim_asymm_v5,2020.2.10,MacIntel,60,61025ae37ef11b136ea224fe,,,,,,,,,882,87.74383545,35.66571045,1,0,0,response1disk,,6,-14.40209961,0.033752441,1,0,0,rectangle,-14.40209961,0.033752441,1,0,0,-14.40209961,0.033752441,1,0,0,1,21,181,112,1,,,,,,,,
,,,,,,,,,,,,,FF,,,,,,,,1.233,,,,,,,,,,,,,,,,,,,,,,6100dbf4d8e0cc51cf89039c,610365d47a29a4a977a46b5a,2021-07-29_22h37.49.676,Simcolourproject_2stim_asymm_v5,2020.2.10,MacIntel,60,61025ae37ef11b136ea224fe,,,,,,,,,2398,58.29473877,24.45501709,1,0,0,response1disk,,6,23.34313965,1.587402344,1,0,0,rectangle,23.34313965,1.587402344,1,0,0,23.34313965,1.587402344,1,0,0,1,22,182,61,1,,,,,,,,
,,,,,,,,,,,,,FF,,,,,,,,0.5496,,,,,,,,,,,,,,,,,,,,,,6100dbf4d8e0cc51cf89039c,610365d47a29a4a977a46b5a,2021-07-29_22h37.49.676,Simcolourproject_2stim_asymm_v5,2020.2.10,MacIntel,60,61025ae37ef11b136ea224fe,,,,,,,,,2961,74.33422852,-38.94085693,1,0,0,response3disk,,5,19.27868652,-7.604522705,1,0,0,rectangle,19.27868652,-7.604522705,1,0,0,19.27868652,-7.604522705,1,0,0,1,23,183,62,1,,,,,,,,
,,,,,,,,,,,,,FF,,,,,,,,0.9493,,,,,,,,,,,,,,,,,,,,,,6100dbf4d8e0cc51cf89039c,610365d47a29a4a977a46b5a,2021-07-29_22h37.49.676,Simcolourproject_2stim_asymm_v5,2020.2.10,MacIntel,60,61025ae37ef11b136ea224fe,,,,,,,,,4018,28.65136719,-69.20666504,1,0,0,response3disk,,4,10.95532227,-7.107299805,1,0,0,rectangle,40.74682617,-87.58355713,1,0,0,12.1807251,1.359405518,1,0,0,1,24,184,135,1,,response3disk_3,TRUE,4,4,"[153,63,148,46,131,250,97,275,112,193,193,270,141,306,185,298,309,133,106,68]",1.7336,rectangle
,,,,,,,,,,,,,FF,,,,,,,,0.884,,,,,,,,,,,,,,,,,,,,,,6100dbf4d8e0cc51cf89039c,610365d47a29a4a977a46b5a,2021-07-29_22h37.49.676,Simcolourproject_2stim_asymm_v5,2020.2.10,MacIntel,60,61025ae37ef11b136ea224fe,,,,,,,,,3075,17.85736084,54.42108154,1,0,0,response1disk,,7,8.223754883,-0.028076172,1,0,0,rectangle,8.223754883,-0.028076172,1,0,0,8.223754883,-0.028076172,1,0,0,1,25,185,108,1,,,,,,,,
,,,,,,,,,,,,,FF,,,,,,,,1.7499,,,,,,,,,,,,,,,,,,,,,,6100dbf4d8e0cc51cf89039c,610365d47a29a4a977a46b5a,2021-07-29_22h37.49.676,Simcolourproject_2stim_asymm_v5,2020.2.10,MacIntel,60,61025ae37ef11b136ea224fe,,,,,,,,,2282,25.51525879,49.53115845,1,0,0,response1disk,,7,0.900634766,-6.700683594,1,0,0,rectangle,0.900634766,-6.700683594,1,0,0,0.900634766,-6.700683594,1,0,0,1,26,186,56,1,,,,,,,,
,,,,,,,,,,,,,FF,,,,,,,,1.4832,,,,,,,,,,,,,,,,,,,,,,6100dbf4d8e0cc51cf89039c,610365d47a29a4a977a46b5a,2021-07-29_22h37.49.676,Simcolourproject_2stim_asymm_v5,2020.2.10,MacIntel,60,61025ae37ef11b136ea224fe,,,,,,,,,1989,84.34246826,25.43389893,1,0,0,response1disk,,6,-24.63513184,-7.981811523,1,0,0,rectangle,-24.63513184,-7.981811523,1,0,0,-24.63513184,-7.981811523,1,0,0,1,27,187,117,1,,,,,,,,
,,,,,,,,,,,,,FF,,,,,,,,0.9809,,,,,,,,,,,,,,,,,,,,,,6100dbf4d8e0cc51cf89039c,610365d47a29a4a977a46b5a,2021-07-29_22h37.49.676,Simcolourproject_2stim_asymm_v5,2020.2.10,MacIntel,60,61025ae37ef11b136ea224fe,,,,,,,,,1675,-46.690979,-67.97991943,1,0,0,response5disk,,3,-28.77496338,-17.29992676,1,0,0,rectangle,-28.77496338,-17.29992676,1,0,0,-28.77496338,-17.29992676,1,0,0,1,28,188,11,1,,,,,,,,
,,,,,,,,,,,,,FF,,,,,,,,0.7838,,,,,,,,,,,,,,,,,,,,,,6100dbf4d8e0cc51cf89039c,610365d47a29a4a977a46b5a,2021-07-29_22h37.49.676,Simcolourproject_2stim_asymm_v5,2020.2.10,MacIntel,60,61025ae37ef11b136ea224fe,,,,,,,,,3689,45.19915771,-53.22381592,1,0,0,response3disk,,4,12.55200195,-2.499481201,1,0,0,rectangle,12.55200195,-2.499481201,1,0,0,12.55200195,-2.499481201,1,0,0,1,29,189,111,1,,,,,,,,
,,,,,,,,,,,,,FF,,,,,,,,0.8664,,,,,,,,,,,,,,,,,,,,,,6100dbf4d8e0cc51cf89039c,610365d47a29a4a977a46b5a,2021-07-29_22h37.49.676,Simcolourproject_2stim_asymm_v5,2020.2.10,MacIntel,60,61025ae37ef11b136ea224fe,,,,,,,,,1414,39.08184814,95.48028564,1,0,0,response1disk,,7,14.01794434,-6.301696777,1,0,0,rectangle,14.01794434,-6.301696777,1,0,0,14.01794434,-6.301696777,1,0,0,1,30,190,10,1,,,,,,,,
,,,,,,,,,,,,,FF,,,,,,,,0.5172,,,,,,,,,,,,,,,,,,,,,,6100dbf4d8e0cc51cf89039c,610365d47a29a4a977a46b5a,2021-07-29_22h37.49.676,Simcolourproject_2stim_asymm_v5,2020.2.10,MacIntel,60,61025ae37ef11b136ea224fe,,,,,,,,,1394,78.98352051,26.70184326,1,0,0,response1disk,,6,-5.021728516,6.182861328,1,0,0,rectangle,-5.021728516,6.182861328,1,0,0,-5.021728516,6.182861328,1,0,0,1,31,191,49,1,,,,,,,,
,,,,,,,,,,,,,FF,,,,,,,,0.6338,,,,,,,,,,,,,,,,,,,,,,6100dbf4d8e0cc51cf89039c,610365d47a29a4a977a46b5a,2021-07-29_22h37.49.676,Simcolourproject_2stim_asymm_v5,2020.2.10,MacIntel,60,61025ae37ef11b136ea224fe,,,,,,,,,3694,33.06231689,90.50616455,1,0,0,response1disk,,7,7.719726563,-7.448547363,1,0,0,rectangle,38.08099365,-102.3267212,1,0,0,20.76519775,5.542114258,1,0,0,1,32,192,74,1,,response3disk_3,TRUE,4,4,"[153,63,148,46,131,250,97,275,112,193,193,270,141,306,185,298,309,133,106,68]",1.2336,rectangle
,,,,,,,,,,,,,FF,,,,,,,,3.8678,,,,,,,,,,,,,,,,,,,,,,6100dbf4d8e0cc51cf89039c,610365d47a29a4a977a46b5a,2021-07-29_22h37.49.676,Simcolourproject_2stim_asymm_v5,2020.2.10,MacIntel,60,61025ae37ef11b136ea224fe,,,,,,,,,174,36.55108643,-59.86383057,1,0,0,response3disk,,4,25.06933594,-2.688415527,1,0,0,rectangle,25.06933594,-2.688415527,1,0,0,25.06933594,-2.688415527,1,0,0,1,33,193,127,1,,,,,,,,
,,,,,,,,,,,,,FF,,,,,,,,0.8509,,,,,,,,,,,,,,,,,,,,,,6100dbf4d8e0cc51cf89039c,610365d47a29a4a977a46b5a,2021-07-29_22h37.49.676,Simcolourproject_2stim_asymm_v5,2020.2.10,MacIntel,60,61025ae37ef11b136ea224fe,,,,,,,,,3851,36.02069092,23.54312134,1,0,0,response1disk,,6,19.01934814,11.53234863,1,0,0,rectangle,19.01934814,11.53234863,1,0,0,19.01934814,11.53234863,1,0,0,1,34,194,153,1,,,,,,,,
,,,,,,,,,,,,,FF,,,,,,,,0.751,,,,,,,,,,,,,,,,,,,,,,6100dbf4d8e0cc51cf89039c,610365d47a29a4a977a46b5a,2021-07-29_22h37.49.676,Simcolourproject_2stim_asymm_v5,2020.2.10,MacIntel,60,61025ae37ef11b136ea224fe,,,,,,,,,1920,30.75701904,23.17108154,1,0,0,response1disk,,6,13.44598389,1.815734863,1,0,0,rectangle,13.44598389,1.815734863,1,0,0,13.44598389,1.815734863,1,0,0,1,35,195,4,1,,,,,,,,
,,,,,,,,,,,,,FF,,,,,,,,0.5688,,,,,,,,,,,,,,,,,,,,,,6100dbf4d8e0cc51cf89039c,610365d47a29a4a977a46b5a,2021-07-29_22h37.49.676,Simcolourproject_2stim_asymm_v5,2020.2.10,MacIntel,60,61025ae37ef11b136ea224fe,,,,,,,,,3263,21.48413086,-35.15539551,1,0,0,response3disk,,4,18.92993164,3.587097168,1,0,0,rectangle,18.92993164,3.587097168,1,0,0,18.92993164,3.587097168,1,0,0,1,36,196,122,1,,,,,,,,
,,,,,,,,,,,,,FF,,,,,,,,0.8355,,,,,,,,,,,,,,,,,,,,,,6100dbf4d8e0cc51cf89039c,610365d47a29a4a977a46b5a,2021-07-29_22h37.49.676,Simcolourproject_2stim_asymm_v5,2020.2.10,MacIntel,60,61025ae37ef11b136ea224fe,,,,,,,,,3476,-26.57269287,-63.26367188,1,0,0,response5disk,,3,-9.813720703,17.58666992,1,0,0,rectangle,-9.813720703,17.58666992,1,0,0,-9.813720703,17.58666992,1,0,0,1,37,197,134,1,,,,,,,,
,,,,,,,,,,,,,FF,,,,,,,,0.8009,,,,,,,,,,,,,,,,,,,,,,6100dbf4d8e0cc51cf89039c,610365d47a29a4a977a46b5a,2021-07-29_22h37.49.676,Simcolourproject_2stim_asymm_v5,2020.2.10,MacIntel,60,61025ae37ef11b136ea224fe,,,,,,,,,3940,-47.55621338,-26.25640869,1,0,0,response5disk,,2,-11.24389648,5.825958252,1,0,0,rectangle,-11.24389648,5.825958252,1,0,0,-11.24389648,5.825958252,1,0,0,1,38,198,82,1,,,,,,,,
,,,,,,,,,,,,,FF,,,,,,,,0.9492,,,,,,,,,,,,,,,,,,,,,,6100dbf4d8e0cc51cf89039c,610365d47a29a4a977a46b5a,2021-07-29_22h37.49.676,Simcolourproject_2stim_asymm_v5,2020.2.10,MacIntel,60,61025ae37ef11b136ea224fe,,,,,,,,,2055,27.25335693,64.75466919,1,0,0,response1disk,,7,3.63873291,9.040924072,1,0,0,rectangle,3.63873291,9.040924072,1,0,0,3.63873291,9.040924072,1,0,0,1,39,199,100,1,,,,,,,,
,,,,,,,,,,,,,FF,,,,,,,,0.3826,,,,,,,,,,,,,,,,,,,,,,6100dbf4d8e0cc51cf89039c,610365d47a29a4a977a46b5a,2021-07-29_22h37.49.676,Simcolourproject_2stim_asymm_v5,2020.2.10,MacIntel,60,61025ae37ef11b136ea224fe,,,,,,,,,2907,44.04998779,72.29595947,1,0,0,response1disk,,7,16.36584473,15.12176514,1,0,0,rectangle,16.36584473,15.12176514,1,0,0,16.36584473,15.12176514,1,0,0,1,40,200,88,1,,,,,,,,
,,,,,,,,,,,,,FF,,,,,,,,0.5178,,,,,,,,,,,,,,,,,,,,,,6100dbf4d8e0cc51cf89039c,610365d47a29a4a977a46b5a,2021-07-29_22h37.49.676,Simcolourproject_2stim_asymm_v5,2020.2.10,MacIntel,60,61025ae37ef11b136ea224fe,,,,,,,,,593,44.81243896,64.93902588,1,0,0,response1disk,,7,11.67944336,1.37411499,1,0,0,rectangle,11.67944336,1.37411499,1,0,0,11.67944336,1.37411499,1,0,0,1,41,201,78,1,,,,,,,,
,,,,,,,,,,,,,FF,,,,,,,,0.551,,,,,,,,,,,,,,,,,,,,,,6100dbf4d8e0cc51cf89039c,610365d47a29a4a977a46b5a,2021-07-29_22h37.49.676,Simcolourproject_2stim_asymm_v5,2020.2.10,MacIntel,60,61025ae37ef11b136ea224fe,,,,,,,,,3666,61.6282959,46.66070557,1,0,0,response1disk,,6,16.09429932,14.53503418,1,0,0,rectangle,16.09429932,14.53503418,1,0,0,16.09429932,14.53503418,1,0,0,1,42,202,95,1,,,,,,,,
,,,,,,,,,,,,,FF,,,,,,,,0.5504,,,,,,,,,,,,,,,,,,,,,,6100dbf4d8e0cc51cf89039c,610365d47a29a4a977a46b5a,2021-07-29_22h37.49.676,Simcolourproject_2stim_asymm_v5,2020.2.10,MacIntel,60,61025ae37ef11b136ea224fe,,,,,,,,,830,31.77563477,40.8918457,1,0,0,response1disk,,7,7.585144043,9.342468262,1,0,0,rectangle,7.585144043,9.342468262,1,0,0,7.585144043,9.342468262,1,0,0,1,43,203,90,1,,,,,,,,
,,,,,,,,,,,,,FF,,,,,,,,0.533,,,,,,,,,,,,,,,,,,,,,,6100dbf4d8e0cc51cf89039c,610365d47a29a4a977a46b5a,2021-07-29_22h37.49.676,Simcolourproject_2stim_asymm_v5,2020.2.10,MacIntel,60,61025ae37ef11b136ea224fe,,,,,,,,,3126,56.78234863,35.097229,1,0,0,response1disk,,6,28.0435791,16.09378052,1,0,0,rectangle,28.0435791,16.09378052,1,0,0,28.0435791,16.09378052,1,0,0,1,44,204,19,1,,,,,,,,
,,,,,,,,,,,,,FF,,,,,,,,0.4499,,,,,,,,,,,,,,,,,,,,,,6100dbf4d8e0cc51cf89039c,610365d47a29a4a977a46b5a,2021-07-29_22h37.49.676,Simcolourproject_2stim_asymm_v5,2020.2.10,MacIntel,60,61025ae37ef11b136ea224fe,,,,,,,,,226,38.16430664,77.91125488,1,0,0,response1disk,,7,25.73046875,-4.032165527,1,0,0,rectangle,25.73046875,-4.032165527,1,0,0,25.73046875,-4.032165527,1,0,0,1,45,205,41,1,,,,,,,,
,,,,,,,,,,,,,FF,,,,,,,,0.4172,,,,,,,,,,,,,,,,,,,,,,6100dbf4d8e0cc51cf89039c,610365d47a29a4a977a46b5a,2021-07-29_22h37.49.676,Simcolourproject_2stim_asymm_v5,2020.2.10,MacIntel,60,61025ae37ef11b136ea224fe,,,,,,,,,3609,36.74371338,75.95092773,1,0,0,response1disk,,7,28.30334473,9.614318848,1,0,0,rectangle,28.30334473,9.614318848,1,0,0,28.30334473,9.614318848,1,0,0,1,46,206,5,1,,,,,,,,
,,,,,,,,,,,,,FF,,,,,,,,0.4515,,,,,,,,,,,,,,,,,,,,,,6100dbf4d8e0cc51cf89039c,610365d47a29a4a977a46b5a,2021-07-29_22h37.49.676,Simcolourproject_2stim_asymm_v5,2020.2.10,MacIntel,60,61025ae37ef11b136ea224fe,,,,,,,,,3989,46.36151123,59.90234375,1,0,0,response1disk,,7,18.05084229,-15.16699219,1,0,0,rectangle,18.05084229,-15.16699219,1,0,0,18.05084229,-15.16699219,1,0,0,1,47,207,99,1,,,,,,,,
,,,,,,,,,,,,,FF,,,,,,,,0.4501,,,,,,,,,,,,,,,,,,,,,,6100dbf4d8e0cc51cf89039c,610365d47a29a4a977a46b5a,2021-07-29_22h37.49.676,Simcolourproject_2stim_asymm_v5,2020.2.10,MacIntel,60,61025ae37ef11b136ea224fe,,,,,,,,,1651,33.07769775,86.69223022,1,0,0,response1disk,,7,17.7253418,10.06072998,1,0,0,rectangle,17.7253418,10.06072998,1,0,0,17.7253418,10.06072998,1,0,0,1,48,208,152,1,,,,,,,,
,,,,,,,,,,,,,FF,,,,,,,,0.7008,,,,,,,,,,,,,,,,,,,,,,6100dbf4d8e0cc51cf89039c,610365d47a29a4a977a46b5a,2021-07-29_22h37.49.676,Simcolourproject_2stim_asymm_v5,2020.2.10,MacIntel,60,61025ae37ef11b136ea224fe,,,,,,,,,1629,32.60742188,73.45458984,1,0,0,response1disk,,7,25.71435547,3.51184082,1,0,0,rectangle,25.71435547,3.51184082,1,0,0,25.71435547,3.51184082,1,0,0,1,49,209,116,1,,,,,,,,
,,,,,,,,,,,,,FF,,,,,,,,0.7008,,,,,,,,,,,,,,,,,,,,,,6100dbf4d8e0cc51cf89039c,610365d47a29a4a977a46b5a,2021-07-29_22h37.49.676,Simcolourproject_2stim_asymm_v5,2020.2.10,MacIntel,60,61025ae37ef11b136ea224fe,,,,,,,,,4306,20.09381104,-86.23986816,1,0,0,response3disk,,4,15.89770508,-5.290039063,1,0,0,rectangle,15.89770508,-5.290039063,1,0,0,15.89770508,-5.290039063,1,0,0,1,50,210,76,1,,,,,,,,
,,,,,,,,,,,,,FF,,,,,,,,0.8822,,,,,,,,,,,,,,,,,,,,,,6100dbf4d8e0cc51cf89039c,610365d47a29a4a977a46b5a,2021-07-29_22h37.49.676,Simcolourproject_2stim_asymm_v5,2020.2.10,MacIntel,60,61025ae37ef11b136ea224fe,,,,,,,,,3552,29.56103516,-65.1998291,1,0,0,response3disk,,4,7.724365234,16.73913574,1,0,0,rectangle,7.724365234,16.73913574,1,0,0,7.724365234,16.73913574,1,0,0,1,51,211,27,1,,,,,,,,
,,,,,,,,,,,,,FF,,,,,,,,0.8833,,,,,,,,,,,,,,,,,,,,,,6100dbf4d8e0cc51cf89039c,610365d47a29a4a977a46b5a,2021-07-29_22h37.49.676,Simcolourproject_2stim_asymm_v5,2020.2.10,MacIntel,60,61025ae37ef11b136ea224fe,,,,,,,,,4058,26.44671631,71.28735352,1,0,0,response1disk,,7,13.81066895,10.42312622,1,0,0,rectangle,13.81066895,10.42312622,1,0,0,13.81066895,10.42312622,1,0,0,1,52,212,125,1,,,,,,,,
,,,,,,,,,,,,,FF,,,,,,,,0.4999,,,,,,,,,,,,,,,,,,,,,,6100dbf4d8e0cc51cf89039c,610365d47a29a4a977a46b5a,2021-07-29_22h37.49.676,Simcolourproject_2stim_asymm_v5,2020.2.10,MacIntel,60,61025ae37ef11b136ea224fe,,,,,,,,,2349,29.63806152,64.25756836,1,0,0,response1disk,,7,5.562255859,4.650939941,1,0,0,rectangle,5.562255859,4.650939941,1,0,0,5.562255859,4.650939941,1,0,0,1,53,213,75,1,,,,,,,,
,,,,,,,,,,,,,FF,,,,,,,,0.5159,,,,,,,,,,,,,,,,,,,,,,6100dbf4d8e0cc51cf89039c,610365d47a29a4a977a46b5a,2021-07-29_22h37.49.676,Simcolourproject_2stim_asymm_v5,2020.2.10,MacIntel,60,61025ae37ef11b136ea224fe,,,,,,,,,987,76.55657959,42.90341187,1,0,0,response1disk,,6,24.64801025,2.137054443,1,0,0,rectangle,24.64801025,2.137054443,1,0,0,24.64801025,2.137054443,1,0,0,1,54,214,52,1,,,,,,,,
,,,,,,,,,,,,,FF,,,,,,,,1.3669,,,,,,,,,,,,,,,,,,,,,,6100dbf4d8e0cc51cf89039c,610365d47a29a4a977a46b5a,2021-07-29_22h37.49.676,Simcolourproject_2stim_asymm_v5,2020.2.10,MacIntel,60,61025ae37ef11b136ea224fe,,,,,,,,,704,42.32873535,66.31387329,1,0,0,response1disk,,7,19.28192139,11.76446533,1,0,0,rectangle,19.28192139,11.76446533,1,0,0,19.28192139,11.76446533,1,0,0,1,55,215,51,1,,,,,,,,
,,,,,,,,,,,,,FF,,,,,,,,0.4336,,,,,,,,,,,,,,,,,,,,,,6100dbf4d8e0cc51cf89039c,610365d47a29a4a977a46b5a,2021-07-29_22h37.49.676,Simcolourproject_2stim_asymm_v5,2020.2.10,MacIntel,60,61025ae37ef11b136ea224fe,,,,,,,,,3962,32.69439697,30.85949707,1,0,0,response1disk,,6,28.31262207,-1.83782959,1,0,0,rectangle,28.31262207,-1.83782959,1,0,0,28.31262207,-1.83782959,1,0,0,1,56,216,98,1,,,,,,,,
,,,,,,,,,,,,,FF,,,,,,,,0.4508,,,,,,,,,,,,,,,,,,,,,,6100dbf4d8e0cc51cf89039c,610365d47a29a4a977a46b5a,2021-07-29_22h37.49.676,Simcolourproject_2stim_asymm_v5,2020.2.10,MacIntel,60,61025ae37ef11b136ea224fe,,,,,,,,,2251,32.65698242,53.00183105,1,0,0,response1disk,,7,11.09368896,2.551696777,1,0,0,rectangle,11.09368896,2.551696777,1,0,0,11.09368896,2.551696777,1,0,0,1,57,217,91,1,,,,,,,,
,,,,,,,,,,,,,FF,,,,,,,,0.3167,,,,,,,,,,,,,,,,,,,,,,6100dbf4d8e0cc51cf89039c,610365d47a29a4a977a46b5a,2021-07-29_22h37.49.676,Simcolourproject_2stim_asymm_v5,2020.2.10,MacIntel,60,61025ae37ef11b136ea224fe,,,,,,,,,498,28.61462402,57.6711731,1,0,0,response1disk,,7,10.8147583,-0.568969727,1,0,0,rectangle,10.8147583,-0.568969727,1,0,0,10.8147583,-0.568969727,1,0,0,1,58,218,45,1,,,,,,,,
,,,,,,,,,,,,,FF,,,,,,,,0.3667,,,,,,,,,,,,,,,,,,,,,,6100dbf4d8e0cc51cf89039c,610365d47a29a4a977a46b5a,2021-07-29_22h37.49.676,Simcolourproject_2stim_asymm_v5,2020.2.10,MacIntel,60,61025ae37ef11b136ea224fe,,,,,,,,,1711,30.07501221,44.58374023,1,0,0,response1disk,,7,17.82666016,0.128967285,1,0,0,rectangle,17.82666016,0.128967285,1,0,0,17.82666016,0.128967285,1,0,0,1,59,219,81,1,,,,,,,,
,,,,,,,,,,,,,FF,,,,,,,,0.4508,,,,,,,,,,,,,,,,,,,,,,6100dbf4d8e0cc51cf89039c,610365d47a29a4a977a46b5a,2021-07-29_22h37.49.676,Simcolourproject_2stim_asymm_v5,2020.2.10,MacIntel,60,61025ae37ef11b136ea224fe,,,,,,,,,3882,24.95318604,46.14633179,1,0,0,response1disk,,7,5.846252441,-11.96142578,1,0,0,rectangle,5.846252441,-11.96142578,1,0,0,5.846252441,-11.96142578,1,0,0,1,60,220,84,1,,,,,,,,
,,,,,,,,,,,,,FF,,,,,,,,0.5826,,,,,,,,,,,,,,,,,,,,,,6100dbf4d8e0cc51cf89039c,610365d47a29a4a977a46b5a,2021-07-29_22h37.49.676,Simcolourproject_2stim_asymm_v5,2020.2.10,MacIntel,60,61025ae37ef11b136ea224fe,,,,,,,,,4350,-47.77178955,73.57260132,1,0,0,response7disk,,0,-17.30151367,5.099334717,1,0,0,rectangle,-17.30151367,5.099334717,1,0,0,-17.30151367,5.099334717,1,0,0,1,61,221,106,1,,,,,,,,
,,,,,,,,,,,,,FF,,,,,,,,0.5853,,,,,,,,,,,,,,,,,,,,,,6100dbf4d8e0cc51cf89039c,610365d47a29a4a977a46b5a,2021-07-29_22h37.49.676,Simcolourproject_2stim_asymm_v5,2020.2.10,MacIntel,60,61025ae37ef11b136ea224fe,,,,,,,,,298,51.60168457,-23.65380859,1,0,0,response3disk,,5,6.498779297,1.41998291,1,0,0,rectangle,6.498779297,1.41998291,1,0,0,6.498779297,1.41998291,1,0,0,1,62,222,130,1,,,,,,,,
,,,,,,,,,,,,,FF,,,,,,,,0.8175,,,,,,,,,,,,,,,,,,,,,,6100dbf4d8e0cc51cf89039c,610365d47a29a4a977a46b5a,2021-07-29_22h37.49.676,Simcolourproject_2stim_asymm_v5,2020.2.10,MacIntel,60,61025ae37ef11b136ea224fe,,,,,,,,,2101,36.11773682,-24.6776123,1,0,0,response3disk,,5,16.60290527,-7.705780029,1,0,0,rectangle,16.60290527,-7.705780029,1,0,0,16.60290527,-7.705780029,1,0,0,1,63,223,65,1,,,,,,,,
,,,,,,,,,,,,,FF,,,,,,,,0.9994,,,,,,,,,,,,,,,,,,,,,,6100dbf4d8e0cc51cf89039c,610365d47a29a4a977a46b5a,2021-07-29_22h37.49.676,Simcolourproject_2stim_asymm_v5,2020.2.10,MacIntel,60,61025ae37ef11b136ea224fe,,,,,,,,,1055,30.67010498,-58.05670166,1,0,0,response3disk,,4,21.83752441,-11.61663818,1,0,0,rectangle,21.83752441,-11.61663818,1,0,0,21.83752441,-11.61663818,1,0,0,1,64,224,44,1,,,,,,,,
,,,,,,,,,,,,,FF,,,,,,,,1.2323,,,,,,,,,,,,,,,,,,,,,,6100dbf4d8e0cc51cf89039c,610365d47a29a4a977a46b5a,2021-07-29_22h37.49.676,Simcolourproject_2stim_asymm_v5,2020.2.10,MacIntel,60,61025ae37ef11b136ea224fe,,,,,,,,,12,-17.89141846,-39.54675293,1,0,0,response5disk,,3,0.84588623,0.082214355,1,0,0,rectangle,0.84588623,0.082214355,1,0,0,0.84588623,0.082214355,1,0,0,1,65,225,32,1,,,,,,,,
,,,,,,,,,,,,,FF,,,,,,,,1.2339,,,,,,,,,,,,,,,,,,,,,,6100dbf4d8e0cc51cf89039c,610365d47a29a4a977a46b5a,2021-07-29_22h37.49.676,Simcolourproject_2stim_asymm_v5,2020.2.10,MacIntel,60,61025ae37ef11b136ea224fe,,,,,,,,,2545,37.30383301,77.99713135,1,0,0,response1disk,,7,6.517578125,4.041564941,1,0,0,rectangle,6.517578125,4.041564941,1,0,0,6.517578125,4.041564941,1,0,0,1,66,226,39,1,,,,,,,,
,,,,,,,,,,,,,FF,,,,,,,,0.417,,,,,,,,,,,,,,,,,,,,,,6100dbf4d8e0cc51cf89039c,610365d47a29a4a977a46b5a,2021-07-29_22h37.49.676,Simcolourproject_2stim_asymm_v5,2020.2.10,MacIntel,60,61025ae37ef11b136ea224fe,,,,,,,,,1593,43.14733887,73.43951416,1,0,0,response1disk,,7,22.34344482,15.76898193,1,0,0,rectangle,22.34344482,15.76898193,1,0,0,22.34344482,15.76898193,1,0,0,1,67,227,126,1,,,,,,,,
,,,,,,,,,,,,,FF,,,,,,,,0.9341,,,,,,,,,,,,,,,,,,,,,,6100dbf4d8e0cc51cf89039c,610365d47a29a4a977a46b5a,2021-07-29_22h37.49.676,Simcolourproject_2stim_asymm_v5,2020.2.10,MacIntel,60,61025ae37ef11b136ea224fe,,,,,,,,,3046,-85.55145264,-40.58407593,1,0,0,response5disk,,2,-4.348083496,-0.971618652,1,0,0,rectangle,-4.348083496,-0.971618652,1,0,0,-4.348083496,-0.971618652,1,0,0,1,68,228,136,1,,,,,,,,
,,,,,,,,,,,,,FF,,,,,,,,1.2338,,,,,,,,,,,,,,,,,,,,,,6100dbf4d8e0cc51cf89039c,610365d47a29a4a977a46b5a,2021-07-29_22h37.49.676,Simcolourproject_2stim_asymm_v5,2020.2.10,MacIntel,60,61025ae37ef11b136ea224fe,,,,,,,,,2630,45.53009033,60.39782715,1,0,0,response1disk,,7,8.100341797,0.422027588,1,0,0,rectangle,8.100341797,0.422027588,1,0,0,8.100341797,0.422027588,1,0,0,1,69,229,46,1,,,,,,,,
,,,,,,,,,,,,,FF,,,,,,,,0.4171,,,,,,,,,,,,,,,,,,,,,,6100dbf4d8e0cc51cf89039c,610365d47a29a4a977a46b5a,2021-07-29_22h37.49.676,Simcolourproject_2stim_asymm_v5,2020.2.10,MacIntel,60,61025ae37ef11b136ea224fe,,,,,,,,,437,-44.29980469,19.59277344,1,0,0,response7disk,,1,1.691711426,8.789855957,1,0,0,rectangle,1.691711426,8.789855957,1,0,0,1.691711426,8.789855957,1,0,0,1,70,230,149,1,,,,,,,,
,,,,,,,,,,,,,FF,,,,,,,,0.4836,,,,,,,,,,,,,,,,,,,,,,6100dbf4d8e0cc51cf89039c,610365d47a29a4a977a46b5a,2021-07-29_22h37.49.676,Simcolourproject_2stim_asymm_v5,2020.2.10,MacIntel,60,61025ae37ef11b136ea224fe,,,,,,,,,2710,21.20556641,72.64013672,1,0,0,response1disk,,7,-3.250061035,4.188293457,1,0,0,rectangle,-3.250061035,4.188293457,1,0,0,-3.250061035,4.188293457,1,0,0,1,71,231,79,1,,,,,,,,
,,,,,,,,,,,,,FF,,,,,,,,0.6671,,,,,,,,,,,,,,,,,,,,,,6100dbf4d8e0cc51cf89039c,610365d47a29a4a977a46b5a,2021-07-29_22h37.49.676,Simcolourproject_2stim_asymm_v5,2020.2.10,MacIntel,60,61025ae37ef11b136ea224fe,,,,,,,,,1919,21.04101563,79.92504883,1,0,0,response1disk,,7,4.063842773,-1.280883789,1,0,0,rectangle,4.063842773,-1.280883789,1,0,0,4.063842773,-1.280883789,1,0,0,1,72,232,70,1,,,,,,,,
,,,,,,,,,,,,,FF,,,,,,,,1.1894,,,,,,,,,,,,,,,,,,,,,,6100dbf4d8e0cc51cf89039c,610365d47a29a4a977a46b5a,2021-07-29_22h37.49.676,Simcolourproject_2stim_asymm_v5,2020.2.10,MacIntel,60,61025ae37ef11b136ea224fe,,,,,,,,,2399,36.80554199,62.60968018,1,0,0,response1disk,,7,7.679138184,-2.065856934,1,0,0,rectangle,7.679138184,-2.065856934,1,0,0,7.679138184,-2.065856934,1,0,0,1,73,233,33,1,,,,,,,,
,,,,,,,,,,,,,FF,,,,,,,,0.7824,,,,,,,,,,,,,,,,,,,,,,6100dbf4d8e0cc51cf89039c,610365d47a29a4a977a46b5a,2021-07-29_22h37.49.676,Simcolourproject_2stim_asymm_v5,2020.2.10,MacIntel,60,61025ae37ef11b136ea224fe,,,,,,,,,1856,71.0512085,-34.07556152,1,0,0,response3disk,,5,14.3861084,-15.2951355,1,0,0,rectangle,14.3861084,-15.2951355,1,0,0,14.3861084,-15.2951355,1,0,0,1,74,234,132,1,,,,,,,,
,,,,,,,,,,,,,FF,,,,,,,,1.6496,,,,,,,,,,,,,,,,,,,,,,6100dbf4d8e0cc51cf89039c,610365d47a29a4a977a46b5a,2021-07-29_22h37.49.676,Simcolourproject_2stim_asymm_v5,2020.2.10,MacIntel,60,61025ae37ef11b136ea224fe,,,,,,,,,1849,62.54272461,27.66479492,1,0,0,response1disk,,6,14.7477417,-1.97442627,1,0,0,rectangle,14.7477417,-1.97442627,1,0,0,14.7477417,-1.97442627,1,0,0,1,75,235,150,1,,,,,,,,
,,,,,,,,,,,,,FF,,,,,,,,0.8671,,,,,,,,,,,,,,,,,,,,,,6100dbf4d8e0cc51cf89039c,610365d47a29a4a977a46b5a,2021-07-29_22h37.49.676,Simcolourproject_2stim_asymm_v5,2020.2.10,MacIntel,60,61025ae37ef11b136ea224fe,,,,,,,,,1888,-68.18786621,17.07391357,1,0,0,response7disk,,1,5.802856445,-12.60809326,1,0,0,rectangle,5.802856445,-12.60809326,1,0,0,5.802856445,-12.60809326,1,0,0,1,76,236,93,1,,,,,,,,
,,,,,,,,,,,,,FF,,,,,,,,1.2337,,,,,,,,,,,,,,,,,,,,,,6100dbf4d8e0cc51cf89039c,610365d47a29a4a977a46b5a,2021-07-29_22h37.49.676,Simcolourproject_2stim_asymm_v5,2020.2.10,MacIntel,60,61025ae37ef11b136ea224fe,,,,,,,,,1752,-50.9161377,-35.59713745,1,0,0,response5disk,,2,-13.51733398,-12.75646973,1,0,0,rectangle,-13.51733398,-12.75646973,1,0,0,-13.51733398,-12.75646973,1,0,0,1,77,237,20,1,,,,,,,,
,,,,,,,,,,,,,FF,,,,,,,,1.1151,,,,,,,,,,,,,,,,,,,,,,6100dbf4d8e0cc51cf89039c,610365d47a29a4a977a46b5a,2021-07-29_22h37.49.676,Simcolourproject_2stim_asymm_v5,2020.2.10,MacIntel,60,61025ae37ef11b136ea224fe,,,,,,,,,2232,50.39440918,-34.84240723,1,0,0,response3disk,,5,18.78479004,-0.920593262,1,0,0,rectangle,18.78479004,-0.920593262,1,0,0,18.78479004,-0.920593262,1,0,0,1,78,238,114,1,,,,,,,,
,,,,,,,,,,,,,FF,,,,,,,,0.6337,,,,,,,,,,,,,,,,,,,,,,6100dbf4d8e0cc51cf89039c,610365d47a29a4a977a46b5a,2021-07-29_22h37.49.676,Simcolourproject_2stim_asymm_v5,2020.2.10,MacIntel,60,61025ae37ef11b136ea224fe,,,,,,,,,310,44.67889404,61.03079224,1,0,0,response1disk,,7,17.72314453,8.556396484,1,0,0,rectangle,17.72314453,8.556396484,1,0,0,17.72314453,8.556396484,1,0,0,1,79,239,24,1,,,,,,,,
,,,,,,,,,,,,,FF,,,,,,,,0.4497,,,,,,,,,,,,,,,,,,,,,,6100dbf4d8e0cc51cf89039c,610365d47a29a4a977a46b5a,2021-07-29_22h37.49.676,Simcolourproject_2stim_asymm_v5,2020.2.10,MacIntel,60,61025ae37ef11b136ea224fe,,,,,,,,,311,40.20385742,63.70510864,1,0,0,response1disk,,7,21.45501709,1.805358887,1,0,0,rectangle,21.45501709,1.805358887,1,0,0,21.45501709,1.805358887,1,0,0,1,80,240,87,1,,,,,,,,
,,,,,,,,,,,,,FF,,,,,,,,1.5341,,,,,,,,,,,,,,,,,,,,,,6100dbf4d8e0cc51cf89039c,610365d47a29a4a977a46b5a,2021-07-29_22h37.49.676,Simcolourproject_2stim_asymm_v5,2020.2.10,MacIntel,60,61025ae37ef11b136ea224fe,,,,,,,,,1428,31.23120117,55.71099854,1,0,0,response1disk,,7,-4.777893066,1.611633301,1,0,0,rectangle,-4.777893066,1.611633301,1,0,0,-4.777893066,1.611633301,1,0,0,1,81,241,50,1,,,,,,,,
,,,,,,,,,,,,,FF,,,,,,,,0.62,,,,,,,,,,,,,,,,,,,,,,6100dbf4d8e0cc51cf89039c,610365d47a29a4a977a46b5a,2021-07-29_22h37.49.676,Simcolourproject_2stim_asymm_v5,2020.2.10,MacIntel,60,61025ae37ef11b136ea224fe,,,,,,,,,3062,28.17834473,61.44091797,1,0,0,response1disk,,7,-0.170043945,-3.348388672,1,0,0,rectangle,-0.170043945,-3.348388672,1,0,0,-0.170043945,-3.348388672,1,0,0,1,82,242,73,1,,,,,,,,
