key_resp.keys,key_resp.rt,key_resp_14.keys,key_resp_14.rt,key_resp_15.keys,key_resp_15.rt,key_resp_17.keys,key_resp_17.rt,key_resp_9.keys,key_resp_9.rt,key_resp_10.keys,key_resp_10.rt,practice_comparison,Ecc,mouse_5.x,mouse_5.y,mouse_5.leftButton,mouse_5.midButton,mouse_5.rightButton,mouse_5.clicked_name,pracsimilarity,response_time,mouse_10.x,mouse_10.y,mouse_10.leftButton,mouse_10.midButton,mouse_10.rightButton,mouse_10.clicked_name,mouse_7.x,mouse_7.y,mouse_7.leftButton,mouse_7.midButton,mouse_7.rightButton,mouse_6.x,mouse_6.y,mouse_6.leftButton,mouse_6.midButton,mouse_6.rightButton,duringprac.thisRepN,duringprac.thisTrialN,duringprac.thisN,duringprac.thisIndex,duringprac.ran,participant,session,date,expName,psychopyVersion,OS,frameRate,study_id,mouse_7.clicked_name,catchpracsimilarity,catch_response_time,catchnumberprac,catchtrialorderprac,mouse_6.clicked_name,key_resp_22.keys,key_resp_22.rt,realcomparison,mouse.x,mouse.y,mouse.leftButton,mouse.midButton,mouse.rightButton,mouse.clicked_name,Colour2,similarity,mouse_2.x,mouse_2.y,mouse_2.leftButton,mouse_2.midButton,mouse_2.rightButton,mouse_2.clicked_name,mouse_3.x,mouse_3.y,mouse_3.leftButton,mouse_3.midButton,mouse_3.rightButton,mouse_11.x,mouse_11.y,mouse_11.leftButton,mouse_11.midButton,mouse_11.rightButton,trials_2.thisRepN,trials_2.thisTrialN,trials_2.thisN,trials_2.thisIndex,trials_2.ran,Colour1,mouse_3.clicked_name,catchornah,catchsimilarity,catchnumber,catchtrialorder,catchRT,mouse_11.clicked_name
space,0.8463,space,1.9186,space,32.696,space,6.0171,space,1.8183,space,3.4116,27,FF,-59.99998945,-97.60005672,1,0,0,response5disk_5,3,6.5327,1.14441E-05,7.999993682,1,0,0,rectangle_8,1.14441E-05,7.999993682,1,0,0,1.14441E-05,7.999993682,1,0,0,0,0,0,3,1,610059b905e6d251e2cab6bc,610378cd8bda62035a5c07f4,2021-07-29_23h06.45.152,Simcolourproject_2stim_asymm_v5,2020.2.10,Win32,60,61025ae37ef11b136ea224fe,,,,,,,,,,,,,,,,,,,,,,,,,,,,,,,,,,,,,,,,,,,,,,
,,,,,,,,,,,,54,FF,92.80001283,43.99999422,1,0,0,response1disk_5,6,3.7828,1.14441E-05,13.59999377,1,0,0,rectangle_8,-113.5999902,-76.00000757,1,0,0,-0.799988568,-15.20000666,1,0,0,0,1,1,5,1,610059b905e6d251e2cab6bc,610378cd8bda62035a5c07f4,2021-07-29_23h06.45.152,Simcolourproject_2stim_asymm_v5,2020.2.10,Win32,60,61025ae37ef11b136ea224fe,response5disk_7,2,3.2637,2,"[2,5]",rectangle_4,,,,,,,,,,,,,,,,,,,,,,,,,,,,,,,,,,,,,,,,
,,,,,,,,,,,,150,PF,88.80001277,-50.40000719,1,0,0,response3disk_5,5,5.199,-23.1999889,-3.200006485,1,0,0,rectangle_8,-23.1999889,-3.200006485,1,0,0,-23.1999889,-3.200006485,1,0,0,0,2,2,2,1,610059b905e6d251e2cab6bc,610378cd8bda62035a5c07f4,2021-07-29_23h06.45.152,Simcolourproject_2stim_asymm_v5,2020.2.10,Win32,60,61025ae37ef11b136ea224fe,,,,,,,,,,,,,,,,,,,,,,,,,,,,,,,,,,,,,,,,,,,,,,
,,,,,,,,,,,,46,PF,80.80001265,47.19996985,1,0,0,response1disk_5,6,2.8841,-2.399939764,7.999993682,1,0,0,rectangle_8,-2.399939764,7.999993682,1,0,0,-2.399939764,7.999993682,1,0,0,0,3,3,1,1,610059b905e6d251e2cab6bc,610378cd8bda62035a5c07f4,2021-07-29_23h06.45.152,Simcolourproject_2stim_asymm_v5,2020.2.10,Win32,60,61025ae37ef11b136ea224fe,,,,,,,,,,,,,,,,,,,,,,,,,,,,,,,,,,,,,,,,,,,,,,
,,,,,,,,,,,,12,PF,34.40001196,70.39999461,1,0,0,response1disk_5,7,1.4841,-7.999988675,-12.00000662,1,0,0,rectangle_8,-97.59999001,-55.20000726,1,0,0,2.40001148,5.599993646,1,0,0,0,4,4,6,1,610059b905e6d251e2cab6bc,610378cd8bda62035a5c07f4,2021-07-29_23h06.45.152,Simcolourproject_2stim_asymm_v5,2020.2.10,Win32,60,61025ae37ef11b136ea224fe,response5disk_7,2,3.1786,2,"[2,5]",rectangle_4,,,,,,,,,,,,,,,,,,,,,,,,,,,,,,,,,,,,,,,,
,,,,,,,,,,,,23,FF,89.60001278,48.79999429,1,0,0,response1disk_5,6,2.4329,11.20001161,-5.600006521,1,0,0,rectangle_8,11.20001161,-5.600006521,1,0,0,11.20001161,-5.600006521,1,0,0,0,5,5,0,1,610059b905e6d251e2cab6bc,610378cd8bda62035a5c07f4,2021-07-29_23h06.45.152,Simcolourproject_2stim_asymm_v5,2020.2.10,Win32,60,61025ae37ef11b136ea224fe,,,,,,,,,,,,,,,,,,,,,,,,,,,,,,,,,,,,,,,,,,,,,,
,,,,,,,,,,,,99,PF,-39.19998914,95.99999499,1,0,0,response7disk_5,0,1.6324,19.20001173,11.99999374,1,0,0,rectangle_8,19.20001173,11.99999374,1,0,0,19.20001173,11.99999374,1,0,0,0,6,6,4,1,610059b905e6d251e2cab6bc,610378cd8bda62035a5c07f4,2021-07-29_23h06.45.152,Simcolourproject_2stim_asymm_v5,2020.2.10,Win32,60,61025ae37ef11b136ea224fe,,,,,,,,,,,,,,,,,,,,,,,,,,,,,,,,,,,,,,,,,,,,,,
,,,,,,,,,,,,,FF,,,,,,,,1.9992,,,,,,,,,,,,,,,,,,,,,,610059b905e6d251e2cab6bc,610378cd8bda62035a5c07f4,2021-07-29_23h06.45.152,Simcolourproject_2stim_asymm_v5,2020.2.10,Win32,60,61025ae37ef11b136ea224fe,,,,,,,space,30.9525,3773,94.40001285,53.59999436,1,0,0,response1disk,,6,15.20001167,-8.800006568,1,0,0,rectangle,15.20001167,-8.800006568,1,0,0,15.20001167,-8.800006568,1,0,0,0,0,0,44,1,,,,,,,,
,,,,,,,,,,,,,FF,,,,,,,,1.7671,,,,,,,,,,,,,,,,,,,,,,610059b905e6d251e2cab6bc,610378cd8bda62035a5c07f4,2021-07-29_23h06.45.152,Simcolourproject_2stim_asymm_v5,2020.2.10,Win32,60,61025ae37ef11b136ea224fe,,,,,,,,,398,84.80001271,-48.80000716,1,0,0,response3disk,,5,-8.799988687,2.399993598,1,0,0,rectangle,-8.799988687,2.399993598,1,0,0,-8.799988687,2.399993598,1,0,0,0,1,1,126,1,,,,,,,,
,,,,,,,,,,,,,FF,,,,,,,,2.4147,,,,,,,,,,,,,,,,,,,,,,610059b905e6d251e2cab6bc,610378cd8bda62035a5c07f4,2021-07-29_23h06.45.152,Simcolourproject_2stim_asymm_v5,2020.2.10,Win32,60,61025ae37ef11b136ea224fe,,,,,,,,,2581,60.80001235,-88.00000775,1,0,0,response3disk,,4,-3.999988616,7.999993682,1,0,0,rectangle,-3.999988616,7.999993682,1,0,0,-3.999988616,7.999993682,1,0,0,0,2,2,125,1,,,,,,,,
,,,,,,,,,,,,,FF,,,,,,,,3.3159,,,,,,,,,,,,,,,,,,,,,,610059b905e6d251e2cab6bc,610378cd8bda62035a5c07f4,2021-07-29_23h06.45.152,Simcolourproject_2stim_asymm_v5,2020.2.10,Win32,60,61025ae37ef11b136ea224fe,,,,,,,,,4033,117.6000132,41.59999418,1,0,0,response1disk,,6,4.800011516,8.799993694,1,0,0,rectangle,4.800011516,8.799993694,1,0,0,4.800011516,8.799993694,1,0,0,0,3,3,81,1,,,,,,,,
,,,,,,,,,,,,,FF,,,,,,,,1.9502,,,,,,,,,,,,,,,,,,,,,,610059b905e6d251e2cab6bc,610378cd8bda62035a5c07f4,2021-07-29_23h06.45.152,Simcolourproject_2stim_asymm_v5,2020.2.10,Win32,60,61025ae37ef11b136ea224fe,,,,,,,,,1573,64.0000124,-99.20000792,1,0,0,response3disk,,4,-16.79998881,9.599993706,1,0,0,rectangle,-16.79998881,9.599993706,1,0,0,-16.79998881,9.599993706,1,0,0,0,4,4,97,1,,,,,,,,
,,,,,,,,,,,,,FF,,,,,,,,1.5836,,,,,,,,,,,,,,,,,,,,,,610059b905e6d251e2cab6bc,610378cd8bda62035a5c07f4,2021-07-29_23h06.45.152,Simcolourproject_2stim_asymm_v5,2020.2.10,Win32,60,61025ae37ef11b136ea224fe,,,,,,,,,3892,108.0000131,51.19996991,1,0,0,response1disk,,6,4.800011516,-0.800006449,1,0,0,rectangle,4.800011516,-0.800006449,1,0,0,4.800011516,-0.800006449,1,0,0,0,5,5,66,1,,,,,,,,
,,,,,,,,,,,,,FF,,,,,,,,4.5353,,,,,,,,,,,,,,,,,,,,,,610059b905e6d251e2cab6bc,610378cd8bda62035a5c07f4,2021-07-29_23h06.45.152,Simcolourproject_2stim_asymm_v5,2020.2.10,Win32,60,61025ae37ef11b136ea224fe,,,,,,,,,745,32.00001192,-108.000008,1,0,0,response3disk,,4,-4.799988627,2.399993598,1,0,0,rectangle,-4.799988627,2.399993598,1,0,0,-4.799988627,2.399993598,1,0,0,0,6,6,52,1,,,,,,,,
,,,,,,,,,,,,,FF,,,,,,,,3.335,,,,,,,,,,,,,,,,,,,,,,610059b905e6d251e2cab6bc,610378cd8bda62035a5c07f4,2021-07-29_23h06.45.152,Simcolourproject_2stim_asymm_v5,2020.2.10,Win32,60,61025ae37ef11b136ea224fe,,,,,,,,,413,106.400013,-46.40000713,1,0,0,response3disk,,5,-7.199988663,-3.200006485,1,0,0,rectangle,-7.199988663,-3.200006485,1,0,0,-7.199988663,-3.200006485,1,0,0,0,7,7,147,1,,,,,,,,
,,,,,,,,,,,,,FF,,,,,,,,1.8332,,,,,,,,,,,,,,,,,,,,,,610059b905e6d251e2cab6bc,610378cd8bda62035a5c07f4,2021-07-29_23h06.45.152,Simcolourproject_2stim_asymm_v5,2020.2.10,Win32,60,61025ae37ef11b136ea224fe,,,,,,,,,2357,-68.79998958,-32.80000693,1,0,0,response5disk,,2,-12.79998875,0.799993575,1,0,0,rectangle,-12.79998875,0.799993575,1,0,0,-12.79998875,0.799993575,1,0,0,0,8,8,2,1,,,,,,,,
,,,,,,,,,,,,,FF,,,,,,,,2.6498,,,,,,,,,,,,,,,,,,,,,,610059b905e6d251e2cab6bc,610378cd8bda62035a5c07f4,2021-07-29_23h06.45.152,Simcolourproject_2stim_asymm_v5,2020.2.10,Win32,60,61025ae37ef11b136ea224fe,,,,,,,,,734,-50.39994048,-93.60005666,1,0,0,response5disk,,3,-6.399939823,-2.400006473,1,0,0,rectangle,-6.399939823,-2.400006473,1,0,0,-6.399939823,-2.400006473,1,0,0,0,9,9,72,1,,,,,,,,
,,,,,,,,,,,,,FF,,,,,,,,1.7175,,,,,,,,,,,,,,,,,,,,,,610059b905e6d251e2cab6bc,610378cd8bda62035a5c07f4,2021-07-29_23h06.45.152,Simcolourproject_2stim_asymm_v5,2020.2.10,Win32,60,61025ae37ef11b136ea224fe,,,,,,,,,1727,84.0000127,43.19996979,1,0,0,response1disk,,6,22.40001178,0.799993575,1,0,0,rectangle,22.40001178,0.799993575,1,0,0,22.40001178,0.799993575,1,0,0,0,10,10,145,1,,,,,,,,
,,,,,,,,,,,,,FF,,,,,,,,58.5941,,,,,,,,,,,,,,,,,,,,,,610059b905e6d251e2cab6bc,610378cd8bda62035a5c07f4,2021-07-29_23h06.45.152,Simcolourproject_2stim_asymm_v5,2020.2.10,Win32,60,61025ae37ef11b136ea224fe,,,,,,,,,1210,35.20001197,95.99999499,1,0,0,response1disk,,7,-4.799988627,-10.40000659,1,0,0,rectangle,-4.799988627,-10.40000659,1,0,0,-4.799988627,-10.40000659,1,0,0,0,11,11,151,1,,,,,,,,
,,,,,,,,,,,,,FF,,,,,,,,2.1356,,,,,,,,,,,,,,,,,,,,,,610059b905e6d251e2cab6bc,610378cd8bda62035a5c07f4,2021-07-29_23h06.45.152,Simcolourproject_2stim_asymm_v5,2020.2.10,Win32,60,61025ae37ef11b136ea224fe,,,,,,,,,3772,96.80001289,40.79999417,1,0,0,response1disk,,6,-14.39993994,-0.800006449,1,0,0,rectangle,-14.39993994,-0.800006449,1,0,0,-14.39993994,-0.800006449,1,0,0,0,12,12,57,1,,,,,,,,
,,,,,,,,,,,,,FF,,,,,,,,2.3832,,,,,,,,,,,,,,,,,,,,,,610059b905e6d251e2cab6bc,610378cd8bda62035a5c07f4,2021-07-29_23h06.45.152,Simcolourproject_2stim_asymm_v5,2020.2.10,Win32,60,61025ae37ef11b136ea224fe,,,,,,,,,1186,92.00001281,-34.40000695,1,0,0,response3disk,,5,-1.59998858,-12.80000663,1,0,0,rectangle,-1.59998858,-12.80000663,1,0,0,-1.59998858,-12.80000663,1,0,0,0,13,13,37,1,,,,,,,,
,,,,,,,,,,,,,FF,,,,,,,,2.0165,,,,,,,,,,,,,,,,,,,,,,610059b905e6d251e2cab6bc,610378cd8bda62035a5c07f4,2021-07-29_23h06.45.152,Simcolourproject_2stim_asymm_v5,2020.2.10,Win32,60,61025ae37ef11b136ea224fe,,,,,,,,,2233,-83.99998981,-49.60000718,1,0,0,response5disk,,2,1.14441E-05,-0.800006449,1,0,0,rectangle,1.14441E-05,-0.800006449,1,0,0,1.14441E-05,-0.800006449,1,0,0,0,14,14,43,1,,,,,,,,
,,,,,,,,,,,,,FF,,,,,,,,1.7801,,,,,,,,,,,,,,,,,,,,,,610059b905e6d251e2cab6bc,610378cd8bda62035a5c07f4,2021-07-29_23h06.45.152,Simcolourproject_2stim_asymm_v5,2020.2.10,Win32,60,61025ae37ef11b136ea224fe,,,,,,,,,570,51.20001221,-110.4000081,1,0,0,response3disk,,4,-9.599988699,-1.600006461,1,0,0,rectangle,-9.599988699,-1.600006461,1,0,0,-9.599988699,-1.600006461,1,0,0,0,15,15,32,1,,,,,,,,
,,,,,,,,,,,,,FF,,,,,,,,8.0641,,,,,,,,,,,,,,,,,,,,,,610059b905e6d251e2cab6bc,610378cd8bda62035a5c07f4,2021-07-29_23h06.45.152,Simcolourproject_2stim_asymm_v5,2020.2.10,Win32,60,61025ae37ef11b136ea224fe,,,,,,,,,127,99.20001292,-43.20000708,1,0,0,response3disk,,5,1.600060296,13.59999377,1,0,0,rectangle,1.600060296,13.59999377,1,0,0,1.600060296,13.59999377,1,0,0,0,16,16,153,1,,,,,,,,
,,,,,,,,,,,,,FF,,,,,,,,2.599,,,,,,,,,,,,,,,,,,,,,,610059b905e6d251e2cab6bc,610378cd8bda62035a5c07f4,2021-07-29_23h06.45.152,Simcolourproject_2stim_asymm_v5,2020.2.10,Win32,60,61025ae37ef11b136ea224fe,,,,,,,,,4104,-93.59998995,-45.60000712,1,0,0,response5disk,,2,5.600060356,-4.800006509,1,0,0,rectangle,5.600060356,-4.800006509,1,0,0,5.600060356,-4.800006509,1,0,0,0,17,17,140,1,,,,,,,,
,,,,,,,,,,,,,FF,,,,,,,,1.4161,,,,,,,,,,,,,,,,,,,,,,610059b905e6d251e2cab6bc,610378cd8bda62035a5c07f4,2021-07-29_23h06.45.152,Simcolourproject_2stim_asymm_v5,2020.2.10,Win32,60,61025ae37ef11b136ea224fe,,,,,,,,,2735,-51.99998933,-72.80000752,1,0,0,response5disk,,3,-8.799988687,-5.600006521,1,0,0,rectangle,-8.799988687,-5.600006521,1,0,0,-8.799988687,-5.600006521,1,0,0,0,18,18,118,1,,,,,,,,
,,,,,,,,,,,,,FF,,,,,,,,1.7866,,,,,,,,,,,,,,,,,,,,,,610059b905e6d251e2cab6bc,610378cd8bda62035a5c07f4,2021-07-29_23h06.45.152,Simcolourproject_2stim_asymm_v5,2020.2.10,Win32,60,61025ae37ef11b136ea224fe,,,,,,,,,2667,-91.99998993,27.19996955,1,0,0,response7disk,,1,-10.39993988,-13.60000664,1,0,0,rectangle,-10.39993988,-13.60000664,1,0,0,-10.39993988,-13.60000664,1,0,0,0,19,19,6,1,,,,,,,,
,,,,,,,,,,,,,FF,,,,,,,,1.5498,,,,,,,,,,,,,,,,,,,,,,610059b905e6d251e2cab6bc,610378cd8bda62035a5c07f4,2021-07-29_23h06.45.152,Simcolourproject_2stim_asymm_v5,2020.2.10,Win32,60,61025ae37ef11b136ea224fe,,,,,,,,,142,25.60006065,-99.20000792,1,0,0,response3disk,,4,16.00001168,11.19999373,1,0,0,rectangle,16.00001168,11.19999373,1,0,0,16.00001168,11.19999373,1,0,0,0,20,20,92,1,,,,,,,,
,,,,,,,,,,,,,FF,,,,,,,,2.7009,,,,,,,,,,,,,,,,,,,,,,610059b905e6d251e2cab6bc,610378cd8bda62035a5c07f4,2021-07-29_23h06.45.152,Simcolourproject_2stim_asymm_v5,2020.2.10,Win32,60,61025ae37ef11b136ea224fe,,,,,,,,,4347,-101.5999901,-45.60000712,1,0,0,response5disk,,2,-12.79998875,8.799993694,1,0,0,rectangle,-12.79998875,8.799993694,1,0,0,-12.79998875,8.799993694,1,0,0,0,21,21,133,1,,,,,,,,
,,,,,,,,,,,,,FF,,,,,,,,2.7874,,,,,,,,,,,,,,,,,,,,,,610059b905e6d251e2cab6bc,610378cd8bda62035a5c07f4,2021-07-29_23h06.45.152,Simcolourproject_2stim_asymm_v5,2020.2.10,Win32,60,61025ae37ef11b136ea224fe,,,,,,,,,586,56.80001229,-83.20000768,1,0,0,response3disk,,4,15.20001167,12.79999375,1,0,0,rectangle,15.20001167,12.79999375,1,0,0,15.20001167,12.79999375,1,0,0,0,22,22,116,1,,,,,,,,
,,,,,,,,,,,,,FF,,,,,,,,1.6822,,,,,,,,,,,,,,,,,,,,,,610059b905e6d251e2cab6bc,610378cd8bda62035a5c07f4,2021-07-29_23h06.45.152,Simcolourproject_2stim_asymm_v5,2020.2.10,Win32,60,61025ae37ef11b136ea224fe,,,,,,,,,3387,103.200013,-38.40000701,1,0,0,response3disk,,5,11.20001161,10.39999372,1,0,0,rectangle,11.20001161,10.39999372,1,0,0,11.20001161,10.39999372,1,0,0,0,23,23,106,1,,,,,,,,
,,,,,,,,,,,,,FF,,,,,,,,1.6012,,,,,,,,,,,,,,,,,,,,,,610059b905e6d251e2cab6bc,610378cd8bda62035a5c07f4,2021-07-29_23h06.45.152,Simcolourproject_2stim_asymm_v5,2020.2.10,Win32,60,61025ae37ef11b136ea224fe,,,,,,,,,1568,92.80001283,-35.20000696,1,0,0,response3disk,,5,-21.59998888,-6.4373E-06,1,0,0,rectangle,-21.59998888,-6.4373E-06,1,0,0,-21.59998888,-6.4373E-06,1,0,0,0,24,24,91,1,,,,,,,,
,,,,,,,,,,,,,FF,,,,,,,,1.9003,,,,,,,,,,,,,,,,,,,,,,610059b905e6d251e2cab6bc,610378cd8bda62035a5c07f4,2021-07-29_23h06.45.152,Simcolourproject_2stim_asymm_v5,2020.2.10,Win32,60,61025ae37ef11b136ea224fe,,,,,,,,,1997,76.00001258,-40.80000705,1,0,0,response3disk,,5,12.00001162,8.799993694,1,0,0,rectangle,12.00001162,8.799993694,1,0,0,12.00001162,8.799993694,1,0,0,0,25,25,94,1,,,,,,,,
,,,,,,,,,,,,,FF,,,,,,,,1.6668,,,,,,,,,,,,,,,,,,,,,,610059b905e6d251e2cab6bc,610378cd8bda62035a5c07f4,2021-07-29_23h06.45.152,Simcolourproject_2stim_asymm_v5,2020.2.10,Win32,60,61025ae37ef11b136ea224fe,,,,,,,,,2580,34.40001196,-82.40000767,1,0,0,response3disk,,4,4.800011516,3.999993622,1,0,0,rectangle,4.800011516,3.999993622,1,0,0,4.800011516,3.999993622,1,0,0,0,26,26,95,1,,,,,,,,
,,,,,,,,,,,,,FF,,,,,,,,2.0827,,,,,,,,,,,,,,,,,,,,,,610059b905e6d251e2cab6bc,610378cd8bda62035a5c07f4,2021-07-29_23h06.45.152,Simcolourproject_2stim_asymm_v5,2020.2.10,Win32,60,61025ae37ef11b136ea224fe,,,,,,,,,4085,-56.7999894,-76.80000758,1,0,0,response5disk,,3,7.200011551,7.999993682,1,0,0,rectangle,7.200011551,7.999993682,1,0,0,7.200011551,7.999993682,1,0,0,0,27,27,101,1,,,,,,,,
,,,,,,,,,,,,,FF,,,,,,,,3.8488,,,,,,,,,,,,,,,,,,,,,,610059b905e6d251e2cab6bc,610378cd8bda62035a5c07f4,2021-07-29_23h06.45.152,Simcolourproject_2stim_asymm_v5,2020.2.10,Win32,60,61025ae37ef11b136ea224fe,,,,,,,,,711,107.200013,35.9999941,1,0,0,response1disk,,6,-3.199988604,2.399993598,1,0,0,rectangle,-3.199988604,2.399993598,1,0,0,-3.199988604,2.399993598,1,0,0,0,28,28,86,1,,,,,,,,
,,,,,,,,,,,,,FF,,,,,,,,9.097,,,,,,,,,,,,,,,,,,,,,,610059b905e6d251e2cab6bc,610378cd8bda62035a5c07f4,2021-07-29_23h06.45.152,Simcolourproject_2stim_asymm_v5,2020.2.10,Win32,60,61025ae37ef11b136ea224fe,,,,,,,,,3025,100.0000129,35.19996967,1,0,0,response1disk,,6,3.200011492,3.19999361,1,0,0,rectangle,3.200011492,3.19999361,1,0,0,3.200011492,3.19999361,1,0,0,0,29,29,19,1,,,,,,,,
,,,,,,,,,,,,,FF,,,,,,,,4.4487,,,,,,,,,,,,,,,,,,,,,,610059b905e6d251e2cab6bc,610378cd8bda62035a5c07f4,2021-07-29_23h06.45.152,Simcolourproject_2stim_asymm_v5,2020.2.10,Win32,60,61025ae37ef11b136ea224fe,,,,,,,,,3614,103.200013,43.99999422,1,0,0,response1disk,,6,-10.39993988,8.799993694,1,0,0,rectangle,-10.39993988,8.799993694,1,0,0,-10.39993988,8.799993694,1,0,0,0,30,30,64,1,,,,,,,,
,,,,,,,,,,,,,FF,,,,,,,,2.62,,,,,,,,,,,,,,,,,,,,,,610059b905e6d251e2cab6bc,610378cd8bda62035a5c07f4,2021-07-29_23h06.45.152,Simcolourproject_2stim_asymm_v5,2020.2.10,Win32,60,61025ae37ef11b136ea224fe,,,,,,,,,730,-35.19998908,-95.20000786,1,0,0,response5disk,,3,20.00001174,-4.800006509,1,0,0,rectangle,20.00001174,-4.800006509,1,0,0,20.00001174,-4.800006509,1,0,0,0,31,31,8,1,,,,,,,,
,,,,,,,,,,,,,FF,,,,,,,,2.5005,,,,,,,,,,,,,,,,,,,,,,610059b905e6d251e2cab6bc,610378cd8bda62035a5c07f4,2021-07-29_23h06.45.152,Simcolourproject_2stim_asymm_v5,2020.2.10,Win32,60,61025ae37ef11b136ea224fe,,,,,,,,,1205,-40.79998916,-100.0000079,1,0,0,response5disk,,3,-7.999988675,-9.60000658,1,0,0,rectangle,-7.999988675,-9.60000658,1,0,0,-7.999988675,-9.60000658,1,0,0,0,32,32,39,1,,,,,,,,
,,,,,,,,,,,,,FF,,,,,,,,1.8007,,,,,,,,,,,,,,,,,,,,,,610059b905e6d251e2cab6bc,610378cd8bda62035a5c07f4,2021-07-29_23h06.45.152,Simcolourproject_2stim_asymm_v5,2020.2.10,Win32,60,61025ae37ef11b136ea224fe,,,,,,,,,4019,80.00001264,42.39999419,1,0,0,response1disk,,6,3.200011492,-6.400006533,1,0,0,rectangle,3.200011492,-6.400006533,1,0,0,3.200011492,-6.400006533,1,0,0,0,33,33,15,1,,,,,,,,
,,,,,,,,,,,,,FF,,,,,,,,1.6662,,,,,,,,,,,,,,,,,,,,,,610059b905e6d251e2cab6bc,610378cd8bda62035a5c07f4,2021-07-29_23h06.45.152,Simcolourproject_2stim_asymm_v5,2020.2.10,Win32,60,61025ae37ef11b136ea224fe,,,,,,,,,341,45.60006095,-80.80000764,1,0,0,response3disk,,4,-5.599988639,7.19999367,1,0,0,rectangle,-5.599988639,7.19999367,1,0,0,-5.599988639,7.19999367,1,0,0,0,34,34,89,1,,,,,,,,
,,,,,,,,,,,,,FF,,,,,,,,1.2495,,,,,,,,,,,,,,,,,,,,,,610059b905e6d251e2cab6bc,610378cd8bda62035a5c07f4,2021-07-29_23h06.45.152,Simcolourproject_2stim_asymm_v5,2020.2.10,Win32,60,61025ae37ef11b136ea224fe,,,,,,,,,1830,-51.19998932,-113.600057,1,0,0,response5disk,,3,4.800011516,11.99999374,1,0,0,rectangle,4.800011516,11.99999374,1,0,0,4.800011516,11.99999374,1,0,0,0,35,35,127,1,,,,,,,,
,,,,,,,,,,,,,FF,,,,,,,,1.8836,,,,,,,,,,,,,,,,,,,,,,610059b905e6d251e2cab6bc,610378cd8bda62035a5c07f4,2021-07-29_23h06.45.152,Simcolourproject_2stim_asymm_v5,2020.2.10,Win32,60,61025ae37ef11b136ea224fe,,,,,,,,,4247,57.6000123,88.79999489,1,0,0,response1disk,,7,0.800011456,-5.600006521,1,0,0,rectangle,0.800011456,-5.600006521,1,0,0,0.800011456,-5.600006521,1,0,0,0,36,36,33,1,,,,,,,,
,,,,,,,,,,,,,FF,,,,,,,,1.463,,,,,,,,,,,,,,,,,,,,,,610059b905e6d251e2cab6bc,610378cd8bda62035a5c07f4,2021-07-29_23h06.45.152,Simcolourproject_2stim_asymm_v5,2020.2.10,Win32,60,61025ae37ef11b136ea224fe,,,,,,,,,2300,-88.79998988,-49.60000718,1,0,0,response5disk,,2,-15.99998879,3.999993622,1,0,0,rectangle,-15.99998879,3.999993622,1,0,0,-15.99998879,3.999993622,1,0,0,0,37,37,105,1,,,,,,,,
,,,,,,,,,,,,,FF,,,,,,,,1.587,,,,,,,,,,,,,,,,,,,,,,610059b905e6d251e2cab6bc,610378cd8bda62035a5c07f4,2021-07-29_23h06.45.152,Simcolourproject_2stim_asymm_v5,2020.2.10,Win32,60,61025ae37ef11b136ea224fe,,,,,,,,,555,45.60006095,-99.20000792,1,0,0,response3disk,,4,8.000011563,-2.400006473,1,0,0,rectangle,8.000011563,-2.400006473,1,0,0,8.000011563,-2.400006473,1,0,0,0,38,38,85,1,,,,,,,,
,,,,,,,,,,,,,FF,,,,,,,,1.9355,,,,,,,,,,,,,,,,,,,,,,610059b905e6d251e2cab6bc,610378cd8bda62035a5c07f4,2021-07-29_23h06.45.152,Simcolourproject_2stim_asymm_v5,2020.2.10,Win32,60,61025ae37ef11b136ea224fe,,,,,,,,,3495,101.600013,37.59999412,1,0,0,response1disk,,6,-2.399939764,-1.600006461,1,0,0,rectangle,-2.399939764,-1.600006461,1,0,0,-2.399939764,-1.600006461,1,0,0,0,39,39,130,1,,,,,,,,
,,,,,,,,,,,,,FF,,,,,,,,2.9672,,,,,,,,,,,,,,,,,,,,,,610059b905e6d251e2cab6bc,610378cd8bda62035a5c07f4,2021-07-29_23h06.45.152,Simcolourproject_2stim_asymm_v5,2020.2.10,Win32,60,61025ae37ef11b136ea224fe,,,,,,,,,1223,-31.19998902,-67.20000744,1,0,0,response5disk,,3,1.14441E-05,-2.400006473,1,0,0,rectangle,1.14441E-05,-2.400006473,1,0,0,1.14441E-05,-2.400006473,1,0,0,0,40,40,5,1,,,,,,,,
,,,,,,,,,,,,,FF,,,,,,,,1.1005,,,,,,,,,,,,,,,,,,,,,,610059b905e6d251e2cab6bc,610378cd8bda62035a5c07f4,2021-07-29_23h06.45.152,Simcolourproject_2stim_asymm_v5,2020.2.10,Win32,60,61025ae37ef11b136ea224fe,,,,,,,,,3643,99.20001292,59.19997003,1,0,0,response1disk,,6,-1.59998858,3.999993622,1,0,0,rectangle,30.4000119,-84.8000077,1,0,0,-2.399939764,2.399993598,1,0,0,0,41,41,138,1,,response3disk_3,TRUE,4,4,"[118,109,163,316,291,42,121,0,107,217,159,322,72,280,277,226,294,320,44,242]",2.2014,rectangle
,,,,,,,,,,,,,FF,,,,,,,,1.3564,,,,,,,,,,,,,,,,,,,,,,610059b905e6d251e2cab6bc,610378cd8bda62035a5c07f4,2021-07-29_23h06.45.152,Simcolourproject_2stim_asymm_v5,2020.2.10,Win32,60,61025ae37ef11b136ea224fe,,,,,,,,,317,116.8000132,60.79999447,1,0,0,response1disk,,6,2.40001148,0.799993575,1,0,0,rectangle,2.40001148,0.799993575,1,0,0,2.40001148,0.799993575,1,0,0,0,42,42,149,1,,,,,,,,
,,,,,,,,,,,,,FF,,,,,,,,3.599,,,,,,,,,,,,,,,,,,,,,,610059b905e6d251e2cab6bc,610378cd8bda62035a5c07f4,2021-07-29_23h06.45.152,Simcolourproject_2stim_asymm_v5,2020.2.10,Win32,60,61025ae37ef11b136ea224fe,,,,,,,,,269,-35.99998909,-53.60000724,1,0,0,response5disk,,3,6.400011539,14.39999378,1,0,0,rectangle,-43.99998921,-74.40000755,1,0,0,-2.399939764,10.39999372,1,0,0,0,43,43,102,1,,response5disk_3,TRUE,3,3,"[118,109,163,316,291,42,121,0,107,217,159,322,72,280,277,226,294,320,44,242]",2.618,rectangle
,,,,,,,,,,,,,FF,,,,,,,,1.4651,,,,,,,,,,,,,,,,,,,,,,610059b905e6d251e2cab6bc,610378cd8bda62035a5c07f4,2021-07-29_23h06.45.152,Simcolourproject_2stim_asymm_v5,2020.2.10,Win32,60,61025ae37ef11b136ea224fe,,,,,,,,,1167,39.20001203,87.19997045,1,0,0,response1disk,,7,0.800011456,-3.200006485,1,0,0,rectangle,0.800011456,-3.200006485,1,0,0,0.800011456,-3.200006485,1,0,0,0,44,44,77,1,,,,,,,,
,,,,,,,,,,,,,FF,,,,,,,,2.6497,,,,,,,,,,,,,,,,,,,,,,610059b905e6d251e2cab6bc,610378cd8bda62035a5c07f4,2021-07-29_23h06.45.152,Simcolourproject_2stim_asymm_v5,2020.2.10,Win32,60,61025ae37ef11b136ea224fe,,,,,,,,,1688,81.60001266,-55.20000726,1,0,0,response3disk,,5,4.000011504,5.599993646,1,0,0,rectangle,4.000011504,5.599993646,1,0,0,4.000011504,5.599993646,1,0,0,0,45,45,68,1,,,,,,,,
,,,,,,,,,,,,,FF,,,,,,,,1.6664,,,,,,,,,,,,,,,,,,,,,,610059b905e6d251e2cab6bc,610378cd8bda62035a5c07f4,2021-07-29_23h06.45.152,Simcolourproject_2stim_asymm_v5,2020.2.10,Win32,60,61025ae37ef11b136ea224fe,,,,,,,,,845,114.4000131,34.39999408,1,0,0,response1disk,,6,-2.399939764,-3.200006485,1,0,0,rectangle,-2.399939764,-3.200006485,1,0,0,-2.399939764,-3.200006485,1,0,0,0,46,46,103,1,,,,,,,,
,,,,,,,,,,,,,FF,,,,,,,,1.4382,,,,,,,,,,,,,,,,,,,,,,610059b905e6d251e2cab6bc,610378cd8bda62035a5c07f4,2021-07-29_23h06.45.152,Simcolourproject_2stim_asymm_v5,2020.2.10,Win32,60,61025ae37ef11b136ea224fe,,,,,,,,,1006,108.8000131,50.39999431,1,0,0,response1disk,,6,-0.799988568,-1.600006461,1,0,0,rectangle,-0.799988568,-1.600006461,1,0,0,-0.799988568,-1.600006461,1,0,0,0,47,47,14,1,,,,,,,,
,,,,,,,,,,,,,FF,,,,,,,,2.2347,,,,,,,,,,,,,,,,,,,,,,610059b905e6d251e2cab6bc,610378cd8bda62035a5c07f4,2021-07-29_23h06.45.152,Simcolourproject_2stim_asymm_v5,2020.2.10,Win32,60,61025ae37ef11b136ea224fe,,,,,,,,,510,77.6000126,-35.20000696,1,0,0,response3disk,,5,8.000011563,-7.200006545,1,0,0,rectangle,8.000011563,-7.200006545,1,0,0,8.000011563,-7.200006545,1,0,0,0,48,48,131,1,,,,,,,,
,,,,,,,,,,,,,FF,,,,,,,,1.7663,,,,,,,,,,,,,,,,,,,,,,610059b905e6d251e2cab6bc,610378cd8bda62035a5c07f4,2021-07-29_23h06.45.152,Simcolourproject_2stim_asymm_v5,2020.2.10,Win32,60,61025ae37ef11b136ea224fe,,,,,,,,,1770,56.80001229,-78.40000761,1,0,0,response3disk,,4,17.60006053,2.399993598,1,0,0,rectangle,17.60006053,2.399993598,1,0,0,17.60006053,2.399993598,1,0,0,0,49,49,146,1,,,,,,,,
,,,,,,,,,,,,,FF,,,,,,,,1.8756,,,,,,,,,,,,,,,,,,,,,,610059b905e6d251e2cab6bc,610378cd8bda62035a5c07f4,2021-07-29_23h06.45.152,Simcolourproject_2stim_asymm_v5,2020.2.10,Win32,60,61025ae37ef11b136ea224fe,,,,,,,,,4151,20.00001174,-102.400008,1,0,0,response3disk,,4,6.400011539,-4.800006509,1,0,0,rectangle,6.400011539,-4.800006509,1,0,0,6.400011539,-4.800006509,1,0,0,0,50,50,11,1,,,,,,,,
,,,,,,,,,,,,,FF,,,,,,,,1.2002,,,,,,,,,,,,,,,,,,,,,,610059b905e6d251e2cab6bc,610378cd8bda62035a5c07f4,2021-07-29_23h06.45.152,Simcolourproject_2stim_asymm_v5,2020.2.10,Win32,60,61025ae37ef11b136ea224fe,,,,,,,,,1555,129.6000134,59.99999446,1,0,0,response1disk,,6,2.40001148,8.799993694,1,0,0,rectangle,2.40001148,8.799993694,1,0,0,2.40001148,8.799993694,1,0,0,0,51,51,99,1,,,,,,,,
,,,,,,,,,,,,,FF,,,,,,,,1.617,,,,,,,,,,,,,,,,,,,,,,610059b905e6d251e2cab6bc,610378cd8bda62035a5c07f4,2021-07-29_23h06.45.152,Simcolourproject_2stim_asymm_v5,2020.2.10,Win32,60,61025ae37ef11b136ea224fe,,,,,,,,,3162,100.0000129,55.19996997,1,0,0,response1disk,,6,-15.19998878,2.399993598,1,0,0,rectangle,-15.19998878,2.399993598,1,0,0,-15.19998878,2.399993598,1,0,0,0,52,52,108,1,,,,,,,,
,,,,,,,,,,,,,FF,,,,,,,,1.25,,,,,,,,,,,,,,,,,,,,,,610059b905e6d251e2cab6bc,610378cd8bda62035a5c07f4,2021-07-29_23h06.45.152,Simcolourproject_2stim_asymm_v5,2020.2.10,Win32,60,61025ae37ef11b136ea224fe,,,,,,,,,4048,84.0000127,-33.60000694,1,0,0,response3disk,,5,-3.199988604,9.599993706,1,0,0,rectangle,-3.199988604,9.599993706,1,0,0,-3.199988604,9.599993706,1,0,0,0,53,53,24,1,,,,,,,,
,,,,,,,,,,,,,FF,,,,,,,,1.2167,,,,,,,,,,,,,,,,,,,,,,610059b905e6d251e2cab6bc,610378cd8bda62035a5c07f4,2021-07-29_23h06.45.152,Simcolourproject_2stim_asymm_v5,2020.2.10,Win32,60,61025ae37ef11b136ea224fe,,,,,,,,,1403,88.00001276,39.99999416,1,0,0,response1disk,,6,-28.79998899,-8.000006557,1,0,0,rectangle,-28.79998899,-8.000006557,1,0,0,-28.79998899,-8.000006557,1,0,0,0,54,54,129,1,,,,,,,,
,,,,,,,,,,,,,FF,,,,,,,,9.564,,,,,,,,,,,,,,,,,,,,,,610059b905e6d251e2cab6bc,610378cd8bda62035a5c07f4,2021-07-29_23h06.45.152,Simcolourproject_2stim_asymm_v5,2020.2.10,Win32,60,61025ae37ef11b136ea224fe,,,,,,,,,1299,-31.19998902,-84.8000077,1,0,0,response5disk,,3,-18.39994,7.19999367,1,0,0,rectangle,-18.39994,7.19999367,1,0,0,-18.39994,7.19999367,1,0,0,0,55,55,144,1,,,,,,,,
,,,,,,,,,,,,,FF,,,,,,,,1.6668,,,,,,,,,,,,,,,,,,,,,,610059b905e6d251e2cab6bc,610378cd8bda62035a5c07f4,2021-07-29_23h06.45.152,Simcolourproject_2stim_asymm_v5,2020.2.10,Win32,60,61025ae37ef11b136ea224fe,,,,,,,,,2757,100.0000129,39.19996973,1,0,0,response1disk,,6,0.800011456,9.599993706,1,0,0,rectangle,0.800011456,9.599993706,1,0,0,0.800011456,9.599993706,1,0,0,0,56,56,75,1,,,,,,,,
,,,,,,,,,,,,,FF,,,,,,,,9.8607,,,,,,,,,,,,,,,,,,,,,,610059b905e6d251e2cab6bc,610378cd8bda62035a5c07f4,2021-07-29_23h06.45.152,Simcolourproject_2stim_asymm_v5,2020.2.10,Win32,60,61025ae37ef11b136ea224fe,,,,,,,,,678,94.40001285,52.79999435,1,0,0,response1disk,,6,12.00001162,14.39999378,1,0,0,rectangle,12.00001162,14.39999378,1,0,0,12.00001162,14.39999378,1,0,0,0,57,57,30,1,,,,,,,,
,,,,,,,,,,,,,FF,,,,,,,,2.5143,,,,,,,,,,,,,,,,,,,,,,610059b905e6d251e2cab6bc,610378cd8bda62035a5c07f4,2021-07-29_23h06.45.152,Simcolourproject_2stim_asymm_v5,2020.2.10,Win32,60,61025ae37ef11b136ea224fe,,,,,,,,,1072,-93.59998995,-41.60000706,1,0,0,response5disk,,2,-35.19998908,-11.2000066,1,0,0,rectangle,-35.19998908,-11.2000066,1,0,0,-35.19998908,-11.2000066,1,0,0,0,58,58,0,1,,,,,,,,
,,,,,,,,,,,,,FF,,,,,,,,1.5664,,,,,,,,,,,,,,,,,,,,,,610059b905e6d251e2cab6bc,610378cd8bda62035a5c07f4,2021-07-29_23h06.45.152,Simcolourproject_2stim_asymm_v5,2020.2.10,Win32,60,61025ae37ef11b136ea224fe,,,,,,,,,3057,54.40001225,-107.200008,1,0,0,response3disk,,4,1.600060296,-6.400006533,1,0,0,rectangle,1.600060296,-6.400006533,1,0,0,1.600060296,-6.400006533,1,0,0,0,59,59,120,1,,,,,,,,
,,,,,,,,,,,,,FF,,,,,,,,13.3172,,,,,,,,,,,,,,,,,,,,,,610059b905e6d251e2cab6bc,610378cd8bda62035a5c07f4,2021-07-29_23h06.45.152,Simcolourproject_2stim_asymm_v5,2020.2.10,Win32,60,61025ae37ef11b136ea224fe,,,,,,,,,966,120.0000132,44.79999423,1,0,0,response1disk,,6,15.20001167,-3.200006485,1,0,0,rectangle,15.20001167,-3.200006485,1,0,0,15.20001167,-3.200006485,1,0,0,0,60,60,114,1,,,,,,,,
,,,,,,,,,,,,,FF,,,,,,,,21.8602,,,,,,,,,,,,,,,,,,,,,,610059b905e6d251e2cab6bc,610378cd8bda62035a5c07f4,2021-07-29_23h06.45.152,Simcolourproject_2stim_asymm_v5,2020.2.10,Win32,60,61025ae37ef11b136ea224fe,,,,,,,,,972,-39.19998914,-100.0000079,1,0,0,response5disk,,3,-9.599988699,11.19999373,1,0,0,rectangle,-9.599988699,11.19999373,1,0,0,-9.599988699,11.19999373,1,0,0,0,61,61,51,1,,,,,,,,
,,,,,,,,,,,,,FF,,,,,,,,1.4505,,,,,,,,,,,,,,,,,,,,,,610059b905e6d251e2cab6bc,610378cd8bda62035a5c07f4,2021-07-29_23h06.45.152,Simcolourproject_2stim_asymm_v5,2020.2.10,Win32,60,61025ae37ef11b136ea224fe,,,,,,,,,3460,123.2000133,56.79999441,1,0,0,response1disk,,6,7.200011551,-9.60000658,1,0,0,rectangle,7.200011551,-9.60000658,1,0,0,7.200011551,-9.60000658,1,0,0,0,62,62,23,1,,,,,,,,
,,,,,,,,,,,,,FF,,,,,,,,1.834,,,,,,,,,,,,,,,,,,,,,,610059b905e6d251e2cab6bc,610378cd8bda62035a5c07f4,2021-07-29_23h06.45.152,Simcolourproject_2stim_asymm_v5,2020.2.10,Win32,60,61025ae37ef11b136ea224fe,,,,,,,,,3292,105.600013,-46.40000713,1,0,0,response3disk,,5,-6.399939823,3.19999361,1,0,0,rectangle,-6.399939823,3.19999361,1,0,0,-6.399939823,3.19999361,1,0,0,0,63,63,48,1,,,,,,,,
,,,,,,,,,,,,,FF,,,,,,,,2.3495,,,,,,,,,,,,,,,,,,,,,,610059b905e6d251e2cab6bc,610378cd8bda62035a5c07f4,2021-07-29_23h06.45.152,Simcolourproject_2stim_asymm_v5,2020.2.10,Win32,60,61025ae37ef11b136ea224fe,,,,,,,,,996,84.0000127,-40.80000705,1,0,0,response3disk,,5,1.600060296,-4.800006509,1,0,0,rectangle,1.600060296,-4.800006509,1,0,0,1.600060296,-4.800006509,1,0,0,0,64,64,26,1,,,,,,,,
,,,,,,,,,,,,,FF,,,,,,,,1.684,,,,,,,,,,,,,,,,,,,,,,610059b905e6d251e2cab6bc,610378cd8bda62035a5c07f4,2021-07-29_23h06.45.152,Simcolourproject_2stim_asymm_v5,2020.2.10,Win32,60,61025ae37ef11b136ea224fe,,,,,,,,,2765,65.60001242,84.79999483,1,0,0,response1disk,,7,16.00001168,1.599993587,1,0,0,rectangle,16.00001168,1.599993587,1,0,0,16.00001168,1.599993587,1,0,0,0,65,65,128,1,,,,,,,,
,,,,,,,,,,,,,FF,,,,,,,,1.7157,,,,,,,,,,,,,,,,,,,,,,610059b905e6d251e2cab6bc,610378cd8bda62035a5c07f4,2021-07-29_23h06.45.152,Simcolourproject_2stim_asymm_v5,2020.2.10,Win32,60,61025ae37ef11b136ea224fe,,,,,,,,,2246,39.20001203,-90.40000778,1,0,0,response3disk,,4,-20.79998887,6.399993658,1,0,0,rectangle,-20.79998887,6.399993658,1,0,0,-20.79998887,6.399993658,1,0,0,0,66,66,109,1,,,,,,,,
,,,,,,,,,,,,,FF,,,,,,,,4.3202,,,,,,,,,,,,,,,,,,,,,,610059b905e6d251e2cab6bc,610378cd8bda62035a5c07f4,2021-07-29_23h06.45.152,Simcolourproject_2stim_asymm_v5,2020.2.10,Win32,60,61025ae37ef11b136ea224fe,,,,,,,,,3550,54.40001225,107.1999707,1,0,0,response1disk,,7,3.200011492,0.799993575,1,0,0,rectangle,3.200011492,0.799993575,1,0,0,3.200011492,0.799993575,1,0,0,0,67,67,150,1,,,,,,,,
,,,,,,,,,,,,,FF,,,,,,,,3.0121,,,,,,,,,,,,,,,,,,,,,,610059b905e6d251e2cab6bc,610378cd8bda62035a5c07f4,2021-07-29_23h06.45.152,Simcolourproject_2stim_asymm_v5,2020.2.10,Win32,60,61025ae37ef11b136ea224fe,,,,,,,,,2490,88.00001276,-44.00000709,1,0,0,response3disk,,5,21.60006059,-8.800006568,1,0,0,rectangle,21.60006059,-8.800006568,1,0,0,21.60006059,-8.800006568,1,0,0,0,68,68,40,1,,,,,,,,
,,,,,,,,,,,,,FF,,,,,,,,1.8328,,,,,,,,,,,,,,,,,,,,,,610059b905e6d251e2cab6bc,610378cd8bda62035a5c07f4,2021-07-29_23h06.45.152,Simcolourproject_2stim_asymm_v5,2020.2.10,Win32,60,61025ae37ef11b136ea224fe,,,,,,,,,2495,37.60006083,-80.80000764,1,0,0,response3disk,,4,4.000011504,-1.600006461,1,0,0,rectangle,4.000011504,-1.600006461,1,0,0,4.000011504,-1.600006461,1,0,0,0,69,69,67,1,,,,,,,,
,,,,,,,,,,,,,FF,,,,,,,,1.2865,,,,,,,,,,,,,,,,,,,,,,610059b905e6d251e2cab6bc,610378cd8bda62035a5c07f4,2021-07-29_23h06.45.152,Simcolourproject_2stim_asymm_v5,2020.2.10,Win32,60,61025ae37ef11b136ea224fe,,,,,,,,,2263,108.0000131,47.99999428,1,0,0,response1disk,,6,-7.199988663,2.399993598,1,0,0,rectangle,-7.199988663,2.399993598,1,0,0,-7.199988663,2.399993598,1,0,0,0,70,70,139,1,,,,,,,,
,,,,,,,,,,,,,FF,,,,,,,,1.7006,,,,,,,,,,,,,,,,,,,,,,610059b905e6d251e2cab6bc,610378cd8bda62035a5c07f4,2021-07-29_23h06.45.152,Simcolourproject_2stim_asymm_v5,2020.2.10,Win32,60,61025ae37ef11b136ea224fe,,,,,,,,,631,-103.1999901,47.19996985,1,0,0,response7disk,,1,-1.59998858,1.599993587,1,0,0,rectangle,-99.19999003,48.79999429,1,0,0,-1.59998858,9.599993706,1,0,0,0,71,71,71,1,,response7disk_3,TRUE,1,1,"[118,109,163,316,291,42,121,0,107,217,159,322,72,280,277,226,294,320,44,242]",6.6054,rectangle
,,,,,,,,,,,,,FF,,,,,,,,1.7482,,,,,,,,,,,,,,,,,,,,,,610059b905e6d251e2cab6bc,610378cd8bda62035a5c07f4,2021-07-29_23h06.45.152,Simcolourproject_2stim_asymm_v5,2020.2.10,Win32,60,61025ae37ef11b136ea224fe,,,,,,,,,1563,114.4000131,43.99999422,1,0,0,response1disk,,6,-4.799988627,-16.00000668,1,0,0,rectangle,-4.799988627,-16.00000668,1,0,0,-4.799988627,-16.00000668,1,0,0,0,72,72,70,1,,,,,,,,
,,,,,,,,,,,,,FF,,,,,,,,2.1835,,,,,,,,,,,,,,,,,,,,,,610059b905e6d251e2cab6bc,610378cd8bda62035a5c07f4,2021-07-29_23h06.45.152,Simcolourproject_2stim_asymm_v5,2020.2.10,Win32,60,61025ae37ef11b136ea224fe,,,,,,,,,4221,-107.9999902,-55.20000726,1,0,0,response5disk,,2,-15.99998879,-10.40000659,1,0,0,rectangle,-15.99998879,-10.40000659,1,0,0,-15.99998879,-10.40000659,1,0,0,0,73,73,98,1,,,,,,,,
,,,,,,,,,,,,,FF,,,,,,,,0.9825,,,,,,,,,,,,,,,,,,,,,,610059b905e6d251e2cab6bc,610378cd8bda62035a5c07f4,2021-07-29_23h06.45.152,Simcolourproject_2stim_asymm_v5,2020.2.10,Win32,60,61025ae37ef11b136ea224fe,,,,,,,,,276,-55.99998939,95.99999499,1,0,0,response7disk,,0,3.200011492,7.999993682,1,0,0,rectangle,3.200011492,7.999993682,1,0,0,3.200011492,7.999993682,1,0,0,0,74,74,10,1,,,,,,,,
,,,,,,,,,,,,,FF,,,,,,,,2.765,,,,,,,,,,,,,,,,,,,,,,610059b905e6d251e2cab6bc,610378cd8bda62035a5c07f4,2021-07-29_23h06.45.152,Simcolourproject_2stim_asymm_v5,2020.2.10,Win32,60,61025ae37ef11b136ea224fe,,,,,,,,,4320,101.600013,-44.8000071,1,0,0,response3disk,,5,-18.39994,12.79999375,1,0,0,rectangle,-18.39994,12.79999375,1,0,0,-18.39994,12.79999375,1,0,0,0,75,75,83,1,,,,,,,,
,,,,,,,,,,,,,FF,,,,,,,,2.13,,,,,,,,,,,,,,,,,,,,,,610059b905e6d251e2cab6bc,610378cd8bda62035a5c07f4,2021-07-29_23h06.45.152,Simcolourproject_2stim_asymm_v5,2020.2.10,Win32,60,61025ae37ef11b136ea224fe,,,,,,,,,3326,104.800013,37.59999412,1,0,0,response1disk,,6,9.600060415,16.79999381,1,0,0,rectangle,9.600060415,16.79999381,1,0,0,9.600060415,16.79999381,1,0,0,0,76,76,155,1,,,,,,,,
,,,,,,,,,,,,,FF,,,,,,,,1.7328,,,,,,,,,,,,,,,,,,,,,,610059b905e6d251e2cab6bc,610378cd8bda62035a5c07f4,2021-07-29_23h06.45.152,Simcolourproject_2stim_asymm_v5,2020.2.10,Win32,60,61025ae37ef11b136ea224fe,,,,,,,,,571,38.40001202,-112.0000081,1,0,0,response3disk,,4,-10.39993988,10.39999372,1,0,0,rectangle,-10.39993988,10.39999372,1,0,0,-10.39993988,10.39999372,1,0,0,0,77,77,82,1,,,,,,,,
,,,,,,,,,,,,,FF,,,,,,,,1.6648,,,,,,,,,,,,,,,,,,,,,,610059b905e6d251e2cab6bc,610378cd8bda62035a5c07f4,2021-07-29_23h06.45.152,Simcolourproject_2stim_asymm_v5,2020.2.10,Win32,60,61025ae37ef11b136ea224fe,,,,,,,,,1746,-99.19999003,-45.60000712,1,0,0,response5disk,,2,-5.599988639,-8.000006557,1,0,0,rectangle,-5.599988639,-8.000006557,1,0,0,-5.599988639,-8.000006557,1,0,0,0,78,78,69,1,,,,,,,,
,,,,,,,,,,,,,FF,,,,,,,,2.4159,,,,,,,,,,,,,,,,,,,,,,610059b905e6d251e2cab6bc,610378cd8bda62035a5c07f4,2021-07-29_23h06.45.152,Simcolourproject_2stim_asymm_v5,2020.2.10,Win32,60,61025ae37ef11b136ea224fe,,,,,,,,,2685,110.4000131,45.59999424,1,0,0,response1disk,,6,10.4000116,14.39999378,1,0,0,rectangle,10.4000116,14.39999378,1,0,0,10.4000116,14.39999378,1,0,0,0,79,79,22,1,,,,,,,,
,,,,,,,,,,,,,FF,,,,,,,,1.406,,,,,,,,,,,,,,,,,,,,,,610059b905e6d251e2cab6bc,610378cd8bda62035a5c07f4,2021-07-29_23h06.45.152,Simcolourproject_2stim_asymm_v5,2020.2.10,Win32,60,61025ae37ef11b136ea224fe,,,,,,,,,572,87.20001274,51.99999434,1,0,0,response1disk,,6,-15.19998878,2.399993598,1,0,0,rectangle,-15.19998878,2.399993598,1,0,0,-15.19998878,2.399993598,1,0,0,0,80,80,13,1,,,,,,,,
,,,,,,,,,,,,,FF,,,,,,,,1.8503,,,,,,,,,,,,,,,,,,,,,,610059b905e6d251e2cab6bc,610378cd8bda62035a5c07f4,2021-07-29_23h06.45.152,Simcolourproject_2stim_asymm_v5,2020.2.10,Win32,60,61025ae37ef11b136ea224fe,,,,,,,,,746,32.80001193,-102.400008,1,0,0,response3disk,,4,6.400011539,5.599993646,1,0,0,rectangle,6.400011539,5.599993646,1,0,0,6.400011539,5.599993646,1,0,0,0,81,81,47,1,,,,,,,,
,,,,,,,,,,,,,FF,,,,,,,,2.1495,,,,,,,,,,,,,,,,,,,,,,610059b905e6d251e2cab6bc,610378cd8bda62035a5c07f4,2021-07-29_23h06.45.152,Simcolourproject_2stim_asymm_v5,2020.2.10,Win32,60,61025ae37ef11b136ea224fe,,,,,,,,,3782,-91.19998991,-45.60000712,1,0,0,response5disk,,2,-4.799988627,-6.400006533,1,0,0,rectangle,-4.799988627,-6.400006533,1,0,0,-4.799988627,-6.400006533,1,0,0,0,82,82,115,1,,,,,,,,
,,,,,,,,,,,,,FF,,,,,,,,1.7991,,,,,,,,,,,,,,,,,,,,,,610059b905e6d251e2cab6bc,610378cd8bda62035a5c07f4,2021-07-29_23h06.45.152,Simcolourproject_2stim_asymm_v5,2020.2.10,Win32,60,61025ae37ef11b136ea224fe,,,,,,,,,1453,-87.99998987,38.39999413,1,0,0,response7disk,,1,-15.19998878,7.19999367,1,0,0,rectangle,-15.19998878,7.19999367,1,0,0,-15.19998878,7.19999367,1,0,0,0,83,83,7,1,,,,,,,,
,,,,,,,,,,,,,FF,,,,,,,,3.2502,,,,,,,,,,,,,,,,,,,,,,610059b905e6d251e2cab6bc,610378cd8bda62035a5c07f4,2021-07-29_23h06.45.152,Simcolourproject_2stim_asymm_v5,2020.2.10,Win32,60,61025ae37ef11b136ea224fe,,,,,,,,,2990,106.400013,-44.8000071,1,0,0,response3disk,,5,17.60006053,0.799993575,1,0,0,rectangle,17.60006053,0.799993575,1,0,0,17.60006053,0.799993575,1,0,0,0,84,84,49,1,,,,,,,,
,,,,,,,,,,,,,FF,,,,,,,,2.1328,,,,,,,,,,,,,,,,,,,,,,610059b905e6d251e2cab6bc,610378cd8bda62035a5c07f4,2021-07-29_23h06.45.152,Simcolourproject_2stim_asymm_v5,2020.2.10,Win32,60,61025ae37ef11b136ea224fe,,,,,,,,,1889,-37.59998912,-85.60005654,1,0,0,response5disk,,3,10.4000116,15.19999379,1,0,0,rectangle,10.4000116,15.19999379,1,0,0,10.4000116,15.19999379,1,0,0,0,85,85,96,1,,,,,,,,
,,,,,,,,,,,,,FF,,,,,,,,1.4667,,,,,,,,,,,,,,,,,,,,,,610059b905e6d251e2cab6bc,610378cd8bda62035a5c07f4,2021-07-29_23h06.45.152,Simcolourproject_2stim_asymm_v5,2020.2.10,Win32,60,61025ae37ef11b136ea224fe,,,,,,,,,12,82.40001267,-44.8000071,1,0,0,response3disk,,5,12.00001162,-2.400006473,1,0,0,rectangle,12.00001162,-2.400006473,1,0,0,12.00001162,-2.400006473,1,0,0,0,86,86,88,1,,,,,,,,
,,,,,,,,,,,,,FF,,,,,,,,1.4999,,,,,,,,,,,,,,,,,,,,,,610059b905e6d251e2cab6bc,610378cd8bda62035a5c07f4,2021-07-29_23h06.45.152,Simcolourproject_2stim_asymm_v5,2020.2.10,Win32,60,61025ae37ef11b136ea224fe,,,,,,,,,3972,-75.99998969,-42.40000707,1,0,0,response5disk,,2,-14.39993994,0.799993575,1,0,0,rectangle,-14.39993994,0.799993575,1,0,0,-14.39993994,0.799993575,1,0,0,0,87,87,34,1,,,,,,,,
,,,,,,,,,,,,,FF,,,,,,,,1.3168,,,,,,,,,,,,,,,,,,,,,,610059b905e6d251e2cab6bc,610378cd8bda62035a5c07f4,2021-07-29_23h06.45.152,Simcolourproject_2stim_asymm_v5,2020.2.10,Win32,60,61025ae37ef11b136ea224fe,,,,,,,,,1232,-72.79998964,-43.20000708,1,0,0,response5disk,,2,-11.19998872,-10.40000659,1,0,0,rectangle,-11.19998872,-10.40000659,1,0,0,-11.19998872,-10.40000659,1,0,0,0,88,88,134,1,,,,,,,,
,,,,,,,,,,,,,FF,,,,,,,,2.6659,,,,,,,,,,,,,,,,,,,,,,610059b905e6d251e2cab6bc,610378cd8bda62035a5c07f4,2021-07-29_23h06.45.152,Simcolourproject_2stim_asymm_v5,2020.2.10,Win32,60,61025ae37ef11b136ea224fe,,,,,,,,,474,109.6000131,-34.40000695,1,0,0,response3disk,,5,32.80001193,-0.800006449,1,0,0,rectangle,32.80001193,-0.800006449,1,0,0,32.80001193,-0.800006449,1,0,0,0,89,89,123,1,,,,,,,,
,,,,,,,,,,,,,FF,,,,,,,,1.1841,,,,,,,,,,,,,,,,,,,,,,610059b905e6d251e2cab6bc,610378cd8bda62035a5c07f4,2021-07-29_23h06.45.152,Simcolourproject_2stim_asymm_v5,2020.2.10,Win32,60,61025ae37ef11b136ea224fe,,,,,,,,,2159,95.20001286,36.79999411,1,0,0,response1disk,,6,16.00001168,11.19999373,1,0,0,rectangle,16.00001168,11.19999373,1,0,0,16.00001168,11.19999373,1,0,0,0,90,90,12,1,,,,,,,,
,,,,,,,,,,,,,FF,,,,,,,,6.0153,,,,,,,,,,,,,,,,,,,,,,610059b905e6d251e2cab6bc,610378cd8bda62035a5c07f4,2021-07-29_23h06.45.152,Simcolourproject_2stim_asymm_v5,2020.2.10,Win32,60,61025ae37ef11b136ea224fe,,,,,,,,,2273,92.00001281,49.5999943,1,0,0,response1disk,,6,-11.19998872,8.799993694,1,0,0,rectangle,-11.19998872,8.799993694,1,0,0,-11.19998872,8.799993694,1,0,0,0,91,91,28,1,,,,,,,,
,,,,,,,,,,,,,FF,,,,,,,,1.5867,,,,,,,,,,,,,,,,,,,,,,610059b905e6d251e2cab6bc,610378cd8bda62035a5c07f4,2021-07-29_23h06.45.152,Simcolourproject_2stim_asymm_v5,2020.2.10,Win32,60,61025ae37ef11b136ea224fe,,,,,,,,,1260,87.20001274,-61.60000736,1,0,0,response3disk,,5,12.00001162,9.599993706,1,0,0,rectangle,12.00001162,9.599993706,1,0,0,12.00001162,9.599993706,1,0,0,0,92,92,158,1,,,,,,,,
,,,,,,,,,,,,,FF,,,,,,,,2.7838,,,,,,,,,,,,,,,,,,,,,,610059b905e6d251e2cab6bc,610378cd8bda62035a5c07f4,2021-07-29_23h06.45.152,Simcolourproject_2stim_asymm_v5,2020.2.10,Win32,60,61025ae37ef11b136ea224fe,,,,,,,,,2224,91.2000128,-64.8000074,1,0,0,response3disk,,5,15.20001167,11.99999374,1,0,0,rectangle,15.20001167,11.99999374,1,0,0,15.20001167,11.99999374,1,0,0,0,93,93,60,1,,,,,,,,
,,,,,,,,,,,,,FF,,,,,,,,2.4324,,,,,,,,,,,,,,,,,,,,,,610059b905e6d251e2cab6bc,610378cd8bda62035a5c07f4,2021-07-29_23h06.45.152,Simcolourproject_2stim_asymm_v5,2020.2.10,Win32,60,61025ae37ef11b136ea224fe,,,,,,,,,2715,88.00001276,-41.60000706,1,0,0,response3disk,,5,15.20001167,7.999993682,1,0,0,rectangle,15.20001167,7.999993682,1,0,0,15.20001167,7.999993682,1,0,0,0,94,94,65,1,,,,,,,,
,,,,,,,,,,,,,FF,,,,,,,,2.0171,,,,,,,,,,,,,,,,,,,,,,610059b905e6d251e2cab6bc,610378cd8bda62035a5c07f4,2021-07-29_23h06.45.152,Simcolourproject_2stim_asymm_v5,2020.2.10,Win32,60,61025ae37ef11b136ea224fe,,,,,,,,,1181,102.400013,35.19996967,1,0,0,response1disk,,6,-12.79998875,3.999993622,1,0,0,rectangle,-12.79998875,3.999993622,1,0,0,-12.79998875,3.999993622,1,0,0,0,95,95,78,1,,,,,,,,
,,,,,,,,,,,,,FF,,,,,,,,0.9991,,,,,,,,,,,,,,,,,,,,,,610059b905e6d251e2cab6bc,610378cd8bda62035a5c07f4,2021-07-29_23h06.45.152,Simcolourproject_2stim_asymm_v5,2020.2.10,Win32,60,61025ae37ef11b136ea224fe,,,,,,,,,77,-29.599989,81.59999478,1,0,0,response7disk,,0,-1.59998858,-4.800006509,1,0,0,rectangle,-1.59998858,-4.800006509,1,0,0,-1.59998858,-4.800006509,1,0,0,0,96,96,110,1,,,,,,,,
,,,,,,,,,,,,,FF,,,,,,,,1.8503,,,,,,,,,,,,,,,,,,,,,,610059b905e6d251e2cab6bc,610378cd8bda62035a5c07f4,2021-07-29_23h06.45.152,Simcolourproject_2stim_asymm_v5,2020.2.10,Win32,60,61025ae37ef11b136ea224fe,,,,,,,,,4115,25.60006065,-94.40000784,1,0,0,response3disk,,4,-17.59998882,6.399993658,1,0,0,rectangle,-17.59998882,6.399993658,1,0,0,-17.59998882,6.399993658,1,0,0,0,97,97,135,1,,,,,,,,
,,,,,,,,,,,,,FF,,,,,,,,2.9848,,,,,,,,,,,,,,,,,,,,,,610059b905e6d251e2cab6bc,610378cd8bda62035a5c07f4,2021-07-29_23h06.45.152,Simcolourproject_2stim_asymm_v5,2020.2.10,Win32,60,61025ae37ef11b136ea224fe,,,,,,,,,3802,97.6000129,-22.40000677,1,0,0,response3disk,,5,10.4000116,-0.800006449,1,0,0,rectangle,10.4000116,-0.800006449,1,0,0,10.4000116,-0.800006449,1,0,0,0,98,98,141,1,,,,,,,,
,,,,,,,,,,,,,FF,,,,,,,,1.0531,,,,,,,,,,,,,,,,,,,,,,610059b905e6d251e2cab6bc,610378cd8bda62035a5c07f4,2021-07-29_23h06.45.152,Simcolourproject_2stim_asymm_v5,2020.2.10,Win32,60,61025ae37ef11b136ea224fe,,,,,,,,,3290,-44.79998922,88.79999489,1,0,0,response7disk,,0,6.400011539,-6.400006533,1,0,0,rectangle,6.400011539,-6.400006533,1,0,0,6.400011539,-6.400006533,1,0,0,0,99,99,136,1,,,,,,,,
,,,,,,,,,,,,,FF,,,,,,,,2.0497,,,,,,,,,,,,,,,,,,,,,,610059b905e6d251e2cab6bc,610378cd8bda62035a5c07f4,2021-07-29_23h06.45.152,Simcolourproject_2stim_asymm_v5,2020.2.10,Win32,60,61025ae37ef11b136ea224fe,,,,,,,,,2150,114.4000131,51.99999434,1,0,0,response1disk,,6,-7.199988663,-13.60000664,1,0,0,rectangle,-7.199988663,-13.60000664,1,0,0,-7.199988663,-13.60000664,1,0,0,0,100,100,62,1,,,,,,,,
,,,,,,,,,,,,,FF,,,,,,,,4.315,,,,,,,,,,,,,,,,,,,,,,610059b905e6d251e2cab6bc,610378cd8bda62035a5c07f4,2021-07-29_23h06.45.152,Simcolourproject_2stim_asymm_v5,2020.2.10,Win32,60,61025ae37ef11b136ea224fe,,,,,,,,,358,100.0000129,-27.20000684,1,0,0,response3disk,,5,-19.19998884,-1.600006461,1,0,0,rectangle,-19.19998884,-1.600006461,1,0,0,-19.19998884,-1.600006461,1,0,0,0,101,101,31,1,,,,,,,,
,,,,,,,,,,,,,FF,,,,,,,,1.5667,,,,,,,,,,,,,,,,,,,,,,610059b905e6d251e2cab6bc,610378cd8bda62035a5c07f4,2021-07-29_23h06.45.152,Simcolourproject_2stim_asymm_v5,2020.2.10,Win32,60,61025ae37ef11b136ea224fe,,,,,,,,,3434,-100.7999901,47.19996985,1,0,0,response7disk,,1,1.14441E-05,9.599993706,1,0,0,rectangle,1.14441E-05,9.599993706,1,0,0,1.14441E-05,9.599993706,1,0,0,0,102,102,9,1,,,,,,,,
,,,,,,,,,,,,,FF,,,,,,,,1.1657,,,,,,,,,,,,,,,,,,,,,,610059b905e6d251e2cab6bc,610378cd8bda62035a5c07f4,2021-07-29_23h06.45.152,Simcolourproject_2stim_asymm_v5,2020.2.10,Win32,60,61025ae37ef11b136ea224fe,,,,,,,,,2906,-43.99998921,-73.60000753,1,0,0,response5disk,,3,1.600060296,-6.4373E-06,1,0,0,rectangle,1.600060296,-6.4373E-06,1,0,0,1.600060296,-6.4373E-06,1,0,0,0,103,103,53,1,,,,,,,,
,,,,,,,,,,,,,FF,,,,,,,,1.5492,,,,,,,,,,,,,,,,,,,,,,610059b905e6d251e2cab6bc,610378cd8bda62035a5c07f4,2021-07-29_23h06.45.152,Simcolourproject_2stim_asymm_v5,2020.2.10,Win32,60,61025ae37ef11b136ea224fe,,,,,,,,,951,82.40001267,-41.60000706,1,0,0,response3disk,,5,27.20001185,-3.200006485,1,0,0,rectangle,27.20001185,-3.200006485,1,0,0,27.20001185,-3.200006485,1,0,0,0,104,104,142,1,,,,,,,,
,,,,,,,,,,,,,FF,,,,,,,,1.6329,,,,,,,,,,,,,,,,,,,,,,610059b905e6d251e2cab6bc,610378cd8bda62035a5c07f4,2021-07-29_23h06.45.152,Simcolourproject_2stim_asymm_v5,2020.2.10,Win32,60,61025ae37ef11b136ea224fe,,,,,,,,,3376,-92.79998994,-36.80000699,1,0,0,response5disk,,2,-13.59998876,2.399993598,1,0,0,rectangle,-13.59998876,2.399993598,1,0,0,-13.59998876,2.399993598,1,0,0,0,105,105,73,1,,,,,,,,
,,,,,,,,,,,,,FF,,,,,,,,1.7489,,,,,,,,,,,,,,,,,,,,,,610059b905e6d251e2cab6bc,610378cd8bda62035a5c07f4,2021-07-29_23h06.45.152,Simcolourproject_2stim_asymm_v5,2020.2.10,Win32,60,61025ae37ef11b136ea224fe,,,,,,,,,2788,108.8000131,33.59999406,1,0,0,response1disk,,6,11.20001161,6.399993658,1,0,0,rectangle,80.00001264,53.59999436,1,0,0,4.800011516,3.999993622,1,0,0,0,106,106,3,1,,response1disk_3,TRUE,6,6,"[118,109,163,316,291,42,121,0,107,217,159,322,72,280,277,226,294,320,44,242]",1.4823,rectangle
,,,,,,,,,,,,,FF,,,,,,,,1.4839,,,,,,,,,,,,,,,,,,,,,,610059b905e6d251e2cab6bc,610378cd8bda62035a5c07f4,2021-07-29_23h06.45.152,Simcolourproject_2stim_asymm_v5,2020.2.10,Win32,60,61025ae37ef11b136ea224fe,,,,,,,,,2381,57.6000123,-76.00000757,1,0,0,response3disk,,4,-3.199988604,-0.800006449,1,0,0,rectangle,-3.199988604,-0.800006449,1,0,0,-3.199988604,-0.800006449,1,0,0,0,107,107,61,1,,,,,,,,
,,,,,,,,,,,,,FF,,,,,,,,1.433,,,,,,,,,,,,,,,,,,,,,,610059b905e6d251e2cab6bc,610378cd8bda62035a5c07f4,2021-07-29_23h06.45.152,Simcolourproject_2stim_asymm_v5,2020.2.10,Win32,60,61025ae37ef11b136ea224fe,,,,,,,,,2044,91.2000128,-40.00000703,1,0,0,response3disk,,5,20.80001175,-4.000006497,1,0,0,rectangle,42.40001208,-112.0000081,1,0,0,5.600060356,13.59999377,1,0,0,0,108,108,25,1,,response3disk_3,TRUE,4,4,"[118,109,163,316,291,42,121,0,107,217,159,322,72,280,277,226,294,320,44,242]",2.1656,rectangle
,,,,,,,,,,,,,FF,,,,,,,,1.9163,,,,,,,,,,,,,,,,,,,,,,610059b905e6d251e2cab6bc,610378cd8bda62035a5c07f4,2021-07-29_23h06.45.152,Simcolourproject_2stim_asymm_v5,2020.2.10,Win32,60,61025ae37ef11b136ea224fe,,,,,,,,,2088,105.600013,-27.20000684,1,0,0,response3disk,,5,-1.59998858,11.19999373,1,0,0,rectangle,-1.59998858,11.19999373,1,0,0,-1.59998858,11.19999373,1,0,0,0,109,109,35,1,,,,,,,,
,,,,,,,,,,,,,FF,,,,,,,,1.4491,,,,,,,,,,,,,,,,,,,,,,610059b905e6d251e2cab6bc,610378cd8bda62035a5c07f4,2021-07-29_23h06.45.152,Simcolourproject_2stim_asymm_v5,2020.2.10,Win32,60,61025ae37ef11b136ea224fe,,,,,,,,,2368,90.40001279,-59.20000732,1,0,0,response3disk,,5,-6.399939823,7.999993682,1,0,0,rectangle,-6.399939823,7.999993682,1,0,0,-6.399939823,7.999993682,1,0,0,0,110,110,87,1,,,,,,,,
,,,,,,,,,,,,,FF,,,,,,,,1.8877,,,,,,,,,,,,,,,,,,,,,,610059b905e6d251e2cab6bc,610378cd8bda62035a5c07f4,2021-07-29_23h06.45.152,Simcolourproject_2stim_asymm_v5,2020.2.10,Win32,60,61025ae37ef11b136ea224fe,,,,,,,,,2698,110.4000131,33.59999406,1,0,0,response1disk,,6,-15.19998878,-2.400006473,1,0,0,rectangle,-15.19998878,-2.400006473,1,0,0,-15.19998878,-2.400006473,1,0,0,0,111,111,113,1,,,,,,,,
,,,,,,,,,,,,,FF,,,,,,,,1.7825,,,,,,,,,,,,,,,,,,,,,,610059b905e6d251e2cab6bc,610378cd8bda62035a5c07f4,2021-07-29_23h06.45.152,Simcolourproject_2stim_asymm_v5,2020.2.10,Win32,60,61025ae37ef11b136ea224fe,,,,,,,,,533,-84.79998982,44.79999423,1,0,0,response7disk,,1,-3.999988616,6.399993658,1,0,0,rectangle,-3.999988616,6.399993658,1,0,0,-3.999988616,6.399993658,1,0,0,0,112,112,104,1,,,,,,,,
,,,,,,,,,,,,,FF,,,,,,,,0.9525,,,,,,,,,,,,,,,,,,,,,,610059b905e6d251e2cab6bc,610378cd8bda62035a5c07f4,2021-07-29_23h06.45.152,Simcolourproject_2stim_asymm_v5,2020.2.10,Win32,60,61025ae37ef11b136ea224fe,,,,,,,,,456,-61.59998947,38.39999413,1,0,0,response7disk,,1,-11.99998873,3.999993622,1,0,0,rectangle,-11.99998873,3.999993622,1,0,0,-11.99998873,3.999993622,1,0,0,0,113,113,17,1,,,,,,,,
,,,,,,,,,,,,,FF,,,,,,,,1.0284,,,,,,,,,,,,,,,,,,,,,,610059b905e6d251e2cab6bc,610378cd8bda62035a5c07f4,2021-07-29_23h06.45.152,Simcolourproject_2stim_asymm_v5,2020.2.10,Win32,60,61025ae37ef11b136ea224fe,,,,,,,,,787,-42.39994036,-84.00000769,1,0,0,response5disk,,3,-6.399939823,15.19999379,1,0,0,rectangle,-6.399939823,15.19999379,1,0,0,-6.399939823,15.19999379,1,0,0,0,114,114,152,1,,,,,,,,
,,,,,,,,,,,,,FF,,,,,,,,1.3731,,,,,,,,,,,,,,,,,,,,,,610059b905e6d251e2cab6bc,610378cd8bda62035a5c07f4,2021-07-29_23h06.45.152,Simcolourproject_2stim_asymm_v5,2020.2.10,Win32,60,61025ae37ef11b136ea224fe,,,,,,,,,998,41.60006089,-94.40000784,1,0,0,response3disk,,4,-23.1999889,-8.800006568,1,0,0,rectangle,-23.1999889,-8.800006568,1,0,0,-23.1999889,-8.800006568,1,0,0,0,115,115,156,1,,,,,,,,
,,,,,,,,,,,,,FF,,,,,,,,2.1671,,,,,,,,,,,,,,,,,,,,,,610059b905e6d251e2cab6bc,610378cd8bda62035a5c07f4,2021-07-29_23h06.45.152,Simcolourproject_2stim_asymm_v5,2020.2.10,Win32,60,61025ae37ef11b136ea224fe,,,,,,,,,1724,92.00001281,-29.60000688,1,0,0,response3disk,,5,-20.79998887,7.19999367,1,0,0,rectangle,-20.79998887,7.19999367,1,0,0,-20.79998887,7.19999367,1,0,0,0,116,116,111,1,,,,,,,,
,,,,,,,,,,,,,FF,,,,,,,,1.7472,,,,,,,,,,,,,,,,,,,,,,610059b905e6d251e2cab6bc,610378cd8bda62035a5c07f4,2021-07-29_23h06.45.152,Simcolourproject_2stim_asymm_v5,2020.2.10,Win32,60,61025ae37ef11b136ea224fe,,,,,,,,,3718,-71.19998962,-36.80000699,1,0,0,response5disk,,2,-11.99998873,3.19999361,1,0,0,rectangle,94.40001285,-41.60000706,1,0,0,3.200011492,3.19999361,1,0,0,0,117,117,80,1,,response3disk_3,TRUE,5,5,"[118,109,163,316,291,42,121,0,107,217,159,322,72,280,277,226,294,320,44,242]",1.6006,rectangle
,,,,,,,,,,,,,FF,,,,,,,,2.4021,,,,,,,,,,,,,,,,,,,,,,610059b905e6d251e2cab6bc,610378cd8bda62035a5c07f4,2021-07-29_23h06.45.152,Simcolourproject_2stim_asymm_v5,2020.2.10,Win32,60,61025ae37ef11b136ea224fe,,,,,,,,,1171,-31.19998902,-89.6000566,1,0,0,response5disk,,3,-6.399939823,-16.00000668,1,0,0,rectangle,-6.399939823,-16.00000668,1,0,0,-6.399939823,-16.00000668,1,0,0,0,118,118,50,1,,,,,,,,
,,,,,,,,,,,,,FF,,,,,,,,1.2027,,,,,,,,,,,,,,,,,,,,,,610059b905e6d251e2cab6bc,610378cd8bda62035a5c07f4,2021-07-29_23h06.45.152,Simcolourproject_2stim_asymm_v5,2020.2.10,Win32,60,61025ae37ef11b136ea224fe,,,,,,,,,34,48.80001217,-93.60005666,1,0,0,response3disk,,4,-7.999988675,-4.800006509,1,0,0,rectangle,-7.999988675,-4.800006509,1,0,0,-7.999988675,-4.800006509,1,0,0,0,119,119,90,1,,,,,,,,
,,,,,,,,,,,,,FF,,,,,,,,1.6162,,,,,,,,,,,,,,,,,,,,,,610059b905e6d251e2cab6bc,610378cd8bda62035a5c07f4,2021-07-29_23h06.45.152,Simcolourproject_2stim_asymm_v5,2020.2.10,Win32,60,61025ae37ef11b136ea224fe,,,,,,,,,2647,112.8000131,38.39999413,1,0,0,response1disk,,6,-8.799988687,-4.800006509,1,0,0,rectangle,41.60006089,-114.4000081,1,0,0,-6.399939823,-4.000006497,1,0,0,0,120,120,45,1,,response3disk_3,TRUE,4,4,"[118,109,163,316,291,42,121,0,107,217,159,322,72,280,277,226,294,320,44,242]",1.832,rectangle
,,,,,,,,,,,,,FF,,,,,,,,2.1498,,,,,,,,,,,,,,,,,,,,,,610059b905e6d251e2cab6bc,610378cd8bda62035a5c07f4,2021-07-29_23h06.45.152,Simcolourproject_2stim_asymm_v5,2020.2.10,Win32,60,61025ae37ef11b136ea224fe,,,,,,,,,1978,70.40001249,-99.20000792,1,0,0,response3disk,,4,-1.59998858,15.9999938,1,0,0,rectangle,-1.59998858,15.9999938,1,0,0,-1.59998858,15.9999938,1,0,0,0,121,121,112,1,,,,,,,,
,,,,,,,,,,,,,FF,,,,,,,,3.2178,,,,,,,,,,,,,,,,,,,,,,610059b905e6d251e2cab6bc,610378cd8bda62035a5c07f4,2021-07-29_23h06.45.152,Simcolourproject_2stim_asymm_v5,2020.2.10,Win32,60,61025ae37ef11b136ea224fe,,,,,,,,,3961,128.8000134,-31.2000069,1,0,0,response3disk,,5,-6.399939823,11.99999374,1,0,0,rectangle,-6.399939823,11.99999374,1,0,0,-6.399939823,11.99999374,1,0,0,0,122,122,93,1,,,,,,,,
,,,,,,,,,,,,,FF,,,,,,,,1.5167,,,,,,,,,,,,,,,,,,,,,,610059b905e6d251e2cab6bc,610378cd8bda62035a5c07f4,2021-07-29_23h06.45.152,Simcolourproject_2stim_asymm_v5,2020.2.10,Win32,60,61025ae37ef11b136ea224fe,,,,,,,,,312,33.60006077,-90.40000778,1,0,0,response3disk,,4,-11.19998872,5.599993646,1,0,0,rectangle,-11.19998872,5.599993646,1,0,0,-11.19998872,5.599993646,1,0,0,0,123,123,63,1,,,,,,,,
,,,,,,,,,,,,,FF,,,,,,,,1.9328,,,,,,,,,,,,,,,,,,,,,,610059b905e6d251e2cab6bc,610378cd8bda62035a5c07f4,2021-07-29_23h06.45.152,Simcolourproject_2stim_asymm_v5,2020.2.10,Win32,60,61025ae37ef11b136ea224fe,,,,,,,,,589,112.8000131,44.79999423,1,0,0,response1disk,,6,7.200011551,-3.200006485,1,0,0,rectangle,7.200011551,-3.200006485,1,0,0,7.200011551,-3.200006485,1,0,0,0,124,124,148,1,,,,,,,,
,,,,,,,,,,,,,FF,,,,,,,,1.3342,,,,,,,,,,,,,,,,,,,,,,610059b905e6d251e2cab6bc,610378cd8bda62035a5c07f4,2021-07-29_23h06.45.152,Simcolourproject_2stim_asymm_v5,2020.2.10,Win32,60,61025ae37ef11b136ea224fe,,,,,,,,,1776,106.400013,44.79999423,1,0,0,response1disk,,6,-10.39993988,3.999993622,1,0,0,rectangle,-10.39993988,3.999993622,1,0,0,-10.39993988,3.999993622,1,0,0,0,125,125,117,1,,,,,,,,
,,,,,,,,,,,,,FF,,,,,,,,1.4487,,,,,,,,,,,,,,,,,,,,,,610059b905e6d251e2cab6bc,610378cd8bda62035a5c07f4,2021-07-29_23h06.45.152,Simcolourproject_2stim_asymm_v5,2020.2.10,Win32,60,61025ae37ef11b136ea224fe,,,,,,,,,3636,-43.99998921,-71.2000075,1,0,0,response5disk,,3,-10.39993988,-4.000006497,1,0,0,rectangle,-10.39993988,-4.000006497,1,0,0,-10.39993988,-4.000006497,1,0,0,0,126,126,137,1,,,,,,,,
,,,,,,,,,,,,,FF,,,,,,,,1.5995,,,,,,,,,,,,,,,,,,,,,,610059b905e6d251e2cab6bc,610378cd8bda62035a5c07f4,2021-07-29_23h06.45.152,Simcolourproject_2stim_asymm_v5,2020.2.10,Win32,60,61025ae37ef11b136ea224fe,,,,,,,,,2501,88.00001276,-61.60000736,1,0,0,response3disk,,5,8.000011563,-4.000006497,1,0,0,rectangle,8.000011563,-4.000006497,1,0,0,8.000011563,-4.000006497,1,0,0,0,127,127,54,1,,,,,,,,
,,,,,,,,,,,,,FF,,,,,,,,2.8817,,,,,,,,,,,,,,,,,,,,,,610059b905e6d251e2cab6bc,610378cd8bda62035a5c07f4,2021-07-29_23h06.45.152,Simcolourproject_2stim_asymm_v5,2020.2.10,Win32,60,61025ae37ef11b136ea224fe,,,,,,,,,2884,92.00001281,-54.40000725,1,0,0,response3disk,,5,17.60006053,-2.400006473,1,0,0,rectangle,17.60006053,-2.400006473,1,0,0,17.60006053,-2.400006473,1,0,0,0,128,128,42,1,,,,,,,,
,,,,,,,,,,,,,FF,,,,,,,,2.4573,,,,,,,,,,,,,,,,,,,,,,610059b905e6d251e2cab6bc,610378cd8bda62035a5c07f4,2021-07-29_23h06.45.152,Simcolourproject_2stim_asymm_v5,2020.2.10,Win32,60,61025ae37ef11b136ea224fe,,,,,,,,,1112,56.80001229,-87.20000774,1,0,0,response3disk,,4,-4.799988627,-0.800006449,1,0,0,rectangle,-4.799988627,-0.800006449,1,0,0,-4.799988627,-0.800006449,1,0,0,0,129,129,74,1,,,,,,,,
,,,,,,,,,,,,,FF,,,,,,,,1.1001,,,,,,,,,,,,,,,,,,,,,,610059b905e6d251e2cab6bc,610378cd8bda62035a5c07f4,2021-07-29_23h06.45.152,Simcolourproject_2stim_asymm_v5,2020.2.10,Win32,60,61025ae37ef11b136ea224fe,,,,,,,,,3069,96.80001289,-32.00000691,1,0,0,response3disk,,5,12.80001163,0.799993575,1,0,0,rectangle,12.80001163,0.799993575,1,0,0,12.80001163,0.799993575,1,0,0,0,130,130,119,1,,,,,,,,
,,,,,,,,,,,,,FF,,,,,,,,1.7532,,,,,,,,,,,,,,,,,,,,,,610059b905e6d251e2cab6bc,610378cd8bda62035a5c07f4,2021-07-29_23h06.45.152,Simcolourproject_2stim_asymm_v5,2020.2.10,Win32,60,61025ae37ef11b136ea224fe,,,,,,,,,138,100.8000129,29.599994,1,0,0,response1disk,,6,9.600060415,-6.400006533,1,0,0,rectangle,9.600060415,-6.400006533,1,0,0,9.600060415,-6.400006533,1,0,0,0,131,131,132,1,,,,,,,,
,,,,,,,,,,,,,FF,,,,,,,,1.4848,,,,,,,,,,,,,,,,,,,,,,610059b905e6d251e2cab6bc,610378cd8bda62035a5c07f4,2021-07-29_23h06.45.152,Simcolourproject_2stim_asymm_v5,2020.2.10,Win32,60,61025ae37ef11b136ea224fe,,,,,,,,,3541,89.60001278,19.99999386,1,0,0,response1disk,,6,18.40001172,-2.400006473,1,0,0,rectangle,18.40001172,-2.400006473,1,0,0,18.40001172,-2.400006473,1,0,0,0,132,132,159,1,,,,,,,,
,,,,,,,,,,,,,FF,,,,,,,,2.3534,,,,,,,,,,,,,,,,,,,,,,610059b905e6d251e2cab6bc,610378cd8bda62035a5c07f4,2021-07-29_23h06.45.152,Simcolourproject_2stim_asymm_v5,2020.2.10,Win32,60,61025ae37ef11b136ea224fe,,,,,,,,,281,29.60006071,-91.2000078,1,0,0,response3disk,,4,-7.199988663,1.599993587,1,0,0,rectangle,-7.199988663,1.599993587,1,0,0,-7.199988663,1.599993587,1,0,0,0,133,133,122,1,,,,,,,,
,,,,,,,,,,,,,FF,,,,,,,,1.7367,,,,,,,,,,,,,,,,,,,,,,610059b905e6d251e2cab6bc,610378cd8bda62035a5c07f4,2021-07-29_23h06.45.152,Simcolourproject_2stim_asymm_v5,2020.2.10,Win32,60,61025ae37ef11b136ea224fe,,,,,,,,,2900,57.6000123,-107.200008,1,0,0,response3disk,,4,1.600060296,6.399993658,1,0,0,rectangle,1.600060296,6.399993658,1,0,0,1.600060296,6.399993658,1,0,0,0,134,134,20,1,,,,,,,,
,,,,,,,,,,,,,FF,,,,,,,,2.1497,,,,,,,,,,,,,,,,,,,,,,610059b905e6d251e2cab6bc,610378cd8bda62035a5c07f4,2021-07-29_23h06.45.152,Simcolourproject_2stim_asymm_v5,2020.2.10,Win32,60,61025ae37ef11b136ea224fe,,,,,,,,,1860,65.60001242,-61.60000736,1,0,0,response3disk,,5,-20.79998887,9.599993706,1,0,0,rectangle,-20.79998887,9.599993706,1,0,0,-20.79998887,9.599993706,1,0,0,0,135,135,59,1,,,,,,,,
,,,,,,,,,,,,,FF,,,,,,,,1.4997,,,,,,,,,,,,,,,,,,,,,,610059b905e6d251e2cab6bc,610378cd8bda62035a5c07f4,2021-07-29_23h06.45.152,Simcolourproject_2stim_asymm_v5,2020.2.10,Win32,60,61025ae37ef11b136ea224fe,,,,,,,,,3164,-40.79998916,-103.200008,1,0,0,response5disk,,3,4.800011516,-10.40000659,1,0,0,rectangle,4.800011516,-10.40000659,1,0,0,4.800011516,-10.40000659,1,0,0,0,136,136,107,1,,,,,,,,
,,,,,,,,,,,,,FF,,,,,,,,1.6325,,,,,,,,,,,,,,,,,,,,,,610059b905e6d251e2cab6bc,610378cd8bda62035a5c07f4,2021-07-29_23h06.45.152,Simcolourproject_2stim_asymm_v5,2020.2.10,Win32,60,61025ae37ef11b136ea224fe,,,,,,,,,3690,-23.1999889,-84.8000077,1,0,0,response5disk,,3,10.4000116,-0.800006449,1,0,0,rectangle,10.4000116,-0.800006449,1,0,0,10.4000116,-0.800006449,1,0,0,0,137,137,1,1,,,,,,,,
,,,,,,,,,,,,,FF,,,,,,,,5.384,,,,,,,,,,,,,,,,,,,,,,610059b905e6d251e2cab6bc,610378cd8bda62035a5c07f4,2021-07-29_23h06.45.152,Simcolourproject_2stim_asymm_v5,2020.2.10,Win32,60,61025ae37ef11b136ea224fe,,,,,,,,,4142,-75.19998968,-43.20000708,1,0,0,response5disk,,2,2.40001148,-0.800006449,1,0,0,rectangle,2.40001148,-0.800006449,1,0,0,2.40001148,-0.800006449,1,0,0,0,138,138,36,1,,,,,,,,
,,,,,,,,,,,,,FF,,,,,,,,2.1732,,,,,,,,,,,,,,,,,,,,,,610059b905e6d251e2cab6bc,610378cd8bda62035a5c07f4,2021-07-29_23h06.45.152,Simcolourproject_2stim_asymm_v5,2020.2.10,Win32,60,61025ae37ef11b136ea224fe,,,,,,,,,623,-53.59998935,-78.40000761,1,0,0,response5disk,,3,9.600060415,6.399993658,1,0,0,rectangle,9.600060415,6.399993658,1,0,0,9.600060415,6.399993658,1,0,0,0,139,139,29,1,,,,,,,,
,,,,,,,,,,,,,FF,,,,,,,,1.4402,,,,,,,,,,,,,,,,,,,,,,610059b905e6d251e2cab6bc,610378cd8bda62035a5c07f4,2021-07-29_23h06.45.152,Simcolourproject_2stim_asymm_v5,2020.2.10,Win32,60,61025ae37ef11b136ea224fe,,,,,,,,,1848,91.2000128,-48.00000715,1,0,0,response3disk,,5,15.20001167,-6.400006533,1,0,0,rectangle,15.20001167,-6.400006533,1,0,0,15.20001167,-6.400006533,1,0,0,0,140,140,157,1,,,,,,,,
,,,,,,,,,,,,,FF,,,,,,,,1.7657,,,,,,,,,,,,,,,,,,,,,,610059b905e6d251e2cab6bc,610378cd8bda62035a5c07f4,2021-07-29_23h06.45.152,Simcolourproject_2stim_asymm_v5,2020.2.10,Win32,60,61025ae37ef11b136ea224fe,,,,,,,,,2878,-87.99998987,-53.60000724,1,0,0,response5disk,,2,-5.599988639,-4.000006497,1,0,0,rectangle,-5.599988639,-4.000006497,1,0,0,-5.599988639,-4.000006497,1,0,0,0,141,141,143,1,,,,,,,,
,,,,,,,,,,,,,FF,,,,,,,,2.7489,,,,,,,,,,,,,,,,,,,,,,610059b905e6d251e2cab6bc,610378cd8bda62035a5c07f4,2021-07-29_23h06.45.152,Simcolourproject_2stim_asymm_v5,2020.2.10,Win32,60,61025ae37ef11b136ea224fe,,,,,,,,,3251,-118.3999415,38.39999413,1,0,0,response7disk,,1,28.00001186,1.599993587,1,0,0,rectangle,28.00001186,1.599993587,1,0,0,28.00001186,1.599993587,1,0,0,0,142,142,55,1,,,,,,,,
,,,,,,,,,,,,,FF,,,,,,,,1.2162,,,,,,,,,,,,,,,,,,,,,,610059b905e6d251e2cab6bc,610378cd8bda62035a5c07f4,2021-07-29_23h06.45.152,Simcolourproject_2stim_asymm_v5,2020.2.10,Win32,60,61025ae37ef11b136ea224fe,,,,,,,,,2750,-37.59998912,-96.80000788,1,0,0,response5disk,,3,20.80001175,0.799993575,1,0,0,rectangle,20.80001175,0.799993575,1,0,0,20.80001175,0.799993575,1,0,0,0,143,143,38,1,,,,,,,,
,,,,,,,,,,,,,FF,,,,,,,,1.6672,,,,,,,,,,,,,,,,,,,,,,610059b905e6d251e2cab6bc,610378cd8bda62035a5c07f4,2021-07-29_23h06.45.152,Simcolourproject_2stim_asymm_v5,2020.2.10,Win32,60,61025ae37ef11b136ea224fe,,,,,,,,,3828,107.200013,-47.20000714,1,0,0,response3disk,,5,-1.59998858,4.799993634,1,0,0,rectangle,-1.59998858,4.799993634,1,0,0,-1.59998858,4.799993634,1,0,0,0,144,144,18,1,,,,,,,,
,,,,,,,,,,,,,FF,,,,,,,,1.2997,,,,,,,,,,,,,,,,,,,,,,610059b905e6d251e2cab6bc,610378cd8bda62035a5c07f4,2021-07-29_23h06.45.152,Simcolourproject_2stim_asymm_v5,2020.2.10,Win32,60,61025ae37ef11b136ea224fe,,,,,,,,,2205,96.00001287,35.9999941,1,0,0,response1disk,,6,4.000011504,1.599993587,1,0,0,rectangle,4.000011504,1.599993587,1,0,0,4.000011504,1.599993587,1,0,0,0,145,145,46,1,,,,,,,,
,,,,,,,,,,,,,FF,,,,,,,,1.1338,,,,,,,,,,,,,,,,,,,,,,610059b905e6d251e2cab6bc,610378cd8bda62035a5c07f4,2021-07-29_23h06.45.152,Simcolourproject_2stim_asymm_v5,2020.2.10,Win32,60,61025ae37ef11b136ea224fe,,,,,,,,,3528,53.60001224,-80.80000764,1,0,0,response3disk,,4,6.400011539,-5.600006521,1,0,0,rectangle,6.400011539,-5.600006521,1,0,0,6.400011539,-5.600006521,1,0,0,0,146,146,79,1,,,,,,,,
,,,,,,,,,,,,,FF,,,,,,,,1.0999,,,,,,,,,,,,,,,,,,,,,,610059b905e6d251e2cab6bc,610378cd8bda62035a5c07f4,2021-07-29_23h06.45.152,Simcolourproject_2stim_asymm_v5,2020.2.10,Win32,60,61025ae37ef11b136ea224fe,,,,,,,,,639,-107.9999902,-44.00000709,1,0,0,response5disk,,2,-4.799988627,-4.000006497,1,0,0,rectangle,-4.799988627,-4.000006497,1,0,0,-4.799988627,-4.000006497,1,0,0,0,147,147,41,1,,,,,,,,
,,,,,,,,,,,,,FF,,,,,,,,1.3327,,,,,,,,,,,,,,,,,,,,,,610059b905e6d251e2cab6bc,610378cd8bda62035a5c07f4,2021-07-29_23h06.45.152,Simcolourproject_2stim_asymm_v5,2020.2.10,Win32,60,61025ae37ef11b136ea224fe,,,,,,,,,562,55.20001227,-111.2000081,1,0,0,response3disk,,4,-32.79998904,-2.400006473,1,0,0,rectangle,-32.79998904,-2.400006473,1,0,0,-32.79998904,-2.400006473,1,0,0,0,148,148,27,1,,,,,,,,
,,,,,,,,,,,,,FF,,,,,,,,1.6834,,,,,,,,,,,,,,,,,,,,,,610059b905e6d251e2cab6bc,610378cd8bda62035a5c07f4,2021-07-29_23h06.45.152,Simcolourproject_2stim_asymm_v5,2020.2.10,Win32,60,61025ae37ef11b136ea224fe,,,,,,,,,3210,125.6000133,-30.40000689,1,0,0,response3disk,,5,-4.799988627,-3.200006485,1,0,0,rectangle,-4.799988627,-3.200006485,1,0,0,-4.799988627,-3.200006485,1,0,0,0,149,149,21,1,,,,,,,,
,,,,,,,,,,,,,FF,,,,,,,,1.4335,,,,,,,,,,,,,,,,,,,,,,610059b905e6d251e2cab6bc,610378cd8bda62035a5c07f4,2021-07-29_23h06.45.152,Simcolourproject_2stim_asymm_v5,2020.2.10,Win32,60,61025ae37ef11b136ea224fe,,,,,,,,,2139,47.20001215,-101.6000568,1,0,0,response3disk,,4,-15.19998878,-8.000006557,1,0,0,rectangle,-15.19998878,-8.000006557,1,0,0,-15.19998878,-8.000006557,1,0,0,0,150,150,124,1,,,,,,,,
,,,,,,,,,,,,,FF,,,,,,,,1.2304,,,,,,,,,,,,,,,,,,,,,,610059b905e6d251e2cab6bc,610378cd8bda62035a5c07f4,2021-07-29_23h06.45.152,Simcolourproject_2stim_asymm_v5,2020.2.10,Win32,60,61025ae37ef11b136ea224fe,,,,,,,,,2020,108.8000131,41.59999418,1,0,0,response1disk,,6,1.600060296,-8.800006568,1,0,0,rectangle,1.600060296,-8.800006568,1,0,0,1.600060296,-8.800006568,1,0,0,0,151,151,100,1,,,,,,,,
,,,,,,,,,,,,,FF,,,,,,,,1.4827,,,,,,,,,,,,,,,,,,,,,,610059b905e6d251e2cab6bc,610378cd8bda62035a5c07f4,2021-07-29_23h06.45.152,Simcolourproject_2stim_asymm_v5,2020.2.10,Win32,60,61025ae37ef11b136ea224fe,,,,,,,,,256,92.80001283,32.79999405,1,0,0,response1disk,,6,-15.19998878,11.19999373,1,0,0,rectangle,-15.19998878,11.19999373,1,0,0,-15.19998878,11.19999373,1,0,0,0,152,152,84,1,,,,,,,,
,,,,,,,,,,,,,FF,,,,,,,,2.329,,,,,,,,,,,,,,,,,,,,,,610059b905e6d251e2cab6bc,610378cd8bda62035a5c07f4,2021-07-29_23h06.45.152,Simcolourproject_2stim_asymm_v5,2020.2.10,Win32,60,61025ae37ef11b136ea224fe,,,,,,,,,1850,111.2000131,42.39999419,1,0,0,response1disk,,6,-15.19998878,7.19999367,1,0,0,rectangle,-15.19998878,7.19999367,1,0,0,-15.19998878,7.19999367,1,0,0,0,153,153,58,1,,,,,,,,
,,,,,,,,,,,,,FF,,,,,,,,1.5075,,,,,,,,,,,,,,,,,,,,,,610059b905e6d251e2cab6bc,610378cd8bda62035a5c07f4,2021-07-29_23h06.45.152,Simcolourproject_2stim_asymm_v5,2020.2.10,Win32,60,61025ae37ef11b136ea224fe,,,,,,,,,2823,79.20001262,-54.40000725,1,0,0,response3disk,,5,-3.199988604,11.99999374,1,0,0,rectangle,-3.199988604,11.99999374,1,0,0,-3.199988604,11.99999374,1,0,0,0,154,154,4,1,,,,,,,,
,,,,,,,,,,,,,FF,,,,,,,,1.2888,,,,,,,,,,,,,,,,,,,,,,610059b905e6d251e2cab6bc,610378cd8bda62035a5c07f4,2021-07-29_23h06.45.152,Simcolourproject_2stim_asymm_v5,2020.2.10,Win32,60,61025ae37ef11b136ea224fe,,,,,,,,,1064,48.00001216,-107.200008,1,0,0,response3disk,,4,-8.799988687,14.39999378,1,0,0,rectangle,-8.799988687,14.39999378,1,0,0,-8.799988687,14.39999378,1,0,0,0,155,155,16,1,,,,,,,,
,,,,,,,,,,,,,FF,,,,,,,,1.367,,,,,,,,,,,,,,,,,,,,,,610059b905e6d251e2cab6bc,610378cd8bda62035a5c07f4,2021-07-29_23h06.45.152,Simcolourproject_2stim_asymm_v5,2020.2.10,Win32,60,61025ae37ef11b136ea224fe,,,,,,,,,2051,99.20001292,-20.00000674,1,0,0,response3disk,,5,2.40001148,-13.60000664,1,0,0,rectangle,2.40001148,-13.60000664,1,0,0,2.40001148,-13.60000664,1,0,0,0,156,156,76,1,,,,,,,,
,,,,,,,,,,,,,FF,,,,,,,,1.5828,,,,,,,,,,,,,,,,,,,,,,610059b905e6d251e2cab6bc,610378cd8bda62035a5c07f4,2021-07-29_23h06.45.152,Simcolourproject_2stim_asymm_v5,2020.2.10,Win32,60,61025ae37ef11b136ea224fe,,,,,,,,,2703,101.600013,64.79999453,1,0,0,response1disk,,6,6.400011539,10.39999372,1,0,0,rectangle,6.400011539,10.39999372,1,0,0,6.400011539,10.39999372,1,0,0,0,157,157,154,1,,,,,,,,
,,,,,,,,,,,,,FF,,,,,,,,2.6498,,,,,,,,,,,,,,,,,,,,,,610059b905e6d251e2cab6bc,610378cd8bda62035a5c07f4,2021-07-29_23h06.45.152,Simcolourproject_2stim_asymm_v5,2020.2.10,Win32,60,61025ae37ef11b136ea224fe,,,,,,,,,2416,37.60006083,-98.4000079,1,0,0,response3disk,,4,-2.399939764,14.39999378,1,0,0,rectangle,-69.59998959,54.39999437,1,0,0,2.40001148,10.39999372,1,0,0,0,158,158,121,1,,response7disk_3,TRUE,1,1,"[118,109,163,316,291,42,121,0,107,217,159,322,72,280,277,226,294,320,44,242]",1.4188,rectangle
,,,,,,,,,,,,,FF,,,,,,,,1.6549,,,,,,,,,,,,,,,,,,,,,,610059b905e6d251e2cab6bc,610378cd8bda62035a5c07f4,2021-07-29_23h06.45.152,Simcolourproject_2stim_asymm_v5,2020.2.10,Win32,60,61025ae37ef11b136ea224fe,,,,,,,,,2691,92.80001283,49.5999943,1,0,0,response1disk,,6,-8.799988687,-6.400006533,1,0,0,rectangle,-8.799988687,-6.400006533,1,0,0,-8.799988687,-6.400006533,1,0,0,0,159,159,56,1,,,,,,,,
,,,,,,,,,,,,,FF,,,,,,,,1.4662,,,,,,,,,,,,,,,,,,,,,,610059b905e6d251e2cab6bc,610378cd8bda62035a5c07f4,2021-07-29_23h06.45.152,Simcolourproject_2stim_asymm_v5,2020.2.10,Win32,60,61025ae37ef11b136ea224fe,,,,,,,,,3773,89.60001278,-45.60000712,1,0,0,response3disk,,5,-13.59998876,7.999993682,1,0,0,rectangle,-13.59998876,7.999993682,1,0,0,-13.59998876,7.999993682,1,0,0,1,0,160,44,1,,,,,,,,
,,,,,,,,,,,,,FF,,,,,,,,1.9156,,,,,,,,,,,,,,,,,,,,,,610059b905e6d251e2cab6bc,610378cd8bda62035a5c07f4,2021-07-29_23h06.45.152,Simcolourproject_2stim_asymm_v5,2020.2.10,Win32,60,61025ae37ef11b136ea224fe,,,,,,,,,398,36.00001198,86.39999485,1,0,0,response1disk,,7,4.000011504,-10.40000659,1,0,0,rectangle,4.000011504,-10.40000659,1,0,0,4.000011504,-10.40000659,1,0,0,1,1,161,142,1,,,,,,,,
,,,,,,,,,,,,,FF,,,,,,,,1.0527,,,,,,,,,,,,,,,,,,,,,,610059b905e6d251e2cab6bc,610378cd8bda62035a5c07f4,2021-07-29_23h06.45.152,Simcolourproject_2stim_asymm_v5,2020.2.10,Win32,60,61025ae37ef11b136ea224fe,,,,,,,,,2581,112.0000131,42.39999419,1,0,0,response1disk,,6,-2.399939764,6.399993658,1,0,0,rectangle,-55.19998938,99.19997063,1,0,0,1.14441E-05,-7.200006545,1,0,0,1,2,162,128,1,,response7disk_3,TRUE,0,0,"[118,109,163,316,291,42,121,0,107,217,159,322,72,280,277,226,294,320,44,242]",1.4293,rectangle
,,,,,,,,,,,,,FF,,,,,,,,2.3671,,,,,,,,,,,,,,,,,,,,,,610059b905e6d251e2cab6bc,610378cd8bda62035a5c07f4,2021-07-29_23h06.45.152,Simcolourproject_2stim_asymm_v5,2020.2.10,Win32,60,61025ae37ef11b136ea224fe,,,,,,,,,4033,100.0000129,43.99999422,1,0,0,response1disk,,6,12.00001162,-3.200006485,1,0,0,rectangle,12.00001162,-3.200006485,1,0,0,12.00001162,-3.200006485,1,0,0,1,3,163,6,1,,,,,,,,
,,,,,,,,,,,,,FF,,,,,,,,1.8337,,,,,,,,,,,,,,,,,,,,,,610059b905e6d251e2cab6bc,610378cd8bda62035a5c07f4,2021-07-29_23h06.45.152,Simcolourproject_2stim_asymm_v5,2020.2.10,Win32,60,61025ae37ef11b136ea224fe,,,,,,,,,1573,104.000013,-38.40000701,1,0,0,response3disk,,5,22.40001178,-4.800006509,1,0,0,rectangle,22.40001178,-4.800006509,1,0,0,22.40001178,-4.800006509,1,0,0,1,4,164,121,1,,,,,,,,
,,,,,,,,,,,,,FF,,,,,,,,0.9181,,,,,,,,,,,,,,,,,,,,,,610059b905e6d251e2cab6bc,610378cd8bda62035a5c07f4,2021-07-29_23h06.45.152,Simcolourproject_2stim_asymm_v5,2020.2.10,Win32,60,61025ae37ef11b136ea224fe,,,,,,,,,3892,72.80001253,29.599994,1,0,0,response1disk,,6,16.80001169,13.59999377,1,0,0,rectangle,16.80001169,13.59999377,1,0,0,16.80001169,13.59999377,1,0,0,1,5,165,110,1,,,,,,,,
,,,,,,,,,,,,,FF,,,,,,,,1.7007,,,,,,,,,,,,,,,,,,,,,,610059b905e6d251e2cab6bc,610378cd8bda62035a5c07f4,2021-07-29_23h06.45.152,Simcolourproject_2stim_asymm_v5,2020.2.10,Win32,60,61025ae37ef11b136ea224fe,,,,,,,,,745,31.20001191,-116.8000082,1,0,0,response3disk,,4,3.200011492,-9.60000658,1,0,0,rectangle,3.200011492,-9.60000658,1,0,0,3.200011492,-9.60000658,1,0,0,1,6,166,5,1,,,,,,,,
,,,,,,,,,,,,,FF,,,,,,,,1.2672,,,,,,,,,,,,,,,,,,,,,,610059b905e6d251e2cab6bc,610378cd8bda62035a5c07f4,2021-07-29_23h06.45.152,Simcolourproject_2stim_asymm_v5,2020.2.10,Win32,60,61025ae37ef11b136ea224fe,,,,,,,,,413,98.40001291,43.19996979,1,0,0,response1disk,,6,-18.39994,-12.80000663,1,0,0,rectangle,-18.39994,-12.80000663,1,0,0,-18.39994,-12.80000663,1,0,0,1,7,167,117,1,,,,,,,,
,,,,,,,,,,,,,FF,,,,,,,,0.9345,,,,,,,,,,,,,,,,,,,,,,610059b905e6d251e2cab6bc,610378cd8bda62035a5c07f4,2021-07-29_23h06.45.152,Simcolourproject_2stim_asymm_v5,2020.2.10,Win32,60,61025ae37ef11b136ea224fe,,,,,,,,,2357,-47.19998926,-84.8000077,1,0,0,response5disk,,3,-7.999988675,-4.800006509,1,0,0,rectangle,-7.999988675,-4.800006509,1,0,0,-7.999988675,-4.800006509,1,0,0,1,8,168,78,1,,,,,,,,
,,,,,,,,,,,,,FF,,,,,,,,0.8837,,,,,,,,,,,,,,,,,,,,,,610059b905e6d251e2cab6bc,610378cd8bda62035a5c07f4,2021-07-29_23h06.45.152,Simcolourproject_2stim_asymm_v5,2020.2.10,Win32,60,61025ae37ef11b136ea224fe,,,,,,,,,734,-103.1999901,-46.40000713,1,0,0,response5disk,,2,-19.99998885,-6.4373E-06,1,0,0,rectangle,-19.99998885,-6.4373E-06,1,0,0,-19.99998885,-6.4373E-06,1,0,0,1,9,169,84,1,,,,,,,,
,,,,,,,,,,,,,FF,,,,,,,,1.0341,,,,,,,,,,,,,,,,,,,,,,610059b905e6d251e2cab6bc,610378cd8bda62035a5c07f4,2021-07-29_23h06.45.152,Simcolourproject_2stim_asymm_v5,2020.2.10,Win32,60,61025ae37ef11b136ea224fe,,,,,,,,,1727,77.6000126,63.19997009,1,0,0,response1disk,,6,-12.79998875,-13.60000664,1,0,0,rectangle,-12.79998875,-13.60000664,1,0,0,-12.79998875,-13.60000664,1,0,0,1,10,170,139,1,,,,,,,,
,,,,,,,,,,,,,FF,,,,,,,,0.9672,,,,,,,,,,,,,,,,,,,,,,610059b905e6d251e2cab6bc,610378cd8bda62035a5c07f4,2021-07-29_23h06.45.152,Simcolourproject_2stim_asymm_v5,2020.2.10,Win32,60,61025ae37ef11b136ea224fe,,,,,,,,,1210,59.20001233,89.5999949,1,0,0,response1disk,,7,-3.999988616,3.999993622,1,0,0,rectangle,-3.999988616,3.999993622,1,0,0,-3.999988616,3.999993622,1,0,0,1,11,171,23,1,,,,,,,,
,,,,,,,,,,,,,FF,,,,,,,,1.8524,,,,,,,,,,,,,,,,,,,,,,610059b905e6d251e2cab6bc,610378cd8bda62035a5c07f4,2021-07-29_23h06.45.152,Simcolourproject_2stim_asymm_v5,2020.2.10,Win32,60,61025ae37ef11b136ea224fe,,,,,,,,,3772,85.60001272,-85.60005654,1,0,0,response3disk,,4,-3.199988604,12.79999375,1,0,0,rectangle,-3.199988604,12.79999375,1,0,0,-3.199988604,12.79999375,1,0,0,1,12,172,156,1,,,,,,,,
,,,,,,,,,,,,,FF,,,,,,,,1.8694,,,,,,,,,,,,,,,,,,,,,,610059b905e6d251e2cab6bc,610378cd8bda62035a5c07f4,2021-07-29_23h06.45.152,Simcolourproject_2stim_asymm_v5,2020.2.10,Win32,60,61025ae37ef11b136ea224fe,,,,,,,,,1186,108.0000131,50.39999431,1,0,0,response1disk,,6,15.20001167,-1.600006461,1,0,0,rectangle,15.20001167,-1.600006461,1,0,0,15.20001167,-1.600006461,1,0,0,1,13,173,101,1,,,,,,,,
,,,,,,,,,,,,,FF,,,,,,,,1.4334,,,,,,,,,,,,,,,,,,,,,,610059b905e6d251e2cab6bc,610378cd8bda62035a5c07f4,2021-07-29_23h06.45.152,Simcolourproject_2stim_asymm_v5,2020.2.10,Win32,60,61025ae37ef11b136ea224fe,,,,,,,,,2233,-80.79998976,50.39999431,1,0,0,response7disk,,1,8.000011563,4.799993634,1,0,0,rectangle,8.000011563,4.799993634,1,0,0,8.000011563,4.799993634,1,0,0,1,14,174,81,1,,,,,,,,
,,,,,,,,,,,,,FF,,,,,,,,2.366,,,,,,,,,,,,,,,,,,,,,,610059b905e6d251e2cab6bc,610378cd8bda62035a5c07f4,2021-07-29_23h06.45.152,Simcolourproject_2stim_asymm_v5,2020.2.10,Win32,60,61025ae37ef11b136ea224fe,,,,,,,,,570,43.20001209,-101.6000568,1,0,0,response3disk,,4,-0.799988568,2.399993598,1,0,0,rectangle,-0.799988568,2.399993598,1,0,0,-0.799988568,2.399993598,1,0,0,1,15,175,1,1,,,,,,,,
,,,,,,,,,,,,,FF,,,,,,,,1.0171,,,,,,,,,,,,,,,,,,,,,,610059b905e6d251e2cab6bc,610378cd8bda62035a5c07f4,2021-07-29_23h06.45.152,Simcolourproject_2stim_asymm_v5,2020.2.10,Win32,60,61025ae37ef11b136ea224fe,,,,,,,,,127,99.20001292,-62.40000737,1,0,0,response3disk,,5,-6.399939823,-7.200006545,1,0,0,rectangle,-6.399939823,-7.200006545,1,0,0,-6.399939823,-7.200006545,1,0,0,1,16,176,38,1,,,,,,,,
,,,,,,,,,,,,,FF,,,,,,,,1.0836,,,,,,,,,,,,,,,,,,,,,,610059b905e6d251e2cab6bc,610378cd8bda62035a5c07f4,2021-07-29_23h06.45.152,Simcolourproject_2stim_asymm_v5,2020.2.10,Win32,60,61025ae37ef11b136ea224fe,,,,,,,,,4104,-95.19998997,-40.80000705,1,0,0,response5disk,,2,15.20001167,7.999993682,1,0,0,rectangle,15.20001167,7.999993682,1,0,0,15.20001167,7.999993682,1,0,0,1,17,177,33,1,,,,,,,,
,,,,,,,,,,,,,FF,,,,,,,,1.4172,,,,,,,,,,,,,,,,,,,,,,610059b905e6d251e2cab6bc,610378cd8bda62035a5c07f4,2021-07-29_23h06.45.152,Simcolourproject_2stim_asymm_v5,2020.2.10,Win32,60,61025ae37ef11b136ea224fe,,,,,,,,,2735,76.80001259,-50.40000719,1,0,0,response3disk,,5,-26.39994012,1.599993587,1,0,0,rectangle,-26.39994012,1.599993587,1,0,0,-26.39994012,1.599993587,1,0,0,1,18,178,80,1,,,,,,,,
,,,,,,,,,,,,,FF,,,,,,,,1.0502,,,,,,,,,,,,,,,,,,,,,,610059b905e6d251e2cab6bc,610378cd8bda62035a5c07f4,2021-07-29_23h06.45.152,Simcolourproject_2stim_asymm_v5,2020.2.10,Win32,60,61025ae37ef11b136ea224fe,,,,,,,,,2667,-103.1999901,-36.80000699,1,0,0,response5disk,,2,-7.999988675,1.599993587,1,0,0,rectangle,-7.999988675,1.599993587,1,0,0,-7.999988675,1.599993587,1,0,0,1,19,179,100,1,,,,,,,,
,,,,,,,,,,,,,FF,,,,,,,,2.1151,,,,,,,,,,,,,,,,,,,,,,610059b905e6d251e2cab6bc,610378cd8bda62035a5c07f4,2021-07-29_23h06.45.152,Simcolourproject_2stim_asymm_v5,2020.2.10,Win32,60,61025ae37ef11b136ea224fe,,,,,,,,,142,91.2000128,-51.2000072,1,0,0,response3disk,,5,0.800011456,-4.800006509,1,0,0,rectangle,0.800011456,-4.800006509,1,0,0,0.800011456,-4.800006509,1,0,0,1,20,180,50,1,,,,,,,,
,,,,,,,,,,,,,FF,,,,,,,,1.0657,,,,,,,,,,,,,,,,,,,,,,610059b905e6d251e2cab6bc,610378cd8bda62035a5c07f4,2021-07-29_23h06.45.152,Simcolourproject_2stim_asymm_v5,2020.2.10,Win32,60,61025ae37ef11b136ea224fe,,,,,,,,,4347,-86.39994102,50.39999431,1,0,0,response7disk,,1,5.600060356,-4.800006509,1,0,0,rectangle,5.600060356,-4.800006509,1,0,0,5.600060356,-4.800006509,1,0,0,1,21,181,141,1,,,,,,,,
,,,,,,,,,,,,,FF,,,,,,,,1.5992,,,,,,,,,,,,,,,,,,,,,,610059b905e6d251e2cab6bc,610378cd8bda62035a5c07f4,2021-07-29_23h06.45.152,Simcolourproject_2stim_asymm_v5,2020.2.10,Win32,60,61025ae37ef11b136ea224fe,,,,,,,,,586,112.0000131,30.39999402,1,0,0,response1disk,,6,-11.19998872,-3.200006485,1,0,0,rectangle,-11.19998872,-3.200006485,1,0,0,-11.19998872,-3.200006485,1,0,0,1,22,182,122,1,,,,,,,,
,,,,,,,,,,,,,FF,,,,,,,,2.1339,,,,,,,,,,,,,,,,,,,,,,610059b905e6d251e2cab6bc,610378cd8bda62035a5c07f4,2021-07-29_23h06.45.152,Simcolourproject_2stim_asymm_v5,2020.2.10,Win32,60,61025ae37ef11b136ea224fe,,,,,,,,,3387,92.00001281,36.79999411,1,0,0,response1disk,,6,5.600060356,13.59999377,1,0,0,rectangle,5.600060356,13.59999377,1,0,0,5.600060356,13.59999377,1,0,0,1,23,183,96,1,,,,,,,,
,,,,,,,,,,,,,FF,,,,,,,,1.2326,,,,,,,,,,,,,,,,,,,,,,610059b905e6d251e2cab6bc,610378cd8bda62035a5c07f4,2021-07-29_23h06.45.152,Simcolourproject_2stim_asymm_v5,2020.2.10,Win32,60,61025ae37ef11b136ea224fe,,,,,,,,,1568,104.800013,-39.20000702,1,0,0,response3disk,,5,-1.59998858,0.799993575,1,0,0,rectangle,-1.59998858,0.799993575,1,0,0,-1.59998858,0.799993575,1,0,0,1,24,184,37,1,,,,,,,,
,,,,,,,,,,,,,FF,,,,,,,,1.6498,,,,,,,,,,,,,,,,,,,,,,610059b905e6d251e2cab6bc,610378cd8bda62035a5c07f4,2021-07-29_23h06.45.152,Simcolourproject_2stim_asymm_v5,2020.2.10,Win32,60,61025ae37ef11b136ea224fe,,,,,,,,,1997,37.60006083,88.79999489,1,0,0,response1disk,,7,-4.799988627,-8.000006557,1,0,0,rectangle,-4.799988627,-8.000006557,1,0,0,-4.799988627,-8.000006557,1,0,0,1,25,185,14,1,,,,,,,,
,,,,,,,,,,,,,FF,,,,,,,,1.7007,,,,,,,,,,,,,,,,,,,,,,610059b905e6d251e2cab6bc,610378cd8bda62035a5c07f4,2021-07-29_23h06.45.152,Simcolourproject_2stim_asymm_v5,2020.2.10,Win32,60,61025ae37ef11b136ea224fe,,,,,,,,,2580,94.40001285,-40.00000703,1,0,0,response3disk,,5,12.80001163,-4.000006497,1,0,0,rectangle,12.80001163,-4.000006497,1,0,0,12.80001163,-4.000006497,1,0,0,1,26,186,158,1,,,,,,,,
,,,,,,,,,,,,,FF,,,,,,,,2.1005,,,,,,,,,,,,,,,,,,,,,,610059b905e6d251e2cab6bc,610378cd8bda62035a5c07f4,2021-07-29_23h06.45.152,Simcolourproject_2stim_asymm_v5,2020.2.10,Win32,60,61025ae37ef11b136ea224fe,,,,,,,,,4085,-67.99998957,-38.40000701,1,0,0,response5disk,,2,8.800011575,-6.4373E-06,1,0,0,rectangle,8.800011575,-6.4373E-06,1,0,0,8.800011575,-6.4373E-06,1,0,0,1,27,187,59,1,,,,,,,,
,,,,,,,,,,,,,FF,,,,,,,,1.7607,,,,,,,,,,,,,,,,,,,,,,610059b905e6d251e2cab6bc,610378cd8bda62035a5c07f4,2021-07-29_23h06.45.152,Simcolourproject_2stim_asymm_v5,2020.2.10,Win32,60,61025ae37ef11b136ea224fe,,,,,,,,,711,108.8000131,-47.20000714,1,0,0,response3disk,,5,24.0000118,15.9999938,1,0,0,rectangle,24.0000118,15.9999938,1,0,0,24.0000118,15.9999938,1,0,0,1,28,188,20,1,,,,,,,,
,,,,,,,,,,,,,FF,,,,,,,,1.9666,,,,,,,,,,,,,,,,,,,,,,610059b905e6d251e2cab6bc,610378cd8bda62035a5c07f4,2021-07-29_23h06.45.152,Simcolourproject_2stim_asymm_v5,2020.2.10,Win32,60,61025ae37ef11b136ea224fe,,,,,,,,,3025,120.0000132,49.5999943,1,0,0,response1disk,,6,9.600060415,10.39999372,1,0,0,rectangle,9.600060415,10.39999372,1,0,0,9.600060415,10.39999372,1,0,0,1,29,189,120,1,,,,,,,,
,,,,,,,,,,,,,FF,,,,,,,,1.3508,,,,,,,,,,,,,,,,,,,,,,610059b905e6d251e2cab6bc,610378cd8bda62035a5c07f4,2021-07-29_23h06.45.152,Simcolourproject_2stim_asymm_v5,2020.2.10,Win32,60,61025ae37ef11b136ea224fe,,,,,,,,,3614,86.40001273,34.39999408,1,0,0,response1disk,,6,-23.1999889,-2.400006473,1,0,0,rectangle,-23.1999889,-2.400006473,1,0,0,-23.1999889,-2.400006473,1,0,0,1,30,190,94,1,,,,,,,,
,,,,,,,,,,,,,FF,,,,,,,,1.4567,,,,,,,,,,,,,,,,,,,,,,610059b905e6d251e2cab6bc,610378cd8bda62035a5c07f4,2021-07-29_23h06.45.152,Simcolourproject_2stim_asymm_v5,2020.2.10,Win32,60,61025ae37ef11b136ea224fe,,,,,,,,,730,-55.19998938,-107.200008,1,0,0,response5disk,,3,-7.999988675,-6.4373E-06,1,0,0,rectangle,-7.999988675,-6.4373E-06,1,0,0,-7.999988675,-6.4373E-06,1,0,0,1,31,191,34,1,,,,,,,,
,,,,,,,,,,,,,FF,,,,,,,,1.7335,,,,,,,,,,,,,,,,,,,,,,610059b905e6d251e2cab6bc,610378cd8bda62035a5c07f4,2021-07-29_23h06.45.152,Simcolourproject_2stim_asymm_v5,2020.2.10,Win32,60,61025ae37ef11b136ea224fe,,,,,,,,,1205,-51.19998932,-81.60005648,1,0,0,response5disk,,3,0.800011456,3.999993622,1,0,0,rectangle,0.800011456,3.999993622,1,0,0,0.800011456,3.999993622,1,0,0,1,32,192,53,1,,,,,,,,
,,,,,,,,,,,,,FF,,,,,,,,1.05,,,,,,,,,,,,,,,,,,,,,,610059b905e6d251e2cab6bc,610378cd8bda62035a5c07f4,2021-07-29_23h06.45.152,Simcolourproject_2stim_asymm_v5,2020.2.10,Win32,60,61025ae37ef11b136ea224fe,,,,,,,,,4019,83.20001268,31.99999404,1,0,0,response1disk,,6,12.00001162,15.9999938,1,0,0,rectangle,12.00001162,15.9999938,1,0,0,12.00001162,15.9999938,1,0,0,1,33,193,106,1,,,,,,,,
,,,,,,,,,,,,,FF,,,,,,,,1.7809,,,,,,,,,,,,,,,,,,,,,,610059b905e6d251e2cab6bc,610378cd8bda62035a5c07f4,2021-07-29_23h06.45.152,Simcolourproject_2stim_asymm_v5,2020.2.10,Win32,60,61025ae37ef11b136ea224fe,,,,,,,,,341,-104.7999901,-35.20000696,1,0,0,response5disk,,2,-0.799988568,-4.800006509,1,0,0,rectangle,-0.799988568,-4.800006509,1,0,0,-0.799988568,-4.800006509,1,0,0,1,34,194,29,1,,,,,,,,
,,,,,,,,,,,,,FF,,,,,,,,1.3622,,,,,,,,,,,,,,,,,,,,,,610059b905e6d251e2cab6bc,610378cd8bda62035a5c07f4,2021-07-29_23h06.45.152,Simcolourproject_2stim_asymm_v5,2020.2.10,Win32,60,61025ae37ef11b136ea224fe,,,,,,,,,1830,-46.39994042,-98.4000079,1,0,0,response5disk,,3,-15.99998879,-8.800006568,1,0,0,rectangle,-15.99998879,-8.800006568,1,0,0,-15.99998879,-8.800006568,1,0,0,1,35,195,63,1,,,,,,,,
,,,,,,,,,,,,,FF,,,,,,,,1.7327,,,,,,,,,,,,,,,,,,,,,,610059b905e6d251e2cab6bc,610378cd8bda62035a5c07f4,2021-07-29_23h06.45.152,Simcolourproject_2stim_asymm_v5,2020.2.10,Win32,60,61025ae37ef11b136ea224fe,,,,,,,,,4247,98.40001291,-35.20000696,1,0,0,response3disk,,5,6.400011539,3.999993622,1,0,0,rectangle,6.400011539,3.999993622,1,0,0,6.400011539,3.999993622,1,0,0,1,36,196,25,1,,,,,,,,
,,,,,,,,,,,,,FF,,,,,,,,1.4504,,,,,,,,,,,,,,,,,,,,,,610059b905e6d251e2cab6bc,610378cd8bda62035a5c07f4,2021-07-29_23h06.45.152,Simcolourproject_2stim_asymm_v5,2020.2.10,Win32,60,61025ae37ef11b136ea224fe,,,,,,,,,2300,-72.79998964,-36.00000697,1,0,0,response5disk,,2,-28.79998899,3.999993622,1,0,0,rectangle,-28.79998899,3.999993622,1,0,0,-28.79998899,3.999993622,1,0,0,1,37,197,129,1,,,,,,,,
,,,,,,,,,,,,,FF,,,,,,,,1.2829,,,,,,,,,,,,,,,,,,,,,,610059b905e6d251e2cab6bc,610378cd8bda62035a5c07f4,2021-07-29_23h06.45.152,Simcolourproject_2stim_asymm_v5,2020.2.10,Win32,60,61025ae37ef11b136ea224fe,,,,,,,,,555,78.40001261,-37.600007,1,0,0,response3disk,,5,3.200011492,7.19999367,1,0,0,rectangle,3.200011492,7.19999367,1,0,0,3.200011492,7.19999367,1,0,0,1,38,198,116,1,,,,,,,,
,,,,,,,,,,,,,FF,,,,,,,,1.2844,,,,,,,,,,,,,,,,,,,,,,610059b905e6d251e2cab6bc,610378cd8bda62035a5c07f4,2021-07-29_23h06.45.152,Simcolourproject_2stim_asymm_v5,2020.2.10,Win32,60,61025ae37ef11b136ea224fe,,,,,,,,,3495,103.200013,41.59999418,1,0,0,response1disk,,6,-9.599988699,-10.40000659,1,0,0,rectangle,-9.599988699,-10.40000659,1,0,0,-9.599988699,-10.40000659,1,0,0,1,39,199,151,1,,,,,,,,
,,,,,,,,,,,,,FF,,,,,,,,1.0318,,,,,,,,,,,,,,,,,,,,,,610059b905e6d251e2cab6bc,610378cd8bda62035a5c07f4,2021-07-29_23h06.45.152,Simcolourproject_2stim_asymm_v5,2020.2.10,Win32,60,61025ae37ef11b136ea224fe,,,,,,,,,1223,-59.99998945,-91.2000078,1,0,0,response5disk,,3,-9.599988699,-8.000006557,1,0,0,rectangle,-9.599988699,-8.000006557,1,0,0,-9.599988699,-8.000006557,1,0,0,1,40,200,41,1,,,,,,,,
,,,,,,,,,,,,,FF,,,,,,,,2.0947,,,,,,,,,,,,,,,,,,,,,,610059b905e6d251e2cab6bc,610378cd8bda62035a5c07f4,2021-07-29_23h06.45.152,Simcolourproject_2stim_asymm_v5,2020.2.10,Win32,60,61025ae37ef11b136ea224fe,,,,,,,,,3643,82.40001267,-54.40000725,1,0,0,response3disk,,5,20.80001175,1.599993587,1,0,0,rectangle,20.80001175,1.599993587,1,0,0,20.80001175,1.599993587,1,0,0,1,41,201,127,1,,,,,,,,
,,,,,,,,,,,,,FF,,,,,,,,1.0011,,,,,,,,,,,,,,,,,,,,,,610059b905e6d251e2cab6bc,610378cd8bda62035a5c07f4,2021-07-29_23h06.45.152,Simcolourproject_2stim_asymm_v5,2020.2.10,Win32,60,61025ae37ef11b136ea224fe,,,,,,,,,317,101.600013,31.19996961,1,0,0,response1disk,,6,22.40001178,7.999993682,1,0,0,rectangle,22.40001178,7.999993682,1,0,0,22.40001178,7.999993682,1,0,0,1,42,202,88,1,,,,,,,,
,,,,,,,,,,,,,FF,,,,,,,,0.917,,,,,,,,,,,,,,,,,,,,,,610059b905e6d251e2cab6bc,610378cd8bda62035a5c07f4,2021-07-29_23h06.45.152,Simcolourproject_2stim_asymm_v5,2020.2.10,Win32,60,61025ae37ef11b136ea224fe,,,,,,,,,269,119.2000132,63.19997009,1,0,0,response1disk,,6,16.80001169,3.999993622,1,0,0,rectangle,16.80001169,3.999993622,1,0,0,16.80001169,3.999993622,1,0,0,1,43,203,124,1,,,,,,,,
,,,,,,,,,,,,,FF,,,,,,,,1.8668,,,,,,,,,,,,,,,,,,,,,,610059b905e6d251e2cab6bc,610378cd8bda62035a5c07f4,2021-07-29_23h06.45.152,Simcolourproject_2stim_asymm_v5,2020.2.10,Win32,60,61025ae37ef11b136ea224fe,,,,,,,,,1167,78.40001261,-40.80000705,1,0,0,response3disk,,5,-10.39993988,16.79999381,1,0,0,rectangle,-10.39993988,16.79999381,1,0,0,-10.39993988,16.79999381,1,0,0,1,44,204,113,1,,,,,,,,
,,,,,,,,,,,,,FF,,,,,,,,1.8665,,,,,,,,,,,,,,,,,,,,,,610059b905e6d251e2cab6bc,610378cd8bda62035a5c07f4,2021-07-29_23h06.45.152,Simcolourproject_2stim_asymm_v5,2020.2.10,Win32,60,61025ae37ef11b136ea224fe,,,,,,,,,1688,68.00001246,-98.4000079,1,0,0,response3disk,,4,-3.999988616,-6.4373E-06,1,0,0,rectangle,-3.999988616,-6.4373E-06,1,0,0,-3.999988616,-6.4373E-06,1,0,0,1,45,205,60,1,,,,,,,,
,,,,,,,,,,,,,FF,,,,,,,,1.1662,,,,,,,,,,,,,,,,,,,,,,610059b905e6d251e2cab6bc,610378cd8bda62035a5c07f4,2021-07-29_23h06.45.152,Simcolourproject_2stim_asymm_v5,2020.2.10,Win32,60,61025ae37ef11b136ea224fe,,,,,,,,,845,104.800013,23.99999392,1,0,0,response1disk,,6,28.00001186,4.799993634,1,0,0,rectangle,28.00001186,4.799993634,1,0,0,28.00001186,4.799993634,1,0,0,1,46,206,134,1,,,,,,,,
,,,,,,,,,,,,,FF,,,,,,,,1.2016,,,,,,,,,,,,,,,,,,,,,,610059b905e6d251e2cab6bc,610378cd8bda62035a5c07f4,2021-07-29_23h06.45.152,Simcolourproject_2stim_asymm_v5,2020.2.10,Win32,60,61025ae37ef11b136ea224fe,,,,,,,,,1006,99.20001292,-27.20000684,1,0,0,response3disk,,5,3.200011492,3.19999361,1,0,0,rectangle,3.200011492,3.19999361,1,0,0,3.200011492,3.19999361,1,0,0,1,47,207,72,1,,,,,,,,
,,,,,,,,,,,,,FF,,,,,,,,3.5658,,,,,,,,,,,,,,,,,,,,,,610059b905e6d251e2cab6bc,610378cd8bda62035a5c07f4,2021-07-29_23h06.45.152,Simcolourproject_2stim_asymm_v5,2020.2.10,Win32,60,61025ae37ef11b136ea224fe,,,,,,,,,510,84.80001271,-40.80000705,1,0,0,response3disk,,5,7.200011551,3.999993622,1,0,0,rectangle,7.200011551,3.999993622,1,0,0,7.200011551,3.999993622,1,0,0,1,48,208,35,1,,,,,,,,
,,,,,,,,,,,,,FF,,,,,,,,1.283,,,,,,,,,,,,,,,,,,,,,,610059b905e6d251e2cab6bc,610378cd8bda62035a5c07f4,2021-07-29_23h06.45.152,Simcolourproject_2stim_asymm_v5,2020.2.10,Win32,60,61025ae37ef11b136ea224fe,,,,,,,,,1770,108.8000131,31.99999404,1,0,0,response1disk,,6,-0.799988568,-6.4373E-06,1,0,0,rectangle,-0.799988568,-6.4373E-06,1,0,0,-0.799988568,-6.4373E-06,1,0,0,1,49,209,2,1,,,,,,,,
,,,,,,,,,,,,,FF,,,,,,,,1.1995,,,,,,,,,,,,,,,,,,,,,,610059b905e6d251e2cab6bc,610378cd8bda62035a5c07f4,2021-07-29_23h06.45.152,Simcolourproject_2stim_asymm_v5,2020.2.10,Win32,60,61025ae37ef11b136ea224fe,,,,,,,,,4151,44.0000121,-62.40000737,1,0,0,response3disk,,4,19.20001173,-13.60000664,1,0,0,rectangle,19.20001173,-13.60000664,1,0,0,19.20001173,-13.60000664,1,0,0,1,50,210,140,1,,,,,,,,
,,,,,,,,,,,,,FF,,,,,,,,0.8658,,,,,,,,,,,,,,,,,,,,,,610059b905e6d251e2cab6bc,610378cd8bda62035a5c07f4,2021-07-29_23h06.45.152,Simcolourproject_2stim_asymm_v5,2020.2.10,Win32,60,61025ae37ef11b136ea224fe,,,,,,,,,1555,80.80001265,-40.80000705,1,0,0,response3disk,,5,5.600060356,-12.00000662,1,0,0,rectangle,5.600060356,-12.00000662,1,0,0,5.600060356,-12.00000662,1,0,0,1,51,211,42,1,,,,,,,,
,,,,,,,,,,,,,FF,,,,,,,,1.1494,,,,,,,,,,,,,,,,,,,,,,610059b905e6d251e2cab6bc,610378cd8bda62035a5c07f4,2021-07-29_23h06.45.152,Simcolourproject_2stim_asymm_v5,2020.2.10,Win32,60,61025ae37ef11b136ea224fe,,,,,,,,,3162,80.80001265,-59.20000732,1,0,0,response3disk,,5,-4.799988627,11.19999373,1,0,0,rectangle,-4.799988627,11.19999373,1,0,0,-4.799988627,11.19999373,1,0,0,1,52,212,133,1,,,,,,,,
,,,,,,,,,,,,,FF,,,,,,,,1.0995,,,,,,,,,,,,,,,,,,,,,,610059b905e6d251e2cab6bc,610378cd8bda62035a5c07f4,2021-07-29_23h06.45.152,Simcolourproject_2stim_asymm_v5,2020.2.10,Win32,60,61025ae37ef11b136ea224fe,,,,,,,,,4048,104.000013,45.59999424,1,0,0,response1disk,,6,-23.99998891,-12.00000662,1,0,0,rectangle,-23.99998891,-12.00000662,1,0,0,-23.99998891,-12.00000662,1,0,0,1,53,213,132,1,,,,,,,,
,,,,,,,,,,,,,FF,,,,,,,,1.3117,,,,,,,,,,,,,,,,,,,,,,610059b905e6d251e2cab6bc,610378cd8bda62035a5c07f4,2021-07-29_23h06.45.152,Simcolourproject_2stim_asymm_v5,2020.2.10,Win32,60,61025ae37ef11b136ea224fe,,,,,,,,,1403,93.60001284,25.59999394,1,0,0,response1disk,,6,13.60006047,-3.200006485,1,0,0,rectangle,13.60006047,-3.200006485,1,0,0,13.60006047,-3.200006485,1,0,0,1,54,214,157,1,,,,,,,,
,,,,,,,,,,,,,FF,,,,,,,,0.9526,,,,,,,,,,,,,,,,,,,,,,610059b905e6d251e2cab6bc,610378cd8bda62035a5c07f4,2021-07-29_23h06.45.152,Simcolourproject_2stim_asymm_v5,2020.2.10,Win32,60,61025ae37ef11b136ea224fe,,,,,,,,,1299,-109.5999902,-60.80000734,1,0,0,response5disk,,2,13.60006047,8.799993694,1,0,0,rectangle,13.60006047,8.799993694,1,0,0,13.60006047,8.799993694,1,0,0,1,55,215,18,1,,,,,,,,
,,,,,,,,,,,,,FF,,,,,,,,1.7626,,,,,,,,,,,,,,,,,,,,,,610059b905e6d251e2cab6bc,610378cd8bda62035a5c07f4,2021-07-29_23h06.45.152,Simcolourproject_2stim_asymm_v5,2020.2.10,Win32,60,61025ae37ef11b136ea224fe,,,,,,,,,2757,112.0000131,43.99999422,1,0,0,response1disk,,6,5.600060356,-5.600006521,1,0,0,rectangle,83.20001268,110.3999952,1,0,0,20.00001174,5.599993646,1,0,0,1,56,216,115,1,,response1disk_3,TRUE,7,7,"[118,109,163,316,291,42,121,0,107,217,159,322,72,280,277,226,294,320,44,242]",2.203,rectangle
,,,,,,,,,,,,,FF,,,,,,,,1.5655,,,,,,,,,,,,,,,,,,,,,,610059b905e6d251e2cab6bc,610378cd8bda62035a5c07f4,2021-07-29_23h06.45.152,Simcolourproject_2stim_asymm_v5,2020.2.10,Win32,60,61025ae37ef11b136ea224fe,,,,,,,,,678,96.80001289,34.39999408,1,0,0,response1disk,,6,-7.199988663,2.399993598,1,0,0,rectangle,-7.199988663,2.399993598,1,0,0,-7.199988663,2.399993598,1,0,0,1,57,217,52,1,,,,,,,,
,,,,,,,,,,,,,FF,,,,,,,,1.9349,,,,,,,,,,,,,,,,,,,,,,610059b905e6d251e2cab6bc,610378cd8bda62035a5c07f4,2021-07-29_23h06.45.152,Simcolourproject_2stim_asymm_v5,2020.2.10,Win32,60,61025ae37ef11b136ea224fe,,,,,,,,,1072,-96.79999,-33.60000694,1,0,0,response5disk,,2,24.80001181,12.79999375,1,0,0,rectangle,24.80001181,12.79999375,1,0,0,24.80001181,12.79999375,1,0,0,1,58,218,76,1,,,,,,,,
,,,,,,,,,,,,,FF,,,,,,,,1.6157,,,,,,,,,,,,,,,,,,,,,,610059b905e6d251e2cab6bc,610378cd8bda62035a5c07f4,2021-07-29_23h06.45.152,Simcolourproject_2stim_asymm_v5,2020.2.10,Win32,60,61025ae37ef11b136ea224fe,,,,,,,,,3057,53.60001224,-113.600057,1,0,0,response3disk,,4,-31.99998903,15.9999938,1,0,0,rectangle,-31.99998903,15.9999938,1,0,0,-31.99998903,15.9999938,1,0,0,1,59,219,103,1,,,,,,,,
,,,,,,,,,,,,,FF,,,,,,,,1.8836,,,,,,,,,,,,,,,,,,,,,,610059b905e6d251e2cab6bc,610378cd8bda62035a5c07f4,2021-07-29_23h06.45.152,Simcolourproject_2stim_asymm_v5,2020.2.10,Win32,60,61025ae37ef11b136ea224fe,,,,,,,,,966,27.20001185,111.1999708,1,0,0,response1disk,,7,13.60006047,-5.600006521,1,0,0,rectangle,13.60006047,-5.600006521,1,0,0,13.60006047,-5.600006521,1,0,0,1,60,220,62,1,,,,,,,,
,,,,,,,,,,,,,FF,,,,,,,,2.283,,,,,,,,,,,,,,,,,,,,,,610059b905e6d251e2cab6bc,610378cd8bda62035a5c07f4,2021-07-29_23h06.45.152,Simcolourproject_2stim_asymm_v5,2020.2.10,Win32,60,61025ae37ef11b136ea224fe,,,,,,,,,972,62.40001237,-90.40000778,1,0,0,response3disk,,4,-1.59998858,1.599993587,1,0,0,rectangle,-1.59998858,1.599993587,1,0,0,-1.59998858,1.599993587,1,0,0,1,61,221,48,1,,,,,,,,
,,,,,,,,,,,,,FF,,,,,,,,0.8005,,,,,,,,,,,,,,,,,,,,,,610059b905e6d251e2cab6bc,610378cd8bda62035a5c07f4,2021-07-29_23h06.45.152,Simcolourproject_2stim_asymm_v5,2020.2.10,Win32,60,61025ae37ef11b136ea224fe,,,,,,,,,3460,95.20001286,39.19996973,1,0,0,response1disk,,6,-3.199988604,-1.600006461,1,0,0,rectangle,-3.199988604,-1.600006461,1,0,0,-3.199988604,-1.600006461,1,0,0,1,62,222,91,1,,,,,,,,
,,,,,,,,,,,,,FF,,,,,,,,1.7663,,,,,,,,,,,,,,,,,,,,,,610059b905e6d251e2cab6bc,610378cd8bda62035a5c07f4,2021-07-29_23h06.45.152,Simcolourproject_2stim_asymm_v5,2020.2.10,Win32,60,61025ae37ef11b136ea224fe,,,,,,,,,3292,28.80001187,118.3999953,1,0,0,response1disk,,7,20.80001175,-8.000006557,1,0,0,rectangle,20.80001175,-8.000006557,1,0,0,20.80001175,-8.000006557,1,0,0,1,63,223,85,1,,,,,,,,
,,,,,,,,,,,,,FF,,,,,,,,0.9184,,,,,,,,,,,,,,,,,,,,,,610059b905e6d251e2cab6bc,610378cd8bda62035a5c07f4,2021-07-29_23h06.45.152,Simcolourproject_2stim_asymm_v5,2020.2.10,Win32,60,61025ae37ef11b136ea224fe,,,,,,,,,996,40.00001204,-100.0000079,1,0,0,response3disk,,4,-10.39993988,-1.600006461,1,0,0,rectangle,-10.39993988,-1.600006461,1,0,0,-10.39993988,-1.600006461,1,0,0,1,64,224,87,1,,,,,,,,
,,,,,,,,,,,,,FF,,,,,,,,0.868,,,,,,,,,,,,,,,,,,,,,,610059b905e6d251e2cab6bc,610378cd8bda62035a5c07f4,2021-07-29_23h06.45.152,Simcolourproject_2stim_asymm_v5,2020.2.10,Win32,60,61025ae37ef11b136ea224fe,,,,,,,,,2765,107.200013,40.79999417,1,0,0,response1disk,,6,7.200011551,-8.800006568,1,0,0,rectangle,-95.99998999,-60.80000734,1,0,0,4.000011504,7.19999367,1,0,0,1,65,225,112,1,,response5disk_3,TRUE,2,2,"[118,109,163,316,291,42,121,0,107,217,159,322,72,280,277,226,294,320,44,242]",2.4659,rectangle
,,,,,,,,,,,,,FF,,,,,,,,2.1501,,,,,,,,,,,,,,,,,,,,,,610059b905e6d251e2cab6bc,610378cd8bda62035a5c07f4,2021-07-29_23h06.45.152,Simcolourproject_2stim_asymm_v5,2020.2.10,Win32,60,61025ae37ef11b136ea224fe,,,,,,,,,2246,87.20001274,-62.40000737,1,0,0,response3disk,,5,-4.799988627,-9.60000658,1,0,0,rectangle,-4.799988627,-9.60000658,1,0,0,-4.799988627,-9.60000658,1,0,0,1,66,226,67,1,,,,,,,,
,,,,,,,,,,,,,FF,,,,,,,,1.086,,,,,,,,,,,,,,,,,,,,,,610059b905e6d251e2cab6bc,610378cd8bda62035a5c07f4,2021-07-29_23h06.45.152,Simcolourproject_2stim_asymm_v5,2020.2.10,Win32,60,61025ae37ef11b136ea224fe,,,,,,,,,3550,47.20001215,65.59999454,1,0,0,response1disk,,7,-13.59998876,6.399993658,1,0,0,rectangle,-13.59998876,6.399993658,1,0,0,-13.59998876,6.399993658,1,0,0,1,67,227,58,1,,,,,,,,
,,,,,,,,,,,,,FF,,,,,,,,1.266,,,,,,,,,,,,,,,,,,,,,,610059b905e6d251e2cab6bc,610378cd8bda62035a5c07f4,2021-07-29_23h06.45.152,Simcolourproject_2stim_asymm_v5,2020.2.10,Win32,60,61025ae37ef11b136ea224fe,,,,,,,,,2490,84.0000127,-68.80000746,1,0,0,response3disk,,5,-10.39993988,-9.60000658,1,0,0,rectangle,-10.39993988,-9.60000658,1,0,0,-10.39993988,-9.60000658,1,0,0,1,68,228,64,1,,,,,,,,
,,,,,,,,,,,,,FF,,,,,,,,0.8668,,,,,,,,,,,,,,,,,,,,,,610059b905e6d251e2cab6bc,610378cd8bda62035a5c07f4,2021-07-29_23h06.45.152,Simcolourproject_2stim_asymm_v5,2020.2.10,Win32,60,61025ae37ef11b136ea224fe,,,,,,,,,2495,63.20001239,-48.00000715,1,0,0,response3disk,,5,-3.999988616,-4.800006509,1,0,0,rectangle,-3.999988616,-4.800006509,1,0,0,-3.999988616,-4.800006509,1,0,0,1,69,229,144,1,,,,,,,,
,,,,,,,,,,,,,FF,,,,,,,,0.8829,,,,,,,,,,,,,,,,,,,,,,610059b905e6d251e2cab6bc,610378cd8bda62035a5c07f4,2021-07-29_23h06.45.152,Simcolourproject_2stim_asymm_v5,2020.2.10,Win32,60,61025ae37ef11b136ea224fe,,,,,,,,,2263,40.80001205,-85.60005654,1,0,0,response3disk,,4,-3.199988604,13.59999377,1,0,0,rectangle,-3.199988604,13.59999377,1,0,0,-3.199988604,13.59999377,1,0,0,1,70,230,86,1,,,,,,,,
,,,,,,,,,,,,,FF,,,,,,,,1.4496,,,,,,,,,,,,,,,,,,,,,,610059b905e6d251e2cab6bc,610378cd8bda62035a5c07f4,2021-07-29_23h06.45.152,Simcolourproject_2stim_asymm_v5,2020.2.10,Win32,60,61025ae37ef11b136ea224fe,,,,,,,,,631,-92.79998994,-52.80000722,1,0,0,response5disk,,2,4.000011504,15.19999379,1,0,0,rectangle,4.000011504,15.19999379,1,0,0,4.000011504,15.19999379,1,0,0,1,71,231,97,1,,,,,,,,
,,,,,,,,,,,,,FF,,,,,,,,0.9514,,,,,,,,,,,,,,,,,,,,,,610059b905e6d251e2cab6bc,610378cd8bda62035a5c07f4,2021-07-29_23h06.45.152,Simcolourproject_2stim_asymm_v5,2020.2.10,Win32,60,61025ae37ef11b136ea224fe,,,,,,,,,1563,28.00001186,-90.40000778,1,0,0,response3disk,,4,-11.99998873,4.799993634,1,0,0,rectangle,-11.99998873,4.799993634,1,0,0,-11.99998873,4.799993634,1,0,0,1,72,232,45,1,,,,,,,,
,,,,,,,,,,,,,FF,,,,,,,,1.1154,,,,,,,,,,,,,,,,,,,,,,610059b905e6d251e2cab6bc,610378cd8bda62035a5c07f4,2021-07-29_23h06.45.152,Simcolourproject_2stim_asymm_v5,2020.2.10,Win32,60,61025ae37ef11b136ea224fe,,,,,,,,,4221,-87.99998987,24.79999393,1,0,0,response7disk,,1,-0.799988568,-8.800006568,1,0,0,rectangle,-0.799988568,-8.800006568,1,0,0,-0.799988568,-8.800006568,1,0,0,1,73,233,109,1,,,,,,,,
,,,,,,,,,,,,,FF,,,,,,,,0.7002,,,,,,,,,,,,,,,,,,,,,,610059b905e6d251e2cab6bc,610378cd8bda62035a5c07f4,2021-07-29_23h06.45.152,Simcolourproject_2stim_asymm_v5,2020.2.10,Win32,60,61025ae37ef11b136ea224fe,,,,,,,,,276,-27.99998897,58.39999443,1,0,0,response7disk,,0,11.20001161,4.799993634,1,0,0,rectangle,11.20001161,4.799993634,1,0,0,11.20001161,4.799993634,1,0,0,1,74,234,13,1,,,,,,,,
,,,,,,,,,,,,,FF,,,,,,,,1.1327,,,,,,,,,,,,,,,,,,,,,,610059b905e6d251e2cab6bc,610378cd8bda62035a5c07f4,2021-07-29_23h06.45.152,Simcolourproject_2stim_asymm_v5,2020.2.10,Win32,60,61025ae37ef11b136ea224fe,,,,,,,,,4320,88.80001277,-51.2000072,1,0,0,response3disk,,5,1.14441E-05,7.999993682,1,0,0,rectangle,1.14441E-05,7.999993682,1,0,0,1.14441E-05,7.999993682,1,0,0,1,75,235,30,1,,,,,,,,
,,,,,,,,,,,,,FF,,,,,,,,0.8162,,,,,,,,,,,,,,,,,,,,,,610059b905e6d251e2cab6bc,610378cd8bda62035a5c07f4,2021-07-29_23h06.45.152,Simcolourproject_2stim_asymm_v5,2020.2.10,Win32,60,61025ae37ef11b136ea224fe,,,,,,,,,3326,89.60001278,46.39999425,1,0,0,response1disk,,6,14.40001166,-6.4373E-06,1,0,0,rectangle,14.40001166,-6.4373E-06,1,0,0,14.40001166,-6.4373E-06,1,0,0,1,76,236,24,1,,,,,,,,
,,,,,,,,,,,,,FF,,,,,,,,1.767,,,,,,,,,,,,,,,,,,,,,,610059b905e6d251e2cab6bc,610378cd8bda62035a5c07f4,2021-07-29_23h06.45.152,Simcolourproject_2stim_asymm_v5,2020.2.10,Win32,60,61025ae37ef11b136ea224fe,,,,,,,,,571,62.40001237,-76.00000757,1,0,0,response3disk,,4,-11.19998872,5.599993646,1,0,0,rectangle,-11.19998872,5.599993646,1,0,0,-11.19998872,5.599993646,1,0,0,1,77,237,36,1,,,,,,,,
,,,,,,,,,,,,,FF,,,,,,,,1.5148,,,,,,,,,,,,,,,,,,,,,,610059b905e6d251e2cab6bc,610378cd8bda62035a5c07f4,2021-07-29_23h06.45.152,Simcolourproject_2stim_asymm_v5,2020.2.10,Win32,60,61025ae37ef11b136ea224fe,,,,,,,,,1746,-44.79998922,-93.60005666,1,0,0,response5disk,,3,-34.39994024,-9.60000658,1,0,0,rectangle,-34.39994024,-9.60000658,1,0,0,-34.39994024,-9.60000658,1,0,0,1,78,238,7,1,,,,,,,,
,,,,,,,,,,,,,FF,,,,,,,,1.6327,,,,,,,,,,,,,,,,,,,,,,610059b905e6d251e2cab6bc,610378cd8bda62035a5c07f4,2021-07-29_23h06.45.152,Simcolourproject_2stim_asymm_v5,2020.2.10,Win32,60,61025ae37ef11b136ea224fe,,,,,,,,,2685,88.80001277,21.59999388,1,0,0,response1disk,,6,25.60006065,-0.800006449,1,0,0,rectangle,25.60006065,-0.800006449,1,0,0,25.60006065,-0.800006449,1,0,0,1,79,239,136,1,,,,,,,,
,,,,,,,,,,,,,FF,,,,,,,,0.9653,,,,,,,,,,,,,,,,,,,,,,610059b905e6d251e2cab6bc,610378cd8bda62035a5c07f4,2021-07-29_23h06.45.152,Simcolourproject_2stim_asymm_v5,2020.2.10,Win32,60,61025ae37ef11b136ea224fe,,,,,,,,,572,116.0000132,39.99999416,1,0,0,response1disk,,6,-24.79998893,2.399993598,1,0,0,rectangle,-24.79998893,2.399993598,1,0,0,-24.79998893,2.399993598,1,0,0,1,80,240,135,1,,,,,,,,
,,,,,,,,,,,,,FF,,,,,,,,1.0332,,,,,,,,,,,,,,,,,,,,,,610059b905e6d251e2cab6bc,610378cd8bda62035a5c07f4,2021-07-29_23h06.45.152,Simcolourproject_2stim_asymm_v5,2020.2.10,Win32,60,61025ae37ef11b136ea224fe,,,,,,,,,746,79.20001262,-40.80000705,1,0,0,response3disk,,5,-5.599988639,-2.400006473,1,0,0,rectangle,-115.1999903,-48.80000716,1,0,0,14.40001166,10.39999372,1,0,0,1,81,241,39,1,,response5disk_3,TRUE,2,2,"[118,109,163,316,291,42,121,0,107,217,159,322,72,280,277,226,294,320,44,242]",1.5167,rectangle
,,,,,,,,,,,,,FF,,,,,,,,0.9663,,,,,,,,,,,,,,,,,,,,,,610059b905e6d251e2cab6bc,610378cd8bda62035a5c07f4,2021-07-29_23h06.45.152,Simcolourproject_2stim_asymm_v5,2020.2.10,Win32,60,61025ae37ef11b136ea224fe,,,,,,,,,3782,-64.79998952,-30.40000689,1,0,0,response5disk,,2,22.40001178,0.799993575,1,0,0,rectangle,22.40001178,0.799993575,1,0,0,22.40001178,0.799993575,1,0,0,1,82,242,12,1,,,,,,,,
,,,,,,,,,,,,,FF,,,,,,,,0.8664,,,,,,,,,,,,,,,,,,,,,,610059b905e6d251e2cab6bc,610378cd8bda62035a5c07f4,2021-07-29_23h06.45.152,Simcolourproject_2stim_asymm_v5,2020.2.10,Win32,60,61025ae37ef11b136ea224fe,,,,,,,,,1453,-79.99998975,-51.2000072,1,0,0,response5disk,,2,-0.799988568,-1.600006461,1,0,0,rectangle,-0.799988568,-1.600006461,1,0,0,-0.799988568,-1.600006461,1,0,0,1,83,243,98,1,,,,,,,,
