key_resp.keys,key_resp.rt,key_resp_14.keys,key_resp_14.rt,key_resp_15.keys,key_resp_15.rt,key_resp_17.keys,key_resp_17.rt,key_resp_9.keys,key_resp_9.rt,key_resp_10.keys,key_resp_10.rt,practice_comparison,Ecc,mouse_5.x,mouse_5.y,mouse_5.leftButton,mouse_5.midButton,mouse_5.rightButton,mouse_5.clicked_name,pracsimilarity,response_time,mouse_10.x,mouse_10.y,mouse_10.leftButton,mouse_10.midButton,mouse_10.rightButton,mouse_10.clicked_name,mouse_7.x,mouse_7.y,mouse_7.leftButton,mouse_7.midButton,mouse_7.rightButton,mouse_6.x,mouse_6.y,mouse_6.leftButton,mouse_6.midButton,mouse_6.rightButton,duringprac.thisRepN,duringprac.thisTrialN,duringprac.thisN,duringprac.thisIndex,duringprac.ran,participant,session,date,expName,psychopyVersion,OS,frameRate,study_id,mouse_7.clicked_name,catchpracsimilarity,catch_response_time,catchnumberprac,catchtrialorderprac,mouse_6.clicked_name,key_resp_22.keys,key_resp_22.rt,realcomparison,mouse.x,mouse.y,mouse.leftButton,mouse.midButton,mouse.rightButton,mouse.clicked_name,Colour2,similarity,mouse_2.x,mouse_2.y,mouse_2.leftButton,mouse_2.midButton,mouse_2.rightButton,mouse_2.clicked_name,mouse_3.x,mouse_3.y,mouse_3.leftButton,mouse_3.midButton,mouse_3.rightButton,mouse_11.x,mouse_11.y,mouse_11.leftButton,mouse_11.midButton,mouse_11.rightButton,trials_2.thisRepN,trials_2.thisTrialN,trials_2.thisN,trials_2.thisIndex,trials_2.ran,Colour1,mouse_3.clicked_name,catchornah,catchsimilarity,catchnumber,catchtrialorder,catchRT,mouse_11.clicked_name
space,0.974,space,4.107,space,24.624,space,11.923,space,1.266,space,4.536,2,PF,82,54,1,0,0,response1disk_5,6,9.984,16,-3,1,0,0,rectangle_8,16,-3,1,0,0,16,-3,1,0,0,0,0,0,2,1,61005f4d17e5cdd0ad5748c8,61036c85c3c6720e195f440d,2021-07-29_23h06.18.948,Simcolourproject_2stim_asymm_v5,2020.2.10,MacIntel,60,61025ae37ef11b136ea224fe,,,,,,,,,,,,,,,,,,,,,,,,,,,,,,,,,,,,,,,,,,,,,,
,,,,,,,,,,,,137,PF,57,82,1,0,0,response1disk_5,7,3.183,6,3,1,0,0,rectangle_8,97,59,1,0,0,-6,-2,1,0,0,0,1,1,4,1,61005f4d17e5cdd0ad5748c8,61036c85c3c6720e195f440d,2021-07-29_23h06.18.948,Simcolourproject_2stim_asymm_v5,2020.2.10,MacIntel,60,61025ae37ef11b136ea224fe,response1disk_7,6,3.282,6,"[2,5]",rectangle_4,,,,,,,,,,,,,,,,,,,,,,,,,,,,,,,,,,,,,,,,
,,,,,,,,,,,,124,FF,37,-89,1,0,0,response3disk_5,4,3.166,1,-7,1,0,0,rectangle_8,1,-7,1,0,0,1,-7,1,0,0,0,2,2,5,1,61005f4d17e5cdd0ad5748c8,61036c85c3c6720e195f440d,2021-07-29_23h06.18.948,Simcolourproject_2stim_asymm_v5,2020.2.10,MacIntel,60,61025ae37ef11b136ea224fe,,,,,,,,,,,,,,,,,,,,,,,,,,,,,,,,,,,,,,,,,,,,,,
,,,,,,,,,,,,83,PF,38,73,1,0,0,response1disk_5,7,1.467,-5,5,1,0,0,rectangle_8,-5,5,1,0,0,-5,5,1,0,0,0,3,3,6,1,61005f4d17e5cdd0ad5748c8,61036c85c3c6720e195f440d,2021-07-29_23h06.18.948,Simcolourproject_2stim_asymm_v5,2020.2.10,MacIntel,60,61025ae37ef11b136ea224fe,,,,,,,,,,,,,,,,,,,,,,,,,,,,,,,,,,,,,,,,,,,,,,
,,,,,,,,,,,,3,FF,39,99,1,0,0,response1disk_5,7,1.267,-1,7,1,0,0,rectangle_8,79,38,1,0,0,3,-4,1,0,0,0,4,4,0,1,61005f4d17e5cdd0ad5748c8,61036c85c3c6720e195f440d,2021-07-29_23h06.18.948,Simcolourproject_2stim_asymm_v5,2020.2.10,MacIntel,60,61025ae37ef11b136ea224fe,response1disk_7,6,2.116,6,"[2,5]",rectangle_4,,,,,,,,,,,,,,,,,,,,,,,,,,,,,,,,,,,,,,,,
,,,,,,,,,,,,101,PF,-53,79,1,0,0,response7disk_5,0,2.018,-11,3,1,0,0,rectangle_8,-11,3,1,0,0,-11,3,1,0,0,0,5,5,1,1,61005f4d17e5cdd0ad5748c8,61036c85c3c6720e195f440d,2021-07-29_23h06.18.948,Simcolourproject_2stim_asymm_v5,2020.2.10,MacIntel,60,61025ae37ef11b136ea224fe,,,,,,,,,,,,,,,,,,,,,,,,,,,,,,,,,,,,,,,,,,,,,,
,,,,,,,,,,,,73,FF,92,40,1,0,0,response1disk_5,6,2.249,-2,0,1,0,0,rectangle_8,-2,0,1,0,0,-2,0,1,0,0,0,6,6,3,1,61005f4d17e5cdd0ad5748c8,61036c85c3c6720e195f440d,2021-07-29_23h06.18.948,Simcolourproject_2stim_asymm_v5,2020.2.10,MacIntel,60,61025ae37ef11b136ea224fe,,,,,,,,,,,,,,,,,,,,,,,,,,,,,,,,,,,,,,,,,,,,,,
,,,,,,,,,,,,,FF,,,,,,,,3.666,,,,,,,,,,,,,,,,,,,,,,61005f4d17e5cdd0ad5748c8,61036c85c3c6720e195f440d,2021-07-29_23h06.18.948,Simcolourproject_2stim_asymm_v5,2020.2.10,MacIntel,60,61025ae37ef11b136ea224fe,,,,,,,space,2.78,1946,58,64,1,0,0,response1disk,,7,13,-6,1,0,0,rectangle,13,-6,1,0,0,13,-6,1,0,0,0,0,0,113,1,,,,,,,,
,,,,,,,,,,,,,FF,,,,,,,,0.783,,,,,,,,,,,,,,,,,,,,,,61005f4d17e5cdd0ad5748c8,61036c85c3c6720e195f440d,2021-07-29_23h06.18.948,Simcolourproject_2stim_asymm_v5,2020.2.10,MacIntel,60,61025ae37ef11b136ea224fe,,,,,,,,,2771,28,58,1,0,0,response1disk,,7,12,5,1,0,0,rectangle,12,5,1,0,0,12,5,1,0,0,0,1,1,103,1,,,,,,,,
,,,,,,,,,,,,,FF,,,,,,,,1.383,,,,,,,,,,,,,,,,,,,,,,61005f4d17e5cdd0ad5748c8,61036c85c3c6720e195f440d,2021-07-29_23h06.18.948,Simcolourproject_2stim_asymm_v5,2020.2.10,MacIntel,60,61025ae37ef11b136ea224fe,,,,,,,,,4106,29,-73,1,0,0,response3disk,,4,4,-1,1,0,0,rectangle,4,-1,1,0,0,4,-1,1,0,0,0,2,2,126,1,,,,,,,,
,,,,,,,,,,,,,FF,,,,,,,,0.868,,,,,,,,,,,,,,,,,,,,,,61005f4d17e5cdd0ad5748c8,61036c85c3c6720e195f440d,2021-07-29_23h06.18.948,Simcolourproject_2stim_asymm_v5,2020.2.10,MacIntel,60,61025ae37ef11b136ea224fe,,,,,,,,,2289,33,59,1,0,0,response1disk,,7,-1,0,1,0,0,rectangle,-1,0,1,0,0,-1,0,1,0,0,0,3,3,101,1,,,,,,,,
,,,,,,,,,,,,,FF,,,,,,,,1.234,,,,,,,,,,,,,,,,,,,,,,61005f4d17e5cdd0ad5748c8,61036c85c3c6720e195f440d,2021-07-29_23h06.18.948,Simcolourproject_2stim_asymm_v5,2020.2.10,MacIntel,60,61025ae37ef11b136ea224fe,,,,,,,,,2867,28,49,1,0,0,response1disk,,7,1,-1,1,0,0,rectangle,1,-1,1,0,0,1,-1,1,0,0,0,4,4,4,1,,,,,,,,
,,,,,,,,,,,,,FF,,,,,,,,0.851,,,,,,,,,,,,,,,,,,,,,,61005f4d17e5cdd0ad5748c8,61036c85c3c6720e195f440d,2021-07-29_23h06.18.948,Simcolourproject_2stim_asymm_v5,2020.2.10,MacIntel,60,61025ae37ef11b136ea224fe,,,,,,,,,3609,29,46,1,0,0,response1disk,,7,3,4,1,0,0,rectangle,3,4,1,0,0,3,4,1,0,0,0,5,5,134,1,,,,,,,,
,,,,,,,,,,,,,FF,,,,,,,,0.866,,,,,,,,,,,,,,,,,,,,,,61005f4d17e5cdd0ad5748c8,61036c85c3c6720e195f440d,2021-07-29_23h06.18.948,Simcolourproject_2stim_asymm_v5,2020.2.10,MacIntel,60,61025ae37ef11b136ea224fe,,,,,,,,,3021,62,28,1,0,0,response1disk,,6,0,9,1,0,0,rectangle,0,9,1,0,0,0,9,1,0,0,0,6,6,41,1,,,,,,,,
,,,,,,,,,,,,,FF,,,,,,,,1.617,,,,,,,,,,,,,,,,,,,,,,61005f4d17e5cdd0ad5748c8,61036c85c3c6720e195f440d,2021-07-29_23h06.18.948,Simcolourproject_2stim_asymm_v5,2020.2.10,MacIntel,60,61025ae37ef11b136ea224fe,,,,,,,,,817,26,72,1,0,0,response1disk,,7,2,-4,1,0,0,rectangle,2,-4,1,0,0,2,-4,1,0,0,0,7,7,57,1,,,,,,,,
,,,,,,,,,,,,,FF,,,,,,,,0.883,,,,,,,,,,,,,,,,,,,,,,61005f4d17e5cdd0ad5748c8,61036c85c3c6720e195f440d,2021-07-29_23h06.18.948,Simcolourproject_2stim_asymm_v5,2020.2.10,MacIntel,60,61025ae37ef11b136ea224fe,,,,,,,,,1238,26,55,1,0,0,response1disk,,7,-4,-5,1,0,0,rectangle,-4,-5,1,0,0,-4,-5,1,0,0,0,8,8,51,1,,,,,,,,
,,,,,,,,,,,,,FF,,,,,,,,2.117,,,,,,,,,,,,,,,,,,,,,,61005f4d17e5cdd0ad5748c8,61036c85c3c6720e195f440d,2021-07-29_23h06.18.948,Simcolourproject_2stim_asymm_v5,2020.2.10,MacIntel,60,61025ae37ef11b136ea224fe,,,,,,,,,4010,50,-77,1,0,0,response3disk,,4,4,7,1,0,0,rectangle,4,7,1,0,0,4,7,1,0,0,0,9,9,85,1,,,,,,,,
,,,,,,,,,,,,,FF,,,,,,,,0.917,,,,,,,,,,,,,,,,,,,,,,61005f4d17e5cdd0ad5748c8,61036c85c3c6720e195f440d,2021-07-29_23h06.18.948,Simcolourproject_2stim_asymm_v5,2020.2.10,MacIntel,60,61025ae37ef11b136ea224fe,,,,,,,,,3299,39,49,1,0,0,response1disk,,7,6,-2,1,0,0,rectangle,6,-2,1,0,0,6,-2,1,0,0,0,10,10,13,1,,,,,,,,
,,,,,,,,,,,,,FF,,,,,,,,1.483,,,,,,,,,,,,,,,,,,,,,,61005f4d17e5cdd0ad5748c8,61036c85c3c6720e195f440d,2021-07-29_23h06.18.948,Simcolourproject_2stim_asymm_v5,2020.2.10,MacIntel,60,61025ae37ef11b136ea224fe,,,,,,,,,778,80,-27,1,0,0,response3disk,,5,2,-4,1,0,0,rectangle,2,-4,1,0,0,2,-4,1,0,0,0,11,11,118,1,,,,,,,,
,,,,,,,,,,,,,FF,,,,,,,,0.817,,,,,,,,,,,,,,,,,,,,,,61005f4d17e5cdd0ad5748c8,61036c85c3c6720e195f440d,2021-07-29_23h06.18.948,Simcolourproject_2stim_asymm_v5,2020.2.10,MacIntel,60,61025ae37ef11b136ea224fe,,,,,,,,,1564,28,46,1,0,0,response1disk,,7,3,3,1,0,0,rectangle,3,3,1,0,0,3,3,1,0,0,0,12,12,130,1,,,,,,,,
,,,,,,,,,,,,,FF,,,,,,,,1.217,,,,,,,,,,,,,,,,,,,,,,61005f4d17e5cdd0ad5748c8,61036c85c3c6720e195f440d,2021-07-29_23h06.18.948,Simcolourproject_2stim_asymm_v5,2020.2.10,MacIntel,60,61025ae37ef11b136ea224fe,,,,,,,,,3420,61,33,1,0,0,response1disk,,6,-17,1,1,0,0,rectangle,-17,1,1,0,0,-17,1,1,0,0,0,13,13,29,1,,,,,,,,
,,,,,,,,,,,,,FF,,,,,,,,0.884,,,,,,,,,,,,,,,,,,,,,,61005f4d17e5cdd0ad5748c8,61036c85c3c6720e195f440d,2021-07-29_23h06.18.948,Simcolourproject_2stim_asymm_v5,2020.2.10,MacIntel,60,61025ae37ef11b136ea224fe,,,,,,,,,1415,34,51,1,0,0,response1disk,,7,6,4,1,0,0,rectangle,6,4,1,0,0,6,4,1,0,0,0,14,14,109,1,,,,,,,,
,,,,,,,,,,,,,FF,,,,,,,,1.834,,,,,,,,,,,,,,,,,,,,,,61005f4d17e5cdd0ad5748c8,61036c85c3c6720e195f440d,2021-07-29_23h06.18.948,Simcolourproject_2stim_asymm_v5,2020.2.10,MacIntel,60,61025ae37ef11b136ea224fe,,,,,,,,,2878,59,-75,1,0,0,response3disk,,4,-12,9,1,0,0,rectangle,-12,9,1,0,0,-12,9,1,0,0,0,15,15,72,1,,,,,,,,
,,,,,,,,,,,,,FF,,,,,,,,0.785,,,,,,,,,,,,,,,,,,,,,,61005f4d17e5cdd0ad5748c8,61036c85c3c6720e195f440d,2021-07-29_23h06.18.948,Simcolourproject_2stim_asymm_v5,2020.2.10,MacIntel,60,61025ae37ef11b136ea224fe,,,,,,,,,4173,18,41,1,0,0,response1disk,,7,-6,-7,1,0,0,rectangle,-6,-7,1,0,0,-6,-7,1,0,0,0,16,16,155,1,,,,,,,,
,,,,,,,,,,,,,FF,,,,,,,,1.085,,,,,,,,,,,,,,,,,,,,,,61005f4d17e5cdd0ad5748c8,61036c85c3c6720e195f440d,2021-07-29_23h06.18.948,Simcolourproject_2stim_asymm_v5,2020.2.10,MacIntel,60,61025ae37ef11b136ea224fe,,,,,,,,,3396,-37,-74,1,0,0,response5disk,,3,2,2,1,0,0,rectangle,2,2,1,0,0,2,2,1,0,0,0,17,17,24,1,,,,,,,,
,,,,,,,,,,,,,FF,,,,,,,,0.833,,,,,,,,,,,,,,,,,,,,,,61005f4d17e5cdd0ad5748c8,61036c85c3c6720e195f440d,2021-07-29_23h06.18.948,Simcolourproject_2stim_asymm_v5,2020.2.10,MacIntel,60,61025ae37ef11b136ea224fe,,,,,,,,,2639,37,54,1,0,0,response1disk,,7,5,2,1,0,0,rectangle,5,2,1,0,0,5,2,1,0,0,0,18,18,89,1,,,,,,,,
,,,,,,,,,,,,,FF,,,,,,,,1.566,,,,,,,,,,,,,,,,,,,,,,61005f4d17e5cdd0ad5748c8,61036c85c3c6720e195f440d,2021-07-29_23h06.18.948,Simcolourproject_2stim_asymm_v5,2020.2.10,MacIntel,60,61025ae37ef11b136ea224fe,,,,,,,,,3284,-75,-34,1,0,0,response5disk,,2,-16,-9,1,0,0,rectangle,-16,-9,1,0,0,-16,-9,1,0,0,0,19,19,111,1,,,,,,,,
,,,,,,,,,,,,,FF,,,,,,,,0.9,,,,,,,,,,,,,,,,,,,,,,61005f4d17e5cdd0ad5748c8,61036c85c3c6720e195f440d,2021-07-29_23h06.18.948,Simcolourproject_2stim_asymm_v5,2020.2.10,MacIntel,60,61025ae37ef11b136ea224fe,,,,,,,,,320,51,30,1,0,0,response1disk,,6,7,3,1,0,0,rectangle,-36,80,1,0,0,-1,3,1,0,0,0,20,20,25,1,,response7disk_3,TRUE,0,0,"[265,73,310,161,321,88,85,309,234,63,229,118,21,277,243,139,323,258,91,149]",2.65,rectangle
,,,,,,,,,,,,,FF,,,,,,,,0.9,,,,,,,,,,,,,,,,,,,,,,61005f4d17e5cdd0ad5748c8,61036c85c3c6720e195f440d,2021-07-29_23h06.18.948,Simcolourproject_2stim_asymm_v5,2020.2.10,MacIntel,60,61025ae37ef11b136ea224fe,,,,,,,,,4304,19,65,1,0,0,response1disk,,7,-9,4,1,0,0,rectangle,-9,4,1,0,0,-9,4,1,0,0,0,21,21,108,1,,,,,,,,
,,,,,,,,,,,,,FF,,,,,,,,0.733,,,,,,,,,,,,,,,,,,,,,,61005f4d17e5cdd0ad5748c8,61036c85c3c6720e195f440d,2021-07-29_23h06.18.948,Simcolourproject_2stim_asymm_v5,2020.2.10,MacIntel,60,61025ae37ef11b136ea224fe,,,,,,,,,2896,33,52,1,0,0,response1disk,,7,0,5,1,0,0,rectangle,0,5,1,0,0,0,5,1,0,0,0,22,22,53,1,,,,,,,,
,,,,,,,,,,,,,FF,,,,,,,,0.75,,,,,,,,,,,,,,,,,,,,,,61005f4d17e5cdd0ad5748c8,61036c85c3c6720e195f440d,2021-07-29_23h06.18.948,Simcolourproject_2stim_asymm_v5,2020.2.10,MacIntel,60,61025ae37ef11b136ea224fe,,,,,,,,,3421,44,52,1,0,0,response1disk,,7,5,-4,1,0,0,rectangle,5,-4,1,0,0,5,-4,1,0,0,0,23,23,78,1,,,,,,,,
,,,,,,,,,,,,,FF,,,,,,,,0.684,,,,,,,,,,,,,,,,,,,,,,61005f4d17e5cdd0ad5748c8,61036c85c3c6720e195f440d,2021-07-29_23h06.18.948,Simcolourproject_2stim_asymm_v5,2020.2.10,MacIntel,60,61025ae37ef11b136ea224fe,,,,,,,,,2049,37,62,1,0,0,response1disk,,7,4,6,1,0,0,rectangle,4,6,1,0,0,4,6,1,0,0,0,24,24,52,1,,,,,,,,
,,,,,,,,,,,,,FF,,,,,,,,1.117,,,,,,,,,,,,,,,,,,,,,,61005f4d17e5cdd0ad5748c8,61036c85c3c6720e195f440d,2021-07-29_23h06.18.948,Simcolourproject_2stim_asymm_v5,2020.2.10,MacIntel,60,61025ae37ef11b136ea224fe,,,,,,,,,1029,38,-61,1,0,0,response3disk,,4,-1,-1,1,0,0,rectangle,-1,-1,1,0,0,-1,-1,1,0,0,0,25,25,141,1,,,,,,,,
,,,,,,,,,,,,,FF,,,,,,,,1.034,,,,,,,,,,,,,,,,,,,,,,61005f4d17e5cdd0ad5748c8,61036c85c3c6720e195f440d,2021-07-29_23h06.18.948,Simcolourproject_2stim_asymm_v5,2020.2.10,MacIntel,60,61025ae37ef11b136ea224fe,,,,,,,,,1011,34,52,1,0,0,response1disk,,7,7,8,1,0,0,rectangle,7,8,1,0,0,7,8,1,0,0,0,26,26,73,1,,,,,,,,
,,,,,,,,,,,,,FF,,,,,,,,1.584,,,,,,,,,,,,,,,,,,,,,,61005f4d17e5cdd0ad5748c8,61036c85c3c6720e195f440d,2021-07-29_23h06.18.948,Simcolourproject_2stim_asymm_v5,2020.2.10,MacIntel,60,61025ae37ef11b136ea224fe,,,,,,,,,2033,-82,-24,1,0,0,response5disk,,2,-6,-1,1,0,0,rectangle,-6,-1,1,0,0,-6,-1,1,0,0,0,27,27,46,1,,,,,,,,
,,,,,,,,,,,,,FF,,,,,,,,0.767,,,,,,,,,,,,,,,,,,,,,,61005f4d17e5cdd0ad5748c8,61036c85c3c6720e195f440d,2021-07-29_23h06.18.948,Simcolourproject_2stim_asymm_v5,2020.2.10,MacIntel,60,61025ae37ef11b136ea224fe,,,,,,,,,3956,41,67,1,0,0,response1disk,,7,-9,6,1,0,0,rectangle,-9,6,1,0,0,-9,6,1,0,0,0,28,28,34,1,,,,,,,,
,,,,,,,,,,,,,FF,,,,,,,,0.683,,,,,,,,,,,,,,,,,,,,,,61005f4d17e5cdd0ad5748c8,61036c85c3c6720e195f440d,2021-07-29_23h06.18.948,Simcolourproject_2stim_asymm_v5,2020.2.10,MacIntel,60,61025ae37ef11b136ea224fe,,,,,,,,,2111,38,72,1,0,0,response1disk,,7,-8,2,1,0,0,rectangle,-8,2,1,0,0,-8,2,1,0,0,0,29,29,138,1,,,,,,,,
,,,,,,,,,,,,,FF,,,,,,,,1.568,,,,,,,,,,,,,,,,,,,,,,61005f4d17e5cdd0ad5748c8,61036c85c3c6720e195f440d,2021-07-29_23h06.18.948,Simcolourproject_2stim_asymm_v5,2020.2.10,MacIntel,60,61025ae37ef11b136ea224fe,,,,,,,,,648,74,-26,1,0,0,response3disk,,5,-4,0,1,0,0,rectangle,-4,0,1,0,0,-4,0,1,0,0,0,30,30,62,1,,,,,,,,
,,,,,,,,,,,,,FF,,,,,,,,0.717,,,,,,,,,,,,,,,,,,,,,,61005f4d17e5cdd0ad5748c8,61036c85c3c6720e195f440d,2021-07-29_23h06.18.948,Simcolourproject_2stim_asymm_v5,2020.2.10,MacIntel,60,61025ae37ef11b136ea224fe,,,,,,,,,1279,26,58,1,0,0,response1disk,,7,-1,-1,1,0,0,rectangle,-1,-1,1,0,0,-1,-1,1,0,0,0,31,31,146,1,,,,,,,,
,,,,,,,,,,,,,FF,,,,,,,,0.566,,,,,,,,,,,,,,,,,,,,,,61005f4d17e5cdd0ad5748c8,61036c85c3c6720e195f440d,2021-07-29_23h06.18.948,Simcolourproject_2stim_asymm_v5,2020.2.10,MacIntel,60,61025ae37ef11b136ea224fe,,,,,,,,,2406,36,47,1,0,0,response1disk,,7,-3,6,1,0,0,rectangle,-3,6,1,0,0,-3,6,1,0,0,0,32,32,137,1,,,,,,,,
,,,,,,,,,,,,,FF,,,,,,,,0.65,,,,,,,,,,,,,,,,,,,,,,61005f4d17e5cdd0ad5748c8,61036c85c3c6720e195f440d,2021-07-29_23h06.18.948,Simcolourproject_2stim_asymm_v5,2020.2.10,MacIntel,60,61025ae37ef11b136ea224fe,,,,,,,,,3934,30,69,1,0,0,response1disk,,7,-6,4,1,0,0,rectangle,-6,4,1,0,0,-6,4,1,0,0,0,33,33,75,1,,,,,,,,
,,,,,,,,,,,,,FF,,,,,,,,0.666,,,,,,,,,,,,,,,,,,,,,,61005f4d17e5cdd0ad5748c8,61036c85c3c6720e195f440d,2021-07-29_23h06.18.948,Simcolourproject_2stim_asymm_v5,2020.2.10,MacIntel,60,61025ae37ef11b136ea224fe,,,,,,,,,3000,-55,72,1,0,0,response7disk,,0,-9,0,1,0,0,rectangle,-9,0,1,0,0,-9,0,1,0,0,0,34,34,39,1,,,,,,,,
,,,,,,,,,,,,,FF,,,,,,,,0.816,,,,,,,,,,,,,,,,,,,,,,61005f4d17e5cdd0ad5748c8,61036c85c3c6720e195f440d,2021-07-29_23h06.18.948,Simcolourproject_2stim_asymm_v5,2020.2.10,MacIntel,60,61025ae37ef11b136ea224fe,,,,,,,,,1421,42,73,1,0,0,response1disk,,7,-6,-6,1,0,0,rectangle,-6,-6,1,0,0,-6,-6,1,0,0,0,35,35,38,1,,,,,,,,
,,,,,,,,,,,,,FF,,,,,,,,0.532,,,,,,,,,,,,,,,,,,,,,,61005f4d17e5cdd0ad5748c8,61036c85c3c6720e195f440d,2021-07-29_23h06.18.948,Simcolourproject_2stim_asymm_v5,2020.2.10,MacIntel,60,61025ae37ef11b136ea224fe,,,,,,,,,132,34,53,1,0,0,response1disk,,7,11,1,1,0,0,rectangle,11,1,1,0,0,11,1,1,0,0,0,36,36,92,1,,,,,,,,
,,,,,,,,,,,,,FF,,,,,,,,0.667,,,,,,,,,,,,,,,,,,,,,,61005f4d17e5cdd0ad5748c8,61036c85c3c6720e195f440d,2021-07-29_23h06.18.948,Simcolourproject_2stim_asymm_v5,2020.2.10,MacIntel,60,61025ae37ef11b136ea224fe,,,,,,,,,2941,-48,86,1,0,0,response7disk,,0,5,-13,1,0,0,rectangle,5,-13,1,0,0,5,-13,1,0,0,0,37,37,7,1,,,,,,,,
,,,,,,,,,,,,,FF,,,,,,,,0.47,,,,,,,,,,,,,,,,,,,,,,61005f4d17e5cdd0ad5748c8,61036c85c3c6720e195f440d,2021-07-29_23h06.18.948,Simcolourproject_2stim_asymm_v5,2020.2.10,MacIntel,60,61025ae37ef11b136ea224fe,,,,,,,,,765,34,77,1,0,0,response1disk,,7,-7,-6,1,0,0,rectangle,-7,-6,1,0,0,-7,-6,1,0,0,0,38,38,30,1,,,,,,,,
,,,,,,,,,,,,,FF,,,,,,,,1.166,,,,,,,,,,,,,,,,,,,,,,61005f4d17e5cdd0ad5748c8,61036c85c3c6720e195f440d,2021-07-29_23h06.18.948,Simcolourproject_2stim_asymm_v5,2020.2.10,MacIntel,60,61025ae37ef11b136ea224fe,,,,,,,,,1085,44,85,1,0,0,response1disk,,7,4,4,1,0,0,rectangle,4,4,1,0,0,4,4,1,0,0,0,39,39,99,1,,,,,,,,
,,,,,,,,,,,,,FF,,,,,,,,1.617,,,,,,,,,,,,,,,,,,,,,,61005f4d17e5cdd0ad5748c8,61036c85c3c6720e195f440d,2021-07-29_23h06.18.948,Simcolourproject_2stim_asymm_v5,2020.2.10,MacIntel,60,61025ae37ef11b136ea224fe,,,,,,,,,2505,29,59,1,0,0,response1disk,,7,2,-5,1,0,0,rectangle,2,-5,1,0,0,2,-5,1,0,0,0,40,40,83,1,,,,,,,,
,,,,,,,,,,,,,FF,,,,,,,,0.732,,,,,,,,,,,,,,,,,,,,,,61005f4d17e5cdd0ad5748c8,61036c85c3c6720e195f440d,2021-07-29_23h06.18.948,Simcolourproject_2stim_asymm_v5,2020.2.10,MacIntel,60,61025ae37ef11b136ea224fe,,,,,,,,,3388,-37,87,1,0,0,response7disk,,0,-4,3,1,0,0,rectangle,-4,3,1,0,0,-4,3,1,0,0,0,41,41,107,1,,,,,,,,
,,,,,,,,,,,,,FF,,,,,,,,1.683,,,,,,,,,,,,,,,,,,,,,,61005f4d17e5cdd0ad5748c8,61036c85c3c6720e195f440d,2021-07-29_23h06.18.948,Simcolourproject_2stim_asymm_v5,2020.2.10,MacIntel,60,61025ae37ef11b136ea224fe,,,,,,,,,3428,-79,-56,1,0,0,response5disk,,2,14,1,1,0,0,rectangle,14,1,1,0,0,14,1,1,0,0,0,42,42,16,1,,,,,,,,
,,,,,,,,,,,,,FF,,,,,,,,0.7,,,,,,,,,,,,,,,,,,,,,,61005f4d17e5cdd0ad5748c8,61036c85c3c6720e195f440d,2021-07-29_23h06.18.948,Simcolourproject_2stim_asymm_v5,2020.2.10,MacIntel,60,61025ae37ef11b136ea224fe,,,,,,,,,2852,35,80,1,0,0,response1disk,,7,-3,-3,1,0,0,rectangle,-3,-3,1,0,0,-3,-3,1,0,0,0,43,43,60,1,,,,,,,,
,,,,,,,,,,,,,FF,,,,,,,,0.616,,,,,,,,,,,,,,,,,,,,,,61005f4d17e5cdd0ad5748c8,61036c85c3c6720e195f440d,2021-07-29_23h06.18.948,Simcolourproject_2stim_asymm_v5,2020.2.10,MacIntel,60,61025ae37ef11b136ea224fe,,,,,,,,,1912,25,71,1,0,0,response1disk,,7,-11,-5,1,0,0,rectangle,-11,-5,1,0,0,-11,-5,1,0,0,0,44,44,11,1,,,,,,,,
,,,,,,,,,,,,,FF,,,,,,,,0.566,,,,,,,,,,,,,,,,,,,,,,61005f4d17e5cdd0ad5748c8,61036c85c3c6720e195f440d,2021-07-29_23h06.18.948,Simcolourproject_2stim_asymm_v5,2020.2.10,MacIntel,60,61025ae37ef11b136ea224fe,,,,,,,,,401,22,42,1,0,0,response1disk,,7,5,-3,1,0,0,rectangle,5,-3,1,0,0,5,-3,1,0,0,0,45,45,100,1,,,,,,,,
,,,,,,,,,,,,,FF,,,,,,,,0.685,,,,,,,,,,,,,,,,,,,,,,61005f4d17e5cdd0ad5748c8,61036c85c3c6720e195f440d,2021-07-29_23h06.18.948,Simcolourproject_2stim_asymm_v5,2020.2.10,MacIntel,60,61025ae37ef11b136ea224fe,,,,,,,,,1447,-37,72,1,0,0,response7disk,,0,7,6,1,0,0,rectangle,7,6,1,0,0,7,6,1,0,0,0,46,46,42,1,,,,,,,,
,,,,,,,,,,,,,FF,,,,,,,,1.15,,,,,,,,,,,,,,,,,,,,,,61005f4d17e5cdd0ad5748c8,61036c85c3c6720e195f440d,2021-07-29_23h06.18.948,Simcolourproject_2stim_asymm_v5,2020.2.10,MacIntel,60,61025ae37ef11b136ea224fe,,,,,,,,,2366,64,-57,1,0,0,response3disk,,5,-3,-7,1,0,0,rectangle,-3,-7,1,0,0,-3,-7,1,0,0,0,47,47,50,1,,,,,,,,
,,,,,,,,,,,,,FF,,,,,,,,0.733,,,,,,,,,,,,,,,,,,,,,,61005f4d17e5cdd0ad5748c8,61036c85c3c6720e195f440d,2021-07-29_23h06.18.948,Simcolourproject_2stim_asymm_v5,2020.2.10,MacIntel,60,61025ae37ef11b136ea224fe,,,,,,,,,3867,28,70,1,0,0,response1disk,,7,0,8,1,0,0,rectangle,0,8,1,0,0,0,8,1,0,0,0,48,48,6,1,,,,,,,,
,,,,,,,,,,,,,FF,,,,,,,,1.116,,,,,,,,,,,,,,,,,,,,,,61005f4d17e5cdd0ad5748c8,61036c85c3c6720e195f440d,2021-07-29_23h06.18.948,Simcolourproject_2stim_asymm_v5,2020.2.10,MacIntel,60,61025ae37ef11b136ea224fe,,,,,,,,,1313,83,43,1,0,0,response1disk,,6,3,7,1,0,0,rectangle,3,7,1,0,0,3,7,1,0,0,0,49,49,98,1,,,,,,,,
,,,,,,,,,,,,,FF,,,,,,,,1.7,,,,,,,,,,,,,,,,,,,,,,61005f4d17e5cdd0ad5748c8,61036c85c3c6720e195f440d,2021-07-29_23h06.18.948,Simcolourproject_2stim_asymm_v5,2020.2.10,MacIntel,60,61025ae37ef11b136ea224fe,,,,,,,,,367,-73,41,1,0,0,response7disk,,1,-3,3,1,0,0,rectangle,-3,3,1,0,0,-3,3,1,0,0,0,50,50,151,1,,,,,,,,
,,,,,,,,,,,,,FF,,,,,,,,0.734,,,,,,,,,,,,,,,,,,,,,,61005f4d17e5cdd0ad5748c8,61036c85c3c6720e195f440d,2021-07-29_23h06.18.948,Simcolourproject_2stim_asymm_v5,2020.2.10,MacIntel,60,61025ae37ef11b136ea224fe,,,,,,,,,1257,25,56,1,0,0,response1disk,,7,-7,1,1,0,0,rectangle,-7,1,1,0,0,-7,1,1,0,0,0,51,51,54,1,,,,,,,,
,,,,,,,,,,,,,FF,,,,,,,,0.584,,,,,,,,,,,,,,,,,,,,,,61005f4d17e5cdd0ad5748c8,61036c85c3c6720e195f440d,2021-07-29_23h06.18.948,Simcolourproject_2stim_asymm_v5,2020.2.10,MacIntel,60,61025ae37ef11b136ea224fe,,,,,,,,,3136,40,63,1,0,0,response1disk,,7,-7,5,1,0,0,rectangle,-7,5,1,0,0,-7,5,1,0,0,0,52,52,43,1,,,,,,,,
,,,,,,,,,,,,,FF,,,,,,,,0.666,,,,,,,,,,,,,,,,,,,,,,61005f4d17e5cdd0ad5748c8,61036c85c3c6720e195f440d,2021-07-29_23h06.18.948,Simcolourproject_2stim_asymm_v5,2020.2.10,MacIntel,60,61025ae37ef11b136ea224fe,,,,,,,,,4042,42,59,1,0,0,response1disk,,7,-5,-4,1,0,0,rectangle,-5,-4,1,0,0,-5,-4,1,0,0,0,53,53,152,1,,,,,,,,
,,,,,,,,,,,,,FF,,,,,,,,0.966,,,,,,,,,,,,,,,,,,,,,,61005f4d17e5cdd0ad5748c8,61036c85c3c6720e195f440d,2021-07-29_23h06.18.948,Simcolourproject_2stim_asymm_v5,2020.2.10,MacIntel,60,61025ae37ef11b136ea224fe,,,,,,,,,2835,27,-61,1,0,0,response3disk,,4,-2,-6,1,0,0,rectangle,-2,-6,1,0,0,-2,-6,1,0,0,0,54,54,124,1,,,,,,,,
,,,,,,,,,,,,,FF,,,,,,,,0.55,,,,,,,,,,,,,,,,,,,,,,61005f4d17e5cdd0ad5748c8,61036c85c3c6720e195f440d,2021-07-29_23h06.18.948,Simcolourproject_2stim_asymm_v5,2020.2.10,MacIntel,60,61025ae37ef11b136ea224fe,,,,,,,,,1627,30,54,1,0,0,response1disk,,7,-3,9,1,0,0,rectangle,-3,9,1,0,0,-3,9,1,0,0,0,55,55,26,1,,,,,,,,
,,,,,,,,,,,,,FF,,,,,,,,0.583,,,,,,,,,,,,,,,,,,,,,,61005f4d17e5cdd0ad5748c8,61036c85c3c6720e195f440d,2021-07-29_23h06.18.948,Simcolourproject_2stim_asymm_v5,2020.2.10,MacIntel,60,61025ae37ef11b136ea224fe,,,,,,,,,2925,24,70,1,0,0,response1disk,,7,2,-8,1,0,0,rectangle,2,-8,1,0,0,2,-8,1,0,0,0,56,56,93,1,,,,,,,,
,,,,,,,,,,,,,FF,,,,,,,,0.617,,,,,,,,,,,,,,,,,,,,,,61005f4d17e5cdd0ad5748c8,61036c85c3c6720e195f440d,2021-07-29_23h06.18.948,Simcolourproject_2stim_asymm_v5,2020.2.10,MacIntel,60,61025ae37ef11b136ea224fe,,,,,,,,,2968,35,89,1,0,0,response1disk,,7,-7,6,1,0,0,rectangle,-7,6,1,0,0,-7,6,1,0,0,0,57,57,133,1,,,,,,,,
,,,,,,,,,,,,,FF,,,,,,,,0.5,,,,,,,,,,,,,,,,,,,,,,61005f4d17e5cdd0ad5748c8,61036c85c3c6720e195f440d,2021-07-29_23h06.18.948,Simcolourproject_2stim_asymm_v5,2020.2.10,MacIntel,60,61025ae37ef11b136ea224fe,,,,,,,,,1046,41,74,1,0,0,response1disk,,7,-2,-3,1,0,0,rectangle,-2,-3,1,0,0,-2,-3,1,0,0,0,58,58,81,1,,,,,,,,
,,,,,,,,,,,,,FF,,,,,,,,0.551,,,,,,,,,,,,,,,,,,,,,,61005f4d17e5cdd0ad5748c8,61036c85c3c6720e195f440d,2021-07-29_23h06.18.948,Simcolourproject_2stim_asymm_v5,2020.2.10,MacIntel,60,61025ae37ef11b136ea224fe,,,,,,,,,4088,37,71,1,0,0,response1disk,,7,-5,5,1,0,0,rectangle,-5,5,1,0,0,-5,5,1,0,0,0,59,59,116,1,,,,,,,,
,,,,,,,,,,,,,FF,,,,,,,,0.516,,,,,,,,,,,,,,,,,,,,,,61005f4d17e5cdd0ad5748c8,61036c85c3c6720e195f440d,2021-07-29_23h06.18.948,Simcolourproject_2stim_asymm_v5,2020.2.10,MacIntel,60,61025ae37ef11b136ea224fe,,,,,,,,,503,37,75,1,0,0,response1disk,,7,5,13,1,0,0,rectangle,5,13,1,0,0,5,13,1,0,0,0,60,60,2,1,,,,,,,,
,,,,,,,,,,,,,FF,,,,,,,,0.516,,,,,,,,,,,,,,,,,,,,,,61005f4d17e5cdd0ad5748c8,61036c85c3c6720e195f440d,2021-07-29_23h06.18.948,Simcolourproject_2stim_asymm_v5,2020.2.10,MacIntel,60,61025ae37ef11b136ea224fe,,,,,,,,,2520,36,75,1,0,0,response1disk,,7,-1,7,1,0,0,rectangle,-1,7,1,0,0,-1,7,1,0,0,0,61,61,87,1,,,,,,,,
,,,,,,,,,,,,,FF,,,,,,,,0.517,,,,,,,,,,,,,,,,,,,,,,61005f4d17e5cdd0ad5748c8,61036c85c3c6720e195f440d,2021-07-29_23h06.18.948,Simcolourproject_2stim_asymm_v5,2020.2.10,MacIntel,60,61025ae37ef11b136ea224fe,,,,,,,,,2147,27,51,1,0,0,response1disk,,7,-7,-5,1,0,0,rectangle,61,-28,1,0,0,5,1,1,0,0,0,62,62,156,1,,response3disk_3,TRUE,5,5,"[265,73,310,161,321,88,85,309,234,63,229,118,21,277,243,139,323,258,91,149]",2.066,rectangle
,,,,,,,,,,,,,FF,,,,,,,,1.45,,,,,,,,,,,,,,,,,,,,,,61005f4d17e5cdd0ad5748c8,61036c85c3c6720e195f440d,2021-07-29_23h06.18.948,Simcolourproject_2stim_asymm_v5,2020.2.10,MacIntel,60,61025ae37ef11b136ea224fe,,,,,,,,,1450,-41,-83,1,0,0,response5disk,,3,-10,-1,1,0,0,rectangle,-10,-1,1,0,0,-10,-1,1,0,0,0,63,63,154,1,,,,,,,,
,,,,,,,,,,,,,FF,,,,,,,,0.7,,,,,,,,,,,,,,,,,,,,,,61005f4d17e5cdd0ad5748c8,61036c85c3c6720e195f440d,2021-07-29_23h06.18.948,Simcolourproject_2stim_asymm_v5,2020.2.10,MacIntel,60,61025ae37ef11b136ea224fe,,,,,,,,,750,24,57,1,0,0,response1disk,,7,4,3,1,0,0,rectangle,4,3,1,0,0,4,3,1,0,0,0,64,64,131,1,,,,,,,,
,,,,,,,,,,,,,FF,,,,,,,,0.633,,,,,,,,,,,,,,,,,,,,,,61005f4d17e5cdd0ad5748c8,61036c85c3c6720e195f440d,2021-07-29_23h06.18.948,Simcolourproject_2stim_asymm_v5,2020.2.10,MacIntel,60,61025ae37ef11b136ea224fe,,,,,,,,,2207,23,53,1,0,0,response1disk,,7,-5,4,1,0,0,rectangle,-5,4,1,0,0,-5,4,1,0,0,0,65,65,17,1,,,,,,,,
,,,,,,,,,,,,,FF,,,,,,,,0.683,,,,,,,,,,,,,,,,,,,,,,61005f4d17e5cdd0ad5748c8,61036c85c3c6720e195f440d,2021-07-29_23h06.18.948,Simcolourproject_2stim_asymm_v5,2020.2.10,MacIntel,60,61025ae37ef11b136ea224fe,,,,,,,,,1481,22,56,1,0,0,response1disk,,7,-3,-2,1,0,0,rectangle,-3,-2,1,0,0,-3,-2,1,0,0,0,66,66,45,1,,,,,,,,
,,,,,,,,,,,,,FF,,,,,,,,1.101,,,,,,,,,,,,,,,,,,,,,,61005f4d17e5cdd0ad5748c8,61036c85c3c6720e195f440d,2021-07-29_23h06.18.948,Simcolourproject_2stim_asymm_v5,2020.2.10,MacIntel,60,61025ae37ef11b136ea224fe,,,,,,,,,1607,37,-74,1,0,0,response3disk,,4,-9,5,1,0,0,rectangle,-9,5,1,0,0,-9,5,1,0,0,0,67,67,102,1,,,,,,,,
,,,,,,,,,,,,,FF,,,,,,,,1.017,,,,,,,,,,,,,,,,,,,,,,61005f4d17e5cdd0ad5748c8,61036c85c3c6720e195f440d,2021-07-29_23h06.18.948,Simcolourproject_2stim_asymm_v5,2020.2.10,MacIntel,60,61025ae37ef11b136ea224fe,,,,,,,,,3812,-41,-61,1,0,0,response5disk,,3,-11,2,1,0,0,rectangle,-11,2,1,0,0,-11,2,1,0,0,0,68,68,55,1,,,,,,,,
,,,,,,,,,,,,,FF,,,,,,,,0.583,,,,,,,,,,,,,,,,,,,,,,61005f4d17e5cdd0ad5748c8,61036c85c3c6720e195f440d,2021-07-29_23h06.18.948,Simcolourproject_2stim_asymm_v5,2020.2.10,MacIntel,60,61025ae37ef11b136ea224fe,,,,,,,,,2645,18,39,1,0,0,response1disk,,7,9,-3,1,0,0,rectangle,9,-3,1,0,0,9,-3,1,0,0,0,69,69,128,1,,,,,,,,
,,,,,,,,,,,,,FF,,,,,,,,0.633,,,,,,,,,,,,,,,,,,,,,,61005f4d17e5cdd0ad5748c8,61036c85c3c6720e195f440d,2021-07-29_23h06.18.948,Simcolourproject_2stim_asymm_v5,2020.2.10,MacIntel,60,61025ae37ef11b136ea224fe,,,,,,,,,3734,43,91,1,0,0,response1disk,,7,-7,5,1,0,0,rectangle,-7,5,1,0,0,-7,5,1,0,0,0,70,70,33,1,,,,,,,,
,,,,,,,,,,,,,FF,,,,,,,,1.067,,,,,,,,,,,,,,,,,,,,,,61005f4d17e5cdd0ad5748c8,61036c85c3c6720e195f440d,2021-07-29_23h06.18.948,Simcolourproject_2stim_asymm_v5,2020.2.10,MacIntel,60,61025ae37ef11b136ea224fe,,,,,,,,,2713,31,67,1,0,0,response1disk,,7,4,10,1,0,0,rectangle,4,10,1,0,0,4,10,1,0,0,0,71,71,63,1,,,,,,,,
,,,,,,,,,,,,,FF,,,,,,,,0.667,,,,,,,,,,,,,,,,,,,,,,61005f4d17e5cdd0ad5748c8,61036c85c3c6720e195f440d,2021-07-29_23h06.18.948,Simcolourproject_2stim_asymm_v5,2020.2.10,MacIntel,60,61025ae37ef11b136ea224fe,,,,,,,,,2907,29,59,1,0,0,response1disk,,7,-7,1,1,0,0,rectangle,60,-76,1,0,0,2,6,1,0,0,0,72,72,77,1,,response3disk_3,TRUE,4,4,"[265,73,310,161,321,88,85,309,234,63,229,118,21,277,243,139,323,258,91,149]",1.483,rectangle
,,,,,,,,,,,,,FF,,,,,,,,1.001,,,,,,,,,,,,,,,,,,,,,,61005f4d17e5cdd0ad5748c8,61036c85c3c6720e195f440d,2021-07-29_23h06.18.948,Simcolourproject_2stim_asymm_v5,2020.2.10,MacIntel,60,61025ae37ef11b136ea224fe,,,,,,,,,57,39,74,1,0,0,response1disk,,7,-6,1,1,0,0,rectangle,-6,1,1,0,0,-6,1,1,0,0,0,73,73,122,1,,,,,,,,
,,,,,,,,,,,,,FF,,,,,,,,0.734,,,,,,,,,,,,,,,,,,,,,,61005f4d17e5cdd0ad5748c8,61036c85c3c6720e195f440d,2021-07-29_23h06.18.948,Simcolourproject_2stim_asymm_v5,2020.2.10,MacIntel,60,61025ae37ef11b136ea224fe,,,,,,,,,1494,53,92,1,0,0,response1disk,,7,-3,5,1,0,0,rectangle,-3,5,1,0,0,-3,5,1,0,0,0,74,74,80,1,,,,,,,,
,,,,,,,,,,,,,FF,,,,,,,,1.232,,,,,,,,,,,,,,,,,,,,,,61005f4d17e5cdd0ad5748c8,61036c85c3c6720e195f440d,2021-07-29_23h06.18.948,Simcolourproject_2stim_asymm_v5,2020.2.10,MacIntel,60,61025ae37ef11b136ea224fe,,,,,,,,,3331,96,32,1,0,0,response1disk,,6,-11,-1,1,0,0,rectangle,-11,-1,1,0,0,-11,-1,1,0,0,0,75,75,132,1,,,,,,,,
,,,,,,,,,,,,,FF,,,,,,,,0.583,,,,,,,,,,,,,,,,,,,,,,61005f4d17e5cdd0ad5748c8,61036c85c3c6720e195f440d,2021-07-29_23h06.18.948,Simcolourproject_2stim_asymm_v5,2020.2.10,MacIntel,60,61025ae37ef11b136ea224fe,,,,,,,,,1260,42,67,1,0,0,response1disk,,7,1,7,1,0,0,rectangle,1,7,1,0,0,1,7,1,0,0,0,76,76,47,1,,,,,,,,
,,,,,,,,,,,,,FF,,,,,,,,1.883,,,,,,,,,,,,,,,,,,,,,,61005f4d17e5cdd0ad5748c8,61036c85c3c6720e195f440d,2021-07-29_23h06.18.948,Simcolourproject_2stim_asymm_v5,2020.2.10,MacIntel,60,61025ae37ef11b136ea224fe,,,,,,,,,1843,38,81,1,0,0,response1disk,,7,-2,-7,1,0,0,rectangle,-2,-7,1,0,0,-2,-7,1,0,0,0,77,77,91,1,,,,,,,,
,,,,,,,,,,,,,FF,,,,,,,,0.6,,,,,,,,,,,,,,,,,,,,,,61005f4d17e5cdd0ad5748c8,61036c85c3c6720e195f440d,2021-07-29_23h06.18.948,Simcolourproject_2stim_asymm_v5,2020.2.10,MacIntel,60,61025ae37ef11b136ea224fe,,,,,,,,,1182,38,53,1,0,0,response1disk,,7,-8,-6,1,0,0,rectangle,-8,-6,1,0,0,-8,-6,1,0,0,0,78,78,112,1,,,,,,,,
,,,,,,,,,,,,,FF,,,,,,,,0.634,,,,,,,,,,,,,,,,,,,,,,61005f4d17e5cdd0ad5748c8,61036c85c3c6720e195f440d,2021-07-29_23h06.18.948,Simcolourproject_2stim_asymm_v5,2020.2.10,MacIntel,60,61025ae37ef11b136ea224fe,,,,,,,,,419,36,95,1,0,0,response1disk,,7,-2,0,1,0,0,rectangle,-2,0,1,0,0,-2,0,1,0,0,0,79,79,150,1,,,,,,,,
,,,,,,,,,,,,,FF,,,,,,,,0.901,,,,,,,,,,,,,,,,,,,,,,61005f4d17e5cdd0ad5748c8,61036c85c3c6720e195f440d,2021-07-29_23h06.18.948,Simcolourproject_2stim_asymm_v5,2020.2.10,MacIntel,60,61025ae37ef11b136ea224fe,,,,,,,,,1754,59,-39,1,0,0,response3disk,,5,-4,-9,1,0,0,rectangle,-4,-9,1,0,0,-4,-9,1,0,0,0,80,80,104,1,,,,,,,,
,,,,,,,,,,,,,FF,,,,,,,,0.651,,,,,,,,,,,,,,,,,,,,,,61005f4d17e5cdd0ad5748c8,61036c85c3c6720e195f440d,2021-07-29_23h06.18.948,Simcolourproject_2stim_asymm_v5,2020.2.10,MacIntel,60,61025ae37ef11b136ea224fe,,,,,,,,,411,45,79,1,0,0,response1disk,,7,-2,-2,1,0,0,rectangle,-2,-2,1,0,0,-2,-2,1,0,0,0,81,81,105,1,,,,,,,,
,,,,,,,,,,,,,FF,,,,,,,,0.583,,,,,,,,,,,,,,,,,,,,,,61005f4d17e5cdd0ad5748c8,61036c85c3c6720e195f440d,2021-07-29_23h06.18.948,Simcolourproject_2stim_asymm_v5,2020.2.10,MacIntel,60,61025ae37ef11b136ea224fe,,,,,,,,,3841,33,75,1,0,0,response1disk,,7,-4,-8,1,0,0,rectangle,-4,-8,1,0,0,-4,-8,1,0,0,0,82,82,74,1,,,,,,,,
,,,,,,,,,,,,,FF,,,,,,,,0.633,,,,,,,,,,,,,,,,,,,,,,61005f4d17e5cdd0ad5748c8,61036c85c3c6720e195f440d,2021-07-29_23h06.18.948,Simcolourproject_2stim_asymm_v5,2020.2.10,MacIntel,60,61025ae37ef11b136ea224fe,,,,,,,,,1715,39,89,1,0,0,response1disk,,7,1,6,1,0,0,rectangle,1,6,1,0,0,1,6,1,0,0,0,83,83,0,1,,,,,,,,
,,,,,,,,,,,,,FF,,,,,,,,0.567,,,,,,,,,,,,,,,,,,,,,,61005f4d17e5cdd0ad5748c8,61036c85c3c6720e195f440d,2021-07-29_23h06.18.948,Simcolourproject_2stim_asymm_v5,2020.2.10,MacIntel,60,61025ae37ef11b136ea224fe,,,,,,,,,2494,35,69,1,0,0,response1disk,,7,1,6,1,0,0,rectangle,-68,26,1,0,0,-7,-1,1,0,0,0,84,84,31,1,,response7disk_3,TRUE,1,1,"[265,73,310,161,321,88,85,309,234,63,229,118,21,277,243,139,323,258,91,149]",1.549,rectangle
,,,,,,,,,,,,,FF,,,,,,,,0.883,,,,,,,,,,,,,,,,,,,,,,61005f4d17e5cdd0ad5748c8,61036c85c3c6720e195f440d,2021-07-29_23h06.18.948,Simcolourproject_2stim_asymm_v5,2020.2.10,MacIntel,60,61025ae37ef11b136ea224fe,,,,,,,,,610,-45,-75,1,0,0,response5disk,,3,-6,-4,1,0,0,rectangle,-6,-4,1,0,0,-6,-4,1,0,0,0,85,85,8,1,,,,,,,,
,,,,,,,,,,,,,FF,,,,,,,,0.682,,,,,,,,,,,,,,,,,,,,,,61005f4d17e5cdd0ad5748c8,61036c85c3c6720e195f440d,2021-07-29_23h06.18.948,Simcolourproject_2stim_asymm_v5,2020.2.10,MacIntel,60,61025ae37ef11b136ea224fe,,,,,,,,,250,38,64,1,0,0,response1disk,,7,-1,6,1,0,0,rectangle,-1,6,1,0,0,-1,6,1,0,0,0,86,86,32,1,,,,,,,,
,,,,,,,,,,,,,FF,,,,,,,,0.567,,,,,,,,,,,,,,,,,,,,,,61005f4d17e5cdd0ad5748c8,61036c85c3c6720e195f440d,2021-07-29_23h06.18.948,Simcolourproject_2stim_asymm_v5,2020.2.10,MacIntel,60,61025ae37ef11b136ea224fe,,,,,,,,,3648,34,80,1,0,0,response1disk,,7,-15,-10,1,0,0,rectangle,-26,71,1,0,0,-6,5,1,0,0,0,87,87,40,1,,response7disk_3,TRUE,0,0,"[265,73,310,161,321,88,85,309,234,63,229,118,21,277,243,139,323,258,91,149]",1.483,rectangle
,,,,,,,,,,,,,FF,,,,,,,,1.084,,,,,,,,,,,,,,,,,,,,,,61005f4d17e5cdd0ad5748c8,61036c85c3c6720e195f440d,2021-07-29_23h06.18.948,Simcolourproject_2stim_asymm_v5,2020.2.10,MacIntel,60,61025ae37ef11b136ea224fe,,,,,,,,,4294,-29,-50,1,0,0,response5disk,,3,-2,4,1,0,0,rectangle,-2,4,1,0,0,-2,4,1,0,0,0,88,88,125,1,,,,,,,,
,,,,,,,,,,,,,FF,,,,,,,,0.683,,,,,,,,,,,,,,,,,,,,,,61005f4d17e5cdd0ad5748c8,61036c85c3c6720e195f440d,2021-07-29_23h06.18.948,Simcolourproject_2stim_asymm_v5,2020.2.10,MacIntel,60,61025ae37ef11b136ea224fe,,,,,,,,,2191,46,72,1,0,0,response1disk,,7,-16,-11,1,0,0,rectangle,-16,-11,1,0,0,-16,-11,1,0,0,0,89,89,19,1,,,,,,,,
,,,,,,,,,,,,,FF,,,,,,,,0.666,,,,,,,,,,,,,,,,,,,,,,61005f4d17e5cdd0ad5748c8,61036c85c3c6720e195f440d,2021-07-29_23h06.18.948,Simcolourproject_2stim_asymm_v5,2020.2.10,MacIntel,60,61025ae37ef11b136ea224fe,,,,,,,,,2013,35,51,1,0,0,response1disk,,7,1,10,1,0,0,rectangle,-91,-43,1,0,0,-5,6,1,0,0,0,90,90,3,1,,response5disk_3,TRUE,2,2,"[265,73,310,161,321,88,85,309,234,63,229,118,21,277,243,139,323,258,91,149]",2.183,rectangle
,,,,,,,,,,,,,FF,,,,,,,,1.384,,,,,,,,,,,,,,,,,,,,,,61005f4d17e5cdd0ad5748c8,61036c85c3c6720e195f440d,2021-07-29_23h06.18.948,Simcolourproject_2stim_asymm_v5,2020.2.10,MacIntel,60,61025ae37ef11b136ea224fe,,,,,,,,,3108,50,-47,1,0,0,response3disk,,5,-1,-14,1,0,0,rectangle,-1,-14,1,0,0,-1,-14,1,0,0,0,91,91,123,1,,,,,,,,
,,,,,,,,,,,,,FF,,,,,,,,0.601,,,,,,,,,,,,,,,,,,,,,,61005f4d17e5cdd0ad5748c8,61036c85c3c6720e195f440d,2021-07-29_23h06.18.948,Simcolourproject_2stim_asymm_v5,2020.2.10,MacIntel,60,61025ae37ef11b136ea224fe,,,,,,,,,2217,25,58,1,0,0,response1disk,,7,1,11,1,0,0,rectangle,1,11,1,0,0,1,11,1,0,0,0,92,92,127,1,,,,,,,,
,,,,,,,,,,,,,FF,,,,,,,,0.784,,,,,,,,,,,,,,,,,,,,,,61005f4d17e5cdd0ad5748c8,61036c85c3c6720e195f440d,2021-07-29_23h06.18.948,Simcolourproject_2stim_asymm_v5,2020.2.10,MacIntel,60,61025ae37ef11b136ea224fe,,,,,,,,,2482,73,32,1,0,0,response1disk,,6,0,9,1,0,0,rectangle,0,9,1,0,0,0,9,1,0,0,0,93,93,140,1,,,,,,,,
,,,,,,,,,,,,,FF,,,,,,,,0.549,,,,,,,,,,,,,,,,,,,,,,61005f4d17e5cdd0ad5748c8,61036c85c3c6720e195f440d,2021-07-29_23h06.18.948,Simcolourproject_2stim_asymm_v5,2020.2.10,MacIntel,60,61025ae37ef11b136ea224fe,,,,,,,,,2408,37,73,1,0,0,response1disk,,7,3,8,1,0,0,rectangle,3,8,1,0,0,3,8,1,0,0,0,94,94,144,1,,,,,,,,
,,,,,,,,,,,,,FF,,,,,,,,0.666,,,,,,,,,,,,,,,,,,,,,,61005f4d17e5cdd0ad5748c8,61036c85c3c6720e195f440d,2021-07-29_23h06.18.948,Simcolourproject_2stim_asymm_v5,2020.2.10,MacIntel,60,61025ae37ef11b136ea224fe,,,,,,,,,1959,77,25,1,0,0,response1disk,,6,-8,-8,1,0,0,rectangle,-8,-8,1,0,0,-8,-8,1,0,0,0,95,95,149,1,,,,,,,,
,,,,,,,,,,,,,FF,,,,,,,,0.467,,,,,,,,,,,,,,,,,,,,,,61005f4d17e5cdd0ad5748c8,61036c85c3c6720e195f440d,2021-07-29_23h06.18.948,Simcolourproject_2stim_asymm_v5,2020.2.10,MacIntel,60,61025ae37ef11b136ea224fe,,,,,,,,,896,28,55,1,0,0,response1disk,,7,1,-1,1,0,0,rectangle,1,-1,1,0,0,1,-1,1,0,0,0,96,96,14,1,,,,,,,,
,,,,,,,,,,,,,FF,,,,,,,,0.734,,,,,,,,,,,,,,,,,,,,,,61005f4d17e5cdd0ad5748c8,61036c85c3c6720e195f440d,2021-07-29_23h06.18.948,Simcolourproject_2stim_asymm_v5,2020.2.10,MacIntel,60,61025ae37ef11b136ea224fe,,,,,,,,,4181,-42,79,1,0,0,response7disk,,0,-3,0,1,0,0,rectangle,-3,0,1,0,0,-3,0,1,0,0,0,97,97,114,1,,,,,,,,
,,,,,,,,,,,,,FF,,,,,,,,0.601,,,,,,,,,,,,,,,,,,,,,,61005f4d17e5cdd0ad5748c8,61036c85c3c6720e195f440d,2021-07-29_23h06.18.948,Simcolourproject_2stim_asymm_v5,2020.2.10,MacIntel,60,61025ae37ef11b136ea224fe,,,,,,,,,3654,41,101,1,0,0,response1disk,,7,8,-1,1,0,0,rectangle,8,-1,1,0,0,8,-1,1,0,0,0,98,98,145,1,,,,,,,,
,,,,,,,,,,,,,FF,,,,,,,,0.601,,,,,,,,,,,,,,,,,,,,,,61005f4d17e5cdd0ad5748c8,61036c85c3c6720e195f440d,2021-07-29_23h06.18.948,Simcolourproject_2stim_asymm_v5,2020.2.10,MacIntel,60,61025ae37ef11b136ea224fe,,,,,,,,,2385,29,67,1,0,0,response1disk,,7,1,7,1,0,0,rectangle,1,7,1,0,0,1,7,1,0,0,0,99,99,59,1,,,,,,,,
,,,,,,,,,,,,,FF,,,,,,,,1.466,,,,,,,,,,,,,,,,,,,,,,61005f4d17e5cdd0ad5748c8,61036c85c3c6720e195f440d,2021-07-29_23h06.18.948,Simcolourproject_2stim_asymm_v5,2020.2.10,MacIntel,60,61025ae37ef11b136ea224fe,,,,,,,,,2310,35,69,1,0,0,response1disk,,7,-3,-3,1,0,0,rectangle,-3,-3,1,0,0,-3,-3,1,0,0,0,100,100,139,1,,,,,,,,
,,,,,,,,,,,,,FF,,,,,,,,0.701,,,,,,,,,,,,,,,,,,,,,,61005f4d17e5cdd0ad5748c8,61036c85c3c6720e195f440d,2021-07-29_23h06.18.948,Simcolourproject_2stim_asymm_v5,2020.2.10,MacIntel,60,61025ae37ef11b136ea224fe,,,,,,,,,4218,-39,86,1,0,0,response7disk,,0,-6,3,1,0,0,rectangle,-6,3,1,0,0,-6,3,1,0,0,0,101,101,69,1,,,,,,,,
,,,,,,,,,,,,,FF,,,,,,,,0.516,,,,,,,,,,,,,,,,,,,,,,61005f4d17e5cdd0ad5748c8,61036c85c3c6720e195f440d,2021-07-29_23h06.18.948,Simcolourproject_2stim_asymm_v5,2020.2.10,MacIntel,60,61025ae37ef11b136ea224fe,,,,,,,,,616,25,56,1,0,0,response1disk,,7,-3,4,1,0,0,rectangle,-3,4,1,0,0,-3,4,1,0,0,0,102,102,10,1,,,,,,,,
,,,,,,,,,,,,,FF,,,,,,,,1.384,,,,,,,,,,,,,,,,,,,,,,61005f4d17e5cdd0ad5748c8,61036c85c3c6720e195f440d,2021-07-29_23h06.18.948,Simcolourproject_2stim_asymm_v5,2020.2.10,MacIntel,60,61025ae37ef11b136ea224fe,,,,,,,,,4147,32,-72,1,0,0,response3disk,,4,-5,5,1,0,0,rectangle,-5,5,1,0,0,-5,5,1,0,0,0,103,103,147,1,,,,,,,,
,,,,,,,,,,,,,FF,,,,,,,,0.6,,,,,,,,,,,,,,,,,,,,,,61005f4d17e5cdd0ad5748c8,61036c85c3c6720e195f440d,2021-07-29_23h06.18.948,Simcolourproject_2stim_asymm_v5,2020.2.10,MacIntel,60,61025ae37ef11b136ea224fe,,,,,,,,,3505,23,60,1,0,0,response1disk,,7,-13,-15,1,0,0,rectangle,-13,-15,1,0,0,-13,-15,1,0,0,0,104,104,20,1,,,,,,,,
,,,,,,,,,,,,,FF,,,,,,,,0.517,,,,,,,,,,,,,,,,,,,,,,61005f4d17e5cdd0ad5748c8,61036c85c3c6720e195f440d,2021-07-29_23h06.18.948,Simcolourproject_2stim_asymm_v5,2020.2.10,MacIntel,60,61025ae37ef11b136ea224fe,,,,,,,,,1989,35,52,1,0,0,response1disk,,7,-6,0,1,0,0,rectangle,-6,0,1,0,0,-6,0,1,0,0,0,105,105,119,1,,,,,,,,
,,,,,,,,,,,,,FF,,,,,,,,0.584,,,,,,,,,,,,,,,,,,,,,,61005f4d17e5cdd0ad5748c8,61036c85c3c6720e195f440d,2021-07-29_23h06.18.948,Simcolourproject_2stim_asymm_v5,2020.2.10,MacIntel,60,61025ae37ef11b136ea224fe,,,,,,,,,3495,24,49,1,0,0,response1disk,,7,-6,3,1,0,0,rectangle,-6,3,1,0,0,-6,3,1,0,0,0,106,106,44,1,,,,,,,,
,,,,,,,,,,,,,FF,,,,,,,,0.483,,,,,,,,,,,,,,,,,,,,,,61005f4d17e5cdd0ad5748c8,61036c85c3c6720e195f440d,2021-07-29_23h06.18.948,Simcolourproject_2stim_asymm_v5,2020.2.10,MacIntel,60,61025ae37ef11b136ea224fe,,,,,,,,,951,30,61,1,0,0,response1disk,,7,-1,-1,1,0,0,rectangle,-1,-1,1,0,0,-1,-1,1,0,0,0,107,107,27,1,,,,,,,,
,,,,,,,,,,,,,FF,,,,,,,,1.133,,,,,,,,,,,,,,,,,,,,,,61005f4d17e5cdd0ad5748c8,61036c85c3c6720e195f440d,2021-07-29_23h06.18.948,Simcolourproject_2stim_asymm_v5,2020.2.10,MacIntel,60,61025ae37ef11b136ea224fe,,,,,,,,,971,81,-41,1,0,0,response3disk,,5,-4,-5,1,0,0,rectangle,-4,-5,1,0,0,-4,-5,1,0,0,0,108,108,97,1,,,,,,,,
,,,,,,,,,,,,,FF,,,,,,,,0.451,,,,,,,,,,,,,,,,,,,,,,61005f4d17e5cdd0ad5748c8,61036c85c3c6720e195f440d,2021-07-29_23h06.18.948,Simcolourproject_2stim_asymm_v5,2020.2.10,MacIntel,60,61025ae37ef11b136ea224fe,,,,,,,,,1724,29,59,1,0,0,response1disk,,7,-6,3,1,0,0,rectangle,-6,3,1,0,0,-6,3,1,0,0,0,109,109,157,1,,,,,,,,
,,,,,,,,,,,,,FF,,,,,,,,0.418,,,,,,,,,,,,,,,,,,,,,,61005f4d17e5cdd0ad5748c8,61036c85c3c6720e195f440d,2021-07-29_23h06.18.948,Simcolourproject_2stim_asymm_v5,2020.2.10,MacIntel,60,61025ae37ef11b136ea224fe,,,,,,,,,3493,24,52,1,0,0,response1disk,,7,7,11,1,0,0,rectangle,7,11,1,0,0,7,11,1,0,0,0,110,110,96,1,,,,,,,,
,,,,,,,,,,,,,FF,,,,,,,,1.183,,,,,,,,,,,,,,,,,,,,,,61005f4d17e5cdd0ad5748c8,61036c85c3c6720e195f440d,2021-07-29_23h06.18.948,Simcolourproject_2stim_asymm_v5,2020.2.10,MacIntel,60,61025ae37ef11b136ea224fe,,,,,,,,,70,80,23,1,0,0,response1disk,,6,-10,-10,1,0,0,rectangle,-10,-10,1,0,0,-10,-10,1,0,0,0,111,111,28,1,,,,,,,,
,,,,,,,,,,,,,FF,,,,,,,,0.866,,,,,,,,,,,,,,,,,,,,,,61005f4d17e5cdd0ad5748c8,61036c85c3c6720e195f440d,2021-07-29_23h06.18.948,Simcolourproject_2stim_asymm_v5,2020.2.10,MacIntel,60,61025ae37ef11b136ea224fe,,,,,,,,,1286,69,27,1,0,0,response1disk,,6,-19,0,1,0,0,rectangle,-19,0,1,0,0,-19,0,1,0,0,0,112,112,117,1,,,,,,,,
,,,,,,,,,,,,,FF,,,,,,,,0.499,,,,,,,,,,,,,,,,,,,,,,61005f4d17e5cdd0ad5748c8,61036c85c3c6720e195f440d,2021-07-29_23h06.18.948,Simcolourproject_2stim_asymm_v5,2020.2.10,MacIntel,60,61025ae37ef11b136ea224fe,,,,,,,,,4342,38,49,1,0,0,response1disk,,7,-2,0,1,0,0,rectangle,-2,0,1,0,0,-2,0,1,0,0,0,113,113,5,1,,,,,,,,
,,,,,,,,,,,,,FF,,,,,,,,0.984,,,,,,,,,,,,,,,,,,,,,,61005f4d17e5cdd0ad5748c8,61036c85c3c6720e195f440d,2021-07-29_23h06.18.948,Simcolourproject_2stim_asymm_v5,2020.2.10,MacIntel,60,61025ae37ef11b136ea224fe,,,,,,,,,2604,72,-50,1,0,0,response3disk,,5,1,6,1,0,0,rectangle,1,6,1,0,0,1,6,1,0,0,0,114,114,136,1,,,,,,,,
,,,,,,,,,,,,,FF,,,,,,,,0.4,,,,,,,,,,,,,,,,,,,,,,61005f4d17e5cdd0ad5748c8,61036c85c3c6720e195f440d,2021-07-29_23h06.18.948,Simcolourproject_2stim_asymm_v5,2020.2.10,MacIntel,60,61025ae37ef11b136ea224fe,,,,,,,,,3119,38,62,1,0,0,response1disk,,7,-8,0,1,0,0,rectangle,-8,0,1,0,0,-8,0,1,0,0,0,115,115,22,1,,,,,,,,
,,,,,,,,,,,,,FF,,,,,,,,0.549,,,,,,,,,,,,,,,,,,,,,,61005f4d17e5cdd0ad5748c8,61036c85c3c6720e195f440d,2021-07-29_23h06.18.948,Simcolourproject_2stim_asymm_v5,2020.2.10,MacIntel,60,61025ae37ef11b136ea224fe,,,,,,,,,2496,33,60,1,0,0,response1disk,,7,-2,12,1,0,0,rectangle,-2,12,1,0,0,-2,12,1,0,0,0,116,116,88,1,,,,,,,,
,,,,,,,,,,,,,FF,,,,,,,,0.516,,,,,,,,,,,,,,,,,,,,,,61005f4d17e5cdd0ad5748c8,61036c85c3c6720e195f440d,2021-07-29_23h06.18.948,Simcolourproject_2stim_asymm_v5,2020.2.10,MacIntel,60,61025ae37ef11b136ea224fe,,,,,,,,,4276,36,61,1,0,0,response1disk,,7,-6,-1,1,0,0,rectangle,-33,-71,1,0,0,-4,2,1,0,0,0,117,117,76,1,,response5disk_3,TRUE,3,3,"[265,73,310,161,321,88,85,309,234,63,229,118,21,277,243,139,323,258,91,149]",2.016,rectangle
,,,,,,,,,,,,,FF,,,,,,,,0.734,,,,,,,,,,,,,,,,,,,,,,61005f4d17e5cdd0ad5748c8,61036c85c3c6720e195f440d,2021-07-29_23h06.18.948,Simcolourproject_2stim_asymm_v5,2020.2.10,MacIntel,60,61025ae37ef11b136ea224fe,,,,,,,,,166,19,54,1,0,0,response1disk,,7,12,13,1,0,0,rectangle,12,13,1,0,0,12,13,1,0,0,0,118,118,142,1,,,,,,,,
,,,,,,,,,,,,,FF,,,,,,,,0.45,,,,,,,,,,,,,,,,,,,,,,61005f4d17e5cdd0ad5748c8,61036c85c3c6720e195f440d,2021-07-29_23h06.18.948,Simcolourproject_2stim_asymm_v5,2020.2.10,MacIntel,60,61025ae37ef11b136ea224fe,,,,,,,,,1185,35,56,1,0,0,response1disk,,7,7,4,1,0,0,rectangle,7,4,1,0,0,7,4,1,0,0,0,119,119,65,1,,,,,,,,
,,,,,,,,,,,,,FF,,,,,,,,2.833,,,,,,,,,,,,,,,,,,,,,,61005f4d17e5cdd0ad5748c8,61036c85c3c6720e195f440d,2021-07-29_23h06.18.948,Simcolourproject_2stim_asymm_v5,2020.2.10,MacIntel,60,61025ae37ef11b136ea224fe,,,,,,,,,2688,37,64,1,0,0,response1disk,,7,2,12,1,0,0,rectangle,2,12,1,0,0,2,12,1,0,0,0,120,120,48,1,,,,,,,,
,,,,,,,,,,,,,FF,,,,,,,,0.485,,,,,,,,,,,,,,,,,,,,,,61005f4d17e5cdd0ad5748c8,61036c85c3c6720e195f440d,2021-07-29_23h06.18.948,Simcolourproject_2stim_asymm_v5,2020.2.10,MacIntel,60,61025ae37ef11b136ea224fe,,,,,,,,,2649,22,66,1,0,0,response1disk,,7,-1,6,1,0,0,rectangle,-1,6,1,0,0,-1,6,1,0,0,0,121,121,49,1,,,,,,,,
,,,,,,,,,,,,,FF,,,,,,,,0.467,,,,,,,,,,,,,,,,,,,,,,61005f4d17e5cdd0ad5748c8,61036c85c3c6720e195f440d,2021-07-29_23h06.18.948,Simcolourproject_2stim_asymm_v5,2020.2.10,MacIntel,60,61025ae37ef11b136ea224fe,,,,,,,,,476,38,80,1,0,0,response1disk,,7,2,6,1,0,0,rectangle,2,6,1,0,0,2,6,1,0,0,0,122,122,82,1,,,,,,,,
,,,,,,,,,,,,,FF,,,,,,,,1.815,,,,,,,,,,,,,,,,,,,,,,61005f4d17e5cdd0ad5748c8,61036c85c3c6720e195f440d,2021-07-29_23h06.18.948,Simcolourproject_2stim_asymm_v5,2020.2.10,MacIntel,60,61025ae37ef11b136ea224fe,,,,,,,,,1739,38,71,1,0,0,response1disk,,7,-14,-8,1,0,0,rectangle,-14,-8,1,0,0,-14,-8,1,0,0,0,123,123,64,1,,,,,,,,
,,,,,,,,,,,,,FF,,,,,,,,0.767,,,,,,,,,,,,,,,,,,,,,,61005f4d17e5cdd0ad5748c8,61036c85c3c6720e195f440d,2021-07-29_23h06.18.948,Simcolourproject_2stim_asymm_v5,2020.2.10,MacIntel,60,61025ae37ef11b136ea224fe,,,,,,,,,3847,60,30,1,0,0,response1disk,,6,2,1,1,0,0,rectangle,2,1,1,0,0,2,1,1,0,0,0,124,124,79,1,,,,,,,,
,,,,,,,,,,,,,FF,,,,,,,,0.45,,,,,,,,,,,,,,,,,,,,,,61005f4d17e5cdd0ad5748c8,61036c85c3c6720e195f440d,2021-07-29_23h06.18.948,Simcolourproject_2stim_asymm_v5,2020.2.10,MacIntel,60,61025ae37ef11b136ea224fe,,,,,,,,,2139,27,59,1,0,0,response1disk,,7,4,15,1,0,0,rectangle,4,15,1,0,0,4,15,1,0,0,0,125,125,135,1,,,,,,,,
,,,,,,,,,,,,,FF,,,,,,,,0.484,,,,,,,,,,,,,,,,,,,,,,61005f4d17e5cdd0ad5748c8,61036c85c3c6720e195f440d,2021-07-29_23h06.18.948,Simcolourproject_2stim_asymm_v5,2020.2.10,MacIntel,60,61025ae37ef11b136ea224fe,,,,,,,,,3062,20,68,1,0,0,response1disk,,7,0,6,1,0,0,rectangle,0,6,1,0,0,0,6,1,0,0,0,126,126,58,1,,,,,,,,
,,,,,,,,,,,,,FF,,,,,,,,0.501,,,,,,,,,,,,,,,,,,,,,,61005f4d17e5cdd0ad5748c8,61036c85c3c6720e195f440d,2021-07-29_23h06.18.948,Simcolourproject_2stim_asymm_v5,2020.2.10,MacIntel,60,61025ae37ef11b136ea224fe,,,,,,,,,3232,42,68,1,0,0,response1disk,,7,-2,3,1,0,0,rectangle,-2,3,1,0,0,-2,3,1,0,0,0,127,127,70,1,,,,,,,,
,,,,,,,,,,,,,FF,,,,,,,,0.516,,,,,,,,,,,,,,,,,,,,,,61005f4d17e5cdd0ad5748c8,61036c85c3c6720e195f440d,2021-07-29_23h06.18.948,Simcolourproject_2stim_asymm_v5,2020.2.10,MacIntel,60,61025ae37ef11b136ea224fe,,,,,,,,,2865,25,57,1,0,0,response1disk,,7,0,3,1,0,0,rectangle,0,3,1,0,0,0,3,1,0,0,0,128,128,71,1,,,,,,,,
,,,,,,,,,,,,,FF,,,,,,,,0.416,,,,,,,,,,,,,,,,,,,,,,61005f4d17e5cdd0ad5748c8,61036c85c3c6720e195f440d,2021-07-29_23h06.18.948,Simcolourproject_2stim_asymm_v5,2020.2.10,MacIntel,60,61025ae37ef11b136ea224fe,,,,,,,,,1851,37,76,1,0,0,response1disk,,7,2,1,1,0,0,rectangle,2,1,1,0,0,2,1,1,0,0,0,129,129,23,1,,,,,,,,
,,,,,,,,,,,,,FF,,,,,,,,0.351,,,,,,,,,,,,,,,,,,,,,,61005f4d17e5cdd0ad5748c8,61036c85c3c6720e195f440d,2021-07-29_23h06.18.948,Simcolourproject_2stim_asymm_v5,2020.2.10,MacIntel,60,61025ae37ef11b136ea224fe,,,,,,,,,3134,37,72,1,0,0,response1disk,,7,-9,-5,1,0,0,rectangle,-9,-5,1,0,0,-9,-5,1,0,0,0,130,130,129,1,,,,,,,,
,,,,,,,,,,,,,FF,,,,,,,,0.932,,,,,,,,,,,,,,,,,,,,,,61005f4d17e5cdd0ad5748c8,61036c85c3c6720e195f440d,2021-07-29_23h06.18.948,Simcolourproject_2stim_asymm_v5,2020.2.10,MacIntel,60,61025ae37ef11b136ea224fe,,,,,,,,,2233,-52,74,1,0,0,response7disk,,0,-16,0,1,0,0,rectangle,-16,0,1,0,0,-16,0,1,0,0,0,131,131,61,1,,,,,,,,
,,,,,,,,,,,,,FF,,,,,,,,0.351,,,,,,,,,,,,,,,,,,,,,,61005f4d17e5cdd0ad5748c8,61036c85c3c6720e195f440d,2021-07-29_23h06.18.948,Simcolourproject_2stim_asymm_v5,2020.2.10,MacIntel,60,61025ae37ef11b136ea224fe,,,,,,,,,1582,44,70,1,0,0,response1disk,,7,-5,-12,1,0,0,rectangle,-5,-12,1,0,0,-5,-12,1,0,0,0,132,132,159,1,,,,,,,,
,,,,,,,,,,,,,FF,,,,,,,,0.467,,,,,,,,,,,,,,,,,,,,,,61005f4d17e5cdd0ad5748c8,61036c85c3c6720e195f440d,2021-07-29_23h06.18.948,Simcolourproject_2stim_asymm_v5,2020.2.10,MacIntel,60,61025ae37ef11b136ea224fe,,,,,,,,,1066,34,61,1,0,0,response1disk,,7,-5,11,1,0,0,rectangle,-5,11,1,0,0,-5,11,1,0,0,0,133,133,90,1,,,,,,,,
,,,,,,,,,,,,,FF,,,,,,,,1.069,,,,,,,,,,,,,,,,,,,,,,61005f4d17e5cdd0ad5748c8,61036c85c3c6720e195f440d,2021-07-29_23h06.18.948,Simcolourproject_2stim_asymm_v5,2020.2.10,MacIntel,60,61025ae37ef11b136ea224fe,,,,,,,,,722,-110,-74,1,0,0,response5disk,,2,-12,-14,1,0,0,rectangle,-12,-14,1,0,0,-12,-14,1,0,0,0,134,134,68,1,,,,,,,,
,,,,,,,,,,,,,FF,,,,,,,,0.401,,,,,,,,,,,,,,,,,,,,,,61005f4d17e5cdd0ad5748c8,61036c85c3c6720e195f440d,2021-07-29_23h06.18.948,Simcolourproject_2stim_asymm_v5,2020.2.10,MacIntel,60,61025ae37ef11b136ea224fe,,,,,,,,,2089,20,57,1,0,0,response1disk,,7,0,-3,1,0,0,rectangle,0,-3,1,0,0,0,-3,1,0,0,0,135,135,37,1,,,,,,,,
,,,,,,,,,,,,,FF,,,,,,,,0.484,,,,,,,,,,,,,,,,,,,,,,61005f4d17e5cdd0ad5748c8,61036c85c3c6720e195f440d,2021-07-29_23h06.18.948,Simcolourproject_2stim_asymm_v5,2020.2.10,MacIntel,60,61025ae37ef11b136ea224fe,,,,,,,,,463,26,54,1,0,0,response1disk,,7,9,4,1,0,0,rectangle,9,4,1,0,0,9,4,1,0,0,0,136,136,120,1,,,,,,,,
,,,,,,,,,,,,,FF,,,,,,,,0.533,,,,,,,,,,,,,,,,,,,,,,61005f4d17e5cdd0ad5748c8,61036c85c3c6720e195f440d,2021-07-29_23h06.18.948,Simcolourproject_2stim_asymm_v5,2020.2.10,MacIntel,60,61025ae37ef11b136ea224fe,,,,,,,,,3962,23,56,1,0,0,response1disk,,7,2,6,1,0,0,rectangle,2,6,1,0,0,2,6,1,0,0,0,137,137,67,1,,,,,,,,
,,,,,,,,,,,,,FF,,,,,,,,0.435,,,,,,,,,,,,,,,,,,,,,,61005f4d17e5cdd0ad5748c8,61036c85c3c6720e195f440d,2021-07-29_23h06.18.948,Simcolourproject_2stim_asymm_v5,2020.2.10,MacIntel,60,61025ae37ef11b136ea224fe,,,,,,,,,4075,34,84,1,0,0,response1disk,,7,1,11,1,0,0,rectangle,-49,-104,1,0,0,3,-5,1,0,0,0,138,138,12,1,,response5disk_3,TRUE,3,3,"[265,73,310,161,321,88,85,309,234,63,229,118,21,277,243,139,323,258,91,149]",2.001,rectangle
,,,,,,,,,,,,,FF,,,,,,,,0.5,,,,,,,,,,,,,,,,,,,,,,61005f4d17e5cdd0ad5748c8,61036c85c3c6720e195f440d,2021-07-29_23h06.18.948,Simcolourproject_2stim_asymm_v5,2020.2.10,MacIntel,60,61025ae37ef11b136ea224fe,,,,,,,,,542,20,66,1,0,0,response1disk,,7,-5,3,1,0,0,rectangle,-5,3,1,0,0,-5,3,1,0,0,0,139,139,94,1,,,,,,,,
,,,,,,,,,,,,,FF,,,,,,,,0.517,,,,,,,,,,,,,,,,,,,,,,61005f4d17e5cdd0ad5748c8,61036c85c3c6720e195f440d,2021-07-29_23h06.18.948,Simcolourproject_2stim_asymm_v5,2020.2.10,MacIntel,60,61025ae37ef11b136ea224fe,,,,,,,,,3238,37,56,1,0,0,response1disk,,7,7,5,1,0,0,rectangle,7,5,1,0,0,7,5,1,0,0,0,140,140,95,1,,,,,,,,
,,,,,,,,,,,,,FF,,,,,,,,0.584,,,,,,,,,,,,,,,,,,,,,,61005f4d17e5cdd0ad5748c8,61036c85c3c6720e195f440d,2021-07-29_23h06.18.948,Simcolourproject_2stim_asymm_v5,2020.2.10,MacIntel,60,61025ae37ef11b136ea224fe,,,,,,,,,845,29,50,1,0,0,response1disk,,7,-2,1,1,0,0,rectangle,-2,1,1,0,0,-2,1,1,0,0,0,141,141,106,1,,,,,,,,
,,,,,,,,,,,,,FF,,,,,,,,0.849,,,,,,,,,,,,,,,,,,,,,,61005f4d17e5cdd0ad5748c8,61036c85c3c6720e195f440d,2021-07-29_23h06.18.948,Simcolourproject_2stim_asymm_v5,2020.2.10,MacIntel,60,61025ae37ef11b136ea224fe,,,,,,,,,1906,25,66,1,0,0,response1disk,,7,-21,-14,1,0,0,rectangle,-21,-14,1,0,0,-21,-14,1,0,0,0,142,142,21,1,,,,,,,,
,,,,,,,,,,,,,FF,,,,,,,,0.75,,,,,,,,,,,,,,,,,,,,,,61005f4d17e5cdd0ad5748c8,61036c85c3c6720e195f440d,2021-07-29_23h06.18.948,Simcolourproject_2stim_asymm_v5,2020.2.10,MacIntel,60,61025ae37ef11b136ea224fe,,,,,,,,,1592,27,40,1,0,0,response1disk,,7,1,8,1,0,0,rectangle,1,8,1,0,0,1,8,1,0,0,0,143,143,9,1,,,,,,,,
,,,,,,,,,,,,,FF,,,,,,,,0.451,,,,,,,,,,,,,,,,,,,,,,61005f4d17e5cdd0ad5748c8,61036c85c3c6720e195f440d,2021-07-29_23h06.18.948,Simcolourproject_2stim_asymm_v5,2020.2.10,MacIntel,60,61025ae37ef11b136ea224fe,,,,,,,,,3839,25,60,1,0,0,response1disk,,7,-4,3,1,0,0,rectangle,-4,3,1,0,0,-4,3,1,0,0,0,144,144,158,1,,,,,,,,
,,,,,,,,,,,,,FF,,,,,,,,0.766,,,,,,,,,,,,,,,,,,,,,,61005f4d17e5cdd0ad5748c8,61036c85c3c6720e195f440d,2021-07-29_23h06.18.948,Simcolourproject_2stim_asymm_v5,2020.2.10,MacIntel,60,61025ae37ef11b136ea224fe,,,,,,,,,44,24,57,1,0,0,response1disk,,7,-8,-1,1,0,0,rectangle,-8,-1,1,0,0,-8,-1,1,0,0,0,145,145,143,1,,,,,,,,
,,,,,,,,,,,,,FF,,,,,,,,0.717,,,,,,,,,,,,,,,,,,,,,,61005f4d17e5cdd0ad5748c8,61036c85c3c6720e195f440d,2021-07-29_23h06.18.948,Simcolourproject_2stim_asymm_v5,2020.2.10,MacIntel,60,61025ae37ef11b136ea224fe,,,,,,,,,2832,-41,60,1,0,0,response7disk,,0,9,-8,1,0,0,rectangle,9,-8,1,0,0,9,-8,1,0,0,0,146,146,86,1,,,,,,,,
,,,,,,,,,,,,,FF,,,,,,,,1.149,,,,,,,,,,,,,,,,,,,,,,61005f4d17e5cdd0ad5748c8,61036c85c3c6720e195f440d,2021-07-29_23h06.18.948,Simcolourproject_2stim_asymm_v5,2020.2.10,MacIntel,60,61025ae37ef11b136ea224fe,,,,,,,,,2365,-55,-77,1,0,0,response5disk,,3,-13,-4,1,0,0,rectangle,-13,-4,1,0,0,-13,-4,1,0,0,0,147,147,35,1,,,,,,,,
,,,,,,,,,,,,,FF,,,,,,,,0.517,,,,,,,,,,,,,,,,,,,,,,61005f4d17e5cdd0ad5748c8,61036c85c3c6720e195f440d,2021-07-29_23h06.18.948,Simcolourproject_2stim_asymm_v5,2020.2.10,MacIntel,60,61025ae37ef11b136ea224fe,,,,,,,,,1721,19,59,1,0,0,response1disk,,7,2,11,1,0,0,rectangle,-76,37,1,0,0,-1,2,1,0,0,0,148,148,110,1,,response7disk_3,TRUE,1,1,"[265,73,310,161,321,88,85,309,234,63,229,118,21,277,243,139,323,258,91,149]",1.384,rectangle
,,,,,,,,,,,,,FF,,,,,,,,0.532,,,,,,,,,,,,,,,,,,,,,,61005f4d17e5cdd0ad5748c8,61036c85c3c6720e195f440d,2021-07-29_23h06.18.948,Simcolourproject_2stim_asymm_v5,2020.2.10,MacIntel,60,61025ae37ef11b136ea224fe,,,,,,,,,421,36,72,1,0,0,response1disk,,7,0,1,1,0,0,rectangle,0,1,1,0,0,0,1,1,0,0,0,149,149,153,1,,,,,,,,
,,,,,,,,,,,,,FF,,,,,,,,0.483,,,,,,,,,,,,,,,,,,,,,,61005f4d17e5cdd0ad5748c8,61036c85c3c6720e195f440d,2021-07-29_23h06.18.948,Simcolourproject_2stim_asymm_v5,2020.2.10,MacIntel,60,61025ae37ef11b136ea224fe,,,,,,,,,87,28,56,1,0,0,response1disk,,7,6,0,1,0,0,rectangle,6,0,1,0,0,6,0,1,0,0,0,150,150,121,1,,,,,,,,
,,,,,,,,,,,,,FF,,,,,,,,0.416,,,,,,,,,,,,,,,,,,,,,,61005f4d17e5cdd0ad5748c8,61036c85c3c6720e195f440d,2021-07-29_23h06.18.948,Simcolourproject_2stim_asymm_v5,2020.2.10,MacIntel,60,61025ae37ef11b136ea224fe,,,,,,,,,3646,37,64,1,0,0,response1disk,,7,7,2,1,0,0,rectangle,7,2,1,0,0,7,2,1,0,0,0,151,151,66,1,,,,,,,,
,,,,,,,,,,,,,FF,,,,,,,,0.85,,,,,,,,,,,,,,,,,,,,,,61005f4d17e5cdd0ad5748c8,61036c85c3c6720e195f440d,2021-07-29_23h06.18.948,Simcolourproject_2stim_asymm_v5,2020.2.10,MacIntel,60,61025ae37ef11b136ea224fe,,,,,,,,,3249,36,-46,1,0,0,response3disk,,4,2,-7,1,0,0,rectangle,2,-7,1,0,0,2,-7,1,0,0,0,152,152,56,1,,,,,,,,
,,,,,,,,,,,,,FF,,,,,,,,0.433,,,,,,,,,,,,,,,,,,,,,,61005f4d17e5cdd0ad5748c8,61036c85c3c6720e195f440d,2021-07-29_23h06.18.948,Simcolourproject_2stim_asymm_v5,2020.2.10,MacIntel,60,61025ae37ef11b136ea224fe,,,,,,,,,2485,22,52,1,0,0,response1disk,,7,-2,2,1,0,0,rectangle,-2,2,1,0,0,-2,2,1,0,0,0,153,153,115,1,,,,,,,,
,,,,,,,,,,,,,FF,,,,,,,,0.549,,,,,,,,,,,,,,,,,,,,,,61005f4d17e5cdd0ad5748c8,61036c85c3c6720e195f440d,2021-07-29_23h06.18.948,Simcolourproject_2stim_asymm_v5,2020.2.10,MacIntel,60,61025ae37ef11b136ea224fe,,,,,,,,,3526,21,50,1,0,0,response1disk,,7,3,2,1,0,0,rectangle,3,2,1,0,0,3,2,1,0,0,0,154,154,1,1,,,,,,,,
,,,,,,,,,,,,,FF,,,,,,,,0.583,,,,,,,,,,,,,,,,,,,,,,61005f4d17e5cdd0ad5748c8,61036c85c3c6720e195f440d,2021-07-29_23h06.18.948,Simcolourproject_2stim_asymm_v5,2020.2.10,MacIntel,60,61025ae37ef11b136ea224fe,,,,,,,,,3634,40,76,1,0,0,response1disk,,7,-9,0,1,0,0,rectangle,-9,0,1,0,0,-9,0,1,0,0,0,155,155,36,1,,,,,,,,
,,,,,,,,,,,,,FF,,,,,,,,0.4,,,,,,,,,,,,,,,,,,,,,,61005f4d17e5cdd0ad5748c8,61036c85c3c6720e195f440d,2021-07-29_23h06.18.948,Simcolourproject_2stim_asymm_v5,2020.2.10,MacIntel,60,61025ae37ef11b136ea224fe,,,,,,,,,1024,44,63,1,0,0,response1disk,,7,0,8,1,0,0,rectangle,0,8,1,0,0,0,8,1,0,0,0,156,156,84,1,,,,,,,,
,,,,,,,,,,,,,FF,,,,,,,,0.383,,,,,,,,,,,,,,,,,,,,,,61005f4d17e5cdd0ad5748c8,61036c85c3c6720e195f440d,2021-07-29_23h06.18.948,Simcolourproject_2stim_asymm_v5,2020.2.10,MacIntel,60,61025ae37ef11b136ea224fe,,,,,,,,,2343,37,61,1,0,0,response1disk,,7,1,15,1,0,0,rectangle,1,15,1,0,0,1,15,1,0,0,0,157,157,18,1,,,,,,,,
,,,,,,,,,,,,,FF,,,,,,,,0.419,,,,,,,,,,,,,,,,,,,,,,61005f4d17e5cdd0ad5748c8,61036c85c3c6720e195f440d,2021-07-29_23h06.18.948,Simcolourproject_2stim_asymm_v5,2020.2.10,MacIntel,60,61025ae37ef11b136ea224fe,,,,,,,,,2256,39,68,1,0,0,response1disk,,7,3,4,1,0,0,rectangle,3,4,1,0,0,3,4,1,0,0,0,158,158,148,1,,,,,,,,
,,,,,,,,,,,,,FF,,,,,,,,0.467,,,,,,,,,,,,,,,,,,,,,,61005f4d17e5cdd0ad5748c8,61036c85c3c6720e195f440d,2021-07-29_23h06.18.948,Simcolourproject_2stim_asymm_v5,2020.2.10,MacIntel,60,61025ae37ef11b136ea224fe,,,,,,,,,3082,31,58,1,0,0,response1disk,,7,2,11,1,0,0,rectangle,2,11,1,0,0,2,11,1,0,0,0,159,159,15,1,,,,,,,,
,,,,,,,,,,,,,FF,,,,,,,,1.033,,,,,,,,,,,,,,,,,,,,,,61005f4d17e5cdd0ad5748c8,61036c85c3c6720e195f440d,2021-07-29_23h06.18.948,Simcolourproject_2stim_asymm_v5,2020.2.10,MacIntel,60,61025ae37ef11b136ea224fe,,,,,,,,,1946,23,54,1,0,0,response1disk,,7,-9,-14,1,0,0,rectangle,69,-43,1,0,0,2,-5,1,0,0,1,0,160,83,1,,response3disk_3,TRUE,5,5,"[265,73,310,161,321,88,85,309,234,63,229,118,21,277,243,139,323,258,91,149]",1.316,rectangle
,,,,,,,,,,,,,FF,,,,,,,,3.367,,,,,,,,,,,,,,,,,,,,,,61005f4d17e5cdd0ad5748c8,61036c85c3c6720e195f440d,2021-07-29_23h06.18.948,Simcolourproject_2stim_asymm_v5,2020.2.10,MacIntel,60,61025ae37ef11b136ea224fe,,,,,,,,,2771,41,77,1,0,0,response1disk,,7,-5,5,1,0,0,rectangle,-5,5,1,0,0,-5,5,1,0,0,1,1,161,133,1,,,,,,,,
,,,,,,,,,,,,,FF,,,,,,,,0.931,,,,,,,,,,,,,,,,,,,,,,61005f4d17e5cdd0ad5748c8,61036c85c3c6720e195f440d,2021-07-29_23h06.18.948,Simcolourproject_2stim_asymm_v5,2020.2.10,MacIntel,60,61025ae37ef11b136ea224fe,,,,,,,,,4106,51,-63,1,0,0,response3disk,,4,-3,-12,1,0,0,rectangle,-3,-12,1,0,0,-3,-12,1,0,0,1,2,162,98,1,,,,,,,,
,,,,,,,,,,,,,FF,,,,,,,,0.482,,,,,,,,,,,,,,,,,,,,,,61005f4d17e5cdd0ad5748c8,61036c85c3c6720e195f440d,2021-07-29_23h06.18.948,Simcolourproject_2stim_asymm_v5,2020.2.10,MacIntel,60,61025ae37ef11b136ea224fe,,,,,,,,,2289,25,49,1,0,0,response1disk,,7,-12,-5,1,0,0,rectangle,-12,-5,1,0,0,-12,-5,1,0,0,1,3,163,42,1,,,,,,,,
,,,,,,,,,,,,,FF,,,,,,,,0.499,,,,,,,,,,,,,,,,,,,,,,61005f4d17e5cdd0ad5748c8,61036c85c3c6720e195f440d,2021-07-29_23h06.18.948,Simcolourproject_2stim_asymm_v5,2020.2.10,MacIntel,60,61025ae37ef11b136ea224fe,,,,,,,,,2867,16,47,1,0,0,response1disk,,7,2,9,1,0,0,rectangle,2,9,1,0,0,2,9,1,0,0,1,4,164,118,1,,,,,,,,
,,,,,,,,,,,,,FF,,,,,,,,0.484,,,,,,,,,,,,,,,,,,,,,,61005f4d17e5cdd0ad5748c8,61036c85c3c6720e195f440d,2021-07-29_23h06.18.948,Simcolourproject_2stim_asymm_v5,2020.2.10,MacIntel,60,61025ae37ef11b136ea224fe,,,,,,,,,3609,40,57,1,0,0,response1disk,,7,2,5,1,0,0,rectangle,2,5,1,0,0,2,5,1,0,0,1,5,165,48,1,,,,,,,,
,,,,,,,,,,,,,FF,,,,,,,,0.5,,,,,,,,,,,,,,,,,,,,,,61005f4d17e5cdd0ad5748c8,61036c85c3c6720e195f440d,2021-07-29_23h06.18.948,Simcolourproject_2stim_asymm_v5,2020.2.10,MacIntel,60,61025ae37ef11b136ea224fe,,,,,,,,,3021,36,67,1,0,0,response1disk,,7,-6,-3,1,0,0,rectangle,-6,-3,1,0,0,-6,-3,1,0,0,1,6,166,145,1,,,,,,,,
,,,,,,,,,,,,,FF,,,,,,,,0.434,,,,,,,,,,,,,,,,,,,,,,61005f4d17e5cdd0ad5748c8,61036c85c3c6720e195f440d,2021-07-29_23h06.18.948,Simcolourproject_2stim_asymm_v5,2020.2.10,MacIntel,60,61025ae37ef11b136ea224fe,,,,,,,,,817,41,55,1,0,0,response1disk,,7,1,-12,1,0,0,rectangle,1,-12,1,0,0,1,-12,1,0,0,1,7,167,142,1,,,,,,,,
,,,,,,,,,,,,,FF,,,,,,,,0.451,,,,,,,,,,,,,,,,,,,,,,61005f4d17e5cdd0ad5748c8,61036c85c3c6720e195f440d,2021-07-29_23h06.18.948,Simcolourproject_2stim_asymm_v5,2020.2.10,MacIntel,60,61025ae37ef11b136ea224fe,,,,,,,,,1238,32,65,1,0,0,response1disk,,7,21,7,1,0,0,rectangle,21,7,1,0,0,21,7,1,0,0,1,8,168,81,1,,,,,,,,
,,,,,,,,,,,,,FF,,,,,,,,0.399,,,,,,,,,,,,,,,,,,,,,,61005f4d17e5cdd0ad5748c8,61036c85c3c6720e195f440d,2021-07-29_23h06.18.948,Simcolourproject_2stim_asymm_v5,2020.2.10,MacIntel,60,61025ae37ef11b136ea224fe,,,,,,,,,4010,36,61,1,0,0,response1disk,,7,13,8,1,0,0,rectangle,13,8,1,0,0,13,8,1,0,0,1,9,169,104,1,,,,,,,,
,,,,,,,,,,,,,FF,,,,,,,,0.366,,,,,,,,,,,,,,,,,,,,,,61005f4d17e5cdd0ad5748c8,61036c85c3c6720e195f440d,2021-07-29_23h06.18.948,Simcolourproject_2stim_asymm_v5,2020.2.10,MacIntel,60,61025ae37ef11b136ea224fe,,,,,,,,,3299,35,70,1,0,0,response1disk,,7,-13,-6,1,0,0,rectangle,-13,-6,1,0,0,-13,-6,1,0,0,1,10,170,119,1,,,,,,,,
,,,,,,,,,,,,,FF,,,,,,,,0.316,,,,,,,,,,,,,,,,,,,,,,61005f4d17e5cdd0ad5748c8,61036c85c3c6720e195f440d,2021-07-29_23h06.18.948,Simcolourproject_2stim_asymm_v5,2020.2.10,MacIntel,60,61025ae37ef11b136ea224fe,,,,,,,,,778,28,49,1,0,0,response1disk,,7,6,-3,1,0,0,rectangle,6,-3,1,0,0,6,-3,1,0,0,1,11,171,139,1,,,,,,,,
,,,,,,,,,,,,,FF,,,,,,,,0.399,,,,,,,,,,,,,,,,,,,,,,61005f4d17e5cdd0ad5748c8,61036c85c3c6720e195f440d,2021-07-29_23h06.18.948,Simcolourproject_2stim_asymm_v5,2020.2.10,MacIntel,60,61025ae37ef11b136ea224fe,,,,,,,,,1564,35,59,1,0,0,response1disk,,7,-6,-3,1,0,0,rectangle,-6,-3,1,0,0,-6,-3,1,0,0,1,12,172,78,1,,,,,,,,
,,,,,,,,,,,,,FF,,,,,,,,0.517,,,,,,,,,,,,,,,,,,,,,,61005f4d17e5cdd0ad5748c8,61036c85c3c6720e195f440d,2021-07-29_23h06.18.948,Simcolourproject_2stim_asymm_v5,2020.2.10,MacIntel,60,61025ae37ef11b136ea224fe,,,,,,,,,3420,24,54,1,0,0,response1disk,,7,-7,-6,1,0,0,rectangle,-7,-6,1,0,0,-7,-6,1,0,0,1,13,173,43,1,,,,,,,,
,,,,,,,,,,,,,FF,,,,,,,,0.5,,,,,,,,,,,,,,,,,,,,,,61005f4d17e5cdd0ad5748c8,61036c85c3c6720e195f440d,2021-07-29_23h06.18.948,Simcolourproject_2stim_asymm_v5,2020.2.10,MacIntel,60,61025ae37ef11b136ea224fe,,,,,,,,,1415,27,60,1,0,0,response1disk,,7,-1,5,1,0,0,rectangle,-1,5,1,0,0,-1,5,1,0,0,1,14,174,16,1,,,,,,,,
,,,,,,,,,,,,,FF,,,,,,,,0.483,,,,,,,,,,,,,,,,,,,,,,61005f4d17e5cdd0ad5748c8,61036c85c3c6720e195f440d,2021-07-29_23h06.18.948,Simcolourproject_2stim_asymm_v5,2020.2.10,MacIntel,60,61025ae37ef11b136ea224fe,,,,,,,,,2878,36,55,1,0,0,response1disk,,7,14,9,1,0,0,rectangle,14,9,1,0,0,14,9,1,0,0,1,15,175,156,1,,,,,,,,
,,,,,,,,,,,,,FF,,,,,,,,0.384,,,,,,,,,,,,,,,,,,,,,,61005f4d17e5cdd0ad5748c8,61036c85c3c6720e195f440d,2021-07-29_23h06.18.948,Simcolourproject_2stim_asymm_v5,2020.2.10,MacIntel,60,61025ae37ef11b136ea224fe,,,,,,,,,4173,24,50,1,0,0,response1disk,,7,-1,-1,1,0,0,rectangle,-1,-1,1,0,0,-1,-1,1,0,0,1,16,176,20,1,,,,,,,,
,,,,,,,,,,,,,FF,,,,,,,,1.767,,,,,,,,,,,,,,,,,,,,,,61005f4d17e5cdd0ad5748c8,61036c85c3c6720e195f440d,2021-07-29_23h06.18.948,Simcolourproject_2stim_asymm_v5,2020.2.10,MacIntel,60,61025ae37ef11b136ea224fe,,,,,,,,,3396,43,-76,1,0,0,response3disk,,4,-4,2,1,0,0,rectangle,-4,2,1,0,0,-4,2,1,0,0,1,17,177,149,1,,,,,,,,
,,,,,,,,,,,,,FF,,,,,,,,0.35,,,,,,,,,,,,,,,,,,,,,,61005f4d17e5cdd0ad5748c8,61036c85c3c6720e195f440d,2021-07-29_23h06.18.948,Simcolourproject_2stim_asymm_v5,2020.2.10,MacIntel,60,61025ae37ef11b136ea224fe,,,,,,,,,2639,28,47,1,0,0,response1disk,,7,-8,-8,1,0,0,rectangle,-8,-8,1,0,0,-8,-8,1,0,0,1,18,178,94,1,,,,,,,,
,,,,,,,,,,,,,FF,,,,,,,,1.133,,,,,,,,,,,,,,,,,,,,,,61005f4d17e5cdd0ad5748c8,61036c85c3c6720e195f440d,2021-07-29_23h06.18.948,Simcolourproject_2stim_asymm_v5,2020.2.10,MacIntel,60,61025ae37ef11b136ea224fe,,,,,,,,,3284,76,-39,1,0,0,response3disk,,5,15,1,1,0,0,rectangle,15,1,1,0,0,15,1,1,0,0,1,19,179,95,1,,,,,,,,
,,,,,,,,,,,,,FF,,,,,,,,0.6,,,,,,,,,,,,,,,,,,,,,,61005f4d17e5cdd0ad5748c8,61036c85c3c6720e195f440d,2021-07-29_23h06.18.948,Simcolourproject_2stim_asymm_v5,2020.2.10,MacIntel,60,61025ae37ef11b136ea224fe,,,,,,,,,320,23,56,1,0,0,response1disk,,7,7,7,1,0,0,rectangle,7,7,1,0,0,7,7,1,0,0,1,20,180,77,1,,,,,,,,
,,,,,,,,,,,,,FF,,,,,,,,0.449,,,,,,,,,,,,,,,,,,,,,,61005f4d17e5cdd0ad5748c8,61036c85c3c6720e195f440d,2021-07-29_23h06.18.948,Simcolourproject_2stim_asymm_v5,2020.2.10,MacIntel,60,61025ae37ef11b136ea224fe,,,,,,,,,4304,20,58,1,0,0,response1disk,,7,0,4,1,0,0,rectangle,0,4,1,0,0,0,4,1,0,0,1,21,181,115,1,,,,,,,,
,,,,,,,,,,,,,FF,,,,,,,,0.517,,,,,,,,,,,,,,,,,,,,,,61005f4d17e5cdd0ad5748c8,61036c85c3c6720e195f440d,2021-07-29_23h06.18.948,Simcolourproject_2stim_asymm_v5,2020.2.10,MacIntel,60,61025ae37ef11b136ea224fe,,,,,,,,,2896,21,45,1,0,0,response1disk,,7,-13,-3,1,0,0,rectangle,-13,-3,1,0,0,-13,-3,1,0,0,1,22,182,32,1,,,,,,,,
,,,,,,,,,,,,,FF,,,,,,,,0.45,,,,,,,,,,,,,,,,,,,,,,61005f4d17e5cdd0ad5748c8,61036c85c3c6720e195f440d,2021-07-29_23h06.18.948,Simcolourproject_2stim_asymm_v5,2020.2.10,MacIntel,60,61025ae37ef11b136ea224fe,,,,,,,,,3421,31,45,1,0,0,response1disk,,7,-3,-11,1,0,0,rectangle,-3,-11,1,0,0,-3,-11,1,0,0,1,23,183,49,1,,,,,,,,
,,,,,,,,,,,,,FF,,,,,,,,0.466,,,,,,,,,,,,,,,,,,,,,,61005f4d17e5cdd0ad5748c8,61036c85c3c6720e195f440d,2021-07-29_23h06.18.948,Simcolourproject_2stim_asymm_v5,2020.2.10,MacIntel,60,61025ae37ef11b136ea224fe,,,,,,,,,2049,17,44,1,0,0,response1disk,,7,3,3,1,0,0,rectangle,3,3,1,0,0,3,3,1,0,0,1,24,184,107,1,,,,,,,,
,,,,,,,,,,,,,FF,,,,,,,,0.401,,,,,,,,,,,,,,,,,,,,,,61005f4d17e5cdd0ad5748c8,61036c85c3c6720e195f440d,2021-07-29_23h06.18.948,Simcolourproject_2stim_asymm_v5,2020.2.10,MacIntel,60,61025ae37ef11b136ea224fe,,,,,,,,,1029,34,49,1,0,0,response1disk,,7,11,13,1,0,0,rectangle,11,13,1,0,0,11,13,1,0,0,1,25,185,121,1,,,,,,,,
,,,,,,,,,,,,,FF,,,,,,,,0.333,,,,,,,,,,,,,,,,,,,,,,61005f4d17e5cdd0ad5748c8,61036c85c3c6720e195f440d,2021-07-29_23h06.18.948,Simcolourproject_2stim_asymm_v5,2020.2.10,MacIntel,60,61025ae37ef11b136ea224fe,,,,,,,,,1011,28,47,1,0,0,response1disk,,7,14,6,1,0,0,rectangle,14,6,1,0,0,14,6,1,0,0,1,26,186,21,1,,,,,,,,
,,,,,,,,,,,,,FF,,,,,,,,1.085,,,,,,,,,,,,,,,,,,,,,,61005f4d17e5cdd0ad5748c8,61036c85c3c6720e195f440d,2021-07-29_23h06.18.948,Simcolourproject_2stim_asymm_v5,2020.2.10,MacIntel,60,61025ae37ef11b136ea224fe,,,,,,,,,2033,-56,-41,1,0,0,response5disk,,2,-5,-6,1,0,0,rectangle,-5,-6,1,0,0,-5,-6,1,0,0,1,27,187,116,1,,,,,,,,
,,,,,,,,,,,,,FF,,,,,,,,0.767,,,,,,,,,,,,,,,,,,,,,,61005f4d17e5cdd0ad5748c8,61036c85c3c6720e195f440d,2021-07-29_23h06.18.948,Simcolourproject_2stim_asymm_v5,2020.2.10,MacIntel,60,61025ae37ef11b136ea224fe,,,,,,,,,3956,26,63,1,0,0,response1disk,,7,-2,12,1,0,0,rectangle,-2,12,1,0,0,-2,12,1,0,0,1,28,188,14,1,,,,,,,,
,,,,,,,,,,,,,FF,,,,,,,,0.466,,,,,,,,,,,,,,,,,,,,,,61005f4d17e5cdd0ad5748c8,61036c85c3c6720e195f440d,2021-07-29_23h06.18.948,Simcolourproject_2stim_asymm_v5,2020.2.10,MacIntel,60,61025ae37ef11b136ea224fe,,,,,,,,,2111,33,71,1,0,0,response1disk,,7,-3,8,1,0,0,rectangle,-3,8,1,0,0,-3,8,1,0,0,1,29,189,100,1,,,,,,,,
,,,,,,,,,,,,,FF,,,,,,,,0.418,,,,,,,,,,,,,,,,,,,,,,61005f4d17e5cdd0ad5748c8,61036c85c3c6720e195f440d,2021-07-29_23h06.18.948,Simcolourproject_2stim_asymm_v5,2020.2.10,MacIntel,60,61025ae37ef11b136ea224fe,,,,,,,,,648,24,50,1,0,0,response1disk,,7,11,1,1,0,0,rectangle,11,1,1,0,0,11,1,1,0,0,1,30,190,58,1,,,,,,,,
,,,,,,,,,,,,,FF,,,,,,,,0.417,,,,,,,,,,,,,,,,,,,,,,61005f4d17e5cdd0ad5748c8,61036c85c3c6720e195f440d,2021-07-29_23h06.18.948,Simcolourproject_2stim_asymm_v5,2020.2.10,MacIntel,60,61025ae37ef11b136ea224fe,,,,,,,,,1279,26,55,1,0,0,response1disk,,7,2,8,1,0,0,rectangle,2,8,1,0,0,2,8,1,0,0,1,31,191,113,1,,,,,,,,
,,,,,,,,,,,,,FF,,,,,,,,0.384,,,,,,,,,,,,,,,,,,,,,,61005f4d17e5cdd0ad5748c8,61036c85c3c6720e195f440d,2021-07-29_23h06.18.948,Simcolourproject_2stim_asymm_v5,2020.2.10,MacIntel,60,61025ae37ef11b136ea224fe,,,,,,,,,2406,31,50,1,0,0,response1disk,,7,-3,-14,1,0,0,rectangle,-3,-14,1,0,0,-3,-14,1,0,0,1,32,192,117,1,,,,,,,,
,,,,,,,,,,,,,FF,,,,,,,,0.569,,,,,,,,,,,,,,,,,,,,,,61005f4d17e5cdd0ad5748c8,61036c85c3c6720e195f440d,2021-07-29_23h06.18.948,Simcolourproject_2stim_asymm_v5,2020.2.10,MacIntel,60,61025ae37ef11b136ea224fe,,,,,,,,,3934,33,48,1,0,0,response1disk,,7,7,10,1,0,0,rectangle,7,10,1,0,0,7,10,1,0,0,1,33,193,148,1,,,,,,,,
,,,,,,,,,,,,,FF,,,,,,,,0.683,,,,,,,,,,,,,,,,,,,,,,61005f4d17e5cdd0ad5748c8,61036c85c3c6720e195f440d,2021-07-29_23h06.18.948,Simcolourproject_2stim_asymm_v5,2020.2.10,MacIntel,60,61025ae37ef11b136ea224fe,,,,,,,,,3000,-40,64,1,0,0,response7disk,,0,-10,8,1,0,0,rectangle,-10,8,1,0,0,-10,8,1,0,0,1,34,194,68,1,,,,,,,,
,,,,,,,,,,,,,FF,,,,,,,,0.317,,,,,,,,,,,,,,,,,,,,,,61005f4d17e5cdd0ad5748c8,61036c85c3c6720e195f440d,2021-07-29_23h06.18.948,Simcolourproject_2stim_asymm_v5,2020.2.10,MacIntel,60,61025ae37ef11b136ea224fe,,,,,,,,,1421,40,53,1,0,0,response1disk,,7,-1,0,1,0,0,rectangle,-1,0,1,0,0,-1,0,1,0,0,1,35,195,79,1,,,,,,,,
,,,,,,,,,,,,,FF,,,,,,,,0.484,,,,,,,,,,,,,,,,,,,,,,61005f4d17e5cdd0ad5748c8,61036c85c3c6720e195f440d,2021-07-29_23h06.18.948,Simcolourproject_2stim_asymm_v5,2020.2.10,MacIntel,60,61025ae37ef11b136ea224fe,,,,,,,,,132,-30,69,1,0,0,response7disk,,0,-7,14,1,0,0,rectangle,-7,14,1,0,0,-7,14,1,0,0,1,36,196,41,1,,,,,,,,
,,,,,,,,,,,,,FF,,,,,,,,0.734,,,,,,,,,,,,,,,,,,,,,,61005f4d17e5cdd0ad5748c8,61036c85c3c6720e195f440d,2021-07-29_23h06.18.948,Simcolourproject_2stim_asymm_v5,2020.2.10,MacIntel,60,61025ae37ef11b136ea224fe,,,,,,,,,2941,-42,75,1,0,0,response7disk,,0,-8,-3,1,0,0,rectangle,-8,-3,1,0,0,-8,-3,1,0,0,1,37,197,2,1,,,,,,,,
,,,,,,,,,,,,,FF,,,,,,,,0.467,,,,,,,,,,,,,,,,,,,,,,61005f4d17e5cdd0ad5748c8,61036c85c3c6720e195f440d,2021-07-29_23h06.18.948,Simcolourproject_2stim_asymm_v5,2020.2.10,MacIntel,60,61025ae37ef11b136ea224fe,,,,,,,,,765,29,53,1,0,0,response1disk,,7,2,4,1,0,0,rectangle,2,4,1,0,0,2,4,1,0,0,1,38,198,129,1,,,,,,,,
,,,,,,,,,,,,,FF,,,,,,,,0.418,,,,,,,,,,,,,,,,,,,,,,61005f4d17e5cdd0ad5748c8,61036c85c3c6720e195f440d,2021-07-29_23h06.18.948,Simcolourproject_2stim_asymm_v5,2020.2.10,MacIntel,60,61025ae37ef11b136ea224fe,,,,,,,,,1085,24,79,1,0,0,response1disk,,7,-3,6,1,0,0,rectangle,-3,6,1,0,0,-3,6,1,0,0,1,39,199,34,1,,,,,,,,
,,,,,,,,,,,,,FF,,,,,,,,0.899,,,,,,,,,,,,,,,,,,,,,,61005f4d17e5cdd0ad5748c8,61036c85c3c6720e195f440d,2021-07-29_23h06.18.948,Simcolourproject_2stim_asymm_v5,2020.2.10,MacIntel,60,61025ae37ef11b136ea224fe,,,,,,,,,2505,32,58,1,0,0,response1disk,,7,0,-5,1,0,0,rectangle,0,-5,1,0,0,0,-5,1,0,0,1,40,200,128,1,,,,,,,,
,,,,,,,,,,,,,FF,,,,,,,,1.15,,,,,,,,,,,,,,,,,,,,,,61005f4d17e5cdd0ad5748c8,61036c85c3c6720e195f440d,2021-07-29_23h06.18.948,Simcolourproject_2stim_asymm_v5,2020.2.10,MacIntel,60,61025ae37ef11b136ea224fe,,,,,,,,,3388,-43,64,1,0,0,response7disk,,0,1,4,1,0,0,rectangle,1,4,1,0,0,1,4,1,0,0,1,41,201,152,1,,,,,,,,
,,,,,,,,,,,,,FF,,,,,,,,1,,,,,,,,,,,,,,,,,,,,,,61005f4d17e5cdd0ad5748c8,61036c85c3c6720e195f440d,2021-07-29_23h06.18.948,Simcolourproject_2stim_asymm_v5,2020.2.10,MacIntel,60,61025ae37ef11b136ea224fe,,,,,,,,,3428,-72,-34,1,0,0,response5disk,,2,-11,-6,1,0,0,rectangle,-11,-6,1,0,0,-11,-6,1,0,0,1,42,202,52,1,,,,,,,,
,,,,,,,,,,,,,FF,,,,,,,,0.4,,,,,,,,,,,,,,,,,,,,,,61005f4d17e5cdd0ad5748c8,61036c85c3c6720e195f440d,2021-07-29_23h06.18.948,Simcolourproject_2stim_asymm_v5,2020.2.10,MacIntel,60,61025ae37ef11b136ea224fe,,,,,,,,,2852,39,54,1,0,0,response1disk,,7,-10,-9,1,0,0,rectangle,-10,-9,1,0,0,-10,-9,1,0,0,1,43,203,150,1,,,,,,,,
,,,,,,,,,,,,,FF,,,,,,,,0.432,,,,,,,,,,,,,,,,,,,,,,61005f4d17e5cdd0ad5748c8,61036c85c3c6720e195f440d,2021-07-29_23h06.18.948,Simcolourproject_2stim_asymm_v5,2020.2.10,MacIntel,60,61025ae37ef11b136ea224fe,,,,,,,,,1912,24,69,1,0,0,response1disk,,7,0,12,1,0,0,rectangle,0,12,1,0,0,0,12,1,0,0,1,44,204,66,1,,,,,,,,
,,,,,,,,,,,,,FF,,,,,,,,0.416,,,,,,,,,,,,,,,,,,,,,,61005f4d17e5cdd0ad5748c8,61036c85c3c6720e195f440d,2021-07-29_23h06.18.948,Simcolourproject_2stim_asymm_v5,2020.2.10,MacIntel,60,61025ae37ef11b136ea224fe,,,,,,,,,401,30,46,1,0,0,response1disk,,7,3,-7,1,0,0,rectangle,3,-7,1,0,0,3,-7,1,0,0,1,45,205,146,1,,,,,,,,
,,,,,,,,,,,,,FF,,,,,,,,1.184,,,,,,,,,,,,,,,,,,,,,,61005f4d17e5cdd0ad5748c8,61036c85c3c6720e195f440d,2021-07-29_23h06.18.948,Simcolourproject_2stim_asymm_v5,2020.2.10,MacIntel,60,61025ae37ef11b136ea224fe,,,,,,,,,1447,-82,-52,1,0,0,response5disk,,2,-2,-5,1,0,0,rectangle,-2,-5,1,0,0,-2,-5,1,0,0,1,46,206,89,1,,,,,,,,
,,,,,,,,,,,,,FF,,,,,,,,0.45,,,,,,,,,,,,,,,,,,,,,,61005f4d17e5cdd0ad5748c8,61036c85c3c6720e195f440d,2021-07-29_23h06.18.948,Simcolourproject_2stim_asymm_v5,2020.2.10,MacIntel,60,61025ae37ef11b136ea224fe,,,,,,,,,2366,29,60,1,0,0,response1disk,,7,5,4,1,0,0,rectangle,5,4,1,0,0,5,4,1,0,0,1,47,207,6,1,,,,,,,,
,,,,,,,,,,,,,FF,,,,,,,,0.434,,,,,,,,,,,,,,,,,,,,,,61005f4d17e5cdd0ad5748c8,61036c85c3c6720e195f440d,2021-07-29_23h06.18.948,Simcolourproject_2stim_asymm_v5,2020.2.10,MacIntel,60,61025ae37ef11b136ea224fe,,,,,,,,,3867,22,56,1,0,0,response1disk,,7,0,-5,1,0,0,rectangle,0,-5,1,0,0,0,-5,1,0,0,1,48,208,46,1,,,,,,,,
,,,,,,,,,,,,,FF,,,,,,,,0.484,,,,,,,,,,,,,,,,,,,,,,61005f4d17e5cdd0ad5748c8,61036c85c3c6720e195f440d,2021-07-29_23h06.18.948,Simcolourproject_2stim_asymm_v5,2020.2.10,MacIntel,60,61025ae37ef11b136ea224fe,,,,,,,,,1313,26,60,1,0,0,response1disk,,7,-13,-9,1,0,0,rectangle,-13,-9,1,0,0,-13,-9,1,0,0,1,49,209,108,1,,,,,,,,
,,,,,,,,,,,,,FF,,,,,,,,1.05,,,,,,,,,,,,,,,,,,,,,,61005f4d17e5cdd0ad5748c8,61036c85c3c6720e195f440d,2021-07-29_23h06.18.948,Simcolourproject_2stim_asymm_v5,2020.2.10,MacIntel,60,61025ae37ef11b136ea224fe,,,,,,,,,367,-58,-34,1,0,0,response5disk,,2,12,-2,1,0,0,rectangle,12,-2,1,0,0,12,-2,1,0,0,1,50,210,132,1,,,,,,,,
,,,,,,,,,,,,,FF,,,,,,,,0.467,,,,,,,,,,,,,,,,,,,,,,61005f4d17e5cdd0ad5748c8,61036c85c3c6720e195f440d,2021-07-29_23h06.18.948,Simcolourproject_2stim_asymm_v5,2020.2.10,MacIntel,60,61025ae37ef11b136ea224fe,,,,,,,,,1257,28,45,1,0,0,response1disk,,7,3,9,1,0,0,rectangle,3,9,1,0,0,3,9,1,0,0,1,51,211,15,1,,,,,,,,
,,,,,,,,,,,,,FF,,,,,,,,0.75,,,,,,,,,,,,,,,,,,,,,,61005f4d17e5cdd0ad5748c8,61036c85c3c6720e195f440d,2021-07-29_23h06.18.948,Simcolourproject_2stim_asymm_v5,2020.2.10,MacIntel,60,61025ae37ef11b136ea224fe,,,,,,,,,3136,33,54,1,0,0,response1disk,,7,-2,-4,1,0,0,rectangle,-2,-4,1,0,0,-2,-4,1,0,0,1,52,212,137,1,,,,,,,,
,,,,,,,,,,,,,FF,,,,,,,,0.551,,,,,,,,,,,,,,,,,,,,,,61005f4d17e5cdd0ad5748c8,61036c85c3c6720e195f440d,2021-07-29_23h06.18.948,Simcolourproject_2stim_asymm_v5,2020.2.10,MacIntel,60,61025ae37ef11b136ea224fe,,,,,,,,,4042,41,45,1,0,0,response1disk,,7,-17,-13,1,0,0,rectangle,-17,-13,1,0,0,-17,-13,1,0,0,1,53,213,26,1,,,,,,,,
,,,,,,,,,,,,,FF,,,,,,,,0.65,,,,,,,,,,,,,,,,,,,,,,61005f4d17e5cdd0ad5748c8,61036c85c3c6720e195f440d,2021-07-29_23h06.18.948,Simcolourproject_2stim_asymm_v5,2020.2.10,MacIntel,60,61025ae37ef11b136ea224fe,,,,,,,,,2835,33,61,1,0,0,response1disk,,7,-2,-10,1,0,0,rectangle,-2,-10,1,0,0,-2,-10,1,0,0,1,54,214,109,1,,,,,,,,
,,,,,,,,,,,,,FF,,,,,,,,0.433,,,,,,,,,,,,,,,,,,,,,,61005f4d17e5cdd0ad5748c8,61036c85c3c6720e195f440d,2021-07-29_23h06.18.948,Simcolourproject_2stim_asymm_v5,2020.2.10,MacIntel,60,61025ae37ef11b136ea224fe,,,,,,,,,1627,41,71,1,0,0,response1disk,,7,-5,9,1,0,0,rectangle,-5,9,1,0,0,-5,9,1,0,0,1,55,215,60,1,,,,,,,,
,,,,,,,,,,,,,FF,,,,,,,,0.417,,,,,,,,,,,,,,,,,,,,,,61005f4d17e5cdd0ad5748c8,61036c85c3c6720e195f440d,2021-07-29_23h06.18.948,Simcolourproject_2stim_asymm_v5,2020.2.10,MacIntel,60,61025ae37ef11b136ea224fe,,,,,,,,,2925,43,69,1,0,0,response1disk,,7,-1,-8,1,0,0,rectangle,-1,-8,1,0,0,-1,-8,1,0,0,1,56,216,88,1,,,,,,,,
,,,,,,,,,,,,,FF,,,,,,,,0.484,,,,,,,,,,,,,,,,,,,,,,61005f4d17e5cdd0ad5748c8,61036c85c3c6720e195f440d,2021-07-29_23h06.18.948,Simcolourproject_2stim_asymm_v5,2020.2.10,MacIntel,60,61025ae37ef11b136ea224fe,,,,,,,,,2968,26,62,1,0,0,response1disk,,7,-5,-2,1,0,0,rectangle,-5,-2,1,0,0,-5,-2,1,0,0,1,57,217,9,1,,,,,,,,
,,,,,,,,,,,,,FF,,,,,,,,0.433,,,,,,,,,,,,,,,,,,,,,,61005f4d17e5cdd0ad5748c8,61036c85c3c6720e195f440d,2021-07-29_23h06.18.948,Simcolourproject_2stim_asymm_v5,2020.2.10,MacIntel,60,61025ae37ef11b136ea224fe,,,,,,,,,1046,35,63,1,0,0,response1disk,,7,15,13,1,0,0,rectangle,15,13,1,0,0,15,13,1,0,0,1,58,218,82,1,,,,,,,,
,,,,,,,,,,,,,FF,,,,,,,,0.434,,,,,,,,,,,,,,,,,,,,,,61005f4d17e5cdd0ad5748c8,61036c85c3c6720e195f440d,2021-07-29_23h06.18.948,Simcolourproject_2stim_asymm_v5,2020.2.10,MacIntel,60,61025ae37ef11b136ea224fe,,,,,,,,,4088,25,47,1,0,0,response1disk,,7,16,3,1,0,0,rectangle,16,3,1,0,0,16,3,1,0,0,1,59,219,147,1,,,,,,,,
,,,,,,,,,,,,,FF,,,,,,,,0.432,,,,,,,,,,,,,,,,,,,,,,61005f4d17e5cdd0ad5748c8,61036c85c3c6720e195f440d,2021-07-29_23h06.18.948,Simcolourproject_2stim_asymm_v5,2020.2.10,MacIntel,60,61025ae37ef11b136ea224fe,,,,,,,,,503,31,55,1,0,0,response1disk,,7,-7,-10,1,0,0,rectangle,-7,-10,1,0,0,-7,-10,1,0,0,1,60,220,136,1,,,,,,,,
,,,,,,,,,,,,,FF,,,,,,,,0.468,,,,,,,,,,,,,,,,,,,,,,61005f4d17e5cdd0ad5748c8,61036c85c3c6720e195f440d,2021-07-29_23h06.18.948,Simcolourproject_2stim_asymm_v5,2020.2.10,MacIntel,60,61025ae37ef11b136ea224fe,,,,,,,,,2520,41,75,1,0,0,response1disk,,7,11,5,1,0,0,rectangle,11,5,1,0,0,11,5,1,0,0,1,61,221,125,1,,,,,,,,
,,,,,,,,,,,,,FF,,,,,,,,0.4,,,,,,,,,,,,,,,,,,,,,,61005f4d17e5cdd0ad5748c8,61036c85c3c6720e195f440d,2021-07-29_23h06.18.948,Simcolourproject_2stim_asymm_v5,2020.2.10,MacIntel,60,61025ae37ef11b136ea224fe,,,,,,,,,2147,31,63,1,0,0,response1disk,,7,1,3,1,0,0,rectangle,1,3,1,0,0,1,3,1,0,0,1,62,222,92,1,,,,,,,,
,,,,,,,,,,,,,FF,,,,,,,,1.233,,,,,,,,,,,,,,,,,,,,,,61005f4d17e5cdd0ad5748c8,61036c85c3c6720e195f440d,2021-07-29_23h06.18.948,Simcolourproject_2stim_asymm_v5,2020.2.10,MacIntel,60,61025ae37ef11b136ea224fe,,,,,,,,,1450,35,-71,1,0,0,response3disk,,4,12,0,1,0,0,rectangle,12,0,1,0,0,12,0,1,0,0,1,63,223,141,1,,,,,,,,
,,,,,,,,,,,,,FF,,,,,,,,0.351,,,,,,,,,,,,,,,,,,,,,,61005f4d17e5cdd0ad5748c8,61036c85c3c6720e195f440d,2021-07-29_23h06.18.948,Simcolourproject_2stim_asymm_v5,2020.2.10,MacIntel,60,61025ae37ef11b136ea224fe,,,,,,,,,750,31,54,1,0,0,response1disk,,7,8,12,1,0,0,rectangle,8,12,1,0,0,8,12,1,0,0,1,64,224,158,1,,,,,,,,
,,,,,,,,,,,,,FF,,,,,,,,0.368,,,,,,,,,,,,,,,,,,,,,,61005f4d17e5cdd0ad5748c8,61036c85c3c6720e195f440d,2021-07-29_23h06.18.948,Simcolourproject_2stim_asymm_v5,2020.2.10,MacIntel,60,61025ae37ef11b136ea224fe,,,,,,,,,2207,27,65,1,0,0,response1disk,,7,0,-1,1,0,0,rectangle,0,-1,1,0,0,0,-1,1,0,0,1,65,225,122,1,,,,,,,,
,,,,,,,,,,,,,FF,,,,,,,,0.65,,,,,,,,,,,,,,,,,,,,,,61005f4d17e5cdd0ad5748c8,61036c85c3c6720e195f440d,2021-07-29_23h06.18.948,Simcolourproject_2stim_asymm_v5,2020.2.10,MacIntel,60,61025ae37ef11b136ea224fe,,,,,,,,,1481,21,44,1,0,0,response1disk,,7,-10,-1,1,0,0,rectangle,-10,-1,1,0,0,-10,-1,1,0,0,1,66,226,10,1,,,,,,,,
,,,,,,,,,,,,,FF,,,,,,,,0.415,,,,,,,,,,,,,,,,,,,,,,61005f4d17e5cdd0ad5748c8,61036c85c3c6720e195f440d,2021-07-29_23h06.18.948,Simcolourproject_2stim_asymm_v5,2020.2.10,MacIntel,60,61025ae37ef11b136ea224fe,,,,,,,,,1607,38,71,1,0,0,response1disk,,7,3,3,1,0,0,rectangle,3,3,1,0,0,3,3,1,0,0,1,67,227,59,1,,,,,,,,
,,,,,,,,,,,,,FF,,,,,,,,0.484,,,,,,,,,,,,,,,,,,,,,,61005f4d17e5cdd0ad5748c8,61036c85c3c6720e195f440d,2021-07-29_23h06.18.948,Simcolourproject_2stim_asymm_v5,2020.2.10,MacIntel,60,61025ae37ef11b136ea224fe,,,,,,,,,3812,29,48,1,0,0,response1disk,,7,8,6,1,0,0,rectangle,73,-39,1,0,0,3,6,1,0,0,1,68,228,25,1,,response3disk_3,TRUE,5,5,"[265,73,310,161,321,88,85,309,234,63,229,118,21,277,243,139,323,258,91,149]",1.267,rectangle
,,,,,,,,,,,,,FF,,,,,,,,0.466,,,,,,,,,,,,,,,,,,,,,,61005f4d17e5cdd0ad5748c8,61036c85c3c6720e195f440d,2021-07-29_23h06.18.948,Simcolourproject_2stim_asymm_v5,2020.2.10,MacIntel,60,61025ae37ef11b136ea224fe,,,,,,,,,2645,24,56,1,0,0,response1disk,,7,-3,-5,1,0,0,rectangle,-3,-5,1,0,0,-3,-5,1,0,0,1,69,229,55,1,,,,,,,,
,,,,,,,,,,,,,FF,,,,,,,,0.533,,,,,,,,,,,,,,,,,,,,,,61005f4d17e5cdd0ad5748c8,61036c85c3c6720e195f440d,2021-07-29_23h06.18.948,Simcolourproject_2stim_asymm_v5,2020.2.10,MacIntel,60,61025ae37ef11b136ea224fe,,,,,,,,,3734,40,54,1,0,0,response1disk,,7,-4,11,1,0,0,rectangle,-4,11,1,0,0,-4,11,1,0,0,1,70,230,18,1,,,,,,,,
,,,,,,,,,,,,,FF,,,,,,,,0.668,,,,,,,,,,,,,,,,,,,,,,61005f4d17e5cdd0ad5748c8,61036c85c3c6720e195f440d,2021-07-29_23h06.18.948,Simcolourproject_2stim_asymm_v5,2020.2.10,MacIntel,60,61025ae37ef11b136ea224fe,,,,,,,,,2713,16,60,1,0,0,response1disk,,7,4,-7,1,0,0,rectangle,4,-7,1,0,0,4,-7,1,0,0,1,71,231,51,1,,,,,,,,
,,,,,,,,,,,,,FF,,,,,,,,0.566,,,,,,,,,,,,,,,,,,,,,,61005f4d17e5cdd0ad5748c8,61036c85c3c6720e195f440d,2021-07-29_23h06.18.948,Simcolourproject_2stim_asymm_v5,2020.2.10,MacIntel,60,61025ae37ef11b136ea224fe,,,,,,,,,2907,25,45,1,0,0,response1disk,,7,7,6,1,0,0,rectangle,7,6,1,0,0,7,6,1,0,0,1,72,232,120,1,,,,,,,,
,,,,,,,,,,,,,FF,,,,,,,,0.434,,,,,,,,,,,,,,,,,,,,,,61005f4d17e5cdd0ad5748c8,61036c85c3c6720e195f440d,2021-07-29_23h06.18.948,Simcolourproject_2stim_asymm_v5,2020.2.10,MacIntel,60,61025ae37ef11b136ea224fe,,,,,,,,,57,29,75,1,0,0,response1disk,,7,1,3,1,0,0,rectangle,49,-77,1,0,0,-7,-3,1,0,0,1,73,233,50,1,,response3disk_3,TRUE,4,4,"[265,73,310,161,321,88,85,309,234,63,229,118,21,277,243,139,323,258,91,149]",1.38,rectangle
,,,,,,,,,,,,,FF,,,,,,,,0.499,,,,,,,,,,,,,,,,,,,,,,61005f4d17e5cdd0ad5748c8,61036c85c3c6720e195f440d,2021-07-29_23h06.18.948,Simcolourproject_2stim_asymm_v5,2020.2.10,MacIntel,60,61025ae37ef11b136ea224fe,,,,,,,,,1494,18,46,1,0,0,response1disk,,7,1,7,1,0,0,rectangle,1,7,1,0,0,1,7,1,0,0,1,74,234,30,1,,,,,,,,
,,,,,,,,,,,,,FF,,,,,,,,0.717,,,,,,,,,,,,,,,,,,,,,,61005f4d17e5cdd0ad5748c8,61036c85c3c6720e195f440d,2021-07-29_23h06.18.948,Simcolourproject_2stim_asymm_v5,2020.2.10,MacIntel,60,61025ae37ef11b136ea224fe,,,,,,,,,3331,31,52,1,0,0,response1disk,,7,9,-2,1,0,0,rectangle,9,-2,1,0,0,9,-2,1,0,0,1,75,235,23,1,,,,,,,,
,,,,,,,,,,,,,FF,,,,,,,,0.551,,,,,,,,,,,,,,,,,,,,,,61005f4d17e5cdd0ad5748c8,61036c85c3c6720e195f440d,2021-07-29_23h06.18.948,Simcolourproject_2stim_asymm_v5,2020.2.10,MacIntel,60,61025ae37ef11b136ea224fe,,,,,,,,,1260,24,50,1,0,0,response1disk,,7,5,9,1,0,0,rectangle,5,9,1,0,0,5,9,1,0,0,1,76,236,17,1,,,,,,,,
,,,,,,,,,,,,,FF,,,,,,,,0.501,,,,,,,,,,,,,,,,,,,,,,61005f4d17e5cdd0ad5748c8,61036c85c3c6720e195f440d,2021-07-29_23h06.18.948,Simcolourproject_2stim_asymm_v5,2020.2.10,MacIntel,60,61025ae37ef11b136ea224fe,,,,,,,,,1843,29,66,1,0,0,response1disk,,7,8,6,1,0,0,rectangle,8,6,1,0,0,8,6,1,0,0,1,77,237,31,1,,,,,,,,
,,,,,,,,,,,,,FF,,,,,,,,0.5,,,,,,,,,,,,,,,,,,,,,,61005f4d17e5cdd0ad5748c8,61036c85c3c6720e195f440d,2021-07-29_23h06.18.948,Simcolourproject_2stim_asymm_v5,2020.2.10,MacIntel,60,61025ae37ef11b136ea224fe,,,,,,,,,1182,28,47,1,0,0,response1disk,,7,-6,-4,1,0,0,rectangle,-6,-4,1,0,0,-6,-4,1,0,0,1,78,238,39,1,,,,,,,,
,,,,,,,,,,,,,FF,,,,,,,,0.717,,,,,,,,,,,,,,,,,,,,,,61005f4d17e5cdd0ad5748c8,61036c85c3c6720e195f440d,2021-07-29_23h06.18.948,Simcolourproject_2stim_asymm_v5,2020.2.10,MacIntel,60,61025ae37ef11b136ea224fe,,,,,,,,,419,44,45,1,0,0,response1disk,,7,-5,-13,1,0,0,rectangle,-5,-13,1,0,0,-5,-13,1,0,0,1,79,239,62,1,,,,,,,,
,,,,,,,,,,,,,FF,,,,,,,,1.317,,,,,,,,,,,,,,,,,,,,,,61005f4d17e5cdd0ad5748c8,61036c85c3c6720e195f440d,2021-07-29_23h06.18.948,Simcolourproject_2stim_asymm_v5,2020.2.10,MacIntel,60,61025ae37ef11b136ea224fe,,,,,,,,,1754,76,-56,1,0,0,response3disk,,5,-3,12,1,0,0,rectangle,-3,12,1,0,0,-3,12,1,0,0,1,80,240,67,1,,,,,,,,
,,,,,,,,,,,,,FF,,,,,,,,0.433,,,,,,,,,,,,,,,,,,,,,,61005f4d17e5cdd0ad5748c8,61036c85c3c6720e195f440d,2021-07-29_23h06.18.948,Simcolourproject_2stim_asymm_v5,2020.2.10,MacIntel,60,61025ae37ef11b136ea224fe,,,,,,,,,411,39,71,1,0,0,response1disk,,7,-6,-2,1,0,0,rectangle,-6,-2,1,0,0,-6,-2,1,0,0,1,81,241,127,1,,,,,,,,
,,,,,,,,,,,,,FF,,,,,,,,0.468,,,,,,,,,,,,,,,,,,,,,,61005f4d17e5cdd0ad5748c8,61036c85c3c6720e195f440d,2021-07-29_23h06.18.948,Simcolourproject_2stim_asymm_v5,2020.2.10,MacIntel,60,61025ae37ef11b136ea224fe,,,,,,,,,3841,40,56,1,0,0,response1disk,,7,-6,-7,1,0,0,rectangle,82,39,1,0,0,-2,4,1,0,0,1,82,242,84,1,,response1disk_3,TRUE,6,6,"[265,73,310,161,321,88,85,309,234,63,229,118,21,277,243,139,323,258,91,149]",1.399,rectangle
,,,,,,,,,,,,,FF,,,,,,,,0.45,,,,,,,,,,,,,,,,,,,,,,61005f4d17e5cdd0ad5748c8,61036c85c3c6720e195f440d,2021-07-29_23h06.18.948,Simcolourproject_2stim_asymm_v5,2020.2.10,MacIntel,60,61025ae37ef11b136ea224fe,,,,,,,,,1715,20,73,1,0,0,response1disk,,7,1,9,1,0,0,rectangle,1,9,1,0,0,1,9,1,0,0,1,83,243,56,1,,,,,,,,
,,,,,,,,,,,,,FF,,,,,,,,0.535,,,,,,,,,,,,,,,,,,,,,,61005f4d17e5cdd0ad5748c8,61036c85c3c6720e195f440d,2021-07-29_23h06.18.948,Simcolourproject_2stim_asymm_v5,2020.2.10,MacIntel,60,61025ae37ef11b136ea224fe,,,,,,,,,2494,27,52,1,0,0,response1disk,,7,-10,-1,1,0,0,rectangle,-10,-1,1,0,0,-10,-1,1,0,0,1,84,244,0,1,,,,,,,,
,,,,,,,,,,,,,FF,,,,,,,,0.483,,,,,,,,,,,,,,,,,,,,,,61005f4d17e5cdd0ad5748c8,61036c85c3c6720e195f440d,2021-07-29_23h06.18.948,Simcolourproject_2stim_asymm_v5,2020.2.10,MacIntel,60,61025ae37ef11b136ea224fe,,,,,,,,,610,33,54,1,0,0,response1disk,,7,1,-7,1,0,0,rectangle,1,-7,1,0,0,1,-7,1,0,0,1,85,245,97,1,,,,,,,,
,,,,,,,,,,,,,FF,,,,,,,,0.55,,,,,,,,,,,,,,,,,,,,,,61005f4d17e5cdd0ad5748c8,61036c85c3c6720e195f440d,2021-07-29_23h06.18.948,Simcolourproject_2stim_asymm_v5,2020.2.10,MacIntel,60,61025ae37ef11b136ea224fe,,,,,,,,,250,30,62,1,0,0,response1disk,,7,5,11,1,0,0,rectangle,5,11,1,0,0,5,11,1,0,0,1,86,246,72,1,,,,,,,,
,,,,,,,,,,,,,FF,,,,,,,,0.432,,,,,,,,,,,,,,,,,,,,,,61005f4d17e5cdd0ad5748c8,61036c85c3c6720e195f440d,2021-07-29_23h06.18.948,Simcolourproject_2stim_asymm_v5,2020.2.10,MacIntel,60,61025ae37ef11b136ea224fe,,,,,,,,,3648,39,59,1,0,0,response1disk,,7,-5,-6,1,0,0,rectangle,-5,-6,1,0,0,-5,-6,1,0,0,1,87,247,154,1,,,,,,,,
,,,,,,,,,,,,,FF,,,,,,,,0.817,,,,,,,,,,,,,,,,,,,,,,61005f4d17e5cdd0ad5748c8,61036c85c3c6720e195f440d,2021-07-29_23h06.18.948,Simcolourproject_2stim_asymm_v5,2020.2.10,MacIntel,60,61025ae37ef11b136ea224fe,,,,,,,,,4294,41,-78,1,0,0,response3disk,,4,-11,2,1,0,0,rectangle,-11,2,1,0,0,-11,2,1,0,0,1,88,248,90,1,,,,,,,,
,,,,,,,,,,,,,FF,,,,,,,,0.432,,,,,,,,,,,,,,,,,,,,,,61005f4d17e5cdd0ad5748c8,61036c85c3c6720e195f440d,2021-07-29_23h06.18.948,Simcolourproject_2stim_asymm_v5,2020.2.10,MacIntel,60,61025ae37ef11b136ea224fe,,,,,,,,,2191,15,44,1,0,0,response1disk,,7,-2,13,1,0,0,rectangle,-2,13,1,0,0,-2,13,1,0,0,1,89,249,13,1,,,,,,,,
,,,,,,,,,,,,,FF,,,,,,,,0.483,,,,,,,,,,,,,,,,,,,,,,61005f4d17e5cdd0ad5748c8,61036c85c3c6720e195f440d,2021-07-29_23h06.18.948,Simcolourproject_2stim_asymm_v5,2020.2.10,MacIntel,60,61025ae37ef11b136ea224fe,,,,,,,,,2013,29,59,1,0,0,response1disk,,7,-8,0,1,0,0,rectangle,-8,0,1,0,0,-8,0,1,0,0,1,90,250,19,1,,,,,,,,
,,,,,,,,,,,,,FF,,,,,,,,0.966,,,,,,,,,,,,,,,,,,,,,,61005f4d17e5cdd0ad5748c8,61036c85c3c6720e195f440d,2021-07-29_23h06.18.948,Simcolourproject_2stim_asymm_v5,2020.2.10,MacIntel,60,61025ae37ef11b136ea224fe,,,,,,,,,3108,81,-58,1,0,0,response3disk,,5,2,7,1,0,0,rectangle,2,7,1,0,0,2,7,1,0,0,1,91,251,61,1,,,,,,,,
,,,,,,,,,,,,,FF,,,,,,,,0.466,,,,,,,,,,,,,,,,,,,,,,61005f4d17e5cdd0ad5748c8,61036c85c3c6720e195f440d,2021-07-29_23h06.18.948,Simcolourproject_2stim_asymm_v5,2020.2.10,MacIntel,60,61025ae37ef11b136ea224fe,,,,,,,,,2217,24,51,1,0,0,response1disk,,7,-21,-11,1,0,0,rectangle,-21,-11,1,0,0,-21,-11,1,0,0,1,92,252,40,1,,,,,,,,
,,,,,,,,,,,,,FF,,,,,,,,0.833,,,,,,,,,,,,,,,,,,,,,,61005f4d17e5cdd0ad5748c8,61036c85c3c6720e195f440d,2021-07-29_23h06.18.948,Simcolourproject_2stim_asymm_v5,2020.2.10,MacIntel,60,61025ae37ef11b136ea224fe,,,,,,,,,2482,71,30,1,0,0,response1disk,,6,4,-7,1,0,0,rectangle,4,-7,1,0,0,4,-7,1,0,0,1,93,253,99,1,,,,,,,,
,,,,,,,,,,,,,FF,,,,,,,,0.567,,,,,,,,,,,,,,,,,,,,,,61005f4d17e5cdd0ad5748c8,61036c85c3c6720e195f440d,2021-07-29_23h06.18.948,Simcolourproject_2stim_asymm_v5,2020.2.10,MacIntel,60,61025ae37ef11b136ea224fe,,,,,,,,,2408,19,56,1,0,0,response1disk,,7,-1,9,1,0,0,rectangle,-1,9,1,0,0,-1,9,1,0,0,1,94,254,8,1,,,,,,,,
,,,,,,,,,,,,,FF,,,,,,,,1.365,,,,,,,,,,,,,,,,,,,,,,61005f4d17e5cdd0ad5748c8,61036c85c3c6720e195f440d,2021-07-29_23h06.18.948,Simcolourproject_2stim_asymm_v5,2020.2.10,MacIntel,60,61025ae37ef11b136ea224fe,,,,,,,,,1959,-35,-81,1,0,0,response5disk,,3,-7,-1,1,0,0,rectangle,-7,-1,1,0,0,-7,-1,1,0,0,1,95,255,71,1,,,,,,,,
,,,,,,,,,,,,,FF,,,,,,,,0.784,,,,,,,,,,,,,,,,,,,,,,61005f4d17e5cdd0ad5748c8,61036c85c3c6720e195f440d,2021-07-29_23h06.18.948,Simcolourproject_2stim_asymm_v5,2020.2.10,MacIntel,60,61025ae37ef11b136ea224fe,,,,,,,,,896,20,53,1,0,0,response1disk,,7,2,13,1,0,0,rectangle,2,13,1,0,0,2,13,1,0,0,1,96,256,33,1,,,,,,,,
,,,,,,,,,,,,,FF,,,,,,,,0.784,,,,,,,,,,,,,,,,,,,,,,61005f4d17e5cdd0ad5748c8,61036c85c3c6720e195f440d,2021-07-29_23h06.18.948,Simcolourproject_2stim_asymm_v5,2020.2.10,MacIntel,60,61025ae37ef11b136ea224fe,,,,,,,,,4181,-35,76,1,0,0,response7disk,,0,3,-8,1,0,0,rectangle,94,28,1,0,0,0,-6,1,0,0,1,97,257,124,1,,response1disk_3,TRUE,6,6,"[265,73,310,161,321,88,85,309,234,63,229,118,21,277,243,139,323,258,91,149]",1.484,rectangle
,,,,,,,,,,,,,FF,,,,,,,,0.566,,,,,,,,,,,,,,,,,,,,,,61005f4d17e5cdd0ad5748c8,61036c85c3c6720e195f440d,2021-07-29_23h06.18.948,Simcolourproject_2stim_asymm_v5,2020.2.10,MacIntel,60,61025ae37ef11b136ea224fe,,,,,,,,,3654,30,55,1,0,0,response1disk,,7,8,3,1,0,0,rectangle,8,3,1,0,0,8,3,1,0,0,1,98,258,24,1,,,,,,,,
,,,,,,,,,,,,,FF,,,,,,,,0.668,,,,,,,,,,,,,,,,,,,,,,61005f4d17e5cdd0ad5748c8,61036c85c3c6720e195f440d,2021-07-29_23h06.18.948,Simcolourproject_2stim_asymm_v5,2020.2.10,MacIntel,60,61025ae37ef11b136ea224fe,,,,,,,,,2385,19,71,1,0,0,response1disk,,7,6,10,1,0,0,rectangle,6,10,1,0,0,6,10,1,0,0,1,99,259,36,1,,,,,,,,
,,,,,,,,,,,,,FF,,,,,,,,0.75,,,,,,,,,,,,,,,,,,,,,,61005f4d17e5cdd0ad5748c8,61036c85c3c6720e195f440d,2021-07-29_23h06.18.948,Simcolourproject_2stim_asymm_v5,2020.2.10,MacIntel,60,61025ae37ef11b136ea224fe,,,,,,,,,2310,16,67,1,0,0,response1disk,,7,4,4,1,0,0,rectangle,4,4,1,0,0,4,4,1,0,0,1,100,260,45,1,,,,,,,,
,,,,,,,,,,,,,FF,,,,,,,,0.684,,,,,,,,,,,,,,,,,,,,,,61005f4d17e5cdd0ad5748c8,61036c85c3c6720e195f440d,2021-07-29_23h06.18.948,Simcolourproject_2stim_asymm_v5,2020.2.10,MacIntel,60,61025ae37ef11b136ea224fe,,,,,,,,,4218,-40,80,1,0,0,response7disk,,0,0,-12,1,0,0,rectangle,0,-12,1,0,0,0,-12,1,0,0,1,101,261,96,1,,,,,,,,
,,,,,,,,,,,,,FF,,,,,,,,0.466,,,,,,,,,,,,,,,,,,,,,,61005f4d17e5cdd0ad5748c8,61036c85c3c6720e195f440d,2021-07-29_23h06.18.948,Simcolourproject_2stim_asymm_v5,2020.2.10,MacIntel,60,61025ae37ef11b136ea224fe,,,,,,,,,616,32,56,1,0,0,response1disk,,7,-1,-5,1,0,0,rectangle,-1,-5,1,0,0,-1,-5,1,0,0,1,102,262,102,1,,,,,,,,
,,,,,,,,,,,,,FF,,,,,,,,0.817,,,,,,,,,,,,,,,,,,,,,,61005f4d17e5cdd0ad5748c8,61036c85c3c6720e195f440d,2021-07-29_23h06.18.948,Simcolourproject_2stim_asymm_v5,2020.2.10,MacIntel,60,61025ae37ef11b136ea224fe,,,,,,,,,4147,74,-27,1,0,0,response3disk,,5,12,-5,1,0,0,rectangle,12,-5,1,0,0,12,-5,1,0,0,1,103,263,37,1,,,,,,,,
,,,,,,,,,,,,,FF,,,,,,,,0.55,,,,,,,,,,,,,,,,,,,,,,61005f4d17e5cdd0ad5748c8,61036c85c3c6720e195f440d,2021-07-29_23h06.18.948,Simcolourproject_2stim_asymm_v5,2020.2.10,MacIntel,60,61025ae37ef11b136ea224fe,,,,,,,,,3505,23,58,1,0,0,response1disk,,7,6,11,1,0,0,rectangle,-51,-93,1,0,0,1,-16,1,0,0,1,104,264,53,1,,response5disk_3,TRUE,3,3,"[265,73,310,161,321,88,85,309,234,63,229,118,21,277,243,139,323,258,91,149]",1.651,rectangle
,,,,,,,,,,,,,FF,,,,,,,,0.534,,,,,,,,,,,,,,,,,,,,,,61005f4d17e5cdd0ad5748c8,61036c85c3c6720e195f440d,2021-07-29_23h06.18.948,Simcolourproject_2stim_asymm_v5,2020.2.10,MacIntel,60,61025ae37ef11b136ea224fe,,,,,,,,,1989,23,64,1,0,0,response1disk,,7,7,10,1,0,0,rectangle,7,10,1,0,0,7,10,1,0,0,1,105,265,155,1,,,,,,,,
,,,,,,,,,,,,,FF,,,,,,,,0.533,,,,,,,,,,,,,,,,,,,,,,61005f4d17e5cdd0ad5748c8,61036c85c3c6720e195f440d,2021-07-29_23h06.18.948,Simcolourproject_2stim_asymm_v5,2020.2.10,MacIntel,60,61025ae37ef11b136ea224fe,,,,,,,,,3495,20,40,1,0,0,response1disk,,7,6,0,1,0,0,rectangle,6,0,1,0,0,6,0,1,0,0,1,106,266,159,1,,,,,,,,
,,,,,,,,,,,,,FF,,,,,,,,0.95,,,,,,,,,,,,,,,,,,,,,,61005f4d17e5cdd0ad5748c8,61036c85c3c6720e195f440d,2021-07-29_23h06.18.948,Simcolourproject_2stim_asymm_v5,2020.2.10,MacIntel,60,61025ae37ef11b136ea224fe,,,,,,,,,951,76,34,1,0,0,response1disk,,6,-6,-5,1,0,0,rectangle,-6,-5,1,0,0,-6,-5,1,0,0,1,107,267,140,1,,,,,,,,
,,,,,,,,,,,,,FF,,,,,,,,0.532,,,,,,,,,,,,,,,,,,,,,,61005f4d17e5cdd0ad5748c8,61036c85c3c6720e195f440d,2021-07-29_23h06.18.948,Simcolourproject_2stim_asymm_v5,2020.2.10,MacIntel,60,61025ae37ef11b136ea224fe,,,,,,,,,971,63,36,1,0,0,response1disk,,6,1,10,1,0,0,rectangle,1,10,1,0,0,1,10,1,0,0,1,108,268,54,1,,,,,,,,
,,,,,,,,,,,,,FF,,,,,,,,0.433,,,,,,,,,,,,,,,,,,,,,,61005f4d17e5cdd0ad5748c8,61036c85c3c6720e195f440d,2021-07-29_23h06.18.948,Simcolourproject_2stim_asymm_v5,2020.2.10,MacIntel,60,61025ae37ef11b136ea224fe,,,,,,,,,1724,30,57,1,0,0,response1disk,,7,8,7,1,0,0,rectangle,8,7,1,0,0,8,7,1,0,0,1,109,269,29,1,,,,,,,,
,,,,,,,,,,,,,FF,,,,,,,,0.433,,,,,,,,,,,,,,,,,,,,,,61005f4d17e5cdd0ad5748c8,61036c85c3c6720e195f440d,2021-07-29_23h06.18.948,Simcolourproject_2stim_asymm_v5,2020.2.10,MacIntel,60,61025ae37ef11b136ea224fe,,,,,,,,,3493,19,41,1,0,0,response1disk,,7,4,-4,1,0,0,rectangle,4,-4,1,0,0,4,-4,1,0,0,1,110,270,143,1,,,,,,,,
,,,,,,,,,,,,,FF,,,,,,,,0.949,,,,,,,,,,,,,,,,,,,,,,61005f4d17e5cdd0ad5748c8,61036c85c3c6720e195f440d,2021-07-29_23h06.18.948,Simcolourproject_2stim_asymm_v5,2020.2.10,MacIntel,60,61025ae37ef11b136ea224fe,,,,,,,,,70,-28,-61,1,0,0,response5disk,,3,-6,-9,1,0,0,rectangle,-6,-9,1,0,0,-6,-9,1,0,0,1,111,271,157,1,,,,,,,,
,,,,,,,,,,,,,FF,,,,,,,,0.418,,,,,,,,,,,,,,,,,,,,,,61005f4d17e5cdd0ad5748c8,61036c85c3c6720e195f440d,2021-07-29_23h06.18.948,Simcolourproject_2stim_asymm_v5,2020.2.10,MacIntel,60,61025ae37ef11b136ea224fe,,,,,,,,,1286,28,57,1,0,0,response1disk,,7,-8,8,1,0,0,rectangle,-8,8,1,0,0,-8,8,1,0,0,1,112,272,47,1,,,,,,,,
,,,,,,,,,,,,,FF,,,,,,,,0.45,,,,,,,,,,,,,,,,,,,,,,61005f4d17e5cdd0ad5748c8,61036c85c3c6720e195f440d,2021-07-29_23h06.18.948,Simcolourproject_2stim_asymm_v5,2020.2.10,MacIntel,60,61025ae37ef11b136ea224fe,,,,,,,,,4342,33,63,1,0,0,response1disk,,7,8,0,1,0,0,rectangle,8,0,1,0,0,8,0,1,0,0,1,113,273,64,1,,,,,,,,
,,,,,,,,,,,,,FF,,,,,,,,0.85,,,,,,,,,,,,,,,,,,,,,,61005f4d17e5cdd0ad5748c8,61036c85c3c6720e195f440d,2021-07-29_23h06.18.948,Simcolourproject_2stim_asymm_v5,2020.2.10,MacIntel,60,61025ae37ef11b136ea224fe,,,,,,,,,2604,67,-27,1,0,0,response3disk,,5,-6,-7,1,0,0,rectangle,-6,-7,1,0,0,-6,-7,1,0,0,1,114,274,135,1,,,,,,,,
,,,,,,,,,,,,,FF,,,,,,,,0.6,,,,,,,,,,,,,,,,,,,,,,61005f4d17e5cdd0ad5748c8,61036c85c3c6720e195f440d,2021-07-29_23h06.18.948,Simcolourproject_2stim_asymm_v5,2020.2.10,MacIntel,60,61025ae37ef11b136ea224fe,,,,,,,,,3119,17,61,1,0,0,response1disk,,7,6,-1,1,0,0,rectangle,6,-1,1,0,0,6,-1,1,0,0,1,115,275,22,1,,,,,,,,
,,,,,,,,,,,,,FF,,,,,,,,1.267,,,,,,,,,,,,,,,,,,,,,,61005f4d17e5cdd0ad5748c8,61036c85c3c6720e195f440d,2021-07-29_23h06.18.948,Simcolourproject_2stim_asymm_v5,2020.2.10,MacIntel,60,61025ae37ef11b136ea224fe,,,,,,,,,2496,33,47,1,0,0,response1disk,,7,17,2,1,0,0,rectangle,-31,69,1,0,0,-12,10,1,0,0,1,116,276,110,1,,response7disk_3,TRUE,0,0,"[265,73,310,161,321,88,85,309,234,63,229,118,21,277,243,139,323,258,91,149]",1.318,rectangle
,,,,,,,,,,,,,FF,,,,,,,,0.467,,,,,,,,,,,,,,,,,,,,,,61005f4d17e5cdd0ad5748c8,61036c85c3c6720e195f440d,2021-07-29_23h06.18.948,Simcolourproject_2stim_asymm_v5,2020.2.10,MacIntel,60,61025ae37ef11b136ea224fe,,,,,,,,,4276,27,50,1,0,0,response1disk,,7,-1,3,1,0,0,rectangle,-1,3,1,0,0,-1,3,1,0,0,1,117,277,87,1,,,,,,,,
,,,,,,,,,,,,,FF,,,,,,,,1.485,,,,,,,,,,,,,,,,,,,,,,61005f4d17e5cdd0ad5748c8,61036c85c3c6720e195f440d,2021-07-29_23h06.18.948,Simcolourproject_2stim_asymm_v5,2020.2.10,MacIntel,60,61025ae37ef11b136ea224fe,,,,,,,,,166,28,41,1,0,0,response1disk,,7,8,4,1,0,0,rectangle,8,4,1,0,0,8,4,1,0,0,1,118,278,131,1,,,,,,,,
,,,,,,,,,,,,,FF,,,,,,,,0.5,,,,,,,,,,,,,,,,,,,,,,61005f4d17e5cdd0ad5748c8,61036c85c3c6720e195f440d,2021-07-29_23h06.18.948,Simcolourproject_2stim_asymm_v5,2020.2.10,MacIntel,60,61025ae37ef11b136ea224fe,,,,,,,,,1185,29,68,1,0,0,response1disk,,7,9,11,1,0,0,rectangle,9,11,1,0,0,9,11,1,0,0,1,119,279,126,1,,,,,,,,
,,,,,,,,,,,,,FF,,,,,,,,0.399,,,,,,,,,,,,,,,,,,,,,,61005f4d17e5cdd0ad5748c8,61036c85c3c6720e195f440d,2021-07-29_23h06.18.948,Simcolourproject_2stim_asymm_v5,2020.2.10,MacIntel,60,61025ae37ef11b136ea224fe,,,,,,,,,2688,47,64,1,0,0,response1disk,,7,6,1,1,0,0,rectangle,6,1,1,0,0,6,1,1,0,0,1,120,280,80,1,,,,,,,,
,,,,,,,,,,,,,FF,,,,,,,,0.451,,,,,,,,,,,,,,,,,,,,,,61005f4d17e5cdd0ad5748c8,61036c85c3c6720e195f440d,2021-07-29_23h06.18.948,Simcolourproject_2stim_asymm_v5,2020.2.10,MacIntel,60,61025ae37ef11b136ea224fe,,,,,,,,,2649,25,54,1,0,0,response1disk,,7,10,9,1,0,0,rectangle,10,9,1,0,0,10,9,1,0,0,1,121,281,130,1,,,,,,,,
,,,,,,,,,,,,,FF,,,,,,,,0.434,,,,,,,,,,,,,,,,,,,,,,61005f4d17e5cdd0ad5748c8,61036c85c3c6720e195f440d,2021-07-29_23h06.18.948,Simcolourproject_2stim_asymm_v5,2020.2.10,MacIntel,60,61025ae37ef11b136ea224fe,,,,,,,,,476,43,68,1,0,0,response1disk,,7,1,-14,1,0,0,rectangle,1,-14,1,0,0,1,-14,1,0,0,1,122,282,86,1,,,,,,,,
,,,,,,,,,,,,,FF,,,,,,,,0.401,,,,,,,,,,,,,,,,,,,,,,61005f4d17e5cdd0ad5748c8,61036c85c3c6720e195f440d,2021-07-29_23h06.18.948,Simcolourproject_2stim_asymm_v5,2020.2.10,MacIntel,60,61025ae37ef11b136ea224fe,,,,,,,,,1739,27,64,1,0,0,response1disk,,7,7,9,1,0,0,rectangle,7,9,1,0,0,7,9,1,0,0,1,123,283,112,1,,,,,,,,
,,,,,,,,,,,,,FF,,,,,,,,1.749,,,,,,,,,,,,,,,,,,,,,,61005f4d17e5cdd0ad5748c8,61036c85c3c6720e195f440d,2021-07-29_23h06.18.948,Simcolourproject_2stim_asymm_v5,2020.2.10,MacIntel,60,61025ae37ef11b136ea224fe,,,,,,,,,3847,25,-76,1,0,0,response3disk,,4,-8,13,1,0,0,rectangle,-8,13,1,0,0,-8,13,1,0,0,1,124,284,101,1,,,,,,,,
,,,,,,,,,,,,,FF,,,,,,,,0.6,,,,,,,,,,,,,,,,,,,,,,61005f4d17e5cdd0ad5748c8,61036c85c3c6720e195f440d,2021-07-29_23h06.18.948,Simcolourproject_2stim_asymm_v5,2020.2.10,MacIntel,60,61025ae37ef11b136ea224fe,,,,,,,,,2139,32,72,1,0,0,response1disk,,7,-9,-4,1,0,0,rectangle,-9,-4,1,0,0,-9,-4,1,0,0,1,125,285,73,1,,,,,,,,
,,,,,,,,,,,,,FF,,,,,,,,0.467,,,,,,,,,,,,,,,,,,,,,,61005f4d17e5cdd0ad5748c8,61036c85c3c6720e195f440d,2021-07-29_23h06.18.948,Simcolourproject_2stim_asymm_v5,2020.2.10,MacIntel,60,61025ae37ef11b136ea224fe,,,,,,,,,3062,20,41,1,0,0,response1disk,,7,4,2,1,0,0,rectangle,4,2,1,0,0,4,2,1,0,0,1,126,286,28,1,,,,,,,,
,,,,,,,,,,,,,FF,,,,,,,,0.5,,,,,,,,,,,,,,,,,,,,,,61005f4d17e5cdd0ad5748c8,61036c85c3c6720e195f440d,2021-07-29_23h06.18.948,Simcolourproject_2stim_asymm_v5,2020.2.10,MacIntel,60,61025ae37ef11b136ea224fe,,,,,,,,,3232,38,53,1,0,0,response1disk,,7,-1,-6,1,0,0,rectangle,-1,-6,1,0,0,-1,-6,1,0,0,1,127,287,105,1,,,,,,,,
,,,,,,,,,,,,,FF,,,,,,,,0.534,,,,,,,,,,,,,,,,,,,,,,61005f4d17e5cdd0ad5748c8,61036c85c3c6720e195f440d,2021-07-29_23h06.18.948,Simcolourproject_2stim_asymm_v5,2020.2.10,MacIntel,60,61025ae37ef11b136ea224fe,,,,,,,,,2865,15,56,1,0,0,response1disk,,7,-15,-1,1,0,0,rectangle,-15,-1,1,0,0,-15,-1,1,0,0,1,128,288,91,1,,,,,,,,
,,,,,,,,,,,,,FF,,,,,,,,0.334,,,,,,,,,,,,,,,,,,,,,,61005f4d17e5cdd0ad5748c8,61036c85c3c6720e195f440d,2021-07-29_23h06.18.948,Simcolourproject_2stim_asymm_v5,2020.2.10,MacIntel,60,61025ae37ef11b136ea224fe,,,,,,,,,1851,29,49,1,0,0,response1disk,,7,6,-2,1,0,0,rectangle,6,-2,1,0,0,6,-2,1,0,0,1,129,289,75,1,,,,,,,,
,,,,,,,,,,,,,FF,,,,,,,,0.368,,,,,,,,,,,,,,,,,,,,,,61005f4d17e5cdd0ad5748c8,61036c85c3c6720e195f440d,2021-07-29_23h06.18.948,Simcolourproject_2stim_asymm_v5,2020.2.10,MacIntel,60,61025ae37ef11b136ea224fe,,,,,,,,,3134,44,57,1,0,0,response1disk,,7,-10,-2,1,0,0,rectangle,-10,-2,1,0,0,-10,-2,1,0,0,1,130,290,27,1,,,,,,,,
,,,,,,,,,,,,,FF,,,,,,,,0.7,,,,,,,,,,,,,,,,,,,,,,61005f4d17e5cdd0ad5748c8,61036c85c3c6720e195f440d,2021-07-29_23h06.18.948,Simcolourproject_2stim_asymm_v5,2020.2.10,MacIntel,60,61025ae37ef11b136ea224fe,,,,,,,,,2233,-25,61,1,0,0,response7disk,,0,-3,7,1,0,0,rectangle,-3,7,1,0,0,-3,7,1,0,0,1,131,291,44,1,,,,,,,,
,,,,,,,,,,,,,FF,,,,,,,,0.333,,,,,,,,,,,,,,,,,,,,,,61005f4d17e5cdd0ad5748c8,61036c85c3c6720e195f440d,2021-07-29_23h06.18.948,Simcolourproject_2stim_asymm_v5,2020.2.10,MacIntel,60,61025ae37ef11b136ea224fe,,,,,,,,,1582,34,60,1,0,0,response1disk,,7,17,14,1,0,0,rectangle,17,14,1,0,0,17,14,1,0,0,1,132,292,63,1,,,,,,,,
,,,,,,,,,,,,,FF,,,,,,,,0.5,,,,,,,,,,,,,,,,,,,,,,61005f4d17e5cdd0ad5748c8,61036c85c3c6720e195f440d,2021-07-29_23h06.18.948,Simcolourproject_2stim_asymm_v5,2020.2.10,MacIntel,60,61025ae37ef11b136ea224fe,,,,,,,,,1066,30,68,1,0,0,response1disk,,7,-19,-4,1,0,0,rectangle,-19,-4,1,0,0,-19,-4,1,0,0,1,133,293,1,1,,,,,,,,
,,,,,,,,,,,,,FF,,,,,,,,1.068,,,,,,,,,,,,,,,,,,,,,,61005f4d17e5cdd0ad5748c8,61036c85c3c6720e195f440d,2021-07-29_23h06.18.948,Simcolourproject_2stim_asymm_v5,2020.2.10,MacIntel,60,61025ae37ef11b136ea224fe,,,,,,,,,722,50,-82,1,0,0,response3disk,,4,-12,10,1,0,0,rectangle,-12,10,1,0,0,-12,10,1,0,0,1,134,294,151,1,,,,,,,,
,,,,,,,,,,,,,FF,,,,,,,,0.451,,,,,,,,,,,,,,,,,,,,,,61005f4d17e5cdd0ad5748c8,61036c85c3c6720e195f440d,2021-07-29_23h06.18.948,Simcolourproject_2stim_asymm_v5,2020.2.10,MacIntel,60,61025ae37ef11b136ea224fe,,,,,,,,,2089,27,41,1,0,0,response1disk,,7,20,5,1,0,0,rectangle,20,5,1,0,0,20,5,1,0,0,1,135,295,114,1,,,,,,,,
,,,,,,,,,,,,,FF,,,,,,,,1.1,,,,,,,,,,,,,,,,,,,,,,61005f4d17e5cdd0ad5748c8,61036c85c3c6720e195f440d,2021-07-29_23h06.18.948,Simcolourproject_2stim_asymm_v5,2020.2.10,MacIntel,60,61025ae37ef11b136ea224fe,,,,,,,,,463,82,23,1,0,0,response1disk,,6,-9,11,1,0,0,rectangle,-9,11,1,0,0,-9,11,1,0,0,1,136,296,111,1,,,,,,,,
,,,,,,,,,,,,,FF,,,,,,,,1.42,,,,,,,,,,,,,,,,,,,,,,61005f4d17e5cdd0ad5748c8,61036c85c3c6720e195f440d,2021-07-29_23h06.18.948,Simcolourproject_2stim_asymm_v5,2020.2.10,MacIntel,60,61025ae37ef11b136ea224fe,,,,,,,,,3962,17,53,1,0,0,response1disk,,7,-9,-5,1,0,0,rectangle,-9,-5,1,0,0,-9,-5,1,0,0,1,137,297,65,1,,,,,,,,
,,,,,,,,,,,,,FF,,,,,,,,0.666,,,,,,,,,,,,,,,,,,,,,,61005f4d17e5cdd0ad5748c8,61036c85c3c6720e195f440d,2021-07-29_23h06.18.948,Simcolourproject_2stim_asymm_v5,2020.2.10,MacIntel,60,61025ae37ef11b136ea224fe,,,,,,,,,4075,26,52,1,0,0,response1disk,,7,1,-3,1,0,0,rectangle,1,-3,1,0,0,1,-3,1,0,0,1,138,298,103,1,,,,,,,,
,,,,,,,,,,,,,FF,,,,,,,,0.467,,,,,,,,,,,,,,,,,,,,,,61005f4d17e5cdd0ad5748c8,61036c85c3c6720e195f440d,2021-07-29_23h06.18.948,Simcolourproject_2stim_asymm_v5,2020.2.10,MacIntel,60,61025ae37ef11b136ea224fe,,,,,,,,,542,30,46,1,0,0,response1disk,,7,11,11,1,0,0,rectangle,11,11,1,0,0,11,11,1,0,0,1,139,299,85,1,,,,,,,,
,,,,,,,,,,,,,FF,,,,,,,,0.55,,,,,,,,,,,,,,,,,,,,,,61005f4d17e5cdd0ad5748c8,61036c85c3c6720e195f440d,2021-07-29_23h06.18.948,Simcolourproject_2stim_asymm_v5,2020.2.10,MacIntel,60,61025ae37ef11b136ea224fe,,,,,,,,,3238,30,53,1,0,0,response1disk,,7,9,7,1,0,0,rectangle,9,7,1,0,0,9,7,1,0,0,1,140,300,70,1,,,,,,,,
,,,,,,,,,,,,,FF,,,,,,,,0.517,,,,,,,,,,,,,,,,,,,,,,61005f4d17e5cdd0ad5748c8,61036c85c3c6720e195f440d,2021-07-29_23h06.18.948,Simcolourproject_2stim_asymm_v5,2020.2.10,MacIntel,60,61025ae37ef11b136ea224fe,,,,,,,,,845,28,57,1,0,0,response1disk,,7,8,-1,1,0,0,rectangle,8,-1,1,0,0,8,-1,1,0,0,1,141,301,38,1,,,,,,,,
,,,,,,,,,,,,,FF,,,,,,,,0.501,,,,,,,,,,,,,,,,,,,,,,61005f4d17e5cdd0ad5748c8,61036c85c3c6720e195f440d,2021-07-29_23h06.18.948,Simcolourproject_2stim_asymm_v5,2020.2.10,MacIntel,60,61025ae37ef11b136ea224fe,,,,,,,,,1906,25,41,1,0,0,response1disk,,7,-4,-13,1,0,0,rectangle,-4,-13,1,0,0,-4,-13,1,0,0,1,142,302,35,1,,,,,,,,
