key_resp.keys,key_resp.rt,key_resp_14.keys,key_resp_14.rt,key_resp_15.keys,key_resp_15.rt,key_resp_17.keys,key_resp_17.rt,key_resp_9.keys,key_resp_9.rt,key_resp_10.keys,key_resp_10.rt,practice_comparison,Ecc,mouse_5.x,mouse_5.y,mouse_5.leftButton,mouse_5.midButton,mouse_5.rightButton,mouse_5.clicked_name,pracsimilarity,response_time,mouse_10.x,mouse_10.y,mouse_10.leftButton,mouse_10.midButton,mouse_10.rightButton,mouse_10.clicked_name,mouse_7.x,mouse_7.y,mouse_7.leftButton,mouse_7.midButton,mouse_7.rightButton,mouse_6.x,mouse_6.y,mouse_6.leftButton,mouse_6.midButton,mouse_6.rightButton,duringprac.thisRepN,duringprac.thisTrialN,duringprac.thisN,duringprac.thisIndex,duringprac.ran,participant,session,date,expName,psychopyVersion,OS,frameRate,study_id,mouse_7.clicked_name,catchpracsimilarity,catch_response_time,catchnumberprac,catchtrialorderprac,mouse_6.clicked_name,key_resp_22.keys,key_resp_22.rt,realcomparison,mouse.x,mouse.y,mouse.leftButton,mouse.midButton,mouse.rightButton,mouse.clicked_name,Colour2,similarity,mouse_2.x,mouse_2.y,mouse_2.leftButton,mouse_2.midButton,mouse_2.rightButton,mouse_2.clicked_name,mouse_3.x,mouse_3.y,mouse_3.leftButton,mouse_3.midButton,mouse_3.rightButton,mouse_11.x,mouse_11.y,mouse_11.leftButton,mouse_11.midButton,mouse_11.rightButton,trials_2.thisRepN,trials_2.thisTrialN,trials_2.thisN,trials_2.thisIndex,trials_2.ran,Colour1,mouse_3.clicked_name,catchornah,catchsimilarity,catchnumber,catchtrialorder,catchRT,mouse_11.clicked_name
space,2.9382,space,2.3982,space,7.5466,space,4.4083,space,2.1609,space,3.0101,100,FF,38,43,1,0,0,response1disk_5,7,19.9141,9,4,1,0,0,rectangle_8,9,4,1,0,0,9,4,1,0,0,0,0,0,0,1,6100685a736fb35770886345,61036ea4f0989bee0bac8e38,2021-07-29_23h16.07.334,Simcolourproject_2stim_asymm_v5,2020.2.10,Win32,60,61025ae37ef11b136ea224fe,,,,,,,,,,,,,,,,,,,,,,,,,,,,,,,,,,,,,,,,,,,,,,
,,,,,,,,,,,,69,FF,35,109,1,0,0,response1disk_5,7,5.2644,-10,10,1,0,0,rectangle_8,86,36,1,0,0,2,-4,1,0,0,0,1,1,5,1,6100685a736fb35770886345,61036ea4f0989bee0bac8e38,2021-07-29_23h16.07.334,Simcolourproject_2stim_asymm_v5,2020.2.10,Win32,60,61025ae37ef11b136ea224fe,response1disk_7,6,4.9349,6,"[2,5]",rectangle_4,,,,,,,,,,,,,,,,,,,,,,,,,,,,,,,,,,,,,,,,
,,,,,,,,,,,,113,PF,-72,29,1,0,0,response7disk_5,1,4.9673,-19,10,1,0,0,rectangle_8,-19,10,1,0,0,-19,10,1,0,0,0,2,2,2,1,6100685a736fb35770886345,61036ea4f0989bee0bac8e38,2021-07-29_23h16.07.334,Simcolourproject_2stim_asymm_v5,2020.2.10,Win32,60,61025ae37ef11b136ea224fe,,,,,,,,,,,,,,,,,,,,,,,,,,,,,,,,,,,,,,,,,,,,,,
,,,,,,,,,,,,89,PF,-46,-112,1,0,0,response5disk_5,3,5.3127,-1,-6,1,0,0,rectangle_8,-1,-6,1,0,0,-1,-6,1,0,0,0,3,3,4,1,6100685a736fb35770886345,61036ea4f0989bee0bac8e38,2021-07-29_23h16.07.334,Simcolourproject_2stim_asymm_v5,2020.2.10,Win32,60,61025ae37ef11b136ea224fe,,,,,,,,,,,,,,,,,,,,,,,,,,,,,,,,,,,,,,,,,,,,,,
,,,,,,,,,,,,66,PF,95,-26,1,0,0,response3disk_5,5,4.0246,10,12,1,0,0,rectangle_8,42,-94,1,0,0,13,-5,1,0,0,0,4,4,1,1,6100685a736fb35770886345,61036ea4f0989bee0bac8e38,2021-07-29_23h16.07.334,Simcolourproject_2stim_asymm_v5,2020.2.10,Win32,60,61025ae37ef11b136ea224fe,response3disk_7,4,2.3934,6,"[2,5]",rectangle_4,,,,,,,,,,,,,,,,,,,,,,,,,,,,,,,,,,,,,,,,
,,,,,,,,,,,,120,PF,38,-95,1,0,0,response3disk_5,4,1.5789,-17,15,1,0,0,rectangle_8,-17,15,1,0,0,-17,15,1,0,0,0,5,5,6,1,6100685a736fb35770886345,61036ea4f0989bee0bac8e38,2021-07-29_23h16.07.334,Simcolourproject_2stim_asymm_v5,2020.2.10,Win32,60,61025ae37ef11b136ea224fe,,,,,,,,,,,,,,,,,,,,,,,,,,,,,,,,,,,,,,,,,,,,,,
,,,,,,,,,,,,33,FF,-114,-29,1,0,0,response5disk_5,2,1.8406,-5,7,1,0,0,rectangle_8,-5,7,1,0,0,-5,7,1,0,0,0,6,6,3,1,6100685a736fb35770886345,61036ea4f0989bee0bac8e38,2021-07-29_23h16.07.334,Simcolourproject_2stim_asymm_v5,2020.2.10,Win32,60,61025ae37ef11b136ea224fe,,,,,,,,,,,,,,,,,,,,,,,,,,,,,,,,,,,,,,,,,,,,,,
,,,,,,,,,,,,,FF,,,,,,,,3.0557,,,,,,,,,,,,,,,,,,,,,,6100685a736fb35770886345,61036ea4f0989bee0bac8e38,2021-07-29_23h16.07.334,Simcolourproject_2stim_asymm_v5,2020.2.10,Win32,60,61025ae37ef11b136ea224fe,,,,,,,space,3.9135,2701,-30,-67,1,0,0,response5disk,,3,1,8,1,0,0,rectangle,1,8,1,0,0,1,8,1,0,0,0,0,0,144,1,,,,,,,,
,,,,,,,,,,,,,FF,,,,,,,,1.2614,,,,,,,,,,,,,,,,,,,,,,6100685a736fb35770886345,61036ea4f0989bee0bac8e38,2021-07-29_23h16.07.334,Simcolourproject_2stim_asymm_v5,2020.2.10,Win32,60,61025ae37ef11b136ea224fe,,,,,,,,,48,-86,40,1,0,0,response7disk,,1,-4,-6,1,0,0,rectangle,-4,-6,1,0,0,-4,-6,1,0,0,0,1,1,4,1,,,,,,,,
,,,,,,,,,,,,,FF,,,,,,,,1.6896,,,,,,,,,,,,,,,,,,,,,,6100685a736fb35770886345,61036ea4f0989bee0bac8e38,2021-07-29_23h16.07.334,Simcolourproject_2stim_asymm_v5,2020.2.10,Win32,60,61025ae37ef11b136ea224fe,,,,,,,,,2793,98,32,1,0,0,response1disk,,6,19,-9,1,0,0,rectangle,19,-9,1,0,0,19,-9,1,0,0,0,2,2,106,1,,,,,,,,
,,,,,,,,,,,,,FF,,,,,,,,1.266,,,,,,,,,,,,,,,,,,,,,,6100685a736fb35770886345,61036ea4f0989bee0bac8e38,2021-07-29_23h16.07.334,Simcolourproject_2stim_asymm_v5,2020.2.10,Win32,60,61025ae37ef11b136ea224fe,,,,,,,,,3910,37,-91,1,0,0,response3disk,,4,6,-3,1,0,0,rectangle,6,-3,1,0,0,6,-3,1,0,0,0,3,3,82,1,,,,,,,,
,,,,,,,,,,,,,FF,,,,,,,,1.0968,,,,,,,,,,,,,,,,,,,,,,6100685a736fb35770886345,61036ea4f0989bee0bac8e38,2021-07-29_23h16.07.334,Simcolourproject_2stim_asymm_v5,2020.2.10,Win32,60,61025ae37ef11b136ea224fe,,,,,,,,,1498,91,-42,1,0,0,response3disk,,5,1,11,1,0,0,rectangle,1,11,1,0,0,1,11,1,0,0,0,4,4,13,1,,,,,,,,
,,,,,,,,,,,,,FF,,,,,,,,1.3122,,,,,,,,,,,,,,,,,,,,,,6100685a736fb35770886345,61036ea4f0989bee0bac8e38,2021-07-29_23h16.07.334,Simcolourproject_2stim_asymm_v5,2020.2.10,Win32,60,61025ae37ef11b136ea224fe,,,,,,,,,3872,-91,36,1,0,0,response7disk,,1,-4,-6,1,0,0,rectangle,-4,-6,1,0,0,-4,-6,1,0,0,0,5,5,159,1,,,,,,,,
,,,,,,,,,,,,,FF,,,,,,,,1.0778,,,,,,,,,,,,,,,,,,,,,,6100685a736fb35770886345,61036ea4f0989bee0bac8e38,2021-07-29_23h16.07.334,Simcolourproject_2stim_asymm_v5,2020.2.10,Win32,60,61025ae37ef11b136ea224fe,,,,,,,,,3454,103,48,1,0,0,response1disk,,6,6,-1,1,0,0,rectangle,6,-1,1,0,0,6,-1,1,0,0,0,6,6,80,1,,,,,,,,
,,,,,,,,,,,,,FF,,,,,,,,1.5618,,,,,,,,,,,,,,,,,,,,,,6100685a736fb35770886345,61036ea4f0989bee0bac8e38,2021-07-29_23h16.07.334,Simcolourproject_2stim_asymm_v5,2020.2.10,Win32,60,61025ae37ef11b136ea224fe,,,,,,,,,3824,-44,-61,1,0,0,response5disk,,3,11,-9,1,0,0,rectangle,11,-9,1,0,0,11,-9,1,0,0,0,7,7,99,1,,,,,,,,
,,,,,,,,,,,,,FF,,,,,,,,1.6835,,,,,,,,,,,,,,,,,,,,,,6100685a736fb35770886345,61036ea4f0989bee0bac8e38,2021-07-29_23h16.07.334,Simcolourproject_2stim_asymm_v5,2020.2.10,Win32,60,61025ae37ef11b136ea224fe,,,,,,,,,4105,-45,-74,1,0,0,response5disk,,3,-8,-5,1,0,0,rectangle,-8,-5,1,0,0,-8,-5,1,0,0,0,8,8,93,1,,,,,,,,
,,,,,,,,,,,,,FF,,,,,,,,1.158,,,,,,,,,,,,,,,,,,,,,,6100685a736fb35770886345,61036ea4f0989bee0bac8e38,2021-07-29_23h16.07.334,Simcolourproject_2stim_asymm_v5,2020.2.10,Win32,60,61025ae37ef11b136ea224fe,,,,,,,,,1495,90,58,1,0,0,response1disk,,6,12,-6,1,0,0,rectangle,12,-6,1,0,0,12,-6,1,0,0,0,9,9,140,1,,,,,,,,
,,,,,,,,,,,,,FF,,,,,,,,1.2083,,,,,,,,,,,,,,,,,,,,,,6100685a736fb35770886345,61036ea4f0989bee0bac8e38,2021-07-29_23h16.07.334,Simcolourproject_2stim_asymm_v5,2020.2.10,Win32,60,61025ae37ef11b136ea224fe,,,,,,,,,2003,-83,25,1,0,0,response7disk,,1,-2,1,1,0,0,rectangle,-2,1,1,0,0,-2,1,1,0,0,0,10,10,15,1,,,,,,,,
,,,,,,,,,,,,,FF,,,,,,,,1.3457,,,,,,,,,,,,,,,,,,,,,,6100685a736fb35770886345,61036ea4f0989bee0bac8e38,2021-07-29_23h16.07.334,Simcolourproject_2stim_asymm_v5,2020.2.10,Win32,60,61025ae37ef11b136ea224fe,,,,,,,,,1465,-115,22,1,0,0,response7disk,,1,-11,-6,1,0,0,rectangle,-11,-6,1,0,0,-11,-6,1,0,0,0,11,11,49,1,,,,,,,,
,,,,,,,,,,,,,FF,,,,,,,,1.6918,,,,,,,,,,,,,,,,,,,,,,6100685a736fb35770886345,61036ea4f0989bee0bac8e38,2021-07-29_23h16.07.334,Simcolourproject_2stim_asymm_v5,2020.2.10,Win32,60,61025ae37ef11b136ea224fe,,,,,,,,,3371,-47,63,1,0,0,response7disk,,0,1,10,1,0,0,rectangle,1,10,1,0,0,1,10,1,0,0,0,12,12,71,1,,,,,,,,
,,,,,,,,,,,,,FF,,,,,,,,1.404,,,,,,,,,,,,,,,,,,,,,,6100685a736fb35770886345,61036ea4f0989bee0bac8e38,2021-07-29_23h16.07.334,Simcolourproject_2stim_asymm_v5,2020.2.10,Win32,60,61025ae37ef11b136ea224fe,,,,,,,,,2287,-39,73,1,0,0,response7disk,,0,-12,7,1,0,0,rectangle,-12,7,1,0,0,-12,7,1,0,0,0,13,13,139,1,,,,,,,,
,,,,,,,,,,,,,FF,,,,,,,,1.4276,,,,,,,,,,,,,,,,,,,,,,6100685a736fb35770886345,61036ea4f0989bee0bac8e38,2021-07-29_23h16.07.334,Simcolourproject_2stim_asymm_v5,2020.2.10,Win32,60,61025ae37ef11b136ea224fe,,,,,,,,,1173,-97,39,1,0,0,response7disk,,1,6,-14,1,0,0,rectangle,6,-14,1,0,0,6,-14,1,0,0,0,14,14,83,1,,,,,,,,
,,,,,,,,,,,,,FF,,,,,,,,2.9584,,,,,,,,,,,,,,,,,,,,,,6100685a736fb35770886345,61036ea4f0989bee0bac8e38,2021-07-29_23h16.07.334,Simcolourproject_2stim_asymm_v5,2020.2.10,Win32,60,61025ae37ef11b136ea224fe,,,,,,,,,3171,92,-41,1,0,0,response3disk,,5,8,7,1,0,0,rectangle,8,7,1,0,0,8,7,1,0,0,0,15,15,96,1,,,,,,,,
,,,,,,,,,,,,,FF,,,,,,,,1.3061,,,,,,,,,,,,,,,,,,,,,,6100685a736fb35770886345,61036ea4f0989bee0bac8e38,2021-07-29_23h16.07.334,Simcolourproject_2stim_asymm_v5,2020.2.10,Win32,60,61025ae37ef11b136ea224fe,,,,,,,,,111,-119,-49,1,0,0,response5disk,,2,0,-5,1,0,0,rectangle,0,-5,1,0,0,0,-5,1,0,0,0,16,16,68,1,,,,,,,,
,,,,,,,,,,,,,FF,,,,,,,,1.4551,,,,,,,,,,,,,,,,,,,,,,6100685a736fb35770886345,61036ea4f0989bee0bac8e38,2021-07-29_23h16.07.334,Simcolourproject_2stim_asymm_v5,2020.2.10,Win32,60,61025ae37ef11b136ea224fe,,,,,,,,,4330,91,-41,1,0,0,response3disk,,5,19,-5,1,0,0,rectangle,19,-5,1,0,0,19,-5,1,0,0,0,17,17,22,1,,,,,,,,
,,,,,,,,,,,,,FF,,,,,,,,1.6925,,,,,,,,,,,,,,,,,,,,,,6100685a736fb35770886345,61036ea4f0989bee0bac8e38,2021-07-29_23h16.07.334,Simcolourproject_2stim_asymm_v5,2020.2.10,Win32,60,61025ae37ef11b136ea224fe,,,,,,,,,1533,21,93,1,0,0,response1disk,,7,-1,8,1,0,0,rectangle,-1,8,1,0,0,-1,8,1,0,0,0,18,18,114,1,,,,,,,,
,,,,,,,,,,,,,FF,,,,,,,,1.3198,,,,,,,,,,,,,,,,,,,,,,6100685a736fb35770886345,61036ea4f0989bee0bac8e38,2021-07-29_23h16.07.334,Simcolourproject_2stim_asymm_v5,2020.2.10,Win32,60,61025ae37ef11b136ea224fe,,,,,,,,,1100,-90,37,1,0,0,response7disk,,1,-8,-6,1,0,0,rectangle,-8,-6,1,0,0,-8,-6,1,0,0,0,19,19,16,1,,,,,,,,
,,,,,,,,,,,,,FF,,,,,,,,2.504,,,,,,,,,,,,,,,,,,,,,,6100685a736fb35770886345,61036ea4f0989bee0bac8e38,2021-07-29_23h16.07.334,Simcolourproject_2stim_asymm_v5,2020.2.10,Win32,60,61025ae37ef11b136ea224fe,,,,,,,,,1141,56,93,1,0,0,response1disk,,7,22,3,1,0,0,rectangle,22,3,1,0,0,22,3,1,0,0,0,20,20,125,1,,,,,,,,
,,,,,,,,,,,,,FF,,,,,,,,2.0405,,,,,,,,,,,,,,,,,,,,,,6100685a736fb35770886345,61036ea4f0989bee0bac8e38,2021-07-29_23h16.07.334,Simcolourproject_2stim_asymm_v5,2020.2.10,Win32,60,61025ae37ef11b136ea224fe,,,,,,,,,3322,-34,91,1,0,0,response7disk,,0,8,10,1,0,0,rectangle,8,10,1,0,0,8,10,1,0,0,0,21,21,130,1,,,,,,,,
,,,,,,,,,,,,,FF,,,,,,,,1.6521,,,,,,,,,,,,,,,,,,,,,,6100685a736fb35770886345,61036ea4f0989bee0bac8e38,2021-07-29_23h16.07.334,Simcolourproject_2stim_asymm_v5,2020.2.10,Win32,60,61025ae37ef11b136ea224fe,,,,,,,,,2971,-32,77,1,0,0,response7disk,,0,3,5,1,0,0,rectangle,3,5,1,0,0,3,5,1,0,0,0,22,22,53,1,,,,,,,,
,,,,,,,,,,,,,FF,,,,,,,,1.6492,,,,,,,,,,,,,,,,,,,,,,6100685a736fb35770886345,61036ea4f0989bee0bac8e38,2021-07-29_23h16.07.334,Simcolourproject_2stim_asymm_v5,2020.2.10,Win32,60,61025ae37ef11b136ea224fe,,,,,,,,,3130,-33,82,1,0,0,response7disk,,0,19,0,1,0,0,rectangle,19,0,1,0,0,19,0,1,0,0,0,23,23,28,1,,,,,,,,
,,,,,,,,,,,,,FF,,,,,,,,1.538,,,,,,,,,,,,,,,,,,,,,,6100685a736fb35770886345,61036ea4f0989bee0bac8e38,2021-07-29_23h16.07.334,Simcolourproject_2stim_asymm_v5,2020.2.10,Win32,60,61025ae37ef11b136ea224fe,,,,,,,,,2936,-39,96,1,0,0,response7disk,,0,3,12,1,0,0,rectangle,3,12,1,0,0,3,12,1,0,0,0,24,24,119,1,,,,,,,,
,,,,,,,,,,,,,FF,,,,,,,,2.5235,,,,,,,,,,,,,,,,,,,,,,6100685a736fb35770886345,61036ea4f0989bee0bac8e38,2021-07-29_23h16.07.334,Simcolourproject_2stim_asymm_v5,2020.2.10,Win32,60,61025ae37ef11b136ea224fe,,,,,,,,,72,83,54,1,0,0,response1disk,,6,3,11,1,0,0,rectangle,3,11,1,0,0,3,11,1,0,0,0,25,25,123,1,,,,,,,,
,,,,,,,,,,,,,FF,,,,,,,,1.574,,,,,,,,,,,,,,,,,,,,,,6100685a736fb35770886345,61036ea4f0989bee0bac8e38,2021-07-29_23h16.07.334,Simcolourproject_2stim_asymm_v5,2020.2.10,Win32,60,61025ae37ef11b136ea224fe,,,,,,,,,3246,-34,83,1,0,0,response7disk,,0,14,-7,1,0,0,rectangle,14,-7,1,0,0,14,-7,1,0,0,0,26,26,47,1,,,,,,,,
,,,,,,,,,,,,,FF,,,,,,,,1.5807,,,,,,,,,,,,,,,,,,,,,,6100685a736fb35770886345,61036ea4f0989bee0bac8e38,2021-07-29_23h16.07.334,Simcolourproject_2stim_asymm_v5,2020.2.10,Win32,60,61025ae37ef11b136ea224fe,,,,,,,,,4197,-31,85,1,0,0,response7disk,,0,17,6,1,0,0,rectangle,17,6,1,0,0,17,6,1,0,0,0,27,27,44,1,,,,,,,,
,,,,,,,,,,,,,FF,,,,,,,,2.1725,,,,,,,,,,,,,,,,,,,,,,6100685a736fb35770886345,61036ea4f0989bee0bac8e38,2021-07-29_23h16.07.334,Simcolourproject_2stim_asymm_v5,2020.2.10,Win32,60,61025ae37ef11b136ea224fe,,,,,,,,,1378,63,-48,1,0,0,response3disk,,5,26,-5,1,0,0,rectangle,26,-5,1,0,0,26,-5,1,0,0,0,28,28,52,1,,,,,,,,
,,,,,,,,,,,,,FF,,,,,,,,2.1007,,,,,,,,,,,,,,,,,,,,,,6100685a736fb35770886345,61036ea4f0989bee0bac8e38,2021-07-29_23h16.07.334,Simcolourproject_2stim_asymm_v5,2020.2.10,Win32,60,61025ae37ef11b136ea224fe,,,,,,,,,2723,80,-47,1,0,0,response3disk,,5,27,-4,1,0,0,rectangle,27,-4,1,0,0,27,-4,1,0,0,0,29,29,115,1,,,,,,,,
,,,,,,,,,,,,,FF,,,,,,,,1.7847,,,,,,,,,,,,,,,,,,,,,,6100685a736fb35770886345,61036ea4f0989bee0bac8e38,2021-07-29_23h16.07.334,Simcolourproject_2stim_asymm_v5,2020.2.10,Win32,60,61025ae37ef11b136ea224fe,,,,,,,,,1507,-57,100,1,0,0,response7disk,,0,14,3,1,0,0,rectangle,14,3,1,0,0,14,3,1,0,0,0,30,30,109,1,,,,,,,,
,,,,,,,,,,,,,FF,,,,,,,,2.3677,,,,,,,,,,,,,,,,,,,,,,6100685a736fb35770886345,61036ea4f0989bee0bac8e38,2021-07-29_23h16.07.334,Simcolourproject_2stim_asymm_v5,2020.2.10,Win32,60,61025ae37ef11b136ea224fe,,,,,,,,,3762,117,-47,1,0,0,response3disk,,5,19,13,1,0,0,rectangle,19,13,1,0,0,19,13,1,0,0,0,31,31,102,1,,,,,,,,
,,,,,,,,,,,,,FF,,,,,,,,2.2559,,,,,,,,,,,,,,,,,,,,,,6100685a736fb35770886345,61036ea4f0989bee0bac8e38,2021-07-29_23h16.07.334,Simcolourproject_2stim_asymm_v5,2020.2.10,Win32,60,61025ae37ef11b136ea224fe,,,,,,,,,1499,-44,93,1,0,0,response7disk,,0,9,8,1,0,0,rectangle,-84,45,1,0,0,4,0,1,0,0,0,32,32,87,1,,response7disk_3,TRUE,1,1,"[202,132,145,62,109,242,172,71,261,313,250,254,125,126,129,261,33,177,60,212]",3.6238,rectangle
,,,,,,,,,,,,,FF,,,,,,,,2.5802,,,,,,,,,,,,,,,,,,,,,,6100685a736fb35770886345,61036ea4f0989bee0bac8e38,2021-07-29_23h16.07.334,Simcolourproject_2stim_asymm_v5,2020.2.10,Win32,60,61025ae37ef11b136ea224fe,,,,,,,,,3591,37,70,1,0,0,response1disk,,7,18,10,1,0,0,rectangle,18,10,1,0,0,18,10,1,0,0,0,33,33,2,1,,,,,,,,
,,,,,,,,,,,,,FF,,,,,,,,1.9009,,,,,,,,,,,,,,,,,,,,,,6100685a736fb35770886345,61036ea4f0989bee0bac8e38,2021-07-29_23h16.07.334,Simcolourproject_2stim_asymm_v5,2020.2.10,Win32,60,61025ae37ef11b136ea224fe,,,,,,,,,4146,32,93,1,0,0,response1disk,,7,12,6,1,0,0,rectangle,12,6,1,0,0,12,6,1,0,0,0,34,34,23,1,,,,,,,,
,,,,,,,,,,,,,FF,,,,,,,,1.7211,,,,,,,,,,,,,,,,,,,,,,6100685a736fb35770886345,61036ea4f0989bee0bac8e38,2021-07-29_23h16.07.334,Simcolourproject_2stim_asymm_v5,2020.2.10,Win32,60,61025ae37ef11b136ea224fe,,,,,,,,,558,-29,85,1,0,0,response7disk,,0,6,-10,1,0,0,rectangle,6,-10,1,0,0,6,-10,1,0,0,0,35,35,26,1,,,,,,,,
,,,,,,,,,,,,,FF,,,,,,,,1.6706,,,,,,,,,,,,,,,,,,,,,,6100685a736fb35770886345,61036ea4f0989bee0bac8e38,2021-07-29_23h16.07.334,Simcolourproject_2stim_asymm_v5,2020.2.10,Win32,60,61025ae37ef11b136ea224fe,,,,,,,,,4284,-47,73,1,0,0,response7disk,,0,17,-5,1,0,0,rectangle,17,-5,1,0,0,17,-5,1,0,0,0,36,36,63,1,,,,,,,,
,,,,,,,,,,,,,FF,,,,,,,,1.9356,,,,,,,,,,,,,,,,,,,,,,6100685a736fb35770886345,61036ea4f0989bee0bac8e38,2021-07-29_23h16.07.334,Simcolourproject_2stim_asymm_v5,2020.2.10,Win32,60,61025ae37ef11b136ea224fe,,,,,,,,,3551,33,90,1,0,0,response1disk,,7,-2,5,1,0,0,rectangle,-2,5,1,0,0,-2,5,1,0,0,0,37,37,38,1,,,,,,,,
,,,,,,,,,,,,,FF,,,,,,,,1.3879,,,,,,,,,,,,,,,,,,,,,,6100685a736fb35770886345,61036ea4f0989bee0bac8e38,2021-07-29_23h16.07.334,Simcolourproject_2stim_asymm_v5,2020.2.10,Win32,60,61025ae37ef11b136ea224fe,,,,,,,,,3738,-35,70,1,0,0,response7disk,,0,2,4,1,0,0,rectangle,2,4,1,0,0,2,4,1,0,0,0,38,38,64,1,,,,,,,,
,,,,,,,,,,,,,FF,,,,,,,,2.1345,,,,,,,,,,,,,,,,,,,,,,6100685a736fb35770886345,61036ea4f0989bee0bac8e38,2021-07-29_23h16.07.334,Simcolourproject_2stim_asymm_v5,2020.2.10,Win32,60,61025ae37ef11b136ea224fe,,,,,,,,,3598,96,66,1,0,0,response1disk,,6,-5,-1,1,0,0,rectangle,-5,-1,1,0,0,-5,-1,1,0,0,0,39,39,11,1,,,,,,,,
,,,,,,,,,,,,,FF,,,,,,,,1.672,,,,,,,,,,,,,,,,,,,,,,6100685a736fb35770886345,61036ea4f0989bee0bac8e38,2021-07-29_23h16.07.334,Simcolourproject_2stim_asymm_v5,2020.2.10,Win32,60,61025ae37ef11b136ea224fe,,,,,,,,,2998,56,35,1,0,0,response1disk,,6,-10,-8,1,0,0,rectangle,-10,-8,1,0,0,-10,-8,1,0,0,0,40,40,143,1,,,,,,,,
,,,,,,,,,,,,,FF,,,,,,,,1.4907,,,,,,,,,,,,,,,,,,,,,,6100685a736fb35770886345,61036ea4f0989bee0bac8e38,2021-07-29_23h16.07.334,Simcolourproject_2stim_asymm_v5,2020.2.10,Win32,60,61025ae37ef11b136ea224fe,,,,,,,,,4274,-39,86,1,0,0,response7disk,,0,-5,0,1,0,0,rectangle,-5,0,1,0,0,-5,0,1,0,0,0,41,41,156,1,,,,,,,,
,,,,,,,,,,,,,FF,,,,,,,,1.3944,,,,,,,,,,,,,,,,,,,,,,6100685a736fb35770886345,61036ea4f0989bee0bac8e38,2021-07-29_23h16.07.334,Simcolourproject_2stim_asymm_v5,2020.2.10,Win32,60,61025ae37ef11b136ea224fe,,,,,,,,,333,-45,97,1,0,0,response7disk,,0,15,-3,1,0,0,rectangle,15,-3,1,0,0,15,-3,1,0,0,0,42,42,37,1,,,,,,,,
,,,,,,,,,,,,,FF,,,,,,,,3.1491,,,,,,,,,,,,,,,,,,,,,,6100685a736fb35770886345,61036ea4f0989bee0bac8e38,2021-07-29_23h16.07.334,Simcolourproject_2stim_asymm_v5,2020.2.10,Win32,60,61025ae37ef11b136ea224fe,,,,,,,,,35,-34,105,1,0,0,response7disk,,0,15,14,1,0,0,rectangle,15,14,1,0,0,15,14,1,0,0,0,43,43,111,1,,,,,,,,
,,,,,,,,,,,,,FF,,,,,,,,2.2596,,,,,,,,,,,,,,,,,,,,,,6100685a736fb35770886345,61036ea4f0989bee0bac8e38,2021-07-29_23h16.07.334,Simcolourproject_2stim_asymm_v5,2020.2.10,Win32,60,61025ae37ef11b136ea224fe,,,,,,,,,4022,80,37,1,0,0,response1disk,,6,24,5,1,0,0,rectangle,24,5,1,0,0,24,5,1,0,0,0,44,44,154,1,,,,,,,,
,,,,,,,,,,,,,FF,,,,,,,,1.4909,,,,,,,,,,,,,,,,,,,,,,6100685a736fb35770886345,61036ea4f0989bee0bac8e38,2021-07-29_23h16.07.334,Simcolourproject_2stim_asymm_v5,2020.2.10,Win32,60,61025ae37ef11b136ea224fe,,,,,,,,,296,-31,85,1,0,0,response7disk,,0,9,3,1,0,0,rectangle,9,3,1,0,0,9,3,1,0,0,0,45,45,9,1,,,,,,,,
,,,,,,,,,,,,,FF,,,,,,,,1.4057,,,,,,,,,,,,,,,,,,,,,,6100685a736fb35770886345,61036ea4f0989bee0bac8e38,2021-07-29_23h16.07.334,Simcolourproject_2stim_asymm_v5,2020.2.10,Win32,60,61025ae37ef11b136ea224fe,,,,,,,,,1931,-33,77,1,0,0,response7disk,,0,10,4,1,0,0,rectangle,10,4,1,0,0,10,4,1,0,0,0,46,46,70,1,,,,,,,,
,,,,,,,,,,,,,FF,,,,,,,,2.3908,,,,,,,,,,,,,,,,,,,,,,6100685a736fb35770886345,61036ea4f0989bee0bac8e38,2021-07-29_23h16.07.334,Simcolourproject_2stim_asymm_v5,2020.2.10,Win32,60,61025ae37ef11b136ea224fe,,,,,,,,,520,-29,62,1,0,0,response7disk,,0,2,3,1,0,0,rectangle,2,3,1,0,0,2,3,1,0,0,0,47,47,90,1,,,,,,,,
,,,,,,,,,,,,,FF,,,,,,,,1.4688,,,,,,,,,,,,,,,,,,,,,,6100685a736fb35770886345,61036ea4f0989bee0bac8e38,2021-07-29_23h16.07.334,Simcolourproject_2stim_asymm_v5,2020.2.10,Win32,60,61025ae37ef11b136ea224fe,,,,,,,,,2468,-31,63,1,0,0,response7disk,,0,2,6,1,0,0,rectangle,2,6,1,0,0,2,6,1,0,0,0,48,48,157,1,,,,,,,,
,,,,,,,,,,,,,FF,,,,,,,,2.3836,,,,,,,,,,,,,,,,,,,,,,6100685a736fb35770886345,61036ea4f0989bee0bac8e38,2021-07-29_23h16.07.334,Simcolourproject_2stim_asymm_v5,2020.2.10,Win32,60,61025ae37ef11b136ea224fe,,,,,,,,,2294,98,-75,1,0,0,response3disk,,5,5,8,1,0,0,rectangle,5,8,1,0,0,5,8,1,0,0,0,49,49,89,1,,,,,,,,
,,,,,,,,,,,,,FF,,,,,,,,1.4997,,,,,,,,,,,,,,,,,,,,,,6100685a736fb35770886345,61036ea4f0989bee0bac8e38,2021-07-29_23h16.07.334,Simcolourproject_2stim_asymm_v5,2020.2.10,Win32,60,61025ae37ef11b136ea224fe,,,,,,,,,1256,-37,104,1,0,0,response7disk,,0,8,-3,1,0,0,rectangle,8,-3,1,0,0,8,-3,1,0,0,0,50,50,67,1,,,,,,,,
,,,,,,,,,,,,,FF,,,,,,,,2.367,,,,,,,,,,,,,,,,,,,,,,6100685a736fb35770886345,61036ea4f0989bee0bac8e38,2021-07-29_23h16.07.334,Simcolourproject_2stim_asymm_v5,2020.2.10,Win32,60,61025ae37ef11b136ea224fe,,,,,,,,,1431,20,-100,1,0,0,response3disk,,4,-14,0,1,0,0,rectangle,-14,0,1,0,0,-14,0,1,0,0,0,51,51,105,1,,,,,,,,
,,,,,,,,,,,,,FF,,,,,,,,2.6859,,,,,,,,,,,,,,,,,,,,,,6100685a736fb35770886345,61036ea4f0989bee0bac8e38,2021-07-29_23h16.07.334,Simcolourproject_2stim_asymm_v5,2020.2.10,Win32,60,61025ae37ef11b136ea224fe,,,,,,,,,1491,96,-38,1,0,0,response3disk,,5,19,6,1,0,0,rectangle,19,6,1,0,0,19,6,1,0,0,0,52,52,34,1,,,,,,,,
,,,,,,,,,,,,,FF,,,,,,,,2.3389,,,,,,,,,,,,,,,,,,,,,,6100685a736fb35770886345,61036ea4f0989bee0bac8e38,2021-07-29_23h16.07.334,Simcolourproject_2stim_asymm_v5,2020.2.10,Win32,60,61025ae37ef11b136ea224fe,,,,,,,,,36,36,-69,1,0,0,response3disk,,4,5,4,1,0,0,rectangle,5,4,1,0,0,5,4,1,0,0,0,53,53,153,1,,,,,,,,
,,,,,,,,,,,,,FF,,,,,,,,1.7579,,,,,,,,,,,,,,,,,,,,,,6100685a736fb35770886345,61036ea4f0989bee0bac8e38,2021-07-29_23h16.07.334,Simcolourproject_2stim_asymm_v5,2020.2.10,Win32,60,61025ae37ef11b136ea224fe,,,,,,,,,1577,-36,83,1,0,0,response7disk,,0,20,-1,1,0,0,rectangle,20,-1,1,0,0,20,-1,1,0,0,0,54,54,57,1,,,,,,,,
,,,,,,,,,,,,,FF,,,,,,,,1.8962,,,,,,,,,,,,,,,,,,,,,,6100685a736fb35770886345,61036ea4f0989bee0bac8e38,2021-07-29_23h16.07.334,Simcolourproject_2stim_asymm_v5,2020.2.10,Win32,60,61025ae37ef11b136ea224fe,,,,,,,,,4288,-29,84,1,0,0,response7disk,,0,4,0,1,0,0,rectangle,4,0,1,0,0,4,0,1,0,0,0,55,55,7,1,,,,,,,,
,,,,,,,,,,,,,FF,,,,,,,,2.083,,,,,,,,,,,,,,,,,,,,,,6100685a736fb35770886345,61036ea4f0989bee0bac8e38,2021-07-29_23h16.07.334,Simcolourproject_2stim_asymm_v5,2020.2.10,Win32,60,61025ae37ef11b136ea224fe,,,,,,,,,3443,76,-32,1,0,0,response3disk,,5,23,2,1,0,0,rectangle,23,2,1,0,0,23,2,1,0,0,0,56,56,126,1,,,,,,,,
,,,,,,,,,,,,,FF,,,,,,,,2.4295,,,,,,,,,,,,,,,,,,,,,,6100685a736fb35770886345,61036ea4f0989bee0bac8e38,2021-07-29_23h16.07.334,Simcolourproject_2stim_asymm_v5,2020.2.10,Win32,60,61025ae37ef11b136ea224fe,,,,,,,,,3815,96,49,1,0,0,response1disk,,6,-14,9,1,0,0,rectangle,-14,9,1,0,0,-14,9,1,0,0,0,57,57,74,1,,,,,,,,
,,,,,,,,,,,,,FF,,,,,,,,2.8059,,,,,,,,,,,,,,,,,,,,,,6100685a736fb35770886345,61036ea4f0989bee0bac8e38,2021-07-29_23h16.07.334,Simcolourproject_2stim_asymm_v5,2020.2.10,Win32,60,61025ae37ef11b136ea224fe,,,,,,,,,4226,-37,84,1,0,0,response7disk,,0,15,4,1,0,0,rectangle,15,4,1,0,0,15,4,1,0,0,0,58,58,42,1,,,,,,,,
,,,,,,,,,,,,,FF,,,,,,,,2.0764,,,,,,,,,,,,,,,,,,,,,,6100685a736fb35770886345,61036ea4f0989bee0bac8e38,2021-07-29_23h16.07.334,Simcolourproject_2stim_asymm_v5,2020.2.10,Win32,60,61025ae37ef11b136ea224fe,,,,,,,,,251,-67,-91,1,0,0,response5disk,,3,5,-2,1,0,0,rectangle,-118,57,1,0,0,15,1,1,0,0,0,59,59,75,1,,response7disk_3,TRUE,1,1,"[202,132,145,62,109,242,172,71,261,313,250,254,125,126,129,261,33,177,60,212]",2.9202,rectangle
,,,,,,,,,,,,,FF,,,,,,,,1.922,,,,,,,,,,,,,,,,,,,,,,6100685a736fb35770886345,61036ea4f0989bee0bac8e38,2021-07-29_23h16.07.334,Simcolourproject_2stim_asymm_v5,2020.2.10,Win32,60,61025ae37ef11b136ea224fe,,,,,,,,,1667,-28,67,1,0,0,response7disk,,0,34,-7,1,0,0,rectangle,34,-7,1,0,0,34,-7,1,0,0,0,60,60,48,1,,,,,,,,
,,,,,,,,,,,,,FF,,,,,,,,2.5285,,,,,,,,,,,,,,,,,,,,,,6100685a736fb35770886345,61036ea4f0989bee0bac8e38,2021-07-29_23h16.07.334,Simcolourproject_2stim_asymm_v5,2020.2.10,Win32,60,61025ae37ef11b136ea224fe,,,,,,,,,479,-50,-98,1,0,0,response5disk,,3,4,6,1,0,0,rectangle,54,-78,1,0,0,21,-2,1,0,0,0,61,61,120,1,,response3disk_3,TRUE,4,4,"[202,132,145,62,109,242,172,71,261,313,250,254,125,126,129,261,33,177,60,212]",2.7519,rectangle
,,,,,,,,,,,,,FF,,,,,,,,1.9756,,,,,,,,,,,,,,,,,,,,,,6100685a736fb35770886345,61036ea4f0989bee0bac8e38,2021-07-29_23h16.07.334,Simcolourproject_2stim_asymm_v5,2020.2.10,Win32,60,61025ae37ef11b136ea224fe,,,,,,,,,2008,-113,-35,1,0,0,response5disk,,2,0,1,1,0,0,rectangle,0,1,1,0,0,0,1,1,0,0,0,62,62,17,1,,,,,,,,
,,,,,,,,,,,,,FF,,,,,,,,1.8873,,,,,,,,,,,,,,,,,,,,,,6100685a736fb35770886345,61036ea4f0989bee0bac8e38,2021-07-29_23h16.07.334,Simcolourproject_2stim_asymm_v5,2020.2.10,Win32,60,61025ae37ef11b136ea224fe,,,,,,,,,4029,34,-65,1,0,0,response3disk,,4,12,-8,1,0,0,rectangle,12,-8,1,0,0,12,-8,1,0,0,0,63,63,128,1,,,,,,,,
,,,,,,,,,,,,,FF,,,,,,,,2.0221,,,,,,,,,,,,,,,,,,,,,,6100685a736fb35770886345,61036ea4f0989bee0bac8e38,2021-07-29_23h16.07.334,Simcolourproject_2stim_asymm_v5,2020.2.10,Win32,60,61025ae37ef11b136ea224fe,,,,,,,,,1356,76,-22,1,0,0,response3disk,,5,23,7,1,0,0,rectangle,23,7,1,0,0,23,7,1,0,0,0,64,64,33,1,,,,,,,,
,,,,,,,,,,,,,FF,,,,,,,,1.6888,,,,,,,,,,,,,,,,,,,,,,6100685a736fb35770886345,61036ea4f0989bee0bac8e38,2021-07-29_23h16.07.334,Simcolourproject_2stim_asymm_v5,2020.2.10,Win32,60,61025ae37ef11b136ea224fe,,,,,,,,,2048,71,41,1,0,0,response1disk,,6,1,1,1,0,0,rectangle,1,1,1,0,0,1,1,1,0,0,0,65,65,35,1,,,,,,,,
,,,,,,,,,,,,,FF,,,,,,,,2.7386,,,,,,,,,,,,,,,,,,,,,,6100685a736fb35770886345,61036ea4f0989bee0bac8e38,2021-07-29_23h16.07.334,Simcolourproject_2stim_asymm_v5,2020.2.10,Win32,60,61025ae37ef11b136ea224fe,,,,,,,,,39,85,-47,1,0,0,response3disk,,5,12,-4,1,0,0,rectangle,12,-4,1,0,0,12,-4,1,0,0,0,66,66,94,1,,,,,,,,
,,,,,,,,,,,,,FF,,,,,,,,1.6423,,,,,,,,,,,,,,,,,,,,,,6100685a736fb35770886345,61036ea4f0989bee0bac8e38,2021-07-29_23h16.07.334,Simcolourproject_2stim_asymm_v5,2020.2.10,Win32,60,61025ae37ef11b136ea224fe,,,,,,,,,1535,70,49,1,0,0,response1disk,,6,5,-9,1,0,0,rectangle,5,-9,1,0,0,5,-9,1,0,0,0,67,67,97,1,,,,,,,,
,,,,,,,,,,,,,FF,,,,,,,,2.0077,,,,,,,,,,,,,,,,,,,,,,6100685a736fb35770886345,61036ea4f0989bee0bac8e38,2021-07-29_23h16.07.334,Simcolourproject_2stim_asymm_v5,2020.2.10,Win32,60,61025ae37ef11b136ea224fe,,,,,,,,,3026,56,-48,1,0,0,response3disk,,5,-14,-5,1,0,0,rectangle,-14,-5,1,0,0,-14,-5,1,0,0,0,68,68,40,1,,,,,,,,
,,,,,,,,,,,,,FF,,,,,,,,1.6561,,,,,,,,,,,,,,,,,,,,,,6100685a736fb35770886345,61036ea4f0989bee0bac8e38,2021-07-29_23h16.07.334,Simcolourproject_2stim_asymm_v5,2020.2.10,Win32,60,61025ae37ef11b136ea224fe,,,,,,,,,2082,42,-102,1,0,0,response3disk,,4,8,-2,1,0,0,rectangle,8,-2,1,0,0,8,-2,1,0,0,0,69,69,56,1,,,,,,,,
,,,,,,,,,,,,,FF,,,,,,,,1.8948,,,,,,,,,,,,,,,,,,,,,,6100685a736fb35770886345,61036ea4f0989bee0bac8e38,2021-07-29_23h16.07.334,Simcolourproject_2stim_asymm_v5,2020.2.10,Win32,60,61025ae37ef11b136ea224fe,,,,,,,,,2647,-46,-100,1,0,0,response5disk,,3,11,2,1,0,0,rectangle,-53,91,1,0,0,-25,-8,1,0,0,0,70,70,8,1,,response7disk_3,TRUE,0,0,"[202,132,145,62,109,242,172,71,261,313,250,254,125,126,129,261,33,177,60,212]",3.1176,rectangle
,,,,,,,,,,,,,FF,,,,,,,,1.871,,,,,,,,,,,,,,,,,,,,,,6100685a736fb35770886345,61036ea4f0989bee0bac8e38,2021-07-29_23h16.07.334,Simcolourproject_2stim_asymm_v5,2020.2.10,Win32,60,61025ae37ef11b136ea224fe,,,,,,,,,3570,98,-64,1,0,0,response3disk,,5,20,3,1,0,0,rectangle,20,3,1,0,0,20,3,1,0,0,0,71,71,25,1,,,,,,,,
,,,,,,,,,,,,,FF,,,,,,,,1.7699,,,,,,,,,,,,,,,,,,,,,,6100685a736fb35770886345,61036ea4f0989bee0bac8e38,2021-07-29_23h16.07.334,Simcolourproject_2stim_asymm_v5,2020.2.10,Win32,60,61025ae37ef11b136ea224fe,,,,,,,,,815,25,-72,1,0,0,response3disk,,4,1,-6,1,0,0,rectangle,1,-6,1,0,0,1,-6,1,0,0,0,72,72,24,1,,,,,,,,
,,,,,,,,,,,,,FF,,,,,,,,1.5687,,,,,,,,,,,,,,,,,,,,,,6100685a736fb35770886345,61036ea4f0989bee0bac8e38,2021-07-29_23h16.07.334,Simcolourproject_2stim_asymm_v5,2020.2.10,Win32,60,61025ae37ef11b136ea224fe,,,,,,,,,2582,-52,64,1,0,0,response7disk,,0,-11,-3,1,0,0,rectangle,-11,-3,1,0,0,-11,-3,1,0,0,0,73,73,50,1,,,,,,,,
,,,,,,,,,,,,,FF,,,,,,,,1.6087,,,,,,,,,,,,,,,,,,,,,,6100685a736fb35770886345,61036ea4f0989bee0bac8e38,2021-07-29_23h16.07.334,Simcolourproject_2stim_asymm_v5,2020.2.10,Win32,60,61025ae37ef11b136ea224fe,,,,,,,,,2359,-30,-79,1,0,0,response5disk,,3,10,1,1,0,0,rectangle,10,1,1,0,0,10,1,1,0,0,0,74,74,117,1,,,,,,,,
,,,,,,,,,,,,,FF,,,,,,,,1.6366,,,,,,,,,,,,,,,,,,,,,,6100685a736fb35770886345,61036ea4f0989bee0bac8e38,2021-07-29_23h16.07.334,Simcolourproject_2stim_asymm_v5,2020.2.10,Win32,60,61025ae37ef11b136ea224fe,,,,,,,,,385,-45,-82,1,0,0,response5disk,,3,-12,-4,1,0,0,rectangle,-12,-4,1,0,0,-12,-4,1,0,0,0,75,75,135,1,,,,,,,,
,,,,,,,,,,,,,FF,,,,,,,,1.8353,,,,,,,,,,,,,,,,,,,,,,6100685a736fb35770886345,61036ea4f0989bee0bac8e38,2021-07-29_23h16.07.334,Simcolourproject_2stim_asymm_v5,2020.2.10,Win32,60,61025ae37ef11b136ea224fe,,,,,,,,,4050,55,-31,1,0,0,response3disk,,5,6,-2,1,0,0,rectangle,6,-2,1,0,0,6,-2,1,0,0,0,76,76,98,1,,,,,,,,
,,,,,,,,,,,,,FF,,,,,,,,1.9507,,,,,,,,,,,,,,,,,,,,,,6100685a736fb35770886345,61036ea4f0989bee0bac8e38,2021-07-29_23h16.07.334,Simcolourproject_2stim_asymm_v5,2020.2.10,Win32,60,61025ae37ef11b136ea224fe,,,,,,,,,546,88,-43,1,0,0,response3disk,,5,24,5,1,0,0,rectangle,24,5,1,0,0,24,5,1,0,0,0,77,77,104,1,,,,,,,,
,,,,,,,,,,,,,FF,,,,,,,,2.0239,,,,,,,,,,,,,,,,,,,,,,6100685a736fb35770886345,61036ea4f0989bee0bac8e38,2021-07-29_23h16.07.334,Simcolourproject_2stim_asymm_v5,2020.2.10,Win32,60,61025ae37ef11b136ea224fe,,,,,,,,,3107,-72,-38,1,0,0,response5disk,,2,1,-7,1,0,0,rectangle,1,-7,1,0,0,1,-7,1,0,0,0,78,78,62,1,,,,,,,,
,,,,,,,,,,,,,FF,,,,,,,,1.9269,,,,,,,,,,,,,,,,,,,,,,6100685a736fb35770886345,61036ea4f0989bee0bac8e38,2021-07-29_23h16.07.334,Simcolourproject_2stim_asymm_v5,2020.2.10,Win32,60,61025ae37ef11b136ea224fe,,,,,,,,,4160,-73,-44,1,0,0,response5disk,,2,-4,-6,1,0,0,rectangle,-4,-6,1,0,0,-4,-6,1,0,0,0,79,79,41,1,,,,,,,,
,,,,,,,,,,,,,FF,,,,,,,,1.8388,,,,,,,,,,,,,,,,,,,,,,6100685a736fb35770886345,61036ea4f0989bee0bac8e38,2021-07-29_23h16.07.334,Simcolourproject_2stim_asymm_v5,2020.2.10,Win32,60,61025ae37ef11b136ea224fe,,,,,,,,,2899,-25,-112,1,0,0,response5disk,,3,15,-4,1,0,0,rectangle,15,-4,1,0,0,15,-4,1,0,0,0,80,80,107,1,,,,,,,,
,,,,,,,,,,,,,FF,,,,,,,,1.6879,,,,,,,,,,,,,,,,,,,,,,6100685a736fb35770886345,61036ea4f0989bee0bac8e38,2021-07-29_23h16.07.334,Simcolourproject_2stim_asymm_v5,2020.2.10,Win32,60,61025ae37ef11b136ea224fe,,,,,,,,,1872,-28,72,1,0,0,response7disk,,0,10,-11,1,0,0,rectangle,10,-11,1,0,0,10,-11,1,0,0,0,81,81,1,1,,,,,,,,
,,,,,,,,,,,,,FF,,,,,,,,1.9882,,,,,,,,,,,,,,,,,,,,,,6100685a736fb35770886345,61036ea4f0989bee0bac8e38,2021-07-29_23h16.07.334,Simcolourproject_2stim_asymm_v5,2020.2.10,Win32,60,61025ae37ef11b136ea224fe,,,,,,,,,761,-30,82,1,0,0,response7disk,,0,18,2,1,0,0,rectangle,18,2,1,0,0,18,2,1,0,0,0,82,82,30,1,,,,,,,,
,,,,,,,,,,,,,FF,,,,,,,,1.9317,,,,,,,,,,,,,,,,,,,,,,6100685a736fb35770886345,61036ea4f0989bee0bac8e38,2021-07-29_23h16.07.334,Simcolourproject_2stim_asymm_v5,2020.2.10,Win32,60,61025ae37ef11b136ea224fe,,,,,,,,,3755,-31,67,1,0,0,response7disk,,0,-5,4,1,0,0,rectangle,-5,4,1,0,0,-5,4,1,0,0,0,83,83,152,1,,,,,,,,
,,,,,,,,,,,,,FF,,,,,,,,1.9724,,,,,,,,,,,,,,,,,,,,,,6100685a736fb35770886345,61036ea4f0989bee0bac8e38,2021-07-29_23h16.07.334,Simcolourproject_2stim_asymm_v5,2020.2.10,Win32,60,61025ae37ef11b136ea224fe,,,,,,,,,2015,-82,-47,1,0,0,response5disk,,2,6,4,1,0,0,rectangle,6,4,1,0,0,6,4,1,0,0,0,84,84,100,1,,,,,,,,
,,,,,,,,,,,,,FF,,,,,,,,1.7029,,,,,,,,,,,,,,,,,,,,,,6100685a736fb35770886345,61036ea4f0989bee0bac8e38,2021-07-29_23h16.07.334,Simcolourproject_2stim_asymm_v5,2020.2.10,Win32,60,61025ae37ef11b136ea224fe,,,,,,,,,158,-25,-77,1,0,0,response5disk,,3,15,6,1,0,0,rectangle,15,6,1,0,0,15,6,1,0,0,0,85,85,12,1,,,,,,,,
,,,,,,,,,,,,,FF,,,,,,,,2.2302,,,,,,,,,,,,,,,,,,,,,,6100685a736fb35770886345,61036ea4f0989bee0bac8e38,2021-07-29_23h16.07.334,Simcolourproject_2stim_asymm_v5,2020.2.10,Win32,60,61025ae37ef11b136ea224fe,,,,,,,,,2590,56,-95,1,0,0,response3disk,,4,15,-4,1,0,0,rectangle,15,-4,1,0,0,15,-4,1,0,0,0,86,86,60,1,,,,,,,,
,,,,,,,,,,,,,FF,,,,,,,,1.5662,,,,,,,,,,,,,,,,,,,,,,6100685a736fb35770886345,61036ea4f0989bee0bac8e38,2021-07-29_23h16.07.334,Simcolourproject_2stim_asymm_v5,2020.2.10,Win32,60,61025ae37ef11b136ea224fe,,,,,,,,,2263,31,-74,1,0,0,response3disk,,4,4,11,1,0,0,rectangle,4,11,1,0,0,4,11,1,0,0,0,87,87,66,1,,,,,,,,
,,,,,,,,,,,,,FF,,,,,,,,1.8998,,,,,,,,,,,,,,,,,,,,,,6100685a736fb35770886345,61036ea4f0989bee0bac8e38,2021-07-29_23h16.07.334,Simcolourproject_2stim_asymm_v5,2020.2.10,Win32,60,61025ae37ef11b136ea224fe,,,,,,,,,2189,-102,-47,1,0,0,response5disk,,2,-24,-6,1,0,0,rectangle,-24,-6,1,0,0,-24,-6,1,0,0,0,88,88,32,1,,,,,,,,
,,,,,,,,,,,,,FF,,,,,,,,1.3836,,,,,,,,,,,,,,,,,,,,,,6100685a736fb35770886345,61036ea4f0989bee0bac8e38,2021-07-29_23h16.07.334,Simcolourproject_2stim_asymm_v5,2020.2.10,Win32,60,61025ae37ef11b136ea224fe,,,,,,,,,1128,-60,-120,1,0,0,response5disk,,3,12,0,1,0,0,rectangle,12,0,1,0,0,12,0,1,0,0,0,89,89,61,1,,,,,,,,
,,,,,,,,,,,,,FF,,,,,,,,1.9757,,,,,,,,,,,,,,,,,,,,,,6100685a736fb35770886345,61036ea4f0989bee0bac8e38,2021-07-29_23h16.07.334,Simcolourproject_2stim_asymm_v5,2020.2.10,Win32,60,61025ae37ef11b136ea224fe,,,,,,,,,2689,-68,-17,1,0,0,response5disk,,2,-19,9,1,0,0,rectangle,-19,9,1,0,0,-19,9,1,0,0,0,90,90,39,1,,,,,,,,
,,,,,,,,,,,,,FF,,,,,,,,2.5048,,,,,,,,,,,,,,,,,,,,,,6100685a736fb35770886345,61036ea4f0989bee0bac8e38,2021-07-29_23h16.07.334,Simcolourproject_2stim_asymm_v5,2020.2.10,Win32,60,61025ae37ef11b136ea224fe,,,,,,,,,1027,83,-47,1,0,0,response3disk,,5,12,-1,1,0,0,rectangle,12,-1,1,0,0,12,-1,1,0,0,0,91,91,54,1,,,,,,,,
,,,,,,,,,,,,,FF,,,,,,,,1.7698,,,,,,,,,,,,,,,,,,,,,,6100685a736fb35770886345,61036ea4f0989bee0bac8e38,2021-07-29_23h16.07.334,Simcolourproject_2stim_asymm_v5,2020.2.10,Win32,60,61025ae37ef11b136ea224fe,,,,,,,,,1973,82,-46,1,0,0,response3disk,,5,10,1,1,0,0,rectangle,10,1,1,0,0,10,1,1,0,0,0,92,92,112,1,,,,,,,,
,,,,,,,,,,,,,FF,,,,,,,,1.8343,,,,,,,,,,,,,,,,,,,,,,6100685a736fb35770886345,61036ea4f0989bee0bac8e38,2021-07-29_23h16.07.334,Simcolourproject_2stim_asymm_v5,2020.2.10,Win32,60,61025ae37ef11b136ea224fe,,,,,,,,,2725,73,-38,1,0,0,response3disk,,5,9,-5,1,0,0,rectangle,9,-5,1,0,0,9,-5,1,0,0,0,93,93,118,1,,,,,,,,
,,,,,,,,,,,,,FF,,,,,,,,2.1054,,,,,,,,,,,,,,,,,,,,,,6100685a736fb35770886345,61036ea4f0989bee0bac8e38,2021-07-29_23h16.07.334,Simcolourproject_2stim_asymm_v5,2020.2.10,Win32,60,61025ae37ef11b136ea224fe,,,,,,,,,875,77,28,1,0,0,response1disk,,6,3,1,1,0,0,rectangle,3,1,1,0,0,3,1,1,0,0,0,94,94,72,1,,,,,,,,
,,,,,,,,,,,,,FF,,,,,,,,1.6363,,,,,,,,,,,,,,,,,,,,,,6100685a736fb35770886345,61036ea4f0989bee0bac8e38,2021-07-29_23h16.07.334,Simcolourproject_2stim_asymm_v5,2020.2.10,Win32,60,61025ae37ef11b136ea224fe,,,,,,,,,2408,-69,-88,1,0,0,response5disk,,3,22,-4,1,0,0,rectangle,22,-4,1,0,0,22,-4,1,0,0,0,95,95,145,1,,,,,,,,
,,,,,,,,,,,,,FF,,,,,,,,1.6843,,,,,,,,,,,,,,,,,,,,,,6100685a736fb35770886345,61036ea4f0989bee0bac8e38,2021-07-29_23h16.07.334,Simcolourproject_2stim_asymm_v5,2020.2.10,Win32,60,61025ae37ef11b136ea224fe,,,,,,,,,399,-40,68,1,0,0,response7disk,,0,-3,7,1,0,0,rectangle,-3,7,1,0,0,-3,7,1,0,0,0,96,96,14,1,,,,,,,,
,,,,,,,,,,,,,FF,,,,,,,,1.6097,,,,,,,,,,,,,,,,,,,,,,6100685a736fb35770886345,61036ea4f0989bee0bac8e38,2021-07-29_23h16.07.334,Simcolourproject_2stim_asymm_v5,2020.2.10,Win32,60,61025ae37ef11b136ea224fe,,,,,,,,,1236,-53,-94,1,0,0,response5disk,,3,9,-4,1,0,0,rectangle,9,-4,1,0,0,9,-4,1,0,0,0,97,97,69,1,,,,,,,,
,,,,,,,,,,,,,FF,,,,,,,,1.7152,,,,,,,,,,,,,,,,,,,,,,6100685a736fb35770886345,61036ea4f0989bee0bac8e38,2021-07-29_23h16.07.334,Simcolourproject_2stim_asymm_v5,2020.2.10,Win32,60,61025ae37ef11b136ea224fe,,,,,,,,,3542,-26,56,1,0,0,response7disk,,0,11,-2,1,0,0,rectangle,11,-2,1,0,0,11,-2,1,0,0,0,98,98,55,1,,,,,,,,
,,,,,,,,,,,,,FF,,,,,,,,1.8717,,,,,,,,,,,,,,,,,,,,,,6100685a736fb35770886345,61036ea4f0989bee0bac8e38,2021-07-29_23h16.07.334,Simcolourproject_2stim_asymm_v5,2020.2.10,Win32,60,61025ae37ef11b136ea224fe,,,,,,,,,3459,-23,-75,1,0,0,response5disk,,3,-19,6,1,0,0,rectangle,-19,6,1,0,0,-19,6,1,0,0,0,99,99,149,1,,,,,,,,
,,,,,,,,,,,,,FF,,,,,,,,1.5356,,,,,,,,,,,,,,,,,,,,,,6100685a736fb35770886345,61036ea4f0989bee0bac8e38,2021-07-29_23h16.07.334,Simcolourproject_2stim_asymm_v5,2020.2.10,Win32,60,61025ae37ef11b136ea224fe,,,,,,,,,1666,-44,75,1,0,0,response7disk,,0,0,8,1,0,0,rectangle,0,8,1,0,0,0,8,1,0,0,0,100,100,58,1,,,,,,,,
,,,,,,,,,,,,,FF,,,,,,,,1.6988,,,,,,,,,,,,,,,,,,,,,,6100685a736fb35770886345,61036ea4f0989bee0bac8e38,2021-07-29_23h16.07.334,Simcolourproject_2stim_asymm_v5,2020.2.10,Win32,60,61025ae37ef11b136ea224fe,,,,,,,,,861,-30,70,1,0,0,response7disk,,0,-6,6,1,0,0,rectangle,-6,6,1,0,0,-6,6,1,0,0,0,101,101,36,1,,,,,,,,
,,,,,,,,,,,,,FF,,,,,,,,1.6188,,,,,,,,,,,,,,,,,,,,,,6100685a736fb35770886345,61036ea4f0989bee0bac8e38,2021-07-29_23h16.07.334,Simcolourproject_2stim_asymm_v5,2020.2.10,Win32,60,61025ae37ef11b136ea224fe,,,,,,,,,3303,-44,61,1,0,0,response7disk,,0,-1,5,1,0,0,rectangle,-1,5,1,0,0,-1,5,1,0,0,0,102,102,31,1,,,,,,,,
,,,,,,,,,,,,,FF,,,,,,,,1.7725,,,,,,,,,,,,,,,,,,,,,,6100685a736fb35770886345,61036ea4f0989bee0bac8e38,2021-07-29_23h16.07.334,Simcolourproject_2stim_asymm_v5,2020.2.10,Win32,60,61025ae37ef11b136ea224fe,,,,,,,,,2340,97,-56,1,0,0,response3disk,,5,0,2,1,0,0,rectangle,0,2,1,0,0,0,2,1,0,0,0,103,103,84,1,,,,,,,,
,,,,,,,,,,,,,FF,,,,,,,,1.4857,,,,,,,,,,,,,,,,,,,,,,6100685a736fb35770886345,61036ea4f0989bee0bac8e38,2021-07-29_23h16.07.334,Simcolourproject_2stim_asymm_v5,2020.2.10,Win32,60,61025ae37ef11b136ea224fe,,,,,,,,,1359,-36,56,1,0,0,response7disk,,0,-2,-6,1,0,0,rectangle,-2,-6,1,0,0,-2,-6,1,0,0,0,104,104,136,1,,,,,,,,
,,,,,,,,,,,,,FF,,,,,,,,1.8964,,,,,,,,,,,,,,,,,,,,,,6100685a736fb35770886345,61036ea4f0989bee0bac8e38,2021-07-29_23h16.07.334,Simcolourproject_2stim_asymm_v5,2020.2.10,Win32,60,61025ae37ef11b136ea224fe,,,,,,,,,1961,105,31,1,0,0,response1disk,,6,6,-13,1,0,0,rectangle,6,-13,1,0,0,6,-13,1,0,0,0,105,105,81,1,,,,,,,,
,,,,,,,,,,,,,FF,,,,,,,,1.8501,,,,,,,,,,,,,,,,,,,,,,6100685a736fb35770886345,61036ea4f0989bee0bac8e38,2021-07-29_23h16.07.334,Simcolourproject_2stim_asymm_v5,2020.2.10,Win32,60,61025ae37ef11b136ea224fe,,,,,,,,,3187,81,65,1,0,0,response1disk,,6,15,13,1,0,0,rectangle,15,13,1,0,0,15,13,1,0,0,0,106,106,10,1,,,,,,,,
,,,,,,,,,,,,,FF,,,,,,,,1.6408,,,,,,,,,,,,,,,,,,,,,,6100685a736fb35770886345,61036ea4f0989bee0bac8e38,2021-07-29_23h16.07.334,Simcolourproject_2stim_asymm_v5,2020.2.10,Win32,60,61025ae37ef11b136ea224fe,,,,,,,,,4031,113,33,1,0,0,response1disk,,6,20,2,1,0,0,rectangle,20,2,1,0,0,20,2,1,0,0,0,107,107,138,1,,,,,,,,
,,,,,,,,,,,,,FF,,,,,,,,1.6704,,,,,,,,,,,,,,,,,,,,,,6100685a736fb35770886345,61036ea4f0989bee0bac8e38,2021-07-29_23h16.07.334,Simcolourproject_2stim_asymm_v5,2020.2.10,Win32,60,61025ae37ef11b136ea224fe,,,,,,,,,1746,-47,-85,1,0,0,response5disk,,3,21,10,1,0,0,rectangle,108,-64,1,0,0,-10,-3,1,0,0,0,108,108,21,1,,response3disk_3,TRUE,5,3,"[202,132,145,62,109,242,172,71,261,313,250,254,125,126,129,261,33,177,60,212]",2.2392,rectangle
,,,,,,,,,,,,,FF,,,,,,,,1.5398,,,,,,,,,,,,,,,,,,,,,,6100685a736fb35770886345,61036ea4f0989bee0bac8e38,2021-07-29_23h16.07.334,Simcolourproject_2stim_asymm_v5,2020.2.10,Win32,60,61025ae37ef11b136ea224fe,,,,,,,,,3327,-36,76,1,0,0,response7disk,,0,-8,-1,1,0,0,rectangle,-8,-1,1,0,0,-8,-1,1,0,0,0,109,109,142,1,,,,,,,,
,,,,,,,,,,,,,FF,,,,,,,,2.093,,,,,,,,,,,,,,,,,,,,,,6100685a736fb35770886345,61036ea4f0989bee0bac8e38,2021-07-29_23h16.07.334,Simcolourproject_2stim_asymm_v5,2020.2.10,Win32,60,61025ae37ef11b136ea224fe,,,,,,,,,1954,-63,-86,1,0,0,response5disk,,3,3,-3,1,0,0,rectangle,3,-3,1,0,0,3,-3,1,0,0,0,110,110,151,1,,,,,,,,
,,,,,,,,,,,,,FF,,,,,,,,2.1388,,,,,,,,,,,,,,,,,,,,,,6100685a736fb35770886345,61036ea4f0989bee0bac8e38,2021-07-29_23h16.07.334,Simcolourproject_2stim_asymm_v5,2020.2.10,Win32,60,61025ae37ef11b136ea224fe,,,,,,,,,3737,-40,-105,1,0,0,response5disk,,3,25,-7,1,0,0,rectangle,25,-7,1,0,0,25,-7,1,0,0,0,111,111,147,1,,,,,,,,
,,,,,,,,,,,,,FF,,,,,,,,1.5694,,,,,,,,,,,,,,,,,,,,,,6100685a736fb35770886345,61036ea4f0989bee0bac8e38,2021-07-29_23h16.07.334,Simcolourproject_2stim_asymm_v5,2020.2.10,Win32,60,61025ae37ef11b136ea224fe,,,,,,,,,4010,82,-34,1,0,0,response3disk,,5,13,-3,1,0,0,rectangle,13,-3,1,0,0,13,-3,1,0,0,0,112,112,95,1,,,,,,,,
,,,,,,,,,,,,,FF,,,,,,,,2.4423,,,,,,,,,,,,,,,,,,,,,,6100685a736fb35770886345,61036ea4f0989bee0bac8e38,2021-07-29_23h16.07.334,Simcolourproject_2stim_asymm_v5,2020.2.10,Win32,60,61025ae37ef11b136ea224fe,,,,,,,,,1897,88,54,1,0,0,response1disk,,6,-14,2,1,0,0,rectangle,-14,2,1,0,0,-14,2,1,0,0,0,113,113,92,1,,,,,,,,
,,,,,,,,,,,,,FF,,,,,,,,1.6517,,,,,,,,,,,,,,,,,,,,,,6100685a736fb35770886345,61036ea4f0989bee0bac8e38,2021-07-29_23h16.07.334,Simcolourproject_2stim_asymm_v5,2020.2.10,Win32,60,61025ae37ef11b136ea224fe,,,,,,,,,2638,-34,68,1,0,0,response7disk,,0,-9,8,1,0,0,rectangle,-9,8,1,0,0,-9,8,1,0,0,0,114,114,124,1,,,,,,,,
,,,,,,,,,,,,,FF,,,,,,,,1.5533,,,,,,,,,,,,,,,,,,,,,,6100685a736fb35770886345,61036ea4f0989bee0bac8e38,2021-07-29_23h16.07.334,Simcolourproject_2stim_asymm_v5,2020.2.10,Win32,60,61025ae37ef11b136ea224fe,,,,,,,,,3973,98,-44,1,0,0,response3disk,,5,4,3,1,0,0,rectangle,4,3,1,0,0,4,3,1,0,0,0,115,115,18,1,,,,,,,,
,,,,,,,,,,,,,FF,,,,,,,,2.9214,,,,,,,,,,,,,,,,,,,,,,6100685a736fb35770886345,61036ea4f0989bee0bac8e38,2021-07-29_23h16.07.334,Simcolourproject_2stim_asymm_v5,2020.2.10,Win32,60,61025ae37ef11b136ea224fe,,,,,,,,,381,33,-104,1,0,0,response3disk,,4,6,-9,1,0,0,rectangle,6,-9,1,0,0,6,-9,1,0,0,0,116,116,65,1,,,,,,,,
,,,,,,,,,,,,,FF,,,,,,,,2.2552,,,,,,,,,,,,,,,,,,,,,,6100685a736fb35770886345,61036ea4f0989bee0bac8e38,2021-07-29_23h16.07.334,Simcolourproject_2stim_asymm_v5,2020.2.10,Win32,60,61025ae37ef11b136ea224fe,,,,,,,,,614,-40,-74,1,0,0,response5disk,,3,24,-14,1,0,0,rectangle,24,-14,1,0,0,24,-14,1,0,0,0,117,117,148,1,,,,,,,,
,,,,,,,,,,,,,FF,,,,,,,,1.5333,,,,,,,,,,,,,,,,,,,,,,6100685a736fb35770886345,61036ea4f0989bee0bac8e38,2021-07-29_23h16.07.334,Simcolourproject_2stim_asymm_v5,2020.2.10,Win32,60,61025ae37ef11b136ea224fe,,,,,,,,,3243,36,98,1,0,0,response1disk,,7,1,3,1,0,0,rectangle,1,3,1,0,0,1,3,1,0,0,0,118,118,5,1,,,,,,,,
,,,,,,,,,,,,,FF,,,,,,,,1.7328,,,,,,,,,,,,,,,,,,,,,,6100685a736fb35770886345,61036ea4f0989bee0bac8e38,2021-07-29_23h16.07.334,Simcolourproject_2stim_asymm_v5,2020.2.10,Win32,60,61025ae37ef11b136ea224fe,,,,,,,,,3090,76,44,1,0,0,response1disk,,6,19,-1,1,0,0,rectangle,19,-1,1,0,0,19,-1,1,0,0,0,119,119,141,1,,,,,,,,
,,,,,,,,,,,,,FF,,,,,,,,1.8634,,,,,,,,,,,,,,,,,,,,,,6100685a736fb35770886345,61036ea4f0989bee0bac8e38,2021-07-29_23h16.07.334,Simcolourproject_2stim_asymm_v5,2020.2.10,Win32,60,61025ae37ef11b136ea224fe,,,,,,,,,2172,-89,-33,1,0,0,response5disk,,2,0,3,1,0,0,rectangle,0,3,1,0,0,0,3,1,0,0,0,120,120,45,1,,,,,,,,
,,,,,,,,,,,,,FF,,,,,,,,2.4737,,,,,,,,,,,,,,,,,,,,,,6100685a736fb35770886345,61036ea4f0989bee0bac8e38,2021-07-29_23h16.07.334,Simcolourproject_2stim_asymm_v5,2020.2.10,Win32,60,61025ae37ef11b136ea224fe,,,,,,,,,3772,-77,-46,1,0,0,response5disk,,2,0,0,1,0,0,rectangle,0,0,1,0,0,0,0,1,0,0,0,121,121,116,1,,,,,,,,
,,,,,,,,,,,,,FF,,,,,,,,1.5007,,,,,,,,,,,,,,,,,,,,,,6100685a736fb35770886345,61036ea4f0989bee0bac8e38,2021-07-29_23h16.07.334,Simcolourproject_2stim_asymm_v5,2020.2.10,Win32,60,61025ae37ef11b136ea224fe,,,,,,,,,2118,-40,67,1,0,0,response7disk,,0,3,-4,1,0,0,rectangle,3,-4,1,0,0,3,-4,1,0,0,0,122,122,127,1,,,,,,,,
,,,,,,,,,,,,,FF,,,,,,,,1.6424,,,,,,,,,,,,,,,,,,,,,,6100685a736fb35770886345,61036ea4f0989bee0bac8e38,2021-07-29_23h16.07.334,Simcolourproject_2stim_asymm_v5,2020.2.10,Win32,60,61025ae37ef11b136ea224fe,,,,,,,,,832,-33,58,1,0,0,response7disk,,0,0,-6,1,0,0,rectangle,0,-6,1,0,0,0,-6,1,0,0,0,123,123,59,1,,,,,,,,
,,,,,,,,,,,,,FF,,,,,,,,1.8857,,,,,,,,,,,,,,,,,,,,,,6100685a736fb35770886345,61036ea4f0989bee0bac8e38,2021-07-29_23h16.07.334,Simcolourproject_2stim_asymm_v5,2020.2.10,Win32,60,61025ae37ef11b136ea224fe,,,,,,,,,3927,-32,68,1,0,0,response7disk,,0,-5,6,1,0,0,rectangle,87,47,1,0,0,-3,-3,1,0,0,0,124,124,91,1,,response1disk_3,TRUE,6,6,"[202,132,145,62,109,242,172,71,261,313,250,254,125,126,129,261,33,177,60,212]",2.9689,rectangle
,,,,,,,,,,,,,FF,,,,,,,,2.0086,,,,,,,,,,,,,,,,,,,,,,6100685a736fb35770886345,61036ea4f0989bee0bac8e38,2021-07-29_23h16.07.334,Simcolourproject_2stim_asymm_v5,2020.2.10,Win32,60,61025ae37ef11b136ea224fe,,,,,,,,,2614,-41,65,1,0,0,response7disk,,0,-17,0,1,0,0,rectangle,79,-29,1,0,0,15,4,1,0,0,0,125,125,108,1,,response3disk_3,TRUE,5,5,"[202,132,145,62,109,242,172,71,261,313,250,254,125,126,129,261,33,177,60,212]",2.4327,rectangle
,,,,,,,,,,,,,FF,,,,,,,,2.559,,,,,,,,,,,,,,,,,,,,,,6100685a736fb35770886345,61036ea4f0989bee0bac8e38,2021-07-29_23h16.07.334,Simcolourproject_2stim_asymm_v5,2020.2.10,Win32,60,61025ae37ef11b136ea224fe,,,,,,,,,607,-43,-80,1,0,0,response5disk,,3,-4,-5,1,0,0,rectangle,-4,-5,1,0,0,-4,-5,1,0,0,0,126,126,113,1,,,,,,,,
,,,,,,,,,,,,,FF,,,,,,,,1.6667,,,,,,,,,,,,,,,,,,,,,,6100685a736fb35770886345,61036ea4f0989bee0bac8e38,2021-07-29_23h16.07.334,Simcolourproject_2stim_asymm_v5,2020.2.10,Win32,60,61025ae37ef11b136ea224fe,,,,,,,,,2672,107,-48,1,0,0,response3disk,,5,11,-7,1,0,0,rectangle,11,-7,1,0,0,11,-7,1,0,0,0,127,127,103,1,,,,,,,,
,,,,,,,,,,,,,FF,,,,,,,,1.6493,,,,,,,,,,,,,,,,,,,,,,6100685a736fb35770886345,61036ea4f0989bee0bac8e38,2021-07-29_23h16.07.334,Simcolourproject_2stim_asymm_v5,2020.2.10,Win32,60,61025ae37ef11b136ea224fe,,,,,,,,,2572,-42,73,1,0,0,response7disk,,0,-14,1,1,0,0,rectangle,-88,-48,1,0,0,-1,-6,1,0,0,0,128,128,122,1,,response5disk_3,TRUE,2,2,"[202,132,145,62,109,242,172,71,261,313,250,254,125,126,129,261,33,177,60,212]",2.8636,rectangle
,,,,,,,,,,,,,FF,,,,,,,,1.5815,,,,,,,,,,,,,,,,,,,,,,6100685a736fb35770886345,61036ea4f0989bee0bac8e38,2021-07-29_23h16.07.334,Simcolourproject_2stim_asymm_v5,2020.2.10,Win32,60,61025ae37ef11b136ea224fe,,,,,,,,,2004,-31,97,1,0,0,response7disk,,0,-11,9,1,0,0,rectangle,-11,9,1,0,0,-11,9,1,0,0,0,129,129,137,1,,,,,,,,
,,,,,,,,,,,,,FF,,,,,,,,1.7858,,,,,,,,,,,,,,,,,,,,,,6100685a736fb35770886345,61036ea4f0989bee0bac8e38,2021-07-29_23h16.07.334,Simcolourproject_2stim_asymm_v5,2020.2.10,Win32,60,61025ae37ef11b136ea224fe,,,,,,,,,3415,-35,65,1,0,0,response7disk,,0,-13,3,1,0,0,rectangle,-13,3,1,0,0,-13,3,1,0,0,0,130,130,3,1,,,,,,,,
,,,,,,,,,,,,,FF,,,,,,,,1.7557,,,,,,,,,,,,,,,,,,,,,,6100685a736fb35770886345,61036ea4f0989bee0bac8e38,2021-07-29_23h16.07.334,Simcolourproject_2stim_asymm_v5,2020.2.10,Win32,60,61025ae37ef11b136ea224fe,,,,,,,,,3201,36,-92,1,0,0,response3disk,,4,20,-1,1,0,0,rectangle,34,69,1,0,0,11,7,1,0,0,0,131,131,131,1,,response1disk_3,TRUE,7,7,"[202,132,145,62,109,242,172,71,261,313,250,254,125,126,129,261,33,177,60,212]",2.5039,rectangle
,,,,,,,,,,,,,FF,,,,,,,,1.6317,,,,,,,,,,,,,,,,,,,,,,6100685a736fb35770886345,61036ea4f0989bee0bac8e38,2021-07-29_23h16.07.334,Simcolourproject_2stim_asymm_v5,2020.2.10,Win32,60,61025ae37ef11b136ea224fe,,,,,,,,,1137,-37,-100,1,0,0,response5disk,,3,6,10,1,0,0,rectangle,6,10,1,0,0,6,10,1,0,0,0,132,132,6,1,,,,,,,,
,,,,,,,,,,,,,FF,,,,,,,,1.9566,,,,,,,,,,,,,,,,,,,,,,6100685a736fb35770886345,61036ea4f0989bee0bac8e38,2021-07-29_23h16.07.334,Simcolourproject_2stim_asymm_v5,2020.2.10,Win32,60,61025ae37ef11b136ea224fe,,,,,,,,,4028,102,64,1,0,0,response1disk,,6,14,5,1,0,0,rectangle,14,5,1,0,0,14,5,1,0,0,0,133,133,134,1,,,,,,,,
,,,,,,,,,,,,,FF,,,,,,,,1.7971,,,,,,,,,,,,,,,,,,,,,,6100685a736fb35770886345,61036ea4f0989bee0bac8e38,2021-07-29_23h16.07.334,Simcolourproject_2stim_asymm_v5,2020.2.10,Win32,60,61025ae37ef11b136ea224fe,,,,,,,,,676,-22,66,1,0,0,response7disk,,0,-14,1,1,0,0,rectangle,-14,1,1,0,0,-14,1,1,0,0,0,134,134,0,1,,,,,,,,
,,,,,,,,,,,,,FF,,,,,,,,2.2213,,,,,,,,,,,,,,,,,,,,,,6100685a736fb35770886345,61036ea4f0989bee0bac8e38,2021-07-29_23h16.07.334,Simcolourproject_2stim_asymm_v5,2020.2.10,Win32,60,61025ae37ef11b136ea224fe,,,,,,,,,1097,-15,89,1,0,0,response7disk,,0,3,10,1,0,0,rectangle,3,10,1,0,0,3,10,1,0,0,0,135,135,51,1,,,,,,,,
,,,,,,,,,,,,,FF,,,,,,,,1.4539,,,,,,,,,,,,,,,,,,,,,,6100685a736fb35770886345,61036ea4f0989bee0bac8e38,2021-07-29_23h16.07.334,Simcolourproject_2stim_asymm_v5,2020.2.10,Win32,60,61025ae37ef11b136ea224fe,,,,,,,,,2643,-45,73,1,0,0,response7disk,,0,-7,2,1,0,0,rectangle,-7,2,1,0,0,-7,2,1,0,0,0,136,136,158,1,,,,,,,,
,,,,,,,,,,,,,FF,,,,,,,,1.5951,,,,,,,,,,,,,,,,,,,,,,6100685a736fb35770886345,61036ea4f0989bee0bac8e38,2021-07-29_23h16.07.334,Simcolourproject_2stim_asymm_v5,2020.2.10,Win32,60,61025ae37ef11b136ea224fe,,,,,,,,,3229,-34,67,1,0,0,response7disk,,0,-6,-2,1,0,0,rectangle,-6,-2,1,0,0,-6,-2,1,0,0,0,137,137,19,1,,,,,,,,
,,,,,,,,,,,,,FF,,,,,,,,1.4793,,,,,,,,,,,,,,,,,,,,,,6100685a736fb35770886345,61036ea4f0989bee0bac8e38,2021-07-29_23h16.07.334,Simcolourproject_2stim_asymm_v5,2020.2.10,Win32,60,61025ae37ef11b136ea224fe,,,,,,,,,2318,-38,99,1,0,0,response7disk,,0,-17,8,1,0,0,rectangle,-17,8,1,0,0,-17,8,1,0,0,0,138,138,20,1,,,,,,,,
,,,,,,,,,,,,,FF,,,,,,,,1.9383,,,,,,,,,,,,,,,,,,,,,,6100685a736fb35770886345,61036ea4f0989bee0bac8e38,2021-07-29_23h16.07.334,Simcolourproject_2stim_asymm_v5,2020.2.10,Win32,60,61025ae37ef11b136ea224fe,,,,,,,,,3763,-37,60,1,0,0,response7disk,,0,-11,10,1,0,0,rectangle,-11,10,1,0,0,-11,10,1,0,0,0,139,139,73,1,,,,,,,,
,,,,,,,,,,,,,FF,,,,,,,,1.4864,,,,,,,,,,,,,,,,,,,,,,6100685a736fb35770886345,61036ea4f0989bee0bac8e38,2021-07-29_23h16.07.334,Simcolourproject_2stim_asymm_v5,2020.2.10,Win32,60,61025ae37ef11b136ea224fe,,,,,,,,,1134,108,44,1,0,0,response1disk,,6,2,2,1,0,0,rectangle,2,2,1,0,0,2,2,1,0,0,0,140,140,132,1,,,,,,,,
,,,,,,,,,,,,,FF,,,,,,,,1.5841,,,,,,,,,,,,,,,,,,,,,,6100685a736fb35770886345,61036ea4f0989bee0bac8e38,2021-07-29_23h16.07.334,Simcolourproject_2stim_asymm_v5,2020.2.10,Win32,60,61025ae37ef11b136ea224fe,,,,,,,,,4191,-39,79,1,0,0,response7disk,,0,-3,6,1,0,0,rectangle,-3,6,1,0,0,-3,6,1,0,0,0,141,141,29,1,,,,,,,,
,,,,,,,,,,,,,FF,,,,,,,,2.4589,,,,,,,,,,,,,,,,,,,,,,6100685a736fb35770886345,61036ea4f0989bee0bac8e38,2021-07-29_23h16.07.334,Simcolourproject_2stim_asymm_v5,2020.2.10,Win32,60,61025ae37ef11b136ea224fe,,,,,,,,,743,32,-110,1,0,0,response3disk,,4,-2,-4,1,0,0,rectangle,-2,-4,1,0,0,-2,-4,1,0,0,0,142,142,79,1,,,,,,,,
,,,,,,,,,,,,,FF,,,,,,,,1.8565,,,,,,,,,,,,,,,,,,,,,,6100685a736fb35770886345,61036ea4f0989bee0bac8e38,2021-07-29_23h16.07.334,Simcolourproject_2stim_asymm_v5,2020.2.10,Win32,60,61025ae37ef11b136ea224fe,,,,,,,,,3920,74,-46,1,0,0,response3disk,,5,34,-6,1,0,0,rectangle,34,-6,1,0,0,34,-6,1,0,0,0,143,143,77,1,,,,,,,,
,,,,,,,,,,,,,FF,,,,,,,,2.3059,,,,,,,,,,,,,,,,,,,,,,6100685a736fb35770886345,61036ea4f0989bee0bac8e38,2021-07-29_23h16.07.334,Simcolourproject_2stim_asymm_v5,2020.2.10,Win32,60,61025ae37ef11b136ea224fe,,,,,,,,,1790,-81,39,1,0,0,response7disk,,1,-8,10,1,0,0,rectangle,38,-90,1,0,0,20,-6,1,0,0,0,144,144,27,1,,response3disk_3,TRUE,4,4,"[202,132,145,62,109,242,172,71,261,313,250,254,125,126,129,261,33,177,60,212]",2.6279,rectangle
,,,,,,,,,,,,,FF,,,,,,,,1.689,,,,,,,,,,,,,,,,,,,,,,6100685a736fb35770886345,61036ea4f0989bee0bac8e38,2021-07-29_23h16.07.334,Simcolourproject_2stim_asymm_v5,2020.2.10,Win32,60,61025ae37ef11b136ea224fe,,,,,,,,,1486,-37,75,1,0,0,response7disk,,0,2,-4,1,0,0,rectangle,2,-4,1,0,0,2,-4,1,0,0,0,145,145,129,1,,,,,,,,
,,,,,,,,,,,,,FF,,,,,,,,2.1843,,,,,,,,,,,,,,,,,,,,,,6100685a736fb35770886345,61036ea4f0989bee0bac8e38,2021-07-29_23h16.07.334,Simcolourproject_2stim_asymm_v5,2020.2.10,Win32,60,61025ae37ef11b136ea224fe,,,,,,,,,151,-41,92,1,0,0,response7disk,,0,0,3,1,0,0,rectangle,0,3,1,0,0,0,3,1,0,0,0,146,146,46,1,,,,,,,,
,,,,,,,,,,,,,FF,,,,,,,,1.6667,,,,,,,,,,,,,,,,,,,,,,6100685a736fb35770886345,61036ea4f0989bee0bac8e38,2021-07-29_23h16.07.334,Simcolourproject_2stim_asymm_v5,2020.2.10,Win32,60,61025ae37ef11b136ea224fe,,,,,,,,,1847,-61,94,1,0,0,response7disk,,0,9,3,1,0,0,rectangle,9,3,1,0,0,9,3,1,0,0,0,147,147,101,1,,,,,,,,
,,,,,,,,,,,,,FF,,,,,,,,1.6706,,,,,,,,,,,,,,,,,,,,,,6100685a736fb35770886345,61036ea4f0989bee0bac8e38,2021-07-29_23h16.07.334,Simcolourproject_2stim_asymm_v5,2020.2.10,Win32,60,61025ae37ef11b136ea224fe,,,,,,,,,2479,-27,65,1,0,0,response7disk,,0,1,1,1,0,0,rectangle,1,1,1,0,0,1,1,1,0,0,0,148,148,88,1,,,,,,,,
,,,,,,,,,,,,,FF,,,,,,,,2.0802,,,,,,,,,,,,,,,,,,,,,,6100685a736fb35770886345,61036ea4f0989bee0bac8e38,2021-07-29_23h16.07.334,Simcolourproject_2stim_asymm_v5,2020.2.10,Win32,60,61025ae37ef11b136ea224fe,,,,,,,,,2116,-37,55,1,0,0,response7disk,,0,-12,-6,1,0,0,rectangle,-12,-6,1,0,0,-12,-6,1,0,0,0,149,149,150,1,,,,,,,,
,,,,,,,,,,,,,FF,,,,,,,,1.6577,,,,,,,,,,,,,,,,,,,,,,6100685a736fb35770886345,61036ea4f0989bee0bac8e38,2021-07-29_23h16.07.334,Simcolourproject_2stim_asymm_v5,2020.2.10,Win32,60,61025ae37ef11b136ea224fe,,,,,,,,,3103,-33,-72,1,0,0,response5disk,,3,4,4,1,0,0,rectangle,4,4,1,0,0,4,4,1,0,0,0,150,150,76,1,,,,,,,,
,,,,,,,,,,,,,FF,,,,,,,,1.8803,,,,,,,,,,,,,,,,,,,,,,6100685a736fb35770886345,61036ea4f0989bee0bac8e38,2021-07-29_23h16.07.334,Simcolourproject_2stim_asymm_v5,2020.2.10,Win32,60,61025ae37ef11b136ea224fe,,,,,,,,,3746,-83,-46,1,0,0,response5disk,,2,-4,11,1,0,0,rectangle,-4,11,1,0,0,-4,11,1,0,0,0,151,151,78,1,,,,,,,,
,,,,,,,,,,,,,FF,,,,,,,,1.5122,,,,,,,,,,,,,,,,,,,,,,6100685a736fb35770886345,61036ea4f0989bee0bac8e38,2021-07-29_23h16.07.334,Simcolourproject_2stim_asymm_v5,2020.2.10,Win32,60,61025ae37ef11b136ea224fe,,,,,,,,,2868,-19,98,1,0,0,response7disk,,0,24,10,1,0,0,rectangle,24,10,1,0,0,24,10,1,0,0,0,152,152,43,1,,,,,,,,
,,,,,,,,,,,,,FF,,,,,,,,1.7407,,,,,,,,,,,,,,,,,,,,,,6100685a736fb35770886345,61036ea4f0989bee0bac8e38,2021-07-29_23h16.07.334,Simcolourproject_2stim_asymm_v5,2020.2.10,Win32,60,61025ae37ef11b136ea224fe,,,,,,,,,4101,85,-45,1,0,0,response3disk,,5,20,4,1,0,0,rectangle,20,4,1,0,0,20,4,1,0,0,0,153,153,146,1,,,,,,,,
,,,,,,,,,,,,,FF,,,,,,,,1.7177,,,,,,,,,,,,,,,,,,,,,,6100685a736fb35770886345,61036ea4f0989bee0bac8e38,2021-07-29_23h16.07.334,Simcolourproject_2stim_asymm_v5,2020.2.10,Win32,60,61025ae37ef11b136ea224fe,,,,,,,,,2889,77,39,1,0,0,response1disk,,6,3,6,1,0,0,rectangle,3,6,1,0,0,3,6,1,0,0,0,154,154,133,1,,,,,,,,
,,,,,,,,,,,,,FF,,,,,,,,1.7705,,,,,,,,,,,,,,,,,,,,,,6100685a736fb35770886345,61036ea4f0989bee0bac8e38,2021-07-29_23h16.07.334,Simcolourproject_2stim_asymm_v5,2020.2.10,Win32,60,61025ae37ef11b136ea224fe,,,,,,,,,2252,47,-105,1,0,0,response3disk,,4,-15,0,1,0,0,rectangle,-15,0,1,0,0,-15,0,1,0,0,0,155,155,155,1,,,,,,,,
,,,,,,,,,,,,,FF,,,,,,,,2.1366,,,,,,,,,,,,,,,,,,,,,,6100685a736fb35770886345,61036ea4f0989bee0bac8e38,2021-07-29_23h16.07.334,Simcolourproject_2stim_asymm_v5,2020.2.10,Win32,60,61025ae37ef11b136ea224fe,,,,,,,,,380,24,-79,1,0,0,response3disk,,4,5,-4,1,0,0,rectangle,5,-4,1,0,0,5,-4,1,0,0,0,156,156,86,1,,,,,,,,
,,,,,,,,,,,,,FF,,,,,,,,2.5753,,,,,,,,,,,,,,,,,,,,,,6100685a736fb35770886345,61036ea4f0989bee0bac8e38,2021-07-29_23h16.07.334,Simcolourproject_2stim_asymm_v5,2020.2.10,Win32,60,61025ae37ef11b136ea224fe,,,,,,,,,3732,-29,74,1,0,0,response7disk,,0,14,0,1,0,0,rectangle,14,0,1,0,0,14,0,1,0,0,0,157,157,85,1,,,,,,,,
,,,,,,,,,,,,,FF,,,,,,,,1.7048,,,,,,,,,,,,,,,,,,,,,,6100685a736fb35770886345,61036ea4f0989bee0bac8e38,2021-07-29_23h16.07.334,Simcolourproject_2stim_asymm_v5,2020.2.10,Win32,60,61025ae37ef11b136ea224fe,,,,,,,,,1501,-28,81,1,0,0,response7disk,,0,-7,3,1,0,0,rectangle,-7,3,1,0,0,-7,3,1,0,0,0,158,158,110,1,,,,,,,,
,,,,,,,,,,,,,FF,,,,,,,,2.9547,,,,,,,,,,,,,,,,,,,,,,6100685a736fb35770886345,61036ea4f0989bee0bac8e38,2021-07-29_23h16.07.334,Simcolourproject_2stim_asymm_v5,2020.2.10,Win32,60,61025ae37ef11b136ea224fe,,,,,,,,,4082,49,-72,1,0,0,response3disk,,4,17,-3,1,0,0,rectangle,17,-3,1,0,0,17,-3,1,0,0,0,159,159,121,1,,,,,,,,
,,,,,,,,,,,,,FF,,,,,,,,1.7841,,,,,,,,,,,,,,,,,,,,,,6100685a736fb35770886345,61036ea4f0989bee0bac8e38,2021-07-29_23h16.07.334,Simcolourproject_2stim_asymm_v5,2020.2.10,Win32,60,61025ae37ef11b136ea224fe,,,,,,,,,2701,-104,-28,1,0,0,response5disk,,2,-12,3,1,0,0,rectangle,-12,3,1,0,0,-12,3,1,0,0,1,0,160,32,1,,,,,,,,
,,,,,,,,,,,,,FF,,,,,,,,2.5747,,,,,,,,,,,,,,,,,,,,,,6100685a736fb35770886345,61036ea4f0989bee0bac8e38,2021-07-29_23h16.07.334,Simcolourproject_2stim_asymm_v5,2020.2.10,Win32,60,61025ae37ef11b136ea224fe,,,,,,,,,48,-39,63,1,0,0,response7disk,,0,9,-5,1,0,0,rectangle,9,-5,1,0,0,9,-5,1,0,0,1,1,161,58,1,,,,,,,,
,,,,,,,,,,,,,FF,,,,,,,,1.7249,,,,,,,,,,,,,,,,,,,,,,6100685a736fb35770886345,61036ea4f0989bee0bac8e38,2021-07-29_23h16.07.334,Simcolourproject_2stim_asymm_v5,2020.2.10,Win32,60,61025ae37ef11b136ea224fe,,,,,,,,,2793,52,-83,1,0,0,response3disk,,4,11,8,1,0,0,rectangle,11,8,1,0,0,11,8,1,0,0,1,2,162,70,1,,,,,,,,
,,,,,,,,,,,,,FF,,,,,,,,1.9649,,,,,,,,,,,,,,,,,,,,,,6100685a736fb35770886345,61036ea4f0989bee0bac8e38,2021-07-29_23h16.07.334,Simcolourproject_2stim_asymm_v5,2020.2.10,Win32,60,61025ae37ef11b136ea224fe,,,,,,,,,3910,97,44,1,0,0,response1disk,,6,-7,9,1,0,0,rectangle,-7,9,1,0,0,-7,9,1,0,0,1,3,163,48,1,,,,,,,,
,,,,,,,,,,,,,FF,,,,,,,,2.084,,,,,,,,,,,,,,,,,,,,,,6100685a736fb35770886345,61036ea4f0989bee0bac8e38,2021-07-29_23h16.07.334,Simcolourproject_2stim_asymm_v5,2020.2.10,Win32,60,61025ae37ef11b136ea224fe,,,,,,,,,1498,-65,-39,1,0,0,response5disk,,2,-7,5,1,0,0,rectangle,-7,5,1,0,0,-7,5,1,0,0,1,4,164,64,1,,,,,,,,
,,,,,,,,,,,,,FF,,,,,,,,2.1912,,,,,,,,,,,,,,,,,,,,,,6100685a736fb35770886345,61036ea4f0989bee0bac8e38,2021-07-29_23h16.07.334,Simcolourproject_2stim_asymm_v5,2020.2.10,Win32,60,61025ae37ef11b136ea224fe,,,,,,,,,3872,-58,74,1,0,0,response7disk,,0,8,2,1,0,0,rectangle,8,2,1,0,0,8,2,1,0,0,1,5,165,130,1,,,,,,,,
,,,,,,,,,,,,,FF,,,,,,,,2.6062,,,,,,,,,,,,,,,,,,,,,,6100685a736fb35770886345,61036ea4f0989bee0bac8e38,2021-07-29_23h16.07.334,Simcolourproject_2stim_asymm_v5,2020.2.10,Win32,60,61025ae37ef11b136ea224fe,,,,,,,,,3454,-73,-41,1,0,0,response5disk,,2,5,13,1,0,0,rectangle,5,13,1,0,0,5,13,1,0,0,1,6,166,135,1,,,,,,,,
,,,,,,,,,,,,,FF,,,,,,,,2.0673,,,,,,,,,,,,,,,,,,,,,,6100685a736fb35770886345,61036ea4f0989bee0bac8e38,2021-07-29_23h16.07.334,Simcolourproject_2stim_asymm_v5,2020.2.10,Win32,60,61025ae37ef11b136ea224fe,,,,,,,,,3824,-37,103,1,0,0,response7disk,,0,-7,3,1,0,0,rectangle,-7,3,1,0,0,-7,3,1,0,0,1,7,167,40,1,,,,,,,,
,,,,,,,,,,,,,FF,,,,,,,,1.8911,,,,,,,,,,,,,,,,,,,,,,6100685a736fb35770886345,61036ea4f0989bee0bac8e38,2021-07-29_23h16.07.334,Simcolourproject_2stim_asymm_v5,2020.2.10,Win32,60,61025ae37ef11b136ea224fe,,,,,,,,,4105,-36,-108,1,0,0,response5disk,,3,16,7,1,0,0,rectangle,16,7,1,0,0,16,7,1,0,0,1,8,168,121,1,,,,,,,,
,,,,,,,,,,,,,FF,,,,,,,,1.8683,,,,,,,,,,,,,,,,,,,,,,6100685a736fb35770886345,61036ea4f0989bee0bac8e38,2021-07-29_23h16.07.334,Simcolourproject_2stim_asymm_v5,2020.2.10,Win32,60,61025ae37ef11b136ea224fe,,,,,,,,,1495,-39,80,1,0,0,response7disk,,0,-7,3,1,0,0,rectangle,-7,3,1,0,0,-7,3,1,0,0,1,9,169,108,1,,,,,,,,
,,,,,,,,,,,,,FF,,,,,,,,1.6024,,,,,,,,,,,,,,,,,,,,,,6100685a736fb35770886345,61036ea4f0989bee0bac8e38,2021-07-29_23h16.07.334,Simcolourproject_2stim_asymm_v5,2020.2.10,Win32,60,61025ae37ef11b136ea224fe,,,,,,,,,2003,-35,70,1,0,0,response7disk,,0,-5,1,1,0,0,rectangle,-5,1,1,0,0,-5,1,1,0,0,1,10,170,148,1,,,,,,,,
,,,,,,,,,,,,,FF,,,,,,,,2.4387,,,,,,,,,,,,,,,,,,,,,,6100685a736fb35770886345,61036ea4f0989bee0bac8e38,2021-07-29_23h16.07.334,Simcolourproject_2stim_asymm_v5,2020.2.10,Win32,60,61025ae37ef11b136ea224fe,,,,,,,,,1465,-75,-29,1,0,0,response5disk,,2,-21,-4,1,0,0,rectangle,40,90,1,0,0,8,3,1,0,0,1,11,171,91,1,,response1disk_3,TRUE,7,7,"[202,132,145,62,109,242,172,71,261,313,250,254,125,126,129,261,33,177,60,212]",2.5698,rectangle
,,,,,,,,,,,,,FF,,,,,,,,1.589,,,,,,,,,,,,,,,,,,,,,,6100685a736fb35770886345,61036ea4f0989bee0bac8e38,2021-07-29_23h16.07.334,Simcolourproject_2stim_asymm_v5,2020.2.10,Win32,60,61025ae37ef11b136ea224fe,,,,,,,,,3371,-33,71,1,0,0,response7disk,,0,-8,8,1,0,0,rectangle,-8,8,1,0,0,-8,8,1,0,0,1,12,172,138,1,,,,,,,,
,,,,,,,,,,,,,FF,,,,,,,,1.7786,,,,,,,,,,,,,,,,,,,,,,6100685a736fb35770886345,61036ea4f0989bee0bac8e38,2021-07-29_23h16.07.334,Simcolourproject_2stim_asymm_v5,2020.2.10,Win32,60,61025ae37ef11b136ea224fe,,,,,,,,,2287,-72,-41,1,0,0,response5disk,,2,4,-1,1,0,0,rectangle,4,-1,1,0,0,4,-1,1,0,0,1,13,173,145,1,,,,,,,,
,,,,,,,,,,,,,FF,,,,,,,,1.5176,,,,,,,,,,,,,,,,,,,,,,6100685a736fb35770886345,61036ea4f0989bee0bac8e38,2021-07-29_23h16.07.334,Simcolourproject_2stim_asymm_v5,2020.2.10,Win32,60,61025ae37ef11b136ea224fe,,,,,,,,,1173,-69,-35,1,0,0,response5disk,,2,-8,-4,1,0,0,rectangle,-8,-4,1,0,0,-8,-4,1,0,0,1,14,174,95,1,,,,,,,,
,,,,,,,,,,,,,FF,,,,,,,,1.6165,,,,,,,,,,,,,,,,,,,,,,6100685a736fb35770886345,61036ea4f0989bee0bac8e38,2021-07-29_23h16.07.334,Simcolourproject_2stim_asymm_v5,2020.2.10,Win32,60,61025ae37ef11b136ea224fe,,,,,,,,,3171,-38,-89,1,0,0,response5disk,,3,3,-3,1,0,0,rectangle,3,-3,1,0,0,3,-3,1,0,0,1,15,175,115,1,,,,,,,,
,,,,,,,,,,,,,FF,,,,,,,,1.5699,,,,,,,,,,,,,,,,,,,,,,6100685a736fb35770886345,61036ea4f0989bee0bac8e38,2021-07-29_23h16.07.334,Simcolourproject_2stim_asymm_v5,2020.2.10,Win32,60,61025ae37ef11b136ea224fe,,,,,,,,,111,-28,82,1,0,0,response7disk,,0,-11,-5,1,0,0,rectangle,-35,77,1,0,0,-11,-5,1,0,0,1,16,176,94,1,,response7disk_3,TRUE,0,0,"[202,132,145,62,109,242,172,71,261,313,250,254,125,126,129,261,33,177,60,212]",2.6561,rectangle
,,,,,,,,,,,,,FF,,,,,,,,1.7608,,,,,,,,,,,,,,,,,,,,,,6100685a736fb35770886345,61036ea4f0989bee0bac8e38,2021-07-29_23h16.07.334,Simcolourproject_2stim_asymm_v5,2020.2.10,Win32,60,61025ae37ef11b136ea224fe,,,,,,,,,4330,-41,81,1,0,0,response7disk,,0,1,-7,1,0,0,rectangle,1,-7,1,0,0,1,-7,1,0,0,1,17,177,159,1,,,,,,,,
,,,,,,,,,,,,,FF,,,,,,,,1.6261,,,,,,,,,,,,,,,,,,,,,,6100685a736fb35770886345,61036ea4f0989bee0bac8e38,2021-07-29_23h16.07.334,Simcolourproject_2stim_asymm_v5,2020.2.10,Win32,60,61025ae37ef11b136ea224fe,,,,,,,,,1533,-93,-47,1,0,0,response5disk,,2,-1,-1,1,0,0,rectangle,-1,-1,1,0,0,-1,-1,1,0,0,1,18,178,155,1,,,,,,,,
,,,,,,,,,,,,,FF,,,,,,,,1.5024,,,,,,,,,,,,,,,,,,,,,,6100685a736fb35770886345,61036ea4f0989bee0bac8e38,2021-07-29_23h16.07.334,Simcolourproject_2stim_asymm_v5,2020.2.10,Win32,60,61025ae37ef11b136ea224fe,,,,,,,,,1100,-38,68,1,0,0,response7disk,,0,-2,-10,1,0,0,rectangle,-2,-10,1,0,0,-2,-10,1,0,0,1,19,179,100,1,,,,,,,,
,,,,,,,,,,,,,FF,,,,,,,,2.3078,,,,,,,,,,,,,,,,,,,,,,6100685a736fb35770886345,61036ea4f0989bee0bac8e38,2021-07-29_23h16.07.334,Simcolourproject_2stim_asymm_v5,2020.2.10,Win32,60,61025ae37ef11b136ea224fe,,,,,,,,,1141,-89,-42,1,0,0,response5disk,,2,-11,-8,1,0,0,rectangle,-11,-8,1,0,0,-11,-8,1,0,0,1,20,180,22,1,,,,,,,,
,,,,,,,,,,,,,FF,,,,,,,,1.6157,,,,,,,,,,,,,,,,,,,,,,6100685a736fb35770886345,61036ea4f0989bee0bac8e38,2021-07-29_23h16.07.334,Simcolourproject_2stim_asymm_v5,2020.2.10,Win32,60,61025ae37ef11b136ea224fe,,,,,,,,,3322,-33,76,1,0,0,response7disk,,0,-8,1,1,0,0,rectangle,-8,1,1,0,0,-8,1,1,0,0,1,21,181,26,1,,,,,,,,
,,,,,,,,,,,,,FF,,,,,,,,1.4701,,,,,,,,,,,,,,,,,,,,,,6100685a736fb35770886345,61036ea4f0989bee0bac8e38,2021-07-29_23h16.07.334,Simcolourproject_2stim_asymm_v5,2020.2.10,Win32,60,61025ae37ef11b136ea224fe,,,,,,,,,2971,-41,71,1,0,0,response7disk,,0,-24,2,1,0,0,rectangle,-24,2,1,0,0,-24,2,1,0,0,1,22,182,120,1,,,,,,,,
,,,,,,,,,,,,,FF,,,,,,,,1.8435,,,,,,,,,,,,,,,,,,,,,,6100685a736fb35770886345,61036ea4f0989bee0bac8e38,2021-07-29_23h16.07.334,Simcolourproject_2stim_asymm_v5,2020.2.10,Win32,60,61025ae37ef11b136ea224fe,,,,,,,,,3130,-35,56,1,0,0,response7disk,,0,-8,-2,1,0,0,rectangle,-8,-2,1,0,0,-8,-2,1,0,0,1,23,183,9,1,,,,,,,,
,,,,,,,,,,,,,FF,,,,,,,,1.5119,,,,,,,,,,,,,,,,,,,,,,6100685a736fb35770886345,61036ea4f0989bee0bac8e38,2021-07-29_23h16.07.334,Simcolourproject_2stim_asymm_v5,2020.2.10,Win32,60,61025ae37ef11b136ea224fe,,,,,,,,,2936,-40,57,1,0,0,response7disk,,0,-5,1,1,0,0,rectangle,-5,1,1,0,0,-5,1,1,0,0,1,24,184,21,1,,,,,,,,
,,,,,,,,,,,,,FF,,,,,,,,1.7238,,,,,,,,,,,,,,,,,,,,,,6100685a736fb35770886345,61036ea4f0989bee0bac8e38,2021-07-29_23h16.07.334,Simcolourproject_2stim_asymm_v5,2020.2.10,Win32,60,61025ae37ef11b136ea224fe,,,,,,,,,72,-33,-91,1,0,0,response5disk,,3,-12,5,1,0,0,rectangle,-12,5,1,0,0,-12,5,1,0,0,1,25,185,80,1,,,,,,,,
,,,,,,,,,,,,,FF,,,,,,,,2.1913,,,,,,,,,,,,,,,,,,,,,,6100685a736fb35770886345,61036ea4f0989bee0bac8e38,2021-07-29_23h16.07.334,Simcolourproject_2stim_asymm_v5,2020.2.10,Win32,60,61025ae37ef11b136ea224fe,,,,,,,,,3246,-51,77,1,0,0,response7disk,,0,-14,1,1,0,0,rectangle,-14,1,1,0,0,-14,1,1,0,0,1,26,186,111,1,,,,,,,,
,,,,,,,,,,,,,FF,,,,,,,,1.5892,,,,,,,,,,,,,,,,,,,,,,6100685a736fb35770886345,61036ea4f0989bee0bac8e38,2021-07-29_23h16.07.334,Simcolourproject_2stim_asymm_v5,2020.2.10,Win32,60,61025ae37ef11b136ea224fe,,,,,,,,,4197,-74,-45,1,0,0,response5disk,,2,-15,3,1,0,0,rectangle,-15,3,1,0,0,-15,3,1,0,0,1,27,187,57,1,,,,,,,,
,,,,,,,,,,,,,FF,,,,,,,,1.4185,,,,,,,,,,,,,,,,,,,,,,6100685a736fb35770886345,61036ea4f0989bee0bac8e38,2021-07-29_23h16.07.334,Simcolourproject_2stim_asymm_v5,2020.2.10,Win32,60,61025ae37ef11b136ea224fe,,,,,,,,,1378,-37,-69,1,0,0,response5disk,,3,-4,-3,1,0,0,rectangle,-4,-3,1,0,0,-4,-3,1,0,0,1,28,188,60,1,,,,,,,,
,,,,,,,,,,,,,FF,,,,,,,,1.5362,,,,,,,,,,,,,,,,,,,,,,6100685a736fb35770886345,61036ea4f0989bee0bac8e38,2021-07-29_23h16.07.334,Simcolourproject_2stim_asymm_v5,2020.2.10,Win32,60,61025ae37ef11b136ea224fe,,,,,,,,,2723,-72,-52,1,0,0,response5disk,,2,-13,-5,1,0,0,rectangle,-13,-5,1,0,0,-13,-5,1,0,0,1,29,189,110,1,,,,,,,,
,,,,,,,,,,,,,FF,,,,,,,,1.5849,,,,,,,,,,,,,,,,,,,,,,6100685a736fb35770886345,61036ea4f0989bee0bac8e38,2021-07-29_23h16.07.334,Simcolourproject_2stim_asymm_v5,2020.2.10,Win32,60,61025ae37ef11b136ea224fe,,,,,,,,,1507,-35,-68,1,0,0,response5disk,,3,5,0,1,0,0,rectangle,5,0,1,0,0,5,0,1,0,0,1,30,190,84,1,,,,,,,,
,,,,,,,,,,,,,FF,,,,,,,,1.5543,,,,,,,,,,,,,,,,,,,,,,6100685a736fb35770886345,61036ea4f0989bee0bac8e38,2021-07-29_23h16.07.334,Simcolourproject_2stim_asymm_v5,2020.2.10,Win32,60,61025ae37ef11b136ea224fe,,,,,,,,,3762,-26,54,1,0,0,response7disk,,0,4,2,1,0,0,rectangle,4,2,1,0,0,4,2,1,0,0,1,31,191,113,1,,,,,,,,
,,,,,,,,,,,,,FF,,,,,,,,1.9407,,,,,,,,,,,,,,,,,,,,,,6100685a736fb35770886345,61036ea4f0989bee0bac8e38,2021-07-29_23h16.07.334,Simcolourproject_2stim_asymm_v5,2020.2.10,Win32,60,61025ae37ef11b136ea224fe,,,,,,,,,1499,-24,63,1,0,0,response7disk,,0,-1,-2,1,0,0,rectangle,-1,-2,1,0,0,-1,-2,1,0,0,1,32,192,2,1,,,,,,,,
,,,,,,,,,,,,,FF,,,,,,,,1.6048,,,,,,,,,,,,,,,,,,,,,,6100685a736fb35770886345,61036ea4f0989bee0bac8e38,2021-07-29_23h16.07.334,Simcolourproject_2stim_asymm_v5,2020.2.10,Win32,60,61025ae37ef11b136ea224fe,,,,,,,,,3591,44,93,1,0,0,response1disk,,7,8,2,1,0,0,rectangle,8,2,1,0,0,8,2,1,0,0,1,33,193,96,1,,,,,,,,
,,,,,,,,,,,,,FF,,,,,,,,1.6555,,,,,,,,,,,,,,,,,,,,,,6100685a736fb35770886345,61036ea4f0989bee0bac8e38,2021-07-29_23h16.07.334,Simcolourproject_2stim_asymm_v5,2020.2.10,Win32,60,61025ae37ef11b136ea224fe,,,,,,,,,4146,84,49,1,0,0,response1disk,,6,-6,7,1,0,0,rectangle,-6,7,1,0,0,-6,7,1,0,0,1,34,194,25,1,,,,,,,,
,,,,,,,,,,,,,FF,,,,,,,,1.4392,,,,,,,,,,,,,,,,,,,,,,6100685a736fb35770886345,61036ea4f0989bee0bac8e38,2021-07-29_23h16.07.334,Simcolourproject_2stim_asymm_v5,2020.2.10,Win32,60,61025ae37ef11b136ea224fe,,,,,,,,,558,-53,86,1,0,0,response7disk,,0,4,-11,1,0,0,rectangle,4,-11,1,0,0,4,-11,1,0,0,1,35,195,127,1,,,,,,,,
,,,,,,,,,,,,,FF,,,,,,,,1.7811,,,,,,,,,,,,,,,,,,,,,,6100685a736fb35770886345,61036ea4f0989bee0bac8e38,2021-07-29_23h16.07.334,Simcolourproject_2stim_asymm_v5,2020.2.10,Win32,60,61025ae37ef11b136ea224fe,,,,,,,,,4284,-33,67,1,0,0,response7disk,,0,14,-13,1,0,0,rectangle,14,-13,1,0,0,14,-13,1,0,0,1,36,196,126,1,,,,,,,,
,,,,,,,,,,,,,FF,,,,,,,,1.4707,,,,,,,,,,,,,,,,,,,,,,6100685a736fb35770886345,61036ea4f0989bee0bac8e38,2021-07-29_23h16.07.334,Simcolourproject_2stim_asymm_v5,2020.2.10,Win32,60,61025ae37ef11b136ea224fe,,,,,,,,,3551,33,107,1,0,0,response1disk,,7,-1,6,1,0,0,rectangle,-1,6,1,0,0,-1,6,1,0,0,1,37,197,87,1,,,,,,,,
,,,,,,,,,,,,,FF,,,,,,,,2.0248,,,,,,,,,,,,,,,,,,,,,,6100685a736fb35770886345,61036ea4f0989bee0bac8e38,2021-07-29_23h16.07.334,Simcolourproject_2stim_asymm_v5,2020.2.10,Win32,60,61025ae37ef11b136ea224fe,,,,,,,,,3738,-38,-67,1,0,0,response5disk,,3,-3,13,1,0,0,rectangle,-3,13,1,0,0,-3,13,1,0,0,1,38,198,10,1,,,,,,,,
,,,,,,,,,,,,,FF,,,,,,,,2.1052,,,,,,,,,,,,,,,,,,,,,,6100685a736fb35770886345,61036ea4f0989bee0bac8e38,2021-07-29_23h16.07.334,Simcolourproject_2stim_asymm_v5,2020.2.10,Win32,60,61025ae37ef11b136ea224fe,,,,,,,,,3598,110,25,1,0,0,response1disk,,6,4,3,1,0,0,rectangle,4,3,1,0,0,4,3,1,0,0,1,39,199,143,1,,,,,,,,
,,,,,,,,,,,,,FF,,,,,,,,1.4875,,,,,,,,,,,,,,,,,,,,,,6100685a736fb35770886345,61036ea4f0989bee0bac8e38,2021-07-29_23h16.07.334,Simcolourproject_2stim_asymm_v5,2020.2.10,Win32,60,61025ae37ef11b136ea224fe,,,,,,,,,2998,82,29,1,0,0,response1disk,,6,5,4,1,0,0,rectangle,5,4,1,0,0,5,4,1,0,0,1,40,200,52,1,,,,,,,,
,,,,,,,,,,,,,FF,,,,,,,,1.5405,,,,,,,,,,,,,,,,,,,,,,6100685a736fb35770886345,61036ea4f0989bee0bac8e38,2021-07-29_23h16.07.334,Simcolourproject_2stim_asymm_v5,2020.2.10,Win32,60,61025ae37ef11b136ea224fe,,,,,,,,,4274,-31,63,1,0,0,response7disk,,0,1,4,1,0,0,rectangle,-27,74,1,0,0,-24,0,1,0,0,1,41,201,61,1,,response7disk_3,TRUE,0,5,"[202,132,145,62,109,242,172,71,261,313,250,254,125,126,129,261,33,177,60,212]",1.9446,rectangle
,,,,,,,,,,,,,FF,,,,,,,,1.5225,,,,,,,,,,,,,,,,,,,,,,6100685a736fb35770886345,61036ea4f0989bee0bac8e38,2021-07-29_23h16.07.334,Simcolourproject_2stim_asymm_v5,2020.2.10,Win32,60,61025ae37ef11b136ea224fe,,,,,,,,,333,-45,64,1,0,0,response7disk,,0,4,5,1,0,0,rectangle,4,5,1,0,0,4,5,1,0,0,1,42,202,44,1,,,,,,,,
,,,,,,,,,,,,,FF,,,,,,,,1.7543,,,,,,,,,,,,,,,,,,,,,,6100685a736fb35770886345,61036ea4f0989bee0bac8e38,2021-07-29_23h16.07.334,Simcolourproject_2stim_asymm_v5,2020.2.10,Win32,60,61025ae37ef11b136ea224fe,,,,,,,,,35,-23,62,1,0,0,response7disk,,0,-1,11,1,0,0,rectangle,-1,11,1,0,0,-1,11,1,0,0,1,43,203,53,1,,,,,,,,
,,,,,,,,,,,,,FF,,,,,,,,1.5197,,,,,,,,,,,,,,,,,,,,,,6100685a736fb35770886345,61036ea4f0989bee0bac8e38,2021-07-29_23h16.07.334,Simcolourproject_2stim_asymm_v5,2020.2.10,Win32,60,61025ae37ef11b136ea224fe,,,,,,,,,4022,71,34,1,0,0,response1disk,,6,14,6,1,0,0,rectangle,14,6,1,0,0,14,6,1,0,0,1,44,204,105,1,,,,,,,,
,,,,,,,,,,,,,FF,,,,,,,,1.4394,,,,,,,,,,,,,,,,,,,,,,6100685a736fb35770886345,61036ea4f0989bee0bac8e38,2021-07-29_23h16.07.334,Simcolourproject_2stim_asymm_v5,2020.2.10,Win32,60,61025ae37ef11b136ea224fe,,,,,,,,,296,-48,83,1,0,0,response7disk,,0,0,0,1,0,0,rectangle,0,0,1,0,0,0,0,1,0,0,1,45,205,106,1,,,,,,,,
,,,,,,,,,,,,,FF,,,,,,,,1.3549,,,,,,,,,,,,,,,,,,,,,,6100685a736fb35770886345,61036ea4f0989bee0bac8e38,2021-07-29_23h16.07.334,Simcolourproject_2stim_asymm_v5,2020.2.10,Win32,60,61025ae37ef11b136ea224fe,,,,,,,,,1931,-45,66,1,0,0,response7disk,,0,5,0,1,0,0,rectangle,5,0,1,0,0,5,0,1,0,0,1,46,206,117,1,,,,,,,,
,,,,,,,,,,,,,FF,,,,,,,,1.6361,,,,,,,,,,,,,,,,,,,,,,6100685a736fb35770886345,61036ea4f0989bee0bac8e38,2021-07-29_23h16.07.334,Simcolourproject_2stim_asymm_v5,2020.2.10,Win32,60,61025ae37ef11b136ea224fe,,,,,,,,,520,-93,-43,1,0,0,response5disk,,2,14,8,1,0,0,rectangle,14,8,1,0,0,14,8,1,0,0,1,47,207,29,1,,,,,,,,
,,,,,,,,,,,,,FF,,,,,,,,1.4533,,,,,,,,,,,,,,,,,,,,,,6100685a736fb35770886345,61036ea4f0989bee0bac8e38,2021-07-29_23h16.07.334,Simcolourproject_2stim_asymm_v5,2020.2.10,Win32,60,61025ae37ef11b136ea224fe,,,,,,,,,2468,-32,71,1,0,0,response7disk,,0,-1,-11,1,0,0,rectangle,-1,-11,1,0,0,-1,-11,1,0,0,1,48,208,86,1,,,,,,,,
,,,,,,,,,,,,,FF,,,,,,,,1.9062,,,,,,,,,,,,,,,,,,,,,,6100685a736fb35770886345,61036ea4f0989bee0bac8e38,2021-07-29_23h16.07.334,Simcolourproject_2stim_asymm_v5,2020.2.10,Win32,60,61025ae37ef11b136ea224fe,,,,,,,,,2294,105,38,1,0,0,response1disk,,6,8,0,1,0,0,rectangle,8,0,1,0,0,8,0,1,0,0,1,49,209,158,1,,,,,,,,
,,,,,,,,,,,,,FF,,,,,,,,1.6748,,,,,,,,,,,,,,,,,,,,,,6100685a736fb35770886345,61036ea4f0989bee0bac8e38,2021-07-29_23h16.07.334,Simcolourproject_2stim_asymm_v5,2020.2.10,Win32,60,61025ae37ef11b136ea224fe,,,,,,,,,1256,-65,-78,1,0,0,response5disk,,3,-1,-6,1,0,0,rectangle,-1,-6,1,0,0,-1,-6,1,0,0,1,50,210,75,1,,,,,,,,
,,,,,,,,,,,,,FF,,,,,,,,1.5578,,,,,,,,,,,,,,,,,,,,,,6100685a736fb35770886345,61036ea4f0989bee0bac8e38,2021-07-29_23h16.07.334,Simcolourproject_2stim_asymm_v5,2020.2.10,Win32,60,61025ae37ef11b136ea224fe,,,,,,,,,1431,86,-47,1,0,0,response3disk,,5,20,4,1,0,0,rectangle,-70,-97,1,0,0,-17,9,1,0,0,1,51,211,129,1,,response5disk_3,TRUE,3,3,"[202,132,145,62,109,242,172,71,261,313,250,254,125,126,129,261,33,177,60,212]",3.4028,rectangle
,,,,,,,,,,,,,FF,,,,,,,,1.5729,,,,,,,,,,,,,,,,,,,,,,6100685a736fb35770886345,61036ea4f0989bee0bac8e38,2021-07-29_23h16.07.334,Simcolourproject_2stim_asymm_v5,2020.2.10,Win32,60,61025ae37ef11b136ea224fe,,,,,,,,,1491,-87,-107,1,0,0,response5disk,,3,-23,2,1,0,0,rectangle,-23,2,1,0,0,-23,2,1,0,0,1,52,212,98,1,,,,,,,,
,,,,,,,,,,,,,FF,,,,,,,,1.4936,,,,,,,,,,,,,,,,,,,,,,6100685a736fb35770886345,61036ea4f0989bee0bac8e38,2021-07-29_23h16.07.334,Simcolourproject_2stim_asymm_v5,2020.2.10,Win32,60,61025ae37ef11b136ea224fe,,,,,,,,,36,-59,-89,1,0,0,response5disk,,3,1,4,1,0,0,rectangle,1,4,1,0,0,1,4,1,0,0,1,53,213,35,1,,,,,,,,
,,,,,,,,,,,,,FF,,,,,,,,1.592,,,,,,,,,,,,,,,,,,,,,,6100685a736fb35770886345,61036ea4f0989bee0bac8e38,2021-07-29_23h16.07.334,Simcolourproject_2stim_asymm_v5,2020.2.10,Win32,60,61025ae37ef11b136ea224fe,,,,,,,,,1577,-29,-91,1,0,0,response5disk,,3,19,4,1,0,0,rectangle,19,4,1,0,0,19,4,1,0,0,1,54,214,150,1,,,,,,,,
,,,,,,,,,,,,,FF,,,,,,,,1.4756,,,,,,,,,,,,,,,,,,,,,,6100685a736fb35770886345,61036ea4f0989bee0bac8e38,2021-07-29_23h16.07.334,Simcolourproject_2stim_asymm_v5,2020.2.10,Win32,60,61025ae37ef11b136ea224fe,,,,,,,,,4288,-27,72,1,0,0,response7disk,,0,-3,0,1,0,0,rectangle,-3,0,1,0,0,-3,0,1,0,0,1,55,215,49,1,,,,,,,,
,,,,,,,,,,,,,FF,,,,,,,,1.7175,,,,,,,,,,,,,,,,,,,,,,6100685a736fb35770886345,61036ea4f0989bee0bac8e38,2021-07-29_23h16.07.334,Simcolourproject_2stim_asymm_v5,2020.2.10,Win32,60,61025ae37ef11b136ea224fe,,,,,,,,,3443,-41,73,1,0,0,response7disk,,0,5,14,1,0,0,rectangle,5,14,1,0,0,5,14,1,0,0,1,56,216,83,1,,,,,,,,
,,,,,,,,,,,,,FF,,,,,,,,2.003,,,,,,,,,,,,,,,,,,,,,,6100685a736fb35770886345,61036ea4f0989bee0bac8e38,2021-07-29_23h16.07.334,Simcolourproject_2stim_asymm_v5,2020.2.10,Win32,60,61025ae37ef11b136ea224fe,,,,,,,,,3815,94,-34,1,0,0,response3disk,,5,15,10,1,0,0,rectangle,15,10,1,0,0,15,10,1,0,0,1,57,217,152,1,,,,,,,,
,,,,,,,,,,,,,FF,,,,,,,,1.6663,,,,,,,,,,,,,,,,,,,,,,6100685a736fb35770886345,61036ea4f0989bee0bac8e38,2021-07-29_23h16.07.334,Simcolourproject_2stim_asymm_v5,2020.2.10,Win32,60,61025ae37ef11b136ea224fe,,,,,,,,,4226,-38,77,1,0,0,response7disk,,0,15,-8,1,0,0,rectangle,15,-8,1,0,0,15,-8,1,0,0,1,58,218,136,1,,,,,,,,
,,,,,,,,,,,,,FF,,,,,,,,1.6065,,,,,,,,,,,,,,,,,,,,,,6100685a736fb35770886345,61036ea4f0989bee0bac8e38,2021-07-29_23h16.07.334,Simcolourproject_2stim_asymm_v5,2020.2.10,Win32,60,61025ae37ef11b136ea224fe,,,,,,,,,251,-50,-94,1,0,0,response5disk,,3,6,-3,1,0,0,rectangle,6,-3,1,0,0,6,-3,1,0,0,1,59,219,45,1,,,,,,,,
,,,,,,,,,,,,,FF,,,,,,,,1.5615,,,,,,,,,,,,,,,,,,,,,,6100685a736fb35770886345,61036ea4f0989bee0bac8e38,2021-07-29_23h16.07.334,Simcolourproject_2stim_asymm_v5,2020.2.10,Win32,60,61025ae37ef11b136ea224fe,,,,,,,,,1667,66,-47,1,0,0,response3disk,,5,8,-1,1,0,0,rectangle,8,-1,1,0,0,8,-1,1,0,0,1,60,220,132,1,,,,,,,,
,,,,,,,,,,,,,FF,,,,,,,,1.6939,,,,,,,,,,,,,,,,,,,,,,6100685a736fb35770886345,61036ea4f0989bee0bac8e38,2021-07-29_23h16.07.334,Simcolourproject_2stim_asymm_v5,2020.2.10,Win32,60,61025ae37ef11b136ea224fe,,,,,,,,,479,-39,-47,1,0,0,response5disk,,3,-14,0,1,0,0,rectangle,-14,0,1,0,0,-14,0,1,0,0,1,61,221,5,1,,,,,,,,
,,,,,,,,,,,,,FF,,,,,,,,1.5393,,,,,,,,,,,,,,,,,,,,,,6100685a736fb35770886345,61036ea4f0989bee0bac8e38,2021-07-29_23h16.07.334,Simcolourproject_2stim_asymm_v5,2020.2.10,Win32,60,61025ae37ef11b136ea224fe,,,,,,,,,2008,-54,71,1,0,0,response7disk,,0,5,-7,1,0,0,rectangle,5,-7,1,0,0,5,-7,1,0,0,1,62,222,39,1,,,,,,,,
,,,,,,,,,,,,,FF,,,,,,,,1.6039,,,,,,,,,,,,,,,,,,,,,,6100685a736fb35770886345,61036ea4f0989bee0bac8e38,2021-07-29_23h16.07.334,Simcolourproject_2stim_asymm_v5,2020.2.10,Win32,60,61025ae37ef11b136ea224fe,,,,,,,,,4029,-34,-101,1,0,0,response5disk,,3,12,-3,1,0,0,rectangle,12,-3,1,0,0,12,-3,1,0,0,1,63,223,131,1,,,,,,,,
,,,,,,,,,,,,,FF,,,,,,,,1.4526,,,,,,,,,,,,,,,,,,,,,,6100685a736fb35770886345,61036ea4f0989bee0bac8e38,2021-07-29_23h16.07.334,Simcolourproject_2stim_asymm_v5,2020.2.10,Win32,60,61025ae37ef11b136ea224fe,,,,,,,,,1356,-45,88,1,0,0,response7disk,,0,7,-11,1,0,0,rectangle,7,-11,1,0,0,7,-11,1,0,0,1,64,224,144,1,,,,,,,,
,,,,,,,,,,,,,FF,,,,,,,,1.6826,,,,,,,,,,,,,,,,,,,,,,6100685a736fb35770886345,61036ea4f0989bee0bac8e38,2021-07-29_23h16.07.334,Simcolourproject_2stim_asymm_v5,2020.2.10,Win32,60,61025ae37ef11b136ea224fe,,,,,,,,,2048,-18,-86,1,0,0,response5disk,,3,13,6,1,0,0,rectangle,13,6,1,0,0,13,6,1,0,0,1,65,225,82,1,,,,,,,,
,,,,,,,,,,,,,FF,,,,,,,,1.5889,,,,,,,,,,,,,,,,,,,,,,6100685a736fb35770886345,61036ea4f0989bee0bac8e38,2021-07-29_23h16.07.334,Simcolourproject_2stim_asymm_v5,2020.2.10,Win32,60,61025ae37ef11b136ea224fe,,,,,,,,,39,-46,84,1,0,0,response7disk,,0,-6,-2,1,0,0,rectangle,-6,-2,1,0,0,-6,-2,1,0,0,1,66,226,30,1,,,,,,,,
,,,,,,,,,,,,,FF,,,,,,,,1.7341,,,,,,,,,,,,,,,,,,,,,,6100685a736fb35770886345,61036ea4f0989bee0bac8e38,2021-07-29_23h16.07.334,Simcolourproject_2stim_asymm_v5,2020.2.10,Win32,60,61025ae37ef11b136ea224fe,,,,,,,,,1535,109,39,1,0,0,response1disk,,6,17,11,1,0,0,rectangle,17,11,1,0,0,17,11,1,0,0,1,67,227,118,1,,,,,,,,
,,,,,,,,,,,,,FF,,,,,,,,1.354,,,,,,,,,,,,,,,,,,,,,,6100685a736fb35770886345,61036ea4f0989bee0bac8e38,2021-07-29_23h16.07.334,Simcolourproject_2stim_asymm_v5,2020.2.10,Win32,60,61025ae37ef11b136ea224fe,,,,,,,,,3026,-43,76,1,0,0,response7disk,,0,5,-2,1,0,0,rectangle,5,-2,1,0,0,5,-2,1,0,0,1,68,228,79,1,,,,,,,,
,,,,,,,,,,,,,FF,,,,,,,,1.3836,,,,,,,,,,,,,,,,,,,,,,6100685a736fb35770886345,61036ea4f0989bee0bac8e38,2021-07-29_23h16.07.334,Simcolourproject_2stim_asymm_v5,2020.2.10,Win32,60,61025ae37ef11b136ea224fe,,,,,,,,,2082,-55,100,1,0,0,response7disk,,0,5,2,1,0,0,rectangle,5,2,1,0,0,5,2,1,0,0,1,69,229,41,1,,,,,,,,
,,,,,,,,,,,,,FF,,,,,,,,1.6342,,,,,,,,,,,,,,,,,,,,,,6100685a736fb35770886345,61036ea4f0989bee0bac8e38,2021-07-29_23h16.07.334,Simcolourproject_2stim_asymm_v5,2020.2.10,Win32,60,61025ae37ef11b136ea224fe,,,,,,,,,2647,-44,78,1,0,0,response7disk,,0,0,-13,1,0,0,rectangle,0,-13,1,0,0,0,-13,1,0,0,1,70,230,72,1,,,,,,,,
,,,,,,,,,,,,,FF,,,,,,,,1.4475,,,,,,,,,,,,,,,,,,,,,,6100685a736fb35770886345,61036ea4f0989bee0bac8e38,2021-07-29_23h16.07.334,Simcolourproject_2stim_asymm_v5,2020.2.10,Win32,60,61025ae37ef11b136ea224fe,,,,,,,,,3570,-103,-47,1,0,0,response5disk,,2,-3,1,1,0,0,rectangle,-3,1,1,0,0,-3,1,1,0,0,1,71,231,109,1,,,,,,,,
,,,,,,,,,,,,,FF,,,,,,,,1.3667,,,,,,,,,,,,,,,,,,,,,,6100685a736fb35770886345,61036ea4f0989bee0bac8e38,2021-07-29_23h16.07.334,Simcolourproject_2stim_asymm_v5,2020.2.10,Win32,60,61025ae37ef11b136ea224fe,,,,,,,,,815,-36,75,1,0,0,response7disk,,0,-12,8,1,0,0,rectangle,-12,8,1,0,0,-12,8,1,0,0,1,72,232,55,1,,,,,,,,
,,,,,,,,,,,,,FF,,,,,,,,1.3514,,,,,,,,,,,,,,,,,,,,,,6100685a736fb35770886345,61036ea4f0989bee0bac8e38,2021-07-29_23h16.07.334,Simcolourproject_2stim_asymm_v5,2020.2.10,Win32,60,61025ae37ef11b136ea224fe,,,,,,,,,2582,-42,81,1,0,0,response7disk,,0,9,-5,1,0,0,rectangle,9,-5,1,0,0,9,-5,1,0,0,1,73,233,104,1,,,,,,,,
,,,,,,,,,,,,,FF,,,,,,,,1.469,,,,,,,,,,,,,,,,,,,,,,6100685a736fb35770886345,61036ea4f0989bee0bac8e38,2021-07-29_23h16.07.334,Simcolourproject_2stim_asymm_v5,2020.2.10,Win32,60,61025ae37ef11b136ea224fe,,,,,,,,,2359,90,-40,1,0,0,response3disk,,5,3,-2,1,0,0,rectangle,3,-2,1,0,0,3,-2,1,0,0,1,74,234,77,1,,,,,,,,
,,,,,,,,,,,,,FF,,,,,,,,1.4866,,,,,,,,,,,,,,,,,,,,,,6100685a736fb35770886345,61036ea4f0989bee0bac8e38,2021-07-29_23h16.07.334,Simcolourproject_2stim_asymm_v5,2020.2.10,Win32,60,61025ae37ef11b136ea224fe,,,,,,,,,385,-46,80,1,0,0,response7disk,,0,-5,-3,1,0,0,rectangle,-5,-3,1,0,0,-5,-3,1,0,0,1,75,235,128,1,,,,,,,,
,,,,,,,,,,,,,FF,,,,,,,,1.6242,,,,,,,,,,,,,,,,,,,,,,6100685a736fb35770886345,61036ea4f0989bee0bac8e38,2021-07-29_23h16.07.334,Simcolourproject_2stim_asymm_v5,2020.2.10,Win32,60,61025ae37ef11b136ea224fe,,,,,,,,,4050,-39,-75,1,0,0,response5disk,,3,-3,7,1,0,0,rectangle,-3,7,1,0,0,-3,7,1,0,0,1,76,236,19,1,,,,,,,,
,,,,,,,,,,,,,FF,,,,,,,,1.5713,,,,,,,,,,,,,,,,,,,,,,6100685a736fb35770886345,61036ea4f0989bee0bac8e38,2021-07-29_23h16.07.334,Simcolourproject_2stim_asymm_v5,2020.2.10,Win32,60,61025ae37ef11b136ea224fe,,,,,,,,,546,-52,110,1,0,0,response7disk,,0,5,2,1,0,0,rectangle,5,2,1,0,0,5,2,1,0,0,1,77,237,67,1,,,,,,,,
,,,,,,,,,,,,,FF,,,,,,,,1.7749,,,,,,,,,,,,,,,,,,,,,,6100685a736fb35770886345,61036ea4f0989bee0bac8e38,2021-07-29_23h16.07.334,Simcolourproject_2stim_asymm_v5,2020.2.10,Win32,60,61025ae37ef11b136ea224fe,,,,,,,,,3107,122,51,1,0,0,response1disk,,6,6,5,1,0,0,rectangle,6,5,1,0,0,6,5,1,0,0,1,78,238,3,1,,,,,,,,
,,,,,,,,,,,,,FF,,,,,,,,1.3361,,,,,,,,,,,,,,,,,,,,,,6100685a736fb35770886345,61036ea4f0989bee0bac8e38,2021-07-29_23h16.07.334,Simcolourproject_2stim_asymm_v5,2020.2.10,Win32,60,61025ae37ef11b136ea224fe,,,,,,,,,4160,-28,69,1,0,0,response7disk,,0,2,0,1,0,0,rectangle,2,0,1,0,0,2,0,1,0,0,1,79,239,147,1,,,,,,,,
,,,,,,,,,,,,,FF,,,,,,,,1.8714,,,,,,,,,,,,,,,,,,,,,,6100685a736fb35770886345,61036ea4f0989bee0bac8e38,2021-07-29_23h16.07.334,Simcolourproject_2stim_asymm_v5,2020.2.10,Win32,60,61025ae37ef11b136ea224fe,,,,,,,,,2899,-88,-37,1,0,0,response5disk,,2,-14,10,1,0,0,rectangle,-14,10,1,0,0,-14,10,1,0,0,1,80,240,92,1,,,,,,,,
,,,,,,,,,,,,,FF,,,,,,,,1.4552,,,,,,,,,,,,,,,,,,,,,,6100685a736fb35770886345,61036ea4f0989bee0bac8e38,2021-07-29_23h16.07.334,Simcolourproject_2stim_asymm_v5,2020.2.10,Win32,60,61025ae37ef11b136ea224fe,,,,,,,,,1872,-46,70,1,0,0,response7disk,,0,-14,1,1,0,0,rectangle,-96,-51,1,0,0,-9,9,1,0,0,1,81,241,7,1,,response5disk_3,TRUE,2,2,"[202,132,145,62,109,242,172,71,261,313,250,254,125,126,129,261,33,177,60,212]",2.8181,rectangle
,,,,,,,,,,,,,FF,,,,,,,,1.3396,,,,,,,,,,,,,,,,,,,,,,6100685a736fb35770886345,61036ea4f0989bee0bac8e38,2021-07-29_23h16.07.334,Simcolourproject_2stim_asymm_v5,2020.2.10,Win32,60,61025ae37ef11b136ea224fe,,,,,,,,,761,-45,81,1,0,0,response7disk,,0,0,3,1,0,0,rectangle,0,3,1,0,0,0,3,1,0,0,1,82,242,103,1,,,,,,,,
,,,,,,,,,,,,,FF,,,,,,,,1.7029,,,,,,,,,,,,,,,,,,,,,,6100685a736fb35770886345,61036ea4f0989bee0bac8e38,2021-07-29_23h16.07.334,Simcolourproject_2stim_asymm_v5,2020.2.10,Win32,60,61025ae37ef11b136ea224fe,,,,,,,,,3755,51,-71,1,0,0,response3disk,,4,9,9,1,0,0,rectangle,9,9,1,0,0,9,9,1,0,0,1,83,243,62,1,,,,,,,,
,,,,,,,,,,,,,FF,,,,,,,,1.2838,,,,,,,,,,,,,,,,,,,,,,6100685a736fb35770886345,61036ea4f0989bee0bac8e38,2021-07-29_23h16.07.334,Simcolourproject_2stim_asymm_v5,2020.2.10,Win32,60,61025ae37ef11b136ea224fe,,,,,,,,,2015,-39,77,1,0,0,response7disk,,0,10,-2,1,0,0,rectangle,10,-2,1,0,0,10,-2,1,0,0,1,84,244,34,1,,,,,,,,
,,,,,,,,,,,,,FF,,,,,,,,1.4842,,,,,,,,,,,,,,,,,,,,,,6100685a736fb35770886345,61036ea4f0989bee0bac8e38,2021-07-29_23h16.07.334,Simcolourproject_2stim_asymm_v5,2020.2.10,Win32,60,61025ae37ef11b136ea224fe,,,,,,,,,158,-104,-56,1,0,0,response5disk,,2,16,4,1,0,0,rectangle,16,4,1,0,0,16,4,1,0,0,1,85,245,47,1,,,,,,,,
,,,,,,,,,,,,,FF,,,,,,,,1.3541,,,,,,,,,,,,,,,,,,,,,,6100685a736fb35770886345,61036ea4f0989bee0bac8e38,2021-07-29_23h16.07.334,Simcolourproject_2stim_asymm_v5,2020.2.10,Win32,60,61025ae37ef11b136ea224fe,,,,,,,,,2590,-40,78,1,0,0,response7disk,,0,16,-10,1,0,0,rectangle,16,-10,1,0,0,16,-10,1,0,0,1,86,246,63,1,,,,,,,,
,,,,,,,,,,,,,FF,,,,,,,,1.4276,,,,,,,,,,,,,,,,,,,,,,6100685a736fb35770886345,61036ea4f0989bee0bac8e38,2021-07-29_23h16.07.334,Simcolourproject_2stim_asymm_v5,2020.2.10,Win32,60,61025ae37ef11b136ea224fe,,,,,,,,,2263,-95,-35,1,0,0,response5disk,,2,-11,1,1,0,0,rectangle,-11,1,1,0,0,-11,1,1,0,0,1,87,247,4,1,,,,,,,,
,,,,,,,,,,,,,FF,,,,,,,,1.6172,,,,,,,,,,,,,,,,,,,,,,6100685a736fb35770886345,61036ea4f0989bee0bac8e38,2021-07-29_23h16.07.334,Simcolourproject_2stim_asymm_v5,2020.2.10,Win32,60,61025ae37ef11b136ea224fe,,,,,,,,,2189,-74,17,1,0,0,response7disk,,1,8,3,1,0,0,rectangle,8,3,1,0,0,8,3,1,0,0,1,88,248,8,1,,,,,,,,
,,,,,,,,,,,,,FF,,,,,,,,1.3821,,,,,,,,,,,,,,,,,,,,,,6100685a736fb35770886345,61036ea4f0989bee0bac8e38,2021-07-29_23h16.07.334,Simcolourproject_2stim_asymm_v5,2020.2.10,Win32,60,61025ae37ef11b136ea224fe,,,,,,,,,1128,-40,84,1,0,0,response7disk,,0,20,0,1,0,0,rectangle,-76,50,1,0,0,-9,1,1,0,0,1,89,249,36,1,,response7disk_3,TRUE,1,1,"[202,132,145,62,109,242,172,71,261,313,250,254,125,126,129,261,33,177,60,212]",2.6576,rectangle
,,,,,,,,,,,,,FF,,,,,,,,1.9875,,,,,,,,,,,,,,,,,,,,,,6100685a736fb35770886345,61036ea4f0989bee0bac8e38,2021-07-29_23h16.07.334,Simcolourproject_2stim_asymm_v5,2020.2.10,Win32,60,61025ae37ef11b136ea224fe,,,,,,,,,2689,-114,-29,1,0,0,response5disk,,2,4,2,1,0,0,rectangle,4,2,1,0,0,4,2,1,0,0,1,90,250,14,1,,,,,,,,
,,,,,,,,,,,,,FF,,,,,,,,1.4703,,,,,,,,,,,,,,,,,,,,,,6100685a736fb35770886345,61036ea4f0989bee0bac8e38,2021-07-29_23h16.07.334,Simcolourproject_2stim_asymm_v5,2020.2.10,Win32,60,61025ae37ef11b136ea224fe,,,,,,,,,1027,-40,-59,1,0,0,response5disk,,3,-4,2,1,0,0,rectangle,-4,2,1,0,0,-4,2,1,0,0,1,91,251,107,1,,,,,,,,
,,,,,,,,,,,,,FF,,,,,,,,1.809,,,,,,,,,,,,,,,,,,,,,,6100685a736fb35770886345,61036ea4f0989bee0bac8e38,2021-07-29_23h16.07.334,Simcolourproject_2stim_asymm_v5,2020.2.10,Win32,60,61025ae37ef11b136ea224fe,,,,,,,,,1973,95,44,1,0,0,response1disk,,6,8,-10,1,0,0,rectangle,8,-10,1,0,0,8,-10,1,0,0,1,92,252,157,1,,,,,,,,
,,,,,,,,,,,,,FF,,,,,,,,1.4788,,,,,,,,,,,,,,,,,,,,,,6100685a736fb35770886345,61036ea4f0989bee0bac8e38,2021-07-29_23h16.07.334,Simcolourproject_2stim_asymm_v5,2020.2.10,Win32,60,61025ae37ef11b136ea224fe,,,,,,,,,2725,89,51,1,0,0,response1disk,,6,-16,-1,1,0,0,rectangle,34,77,1,0,0,6,-3,1,0,0,1,93,253,11,1,,response1disk_3,TRUE,7,7,"[202,132,145,62,109,242,172,71,261,313,250,254,125,126,129,261,33,177,60,212]",3.3739,rectangle
,,,,,,,,,,,,,FF,,,,,,,,1.5755,,,,,,,,,,,,,,,,,,,,,,6100685a736fb35770886345,61036ea4f0989bee0bac8e38,2021-07-29_23h16.07.334,Simcolourproject_2stim_asymm_v5,2020.2.10,Win32,60,61025ae37ef11b136ea224fe,,,,,,,,,875,-54,-101,1,0,0,response5disk,,3,13,7,1,0,0,rectangle,13,7,1,0,0,13,7,1,0,0,1,94,254,42,1,,,,,,,,
,,,,,,,,,,,,,FF,,,,,,,,2.1357,,,,,,,,,,,,,,,,,,,,,,6100685a736fb35770886345,61036ea4f0989bee0bac8e38,2021-07-29_23h16.07.334,Simcolourproject_2stim_asymm_v5,2020.2.10,Win32,60,61025ae37ef11b136ea224fe,,,,,,,,,2408,-55,-69,1,0,0,response5disk,,3,-12,-1,1,0,0,rectangle,-12,-1,1,0,0,-12,-1,1,0,0,1,95,255,69,1,,,,,,,,
,,,,,,,,,,,,,FF,,,,,,,,1.2893,,,,,,,,,,,,,,,,,,,,,,6100685a736fb35770886345,61036ea4f0989bee0bac8e38,2021-07-29_23h16.07.334,Simcolourproject_2stim_asymm_v5,2020.2.10,Win32,60,61025ae37ef11b136ea224fe,,,,,,,,,399,-59,-91,1,0,0,response5disk,,3,-3,5,1,0,0,rectangle,-3,5,1,0,0,-3,5,1,0,0,1,96,256,20,1,,,,,,,,
,,,,,,,,,,,,,FF,,,,,,,,2.2905,,,,,,,,,,,,,,,,,,,,,,6100685a736fb35770886345,61036ea4f0989bee0bac8e38,2021-07-29_23h16.07.334,Simcolourproject_2stim_asymm_v5,2020.2.10,Win32,60,61025ae37ef11b136ea224fe,,,,,,,,,1236,-55,-18,1,0,0,response5disk,,2,-17,-5,1,0,0,rectangle,-17,-5,1,0,0,-17,-5,1,0,0,1,97,257,6,1,,,,,,,,
,,,,,,,,,,,,,FF,,,,,,,,1.4733,,,,,,,,,,,,,,,,,,,,,,6100685a736fb35770886345,61036ea4f0989bee0bac8e38,2021-07-29_23h16.07.334,Simcolourproject_2stim_asymm_v5,2020.2.10,Win32,60,61025ae37ef11b136ea224fe,,,,,,,,,3542,-38,88,1,0,0,response7disk,,0,14,1,1,0,0,rectangle,14,1,1,0,0,14,1,1,0,0,1,98,258,38,1,,,,,,,,
,,,,,,,,,,,,,FF,,,,,,,,1.2678,,,,,,,,,,,,,,,,,,,,,,6100685a736fb35770886345,61036ea4f0989bee0bac8e38,2021-07-29_23h16.07.334,Simcolourproject_2stim_asymm_v5,2020.2.10,Win32,60,61025ae37ef11b136ea224fe,,,,,,,,,3459,-32,104,1,0,0,response7disk,,0,-11,0,1,0,0,rectangle,-11,0,1,0,0,-11,0,1,0,0,1,99,259,140,1,,,,,,,,
,,,,,,,,,,,,,FF,,,,,,,,1.4339,,,,,,,,,,,,,,,,,,,,,,6100685a736fb35770886345,61036ea4f0989bee0bac8e38,2021-07-29_23h16.07.334,Simcolourproject_2stim_asymm_v5,2020.2.10,Win32,60,61025ae37ef11b136ea224fe,,,,,,,,,1666,-38,83,1,0,0,response7disk,,0,0,0,1,0,0,rectangle,-48,-91,1,0,0,-3,-3,1,0,0,1,100,260,46,1,,response5disk_3,TRUE,3,3,"[202,132,145,62,109,242,172,71,261,313,250,254,125,126,129,261,33,177,60,212]",2.6755,rectangle
,,,,,,,,,,,,,FF,,,,,,,,1.4291,,,,,,,,,,,,,,,,,,,,,,6100685a736fb35770886345,61036ea4f0989bee0bac8e38,2021-07-29_23h16.07.334,Simcolourproject_2stim_asymm_v5,2020.2.10,Win32,60,61025ae37ef11b136ea224fe,,,,,,,,,861,-45,-91,1,0,0,response5disk,,3,4,-3,1,0,0,rectangle,4,-3,1,0,0,4,-3,1,0,0,1,101,261,33,1,,,,,,,,
,,,,,,,,,,,,,FF,,,,,,,,1.4567,,,,,,,,,,,,,,,,,,,,,,6100685a736fb35770886345,61036ea4f0989bee0bac8e38,2021-07-29_23h16.07.334,Simcolourproject_2stim_asymm_v5,2020.2.10,Win32,60,61025ae37ef11b136ea224fe,,,,,,,,,3303,62,-31,1,0,0,response3disk,,5,12,1,1,0,0,rectangle,12,1,1,0,0,12,1,1,0,0,1,102,262,93,1,,,,,,,,
,,,,,,,,,,,,,FF,,,,,,,,1.5816,,,,,,,,,,,,,,,,,,,,,,6100685a736fb35770886345,61036ea4f0989bee0bac8e38,2021-07-29_23h16.07.334,Simcolourproject_2stim_asymm_v5,2020.2.10,Win32,60,61025ae37ef11b136ea224fe,,,,,,,,,2340,-115,-41,1,0,0,response5disk,,2,-5,1,1,0,0,rectangle,-5,1,1,0,0,-5,1,1,0,0,1,103,263,24,1,,,,,,,,
,,,,,,,,,,,,,FF,,,,,,,,1.7533,,,,,,,,,,,,,,,,,,,,,,6100685a736fb35770886345,61036ea4f0989bee0bac8e38,2021-07-29_23h16.07.334,Simcolourproject_2stim_asymm_v5,2020.2.10,Win32,60,61025ae37ef11b136ea224fe,,,,,,,,,1359,-58,-32,1,0,0,response5disk,,2,3,8,1,0,0,rectangle,3,8,1,0,0,3,8,1,0,0,1,104,264,13,1,,,,,,,,
,,,,,,,,,,,,,FF,,,,,,,,1.8042,,,,,,,,,,,,,,,,,,,,,,6100685a736fb35770886345,61036ea4f0989bee0bac8e38,2021-07-29_23h16.07.334,Simcolourproject_2stim_asymm_v5,2020.2.10,Win32,60,61025ae37ef11b136ea224fe,,,,,,,,,1961,109,57,1,0,0,response1disk,,6,21,-7,1,0,0,rectangle,21,-7,1,0,0,21,-7,1,0,0,1,105,265,1,1,,,,,,,,
,,,,,,,,,,,,,FF,,,,,,,,1.743,,,,,,,,,,,,,,,,,,,,,,6100685a736fb35770886345,61036ea4f0989bee0bac8e38,2021-07-29_23h16.07.334,Simcolourproject_2stim_asymm_v5,2020.2.10,Win32,60,61025ae37ef11b136ea224fe,,,,,,,,,3187,-27,-81,1,0,0,response5disk,,3,1,3,1,0,0,rectangle,1,3,1,0,0,1,3,1,0,0,1,106,266,78,1,,,,,,,,
,,,,,,,,,,,,,FF,,,,,,,,1.4471,,,,,,,,,,,,,,,,,,,,,,6100685a736fb35770886345,61036ea4f0989bee0bac8e38,2021-07-29_23h16.07.334,Simcolourproject_2stim_asymm_v5,2020.2.10,Win32,60,61025ae37ef11b136ea224fe,,,,,,,,,4031,84,-33,1,0,0,response3disk,,5,-2,-1,1,0,0,rectangle,-2,-1,1,0,0,-2,-1,1,0,0,1,107,267,0,1,,,,,,,,
,,,,,,,,,,,,,FF,,,,,,,,1.4532,,,,,,,,,,,,,,,,,,,,,,6100685a736fb35770886345,61036ea4f0989bee0bac8e38,2021-07-29_23h16.07.334,Simcolourproject_2stim_asymm_v5,2020.2.10,Win32,60,61025ae37ef11b136ea224fe,,,,,,,,,1746,87,42,1,0,0,response1disk,,6,13,8,1,0,0,rectangle,13,8,1,0,0,13,8,1,0,0,1,108,268,66,1,,,,,,,,
,,,,,,,,,,,,,FF,,,,,,,,1.888,,,,,,,,,,,,,,,,,,,,,,6100685a736fb35770886345,61036ea4f0989bee0bac8e38,2021-07-29_23h16.07.334,Simcolourproject_2stim_asymm_v5,2020.2.10,Win32,60,61025ae37ef11b136ea224fe,,,,,,,,,3327,-29,99,1,0,0,response7disk,,0,15,-3,1,0,0,rectangle,15,-3,1,0,0,15,-3,1,0,0,1,109,269,156,1,,,,,,,,
,,,,,,,,,,,,,FF,,,,,,,,1.6814,,,,,,,,,,,,,,,,,,,,,,6100685a736fb35770886345,61036ea4f0989bee0bac8e38,2021-07-29_23h16.07.334,Simcolourproject_2stim_asymm_v5,2020.2.10,Win32,60,61025ae37ef11b136ea224fe,,,,,,,,,1954,-45,101,1,0,0,response7disk,,0,16,1,1,0,0,rectangle,16,1,1,0,0,16,1,1,0,0,1,110,270,142,1,,,,,,,,
,,,,,,,,,,,,,FF,,,,,,,,1.5101,,,,,,,,,,,,,,,,,,,,,,6100685a736fb35770886345,61036ea4f0989bee0bac8e38,2021-07-29_23h16.07.334,Simcolourproject_2stim_asymm_v5,2020.2.10,Win32,60,61025ae37ef11b136ea224fe,,,,,,,,,3737,-55,-87,1,0,0,response5disk,,3,-7,3,1,0,0,rectangle,-7,3,1,0,0,-7,3,1,0,0,1,111,271,27,1,,,,,,,,
,,,,,,,,,,,,,FF,,,,,,,,1.7825,,,,,,,,,,,,,,,,,,,,,,6100685a736fb35770886345,61036ea4f0989bee0bac8e38,2021-07-29_23h16.07.334,Simcolourproject_2stim_asymm_v5,2020.2.10,Win32,60,61025ae37ef11b136ea224fe,,,,,,,,,4010,-64,-36,1,0,0,response5disk,,2,-8,1,1,0,0,rectangle,-8,1,1,0,0,-8,1,1,0,0,1,112,272,23,1,,,,,,,,
,,,,,,,,,,,,,FF,,,,,,,,1.4069,,,,,,,,,,,,,,,,,,,,,,6100685a736fb35770886345,61036ea4f0989bee0bac8e38,2021-07-29_23h16.07.334,Simcolourproject_2stim_asymm_v5,2020.2.10,Win32,60,61025ae37ef11b136ea224fe,,,,,,,,,1897,96,34,1,0,0,response1disk,,6,7,4,1,0,0,rectangle,7,4,1,0,0,7,4,1,0,0,1,113,273,51,1,,,,,,,,
,,,,,,,,,,,,,FF,,,,,,,,1.4531,,,,,,,,,,,,,,,,,,,,,,6100685a736fb35770886345,61036ea4f0989bee0bac8e38,2021-07-29_23h16.07.334,Simcolourproject_2stim_asymm_v5,2020.2.10,Win32,60,61025ae37ef11b136ea224fe,,,,,,,,,2638,-42,90,1,0,0,response7disk,,0,5,4,1,0,0,rectangle,5,4,1,0,0,5,4,1,0,0,1,114,274,99,1,,,,,,,,
,,,,,,,,,,,,,FF,,,,,,,,1.3185,,,,,,,,,,,,,,,,,,,,,,6100685a736fb35770886345,61036ea4f0989bee0bac8e38,2021-07-29_23h16.07.334,Simcolourproject_2stim_asymm_v5,2020.2.10,Win32,60,61025ae37ef11b136ea224fe,,,,,,,,,3973,82,34,1,0,0,response1disk,,6,3,1,1,0,0,rectangle,3,1,1,0,0,3,1,1,0,0,1,115,275,50,1,,,,,,,,
,,,,,,,,,,,,,FF,,,,,,,,1.3753,,,,,,,,,,,,,,,,,,,,,,6100685a736fb35770886345,61036ea4f0989bee0bac8e38,2021-07-29_23h16.07.334,Simcolourproject_2stim_asymm_v5,2020.2.10,Win32,60,61025ae37ef11b136ea224fe,,,,,,,,,381,-37,70,1,0,0,response7disk,,0,-4,-2,1,0,0,rectangle,-4,-2,1,0,0,-4,-2,1,0,0,1,116,276,15,1,,,,,,,,
,,,,,,,,,,,,,FF,,,,,,,,1.428,,,,,,,,,,,,,,,,,,,,,,6100685a736fb35770886345,61036ea4f0989bee0bac8e38,2021-07-29_23h16.07.334,Simcolourproject_2stim_asymm_v5,2020.2.10,Win32,60,61025ae37ef11b136ea224fe,,,,,,,,,614,32,-85,1,0,0,response3disk,,4,-24,1,1,0,0,rectangle,-24,1,1,0,0,-24,1,1,0,0,1,117,277,146,1,,,,,,,,
,,,,,,,,,,,,,FF,,,,,,,,1.9195,,,,,,,,,,,,,,,,,,,,,,6100685a736fb35770886345,61036ea4f0989bee0bac8e38,2021-07-29_23h16.07.334,Simcolourproject_2stim_asymm_v5,2020.2.10,Win32,60,61025ae37ef11b136ea224fe,,,,,,,,,3243,54,44,1,0,0,response1disk,,6,-6,5,1,0,0,rectangle,-6,5,1,0,0,-6,5,1,0,0,1,118,278,149,1,,,,,,,,
,,,,,,,,,,,,,FF,,,,,,,,1.7554,,,,,,,,,,,,,,,,,,,,,,6100685a736fb35770886345,61036ea4f0989bee0bac8e38,2021-07-29_23h16.07.334,Simcolourproject_2stim_asymm_v5,2020.2.10,Win32,60,61025ae37ef11b136ea224fe,,,,,,,,,3090,82,-28,1,0,0,response3disk,,5,12,15,1,0,0,rectangle,12,15,1,0,0,12,15,1,0,0,1,119,279,12,1,,,,,,,,
,,,,,,,,,,,,,FF,,,,,,,,1.8054,,,,,,,,,,,,,,,,,,,,,,6100685a736fb35770886345,61036ea4f0989bee0bac8e38,2021-07-29_23h16.07.334,Simcolourproject_2stim_asymm_v5,2020.2.10,Win32,60,61025ae37ef11b136ea224fe,,,,,,,,,2172,-69,32,1,0,0,response7disk,,1,23,3,1,0,0,rectangle,23,3,1,0,0,23,3,1,0,0,1,120,280,68,1,,,,,,,,
,,,,,,,,,,,,,FF,,,,,,,,1.3678,,,,,,,,,,,,,,,,,,,,,,6100685a736fb35770886345,61036ea4f0989bee0bac8e38,2021-07-29_23h16.07.334,Simcolourproject_2stim_asymm_v5,2020.2.10,Win32,60,61025ae37ef11b136ea224fe,,,,,,,,,3772,-38,79,1,0,0,response7disk,,0,12,-6,1,0,0,rectangle,12,-6,1,0,0,12,-6,1,0,0,1,121,281,153,1,,,,,,,,
,,,,,,,,,,,,,FF,,,,,,,,1.3173,,,,,,,,,,,,,,,,,,,,,,6100685a736fb35770886345,61036ea4f0989bee0bac8e38,2021-07-29_23h16.07.334,Simcolourproject_2stim_asymm_v5,2020.2.10,Win32,60,61025ae37ef11b136ea224fe,,,,,,,,,2118,-56,96,1,0,0,response7disk,,0,6,3,1,0,0,rectangle,6,3,1,0,0,6,3,1,0,0,1,122,282,54,1,,,,,,,,
,,,,,,,,,,,,,FF,,,,,,,,1.5202,,,,,,,,,,,,,,,,,,,,,,6100685a736fb35770886345,61036ea4f0989bee0bac8e38,2021-07-29_23h16.07.334,Simcolourproject_2stim_asymm_v5,2020.2.10,Win32,60,61025ae37ef11b136ea224fe,,,,,,,,,832,-74,-28,1,0,0,response5disk,,2,-9,-3,1,0,0,rectangle,-9,-3,1,0,0,-9,-3,1,0,0,1,123,283,37,1,,,,,,,,
,,,,,,,,,,,,,FF,,,,,,,,1.313,,,,,,,,,,,,,,,,,,,,,,6100685a736fb35770886345,61036ea4f0989bee0bac8e38,2021-07-29_23h16.07.334,Simcolourproject_2stim_asymm_v5,2020.2.10,Win32,60,61025ae37ef11b136ea224fe,,,,,,,,,3927,-65,114,1,0,0,response7disk,,0,0,3,1,0,0,rectangle,0,3,1,0,0,0,3,1,0,0,1,124,284,154,1,,,,,,,,
,,,,,,,,,,,,,FF,,,,,,,,1.6868,,,,,,,,,,,,,,,,,,,,,,6100685a736fb35770886345,61036ea4f0989bee0bac8e38,2021-07-29_23h16.07.334,Simcolourproject_2stim_asymm_v5,2020.2.10,Win32,60,61025ae37ef11b136ea224fe,,,,,,,,,2614,-33,77,1,0,0,response7disk,,0,-23,2,1,0,0,rectangle,-23,2,1,0,0,-23,2,1,0,0,1,125,285,116,1,,,,,,,,
,,,,,,,,,,,,,FF,,,,,,,,1.8828,,,,,,,,,,,,,,,,,,,,,,6100685a736fb35770886345,61036ea4f0989bee0bac8e38,2021-07-29_23h16.07.334,Simcolourproject_2stim_asymm_v5,2020.2.10,Win32,60,61025ae37ef11b136ea224fe,,,,,,,,,607,-92,-41,1,0,0,response5disk,,2,18,7,1,0,0,rectangle,18,7,1,0,0,18,7,1,0,0,1,126,286,122,1,,,,,,,,
,,,,,,,,,,,,,FF,,,,,,,,2.3111,,,,,,,,,,,,,,,,,,,,,,6100685a736fb35770886345,61036ea4f0989bee0bac8e38,2021-07-29_23h16.07.334,Simcolourproject_2stim_asymm_v5,2020.2.10,Win32,60,61025ae37ef11b136ea224fe,,,,,,,,,2672,73,-31,1,0,0,response3disk,,5,14,12,1,0,0,rectangle,14,12,1,0,0,14,12,1,0,0,1,127,287,74,1,,,,,,,,
,,,,,,,,,,,,,FF,,,,,,,,1.37,,,,,,,,,,,,,,,,,,,,,,6100685a736fb35770886345,61036ea4f0989bee0bac8e38,2021-07-29_23h16.07.334,Simcolourproject_2stim_asymm_v5,2020.2.10,Win32,60,61025ae37ef11b136ea224fe,,,,,,,,,2572,-57,114,1,0,0,response7disk,,0,3,4,1,0,0,rectangle,3,4,1,0,0,3,4,1,0,0,1,128,288,123,1,,,,,,,,
,,,,,,,,,,,,,FF,,,,,,,,2.203,,,,,,,,,,,,,,,,,,,,,,6100685a736fb35770886345,61036ea4f0989bee0bac8e38,2021-07-29_23h16.07.334,Simcolourproject_2stim_asymm_v5,2020.2.10,Win32,60,61025ae37ef11b136ea224fe,,,,,,,,,2004,-23,72,1,0,0,response7disk,,0,27,1,1,0,0,rectangle,27,1,1,0,0,27,1,1,0,0,1,129,289,133,1,,,,,,,,
,,,,,,,,,,,,,FF,,,,,,,,1.469,,,,,,,,,,,,,,,,,,,,,,6100685a736fb35770886345,61036ea4f0989bee0bac8e38,2021-07-29_23h16.07.334,Simcolourproject_2stim_asymm_v5,2020.2.10,Win32,60,61025ae37ef11b136ea224fe,,,,,,,,,3415,-33,81,1,0,0,response7disk,,0,4,2,1,0,0,rectangle,4,2,1,0,0,4,2,1,0,0,1,130,290,90,1,,,,,,,,
,,,,,,,,,,,,,FF,,,,,,,,1.5163,,,,,,,,,,,,,,,,,,,,,,6100685a736fb35770886345,61036ea4f0989bee0bac8e38,2021-07-29_23h16.07.334,Simcolourproject_2stim_asymm_v5,2020.2.10,Win32,60,61025ae37ef11b136ea224fe,,,,,,,,,3201,104,-44,1,0,0,response3disk,,5,-17,3,1,0,0,rectangle,-17,3,1,0,0,-17,3,1,0,0,1,131,291,43,1,,,,,,,,
,,,,,,,,,,,,,FF,,,,,,,,2.4903,,,,,,,,,,,,,,,,,,,,,,6100685a736fb35770886345,61036ea4f0989bee0bac8e38,2021-07-29_23h16.07.334,Simcolourproject_2stim_asymm_v5,2020.2.10,Win32,60,61025ae37ef11b136ea224fe,,,,,,,,,1137,-42,-68,1,0,0,response5disk,,3,4,-2,1,0,0,rectangle,4,-2,1,0,0,4,-2,1,0,0,1,132,292,65,1,,,,,,,,
,,,,,,,,,,,,,FF,,,,,,,,1.4541,,,,,,,,,,,,,,,,,,,,,,6100685a736fb35770886345,61036ea4f0989bee0bac8e38,2021-07-29_23h16.07.334,Simcolourproject_2stim_asymm_v5,2020.2.10,Win32,60,61025ae37ef11b136ea224fe,,,,,,,,,4028,-29,-73,1,0,0,response5disk,,3,22,-6,1,0,0,rectangle,22,-6,1,0,0,22,-6,1,0,0,1,133,293,139,1,,,,,,,,
,,,,,,,,,,,,,FF,,,,,,,,1.4583,,,,,,,,,,,,,,,,,,,,,,6100685a736fb35770886345,61036ea4f0989bee0bac8e38,2021-07-29_23h16.07.334,Simcolourproject_2stim_asymm_v5,2020.2.10,Win32,60,61025ae37ef11b136ea224fe,,,,,,,,,676,-29,87,1,0,0,response7disk,,0,10,-8,1,0,0,rectangle,10,-8,1,0,0,10,-8,1,0,0,1,134,294,102,1,,,,,,,,
,,,,,,,,,,,,,FF,,,,,,,,1.2403,,,,,,,,,,,,,,,,,,,,,,6100685a736fb35770886345,61036ea4f0989bee0bac8e38,2021-07-29_23h16.07.334,Simcolourproject_2stim_asymm_v5,2020.2.10,Win32,60,61025ae37ef11b136ea224fe,,,,,,,,,1097,-55,109,1,0,0,response7disk,,0,14,2,1,0,0,rectangle,14,2,1,0,0,14,2,1,0,0,1,135,295,89,1,,,,,,,,
,,,,,,,,,,,,,FF,,,,,,,,1.223,,,,,,,,,,,,,,,,,,,,,,6100685a736fb35770886345,61036ea4f0989bee0bac8e38,2021-07-29_23h16.07.334,Simcolourproject_2stim_asymm_v5,2020.2.10,Win32,60,61025ae37ef11b136ea224fe,,,,,,,,,2643,-52,108,1,0,0,response7disk,,0,25,-13,1,0,0,rectangle,25,-13,1,0,0,25,-13,1,0,0,1,136,296,76,1,,,,,,,,
,,,,,,,,,,,,,FF,,,,,,,,1.9518,,,,,,,,,,,,,,,,,,,,,,6100685a736fb35770886345,61036ea4f0989bee0bac8e38,2021-07-29_23h16.07.334,Simcolourproject_2stim_asymm_v5,2020.2.10,Win32,60,61025ae37ef11b136ea224fe,,,,,,,,,3229,-33,64,1,0,0,response7disk,,0,27,0,1,0,0,rectangle,27,0,1,0,0,27,0,1,0,0,1,137,297,56,1,,,,,,,,
,,,,,,,,,,,,,FF,,,,,,,,2.301,,,,,,,,,,,,,,,,,,,,,,6100685a736fb35770886345,61036ea4f0989bee0bac8e38,2021-07-29_23h16.07.334,Simcolourproject_2stim_asymm_v5,2020.2.10,Win32,60,61025ae37ef11b136ea224fe,,,,,,,,,2318,-60,32,1,0,0,response7disk,,1,2,2,1,0,0,rectangle,2,2,1,0,0,2,2,1,0,0,1,138,298,125,1,,,,,,,,
,,,,,,,,,,,,,FF,,,,,,,,1.5012,,,,,,,,,,,,,,,,,,,,,,6100685a736fb35770886345,61036ea4f0989bee0bac8e38,2021-07-29_23h16.07.334,Simcolourproject_2stim_asymm_v5,2020.2.10,Win32,60,61025ae37ef11b136ea224fe,,,,,,,,,3763,-40,78,1,0,0,response7disk,,0,1,0,1,0,0,rectangle,1,0,1,0,0,1,0,1,0,0,1,139,299,17,1,,,,,,,,
,,,,,,,,,,,,,FF,,,,,,,,1.5388,,,,,,,,,,,,,,,,,,,,,,6100685a736fb35770886345,61036ea4f0989bee0bac8e38,2021-07-29_23h16.07.334,Simcolourproject_2stim_asymm_v5,2020.2.10,Win32,60,61025ae37ef11b136ea224fe,,,,,,,,,1134,-31,-66,1,0,0,response5disk,,3,22,-6,1,0,0,rectangle,22,-6,1,0,0,22,-6,1,0,0,1,140,300,18,1,,,,,,,,
,,,,,,,,,,,,,FF,,,,,,,,1.8212,,,,,,,,,,,,,,,,,,,,,,6100685a736fb35770886345,61036ea4f0989bee0bac8e38,2021-07-29_23h16.07.334,Simcolourproject_2stim_asymm_v5,2020.2.10,Win32,60,61025ae37ef11b136ea224fe,,,,,,,,,4191,-32,84,1,0,0,response7disk,,0,12,5,1,0,0,rectangle,12,5,1,0,0,12,5,1,0,0,1,141,301,112,1,,,,,,,,
,,,,,,,,,,,,,FF,,,,,,,,1.6079,,,,,,,,,,,,,,,,,,,,,,6100685a736fb35770886345,61036ea4f0989bee0bac8e38,2021-07-29_23h16.07.334,Simcolourproject_2stim_asymm_v5,2020.2.10,Win32,60,61025ae37ef11b136ea224fe,,,,,,,,,743,-78,34,1,0,0,response7disk,,1,-1,-3,1,0,0,rectangle,-1,-3,1,0,0,-1,-3,1,0,0,1,142,302,137,1,,,,,,,,
