key_resp.keys,key_resp.rt,key_resp_14.keys,key_resp_14.rt,key_resp_15.keys,key_resp_15.rt,key_resp_17.keys,key_resp_17.rt,key_resp_9.keys,key_resp_9.rt,key_resp_10.keys,key_resp_10.rt,practice_comparison,Ecc,mouse_5.x,mouse_5.y,mouse_5.leftButton,mouse_5.midButton,mouse_5.rightButton,mouse_5.clicked_name,pracsimilarity,response_time,mouse_10.x,mouse_10.y,mouse_10.leftButton,mouse_10.midButton,mouse_10.rightButton,mouse_10.clicked_name,mouse_7.x,mouse_7.y,mouse_7.leftButton,mouse_7.midButton,mouse_7.rightButton,mouse_6.x,mouse_6.y,mouse_6.leftButton,mouse_6.midButton,mouse_6.rightButton,duringprac.thisRepN,duringprac.thisTrialN,duringprac.thisN,duringprac.thisIndex,duringprac.ran,participant,session,date,expName,psychopyVersion,OS,frameRate,study_id,mouse_7.clicked_name,catchpracsimilarity,catch_response_time,catchnumberprac,catchtrialorderprac,mouse_6.clicked_name,key_resp_22.keys,key_resp_22.rt,realcomparison,mouse.x,mouse.y,mouse.leftButton,mouse.midButton,mouse.rightButton,mouse.clicked_name,Colour2,similarity,mouse_2.x,mouse_2.y,mouse_2.leftButton,mouse_2.midButton,mouse_2.rightButton,mouse_2.clicked_name,mouse_3.x,mouse_3.y,mouse_3.leftButton,mouse_3.midButton,mouse_3.rightButton,mouse_11.x,mouse_11.y,mouse_11.leftButton,mouse_11.midButton,mouse_11.rightButton,trials_2.thisRepN,trials_2.thisTrialN,trials_2.thisN,trials_2.thisIndex,trials_2.ran,Colour1,mouse_3.clicked_name,catchornah,catchsimilarity,catchnumber,catchtrialorder,catchRT,mouse_11.clicked_name
space,2.1588,space,32.2632,space,23.7003,space,2.1489,space,1.8663,space,3.4174,142,PF,-28.203125,75.49609375,1,0,0,response7disk_5,0,2.3011,8,-2.83984375,1,0,0,rectangle_8,8,-2.83984375,1,0,0,8,-2.83984375,1,0,0,0,0,0,6,1,61003848a370015d74d6b5d2,61036ea5cf576104d41a109d,2021-07-29_23h16.14.759,Simcolourproject_2stim_asymm_v5,2020.2.10,MacIntel,60,61025ae37ef11b136ea224fe,,,,,,,,,,,,,,,,,,,,,,,,,,,,,,,,,,,,,,,,,,,,,,
,,,,,,,,,,,,30,PF,31.5703125,73.60546875,1,0,0,response1disk_5,7,1.6653,6.00390625,0.8203125,1,0,0,rectangle_8,-88.2734375,56.3515625,1,0,0,9.6328125,-9.21875,1,0,0,0,1,1,2,1,61003848a370015d74d6b5d2,61036ea5cf576104d41a109d,2021-07-29_23h16.14.759,Simcolourproject_2stim_asymm_v5,2020.2.10,MacIntel,60,61025ae37ef11b136ea224fe,response7disk_7,1,2.1851,1,"[2,5]",rectangle_4,,,,,,,,,,,,,,,,,,,,,,,,,,,,,,,,,,,,,,,,
,,,,,,,,,,,,3,FF,26.92578125,83.3828125,1,0,0,response1disk_5,7,1.7831,5.56640625,-2.8515625,1,0,0,rectangle_8,5.56640625,-2.8515625,1,0,0,5.56640625,-2.8515625,1,0,0,0,2,2,0,1,61003848a370015d74d6b5d2,61036ea5cf576104d41a109d,2021-07-29_23h16.14.759,Simcolourproject_2stim_asymm_v5,2020.2.10,MacIntel,60,61025ae37ef11b136ea224fe,,,,,,,,,,,,,,,,,,,,,,,,,,,,,,,,,,,,,,,,,,,,,,
,,,,,,,,,,,,4,PF,67.9609375,31.3828125,1,0,0,response1disk_5,6,0.9666,8.296875,1.84375,1,0,0,rectangle_8,8.296875,1.84375,1,0,0,8.296875,1.84375,1,0,0,0,3,3,4,1,61003848a370015d74d6b5d2,61036ea5cf576104d41a109d,2021-07-29_23h16.14.759,Simcolourproject_2stim_asymm_v5,2020.2.10,MacIntel,60,61025ae37ef11b136ea224fe,,,,,,,,,,,,,,,,,,,,,,,,,,,,,,,,,,,,,,,,,,,,,,
,,,,,,,,,,,,145,PF,50.62109375,84.9375,1,0,0,response1disk_5,7,0.8677,-2.25390625,-8.0625,1,0,0,rectangle_8,-81.93359375,40.0546875,1,0,0,2.6328125,-1.1875,1,0,0,0,4,4,1,1,61003848a370015d74d6b5d2,61036ea5cf576104d41a109d,2021-07-29_23h16.14.759,Simcolourproject_2stim_asymm_v5,2020.2.10,MacIntel,60,61025ae37ef11b136ea224fe,response7disk_7,1,1.5164,1,"[2,5]",rectangle_4,,,,,,,,,,,,,,,,,,,,,,,,,,,,,,,,,,,,,,,,
,,,,,,,,,,,,93,FF,39.86328125,-57.67578125,1,0,0,response3disk_5,4,1.3155,8.47265625,-10.65234375,1,0,0,rectangle_8,8.47265625,-10.65234375,1,0,0,8.47265625,-10.65234375,1,0,0,0,5,5,5,1,61003848a370015d74d6b5d2,61036ea5cf576104d41a109d,2021-07-29_23h16.14.759,Simcolourproject_2stim_asymm_v5,2020.2.10,MacIntel,60,61025ae37ef11b136ea224fe,,,,,,,,,,,,,,,,,,,,,,,,,,,,,,,,,,,,,,,,,,,,,,
,,,,,,,,,,,,61,FF,26.46875,60.99609375,1,0,0,response1disk_5,7,1.168,10.58984375,-7.98046875,1,0,0,rectangle_8,10.58984375,-7.98046875,1,0,0,10.58984375,-7.98046875,1,0,0,0,6,6,3,1,61003848a370015d74d6b5d2,61036ea5cf576104d41a109d,2021-07-29_23h16.14.759,Simcolourproject_2stim_asymm_v5,2020.2.10,MacIntel,60,61025ae37ef11b136ea224fe,,,,,,,,,,,,,,,,,,,,,,,,,,,,,,,,,,,,,,,,,,,,,,
,,,,,,,,,,,,,FF,,,,,,,,1.3502,,,,,,,,,,,,,,,,,,,,,,61003848a370015d74d6b5d2,61036ea5cf576104d41a109d,2021-07-29_23h16.14.759,Simcolourproject_2stim_asymm_v5,2020.2.10,MacIntel,60,61025ae37ef11b136ea224fe,,,,,,,space,2.1406,472,73.77734375,33.13671875,1,0,0,response1disk,,6,-6.55078125,-3.72265625,1,0,0,rectangle,-6.55078125,-3.72265625,1,0,0,-6.55078125,-3.72265625,1,0,0,0,0,0,149,1,,,,,,,,
,,,,,,,,,,,,,FF,,,,,,,,0.9353,,,,,,,,,,,,,,,,,,,,,,61003848a370015d74d6b5d2,61036ea5cf576104d41a109d,2021-07-29_23h16.14.759,Simcolourproject_2stim_asymm_v5,2020.2.10,MacIntel,60,61025ae37ef11b136ea224fe,,,,,,,,,1785,83.85546875,-31.09765625,1,0,0,response3disk,,5,13.9609375,-7.921875,1,0,0,rectangle,13.9609375,-7.921875,1,0,0,13.9609375,-7.921875,1,0,0,0,1,1,141,1,,,,,,,,
,,,,,,,,,,,,,FF,,,,,,,,1.0669,,,,,,,,,,,,,,,,,,,,,,61003848a370015d74d6b5d2,61036ea5cf576104d41a109d,2021-07-29_23h16.14.759,Simcolourproject_2stim_asymm_v5,2020.2.10,MacIntel,60,61025ae37ef11b136ea224fe,,,,,,,,,3161,-32.984375,-54.98046875,1,0,0,response5disk,,3,3.16796875,0.03515625,1,0,0,rectangle,3.16796875,0.03515625,1,0,0,3.16796875,0.03515625,1,0,0,0,2,2,46,1,,,,,,,,
,,,,,,,,,,,,,FF,,,,,,,,1.0002,,,,,,,,,,,,,,,,,,,,,,61003848a370015d74d6b5d2,61036ea5cf576104d41a109d,2021-07-29_23h16.14.759,Simcolourproject_2stim_asymm_v5,2020.2.10,MacIntel,60,61025ae37ef11b136ea224fe,,,,,,,,,1575,34.71484375,50.1953125,1,0,0,response1disk,,7,25.640625,-6.5703125,1,0,0,rectangle,-82.51953125,35.08984375,1,0,0,1.84375,3.8515625,1,0,0,0,3,3,87,1,,response7disk_3,TRUE,1,1,"[208,244,102,127,171,113,110,15,69,42,119,289,70,4,48,62,82,261,224,195]",1.684,rectangle
,,,,,,,,,,,,,FF,,,,,,,,0.9657,,,,,,,,,,,,,,,,,,,,,,61003848a370015d74d6b5d2,61036ea5cf576104d41a109d,2021-07-29_23h16.14.759,Simcolourproject_2stim_asymm_v5,2020.2.10,MacIntel,60,61025ae37ef11b136ea224fe,,,,,,,,,683,71.77734375,43.55078125,1,0,0,response1disk,,6,-26.30078125,-2.09375,1,0,0,rectangle,-26.30078125,-2.09375,1,0,0,-26.30078125,-2.09375,1,0,0,0,4,4,26,1,,,,,,,,
,,,,,,,,,,,,,FF,,,,,,,,0.6667,,,,,,,,,,,,,,,,,,,,,,61003848a370015d74d6b5d2,61036ea5cf576104d41a109d,2021-07-29_23h16.14.759,Simcolourproject_2stim_asymm_v5,2020.2.10,MacIntel,60,61025ae37ef11b136ea224fe,,,,,,,,,4173,27.0703125,69.62109375,1,0,0,response1disk,,7,-3.9296875,8.07421875,1,0,0,rectangle,-3.9296875,8.07421875,1,0,0,-3.9296875,8.07421875,1,0,0,0,5,5,15,1,,,,,,,,
,,,,,,,,,,,,,FF,,,,,,,,0.5994,,,,,,,,,,,,,,,,,,,,,,61003848a370015d74d6b5d2,61036ea5cf576104d41a109d,2021-07-29_23h16.14.759,Simcolourproject_2stim_asymm_v5,2020.2.10,MacIntel,60,61025ae37ef11b136ea224fe,,,,,,,,,3263,22.51171875,57.71875,1,0,0,response1disk,,7,-5.0234375,5.7734375,1,0,0,rectangle,-5.0234375,5.7734375,1,0,0,-5.0234375,5.7734375,1,0,0,0,6,6,117,1,,,,,,,,
,,,,,,,,,,,,,FF,,,,,,,,0.6675,,,,,,,,,,,,,,,,,,,,,,61003848a370015d74d6b5d2,61036ea5cf576104d41a109d,2021-07-29_23h16.14.759,Simcolourproject_2stim_asymm_v5,2020.2.10,MacIntel,60,61025ae37ef11b136ea224fe,,,,,,,,,2966,28.8203125,69.68359375,1,0,0,response1disk,,7,11.83984375,1.359375,1,0,0,rectangle,11.83984375,1.359375,1,0,0,11.83984375,1.359375,1,0,0,0,7,7,23,1,,,,,,,,
,,,,,,,,,,,,,FF,,,,,,,,0.7166,,,,,,,,,,,,,,,,,,,,,,61003848a370015d74d6b5d2,61036ea5cf576104d41a109d,2021-07-29_23h16.14.759,Simcolourproject_2stim_asymm_v5,2020.2.10,MacIntel,60,61025ae37ef11b136ea224fe,,,,,,,,,2572,36.05859375,59.33984375,1,0,0,response1disk,,7,14.1796875,-5,1,0,0,rectangle,14.1796875,-5,1,0,0,14.1796875,-5,1,0,0,0,8,8,7,1,,,,,,,,
,,,,,,,,,,,,,FF,,,,,,,,0.7335,,,,,,,,,,,,,,,,,,,,,,61003848a370015d74d6b5d2,61036ea5cf576104d41a109d,2021-07-29_23h16.14.759,Simcolourproject_2stim_asymm_v5,2020.2.10,MacIntel,60,61025ae37ef11b136ea224fe,,,,,,,,,3653,86.26953125,55.7109375,1,0,0,response1disk,,6,5.55078125,7.53515625,1,0,0,rectangle,5.55078125,7.53515625,1,0,0,5.55078125,7.53515625,1,0,0,0,9,9,131,1,,,,,,,,
,,,,,,,,,,,,,FF,,,,,,,,0.5489,,,,,,,,,,,,,,,,,,,,,,61003848a370015d74d6b5d2,61036ea5cf576104d41a109d,2021-07-29_23h16.14.759,Simcolourproject_2stim_asymm_v5,2020.2.10,MacIntel,60,61025ae37ef11b136ea224fe,,,,,,,,,2451,42.640625,80.62109375,1,0,0,response1disk,,7,7.19921875,13.05078125,1,0,0,rectangle,7.19921875,13.05078125,1,0,0,7.19921875,13.05078125,1,0,0,0,10,10,37,1,,,,,,,,
,,,,,,,,,,,,,FF,,,,,,,,0.5994,,,,,,,,,,,,,,,,,,,,,,61003848a370015d74d6b5d2,61036ea5cf576104d41a109d,2021-07-29_23h16.14.759,Simcolourproject_2stim_asymm_v5,2020.2.10,MacIntel,60,61025ae37ef11b136ea224fe,,,,,,,,,2077,32.46875,64.40625,1,0,0,response1disk,,7,-3.59375,-1.171875,1,0,0,rectangle,-3.59375,-1.171875,1,0,0,-3.59375,-1.171875,1,0,0,0,11,11,20,1,,,,,,,,
,,,,,,,,,,,,,FF,,,,,,,,1.2663,,,,,,,,,,,,,,,,,,,,,,61003848a370015d74d6b5d2,61036ea5cf576104d41a109d,2021-07-29_23h16.14.759,Simcolourproject_2stim_asymm_v5,2020.2.10,MacIntel,60,61025ae37ef11b136ea224fe,,,,,,,,,3297,-76.17578125,-28.58984375,1,0,0,response5disk,,2,-23.50390625,-9.5625,1,0,0,rectangle,-23.50390625,-9.5625,1,0,0,-23.50390625,-9.5625,1,0,0,0,12,12,27,1,,,,,,,,
,,,,,,,,,,,,,FF,,,,,,,,1.4492,,,,,,,,,,,,,,,,,,,,,,61003848a370015d74d6b5d2,61036ea5cf576104d41a109d,2021-07-29_23h16.14.759,Simcolourproject_2stim_asymm_v5,2020.2.10,MacIntel,60,61025ae37ef11b136ea224fe,,,,,,,,,2388,36.74609375,61.62890625,1,0,0,response1disk,,7,20.71875,-15.9140625,1,0,0,rectangle,20.71875,-15.9140625,1,0,0,20.71875,-15.9140625,1,0,0,0,13,13,58,1,,,,,,,,
,,,,,,,,,,,,,FF,,,,,,,,2.2666,,,,,,,,,,,,,,,,,,,,,,61003848a370015d74d6b5d2,61036ea5cf576104d41a109d,2021-07-29_23h16.14.759,Simcolourproject_2stim_asymm_v5,2020.2.10,MacIntel,60,61025ae37ef11b136ea224fe,,,,,,,,,3372,26.37890625,53.00390625,1,0,0,response1disk,,7,13.9140625,-8.13671875,1,0,0,rectangle,-76.19921875,35.49609375,1,0,0,-10.671875,3.07421875,1,0,0,0,14,14,33,1,,response7disk_3,TRUE,1,4,"[208,244,102,127,171,113,110,15,69,42,119,289,70,4,48,62,82,261,224,195]",0.9659,rectangle
,,,,,,,,,,,,,FF,,,,,,,,1.1833,,,,,,,,,,,,,,,,,,,,,,61003848a370015d74d6b5d2,61036ea5cf576104d41a109d,2021-07-29_23h16.14.759,Simcolourproject_2stim_asymm_v5,2020.2.10,MacIntel,60,61025ae37ef11b136ea224fe,,,,,,,,,941,79.78515625,-26.0625,1,0,0,response3disk,,5,12.296875,-3.64453125,1,0,0,rectangle,12.296875,-3.64453125,1,0,0,12.296875,-3.64453125,1,0,0,0,15,15,121,1,,,,,,,,
,,,,,,,,,,,,,FF,,,,,,,,0.7655,,,,,,,,,,,,,,,,,,,,,,61003848a370015d74d6b5d2,61036ea5cf576104d41a109d,2021-07-29_23h16.14.759,Simcolourproject_2stim_asymm_v5,2020.2.10,MacIntel,60,61025ae37ef11b136ea224fe,,,,,,,,,2874,59.75,-26.8359375,1,0,0,response3disk,,5,-7.49609375,-13.828125,1,0,0,rectangle,-7.49609375,-13.828125,1,0,0,-7.49609375,-13.828125,1,0,0,0,16,16,102,1,,,,,,,,
,,,,,,,,,,,,,FF,,,,,,,,0.6493,,,,,,,,,,,,,,,,,,,,,,61003848a370015d74d6b5d2,61036ea5cf576104d41a109d,2021-07-29_23h16.14.759,Simcolourproject_2stim_asymm_v5,2020.2.10,MacIntel,60,61025ae37ef11b136ea224fe,,,,,,,,,3984,37.1171875,69.91015625,1,0,0,response1disk,,7,15.7890625,0.83203125,1,0,0,rectangle,15.7890625,0.83203125,1,0,0,15.7890625,0.83203125,1,0,0,0,17,17,8,1,,,,,,,,
,,,,,,,,,,,,,FF,,,,,,,,0.9168,,,,,,,,,,,,,,,,,,,,,,61003848a370015d74d6b5d2,61036ea5cf576104d41a109d,2021-07-29_23h16.14.759,Simcolourproject_2stim_asymm_v5,2020.2.10,MacIntel,60,61025ae37ef11b136ea224fe,,,,,,,,,164,-68.1484375,-28.46484375,1,0,0,response5disk,,2,15.0859375,-2.83984375,1,0,0,rectangle,15.0859375,-2.83984375,1,0,0,15.0859375,-2.83984375,1,0,0,0,18,18,12,1,,,,,,,,
,,,,,,,,,,,,,FF,,,,,,,,0.8328,,,,,,,,,,,,,,,,,,,,,,61003848a370015d74d6b5d2,61036ea5cf576104d41a109d,2021-07-29_23h16.14.759,Simcolourproject_2stim_asymm_v5,2020.2.10,MacIntel,60,61025ae37ef11b136ea224fe,,,,,,,,,2836,-67.2890625,-28.58984375,1,0,0,response5disk,,2,-10.11328125,4.53515625,1,0,0,rectangle,-10.11328125,4.53515625,1,0,0,-10.11328125,4.53515625,1,0,0,0,19,19,92,1,,,,,,,,
,,,,,,,,,,,,,FF,,,,,,,,0.933,,,,,,,,,,,,,,,,,,,,,,61003848a370015d74d6b5d2,61036ea5cf576104d41a109d,2021-07-29_23h16.14.759,Simcolourproject_2stim_asymm_v5,2020.2.10,MacIntel,60,61025ae37ef11b136ea224fe,,,,,,,,,58,52.1953125,36.625,1,0,0,response1disk,,6,-1.9765625,7.1484375,1,0,0,rectangle,-1.9765625,7.1484375,1,0,0,-1.9765625,7.1484375,1,0,0,0,20,20,159,1,,,,,,,,
,,,,,,,,,,,,,FF,,,,,,,,0.7668,,,,,,,,,,,,,,,,,,,,,,61003848a370015d74d6b5d2,61036ea5cf576104d41a109d,2021-07-29_23h16.14.759,Simcolourproject_2stim_asymm_v5,2020.2.10,MacIntel,60,61025ae37ef11b136ea224fe,,,,,,,,,3787,63.75390625,25.3359375,1,0,0,response1disk,,6,7.453125,-8.03125,1,0,0,rectangle,7.453125,-8.03125,1,0,0,7.453125,-8.03125,1,0,0,0,21,21,74,1,,,,,,,,
,,,,,,,,,,,,,FF,,,,,,,,0.5333,,,,,,,,,,,,,,,,,,,,,,61003848a370015d74d6b5d2,61036ea5cf576104d41a109d,2021-07-29_23h16.14.759,Simcolourproject_2stim_asymm_v5,2020.2.10,MacIntel,60,61025ae37ef11b136ea224fe,,,,,,,,,795,38.78125,78.359375,1,0,0,response1disk,,7,2.546875,8.49609375,1,0,0,rectangle,2.546875,8.49609375,1,0,0,2.546875,8.49609375,1,0,0,0,22,22,101,1,,,,,,,,
,,,,,,,,,,,,,FF,,,,,,,,0.6174,,,,,,,,,,,,,,,,,,,,,,61003848a370015d74d6b5d2,61036ea5cf576104d41a109d,2021-07-29_23h16.14.759,Simcolourproject_2stim_asymm_v5,2020.2.10,MacIntel,60,61025ae37ef11b136ea224fe,,,,,,,,,1979,58.58984375,-24.3359375,1,0,0,response3disk,,5,15.23046875,-9.984375,1,0,0,rectangle,15.23046875,-9.984375,1,0,0,15.23046875,-9.984375,1,0,0,0,23,23,28,1,,,,,,,,
,,,,,,,,,,,,,FF,,,,,,,,2.2681,,,,,,,,,,,,,,,,,,,,,,61003848a370015d74d6b5d2,61036ea5cf576104d41a109d,2021-07-29_23h16.14.759,Simcolourproject_2stim_asymm_v5,2020.2.10,MacIntel,60,61025ae37ef11b136ea224fe,,,,,,,,,2478,46.8046875,79.97265625,1,0,0,response1disk,,7,15.59375,6.0390625,1,0,0,rectangle,15.59375,6.0390625,1,0,0,15.59375,6.0390625,1,0,0,0,24,24,53,1,,,,,,,,
,,,,,,,,,,,,,FF,,,,,,,,1.1848,,,,,,,,,,,,,,,,,,,,,,61003848a370015d74d6b5d2,61036ea5cf576104d41a109d,2021-07-29_23h16.14.759,Simcolourproject_2stim_asymm_v5,2020.2.10,MacIntel,60,61025ae37ef11b136ea224fe,,,,,,,,,4066,39.390625,-68.10546875,1,0,0,response3disk,,4,7.8671875,0.37890625,1,0,0,rectangle,7.8671875,0.37890625,1,0,0,7.8671875,0.37890625,1,0,0,0,25,25,44,1,,,,,,,,
,,,,,,,,,,,,,FF,,,,,,,,0.6833,,,,,,,,,,,,,,,,,,,,,,61003848a370015d74d6b5d2,61036ea5cf576104d41a109d,2021-07-29_23h16.14.759,Simcolourproject_2stim_asymm_v5,2020.2.10,MacIntel,60,61025ae37ef11b136ea224fe,,,,,,,,,1242,75.328125,44.484375,1,0,0,response1disk,,6,0.453125,5.5234375,1,0,0,rectangle,0.453125,5.5234375,1,0,0,0.453125,5.5234375,1,0,0,0,26,26,104,1,,,,,,,,
,,,,,,,,,,,,,FF,,,,,,,,0.7841,,,,,,,,,,,,,,,,,,,,,,61003848a370015d74d6b5d2,61036ea5cf576104d41a109d,2021-07-29_23h16.14.759,Simcolourproject_2stim_asymm_v5,2020.2.10,MacIntel,60,61025ae37ef11b136ea224fe,,,,,,,,,586,32.0234375,74.0078125,1,0,0,response1disk,,7,1.0546875,-2.2265625,1,0,0,rectangle,1.0546875,-2.2265625,1,0,0,1.0546875,-2.2265625,1,0,0,0,27,27,145,1,,,,,,,,
,,,,,,,,,,,,,FF,,,,,,,,0.8668,,,,,,,,,,,,,,,,,,,,,,61003848a370015d74d6b5d2,61036ea5cf576104d41a109d,2021-07-29_23h16.14.759,Simcolourproject_2stim_asymm_v5,2020.2.10,MacIntel,60,61025ae37ef11b136ea224fe,,,,,,,,,3403,52.125,-29.56640625,1,0,0,response3disk,,5,-5.87109375,-10.01953125,1,0,0,rectangle,-5.87109375,-10.01953125,1,0,0,-5.87109375,-10.01953125,1,0,0,0,28,28,18,1,,,,,,,,
,,,,,,,,,,,,,FF,,,,,,,,0.7335,,,,,,,,,,,,,,,,,,,,,,61003848a370015d74d6b5d2,61036ea5cf576104d41a109d,2021-07-29_23h16.14.759,Simcolourproject_2stim_asymm_v5,2020.2.10,MacIntel,60,61025ae37ef11b136ea224fe,,,,,,,,,1259,27.80859375,64.9375,1,0,0,response1disk,,7,11.6484375,-3.31640625,1,0,0,rectangle,11.6484375,-3.31640625,1,0,0,11.6484375,-3.31640625,1,0,0,0,29,29,75,1,,,,,,,,
,,,,,,,,,,,,,FF,,,,,,,,0.934,,,,,,,,,,,,,,,,,,,,,,61003848a370015d74d6b5d2,61036ea5cf576104d41a109d,2021-07-29_23h16.14.759,Simcolourproject_2stim_asymm_v5,2020.2.10,MacIntel,60,61025ae37ef11b136ea224fe,,,,,,,,,538,54.3125,31.4375,1,0,0,response1disk,,6,18.64453125,17.7265625,1,0,0,rectangle,18.64453125,17.7265625,1,0,0,18.64453125,17.7265625,1,0,0,0,30,30,124,1,,,,,,,,
,,,,,,,,,,,,,FF,,,,,,,,0.8329,,,,,,,,,,,,,,,,,,,,,,61003848a370015d74d6b5d2,61036ea5cf576104d41a109d,2021-07-29_23h16.14.759,Simcolourproject_2stim_asymm_v5,2020.2.10,MacIntel,60,61025ae37ef11b136ea224fe,,,,,,,,,1424,54.015625,-21.73828125,1,0,0,response3disk,,5,17.89453125,-13.546875,1,0,0,rectangle,17.89453125,-13.546875,1,0,0,17.89453125,-13.546875,1,0,0,0,31,31,69,1,,,,,,,,
,,,,,,,,,,,,,FF,,,,,,,,0.7665,,,,,,,,,,,,,,,,,,,,,,61003848a370015d74d6b5d2,61036ea5cf576104d41a109d,2021-07-29_23h16.14.759,Simcolourproject_2stim_asymm_v5,2020.2.10,MacIntel,60,61025ae37ef11b136ea224fe,,,,,,,,,1899,-30.578125,-51.97265625,1,0,0,response5disk,,3,-6.50390625,-8.5,1,0,0,rectangle,-6.50390625,-8.5,1,0,0,-6.50390625,-8.5,1,0,0,0,32,32,59,1,,,,,,,,
,,,,,,,,,,,,,FF,,,,,,,,0.9994,,,,,,,,,,,,,,,,,,,,,,61003848a370015d74d6b5d2,61036ea5cf576104d41a109d,2021-07-29_23h16.14.759,Simcolourproject_2stim_asymm_v5,2020.2.10,MacIntel,60,61025ae37ef11b136ea224fe,,,,,,,,,2928,48.953125,61.41796875,1,0,0,response1disk,,7,7.46875,-2.76171875,1,0,0,rectangle,7.46875,-2.76171875,1,0,0,7.46875,-2.76171875,1,0,0,0,33,33,158,1,,,,,,,,
,,,,,,,,,,,,,FF,,,,,,,,0.6333,,,,,,,,,,,,,,,,,,,,,,61003848a370015d74d6b5d2,61036ea5cf576104d41a109d,2021-07-29_23h16.14.759,Simcolourproject_2stim_asymm_v5,2020.2.10,MacIntel,60,61025ae37ef11b136ea224fe,,,,,,,,,2512,22.0078125,54.05859375,1,0,0,response1disk,,7,2.3046875,-6.5,1,0,0,rectangle,2.3046875,-6.5,1,0,0,2.3046875,-6.5,1,0,0,0,34,34,40,1,,,,,,,,
,,,,,,,,,,,,,FF,,,,,,,,0.5342,,,,,,,,,,,,,,,,,,,,,,61003848a370015d74d6b5d2,61036ea5cf576104d41a109d,2021-07-29_23h16.14.759,Simcolourproject_2stim_asymm_v5,2020.2.10,MacIntel,60,61025ae37ef11b136ea224fe,,,,,,,,,2269,36.859375,68.93359375,1,0,0,response1disk,,7,22.10546875,16.55859375,1,0,0,rectangle,22.10546875,16.55859375,1,0,0,22.10546875,16.55859375,1,0,0,0,35,35,81,1,,,,,,,,
,,,,,,,,,,,,,FF,,,,,,,,1.0506,,,,,,,,,,,,,,,,,,,,,,61003848a370015d74d6b5d2,61036ea5cf576104d41a109d,2021-07-29_23h16.14.759,Simcolourproject_2stim_asymm_v5,2020.2.10,MacIntel,60,61025ae37ef11b136ea224fe,,,,,,,,,2676,-31.05859375,-43.91796875,1,0,0,response5disk,,3,-4.8671875,10.984375,1,0,0,rectangle,-4.8671875,10.984375,1,0,0,-4.8671875,10.984375,1,0,0,0,36,36,38,1,,,,,,,,
,,,,,,,,,,,,,FF,,,,,,,,0.5675,,,,,,,,,,,,,,,,,,,,,,61003848a370015d74d6b5d2,61036ea5cf576104d41a109d,2021-07-29_23h16.14.759,Simcolourproject_2stim_asymm_v5,2020.2.10,MacIntel,60,61025ae37ef11b136ea224fe,,,,,,,,,2733,-31.66796875,-50.0703125,1,0,0,response5disk,,3,-19.02734375,-2.98828125,1,0,0,rectangle,-19.02734375,-2.98828125,1,0,0,-19.02734375,-2.98828125,1,0,0,0,37,37,24,1,,,,,,,,
,,,,,,,,,,,,,FF,,,,,,,,0.866,,,,,,,,,,,,,,,,,,,,,,61003848a370015d74d6b5d2,61036ea5cf576104d41a109d,2021-07-29_23h16.14.759,Simcolourproject_2stim_asymm_v5,2020.2.10,MacIntel,60,61025ae37ef11b136ea224fe,,,,,,,,,1027,109.6640625,-32.16015625,1,0,0,response3disk,,5,12.2890625,-10.796875,1,0,0,rectangle,12.2890625,-10.796875,1,0,0,12.2890625,-10.796875,1,0,0,0,38,38,130,1,,,,,,,,
,,,,,,,,,,,,,FF,,,,,,,,0.6831,,,,,,,,,,,,,,,,,,,,,,61003848a370015d74d6b5d2,61036ea5cf576104d41a109d,2021-07-29_23h16.14.759,Simcolourproject_2stim_asymm_v5,2020.2.10,MacIntel,60,61025ae37ef11b136ea224fe,,,,,,,,,3066,84.12109375,51.16015625,1,0,0,response1disk,,6,-20.8515625,-16.90625,1,0,0,rectangle,-20.8515625,-16.90625,1,0,0,-20.8515625,-16.90625,1,0,0,0,39,39,64,1,,,,,,,,
,,,,,,,,,,,,,FF,,,,,,,,0.7991,,,,,,,,,,,,,,,,,,,,,,61003848a370015d74d6b5d2,61036ea5cf576104d41a109d,2021-07-29_23h16.14.759,Simcolourproject_2stim_asymm_v5,2020.2.10,MacIntel,60,61025ae37ef11b136ea224fe,,,,,,,,,3107,-78.50390625,-38.25,1,0,0,response5disk,,2,-16.12890625,10.26171875,1,0,0,rectangle,-16.12890625,10.26171875,1,0,0,-16.12890625,10.26171875,1,0,0,0,40,40,150,1,,,,,,,,
,,,,,,,,,,,,,FF,,,,,,,,1.633,,,,,,,,,,,,,,,,,,,,,,61003848a370015d74d6b5d2,61036ea5cf576104d41a109d,2021-07-29_23h16.14.759,Simcolourproject_2stim_asymm_v5,2020.2.10,MacIntel,60,61025ae37ef11b136ea224fe,,,,,,,,,1015,68.21875,30.84765625,1,0,0,response1disk,,6,0.79296875,4.54296875,1,0,0,rectangle,-31.84375,-60.1171875,1,0,0,6.85546875,9.4140625,1,0,0,0,41,41,80,1,,response5disk_3,TRUE,3,3,"[208,244,102,127,171,113,110,15,69,42,119,289,70,4,48,62,82,261,224,195]",1.6167,rectangle
,,,,,,,,,,,,,FF,,,,,,,,1.2978,,,,,,,,,,,,,,,,,,,,,,61003848a370015d74d6b5d2,61036ea5cf576104d41a109d,2021-07-29_23h16.14.759,Simcolourproject_2stim_asymm_v5,2020.2.10,MacIntel,60,61025ae37ef11b136ea224fe,,,,,,,,,2322,52.2109375,84.00390625,1,0,0,response1disk,,7,10.68359375,-6.375,1,0,0,rectangle,10.68359375,-6.375,1,0,0,10.68359375,-6.375,1,0,0,0,42,42,96,1,,,,,,,,
,,,,,,,,,,,,,FF,,,,,,,,0.7491,,,,,,,,,,,,,,,,,,,,,,61003848a370015d74d6b5d2,61036ea5cf576104d41a109d,2021-07-29_23h16.14.759,Simcolourproject_2stim_asymm_v5,2020.2.10,MacIntel,60,61025ae37ef11b136ea224fe,,,,,,,,,1545,63.984375,-30.6875,1,0,0,response3disk,,5,24.36328125,-1.44140625,1,0,0,rectangle,24.36328125,-1.44140625,1,0,0,24.36328125,-1.44140625,1,0,0,0,43,43,98,1,,,,,,,,
,,,,,,,,,,,,,FF,,,,,,,,0.6825,,,,,,,,,,,,,,,,,,,,,,61003848a370015d74d6b5d2,61036ea5cf576104d41a109d,2021-07-29_23h16.14.759,Simcolourproject_2stim_asymm_v5,2020.2.10,MacIntel,60,61025ae37ef11b136ea224fe,,,,,,,,,3055,-46.625,-35.45703125,1,0,0,response5disk,,2,19.84765625,3.2734375,1,0,0,rectangle,19.84765625,3.2734375,1,0,0,19.84765625,3.2734375,1,0,0,0,44,44,9,1,,,,,,,,
,,,,,,,,,,,,,FF,,,,,,,,1.1006,,,,,,,,,,,,,,,,,,,,,,61003848a370015d74d6b5d2,61036ea5cf576104d41a109d,2021-07-29_23h16.14.759,Simcolourproject_2stim_asymm_v5,2020.2.10,MacIntel,60,61025ae37ef11b136ea224fe,,,,,,,,,3095,81.5078125,-56.41015625,1,0,0,response3disk,,5,14.57421875,2.484375,1,0,0,rectangle,14.57421875,2.484375,1,0,0,14.57421875,2.484375,1,0,0,0,45,45,152,1,,,,,,,,
,,,,,,,,,,,,,FF,,,,,,,,0.8329,,,,,,,,,,,,,,,,,,,,,,61003848a370015d74d6b5d2,61036ea5cf576104d41a109d,2021-07-29_23h16.14.759,Simcolourproject_2stim_asymm_v5,2020.2.10,MacIntel,60,61025ae37ef11b136ea224fe,,,,,,,,,1915,63.578125,34.74609375,1,0,0,response1disk,,6,0.3671875,3.23828125,1,0,0,rectangle,0.3671875,3.23828125,1,0,0,0.3671875,3.23828125,1,0,0,0,46,46,77,1,,,,,,,,
,,,,,,,,,,,,,FF,,,,,,,,0.5506,,,,,,,,,,,,,,,,,,,,,,61003848a370015d74d6b5d2,61036ea5cf576104d41a109d,2021-07-29_23h16.14.759,Simcolourproject_2stim_asymm_v5,2020.2.10,MacIntel,60,61025ae37ef11b136ea224fe,,,,,,,,,2823,38.06640625,79.07421875,1,0,0,response1disk,,7,3.609375,-3.6875,1,0,0,rectangle,38.75,67.203125,1,0,0,5.48046875,15.19140625,1,0,0,0,47,47,42,1,,response1disk_3,TRUE,7,7,"[208,244,102,127,171,113,110,15,69,42,119,289,70,4,48,62,82,261,224,195]",1.7829,rectangle
,,,,,,,,,,,,,FF,,,,,,,,0.7993,,,,,,,,,,,,,,,,,,,,,,61003848a370015d74d6b5d2,61036ea5cf576104d41a109d,2021-07-29_23h16.14.759,Simcolourproject_2stim_asymm_v5,2020.2.10,MacIntel,60,61025ae37ef11b136ea224fe,,,,,,,,,1535,-59.41015625,-16.63671875,1,0,0,response5disk,,2,0.03515625,2.62890625,1,0,0,rectangle,0.03515625,2.62890625,1,0,0,0.03515625,2.62890625,1,0,0,0,48,48,13,1,,,,,,,,
,,,,,,,,,,,,,FF,,,,,,,,1.1005,,,,,,,,,,,,,,,,,,,,,,61003848a370015d74d6b5d2,61036ea5cf576104d41a109d,2021-07-29_23h16.14.759,Simcolourproject_2stim_asymm_v5,2020.2.10,MacIntel,60,61025ae37ef11b136ea224fe,,,,,,,,,3034,42.12109375,51.3515625,1,0,0,response1disk,,7,14.421875,-0.07421875,1,0,0,rectangle,14.421875,-0.07421875,1,0,0,14.421875,-0.07421875,1,0,0,0,49,49,56,1,,,,,,,,
,,,,,,,,,,,,,FF,,,,,,,,0.667,,,,,,,,,,,,,,,,,,,,,,61003848a370015d74d6b5d2,61036ea5cf576104d41a109d,2021-07-29_23h16.14.759,Simcolourproject_2stim_asymm_v5,2020.2.10,MacIntel,60,61025ae37ef11b136ea224fe,,,,,,,,,969,-76.890625,20.8125,1,0,0,response7disk,,1,12.95703125,10,1,0,0,rectangle,12.95703125,10,1,0,0,12.95703125,10,1,0,0,0,50,50,41,1,,,,,,,,
,,,,,,,,,,,,,FF,,,,,,,,0.6156,,,,,,,,,,,,,,,,,,,,,,61003848a370015d74d6b5d2,61036ea5cf576104d41a109d,2021-07-29_23h16.14.759,Simcolourproject_2stim_asymm_v5,2020.2.10,MacIntel,60,61025ae37ef11b136ea224fe,,,,,,,,,4307,44.15234375,66.5625,1,0,0,response1disk,,7,22.48046875,9.40625,1,0,0,rectangle,22.48046875,9.40625,1,0,0,22.48046875,9.40625,1,0,0,0,51,51,30,1,,,,,,,,
,,,,,,,,,,,,,FF,,,,,,,,0.6501,,,,,,,,,,,,,,,,,,,,,,61003848a370015d74d6b5d2,61036ea5cf576104d41a109d,2021-07-29_23h16.14.759,Simcolourproject_2stim_asymm_v5,2020.2.10,MacIntel,60,61025ae37ef11b136ea224fe,,,,,,,,,47,28.58203125,57.01171875,1,0,0,response1disk,,7,23.24609375,1.0390625,1,0,0,rectangle,23.24609375,1.0390625,1,0,0,23.24609375,1.0390625,1,0,0,0,52,52,1,1,,,,,,,,
,,,,,,,,,,,,,FF,,,,,,,,0.467,,,,,,,,,,,,,,,,,,,,,,61003848a370015d74d6b5d2,61036ea5cf576104d41a109d,2021-07-29_23h16.14.759,Simcolourproject_2stim_asymm_v5,2020.2.10,MacIntel,60,61025ae37ef11b136ea224fe,,,,,,,,,3174,23.61328125,56.5078125,1,0,0,response1disk,,7,18.64453125,-5.97265625,1,0,0,rectangle,18.64453125,-5.97265625,1,0,0,18.64453125,-5.97265625,1,0,0,0,53,53,147,1,,,,,,,,
,,,,,,,,,,,,,FF,,,,,,,,0.5842,,,,,,,,,,,,,,,,,,,,,,61003848a370015d74d6b5d2,61036ea5cf576104d41a109d,2021-07-29_23h16.14.759,Simcolourproject_2stim_asymm_v5,2020.2.10,MacIntel,60,61025ae37ef11b136ea224fe,,,,,,,,,1794,69.22265625,40.3203125,1,0,0,response1disk,,6,15.97265625,0.390625,1,0,0,rectangle,15.97265625,0.390625,1,0,0,15.97265625,0.390625,1,0,0,0,54,54,45,1,,,,,,,,
,,,,,,,,,,,,,FF,,,,,,,,0.8501,,,,,,,,,,,,,,,,,,,,,,61003848a370015d74d6b5d2,61036ea5cf576104d41a109d,2021-07-29_23h16.14.759,Simcolourproject_2stim_asymm_v5,2020.2.10,MacIntel,60,61025ae37ef11b136ea224fe,,,,,,,,,2835,64.09375,-21.75390625,1,0,0,response3disk,,5,10.3671875,-6.3984375,1,0,0,rectangle,10.3671875,-6.3984375,1,0,0,10.3671875,-6.3984375,1,0,0,0,55,55,82,1,,,,,,,,
,,,,,,,,,,,,,FF,,,,,,,,1.1843,,,,,,,,,,,,,,,,,,,,,,61003848a370015d74d6b5d2,61036ea5cf576104d41a109d,2021-07-29_23h16.14.759,Simcolourproject_2stim_asymm_v5,2020.2.10,MacIntel,60,61025ae37ef11b136ea224fe,,,,,,,,,3879,33.69140625,-64.4296875,1,0,0,response3disk,,4,5.41015625,0.4296875,1,0,0,rectangle,5.41015625,0.4296875,1,0,0,5.41015625,0.4296875,1,0,0,0,56,56,47,1,,,,,,,,
,,,,,,,,,,,,,FF,,,,,,,,0.6339,,,,,,,,,,,,,,,,,,,,,,61003848a370015d74d6b5d2,61036ea5cf576104d41a109d,2021-07-29_23h16.14.759,Simcolourproject_2stim_asymm_v5,2020.2.10,MacIntel,60,61025ae37ef11b136ea224fe,,,,,,,,,2281,34.08203125,56.32421875,1,0,0,response1disk,,7,16.2890625,5.484375,1,0,0,rectangle,16.2890625,5.484375,1,0,0,16.2890625,5.484375,1,0,0,0,57,57,119,1,,,,,,,,
,,,,,,,,,,,,,FF,,,,,,,,0.5826,,,,,,,,,,,,,,,,,,,,,,61003848a370015d74d6b5d2,61036ea5cf576104d41a109d,2021-07-29_23h16.14.759,Simcolourproject_2stim_asymm_v5,2020.2.10,MacIntel,60,61025ae37ef11b136ea224fe,,,,,,,,,3276,20.34765625,57.1875,1,0,0,response1disk,,7,11.46875,1.71484375,1,0,0,rectangle,11.46875,1.71484375,1,0,0,11.46875,1.71484375,1,0,0,0,58,58,118,1,,,,,,,,
,,,,,,,,,,,,,FF,,,,,,,,0.7344,,,,,,,,,,,,,,,,,,,,,,61003848a370015d74d6b5d2,61036ea5cf576104d41a109d,2021-07-29_23h16.14.759,Simcolourproject_2stim_asymm_v5,2020.2.10,MacIntel,60,61025ae37ef11b136ea224fe,,,,,,,,,2062,56.94921875,35.34375,1,0,0,response1disk,,6,18.2578125,15.9296875,1,0,0,rectangle,18.2578125,15.9296875,1,0,0,18.2578125,15.9296875,1,0,0,0,59,59,63,1,,,,,,,,
,,,,,,,,,,,,,FF,,,,,,,,0.7828,,,,,,,,,,,,,,,,,,,,,,61003848a370015d74d6b5d2,61036ea5cf576104d41a109d,2021-07-29_23h16.14.759,Simcolourproject_2stim_asymm_v5,2020.2.10,MacIntel,60,61025ae37ef11b136ea224fe,,,,,,,,,915,63.859375,31.5546875,1,0,0,response1disk,,6,4.515625,-3.83203125,1,0,0,rectangle,4.515625,-3.83203125,1,0,0,4.515625,-3.83203125,1,0,0,0,60,60,34,1,,,,,,,,
,,,,,,,,,,,,,FF,,,,,,,,0.7998,,,,,,,,,,,,,,,,,,,,,,61003848a370015d74d6b5d2,61036ea5cf576104d41a109d,2021-07-29_23h16.14.759,Simcolourproject_2stim_asymm_v5,2020.2.10,MacIntel,60,61025ae37ef11b136ea224fe,,,,,,,,,2456,57.52734375,32.62109375,1,0,0,response1disk,,6,2.88671875,3.2109375,1,0,0,rectangle,-64.41796875,46.5546875,1,0,0,2.875,-5.24609375,1,0,0,0,61,61,108,1,,response7disk_3,TRUE,1,1,"[208,244,102,127,171,113,110,15,69,42,119,289,70,4,48,62,82,261,224,195]",1.2842,rectangle
,,,,,,,,,,,,,FF,,,,,,,,0.8493,,,,,,,,,,,,,,,,,,,,,,61003848a370015d74d6b5d2,61036ea5cf576104d41a109d,2021-07-29_23h16.14.759,Simcolourproject_2stim_asymm_v5,2020.2.10,MacIntel,60,61025ae37ef11b136ea224fe,,,,,,,,,3563,67.90625,48.515625,1,0,0,response1disk,,6,-16.5,-11.16796875,1,0,0,rectangle,-16.5,-11.16796875,1,0,0,-16.5,-11.16796875,1,0,0,0,62,62,151,1,,,,,,,,
,,,,,,,,,,,,,FF,,,,,,,,0.7153,,,,,,,,,,,,,,,,,,,,,,61003848a370015d74d6b5d2,61036ea5cf576104d41a109d,2021-07-29_23h16.14.759,Simcolourproject_2stim_asymm_v5,2020.2.10,MacIntel,60,61025ae37ef11b136ea224fe,,,,,,,,,3992,61.37109375,32.859375,1,0,0,response1disk,,6,1.4921875,5.3046875,1,0,0,rectangle,1.4921875,5.3046875,1,0,0,1.4921875,5.3046875,1,0,0,0,63,63,79,1,,,,,,,,
,,,,,,,,,,,,,FF,,,,,,,,1.0492,,,,,,,,,,,,,,,,,,,,,,61003848a370015d74d6b5d2,61036ea5cf576104d41a109d,2021-07-29_23h16.14.759,Simcolourproject_2stim_asymm_v5,2020.2.10,MacIntel,60,61025ae37ef11b136ea224fe,,,,,,,,,2768,56.8515625,-20.08984375,1,0,0,response3disk,,5,3.33984375,-11.4453125,1,0,0,rectangle,3.33984375,-11.4453125,1,0,0,3.33984375,-11.4453125,1,0,0,0,64,64,84,1,,,,,,,,
,,,,,,,,,,,,,FF,,,,,,,,0.7327,,,,,,,,,,,,,,,,,,,,,,61003848a370015d74d6b5d2,61036ea5cf576104d41a109d,2021-07-29_23h16.14.759,Simcolourproject_2stim_asymm_v5,2020.2.10,MacIntel,60,61025ae37ef11b136ea224fe,,,,,,,,,1140,53.875,21.04296875,1,0,0,response1disk,,6,0.1328125,-15.58203125,1,0,0,rectangle,0.1328125,-15.58203125,1,0,0,0.1328125,-15.58203125,1,0,0,0,65,65,103,1,,,,,,,,
,,,,,,,,,,,,,FF,,,,,,,,0.9663,,,,,,,,,,,,,,,,,,,,,,61003848a370015d74d6b5d2,61036ea5cf576104d41a109d,2021-07-29_23h16.14.759,Simcolourproject_2stim_asymm_v5,2020.2.10,MacIntel,60,61025ae37ef11b136ea224fe,,,,,,,,,465,72.5546875,-25.2578125,1,0,0,response3disk,,5,17.25,-3.765625,1,0,0,rectangle,17.25,-3.765625,1,0,0,17.25,-3.765625,1,0,0,0,66,66,137,1,,,,,,,,
,,,,,,,,,,,,,FF,,,,,,,,1.4168,,,,,,,,,,,,,,,,,,,,,,61003848a370015d74d6b5d2,61036ea5cf576104d41a109d,2021-07-29_23h16.14.759,Simcolourproject_2stim_asymm_v5,2020.2.10,MacIntel,60,61025ae37ef11b136ea224fe,,,,,,,,,4314,36.01171875,57.2578125,1,0,0,response1disk,,7,14.3046875,-8.640625,1,0,0,rectangle,14.3046875,-8.640625,1,0,0,14.3046875,-8.640625,1,0,0,0,67,67,32,1,,,,,,,,
,,,,,,,,,,,,,FF,,,,,,,,1.3664,,,,,,,,,,,,,,,,,,,,,,61003848a370015d74d6b5d2,61036ea5cf576104d41a109d,2021-07-29_23h16.14.759,Simcolourproject_2stim_asymm_v5,2020.2.10,MacIntel,60,61025ae37ef11b136ea224fe,,,,,,,,,2188,59.1796875,15.15234375,1,0,0,response1disk,,6,-13.4140625,-6.8828125,1,0,0,rectangle,-62.3828125,30.50390625,1,0,0,-2.15234375,6.73046875,1,0,0,0,68,68,88,1,,response7disk_3,TRUE,1,1,"[208,244,102,127,171,113,110,15,69,42,119,289,70,4,48,62,82,261,224,195]",1.0657,rectangle
,,,,,,,,,,,,,FF,,,,,,,,0.9166,,,,,,,,,,,,,,,,,,,,,,61003848a370015d74d6b5d2,61036ea5cf576104d41a109d,2021-07-29_23h16.14.759,Simcolourproject_2stim_asymm_v5,2020.2.10,MacIntel,60,61025ae37ef11b136ea224fe,,,,,,,,,3805,-42.42578125,-58.19140625,1,0,0,response5disk,,3,-4.4453125,-0.77734375,1,0,0,rectangle,82.75390625,-35.890625,1,0,0,16.015625,-8.85546875,1,0,0,0,69,69,67,1,,response3disk_3,TRUE,5,5,"[208,244,102,127,171,113,110,15,69,42,119,289,70,4,48,62,82,261,224,195]",1.5662,rectangle
,,,,,,,,,,,,,FF,,,,,,,,0.6495,,,,,,,,,,,,,,,,,,,,,,61003848a370015d74d6b5d2,61036ea5cf576104d41a109d,2021-07-29_23h16.14.759,Simcolourproject_2stim_asymm_v5,2020.2.10,MacIntel,60,61025ae37ef11b136ea224fe,,,,,,,,,1619,82.0546875,36.28125,1,0,0,response1disk,,6,27.1953125,6.19921875,1,0,0,rectangle,27.1953125,6.19921875,1,0,0,27.1953125,6.19921875,1,0,0,0,70,70,21,1,,,,,,,,
,,,,,,,,,,,,,FF,,,,,,,,0.5158,,,,,,,,,,,,,,,,,,,,,,61003848a370015d74d6b5d2,61036ea5cf576104d41a109d,2021-07-29_23h16.14.759,Simcolourproject_2stim_asymm_v5,2020.2.10,MacIntel,60,61025ae37ef11b136ea224fe,,,,,,,,,2086,80.328125,-45.62890625,1,0,0,response3disk,,5,24.9453125,-3.1953125,1,0,0,rectangle,24.9453125,-3.1953125,1,0,0,24.9453125,-3.1953125,1,0,0,0,71,71,19,1,,,,,,,,
,,,,,,,,,,,,,FF,,,,,,,,0.6838,,,,,,,,,,,,,,,,,,,,,,61003848a370015d74d6b5d2,61036ea5cf576104d41a109d,2021-07-29_23h16.14.759,Simcolourproject_2stim_asymm_v5,2020.2.10,MacIntel,60,61025ae37ef11b136ea224fe,,,,,,,,,2332,71.44921875,42.890625,1,0,0,response1disk,,6,21.23046875,3.8125,1,0,0,rectangle,21.23046875,3.8125,1,0,0,21.23046875,3.8125,1,0,0,0,72,72,29,1,,,,,,,,
,,,,,,,,,,,,,FF,,,,,,,,0.6669,,,,,,,,,,,,,,,,,,,,,,61003848a370015d74d6b5d2,61036ea5cf576104d41a109d,2021-07-29_23h16.14.759,Simcolourproject_2stim_asymm_v5,2020.2.10,MacIntel,60,61025ae37ef11b136ea224fe,,,,,,,,,1407,61.90625,35.74609375,1,0,0,response1disk,,6,18.28515625,12.54296875,1,0,0,rectangle,18.28515625,12.54296875,1,0,0,18.28515625,12.54296875,1,0,0,0,73,73,140,1,,,,,,,,
,,,,,,,,,,,,,FF,,,,,,,,0.8499,,,,,,,,,,,,,,,,,,,,,,61003848a370015d74d6b5d2,61036ea5cf576104d41a109d,2021-07-29_23h16.14.759,Simcolourproject_2stim_asymm_v5,2020.2.10,MacIntel,60,61025ae37ef11b136ea224fe,,,,,,,,,3064,73.5859375,35.359375,1,0,0,response1disk,,6,21.921875,15.2890625,1,0,0,rectangle,21.921875,15.2890625,1,0,0,21.921875,15.2890625,1,0,0,0,74,74,10,1,,,,,,,,
,,,,,,,,,,,,,FF,,,,,,,,0.5659,,,,,,,,,,,,,,,,,,,,,,61003848a370015d74d6b5d2,61036ea5cf576104d41a109d,2021-07-29_23h16.14.759,Simcolourproject_2stim_asymm_v5,2020.2.10,MacIntel,60,61025ae37ef11b136ea224fe,,,,,,,,,846,39.28125,76.3359375,1,0,0,response1disk,,7,21.71875,4.30859375,1,0,0,rectangle,21.71875,4.30859375,1,0,0,21.71875,4.30859375,1,0,0,0,75,75,89,1,,,,,,,,
,,,,,,,,,,,,,FF,,,,,,,,0.7317,,,,,,,,,,,,,,,,,,,,,,61003848a370015d74d6b5d2,61036ea5cf576104d41a109d,2021-07-29_23h16.14.759,Simcolourproject_2stim_asymm_v5,2020.2.10,MacIntel,60,61025ae37ef11b136ea224fe,,,,,,,,,3132,32.609375,68.80859375,1,0,0,response1disk,,7,22.34375,8.59765625,1,0,0,rectangle,22.34375,8.59765625,1,0,0,22.34375,8.59765625,1,0,0,0,76,76,123,1,,,,,,,,
,,,,,,,,,,,,,FF,,,,,,,,0.684,,,,,,,,,,,,,,,,,,,,,,61003848a370015d74d6b5d2,61036ea5cf576104d41a109d,2021-07-29_23h16.14.759,Simcolourproject_2stim_asymm_v5,2020.2.10,MacIntel,60,61025ae37ef11b136ea224fe,,,,,,,,,73,26.39453125,-49.16796875,1,0,0,response3disk,,4,-3.0703125,-3.03125,1,0,0,rectangle,-3.0703125,-3.03125,1,0,0,-3.0703125,-3.03125,1,0,0,0,77,77,106,1,,,,,,,,
,,,,,,,,,,,,,FF,,,,,,,,0.8007,,,,,,,,,,,,,,,,,,,,,,61003848a370015d74d6b5d2,61036ea5cf576104d41a109d,2021-07-29_23h16.14.759,Simcolourproject_2stim_asymm_v5,2020.2.10,MacIntel,60,61025ae37ef11b136ea224fe,,,,,,,,,248,68.4765625,-38.59375,1,0,0,response3disk,,5,16.28125,-7.50390625,1,0,0,rectangle,16.28125,-7.50390625,1,0,0,16.28125,-7.50390625,1,0,0,0,78,78,73,1,,,,,,,,
,,,,,,,,,,,,,FF,,,,,,,,0.7673,,,,,,,,,,,,,,,,,,,,,,61003848a370015d74d6b5d2,61036ea5cf576104d41a109d,2021-07-29_23h16.14.759,Simcolourproject_2stim_asymm_v5,2020.2.10,MacIntel,60,61025ae37ef11b136ea224fe,,,,,,,,,1417,32.8671875,60.7890625,1,0,0,response1disk,,7,15.0625,-5.84765625,1,0,0,rectangle,15.0625,-5.84765625,1,0,0,15.0625,-5.84765625,1,0,0,0,79,79,113,1,,,,,,,,
,,,,,,,,,,,,,FF,,,,,,,,0.717,,,,,,,,,,,,,,,,,,,,,,61003848a370015d74d6b5d2,61036ea5cf576104d41a109d,2021-07-29_23h16.14.759,Simcolourproject_2stim_asymm_v5,2020.2.10,MacIntel,60,61025ae37ef11b136ea224fe,,,,,,,,,98,76.4296875,-51.3046875,1,0,0,response3disk,,5,8.6484375,-11.6328125,1,0,0,rectangle,8.6484375,-11.6328125,1,0,0,8.6484375,-11.6328125,1,0,0,0,80,80,136,1,,,,,,,,
,,,,,,,,,,,,,FF,,,,,,,,0.5671,,,,,,,,,,,,,,,,,,,,,,61003848a370015d74d6b5d2,61036ea5cf576104d41a109d,2021-07-29_23h16.14.759,Simcolourproject_2stim_asymm_v5,2020.2.10,MacIntel,60,61025ae37ef11b136ea224fe,,,,,,,,,3017,22.0703125,60.828125,1,0,0,response1disk,,7,-3.3203125,-11.1484375,1,0,0,rectangle,29.84375,-60.80078125,1,0,0,14.84375,-2.55859375,1,0,0,0,81,81,50,1,,response3disk_3,TRUE,4,4,"[208,244,102,127,171,113,110,15,69,42,119,289,70,4,48,62,82,261,224,195]",1.166,rectangle
,,,,,,,,,,,,,FF,,,,,,,,0.9988,,,,,,,,,,,,,,,,,,,,,,61003848a370015d74d6b5d2,61036ea5cf576104d41a109d,2021-07-29_23h16.14.759,Simcolourproject_2stim_asymm_v5,2020.2.10,MacIntel,60,61025ae37ef11b136ea224fe,,,,,,,,,1245,69.5703125,37.46875,1,0,0,response1disk,,6,13.99609375,7.81640625,1,0,0,rectangle,13.99609375,7.81640625,1,0,0,13.99609375,7.81640625,1,0,0,0,82,82,17,1,,,,,,,,
,,,,,,,,,,,,,FF,,,,,,,,0.5336,,,,,,,,,,,,,,,,,,,,,,61003848a370015d74d6b5d2,61036ea5cf576104d41a109d,2021-07-29_23h16.14.759,Simcolourproject_2stim_asymm_v5,2020.2.10,MacIntel,60,61025ae37ef11b136ea224fe,,,,,,,,,3030,29.27734375,66.66015625,1,0,0,response1disk,,7,21.1171875,-6.80859375,1,0,0,rectangle,21.1171875,-6.80859375,1,0,0,21.1171875,-6.80859375,1,0,0,0,83,83,2,1,,,,,,,,
,,,,,,,,,,,,,FF,,,,,,,,0.7503,,,,,,,,,,,,,,,,,,,,,,61003848a370015d74d6b5d2,61036ea5cf576104d41a109d,2021-07-29_23h16.14.759,Simcolourproject_2stim_asymm_v5,2020.2.10,MacIntel,60,61025ae37ef11b136ea224fe,,,,,,,,,791,42.1953125,-67.69921875,1,0,0,response3disk,,4,22.9296875,-1.96875,1,0,0,rectangle,22.9296875,-1.96875,1,0,0,22.9296875,-1.96875,1,0,0,0,84,84,134,1,,,,,,,,
,,,,,,,,,,,,,FF,,,,,,,,0.7657,,,,,,,,,,,,,,,,,,,,,,61003848a370015d74d6b5d2,61036ea5cf576104d41a109d,2021-07-29_23h16.14.759,Simcolourproject_2stim_asymm_v5,2020.2.10,MacIntel,60,61025ae37ef11b136ea224fe,,,,,,,,,1639,59.5234375,26.1328125,1,0,0,response1disk,,6,14.96875,12.5625,1,0,0,rectangle,14.96875,12.5625,1,0,0,14.96875,12.5625,1,0,0,0,85,85,55,1,,,,,,,,
,,,,,,,,,,,,,FF,,,,,,,,0.6672,,,,,,,,,,,,,,,,,,,,,,61003848a370015d74d6b5d2,61036ea5cf576104d41a109d,2021-07-29_23h16.14.759,Simcolourproject_2stim_asymm_v5,2020.2.10,MacIntel,60,61025ae37ef11b136ea224fe,,,,,,,,,3363,24.24609375,69.91015625,1,0,0,response1disk,,7,18.3515625,4.6171875,1,0,0,rectangle,18.3515625,4.6171875,1,0,0,18.3515625,4.6171875,1,0,0,0,86,86,100,1,,,,,,,,
,,,,,,,,,,,,,FF,,,,,,,,0.716,,,,,,,,,,,,,,,,,,,,,,61003848a370015d74d6b5d2,61036ea5cf576104d41a109d,2021-07-29_23h16.14.759,Simcolourproject_2stim_asymm_v5,2020.2.10,MacIntel,60,61025ae37ef11b136ea224fe,,,,,,,,,300,53.62890625,32.1015625,1,0,0,response1disk,,6,24.44140625,11.16015625,1,0,0,rectangle,24.44140625,11.16015625,1,0,0,24.44140625,11.16015625,1,0,0,0,87,87,112,1,,,,,,,,
,,,,,,,,,,,,,FF,,,,,,,,1.1321,,,,,,,,,,,,,,,,,,,,,,61003848a370015d74d6b5d2,61036ea5cf576104d41a109d,2021-07-29_23h16.14.759,Simcolourproject_2stim_asymm_v5,2020.2.10,MacIntel,60,61025ae37ef11b136ea224fe,,,,,,,,,692,18.734375,49.48828125,1,0,0,response1disk,,7,8.1328125,5.8046875,1,0,0,rectangle,8.1328125,5.8046875,1,0,0,8.1328125,5.8046875,1,0,0,0,88,88,68,1,,,,,,,,
,,,,,,,,,,,,,FF,,,,,,,,0.8991,,,,,,,,,,,,,,,,,,,,,,61003848a370015d74d6b5d2,61036ea5cf576104d41a109d,2021-07-29_23h16.14.759,Simcolourproject_2stim_asymm_v5,2020.2.10,MacIntel,60,61025ae37ef11b136ea224fe,,,,,,,,,1258,33.0234375,63.2265625,1,0,0,response1disk,,7,10.36328125,-7.6953125,1,0,0,rectangle,10.36328125,-7.6953125,1,0,0,10.36328125,-7.6953125,1,0,0,0,89,89,122,1,,,,,,,,
,,,,,,,,,,,,,FF,,,,,,,,0.5989,,,,,,,,,,,,,,,,,,,,,,61003848a370015d74d6b5d2,61036ea5cf576104d41a109d,2021-07-29_23h16.14.759,Simcolourproject_2stim_asymm_v5,2020.2.10,MacIntel,60,61025ae37ef11b136ea224fe,,,,,,,,,2080,33.53515625,61.671875,1,0,0,response1disk,,7,20.80078125,0.80859375,1,0,0,rectangle,20.80078125,0.80859375,1,0,0,20.80078125,0.80859375,1,0,0,0,90,90,139,1,,,,,,,,
,,,,,,,,,,,,,FF,,,,,,,,0.7,,,,,,,,,,,,,,,,,,,,,,61003848a370015d74d6b5d2,61036ea5cf576104d41a109d,2021-07-29_23h16.14.759,Simcolourproject_2stim_asymm_v5,2020.2.10,MacIntel,60,61025ae37ef11b136ea224fe,,,,,,,,,1810,52.625,29.6796875,1,0,0,response1disk,,6,23.41796875,13.47265625,1,0,0,rectangle,23.41796875,13.47265625,1,0,0,23.41796875,13.47265625,1,0,0,0,91,91,120,1,,,,,,,,
,,,,,,,,,,,,,FF,,,,,,,,0.8165,,,,,,,,,,,,,,,,,,,,,,61003848a370015d74d6b5d2,61036ea5cf576104d41a109d,2021-07-29_23h16.14.759,Simcolourproject_2stim_asymm_v5,2020.2.10,MacIntel,60,61025ae37ef11b136ea224fe,,,,,,,,,3841,44.5703125,-65.4375,1,0,0,response3disk,,4,7.74609375,-1.7734375,1,0,0,rectangle,7.74609375,-1.7734375,1,0,0,7.74609375,-1.7734375,1,0,0,0,92,92,155,1,,,,,,,,
,,,,,,,,,,,,,FF,,,,,,,,0.8167,,,,,,,,,,,,,,,,,,,,,,61003848a370015d74d6b5d2,61036ea5cf576104d41a109d,2021-07-29_23h16.14.759,Simcolourproject_2stim_asymm_v5,2020.2.10,MacIntel,60,61025ae37ef11b136ea224fe,,,,,,,,,289,25.44140625,-66.6796875,1,0,0,response3disk,,4,11.2109375,6.53125,1,0,0,rectangle,11.2109375,6.53125,1,0,0,11.2109375,6.53125,1,0,0,0,93,93,51,1,,,,,,,,
,,,,,,,,,,,,,FF,,,,,,,,0.8172,,,,,,,,,,,,,,,,,,,,,,61003848a370015d74d6b5d2,61036ea5cf576104d41a109d,2021-07-29_23h16.14.759,Simcolourproject_2stim_asymm_v5,2020.2.10,MacIntel,60,61025ae37ef11b136ea224fe,,,,,,,,,65,63.0859375,-19.375,1,0,0,response3disk,,5,-6.56640625,-9.5546875,1,0,0,rectangle,-6.56640625,-9.5546875,1,0,0,-6.56640625,-9.5546875,1,0,0,0,94,94,39,1,,,,,,,,
,,,,,,,,,,,,,FF,,,,,,,,0.6171,,,,,,,,,,,,,,,,,,,,,,61003848a370015d74d6b5d2,61036ea5cf576104d41a109d,2021-07-29_23h16.14.759,Simcolourproject_2stim_asymm_v5,2020.2.10,MacIntel,60,61025ae37ef11b136ea224fe,,,,,,,,,3874,20.11328125,53.59375,1,0,0,response1disk,,7,2.34375,2.60546875,1,0,0,rectangle,2.34375,2.60546875,1,0,0,2.34375,2.60546875,1,0,0,0,95,95,52,1,,,,,,,,
,,,,,,,,,,,,,FF,,,,,,,,0.7834,,,,,,,,,,,,,,,,,,,,,,61003848a370015d74d6b5d2,61036ea5cf576104d41a109d,2021-07-29_23h16.14.759,Simcolourproject_2stim_asymm_v5,2020.2.10,MacIntel,60,61025ae37ef11b136ea224fe,,,,,,,,,29,30.0703125,48.08984375,1,0,0,response1disk,,7,24.99609375,-16.13671875,1,0,0,rectangle,24.99609375,-16.13671875,1,0,0,24.99609375,-16.13671875,1,0,0,0,96,96,0,1,,,,,,,,
,,,,,,,,,,,,,FF,,,,,,,,0.5837,,,,,,,,,,,,,,,,,,,,,,61003848a370015d74d6b5d2,61036ea5cf576104d41a109d,2021-07-29_23h16.14.759,Simcolourproject_2stim_asymm_v5,2020.2.10,MacIntel,60,61025ae37ef11b136ea224fe,,,,,,,,,135,29.796875,51.78125,1,0,0,response1disk,,7,19.9765625,-9.921875,1,0,0,rectangle,19.9765625,-9.921875,1,0,0,19.9765625,-9.921875,1,0,0,0,97,97,48,1,,,,,,,,
,,,,,,,,,,,,,FF,,,,,,,,0.4342,,,,,,,,,,,,,,,,,,,,,,61003848a370015d74d6b5d2,61036ea5cf576104d41a109d,2021-07-29_23h16.14.759,Simcolourproject_2stim_asymm_v5,2020.2.10,MacIntel,60,61025ae37ef11b136ea224fe,,,,,,,,,3985,31.765625,63.22265625,1,0,0,response1disk,,7,24.375,-9.453125,1,0,0,rectangle,24.375,-9.453125,1,0,0,24.375,-9.453125,1,0,0,0,98,98,86,1,,,,,,,,
,,,,,,,,,,,,,FF,,,,,,,,0.5327,,,,,,,,,,,,,,,,,,,,,,61003848a370015d74d6b5d2,61036ea5cf576104d41a109d,2021-07-29_23h16.14.759,Simcolourproject_2stim_asymm_v5,2020.2.10,MacIntel,60,61025ae37ef11b136ea224fe,,,,,,,,,3644,63.62890625,27.234375,1,0,0,response1disk,,6,22.15234375,4.25,1,0,0,rectangle,22.15234375,4.25,1,0,0,22.15234375,4.25,1,0,0,0,99,99,60,1,,,,,,,,
,,,,,,,,,,,,,FF,,,,,,,,0.5832,,,,,,,,,,,,,,,,,,,,,,61003848a370015d74d6b5d2,61036ea5cf576104d41a109d,2021-07-29_23h16.14.759,Simcolourproject_2stim_asymm_v5,2020.2.10,MacIntel,60,61025ae37ef11b136ea224fe,,,,,,,,,2232,58.7578125,-36.08203125,1,0,0,response3disk,,5,18.19140625,-7.515625,1,0,0,rectangle,18.19140625,-7.515625,1,0,0,18.19140625,-7.515625,1,0,0,0,100,100,148,1,,,,,,,,
,,,,,,,,,,,,,FF,,,,,,,,0.6322,,,,,,,,,,,,,,,,,,,,,,61003848a370015d74d6b5d2,61036ea5cf576104d41a109d,2021-07-29_23h16.14.759,Simcolourproject_2stim_asymm_v5,2020.2.10,MacIntel,60,61025ae37ef11b136ea224fe,,,,,,,,,1649,27.27734375,57.41015625,1,0,0,response1disk,,7,7.59375,-7.75390625,1,0,0,rectangle,26.4453125,-67.26953125,1,0,0,7.125,-4.46484375,1,0,0,0,101,101,132,1,,response3disk_3,TRUE,4,4,"[208,244,102,127,171,113,110,15,69,42,119,289,70,4,48,62,82,261,224,195]",1.2494,rectangle
,,,,,,,,,,,,,FF,,,,,,,,0.6826,,,,,,,,,,,,,,,,,,,,,,61003848a370015d74d6b5d2,61036ea5cf576104d41a109d,2021-07-29_23h16.14.759,Simcolourproject_2stim_asymm_v5,2020.2.10,MacIntel,60,61025ae37ef11b136ea224fe,,,,,,,,,875,29.09765625,-77,1,0,0,response3disk,,4,5.4453125,6.7578125,1,0,0,rectangle,5.4453125,6.7578125,1,0,0,5.4453125,6.7578125,1,0,0,0,102,102,72,1,,,,,,,,
,,,,,,,,,,,,,FF,,,,,,,,0.7838,,,,,,,,,,,,,,,,,,,,,,61003848a370015d74d6b5d2,61036ea5cf576104d41a109d,2021-07-29_23h16.14.759,Simcolourproject_2stim_asymm_v5,2020.2.10,MacIntel,60,61025ae37ef11b136ea224fe,,,,,,,,,1887,-28.7578125,-43.5,1,0,0,response5disk,,3,-10.28125,8.3203125,1,0,0,rectangle,-10.28125,8.3203125,1,0,0,-10.28125,8.3203125,1,0,0,0,103,103,144,1,,,,,,,,
,,,,,,,,,,,,,FF,,,,,,,,0.7499,,,,,,,,,,,,,,,,,,,,,,61003848a370015d74d6b5d2,61036ea5cf576104d41a109d,2021-07-29_23h16.14.759,Simcolourproject_2stim_asymm_v5,2020.2.10,MacIntel,60,61025ae37ef11b136ea224fe,,,,,,,,,2157,85.703125,45.15234375,1,0,0,response1disk,,6,9.58203125,12.8984375,1,0,0,rectangle,9.58203125,12.8984375,1,0,0,9.58203125,12.8984375,1,0,0,0,104,104,142,1,,,,,,,,
,,,,,,,,,,,,,FF,,,,,,,,3.1162,,,,,,,,,,,,,,,,,,,,,,61003848a370015d74d6b5d2,61036ea5cf576104d41a109d,2021-07-29_23h16.14.759,Simcolourproject_2stim_asymm_v5,2020.2.10,MacIntel,60,61025ae37ef11b136ea224fe,,,,,,,,,836,44.35546875,-66.52734375,1,0,0,response3disk,,4,8.63671875,-2.95703125,1,0,0,rectangle,8.63671875,-2.95703125,1,0,0,8.63671875,-2.95703125,1,0,0,0,105,105,125,1,,,,,,,,
,,,,,,,,,,,,,FF,,,,,,,,1.7339,,,,,,,,,,,,,,,,,,,,,,61003848a370015d74d6b5d2,61036ea5cf576104d41a109d,2021-07-29_23h16.14.759,Simcolourproject_2stim_asymm_v5,2020.2.10,MacIntel,60,61025ae37ef11b136ea224fe,,,,,,,,,3801,27.44921875,58.65234375,1,0,0,response1disk,,7,19.17578125,7.078125,1,0,0,rectangle,19.17578125,7.078125,1,0,0,19.17578125,7.078125,1,0,0,0,106,106,25,1,,,,,,,,
,,,,,,,,,,,,,FF,,,,,,,,0.867,,,,,,,,,,,,,,,,,,,,,,61003848a370015d74d6b5d2,61036ea5cf576104d41a109d,2021-07-29_23h16.14.759,Simcolourproject_2stim_asymm_v5,2020.2.10,MacIntel,60,61025ae37ef11b136ea224fe,,,,,,,,,3083,30.6328125,60.546875,1,0,0,response1disk,,7,19.21875,-7.53125,1,0,0,rectangle,19.21875,-7.53125,1,0,0,19.21875,-7.53125,1,0,0,0,107,107,85,1,,,,,,,,
,,,,,,,,,,,,,FF,,,,,,,,0.7155,,,,,,,,,,,,,,,,,,,,,,61003848a370015d74d6b5d2,61036ea5cf576104d41a109d,2021-07-29_23h16.14.759,Simcolourproject_2stim_asymm_v5,2020.2.10,MacIntel,60,61025ae37ef11b136ea224fe,,,,,,,,,738,66.48828125,27.30078125,1,0,0,response1disk,,6,13.30078125,-3,1,0,0,rectangle,13.30078125,-3,1,0,0,13.30078125,-3,1,0,0,0,108,108,49,1,,,,,,,,
,,,,,,,,,,,,,FF,,,,,,,,0.6015,,,,,,,,,,,,,,,,,,,,,,61003848a370015d74d6b5d2,61036ea5cf576104d41a109d,2021-07-29_23h16.14.759,Simcolourproject_2stim_asymm_v5,2020.2.10,MacIntel,60,61025ae37ef11b136ea224fe,,,,,,,,,2908,55.06640625,-35.2109375,1,0,0,response3disk,,5,6.0703125,-4.859375,1,0,0,rectangle,-42.6015625,61.59765625,1,0,0,-21.515625,12.76953125,1,0,0,0,109,109,62,1,,response7disk_3,TRUE,0,0,"[208,244,102,127,171,113,110,15,69,42,119,289,70,4,48,62,82,261,224,195]",1.4818,rectangle
,,,,,,,,,,,,,FF,,,,,,,,0.883,,,,,,,,,,,,,,,,,,,,,,61003848a370015d74d6b5d2,61036ea5cf576104d41a109d,2021-07-29_23h16.14.759,Simcolourproject_2stim_asymm_v5,2020.2.10,MacIntel,60,61025ae37ef11b136ea224fe,,,,,,,,,1178,42.296875,76.9921875,1,0,0,response1disk,,7,-0.25390625,4.796875,1,0,0,rectangle,-0.25390625,4.796875,1,0,0,-0.25390625,4.796875,1,0,0,0,110,110,78,1,,,,,,,,
,,,,,,,,,,,,,FF,,,,,,,,0.5678,,,,,,,,,,,,,,,,,,,,,,61003848a370015d74d6b5d2,61036ea5cf576104d41a109d,2021-07-29_23h16.14.759,Simcolourproject_2stim_asymm_v5,2020.2.10,MacIntel,60,61025ae37ef11b136ea224fe,,,,,,,,,415,55.79296875,31.44921875,1,0,0,response1disk,,6,18.2109375,6.37109375,1,0,0,rectangle,18.2109375,6.37109375,1,0,0,18.2109375,6.37109375,1,0,0,0,111,111,127,1,,,,,,,,
,,,,,,,,,,,,,FF,,,,,,,,0.9012,,,,,,,,,,,,,,,,,,,,,,61003848a370015d74d6b5d2,61036ea5cf576104d41a109d,2021-07-29_23h16.14.759,Simcolourproject_2stim_asymm_v5,2020.2.10,MacIntel,60,61025ae37ef11b136ea224fe,,,,,,,,,83,73.28515625,-37.57421875,1,0,0,response3disk,,5,23.19140625,-12.9609375,1,0,0,rectangle,15.8984375,68.67578125,1,0,0,-2.23046875,-3.56640625,1,0,0,0,112,112,157,1,,response1disk_3,TRUE,7,7,"[208,244,102,127,171,113,110,15,69,42,119,289,70,4,48,62,82,261,224,195]",1.1177,rectangle
,,,,,,,,,,,,,FF,,,,,,,,0.8504,,,,,,,,,,,,,,,,,,,,,,61003848a370015d74d6b5d2,61036ea5cf576104d41a109d,2021-07-29_23h16.14.759,Simcolourproject_2stim_asymm_v5,2020.2.10,MacIntel,60,61025ae37ef11b136ea224fe,,,,,,,,,942,40.84375,76.328125,1,0,0,response1disk,,7,10.16015625,11.98828125,1,0,0,rectangle,10.16015625,11.98828125,1,0,0,10.16015625,11.98828125,1,0,0,0,113,113,153,1,,,,,,,,
,,,,,,,,,,,,,FF,,,,,,,,1.0511,,,,,,,,,,,,,,,,,,,,,,61003848a370015d74d6b5d2,61036ea5cf576104d41a109d,2021-07-29_23h16.14.759,Simcolourproject_2stim_asymm_v5,2020.2.10,MacIntel,60,61025ae37ef11b136ea224fe,,,,,,,,,3675,-66.14453125,30.98828125,1,0,0,response7disk,,1,7.63671875,-2.61328125,1,0,0,rectangle,7.63671875,-2.61328125,1,0,0,7.63671875,-2.61328125,1,0,0,0,114,114,16,1,,,,,,,,
,,,,,,,,,,,,,FF,,,,,,,,0.7498,,,,,,,,,,,,,,,,,,,,,,61003848a370015d74d6b5d2,61036ea5cf576104d41a109d,2021-07-29_23h16.14.759,Simcolourproject_2stim_asymm_v5,2020.2.10,MacIntel,60,61025ae37ef11b136ea224fe,,,,,,,,,2641,30.296875,61.328125,1,0,0,response1disk,,7,-0.66015625,-8.90625,1,0,0,rectangle,-0.66015625,-8.90625,1,0,0,-0.66015625,-8.90625,1,0,0,0,115,115,91,1,,,,,,,,
,,,,,,,,,,,,,FF,,,,,,,,1.4666,,,,,,,,,,,,,,,,,,,,,,61003848a370015d74d6b5d2,61036ea5cf576104d41a109d,2021-07-29_23h16.14.759,Simcolourproject_2stim_asymm_v5,2020.2.10,MacIntel,60,61025ae37ef11b136ea224fe,,,,,,,,,720,-30.66015625,-65.00390625,1,0,0,response5disk,,3,-12.26953125,-6.3515625,1,0,0,rectangle,-12.26953125,-6.3515625,1,0,0,-12.26953125,-6.3515625,1,0,0,0,116,116,3,1,,,,,,,,
,,,,,,,,,,,,,FF,,,,,,,,0.7337,,,,,,,,,,,,,,,,,,,,,,61003848a370015d74d6b5d2,61036ea5cf576104d41a109d,2021-07-29_23h16.14.759,Simcolourproject_2stim_asymm_v5,2020.2.10,MacIntel,60,61025ae37ef11b136ea224fe,,,,,,,,,3046,-40.10546875,-59.26171875,1,0,0,response5disk,,3,-4.1484375,12.93359375,1,0,0,rectangle,-4.1484375,12.93359375,1,0,0,-4.1484375,12.93359375,1,0,0,0,117,117,76,1,,,,,,,,
,,,,,,,,,,,,,FF,,,,,,,,0.9337,,,,,,,,,,,,,,,,,,,,,,61003848a370015d74d6b5d2,61036ea5cf576104d41a109d,2021-07-29_23h16.14.759,Simcolourproject_2stim_asymm_v5,2020.2.10,MacIntel,60,61025ae37ef11b136ea224fe,,,,,,,,,2634,33.99609375,53.23046875,1,0,0,response1disk,,7,10.921875,-7.27734375,1,0,0,rectangle,-65.9375,46.33203125,1,0,0,-0.875,-6.84765625,1,0,0,0,118,118,129,1,,response7disk_3,TRUE,1,1,"[208,244,102,127,171,113,110,15,69,42,119,289,70,4,48,62,82,261,224,195]",1.3345,rectangle
,,,,,,,,,,,,,FF,,,,,,,,0.7671,,,,,,,,,,,,,,,,,,,,,,61003848a370015d74d6b5d2,61036ea5cf576104d41a109d,2021-07-29_23h16.14.759,Simcolourproject_2stim_asymm_v5,2020.2.10,MacIntel,60,61025ae37ef11b136ea224fe,,,,,,,,,3490,17.6796875,63.4296875,1,0,0,response1disk,,7,-3.8984375,-10.34765625,1,0,0,rectangle,-3.8984375,-10.34765625,1,0,0,-3.8984375,-10.34765625,1,0,0,0,119,119,94,1,,,,,,,,
,,,,,,,,,,,,,FF,,,,,,,,0.5845,,,,,,,,,,,,,,,,,,,,,,61003848a370015d74d6b5d2,61036ea5cf576104d41a109d,2021-07-29_23h16.14.759,Simcolourproject_2stim_asymm_v5,2020.2.10,MacIntel,60,61025ae37ef11b136ea224fe,,,,,,,,,1709,34.7265625,69.84765625,1,0,0,response1disk,,7,6.6953125,-6.12109375,1,0,0,rectangle,6.6953125,-6.12109375,1,0,0,6.6953125,-6.12109375,1,0,0,0,120,120,143,1,,,,,,,,
,,,,,,,,,,,,,FF,,,,,,,,0.7336,,,,,,,,,,,,,,,,,,,,,,61003848a370015d74d6b5d2,61036ea5cf576104d41a109d,2021-07-29_23h16.14.759,Simcolourproject_2stim_asymm_v5,2020.2.10,MacIntel,60,61025ae37ef11b136ea224fe,,,,,,,,,3913,-62.08984375,33.6015625,1,0,0,response7disk,,1,7.5078125,12.4296875,1,0,0,rectangle,7.5078125,12.4296875,1,0,0,7.5078125,12.4296875,1,0,0,0,121,121,115,1,,,,,,,,
,,,,,,,,,,,,,FF,,,,,,,,1.2513,,,,,,,,,,,,,,,,,,,,,,61003848a370015d74d6b5d2,61036ea5cf576104d41a109d,2021-07-29_23h16.14.759,Simcolourproject_2stim_asymm_v5,2020.2.10,MacIntel,60,61025ae37ef11b136ea224fe,,,,,,,,,4122,-55.32421875,-30.9375,1,0,0,response5disk,,2,5.31640625,3.3359375,1,0,0,rectangle,5.31640625,3.3359375,1,0,0,5.31640625,3.3359375,1,0,0,0,122,122,99,1,,,,,,,,
,,,,,,,,,,,,,FF,,,,,,,,0.6505,,,,,,,,,,,,,,,,,,,,,,61003848a370015d74d6b5d2,61036ea5cf576104d41a109d,2021-07-29_23h16.14.759,Simcolourproject_2stim_asymm_v5,2020.2.10,MacIntel,60,61025ae37ef11b136ea224fe,,,,,,,,,833,47.0546875,82.71875,1,0,0,response1disk,,7,2.45703125,6.41015625,1,0,0,rectangle,2.45703125,6.41015625,1,0,0,2.45703125,6.41015625,1,0,0,0,123,123,14,1,,,,,,,,
,,,,,,,,,,,,,FF,,,,,,,,0.4994,,,,,,,,,,,,,,,,,,,,,,61003848a370015d74d6b5d2,61036ea5cf576104d41a109d,2021-07-29_23h16.14.759,Simcolourproject_2stim_asymm_v5,2020.2.10,MacIntel,60,61025ae37ef11b136ea224fe,,,,,,,,,928,26.21484375,53.765625,1,0,0,response1disk,,7,-5.30078125,-1.98046875,1,0,0,rectangle,-5.30078125,-1.98046875,1,0,0,-5.30078125,-1.98046875,1,0,0,0,124,124,105,1,,,,,,,,
,,,,,,,,,,,,,FF,,,,,,,,0.6669,,,,,,,,,,,,,,,,,,,,,,61003848a370015d74d6b5d2,61036ea5cf576104d41a109d,2021-07-29_23h16.14.759,Simcolourproject_2stim_asymm_v5,2020.2.10,MacIntel,60,61025ae37ef11b136ea224fe,,,,,,,,,137,30.76953125,65.09375,1,0,0,response1disk,,7,0.8203125,15.46875,1,0,0,rectangle,0.8203125,15.46875,1,0,0,0.8203125,15.46875,1,0,0,0,125,125,36,1,,,,,,,,
,,,,,,,,,,,,,FF,,,,,,,,0.5163,,,,,,,,,,,,,,,,,,,,,,61003848a370015d74d6b5d2,61036ea5cf576104d41a109d,2021-07-29_23h16.14.759,Simcolourproject_2stim_asymm_v5,2020.2.10,MacIntel,60,61025ae37ef11b136ea224fe,,,,,,,,,2193,44.5390625,81.796875,1,0,0,response1disk,,7,-1.984375,11.4921875,1,0,0,rectangle,-73.51171875,-32.953125,1,0,0,-21.24609375,-14.51171875,1,0,0,0,126,126,90,1,,response5disk_3,TRUE,2,2,"[208,244,102,127,171,113,110,15,69,42,119,289,70,4,48,62,82,261,224,195]",1.7008,rectangle
,,,,,,,,,,,,,FF,,,,,,,,1.2164,,,,,,,,,,,,,,,,,,,,,,61003848a370015d74d6b5d2,61036ea5cf576104d41a109d,2021-07-29_23h16.14.759,Simcolourproject_2stim_asymm_v5,2020.2.10,MacIntel,60,61025ae37ef11b136ea224fe,,,,,,,,,3427,-58.40234375,43.69140625,1,0,0,response7disk,,1,7.04296875,7.2265625,1,0,0,rectangle,7.04296875,7.2265625,1,0,0,7.04296875,7.2265625,1,0,0,0,127,127,70,1,,,,,,,,
,,,,,,,,,,,,,FF,,,,,,,,1.8495,,,,,,,,,,,,,,,,,,,,,,61003848a370015d74d6b5d2,61036ea5cf576104d41a109d,2021-07-29_23h16.14.759,Simcolourproject_2stim_asymm_v5,2020.2.10,MacIntel,60,61025ae37ef11b136ea224fe,,,,,,,,,1481,61.9296875,-25.25390625,1,0,0,response3disk,,5,17.09765625,-13.125,1,0,0,rectangle,17.09765625,-13.125,1,0,0,17.09765625,-13.125,1,0,0,0,128,128,83,1,,,,,,,,
,,,,,,,,,,,,,FF,,,,,,,,1.0667,,,,,,,,,,,,,,,,,,,,,,61003848a370015d74d6b5d2,61036ea5cf576104d41a109d,2021-07-29_23h16.14.759,Simcolourproject_2stim_asymm_v5,2020.2.10,MacIntel,60,61025ae37ef11b136ea224fe,,,,,,,,,1318,81.7734375,-29.390625,1,0,0,response3disk,,5,23.21875,-10.23046875,1,0,0,rectangle,23.21875,-10.23046875,1,0,0,23.21875,-10.23046875,1,0,0,0,129,129,126,1,,,,,,,,
,,,,,,,,,,,,,FF,,,,,,,,0.8654,,,,,,,,,,,,,,,,,,,,,,61003848a370015d74d6b5d2,61036ea5cf576104d41a109d,2021-07-29_23h16.14.759,Simcolourproject_2stim_asymm_v5,2020.2.10,MacIntel,60,61025ae37ef11b136ea224fe,,,,,,,,,2165,25.8359375,-76.6640625,1,0,0,response3disk,,4,7.33984375,-6.3125,1,0,0,rectangle,7.33984375,-6.3125,1,0,0,7.33984375,-6.3125,1,0,0,0,130,130,133,1,,,,,,,,
,,,,,,,,,,,,,FF,,,,,,,,1.1341,,,,,,,,,,,,,,,,,,,,,,61003848a370015d74d6b5d2,61036ea5cf576104d41a109d,2021-07-29_23h16.14.759,Simcolourproject_2stim_asymm_v5,2020.2.10,MacIntel,60,61025ae37ef11b136ea224fe,,,,,,,,,2379,27.77734375,-70.8359375,1,0,0,response3disk,,4,20.1171875,-11.11328125,1,0,0,rectangle,20.1171875,-11.11328125,1,0,0,20.1171875,-11.11328125,1,0,0,0,131,131,22,1,,,,,,,,
,,,,,,,,,,,,,FF,,,,,,,,1.1514,,,,,,,,,,,,,,,,,,,,,,61003848a370015d74d6b5d2,61036ea5cf576104d41a109d,2021-07-29_23h16.14.759,Simcolourproject_2stim_asymm_v5,2020.2.10,MacIntel,60,61025ae37ef11b136ea224fe,,,,,,,,,892,-29.3125,-57.02734375,1,0,0,response5disk,,3,-2.5390625,-10.83203125,1,0,0,rectangle,-2.5390625,-10.83203125,1,0,0,-2.5390625,-10.83203125,1,0,0,0,132,132,110,1,,,,,,,,
,,,,,,,,,,,,,FF,,,,,,,,0.9,,,,,,,,,,,,,,,,,,,,,,61003848a370015d74d6b5d2,61036ea5cf576104d41a109d,2021-07-29_23h16.14.759,Simcolourproject_2stim_asymm_v5,2020.2.10,MacIntel,60,61025ae37ef11b136ea224fe,,,,,,,,,2938,58.265625,35.03125,1,0,0,response1disk,,6,13.66796875,15.13671875,1,0,0,rectangle,13.66796875,15.13671875,1,0,0,13.66796875,15.13671875,1,0,0,0,133,133,111,1,,,,,,,,
,,,,,,,,,,,,,FF,,,,,,,,0.9172,,,,,,,,,,,,,,,,,,,,,,61003848a370015d74d6b5d2,61036ea5cf576104d41a109d,2021-07-29_23h16.14.759,Simcolourproject_2stim_asymm_v5,2020.2.10,MacIntel,60,61025ae37ef11b136ea224fe,,,,,,,,,2209,59.93359375,32.48828125,1,0,0,response1disk,,6,13.35546875,6.84375,1,0,0,rectangle,13.35546875,6.84375,1,0,0,13.35546875,6.84375,1,0,0,0,134,134,71,1,,,,,,,,
,,,,,,,,,,,,,FF,,,,,,,,0.885,,,,,,,,,,,,,,,,,,,,,,61003848a370015d74d6b5d2,61036ea5cf576104d41a109d,2021-07-29_23h16.14.759,Simcolourproject_2stim_asymm_v5,2020.2.10,MacIntel,60,61025ae37ef11b136ea224fe,,,,,,,,,1205,58.375,29.8359375,1,0,0,response1disk,,6,5.625,-2.671875,1,0,0,rectangle,5.625,-2.671875,1,0,0,5.625,-2.671875,1,0,0,0,135,135,65,1,,,,,,,,
,,,,,,,,,,,,,FF,,,,,,,,0.3992,,,,,,,,,,,,,,,,,,,,,,61003848a370015d74d6b5d2,61036ea5cf576104d41a109d,2021-07-29_23h16.14.759,Simcolourproject_2stim_asymm_v5,2020.2.10,MacIntel,60,61025ae37ef11b136ea224fe,,,,,,,,,492,31.375,68.39453125,1,0,0,response1disk,,7,17.72265625,2.390625,1,0,0,rectangle,17.72265625,2.390625,1,0,0,17.72265625,2.390625,1,0,0,0,136,136,35,1,,,,,,,,
,,,,,,,,,,,,,FF,,,,,,,,1.0002,,,,,,,,,,,,,,,,,,,,,,61003848a370015d74d6b5d2,61036ea5cf576104d41a109d,2021-07-29_23h16.14.759,Simcolourproject_2stim_asymm_v5,2020.2.10,MacIntel,60,61025ae37ef11b136ea224fe,,,,,,,,,1847,57.0078125,-26.90234375,1,0,0,response3disk,,5,4.09765625,-3.375,1,0,0,rectangle,4.09765625,-3.375,1,0,0,4.09765625,-3.375,1,0,0,0,137,137,31,1,,,,,,,,
,,,,,,,,,,,,,FF,,,,,,,,0.6006,,,,,,,,,,,,,,,,,,,,,,61003848a370015d74d6b5d2,61036ea5cf576104d41a109d,2021-07-29_23h16.14.759,Simcolourproject_2stim_asymm_v5,2020.2.10,MacIntel,60,61025ae37ef11b136ea224fe,,,,,,,,,2975,27.16015625,50.3515625,1,0,0,response1disk,,7,14.2890625,5.13671875,1,0,0,rectangle,14.2890625,5.13671875,1,0,0,14.2890625,5.13671875,1,0,0,0,138,138,11,1,,,,,,,,
,,,,,,,,,,,,,FF,,,,,,,,0.7828,,,,,,,,,,,,,,,,,,,,,,61003848a370015d74d6b5d2,61036ea5cf576104d41a109d,2021-07-29_23h16.14.759,Simcolourproject_2stim_asymm_v5,2020.2.10,MacIntel,60,61025ae37ef11b136ea224fe,,,,,,,,,2490,51.80859375,-50.1640625,1,0,0,response3disk,,5,-0.24609375,-14.703125,1,0,0,rectangle,-0.24609375,-14.703125,1,0,0,-0.24609375,-14.703125,1,0,0,0,139,139,43,1,,,,,,,,
,,,,,,,,,,,,,FF,,,,,,,,0.7504,,,,,,,,,,,,,,,,,,,,,,61003848a370015d74d6b5d2,61036ea5cf576104d41a109d,2021-07-29_23h16.14.759,Simcolourproject_2stim_asymm_v5,2020.2.10,MacIntel,60,61025ae37ef11b136ea224fe,,,,,,,,,4174,19.42578125,50.26953125,1,0,0,response1disk,,7,-0.26171875,-3.9296875,1,0,0,rectangle,-0.26171875,-3.9296875,1,0,0,-0.26171875,-3.9296875,1,0,0,0,140,140,116,1,,,,,,,,
,,,,,,,,,,,,,FF,,,,,,,,0.6321,,,,,,,,,,,,,,,,,,,,,,61003848a370015d74d6b5d2,61036ea5cf576104d41a109d,2021-07-29_23h16.14.759,Simcolourproject_2stim_asymm_v5,2020.2.10,MacIntel,60,61025ae37ef11b136ea224fe,,,,,,,,,1702,33.5703125,63.0859375,1,0,0,response1disk,,7,15.48046875,3.90625,1,0,0,rectangle,15.48046875,3.90625,1,0,0,15.48046875,3.90625,1,0,0,0,141,141,61,1,,,,,,,,
,,,,,,,,,,,,,FF,,,,,,,,0.7829,,,,,,,,,,,,,,,,,,,,,,61003848a370015d74d6b5d2,61036ea5cf576104d41a109d,2021-07-29_23h16.14.759,Simcolourproject_2stim_asymm_v5,2020.2.10,MacIntel,60,61025ae37ef11b136ea224fe,,,,,,,,,4235,-53.94921875,33.38671875,1,0,0,response7disk,,1,4.98828125,12.4453125,1,0,0,rectangle,4.98828125,12.4453125,1,0,0,4.98828125,12.4453125,1,0,0,0,142,142,146,1,,,,,,,,
,,,,,,,,,,,,,FF,,,,,,,,0.8346,,,,,,,,,,,,,,,,,,,,,,61003848a370015d74d6b5d2,61036ea5cf576104d41a109d,2021-07-29_23h16.14.759,Simcolourproject_2stim_asymm_v5,2020.2.10,MacIntel,60,61025ae37ef11b136ea224fe,,,,,,,,,4293,-59.50390625,35.765625,1,0,0,response7disk,,1,-7.1875,16.2265625,1,0,0,rectangle,-7.1875,16.2265625,1,0,0,-7.1875,16.2265625,1,0,0,0,143,143,57,1,,,,,,,,
,,,,,,,,,,,,,FF,,,,,,,,1.3166,,,,,,,,,,,,,,,,,,,,,,61003848a370015d74d6b5d2,61036ea5cf576104d41a109d,2021-07-29_23h16.14.759,Simcolourproject_2stim_asymm_v5,2020.2.10,MacIntel,60,61025ae37ef11b136ea224fe,,,,,,,,,3895,68.6484375,46.47265625,1,0,0,response1disk,,6,20.375,16.90234375,1,0,0,rectangle,20.375,16.90234375,1,0,0,20.375,16.90234375,1,0,0,0,144,144,135,1,,,,,,,,
,,,,,,,,,,,,,FF,,,,,,,,0.7664,,,,,,,,,,,,,,,,,,,,,,61003848a370015d74d6b5d2,61036ea5cf576104d41a109d,2021-07-29_23h16.14.759,Simcolourproject_2stim_asymm_v5,2020.2.10,MacIntel,60,61025ae37ef11b136ea224fe,,,,,,,,,1654,46.3359375,56.03515625,1,0,0,response1disk,,7,18.453125,10.50390625,1,0,0,rectangle,18.453125,10.50390625,1,0,0,18.453125,10.50390625,1,0,0,0,145,145,114,1,,,,,,,,
,,,,,,,,,,,,,FF,,,,,,,,0.7667,,,,,,,,,,,,,,,,,,,,,,61003848a370015d74d6b5d2,61036ea5cf576104d41a109d,2021-07-29_23h16.14.759,Simcolourproject_2stim_asymm_v5,2020.2.10,MacIntel,60,61025ae37ef11b136ea224fe,,,,,,,,,2586,33.8828125,59.55859375,1,0,0,response1disk,,7,12.81640625,-16.65234375,1,0,0,rectangle,12.81640625,-16.65234375,1,0,0,12.81640625,-16.65234375,1,0,0,0,146,146,66,1,,,,,,,,
,,,,,,,,,,,,,FF,,,,,,,,0.7994,,,,,,,,,,,,,,,,,,,,,,61003848a370015d74d6b5d2,61036ea5cf576104d41a109d,2021-07-29_23h16.14.759,Simcolourproject_2stim_asymm_v5,2020.2.10,MacIntel,60,61025ae37ef11b136ea224fe,,,,,,,,,1680,63.65625,-20.33203125,1,0,0,response3disk,,5,-0.78515625,-13.44921875,1,0,0,rectangle,-0.78515625,-13.44921875,1,0,0,-0.78515625,-13.44921875,1,0,0,0,147,147,54,1,,,,,,,,
,,,,,,,,,,,,,FF,,,,,,,,0.7154,,,,,,,,,,,,,,,,,,,,,,61003848a370015d74d6b5d2,61036ea5cf576104d41a109d,2021-07-29_23h16.14.759,Simcolourproject_2stim_asymm_v5,2020.2.10,MacIntel,60,61025ae37ef11b136ea224fe,,,,,,,,,3679,-30.72265625,-70.26953125,1,0,0,response5disk,,3,15.86328125,6.15234375,1,0,0,rectangle,15.86328125,6.15234375,1,0,0,15.86328125,6.15234375,1,0,0,0,148,148,93,1,,,,,,,,
,,,,,,,,,,,,,FF,,,,,,,,1.4343,,,,,,,,,,,,,,,,,,,,,,61003848a370015d74d6b5d2,61036ea5cf576104d41a109d,2021-07-29_23h16.14.759,Simcolourproject_2stim_asymm_v5,2020.2.10,MacIntel,60,61025ae37ef11b136ea224fe,,,,,,,,,93,-37.19140625,74.4609375,1,0,0,response7disk,,0,-1.9765625,1.31640625,1,0,0,rectangle,-1.9765625,1.31640625,1,0,0,-1.9765625,1.31640625,1,0,0,0,149,149,5,1,,,,,,,,
,,,,,,,,,,,,,FF,,,,,,,,1.082,,,,,,,,,,,,,,,,,,,,,,61003848a370015d74d6b5d2,61036ea5cf576104d41a109d,2021-07-29_23h16.14.759,Simcolourproject_2stim_asymm_v5,2020.2.10,MacIntel,60,61025ae37ef11b136ea224fe,,,,,,,,,3248,-56.859375,-27.58984375,1,0,0,response5disk,,2,1.97265625,-3.57421875,1,0,0,rectangle,1.97265625,-3.57421875,1,0,0,1.97265625,-3.57421875,1,0,0,0,150,150,97,1,,,,,,,,
,,,,,,,,,,,,,FF,,,,,,,,1.1515,,,,,,,,,,,,,,,,,,,,,,61003848a370015d74d6b5d2,61036ea5cf576104d41a109d,2021-07-29_23h16.14.759,Simcolourproject_2stim_asymm_v5,2020.2.10,MacIntel,60,61025ae37ef11b136ea224fe,,,,,,,,,567,42.80078125,68.21484375,1,0,0,response1disk,,7,21.84375,13.953125,1,0,0,rectangle,21.84375,13.953125,1,0,0,21.84375,13.953125,1,0,0,0,151,151,95,1,,,,,,,,
,,,,,,,,,,,,,FF,,,,,,,,0.8488,,,,,,,,,,,,,,,,,,,,,,61003848a370015d74d6b5d2,61036ea5cf576104d41a109d,2021-07-29_23h16.14.759,Simcolourproject_2stim_asymm_v5,2020.2.10,MacIntel,60,61025ae37ef11b136ea224fe,,,,,,,,,874,76.40625,-35.51953125,1,0,0,response3disk,,5,18.625,-10.1640625,1,0,0,rectangle,18.625,-10.1640625,1,0,0,18.625,-10.1640625,1,0,0,0,152,152,128,1,,,,,,,,
,,,,,,,,,,,,,FF,,,,,,,,0.7502,,,,,,,,,,,,,,,,,,,,,,61003848a370015d74d6b5d2,61036ea5cf576104d41a109d,2021-07-29_23h16.14.759,Simcolourproject_2stim_asymm_v5,2020.2.10,MacIntel,60,61025ae37ef11b136ea224fe,,,,,,,,,1778,36.09375,66.72265625,1,0,0,response1disk,,7,15.4453125,0.59375,1,0,0,rectangle,15.4453125,0.59375,1,0,0,15.4453125,0.59375,1,0,0,0,153,153,4,1,,,,,,,,
,,,,,,,,,,,,,FF,,,,,,,,0.7682,,,,,,,,,,,,,,,,,,,,,,61003848a370015d74d6b5d2,61036ea5cf576104d41a109d,2021-07-29_23h16.14.759,Simcolourproject_2stim_asymm_v5,2020.2.10,MacIntel,60,61025ae37ef11b136ea224fe,,,,,,,,,1952,63.28515625,40.90625,1,0,0,response1disk,,6,-0.0390625,-8.9375,1,0,0,rectangle,-0.0390625,-8.9375,1,0,0,-0.0390625,-8.9375,1,0,0,0,154,154,156,1,,,,,,,,
,,,,,,,,,,,,,FF,,,,,,,,0.8493,,,,,,,,,,,,,,,,,,,,,,61003848a370015d74d6b5d2,61036ea5cf576104d41a109d,2021-07-29_23h16.14.759,Simcolourproject_2stim_asymm_v5,2020.2.10,MacIntel,60,61025ae37ef11b136ea224fe,,,,,,,,,2412,64.05859375,-50.46484375,1,0,0,response3disk,,5,6.0625,-16.34375,1,0,0,rectangle,6.0625,-16.34375,1,0,0,6.0625,-16.34375,1,0,0,0,155,155,138,1,,,,,,,,
,,,,,,,,,,,,,FF,,,,,,,,0.6168,,,,,,,,,,,,,,,,,,,,,,61003848a370015d74d6b5d2,61036ea5cf576104d41a109d,2021-07-29_23h16.14.759,Simcolourproject_2stim_asymm_v5,2020.2.10,MacIntel,60,61025ae37ef11b136ea224fe,,,,,,,,,2761,22.69921875,48.91015625,1,0,0,response1disk,,7,13.5,-16.015625,1,0,0,rectangle,13.5,-16.015625,1,0,0,13.5,-16.015625,1,0,0,0,156,156,154,1,,,,,,,,
,,,,,,,,,,,,,FF,,,,,,,,0.683,,,,,,,,,,,,,,,,,,,,,,61003848a370015d74d6b5d2,61036ea5cf576104d41a109d,2021-07-29_23h16.14.759,Simcolourproject_2stim_asymm_v5,2020.2.10,MacIntel,60,61025ae37ef11b136ea224fe,,,,,,,,,2479,38.515625,57.51953125,1,0,0,response1disk,,7,18.1875,10.0859375,1,0,0,rectangle,18.1875,10.0859375,1,0,0,18.1875,10.0859375,1,0,0,0,157,157,6,1,,,,,,,,
,,,,,,,,,,,,,FF,,,,,,,,0.8675,,,,,,,,,,,,,,,,,,,,,,61003848a370015d74d6b5d2,61036ea5cf576104d41a109d,2021-07-29_23h16.14.759,Simcolourproject_2stim_asymm_v5,2020.2.10,MacIntel,60,61025ae37ef11b136ea224fe,,,,,,,,,3151,-33.921875,-61.19921875,1,0,0,response5disk,,3,-9.8984375,1.47265625,1,0,0,rectangle,-9.8984375,1.47265625,1,0,0,-9.8984375,1.47265625,1,0,0,0,158,158,109,1,,,,,,,,
,,,,,,,,,,,,,FF,,,,,,,,0.9998,,,,,,,,,,,,,,,,,,,,,,61003848a370015d74d6b5d2,61036ea5cf576104d41a109d,2021-07-29_23h16.14.759,Simcolourproject_2stim_asymm_v5,2020.2.10,MacIntel,60,61025ae37ef11b136ea224fe,,,,,,,,,1206,84.015625,-42.1875,1,0,0,response3disk,,5,30.61328125,-10.9140625,1,0,0,rectangle,30.61328125,-10.9140625,1,0,0,30.61328125,-10.9140625,1,0,0,0,159,159,107,1,,,,,,,,
,,,,,,,,,,,,,FF,,,,,,,,0.7488,,,,,,,,,,,,,,,,,,,,,,61003848a370015d74d6b5d2,61036ea5cf576104d41a109d,2021-07-29_23h16.14.759,Simcolourproject_2stim_asymm_v5,2020.2.10,MacIntel,60,61025ae37ef11b136ea224fe,,,,,,,,,472,58.53515625,27.921875,1,0,0,response1disk,,6,17.390625,9.484375,1,0,0,rectangle,17.390625,9.484375,1,0,0,17.390625,9.484375,1,0,0,1,0,160,19,1,,,,,,,,
,,,,,,,,,,,,,FF,,,,,,,,0.7818,,,,,,,,,,,,,,,,,,,,,,61003848a370015d74d6b5d2,61036ea5cf576104d41a109d,2021-07-29_23h16.14.759,Simcolourproject_2stim_asymm_v5,2020.2.10,MacIntel,60,61025ae37ef11b136ea224fe,,,,,,,,,1785,58.8984375,35.59765625,1,0,0,response1disk,,6,8.93359375,12.06640625,1,0,0,rectangle,8.93359375,12.06640625,1,0,0,8.93359375,12.06640625,1,0,0,1,1,161,68,1,,,,,,,,
,,,,,,,,,,,,,FF,,,,,,,,0.8838,,,,,,,,,,,,,,,,,,,,,,61003848a370015d74d6b5d2,61036ea5cf576104d41a109d,2021-07-29_23h16.14.759,Simcolourproject_2stim_asymm_v5,2020.2.10,MacIntel,60,61025ae37ef11b136ea224fe,,,,,,,,,3161,68.09375,-43.4140625,1,0,0,response3disk,,5,1.51171875,-6.32421875,1,0,0,rectangle,1.51171875,-6.32421875,1,0,0,1.51171875,-6.32421875,1,0,0,1,2,162,141,1,,,,,,,,
,,,,,,,,,,,,,FF,,,,,,,,0.6824,,,,,,,,,,,,,,,,,,,,,,61003848a370015d74d6b5d2,61036ea5cf576104d41a109d,2021-07-29_23h16.14.759,Simcolourproject_2stim_asymm_v5,2020.2.10,MacIntel,60,61025ae37ef11b136ea224fe,,,,,,,,,1575,29.2421875,51.96875,1,0,0,response1disk,,7,4.5546875,11.06640625,1,0,0,rectangle,4.5546875,11.06640625,1,0,0,4.5546875,11.06640625,1,0,0,1,3,163,31,1,,,,,,,,
,,,,,,,,,,,,,FF,,,,,,,,0.7,,,,,,,,,,,,,,,,,,,,,,61003848a370015d74d6b5d2,61036ea5cf576104d41a109d,2021-07-29_23h16.14.759,Simcolourproject_2stim_asymm_v5,2020.2.10,MacIntel,60,61025ae37ef11b136ea224fe,,,,,,,,,683,27.6796875,49.26953125,1,0,0,response1disk,,7,17.12890625,14.2421875,1,0,0,rectangle,17.12890625,14.2421875,1,0,0,17.12890625,14.2421875,1,0,0,1,4,164,146,1,,,,,,,,
,,,,,,,,,,,,,FF,,,,,,,,0.4511,,,,,,,,,,,,,,,,,,,,,,61003848a370015d74d6b5d2,61036ea5cf576104d41a109d,2021-07-29_23h16.14.759,Simcolourproject_2stim_asymm_v5,2020.2.10,MacIntel,60,61025ae37ef11b136ea224fe,,,,,,,,,4173,38.75390625,64.9609375,1,0,0,response1disk,,7,15.89453125,12.75390625,1,0,0,rectangle,15.89453125,12.75390625,1,0,0,15.89453125,12.75390625,1,0,0,1,5,165,60,1,,,,,,,,
,,,,,,,,,,,,,FF,,,,,,,,0.433,,,,,,,,,,,,,,,,,,,,,,61003848a370015d74d6b5d2,61036ea5cf576104d41a109d,2021-07-29_23h16.14.759,Simcolourproject_2stim_asymm_v5,2020.2.10,MacIntel,60,61025ae37ef11b136ea224fe,,,,,,,,,3263,36.84375,52.48046875,1,0,0,response1disk,,7,22.85546875,-14.8671875,1,0,0,rectangle,22.85546875,-14.8671875,1,0,0,22.85546875,-14.8671875,1,0,0,1,6,166,35,1,,,,,,,,
,,,,,,,,,,,,,FF,,,,,,,,0.4501,,,,,,,,,,,,,,,,,,,,,,61003848a370015d74d6b5d2,61036ea5cf576104d41a109d,2021-07-29_23h16.14.759,Simcolourproject_2stim_asymm_v5,2020.2.10,MacIntel,60,61025ae37ef11b136ea224fe,,,,,,,,,2966,39.5625,44.67578125,1,0,0,response1disk,,7,18.85546875,7.65625,1,0,0,rectangle,18.85546875,7.65625,1,0,0,18.85546875,7.65625,1,0,0,1,7,167,15,1,,,,,,,,
,,,,,,,,,,,,,FF,,,,,,,,0.5172,,,,,,,,,,,,,,,,,,,,,,61003848a370015d74d6b5d2,61036ea5cf576104d41a109d,2021-07-29_23h16.14.759,Simcolourproject_2stim_asymm_v5,2020.2.10,MacIntel,60,61025ae37ef11b136ea224fe,,,,,,,,,2572,38.05078125,57.2421875,1,0,0,response1disk,,7,12.3046875,9.09765625,1,0,0,rectangle,12.3046875,9.09765625,1,0,0,12.3046875,9.09765625,1,0,0,1,8,168,22,1,,,,,,,,
,,,,,,,,,,,,,FF,,,,,,,,0.4319,,,,,,,,,,,,,,,,,,,,,,61003848a370015d74d6b5d2,61036ea5cf576104d41a109d,2021-07-29_23h16.14.759,Simcolourproject_2stim_asymm_v5,2020.2.10,MacIntel,60,61025ae37ef11b136ea224fe,,,,,,,,,3653,36.1484375,69.77734375,1,0,0,response1disk,,7,16.39453125,2.46484375,1,0,0,rectangle,16.39453125,2.46484375,1,0,0,16.39453125,2.46484375,1,0,0,1,9,169,53,1,,,,,,,,
,,,,,,,,,,,,,FF,,,,,,,,0.4001,,,,,,,,,,,,,,,,,,,,,,61003848a370015d74d6b5d2,61036ea5cf576104d41a109d,2021-07-29_23h16.14.759,Simcolourproject_2stim_asymm_v5,2020.2.10,MacIntel,60,61025ae37ef11b136ea224fe,,,,,,,,,2451,47.3203125,83.0390625,1,0,0,response1disk,,7,23.28515625,10.234375,1,0,0,rectangle,67.85546875,-39.109375,1,0,0,16.38671875,-0.046875,1,0,0,1,10,170,92,1,,response3disk_3,TRUE,5,5,"[208,244,102,127,171,113,110,15,69,42,119,289,70,4,48,62,82,261,224,195]",1.3662,rectangle
,,,,,,,,,,,,,FF,,,,,,,,1.017,,,,,,,,,,,,,,,,,,,,,,61003848a370015d74d6b5d2,61036ea5cf576104d41a109d,2021-07-29_23h16.14.759,Simcolourproject_2stim_asymm_v5,2020.2.10,MacIntel,60,61025ae37ef11b136ea224fe,,,,,,,,,2077,72.59375,25.53125,1,0,0,response1disk,,6,0.77734375,-4.484375,1,0,0,rectangle,0.77734375,-4.484375,1,0,0,0.77734375,-4.484375,1,0,0,1,11,171,57,1,,,,,,,,
,,,,,,,,,,,,,FF,,,,,,,,0.7156,,,,,,,,,,,,,,,,,,,,,,61003848a370015d74d6b5d2,61036ea5cf576104d41a109d,2021-07-29_23h16.14.759,Simcolourproject_2stim_asymm_v5,2020.2.10,MacIntel,60,61025ae37ef11b136ea224fe,,,,,,,,,3297,-64.63671875,-26.04296875,1,0,0,response5disk,,2,3.0625,8.546875,1,0,0,rectangle,3.0625,8.546875,1,0,0,3.0625,8.546875,1,0,0,1,12,172,108,1,,,,,,,,
,,,,,,,,,,,,,FF,,,,,,,,0.6512,,,,,,,,,,,,,,,,,,,,,,61003848a370015d74d6b5d2,61036ea5cf576104d41a109d,2021-07-29_23h16.14.759,Simcolourproject_2stim_asymm_v5,2020.2.10,MacIntel,60,61025ae37ef11b136ea224fe,,,,,,,,,2388,77.0390625,-24.28515625,1,0,0,response3disk,,5,6.47265625,2.1484375,1,0,0,rectangle,6.47265625,2.1484375,1,0,0,6.47265625,2.1484375,1,0,0,1,13,173,50,1,,,,,,,,
,,,,,,,,,,,,,FF,,,,,,,,0.9838,,,,,,,,,,,,,,,,,,,,,,61003848a370015d74d6b5d2,61036ea5cf576104d41a109d,2021-07-29_23h16.14.759,Simcolourproject_2stim_asymm_v5,2020.2.10,MacIntel,60,61025ae37ef11b136ea224fe,,,,,,,,,3372,79.76953125,-29.9921875,1,0,0,response3disk,,5,1.97265625,-1.04296875,1,0,0,rectangle,1.97265625,-1.04296875,1,0,0,1.97265625,-1.04296875,1,0,0,1,14,174,80,1,,,,,,,,
,,,,,,,,,,,,,FF,,,,,,,,0.6332,,,,,,,,,,,,,,,,,,,,,,61003848a370015d74d6b5d2,61036ea5cf576104d41a109d,2021-07-29_23h16.14.759,Simcolourproject_2stim_asymm_v5,2020.2.10,MacIntel,60,61025ae37ef11b136ea224fe,,,,,,,,,941,37.48046875,53.32421875,1,0,0,response1disk,,7,3.86328125,1.70703125,1,0,0,rectangle,3.86328125,1.70703125,1,0,0,3.86328125,1.70703125,1,0,0,1,15,175,154,1,,,,,,,,
,,,,,,,,,,,,,FF,,,,,,,,0.7162,,,,,,,,,,,,,,,,,,,,,,61003848a370015d74d6b5d2,61036ea5cf576104d41a109d,2021-07-29_23h16.14.759,Simcolourproject_2stim_asymm_v5,2020.2.10,MacIntel,60,61025ae37ef11b136ea224fe,,,,,,,,,2874,32.83984375,60.83203125,1,0,0,response1disk,,7,-13.94140625,-9.05859375,1,0,0,rectangle,-13.94140625,-9.05859375,1,0,0,-13.94140625,-9.05859375,1,0,0,1,16,176,93,1,,,,,,,,
,,,,,,,,,,,,,FF,,,,,,,,0.9161,,,,,,,,,,,,,,,,,,,,,,61003848a370015d74d6b5d2,61036ea5cf576104d41a109d,2021-07-29_23h16.14.759,Simcolourproject_2stim_asymm_v5,2020.2.10,MacIntel,60,61025ae37ef11b136ea224fe,,,,,,,,,3984,19.96875,50.65625,1,0,0,response1disk,,7,3.4453125,7.9921875,1,0,0,rectangle,3.4453125,7.9921875,1,0,0,3.4453125,7.9921875,1,0,0,1,17,177,140,1,,,,,,,,
,,,,,,,,,,,,,FF,,,,,,,,0.8836,,,,,,,,,,,,,,,,,,,,,,61003848a370015d74d6b5d2,61036ea5cf576104d41a109d,2021-07-29_23h16.14.759,Simcolourproject_2stim_asymm_v5,2020.2.10,MacIntel,60,61025ae37ef11b136ea224fe,,,,,,,,,164,-57.37109375,-28.88671875,1,0,0,response5disk,,2,2.9296875,2.62109375,1,0,0,rectangle,2.9296875,2.62109375,1,0,0,2.9296875,2.62109375,1,0,0,1,18,178,144,1,,,,,,,,
,,,,,,,,,,,,,FF,,,,,,,,0.8993,,,,,,,,,,,,,,,,,,,,,,61003848a370015d74d6b5d2,61036ea5cf576104d41a109d,2021-07-29_23h16.14.759,Simcolourproject_2stim_asymm_v5,2020.2.10,MacIntel,60,61025ae37ef11b136ea224fe,,,,,,,,,2836,-19.1640625,-46.3828125,1,0,0,response5disk,,3,-3.79296875,2.6953125,1,0,0,rectangle,-3.79296875,2.6953125,1,0,0,-3.79296875,2.6953125,1,0,0,1,19,179,122,1,,,,,,,,
,,,,,,,,,,,,,FF,,,,,,,,0.8996,,,,,,,,,,,,,,,,,,,,,,61003848a370015d74d6b5d2,61036ea5cf576104d41a109d,2021-07-29_23h16.14.759,Simcolourproject_2stim_asymm_v5,2020.2.10,MacIntel,60,61025ae37ef11b136ea224fe,,,,,,,,,58,65.875,24.95703125,1,0,0,response1disk,,6,2.85546875,-14.63671875,1,0,0,rectangle,2.85546875,-14.63671875,1,0,0,2.85546875,-14.63671875,1,0,0,1,20,180,128,1,,,,,,,,
,,,,,,,,,,,,,FF,,,,,,,,0.9676,,,,,,,,,,,,,,,,,,,,,,61003848a370015d74d6b5d2,61036ea5cf576104d41a109d,2021-07-29_23h16.14.759,Simcolourproject_2stim_asymm_v5,2020.2.10,MacIntel,60,61025ae37ef11b136ea224fe,,,,,,,,,3787,62,25.78515625,1,0,0,response1disk,,6,-13.2265625,-11.48828125,1,0,0,rectangle,-13.2265625,-11.48828125,1,0,0,-13.2265625,-11.48828125,1,0,0,1,21,181,5,1,,,,,,,,
,,,,,,,,,,,,,FF,,,,,,,,0.8832,,,,,,,,,,,,,,,,,,,,,,61003848a370015d74d6b5d2,61036ea5cf576104d41a109d,2021-07-29_23h16.14.759,Simcolourproject_2stim_asymm_v5,2020.2.10,MacIntel,60,61025ae37ef11b136ea224fe,,,,,,,,,795,22.76171875,45.78125,1,0,0,response1disk,,7,-5.82421875,-2.32421875,1,0,0,rectangle,-5.82421875,-2.32421875,1,0,0,-5.82421875,-2.32421875,1,0,0,1,22,182,75,1,,,,,,,,
,,,,,,,,,,,,,FF,,,,,,,,1.1842,,,,,,,,,,,,,,,,,,,,,,61003848a370015d74d6b5d2,61036ea5cf576104d41a109d,2021-07-29_23h16.14.759,Simcolourproject_2stim_asymm_v5,2020.2.10,MacIntel,60,61025ae37ef11b136ea224fe,,,,,,,,,1979,68.08203125,36.98046875,1,0,0,response1disk,,6,5.8359375,5.65234375,1,0,0,rectangle,5.8359375,5.65234375,1,0,0,5.8359375,5.65234375,1,0,0,1,23,183,106,1,,,,,,,,
,,,,,,,,,,,,,FF,,,,,,,,0.5836,,,,,,,,,,,,,,,,,,,,,,61003848a370015d74d6b5d2,61036ea5cf576104d41a109d,2021-07-29_23h16.14.759,Simcolourproject_2stim_asymm_v5,2020.2.10,MacIntel,60,61025ae37ef11b136ea224fe,,,,,,,,,2478,42.25390625,66.44921875,1,0,0,response1disk,,7,6.85546875,8.84375,1,0,0,rectangle,6.85546875,8.84375,1,0,0,6.85546875,8.84375,1,0,0,1,24,184,73,1,,,,,,,,
,,,,,,,,,,,,,FF,,,,,,,,1.4174,,,,,,,,,,,,,,,,,,,,,,61003848a370015d74d6b5d2,61036ea5cf576104d41a109d,2021-07-29_23h16.14.759,Simcolourproject_2stim_asymm_v5,2020.2.10,MacIntel,60,61025ae37ef11b136ea224fe,,,,,,,,,4066,73.1953125,-23.46484375,1,0,0,response3disk,,5,19.24609375,-0.5,1,0,0,rectangle,19.24609375,-0.5,1,0,0,19.24609375,-0.5,1,0,0,1,25,185,12,1,,,,,,,,
,,,,,,,,,,,,,FF,,,,,,,,0.7329,,,,,,,,,,,,,,,,,,,,,,61003848a370015d74d6b5d2,61036ea5cf576104d41a109d,2021-07-29_23h16.14.759,Simcolourproject_2stim_asymm_v5,2020.2.10,MacIntel,60,61025ae37ef11b136ea224fe,,,,,,,,,1242,58.9140625,31.578125,1,0,0,response1disk,,6,19.26953125,5.52734375,1,0,0,rectangle,19.26953125,5.52734375,1,0,0,19.26953125,5.52734375,1,0,0,1,26,186,105,1,,,,,,,,
,,,,,,,,,,,,,FF,,,,,,,,0.7006,,,,,,,,,,,,,,,,,,,,,,61003848a370015d74d6b5d2,61036ea5cf576104d41a109d,2021-07-29_23h16.14.759,Simcolourproject_2stim_asymm_v5,2020.2.10,MacIntel,60,61025ae37ef11b136ea224fe,,,,,,,,,586,66.265625,49.0546875,1,0,0,response1disk,,6,10.8671875,12.99609375,1,0,0,rectangle,10.8671875,12.99609375,1,0,0,10.8671875,12.99609375,1,0,0,1,27,187,34,1,,,,,,,,
,,,,,,,,,,,,,FF,,,,,,,,0.7005,,,,,,,,,,,,,,,,,,,,,,61003848a370015d74d6b5d2,61036ea5cf576104d41a109d,2021-07-29_23h16.14.759,Simcolourproject_2stim_asymm_v5,2020.2.10,MacIntel,60,61025ae37ef11b136ea224fe,,,,,,,,,3403,63.91796875,34.83984375,1,0,0,response1disk,,6,10.72265625,10.4375,1,0,0,rectangle,10.72265625,10.4375,1,0,0,10.72265625,10.4375,1,0,0,1,28,188,90,1,,,,,,,,
,,,,,,,,,,,,,FF,,,,,,,,0.5343,,,,,,,,,,,,,,,,,,,,,,61003848a370015d74d6b5d2,61036ea5cf576104d41a109d,2021-07-29_23h16.14.759,Simcolourproject_2stim_asymm_v5,2020.2.10,MacIntel,60,61025ae37ef11b136ea224fe,,,,,,,,,1259,34.390625,82.96484375,1,0,0,response1disk,,7,2.5390625,4.3515625,1,0,0,rectangle,2.5390625,4.3515625,1,0,0,2.5390625,4.3515625,1,0,0,1,29,189,120,1,,,,,,,,
,,,,,,,,,,,,,FF,,,,,,,,0.9828,,,,,,,,,,,,,,,,,,,,,,61003848a370015d74d6b5d2,61036ea5cf576104d41a109d,2021-07-29_23h16.14.759,Simcolourproject_2stim_asymm_v5,2020.2.10,MacIntel,60,61025ae37ef11b136ea224fe,,,,,,,,,538,64.80859375,21.3828125,1,0,0,response1disk,,6,8.05859375,-0.8515625,1,0,0,rectangle,8.05859375,-0.8515625,1,0,0,8.05859375,-0.8515625,1,0,0,1,30,190,63,1,,,,,,,,
,,,,,,,,,,,,,FF,,,,,,,,0.6833,,,,,,,,,,,,,,,,,,,,,,61003848a370015d74d6b5d2,61036ea5cf576104d41a109d,2021-07-29_23h16.14.759,Simcolourproject_2stim_asymm_v5,2020.2.10,MacIntel,60,61025ae37ef11b136ea224fe,,,,,,,,,1424,63.3203125,37.21484375,1,0,0,response1disk,,6,4.640625,-4.5625,1,0,0,rectangle,4.640625,-4.5625,1,0,0,4.640625,-4.5625,1,0,0,1,31,191,118,1,,,,,,,,
,,,,,,,,,,,,,FF,,,,,,,,0.6999,,,,,,,,,,,,,,,,,,,,,,61003848a370015d74d6b5d2,61036ea5cf576104d41a109d,2021-07-29_23h16.14.759,Simcolourproject_2stim_asymm_v5,2020.2.10,MacIntel,60,61025ae37ef11b136ea224fe,,,,,,,,,1899,37.4140625,-65.00390625,1,0,0,response3disk,,4,31.6796875,0.52734375,1,0,0,rectangle,31.6796875,0.52734375,1,0,0,31.6796875,0.52734375,1,0,0,1,32,192,153,1,,,,,,,,
,,,,,,,,,,,,,FF,,,,,,,,0.8158,,,,,,,,,,,,,,,,,,,,,,61003848a370015d74d6b5d2,61036ea5cf576104d41a109d,2021-07-29_23h16.14.759,Simcolourproject_2stim_asymm_v5,2020.2.10,MacIntel,60,61025ae37ef11b136ea224fe,,,,,,,,,2928,39.45703125,59.078125,1,0,0,response1disk,,7,14.7265625,-4.28125,1,0,0,rectangle,14.7265625,-4.28125,1,0,0,14.7265625,-4.28125,1,0,0,1,33,193,158,1,,,,,,,,
,,,,,,,,,,,,,FF,,,,,,,,0.5163,,,,,,,,,,,,,,,,,,,,,,61003848a370015d74d6b5d2,61036ea5cf576104d41a109d,2021-07-29_23h16.14.759,Simcolourproject_2stim_asymm_v5,2020.2.10,MacIntel,60,61025ae37ef11b136ea224fe,,,,,,,,,2512,38.3984375,58.19921875,1,0,0,response1disk,,7,15.28125,12.69140625,1,0,0,rectangle,77.9296875,-24.10546875,1,0,0,0.45703125,-1.65625,1,0,0,1,34,194,151,1,,response3disk_3,TRUE,5,5,"[208,244,102,127,171,113,110,15,69,42,119,289,70,4,48,62,82,261,224,195]",1.3503,rectangle
,,,,,,,,,,,,,FF,,,,,,,,2.017,,,,,,,,,,,,,,,,,,,,,,61003848a370015d74d6b5d2,61036ea5cf576104d41a109d,2021-07-29_23h16.14.759,Simcolourproject_2stim_asymm_v5,2020.2.10,MacIntel,60,61025ae37ef11b136ea224fe,,,,,,,,,2269,43.23046875,52.8203125,1,0,0,response1disk,,7,31.69140625,-6.66015625,1,0,0,rectangle,31.69140625,-6.66015625,1,0,0,31.69140625,-6.66015625,1,0,0,1,35,195,67,1,,,,,,,,
,,,,,,,,,,,,,FF,,,,,,,,0.9177,,,,,,,,,,,,,,,,,,,,,,61003848a370015d74d6b5d2,61036ea5cf576104d41a109d,2021-07-29_23h16.14.759,Simcolourproject_2stim_asymm_v5,2020.2.10,MacIntel,60,61025ae37ef11b136ea224fe,,,,,,,,,2676,-33.84375,-52.96875,1,0,0,response5disk,,3,-32.03515625,-3.30859375,1,0,0,rectangle,-32.03515625,-3.30859375,1,0,0,-32.03515625,-3.30859375,1,0,0,1,36,196,136,1,,,,,,,,
,,,,,,,,,,,,,FF,,,,,,,,2.1662,,,,,,,,,,,,,,,,,,,,,,61003848a370015d74d6b5d2,61036ea5cf576104d41a109d,2021-07-29_23h16.14.759,Simcolourproject_2stim_asymm_v5,2020.2.10,MacIntel,60,61025ae37ef11b136ea224fe,,,,,,,,,2733,61.8046875,-31.58203125,1,0,0,response3disk,,5,8.59765625,-6.7109375,1,0,0,rectangle,8.59765625,-6.7109375,1,0,0,8.59765625,-6.7109375,1,0,0,1,37,197,95,1,,,,,,,,
,,,,,,,,,,,,,FF,,,,,,,,1.1161,,,,,,,,,,,,,,,,,,,,,,61003848a370015d74d6b5d2,61036ea5cf576104d41a109d,2021-07-29_23h16.14.759,Simcolourproject_2stim_asymm_v5,2020.2.10,MacIntel,60,61025ae37ef11b136ea224fe,,,,,,,,,1027,46.46875,-63.94921875,1,0,0,response3disk,,4,14.68359375,3.11328125,1,0,0,rectangle,14.68359375,3.11328125,1,0,0,14.68359375,3.11328125,1,0,0,1,38,198,13,1,,,,,,,,
,,,,,,,,,,,,,FF,,,,,,,,0.75,,,,,,,,,,,,,,,,,,,,,,61003848a370015d74d6b5d2,61036ea5cf576104d41a109d,2021-07-29_23h16.14.759,Simcolourproject_2stim_asymm_v5,2020.2.10,MacIntel,60,61025ae37ef11b136ea224fe,,,,,,,,,3066,16.5390625,-64.84765625,1,0,0,response3disk,,4,5.21875,-5.21875,1,0,0,rectangle,5.21875,-5.21875,1,0,0,5.21875,-5.21875,1,0,0,1,39,199,1,1,,,,,,,,
,,,,,,,,,,,,,FF,,,,,,,,0.7316,,,,,,,,,,,,,,,,,,,,,,61003848a370015d74d6b5d2,61036ea5cf576104d41a109d,2021-07-29_23h16.14.759,Simcolourproject_2stim_asymm_v5,2020.2.10,MacIntel,60,61025ae37ef11b136ea224fe,,,,,,,,,3107,-35.3515625,-56.54296875,1,0,0,response5disk,,3,-17.32421875,0.91015625,1,0,0,rectangle,-17.32421875,0.91015625,1,0,0,-17.32421875,0.91015625,1,0,0,1,40,200,64,1,,,,,,,,
,,,,,,,,,,,,,FF,,,,,,,,1.0994,,,,,,,,,,,,,,,,,,,,,,61003848a370015d74d6b5d2,61036ea5cf576104d41a109d,2021-07-29_23h16.14.759,Simcolourproject_2stim_asymm_v5,2020.2.10,MacIntel,60,61025ae37ef11b136ea224fe,,,,,,,,,1015,31.1875,50.84375,1,0,0,response1disk,,7,15.2109375,4.76171875,1,0,0,rectangle,15.2109375,4.76171875,1,0,0,15.2109375,4.76171875,1,0,0,1,41,201,133,1,,,,,,,,
,,,,,,,,,,,,,FF,,,,,,,,0.7337,,,,,,,,,,,,,,,,,,,,,,61003848a370015d74d6b5d2,61036ea5cf576104d41a109d,2021-07-29_23h16.14.759,Simcolourproject_2stim_asymm_v5,2020.2.10,MacIntel,60,61025ae37ef11b136ea224fe,,,,,,,,,2322,71.48828125,42.73828125,1,0,0,response1disk,,6,31.2578125,7.4921875,1,0,0,rectangle,31.2578125,7.4921875,1,0,0,31.2578125,7.4921875,1,0,0,1,42,202,89,1,,,,,,,,
,,,,,,,,,,,,,FF,,,,,,,,0.735,,,,,,,,,,,,,,,,,,,,,,61003848a370015d74d6b5d2,61036ea5cf576104d41a109d,2021-07-29_23h16.14.759,Simcolourproject_2stim_asymm_v5,2020.2.10,MacIntel,60,61025ae37ef11b136ea224fe,,,,,,,,,1545,63.34765625,-26.671875,1,0,0,response3disk,,5,13.67578125,-8.1328125,1,0,0,rectangle,13.67578125,-8.1328125,1,0,0,13.67578125,-8.1328125,1,0,0,1,43,203,69,1,,,,,,,,
,,,,,,,,,,,,,FF,,,,,,,,0.7832,,,,,,,,,,,,,,,,,,,,,,61003848a370015d74d6b5d2,61036ea5cf576104d41a109d,2021-07-29_23h16.14.759,Simcolourproject_2stim_asymm_v5,2020.2.10,MacIntel,60,61025ae37ef11b136ea224fe,,,,,,,,,3055,-39.49609375,-57.9765625,1,0,0,response5disk,,3,-8.60546875,3.48046875,1,0,0,rectangle,-8.60546875,3.48046875,1,0,0,-8.60546875,3.48046875,1,0,0,1,44,204,156,1,,,,,,,,
,,,,,,,,,,,,,FF,,,,,,,,0.867,,,,,,,,,,,,,,,,,,,,,,61003848a370015d74d6b5d2,61036ea5cf576104d41a109d,2021-07-29_23h16.14.759,Simcolourproject_2stim_asymm_v5,2020.2.10,MacIntel,60,61025ae37ef11b136ea224fe,,,,,,,,,3095,50.09375,61.7578125,1,0,0,response1disk,,7,16.015625,9.30078125,1,0,0,rectangle,16.015625,9.30078125,1,0,0,16.015625,9.30078125,1,0,0,1,45,205,84,1,,,,,,,,
,,,,,,,,,,,,,FF,,,,,,,,0.6162,,,,,,,,,,,,,,,,,,,,,,61003848a370015d74d6b5d2,61036ea5cf576104d41a109d,2021-07-29_23h16.14.759,Simcolourproject_2stim_asymm_v5,2020.2.10,MacIntel,60,61025ae37ef11b136ea224fe,,,,,,,,,1915,56.16796875,35.81640625,1,0,0,response1disk,,6,20.7421875,10.96484375,1,0,0,rectangle,20.7421875,10.96484375,1,0,0,20.7421875,10.96484375,1,0,0,1,46,206,18,1,,,,,,,,
,,,,,,,,,,,,,FF,,,,,,,,0.4997,,,,,,,,,,,,,,,,,,,,,,61003848a370015d74d6b5d2,61036ea5cf576104d41a109d,2021-07-29_23h16.14.759,Simcolourproject_2stim_asymm_v5,2020.2.10,MacIntel,60,61025ae37ef11b136ea224fe,,,,,,,,,2823,39.7578125,58.84765625,1,0,0,response1disk,,7,18.54296875,5.328125,1,0,0,rectangle,44.828125,71.6171875,1,0,0,24.59765625,6.83984375,1,0,0,1,47,207,2,1,,response1disk_3,TRUE,7,7,"[208,244,102,127,171,113,110,15,69,42,119,289,70,4,48,62,82,261,224,195]",1.1161,rectangle
,,,,,,,,,,,,,FF,,,,,,,,0.9649,,,,,,,,,,,,,,,,,,,,,,61003848a370015d74d6b5d2,61036ea5cf576104d41a109d,2021-07-29_23h16.14.759,Simcolourproject_2stim_asymm_v5,2020.2.10,MacIntel,60,61025ae37ef11b136ea224fe,,,,,,,,,1535,-63.78125,-36.41796875,1,0,0,response5disk,,2,6.51953125,-1.921875,1,0,0,rectangle,6.51953125,-1.921875,1,0,0,6.51953125,-1.921875,1,0,0,1,48,208,4,1,,,,,,,,
,,,,,,,,,,,,,FF,,,,,,,,0.75,,,,,,,,,,,,,,,,,,,,,,61003848a370015d74d6b5d2,61036ea5cf576104d41a109d,2021-07-29_23h16.14.759,Simcolourproject_2stim_asymm_v5,2020.2.10,MacIntel,60,61025ae37ef11b136ea224fe,,,,,,,,,3034,22.76953125,74.04296875,1,0,0,response1disk,,7,2.76171875,4.65625,1,0,0,rectangle,2.76171875,4.65625,1,0,0,2.76171875,4.65625,1,0,0,1,49,209,150,1,,,,,,,,
,,,,,,,,,,,,,FF,,,,,,,,1.2829,,,,,,,,,,,,,,,,,,,,,,61003848a370015d74d6b5d2,61036ea5cf576104d41a109d,2021-07-29_23h16.14.759,Simcolourproject_2stim_asymm_v5,2020.2.10,MacIntel,60,61025ae37ef11b136ea224fe,,,,,,,,,969,-69.4765625,-37.61328125,1,0,0,response5disk,,2,27.125,16.76953125,1,0,0,rectangle,27.125,16.76953125,1,0,0,27.125,16.76953125,1,0,0,1,50,210,125,1,,,,,,,,
,,,,,,,,,,,,,FF,,,,,,,,0.5664,,,,,,,,,,,,,,,,,,,,,,61003848a370015d74d6b5d2,61036ea5cf576104d41a109d,2021-07-29_23h16.14.759,Simcolourproject_2stim_asymm_v5,2020.2.10,MacIntel,60,61025ae37ef11b136ea224fe,,,,,,,,,4307,50.328125,78.97265625,1,0,0,response1disk,,7,9.98046875,17.9375,1,0,0,rectangle,9.98046875,17.9375,1,0,0,9.98046875,17.9375,1,0,0,1,51,211,8,1,,,,,,,,
,,,,,,,,,,,,,FF,,,,,,,,0.4998,,,,,,,,,,,,,,,,,,,,,,61003848a370015d74d6b5d2,61036ea5cf576104d41a109d,2021-07-29_23h16.14.759,Simcolourproject_2stim_asymm_v5,2020.2.10,MacIntel,60,61025ae37ef11b136ea224fe,,,,,,,,,47,31.82421875,73.4921875,1,0,0,response1disk,,7,18.55859375,7.171875,1,0,0,rectangle,18.55859375,7.171875,1,0,0,18.55859375,7.171875,1,0,0,1,52,212,114,1,,,,,,,,
,,,,,,,,,,,,,FF,,,,,,,,2.4509,,,,,,,,,,,,,,,,,,,,,,61003848a370015d74d6b5d2,61036ea5cf576104d41a109d,2021-07-29_23h16.14.759,Simcolourproject_2stim_asymm_v5,2020.2.10,MacIntel,60,61025ae37ef11b136ea224fe,,,,,,,,,3174,44.875,19.3203125,1,0,0,response1disk,,6,-21.81640625,-15.08203125,1,0,0,rectangle,-21.81640625,-15.08203125,1,0,0,-21.81640625,-15.08203125,1,0,0,1,53,213,98,1,,,,,,,,
,,,,,,,,,,,,,FF,,,,,,,,0.6506,,,,,,,,,,,,,,,,,,,,,,61003848a370015d74d6b5d2,61036ea5cf576104d41a109d,2021-07-29_23h16.14.759,Simcolourproject_2stim_asymm_v5,2020.2.10,MacIntel,60,61025ae37ef11b136ea224fe,,,,,,,,,1794,67.21875,-35.3984375,1,0,0,response3disk,,5,9.98828125,-0.86328125,1,0,0,rectangle,9.98828125,-0.86328125,1,0,0,9.98828125,-0.86328125,1,0,0,1,54,214,72,1,,,,,,,,
,,,,,,,,,,,,,FF,,,,,,,,1.6833,,,,,,,,,,,,,,,,,,,,,,61003848a370015d74d6b5d2,61036ea5cf576104d41a109d,2021-07-29_23h16.14.759,Simcolourproject_2stim_asymm_v5,2020.2.10,MacIntel,60,61025ae37ef11b136ea224fe,,,,,,,,,2835,-34.0078125,-49.41796875,1,0,0,response5disk,,3,-3.87890625,-2.3671875,1,0,0,rectangle,-3.87890625,-2.3671875,1,0,0,-3.87890625,-2.3671875,1,0,0,1,55,215,142,1,,,,,,,,
,,,,,,,,,,,,,FF,,,,,,,,4.6339,,,,,,,,,,,,,,,,,,,,,,61003848a370015d74d6b5d2,61036ea5cf576104d41a109d,2021-07-29_23h16.14.759,Simcolourproject_2stim_asymm_v5,2020.2.10,MacIntel,60,61025ae37ef11b136ea224fe,,,,,,,,,3879,94.3828125,-23.98046875,1,0,0,response3disk,,5,31.2109375,-2.85546875,1,0,0,rectangle,31.2109375,-2.85546875,1,0,0,31.2109375,-2.85546875,1,0,0,1,56,216,71,1,,,,,,,,
,,,,,,,,,,,,,FF,,,,,,,,0.6844,,,,,,,,,,,,,,,,,,,,,,61003848a370015d74d6b5d2,61036ea5cf576104d41a109d,2021-07-29_23h16.14.759,Simcolourproject_2stim_asymm_v5,2020.2.10,MacIntel,60,61025ae37ef11b136ea224fe,,,,,,,,,2281,32.53125,57.7734375,1,0,0,response1disk,,7,8.1328125,-2.6875,1,0,0,rectangle,8.1328125,-2.6875,1,0,0,8.1328125,-2.6875,1,0,0,1,57,217,40,1,,,,,,,,
,,,,,,,,,,,,,FF,,,,,,,,0.6831,,,,,,,,,,,,,,,,,,,,,,61003848a370015d74d6b5d2,61036ea5cf576104d41a109d,2021-07-29_23h16.14.759,Simcolourproject_2stim_asymm_v5,2020.2.10,MacIntel,60,61025ae37ef11b136ea224fe,,,,,,,,,3276,29.69921875,58.39453125,1,0,0,response1disk,,7,18.875,-10.9453125,1,0,0,rectangle,18.875,-10.9453125,1,0,0,18.875,-10.9453125,1,0,0,1,58,218,130,1,,,,,,,,
,,,,,,,,,,,,,FF,,,,,,,,0.6836,,,,,,,,,,,,,,,,,,,,,,61003848a370015d74d6b5d2,61036ea5cf576104d41a109d,2021-07-29_23h16.14.759,Simcolourproject_2stim_asymm_v5,2020.2.10,MacIntel,60,61025ae37ef11b136ea224fe,,,,,,,,,2062,72.09765625,37.57421875,1,0,0,response1disk,,6,22.23828125,7.8359375,1,0,0,rectangle,22.23828125,7.8359375,1,0,0,22.23828125,7.8359375,1,0,0,1,59,219,66,1,,,,,,,,
,,,,,,,,,,,,,FF,,,,,,,,0.6497,,,,,,,,,,,,,,,,,,,,,,61003848a370015d74d6b5d2,61036ea5cf576104d41a109d,2021-07-29_23h16.14.759,Simcolourproject_2stim_asymm_v5,2020.2.10,MacIntel,60,61025ae37ef11b136ea224fe,,,,,,,,,915,41.3828125,80.93359375,1,0,0,response1disk,,7,25.83203125,-11.3125,1,0,0,rectangle,25.83203125,-11.3125,1,0,0,25.83203125,-11.3125,1,0,0,1,60,220,48,1,,,,,,,,
,,,,,,,,,,,,,FF,,,,,,,,0.783,,,,,,,,,,,,,,,,,,,,,,61003848a370015d74d6b5d2,61036ea5cf576104d41a109d,2021-07-29_23h16.14.759,Simcolourproject_2stim_asymm_v5,2020.2.10,MacIntel,60,61025ae37ef11b136ea224fe,,,,,,,,,2456,30.25390625,59.2734375,1,0,0,response1disk,,7,8.1875,-14.01171875,1,0,0,rectangle,8.1875,-14.01171875,1,0,0,8.1875,-14.01171875,1,0,0,1,61,221,7,1,,,,,,,,
,,,,,,,,,,,,,FF,,,,,,,,0.8667,,,,,,,,,,,,,,,,,,,,,,61003848a370015d74d6b5d2,61036ea5cf576104d41a109d,2021-07-29_23h16.14.759,Simcolourproject_2stim_asymm_v5,2020.2.10,MacIntel,60,61025ae37ef11b136ea224fe,,,,,,,,,3563,-35.3515625,-65.00390625,1,0,0,response5disk,,3,-17.5078125,-10.56640625,1,0,0,rectangle,-17.5078125,-10.56640625,1,0,0,-17.5078125,-10.56640625,1,0,0,1,62,222,101,1,,,,,,,,
,,,,,,,,,,,,,FF,,,,,,,,0.9163,,,,,,,,,,,,,,,,,,,,,,61003848a370015d74d6b5d2,61036ea5cf576104d41a109d,2021-07-29_23h16.14.759,Simcolourproject_2stim_asymm_v5,2020.2.10,MacIntel,60,61025ae37ef11b136ea224fe,,,,,,,,,3992,59.1640625,32.34765625,1,0,0,response1disk,,6,13.5703125,12.84375,1,0,0,rectangle,26.57421875,77.65625,1,0,0,22.52734375,6.36328125,1,0,0,1,63,223,21,1,,response1disk_3,TRUE,7,7,"[208,244,102,127,171,113,110,15,69,42,119,289,70,4,48,62,82,261,224,195]",1.1004,rectangle
,,,,,,,,,,,,,FF,,,,,,,,0.9823,,,,,,,,,,,,,,,,,,,,,,61003848a370015d74d6b5d2,61036ea5cf576104d41a109d,2021-07-29_23h16.14.759,Simcolourproject_2stim_asymm_v5,2020.2.10,MacIntel,60,61025ae37ef11b136ea224fe,,,,,,,,,2768,72.65234375,-28.35546875,1,0,0,response3disk,,5,7.21484375,-4.87890625,1,0,0,rectangle,7.21484375,-4.87890625,1,0,0,7.21484375,-4.87890625,1,0,0,1,64,224,155,1,,,,,,,,
,,,,,,,,,,,,,FF,,,,,,,,0.8343,,,,,,,,,,,,,,,,,,,,,,61003848a370015d74d6b5d2,61036ea5cf576104d41a109d,2021-07-29_23h16.14.759,Simcolourproject_2stim_asymm_v5,2020.2.10,MacIntel,60,61025ae37ef11b136ea224fe,,,,,,,,,1140,72.4765625,-26.203125,1,0,0,response3disk,,5,7.78515625,-3.09375,1,0,0,rectangle,7.78515625,-3.09375,1,0,0,7.78515625,-3.09375,1,0,0,1,65,225,138,1,,,,,,,,
,,,,,,,,,,,,,FF,,,,,,,,0.7507,,,,,,,,,,,,,,,,,,,,,,61003848a370015d74d6b5d2,61036ea5cf576104d41a109d,2021-07-29_23h16.14.759,Simcolourproject_2stim_asymm_v5,2020.2.10,MacIntel,60,61025ae37ef11b136ea224fe,,,,,,,,,465,67.80078125,-31,1,0,0,response3disk,,5,2.90625,-0.5625,1,0,0,rectangle,2.90625,-0.5625,1,0,0,2.90625,-0.5625,1,0,0,1,66,226,134,1,,,,,,,,
,,,,,,,,,,,,,FF,,,,,,,,0.5995,,,,,,,,,,,,,,,,,,,,,,61003848a370015d74d6b5d2,61036ea5cf576104d41a109d,2021-07-29_23h16.14.759,Simcolourproject_2stim_asymm_v5,2020.2.10,MacIntel,60,61025ae37ef11b136ea224fe,,,,,,,,,4314,30.62890625,62.72265625,1,0,0,response1disk,,7,0.484375,-6.453125,1,0,0,rectangle,0.484375,-6.453125,1,0,0,0.484375,-6.453125,1,0,0,1,67,227,131,1,,,,,,,,
,,,,,,,,,,,,,FF,,,,,,,,0.7324,,,,,,,,,,,,,,,,,,,,,,61003848a370015d74d6b5d2,61036ea5cf576104d41a109d,2021-07-29_23h16.14.759,Simcolourproject_2stim_asymm_v5,2020.2.10,MacIntel,60,61025ae37ef11b136ea224fe,,,,,,,,,2188,56.98046875,-41.17578125,1,0,0,response3disk,,5,12.58984375,-8.46875,1,0,0,rectangle,12.58984375,-8.46875,1,0,0,12.58984375,-8.46875,1,0,0,1,68,228,107,1,,,,,,,,
,,,,,,,,,,,,,FF,,,,,,,,0.8153,,,,,,,,,,,,,,,,,,,,,,61003848a370015d74d6b5d2,61036ea5cf576104d41a109d,2021-07-29_23h16.14.759,Simcolourproject_2stim_asymm_v5,2020.2.10,MacIntel,60,61025ae37ef11b136ea224fe,,,,,,,,,3805,25.00390625,-70.421875,1,0,0,response3disk,,4,1.84765625,-17.578125,1,0,0,rectangle,1.84765625,-17.578125,1,0,0,1.84765625,-17.578125,1,0,0,1,69,229,41,1,,,,,,,,
,,,,,,,,,,,,,FF,,,,,,,,0.6835,,,,,,,,,,,,,,,,,,,,,,61003848a370015d74d6b5d2,61036ea5cf576104d41a109d,2021-07-29_23h16.14.759,Simcolourproject_2stim_asymm_v5,2020.2.10,MacIntel,60,61025ae37ef11b136ea224fe,,,,,,,,,1619,65.78515625,24.33203125,1,0,0,response1disk,,6,-4.98828125,-10.28515625,1,0,0,rectangle,-4.98828125,-10.28515625,1,0,0,-4.98828125,-10.28515625,1,0,0,1,70,230,143,1,,,,,,,,
,,,,,,,,,,,,,FF,,,,,,,,0.9663,,,,,,,,,,,,,,,,,,,,,,61003848a370015d74d6b5d2,61036ea5cf576104d41a109d,2021-07-29_23h16.14.759,Simcolourproject_2stim_asymm_v5,2020.2.10,MacIntel,60,61025ae37ef11b136ea224fe,,,,,,,,,2086,42.33984375,33.515625,1,0,0,response1disk,,6,9.07421875,2.1953125,1,0,0,rectangle,9.07421875,2.1953125,1,0,0,9.07421875,2.1953125,1,0,0,1,71,231,27,1,,,,,,,,
,,,,,,,,,,,,,FF,,,,,,,,0.4997,,,,,,,,,,,,,,,,,,,,,,61003848a370015d74d6b5d2,61036ea5cf576104d41a109d,2021-07-29_23h16.14.759,Simcolourproject_2stim_asymm_v5,2020.2.10,MacIntel,60,61025ae37ef11b136ea224fe,,,,,,,,,2332,15.80078125,60.8984375,1,0,0,response1disk,,7,15.80078125,15.59375,1,0,0,rectangle,15.80078125,15.59375,1,0,0,15.80078125,15.59375,1,0,0,1,72,232,86,1,,,,,,,,
,,,,,,,,,,,,,FF,,,,,,,,0.7178,,,,,,,,,,,,,,,,,,,,,,61003848a370015d74d6b5d2,61036ea5cf576104d41a109d,2021-07-29_23h16.14.759,Simcolourproject_2stim_asymm_v5,2020.2.10,MacIntel,60,61025ae37ef11b136ea224fe,,,,,,,,,1407,28.015625,57.31640625,1,0,0,response1disk,,7,14.66796875,-9.5859375,1,0,0,rectangle,14.66796875,-9.5859375,1,0,0,14.66796875,-9.5859375,1,0,0,1,73,233,32,1,,,,,,,,
,,,,,,,,,,,,,FF,,,,,,,,0.6327,,,,,,,,,,,,,,,,,,,,,,61003848a370015d74d6b5d2,61036ea5cf576104d41a109d,2021-07-29_23h16.14.759,Simcolourproject_2stim_asymm_v5,2020.2.10,MacIntel,60,61025ae37ef11b136ea224fe,,,,,,,,,3064,56.41796875,-38.40625,1,0,0,response3disk,,5,6.55078125,-11.3515625,1,0,0,rectangle,6.55078125,-11.3515625,1,0,0,6.55078125,-11.3515625,1,0,0,1,74,234,45,1,,,,,,,,
,,,,,,,,,,,,,FF,,,,,,,,0.7014,,,,,,,,,,,,,,,,,,,,,,61003848a370015d74d6b5d2,61036ea5cf576104d41a109d,2021-07-29_23h16.14.759,Simcolourproject_2stim_asymm_v5,2020.2.10,MacIntel,60,61025ae37ef11b136ea224fe,,,,,,,,,846,37.62890625,55.04296875,1,0,0,response1disk,,7,23.2265625,-2.046875,1,0,0,rectangle,23.2265625,-2.046875,1,0,0,23.2265625,-2.046875,1,0,0,1,75,235,16,1,,,,,,,,
,,,,,,,,,,,,,FF,,,,,,,,0.5496,,,,,,,,,,,,,,,,,,,,,,61003848a370015d74d6b5d2,61036ea5cf576104d41a109d,2021-07-29_23h16.14.759,Simcolourproject_2stim_asymm_v5,2020.2.10,MacIntel,60,61025ae37ef11b136ea224fe,,,,,,,,,3132,32.7265625,63.609375,1,0,0,response1disk,,7,20.05078125,13.05078125,1,0,0,rectangle,20.05078125,13.05078125,1,0,0,20.05078125,13.05078125,1,0,0,1,76,236,79,1,,,,,,,,
,,,,,,,,,,,,,FF,,,,,,,,1.3166,,,,,,,,,,,,,,,,,,,,,,61003848a370015d74d6b5d2,61036ea5cf576104d41a109d,2021-07-29_23h16.14.759,Simcolourproject_2stim_asymm_v5,2020.2.10,MacIntel,60,61025ae37ef11b136ea224fe,,,,,,,,,73,75.79296875,-38.25390625,1,0,0,response3disk,,5,1.49609375,-2.08203125,1,0,0,rectangle,1.49609375,-2.08203125,1,0,0,1.49609375,-2.08203125,1,0,0,1,77,237,29,1,,,,,,,,
,,,,,,,,,,,,,FF,,,,,,,,0.8013,,,,,,,,,,,,,,,,,,,,,,61003848a370015d74d6b5d2,61036ea5cf576104d41a109d,2021-07-29_23h16.14.759,Simcolourproject_2stim_asymm_v5,2020.2.10,MacIntel,60,61025ae37ef11b136ea224fe,,,,,,,,,248,64.48828125,-27.359375,1,0,0,response3disk,,5,28.81640625,-13.30078125,1,0,0,rectangle,28.81640625,-13.30078125,1,0,0,28.81640625,-13.30078125,1,0,0,1,78,238,97,1,,,,,,,,
,,,,,,,,,,,,,FF,,,,,,,,0.8,,,,,,,,,,,,,,,,,,,,,,61003848a370015d74d6b5d2,61036ea5cf576104d41a109d,2021-07-29_23h16.14.759,Simcolourproject_2stim_asymm_v5,2020.2.10,MacIntel,60,61025ae37ef11b136ea224fe,,,,,,,,,1417,31.51171875,51.5,1,0,0,response1disk,,7,31.51171875,0.08203125,1,0,0,rectangle,31.51171875,0.08203125,1,0,0,31.51171875,0.08203125,1,0,0,1,79,239,112,1,,,,,,,,
,,,,,,,,,,,,,FF,,,,,,,,0.8151,,,,,,,,,,,,,,,,,,,,,,61003848a370015d74d6b5d2,61036ea5cf576104d41a109d,2021-07-29_23h16.14.759,Simcolourproject_2stim_asymm_v5,2020.2.10,MacIntel,60,61025ae37ef11b136ea224fe,,,,,,,,,98,75.03125,-44.46875,1,0,0,response3disk,,5,26.78125,-16.03515625,1,0,0,rectangle,26.78125,-16.03515625,1,0,0,26.78125,-16.03515625,1,0,0,1,80,240,3,1,,,,,,,,
,,,,,,,,,,,,,FF,,,,,,,,0.984,,,,,,,,,,,,,,,,,,,,,,61003848a370015d74d6b5d2,61036ea5cf576104d41a109d,2021-07-29_23h16.14.759,Simcolourproject_2stim_asymm_v5,2020.2.10,MacIntel,60,61025ae37ef11b136ea224fe,,,,,,,,,3017,27.53125,52.4296875,1,0,0,response1disk,,7,6.34375,14,1,0,0,rectangle,6.34375,14,1,0,0,6.34375,14,1,0,0,1,81,241,39,1,,,,,,,,
,,,,,,,,,,,,,FF,,,,,,,,0.633,,,,,,,,,,,,,,,,,,,,,,61003848a370015d74d6b5d2,61036ea5cf576104d41a109d,2021-07-29_23h16.14.759,Simcolourproject_2stim_asymm_v5,2020.2.10,MacIntel,60,61025ae37ef11b136ea224fe,,,,,,,,,1245,19.421875,55.78125,1,0,0,response1disk,,7,2.1796875,16.66796875,1,0,0,rectangle,2.1796875,16.66796875,1,0,0,2.1796875,16.66796875,1,0,0,1,82,242,11,1,,,,,,,,
,,,,,,,,,,,,,FF,,,,,,,,0.5666,,,,,,,,,,,,,,,,,,,,,,61003848a370015d74d6b5d2,61036ea5cf576104d41a109d,2021-07-29_23h16.14.759,Simcolourproject_2stim_asymm_v5,2020.2.10,MacIntel,60,61025ae37ef11b136ea224fe,,,,,,,,,3030,35.859375,55.8828125,1,0,0,response1disk,,7,11.1875,-14.06640625,1,0,0,rectangle,-77.78125,38.8671875,1,0,0,-25.2421875,11.59375,1,0,0,1,83,243,104,1,,response7disk_3,TRUE,1,1,"[208,244,102,127,171,113,110,15,69,42,119,289,70,4,48,62,82,261,224,195]",1.2336,rectangle
,,,,,,,,,,,,,FF,,,,,,,,1.0347,,,,,,,,,,,,,,,,,,,,,,61003848a370015d74d6b5d2,61036ea5cf576104d41a109d,2021-07-29_23h16.14.759,Simcolourproject_2stim_asymm_v5,2020.2.10,MacIntel,60,61025ae37ef11b136ea224fe,,,,,,,,,791,55.76953125,-40.6640625,1,0,0,response3disk,,5,-6.19140625,8.0546875,1,0,0,rectangle,-6.19140625,8.0546875,1,0,0,-6.19140625,8.0546875,1,0,0,1,84,244,109,1,,,,,,,,
,,,,,,,,,,,,,FF,,,,,,,,0.6493,,,,,,,,,,,,,,,,,,,,,,61003848a370015d74d6b5d2,61036ea5cf576104d41a109d,2021-07-29_23h16.14.759,Simcolourproject_2stim_asymm_v5,2020.2.10,MacIntel,60,61025ae37ef11b136ea224fe,,,,,,,,,1639,97.08203125,29.0390625,1,0,0,response1disk,,6,19.125,-3.62109375,1,0,0,rectangle,19.125,-3.62109375,1,0,0,19.125,-3.62109375,1,0,0,1,85,245,62,1,,,,,,,,
,,,,,,,,,,,,,FF,,,,,,,,0.5184,,,,,,,,,,,,,,,,,,,,,,61003848a370015d74d6b5d2,61036ea5cf576104d41a109d,2021-07-29_23h16.14.759,Simcolourproject_2stim_asymm_v5,2020.2.10,MacIntel,60,61025ae37ef11b136ea224fe,,,,,,,,,3363,28.89453125,48.31640625,1,0,0,response1disk,,7,19.2265625,14.96875,1,0,0,rectangle,19.2265625,14.96875,1,0,0,19.2265625,14.96875,1,0,0,1,86,246,10,1,,,,,,,,
,,,,,,,,,,,,,FF,,,,,,,,0.7317,,,,,,,,,,,,,,,,,,,,,,61003848a370015d74d6b5d2,61036ea5cf576104d41a109d,2021-07-29_23h16.14.759,Simcolourproject_2stim_asymm_v5,2020.2.10,MacIntel,60,61025ae37ef11b136ea224fe,,,,,,,,,300,75.46875,41.80078125,1,0,0,response1disk,,6,14.796875,5.84765625,1,0,0,rectangle,14.796875,5.84765625,1,0,0,14.796875,5.84765625,1,0,0,1,87,247,82,1,,,,,,,,
,,,,,,,,,,,,,FF,,,,,,,,0.6998,,,,,,,,,,,,,,,,,,,,,,61003848a370015d74d6b5d2,61036ea5cf576104d41a109d,2021-07-29_23h16.14.759,Simcolourproject_2stim_asymm_v5,2020.2.10,MacIntel,60,61025ae37ef11b136ea224fe,,,,,,,,,692,61.71875,26.734375,1,0,0,response1disk,,6,6.44921875,15.796875,1,0,0,rectangle,6.44921875,15.796875,1,0,0,6.44921875,15.796875,1,0,0,1,88,248,159,1,,,,,,,,
