key_resp.keys,key_resp.rt,key_resp_14.keys,key_resp_14.rt,key_resp_15.keys,key_resp_15.rt,key_resp_17.keys,key_resp_17.rt,key_resp_9.keys,key_resp_9.rt,key_resp_10.keys,key_resp_10.rt,practice_comparison,Ecc,mouse_5.x,mouse_5.y,mouse_5.leftButton,mouse_5.midButton,mouse_5.rightButton,mouse_5.clicked_name,pracsimilarity,response_time,mouse_10.x,mouse_10.y,mouse_10.leftButton,mouse_10.midButton,mouse_10.rightButton,mouse_10.clicked_name,mouse_7.x,mouse_7.y,mouse_7.leftButton,mouse_7.midButton,mouse_7.rightButton,mouse_6.x,mouse_6.y,mouse_6.leftButton,mouse_6.midButton,mouse_6.rightButton,duringprac.thisRepN,duringprac.thisTrialN,duringprac.thisN,duringprac.thisIndex,duringprac.ran,participant,session,date,expName,psychopyVersion,OS,frameRate,study_id,mouse_7.clicked_name,catchpracsimilarity,catch_response_time,catchnumberprac,catchtrialorderprac,mouse_6.clicked_name,key_resp_22.keys,key_resp_22.rt,realcomparison,mouse.x,mouse.y,mouse.leftButton,mouse.midButton,mouse.rightButton,mouse.clicked_name,Colour2,similarity,mouse_2.x,mouse_2.y,mouse_2.leftButton,mouse_2.midButton,mouse_2.rightButton,mouse_2.clicked_name,mouse_3.x,mouse_3.y,mouse_3.leftButton,mouse_3.midButton,mouse_3.rightButton,mouse_11.x,mouse_11.y,mouse_11.leftButton,mouse_11.midButton,mouse_11.rightButton,trials_2.thisRepN,trials_2.thisTrialN,trials_2.thisN,trials_2.thisIndex,trials_2.ran,Colour1,mouse_3.clicked_name,catchornah,catchsimilarity,catchnumber,catchtrialorder,catchRT,mouse_11.clicked_name
space,1.115,space,8.2257,space,15.6981,space,3.878,space,1.0515,space,3.8368,85,PF,49.11397702,-100.7983966,1,0,0,response3disk_5,4,12.0836,-1.604383111,-7.428961626,1,0,0,rectangle_8,-1.604383111,-7.428961626,1,0,0,-1.604383111,-7.428961626,1,0,0,0,0,0,6,1,610092cd118be400cb5a66fa,61036b6f59129d8a6f89f1a0,2021-07-29_22h05.14.943,Simcolourproject_2stim_asymm_v5,2020.2.10,Linux x86_64,60,61025ae37ef11b136ea224fe,,,,,,,,,,,,,,,,,,,,,,,,,,,,,,,,,,,,,,,,,,,,,,
,,,,,,,,,,,,144,PF,40.54810775,121.5207717,1,0,0,response1disk_5,7,4.2323,-6.64647303,-1.449371693,1,0,0,rectangle_8,-64.99432546,33.50424211,1,0,0,-11.84266451,2.746526807,1,0,0,0,1,1,2,1,610092cd118be400cb5a66fa,61036b6f59129d8a6f89f1a0,2021-07-29_22h05.14.943,Simcolourproject_2stim_asymm_v5,2020.2.10,Linux x86_64,60,61025ae37ef11b136ea224fe,response7disk_7,1,5.1182,1,"[2,5]",rectangle_4,,,,,,,,,,,,,,,,,,,,,,,,,,,,,,,,,,,,,,,,
,,,,,,,,,,,,45,FF,-40.97367081,131.3353471,1,0,0,response7disk_5,0,3.0182,-10.87821137,-14.63096369,1,0,0,rectangle_8,-10.87821137,-14.63096369,1,0,0,-10.87821137,-14.63096369,1,0,0,0,2,2,3,1,610092cd118be400cb5a66fa,61036b6f59129d8a6f89f1a0,2021-07-29_22h05.14.943,Simcolourproject_2stim_asymm_v5,2020.2.10,Linux x86_64,60,61025ae37ef11b136ea224fe,,,,,,,,,,,,,,,,,,,,,,,,,,,,,,,,,,,,,,,,,,,,,,
,,,,,,,,,,,,153,PF,96.38409491,46.87387121,1,0,0,response1disk_5,6,8.4669,8.617443213,-3.449420551,1,0,0,rectangle_8,8.617443213,-3.449420551,1,0,0,8.617443213,-3.449420551,1,0,0,0,3,3,1,1,610092cd118be400cb5a66fa,61036b6f59129d8a6f89f1a0,2021-07-29_22h05.14.943,Simcolourproject_2stim_asymm_v5,2020.2.10,Linux x86_64,60,61025ae37ef11b136ea224fe,,,,,,,,,,,,,,,,,,,,,,,,,,,,,,,,,,,,,,,,,,,,,,
,,,,,,,,,,,,96,PF,-99.30614238,-36.87012417,1,0,0,response5disk_5,2,8.9663,9.877990107,-12.32954764,1,0,0,rectangle_8,-95.10062474,60.6556097,1,0,0,-4.050818694,-10.32549487,1,0,0,0,4,4,4,1,610092cd118be400cb5a66fa,61036b6f59129d8a6f89f1a0,2021-07-29_22h05.14.943,Simcolourproject_2stim_asymm_v5,2020.2.10,Linux x86_64,60,61025ae37ef11b136ea224fe,response7disk_7,1,2.7328,1,"[2,5]",rectangle_4,,,,,,,,,,,,,,,,,,,,,,,,,,,,,,,,,,,,,,,,
,,,,,,,,,,,,54,FF,45.40489493,119.010469,1,0,0,response1disk_5,7,3.199,7.755089685,8.517474158,1,0,0,rectangle_8,7.755089685,8.517474158,1,0,0,7.755089685,8.517474158,1,0,0,0,5,5,5,1,610092cd118be400cb5a66fa,61036b6f59129d8a6f89f1a0,2021-07-29_22h05.14.943,Simcolourproject_2stim_asymm_v5,2020.2.10,Linux x86_64,60,61025ae37ef11b136ea224fe,,,,,,,,,,,,,,,,,,,,,,,,,,,,,,,,,,,,,,,,,,,,,,
,,,,,,,,,,,,99,FF,28.20040249,-76.99932399,1,0,0,response3disk_5,4,2.634,2.261730228,-6.088727231,1,0,0,rectangle_8,2.261730228,-6.088727231,1,0,0,2.261730228,-6.088727231,1,0,0,0,6,6,0,1,610092cd118be400cb5a66fa,61036b6f59129d8a6f89f1a0,2021-07-29_22h05.14.943,Simcolourproject_2stim_asymm_v5,2020.2.10,Linux x86_64,60,61025ae37ef11b136ea224fe,,,,,,,,,,,,,,,,,,,,,,,,,,,,,,,,,,,,,,,,,,,,,,
,,,,,,,,,,,,,FF,,,,,,,,5.6507,,,,,,,,,,,,,,,,,,,,,,610092cd118be400cb5a66fa,61036b6f59129d8a6f89f1a0,2021-07-29_22h05.14.943,Simcolourproject_2stim_asymm_v5,2020.2.10,Linux x86_64,60,61025ae37ef11b136ea224fe,,,,,,,space,3.0467,2781,-56.19862221,-74.5344802,1,0,0,response5disk,,3,9.978136593,-13.86109063,1,0,0,rectangle,9.978136593,-13.86109063,1,0,0,9.978136593,-13.86109063,1,0,0,0,0,0,89,1,,,,,,,,
,,,,,,,,,,,,,FF,,,,,,,,3.9004,,,,,,,,,,,,,,,,,,,,,,610092cd118be400cb5a66fa,61036b6f59129d8a6f89f1a0,2021-07-29_22h05.14.943,Simcolourproject_2stim_asymm_v5,2020.2.10,Linux x86_64,60,61025ae37ef11b136ea224fe,,,,,,,,,328,72.51612581,108.6898145,1,0,0,response1disk,,7,14.06622259,4.532513161,1,0,0,rectangle,14.06622259,4.532513161,1,0,0,14.06622259,4.532513161,1,0,0,0,1,1,140,1,,,,,,,,
,,,,,,,,,,,,,FF,,,,,,,,3.6666,,,,,,,,,,,,,,,,,,,,,,610092cd118be400cb5a66fa,61036b6f59129d8a6f89f1a0,2021-07-29_22h05.14.943,Simcolourproject_2stim_asymm_v5,2020.2.10,Linux x86_64,60,61025ae37ef11b136ea224fe,,,,,,,,,3109,79.55938763,-33.93823936,1,0,0,response3disk,,5,11.59039248,-10.52173511,1,0,0,rectangle,11.59039248,-10.52173511,1,0,0,11.59039248,-10.52173511,1,0,0,0,2,2,91,1,,,,,,,,
,,,,,,,,,,,,,FF,,,,,,,,1.2017,,,,,,,,,,,,,,,,,,,,,,610092cd118be400cb5a66fa,61036b6f59129d8a6f89f1a0,2021-07-29_22h05.14.943,Simcolourproject_2stim_asymm_v5,2020.2.10,Linux x86_64,60,61025ae37ef11b136ea224fe,,,,,,,,,3879,37.67247294,64.28615175,1,0,0,response1disk,,7,2.401329839,10.37821637,1,0,0,rectangle,2.401329839,10.37821637,1,0,0,2.401329839,10.37821637,1,0,0,0,3,3,130,1,,,,,,,,
,,,,,,,,,,,,,FF,,,,,,,,3.7167,,,,,,,,,,,,,,,,,,,,,,610092cd118be400cb5a66fa,61036b6f59129d8a6f89f1a0,2021-07-29_22h05.14.943,Simcolourproject_2stim_asymm_v5,2020.2.10,Linux x86_64,60,61025ae37ef11b136ea224fe,,,,,,,,,1451,-45.13089743,-96.27754693,1,0,0,response5disk,,3,5.116808395,-2.092877562,1,0,0,rectangle,5.116808395,-2.092877562,1,0,0,5.116808395,-2.092877562,1,0,0,0,4,4,13,1,,,,,,,,
,,,,,,,,,,,,,FF,,,,,,,,2.1842,,,,,,,,,,,,,,,,,,,,,,610092cd118be400cb5a66fa,61036b6f59129d8a6f89f1a0,2021-07-29_22h05.14.943,Simcolourproject_2stim_asymm_v5,2020.2.10,Linux x86_64,60,61025ae37ef11b136ea224fe,,,,,,,,,2609,26.64581262,115.8961135,1,0,0,response1disk,,7,-5.47049645,10.95941755,1,0,0,rectangle,-5.47049645,10.95941755,1,0,0,-5.47049645,10.95941755,1,0,0,0,5,5,116,1,,,,,,,,
,,,,,,,,,,,,,FF,,,,,,,,1.0665,,,,,,,,,,,,,,,,,,,,,,610092cd118be400cb5a66fa,61036b6f59129d8a6f89f1a0,2021-07-29_22h05.14.943,Simcolourproject_2stim_asymm_v5,2020.2.10,Linux x86_64,60,61025ae37ef11b136ea224fe,,,,,,,,,296,29.79908415,64.49704042,1,0,0,response1disk,,7,17.02271678,-0.103961517,1,0,0,rectangle,17.02271678,-0.103961517,1,0,0,17.02271678,-0.103961517,1,0,0,0,6,6,115,1,,,,,,,,
,,,,,,,,,,,,,FF,,,,,,,,1.3003,,,,,,,,,,,,,,,,,,,,,,610092cd118be400cb5a66fa,61036b6f59129d8a6f89f1a0,2021-07-29_22h05.14.943,Simcolourproject_2stim_asymm_v5,2020.2.10,Linux x86_64,60,61025ae37ef11b136ea224fe,,,,,,,,,1381,73.85098911,43.21825593,1,0,0,response1disk,,6,6.354210758,6.151019045,1,0,0,rectangle,6.354210758,6.151019045,1,0,0,6.354210758,6.151019045,1,0,0,0,7,7,0,1,,,,,,,,
,,,,,,,,,,,,,FF,,,,,,,,0.9494,,,,,,,,,,,,,,,,,,,,,,610092cd118be400cb5a66fa,61036b6f59129d8a6f89f1a0,2021-07-29_22h05.14.943,Simcolourproject_2stim_asymm_v5,2020.2.10,Linux x86_64,60,61025ae37ef11b136ea224fe,,,,,,,,,33,28.69776578,62.6449652,1,0,0,response1disk,,7,-4.004627287,-2.932770153,1,0,0,rectangle,-4.004627287,-2.932770153,1,0,0,-4.004627287,-2.932770153,1,0,0,0,8,8,27,1,,,,,,,,
,,,,,,,,,,,,,FF,,,,,,,,0.7837,,,,,,,,,,,,,,,,,,,,,,610092cd118be400cb5a66fa,61036b6f59129d8a6f89f1a0,2021-07-29_22h05.14.943,Simcolourproject_2stim_asymm_v5,2020.2.10,Linux x86_64,60,61025ae37ef11b136ea224fe,,,,,,,,,1714,54.19581303,97.16867177,1,0,0,response1disk,,7,-4.197742525,4.250579564,1,0,0,rectangle,-4.197742525,4.250579564,1,0,0,-4.197742525,4.250579564,1,0,0,0,9,9,60,1,,,,,,,,
,,,,,,,,,,,,,FF,,,,,,,,0.8342,,,,,,,,,,,,,,,,,,,,,,610092cd118be400cb5a66fa,61036b6f59129d8a6f89f1a0,2021-07-29_22h05.14.943,Simcolourproject_2stim_asymm_v5,2020.2.10,Linux x86_64,60,61025ae37ef11b136ea224fe,,,,,,,,,3686,41.06490463,74.51625444,1,0,0,response1disk,,7,2.410118902,5.490325676,1,0,0,rectangle,2.410118902,5.490325676,1,0,0,2.410118902,5.490325676,1,0,0,0,10,10,20,1,,,,,,,,
,,,,,,,,,,,,,FF,,,,,,,,0.7999,,,,,,,,,,,,,,,,,,,,,,610092cd118be400cb5a66fa,61036b6f59129d8a6f89f1a0,2021-07-29_22h05.14.943,Simcolourproject_2stim_asymm_v5,2020.2.10,Linux x86_64,60,61025ae37ef11b136ea224fe,,,,,,,,,1244,36.11241433,72.27975538,1,0,0,response1disk,,7,-10.96292817,-8.449957735,1,0,0,rectangle,-10.96292817,-8.449957735,1,0,0,-10.96292817,-8.449957735,1,0,0,0,11,11,36,1,,,,,,,,
,,,,,,,,,,,,,FF,,,,,,,,1.6333,,,,,,,,,,,,,,,,,,,,,,610092cd118be400cb5a66fa,61036b6f59129d8a6f89f1a0,2021-07-29_22h05.14.943,Simcolourproject_2stim_asymm_v5,2020.2.10,Linux x86_64,60,61025ae37ef11b136ea224fe,,,,,,,,,2407,62.27862565,50.86061444,1,0,0,response1disk,,6,16.75216013,12.3566832,1,0,0,rectangle,16.75216013,12.3566832,1,0,0,16.75216013,12.3566832,1,0,0,0,12,12,51,1,,,,,,,,
,,,,,,,,,,,,,FF,,,,,,,,2.0336,,,,,,,,,,,,,,,,,,,,,,610092cd118be400cb5a66fa,61036b6f59129d8a6f89f1a0,2021-07-29_22h05.14.943,Simcolourproject_2stim_asymm_v5,2020.2.10,Linux x86_64,60,61025ae37ef11b136ea224fe,,,,,,,,,4167,78.50694621,-61.14834719,1,0,0,response3disk,,5,12.44532413,-12.55923514,1,0,0,rectangle,12.44532413,-12.55923514,1,0,0,12.44532413,-12.55923514,1,0,0,0,13,13,67,1,,,,,,,,
,,,,,,,,,,,,,FF,,,,,,,,1.6822,,,,,,,,,,,,,,,,,,,,,,610092cd118be400cb5a66fa,61036b6f59129d8a6f89f1a0,2021-07-29_22h05.14.943,Simcolourproject_2stim_asymm_v5,2020.2.10,Linux x86_64,60,61025ae37ef11b136ea224fe,,,,,,,,,1908,46.36885979,57.82118583,1,0,0,response1disk,,7,-1.159558886,-6.309039734,1,0,0,rectangle,-1.159558886,-6.309039734,1,0,0,-1.159558886,-6.309039734,1,0,0,0,14,14,146,1,,,,,,,,
,,,,,,,,,,,,,FF,,,,,,,,1.6995,,,,,,,,,,,,,,,,,,,,,,610092cd118be400cb5a66fa,61036b6f59129d8a6f89f1a0,2021-07-29_22h05.14.943,Simcolourproject_2stim_asymm_v5,2020.2.10,Linux x86_64,60,61025ae37ef11b136ea224fe,,,,,,,,,3814,54.54874273,-99.89449035,1,0,0,response3disk,,4,4.150597443,-14.68154962,1,0,0,rectangle,4.150597443,-14.68154962,1,0,0,4.150597443,-14.68154962,1,0,0,0,15,15,49,1,,,,,,,,
,,,,,,,,,,,,,FF,,,,,,,,2.7494,,,,,,,,,,,,,,,,,,,,,,610092cd118be400cb5a66fa,61036b6f59129d8a6f89f1a0,2021-07-29_22h05.14.943,Simcolourproject_2stim_asymm_v5,2020.2.10,Linux x86_64,60,61025ae37ef11b136ea224fe,,,,,,,,,2685,46.43868401,68.84149849,1,0,0,response1disk,,7,2.820861096,-1.371393176,1,0,0,rectangle,2.820861096,-1.371393176,1,0,0,2.820861096,-1.371393176,1,0,0,0,16,16,68,1,,,,,,,,
,,,,,,,,,,,,,FF,,,,,,,,0.984,,,,,,,,,,,,,,,,,,,,,,610092cd118be400cb5a66fa,61036b6f59129d8a6f89f1a0,2021-07-29_22h05.14.943,Simcolourproject_2stim_asymm_v5,2020.2.10,Linux x86_64,60,61025ae37ef11b136ea224fe,,,,,,,,,2264,58.54815685,88.448115,1,0,0,response1disk,,7,7.610949058,0.791546309,1,0,0,rectangle,7.610949058,0.791546309,1,0,0,7.610949058,0.791546309,1,0,0,0,17,17,90,1,,,,,,,,
,,,,,,,,,,,,,FF,,,,,,,,1.8824,,,,,,,,,,,,,,,,,,,,,,610092cd118be400cb5a66fa,61036b6f59129d8a6f89f1a0,2021-07-29_22h05.14.943,Simcolourproject_2stim_asymm_v5,2020.2.10,Linux x86_64,60,61025ae37ef11b136ea224fe,,,,,,,,,1688,95.80030584,44.86810947,1,0,0,response1disk,,6,8.460997898,-9.80244799,1,0,0,rectangle,8.460997898,-9.80244799,1,0,0,8.460997898,-9.80244799,1,0,0,0,18,18,57,1,,,,,,,,
,,,,,,,,,,,,,FF,,,,,,,,0.7,,,,,,,,,,,,,,,,,,,,,,610092cd118be400cb5a66fa,61036b6f59129d8a6f89f1a0,2021-07-29_22h05.14.943,Simcolourproject_2stim_asymm_v5,2020.2.10,Linux x86_64,60,61025ae37ef11b136ea224fe,,,,,,,,,2123,57.01846932,93.79701644,1,0,0,response1disk,,7,4.926232221,6.048089356,1,0,0,rectangle,4.926232221,6.048089356,1,0,0,4.926232221,6.048089356,1,0,0,0,19,19,65,1,,,,,,,,
,,,,,,,,,,,,,FF,,,,,,,,1.2508,,,,,,,,,,,,,,,,,,,,,,610092cd118be400cb5a66fa,61036b6f59129d8a6f89f1a0,2021-07-29_22h05.14.943,Simcolourproject_2stim_asymm_v5,2020.2.10,Linux x86_64,60,61025ae37ef11b136ea224fe,,,,,,,,,127,43.29913318,64.78820254,1,0,0,response1disk,,7,4.138878693,-8.322321014,1,0,0,rectangle,4.138878693,-8.322321014,1,0,0,4.138878693,-8.322321014,1,0,0,0,20,20,17,1,,,,,,,,
,,,,,,,,,,,,,FF,,,,,,,,1.1152,,,,,,,,,,,,,,,,,,,,,,610092cd118be400cb5a66fa,61036b6f59129d8a6f89f1a0,2021-07-29_22h05.14.943,Simcolourproject_2stim_asymm_v5,2020.2.10,Linux x86_64,60,61025ae37ef11b136ea224fe,,,,,,,,,2902,66.74239525,43.03197663,1,0,0,response1disk,,6,22.78565631,7.072063981,1,0,0,rectangle,-93.30760713,-70.95152117,1,0,0,-11.10492036,-10.05073901,1,0,0,0,21,21,38,1,,response5disk_3,TRUE,2,2,"[214,95,61,22,207,200,256,157,130,94,306,46,44,288,267,35,97,190,65,165]",4.2854,rectangle
,,,,,,,,,,,,,FF,,,,,,,,1.2672,,,,,,,,,,,,,,,,,,,,,,610092cd118be400cb5a66fa,61036b6f59129d8a6f89f1a0,2021-07-29_22h05.14.943,Simcolourproject_2stim_asymm_v5,2020.2.10,Linux x86_64,60,61025ae37ef11b136ea224fe,,,,,,,,,3252,81.07862593,50.04220622,1,0,0,response1disk,,6,5.49522637,-10.24038745,1,0,0,rectangle,5.49522637,-10.24038745,1,0,0,5.49522637,-10.24038745,1,0,0,0,22,22,52,1,,,,,,,,
,,,,,,,,,,,,,FF,,,,,,,,0.8282,,,,,,,,,,,,,,,,,,,,,,610092cd118be400cb5a66fa,61036b6f59129d8a6f89f1a0,2021-07-29_22h05.14.943,Simcolourproject_2stim_asymm_v5,2020.2.10,Linux x86_64,60,61025ae37ef11b136ea224fe,,,,,,,,,1140,48.59820553,73.46998977,1,0,0,response1disk,,7,0.416466528,9.365276905,1,0,0,rectangle,0.416466528,9.365276905,1,0,0,0.416466528,9.365276905,1,0,0,0,23,23,87,1,,,,,,,,
,,,,,,,,,,,,,FF,,,,,,,,0.8407,,,,,,,,,,,,,,,,,,,,,,610092cd118be400cb5a66fa,61036b6f59129d8a6f89f1a0,2021-07-29_22h05.14.943,Simcolourproject_2stim_asymm_v5,2020.2.10,Linux x86_64,60,61025ae37ef11b136ea224fe,,,,,,,,,2766,38.79512921,109.9072462,1,0,0,response1disk,,7,16.29195505,13.24149767,1,0,0,rectangle,16.29195505,13.24149767,1,0,0,16.29195505,13.24149767,1,0,0,0,24,24,4,1,,,,,,,,
,,,,,,,,,,,,,FF,,,,,,,,5.633,,,,,,,,,,,,,,,,,,,,,,610092cd118be400cb5a66fa,61036b6f59129d8a6f89f1a0,2021-07-29_22h05.14.943,Simcolourproject_2stim_asymm_v5,2020.2.10,Linux x86_64,60,61025ae37ef11b136ea224fe,,,,,,,,,1751,-95.24500951,29.1824647,1,0,0,response7disk,,1,-6.25492029,-8.055865932,1,0,0,rectangle,-6.25492029,-8.055865932,1,0,0,-6.25492029,-8.055865932,1,0,0,0,25,25,45,1,,,,,,,,
,,,,,,,,,,,,,FF,,,,,,,,0.85,,,,,,,,,,,,,,,,,,,,,,610092cd118be400cb5a66fa,61036b6f59129d8a6f89f1a0,2021-07-29_22h05.14.943,Simcolourproject_2stim_asymm_v5,2020.2.10,Linux x86_64,60,61025ae37ef11b136ea224fe,,,,,,,,,2328,24.73653525,48.64586831,1,0,0,response1disk,,7,-1.631726861,2.932659622,1,0,0,rectangle,-1.631726861,2.932659622,1,0,0,-1.631726861,2.932659622,1,0,0,0,26,26,59,1,,,,,,,,
,,,,,,,,,,,,,FF,,,,,,,,0.8169,,,,,,,,,,,,,,,,,,,,,,610092cd118be400cb5a66fa,61036b6f59129d8a6f89f1a0,2021-07-29_22h05.14.943,Simcolourproject_2stim_asymm_v5,2020.2.10,Linux x86_64,60,61025ae37ef11b136ea224fe,,,,,,,,,3657,30.97930878,81.69249966,1,0,0,response1disk,,7,-10.58836762,-3.698004539,1,0,0,rectangle,-10.58836762,-3.698004539,1,0,0,-10.58836762,-3.698004539,1,0,0,0,27,27,42,1,,,,,,,,
,,,,,,,,,,,,,FF,,,,,,,,1.7342,,,,,,,,,,,,,,,,,,,,,,610092cd118be400cb5a66fa,61036b6f59129d8a6f89f1a0,2021-07-29_22h05.14.943,Simcolourproject_2stim_asymm_v5,2020.2.10,Linux x86_64,60,61025ae37ef11b136ea224fe,,,,,,,,,2194,26.82569544,66.47064885,1,0,0,response1disk,,7,-9.334217211,-6.68169599,1,0,0,rectangle,-9.334217211,-6.68169599,1,0,0,-9.334217211,-6.68169599,1,0,0,0,28,28,66,1,,,,,,,,
,,,,,,,,,,,,,FF,,,,,,,,2.1001,,,,,,,,,,,,,,,,,,,,,,610092cd118be400cb5a66fa,61036b6f59129d8a6f89f1a0,2021-07-29_22h05.14.943,Simcolourproject_2stim_asymm_v5,2020.2.10,Linux x86_64,60,61025ae37ef11b136ea224fe,,,,,,,,,2946,-92.81546845,-31.32915729,1,0,0,response5disk,,2,-17.10111186,-5.169098311,1,0,0,rectangle,-17.10111186,-5.169098311,1,0,0,-17.10111186,-5.169098311,1,0,0,0,29,29,99,1,,,,,,,,
,,,,,,,,,,,,,FF,,,,,,,,1.5006,,,,,,,,,,,,,,,,,,,,,,610092cd118be400cb5a66fa,61036b6f59129d8a6f89f1a0,2021-07-29_22h05.14.943,Simcolourproject_2stim_asymm_v5,2020.2.10,Linux x86_64,60,61025ae37ef11b136ea224fe,,,,,,,,,2313,31.11470917,42.07514067,1,0,0,response1disk,,7,6.839806468,13.11781602,1,0,0,rectangle,6.839806468,13.11781602,1,0,0,6.839806468,13.11781602,1,0,0,0,30,30,92,1,,,,,,,,
,,,,,,,,,,,,,FF,,,,,,,,0.751,,,,,,,,,,,,,,,,,,,,,,610092cd118be400cb5a66fa,61036b6f59129d8a6f89f1a0,2021-07-29_22h05.14.943,Simcolourproject_2stim_asymm_v5,2020.2.10,Linux x86_64,60,61025ae37ef11b136ea224fe,,,,,,,,,183,39.64376203,58.61581475,1,0,0,response1disk,,7,1.044054428,11.31962264,1,0,0,rectangle,1.044054428,11.31962264,1,0,0,1.044054428,11.31962264,1,0,0,0,31,31,137,1,,,,,,,,
,,,,,,,,,,,,,FF,,,,,,,,0.6503,,,,,,,,,,,,,,,,,,,,,,610092cd118be400cb5a66fa,61036b6f59129d8a6f89f1a0,2021-07-29_22h05.14.943,Simcolourproject_2stim_asymm_v5,2020.2.10,Linux x86_64,60,61025ae37ef11b136ea224fe,,,,,,,,,2864,34.74410376,67.01508245,1,0,0,response1disk,,7,-8.241394929,12.60814805,1,0,0,rectangle,-8.241394929,12.60814805,1,0,0,-8.241394929,12.60814805,1,0,0,0,32,32,63,1,,,,,,,,
,,,,,,,,,,,,,FF,,,,,,,,2.3332,,,,,,,,,,,,,,,,,,,,,,610092cd118be400cb5a66fa,61036b6f59129d8a6f89f1a0,2021-07-29_22h05.14.943,Simcolourproject_2stim_asymm_v5,2020.2.10,Linux x86_64,60,61025ae37ef11b136ea224fe,,,,,,,,,3544,37.98223857,-74.53003684,1,0,0,response3disk,,4,1.097765367,-8.137799527,1,0,0,rectangle,1.097765367,-8.137799527,1,0,0,1.097765367,-8.137799527,1,0,0,0,33,33,148,1,,,,,,,,
,,,,,,,,,,,,,FF,,,,,,,,0.749,,,,,,,,,,,,,,,,,,,,,,610092cd118be400cb5a66fa,61036b6f59129d8a6f89f1a0,2021-07-29_22h05.14.943,Simcolourproject_2stim_asymm_v5,2020.2.10,Linux x86_64,60,61025ae37ef11b136ea224fe,,,,,,,,,327,35.62579322,80.8465768,1,0,0,response1disk,,7,-0.663758097,1.671868588,1,0,0,rectangle,111.0265756,63.6150824,1,0,0,-5.637635124,-8.613092503,1,0,0,0,34,34,71,1,,response1disk_3,TRUE,6,6,"[214,95,61,22,207,200,256,157,130,94,306,46,44,288,267,35,97,190,65,165]",4.0499,rectangle
,,,,,,,,,,,,,FF,,,,,,,,0.8498,,,,,,,,,,,,,,,,,,,,,,610092cd118be400cb5a66fa,61036b6f59129d8a6f89f1a0,2021-07-29_22h05.14.943,Simcolourproject_2stim_asymm_v5,2020.2.10,Linux x86_64,60,61025ae37ef11b136ea224fe,,,,,,,,,1583,43.17476795,81.57423794,1,0,0,response1disk,,7,-4.377869481,-8.182965544,1,0,0,rectangle,-4.377869481,-8.182965544,1,0,0,-4.377869481,-8.182965544,1,0,0,0,35,35,155,1,,,,,,,,
,,,,,,,,,,,,,FF,,,,,,,,2.8507,,,,,,,,,,,,,,,,,,,,,,610092cd118be400cb5a66fa,61036b6f59129d8a6f89f1a0,2021-07-29_22h05.14.943,Simcolourproject_2stim_asymm_v5,2020.2.10,Linux x86_64,60,61025ae37ef11b136ea224fe,,,,,,,,,2108,81.33194625,-38.66729217,1,0,0,response3disk,,5,-12.3037485,-14.63945978,1,0,0,rectangle,-12.3037485,-14.63945978,1,0,0,-12.3037485,-14.63945978,1,0,0,0,36,36,131,1,,,,,,,,
,,,,,,,,,,,,,FF,,,,,,,,0.7835,,,,,,,,,,,,,,,,,,,,,,610092cd118be400cb5a66fa,61036b6f59129d8a6f89f1a0,2021-07-29_22h05.14.943,Simcolourproject_2stim_asymm_v5,2020.2.10,Linux x86_64,60,61025ae37ef11b136ea224fe,,,,,,,,,4124,84.04493457,99.5993847,1,0,0,response1disk,,7,13.60264837,-3.792779931,1,0,0,rectangle,13.60264837,-3.792779931,1,0,0,13.60264837,-3.792779931,1,0,0,0,37,37,93,1,,,,,,,,
,,,,,,,,,,,,,FF,,,,,,,,0.7349,,,,,,,,,,,,,,,,,,,,,,610092cd118be400cb5a66fa,61036b6f59129d8a6f89f1a0,2021-07-29_22h05.14.943,Simcolourproject_2stim_asymm_v5,2020.2.10,Linux x86_64,60,61025ae37ef11b136ea224fe,,,,,,,,,1028,57.02257089,91.69411114,1,0,0,response1disk,,7,0.438976294,9.505901907,1,0,0,rectangle,0.438976294,9.505901907,1,0,0,0.438976294,9.505901907,1,0,0,0,38,38,76,1,,,,,,,,
,,,,,,,,,,,,,FF,,,,,,,,3.8513,,,,,,,,,,,,,,,,,,,,,,610092cd118be400cb5a66fa,61036b6f59129d8a6f89f1a0,2021-07-29_22h05.14.943,Simcolourproject_2stim_asymm_v5,2020.2.10,Linux x86_64,60,61025ae37ef11b136ea224fe,,,,,,,,,486,36.1116333,93.493927,1,0,0,response1disk,,7,-3.282775879,5.590332031,1,0,0,rectangle,-3.282775879,5.590332031,1,0,0,-3.282775879,5.590332031,1,0,0,0,39,39,73,1,,,,,,,,
,,,,,,,,,,,,,FF,,,,,,,,1.55,,,,,,,,,,,,,,,,,,,,,,610092cd118be400cb5a66fa,61036b6f59129d8a6f89f1a0,2021-07-29_22h05.14.943,Simcolourproject_2stim_asymm_v5,2020.2.10,Linux x86_64,60,61025ae37ef11b136ea224fe,,,,,,,,,2236,-110.6522217,-61.10845947,1,0,0,response5disk,,2,1.351745605,-7.518066406,1,0,0,rectangle,1.351745605,-7.518066406,1,0,0,1.351745605,-7.518066406,1,0,0,0,40,40,39,1,,,,,,,,
,,,,,,,,,,,,,FF,,,,,,,,1.1018,,,,,,,,,,,,,,,,,,,,,,610092cd118be400cb5a66fa,61036b6f59129d8a6f89f1a0,2021-07-29_22h05.14.943,Simcolourproject_2stim_asymm_v5,2020.2.10,Linux x86_64,60,61025ae37ef11b136ea224fe,,,,,,,,,3148,-77.82348633,42.98794556,1,0,0,response7disk,,1,15.64202881,-6.361480713,1,0,0,rectangle,15.64202881,-6.361480713,1,0,0,15.64202881,-6.361480713,1,0,0,0,41,41,26,1,,,,,,,,
,,,,,,,,,,,,,FF,,,,,,,,0.7878,,,,,,,,,,,,,,,,,,,,,,610092cd118be400cb5a66fa,61036b6f59129d8a6f89f1a0,2021-07-29_22h05.14.943,Simcolourproject_2stim_asymm_v5,2020.2.10,Linux x86_64,60,61025ae37ef11b136ea224fe,,,,,,,,,137,43.83605957,74.98794556,1,0,0,response1disk,,7,0.193115234,-3.662658691,1,0,0,rectangle,0.193115234,-3.662658691,1,0,0,0.193115234,-3.662658691,1,0,0,0,42,42,151,1,,,,,,,,
,,,,,,,,,,,,,FF,,,,,,,,1.3694,,,,,,,,,,,,,,,,,,,,,,610092cd118be400cb5a66fa,61036b6f59129d8a6f89f1a0,2021-07-29_22h05.14.943,Simcolourproject_2stim_asymm_v5,2020.2.10,Linux x86_64,60,61025ae37ef11b136ea224fe,,,,,,,,,3750,53.49163818,81.92770386,1,0,0,response1disk,,7,0.193115234,-7.518066406,1,0,0,rectangle,43.83605957,77.30117798,1,0,0,3.669128418,-2.891571045,1,0,0,0,43,43,85,1,,response1disk_3,TRUE,7,7,"[214,95,61,22,207,200,256,157,130,94,306,46,44,288,267,35,97,190,65,165]",1.9165,rectangle
,,,,,,,,,,,,,FF,,,,,,,,0.783,,,,,,,,,,,,,,,,,,,,,,610092cd118be400cb5a66fa,61036b6f59129d8a6f89f1a0,2021-07-29_22h05.14.943,Simcolourproject_2stim_asymm_v5,2020.2.10,Linux x86_64,60,61025ae37ef11b136ea224fe,,,,,,,,,1779,42.6774292,98.50601196,1,0,0,response1disk,,7,-21.4352417,-3.662658691,1,0,0,rectangle,-21.4352417,-3.662658691,1,0,0,-21.4352417,-3.662658691,1,0,0,0,44,44,156,1,,,,,,,,
,,,,,,,,,,,,,FF,,,,,,,,0.9175,,,,,,,,,,,,,,,,,,,,,,610092cd118be400cb5a66fa,61036b6f59129d8a6f89f1a0,2021-07-29_22h05.14.943,Simcolourproject_2stim_asymm_v5,2020.2.10,Linux x86_64,60,61025ae37ef11b136ea224fe,,,,,,,,,77,-38.04278564,98.89154053,1,0,0,response7disk,,0,2.124206543,-10.21688843,1,0,0,rectangle,-107.9487305,32.57827759,1,0,0,13.71087646,-10.60244751,1,0,0,0,45,45,40,1,,response7disk_3,TRUE,1,1,"[214,95,61,22,207,200,256,157,130,94,306,46,44,288,267,35,97,190,65,165]",2.2487,rectangle
,,,,,,,,,,,,,FF,,,,,,,,1.6,,,,,,,,,,,,,,,,,,,,,,610092cd118be400cb5a66fa,61036b6f59129d8a6f89f1a0,2021-07-29_22h05.14.943,Simcolourproject_2stim_asymm_v5,2020.2.10,Linux x86_64,60,61025ae37ef11b136ea224fe,,,,,,,,,1668,29.93206787,84.2409668,1,0,0,response1disk,,7,4.055358887,-9.831359863,1,0,0,rectangle,4.055358887,-9.831359863,1,0,0,4.055358887,-9.831359863,1,0,0,0,46,46,43,1,,,,,,,,
,,,,,,,,,,,,,FF,,,,,,,,0.7161,,,,,,,,,,,,,,,,,,,,,,610092cd118be400cb5a66fa,61036b6f59129d8a6f89f1a0,2021-07-29_22h05.14.943,Simcolourproject_2stim_asymm_v5,2020.2.10,Linux x86_64,60,61025ae37ef11b136ea224fe,,,,,,,,,2288,40.74627686,98.89154053,1,0,0,response1disk,,7,6.758850098,-1.734954834,1,0,0,rectangle,6.758850098,-1.734954834,1,0,0,6.758850098,-1.734954834,1,0,0,0,47,47,118,1,,,,,,,,
,,,,,,,,,,,,,FF,,,,,,,,4.4176,,,,,,,,,,,,,,,,,,,,,,610092cd118be400cb5a66fa,61036b6f59129d8a6f89f1a0,2021-07-29_22h05.14.943,Simcolourproject_2stim_asymm_v5,2020.2.10,Linux x86_64,60,61025ae37ef11b136ea224fe,,,,,,,,,3690,52.40821535,84.71205537,1,0,0,response1disk,,7,-8.961121502,-8.486139376,1,0,0,rectangle,-8.961121502,-8.486139376,1,0,0,-8.961121502,-8.486139376,1,0,0,0,48,48,41,1,,,,,,,,
,,,,,,,,,,,,,FF,,,,,,,,2.4331,,,,,,,,,,,,,,,,,,,,,,610092cd118be400cb5a66fa,61036b6f59129d8a6f89f1a0,2021-07-29_22h05.14.943,Simcolourproject_2stim_asymm_v5,2020.2.10,Linux x86_64,60,61025ae37ef11b136ea224fe,,,,,,,,,3774,46.23214104,101.5055127,1,0,0,response1disk,,7,9.339464708,5.489544426,1,0,0,rectangle,9.339464708,5.489544426,1,0,0,9.339464708,5.489544426,1,0,0,0,49,49,18,1,,,,,,,,
,,,,,,,,,,,,,FF,,,,,,,,2.4333,,,,,,,,,,,,,,,,,,,,,,610092cd118be400cb5a66fa,61036b6f59129d8a6f89f1a0,2021-07-29_22h05.14.943,Simcolourproject_2stim_asymm_v5,2020.2.10,Linux x86_64,60,61025ae37ef11b136ea224fe,,,,,,,,,261,-91.33446257,32.53920303,1,0,0,response7disk,,1,-9.570057058,-1.362311145,1,0,0,rectangle,-9.570057058,-1.362311145,1,0,0,-9.570057058,-1.362311145,1,0,0,0,50,50,108,1,,,,,,,,
,,,,,,,,,,,,,FF,,,,,,,,2.0162,,,,,,,,,,,,,,,,,,,,,,610092cd118be400cb5a66fa,61036b6f59129d8a6f89f1a0,2021-07-29_22h05.14.943,Simcolourproject_2stim_asymm_v5,2020.2.10,Linux x86_64,60,61025ae37ef11b136ea224fe,,,,,,,,,2427,-36.39110238,-84.32075965,1,0,0,response5disk,,3,-2.851599927,-6.970319041,1,0,0,rectangle,-2.851599927,-6.970319041,1,0,0,-2.851599927,-6.970319041,1,0,0,0,51,51,123,1,,,,,,,,
,,,,,,,,,,,,,FF,,,,,,,,2.4666,,,,,,,,,,,,,,,,,,,,,,610092cd118be400cb5a66fa,61036b6f59129d8a6f89f1a0,2021-07-29_22h05.14.943,Simcolourproject_2stim_asymm_v5,2020.2.10,Linux x86_64,60,61025ae37ef11b136ea224fe,,,,,,,,,4126,34.71505102,-91.57842577,1,0,0,response3disk,,4,12.21260928,8.198968294,1,0,0,rectangle,12.21260928,8.198968294,1,0,0,12.21260928,8.198968294,1,0,0,0,52,52,120,1,,,,,,,,
,,,,,,,,,,,,,FF,,,,,,,,6.7534,,,,,,,,,,,,,,,,,,,,,,610092cd118be400cb5a66fa,61036b6f59129d8a6f89f1a0,2021-07-29_22h05.14.943,Simcolourproject_2stim_asymm_v5,2020.2.10,Linux x86_64,60,61025ae37ef11b136ea224fe,,,,,,,,,1774,26.20909387,65.2037543,1,0,0,response1disk,,7,-3.866980801,-5.540485035,1,0,0,rectangle,-3.866980801,-5.540485035,1,0,0,-3.866980801,-5.540485035,1,0,0,0,53,53,19,1,,,,,,,,
,,,,,,,,,,,,,FF,,,,,,,,0.7163,,,,,,,,,,,,,,,,,,,,,,610092cd118be400cb5a66fa,61036b6f59129d8a6f89f1a0,2021-07-29_22h05.14.943,Simcolourproject_2stim_asymm_v5,2020.2.10,Linux x86_64,60,61025ae37ef11b136ea224fe,,,,,,,,,1493,47.63092036,62.77450622,1,0,0,response1disk,,7,-7.466248433,-14.31006524,1,0,0,rectangle,-7.466248433,-14.31006524,1,0,0,-7.466248433,-14.31006524,1,0,0,0,54,54,128,1,,,,,,,,
,,,,,,,,,,,,,FF,,,,,,,,0.7322,,,,,,,,,,,,,,,,,,,,,,610092cd118be400cb5a66fa,61036b6f59129d8a6f89f1a0,2021-07-29_22h05.14.943,Simcolourproject_2stim_asymm_v5,2020.2.10,Linux x86_64,60,61025ae37ef11b136ea224fe,,,,,,,,,1712,30.00338103,46.55819738,1,0,0,response1disk,,7,2.863243909,-5.65186199,1,0,0,rectangle,2.863243909,-5.65186199,1,0,0,2.863243909,-5.65186199,1,0,0,0,55,55,114,1,,,,,,,,
,,,,,,,,,,,,,FF,,,,,,,,0.7173,,,,,,,,,,,,,,,,,,,,,,610092cd118be400cb5a66fa,61036b6f59129d8a6f89f1a0,2021-07-29_22h05.14.943,Simcolourproject_2stim_asymm_v5,2020.2.10,Linux x86_64,60,61025ae37ef11b136ea224fe,,,,,,,,,4057,32.84351779,60.8720892,1,0,0,response1disk,,7,12.09664248,15.63417348,1,0,0,rectangle,12.09664248,15.63417348,1,0,0,12.09664248,15.63417348,1,0,0,0,56,56,158,1,,,,,,,,
,,,,,,,,,,,,,FF,,,,,,,,1.8345,,,,,,,,,,,,,,,,,,,,,,610092cd118be400cb5a66fa,61036b6f59129d8a6f89f1a0,2021-07-29_22h05.14.943,Simcolourproject_2stim_asymm_v5,2020.2.10,Linux x86_64,60,61025ae37ef11b136ea224fe,,,,,,,,,437,-87.83446252,-25.66206737,1,0,0,response5disk,,2,9.632042838,-6.844684274,1,0,0,rectangle,9.632042838,-6.844684274,1,0,0,9.632042838,-6.844684274,1,0,0,0,57,57,28,1,,,,,,,,
,,,,,,,,,,,,,FF,,,,,,,,0.8495,,,,,,,,,,,,,,,,,,,,,,610092cd118be400cb5a66fa,61036b6f59129d8a6f89f1a0,2021-07-29_22h05.14.943,Simcolourproject_2stim_asymm_v5,2020.2.10,Linux x86_64,60,61025ae37ef11b136ea224fe,,,,,,,,,1345,36.64351785,92.41488752,1,0,0,response1disk,,7,3.994835722,4.088323702,1,0,0,rectangle,3.994835722,4.088323702,1,0,0,3.994835722,4.088323702,1,0,0,0,58,58,145,1,,,,,,,,
,,,,,,,,,,,,,FF,,,,,,,,1.4007,,,,,,,,,,,,,,,,,,,,,,610092cd118be400cb5a66fa,61036b6f59129d8a6f89f1a0,2021-07-29_22h05.14.943,Simcolourproject_2stim_asymm_v5,2020.2.10,Linux x86_64,60,61025ae37ef11b136ea224fe,,,,,,,,,4004,26.76588098,62.44691832,1,0,0,response1disk,,7,-12.54325046,-6.470856143,1,0,0,rectangle,-12.54325046,-6.470856143,1,0,0,-12.54325046,-6.470856143,1,0,0,0,59,59,103,1,,,,,,,,
,,,,,,,,,,,,,FF,,,,,,,,0.7168,,,,,,,,,,,,,,,,,,,,,,610092cd118be400cb5a66fa,61036b6f59129d8a6f89f1a0,2021-07-29_22h05.14.943,Simcolourproject_2stim_asymm_v5,2020.2.10,Linux x86_64,60,61025ae37ef11b136ea224fe,,,,,,,,,89,30.84937714,48.5349064,1,0,0,response1disk,,7,4.755138468,1.304436942,1,0,0,rectangle,113.2241342,-17.711286,1,0,0,-26.54544794,-7.119684278,1,0,0,0,60,60,24,1,,response3disk_3,TRUE,5,5,"[214,95,61,22,207,200,256,157,130,94,306,46,44,288,267,35,97,190,65,165]",2.1493,rectangle
,,,,,,,,,,,,,FF,,,,,,,,0.7498,,,,,,,,,,,,,,,,,,,,,,610092cd118be400cb5a66fa,61036b6f59129d8a6f89f1a0,2021-07-29_22h05.14.943,Simcolourproject_2stim_asymm_v5,2020.2.10,Linux x86_64,60,61025ae37ef11b136ea224fe,,,,,,,,,2586,29.07989469,60.69061947,1,0,0,response1disk,,7,-11.97367037,9.364788624,1,0,0,rectangle,-11.97367037,9.364788624,1,0,0,-11.97367037,9.364788624,1,0,0,0,61,61,56,1,,,,,,,,
,,,,,,,,,,,,,FF,,,,,,,,0.8701,,,,,,,,,,,,,,,,,,,,,,610092cd118be400cb5a66fa,61036b6f59129d8a6f89f1a0,2021-07-29_22h05.14.943,Simcolourproject_2stim_asymm_v5,2020.2.10,Linux x86_64,60,61025ae37ef11b136ea224fe,,,,,,,,,1187,47.22852777,63.78646912,1,0,0,response1disk,,7,10.01568542,10.57572614,1,0,0,rectangle,10.01568542,10.57572614,1,0,0,10.01568542,10.57572614,1,0,0,0,62,62,77,1,,,,,,,,
,,,,,,,,,,,,,FF,,,,,,,,1.5326,,,,,,,,,,,,,,,,,,,,,,610092cd118be400cb5a66fa,61036b6f59129d8a6f89f1a0,2021-07-29_22h05.14.943,Simcolourproject_2stim_asymm_v5,2020.2.10,Linux x86_64,60,61025ae37ef11b136ea224fe,,,,,,,,,3585,-79.38451122,-37.15103238,1,0,0,response5disk,,2,-17.07767436,5.308099111,1,0,0,rectangle,-17.07767436,5.308099111,1,0,0,-17.07767436,5.308099111,1,0,0,0,63,63,54,1,,,,,,,,
,,,,,,,,,,,,,FF,,,,,,,,0.9326,,,,,,,,,,,,,,,,,,,,,,610092cd118be400cb5a66fa,61036b6f59129d8a6f89f1a0,2021-07-29_22h05.14.943,Simcolourproject_2stim_asymm_v5,2020.2.10,Linux x86_64,60,61025ae37ef11b136ea224fe,,,,,,,,,109,71.92579377,113.6390578,1,0,0,response1disk,,7,7.574230307,-12.43418631,1,0,0,rectangle,36.00762917,-68.79068129,1,0,0,5.002550581,-4.51314127,1,0,0,0,64,64,75,1,,response3disk_3,TRUE,4,4,"[214,95,61,22,207,200,256,157,130,94,306,46,44,288,267,35,97,190,65,165]",1.6349,rectangle
,,,,,,,,,,,,,FF,,,,,,,,2.8501,,,,,,,,,,,,,,,,,,,,,,610092cd118be400cb5a66fa,61036b6f59129d8a6f89f1a0,2021-07-29_22h05.14.943,Simcolourproject_2stim_asymm_v5,2020.2.10,Linux x86_64,60,61025ae37ef11b136ea224fe,,,,,,,,,432,88.90391902,-59.23946045,1,0,0,response3disk,,5,18.31324414,-10.6078191,1,0,0,rectangle,18.31324414,-10.6078191,1,0,0,18.31324414,-10.6078191,1,0,0,0,65,65,104,1,,,,,,,,
,,,,,,,,,,,,,FF,,,,,,,,1.6817,,,,,,,,,,,,,,,,,,,,,,610092cd118be400cb5a66fa,61036b6f59129d8a6f89f1a0,2021-07-29_22h05.14.943,Simcolourproject_2stim_asymm_v5,2020.2.10,Linux x86_64,60,61025ae37ef11b136ea224fe,,,,,,,,,530,35.14986548,68.11500923,1,0,0,response1disk,,7,12.48238468,4.96864598,1,0,0,rectangle,12.48238468,4.96864598,1,0,0,12.48238468,4.96864598,1,0,0,0,66,66,105,1,,,,,,,,
,,,,,,,,,,,,,FF,,,,,,,,0.6666,,,,,,,,,,,,,,,,,,,,,,610092cd118be400cb5a66fa,61036b6f59129d8a6f89f1a0,2021-07-29_22h05.14.943,Simcolourproject_2stim_asymm_v5,2020.2.10,Linux x86_64,60,61025ae37ef11b136ea224fe,,,,,,,,,4289,32.52349826,63.54904236,1,0,0,response1disk,,7,-0.653113566,-1.029742781,1,0,0,rectangle,-0.653113566,-1.029742781,1,0,0,-0.653113566,-1.029742781,1,0,0,0,67,67,127,1,,,,,,,,
,,,,,,,,,,,,,FF,,,,,,,,0.5988,,,,,,,,,,,,,,,,,,,,,,610092cd118be400cb5a66fa,61036b6f59129d8a6f89f1a0,2021-07-29_22h05.14.943,Simcolourproject_2stim_asymm_v5,2020.2.10,Linux x86_64,60,61025ae37ef11b136ea224fe,,,,,,,,,4243,46.72237542,83.46737762,1,0,0,response1disk,,7,8.548546728,7.915276884,1,0,0,rectangle,8.548546728,7.915276884,1,0,0,8.548546728,7.915276884,1,0,0,0,68,68,30,1,,,,,,,,
,,,,,,,,,,,,,FF,,,,,,,,0.8331,,,,,,,,,,,,,,,,,,,,,,610092cd118be400cb5a66fa,61036b6f59129d8a6f89f1a0,2021-07-29_22h05.14.943,Simcolourproject_2stim_asymm_v5,2020.2.10,Linux x86_64,60,61025ae37ef11b136ea224fe,,,,,,,,,111,33.50704319,88.04787085,1,0,0,response1disk,,7,4.390929478,10.91923201,1,0,0,rectangle,4.390929478,10.91923201,1,0,0,4.390929478,10.91923201,1,0,0,0,69,69,15,1,,,,,,,,
,,,,,,,,,,,,,FF,,,,,,,,0.6836,,,,,,,,,,,,,,,,,,,,,,610092cd118be400cb5a66fa,61036b6f59129d8a6f89f1a0,2021-07-29_22h05.14.943,Simcolourproject_2stim_asymm_v5,2020.2.10,Linux x86_64,60,61025ae37ef11b136ea224fe,,,,,,,,,554,24.51173056,43.37072175,1,0,0,response1disk,,7,3.403868917,1.272796316,1,0,0,rectangle,3.403868917,1.272796316,1,0,0,3.403868917,1.272796316,1,0,0,0,70,70,37,1,,,,,,,,
,,,,,,,,,,,,,FF,,,,,,,,3.8842,,,,,,,,,,,,,,,,,,,,,,610092cd118be400cb5a66fa,61036b6f59129d8a6f89f1a0,2021-07-29_22h05.14.943,Simcolourproject_2stim_asymm_v5,2020.2.10,Linux x86_64,60,61025ae37ef11b136ea224fe,,,,,,,,,194,104.7908333,-38.23902068,1,0,0,response3disk,,5,18.06715039,3.383636191,1,0,0,rectangle,18.06715039,3.383636191,1,0,0,18.06715039,3.383636191,1,0,0,0,71,71,84,1,,,,,,,,
,,,,,,,,,,,,,FF,,,,,,,,1.2341,,,,,,,,,,,,,,,,,,,,,,610092cd118be400cb5a66fa,61036b6f59129d8a6f89f1a0,2021-07-29_22h05.14.943,Simcolourproject_2stim_asymm_v5,2020.2.10,Linux x86_64,60,61025ae37ef11b136ea224fe,,,,,,,,,786,28.44171109,69.7112739,1,0,0,response1disk,,7,-6.038611693,8.991644087,1,0,0,rectangle,-6.038611693,8.991644087,1,0,0,-6.038611693,8.991644087,1,0,0,0,72,72,132,1,,,,,,,,
,,,,,,,,,,,,,FF,,,,,,,,0.8015,,,,,,,,,,,,,,,,,,,,,,610092cd118be400cb5a66fa,61036b6f59129d8a6f89f1a0,2021-07-29_22h05.14.943,Simcolourproject_2stim_asymm_v5,2020.2.10,Linux x86_64,60,61025ae37ef11b136ea224fe,,,,,,,,,4125,26.04659386,59.37731378,1,0,0,response1disk,,7,-5.188172227,4.73314793,1,0,0,rectangle,-5.188172227,4.73314793,1,0,0,-5.188172227,4.73314793,1,0,0,0,73,73,16,1,,,,,,,,
,,,,,,,,,,,,,FF,,,,,,,,0.8166,,,,,,,,,,,,,,,,,,,,,,610092cd118be400cb5a66fa,61036b6f59129d8a6f89f1a0,2021-07-29_22h05.14.943,Simcolourproject_2stim_asymm_v5,2020.2.10,Linux x86_64,60,61025ae37ef11b136ea224fe,,,,,,,,,2448,23.69146688,51.66225019,1,0,0,response1disk,,7,0.563439187,9.161272996,1,0,0,rectangle,0.563439187,9.161272996,1,0,0,0.563439187,9.161272996,1,0,0,0,74,74,94,1,,,,,,,,
,,,,,,,,,,,,,FF,,,,,,,,0.8829,,,,,,,,,,,,,,,,,,,,,,610092cd118be400cb5a66fa,61036b6f59129d8a6f89f1a0,2021-07-29_22h05.14.943,Simcolourproject_2stim_asymm_v5,2020.2.10,Linux x86_64,60,61025ae37ef11b136ea224fe,,,,,,,,,628,32.85006076,50.00582927,1,0,0,response1disk,,7,9.931896358,3.016985795,1,0,0,rectangle,9.931896358,3.016985795,1,0,0,9.931896358,3.016985795,1,0,0,0,75,75,5,1,,,,,,,,
,,,,,,,,,,,,,FF,,,,,,,,1.185,,,,,,,,,,,,,,,,,,,,,,610092cd118be400cb5a66fa,61036b6f59129d8a6f89f1a0,2021-07-29_22h05.14.943,Simcolourproject_2stim_asymm_v5,2020.2.10,Linux x86_64,60,61025ae37ef11b136ea224fe,,,,,,,,,2673,32.04639864,64.3402289,1,0,0,response1disk,,7,6.39947443,1.688177182,1,0,0,rectangle,6.39947443,1.688177182,1,0,0,6.39947443,1.688177182,1,0,0,0,76,76,11,1,,,,,,,,
,,,,,,,,,,,,,FF,,,,,,,,0.7999,,,,,,,,,,,,,,,,,,,,,,610092cd118be400cb5a66fa,61036b6f59129d8a6f89f1a0,2021-07-29_22h05.14.943,Simcolourproject_2stim_asymm_v5,2020.2.10,Linux x86_64,60,61025ae37ef11b136ea224fe,,,,,,,,,2320,26.66407434,45.5469669,1,0,0,response1disk,,7,5.834191219,-3.019879529,1,0,0,rectangle,5.834191219,-3.019879529,1,0,0,5.834191219,-3.019879529,1,0,0,0,77,77,33,1,,,,,,,,
,,,,,,,,,,,,,FF,,,,,,,,0.8536,,,,,,,,,,,,,,,,,,,,,,610092cd118be400cb5a66fa,61036b6f59129d8a6f89f1a0,2021-07-29_22h05.14.943,Simcolourproject_2stim_asymm_v5,2020.2.10,Linux x86_64,60,61025ae37ef11b136ea224fe,,,,,,,,,2224,33.15631077,87.54760229,1,0,0,response1disk,,7,2.912804456,12.88563829,1,0,0,rectangle,2.912804456,12.88563829,1,0,0,2.912804456,12.88563829,1,0,0,0,78,78,136,1,,,,,,,,
,,,,,,,,,,,,,FF,,,,,,,,0.7002,,,,,,,,,,,,,,,,,,,,,,610092cd118be400cb5a66fa,61036b6f59129d8a6f89f1a0,2021-07-29_22h05.14.943,Simcolourproject_2stim_asymm_v5,2020.2.10,Linux x86_64,60,61025ae37ef11b136ea224fe,,,,,,,,,2450,29.30787321,46.21034581,1,0,0,response1disk,,7,-2.197498354,-13.18457695,1,0,0,rectangle,-2.197498354,-13.18457695,1,0,0,-2.197498354,-13.18457695,1,0,0,0,79,79,31,1,,,,,,,,
,,,,,,,,,,,,,FF,,,,,,,,1.3176,,,,,,,,,,,,,,,,,,,,,,610092cd118be400cb5a66fa,61036b6f59129d8a6f89f1a0,2021-07-29_22h05.14.943,Simcolourproject_2stim_asymm_v5,2020.2.10,Linux x86_64,60,61025ae37ef11b136ea224fe,,,,,,,,,2412,38.51534405,69.55429147,1,0,0,response1disk,,7,11.96876162,8.307024936,1,0,0,rectangle,11.96876162,8.307024936,1,0,0,11.96876162,8.307024936,1,0,0,0,80,80,111,1,,,,,,,,
,,,,,,,,,,,,,FF,,,,,,,,5.0835,,,,,,,,,,,,,,,,,,,,,,610092cd118be400cb5a66fa,61036b6f59129d8a6f89f1a0,2021-07-29_22h05.14.943,Simcolourproject_2stim_asymm_v5,2020.2.10,Linux x86_64,60,61025ae37ef11b136ea224fe,,,,,,,,,727,80.70284468,-51.01587634,1,0,0,response3disk,,5,29.18663297,-14.84331721,1,0,0,rectangle,29.18663297,-14.84331721,1,0,0,29.18663297,-14.84331721,1,0,0,0,81,81,48,1,,,,,,,,
,,,,,,,,,,,,,FF,,,,,,,,0.9647,,,,,,,,,,,,,,,,,,,,,,610092cd118be400cb5a66fa,61036b6f59129d8a6f89f1a0,2021-07-29_22h05.14.943,Simcolourproject_2stim_asymm_v5,2020.2.10,Linux x86_64,60,61025ae37ef11b136ea224fe,,,,,,,,,2403,29.18663297,48.43100014,1,0,0,response1disk,,7,10.8925409,-1.573004508,1,0,0,rectangle,10.8925409,-1.573004508,1,0,0,10.8925409,-1.573004508,1,0,0,0,82,82,133,1,,,,,,,,
,,,,,,,,,,,,,FF,,,,,,,,0.5998,,,,,,,,,,,,,,,,,,,,,,610092cd118be400cb5a66fa,61036b6f59129d8a6f89f1a0,2021-07-29_22h05.14.943,Simcolourproject_2stim_asymm_v5,2020.2.10,Linux x86_64,60,61025ae37ef11b136ea224fe,,,,,,,,,3087,32.00997286,81.7179147,1,0,0,response1disk,,7,10.98536317,10.4055113,1,0,0,rectangle,10.98536317,10.4055113,1,0,0,10.98536317,10.4055113,1,0,0,0,83,83,106,1,,,,,,,,
,,,,,,,,,,,,,FF,,,,,,,,0.7003,,,,,,,,,,,,,,,,,,,,,,610092cd118be400cb5a66fa,61036b6f59129d8a6f89f1a0,2021-07-29_22h05.14.943,Simcolourproject_2stim_asymm_v5,2020.2.10,Linux x86_64,60,61025ae37ef11b136ea224fe,,,,,,,,,2806,34.08101781,50.23773845,1,0,0,response1disk,,7,11.52496279,0.503509195,1,0,0,rectangle,11.52496279,0.503509195,1,0,0,11.52496279,0.503509195,1,0,0,0,84,84,83,1,,,,,,,,
,,,,,,,,,,,,,FF,,,,,,,,1.134,,,,,,,,,,,,,,,,,,,,,,610092cd118be400cb5a66fa,61036b6f59129d8a6f89f1a0,2021-07-29_22h05.14.943,Simcolourproject_2stim_asymm_v5,2020.2.10,Linux x86_64,60,61025ae37ef11b136ea224fe,,,,,,,,,305,30.31466033,51.80294844,1,0,0,response1disk,,7,10.05689636,11.50551131,1,0,0,rectangle,10.05689636,11.50551131,1,0,0,10.05689636,11.50551131,1,0,0,0,85,85,23,1,,,,,,,,
,,,,,,,,,,,,,FF,,,,,,,,0.8009,,,,,,,,,,,,,,,,,,,,,,610092cd118be400cb5a66fa,61036b6f59129d8a6f89f1a0,2021-07-29_22h05.14.943,Simcolourproject_2stim_asymm_v5,2020.2.10,Linux x86_64,60,61025ae37ef11b136ea224fe,,,,,,,,,3842,28.79014859,48.92824136,1,0,0,response1disk,,7,5.124474411,5.27294286,1,0,0,rectangle,5.124474411,5.27294286,1,0,0,5.124474411,5.27294286,1,0,0,0,86,86,72,1,,,,,,,,
,,,,,,,,,,,,,FF,,,,,,,,0.6333,,,,,,,,,,,,,,,,,,,,,,610092cd118be400cb5a66fa,61036b6f59129d8a6f89f1a0,2021-07-29_22h05.14.943,Simcolourproject_2stim_asymm_v5,2020.2.10,Linux x86_64,60,61025ae37ef11b136ea224fe,,,,,,,,,936,29.24410368,56.85265554,1,0,0,response1disk,,7,-3.536170249,-6.130279966,1,0,0,rectangle,-3.536170249,-6.130279966,1,0,0,-3.536170249,-6.130279966,1,0,0,0,87,87,100,1,,,,,,,,
,,,,,,,,,,,,,FF,,,,,,,,0.85,,,,,,,,,,,,,,,,,,,,,,610092cd118be400cb5a66fa,61036b6f59129d8a6f89f1a0,2021-07-29_22h05.14.943,Simcolourproject_2stim_asymm_v5,2020.2.10,Linux x86_64,60,61025ae37ef11b136ea224fe,,,,,,,,,2861,19.73384963,35.91708394,1,0,0,response1disk,,7,2.719200938,-3.977838528,1,0,0,rectangle,2.719200938,-3.977838528,1,0,0,2.719200938,-3.977838528,1,0,0,0,88,88,58,1,,,,,,,,
,,,,,,,,,,,,,FF,,,,,,,,2.5167,,,,,,,,,,,,,,,,,,,,,,610092cd118be400cb5a66fa,61036b6f59129d8a6f89f1a0,2021-07-29_22h05.14.943,Simcolourproject_2stim_asymm_v5,2020.2.10,Linux x86_64,60,61025ae37ef11b136ea224fe,,,,,,,,,104,114.3287241,48.96520425,1,0,0,response1disk,,6,33.40484593,7.712493678,1,0,0,rectangle,33.40484593,7.712493678,1,0,0,33.40484593,7.712493678,1,0,0,0,89,89,113,1,,,,,,,,
,,,,,,,,,,,,,FF,,,,,,,,0.7002,,,,,,,,,,,,,,,,,,,,,,610092cd118be400cb5a66fa,61036b6f59129d8a6f89f1a0,2021-07-29_22h05.14.943,Simcolourproject_2stim_asymm_v5,2020.2.10,Linux x86_64,60,61025ae37ef11b136ea224fe,,,,,,,,,27,31.24273652,49.37592203,1,0,0,response1disk,,7,14.65137885,4.321136205,1,0,0,rectangle,14.65137885,4.321136205,1,0,0,14.65137885,4.321136205,1,0,0,0,90,90,101,1,,,,,,,,
,,,,,,,,,,,,,FF,,,,,,,,2.1009,,,,,,,,,,,,,,,,,,,,,,610092cd118be400cb5a66fa,61036b6f59129d8a6f89f1a0,2021-07-29_22h05.14.943,Simcolourproject_2stim_asymm_v5,2020.2.10,Linux x86_64,60,61025ae37ef11b136ea224fe,,,,,,,,,4147,55.11993414,-65.36861093,1,0,0,response3disk,,4,22.32061725,-13.10801445,1,0,0,rectangle,22.32061725,-13.10801445,1,0,0,22.32061725,-13.10801445,1,0,0,0,91,91,117,1,,,,,,,,
,,,,,,,,,,,,,FF,,,,,,,,1.15,,,,,,,,,,,,,,,,,,,,,,610092cd118be400cb5a66fa,61036b6f59129d8a6f89f1a0,2021-07-29_22h05.14.943,Simcolourproject_2stim_asymm_v5,2020.2.10,Linux x86_64,60,61025ae37ef11b136ea224fe,,,,,,,,,4290,23.80831258,99.80275384,1,0,0,response1disk,,7,3.25215993,2.750628369,1,0,0,rectangle,3.25215993,2.750628369,1,0,0,3.25215993,2.750628369,1,0,0,0,92,92,98,1,,,,,,,,
,,,,,,,,,,,,,FF,,,,,,,,0.7658,,,,,,,,,,,,,,,,,,,,,,610092cd118be400cb5a66fa,61036b6f59129d8a6f89f1a0,2021-07-29_22h05.14.943,Simcolourproject_2stim_asymm_v5,2020.2.10,Linux x86_64,60,61025ae37ef11b136ea224fe,,,,,,,,,1924,29.19161344,60.36708431,1,0,0,response1disk,,7,-1.520398735,1.495110772,1,0,0,rectangle,41.83004136,-51.78965565,1,0,0,17.33673045,-8.991803446,1,0,0,0,93,93,14,1,,response3disk_3,TRUE,4,4,"[214,95,61,22,207,200,256,157,130,94,306,46,44,288,267,35,97,190,65,165]",1.6671,rectangle
,,,,,,,,,,,,,FF,,,,,,,,2.2008,,,,,,,,,,,,,,,,,,,,,,610092cd118be400cb5a66fa,61036b6f59129d8a6f89f1a0,2021-07-29_22h05.14.943,Simcolourproject_2stim_asymm_v5,2020.2.10,Linux x86_64,60,61025ae37ef11b136ea224fe,,,,,,,,,3599,74.1039188,-48.74810287,1,0,0,response3disk,,5,21.34039262,-13.32578789,1,0,0,rectangle,31.97579317,-99.21778135,1,0,0,-8.8173715,7.719671412,1,0,0,0,94,94,96,1,,response3disk_3,TRUE,4,4,"[214,95,61,22,207,200,256,157,130,94,306,46,44,288,267,35,97,190,65,165]",1.6501,rectangle
,,,,,,,,,,,,,FF,,,,,,,,1.1668,,,,,,,,,,,,,,,,,,,,,,610092cd118be400cb5a66fa,61036b6f59129d8a6f89f1a0,2021-07-29_22h05.14.943,Simcolourproject_2stim_asymm_v5,2020.2.10,Linux x86_64,60,61025ae37ef11b136ea224fe,,,,,,,,,1069,57.42237558,123.3656204,1,0,0,response1disk,,7,0.527892311,-13.08897148,1,0,0,rectangle,0.527892311,-13.08897148,1,0,0,0.527892311,-13.08897148,1,0,0,0,95,95,44,1,,,,,,,,
,,,,,,,,,,,,,FF,,,,,,,,21.1989,,,,,,,,,,,,,,,,,,,,,,610092cd118be400cb5a66fa,61036b6f59129d8a6f89f1a0,2021-07-29_22h05.14.943,Simcolourproject_2stim_asymm_v5,2020.2.10,Linux x86_64,60,61025ae37ef11b136ea224fe,,,,,,,,,3708,64.83028585,91.65895489,1,0,0,response1disk,,7,-1.387488577,-16.20020199,1,0,0,rectangle,59.93604749,-25.44151072,1,0,0,24.15084188,-15.22578791,1,0,0,0,96,96,88,1,,response3disk_3,TRUE,5,5,"[214,95,61,22,207,200,256,157,130,94,306,46,44,288,267,35,97,190,65,165]",1.3159,rectangle
,,,,,,,,,,,,,FF,,,,,,,,0.9497,,,,,,,,,,,,,,,,,,,,,,610092cd118be400cb5a66fa,61036b6f59129d8a6f89f1a0,2021-07-29_22h05.14.943,Simcolourproject_2stim_asymm_v5,2020.2.10,Linux x86_64,60,61025ae37ef11b136ea224fe,,,,,,,,,3133,68.63946559,84.53139131,1,0,0,response1disk,,7,18.73585157,3.513909631,1,0,0,rectangle,18.73585157,3.513909631,1,0,0,18.73585157,3.513909631,1,0,0,0,97,97,3,1,,,,,,,,
,,,,,,,,,,,,,FF,,,,,,,,1.1661,,,,,,,,,,,,,,,,,,,,,,610092cd118be400cb5a66fa,61036b6f59129d8a6f89f1a0,2021-07-29_22h05.14.943,Simcolourproject_2stim_asymm_v5,2020.2.10,Linux x86_64,60,61025ae37ef11b136ea224fe,,,,,,,,,2059,48.15235591,83.52108856,1,0,0,response1disk,,7,13.85933782,2.253997503,1,0,0,rectangle,13.85933782,2.253997503,1,0,0,13.85933782,2.253997503,1,0,0,0,98,98,150,1,,,,,,,,
,,,,,,,,,,,,,FF,,,,,,,,2.0166,,,,,,,,,,,,,,,,,,,,,,610092cd118be400cb5a66fa,61036b6f59129d8a6f89f1a0,2021-07-29_22h05.14.943,Simcolourproject_2stim_asymm_v5,2020.2.10,Linux x86_64,60,61025ae37ef11b136ea224fe,,,,,,,,,101,-77.52928659,-38.01587614,1,0,0,response5disk,,2,-13.89349462,-7.91265304,1,0,0,rectangle,-13.89349462,-7.91265304,1,0,0,-13.89349462,-7.91265304,1,0,0,0,99,99,74,1,,,,,,,,
,,,,,,,,,,,,,FF,,,,,,,,0.7333,,,,,,,,,,,,,,,,,,,,,,610092cd118be400cb5a66fa,61036b6f59129d8a6f89f1a0,2021-07-29_22h05.14.943,Simcolourproject_2stim_asymm_v5,2020.2.10,Linux x86_64,60,61025ae37ef11b136ea224fe,,,,,,,,,3892,44.41827382,78.20351035,1,0,0,response1disk,,7,0.494103248,7.178313982,1,0,0,rectangle,0.494103248,7.178313982,1,0,0,0.494103248,7.178313982,1,0,0,0,100,100,159,1,,,,,,,,
,,,,,,,,,,,,,FF,,,,,,,,1.3341,,,,,,,,,,,,,,,,,,,,,,610092cd118be400cb5a66fa,61036b6f59129d8a6f89f1a0,2021-07-29_22h05.14.943,Simcolourproject_2stim_asymm_v5,2020.2.10,Linux x86_64,60,61025ae37ef11b136ea224fe,,,,,,,,,2596,30.60753143,65.16823184,1,0,0,response1disk,,7,7.191613114,-0.773248636,1,0,0,rectangle,7.191613114,-0.773248636,1,0,0,7.191613114,-0.773248636,1,0,0,0,101,101,122,1,,,,,,,,
,,,,,,,,,,,,,FF,,,,,,,,1.0219,,,,,,,,,,,,,,,,,,,,,,610092cd118be400cb5a66fa,61036b6f59129d8a6f89f1a0,2021-07-29_22h05.14.943,Simcolourproject_2stim_asymm_v5,2020.2.10,Linux x86_64,60,61025ae37ef11b136ea224fe,,,,,,,,,797,64.6920166,97.34939575,1,0,0,response1disk,,7,3.669128418,-9.445800781,1,0,0,rectangle,3.669128418,-9.445800781,1,0,0,3.669128418,-9.445800781,1,0,0,0,102,102,95,1,,,,,,,,
,,,,,,,,,,,,,FF,,,,,,,,2.8338,,,,,,,,,,,,,,,,,,,,,,610092cd118be400cb5a66fa,61036b6f59129d8a6f89f1a0,2021-07-29_22h05.14.943,Simcolourproject_2stim_asymm_v5,2020.2.10,Linux x86_64,60,61025ae37ef11b136ea224fe,,,,,,,,,553,-36.88409424,-106.2169189,1,0,0,response5disk,,3,-0.965576172,-9.831359863,1,0,0,rectangle,-0.965576172,-9.831359863,1,0,0,-0.965576172,-9.831359863,1,0,0,0,103,103,34,1,,,,,,,,
,,,,,,,,,,,,,FF,,,,,,,,1.7167,,,,,,,,,,,,,,,,,,,,,,610092cd118be400cb5a66fa,61036b6f59129d8a6f89f1a0,2021-07-29_22h05.14.943,Simcolourproject_2stim_asymm_v5,2020.2.10,Linux x86_64,60,61025ae37ef11b136ea224fe,,,,,,,,,982,100.6105347,-42.21688843,1,0,0,response3disk,,5,-1.351745605,-9.060272217,1,0,0,rectangle,-1.351745605,-9.060272217,1,0,0,-1.351745605,-9.060272217,1,0,0,0,104,104,121,1,,,,,,,,
,,,,,,,,,,,,,FF,,,,,,,,0.5343,,,,,,,,,,,,,,,,,,,,,,610092cd118be400cb5a66fa,61036b6f59129d8a6f89f1a0,2021-07-29_22h05.14.943,Simcolourproject_2stim_asymm_v5,2020.2.10,Linux x86_64,60,61025ae37ef11b136ea224fe,,,,,,,,,2677,41.13250732,80,1,0,0,response1disk,,7,1.351745605,-10.60244751,1,0,0,rectangle,1.351745605,-10.60244751,1,0,0,1.351745605,-10.60244751,1,0,0,0,105,105,107,1,,,,,,,,
,,,,,,,,,,,,,FF,,,,,,,,0.9837,,,,,,,,,,,,,,,,,,,,,,610092cd118be400cb5a66fa,61036b6f59129d8a6f89f1a0,2021-07-29_22h05.14.943,Simcolourproject_2stim_asymm_v5,2020.2.10,Linux x86_64,60,61025ae37ef11b136ea224fe,,,,,,,,,1224,32.63568115,99.66262817,1,0,0,response1disk,,7,3.282897949,4.433746338,1,0,0,rectangle,3.282897949,4.433746338,1,0,0,3.282897949,4.433746338,1,0,0,0,106,106,97,1,,,,,,,,
,,,,,,,,,,,,,FF,,,,,,,,0.5019,,,,,,,,,,,,,,,,,,,,,,610092cd118be400cb5a66fa,61036b6f59129d8a6f89f1a0,2021-07-29_22h05.14.943,Simcolourproject_2stim_asymm_v5,2020.2.10,Linux x86_64,60,61025ae37ef11b136ea224fe,,,,,,,,,3574,40.74627686,81.92770386,1,0,0,response1disk,,7,0.579345703,-16.77108765,1,0,0,rectangle,0.579345703,-16.77108765,1,0,0,0.579345703,-16.77108765,1,0,0,0,107,107,157,1,,,,,,,,
,,,,,,,,,,,,,FF,,,,,,,,0.5173,,,,,,,,,,,,,,,,,,,,,,610092cd118be400cb5a66fa,61036b6f59129d8a6f89f1a0,2021-07-29_22h05.14.943,Simcolourproject_2stim_asymm_v5,2020.2.10,Linux x86_64,60,61025ae37ef11b136ea224fe,,,,,,,,,781,32.24945068,75.7590332,1,0,0,response1disk,,7,12.93841553,4.048187256,1,0,0,rectangle,12.93841553,4.048187256,1,0,0,12.93841553,4.048187256,1,0,0,0,108,108,138,1,,,,,,,,
,,,,,,,,,,,,,FF,,,,,,,,0.4684,,,,,,,,,,,,,,,,,,,,,,610092cd118be400cb5a66fa,61036b6f59129d8a6f89f1a0,2021-07-29_22h05.14.943,Simcolourproject_2stim_asymm_v5,2020.2.10,Linux x86_64,60,61025ae37ef11b136ea224fe,,,,,,,,,3722,38.42895508,90.40960693,1,0,0,response1disk,,7,19.50415039,-9.445800781,1,0,0,rectangle,19.50415039,-9.445800781,1,0,0,19.50415039,-9.445800781,1,0,0,0,109,109,149,1,,,,,,,,
,,,,,,,,,,,,,FF,,,,,,,,1.717,,,,,,,,,,,,,,,,,,,,,,610092cd118be400cb5a66fa,61036b6f59129d8a6f89f1a0,2021-07-29_22h05.14.943,Simcolourproject_2stim_asymm_v5,2020.2.10,Linux x86_64,60,61025ae37ef11b136ea224fe,,,,,,,,,1755,42.29119873,-98.12054443,1,0,0,response3disk,,4,2.89666748,-8.674713135,1,0,0,rectangle,2.89666748,-8.674713135,1,0,0,2.89666748,-8.674713135,1,0,0,0,110,110,8,1,,,,,,,,
,,,,,,,,,,,,,FF,,,,,,,,0.5339,,,,,,,,,,,,,,,,,,,,,,610092cd118be400cb5a66fa,61036b6f59129d8a6f89f1a0,2021-07-29_22h05.14.943,Simcolourproject_2stim_asymm_v5,2020.2.10,Linux x86_64,60,61025ae37ef11b136ea224fe,,,,,,,,,2129,53.49163818,66.1204834,1,0,0,response1disk,,7,16.02825928,-5.590393066,1,0,0,rectangle,16.02825928,-5.590393066,1,0,0,16.02825928,-5.590393066,1,0,0,0,111,111,154,1,,,,,,,,
,,,,,,,,,,,,,FF,,,,,,,,0.6168,,,,,,,,,,,,,,,,,,,,,,610092cd118be400cb5a66fa,61036b6f59129d8a6f89f1a0,2021-07-29_22h05.14.943,Simcolourproject_2stim_asymm_v5,2020.2.10,Linux x86_64,60,61025ae37ef11b136ea224fe,,,,,,,,,1019,57.74005127,88.48190308,1,0,0,response1disk,,7,11.77972412,-8.674713135,1,0,0,rectangle,11.77972412,-8.674713135,1,0,0,11.77972412,-8.674713135,1,0,0,0,112,112,81,1,,,,,,,,
,,,,,,,,,,,,,FF,,,,,,,,1.9495,,,,,,,,,,,,,,,,,,,,,,610092cd118be400cb5a66fa,61036b6f59129d8a6f89f1a0,2021-07-29_22h05.14.943,Simcolourproject_2stim_asymm_v5,2020.2.10,Linux x86_64,60,61025ae37ef11b136ea224fe,,,,,,,,,2287,54.65020752,90.79516602,1,0,0,response1disk,,7,4.441589355,-7.132537842,1,0,0,rectangle,4.441589355,-7.132537842,1,0,0,4.441589355,-7.132537842,1,0,0,0,113,113,139,1,,,,,,,,
,,,,,,,,,,,,,FF,,,,,,,,14.5162,,,,,,,,,,,,,,,,,,,,,,610092cd118be400cb5a66fa,61036b6f59129d8a6f89f1a0,2021-07-29_22h05.14.943,Simcolourproject_2stim_asymm_v5,2020.2.10,Linux x86_64,60,61025ae37ef11b136ea224fe,,,,,,,,,3429,35.33929443,102.3614197,1,0,0,response1disk,,7,6.758850098,-2.506072998,1,0,0,rectangle,6.758850098,-2.506072998,1,0,0,6.758850098,-2.506072998,1,0,0,0,114,114,125,1,,,,,,,,
,,,,,,,,,,,,,FF,,,,,,,,4.2532,,,,,,,,,,,,,,,,,,,,,,610092cd118be400cb5a66fa,61036b6f59129d8a6f89f1a0,2021-07-29_22h05.14.943,Simcolourproject_2stim_asymm_v5,2020.2.10,Linux x86_64,60,61025ae37ef11b136ea224fe,,,,,,,,,1302,44.60852051,88.86746216,1,0,0,response1disk,,7,-19.50415039,-10.60244751,1,0,0,rectangle,-19.50415039,-10.60244751,1,0,0,-19.50415039,-10.60244751,1,0,0,0,115,115,32,1,,,,,,,,
,,,,,,,,,,,,,FF,,,,,,,,0.6667,,,,,,,,,,,,,,,,,,,,,,610092cd118be400cb5a66fa,61036b6f59129d8a6f89f1a0,2021-07-29_22h05.14.943,Simcolourproject_2stim_asymm_v5,2020.2.10,Linux x86_64,60,61025ae37ef11b136ea224fe,,,,,,,,,2614,32.63568115,71.90359497,1,0,0,response1disk,,7,-9.07623291,-7.518066406,1,0,0,rectangle,-9.07623291,-7.518066406,1,0,0,-9.07623291,-7.518066406,1,0,0,0,116,116,21,1,,,,,,,,
,,,,,,,,,,,,,FF,,,,,,,,0.4502,,,,,,,,,,,,,,,,,,,,,,610092cd118be400cb5a66fa,61036b6f59129d8a6f89f1a0,2021-07-29_22h05.14.943,Simcolourproject_2stim_asymm_v5,2020.2.10,Linux x86_64,60,61025ae37ef11b136ea224fe,,,,,,,,,2253,34.5668335,81.54214478,1,0,0,response1disk,,7,2.89666748,-12.53012085,1,0,0,rectangle,2.89666748,-12.53012085,1,0,0,2.89666748,-12.53012085,1,0,0,0,117,117,112,1,,,,,,,,
,,,,,,,,,,,,,FF,,,,,,,,0.516,,,,,,,,,,,,,,,,,,,,,,610092cd118be400cb5a66fa,61036b6f59129d8a6f89f1a0,2021-07-29_22h05.14.943,Simcolourproject_2stim_asymm_v5,2020.2.10,Linux x86_64,60,61025ae37ef11b136ea224fe,,,,,,,,,1265,41.13250732,76.53005981,1,0,0,response1disk,,7,-0.965576172,-0.192779541,1,0,0,rectangle,-0.965576172,-0.192779541,1,0,0,-0.965576172,-0.192779541,1,0,0,0,118,118,46,1,,,,,,,,
,,,,,,,,,,,,,FF,,,,,,,,0.6857,,,,,,,,,,,,,,,,,,,,,,610092cd118be400cb5a66fa,61036b6f59129d8a6f89f1a0,2021-07-29_22h05.14.943,Simcolourproject_2stim_asymm_v5,2020.2.10,Linux x86_64,60,61025ae37ef11b136ea224fe,,,,,,,,,3269,25.68371582,86.93972778,1,0,0,response1disk,,7,0.965515137,-11.37350464,1,0,0,rectangle,0.965515137,-11.37350464,1,0,0,0.965515137,-11.37350464,1,0,0,0,119,119,126,1,,,,,,,,
,,,,,,,,,,,,,FF,,,,,,,,0.3999,,,,,,,,,,,,,,,,,,,,,,610092cd118be400cb5a66fa,61036b6f59129d8a6f89f1a0,2021-07-29_22h05.14.943,Simcolourproject_2stim_asymm_v5,2020.2.10,Linux x86_64,60,61025ae37ef11b136ea224fe,,,,,,,,,3758,35.72540283,94.65057373,1,0,0,response1disk,,7,0.193115234,-11.7590332,1,0,0,rectangle,0.193115234,-11.7590332,1,0,0,0.193115234,-11.7590332,1,0,0,0,120,120,119,1,,,,,,,,
,,,,,,,,,,,,,FF,,,,,,,,0.4345,,,,,,,,,,,,,,,,,,,,,,610092cd118be400cb5a66fa,61036b6f59129d8a6f89f1a0,2021-07-29_22h05.14.943,Simcolourproject_2stim_asymm_v5,2020.2.10,Linux x86_64,60,61025ae37ef11b136ea224fe,,,,,,,,,3666,31.09075928,78.45779419,1,0,0,response1disk,,7,6.758850098,-10.98794556,1,0,0,rectangle,6.758850098,-10.98794556,1,0,0,6.758850098,-10.98794556,1,0,0,0,121,121,7,1,,,,,,,,
,,,,,,,,,,,,,FF,,,,,,,,1.3333,,,,,,,,,,,,,,,,,,,,,,610092cd118be400cb5a66fa,61036b6f59129d8a6f89f1a0,2021-07-29_22h05.14.943,Simcolourproject_2stim_asymm_v5,2020.2.10,Linux x86_64,60,61025ae37ef11b136ea224fe,,,,,,,,,3741,-69.12430599,41.29054594,1,0,0,response7disk,,1,-31.35296754,10.79472029,1,0,0,rectangle,-31.35296754,10.79472029,1,0,0,-31.35296754,10.79472029,1,0,0,0,122,122,80,1,,,,,,,,
,,,,,,,,,,,,,FF,,,,,,,,0.8175,,,,,,,,,,,,,,,,,,,,,,610092cd118be400cb5a66fa,61036b6f59129d8a6f89f1a0,2021-07-29_22h05.14.943,Simcolourproject_2stim_asymm_v5,2020.2.10,Linux x86_64,60,61025ae37ef11b136ea224fe,,,,,,,,,400,32.94981662,77.72938925,1,0,0,response1disk,,7,7.587023276,2.537298288,1,0,0,rectangle,7.587023276,2.537298288,1,0,0,7.587023276,2.537298288,1,0,0,0,123,123,53,1,,,,,,,,
,,,,,,,,,,,,,FF,,,,,,,,0.7334,,,,,,,,,,,,,,,,,,,,,,610092cd118be400cb5a66fa,61036b6f59129d8a6f89f1a0,2021-07-29_22h05.14.943,Simcolourproject_2stim_asymm_v5,2020.2.10,Linux x86_64,60,61025ae37ef11b136ea224fe,,,,,,,,,1249,48.67257076,65.07741152,1,0,0,response1disk,,7,11.47022646,11.64730819,1,0,0,rectangle,11.47022646,11.64730819,1,0,0,11.47022646,11.64730819,1,0,0,0,124,124,6,1,,,,,,,,
,,,,,,,,,,,,,FF,,,,,,,,0.5669,,,,,,,,,,,,,,,,,,,,,,610092cd118be400cb5a66fa,61036b6f59129d8a6f89f1a0,2021-07-29_22h05.14.943,Simcolourproject_2stim_asymm_v5,2020.2.10,Linux x86_64,60,61025ae37ef11b136ea224fe,,,,,,,,,1624,34.59132055,48.1981144,1,0,0,response1disk,,7,-2.108289369,-5.675250662,1,0,0,rectangle,-2.108289369,-5.675250662,1,0,0,-2.108289369,-5.675250662,1,0,0,0,125,125,25,1,,,,,,,,
,,,,,,,,,,,,,FF,,,,,,,,0.4662,,,,,,,,,,,,,,,,,,,,,,610092cd118be400cb5a66fa,61036b6f59129d8a6f89f1a0,2021-07-29_22h05.14.943,Simcolourproject_2stim_asymm_v5,2020.2.10,Linux x86_64,60,61025ae37ef11b136ea224fe,,,,,,,,,3992,33.2751096,64.6291205,1,0,0,response1disk,,7,6.806603342,-7.68364913,1,0,0,rectangle,6.806603342,-7.68364913,1,0,0,6.806603342,-7.68364913,1,0,0,0,126,126,109,1,,,,,,,,
,,,,,,,,,,,,,FF,,,,,,,,1.8177,,,,,,,,,,,,,,,,,,,,,,610092cd118be400cb5a66fa,61036b6f59129d8a6f89f1a0,2021-07-29_22h05.14.943,Simcolourproject_2stim_asymm_v5,2020.2.10,Linux x86_64,60,61025ae37ef11b136ea224fe,,,,,,,,,1732,31.12745331,69.12323678,1,0,0,response1disk,,7,9.172081893,-12.04932302,1,0,0,rectangle,9.172081893,-12.04932302,1,0,0,9.172081893,-12.04932302,1,0,0,0,127,127,147,1,,,,,,,,
,,,,,,,,,,,,,FF,,,,,,,,2.1649,,,,,,,,,,,,,,,,,,,,,,610092cd118be400cb5a66fa,61036b6f59129d8a6f89f1a0,2021-07-29_22h05.14.943,Simcolourproject_2stim_asymm_v5,2020.2.10,Linux x86_64,60,61025ae37ef11b136ea224fe,,,,,,,,,378,96.83438789,-39.26719452,1,0,0,response3disk,,5,28.80758023,-0.425836522,1,0,0,rectangle,28.80758023,-0.425836522,1,0,0,28.80758023,-0.425836522,1,0,0,0,128,128,62,1,,,,,,,,
,,,,,,,,,,,,,FF,,,,,,,,0.5497,,,,,,,,,,,,,,,,,,,,,,610092cd118be400cb5a66fa,61036b6f59129d8a6f89f1a0,2021-07-29_22h05.14.943,Simcolourproject_2stim_asymm_v5,2020.2.10,Linux x86_64,60,61025ae37ef11b136ea224fe,,,,,,,,,2335,41.96407457,64.10976014,1,0,0,response1disk,,7,20.96002152,7.746917506,1,0,0,rectangle,-85.03714803,-46.382429,1,0,0,-17.79642437,-13.07905937,1,0,0,0,129,129,61,1,,response5disk_3,TRUE,2,2,"[214,95,61,22,207,200,256,157,130,94,306,46,44,288,267,35,97,190,65,165]",1.6501,rectangle
,,,,,,,,,,,,,FF,,,,,,,,5.5663,,,,,,,,,,,,,,,,,,,,,,610092cd118be400cb5a66fa,61036b6f59129d8a6f89f1a0,2021-07-29_22h05.14.943,Simcolourproject_2stim_asymm_v5,2020.2.10,Linux x86_64,60,61025ae37ef11b136ea224fe,,,,,,,,,3430,94.1976691,22.53602905,1,0,0,response1disk,,6,13.79937688,2.169964298,1,0,0,rectangle,13.79937688,2.169964298,1,0,0,13.79937688,2.169964298,1,0,0,0,130,130,142,1,,,,,,,,
,,,,,,,,,,,,,FF,,,,,,,,0.6846,,,,,,,,,,,,,,,,,,,,,,610092cd118be400cb5a66fa,61036b6f59129d8a6f89f1a0,2021-07-29_22h05.14.943,Simcolourproject_2stim_asymm_v5,2020.2.10,Linux x86_64,60,61025ae37ef11b136ea224fe,,,,,,,,,2051,37.62838115,73.55067825,1,0,0,response1disk,,7,13.89302923,13.06220079,1,0,0,rectangle,13.89302923,13.06220079,1,0,0,13.89302923,13.06220079,1,0,0,0,131,131,124,1,,,,,,,,
,,,,,,,,,,,,,FF,,,,,,,,0.8003,,,,,,,,,,,,,,,,,,,,,,610092cd118be400cb5a66fa,61036b6f59129d8a6f89f1a0,2021-07-29_22h05.14.943,Simcolourproject_2stim_asymm_v5,2020.2.10,Linux x86_64,60,61025ae37ef11b136ea224fe,,,,,,,,,3242,38.03292217,62.45558531,1,0,0,response1disk,,7,6.604992011,5.140813952,1,0,0,rectangle,6.604992011,5.140813952,1,0,0,6.604992011,5.140813952,1,0,0,0,132,132,22,1,,,,,,,,
,,,,,,,,,,,,,FF,,,,,,,,0.7653,,,,,,,,,,,,,,,,,,,,,,610092cd118be400cb5a66fa,61036b6f59129d8a6f89f1a0,2021-07-29_22h05.14.943,Simcolourproject_2stim_asymm_v5,2020.2.10,Linux x86_64,60,61025ae37ef11b136ea224fe,,,,,,,,,1163,27.10133021,61.54774839,1,0,0,response1disk,,7,14.80543159,-9.536530017,1,0,0,rectangle,14.80543159,-9.536530017,1,0,0,14.80543159,-9.536530017,1,0,0,0,133,133,135,1,,,,,,,,
,,,,,,,,,,,,,FF,,,,,,,,1.5821,,,,,,,,,,,,,,,,,,,,,,610092cd118be400cb5a66fa,61036b6f59129d8a6f89f1a0,2021-07-29_22h05.14.943,Simcolourproject_2stim_asymm_v5,2020.2.10,Linux x86_64,60,61025ae37ef11b136ea224fe,,,,,,,,,531,-37.43192271,-67.62715588,1,0,0,response5disk,,3,7.412560383,-15.64663753,1,0,0,rectangle,7.412560383,-15.64663753,1,0,0,7.412560383,-15.64663753,1,0,0,0,134,134,82,1,,,,,,,,
,,,,,,,,,,,,,FF,,,,,,,,0.5664,,,,,,,,,,,,,,,,,,,,,,610092cd118be400cb5a66fa,61036b6f59129d8a6f89f1a0,2021-07-29_22h05.14.943,Simcolourproject_2stim_asymm_v5,2020.2.10,Linux x86_64,60,61025ae37ef11b136ea224fe,,,,,,,,,3836,32.32759982,48.4231144,1,0,0,response1disk,,7,10.00079284,9.645355035,1,0,0,rectangle,10.00079284,9.645355035,1,0,0,10.00079284,9.645355035,1,0,0,0,135,135,70,1,,,,,,,,
,,,,,,,,,,,,,FF,,,,,,,,0.6837,,,,,,,,,,,,,,,,,,,,,,610092cd118be400cb5a66fa,61036b6f59129d8a6f89f1a0,2021-07-29_22h05.14.943,Simcolourproject_2stim_asymm_v5,2020.2.10,Linux x86_64,60,61025ae37ef11b136ea224fe,,,,,,,,,4063,32.34132052,52.32204024,1,0,0,response1disk,,7,5.214464647,6.997015151,1,0,0,rectangle,5.214464647,6.997015151,1,0,0,5.214464647,6.997015151,1,0,0,0,136,136,69,1,,,,,,,,
,,,,,,,,,,,,,FF,,,,,,,,2.0837,,,,,,,,,,,,,,,,,,,,,,610092cd118be400cb5a66fa,61036b6f59129d8a6f89f1a0,2021-07-29_22h05.14.943,Simcolourproject_2stim_asymm_v5,2020.2.10,Linux x86_64,60,61025ae37ef11b136ea224fe,,,,,,,,,3632,27.20479701,52.23822676,1,0,0,response1disk,,7,2.417931402,-4.314947908,1,0,0,rectangle,2.417931402,-4.314947908,1,0,0,2.417931402,-4.314947908,1,0,0,0,137,137,35,1,,,,,,,,
,,,,,,,,,,,,,FF,,,,,,,,0.5497,,,,,,,,,,,,,,,,,,,,,,610092cd118be400cb5a66fa,61036b6f59129d8a6f89f1a0,2021-07-29_22h05.14.943,Simcolourproject_2stim_asymm_v5,2020.2.10,Linux x86_64,60,61025ae37ef11b136ea224fe,,,,,,,,,3582,33.1693967,51.14845624,1,0,0,response1disk,,7,14.35250189,15.39916371,1,0,0,rectangle,14.35250189,15.39916371,1,0,0,14.35250189,15.39916371,1,0,0,0,138,138,141,1,,,,,,,,
,,,,,,,,,,,,,FF,,,,,,,,0.4319,,,,,,,,,,,,,,,,,,,,,,610092cd118be400cb5a66fa,61036b6f59129d8a6f89f1a0,2021-07-29_22h05.14.943,Simcolourproject_2stim_asymm_v5,2020.2.10,Linux x86_64,60,61025ae37ef11b136ea224fe,,,,,,,,,2467,38.68077374,55.91391041,1,0,0,response1disk,,7,-0.312781529,-9.456549547,1,0,0,rectangle,-0.312781529,-9.456549547,1,0,0,-0.312781529,-9.456549547,1,0,0,0,139,139,10,1,,,,,,,,
,,,,,,,,,,,,,FF,,,,,,,,0.4514,,,,,,,,,,,,,,,,,,,,,,610092cd118be400cb5a66fa,61036b6f59129d8a6f89f1a0,2021-07-29_22h05.14.943,Simcolourproject_2stim_asymm_v5,2020.2.10,Linux x86_64,60,61025ae37ef11b136ea224fe,,,,,,,,,1731,28.8991818,51.03810467,1,0,0,response1disk,,7,7.993126798,0.805022872,1,0,0,rectangle,7.993126798,0.805022872,1,0,0,7.993126798,0.805022872,1,0,0,0,140,140,29,1,,,,,,,,
,,,,,,,,,,,,,FF,,,,,,,,0.4663,,,,,,,,,,,,,,,,,,,,,,610092cd118be400cb5a66fa,61036b6f59129d8a6f89f1a0,2021-07-29_22h05.14.943,Simcolourproject_2stim_asymm_v5,2020.2.10,Linux x86_64,60,61025ae37ef11b136ea224fe,,,,,,,,,311,27.03267786,41.05529203,1,0,0,response1disk,,7,6.488488103,1.352727958,1,0,0,rectangle,6.488488103,1.352727958,1,0,0,6.488488103,1.352727958,1,0,0,0,141,141,47,1,,,,,,,,
,,,,,,,,,,,,,FF,,,,,,,,0.499,,,,,,,,,,,,,,,,,,,,,,610092cd118be400cb5a66fa,61036b6f59129d8a6f89f1a0,2021-07-29_22h05.14.943,Simcolourproject_2stim_asymm_v5,2020.2.10,Linux x86_64,60,61025ae37ef11b136ea224fe,,,,,,,,,4025,25.6586544,37.06881736,1,0,0,response1disk,,7,10.03121277,-8.666705785,1,0,0,rectangle,10.03121277,-8.666705785,1,0,0,10.03121277,-8.666705785,1,0,0,0,142,142,153,1,,,,,,,,
,,,,,,,,,,,,,FF,,,,,,,,0.5673,,,,,,,,,,,,,,,,,,,,,,610092cd118be400cb5a66fa,61036b6f59129d8a6f89f1a0,2021-07-29_22h05.14.943,Simcolourproject_2stim_asymm_v5,2020.2.10,Linux x86_64,60,61025ae37ef11b136ea224fe,,,,,,,,,1441,29.9689572,69.85324167,1,0,0,response1disk,,7,7.669152183,-10.43262378,1,0,0,rectangle,7.669152183,-10.43262378,1,0,0,7.669152183,-10.43262378,1,0,0,0,143,143,9,1,,,,,,,,
,,,,,,,,,,,,,FF,,,,,,,,0.6328,,,,,,,,,,,,,,,,,,,,,,610092cd118be400cb5a66fa,61036b6f59129d8a6f89f1a0,2021-07-29_22h05.14.943,Simcolourproject_2stim_asymm_v5,2020.2.10,Linux x86_64,60,61025ae37ef11b136ea224fe,,,,,,,,,321,26.37496301,38.58351465,1,0,0,response1disk,,7,20.74483597,13.49354845,1,0,0,rectangle,20.74483597,13.49354845,1,0,0,20.74483597,13.49354845,1,0,0,0,144,144,102,1,,,,,,,,
,,,,,,,,,,,,,FF,,,,,,,,0.5008,,,,,,,,,,,,,,,,,,,,,,610092cd118be400cb5a66fa,61036b6f59129d8a6f89f1a0,2021-07-29_22h05.14.943,Simcolourproject_2stim_asymm_v5,2020.2.10,Linux x86_64,60,61025ae37ef11b136ea224fe,,,,,,,,,3485,35.04976783,56.30372975,1,0,0,response1disk,,7,14.28448431,9.19555034,1,0,0,rectangle,14.28448431,9.19555034,1,0,0,14.28448431,9.19555034,1,0,0,0,145,145,12,1,,,,,,,,
,,,,,,,,,,,,,FF,,,,,,,,0.4159,,,,,,,,,,,,,,,,,,,,,,610092cd118be400cb5a66fa,61036b6f59129d8a6f89f1a0,2021-07-29_22h05.14.943,Simcolourproject_2stim_asymm_v5,2020.2.10,Linux x86_64,60,61025ae37ef11b136ea224fe,,,,,,,,,1282,26.19219933,53.96876878,1,0,0,response1disk,,7,6.88350764,-15.54995784,1,0,0,rectangle,6.88350764,-15.54995784,1,0,0,6.88350764,-15.54995784,1,0,0,0,146,146,129,1,,,,,,,,
,,,,,,,,,,,,,FF,,,,,,,,0.4339,,,,,,,,,,,,,,,,,,,,,,610092cd118be400cb5a66fa,61036b6f59129d8a6f89f1a0,2021-07-29_22h05.14.943,Simcolourproject_2stim_asymm_v5,2020.2.10,Linux x86_64,60,61025ae37ef11b136ea224fe,,,,,,,,,793,27.67315639,46.40526769,1,0,0,response1disk,,7,6.944054516,5.262054188,1,0,0,rectangle,6.944054516,5.262054188,1,0,0,6.944054516,5.262054188,1,0,0,0,147,147,134,1,,,,,,,,
,,,,,,,,,,,,,FF,,,,,,,,1.1828,,,,,,,,,,,,,,,,,,,,,,610092cd118be400cb5a66fa,61036b6f59129d8a6f89f1a0,2021-07-29_22h05.14.943,Simcolourproject_2stim_asymm_v5,2020.2.10,Linux x86_64,60,61025ae37ef11b136ea224fe,,,,,,,,,1054,-33.92371953,-72.93672627,1,0,0,response5disk,,3,-0.30701981,-4.876520182,1,0,0,rectangle,-0.30701981,-4.876520182,1,0,0,-0.30701981,-4.876520182,1,0,0,0,148,148,50,1,,,,,,,,
,,,,,,,,,,,,,FF,,,,,,,,0.5995,,,,,,,,,,,,,,,,,,,,,,610092cd118be400cb5a66fa,61036b6f59129d8a6f89f1a0,2021-07-29_22h05.14.943,Simcolourproject_2stim_asymm_v5,2020.2.10,Linux x86_64,60,61025ae37ef11b136ea224fe,,,,,,,,,3653,25.59908409,39.16991602,1,0,0,response1disk,,7,11.35958193,9.082513229,1,0,0,rectangle,11.35958193,9.082513229,1,0,0,11.35958193,9.082513229,1,0,0,0,149,149,86,1,,,,,,,,
,,,,,,,,,,,,,FF,,,,,,,,0.7003,,,,,,,,,,,,,,,,,,,,,,610092cd118be400cb5a66fa,61036b6f59129d8a6f89f1a0,2021-07-29_22h05.14.943,Simcolourproject_2stim_asymm_v5,2020.2.10,Linux x86_64,60,61025ae37ef11b136ea224fe,,,,,,,,,3130,23.06553913,37.80421776,1,0,0,response1disk,,7,9.088097517,4.491497536,1,0,0,rectangle,9.088097517,4.491497536,1,0,0,9.088097517,4.491497536,1,0,0,0,150,150,110,1,,,,,,,,
,,,,,,,,,,,,,FF,,,,,,,,0.7344,,,,,,,,,,,,,,,,,,,,,,610092cd118be400cb5a66fa,61036b6f59129d8a6f89f1a0,2021-07-29_22h05.14.943,Simcolourproject_2stim_asymm_v5,2020.2.10,Linux x86_64,60,61025ae37ef11b136ea224fe,,,,,,,,,798,23.72921102,40.82885159,1,0,0,response1disk,,7,15.36749214,-9.010504618,1,0,0,rectangle,15.36749214,-9.010504618,1,0,0,15.36749214,-9.010504618,1,0,0,0,151,151,1,1,,,,,,,,
,,,,,,,,,,,,,FF,,,,,,,,0.6166,,,,,,,,,,,,,,,,,,,,,,610092cd118be400cb5a66fa,61036b6f59129d8a6f89f1a0,2021-07-29_22h05.14.943,Simcolourproject_2stim_asymm_v5,2020.2.10,Linux x86_64,60,61025ae37ef11b136ea224fe,,,,,,,,,4032,21.09127152,32.38063369,1,0,0,response1disk,,7,9.237072129,7.813421414,1,0,0,rectangle,9.237072129,7.813421414,1,0,0,9.237072129,7.813421414,1,0,0,0,152,152,143,1,,,,,,,,
,,,,,,,,,,,,,FF,,,,,,,,1.5839,,,,,,,,,,,,,,,,,,,,,,610092cd118be400cb5a66fa,61036b6f59129d8a6f89f1a0,2021-07-29_22h05.14.943,Simcolourproject_2stim_asymm_v5,2020.2.10,Linux x86_64,60,61025ae37ef11b136ea224fe,,,,,,,,,199,24.68746298,-82.33116001,1,0,0,response3disk,,4,24.50289267,-5.850201837,1,0,0,rectangle,24.50289267,-5.850201837,1,0,0,24.50289267,-5.850201837,1,0,0,0,153,153,79,1,,,,,,,,
,,,,,,,,,,,,,FF,,,,,,,,2.6496,,,,,,,,,,,,,,,,,,,,,,610092cd118be400cb5a66fa,61036b6f59129d8a6f89f1a0,2021-07-29_22h05.14.943,Simcolourproject_2stim_asymm_v5,2020.2.10,Linux x86_64,60,61025ae37ef11b136ea224fe,,,,,,,,,2036,96.48087226,-51.04785876,1,0,0,response3disk,,5,24.65865439,-0.294147067,1,0,0,rectangle,24.65865439,-0.294147067,1,0,0,24.65865439,-0.294147067,1,0,0,0,154,154,55,1,,,,,,,,
,,,,,,,,,,,,,FF,,,,,,,,1.6683,,,,,,,,,,,,,,,,,,,,,,610092cd118be400cb5a66fa,61036b6f59129d8a6f89f1a0,2021-07-29_22h05.14.943,Simcolourproject_2stim_asymm_v5,2020.2.10,Linux x86_64,60,61025ae37ef11b136ea224fe,,,,,,,,,891,77.02393837,-30.8930733,1,0,0,response3disk,,5,35.07833228,-8.574078831,1,0,0,rectangle,35.07833228,-8.574078831,1,0,0,35.07833228,-8.574078831,1,0,0,0,155,155,78,1,,,,,,,,
,,,,,,,,,,,,,FF,,,,,,,,0.6683,,,,,,,,,,,,,,,,,,,,,,610092cd118be400cb5a66fa,61036b6f59129d8a6f89f1a0,2021-07-29_22h05.14.943,Simcolourproject_2stim_asymm_v5,2020.2.10,Linux x86_64,60,61025ae37ef11b136ea224fe,,,,,,,,,3989,35.29683814,91.62072247,1,0,0,response1disk,,7,7.042492018,1.151653736,1,0,0,rectangle,-46.55492089,-102.8536213,1,0,0,8.303185396,-16.12896176,1,0,0,0,156,156,152,1,,response5disk_3,TRUE,3,3,"[214,95,61,22,207,200,256,157,130,94,306,46,44,288,267,35,97,190,65,165]",1.799,rectangle
,,,,,,,,,,,,,FF,,,,,,,,0.5325,,,,,,,,,,,,,,,,,,,,,,610092cd118be400cb5a66fa,61036b6f59129d8a6f89f1a0,2021-07-29_22h05.14.943,Simcolourproject_2stim_asymm_v5,2020.2.10,Linux x86_64,60,61025ae37ef11b136ea224fe,,,,,,,,,1876,32.46509982,58.76723077,1,0,0,response1disk,,7,7.98238461,5.613763178,1,0,0,rectangle,7.98238461,5.613763178,1,0,0,7.98238461,5.613763178,1,0,0,0,157,157,64,1,,,,,,,,
,,,,,,,,,,,,,FF,,,,,,,,0.4339,,,,,,,,,,,,,,,,,,,,,,610092cd118be400cb5a66fa,61036b6f59129d8a6f89f1a0,2021-07-29_22h05.14.943,Simcolourproject_2stim_asymm_v5,2020.2.10,Linux x86_64,60,61025ae37ef11b136ea224fe,,,,,,,,,1153,30.58345917,52.90834396,1,0,0,response1disk,,7,-0.61053544,-10.8015691,1,0,0,rectangle,-0.61053544,-10.8015691,1,0,0,-0.61053544,-10.8015691,1,0,0,0,158,158,2,1,,,,,,,,
,,,,,,,,,,,,,FF,,,,,,,,1.5665,,,,,,,,,,,,,,,,,,,,,,610092cd118be400cb5a66fa,61036b6f59129d8a6f89f1a0,2021-07-29_22h05.14.943,Simcolourproject_2stim_asymm_v5,2020.2.10,Linux x86_64,60,61025ae37ef11b136ea224fe,,,,,,,,,867,41.84630113,70.71552196,1,0,0,response1disk,,7,22.51524615,13.98573596,1,0,0,rectangle,22.51524615,13.98573596,1,0,0,22.51524615,13.98573596,1,0,0,0,159,159,144,1,,,,,,,,
,,,,,,,,,,,,,FF,,,,,,,,2.1328,,,,,,,,,,,,,,,,,,,,,,610092cd118be400cb5a66fa,61036b6f59129d8a6f89f1a0,2021-07-29_22h05.14.943,Simcolourproject_2stim_asymm_v5,2020.2.10,Linux x86_64,60,61025ae37ef11b136ea224fe,,,,,,,,,2781,82.86036424,-48.24146223,1,0,0,response3disk,,5,4.797472453,6.492718269,1,0,0,rectangle,4.797472453,6.492718269,1,0,0,4.797472453,6.492718269,1,0,0,1,0,160,83,1,,,,,,,,
,,,,,,,,,,,,,FF,,,,,,,,1.316,,,,,,,,,,,,,,,,,,,,,,610092cd118be400cb5a66fa,61036b6f59129d8a6f89f1a0,2021-07-29_22h05.14.943,Simcolourproject_2stim_asymm_v5,2020.2.10,Linux x86_64,60,61025ae37ef11b136ea224fe,,,,,,,,,328,26.84444544,57.37880301,1,0,0,response1disk,,7,13.83126165,5.237981922,1,0,0,rectangle,13.83126165,5.237981922,1,0,0,13.83126165,5.237981922,1,0,0,1,1,161,21,1,,,,,,,,
,,,,,,,,,,,,,FF,,,,,,,,0.3666,,,,,,,,,,,,,,,,,,,,,,610092cd118be400cb5a66fa,61036b6f59129d8a6f89f1a0,2021-07-29_22h05.14.943,Simcolourproject_2stim_asymm_v5,2020.2.10,Linux x86_64,60,61025ae37ef11b136ea224fe,,,,,,,,,3109,43.58009022,67.44374457,1,0,0,response1disk,,7,6.478478338,-0.246295503,1,0,0,rectangle,6.478478338,-0.246295503,1,0,0,6.478478338,-0.246295503,1,0,0,1,2,162,45,1,,,,,,,,
,,,,,,,,,,,,,FF,,,,,,,,0.5662,,,,,,,,,,,,,,,,,,,,,,610092cd118be400cb5a66fa,61036b6f59129d8a6f89f1a0,2021-07-29_22h05.14.943,Simcolourproject_2stim_asymm_v5,2020.2.10,Linux x86_64,60,61025ae37ef11b136ea224fe,,,,,,,,,3879,39.15484601,54.15575609,1,0,0,response1disk,,7,4.935265424,-14.37525079,1,0,0,rectangle,4.935265424,-14.37525079,1,0,0,4.935265424,-14.37525079,1,0,0,1,3,163,9,1,,,,,,,,
,,,,,,,,,,,,,FF,,,,,,,,1.2499,,,,,,,,,,,,,,,,,,,,,,610092cd118be400cb5a66fa,61036b6f59129d8a6f89f1a0,2021-07-29_22h05.14.943,Simcolourproject_2stim_asymm_v5,2020.2.10,Linux x86_64,60,61025ae37ef11b136ea224fe,,,,,,,,,1451,-40.41424697,-101.947713,1,0,0,response5disk,,3,11.17720888,6.570306161,1,0,0,rectangle,-67.89163996,41.84450102,1,0,0,-13.57786962,-6.448346377,1,0,0,1,4,164,42,1,,response7disk_3,TRUE,1,1,"[214,95,61,22,207,200,256,157,130,94,306,46,44,288,267,35,97,190,65,165]",1.4337,rectangle
,,,,,,,,,,,,,FF,,,,,,,,0.5844,,,,,,,,,,,,,,,,,,,,,,610092cd118be400cb5a66fa,61036b6f59129d8a6f89f1a0,2021-07-29_22h05.14.943,Simcolourproject_2stim_asymm_v5,2020.2.10,Linux x86_64,60,61025ae37ef11b136ea224fe,,,,,,,,,2609,28.69478726,69.67091745,1,0,0,response1disk,,7,0.64229661,0.894817795,1,0,0,rectangle,0.64229661,0.894817795,1,0,0,0.64229661,0.894817795,1,0,0,1,5,165,59,1,,,,,,,,
,,,,,,,,,,,,,FF,,,,,,,,0.4658,,,,,,,,,,,,,,,,,,,,,,610092cd118be400cb5a66fa,61036b6f59129d8a6f89f1a0,2021-07-29_22h05.14.943,Simcolourproject_2stim_asymm_v5,2020.2.10,Linux x86_64,60,61025ae37ef11b136ea224fe,,,,,,,,,296,42.14312731,72.88715285,1,0,0,response1disk,,7,12.66651554,0.610589275,1,0,0,rectangle,12.66651554,0.610589275,1,0,0,12.66651554,0.610589275,1,0,0,1,6,166,95,1,,,,,,,,
,,,,,,,,,,,,,FF,,,,,,,,0.6504,,,,,,,,,,,,,,,,,,,,,,610092cd118be400cb5a66fa,61036b6f59129d8a6f89f1a0,2021-07-29_22h05.14.943,Simcolourproject_2stim_asymm_v5,2020.2.10,Linux x86_64,60,61025ae37ef11b136ea224fe,,,,,,,,,1381,35.04488501,77.68353964,1,0,0,response1disk,,7,12.51851749,10.27470075,1,0,0,rectangle,12.51851749,10.27470075,1,0,0,12.51851749,10.27470075,1,0,0,1,7,167,75,1,,,,,,,,
,,,,,,,,,,,,,FF,,,,,,,,0.3998,,,,,,,,,,,,,,,,,,,,,,610092cd118be400cb5a66fa,61036b6f59129d8a6f89f1a0,2021-07-29_22h05.14.943,Simcolourproject_2stim_asymm_v5,2020.2.10,Linux x86_64,60,61025ae37ef11b136ea224fe,,,,,,,,,33,25.51881065,45.21876865,1,0,0,response1disk,,7,3.302257587,0.314007239,1,0,0,rectangle,3.302257587,0.314007239,1,0,0,3.302257587,0.314007239,1,0,0,1,8,168,69,1,,,,,,,,
,,,,,,,,,,,,,FF,,,,,,,,0.9836,,,,,,,,,,,,,,,,,,,,,,610092cd118be400cb5a66fa,61036b6f59129d8a6f89f1a0,2021-07-29_22h05.14.943,Simcolourproject_2stim_asymm_v5,2020.2.10,Linux x86_64,60,61025ae37ef11b136ea224fe,,,,,,,,,1714,47.29415277,73.46803665,1,0,0,response1disk,,7,18.23848828,6.541448738,1,0,0,rectangle,18.23848828,6.541448738,1,0,0,18.23848828,6.541448738,1,0,0,1,9,169,105,1,,,,,,,,
,,,,,,,,,,,,,FF,,,,,,,,0.5505,,,,,,,,,,,,,,,,,,,,,,610092cd118be400cb5a66fa,61036b6f59129d8a6f89f1a0,2021-07-29_22h05.14.943,Simcolourproject_2stim_asymm_v5,2020.2.10,Linux x86_64,60,61025ae37ef11b136ea224fe,,,,,,,,,3686,49.08551022,93.38598128,1,0,0,response1disk,,7,17.50450389,13.18319688,1,0,0,rectangle,17.50450389,13.18319688,1,0,0,17.50450389,13.18319688,1,0,0,1,10,170,24,1,,,,,,,,
,,,,,,,,,,,,,FF,,,,,,,,0.8843,,,,,,,,,,,,,,,,,,,,,,610092cd118be400cb5a66fa,61036b6f59129d8a6f89f1a0,2021-07-29_22h05.14.943,Simcolourproject_2stim_asymm_v5,2020.2.10,Linux x86_64,60,61025ae37ef11b136ea224fe,,,,,,,,,1244,34.83033423,44.14039949,1,0,0,response1disk,,7,13.16500187,-7.970514369,1,0,0,rectangle,13.16500187,-7.970514369,1,0,0,13.16500187,-7.970514369,1,0,0,1,11,171,34,1,,,,,,,,
,,,,,,,,,,,,,FF,,,,,,,,0.702,,,,,,,,,,,,,,,,,,,,,,610092cd118be400cb5a66fa,61036b6f59129d8a6f89f1a0,2021-07-29_22h05.14.943,Simcolourproject_2stim_asymm_v5,2020.2.10,Linux x86_64,60,61025ae37ef11b136ea224fe,,,,,,,,,2407,27.5151974,45.94811436,1,0,0,response1disk,,7,8.542931493,-10.39785815,1,0,0,rectangle,8.542931493,-10.39785815,1,0,0,8.542931493,-10.39785815,1,0,0,1,12,172,51,1,,,,,,,,
,,,,,,,,,,,,,FF,,,,,,,,1.9504,,,,,,,,,,,,,,,,,,,,,,610092cd118be400cb5a66fa,61036b6f59129d8a6f89f1a0,2021-07-29_22h05.14.943,Simcolourproject_2stim_asymm_v5,2020.2.10,Linux x86_64,60,61025ae37ef11b136ea224fe,,,,,,,,,4167,-24.02713735,-81.8808182,1,0,0,response5disk,,3,9.151671737,-1.649811149,1,0,0,rectangle,9.151671737,-1.649811149,1,0,0,9.151671737,-1.649811149,1,0,0,1,13,173,84,1,,,,,,,,
,,,,,,,,,,,,,FF,,,,,,,,1.1171,,,,,,,,,,,,,,,,,,,,,,610092cd118be400cb5a66fa,61036b6f59129d8a6f89f1a0,2021-07-29_22h05.14.943,Simcolourproject_2stim_asymm_v5,2020.2.10,Linux x86_64,60,61025ae37ef11b136ea224fe,,,,,,,,,1908,31.36744355,47.28392981,1,0,0,response1disk,,7,9.114806502,-6.973199901,1,0,0,rectangle,9.114806502,-6.973199901,1,0,0,9.114806502,-6.973199901,1,0,0,1,14,174,152,1,,,,,,,,
,,,,,,,,,,,,,FF,,,,,,,,1.5825,,,,,,,,,,,,,,,,,,,,,,610092cd118be400cb5a66fa,61036b6f59129d8a6f89f1a0,2021-07-29_22h05.14.943,Simcolourproject_2stim_asymm_v5,2020.2.10,Linux x86_64,60,61025ae37ef11b136ea224fe,,,,,,,,,3814,-17.13421733,-64.58487068,1,0,0,response5disk,,3,2.260851322,3.765520963,1,0,0,rectangle,2.260851322,3.765520963,1,0,0,2.260851322,3.765520963,1,0,0,1,15,175,118,1,,,,,,,,
,,,,,,,,,,,,,FF,,,,,,,,0.5504,,,,,,,,,,,,,,,,,,,,,,610092cd118be400cb5a66fa,61036b6f59129d8a6f89f1a0,2021-07-29_22h05.14.943,Simcolourproject_2stim_asymm_v5,2020.2.10,Linux x86_64,60,61025ae37ef11b136ea224fe,,,,,,,,,2685,37.23467997,98.48937491,1,0,0,response1disk,,7,3.762169703,11.01093123,1,0,0,rectangle,3.762169703,11.01093123,1,0,0,3.762169703,11.01093123,1,0,0,1,16,176,120,1,,,,,,,,
,,,,,,,,,,,,,FF,,,,,,,,0.8994,,,,,,,,,,,,,,,,,,,,,,610092cd118be400cb5a66fa,61036b6f59129d8a6f89f1a0,2021-07-29_22h05.14.943,Simcolourproject_2stim_asymm_v5,2020.2.10,Linux x86_64,60,61025ae37ef11b136ea224fe,,,,,,,,,2264,36.98824442,61.43764096,1,0,0,response1disk,,7,16.21446481,9.460149954,1,0,0,rectangle,16.21446481,9.460149954,1,0,0,16.21446481,9.460149954,1,0,0,1,17,177,19,1,,,,,,,,
,,,,,,,,,,,,,FF,,,,,,,,1.4318,,,,,,,,,,,,,,,,,,,,,,610092cd118be400cb5a66fa,61036b6f59129d8a6f89f1a0,2021-07-29_22h05.14.943,Simcolourproject_2stim_asymm_v5,2020.2.10,Linux x86_64,60,61025ae37ef11b136ea224fe,,,,,,,,,1688,48.96510006,-65.80503671,1,0,0,response3disk,,4,23.78121297,-14.50830743,1,0,0,rectangle,23.78121297,-14.50830743,1,0,0,23.78121297,-14.50830743,1,0,0,1,18,178,32,1,,,,,,,,
,,,,,,,,,,,,,FF,,,,,,,,0.533,,,,,,,,,,,,,,,,,,,,,,610092cd118be400cb5a66fa,61036b6f59129d8a6f89f1a0,2021-07-29_22h05.14.943,Simcolourproject_2stim_asymm_v5,2020.2.10,Linux x86_64,60,61025ae37ef11b136ea224fe,,,,,,,,,2123,51.60977784,72.40919874,1,0,0,response1disk,,7,19.56246291,9.478167532,1,0,0,rectangle,19.56246291,9.478167532,1,0,0,19.56246291,9.478167532,1,0,0,1,19,179,145,1,,,,,,,,
,,,,,,,,,,,,,FF,,,,,,,,0.6172,,,,,,,,,,,,,,,,,,,,,,610092cd118be400cb5a66fa,61036b6f59129d8a6f89f1a0,2021-07-29_22h05.14.943,Simcolourproject_2stim_asymm_v5,2020.2.10,Linux x86_64,60,61025ae37ef11b136ea224fe,,,,,,,,,127,33.28170139,55.16381274,1,0,0,response1disk,,7,-2.424988592,7.558685082,1,0,0,rectangle,-2.424988592,7.558685082,1,0,0,-2.424988592,7.558685082,1,0,0,1,20,180,99,1,,,,,,,,
,,,,,,,,,,,,,FF,,,,,,,,3.1657,,,,,,,,,,,,,,,,,,,,,,610092cd118be400cb5a66fa,61036b6f59129d8a6f89f1a0,2021-07-29_22h05.14.943,Simcolourproject_2stim_asymm_v5,2020.2.10,Linux x86_64,60,61025ae37ef11b136ea224fe,,,,,,,,,2902,112.0923959,25.32167363,1,0,0,response1disk,,6,30.14595916,-3.955719387,1,0,0,rectangle,30.14595916,-3.955719387,1,0,0,30.14595916,-3.955719387,1,0,0,1,21,181,20,1,,,,,,,,
,,,,,,,,,,,,,FF,,,,,,,,1.4992,,,,,,,,,,,,,,,,,,,,,,610092cd118be400cb5a66fa,61036b6f59129d8a6f89f1a0,2021-07-29_22h05.14.943,Simcolourproject_2stim_asymm_v5,2020.2.10,Linux x86_64,60,61025ae37ef11b136ea224fe,,,,,,,,,3252,73.02511019,-53.34453848,1,0,0,response3disk,,5,10.65362488,-1.34082677,1,0,0,rectangle,10.65362488,-1.34082677,1,0,0,10.65362488,-1.34082677,1,0,0,1,22,182,140,1,,,,,,,,
,,,,,,,,,,,,,FF,,,,,,,,0.6165,,,,,,,,,,,,,,,,,,,,,,610092cd118be400cb5a66fa,61036b6f59129d8a6f89f1a0,2021-07-29_22h05.14.943,Simcolourproject_2stim_asymm_v5,2020.2.10,Linux x86_64,60,61025ae37ef11b136ea224fe,,,,,,,,,1140,19.62642775,38.38405175,1,0,0,response1disk,,7,9.145958846,-5.628229177,1,0,0,rectangle,9.145958846,-5.628229177,1,0,0,9.145958846,-5.628229177,1,0,0,1,23,183,137,1,,,,,,,,
,,,,,,,,,,,,,FF,,,,,,,,0.5835,,,,,,,,,,,,,,,,,,,,,,610092cd118be400cb5a66fa,61036b6f59129d8a6f89f1a0,2021-07-29_22h05.14.943,Simcolourproject_2stim_asymm_v5,2020.2.10,Linux x86_64,60,61025ae37ef11b136ea224fe,,,,,,,,,2766,23.65572469,56.22748463,1,0,0,response1disk,,7,13.03248234,14.88187855,1,0,0,rectangle,13.03248234,14.88187855,1,0,0,13.03248234,14.88187855,1,0,0,1,24,184,2,1,,,,,,,,
,,,,,,,,,,,,,FF,,,,,,,,1.0658,,,,,,,,,,,,,,,,,,,,,,610092cd118be400cb5a66fa,61036b6f59129d8a6f89f1a0,2021-07-29_22h05.14.943,Simcolourproject_2stim_asymm_v5,2020.2.10,Linux x86_64,60,61025ae37ef11b136ea224fe,,,,,,,,,1751,-29.37210813,-117.5874594,1,0,0,response5disk,,3,6.787316233,-10.51074878,1,0,0,rectangle,6.787316233,-10.51074878,1,0,0,6.787316233,-10.51074878,1,0,0,1,25,185,133,1,,,,,,,,
,,,,,,,,,,,,,FF,,,,,,,,0.633,,,,,,,,,,,,,,,,,,,,,,610092cd118be400cb5a66fa,61036b6f59129d8a6f89f1a0,2021-07-29_22h05.14.943,Simcolourproject_2stim_asymm_v5,2020.2.10,Linux x86_64,60,61025ae37ef11b136ea224fe,,,,,,,,,2328,22.37154498,42.86508209,1,0,0,response1disk,,7,9.662902213,9.338079639,1,0,0,rectangle,9.662902213,9.338079639,1,0,0,9.662902213,9.338079639,1,0,0,1,26,186,79,1,,,,,,,,
,,,,,,,,,,,,,FF,,,,,,,,0.6172,,,,,,,,,,,,,,,,,,,,,,610092cd118be400cb5a66fa,61036b6f59129d8a6f89f1a0,2021-07-29_22h05.14.943,Simcolourproject_2stim_asymm_v5,2020.2.10,Linux x86_64,60,61025ae37ef11b136ea224fe,,,,,,,,,3657,33.4145139,72.74647902,1,0,0,response1disk,,7,14.91583198,6.489104988,1,0,0,rectangle,14.91583198,6.489104988,1,0,0,14.91583198,6.489104988,1,0,0,1,27,187,89,1,,,,,,,,
,,,,,,,,,,,,,FF,,,,,,,,0.6332,,,,,,,,,,,,,,,,,,,,,,610092cd118be400cb5a66fa,61036b6f59129d8a6f89f1a0,2021-07-29_22h05.14.943,Simcolourproject_2stim_asymm_v5,2020.2.10,Linux x86_64,60,61025ae37ef11b136ea224fe,,,,,,,,,2194,44.77266836,76.44574665,1,0,0,response1disk,,7,20.37130081,9.566302299,1,0,0,rectangle,20.37130081,9.566302299,1,0,0,20.37130081,9.566302299,1,0,0,1,28,188,31,1,,,,,,,,
,,,,,,,,,,,,,FF,,,,,,,,1.0781,,,,,,,,,,,,,,,,,,,,,,610092cd118be400cb5a66fa,61036b6f59129d8a6f89f1a0,2021-07-29_22h05.14.943,Simcolourproject_2stim_asymm_v5,2020.2.10,Linux x86_64,60,61025ae37ef11b136ea224fe,,,,,,,,,2946,-29.94828002,-57.92979246,1,0,0,response5disk,,3,8.271007661,-10.90952808,1,0,0,rectangle,-63.70062427,104.5860791,1,0,0,-15.9302134,5.406048331,1,0,0,1,29,189,158,1,,response7disk_3,TRUE,0,0,"[214,95,61,22,207,200,256,157,130,94,306,46,44,288,267,35,97,190,65,165]",1.617,rectangle
,,,,,,,,,,,,,FF,,,,,,,,0.6845,,,,,,,,,,,,,,,,,,,,,,610092cd118be400cb5a66fa,61036b6f59129d8a6f89f1a0,2021-07-29_22h05.14.943,Simcolourproject_2stim_asymm_v5,2020.2.10,Linux x86_64,60,61025ae37ef11b136ea224fe,,,,,,,,,2313,43.75323475,98.24823721,1,0,0,response1disk,,7,-1.45330889,12.33143906,1,0,0,rectangle,-1.45330889,12.33143906,1,0,0,-1.45330889,12.33143906,1,0,0,1,30,190,132,1,,,,,,,,
,,,,,,,,,,,,,FF,,,,,,,,0.5164,,,,,,,,,,,,,,,,,,,,,,610092cd118be400cb5a66fa,61036b6f59129d8a6f89f1a0,2021-07-29_22h05.14.943,Simcolourproject_2stim_asymm_v5,2020.2.10,Linux x86_64,60,61025ae37ef11b136ea224fe,,,,,,,,,183,53.07745364,74.71056597,1,0,0,response1disk,,7,17.20992381,15.00805043,1,0,0,rectangle,17.20992381,15.00805043,1,0,0,17.20992381,15.00805043,1,0,0,1,31,191,159,1,,,,,,,,
,,,,,,,,,,,,,FF,,,,,,,,0.4994,,,,,,,,,,,,,,,,,,,,,,610092cd118be400cb5a66fa,61036b6f59129d8a6f89f1a0,2021-07-29_22h05.14.943,Simcolourproject_2stim_asymm_v5,2020.2.10,Linux x86_64,60,61025ae37ef11b136ea224fe,,,,,,,,,2864,54.12227788,84.87567842,1,0,0,response1disk,,7,18.93160352,3.675677211,1,0,0,rectangle,18.93160352,3.675677211,1,0,0,18.93160352,3.675677211,1,0,0,1,32,192,91,1,,,,,,,,
,,,,,,,,,,,,,FF,,,,,,,,1.0993,,,,,,,,,,,,,,,,,,,,,,610092cd118be400cb5a66fa,61036b6f59129d8a6f89f1a0,2021-07-29_22h05.14.943,Simcolourproject_2stim_asymm_v5,2020.2.10,Linux x86_64,60,61025ae37ef11b136ea224fe,,,,,,,,,3544,32.17525606,79.60292444,1,0,0,response1disk,,7,2.644982187,10.29838239,1,0,0,rectangle,2.644982187,10.29838239,1,0,0,2.644982187,10.29838239,1,0,0,1,33,193,116,1,,,,,,,,
,,,,,,,,,,,,,FF,,,,,,,,1.1661,,,,,,,,,,,,,,,,,,,,,,610092cd118be400cb5a66fa,61036b6f59129d8a6f89f1a0,2021-07-29_22h05.14.943,Simcolourproject_2stim_asymm_v5,2020.2.10,Linux x86_64,60,61025ae37ef11b136ea224fe,,,,,,,,,327,25.26851768,48.57025796,1,0,0,response1disk,,7,10.39620301,-3.844098291,1,0,0,rectangle,10.39620301,-3.844098291,1,0,0,10.39620301,-3.844098291,1,0,0,1,34,194,96,1,,,,,,,,
,,,,,,,,,,,,,FF,,,,,,,,0.5878,,,,,,,,,,,,,,,,,,,,,,610092cd118be400cb5a66fa,61036b6f59129d8a6f89f1a0,2021-07-29_22h05.14.943,Simcolourproject_2stim_asymm_v5,2020.2.10,Linux x86_64,60,61025ae37ef11b136ea224fe,,,,,,,,,1583,39.96153548,62.01002867,1,0,0,response1disk,,7,14.00694525,-2.664215461,1,0,0,rectangle,14.00694525,-2.664215461,1,0,0,14.00694525,-2.664215461,1,0,0,1,35,195,63,1,,,,,,,,
,,,,,,,,,,,,,FF,,,,,,,,1.3669,,,,,,,,,,,,,,,,,,,,,,610092cd118be400cb5a66fa,61036b6f59129d8a6f89f1a0,2021-07-29_22h05.14.943,Simcolourproject_2stim_asymm_v5,2020.2.10,Linux x86_64,60,61025ae37ef11b136ea224fe,,,,,,,,,2108,42.88575427,101.1956982,1,0,0,response1disk,,7,7.719201012,11.37836287,1,0,0,rectangle,7.719201012,11.37836287,1,0,0,7.719201012,11.37836287,1,0,0,1,36,196,80,1,,,,,,,,
,,,,,,,,,,,,,FF,,,,,,,,0.6,,,,,,,,,,,,,,,,,,,,,,610092cd118be400cb5a66fa,61036b6f59129d8a6f89f1a0,2021-07-29_22h05.14.943,Simcolourproject_2stim_asymm_v5,2020.2.10,Linux x86_64,60,61025ae37ef11b136ea224fe,,,,,,,,,4124,41.60274644,74.64252397,1,0,0,response1disk,,7,18.69195508,8.171136263,1,0,0,rectangle,18.69195508,8.171136263,1,0,0,18.69195508,8.171136263,1,0,0,1,37,197,38,1,,,,,,,,
,,,,,,,,,,,,,FF,,,,,,,,0.818,,,,,,,,,,,,,,,,,,,,,,610092cd118be400cb5a66fa,61036b6f59129d8a6f89f1a0,2021-07-29_22h05.14.943,Simcolourproject_2stim_asymm_v5,2020.2.10,Linux x86_64,60,61025ae37ef11b136ea224fe,,,,,,,,,1028,51.98692628,67.12672796,1,0,0,response1disk,,7,13.81539251,4.335784643,1,0,0,rectangle,13.81539251,4.335784643,1,0,0,13.81539251,4.335784643,1,0,0,1,38,198,55,1,,,,,,,,
,,,,,,,,,,,,,FF,,,,,,,,0.6502,,,,,,,,,,,,,,,,,,,,,,610092cd118be400cb5a66fa,61036b6f59129d8a6f89f1a0,2021-07-29_22h05.14.943,Simcolourproject_2stim_asymm_v5,2020.2.10,Linux x86_64,60,61025ae37ef11b136ea224fe,,,,,,,,,486,28.17169155,44.18883699,1,0,0,response1disk,,7,13.98580267,8.070696808,1,0,0,rectangle,-113.9753809,65.55197208,1,0,0,-11.23846529,6.80531593,1,0,0,1,39,199,131,1,,response7disk_3,TRUE,1,1,"[214,95,61,22,207,200,256,157,130,94,306,46,44,288,267,35,97,190,65,165]",2.1833,rectangle
,,,,,,,,,,,,,FF,,,,,,,,3.6183,,,,,,,,,,,,,,,,,,,,,,610092cd118be400cb5a66fa,61036b6f59129d8a6f89f1a0,2021-07-29_22h05.14.943,Simcolourproject_2stim_asymm_v5,2020.2.10,Linux x86_64,60,61025ae37ef11b136ea224fe,,,,,,,,,2236,-29.86590697,-93.01509571,1,0,0,response5disk,,3,6.841613109,-13.44839531,1,0,0,rectangle,6.841613109,-13.44839531,1,0,0,6.841613109,-13.44839531,1,0,0,1,40,200,52,1,,,,,,,,
,,,,,,,,,,,,,FF,,,,,,,,0.9674,,,,,,,,,,,,,,,,,,,,,,610092cd118be400cb5a66fa,61036b6f59129d8a6f89f1a0,2021-07-29_22h05.14.943,Simcolourproject_2stim_asymm_v5,2020.2.10,Linux x86_64,60,61025ae37ef11b136ea224fe,,,,,,,,,3148,-52.30619051,-83.17041783,1,0,0,response5disk,,3,12.18096866,1.557513117,1,0,0,rectangle,12.18096866,1.557513117,1,0,0,12.18096866,1.557513117,1,0,0,1,41,201,56,1,,,,,,,,
,,,,,,,,,,,,,FF,,,,,,,,0.7502,,,,,,,,,,,,,,,,,,,,,,610092cd118be400cb5a66fa,61036b6f59129d8a6f89f1a0,2021-07-29_22h05.14.943,Simcolourproject_2stim_asymm_v5,2020.2.10,Linux x86_64,60,61025ae37ef11b136ea224fe,,,,,,,,,137,33.97774633,62.90529235,1,0,0,response1disk,,7,16.6474238,2.107024844,1,0,0,rectangle,16.6474238,2.107024844,1,0,0,16.6474238,2.107024844,1,0,0,1,42,202,74,1,,,,,,,,
,,,,,,,,,,,,,FF,,,,,,,,1.2166,,,,,,,,,,,,,,,,,,,,,,610092cd118be400cb5a66fa,61036b6f59129d8a6f89f1a0,2021-07-29_22h05.14.943,Simcolourproject_2stim_asymm_v5,2020.2.10,Linux x86_64,60,61025ae37ef11b136ea224fe,,,,,,,,,3750,35.64678932,74.42860795,1,0,0,response1disk,,7,11.87593936,11.41801131,1,0,0,rectangle,11.87593936,11.41801131,1,0,0,11.87593936,11.41801131,1,0,0,1,43,203,106,1,,,,,,,,
,,,,,,,,,,,,,FF,,,,,,,,1.2009,,,,,,,,,,,,,,,,,,,,,,610092cd118be400cb5a66fa,61036b6f59129d8a6f89f1a0,2021-07-29_22h05.14.943,Simcolourproject_2stim_asymm_v5,2020.2.10,Linux x86_64,60,61025ae37ef11b136ea224fe,,,,,,,,,1779,22.28716998,32.39357315,1,0,0,response1disk,,7,9.687072135,-0.276715426,1,0,0,rectangle,9.687072135,-0.276715426,1,0,0,9.687072135,-0.276715426,1,0,0,1,44,204,108,1,,,,,,,,
,,,,,,,,,,,,,FF,,,,,,,,1.2508,,,,,,,,,,,,,,,,,,,,,,610092cd118be400cb5a66fa,61036b6f59129d8a6f89f1a0,2021-07-29_22h05.14.943,Simcolourproject_2stim_asymm_v5,2020.2.10,Linux x86_64,60,61025ae37ef11b136ea224fe,,,,,,,,,77,-74.05658146,24.46461795,1,0,0,response7disk,,1,-19.87894393,0.156683018,1,0,0,rectangle,-19.87894393,0.156683018,1,0,0,-19.87894393,0.156683018,1,0,0,1,45,205,97,1,,,,,,,,
,,,,,,,,,,,,,FF,,,,,,,,0.6503,,,,,,,,,,,,,,,,,,,,,,610092cd118be400cb5a66fa,61036b6f59129d8a6f89f1a0,2021-07-29_22h05.14.943,Simcolourproject_2stim_asymm_v5,2020.2.10,Linux x86_64,60,61025ae37ef11b136ea224fe,,,,,,,,,1668,23.9819454,64.2072455,1,0,0,response1disk,,7,-7.339392962,-2.17031897,1,0,0,rectangle,-74.66336857,31.97772841,1,0,0,-13.87669775,4.208685032,1,0,0,1,46,206,126,1,,response7disk_3,TRUE,1,1,"[214,95,61,22,207,200,256,157,130,94,306,46,44,288,267,35,97,190,65,165]",1.1374,rectangle
,,,,,,,,,,,,,FF,,,,,,,,5.0838,,,,,,,,,,,,,,,,,,,,,,610092cd118be400cb5a66fa,61036b6f59129d8a6f89f1a0,2021-07-29_22h05.14.943,Simcolourproject_2stim_asymm_v5,2020.2.10,Linux x86_64,60,61025ae37ef11b136ea224fe,,,,,,,,,2288,22.03463091,55.43727466,1,0,0,response1disk,,7,-0.945056929,8.620794472,1,0,0,rectangle,-0.945056929,8.620794472,1,0,0,-0.945056929,8.620794472,1,0,0,1,47,207,155,1,,,,,,,,
,,,,,,,,,,,,,FF,,,,,,,,0.5492,,,,,,,,,,,,,,,,,,,,,,610092cd118be400cb5a66fa,61036b6f59129d8a6f89f1a0,2021-07-29_22h05.14.943,Simcolourproject_2stim_asymm_v5,2020.2.10,Linux x86_64,60,61025ae37ef11b136ea224fe,,,,,,,,,3690,36.62940652,56.02240651,1,0,0,response1disk,,7,2.21529468,2.231341252,1,0,0,rectangle,2.21529468,2.231341252,1,0,0,2.21529468,2.231341252,1,0,0,1,48,208,76,1,,,,,,,,
,,,,,,,,,,,,,FF,,,,,,,,0.7505,,,,,,,,,,,,,,,,,,,,,,610092cd118be400cb5a66fa,61036b6f59129d8a6f89f1a0,2021-07-29_22h05.14.943,Simcolourproject_2stim_asymm_v5,2020.2.10,Linux x86_64,60,61025ae37ef11b136ea224fe,,,,,,,,,3774,29.73629118,50.13485759,1,0,0,response1disk,,7,-2.502625312,-9.757428458,1,0,0,rectangle,-2.502625312,-9.757428458,1,0,0,-2.502625312,-9.757428458,1,0,0,1,49,209,36,1,,,,,,,,
,,,,,,,,,,,,,FF,,,,,,,,0.952,,,,,,,,,,,,,,,,,,,,,,610092cd118be400cb5a66fa,61036b6f59129d8a6f89f1a0,2021-07-29_22h05.14.943,Simcolourproject_2stim_asymm_v5,2020.2.10,Linux x86_64,60,61025ae37ef11b136ea224fe,,,,,,,,,261,-80.34686475,27.9995057,1,0,0,response7disk,,1,-10.69256684,2.312200628,1,0,0,rectangle,-10.69256684,2.312200628,1,0,0,-10.69256684,2.312200628,1,0,0,1,50,210,25,1,,,,,,,,
,,,,,,,,,,,,,FF,,,,,,,,1.3338,,,,,,,,,,,,,,,,,,,,,,610092cd118be400cb5a66fa,61036b6f59129d8a6f89f1a0,2021-07-29_22h05.14.943,Simcolourproject_2stim_asymm_v5,2020.2.10,Linux x86_64,60,61025ae37ef11b136ea224fe,,,,,,,,,2427,-30.50565307,-91.49248827,1,0,0,response5disk,,3,11.61480654,-15.12481135,1,0,0,rectangle,11.61480654,-15.12481135,1,0,0,11.61480654,-15.12481135,1,0,0,1,51,211,33,1,,,,,,,,
,,,,,,,,,,,,,FF,,,,,,,,1.1171,,,,,,,,,,,,,,,,,,,,,,610092cd118be400cb5a66fa,61036b6f59129d8a6f89f1a0,2021-07-29_22h05.14.943,Simcolourproject_2stim_asymm_v5,2020.2.10,Linux x86_64,60,61025ae37ef11b136ea224fe,,,,,,,,,4126,38.08848857,44.75502353,1,0,0,response1disk,,7,15.86778512,3.125774859,1,0,0,rectangle,15.86778512,3.125774859,1,0,0,15.86778512,3.125774859,1,0,0,1,52,212,12,1,,,,,,,,
,,,,,,,,,,,,,FF,,,,,,,,1.0992,,,,,,,,,,,,,,,,,,,,,,610092cd118be400cb5a66fa,61036b6f59129d8a6f89f1a0,2021-07-29_22h05.14.943,Simcolourproject_2stim_asymm_v5,2020.2.10,Linux x86_64,60,61025ae37ef11b136ea224fe,,,,,,,,,1774,24.16016805,85.47033175,1,0,0,response1disk,,7,4.311241977,7.971526885,1,0,0,rectangle,38.02315654,84.12267548,1,0,0,10.44747254,7.853509305,1,0,0,1,53,213,103,1,,response1disk_3,TRUE,7,7,"[214,95,61,22,207,200,256,157,130,94,306,46,44,288,267,35,97,190,65,165]",2.0155,rectangle
,,,,,,,,,,,,,FF,,,,,,,,0.7331,,,,,,,,,,,,,,,,,,,,,,610092cd118be400cb5a66fa,61036b6f59129d8a6f89f1a0,2021-07-29_22h05.14.943,Simcolourproject_2stim_asymm_v5,2020.2.10,Linux x86_64,60,61025ae37ef11b136ea224fe,,,,,,,,,1493,25.66925011,50.66928143,1,0,0,response1disk,,7,8.639269385,6.639642099,1,0,0,rectangle,8.639269385,6.639642099,1,0,0,8.639269385,6.639642099,1,0,0,1,54,214,4,1,,,,,,,,
,,,,,,,,,,,,,FF,,,,,,,,0.7999,,,,,,,,,,,,,,,,,,,,,,610092cd118be400cb5a66fa,61036b6f59129d8a6f89f1a0,2021-07-29_22h05.14.943,Simcolourproject_2stim_asymm_v5,2020.2.10,Linux x86_64,60,61025ae37ef11b136ea224fe,,,,,,,,,1712,43.96773671,59.0375921,1,0,0,response1disk,,7,17.11177928,7.88256204,1,0,0,rectangle,17.11177928,7.88256204,1,0,0,17.11177928,7.88256204,1,0,0,1,55,215,60,1,,,,,,,,
,,,,,,,,,,,,,FF,,,,,,,,0.8341,,,,,,,,,,,,,,,,,,,,,,610092cd118be400cb5a66fa,61036b6f59129d8a6f89f1a0,2021-07-29_22h05.14.943,Simcolourproject_2stim_asymm_v5,2020.2.10,Linux x86_64,60,61025ae37ef11b136ea224fe,,,,,,,,,4057,29.58028532,113.2469191,1,0,0,response1disk,,7,11.7392206,11.0152281,1,0,0,rectangle,11.7392206,11.0152281,1,0,0,11.7392206,11.0152281,1,0,0,1,56,216,104,1,,,,,,,,
,,,,,,,,,,,,,FF,,,,,,,,2.2669,,,,,,,,,,,,,,,,,,,,,,610092cd118be400cb5a66fa,61036b6f59129d8a6f89f1a0,2021-07-29_22h05.14.943,Simcolourproject_2stim_asymm_v5,2020.2.10,Linux x86_64,60,61025ae37ef11b136ea224fe,,,,,,,,,437,-98.08402322,-71.61177508,1,0,0,response5disk,,2,3.619835717,-0.901910748,1,0,0,rectangle,3.619835717,-0.901910748,1,0,0,3.619835717,-0.901910748,1,0,0,1,57,217,78,1,,,,,,,,
,,,,,,,,,,,,,FF,,,,,,,,0.9659,,,,,,,,,,,,,,,,,,,,,,610092cd118be400cb5a66fa,61036b6f59129d8a6f89f1a0,2021-07-29_22h05.14.943,Simcolourproject_2stim_asymm_v5,2020.2.10,Linux x86_64,60,61025ae37ef11b136ea224fe,,,,,,,,,1345,40.73922104,77.06432577,1,0,0,response1disk,,7,8.250939301,8.945696821,1,0,0,rectangle,8.250939301,8.945696821,1,0,0,8.250939301,8.945696821,1,0,0,1,58,218,49,1,,,,,,,,
,,,,,,,,,,,,,FF,,,,,,,,0.7341,,,,,,,,,,,,,,,,,,,,,,610092cd118be400cb5a66fa,61036b6f59129d8a6f89f1a0,2021-07-29_22h05.14.943,Simcolourproject_2stim_asymm_v5,2020.2.10,Linux x86_64,60,61025ae37ef11b136ea224fe,,,,,,,,,4004,41.53023667,72.6671089,1,0,0,response1disk,,7,14.26544134,15.19452504,1,0,0,rectangle,14.26544134,15.19452504,1,0,0,14.26544134,15.19452504,1,0,0,1,59,219,136,1,,,,,,,,
,,,,,,,,,,,,,FF,,,,,,,,0.6346,,,,,,,,,,,,,,,,,,,,,,610092cd118be400cb5a66fa,61036b6f59129d8a6f89f1a0,2021-07-29_22h05.14.943,Simcolourproject_2stim_asymm_v5,2020.2.10,Linux x86_64,60,61025ae37ef11b136ea224fe,,,,,,,,,89,33.74849828,77.9529,1,0,0,response1disk,,7,15.24468941,0.591936931,1,0,0,rectangle,15.24468941,0.591936931,1,0,0,15.24468941,0.591936931,1,0,0,1,60,220,135,1,,,,,,,,
,,,,,,,,,,,,,FF,,,,,,,,1.0831,,,,,,,,,,,,,,,,,,,,,,610092cd118be400cb5a66fa,61036b6f59129d8a6f89f1a0,2021-07-29_22h05.14.943,Simcolourproject_2stim_asymm_v5,2020.2.10,Linux x86_64,60,61025ae37ef11b136ea224fe,,,,,,,,,2586,24.22628134,45.45941807,1,0,0,response1disk,,7,16.1588984,-10.99331715,1,0,0,rectangle,16.1588984,-10.99331715,1,0,0,16.1588984,-10.99331715,1,0,0,1,61,221,61,1,,,,,,,,
,,,,,,,,,,,,,FF,,,,,,,,0.6673,,,,,,,,,,,,,,,,,,,,,,610092cd118be400cb5a66fa,61036b6f59129d8a6f89f1a0,2021-07-29_22h05.14.943,Simcolourproject_2stim_asymm_v5,2020.2.10,Linux x86_64,60,61025ae37ef11b136ea224fe,,,,,,,,,1187,36.61280496,68.92611764,1,0,0,response1disk,,7,16.51641794,-4.586578771,1,0,0,rectangle,16.51641794,-4.586578771,1,0,0,16.51641794,-4.586578771,1,0,0,1,62,222,57,1,,,,,,,,
,,,,,,,,,,,,,FF,,,,,,,,1.2667,,,,,,,,,,,,,,,,,,,,,,610092cd118be400cb5a66fa,61036b6f59129d8a6f89f1a0,2021-07-29_22h05.14.943,Simcolourproject_2stim_asymm_v5,2020.2.10,Linux x86_64,60,61025ae37ef11b136ea224fe,,,,,,,,,3585,-31.47489137,-82.05420688,1,0,0,response5disk,,3,16.54757028,-4.037652982,1,0,0,rectangle,16.54757028,-4.037652982,1,0,0,16.54757028,-4.037652982,1,0,0,1,63,223,102,1,,,,,,,,
,,,,,,,,,,,,,FF,,,,,,,,0.6327,,,,,,,,,,,,,,,,,,,,,,610092cd118be400cb5a66fa,61036b6f59129d8a6f89f1a0,2021-07-29_22h05.14.943,Simcolourproject_2stim_asymm_v5,2020.2.10,Linux x86_64,60,61025ae37ef11b136ea224fe,,,,,,,,,109,36.54571511,45.24721103,1,0,0,response1disk,,7,18.0479121,11.47894881,1,0,0,rectangle,18.0479121,11.47894881,1,0,0,18.0479121,11.47894881,1,0,0,1,64,224,123,1,,,,,,,,
,,,,,,,,,,,,,FF,,,,,,,,0.75,,,,,,,,,,,,,,,,,,,,,,610092cd118be400cb5a66fa,61036b6f59129d8a6f89f1a0,2021-07-29_22h05.14.943,Simcolourproject_2stim_asymm_v5,2020.2.10,Linux x86_64,60,61025ae37ef11b136ea224fe,,,,,,,,,432,31.16671113,49.47597086,1,0,0,response1disk,,7,9.897228388,-0.145856049,1,0,0,rectangle,9.897228388,-0.145856049,1,0,0,9.897228388,-0.145856049,1,0,0,1,65,225,107,1,,,,,,,,
,,,,,,,,,,,,,FF,,,,,,,,0.6157,,,,,,,,,,,,,,,,,,,,,,610092cd118be400cb5a66fa,61036b6f59129d8a6f89f1a0,2021-07-29_22h05.14.943,Simcolourproject_2stim_asymm_v5,2020.2.10,Linux x86_64,60,61025ae37ef11b136ea224fe,,,,,,,,,530,36.24024636,55.65687916,1,0,0,response1disk,,7,16.63106638,13.7078551,1,0,0,rectangle,16.63106638,13.7078551,1,0,0,16.63106638,13.7078551,1,0,0,1,66,226,144,1,,,,,,,,
,,,,,,,,,,,,,FF,,,,,,,,0.6344,,,,,,,,,,,,,,,,,,,,,,610092cd118be400cb5a66fa,61036b6f59129d8a6f89f1a0,2021-07-29_22h05.14.943,Simcolourproject_2stim_asymm_v5,2020.2.10,Linux x86_64,60,61025ae37ef11b136ea224fe,,,,,,,,,4289,38.582971,76.11537556,1,0,0,response1disk,,7,18.0564082,16.17489615,1,0,0,rectangle,18.0564082,16.17489615,1,0,0,18.0564082,16.17489615,1,0,0,1,67,227,127,1,,,,,,,,
,,,,,,,,,,,,,FF,,,,,,,,0.4832,,,,,,,,,,,,,,,,,,,,,,610092cd118be400cb5a66fa,61036b6f59129d8a6f89f1a0,2021-07-29_22h05.14.943,Simcolourproject_2stim_asymm_v5,2020.2.10,Linux x86_64,60,61025ae37ef11b136ea224fe,,,,,,,,,4243,41.50679917,73.53541946,1,0,0,response1disk,,7,11.19039247,10.2419859,1,0,0,rectangle,11.19039247,10.2419859,1,0,0,11.19039247,10.2419859,1,0,0,1,68,228,1,1,,,,,,,,
,,,,,,,,,,,,,FF,,,,,,,,0.4329,,,,,,,,,,,,,,,,,,,,,,610092cd118be400cb5a66fa,61036b6f59129d8a6f89f1a0,2021-07-29_22h05.14.943,Simcolourproject_2stim_asymm_v5,2020.2.10,Linux x86_64,60,61025ae37ef11b136ea224fe,,,,,,,,,111,37.9225706,61.01500912,1,0,0,response1disk,,7,10.22520691,10.22597028,1,0,0,rectangle,10.22520691,10.22597028,1,0,0,10.22520691,10.22597028,1,0,0,1,69,229,41,1,,,,,,,,
,,,,,,,,,,,,,FF,,,,,,,,1.049,,,,,,,,,,,,,,,,,,,,,,610092cd118be400cb5a66fa,61036b6f59129d8a6f89f1a0,2021-07-29_22h05.14.943,Simcolourproject_2stim_asymm_v5,2020.2.10,Linux x86_64,60,61025ae37ef11b136ea224fe,,,,,,,,,554,37.50216044,64.83808047,1,0,0,response1disk,,7,6.814171702,3.527044397,1,0,0,rectangle,6.814171702,3.527044397,1,0,0,6.814171702,3.527044397,1,0,0,1,70,230,90,1,,,,,,,,
,,,,,,,,,,,,,FF,,,,,,,,0.8161,,,,,,,,,,,,,,,,,,,,,,610092cd118be400cb5a66fa,61036b6f59129d8a6f89f1a0,2021-07-29_22h05.14.943,Simcolourproject_2stim_asymm_v5,2020.2.10,Linux x86_64,60,61025ae37ef11b136ea224fe,,,,,,,,,194,17.14205272,30.42794812,1,0,0,response1disk,,7,4.763390421,2.054974062,1,0,0,rectangle,4.763390421,2.054974062,1,0,0,4.763390421,2.054974062,1,0,0,1,71,231,139,1,,,,,,,,
,,,,,,,,,,,,,FF,,,,,,,,0.7167,,,,,,,,,,,,,,,,,,,,,,610092cd118be400cb5a66fa,61036b6f59129d8a6f89f1a0,2021-07-29_22h05.14.943,Simcolourproject_2stim_asymm_v5,2020.2.10,Linux x86_64,60,61025ae37ef11b136ea224fe,,,,,,,,,786,28.13179897,48.67108804,1,0,0,response1disk,,7,15.94800973,4.684661601,1,0,0,rectangle,15.94800973,4.684661601,1,0,0,15.94800973,4.684661601,1,0,0,1,72,232,154,1,,,,,,,,
,,,,,,,,,,,,,FF,,,,,,,,0.5319,,,,,,,,,,,,,,,,,,,,,,610092cd118be400cb5a66fa,61036b6f59129d8a6f89f1a0,2021-07-29_22h05.14.943,Simcolourproject_2stim_asymm_v5,2020.2.10,Linux x86_64,60,61025ae37ef11b136ea224fe,,,,,,,,,4125,31.17847871,48.90724527,1,0,0,response1disk,,7,-4.779285502,-5.890778009,1,0,0,rectangle,-4.779285502,-5.890778009,1,0,0,-4.779285502,-5.890778009,1,0,0,1,73,233,7,1,,,,,,,,
,,,,,,,,,,,,,FF,,,,,,,,0.4329,,,,,,,,,,,,,,,,,,,,,,610092cd118be400cb5a66fa,61036b6f59129d8a6f89f1a0,2021-07-29_22h05.14.943,Simcolourproject_2stim_asymm_v5,2020.2.10,Linux x86_64,60,61025ae37ef11b136ea224fe,,,,,,,,,2448,18.83936719,45.50123936,1,0,0,response1disk,,7,0.481407936,4.963421371,1,0,0,rectangle,0.481407936,4.963421371,1,0,0,0.481407936,4.963421371,1,0,0,1,74,234,27,1,,,,,,,,
,,,,,,,,,,,,,FF,,,,,,,,0.7175,,,,,,,,,,,,,,,,,,,,,,610092cd118be400cb5a66fa,61036b6f59129d8a6f89f1a0,2021-07-29_22h05.14.943,Simcolourproject_2stim_asymm_v5,2020.2.10,Linux x86_64,60,61025ae37ef11b136ea224fe,,,,,,,,,628,24.28394735,49.17516519,1,0,0,response1disk,,7,13.54151555,8.632220254,1,0,0,rectangle,13.54151555,8.632220254,1,0,0,13.54151555,8.632220254,1,0,0,1,75,235,138,1,,,,,,,,
,,,,,,,,,,,,,FF,,,,,,,,1.2664,,,,,,,,,,,,,,,,,,,,,,610092cd118be400cb5a66fa,61036b6f59129d8a6f89f1a0,2021-07-29_22h05.14.943,Simcolourproject_2stim_asymm_v5,2020.2.10,Linux x86_64,60,61025ae37ef11b136ea224fe,,,,,,,,,2673,64.93800069,-20.67534854,1,0,0,response3disk,,5,28.11597866,-9.584869861,1,0,0,rectangle,28.11597866,-9.584869861,1,0,0,28.11597866,-9.584869861,1,0,0,1,76,236,146,1,,,,,,,,
,,,,,,,,,,,,,FF,,,,,,,,0.6675,,,,,,,,,,,,,,,,,,,,,,610092cd118be400cb5a66fa,61036b6f59129d8a6f89f1a0,2021-07-29_22h05.14.943,Simcolourproject_2stim_asymm_v5,2020.2.10,Linux x86_64,60,61025ae37ef11b136ea224fe,,,,,,,,,2320,34.38155493,44.83009677,1,0,0,response1disk,,7,12.70635929,6.558147957,1,0,0,rectangle,12.70635929,6.558147957,1,0,0,12.70635929,6.558147957,1,0,0,1,77,237,94,1,,,,,,,,
,,,,,,,,,,,,,FF,,,,,,,,1.1001,,,,,,,,,,,,,,,,,,,,,,610092cd118be400cb5a66fa,61036b6f59129d8a6f89f1a0,2021-07-29_22h05.14.943,Simcolourproject_2stim_asymm_v5,2020.2.10,Linux x86_64,60,61025ae37ef11b136ea224fe,,,,,,,,,2224,24.69844931,34.96657123,1,0,0,response1disk,,7,-0.047254182,-8.30835617,1,0,0,rectangle,-0.047254182,-8.30835617,1,0,0,-0.047254182,-8.30835617,1,0,0,1,78,238,122,1,,,,,,,,
