key_resp.keys,key_resp.rt,key_resp_14.keys,key_resp_14.rt,key_resp_15.keys,key_resp_15.rt,key_resp_17.keys,key_resp_17.rt,key_resp_9.keys,key_resp_9.rt,key_resp_10.keys,key_resp_10.rt,practice_comparison,Ecc,mouse_5.x,mouse_5.y,mouse_5.leftButton,mouse_5.midButton,mouse_5.rightButton,mouse_5.clicked_name,pracsimilarity,response_time,mouse_10.x,mouse_10.y,mouse_10.leftButton,mouse_10.midButton,mouse_10.rightButton,mouse_10.clicked_name,mouse_7.x,mouse_7.y,mouse_7.leftButton,mouse_7.midButton,mouse_7.rightButton,mouse_6.x,mouse_6.y,mouse_6.leftButton,mouse_6.midButton,mouse_6.rightButton,duringprac.thisRepN,duringprac.thisTrialN,duringprac.thisN,duringprac.thisIndex,duringprac.ran,participant,session,date,expName,psychopyVersion,OS,frameRate,study_id,mouse_7.clicked_name,catchpracsimilarity,catch_response_time,catchnumberprac,catchtrialorderprac,mouse_6.clicked_name,key_resp_22.keys,key_resp_22.rt,realcomparison,mouse.x,mouse.y,mouse.leftButton,mouse.midButton,mouse.rightButton,mouse.clicked_name,Colour2,similarity,mouse_2.x,mouse_2.y,mouse_2.leftButton,mouse_2.midButton,mouse_2.rightButton,mouse_2.clicked_name,mouse_3.x,mouse_3.y,mouse_3.leftButton,mouse_3.midButton,mouse_3.rightButton,mouse_11.x,mouse_11.y,mouse_11.leftButton,mouse_11.midButton,mouse_11.rightButton,trials_2.thisRepN,trials_2.thisTrialN,trials_2.thisN,trials_2.thisIndex,trials_2.ran,Colour1,mouse_3.clicked_name,catchornah,catchsimilarity,catchnumber,catchtrialorder,catchRT,mouse_11.clicked_name
space,1.347,space,6.322,space,22.698,space,14.076,space,2.53,space,6.19,118,FF,-61.5,32.5,1,0,0,response7disk_5,1,9.549,9.5,-3.5,1,0,0,rectangle_8,9.5,-3.5,1,0,0,9.5,-3.5,1,0,0,0,0,0,0,1,6100d4108e61dace24b7fd6a,61036b483336c5504ee1554f,2021-07-29_20h01.07.277,Simcolourproject_2stim_asymm_v5,2020.2.10,MacIntel,60,61025ae37ef11b136ea224fe,,,,,,,,,,,,,,,,,,,,,,,,,,,,,,,,,,,,,,,,,,,,,,
,,,,,,,,,,,,104,FF,74.5,28.5,1,0,0,response1disk_5,6,3.351,2.5,0.5,1,0,0,rectangle_8,-25.5,-79.5,1,0,0,0.5,-2.5,1,0,0,0,1,1,3,1,6100d4108e61dace24b7fd6a,61036b483336c5504ee1554f,2021-07-29_20h01.07.277,Simcolourproject_2stim_asymm_v5,2020.2.10,MacIntel,60,61025ae37ef11b136ea224fe,response5disk_7,3,3.9,3,"[2,5]",rectangle_4,,,,,,,,,,,,,,,,,,,,,,,,,,,,,,,,,,,,,,,,
,,,,,,,,,,,,37,PF,-20.5,-75.5,1,0,0,response5disk_5,3,6.682,13.5,3.5,1,0,0,rectangle_8,13.5,3.5,1,0,0,13.5,3.5,1,0,0,0,2,2,6,1,6100d4108e61dace24b7fd6a,61036b483336c5504ee1554f,2021-07-29_20h01.07.277,Simcolourproject_2stim_asymm_v5,2020.2.10,MacIntel,60,61025ae37ef11b136ea224fe,,,,,,,,,,,,,,,,,,,,,,,,,,,,,,,,,,,,,,,,,,,,,,
,,,,,,,,,,,,51,PF,-37.5,-21.5,1,0,0,response5disk_5,2,1.95,1.5,9.5,1,0,0,rectangle_8,1.5,9.5,1,0,0,1.5,9.5,1,0,0,0,3,3,2,1,6100d4108e61dace24b7fd6a,61036b483336c5504ee1554f,2021-07-29_20h01.07.277,Simcolourproject_2stim_asymm_v5,2020.2.10,MacIntel,60,61025ae37ef11b136ea224fe,,,,,,,,,,,,,,,,,,,,,,,,,,,,,,,,,,,,,,,,,,,,,,
,,,,,,,,,,,,50,FF,-17.5,-56.5,1,0,0,response5disk_5,3,2.233,14.5,1.5,1,0,0,rectangle_8,-30.5,-71.5,1,0,0,-5.5,-4.5,1,0,0,0,4,4,5,1,6100d4108e61dace24b7fd6a,61036b483336c5504ee1554f,2021-07-29_20h01.07.277,Simcolourproject_2stim_asymm_v5,2020.2.10,MacIntel,60,61025ae37ef11b136ea224fe,response5disk_7,3,2.118,3,"[2,5]",rectangle_4,,,,,,,,,,,,,,,,,,,,,,,,,,,,,,,,,,,,,,,,
,,,,,,,,,,,,80,PF,71.5,-32.5,1,0,0,response3disk_5,5,2,-1.5,-3.5,1,0,0,rectangle_8,-1.5,-3.5,1,0,0,-1.5,-3.5,1,0,0,0,5,5,4,1,6100d4108e61dace24b7fd6a,61036b483336c5504ee1554f,2021-07-29_20h01.07.277,Simcolourproject_2stim_asymm_v5,2020.2.10,MacIntel,60,61025ae37ef11b136ea224fe,,,,,,,,,,,,,,,,,,,,,,,,,,,,,,,,,,,,,,,,,,,,,,
,,,,,,,,,,,,40,PF,-43.5,-18.5,1,0,0,response5disk_5,2,1.35,4.5,0.5,1,0,0,rectangle_8,4.5,0.5,1,0,0,4.5,0.5,1,0,0,0,6,6,1,1,6100d4108e61dace24b7fd6a,61036b483336c5504ee1554f,2021-07-29_20h01.07.277,Simcolourproject_2stim_asymm_v5,2020.2.10,MacIntel,60,61025ae37ef11b136ea224fe,,,,,,,,,,,,,,,,,,,,,,,,,,,,,,,,,,,,,,,,,,,,,,
,,,,,,,,,,,,,FF,,,,,,,,3.767,,,,,,,,,,,,,,,,,,,,,,6100d4108e61dace24b7fd6a,61036b483336c5504ee1554f,2021-07-29_20h01.07.277,Simcolourproject_2stim_asymm_v5,2020.2.10,MacIntel,60,61025ae37ef11b136ea224fe,,,,,,,space,3.57,1124,20.5,-70.5,1,0,0,response3disk,,4,-3.5,-2.5,1,0,0,rectangle,-3.5,-2.5,1,0,0,-3.5,-2.5,1,0,0,0,0,0,150,1,,,,,,,,
,,,,,,,,,,,,,FF,,,,,,,,4.949,,,,,,,,,,,,,,,,,,,,,,6100d4108e61dace24b7fd6a,61036b483336c5504ee1554f,2021-07-29_20h01.07.277,Simcolourproject_2stim_asymm_v5,2020.2.10,MacIntel,60,61025ae37ef11b136ea224fe,,,,,,,,,926,-60.5,-30.5,1,0,0,response5disk,,2,4.5,0.5,1,0,0,rectangle,4.5,0.5,1,0,0,4.5,0.5,1,0,0,0,1,1,128,1,,,,,,,,
,,,,,,,,,,,,,FF,,,,,,,,2.082,,,,,,,,,,,,,,,,,,,,,,6100d4108e61dace24b7fd6a,61036b483336c5504ee1554f,2021-07-29_20h01.07.277,Simcolourproject_2stim_asymm_v5,2020.2.10,MacIntel,60,61025ae37ef11b136ea224fe,,,,,,,,,2702,-46.5,-22.5,1,0,0,response5disk,,2,13.5,2.5,1,0,0,rectangle,13.5,2.5,1,0,0,13.5,2.5,1,0,0,0,2,2,106,1,,,,,,,,
,,,,,,,,,,,,,FF,,,,,,,,1.383,,,,,,,,,,,,,,,,,,,,,,6100d4108e61dace24b7fd6a,61036b483336c5504ee1554f,2021-07-29_20h01.07.277,Simcolourproject_2stim_asymm_v5,2020.2.10,MacIntel,60,61025ae37ef11b136ea224fe,,,,,,,,,1175,-31.5,71.5,1,0,0,response7disk,,0,13.5,1.5,1,0,0,rectangle,13.5,1.5,1,0,0,13.5,1.5,1,0,0,0,3,3,31,1,,,,,,,,
,,,,,,,,,,,,,FF,,,,,,,,1.433,,,,,,,,,,,,,,,,,,,,,,6100d4108e61dace24b7fd6a,61036b483336c5504ee1554f,2021-07-29_20h01.07.277,Simcolourproject_2stim_asymm_v5,2020.2.10,MacIntel,60,61025ae37ef11b136ea224fe,,,,,,,,,3771,-28.5,-66.5,1,0,0,response5disk,,3,9.5,-0.5,1,0,0,rectangle,9.5,-0.5,1,0,0,9.5,-0.5,1,0,0,0,4,4,66,1,,,,,,,,
,,,,,,,,,,,,,FF,,,,,,,,1.151,,,,,,,,,,,,,,,,,,,,,,6100d4108e61dace24b7fd6a,61036b483336c5504ee1554f,2021-07-29_20h01.07.277,Simcolourproject_2stim_asymm_v5,2020.2.10,MacIntel,60,61025ae37ef11b136ea224fe,,,,,,,,,2579,-75.5,43.5,1,0,0,response7disk,,1,14.5,-7.5,1,0,0,rectangle,14.5,-7.5,1,0,0,14.5,-7.5,1,0,0,0,5,5,14,1,,,,,,,,
,,,,,,,,,,,,,FF,,,,,,,,0.951,,,,,,,,,,,,,,,,,,,,,,6100d4108e61dace24b7fd6a,61036b483336c5504ee1554f,2021-07-29_20h01.07.277,Simcolourproject_2stim_asymm_v5,2020.2.10,MacIntel,60,61025ae37ef11b136ea224fe,,,,,,,,,1182,-36.5,65.5,1,0,0,response7disk,,0,4.5,-2.5,1,0,0,rectangle,4.5,-2.5,1,0,0,4.5,-2.5,1,0,0,0,6,6,16,1,,,,,,,,
,,,,,,,,,,,,,FF,,,,,,,,1.567,,,,,,,,,,,,,,,,,,,,,,6100d4108e61dace24b7fd6a,61036b483336c5504ee1554f,2021-07-29_20h01.07.277,Simcolourproject_2stim_asymm_v5,2020.2.10,MacIntel,60,61025ae37ef11b136ea224fe,,,,,,,,,428,-54.5,-25.5,1,0,0,response5disk,,2,8.5,2.5,1,0,0,rectangle,8.5,2.5,1,0,0,8.5,2.5,1,0,0,0,7,7,39,1,,,,,,,,
,,,,,,,,,,,,,FF,,,,,,,,1.316,,,,,,,,,,,,,,,,,,,,,,6100d4108e61dace24b7fd6a,61036b483336c5504ee1554f,2021-07-29_20h01.07.277,Simcolourproject_2stim_asymm_v5,2020.2.10,MacIntel,60,61025ae37ef11b136ea224fe,,,,,,,,,2457,-75.5,41.5,1,0,0,response7disk,,1,0.5,11.5,1,0,0,rectangle,0.5,11.5,1,0,0,0.5,11.5,1,0,0,0,8,8,59,1,,,,,,,,
,,,,,,,,,,,,,FF,,,,,,,,1.55,,,,,,,,,,,,,,,,,,,,,,6100d4108e61dace24b7fd6a,61036b483336c5504ee1554f,2021-07-29_20h01.07.277,Simcolourproject_2stim_asymm_v5,2020.2.10,MacIntel,60,61025ae37ef11b136ea224fe,,,,,,,,,997,48.5,-70.5,1,0,0,response3disk,,4,1.5,2.5,1,0,0,rectangle,1.5,2.5,1,0,0,1.5,2.5,1,0,0,0,9,9,5,1,,,,,,,,
,,,,,,,,,,,,,FF,,,,,,,,1,,,,,,,,,,,,,,,,,,,,,,6100d4108e61dace24b7fd6a,61036b483336c5504ee1554f,2021-07-29_20h01.07.277,Simcolourproject_2stim_asymm_v5,2020.2.10,MacIntel,60,61025ae37ef11b136ea224fe,,,,,,,,,32,-71.5,-24.5,1,0,0,response5disk,,2,10.5,8.5,1,0,0,rectangle,10.5,8.5,1,0,0,10.5,8.5,1,0,0,0,10,10,99,1,,,,,,,,
,,,,,,,,,,,,,FF,,,,,,,,1.516,,,,,,,,,,,,,,,,,,,,,,6100d4108e61dace24b7fd6a,61036b483336c5504ee1554f,2021-07-29_20h01.07.277,Simcolourproject_2stim_asymm_v5,2020.2.10,MacIntel,60,61025ae37ef11b136ea224fe,,,,,,,,,2206,-13.5,64.5,1,0,0,response7disk,,0,4.5,0.5,1,0,0,rectangle,4.5,0.5,1,0,0,4.5,0.5,1,0,0,0,11,11,62,1,,,,,,,,
,,,,,,,,,,,,,FF,,,,,,,,2.95,,,,,,,,,,,,,,,,,,,,,,6100d4108e61dace24b7fd6a,61036b483336c5504ee1554f,2021-07-29_20h01.07.277,Simcolourproject_2stim_asymm_v5,2020.2.10,MacIntel,60,61025ae37ef11b136ea224fe,,,,,,,,,2516,-60.5,-31.5,1,0,0,response5disk,,2,6.5,11.5,1,0,0,rectangle,6.5,11.5,1,0,0,6.5,11.5,1,0,0,0,12,12,134,1,,,,,,,,
,,,,,,,,,,,,,FF,,,,,,,,5.717,,,,,,,,,,,,,,,,,,,,,,6100d4108e61dace24b7fd6a,61036b483336c5504ee1554f,2021-07-29_20h01.07.277,Simcolourproject_2stim_asymm_v5,2020.2.10,MacIntel,60,61025ae37ef11b136ea224fe,,,,,,,,,276,41.5,61.5,1,0,0,response1disk,,7,14.5,-2.5,1,0,0,rectangle,14.5,-2.5,1,0,0,14.5,-2.5,1,0,0,0,13,13,145,1,,,,,,,,
,,,,,,,,,,,,,FF,,,,,,,,4.783,,,,,,,,,,,,,,,,,,,,,,6100d4108e61dace24b7fd6a,61036b483336c5504ee1554f,2021-07-29_20h01.07.277,Simcolourproject_2stim_asymm_v5,2020.2.10,MacIntel,60,61025ae37ef11b136ea224fe,,,,,,,,,1874,73.5,-46.5,1,0,0,response3disk,,5,4.5,-2.5,1,0,0,rectangle,4.5,-2.5,1,0,0,4.5,-2.5,1,0,0,0,14,14,55,1,,,,,,,,
,,,,,,,,,,,,,FF,,,,,,,,3.483,,,,,,,,,,,,,,,,,,,,,,6100d4108e61dace24b7fd6a,61036b483336c5504ee1554f,2021-07-29_20h01.07.277,Simcolourproject_2stim_asymm_v5,2020.2.10,MacIntel,60,61025ae37ef11b136ea224fe,,,,,,,,,899,53.5,-35.5,1,0,0,response3disk,,5,5.5,7.5,1,0,0,rectangle,44.5,72.5,1,0,0,19.5,-2.5,1,0,0,0,15,15,77,1,,response1disk_3,TRUE,7,7,"[272,297,280,114,211,100,110,170,255,311,105,259,296,65,168,142,272,254,16,42]",2.484,rectangle
,,,,,,,,,,,,,FF,,,,,,,,1.183,,,,,,,,,,,,,,,,,,,,,,6100d4108e61dace24b7fd6a,61036b483336c5504ee1554f,2021-07-29_20h01.07.277,Simcolourproject_2stim_asymm_v5,2020.2.10,MacIntel,60,61025ae37ef11b136ea224fe,,,,,,,,,1634,37.5,80.5,1,0,0,response1disk,,7,7.5,0.5,1,0,0,rectangle,7.5,0.5,1,0,0,7.5,0.5,1,0,0,0,16,16,49,1,,,,,,,,
,,,,,,,,,,,,,FF,,,,,,,,2.566,,,,,,,,,,,,,,,,,,,,,,6100d4108e61dace24b7fd6a,61036b483336c5504ee1554f,2021-07-29_20h01.07.277,Simcolourproject_2stim_asymm_v5,2020.2.10,MacIntel,60,61025ae37ef11b136ea224fe,,,,,,,,,100,-21.5,-67.5,1,0,0,response5disk,,3,12.5,0.5,1,0,0,rectangle,12.5,0.5,1,0,0,12.5,0.5,1,0,0,0,17,17,15,1,,,,,,,,
,,,,,,,,,,,,,FF,,,,,,,,1.352,,,,,,,,,,,,,,,,,,,,,,6100d4108e61dace24b7fd6a,61036b483336c5504ee1554f,2021-07-29_20h01.07.277,Simcolourproject_2stim_asymm_v5,2020.2.10,MacIntel,60,61025ae37ef11b136ea224fe,,,,,,,,,983,-47.5,-18.5,1,0,0,response5disk,,2,-3.5,3.5,1,0,0,rectangle,-3.5,3.5,1,0,0,-3.5,3.5,1,0,0,0,18,18,84,1,,,,,,,,
,,,,,,,,,,,,,FF,,,,,,,,1.701,,,,,,,,,,,,,,,,,,,,,,6100d4108e61dace24b7fd6a,61036b483336c5504ee1554f,2021-07-29_20h01.07.277,Simcolourproject_2stim_asymm_v5,2020.2.10,MacIntel,60,61025ae37ef11b136ea224fe,,,,,,,,,919,75.5,30.5,1,0,0,response1disk,,6,4.5,-4.5,1,0,0,rectangle,4.5,-4.5,1,0,0,4.5,-4.5,1,0,0,0,19,19,120,1,,,,,,,,
,,,,,,,,,,,,,FF,,,,,,,,2.283,,,,,,,,,,,,,,,,,,,,,,6100d4108e61dace24b7fd6a,61036b483336c5504ee1554f,2021-07-29_20h01.07.277,Simcolourproject_2stim_asymm_v5,2020.2.10,MacIntel,60,61025ae37ef11b136ea224fe,,,,,,,,,2351,29.5,-70.5,1,0,0,response3disk,,4,12.5,-0.5,1,0,0,rectangle,12.5,-0.5,1,0,0,12.5,-0.5,1,0,0,0,20,20,45,1,,,,,,,,
,,,,,,,,,,,,,FF,,,,,,,,1.617,,,,,,,,,,,,,,,,,,,,,,6100d4108e61dace24b7fd6a,61036b483336c5504ee1554f,2021-07-29_20h01.07.277,Simcolourproject_2stim_asymm_v5,2020.2.10,MacIntel,60,61025ae37ef11b136ea224fe,,,,,,,,,4125,-45.5,-26.5,1,0,0,response5disk,,2,-10.5,2.5,1,0,0,rectangle,-10.5,2.5,1,0,0,-10.5,2.5,1,0,0,0,21,21,138,1,,,,,,,,
,,,,,,,,,,,,,FF,,,,,,,,1.1,,,,,,,,,,,,,,,,,,,,,,6100d4108e61dace24b7fd6a,61036b483336c5504ee1554f,2021-07-29_20h01.07.277,Simcolourproject_2stim_asymm_v5,2020.2.10,MacIntel,60,61025ae37ef11b136ea224fe,,,,,,,,,1096,66.5,34.5,1,0,0,response1disk,,6,-4.5,-7.5,1,0,0,rectangle,-4.5,-7.5,1,0,0,-4.5,-7.5,1,0,0,0,22,22,82,1,,,,,,,,
,,,,,,,,,,,,,FF,,,,,,,,0.983,,,,,,,,,,,,,,,,,,,,,,6100d4108e61dace24b7fd6a,61036b483336c5504ee1554f,2021-07-29_20h01.07.277,Simcolourproject_2stim_asymm_v5,2020.2.10,MacIntel,60,61025ae37ef11b136ea224fe,,,,,,,,,3160,-32.5,-55.5,1,0,0,response5disk,,3,-4.5,5.5,1,0,0,rectangle,-4.5,5.5,1,0,0,-4.5,5.5,1,0,0,0,23,23,34,1,,,,,,,,
,,,,,,,,,,,,,FF,,,,,,,,4.2,,,,,,,,,,,,,,,,,,,,,,6100d4108e61dace24b7fd6a,61036b483336c5504ee1554f,2021-07-29_20h01.07.277,Simcolourproject_2stim_asymm_v5,2020.2.10,MacIntel,60,61025ae37ef11b136ea224fe,,,,,,,,,1536,-71.5,18.5,1,0,0,response7disk,,1,-10.5,2.5,1,0,0,rectangle,-10.5,2.5,1,0,0,-10.5,2.5,1,0,0,0,24,24,57,1,,,,,,,,
,,,,,,,,,,,,,FF,,,,,,,,1.05,,,,,,,,,,,,,,,,,,,,,,6100d4108e61dace24b7fd6a,61036b483336c5504ee1554f,2021-07-29_20h01.07.277,Simcolourproject_2stim_asymm_v5,2020.2.10,MacIntel,60,61025ae37ef11b136ea224fe,,,,,,,,,3262,70.5,24.5,1,0,0,response1disk,,6,-7.5,0.5,1,0,0,rectangle,-7.5,0.5,1,0,0,-7.5,0.5,1,0,0,0,25,25,142,1,,,,,,,,
,,,,,,,,,,,,,FF,,,,,,,,1.766,,,,,,,,,,,,,,,,,,,,,,6100d4108e61dace24b7fd6a,61036b483336c5504ee1554f,2021-07-29_20h01.07.277,Simcolourproject_2stim_asymm_v5,2020.2.10,MacIntel,60,61025ae37ef11b136ea224fe,,,,,,,,,111,-20.5,-58.5,1,0,0,response5disk,,3,9.5,-5.5,1,0,0,rectangle,9.5,-5.5,1,0,0,9.5,-5.5,1,0,0,0,26,26,89,1,,,,,,,,
,,,,,,,,,,,,,FF,,,,,,,,3.101,,,,,,,,,,,,,,,,,,,,,,6100d4108e61dace24b7fd6a,61036b483336c5504ee1554f,2021-07-29_20h01.07.277,Simcolourproject_2stim_asymm_v5,2020.2.10,MacIntel,60,61025ae37ef11b136ea224fe,,,,,,,,,1694,85.5,37.5,1,0,0,response1disk,,6,9.5,3.5,1,0,0,rectangle,9.5,3.5,1,0,0,9.5,3.5,1,0,0,0,27,27,9,1,,,,,,,,
,,,,,,,,,,,,,FF,,,,,,,,19.618,,,,,,,,,,,,,,,,,,,,,,6100d4108e61dace24b7fd6a,61036b483336c5504ee1554f,2021-07-29_20h01.07.277,Simcolourproject_2stim_asymm_v5,2020.2.10,MacIntel,60,61025ae37ef11b136ea224fe,,,,,,,,,2931,-33.5,-74.5,1,0,0,response5disk,,3,9.5,-6.5,1,0,0,rectangle,9.5,-6.5,1,0,0,9.5,-6.5,1,0,0,0,28,28,81,1,,,,,,,,
,,,,,,,,,,,,,FF,,,,,,,,3.6,,,,,,,,,,,,,,,,,,,,,,6100d4108e61dace24b7fd6a,61036b483336c5504ee1554f,2021-07-29_20h01.07.277,Simcolourproject_2stim_asymm_v5,2020.2.10,MacIntel,60,61025ae37ef11b136ea224fe,,,,,,,,,3691,79.5,-30.5,1,0,0,response3disk,,5,5.5,-11.5,1,0,0,rectangle,5.5,-11.5,1,0,0,5.5,-11.5,1,0,0,0,29,29,38,1,,,,,,,,
,,,,,,,,,,,,,FF,,,,,,,,1.984,,,,,,,,,,,,,,,,,,,,,,6100d4108e61dace24b7fd6a,61036b483336c5504ee1554f,2021-07-29_20h01.07.277,Simcolourproject_2stim_asymm_v5,2020.2.10,MacIntel,60,61025ae37ef11b136ea224fe,,,,,,,,,4251,-39.5,62.5,1,0,0,response7disk,,0,8.5,-8.5,1,0,0,rectangle,8.5,-8.5,1,0,0,8.5,-8.5,1,0,0,0,30,30,130,1,,,,,,,,
,,,,,,,,,,,,,FF,,,,,,,,1.45,,,,,,,,,,,,,,,,,,,,,,6100d4108e61dace24b7fd6a,61036b483336c5504ee1554f,2021-07-29_20h01.07.277,Simcolourproject_2stim_asymm_v5,2020.2.10,MacIntel,60,61025ae37ef11b136ea224fe,,,,,,,,,496,55.5,-42.5,1,0,0,response3disk,,5,8.5,-2.5,1,0,0,rectangle,8.5,-2.5,1,0,0,8.5,-2.5,1,0,0,0,31,31,51,1,,,,,,,,
,,,,,,,,,,,,,FF,,,,,,,,1.851,,,,,,,,,,,,,,,,,,,,,,6100d4108e61dace24b7fd6a,61036b483336c5504ee1554f,2021-07-29_20h01.07.277,Simcolourproject_2stim_asymm_v5,2020.2.10,MacIntel,60,61025ae37ef11b136ea224fe,,,,,,,,,948,60.5,36.5,1,0,0,response1disk,,6,1.5,-2.5,1,0,0,rectangle,1.5,-2.5,1,0,0,1.5,-2.5,1,0,0,0,32,32,48,1,,,,,,,,
,,,,,,,,,,,,,FF,,,,,,,,1.617,,,,,,,,,,,,,,,,,,,,,,6100d4108e61dace24b7fd6a,61036b483336c5504ee1554f,2021-07-29_20h01.07.277,Simcolourproject_2stim_asymm_v5,2020.2.10,MacIntel,60,61025ae37ef11b136ea224fe,,,,,,,,,1989,70.5,35.5,1,0,0,response1disk,,6,2.5,8.5,1,0,0,rectangle,2.5,8.5,1,0,0,2.5,8.5,1,0,0,0,33,33,86,1,,,,,,,,
,,,,,,,,,,,,,FF,,,,,,,,0.718,,,,,,,,,,,,,,,,,,,,,,6100d4108e61dace24b7fd6a,61036b483336c5504ee1554f,2021-07-29_20h01.07.277,Simcolourproject_2stim_asymm_v5,2020.2.10,MacIntel,60,61025ae37ef11b136ea224fe,,,,,,,,,1169,50.5,24.5,1,0,0,response1disk,,6,-7.5,-10.5,1,0,0,rectangle,-7.5,-10.5,1,0,0,-7.5,-10.5,1,0,0,0,34,34,119,1,,,,,,,,
,,,,,,,,,,,,,FF,,,,,,,,0.867,,,,,,,,,,,,,,,,,,,,,,6100d4108e61dace24b7fd6a,61036b483336c5504ee1554f,2021-07-29_20h01.07.277,Simcolourproject_2stim_asymm_v5,2020.2.10,MacIntel,60,61025ae37ef11b136ea224fe,,,,,,,,,1194,-64.5,-24.5,1,0,0,response5disk,,2,1.5,-3.5,1,0,0,rectangle,1.5,-3.5,1,0,0,1.5,-3.5,1,0,0,0,35,35,37,1,,,,,,,,
,,,,,,,,,,,,,FF,,,,,,,,1.75,,,,,,,,,,,,,,,,,,,,,,6100d4108e61dace24b7fd6a,61036b483336c5504ee1554f,2021-07-29_20h01.07.277,Simcolourproject_2stim_asymm_v5,2020.2.10,MacIntel,60,61025ae37ef11b136ea224fe,,,,,,,,,3517,-76.5,45.5,1,0,0,response7disk,,1,3.5,-2.5,1,0,0,rectangle,3.5,-2.5,1,0,0,3.5,-2.5,1,0,0,0,36,36,76,1,,,,,,,,
,,,,,,,,,,,,,FF,,,,,,,,1.018,,,,,,,,,,,,,,,,,,,,,,6100d4108e61dace24b7fd6a,61036b483336c5504ee1554f,2021-07-29_20h01.07.277,Simcolourproject_2stim_asymm_v5,2020.2.10,MacIntel,60,61025ae37ef11b136ea224fe,,,,,,,,,2216,-58.5,20.5,1,0,0,response7disk,,1,1.5,9.5,1,0,0,rectangle,1.5,9.5,1,0,0,1.5,9.5,1,0,0,0,37,37,58,1,,,,,,,,
,,,,,,,,,,,,,FF,,,,,,,,0.966,,,,,,,,,,,,,,,,,,,,,,6100d4108e61dace24b7fd6a,61036b483336c5504ee1554f,2021-07-29_20h01.07.277,Simcolourproject_2stim_asymm_v5,2020.2.10,MacIntel,60,61025ae37ef11b136ea224fe,,,,,,,,,4242,48.5,86.5,1,0,0,response1disk,,7,17.5,1.5,1,0,0,rectangle,17.5,1.5,1,0,0,17.5,1.5,1,0,0,0,38,38,19,1,,,,,,,,
,,,,,,,,,,,,,FF,,,,,,,,0.983,,,,,,,,,,,,,,,,,,,,,,6100d4108e61dace24b7fd6a,61036b483336c5504ee1554f,2021-07-29_20h01.07.277,Simcolourproject_2stim_asymm_v5,2020.2.10,MacIntel,60,61025ae37ef11b136ea224fe,,,,,,,,,539,73.5,27.5,1,0,0,response1disk,,6,3.5,1.5,1,0,0,rectangle,3.5,1.5,1,0,0,3.5,1.5,1,0,0,0,39,39,61,1,,,,,,,,
,,,,,,,,,,,,,FF,,,,,,,,1.25,,,,,,,,,,,,,,,,,,,,,,6100d4108e61dace24b7fd6a,61036b483336c5504ee1554f,2021-07-29_20h01.07.277,Simcolourproject_2stim_asymm_v5,2020.2.10,MacIntel,60,61025ae37ef11b136ea224fe,,,,,,,,,3882,-32.5,-81.5,1,0,0,response5disk,,3,-9.5,-5.5,1,0,0,rectangle,-9.5,-5.5,1,0,0,-9.5,-5.5,1,0,0,0,40,40,41,1,,,,,,,,
,,,,,,,,,,,,,FF,,,,,,,,0.999,,,,,,,,,,,,,,,,,,,,,,6100d4108e61dace24b7fd6a,61036b483336c5504ee1554f,2021-07-29_20h01.07.277,Simcolourproject_2stim_asymm_v5,2020.2.10,MacIntel,60,61025ae37ef11b136ea224fe,,,,,,,,,1428,37.5,-61.5,1,0,0,response3disk,,4,5.5,2.5,1,0,0,rectangle,81.5,29.5,1,0,0,8.5,-2.5,1,0,0,0,41,41,92,1,,response1disk_3,TRUE,6,6,"[272,297,280,114,211,100,110,170,255,311,105,259,296,65,168,142,272,254,16,42]",2.634,rectangle
,,,,,,,,,,,,,FF,,,,,,,,1.267,,,,,,,,,,,,,,,,,,,,,,6100d4108e61dace24b7fd6a,61036b483336c5504ee1554f,2021-07-29_20h01.07.277,Simcolourproject_2stim_asymm_v5,2020.2.10,MacIntel,60,61025ae37ef11b136ea224fe,,,,,,,,,1903,36.5,-72.5,1,0,0,response3disk,,4,1.5,-2.5,1,0,0,rectangle,1.5,-2.5,1,0,0,1.5,-2.5,1,0,0,0,42,42,60,1,,,,,,,,
,,,,,,,,,,,,,FF,,,,,,,,3.201,,,,,,,,,,,,,,,,,,,,,,6100d4108e61dace24b7fd6a,61036b483336c5504ee1554f,2021-07-29_20h01.07.277,Simcolourproject_2stim_asymm_v5,2020.2.10,MacIntel,60,61025ae37ef11b136ea224fe,,,,,,,,,871,28.5,-74.5,1,0,0,response3disk,,4,-12.5,3.5,1,0,0,rectangle,-12.5,3.5,1,0,0,-12.5,3.5,1,0,0,0,43,43,155,1,,,,,,,,
,,,,,,,,,,,,,FF,,,,,,,,1.601,,,,,,,,,,,,,,,,,,,,,,6100d4108e61dace24b7fd6a,61036b483336c5504ee1554f,2021-07-29_20h01.07.277,Simcolourproject_2stim_asymm_v5,2020.2.10,MacIntel,60,61025ae37ef11b136ea224fe,,,,,,,,,1664,23.5,-62.5,1,0,0,response3disk,,4,2.5,6.5,1,0,0,rectangle,2.5,6.5,1,0,0,2.5,6.5,1,0,0,0,44,44,23,1,,,,,,,,
,,,,,,,,,,,,,FF,,,,,,,,1.05,,,,,,,,,,,,,,,,,,,,,,6100d4108e61dace24b7fd6a,61036b483336c5504ee1554f,2021-07-29_20h01.07.277,Simcolourproject_2stim_asymm_v5,2020.2.10,MacIntel,60,61025ae37ef11b136ea224fe,,,,,,,,,1032,64.5,19.5,1,0,0,response1disk,,6,14.5,6.5,1,0,0,rectangle,14.5,6.5,1,0,0,14.5,6.5,1,0,0,0,45,45,88,1,,,,,,,,
,,,,,,,,,,,,,FF,,,,,,,,3.816,,,,,,,,,,,,,,,,,,,,,,6100d4108e61dace24b7fd6a,61036b483336c5504ee1554f,2021-07-29_20h01.07.277,Simcolourproject_2stim_asymm_v5,2020.2.10,MacIntel,60,61025ae37ef11b136ea224fe,,,,,,,,,3502,-60.5,-33.5,1,0,0,response5disk,,2,2.5,7.5,1,0,0,rectangle,2.5,7.5,1,0,0,2.5,7.5,1,0,0,0,46,46,6,1,,,,,,,,
,,,,,,,,,,,,,FF,,,,,,,,9.233,,,,,,,,,,,,,,,,,,,,,,6100d4108e61dace24b7fd6a,61036b483336c5504ee1554f,2021-07-29_20h01.07.277,Simcolourproject_2stim_asymm_v5,2020.2.10,MacIntel,60,61025ae37ef11b136ea224fe,,,,,,,,,3199,65.5,-34.5,1,0,0,response3disk,,5,11.5,2.5,1,0,0,rectangle,11.5,2.5,1,0,0,11.5,2.5,1,0,0,0,47,47,125,1,,,,,,,,
,,,,,,,,,,,,,FF,,,,,,,,1.318,,,,,,,,,,,,,,,,,,,,,,6100d4108e61dace24b7fd6a,61036b483336c5504ee1554f,2021-07-29_20h01.07.277,Simcolourproject_2stim_asymm_v5,2020.2.10,MacIntel,60,61025ae37ef11b136ea224fe,,,,,,,,,4358,-24.5,58.5,1,0,0,response7disk,,0,4.5,8.5,1,0,0,rectangle,4.5,8.5,1,0,0,4.5,8.5,1,0,0,0,48,48,3,1,,,,,,,,
,,,,,,,,,,,,,FF,,,,,,,,0.801,,,,,,,,,,,,,,,,,,,,,,6100d4108e61dace24b7fd6a,61036b483336c5504ee1554f,2021-07-29_20h01.07.277,Simcolourproject_2stim_asymm_v5,2020.2.10,MacIntel,60,61025ae37ef11b136ea224fe,,,,,,,,,3913,-48.5,26.5,1,0,0,response7disk,,1,-4.5,-1.5,1,0,0,rectangle,-4.5,-1.5,1,0,0,-4.5,-1.5,1,0,0,0,49,49,79,1,,,,,,,,
,,,,,,,,,,,,,FF,,,,,,,,1.016,,,,,,,,,,,,,,,,,,,,,,6100d4108e61dace24b7fd6a,61036b483336c5504ee1554f,2021-07-29_20h01.07.277,Simcolourproject_2stim_asymm_v5,2020.2.10,MacIntel,60,61025ae37ef11b136ea224fe,,,,,,,,,1434,83.5,-38.5,1,0,0,response3disk,,5,18.5,8.5,1,0,0,rectangle,18.5,8.5,1,0,0,18.5,8.5,1,0,0,0,50,50,154,1,,,,,,,,
,,,,,,,,,,,,,FF,,,,,,,,2.651,,,,,,,,,,,,,,,,,,,,,,6100d4108e61dace24b7fd6a,61036b483336c5504ee1554f,2021-07-29_20h01.07.277,Simcolourproject_2stim_asymm_v5,2020.2.10,MacIntel,60,61025ae37ef11b136ea224fe,,,,,,,,,625,46.5,83.5,1,0,0,response1disk,,7,15.5,-1.5,1,0,0,rectangle,15.5,-1.5,1,0,0,15.5,-1.5,1,0,0,0,51,51,18,1,,,,,,,,
,,,,,,,,,,,,,FF,,,,,,,,1.666,,,,,,,,,,,,,,,,,,,,,,6100d4108e61dace24b7fd6a,61036b483336c5504ee1554f,2021-07-29_20h01.07.277,Simcolourproject_2stim_asymm_v5,2020.2.10,MacIntel,60,61025ae37ef11b136ea224fe,,,,,,,,,2059,82.5,-43.5,1,0,0,response3disk,,5,-1.5,0.5,1,0,0,rectangle,-1.5,0.5,1,0,0,-1.5,0.5,1,0,0,0,52,52,105,1,,,,,,,,
,,,,,,,,,,,,,FF,,,,,,,,1.483,,,,,,,,,,,,,,,,,,,,,,6100d4108e61dace24b7fd6a,61036b483336c5504ee1554f,2021-07-29_20h01.07.277,Simcolourproject_2stim_asymm_v5,2020.2.10,MacIntel,60,61025ae37ef11b136ea224fe,,,,,,,,,3518,-47.5,-20.5,1,0,0,response5disk,,2,3.5,3.5,1,0,0,rectangle,3.5,3.5,1,0,0,3.5,3.5,1,0,0,0,53,53,21,1,,,,,,,,
,,,,,,,,,,,,,FF,,,,,,,,1.85,,,,,,,,,,,,,,,,,,,,,,6100d4108e61dace24b7fd6a,61036b483336c5504ee1554f,2021-07-29_20h01.07.277,Simcolourproject_2stim_asymm_v5,2020.2.10,MacIntel,60,61025ae37ef11b136ea224fe,,,,,,,,,3816,-23.5,-62.5,1,0,0,response5disk,,3,2.5,-7.5,1,0,0,rectangle,2.5,-7.5,1,0,0,2.5,-7.5,1,0,0,0,54,54,93,1,,,,,,,,
,,,,,,,,,,,,,FF,,,,,,,,1.367,,,,,,,,,,,,,,,,,,,,,,6100d4108e61dace24b7fd6a,61036b483336c5504ee1554f,2021-07-29_20h01.07.277,Simcolourproject_2stim_asymm_v5,2020.2.10,MacIntel,60,61025ae37ef11b136ea224fe,,,,,,,,,241,80.5,16.5,1,0,0,response1disk,,6,7.5,5.5,1,0,0,rectangle,7.5,5.5,1,0,0,7.5,5.5,1,0,0,0,55,55,101,1,,,,,,,,
,,,,,,,,,,,,,FF,,,,,,,,0.883,,,,,,,,,,,,,,,,,,,,,,6100d4108e61dace24b7fd6a,61036b483336c5504ee1554f,2021-07-29_20h01.07.277,Simcolourproject_2stim_asymm_v5,2020.2.10,MacIntel,60,61025ae37ef11b136ea224fe,,,,,,,,,2705,76.5,38.5,1,0,0,response1disk,,6,14.5,1.5,1,0,0,rectangle,14.5,1.5,1,0,0,14.5,1.5,1,0,0,0,56,56,64,1,,,,,,,,
,,,,,,,,,,,,,FF,,,,,,,,1.183,,,,,,,,,,,,,,,,,,,,,,6100d4108e61dace24b7fd6a,61036b483336c5504ee1554f,2021-07-29_20h01.07.277,Simcolourproject_2stim_asymm_v5,2020.2.10,MacIntel,60,61025ae37ef11b136ea224fe,,,,,,,,,26,36.5,48.5,1,0,0,response1disk,,7,17.5,1.5,1,0,0,rectangle,17.5,1.5,1,0,0,17.5,1.5,1,0,0,0,57,57,13,1,,,,,,,,
,,,,,,,,,,,,,FF,,,,,,,,1.166,,,,,,,,,,,,,,,,,,,,,,6100d4108e61dace24b7fd6a,61036b483336c5504ee1554f,2021-07-29_20h01.07.277,Simcolourproject_2stim_asymm_v5,2020.2.10,MacIntel,60,61025ae37ef11b136ea224fe,,,,,,,,,1134,-60.5,-27.5,1,0,0,response5disk,,2,-14.5,-0.5,1,0,0,rectangle,-14.5,-0.5,1,0,0,-14.5,-0.5,1,0,0,0,58,58,113,1,,,,,,,,
,,,,,,,,,,,,,FF,,,,,,,,1.1,,,,,,,,,,,,,,,,,,,,,,6100d4108e61dace24b7fd6a,61036b483336c5504ee1554f,2021-07-29_20h01.07.277,Simcolourproject_2stim_asymm_v5,2020.2.10,MacIntel,60,61025ae37ef11b136ea224fe,,,,,,,,,158,-28.5,-62.5,1,0,0,response5disk,,3,13.5,-1.5,1,0,0,rectangle,13.5,-1.5,1,0,0,13.5,-1.5,1,0,0,0,59,59,146,1,,,,,,,,
,,,,,,,,,,,,,FF,,,,,,,,0.9,,,,,,,,,,,,,,,,,,,,,,6100d4108e61dace24b7fd6a,61036b483336c5504ee1554f,2021-07-29_20h01.07.277,Simcolourproject_2stim_asymm_v5,2020.2.10,MacIntel,60,61025ae37ef11b136ea224fe,,,,,,,,,3271,30.5,-58.5,1,0,0,response3disk,,4,11.5,-0.5,1,0,0,rectangle,11.5,-0.5,1,0,0,11.5,-0.5,1,0,0,0,60,60,107,1,,,,,,,,
,,,,,,,,,,,,,FF,,,,,,,,2.4,,,,,,,,,,,,,,,,,,,,,,6100d4108e61dace24b7fd6a,61036b483336c5504ee1554f,2021-07-29_20h01.07.277,Simcolourproject_2stim_asymm_v5,2020.2.10,MacIntel,60,61025ae37ef11b136ea224fe,,,,,,,,,679,-51.5,-25.5,1,0,0,response5disk,,2,-10.5,10.5,1,0,0,rectangle,-10.5,10.5,1,0,0,-10.5,10.5,1,0,0,0,61,61,144,1,,,,,,,,
,,,,,,,,,,,,,FF,,,,,,,,2.134,,,,,,,,,,,,,,,,,,,,,,6100d4108e61dace24b7fd6a,61036b483336c5504ee1554f,2021-07-29_20h01.07.277,Simcolourproject_2stim_asymm_v5,2020.2.10,MacIntel,60,61025ae37ef11b136ea224fe,,,,,,,,,3557,-64.5,32.5,1,0,0,response7disk,,1,-6.5,12.5,1,0,0,rectangle,-6.5,12.5,1,0,0,-6.5,12.5,1,0,0,0,62,62,30,1,,,,,,,,
,,,,,,,,,,,,,FF,,,,,,,,1.134,,,,,,,,,,,,,,,,,,,,,,6100d4108e61dace24b7fd6a,61036b483336c5504ee1554f,2021-07-29_20h01.07.277,Simcolourproject_2stim_asymm_v5,2020.2.10,MacIntel,60,61025ae37ef11b136ea224fe,,,,,,,,,668,71.5,-33.5,1,0,0,response3disk,,5,15.5,2.5,1,0,0,rectangle,15.5,2.5,1,0,0,15.5,2.5,1,0,0,0,63,63,114,1,,,,,,,,
,,,,,,,,,,,,,FF,,,,,,,,1.217,,,,,,,,,,,,,,,,,,,,,,6100d4108e61dace24b7fd6a,61036b483336c5504ee1554f,2021-07-29_20h01.07.277,Simcolourproject_2stim_asymm_v5,2020.2.10,MacIntel,60,61025ae37ef11b136ea224fe,,,,,,,,,2658,-59.5,-24.5,1,0,0,response5disk,,2,3.5,11.5,1,0,0,rectangle,-70.5,-30.5,1,0,0,-0.5,-0.5,1,0,0,0,64,64,44,1,,response5disk_3,TRUE,2,2,"[272,297,280,114,211,100,110,170,255,311,105,259,296,65,168,142,272,254,16,42]",2.75,rectangle
,,,,,,,,,,,,,FF,,,,,,,,3.832,,,,,,,,,,,,,,,,,,,,,,6100d4108e61dace24b7fd6a,61036b483336c5504ee1554f,2021-07-29_20h01.07.277,Simcolourproject_2stim_asymm_v5,2020.2.10,MacIntel,60,61025ae37ef11b136ea224fe,,,,,,,,,1366,41.5,-80.5,1,0,0,response3disk,,4,1.5,-0.5,1,0,0,rectangle,1.5,-0.5,1,0,0,1.5,-0.5,1,0,0,0,65,65,28,1,,,,,,,,
,,,,,,,,,,,,,FF,,,,,,,,1.083,,,,,,,,,,,,,,,,,,,,,,6100d4108e61dace24b7fd6a,61036b483336c5504ee1554f,2021-07-29_20h01.07.277,Simcolourproject_2stim_asymm_v5,2020.2.10,MacIntel,60,61025ae37ef11b136ea224fe,,,,,,,,,250,-78.5,-35.5,1,0,0,response5disk,,2,-4.5,-3.5,1,0,0,rectangle,-4.5,-3.5,1,0,0,-4.5,-3.5,1,0,0,0,66,66,116,1,,,,,,,,
,,,,,,,,,,,,,FF,,,,,,,,1.284,,,,,,,,,,,,,,,,,,,,,,6100d4108e61dace24b7fd6a,61036b483336c5504ee1554f,2021-07-29_20h01.07.277,Simcolourproject_2stim_asymm_v5,2020.2.10,MacIntel,60,61025ae37ef11b136ea224fe,,,,,,,,,1674,-50.5,-21.5,1,0,0,response5disk,,2,-5.5,5.5,1,0,0,rectangle,-5.5,5.5,1,0,0,-5.5,5.5,1,0,0,0,67,67,40,1,,,,,,,,
,,,,,,,,,,,,,FF,,,,,,,,0.832,,,,,,,,,,,,,,,,,,,,,,6100d4108e61dace24b7fd6a,61036b483336c5504ee1554f,2021-07-29_20h01.07.277,Simcolourproject_2stim_asymm_v5,2020.2.10,MacIntel,60,61025ae37ef11b136ea224fe,,,,,,,,,3814,-56.5,-32.5,1,0,0,response5disk,,2,-3.5,-1.5,1,0,0,rectangle,-3.5,-1.5,1,0,0,-3.5,-1.5,1,0,0,0,68,68,71,1,,,,,,,,
,,,,,,,,,,,,,FF,,,,,,,,0.816,,,,,,,,,,,,,,,,,,,,,,6100d4108e61dace24b7fd6a,61036b483336c5504ee1554f,2021-07-29_20h01.07.277,Simcolourproject_2stim_asymm_v5,2020.2.10,MacIntel,60,61025ae37ef11b136ea224fe,,,,,,,,,2140,40.5,68.5,1,0,0,response1disk,,7,10.5,6.5,1,0,0,rectangle,10.5,6.5,1,0,0,10.5,6.5,1,0,0,0,69,69,20,1,,,,,,,,
,,,,,,,,,,,,,FF,,,,,,,,5.984,,,,,,,,,,,,,,,,,,,,,,6100d4108e61dace24b7fd6a,61036b483336c5504ee1554f,2021-07-29_20h01.07.277,Simcolourproject_2stim_asymm_v5,2020.2.10,MacIntel,60,61025ae37ef11b136ea224fe,,,,,,,,,2497,75.5,36.5,1,0,0,response1disk,,6,12.5,-1.5,1,0,0,rectangle,12.5,-1.5,1,0,0,12.5,-1.5,1,0,0,0,70,70,139,1,,,,,,,,
,,,,,,,,,,,,,FF,,,,,,,,1,,,,,,,,,,,,,,,,,,,,,,6100d4108e61dace24b7fd6a,61036b483336c5504ee1554f,2021-07-29_20h01.07.277,Simcolourproject_2stim_asymm_v5,2020.2.10,MacIntel,60,61025ae37ef11b136ea224fe,,,,,,,,,149,69.5,32.5,1,0,0,response1disk,,6,24.5,5.5,1,0,0,rectangle,24.5,5.5,1,0,0,24.5,5.5,1,0,0,0,71,71,136,1,,,,,,,,
,,,,,,,,,,,,,FF,,,,,,,,0.683,,,,,,,,,,,,,,,,,,,,,,6100d4108e61dace24b7fd6a,61036b483336c5504ee1554f,2021-07-29_20h01.07.277,Simcolourproject_2stim_asymm_v5,2020.2.10,MacIntel,60,61025ae37ef11b136ea224fe,,,,,,,,,760,46.5,35.5,1,0,0,response1disk,,6,-5.5,-5.5,1,0,0,rectangle,-5.5,-5.5,1,0,0,-5.5,-5.5,1,0,0,0,72,72,54,1,,,,,,,,
,,,,,,,,,,,,,FF,,,,,,,,0.801,,,,,,,,,,,,,,,,,,,,,,6100d4108e61dace24b7fd6a,61036b483336c5504ee1554f,2021-07-29_20h01.07.277,Simcolourproject_2stim_asymm_v5,2020.2.10,MacIntel,60,61025ae37ef11b136ea224fe,,,,,,,,,2653,-72.5,-12.5,1,0,0,response5disk,,2,4.5,10.5,1,0,0,rectangle,4.5,10.5,1,0,0,4.5,10.5,1,0,0,0,73,73,67,1,,,,,,,,
,,,,,,,,,,,,,FF,,,,,,,,0.816,,,,,,,,,,,,,,,,,,,,,,6100d4108e61dace24b7fd6a,61036b483336c5504ee1554f,2021-07-29_20h01.07.277,Simcolourproject_2stim_asymm_v5,2020.2.10,MacIntel,60,61025ae37ef11b136ea224fe,,,,,,,,,1752,-47.5,-21.5,1,0,0,response5disk,,2,9.5,1.5,1,0,0,rectangle,9.5,1.5,1,0,0,9.5,1.5,1,0,0,0,74,74,32,1,,,,,,,,
,,,,,,,,,,,,,FF,,,,,,,,1.25,,,,,,,,,,,,,,,,,,,,,,6100d4108e61dace24b7fd6a,61036b483336c5504ee1554f,2021-07-29_20h01.07.277,Simcolourproject_2stim_asymm_v5,2020.2.10,MacIntel,60,61025ae37ef11b136ea224fe,,,,,,,,,2355,-24.5,71.5,1,0,0,response7disk,,0,10.5,8.5,1,0,0,rectangle,10.5,8.5,1,0,0,10.5,8.5,1,0,0,0,75,75,131,1,,,,,,,,
,,,,,,,,,,,,,FF,,,,,,,,1.617,,,,,,,,,,,,,,,,,,,,,,6100d4108e61dace24b7fd6a,61036b483336c5504ee1554f,2021-07-29_20h01.07.277,Simcolourproject_2stim_asymm_v5,2020.2.10,MacIntel,60,61025ae37ef11b136ea224fe,,,,,,,,,1391,-35.5,-68.5,1,0,0,response5disk,,3,1.5,-0.5,1,0,0,rectangle,1.5,-0.5,1,0,0,1.5,-0.5,1,0,0,0,76,76,65,1,,,,,,,,
,,,,,,,,,,,,,FF,,,,,,,,0.983,,,,,,,,,,,,,,,,,,,,,,6100d4108e61dace24b7fd6a,61036b483336c5504ee1554f,2021-07-29_20h01.07.277,Simcolourproject_2stim_asymm_v5,2020.2.10,MacIntel,60,61025ae37ef11b136ea224fe,,,,,,,,,803,-47.5,-17.5,1,0,0,response5disk,,2,-5.5,-0.5,1,0,0,rectangle,-5.5,-0.5,1,0,0,-5.5,-0.5,1,0,0,0,77,77,90,1,,,,,,,,
,,,,,,,,,,,,,FF,,,,,,,,2.466,,,,,,,,,,,,,,,,,,,,,,6100d4108e61dace24b7fd6a,61036b483336c5504ee1554f,2021-07-29_20h01.07.277,Simcolourproject_2stim_asymm_v5,2020.2.10,MacIntel,60,61025ae37ef11b136ea224fe,,,,,,,,,1959,64.5,-34.5,1,0,0,response3disk,,5,16.5,-4.5,1,0,0,rectangle,16.5,-4.5,1,0,0,16.5,-4.5,1,0,0,0,78,78,110,1,,,,,,,,
,,,,,,,,,,,,,FF,,,,,,,,1.101,,,,,,,,,,,,,,,,,,,,,,6100d4108e61dace24b7fd6a,61036b483336c5504ee1554f,2021-07-29_20h01.07.277,Simcolourproject_2stim_asymm_v5,2020.2.10,MacIntel,60,61025ae37ef11b136ea224fe,,,,,,,,,2622,-26.5,-52.5,1,0,0,response5disk,,3,-10.5,-3.5,1,0,0,rectangle,-10.5,-3.5,1,0,0,-10.5,-3.5,1,0,0,0,79,79,121,1,,,,,,,,
,,,,,,,,,,,,,FF,,,,,,,,1.317,,,,,,,,,,,,,,,,,,,,,,6100d4108e61dace24b7fd6a,61036b483336c5504ee1554f,2021-07-29_20h01.07.277,Simcolourproject_2stim_asymm_v5,2020.2.10,MacIntel,60,61025ae37ef11b136ea224fe,,,,,,,,,2683,74.5,-39.5,1,0,0,response3disk,,5,1.5,1.5,1,0,0,rectangle,1.5,1.5,1,0,0,1.5,1.5,1,0,0,0,80,80,156,1,,,,,,,,
,,,,,,,,,,,,,FF,,,,,,,,0.901,,,,,,,,,,,,,,,,,,,,,,6100d4108e61dace24b7fd6a,61036b483336c5504ee1554f,2021-07-29_20h01.07.277,Simcolourproject_2stim_asymm_v5,2020.2.10,MacIntel,60,61025ae37ef11b136ea224fe,,,,,,,,,3759,-59.5,-30.5,1,0,0,response5disk,,2,10.5,7.5,1,0,0,rectangle,10.5,7.5,1,0,0,10.5,7.5,1,0,0,0,81,81,122,1,,,,,,,,
,,,,,,,,,,,,,FF,,,,,,,,3.249,,,,,,,,,,,,,,,,,,,,,,6100d4108e61dace24b7fd6a,61036b483336c5504ee1554f,2021-07-29_20h01.07.277,Simcolourproject_2stim_asymm_v5,2020.2.10,MacIntel,60,61025ae37ef11b136ea224fe,,,,,,,,,3256,-34.5,-74.5,1,0,0,response5disk,,3,6.5,1.5,1,0,0,rectangle,6.5,1.5,1,0,0,6.5,1.5,1,0,0,0,82,82,27,1,,,,,,,,
,,,,,,,,,,,,,FF,,,,,,,,2.751,,,,,,,,,,,,,,,,,,,,,,6100d4108e61dace24b7fd6a,61036b483336c5504ee1554f,2021-07-29_20h01.07.277,Simcolourproject_2stim_asymm_v5,2020.2.10,MacIntel,60,61025ae37ef11b136ea224fe,,,,,,,,,2363,-63.5,-21.5,1,0,0,response5disk,,2,-12.5,-12.5,1,0,0,rectangle,-12.5,-12.5,1,0,0,-12.5,-12.5,1,0,0,0,83,83,94,1,,,,,,,,
,,,,,,,,,,,,,FF,,,,,,,,2.767,,,,,,,,,,,,,,,,,,,,,,6100d4108e61dace24b7fd6a,61036b483336c5504ee1554f,2021-07-29_20h01.07.277,Simcolourproject_2stim_asymm_v5,2020.2.10,MacIntel,60,61025ae37ef11b136ea224fe,,,,,,,,,1569,33.5,82.5,1,0,0,response1disk,,7,4.5,-3.5,1,0,0,rectangle,4.5,-3.5,1,0,0,4.5,-3.5,1,0,0,0,84,84,126,1,,,,,,,,
,,,,,,,,,,,,,FF,,,,,,,,2.1,,,,,,,,,,,,,,,,,,,,,,6100d4108e61dace24b7fd6a,61036b483336c5504ee1554f,2021-07-29_20h01.07.277,Simcolourproject_2stim_asymm_v5,2020.2.10,MacIntel,60,61025ae37ef11b136ea224fe,,,,,,,,,3632,64.5,-33.5,1,0,0,response3disk,,5,4.5,2.5,1,0,0,rectangle,4.5,2.5,1,0,0,4.5,2.5,1,0,0,0,85,85,73,1,,,,,,,,
,,,,,,,,,,,,,FF,,,,,,,,1.084,,,,,,,,,,,,,,,,,,,,,,6100d4108e61dace24b7fd6a,61036b483336c5504ee1554f,2021-07-29_20h01.07.277,Simcolourproject_2stim_asymm_v5,2020.2.10,MacIntel,60,61025ae37ef11b136ea224fe,,,,,,,,,292,-33.5,-59.5,1,0,0,response5disk,,3,6.5,4.5,1,0,0,rectangle,6.5,4.5,1,0,0,6.5,4.5,1,0,0,0,86,86,22,1,,,,,,,,
,,,,,,,,,,,,,FF,,,,,,,,1.883,,,,,,,,,,,,,,,,,,,,,,6100d4108e61dace24b7fd6a,61036b483336c5504ee1554f,2021-07-29_20h01.07.277,Simcolourproject_2stim_asymm_v5,2020.2.10,MacIntel,60,61025ae37ef11b136ea224fe,,,,,,,,,4322,36.5,-54.5,1,0,0,response3disk,,4,10.5,-1.5,1,0,0,rectangle,10.5,-1.5,1,0,0,10.5,-1.5,1,0,0,0,87,87,8,1,,,,,,,,
,,,,,,,,,,,,,FF,,,,,,,,1.983,,,,,,,,,,,,,,,,,,,,,,6100d4108e61dace24b7fd6a,61036b483336c5504ee1554f,2021-07-29_20h01.07.277,Simcolourproject_2stim_asymm_v5,2020.2.10,MacIntel,60,61025ae37ef11b136ea224fe,,,,,,,,,588,-20.5,-49.5,1,0,0,response5disk,,3,9.5,2.5,1,0,0,rectangle,9.5,2.5,1,0,0,9.5,2.5,1,0,0,0,88,88,4,1,,,,,,,,
,,,,,,,,,,,,,FF,,,,,,,,3.484,,,,,,,,,,,,,,,,,,,,,,6100d4108e61dace24b7fd6a,61036b483336c5504ee1554f,2021-07-29_20h01.07.277,Simcolourproject_2stim_asymm_v5,2020.2.10,MacIntel,60,61025ae37ef11b136ea224fe,,,,,,,,,2438,-29.5,-54.5,1,0,0,response5disk,,3,-2.5,-6.5,1,0,0,rectangle,-2.5,-6.5,1,0,0,-2.5,-6.5,1,0,0,0,89,89,151,1,,,,,,,,
,,,,,,,,,,,,,FF,,,,,,,,2.166,,,,,,,,,,,,,,,,,,,,,,6100d4108e61dace24b7fd6a,61036b483336c5504ee1554f,2021-07-29_20h01.07.277,Simcolourproject_2stim_asymm_v5,2020.2.10,MacIntel,60,61025ae37ef11b136ea224fe,,,,,,,,,2185,84.5,-43.5,1,0,0,response3disk,,5,3.5,7.5,1,0,0,rectangle,3.5,7.5,1,0,0,3.5,7.5,1,0,0,0,90,90,137,1,,,,,,,,
,,,,,,,,,,,,,FF,,,,,,,,2.518,,,,,,,,,,,,,,,,,,,,,,6100d4108e61dace24b7fd6a,61036b483336c5504ee1554f,2021-07-29_20h01.07.277,Simcolourproject_2stim_asymm_v5,2020.2.10,MacIntel,60,61025ae37ef11b136ea224fe,,,,,,,,,2079,33.5,-61.5,1,0,0,response3disk,,4,11.5,7.5,1,0,0,rectangle,11.5,7.5,1,0,0,11.5,7.5,1,0,0,0,91,91,149,1,,,,,,,,
,,,,,,,,,,,,,FF,,,,,,,,1.5,,,,,,,,,,,,,,,,,,,,,,6100d4108e61dace24b7fd6a,61036b483336c5504ee1554f,2021-07-29_20h01.07.277,Simcolourproject_2stim_asymm_v5,2020.2.10,MacIntel,60,61025ae37ef11b136ea224fe,,,,,,,,,828,-68.5,-52.5,1,0,0,response5disk,,2,9.5,0.5,1,0,0,rectangle,9.5,0.5,1,0,0,9.5,0.5,1,0,0,0,92,92,68,1,,,,,,,,
,,,,,,,,,,,,,FF,,,,,,,,1.683,,,,,,,,,,,,,,,,,,,,,,6100d4108e61dace24b7fd6a,61036b483336c5504ee1554f,2021-07-29_20h01.07.277,Simcolourproject_2stim_asymm_v5,2020.2.10,MacIntel,60,61025ae37ef11b136ea224fe,,,,,,,,,165,-59.5,42.5,1,0,0,response7disk,,1,5.5,-1.5,1,0,0,rectangle,5.5,-1.5,1,0,0,5.5,-1.5,1,0,0,0,93,93,96,1,,,,,,,,
,,,,,,,,,,,,,FF,,,,,,,,1.768,,,,,,,,,,,,,,,,,,,,,,6100d4108e61dace24b7fd6a,61036b483336c5504ee1554f,2021-07-29_20h01.07.277,Simcolourproject_2stim_asymm_v5,2020.2.10,MacIntel,60,61025ae37ef11b136ea224fe,,,,,,,,,104,67.5,-37.5,1,0,0,response3disk,,5,12.5,2.5,1,0,0,rectangle,12.5,2.5,1,0,0,12.5,2.5,1,0,0,0,94,94,83,1,,,,,,,,
,,,,,,,,,,,,,FF,,,,,,,,2,,,,,,,,,,,,,,,,,,,,,,6100d4108e61dace24b7fd6a,61036b483336c5504ee1554f,2021-07-29_20h01.07.277,Simcolourproject_2stim_asymm_v5,2020.2.10,MacIntel,60,61025ae37ef11b136ea224fe,,,,,,,,,327,71.5,31.5,1,0,0,response1disk,,6,17.5,5.5,1,0,0,rectangle,17.5,5.5,1,0,0,17.5,5.5,1,0,0,0,95,95,25,1,,,,,,,,
,,,,,,,,,,,,,FF,,,,,,,,1.334,,,,,,,,,,,,,,,,,,,,,,6100d4108e61dace24b7fd6a,61036b483336c5504ee1554f,2021-07-29_20h01.07.277,Simcolourproject_2stim_asymm_v5,2020.2.10,MacIntel,60,61025ae37ef11b136ea224fe,,,,,,,,,3962,57.5,23.5,1,0,0,response1disk,,6,-4.5,-9.5,1,0,0,rectangle,-4.5,-9.5,1,0,0,-4.5,-9.5,1,0,0,0,96,96,56,1,,,,,,,,
,,,,,,,,,,,,,FF,,,,,,,,0.733,,,,,,,,,,,,,,,,,,,,,,6100d4108e61dace24b7fd6a,61036b483336c5504ee1554f,2021-07-29_20h01.07.277,Simcolourproject_2stim_asymm_v5,2020.2.10,MacIntel,60,61025ae37ef11b136ea224fe,,,,,,,,,1927,59.5,50.5,1,0,0,response1disk,,6,6.5,5.5,1,0,0,rectangle,6.5,5.5,1,0,0,6.5,5.5,1,0,0,0,97,97,12,1,,,,,,,,
,,,,,,,,,,,,,FF,,,,,,,,1.051,,,,,,,,,,,,,,,,,,,,,,6100d4108e61dace24b7fd6a,61036b483336c5504ee1554f,2021-07-29_20h01.07.277,Simcolourproject_2stim_asymm_v5,2020.2.10,MacIntel,60,61025ae37ef11b136ea224fe,,,,,,,,,1917,-36.5,-62.5,1,0,0,response5disk,,3,4.5,-9.5,1,0,0,rectangle,4.5,-9.5,1,0,0,4.5,-9.5,1,0,0,0,98,98,157,1,,,,,,,,
,,,,,,,,,,,,,FF,,,,,,,,1.05,,,,,,,,,,,,,,,,,,,,,,6100d4108e61dace24b7fd6a,61036b483336c5504ee1554f,2021-07-29_20h01.07.277,Simcolourproject_2stim_asymm_v5,2020.2.10,MacIntel,60,61025ae37ef11b136ea224fe,,,,,,,,,687,95.5,47.5,1,0,0,response1disk,,6,6.5,-4.5,1,0,0,rectangle,-63.5,51.5,1,0,0,2.5,6.5,1,0,0,0,99,99,52,1,,response7disk_3,TRUE,1,1,"[272,297,280,114,211,100,110,170,255,311,105,259,296,65,168,142,272,254,16,42]",1.816,rectangle
,,,,,,,,,,,,,FF,,,,,,,,3.734,,,,,,,,,,,,,,,,,,,,,,6100d4108e61dace24b7fd6a,61036b483336c5504ee1554f,2021-07-29_20h01.07.277,Simcolourproject_2stim_asymm_v5,2020.2.10,MacIntel,60,61025ae37ef11b136ea224fe,,,,,,,,,3908,-52.5,-19.5,1,0,0,response5disk,,2,-2.5,-2.5,1,0,0,rectangle,-2.5,-2.5,1,0,0,-2.5,-2.5,1,0,0,0,100,100,103,1,,,,,,,,
,,,,,,,,,,,,,FF,,,,,,,,3.118,,,,,,,,,,,,,,,,,,,,,,6100d4108e61dace24b7fd6a,61036b483336c5504ee1554f,2021-07-29_20h01.07.277,Simcolourproject_2stim_asymm_v5,2020.2.10,MacIntel,60,61025ae37ef11b136ea224fe,,,,,,,,,4339,-24.5,-72.5,1,0,0,response5disk,,3,-1.5,-7.5,1,0,0,rectangle,-1.5,-7.5,1,0,0,-1.5,-7.5,1,0,0,0,101,101,1,1,,,,,,,,
,,,,,,,,,,,,,FF,,,,,,,,21.833,,,,,,,,,,,,,,,,,,,,,,6100d4108e61dace24b7fd6a,61036b483336c5504ee1554f,2021-07-29_20h01.07.277,Simcolourproject_2stim_asymm_v5,2020.2.10,MacIntel,60,61025ae37ef11b136ea224fe,,,,,,,,,1826,33.5,-78.5,1,0,0,response3disk,,4,14.5,4.5,1,0,0,rectangle,14.5,4.5,1,0,0,14.5,4.5,1,0,0,0,102,102,108,1,,,,,,,,
,,,,,,,,,,,,,FF,,,,,,,,1.284,,,,,,,,,,,,,,,,,,,,,,6100d4108e61dace24b7fd6a,61036b483336c5504ee1554f,2021-07-29_20h01.07.277,Simcolourproject_2stim_asymm_v5,2020.2.10,MacIntel,60,61025ae37ef11b136ea224fe,,,,,,,,,2148,-31.5,-68.5,1,0,0,response5disk,,3,13.5,7.5,1,0,0,rectangle,13.5,7.5,1,0,0,13.5,7.5,1,0,0,0,103,103,7,1,,,,,,,,
,,,,,,,,,,,,,FF,,,,,,,,1.034,,,,,,,,,,,,,,,,,,,,,,6100d4108e61dace24b7fd6a,61036b483336c5504ee1554f,2021-07-29_20h01.07.277,Simcolourproject_2stim_asymm_v5,2020.2.10,MacIntel,60,61025ae37ef11b136ea224fe,,,,,,,,,3636,-52.5,-40.5,1,0,0,response5disk,,2,6.5,-1.5,1,0,0,rectangle,-72.5,24.5,1,0,0,1.5,-13.5,1,0,0,0,104,104,104,1,,response7disk_3,TRUE,1,1,"[272,297,280,114,211,100,110,170,255,311,105,259,296,65,168,142,272,254,16,42]",1.899,rectangle
,,,,,,,,,,,,,FF,,,,,,,,1.317,,,,,,,,,,,,,,,,,,,,,,6100d4108e61dace24b7fd6a,61036b483336c5504ee1554f,2021-07-29_20h01.07.277,Simcolourproject_2stim_asymm_v5,2020.2.10,MacIntel,60,61025ae37ef11b136ea224fe,,,,,,,,,2541,-23.5,70.5,1,0,0,response7disk,,0,8.5,-9.5,1,0,0,rectangle,8.5,-9.5,1,0,0,8.5,-9.5,1,0,0,0,105,105,78,1,,,,,,,,
,,,,,,,,,,,,,FF,,,,,,,,2.034,,,,,,,,,,,,,,,,,,,,,,6100d4108e61dace24b7fd6a,61036b483336c5504ee1554f,2021-07-29_20h01.07.277,Simcolourproject_2stim_asymm_v5,2020.2.10,MacIntel,60,61025ae37ef11b136ea224fe,,,,,,,,,4,-80.5,25.5,1,0,0,response7disk,,1,-13.5,0.5,1,0,0,rectangle,-13.5,0.5,1,0,0,-13.5,0.5,1,0,0,0,106,106,95,1,,,,,,,,
,,,,,,,,,,,,,FF,,,,,,,,1.816,,,,,,,,,,,,,,,,,,,,,,6100d4108e61dace24b7fd6a,61036b483336c5504ee1554f,2021-07-29_20h01.07.277,Simcolourproject_2stim_asymm_v5,2020.2.10,MacIntel,60,61025ae37ef11b136ea224fe,,,,,,,,,2657,-29.5,-62.5,1,0,0,response5disk,,3,-0.5,-0.5,1,0,0,rectangle,-0.5,-0.5,1,0,0,-0.5,-0.5,1,0,0,0,107,107,129,1,,,,,,,,
,,,,,,,,,,,,,FF,,,,,,,,1.033,,,,,,,,,,,,,,,,,,,,,,6100d4108e61dace24b7fd6a,61036b483336c5504ee1554f,2021-07-29_20h01.07.277,Simcolourproject_2stim_asymm_v5,2020.2.10,MacIntel,60,61025ae37ef11b136ea224fe,,,,,,,,,532,-62.5,25.5,1,0,0,response7disk,,1,-7.5,3.5,1,0,0,rectangle,-7.5,3.5,1,0,0,-7.5,3.5,1,0,0,0,108,108,102,1,,,,,,,,
,,,,,,,,,,,,,FF,,,,,,,,0.917,,,,,,,,,,,,,,,,,,,,,,6100d4108e61dace24b7fd6a,61036b483336c5504ee1554f,2021-07-29_20h01.07.277,Simcolourproject_2stim_asymm_v5,2020.2.10,MacIntel,60,61025ae37ef11b136ea224fe,,,,,,,,,335,20.5,-59.5,1,0,0,response3disk,,4,1.5,-5.5,1,0,0,rectangle,30.5,80.5,1,0,0,13.5,2.5,1,0,0,0,109,109,36,1,,response1disk_3,TRUE,7,7,"[272,297,280,114,211,100,110,170,255,311,105,259,296,65,168,142,272,254,16,42]",2.116,rectangle
,,,,,,,,,,,,,FF,,,,,,,,2.75,,,,,,,,,,,,,,,,,,,,,,6100d4108e61dace24b7fd6a,61036b483336c5504ee1554f,2021-07-29_20h01.07.277,Simcolourproject_2stim_asymm_v5,2020.2.10,MacIntel,60,61025ae37ef11b136ea224fe,,,,,,,,,1954,-41.5,-19.5,1,0,0,response5disk,,2,10.5,5.5,1,0,0,rectangle,10.5,5.5,1,0,0,10.5,5.5,1,0,0,0,110,110,46,1,,,,,,,,
,,,,,,,,,,,,,FF,,,,,,,,3.2,,,,,,,,,,,,,,,,,,,,,,6100d4108e61dace24b7fd6a,61036b483336c5504ee1554f,2021-07-29_20h01.07.277,Simcolourproject_2stim_asymm_v5,2020.2.10,MacIntel,60,61025ae37ef11b136ea224fe,,,,,,,,,3912,-34.5,-74.5,1,0,0,response5disk,,3,1.5,-5.5,1,0,0,rectangle,1.5,-5.5,1,0,0,1.5,-5.5,1,0,0,0,111,111,91,1,,,,,,,,
,,,,,,,,,,,,,FF,,,,,,,,1.083,,,,,,,,,,,,,,,,,,,,,,6100d4108e61dace24b7fd6a,61036b483336c5504ee1554f,2021-07-29_20h01.07.277,Simcolourproject_2stim_asymm_v5,2020.2.10,MacIntel,60,61025ae37ef11b136ea224fe,,,,,,,,,3875,-27.5,68.5,1,0,0,response7disk,,0,-1.5,6.5,1,0,0,rectangle,-1.5,6.5,1,0,0,-1.5,6.5,1,0,0,0,112,112,143,1,,,,,,,,
,,,,,,,,,,,,,FF,,,,,,,,1.217,,,,,,,,,,,,,,,,,,,,,,6100d4108e61dace24b7fd6a,61036b483336c5504ee1554f,2021-07-29_20h01.07.277,Simcolourproject_2stim_asymm_v5,2020.2.10,MacIntel,60,61025ae37ef11b136ea224fe,,,,,,,,,347,-60.5,-45.5,1,0,0,response5disk,,2,-9.5,-8.5,1,0,0,rectangle,-55.5,40.5,1,0,0,7.5,-13.5,1,0,0,0,113,113,87,1,,response7disk_3,TRUE,1,1,"[272,297,280,114,211,100,110,170,255,311,105,259,296,65,168,142,272,254,16,42]",1.966,rectangle
,,,,,,,,,,,,,FF,,,,,,,,1.9,,,,,,,,,,,,,,,,,,,,,,6100d4108e61dace24b7fd6a,61036b483336c5504ee1554f,2021-07-29_20h01.07.277,Simcolourproject_2stim_asymm_v5,2020.2.10,MacIntel,60,61025ae37ef11b136ea224fe,,,,,,,,,3732,33.5,62.5,1,0,0,response1disk,,7,12.5,2.5,1,0,0,rectangle,12.5,2.5,1,0,0,12.5,2.5,1,0,0,0,114,114,118,1,,,,,,,,
,,,,,,,,,,,,,FF,,,,,,,,0.983,,,,,,,,,,,,,,,,,,,,,,6100d4108e61dace24b7fd6a,61036b483336c5504ee1554f,2021-07-29_20h01.07.277,Simcolourproject_2stim_asymm_v5,2020.2.10,MacIntel,60,61025ae37ef11b136ea224fe,,,,,,,,,51,65.5,37.5,1,0,0,response1disk,,6,9.5,0.5,1,0,0,rectangle,9.5,0.5,1,0,0,9.5,0.5,1,0,0,0,115,115,135,1,,,,,,,,
,,,,,,,,,,,,,FF,,,,,,,,1.101,,,,,,,,,,,,,,,,,,,,,,6100d4108e61dace24b7fd6a,61036b483336c5504ee1554f,2021-07-29_20h01.07.277,Simcolourproject_2stim_asymm_v5,2020.2.10,MacIntel,60,61025ae37ef11b136ea224fe,,,,,,,,,4043,29.5,-54.5,1,0,0,response3disk,,4,11.5,5.5,1,0,0,rectangle,11.5,5.5,1,0,0,11.5,5.5,1,0,0,0,116,116,80,1,,,,,,,,
,,,,,,,,,,,,,FF,,,,,,,,2.166,,,,,,,,,,,,,,,,,,,,,,6100d4108e61dace24b7fd6a,61036b483336c5504ee1554f,2021-07-29_20h01.07.277,Simcolourproject_2stim_asymm_v5,2020.2.10,MacIntel,60,61025ae37ef11b136ea224fe,,,,,,,,,3736,45.5,76.5,1,0,0,response1disk,,7,5.5,3.5,1,0,0,rectangle,5.5,3.5,1,0,0,5.5,3.5,1,0,0,0,117,117,85,1,,,,,,,,
,,,,,,,,,,,,,FF,,,,,,,,1.818,,,,,,,,,,,,,,,,,,,,,,6100d4108e61dace24b7fd6a,61036b483336c5504ee1554f,2021-07-29_20h01.07.277,Simcolourproject_2stim_asymm_v5,2020.2.10,MacIntel,60,61025ae37ef11b136ea224fe,,,,,,,,,4039,-73.5,-24.5,1,0,0,response5disk,,2,-9.5,-5.5,1,0,0,rectangle,-9.5,-5.5,1,0,0,-9.5,-5.5,1,0,0,0,118,118,141,1,,,,,,,,
,,,,,,,,,,,,,FF,,,,,,,,1.767,,,,,,,,,,,,,,,,,,,,,,6100d4108e61dace24b7fd6a,61036b483336c5504ee1554f,2021-07-29_20h01.07.277,Simcolourproject_2stim_asymm_v5,2020.2.10,MacIntel,60,61025ae37ef11b136ea224fe,,,,,,,,,2805,65.5,25.5,1,0,0,response1disk,,6,17.5,2.5,1,0,0,rectangle,17.5,2.5,1,0,0,17.5,2.5,1,0,0,0,119,119,132,1,,,,,,,,
,,,,,,,,,,,,,FF,,,,,,,,3.434,,,,,,,,,,,,,,,,,,,,,,6100d4108e61dace24b7fd6a,61036b483336c5504ee1554f,2021-07-29_20h01.07.277,Simcolourproject_2stim_asymm_v5,2020.2.10,MacIntel,60,61025ae37ef11b136ea224fe,,,,,,,,,2085,-30.5,-73.5,1,0,0,response5disk,,3,19.5,11.5,1,0,0,rectangle,19.5,11.5,1,0,0,19.5,11.5,1,0,0,0,120,120,70,1,,,,,,,,
,,,,,,,,,,,,,FF,,,,,,,,4.716,,,,,,,,,,,,,,,,,,,,,,6100d4108e61dace24b7fd6a,61036b483336c5504ee1554f,2021-07-29_20h01.07.277,Simcolourproject_2stim_asymm_v5,2020.2.10,MacIntel,60,61025ae37ef11b136ea224fe,,,,,,,,,291,31.5,-74.5,1,0,0,response3disk,,4,16.5,0.5,1,0,0,rectangle,16.5,0.5,1,0,0,16.5,0.5,1,0,0,0,121,121,74,1,,,,,,,,
,,,,,,,,,,,,,FF,,,,,,,,1.333,,,,,,,,,,,,,,,,,,,,,,6100d4108e61dace24b7fd6a,61036b483336c5504ee1554f,2021-07-29_20h01.07.277,Simcolourproject_2stim_asymm_v5,2020.2.10,MacIntel,60,61025ae37ef11b136ea224fe,,,,,,,,,2741,64.5,31.5,1,0,0,response1disk,,6,15.5,-0.5,1,0,0,rectangle,15.5,-0.5,1,0,0,15.5,-0.5,1,0,0,0,122,122,159,1,,,,,,,,
,,,,,,,,,,,,,FF,,,,,,,,0.933,,,,,,,,,,,,,,,,,,,,,,6100d4108e61dace24b7fd6a,61036b483336c5504ee1554f,2021-07-29_20h01.07.277,Simcolourproject_2stim_asymm_v5,2020.2.10,MacIntel,60,61025ae37ef11b136ea224fe,,,,,,,,,1754,-61.5,-25.5,1,0,0,response5disk,,2,-6.5,4.5,1,0,0,rectangle,-6.5,4.5,1,0,0,-6.5,4.5,1,0,0,0,123,123,112,1,,,,,,,,
,,,,,,,,,,,,,FF,,,,,,,,1,,,,,,,,,,,,,,,,,,,,,,6100d4108e61dace24b7fd6a,61036b483336c5504ee1554f,2021-07-29_20h01.07.277,Simcolourproject_2stim_asymm_v5,2020.2.10,MacIntel,60,61025ae37ef11b136ea224fe,,,,,,,,,2276,70.5,31.5,1,0,0,response1disk,,6,-15.5,-7.5,1,0,0,rectangle,-15.5,-7.5,1,0,0,-15.5,-7.5,1,0,0,0,124,124,2,1,,,,,,,,
,,,,,,,,,,,,,FF,,,,,,,,0.967,,,,,,,,,,,,,,,,,,,,,,6100d4108e61dace24b7fd6a,61036b483336c5504ee1554f,2021-07-29_20h01.07.277,Simcolourproject_2stim_asymm_v5,2020.2.10,MacIntel,60,61025ae37ef11b136ea224fe,,,,,,,,,1256,64.5,34.5,1,0,0,response1disk,,6,15.5,4.5,1,0,0,rectangle,15.5,4.5,1,0,0,15.5,4.5,1,0,0,0,125,125,124,1,,,,,,,,
,,,,,,,,,,,,,FF,,,,,,,,0.733,,,,,,,,,,,,,,,,,,,,,,6100d4108e61dace24b7fd6a,61036b483336c5504ee1554f,2021-07-29_20h01.07.277,Simcolourproject_2stim_asymm_v5,2020.2.10,MacIntel,60,61025ae37ef11b136ea224fe,,,,,,,,,1108,51.5,15.5,1,0,0,response1disk,,6,11.5,5.5,1,0,0,rectangle,11.5,5.5,1,0,0,11.5,5.5,1,0,0,0,126,126,147,1,,,,,,,,
,,,,,,,,,,,,,FF,,,,,,,,1.068,,,,,,,,,,,,,,,,,,,,,,6100d4108e61dace24b7fd6a,61036b483336c5504ee1554f,2021-07-29_20h01.07.277,Simcolourproject_2stim_asymm_v5,2020.2.10,MacIntel,60,61025ae37ef11b136ea224fe,,,,,,,,,3793,73.5,33.5,1,0,0,response1disk,,6,11.5,-4.5,1,0,0,rectangle,11.5,-4.5,1,0,0,11.5,-4.5,1,0,0,0,127,127,24,1,,,,,,,,
,,,,,,,,,,,,,FF,,,,,,,,1.617,,,,,,,,,,,,,,,,,,,,,,6100d4108e61dace24b7fd6a,61036b483336c5504ee1554f,2021-07-29_20h01.07.277,Simcolourproject_2stim_asymm_v5,2020.2.10,MacIntel,60,61025ae37ef11b136ea224fe,,,,,,,,,1037,66.5,-29.5,1,0,0,response3disk,,5,-5.5,-6.5,1,0,0,rectangle,-5.5,-6.5,1,0,0,-5.5,-6.5,1,0,0,0,128,128,42,1,,,,,,,,
,,,,,,,,,,,,,FF,,,,,,,,1.583,,,,,,,,,,,,,,,,,,,,,,6100d4108e61dace24b7fd6a,61036b483336c5504ee1554f,2021-07-29_20h01.07.277,Simcolourproject_2stim_asymm_v5,2020.2.10,MacIntel,60,61025ae37ef11b136ea224fe,,,,,,,,,2749,50.5,-20.5,1,0,0,response3disk,,5,14.5,-10.5,1,0,0,rectangle,14.5,-10.5,1,0,0,14.5,-10.5,1,0,0,0,129,129,109,1,,,,,,,,
,,,,,,,,,,,,,FF,,,,,,,,1.683,,,,,,,,,,,,,,,,,,,,,,6100d4108e61dace24b7fd6a,61036b483336c5504ee1554f,2021-07-29_20h01.07.277,Simcolourproject_2stim_asymm_v5,2020.2.10,MacIntel,60,61025ae37ef11b136ea224fe,,,,,,,,,4111,61.5,-30.5,1,0,0,response3disk,,5,8.5,-1.5,1,0,0,rectangle,8.5,-1.5,1,0,0,8.5,-1.5,1,0,0,0,130,130,17,1,,,,,,,,
,,,,,,,,,,,,,FF,,,,,,,,1.801,,,,,,,,,,,,,,,,,,,,,,6100d4108e61dace24b7fd6a,61036b483336c5504ee1554f,2021-07-29_20h01.07.277,Simcolourproject_2stim_asymm_v5,2020.2.10,MacIntel,60,61025ae37ef11b136ea224fe,,,,,,,,,2408,70.5,-21.5,1,0,0,response3disk,,5,0.5,0.5,1,0,0,rectangle,0.5,0.5,1,0,0,0.5,0.5,1,0,0,0,131,131,75,1,,,,,,,,
,,,,,,,,,,,,,FF,,,,,,,,3.117,,,,,,,,,,,,,,,,,,,,,,6100d4108e61dace24b7fd6a,61036b483336c5504ee1554f,2021-07-29_20h01.07.277,Simcolourproject_2stim_asymm_v5,2020.2.10,MacIntel,60,61025ae37ef11b136ea224fe,,,,,,,,,3848,-39.5,-60.5,1,0,0,response5disk,,3,5.5,-11.5,1,0,0,rectangle,5.5,-11.5,1,0,0,5.5,-11.5,1,0,0,0,132,132,10,1,,,,,,,,
,,,,,,,,,,,,,FF,,,,,,,,1.1,,,,,,,,,,,,,,,,,,,,,,6100d4108e61dace24b7fd6a,61036b483336c5504ee1554f,2021-07-29_20h01.07.277,Simcolourproject_2stim_asymm_v5,2020.2.10,MacIntel,60,61025ae37ef11b136ea224fe,,,,,,,,,238,59.5,-27.5,1,0,0,response3disk,,5,16.5,-2.5,1,0,0,rectangle,16.5,-2.5,1,0,0,16.5,-2.5,1,0,0,0,133,133,153,1,,,,,,,,
,,,,,,,,,,,,,FF,,,,,,,,1.801,,,,,,,,,,,,,,,,,,,,,,6100d4108e61dace24b7fd6a,61036b483336c5504ee1554f,2021-07-29_20h01.07.277,Simcolourproject_2stim_asymm_v5,2020.2.10,MacIntel,60,61025ae37ef11b136ea224fe,,,,,,,,,162,-58.5,27.5,1,0,0,response7disk,,1,-4.5,11.5,1,0,0,rectangle,-4.5,11.5,1,0,0,-4.5,11.5,1,0,0,0,134,134,133,1,,,,,,,,
,,,,,,,,,,,,,FF,,,,,,,,5.833,,,,,,,,,,,,,,,,,,,,,,6100d4108e61dace24b7fd6a,61036b483336c5504ee1554f,2021-07-29_20h01.07.277,Simcolourproject_2stim_asymm_v5,2020.2.10,MacIntel,60,61025ae37ef11b136ea224fe,,,,,,,,,1708,-66.5,-29.5,1,0,0,response5disk,,2,12.5,-2.5,1,0,0,rectangle,12.5,-2.5,1,0,0,12.5,-2.5,1,0,0,0,135,135,69,1,,,,,,,,
,,,,,,,,,,,,,FF,,,,,,,,2.166,,,,,,,,,,,,,,,,,,,,,,6100d4108e61dace24b7fd6a,61036b483336c5504ee1554f,2021-07-29_20h01.07.277,Simcolourproject_2stim_asymm_v5,2020.2.10,MacIntel,60,61025ae37ef11b136ea224fe,,,,,,,,,181,-54.5,-29.5,1,0,0,response5disk,,2,19.5,-7.5,1,0,0,rectangle,19.5,-7.5,1,0,0,19.5,-7.5,1,0,0,0,136,136,127,1,,,,,,,,
,,,,,,,,,,,,,FF,,,,,,,,3.134,,,,,,,,,,,,,,,,,,,,,,6100d4108e61dace24b7fd6a,61036b483336c5504ee1554f,2021-07-29_20h01.07.277,Simcolourproject_2stim_asymm_v5,2020.2.10,MacIntel,60,61025ae37ef11b136ea224fe,,,,,,,,,2238,-65.5,13.5,1,0,0,response7disk,,1,-15.5,-6.5,1,0,0,rectangle,-15.5,-6.5,1,0,0,-15.5,-6.5,1,0,0,0,137,137,72,1,,,,,,,,
,,,,,,,,,,,,,FF,,,,,,,,1.951,,,,,,,,,,,,,,,,,,,,,,6100d4108e61dace24b7fd6a,61036b483336c5504ee1554f,2021-07-29_20h01.07.277,Simcolourproject_2stim_asymm_v5,2020.2.10,MacIntel,60,61025ae37ef11b136ea224fe,,,,,,,,,3455,87.5,41.5,1,0,0,response1disk,,6,11.5,-10.5,1,0,0,rectangle,11.5,-10.5,1,0,0,11.5,-10.5,1,0,0,0,138,138,140,1,,,,,,,,
,,,,,,,,,,,,,FF,,,,,,,,0.933,,,,,,,,,,,,,,,,,,,,,,6100d4108e61dace24b7fd6a,61036b483336c5504ee1554f,2021-07-29_20h01.07.277,Simcolourproject_2stim_asymm_v5,2020.2.10,MacIntel,60,61025ae37ef11b136ea224fe,,,,,,,,,3876,56.5,-40.5,1,0,0,response3disk,,5,-4.5,-4.5,1,0,0,rectangle,-4.5,-4.5,1,0,0,-4.5,-4.5,1,0,0,0,139,139,117,1,,,,,,,,
,,,,,,,,,,,,,FF,,,,,,,,1.033,,,,,,,,,,,,,,,,,,,,,,6100d4108e61dace24b7fd6a,61036b483336c5504ee1554f,2021-07-29_20h01.07.277,Simcolourproject_2stim_asymm_v5,2020.2.10,MacIntel,60,61025ae37ef11b136ea224fe,,,,,,,,,3951,19.5,-72.5,1,0,0,response3disk,,4,-3.5,-2.5,1,0,0,rectangle,-3.5,-2.5,1,0,0,-3.5,-2.5,1,0,0,0,140,140,50,1,,,,,,,,
,,,,,,,,,,,,,FF,,,,,,,,1.667,,,,,,,,,,,,,,,,,,,,,,6100d4108e61dace24b7fd6a,61036b483336c5504ee1554f,2021-07-29_20h01.07.277,Simcolourproject_2stim_asymm_v5,2020.2.10,MacIntel,60,61025ae37ef11b136ea224fe,,,,,,,,,2655,36.5,68.5,1,0,0,response1disk,,7,12.5,7.5,1,0,0,rectangle,62.5,-24.5,1,0,0,2.5,0.5,1,0,0,0,141,141,148,1,,response3disk_3,TRUE,5,5,"[272,297,280,114,211,100,110,170,255,311,105,259,296,65,168,142,272,254,16,42]",2.017,rectangle
,,,,,,,,,,,,,FF,,,,,,,,3.451,,,,,,,,,,,,,,,,,,,,,,6100d4108e61dace24b7fd6a,61036b483336c5504ee1554f,2021-07-29_20h01.07.277,Simcolourproject_2stim_asymm_v5,2020.2.10,MacIntel,60,61025ae37ef11b136ea224fe,,,,,,,,,2204,68.5,30.5,1,0,0,response1disk,,6,16.5,3.5,1,0,0,rectangle,16.5,3.5,1,0,0,16.5,3.5,1,0,0,0,142,142,63,1,,,,,,,,
,,,,,,,,,,,,,FF,,,,,,,,1.45,,,,,,,,,,,,,,,,,,,,,,6100d4108e61dace24b7fd6a,61036b483336c5504ee1554f,2021-07-29_20h01.07.277,Simcolourproject_2stim_asymm_v5,2020.2.10,MacIntel,60,61025ae37ef11b136ea224fe,,,,,,,,,2074,16.5,-50.5,1,0,0,response3disk,,4,3.5,8.5,1,0,0,rectangle,3.5,8.5,1,0,0,3.5,8.5,1,0,0,0,143,143,11,1,,,,,,,,
,,,,,,,,,,,,,FF,,,,,,,,1.851,,,,,,,,,,,,,,,,,,,,,,6100d4108e61dace24b7fd6a,61036b483336c5504ee1554f,2021-07-29_20h01.07.277,Simcolourproject_2stim_asymm_v5,2020.2.10,MacIntel,60,61025ae37ef11b136ea224fe,,,,,,,,,725,57.5,-33.5,1,0,0,response3disk,,5,-3.5,9.5,1,0,0,rectangle,-3.5,9.5,1,0,0,-3.5,9.5,1,0,0,0,144,144,53,1,,,,,,,,
,,,,,,,,,,,,,FF,,,,,,,,1.134,,,,,,,,,,,,,,,,,,,,,,6100d4108e61dace24b7fd6a,61036b483336c5504ee1554f,2021-07-29_20h01.07.277,Simcolourproject_2stim_asymm_v5,2020.2.10,MacIntel,60,61025ae37ef11b136ea224fe,,,,,,,,,2651,-52.5,34.5,1,0,0,response7disk,,1,3.5,-2.5,1,0,0,rectangle,3.5,-2.5,1,0,0,3.5,-2.5,1,0,0,0,145,145,47,1,,,,,,,,
,,,,,,,,,,,,,FF,,,,,,,,0.966,,,,,,,,,,,,,,,,,,,,,,6100d4108e61dace24b7fd6a,61036b483336c5504ee1554f,2021-07-29_20h01.07.277,Simcolourproject_2stim_asymm_v5,2020.2.10,MacIntel,60,61025ae37ef11b136ea224fe,,,,,,,,,24,-34.5,-60.5,1,0,0,response5disk,,3,2.5,1.5,1,0,0,rectangle,2.5,1.5,1,0,0,2.5,1.5,1,0,0,0,146,146,43,1,,,,,,,,
,,,,,,,,,,,,,FF,,,,,,,,0.984,,,,,,,,,,,,,,,,,,,,,,6100d4108e61dace24b7fd6a,61036b483336c5504ee1554f,2021-07-29_20h01.07.277,Simcolourproject_2stim_asymm_v5,2020.2.10,MacIntel,60,61025ae37ef11b136ea224fe,,,,,,,,,3511,-54.5,26.5,1,0,0,response7disk,,1,-3.5,13.5,1,0,0,rectangle,-3.5,13.5,1,0,0,-3.5,13.5,1,0,0,0,147,147,98,1,,,,,,,,
,,,,,,,,,,,,,FF,,,,,,,,0.95,,,,,,,,,,,,,,,,,,,,,,6100d4108e61dace24b7fd6a,61036b483336c5504ee1554f,2021-07-29_20h01.07.277,Simcolourproject_2stim_asymm_v5,2020.2.10,MacIntel,60,61025ae37ef11b136ea224fe,,,,,,,,,3066,17.5,-45.5,1,0,0,response3disk,,4,-6.5,7.5,1,0,0,rectangle,-6.5,7.5,1,0,0,-6.5,7.5,1,0,0,0,148,148,158,1,,,,,,,,
,,,,,,,,,,,,,FF,,,,,,,,0.883,,,,,,,,,,,,,,,,,,,,,,6100d4108e61dace24b7fd6a,61036b483336c5504ee1554f,2021-07-29_20h01.07.277,Simcolourproject_2stim_asymm_v5,2020.2.10,MacIntel,60,61025ae37ef11b136ea224fe,,,,,,,,,3421,-32.5,-71.5,1,0,0,response5disk,,3,-9.5,6.5,1,0,0,rectangle,-9.5,6.5,1,0,0,-9.5,6.5,1,0,0,0,149,149,35,1,,,,,,,,
,,,,,,,,,,,,,FF,,,,,,,,0.918,,,,,,,,,,,,,,,,,,,,,,6100d4108e61dace24b7fd6a,61036b483336c5504ee1554f,2021-07-29_20h01.07.277,Simcolourproject_2stim_asymm_v5,2020.2.10,MacIntel,60,61025ae37ef11b136ea224fe,,,,,,,,,4085,-71.5,30.5,1,0,0,response7disk,,1,4.5,5.5,1,0,0,rectangle,4.5,5.5,1,0,0,4.5,5.5,1,0,0,0,150,150,29,1,,,,,,,,
,,,,,,,,,,,,,FF,,,,,,,,1.633,,,,,,,,,,,,,,,,,,,,,,6100d4108e61dace24b7fd6a,61036b483336c5504ee1554f,2021-07-29_20h01.07.277,Simcolourproject_2stim_asymm_v5,2020.2.10,MacIntel,60,61025ae37ef11b136ea224fe,,,,,,,,,3872,-23.5,-55.5,1,0,0,response5disk,,3,3.5,-5.5,1,0,0,rectangle,3.5,-5.5,1,0,0,3.5,-5.5,1,0,0,0,151,151,100,1,,,,,,,,
,,,,,,,,,,,,,FF,,,,,,,,1.234,,,,,,,,,,,,,,,,,,,,,,6100d4108e61dace24b7fd6a,61036b483336c5504ee1554f,2021-07-29_20h01.07.277,Simcolourproject_2stim_asymm_v5,2020.2.10,MacIntel,60,61025ae37ef11b136ea224fe,,,,,,,,,2992,45.5,-63.5,1,0,0,response3disk,,4,13.5,-4.5,1,0,0,rectangle,13.5,-4.5,1,0,0,13.5,-4.5,1,0,0,0,152,152,97,1,,,,,,,,
,,,,,,,,,,,,,FF,,,,,,,,0.967,,,,,,,,,,,,,,,,,,,,,,6100d4108e61dace24b7fd6a,61036b483336c5504ee1554f,2021-07-29_20h01.07.277,Simcolourproject_2stim_asymm_v5,2020.2.10,MacIntel,60,61025ae37ef11b136ea224fe,,,,,,,,,4280,-63.5,48.5,1,0,0,response7disk,,1,-2.5,-3.5,1,0,0,rectangle,-2.5,-3.5,1,0,0,-2.5,-3.5,1,0,0,0,153,153,26,1,,,,,,,,
,,,,,,,,,,,,,FF,,,,,,,,1.416,,,,,,,,,,,,,,,,,,,,,,6100d4108e61dace24b7fd6a,61036b483336c5504ee1554f,2021-07-29_20h01.07.277,Simcolourproject_2stim_asymm_v5,2020.2.10,MacIntel,60,61025ae37ef11b136ea224fe,,,,,,,,,1852,-26.5,-53.5,1,0,0,response5disk,,3,3.5,-4.5,1,0,0,rectangle,3.5,-4.5,1,0,0,3.5,-4.5,1,0,0,0,154,154,152,1,,,,,,,,
,,,,,,,,,,,,,FF,,,,,,,,1.385,,,,,,,,,,,,,,,,,,,,,,6100d4108e61dace24b7fd6a,61036b483336c5504ee1554f,2021-07-29_20h01.07.277,Simcolourproject_2stim_asymm_v5,2020.2.10,MacIntel,60,61025ae37ef11b136ea224fe,,,,,,,,,3989,50.5,-29.5,1,0,0,response3disk,,5,19.5,-5.5,1,0,0,rectangle,19.5,-5.5,1,0,0,19.5,-5.5,1,0,0,0,155,155,33,1,,,,,,,,
,,,,,,,,,,,,,FF,,,,,,,,1.566,,,,,,,,,,,,,,,,,,,,,,6100d4108e61dace24b7fd6a,61036b483336c5504ee1554f,2021-07-29_20h01.07.277,Simcolourproject_2stim_asymm_v5,2020.2.10,MacIntel,60,61025ae37ef11b136ea224fe,,,,,,,,,298,-20.5,-48.5,1,0,0,response5disk,,3,3.5,3.5,1,0,0,rectangle,3.5,3.5,1,0,0,3.5,3.5,1,0,0,0,156,156,123,1,,,,,,,,
,,,,,,,,,,,,,FF,,,,,,,,2.299,,,,,,,,,,,,,,,,,,,,,,6100d4108e61dace24b7fd6a,61036b483336c5504ee1554f,2021-07-29_20h01.07.277,Simcolourproject_2stim_asymm_v5,2020.2.10,MacIntel,60,61025ae37ef11b136ea224fe,,,,,,,,,3613,57.5,-12.5,1,0,0,response3disk,,5,-3.5,3.5,1,0,0,rectangle,-3.5,3.5,1,0,0,-3.5,3.5,1,0,0,0,157,157,0,1,,,,,,,,
,,,,,,,,,,,,,FF,,,,,,,,1.533,,,,,,,,,,,,,,,,,,,,,,6100d4108e61dace24b7fd6a,61036b483336c5504ee1554f,2021-07-29_20h01.07.277,Simcolourproject_2stim_asymm_v5,2020.2.10,MacIntel,60,61025ae37ef11b136ea224fe,,,,,,,,,601,63.5,-37.5,1,0,0,response3disk,,5,6.5,0.5,1,0,0,rectangle,6.5,0.5,1,0,0,6.5,0.5,1,0,0,0,158,158,115,1,,,,,,,,
,,,,,,,,,,,,,FF,,,,,,,,0.85,,,,,,,,,,,,,,,,,,,,,,6100d4108e61dace24b7fd6a,61036b483336c5504ee1554f,2021-07-29_20h01.07.277,Simcolourproject_2stim_asymm_v5,2020.2.10,MacIntel,60,61025ae37ef11b136ea224fe,,,,,,,,,2300,-47.5,-11.5,1,0,0,response5disk,,2,6.5,11.5,1,0,0,rectangle,6.5,11.5,1,0,0,6.5,11.5,1,0,0,0,159,159,111,1,,,,,,,,
,,,,,,,,,,,,,FF,,,,,,,,1.25,,,,,,,,,,,,,,,,,,,,,,6100d4108e61dace24b7fd6a,61036b483336c5504ee1554f,2021-07-29_20h01.07.277,Simcolourproject_2stim_asymm_v5,2020.2.10,MacIntel,60,61025ae37ef11b136ea224fe,,,,,,,,,1124,-33.5,-51.5,1,0,0,response5disk,,3,5.5,5.5,1,0,0,rectangle,5.5,5.5,1,0,0,5.5,5.5,1,0,0,1,0,160,81,1,,,,,,,,
,,,,,,,,,,,,,FF,,,,,,,,0.951,,,,,,,,,,,,,,,,,,,,,,6100d4108e61dace24b7fd6a,61036b483336c5504ee1554f,2021-07-29_20h01.07.277,Simcolourproject_2stim_asymm_v5,2020.2.10,MacIntel,60,61025ae37ef11b136ea224fe,,,,,,,,,926,63.5,-22.5,1,0,0,response3disk,,5,7.5,-5.5,1,0,0,rectangle,7.5,-5.5,1,0,0,7.5,-5.5,1,0,0,1,1,161,72,1,,,,,,,,
,,,,,,,,,,,,,FF,,,,,,,,1.301,,,,,,,,,,,,,,,,,,,,,,6100d4108e61dace24b7fd6a,61036b483336c5504ee1554f,2021-07-29_20h01.07.277,Simcolourproject_2stim_asymm_v5,2020.2.10,MacIntel,60,61025ae37ef11b136ea224fe,,,,,,,,,2702,31.5,-42.5,1,0,0,response3disk,,4,5.5,-1.5,1,0,0,rectangle,5.5,-1.5,1,0,0,5.5,-1.5,1,0,0,1,2,162,26,1,,,,,,,,
,,,,,,,,,,,,,FF,,,,,,,,1.532,,,,,,,,,,,,,,,,,,,,,,6100d4108e61dace24b7fd6a,61036b483336c5504ee1554f,2021-07-29_20h01.07.277,Simcolourproject_2stim_asymm_v5,2020.2.10,MacIntel,60,61025ae37ef11b136ea224fe,,,,,,,,,1175,34.5,73.5,1,0,0,response1disk,,7,11.5,3.5,1,0,0,rectangle,11.5,3.5,1,0,0,11.5,3.5,1,0,0,1,3,163,124,1,,,,,,,,
,,,,,,,,,,,,,FF,,,,,,,,1.616,,,,,,,,,,,,,,,,,,,,,,6100d4108e61dace24b7fd6a,61036b483336c5504ee1554f,2021-07-29_20h01.07.277,Simcolourproject_2stim_asymm_v5,2020.2.10,MacIntel,60,61025ae37ef11b136ea224fe,,,,,,,,,3771,29.5,61.5,1,0,0,response1disk,,7,15.5,13.5,1,0,0,rectangle,15.5,13.5,1,0,0,15.5,13.5,1,0,0,1,4,164,119,1,,,,,,,,
,,,,,,,,,,,,,FF,,,,,,,,1.333,,,,,,,,,,,,,,,,,,,,,,6100d4108e61dace24b7fd6a,61036b483336c5504ee1554f,2021-07-29_20h01.07.277,Simcolourproject_2stim_asymm_v5,2020.2.10,MacIntel,60,61025ae37ef11b136ea224fe,,,,,,,,,2579,58.5,31.5,1,0,0,response1disk,,6,4.5,1.5,1,0,0,rectangle,4.5,1.5,1,0,0,4.5,1.5,1,0,0,1,5,165,100,1,,,,,,,,
,,,,,,,,,,,,,FF,,,,,,,,1.15,,,,,,,,,,,,,,,,,,,,,,6100d4108e61dace24b7fd6a,61036b483336c5504ee1554f,2021-07-29_20h01.07.277,Simcolourproject_2stim_asymm_v5,2020.2.10,MacIntel,60,61025ae37ef11b136ea224fe,,,,,,,,,1182,33.5,61.5,1,0,0,response1disk,,7,13.5,-1.5,1,0,0,rectangle,13.5,-1.5,1,0,0,13.5,-1.5,1,0,0,1,6,166,69,1,,,,,,,,
,,,,,,,,,,,,,FF,,,,,,,,2.233,,,,,,,,,,,,,,,,,,,,,,6100d4108e61dace24b7fd6a,61036b483336c5504ee1554f,2021-07-29_20h01.07.277,Simcolourproject_2stim_asymm_v5,2020.2.10,MacIntel,60,61025ae37ef11b136ea224fe,,,,,,,,,428,73.5,-23.5,1,0,0,response3disk,,5,5.5,2.5,1,0,0,rectangle,-76.5,36.5,1,0,0,-17.5,2.5,1,0,0,1,7,167,63,1,,response7disk_3,TRUE,1,1,"[272,297,280,114,211,100,110,170,255,311,105,259,296,65,168,142,272,254,16,42]",1.566,rectangle
,,,,,,,,,,,,,FF,,,,,,,,1.714,,,,,,,,,,,,,,,,,,,,,,6100d4108e61dace24b7fd6a,61036b483336c5504ee1554f,2021-07-29_20h01.07.277,Simcolourproject_2stim_asymm_v5,2020.2.10,MacIntel,60,61025ae37ef11b136ea224fe,,,,,,,,,2457,54.5,33.5,1,0,0,response1disk,,6,6.5,0.5,1,0,0,rectangle,6.5,0.5,1,0,0,6.5,0.5,1,0,0,1,8,168,23,1,,,,,,,,
,,,,,,,,,,,,,FF,,,,,,,,2.416,,,,,,,,,,,,,,,,,,,,,,6100d4108e61dace24b7fd6a,61036b483336c5504ee1554f,2021-07-29_20h01.07.277,Simcolourproject_2stim_asymm_v5,2020.2.10,MacIntel,60,61025ae37ef11b136ea224fe,,,,,,,,,997,65.5,-12.5,1,0,0,response3disk,,5,3.5,0.5,1,0,0,rectangle,59.5,-25.5,1,0,0,13.5,2.5,1,0,0,1,9,169,75,1,,response3disk_3,TRUE,5,5,"[272,297,280,114,211,100,110,170,255,311,105,259,296,65,168,142,272,254,16,42]",2.315,rectangle
,,,,,,,,,,,,,FF,,,,,,,,1.317,,,,,,,,,,,,,,,,,,,,,,6100d4108e61dace24b7fd6a,61036b483336c5504ee1554f,2021-07-29_20h01.07.277,Simcolourproject_2stim_asymm_v5,2020.2.10,MacIntel,60,61025ae37ef11b136ea224fe,,,,,,,,,32,-25.5,-53.5,1,0,0,response5disk,,3,26.5,-4.5,1,0,0,rectangle,26.5,-4.5,1,0,0,26.5,-4.5,1,0,0,1,10,170,66,1,,,,,,,,
,,,,,,,,,,,,,FF,,,,,,,,0.801,,,,,,,,,,,,,,,,,,,,,,6100d4108e61dace24b7fd6a,61036b483336c5504ee1554f,2021-07-29_20h01.07.277,Simcolourproject_2stim_asymm_v5,2020.2.10,MacIntel,60,61025ae37ef11b136ea224fe,,,,,,,,,2206,58.5,-28.5,1,0,0,response3disk,,5,-2.5,-4.5,1,0,0,rectangle,-2.5,-4.5,1,0,0,-2.5,-4.5,1,0,0,1,11,171,152,1,,,,,,,,
,,,,,,,,,,,,,FF,,,,,,,,1.434,,,,,,,,,,,,,,,,,,,,,,6100d4108e61dace24b7fd6a,61036b483336c5504ee1554f,2021-07-29_20h01.07.277,Simcolourproject_2stim_asymm_v5,2020.2.10,MacIntel,60,61025ae37ef11b136ea224fe,,,,,,,,,2516,32.5,-51.5,1,0,0,response3disk,,4,2.5,7.5,1,0,0,rectangle,2.5,7.5,1,0,0,2.5,7.5,1,0,0,1,12,172,64,1,,,,,,,,
,,,,,,,,,,,,,FF,,,,,,,,3.184,,,,,,,,,,,,,,,,,,,,,,6100d4108e61dace24b7fd6a,61036b483336c5504ee1554f,2021-07-29_20h01.07.277,Simcolourproject_2stim_asymm_v5,2020.2.10,MacIntel,60,61025ae37ef11b136ea224fe,,,,,,,,,276,-46.5,-23.5,1,0,0,response5disk,,2,12.5,3.5,1,0,0,rectangle,12.5,3.5,1,0,0,12.5,3.5,1,0,0,1,13,173,25,1,,,,,,,,
,,,,,,,,,,,,,FF,,,,,,,,1.584,,,,,,,,,,,,,,,,,,,,,,6100d4108e61dace24b7fd6a,61036b483336c5504ee1554f,2021-07-29_20h01.07.277,Simcolourproject_2stim_asymm_v5,2020.2.10,MacIntel,60,61025ae37ef11b136ea224fe,,,,,,,,,1874,65.5,36.5,1,0,0,response1disk,,6,6.5,-2.5,1,0,0,rectangle,6.5,-2.5,1,0,0,6.5,-2.5,1,0,0,1,14,174,143,1,,,,,,,,
,,,,,,,,,,,,,FF,,,,,,,,1.715,,,,,,,,,,,,,,,,,,,,,,6100d4108e61dace24b7fd6a,61036b483336c5504ee1554f,2021-07-29_20h01.07.277,Simcolourproject_2stim_asymm_v5,2020.2.10,MacIntel,60,61025ae37ef11b136ea224fe,,,,,,,,,899,-39.5,-62.5,1,0,0,response5disk,,3,2.5,7.5,1,0,0,rectangle,2.5,7.5,1,0,0,2.5,7.5,1,0,0,1,15,175,136,1,,,,,,,,
,,,,,,,,,,,,,FF,,,,,,,,1.517,,,,,,,,,,,,,,,,,,,,,,6100d4108e61dace24b7fd6a,61036b483336c5504ee1554f,2021-07-29_20h01.07.277,Simcolourproject_2stim_asymm_v5,2020.2.10,MacIntel,60,61025ae37ef11b136ea224fe,,,,,,,,,1634,65.5,24.5,1,0,0,response1disk,,6,-1.5,-6.5,1,0,0,rectangle,-1.5,-6.5,1,0,0,-1.5,-6.5,1,0,0,1,16,176,58,1,,,,,,,,
,,,,,,,,,,,,,FF,,,,,,,,13.667,,,,,,,,,,,,,,,,,,,,,,6100d4108e61dace24b7fd6a,61036b483336c5504ee1554f,2021-07-29_20h01.07.277,Simcolourproject_2stim_asymm_v5,2020.2.10,MacIntel,60,61025ae37ef11b136ea224fe,,,,,,,,,100,33.5,-60.5,1,0,0,response3disk,,4,13.5,-0.5,1,0,0,rectangle,13.5,-0.5,1,0,0,13.5,-0.5,1,0,0,1,17,177,104,1,,,,,,,,
,,,,,,,,,,,,,FF,,,,,,,,0.8,,,,,,,,,,,,,,,,,,,,,,6100d4108e61dace24b7fd6a,61036b483336c5504ee1554f,2021-07-29_20h01.07.277,Simcolourproject_2stim_asymm_v5,2020.2.10,MacIntel,60,61025ae37ef11b136ea224fe,,,,,,,,,983,-68.5,-28.5,1,0,0,response5disk,,2,-1.5,11.5,1,0,0,rectangle,-1.5,11.5,1,0,0,-1.5,11.5,1,0,0,1,18,178,123,1,,,,,,,,
,,,,,,,,,,,,,FF,,,,,,,,0.884,,,,,,,,,,,,,,,,,,,,,,6100d4108e61dace24b7fd6a,61036b483336c5504ee1554f,2021-07-29_20h01.07.277,Simcolourproject_2stim_asymm_v5,2020.2.10,MacIntel,60,61025ae37ef11b136ea224fe,,,,,,,,,919,71.5,-36.5,1,0,0,response3disk,,5,8.5,-4.5,1,0,0,rectangle,8.5,-4.5,1,0,0,8.5,-4.5,1,0,0,1,19,179,41,1,,,,,,,,
,,,,,,,,,,,,,FF,,,,,,,,1.099,,,,,,,,,,,,,,,,,,,,,,6100d4108e61dace24b7fd6a,61036b483336c5504ee1554f,2021-07-29_20h01.07.277,Simcolourproject_2stim_asymm_v5,2020.2.10,MacIntel,60,61025ae37ef11b136ea224fe,,,,,,,,,2351,-32.5,-59.5,1,0,0,response5disk,,3,12.5,2.5,1,0,0,rectangle,12.5,2.5,1,0,0,12.5,2.5,1,0,0,1,20,180,82,1,,,,,,,,
,,,,,,,,,,,,,FF,,,,,,,,1.05,,,,,,,,,,,,,,,,,,,,,,6100d4108e61dace24b7fd6a,61036b483336c5504ee1554f,2021-07-29_20h01.07.277,Simcolourproject_2stim_asymm_v5,2020.2.10,MacIntel,60,61025ae37ef11b136ea224fe,,,,,,,,,4125,-65.5,-27.5,1,0,0,response5disk,,2,-7.5,-3.5,1,0,0,rectangle,-7.5,-3.5,1,0,0,-7.5,-3.5,1,0,0,1,21,181,29,1,,,,,,,,
,,,,,,,,,,,,,FF,,,,,,,,1.084,,,,,,,,,,,,,,,,,,,,,,6100d4108e61dace24b7fd6a,61036b483336c5504ee1554f,2021-07-29_20h01.07.277,Simcolourproject_2stim_asymm_v5,2020.2.10,MacIntel,60,61025ae37ef11b136ea224fe,,,,,,,,,1096,45.5,23.5,1,0,0,response1disk,,6,9.5,-0.5,1,0,0,rectangle,9.5,-0.5,1,0,0,9.5,-0.5,1,0,0,1,22,182,131,1,,,,,,,,
,,,,,,,,,,,,,FF,,,,,,,,0.95,,,,,,,,,,,,,,,,,,,,,,6100d4108e61dace24b7fd6a,61036b483336c5504ee1554f,2021-07-29_20h01.07.277,Simcolourproject_2stim_asymm_v5,2020.2.10,MacIntel,60,61025ae37ef11b136ea224fe,,,,,,,,,3160,-65.5,-25.5,1,0,0,response5disk,,2,-6.5,-7.5,1,0,0,rectangle,-6.5,-7.5,1,0,0,-6.5,-7.5,1,0,0,1,23,183,135,1,,,,,,,,
,,,,,,,,,,,,,FF,,,,,,,,0.849,,,,,,,,,,,,,,,,,,,,,,6100d4108e61dace24b7fd6a,61036b483336c5504ee1554f,2021-07-29_20h01.07.277,Simcolourproject_2stim_asymm_v5,2020.2.10,MacIntel,60,61025ae37ef11b136ea224fe,,,,,,,,,1536,-48.5,48.5,1,0,0,response7disk,,1,3.5,6.5,1,0,0,rectangle,3.5,6.5,1,0,0,3.5,6.5,1,0,0,1,24,184,24,1,,,,,,,,
,,,,,,,,,,,,,FF,,,,,,,,0.867,,,,,,,,,,,,,,,,,,,,,,6100d4108e61dace24b7fd6a,61036b483336c5504ee1554f,2021-07-29_20h01.07.277,Simcolourproject_2stim_asymm_v5,2020.2.10,MacIntel,60,61025ae37ef11b136ea224fe,,,,,,,,,3262,-16.5,-65.5,1,0,0,response5disk,,3,3.5,0.5,1,0,0,rectangle,3.5,0.5,1,0,0,3.5,0.5,1,0,0,1,25,185,65,1,,,,,,,,
,,,,,,,,,,,,,FF,,,,,,,,0.866,,,,,,,,,,,,,,,,,,,,,,6100d4108e61dace24b7fd6a,61036b483336c5504ee1554f,2021-07-29_20h01.07.277,Simcolourproject_2stim_asymm_v5,2020.2.10,MacIntel,60,61025ae37ef11b136ea224fe,,,,,,,,,111,51.5,-25.5,1,0,0,response3disk,,5,2.5,-3.5,1,0,0,rectangle,2.5,-3.5,1,0,0,2.5,-3.5,1,0,0,1,26,186,95,1,,,,,,,,
,,,,,,,,,,,,,FF,,,,,,,,0.684,,,,,,,,,,,,,,,,,,,,,,6100d4108e61dace24b7fd6a,61036b483336c5504ee1554f,2021-07-29_20h01.07.277,Simcolourproject_2stim_asymm_v5,2020.2.10,MacIntel,60,61025ae37ef11b136ea224fe,,,,,,,,,1694,70.5,34.5,1,0,0,response1disk,,6,11.5,4.5,1,0,0,rectangle,11.5,4.5,1,0,0,11.5,4.5,1,0,0,1,27,187,158,1,,,,,,,,
,,,,,,,,,,,,,FF,,,,,,,,6.8,,,,,,,,,,,,,,,,,,,,,,6100d4108e61dace24b7fd6a,61036b483336c5504ee1554f,2021-07-29_20h01.07.277,Simcolourproject_2stim_asymm_v5,2020.2.10,MacIntel,60,61025ae37ef11b136ea224fe,,,,,,,,,2931,52.5,-20.5,1,0,0,response3disk,,5,-3.5,-0.5,1,0,0,rectangle,-3.5,-0.5,1,0,0,-3.5,-0.5,1,0,0,1,28,188,28,1,,,,,,,,
,,,,,,,,,,,,,FF,,,,,,,,3.184,,,,,,,,,,,,,,,,,,,,,,6100d4108e61dace24b7fd6a,61036b483336c5504ee1554f,2021-07-29_20h01.07.277,Simcolourproject_2stim_asymm_v5,2020.2.10,MacIntel,60,61025ae37ef11b136ea224fe,,,,,,,,,3691,73.5,37.5,1,0,0,response1disk,,6,9.5,4.5,1,0,0,rectangle,9.5,4.5,1,0,0,9.5,4.5,1,0,0,1,29,189,107,1,,,,,,,,
,,,,,,,,,,,,,FF,,,,,,,,0.866,,,,,,,,,,,,,,,,,,,,,,6100d4108e61dace24b7fd6a,61036b483336c5504ee1554f,2021-07-29_20h01.07.277,Simcolourproject_2stim_asymm_v5,2020.2.10,MacIntel,60,61025ae37ef11b136ea224fe,,,,,,,,,4251,-35.5,61.5,1,0,0,response7disk,,0,6.5,-0.5,1,0,0,rectangle,6.5,-0.5,1,0,0,6.5,-0.5,1,0,0,1,30,190,144,1,,,,,,,,
,,,,,,,,,,,,,FF,,,,,,,,0.716,,,,,,,,,,,,,,,,,,,,,,6100d4108e61dace24b7fd6a,61036b483336c5504ee1554f,2021-07-29_20h01.07.277,Simcolourproject_2stim_asymm_v5,2020.2.10,MacIntel,60,61025ae37ef11b136ea224fe,,,,,,,,,496,-41.5,-59.5,1,0,0,response5disk,,3,-9.5,-4.5,1,0,0,rectangle,-9.5,-4.5,1,0,0,-9.5,-4.5,1,0,0,1,31,191,34,1,,,,,,,,
,,,,,,,,,,,,,FF,,,,,,,,0.783,,,,,,,,,,,,,,,,,,,,,,6100d4108e61dace24b7fd6a,61036b483336c5504ee1554f,2021-07-29_20h01.07.277,Simcolourproject_2stim_asymm_v5,2020.2.10,MacIntel,60,61025ae37ef11b136ea224fe,,,,,,,,,948,57.5,-38.5,1,0,0,response3disk,,5,15.5,-11.5,1,0,0,rectangle,15.5,-11.5,1,0,0,15.5,-11.5,1,0,0,1,32,192,146,1,,,,,,,,
,,,,,,,,,,,,,FF,,,,,,,,1.016,,,,,,,,,,,,,,,,,,,,,,6100d4108e61dace24b7fd6a,61036b483336c5504ee1554f,2021-07-29_20h01.07.277,Simcolourproject_2stim_asymm_v5,2020.2.10,MacIntel,60,61025ae37ef11b136ea224fe,,,,,,,,,1989,66.5,31.5,1,0,0,response1disk,,6,26.5,2.5,1,0,0,rectangle,26.5,2.5,1,0,0,26.5,2.5,1,0,0,1,33,193,11,1,,,,,,,,
,,,,,,,,,,,,,FF,,,,,,,,0.767,,,,,,,,,,,,,,,,,,,,,,6100d4108e61dace24b7fd6a,61036b483336c5504ee1554f,2021-07-29_20h01.07.277,Simcolourproject_2stim_asymm_v5,2020.2.10,MacIntel,60,61025ae37ef11b136ea224fe,,,,,,,,,1169,71.5,36.5,1,0,0,response1disk,,6,18.5,2.5,1,0,0,rectangle,18.5,2.5,1,0,0,18.5,2.5,1,0,0,1,34,194,60,1,,,,,,,,
,,,,,,,,,,,,,FF,,,,,,,,1.05,,,,,,,,,,,,,,,,,,,,,,6100d4108e61dace24b7fd6a,61036b483336c5504ee1554f,2021-07-29_20h01.07.277,Simcolourproject_2stim_asymm_v5,2020.2.10,MacIntel,60,61025ae37ef11b136ea224fe,,,,,,,,,1194,-34.5,-54.5,1,0,0,response5disk,,3,2.5,-4.5,1,0,0,rectangle,2.5,-4.5,1,0,0,2.5,-4.5,1,0,0,1,35,195,33,1,,,,,,,,
,,,,,,,,,,,,,FF,,,,,,,,1.5,,,,,,,,,,,,,,,,,,,,,,6100d4108e61dace24b7fd6a,61036b483336c5504ee1554f,2021-07-29_20h01.07.277,Simcolourproject_2stim_asymm_v5,2020.2.10,MacIntel,60,61025ae37ef11b136ea224fe,,,,,,,,,3517,23.5,-70.5,1,0,0,response3disk,,4,-1.5,0.5,1,0,0,rectangle,-1.5,0.5,1,0,0,-1.5,0.5,1,0,0,1,36,196,128,1,,,,,,,,
,,,,,,,,,,,,,FF,,,,,,,,3.5,,,,,,,,,,,,,,,,,,,,,,6100d4108e61dace24b7fd6a,61036b483336c5504ee1554f,2021-07-29_20h01.07.277,Simcolourproject_2stim_asymm_v5,2020.2.10,MacIntel,60,61025ae37ef11b136ea224fe,,,,,,,,,2216,-66.5,-38.5,1,0,0,response5disk,,2,-2.5,1.5,1,0,0,rectangle,-2.5,1.5,1,0,0,-2.5,1.5,1,0,0,1,37,197,137,1,,,,,,,,
,,,,,,,,,,,,,FF,,,,,,,,7,,,,,,,,,,,,,,,,,,,,,,6100d4108e61dace24b7fd6a,61036b483336c5504ee1554f,2021-07-29_20h01.07.277,Simcolourproject_2stim_asymm_v5,2020.2.10,MacIntel,60,61025ae37ef11b136ea224fe,,,,,,,,,4242,-69.5,-47.5,1,0,0,response5disk,,2,0.5,8.5,1,0,0,rectangle,0.5,8.5,1,0,0,0.5,8.5,1,0,0,1,38,198,159,1,,,,,,,,
,,,,,,,,,,,,,FF,,,,,,,,1.45,,,,,,,,,,,,,,,,,,,,,,6100d4108e61dace24b7fd6a,61036b483336c5504ee1554f,2021-07-29_20h01.07.277,Simcolourproject_2stim_asymm_v5,2020.2.10,MacIntel,60,61025ae37ef11b136ea224fe,,,,,,,,,539,75.5,-35.5,1,0,0,response3disk,,5,-5.5,6.5,1,0,0,rectangle,-5.5,6.5,1,0,0,-5.5,6.5,1,0,0,1,39,199,129,1,,,,,,,,
,,,,,,,,,,,,,FF,,,,,,,,0.966,,,,,,,,,,,,,,,,,,,,,,6100d4108e61dace24b7fd6a,61036b483336c5504ee1554f,2021-07-29_20h01.07.277,Simcolourproject_2stim_asymm_v5,2020.2.10,MacIntel,60,61025ae37ef11b136ea224fe,,,,,,,,,3882,-41.5,-65.5,1,0,0,response5disk,,3,8.5,0.5,1,0,0,rectangle,8.5,0.5,1,0,0,8.5,0.5,1,0,0,1,40,200,148,1,,,,,,,,
,,,,,,,,,,,,,FF,,,,,,,,0.85,,,,,,,,,,,,,,,,,,,,,,6100d4108e61dace24b7fd6a,61036b483336c5504ee1554f,2021-07-29_20h01.07.277,Simcolourproject_2stim_asymm_v5,2020.2.10,MacIntel,60,61025ae37ef11b136ea224fe,,,,,,,,,1428,26.5,-55.5,1,0,0,response3disk,,4,8.5,4.5,1,0,0,rectangle,8.5,4.5,1,0,0,8.5,4.5,1,0,0,1,41,201,130,1,,,,,,,,
,,,,,,,,,,,,,FF,,,,,,,,1.067,,,,,,,,,,,,,,,,,,,,,,6100d4108e61dace24b7fd6a,61036b483336c5504ee1554f,2021-07-29_20h01.07.277,Simcolourproject_2stim_asymm_v5,2020.2.10,MacIntel,60,61025ae37ef11b136ea224fe,,,,,,,,,1903,-57.5,-24.5,1,0,0,response5disk,,2,3.5,6.5,1,0,0,rectangle,3.5,6.5,1,0,0,3.5,6.5,1,0,0,1,42,202,7,1,,,,,,,,
,,,,,,,,,,,,,FF,,,,,,,,1.317,,,,,,,,,,,,,,,,,,,,,,6100d4108e61dace24b7fd6a,61036b483336c5504ee1554f,2021-07-29_20h01.07.277,Simcolourproject_2stim_asymm_v5,2020.2.10,MacIntel,60,61025ae37ef11b136ea224fe,,,,,,,,,871,-52.5,-25.5,1,0,0,response5disk,,2,5.5,-6.5,1,0,0,rectangle,5.5,-6.5,1,0,0,5.5,-6.5,1,0,0,1,43,203,93,1,,,,,,,,
,,,,,,,,,,,,,FF,,,,,,,,0.967,,,,,,,,,,,,,,,,,,,,,,6100d4108e61dace24b7fd6a,61036b483336c5504ee1554f,2021-07-29_20h01.07.277,Simcolourproject_2stim_asymm_v5,2020.2.10,MacIntel,60,61025ae37ef11b136ea224fe,,,,,,,,,1664,-20.5,-48.5,1,0,0,response5disk,,3,4.5,-4.5,1,0,0,rectangle,4.5,-4.5,1,0,0,4.5,-4.5,1,0,0,1,44,204,49,1,,,,,,,,
,,,,,,,,,,,,,FF,,,,,,,,1.434,,,,,,,,,,,,,,,,,,,,,,6100d4108e61dace24b7fd6a,61036b483336c5504ee1554f,2021-07-29_20h01.07.277,Simcolourproject_2stim_asymm_v5,2020.2.10,MacIntel,60,61025ae37ef11b136ea224fe,,,,,,,,,1032,59.5,-23.5,1,0,0,response3disk,,5,4.5,-1.5,1,0,0,rectangle,4.5,-1.5,1,0,0,4.5,-1.5,1,0,0,1,45,205,101,1,,,,,,,,
,,,,,,,,,,,,,FF,,,,,,,,11.166,,,,,,,,,,,,,,,,,,,,,,6100d4108e61dace24b7fd6a,61036b483336c5504ee1554f,2021-07-29_20h01.07.277,Simcolourproject_2stim_asymm_v5,2020.2.10,MacIntel,60,61025ae37ef11b136ea224fe,,,,,,,,,3502,-37.5,-57.5,1,0,0,response5disk,,3,7.5,-0.5,1,0,0,rectangle,7.5,-0.5,1,0,0,7.5,-0.5,1,0,0,1,46,206,67,1,,,,,,,,
,,,,,,,,,,,,,FF,,,,,,,,1.633,,,,,,,,,,,,,,,,,,,,,,6100d4108e61dace24b7fd6a,61036b483336c5504ee1554f,2021-07-29_20h01.07.277,Simcolourproject_2stim_asymm_v5,2020.2.10,MacIntel,60,61025ae37ef11b136ea224fe,,,,,,,,,3199,-67.5,-38.5,1,0,0,response5disk,,2,8.5,-6.5,1,0,0,rectangle,8.5,-6.5,1,0,0,8.5,-6.5,1,0,0,1,47,207,132,1,,,,,,,,
,,,,,,,,,,,,,FF,,,,,,,,1.617,,,,,,,,,,,,,,,,,,,,,,6100d4108e61dace24b7fd6a,61036b483336c5504ee1554f,2021-07-29_20h01.07.277,Simcolourproject_2stim_asymm_v5,2020.2.10,MacIntel,60,61025ae37ef11b136ea224fe,,,,,,,,,4358,26.5,65.5,1,0,0,response1disk,,7,2.5,5.5,1,0,0,rectangle,2.5,5.5,1,0,0,2.5,5.5,1,0,0,1,48,208,122,1,,,,,,,,
,,,,,,,,,,,,,FF,,,,,,,,0.868,,,,,,,,,,,,,,,,,,,,,,6100d4108e61dace24b7fd6a,61036b483336c5504ee1554f,2021-07-29_20h01.07.277,Simcolourproject_2stim_asymm_v5,2020.2.10,MacIntel,60,61025ae37ef11b136ea224fe,,,,,,,,,3913,-64.5,27.5,1,0,0,response7disk,,1,-5.5,-1.5,1,0,0,rectangle,-5.5,-1.5,1,0,0,-5.5,-1.5,1,0,0,1,49,209,147,1,,,,,,,,
,,,,,,,,,,,,,FF,,,,,,,,7.317,,,,,,,,,,,,,,,,,,,,,,6100d4108e61dace24b7fd6a,61036b483336c5504ee1554f,2021-07-29_20h01.07.277,Simcolourproject_2stim_asymm_v5,2020.2.10,MacIntel,60,61025ae37ef11b136ea224fe,,,,,,,,,1434,-18.5,-48.5,1,0,0,response5disk,,3,15.5,1.5,1,0,0,rectangle,48.5,77.5,1,0,0,-3.5,-0.5,1,0,0,1,50,210,127,1,,response1disk_3,TRUE,7,7,"[272,297,280,114,211,100,110,170,255,311,105,259,296,65,168,142,272,254,16,42]",2.715,rectangle
,,,,,,,,,,,,,FF,,,,,,,,1.601,,,,,,,,,,,,,,,,,,,,,,6100d4108e61dace24b7fd6a,61036b483336c5504ee1554f,2021-07-29_20h01.07.277,Simcolourproject_2stim_asymm_v5,2020.2.10,MacIntel,60,61025ae37ef11b136ea224fe,,,,,,,,,625,50.5,68.5,1,0,0,response1disk,,7,9.5,3.5,1,0,0,rectangle,9.5,3.5,1,0,0,9.5,3.5,1,0,0,1,51,211,140,1,,,,,,,,
,,,,,,,,,,,,,FF,,,,,,,,1.25,,,,,,,,,,,,,,,,,,,,,,6100d4108e61dace24b7fd6a,61036b483336c5504ee1554f,2021-07-29_20h01.07.277,Simcolourproject_2stim_asymm_v5,2020.2.10,MacIntel,60,61025ae37ef11b136ea224fe,,,,,,,,,2059,-42.5,-65.5,1,0,0,response5disk,,3,1.5,-5.5,1,0,0,rectangle,1.5,-5.5,1,0,0,1.5,-5.5,1,0,0,1,52,212,110,1,,,,,,,,
,,,,,,,,,,,,,FF,,,,,,,,1.733,,,,,,,,,,,,,,,,,,,,,,6100d4108e61dace24b7fd6a,61036b483336c5504ee1554f,2021-07-29_20h01.07.277,Simcolourproject_2stim_asymm_v5,2020.2.10,MacIntel,60,61025ae37ef11b136ea224fe,,,,,,,,,3518,-55.5,-33.5,1,0,0,response5disk,,2,17.5,11.5,1,0,0,rectangle,17.5,11.5,1,0,0,17.5,11.5,1,0,0,1,53,213,103,1,,,,,,,,
,,,,,,,,,,,,,FF,,,,,,,,1.284,,,,,,,,,,,,,,,,,,,,,,6100d4108e61dace24b7fd6a,61036b483336c5504ee1554f,2021-07-29_20h01.07.277,Simcolourproject_2stim_asymm_v5,2020.2.10,MacIntel,60,61025ae37ef11b136ea224fe,,,,,,,,,3816,-31.5,-74.5,1,0,0,response5disk,,3,-7.5,-3.5,1,0,0,rectangle,-7.5,-3.5,1,0,0,-7.5,-3.5,1,0,0,1,54,214,106,1,,,,,,,,
,,,,,,,,,,,,,FF,,,,,,,,1.201,,,,,,,,,,,,,,,,,,,,,,6100d4108e61dace24b7fd6a,61036b483336c5504ee1554f,2021-07-29_20h01.07.277,Simcolourproject_2stim_asymm_v5,2020.2.10,MacIntel,60,61025ae37ef11b136ea224fe,,,,,,,,,241,20.5,-40.5,1,0,0,response3disk,,4,9.5,13.5,1,0,0,rectangle,9.5,13.5,1,0,0,9.5,13.5,1,0,0,1,55,215,31,1,,,,,,,,
,,,,,,,,,,,,,FF,,,,,,,,1.051,,,,,,,,,,,,,,,,,,,,,,6100d4108e61dace24b7fd6a,61036b483336c5504ee1554f,2021-07-29_20h01.07.277,Simcolourproject_2stim_asymm_v5,2020.2.10,MacIntel,60,61025ae37ef11b136ea224fe,,,,,,,,,2705,78.5,25.5,1,0,0,response1disk,,6,12.5,-12.5,1,0,0,rectangle,12.5,-12.5,1,0,0,12.5,-12.5,1,0,0,1,56,216,120,1,,,,,,,,
,,,,,,,,,,,,,FF,,,,,,,,0.717,,,,,,,,,,,,,,,,,,,,,,6100d4108e61dace24b7fd6a,61036b483336c5504ee1554f,2021-07-29_20h01.07.277,Simcolourproject_2stim_asymm_v5,2020.2.10,MacIntel,60,61025ae37ef11b136ea224fe,,,,,,,,,26,57.5,30.5,1,0,0,response1disk,,6,6.5,4.5,1,0,0,rectangle,6.5,4.5,1,0,0,6.5,4.5,1,0,0,1,57,217,54,1,,,,,,,,
,,,,,,,,,,,,,FF,,,,,,,,0.933,,,,,,,,,,,,,,,,,,,,,,6100d4108e61dace24b7fd6a,61036b483336c5504ee1554f,2021-07-29_20h01.07.277,Simcolourproject_2stim_asymm_v5,2020.2.10,MacIntel,60,61025ae37ef11b136ea224fe,,,,,,,,,1134,-53.5,-26.5,1,0,0,response5disk,,2,6.5,9.5,1,0,0,rectangle,6.5,9.5,1,0,0,6.5,9.5,1,0,0,1,58,218,3,1,,,,,,,,
,,,,,,,,,,,,,FF,,,,,,,,1.001,,,,,,,,,,,,,,,,,,,,,,6100d4108e61dace24b7fd6a,61036b483336c5504ee1554f,2021-07-29_20h01.07.277,Simcolourproject_2stim_asymm_v5,2020.2.10,MacIntel,60,61025ae37ef11b136ea224fe,,,,,,,,,158,-26.5,-46.5,1,0,0,response5disk,,3,-0.5,-3.5,1,0,0,rectangle,-0.5,-3.5,1,0,0,-0.5,-3.5,1,0,0,1,59,219,15,1,,,,,,,,
,,,,,,,,,,,,,FF,,,,,,,,2.035,,,,,,,,,,,,,,,,,,,,,,6100d4108e61dace24b7fd6a,61036b483336c5504ee1554f,2021-07-29_20h01.07.277,Simcolourproject_2stim_asymm_v5,2020.2.10,MacIntel,60,61025ae37ef11b136ea224fe,,,,,,,,,3271,58.5,-42.5,1,0,0,response3disk,,5,7.5,-3.5,1,0,0,rectangle,7.5,-3.5,1,0,0,7.5,-3.5,1,0,0,1,60,220,134,1,,,,,,,,
,,,,,,,,,,,,,FF,,,,,,,,1.216,,,,,,,,,,,,,,,,,,,,,,6100d4108e61dace24b7fd6a,61036b483336c5504ee1554f,2021-07-29_20h01.07.277,Simcolourproject_2stim_asymm_v5,2020.2.10,MacIntel,60,61025ae37ef11b136ea224fe,,,,,,,,,679,33.5,-60.5,1,0,0,response3disk,,4,8.5,-2.5,1,0,0,rectangle,8.5,-2.5,1,0,0,8.5,-2.5,1,0,0,1,61,221,92,1,,,,,,,,
,,,,,,,,,,,,,FF,,,,,,,,0.867,,,,,,,,,,,,,,,,,,,,,,6100d4108e61dace24b7fd6a,61036b483336c5504ee1554f,2021-07-29_20h01.07.277,Simcolourproject_2stim_asymm_v5,2020.2.10,MacIntel,60,61025ae37ef11b136ea224fe,,,,,,,,,3557,-57.5,-35.5,1,0,0,response5disk,,2,-11.5,-8.5,1,0,0,rectangle,-11.5,-8.5,1,0,0,-11.5,-8.5,1,0,0,1,62,222,83,1,,,,,,,,
,,,,,,,,,,,,,FF,,,,,,,,1.834,,,,,,,,,,,,,,,,,,,,,,6100d4108e61dace24b7fd6a,61036b483336c5504ee1554f,2021-07-29_20h01.07.277,Simcolourproject_2stim_asymm_v5,2020.2.10,MacIntel,60,61025ae37ef11b136ea224fe,,,,,,,,,668,34.5,-70.5,1,0,0,response3disk,,4,10.5,1.5,1,0,0,rectangle,10.5,1.5,1,0,0,10.5,1.5,1,0,0,1,63,223,55,1,,,,,,,,
,,,,,,,,,,,,,FF,,,,,,,,1.217,,,,,,,,,,,,,,,,,,,,,,6100d4108e61dace24b7fd6a,61036b483336c5504ee1554f,2021-07-29_20h01.07.277,Simcolourproject_2stim_asymm_v5,2020.2.10,MacIntel,60,61025ae37ef11b136ea224fe,,,,,,,,,2658,56.5,39.5,1,0,0,response1disk,,6,15.5,12.5,1,0,0,rectangle,15.5,12.5,1,0,0,15.5,12.5,1,0,0,1,64,224,112,1,,,,,,,,
,,,,,,,,,,,,,FF,,,,,,,,1.517,,,,,,,,,,,,,,,,,,,,,,6100d4108e61dace24b7fd6a,61036b483336c5504ee1554f,2021-07-29_20h01.07.277,Simcolourproject_2stim_asymm_v5,2020.2.10,MacIntel,60,61025ae37ef11b136ea224fe,,,,,,,,,1366,64.5,-31.5,1,0,0,response3disk,,5,11.5,7.5,1,0,0,rectangle,11.5,7.5,1,0,0,11.5,7.5,1,0,0,1,65,225,27,1,,,,,,,,
,,,,,,,,,,,,,FF,,,,,,,,2.067,,,,,,,,,,,,,,,,,,,,,,6100d4108e61dace24b7fd6a,61036b483336c5504ee1554f,2021-07-29_20h01.07.277,Simcolourproject_2stim_asymm_v5,2020.2.10,MacIntel,60,61025ae37ef11b136ea224fe,,,,,,,,,250,44.5,-70.5,1,0,0,response3disk,,4,4.5,1.5,1,0,0,rectangle,4.5,1.5,1,0,0,4.5,1.5,1,0,0,1,66,226,40,1,,,,,,,,
,,,,,,,,,,,,,FF,,,,,,,,1.133,,,,,,,,,,,,,,,,,,,,,,6100d4108e61dace24b7fd6a,61036b483336c5504ee1554f,2021-07-29_20h01.07.277,Simcolourproject_2stim_asymm_v5,2020.2.10,MacIntel,60,61025ae37ef11b136ea224fe,,,,,,,,,1674,-48.5,-32.5,1,0,0,response5disk,,2,1.5,5.5,1,0,0,rectangle,1.5,5.5,1,0,0,1.5,5.5,1,0,0,1,67,227,52,1,,,,,,,,
,,,,,,,,,,,,,FF,,,,,,,,1.367,,,,,,,,,,,,,,,,,,,,,,6100d4108e61dace24b7fd6a,61036b483336c5504ee1554f,2021-07-29_20h01.07.277,Simcolourproject_2stim_asymm_v5,2020.2.10,MacIntel,60,61025ae37ef11b136ea224fe,,,,,,,,,3814,-57.5,-24.5,1,0,0,response5disk,,2,-13.5,0.5,1,0,0,rectangle,-13.5,0.5,1,0,0,-13.5,0.5,1,0,0,1,68,228,1,1,,,,,,,,
,,,,,,,,,,,,,FF,,,,,,,,1.451,,,,,,,,,,,,,,,,,,,,,,6100d4108e61dace24b7fd6a,61036b483336c5504ee1554f,2021-07-29_20h01.07.277,Simcolourproject_2stim_asymm_v5,2020.2.10,MacIntel,60,61025ae37ef11b136ea224fe,,,,,,,,,2140,67.5,-18.5,1,0,0,response3disk,,5,12.5,5.5,1,0,0,rectangle,12.5,5.5,1,0,0,12.5,5.5,1,0,0,1,69,229,2,1,,,,,,,,
,,,,,,,,,,,,,FF,,,,,,,,1.983,,,,,,,,,,,,,,,,,,,,,,6100d4108e61dace24b7fd6a,61036b483336c5504ee1554f,2021-07-29_20h01.07.277,Simcolourproject_2stim_asymm_v5,2020.2.10,MacIntel,60,61025ae37ef11b136ea224fe,,,,,,,,,2497,59.5,15.5,1,0,0,response1disk,,6,-0.5,-4.5,1,0,0,rectangle,-0.5,-4.5,1,0,0,-0.5,-4.5,1,0,0,1,70,230,78,1,,,,,,,,
,,,,,,,,,,,,,FF,,,,,,,,0.966,,,,,,,,,,,,,,,,,,,,,,6100d4108e61dace24b7fd6a,61036b483336c5504ee1554f,2021-07-29_20h01.07.277,Simcolourproject_2stim_asymm_v5,2020.2.10,MacIntel,60,61025ae37ef11b136ea224fe,,,,,,,,,149,57.5,29.5,1,0,0,response1disk,,6,-0.5,7.5,1,0,0,rectangle,-0.5,7.5,1,0,0,-0.5,7.5,1,0,0,1,71,231,38,1,,,,,,,,
,,,,,,,,,,,,,FF,,,,,,,,1.384,,,,,,,,,,,,,,,,,,,,,,6100d4108e61dace24b7fd6a,61036b483336c5504ee1554f,2021-07-29_20h01.07.277,Simcolourproject_2stim_asymm_v5,2020.2.10,MacIntel,60,61025ae37ef11b136ea224fe,,,,,,,,,760,71.5,35.5,1,0,0,response1disk,,6,19.5,5.5,1,0,0,rectangle,19.5,5.5,1,0,0,19.5,5.5,1,0,0,1,72,232,73,1,,,,,,,,
,,,,,,,,,,,,,FF,,,,,,,,2.483,,,,,,,,,,,,,,,,,,,,,,6100d4108e61dace24b7fd6a,61036b483336c5504ee1554f,2021-07-29_20h01.07.277,Simcolourproject_2stim_asymm_v5,2020.2.10,MacIntel,60,61025ae37ef11b136ea224fe,,,,,,,,,2653,-54.5,-26.5,1,0,0,response5disk,,2,-5.5,0.5,1,0,0,rectangle,-5.5,0.5,1,0,0,-5.5,0.5,1,0,0,1,73,233,84,1,,,,,,,,
,,,,,,,,,,,,,FF,,,,,,,,0.884,,,,,,,,,,,,,,,,,,,,,,6100d4108e61dace24b7fd6a,61036b483336c5504ee1554f,2021-07-29_20h01.07.277,Simcolourproject_2stim_asymm_v5,2020.2.10,MacIntel,60,61025ae37ef11b136ea224fe,,,,,,,,,1752,-39.5,26.5,1,0,0,response7disk,,1,-0.5,1.5,1,0,0,rectangle,-0.5,1.5,1,0,0,-0.5,1.5,1,0,0,1,74,234,109,1,,,,,,,,
,,,,,,,,,,,,,FF,,,,,,,,0.784,,,,,,,,,,,,,,,,,,,,,,6100d4108e61dace24b7fd6a,61036b483336c5504ee1554f,2021-07-29_20h01.07.277,Simcolourproject_2stim_asymm_v5,2020.2.10,MacIntel,60,61025ae37ef11b136ea224fe,,,,,,,,,2355,-26.5,61.5,1,0,0,response7disk,,0,1.5,-1.5,1,0,0,rectangle,1.5,-1.5,1,0,0,1.5,-1.5,1,0,0,1,75,235,133,1,,,,,,,,
,,,,,,,,,,,,,FF,,,,,,,,1.55,,,,,,,,,,,,,,,,,,,,,,6100d4108e61dace24b7fd6a,61036b483336c5504ee1554f,2021-07-29_20h01.07.277,Simcolourproject_2stim_asymm_v5,2020.2.10,MacIntel,60,61025ae37ef11b136ea224fe,,,,,,,,,1391,-67.5,-13.5,1,0,0,response5disk,,2,-1.5,13.5,1,0,0,rectangle,-1.5,13.5,1,0,0,-1.5,13.5,1,0,0,1,76,236,21,1,,,,,,,,
,,,,,,,,,,,,,FF,,,,,,,,2.85,,,,,,,,,,,,,,,,,,,,,,6100d4108e61dace24b7fd6a,61036b483336c5504ee1554f,2021-07-29_20h01.07.277,Simcolourproject_2stim_asymm_v5,2020.2.10,MacIntel,60,61025ae37ef11b136ea224fe,,,,,,,,,803,-62.5,15.5,1,0,0,response7disk,,1,-8.5,4.5,1,0,0,rectangle,-8.5,4.5,1,0,0,-8.5,4.5,1,0,0,1,77,237,141,1,,,,,,,,
,,,,,,,,,,,,,FF,,,,,,,,0.883,,,,,,,,,,,,,,,,,,,,,,6100d4108e61dace24b7fd6a,61036b483336c5504ee1554f,2021-07-29_20h01.07.277,Simcolourproject_2stim_asymm_v5,2020.2.10,MacIntel,60,61025ae37ef11b136ea224fe,,,,,,,,,1959,-54.5,-33.5,1,0,0,response5disk,,2,-12.5,-10.5,1,0,0,rectangle,-12.5,-10.5,1,0,0,-12.5,-10.5,1,0,0,1,78,238,115,1,,,,,,,,
,,,,,,,,,,,,,FF,,,,,,,,0.983,,,,,,,,,,,,,,,,,,,,,,6100d4108e61dace24b7fd6a,61036b483336c5504ee1554f,2021-07-29_20h01.07.277,Simcolourproject_2stim_asymm_v5,2020.2.10,MacIntel,60,61025ae37ef11b136ea224fe,,,,,,,,,2622,-22.5,-58.5,1,0,0,response5disk,,3,9.5,-1.5,1,0,0,rectangle,9.5,-1.5,1,0,0,9.5,-1.5,1,0,0,1,79,239,71,1,,,,,,,,
,,,,,,,,,,,,,FF,,,,,,,,1.417,,,,,,,,,,,,,,,,,,,,,,6100d4108e61dace24b7fd6a,61036b483336c5504ee1554f,2021-07-29_20h01.07.277,Simcolourproject_2stim_asymm_v5,2020.2.10,MacIntel,60,61025ae37ef11b136ea224fe,,,,,,,,,2683,37.5,-63.5,1,0,0,response3disk,,4,6.5,10.5,1,0,0,rectangle,6.5,10.5,1,0,0,6.5,10.5,1,0,0,1,80,240,89,1,,,,,,,,
,,,,,,,,,,,,,FF,,,,,,,,0.617,,,,,,,,,,,,,,,,,,,,,,6100d4108e61dace24b7fd6a,61036b483336c5504ee1554f,2021-07-29_20h01.07.277,Simcolourproject_2stim_asymm_v5,2020.2.10,MacIntel,60,61025ae37ef11b136ea224fe,,,,,,,,,3759,58.5,-40.5,1,0,0,response3disk,,5,-4.5,8.5,1,0,0,rectangle,-4.5,8.5,1,0,0,-4.5,8.5,1,0,0,1,81,241,22,1,,,,,,,,
,,,,,,,,,,,,,FF,,,,,,,,0.934,,,,,,,,,,,,,,,,,,,,,,6100d4108e61dace24b7fd6a,61036b483336c5504ee1554f,2021-07-29_20h01.07.277,Simcolourproject_2stim_asymm_v5,2020.2.10,MacIntel,60,61025ae37ef11b136ea224fe,,,,,,,,,3256,33.5,-60.5,1,0,0,response3disk,,4,6.5,2.5,1,0,0,rectangle,6.5,2.5,1,0,0,6.5,2.5,1,0,0,1,82,242,57,1,,,,,,,,
,,,,,,,,,,,,,FF,,,,,,,,1.616,,,,,,,,,,,,,,,,,,,,,,6100d4108e61dace24b7fd6a,61036b483336c5504ee1554f,2021-07-29_20h01.07.277,Simcolourproject_2stim_asymm_v5,2020.2.10,MacIntel,60,61025ae37ef11b136ea224fe,,,,,,,,,2363,-48.5,-24.5,1,0,0,response5disk,,2,-5.5,4.5,1,0,0,rectangle,-5.5,4.5,1,0,0,-5.5,4.5,1,0,0,1,83,243,68,1,,,,,,,,
,,,,,,,,,,,,,FF,,,,,,,,1.666,,,,,,,,,,,,,,,,,,,,,,6100d4108e61dace24b7fd6a,61036b483336c5504ee1554f,2021-07-29_20h01.07.277,Simcolourproject_2stim_asymm_v5,2020.2.10,MacIntel,60,61025ae37ef11b136ea224fe,,,,,,,,,1569,74.5,26.5,1,0,0,response1disk,,6,11.5,-1.5,1,0,0,rectangle,11.5,-1.5,1,0,0,11.5,-1.5,1,0,0,1,84,244,45,1,,,,,,,,
,,,,,,,,,,,,,FF,,,,,,,,13.767,,,,,,,,,,,,,,,,,,,,,,6100d4108e61dace24b7fd6a,61036b483336c5504ee1554f,2021-07-29_20h01.07.277,Simcolourproject_2stim_asymm_v5,2020.2.10,MacIntel,60,61025ae37ef11b136ea224fe,,,,,,,,,3632,40.5,-67.5,1,0,0,response3disk,,4,9.5,12.5,1,0,0,rectangle,9.5,12.5,1,0,0,9.5,12.5,1,0,0,1,85,245,138,1,,,,,,,,
,,,,,,,,,,,,,FF,,,,,,,,0.901,,,,,,,,,,,,,,,,,,,,,,6100d4108e61dace24b7fd6a,61036b483336c5504ee1554f,2021-07-29_20h01.07.277,Simcolourproject_2stim_asymm_v5,2020.2.10,MacIntel,60,61025ae37ef11b136ea224fe,,,,,,,,,292,-43.5,-69.5,1,0,0,response5disk,,3,-7.5,4.5,1,0,0,rectangle,-7.5,4.5,1,0,0,-7.5,4.5,1,0,0,1,86,246,51,1,,,,,,,,
,,,,,,,,,,,,,FF,,,,,,,,0.834,,,,,,,,,,,,,,,,,,,,,,6100d4108e61dace24b7fd6a,61036b483336c5504ee1554f,2021-07-29_20h01.07.277,Simcolourproject_2stim_asymm_v5,2020.2.10,MacIntel,60,61025ae37ef11b136ea224fe,,,,,,,,,4322,70.5,-18.5,1,0,0,response3disk,,5,-1.5,-0.5,1,0,0,rectangle,-1.5,-0.5,1,0,0,-1.5,-0.5,1,0,0,1,87,247,19,1,,,,,,,,
,,,,,,,,,,,,,FF,,,,,,,,1.1,,,,,,,,,,,,,,,,,,,,,,6100d4108e61dace24b7fd6a,61036b483336c5504ee1554f,2021-07-29_20h01.07.277,Simcolourproject_2stim_asymm_v5,2020.2.10,MacIntel,60,61025ae37ef11b136ea224fe,,,,,,,,,588,70.5,-20.5,1,0,0,response3disk,,5,3.5,-0.5,1,0,0,rectangle,3.5,-0.5,1,0,0,3.5,-0.5,1,0,0,1,88,248,94,1,,,,,,,,
,,,,,,,,,,,,,FF,,,,,,,,1.1,,,,,,,,,,,,,,,,,,,,,,6100d4108e61dace24b7fd6a,61036b483336c5504ee1554f,2021-07-29_20h01.07.277,Simcolourproject_2stim_asymm_v5,2020.2.10,MacIntel,60,61025ae37ef11b136ea224fe,,,,,,,,,2438,38.5,-55.5,1,0,0,response3disk,,4,5.5,-2.5,1,0,0,rectangle,5.5,-2.5,1,0,0,5.5,-2.5,1,0,0,1,89,249,20,1,,,,,,,,
,,,,,,,,,,,,,FF,,,,,,,,0.8,,,,,,,,,,,,,,,,,,,,,,6100d4108e61dace24b7fd6a,61036b483336c5504ee1554f,2021-07-29_20h01.07.277,Simcolourproject_2stim_asymm_v5,2020.2.10,MacIntel,60,61025ae37ef11b136ea224fe,,,,,,,,,2185,64.5,40.5,1,0,0,response1disk,,6,13.5,0.5,1,0,0,rectangle,13.5,0.5,1,0,0,13.5,0.5,1,0,0,1,90,250,59,1,,,,,,,,
,,,,,,,,,,,,,FF,,,,,,,,1.085,,,,,,,,,,,,,,,,,,,,,,6100d4108e61dace24b7fd6a,61036b483336c5504ee1554f,2021-07-29_20h01.07.277,Simcolourproject_2stim_asymm_v5,2020.2.10,MacIntel,60,61025ae37ef11b136ea224fe,,,,,,,,,2079,-49.5,-27.5,1,0,0,response5disk,,2,5.5,11.5,1,0,0,rectangle,5.5,11.5,1,0,0,5.5,11.5,1,0,0,1,91,251,12,1,,,,,,,,
,,,,,,,,,,,,,FF,,,,,,,,0.933,,,,,,,,,,,,,,,,,,,,,,6100d4108e61dace24b7fd6a,61036b483336c5504ee1554f,2021-07-29_20h01.07.277,Simcolourproject_2stim_asymm_v5,2020.2.10,MacIntel,60,61025ae37ef11b136ea224fe,,,,,,,,,828,-45.5,-22.5,1,0,0,response5disk,,2,0.5,12.5,1,0,0,rectangle,0.5,12.5,1,0,0,0.5,12.5,1,0,0,1,92,252,118,1,,,,,,,,
,,,,,,,,,,,,,FF,,,,,,,,1.049,,,,,,,,,,,,,,,,,,,,,,6100d4108e61dace24b7fd6a,61036b483336c5504ee1554f,2021-07-29_20h01.07.277,Simcolourproject_2stim_asymm_v5,2020.2.10,MacIntel,60,61025ae37ef11b136ea224fe,,,,,,,,,165,-60.5,30.5,1,0,0,response7disk,,1,-11.5,3.5,1,0,0,rectangle,-24.5,52.5,1,0,0,3.5,1.5,1,0,0,1,93,253,114,1,,response7disk_3,TRUE,0,0,"[272,297,280,114,211,100,110,170,255,311,105,259,296,65,168,142,272,254,16,42]",1.682,rectangle
,,,,,,,,,,,,,FF,,,,,,,,1.35,,,,,,,,,,,,,,,,,,,,,,6100d4108e61dace24b7fd6a,61036b483336c5504ee1554f,2021-07-29_20h01.07.277,Simcolourproject_2stim_asymm_v5,2020.2.10,MacIntel,60,61025ae37ef11b136ea224fe,,,,,,,,,104,54.5,-28.5,1,0,0,response3disk,,5,1.5,-4.5,1,0,0,rectangle,29.5,76.5,1,0,0,-4.5,0.5,1,0,0,1,94,254,96,1,,response1disk_3,TRUE,7,7,"[272,297,280,114,211,100,110,170,255,311,105,259,296,65,168,142,272,254,16,42]",1.75,rectangle
,,,,,,,,,,,,,FF,,,,,,,,1.083,,,,,,,,,,,,,,,,,,,,,,6100d4108e61dace24b7fd6a,61036b483336c5504ee1554f,2021-07-29_20h01.07.277,Simcolourproject_2stim_asymm_v5,2020.2.10,MacIntel,60,61025ae37ef11b136ea224fe,,,,,,,,,327,-28.5,-47.5,1,0,0,response5disk,,3,-3.5,3.5,1,0,0,rectangle,-3.5,3.5,1,0,0,-3.5,3.5,1,0,0,1,95,255,43,1,,,,,,,,
,,,,,,,,,,,,,FF,,,,,,,,1.483,,,,,,,,,,,,,,,,,,,,,,6100d4108e61dace24b7fd6a,61036b483336c5504ee1554f,2021-07-29_20h01.07.277,Simcolourproject_2stim_asymm_v5,2020.2.10,MacIntel,60,61025ae37ef11b136ea224fe,,,,,,,,,3962,63.5,-31.5,1,0,0,response3disk,,5,10.5,-0.5,1,0,0,rectangle,10.5,-0.5,1,0,0,10.5,-0.5,1,0,0,1,96,256,151,1,,,,,,,,
,,,,,,,,,,,,,FF,,,,,,,,3.868,,,,,,,,,,,,,,,,,,,,,,6100d4108e61dace24b7fd6a,61036b483336c5504ee1554f,2021-07-29_20h01.07.277,Simcolourproject_2stim_asymm_v5,2020.2.10,MacIntel,60,61025ae37ef11b136ea224fe,,,,,,,,,1927,57.5,22.5,1,0,0,response1disk,,6,12.5,-1.5,1,0,0,rectangle,12.5,-1.5,1,0,0,12.5,-1.5,1,0,0,1,97,257,76,1,,,,,,,,
,,,,,,,,,,,,,FF,,,,,,,,1.034,,,,,,,,,,,,,,,,,,,,,,6100d4108e61dace24b7fd6a,61036b483336c5504ee1554f,2021-07-29_20h01.07.277,Simcolourproject_2stim_asymm_v5,2020.2.10,MacIntel,60,61025ae37ef11b136ea224fe,,,,,,,,,1917,-22.5,-49.5,1,0,0,response5disk,,3,2.5,-0.5,1,0,0,rectangle,-32.5,-65.5,1,0,0,-4.5,-5.5,1,0,0,1,98,258,154,1,,response5disk_3,TRUE,3,3,"[272,297,280,114,211,100,110,170,255,311,105,259,296,65,168,142,272,254,16,42]",4.899,rectangle
,,,,,,,,,,,,,FF,,,,,,,,2.05,,,,,,,,,,,,,,,,,,,,,,6100d4108e61dace24b7fd6a,61036b483336c5504ee1554f,2021-07-29_20h01.07.277,Simcolourproject_2stim_asymm_v5,2020.2.10,MacIntel,60,61025ae37ef11b136ea224fe,,,,,,,,,687,70.5,43.5,1,0,0,response1disk,,6,15.5,-1.5,1,0,0,rectangle,15.5,-1.5,1,0,0,15.5,-1.5,1,0,0,1,99,259,153,1,,,,,,,,
,,,,,,,,,,,,,FF,,,,,,,,1.367,,,,,,,,,,,,,,,,,,,,,,6100d4108e61dace24b7fd6a,61036b483336c5504ee1554f,2021-07-29_20h01.07.277,Simcolourproject_2stim_asymm_v5,2020.2.10,MacIntel,60,61025ae37ef11b136ea224fe,,,,,,,,,3908,-67.5,-32.5,1,0,0,response5disk,,2,2.5,9.5,1,0,0,rectangle,2.5,9.5,1,0,0,2.5,9.5,1,0,0,1,100,260,80,1,,,,,,,,
,,,,,,,,,,,,,FF,,,,,,,,1.083,,,,,,,,,,,,,,,,,,,,,,6100d4108e61dace24b7fd6a,61036b483336c5504ee1554f,2021-07-29_20h01.07.277,Simcolourproject_2stim_asymm_v5,2020.2.10,MacIntel,60,61025ae37ef11b136ea224fe,,,,,,,,,4339,-60.5,-43.5,1,0,0,response5disk,,2,-6.5,-3.5,1,0,0,rectangle,-6.5,-3.5,1,0,0,-6.5,-3.5,1,0,0,1,101,261,157,1,,,,,,,,
,,,,,,,,,,,,,FF,,,,,,,,0.651,,,,,,,,,,,,,,,,,,,,,,6100d4108e61dace24b7fd6a,61036b483336c5504ee1554f,2021-07-29_20h01.07.277,Simcolourproject_2stim_asymm_v5,2020.2.10,MacIntel,60,61025ae37ef11b136ea224fe,,,,,,,,,1826,-59.5,-31.5,1,0,0,response5disk,,2,6.5,6.5,1,0,0,rectangle,6.5,6.5,1,0,0,6.5,6.5,1,0,0,1,102,262,121,1,,,,,,,,
,,,,,,,,,,,,,FF,,,,,,,,0.852,,,,,,,,,,,,,,,,,,,,,,6100d4108e61dace24b7fd6a,61036b483336c5504ee1554f,2021-07-29_20h01.07.277,Simcolourproject_2stim_asymm_v5,2020.2.10,MacIntel,60,61025ae37ef11b136ea224fe,,,,,,,,,2148,53.5,-26.5,1,0,0,response3disk,,5,2.5,-4.5,1,0,0,rectangle,2.5,-4.5,1,0,0,2.5,-4.5,1,0,0,1,103,263,108,1,,,,,,,,
,,,,,,,,,,,,,FF,,,,,,,,0.9,,,,,,,,,,,,,,,,,,,,,,6100d4108e61dace24b7fd6a,61036b483336c5504ee1554f,2021-07-29_20h01.07.277,Simcolourproject_2stim_asymm_v5,2020.2.10,MacIntel,60,61025ae37ef11b136ea224fe,,,,,,,,,3636,-29.5,-59.5,1,0,0,response5disk,,3,1.5,-1.5,1,0,0,rectangle,1.5,-1.5,1,0,0,1.5,-1.5,1,0,0,1,104,264,116,1,,,,,,,,
,,,,,,,,,,,,,FF,,,,,,,,0.932,,,,,,,,,,,,,,,,,,,,,,6100d4108e61dace24b7fd6a,61036b483336c5504ee1554f,2021-07-29_20h01.07.277,Simcolourproject_2stim_asymm_v5,2020.2.10,MacIntel,60,61025ae37ef11b136ea224fe,,,,,,,,,2541,-31.5,61.5,1,0,0,response7disk,,0,4.5,-2.5,1,0,0,rectangle,4.5,-2.5,1,0,0,4.5,-2.5,1,0,0,1,105,265,125,1,,,,,,,,
,,,,,,,,,,,,,FF,,,,,,,,1.067,,,,,,,,,,,,,,,,,,,,,,6100d4108e61dace24b7fd6a,61036b483336c5504ee1554f,2021-07-29_20h01.07.277,Simcolourproject_2stim_asymm_v5,2020.2.10,MacIntel,60,61025ae37ef11b136ea224fe,,,,,,,,,4,-43.5,-16.5,1,0,0,response5disk,,2,-2.5,1.5,1,0,0,rectangle,-2.5,1.5,1,0,0,-2.5,1.5,1,0,0,1,106,266,53,1,,,,,,,,
,,,,,,,,,,,,,FF,,,,,,,,3.284,,,,,,,,,,,,,,,,,,,,,,6100d4108e61dace24b7fd6a,61036b483336c5504ee1554f,2021-07-29_20h01.07.277,Simcolourproject_2stim_asymm_v5,2020.2.10,MacIntel,60,61025ae37ef11b136ea224fe,,,,,,,,,2657,24.5,-46.5,1,0,0,response3disk,,4,7.5,-7.5,1,0,0,rectangle,7.5,-7.5,1,0,0,7.5,-7.5,1,0,0,1,107,267,10,1,,,,,,,,
,,,,,,,,,,,,,FF,,,,,,,,1.15,,,,,,,,,,,,,,,,,,,,,,6100d4108e61dace24b7fd6a,61036b483336c5504ee1554f,2021-07-29_20h01.07.277,Simcolourproject_2stim_asymm_v5,2020.2.10,MacIntel,60,61025ae37ef11b136ea224fe,,,,,,,,,532,-60.5,17.5,1,0,0,response7disk,,1,12.5,-5.5,1,0,0,rectangle,12.5,-5.5,1,0,0,12.5,-5.5,1,0,0,1,108,268,86,1,,,,,,,,
,,,,,,,,,,,,,FF,,,,,,,,1.4,,,,,,,,,,,,,,,,,,,,,,6100d4108e61dace24b7fd6a,61036b483336c5504ee1554f,2021-07-29_20h01.07.277,Simcolourproject_2stim_asymm_v5,2020.2.10,MacIntel,60,61025ae37ef11b136ea224fe,,,,,,,,,335,26.5,-58.5,1,0,0,response3disk,,4,-1.5,-1.5,1,0,0,rectangle,-1.5,-1.5,1,0,0,-1.5,-1.5,1,0,0,1,109,269,102,1,,,,,,,,
,,,,,,,,,,,,,FF,,,,,,,,2.334,,,,,,,,,,,,,,,,,,,,,,6100d4108e61dace24b7fd6a,61036b483336c5504ee1554f,2021-07-29_20h01.07.277,Simcolourproject_2stim_asymm_v5,2020.2.10,MacIntel,60,61025ae37ef11b136ea224fe,,,,,,,,,1954,48.5,-21.5,1,0,0,response3disk,,5,0.5,9.5,1,0,0,rectangle,0.5,9.5,1,0,0,0.5,9.5,1,0,0,1,110,270,85,1,,,,,,,,
,,,,,,,,,,,,,FF,,,,,,,,1.617,,,,,,,,,,,,,,,,,,,,,,6100d4108e61dace24b7fd6a,61036b483336c5504ee1554f,2021-07-29_20h01.07.277,Simcolourproject_2stim_asymm_v5,2020.2.10,MacIntel,60,61025ae37ef11b136ea224fe,,,,,,,,,3912,-58.5,-29.5,1,0,0,response5disk,,2,-11.5,2.5,1,0,0,rectangle,75.5,-29.5,1,0,0,11.5,5.5,1,0,0,1,111,271,50,1,,response3disk_3,TRUE,5,5,"[272,297,280,114,211,100,110,170,255,311,105,259,296,65,168,142,272,254,16,42]",11.651,rectangle
,,,,,,,,,,,,,FF,,,,,,,,0.983,,,,,,,,,,,,,,,,,,,,,,6100d4108e61dace24b7fd6a,61036b483336c5504ee1554f,2021-07-29_20h01.07.277,Simcolourproject_2stim_asymm_v5,2020.2.10,MacIntel,60,61025ae37ef11b136ea224fe,,,,,,,,,3875,-27.5,69.5,1,0,0,response7disk,,0,0.5,-0.5,1,0,0,rectangle,0.5,-0.5,1,0,0,0.5,-0.5,1,0,0,1,112,272,61,1,,,,,,,,
,,,,,,,,,,,,,FF,,,,,,,,2.166,,,,,,,,,,,,,,,,,,,,,,6100d4108e61dace24b7fd6a,61036b483336c5504ee1554f,2021-07-29_20h01.07.277,Simcolourproject_2stim_asymm_v5,2020.2.10,MacIntel,60,61025ae37ef11b136ea224fe,,,,,,,,,347,-26.5,-50.5,1,0,0,response5disk,,3,6.5,-2.5,1,0,0,rectangle,6.5,-2.5,1,0,0,6.5,-2.5,1,0,0,1,113,273,13,1,,,,,,,,
,,,,,,,,,,,,,FF,,,,,,,,1.199,,,,,,,,,,,,,,,,,,,,,,6100d4108e61dace24b7fd6a,61036b483336c5504ee1554f,2021-07-29_20h01.07.277,Simcolourproject_2stim_asymm_v5,2020.2.10,MacIntel,60,61025ae37ef11b136ea224fe,,,,,,,,,3732,77.5,27.5,1,0,0,response1disk,,6,16.5,2.5,1,0,0,rectangle,16.5,2.5,1,0,0,16.5,2.5,1,0,0,1,114,274,113,1,,,,,,,,
,,,,,,,,,,,,,FF,,,,,,,,4.5,,,,,,,,,,,,,,,,,,,,,,6100d4108e61dace24b7fd6a,61036b483336c5504ee1554f,2021-07-29_20h01.07.277,Simcolourproject_2stim_asymm_v5,2020.2.10,MacIntel,60,61025ae37ef11b136ea224fe,,,,,,,,,51,59.5,-30.5,1,0,0,response3disk,,5,8.5,5.5,1,0,0,rectangle,8.5,5.5,1,0,0,8.5,5.5,1,0,0,1,115,275,105,1,,,,,,,,
,,,,,,,,,,,,,FF,,,,,,,,1.2,,,,,,,,,,,,,,,,,,,,,,6100d4108e61dace24b7fd6a,61036b483336c5504ee1554f,2021-07-29_20h01.07.277,Simcolourproject_2stim_asymm_v5,2020.2.10,MacIntel,60,61025ae37ef11b136ea224fe,,,,,,,,,4043,-28.5,-53.5,1,0,0,response5disk,,3,0.5,-0.5,1,0,0,rectangle,0.5,-0.5,1,0,0,0.5,-0.5,1,0,0,1,116,276,5,1,,,,,,,,
,,,,,,,,,,,,,FF,,,,,,,,2.716,,,,,,,,,,,,,,,,,,,,,,6100d4108e61dace24b7fd6a,61036b483336c5504ee1554f,2021-07-29_20h01.07.277,Simcolourproject_2stim_asymm_v5,2020.2.10,MacIntel,60,61025ae37ef11b136ea224fe,,,,,,,,,3736,19.5,62.5,1,0,0,response1disk,,7,6.5,6.5,1,0,0,rectangle,6.5,6.5,1,0,0,6.5,6.5,1,0,0,1,117,277,6,1,,,,,,,,
,,,,,,,,,,,,,FF,,,,,,,,0.916,,,,,,,,,,,,,,,,,,,,,,6100d4108e61dace24b7fd6a,61036b483336c5504ee1554f,2021-07-29_20h01.07.277,Simcolourproject_2stim_asymm_v5,2020.2.10,MacIntel,60,61025ae37ef11b136ea224fe,,,,,,,,,4039,-21.5,-44.5,1,0,0,response5disk,,3,-2.5,2.5,1,0,0,rectangle,-2.5,2.5,1,0,0,-2.5,2.5,1,0,0,1,118,278,99,1,,,,,,,,
,,,,,,,,,,,,,FF,,,,,,,,1.467,,,,,,,,,,,,,,,,,,,,,,6100d4108e61dace24b7fd6a,61036b483336c5504ee1554f,2021-07-29_20h01.07.277,Simcolourproject_2stim_asymm_v5,2020.2.10,MacIntel,60,61025ae37ef11b136ea224fe,,,,,,,,,2805,67.5,-25.5,1,0,0,response3disk,,5,12.5,-2.5,1,0,0,rectangle,-69.5,37.5,1,0,0,-9.5,8.5,1,0,0,1,119,279,70,1,,response7disk_3,TRUE,1,1,"[272,297,280,114,211,100,110,170,255,311,105,259,296,65,168,142,272,254,16,42]",1.4,rectangle
,,,,,,,,,,,,,FF,,,,,,,,1.449,,,,,,,,,,,,,,,,,,,,,,6100d4108e61dace24b7fd6a,61036b483336c5504ee1554f,2021-07-29_20h01.07.277,Simcolourproject_2stim_asymm_v5,2020.2.10,MacIntel,60,61025ae37ef11b136ea224fe,,,,,,,,,2085,-28.5,-50.5,1,0,0,response5disk,,3,1.5,-2.5,1,0,0,rectangle,1.5,-2.5,1,0,0,1.5,-2.5,1,0,0,1,120,280,8,1,,,,,,,,
,,,,,,,,,,,,,FF,,,,,,,,1.499,,,,,,,,,,,,,,,,,,,,,,6100d4108e61dace24b7fd6a,61036b483336c5504ee1554f,2021-07-29_20h01.07.277,Simcolourproject_2stim_asymm_v5,2020.2.10,MacIntel,60,61025ae37ef11b136ea224fe,,,,,,,,,291,-32.5,-40.5,1,0,0,response5disk,,3,6.5,8.5,1,0,0,rectangle,6.5,8.5,1,0,0,6.5,8.5,1,0,0,1,121,281,149,1,,,,,,,,
,,,,,,,,,,,,,FF,,,,,,,,1.334,,,,,,,,,,,,,,,,,,,,,,6100d4108e61dace24b7fd6a,61036b483336c5504ee1554f,2021-07-29_20h01.07.277,Simcolourproject_2stim_asymm_v5,2020.2.10,MacIntel,60,61025ae37ef11b136ea224fe,,,,,,,,,2741,53.5,-20.5,1,0,0,response3disk,,5,17.5,-0.5,1,0,0,rectangle,17.5,-0.5,1,0,0,17.5,-0.5,1,0,0,1,122,282,139,1,,,,,,,,
,,,,,,,,,,,,,FF,,,,,,,,0.984,,,,,,,,,,,,,,,,,,,,,,6100d4108e61dace24b7fd6a,61036b483336c5504ee1554f,2021-07-29_20h01.07.277,Simcolourproject_2stim_asymm_v5,2020.2.10,MacIntel,60,61025ae37ef11b136ea224fe,,,,,,,,,1754,-24.5,-47.5,1,0,0,response5disk,,3,5.5,-5.5,1,0,0,rectangle,5.5,-5.5,1,0,0,5.5,-5.5,1,0,0,1,123,283,42,1,,,,,,,,
,,,,,,,,,,,,,FF,,,,,,,,24.567,,,,,,,,,,,,,,,,,,,,,,6100d4108e61dace24b7fd6a,61036b483336c5504ee1554f,2021-07-29_20h01.07.277,Simcolourproject_2stim_asymm_v5,2020.2.10,MacIntel,60,61025ae37ef11b136ea224fe,,,,,,,,,2276,-47.5,-29.5,1,0,0,response5disk,,2,4.5,2.5,1,0,0,rectangle,4.5,2.5,1,0,0,4.5,2.5,1,0,0,1,124,284,98,1,,,,,,,,
,,,,,,,,,,,,,FF,,,,,,,,1.749,,,,,,,,,,,,,,,,,,,,,,6100d4108e61dace24b7fd6a,61036b483336c5504ee1554f,2021-07-29_20h01.07.277,Simcolourproject_2stim_asymm_v5,2020.2.10,MacIntel,60,61025ae37ef11b136ea224fe,,,,,,,,,1256,28.5,-46.5,1,0,0,response3disk,,4,14.5,-9.5,1,0,0,rectangle,14.5,-9.5,1,0,0,14.5,-9.5,1,0,0,1,125,285,35,1,,,,,,,,
,,,,,,,,,,,,,FF,,,,,,,,3.017,,,,,,,,,,,,,,,,,,,,,,6100d4108e61dace24b7fd6a,61036b483336c5504ee1554f,2021-07-29_20h01.07.277,Simcolourproject_2stim_asymm_v5,2020.2.10,MacIntel,60,61025ae37ef11b136ea224fe,,,,,,,,,1108,63.5,-23.5,1,0,0,response3disk,,5,19.5,-3.5,1,0,0,rectangle,19.5,-3.5,1,0,0,19.5,-3.5,1,0,0,1,126,286,44,1,,,,,,,,
