key_resp.keys,key_resp.rt,key_resp_14.keys,key_resp_14.rt,key_resp_15.keys,key_resp_15.rt,key_resp_17.keys,key_resp_17.rt,key_resp_9.keys,key_resp_9.rt,key_resp_10.keys,key_resp_10.rt,practice_comparison,Ecc,mouse_5.x,mouse_5.y,mouse_5.leftButton,mouse_5.midButton,mouse_5.rightButton,mouse_5.clicked_name,pracsimilarity,response_time,mouse_10.x,mouse_10.y,mouse_10.leftButton,mouse_10.midButton,mouse_10.rightButton,mouse_10.clicked_name,mouse_7.x,mouse_7.y,mouse_7.leftButton,mouse_7.midButton,mouse_7.rightButton,mouse_6.x,mouse_6.y,mouse_6.leftButton,mouse_6.midButton,mouse_6.rightButton,duringprac.thisRepN,duringprac.thisTrialN,duringprac.thisN,duringprac.thisIndex,duringprac.ran,participant,session,date,expName,psychopyVersion,OS,frameRate,study_id,mouse_7.clicked_name,catchpracsimilarity,catch_response_time,catchnumberprac,catchtrialorderprac,mouse_6.clicked_name,key_resp_22.keys,key_resp_22.rt,realcomparison,mouse.x,mouse.y,mouse.leftButton,mouse.midButton,mouse.rightButton,mouse.clicked_name,Colour2,similarity,mouse_2.x,mouse_2.y,mouse_2.leftButton,mouse_2.midButton,mouse_2.rightButton,mouse_2.clicked_name,mouse_3.x,mouse_3.y,mouse_3.leftButton,mouse_3.midButton,mouse_3.rightButton,mouse_11.x,mouse_11.y,mouse_11.leftButton,mouse_11.midButton,mouse_11.rightButton,trials_2.thisRepN,trials_2.thisTrialN,trials_2.thisN,trials_2.thisIndex,trials_2.ran,Colour1,mouse_3.clicked_name,catchornah,catchsimilarity,catchnumber,catchtrialorder,catchRT,mouse_11.clicked_name
space,8.2537,space,25.8422,space,31.052,space,18.1072,space,4.9724,space,8.6133,140,FF,50,108,1,0,0,response1disk_5,7,2.2227,-12,-11,1,0,0,rectangle_8,-12,-11,1,0,0,-12,-11,1,0,0,0,0,0,5,1,6100ca9fe498aed972793cd7,61036d2136f49f6fa4568580,2021-07-30_05h09.05.293,Simcolourproject_2stim_asymm_v5,2020.2.10,Win32,60,61025ae37ef11b136ea224fe,,,,,,,,,,,,,,,,,,,,,,,,,,,,,,,,,,,,,,,,,,,,,,
,,,,,,,,,,,,109,FF,34,106,1,0,0,response1disk_5,7,5.9168,9,4,1,0,0,rectangle_8,129,-72,1,0,0,3,2,1,0,0,0,1,1,3,1,6100ca9fe498aed972793cd7,61036d2136f49f6fa4568580,2021-07-30_05h09.05.293,Simcolourproject_2stim_asymm_v5,2020.2.10,Win32,60,61025ae37ef11b136ea224fe,response3disk_7,5,4.066,5,"[2,5]",rectangle_4,,,,,,,,,,,,,,,,,,,,,,,,,,,,,,,,,,,,,,,,
,,,,,,,,,,,,41,FF,-90,-51,1,0,0,response5disk_5,2,5.9966,16,-2,1,0,0,rectangle_8,16,-2,1,0,0,16,-2,1,0,0,0,2,2,0,1,6100ca9fe498aed972793cd7,61036d2136f49f6fa4568580,2021-07-30_05h09.05.293,Simcolourproject_2stim_asymm_v5,2020.2.10,Win32,60,61025ae37ef11b136ea224fe,,,,,,,,,,,,,,,,,,,,,,,,,,,,,,,,,,,,,,,,,,,,,,
,,,,,,,,,,,,152,PF,48,-114,1,0,0,response3disk_5,4,2.7591,3,-3,1,0,0,rectangle_8,3,-3,1,0,0,3,-3,1,0,0,0,3,3,2,1,6100ca9fe498aed972793cd7,61036d2136f49f6fa4568580,2021-07-30_05h09.05.293,Simcolourproject_2stim_asymm_v5,2020.2.10,Win32,60,61025ae37ef11b136ea224fe,,,,,,,,,,,,,,,,,,,,,,,,,,,,,,,,,,,,,,,,,,,,,,
,,,,,,,,,,,,88,PF,112,48,1,0,0,response1disk_5,6,1.6187,1,-7,1,0,0,rectangle_8,126,-74,1,0,0,2,-3,1,0,0,0,4,4,6,1,6100ca9fe498aed972793cd7,61036d2136f49f6fa4568580,2021-07-30_05h09.05.293,Simcolourproject_2stim_asymm_v5,2020.2.10,Win32,60,61025ae37ef11b136ea224fe,response3disk_7,5,2.3845,5,"[2,5]",rectangle_4,,,,,,,,,,,,,,,,,,,,,,,,,,,,,,,,,,,,,,,,
,,,,,,,,,,,,117,PF,39,-127,1,0,0,response3disk_5,4,4.7481,6,4,1,0,0,rectangle_8,6,4,1,0,0,6,4,1,0,0,0,5,5,1,1,6100ca9fe498aed972793cd7,61036d2136f49f6fa4568580,2021-07-30_05h09.05.293,Simcolourproject_2stim_asymm_v5,2020.2.10,Win32,60,61025ae37ef11b136ea224fe,,,,,,,,,,,,,,,,,,,,,,,,,,,,,,,,,,,,,,,,,,,,,,
,,,,,,,,,,,,39,PF,-44,-114,1,0,0,response5disk_5,3,2.2556,3,5,1,0,0,rectangle_8,3,5,1,0,0,3,5,1,0,0,0,6,6,4,1,6100ca9fe498aed972793cd7,61036d2136f49f6fa4568580,2021-07-30_05h09.05.293,Simcolourproject_2stim_asymm_v5,2020.2.10,Win32,60,61025ae37ef11b136ea224fe,,,,,,,,,,,,,,,,,,,,,,,,,,,,,,,,,,,,,,,,,,,,,,
,,,,,,,,,,,,,FF,,,,,,,,1.881,,,,,,,,,,,,,,,,,,,,,,6100ca9fe498aed972793cd7,61036d2136f49f6fa4568580,2021-07-30_05h09.05.293,Simcolourproject_2stim_asymm_v5,2020.2.10,Win32,60,61025ae37ef11b136ea224fe,,,,,,,space,6.9692,2656,103,-52,1,0,0,response3disk,,5,2,2,1,0,0,rectangle,2,2,1,0,0,2,2,1,0,0,0,0,0,54,1,,,,,,,,
,,,,,,,,,,,,,FF,,,,,,,,2.0433,,,,,,,,,,,,,,,,,,,,,,6100ca9fe498aed972793cd7,61036d2136f49f6fa4568580,2021-07-30_05h09.05.293,Simcolourproject_2stim_asymm_v5,2020.2.10,Win32,60,61025ae37ef11b136ea224fe,,,,,,,,,4027,-67,-114,1,0,0,response5disk,,3,-10,-3,1,0,0,rectangle,-10,-3,1,0,0,-10,-3,1,0,0,0,1,1,6,1,,,,,,,,
,,,,,,,,,,,,,FF,,,,,,,,2.7592,,,,,,,,,,,,,,,,,,,,,,6100ca9fe498aed972793cd7,61036d2136f49f6fa4568580,2021-07-30_05h09.05.293,Simcolourproject_2stim_asymm_v5,2020.2.10,Win32,60,61025ae37ef11b136ea224fe,,,,,,,,,4348,-47,-91,1,0,0,response5disk,,3,0,2,1,0,0,rectangle,0,2,1,0,0,0,2,1,0,0,0,2,2,89,1,,,,,,,,
,,,,,,,,,,,,,FF,,,,,,,,2.0848,,,,,,,,,,,,,,,,,,,,,,6100ca9fe498aed972793cd7,61036d2136f49f6fa4568580,2021-07-30_05h09.05.293,Simcolourproject_2stim_asymm_v5,2020.2.10,Win32,60,61025ae37ef11b136ea224fe,,,,,,,,,3118,96,-44,1,0,0,response3disk,,5,4,-2,1,0,0,rectangle,4,-2,1,0,0,4,-2,1,0,0,0,3,3,84,1,,,,,,,,
,,,,,,,,,,,,,FF,,,,,,,,1.8186,,,,,,,,,,,,,,,,,,,,,,6100ca9fe498aed972793cd7,61036d2136f49f6fa4568580,2021-07-30_05h09.05.293,Simcolourproject_2stim_asymm_v5,2020.2.10,Win32,60,61025ae37ef11b136ea224fe,,,,,,,,,4031,51,-125,1,0,0,response3disk,,4,-13,4,1,0,0,rectangle,-13,4,1,0,0,-13,4,1,0,0,0,4,4,145,1,,,,,,,,
,,,,,,,,,,,,,FF,,,,,,,,1.7436,,,,,,,,,,,,,,,,,,,,,,6100ca9fe498aed972793cd7,61036d2136f49f6fa4568580,2021-07-30_05h09.05.293,Simcolourproject_2stim_asymm_v5,2020.2.10,Win32,60,61025ae37ef11b136ea224fe,,,,,,,,,1755,-71,-97,1,0,0,response5disk,,3,-6,3,1,0,0,rectangle,-6,3,1,0,0,-6,3,1,0,0,0,5,5,5,1,,,,,,,,
,,,,,,,,,,,,,FF,,,,,,,,1.9393,,,,,,,,,,,,,,,,,,,,,,6100ca9fe498aed972793cd7,61036d2136f49f6fa4568580,2021-07-30_05h09.05.293,Simcolourproject_2stim_asymm_v5,2020.2.10,Win32,60,61025ae37ef11b136ea224fe,,,,,,,,,2875,115,32,1,0,0,response1disk,,6,-16,-2,1,0,0,rectangle,-16,-2,1,0,0,-16,-2,1,0,0,0,6,6,115,1,,,,,,,,
,,,,,,,,,,,,,FF,,,,,,,,2.1686,,,,,,,,,,,,,,,,,,,,,,6100ca9fe498aed972793cd7,61036d2136f49f6fa4568580,2021-07-30_05h09.05.293,Simcolourproject_2stim_asymm_v5,2020.2.10,Win32,60,61025ae37ef11b136ea224fe,,,,,,,,,23,87,-70,1,0,0,response3disk,,5,8,2,1,0,0,rectangle,8,2,1,0,0,8,2,1,0,0,0,7,7,159,1,,,,,,,,
,,,,,,,,,,,,,FF,,,,,,,,2.0102,,,,,,,,,,,,,,,,,,,,,,6100ca9fe498aed972793cd7,61036d2136f49f6fa4568580,2021-07-30_05h09.05.293,Simcolourproject_2stim_asymm_v5,2020.2.10,Win32,60,61025ae37ef11b136ea224fe,,,,,,,,,1002,46,108,1,0,0,response1disk,,7,-1,0,1,0,0,rectangle,-1,0,1,0,0,-1,0,1,0,0,0,8,8,80,1,,,,,,,,
,,,,,,,,,,,,,FF,,,,,,,,1.9851,,,,,,,,,,,,,,,,,,,,,,6100ca9fe498aed972793cd7,61036d2136f49f6fa4568580,2021-07-30_05h09.05.293,Simcolourproject_2stim_asymm_v5,2020.2.10,Win32,60,61025ae37ef11b136ea224fe,,,,,,,,,3744,-106,-51,1,0,0,response5disk,,2,1,0,1,0,0,rectangle,47,-110,1,0,0,-4,-2,1,0,0,0,9,9,104,1,,response3disk_3,TRUE,4,4,"[117,160,279,228,292,41,303,278,268,153,152,247,43,254,65,10,29,129,212,73]",1.7263,rectangle
,,,,,,,,,,,,,FF,,,,,,,,3.4373,,,,,,,,,,,,,,,,,,,,,,6100ca9fe498aed972793cd7,61036d2136f49f6fa4568580,2021-07-30_05h09.05.293,Simcolourproject_2stim_asymm_v5,2020.2.10,Win32,60,61025ae37ef11b136ea224fe,,,,,,,,,838,135,53,1,0,0,response1disk,,6,1,-2,1,0,0,rectangle,1,-2,1,0,0,1,-2,1,0,0,0,10,10,136,1,,,,,,,,
,,,,,,,,,,,,,FF,,,,,,,,1.6396,,,,,,,,,,,,,,,,,,,,,,6100ca9fe498aed972793cd7,61036d2136f49f6fa4568580,2021-07-30_05h09.05.293,Simcolourproject_2stim_asymm_v5,2020.2.10,Win32,60,61025ae37ef11b136ea224fe,,,,,,,,,1973,95,-81,1,0,0,response3disk,,5,11,-7,1,0,0,rectangle,11,-7,1,0,0,11,-7,1,0,0,0,11,11,85,1,,,,,,,,
,,,,,,,,,,,,,FF,,,,,,,,3.7163,,,,,,,,,,,,,,,,,,,,,,6100ca9fe498aed972793cd7,61036d2136f49f6fa4568580,2021-07-30_05h09.05.293,Simcolourproject_2stim_asymm_v5,2020.2.10,Win32,60,61025ae37ef11b136ea224fe,,,,,,,,,481,103,-49,1,0,0,response3disk,,5,-6,0,1,0,0,rectangle,-6,0,1,0,0,-6,0,1,0,0,0,12,12,82,1,,,,,,,,
,,,,,,,,,,,,,FF,,,,,,,,2.4178,,,,,,,,,,,,,,,,,,,,,,6100ca9fe498aed972793cd7,61036d2136f49f6fa4568580,2021-07-30_05h09.05.293,Simcolourproject_2stim_asymm_v5,2020.2.10,Win32,60,61025ae37ef11b136ea224fe,,,,,,,,,3342,-66,-120,1,0,0,response5disk,,3,-6,-7,1,0,0,rectangle,-6,-7,1,0,0,-6,-7,1,0,0,0,13,13,133,1,,,,,,,,
,,,,,,,,,,,,,FF,,,,,,,,1.024,,,,,,,,,,,,,,,,,,,,,,6100ca9fe498aed972793cd7,61036d2136f49f6fa4568580,2021-07-30_05h09.05.293,Simcolourproject_2stim_asymm_v5,2020.2.10,Win32,60,61025ae37ef11b136ea224fe,,,,,,,,,4062,43,115,1,0,0,response1disk,,7,-3,6,1,0,0,rectangle,-3,6,1,0,0,-3,6,1,0,0,0,14,14,155,1,,,,,,,,
,,,,,,,,,,,,,FF,,,,,,,,2.5469,,,,,,,,,,,,,,,,,,,,,,6100ca9fe498aed972793cd7,61036d2136f49f6fa4568580,2021-07-30_05h09.05.293,Simcolourproject_2stim_asymm_v5,2020.2.10,Win32,60,61025ae37ef11b136ea224fe,,,,,,,,,532,-125,45,1,0,0,response7disk,,1,-8,1,1,0,0,rectangle,-8,1,1,0,0,-8,1,1,0,0,0,15,15,15,1,,,,,,,,
,,,,,,,,,,,,,FF,,,,,,,,1.5773,,,,,,,,,,,,,,,,,,,,,,6100ca9fe498aed972793cd7,61036d2136f49f6fa4568580,2021-07-30_05h09.05.293,Simcolourproject_2stim_asymm_v5,2020.2.10,Win32,60,61025ae37ef11b136ea224fe,,,,,,,,,1957,-114,-47,1,0,0,response5disk,,2,11,-1,1,0,0,rectangle,11,-1,1,0,0,11,-1,1,0,0,0,16,16,78,1,,,,,,,,
,,,,,,,,,,,,,FF,,,,,,,,1.4814,,,,,,,,,,,,,,,,,,,,,,6100ca9fe498aed972793cd7,61036d2136f49f6fa4568580,2021-07-30_05h09.05.293,Simcolourproject_2stim_asymm_v5,2020.2.10,Win32,60,61025ae37ef11b136ea224fe,,,,,,,,,1099,90,39,1,0,0,response1disk,,6,4,4,1,0,0,rectangle,4,4,1,0,0,4,4,1,0,0,0,17,17,129,1,,,,,,,,
,,,,,,,,,,,,,FF,,,,,,,,2.7632,,,,,,,,,,,,,,,,,,,,,,6100ca9fe498aed972793cd7,61036d2136f49f6fa4568580,2021-07-30_05h09.05.293,Simcolourproject_2stim_asymm_v5,2020.2.10,Win32,60,61025ae37ef11b136ea224fe,,,,,,,,,2896,39,-110,1,0,0,response3disk,,4,3,-9,1,0,0,rectangle,3,-9,1,0,0,3,-9,1,0,0,0,18,18,137,1,,,,,,,,
,,,,,,,,,,,,,FF,,,,,,,,1.2527,,,,,,,,,,,,,,,,,,,,,,6100ca9fe498aed972793cd7,61036d2136f49f6fa4568580,2021-07-30_05h09.05.293,Simcolourproject_2stim_asymm_v5,2020.2.10,Win32,60,61025ae37ef11b136ea224fe,,,,,,,,,217,90,-48,1,0,0,response3disk,,5,8,-6,1,0,0,rectangle,8,-6,1,0,0,8,-6,1,0,0,0,19,19,126,1,,,,,,,,
,,,,,,,,,,,,,FF,,,,,,,,1.6981,,,,,,,,,,,,,,,,,,,,,,6100ca9fe498aed972793cd7,61036d2136f49f6fa4568580,2021-07-30_05h09.05.293,Simcolourproject_2stim_asymm_v5,2020.2.10,Win32,60,61025ae37ef11b136ea224fe,,,,,,,,,121,28,-106,1,0,0,response3disk,,4,6,-9,1,0,0,rectangle,6,-9,1,0,0,6,-9,1,0,0,0,20,20,74,1,,,,,,,,
,,,,,,,,,,,,,FF,,,,,,,,2.5332,,,,,,,,,,,,,,,,,,,,,,6100ca9fe498aed972793cd7,61036d2136f49f6fa4568580,2021-07-30_05h09.05.293,Simcolourproject_2stim_asymm_v5,2020.2.10,Win32,60,61025ae37ef11b136ea224fe,,,,,,,,,2543,-48,-106,1,0,0,response5disk,,3,-7,-7,1,0,0,rectangle,-7,-7,1,0,0,-7,-7,1,0,0,0,21,21,0,1,,,,,,,,
,,,,,,,,,,,,,FF,,,,,,,,1.5463,,,,,,,,,,,,,,,,,,,,,,6100ca9fe498aed972793cd7,61036d2136f49f6fa4568580,2021-07-30_05h09.05.293,Simcolourproject_2stim_asymm_v5,2020.2.10,Win32,60,61025ae37ef11b136ea224fe,,,,,,,,,2992,36,105,1,0,0,response1disk,,7,0,3,1,0,0,rectangle,0,3,1,0,0,0,3,1,0,0,0,22,22,156,1,,,,,,,,
,,,,,,,,,,,,,FF,,,,,,,,1.7228,,,,,,,,,,,,,,,,,,,,,,6100ca9fe498aed972793cd7,61036d2136f49f6fa4568580,2021-07-30_05h09.05.293,Simcolourproject_2stim_asymm_v5,2020.2.10,Win32,60,61025ae37ef11b136ea224fe,,,,,,,,,2626,46,97,1,0,0,response1disk,,7,3,5,1,0,0,rectangle,3,5,1,0,0,3,5,1,0,0,0,23,23,37,1,,,,,,,,
,,,,,,,,,,,,,FF,,,,,,,,1.391,,,,,,,,,,,,,,,,,,,,,,6100ca9fe498aed972793cd7,61036d2136f49f6fa4568580,2021-07-30_05h09.05.293,Simcolourproject_2stim_asymm_v5,2020.2.10,Win32,60,61025ae37ef11b136ea224fe,,,,,,,,,1173,44,98,1,0,0,response1disk,,7,2,2,1,0,0,rectangle,2,2,1,0,0,2,2,1,0,0,0,24,24,119,1,,,,,,,,
,,,,,,,,,,,,,FF,,,,,,,,3.0171,,,,,,,,,,,,,,,,,,,,,,6100ca9fe498aed972793cd7,61036d2136f49f6fa4568580,2021-07-30_05h09.05.293,Simcolourproject_2stim_asymm_v5,2020.2.10,Win32,60,61025ae37ef11b136ea224fe,,,,,,,,,1128,49,99,1,0,0,response1disk,,7,10,1,1,0,0,rectangle,10,1,1,0,0,10,1,1,0,0,0,25,25,110,1,,,,,,,,
,,,,,,,,,,,,,FF,,,,,,,,1.8048,,,,,,,,,,,,,,,,,,,,,,6100ca9fe498aed972793cd7,61036d2136f49f6fa4568580,2021-07-30_05h09.05.293,Simcolourproject_2stim_asymm_v5,2020.2.10,Win32,60,61025ae37ef11b136ea224fe,,,,,,,,,1547,127,43,1,0,0,response1disk,,6,5,3,1,0,0,rectangle,5,3,1,0,0,5,3,1,0,0,0,26,26,43,1,,,,,,,,
,,,,,,,,,,,,,FF,,,,,,,,2.0933,,,,,,,,,,,,,,,,,,,,,,6100ca9fe498aed972793cd7,61036d2136f49f6fa4568580,2021-07-30_05h09.05.293,Simcolourproject_2stim_asymm_v5,2020.2.10,Win32,60,61025ae37ef11b136ea224fe,,,,,,,,,725,33,-110,1,0,0,response3disk,,4,1,2,1,0,0,rectangle,1,2,1,0,0,1,2,1,0,0,0,27,27,75,1,,,,,,,,
,,,,,,,,,,,,,FF,,,,,,,,2.8553,,,,,,,,,,,,,,,,,,,,,,6100ca9fe498aed972793cd7,61036d2136f49f6fa4568580,2021-07-30_05h09.05.293,Simcolourproject_2stim_asymm_v5,2020.2.10,Win32,60,61025ae37ef11b136ea224fe,,,,,,,,,2454,51,80,1,0,0,response1disk,,7,5,2,1,0,0,rectangle,130,70,1,0,0,-6,-5,1,0,0,0,28,28,140,1,,response1disk_3,TRUE,6,6,"[117,160,279,228,292,41,303,278,268,153,152,247,43,254,65,10,29,129,212,73]",1.2985,rectangle
,,,,,,,,,,,,,FF,,,,,,,,1.0903,,,,,,,,,,,,,,,,,,,,,,6100ca9fe498aed972793cd7,61036d2136f49f6fa4568580,2021-07-30_05h09.05.293,Simcolourproject_2stim_asymm_v5,2020.2.10,Win32,60,61025ae37ef11b136ea224fe,,,,,,,,,4324,32,94,1,0,0,response1disk,,7,-2,7,1,0,0,rectangle,-2,7,1,0,0,-2,7,1,0,0,0,29,29,51,1,,,,,,,,
,,,,,,,,,,,,,FF,,,,,,,,0.9447,,,,,,,,,,,,,,,,,,,,,,6100ca9fe498aed972793cd7,61036d2136f49f6fa4568580,2021-07-30_05h09.05.293,Simcolourproject_2stim_asymm_v5,2020.2.10,Win32,60,61025ae37ef11b136ea224fe,,,,,,,,,2962,40,94,1,0,0,response1disk,,7,-1,8,1,0,0,rectangle,-1,8,1,0,0,-1,8,1,0,0,0,30,30,122,1,,,,,,,,
,,,,,,,,,,,,,FF,,,,,,,,1.1444,,,,,,,,,,,,,,,,,,,,,,6100ca9fe498aed972793cd7,61036d2136f49f6fa4568580,2021-07-30_05h09.05.293,Simcolourproject_2stim_asymm_v5,2020.2.10,Win32,60,61025ae37ef11b136ea224fe,,,,,,,,,4046,-55,108,1,0,0,response7disk,,0,-5,6,1,0,0,rectangle,-5,6,1,0,0,-5,6,1,0,0,0,31,31,142,1,,,,,,,,
,,,,,,,,,,,,,FF,,,,,,,,1.7311,,,,,,,,,,,,,,,,,,,,,,6100ca9fe498aed972793cd7,61036d2136f49f6fa4568580,2021-07-30_05h09.05.293,Simcolourproject_2stim_asymm_v5,2020.2.10,Win32,60,61025ae37ef11b136ea224fe,,,,,,,,,2929,125,59,1,0,0,response1disk,,6,36,-1,1,0,0,rectangle,36,-1,1,0,0,36,-1,1,0,0,0,32,32,86,1,,,,,,,,
,,,,,,,,,,,,,FF,,,,,,,,2.0889,,,,,,,,,,,,,,,,,,,,,,6100ca9fe498aed972793cd7,61036d2136f49f6fa4568580,2021-07-30_05h09.05.293,Simcolourproject_2stim_asymm_v5,2020.2.10,Win32,60,61025ae37ef11b136ea224fe,,,,,,,,,1031,90,47,1,0,0,response1disk,,6,10,-8,1,0,0,rectangle,10,-8,1,0,0,10,-8,1,0,0,0,33,33,149,1,,,,,,,,
,,,,,,,,,,,,,FF,,,,,,,,1.5064,,,,,,,,,,,,,,,,,,,,,,6100ca9fe498aed972793cd7,61036d2136f49f6fa4568580,2021-07-30_05h09.05.293,Simcolourproject_2stim_asymm_v5,2020.2.10,Win32,60,61025ae37ef11b136ea224fe,,,,,,,,,4110,40,111,1,0,0,response1disk,,7,-4,2,1,0,0,rectangle,-4,2,1,0,0,-4,2,1,0,0,0,34,34,131,1,,,,,,,,
,,,,,,,,,,,,,FF,,,,,,,,2.1847,,,,,,,,,,,,,,,,,,,,,,6100ca9fe498aed972793cd7,61036d2136f49f6fa4568580,2021-07-30_05h09.05.293,Simcolourproject_2stim_asymm_v5,2020.2.10,Win32,60,61025ae37ef11b136ea224fe,,,,,,,,,568,104,-42,1,0,0,response3disk,,5,7,3,1,0,0,rectangle,7,3,1,0,0,7,3,1,0,0,0,35,35,138,1,,,,,,,,
,,,,,,,,,,,,,FF,,,,,,,,1.5272,,,,,,,,,,,,,,,,,,,,,,6100ca9fe498aed972793cd7,61036d2136f49f6fa4568580,2021-07-30_05h09.05.293,Simcolourproject_2stim_asymm_v5,2020.2.10,Win32,60,61025ae37ef11b136ea224fe,,,,,,,,,3648,77,118,1,0,0,response1disk,,7,9,-7,1,0,0,rectangle,9,-7,1,0,0,9,-7,1,0,0,0,36,36,97,1,,,,,,,,
,,,,,,,,,,,,,FF,,,,,,,,1.4399,,,,,,,,,,,,,,,,,,,,,,6100ca9fe498aed972793cd7,61036d2136f49f6fa4568580,2021-07-30_05h09.05.293,Simcolourproject_2stim_asymm_v5,2020.2.10,Win32,60,61025ae37ef11b136ea224fe,,,,,,,,,1140,74,-54,1,0,0,response3disk,,5,4,6,1,0,0,rectangle,4,6,1,0,0,4,6,1,0,0,0,37,37,108,1,,,,,,,,
,,,,,,,,,,,,,FF,,,,,,,,2.3847,,,,,,,,,,,,,,,,,,,,,,6100ca9fe498aed972793cd7,61036d2136f49f6fa4568580,2021-07-30_05h09.05.293,Simcolourproject_2stim_asymm_v5,2020.2.10,Win32,60,61025ae37ef11b136ea224fe,,,,,,,,,3530,90,-50,1,0,0,response3disk,,5,5,0,1,0,0,rectangle,5,0,1,0,0,5,0,1,0,0,0,38,38,62,1,,,,,,,,
,,,,,,,,,,,,,FF,,,,,,,,3.0962,,,,,,,,,,,,,,,,,,,,,,6100ca9fe498aed972793cd7,61036d2136f49f6fa4568580,2021-07-30_05h09.05.293,Simcolourproject_2stim_asymm_v5,2020.2.10,Win32,60,61025ae37ef11b136ea224fe,,,,,,,,,2035,45,-116,1,0,0,response3disk,,4,-9,-6,1,0,0,rectangle,-9,-6,1,0,0,-9,-6,1,0,0,0,39,39,94,1,,,,,,,,
,,,,,,,,,,,,,FF,,,,,,,,1.777,,,,,,,,,,,,,,,,,,,,,,6100ca9fe498aed972793cd7,61036d2136f49f6fa4568580,2021-07-30_05h09.05.293,Simcolourproject_2stim_asymm_v5,2020.2.10,Win32,60,61025ae37ef11b136ea224fe,,,,,,,,,1875,118,46,1,0,0,response1disk,,6,13,-3,1,0,0,rectangle,42,91,1,0,0,-1,-7,1,0,0,0,40,40,26,1,,response1disk_3,TRUE,7,7,"[117,160,279,228,292,41,303,278,268,153,152,247,43,254,65,10,29,129,212,73]",1.4326,rectangle
,,,,,,,,,,,,,FF,,,,,,,,1.5647,,,,,,,,,,,,,,,,,,,,,,6100ca9fe498aed972793cd7,61036d2136f49f6fa4568580,2021-07-30_05h09.05.293,Simcolourproject_2stim_asymm_v5,2020.2.10,Win32,60,61025ae37ef11b136ea224fe,,,,,,,,,1304,-131,60,1,0,0,response7disk,,1,2,0,1,0,0,rectangle,2,0,1,0,0,2,0,1,0,0,0,41,41,58,1,,,,,,,,
,,,,,,,,,,,,,FF,,,,,,,,1.777,,,,,,,,,,,,,,,,,,,,,,6100ca9fe498aed972793cd7,61036d2136f49f6fa4568580,2021-07-30_05h09.05.293,Simcolourproject_2stim_asymm_v5,2020.2.10,Win32,60,61025ae37ef11b136ea224fe,,,,,,,,,2654,48,-105,1,0,0,response3disk,,4,4,3,1,0,0,rectangle,80,-55,1,0,0,-7,4,1,0,0,0,42,42,92,1,,response3disk_3,TRUE,5,5,"[117,160,279,228,292,41,303,278,268,153,152,247,43,254,65,10,29,129,212,73]",1.4314,rectangle
,,,,,,,,,,,,,FF,,,,,,,,1.6563,,,,,,,,,,,,,,,,,,,,,,6100ca9fe498aed972793cd7,61036d2136f49f6fa4568580,2021-07-30_05h09.05.293,Simcolourproject_2stim_asymm_v5,2020.2.10,Win32,60,61025ae37ef11b136ea224fe,,,,,,,,,2197,63,116,1,0,0,response1disk,,7,1,-10,1,0,0,rectangle,1,-10,1,0,0,1,-10,1,0,0,0,43,43,29,1,,,,,,,,
,,,,,,,,,,,,,FF,,,,,,,,1.9892,,,,,,,,,,,,,,,,,,,,,,6100ca9fe498aed972793cd7,61036d2136f49f6fa4568580,2021-07-30_05h09.05.293,Simcolourproject_2stim_asymm_v5,2020.2.10,Win32,60,61025ae37ef11b136ea224fe,,,,,,,,,3094,88,-52,1,0,0,response3disk,,5,4,4,1,0,0,rectangle,4,4,1,0,0,4,4,1,0,0,0,44,44,50,1,,,,,,,,
,,,,,,,,,,,,,FF,,,,,,,,1.7313,,,,,,,,,,,,,,,,,,,,,,6100ca9fe498aed972793cd7,61036d2136f49f6fa4568580,2021-07-30_05h09.05.293,Simcolourproject_2stim_asymm_v5,2020.2.10,Win32,60,61025ae37ef11b136ea224fe,,,,,,,,,1628,71,116,1,0,0,response1disk,,7,7,1,1,0,0,rectangle,7,1,1,0,0,7,1,1,0,0,0,45,45,69,1,,,,,,,,
,,,,,,,,,,,,,FF,,,,,,,,1.2733,,,,,,,,,,,,,,,,,,,,,,6100ca9fe498aed972793cd7,61036d2136f49f6fa4568580,2021-07-30_05h09.05.293,Simcolourproject_2stim_asymm_v5,2020.2.10,Win32,60,61025ae37ef11b136ea224fe,,,,,,,,,109,59,110,1,0,0,response1disk,,7,0,3,1,0,0,rectangle,0,3,1,0,0,0,3,1,0,0,0,46,46,154,1,,,,,,,,
,,,,,,,,,,,,,FF,,,,,,,,2.0225,,,,,,,,,,,,,,,,,,,,,,6100ca9fe498aed972793cd7,61036d2136f49f6fa4568580,2021-07-30_05h09.05.293,Simcolourproject_2stim_asymm_v5,2020.2.10,Win32,60,61025ae37ef11b136ea224fe,,,,,,,,,1882,120,53,1,0,0,response1disk,,6,4,6,1,0,0,rectangle,4,6,1,0,0,4,6,1,0,0,0,47,47,81,1,,,,,,,,
,,,,,,,,,,,,,FF,,,,,,,,1.1195,,,,,,,,,,,,,,,,,,,,,,6100ca9fe498aed972793cd7,61036d2136f49f6fa4568580,2021-07-30_05h09.05.293,Simcolourproject_2stim_asymm_v5,2020.2.10,Win32,60,61025ae37ef11b136ea224fe,,,,,,,,,1090,56,122,1,0,0,response1disk,,7,5,-8,1,0,0,rectangle,5,-8,1,0,0,5,-8,1,0,0,0,48,48,17,1,,,,,,,,
,,,,,,,,,,,,,FF,,,,,,,,1.4523,,,,,,,,,,,,,,,,,,,,,,6100ca9fe498aed972793cd7,61036d2136f49f6fa4568580,2021-07-30_05h09.05.293,Simcolourproject_2stim_asymm_v5,2020.2.10,Win32,60,61025ae37ef11b136ea224fe,,,,,,,,,2249,135,60,1,0,0,response1disk,,6,7,-12,1,0,0,rectangle,7,-12,1,0,0,7,-12,1,0,0,0,49,49,48,1,,,,,,,,
,,,,,,,,,,,,,FF,,,,,,,,2.2514,,,,,,,,,,,,,,,,,,,,,,6100ca9fe498aed972793cd7,61036d2136f49f6fa4568580,2021-07-30_05h09.05.293,Simcolourproject_2stim_asymm_v5,2020.2.10,Win32,60,61025ae37ef11b136ea224fe,,,,,,,,,3255,100,-44,1,0,0,response3disk,,5,25,-16,1,0,0,rectangle,25,-16,1,0,0,25,-16,1,0,0,0,50,50,114,1,,,,,,,,
,,,,,,,,,,,,,FF,,,,,,,,1.0031,,,,,,,,,,,,,,,,,,,,,,6100ca9fe498aed972793cd7,61036d2136f49f6fa4568580,2021-07-30_05h09.05.293,Simcolourproject_2stim_asymm_v5,2020.2.10,Win32,60,61025ae37ef11b136ea224fe,,,,,,,,,2838,79,-41,1,0,0,response3disk,,5,11,-11,1,0,0,rectangle,11,-11,1,0,0,11,-11,1,0,0,0,51,51,61,1,,,,,,,,
,,,,,,,,,,,,,FF,,,,,,,,6.1964,,,,,,,,,,,,,,,,,,,,,,6100ca9fe498aed972793cd7,61036d2136f49f6fa4568580,2021-07-30_05h09.05.293,Simcolourproject_2stim_asymm_v5,2020.2.10,Win32,60,61025ae37ef11b136ea224fe,,,,,,,,,650,97,57,1,0,0,response1disk,,6,7,10,1,0,0,rectangle,7,10,1,0,0,7,10,1,0,0,0,52,52,53,1,,,,,,,,
,,,,,,,,,,,,,FF,,,,,,,,1.9351,,,,,,,,,,,,,,,,,,,,,,6100ca9fe498aed972793cd7,61036d2136f49f6fa4568580,2021-07-30_05h09.05.293,Simcolourproject_2stim_asymm_v5,2020.2.10,Win32,60,61025ae37ef11b136ea224fe,,,,,,,,,3104,36,-131,1,0,0,response3disk,,4,6,-1,1,0,0,rectangle,6,-1,1,0,0,6,-1,1,0,0,0,53,53,128,1,,,,,,,,
,,,,,,,,,,,,,FF,,,,,,,,2.3596,,,,,,,,,,,,,,,,,,,,,,6100ca9fe498aed972793cd7,61036d2136f49f6fa4568580,2021-07-30_05h09.05.293,Simcolourproject_2stim_asymm_v5,2020.2.10,Win32,60,61025ae37ef11b136ea224fe,,,,,,,,,3463,57,-106,1,0,0,response3disk,,4,1,-4,1,0,0,rectangle,1,-4,1,0,0,1,-4,1,0,0,0,54,54,64,1,,,,,,,,
,,,,,,,,,,,,,FF,,,,,,,,0.8574,,,,,,,,,,,,,,,,,,,,,,6100ca9fe498aed972793cd7,61036d2136f49f6fa4568580,2021-07-30_05h09.05.293,Simcolourproject_2stim_asymm_v5,2020.2.10,Win32,60,61025ae37ef11b136ea224fe,,,,,,,,,1436,60,125,1,0,0,response1disk,,7,10,7,1,0,0,rectangle,10,7,1,0,0,10,7,1,0,0,0,55,55,25,1,,,,,,,,
,,,,,,,,,,,,,FF,,,,,,,,1.103,,,,,,,,,,,,,,,,,,,,,,6100ca9fe498aed972793cd7,61036d2136f49f6fa4568580,2021-07-30_05h09.05.293,Simcolourproject_2stim_asymm_v5,2020.2.10,Win32,60,61025ae37ef11b136ea224fe,,,,,,,,,3324,125,64,1,0,0,response1disk,,6,17,3,1,0,0,rectangle,17,3,1,0,0,17,3,1,0,0,0,56,56,67,1,,,,,,,,
,,,,,,,,,,,,,FF,,,,,,,,2.0018,,,,,,,,,,,,,,,,,,,,,,6100ca9fe498aed972793cd7,61036d2136f49f6fa4568580,2021-07-30_05h09.05.293,Simcolourproject_2stim_asymm_v5,2020.2.10,Win32,60,61025ae37ef11b136ea224fe,,,,,,,,,4050,123,56,1,0,0,response1disk,,6,2,1,1,0,0,rectangle,2,1,1,0,0,2,1,1,0,0,0,57,57,102,1,,,,,,,,
,,,,,,,,,,,,,FF,,,,,,,,0.8698,,,,,,,,,,,,,,,,,,,,,,6100ca9fe498aed972793cd7,61036d2136f49f6fa4568580,2021-07-30_05h09.05.293,Simcolourproject_2stim_asymm_v5,2020.2.10,Win32,60,61025ae37ef11b136ea224fe,,,,,,,,,4344,-42,116,1,0,0,response7disk,,0,-10,5,1,0,0,rectangle,-10,5,1,0,0,-10,5,1,0,0,0,58,58,24,1,,,,,,,,
,,,,,,,,,,,,,FF,,,,,,,,2.9712,,,,,,,,,,,,,,,,,,,,,,6100ca9fe498aed972793cd7,61036d2136f49f6fa4568580,2021-07-30_05h09.05.293,Simcolourproject_2stim_asymm_v5,2020.2.10,Win32,60,61025ae37ef11b136ea224fe,,,,,,,,,1126,128,66,1,0,0,response1disk,,6,27,3,1,0,0,rectangle,27,3,1,0,0,27,3,1,0,0,0,59,59,148,1,,,,,,,,
,,,,,,,,,,,,,FF,,,,,,,,1.0196,,,,,,,,,,,,,,,,,,,,,,6100ca9fe498aed972793cd7,61036d2136f49f6fa4568580,2021-07-30_05h09.05.293,Simcolourproject_2stim_asymm_v5,2020.2.10,Win32,60,61025ae37ef11b136ea224fe,,,,,,,,,2768,40,-114,1,0,0,response3disk,,4,-13,-1,1,0,0,rectangle,-13,-1,1,0,0,-13,-1,1,0,0,0,60,60,70,1,,,,,,,,
,,,,,,,,,,,,,FF,,,,,,,,3.1587,,,,,,,,,,,,,,,,,,,,,,6100ca9fe498aed972793cd7,61036d2136f49f6fa4568580,2021-07-30_05h09.05.293,Simcolourproject_2stim_asymm_v5,2020.2.10,Win32,60,61025ae37ef11b136ea224fe,,,,,,,,,2726,-61,-110,1,0,0,response5disk,,3,-9,5,1,0,0,rectangle,-9,5,1,0,0,-9,5,1,0,0,0,61,61,141,1,,,,,,,,
,,,,,,,,,,,,,FF,,,,,,,,3.9991,,,,,,,,,,,,,,,,,,,,,,6100ca9fe498aed972793cd7,61036d2136f49f6fa4568580,2021-07-30_05h09.05.293,Simcolourproject_2stim_asymm_v5,2020.2.10,Win32,60,61025ae37ef11b136ea224fe,,,,,,,,,4106,-42,-119,1,0,0,response5disk,,3,-6,-9,1,0,0,rectangle,-6,-9,1,0,0,-6,-9,1,0,0,0,62,62,118,1,,,,,,,,
,,,,,,,,,,,,,FF,,,,,,,,0.8323,,,,,,,,,,,,,,,,,,,,,,6100ca9fe498aed972793cd7,61036d2136f49f6fa4568580,2021-07-30_05h09.05.293,Simcolourproject_2stim_asymm_v5,2020.2.10,Win32,60,61025ae37ef11b136ea224fe,,,,,,,,,1234,52,-116,1,0,0,response3disk,,4,9,3,1,0,0,rectangle,9,3,1,0,0,9,3,1,0,0,0,63,63,11,1,,,,,,,,
,,,,,,,,,,,,,FF,,,,,,,,3.0962,,,,,,,,,,,,,,,,,,,,,,6100ca9fe498aed972793cd7,61036d2136f49f6fa4568580,2021-07-30_05h09.05.293,Simcolourproject_2stim_asymm_v5,2020.2.10,Win32,60,61025ae37ef11b136ea224fe,,,,,,,,,916,126,71,1,0,0,response1disk,,6,-18,18,1,0,0,rectangle,-91,33,1,0,0,7,-15,1,0,0,0,64,64,101,1,,response7disk_3,TRUE,1,1,"[117,160,279,228,292,41,303,278,268,153,152,247,43,254,65,10,29,129,212,73]",1.2737,rectangle
,,,,,,,,,,,,,FF,,,,,,,,1.777,,,,,,,,,,,,,,,,,,,,,,6100ca9fe498aed972793cd7,61036d2136f49f6fa4568580,2021-07-30_05h09.05.293,Simcolourproject_2stim_asymm_v5,2020.2.10,Win32,60,61025ae37ef11b136ea224fe,,,,,,,,,448,114,62,1,0,0,response1disk,,6,-1,-13,1,0,0,rectangle,-1,-13,1,0,0,-1,-13,1,0,0,0,65,65,57,1,,,,,,,,
,,,,,,,,,,,,,FF,,,,,,,,0.7492,,,,,,,,,,,,,,,,,,,,,,6100ca9fe498aed972793cd7,61036d2136f49f6fa4568580,2021-07-30_05h09.05.293,Simcolourproject_2stim_asymm_v5,2020.2.10,Win32,60,61025ae37ef11b136ea224fe,,,,,,,,,1963,-72,124,1,0,0,response7disk,,0,-9,8,1,0,0,rectangle,-9,8,1,0,0,-9,8,1,0,0,0,66,66,10,1,,,,,,,,
,,,,,,,,,,,,,FF,,,,,,,,3.6708,,,,,,,,,,,,,,,,,,,,,,6100ca9fe498aed972793cd7,61036d2136f49f6fa4568580,2021-07-30_05h09.05.293,Simcolourproject_2stim_asymm_v5,2020.2.10,Win32,60,61025ae37ef11b136ea224fe,,,,,,,,,2367,-55,-96,1,0,0,response5disk,,3,-18,-13,1,0,0,rectangle,-18,-13,1,0,0,-18,-13,1,0,0,0,67,67,105,1,,,,,,,,
,,,,,,,,,,,,,FF,,,,,,,,0.7907,,,,,,,,,,,,,,,,,,,,,,6100ca9fe498aed972793cd7,61036d2136f49f6fa4568580,2021-07-30_05h09.05.293,Simcolourproject_2stim_asymm_v5,2020.2.10,Win32,60,61025ae37ef11b136ea224fe,,,,,,,,,3927,65,131,1,0,0,response1disk,,7,-2,-10,1,0,0,rectangle,-2,-10,1,0,0,-2,-10,1,0,0,0,68,68,21,1,,,,,,,,
,,,,,,,,,,,,,FF,,,,,,,,2.0723,,,,,,,,,,,,,,,,,,,,,,6100ca9fe498aed972793cd7,61036d2136f49f6fa4568580,2021-07-30_05h09.05.293,Simcolourproject_2stim_asymm_v5,2020.2.10,Win32,60,61025ae37ef11b136ea224fe,,,,,,,,,3157,57,-99,1,0,0,response3disk,,4,1,8,1,0,0,rectangle,1,8,1,0,0,1,8,1,0,0,0,69,69,1,1,,,,,,,,
,,,,,,,,,,,,,FF,,,,,,,,1.0279,,,,,,,,,,,,,,,,,,,,,,6100ca9fe498aed972793cd7,61036d2136f49f6fa4568580,2021-07-30_05h09.05.293,Simcolourproject_2stim_asymm_v5,2020.2.10,Win32,60,61025ae37ef11b136ea224fe,,,,,,,,,2723,46,-83,1,0,0,response3disk,,4,2,2,1,0,0,rectangle,2,2,1,0,0,2,2,1,0,0,0,70,70,83,1,,,,,,,,
,,,,,,,,,,,,,FF,,,,,,,,2.4969,,,,,,,,,,,,,,,,,,,,,,6100ca9fe498aed972793cd7,61036d2136f49f6fa4568580,2021-07-30_05h09.05.293,Simcolourproject_2stim_asymm_v5,2020.2.10,Win32,60,61025ae37ef11b136ea224fe,,,,,,,,,1780,105,55,1,0,0,response1disk,,6,26,2,1,0,0,rectangle,26,2,1,0,0,26,2,1,0,0,0,71,71,79,1,,,,,,,,
,,,,,,,,,,,,,FF,,,,,,,,2.0309,,,,,,,,,,,,,,,,,,,,,,6100ca9fe498aed972793cd7,61036d2136f49f6fa4568580,2021-07-30_05h09.05.293,Simcolourproject_2stim_asymm_v5,2020.2.10,Win32,60,61025ae37ef11b136ea224fe,,,,,,,,,2544,32,-95,1,0,0,response3disk,,4,-24,-5,1,0,0,rectangle,-47,-100,1,0,0,0,-1,1,0,0,0,72,72,9,1,,response5disk_3,TRUE,3,3,"[117,160,279,228,292,41,303,278,268,153,152,247,43,254,65,10,29,129,212,73]",2.3305,rectangle
,,,,,,,,,,,,,FF,,,,,,,,0.7076,,,,,,,,,,,,,,,,,,,,,,6100ca9fe498aed972793cd7,61036d2136f49f6fa4568580,2021-07-30_05h09.05.293,Simcolourproject_2stim_asymm_v5,2020.2.10,Win32,60,61025ae37ef11b136ea224fe,,,,,,,,,2282,51,113,1,0,0,response1disk,,7,-7,-1,1,0,0,rectangle,-7,-1,1,0,0,-7,-1,1,0,0,0,73,73,98,1,,,,,,,,
,,,,,,,,,,,,,FF,,,,,,,,1.7145,,,,,,,,,,,,,,,,,,,,,,6100ca9fe498aed972793cd7,61036d2136f49f6fa4568580,2021-07-30_05h09.05.293,Simcolourproject_2stim_asymm_v5,2020.2.10,Win32,60,61025ae37ef11b136ea224fe,,,,,,,,,3923,96,39,1,0,0,response1disk,,6,11,15,1,0,0,rectangle,11,15,1,0,0,11,15,1,0,0,0,74,74,96,1,,,,,,,,
,,,,,,,,,,,,,FF,,,,,,,,1.4846,,,,,,,,,,,,,,,,,,,,,,6100ca9fe498aed972793cd7,61036d2136f49f6fa4568580,2021-07-30_05h09.05.293,Simcolourproject_2stim_asymm_v5,2020.2.10,Win32,60,61025ae37ef11b136ea224fe,,,,,,,,,246,89,-40,1,0,0,response3disk,,5,24,-1,1,0,0,rectangle,24,-1,1,0,0,24,-1,1,0,0,0,75,75,90,1,,,,,,,,
,,,,,,,,,,,,,FF,,,,,,,,1.3995,,,,,,,,,,,,,,,,,,,,,,6100ca9fe498aed972793cd7,61036d2136f49f6fa4568580,2021-07-30_05h09.05.293,Simcolourproject_2stim_asymm_v5,2020.2.10,Win32,60,61025ae37ef11b136ea224fe,,,,,,,,,626,101,57,1,0,0,response1disk,,6,5,0,1,0,0,rectangle,5,0,1,0,0,5,0,1,0,0,0,76,76,139,1,,,,,,,,
,,,,,,,,,,,,,FF,,,,,,,,1.4565,,,,,,,,,,,,,,,,,,,,,,6100ca9fe498aed972793cd7,61036d2136f49f6fa4568580,2021-07-30_05h09.05.293,Simcolourproject_2stim_asymm_v5,2020.2.10,Win32,60,61025ae37ef11b136ea224fe,,,,,,,,,1621,56,107,1,0,0,response1disk,,7,10,7,1,0,0,rectangle,10,7,1,0,0,10,7,1,0,0,0,77,77,100,1,,,,,,,,
,,,,,,,,,,,,,FF,,,,,,,,0.6806,,,,,,,,,,,,,,,,,,,,,,6100ca9fe498aed972793cd7,61036d2136f49f6fa4568580,2021-07-30_05h09.05.293,Simcolourproject_2stim_asymm_v5,2020.2.10,Win32,60,61025ae37ef11b136ea224fe,,,,,,,,,17,40,89,1,0,0,response1disk,,7,-7,5,1,0,0,rectangle,-7,5,1,0,0,-7,5,1,0,0,0,78,78,123,1,,,,,,,,
,,,,,,,,,,,,,FF,,,,,,,,0.77,,,,,,,,,,,,,,,,,,,,,,6100ca9fe498aed972793cd7,61036d2136f49f6fa4568580,2021-07-30_05h09.05.293,Simcolourproject_2stim_asymm_v5,2020.2.10,Win32,60,61025ae37ef11b136ea224fe,,,,,,,,,4067,48,92,1,0,0,response1disk,,7,-2,11,1,0,0,rectangle,-2,11,1,0,0,-2,11,1,0,0,0,79,79,106,1,,,,,,,,
,,,,,,,,,,,,,FF,,,,,,,,1.4941,,,,,,,,,,,,,,,,,,,,,,6100ca9fe498aed972793cd7,61036d2136f49f6fa4568580,2021-07-30_05h09.05.293,Simcolourproject_2stim_asymm_v5,2020.2.10,Win32,60,61025ae37ef11b136ea224fe,,,,,,,,,2851,113,-61,1,0,0,response3disk,,5,17,13,1,0,0,rectangle,17,13,1,0,0,17,13,1,0,0,0,80,80,47,1,,,,,,,,
,,,,,,,,,,,,,FF,,,,,,,,4.5139,,,,,,,,,,,,,,,,,,,,,,6100ca9fe498aed972793cd7,61036d2136f49f6fa4568580,2021-07-30_05h09.05.293,Simcolourproject_2stim_asymm_v5,2020.2.10,Win32,60,61025ae37ef11b136ea224fe,,,,,,,,,1939,89,45,1,0,0,response1disk,,6,-9,21,1,0,0,rectangle,-9,21,1,0,0,-9,21,1,0,0,0,81,81,76,1,,,,,,,,
,,,,,,,,,,,,,FF,,,,,,,,4.6405,,,,,,,,,,,,,,,,,,,,,,6100ca9fe498aed972793cd7,61036d2136f49f6fa4568580,2021-07-30_05h09.05.293,Simcolourproject_2stim_asymm_v5,2020.2.10,Win32,60,61025ae37ef11b136ea224fe,,,,,,,,,2743,90,-85,1,0,0,response3disk,,5,8,19,1,0,0,rectangle,8,19,1,0,0,8,19,1,0,0,0,82,82,22,1,,,,,,,,
,,,,,,,,,,,,,FF,,,,,,,,0.8531,,,,,,,,,,,,,,,,,,,,,,6100ca9fe498aed972793cd7,61036d2136f49f6fa4568580,2021-07-30_05h09.05.293,Simcolourproject_2stim_asymm_v5,2020.2.10,Win32,60,61025ae37ef11b136ea224fe,,,,,,,,,2184,145,70,1,0,0,response1disk,,6,12,2,1,0,0,rectangle,12,2,1,0,0,12,2,1,0,0,0,83,83,65,1,,,,,,,,
,,,,,,,,,,,,,FF,,,,,,,,1.3691,,,,,,,,,,,,,,,,,,,,,,6100ca9fe498aed972793cd7,61036d2136f49f6fa4568580,2021-07-30_05h09.05.293,Simcolourproject_2stim_asymm_v5,2020.2.10,Win32,60,61025ae37ef11b136ea224fe,,,,,,,,,3179,120,-60,1,0,0,response3disk,,5,16,14,1,0,0,rectangle,16,14,1,0,0,16,14,1,0,0,0,84,84,46,1,,,,,,,,
,,,,,,,,,,,,,FF,,,,,,,,1.0608,,,,,,,,,,,,,,,,,,,,,,6100ca9fe498aed972793cd7,61036d2136f49f6fa4568580,2021-07-30_05h09.05.293,Simcolourproject_2stim_asymm_v5,2020.2.10,Win32,60,61025ae37ef11b136ea224fe,,,,,,,,,203,137,80,1,0,0,response1disk,,6,0,10,1,0,0,rectangle,0,10,1,0,0,0,10,1,0,0,0,85,85,132,1,,,,,,,,
,,,,,,,,,,,,,FF,,,,,,,,2.1725,,,,,,,,,,,,,,,,,,,,,,6100ca9fe498aed972793cd7,61036d2136f49f6fa4568580,2021-07-30_05h09.05.293,Simcolourproject_2stim_asymm_v5,2020.2.10,Win32,60,61025ae37ef11b136ea224fe,,,,,,,,,2758,73,99,1,0,0,response1disk,,7,9,4,1,0,0,rectangle,9,4,1,0,0,9,4,1,0,0,0,86,86,71,1,,,,,,,,
,,,,,,,,,,,,,FF,,,,,,,,1.5356,,,,,,,,,,,,,,,,,,,,,,6100ca9fe498aed972793cd7,61036d2136f49f6fa4568580,2021-07-30_05h09.05.293,Simcolourproject_2stim_asymm_v5,2020.2.10,Win32,60,61025ae37ef11b136ea224fe,,,,,,,,,2724,-56,-119,1,0,0,response5disk,,3,-9,5,1,0,0,rectangle,-9,5,1,0,0,-9,5,1,0,0,0,87,87,134,1,,,,,,,,
,,,,,,,,,,,,,FF,,,,,,,,2.0517,,,,,,,,,,,,,,,,,,,,,,6100ca9fe498aed972793cd7,61036d2136f49f6fa4568580,2021-07-30_05h09.05.293,Simcolourproject_2stim_asymm_v5,2020.2.10,Win32,60,61025ae37ef11b136ea224fe,,,,,,,,,3308,52,115,1,0,0,response1disk,,7,21,14,1,0,0,rectangle,21,14,1,0,0,21,14,1,0,0,0,88,88,103,1,,,,,,,,
,,,,,,,,,,,,,FF,,,,,,,,0.6812,,,,,,,,,,,,,,,,,,,,,,6100ca9fe498aed972793cd7,61036d2136f49f6fa4568580,2021-07-30_05h09.05.293,Simcolourproject_2stim_asymm_v5,2020.2.10,Win32,60,61025ae37ef11b136ea224fe,,,,,,,,,489,54,99,1,0,0,response1disk,,7,15,6,1,0,0,rectangle,15,6,1,0,0,15,6,1,0,0,0,89,89,87,1,,,,,,,,
,,,,,,,,,,,,,FF,,,,,,,,1.8862,,,,,,,,,,,,,,,,,,,,,,6100ca9fe498aed972793cd7,61036d2136f49f6fa4568580,2021-07-30_05h09.05.293,Simcolourproject_2stim_asymm_v5,2020.2.10,Win32,60,61025ae37ef11b136ea224fe,,,,,,,,,3715,30,-115,1,0,0,response3disk,,4,-16,-10,1,0,0,rectangle,-16,-10,1,0,0,-16,-10,1,0,0,0,90,90,39,1,,,,,,,,
,,,,,,,,,,,,,FF,,,,,,,,3.3833,,,,,,,,,,,,,,,,,,,,,,6100ca9fe498aed972793cd7,61036d2136f49f6fa4568580,2021-07-30_05h09.05.293,Simcolourproject_2stim_asymm_v5,2020.2.10,Win32,60,61025ae37ef11b136ea224fe,,,,,,,,,1542,143,83,1,0,0,response1disk,,6,24,6,1,0,0,rectangle,24,6,1,0,0,24,6,1,0,0,0,91,91,73,1,,,,,,,,
,,,,,,,,,,,,,FF,,,,,,,,1.7409,,,,,,,,,,,,,,,,,,,,,,6100ca9fe498aed972793cd7,61036d2136f49f6fa4568580,2021-07-30_05h09.05.293,Simcolourproject_2stim_asymm_v5,2020.2.10,Win32,60,61025ae37ef11b136ea224fe,,,,,,,,,2489,93,-70,1,0,0,response3disk,,5,35,13,1,0,0,rectangle,35,13,1,0,0,35,13,1,0,0,0,92,92,34,1,,,,,,,,
,,,,,,,,,,,,,FF,,,,,,,,1.4441,,,,,,,,,,,,,,,,,,,,,,6100ca9fe498aed972793cd7,61036d2136f49f6fa4568580,2021-07-30_05h09.05.293,Simcolourproject_2stim_asymm_v5,2020.2.10,Win32,60,61025ae37ef11b136ea224fe,,,,,,,,,1500,63,123,1,0,0,response1disk,,7,-14,0,1,0,0,rectangle,-14,0,1,0,0,-14,0,1,0,0,0,93,93,77,1,,,,,,,,
,,,,,,,,,,,,,FF,,,,,,,,1.1194,,,,,,,,,,,,,,,,,,,,,,6100ca9fe498aed972793cd7,61036d2136f49f6fa4568580,2021-07-30_05h09.05.293,Simcolourproject_2stim_asymm_v5,2020.2.10,Win32,60,61025ae37ef11b136ea224fe,,,,,,,,,2508,37,73,1,0,0,response1disk,,7,3,1,1,0,0,rectangle,3,1,1,0,0,3,1,1,0,0,0,94,94,113,1,,,,,,,,
,,,,,,,,,,,,,FF,,,,,,,,2.2943,,,,,,,,,,,,,,,,,,,,,,6100ca9fe498aed972793cd7,61036d2136f49f6fa4568580,2021-07-30_05h09.05.293,Simcolourproject_2stim_asymm_v5,2020.2.10,Win32,60,61025ae37ef11b136ea224fe,,,,,,,,,3106,-44,-100,1,0,0,response5disk,,3,-21,-7,1,0,0,rectangle,-21,-7,1,0,0,-21,-7,1,0,0,0,95,95,59,1,,,,,,,,
,,,,,,,,,,,,,FF,,,,,,,,2.7508,,,,,,,,,,,,,,,,,,,,,,6100ca9fe498aed972793cd7,61036d2136f49f6fa4568580,2021-07-30_05h09.05.293,Simcolourproject_2stim_asymm_v5,2020.2.10,Win32,60,61025ae37ef11b136ea224fe,,,,,,,,,3948,108,-55,1,0,0,response3disk,,5,19,14,1,0,0,rectangle,19,14,1,0,0,19,14,1,0,0,0,96,96,55,1,,,,,,,,
,,,,,,,,,,,,,FF,,,,,,,,0.6284,,,,,,,,,,,,,,,,,,,,,,6100ca9fe498aed972793cd7,61036d2136f49f6fa4568580,2021-07-30_05h09.05.293,Simcolourproject_2stim_asymm_v5,2020.2.10,Win32,60,61025ae37ef11b136ea224fe,,,,,,,,,1595,42,79,1,0,0,response1disk,,7,29,10,1,0,0,rectangle,29,10,1,0,0,29,10,1,0,0,0,97,97,116,1,,,,,,,,
,,,,,,,,,,,,,FF,,,,,,,,0.6825,,,,,,,,,,,,,,,,,,,,,,6100ca9fe498aed972793cd7,61036d2136f49f6fa4568580,2021-07-30_05h09.05.293,Simcolourproject_2stim_asymm_v5,2020.2.10,Win32,60,61025ae37ef11b136ea224fe,,,,,,,,,1594,58,88,1,0,0,response1disk,,7,-8,13,1,0,0,rectangle,-8,13,1,0,0,-8,13,1,0,0,0,98,98,20,1,,,,,,,,
,,,,,,,,,,,,,FF,,,,,,,,1.2734,,,,,,,,,,,,,,,,,,,,,,6100ca9fe498aed972793cd7,61036d2136f49f6fa4568580,2021-07-30_05h09.05.293,Simcolourproject_2stim_asymm_v5,2020.2.10,Win32,60,61025ae37ef11b136ea224fe,,,,,,,,,2292,-117,56,1,0,0,response7disk,,1,11,-4,1,0,0,rectangle,11,-4,1,0,0,11,-4,1,0,0,0,99,99,16,1,,,,,,,,
,,,,,,,,,,,,,FF,,,,,,,,2.6373,,,,,,,,,,,,,,,,,,,,,,6100ca9fe498aed972793cd7,61036d2136f49f6fa4568580,2021-07-30_05h09.05.293,Simcolourproject_2stim_asymm_v5,2020.2.10,Win32,60,61025ae37ef11b136ea224fe,,,,,,,,,3871,41,139,1,0,0,response1disk,,7,2,2,1,0,0,rectangle,2,2,1,0,0,2,2,1,0,0,0,100,100,12,1,,,,,,,,
,,,,,,,,,,,,,FF,,,,,,,,0.6645,,,,,,,,,,,,,,,,,,,,,,6100ca9fe498aed972793cd7,61036d2136f49f6fa4568580,2021-07-30_05h09.05.293,Simcolourproject_2stim_asymm_v5,2020.2.10,Win32,60,61025ae37ef11b136ea224fe,,,,,,,,,2612,46,75,1,0,0,response1disk,,7,15,13,1,0,0,rectangle,15,13,1,0,0,15,13,1,0,0,0,101,101,150,1,,,,,,,,
,,,,,,,,,,,,,FF,,,,,,,,1.2775,,,,,,,,,,,,,,,,,,,,,,6100ca9fe498aed972793cd7,61036d2136f49f6fa4568580,2021-07-30_05h09.05.293,Simcolourproject_2stim_asymm_v5,2020.2.10,Win32,60,61025ae37ef11b136ea224fe,,,,,,,,,2019,119,74,1,0,0,response1disk,,6,21,12,1,0,0,rectangle,21,12,1,0,0,21,12,1,0,0,0,102,102,95,1,,,,,,,,
,,,,,,,,,,,,,FF,,,,,,,,2.4459,,,,,,,,,,,,,,,,,,,,,,6100ca9fe498aed972793cd7,61036d2136f49f6fa4568580,2021-07-30_05h09.05.293,Simcolourproject_2stim_asymm_v5,2020.2.10,Win32,60,61025ae37ef11b136ea224fe,,,,,,,,,327,122,50,1,0,0,response1disk,,6,-1,-9,1,0,0,rectangle,-1,-9,1,0,0,-1,-9,1,0,0,0,103,103,42,1,,,,,,,,
,,,,,,,,,,,,,FF,,,,,,,,1.1986,,,,,,,,,,,,,,,,,,,,,,6100ca9fe498aed972793cd7,61036d2136f49f6fa4568580,2021-07-30_05h09.05.293,Simcolourproject_2stim_asymm_v5,2020.2.10,Win32,60,61025ae37ef11b136ea224fe,,,,,,,,,2423,56,-119,1,0,0,response3disk,,4,2,2,1,0,0,rectangle,2,2,1,0,0,2,2,1,0,0,0,104,104,143,1,,,,,,,,
,,,,,,,,,,,,,FF,,,,,,,,1.3483,,,,,,,,,,,,,,,,,,,,,,6100ca9fe498aed972793cd7,61036d2136f49f6fa4568580,2021-07-30_05h09.05.293,Simcolourproject_2stim_asymm_v5,2020.2.10,Win32,60,61025ae37ef11b136ea224fe,,,,,,,,,1861,56,95,1,0,0,response1disk,,7,4,9,1,0,0,rectangle,4,9,1,0,0,4,9,1,0,0,0,105,105,60,1,,,,,,,,
,,,,,,,,,,,,,FF,,,,,,,,1.6761,,,,,,,,,,,,,,,,,,,,,,6100ca9fe498aed972793cd7,61036d2136f49f6fa4568580,2021-07-30_05h09.05.293,Simcolourproject_2stim_asymm_v5,2020.2.10,Win32,60,61025ae37ef11b136ea224fe,,,,,,,,,1134,122,-90,1,0,0,response3disk,,5,24,-3,1,0,0,rectangle,24,-3,1,0,0,24,-3,1,0,0,0,106,106,52,1,,,,,,,,
,,,,,,,,,,,,,FF,,,,,,,,3.013,,,,,,,,,,,,,,,,,,,,,,6100ca9fe498aed972793cd7,61036d2136f49f6fa4568580,2021-07-30_05h09.05.293,Simcolourproject_2stim_asymm_v5,2020.2.10,Win32,60,61025ae37ef11b136ea224fe,,,,,,,,,164,-108,-61,1,0,0,response5disk,,2,-31,-11,1,0,0,rectangle,-31,-11,1,0,0,-31,-11,1,0,0,0,107,107,45,1,,,,,,,,
,,,,,,,,,,,,,FF,,,,,,,,1.1611,,,,,,,,,,,,,,,,,,,,,,6100ca9fe498aed972793cd7,61036d2136f49f6fa4568580,2021-07-30_05h09.05.293,Simcolourproject_2stim_asymm_v5,2020.2.10,Win32,60,61025ae37ef11b136ea224fe,,,,,,,,,1587,56,121,1,0,0,response1disk,,7,-5,1,1,0,0,rectangle,-5,1,1,0,0,-5,1,1,0,0,0,108,108,41,1,,,,,,,,
,,,,,,,,,,,,,FF,,,,,,,,0.8532,,,,,,,,,,,,,,,,,,,,,,6100ca9fe498aed972793cd7,61036d2136f49f6fa4568580,2021-07-30_05h09.05.293,Simcolourproject_2stim_asymm_v5,2020.2.10,Win32,60,61025ae37ef11b136ea224fe,,,,,,,,,3234,38,91,1,0,0,response1disk,,7,-13,0,1,0,0,rectangle,-13,0,1,0,0,-13,0,1,0,0,0,109,109,2,1,,,,,,,,
,,,,,,,,,,,,,FF,,,,,,,,2.1639,,,,,,,,,,,,,,,,,,,,,,6100ca9fe498aed972793cd7,61036d2136f49f6fa4568580,2021-07-30_05h09.05.293,Simcolourproject_2stim_asymm_v5,2020.2.10,Win32,60,61025ae37ef11b136ea224fe,,,,,,,,,31,51,95,1,0,0,response1disk,,7,-3,-21,1,0,0,rectangle,-3,-21,1,0,0,-3,-21,1,0,0,0,110,110,8,1,,,,,,,,
,,,,,,,,,,,,,FF,,,,,,,,1.3566,,,,,,,,,,,,,,,,,,,,,,6100ca9fe498aed972793cd7,61036d2136f49f6fa4568580,2021-07-30_05h09.05.293,Simcolourproject_2stim_asymm_v5,2020.2.10,Win32,60,61025ae37ef11b136ea224fe,,,,,,,,,708,42,84,1,0,0,response1disk,,7,-1,-16,1,0,0,rectangle,-1,-16,1,0,0,-1,-16,1,0,0,0,111,111,30,1,,,,,,,,
,,,,,,,,,,,,,FF,,,,,,,,1.5523,,,,,,,,,,,,,,,,,,,,,,6100ca9fe498aed972793cd7,61036d2136f49f6fa4568580,2021-07-30_05h09.05.293,Simcolourproject_2stim_asymm_v5,2020.2.10,Win32,60,61025ae37ef11b136ea224fe,,,,,,,,,2300,-52,-92,1,0,0,response5disk,,3,-14,3,1,0,0,rectangle,-14,3,1,0,0,-14,3,1,0,0,0,112,112,56,1,,,,,,,,
,,,,,,,,,,,,,FF,,,,,,,,1.3566,,,,,,,,,,,,,,,,,,,,,,6100ca9fe498aed972793cd7,61036d2136f49f6fa4568580,2021-07-30_05h09.05.293,Simcolourproject_2stim_asymm_v5,2020.2.10,Win32,60,61025ae37ef11b136ea224fe,,,,,,,,,14,52,-120,1,0,0,response3disk,,4,21,-4,1,0,0,rectangle,21,-4,1,0,0,21,-4,1,0,0,0,113,113,66,1,,,,,,,,
,,,,,,,,,,,,,FF,,,,,,,,1.236,,,,,,,,,,,,,,,,,,,,,,6100ca9fe498aed972793cd7,61036d2136f49f6fa4568580,2021-07-30_05h09.05.293,Simcolourproject_2stim_asymm_v5,2020.2.10,Win32,60,61025ae37ef11b136ea224fe,,,,,,,,,173,-82,-41,1,0,0,response5disk,,2,-45,10,1,0,0,rectangle,-45,10,1,0,0,-45,10,1,0,0,0,114,114,63,1,,,,,,,,
,,,,,,,,,,,,,FF,,,,,,,,2.2472,,,,,,,,,,,,,,,,,,,,,,6100ca9fe498aed972793cd7,61036d2136f49f6fa4568580,2021-07-30_05h09.05.293,Simcolourproject_2stim_asymm_v5,2020.2.10,Win32,60,61025ae37ef11b136ea224fe,,,,,,,,,82,33,-119,1,0,0,response3disk,,4,12,0,1,0,0,rectangle,12,0,1,0,0,12,0,1,0,0,0,115,115,27,1,,,,,,,,
,,,,,,,,,,,,,FF,,,,,,,,1.1779,,,,,,,,,,,,,,,,,,,,,,6100ca9fe498aed972793cd7,61036d2136f49f6fa4568580,2021-07-30_05h09.05.293,Simcolourproject_2stim_asymm_v5,2020.2.10,Win32,60,61025ae37ef11b136ea224fe,,,,,,,,,1037,124,-33,1,0,0,response3disk,,5,13,9,1,0,0,rectangle,-98,41,1,0,0,0,-12,1,0,0,0,116,116,19,1,,response7disk_3,TRUE,1,1,"[117,160,279,228,292,41,303,278,268,153,152,247,43,254,65,10,29,129,212,73]",1.2194,rectangle
,,,,,,,,,,,,,FF,,,,,,,,3.2917,,,,,,,,,,,,,,,,,,,,,,6100ca9fe498aed972793cd7,61036d2136f49f6fa4568580,2021-07-30_05h09.05.293,Simcolourproject_2stim_asymm_v5,2020.2.10,Win32,60,61025ae37ef11b136ea224fe,,,,,,,,,3683,47,-104,1,0,0,response3disk,,4,-4,-3,1,0,0,rectangle,-4,-3,1,0,0,-4,-3,1,0,0,0,117,117,157,1,,,,,,,,
,,,,,,,,,,,,,FF,,,,,,,,2.3305,,,,,,,,,,,,,,,,,,,,,,6100ca9fe498aed972793cd7,61036d2136f49f6fa4568580,2021-07-30_05h09.05.293,Simcolourproject_2stim_asymm_v5,2020.2.10,Win32,60,61025ae37ef11b136ea224fe,,,,,,,,,2476,130,46,1,0,0,response1disk,,6,26,10,1,0,0,rectangle,26,10,1,0,0,26,10,1,0,0,0,118,118,14,1,,,,,,,,
,,,,,,,,,,,,,FF,,,,,,,,1.1361,,,,,,,,,,,,,,,,,,,,,,6100ca9fe498aed972793cd7,61036d2136f49f6fa4568580,2021-07-30_05h09.05.293,Simcolourproject_2stim_asymm_v5,2020.2.10,Win32,60,61025ae37ef11b136ea224fe,,,,,,,,,3689,52,-126,1,0,0,response3disk,,4,-7,-15,1,0,0,rectangle,-7,-15,1,0,0,-7,-15,1,0,0,0,119,119,127,1,,,,,,,,
,,,,,,,,,,,,,FF,,,,,,,,1.9144,,,,,,,,,,,,,,,,,,,,,,6100ca9fe498aed972793cd7,61036d2136f49f6fa4568580,2021-07-30_05h09.05.293,Simcolourproject_2stim_asymm_v5,2020.2.10,Win32,60,61025ae37ef11b136ea224fe,,,,,,,,,1892,-124,-46,1,0,0,response5disk,,2,-29,3,1,0,0,rectangle,-29,3,1,0,0,-29,3,1,0,0,0,120,120,4,1,,,,,,,,
,,,,,,,,,,,,,FF,,,,,,,,1.0321,,,,,,,,,,,,,,,,,,,,,,6100ca9fe498aed972793cd7,61036d2136f49f6fa4568580,2021-07-30_05h09.05.293,Simcolourproject_2stim_asymm_v5,2020.2.10,Win32,60,61025ae37ef11b136ea224fe,,,,,,,,,2289,53,-131,1,0,0,response3disk,,4,13,-7,1,0,0,rectangle,13,-7,1,0,0,13,-7,1,0,0,0,121,121,109,1,,,,,,,,
,,,,,,,,,,,,,FF,,,,,,,,1.2109,,,,,,,,,,,,,,,,,,,,,,6100ca9fe498aed972793cd7,61036d2136f49f6fa4568580,2021-07-30_05h09.05.293,Simcolourproject_2stim_asymm_v5,2020.2.10,Win32,60,61025ae37ef11b136ea224fe,,,,,,,,,2943,-43,-84,1,0,0,response5disk,,3,-22,-13,1,0,0,rectangle,-22,-13,1,0,0,-22,-13,1,0,0,0,122,122,40,1,,,,,,,,
,,,,,,,,,,,,,FF,,,,,,,,2.2223,,,,,,,,,,,,,,,,,,,,,,6100ca9fe498aed972793cd7,61036d2136f49f6fa4568580,2021-07-30_05h09.05.293,Simcolourproject_2stim_asymm_v5,2020.2.10,Win32,60,61025ae37ef11b136ea224fe,,,,,,,,,3220,111,-54,1,0,0,response3disk,,5,2,9,1,0,0,rectangle,2,9,1,0,0,2,9,1,0,0,0,123,123,147,1,,,,,,,,
,,,,,,,,,,,,,FF,,,,,,,,2.6052,,,,,,,,,,,,,,,,,,,,,,6100ca9fe498aed972793cd7,61036d2136f49f6fa4568580,2021-07-30_05h09.05.293,Simcolourproject_2stim_asymm_v5,2020.2.10,Win32,60,61025ae37ef11b136ea224fe,,,,,,,,,1978,102,-38,1,0,0,response3disk,,5,31,12,1,0,0,rectangle,31,12,1,0,0,31,12,1,0,0,0,124,124,135,1,,,,,,,,
,,,,,,,,,,,,,FF,,,,,,,,1.0946,,,,,,,,,,,,,,,,,,,,,,6100ca9fe498aed972793cd7,61036d2136f49f6fa4568580,2021-07-30_05h09.05.293,Simcolourproject_2stim_asymm_v5,2020.2.10,Win32,60,61025ae37ef11b136ea224fe,,,,,,,,,145,91,59,1,0,0,response1disk,,6,25,12,1,0,0,rectangle,25,12,1,0,0,25,12,1,0,0,0,125,125,35,1,,,,,,,,
,,,,,,,,,,,,,FF,,,,,,,,1.5814,,,,,,,,,,,,,,,,,,,,,,6100ca9fe498aed972793cd7,61036d2136f49f6fa4568580,2021-07-30_05h09.05.293,Simcolourproject_2stim_asymm_v5,2020.2.10,Win32,60,61025ae37ef11b136ea224fe,,,,,,,,,2589,121,56,1,0,0,response1disk,,6,-1,-16,1,0,0,rectangle,-1,-16,1,0,0,-1,-16,1,0,0,0,126,126,88,1,,,,,,,,
,,,,,,,,,,,,,FF,,,,,,,,2.3762,,,,,,,,,,,,,,,,,,,,,,6100ca9fe498aed972793cd7,61036d2136f49f6fa4568580,2021-07-30_05h09.05.293,Simcolourproject_2stim_asymm_v5,2020.2.10,Win32,60,61025ae37ef11b136ea224fe,,,,,,,,,1712,107,52,1,0,0,response1disk,,6,14,2,1,0,0,rectangle,14,2,1,0,0,14,2,1,0,0,0,127,127,7,1,,,,,,,,
,,,,,,,,,,,,,FF,,,,,,,,0.957,,,,,,,,,,,,,,,,,,,,,,6100ca9fe498aed972793cd7,61036d2136f49f6fa4568580,2021-07-30_05h09.05.293,Simcolourproject_2stim_asymm_v5,2020.2.10,Win32,60,61025ae37ef11b136ea224fe,,,,,,,,,911,62,115,1,0,0,response1disk,,7,6,13,1,0,0,rectangle,118,60,1,0,0,8,-14,1,0,0,0,128,128,68,1,,response1disk_3,TRUE,6,6,"[117,160,279,228,292,41,303,278,268,153,152,247,43,254,65,10,29,129,212,73]",1.4564,rectangle
,,,,,,,,,,,,,FF,,,,,,,,3.9201,,,,,,,,,,,,,,,,,,,,,,6100ca9fe498aed972793cd7,61036d2136f49f6fa4568580,2021-07-30_05h09.05.293,Simcolourproject_2stim_asymm_v5,2020.2.10,Win32,60,61025ae37ef11b136ea224fe,,,,,,,,,2173,112,-52,1,0,0,response3disk,,5,17,2,1,0,0,rectangle,17,2,1,0,0,17,2,1,0,0,0,129,129,93,1,,,,,,,,
,,,,,,,,,,,,,FF,,,,,,,,1.2579,,,,,,,,,,,,,,,,,,,,,,6100ca9fe498aed972793cd7,61036d2136f49f6fa4568580,2021-07-30_05h09.05.293,Simcolourproject_2stim_asymm_v5,2020.2.10,Win32,60,61025ae37ef11b136ea224fe,,,,,,,,,853,102,43,1,0,0,response1disk,,6,-2,6,1,0,0,rectangle,-2,6,1,0,0,-2,6,1,0,0,0,130,130,38,1,,,,,,,,
,,,,,,,,,,,,,FF,,,,,,,,0.9493,,,,,,,,,,,,,,,,,,,,,,6100ca9fe498aed972793cd7,61036d2136f49f6fa4568580,2021-07-30_05h09.05.293,Simcolourproject_2stim_asymm_v5,2020.2.10,Win32,60,61025ae37ef11b136ea224fe,,,,,,,,,2205,39,83,1,0,0,response1disk,,7,-2,17,1,0,0,rectangle,-2,17,1,0,0,-2,17,1,0,0,0,131,131,124,1,,,,,,,,
,,,,,,,,,,,,,FF,,,,,,,,4.1601,,,,,,,,,,,,,,,,,,,,,,6100ca9fe498aed972793cd7,61036d2136f49f6fa4568580,2021-07-30_05h09.05.293,Simcolourproject_2stim_asymm_v5,2020.2.10,Win32,60,61025ae37ef11b136ea224fe,,,,,,,,,134,169,47,1,0,0,response1disk,,6,-6,1,1,0,0,rectangle,-6,1,1,0,0,-6,1,1,0,0,0,132,132,18,1,,,,,,,,
,,,,,,,,,,,,,FF,,,,,,,,1.5813,,,,,,,,,,,,,,,,,,,,,,6100ca9fe498aed972793cd7,61036d2136f49f6fa4568580,2021-07-30_05h09.05.293,Simcolourproject_2stim_asymm_v5,2020.2.10,Win32,60,61025ae37ef11b136ea224fe,,,,,,,,,4303,133,57,1,0,0,response1disk,,6,10,9,1,0,0,rectangle,10,9,1,0,0,10,9,1,0,0,0,133,133,146,1,,,,,,,,
,,,,,,,,,,,,,FF,,,,,,,,1.7021,,,,,,,,,,,,,,,,,,,,,,6100ca9fe498aed972793cd7,61036d2136f49f6fa4568580,2021-07-30_05h09.05.293,Simcolourproject_2stim_asymm_v5,2020.2.10,Win32,60,61025ae37ef11b136ea224fe,,,,,,,,,269,120,38,1,0,0,response1disk,,6,29,-11,1,0,0,rectangle,29,-11,1,0,0,29,-11,1,0,0,0,134,134,49,1,,,,,,,,
,,,,,,,,,,,,,FF,,,,,,,,1.1278,,,,,,,,,,,,,,,,,,,,,,6100ca9fe498aed972793cd7,61036d2136f49f6fa4568580,2021-07-30_05h09.05.293,Simcolourproject_2stim_asymm_v5,2020.2.10,Win32,60,61025ae37ef11b136ea224fe,,,,,,,,,2557,38,97,1,0,0,response1disk,,7,3,-1,1,0,0,rectangle,3,-1,1,0,0,3,-1,1,0,0,0,135,135,33,1,,,,,,,,
,,,,,,,,,,,,,FF,,,,,,,,1.0446,,,,,,,,,,,,,,,,,,,,,,6100ca9fe498aed972793cd7,61036d2136f49f6fa4568580,2021-07-30_05h09.05.293,Simcolourproject_2stim_asymm_v5,2020.2.10,Win32,60,61025ae37ef11b136ea224fe,,,,,,,,,272,103,32,1,0,0,response1disk,,6,-8,-13,1,0,0,rectangle,-8,-13,1,0,0,-8,-13,1,0,0,0,136,136,28,1,,,,,,,,
,,,,,,,,,,,,,FF,,,,,,,,2.0059,,,,,,,,,,,,,,,,,,,,,,6100ca9fe498aed972793cd7,61036d2136f49f6fa4568580,2021-07-30_05h09.05.293,Simcolourproject_2stim_asymm_v5,2020.2.10,Win32,60,61025ae37ef11b136ea224fe,,,,,,,,,2251,110,-55,1,0,0,response3disk,,5,16,0,1,0,0,rectangle,16,0,1,0,0,16,0,1,0,0,0,137,137,91,1,,,,,,,,
,,,,,,,,,,,,,FF,,,,,,,,0.7116,,,,,,,,,,,,,,,,,,,,,,6100ca9fe498aed972793cd7,61036d2136f49f6fa4568580,2021-07-30_05h09.05.293,Simcolourproject_2stim_asymm_v5,2020.2.10,Win32,60,61025ae37ef11b136ea224fe,,,,,,,,,1282,46,86,1,0,0,response1disk,,7,3,-19,1,0,0,rectangle,3,-19,1,0,0,3,-19,1,0,0,0,138,138,153,1,,,,,,,,
,,,,,,,,,,,,,FF,,,,,,,,0.806,,,,,,,,,,,,,,,,,,,,,,6100ca9fe498aed972793cd7,61036d2136f49f6fa4568580,2021-07-30_05h09.05.293,Simcolourproject_2stim_asymm_v5,2020.2.10,Win32,60,61025ae37ef11b136ea224fe,,,,,,,,,176,59,108,1,0,0,response1disk,,7,4,6,1,0,0,rectangle,4,6,1,0,0,4,6,1,0,0,0,139,139,117,1,,,,,,,,
,,,,,,,,,,,,,FF,,,,,,,,0.7199,,,,,,,,,,,,,,,,,,,,,,6100ca9fe498aed972793cd7,61036d2136f49f6fa4568580,2021-07-30_05h09.05.293,Simcolourproject_2stim_asymm_v5,2020.2.10,Win32,60,61025ae37ef11b136ea224fe,,,,,,,,,4341,29,84,1,0,0,response1disk,,7,-14,-1,1,0,0,rectangle,-14,-1,1,0,0,-14,-1,1,0,0,0,140,140,144,1,,,,,,,,
,,,,,,,,,,,,,FF,,,,,,,,0.9281,,,,,,,,,,,,,,,,,,,,,,6100ca9fe498aed972793cd7,61036d2136f49f6fa4568580,2021-07-30_05h09.05.293,Simcolourproject_2stim_asymm_v5,2020.2.10,Win32,60,61025ae37ef11b136ea224fe,,,,,,,,,404,56,96,1,0,0,response1disk,,7,-3,-5,1,0,0,rectangle,-3,-5,1,0,0,-3,-5,1,0,0,0,141,141,107,1,,,,,,,,
,,,,,,,,,,,,,FF,,,,,,,,1.336,,,,,,,,,,,,,,,,,,,,,,6100ca9fe498aed972793cd7,61036d2136f49f6fa4568580,2021-07-30_05h09.05.293,Simcolourproject_2stim_asymm_v5,2020.2.10,Win32,60,61025ae37ef11b136ea224fe,,,,,,,,,2440,120,54,1,0,0,response1disk,,6,-9,-5,1,0,0,rectangle,-9,-5,1,0,0,-9,-5,1,0,0,0,142,142,44,1,,,,,,,,
,,,,,,,,,,,,,FF,,,,,,,,0.9988,,,,,,,,,,,,,,,,,,,,,,6100ca9fe498aed972793cd7,61036d2136f49f6fa4568580,2021-07-30_05h09.05.293,Simcolourproject_2stim_asymm_v5,2020.2.10,Win32,60,61025ae37ef11b136ea224fe,,,,,,,,,3512,-72,-118,1,0,0,response5disk,,3,-10,-5,1,0,0,rectangle,-10,-5,1,0,0,-10,-5,1,0,0,0,143,143,13,1,,,,,,,,
,,,,,,,,,,,,,FF,,,,,,,,0.9695,,,,,,,,,,,,,,,,,,,,,,6100ca9fe498aed972793cd7,61036d2136f49f6fa4568580,2021-07-30_05h09.05.293,Simcolourproject_2stim_asymm_v5,2020.2.10,Win32,60,61025ae37ef11b136ea224fe,,,,,,,,,482,104,51,1,0,0,response1disk,,6,11,-2,1,0,0,rectangle,11,-2,1,0,0,11,-2,1,0,0,0,144,144,3,1,,,,,,,,
,,,,,,,,,,,,,FF,,,,,,,,2.3221,,,,,,,,,,,,,,,,,,,,,,6100ca9fe498aed972793cd7,61036d2136f49f6fa4568580,2021-07-30_05h09.05.293,Simcolourproject_2stim_asymm_v5,2020.2.10,Win32,60,61025ae37ef11b136ea224fe,,,,,,,,,865,61,113,1,0,0,response1disk,,7,16,4,1,0,0,rectangle,16,4,1,0,0,16,4,1,0,0,0,145,145,121,1,,,,,,,,
,,,,,,,,,,,,,FF,,,,,,,,0.7533,,,,,,,,,,,,,,,,,,,,,,6100ca9fe498aed972793cd7,61036d2136f49f6fa4568580,2021-07-30_05h09.05.293,Simcolourproject_2stim_asymm_v5,2020.2.10,Win32,60,61025ae37ef11b136ea224fe,,,,,,,,,314,44,90,1,0,0,response1disk,,7,5,3,1,0,0,rectangle,5,3,1,0,0,5,3,1,0,0,0,146,146,158,1,,,,,,,,
,,,,,,,,,,,,,FF,,,,,,,,0.8438,,,,,,,,,,,,,,,,,,,,,,6100ca9fe498aed972793cd7,61036d2136f49f6fa4568580,2021-07-30_05h09.05.293,Simcolourproject_2stim_asymm_v5,2020.2.10,Win32,60,61025ae37ef11b136ea224fe,,,,,,,,,1293,-45,-104,1,0,0,response5disk,,3,-11,1,1,0,0,rectangle,-11,1,1,0,0,-11,1,1,0,0,0,147,147,130,1,,,,,,,,
,,,,,,,,,,,,,FF,,,,,,,,1.1653,,,,,,,,,,,,,,,,,,,,,,6100ca9fe498aed972793cd7,61036d2136f49f6fa4568580,2021-07-30_05h09.05.293,Simcolourproject_2stim_asymm_v5,2020.2.10,Win32,60,61025ae37ef11b136ea224fe,,,,,,,,,4007,68,-125,1,0,0,response3disk,,4,23,-12,1,0,0,rectangle,23,-12,1,0,0,23,-12,1,0,0,0,148,148,111,1,,,,,,,,
,,,,,,,,,,,,,FF,,,,,,,,1.324,,,,,,,,,,,,,,,,,,,,,,6100ca9fe498aed972793cd7,61036d2136f49f6fa4568580,2021-07-30_05h09.05.293,Simcolourproject_2stim_asymm_v5,2020.2.10,Win32,60,61025ae37ef11b136ea224fe,,,,,,,,,1009,98,-36,1,0,0,response3disk,,5,26,2,1,0,0,rectangle,26,2,1,0,0,26,2,1,0,0,0,149,149,31,1,,,,,,,,
,,,,,,,,,,,,,FF,,,,,,,,1.0945,,,,,,,,,,,,,,,,,,,,,,6100ca9fe498aed972793cd7,61036d2136f49f6fa4568580,2021-07-30_05h09.05.293,Simcolourproject_2stim_asymm_v5,2020.2.10,Win32,60,61025ae37ef11b136ea224fe,,,,,,,,,1312,49,-75,1,0,0,response3disk,,4,2,-11,1,0,0,rectangle,2,-11,1,0,0,2,-11,1,0,0,0,150,150,151,1,,,,,,,,
,,,,,,,,,,,,,FF,,,,,,,,1.8227,,,,,,,,,,,,,,,,,,,,,,6100ca9fe498aed972793cd7,61036d2136f49f6fa4568580,2021-07-30_05h09.05.293,Simcolourproject_2stim_asymm_v5,2020.2.10,Win32,60,61025ae37ef11b136ea224fe,,,,,,,,,1773,89,-51,1,0,0,response3disk,,5,20,-10,1,0,0,rectangle,117,64,1,0,0,18,8,1,0,0,0,151,151,23,1,,response1disk_3,TRUE,6,6,"[117,160,279,228,292,41,303,278,268,153,152,247,43,254,65,10,29,129,212,73]",1.0115,rectangle
,,,,,,,,,,,,,FF,,,,,,,,1.5066,,,,,,,,,,,,,,,,,,,,,,6100ca9fe498aed972793cd7,61036d2136f49f6fa4568580,2021-07-30_05h09.05.293,Simcolourproject_2stim_asymm_v5,2020.2.10,Win32,60,61025ae37ef11b136ea224fe,,,,,,,,,2950,93,-60,1,0,0,response3disk,,5,1,-4,1,0,0,rectangle,-67,-110,1,0,0,-4,12,1,0,0,0,152,152,125,1,,response5disk_3,TRUE,3,3,"[117,160,279,228,292,41,303,278,268,153,152,247,43,254,65,10,29,129,212,73]",1.7267,rectangle
,,,,,,,,,,,,,FF,,,,,,,,1.2901,,,,,,,,,,,,,,,,,,,,,,6100ca9fe498aed972793cd7,61036d2136f49f6fa4568580,2021-07-30_05h09.05.293,Simcolourproject_2stim_asymm_v5,2020.2.10,Win32,60,61025ae37ef11b136ea224fe,,,,,,,,,2078,103,-47,1,0,0,response3disk,,5,9,-9,1,0,0,rectangle,9,-9,1,0,0,9,-9,1,0,0,0,153,153,36,1,,,,,,,,
,,,,,,,,,,,,,FF,,,,,,,,1.8428,,,,,,,,,,,,,,,,,,,,,,6100ca9fe498aed972793cd7,61036d2136f49f6fa4568580,2021-07-30_05h09.05.293,Simcolourproject_2stim_asymm_v5,2020.2.10,Win32,60,61025ae37ef11b136ea224fe,,,,,,,,,4368,-144,74,1,0,0,response7disk,,1,-8,-8,1,0,0,rectangle,-8,-8,1,0,0,-8,-8,1,0,0,0,154,154,72,1,,,,,,,,
,,,,,,,,,,,,,FF,,,,,,,,2.6297,,,,,,,,,,,,,,,,,,,,,,6100ca9fe498aed972793cd7,61036d2136f49f6fa4568580,2021-07-30_05h09.05.293,Simcolourproject_2stim_asymm_v5,2020.2.10,Win32,60,61025ae37ef11b136ea224fe,,,,,,,,,4139,47,111,1,0,0,response1disk,,7,-3,-9,1,0,0,rectangle,-3,-9,1,0,0,-3,-9,1,0,0,0,155,155,152,1,,,,,,,,
,,,,,,,,,,,,,FF,,,,,,,,1.5564,,,,,,,,,,,,,,,,,,,,,,6100ca9fe498aed972793cd7,61036d2136f49f6fa4568580,2021-07-30_05h09.05.293,Simcolourproject_2stim_asymm_v5,2020.2.10,Win32,60,61025ae37ef11b136ea224fe,,,,,,,,,3861,80,-68,1,0,0,response3disk,,5,18,-4,1,0,0,rectangle,18,-4,1,0,0,18,-4,1,0,0,0,156,156,120,1,,,,,,,,
,,,,,,,,,,,,,FF,,,,,,,,3.4249,,,,,,,,,,,,,,,,,,,,,,6100ca9fe498aed972793cd7,61036d2136f49f6fa4568580,2021-07-30_05h09.05.293,Simcolourproject_2stim_asymm_v5,2020.2.10,Win32,60,61025ae37ef11b136ea224fe,,,,,,,,,929,82,-43,1,0,0,response3disk,,5,21,18,1,0,0,rectangle,21,18,1,0,0,21,18,1,0,0,0,157,157,112,1,,,,,,,,
,,,,,,,,,,,,,FF,,,,,,,,2.3804,,,,,,,,,,,,,,,,,,,,,,6100ca9fe498aed972793cd7,61036d2136f49f6fa4568580,2021-07-30_05h09.05.293,Simcolourproject_2stim_asymm_v5,2020.2.10,Win32,60,61025ae37ef11b136ea224fe,,,,,,,,,750,109,51,1,0,0,response1disk,,6,13,16,1,0,0,rectangle,13,16,1,0,0,13,16,1,0,0,0,158,158,32,1,,,,,,,,
,,,,,,,,,,,,,FF,,,,,,,,0.6368,,,,,,,,,,,,,,,,,,,,,,6100ca9fe498aed972793cd7,61036d2136f49f6fa4568580,2021-07-30_05h09.05.293,Simcolourproject_2stim_asymm_v5,2020.2.10,Win32,60,61025ae37ef11b136ea224fe,,,,,,,,,3323,27,100,1,0,0,response1disk,,7,-3,-16,1,0,0,rectangle,103,49,1,0,0,47,-12,1,0,0,0,159,159,99,1,,response1disk_3,TRUE,6,6,"[117,160,279,228,292,41,303,278,268,153,152,247,43,254,65,10,29,129,212,73]",1.0321,rectangle
,,,,,,,,,,,,,FF,,,,,,,,2.135,,,,,,,,,,,,,,,,,,,,,,6100ca9fe498aed972793cd7,61036d2136f49f6fa4568580,2021-07-30_05h09.05.293,Simcolourproject_2stim_asymm_v5,2020.2.10,Win32,60,61025ae37ef11b136ea224fe,,,,,,,,,2656,110,59,1,0,0,response1disk,,6,5,-7,1,0,0,rectangle,5,-7,1,0,0,5,-7,1,0,0,1,0,160,29,1,,,,,,,,
,,,,,,,,,,,,,FF,,,,,,,,0.9614,,,,,,,,,,,,,,,,,,,,,,6100ca9fe498aed972793cd7,61036d2136f49f6fa4568580,2021-07-30_05h09.05.293,Simcolourproject_2stim_asymm_v5,2020.2.10,Win32,60,61025ae37ef11b136ea224fe,,,,,,,,,4027,-41,-95,1,0,0,response5disk,,3,-15,-1,1,0,0,rectangle,-15,-1,1,0,0,-15,-1,1,0,0,1,1,161,107,1,,,,,,,,
,,,,,,,,,,,,,FF,,,,,,,,1.2234,,,,,,,,,,,,,,,,,,,,,,6100ca9fe498aed972793cd7,61036d2136f49f6fa4568580,2021-07-30_05h09.05.293,Simcolourproject_2stim_asymm_v5,2020.2.10,Win32,60,61025ae37ef11b136ea224fe,,,,,,,,,4348,62,-129,1,0,0,response3disk,,4,-10,4,1,0,0,rectangle,-10,4,1,0,0,-10,4,1,0,0,1,2,162,109,1,,,,,,,,
,,,,,,,,,,,,,FF,,,,,,,,1.7728,,,,,,,,,,,,,,,,,,,,,,6100ca9fe498aed972793cd7,61036d2136f49f6fa4568580,2021-07-30_05h09.05.293,Simcolourproject_2stim_asymm_v5,2020.2.10,Win32,60,61025ae37ef11b136ea224fe,,,,,,,,,3118,57,115,1,0,0,response1disk,,7,10,5,1,0,0,rectangle,10,5,1,0,0,10,5,1,0,0,1,3,163,76,1,,,,,,,,
,,,,,,,,,,,,,FF,,,,,,,,1.4648,,,,,,,,,,,,,,,,,,,,,,6100ca9fe498aed972793cd7,61036d2136f49f6fa4568580,2021-07-30_05h09.05.293,Simcolourproject_2stim_asymm_v5,2020.2.10,Win32,60,61025ae37ef11b136ea224fe,,,,,,,,,4031,126,-56,1,0,0,response3disk,,5,25,6,1,0,0,rectangle,25,6,1,0,0,25,6,1,0,0,1,4,164,65,1,,,,,,,,
,,,,,,,,,,,,,FF,,,,,,,,3.4665,,,,,,,,,,,,,,,,,,,,,,6100ca9fe498aed972793cd7,61036d2136f49f6fa4568580,2021-07-30_05h09.05.293,Simcolourproject_2stim_asymm_v5,2020.2.10,Win32,60,61025ae37ef11b136ea224fe,,,,,,,,,1755,-43,-131,1,0,0,response5disk,,3,-17,-1,1,0,0,rectangle,-17,-1,1,0,0,-17,-1,1,0,0,1,5,165,5,1,,,,,,,,
,,,,,,,,,,,,,FF,,,,,,,,1.4026,,,,,,,,,,,,,,,,,,,,,,6100ca9fe498aed972793cd7,61036d2136f49f6fa4568580,2021-07-30_05h09.05.293,Simcolourproject_2stim_asymm_v5,2020.2.10,Win32,60,61025ae37ef11b136ea224fe,,,,,,,,,2875,115,59,1,0,0,response1disk,,6,18,-8,1,0,0,rectangle,18,-8,1,0,0,18,-8,1,0,0,1,6,166,111,1,,,,,,,,
,,,,,,,,,,,,,FF,,,,,,,,1.2651,,,,,,,,,,,,,,,,,,,,,,6100ca9fe498aed972793cd7,61036d2136f49f6fa4568580,2021-07-30_05h09.05.293,Simcolourproject_2stim_asymm_v5,2020.2.10,Win32,60,61025ae37ef11b136ea224fe,,,,,,,,,23,32,122,1,0,0,response1disk,,7,5,8,1,0,0,rectangle,5,8,1,0,0,5,8,1,0,0,1,7,167,127,1,,,,,,,,
,,,,,,,,,,,,,FF,,,,,,,,0.7325,,,,,,,,,,,,,,,,,,,,,,6100ca9fe498aed972793cd7,61036d2136f49f6fa4568580,2021-07-30_05h09.05.293,Simcolourproject_2stim_asymm_v5,2020.2.10,Win32,60,61025ae37ef11b136ea224fe,,,,,,,,,1002,53,96,1,0,0,response1disk,,7,13,19,1,0,0,rectangle,13,19,1,0,0,13,19,1,0,0,1,8,168,94,1,,,,,,,,
,,,,,,,,,,,,,FF,,,,,,,,3.8744,,,,,,,,,,,,,,,,,,,,,,6100ca9fe498aed972793cd7,61036d2136f49f6fa4568580,2021-07-30_05h09.05.293,Simcolourproject_2stim_asymm_v5,2020.2.10,Win32,60,61025ae37ef11b136ea224fe,,,,,,,,,3744,-127,-48,1,0,0,response5disk,,2,-21,7,1,0,0,rectangle,-21,7,1,0,0,-21,7,1,0,0,1,9,169,120,1,,,,,,,,
,,,,,,,,,,,,,FF,,,,,,,,2.9179,,,,,,,,,,,,,,,,,,,,,,6100ca9fe498aed972793cd7,61036d2136f49f6fa4568580,2021-07-30_05h09.05.293,Simcolourproject_2stim_asymm_v5,2020.2.10,Win32,60,61025ae37ef11b136ea224fe,,,,,,,,,838,116,59,1,0,0,response1disk,,6,12,-2,1,0,0,rectangle,12,-2,1,0,0,12,-2,1,0,0,1,10,170,92,1,,,,,,,,
,,,,,,,,,,,,,FF,,,,,,,,1.3387,,,,,,,,,,,,,,,,,,,,,,6100ca9fe498aed972793cd7,61036d2136f49f6fa4568580,2021-07-30_05h09.05.293,Simcolourproject_2stim_asymm_v5,2020.2.10,Win32,60,61025ae37ef11b136ea224fe,,,,,,,,,1973,92,-51,1,0,0,response3disk,,5,29,-3,1,0,0,rectangle,29,-3,1,0,0,29,-3,1,0,0,1,11,171,106,1,,,,,,,,
,,,,,,,,,,,,,FF,,,,,,,,1.5855,,,,,,,,,,,,,,,,,,,,,,6100ca9fe498aed972793cd7,61036d2136f49f6fa4568580,2021-07-30_05h09.05.293,Simcolourproject_2stim_asymm_v5,2020.2.10,Win32,60,61025ae37ef11b136ea224fe,,,,,,,,,481,122,67,1,0,0,response1disk,,6,18,9,1,0,0,rectangle,18,9,1,0,0,18,9,1,0,0,1,12,172,47,1,,,,,,,,
,,,,,,,,,,,,,FF,,,,,,,,1.2984,,,,,,,,,,,,,,,,,,,,,,6100ca9fe498aed972793cd7,61036d2136f49f6fa4568580,2021-07-30_05h09.05.293,Simcolourproject_2stim_asymm_v5,2020.2.10,Win32,60,61025ae37ef11b136ea224fe,,,,,,,,,3342,56,-114,1,0,0,response3disk,,4,13,-1,1,0,0,rectangle,13,-1,1,0,0,13,-1,1,0,0,1,13,173,54,1,,,,,,,,
,,,,,,,,,,,,,FF,,,,,,,,0.6658,,,,,,,,,,,,,,,,,,,,,,6100ca9fe498aed972793cd7,61036d2136f49f6fa4568580,2021-07-30_05h09.05.293,Simcolourproject_2stim_asymm_v5,2020.2.10,Win32,60,61025ae37ef11b136ea224fe,,,,,,,,,4062,34,99,1,0,0,response1disk,,7,4,7,1,0,0,rectangle,4,7,1,0,0,4,7,1,0,0,1,14,174,64,1,,,,,,,,
,,,,,,,,,,,,,FF,,,,,,,,1.6142,,,,,,,,,,,,,,,,,,,,,,6100ca9fe498aed972793cd7,61036d2136f49f6fa4568580,2021-07-30_05h09.05.293,Simcolourproject_2stim_asymm_v5,2020.2.10,Win32,60,61025ae37ef11b136ea224fe,,,,,,,,,532,-119,66,1,0,0,response7disk,,1,-6,-13,1,0,0,rectangle,-6,-13,1,0,0,-6,-13,1,0,0,1,15,175,80,1,,,,,,,,
,,,,,,,,,,,,,FF,,,,,,,,0.7815,,,,,,,,,,,,,,,,,,,,,,6100ca9fe498aed972793cd7,61036d2136f49f6fa4568580,2021-07-30_05h09.05.293,Simcolourproject_2stim_asymm_v5,2020.2.10,Win32,60,61025ae37ef11b136ea224fe,,,,,,,,,1957,-115,58,1,0,0,response7disk,,1,0,-4,1,0,0,rectangle,0,-4,1,0,0,0,-4,1,0,0,1,16,176,96,1,,,,,,,,
,,,,,,,,,,,,,FF,,,,,,,,2.372,,,,,,,,,,,,,,,,,,,,,,6100ca9fe498aed972793cd7,61036d2136f49f6fa4568580,2021-07-30_05h09.05.293,Simcolourproject_2stim_asymm_v5,2020.2.10,Win32,60,61025ae37ef11b136ea224fe,,,,,,,,,1099,116,48,1,0,0,response1disk,,6,39,8,1,0,0,rectangle,39,8,1,0,0,39,8,1,0,0,1,17,177,32,1,,,,,,,,
,,,,,,,,,,,,,FF,,,,,,,,1.6966,,,,,,,,,,,,,,,,,,,,,,6100ca9fe498aed972793cd7,61036d2136f49f6fa4568580,2021-07-30_05h09.05.293,Simcolourproject_2stim_asymm_v5,2020.2.10,Win32,60,61025ae37ef11b136ea224fe,,,,,,,,,2896,53,91,1,0,0,response1disk,,7,2,-1,1,0,0,rectangle,2,-1,1,0,0,2,-1,1,0,0,1,18,178,157,1,,,,,,,,
,,,,,,,,,,,,,FF,,,,,,,,0.6617,,,,,,,,,,,,,,,,,,,,,,6100ca9fe498aed972793cd7,61036d2136f49f6fa4568580,2021-07-30_05h09.05.293,Simcolourproject_2stim_asymm_v5,2020.2.10,Win32,60,61025ae37ef11b136ea224fe,,,,,,,,,217,34,78,1,0,0,response1disk,,7,2,8,1,0,0,rectangle,2,8,1,0,0,2,8,1,0,0,1,19,179,147,1,,,,,,,,
,,,,,,,,,,,,,FF,,,,,,,,1.2735,,,,,,,,,,,,,,,,,,,,,,6100ca9fe498aed972793cd7,61036d2136f49f6fa4568580,2021-07-30_05h09.05.293,Simcolourproject_2stim_asymm_v5,2020.2.10,Win32,60,61025ae37ef11b136ea224fe,,,,,,,,,121,35,81,1,0,0,response1disk,,7,6,1,1,0,0,rectangle,6,1,1,0,0,6,1,1,0,0,1,20,180,41,1,,,,,,,,
,,,,,,,,,,,,,FF,,,,,,,,1.5399,,,,,,,,,,,,,,,,,,,,,,6100ca9fe498aed972793cd7,61036d2136f49f6fa4568580,2021-07-30_05h09.05.293,Simcolourproject_2stim_asymm_v5,2020.2.10,Win32,60,61025ae37ef11b136ea224fe,,,,,,,,,2543,58,-122,1,0,0,response3disk,,4,8,-8,1,0,0,rectangle,8,-8,1,0,0,8,-8,1,0,0,1,21,181,52,1,,,,,,,,
,,,,,,,,,,,,,FF,,,,,,,,1.3359,,,,,,,,,,,,,,,,,,,,,,6100ca9fe498aed972793cd7,61036d2136f49f6fa4568580,2021-07-30_05h09.05.293,Simcolourproject_2stim_asymm_v5,2020.2.10,Win32,60,61025ae37ef11b136ea224fe,,,,,,,,,2992,76,100,1,0,0,response1disk,,7,16,-9,1,0,0,rectangle,16,-9,1,0,0,16,-9,1,0,0,1,22,182,122,1,,,,,,,,
,,,,,,,,,,,,,FF,,,,,,,,0.5702,,,,,,,,,,,,,,,,,,,,,,6100ca9fe498aed972793cd7,61036d2136f49f6fa4568580,2021-07-30_05h09.05.293,Simcolourproject_2stim_asymm_v5,2020.2.10,Win32,60,61025ae37ef11b136ea224fe,,,,,,,,,2626,45,73,1,0,0,response1disk,,7,21,14,1,0,0,rectangle,21,14,1,0,0,21,14,1,0,0,1,23,183,125,1,,,,,,,,
,,,,,,,,,,,,,FF,,,,,,,,3.0254,,,,,,,,,,,,,,,,,,,,,,6100ca9fe498aed972793cd7,61036d2136f49f6fa4568580,2021-07-30_05h09.05.293,Simcolourproject_2stim_asymm_v5,2020.2.10,Win32,60,61025ae37ef11b136ea224fe,,,,,,,,,1173,90,-66,1,0,0,response3disk,,5,26,-8,1,0,0,rectangle,26,-8,1,0,0,26,-8,1,0,0,1,24,184,142,1,,,,,,,,
,,,,,,,,,,,,,FF,,,,,,,,1.6396,,,,,,,,,,,,,,,,,,,,,,6100ca9fe498aed972793cd7,61036d2136f49f6fa4568580,2021-07-30_05h09.05.293,Simcolourproject_2stim_asymm_v5,2020.2.10,Win32,60,61025ae37ef11b136ea224fe,,,,,,,,,1128,52,112,1,0,0,response1disk,,7,15,11,1,0,0,rectangle,15,11,1,0,0,15,11,1,0,0,1,25,185,62,1,,,,,,,,
,,,,,,,,,,,,,FF,,,,,,,,3.295,,,,,,,,,,,,,,,,,,,,,,6100ca9fe498aed972793cd7,61036d2136f49f6fa4568580,2021-07-30_05h09.05.293,Simcolourproject_2stim_asymm_v5,2020.2.10,Win32,60,61025ae37ef11b136ea224fe,,,,,,,,,1547,122,51,1,0,0,response1disk,,6,21,8,1,0,0,rectangle,21,8,1,0,0,21,8,1,0,0,1,26,186,35,1,,,,,,,,
,,,,,,,,,,,,,FF,,,,,,,,1.1167,,,,,,,,,,,,,,,,,,,,,,6100ca9fe498aed972793cd7,61036d2136f49f6fa4568580,2021-07-30_05h09.05.293,Simcolourproject_2stim_asymm_v5,2020.2.10,Win32,60,61025ae37ef11b136ea224fe,,,,,,,,,725,47,-107,1,0,0,response3disk,,4,13,-16,1,0,0,rectangle,13,-16,1,0,0,13,-16,1,0,0,1,27,187,34,1,,,,,,,,
,,,,,,,,,,,,,FF,,,,,,,,1.569,,,,,,,,,,,,,,,,,,,,,,6100ca9fe498aed972793cd7,61036d2136f49f6fa4568580,2021-07-30_05h09.05.293,Simcolourproject_2stim_asymm_v5,2020.2.10,Win32,60,61025ae37ef11b136ea224fe,,,,,,,,,2454,129,71,1,0,0,response1disk,,6,-11,14,1,0,0,rectangle,-11,14,1,0,0,-11,14,1,0,0,1,28,188,6,1,,,,,,,,
,,,,,,,,,,,,,FF,,,,,,,,0.6575,,,,,,,,,,,,,,,,,,,,,,6100ca9fe498aed972793cd7,61036d2136f49f6fa4568580,2021-07-30_05h09.05.293,Simcolourproject_2stim_asymm_v5,2020.2.10,Win32,60,61025ae37ef11b136ea224fe,,,,,,,,,4324,32,94,1,0,0,response1disk,,7,-3,3,1,0,0,rectangle,-3,3,1,0,0,-3,3,1,0,0,1,29,189,9,1,,,,,,,,
,,,,,,,,,,,,,FF,,,,,,,,5.2519,,,,,,,,,,,,,,,,,,,,,,6100ca9fe498aed972793cd7,61036d2136f49f6fa4568580,2021-07-30_05h09.05.293,Simcolourproject_2stim_asymm_v5,2020.2.10,Win32,60,61025ae37ef11b136ea224fe,,,,,,,,,2962,109,40,1,0,0,response1disk,,6,26,-6,1,0,0,rectangle,26,-6,1,0,0,26,-6,1,0,0,1,30,190,1,1,,,,,,,,
,,,,,,,,,,,,,FF,,,,,,,,0.8539,,,,,,,,,,,,,,,,,,,,,,6100ca9fe498aed972793cd7,61036d2136f49f6fa4568580,2021-07-30_05h09.05.293,Simcolourproject_2stim_asymm_v5,2020.2.10,Win32,60,61025ae37ef11b136ea224fe,,,,,,,,,4046,-82,113,1,0,0,response7disk,,0,-8,-11,1,0,0,rectangle,-8,-11,1,0,0,-8,-11,1,0,0,1,31,191,50,1,,,,,,,,
,,,,,,,,,,,,,FF,,,,,,,,1.8091,,,,,,,,,,,,,,,,,,,,,,6100ca9fe498aed972793cd7,61036d2136f49f6fa4568580,2021-07-30_05h09.05.293,Simcolourproject_2stim_asymm_v5,2020.2.10,Win32,60,61025ae37ef11b136ea224fe,,,,,,,,,2929,51,-113,1,0,0,response3disk,,4,20,-6,1,0,0,rectangle,20,-6,1,0,0,20,-6,1,0,0,1,32,192,158,1,,,,,,,,
,,,,,,,,,,,,,FF,,,,,,,,2.8535,,,,,,,,,,,,,,,,,,,,,,6100ca9fe498aed972793cd7,61036d2136f49f6fa4568580,2021-07-30_05h09.05.293,Simcolourproject_2stim_asymm_v5,2020.2.10,Win32,60,61025ae37ef11b136ea224fe,,,,,,,,,1031,144,48,1,0,0,response1disk,,6,-22,5,1,0,0,rectangle,-22,5,1,0,0,-22,5,1,0,0,1,33,193,15,1,,,,,,,,
,,,,,,,,,,,,,FF,,,,,,,,0.7865,,,,,,,,,,,,,,,,,,,,,,6100ca9fe498aed972793cd7,61036d2136f49f6fa4568580,2021-07-30_05h09.05.293,Simcolourproject_2stim_asymm_v5,2020.2.10,Win32,60,61025ae37ef11b136ea224fe,,,,,,,,,4110,30,109,1,0,0,response1disk,,7,-2,13,1,0,0,rectangle,-2,13,1,0,0,-2,13,1,0,0,1,34,194,12,1,,,,,,,,
,,,,,,,,,,,,,FF,,,,,,,,0.9863,,,,,,,,,,,,,,,,,,,,,,6100ca9fe498aed972793cd7,61036d2136f49f6fa4568580,2021-07-30_05h09.05.293,Simcolourproject_2stim_asymm_v5,2020.2.10,Win32,60,61025ae37ef11b136ea224fe,,,,,,,,,568,56,-118,1,0,0,response3disk,,4,2,7,1,0,0,rectangle,2,7,1,0,0,2,7,1,0,0,1,35,195,69,1,,,,,,,,
,,,,,,,,,,,,,FF,,,,,,,,2.5635,,,,,,,,,,,,,,,,,,,,,,6100ca9fe498aed972793cd7,61036d2136f49f6fa4568580,2021-07-30_05h09.05.293,Simcolourproject_2stim_asymm_v5,2020.2.10,Win32,60,61025ae37ef11b136ea224fe,,,,,,,,,3648,114,64,1,0,0,response1disk,,6,27,2,1,0,0,rectangle,27,2,1,0,0,27,2,1,0,0,1,36,196,103,1,,,,,,,,
,,,,,,,,,,,,,FF,,,,,,,,0.874,,,,,,,,,,,,,,,,,,,,,,6100ca9fe498aed972793cd7,61036d2136f49f6fa4568580,2021-07-30_05h09.05.293,Simcolourproject_2stim_asymm_v5,2020.2.10,Win32,60,61025ae37ef11b136ea224fe,,,,,,,,,1140,28,-131,1,0,0,response3disk,,4,-6,-8,1,0,0,rectangle,-6,-8,1,0,0,-6,-8,1,0,0,1,37,197,115,1,,,,,,,,
,,,,,,,,,,,,,FF,,,,,,,,1.7519,,,,,,,,,,,,,,,,,,,,,,6100ca9fe498aed972793cd7,61036d2136f49f6fa4568580,2021-07-30_05h09.05.293,Simcolourproject_2stim_asymm_v5,2020.2.10,Win32,60,61025ae37ef11b136ea224fe,,,,,,,,,3530,98,-55,1,0,0,response3disk,,5,22,-5,1,0,0,rectangle,22,-5,1,0,0,22,-5,1,0,0,1,38,198,112,1,,,,,,,,
,,,,,,,,,,,,,FF,,,,,,,,2.2056,,,,,,,,,,,,,,,,,,,,,,6100ca9fe498aed972793cd7,61036d2136f49f6fa4568580,2021-07-30_05h09.05.293,Simcolourproject_2stim_asymm_v5,2020.2.10,Win32,60,61025ae37ef11b136ea224fe,,,,,,,,,2035,-46,-94,1,0,0,response5disk,,3,-21,-16,1,0,0,rectangle,-21,-16,1,0,0,-21,-16,1,0,0,1,39,199,98,1,,,,,,,,
,,,,,,,,,,,,,FF,,,,,,,,1.1277,,,,,,,,,,,,,,,,,,,,,,6100ca9fe498aed972793cd7,61036d2136f49f6fa4568580,2021-07-30_05h09.05.293,Simcolourproject_2stim_asymm_v5,2020.2.10,Win32,60,61025ae37ef11b136ea224fe,,,,,,,,,1875,59,115,1,0,0,response1disk,,7,22,17,1,0,0,rectangle,22,17,1,0,0,22,17,1,0,0,1,40,200,37,1,,,,,,,,
,,,,,,,,,,,,,FF,,,,,,,,1.6355,,,,,,,,,,,,,,,,,,,,,,6100ca9fe498aed972793cd7,61036d2136f49f6fa4568580,2021-07-30_05h09.05.293,Simcolourproject_2stim_asymm_v5,2020.2.10,Win32,60,61025ae37ef11b136ea224fe,,,,,,,,,1304,-117,53,1,0,0,response7disk,,1,-12,9,1,0,0,rectangle,-12,9,1,0,0,-12,9,1,0,0,1,41,201,40,1,,,,,,,,
,,,,,,,,,,,,,FF,,,,,,,,2.4595,,,,,,,,,,,,,,,,,,,,,,6100ca9fe498aed972793cd7,61036d2136f49f6fa4568580,2021-07-30_05h09.05.293,Simcolourproject_2stim_asymm_v5,2020.2.10,Win32,60,61025ae37ef11b136ea224fe,,,,,,,,,2654,-72,-94,1,0,0,response5disk,,3,-14,9,1,0,0,rectangle,-14,9,1,0,0,-14,9,1,0,0,1,42,202,156,1,,,,,,,,
,,,,,,,,,,,,,FF,,,,,,,,0.6417,,,,,,,,,,,,,,,,,,,,,,6100ca9fe498aed972793cd7,61036d2136f49f6fa4568580,2021-07-30_05h09.05.293,Simcolourproject_2stim_asymm_v5,2020.2.10,Win32,60,61025ae37ef11b136ea224fe,,,,,,,,,2197,55,112,1,0,0,response1disk,,7,-12,3,1,0,0,rectangle,-12,3,1,0,0,-12,3,1,0,0,1,43,203,128,1,,,,,,,,
,,,,,,,,,,,,,FF,,,,,,,,1.5357,,,,,,,,,,,,,,,,,,,,,,6100ca9fe498aed972793cd7,61036d2136f49f6fa4568580,2021-07-30_05h09.05.293,Simcolourproject_2stim_asymm_v5,2020.2.10,Win32,60,61025ae37ef11b136ea224fe,,,,,,,,,3094,56,-116,1,0,0,response3disk,,4,5,11,1,0,0,rectangle,5,11,1,0,0,5,11,1,0,0,1,44,204,140,1,,,,,,,,
,,,,,,,,,,,,,FF,,,,,,,,1.2817,,,,,,,,,,,,,,,,,,,,,,6100ca9fe498aed972793cd7,61036d2136f49f6fa4568580,2021-07-30_05h09.05.293,Simcolourproject_2stim_asymm_v5,2020.2.10,Win32,60,61025ae37ef11b136ea224fe,,,,,,,,,1628,57,93,1,0,0,response1disk,,7,10,4,1,0,0,rectangle,10,4,1,0,0,10,4,1,0,0,1,45,205,78,1,,,,,,,,
,,,,,,,,,,,,,FF,,,,,,,,0.9697,,,,,,,,,,,,,,,,,,,,,,6100ca9fe498aed972793cd7,61036d2136f49f6fa4568580,2021-07-30_05h09.05.293,Simcolourproject_2stim_asymm_v5,2020.2.10,Win32,60,61025ae37ef11b136ea224fe,,,,,,,,,109,34,109,1,0,0,response1disk,,7,-8,3,1,0,0,rectangle,-8,3,1,0,0,-8,3,1,0,0,1,46,206,55,1,,,,,,,,
,,,,,,,,,,,,,FF,,,,,,,,1.0405,,,,,,,,,,,,,,,,,,,,,,6100ca9fe498aed972793cd7,61036d2136f49f6fa4568580,2021-07-30_05h09.05.293,Simcolourproject_2stim_asymm_v5,2020.2.10,Win32,60,61025ae37ef11b136ea224fe,,,,,,,,,1882,44,103,1,0,0,response1disk,,7,-2,-2,1,0,0,rectangle,-2,-2,1,0,0,-2,-2,1,0,0,1,47,207,63,1,,,,,,,,
,,,,,,,,,,,,,FF,,,,,,,,0.6364,,,,,,,,,,,,,,,,,,,,,,6100ca9fe498aed972793cd7,61036d2136f49f6fa4568580,2021-07-30_05h09.05.293,Simcolourproject_2stim_asymm_v5,2020.2.10,Win32,60,61025ae37ef11b136ea224fe,,,,,,,,,1090,36,78,1,0,0,response1disk,,7,3,8,1,0,0,rectangle,3,8,1,0,0,3,8,1,0,0,1,48,208,100,1,,,,,,,,
,,,,,,,,,,,,,FF,,,,,,,,0.8614,,,,,,,,,,,,,,,,,,,,,,6100ca9fe498aed972793cd7,61036d2136f49f6fa4568580,2021-07-30_05h09.05.293,Simcolourproject_2stim_asymm_v5,2020.2.10,Win32,60,61025ae37ef11b136ea224fe,,,,,,,,,2249,43,83,1,0,0,response1disk,,7,8,5,1,0,0,rectangle,8,5,1,0,0,8,5,1,0,0,1,49,209,75,1,,,,,,,,
,,,,,,,,,,,,,FF,,,,,,,,0.7158,,,,,,,,,,,,,,,,,,,,,,6100ca9fe498aed972793cd7,61036d2136f49f6fa4568580,2021-07-30_05h09.05.293,Simcolourproject_2stim_asymm_v5,2020.2.10,Win32,60,61025ae37ef11b136ea224fe,,,,,,,,,3255,34,86,1,0,0,response1disk,,7,1,0,1,0,0,rectangle,1,0,1,0,0,1,0,1,0,0,1,50,210,33,1,,,,,,,,
,,,,,,,,,,,,,FF,,,,,,,,1.3221,,,,,,,,,,,,,,,,,,,,,,6100ca9fe498aed972793cd7,61036d2136f49f6fa4568580,2021-07-30_05h09.05.293,Simcolourproject_2stim_asymm_v5,2020.2.10,Win32,60,61025ae37ef11b136ea224fe,,,,,,,,,2838,85,-58,1,0,0,response3disk,,5,40,8,1,0,0,rectangle,100,-52,1,0,0,24,1,1,0,0,1,51,211,77,1,,response3disk_3,TRUE,5,5,"[117,160,279,228,292,41,303,278,268,153,152,247,43,254,65,10,29,129,212,73]",1.0572,rectangle
,,,,,,,,,,,,,FF,,,,,,,,1.0611,,,,,,,,,,,,,,,,,,,,,,6100ca9fe498aed972793cd7,61036d2136f49f6fa4568580,2021-07-30_05h09.05.293,Simcolourproject_2stim_asymm_v5,2020.2.10,Win32,60,61025ae37ef11b136ea224fe,,,,,,,,,650,95,71,1,0,0,response1disk,,6,0,10,1,0,0,rectangle,0,10,1,0,0,0,10,1,0,0,1,52,212,108,1,,,,,,,,
,,,,,,,,,,,,,FF,,,,,,,,1.3026,,,,,,,,,,,,,,,,,,,,,,6100ca9fe498aed972793cd7,61036d2136f49f6fa4568580,2021-07-30_05h09.05.293,Simcolourproject_2stim_asymm_v5,2020.2.10,Win32,60,61025ae37ef11b136ea224fe,,,,,,,,,3104,-38,-100,1,0,0,response5disk,,3,-4,-11,1,0,0,rectangle,-4,-11,1,0,0,-4,-11,1,0,0,1,53,213,30,1,,,,,,,,
,,,,,,,,,,,,,FF,,,,,,,,2.1557,,,,,,,,,,,,,,,,,,,,,,6100ca9fe498aed972793cd7,61036d2136f49f6fa4568580,2021-07-30_05h09.05.293,Simcolourproject_2stim_asymm_v5,2020.2.10,Win32,60,61025ae37ef11b136ea224fe,,,,,,,,,3463,43,-88,1,0,0,response3disk,,4,28,8,1,0,0,rectangle,28,8,1,0,0,28,8,1,0,0,1,54,214,39,1,,,,,,,,
,,,,,,,,,,,,,FF,,,,,,,,1.8477,,,,,,,,,,,,,,,,,,,,,,6100ca9fe498aed972793cd7,61036d2136f49f6fa4568580,2021-07-30_05h09.05.293,Simcolourproject_2stim_asymm_v5,2020.2.10,Win32,60,61025ae37ef11b136ea224fe,,,,,,,,,1436,105,-66,1,0,0,response3disk,,5,16,1,1,0,0,rectangle,16,1,1,0,0,16,1,1,0,0,1,55,215,46,1,,,,,,,,
,,,,,,,,,,,,,FF,,,,,,,,1.1028,,,,,,,,,,,,,,,,,,,,,,6100ca9fe498aed972793cd7,61036d2136f49f6fa4568580,2021-07-30_05h09.05.293,Simcolourproject_2stim_asymm_v5,2020.2.10,Win32,60,61025ae37ef11b136ea224fe,,,,,,,,,3324,50,91,1,0,0,response1disk,,7,20,-5,1,0,0,rectangle,20,-5,1,0,0,20,-5,1,0,0,1,56,216,99,1,,,,,,,,
,,,,,,,,,,,,,FF,,,,,,,,1.2471,,,,,,,,,,,,,,,,,,,,,,6100ca9fe498aed972793cd7,61036d2136f49f6fa4568580,2021-07-30_05h09.05.293,Simcolourproject_2stim_asymm_v5,2020.2.10,Win32,60,61025ae37ef11b136ea224fe,,,,,,,,,4050,51,-93,1,0,0,response3disk,,4,21,3,1,0,0,rectangle,21,3,1,0,0,21,3,1,0,0,1,57,217,10,1,,,,,,,,
,,,,,,,,,,,,,FF,,,,,,,,0.9322,,,,,,,,,,,,,,,,,,,,,,6100ca9fe498aed972793cd7,61036d2136f49f6fa4568580,2021-07-30_05h09.05.293,Simcolourproject_2stim_asymm_v5,2020.2.10,Win32,60,61025ae37ef11b136ea224fe,,,,,,,,,4344,-55,114,1,0,0,response7disk,,0,8,-4,1,0,0,rectangle,8,-4,1,0,0,8,-4,1,0,0,1,58,218,84,1,,,,,,,,
,,,,,,,,,,,,,FF,,,,,,,,2.3512,,,,,,,,,,,,,,,,,,,,,,6100ca9fe498aed972793cd7,61036d2136f49f6fa4568580,2021-07-30_05h09.05.293,Simcolourproject_2stim_asymm_v5,2020.2.10,Win32,60,61025ae37ef11b136ea224fe,,,,,,,,,1126,57,88,1,0,0,response1disk,,7,19,2,1,0,0,rectangle,19,2,1,0,0,19,2,1,0,0,1,59,219,153,1,,,,,,,,
,,,,,,,,,,,,,FF,,,,,,,,1.1736,,,,,,,,,,,,,,,,,,,,,,6100ca9fe498aed972793cd7,61036d2136f49f6fa4568580,2021-07-30_05h09.05.293,Simcolourproject_2stim_asymm_v5,2020.2.10,Win32,60,61025ae37ef11b136ea224fe,,,,,,,,,2768,52,-132,1,0,0,response3disk,,4,-9,6,1,0,0,rectangle,-9,6,1,0,0,-9,6,1,0,0,1,60,220,16,1,,,,,,,,
,,,,,,,,,,,,,FF,,,,,,,,1.9684,,,,,,,,,,,,,,,,,,,,,,6100ca9fe498aed972793cd7,61036d2136f49f6fa4568580,2021-07-30_05h09.05.293,Simcolourproject_2stim_asymm_v5,2020.2.10,Win32,60,61025ae37ef11b136ea224fe,,,,,,,,,2726,-112,40,1,0,0,response7disk,,1,-23,0,1,0,0,rectangle,-23,0,1,0,0,-23,0,1,0,0,1,61,221,83,1,,,,,,,,
,,,,,,,,,,,,,FF,,,,,,,,2.3318,,,,,,,,,,,,,,,,,,,,,,6100ca9fe498aed972793cd7,61036d2136f49f6fa4568580,2021-07-30_05h09.05.293,Simcolourproject_2stim_asymm_v5,2020.2.10,Win32,60,61025ae37ef11b136ea224fe,,,,,,,,,4106,-52,-78,1,0,0,response5disk,,3,-25,6,1,0,0,rectangle,-25,6,1,0,0,-25,6,1,0,0,1,62,222,101,1,,,,,,,,
,,,,,,,,,,,,,FF,,,,,,,,1.3245,,,,,,,,,,,,,,,,,,,,,,6100ca9fe498aed972793cd7,61036d2136f49f6fa4568580,2021-07-30_05h09.05.293,Simcolourproject_2stim_asymm_v5,2020.2.10,Win32,60,61025ae37ef11b136ea224fe,,,,,,,,,1234,57,-133,1,0,0,response3disk,,4,-5,-9,1,0,0,rectangle,-5,-9,1,0,0,-5,-9,1,0,0,1,63,223,145,1,,,,,,,,
,,,,,,,,,,,,,FF,,,,,,,,0.6615,,,,,,,,,,,,,,,,,,,,,,6100ca9fe498aed972793cd7,61036d2136f49f6fa4568580,2021-07-30_05h09.05.293,Simcolourproject_2stim_asymm_v5,2020.2.10,Win32,60,61025ae37ef11b136ea224fe,,,,,,,,,916,41,79,1,0,0,response1disk,,7,10,5,1,0,0,rectangle,10,5,1,0,0,10,5,1,0,0,1,64,224,116,1,,,,,,,,
,,,,,,,,,,,,,FF,,,,,,,,1.3067,,,,,,,,,,,,,,,,,,,,,,6100ca9fe498aed972793cd7,61036d2136f49f6fa4568580,2021-07-30_05h09.05.293,Simcolourproject_2stim_asymm_v5,2020.2.10,Win32,60,61025ae37ef11b136ea224fe,,,,,,,,,448,94,-62,1,0,0,response3disk,,5,28,7,1,0,0,rectangle,28,7,1,0,0,28,7,1,0,0,1,65,225,82,1,,,,,,,,
,,,,,,,,,,,,,FF,,,,,,,,0.7273,,,,,,,,,,,,,,,,,,,,,,6100ca9fe498aed972793cd7,61036d2136f49f6fa4568580,2021-07-30_05h09.05.293,Simcolourproject_2stim_asymm_v5,2020.2.10,Win32,60,61025ae37ef11b136ea224fe,,,,,,,,,1963,-50,125,1,0,0,response7disk,,0,-13,3,1,0,0,rectangle,-13,3,1,0,0,-13,3,1,0,0,1,66,226,150,1,,,,,,,,
,,,,,,,,,,,,,FF,,,,,,,,2.0756,,,,,,,,,,,,,,,,,,,,,,6100ca9fe498aed972793cd7,61036d2136f49f6fa4568580,2021-07-30_05h09.05.293,Simcolourproject_2stim_asymm_v5,2020.2.10,Win32,60,61025ae37ef11b136ea224fe,,,,,,,,,2367,-155,-70,1,0,0,response5disk,,2,-37,-6,1,0,0,rectangle,-36,-98,1,0,0,16,2,1,0,0,1,67,227,124,1,,response5disk_3,TRUE,3,3,"[117,160,279,228,292,41,303,278,268,153,152,247,43,254,65,10,29,129,212,73]",2.1598,rectangle
,,,,,,,,,,,,,FF,,,,,,,,1.2018,,,,,,,,,,,,,,,,,,,,,,6100ca9fe498aed972793cd7,61036d2136f49f6fa4568580,2021-07-30_05h09.05.293,Simcolourproject_2stim_asymm_v5,2020.2.10,Win32,60,61025ae37ef11b136ea224fe,,,,,,,,,3927,46,85,1,0,0,response1disk,,7,3,-4,1,0,0,rectangle,3,-4,1,0,0,3,-4,1,0,0,1,68,228,73,1,,,,,,,,
,,,,,,,,,,,,,FF,,,,,,,,1.4313,,,,,,,,,,,,,,,,,,,,,,6100ca9fe498aed972793cd7,61036d2136f49f6fa4568580,2021-07-30_05h09.05.293,Simcolourproject_2stim_asymm_v5,2020.2.10,Win32,60,61025ae37ef11b136ea224fe,,,,,,,,,3157,-63,-107,1,0,0,response5disk,,3,-28,-1,1,0,0,rectangle,-28,-1,1,0,0,-28,-1,1,0,0,1,69,229,58,1,,,,,,,,
,,,,,,,,,,,,,FF,,,,,,,,1.1764,,,,,,,,,,,,,,,,,,,,,,6100ca9fe498aed972793cd7,61036d2136f49f6fa4568580,2021-07-30_05h09.05.293,Simcolourproject_2stim_asymm_v5,2020.2.10,Win32,60,61025ae37ef11b136ea224fe,,,,,,,,,2723,-59,-122,1,0,0,response5disk,,3,-15,-3,1,0,0,rectangle,-15,-3,1,0,0,-15,-3,1,0,0,1,70,230,130,1,,,,,,,,
,,,,,,,,,,,,,FF,,,,,,,,0.8631,,,,,,,,,,,,,,,,,,,,,,6100ca9fe498aed972793cd7,61036d2136f49f6fa4568580,2021-07-30_05h09.05.293,Simcolourproject_2stim_asymm_v5,2020.2.10,Win32,60,61025ae37ef11b136ea224fe,,,,,,,,,1780,52,-115,1,0,0,response3disk,,4,16,-2,1,0,0,rectangle,16,-2,1,0,0,16,-2,1,0,0,1,71,231,97,1,,,,,,,,
,,,,,,,,,,,,,FF,,,,,,,,0.895,,,,,,,,,,,,,,,,,,,,,,6100ca9fe498aed972793cd7,61036d2136f49f6fa4568580,2021-07-30_05h09.05.293,Simcolourproject_2stim_asymm_v5,2020.2.10,Win32,60,61025ae37ef11b136ea224fe,,,,,,,,,2544,-55,-111,1,0,0,response5disk,,3,-4,3,1,0,0,rectangle,-4,3,1,0,0,-4,3,1,0,0,1,72,232,137,1,,,,,,,,
,,,,,,,,,,,,,FF,,,,,,,,0.705,,,,,,,,,,,,,,,,,,,,,,6100ca9fe498aed972793cd7,61036d2136f49f6fa4568580,2021-07-30_05h09.05.293,Simcolourproject_2stim_asymm_v5,2020.2.10,Win32,60,61025ae37ef11b136ea224fe,,,,,,,,,2282,37,95,1,0,0,response1disk,,7,-4,6,1,0,0,rectangle,-4,6,1,0,0,-4,6,1,0,0,1,73,233,67,1,,,,,,,,
,,,,,,,,,,,,,FF,,,,,,,,1.2279,,,,,,,,,,,,,,,,,,,,,,6100ca9fe498aed972793cd7,61036d2136f49f6fa4568580,2021-07-30_05h09.05.293,Simcolourproject_2stim_asymm_v5,2020.2.10,Win32,60,61025ae37ef11b136ea224fe,,,,,,,,,3923,70,106,1,0,0,response1disk,,7,14,8,1,0,0,rectangle,14,8,1,0,0,14,8,1,0,0,1,74,234,136,1,,,,,,,,
,,,,,,,,,,,,,FF,,,,,,,,1.802,,,,,,,,,,,,,,,,,,,,,,6100ca9fe498aed972793cd7,61036d2136f49f6fa4568580,2021-07-30_05h09.05.293,Simcolourproject_2stim_asymm_v5,2020.2.10,Win32,60,61025ae37ef11b136ea224fe,,,,,,,,,246,116,-49,1,0,0,response3disk,,5,6,8,1,0,0,rectangle,6,8,1,0,0,6,8,1,0,0,1,75,235,70,1,,,,,,,,
,,,,,,,,,,,,,FF,,,,,,,,1.0695,,,,,,,,,,,,,,,,,,,,,,6100ca9fe498aed972793cd7,61036d2136f49f6fa4568580,2021-07-30_05h09.05.293,Simcolourproject_2stim_asymm_v5,2020.2.10,Win32,60,61025ae37ef11b136ea224fe,,,,,,,,,626,56,98,1,0,0,response1disk,,7,-1,4,1,0,0,rectangle,-1,4,1,0,0,-1,4,1,0,0,1,76,236,85,1,,,,,,,,
,,,,,,,,,,,,,FF,,,,,,,,1.6855,,,,,,,,,,,,,,,,,,,,,,6100ca9fe498aed972793cd7,61036d2136f49f6fa4568580,2021-07-30_05h09.05.293,Simcolourproject_2stim_asymm_v5,2020.2.10,Win32,60,61025ae37ef11b136ea224fe,,,,,,,,,1621,62,84,1,0,0,response1disk,,7,4,-7,1,0,0,rectangle,4,-7,1,0,0,4,-7,1,0,0,1,77,237,51,1,,,,,,,,
,,,,,,,,,,,,,FF,,,,,,,,0.67,,,,,,,,,,,,,,,,,,,,,,6100ca9fe498aed972793cd7,61036d2136f49f6fa4568580,2021-07-30_05h09.05.293,Simcolourproject_2stim_asymm_v5,2020.2.10,Win32,60,61025ae37ef11b136ea224fe,,,,,,,,,17,51,110,1,0,0,response1disk,,7,18,18,1,0,0,rectangle,18,18,1,0,0,18,18,1,0,0,1,78,238,123,1,,,,,,,,
,,,,,,,,,,,,,FF,,,,,,,,0.6409,,,,,,,,,,,,,,,,,,,,,,6100ca9fe498aed972793cd7,61036d2136f49f6fa4568580,2021-07-30_05h09.05.293,Simcolourproject_2stim_asymm_v5,2020.2.10,Win32,60,61025ae37ef11b136ea224fe,,,,,,,,,4067,42,96,1,0,0,response1disk,,7,1,8,1,0,0,rectangle,1,8,1,0,0,1,8,1,0,0,1,79,239,81,1,,,,,,,,
,,,,,,,,,,,,,FF,,,,,,,,2.397,,,,,,,,,,,,,,,,,,,,,,6100ca9fe498aed972793cd7,61036d2136f49f6fa4568580,2021-07-30_05h09.05.293,Simcolourproject_2stim_asymm_v5,2020.2.10,Win32,60,61025ae37ef11b136ea224fe,,,,,,,,,2851,64,90,1,0,0,response1disk,,7,21,16,1,0,0,rectangle,21,16,1,0,0,21,16,1,0,0,1,80,240,104,1,,,,,,,,
,,,,,,,,,,,,,FF,,,,,,,,0.8768,,,,,,,,,,,,,,,,,,,,,,6100ca9fe498aed972793cd7,61036d2136f49f6fa4568580,2021-07-30_05h09.05.293,Simcolourproject_2stim_asymm_v5,2020.2.10,Win32,60,61025ae37ef11b136ea224fe,,,,,,,,,1939,42,98,1,0,0,response1disk,,7,-5,-5,1,0,0,rectangle,-5,-5,1,0,0,-5,-5,1,0,0,1,81,241,2,1,,,,,,,,
,,,,,,,,,,,,,FF,,,,,,,,0.8766,,,,,,,,,,,,,,,,,,,,,,6100ca9fe498aed972793cd7,61036d2136f49f6fa4568580,2021-07-30_05h09.05.293,Simcolourproject_2stim_asymm_v5,2020.2.10,Win32,60,61025ae37ef11b136ea224fe,,,,,,,,,2743,39,87,1,0,0,response1disk,,7,11,12,1,0,0,rectangle,11,12,1,0,0,11,12,1,0,0,1,82,242,4,1,,,,,,,,
,,,,,,,,,,,,,FF,,,,,,,,0.6438,,,,,,,,,,,,,,,,,,,,,,6100ca9fe498aed972793cd7,61036d2136f49f6fa4568580,2021-07-30_05h09.05.293,Simcolourproject_2stim_asymm_v5,2020.2.10,Win32,60,61025ae37ef11b136ea224fe,,,,,,,,,2184,46,78,1,0,0,response1disk,,7,10,11,1,0,0,rectangle,10,11,1,0,0,10,11,1,0,0,1,83,243,134,1,,,,,,,,
,,,,,,,,,,,,,FF,,,,,,,,2.0266,,,,,,,,,,,,,,,,,,,,,,6100ca9fe498aed972793cd7,61036d2136f49f6fa4568580,2021-07-30_05h09.05.293,Simcolourproject_2stim_asymm_v5,2020.2.10,Win32,60,61025ae37ef11b136ea224fe,,,,,,,,,3179,142,47,1,0,0,response1disk,,6,47,-8,1,0,0,rectangle,47,-8,1,0,0,47,-8,1,0,0,1,84,244,48,1,,,,,,,,
,,,,,,,,,,,,,FF,,,,,,,,0.978,,,,,,,,,,,,,,,,,,,,,,6100ca9fe498aed972793cd7,61036d2136f49f6fa4568580,2021-07-30_05h09.05.293,Simcolourproject_2stim_asymm_v5,2020.2.10,Win32,60,61025ae37ef11b136ea224fe,,,,,,,,,203,45,107,1,0,0,response1disk,,7,5,12,1,0,0,rectangle,5,12,1,0,0,5,12,1,0,0,1,85,245,102,1,,,,,,,,
,,,,,,,,,,,,,FF,,,,,,,,1.5773,,,,,,,,,,,,,,,,,,,,,,6100ca9fe498aed972793cd7,61036d2136f49f6fa4568580,2021-07-30_05h09.05.293,Simcolourproject_2stim_asymm_v5,2020.2.10,Win32,60,61025ae37ef11b136ea224fe,,,,,,,,,2758,27,82,1,0,0,response1disk,,7,2,-1,1,0,0,rectangle,-104,-42,1,0,0,-13,-2,1,0,0,1,86,246,113,1,,response5disk_3,TRUE,2,2,"[117,160,279,228,292,41,303,278,268,153,152,247,43,254,65,10,29,129,212,73]",1.4513,rectangle
,,,,,,,,,,,,,FF,,,,,,,,0.8074,,,,,,,,,,,,,,,,,,,,,,6100ca9fe498aed972793cd7,61036d2136f49f6fa4568580,2021-07-30_05h09.05.293,Simcolourproject_2stim_asymm_v5,2020.2.10,Win32,60,61025ae37ef11b136ea224fe,,,,,,,,,2724,-66,-102,1,0,0,response5disk,,3,-17,-7,1,0,0,rectangle,-17,-7,1,0,0,-17,-7,1,0,0,1,87,247,155,1,,,,,,,,
,,,,,,,,,,,,,FF,,,,,,,,1.0571,,,,,,,,,,,,,,,,,,,,,,6100ca9fe498aed972793cd7,61036d2136f49f6fa4568580,2021-07-30_05h09.05.293,Simcolourproject_2stim_asymm_v5,2020.2.10,Win32,60,61025ae37ef11b136ea224fe,,,,,,,,,3308,47,78,1,0,0,response1disk,,7,6,1,1,0,0,rectangle,6,1,1,0,0,6,1,1,0,0,1,88,248,151,1,,,,,,,,
,,,,,,,,,,,,,FF,,,,,,,,0.6978,,,,,,,,,,,,,,,,,,,,,,6100ca9fe498aed972793cd7,61036d2136f49f6fa4568580,2021-07-30_05h09.05.293,Simcolourproject_2stim_asymm_v5,2020.2.10,Win32,60,61025ae37ef11b136ea224fe,,,,,,,,,489,46,78,1,0,0,response1disk,,7,8,8,1,0,0,rectangle,8,8,1,0,0,8,8,1,0,0,1,89,249,87,1,,,,,,,,
,,,,,,,,,,,,,FF,,,,,,,,1.2943,,,,,,,,,,,,,,,,,,,,,,6100ca9fe498aed972793cd7,61036d2136f49f6fa4568580,2021-07-30_05h09.05.293,Simcolourproject_2stim_asymm_v5,2020.2.10,Win32,60,61025ae37ef11b136ea224fe,,,,,,,,,3715,-43,-85,1,0,0,response5disk,,3,-10,-7,1,0,0,rectangle,-10,-7,1,0,0,-10,-7,1,0,0,1,90,250,66,1,,,,,,,,
,,,,,,,,,,,,,FF,,,,,,,,0.9822,,,,,,,,,,,,,,,,,,,,,,6100ca9fe498aed972793cd7,61036d2136f49f6fa4568580,2021-07-30_05h09.05.293,Simcolourproject_2stim_asymm_v5,2020.2.10,Win32,60,61025ae37ef11b136ea224fe,,,,,,,,,1542,-60,-94,1,0,0,response5disk,,3,-1,9,1,0,0,rectangle,-1,9,1,0,0,-1,9,1,0,0,1,91,251,57,1,,,,,,,,
,,,,,,,,,,,,,FF,,,,,,,,0.9655,,,,,,,,,,,,,,,,,,,,,,6100ca9fe498aed972793cd7,61036d2136f49f6fa4568580,2021-07-30_05h09.05.293,Simcolourproject_2stim_asymm_v5,2020.2.10,Win32,60,61025ae37ef11b136ea224fe,,,,,,,,,2489,-48,-83,1,0,0,response5disk,,3,-11,-12,1,0,0,rectangle,-11,-12,1,0,0,-11,-12,1,0,0,1,92,252,19,1,,,,,,,,
,,,,,,,,,,,,,FF,,,,,,,,1.5524,,,,,,,,,,,,,,,,,,,,,,6100ca9fe498aed972793cd7,61036d2136f49f6fa4568580,2021-07-30_05h09.05.293,Simcolourproject_2stim_asymm_v5,2020.2.10,Win32,60,61025ae37ef11b136ea224fe,,,,,,,,,1500,70,92,1,0,0,response1disk,,7,12,5,1,0,0,rectangle,122,-65,1,0,0,21,6,1,0,0,1,93,253,25,1,,response3disk_3,TRUE,5,5,"[117,160,279,228,292,41,303,278,268,153,152,247,43,254,65,10,29,129,212,73]",1.6438,rectangle
,,,,,,,,,,,,,FF,,,,,,,,2.451,,,,,,,,,,,,,,,,,,,,,,6100ca9fe498aed972793cd7,61036d2136f49f6fa4568580,2021-07-30_05h09.05.293,Simcolourproject_2stim_asymm_v5,2020.2.10,Win32,60,61025ae37ef11b136ea224fe,,,,,,,,,2508,122,73,1,0,0,response1disk,,6,1,11,1,0,0,rectangle,1,11,1,0,0,1,11,1,0,0,1,94,254,148,1,,,,,,,,
,,,,,,,,,,,,,FF,,,,,,,,1.7396,,,,,,,,,,,,,,,,,,,,,,6100ca9fe498aed972793cd7,61036d2136f49f6fa4568580,2021-07-30_05h09.05.293,Simcolourproject_2stim_asymm_v5,2020.2.10,Win32,60,61025ae37ef11b136ea224fe,,,,,,,,,3106,-108,-44,1,0,0,response5disk,,2,-22,1,1,0,0,rectangle,-22,1,1,0,0,-22,1,1,0,0,1,95,255,60,1,,,,,,,,
,,,,,,,,,,,,,FF,,,,,,,,1.7811,,,,,,,,,,,,,,,,,,,,,,6100ca9fe498aed972793cd7,61036d2136f49f6fa4568580,2021-07-30_05h09.05.293,Simcolourproject_2stim_asymm_v5,2020.2.10,Win32,60,61025ae37ef11b136ea224fe,,,,,,,,,3948,-38,-119,1,0,0,response5disk,,3,10,-8,1,0,0,rectangle,10,-8,1,0,0,10,-8,1,0,0,1,96,256,22,1,,,,,,,,
,,,,,,,,,,,,,FF,,,,,,,,1.7936,,,,,,,,,,,,,,,,,,,,,,6100ca9fe498aed972793cd7,61036d2136f49f6fa4568580,2021-07-30_05h09.05.293,Simcolourproject_2stim_asymm_v5,2020.2.10,Win32,60,61025ae37ef11b136ea224fe,,,,,,,,,1595,42,90,1,0,0,response1disk,,7,-16,-4,1,0,0,rectangle,-16,-4,1,0,0,-16,-4,1,0,0,1,97,257,79,1,,,,,,,,
,,,,,,,,,,,,,FF,,,,,,,,0.8864,,,,,,,,,,,,,,,,,,,,,,6100ca9fe498aed972793cd7,61036d2136f49f6fa4568580,2021-07-30_05h09.05.293,Simcolourproject_2stim_asymm_v5,2020.2.10,Win32,60,61025ae37ef11b136ea224fe,,,,,,,,,1594,29,82,1,0,0,response1disk,,7,-27,-20,1,0,0,rectangle,-27,-20,1,0,0,-27,-20,1,0,0,1,98,258,59,1,,,,,,,,
,,,,,,,,,,,,,FF,,,,,,,,1.003,,,,,,,,,,,,,,,,,,,,,,6100ca9fe498aed972793cd7,61036d2136f49f6fa4568580,2021-07-30_05h09.05.293,Simcolourproject_2stim_asymm_v5,2020.2.10,Win32,60,61025ae37ef11b136ea224fe,,,,,,,,,2292,-106,55,1,0,0,response7disk,,1,-16,-3,1,0,0,rectangle,-16,-3,1,0,0,-16,-3,1,0,0,1,99,259,43,1,,,,,,,,
,,,,,,,,,,,,,FF,,,,,,,,2.4678,,,,,,,,,,,,,,,,,,,,,,6100ca9fe498aed972793cd7,61036d2136f49f6fa4568580,2021-07-30_05h09.05.293,Simcolourproject_2stim_asymm_v5,2020.2.10,Win32,60,61025ae37ef11b136ea224fe,,,,,,,,,3871,28,-98,1,0,0,response3disk,,4,15,-7,1,0,0,rectangle,15,-7,1,0,0,15,-7,1,0,0,1,100,260,44,1,,,,,,,,
,,,,,,,,,,,,,FF,,,,,,,,1.0197,,,,,,,,,,,,,,,,,,,,,,6100ca9fe498aed972793cd7,61036d2136f49f6fa4568580,2021-07-30_05h09.05.293,Simcolourproject_2stim_asymm_v5,2020.2.10,Win32,60,61025ae37ef11b136ea224fe,,,,,,,,,2612,71,109,1,0,0,response1disk,,7,1,-6,1,0,0,rectangle,1,-6,1,0,0,1,-6,1,0,0,1,101,261,118,1,,,,,,,,
,,,,,,,,,,,,,FF,,,,,,,,1.3275,,,,,,,,,,,,,,,,,,,,,,6100ca9fe498aed972793cd7,61036d2136f49f6fa4568580,2021-07-30_05h09.05.293,Simcolourproject_2stim_asymm_v5,2020.2.10,Win32,60,61025ae37ef11b136ea224fe,,,,,,,,,2019,42,106,1,0,0,response1disk,,7,0,-12,1,0,0,rectangle,0,-12,1,0,0,0,-12,1,0,0,1,102,262,135,1,,,,,,,,
,,,,,,,,,,,,,FF,,,,,,,,1.1695,,,,,,,,,,,,,,,,,,,,,,6100ca9fe498aed972793cd7,61036d2136f49f6fa4568580,2021-07-30_05h09.05.293,Simcolourproject_2stim_asymm_v5,2020.2.10,Win32,60,61025ae37ef11b136ea224fe,,,,,,,,,327,54,119,1,0,0,response1disk,,7,10,18,1,0,0,rectangle,10,18,1,0,0,10,18,1,0,0,1,103,263,146,1,,,,,,,,
,,,,,,,,,,,,,FF,,,,,,,,1.6479,,,,,,,,,,,,,,,,,,,,,,6100ca9fe498aed972793cd7,61036d2136f49f6fa4568580,2021-07-30_05h09.05.293,Simcolourproject_2stim_asymm_v5,2020.2.10,Win32,60,61025ae37ef11b136ea224fe,,,,,,,,,2423,50,-114,1,0,0,response3disk,,4,14,-8,1,0,0,rectangle,14,-8,1,0,0,14,-8,1,0,0,1,104,264,154,1,,,,,,,,
,,,,,,,,,,,,,FF,,,,,,,,1.5272,,,,,,,,,,,,,,,,,,,,,,6100ca9fe498aed972793cd7,61036d2136f49f6fa4568580,2021-07-30_05h09.05.293,Simcolourproject_2stim_asymm_v5,2020.2.10,Win32,60,61025ae37ef11b136ea224fe,,,,,,,,,1861,110,53,1,0,0,response1disk,,6,24,11,1,0,0,rectangle,24,11,1,0,0,24,11,1,0,0,1,105,265,45,1,,,,,,,,
,,,,,,,,,,,,,FF,,,,,,,,1.469,,,,,,,,,,,,,,,,,,,,,,6100ca9fe498aed972793cd7,61036d2136f49f6fa4568580,2021-07-30_05h09.05.293,Simcolourproject_2stim_asymm_v5,2020.2.10,Win32,60,61025ae37ef11b136ea224fe,,,,,,,,,1134,-61,-123,1,0,0,response5disk,,3,-4,-2,1,0,0,rectangle,-4,-2,1,0,0,-4,-2,1,0,0,1,106,266,11,1,,,,,,,,
,,,,,,,,,,,,,FF,,,,,,,,1.6397,,,,,,,,,,,,,,,,,,,,,,6100ca9fe498aed972793cd7,61036d2136f49f6fa4568580,2021-07-30_05h09.05.293,Simcolourproject_2stim_asymm_v5,2020.2.10,Win32,60,61025ae37ef11b136ea224fe,,,,,,,,,164,-123,-43,1,0,0,response5disk,,2,-8,-2,1,0,0,rectangle,34,-116,1,0,0,-4,4,1,0,0,1,107,267,119,1,,response3disk_3,TRUE,4,4,"[117,160,279,228,292,41,303,278,268,153,152,247,43,254,65,10,29,129,212,73]",1.4815,rectangle
,,,,,,,,,,,,,FF,,,,,,,,1.5399,,,,,,,,,,,,,,,,,,,,,,6100ca9fe498aed972793cd7,61036d2136f49f6fa4568580,2021-07-30_05h09.05.293,Simcolourproject_2stim_asymm_v5,2020.2.10,Win32,60,61025ae37ef11b136ea224fe,,,,,,,,,1587,93,-72,1,0,0,response3disk,,5,21,3,1,0,0,rectangle,21,3,1,0,0,21,3,1,0,0,1,108,268,26,1,,,,,,,,
,,,,,,,,,,,,,FF,,,,,,,,0.7241,,,,,,,,,,,,,,,,,,,,,,6100ca9fe498aed972793cd7,61036d2136f49f6fa4568580,2021-07-30_05h09.05.293,Simcolourproject_2stim_asymm_v5,2020.2.10,Win32,60,61025ae37ef11b136ea224fe,,,,,,,,,3234,43,93,1,0,0,response1disk,,7,-1,-1,1,0,0,rectangle,-1,-1,1,0,0,-1,-1,1,0,0,1,109,269,13,1,,,,,,,,
,,,,,,,,,,,,,FF,,,,,,,,1.4024,,,,,,,,,,,,,,,,,,,,,,6100ca9fe498aed972793cd7,61036d2136f49f6fa4568580,2021-07-30_05h09.05.293,Simcolourproject_2stim_asymm_v5,2020.2.10,Win32,60,61025ae37ef11b136ea224fe,,,,,,,,,31,48,106,1,0,0,response1disk,,7,16,16,1,0,0,rectangle,16,16,1,0,0,16,16,1,0,0,1,110,270,18,1,,,,,,,,
,,,,,,,,,,,,,FF,,,,,,,,1.5939,,,,,,,,,,,,,,,,,,,,,,6100ca9fe498aed972793cd7,61036d2136f49f6fa4568580,2021-07-30_05h09.05.293,Simcolourproject_2stim_asymm_v5,2020.2.10,Win32,60,61025ae37ef11b136ea224fe,,,,,,,,,708,45,106,1,0,0,response1disk,,7,20,21,1,0,0,rectangle,20,21,1,0,0,20,21,1,0,0,1,111,271,110,1,,,,,,,,
,,,,,,,,,,,,,FF,,,,,,,,2.9297,,,,,,,,,,,,,,,,,,,,,,6100ca9fe498aed972793cd7,61036d2136f49f6fa4568580,2021-07-30_05h09.05.293,Simcolourproject_2stim_asymm_v5,2020.2.10,Win32,60,61025ae37ef11b136ea224fe,,,,,,,,,2300,-132,-52,1,0,0,response5disk,,2,-25,-8,1,0,0,rectangle,-25,-8,1,0,0,-25,-8,1,0,0,1,112,272,42,1,,,,,,,,
,,,,,,,,,,,,,FF,,,,,,,,1.7353,,,,,,,,,,,,,,,,,,,,,,6100ca9fe498aed972793cd7,61036d2136f49f6fa4568580,2021-07-30_05h09.05.293,Simcolourproject_2stim_asymm_v5,2020.2.10,Win32,60,61025ae37ef11b136ea224fe,,,,,,,,,14,-70,-117,1,0,0,response5disk,,3,4,4,1,0,0,rectangle,4,4,1,0,0,4,4,1,0,0,1,113,273,23,1,,,,,,,,
,,,,,,,,,,,,,FF,,,,,,,,4.1323,,,,,,,,,,,,,,,,,,,,,,6100ca9fe498aed972793cd7,61036d2136f49f6fa4568580,2021-07-30_05h09.05.293,Simcolourproject_2stim_asymm_v5,2020.2.10,Win32,60,61025ae37ef11b136ea224fe,,,,,,,,,173,-139,-55,1,0,0,response5disk,,2,-8,-10,1,0,0,rectangle,-8,-10,1,0,0,-8,-10,1,0,0,1,114,274,117,1,,,,,,,,
,,,,,,,,,,,,,FF,,,,,,,,1.9351,,,,,,,,,,,,,,,,,,,,,,6100ca9fe498aed972793cd7,61036d2136f49f6fa4568580,2021-07-30_05h09.05.293,Simcolourproject_2stim_asymm_v5,2020.2.10,Win32,60,61025ae37ef11b136ea224fe,,,,,,,,,82,62,-116,1,0,0,response3disk,,4,28,-6,1,0,0,rectangle,28,-6,1,0,0,28,-6,1,0,0,1,115,275,133,1,,,,,,,,
,,,,,,,,,,,,,FF,,,,,,,,0.9862,,,,,,,,,,,,,,,,,,,,,,6100ca9fe498aed972793cd7,61036d2136f49f6fa4568580,2021-07-30_05h09.05.293,Simcolourproject_2stim_asymm_v5,2020.2.10,Win32,60,61025ae37ef11b136ea224fe,,,,,,,,,1037,79,-46,1,0,0,response3disk,,5,24,-3,1,0,0,rectangle,24,-3,1,0,0,24,-3,1,0,0,1,116,276,114,1,,,,,,,,
,,,,,,,,,,,,,FF,,,,,,,,1.1237,,,,,,,,,,,,,,,,,,,,,,6100ca9fe498aed972793cd7,61036d2136f49f6fa4568580,2021-07-30_05h09.05.293,Simcolourproject_2stim_asymm_v5,2020.2.10,Win32,60,61025ae37ef11b136ea224fe,,,,,,,,,3683,58,-89,1,0,0,response3disk,,4,11,11,1,0,0,rectangle,43,-112,1,0,0,2,16,1,0,0,1,117,277,95,1,,response3disk_3,TRUE,4,4,"[117,160,279,228,292,41,303,278,268,153,152,247,43,254,65,10,29,129,212,73]",1.369,rectangle
,,,,,,,,,,,,,FF,,,,,,,,1.4177,,,,,,,,,,,,,,,,,,,,,,6100ca9fe498aed972793cd7,61036d2136f49f6fa4568580,2021-07-30_05h09.05.293,Simcolourproject_2stim_asymm_v5,2020.2.10,Win32,60,61025ae37ef11b136ea224fe,,,,,,,,,2476,117,52,1,0,0,response1disk,,6,-16,16,1,0,0,rectangle,92,-47,1,0,0,31,-5,1,0,0,1,118,278,53,1,,response3disk_3,TRUE,5,5,"[117,160,279,228,292,41,303,278,268,153,152,247,43,254,65,10,29,129,212,73]",1.0648,rectangle
,,,,,,,,,,,,,FF,,,,,,,,1.2458,,,,,,,,,,,,,,,,,,,,,,6100ca9fe498aed972793cd7,61036d2136f49f6fa4568580,2021-07-30_05h09.05.293,Simcolourproject_2stim_asymm_v5,2020.2.10,Win32,60,61025ae37ef11b136ea224fe,,,,,,,,,3689,41,-97,1,0,0,response3disk,,4,1,5,1,0,0,rectangle,1,5,1,0,0,1,5,1,0,0,1,119,279,138,1,,,,,,,,
,,,,,,,,,,,,,FF,,,,,,,,1.6511,,,,,,,,,,,,,,,,,,,,,,6100ca9fe498aed972793cd7,61036d2136f49f6fa4568580,2021-07-30_05h09.05.293,Simcolourproject_2stim_asymm_v5,2020.2.10,Win32,60,61025ae37ef11b136ea224fe,,,,,,,,,1892,-119,-46,1,0,0,response5disk,,2,-31,8,1,0,0,rectangle,-31,8,1,0,0,-31,8,1,0,0,1,120,280,93,1,,,,,,,,
,,,,,,,,,,,,,FF,,,,,,,,1.1943,,,,,,,,,,,,,,,,,,,,,,6100ca9fe498aed972793cd7,61036d2136f49f6fa4568580,2021-07-30_05h09.05.293,Simcolourproject_2stim_asymm_v5,2020.2.10,Win32,60,61025ae37ef11b136ea224fe,,,,,,,,,2289,41,-114,1,0,0,response3disk,,4,11,1,1,0,0,rectangle,11,1,1,0,0,11,1,1,0,0,1,121,281,20,1,,,,,,,,
,,,,,,,,,,,,,FF,,,,,,,,1.6106,,,,,,,,,,,,,,,,,,,,,,6100ca9fe498aed972793cd7,61036d2136f49f6fa4568580,2021-07-30_05h09.05.293,Simcolourproject_2stim_asymm_v5,2020.2.10,Win32,60,61025ae37ef11b136ea224fe,,,,,,,,,2943,37,-109,1,0,0,response3disk,,4,8,2,1,0,0,rectangle,8,2,1,0,0,8,2,1,0,0,1,122,282,49,1,,,,,,,,
,,,,,,,,,,,,,FF,,,,,,,,1.8436,,,,,,,,,,,,,,,,,,,,,,6100ca9fe498aed972793cd7,61036d2136f49f6fa4568580,2021-07-30_05h09.05.293,Simcolourproject_2stim_asymm_v5,2020.2.10,Win32,60,61025ae37ef11b136ea224fe,,,,,,,,,3220,128,50,1,0,0,response1disk,,6,15,12,1,0,0,rectangle,15,12,1,0,0,15,12,1,0,0,1,123,283,139,1,,,,,,,,
,,,,,,,,,,,,,FF,,,,,,,,1.4179,,,,,,,,,,,,,,,,,,,,,,6100ca9fe498aed972793cd7,61036d2136f49f6fa4568580,2021-07-30_05h09.05.293,Simcolourproject_2stim_asymm_v5,2020.2.10,Win32,60,61025ae37ef11b136ea224fe,,,,,,,,,1978,106,-59,1,0,0,response3disk,,5,23,3,1,0,0,rectangle,23,3,1,0,0,23,3,1,0,0,1,124,284,3,1,,,,,,,,
,,,,,,,,,,,,,FF,,,,,,,,2.0153,,,,,,,,,,,,,,,,,,,,,,6100ca9fe498aed972793cd7,61036d2136f49f6fa4568580,2021-07-30_05h09.05.293,Simcolourproject_2stim_asymm_v5,2020.2.10,Win32,60,61025ae37ef11b136ea224fe,,,,,,,,,145,118,67,1,0,0,response1disk,,6,-25,-6,1,0,0,rectangle,-25,-6,1,0,0,-25,-6,1,0,0,1,125,285,91,1,,,,,,,,
,,,,,,,,,,,,,FF,,,,,,,,1.2734,,,,,,,,,,,,,,,,,,,,,,6100ca9fe498aed972793cd7,61036d2136f49f6fa4568580,2021-07-30_05h09.05.293,Simcolourproject_2stim_asymm_v5,2020.2.10,Win32,60,61025ae37ef11b136ea224fe,,,,,,,,,2589,97,52,1,0,0,response1disk,,6,11,5,1,0,0,rectangle,11,5,1,0,0,11,5,1,0,0,1,126,286,31,1,,,,,,,,
,,,,,,,,,,,,,FF,,,,,,,,1.573,,,,,,,,,,,,,,,,,,,,,,6100ca9fe498aed972793cd7,61036d2136f49f6fa4568580,2021-07-30_05h09.05.293,Simcolourproject_2stim_asymm_v5,2020.2.10,Win32,60,61025ae37ef11b136ea224fe,,,,,,,,,1712,64,107,1,0,0,response1disk,,7,27,12,1,0,0,rectangle,27,12,1,0,0,27,12,1,0,0,1,127,287,129,1,,,,,,,,
,,,,,,,,,,,,,FF,,,,,,,,1.5804,,,,,,,,,,,,,,,,,,,,,,6100ca9fe498aed972793cd7,61036d2136f49f6fa4568580,2021-07-30_05h09.05.293,Simcolourproject_2stim_asymm_v5,2020.2.10,Win32,60,61025ae37ef11b136ea224fe,,,,,,,,,911,93,-43,1,0,0,response3disk,,5,46,-7,1,0,0,rectangle,46,-7,1,0,0,46,-7,1,0,0,1,128,288,86,1,,,,,,,,
,,,,,,,,,,,,,FF,,,,,,,,2.4775,,,,,,,,,,,,,,,,,,,,,,6100ca9fe498aed972793cd7,61036d2136f49f6fa4568580,2021-07-30_05h09.05.293,Simcolourproject_2stim_asymm_v5,2020.2.10,Win32,60,61025ae37ef11b136ea224fe,,,,,,,,,2173,-40,-82,1,0,0,response5disk,,3,-3,8,1,0,0,rectangle,-3,8,1,0,0,-3,8,1,0,0,1,129,289,0,1,,,,,,,,
,,,,,,,,,,,,,FF,,,,,,,,1.3498,,,,,,,,,,,,,,,,,,,,,,6100ca9fe498aed972793cd7,61036d2136f49f6fa4568580,2021-07-30_05h09.05.293,Simcolourproject_2stim_asymm_v5,2020.2.10,Win32,60,61025ae37ef11b136ea224fe,,,,,,,,,853,120,61,1,0,0,response1disk,,6,-25,-6,1,0,0,rectangle,-25,-6,1,0,0,-25,-6,1,0,0,1,130,290,121,1,,,,,,,,
,,,,,,,,,,,,,FF,,,,,,,,0.7356,,,,,,,,,,,,,,,,,,,,,,6100ca9fe498aed972793cd7,61036d2136f49f6fa4568580,2021-07-30_05h09.05.293,Simcolourproject_2stim_asymm_v5,2020.2.10,Win32,60,61025ae37ef11b136ea224fe,,,,,,,,,2205,33,96,1,0,0,response1disk,,7,-10,9,1,0,0,rectangle,56,100,1,0,0,16,1,1,0,0,1,131,291,143,1,,response1disk_3,TRUE,7,7,"[117,160,279,228,292,41,303,278,268,153,152,247,43,254,65,10,29,129,212,73]",1.6927,rectangle
,,,,,,,,,,,,,FF,,,,,,,,4.64,,,,,,,,,,,,,,,,,,,,,,6100ca9fe498aed972793cd7,61036d2136f49f6fa4568580,2021-07-30_05h09.05.293,Simcolourproject_2stim_asymm_v5,2020.2.10,Win32,60,61025ae37ef11b136ea224fe,,,,,,,,,134,105,-50,1,0,0,response3disk,,5,17,14,1,0,0,rectangle,17,14,1,0,0,17,14,1,0,0,1,132,292,152,1,,,,,,,,
,,,,,,,,,,,,,FF,,,,,,,,4.199,,,,,,,,,,,,,,,,,,,,,,6100ca9fe498aed972793cd7,61036d2136f49f6fa4568580,2021-07-30_05h09.05.293,Simcolourproject_2stim_asymm_v5,2020.2.10,Win32,60,61025ae37ef11b136ea224fe,,,,,,,,,4303,50,85,1,0,0,response1disk,,7,17,13,1,0,0,rectangle,17,13,1,0,0,17,13,1,0,0,1,133,293,56,1,,,,,,,,
,,,,,,,,,,,,,FF,,,,,,,,1.2485,,,,,,,,,,,,,,,,,,,,,,6100ca9fe498aed972793cd7,61036d2136f49f6fa4568580,2021-07-30_05h09.05.293,Simcolourproject_2stim_asymm_v5,2020.2.10,Win32,60,61025ae37ef11b136ea224fe,,,,,,,,,269,104,63,1,0,0,response1disk,,6,15,7,1,0,0,rectangle,15,7,1,0,0,15,7,1,0,0,1,134,294,149,1,,,,,,,,
,,,,,,,,,,,,,FF,,,,,,,,0.695,,,,,,,,,,,,,,,,,,,,,,6100ca9fe498aed972793cd7,61036d2136f49f6fa4568580,2021-07-30_05h09.05.293,Simcolourproject_2stim_asymm_v5,2020.2.10,Win32,60,61025ae37ef11b136ea224fe,,,,,,,,,2557,42,110,1,0,0,response1disk,,7,9,-10,1,0,0,rectangle,9,-10,1,0,0,9,-10,1,0,0,1,135,295,61,1,,,,,,,,
,,,,,,,,,,,,,FF,,,,,,,,1.5773,,,,,,,,,,,,,,,,,,,,,,6100ca9fe498aed972793cd7,61036d2136f49f6fa4568580,2021-07-30_05h09.05.293,Simcolourproject_2stim_asymm_v5,2020.2.10,Win32,60,61025ae37ef11b136ea224fe,,,,,,,,,272,77,101,1,0,0,response1disk,,7,34,5,1,0,0,rectangle,34,5,1,0,0,34,5,1,0,0,1,136,296,90,1,,,,,,,,
,,,,,,,,,,,,,FF,,,,,,,,1.9019,,,,,,,,,,,,,,,,,,,,,,6100ca9fe498aed972793cd7,61036d2136f49f6fa4568580,2021-07-30_05h09.05.293,Simcolourproject_2stim_asymm_v5,2020.2.10,Win32,60,61025ae37ef11b136ea224fe,,,,,,,,,2251,33,69,1,0,0,response1disk,,7,7,-16,1,0,0,rectangle,7,-16,1,0,0,7,-16,1,0,0,1,137,297,17,1,,,,,,,,
,,,,,,,,,,,,,FF,,,,,,,,0.7075,,,,,,,,,,,,,,,,,,,,,,6100ca9fe498aed972793cd7,61036d2136f49f6fa4568580,2021-07-30_05h09.05.293,Simcolourproject_2stim_asymm_v5,2020.2.10,Win32,60,61025ae37ef11b136ea224fe,,,,,,,,,1282,59,104,1,0,0,response1disk,,7,-13,20,1,0,0,rectangle,-13,20,1,0,0,-13,20,1,0,0,1,138,298,131,1,,,,,,,,
,,,,,,,,,,,,,FF,,,,,,,,1.2193,,,,,,,,,,,,,,,,,,,,,,6100ca9fe498aed972793cd7,61036d2136f49f6fa4568580,2021-07-30_05h09.05.293,Simcolourproject_2stim_asymm_v5,2020.2.10,Win32,60,61025ae37ef11b136ea224fe,,,,,,,,,176,30,79,1,0,0,response1disk,,7,-4,-4,1,0,0,rectangle,-4,-4,1,0,0,-4,-4,1,0,0,1,139,299,88,1,,,,,,,,
,,,,,,,,,,,,,FF,,,,,,,,1.2609,,,,,,,,,,,,,,,,,,,,,,6100ca9fe498aed972793cd7,61036d2136f49f6fa4568580,2021-07-30_05h09.05.293,Simcolourproject_2stim_asymm_v5,2020.2.10,Win32,60,61025ae37ef11b136ea224fe,,,,,,,,,4341,39,105,1,0,0,response1disk,,7,5,-8,1,0,0,rectangle,5,-8,1,0,0,5,-8,1,0,0,1,140,300,24,1,,,,,,,,
,,,,,,,,,,,,,FF,,,,,,,,2.1808,,,,,,,,,,,,,,,,,,,,,,6100ca9fe498aed972793cd7,61036d2136f49f6fa4568580,2021-07-30_05h09.05.293,Simcolourproject_2stim_asymm_v5,2020.2.10,Win32,60,61025ae37ef11b136ea224fe,,,,,,,,,404,133,35,1,0,0,response1disk,,6,22,2,1,0,0,rectangle,22,2,1,0,0,22,2,1,0,0,1,141,301,7,1,,,,,,,,
