key_resp.keys,key_resp.rt,key_resp_14.keys,key_resp_14.rt,key_resp_15.keys,key_resp_15.rt,key_resp_17.keys,key_resp_17.rt,key_resp_9.keys,key_resp_9.rt,key_resp_10.keys,key_resp_10.rt,practice_comparison,Ecc,mouse_5.x,mouse_5.y,mouse_5.leftButton,mouse_5.midButton,mouse_5.rightButton,mouse_5.clicked_name,pracsimilarity,response_time,mouse_10.x,mouse_10.y,mouse_10.leftButton,mouse_10.midButton,mouse_10.rightButton,mouse_10.clicked_name,mouse_7.x,mouse_7.y,mouse_7.leftButton,mouse_7.midButton,mouse_7.rightButton,mouse_6.x,mouse_6.y,mouse_6.leftButton,mouse_6.midButton,mouse_6.rightButton,duringprac.thisRepN,duringprac.thisTrialN,duringprac.thisN,duringprac.thisIndex,duringprac.ran,participant,session,date,expName,psychopyVersion,OS,frameRate,study_id,mouse_7.clicked_name,catchpracsimilarity,catch_response_time,catchnumberprac,catchtrialorderprac,mouse_6.clicked_name,key_resp_22.keys,key_resp_22.rt,realcomparison,mouse.x,mouse.y,mouse.leftButton,mouse.midButton,mouse.rightButton,mouse.clicked_name,Colour2,similarity,mouse_2.x,mouse_2.y,mouse_2.leftButton,mouse_2.midButton,mouse_2.rightButton,mouse_2.clicked_name,mouse_3.x,mouse_3.y,mouse_3.leftButton,mouse_3.midButton,mouse_3.rightButton,mouse_11.x,mouse_11.y,mouse_11.leftButton,mouse_11.midButton,mouse_11.rightButton,trials_2.thisRepN,trials_2.thisTrialN,trials_2.thisN,trials_2.thisIndex,trials_2.ran,Colour1,mouse_3.clicked_name,catchornah,catchsimilarity,catchnumber,catchtrialorder,catchRT,mouse_11.clicked_name
space,2.95,space,5.691,space,45.64,space,12.178,space,2,space,6.355,45,PF,83,100,1,0,0,response1disk_5,7,24.427,-3,4,1,0,0,rectangle_8,-3,4,1,0,0,-3,4,1,0,0,0,0,0,6,1,6100a7d308e142f9066458c2,610378b7924b4aee458743cc,2021-07-29_21h03.55.938,Simcolourproject_2stim_asymm_v5,2020.2.10,MacIntel,60,61025ae37ef11b136ea224fe,,,,,,,,,,,,,,,,,,,,,,,,,,,,,,,,,,,,,,,,,,,,,,
,,,,,,,,,,,,7,FF,92,47,1,0,0,response1disk_5,6,5.286,-4,-5,1,0,0,rectangle_8,-43,84,1,0,0,4,-4,1,0,0,0,1,1,5,1,6100a7d308e142f9066458c2,610378b7924b4aee458743cc,2021-07-29_21h03.55.938,Simcolourproject_2stim_asymm_v5,2020.2.10,MacIntel,60,61025ae37ef11b136ea224fe,response7disk_7,0,3.446,0,"[2,5]",rectangle_4,,,,,,,,,,,,,,,,,,,,,,,,,,,,,,,,,,,,,,,,
,,,,,,,,,,,,141,PF,81,-58,1,0,0,response3disk_5,5,2.784,-3,-9,1,0,0,rectangle_8,-3,-9,1,0,0,-3,-9,1,0,0,0,2,2,4,1,6100a7d308e142f9066458c2,610378b7924b4aee458743cc,2021-07-29_21h03.55.938,Simcolourproject_2stim_asymm_v5,2020.2.10,MacIntel,60,61025ae37ef11b136ea224fe,,,,,,,,,,,,,,,,,,,,,,,,,,,,,,,,,,,,,,,,,,,,,,
,,,,,,,,,,,,143,PF,86,-39,1,0,0,response3disk_5,5,2.654,-3,-11,1,0,0,rectangle_8,-3,-11,1,0,0,-3,-11,1,0,0,0,3,3,1,1,6100a7d308e142f9066458c2,610378b7924b4aee458743cc,2021-07-29_21h03.55.938,Simcolourproject_2stim_asymm_v5,2020.2.10,MacIntel,60,61025ae37ef11b136ea224fe,,,,,,,,,,,,,,,,,,,,,,,,,,,,,,,,,,,,,,,,,,,,,,
,,,,,,,,,,,,97,FF,46,82,1,0,0,response1disk_5,7,1.76,0,2,1,0,0,rectangle_8,-50,88,1,0,0,1,2,1,0,0,0,4,4,3,1,6100a7d308e142f9066458c2,610378b7924b4aee458743cc,2021-07-29_21h03.55.938,Simcolourproject_2stim_asymm_v5,2020.2.10,MacIntel,60,61025ae37ef11b136ea224fe,response7disk_7,0,2.781,0,"[2,5]",rectangle_4,,,,,,,,,,,,,,,,,,,,,,,,,,,,,,,,,,,,,,,,
,,,,,,,,,,,,124,FF,40,109,1,0,0,response1disk_5,7,1.349,-2,5,1,0,0,rectangle_8,-2,5,1,0,0,-2,5,1,0,0,0,5,5,0,1,6100a7d308e142f9066458c2,610378b7924b4aee458743cc,2021-07-29_21h03.55.938,Simcolourproject_2stim_asymm_v5,2020.2.10,MacIntel,60,61025ae37ef11b136ea224fe,,,,,,,,,,,,,,,,,,,,,,,,,,,,,,,,,,,,,,,,,,,,,,
,,,,,,,,,,,,114,PF,62,88,1,0,0,response1disk_5,7,2.672,2,-2,1,0,0,rectangle_8,2,-2,1,0,0,2,-2,1,0,0,0,6,6,2,1,6100a7d308e142f9066458c2,610378b7924b4aee458743cc,2021-07-29_21h03.55.938,Simcolourproject_2stim_asymm_v5,2020.2.10,MacIntel,60,61025ae37ef11b136ea224fe,,,,,,,,,,,,,,,,,,,,,,,,,,,,,,,,,,,,,,,,,,,,,,
,,,,,,,,,,,,,FF,,,,,,,,2.623,,,,,,,,,,,,,,,,,,,,,,6100a7d308e142f9066458c2,610378b7924b4aee458743cc,2021-07-29_21h03.55.938,Simcolourproject_2stim_asymm_v5,2020.2.10,MacIntel,60,61025ae37ef11b136ea224fe,,,,,,,space,4.864,1710,51,84,1,0,0,response1disk,,7,0,-4,1,0,0,rectangle,0,-4,1,0,0,0,-4,1,0,0,0,0,0,67,1,,,,,,,,
,,,,,,,,,,,,,FF,,,,,,,,2.603,,,,,,,,,,,,,,,,,,,,,,6100a7d308e142f9066458c2,610378b7924b4aee458743cc,2021-07-29_21h03.55.938,Simcolourproject_2stim_asymm_v5,2020.2.10,MacIntel,60,61025ae37ef11b136ea224fe,,,,,,,,,424,105,55,1,0,0,response1disk,,6,-1,-2,1,0,0,rectangle,-40,88,1,0,0,-1,-1,1,0,0,0,1,1,50,1,,response7disk_3,TRUE,0,0,"[171,116,158,249,218,106,195,230,133,202,175,16,2,145,106,265,64,212,30,110]",1.579,rectangle
,,,,,,,,,,,,,FF,,,,,,,,1.479,,,,,,,,,,,,,,,,,,,,,,6100a7d308e142f9066458c2,610378b7924b4aee458743cc,2021-07-29_21h03.55.938,Simcolourproject_2stim_asymm_v5,2020.2.10,MacIntel,60,61025ae37ef11b136ea224fe,,,,,,,,,4315,42,108,1,0,0,response1disk,,7,-10,-16,1,0,0,rectangle,-10,-16,1,0,0,-10,-16,1,0,0,0,2,2,2,1,,,,,,,,
,,,,,,,,,,,,,FF,,,,,,,,2.373,,,,,,,,,,,,,,,,,,,,,,6100a7d308e142f9066458c2,610378b7924b4aee458743cc,2021-07-29_21h03.55.938,Simcolourproject_2stim_asymm_v5,2020.2.10,MacIntel,60,61025ae37ef11b136ea224fe,,,,,,,,,2545,-45,-79,1,0,0,response5disk,,3,-7,-2,1,0,0,rectangle,-7,-2,1,0,0,-7,-2,1,0,0,0,3,3,46,1,,,,,,,,
,,,,,,,,,,,,,FF,,,,,,,,2.033,,,,,,,,,,,,,,,,,,,,,,6100a7d308e142f9066458c2,610378b7924b4aee458743cc,2021-07-29_21h03.55.938,Simcolourproject_2stim_asymm_v5,2020.2.10,MacIntel,60,61025ae37ef11b136ea224fe,,,,,,,,,2775,-53,113,1,0,0,response7disk,,0,-5,1,1,0,0,rectangle,-5,1,1,0,0,-5,1,1,0,0,0,4,4,10,1,,,,,,,,
,,,,,,,,,,,,,FF,,,,,,,,1.513,,,,,,,,,,,,,,,,,,,,,,6100a7d308e142f9066458c2,610378b7924b4aee458743cc,2021-07-29_21h03.55.938,Simcolourproject_2stim_asymm_v5,2020.2.10,MacIntel,60,61025ae37ef11b136ea224fe,,,,,,,,,3308,55,85,1,0,0,response1disk,,7,3,-8,1,0,0,rectangle,3,-8,1,0,0,3,-8,1,0,0,0,5,5,9,1,,,,,,,,
,,,,,,,,,,,,,FF,,,,,,,,1.043,,,,,,,,,,,,,,,,,,,,,,6100a7d308e142f9066458c2,610378b7924b4aee458743cc,2021-07-29_21h03.55.938,Simcolourproject_2stim_asymm_v5,2020.2.10,MacIntel,60,61025ae37ef11b136ea224fe,,,,,,,,,925,45,87,1,0,0,response1disk,,7,-6,-6,1,0,0,rectangle,-6,-6,1,0,0,-6,-6,1,0,0,0,6,6,121,1,,,,,,,,
,,,,,,,,,,,,,FF,,,,,,,,1.615,,,,,,,,,,,,,,,,,,,,,,6100a7d308e142f9066458c2,610378b7924b4aee458743cc,2021-07-29_21h03.55.938,Simcolourproject_2stim_asymm_v5,2020.2.10,MacIntel,60,61025ae37ef11b136ea224fe,,,,,,,,,3785,37,-94,1,0,0,response3disk,,4,-3,1,1,0,0,rectangle,-3,1,1,0,0,-3,1,1,0,0,0,7,7,76,1,,,,,,,,
,,,,,,,,,,,,,FF,,,,,,,,1.2,,,,,,,,,,,,,,,,,,,,,,6100a7d308e142f9066458c2,610378b7924b4aee458743cc,2021-07-29_21h03.55.938,Simcolourproject_2stim_asymm_v5,2020.2.10,MacIntel,60,61025ae37ef11b136ea224fe,,,,,,,,,1837,48,-106,1,0,0,response3disk,,4,-9,-1,1,0,0,rectangle,-9,-1,1,0,0,-9,-1,1,0,0,0,8,8,73,1,,,,,,,,
,,,,,,,,,,,,,FF,,,,,,,,1.499,,,,,,,,,,,,,,,,,,,,,,6100a7d308e142f9066458c2,610378b7924b4aee458743cc,2021-07-29_21h03.55.938,Simcolourproject_2stim_asymm_v5,2020.2.10,MacIntel,60,61025ae37ef11b136ea224fe,,,,,,,,,266,68,-37,1,0,0,response3disk,,5,26,11,1,0,0,rectangle,26,11,1,0,0,26,11,1,0,0,0,9,9,17,1,,,,,,,,
,,,,,,,,,,,,,FF,,,,,,,,3.843,,,,,,,,,,,,,,,,,,,,,,6100a7d308e142f9066458c2,610378b7924b4aee458743cc,2021-07-29_21h03.55.938,Simcolourproject_2stim_asymm_v5,2020.2.10,MacIntel,60,61025ae37ef11b136ea224fe,,,,,,,,,1502,49,94,1,0,0,response1disk,,7,-1,-6,1,0,0,rectangle,-1,-6,1,0,0,-1,-6,1,0,0,0,10,10,118,1,,,,,,,,
,,,,,,,,,,,,,FF,,,,,,,,1.135,,,,,,,,,,,,,,,,,,,,,,6100a7d308e142f9066458c2,610378b7924b4aee458743cc,2021-07-29_21h03.55.938,Simcolourproject_2stim_asymm_v5,2020.2.10,MacIntel,60,61025ae37ef11b136ea224fe,,,,,,,,,3964,41,92,1,0,0,response1disk,,7,-7,-8,1,0,0,rectangle,-7,-8,1,0,0,-7,-8,1,0,0,0,11,11,6,1,,,,,,,,
,,,,,,,,,,,,,FF,,,,,,,,3.165,,,,,,,,,,,,,,,,,,,,,,6100a7d308e142f9066458c2,610378b7924b4aee458743cc,2021-07-29_21h03.55.938,Simcolourproject_2stim_asymm_v5,2020.2.10,MacIntel,60,61025ae37ef11b136ea224fe,,,,,,,,,1059,81,-45,1,0,0,response3disk,,5,-10,3,1,0,0,rectangle,-10,3,1,0,0,-10,3,1,0,0,0,12,12,111,1,,,,,,,,
,,,,,,,,,,,,,FF,,,,,,,,1.273,,,,,,,,,,,,,,,,,,,,,,6100a7d308e142f9066458c2,610378b7924b4aee458743cc,2021-07-29_21h03.55.938,Simcolourproject_2stim_asymm_v5,2020.2.10,MacIntel,60,61025ae37ef11b136ea224fe,,,,,,,,,1635,48,95,1,0,0,response1disk,,7,-5,-9,1,0,0,rectangle,-5,-9,1,0,0,-5,-9,1,0,0,0,13,13,40,1,,,,,,,,
,,,,,,,,,,,,,FF,,,,,,,,1.655,,,,,,,,,,,,,,,,,,,,,,6100a7d308e142f9066458c2,610378b7924b4aee458743cc,2021-07-29_21h03.55.938,Simcolourproject_2stim_asymm_v5,2020.2.10,MacIntel,60,61025ae37ef11b136ea224fe,,,,,,,,,904,89,50,1,0,0,response1disk,,6,8,-9,1,0,0,rectangle,8,-9,1,0,0,8,-9,1,0,0,0,14,14,148,1,,,,,,,,
,,,,,,,,,,,,,FF,,,,,,,,1.046,,,,,,,,,,,,,,,,,,,,,,6100a7d308e142f9066458c2,610378b7924b4aee458743cc,2021-07-29_21h03.55.938,Simcolourproject_2stim_asymm_v5,2020.2.10,MacIntel,60,61025ae37ef11b136ea224fe,,,,,,,,,181,53,99,1,0,0,response1disk,,7,4,-6,1,0,0,rectangle,-42,116,1,0,0,-5,6,1,0,0,0,15,15,98,1,,response7disk_3,TRUE,0,0,"[171,116,158,249,218,106,195,230,133,202,175,16,2,145,106,265,64,212,30,110]",1.574,rectangle
,,,,,,,,,,,,,FF,,,,,,,,1.548,,,,,,,,,,,,,,,,,,,,,,6100a7d308e142f9066458c2,610378b7924b4aee458743cc,2021-07-29_21h03.55.938,Simcolourproject_2stim_asymm_v5,2020.2.10,MacIntel,60,61025ae37ef11b136ea224fe,,,,,,,,,2575,38,101,1,0,0,response1disk,,7,-1,-3,1,0,0,rectangle,-1,-3,1,0,0,-1,-3,1,0,0,0,16,16,155,1,,,,,,,,
,,,,,,,,,,,,,FF,,,,,,,,1.111,,,,,,,,,,,,,,,,,,,,,,6100a7d308e142f9066458c2,610378b7924b4aee458743cc,2021-07-29_21h03.55.938,Simcolourproject_2stim_asymm_v5,2020.2.10,MacIntel,60,61025ae37ef11b136ea224fe,,,,,,,,,1101,43,87,1,0,0,response1disk,,7,6,6,1,0,0,rectangle,6,6,1,0,0,6,6,1,0,0,0,17,17,132,1,,,,,,,,
,,,,,,,,,,,,,FF,,,,,,,,1.495,,,,,,,,,,,,,,,,,,,,,,6100a7d308e142f9066458c2,610378b7924b4aee458743cc,2021-07-29_21h03.55.938,Simcolourproject_2stim_asymm_v5,2020.2.10,MacIntel,60,61025ae37ef11b136ea224fe,,,,,,,,,3658,37,72,1,0,0,response1disk,,7,6,-1,1,0,0,rectangle,6,-1,1,0,0,6,-1,1,0,0,0,18,18,8,1,,,,,,,,
,,,,,,,,,,,,,FF,,,,,,,,2.067,,,,,,,,,,,,,,,,,,,,,,6100a7d308e142f9066458c2,610378b7924b4aee458743cc,2021-07-29_21h03.55.938,Simcolourproject_2stim_asymm_v5,2020.2.10,MacIntel,60,61025ae37ef11b136ea224fe,,,,,,,,,2224,44,78,1,0,0,response1disk,,7,17,8,1,0,0,rectangle,17,8,1,0,0,17,8,1,0,0,0,19,19,20,1,,,,,,,,
,,,,,,,,,,,,,FF,,,,,,,,1.178,,,,,,,,,,,,,,,,,,,,,,6100a7d308e142f9066458c2,610378b7924b4aee458743cc,2021-07-29_21h03.55.938,Simcolourproject_2stim_asymm_v5,2020.2.10,MacIntel,60,61025ae37ef11b136ea224fe,,,,,,,,,931,31,85,1,0,0,response1disk,,7,-3,-5,1,0,0,rectangle,-3,-5,1,0,0,-3,-5,1,0,0,0,20,20,92,1,,,,,,,,
,,,,,,,,,,,,,FF,,,,,,,,2.967,,,,,,,,,,,,,,,,,,,,,,6100a7d308e142f9066458c2,610378b7924b4aee458743cc,2021-07-29_21h03.55.938,Simcolourproject_2stim_asymm_v5,2020.2.10,MacIntel,60,61025ae37ef11b136ea224fe,,,,,,,,,2713,90,53,1,0,0,response1disk,,6,-7,-9,1,0,0,rectangle,-7,-9,1,0,0,-7,-9,1,0,0,0,21,21,65,1,,,,,,,,
,,,,,,,,,,,,,FF,,,,,,,,2.924,,,,,,,,,,,,,,,,,,,,,,6100a7d308e142f9066458c2,610378b7924b4aee458743cc,2021-07-29_21h03.55.938,Simcolourproject_2stim_asymm_v5,2020.2.10,MacIntel,60,61025ae37ef11b136ea224fe,,,,,,,,,597,32,105,1,0,0,response1disk,,7,-7,-1,1,0,0,rectangle,-7,-1,1,0,0,-7,-1,1,0,0,0,22,22,151,1,,,,,,,,
,,,,,,,,,,,,,FF,,,,,,,,1.567,,,,,,,,,,,,,,,,,,,,,,6100a7d308e142f9066458c2,610378b7924b4aee458743cc,2021-07-29_21h03.55.938,Simcolourproject_2stim_asymm_v5,2020.2.10,MacIntel,60,61025ae37ef11b136ea224fe,,,,,,,,,2846,-92,-39,1,0,0,response5disk,,2,-2,-1,1,0,0,rectangle,-2,-1,1,0,0,-2,-1,1,0,0,0,23,23,113,1,,,,,,,,
,,,,,,,,,,,,,FF,,,,,,,,1.31,,,,,,,,,,,,,,,,,,,,,,6100a7d308e142f9066458c2,610378b7924b4aee458743cc,2021-07-29_21h03.55.938,Simcolourproject_2stim_asymm_v5,2020.2.10,MacIntel,60,61025ae37ef11b136ea224fe,,,,,,,,,569,-40,-81,1,0,0,response5disk,,3,-2,-8,1,0,0,rectangle,-2,-8,1,0,0,-2,-8,1,0,0,0,24,24,138,1,,,,,,,,
,,,,,,,,,,,,,FF,,,,,,,,1.84,,,,,,,,,,,,,,,,,,,,,,6100a7d308e142f9066458c2,610378b7924b4aee458743cc,2021-07-29_21h03.55.938,Simcolourproject_2stim_asymm_v5,2020.2.10,MacIntel,60,61025ae37ef11b136ea224fe,,,,,,,,,243,43,77,1,0,0,response1disk,,7,5,7,1,0,0,rectangle,5,7,1,0,0,5,7,1,0,0,0,25,25,29,1,,,,,,,,
,,,,,,,,,,,,,FF,,,,,,,,1.236,,,,,,,,,,,,,,,,,,,,,,6100a7d308e142f9066458c2,610378b7924b4aee458743cc,2021-07-29_21h03.55.938,Simcolourproject_2stim_asymm_v5,2020.2.10,MacIntel,60,61025ae37ef11b136ea224fe,,,,,,,,,2544,-76,47,1,0,0,response7disk,,1,-4,8,1,0,0,rectangle,-4,8,1,0,0,-4,8,1,0,0,0,26,26,44,1,,,,,,,,
,,,,,,,,,,,,,FF,,,,,,,,1.236,,,,,,,,,,,,,,,,,,,,,,6100a7d308e142f9066458c2,610378b7924b4aee458743cc,2021-07-29_21h03.55.938,Simcolourproject_2stim_asymm_v5,2020.2.10,MacIntel,60,61025ae37ef11b136ea224fe,,,,,,,,,320,98,-20,1,0,0,response3disk,,5,-19,-15,1,0,0,rectangle,-19,-15,1,0,0,-19,-15,1,0,0,0,27,27,142,1,,,,,,,,
,,,,,,,,,,,,,FF,,,,,,,,1.396,,,,,,,,,,,,,,,,,,,,,,6100a7d308e142f9066458c2,610378b7924b4aee458743cc,2021-07-29_21h03.55.938,Simcolourproject_2stim_asymm_v5,2020.2.10,MacIntel,60,61025ae37ef11b136ea224fe,,,,,,,,,3571,52,75,1,0,0,response1disk,,7,9,-2,1,0,0,rectangle,9,-2,1,0,0,9,-2,1,0,0,0,28,28,110,1,,,,,,,,
,,,,,,,,,,,,,FF,,,,,,,,1.603,,,,,,,,,,,,,,,,,,,,,,6100a7d308e142f9066458c2,610378b7924b4aee458743cc,2021-07-29_21h03.55.938,Simcolourproject_2stim_asymm_v5,2020.2.10,MacIntel,60,61025ae37ef11b136ea224fe,,,,,,,,,3577,87,39,1,0,0,response1disk,,6,11,1,1,0,0,rectangle,-77,-39,1,0,0,-4,-3,1,0,0,0,29,29,99,1,,response5disk_3,TRUE,2,2,"[171,116,158,249,218,106,195,230,133,202,175,16,2,145,106,265,64,212,30,110]",1.966,rectangle
,,,,,,,,,,,,,FF,,,,,,,,1.388,,,,,,,,,,,,,,,,,,,,,,6100a7d308e142f9066458c2,610378b7924b4aee458743cc,2021-07-29_21h03.55.938,Simcolourproject_2stim_asymm_v5,2020.2.10,MacIntel,60,61025ae37ef11b136ea224fe,,,,,,,,,3958,95,-20,1,0,0,response3disk,,5,7,1,1,0,0,rectangle,7,1,1,0,0,7,1,1,0,0,0,30,30,27,1,,,,,,,,
,,,,,,,,,,,,,FF,,,,,,,,1.21,,,,,,,,,,,,,,,,,,,,,,6100a7d308e142f9066458c2,610378b7924b4aee458743cc,2021-07-29_21h03.55.938,Simcolourproject_2stim_asymm_v5,2020.2.10,MacIntel,60,61025ae37ef11b136ea224fe,,,,,,,,,1547,81,-32,1,0,0,response3disk,,5,7,-3,1,0,0,rectangle,7,-3,1,0,0,7,-3,1,0,0,0,31,31,107,1,,,,,,,,
,,,,,,,,,,,,,FF,,,,,,,,1.465,,,,,,,,,,,,,,,,,,,,,,6100a7d308e142f9066458c2,610378b7924b4aee458743cc,2021-07-29_21h03.55.938,Simcolourproject_2stim_asymm_v5,2020.2.10,MacIntel,60,61025ae37ef11b136ea224fe,,,,,,,,,3737,82,55,1,0,0,response1disk,,6,18,3,1,0,0,rectangle,18,3,1,0,0,18,3,1,0,0,0,32,32,1,1,,,,,,,,
,,,,,,,,,,,,,FF,,,,,,,,1.084,,,,,,,,,,,,,,,,,,,,,,6100a7d308e142f9066458c2,610378b7924b4aee458743cc,2021-07-29_21h03.55.938,Simcolourproject_2stim_asymm_v5,2020.2.10,MacIntel,60,61025ae37ef11b136ea224fe,,,,,,,,,297,50,92,1,0,0,response1disk,,7,2,-1,1,0,0,rectangle,2,-1,1,0,0,2,-1,1,0,0,0,33,33,36,1,,,,,,,,
,,,,,,,,,,,,,FF,,,,,,,,1.078,,,,,,,,,,,,,,,,,,,,,,6100a7d308e142f9066458c2,610378b7924b4aee458743cc,2021-07-29_21h03.55.938,Simcolourproject_2stim_asymm_v5,2020.2.10,MacIntel,60,61025ae37ef11b136ea224fe,,,,,,,,,3179,40,89,1,0,0,response1disk,,7,6,10,1,0,0,rectangle,6,10,1,0,0,6,10,1,0,0,0,34,34,154,1,,,,,,,,
,,,,,,,,,,,,,FF,,,,,,,,0.855,,,,,,,,,,,,,,,,,,,,,,6100a7d308e142f9066458c2,610378b7924b4aee458743cc,2021-07-29_21h03.55.938,Simcolourproject_2stim_asymm_v5,2020.2.10,MacIntel,60,61025ae37ef11b136ea224fe,,,,,,,,,2010,50,94,1,0,0,response1disk,,7,-2,-4,1,0,0,rectangle,-2,-4,1,0,0,-2,-4,1,0,0,0,35,35,62,1,,,,,,,,
,,,,,,,,,,,,,FF,,,,,,,,0.971,,,,,,,,,,,,,,,,,,,,,,6100a7d308e142f9066458c2,610378b7924b4aee458743cc,2021-07-29_21h03.55.938,Simcolourproject_2stim_asymm_v5,2020.2.10,MacIntel,60,61025ae37ef11b136ea224fe,,,,,,,,,331,46,85,1,0,0,response1disk,,7,8,-3,1,0,0,rectangle,8,-3,1,0,0,8,-3,1,0,0,0,36,36,24,1,,,,,,,,
,,,,,,,,,,,,,FF,,,,,,,,1.382,,,,,,,,,,,,,,,,,,,,,,6100a7d308e142f9066458c2,610378b7924b4aee458743cc,2021-07-29_21h03.55.938,Simcolourproject_2stim_asymm_v5,2020.2.10,MacIntel,60,61025ae37ef11b136ea224fe,,,,,,,,,3161,35,87,1,0,0,response1disk,,7,9,14,1,0,0,rectangle,9,14,1,0,0,9,14,1,0,0,0,37,37,30,1,,,,,,,,
,,,,,,,,,,,,,FF,,,,,,,,3.288,,,,,,,,,,,,,,,,,,,,,,6100a7d308e142f9066458c2,610378b7924b4aee458743cc,2021-07-29_21h03.55.938,Simcolourproject_2stim_asymm_v5,2020.2.10,MacIntel,60,61025ae37ef11b136ea224fe,,,,,,,,,1233,71,-34,1,0,0,response3disk,,5,8,-5,1,0,0,rectangle,8,-5,1,0,0,8,-5,1,0,0,0,38,38,124,1,,,,,,,,
,,,,,,,,,,,,,FF,,,,,,,,1.214,,,,,,,,,,,,,,,,,,,,,,6100a7d308e142f9066458c2,610378b7924b4aee458743cc,2021-07-29_21h03.55.938,Simcolourproject_2stim_asymm_v5,2020.2.10,MacIntel,60,61025ae37ef11b136ea224fe,,,,,,,,,1230,-81,-60,1,0,0,response5disk,,2,-5,-1,1,0,0,rectangle,-5,-1,1,0,0,-5,-1,1,0,0,0,39,39,71,1,,,,,,,,
,,,,,,,,,,,,,FF,,,,,,,,0.919,,,,,,,,,,,,,,,,,,,,,,6100a7d308e142f9066458c2,610378b7924b4aee458743cc,2021-07-29_21h03.55.938,Simcolourproject_2stim_asymm_v5,2020.2.10,MacIntel,60,61025ae37ef11b136ea224fe,,,,,,,,,3184,80,-38,1,0,0,response3disk,,5,11,-13,1,0,0,rectangle,11,-13,1,0,0,11,-13,1,0,0,0,40,40,58,1,,,,,,,,
,,,,,,,,,,,,,FF,,,,,,,,1.049,,,,,,,,,,,,,,,,,,,,,,6100a7d308e142f9066458c2,610378b7924b4aee458743cc,2021-07-29_21h03.55.938,Simcolourproject_2stim_asymm_v5,2020.2.10,MacIntel,60,61025ae37ef11b136ea224fe,,,,,,,,,622,-84,42,1,0,0,response7disk,,1,4,6,1,0,0,rectangle,4,6,1,0,0,4,6,1,0,0,0,41,41,90,1,,,,,,,,
,,,,,,,,,,,,,FF,,,,,,,,1.004,,,,,,,,,,,,,,,,,,,,,,6100a7d308e142f9066458c2,610378b7924b4aee458743cc,2021-07-29_21h03.55.938,Simcolourproject_2stim_asymm_v5,2020.2.10,MacIntel,60,61025ae37ef11b136ea224fe,,,,,,,,,4127,55,94,1,0,0,response1disk,,7,7,1,1,0,0,rectangle,7,1,1,0,0,7,1,1,0,0,0,42,42,97,1,,,,,,,,
,,,,,,,,,,,,,FF,,,,,,,,1.554,,,,,,,,,,,,,,,,,,,,,,6100a7d308e142f9066458c2,610378b7924b4aee458743cc,2021-07-29_21h03.55.938,Simcolourproject_2stim_asymm_v5,2020.2.10,MacIntel,60,61025ae37ef11b136ea224fe,,,,,,,,,3504,-46,-81,1,0,0,response5disk,,3,-1,-2,1,0,0,rectangle,-1,-2,1,0,0,-1,-2,1,0,0,0,43,43,128,1,,,,,,,,
,,,,,,,,,,,,,FF,,,,,,,,1.209,,,,,,,,,,,,,,,,,,,,,,6100a7d308e142f9066458c2,610378b7924b4aee458743cc,2021-07-29_21h03.55.938,Simcolourproject_2stim_asymm_v5,2020.2.10,MacIntel,60,61025ae37ef11b136ea224fe,,,,,,,,,725,-72,44,1,0,0,response7disk,,1,-20,14,1,0,0,rectangle,-20,14,1,0,0,-20,14,1,0,0,0,44,44,104,1,,,,,,,,
,,,,,,,,,,,,,FF,,,,,,,,1.586,,,,,,,,,,,,,,,,,,,,,,6100a7d308e142f9066458c2,610378b7924b4aee458743cc,2021-07-29_21h03.55.938,Simcolourproject_2stim_asymm_v5,2020.2.10,MacIntel,60,61025ae37ef11b136ea224fe,,,,,,,,,627,42,83,1,0,0,response1disk,,7,10,6,1,0,0,rectangle,10,6,1,0,0,10,6,1,0,0,0,45,45,123,1,,,,,,,,
,,,,,,,,,,,,,FF,,,,,,,,0.83,,,,,,,,,,,,,,,,,,,,,,6100a7d308e142f9066458c2,610378b7924b4aee458743cc,2021-07-29_21h03.55.938,Simcolourproject_2stim_asymm_v5,2020.2.10,MacIntel,60,61025ae37ef11b136ea224fe,,,,,,,,,2778,-69,43,1,0,0,response7disk,,1,-20,10,1,0,0,rectangle,-20,10,1,0,0,-20,10,1,0,0,0,46,46,31,1,,,,,,,,
,,,,,,,,,,,,,FF,,,,,,,,1.423,,,,,,,,,,,,,,,,,,,,,,6100a7d308e142f9066458c2,610378b7924b4aee458743cc,2021-07-29_21h03.55.938,Simcolourproject_2stim_asymm_v5,2020.2.10,MacIntel,60,61025ae37ef11b136ea224fe,,,,,,,,,3841,-25,-107,1,0,0,response5disk,,3,7,-4,1,0,0,rectangle,7,-4,1,0,0,7,-4,1,0,0,0,47,47,63,1,,,,,,,,
,,,,,,,,,,,,,FF,,,,,,,,1.405,,,,,,,,,,,,,,,,,,,,,,6100a7d308e142f9066458c2,610378b7924b4aee458743cc,2021-07-29_21h03.55.938,Simcolourproject_2stim_asymm_v5,2020.2.10,MacIntel,60,61025ae37ef11b136ea224fe,,,,,,,,,873,-91,-38,1,0,0,response5disk,,2,-8,-2,1,0,0,rectangle,-8,-2,1,0,0,-8,-2,1,0,0,0,48,48,157,1,,,,,,,,
,,,,,,,,,,,,,FF,,,,,,,,0.997,,,,,,,,,,,,,,,,,,,,,,6100a7d308e142f9066458c2,610378b7924b4aee458743cc,2021-07-29_21h03.55.938,Simcolourproject_2stim_asymm_v5,2020.2.10,MacIntel,60,61025ae37ef11b136ea224fe,,,,,,,,,1407,82,-31,1,0,0,response3disk,,5,19,1,1,0,0,rectangle,19,1,1,0,0,19,1,1,0,0,0,49,49,143,1,,,,,,,,
,,,,,,,,,,,,,FF,,,,,,,,1.133,,,,,,,,,,,,,,,,,,,,,,6100a7d308e142f9066458c2,610378b7924b4aee458743cc,2021-07-29_21h03.55.938,Simcolourproject_2stim_asymm_v5,2020.2.10,MacIntel,60,61025ae37ef11b136ea224fe,,,,,,,,,2090,90,32,1,0,0,response1disk,,6,19,-8,1,0,0,rectangle,19,-8,1,0,0,19,-8,1,0,0,0,50,50,81,1,,,,,,,,
,,,,,,,,,,,,,FF,,,,,,,,1.154,,,,,,,,,,,,,,,,,,,,,,6100a7d308e142f9066458c2,610378b7924b4aee458743cc,2021-07-29_21h03.55.938,Simcolourproject_2stim_asymm_v5,2020.2.10,MacIntel,60,61025ae37ef11b136ea224fe,,,,,,,,,1333,88,53,1,0,0,response1disk,,6,13,0,1,0,0,rectangle,13,0,1,0,0,13,0,1,0,0,0,51,51,15,1,,,,,,,,
,,,,,,,,,,,,,FF,,,,,,,,1.187,,,,,,,,,,,,,,,,,,,,,,6100a7d308e142f9066458c2,610378b7924b4aee458743cc,2021-07-29_21h03.55.938,Simcolourproject_2stim_asymm_v5,2020.2.10,MacIntel,60,61025ae37ef11b136ea224fe,,,,,,,,,3975,-71,-109,1,0,0,response5disk,,3,-5,-2,1,0,0,rectangle,-5,-2,1,0,0,-5,-2,1,0,0,0,52,52,87,1,,,,,,,,
,,,,,,,,,,,,,FF,,,,,,,,0.856,,,,,,,,,,,,,,,,,,,,,,6100a7d308e142f9066458c2,610378b7924b4aee458743cc,2021-07-29_21h03.55.938,Simcolourproject_2stim_asymm_v5,2020.2.10,MacIntel,60,61025ae37ef11b136ea224fe,,,,,,,,,2664,-93,-42,1,0,0,response5disk,,2,-21,-5,1,0,0,rectangle,-21,-5,1,0,0,-21,-5,1,0,0,0,53,53,34,1,,,,,,,,
,,,,,,,,,,,,,FF,,,,,,,,0.892,,,,,,,,,,,,,,,,,,,,,,6100a7d308e142f9066458c2,610378b7924b4aee458743cc,2021-07-29_21h03.55.938,Simcolourproject_2stim_asymm_v5,2020.2.10,MacIntel,60,61025ae37ef11b136ea224fe,,,,,,,,,4335,-31,93,1,0,0,response7disk,,0,-11,4,1,0,0,rectangle,-11,4,1,0,0,-11,4,1,0,0,0,54,54,68,1,,,,,,,,
,,,,,,,,,,,,,FF,,,,,,,,0.951,,,,,,,,,,,,,,,,,,,,,,6100a7d308e142f9066458c2,610378b7924b4aee458743cc,2021-07-29_21h03.55.938,Simcolourproject_2stim_asymm_v5,2020.2.10,MacIntel,60,61025ae37ef11b136ea224fe,,,,,,,,,1819,-81,43,1,0,0,response7disk,,1,-12,13,1,0,0,rectangle,-12,13,1,0,0,-12,13,1,0,0,0,55,55,152,1,,,,,,,,
,,,,,,,,,,,,,FF,,,,,,,,0.933,,,,,,,,,,,,,,,,,,,,,,6100a7d308e142f9066458c2,610378b7924b4aee458743cc,2021-07-29_21h03.55.938,Simcolourproject_2stim_asymm_v5,2020.2.10,MacIntel,60,61025ae37ef11b136ea224fe,,,,,,,,,1218,-83,40,1,0,0,response7disk,,1,-11,8,1,0,0,rectangle,-11,8,1,0,0,-11,8,1,0,0,0,56,56,21,1,,,,,,,,
,,,,,,,,,,,,,FF,,,,,,,,1.4,,,,,,,,,,,,,,,,,,,,,,6100a7d308e142f9066458c2,610378b7924b4aee458743cc,2021-07-29_21h03.55.938,Simcolourproject_2stim_asymm_v5,2020.2.10,MacIntel,60,61025ae37ef11b136ea224fe,,,,,,,,,1528,-93,32,1,0,0,response7disk,,1,5,1,1,0,0,rectangle,5,1,1,0,0,5,1,1,0,0,0,57,57,14,1,,,,,,,,
,,,,,,,,,,,,,FF,,,,,,,,0.933,,,,,,,,,,,,,,,,,,,,,,6100a7d308e142f9066458c2,610378b7924b4aee458743cc,2021-07-29_21h03.55.938,Simcolourproject_2stim_asymm_v5,2020.2.10,MacIntel,60,61025ae37ef11b136ea224fe,,,,,,,,,1669,56,82,1,0,0,response1disk,,7,11,7,1,0,0,rectangle,11,7,1,0,0,11,7,1,0,0,0,58,58,147,1,,,,,,,,
,,,,,,,,,,,,,FF,,,,,,,,1.081,,,,,,,,,,,,,,,,,,,,,,6100a7d308e142f9066458c2,610378b7924b4aee458743cc,2021-07-29_21h03.55.938,Simcolourproject_2stim_asymm_v5,2020.2.10,MacIntel,60,61025ae37ef11b136ea224fe,,,,,,,,,3629,50,80,1,0,0,response1disk,,7,11,11,1,0,0,rectangle,11,11,1,0,0,11,11,1,0,0,0,59,59,105,1,,,,,,,,
,,,,,,,,,,,,,FF,,,,,,,,1.352,,,,,,,,,,,,,,,,,,,,,,6100a7d308e142f9066458c2,610378b7924b4aee458743cc,2021-07-29_21h03.55.938,Simcolourproject_2stim_asymm_v5,2020.2.10,MacIntel,60,61025ae37ef11b136ea224fe,,,,,,,,,4177,38,91,1,0,0,response1disk,,7,-5,-2,1,0,0,rectangle,-5,-2,1,0,0,-5,-2,1,0,0,0,60,60,57,1,,,,,,,,
,,,,,,,,,,,,,FF,,,,,,,,1.099,,,,,,,,,,,,,,,,,,,,,,6100a7d308e142f9066458c2,610378b7924b4aee458743cc,2021-07-29_21h03.55.938,Simcolourproject_2stim_asymm_v5,2020.2.10,MacIntel,60,61025ae37ef11b136ea224fe,,,,,,,,,189,-46,-85,1,0,0,response5disk,,3,-8,6,1,0,0,rectangle,-8,6,1,0,0,-8,6,1,0,0,0,61,61,116,1,,,,,,,,
,,,,,,,,,,,,,FF,,,,,,,,1.154,,,,,,,,,,,,,,,,,,,,,,6100a7d308e142f9066458c2,610378b7924b4aee458743cc,2021-07-29_21h03.55.938,Simcolourproject_2stim_asymm_v5,2020.2.10,MacIntel,60,61025ae37ef11b136ea224fe,,,,,,,,,1461,-82,26,1,0,0,response7disk,,1,-19,5,1,0,0,rectangle,-19,5,1,0,0,-19,5,1,0,0,0,62,62,37,1,,,,,,,,
,,,,,,,,,,,,,FF,,,,,,,,1.319,,,,,,,,,,,,,,,,,,,,,,6100a7d308e142f9066458c2,610378b7924b4aee458743cc,2021-07-29_21h03.55.938,Simcolourproject_2stim_asymm_v5,2020.2.10,MacIntel,60,61025ae37ef11b136ea224fe,,,,,,,,,2399,60,-30,1,0,0,response3disk,,5,9,-7,1,0,0,rectangle,30,-97,1,0,0,-7,4,1,0,0,0,63,63,125,1,,response3disk_3,TRUE,4,4,"[171,116,158,249,218,106,195,230,133,202,175,16,2,145,106,265,64,212,30,110]",1.691,rectangle
,,,,,,,,,,,,,FF,,,,,,,,1.003,,,,,,,,,,,,,,,,,,,,,,6100a7d308e142f9066458c2,610378b7924b4aee458743cc,2021-07-29_21h03.55.938,Simcolourproject_2stim_asymm_v5,2020.2.10,MacIntel,60,61025ae37ef11b136ea224fe,,,,,,,,,990,-104,-55,1,0,0,response5disk,,2,-24,-7,1,0,0,rectangle,-24,-7,1,0,0,-24,-7,1,0,0,0,64,64,127,1,,,,,,,,
,,,,,,,,,,,,,FF,,,,,,,,0.818,,,,,,,,,,,,,,,,,,,,,,6100a7d308e142f9066458c2,610378b7924b4aee458743cc,2021-07-29_21h03.55.938,Simcolourproject_2stim_asymm_v5,2020.2.10,MacIntel,60,61025ae37ef11b136ea224fe,,,,,,,,,1294,-77,48,1,0,0,response7disk,,1,-3,7,1,0,0,rectangle,-3,7,1,0,0,-3,7,1,0,0,0,65,65,33,1,,,,,,,,
,,,,,,,,,,,,,FF,,,,,,,,0.859,,,,,,,,,,,,,,,,,,,,,,6100a7d308e142f9066458c2,610378b7924b4aee458743cc,2021-07-29_21h03.55.938,Simcolourproject_2stim_asymm_v5,2020.2.10,MacIntel,60,61025ae37ef11b136ea224fe,,,,,,,,,2975,55,101,1,0,0,response1disk,,7,4,5,1,0,0,rectangle,4,5,1,0,0,4,5,1,0,0,0,66,66,45,1,,,,,,,,
,,,,,,,,,,,,,FF,,,,,,,,1.104,,,,,,,,,,,,,,,,,,,,,,6100a7d308e142f9066458c2,610378b7924b4aee458743cc,2021-07-29_21h03.55.938,Simcolourproject_2stim_asymm_v5,2020.2.10,MacIntel,60,61025ae37ef11b136ea224fe,,,,,,,,,2823,-101,-46,1,0,0,response5disk,,2,-20,-2,1,0,0,rectangle,-20,-2,1,0,0,-20,-2,1,0,0,0,67,67,100,1,,,,,,,,
,,,,,,,,,,,,,FF,,,,,,,,2.735,,,,,,,,,,,,,,,,,,,,,,6100a7d308e142f9066458c2,610378b7924b4aee458743cc,2021-07-29_21h03.55.938,Simcolourproject_2stim_asymm_v5,2020.2.10,MacIntel,60,61025ae37ef11b136ea224fe,,,,,,,,,2414,-53,-80,1,0,0,response5disk,,3,1,-10,1,0,0,rectangle,1,-10,1,0,0,1,-10,1,0,0,0,68,68,139,1,,,,,,,,
,,,,,,,,,,,,,FF,,,,,,,,1.147,,,,,,,,,,,,,,,,,,,,,,6100a7d308e142f9066458c2,610378b7924b4aee458743cc,2021-07-29_21h03.55.938,Simcolourproject_2stim_asymm_v5,2020.2.10,MacIntel,60,61025ae37ef11b136ea224fe,,,,,,,,,1437,-53,-91,1,0,0,response5disk,,3,-7,3,1,0,0,rectangle,-7,3,1,0,0,-7,3,1,0,0,0,69,69,52,1,,,,,,,,
,,,,,,,,,,,,,FF,,,,,,,,1.372,,,,,,,,,,,,,,,,,,,,,,6100a7d308e142f9066458c2,610378b7924b4aee458743cc,2021-07-29_21h03.55.938,Simcolourproject_2stim_asymm_v5,2020.2.10,MacIntel,60,61025ae37ef11b136ea224fe,,,,,,,,,3282,-81,38,1,0,0,response7disk,,1,-13,6,1,0,0,rectangle,-13,6,1,0,0,-13,6,1,0,0,0,70,70,136,1,,,,,,,,
,,,,,,,,,,,,,FF,,,,,,,,1.027,,,,,,,,,,,,,,,,,,,,,,6100a7d308e142f9066458c2,610378b7924b4aee458743cc,2021-07-29_21h03.55.938,Simcolourproject_2stim_asymm_v5,2020.2.10,MacIntel,60,61025ae37ef11b136ea224fe,,,,,,,,,1970,-100,-56,1,0,0,response5disk,,2,-18,-15,1,0,0,rectangle,-18,-15,1,0,0,-18,-15,1,0,0,0,71,71,150,1,,,,,,,,
,,,,,,,,,,,,,FF,,,,,,,,1.584,,,,,,,,,,,,,,,,,,,,,,6100a7d308e142f9066458c2,610378b7924b4aee458743cc,2021-07-29_21h03.55.938,Simcolourproject_2stim_asymm_v5,2020.2.10,MacIntel,60,61025ae37ef11b136ea224fe,,,,,,,,,2372,86,-17,1,0,0,response3disk,,5,1,-7,1,0,0,rectangle,1,-7,1,0,0,1,-7,1,0,0,0,72,72,0,1,,,,,,,,
,,,,,,,,,,,,,FF,,,,,,,,0.972,,,,,,,,,,,,,,,,,,,,,,6100a7d308e142f9066458c2,610378b7924b4aee458743cc,2021-07-29_21h03.55.938,Simcolourproject_2stim_asymm_v5,2020.2.10,MacIntel,60,61025ae37ef11b136ea224fe,,,,,,,,,4344,-51,76,1,0,0,response7disk,,0,-10,13,1,0,0,rectangle,-10,13,1,0,0,-10,13,1,0,0,0,73,73,75,1,,,,,,,,
,,,,,,,,,,,,,FF,,,,,,,,1.675,,,,,,,,,,,,,,,,,,,,,,6100a7d308e142f9066458c2,610378b7924b4aee458743cc,2021-07-29_21h03.55.938,Simcolourproject_2stim_asymm_v5,2020.2.10,MacIntel,60,61025ae37ef11b136ea224fe,,,,,,,,,1422,43,-85,1,0,0,response3disk,,4,-3,13,1,0,0,rectangle,-3,13,1,0,0,-3,13,1,0,0,0,74,74,3,1,,,,,,,,
,,,,,,,,,,,,,FF,,,,,,,,0.894,,,,,,,,,,,,,,,,,,,,,,6100a7d308e142f9066458c2,610378b7924b4aee458743cc,2021-07-29_21h03.55.938,Simcolourproject_2stim_asymm_v5,2020.2.10,MacIntel,60,61025ae37ef11b136ea224fe,,,,,,,,,2353,44,73,1,0,0,response1disk,,7,-1,-1,1,0,0,rectangle,-1,-1,1,0,0,-1,-1,1,0,0,0,75,75,106,1,,,,,,,,
,,,,,,,,,,,,,FF,,,,,,,,1.611,,,,,,,,,,,,,,,,,,,,,,6100a7d308e142f9066458c2,610378b7924b4aee458743cc,2021-07-29_21h03.55.938,Simcolourproject_2stim_asymm_v5,2020.2.10,MacIntel,60,61025ae37ef11b136ea224fe,,,,,,,,,1300,-43,-87,1,0,0,response5disk,,3,-1,5,1,0,0,rectangle,-1,5,1,0,0,-1,5,1,0,0,0,76,76,41,1,,,,,,,,
,,,,,,,,,,,,,FF,,,,,,,,1.226,,,,,,,,,,,,,,,,,,,,,,6100a7d308e142f9066458c2,610378b7924b4aee458743cc,2021-07-29_21h03.55.938,Simcolourproject_2stim_asymm_v5,2020.2.10,MacIntel,60,61025ae37ef11b136ea224fe,,,,,,,,,662,35,82,1,0,0,response1disk,,7,4,-13,1,0,0,rectangle,4,-13,1,0,0,4,-13,1,0,0,0,77,77,38,1,,,,,,,,
,,,,,,,,,,,,,FF,,,,,,,,1.468,,,,,,,,,,,,,,,,,,,,,,6100a7d308e142f9066458c2,610378b7924b4aee458743cc,2021-07-29_21h03.55.938,Simcolourproject_2stim_asymm_v5,2020.2.10,MacIntel,60,61025ae37ef11b136ea224fe,,,,,,,,,4137,89,54,1,0,0,response1disk,,6,0,-5,1,0,0,rectangle,0,-5,1,0,0,0,-5,1,0,0,0,78,78,103,1,,,,,,,,
,,,,,,,,,,,,,FF,,,,,,,,1.429,,,,,,,,,,,,,,,,,,,,,,6100a7d308e142f9066458c2,610378b7924b4aee458743cc,2021-07-29_21h03.55.938,Simcolourproject_2stim_asymm_v5,2020.2.10,MacIntel,60,61025ae37ef11b136ea224fe,,,,,,,,,2715,97,-35,1,0,0,response3disk,,5,24,2,1,0,0,rectangle,24,2,1,0,0,24,2,1,0,0,0,79,79,83,1,,,,,,,,
,,,,,,,,,,,,,FF,,,,,,,,1.436,,,,,,,,,,,,,,,,,,,,,,6100a7d308e142f9066458c2,610378b7924b4aee458743cc,2021-07-29_21h03.55.938,Simcolourproject_2stim_asymm_v5,2020.2.10,MacIntel,60,61025ae37ef11b136ea224fe,,,,,,,,,4261,46,86,1,0,0,response1disk,,7,10,16,1,0,0,rectangle,10,16,1,0,0,10,16,1,0,0,0,80,80,64,1,,,,,,,,
,,,,,,,,,,,,,FF,,,,,,,,0.824,,,,,,,,,,,,,,,,,,,,,,6100a7d308e142f9066458c2,610378b7924b4aee458743cc,2021-07-29_21h03.55.938,Simcolourproject_2stim_asymm_v5,2020.2.10,MacIntel,60,61025ae37ef11b136ea224fe,,,,,,,,,2804,33,74,1,0,0,response1disk,,7,4,9,1,0,0,rectangle,4,9,1,0,0,4,9,1,0,0,0,81,81,117,1,,,,,,,,
,,,,,,,,,,,,,FF,,,,,,,,1.062,,,,,,,,,,,,,,,,,,,,,,6100a7d308e142f9066458c2,610378b7924b4aee458743cc,2021-07-29_21h03.55.938,Simcolourproject_2stim_asymm_v5,2020.2.10,MacIntel,60,61025ae37ef11b136ea224fe,,,,,,,,,2558,54,100,1,0,0,response1disk,,7,1,5,1,0,0,rectangle,1,5,1,0,0,1,5,1,0,0,0,82,82,86,1,,,,,,,,
,,,,,,,,,,,,,FF,,,,,,,,1.148,,,,,,,,,,,,,,,,,,,,,,6100a7d308e142f9066458c2,610378b7924b4aee458743cc,2021-07-29_21h03.55.938,Simcolourproject_2stim_asymm_v5,2020.2.10,MacIntel,60,61025ae37ef11b136ea224fe,,,,,,,,,4248,34,-75,1,0,0,response3disk,,4,2,-2,1,0,0,rectangle,2,-2,1,0,0,2,-2,1,0,0,0,83,83,120,1,,,,,,,,
,,,,,,,,,,,,,FF,,,,,,,,1.375,,,,,,,,,,,,,,,,,,,,,,6100a7d308e142f9066458c2,610378b7924b4aee458743cc,2021-07-29_21h03.55.938,Simcolourproject_2stim_asymm_v5,2020.2.10,MacIntel,60,61025ae37ef11b136ea224fe,,,,,,,,,3348,39,-84,1,0,0,response3disk,,4,5,-18,1,0,0,rectangle,5,-18,1,0,0,5,-18,1,0,0,0,84,84,79,1,,,,,,,,
,,,,,,,,,,,,,FF,,,,,,,,1.011,,,,,,,,,,,,,,,,,,,,,,6100a7d308e142f9066458c2,610378b7924b4aee458743cc,2021-07-29_21h03.55.938,Simcolourproject_2stim_asymm_v5,2020.2.10,MacIntel,60,61025ae37ef11b136ea224fe,,,,,,,,,1224,35,-73,1,0,0,response3disk,,4,9,-5,1,0,0,rectangle,9,-5,1,0,0,9,-5,1,0,0,0,85,85,5,1,,,,,,,,
,,,,,,,,,,,,,FF,,,,,,,,1.908,,,,,,,,,,,,,,,,,,,,,,6100a7d308e142f9066458c2,610378b7924b4aee458743cc,2021-07-29_21h03.55.938,Simcolourproject_2stim_asymm_v5,2020.2.10,MacIntel,60,61025ae37ef11b136ea224fe,,,,,,,,,2152,-44,-107,1,0,0,response5disk,,3,-1,16,1,0,0,rectangle,-1,16,1,0,0,-1,16,1,0,0,0,86,86,91,1,,,,,,,,
,,,,,,,,,,,,,FF,,,,,,,,0.759,,,,,,,,,,,,,,,,,,,,,,6100a7d308e142f9066458c2,610378b7924b4aee458743cc,2021-07-29_21h03.55.938,Simcolourproject_2stim_asymm_v5,2020.2.10,MacIntel,60,61025ae37ef11b136ea224fe,,,,,,,,,2471,30,76,1,0,0,response1disk,,7,-3,-17,1,0,0,rectangle,-3,-17,1,0,0,-3,-17,1,0,0,0,87,87,119,1,,,,,,,,
,,,,,,,,,,,,,FF,,,,,,,,1.573,,,,,,,,,,,,,,,,,,,,,,6100a7d308e142f9066458c2,610378b7924b4aee458743cc,2021-07-29_21h03.55.938,Simcolourproject_2stim_asymm_v5,2020.2.10,MacIntel,60,61025ae37ef11b136ea224fe,,,,,,,,,33,52,102,1,0,0,response1disk,,7,-17,-13,1,0,0,rectangle,-17,-13,1,0,0,-17,-13,1,0,0,0,88,88,18,1,,,,,,,,
,,,,,,,,,,,,,FF,,,,,,,,0.915,,,,,,,,,,,,,,,,,,,,,,6100a7d308e142f9066458c2,610378b7924b4aee458743cc,2021-07-29_21h03.55.938,Simcolourproject_2stim_asymm_v5,2020.2.10,MacIntel,60,61025ae37ef11b136ea224fe,,,,,,,,,3029,59,98,1,0,0,response1disk,,7,6,-8,1,0,0,rectangle,6,-8,1,0,0,6,-8,1,0,0,0,89,89,153,1,,,,,,,,
,,,,,,,,,,,,,FF,,,,,,,,1.378,,,,,,,,,,,,,,,,,,,,,,6100a7d308e142f9066458c2,610378b7924b4aee458743cc,2021-07-29_21h03.55.938,Simcolourproject_2stim_asymm_v5,2020.2.10,MacIntel,60,61025ae37ef11b136ea224fe,,,,,,,,,4039,-86,-46,1,0,0,response5disk,,2,-12,-3,1,0,0,rectangle,-12,-3,1,0,0,-12,-3,1,0,0,0,90,90,93,1,,,,,,,,
,,,,,,,,,,,,,FF,,,,,,,,1.417,,,,,,,,,,,,,,,,,,,,,,6100a7d308e142f9066458c2,610378b7924b4aee458743cc,2021-07-29_21h03.55.938,Simcolourproject_2stim_asymm_v5,2020.2.10,MacIntel,60,61025ae37ef11b136ea224fe,,,,,,,,,4227,-91,21,1,0,0,response7disk,,1,-17,3,1,0,0,rectangle,-17,3,1,0,0,-17,3,1,0,0,0,91,91,82,1,,,,,,,,
,,,,,,,,,,,,,FF,,,,,,,,1.301,,,,,,,,,,,,,,,,,,,,,,6100a7d308e142f9066458c2,610378b7924b4aee458743cc,2021-07-29_21h03.55.938,Simcolourproject_2stim_asymm_v5,2020.2.10,MacIntel,60,61025ae37ef11b136ea224fe,,,,,,,,,2688,56,-80,1,0,0,response3disk,,4,9,7,1,0,0,rectangle,9,7,1,0,0,9,7,1,0,0,0,92,92,60,1,,,,,,,,
,,,,,,,,,,,,,FF,,,,,,,,0.961,,,,,,,,,,,,,,,,,,,,,,6100a7d308e142f9066458c2,610378b7924b4aee458743cc,2021-07-29_21h03.55.938,Simcolourproject_2stim_asymm_v5,2020.2.10,MacIntel,60,61025ae37ef11b136ea224fe,,,,,,,,,1188,-42,-88,1,0,0,response5disk,,3,-6,-4,1,0,0,rectangle,-6,-4,1,0,0,-6,-4,1,0,0,0,93,93,39,1,,,,,,,,
,,,,,,,,,,,,,FF,,,,,,,,0.812,,,,,,,,,,,,,,,,,,,,,,6100a7d308e142f9066458c2,610378b7924b4aee458743cc,2021-07-29_21h03.55.938,Simcolourproject_2stim_asymm_v5,2020.2.10,MacIntel,60,61025ae37ef11b136ea224fe,,,,,,,,,1492,29,76,1,0,0,response1disk,,7,14,6,1,0,0,rectangle,14,6,1,0,0,14,6,1,0,0,0,94,94,56,1,,,,,,,,
,,,,,,,,,,,,,FF,,,,,,,,1.47,,,,,,,,,,,,,,,,,,,,,,6100a7d308e142f9066458c2,610378b7924b4aee458743cc,2021-07-29_21h03.55.938,Simcolourproject_2stim_asymm_v5,2020.2.10,MacIntel,60,61025ae37ef11b136ea224fe,,,,,,,,,4206,-82,32,1,0,0,response7disk,,1,-1,-9,1,0,0,rectangle,-1,-9,1,0,0,-1,-9,1,0,0,0,95,95,140,1,,,,,,,,
,,,,,,,,,,,,,FF,,,,,,,,2.095,,,,,,,,,,,,,,,,,,,,,,6100a7d308e142f9066458c2,610378b7924b4aee458743cc,2021-07-29_21h03.55.938,Simcolourproject_2stim_asymm_v5,2020.2.10,MacIntel,60,61025ae37ef11b136ea224fe,,,,,,,,,4311,99,47,1,0,0,response1disk,,6,10,-1,1,0,0,rectangle,10,-1,1,0,0,10,-1,1,0,0,0,96,96,158,1,,,,,,,,
,,,,,,,,,,,,,FF,,,,,,,,1.308,,,,,,,,,,,,,,,,,,,,,,6100a7d308e142f9066458c2,610378b7924b4aee458743cc,2021-07-29_21h03.55.938,Simcolourproject_2stim_asymm_v5,2020.2.10,MacIntel,60,61025ae37ef11b136ea224fe,,,,,,,,,1147,91,49,1,0,0,response1disk,,6,12,4,1,0,0,rectangle,12,4,1,0,0,12,4,1,0,0,0,97,97,149,1,,,,,,,,
,,,,,,,,,,,,,FF,,,,,,,,1.296,,,,,,,,,,,,,,,,,,,,,,6100a7d308e142f9066458c2,610378b7924b4aee458743cc,2021-07-29_21h03.55.938,Simcolourproject_2stim_asymm_v5,2020.2.10,MacIntel,60,61025ae37ef11b136ea224fe,,,,,,,,,2377,29,68,1,0,0,response1disk,,7,-19,-2,1,0,0,rectangle,-19,-2,1,0,0,-19,-2,1,0,0,0,98,98,25,1,,,,,,,,
,,,,,,,,,,,,,FF,,,,,,,,0.94,,,,,,,,,,,,,,,,,,,,,,6100a7d308e142f9066458c2,610378b7924b4aee458743cc,2021-07-29_21h03.55.938,Simcolourproject_2stim_asymm_v5,2020.2.10,MacIntel,60,61025ae37ef11b136ea224fe,,,,,,,,,3759,62,88,1,0,0,response1disk,,7,6,2,1,0,0,rectangle,6,2,1,0,0,6,2,1,0,0,0,99,99,94,1,,,,,,,,
,,,,,,,,,,,,,FF,,,,,,,,1.016,,,,,,,,,,,,,,,,,,,,,,6100a7d308e142f9066458c2,610378b7924b4aee458743cc,2021-07-29_21h03.55.938,Simcolourproject_2stim_asymm_v5,2020.2.10,MacIntel,60,61025ae37ef11b136ea224fe,,,,,,,,,688,48,-90,1,0,0,response3disk,,4,6,-2,1,0,0,rectangle,6,-2,1,0,0,6,-2,1,0,0,0,100,100,89,1,,,,,,,,
,,,,,,,,,,,,,FF,,,,,,,,0.8,,,,,,,,,,,,,,,,,,,,,,6100a7d308e142f9066458c2,610378b7924b4aee458743cc,2021-07-29_21h03.55.938,Simcolourproject_2stim_asymm_v5,2020.2.10,MacIntel,60,61025ae37ef11b136ea224fe,,,,,,,,,2225,36,77,1,0,0,response1disk,,7,5,2,1,0,0,rectangle,5,2,1,0,0,5,2,1,0,0,0,101,101,159,1,,,,,,,,
,,,,,,,,,,,,,FF,,,,,,,,1.102,,,,,,,,,,,,,,,,,,,,,,6100a7d308e142f9066458c2,610378b7924b4aee458743cc,2021-07-29_21h03.55.938,Simcolourproject_2stim_asymm_v5,2020.2.10,MacIntel,60,61025ae37ef11b136ea224fe,,,,,,,,,2618,34,-67,1,0,0,response3disk,,4,11,-8,1,0,0,rectangle,11,-8,1,0,0,11,-8,1,0,0,0,102,102,59,1,,,,,,,,
,,,,,,,,,,,,,FF,,,,,,,,2.831,,,,,,,,,,,,,,,,,,,,,,6100a7d308e142f9066458c2,610378b7924b4aee458743cc,2021-07-29_21h03.55.938,Simcolourproject_2stim_asymm_v5,2020.2.10,MacIntel,60,61025ae37ef11b136ea224fe,,,,,,,,,2796,28,105,1,0,0,response1disk,,7,-24,-1,1,0,0,rectangle,-24,-1,1,0,0,-24,-1,1,0,0,0,103,103,77,1,,,,,,,,
,,,,,,,,,,,,,FF,,,,,,,,1.776,,,,,,,,,,,,,,,,,,,,,,6100a7d308e142f9066458c2,610378b7924b4aee458743cc,2021-07-29_21h03.55.938,Simcolourproject_2stim_asymm_v5,2020.2.10,MacIntel,60,61025ae37ef11b136ea224fe,,,,,,,,,215,-51,-96,1,0,0,response5disk,,3,-19,11,1,0,0,rectangle,-19,11,1,0,0,-19,11,1,0,0,0,104,104,130,1,,,,,,,,
,,,,,,,,,,,,,FF,,,,,,,,2.18,,,,,,,,,,,,,,,,,,,,,,6100a7d308e142f9066458c2,610378b7924b4aee458743cc,2021-07-29_21h03.55.938,Simcolourproject_2stim_asymm_v5,2020.2.10,MacIntel,60,61025ae37ef11b136ea224fe,,,,,,,,,1859,90,68,1,0,0,response1disk,,6,2,1,1,0,0,rectangle,36,82,1,0,0,-1,-2,1,0,0,0,105,105,61,1,,response1disk_3,TRUE,7,7,"[171,116,158,249,218,106,195,230,133,202,175,16,2,145,106,265,64,212,30,110]",2.656,rectangle
,,,,,,,,,,,,,FF,,,,,,,,3.961,,,,,,,,,,,,,,,,,,,,,,6100a7d308e142f9066458c2,610378b7924b4aee458743cc,2021-07-29_21h03.55.938,Simcolourproject_2stim_asymm_v5,2020.2.10,MacIntel,60,61025ae37ef11b136ea224fe,,,,,,,,,1003,77,108,1,0,0,response1disk,,7,-24,-8,1,0,0,rectangle,-24,-8,1,0,0,-24,-8,1,0,0,0,106,106,13,1,,,,,,,,
,,,,,,,,,,,,,FF,,,,,,,,1.059,,,,,,,,,,,,,,,,,,,,,,6100a7d308e142f9066458c2,610378b7924b4aee458743cc,2021-07-29_21h03.55.938,Simcolourproject_2stim_asymm_v5,2020.2.10,MacIntel,60,61025ae37ef11b136ea224fe,,,,,,,,,1977,77,31,1,0,0,response1disk,,6,11,-12,1,0,0,rectangle,11,-12,1,0,0,11,-12,1,0,0,0,107,107,4,1,,,,,,,,
,,,,,,,,,,,,,FF,,,,,,,,1.216,,,,,,,,,,,,,,,,,,,,,,6100a7d308e142f9066458c2,610378b7924b4aee458743cc,2021-07-29_21h03.55.938,Simcolourproject_2stim_asymm_v5,2020.2.10,MacIntel,60,61025ae37ef11b136ea224fe,,,,,,,,,3391,-88,31,1,0,0,response7disk,,1,30,5,1,0,0,rectangle,30,5,1,0,0,30,5,1,0,0,0,108,108,22,1,,,,,,,,
,,,,,,,,,,,,,FF,,,,,,,,1.138,,,,,,,,,,,,,,,,,,,,,,6100a7d308e142f9066458c2,610378b7924b4aee458743cc,2021-07-29_21h03.55.938,Simcolourproject_2stim_asymm_v5,2020.2.10,MacIntel,60,61025ae37ef11b136ea224fe,,,,,,,,,564,-68,-37,1,0,0,response5disk,,2,11,-2,1,0,0,rectangle,47,72,1,0,0,4,4,1,0,0,0,109,109,109,1,,response1disk_3,TRUE,7,6,"[171,116,158,249,218,106,195,230,133,202,175,16,2,145,106,265,64,212,30,110]",1.947,rectangle
,,,,,,,,,,,,,FF,,,,,,,,0.878,,,,,,,,,,,,,,,,,,,,,,6100a7d308e142f9066458c2,610378b7924b4aee458743cc,2021-07-29_21h03.55.938,Simcolourproject_2stim_asymm_v5,2020.2.10,MacIntel,60,61025ae37ef11b136ea224fe,,,,,,,,,1899,-27,-74,1,0,0,response5disk,,3,1,-6,1,0,0,rectangle,1,-6,1,0,0,1,-6,1,0,0,0,110,110,26,1,,,,,,,,
,,,,,,,,,,,,,FF,,,,,,,,1.671,,,,,,,,,,,,,,,,,,,,,,6100a7d308e142f9066458c2,610378b7924b4aee458743cc,2021-07-29_21h03.55.938,Simcolourproject_2stim_asymm_v5,2020.2.10,MacIntel,60,61025ae37ef11b136ea224fe,,,,,,,,,3668,-30,99,1,0,0,response7disk,,0,-3,15,1,0,0,rectangle,-3,15,1,0,0,-3,15,1,0,0,0,111,111,145,1,,,,,,,,
,,,,,,,,,,,,,FF,,,,,,,,0.845,,,,,,,,,,,,,,,,,,,,,,6100a7d308e142f9066458c2,610378b7924b4aee458743cc,2021-07-29_21h03.55.938,Simcolourproject_2stim_asymm_v5,2020.2.10,MacIntel,60,61025ae37ef11b136ea224fe,,,,,,,,,598,52,90,1,0,0,response1disk,,7,-4,1,1,0,0,rectangle,-4,1,1,0,0,-4,1,1,0,0,0,112,112,96,1,,,,,,,,
,,,,,,,,,,,,,FF,,,,,,,,1.242,,,,,,,,,,,,,,,,,,,,,,6100a7d308e142f9066458c2,610378b7924b4aee458743cc,2021-07-29_21h03.55.938,Simcolourproject_2stim_asymm_v5,2020.2.10,MacIntel,60,61025ae37ef11b136ea224fe,,,,,,,,,2784,-95,-49,1,0,0,response5disk,,2,15,3,1,0,0,rectangle,15,3,1,0,0,15,3,1,0,0,0,113,113,74,1,,,,,,,,
,,,,,,,,,,,,,FF,,,,,,,,1.087,,,,,,,,,,,,,,,,,,,,,,6100a7d308e142f9066458c2,610378b7924b4aee458743cc,2021-07-29_21h03.55.938,Simcolourproject_2stim_asymm_v5,2020.2.10,MacIntel,60,61025ae37ef11b136ea224fe,,,,,,,,,2869,79,39,1,0,0,response1disk,,6,20,4,1,0,0,rectangle,20,4,1,0,0,20,4,1,0,0,0,114,114,95,1,,,,,,,,
,,,,,,,,,,,,,FF,,,,,,,,1.446,,,,,,,,,,,,,,,,,,,,,,6100a7d308e142f9066458c2,610378b7924b4aee458743cc,2021-07-29_21h03.55.938,Simcolourproject_2stim_asymm_v5,2020.2.10,MacIntel,60,61025ae37ef11b136ea224fe,,,,,,,,,4301,77,49,1,0,0,response1disk,,6,5,-3,1,0,0,rectangle,-93,-50,1,0,0,-5,1,1,0,0,0,115,115,11,1,,response5disk_3,TRUE,2,2,"[171,116,158,249,218,106,195,230,133,202,175,16,2,145,106,265,64,212,30,110]",2.311,rectangle
,,,,,,,,,,,,,FF,,,,,,,,1.067,,,,,,,,,,,,,,,,,,,,,,6100a7d308e142f9066458c2,610378b7924b4aee458743cc,2021-07-29_21h03.55.938,Simcolourproject_2stim_asymm_v5,2020.2.10,MacIntel,60,61025ae37ef11b136ea224fe,,,,,,,,,2955,-59,-86,1,0,0,response5disk,,3,6,-12,1,0,0,rectangle,6,-12,1,0,0,6,-12,1,0,0,0,116,116,7,1,,,,,,,,
,,,,,,,,,,,,,FF,,,,,,,,0.944,,,,,,,,,,,,,,,,,,,,,,6100a7d308e142f9066458c2,610378b7924b4aee458743cc,2021-07-29_21h03.55.938,Simcolourproject_2stim_asymm_v5,2020.2.10,MacIntel,60,61025ae37ef11b136ea224fe,,,,,,,,,631,-100,-43,1,0,0,response5disk,,2,-2,-5,1,0,0,rectangle,-2,-5,1,0,0,-2,-5,1,0,0,0,117,117,70,1,,,,,,,,
,,,,,,,,,,,,,FF,,,,,,,,1.004,,,,,,,,,,,,,,,,,,,,,,6100a7d308e142f9066458c2,610378b7924b4aee458743cc,2021-07-29_21h03.55.938,Simcolourproject_2stim_asymm_v5,2020.2.10,MacIntel,60,61025ae37ef11b136ea224fe,,,,,,,,,379,77,-42,1,0,0,response3disk,,5,3,4,1,0,0,rectangle,3,4,1,0,0,3,4,1,0,0,0,118,118,122,1,,,,,,,,
,,,,,,,,,,,,,FF,,,,,,,,1.436,,,,,,,,,,,,,,,,,,,,,,6100a7d308e142f9066458c2,610378b7924b4aee458743cc,2021-07-29_21h03.55.938,Simcolourproject_2stim_asymm_v5,2020.2.10,MacIntel,60,61025ae37ef11b136ea224fe,,,,,,,,,1184,36,97,1,0,0,response1disk,,7,12,10,1,0,0,rectangle,12,10,1,0,0,12,10,1,0,0,0,119,119,126,1,,,,,,,,
,,,,,,,,,,,,,FF,,,,,,,,1.424,,,,,,,,,,,,,,,,,,,,,,6100a7d308e142f9066458c2,610378b7924b4aee458743cc,2021-07-29_21h03.55.938,Simcolourproject_2stim_asymm_v5,2020.2.10,MacIntel,60,61025ae37ef11b136ea224fe,,,,,,,,,529,-35,-86,1,0,0,response5disk,,3,9,-1,1,0,0,rectangle,9,-1,1,0,0,9,-1,1,0,0,0,120,120,23,1,,,,,,,,
,,,,,,,,,,,,,FF,,,,,,,,0.867,,,,,,,,,,,,,,,,,,,,,,6100a7d308e142f9066458c2,610378b7924b4aee458743cc,2021-07-29_21h03.55.938,Simcolourproject_2stim_asymm_v5,2020.2.10,MacIntel,60,61025ae37ef11b136ea224fe,,,,,,,,,1825,-58,-84,1,0,0,response5disk,,3,-5,-1,1,0,0,rectangle,-5,-1,1,0,0,-5,-1,1,0,0,0,121,121,88,1,,,,,,,,
,,,,,,,,,,,,,FF,,,,,,,,1.299,,,,,,,,,,,,,,,,,,,,,,6100a7d308e142f9066458c2,610378b7924b4aee458743cc,2021-07-29_21h03.55.938,Simcolourproject_2stim_asymm_v5,2020.2.10,MacIntel,60,61025ae37ef11b136ea224fe,,,,,,,,,1701,47,72,1,0,0,response1disk,,7,8,12,1,0,0,rectangle,8,12,1,0,0,8,12,1,0,0,0,122,122,137,1,,,,,,,,
,,,,,,,,,,,,,FF,,,,,,,,0.946,,,,,,,,,,,,,,,,,,,,,,6100a7d308e142f9066458c2,610378b7924b4aee458743cc,2021-07-29_21h03.55.938,Simcolourproject_2stim_asymm_v5,2020.2.10,MacIntel,60,61025ae37ef11b136ea224fe,,,,,,,,,244,37,-94,1,0,0,response3disk,,4,5,6,1,0,0,rectangle,5,6,1,0,0,5,6,1,0,0,0,123,123,129,1,,,,,,,,
,,,,,,,,,,,,,FF,,,,,,,,0.742,,,,,,,,,,,,,,,,,,,,,,6100a7d308e142f9066458c2,610378b7924b4aee458743cc,2021-07-29_21h03.55.938,Simcolourproject_2stim_asymm_v5,2020.2.10,MacIntel,60,61025ae37ef11b136ea224fe,,,,,,,,,3223,65,77,1,0,0,response1disk,,7,10,-6,1,0,0,rectangle,10,-6,1,0,0,10,-6,1,0,0,0,124,124,69,1,,,,,,,,
,,,,,,,,,,,,,FF,,,,,,,,1.385,,,,,,,,,,,,,,,,,,,,,,6100a7d308e142f9066458c2,610378b7924b4aee458743cc,2021-07-29_21h03.55.938,Simcolourproject_2stim_asymm_v5,2020.2.10,MacIntel,60,61025ae37ef11b136ea224fe,,,,,,,,,3725,35,92,1,0,0,response1disk,,7,1,3,1,0,0,rectangle,1,3,1,0,0,1,3,1,0,0,0,125,125,85,1,,,,,,,,
,,,,,,,,,,,,,FF,,,,,,,,1.236,,,,,,,,,,,,,,,,,,,,,,6100a7d308e142f9066458c2,610378b7924b4aee458743cc,2021-07-29_21h03.55.938,Simcolourproject_2stim_asymm_v5,2020.2.10,MacIntel,60,61025ae37ef11b136ea224fe,,,,,,,,,2151,89,38,1,0,0,response1disk,,6,10,-2,1,0,0,rectangle,10,-2,1,0,0,10,-2,1,0,0,0,126,126,144,1,,,,,,,,
,,,,,,,,,,,,,FF,,,,,,,,2.026,,,,,,,,,,,,,,,,,,,,,,6100a7d308e142f9066458c2,610378b7924b4aee458743cc,2021-07-29_21h03.55.938,Simcolourproject_2stim_asymm_v5,2020.2.10,MacIntel,60,61025ae37ef11b136ea224fe,,,,,,,,,1606,93,-30,1,0,0,response3disk,,5,3,-11,1,0,0,rectangle,3,-11,1,0,0,3,-11,1,0,0,0,127,127,19,1,,,,,,,,
,,,,,,,,,,,,,FF,,,,,,,,0.903,,,,,,,,,,,,,,,,,,,,,,6100a7d308e142f9066458c2,610378b7924b4aee458743cc,2021-07-29_21h03.55.938,Simcolourproject_2stim_asymm_v5,2020.2.10,MacIntel,60,61025ae37ef11b136ea224fe,,,,,,,,,3242,72,109,1,0,0,response1disk,,7,4,-7,1,0,0,rectangle,4,-7,1,0,0,4,-7,1,0,0,0,128,128,80,1,,,,,,,,
,,,,,,,,,,,,,FF,,,,,,,,1.713,,,,,,,,,,,,,,,,,,,,,,6100a7d308e142f9066458c2,610378b7924b4aee458743cc,2021-07-29_21h03.55.938,Simcolourproject_2stim_asymm_v5,2020.2.10,MacIntel,60,61025ae37ef11b136ea224fe,,,,,,,,,736,87,33,1,0,0,response1disk,,6,22,0,1,0,0,rectangle,22,0,1,0,0,22,0,1,0,0,0,129,129,12,1,,,,,,,,
,,,,,,,,,,,,,FF,,,,,,,,1.023,,,,,,,,,,,,,,,,,,,,,,6100a7d308e142f9066458c2,610378b7924b4aee458743cc,2021-07-29_21h03.55.938,Simcolourproject_2stim_asymm_v5,2020.2.10,MacIntel,60,61025ae37ef11b136ea224fe,,,,,,,,,2205,35,91,1,0,0,response1disk,,7,-1,-7,1,0,0,rectangle,-1,-7,1,0,0,-1,-7,1,0,0,0,130,130,48,1,,,,,,,,
,,,,,,,,,,,,,FF,,,,,,,,1.066,,,,,,,,,,,,,,,,,,,,,,6100a7d308e142f9066458c2,610378b7924b4aee458743cc,2021-07-29_21h03.55.938,Simcolourproject_2stim_asymm_v5,2020.2.10,MacIntel,60,61025ae37ef11b136ea224fe,,,,,,,,,3387,52,89,1,0,0,response1disk,,7,5,1,1,0,0,rectangle,5,1,1,0,0,5,1,1,0,0,0,131,131,112,1,,,,,,,,
,,,,,,,,,,,,,FF,,,,,,,,0.716,,,,,,,,,,,,,,,,,,,,,,6100a7d308e142f9066458c2,610378b7924b4aee458743cc,2021-07-29_21h03.55.938,Simcolourproject_2stim_asymm_v5,2020.2.10,MacIntel,60,61025ae37ef11b136ea224fe,,,,,,,,,1730,52,101,1,0,0,response1disk,,7,-4,-2,1,0,0,rectangle,-90,-57,1,0,0,-2,5,1,0,0,0,132,132,84,1,,response5disk_3,TRUE,2,2,"[171,116,158,249,218,106,195,230,133,202,175,16,2,145,106,265,64,212,30,110]",2.108,rectangle
,,,,,,,,,,,,,FF,,,,,,,,1.071,,,,,,,,,,,,,,,,,,,,,,6100a7d308e142f9066458c2,610378b7924b4aee458743cc,2021-07-29_21h03.55.938,Simcolourproject_2stim_asymm_v5,2020.2.10,MacIntel,60,61025ae37ef11b136ea224fe,,,,,,,,,3165,98,-57,1,0,0,response3disk,,5,7,-3,1,0,0,rectangle,7,-3,1,0,0,7,-3,1,0,0,0,133,133,156,1,,,,,,,,
,,,,,,,,,,,,,FF,,,,,,,,1.184,,,,,,,,,,,,,,,,,,,,,,6100a7d308e142f9066458c2,610378b7924b4aee458743cc,2021-07-29_21h03.55.938,Simcolourproject_2stim_asymm_v5,2020.2.10,MacIntel,60,61025ae37ef11b136ea224fe,,,,,,,,,4153,61,105,1,0,0,response1disk,,7,5,-8,1,0,0,rectangle,5,-8,1,0,0,5,-8,1,0,0,0,134,134,141,1,,,,,,,,
,,,,,,,,,,,,,FF,,,,,,,,1.39,,,,,,,,,,,,,,,,,,,,,,6100a7d308e142f9066458c2,610378b7924b4aee458743cc,2021-07-29_21h03.55.938,Simcolourproject_2stim_asymm_v5,2020.2.10,MacIntel,60,61025ae37ef11b136ea224fe,,,,,,,,,2930,48,84,1,0,0,response1disk,,7,11,6,1,0,0,rectangle,11,6,1,0,0,11,6,1,0,0,0,135,135,72,1,,,,,,,,
,,,,,,,,,,,,,FF,,,,,,,,1.026,,,,,,,,,,,,,,,,,,,,,,6100a7d308e142f9066458c2,610378b7924b4aee458743cc,2021-07-29_21h03.55.938,Simcolourproject_2stim_asymm_v5,2020.2.10,MacIntel,60,61025ae37ef11b136ea224fe,,,,,,,,,3357,93,43,1,0,0,response1disk,,6,10,-11,1,0,0,rectangle,10,-11,1,0,0,10,-11,1,0,0,0,136,136,114,1,,,,,,,,
,,,,,,,,,,,,,FF,,,,,,,,1.023,,,,,,,,,,,,,,,,,,,,,,6100a7d308e142f9066458c2,610378b7924b4aee458743cc,2021-07-29_21h03.55.938,Simcolourproject_2stim_asymm_v5,2020.2.10,MacIntel,60,61025ae37ef11b136ea224fe,,,,,,,,,456,-98,-54,1,0,0,response5disk,,2,-13,3,1,0,0,rectangle,-13,3,1,0,0,-13,3,1,0,0,0,137,137,51,1,,,,,,,,
,,,,,,,,,,,,,FF,,,,,,,,0.757,,,,,,,,,,,,,,,,,,,,,,6100a7d308e142f9066458c2,610378b7924b4aee458743cc,2021-07-29_21h03.55.938,Simcolourproject_2stim_asymm_v5,2020.2.10,MacIntel,60,61025ae37ef11b136ea224fe,,,,,,,,,1652,52,97,1,0,0,response1disk,,7,6,4,1,0,0,rectangle,6,4,1,0,0,6,4,1,0,0,0,138,138,102,1,,,,,,,,
,,,,,,,,,,,,,FF,,,,,,,,1.272,,,,,,,,,,,,,,,,,,,,,,6100a7d308e142f9066458c2,610378b7924b4aee458743cc,2021-07-29_21h03.55.938,Simcolourproject_2stim_asymm_v5,2020.2.10,MacIntel,60,61025ae37ef11b136ea224fe,,,,,,,,,1117,23,-81,1,0,0,response3disk,,4,-1,4,1,0,0,rectangle,-1,4,1,0,0,-1,4,1,0,0,0,139,139,53,1,,,,,,,,
,,,,,,,,,,,,,FF,,,,,,,,1.233,,,,,,,,,,,,,,,,,,,,,,6100a7d308e142f9066458c2,610378b7924b4aee458743cc,2021-07-29_21h03.55.938,Simcolourproject_2stim_asymm_v5,2020.2.10,MacIntel,60,61025ae37ef11b136ea224fe,,,,,,,,,3002,-70,-43,1,0,0,response5disk,,2,0,-3,1,0,0,rectangle,0,-3,1,0,0,0,-3,1,0,0,0,140,140,47,1,,,,,,,,
,,,,,,,,,,,,,FF,,,,,,,,0.816,,,,,,,,,,,,,,,,,,,,,,6100a7d308e142f9066458c2,610378b7924b4aee458743cc,2021-07-29_21h03.55.938,Simcolourproject_2stim_asymm_v5,2020.2.10,MacIntel,60,61025ae37ef11b136ea224fe,,,,,,,,,371,-49,-85,1,0,0,response5disk,,3,-3,-18,1,0,0,rectangle,-3,-18,1,0,0,-3,-18,1,0,0,0,141,141,28,1,,,,,,,,
,,,,,,,,,,,,,FF,,,,,,,,1.275,,,,,,,,,,,,,,,,,,,,,,6100a7d308e142f9066458c2,610378b7924b4aee458743cc,2021-07-29_21h03.55.938,Simcolourproject_2stim_asymm_v5,2020.2.10,MacIntel,60,61025ae37ef11b136ea224fe,,,,,,,,,3288,57,84,1,0,0,response1disk,,7,4,5,1,0,0,rectangle,4,5,1,0,0,4,5,1,0,0,0,142,142,49,1,,,,,,,,
,,,,,,,,,,,,,FF,,,,,,,,1.338,,,,,,,,,,,,,,,,,,,,,,6100a7d308e142f9066458c2,610378b7924b4aee458743cc,2021-07-29_21h03.55.938,Simcolourproject_2stim_asymm_v5,2020.2.10,MacIntel,60,61025ae37ef11b136ea224fe,,,,,,,,,1690,35,-88,1,0,0,response3disk,,4,15,-9,1,0,0,rectangle,15,-9,1,0,0,15,-9,1,0,0,0,143,143,146,1,,,,,,,,
,,,,,,,,,,,,,FF,,,,,,,,0.816,,,,,,,,,,,,,,,,,,,,,,6100a7d308e142f9066458c2,610378b7924b4aee458743cc,2021-07-29_21h03.55.938,Simcolourproject_2stim_asymm_v5,2020.2.10,MacIntel,60,61025ae37ef11b136ea224fe,,,,,,,,,2724,-42,-95,1,0,0,response5disk,,3,0,-2,1,0,0,rectangle,43,-99,1,0,0,5,-1,1,0,0,0,144,144,101,1,,response3disk_3,TRUE,4,4,"[171,116,158,249,218,106,195,230,133,202,175,16,2,145,106,265,64,212,30,110]",1.541,rectangle
,,,,,,,,,,,,,FF,,,,,,,,0.86,,,,,,,,,,,,,,,,,,,,,,6100a7d308e142f9066458c2,610378b7924b4aee458743cc,2021-07-29_21h03.55.938,Simcolourproject_2stim_asymm_v5,2020.2.10,MacIntel,60,61025ae37ef11b136ea224fe,,,,,,,,,4252,-84,-56,1,0,0,response5disk,,2,-9,-9,1,0,0,rectangle,-9,-9,1,0,0,-9,-9,1,0,0,0,145,145,35,1,,,,,,,,
,,,,,,,,,,,,,FF,,,,,,,,0.886,,,,,,,,,,,,,,,,,,,,,,6100a7d308e142f9066458c2,610378b7924b4aee458743cc,2021-07-29_21h03.55.938,Simcolourproject_2stim_asymm_v5,2020.2.10,MacIntel,60,61025ae37ef11b136ea224fe,,,,,,,,,2159,49,95,1,0,0,response1disk,,7,-1,-4,1,0,0,rectangle,-1,-4,1,0,0,-1,-4,1,0,0,0,146,146,54,1,,,,,,,,
,,,,,,,,,,,,,FF,,,,,,,,1.123,,,,,,,,,,,,,,,,,,,,,,6100a7d308e142f9066458c2,610378b7924b4aee458743cc,2021-07-29_21h03.55.938,Simcolourproject_2stim_asymm_v5,2020.2.10,MacIntel,60,61025ae37ef11b136ea224fe,,,,,,,,,1760,49,-72,1,0,0,response3disk,,4,12,-14,1,0,0,rectangle,12,-14,1,0,0,12,-14,1,0,0,0,147,147,131,1,,,,,,,,
,,,,,,,,,,,,,FF,,,,,,,,1.753,,,,,,,,,,,,,,,,,,,,,,6100a7d308e142f9066458c2,610378b7924b4aee458743cc,2021-07-29_21h03.55.938,Simcolourproject_2stim_asymm_v5,2020.2.10,MacIntel,60,61025ae37ef11b136ea224fe,,,,,,,,,2508,58,79,1,0,0,response1disk,,7,-6,-14,1,0,0,rectangle,-6,-14,1,0,0,-6,-14,1,0,0,0,148,148,43,1,,,,,,,,
,,,,,,,,,,,,,FF,,,,,,,,0.944,,,,,,,,,,,,,,,,,,,,,,6100a7d308e142f9066458c2,610378b7924b4aee458743cc,2021-07-29_21h03.55.938,Simcolourproject_2stim_asymm_v5,2020.2.10,MacIntel,60,61025ae37ef11b136ea224fe,,,,,,,,,3568,47,85,1,0,0,response1disk,,7,4,0,1,0,0,rectangle,4,0,1,0,0,4,0,1,0,0,0,149,149,32,1,,,,,,,,
,,,,,,,,,,,,,FF,,,,,,,,0.882,,,,,,,,,,,,,,,,,,,,,,6100a7d308e142f9066458c2,610378b7924b4aee458743cc,2021-07-29_21h03.55.938,Simcolourproject_2stim_asymm_v5,2020.2.10,MacIntel,60,61025ae37ef11b136ea224fe,,,,,,,,,313,31,93,1,0,0,response1disk,,7,-15,-6,1,0,0,rectangle,-15,-6,1,0,0,-15,-6,1,0,0,0,150,150,42,1,,,,,,,,
,,,,,,,,,,,,,FF,,,,,,,,1.176,,,,,,,,,,,,,,,,,,,,,,6100a7d308e142f9066458c2,610378b7924b4aee458743cc,2021-07-29_21h03.55.938,Simcolourproject_2stim_asymm_v5,2020.2.10,MacIntel,60,61025ae37ef11b136ea224fe,,,,,,,,,2156,33,95,1,0,0,response1disk,,7,1,8,1,0,0,rectangle,1,8,1,0,0,1,8,1,0,0,0,151,151,66,1,,,,,,,,
,,,,,,,,,,,,,FF,,,,,,,,0.812,,,,,,,,,,,,,,,,,,,,,,6100a7d308e142f9066458c2,610378b7924b4aee458743cc,2021-07-29_21h03.55.938,Simcolourproject_2stim_asymm_v5,2020.2.10,MacIntel,60,61025ae37ef11b136ea224fe,,,,,,,,,579,50,79,1,0,0,response1disk,,7,6,1,1,0,0,rectangle,6,1,1,0,0,6,1,1,0,0,0,152,152,78,1,,,,,,,,
,,,,,,,,,,,,,FF,,,,,,,,0.952,,,,,,,,,,,,,,,,,,,,,,6100a7d308e142f9066458c2,610378b7924b4aee458743cc,2021-07-29_21h03.55.938,Simcolourproject_2stim_asymm_v5,2020.2.10,MacIntel,60,61025ae37ef11b136ea224fe,,,,,,,,,1106,42,71,1,0,0,response1disk,,7,19,3,1,0,0,rectangle,19,3,1,0,0,19,3,1,0,0,0,153,153,133,1,,,,,,,,
,,,,,,,,,,,,,FF,,,,,,,,0.702,,,,,,,,,,,,,,,,,,,,,,6100a7d308e142f9066458c2,610378b7924b4aee458743cc,2021-07-29_21h03.55.938,Simcolourproject_2stim_asymm_v5,2020.2.10,MacIntel,60,61025ae37ef11b136ea224fe,,,,,,,,,2875,36,78,1,0,0,response1disk,,7,11,-1,1,0,0,rectangle,11,-1,1,0,0,11,-1,1,0,0,0,154,154,16,1,,,,,,,,
,,,,,,,,,,,,,FF,,,,,,,,1.407,,,,,,,,,,,,,,,,,,,,,,6100a7d308e142f9066458c2,610378b7924b4aee458743cc,2021-07-29_21h03.55.938,Simcolourproject_2stim_asymm_v5,2020.2.10,MacIntel,60,61025ae37ef11b136ea224fe,,,,,,,,,1965,-94,22,1,0,0,response7disk,,1,-12,7,1,0,0,rectangle,-12,7,1,0,0,-12,7,1,0,0,0,155,155,134,1,,,,,,,,
,,,,,,,,,,,,,FF,,,,,,,,1.56,,,,,,,,,,,,,,,,,,,,,,6100a7d308e142f9066458c2,610378b7924b4aee458743cc,2021-07-29_21h03.55.938,Simcolourproject_2stim_asymm_v5,2020.2.10,MacIntel,60,61025ae37ef11b136ea224fe,,,,,,,,,482,40,92,1,0,0,response1disk,,7,1,-8,1,0,0,rectangle,1,-8,1,0,0,1,-8,1,0,0,0,156,156,135,1,,,,,,,,
,,,,,,,,,,,,,FF,,,,,,,,0.939,,,,,,,,,,,,,,,,,,,,,,6100a7d308e142f9066458c2,610378b7924b4aee458743cc,2021-07-29_21h03.55.938,Simcolourproject_2stim_asymm_v5,2020.2.10,MacIntel,60,61025ae37ef11b136ea224fe,,,,,,,,,4118,-28,79,1,0,0,response7disk,,0,-6,5,1,0,0,rectangle,-79,-42,1,0,0,-15,4,1,0,0,0,157,157,108,1,,response5disk_3,TRUE,2,2,"[171,116,158,249,218,106,195,230,133,202,175,16,2,145,106,265,64,212,30,110]",1.534,rectangle
,,,,,,,,,,,,,FF,,,,,,,,1.363,,,,,,,,,,,,,,,,,,,,,,6100a7d308e142f9066458c2,610378b7924b4aee458743cc,2021-07-29_21h03.55.938,Simcolourproject_2stim_asymm_v5,2020.2.10,MacIntel,60,61025ae37ef11b136ea224fe,,,,,,,,,3516,-89,-59,1,0,0,response5disk,,2,-5,-12,1,0,0,rectangle,-5,-12,1,0,0,-5,-12,1,0,0,0,158,158,55,1,,,,,,,,
,,,,,,,,,,,,,FF,,,,,,,,0.858,,,,,,,,,,,,,,,,,,,,,,6100a7d308e142f9066458c2,610378b7924b4aee458743cc,2021-07-29_21h03.55.938,Simcolourproject_2stim_asymm_v5,2020.2.10,MacIntel,60,61025ae37ef11b136ea224fe,,,,,,,,,2757,29,74,1,0,0,response1disk,,7,-4,7,1,0,0,rectangle,-4,7,1,0,0,-4,7,1,0,0,0,159,159,115,1,,,,,,,,
,,,,,,,,,,,,,FF,,,,,,,,0.779,,,,,,,,,,,,,,,,,,,,,,6100a7d308e142f9066458c2,610378b7924b4aee458743cc,2021-07-29_21h03.55.938,Simcolourproject_2stim_asymm_v5,2020.2.10,MacIntel,60,61025ae37ef11b136ea224fe,,,,,,,,,1710,48,70,1,0,0,response1disk,,7,19,6,1,0,0,rectangle,19,6,1,0,0,19,6,1,0,0,1,0,160,12,1,,,,,,,,
,,,,,,,,,,,,,FF,,,,,,,,0.919,,,,,,,,,,,,,,,,,,,,,,6100a7d308e142f9066458c2,610378b7924b4aee458743cc,2021-07-29_21h03.55.938,Simcolourproject_2stim_asymm_v5,2020.2.10,MacIntel,60,61025ae37ef11b136ea224fe,,,,,,,,,424,85,32,1,0,0,response1disk,,6,10,-7,1,0,0,rectangle,10,-7,1,0,0,10,-7,1,0,0,1,1,161,77,1,,,,,,,,
,,,,,,,,,,,,,FF,,,,,,,,0.722,,,,,,,,,,,,,,,,,,,,,,6100a7d308e142f9066458c2,610378b7924b4aee458743cc,2021-07-29_21h03.55.938,Simcolourproject_2stim_asymm_v5,2020.2.10,MacIntel,60,61025ae37ef11b136ea224fe,,,,,,,,,4315,34,82,1,0,0,response1disk,,7,0,5,1,0,0,rectangle,0,5,1,0,0,0,5,1,0,0,1,2,162,119,1,,,,,,,,
,,,,,,,,,,,,,FF,,,,,,,,1.074,,,,,,,,,,,,,,,,,,,,,,6100a7d308e142f9066458c2,610378b7924b4aee458743cc,2021-07-29_21h03.55.938,Simcolourproject_2stim_asymm_v5,2020.2.10,MacIntel,60,61025ae37ef11b136ea224fe,,,,,,,,,2545,-24,-77,1,0,0,response5disk,,3,6,-7,1,0,0,rectangle,6,-7,1,0,0,6,-7,1,0,0,1,3,163,21,1,,,,,,,,
,,,,,,,,,,,,,FF,,,,,,,,1.073,,,,,,,,,,,,,,,,,,,,,,6100a7d308e142f9066458c2,610378b7924b4aee458743cc,2021-07-29_21h03.55.938,Simcolourproject_2stim_asymm_v5,2020.2.10,MacIntel,60,61025ae37ef11b136ea224fe,,,,,,,,,2775,-23,92,1,0,0,response7disk,,0,-5,16,1,0,0,rectangle,-5,16,1,0,0,-5,16,1,0,0,1,4,164,62,1,,,,,,,,
,,,,,,,,,,,,,FF,,,,,,,,0.886,,,,,,,,,,,,,,,,,,,,,,6100a7d308e142f9066458c2,610378b7924b4aee458743cc,2021-07-29_21h03.55.938,Simcolourproject_2stim_asymm_v5,2020.2.10,MacIntel,60,61025ae37ef11b136ea224fe,,,,,,,,,3308,47,86,1,0,0,response1disk,,7,6,2,1,0,0,rectangle,6,2,1,0,0,6,2,1,0,0,1,5,165,42,1,,,,,,,,
,,,,,,,,,,,,,FF,,,,,,,,1.022,,,,,,,,,,,,,,,,,,,,,,6100a7d308e142f9066458c2,610378b7924b4aee458743cc,2021-07-29_21h03.55.938,Simcolourproject_2stim_asymm_v5,2020.2.10,MacIntel,60,61025ae37ef11b136ea224fe,,,,,,,,,925,39,92,1,0,0,response1disk,,7,3,2,1,0,0,rectangle,3,2,1,0,0,3,2,1,0,0,1,6,166,148,1,,,,,,,,
,,,,,,,,,,,,,FF,,,,,,,,2.171,,,,,,,,,,,,,,,,,,,,,,6100a7d308e142f9066458c2,610378b7924b4aee458743cc,2021-07-29_21h03.55.938,Simcolourproject_2stim_asymm_v5,2020.2.10,MacIntel,60,61025ae37ef11b136ea224fe,,,,,,,,,3785,-52,-97,1,0,0,response5disk,,3,8,3,1,0,0,rectangle,8,3,1,0,0,8,3,1,0,0,1,7,167,125,1,,,,,,,,
,,,,,,,,,,,,,FF,,,,,,,,1.105,,,,,,,,,,,,,,,,,,,,,,6100a7d308e142f9066458c2,610378b7924b4aee458743cc,2021-07-29_21h03.55.938,Simcolourproject_2stim_asymm_v5,2020.2.10,MacIntel,60,61025ae37ef11b136ea224fe,,,,,,,,,1837,-55,-95,1,0,0,response5disk,,3,7,5,1,0,0,rectangle,7,5,1,0,0,7,5,1,0,0,1,8,168,6,1,,,,,,,,
,,,,,,,,,,,,,FF,,,,,,,,1.323,,,,,,,,,,,,,,,,,,,,,,6100a7d308e142f9066458c2,610378b7924b4aee458743cc,2021-07-29_21h03.55.938,Simcolourproject_2stim_asymm_v5,2020.2.10,MacIntel,60,61025ae37ef11b136ea224fe,,,,,,,,,266,-53,-90,1,0,0,response5disk,,3,7,7,1,0,0,rectangle,7,7,1,0,0,7,7,1,0,0,1,9,169,146,1,,,,,,,,
,,,,,,,,,,,,,FF,,,,,,,,1.023,,,,,,,,,,,,,,,,,,,,,,6100a7d308e142f9066458c2,610378b7924b4aee458743cc,2021-07-29_21h03.55.938,Simcolourproject_2stim_asymm_v5,2020.2.10,MacIntel,60,61025ae37ef11b136ea224fe,,,,,,,,,1502,45,72,1,0,0,response1disk,,7,4,12,1,0,0,rectangle,87,-37,1,0,0,16,-3,1,0,0,1,10,170,23,1,,response3disk_3,TRUE,5,5,"[171,116,158,249,218,106,195,230,133,202,175,16,2,145,106,265,64,212,30,110]",1.459,rectangle
,,,,,,,,,,,,,FF,,,,,,,,1.095,,,,,,,,,,,,,,,,,,,,,,6100a7d308e142f9066458c2,610378b7924b4aee458743cc,2021-07-29_21h03.55.938,Simcolourproject_2stim_asymm_v5,2020.2.10,MacIntel,60,61025ae37ef11b136ea224fe,,,,,,,,,3964,48,82,1,0,0,response1disk,,7,6,-7,1,0,0,rectangle,6,-7,1,0,0,6,-7,1,0,0,1,11,171,84,1,,,,,,,,
,,,,,,,,,,,,,FF,,,,,,,,2.417,,,,,,,,,,,,,,,,,,,,,,6100a7d308e142f9066458c2,610378b7924b4aee458743cc,2021-07-29_21h03.55.938,Simcolourproject_2stim_asymm_v5,2020.2.10,MacIntel,60,61025ae37ef11b136ea224fe,,,,,,,,,1059,82,-41,1,0,0,response3disk,,5,10,1,1,0,0,rectangle,10,1,1,0,0,10,1,1,0,0,1,12,172,25,1,,,,,,,,
,,,,,,,,,,,,,FF,,,,,,,,0.734,,,,,,,,,,,,,,,,,,,,,,6100a7d308e142f9066458c2,610378b7924b4aee458743cc,2021-07-29_21h03.55.938,Simcolourproject_2stim_asymm_v5,2020.2.10,MacIntel,60,61025ae37ef11b136ea224fe,,,,,,,,,1635,63,87,1,0,0,response1disk,,7,-8,-15,1,0,0,rectangle,-8,-15,1,0,0,-8,-15,1,0,0,1,13,173,39,1,,,,,,,,
,,,,,,,,,,,,,FF,,,,,,,,1.352,,,,,,,,,,,,,,,,,,,,,,6100a7d308e142f9066458c2,610378b7924b4aee458743cc,2021-07-29_21h03.55.938,Simcolourproject_2stim_asymm_v5,2020.2.10,MacIntel,60,61025ae37ef11b136ea224fe,,,,,,,,,904,32,-109,1,0,0,response3disk,,4,9,15,1,0,0,rectangle,-87,45,1,0,0,-6,4,1,0,0,1,14,174,13,1,,response7disk_3,TRUE,1,1,"[171,116,158,249,218,106,195,230,133,202,175,16,2,145,106,265,64,212,30,110]",1.282,rectangle
,,,,,,,,,,,,,FF,,,,,,,,1.126,,,,,,,,,,,,,,,,,,,,,,6100a7d308e142f9066458c2,610378b7924b4aee458743cc,2021-07-29_21h03.55.938,Simcolourproject_2stim_asymm_v5,2020.2.10,MacIntel,60,61025ae37ef11b136ea224fe,,,,,,,,,181,42,-87,1,0,0,response3disk,,4,7,1,1,0,0,rectangle,7,1,1,0,0,7,1,1,0,0,1,15,175,52,1,,,,,,,,
,,,,,,,,,,,,,FF,,,,,,,,2.071,,,,,,,,,,,,,,,,,,,,,,6100a7d308e142f9066458c2,610378b7924b4aee458743cc,2021-07-29_21h03.55.938,Simcolourproject_2stim_asymm_v5,2020.2.10,MacIntel,60,61025ae37ef11b136ea224fe,,,,,,,,,2575,40,91,1,0,0,response1disk,,7,3,4,1,0,0,rectangle,3,4,1,0,0,3,4,1,0,0,1,16,176,33,1,,,,,,,,
,,,,,,,,,,,,,FF,,,,,,,,0.688,,,,,,,,,,,,,,,,,,,,,,6100a7d308e142f9066458c2,610378b7924b4aee458743cc,2021-07-29_21h03.55.938,Simcolourproject_2stim_asymm_v5,2020.2.10,MacIntel,60,61025ae37ef11b136ea224fe,,,,,,,,,1101,43,91,1,0,0,response1disk,,7,9,15,1,0,0,rectangle,9,15,1,0,0,9,15,1,0,0,1,17,177,51,1,,,,,,,,
,,,,,,,,,,,,,FF,,,,,,,,0.946,,,,,,,,,,,,,,,,,,,,,,6100a7d308e142f9066458c2,610378b7924b4aee458743cc,2021-07-29_21h03.55.938,Simcolourproject_2stim_asymm_v5,2020.2.10,MacIntel,60,61025ae37ef11b136ea224fe,,,,,,,,,3658,88,44,1,0,0,response1disk,,6,6,-3,1,0,0,rectangle,6,-3,1,0,0,6,-3,1,0,0,1,18,178,156,1,,,,,,,,
,,,,,,,,,,,,,FF,,,,,,,,0.98,,,,,,,,,,,,,,,,,,,,,,6100a7d308e142f9066458c2,610378b7924b4aee458743cc,2021-07-29_21h03.55.938,Simcolourproject_2stim_asymm_v5,2020.2.10,MacIntel,60,61025ae37ef11b136ea224fe,,,,,,,,,2224,44,82,1,0,0,response1disk,,7,5,4,1,0,0,rectangle,5,4,1,0,0,5,4,1,0,0,1,19,179,31,1,,,,,,,,
,,,,,,,,,,,,,FF,,,,,,,,0.844,,,,,,,,,,,,,,,,,,,,,,6100a7d308e142f9066458c2,610378b7924b4aee458743cc,2021-07-29_21h03.55.938,Simcolourproject_2stim_asymm_v5,2020.2.10,MacIntel,60,61025ae37ef11b136ea224fe,,,,,,,,,931,58,102,1,0,0,response1disk,,7,9,3,1,0,0,rectangle,9,3,1,0,0,9,3,1,0,0,1,20,180,99,1,,,,,,,,
,,,,,,,,,,,,,FF,,,,,,,,2.108,,,,,,,,,,,,,,,,,,,,,,6100a7d308e142f9066458c2,610378b7924b4aee458743cc,2021-07-29_21h03.55.938,Simcolourproject_2stim_asymm_v5,2020.2.10,MacIntel,60,61025ae37ef11b136ea224fe,,,,,,,,,2713,75,45,1,0,0,response1disk,,6,8,-6,1,0,0,rectangle,8,-6,1,0,0,8,-6,1,0,0,1,21,181,106,1,,,,,,,,
,,,,,,,,,,,,,FF,,,,,,,,1.542,,,,,,,,,,,,,,,,,,,,,,6100a7d308e142f9066458c2,610378b7924b4aee458743cc,2021-07-29_21h03.55.938,Simcolourproject_2stim_asymm_v5,2020.2.10,MacIntel,60,61025ae37ef11b136ea224fe,,,,,,,,,597,75,36,1,0,0,response1disk,,6,12,3,1,0,0,rectangle,12,3,1,0,0,12,3,1,0,0,1,22,182,112,1,,,,,,,,
,,,,,,,,,,,,,FF,,,,,,,,0.968,,,,,,,,,,,,,,,,,,,,,,6100a7d308e142f9066458c2,610378b7924b4aee458743cc,2021-07-29_21h03.55.938,Simcolourproject_2stim_asymm_v5,2020.2.10,MacIntel,60,61025ae37ef11b136ea224fe,,,,,,,,,2846,36,-81,1,0,0,response3disk,,4,14,4,1,0,0,rectangle,14,4,1,0,0,14,4,1,0,0,1,23,183,74,1,,,,,,,,
,,,,,,,,,,,,,FF,,,,,,,,0.994,,,,,,,,,,,,,,,,,,,,,,6100a7d308e142f9066458c2,610378b7924b4aee458743cc,2021-07-29_21h03.55.938,Simcolourproject_2stim_asymm_v5,2020.2.10,MacIntel,60,61025ae37ef11b136ea224fe,,,,,,,,,569,37,-64,1,0,0,response3disk,,4,7,-5,1,0,0,rectangle,7,-5,1,0,0,7,-5,1,0,0,1,24,184,14,1,,,,,,,,
,,,,,,,,,,,,,FF,,,,,,,,1.888,,,,,,,,,,,,,,,,,,,,,,6100a7d308e142f9066458c2,610378b7924b4aee458743cc,2021-07-29_21h03.55.938,Simcolourproject_2stim_asymm_v5,2020.2.10,MacIntel,60,61025ae37ef11b136ea224fe,,,,,,,,,243,84,34,1,0,0,response1disk,,6,12,-2,1,0,0,rectangle,12,-2,1,0,0,12,-2,1,0,0,1,25,185,104,1,,,,,,,,
,,,,,,,,,,,,,FF,,,,,,,,1.258,,,,,,,,,,,,,,,,,,,,,,6100a7d308e142f9066458c2,610378b7924b4aee458743cc,2021-07-29_21h03.55.938,Simcolourproject_2stim_asymm_v5,2020.2.10,MacIntel,60,61025ae37ef11b136ea224fe,,,,,,,,,2544,-63,-100,1,0,0,response5disk,,3,-1,-1,1,0,0,rectangle,-1,-1,1,0,0,-1,-1,1,0,0,1,26,186,121,1,,,,,,,,
,,,,,,,,,,,,,FF,,,,,,,,1.039,,,,,,,,,,,,,,,,,,,,,,6100a7d308e142f9066458c2,610378b7924b4aee458743cc,2021-07-29_21h03.55.938,Simcolourproject_2stim_asymm_v5,2020.2.10,MacIntel,60,61025ae37ef11b136ea224fe,,,,,,,,,320,40,63,1,0,0,response1disk,,7,19,2,1,0,0,rectangle,19,2,1,0,0,19,2,1,0,0,1,27,187,28,1,,,,,,,,
,,,,,,,,,,,,,FF,,,,,,,,0.83,,,,,,,,,,,,,,,,,,,,,,6100a7d308e142f9066458c2,610378b7924b4aee458743cc,2021-07-29_21h03.55.938,Simcolourproject_2stim_asymm_v5,2020.2.10,MacIntel,60,61025ae37ef11b136ea224fe,,,,,,,,,3571,47,71,1,0,0,response1disk,,7,14,1,1,0,0,rectangle,14,1,1,0,0,14,1,1,0,0,1,28,188,65,1,,,,,,,,
,,,,,,,,,,,,,FF,,,,,,,,1.14,,,,,,,,,,,,,,,,,,,,,,6100a7d308e142f9066458c2,610378b7924b4aee458743cc,2021-07-29_21h03.55.938,Simcolourproject_2stim_asymm_v5,2020.2.10,MacIntel,60,61025ae37ef11b136ea224fe,,,,,,,,,3577,66,80,1,0,0,response1disk,,7,14,6,1,0,0,rectangle,14,6,1,0,0,14,6,1,0,0,1,29,189,66,1,,,,,,,,
,,,,,,,,,,,,,FF,,,,,,,,0.908,,,,,,,,,,,,,,,,,,,,,,6100a7d308e142f9066458c2,610378b7924b4aee458743cc,2021-07-29_21h03.55.938,Simcolourproject_2stim_asymm_v5,2020.2.10,MacIntel,60,61025ae37ef11b136ea224fe,,,,,,,,,3958,51,87,1,0,0,response1disk,,7,-27,-14,1,0,0,rectangle,-27,-14,1,0,0,-27,-14,1,0,0,1,30,190,151,1,,,,,,,,
,,,,,,,,,,,,,FF,,,,,,,,1.214,,,,,,,,,,,,,,,,,,,,,,6100a7d308e142f9066458c2,610378b7924b4aee458743cc,2021-07-29_21h03.55.938,Simcolourproject_2stim_asymm_v5,2020.2.10,MacIntel,60,61025ae37ef11b136ea224fe,,,,,,,,,1547,33,58,1,0,0,response1disk,,7,11,3,1,0,0,rectangle,11,3,1,0,0,11,3,1,0,0,1,31,191,47,1,,,,,,,,
,,,,,,,,,,,,,FF,,,,,,,,0.978,,,,,,,,,,,,,,,,,,,,,,6100a7d308e142f9066458c2,610378b7924b4aee458743cc,2021-07-29_21h03.55.938,Simcolourproject_2stim_asymm_v5,2020.2.10,MacIntel,60,61025ae37ef11b136ea224fe,,,,,,,,,3737,87,70,1,0,0,response1disk,,6,6,15,1,0,0,rectangle,6,15,1,0,0,6,15,1,0,0,1,32,192,135,1,,,,,,,,
,,,,,,,,,,,,,FF,,,,,,,,0.873,,,,,,,,,,,,,,,,,,,,,,6100a7d308e142f9066458c2,610378b7924b4aee458743cc,2021-07-29_21h03.55.938,Simcolourproject_2stim_asymm_v5,2020.2.10,MacIntel,60,61025ae37ef11b136ea224fe,,,,,,,,,297,50,88,1,0,0,response1disk,,7,8,9,1,0,0,rectangle,8,9,1,0,0,8,9,1,0,0,1,33,193,68,1,,,,,,,,
,,,,,,,,,,,,,FF,,,,,,,,0.79,,,,,,,,,,,,,,,,,,,,,,6100a7d308e142f9066458c2,610378b7924b4aee458743cc,2021-07-29_21h03.55.938,Simcolourproject_2stim_asymm_v5,2020.2.10,MacIntel,60,61025ae37ef11b136ea224fe,,,,,,,,,3179,51,86,1,0,0,response1disk,,7,4,-3,1,0,0,rectangle,49,109,1,0,0,13,10,1,0,0,1,34,194,103,1,,response1disk_3,TRUE,7,7,"[171,116,158,249,218,106,195,230,133,202,175,16,2,145,106,265,64,212,30,110]",1.353,rectangle
,,,,,,,,,,,,,FF,,,,,,,,1.333,,,,,,,,,,,,,,,,,,,,,,6100a7d308e142f9066458c2,610378b7924b4aee458743cc,2021-07-29_21h03.55.938,Simcolourproject_2stim_asymm_v5,2020.2.10,MacIntel,60,61025ae37ef11b136ea224fe,,,,,,,,,2010,31,71,1,0,0,response1disk,,7,-4,16,1,0,0,rectangle,-4,16,1,0,0,-4,16,1,0,0,1,35,195,127,1,,,,,,,,
,,,,,,,,,,,,,FF,,,,,,,,0.742,,,,,,,,,,,,,,,,,,,,,,6100a7d308e142f9066458c2,610378b7924b4aee458743cc,2021-07-29_21h03.55.938,Simcolourproject_2stim_asymm_v5,2020.2.10,MacIntel,60,61025ae37ef11b136ea224fe,,,,,,,,,331,44,92,1,0,0,response1disk,,7,-3,-7,1,0,0,rectangle,-3,-7,1,0,0,-3,-7,1,0,0,1,36,196,98,1,,,,,,,,
,,,,,,,,,,,,,FF,,,,,,,,0.721,,,,,,,,,,,,,,,,,,,,,,6100a7d308e142f9066458c2,610378b7924b4aee458743cc,2021-07-29_21h03.55.938,Simcolourproject_2stim_asymm_v5,2020.2.10,MacIntel,60,61025ae37ef11b136ea224fe,,,,,,,,,3161,55,84,1,0,0,response1disk,,7,15,4,1,0,0,rectangle,15,4,1,0,0,15,4,1,0,0,1,37,197,35,1,,,,,,,,
,,,,,,,,,,,,,FF,,,,,,,,0.873,,,,,,,,,,,,,,,,,,,,,,6100a7d308e142f9066458c2,610378b7924b4aee458743cc,2021-07-29_21h03.55.938,Simcolourproject_2stim_asymm_v5,2020.2.10,MacIntel,60,61025ae37ef11b136ea224fe,,,,,,,,,1233,101,46,1,0,0,response1disk,,6,11,-9,1,0,0,rectangle,11,-9,1,0,0,11,-9,1,0,0,1,38,198,140,1,,,,,,,,
,,,,,,,,,,,,,FF,,,,,,,,0.792,,,,,,,,,,,,,,,,,,,,,,6100a7d308e142f9066458c2,610378b7924b4aee458743cc,2021-07-29_21h03.55.938,Simcolourproject_2stim_asymm_v5,2020.2.10,MacIntel,60,61025ae37ef11b136ea224fe,,,,,,,,,1230,75,-46,1,0,0,response3disk,,5,14,0,1,0,0,rectangle,14,0,1,0,0,14,0,1,0,0,1,39,199,50,1,,,,,,,,
,,,,,,,,,,,,,FF,,,,,,,,0.726,,,,,,,,,,,,,,,,,,,,,,6100a7d308e142f9066458c2,610378b7924b4aee458743cc,2021-07-29_21h03.55.938,Simcolourproject_2stim_asymm_v5,2020.2.10,MacIntel,60,61025ae37ef11b136ea224fe,,,,,,,,,3184,48,105,1,0,0,response1disk,,7,-1,-18,1,0,0,rectangle,-1,-18,1,0,0,-1,-18,1,0,0,1,40,200,45,1,,,,,,,,
,,,,,,,,,,,,,FF,,,,,,,,1.387,,,,,,,,,,,,,,,,,,,,,,6100a7d308e142f9066458c2,610378b7924b4aee458743cc,2021-07-29_21h03.55.938,Simcolourproject_2stim_asymm_v5,2020.2.10,MacIntel,60,61025ae37ef11b136ea224fe,,,,,,,,,622,-47,-97,1,0,0,response5disk,,3,8,6,1,0,0,rectangle,33,89,1,0,0,11,5,1,0,0,1,41,201,122,1,,response1disk_3,TRUE,7,7,"[171,116,158,249,218,106,195,230,133,202,175,16,2,145,106,265,64,212,30,110]",1.211,rectangle
,,,,,,,,,,,,,FF,,,,,,,,1.329,,,,,,,,,,,,,,,,,,,,,,6100a7d308e142f9066458c2,610378b7924b4aee458743cc,2021-07-29_21h03.55.938,Simcolourproject_2stim_asymm_v5,2020.2.10,MacIntel,60,61025ae37ef11b136ea224fe,,,,,,,,,4127,-45,-87,1,0,0,response5disk,,3,-2,-2,1,0,0,rectangle,-2,-2,1,0,0,-2,-2,1,0,0,1,42,202,38,1,,,,,,,,
,,,,,,,,,,,,,FF,,,,,,,,1.058,,,,,,,,,,,,,,,,,,,,,,6100a7d308e142f9066458c2,610378b7924b4aee458743cc,2021-07-29_21h03.55.938,Simcolourproject_2stim_asymm_v5,2020.2.10,MacIntel,60,61025ae37ef11b136ea224fe,,,,,,,,,3504,-70,-55,1,0,0,response5disk,,2,-4,-1,1,0,0,rectangle,-4,-1,1,0,0,-4,-1,1,0,0,1,43,203,8,1,,,,,,,,
,,,,,,,,,,,,,FF,,,,,,,,0.831,,,,,,,,,,,,,,,,,,,,,,6100a7d308e142f9066458c2,610378b7924b4aee458743cc,2021-07-29_21h03.55.938,Simcolourproject_2stim_asymm_v5,2020.2.10,MacIntel,60,61025ae37ef11b136ea224fe,,,,,,,,,725,-70,-43,1,0,0,response5disk,,2,-11,0,1,0,0,rectangle,-11,0,1,0,0,-11,0,1,0,0,1,44,204,113,1,,,,,,,,
,,,,,,,,,,,,,FF,,,,,,,,1.36,,,,,,,,,,,,,,,,,,,,,,6100a7d308e142f9066458c2,610378b7924b4aee458743cc,2021-07-29_21h03.55.938,Simcolourproject_2stim_asymm_v5,2020.2.10,MacIntel,60,61025ae37ef11b136ea224fe,,,,,,,,,627,95,57,1,0,0,response1disk,,6,29,2,1,0,0,rectangle,29,2,1,0,0,29,2,1,0,0,1,45,205,124,1,,,,,,,,
,,,,,,,,,,,,,FF,,,,,,,,1.066,,,,,,,,,,,,,,,,,,,,,,6100a7d308e142f9066458c2,610378b7924b4aee458743cc,2021-07-29_21h03.55.938,Simcolourproject_2stim_asymm_v5,2020.2.10,MacIntel,60,61025ae37ef11b136ea224fe,,,,,,,,,2778,-84,-39,1,0,0,response5disk,,2,0,8,1,0,0,rectangle,0,8,1,0,0,0,8,1,0,0,1,46,206,63,1,,,,,,,,
,,,,,,,,,,,,,FF,,,,,,,,1.176,,,,,,,,,,,,,,,,,,,,,,6100a7d308e142f9066458c2,610378b7924b4aee458743cc,2021-07-29_21h03.55.938,Simcolourproject_2stim_asymm_v5,2020.2.10,MacIntel,60,61025ae37ef11b136ea224fe,,,,,,,,,3841,101,-37,1,0,0,response3disk,,5,23,-16,1,0,0,rectangle,23,-16,1,0,0,23,-16,1,0,0,1,47,207,144,1,,,,,,,,
,,,,,,,,,,,,,FF,,,,,,,,0.839,,,,,,,,,,,,,,,,,,,,,,6100a7d308e142f9066458c2,610378b7924b4aee458743cc,2021-07-29_21h03.55.938,Simcolourproject_2stim_asymm_v5,2020.2.10,MacIntel,60,61025ae37ef11b136ea224fe,,,,,,,,,873,-34,-88,1,0,0,response5disk,,3,1,-7,1,0,0,rectangle,1,-7,1,0,0,1,-7,1,0,0,1,48,208,81,1,,,,,,,,
,,,,,,,,,,,,,FF,,,,,,,,1.033,,,,,,,,,,,,,,,,,,,,,,6100a7d308e142f9066458c2,610378b7924b4aee458743cc,2021-07-29_21h03.55.938,Simcolourproject_2stim_asymm_v5,2020.2.10,MacIntel,60,61025ae37ef11b136ea224fe,,,,,,,,,1407,35,-67,1,0,0,response3disk,,4,14,2,1,0,0,rectangle,14,2,1,0,0,14,2,1,0,0,1,49,209,80,1,,,,,,,,
,,,,,,,,,,,,,FF,,,,,,,,1.043,,,,,,,,,,,,,,,,,,,,,,6100a7d308e142f9066458c2,610378b7924b4aee458743cc,2021-07-29_21h03.55.938,Simcolourproject_2stim_asymm_v5,2020.2.10,MacIntel,60,61025ae37ef11b136ea224fe,,,,,,,,,2090,69,-27,1,0,0,response3disk,,5,14,-2,1,0,0,rectangle,14,-2,1,0,0,14,-2,1,0,0,1,50,210,69,1,,,,,,,,
,,,,,,,,,,,,,FF,,,,,,,,0.91,,,,,,,,,,,,,,,,,,,,,,6100a7d308e142f9066458c2,610378b7924b4aee458743cc,2021-07-29_21h03.55.938,Simcolourproject_2stim_asymm_v5,2020.2.10,MacIntel,60,61025ae37ef11b136ea224fe,,,,,,,,,1333,38,61,1,0,0,response1disk,,7,13,7,1,0,0,rectangle,105,60,1,0,0,-4,4,1,0,0,1,51,211,86,1,,response1disk_3,TRUE,6,6,"[171,116,158,249,218,106,195,230,133,202,175,16,2,145,106,265,64,212,30,110]",1.711,rectangle
,,,,,,,,,,,,,FF,,,,,,,,1.108,,,,,,,,,,,,,,,,,,,,,,6100a7d308e142f9066458c2,610378b7924b4aee458743cc,2021-07-29_21h03.55.938,Simcolourproject_2stim_asymm_v5,2020.2.10,MacIntel,60,61025ae37ef11b136ea224fe,,,,,,,,,3975,93,48,1,0,0,response1disk,,6,9,-1,1,0,0,rectangle,9,-1,1,0,0,9,-1,1,0,0,1,52,212,9,1,,,,,,,,
,,,,,,,,,,,,,FF,,,,,,,,0.864,,,,,,,,,,,,,,,,,,,,,,6100a7d308e142f9066458c2,610378b7924b4aee458743cc,2021-07-29_21h03.55.938,Simcolourproject_2stim_asymm_v5,2020.2.10,MacIntel,60,61025ae37ef11b136ea224fe,,,,,,,,,2664,-66,-39,1,0,0,response5disk,,2,6,-2,1,0,0,rectangle,6,-2,1,0,0,6,-2,1,0,0,1,53,213,108,1,,,,,,,,
,,,,,,,,,,,,,FF,,,,,,,,0.745,,,,,,,,,,,,,,,,,,,,,,6100a7d308e142f9066458c2,610378b7924b4aee458743cc,2021-07-29_21h03.55.938,Simcolourproject_2stim_asymm_v5,2020.2.10,MacIntel,60,61025ae37ef11b136ea224fe,,,,,,,,,4335,-49,87,1,0,0,response7disk,,0,-4,11,1,0,0,rectangle,-4,11,1,0,0,-4,11,1,0,0,1,54,214,48,1,,,,,,,,
,,,,,,,,,,,,,FF,,,,,,,,0.704,,,,,,,,,,,,,,,,,,,,,,6100a7d308e142f9066458c2,610378b7924b4aee458743cc,2021-07-29_21h03.55.938,Simcolourproject_2stim_asymm_v5,2020.2.10,MacIntel,60,61025ae37ef11b136ea224fe,,,,,,,,,1819,-73,37,1,0,0,response7disk,,1,-13,2,1,0,0,rectangle,-13,2,1,0,0,-13,2,1,0,0,1,55,215,88,1,,,,,,,,
,,,,,,,,,,,,,FF,,,,,,,,0.761,,,,,,,,,,,,,,,,,,,,,,6100a7d308e142f9066458c2,610378b7924b4aee458743cc,2021-07-29_21h03.55.938,Simcolourproject_2stim_asymm_v5,2020.2.10,MacIntel,60,61025ae37ef11b136ea224fe,,,,,,,,,1218,-90,29,1,0,0,response7disk,,1,-2,-11,1,0,0,rectangle,-2,-11,1,0,0,-2,-11,1,0,0,1,56,216,49,1,,,,,,,,
,,,,,,,,,,,,,FF,,,,,,,,0.678,,,,,,,,,,,,,,,,,,,,,,6100a7d308e142f9066458c2,610378b7924b4aee458743cc,2021-07-29_21h03.55.938,Simcolourproject_2stim_asymm_v5,2020.2.10,MacIntel,60,61025ae37ef11b136ea224fe,,,,,,,,,1528,-78,45,1,0,0,response7disk,,1,5,4,1,0,0,rectangle,-31,82,1,0,0,-6,0,1,0,0,1,57,217,32,1,,response7disk_3,TRUE,0,0,"[171,116,158,249,218,106,195,230,133,202,175,16,2,145,106,265,64,212,30,110]",1.648,rectangle
,,,,,,,,,,,,,FF,,,,,,,,2.281,,,,,,,,,,,,,,,,,,,,,,6100a7d308e142f9066458c2,610378b7924b4aee458743cc,2021-07-29_21h03.55.938,Simcolourproject_2stim_asymm_v5,2020.2.10,MacIntel,60,61025ae37ef11b136ea224fe,,,,,,,,,1669,26,104,1,0,0,response1disk,,7,9,-6,1,0,0,rectangle,9,-6,1,0,0,9,-6,1,0,0,1,58,218,101,1,,,,,,,,
,,,,,,,,,,,,,FF,,,,,,,,0.783,,,,,,,,,,,,,,,,,,,,,,6100a7d308e142f9066458c2,610378b7924b4aee458743cc,2021-07-29_21h03.55.938,Simcolourproject_2stim_asymm_v5,2020.2.10,MacIntel,60,61025ae37ef11b136ea224fe,,,,,,,,,3629,42,67,1,0,0,response1disk,,7,13,-2,1,0,0,rectangle,13,-2,1,0,0,13,-2,1,0,0,1,59,219,111,1,,,,,,,,
,,,,,,,,,,,,,FF,,,,,,,,0.795,,,,,,,,,,,,,,,,,,,,,,6100a7d308e142f9066458c2,610378b7924b4aee458743cc,2021-07-29_21h03.55.938,Simcolourproject_2stim_asymm_v5,2020.2.10,MacIntel,60,61025ae37ef11b136ea224fe,,,,,,,,,4177,52,80,1,0,0,response1disk,,7,8,3,1,0,0,rectangle,8,3,1,0,0,8,3,1,0,0,1,60,220,10,1,,,,,,,,
,,,,,,,,,,,,,FF,,,,,,,,1.696,,,,,,,,,,,,,,,,,,,,,,6100a7d308e142f9066458c2,610378b7924b4aee458743cc,2021-07-29_21h03.55.938,Simcolourproject_2stim_asymm_v5,2020.2.10,MacIntel,60,61025ae37ef11b136ea224fe,,,,,,,,,189,-71,-42,1,0,0,response5disk,,2,16,1,1,0,0,rectangle,16,1,1,0,0,16,1,1,0,0,1,61,221,22,1,,,,,,,,
,,,,,,,,,,,,,FF,,,,,,,,1.161,,,,,,,,,,,,,,,,,,,,,,6100a7d308e142f9066458c2,610378b7924b4aee458743cc,2021-07-29_21h03.55.938,Simcolourproject_2stim_asymm_v5,2020.2.10,MacIntel,60,61025ae37ef11b136ea224fe,,,,,,,,,1461,-75,64,1,0,0,response7disk,,1,13,4,1,0,0,rectangle,13,4,1,0,0,13,4,1,0,0,1,62,222,120,1,,,,,,,,
,,,,,,,,,,,,,FF,,,,,,,,1.677,,,,,,,,,,,,,,,,,,,,,,6100a7d308e142f9066458c2,610378b7924b4aee458743cc,2021-07-29_21h03.55.938,Simcolourproject_2stim_asymm_v5,2020.2.10,MacIntel,60,61025ae37ef11b136ea224fe,,,,,,,,,2399,71,-52,1,0,0,response3disk,,5,-3,-8,1,0,0,rectangle,-3,-8,1,0,0,-3,-8,1,0,0,1,63,223,136,1,,,,,,,,
,,,,,,,,,,,,,FF,,,,,,,,1.301,,,,,,,,,,,,,,,,,,,,,,6100a7d308e142f9066458c2,610378b7924b4aee458743cc,2021-07-29_21h03.55.938,Simcolourproject_2stim_asymm_v5,2020.2.10,MacIntel,60,61025ae37ef11b136ea224fe,,,,,,,,,990,39,-81,1,0,0,response3disk,,4,8,-4,1,0,0,rectangle,8,-4,1,0,0,8,-4,1,0,0,1,64,224,24,1,,,,,,,,
,,,,,,,,,,,,,FF,,,,,,,,1.248,,,,,,,,,,,,,,,,,,,,,,6100a7d308e142f9066458c2,610378b7924b4aee458743cc,2021-07-29_21h03.55.938,Simcolourproject_2stim_asymm_v5,2020.2.10,MacIntel,60,61025ae37ef11b136ea224fe,,,,,,,,,1294,-33,-81,1,0,0,response5disk,,3,-4,-5,1,0,0,rectangle,-4,-5,1,0,0,-4,-5,1,0,0,1,65,225,89,1,,,,,,,,
,,,,,,,,,,,,,FF,,,,,,,,0.886,,,,,,,,,,,,,,,,,,,,,,6100a7d308e142f9066458c2,610378b7924b4aee458743cc,2021-07-29_21h03.55.938,Simcolourproject_2stim_asymm_v5,2020.2.10,MacIntel,60,61025ae37ef11b136ea224fe,,,,,,,,,2975,41,72,1,0,0,response1disk,,7,10,3,1,0,0,rectangle,10,3,1,0,0,10,3,1,0,0,1,66,226,143,1,,,,,,,,
,,,,,,,,,,,,,FF,,,,,,,,1.106,,,,,,,,,,,,,,,,,,,,,,6100a7d308e142f9066458c2,610378b7924b4aee458743cc,2021-07-29_21h03.55.938,Simcolourproject_2stim_asymm_v5,2020.2.10,MacIntel,60,61025ae37ef11b136ea224fe,,,,,,,,,2823,-40,-88,1,0,0,response5disk,,3,12,-2,1,0,0,rectangle,12,-2,1,0,0,12,-2,1,0,0,1,67,227,107,1,,,,,,,,
,,,,,,,,,,,,,FF,,,,,,,,0.894,,,,,,,,,,,,,,,,,,,,,,6100a7d308e142f9066458c2,610378b7924b4aee458743cc,2021-07-29_21h03.55.938,Simcolourproject_2stim_asymm_v5,2020.2.10,MacIntel,60,61025ae37ef11b136ea224fe,,,,,,,,,2414,47,-70,1,0,0,response3disk,,4,5,-13,1,0,0,rectangle,5,-13,1,0,0,5,-13,1,0,0,1,68,228,109,1,,,,,,,,
,,,,,,,,,,,,,FF,,,,,,,,0.76,,,,,,,,,,,,,,,,,,,,,,6100a7d308e142f9066458c2,610378b7924b4aee458743cc,2021-07-29_21h03.55.938,Simcolourproject_2stim_asymm_v5,2020.2.10,MacIntel,60,61025ae37ef11b136ea224fe,,,,,,,,,1437,49,-76,1,0,0,response3disk,,4,-8,-12,1,0,0,rectangle,-35,-100,1,0,0,-4,-9,1,0,0,1,69,229,126,1,,response5disk_3,TRUE,3,3,"[171,116,158,249,218,106,195,230,133,202,175,16,2,145,106,265,64,212,30,110]",1.495,rectangle
,,,,,,,,,,,,,FF,,,,,,,,0.946,,,,,,,,,,,,,,,,,,,,,,6100a7d308e142f9066458c2,610378b7924b4aee458743cc,2021-07-29_21h03.55.938,Simcolourproject_2stim_asymm_v5,2020.2.10,MacIntel,60,61025ae37ef11b136ea224fe,,,,,,,,,3282,-71,31,1,0,0,response7disk,,1,-3,0,1,0,0,rectangle,-3,0,1,0,0,-3,0,1,0,0,1,70,230,72,1,,,,,,,,
,,,,,,,,,,,,,FF,,,,,,,,0.833,,,,,,,,,,,,,,,,,,,,,,6100a7d308e142f9066458c2,610378b7924b4aee458743cc,2021-07-29_21h03.55.938,Simcolourproject_2stim_asymm_v5,2020.2.10,MacIntel,60,61025ae37ef11b136ea224fe,,,,,,,,,1970,-71,-29,1,0,0,response5disk,,2,-17,0,1,0,0,rectangle,-17,0,1,0,0,-17,0,1,0,0,1,71,231,79,1,,,,,,,,
,,,,,,,,,,,,,FF,,,,,,,,0.968,,,,,,,,,,,,,,,,,,,,,,6100a7d308e142f9066458c2,610378b7924b4aee458743cc,2021-07-29_21h03.55.938,Simcolourproject_2stim_asymm_v5,2020.2.10,MacIntel,60,61025ae37ef11b136ea224fe,,,,,,,,,2372,-38,-67,1,0,0,response5disk,,3,-11,-7,1,0,0,rectangle,-11,-7,1,0,0,-11,-7,1,0,0,1,72,232,43,1,,,,,,,,
,,,,,,,,,,,,,FF,,,,,,,,0.877,,,,,,,,,,,,,,,,,,,,,,6100a7d308e142f9066458c2,610378b7924b4aee458743cc,2021-07-29_21h03.55.938,Simcolourproject_2stim_asymm_v5,2020.2.10,MacIntel,60,61025ae37ef11b136ea224fe,,,,,,,,,4344,-33,89,1,0,0,response7disk,,0,-12,9,1,0,0,rectangle,-12,9,1,0,0,-12,9,1,0,0,1,73,233,159,1,,,,,,,,
,,,,,,,,,,,,,FF,,,,,,,,1.218,,,,,,,,,,,,,,,,,,,,,,6100a7d308e142f9066458c2,610378b7924b4aee458743cc,2021-07-29_21h03.55.938,Simcolourproject_2stim_asymm_v5,2020.2.10,MacIntel,60,61025ae37ef11b136ea224fe,,,,,,,,,1422,-41,-91,1,0,0,response5disk,,3,-3,-4,1,0,0,rectangle,-3,-4,1,0,0,-3,-4,1,0,0,1,74,234,93,1,,,,,,,,
,,,,,,,,,,,,,FF,,,,,,,,1.025,,,,,,,,,,,,,,,,,,,,,,6100a7d308e142f9066458c2,610378b7924b4aee458743cc,2021-07-29_21h03.55.938,Simcolourproject_2stim_asymm_v5,2020.2.10,MacIntel,60,61025ae37ef11b136ea224fe,,,,,,,,,2353,37,86,1,0,0,response1disk,,7,-1,-9,1,0,0,rectangle,-1,-9,1,0,0,-1,-9,1,0,0,1,75,235,30,1,,,,,,,,
,,,,,,,,,,,,,FF,,,,,,,,1.079,,,,,,,,,,,,,,,,,,,,,,6100a7d308e142f9066458c2,610378b7924b4aee458743cc,2021-07-29_21h03.55.938,Simcolourproject_2stim_asymm_v5,2020.2.10,MacIntel,60,61025ae37ef11b136ea224fe,,,,,,,,,1300,-79,-38,1,0,0,response5disk,,2,-4,-6,1,0,0,rectangle,-4,-6,1,0,0,-4,-6,1,0,0,1,76,236,92,1,,,,,,,,
,,,,,,,,,,,,,FF,,,,,,,,1.004,,,,,,,,,,,,,,,,,,,,,,6100a7d308e142f9066458c2,610378b7924b4aee458743cc,2021-07-29_21h03.55.938,Simcolourproject_2stim_asymm_v5,2020.2.10,MacIntel,60,61025ae37ef11b136ea224fe,,,,,,,,,662,42,78,1,0,0,response1disk,,7,7,8,1,0,0,rectangle,7,8,1,0,0,7,8,1,0,0,1,77,237,27,1,,,,,,,,
,,,,,,,,,,,,,FF,,,,,,,,0.737,,,,,,,,,,,,,,,,,,,,,,6100a7d308e142f9066458c2,610378b7924b4aee458743cc,2021-07-29_21h03.55.938,Simcolourproject_2stim_asymm_v5,2020.2.10,MacIntel,60,61025ae37ef11b136ea224fe,,,,,,,,,4137,47,83,1,0,0,response1disk,,7,2,2,1,0,0,rectangle,2,2,1,0,0,2,2,1,0,0,1,78,238,150,1,,,,,,,,
,,,,,,,,,,,,,FF,,,,,,,,1.066,,,,,,,,,,,,,,,,,,,,,,6100a7d308e142f9066458c2,610378b7924b4aee458743cc,2021-07-29_21h03.55.938,Simcolourproject_2stim_asymm_v5,2020.2.10,MacIntel,60,61025ae37ef11b136ea224fe,,,,,,,,,2715,-74,35,1,0,0,response7disk,,1,-7,6,1,0,0,rectangle,-7,6,1,0,0,-7,6,1,0,0,1,79,239,15,1,,,,,,,,
,,,,,,,,,,,,,FF,,,,,,,,0.751,,,,,,,,,,,,,,,,,,,,,,6100a7d308e142f9066458c2,610378b7924b4aee458743cc,2021-07-29_21h03.55.938,Simcolourproject_2stim_asymm_v5,2020.2.10,MacIntel,60,61025ae37ef11b136ea224fe,,,,,,,,,4261,55,94,1,0,0,response1disk,,7,-6,-9,1,0,0,rectangle,-6,-9,1,0,0,-6,-9,1,0,0,1,80,240,19,1,,,,,,,,
,,,,,,,,,,,,,FF,,,,,,,,0.933,,,,,,,,,,,,,,,,,,,,,,6100a7d308e142f9066458c2,610378b7924b4aee458743cc,2021-07-29_21h03.55.938,Simcolourproject_2stim_asymm_v5,2020.2.10,MacIntel,60,61025ae37ef11b136ea224fe,,,,,,,,,2804,45,75,1,0,0,response1disk,,7,3,1,1,0,0,rectangle,3,1,1,0,0,3,1,1,0,0,1,81,241,0,1,,,,,,,,
,,,,,,,,,,,,,FF,,,,,,,,0.711,,,,,,,,,,,,,,,,,,,,,,6100a7d308e142f9066458c2,610378b7924b4aee458743cc,2021-07-29_21h03.55.938,Simcolourproject_2stim_asymm_v5,2020.2.10,MacIntel,60,61025ae37ef11b136ea224fe,,,,,,,,,2558,57,96,1,0,0,response1disk,,7,11,7,1,0,0,rectangle,11,7,1,0,0,11,7,1,0,0,1,82,242,26,1,,,,,,,,
,,,,,,,,,,,,,FF,,,,,,,,1.15,,,,,,,,,,,,,,,,,,,,,,6100a7d308e142f9066458c2,610378b7924b4aee458743cc,2021-07-29_21h03.55.938,Simcolourproject_2stim_asymm_v5,2020.2.10,MacIntel,60,61025ae37ef11b136ea224fe,,,,,,,,,4248,78,-56,1,0,0,response3disk,,5,9,-4,1,0,0,rectangle,9,-4,1,0,0,9,-4,1,0,0,1,83,243,145,1,,,,,,,,
,,,,,,,,,,,,,FF,,,,,,,,0.772,,,,,,,,,,,,,,,,,,,,,,6100a7d308e142f9066458c2,610378b7924b4aee458743cc,2021-07-29_21h03.55.938,Simcolourproject_2stim_asymm_v5,2020.2.10,MacIntel,60,61025ae37ef11b136ea224fe,,,,,,,,,3348,51,99,1,0,0,response1disk,,7,-8,3,1,0,0,rectangle,-8,3,1,0,0,-8,3,1,0,0,1,84,244,4,1,,,,,,,,
,,,,,,,,,,,,,FF,,,,,,,,1.083,,,,,,,,,,,,,,,,,,,,,,6100a7d308e142f9066458c2,610378b7924b4aee458743cc,2021-07-29_21h03.55.938,Simcolourproject_2stim_asymm_v5,2020.2.10,MacIntel,60,61025ae37ef11b136ea224fe,,,,,,,,,1224,28,-98,1,0,0,response3disk,,4,18,4,1,0,0,rectangle,18,4,1,0,0,18,4,1,0,0,1,85,245,75,1,,,,,,,,
,,,,,,,,,,,,,FF,,,,,,,,1.26,,,,,,,,,,,,,,,,,,,,,,6100a7d308e142f9066458c2,610378b7924b4aee458743cc,2021-07-29_21h03.55.938,Simcolourproject_2stim_asymm_v5,2020.2.10,MacIntel,60,61025ae37ef11b136ea224fe,,,,,,,,,2152,45,-84,1,0,0,response3disk,,4,-9,11,1,0,0,rectangle,-9,11,1,0,0,-9,11,1,0,0,1,86,246,102,1,,,,,,,,
,,,,,,,,,,,,,FF,,,,,,,,0.821,,,,,,,,,,,,,,,,,,,,,,6100a7d308e142f9066458c2,610378b7924b4aee458743cc,2021-07-29_21h03.55.938,Simcolourproject_2stim_asymm_v5,2020.2.10,MacIntel,60,61025ae37ef11b136ea224fe,,,,,,,,,2471,62,93,1,0,0,response1disk,,7,-2,-6,1,0,0,rectangle,-2,-6,1,0,0,-2,-6,1,0,0,1,87,247,16,1,,,,,,,,
,,,,,,,,,,,,,FF,,,,,,,,0.977,,,,,,,,,,,,,,,,,,,,,,6100a7d308e142f9066458c2,610378b7924b4aee458743cc,2021-07-29_21h03.55.938,Simcolourproject_2stim_asymm_v5,2020.2.10,MacIntel,60,61025ae37ef11b136ea224fe,,,,,,,,,33,35,57,1,0,0,response1disk,,7,5,4,1,0,0,rectangle,87,56,1,0,0,5,3,1,0,0,1,88,248,76,1,,response1disk_3,TRUE,6,6,"[171,116,158,249,218,106,195,230,133,202,175,16,2,145,106,265,64,212,30,110]",1.599,rectangle
,,,,,,,,,,,,,FF,,,,,,,,0.997,,,,,,,,,,,,,,,,,,,,,,6100a7d308e142f9066458c2,610378b7924b4aee458743cc,2021-07-29_21h03.55.938,Simcolourproject_2stim_asymm_v5,2020.2.10,MacIntel,60,61025ae37ef11b136ea224fe,,,,,,,,,3029,38,64,1,0,0,response1disk,,7,15,11,1,0,0,rectangle,15,11,1,0,0,15,11,1,0,0,1,89,249,95,1,,,,,,,,
,,,,,,,,,,,,,FF,,,,,,,,0.94,,,,,,,,,,,,,,,,,,,,,,6100a7d308e142f9066458c2,610378b7924b4aee458743cc,2021-07-29_21h03.55.938,Simcolourproject_2stim_asymm_v5,2020.2.10,MacIntel,60,61025ae37ef11b136ea224fe,,,,,,,,,4039,30,-79,1,0,0,response3disk,,4,14,0,1,0,0,rectangle,14,0,1,0,0,14,0,1,0,0,1,90,250,129,1,,,,,,,,
,,,,,,,,,,,,,FF,,,,,,,,1.073,,,,,,,,,,,,,,,,,,,,,,6100a7d308e142f9066458c2,610378b7924b4aee458743cc,2021-07-29_21h03.55.938,Simcolourproject_2stim_asymm_v5,2020.2.10,MacIntel,60,61025ae37ef11b136ea224fe,,,,,,,,,4227,-38,-91,1,0,0,response5disk,,3,9,16,1,0,0,rectangle,9,16,1,0,0,9,16,1,0,0,1,91,251,3,1,,,,,,,,
,,,,,,,,,,,,,FF,,,,,,,,1.042,,,,,,,,,,,,,,,,,,,,,,6100a7d308e142f9066458c2,610378b7924b4aee458743cc,2021-07-29_21h03.55.938,Simcolourproject_2stim_asymm_v5,2020.2.10,MacIntel,60,61025ae37ef11b136ea224fe,,,,,,,,,2688,81,-50,1,0,0,response3disk,,5,-4,6,1,0,0,rectangle,-4,6,1,0,0,-4,6,1,0,0,1,92,252,142,1,,,,,,,,
,,,,,,,,,,,,,FF,,,,,,,,1.188,,,,,,,,,,,,,,,,,,,,,,6100a7d308e142f9066458c2,610378b7924b4aee458743cc,2021-07-29_21h03.55.938,Simcolourproject_2stim_asymm_v5,2020.2.10,MacIntel,60,61025ae37ef11b136ea224fe,,,,,,,,,1188,74,-41,1,0,0,response3disk,,5,7,16,1,0,0,rectangle,7,16,1,0,0,7,16,1,0,0,1,93,253,46,1,,,,,,,,
,,,,,,,,,,,,,FF,,,,,,,,0.813,,,,,,,,,,,,,,,,,,,,,,6100a7d308e142f9066458c2,610378b7924b4aee458743cc,2021-07-29_21h03.55.938,Simcolourproject_2stim_asymm_v5,2020.2.10,MacIntel,60,61025ae37ef11b136ea224fe,,,,,,,,,1492,40,64,1,0,0,response1disk,,7,-4,1,1,0,0,rectangle,-4,1,1,0,0,-4,1,1,0,0,1,94,254,1,1,,,,,,,,
,,,,,,,,,,,,,FF,,,,,,,,1.147,,,,,,,,,,,,,,,,,,,,,,6100a7d308e142f9066458c2,610378b7924b4aee458743cc,2021-07-29_21h03.55.938,Simcolourproject_2stim_asymm_v5,2020.2.10,MacIntel,60,61025ae37ef11b136ea224fe,,,,,,,,,4206,-75,-46,1,0,0,response5disk,,2,-16,-5,1,0,0,rectangle,-16,-5,1,0,0,-16,-5,1,0,0,1,95,255,17,1,,,,,,,,
,,,,,,,,,,,,,FF,,,,,,,,1.427,,,,,,,,,,,,,,,,,,,,,,6100a7d308e142f9066458c2,610378b7924b4aee458743cc,2021-07-29_21h03.55.938,Simcolourproject_2stim_asymm_v5,2020.2.10,MacIntel,60,61025ae37ef11b136ea224fe,,,,,,,,,4311,60,77,1,0,0,response1disk,,7,12,17,1,0,0,rectangle,12,17,1,0,0,12,17,1,0,0,1,96,256,152,1,,,,,,,,
,,,,,,,,,,,,,FF,,,,,,,,1.12,,,,,,,,,,,,,,,,,,,,,,6100a7d308e142f9066458c2,610378b7924b4aee458743cc,2021-07-29_21h03.55.938,Simcolourproject_2stim_asymm_v5,2020.2.10,MacIntel,60,61025ae37ef11b136ea224fe,,,,,,,,,1147,88,51,1,0,0,response1disk,,6,-2,-7,1,0,0,rectangle,-2,-7,1,0,0,-2,-7,1,0,0,1,97,257,71,1,,,,,,,,
,,,,,,,,,,,,,FF,,,,,,,,0.792,,,,,,,,,,,,,,,,,,,,,,6100a7d308e142f9066458c2,610378b7924b4aee458743cc,2021-07-29_21h03.55.938,Simcolourproject_2stim_asymm_v5,2020.2.10,MacIntel,60,61025ae37ef11b136ea224fe,,,,,,,,,2377,54,69,1,0,0,response1disk,,7,20,16,1,0,0,rectangle,20,16,1,0,0,20,16,1,0,0,1,98,258,147,1,,,,,,,,
,,,,,,,,,,,,,FF,,,,,,,,0.765,,,,,,,,,,,,,,,,,,,,,,6100a7d308e142f9066458c2,610378b7924b4aee458743cc,2021-07-29_21h03.55.938,Simcolourproject_2stim_asymm_v5,2020.2.10,MacIntel,60,61025ae37ef11b136ea224fe,,,,,,,,,3759,36,65,1,0,0,response1disk,,7,-10,-6,1,0,0,rectangle,-10,-6,1,0,0,-10,-6,1,0,0,1,99,259,78,1,,,,,,,,
,,,,,,,,,,,,,FF,,,,,,,,1.18,,,,,,,,,,,,,,,,,,,,,,6100a7d308e142f9066458c2,610378b7924b4aee458743cc,2021-07-29_21h03.55.938,Simcolourproject_2stim_asymm_v5,2020.2.10,MacIntel,60,61025ae37ef11b136ea224fe,,,,,,,,,688,108,43,1,0,0,response1disk,,6,13,-8,1,0,0,rectangle,13,-8,1,0,0,13,-8,1,0,0,1,100,260,96,1,,,,,,,,
,,,,,,,,,,,,,FF,,,,,,,,0.635,,,,,,,,,,,,,,,,,,,,,,6100a7d308e142f9066458c2,610378b7924b4aee458743cc,2021-07-29_21h03.55.938,Simcolourproject_2stim_asymm_v5,2020.2.10,MacIntel,60,61025ae37ef11b136ea224fe,,,,,,,,,2225,36,62,1,0,0,response1disk,,7,2,-11,1,0,0,rectangle,2,-11,1,0,0,2,-11,1,0,0,1,101,261,20,1,,,,,,,,
,,,,,,,,,,,,,FF,,,,,,,,1.36,,,,,,,,,,,,,,,,,,,,,,6100a7d308e142f9066458c2,610378b7924b4aee458743cc,2021-07-29_21h03.55.938,Simcolourproject_2stim_asymm_v5,2020.2.10,MacIntel,60,61025ae37ef11b136ea224fe,,,,,,,,,2618,70,-23,1,0,0,response3disk,,5,20,1,1,0,0,rectangle,20,1,1,0,0,20,1,1,0,0,1,102,262,139,1,,,,,,,,
,,,,,,,,,,,,,FF,,,,,,,,0.839,,,,,,,,,,,,,,,,,,,,,,6100a7d308e142f9066458c2,610378b7924b4aee458743cc,2021-07-29_21h03.55.938,Simcolourproject_2stim_asymm_v5,2020.2.10,MacIntel,60,61025ae37ef11b136ea224fe,,,,,,,,,2796,70,-55,1,0,0,response3disk,,5,4,-1,1,0,0,rectangle,4,-1,1,0,0,4,-1,1,0,0,1,103,263,128,1,,,,,,,,
,,,,,,,,,,,,,FF,,,,,,,,0.75,,,,,,,,,,,,,,,,,,,,,,6100a7d308e142f9066458c2,610378b7924b4aee458743cc,2021-07-29_21h03.55.938,Simcolourproject_2stim_asymm_v5,2020.2.10,MacIntel,60,61025ae37ef11b136ea224fe,,,,,,,,,215,69,-49,1,0,0,response3disk,,5,5,-4,1,0,0,rectangle,-81,-35,1,0,0,-18,-3,1,0,0,1,104,264,131,1,,response5disk_3,TRUE,2,2,"[171,116,158,249,218,106,195,230,133,202,175,16,2,145,106,265,64,212,30,110]",1.59,rectangle
,,,,,,,,,,,,,FF,,,,,,,,0.936,,,,,,,,,,,,,,,,,,,,,,6100a7d308e142f9066458c2,610378b7924b4aee458743cc,2021-07-29_21h03.55.938,Simcolourproject_2stim_asymm_v5,2020.2.10,MacIntel,60,61025ae37ef11b136ea224fe,,,,,,,,,1859,39,61,1,0,0,response1disk,,7,11,13,1,0,0,rectangle,11,13,1,0,0,11,13,1,0,0,1,105,265,56,1,,,,,,,,
,,,,,,,,,,,,,FF,,,,,,,,1.116,,,,,,,,,,,,,,,,,,,,,,6100a7d308e142f9066458c2,610378b7924b4aee458743cc,2021-07-29_21h03.55.938,Simcolourproject_2stim_asymm_v5,2020.2.10,MacIntel,60,61025ae37ef11b136ea224fe,,,,,,,,,1003,92,-39,1,0,0,response3disk,,5,-6,-3,1,0,0,rectangle,-6,-3,1,0,0,-6,-3,1,0,0,1,106,266,59,1,,,,,,,,
,,,,,,,,,,,,,FF,,,,,,,,0.83,,,,,,,,,,,,,,,,,,,,,,6100a7d308e142f9066458c2,610378b7924b4aee458743cc,2021-07-29_21h03.55.938,Simcolourproject_2stim_asymm_v5,2020.2.10,MacIntel,60,61025ae37ef11b136ea224fe,,,,,,,,,1977,33,65,1,0,0,response1disk,,7,-3,9,1,0,0,rectangle,-3,9,1,0,0,-3,9,1,0,0,1,107,267,64,1,,,,,,,,
,,,,,,,,,,,,,FF,,,,,,,,1.022,,,,,,,,,,,,,,,,,,,,,,6100a7d308e142f9066458c2,610378b7924b4aee458743cc,2021-07-29_21h03.55.938,Simcolourproject_2stim_asymm_v5,2020.2.10,MacIntel,60,61025ae37ef11b136ea224fe,,,,,,,,,3391,-85,-41,1,0,0,response5disk,,2,-14,-10,1,0,0,rectangle,-14,-10,1,0,0,-14,-10,1,0,0,1,108,268,85,1,,,,,,,,
,,,,,,,,,,,,,FF,,,,,,,,0.872,,,,,,,,,,,,,,,,,,,,,,6100a7d308e142f9066458c2,610378b7924b4aee458743cc,2021-07-29_21h03.55.938,Simcolourproject_2stim_asymm_v5,2020.2.10,MacIntel,60,61025ae37ef11b136ea224fe,,,,,,,,,564,-89,-51,1,0,0,response5disk,,2,7,0,1,0,0,rectangle,7,0,1,0,0,7,0,1,0,0,1,109,269,153,1,,,,,,,,
,,,,,,,,,,,,,FF,,,,,,,,0.675,,,,,,,,,,,,,,,,,,,,,,6100a7d308e142f9066458c2,610378b7924b4aee458743cc,2021-07-29_21h03.55.938,Simcolourproject_2stim_asymm_v5,2020.2.10,MacIntel,60,61025ae37ef11b136ea224fe,,,,,,,,,1899,-107,-44,1,0,0,response5disk,,2,-8,-1,1,0,0,rectangle,-8,-1,1,0,0,-8,-1,1,0,0,1,110,270,53,1,,,,,,,,
,,,,,,,,,,,,,FF,,,,,,,,0.794,,,,,,,,,,,,,,,,,,,,,,6100a7d308e142f9066458c2,610378b7924b4aee458743cc,2021-07-29_21h03.55.938,Simcolourproject_2stim_asymm_v5,2020.2.10,MacIntel,60,61025ae37ef11b136ea224fe,,,,,,,,,3668,-50,86,1,0,0,response7disk,,0,-25,-3,1,0,0,rectangle,-25,-3,1,0,0,-25,-3,1,0,0,1,111,271,58,1,,,,,,,,
,,,,,,,,,,,,,FF,,,,,,,,1.201,,,,,,,,,,,,,,,,,,,,,,6100a7d308e142f9066458c2,610378b7924b4aee458743cc,2021-07-29_21h03.55.938,Simcolourproject_2stim_asymm_v5,2020.2.10,MacIntel,60,61025ae37ef11b136ea224fe,,,,,,,,,598,94,56,1,0,0,response1disk,,6,18,8,1,0,0,rectangle,18,8,1,0,0,18,8,1,0,0,1,112,272,154,1,,,,,,,,
,,,,,,,,,,,,,FF,,,,,,,,0.998,,,,,,,,,,,,,,,,,,,,,,6100a7d308e142f9066458c2,610378b7924b4aee458743cc,2021-07-29_21h03.55.938,Simcolourproject_2stim_asymm_v5,2020.2.10,MacIntel,60,61025ae37ef11b136ea224fe,,,,,,,,,2784,-81,-47,1,0,0,response5disk,,2,3,-17,1,0,0,rectangle,3,-17,1,0,0,3,-17,1,0,0,1,113,273,94,1,,,,,,,,
,,,,,,,,,,,,,FF,,,,,,,,1.092,,,,,,,,,,,,,,,,,,,,,,6100a7d308e142f9066458c2,610378b7924b4aee458743cc,2021-07-29_21h03.55.938,Simcolourproject_2stim_asymm_v5,2020.2.10,MacIntel,60,61025ae37ef11b136ea224fe,,,,,,,,,2869,50,66,1,0,0,response1disk,,7,10,2,1,0,0,rectangle,10,2,1,0,0,10,2,1,0,0,1,114,274,41,1,,,,,,,,
,,,,,,,,,,,,,FF,,,,,,,,1.213,,,,,,,,,,,,,,,,,,,,,,6100a7d308e142f9066458c2,610378b7924b4aee458743cc,2021-07-29_21h03.55.938,Simcolourproject_2stim_asymm_v5,2020.2.10,MacIntel,60,61025ae37ef11b136ea224fe,,,,,,,,,4301,-52,-84,1,0,0,response5disk,,3,15,5,1,0,0,rectangle,15,5,1,0,0,15,5,1,0,0,1,115,275,36,1,,,,,,,,
,,,,,,,,,,,,,FF,,,,,,,,0.668,,,,,,,,,,,,,,,,,,,,,,6100a7d308e142f9066458c2,610378b7924b4aee458743cc,2021-07-29_21h03.55.938,Simcolourproject_2stim_asymm_v5,2020.2.10,MacIntel,60,61025ae37ef11b136ea224fe,,,,,,,,,2955,-50,-80,1,0,0,response5disk,,3,-4,6,1,0,0,rectangle,-4,6,1,0,0,-4,6,1,0,0,1,116,276,123,1,,,,,,,,
,,,,,,,,,,,,,FF,,,,,,,,0.704,,,,,,,,,,,,,,,,,,,,,,6100a7d308e142f9066458c2,610378b7924b4aee458743cc,2021-07-29_21h03.55.938,Simcolourproject_2stim_asymm_v5,2020.2.10,MacIntel,60,61025ae37ef11b136ea224fe,,,,,,,,,631,-84,-38,1,0,0,response5disk,,2,-12,10,1,0,0,rectangle,-12,10,1,0,0,-12,10,1,0,0,1,117,277,70,1,,,,,,,,
,,,,,,,,,,,,,FF,,,,,,,,0.988,,,,,,,,,,,,,,,,,,,,,,6100a7d308e142f9066458c2,610378b7924b4aee458743cc,2021-07-29_21h03.55.938,Simcolourproject_2stim_asymm_v5,2020.2.10,MacIntel,60,61025ae37ef11b136ea224fe,,,,,,,,,379,40,76,1,0,0,response1disk,,7,2,1,1,0,0,rectangle,2,1,1,0,0,2,1,1,0,0,1,118,278,117,1,,,,,,,,
,,,,,,,,,,,,,FF,,,,,,,,0.738,,,,,,,,,,,,,,,,,,,,,,6100a7d308e142f9066458c2,610378b7924b4aee458743cc,2021-07-29_21h03.55.938,Simcolourproject_2stim_asymm_v5,2020.2.10,MacIntel,60,61025ae37ef11b136ea224fe,,,,,,,,,1184,35,94,1,0,0,response1disk,,7,-1,-11,1,0,0,rectangle,-1,-11,1,0,0,-1,-11,1,0,0,1,119,279,44,1,,,,,,,,
,,,,,,,,,,,,,FF,,,,,,,,0.945,,,,,,,,,,,,,,,,,,,,,,6100a7d308e142f9066458c2,610378b7924b4aee458743cc,2021-07-29_21h03.55.938,Simcolourproject_2stim_asymm_v5,2020.2.10,MacIntel,60,61025ae37ef11b136ea224fe,,,,,,,,,529,-88,-40,1,0,0,response5disk,,2,-18,2,1,0,0,rectangle,-18,2,1,0,0,-18,2,1,0,0,1,120,280,97,1,,,,,,,,
,,,,,,,,,,,,,FF,,,,,,,,0.704,,,,,,,,,,,,,,,,,,,,,,6100a7d308e142f9066458c2,610378b7924b4aee458743cc,2021-07-29_21h03.55.938,Simcolourproject_2stim_asymm_v5,2020.2.10,MacIntel,60,61025ae37ef11b136ea224fe,,,,,,,,,1825,-74,-34,1,0,0,response5disk,,2,3,14,1,0,0,rectangle,3,14,1,0,0,3,14,1,0,0,1,121,281,34,1,,,,,,,,
,,,,,,,,,,,,,FF,,,,,,,,0.735,,,,,,,,,,,,,,,,,,,,,,6100a7d308e142f9066458c2,610378b7924b4aee458743cc,2021-07-29_21h03.55.938,Simcolourproject_2stim_asymm_v5,2020.2.10,MacIntel,60,61025ae37ef11b136ea224fe,,,,,,,,,1701,45,99,1,0,0,response1disk,,7,-5,6,1,0,0,rectangle,-5,6,1,0,0,-5,6,1,0,0,1,122,282,82,1,,,,,,,,
,,,,,,,,,,,,,FF,,,,,,,,0.893,,,,,,,,,,,,,,,,,,,,,,6100a7d308e142f9066458c2,610378b7924b4aee458743cc,2021-07-29_21h03.55.938,Simcolourproject_2stim_asymm_v5,2020.2.10,MacIntel,60,61025ae37ef11b136ea224fe,,,,,,,,,244,70,52,1,0,0,response1disk,,6,11,12,1,0,0,rectangle,11,12,1,0,0,11,12,1,0,0,1,123,283,60,1,,,,,,,,
,,,,,,,,,,,,,FF,,,,,,,,0.631,,,,,,,,,,,,,,,,,,,,,,6100a7d308e142f9066458c2,610378b7924b4aee458743cc,2021-07-29_21h03.55.938,Simcolourproject_2stim_asymm_v5,2020.2.10,MacIntel,60,61025ae37ef11b136ea224fe,,,,,,,,,3223,50,68,1,0,0,response1disk,,7,-1,-9,1,0,0,rectangle,-1,-9,1,0,0,-1,-9,1,0,0,1,124,284,133,1,,,,,,,,
,,,,,,,,,,,,,FF,,,,,,,,1.076,,,,,,,,,,,,,,,,,,,,,,6100a7d308e142f9066458c2,610378b7924b4aee458743cc,2021-07-29_21h03.55.938,Simcolourproject_2stim_asymm_v5,2020.2.10,MacIntel,60,61025ae37ef11b136ea224fe,,,,,,,,,3725,102,48,1,0,0,response1disk,,6,4,2,1,0,0,rectangle,4,2,1,0,0,4,2,1,0,0,1,125,285,5,1,,,,,,,,
,,,,,,,,,,,,,FF,,,,,,,,1.382,,,,,,,,,,,,,,,,,,,,,,6100a7d308e142f9066458c2,610378b7924b4aee458743cc,2021-07-29_21h03.55.938,Simcolourproject_2stim_asymm_v5,2020.2.10,MacIntel,60,61025ae37ef11b136ea224fe,,,,,,,,,2151,87,-33,1,0,0,response3disk,,5,2,5,1,0,0,rectangle,2,5,1,0,0,2,5,1,0,0,1,126,286,137,1,,,,,,,,
,,,,,,,,,,,,,FF,,,,,,,,1.073,,,,,,,,,,,,,,,,,,,,,,6100a7d308e142f9066458c2,610378b7924b4aee458743cc,2021-07-29_21h03.55.938,Simcolourproject_2stim_asymm_v5,2020.2.10,MacIntel,60,61025ae37ef11b136ea224fe,,,,,,,,,1606,49,-81,1,0,0,response3disk,,4,1,10,1,0,0,rectangle,1,10,1,0,0,1,10,1,0,0,1,127,287,114,1,,,,,,,,
,,,,,,,,,,,,,FF,,,,,,,,0.813,,,,,,,,,,,,,,,,,,,,,,6100a7d308e142f9066458c2,610378b7924b4aee458743cc,2021-07-29_21h03.55.938,Simcolourproject_2stim_asymm_v5,2020.2.10,MacIntel,60,61025ae37ef11b136ea224fe,,,,,,,,,3242,43,79,1,0,0,response1disk,,7,2,6,1,0,0,rectangle,2,6,1,0,0,2,6,1,0,0,1,128,288,118,1,,,,,,,,
,,,,,,,,,,,,,FF,,,,,,,,0.884,,,,,,,,,,,,,,,,,,,,,,6100a7d308e142f9066458c2,610378b7924b4aee458743cc,2021-07-29_21h03.55.938,Simcolourproject_2stim_asymm_v5,2020.2.10,MacIntel,60,61025ae37ef11b136ea224fe,,,,,,,,,736,-34,-73,1,0,0,response5disk,,3,-9,-10,1,0,0,rectangle,-9,-10,1,0,0,-9,-10,1,0,0,1,129,289,87,1,,,,,,,,
,,,,,,,,,,,,,FF,,,,,,,,0.723,,,,,,,,,,,,,,,,,,,,,,6100a7d308e142f9066458c2,610378b7924b4aee458743cc,2021-07-29_21h03.55.938,Simcolourproject_2stim_asymm_v5,2020.2.10,MacIntel,60,61025ae37ef11b136ea224fe,,,,,,,,,2205,67,103,1,0,0,response1disk,,7,-3,7,1,0,0,rectangle,-3,7,1,0,0,-3,7,1,0,0,1,130,290,155,1,,,,,,,,
,,,,,,,,,,,,,FF,,,,,,,,1.402,,,,,,,,,,,,,,,,,,,,,,6100a7d308e142f9066458c2,610378b7924b4aee458743cc,2021-07-29_21h03.55.938,Simcolourproject_2stim_asymm_v5,2020.2.10,MacIntel,60,61025ae37ef11b136ea224fe,,,,,,,,,3387,68,108,1,0,0,response1disk,,7,0,-2,1,0,0,rectangle,0,-2,1,0,0,0,-2,1,0,0,1,131,291,55,1,,,,,,,,
,,,,,,,,,,,,,FF,,,,,,,,0.666,,,,,,,,,,,,,,,,,,,,,,6100a7d308e142f9066458c2,610378b7924b4aee458743cc,2021-07-29_21h03.55.938,Simcolourproject_2stim_asymm_v5,2020.2.10,MacIntel,60,61025ae37ef11b136ea224fe,,,,,,,,,1730,40,68,1,0,0,response1disk,,7,-6,-5,1,0,0,rectangle,-6,-5,1,0,0,-6,-5,1,0,0,1,132,292,134,1,,,,,,,,
,,,,,,,,,,,,,FF,,,,,,,,1.017,,,,,,,,,,,,,,,,,,,,,,6100a7d308e142f9066458c2,610378b7924b4aee458743cc,2021-07-29_21h03.55.938,Simcolourproject_2stim_asymm_v5,2020.2.10,MacIntel,60,61025ae37ef11b136ea224fe,,,,,,,,,3165,40,63,1,0,0,response1disk,,7,8,4,1,0,0,rectangle,8,4,1,0,0,8,4,1,0,0,1,133,293,90,1,,,,,,,,
,,,,,,,,,,,,,FF,,,,,,,,0.742,,,,,,,,,,,,,,,,,,,,,,6100a7d308e142f9066458c2,610378b7924b4aee458743cc,2021-07-29_21h03.55.938,Simcolourproject_2stim_asymm_v5,2020.2.10,MacIntel,60,61025ae37ef11b136ea224fe,,,,,,,,,4153,35,74,1,0,0,response1disk,,7,5,12,1,0,0,rectangle,5,12,1,0,0,5,12,1,0,0,1,134,294,40,1,,,,,,,,
,,,,,,,,,,,,,FF,,,,,,,,1.119,,,,,,,,,,,,,,,,,,,,,,6100a7d308e142f9066458c2,610378b7924b4aee458743cc,2021-07-29_21h03.55.938,Simcolourproject_2stim_asymm_v5,2020.2.10,MacIntel,60,61025ae37ef11b136ea224fe,,,,,,,,,2930,88,40,1,0,0,response1disk,,6,15,3,1,0,0,rectangle,15,3,1,0,0,15,3,1,0,0,1,135,295,37,1,,,,,,,,
,,,,,,,,,,,,,FF,,,,,,,,0.765,,,,,,,,,,,,,,,,,,,,,,6100a7d308e142f9066458c2,610378b7924b4aee458743cc,2021-07-29_21h03.55.938,Simcolourproject_2stim_asymm_v5,2020.2.10,MacIntel,60,61025ae37ef11b136ea224fe,,,,,,,,,3357,93,34,1,0,0,response1disk,,6,14,-8,1,0,0,rectangle,14,-8,1,0,0,14,-8,1,0,0,1,136,296,57,1,,,,,,,,
,,,,,,,,,,,,,FF,,,,,,,,1.075,,,,,,,,,,,,,,,,,,,,,,6100a7d308e142f9066458c2,610378b7924b4aee458743cc,2021-07-29_21h03.55.938,Simcolourproject_2stim_asymm_v5,2020.2.10,MacIntel,60,61025ae37ef11b136ea224fe,,,,,,,,,456,-57,-92,1,0,0,response5disk,,3,-24,-10,1,0,0,rectangle,-24,-10,1,0,0,-24,-10,1,0,0,1,137,297,83,1,,,,,,,,
,,,,,,,,,,,,,FF,,,,,,,,0.658,,,,,,,,,,,,,,,,,,,,,,6100a7d308e142f9066458c2,610378b7924b4aee458743cc,2021-07-29_21h03.55.938,Simcolourproject_2stim_asymm_v5,2020.2.10,MacIntel,60,61025ae37ef11b136ea224fe,,,,,,,,,1652,47,94,1,0,0,response1disk,,7,-7,2,1,0,0,rectangle,-7,2,1,0,0,-7,2,1,0,0,1,138,298,73,1,,,,,,,,
,,,,,,,,,,,,,FF,,,,,,,,1.36,,,,,,,,,,,,,,,,,,,,,,6100a7d308e142f9066458c2,610378b7924b4aee458743cc,2021-07-29_21h03.55.938,Simcolourproject_2stim_asymm_v5,2020.2.10,MacIntel,60,61025ae37ef11b136ea224fe,,,,,,,,,1117,113,40,1,0,0,response1disk,,6,1,-15,1,0,0,rectangle,1,-15,1,0,0,1,-15,1,0,0,1,139,299,29,1,,,,,,,,
,,,,,,,,,,,,,FF,,,,,,,,1.274,,,,,,,,,,,,,,,,,,,,,,6100a7d308e142f9066458c2,610378b7924b4aee458743cc,2021-07-29_21h03.55.938,Simcolourproject_2stim_asymm_v5,2020.2.10,MacIntel,60,61025ae37ef11b136ea224fe,,,,,,,,,3002,95,29,1,0,0,response1disk,,6,17,-9,1,0,0,rectangle,17,-9,1,0,0,17,-9,1,0,0,1,140,300,157,1,,,,,,,,
