key_resp.keys,key_resp.rt,key_resp_14.keys,key_resp_14.rt,key_resp_15.keys,key_resp_15.rt,key_resp_17.keys,key_resp_17.rt,key_resp_9.keys,key_resp_9.rt,key_resp_10.keys,key_resp_10.rt,practice_comparison,Ecc,mouse_5.x,mouse_5.y,mouse_5.leftButton,mouse_5.midButton,mouse_5.rightButton,mouse_5.clicked_name,pracsimilarity,response_time,mouse_10.x,mouse_10.y,mouse_10.leftButton,mouse_10.midButton,mouse_10.rightButton,mouse_10.clicked_name,mouse_7.x,mouse_7.y,mouse_7.leftButton,mouse_7.midButton,mouse_7.rightButton,mouse_6.x,mouse_6.y,mouse_6.leftButton,mouse_6.midButton,mouse_6.rightButton,duringprac.thisRepN,duringprac.thisTrialN,duringprac.thisN,duringprac.thisIndex,duringprac.ran,participant,session,date,expName,psychopyVersion,OS,frameRate,study_id,mouse_7.clicked_name,catchpracsimilarity,catch_response_time,catchnumberprac,catchtrialorderprac,mouse_6.clicked_name,key_resp_22.keys,key_resp_22.rt,realcomparison,mouse.x,mouse.y,mouse.leftButton,mouse.midButton,mouse.rightButton,mouse.clicked_name,Colour2,similarity,mouse_2.x,mouse_2.y,mouse_2.leftButton,mouse_2.midButton,mouse_2.rightButton,mouse_2.clicked_name,mouse_3.x,mouse_3.y,mouse_3.leftButton,mouse_3.midButton,mouse_3.rightButton,mouse_11.x,mouse_11.y,mouse_11.leftButton,mouse_11.midButton,mouse_11.rightButton,trials_2.thisRepN,trials_2.thisTrialN,trials_2.thisN,trials_2.thisIndex,trials_2.ran,Colour1,mouse_3.clicked_name,catchornah,catchsimilarity,catchnumber,catchtrialorder,catchRT,mouse_11.clicked_name
space,5.321,space,5.4952,space,2.1267,space,2.2149,space,0.0483,space,5.9971,46,PF,22.97668457,-46.31097412,1,0,0,response3disk_5,4,24.9324,7.081115723,-0.112243652,1,0,0,rectangle_8,7.081115723,-0.112243652,1,0,0,7.081115723,-0.112243652,1,0,0,0,0,0,1,1,6100b21cf563ca9a72200a94,61036b2ee75a225ae419689e,2021-07-29_23h00.19.672,Simcolourproject_2stim_asymm_v5,2020.2.10,MacIntel,60,61025ae37ef11b136ea224fe,,,,,,,,,,,,,,,,,,,,,,,,,,,,,,,,,,,,,,,,,,,,,,
,,,,,,,,,,,,77,FF,45.16052246,15.13092041,1,0,0,response1disk_5,6,8.1335,8.344543457,-5.034912109,1,0,0,rectangle_8,47.9708252,-33.81109619,1,0,0,19.39172363,-10.90374756,1,0,0,0,1,1,5,1,6100b21cf563ca9a72200a94,61036b2ee75a225ae419689e,2021-07-29_23h00.19.672,Simcolourproject_2stim_asymm_v5,2020.2.10,MacIntel,60,61025ae37ef11b136ea224fe,response3disk_7,5,4.6181,5,"[2,5]",rectangle_4,,,,,,,,,,,,,,,,,,,,,,,,,,,,,,,,,,,,,,,,
,,,,,,,,,,,,134,PF,45.61254883,-15.57513428,1,0,0,response3disk_5,5,7.2319,17.27294922,-5.517700195,1,0,0,rectangle_8,17.27294922,-5.517700195,1,0,0,17.27294922,-5.517700195,1,0,0,0,2,2,6,1,6100b21cf563ca9a72200a94,61036b2ee75a225ae419689e,2021-07-29_23h00.19.672,Simcolourproject_2stim_asymm_v5,2020.2.10,MacIntel,60,61025ae37ef11b136ea224fe,,,,,,,,,,,,,,,,,,,,,,,,,,,,,,,,,,,,,,,,,,,,,,
,,,,,,,,,,,,79,FF,-21.67926025,39.13818359,1,0,0,response7disk_5,0,1.4001,8.389648438,-6.866912842,1,0,0,rectangle_8,8.389648438,-6.866912842,1,0,0,8.389648438,-6.866912842,1,0,0,0,3,3,0,1,6100b21cf563ca9a72200a94,61036b2ee75a225ae419689e,2021-07-29_23h00.19.672,Simcolourproject_2stim_asymm_v5,2020.2.10,MacIntel,60,61025ae37ef11b136ea224fe,,,,,,,,,,,,,,,,,,,,,,,,,,,,,,,,,,,,,,,,,,,,,,
,,,,,,,,,,,,105,PF,29.28320313,-45.18719482,1,0,0,response3disk_5,4,2.8156,13.20227051,-4.614562988,1,0,0,rectangle_8,53.89202881,-27.43991089,1,0,0,10.14355469,-9.731201172,1,0,0,0,4,4,2,1,6100b21cf563ca9a72200a94,61036b2ee75a225ae419689e,2021-07-29_23h00.19.672,Simcolourproject_2stim_asymm_v5,2020.2.10,MacIntel,60,61025ae37ef11b136ea224fe,response3disk_7,5,1.9833,5,"[2,5]",rectangle_4,,,,,,,,,,,,,,,,,,,,,,,,,,,,,,,,,,,,,,,,
,,,,,,,,,,,,19,FF,23.14257813,-13.84277344,1,0,0,response3disk_5,5,1.7318,16.37225342,-5.564575195,1,0,0,rectangle_8,16.37225342,-5.564575195,1,0,0,16.37225342,-5.564575195,1,0,0,0,5,5,3,1,6100b21cf563ca9a72200a94,61036b2ee75a225ae419689e,2021-07-29_23h00.19.672,Simcolourproject_2stim_asymm_v5,2020.2.10,MacIntel,60,61025ae37ef11b136ea224fe,,,,,,,,,,,,,,,,,,,,,,,,,,,,,,,,,,,,,,,,,,,,,,
,,,,,,,,,,,,138,PF,37.91125488,22.2878418,1,0,0,response1disk_5,6,2.3347,6.196350098,-5.380157471,1,0,0,rectangle_8,6.196350098,-5.380157471,1,0,0,6.196350098,-5.380157471,1,0,0,0,6,6,4,1,6100b21cf563ca9a72200a94,61036b2ee75a225ae419689e,2021-07-29_23h00.19.672,Simcolourproject_2stim_asymm_v5,2020.2.10,MacIntel,60,61025ae37ef11b136ea224fe,,,,,,,,,,,,,,,,,,,,,,,,,,,,,,,,,,,,,,,,,,,,,,
,,,,,,,,,,,,,FF,,,,,,,,4.519,,,,,,,,,,,,,,,,,,,,,,6100b21cf563ca9a72200a94,61036b2ee75a225ae419689e,2021-07-29_23h00.19.672,Simcolourproject_2stim_asymm_v5,2020.2.10,MacIntel,60,61025ae37ef11b136ea224fe,,,,,,,space,2.711,1122,-36.34411621,-20.3812561,1,0,0,response5disk,,2,-4.790100098,-7.81072998,1,0,0,rectangle,-4.790100098,-7.81072998,1,0,0,-4.790100098,-7.81072998,1,0,0,0,0,0,21,1,,,,,,,,
,,,,,,,,,,,,,FF,,,,,,,,2.7499,,,,,,,,,,,,,,,,,,,,,,6100b21cf563ca9a72200a94,61036b2ee75a225ae419689e,2021-07-29_23h00.19.672,Simcolourproject_2stim_asymm_v5,2020.2.10,MacIntel,60,61025ae37ef11b136ea224fe,,,,,,,,,2418,-17.19787598,46.64953613,1,0,0,response7disk,,0,-2.441833496,7.326538086,1,0,0,rectangle,-2.441833496,7.326538086,1,0,0,-2.441833496,7.326538086,1,0,0,0,1,1,148,1,,,,,,,,
,,,,,,,,,,,,,FF,,,,,,,,1.5498,,,,,,,,,,,,,,,,,,,,,,6100b21cf563ca9a72200a94,61036b2ee75a225ae419689e,2021-07-29_23h00.19.672,Simcolourproject_2stim_asymm_v5,2020.2.10,MacIntel,60,61025ae37ef11b136ea224fe,,,,,,,,,1273,30.84191895,-58.41174316,1,0,0,response3disk,,4,20.92871094,-2.52355957,1,0,0,rectangle,20.92871094,-2.52355957,1,0,0,20.92871094,-2.52355957,1,0,0,0,2,2,53,1,,,,,,,,
,,,,,,,,,,,,,FF,,,,,,,,0.9667,,,,,,,,,,,,,,,,,,,,,,6100b21cf563ca9a72200a94,61036b2ee75a225ae419689e,2021-07-29_23h00.19.672,Simcolourproject_2stim_asymm_v5,2020.2.10,MacIntel,60,61025ae37ef11b136ea224fe,,,,,,,,,3729,16.89019775,-45.11358643,1,0,0,response3disk,,4,11.21679688,-9.452575684,1,0,0,rectangle,11.21679688,-9.452575684,1,0,0,11.21679688,-9.452575684,1,0,0,0,3,3,48,1,,,,,,,,
,,,,,,,,,,,,,FF,,,,,,,,1.2166,,,,,,,,,,,,,,,,,,,,,,6100b21cf563ca9a72200a94,61036b2ee75a225ae419689e,2021-07-29_23h00.19.672,Simcolourproject_2stim_asymm_v5,2020.2.10,MacIntel,60,61025ae37ef11b136ea224fe,,,,,,,,,2560,21.77844238,-47.63082886,1,0,0,response3disk,,4,4.343505859,-4.955078125,1,0,0,rectangle,4.343505859,-4.955078125,1,0,0,4.343505859,-4.955078125,1,0,0,0,4,4,131,1,,,,,,,,
,,,,,,,,,,,,,FF,,,,,,,,1.6178,,,,,,,,,,,,,,,,,,,,,,6100b21cf563ca9a72200a94,61036b2ee75a225ae419689e,2021-07-29_23h00.19.672,Simcolourproject_2stim_asymm_v5,2020.2.10,MacIntel,60,61025ae37ef11b136ea224fe,,,,,,,,,1587,38.2711792,-36.05407715,1,0,0,response3disk,,5,8.100219727,-2.985229492,1,0,0,rectangle,8.100219727,-2.985229492,1,0,0,8.100219727,-2.985229492,1,0,0,0,5,5,118,1,,,,,,,,
,,,,,,,,,,,,,FF,,,,,,,,1.8177,,,,,,,,,,,,,,,,,,,,,,6100b21cf563ca9a72200a94,61036b2ee75a225ae419689e,2021-07-29_23h00.19.672,Simcolourproject_2stim_asymm_v5,2020.2.10,MacIntel,60,61025ae37ef11b136ea224fe,,,,,,,,,1702,47.99084473,-28.8270874,1,0,0,response3disk,,5,20.83056641,-4.81262207,1,0,0,rectangle,20.83056641,-4.81262207,1,0,0,20.83056641,-4.81262207,1,0,0,0,6,6,43,1,,,,,,,,
,,,,,,,,,,,,,FF,,,,,,,,3.4503,,,,,,,,,,,,,,,,,,,,,,6100b21cf563ca9a72200a94,61036b2ee75a225ae419689e,2021-07-29_23h00.19.672,Simcolourproject_2stim_asymm_v5,2020.2.10,MacIntel,60,61025ae37ef11b136ea224fe,,,,,,,,,2417,-15.30352783,-49.73291016,1,0,0,response5disk,,3,0.638305664,-2.31036377,1,0,0,rectangle,-22.15625,-52.52355957,1,0,0,-1.17578125,-4.509094238,1,0,0,0,7,7,153,1,,response5disk_3,TRUE,3,3,"[181,252,192,121,302,121,130,72,292,31,314,206,280,32,179,8,89,217,89,258]",2.401,rectangle
,,,,,,,,,,,,,FF,,,,,,,,2.9508,,,,,,,,,,,,,,,,,,,,,,6100b21cf563ca9a72200a94,61036b2ee75a225ae419689e,2021-07-29_23h00.19.672,Simcolourproject_2stim_asymm_v5,2020.2.10,MacIntel,60,61025ae37ef11b136ea224fe,,,,,,,,,935,-10.359375,-40.634552,1,0,0,response5disk,,3,3.008239746,-7.435791016,1,0,0,rectangle,3.008239746,-7.435791016,1,0,0,3.008239746,-7.435791016,1,0,0,0,8,8,13,1,,,,,,,,
,,,,,,,,,,,,,FF,,,,,,,,1.7164,,,,,,,,,,,,,,,,,,,,,,6100b21cf563ca9a72200a94,61036b2ee75a225ae419689e,2021-07-29_23h00.19.672,Simcolourproject_2stim_asymm_v5,2020.2.10,MacIntel,60,61025ae37ef11b136ea224fe,,,,,,,,,3819,-33.21087646,-23.99661255,1,0,0,response5disk,,2,-7.460998535,-1.74520874,1,0,0,rectangle,-7.460998535,-1.74520874,1,0,0,-7.460998535,-1.74520874,1,0,0,0,9,9,100,1,,,,,,,,
,,,,,,,,,,,,,FF,,,,,,,,1.0005,,,,,,,,,,,,,,,,,,,,,,6100b21cf563ca9a72200a94,61036b2ee75a225ae419689e,2021-07-29_23h00.19.672,Simcolourproject_2stim_asymm_v5,2020.2.10,MacIntel,60,61025ae37ef11b136ea224fe,,,,,,,,,1318,26.6484375,-40.32073975,1,0,0,response3disk,,4,11.26208496,-8.553222656,1,0,0,rectangle,11.26208496,-8.553222656,1,0,0,11.26208496,-8.553222656,1,0,0,0,10,10,46,1,,,,,,,,
,,,,,,,,,,,,,FF,,,,,,,,1.7334,,,,,,,,,,,,,,,,,,,,,,6100b21cf563ca9a72200a94,61036b2ee75a225ae419689e,2021-07-29_23h00.19.672,Simcolourproject_2stim_asymm_v5,2020.2.10,MacIntel,60,61025ae37ef11b136ea224fe,,,,,,,,,657,43.38964844,26.03857422,1,0,0,response1disk,,6,18.80206299,-8.62512207,1,0,0,rectangle,18.80206299,-8.62512207,1,0,0,18.80206299,-8.62512207,1,0,0,0,11,11,87,1,,,,,,,,
,,,,,,,,,,,,,FF,,,,,,,,1.2832,,,,,,,,,,,,,,,,,,,,,,6100b21cf563ca9a72200a94,61036b2ee75a225ae419689e,2021-07-29_23h00.19.672,Simcolourproject_2stim_asymm_v5,2020.2.10,MacIntel,60,61025ae37ef11b136ea224fe,,,,,,,,,4352,-39.32897949,15.55303955,1,0,0,response7disk,,1,-0.922119141,-3.179595947,1,0,0,rectangle,-0.922119141,-3.179595947,1,0,0,-0.922119141,-3.179595947,1,0,0,0,12,12,10,1,,,,,,,,
,,,,,,,,,,,,,FF,,,,,,,,1.0168,,,,,,,,,,,,,,,,,,,,,,6100b21cf563ca9a72200a94,61036b2ee75a225ae419689e,2021-07-29_23h00.19.672,Simcolourproject_2stim_asymm_v5,2020.2.10,MacIntel,60,61025ae37ef11b136ea224fe,,,,,,,,,2478,52.47235107,-27.52102661,1,0,0,response3disk,,5,29.26135254,-10.1652832,1,0,0,rectangle,29.26135254,-10.1652832,1,0,0,29.26135254,-10.1652832,1,0,0,0,13,13,74,1,,,,,,,,
,,,,,,,,,,,,,FF,,,,,,,,0.7843,,,,,,,,,,,,,,,,,,,,,,6100b21cf563ca9a72200a94,61036b2ee75a225ae419689e,2021-07-29_23h00.19.672,Simcolourproject_2stim_asymm_v5,2020.2.10,MacIntel,60,61025ae37ef11b136ea224fe,,,,,,,,,1654,-43.13037109,-24.00445557,1,0,0,response5disk,,2,19.91259766,2.131622314,1,0,0,rectangle,19.91259766,2.131622314,1,0,0,19.91259766,2.131622314,1,0,0,0,14,14,30,1,,,,,,,,
,,,,,,,,,,,,,FF,,,,,,,,1.7189,,,,,,,,,,,,,,,,,,,,,,6100b21cf563ca9a72200a94,61036b2ee75a225ae419689e,2021-07-29_23h00.19.672,Simcolourproject_2stim_asymm_v5,2020.2.10,MacIntel,60,61025ae37ef11b136ea224fe,,,,,,,,,3940,-41.2578125,27.05661011,1,0,0,response7disk,,1,7.629882813,2.60369873,1,0,0,rectangle,7.629882813,2.60369873,1,0,0,7.629882813,2.60369873,1,0,0,0,15,15,144,1,,,,,,,,
,,,,,,,,,,,,,FF,,,,,,,,0.6845,,,,,,,,,,,,,,,,,,,,,,6100b21cf563ca9a72200a94,61036b2ee75a225ae419689e,2021-07-29_23h00.19.672,Simcolourproject_2stim_asymm_v5,2020.2.10,MacIntel,60,61025ae37ef11b136ea224fe,,,,,,,,,2886,-18.4487915,42.67626953,1,0,0,response7disk,,0,9.298706055,-0.476135254,1,0,0,rectangle,9.298706055,-0.476135254,1,0,0,9.298706055,-0.476135254,1,0,0,0,16,16,95,1,,,,,,,,
,,,,,,,,,,,,,FF,,,,,,,,1.5151,,,,,,,,,,,,,,,,,,,,,,6100b21cf563ca9a72200a94,61036b2ee75a225ae419689e,2021-07-29_23h00.19.672,Simcolourproject_2stim_asymm_v5,2020.2.10,MacIntel,60,61025ae37ef11b136ea224fe,,,,,,,,,3874,50.63140869,14.26739502,1,0,0,response1disk,,6,0.403808594,7.333129883,1,0,0,rectangle,0.403808594,7.333129883,1,0,0,0.403808594,7.333129883,1,0,0,0,17,17,15,1,,,,,,,,
,,,,,,,,,,,,,FF,,,,,,,,0.8679,,,,,,,,,,,,,,,,,,,,,,6100b21cf563ca9a72200a94,61036b2ee75a225ae419689e,2021-07-29_23h00.19.672,Simcolourproject_2stim_asymm_v5,2020.2.10,MacIntel,60,61025ae37ef11b136ea224fe,,,,,,,,,639,38.07543945,-14.20275879,1,0,0,response3disk,,5,19.28155518,-2.35333252,1,0,0,rectangle,19.28155518,-2.35333252,1,0,0,19.28155518,-2.35333252,1,0,0,0,18,18,111,1,,,,,,,,
,,,,,,,,,,,,,FF,,,,,,,,0.9503,,,,,,,,,,,,,,,,,,,,,,6100b21cf563ca9a72200a94,61036b2ee75a225ae419689e,2021-07-29_23h00.19.672,Simcolourproject_2stim_asymm_v5,2020.2.10,MacIntel,60,61025ae37ef11b136ea224fe,,,,,,,,,3634,29.39953613,-16.68652344,1,0,0,response3disk,,5,11.18603516,5.734069824,1,0,0,rectangle,11.18603516,5.734069824,1,0,0,11.18603516,5.734069824,1,0,0,0,19,19,115,1,,,,,,,,
,,,,,,,,,,,,,FF,,,,,,,,1.0167,,,,,,,,,,,,,,,,,,,,,,6100b21cf563ca9a72200a94,61036b2ee75a225ae419689e,2021-07-29_23h00.19.672,Simcolourproject_2stim_asymm_v5,2020.2.10,MacIntel,60,61025ae37ef11b136ea224fe,,,,,,,,,2207,38.9901123,-24.82235718,1,0,0,response3disk,,5,7.07043457,6.221588135,1,0,0,rectangle,7.07043457,6.221588135,1,0,0,7.07043457,6.221588135,1,0,0,0,20,20,91,1,,,,,,,,
,,,,,,,,,,,,,FF,,,,,,,,1.2502,,,,,,,,,,,,,,,,,,,,,,6100b21cf563ca9a72200a94,61036b2ee75a225ae419689e,2021-07-29_23h00.19.672,Simcolourproject_2stim_asymm_v5,2020.2.10,MacIntel,60,61025ae37ef11b136ea224fe,,,,,,,,,4099,-21.47259521,-40.78259277,1,0,0,response5disk,,3,-5.592163086,-2.694458008,1,0,0,rectangle,-5.592163086,-2.694458008,1,0,0,-5.592163086,-2.694458008,1,0,0,0,21,21,151,1,,,,,,,,
,,,,,,,,,,,,,FF,,,,,,,,0.8991,,,,,,,,,,,,,,,,,,,,,,6100b21cf563ca9a72200a94,61036b2ee75a225ae419689e,2021-07-29_23h00.19.672,Simcolourproject_2stim_asymm_v5,2020.2.10,MacIntel,60,61025ae37ef11b136ea224fe,,,,,,,,,3378,-34.55731201,13.28955078,1,0,0,response7disk,,1,-6.909118652,-0.48739624,1,0,0,rectangle,-6.909118652,-0.48739624,1,0,0,-6.909118652,-0.48739624,1,0,0,0,22,22,132,1,,,,,,,,
,,,,,,,,,,,,,FF,,,,,,,,0.9329,,,,,,,,,,,,,,,,,,,,,,6100b21cf563ca9a72200a94,61036b2ee75a225ae419689e,2021-07-29_23h00.19.672,Simcolourproject_2stim_asymm_v5,2020.2.10,MacIntel,60,61025ae37ef11b136ea224fe,,,,,,,,,2297,-15.17041016,-36.45800781,1,0,0,response5disk,,3,-11.06268311,-2.086975098,1,0,0,rectangle,-11.06268311,-2.086975098,1,0,0,-11.06268311,-2.086975098,1,0,0,0,23,23,56,1,,,,,,,,
,,,,,,,,,,,,,FF,,,,,,,,0.8658,,,,,,,,,,,,,,,,,,,,,,6100b21cf563ca9a72200a94,61036b2ee75a225ae419689e,2021-07-29_23h00.19.672,Simcolourproject_2stim_asymm_v5,2020.2.10,MacIntel,60,61025ae37ef11b136ea224fe,,,,,,,,,3017,54.21777344,25.89984131,1,0,0,response1disk,,6,17.28894043,3.377319336,1,0,0,rectangle,17.28894043,3.377319336,1,0,0,17.28894043,3.377319336,1,0,0,0,24,24,145,1,,,,,,,,
,,,,,,,,,,,,,FF,,,,,,,,1.0481,,,,,,,,,,,,,,,,,,,,,,6100b21cf563ca9a72200a94,61036b2ee75a225ae419689e,2021-07-29_23h00.19.672,Simcolourproject_2stim_asymm_v5,2020.2.10,MacIntel,60,61025ae37ef11b136ea224fe,,,,,,,,,1804,22.16845703,38.91494751,1,0,0,response1disk,,7,14.52734375,2.123535156,1,0,0,rectangle,14.52734375,2.123535156,1,0,0,14.52734375,2.123535156,1,0,0,0,25,25,106,1,,,,,,,,
,,,,,,,,,,,,,FF,,,,,,,,0.9834,,,,,,,,,,,,,,,,,,,,,,6100b21cf563ca9a72200a94,61036b2ee75a225ae419689e,2021-07-29_23h00.19.672,Simcolourproject_2stim_asymm_v5,2020.2.10,MacIntel,60,61025ae37ef11b136ea224fe,,,,,,,,,456,-26.93847656,17.49694824,1,0,0,response7disk,,1,-11.10455322,-0.516967773,1,0,0,rectangle,-11.10455322,-0.516967773,1,0,0,-11.10455322,-0.516967773,1,0,0,0,26,26,85,1,,,,,,,,
,,,,,,,,,,,,,FF,,,,,,,,0.9334,,,,,,,,,,,,,,,,,,,,,,6100b21cf563ca9a72200a94,61036b2ee75a225ae419689e,2021-07-29_23h00.19.672,Simcolourproject_2stim_asymm_v5,2020.2.10,MacIntel,60,61025ae37ef11b136ea224fe,,,,,,,,,1695,31.22637939,-27.30297852,1,0,0,response3disk,,5,10.37121582,-1.380859375,1,0,0,rectangle,10.37121582,-1.380859375,1,0,0,10.37121582,-1.380859375,1,0,0,0,27,27,27,1,,,,,,,,
,,,,,,,,,,,,,FF,,,,,,,,0.8321,,,,,,,,,,,,,,,,,,,,,,6100b21cf563ca9a72200a94,61036b2ee75a225ae419689e,2021-07-29_23h00.19.672,Simcolourproject_2stim_asymm_v5,2020.2.10,MacIntel,60,61025ae37ef11b136ea224fe,,,,,,,,,264,-50.67095947,-25.90759277,1,0,0,response5disk,,2,-5.243286133,-5.422241211,1,0,0,rectangle,-5.243286133,-5.422241211,1,0,0,-5.243286133,-5.422241211,1,0,0,0,28,28,2,1,,,,,,,,
,,,,,,,,,,,,,FF,,,,,,,,3.0324,,,,,,,,,,,,,,,,,,,,,,6100b21cf563ca9a72200a94,61036b2ee75a225ae419689e,2021-07-29_23h00.19.672,Simcolourproject_2stim_asymm_v5,2020.2.10,MacIntel,60,61025ae37ef11b136ea224fe,,,,,,,,,2614,31.17932129,-17.12030029,1,0,0,response3disk,,5,18.16156006,-2.571166992,1,0,0,rectangle,18.16156006,-2.571166992,1,0,0,18.16156006,-2.571166992,1,0,0,0,29,29,62,1,,,,,,,,
,,,,,,,,,,,,,FF,,,,,,,,0.9671,,,,,,,,,,,,,,,,,,,,,,6100b21cf563ca9a72200a94,61036b2ee75a225ae419689e,2021-07-29_23h00.19.672,Simcolourproject_2stim_asymm_v5,2020.2.10,MacIntel,60,61025ae37ef11b136ea224fe,,,,,,,,,3719,16.99713135,-27.34289551,1,0,0,response3disk,,4,12.33776855,-3.862335205,1,0,0,rectangle,52.72216797,23.42324829,1,0,0,-0.473144531,-0.929138184,1,0,0,0,30,30,20,1,,response1disk_3,TRUE,6,6,"[181,252,192,121,302,121,130,72,292,31,314,206,280,32,179,8,89,217,89,258]",1.8831,rectangle
,,,,,,,,,,,,,FF,,,,,,,,0.8673,,,,,,,,,,,,,,,,,,,,,,6100b21cf563ca9a72200a94,61036b2ee75a225ae419689e,2021-07-29_23h00.19.672,Simcolourproject_2stim_asymm_v5,2020.2.10,MacIntel,60,61025ae37ef11b136ea224fe,,,,,,,,,3725,-50.97052002,-33.33197021,1,0,0,response5disk,,2,-6.75793457,-4.016571045,1,0,0,rectangle,50.45410156,17.57141113,1,0,0,1.671081543,-8.465698242,1,0,0,0,31,31,133,1,,response1disk_3,TRUE,6,6,"[181,252,192,121,302,121,130,72,292,31,314,206,280,32,179,8,89,217,89,258]",2.6001,rectangle
,,,,,,,,,,,,,FF,,,,,,,,0.6508,,,,,,,,,,,,,,,,,,,,,,6100b21cf563ca9a72200a94,61036b2ee75a225ae419689e,2021-07-29_23h00.19.672,Simcolourproject_2stim_asymm_v5,2020.2.10,MacIntel,60,61025ae37ef11b136ea224fe,,,,,,,,,835,-48.81536865,-28.77490234,1,0,0,response5disk,,2,8.191101074,2.171630859,1,0,0,rectangle,8.191101074,2.171630859,1,0,0,8.191101074,2.171630859,1,0,0,0,32,32,136,1,,,,,,,,
,,,,,,,,,,,,,FF,,,,,,,,0.6666,,,,,,,,,,,,,,,,,,,,,,6100b21cf563ca9a72200a94,61036b2ee75a225ae419689e,2021-07-29_23h00.19.672,Simcolourproject_2stim_asymm_v5,2020.2.10,MacIntel,60,61025ae37ef11b136ea224fe,,,,,,,,,205,-38.54589844,-22.80923462,1,0,0,response5disk,,2,0.972106934,-2.939208984,1,0,0,rectangle,0.972106934,-2.939208984,1,0,0,0.972106934,-2.939208984,1,0,0,0,33,33,4,1,,,,,,,,
,,,,,,,,,,,,,FF,,,,,,,,1.6486,,,,,,,,,,,,,,,,,,,,,,6100b21cf563ca9a72200a94,61036b2ee75a225ae419689e,2021-07-29_23h00.19.672,Simcolourproject_2stim_asymm_v5,2020.2.10,MacIntel,60,61025ae37ef11b136ea224fe,,,,,,,,,996,20.2557373,-18.65869141,1,0,0,response3disk,,5,8.977111816,-5.434326172,1,0,0,rectangle,8.977111816,-5.434326172,1,0,0,8.977111816,-5.434326172,1,0,0,0,34,34,84,1,,,,,,,,
,,,,,,,,,,,,,FF,,,,,,,,0.7501,,,,,,,,,,,,,,,,,,,,,,6100b21cf563ca9a72200a94,61036b2ee75a225ae419689e,2021-07-29_23h00.19.672,Simcolourproject_2stim_asymm_v5,2020.2.10,MacIntel,60,61025ae37ef11b136ea224fe,,,,,,,,,3491,22.09698486,-16.06433105,1,0,0,response3disk,,5,3.090270996,-2.412322998,1,0,0,rectangle,3.090270996,-2.412322998,1,0,0,3.090270996,-2.412322998,1,0,0,0,35,35,113,1,,,,,,,,
,,,,,,,,,,,,,FF,,,,,,,,0.6823,,,,,,,,,,,,,,,,,,,,,,6100b21cf563ca9a72200a94,61036b2ee75a225ae419689e,2021-07-29_23h00.19.672,Simcolourproject_2stim_asymm_v5,2020.2.10,MacIntel,60,61025ae37ef11b136ea224fe,,,,,,,,,2449,24.91339111,-34.31158447,1,0,0,response3disk,,4,16.58190918,-11.72225952,1,0,0,rectangle,16.58190918,-11.72225952,1,0,0,16.58190918,-11.72225952,1,0,0,0,36,36,28,1,,,,,,,,
,,,,,,,,,,,,,FF,,,,,,,,0.499,,,,,,,,,,,,,,,,,,,,,,6100b21cf563ca9a72200a94,61036b2ee75a225ae419689e,2021-07-29_23h00.19.672,Simcolourproject_2stim_asymm_v5,2020.2.10,MacIntel,60,61025ae37ef11b136ea224fe,,,,,,,,,1011,31.1050415,-17.37408447,1,0,0,response3disk,,5,14.50512695,-1.334320068,1,0,0,rectangle,14.50512695,-1.334320068,1,0,0,14.50512695,-1.334320068,1,0,0,0,37,37,51,1,,,,,,,,
,,,,,,,,,,,,,FF,,,,,,,,0.5827,,,,,,,,,,,,,,,,,,,,,,6100b21cf563ca9a72200a94,61036b2ee75a225ae419689e,2021-07-29_23h00.19.672,Simcolourproject_2stim_asymm_v5,2020.2.10,MacIntel,60,61025ae37ef11b136ea224fe,,,,,,,,,4030,38.05603027,14.39303589,1,0,0,response1disk,,6,11.3046875,-6.854736328,1,0,0,rectangle,11.3046875,-6.854736328,1,0,0,11.3046875,-6.854736328,1,0,0,0,38,38,7,1,,,,,,,,
,,,,,,,,,,,,,FF,,,,,,,,1.1663,,,,,,,,,,,,,,,,,,,,,,6100b21cf563ca9a72200a94,61036b2ee75a225ae419689e,2021-07-29_23h00.19.672,Simcolourproject_2stim_asymm_v5,2020.2.10,MacIntel,60,61025ae37ef11b136ea224fe,,,,,,,,,3053,-14.38208008,-44.51092529,1,0,0,response5disk,,3,2.377319336,-7.528167725,1,0,0,rectangle,2.377319336,-7.528167725,1,0,0,2.377319336,-7.528167725,1,0,0,0,39,39,78,1,,,,,,,,
,,,,,,,,,,,,,FF,,,,,,,,0.7335,,,,,,,,,,,,,,,,,,,,,,6100b21cf563ca9a72200a94,61036b2ee75a225ae419689e,2021-07-29_23h00.19.672,Simcolourproject_2stim_asymm_v5,2020.2.10,MacIntel,60,61025ae37ef11b136ea224fe,,,,,,,,,3121,16.1739502,-33.30169678,1,0,0,response3disk,,4,12.09515381,-4.802886963,1,0,0,rectangle,12.09515381,-4.802886963,1,0,0,12.09515381,-4.802886963,1,0,0,0,40,40,107,1,,,,,,,,
,,,,,,,,,,,,,FF,,,,,,,,1.3992,,,,,,,,,,,,,,,,,,,,,,6100b21cf563ca9a72200a94,61036b2ee75a225ae419689e,2021-07-29_23h00.19.672,Simcolourproject_2stim_asymm_v5,2020.2.10,MacIntel,60,61025ae37ef11b136ea224fe,,,,,,,,,3413,35.0670166,-18.21487427,1,0,0,response3disk,,5,16.38208008,1.103820801,1,0,0,rectangle,16.38208008,1.103820801,1,0,0,16.38208008,1.103820801,1,0,0,0,41,41,52,1,,,,,,,,
,,,,,,,,,,,,,FF,,,,,,,,1.5171,,,,,,,,,,,,,,,,,,,,,,6100b21cf563ca9a72200a94,61036b2ee75a225ae419689e,2021-07-29_23h00.19.672,Simcolourproject_2stim_asymm_v5,2020.2.10,MacIntel,60,61025ae37ef11b136ea224fe,,,,,,,,,3752,24.03723145,-32.41226196,1,0,0,response3disk,,4,12.00976563,-12.7411499,1,0,0,rectangle,12.00976563,-12.7411499,1,0,0,12.00976563,-12.7411499,1,0,0,0,42,42,19,1,,,,,,,,
,,,,,,,,,,,,,FF,,,,,,,,1.1003,,,,,,,,,,,,,,,,,,,,,,6100b21cf563ca9a72200a94,61036b2ee75a225ae419689e,2021-07-29_23h00.19.672,Simcolourproject_2stim_asymm_v5,2020.2.10,MacIntel,60,61025ae37ef11b136ea224fe,,,,,,,,,2933,-59.21716309,-17.78540039,1,0,0,response5disk,,2,-26.74224854,-0.395782471,1,0,0,rectangle,-26.74224854,-0.395782471,1,0,0,-26.74224854,-0.395782471,1,0,0,0,43,43,45,1,,,,,,,,
,,,,,,,,,,,,,FF,,,,,,,,0.8682,,,,,,,,,,,,,,,,,,,,,,6100b21cf563ca9a72200a94,61036b2ee75a225ae419689e,2021-07-29_23h00.19.672,Simcolourproject_2stim_asymm_v5,2020.2.10,MacIntel,60,61025ae37ef11b136ea224fe,,,,,,,,,4363,-30.4553833,26.34320068,1,0,0,response7disk,,1,1.483886719,-1.076873779,1,0,0,rectangle,1.483886719,-1.076873779,1,0,0,1.483886719,-1.076873779,1,0,0,0,44,44,143,1,,,,,,,,
,,,,,,,,,,,,,FF,,,,,,,,3.3992,,,,,,,,,,,,,,,,,,,,,,6100b21cf563ca9a72200a94,61036b2ee75a225ae419689e,2021-07-29_23h00.19.672,Simcolourproject_2stim_asymm_v5,2020.2.10,MacIntel,60,61025ae37ef11b136ea224fe,,,,,,,,,3542,-21.31622314,34.70880127,1,0,0,response7disk,,0,-16.74200439,1.545898438,1,0,0,rectangle,-16.74200439,1.545898438,1,0,0,-16.74200439,1.545898438,1,0,0,0,45,45,9,1,,,,,,,,
,,,,,,,,,,,,,FF,,,,,,,,0.6004,,,,,,,,,,,,,,,,,,,,,,6100b21cf563ca9a72200a94,61036b2ee75a225ae419689e,2021-07-29_23h00.19.672,Simcolourproject_2stim_asymm_v5,2020.2.10,MacIntel,60,61025ae37ef11b136ea224fe,,,,,,,,,4370,-20.23950195,37.68493652,1,0,0,response7disk,,0,-12.41967773,-2.169219971,1,0,0,rectangle,-12.41967773,-2.169219971,1,0,0,-12.41967773,-2.169219971,1,0,0,0,46,46,63,1,,,,,,,,
,,,,,,,,,,,,,FF,,,,,,,,1.049,,,,,,,,,,,,,,,,,,,,,,6100b21cf563ca9a72200a94,61036b2ee75a225ae419689e,2021-07-29_23h00.19.672,Simcolourproject_2stim_asymm_v5,2020.2.10,MacIntel,60,61025ae37ef11b136ea224fe,,,,,,,,,3002,28.65509033,-39.27438354,1,0,0,response3disk,,4,6.135009766,-2.797607422,1,0,0,rectangle,6.135009766,-2.797607422,1,0,0,6.135009766,-2.797607422,1,0,0,0,47,47,70,1,,,,,,,,
,,,,,,,,,,,,,FF,,,,,,,,1.2163,,,,,,,,,,,,,,,,,,,,,,6100b21cf563ca9a72200a94,61036b2ee75a225ae419689e,2021-07-29_23h00.19.672,Simcolourproject_2stim_asymm_v5,2020.2.10,MacIntel,60,61025ae37ef11b136ea224fe,,,,,,,,,2202,33.16564941,-16.00405884,1,0,0,response3disk,,5,8.256469727,7.020690918,1,0,0,rectangle,8.256469727,7.020690918,1,0,0,8.256469727,7.020690918,1,0,0,0,48,48,50,1,,,,,,,,
,,,,,,,,,,,,,FF,,,,,,,,0.7661,,,,,,,,,,,,,,,,,,,,,,6100b21cf563ca9a72200a94,61036b2ee75a225ae419689e,2021-07-29_23h00.19.672,Simcolourproject_2stim_asymm_v5,2020.2.10,MacIntel,60,61025ae37ef11b136ea224fe,,,,,,,,,3880,23.46313477,-51.05126953,1,0,0,response3disk,,4,8.356750488,-11.00924683,1,0,0,rectangle,8.356750488,-11.00924683,1,0,0,8.356750488,-11.00924683,1,0,0,0,49,49,59,1,,,,,,,,
,,,,,,,,,,,,,FF,,,,,,,,0.7009,,,,,,,,,,,,,,,,,,,,,,6100b21cf563ca9a72200a94,61036b2ee75a225ae419689e,2021-07-29_23h00.19.672,Simcolourproject_2stim_asymm_v5,2020.2.10,MacIntel,60,61025ae37ef11b136ea224fe,,,,,,,,,3712,-36.34234619,-43.39099121,1,0,0,response5disk,,3,-6.68145752,-1.218902588,1,0,0,rectangle,-6.68145752,-1.218902588,1,0,0,-6.68145752,-1.218902588,1,0,0,0,50,50,150,1,,,,,,,,
,,,,,,,,,,,,,FF,,,,,,,,1.1497,,,,,,,,,,,,,,,,,,,,,,6100b21cf563ca9a72200a94,61036b2ee75a225ae419689e,2021-07-29_23h00.19.672,Simcolourproject_2stim_asymm_v5,2020.2.10,MacIntel,60,61025ae37ef11b136ea224fe,,,,,,,,,1604,-55.58929443,20.42449951,1,0,0,response7disk,,1,-3.127807617,3.060455322,1,0,0,rectangle,-3.127807617,3.060455322,1,0,0,-3.127807617,3.060455322,1,0,0,0,51,51,31,1,,,,,,,,
,,,,,,,,,,,,,FF,,,,,,,,2.9346,,,,,,,,,,,,,,,,,,,,,,6100b21cf563ca9a72200a94,61036b2ee75a225ae419689e,2021-07-29_23h00.19.672,Simcolourproject_2stim_asymm_v5,2020.2.10,MacIntel,60,61025ae37ef11b136ea224fe,,,,,,,,,3959,-29.79919434,-37.09375,1,0,0,response5disk,,3,-26.59667969,3.882843018,1,0,0,rectangle,-26.59667969,3.882843018,1,0,0,-26.59667969,3.882843018,1,0,0,0,52,52,76,1,,,,,,,,
,,,,,,,,,,,,,FF,,,,,,,,0.717,,,,,,,,,,,,,,,,,,,,,,6100b21cf563ca9a72200a94,61036b2ee75a225ae419689e,2021-07-29_23h00.19.672,Simcolourproject_2stim_asymm_v5,2020.2.10,MacIntel,60,61025ae37ef11b136ea224fe,,,,,,,,,1372,-42.7244873,-27.177948,1,0,0,response5disk,,2,0.27722168,-7.262084961,1,0,0,rectangle,0.27722168,-7.262084961,1,0,0,0.27722168,-7.262084961,1,0,0,0,53,53,25,1,,,,,,,,
,,,,,,,,,,,,,FF,,,,,,,,1.0669,,,,,,,,,,,,,,,,,,,,,,6100b21cf563ca9a72200a94,61036b2ee75a225ae419689e,2021-07-29_23h00.19.672,Simcolourproject_2stim_asymm_v5,2020.2.10,MacIntel,60,61025ae37ef11b136ea224fe,,,,,,,,,3087,34.67663574,56.70123291,1,0,0,response1disk,,7,14.93414307,7.063659668,1,0,0,rectangle,14.93414307,7.063659668,1,0,0,14.93414307,7.063659668,1,0,0,0,54,54,36,1,,,,,,,,
,,,,,,,,,,,,,FF,,,,,,,,1.2496,,,,,,,,,,,,,,,,,,,,,,6100b21cf563ca9a72200a94,61036b2ee75a225ae419689e,2021-07-29_23h00.19.672,Simcolourproject_2stim_asymm_v5,2020.2.10,MacIntel,60,61025ae37ef11b136ea224fe,,,,,,,,,3024,21.68450928,-37.43170166,1,0,0,response3disk,,4,14.06347656,-2.915405273,1,0,0,rectangle,14.06347656,-2.915405273,1,0,0,14.06347656,-2.915405273,1,0,0,0,55,55,96,1,,,,,,,,
,,,,,,,,,,,,,FF,,,,,,,,1.9485,,,,,,,,,,,,,,,,,,,,,,6100b21cf563ca9a72200a94,61036b2ee75a225ae419689e,2021-07-29_23h00.19.672,Simcolourproject_2stim_asymm_v5,2020.2.10,MacIntel,60,61025ae37ef11b136ea224fe,,,,,,,,,198,45.37353516,-23.88400269,1,0,0,response3disk,,5,12.49462891,-3.482299805,1,0,0,rectangle,12.49462891,-3.482299805,1,0,0,12.49462891,-3.482299805,1,0,0,0,56,56,37,1,,,,,,,,
,,,,,,,,,,,,,FF,,,,,,,,0.6834,,,,,,,,,,,,,,,,,,,,,,6100b21cf563ca9a72200a94,61036b2ee75a225ae419689e,2021-07-29_23h00.19.672,Simcolourproject_2stim_asymm_v5,2020.2.10,MacIntel,60,61025ae37ef11b136ea224fe,,,,,,,,,2190,12.22930908,35.95471191,1,0,0,response1disk,,7,12.22930908,-1.699249268,1,0,0,rectangle,12.22930908,-1.699249268,1,0,0,12.22930908,-1.699249268,1,0,0,0,57,57,86,1,,,,,,,,
,,,,,,,,,,,,,FF,,,,,,,,3.484,,,,,,,,,,,,,,,,,,,,,,6100b21cf563ca9a72200a94,61036b2ee75a225ae419689e,2021-07-29_23h00.19.672,Simcolourproject_2stim_asymm_v5,2020.2.10,MacIntel,60,61025ae37ef11b136ea224fe,,,,,,,,,2917,31.81445313,44.52252197,1,0,0,response1disk,,7,20.65515137,2.048461914,1,0,0,rectangle,20.65515137,2.048461914,1,0,0,20.65515137,2.048461914,1,0,0,0,58,58,81,1,,,,,,,,
,,,,,,,,,,,,,FF,,,,,,,,1.5661,,,,,,,,,,,,,,,,,,,,,,6100b21cf563ca9a72200a94,61036b2ee75a225ae419689e,2021-07-29_23h00.19.672,Simcolourproject_2stim_asymm_v5,2020.2.10,MacIntel,60,61025ae37ef11b136ea224fe,,,,,,,,,1876,47.82867432,31.71057129,1,0,0,response1disk,,6,12.17132568,-4.236999512,1,0,0,rectangle,12.17132568,-4.236999512,1,0,0,12.17132568,-4.236999512,1,0,0,0,59,59,158,1,,,,,,,,
,,,,,,,,,,,,,FF,,,,,,,,1.0833,,,,,,,,,,,,,,,,,,,,,,6100b21cf563ca9a72200a94,61036b2ee75a225ae419689e,2021-07-29_23h00.19.672,Simcolourproject_2stim_asymm_v5,2020.2.10,MacIntel,60,61025ae37ef11b136ea224fe,,,,,,,,,1944,15.8704834,-50.38537598,1,0,0,response3disk,,4,15.61236572,-8.322509766,1,0,0,rectangle,15.61236572,-8.322509766,1,0,0,15.61236572,-8.322509766,1,0,0,0,60,60,69,1,,,,,,,,
,,,,,,,,,,,,,FF,,,,,,,,0.8666,,,,,,,,,,,,,,,,,,,,,,6100b21cf563ca9a72200a94,61036b2ee75a225ae419689e,2021-07-29_23h00.19.672,Simcolourproject_2stim_asymm_v5,2020.2.10,MacIntel,60,61025ae37ef11b136ea224fe,,,,,,,,,1734,-23.96844482,46.37561035,1,0,0,response7disk,,0,0.284423828,3.799316406,1,0,0,rectangle,0.284423828,3.799316406,1,0,0,0.284423828,3.799316406,1,0,0,0,61,61,61,1,,,,,,,,
,,,,,,,,,,,,,FF,,,,,,,,0.6655,,,,,,,,,,,,,,,,,,,,,,6100b21cf563ca9a72200a94,61036b2ee75a225ae419689e,2021-07-29_23h00.19.672,Simcolourproject_2stim_asymm_v5,2020.2.10,MacIntel,60,61025ae37ef11b136ea224fe,,,,,,,,,1003,-37.60144043,16.7467041,1,0,0,response7disk,,1,-7.309387207,-0.124145508,1,0,0,rectangle,-7.309387207,-0.124145508,1,0,0,-7.309387207,-0.124145508,1,0,0,0,62,62,93,1,,,,,,,,
,,,,,,,,,,,,,FF,,,,,,,,1.5011,,,,,,,,,,,,,,,,,,,,,,6100b21cf563ca9a72200a94,61036b2ee75a225ae419689e,2021-07-29_23h00.19.672,Simcolourproject_2stim_asymm_v5,2020.2.10,MacIntel,60,61025ae37ef11b136ea224fe,,,,,,,,,1014,38.69665527,-31.76602173,1,0,0,response3disk,,5,14.14306641,5.473266602,1,0,0,rectangle,14.14306641,5.473266602,1,0,0,14.14306641,5.473266602,1,0,0,0,63,63,137,1,,,,,,,,
,,,,,,,,,,,,,FF,,,,,,,,0.8334,,,,,,,,,,,,,,,,,,,,,,6100b21cf563ca9a72200a94,61036b2ee75a225ae419689e,2021-07-29_23h00.19.672,Simcolourproject_2stim_asymm_v5,2020.2.10,MacIntel,60,61025ae37ef11b136ea224fe,,,,,,,,,555,46.16821289,32.04321289,1,0,0,response1disk,,6,-0.73248291,7.332275391,1,0,0,rectangle,-0.73248291,7.332275391,1,0,0,-0.73248291,7.332275391,1,0,0,0,64,64,82,1,,,,,,,,
,,,,,,,,,,,,,FF,,,,,,,,1.017,,,,,,,,,,,,,,,,,,,,,,6100b21cf563ca9a72200a94,61036b2ee75a225ae419689e,2021-07-29_23h00.19.672,Simcolourproject_2stim_asymm_v5,2020.2.10,MacIntel,60,61025ae37ef11b136ea224fe,,,,,,,,,3664,-35.6930542,-22.06680298,1,0,0,response5disk,,2,13.37670898,-9.26953125,1,0,0,rectangle,13.37670898,-9.26953125,1,0,0,13.37670898,-9.26953125,1,0,0,0,65,65,72,1,,,,,,,,
,,,,,,,,,,,,,FF,,,,,,,,1.0334,,,,,,,,,,,,,,,,,,,,,,6100b21cf563ca9a72200a94,61036b2ee75a225ae419689e,2021-07-29_23h00.19.672,Simcolourproject_2stim_asymm_v5,2020.2.10,MacIntel,60,61025ae37ef11b136ea224fe,,,,,,,,,3954,27.21435547,43.59118652,1,0,0,response1disk,,7,27.21435547,7.69909668,1,0,0,rectangle,27.21435547,7.69909668,1,0,0,27.21435547,7.69909668,1,0,0,0,66,66,26,1,,,,,,,,
,,,,,,,,,,,,,FF,,,,,,,,0.7836,,,,,,,,,,,,,,,,,,,,,,6100b21cf563ca9a72200a94,61036b2ee75a225ae419689e,2021-07-29_23h00.19.672,Simcolourproject_2stim_asymm_v5,2020.2.10,MacIntel,60,61025ae37ef11b136ea224fe,,,,,,,,,1980,38.97924805,-18.71630859,1,0,0,response3disk,,5,27.36853027,6.109222412,1,0,0,rectangle,27.36853027,6.109222412,1,0,0,27.36853027,6.109222412,1,0,0,0,67,67,12,1,,,,,,,,
,,,,,,,,,,,,,FF,,,,,,,,0.8167,,,,,,,,,,,,,,,,,,,,,,6100b21cf563ca9a72200a94,61036b2ee75a225ae419689e,2021-07-29_23h00.19.672,Simcolourproject_2stim_asymm_v5,2020.2.10,MacIntel,60,61025ae37ef11b136ea224fe,,,,,,,,,217,-24.24902344,-39.77758789,1,0,0,response5disk,,3,-0.208862305,11.46572876,1,0,0,rectangle,-0.208862305,11.46572876,1,0,0,-0.208862305,11.46572876,1,0,0,0,68,68,108,1,,,,,,,,
,,,,,,,,,,,,,FF,,,,,,,,0.7846,,,,,,,,,,,,,,,,,,,,,,6100b21cf563ca9a72200a94,61036b2ee75a225ae419689e,2021-07-29_23h00.19.672,Simcolourproject_2stim_asymm_v5,2020.2.10,MacIntel,60,61025ae37ef11b136ea224fe,,,,,,,,,1546,19.52929688,-46.77352905,1,0,0,response3disk,,4,10.75323486,0.110900879,1,0,0,rectangle,10.75323486,0.110900879,1,0,0,10.75323486,0.110900879,1,0,0,0,69,69,57,1,,,,,,,,
,,,,,,,,,,,,,FF,,,,,,,,1.433,,,,,,,,,,,,,,,,,,,,,,6100b21cf563ca9a72200a94,61036b2ee75a225ae419689e,2021-07-29_23h00.19.672,Simcolourproject_2stim_asymm_v5,2020.2.10,MacIntel,60,61025ae37ef11b136ea224fe,,,,,,,,,530,-39.8114624,-28.32000732,1,0,0,response5disk,,2,-0.880371094,-3.026489258,1,0,0,rectangle,-0.880371094,-3.026489258,1,0,0,-0.880371094,-3.026489258,1,0,0,0,70,70,135,1,,,,,,,,
,,,,,,,,,,,,,FF,,,,,,,,1.0165,,,,,,,,,,,,,,,,,,,,,,6100b21cf563ca9a72200a94,61036b2ee75a225ae419689e,2021-07-29_23h00.19.672,Simcolourproject_2stim_asymm_v5,2020.2.10,MacIntel,60,61025ae37ef11b136ea224fe,,,,,,,,,1019,33.62042236,-11.12231445,1,0,0,response3disk,,5,14.35473633,3.503143311,1,0,0,rectangle,-27.27142334,48.2585144,1,0,0,16.61474609,-3.454772949,1,0,0,0,71,71,79,1,,response7disk_3,TRUE,0,0,"[181,252,192,121,302,121,130,72,292,31,314,206,280,32,179,8,89,217,89,258]",1.9835,rectangle
,,,,,,,,,,,,,FF,,,,,,,,0.7491,,,,,,,,,,,,,,,,,,,,,,6100b21cf563ca9a72200a94,61036b2ee75a225ae419689e,2021-07-29_23h00.19.672,Simcolourproject_2stim_asymm_v5,2020.2.10,MacIntel,60,61025ae37ef11b136ea224fe,,,,,,,,,200,19.9666748,-35.28271484,1,0,0,response3disk,,4,7.446899414,-7.304992676,1,0,0,rectangle,7.446899414,-7.304992676,1,0,0,7.446899414,-7.304992676,1,0,0,0,72,72,90,1,,,,,,,,
,,,,,,,,,,,,,FF,,,,,,,,0.6331,,,,,,,,,,,,,,,,,,,,,,6100b21cf563ca9a72200a94,61036b2ee75a225ae419689e,2021-07-29_23h00.19.672,Simcolourproject_2stim_asymm_v5,2020.2.10,MacIntel,60,61025ae37ef11b136ea224fe,,,,,,,,,552,50.74389648,-18.26351929,1,0,0,response3disk,,5,21.82269287,-8.053771973,1,0,0,rectangle,21.82269287,-8.053771973,1,0,0,21.82269287,-8.053771973,1,0,0,0,73,73,127,1,,,,,,,,
,,,,,,,,,,,,,FF,,,,,,,,0.5826,,,,,,,,,,,,,,,,,,,,,,6100b21cf563ca9a72200a94,61036b2ee75a225ae419689e,2021-07-29_23h00.19.672,Simcolourproject_2stim_asymm_v5,2020.2.10,MacIntel,60,61025ae37ef11b136ea224fe,,,,,,,,,3249,35.00994873,-24.18310547,1,0,0,response3disk,,5,11.05529785,-6.506530762,1,0,0,rectangle,11.05529785,-6.506530762,1,0,0,11.05529785,-6.506530762,1,0,0,0,74,74,112,1,,,,,,,,
,,,,,,,,,,,,,FF,,,,,,,,0.8664,,,,,,,,,,,,,,,,,,,,,,6100b21cf563ca9a72200a94,61036b2ee75a225ae419689e,2021-07-29_23h00.19.672,Simcolourproject_2stim_asymm_v5,2020.2.10,MacIntel,60,61025ae37ef11b136ea224fe,,,,,,,,,887,-45.80963135,28.69952393,1,0,0,response7disk,,1,-5.566650391,-0.948669434,1,0,0,rectangle,-5.566650391,-0.948669434,1,0,0,-5.566650391,-0.948669434,1,0,0,0,75,75,32,1,,,,,,,,
,,,,,,,,,,,,,FF,,,,,,,,1.7678,,,,,,,,,,,,,,,,,,,,,,6100b21cf563ca9a72200a94,61036b2ee75a225ae419689e,2021-07-29_23h00.19.672,Simcolourproject_2stim_asymm_v5,2020.2.10,MacIntel,60,61025ae37ef11b136ea224fe,,,,,,,,,1503,54.3692627,-22.20877075,1,0,0,response3disk,,5,-10.54510498,3.542785645,1,0,0,rectangle,-10.54510498,3.542785645,1,0,0,-10.54510498,3.542785645,1,0,0,0,76,76,71,1,,,,,,,,
,,,,,,,,,,,,,FF,,,,,,,,1.5824,,,,,,,,,,,,,,,,,,,,,,6100b21cf563ca9a72200a94,61036b2ee75a225ae419689e,2021-07-29_23h00.19.672,Simcolourproject_2stim_asymm_v5,2020.2.10,MacIntel,60,61025ae37ef11b136ea224fe,,,,,,,,,4290,46.35058594,31.32385254,1,0,0,response1disk,,6,17.16766357,6.859313965,1,0,0,rectangle,17.16766357,6.859313965,1,0,0,17.16766357,6.859313965,1,0,0,0,77,77,119,1,,,,,,,,
,,,,,,,,,,,,,FF,,,,,,,,0.8666,,,,,,,,,,,,,,,,,,,,,,6100b21cf563ca9a72200a94,61036b2ee75a225ae419689e,2021-07-29_23h00.19.672,Simcolourproject_2stim_asymm_v5,2020.2.10,MacIntel,60,61025ae37ef11b136ea224fe,,,,,,,,,3222,46.20257568,-36.23516846,1,0,0,response3disk,,5,20.11260986,-4.0546875,1,0,0,rectangle,20.11260986,-4.0546875,1,0,0,20.11260986,-4.0546875,1,0,0,0,78,78,147,1,,,,,,,,
,,,,,,,,,,,,,FF,,,,,,,,0.866,,,,,,,,,,,,,,,,,,,,,,6100b21cf563ca9a72200a94,61036b2ee75a225ae419689e,2021-07-29_23h00.19.672,Simcolourproject_2stim_asymm_v5,2020.2.10,MacIntel,60,61025ae37ef11b136ea224fe,,,,,,,,,4070,28.81945801,-37.34103394,1,0,0,response3disk,,4,18.96850586,-12.309021,1,0,0,rectangle,18.96850586,-12.309021,1,0,0,18.96850586,-12.309021,1,0,0,0,79,79,67,1,,,,,,,,
,,,,,,,,,,,,,FF,,,,,,,,0.6497,,,,,,,,,,,,,,,,,,,,,,6100b21cf563ca9a72200a94,61036b2ee75a225ae419689e,2021-07-29_23h00.19.672,Simcolourproject_2stim_asymm_v5,2020.2.10,MacIntel,60,61025ae37ef11b136ea224fe,,,,,,,,,128,25.11535645,-35.17926025,1,0,0,response3disk,,4,21.92541504,-10.25964355,1,0,0,rectangle,21.92541504,-10.25964355,1,0,0,21.92541504,-10.25964355,1,0,0,0,80,80,54,1,,,,,,,,
,,,,,,,,,,,,,FF,,,,,,,,0.9505,,,,,,,,,,,,,,,,,,,,,,6100b21cf563ca9a72200a94,61036b2ee75a225ae419689e,2021-07-29_23h00.19.672,Simcolourproject_2stim_asymm_v5,2020.2.10,MacIntel,60,61025ae37ef11b136ea224fe,,,,,,,,,2215,45.32189941,-22.39971924,1,0,0,response3disk,,5,7.919799805,-5.2684021,1,0,0,rectangle,7.919799805,-5.2684021,1,0,0,7.919799805,-5.2684021,1,0,0,0,81,81,16,1,,,,,,,,
,,,,,,,,,,,,,FF,,,,,,,,1.1373,,,,,,,,,,,,,,,,,,,,,,6100b21cf563ca9a72200a94,61036b2ee75a225ae419689e,2021-07-29_23h00.19.672,Simcolourproject_2stim_asymm_v5,2020.2.10,MacIntel,60,61025ae37ef11b136ea224fe,,,,,,,,,1819,-46.70819092,-29.66894531,1,0,0,response5disk,,2,-4.370605469,-0.070953369,1,0,0,rectangle,-4.370605469,-0.070953369,1,0,0,-4.370605469,-0.070953369,1,0,0,0,82,82,97,1,,,,,,,,
,,,,,,,,,,,,,FF,,,,,,,,3.8168,,,,,,,,,,,,,,,,,,,,,,6100b21cf563ca9a72200a94,61036b2ee75a225ae419689e,2021-07-29_23h00.19.672,Simcolourproject_2stim_asymm_v5,2020.2.10,MacIntel,60,61025ae37ef11b136ea224fe,,,,,,,,,1309,-39.74835205,-26.10162354,1,0,0,response5disk,,2,-0.804992676,-7.66317749,1,0,0,rectangle,-0.804992676,-7.66317749,1,0,0,-0.804992676,-7.66317749,1,0,0,0,83,83,155,1,,,,,,,,
,,,,,,,,,,,,,FF,,,,,,,,8.2001,,,,,,,,,,,,,,,,,,,,,,6100b21cf563ca9a72200a94,61036b2ee75a225ae419689e,2021-07-29_23h00.19.672,Simcolourproject_2stim_asymm_v5,2020.2.10,MacIntel,60,61025ae37ef11b136ea224fe,,,,,,,,,4148,42.51074219,-25.63772583,1,0,0,response3disk,,5,4.150634766,2.310089111,1,0,0,rectangle,4.150634766,2.310089111,1,0,0,4.150634766,2.310089111,1,0,0,0,84,84,1,1,,,,,,,,
,,,,,,,,,,,,,FF,,,,,,,,0.9496,,,,,,,,,,,,,,,,,,,,,,6100b21cf563ca9a72200a94,61036b2ee75a225ae419689e,2021-07-29_23h00.19.672,Simcolourproject_2stim_asymm_v5,2020.2.10,MacIntel,60,61025ae37ef11b136ea224fe,,,,,,,,,3523,-19.89044189,-46.67565918,1,0,0,response5disk,,3,-12.50683594,-11.9786377,1,0,0,rectangle,-12.50683594,-11.9786377,1,0,0,-12.50683594,-11.9786377,1,0,0,0,85,85,33,1,,,,,,,,
,,,,,,,,,,,,,FF,,,,,,,,0.7834,,,,,,,,,,,,,,,,,,,,,,6100b21cf563ca9a72200a94,61036b2ee75a225ae419689e,2021-07-29_23h00.19.672,Simcolourproject_2stim_asymm_v5,2020.2.10,MacIntel,60,61025ae37ef11b136ea224fe,,,,,,,,,2697,22.84289551,-51.03735352,1,0,0,response3disk,,4,12.61590576,3.492797852,1,0,0,rectangle,12.61590576,3.492797852,1,0,0,12.61590576,3.492797852,1,0,0,0,86,86,120,1,,,,,,,,
,,,,,,,,,,,,,FF,,,,,,,,0.8173,,,,,,,,,,,,,,,,,,,,,,6100b21cf563ca9a72200a94,61036b2ee75a225ae419689e,2021-07-29_23h00.19.672,Simcolourproject_2stim_asymm_v5,2020.2.10,MacIntel,60,61025ae37ef11b136ea224fe,,,,,,,,,1701,33.2199707,51.20123291,1,0,0,response1disk,,7,29.7121582,4.451141357,1,0,0,rectangle,29.7121582,4.451141357,1,0,0,29.7121582,4.451141357,1,0,0,0,87,87,80,1,,,,,,,,
,,,,,,,,,,,,,FF,,,,,,,,0.5161,,,,,,,,,,,,,,,,,,,,,,6100b21cf563ca9a72200a94,61036b2ee75a225ae419689e,2021-07-29_23h00.19.672,Simcolourproject_2stim_asymm_v5,2020.2.10,MacIntel,60,61025ae37ef11b136ea224fe,,,,,,,,,1798,30.47314453,-16.83810425,1,0,0,response3disk,,5,1.114379883,0.032897949,1,0,0,rectangle,-48.57409668,-35.24627686,1,0,0,-11.01446533,-2.690979004,1,0,0,0,88,88,73,1,,response5disk_3,TRUE,2,2,"[181,252,192,121,302,121,130,72,292,31,314,206,280,32,179,8,89,217,89,258]",2.3326,rectangle
,,,,,,,,,,,,,FF,,,,,,,,0.7488,,,,,,,,,,,,,,,,,,,,,,6100b21cf563ca9a72200a94,61036b2ee75a225ae419689e,2021-07-29_23h00.19.672,Simcolourproject_2stim_asymm_v5,2020.2.10,MacIntel,60,61025ae37ef11b136ea224fe,,,,,,,,,2308,-21.11437988,-28.58493042,1,0,0,response5disk,,3,-18.27618408,-9.098327637,1,0,0,rectangle,-18.27618408,-9.098327637,1,0,0,-18.27618408,-9.098327637,1,0,0,0,89,89,110,1,,,,,,,,
,,,,,,,,,,,,,FF,,,,,,,,1.4174,,,,,,,,,,,,,,,,,,,,,,6100b21cf563ca9a72200a94,61036b2ee75a225ae419689e,2021-07-29_23h00.19.672,Simcolourproject_2stim_asymm_v5,2020.2.10,MacIntel,60,61025ae37ef11b136ea224fe,,,,,,,,,3089,-42.52484131,-25.97723389,1,0,0,response5disk,,2,-10.3347168,0.553833008,1,0,0,rectangle,-10.3347168,0.553833008,1,0,0,-10.3347168,0.553833008,1,0,0,0,90,90,40,1,,,,,,,,
,,,,,,,,,,,,,FF,,,,,,,,0.6851,,,,,,,,,,,,,,,,,,,,,,6100b21cf563ca9a72200a94,61036b2ee75a225ae419689e,2021-07-29_23h00.19.672,Simcolourproject_2stim_asymm_v5,2020.2.10,MacIntel,60,61025ae37ef11b136ea224fe,,,,,,,,,3524,19.97265625,-40.26043701,1,0,0,response3disk,,4,11.55621338,0.252563477,1,0,0,rectangle,11.55621338,0.252563477,1,0,0,11.55621338,0.252563477,1,0,0,0,91,91,101,1,,,,,,,,
,,,,,,,,,,,,,FF,,,,,,,,0.5661,,,,,,,,,,,,,,,,,,,,,,6100b21cf563ca9a72200a94,61036b2ee75a225ae419689e,2021-07-29_23h00.19.672,Simcolourproject_2stim_asymm_v5,2020.2.10,MacIntel,60,61025ae37ef11b136ea224fe,,,,,,,,,2782,17.56201172,-33.4085083,1,0,0,response3disk,,4,1.064208984,-2.005126953,1,0,0,rectangle,1.064208984,-2.005126953,1,0,0,1.064208984,-2.005126953,1,0,0,0,92,92,125,1,,,,,,,,
,,,,,,,,,,,,,FF,,,,,,,,0.533,,,,,,,,,,,,,,,,,,,,,,6100b21cf563ca9a72200a94,61036b2ee75a225ae419689e,2021-07-29_23h00.19.672,Simcolourproject_2stim_asymm_v5,2020.2.10,MacIntel,60,61025ae37ef11b136ea224fe,,,,,,,,,414,19.62457275,-46.66943359,1,0,0,response3disk,,4,8.737792969,-0.407836914,1,0,0,rectangle,8.737792969,-0.407836914,1,0,0,8.737792969,-0.407836914,1,0,0,0,93,93,49,1,,,,,,,,
,,,,,,,,,,,,,FF,,,,,,,,0.3331,,,,,,,,,,,,,,,,,,,,,,6100b21cf563ca9a72200a94,61036b2ee75a225ae419689e,2021-07-29_23h00.19.672,Simcolourproject_2stim_asymm_v5,2020.2.10,MacIntel,60,61025ae37ef11b136ea224fe,,,,,,,,,2326,41.64093018,-13.7361145,1,0,0,response3disk,,5,0.903442383,-5.053466797,1,0,0,rectangle,0.903442383,-5.053466797,1,0,0,0.903442383,-5.053466797,1,0,0,0,94,94,88,1,,,,,,,,
,,,,,,,,,,,,,FF,,,,,,,,0.4821,,,,,,,,,,,,,,,,,,,,,,6100b21cf563ca9a72200a94,61036b2ee75a225ae419689e,2021-07-29_23h00.19.672,Simcolourproject_2stim_asymm_v5,2020.2.10,MacIntel,60,61025ae37ef11b136ea224fe,,,,,,,,,2536,44.66479492,26.57836914,1,0,0,response1disk,,6,8.733886719,-1.051452637,1,0,0,rectangle,8.733886719,-1.051452637,1,0,0,8.733886719,-1.051452637,1,0,0,0,95,95,14,1,,,,,,,,
,,,,,,,,,,,,,FF,,,,,,,,0.2992,,,,,,,,,,,,,,,,,,,,,,6100b21cf563ca9a72200a94,61036b2ee75a225ae419689e,2021-07-29_23h00.19.672,Simcolourproject_2stim_asymm_v5,2020.2.10,MacIntel,60,61025ae37ef11b136ea224fe,,,,,,,,,17,14.83337402,-33.11785889,1,0,0,response3disk,,4,2.574523926,4.978393555,1,0,0,rectangle,2.574523926,4.978393555,1,0,0,2.574523926,4.978393555,1,0,0,0,96,96,129,1,,,,,,,,
,,,,,,,,,,,,,FF,,,,,,,,0.5502,,,,,,,,,,,,,,,,,,,,,,6100b21cf563ca9a72200a94,61036b2ee75a225ae419689e,2021-07-29_23h00.19.672,Simcolourproject_2stim_asymm_v5,2020.2.10,MacIntel,60,61025ae37ef11b136ea224fe,,,,,,,,,2465,48.39569092,13.97683716,1,0,0,response1disk,,6,-18.35498047,-9.71282959,1,0,0,rectangle,-18.35498047,-9.71282959,1,0,0,-18.35498047,-9.71282959,1,0,0,0,97,97,142,1,,,,,,,,
,,,,,,,,,,,,,FF,,,,,,,,0.5488,,,,,,,,,,,,,,,,,,,,,,6100b21cf563ca9a72200a94,61036b2ee75a225ae419689e,2021-07-29_23h00.19.672,Simcolourproject_2stim_asymm_v5,2020.2.10,MacIntel,60,61025ae37ef11b136ea224fe,,,,,,,,,3889,26.80090332,-16.46099854,1,0,0,response3disk,,5,12.8069458,-0.45993042,1,0,0,rectangle,12.8069458,-0.45993042,1,0,0,12.8069458,-0.45993042,1,0,0,0,98,98,77,1,,,,,,,,
,,,,,,,,,,,,,FF,,,,,,,,0.5665,,,,,,,,,,,,,,,,,,,,,,6100b21cf563ca9a72200a94,61036b2ee75a225ae419689e,2021-07-29_23h00.19.672,Simcolourproject_2stim_asymm_v5,2020.2.10,MacIntel,60,61025ae37ef11b136ea224fe,,,,,,,,,4044,15.77728271,-30.45269775,1,0,0,response3disk,,4,14.34802246,-6.783569336,1,0,0,rectangle,14.34802246,-6.783569336,1,0,0,14.34802246,-6.783569336,1,0,0,0,99,99,154,1,,,,,,,,
,,,,,,,,,,,,,FF,,,,,,,,0.4667,,,,,,,,,,,,,,,,,,,,,,6100b21cf563ca9a72200a94,61036b2ee75a225ae419689e,2021-07-29_23h00.19.672,Simcolourproject_2stim_asymm_v5,2020.2.10,MacIntel,60,61025ae37ef11b136ea224fe,,,,,,,,,2545,-15.7789917,-39.50985718,1,0,0,response5disk,,3,3.033325195,-12.46289063,1,0,0,rectangle,3.033325195,-12.46289063,1,0,0,3.033325195,-12.46289063,1,0,0,0,100,100,121,1,,,,,,,,
,,,,,,,,,,,,,FF,,,,,,,,1.2347,,,,,,,,,,,,,,,,,,,,,,6100b21cf563ca9a72200a94,61036b2ee75a225ae419689e,2021-07-29_23h00.19.672,Simcolourproject_2stim_asymm_v5,2020.2.10,MacIntel,60,61025ae37ef11b136ea224fe,,,,,,,,,4347,-41.54602051,22.44796753,1,0,0,response7disk,,1,7.26953125,-10.85952759,1,0,0,rectangle,7.26953125,-10.85952759,1,0,0,7.26953125,-10.85952759,1,0,0,0,101,101,17,1,,,,,,,,
,,,,,,,,,,,,,FF,,,,,,,,0.7007,,,,,,,,,,,,,,,,,,,,,,6100b21cf563ca9a72200a94,61036b2ee75a225ae419689e,2021-07-29_23h00.19.672,Simcolourproject_2stim_asymm_v5,2020.2.10,MacIntel,60,61025ae37ef11b136ea224fe,,,,,,,,,3207,31.94262695,22.90112305,1,0,0,response1disk,,6,-17.22277832,-7.296569824,1,0,0,rectangle,-17.22277832,-7.296569824,1,0,0,-17.22277832,-7.296569824,1,0,0,0,102,102,60,1,,,,,,,,
,,,,,,,,,,,,,FF,,,,,,,,0.3842,,,,,,,,,,,,,,,,,,,,,,6100b21cf563ca9a72200a94,61036b2ee75a225ae419689e,2021-07-29_23h00.19.672,Simcolourproject_2stim_asymm_v5,2020.2.10,MacIntel,60,61025ae37ef11b136ea224fe,,,,,,,,,3172,11.44085693,-39.490448,1,0,0,response3disk,,4,-0.901306152,-8.883666992,1,0,0,rectangle,-0.901306152,-8.883666992,1,0,0,-0.901306152,-8.883666992,1,0,0,0,103,103,55,1,,,,,,,,
,,,,,,,,,,,,,FF,,,,,,,,1.7172,,,,,,,,,,,,,,,,,,,,,,6100b21cf563ca9a72200a94,61036b2ee75a225ae419689e,2021-07-29_23h00.19.672,Simcolourproject_2stim_asymm_v5,2020.2.10,MacIntel,60,61025ae37ef11b136ea224fe,,,,,,,,,1803,-27.18811035,-16.84320068,1,0,0,response5disk,,2,18.77026367,1.745422363,1,0,0,rectangle,18.77026367,1.745422363,1,0,0,18.77026367,1.745422363,1,0,0,0,104,104,8,1,,,,,,,,
,,,,,,,,,,,,,FF,,,,,,,,0.8499,,,,,,,,,,,,,,,,,,,,,,6100b21cf563ca9a72200a94,61036b2ee75a225ae419689e,2021-07-29_23h00.19.672,Simcolourproject_2stim_asymm_v5,2020.2.10,MacIntel,60,61025ae37ef11b136ea224fe,,,,,,,,,2256,47.2746582,14.82739258,1,0,0,response1disk,,6,13.64019775,-2.637207031,1,0,0,rectangle,13.64019775,-2.637207031,1,0,0,13.64019775,-2.637207031,1,0,0,0,105,105,65,1,,,,,,,,
,,,,,,,,,,,,,FF,,,,,,,,0.565,,,,,,,,,,,,,,,,,,,,,,6100b21cf563ca9a72200a94,61036b2ee75a225ae419689e,2021-07-29_23h00.19.672,Simcolourproject_2stim_asymm_v5,2020.2.10,MacIntel,60,61025ae37ef11b136ea224fe,,,,,,,,,99,22.16601563,-33.45150757,1,0,0,response3disk,,4,16.70300293,-7.357299805,1,0,0,rectangle,16.70300293,-7.357299805,1,0,0,16.70300293,-7.357299805,1,0,0,0,106,106,75,1,,,,,,,,
,,,,,,,,,,,,,FF,,,,,,,,1.1835,,,,,,,,,,,,,,,,,,,,,,6100b21cf563ca9a72200a94,61036b2ee75a225ae419689e,2021-07-29_23h00.19.672,Simcolourproject_2stim_asymm_v5,2020.2.10,MacIntel,60,61025ae37ef11b136ea224fe,,,,,,,,,203,23.40368652,-45.64007568,1,0,0,response3disk,,4,9.102294922,1.200439453,1,0,0,rectangle,9.102294922,1.200439453,1,0,0,9.102294922,1.200439453,1,0,0,0,107,107,116,1,,,,,,,,
,,,,,,,,,,,,,FF,,,,,,,,0.6331,,,,,,,,,,,,,,,,,,,,,,6100b21cf563ca9a72200a94,61036b2ee75a225ae419689e,2021-07-29_23h00.19.672,Simcolourproject_2stim_asymm_v5,2020.2.10,MacIntel,60,61025ae37ef11b136ea224fe,,,,,,,,,305,31.91473389,-16.1473999,1,0,0,response3disk,,5,0.540771484,8.521057129,1,0,0,rectangle,0.540771484,8.521057129,1,0,0,0.540771484,8.521057129,1,0,0,0,108,108,35,1,,,,,,,,
,,,,,,,,,,,,,FF,,,,,,,,0.8492,,,,,,,,,,,,,,,,,,,,,,6100b21cf563ca9a72200a94,61036b2ee75a225ae419689e,2021-07-29_23h00.19.672,Simcolourproject_2stim_asymm_v5,2020.2.10,MacIntel,60,61025ae37ef11b136ea224fe,,,,,,,,,3557,28.46472168,-17.83422852,1,0,0,response3disk,,5,9.695617676,-5.91986084,1,0,0,rectangle,9.695617676,-5.91986084,1,0,0,9.695617676,-5.91986084,1,0,0,0,109,109,18,1,,,,,,,,
,,,,,,,,,,,,,FF,,,,,,,,0.4003,,,,,,,,,,,,,,,,,,,,,,6100b21cf563ca9a72200a94,61036b2ee75a225ae419689e,2021-07-29_23h00.19.672,Simcolourproject_2stim_asymm_v5,2020.2.10,MacIntel,60,61025ae37ef11b136ea224fe,,,,,,,,,3264,46.13775635,-21.62387085,1,0,0,response3disk,,5,15.73461914,-5.394592285,1,0,0,rectangle,15.73461914,-5.394592285,1,0,0,15.73461914,-5.394592285,1,0,0,0,110,110,3,1,,,,,,,,
,,,,,,,,,,,,,FF,,,,,,,,1.4153,,,,,,,,,,,,,,,,,,,,,,6100b21cf563ca9a72200a94,61036b2ee75a225ae419689e,2021-07-29_23h00.19.672,Simcolourproject_2stim_asymm_v5,2020.2.10,MacIntel,60,61025ae37ef11b136ea224fe,,,,,,,,,439,-50.98071289,-41.59747314,1,0,0,response5disk,,2,-7.152954102,-9.425445557,1,0,0,rectangle,-7.152954102,-9.425445557,1,0,0,-7.152954102,-9.425445557,1,0,0,0,111,111,23,1,,,,,,,,
,,,,,,,,,,,,,FF,,,,,,,,1.1666,,,,,,,,,,,,,,,,,,,,,,6100b21cf563ca9a72200a94,61036b2ee75a225ae419689e,2021-07-29_23h00.19.672,Simcolourproject_2stim_asymm_v5,2020.2.10,MacIntel,60,61025ae37ef11b136ea224fe,,,,,,,,,1954,20.44519043,-50.39630127,1,0,0,response3disk,,4,20.44519043,7.71282959,1,0,0,rectangle,20.44519043,7.71282959,1,0,0,20.44519043,7.71282959,1,0,0,0,112,112,64,1,,,,,,,,
,,,,,,,,,,,,,FF,,,,,,,,0.5671,,,,,,,,,,,,,,,,,,,,,,6100b21cf563ca9a72200a94,61036b2ee75a225ae419689e,2021-07-29_23h00.19.672,Simcolourproject_2stim_asymm_v5,2020.2.10,MacIntel,60,61025ae37ef11b136ea224fe,,,,,,,,,2826,-11.15765381,-43.19802856,1,0,0,response5disk,,3,4.336914063,-1.564208984,1,0,0,rectangle,4.336914063,-1.564208984,1,0,0,4.336914063,-1.564208984,1,0,0,0,113,113,124,1,,,,,,,,
,,,,,,,,,,,,,FF,,,,,,,,1.1338,,,,,,,,,,,,,,,,,,,,,,6100b21cf563ca9a72200a94,61036b2ee75a225ae419689e,2021-07-29_23h00.19.672,Simcolourproject_2stim_asymm_v5,2020.2.10,MacIntel,60,61025ae37ef11b136ea224fe,,,,,,,,,590,24.34533691,44.67108154,1,0,0,response1disk,,7,16.10162354,-11.91345215,1,0,0,rectangle,16.10162354,-11.91345215,1,0,0,16.10162354,-11.91345215,1,0,0,0,114,114,104,1,,,,,,,,
,,,,,,,,,,,,,FF,,,,,,,,0.6676,,,,,,,,,,,,,,,,,,,,,,6100b21cf563ca9a72200a94,61036b2ee75a225ae419689e,2021-07-29_23h00.19.672,Simcolourproject_2stim_asymm_v5,2020.2.10,MacIntel,60,61025ae37ef11b136ea224fe,,,,,,,,,1767,33.81549072,-22.85821533,1,0,0,response3disk,,5,5.340148926,4.636962891,1,0,0,rectangle,5.340148926,4.636962891,1,0,0,5.340148926,4.636962891,1,0,0,0,115,115,41,1,,,,,,,,
,,,,,,,,,,,,,FF,,,,,,,,0.85,,,,,,,,,,,,,,,,,,,,,,6100b21cf563ca9a72200a94,61036b2ee75a225ae419689e,2021-07-29_23h00.19.672,Simcolourproject_2stim_asymm_v5,2020.2.10,MacIntel,60,61025ae37ef11b136ea224fe,,,,,,,,,2764,37.44226074,23.21389771,1,0,0,response1disk,,6,10.85638428,6.384063721,1,0,0,rectangle,10.85638428,6.384063721,1,0,0,10.85638428,6.384063721,1,0,0,0,116,116,5,1,,,,,,,,
,,,,,,,,,,,,,FF,,,,,,,,0.7503,,,,,,,,,,,,,,,,,,,,,,6100b21cf563ca9a72200a94,61036b2ee75a225ae419689e,2021-07-29_23h00.19.672,Simcolourproject_2stim_asymm_v5,2020.2.10,MacIntel,60,61025ae37ef11b136ea224fe,,,,,,,,,756,47.78240967,24.42449951,1,0,0,response1disk,,6,-6.165039063,-0.033477783,1,0,0,rectangle,-6.165039063,-0.033477783,1,0,0,-6.165039063,-0.033477783,1,0,0,0,117,117,159,1,,,,,,,,
,,,,,,,,,,,,,FF,,,,,,,,0.4503,,,,,,,,,,,,,,,,,,,,,,6100b21cf563ca9a72200a94,61036b2ee75a225ae419689e,2021-07-29_23h00.19.672,Simcolourproject_2stim_asymm_v5,2020.2.10,MacIntel,60,61025ae37ef11b136ea224fe,,,,,,,,,668,28.68261719,-19.3972168,1,0,0,response3disk,,5,6.888366699,-5.445800781,1,0,0,rectangle,6.888366699,-5.445800781,1,0,0,6.888366699,-5.445800781,1,0,0,0,118,118,68,1,,,,,,,,
,,,,,,,,,,,,,FF,,,,,,,,0.4323,,,,,,,,,,,,,,,,,,,,,,6100b21cf563ca9a72200a94,61036b2ee75a225ae419689e,2021-07-29_23h00.19.672,Simcolourproject_2stim_asymm_v5,2020.2.10,MacIntel,60,61025ae37ef11b136ea224fe,,,,,,,,,563,42.36273193,15.87530518,1,0,0,response1disk,,6,18.63452148,1.759033203,1,0,0,rectangle,18.63452148,1.759033203,1,0,0,18.63452148,1.759033203,1,0,0,0,119,119,22,1,,,,,,,,
,,,,,,,,,,,,,FF,,,,,,,,1.6166,,,,,,,,,,,,,,,,,,,,,,6100b21cf563ca9a72200a94,61036b2ee75a225ae419689e,2021-07-29_23h00.19.672,Simcolourproject_2stim_asymm_v5,2020.2.10,MacIntel,60,61025ae37ef11b136ea224fe,,,,,,,,,350,43.6496582,-18.6348877,1,0,0,response3disk,,5,21.94049072,-1.391601563,1,0,0,rectangle,11.31396484,-45.84423828,1,0,0,9.162231445,-5.618438721,1,0,0,0,120,120,11,1,,response3disk_3,TRUE,4,4,"[181,252,192,121,302,121,130,72,292,31,314,206,280,32,179,8,89,217,89,258]",2.0664,rectangle
,,,,,,,,,,,,,FF,,,,,,,,0.8338,,,,,,,,,,,,,,,,,,,,,,6100b21cf563ca9a72200a94,61036b2ee75a225ae419689e,2021-07-29_23h00.19.672,Simcolourproject_2stim_asymm_v5,2020.2.10,MacIntel,60,61025ae37ef11b136ea224fe,,,,,,,,,1982,50.1963501,-16.125,1,0,0,response3disk,,5,30.85626221,7.172943115,1,0,0,rectangle,30.85626221,7.172943115,1,0,0,30.85626221,7.172943115,1,0,0,0,121,121,47,1,,,,,,,,
,,,,,,,,,,,,,FF,,,,,,,,0.4838,,,,,,,,,,,,,,,,,,,,,,6100b21cf563ca9a72200a94,61036b2ee75a225ae419689e,2021-07-29_23h00.19.672,Simcolourproject_2stim_asymm_v5,2020.2.10,MacIntel,60,61025ae37ef11b136ea224fe,,,,,,,,,1513,46.95001221,24.19342041,1,0,0,response1disk,,6,11.83026123,4.620300293,1,0,0,rectangle,11.83026123,4.620300293,1,0,0,11.83026123,4.620300293,1,0,0,0,122,122,94,1,,,,,,,,
,,,,,,,,,,,,,FF,,,,,,,,0.3831,,,,,,,,,,,,,,,,,,,,,,6100b21cf563ca9a72200a94,61036b2ee75a225ae419689e,2021-07-29_23h00.19.672,Simcolourproject_2stim_asymm_v5,2020.2.10,MacIntel,60,61025ae37ef11b136ea224fe,,,,,,,,,1108,39.01550293,-24.16619873,1,0,0,response3disk,,5,8.821044922,-4.196350098,1,0,0,rectangle,8.821044922,-4.196350098,1,0,0,8.821044922,-4.196350098,1,0,0,0,123,123,128,1,,,,,,,,
,,,,,,,,,,,,,FF,,,,,,,,0.4012,,,,,,,,,,,,,,,,,,,,,,6100b21cf563ca9a72200a94,61036b2ee75a225ae419689e,2021-07-29_23h00.19.672,Simcolourproject_2stim_asymm_v5,2020.2.10,MacIntel,60,61025ae37ef11b136ea224fe,,,,,,,,,468,23.92443848,-33.59814453,1,0,0,response3disk,,4,10.37963867,-5.729858398,1,0,0,rectangle,10.37963867,-5.729858398,1,0,0,10.37963867,-5.729858398,1,0,0,0,124,124,114,1,,,,,,,,
,,,,,,,,,,,,,FF,,,,,,,,0.8667,,,,,,,,,,,,,,,,,,,,,,6100b21cf563ca9a72200a94,61036b2ee75a225ae419689e,2021-07-29_23h00.19.672,Simcolourproject_2stim_asymm_v5,2020.2.10,MacIntel,60,61025ae37ef11b136ea224fe,,,,,,,,,71,46.33117676,15.56866455,1,0,0,response1disk,,6,17.23175049,2.501464844,1,0,0,rectangle,17.23175049,2.501464844,1,0,0,17.23175049,2.501464844,1,0,0,0,125,125,0,1,,,,,,,,
,,,,,,,,,,,,,FF,,,,,,,,0.7827,,,,,,,,,,,,,,,,,,,,,,6100b21cf563ca9a72200a94,61036b2ee75a225ae419689e,2021-07-29_23h00.19.672,Simcolourproject_2stim_asymm_v5,2020.2.10,MacIntel,60,61025ae37ef11b136ea224fe,,,,,,,,,1221,33.31207275,-37.14169312,1,0,0,response3disk,,4,22.6317749,-7.73727417,1,0,0,rectangle,22.6317749,-7.73727417,1,0,0,22.6317749,-7.73727417,1,0,0,0,126,126,34,1,,,,,,,,
,,,,,,,,,,,,,FF,,,,,,,,1.1321,,,,,,,,,,,,,,,,,,,,,,6100b21cf563ca9a72200a94,61036b2ee75a225ae419689e,2021-07-29_23h00.19.672,Simcolourproject_2stim_asymm_v5,2020.2.10,MacIntel,60,61025ae37ef11b136ea224fe,,,,,,,,,2522,45.88171387,-15.95428467,1,0,0,response3disk,,5,20.8493042,-4.870635986,1,0,0,rectangle,20.8493042,-4.870635986,1,0,0,20.8493042,-4.870635986,1,0,0,0,127,127,149,1,,,,,,,,
,,,,,,,,,,,,,FF,,,,,,,,1.834,,,,,,,,,,,,,,,,,,,,,,6100b21cf563ca9a72200a94,61036b2ee75a225ae419689e,2021-07-29_23h00.19.672,Simcolourproject_2stim_asymm_v5,2020.2.10,MacIntel,60,61025ae37ef11b136ea224fe,,,,,,,,,1129,32.11938477,-21.78094482,1,0,0,response3disk,,5,11.70910645,1.121704102,1,0,0,rectangle,11.70910645,1.121704102,1,0,0,11.70910645,1.121704102,1,0,0,0,128,128,92,1,,,,,,,,
,,,,,,,,,,,,,FF,,,,,,,,1.0499,,,,,,,,,,,,,,,,,,,,,,6100b21cf563ca9a72200a94,61036b2ee75a225ae419689e,2021-07-29_23h00.19.672,Simcolourproject_2stim_asymm_v5,2020.2.10,MacIntel,60,61025ae37ef11b136ea224fe,,,,,,,,,1898,61.28881836,27.09362793,1,0,0,response1disk,,6,25.20178223,2.962677002,1,0,0,rectangle,-36.28112793,48.82305908,1,0,0,5.67376709,4.179138184,1,0,0,0,129,129,139,1,,response7disk_3,TRUE,0,0,"[181,252,192,121,302,121,130,72,292,31,314,206,280,32,179,8,89,217,89,258]",1.2999,rectangle
,,,,,,,,,,,,,FF,,,,,,,,1.4175,,,,,,,,,,,,,,,,,,,,,,6100b21cf563ca9a72200a94,61036b2ee75a225ae419689e,2021-07-29_23h00.19.672,Simcolourproject_2stim_asymm_v5,2020.2.10,MacIntel,60,61025ae37ef11b136ea224fe,,,,,,,,,343,-24.15325928,-51.66491699,1,0,0,response5disk,,3,1.311035156,6.332885742,1,0,0,rectangle,1.311035156,6.332885742,1,0,0,1.311035156,6.332885742,1,0,0,0,130,130,66,1,,,,,,,,
,,,,,,,,,,,,,FF,,,,,,,,2.3499,,,,,,,,,,,,,,,,,,,,,,6100b21cf563ca9a72200a94,61036b2ee75a225ae419689e,2021-07-29_23h00.19.672,Simcolourproject_2stim_asymm_v5,2020.2.10,MacIntel,60,61025ae37ef11b136ea224fe,,,,,,,,,4324,-39.52148438,-19.637146,1,0,0,response5disk,,2,4.977294922,4.772277832,1,0,0,rectangle,4.977294922,4.772277832,1,0,0,4.977294922,4.772277832,1,0,0,0,131,131,117,1,,,,,,,,
,,,,,,,,,,,,,FF,,,,,,,,0.6491,,,,,,,,,,,,,,,,,,,,,,6100b21cf563ca9a72200a94,61036b2ee75a225ae419689e,2021-07-29_23h00.19.672,Simcolourproject_2stim_asymm_v5,2020.2.10,MacIntel,60,61025ae37ef11b136ea224fe,,,,,,,,,1008,26.03027344,-33.03387451,1,0,0,response3disk,,4,11.3671875,-5.009521484,1,0,0,rectangle,11.3671875,-5.009521484,1,0,0,11.3671875,-5.009521484,1,0,0,0,132,132,109,1,,,,,,,,
,,,,,,,,,,,,,FF,,,,,,,,0.3329,,,,,,,,,,,,,,,,,,,,,,6100b21cf563ca9a72200a94,61036b2ee75a225ae419689e,2021-07-29_23h00.19.672,Simcolourproject_2stim_asymm_v5,2020.2.10,MacIntel,60,61025ae37ef11b136ea224fe,,,,,,,,,745,21.5980835,-28.40167236,1,0,0,response3disk,,4,15.0916748,-2.787445068,1,0,0,rectangle,15.0916748,-2.787445068,1,0,0,15.0916748,-2.787445068,1,0,0,0,133,133,44,1,,,,,,,,
,,,,,,,,,,,,,FF,,,,,,,,0.2985,,,,,,,,,,,,,,,,,,,,,,6100b21cf563ca9a72200a94,61036b2ee75a225ae419689e,2021-07-29_23h00.19.672,Simcolourproject_2stim_asymm_v5,2020.2.10,MacIntel,60,61025ae37ef11b136ea224fe,,,,,,,,,581,46.08404541,-18.72964478,1,0,0,response3disk,,5,10.27349854,-3.222808838,1,0,0,rectangle,10.27349854,-3.222808838,1,0,0,10.27349854,-3.222808838,1,0,0,0,134,134,138,1,,,,,,,,
,,,,,,,,,,,,,FF,,,,,,,,0.8826,,,,,,,,,,,,,,,,,,,,,,6100b21cf563ca9a72200a94,61036b2ee75a225ae419689e,2021-07-29_23h00.19.672,Simcolourproject_2stim_asymm_v5,2020.2.10,MacIntel,60,61025ae37ef11b136ea224fe,,,,,,,,,2768,-16.88305664,-51.5546875,1,0,0,response5disk,,3,-5.891723633,-1.493804932,1,0,0,rectangle,-5.891723633,-1.493804932,1,0,0,-5.891723633,-1.493804932,1,0,0,0,135,135,38,1,,,,,,,,
,,,,,,,,,,,,,FF,,,,,,,,0.3835,,,,,,,,,,,,,,,,,,,,,,6100b21cf563ca9a72200a94,61036b2ee75a225ae419689e,2021-07-29_23h00.19.672,Simcolourproject_2stim_asymm_v5,2020.2.10,MacIntel,60,61025ae37ef11b136ea224fe,,,,,,,,,2079,48.42047119,-18.55838013,1,0,0,response3disk,,5,16.293396,1.325195313,1,0,0,rectangle,16.293396,1.325195313,1,0,0,16.293396,1.325195313,1,0,0,0,136,136,39,1,,,,,,,,
,,,,,,,,,,,,,FF,,,,,,,,0.3493,,,,,,,,,,,,,,,,,,,,,,6100b21cf563ca9a72200a94,61036b2ee75a225ae419689e,2021-07-29_23h00.19.672,Simcolourproject_2stim_asymm_v5,2020.2.10,MacIntel,60,61025ae37ef11b136ea224fe,,,,,,,,,3151,25.72473145,-45.66894531,1,0,0,response3disk,,4,5.729125977,-0.333374023,1,0,0,rectangle,5.729125977,-0.333374023,1,0,0,5.729125977,-0.333374023,1,0,0,0,137,137,156,1,,,,,,,,
,,,,,,,,,,,,,FF,,,,,,,,1.1661,,,,,,,,,,,,,,,,,,,,,,6100b21cf563ca9a72200a94,61036b2ee75a225ae419689e,2021-07-29_23h00.19.672,Simcolourproject_2stim_asymm_v5,2020.2.10,MacIntel,60,61025ae37ef11b136ea224fe,,,,,,,,,2703,46.0065918,-16.83789063,1,0,0,response3disk,,5,19.65856934,-0.616760254,1,0,0,rectangle,19.65856934,-0.616760254,1,0,0,19.65856934,-0.616760254,1,0,0,0,138,138,146,1,,,,,,,,
,,,,,,,,,,,,,FF,,,,,,,,0.5004,,,,,,,,,,,,,,,,,,,,,,6100b21cf563ca9a72200a94,61036b2ee75a225ae419689e,2021-07-29_23h00.19.672,Simcolourproject_2stim_asymm_v5,2020.2.10,MacIntel,60,61025ae37ef11b136ea224fe,,,,,,,,,1972,-25.67486572,-43.51486206,1,0,0,response5disk,,3,5.791259766,-4.827087402,1,0,0,rectangle,5.791259766,-4.827087402,1,0,0,5.791259766,-4.827087402,1,0,0,0,139,139,6,1,,,,,,,,
,,,,,,,,,,,,,FF,,,,,,,,0.7494,,,,,,,,,,,,,,,,,,,,,,6100b21cf563ca9a72200a94,61036b2ee75a225ae419689e,2021-07-29_23h00.19.672,Simcolourproject_2stim_asymm_v5,2020.2.10,MacIntel,60,61025ae37ef11b136ea224fe,,,,,,,,,3150,-44.15863037,-20.93927002,1,0,0,response5disk,,2,-8.616882324,-4.631286621,1,0,0,rectangle,-8.616882324,-4.631286621,1,0,0,-8.616882324,-4.631286621,1,0,0,0,140,140,102,1,,,,,,,,
,,,,,,,,,,,,,FF,,,,,,,,1.0832,,,,,,,,,,,,,,,,,,,,,,6100b21cf563ca9a72200a94,61036b2ee75a225ae419689e,2021-07-29_23h00.19.672,Simcolourproject_2stim_asymm_v5,2020.2.10,MacIntel,60,61025ae37ef11b136ea224fe,,,,,,,,,288,23.84429932,43.68865967,1,0,0,response1disk,,7,7.138916016,-1.821655273,1,0,0,rectangle,7.138916016,-1.821655273,1,0,0,7.138916016,-1.821655273,1,0,0,0,141,141,152,1,,,,,,,,
,,,,,,,,,,,,,FF,,,,,,,,0.8157,,,,,,,,,,,,,,,,,,,,,,6100b21cf563ca9a72200a94,61036b2ee75a225ae419689e,2021-07-29_23h00.19.672,Simcolourproject_2stim_asymm_v5,2020.2.10,MacIntel,60,61025ae37ef11b136ea224fe,,,,,,,,,3743,-52.60247803,27.43511963,1,0,0,response7disk,,1,10.11920166,0.014099121,1,0,0,rectangle,10.11920166,0.014099121,1,0,0,10.11920166,0.014099121,1,0,0,0,142,142,141,1,,,,,,,,
,,,,,,,,,,,,,FF,,,,,,,,1.3499,,,,,,,,,,,,,,,,,,,,,,6100b21cf563ca9a72200a94,61036b2ee75a225ae419689e,2021-07-29_23h00.19.672,Simcolourproject_2stim_asymm_v5,2020.2.10,MacIntel,60,61025ae37ef11b136ea224fe,,,,,,,,,173,-19.06988525,-41.46630859,1,0,0,response5disk,,3,3.158081055,-0.98638916,1,0,0,rectangle,3.158081055,-0.98638916,1,0,0,3.158081055,-0.98638916,1,0,0,0,143,143,126,1,,,,,,,,
,,,,,,,,,,,,,FF,,,,,,,,0.6996,,,,,,,,,,,,,,,,,,,,,,6100b21cf563ca9a72200a94,61036b2ee75a225ae419689e,2021-07-29_23h00.19.672,Simcolourproject_2stim_asymm_v5,2020.2.10,MacIntel,60,61025ae37ef11b136ea224fe,,,,,,,,,4362,-29.38330078,62.00848389,1,0,0,response7disk,,0,3.676635742,1.848083496,1,0,0,rectangle,3.676635742,1.848083496,1,0,0,3.676635742,1.848083496,1,0,0,0,144,144,103,1,,,,,,,,
,,,,,,,,,,,,,FF,,,,,,,,0.6669,,,,,,,,,,,,,,,,,,,,,,6100b21cf563ca9a72200a94,61036b2ee75a225ae419689e,2021-07-29_23h00.19.672,Simcolourproject_2stim_asymm_v5,2020.2.10,MacIntel,60,61025ae37ef11b136ea224fe,,,,,,,,,515,-30.23754883,-34.30877686,1,0,0,response5disk,,3,-8.646118164,0.90802002,1,0,0,rectangle,-8.646118164,0.90802002,1,0,0,-8.646118164,0.90802002,1,0,0,0,145,145,83,1,,,,,,,,
,,,,,,,,,,,,,FF,,,,,,,,7.5654,,,,,,,,,,,,,,,,,,,,,,6100b21cf563ca9a72200a94,61036b2ee75a225ae419689e,2021-07-29_23h00.19.672,Simcolourproject_2stim_asymm_v5,2020.2.10,MacIntel,60,61025ae37ef11b136ea224fe,,,,,,,,,1841,57.57476807,-32.8092041,1,0,0,response3disk,,5,-4.834533691,-8.080749512,1,0,0,rectangle,-4.834533691,-8.080749512,1,0,0,-4.834533691,-8.080749512,1,0,0,0,146,146,130,1,,,,,,,,
,,,,,,,,,,,,,FF,,,,,,,,0.5007,,,,,,,,,,,,,,,,,,,,,,6100b21cf563ca9a72200a94,61036b2ee75a225ae419689e,2021-07-29_23h00.19.672,Simcolourproject_2stim_asymm_v5,2020.2.10,MacIntel,60,61025ae37ef11b136ea224fe,,,,,,,,,3423,29.63970947,-31.46118164,1,0,0,response3disk,,4,3.496459961,7.689605713,1,0,0,rectangle,3.496459961,7.689605713,1,0,0,3.496459961,7.689605713,1,0,0,0,147,147,24,1,,,,,,,,
,,,,,,,,,,,,,FF,,,,,,,,0.4178,,,,,,,,,,,,,,,,,,,,,,6100b21cf563ca9a72200a94,61036b2ee75a225ae419689e,2021-07-29_23h00.19.672,Simcolourproject_2stim_asymm_v5,2020.2.10,MacIntel,60,61025ae37ef11b136ea224fe,,,,,,,,,353,57.72473145,32.86657715,1,0,0,response1disk,,6,-8.950073242,13.06765747,1,0,0,rectangle,-8.950073242,13.06765747,1,0,0,-8.950073242,13.06765747,1,0,0,0,148,148,89,1,,,,,,,,
,,,,,,,,,,,,,FF,,,,,,,,1.0001,,,,,,,,,,,,,,,,,,,,,,6100b21cf563ca9a72200a94,61036b2ee75a225ae419689e,2021-07-29_23h00.19.672,Simcolourproject_2stim_asymm_v5,2020.2.10,MacIntel,60,61025ae37ef11b136ea224fe,,,,,,,,,4199,40.55072021,-21.31515503,1,0,0,response3disk,,5,16.98822021,-4.716674805,1,0,0,rectangle,16.98822021,-4.716674805,1,0,0,16.98822021,-4.716674805,1,0,0,0,149,149,99,1,,,,,,,,
,,,,,,,,,,,,,FF,,,,,,,,0.8507,,,,,,,,,,,,,,,,,,,,,,6100b21cf563ca9a72200a94,61036b2ee75a225ae419689e,2021-07-29_23h00.19.672,Simcolourproject_2stim_asymm_v5,2020.2.10,MacIntel,60,61025ae37ef11b136ea224fe,,,,,,,,,869,45.09460449,-52.64263916,1,0,0,response3disk,,4,27.48217773,-6.056152344,1,0,0,rectangle,27.48217773,-6.056152344,1,0,0,27.48217773,-6.056152344,1,0,0,0,150,150,29,1,,,,,,,,
,,,,,,,,,,,,,FF,,,,,,,,0.9841,,,,,,,,,,,,,,,,,,,,,,6100b21cf563ca9a72200a94,61036b2ee75a225ae419689e,2021-07-29_23h00.19.672,Simcolourproject_2stim_asymm_v5,2020.2.10,MacIntel,60,61025ae37ef11b136ea224fe,,,,,,,,,991,35.91040039,18.12957764,1,0,0,response1disk,,6,7.238098145,-1.161987305,1,0,0,rectangle,7.238098145,-1.161987305,1,0,0,7.238098145,-1.161987305,1,0,0,0,151,151,58,1,,,,,,,,
,,,,,,,,,,,,,FF,,,,,,,,0.9169,,,,,,,,,,,,,,,,,,,,,,6100b21cf563ca9a72200a94,61036b2ee75a225ae419689e,2021-07-29_23h00.19.672,Simcolourproject_2stim_asymm_v5,2020.2.10,MacIntel,60,61025ae37ef11b136ea224fe,,,,,,,,,807,-46.02966309,-30.74014282,1,0,0,response5disk,,2,-0.010742188,-3.597839355,1,0,0,rectangle,-0.010742188,-3.597839355,1,0,0,-0.010742188,-3.597839355,1,0,0,0,152,152,105,1,,,,,,,,
,,,,,,,,,,,,,FF,,,,,,,,0.8997,,,,,,,,,,,,,,,,,,,,,,6100b21cf563ca9a72200a94,61036b2ee75a225ae419689e,2021-07-29_23h00.19.672,Simcolourproject_2stim_asymm_v5,2020.2.10,MacIntel,60,61025ae37ef11b136ea224fe,,,,,,,,,1888,-32.88256836,16.18218994,1,0,0,response7disk,,1,9.55871582,-5.998901367,1,0,0,rectangle,9.55871582,-5.998901367,1,0,0,9.55871582,-5.998901367,1,0,0,0,153,153,134,1,,,,,,,,
,,,,,,,,,,,,,FF,,,,,,,,0.6492,,,,,,,,,,,,,,,,,,,,,,6100b21cf563ca9a72200a94,61036b2ee75a225ae419689e,2021-07-29_23h00.19.672,Simcolourproject_2stim_asymm_v5,2020.2.10,MacIntel,60,61025ae37ef11b136ea224fe,,,,,,,,,2969,43.97485352,-27.58963013,1,0,0,response3disk,,5,15.35864258,-2.267028809,1,0,0,rectangle,15.35864258,-2.267028809,1,0,0,15.35864258,-2.267028809,1,0,0,0,154,154,122,1,,,,,,,,
,,,,,,,,,,,,,FF,,,,,,,,7.9843,,,,,,,,,,,,,,,,,,,,,,6100b21cf563ca9a72200a94,61036b2ee75a225ae419689e,2021-07-29_23h00.19.672,Simcolourproject_2stim_asymm_v5,2020.2.10,MacIntel,60,61025ae37ef11b136ea224fe,,,,,,,,,1217,32.06225586,-19.79901123,1,0,0,response3disk,,5,4.05871582,10.12597656,1,0,0,rectangle,4.05871582,10.12597656,1,0,0,4.05871582,10.12597656,1,0,0,0,155,155,140,1,,,,,,,,
,,,,,,,,,,,,,FF,,,,,,,,0.7847,,,,,,,,,,,,,,,,,,,,,,6100b21cf563ca9a72200a94,61036b2ee75a225ae419689e,2021-07-29_23h00.19.672,Simcolourproject_2stim_asymm_v5,2020.2.10,MacIntel,60,61025ae37ef11b136ea224fe,,,,,,,,,340,54.63378906,22.17779541,1,0,0,response1disk,,6,14.34741211,-3.877929688,1,0,0,rectangle,14.34741211,-3.877929688,1,0,0,14.34741211,-3.877929688,1,0,0,0,156,156,123,1,,,,,,,,
,,,,,,,,,,,,,FF,,,,,,,,0.3836,,,,,,,,,,,,,,,,,,,,,,6100b21cf563ca9a72200a94,61036b2ee75a225ae419689e,2021-07-29_23h00.19.672,Simcolourproject_2stim_asymm_v5,2020.2.10,MacIntel,60,61025ae37ef11b136ea224fe,,,,,,,,,1955,49.84844971,-38.62188721,1,0,0,response3disk,,5,-3.256652832,0.784729004,1,0,0,rectangle,-3.256652832,0.784729004,1,0,0,-3.256652832,0.784729004,1,0,0,0,157,157,98,1,,,,,,,,
,,,,,,,,,,,,,FF,,,,,,,,0.8334,,,,,,,,,,,,,,,,,,,,,,6100b21cf563ca9a72200a94,61036b2ee75a225ae419689e,2021-07-29_23h00.19.672,Simcolourproject_2stim_asymm_v5,2020.2.10,MacIntel,60,61025ae37ef11b136ea224fe,,,,,,,,,543,-21.88067627,56.94073486,1,0,0,response7disk,,0,-12.54388428,-9.911010742,1,0,0,rectangle,-12.54388428,-9.911010742,1,0,0,-12.54388428,-9.911010742,1,0,0,0,158,158,157,1,,,,,,,,
,,,,,,,,,,,,,FF,,,,,,,,0.6335,,,,,,,,,,,,,,,,,,,,,,6100b21cf563ca9a72200a94,61036b2ee75a225ae419689e,2021-07-29_23h00.19.672,Simcolourproject_2stim_asymm_v5,2020.2.10,MacIntel,60,61025ae37ef11b136ea224fe,,,,,,,,,1274,-22.28686523,-18.36767578,1,0,0,response5disk,,2,4.422607422,-3.987609863,1,0,0,rectangle,4.422607422,-3.987609863,1,0,0,4.422607422,-3.987609863,1,0,0,0,159,159,42,1,,,,,,,,
,,,,,,,,,,,,,FF,,,,,,,,0.9669,,,,,,,,,,,,,,,,,,,,,,6100b21cf563ca9a72200a94,61036b2ee75a225ae419689e,2021-07-29_23h00.19.672,Simcolourproject_2stim_asymm_v5,2020.2.10,MacIntel,60,61025ae37ef11b136ea224fe,,,,,,,,,1122,29.93127441,40.41915894,1,0,0,response1disk,,7,21.93469238,11.49530029,1,0,0,rectangle,21.93469238,11.49530029,1,0,0,21.93469238,11.49530029,1,0,0,1,0,160,68,1,,,,,,,,
,,,,,,,,,,,,,FF,,,,,,,,0.7496,,,,,,,,,,,,,,,,,,,,,,6100b21cf563ca9a72200a94,61036b2ee75a225ae419689e,2021-07-29_23h00.19.672,Simcolourproject_2stim_asymm_v5,2020.2.10,MacIntel,60,61025ae37ef11b136ea224fe,,,,,,,,,2418,-28.07049561,50.6965332,1,0,0,response7disk,,0,-11.14929199,7.454589844,1,0,0,rectangle,-11.14929199,7.454589844,1,0,0,-11.14929199,7.454589844,1,0,0,1,1,161,37,1,,,,,,,,
,,,,,,,,,,,,,FF,,,,,,,,0.4166,,,,,,,,,,,,,,,,,,,,,,6100b21cf563ca9a72200a94,61036b2ee75a225ae419689e,2021-07-29_23h00.19.672,Simcolourproject_2stim_asymm_v5,2020.2.10,MacIntel,60,61025ae37ef11b136ea224fe,,,,,,,,,1273,58.82873535,14.71536255,1,0,0,response1disk,,6,-5.927368164,5.841369629,1,0,0,rectangle,-5.927368164,5.841369629,1,0,0,-5.927368164,5.841369629,1,0,0,1,2,162,65,1,,,,,,,,
,,,,,,,,,,,,,FF,,,,,,,,0.4322,,,,,,,,,,,,,,,,,,,,,,6100b21cf563ca9a72200a94,61036b2ee75a225ae419689e,2021-07-29_23h00.19.672,Simcolourproject_2stim_asymm_v5,2020.2.10,MacIntel,60,61025ae37ef11b136ea224fe,,,,,,,,,3729,59.34411621,13.66629028,1,0,0,response1disk,,6,-0.70880127,-8.074462891,1,0,0,rectangle,-0.70880127,-8.074462891,1,0,0,-0.70880127,-8.074462891,1,0,0,1,3,163,82,1,,,,,,,,
,,,,,,,,,,,,,FF,,,,,,,,0.4996,,,,,,,,,,,,,,,,,,,,,,6100b21cf563ca9a72200a94,61036b2ee75a225ae419689e,2021-07-29_23h00.19.672,Simcolourproject_2stim_asymm_v5,2020.2.10,MacIntel,60,61025ae37ef11b136ea224fe,,,,,,,,,2560,23.38793945,40.97180176,1,0,0,response1disk,,7,17.54418945,11.7376709,1,0,0,rectangle,17.54418945,11.7376709,1,0,0,17.54418945,11.7376709,1,0,0,1,4,164,69,1,,,,,,,,
,,,,,,,,,,,,,FF,,,,,,,,0.5662,,,,,,,,,,,,,,,,,,,,,,6100b21cf563ca9a72200a94,61036b2ee75a225ae419689e,2021-07-29_23h00.19.672,Simcolourproject_2stim_asymm_v5,2020.2.10,MacIntel,60,61025ae37ef11b136ea224fe,,,,,,,,,1587,22.37811279,48.30853271,1,0,0,response1disk,,7,10.64660645,6.293640137,1,0,0,rectangle,10.64660645,6.293640137,1,0,0,10.64660645,6.293640137,1,0,0,1,5,165,40,1,,,,,,,,
,,,,,,,,,,,,,FF,,,,,,,,0.6495,,,,,,,,,,,,,,,,,,,,,,6100b21cf563ca9a72200a94,61036b2ee75a225ae419689e,2021-07-29_23h00.19.672,Simcolourproject_2stim_asymm_v5,2020.2.10,MacIntel,60,61025ae37ef11b136ea224fe,,,,,,,,,1702,25.64666748,40.60961914,1,0,0,response1disk,,7,20.71557617,0.417663574,1,0,0,rectangle,20.71557617,0.417663574,1,0,0,20.71557617,0.417663574,1,0,0,1,6,166,128,1,,,,,,,,
,,,,,,,,,,,,,FF,,,,,,,,0.5668,,,,,,,,,,,,,,,,,,,,,,6100b21cf563ca9a72200a94,61036b2ee75a225ae419689e,2021-07-29_23h00.19.672,Simcolourproject_2stim_asymm_v5,2020.2.10,MacIntel,60,61025ae37ef11b136ea224fe,,,,,,,,,2417,55.90270996,18.78170776,1,0,0,response1disk,,6,20.28265381,-4.947570801,1,0,0,rectangle,20.28265381,-4.947570801,1,0,0,20.28265381,-4.947570801,1,0,0,1,7,167,14,1,,,,,,,,
,,,,,,,,,,,,,FF,,,,,,,,0.5665,,,,,,,,,,,,,,,,,,,,,,6100b21cf563ca9a72200a94,61036b2ee75a225ae419689e,2021-07-29_23h00.19.672,Simcolourproject_2stim_asymm_v5,2020.2.10,MacIntel,60,61025ae37ef11b136ea224fe,,,,,,,,,935,38.38208008,-19.56219482,1,0,0,response3disk,,5,6.890869141,0.28994751,1,0,0,rectangle,6.890869141,0.28994751,1,0,0,6.890869141,0.28994751,1,0,0,1,8,168,122,1,,,,,,,,
,,,,,,,,,,,,,FF,,,,,,,,0.6,,,,,,,,,,,,,,,,,,,,,,6100b21cf563ca9a72200a94,61036b2ee75a225ae419689e,2021-07-29_23h00.19.672,Simcolourproject_2stim_asymm_v5,2020.2.10,MacIntel,60,61025ae37ef11b136ea224fe,,,,,,,,,3819,60.3895874,21.74523926,1,0,0,response1disk,,6,-15.37139893,5.954101563,1,0,0,rectangle,-15.37139893,5.954101563,1,0,0,-15.37139893,5.954101563,1,0,0,1,9,169,61,1,,,,,,,,
,,,,,,,,,,,,,FF,,,,,,,,0.5336,,,,,,,,,,,,,,,,,,,,,,6100b21cf563ca9a72200a94,61036b2ee75a225ae419689e,2021-07-29_23h00.19.672,Simcolourproject_2stim_asymm_v5,2020.2.10,MacIntel,60,61025ae37ef11b136ea224fe,,,,,,,,,1318,-21.92926025,-12.78451538,1,0,0,response5disk,,2,-0.524108887,4.453826904,1,0,0,rectangle,-0.524108887,4.453826904,1,0,0,-0.524108887,4.453826904,1,0,0,1,10,170,84,1,,,,,,,,
,,,,,,,,,,,,,FF,,,,,,,,0.7997,,,,,,,,,,,,,,,,,,,,,,6100b21cf563ca9a72200a94,61036b2ee75a225ae419689e,2021-07-29_23h00.19.672,Simcolourproject_2stim_asymm_v5,2020.2.10,MacIntel,60,61025ae37ef11b136ea224fe,,,,,,,,,657,30.19128418,-20.44116211,1,0,0,response3disk,,5,9.786193848,-5.345581055,1,0,0,rectangle,9.786193848,-5.345581055,1,0,0,9.786193848,-5.345581055,1,0,0,1,11,171,31,1,,,,,,,,
,,,,,,,,,,,,,FF,,,,,,,,0.8842,,,,,,,,,,,,,,,,,,,,,,6100b21cf563ca9a72200a94,61036b2ee75a225ae419689e,2021-07-29_23h00.19.672,Simcolourproject_2stim_asymm_v5,2020.2.10,MacIntel,60,61025ae37ef11b136ea224fe,,,,,,,,,4352,-46.40307617,26.46658325,1,0,0,response7disk,,1,-12.87017822,8.08984375,1,0,0,rectangle,-12.87017822,8.08984375,1,0,0,-12.87017822,8.08984375,1,0,0,1,12,172,149,1,,,,,,,,
,,,,,,,,,,,,,FF,,,,,,,,2.1011,,,,,,,,,,,,,,,,,,,,,,6100b21cf563ca9a72200a94,61036b2ee75a225ae419689e,2021-07-29_23h00.19.672,Simcolourproject_2stim_asymm_v5,2020.2.10,MacIntel,60,61025ae37ef11b136ea224fe,,,,,,,,,2478,-34.07348633,-29.75271606,1,0,0,response5disk,,2,-22.9508667,-4.30456543,1,0,0,rectangle,-22.9508667,-4.30456543,1,0,0,-22.9508667,-4.30456543,1,0,0,1,13,173,59,1,,,,,,,,
,,,,,,,,,,,,,FF,,,,,,,,0.6165,,,,,,,,,,,,,,,,,,,,,,6100b21cf563ca9a72200a94,61036b2ee75a225ae419689e,2021-07-29_23h00.19.672,Simcolourproject_2stim_asymm_v5,2020.2.10,MacIntel,60,61025ae37ef11b136ea224fe,,,,,,,,,1654,30.58398438,-19.36413574,1,0,0,response3disk,,5,-0.408203125,-1.618347168,1,0,0,rectangle,-0.408203125,-1.618347168,1,0,0,-0.408203125,-1.618347168,1,0,0,1,14,174,60,1,,,,,,,,
,,,,,,,,,,,,,FF,,,,,,,,1.1826,,,,,,,,,,,,,,,,,,,,,,6100b21cf563ca9a72200a94,61036b2ee75a225ae419689e,2021-07-29_23h00.19.672,Simcolourproject_2stim_asymm_v5,2020.2.10,MacIntel,60,61025ae37ef11b136ea224fe,,,,,,,,,3940,-34.11120605,-12.92480469,1,0,0,response5disk,,2,-3.52722168,11.69116211,1,0,0,rectangle,-3.52722168,11.69116211,1,0,0,-3.52722168,11.69116211,1,0,0,1,15,175,156,1,,,,,,,,
,,,,,,,,,,,,,FF,,,,,,,,0.7621,,,,,,,,,,,,,,,,,,,,,,6100b21cf563ca9a72200a94,61036b2ee75a225ae419689e,2021-07-29_23h00.19.672,Simcolourproject_2stim_asymm_v5,2020.2.10,MacIntel,60,61025ae37ef11b136ea224fe,,,,,,,,,2886,-30.3416748,51.07574463,1,0,0,response7disk,,0,-12.82666016,3.193481445,1,0,0,rectangle,-12.82666016,3.193481445,1,0,0,-12.82666016,3.193481445,1,0,0,1,16,176,64,1,,,,,,,,
,,,,,,,,,,,,,FF,,,,,,,,1.8167,,,,,,,,,,,,,,,,,,,,,,6100b21cf563ca9a72200a94,61036b2ee75a225ae419689e,2021-07-29_23h00.19.672,Simcolourproject_2stim_asymm_v5,2020.2.10,MacIntel,60,61025ae37ef11b136ea224fe,,,,,,,,,3874,29.6361084,-40.57336426,1,0,0,response3disk,,4,10.77307129,7.265991211,1,0,0,rectangle,10.77307129,7.265991211,1,0,0,10.77307129,7.265991211,1,0,0,1,17,177,93,1,,,,,,,,
,,,,,,,,,,,,,FF,,,,,,,,0.5822,,,,,,,,,,,,,,,,,,,,,,6100b21cf563ca9a72200a94,61036b2ee75a225ae419689e,2021-07-29_23h00.19.672,Simcolourproject_2stim_asymm_v5,2020.2.10,MacIntel,60,61025ae37ef11b136ea224fe,,,,,,,,,639,42.42919922,22.2310791,1,0,0,response1disk,,6,12.25384521,-0.106292725,1,0,0,rectangle,46.86846924,26.78771973,1,0,0,23.98443604,2.476501465,1,0,0,1,18,178,109,1,,response1disk_3,TRUE,6,6,"[181,252,192,121,302,121,130,72,292,31,314,206,280,32,179,8,89,217,89,258]",1.5328,rectangle
,,,,,,,,,,,,,FF,,,,,,,,0.4337,,,,,,,,,,,,,,,,,,,,,,6100b21cf563ca9a72200a94,61036b2ee75a225ae419689e,2021-07-29_23h00.19.672,Simcolourproject_2stim_asymm_v5,2020.2.10,MacIntel,60,61025ae37ef11b136ea224fe,,,,,,,,,3634,41.64880371,14.59008789,1,0,0,response1disk,,6,8.575500488,-2.607543945,1,0,0,rectangle,8.575500488,-2.607543945,1,0,0,8.575500488,-2.607543945,1,0,0,1,19,179,110,1,,,,,,,,
,,,,,,,,,,,,,FF,,,,,,,,0.3321,,,,,,,,,,,,,,,,,,,,,,6100b21cf563ca9a72200a94,61036b2ee75a225ae419689e,2021-07-29_23h00.19.672,Simcolourproject_2stim_asymm_v5,2020.2.10,MacIntel,60,61025ae37ef11b136ea224fe,,,,,,,,,2207,41.37976074,-36.73120117,1,0,0,response3disk,,5,4.772949219,-13.11724854,1,0,0,rectangle,30.9932251,64.84625244,1,0,0,4.572631836,1.267456055,1,0,0,1,20,180,89,1,,response1disk_3,TRUE,7,7,"[181,252,192,121,302,121,130,72,292,31,314,206,280,32,179,8,89,217,89,258]",2.0323,rectangle
,,,,,,,,,,,,,FF,,,,,,,,1.1488,,,,,,,,,,,,,,,,,,,,,,6100b21cf563ca9a72200a94,61036b2ee75a225ae419689e,2021-07-29_23h00.19.672,Simcolourproject_2stim_asymm_v5,2020.2.10,MacIntel,60,61025ae37ef11b136ea224fe,,,,,,,,,4099,-38.35089111,-29.72137451,1,0,0,response5disk,,2,-7.35333252,-14.29602051,1,0,0,rectangle,-7.35333252,-14.29602051,1,0,0,-7.35333252,-14.29602051,1,0,0,1,21,181,55,1,,,,,,,,
,,,,,,,,,,,,,FF,,,,,,,,0.8653,,,,,,,,,,,,,,,,,,,,,,6100b21cf563ca9a72200a94,61036b2ee75a225ae419689e,2021-07-29_23h00.19.672,Simcolourproject_2stim_asymm_v5,2020.2.10,MacIntel,60,61025ae37ef11b136ea224fe,,,,,,,,,3378,-36.26501465,-16.48583984,1,0,0,response5disk,,2,-20.51287842,-1.37121582,1,0,0,rectangle,-20.51287842,-1.37121582,1,0,0,-20.51287842,-1.37121582,1,0,0,1,22,182,85,1,,,,,,,,
,,,,,,,,,,,,,FF,,,,,,,,1.4321,,,,,,,,,,,,,,,,,,,,,,6100b21cf563ca9a72200a94,61036b2ee75a225ae419689e,2021-07-29_23h00.19.672,Simcolourproject_2stim_asymm_v5,2020.2.10,MacIntel,60,61025ae37ef11b136ea224fe,,,,,,,,,2297,52.76324463,24.70056152,1,0,0,response1disk,,6,20.50952148,6.325378418,1,0,0,rectangle,20.50952148,6.325378418,1,0,0,20.50952148,6.325378418,1,0,0,1,23,183,146,1,,,,,,,,
,,,,,,,,,,,,,FF,,,,,,,,0.5844,,,,,,,,,,,,,,,,,,,,,,6100b21cf563ca9a72200a94,61036b2ee75a225ae419689e,2021-07-29_23h00.19.672,Simcolourproject_2stim_asymm_v5,2020.2.10,MacIntel,60,61025ae37ef11b136ea224fe,,,,,,,,,3017,58.46777344,25.91949463,1,0,0,response1disk,,6,24.87017822,10.13821411,1,0,0,rectangle,24.87017822,10.13821411,1,0,0,24.87017822,10.13821411,1,0,0,1,24,184,45,1,,,,,,,,
,,,,,,,,,,,,,FF,,,,,,,,0.3339,,,,,,,,,,,,,,,,,,,,,,6100b21cf563ca9a72200a94,61036b2ee75a225ae419689e,2021-07-29_23h00.19.672,Simcolourproject_2stim_asymm_v5,2020.2.10,MacIntel,60,61025ae37ef11b136ea224fe,,,,,,,,,1804,21.77789307,42.89175415,1,0,0,response1disk,,7,14.51818848,-11.89242554,1,0,0,rectangle,14.51818848,-11.89242554,1,0,0,14.51818848,-11.89242554,1,0,0,1,25,185,24,1,,,,,,,,
,,,,,,,,,,,,,FF,,,,,,,,0.3497,,,,,,,,,,,,,,,,,,,,,,6100b21cf563ca9a72200a94,61036b2ee75a225ae419689e,2021-07-29_23h00.19.672,Simcolourproject_2stim_asymm_v5,2020.2.10,MacIntel,60,61025ae37ef11b136ea224fe,,,,,,,,,456,47.62701416,-21.1965332,1,0,0,response3disk,,5,15.90643311,-3.134490967,1,0,0,rectangle,15.90643311,-3.134490967,1,0,0,15.90643311,-3.134490967,1,0,0,1,26,186,70,1,,,,,,,,
,,,,,,,,,,,,,FF,,,,,,,,0.4848,,,,,,,,,,,,,,,,,,,,,,6100b21cf563ca9a72200a94,61036b2ee75a225ae419689e,2021-07-29_23h00.19.672,Simcolourproject_2stim_asymm_v5,2020.2.10,MacIntel,60,61025ae37ef11b136ea224fe,,,,,,,,,1695,55.54412842,31.83959961,1,0,0,response1disk,,6,24.83288574,0.293518066,1,0,0,rectangle,24.83288574,0.293518066,1,0,0,24.83288574,0.293518066,1,0,0,1,27,187,58,1,,,,,,,,
,,,,,,,,,,,,,FF,,,,,,,,1.4013,,,,,,,,,,,,,,,,,,,,,,6100b21cf563ca9a72200a94,61036b2ee75a225ae419689e,2021-07-29_23h00.19.672,Simcolourproject_2stim_asymm_v5,2020.2.10,MacIntel,60,61025ae37ef11b136ea224fe,,,,,,,,,264,-32.7467041,-17.6362915,1,0,0,response5disk,,2,8.615783691,11.94039917,1,0,0,rectangle,8.615783691,11.94039917,1,0,0,8.615783691,11.94039917,1,0,0,1,28,188,77,1,,,,,,,,
,,,,,,,,,,,,,FF,,,,,,,,0.7333,,,,,,,,,,,,,,,,,,,,,,6100b21cf563ca9a72200a94,61036b2ee75a225ae419689e,2021-07-29_23h00.19.672,Simcolourproject_2stim_asymm_v5,2020.2.10,MacIntel,60,61025ae37ef11b136ea224fe,,,,,,,,,2614,-15.92810059,-41.95227051,1,0,0,response5disk,,3,3.435791016,-8.800842285,1,0,0,rectangle,3.435791016,-8.800842285,1,0,0,3.435791016,-8.800842285,1,0,0,1,29,189,63,1,,,,,,,,
,,,,,,,,,,,,,FF,,,,,,,,0.3995,,,,,,,,,,,,,,,,,,,,,,6100b21cf563ca9a72200a94,61036b2ee75a225ae419689e,2021-07-29_23h00.19.672,Simcolourproject_2stim_asymm_v5,2020.2.10,MacIntel,60,61025ae37ef11b136ea224fe,,,,,,,,,3719,23.40533447,-34.27056885,1,0,0,response3disk,,4,16.29180908,13.04229736,1,0,0,rectangle,16.29180908,13.04229736,1,0,0,16.29180908,13.04229736,1,0,0,1,30,190,8,1,,,,,,,,
,,,,,,,,,,,,,FF,,,,,,,,0.6014,,,,,,,,,,,,,,,,,,,,,,6100b21cf563ca9a72200a94,61036b2ee75a225ae419689e,2021-07-29_23h00.19.672,Simcolourproject_2stim_asymm_v5,2020.2.10,MacIntel,60,61025ae37ef11b136ea224fe,,,,,,,,,3725,24.21496582,42.03491211,1,0,0,response1disk,,7,22.88476563,1.696228027,1,0,0,rectangle,18.20050049,47.44247437,1,0,0,14.40460205,8.397705078,1,0,0,1,31,191,73,1,,response1disk_3,TRUE,7,7,"[181,252,192,121,302,121,130,72,292,31,314,206,280,32,179,8,89,217,89,258]",1.1827,rectangle
,,,,,,,,,,,,,FF,,,,,,,,68.0308,,,,,,,,,,,,,,,,,,,,,,6100b21cf563ca9a72200a94,61036b2ee75a225ae419689e,2021-07-29_23h00.19.672,Simcolourproject_2stim_asymm_v5,2020.2.10,MacIntel,60,61025ae37ef11b136ea224fe,,,,,,,,,835,44.56335449,27.93438721,1,0,0,response1disk,,6,33.26226807,6.174072266,1,0,0,rectangle,33.26226807,6.174072266,1,0,0,33.26226807,6.174072266,1,0,0,1,32,192,36,1,,,,,,,,
,,,,,,,,,,,,,FF,,,,,,,,0.8832,,,,,,,,,,,,,,,,,,,,,,6100b21cf563ca9a72200a94,61036b2ee75a225ae419689e,2021-07-29_23h00.19.672,Simcolourproject_2stim_asymm_v5,2020.2.10,MacIntel,60,61025ae37ef11b136ea224fe,,,,,,,,,205,24.96166992,-40.48828125,1,0,0,response3disk,,4,15.00854492,-9.577392578,1,0,0,rectangle,15.00854492,-9.577392578,1,0,0,15.00854492,-9.577392578,1,0,0,1,33,193,147,1,,,,,,,,
,,,,,,,,,,,,,FF,,,,,,,,0.3995,,,,,,,,,,,,,,,,,,,,,,6100b21cf563ca9a72200a94,61036b2ee75a225ae419689e,2021-07-29_23h00.19.672,Simcolourproject_2stim_asymm_v5,2020.2.10,MacIntel,60,61025ae37ef11b136ea224fe,,,,,,,,,996,54.85150146,-35.21380615,1,0,0,response3disk,,5,4.617431641,-5.609680176,1,0,0,rectangle,4.617431641,-5.609680176,1,0,0,4.617431641,-5.609680176,1,0,0,1,34,194,137,1,,,,,,,,
,,,,,,,,,,,,,FF,,,,,,,,0.3483,,,,,,,,,,,,,,,,,,,,,,6100b21cf563ca9a72200a94,61036b2ee75a225ae419689e,2021-07-29_23h00.19.672,Simcolourproject_2stim_asymm_v5,2020.2.10,MacIntel,60,61025ae37ef11b136ea224fe,,,,,,,,,3491,51.91473389,25.48150635,1,0,0,response1disk,,6,-1.393005371,0.795928955,1,0,0,rectangle,-1.393005371,0.795928955,1,0,0,-1.393005371,0.795928955,1,0,0,1,35,195,112,1,,,,,,,,
,,,,,,,,,,,,,FF,,,,,,,,0.5494,,,,,,,,,,,,,,,,,,,,,,6100b21cf563ca9a72200a94,61036b2ee75a225ae419689e,2021-07-29_23h00.19.672,Simcolourproject_2stim_asymm_v5,2020.2.10,MacIntel,60,61025ae37ef11b136ea224fe,,,,,,,,,2449,27.77288818,45.98498535,1,0,0,response1disk,,7,18.08276367,-13.15838623,1,0,0,rectangle,18.08276367,-13.15838623,1,0,0,18.08276367,-13.15838623,1,0,0,1,36,196,143,1,,,,,,,,
,,,,,,,,,,,,,FF,,,,,,,,0.3342,,,,,,,,,,,,,,,,,,,,,,6100b21cf563ca9a72200a94,61036b2ee75a225ae419689e,2021-07-29_23h00.19.672,Simcolourproject_2stim_asymm_v5,2020.2.10,MacIntel,60,61025ae37ef11b136ea224fe,,,,,,,,,1011,38.30895996,-22.58764648,1,0,0,response3disk,,5,1.504638672,3.527404785,1,0,0,rectangle,1.504638672,3.527404785,1,0,0,1.504638672,3.527404785,1,0,0,1,37,197,101,1,,,,,,,,
,,,,,,,,,,,,,FF,,,,,,,,22.549,,,,,,,,,,,,,,,,,,,,,,6100b21cf563ca9a72200a94,61036b2ee75a225ae419689e,2021-07-29_23h00.19.672,Simcolourproject_2stim_asymm_v5,2020.2.10,MacIntel,60,61025ae37ef11b136ea224fe,,,,,,,,,4030,25.62451172,50.16900635,1,0,0,response1disk,,7,22.11645508,4.069732666,1,0,0,rectangle,22.11645508,4.069732666,1,0,0,22.11645508,4.069732666,1,0,0,1,38,198,116,1,,,,,,,,
,,,,,,,,,,,,,FF,,,,,,,,0.8506,,,,,,,,,,,,,,,,,,,,,,6100b21cf563ca9a72200a94,61036b2ee75a225ae419689e,2021-07-29_23h00.19.672,Simcolourproject_2stim_asymm_v5,2020.2.10,MacIntel,60,61025ae37ef11b136ea224fe,,,,,,,,,3053,-41.01635742,-22.16656494,1,0,0,response5disk,,2,-27.07080078,-0.943267822,1,0,0,rectangle,-27.07080078,-0.943267822,1,0,0,-27.07080078,-0.943267822,1,0,0,1,39,199,157,1,,,,,,,,
,,,,,,,,,,,,,FF,,,,,,,,1.0835,,,,,,,,,,,,,,,,,,,,,,6100b21cf563ca9a72200a94,61036b2ee75a225ae419689e,2021-07-29_23h00.19.672,Simcolourproject_2stim_asymm_v5,2020.2.10,MacIntel,60,61025ae37ef11b136ea224fe,,,,,,,,,3121,62.25878906,25.21911621,1,0,0,response1disk,,6,33.33203125,6.961486816,1,0,0,rectangle,33.33203125,6.961486816,1,0,0,33.33203125,6.961486816,1,0,0,1,40,200,152,1,,,,,,,,
,,,,,,,,,,,,,FF,,,,,,,,0.3344,,,,,,,,,,,,,,,,,,,,,,6100b21cf563ca9a72200a94,61036b2ee75a225ae419689e,2021-07-29_23h00.19.672,Simcolourproject_2stim_asymm_v5,2020.2.10,MacIntel,60,61025ae37ef11b136ea224fe,,,,,,,,,3413,48.01647949,-19.63357544,1,0,0,response3disk,,5,1.910400391,-1.491363525,1,0,0,rectangle,1.910400391,-1.491363525,1,0,0,1.910400391,-1.491363525,1,0,0,1,41,201,118,1,,,,,,,,
,,,,,,,,,,,,,FF,,,,,,,,6.6829,,,,,,,,,,,,,,,,,,,,,,6100b21cf563ca9a72200a94,61036b2ee75a225ae419689e,2021-07-29_23h00.19.672,Simcolourproject_2stim_asymm_v5,2020.2.10,MacIntel,60,61025ae37ef11b136ea224fe,,,,,,,,,3752,48.26568604,-25.13562012,1,0,0,response3disk,,5,12.02563477,12.15405273,1,0,0,rectangle,12.02563477,12.15405273,1,0,0,12.02563477,12.15405273,1,0,0,1,42,202,43,1,,,,,,,,
,,,,,,,,,,,,,FF,,,,,,,,0.3831,,,,,,,,,,,,,,,,,,,,,,6100b21cf563ca9a72200a94,61036b2ee75a225ae419689e,2021-07-29_23h00.19.672,Simcolourproject_2stim_asymm_v5,2020.2.10,MacIntel,60,61025ae37ef11b136ea224fe,,,,,,,,,2933,23.81933594,-44.21905518,1,0,0,response3disk,,4,6.979309082,-5.172027588,1,0,0,rectangle,6.979309082,-5.172027588,1,0,0,6.979309082,-5.172027588,1,0,0,1,43,203,62,1,,,,,,,,
,,,,,,,,,,,,,FF,,,,,,,,0.8172,,,,,,,,,,,,,,,,,,,,,,6100b21cf563ca9a72200a94,61036b2ee75a225ae419689e,2021-07-29_23h00.19.672,Simcolourproject_2stim_asymm_v5,2020.2.10,MacIntel,60,61025ae37ef11b136ea224fe,,,,,,,,,4363,-45.13018799,23.60418701,1,0,0,response7disk,,1,15.45257568,9.606628418,1,0,0,rectangle,15.45257568,9.606628418,1,0,0,15.45257568,9.606628418,1,0,0,1,44,204,9,1,,,,,,,,
,,,,,,,,,,,,,FF,,,,,,,,0.8637,,,,,,,,,,,,,,,,,,,,,,6100b21cf563ca9a72200a94,61036b2ee75a225ae419689e,2021-07-29_23h00.19.672,Simcolourproject_2stim_asymm_v5,2020.2.10,MacIntel,60,61025ae37ef11b136ea224fe,,,,,,,,,3542,28.04437256,47.22970581,1,0,0,response1disk,,7,17.31097412,-1.45880127,1,0,0,rectangle,-63.12750244,-30.37023926,1,0,0,-5.360534668,-5.606384277,1,0,0,1,45,205,155,1,,response5disk_3,TRUE,2,2,"[181,252,192,121,302,121,130,72,292,31,314,206,280,32,179,8,89,217,89,258]",7.5165,rectangle
,,,,,,,,,,,,,FF,,,,,,,,0.7999,,,,,,,,,,,,,,,,,,,,,,6100b21cf563ca9a72200a94,61036b2ee75a225ae419689e,2021-07-29_23h00.19.672,Simcolourproject_2stim_asymm_v5,2020.2.10,MacIntel,60,61025ae37ef11b136ea224fe,,,,,,,,,4370,-26.79620361,67.35351563,1,0,0,response7disk,,0,-6.981994629,-5.894744873,1,0,0,rectangle,-6.981994629,-5.894744873,1,0,0,-6.981994629,-5.894744873,1,0,0,1,46,206,79,1,,,,,,,,
,,,,,,,,,,,,,FF,,,,,,,,0.718,,,,,,,,,,,,,,,,,,,,,,6100b21cf563ca9a72200a94,61036b2ee75a225ae419689e,2021-07-29_23h00.19.672,Simcolourproject_2stim_asymm_v5,2020.2.10,MacIntel,60,61025ae37ef11b136ea224fe,,,,,,,,,3002,50.05126953,-16.59008789,1,0,0,response3disk,,5,16.3104248,9.43371582,1,0,0,rectangle,16.3104248,9.43371582,1,0,0,16.3104248,9.43371582,1,0,0,1,47,207,54,1,,,,,,,,
,,,,,,,,,,,,,FF,,,,,,,,0.4655,,,,,,,,,,,,,,,,,,,,,,6100b21cf563ca9a72200a94,61036b2ee75a225ae419689e,2021-07-29_23h00.19.672,Simcolourproject_2stim_asymm_v5,2020.2.10,MacIntel,60,61025ae37ef11b136ea224fe,,,,,,,,,2202,45.97265625,17.53158569,1,0,0,response1disk,,6,8.242431641,6.707824707,1,0,0,rectangle,8.242431641,6.707824707,1,0,0,8.242431641,6.707824707,1,0,0,1,48,208,142,1,,,,,,,,
,,,,,,,,,,,,,FF,,,,,,,,0.7333,,,,,,,,,,,,,,,,,,,,,,6100b21cf563ca9a72200a94,61036b2ee75a225ae419689e,2021-07-29_23h00.19.672,Simcolourproject_2stim_asymm_v5,2020.2.10,MacIntel,60,61025ae37ef11b136ea224fe,,,,,,,,,3880,30.92333984,-20.87426758,1,0,0,response3disk,,5,12.49041748,-3.934692383,1,0,0,rectangle,12.49041748,-3.934692383,1,0,0,12.49041748,-3.934692383,1,0,0,1,49,209,124,1,,,,,,,,
,,,,,,,,,,,,,FF,,,,,,,,0.4322,,,,,,,,,,,,,,,,,,,,,,6100b21cf563ca9a72200a94,61036b2ee75a225ae419689e,2021-07-29_23h00.19.672,Simcolourproject_2stim_asymm_v5,2020.2.10,MacIntel,60,61025ae37ef11b136ea224fe,,,,,,,,,3712,59.73394775,24.39004517,1,0,0,response1disk,,6,14.76501465,0.590026855,1,0,0,rectangle,14.76501465,0.590026855,1,0,0,14.76501465,0.590026855,1,0,0,1,50,210,130,1,,,,,,,,
,,,,,,,,,,,,,FF,,,,,,,,1.2326,,,,,,,,,,,,,,,,,,,,,,6100b21cf563ca9a72200a94,61036b2ee75a225ae419689e,2021-07-29_23h00.19.672,Simcolourproject_2stim_asymm_v5,2020.2.10,MacIntel,60,61025ae37ef11b136ea224fe,,,,,,,,,1604,-40.39648438,-26.61502075,1,0,0,response5disk,,2,-4.780456543,-13.58609009,1,0,0,rectangle,-4.780456543,-13.58609009,1,0,0,-4.780456543,-13.58609009,1,0,0,1,51,211,91,1,,,,,,,,
,,,,,,,,,,,,,FF,,,,,,,,0.8347,,,,,,,,,,,,,,,,,,,,,,6100b21cf563ca9a72200a94,61036b2ee75a225ae419689e,2021-07-29_23h00.19.672,Simcolourproject_2stim_asymm_v5,2020.2.10,MacIntel,60,61025ae37ef11b136ea224fe,,,,,,,,,3959,34.48175049,58.38806152,1,0,0,response1disk,,7,19.78814697,5.92376709,1,0,0,rectangle,19.78814697,5.92376709,1,0,0,19.78814697,5.92376709,1,0,0,1,52,212,80,1,,,,,,,,
,,,,,,,,,,,,,FF,,,,,,,,0.7004,,,,,,,,,,,,,,,,,,,,,,6100b21cf563ca9a72200a94,61036b2ee75a225ae419689e,2021-07-29_23h00.19.672,Simcolourproject_2stim_asymm_v5,2020.2.10,MacIntel,60,61025ae37ef11b136ea224fe,,,,,,,,,1372,-34.11791992,-27.52441406,1,0,0,response5disk,,2,3.99798584,-0.100646973,1,0,0,rectangle,3.99798584,-0.100646973,1,0,0,3.99798584,-0.100646973,1,0,0,1,53,213,44,1,,,,,,,,
,,,,,,,,,,,,,FF,,,,,,,,0.7497,,,,,,,,,,,,,,,,,,,,,,6100b21cf563ca9a72200a94,61036b2ee75a225ae419689e,2021-07-29_23h00.19.672,Simcolourproject_2stim_asymm_v5,2020.2.10,MacIntel,60,61025ae37ef11b136ea224fe,,,,,,,,,3087,15.3770752,42.77667236,1,0,0,response1disk,,7,15.3770752,-0.90045166,1,0,0,rectangle,15.3770752,-0.90045166,1,0,0,15.3770752,-0.90045166,1,0,0,1,54,214,74,1,,,,,,,,
,,,,,,,,,,,,,FF,,,,,,,,1.2999,,,,,,,,,,,,,,,,,,,,,,6100b21cf563ca9a72200a94,61036b2ee75a225ae419689e,2021-07-29_23h00.19.672,Simcolourproject_2stim_asymm_v5,2020.2.10,MacIntel,60,61025ae37ef11b136ea224fe,,,,,,,,,3024,12.88531494,47.45391846,1,0,0,response1disk,,7,12.88531494,10.22027588,1,0,0,rectangle,12.88531494,10.22027588,1,0,0,12.88531494,10.22027588,1,0,0,1,55,215,113,1,,,,,,,,
,,,,,,,,,,,,,FF,,,,,,,,1.25,,,,,,,,,,,,,,,,,,,,,,6100b21cf563ca9a72200a94,61036b2ee75a225ae419689e,2021-07-29_23h00.19.672,Simcolourproject_2stim_asymm_v5,2020.2.10,MacIntel,60,61025ae37ef11b136ea224fe,,,,,,,,,198,14.58953857,-45.01550293,1,0,0,response3disk,,4,3.746276855,9.834655762,1,0,0,rectangle,60.20501709,35.00619507,1,0,0,7.101806641,2.49697876,1,0,0,1,56,216,117,1,,response1disk_3,TRUE,6,6,"[181,252,192,121,302,121,130,72,292,31,314,206,280,32,179,8,89,217,89,258]",1.3508,rectangle
,,,,,,,,,,,,,FF,,,,,,,,1.2985,,,,,,,,,,,,,,,,,,,,,,6100b21cf563ca9a72200a94,61036b2ee75a225ae419689e,2021-07-29_23h00.19.672,Simcolourproject_2stim_asymm_v5,2020.2.10,MacIntel,60,61025ae37ef11b136ea224fe,,,,,,,,,2190,26.71453857,49.47851563,1,0,0,response1disk,,7,21.08679199,4.016662598,1,0,0,rectangle,21.08679199,4.016662598,1,0,0,21.08679199,4.016662598,1,0,0,1,57,217,72,1,,,,,,,,
,,,,,,,,,,,,,FF,,,,,,,,95.7838,,,,,,,,,,,,,,,,,,,,,,6100b21cf563ca9a72200a94,61036b2ee75a225ae419689e,2021-07-29_23h00.19.672,Simcolourproject_2stim_asymm_v5,2020.2.10,MacIntel,60,61025ae37ef11b136ea224fe,,,,,,,,,2917,-26.29620361,-37.50079346,1,0,0,response5disk,,3,-23.68884277,-1.160736084,1,0,0,rectangle,-23.68884277,-1.160736084,1,0,0,-23.68884277,-1.160736084,1,0,0,1,58,218,100,1,,,,,,,,
,,,,,,,,,,,,,FF,,,,,,,,0.5836,,,,,,,,,,,,,,,,,,,,,,6100b21cf563ca9a72200a94,61036b2ee75a225ae419689e,2021-07-29_23h00.19.672,Simcolourproject_2stim_asymm_v5,2020.2.10,MacIntel,60,61025ae37ef11b136ea224fe,,,,,,,,,1876,30.04248047,-18.08114624,1,0,0,response3disk,,5,-0.296142578,6.051696777,1,0,0,rectangle,-0.296142578,6.051696777,1,0,0,-0.296142578,6.051696777,1,0,0,1,59,219,28,1,,,,,,,,
,,,,,,,,,,,,,FF,,,,,,,,1.1828,,,,,,,,,,,,,,,,,,,,,,6100b21cf563ca9a72200a94,61036b2ee75a225ae419689e,2021-07-29_23h00.19.672,Simcolourproject_2stim_asymm_v5,2020.2.10,MacIntel,60,61025ae37ef11b136ea224fe,,,,,,,,,1944,-23.37487793,-50.35806274,1,0,0,response5disk,,3,-23.37487793,-12.75006104,1,0,0,rectangle,-23.37487793,-12.75006104,1,0,0,-23.37487793,-12.75006104,1,0,0,1,60,220,11,1,,,,,,,,
,,,,,,,,,,,,,FF,,,,,,,,1.0344,,,,,,,,,,,,,,,,,,,,,,6100b21cf563ca9a72200a94,61036b2ee75a225ae419689e,2021-07-29_23h00.19.672,Simcolourproject_2stim_asymm_v5,2020.2.10,MacIntel,60,61025ae37ef11b136ea224fe,,,,,,,,,1734,-17.95465088,41.9994812,1,0,0,response7disk,,0,-3.004821777,3.103118896,1,0,0,rectangle,-3.004821777,3.103118896,1,0,0,-3.004821777,3.103118896,1,0,0,1,61,221,83,1,,,,,,,,
,,,,,,,,,,,,,FF,,,,,,,,1.0172,,,,,,,,,,,,,,,,,,,,,,6100b21cf563ca9a72200a94,61036b2ee75a225ae419689e,2021-07-29_23h00.19.672,Simcolourproject_2stim_asymm_v5,2020.2.10,MacIntel,60,61025ae37ef11b136ea224fe,,,,,,,,,1003,32.09143066,41.54925537,1,0,0,response1disk,,7,17.91705322,1.998535156,1,0,0,rectangle,17.91705322,1.998535156,1,0,0,17.91705322,1.998535156,1,0,0,1,62,222,135,1,,,,,,,,
,,,,,,,,,,,,,FF,,,,,,,,1.2198,,,,,,,,,,,,,,,,,,,,,,6100b21cf563ca9a72200a94,61036b2ee75a225ae419689e,2021-07-29_23h00.19.672,Simcolourproject_2stim_asymm_v5,2020.2.10,MacIntel,60,61025ae37ef11b136ea224fe,,,,,,,,,1014,42.19213867,20.95187378,1,0,0,response1disk,,6,18.76483154,2.906829834,1,0,0,rectangle,18.76483154,2.906829834,1,0,0,18.76483154,2.906829834,1,0,0,1,63,223,125,1,,,,,,,,
,,,,,,,,,,,,,FF,,,,,,,,0.7831,,,,,,,,,,,,,,,,,,,,,,6100b21cf563ca9a72200a94,61036b2ee75a225ae419689e,2021-07-29_23h00.19.672,Simcolourproject_2stim_asymm_v5,2020.2.10,MacIntel,60,61025ae37ef11b136ea224fe,,,,,,,,,555,27.74908447,-28.69616699,1,0,0,response3disk,,4,5.873535156,-3.14074707,1,0,0,rectangle,5.873535156,-3.14074707,1,0,0,5.873535156,-3.14074707,1,0,0,1,64,224,25,1,,,,,,,,
,,,,,,,,,,,,,FF,,,,,,,,0.666,,,,,,,,,,,,,,,,,,,,,,6100b21cf563ca9a72200a94,61036b2ee75a225ae419689e,2021-07-29_23h00.19.672,Simcolourproject_2stim_asymm_v5,2020.2.10,MacIntel,60,61025ae37ef11b136ea224fe,,,,,,,,,3664,-19.58654785,-33.05108643,1,0,0,response5disk,,3,-3.14831543,-0.121368408,1,0,0,rectangle,-3.14831543,-0.121368408,1,0,0,-3.14831543,-0.121368408,1,0,0,1,65,225,97,1,,,,,,,,
,,,,,,,,,,,,,FF,,,,,,,,1.3823,,,,,,,,,,,,,,,,,,,,,,6100b21cf563ca9a72200a94,61036b2ee75a225ae419689e,2021-07-29_23h00.19.672,Simcolourproject_2stim_asymm_v5,2020.2.10,MacIntel,60,61025ae37ef11b136ea224fe,,,,,,,,,3954,20.38983154,36.72341919,1,0,0,response1disk,,7,14.56005859,-0.636505127,1,0,0,rectangle,14.56005859,-0.636505127,1,0,0,14.56005859,-0.636505127,1,0,0,1,66,226,18,1,,,,,,,,
,,,,,,,,,,,,,FF,,,,,,,,1.0171,,,,,,,,,,,,,,,,,,,,,,6100b21cf563ca9a72200a94,61036b2ee75a225ae419689e,2021-07-29_23h00.19.672,Simcolourproject_2stim_asymm_v5,2020.2.10,MacIntel,60,61025ae37ef11b136ea224fe,,,,,,,,,1980,51.34692383,21.0050354,1,0,0,response1disk,,6,28.4161377,-0.731994629,1,0,0,rectangle,28.4161377,-0.731994629,1,0,0,28.4161377,-0.731994629,1,0,0,1,67,227,138,1,,,,,,,,
,,,,,,,,,,,,,FF,,,,,,,,9.1164,,,,,,,,,,,,,,,,,,,,,,6100b21cf563ca9a72200a94,61036b2ee75a225ae419689e,2021-07-29_23h00.19.672,Simcolourproject_2stim_asymm_v5,2020.2.10,MacIntel,60,61025ae37ef11b136ea224fe,,,,,,,,,217,25.92547607,-42.39282227,1,0,0,response3disk,,4,14.78283691,-6.312225342,1,0,0,rectangle,14.78283691,-6.312225342,1,0,0,14.78283691,-6.312225342,1,0,0,1,68,228,114,1,,,,,,,,
,,,,,,,,,,,,,FF,,,,,,,,1.351,,,,,,,,,,,,,,,,,,,,,,6100b21cf563ca9a72200a94,61036b2ee75a225ae419689e,2021-07-29_23h00.19.672,Simcolourproject_2stim_asymm_v5,2020.2.10,MacIntel,60,61025ae37ef11b136ea224fe,,,,,,,,,1546,36.35510254,-20.10671997,1,0,0,response3disk,,5,8.550048828,6.949279785,1,0,0,rectangle,8.550048828,6.949279785,1,0,0,8.550048828,6.949279785,1,0,0,1,69,229,144,1,,,,,,,,
,,,,,,,,,,,,,FF,,,,,,,,0.5166,,,,,,,,,,,,,,,,,,,,,,6100b21cf563ca9a72200a94,61036b2ee75a225ae419689e,2021-07-29_23h00.19.672,Simcolourproject_2stim_asymm_v5,2020.2.10,MacIntel,60,61025ae37ef11b136ea224fe,,,,,,,,,530,-13.21533203,-21.84817505,1,0,0,response5disk,,3,-6.61328125,-5.939941406,1,0,0,rectangle,-6.61328125,-5.939941406,1,0,0,-6.61328125,-5.939941406,1,0,0,1,70,230,27,1,,,,,,,,
,,,,,,,,,,,,,FF,,,,,,,,7.2829,,,,,,,,,,,,,,,,,,,,,,6100b21cf563ca9a72200a94,61036b2ee75a225ae419689e,2021-07-29_23h00.19.672,Simcolourproject_2stim_asymm_v5,2020.2.10,MacIntel,60,61025ae37ef11b136ea224fe,,,,,,,,,1019,-9.927124023,-44.97619629,1,0,0,response5disk,,3,-5.53918457,-9.859222412,1,0,0,rectangle,-5.53918457,-9.859222412,1,0,0,-5.53918457,-9.859222412,1,0,0,1,71,231,158,1,,,,,,,,
,,,,,,,,,,,,,FF,,,,,,,,0.7013,,,,,,,,,,,,,,,,,,,,,,6100b21cf563ca9a72200a94,61036b2ee75a225ae419689e,2021-07-29_23h00.19.672,Simcolourproject_2stim_asymm_v5,2020.2.10,MacIntel,60,61025ae37ef11b136ea224fe,,,,,,,,,200,19.08599854,29.95944214,1,0,0,response1disk,,7,4.230957031,6.158874512,1,0,0,rectangle,4.230957031,6.158874512,1,0,0,4.230957031,6.158874512,1,0,0,1,72,232,10,1,,,,,,,,
,,,,,,,,,,,,,FF,,,,,,,,0.5212,,,,,,,,,,,,,,,,,,,,,,6100b21cf563ca9a72200a94,61036b2ee75a225ae419689e,2021-07-29_23h00.19.672,Simcolourproject_2stim_asymm_v5,2020.2.10,MacIntel,60,61025ae37ef11b136ea224fe,,,,,,,,,552,-13.61499023,-27.99411011,1,0,0,response5disk,,3,-3.07019043,-2.315612793,1,0,0,rectangle,-3.07019043,-2.315612793,1,0,0,-3.07019043,-2.315612793,1,0,0,1,73,233,119,1,,,,,,,,
,,,,,,,,,,,,,FF,,,,,,,,0.4152,,,,,,,,,,,,,,,,,,,,,,6100b21cf563ca9a72200a94,61036b2ee75a225ae419689e,2021-07-29_23h00.19.672,Simcolourproject_2stim_asymm_v5,2020.2.10,MacIntel,60,61025ae37ef11b136ea224fe,,,,,,,,,3249,28.99694824,-34.26470947,1,0,0,response3disk,,4,9.581054688,-8.126037598,1,0,0,rectangle,9.581054688,-8.126037598,1,0,0,9.581054688,-8.126037598,1,0,0,1,74,234,145,1,,,,,,,,
,,,,,,,,,,,,,FF,,,,,,,,0.9324,,,,,,,,,,,,,,,,,,,,,,6100b21cf563ca9a72200a94,61036b2ee75a225ae419689e,2021-07-29_23h00.19.672,Simcolourproject_2stim_asymm_v5,2020.2.10,MacIntel,60,61025ae37ef11b136ea224fe,,,,,,,,,887,-29.70977783,61.95339966,1,0,0,response7disk,,0,-5.205078125,-5.632751465,1,0,0,rectangle,-5.205078125,-5.632751465,1,0,0,-5.205078125,-5.632751465,1,0,0,1,75,235,90,1,,,,,,,,
,,,,,,,,,,,,,FF,,,,,,,,0.7492,,,,,,,,,,,,,,,,,,,,,,6100b21cf563ca9a72200a94,61036b2ee75a225ae419689e,2021-07-29_23h00.19.672,Simcolourproject_2stim_asymm_v5,2020.2.10,MacIntel,60,61025ae37ef11b136ea224fe,,,,,,,,,1503,21.08355713,-41.04708862,1,0,0,response3disk,,4,1.818847656,-7.702087402,1,0,0,rectangle,1.818847656,-7.702087402,1,0,0,1.818847656,-7.702087402,1,0,0,1,76,236,4,1,,,,,,,,
,,,,,,,,,,,,,FF,,,,,,,,52.3327,,,,,,,,,,,,,,,,,,,,,,6100b21cf563ca9a72200a94,61036b2ee75a225ae419689e,2021-07-29_23h00.19.672,Simcolourproject_2stim_asymm_v5,2020.2.10,MacIntel,60,61025ae37ef11b136ea224fe,,,,,,,,,4290,60.00653076,28.58865356,1,0,0,response1disk,,6,14.62591553,1.086578369,1,0,0,rectangle,14.62591553,1.086578369,1,0,0,14.62591553,1.086578369,1,0,0,1,77,237,131,1,,,,,,,,
,,,,,,,,,,,,,FF,,,,,,,,3.3319,,,,,,,,,,,,,,,,,,,,,,6100b21cf563ca9a72200a94,61036b2ee75a225ae419689e,2021-07-29_23h00.19.672,Simcolourproject_2stim_asymm_v5,2020.2.10,MacIntel,60,61025ae37ef11b136ea224fe,,,,,,,,,3222,34.31469727,-45.9230957,1,0,0,response3disk,,4,15.48516846,-3.769287109,1,0,0,rectangle,15.48516846,-3.769287109,1,0,0,15.48516846,-3.769287109,1,0,0,1,78,238,133,1,,,,,,,,
,,,,,,,,,,,,,FF,,,,,,,,0.3666,,,,,,,,,,,,,,,,,,,,,,6100b21cf563ca9a72200a94,61036b2ee75a225ae419689e,2021-07-29_23h00.19.672,Simcolourproject_2stim_asymm_v5,2020.2.10,MacIntel,60,61025ae37ef11b136ea224fe,,,,,,,,,4070,-31.26837158,-41.82629395,1,0,0,response5disk,,3,-17.13128662,9.19442749,1,0,0,rectangle,-17.13128662,9.19442749,1,0,0,-17.13128662,9.19442749,1,0,0,1,79,239,104,1,,,,,,,,
,,,,,,,,,,,,,FF,,,,,,,,87.1969,,,,,,,,,,,,,,,,,,,,,,6100b21cf563ca9a72200a94,61036b2ee75a225ae419689e,2021-07-29_23h00.19.672,Simcolourproject_2stim_asymm_v5,2020.2.10,MacIntel,60,61025ae37ef11b136ea224fe,,,,,,,,,128,31.04760742,-46.46786499,1,0,0,response3disk,,4,16.42565918,-11.86724854,1,0,0,rectangle,16.42565918,-11.86724854,1,0,0,16.42565918,-11.86724854,1,0,0,1,80,240,136,1,,,,,,,,
,,,,,,,,,,,,,FF,,,,,,,,1.1664,,,,,,,,,,,,,,,,,,,,,,6100b21cf563ca9a72200a94,61036b2ee75a225ae419689e,2021-07-29_23h00.19.672,Simcolourproject_2stim_asymm_v5,2020.2.10,MacIntel,60,61025ae37ef11b136ea224fe,,,,,,,,,2215,31.68225098,-13.37301636,1,0,0,response3disk,,5,5.185546875,-5.364257813,1,0,0,rectangle,5.185546875,-5.364257813,1,0,0,5.185546875,-5.364257813,1,0,0,1,81,241,57,1,,,,,,,,
