key_resp.keys,key_resp.rt,key_resp_14.keys,key_resp_14.rt,key_resp_15.keys,key_resp_15.rt,key_resp_17.keys,key_resp_17.rt,key_resp_9.keys,key_resp_9.rt,key_resp_10.keys,key_resp_10.rt,practice_comparison,Ecc,mouse_5.x,mouse_5.y,mouse_5.leftButton,mouse_5.midButton,mouse_5.rightButton,mouse_5.clicked_name,pracsimilarity,response_time,mouse_10.x,mouse_10.y,mouse_10.leftButton,mouse_10.midButton,mouse_10.rightButton,mouse_10.clicked_name,mouse_7.x,mouse_7.y,mouse_7.leftButton,mouse_7.midButton,mouse_7.rightButton,mouse_6.x,mouse_6.y,mouse_6.leftButton,mouse_6.midButton,mouse_6.rightButton,duringprac.thisRepN,duringprac.thisTrialN,duringprac.thisN,duringprac.thisIndex,duringprac.ran,participant,session,date,expName,psychopyVersion,OS,frameRate,study_id,mouse_7.clicked_name,catchpracsimilarity,catch_response_time,catchnumberprac,catchtrialorderprac,mouse_6.clicked_name,key_resp_22.keys,key_resp_22.rt,realcomparison,mouse.x,mouse.y,mouse.leftButton,mouse.midButton,mouse.rightButton,mouse.clicked_name,Colour2,similarity,mouse_2.x,mouse_2.y,mouse_2.leftButton,mouse_2.midButton,mouse_2.rightButton,mouse_2.clicked_name,mouse_3.x,mouse_3.y,mouse_3.leftButton,mouse_3.midButton,mouse_3.rightButton,mouse_3.clicked_name,catchornah,catchsimilarity,catchnumber,catchtrialorder,catchRT,mouse_11.x,mouse_11.y,mouse_11.leftButton,mouse_11.midButton,mouse_11.rightButton,mouse_11.clicked_name,trials_2.thisRepN,trials_2.thisTrialN,trials_2.thisN,trials_2.thisIndex,trials_2.ran,Colour1
space,2.3512,space,14.4752,space,7.1838,space,6.4056,space,1.4339,space,5.3985,63,PF,-33.09375,-98.7578125,1,0,0,response5disk_5,3,9.6051,-7.6015625,-0.6328125,1,0,0,rectangle_8,-7.6015625,-0.6328125,1,0,0,-7.6015625,-0.6328125,1,0,0,0,0,0,2,1,610048e0cb6a01bb2ac7aa76,61036f729149836248130cf5,2021-07-29_20h19.41.924,Simcolourproject_2stim_asymm_v5,2020.2.10,MacIntel,60,61025ae37ef11b136ea224fe,,,,,,,,,,,,,,,,,,,,,,,,,,,,,,,,,,,,,,,,,,,,,,
,,,,,,,,,,,,98,FF,40.47265625,-99.72265625,1,0,0,response3disk_5,4,7.9181,-10.58984375,7.6640625,1,0,0,rectangle_8,-36.30859375,-105.3671875,1,0,0,10.5703125,1.71875,1,0,0,0,1,1,3,1,610048e0cb6a01bb2ac7aa76,61036f729149836248130cf5,2021-07-29_20h19.41.924,Simcolourproject_2stim_asymm_v5,2020.2.10,MacIntel,60,61025ae37ef11b136ea224fe,response5disk_7,3,3.2172,3,"[2,5]",rectangle_4,,,,,,,,,,,,,,,,,,,,,,,,,,,,,,,,,,,,,,,,
,,,,,,,,,,,,121,PF,-52.1640625,80.5,1,0,0,response7disk_5,0,2.0676,-3.90625,-2.3046875,1,0,0,rectangle_8,-3.90625,-2.3046875,1,0,0,-3.90625,-2.3046875,1,0,0,0,2,2,1,1,610048e0cb6a01bb2ac7aa76,61036f729149836248130cf5,2021-07-29_20h19.41.924,Simcolourproject_2stim_asymm_v5,2020.2.10,MacIntel,60,61025ae37ef11b136ea224fe,,,,,,,,,,,,,,,,,,,,,,,,,,,,,,,,,,,,,,,,,,,,,,
,,,,,,,,,,,,5,PF,-25.1640625,-99.421875,1,0,0,response5disk_5,3,7.9674,14.41015625,-5.37109375,1,0,0,rectangle_8,14.41015625,-5.37109375,1,0,0,14.41015625,-5.37109375,1,0,0,0,3,3,4,1,610048e0cb6a01bb2ac7aa76,61036f729149836248130cf5,2021-07-29_20h19.41.924,Simcolourproject_2stim_asymm_v5,2020.2.10,MacIntel,60,61025ae37ef11b136ea224fe,,,,,,,,,,,,,,,,,,,,,,,,,,,,,,,,,,,,,,,,,,,,,,
,,,,,,,,,,,,1,FF,76.76953125,-29.58203125,1,0,0,response3disk_5,5,6.8842,-0.6875,0.63671875,1,0,0,rectangle_8,-35.98046875,-84.37109375,1,0,0,11.66796875,4.7265625,1,0,0,0,4,4,5,1,610048e0cb6a01bb2ac7aa76,61036f729149836248130cf5,2021-07-29_20h19.41.924,Simcolourproject_2stim_asymm_v5,2020.2.10,MacIntel,60,61025ae37ef11b136ea224fe,response5disk_7,3,1.9836,3,"[2,5]",rectangle_4,,,,,,,,,,,,,,,,,,,,,,,,,,,,,,,,,,,,,,,,
,,,,,,,,,,,,1,PF,94.828125,-36.4453125,1,0,0,response3disk_5,5,3.4678,5.33984375,2.8671875,1,0,0,rectangle_8,5.33984375,2.8671875,1,0,0,5.33984375,2.8671875,1,0,0,0,5,5,6,1,610048e0cb6a01bb2ac7aa76,61036f729149836248130cf5,2021-07-29_20h19.41.924,Simcolourproject_2stim_asymm_v5,2020.2.10,MacIntel,60,61025ae37ef11b136ea224fe,,,,,,,,,,,,,,,,,,,,,,,,,,,,,,,,,,,,,,,,,,,,,,
,,,,,,,,,,,,78,FF,86.31640625,47.6796875,1,0,0,response1disk_5,6,3.1159,-3.55859375,-0.921875,1,0,0,rectangle_8,-3.55859375,-0.921875,1,0,0,-3.55859375,-0.921875,1,0,0,0,6,6,0,1,610048e0cb6a01bb2ac7aa76,61036f729149836248130cf5,2021-07-29_20h19.41.924,Simcolourproject_2stim_asymm_v5,2020.2.10,MacIntel,60,61025ae37ef11b136ea224fe,,,,,,,,,,,,,,,,,,,,,,,,,,,,,,,,,,,,,,,,,,,,,,
,,,,,,,,,,,,,FF,,,,,,,,4.9508,,,,,,,,,,,,,,,,,,,,,,610048e0cb6a01bb2ac7aa76,61036f729149836248130cf5,2021-07-29_20h19.41.924,Simcolourproject_2stim_asymm_v5,2020.2.10,MacIntel,60,61025ae37ef11b136ea224fe,,,,,,,space,3.7266,1131,-39.30859375,99.93359375,1,0,0,response7disk,,0,-7.8203125,-2.12890625,1,0,0,rectangle,72.5703125,31.2890625,1,0,0,response1disk_3,TRUE,6,6,"[30,254,120,68,166,282,179,240,108,73,171,240,122,1,114,229,41,123,172,115]",2.5342,-12.015625,-3.3828125,1,0,0,rectangle,0,0,0,95,1,
,,,,,,,,,,,,,FF,,,,,,,,3.4828,,,,,,,,,,,,,,,,,,,,,,610048e0cb6a01bb2ac7aa76,61036f729149836248130cf5,2021-07-29_20h19.41.924,Simcolourproject_2stim_asymm_v5,2020.2.10,MacIntel,60,61025ae37ef11b136ea224fe,,,,,,,,,273,34.65234375,-86.29296875,1,0,0,response3disk,,4,-10.84765625,-6.11328125,1,0,0,rectangle,-10.84765625,-6.11328125,1,0,0,,,,,,,-10.84765625,-6.11328125,1,0,0,,0,1,1,113,1,
,,,,,,,,,,,,,FF,,,,,,,,2.7825,,,,,,,,,,,,,,,,,,,,,,610048e0cb6a01bb2ac7aa76,61036f729149836248130cf5,2021-07-29_20h19.41.924,Simcolourproject_2stim_asymm_v5,2020.2.10,MacIntel,60,61025ae37ef11b136ea224fe,,,,,,,,,3432,-78.91015625,-47.859375,1,0,0,response5disk,,2,5.41015625,3.1015625,1,0,0,rectangle,5.41015625,3.1015625,1,0,0,,,,,,,5.41015625,3.1015625,1,0,0,,0,2,2,37,1,
,,,,,,,,,,,,,FF,,,,,,,,4.0165,,,,,,,,,,,,,,,,,,,,,,610048e0cb6a01bb2ac7aa76,61036f729149836248130cf5,2021-07-29_20h19.41.924,Simcolourproject_2stim_asymm_v5,2020.2.10,MacIntel,60,61025ae37ef11b136ea224fe,,,,,,,,,952,51.63671875,-91.515625,1,0,0,response3disk,,4,-1.40625,2.58203125,1,0,0,rectangle,-1.40625,2.58203125,1,0,0,,,,,,,-1.40625,2.58203125,1,0,0,,0,3,3,138,1,
,,,,,,,,,,,,,FF,,,,,,,,1.1339,,,,,,,,,,,,,,,,,,,,,,610048e0cb6a01bb2ac7aa76,61036f729149836248130cf5,2021-07-29_20h19.41.924,Simcolourproject_2stim_asymm_v5,2020.2.10,MacIntel,60,61025ae37ef11b136ea224fe,,,,,,,,,3146,-48.421875,82.48046875,1,0,0,response7disk,,0,12.66015625,2.03125,1,0,0,rectangle,12.66015625,2.03125,1,0,0,,,,,,,12.66015625,2.03125,1,0,0,,0,4,4,150,1,
,,,,,,,,,,,,,FF,,,,,,,,1.2501,,,,,,,,,,,,,,,,,,,,,,610048e0cb6a01bb2ac7aa76,61036f729149836248130cf5,2021-07-29_20h19.41.924,Simcolourproject_2stim_asymm_v5,2020.2.10,MacIntel,60,61025ae37ef11b136ea224fe,,,,,,,,,1785,30.453125,-87.609375,1,0,0,response3disk,,4,-13.62890625,8.0859375,1,0,0,rectangle,-13.62890625,8.0859375,1,0,0,,,,,,,-13.62890625,8.0859375,1,0,0,,0,5,5,13,1,
,,,,,,,,,,,,,FF,,,,,,,,2.1161,,,,,,,,,,,,,,,,,,,,,,610048e0cb6a01bb2ac7aa76,61036f729149836248130cf5,2021-07-29_20h19.41.924,Simcolourproject_2stim_asymm_v5,2020.2.10,MacIntel,60,61025ae37ef11b136ea224fe,,,,,,,,,3944,71.97265625,-48.1171875,1,0,0,response3disk,,5,2.6484375,6.4140625,1,0,0,rectangle,2.6484375,6.4140625,1,0,0,,,,,,,2.6484375,6.4140625,1,0,0,,0,6,6,8,1,
,,,,,,,,,,,,,FF,,,,,,,,1.6327,,,,,,,,,,,,,,,,,,,,,,610048e0cb6a01bb2ac7aa76,61036f729149836248130cf5,2021-07-29_20h19.41.924,Simcolourproject_2stim_asymm_v5,2020.2.10,MacIntel,60,61025ae37ef11b136ea224fe,,,,,,,,,3186,34.51171875,77.71875,1,0,0,response1disk,,7,9.0234375,-3.91796875,1,0,0,rectangle,9.0234375,-3.91796875,1,0,0,,,,,,,9.0234375,-3.91796875,1,0,0,,0,7,7,35,1,
,,,,,,,,,,,,,FF,,,,,,,,1.801,,,,,,,,,,,,,,,,,,,,,,610048e0cb6a01bb2ac7aa76,61036f729149836248130cf5,2021-07-29_20h19.41.924,Simcolourproject_2stim_asymm_v5,2020.2.10,MacIntel,60,61025ae37ef11b136ea224fe,,,,,,,,,2101,33.2578125,-77.609375,1,0,0,response3disk,,4,-0.578125,-8.671875,1,0,0,rectangle,-0.578125,-8.671875,1,0,0,,,,,,,-0.578125,-8.671875,1,0,0,,0,8,8,156,1,
,,,,,,,,,,,,,FF,,,,,,,,0.9838,,,,,,,,,,,,,,,,,,,,,,610048e0cb6a01bb2ac7aa76,61036f729149836248130cf5,2021-07-29_20h19.41.924,Simcolourproject_2stim_asymm_v5,2020.2.10,MacIntel,60,61025ae37ef11b136ea224fe,,,,,,,,,2204,41.109375,81.81640625,1,0,0,response1disk,,7,2.78515625,7.9296875,1,0,0,rectangle,2.78515625,7.9296875,1,0,0,,,,,,,2.78515625,7.9296875,1,0,0,,0,9,9,23,1,
,,,,,,,,,,,,,FF,,,,,,,,3.05,,,,,,,,,,,,,,,,,,,,,,610048e0cb6a01bb2ac7aa76,61036f729149836248130cf5,2021-07-29_20h19.41.924,Simcolourproject_2stim_asymm_v5,2020.2.10,MacIntel,60,61025ae37ef11b136ea224fe,,,,,,,,,202,32.25,-93.8984375,1,0,0,response3disk,,4,-12.31640625,-0.7578125,1,0,0,rectangle,-12.31640625,-0.7578125,1,0,0,,,,,,,-12.31640625,-0.7578125,1,0,0,,0,10,10,47,1,
,,,,,,,,,,,,,FF,,,,,,,,2.3329,,,,,,,,,,,,,,,,,,,,,,610048e0cb6a01bb2ac7aa76,61036f729149836248130cf5,2021-07-29_20h19.41.924,Simcolourproject_2stim_asymm_v5,2020.2.10,MacIntel,60,61025ae37ef11b136ea224fe,,,,,,,,,1242,83.859375,55.796875,1,0,0,response1disk,,6,-2.23828125,-11.58203125,1,0,0,rectangle,-2.23828125,-11.58203125,1,0,0,,,,,,,-2.23828125,-11.58203125,1,0,0,,0,11,11,98,1,
,,,,,,,,,,,,,FF,,,,,,,,0.8678,,,,,,,,,,,,,,,,,,,,,,610048e0cb6a01bb2ac7aa76,61036f729149836248130cf5,2021-07-29_20h19.41.924,Simcolourproject_2stim_asymm_v5,2020.2.10,MacIntel,60,61025ae37ef11b136ea224fe,,,,,,,,,1547,36.22265625,80.55859375,1,0,0,response1disk,,7,10.19921875,-6.22265625,1,0,0,rectangle,10.19921875,-6.22265625,1,0,0,,,,,,,10.19921875,-6.22265625,1,0,0,,0,12,12,147,1,
,,,,,,,,,,,,,FF,,,,,,,,0.8511,,,,,,,,,,,,,,,,,,,,,,610048e0cb6a01bb2ac7aa76,61036f729149836248130cf5,2021-07-29_20h19.41.924,Simcolourproject_2stim_asymm_v5,2020.2.10,MacIntel,60,61025ae37ef11b136ea224fe,,,,,,,,,1696,54.3125,75.72265625,1,0,0,response1disk,,7,15.66015625,1.1015625,1,0,0,rectangle,15.66015625,1.1015625,1,0,0,,,,,,,15.66015625,1.1015625,1,0,0,,0,13,13,68,1,
,,,,,,,,,,,,,FF,,,,,,,,0.65,,,,,,,,,,,,,,,,,,,,,,610048e0cb6a01bb2ac7aa76,61036f729149836248130cf5,2021-07-29_20h19.41.924,Simcolourproject_2stim_asymm_v5,2020.2.10,MacIntel,60,61025ae37ef11b136ea224fe,,,,,,,,,2762,30.5390625,64.953125,1,0,0,response1disk,,7,-3.55859375,-12.72265625,1,0,0,rectangle,-3.55859375,-12.72265625,1,0,0,,,,,,,-3.55859375,-12.72265625,1,0,0,,0,14,14,155,1,
,,,,,,,,,,,,,FF,,,,,,,,0.8556,,,,,,,,,,,,,,,,,,,,,,610048e0cb6a01bb2ac7aa76,61036f729149836248130cf5,2021-07-29_20h19.41.924,Simcolourproject_2stim_asymm_v5,2020.2.10,MacIntel,60,61025ae37ef11b136ea224fe,,,,,,,,,3029,46.19140625,68.72265625,1,0,0,response1disk,,7,8.2734375,-3.30078125,1,0,0,rectangle,8.2734375,-3.30078125,1,0,0,,,,,,,8.2734375,-3.30078125,1,0,0,,0,15,15,65,1,
,,,,,,,,,,,,,FF,,,,,,,,1.5335,,,,,,,,,,,,,,,,,,,,,,610048e0cb6a01bb2ac7aa76,61036f729149836248130cf5,2021-07-29_20h19.41.924,Simcolourproject_2stim_asymm_v5,2020.2.10,MacIntel,60,61025ae37ef11b136ea224fe,,,,,,,,,2602,72.0078125,-42.25,1,0,0,response3disk,,5,-10.61328125,-2.1328125,1,0,0,rectangle,-10.61328125,-2.1328125,1,0,0,,,,,,,-10.61328125,-2.1328125,1,0,0,,0,16,16,127,1,
,,,,,,,,,,,,,FF,,,,,,,,0.8174,,,,,,,,,,,,,,,,,,,,,,610048e0cb6a01bb2ac7aa76,61036f729149836248130cf5,2021-07-29_20h19.41.924,Simcolourproject_2stim_asymm_v5,2020.2.10,MacIntel,60,61025ae37ef11b136ea224fe,,,,,,,,,2916,37.96875,68.875,1,0,0,response1disk,,7,20.07421875,0.1015625,1,0,0,rectangle,20.07421875,0.1015625,1,0,0,,,,,,,20.07421875,0.1015625,1,0,0,,0,17,17,122,1,
,,,,,,,,,,,,,FF,,,,,,,,0.7678,,,,,,,,,,,,,,,,,,,,,,610048e0cb6a01bb2ac7aa76,61036f729149836248130cf5,2021-07-29_20h19.41.924,Simcolourproject_2stim_asymm_v5,2020.2.10,MacIntel,60,61025ae37ef11b136ea224fe,,,,,,,,,3879,39.8984375,55.1015625,1,0,0,response1disk,,7,16.41796875,2.41015625,1,0,0,rectangle,16.41796875,2.41015625,1,0,0,,,,,,,16.41796875,2.41015625,1,0,0,,0,18,18,39,1,
,,,,,,,,,,,,,FF,,,,,,,,0.9168,,,,,,,,,,,,,,,,,,,,,,610048e0cb6a01bb2ac7aa76,61036f729149836248130cf5,2021-07-29_20h19.41.924,Simcolourproject_2stim_asymm_v5,2020.2.10,MacIntel,60,61025ae37ef11b136ea224fe,,,,,,,,,3826,26.359375,65.80859375,1,0,0,response1disk,,7,25.5234375,5.2890625,1,0,0,rectangle,25.5234375,5.2890625,1,0,0,,,,,,,25.5234375,5.2890625,1,0,0,,0,19,19,64,1,
,,,,,,,,,,,,,FF,,,,,,,,0.7676,,,,,,,,,,,,,,,,,,,,,,610048e0cb6a01bb2ac7aa76,61036f729149836248130cf5,2021-07-29_20h19.41.924,Simcolourproject_2stim_asymm_v5,2020.2.10,MacIntel,60,61025ae37ef11b136ea224fe,,,,,,,,,3074,39.83984375,58.76953125,1,0,0,response1disk,,7,15.58203125,-3.60546875,1,0,0,rectangle,15.58203125,-3.60546875,1,0,0,,,,,,,15.58203125,-3.60546875,1,0,0,,0,20,20,142,1,
,,,,,,,,,,,,,FF,,,,,,,,0.9501,,,,,,,,,,,,,,,,,,,,,,610048e0cb6a01bb2ac7aa76,61036f729149836248130cf5,2021-07-29_20h19.41.924,Simcolourproject_2stim_asymm_v5,2020.2.10,MacIntel,60,61025ae37ef11b136ea224fe,,,,,,,,,4191,37.875,58.40625,1,0,0,response1disk,,7,13.7890625,-3.96875,1,0,0,rectangle,13.7890625,-3.96875,1,0,0,,,,,,,13.7890625,-3.96875,1,0,0,,0,21,21,20,1,
,,,,,,,,,,,,,FF,,,,,,,,0.7996,,,,,,,,,,,,,,,,,,,,,,610048e0cb6a01bb2ac7aa76,61036f729149836248130cf5,2021-07-29_20h19.41.924,Simcolourproject_2stim_asymm_v5,2020.2.10,MacIntel,60,61025ae37ef11b136ea224fe,,,,,,,,,2957,48.3046875,69.80859375,1,0,0,response1disk,,7,25.40234375,1.1171875,1,0,0,rectangle,25.40234375,1.1171875,1,0,0,,,,,,,25.40234375,1.1171875,1,0,0,,0,22,22,78,1,
,,,,,,,,,,,,,FF,,,,,,,,0.5835,,,,,,,,,,,,,,,,,,,,,,610048e0cb6a01bb2ac7aa76,61036f729149836248130cf5,2021-07-29_20h19.41.924,Simcolourproject_2stim_asymm_v5,2020.2.10,MacIntel,60,61025ae37ef11b136ea224fe,,,,,,,,,581,18.4296875,53.86328125,1,0,0,response1disk,,7,16.07421875,8.0546875,1,0,0,rectangle,16.07421875,8.0546875,1,0,0,,,,,,,16.07421875,8.0546875,1,0,0,,0,23,23,130,1,
,,,,,,,,,,,,,FF,,,,,,,,1.384,,,,,,,,,,,,,,,,,,,,,,610048e0cb6a01bb2ac7aa76,61036f729149836248130cf5,2021-07-29_20h19.41.924,Simcolourproject_2stim_asymm_v5,2020.2.10,MacIntel,60,61025ae37ef11b136ea224fe,,,,,,,,,2392,51.03515625,79.59375,1,0,0,response1disk,,7,13.875,15.09765625,1,0,0,rectangle,13.875,15.09765625,1,0,0,,,,,,,13.875,15.09765625,1,0,0,,0,24,24,41,1,
,,,,,,,,,,,,,FF,,,,,,,,0.6001,,,,,,,,,,,,,,,,,,,,,,610048e0cb6a01bb2ac7aa76,61036f729149836248130cf5,2021-07-29_20h19.41.924,Simcolourproject_2stim_asymm_v5,2020.2.10,MacIntel,60,61025ae37ef11b136ea224fe,,,,,,,,,1637,35.453125,66.515625,1,0,0,response1disk,,7,-2.44921875,-0.984375,1,0,0,rectangle,-2.44921875,-0.984375,1,0,0,,,,,,,-2.44921875,-0.984375,1,0,0,,0,25,25,117,1,
,,,,,,,,,,,,,FF,,,,,,,,0.7002,,,,,,,,,,,,,,,,,,,,,,610048e0cb6a01bb2ac7aa76,61036f729149836248130cf5,2021-07-29_20h19.41.924,Simcolourproject_2stim_asymm_v5,2020.2.10,MacIntel,60,61025ae37ef11b136ea224fe,,,,,,,,,2355,-43.0625,63.56640625,1,0,0,response7disk,,0,-13.17578125,-7.84375,1,0,0,rectangle,-13.17578125,-7.84375,1,0,0,,,,,,,-13.17578125,-7.84375,1,0,0,,0,26,26,104,1,
,,,,,,,,,,,,,FF,,,,,,,,1.4177,,,,,,,,,,,,,,,,,,,,,,610048e0cb6a01bb2ac7aa76,61036f729149836248130cf5,2021-07-29_20h19.41.924,Simcolourproject_2stim_asymm_v5,2020.2.10,MacIntel,60,61025ae37ef11b136ea224fe,,,,,,,,,3154,-78.5546875,43.09375,1,0,0,response7disk,,1,12.640625,-5.65625,1,0,0,rectangle,12.640625,-5.65625,1,0,0,,,,,,,12.640625,-5.65625,1,0,0,,0,27,27,45,1,
,,,,,,,,,,,,,FF,,,,,,,,0.8174,,,,,,,,,,,,,,,,,,,,,,610048e0cb6a01bb2ac7aa76,61036f729149836248130cf5,2021-07-29_20h19.41.924,Simcolourproject_2stim_asymm_v5,2020.2.10,MacIntel,60,61025ae37ef11b136ea224fe,,,,,,,,,2983,39.7109375,63.49609375,1,0,0,response1disk,,7,25.515625,0.37109375,1,0,0,rectangle,25.515625,0.37109375,1,0,0,,,,,,,25.515625,0.37109375,1,0,0,,0,28,28,94,1,
,,,,,,,,,,,,,FF,,,,,,,,0.6323,,,,,,,,,,,,,,,,,,,,,,610048e0cb6a01bb2ac7aa76,61036f729149836248130cf5,2021-07-29_20h19.41.924,Simcolourproject_2stim_asymm_v5,2020.2.10,MacIntel,60,61025ae37ef11b136ea224fe,,,,,,,,,2282,26.2734375,47.34765625,1,0,0,response1disk,,7,9.41796875,4.69140625,1,0,0,rectangle,-27.8984375,-78.3515625,1,0,0,response5disk_3,TRUE,3,3,"[30,254,120,68,166,282,179,240,108,73,171,240,122,1,114,229,41,123,172,115]",1.9316,-3.1640625,-1.53515625,1,0,0,rectangle,0,29,29,32,1,
,,,,,,,,,,,,,FF,,,,,,,,1.4341,,,,,,,,,,,,,,,,,,,,,,610048e0cb6a01bb2ac7aa76,61036f729149836248130cf5,2021-07-29_20h19.41.924,Simcolourproject_2stim_asymm_v5,2020.2.10,MacIntel,60,61025ae37ef11b136ea224fe,,,,,,,,,683,39.44140625,72.65625,1,0,0,response1disk,,7,2.20703125,-8.2109375,1,0,0,rectangle,2.20703125,-8.2109375,1,0,0,,,,,,,2.20703125,-8.2109375,1,0,0,,0,30,30,63,1,
,,,,,,,,,,,,,FF,,,,,,,,0.7331,,,,,,,,,,,,,,,,,,,,,,610048e0cb6a01bb2ac7aa76,61036f729149836248130cf5,2021-07-29_20h19.41.924,Simcolourproject_2stim_asymm_v5,2020.2.10,MacIntel,60,61025ae37ef11b136ea224fe,,,,,,,,,3580,30.73828125,45.37109375,1,0,0,response1disk,,7,6.234375,-9.83203125,1,0,0,rectangle,6.234375,-9.83203125,1,0,0,,,,,,,6.234375,-9.83203125,1,0,0,,0,31,31,36,1,
,,,,,,,,,,,,,FF,,,,,,,,2.6828,,,,,,,,,,,,,,,,,,,,,,610048e0cb6a01bb2ac7aa76,61036f729149836248130cf5,2021-07-29_20h19.41.924,Simcolourproject_2stim_asymm_v5,2020.2.10,MacIntel,60,61025ae37ef11b136ea224fe,,,,,,,,,1672,-35.046875,-93.15234375,1,0,0,response5disk,,3,-3.828125,-7.859375,1,0,0,rectangle,-3.828125,-7.859375,1,0,0,,,,,,,-3.828125,-7.859375,1,0,0,,0,32,32,102,1,
,,,,,,,,,,,,,FF,,,,,,,,0.8163,,,,,,,,,,,,,,,,,,,,,,610048e0cb6a01bb2ac7aa76,61036f729149836248130cf5,2021-07-29_20h19.41.924,Simcolourproject_2stim_asymm_v5,2020.2.10,MacIntel,60,61025ae37ef11b136ea224fe,,,,,,,,,3324,22.49609375,70.40234375,1,0,0,response1disk,,7,11.51171875,-2.78515625,1,0,0,rectangle,11.51171875,-2.78515625,1,0,0,,,,,,,11.51171875,-2.78515625,1,0,0,,0,33,33,1,1,
,,,,,,,,,,,,,FF,,,,,,,,0.4822,,,,,,,,,,,,,,,,,,,,,,610048e0cb6a01bb2ac7aa76,61036f729149836248130cf5,2021-07-29_20h19.41.924,Simcolourproject_2stim_asymm_v5,2020.2.10,MacIntel,60,61025ae37ef11b136ea224fe,,,,,,,,,1124,47.484375,62.23046875,1,0,0,response1disk,,7,20.28125,3.8984375,1,0,0,rectangle,20.28125,3.8984375,1,0,0,,,,,,,20.28125,3.8984375,1,0,0,,0,34,34,96,1,
,,,,,,,,,,,,,FF,,,,,,,,0.5502,,,,,,,,,,,,,,,,,,,,,,610048e0cb6a01bb2ac7aa76,61036f729149836248130cf5,2021-07-29_20h19.41.924,Simcolourproject_2stim_asymm_v5,2020.2.10,MacIntel,60,61025ae37ef11b136ea224fe,,,,,,,,,3902,54.5703125,103.578125,1,0,0,response1disk,,7,4.33984375,-7.1953125,1,0,0,rectangle,4.33984375,-7.1953125,1,0,0,,,,,,,4.33984375,-7.1953125,1,0,0,,0,35,35,4,1,
,,,,,,,,,,,,,FF,,,,,,,,0.667,,,,,,,,,,,,,,,,,,,,,,610048e0cb6a01bb2ac7aa76,61036f729149836248130cf5,2021-07-29_20h19.41.924,Simcolourproject_2stim_asymm_v5,2020.2.10,MacIntel,60,61025ae37ef11b136ea224fe,,,,,,,,,308,35.05078125,72.35546875,1,0,0,response1disk,,7,9.5703125,-6.3359375,1,0,0,rectangle,9.5703125,-6.3359375,1,0,0,,,,,,,9.5703125,-6.3359375,1,0,0,,0,36,36,7,1,
,,,,,,,,,,,,,FF,,,,,,,,2.3993,,,,,,,,,,,,,,,,,,,,,,610048e0cb6a01bb2ac7aa76,61036f729149836248130cf5,2021-07-29_20h19.41.924,Simcolourproject_2stim_asymm_v5,2020.2.10,MacIntel,60,61025ae37ef11b136ea224fe,,,,,,,,,3778,-39.14453125,-103.0859375,1,0,0,response5disk,,3,-4.3359375,-0.75,1,0,0,rectangle,-4.3359375,-0.75,1,0,0,,,,,,,-4.3359375,-0.75,1,0,0,,0,37,37,76,1,
,,,,,,,,,,,,,FF,,,,,,,,0.5172,,,,,,,,,,,,,,,,,,,,,,610048e0cb6a01bb2ac7aa76,61036f729149836248130cf5,2021-07-29_20h19.41.924,Simcolourproject_2stim_asymm_v5,2020.2.10,MacIntel,60,61025ae37ef11b136ea224fe,,,,,,,,,648,29.8515625,62.22265625,1,0,0,response1disk,,7,1.4140625,0.90234375,1,0,0,rectangle,1.4140625,0.90234375,1,0,0,,,,,,,1.4140625,0.90234375,1,0,0,,0,38,38,66,1,
,,,,,,,,,,,,,FF,,,,,,,,0.415,,,,,,,,,,,,,,,,,,,,,,610048e0cb6a01bb2ac7aa76,61036f729149836248130cf5,2021-07-29_20h19.41.924,Simcolourproject_2stim_asymm_v5,2020.2.10,MacIntel,60,61025ae37ef11b136ea224fe,,,,,,,,,2478,31.8359375,48.421875,1,0,0,response1disk,,7,14.43359375,3.98046875,1,0,0,rectangle,14.43359375,3.98046875,1,0,0,,,,,,,14.43359375,3.98046875,1,0,0,,0,39,39,79,1,
,,,,,,,,,,,,,FF,,,,,,,,0.5167,,,,,,,,,,,,,,,,,,,,,,610048e0cb6a01bb2ac7aa76,61036f729149836248130cf5,2021-07-29_20h19.41.924,Simcolourproject_2stim_asymm_v5,2020.2.10,MacIntel,60,61025ae37ef11b136ea224fe,,,,,,,,,10,34.84375,58.5390625,1,0,0,response1disk,,7,5.9765625,-8.9296875,1,0,0,rectangle,-80.5390625,-49.9921875,1,0,0,response5disk_3,TRUE,2,2,"[30,254,120,68,166,282,179,240,108,73,171,240,122,1,114,229,41,123,172,115]",1.7509,-4.625,-6.8984375,1,0,0,rectangle,0,40,40,146,1,
,,,,,,,,,,,,,FF,,,,,,,,4.2165,,,,,,,,,,,,,,,,,,,,,,610048e0cb6a01bb2ac7aa76,61036f729149836248130cf5,2021-07-29_20h19.41.924,Simcolourproject_2stim_asymm_v5,2020.2.10,MacIntel,60,61025ae37ef11b136ea224fe,,,,,,,,,2389,23.98828125,51.2734375,1,0,0,response1disk,,7,4.796875,0.234375,1,0,0,rectangle,4.796875,0.234375,1,0,0,,,,,,,4.796875,0.234375,1,0,0,,0,41,41,110,1,
,,,,,,,,,,,,,FF,,,,,,,,0.6513,,,,,,,,,,,,,,,,,,,,,,610048e0cb6a01bb2ac7aa76,61036f729149836248130cf5,2021-07-29_20h19.41.924,Simcolourproject_2stim_asymm_v5,2020.2.10,MacIntel,60,61025ae37ef11b136ea224fe,,,,,,,,,3231,30.43359375,61.21875,1,0,0,response1disk,,7,7.296875,-2.390625,1,0,0,rectangle,7.296875,-2.390625,1,0,0,,,,,,,7.296875,-2.390625,1,0,0,,0,42,42,50,1,
,,,,,,,,,,,,,FF,,,,,,,,0.5,,,,,,,,,,,,,,,,,,,,,,610048e0cb6a01bb2ac7aa76,61036f729149836248130cf5,2021-07-29_20h19.41.924,Simcolourproject_2stim_asymm_v5,2020.2.10,MacIntel,60,61025ae37ef11b136ea224fe,,,,,,,,,1235,48.83984375,67.96875,1,0,0,response1disk,,7,6.0703125,1.6875,1,0,0,rectangle,6.0703125,1.6875,1,0,0,,,,,,,6.0703125,1.6875,1,0,0,,0,43,43,46,1,
,,,,,,,,,,,,,FF,,,,,,,,0.584,,,,,,,,,,,,,,,,,,,,,,610048e0cb6a01bb2ac7aa76,61036f729149836248130cf5,2021-07-29_20h19.41.924,Simcolourproject_2stim_asymm_v5,2020.2.10,MacIntel,60,61025ae37ef11b136ea224fe,,,,,,,,,1565,35.5546875,58.80078125,1,0,0,response1disk,,7,4.03515625,2.765625,1,0,0,rectangle,4.03515625,2.765625,1,0,0,,,,,,,4.03515625,2.765625,1,0,0,,0,44,44,72,1,
,,,,,,,,,,,,,FF,,,,,,,,0.4662,,,,,,,,,,,,,,,,,,,,,,610048e0cb6a01bb2ac7aa76,61036f729149836248130cf5,2021-07-29_20h19.41.924,Simcolourproject_2stim_asymm_v5,2020.2.10,MacIntel,60,61025ae37ef11b136ea224fe,,,,,,,,,3727,33.53125,55.2109375,1,0,0,response1disk,,7,2.84765625,-12.5703125,1,0,0,rectangle,2.84765625,-12.5703125,1,0,0,,,,,,,2.84765625,-12.5703125,1,0,0,,0,45,45,21,1,
,,,,,,,,,,,,,FF,,,,,,,,0.6828,,,,,,,,,,,,,,,,,,,,,,610048e0cb6a01bb2ac7aa76,61036f729149836248130cf5,2021-07-29_20h19.41.924,Simcolourproject_2stim_asymm_v5,2020.2.10,MacIntel,60,61025ae37ef11b136ea224fe,,,,,,,,,3388,-27.2734375,61.28125,1,0,0,response7disk,,0,-13.10546875,1.84765625,1,0,0,rectangle,-13.10546875,1.84765625,1,0,0,,,,,,,-13.10546875,1.84765625,1,0,0,,0,46,46,85,1,
,,,,,,,,,,,,,FF,,,,,,,,1.1008,,,,,,,,,,,,,,,,,,,,,,610048e0cb6a01bb2ac7aa76,61036f729149836248130cf5,2021-07-29_20h19.41.924,Simcolourproject_2stim_asymm_v5,2020.2.10,MacIntel,60,61025ae37ef11b136ea224fe,,,,,,,,,4149,-84.078125,-47.89453125,1,0,0,response5disk,,2,-15.75390625,11.00390625,1,0,0,rectangle,-15.75390625,11.00390625,1,0,0,,,,,,,-15.75390625,11.00390625,1,0,0,,0,47,47,3,1,
,,,,,,,,,,,,,FF,,,,,,,,0.6329,,,,,,,,,,,,,,,,,,,,,,610048e0cb6a01bb2ac7aa76,61036f729149836248130cf5,2021-07-29_20h19.41.924,Simcolourproject_2stim_asymm_v5,2020.2.10,MacIntel,60,61025ae37ef11b136ea224fe,,,,,,,,,1014,38.76171875,60.31640625,1,0,0,response1disk,,7,4.7265625,7.68359375,1,0,0,rectangle,4.7265625,7.68359375,1,0,0,,,,,,,4.7265625,7.68359375,1,0,0,,0,48,48,133,1,
,,,,,,,,,,,,,FF,,,,,,,,0.5842,,,,,,,,,,,,,,,,,,,,,,610048e0cb6a01bb2ac7aa76,61036f729149836248130cf5,2021-07-29_20h19.41.924,Simcolourproject_2stim_asymm_v5,2020.2.10,MacIntel,60,61025ae37ef11b136ea224fe,,,,,,,,,1662,31.96484375,55.265625,1,0,0,response1disk,,7,4.53515625,7.7734375,1,0,0,rectangle,4.53515625,7.7734375,1,0,0,,,,,,,4.53515625,7.7734375,1,0,0,,0,49,49,6,1,
,,,,,,,,,,,,,FF,,,,,,,,3.2506,,,,,,,,,,,,,,,,,,,,,,610048e0cb6a01bb2ac7aa76,61036f729149836248130cf5,2021-07-29_20h19.41.924,Simcolourproject_2stim_asymm_v5,2020.2.10,MacIntel,60,61025ae37ef11b136ea224fe,,,,,,,,,3081,26.7265625,55.8671875,1,0,0,response1disk,,7,-1.875,-13.2578125,1,0,0,rectangle,-1.875,-13.2578125,1,0,0,,,,,,,-1.875,-13.2578125,1,0,0,,0,50,50,84,1,
,,,,,,,,,,,,,FF,,,,,,,,0.7669,,,,,,,,,,,,,,,,,,,,,,610048e0cb6a01bb2ac7aa76,61036f729149836248130cf5,2021-07-29_20h19.41.924,Simcolourproject_2stim_asymm_v5,2020.2.10,MacIntel,60,61025ae37ef11b136ea224fe,,,,,,,,,2015,31.13671875,73.78125,1,0,0,response1disk,,7,1.859375,-10.33984375,1,0,0,rectangle,1.859375,-10.33984375,1,0,0,,,,,,,1.859375,-10.33984375,1,0,0,,0,51,51,144,1,
,,,,,,,,,,,,,FF,,,,,,,,4.6996,,,,,,,,,,,,,,,,,,,,,,610048e0cb6a01bb2ac7aa76,61036f729149836248130cf5,2021-07-29_20h19.41.924,Simcolourproject_2stim_asymm_v5,2020.2.10,MacIntel,60,61025ae37ef11b136ea224fe,,,,,,,,,3542,33.171875,62,1,0,0,response1disk,,7,11.44921875,-5.7734375,1,0,0,rectangle,11.44921875,-5.7734375,1,0,0,,,,,,,11.44921875,-5.7734375,1,0,0,,0,52,52,40,1,
,,,,,,,,,,,,,FF,,,,,,,,0.6008,,,,,,,,,,,,,,,,,,,,,,610048e0cb6a01bb2ac7aa76,61036f729149836248130cf5,2021-07-29_20h19.41.924,Simcolourproject_2stim_asymm_v5,2020.2.10,MacIntel,60,61025ae37ef11b136ea224fe,,,,,,,,,4273,35.984375,74.39453125,1,0,0,response1disk,,7,6.890625,-3.80078125,1,0,0,rectangle,6.890625,-3.80078125,1,0,0,,,,,,,6.890625,-3.80078125,1,0,0,,0,53,53,62,1,
,,,,,,,,,,,,,FF,,,,,,,,0.7667,,,,,,,,,,,,,,,,,,,,,,610048e0cb6a01bb2ac7aa76,61036f729149836248130cf5,2021-07-29_20h19.41.924,Simcolourproject_2stim_asymm_v5,2020.2.10,MacIntel,60,61025ae37ef11b136ea224fe,,,,,,,,,2077,32.28515625,65.2265625,1,0,0,response1disk,,7,1.83203125,2.40234375,1,0,0,rectangle,1.83203125,2.40234375,1,0,0,,,,,,,1.83203125,2.40234375,1,0,0,,0,54,54,145,1,
,,,,,,,,,,,,,FF,,,,,,,,2.2995,,,,,,,,,,,,,,,,,,,,,,610048e0cb6a01bb2ac7aa76,61036f729149836248130cf5,2021-07-29_20h19.41.924,Simcolourproject_2stim_asymm_v5,2020.2.10,MacIntel,60,61025ae37ef11b136ea224fe,,,,,,,,,248,64.96875,-49.66015625,1,0,0,response3disk,,5,0.5625,-5.2109375,1,0,0,rectangle,0.5625,-5.2109375,1,0,0,,,,,,,0.5625,-5.2109375,1,0,0,,0,55,55,27,1,
,,,,,,,,,,,,,FF,,,,,,,,0.7841,,,,,,,,,,,,,,,,,,,,,,610048e0cb6a01bb2ac7aa76,61036f729149836248130cf5,2021-07-29_20h19.41.924,Simcolourproject_2stim_asymm_v5,2020.2.10,MacIntel,60,61025ae37ef11b136ea224fe,,,,,,,,,1083,46.0703125,67.64453125,1,0,0,response1disk,,7,6.31640625,6.0703125,1,0,0,rectangle,6.31640625,6.0703125,1,0,0,,,,,,,6.31640625,6.0703125,1,0,0,,0,56,56,49,1,
,,,,,,,,,,,,,FF,,,,,,,,3.8344,,,,,,,,,,,,,,,,,,,,,,610048e0cb6a01bb2ac7aa76,61036f729149836248130cf5,2021-07-29_20h19.41.924,Simcolourproject_2stim_asymm_v5,2020.2.10,MacIntel,60,61025ae37ef11b136ea224fe,,,,,,,,,3833,45.64453125,74.09765625,1,0,0,response1disk,,7,11.82421875,3.66015625,1,0,0,rectangle,11.82421875,3.66015625,1,0,0,,,,,,,11.82421875,3.66015625,1,0,0,,0,57,57,90,1,
,,,,,,,,,,,,,FF,,,,,,,,1.8156,,,,,,,,,,,,,,,,,,,,,,610048e0cb6a01bb2ac7aa76,61036f729149836248130cf5,2021-07-29_20h19.41.924,Simcolourproject_2stim_asymm_v5,2020.2.10,MacIntel,60,61025ae37ef11b136ea224fe,,,,,,,,,2706,37.92578125,59.2578125,1,0,0,response1disk,,7,27.5703125,8.26953125,1,0,0,rectangle,27.5703125,8.26953125,1,0,0,,,,,,,27.5703125,8.26953125,1,0,0,,0,58,58,83,1,
,,,,,,,,,,,,,FF,,,,,,,,2.0842,,,,,,,,,,,,,,,,,,,,,,610048e0cb6a01bb2ac7aa76,61036f729149836248130cf5,2021-07-29_20h19.41.924,Simcolourproject_2stim_asymm_v5,2020.2.10,MacIntel,60,61025ae37ef11b136ea224fe,,,,,,,,,1312,82.6171875,-39.55859375,1,0,0,response3disk,,5,23.73046875,-6.46875,1,0,0,rectangle,23.73046875,-6.46875,1,0,0,,,,,,,23.73046875,-6.46875,1,0,0,,0,59,59,86,1,
,,,,,,,,,,,,,FF,,,,,,,,0.5167,,,,,,,,,,,,,,,,,,,,,,610048e0cb6a01bb2ac7aa76,61036f729149836248130cf5,2021-07-29_20h19.41.924,Simcolourproject_2stim_asymm_v5,2020.2.10,MacIntel,60,61025ae37ef11b136ea224fe,,,,,,,,,1209,29.921875,51.39453125,1,0,0,response1disk,,7,17.859375,-1.5546875,1,0,0,rectangle,17.859375,-1.5546875,1,0,0,,,,,,,17.859375,-1.5546875,1,0,0,,0,60,60,152,1,
,,,,,,,,,,,,,FF,,,,,,,,0.8159,,,,,,,,,,,,,,,,,,,,,,610048e0cb6a01bb2ac7aa76,61036f729149836248130cf5,2021-07-29_20h19.41.924,Simcolourproject_2stim_asymm_v5,2020.2.10,MacIntel,60,61025ae37ef11b136ea224fe,,,,,,,,,3021,28.27734375,81.7265625,1,0,0,response1disk,,7,2.94921875,-6.28515625,1,0,0,rectangle,2.94921875,-6.28515625,1,0,0,,,,,,,2.94921875,-6.28515625,1,0,0,,0,61,61,38,1,
,,,,,,,,,,,,,FF,,,,,,,,0.9167,,,,,,,,,,,,,,,,,,,,,,610048e0cb6a01bb2ac7aa76,61036f729149836248130cf5,2021-07-29_20h19.41.924,Simcolourproject_2stim_asymm_v5,2020.2.10,MacIntel,60,61025ae37ef11b136ea224fe,,,,,,,,,3280,35.6875,64.85546875,1,0,0,response1disk,,7,7.76171875,9.9921875,1,0,0,rectangle,7.76171875,9.9921875,1,0,0,,,,,,,7.76171875,9.9921875,1,0,0,,0,62,62,135,1,
,,,,,,,,,,,,,FF,,,,,,,,1.4999,,,,,,,,,,,,,,,,,,,,,,610048e0cb6a01bb2ac7aa76,61036f729149836248130cf5,2021-07-29_20h19.41.924,Simcolourproject_2stim_asymm_v5,2020.2.10,MacIntel,60,61025ae37ef11b136ea224fe,,,,,,,,,482,33.75,59.49609375,1,0,0,response1disk,,7,4.46875,-5.6875,1,0,0,rectangle,4.46875,-5.6875,1,0,0,,,,,,,4.46875,-5.6875,1,0,0,,0,63,63,0,1,
,,,,,,,,,,,,,FF,,,,,,,,1.55,,,,,,,,,,,,,,,,,,,,,,610048e0cb6a01bb2ac7aa76,61036f729149836248130cf5,2021-07-29_20h19.41.924,Simcolourproject_2stim_asymm_v5,2020.2.10,MacIntel,60,61025ae37ef11b136ea224fe,,,,,,,,,298,19.7890625,51.1875,1,0,0,response1disk,,7,16.0625,2.9765625,1,0,0,rectangle,16.0625,2.9765625,1,0,0,,,,,,,16.0625,2.9765625,1,0,0,,0,64,64,157,1,
,,,,,,,,,,,,,FF,,,,,,,,0.634,,,,,,,,,,,,,,,,,,,,,,610048e0cb6a01bb2ac7aa76,61036f729149836248130cf5,2021-07-29_20h19.41.924,Simcolourproject_2stim_asymm_v5,2020.2.10,MacIntel,60,61025ae37ef11b136ea224fe,,,,,,,,,2625,32.4609375,54.86328125,1,0,0,response1disk,,7,27.7421875,11.5546875,1,0,0,rectangle,27.7421875,11.5546875,1,0,0,,,,,,,27.7421875,11.5546875,1,0,0,,0,65,65,91,1,
,,,,,,,,,,,,,FF,,,,,,,,1.5664,,,,,,,,,,,,,,,,,,,,,,610048e0cb6a01bb2ac7aa76,61036f729149836248130cf5,2021-07-29_20h19.41.924,Simcolourproject_2stim_asymm_v5,2020.2.10,MacIntel,60,61025ae37ef11b136ea224fe,,,,,,,,,935,39.05859375,66.66015625,1,0,0,response1disk,,7,21.2890625,7.0078125,1,0,0,rectangle,21.2890625,7.0078125,1,0,0,,,,,,,21.2890625,7.0078125,1,0,0,,0,66,66,25,1,
,,,,,,,,,,,,,FF,,,,,,,,1.317,,,,,,,,,,,,,,,,,,,,,,610048e0cb6a01bb2ac7aa76,61036f729149836248130cf5,2021-07-29_20h19.41.924,Simcolourproject_2stim_asymm_v5,2020.2.10,MacIntel,60,61025ae37ef11b136ea224fe,,,,,,,,,704,66.43359375,-41.5,1,0,0,response3disk,,5,1.4453125,-10.4765625,1,0,0,rectangle,68.4609375,-42.54296875,1,0,0,response3disk_3,TRUE,5,5,"[30,254,120,68,166,282,179,240,108,73,171,240,122,1,114,229,41,123,172,115]",1.6833,-13.36328125,-2.53125,1,0,0,rectangle,0,67,67,2,1,
,,,,,,,,,,,,,FF,,,,,,,,1.085,,,,,,,,,,,,,,,,,,,,,,610048e0cb6a01bb2ac7aa76,61036f729149836248130cf5,2021-07-29_20h19.41.924,Simcolourproject_2stim_asymm_v5,2020.2.10,MacIntel,60,61025ae37ef11b136ea224fe,,,,,,,,,3076,35.75,65.5390625,1,0,0,response1disk,,7,12.58984375,5.47265625,1,0,0,rectangle,12.58984375,5.47265625,1,0,0,,,,,,,12.58984375,5.47265625,1,0,0,,0,68,68,28,1,
,,,,,,,,,,,,,FF,,,,,,,,1.3011,,,,,,,,,,,,,,,,,,,,,,610048e0cb6a01bb2ac7aa76,61036f729149836248130cf5,2021-07-29_20h19.41.924,Simcolourproject_2stim_asymm_v5,2020.2.10,MacIntel,60,61025ae37ef11b136ea224fe,,,,,,,,,2954,41.703125,-80.625,1,0,0,response3disk,,4,-4.26171875,-14.96484375,1,0,0,rectangle,-4.26171875,-14.96484375,1,0,0,,,,,,,-4.26171875,-14.96484375,1,0,0,,0,69,69,123,1,
,,,,,,,,,,,,,FF,,,,,,,,0.6159,,,,,,,,,,,,,,,,,,,,,,610048e0cb6a01bb2ac7aa76,61036f729149836248130cf5,2021-07-29_20h19.41.924,Simcolourproject_2stim_asymm_v5,2020.2.10,MacIntel,60,61025ae37ef11b136ea224fe,,,,,,,,,3496,36.3359375,79.33984375,1,0,0,response1disk,,7,2.9375,0.71484375,1,0,0,rectangle,2.9375,0.71484375,1,0,0,,,,,,,2.9375,0.71484375,1,0,0,,0,70,70,16,1,
,,,,,,,,,,,,,FF,,,,,,,,0.4352,,,,,,,,,,,,,,,,,,,,,,610048e0cb6a01bb2ac7aa76,61036f729149836248130cf5,2021-07-29_20h19.41.924,Simcolourproject_2stim_asymm_v5,2020.2.10,MacIntel,60,61025ae37ef11b136ea224fe,,,,,,,,,1248,30.56640625,64.32421875,1,0,0,response1disk,,7,12.08203125,6.76953125,1,0,0,rectangle,12.08203125,6.76953125,1,0,0,,,,,,,12.08203125,6.76953125,1,0,0,,0,71,71,59,1,
,,,,,,,,,,,,,FF,,,,,,,,0.5002,,,,,,,,,,,,,,,,,,,,,,610048e0cb6a01bb2ac7aa76,61036f729149836248130cf5,2021-07-29_20h19.41.924,Simcolourproject_2stim_asymm_v5,2020.2.10,MacIntel,60,61025ae37ef11b136ea224fe,,,,,,,,,1421,47.65234375,75.359375,1,0,0,response1disk,,7,17.12890625,0.94921875,1,0,0,rectangle,90.21875,48.4609375,1,0,0,response1disk_3,TRUE,6,6,"[30,254,120,68,166,282,179,240,108,73,171,240,122,1,114,229,41,123,172,115]",1.5662,6.68359375,-8.109375,1,0,0,rectangle,0,72,72,124,1,
,,,,,,,,,,,,,FF,,,,,,,,1.3321,,,,,,,,,,,,,,,,,,,,,,610048e0cb6a01bb2ac7aa76,61036f729149836248130cf5,2021-07-29_20h19.41.924,Simcolourproject_2stim_asymm_v5,2020.2.10,MacIntel,60,61025ae37ef11b136ea224fe,,,,,,,,,2169,74.515625,-47.57421875,1,0,0,response3disk,,5,7.05078125,-13.125,1,0,0,rectangle,7.05078125,-13.125,1,0,0,,,,,,,7.05078125,-13.125,1,0,0,,0,73,73,58,1,
,,,,,,,,,,,,,FF,,,,,,,,1.1319,,,,,,,,,,,,,,,,,,,,,,610048e0cb6a01bb2ac7aa76,61036f729149836248130cf5,2021-07-29_20h19.41.924,Simcolourproject_2stim_asymm_v5,2020.2.10,MacIntel,60,61025ae37ef11b136ea224fe,,,,,,,,,3170,29.82421875,54.765625,1,0,0,response1disk,,7,4.9140625,-1.68359375,1,0,0,rectangle,4.9140625,-1.68359375,1,0,0,,,,,,,4.9140625,-1.68359375,1,0,0,,0,74,74,97,1,
,,,,,,,,,,,,,FF,,,,,,,,0.3834,,,,,,,,,,,,,,,,,,,,,,610048e0cb6a01bb2ac7aa76,61036f729149836248130cf5,2021-07-29_20h19.41.924,Simcolourproject_2stim_asymm_v5,2020.2.10,MacIntel,60,61025ae37ef11b136ea224fe,,,,,,,,,1339,30.89453125,65.36328125,1,0,0,response1disk,,7,2.80859375,-4.4765625,1,0,0,rectangle,2.80859375,-4.4765625,1,0,0,,,,,,,2.80859375,-4.4765625,1,0,0,,0,75,75,154,1,
,,,,,,,,,,,,,FF,,,,,,,,0.4007,,,,,,,,,,,,,,,,,,,,,,610048e0cb6a01bb2ac7aa76,61036f729149836248130cf5,2021-07-29_20h19.41.924,Simcolourproject_2stim_asymm_v5,2020.2.10,MacIntel,60,61025ae37ef11b136ea224fe,,,,,,,,,2380,27.6328125,60.1328125,1,0,0,response1disk,,7,10.3046875,7.31640625,1,0,0,rectangle,10.3046875,7.31640625,1,0,0,,,,,,,10.3046875,7.31640625,1,0,0,,0,76,76,120,1,
,,,,,,,,,,,,,FF,,,,,,,,0.5171,,,,,,,,,,,,,,,,,,,,,,610048e0cb6a01bb2ac7aa76,61036f729149836248130cf5,2021-07-29_20h19.41.924,Simcolourproject_2stim_asymm_v5,2020.2.10,MacIntel,60,61025ae37ef11b136ea224fe,,,,,,,,,215,22.1484375,56.39453125,1,0,0,response1disk,,7,8.6015625,-2.625,1,0,0,rectangle,8.6015625,-2.625,1,0,0,,,,,,,8.6015625,-2.625,1,0,0,,0,77,77,148,1,
,,,,,,,,,,,,,FF,,,,,,,,1.2006,,,,,,,,,,,,,,,,,,,,,,610048e0cb6a01bb2ac7aa76,61036f729149836248130cf5,2021-07-29_20h19.41.924,Simcolourproject_2stim_asymm_v5,2020.2.10,MacIntel,60,61025ae37ef11b136ea224fe,,,,,,,,,1601,30.48046875,-81.34375,1,0,0,response3disk,,4,-3.88671875,2.83203125,1,0,0,rectangle,-3.88671875,2.83203125,1,0,0,,,,,,,-3.88671875,2.83203125,1,0,0,,0,78,78,54,1,
,,,,,,,,,,,,,FF,,,,,,,,0.4314,,,,,,,,,,,,,,,,,,,,,,610048e0cb6a01bb2ac7aa76,61036f729149836248130cf5,2021-07-29_20h19.41.924,Simcolourproject_2stim_asymm_v5,2020.2.10,MacIntel,60,61025ae37ef11b136ea224fe,,,,,,,,,4105,23.35546875,58.546875,1,0,0,response1disk,,7,13.2734375,1.47265625,1,0,0,rectangle,13.2734375,1.47265625,1,0,0,,,,,,,13.2734375,1.47265625,1,0,0,,0,79,79,75,1,
,,,,,,,,,,,,,FF,,,,,,,,0.4834,,,,,,,,,,,,,,,,,,,,,,610048e0cb6a01bb2ac7aa76,61036f729149836248130cf5,2021-07-29_20h19.41.924,Simcolourproject_2stim_asymm_v5,2020.2.10,MacIntel,60,61025ae37ef11b136ea224fe,,,,,,,,,3222,36.66796875,49.58984375,1,0,0,response1disk,,7,7.7421875,0.84765625,1,0,0,rectangle,7.7421875,0.84765625,1,0,0,,,,,,,7.7421875,0.84765625,1,0,0,,0,80,80,34,1,
,,,,,,,,,,,,,FF,,,,,,,,0.416,,,,,,,,,,,,,,,,,,,,,,610048e0cb6a01bb2ac7aa76,61036f729149836248130cf5,2021-07-29_20h19.41.924,Simcolourproject_2stim_asymm_v5,2020.2.10,MacIntel,60,61025ae37ef11b136ea224fe,,,,,,,,,564,26.015625,60.82421875,1,0,0,response1disk,,7,14.03515625,-5.58984375,1,0,0,rectangle,14.03515625,-5.58984375,1,0,0,,,,,,,14.03515625,-5.58984375,1,0,0,,0,81,81,22,1,
,,,,,,,,,,,,,FF,,,,,,,,2.4491,,,,,,,,,,,,,,,,,,,,,,610048e0cb6a01bb2ac7aa76,61036f729149836248130cf5,2021-07-29_20h19.41.924,Simcolourproject_2stim_asymm_v5,2020.2.10,MacIntel,60,61025ae37ef11b136ea224fe,,,,,,,,,263,92.49609375,37.3046875,1,0,0,response1disk,,6,18.80078125,2.08984375,1,0,0,rectangle,18.80078125,2.08984375,1,0,0,,,,,,,18.80078125,2.08984375,1,0,0,,0,82,82,116,1,
,,,,,,,,,,,,,FF,,,,,,,,0.3673,,,,,,,,,,,,,,,,,,,,,,610048e0cb6a01bb2ac7aa76,61036f729149836248130cf5,2021-07-29_20h19.41.924,Simcolourproject_2stim_asymm_v5,2020.2.10,MacIntel,60,61025ae37ef11b136ea224fe,,,,,,,,,2576,41.0859375,60.1875,1,0,0,response1disk,,7,3.19140625,-2.1796875,1,0,0,rectangle,3.19140625,-2.1796875,1,0,0,,,,,,,3.19140625,-2.1796875,1,0,0,,0,83,83,136,1,
,,,,,,,,,,,,,FF,,,,,,,,0.3666,,,,,,,,,,,,,,,,,,,,,,610048e0cb6a01bb2ac7aa76,61036f729149836248130cf5,2021-07-29_20h19.41.924,Simcolourproject_2stim_asymm_v5,2020.2.10,MacIntel,60,61025ae37ef11b136ea224fe,,,,,,,,,3402,34.6171875,71.7421875,1,0,0,response1disk,,7,9.18359375,-8.1171875,1,0,0,rectangle,9.18359375,-8.1171875,1,0,0,,,,,,,9.18359375,-8.1171875,1,0,0,,0,84,84,44,1,
,,,,,,,,,,,,,FF,,,,,,,,0.8163,,,,,,,,,,,,,,,,,,,,,,610048e0cb6a01bb2ac7aa76,61036f729149836248130cf5,2021-07-29_20h19.41.924,Simcolourproject_2stim_asymm_v5,2020.2.10,MacIntel,60,61025ae37ef11b136ea224fe,,,,,,,,,3668,-50.5859375,82.453125,1,0,0,response7disk,,0,-3.96484375,7.53515625,1,0,0,rectangle,-3.96484375,7.53515625,1,0,0,,,,,,,-3.96484375,7.53515625,1,0,0,,0,85,85,43,1,
,,,,,,,,,,,,,FF,,,,,,,,0.6503,,,,,,,,,,,,,,,,,,,,,,610048e0cb6a01bb2ac7aa76,61036f729149836248130cf5,2021-07-29_20h19.41.924,Simcolourproject_2stim_asymm_v5,2020.2.10,MacIntel,60,61025ae37ef11b136ea224fe,,,,,,,,,778,29.078125,75.109375,1,0,0,response1disk,,7,25.28515625,12.76953125,1,0,0,rectangle,25.28515625,12.76953125,1,0,0,,,,,,,25.28515625,12.76953125,1,0,0,,0,86,86,106,1,
,,,,,,,,,,,,,FF,,,,,,,,0.3839,,,,,,,,,,,,,,,,,,,,,,610048e0cb6a01bb2ac7aa76,61036f729149836248130cf5,2021-07-29_20h19.41.924,Simcolourproject_2stim_asymm_v5,2020.2.10,MacIntel,60,61025ae37ef11b136ea224fe,,,,,,,,,605,41.12890625,59.33203125,1,0,0,response1disk,,7,8.86328125,2.7109375,1,0,0,rectangle,8.86328125,2.7109375,1,0,0,,,,,,,8.86328125,2.7109375,1,0,0,,0,87,87,71,1,
,,,,,,,,,,,,,FF,,,,,,,,0.6662,,,,,,,,,,,,,,,,,,,,,,610048e0cb6a01bb2ac7aa76,61036f729149836248130cf5,2021-07-29_20h19.41.924,Simcolourproject_2stim_asymm_v5,2020.2.10,MacIntel,60,61025ae37ef11b136ea224fe,,,,,,,,,818,34.37890625,61.5625,1,0,0,response1disk,,7,-6.0234375,-6.63671875,1,0,0,rectangle,-6.0234375,-6.63671875,1,0,0,,,,,,,-6.0234375,-6.63671875,1,0,0,,0,88,88,92,1,
,,,,,,,,,,,,,FF,,,,,,,,0.4683,,,,,,,,,,,,,,,,,,,,,,610048e0cb6a01bb2ac7aa76,61036f729149836248130cf5,2021-07-29_20h19.41.924,Simcolourproject_2stim_asymm_v5,2020.2.10,MacIntel,60,61025ae37ef11b136ea224fe,,,,,,,,,4139,26.02734375,69.18359375,1,0,0,response1disk,,7,5.65234375,2.1015625,1,0,0,rectangle,5.65234375,2.1015625,1,0,0,,,,,,,5.65234375,2.1015625,1,0,0,,0,89,89,30,1,
,,,,,,,,,,,,,FF,,,,,,,,1.4672,,,,,,,,,,,,,,,,,,,,,,610048e0cb6a01bb2ac7aa76,61036f729149836248130cf5,2021-07-29_20h19.41.924,Simcolourproject_2stim_asymm_v5,2020.2.10,MacIntel,60,61025ae37ef11b136ea224fe,,,,,,,,,2605,32.89453125,-95.59765625,1,0,0,response3disk,,4,4.28515625,-10.19921875,1,0,0,rectangle,4.28515625,-10.19921875,1,0,0,,,,,,,4.28515625,-10.19921875,1,0,0,,0,90,90,14,1,
,,,,,,,,,,,,,FF,,,,,,,,1.5319,,,,,,,,,,,,,,,,,,,,,,610048e0cb6a01bb2ac7aa76,61036f729149836248130cf5,2021-07-29_20h19.41.924,Simcolourproject_2stim_asymm_v5,2020.2.10,MacIntel,60,61025ae37ef11b136ea224fe,,,,,,,,,1133,84.3515625,-48.171875,1,0,0,response3disk,,5,4.1953125,5.48046875,1,0,0,rectangle,4.1953125,5.48046875,1,0,0,,,,,,,4.1953125,5.48046875,1,0,0,,0,91,91,141,1,
,,,,,,,,,,,,,FF,,,,,,,,0.6996,,,,,,,,,,,,,,,,,,,,,,610048e0cb6a01bb2ac7aa76,61036f729149836248130cf5,2021-07-29_20h19.41.924,Simcolourproject_2stim_asymm_v5,2020.2.10,MacIntel,60,61025ae37ef11b136ea224fe,,,,,,,,,2492,30.67578125,55.54296875,1,0,0,response1disk,,7,13.609375,-1.40234375,1,0,0,rectangle,13.609375,-1.40234375,1,0,0,,,,,,,13.609375,-1.40234375,1,0,0,,0,92,92,107,1,
,,,,,,,,,,,,,FF,,,,,,,,0.4653,,,,,,,,,,,,,,,,,,,,,,610048e0cb6a01bb2ac7aa76,61036f729149836248130cf5,2021-07-29_20h19.41.924,Simcolourproject_2stim_asymm_v5,2020.2.10,MacIntel,60,61025ae37ef11b136ea224fe,,,,,,,,,1857,33.98046875,59.5234375,1,0,0,response1disk,,7,3.86328125,-0.25,1,0,0,rectangle,3.86328125,-0.25,1,0,0,,,,,,,3.86328125,-0.25,1,0,0,,0,93,93,33,1,
,,,,,,,,,,,,,FF,,,,,,,,0.4834,,,,,,,,,,,,,,,,,,,,,,610048e0cb6a01bb2ac7aa76,61036f729149836248130cf5,2021-07-29_20h19.41.924,Simcolourproject_2stim_asymm_v5,2020.2.10,MacIntel,60,61025ae37ef11b136ea224fe,,,,,,,,,4110,31.140625,62.28125,1,0,0,response1disk,,7,-5.34765625,-6.1328125,1,0,0,rectangle,-5.34765625,-6.1328125,1,0,0,,,,,,,-5.34765625,-6.1328125,1,0,0,,0,94,94,9,1,
,,,,,,,,,,,,,FF,,,,,,,,1.4669,,,,,,,,,,,,,,,,,,,,,,610048e0cb6a01bb2ac7aa76,61036f729149836248130cf5,2021-07-29_20h19.41.924,Simcolourproject_2stim_asymm_v5,2020.2.10,MacIntel,60,61025ae37ef11b136ea224fe,,,,,,,,,1201,81.515625,26.73828125,1,0,0,response1disk,,6,3.3046875,-10.01171875,1,0,0,rectangle,3.3046875,-10.01171875,1,0,0,,,,,,,3.3046875,-10.01171875,1,0,0,,0,95,95,137,1,
,,,,,,,,,,,,,FF,,,,,,,,2.3499,,,,,,,,,,,,,,,,,,,,,,610048e0cb6a01bb2ac7aa76,61036f729149836248130cf5,2021-07-29_20h19.41.924,Simcolourproject_2stim_asymm_v5,2020.2.10,MacIntel,60,61025ae37ef11b136ea224fe,,,,,,,,,1971,34.79296875,-94.87109375,1,0,0,response3disk,,4,-3.88671875,-12.09765625,1,0,0,rectangle,-3.88671875,-12.09765625,1,0,0,,,,,,,-3.88671875,-12.09765625,1,0,0,,0,96,96,101,1,
,,,,,,,,,,,,,FF,,,,,,,,1.0016,,,,,,,,,,,,,,,,,,,,,,610048e0cb6a01bb2ac7aa76,61036f729149836248130cf5,2021-07-29_20h19.41.924,Simcolourproject_2stim_asymm_v5,2020.2.10,MacIntel,60,61025ae37ef11b136ea224fe,,,,,,,,,3483,43.0234375,65.65625,1,0,0,response1disk,,7,16.03125,10.28125,1,0,0,rectangle,16.03125,10.28125,1,0,0,,,,,,,16.03125,10.28125,1,0,0,,0,97,97,42,1,
,,,,,,,,,,,,,FF,,,,,,,,0.4837,,,,,,,,,,,,,,,,,,,,,,610048e0cb6a01bb2ac7aa76,61036f729149836248130cf5,2021-07-29_20h19.41.924,Simcolourproject_2stim_asymm_v5,2020.2.10,MacIntel,60,61025ae37ef11b136ea224fe,,,,,,,,,2433,33.54296875,74.0546875,1,0,0,response1disk,,7,16.76171875,-0.3671875,1,0,0,rectangle,16.76171875,-0.3671875,1,0,0,,,,,,,16.76171875,-0.3671875,1,0,0,,0,98,98,17,1,
,,,,,,,,,,,,,FF,,,,,,,,0.3657,,,,,,,,,,,,,,,,,,,,,,610048e0cb6a01bb2ac7aa76,61036f729149836248130cf5,2021-07-29_20h19.41.924,Simcolourproject_2stim_asymm_v5,2020.2.10,MacIntel,60,61025ae37ef11b136ea224fe,,,,,,,,,1270,41.6640625,68,1,0,0,response1disk,,7,17.14453125,9.37109375,1,0,0,rectangle,17.14453125,9.37109375,1,0,0,,,,,,,17.14453125,9.37109375,1,0,0,,0,99,99,67,1,
,,,,,,,,,,,,,FF,,,,,,,,0.9489,,,,,,,,,,,,,,,,,,,,,,610048e0cb6a01bb2ac7aa76,61036f729149836248130cf5,2021-07-29_20h19.41.924,Simcolourproject_2stim_asymm_v5,2020.2.10,MacIntel,60,61025ae37ef11b136ea224fe,,,,,,,,,1276,34.4140625,67.58984375,1,0,0,response1disk,,7,-2.8671875,-0.66796875,1,0,0,rectangle,-2.8671875,-0.66796875,1,0,0,,,,,,,-2.8671875,-0.66796875,1,0,0,,0,100,100,31,1,
,,,,,,,,,,,,,FF,,,,,,,,0.7331,,,,,,,,,,,,,,,,,,,,,,610048e0cb6a01bb2ac7aa76,61036f729149836248130cf5,2021-07-29_20h19.41.924,Simcolourproject_2stim_asymm_v5,2020.2.10,MacIntel,60,61025ae37ef11b136ea224fe,,,,,,,,,3083,32.3515625,67.4765625,1,0,0,response1disk,,7,22.19921875,2.53515625,1,0,0,rectangle,22.19921875,2.53515625,1,0,0,,,,,,,22.19921875,2.53515625,1,0,0,,0,101,101,128,1,
,,,,,,,,,,,,,FF,,,,,,,,0.4667,,,,,,,,,,,,,,,,,,,,,,610048e0cb6a01bb2ac7aa76,61036f729149836248130cf5,2021-07-29_20h19.41.924,Simcolourproject_2stim_asymm_v5,2020.2.10,MacIntel,60,61025ae37ef11b136ea224fe,,,,,,,,,210,46.44140625,63.9453125,1,0,0,response1disk,,7,16.4453125,-4.6171875,1,0,0,rectangle,16.4453125,-4.6171875,1,0,0,,,,,,,16.4453125,-4.6171875,1,0,0,,0,102,102,103,1,
,,,,,,,,,,,,,FF,,,,,,,,0.4987,,,,,,,,,,,,,,,,,,,,,,610048e0cb6a01bb2ac7aa76,61036f729149836248130cf5,2021-07-29_20h19.41.924,Simcolourproject_2stim_asymm_v5,2020.2.10,MacIntel,60,61025ae37ef11b136ea224fe,,,,,,,,,2201,42.7578125,82.69921875,1,0,0,response1disk,,7,10.625,-8.6484375,1,0,0,rectangle,10.625,-8.6484375,1,0,0,,,,,,,10.625,-8.6484375,1,0,0,,0,103,103,100,1,
,,,,,,,,,,,,,FF,,,,,,,,0.7664,,,,,,,,,,,,,,,,,,,,,,610048e0cb6a01bb2ac7aa76,61036f729149836248130cf5,2021-07-29_20h19.41.924,Simcolourproject_2stim_asymm_v5,2020.2.10,MacIntel,60,61025ae37ef11b136ea224fe,,,,,,,,,3604,29.375,57.34375,1,0,0,response1disk,,7,-1.671875,-12.44921875,1,0,0,rectangle,-1.671875,-12.44921875,1,0,0,,,,,,,-1.671875,-12.44921875,1,0,0,,0,104,104,151,1,
,,,,,,,,,,,,,FF,,,,,,,,0.6337,,,,,,,,,,,,,,,,,,,,,,610048e0cb6a01bb2ac7aa76,61036f729149836248130cf5,2021-07-29_20h19.41.924,Simcolourproject_2stim_asymm_v5,2020.2.10,MacIntel,60,61025ae37ef11b136ea224fe,,,,,,,,,3459,29.5546875,57.625,1,0,0,response1disk,,7,-1.765625,-1.2734375,1,0,0,rectangle,-1.765625,-1.2734375,1,0,0,,,,,,,-1.765625,-1.2734375,1,0,0,,0,105,105,24,1,
,,,,,,,,,,,,,FF,,,,,,,,0.5498,,,,,,,,,,,,,,,,,,,,,,610048e0cb6a01bb2ac7aa76,61036f729149836248130cf5,2021-07-29_20h19.41.924,Simcolourproject_2stim_asymm_v5,2020.2.10,MacIntel,60,61025ae37ef11b136ea224fe,,,,,,,,,906,26.30859375,61.38671875,1,0,0,response1disk,,7,5.6328125,-5.75,1,0,0,rectangle,5.6328125,-5.75,1,0,0,,,,,,,5.6328125,-5.75,1,0,0,,0,106,106,55,1,
,,,,,,,,,,,,,FF,,,,,,,,0.4325,,,,,,,,,,,,,,,,,,,,,,610048e0cb6a01bb2ac7aa76,61036f729149836248130cf5,2021-07-29_20h19.41.924,Simcolourproject_2stim_asymm_v5,2020.2.10,MacIntel,60,61025ae37ef11b136ea224fe,,,,,,,,,1090,34.34375,48.66015625,1,0,0,response1disk,,7,15.83984375,7.625,1,0,0,rectangle,-31.89453125,85.8125,1,0,0,response7disk_3,TRUE,0,0,"[30,254,120,68,166,282,179,240,108,73,171,240,122,1,114,229,41,123,172,115]",1.8502,6.46484375,-4.1640625,1,0,0,rectangle,0,107,107,51,1,
,,,,,,,,,,,,,FF,,,,,,,,0.6348,,,,,,,,,,,,,,,,,,,,,,610048e0cb6a01bb2ac7aa76,61036f729149836248130cf5,2021-07-29_20h19.41.924,Simcolourproject_2stim_asymm_v5,2020.2.10,MacIntel,60,61025ae37ef11b136ea224fe,,,,,,,,,1336,34.00390625,64.42578125,1,0,0,response1disk,,7,22.49609375,6.69140625,1,0,0,rectangle,22.49609375,6.69140625,1,0,0,,,,,,,22.49609375,6.69140625,1,0,0,,0,108,108,112,1,
,,,,,,,,,,,,,FF,,,,,,,,0.4332,,,,,,,,,,,,,,,,,,,,,,610048e0cb6a01bb2ac7aa76,61036f729149836248130cf5,2021-07-29_20h19.41.924,Simcolourproject_2stim_asymm_v5,2020.2.10,MacIntel,60,61025ae37ef11b136ea224fe,,,,,,,,,1153,48.56640625,58.55078125,1,0,0,response1disk,,7,24.9765625,11.48828125,1,0,0,rectangle,24.9765625,11.48828125,1,0,0,,,,,,,24.9765625,11.48828125,1,0,0,,0,109,109,52,1,
,,,,,,,,,,,,,FF,,,,,,,,0.4661,,,,,,,,,,,,,,,,,,,,,,610048e0cb6a01bb2ac7aa76,61036f729149836248130cf5,2021-07-29_20h19.41.924,Simcolourproject_2stim_asymm_v5,2020.2.10,MacIntel,60,61025ae37ef11b136ea224fe,,,,,,,,,1728,35.09765625,71.90234375,1,0,0,response1disk,,7,24.30859375,9.58203125,1,0,0,rectangle,24.30859375,9.58203125,1,0,0,,,,,,,24.30859375,9.58203125,1,0,0,,0,110,110,77,1,
,,,,,,,,,,,,,FF,,,,,,,,0.3831,,,,,,,,,,,,,,,,,,,,,,610048e0cb6a01bb2ac7aa76,61036f729149836248130cf5,2021-07-29_20h19.41.924,Simcolourproject_2stim_asymm_v5,2020.2.10,MacIntel,60,61025ae37ef11b136ea224fe,,,,,,,,,2521,39.8515625,57.1328125,1,0,0,response1disk,,7,22.83984375,6.640625,1,0,0,rectangle,22.83984375,6.640625,1,0,0,,,,,,,22.83984375,6.640625,1,0,0,,0,111,111,99,1,
,,,,,,,,,,,,,FF,,,,,,,,0.3834,,,,,,,,,,,,,,,,,,,,,,610048e0cb6a01bb2ac7aa76,61036f729149836248130cf5,2021-07-29_20h19.41.924,Simcolourproject_2stim_asymm_v5,2020.2.10,MacIntel,60,61025ae37ef11b136ea224fe,,,,,,,,,269,38.078125,67.94921875,1,0,0,response1disk,,7,19.12890625,1.515625,1,0,0,rectangle,19.12890625,1.515625,1,0,0,,,,,,,19.12890625,1.515625,1,0,0,,0,112,112,5,1,
,,,,,,,,,,,,,FF,,,,,,,,1.7836,,,,,,,,,,,,,,,,,,,,,,610048e0cb6a01bb2ac7aa76,61036f729149836248130cf5,2021-07-29_20h19.41.924,Simcolourproject_2stim_asymm_v5,2020.2.10,MacIntel,60,61025ae37ef11b136ea224fe,,,,,,,,,95,-23.03515625,-92.59765625,1,0,0,response5disk,,3,1.203125,11.796875,1,0,0,rectangle,63.59765625,39.93359375,1,0,0,response1disk_3,TRUE,6,6,"[30,254,120,68,166,282,179,240,108,73,171,240,122,1,114,229,41,123,172,115]",1.6826,0.234375,1.46484375,1,0,0,rectangle,0,113,113,80,1,
,,,,,,,,,,,,,FF,,,,,,,,2.2674,,,,,,,,,,,,,,,,,,,,,,610048e0cb6a01bb2ac7aa76,61036f729149836248130cf5,2021-07-29_20h19.41.924,Simcolourproject_2stim_asymm_v5,2020.2.10,MacIntel,60,61025ae37ef11b136ea224fe,,,,,,,,,2277,33.765625,56.0234375,1,0,0,response1disk,,7,4.8125,-0.01171875,1,0,0,rectangle,-37.375,-89.85546875,1,0,0,response5disk_3,TRUE,3,3,"[30,254,120,68,166,282,179,240,108,73,171,240,122,1,114,229,41,123,172,115]",1.5825,-1.30859375,1.79296875,1,0,0,rectangle,0,114,114,139,1,
,,,,,,,,,,,,,FF,,,,,,,,1.568,,,,,,,,,,,,,,,,,,,,,,610048e0cb6a01bb2ac7aa76,61036f729149836248130cf5,2021-07-29_20h19.41.924,Simcolourproject_2stim_asymm_v5,2020.2.10,MacIntel,60,61025ae37ef11b136ea224fe,,,,,,,,,3397,89.3125,-32.08984375,1,0,0,response3disk,,5,17.03125,-4.7265625,1,0,0,rectangle,17.03125,-4.7265625,1,0,0,,,,,,,17.03125,-4.7265625,1,0,0,,0,115,115,108,1,
,,,,,,,,,,,,,FF,,,,,,,,3.868,,,,,,,,,,,,,,,,,,,,,,610048e0cb6a01bb2ac7aa76,61036f729149836248130cf5,2021-07-29_20h19.41.924,Simcolourproject_2stim_asymm_v5,2020.2.10,MacIntel,60,61025ae37ef11b136ea224fe,,,,,,,,,2539,55.8359375,94.4140625,1,0,0,response1disk,,7,-18.29296875,-0.01953125,1,0,0,rectangle,-18.29296875,-0.01953125,1,0,0,,,,,,,-18.29296875,-0.01953125,1,0,0,,0,116,116,134,1,
,,,,,,,,,,,,,FF,,,,,,,,1.3003,,,,,,,,,,,,,,,,,,,,,,610048e0cb6a01bb2ac7aa76,61036f729149836248130cf5,2021-07-29_20h19.41.924,Simcolourproject_2stim_asymm_v5,2020.2.10,MacIntel,60,61025ae37ef11b136ea224fe,,,,,,,,,3130,45.34375,53.05078125,1,0,0,response1disk,,7,11.23046875,10.09375,1,0,0,rectangle,11.23046875,10.09375,1,0,0,,,,,,,11.23046875,10.09375,1,0,0,,0,117,117,111,1,
,,,,,,,,,,,,,FF,,,,,,,,1.1322,,,,,,,,,,,,,,,,,,,,,,610048e0cb6a01bb2ac7aa76,61036f729149836248130cf5,2021-07-29_20h19.41.924,Simcolourproject_2stim_asymm_v5,2020.2.10,MacIntel,60,61025ae37ef11b136ea224fe,,,,,,,,,3055,34.609375,-91.87109375,1,0,0,response3disk,,4,-9.23828125,2.25,1,0,0,rectangle,-9.23828125,2.25,1,0,0,,,,,,,-9.23828125,2.25,1,0,0,,0,118,118,119,1,
,,,,,,,,,,,,,FF,,,,,,,,0.8495,,,,,,,,,,,,,,,,,,,,,,610048e0cb6a01bb2ac7aa76,61036f729149836248130cf5,2021-07-29_20h19.41.924,Simcolourproject_2stim_asymm_v5,2020.2.10,MacIntel,60,61025ae37ef11b136ea224fe,,,,,,,,,146,29.62890625,60.2421875,1,0,0,response1disk,,7,28.20703125,5.65625,1,0,0,rectangle,-70.84375,-28.86328125,1,0,0,response5disk_3,TRUE,2,2,"[30,254,120,68,166,282,179,240,108,73,171,240,122,1,114,229,41,123,172,115]",1.4831,1.19140625,-5.0625,1,0,0,rectangle,0,119,119,10,1,
,,,,,,,,,,,,,FF,,,,,,,,1.4508,,,,,,,,,,,,,,,,,,,,,,610048e0cb6a01bb2ac7aa76,61036f729149836248130cf5,2021-07-29_20h19.41.924,Simcolourproject_2stim_asymm_v5,2020.2.10,MacIntel,60,61025ae37ef11b136ea224fe,,,,,,,,,3430,74.0234375,24.7734375,1,0,0,response1disk,,6,5.27734375,-9.83203125,1,0,0,rectangle,5.27734375,-9.83203125,1,0,0,,,,,,,5.27734375,-9.83203125,1,0,0,,0,120,120,53,1,
,,,,,,,,,,,,,FF,,,,,,,,0.584,,,,,,,,,,,,,,,,,,,,,,610048e0cb6a01bb2ac7aa76,61036f729149836248130cf5,2021-07-29_20h19.41.924,Simcolourproject_2stim_asymm_v5,2020.2.10,MacIntel,60,61025ae37ef11b136ea224fe,,,,,,,,,3620,29.3203125,41.23046875,1,0,0,response1disk,,7,13.97265625,9.49609375,1,0,0,rectangle,-33.18359375,-90.67578125,1,0,0,response5disk_3,TRUE,3,3,"[30,254,120,68,166,282,179,240,108,73,171,240,122,1,114,229,41,123,172,115]",1.5325,-14.40234375,-10.421875,1,0,0,rectangle,0,121,121,118,1,
,,,,,,,,,,,,,FF,,,,,,,,1.6996,,,,,,,,,,,,,,,,,,,,,,610048e0cb6a01bb2ac7aa76,61036f729149836248130cf5,2021-07-29_20h19.41.924,Simcolourproject_2stim_asymm_v5,2020.2.10,MacIntel,60,61025ae37ef11b136ea224fe,,,,,,,,,4358,67.8359375,22.95703125,1,0,0,response1disk,,6,7.80859375,-4.609375,1,0,0,rectangle,86.0546875,35.24609375,1,0,0,response1disk_3,TRUE,6,6,"[30,254,120,68,166,282,179,240,108,73,171,240,122,1,114,229,41,123,172,115]",2.8335,-1.49609375,2.53125,1,0,0,rectangle,0,122,122,143,1,
,,,,,,,,,,,,,FF,,,,,,,,1.5015,,,,,,,,,,,,,,,,,,,,,,610048e0cb6a01bb2ac7aa76,61036f729149836248130cf5,2021-07-29_20h19.41.924,Simcolourproject_2stim_asymm_v5,2020.2.10,MacIntel,60,61025ae37ef11b136ea224fe,,,,,,,,,196,81.203125,-57.8828125,1,0,0,response3disk,,5,6.21484375,1.8671875,1,0,0,rectangle,6.21484375,1.8671875,1,0,0,,,,,,,6.21484375,1.8671875,1,0,0,,0,123,123,29,1,
,,,,,,,,,,,,,FF,,,,,,,,0.8001,,,,,,,,,,,,,,,,,,,,,,610048e0cb6a01bb2ac7aa76,61036f729149836248130cf5,2021-07-29_20h19.41.924,Simcolourproject_2stim_asymm_v5,2020.2.10,MacIntel,60,61025ae37ef11b136ea224fe,,,,,,,,,3221,31.4375,64.77734375,1,0,0,response1disk,,7,7.76171875,5.68359375,1,0,0,rectangle,7.76171875,5.68359375,1,0,0,,,,,,,7.76171875,5.68359375,1,0,0,,0,124,124,158,1,
,,,,,,,,,,,,,FF,,,,,,,,1.6485,,,,,,,,,,,,,,,,,,,,,,610048e0cb6a01bb2ac7aa76,61036f729149836248130cf5,2021-07-29_20h19.41.924,Simcolourproject_2stim_asymm_v5,2020.2.10,MacIntel,60,61025ae37ef11b136ea224fe,,,,,,,,,1891,88.3203125,-40.19140625,1,0,0,response3disk,,5,21.078125,-9.8515625,1,0,0,rectangle,21.078125,-9.8515625,1,0,0,,,,,,,21.078125,-9.8515625,1,0,0,,0,125,125,81,1,
,,,,,,,,,,,,,FF,,,,,,,,0.5331,,,,,,,,,,,,,,,,,,,,,,610048e0cb6a01bb2ac7aa76,61036f729149836248130cf5,2021-07-29_20h19.41.924,Simcolourproject_2stim_asymm_v5,2020.2.10,MacIntel,60,61025ae37ef11b136ea224fe,,,,,,,,,1568,28.48828125,52.42578125,1,0,0,response1disk,,7,3.171875,-9.171875,1,0,0,rectangle,3.171875,-9.171875,1,0,0,,,,,,,3.171875,-9.171875,1,0,0,,0,126,126,129,1,
,,,,,,,,,,,,,FF,,,,,,,,0.7002,,,,,,,,,,,,,,,,,,,,,,610048e0cb6a01bb2ac7aa76,61036f729149836248130cf5,2021-07-29_20h19.41.924,Simcolourproject_2stim_asymm_v5,2020.2.10,MacIntel,60,61025ae37ef11b136ea224fe,,,,,,,,,882,27.54296875,52.078125,1,0,0,response1disk,,7,10.15234375,2.23046875,1,0,0,rectangle,10.15234375,2.23046875,1,0,0,,,,,,,10.15234375,2.23046875,1,0,0,,0,127,127,125,1,
,,,,,,,,,,,,,FF,,,,,,,,1.4996,,,,,,,,,,,,,,,,,,,,,,610048e0cb6a01bb2ac7aa76,61036f729149836248130cf5,2021-07-29_20h19.41.924,Simcolourproject_2stim_asymm_v5,2020.2.10,MacIntel,60,61025ae37ef11b136ea224fe,,,,,,,,,3433,-38.87890625,-93.265625,1,0,0,response5disk,,3,-11.88671875,2.75,1,0,0,rectangle,-11.88671875,2.75,1,0,0,,,,,,,-11.88671875,2.75,1,0,0,,0,128,128,82,1,
,,,,,,,,,,,,,FF,,,,,,,,0.6491,,,,,,,,,,,,,,,,,,,,,,610048e0cb6a01bb2ac7aa76,61036f729149836248130cf5,2021-07-29_20h19.41.924,Simcolourproject_2stim_asymm_v5,2020.2.10,MacIntel,60,61025ae37ef11b136ea224fe,,,,,,,,,1368,-50.484375,58.84375,1,0,0,response7disk,,0,-12.26171875,-12.41796875,1,0,0,rectangle,-12.26171875,-12.41796875,1,0,0,,,,,,,-12.26171875,-12.41796875,1,0,0,,0,129,129,132,1,
,,,,,,,,,,,,,FF,,,,,,,,0.7825,,,,,,,,,,,,,,,,,,,,,,610048e0cb6a01bb2ac7aa76,61036f729149836248130cf5,2021-07-29_20h19.41.924,Simcolourproject_2stim_asymm_v5,2020.2.10,MacIntel,60,61025ae37ef11b136ea224fe,,,,,,,,,1134,-66.578125,-48.87109375,1,0,0,response5disk,,2,-30.34765625,-13.765625,1,0,0,rectangle,-30.34765625,-13.765625,1,0,0,,,,,,,-30.34765625,-13.765625,1,0,0,,0,130,130,105,1,
,,,,,,,,,,,,,FF,,,,,,,,0.8657,,,,,,,,,,,,,,,,,,,,,,610048e0cb6a01bb2ac7aa76,61036f729149836248130cf5,2021-07-29_20h19.41.924,Simcolourproject_2stim_asymm_v5,2020.2.10,MacIntel,60,61025ae37ef11b136ea224fe,,,,,,,,,4150,38.56640625,68.71875,1,0,0,response1disk,,7,12.89453125,3.02734375,1,0,0,rectangle,12.89453125,3.02734375,1,0,0,,,,,,,12.89453125,3.02734375,1,0,0,,0,131,131,57,1,
,,,,,,,,,,,,,FF,,,,,,,,0.4837,,,,,,,,,,,,,,,,,,,,,,610048e0cb6a01bb2ac7aa76,61036f729149836248130cf5,2021-07-29_20h19.41.924,Simcolourproject_2stim_asymm_v5,2020.2.10,MacIntel,60,61025ae37ef11b136ea224fe,,,,,,,,,2674,37.375,50.91796875,1,0,0,response1disk,,7,8.609375,3.265625,1,0,0,rectangle,8.609375,3.265625,1,0,0,,,,,,,8.609375,3.265625,1,0,0,,0,132,132,48,1,
,,,,,,,,,,,,,FF,,,,,,,,0.4334,,,,,,,,,,,,,,,,,,,,,,610048e0cb6a01bb2ac7aa76,61036f729149836248130cf5,2021-07-29_20h19.41.924,Simcolourproject_2stim_asymm_v5,2020.2.10,MacIntel,60,61025ae37ef11b136ea224fe,,,,,,,,,3782,36.4375,72.28125,1,0,0,response1disk,,7,5.7109375,-1.39453125,1,0,0,rectangle,5.7109375,-1.39453125,1,0,0,,,,,,,5.7109375,-1.39453125,1,0,0,,0,133,133,56,1,
,,,,,,,,,,,,,FF,,,,,,,,0.4176,,,,,,,,,,,,,,,,,,,,,,610048e0cb6a01bb2ac7aa76,61036f729149836248130cf5,2021-07-29_20h19.41.924,Simcolourproject_2stim_asymm_v5,2020.2.10,MacIntel,60,61025ae37ef11b136ea224fe,,,,,,,,,671,34.3671875,73.42578125,1,0,0,response1disk,,7,3.5,-1.1015625,1,0,0,rectangle,3.5,-1.1015625,1,0,0,,,,,,,3.5,-1.1015625,1,0,0,,0,134,134,74,1,
,,,,,,,,,,,,,FF,,,,,,,,0.4665,,,,,,,,,,,,,,,,,,,,,,610048e0cb6a01bb2ac7aa76,61036f729149836248130cf5,2021-07-29_20h19.41.924,Simcolourproject_2stim_asymm_v5,2020.2.10,MacIntel,60,61025ae37ef11b136ea224fe,,,,,,,,,4297,30.609375,76.80859375,1,0,0,response1disk,,7,4.27734375,8.51171875,1,0,0,rectangle,4.27734375,8.51171875,1,0,0,,,,,,,4.27734375,8.51171875,1,0,0,,0,135,135,159,1,
,,,,,,,,,,,,,FF,,,,,,,,0.4333,,,,,,,,,,,,,,,,,,,,,,610048e0cb6a01bb2ac7aa76,61036f729149836248130cf5,2021-07-29_20h19.41.924,Simcolourproject_2stim_asymm_v5,2020.2.10,MacIntel,60,61025ae37ef11b136ea224fe,,,,,,,,,4068,41.60546875,79.57421875,1,0,0,response1disk,,7,12.828125,-5.3984375,1,0,0,rectangle,12.828125,-5.3984375,1,0,0,,,,,,,12.828125,-5.3984375,1,0,0,,0,136,136,89,1,
,,,,,,,,,,,,,FF,,,,,,,,0.5497,,,,,,,,,,,,,,,,,,,,,,610048e0cb6a01bb2ac7aa76,61036f729149836248130cf5,2021-07-29_20h19.41.924,Simcolourproject_2stim_asymm_v5,2020.2.10,MacIntel,60,61025ae37ef11b136ea224fe,,,,,,,,,2736,44.65234375,70.875,1,0,0,response1disk,,7,2.6328125,-12.296875,1,0,0,rectangle,2.6328125,-12.296875,1,0,0,,,,,,,2.6328125,-12.296875,1,0,0,,0,137,137,70,1,
,,,,,,,,,,,,,FF,,,,,,,,1.2681,,,,,,,,,,,,,,,,,,,,,,610048e0cb6a01bb2ac7aa76,61036f729149836248130cf5,2021-07-29_20h19.41.924,Simcolourproject_2stim_asymm_v5,2020.2.10,MacIntel,60,61025ae37ef11b136ea224fe,,,,,,,,,1676,36.4453125,-85.69921875,1,0,0,response3disk,,4,-2.37109375,-3.34765625,1,0,0,rectangle,-2.37109375,-3.34765625,1,0,0,,,,,,,-2.37109375,-3.34765625,1,0,0,,0,138,138,19,1,
,,,,,,,,,,,,,FF,,,,,,,,0.317,,,,,,,,,,,,,,,,,,,,,,610048e0cb6a01bb2ac7aa76,61036f729149836248130cf5,2021-07-29_20h19.41.924,Simcolourproject_2stim_asymm_v5,2020.2.10,MacIntel,60,61025ae37ef11b136ea224fe,,,,,,,,,1757,38.58984375,56.125,1,0,0,response1disk,,7,10.8046875,-4.8984375,1,0,0,rectangle,10.8046875,-4.8984375,1,0,0,,,,,,,10.8046875,-4.8984375,1,0,0,,0,139,139,18,1,
,,,,,,,,,,,,,FF,,,,,,,,0.3805,,,,,,,,,,,,,,,,,,,,,,610048e0cb6a01bb2ac7aa76,61036f729149836248130cf5,2021-07-29_20h19.41.924,Simcolourproject_2stim_asymm_v5,2020.2.10,MacIntel,60,61025ae37ef11b136ea224fe,,,,,,,,,4355,38.00390625,60.9921875,1,0,0,response1disk,,7,9.8203125,6.70703125,1,0,0,rectangle,9.8203125,6.70703125,1,0,0,,,,,,,9.8203125,6.70703125,1,0,0,,0,140,140,153,1,
,,,,,,,,,,,,,FF,,,,,,,,0.3501,,,,,,,,,,,,,,,,,,,,,,610048e0cb6a01bb2ac7aa76,61036f729149836248130cf5,2021-07-29_20h19.41.924,Simcolourproject_2stim_asymm_v5,2020.2.10,MacIntel,60,61025ae37ef11b136ea224fe,,,,,,,,,4018,26.7109375,71.9453125,1,0,0,response1disk,,7,15.1875,-3.20703125,1,0,0,rectangle,15.1875,-3.20703125,1,0,0,,,,,,,15.1875,-3.20703125,1,0,0,,0,141,141,15,1,
,,,,,,,,,,,,,FF,,,,,,,,0.3831,,,,,,,,,,,,,,,,,,,,,,610048e0cb6a01bb2ac7aa76,61036f729149836248130cf5,2021-07-29_20h19.41.924,Simcolourproject_2stim_asymm_v5,2020.2.10,MacIntel,60,61025ae37ef11b136ea224fe,,,,,,,,,2381,32.87109375,62.29296875,1,0,0,response1disk,,7,11.08203125,12.9140625,1,0,0,rectangle,11.08203125,12.9140625,1,0,0,,,,,,,11.08203125,12.9140625,1,0,0,,0,142,142,109,1,
,,,,,,,,,,,,,FF,,,,,,,,0.4326,,,,,,,,,,,,,,,,,,,,,,610048e0cb6a01bb2ac7aa76,61036f729149836248130cf5,2021-07-29_20h19.41.924,Simcolourproject_2stim_asymm_v5,2020.2.10,MacIntel,60,61025ae37ef11b136ea224fe,,,,,,,,,2902,26.1015625,55.87890625,1,0,0,response1disk,,7,10.37890625,8.28125,1,0,0,rectangle,10.37890625,8.28125,1,0,0,,,,,,,10.37890625,8.28125,1,0,0,,0,143,143,149,1,
,,,,,,,,,,,,,FF,,,,,,,,1.6834,,,,,,,,,,,,,,,,,,,,,,610048e0cb6a01bb2ac7aa76,61036f729149836248130cf5,2021-07-29_20h19.41.924,Simcolourproject_2stim_asymm_v5,2020.2.10,MacIntel,60,61025ae37ef11b136ea224fe,,,,,,,,,954,83.29296875,-50.84765625,1,0,0,response3disk,,5,3.14453125,8.171875,1,0,0,rectangle,3.14453125,8.171875,1,0,0,,,,,,,3.14453125,8.171875,1,0,0,,0,144,144,69,1,
,,,,,,,,,,,,,FF,,,,,,,,0.416,,,,,,,,,,,,,,,,,,,,,,610048e0cb6a01bb2ac7aa76,61036f729149836248130cf5,2021-07-29_20h19.41.924,Simcolourproject_2stim_asymm_v5,2020.2.10,MacIntel,60,61025ae37ef11b136ea224fe,,,,,,,,,1630,43.26171875,68.8046875,1,0,0,response1disk,,7,-0.53515625,-1.1328125,1,0,0,rectangle,-0.53515625,-1.1328125,1,0,0,,,,,,,-0.53515625,-1.1328125,1,0,0,,0,145,145,12,1,
,,,,,,,,,,,,,FF,,,,,,,,0.6159,,,,,,,,,,,,,,,,,,,,,,610048e0cb6a01bb2ac7aa76,61036f729149836248130cf5,2021-07-29_20h19.41.924,Simcolourproject_2stim_asymm_v5,2020.2.10,MacIntel,60,61025ae37ef11b136ea224fe,,,,,,,,,2981,31.3984375,65.66796875,1,0,0,response1disk,,7,3.18359375,4.921875,1,0,0,rectangle,3.18359375,4.921875,1,0,0,,,,,,,3.18359375,4.921875,1,0,0,,0,146,146,121,1,
,,,,,,,,,,,,,FF,,,,,,,,0.467,,,,,,,,,,,,,,,,,,,,,,610048e0cb6a01bb2ac7aa76,61036f729149836248130cf5,2021-07-29_20h19.41.924,Simcolourproject_2stim_asymm_v5,2020.2.10,MacIntel,60,61025ae37ef11b136ea224fe,,,,,,,,,3885,27.36328125,54.77734375,1,0,0,response1disk,,7,9.7421875,7.26953125,1,0,0,rectangle,9.7421875,7.26953125,1,0,0,,,,,,,9.7421875,7.26953125,1,0,0,,0,147,147,126,1,
,,,,,,,,,,,,,FF,,,,,,,,0.6827,,,,,,,,,,,,,,,,,,,,,,610048e0cb6a01bb2ac7aa76,61036f729149836248130cf5,2021-07-29_20h19.41.924,Simcolourproject_2stim_asymm_v5,2020.2.10,MacIntel,60,61025ae37ef11b136ea224fe,,,,,,,,,2092,29.12109375,66.65234375,1,0,0,response1disk,,7,17.4375,-5.21875,1,0,0,rectangle,17.4375,-5.21875,1,0,0,,,,,,,17.4375,-5.21875,1,0,0,,0,148,148,61,1,
,,,,,,,,,,,,,FF,,,,,,,,0.618,,,,,,,,,,,,,,,,,,,,,,610048e0cb6a01bb2ac7aa76,61036f729149836248130cf5,2021-07-29_20h19.41.924,Simcolourproject_2stim_asymm_v5,2020.2.10,MacIntel,60,61025ae37ef11b136ea224fe,,,,,,,,,1511,44.10546875,73.1328125,1,0,0,response1disk,,7,-0.27734375,-7.0859375,1,0,0,rectangle,-0.27734375,-7.0859375,1,0,0,,,,,,,-0.27734375,-7.0859375,1,0,0,,0,149,149,115,1,
,,,,,,,,,,,,,FF,,,,,,,,1.0508,,,,,,,,,,,,,,,,,,,,,,610048e0cb6a01bb2ac7aa76,61036f729149836248130cf5,2021-07-29_20h19.41.924,Simcolourproject_2stim_asymm_v5,2020.2.10,MacIntel,60,61025ae37ef11b136ea224fe,,,,,,,,,2237,94.0546875,31.44921875,1,0,0,response1disk,,6,4.7890625,9.12109375,1,0,0,rectangle,4.7890625,9.12109375,1,0,0,,,,,,,4.7890625,9.12109375,1,0,0,,0,150,150,131,1,
,,,,,,,,,,,,,FF,,,,,,,,1.3328,,,,,,,,,,,,,,,,,,,,,,610048e0cb6a01bb2ac7aa76,61036f729149836248130cf5,2021-07-29_20h19.41.924,Simcolourproject_2stim_asymm_v5,2020.2.10,MacIntel,60,61025ae37ef11b136ea224fe,,,,,,,,,1829,79.0390625,-32.421875,1,0,0,response3disk,,5,17.33984375,-9.83984375,1,0,0,rectangle,17.33984375,-9.83984375,1,0,0,,,,,,,17.33984375,-9.83984375,1,0,0,,0,151,151,114,1,
,,,,,,,,,,,,,FF,,,,,,,,0.4161,,,,,,,,,,,,,,,,,,,,,,610048e0cb6a01bb2ac7aa76,61036f729149836248130cf5,2021-07-29_20h19.41.924,Simcolourproject_2stim_asymm_v5,2020.2.10,MacIntel,60,61025ae37ef11b136ea224fe,,,,,,,,,3961,35.64453125,54.86328125,1,0,0,response1disk,,7,8.578125,9.75,1,0,0,rectangle,8.578125,9.75,1,0,0,,,,,,,8.578125,9.75,1,0,0,,0,152,152,11,1,
,,,,,,,,,,,,,FF,,,,,,,,1.9644,,,,,,,,,,,,,,,,,,,,,,610048e0cb6a01bb2ac7aa76,61036f729149836248130cf5,2021-07-29_20h19.41.924,Simcolourproject_2stim_asymm_v5,2020.2.10,MacIntel,60,61025ae37ef11b136ea224fe,,,,,,,,,284,18.1171875,73.61328125,1,0,0,response1disk,,7,3.87109375,12.9140625,1,0,0,rectangle,3.87109375,12.9140625,1,0,0,,,,,,,3.87109375,12.9140625,1,0,0,,0,153,153,93,1,
,,,,,,,,,,,,,FF,,,,,,,,0.3338,,,,,,,,,,,,,,,,,,,,,,610048e0cb6a01bb2ac7aa76,61036f729149836248130cf5,2021-07-29_20h19.41.924,Simcolourproject_2stim_asymm_v5,2020.2.10,MacIntel,60,61025ae37ef11b136ea224fe,,,,,,,,,4310,31.24609375,52.73828125,1,0,0,response1disk,,7,5.09375,-7.09765625,1,0,0,rectangle,5.09375,-7.09765625,1,0,0,,,,,,,5.09375,-7.09765625,1,0,0,,0,154,154,88,1,
,,,,,,,,,,,,,FF,,,,,,,,0.4162,,,,,,,,,,,,,,,,,,,,,,610048e0cb6a01bb2ac7aa76,61036f729149836248130cf5,2021-07-29_20h19.41.924,Simcolourproject_2stim_asymm_v5,2020.2.10,MacIntel,60,61025ae37ef11b136ea224fe,,,,,,,,,3408,32.15625,59.109375,1,0,0,response1disk,,7,14.5703125,5.38671875,1,0,0,rectangle,14.5703125,5.38671875,1,0,0,,,,,,,14.5703125,5.38671875,1,0,0,,0,155,155,87,1,
,,,,,,,,,,,,,FF,,,,,,,,0.3337,,,,,,,,,,,,,,,,,,,,,,610048e0cb6a01bb2ac7aa76,61036f729149836248130cf5,2021-07-29_20h19.41.924,Simcolourproject_2stim_asymm_v5,2020.2.10,MacIntel,60,61025ae37ef11b136ea224fe,,,,,,,,,3593,37.82421875,54.94921875,1,0,0,response1disk,,7,22.1640625,13.5,1,0,0,rectangle,22.1640625,13.5,1,0,0,,,,,,,22.1640625,13.5,1,0,0,,0,156,156,60,1,
,,,,,,,,,,,,,FF,,,,,,,,0.3818,,,,,,,,,,,,,,,,,,,,,,610048e0cb6a01bb2ac7aa76,61036f729149836248130cf5,2021-07-29_20h19.41.924,Simcolourproject_2stim_asymm_v5,2020.2.10,MacIntel,60,61025ae37ef11b136ea224fe,,,,,,,,,758,37.03125,69.54296875,1,0,0,response1disk,,7,11.125,-7.19921875,1,0,0,rectangle,11.125,-7.19921875,1,0,0,,,,,,,11.125,-7.19921875,1,0,0,,0,157,157,26,1,
,,,,,,,,,,,,,FF,,,,,,,,0.3335,,,,,,,,,,,,,,,,,,,,,,610048e0cb6a01bb2ac7aa76,61036f729149836248130cf5,2021-07-29_20h19.41.924,Simcolourproject_2stim_asymm_v5,2020.2.10,MacIntel,60,61025ae37ef11b136ea224fe,,,,,,,,,4086,30.09375,52.953125,1,0,0,response1disk,,7,9.3125,-0.48828125,1,0,0,rectangle,9.3125,-0.48828125,1,0,0,,,,,,,9.3125,-0.48828125,1,0,0,,0,158,158,73,1,
,,,,,,,,,,,,,FF,,,,,,,,0.3997,,,,,,,,,,,,,,,,,,,,,,610048e0cb6a01bb2ac7aa76,61036f729149836248130cf5,2021-07-29_20h19.41.924,Simcolourproject_2stim_asymm_v5,2020.2.10,MacIntel,60,61025ae37ef11b136ea224fe,,,,,,,,,1992,24.91796875,62.46484375,1,0,0,response1disk,,7,17.84765625,11.23046875,1,0,0,rectangle,17.84765625,11.23046875,1,0,0,,,,,,,17.84765625,11.23046875,1,0,0,,0,159,159,140,1,
,,,,,,,,,,,,,FF,,,,,,,,0.6015,,,,,,,,,,,,,,,,,,,,,,610048e0cb6a01bb2ac7aa76,61036f729149836248130cf5,2021-07-29_20h19.41.924,Simcolourproject_2stim_asymm_v5,2020.2.10,MacIntel,60,61025ae37ef11b136ea224fe,,,,,,,,,1131,-24.2578125,75.4921875,1,0,0,response7disk,,0,-15.32421875,5.83984375,1,0,0,rectangle,-15.32421875,5.83984375,1,0,0,,,,,,,-15.32421875,5.83984375,1,0,0,,1,0,160,155,1,
,,,,,,,,,,,,,FF,,,,,,,,0.4323,,,,,,,,,,,,,,,,,,,,,,610048e0cb6a01bb2ac7aa76,61036f729149836248130cf5,2021-07-29_20h19.41.924,Simcolourproject_2stim_asymm_v5,2020.2.10,MacIntel,60,61025ae37ef11b136ea224fe,,,,,,,,,273,36.70703125,55.12890625,1,0,0,response1disk,,7,12.0078125,12.97265625,1,0,0,rectangle,12.0078125,12.97265625,1,0,0,,,,,,,12.0078125,12.97265625,1,0,0,,1,1,161,58,1,
,,,,,,,,,,,,,FF,,,,,,,,0.8338,,,,,,,,,,,,,,,,,,,,,,610048e0cb6a01bb2ac7aa76,61036f729149836248130cf5,2021-07-29_20h19.41.924,Simcolourproject_2stim_asymm_v5,2020.2.10,MacIntel,60,61025ae37ef11b136ea224fe,,,,,,,,,3432,-64.13671875,31.2109375,1,0,0,response7disk,,1,4.89453125,6.328125,1,0,0,rectangle,4.89453125,6.328125,1,0,0,,,,,,,4.89453125,6.328125,1,0,0,,1,2,162,150,1,
,,,,,,,,,,,,,FF,,,,,,,,2.1992,,,,,,,,,,,,,,,,,,,,,,610048e0cb6a01bb2ac7aa76,61036f729149836248130cf5,2021-07-29_20h19.41.924,Simcolourproject_2stim_asymm_v5,2020.2.10,MacIntel,60,61025ae37ef11b136ea224fe,,,,,,,,,952,40.70703125,62.56640625,1,0,0,response1disk,,7,-3.37890625,-6.38671875,1,0,0,rectangle,-3.37890625,-6.38671875,1,0,0,,,,,,,-3.37890625,-6.38671875,1,0,0,,1,3,163,57,1,
,,,,,,,,,,,,,FF,,,,,,,,1.9,,,,,,,,,,,,,,,,,,,,,,610048e0cb6a01bb2ac7aa76,61036f729149836248130cf5,2021-07-29_20h19.41.924,Simcolourproject_2stim_asymm_v5,2020.2.10,MacIntel,60,61025ae37ef11b136ea224fe,,,,,,,,,3146,-77.88671875,-51.46875,1,0,0,response5disk,,2,-12.890625,2.54296875,1,0,0,rectangle,-12.890625,2.54296875,1,0,0,,,,,,,-12.890625,2.54296875,1,0,0,,1,4,164,97,1,
,,,,,,,,,,,,,FF,,,,,,,,0.3481,,,,,,,,,,,,,,,,,,,,,,610048e0cb6a01bb2ac7aa76,61036f729149836248130cf5,2021-07-29_20h19.41.924,Simcolourproject_2stim_asymm_v5,2020.2.10,MacIntel,60,61025ae37ef11b136ea224fe,,,,,,,,,1785,42.46875,55.2421875,1,0,0,response1disk,,7,9.48828125,9.6328125,1,0,0,rectangle,50.53125,100.4375,1,0,0,response1disk_3,TRUE,7,7,"[30,254,120,68,166,282,179,240,108,73,171,240,122,1,114,229,41,123,172,115]",1.4321,4.546875,5.51171875,1,0,0,rectangle,1,5,165,148,1,
,,,,,,,,,,,,,FF,,,,,,,,0.6825,,,,,,,,,,,,,,,,,,,,,,610048e0cb6a01bb2ac7aa76,61036f729149836248130cf5,2021-07-29_20h19.41.924,Simcolourproject_2stim_asymm_v5,2020.2.10,MacIntel,60,61025ae37ef11b136ea224fe,,,,,,,,,3944,35.0703125,59.09765625,1,0,0,response1disk,,7,15.09765625,4.12109375,1,0,0,rectangle,15.09765625,4.12109375,1,0,0,,,,,,,15.09765625,4.12109375,1,0,0,,1,6,166,65,1,
,,,,,,,,,,,,,FF,,,,,,,,0.4169,,,,,,,,,,,,,,,,,,,,,,610048e0cb6a01bb2ac7aa76,61036f729149836248130cf5,2021-07-29_20h19.41.924,Simcolourproject_2stim_asymm_v5,2020.2.10,MacIntel,60,61025ae37ef11b136ea224fe,,,,,,,,,3186,23.3125,50.0859375,1,0,0,response1disk,,7,15.68359375,5.13671875,1,0,0,rectangle,15.68359375,5.13671875,1,0,0,,,,,,,15.68359375,5.13671875,1,0,0,,1,7,167,117,1,
,,,,,,,,,,,,,FF,,,,,,,,1.5655,,,,,,,,,,,,,,,,,,,,,,610048e0cb6a01bb2ac7aa76,61036f729149836248130cf5,2021-07-29_20h19.41.924,Simcolourproject_2stim_asymm_v5,2020.2.10,MacIntel,60,61025ae37ef11b136ea224fe,,,,,,,,,2101,85.46484375,45.16015625,1,0,0,response1disk,,6,-7.734375,3.62109375,1,0,0,rectangle,-7.734375,3.62109375,1,0,0,,,,,,,-7.734375,3.62109375,1,0,0,,1,8,168,142,1,
,,,,,,,,,,,,,FF,,,,,,,,0.3656,,,,,,,,,,,,,,,,,,,,,,610048e0cb6a01bb2ac7aa76,61036f729149836248130cf5,2021-07-29_20h19.41.924,Simcolourproject_2stim_asymm_v5,2020.2.10,MacIntel,60,61025ae37ef11b136ea224fe,,,,,,,,,2204,23.6875,64.09765625,1,0,0,response1disk,,7,4.0703125,2.30859375,1,0,0,rectangle,4.0703125,2.30859375,1,0,0,,,,,,,4.0703125,2.30859375,1,0,0,,1,9,169,99,1,
,,,,,,,,,,,,,FF,,,,,,,,0.3486,,,,,,,,,,,,,,,,,,,,,,610048e0cb6a01bb2ac7aa76,61036f729149836248130cf5,2021-07-29_20h19.41.924,Simcolourproject_2stim_asymm_v5,2020.2.10,MacIntel,60,61025ae37ef11b136ea224fe,,,,,,,,,202,39.19921875,70.97265625,1,0,0,response1disk,,7,2.796875,-11.69921875,1,0,0,rectangle,-61.4921875,29.5703125,1,0,0,response7disk_3,TRUE,1,1,"[30,254,120,68,166,282,179,240,108,73,171,240,122,1,114,229,41,123,172,115]",1.5324,8.1328125,-1.58984375,1,0,0,rectangle,1,10,170,48,1,
,,,,,,,,,,,,,FF,,,,,,,,0.6,,,,,,,,,,,,,,,,,,,,,,610048e0cb6a01bb2ac7aa76,61036f729149836248130cf5,2021-07-29_20h19.41.924,Simcolourproject_2stim_asymm_v5,2020.2.10,MacIntel,60,61025ae37ef11b136ea224fe,,,,,,,,,1242,40.29296875,69.3125,1,0,0,response1disk,,7,16.5546875,5.0703125,1,0,0,rectangle,-75.859375,18.515625,1,0,0,response7disk_3,TRUE,1,1,"[30,254,120,68,166,282,179,240,108,73,171,240,122,1,114,229,41,123,172,115]",3.0673,5.54296875,4.70703125,1,0,0,rectangle,1,11,171,109,1,
,,,,,,,,,,,,,FF,,,,,,,,0.5346,,,,,,,,,,,,,,,,,,,,,,610048e0cb6a01bb2ac7aa76,61036f729149836248130cf5,2021-07-29_20h19.41.924,Simcolourproject_2stim_asymm_v5,2020.2.10,MacIntel,60,61025ae37ef11b136ea224fe,,,,,,,,,1547,28.1171875,64.93359375,1,0,0,response1disk,,7,5.91015625,1.89453125,1,0,0,rectangle,5.91015625,1.89453125,1,0,0,,,,,,,5.91015625,1.89453125,1,0,0,,1,12,172,115,1,
,,,,,,,,,,,,,FF,,,,,,,,0.4318,,,,,,,,,,,,,,,,,,,,,,610048e0cb6a01bb2ac7aa76,61036f729149836248130cf5,2021-07-29_20h19.41.924,Simcolourproject_2stim_asymm_v5,2020.2.10,MacIntel,60,61025ae37ef11b136ea224fe,,,,,,,,,1696,32.7734375,51.12109375,1,0,0,response1disk,,7,7.25390625,0.21484375,1,0,0,rectangle,7.25390625,0.21484375,1,0,0,,,,,,,7.25390625,0.21484375,1,0,0,,1,13,173,53,1,
,,,,,,,,,,,,,FF,,,,,,,,0.4993,,,,,,,,,,,,,,,,,,,,,,610048e0cb6a01bb2ac7aa76,61036f729149836248130cf5,2021-07-29_20h19.41.924,Simcolourproject_2stim_asymm_v5,2020.2.10,MacIntel,60,61025ae37ef11b136ea224fe,,,,,,,,,2762,20.62109375,46.6640625,1,0,0,response1disk,,7,9.69140625,-1.3984375,1,0,0,rectangle,9.69140625,-1.3984375,1,0,0,,,,,,,9.69140625,-1.3984375,1,0,0,,1,14,174,121,1,
,,,,,,,,,,,,,FF,,,,,,,,0.3502,,,,,,,,,,,,,,,,,,,,,,610048e0cb6a01bb2ac7aa76,61036f729149836248130cf5,2021-07-29_20h19.41.924,Simcolourproject_2stim_asymm_v5,2020.2.10,MacIntel,60,61025ae37ef11b136ea224fe,,,,,,,,,3029,37.28515625,53.37890625,1,0,0,response1disk,,7,10.42578125,-6.3046875,1,0,0,rectangle,10.42578125,-6.3046875,1,0,0,,,,,,,10.42578125,-6.3046875,1,0,0,,1,15,175,35,1,
,,,,,,,,,,,,,FF,,,,,,,,1.4,,,,,,,,,,,,,,,,,,,,,,610048e0cb6a01bb2ac7aa76,61036f729149836248130cf5,2021-07-29_20h19.41.924,Simcolourproject_2stim_asymm_v5,2020.2.10,MacIntel,60,61025ae37ef11b136ea224fe,,,,,,,,,2602,23.8984375,60.578125,1,0,0,response1disk,,7,16.03125,-2.55859375,1,0,0,rectangle,16.03125,-2.55859375,1,0,0,,,,,,,16.03125,-2.55859375,1,0,0,,1,16,176,104,1,
,,,,,,,,,,,,,FF,,,,,,,,0.4329,,,,,,,,,,,,,,,,,,,,,,610048e0cb6a01bb2ac7aa76,61036f729149836248130cf5,2021-07-29_20h19.41.924,Simcolourproject_2stim_asymm_v5,2020.2.10,MacIntel,60,61025ae37ef11b136ea224fe,,,,,,,,,2916,39.09375,45.9140625,1,0,0,response1disk,,7,12.00390625,2.90234375,1,0,0,rectangle,12.00390625,2.90234375,1,0,0,,,,,,,12.00390625,2.90234375,1,0,0,,1,17,177,101,1,
,,,,,,,,,,,,,FF,,,,,,,,0.3492,,,,,,,,,,,,,,,,,,,,,,610048e0cb6a01bb2ac7aa76,61036f729149836248130cf5,2021-07-29_20h19.41.924,Simcolourproject_2stim_asymm_v5,2020.2.10,MacIntel,60,61025ae37ef11b136ea224fe,,,,,,,,,3879,30.203125,52.74609375,1,0,0,response1disk,,7,19.53125,-2.421875,1,0,0,rectangle,78.62890625,-35.42578125,1,0,0,response3disk_3,TRUE,5,5,"[30,254,120,68,166,282,179,240,108,73,171,240,122,1,114,229,41,123,172,115]",1.6832,13.2109375,1.54296875,1,0,0,rectangle,1,18,178,24,1,
,,,,,,,,,,,,,FF,,,,,,,,0.6333,,,,,,,,,,,,,,,,,,,,,,610048e0cb6a01bb2ac7aa76,61036f729149836248130cf5,2021-07-29_20h19.41.924,Simcolourproject_2stim_asymm_v5,2020.2.10,MacIntel,60,61025ae37ef11b136ea224fe,,,,,,,,,3826,19.3984375,54.94921875,1,0,0,response1disk,,7,8.55859375,-1.65625,1,0,0,rectangle,8.55859375,-1.65625,1,0,0,,,,,,,8.55859375,-1.65625,1,0,0,,1,19,179,74,1,
,,,,,,,,,,,,,FF,,,,,,,,0.7663,,,,,,,,,,,,,,,,,,,,,,610048e0cb6a01bb2ac7aa76,61036f729149836248130cf5,2021-07-29_20h19.41.924,Simcolourproject_2stim_asymm_v5,2020.2.10,MacIntel,60,61025ae37ef11b136ea224fe,,,,,,,,,3074,27.98046875,59.2578125,1,0,0,response1disk,,7,-5.6796875,-4.7421875,1,0,0,rectangle,-5.6796875,-4.7421875,1,0,0,,,,,,,-5.6796875,-4.7421875,1,0,0,,1,20,180,33,1,
,,,,,,,,,,,,,FF,,,,,,,,0.5493,,,,,,,,,,,,,,,,,,,,,,610048e0cb6a01bb2ac7aa76,61036f729149836248130cf5,2021-07-29_20h19.41.924,Simcolourproject_2stim_asymm_v5,2020.2.10,MacIntel,60,61025ae37ef11b136ea224fe,,,,,,,,,4191,26.7578125,49.3203125,1,0,0,response1disk,,7,12.03125,-2.66796875,1,0,0,rectangle,12.03125,-2.66796875,1,0,0,,,,,,,12.03125,-2.66796875,1,0,0,,1,21,181,116,1,
,,,,,,,,,,,,,FF,,,,,,,,0.3482,,,,,,,,,,,,,,,,,,,,,,610048e0cb6a01bb2ac7aa76,61036f729149836248130cf5,2021-07-29_20h19.41.924,Simcolourproject_2stim_asymm_v5,2020.2.10,MacIntel,60,61025ae37ef11b136ea224fe,,,,,,,,,2957,38.25390625,55.08984375,1,0,0,response1disk,,7,7.22265625,5.46484375,1,0,0,rectangle,7.22265625,5.46484375,1,0,0,,,,,,,7.22265625,5.46484375,1,0,0,,1,22,182,82,1,
,,,,,,,,,,,,,FF,,,,,,,,0.3335,,,,,,,,,,,,,,,,,,,,,,610048e0cb6a01bb2ac7aa76,61036f729149836248130cf5,2021-07-29_20h19.41.924,Simcolourproject_2stim_asymm_v5,2020.2.10,MacIntel,60,61025ae37ef11b136ea224fe,,,,,,,,,581,27.8046875,37.9375,1,0,0,response1disk,,7,15.05859375,8.54296875,1,0,0,rectangle,15.05859375,8.54296875,1,0,0,,,,,,,15.05859375,8.54296875,1,0,0,,1,23,183,51,1,
,,,,,,,,,,,,,FF,,,,,,,,0.3323,,,,,,,,,,,,,,,,,,,,,,610048e0cb6a01bb2ac7aa76,61036f729149836248130cf5,2021-07-29_20h19.41.924,Simcolourproject_2stim_asymm_v5,2020.2.10,MacIntel,60,61025ae37ef11b136ea224fe,,,,,,,,,2392,37.35546875,54.55078125,1,0,0,response1disk,,7,15.54296875,3.2734375,1,0,0,rectangle,15.54296875,3.2734375,1,0,0,,,,,,,15.54296875,3.2734375,1,0,0,,1,24,184,22,1,
,,,,,,,,,,,,,FF,,,,,,,,0.4672,,,,,,,,,,,,,,,,,,,,,,610048e0cb6a01bb2ac7aa76,61036f729149836248130cf5,2021-07-29_20h19.41.924,Simcolourproject_2stim_asymm_v5,2020.2.10,MacIntel,60,61025ae37ef11b136ea224fe,,,,,,,,,1637,32.51953125,44.16796875,1,0,0,response1disk,,7,9.87109375,-3.68359375,1,0,0,rectangle,9.87109375,-3.68359375,1,0,0,,,,,,,9.87109375,-3.68359375,1,0,0,,1,25,185,5,1,
,,,,,,,,,,,,,FF,,,,,,,,0.9316,,,,,,,,,,,,,,,,,,,,,,610048e0cb6a01bb2ac7aa76,61036f729149836248130cf5,2021-07-29_20h19.41.924,Simcolourproject_2stim_asymm_v5,2020.2.10,MacIntel,60,61025ae37ef11b136ea224fe,,,,,,,,,2355,-17.91015625,85.2890625,1,0,0,response7disk,,0,-1,-7.32421875,1,0,0,rectangle,-1,-7.32421875,1,0,0,,,,,,,-1,-7.32421875,1,0,0,,1,26,186,154,1,
,,,,,,,,,,,,,FF,,,,,,,,0.916,,,,,,,,,,,,,,,,,,,,,,610048e0cb6a01bb2ac7aa76,61036f729149836248130cf5,2021-07-29_20h19.41.924,Simcolourproject_2stim_asymm_v5,2020.2.10,MacIntel,60,61025ae37ef11b136ea224fe,,,,,,,,,3154,-63.25390625,22.8359375,1,0,0,response7disk,,1,-9.6796875,-8.578125,1,0,0,rectangle,-9.6796875,-8.578125,1,0,0,,,,,,,-9.6796875,-8.578125,1,0,0,,1,27,187,49,1,
,,,,,,,,,,,,,FF,,,,,,,,0.3657,,,,,,,,,,,,,,,,,,,,,,610048e0cb6a01bb2ac7aa76,61036f729149836248130cf5,2021-07-29_20h19.41.924,Simcolourproject_2stim_asymm_v5,2020.2.10,MacIntel,60,61025ae37ef11b136ea224fe,,,,,,,,,2983,33.42578125,70.58203125,1,0,0,response1disk,,7,-5.9296875,-9.1171875,1,0,0,rectangle,-5.9296875,-9.1171875,1,0,0,,,,,,,-5.9296875,-9.1171875,1,0,0,,1,28,188,90,1,
,,,,,,,,,,,,,FF,,,,,,,,0.3516,,,,,,,,,,,,,,,,,,,,,,610048e0cb6a01bb2ac7aa76,61036f729149836248130cf5,2021-07-29_20h19.41.924,Simcolourproject_2stim_asymm_v5,2020.2.10,MacIntel,60,61025ae37ef11b136ea224fe,,,,,,,,,2282,24.62890625,49.58984375,1,0,0,response1disk,,7,10.609375,9.4921875,1,0,0,rectangle,10.609375,9.4921875,1,0,0,,,,,,,10.609375,9.4921875,1,0,0,,1,29,189,158,1,
,,,,,,,,,,,,,FF,,,,,,,,0.3829,,,,,,,,,,,,,,,,,,,,,,610048e0cb6a01bb2ac7aa76,61036f729149836248130cf5,2021-07-29_20h19.41.924,Simcolourproject_2stim_asymm_v5,2020.2.10,MacIntel,60,61025ae37ef11b136ea224fe,,,,,,,,,683,33.10546875,64.79296875,1,0,0,response1disk,,7,18.96484375,-11.38671875,1,0,0,rectangle,18.96484375,-11.38671875,1,0,0,,,,,,,18.96484375,-11.38671875,1,0,0,,1,30,190,135,1,
,,,,,,,,,,,,,FF,,,,,,,,0.3161,,,,,,,,,,,,,,,,,,,,,,610048e0cb6a01bb2ac7aa76,61036f729149836248130cf5,2021-07-29_20h19.41.924,Simcolourproject_2stim_asymm_v5,2020.2.10,MacIntel,60,61025ae37ef11b136ea224fe,,,,,,,,,3580,37.36328125,57.5078125,1,0,0,response1disk,,7,19.33984375,7.0390625,1,0,0,rectangle,19.33984375,7.0390625,1,0,0,,,,,,,19.33984375,7.0390625,1,0,0,,1,31,191,19,1,
,,,,,,,,,,,,,FF,,,,,,,,1.1312,,,,,,,,,,,,,,,,,,,,,,610048e0cb6a01bb2ac7aa76,61036f729149836248130cf5,2021-07-29_20h19.41.924,Simcolourproject_2stim_asymm_v5,2020.2.10,MacIntel,60,61025ae37ef11b136ea224fe,,,,,,,,,1672,77.18359375,32.1953125,1,0,0,response1disk,,6,18.34765625,-0.3671875,1,0,0,rectangle,18.34765625,-0.3671875,1,0,0,,,,,,,18.34765625,-0.3671875,1,0,0,,1,32,192,145,1,
,,,,,,,,,,,,,FF,,,,,,,,0.3345,,,,,,,,,,,,,,,,,,,,,,610048e0cb6a01bb2ac7aa76,61036f729149836248130cf5,2021-07-29_20h19.41.924,Simcolourproject_2stim_asymm_v5,2020.2.10,MacIntel,60,61025ae37ef11b136ea224fe,,,,,,,,,3324,26.32421875,76.171875,1,0,0,response1disk,,7,21.359375,12.91796875,1,0,0,rectangle,21.359375,12.91796875,1,0,0,,,,,,,21.359375,12.91796875,1,0,0,,1,33,193,122,1,
,,,,,,,,,,,,,FF,,,,,,,,0.449,,,,,,,,,,,,,,,,,,,,,,610048e0cb6a01bb2ac7aa76,61036f729149836248130cf5,2021-07-29_20h19.41.924,Simcolourproject_2stim_asymm_v5,2020.2.10,MacIntel,60,61025ae37ef11b136ea224fe,,,,,,,,,1124,33.04296875,60.125,1,0,0,response1disk,,7,12.73046875,14.15625,1,0,0,rectangle,12.73046875,14.15625,1,0,0,,,,,,,12.73046875,14.15625,1,0,0,,1,34,194,131,1,
,,,,,,,,,,,,,FF,,,,,,,,0.3327,,,,,,,,,,,,,,,,,,,,,,610048e0cb6a01bb2ac7aa76,61036f729149836248130cf5,2021-07-29_20h19.41.924,Simcolourproject_2stim_asymm_v5,2020.2.10,MacIntel,60,61025ae37ef11b136ea224fe,,,,,,,,,3902,40.671875,64.00390625,1,0,0,response1disk,,7,10.1875,-1.35546875,1,0,0,rectangle,10.1875,-1.35546875,1,0,0,,,,,,,10.1875,-1.35546875,1,0,0,,1,35,195,78,1,
,,,,,,,,,,,,,FF,,,,,,,,0.3489,,,,,,,,,,,,,,,,,,,,,,610048e0cb6a01bb2ac7aa76,61036f729149836248130cf5,2021-07-29_20h19.41.924,Simcolourproject_2stim_asymm_v5,2020.2.10,MacIntel,60,61025ae37ef11b136ea224fe,,,,,,,,,308,29.453125,57.34765625,1,0,0,response1disk,,7,11.16796875,-8.75,1,0,0,rectangle,11.16796875,-8.75,1,0,0,,,,,,,11.16796875,-8.75,1,0,0,,1,36,196,149,1,
,,,,,,,,,,,,,FF,,,,,,,,1.5495,,,,,,,,,,,,,,,,,,,,,,610048e0cb6a01bb2ac7aa76,61036f729149836248130cf5,2021-07-29_20h19.41.924,Simcolourproject_2stim_asymm_v5,2020.2.10,MacIntel,60,61025ae37ef11b136ea224fe,,,,,,,,,3778,56.70703125,-74.94140625,1,0,0,response3disk,,4,12.078125,2.0859375,1,0,0,rectangle,12.078125,2.0859375,1,0,0,,,,,,,12.078125,2.0859375,1,0,0,,1,37,197,63,1,
,,,,,,,,,,,,,FF,,,,,,,,0.3155,,,,,,,,,,,,,,,,,,,,,,610048e0cb6a01bb2ac7aa76,61036f729149836248130cf5,2021-07-29_20h19.41.924,Simcolourproject_2stim_asymm_v5,2020.2.10,MacIntel,60,61025ae37ef11b136ea224fe,,,,,,,,,648,33.8359375,69.15234375,1,0,0,response1disk,,7,11.78125,13.875,1,0,0,rectangle,11.78125,13.875,1,0,0,,,,,,,11.78125,13.875,1,0,0,,1,38,198,105,1,
,,,,,,,,,,,,,FF,,,,,,,,0.3511,,,,,,,,,,,,,,,,,,,,,,610048e0cb6a01bb2ac7aa76,61036f729149836248130cf5,2021-07-29_20h19.41.924,Simcolourproject_2stim_asymm_v5,2020.2.10,MacIntel,60,61025ae37ef11b136ea224fe,,,,,,,,,2478,36.921875,55.1796875,1,0,0,response1disk,,7,24.41015625,0.390625,1,0,0,rectangle,24.41015625,0.390625,1,0,0,,,,,,,24.41015625,0.390625,1,0,0,,1,39,199,93,1,
,,,,,,,,,,,,,FF,,,,,,,,0.6652,,,,,,,,,,,,,,,,,,,,,,610048e0cb6a01bb2ac7aa76,61036f729149836248130cf5,2021-07-29_20h19.41.924,Simcolourproject_2stim_asymm_v5,2020.2.10,MacIntel,60,61025ae37ef11b136ea224fe,,,,,,,,,10,38.6171875,52.03125,1,0,0,response1disk,,7,4.98828125,-7.96875,1,0,0,rectangle,4.98828125,-7.96875,1,0,0,,,,,,,4.98828125,-7.96875,1,0,0,,1,40,200,34,1,
,,,,,,,,,,,,,FF,,,,,,,,0.3675,,,,,,,,,,,,,,,,,,,,,,610048e0cb6a01bb2ac7aa76,61036f729149836248130cf5,2021-07-29_20h19.41.924,Simcolourproject_2stim_asymm_v5,2020.2.10,MacIntel,60,61025ae37ef11b136ea224fe,,,,,,,,,2389,24.95703125,56.0390625,1,0,0,response1disk,,7,11.515625,-5.8671875,1,0,0,rectangle,11.515625,-5.8671875,1,0,0,,,,,,,11.515625,-5.8671875,1,0,0,,1,41,201,126,1,
,,,,,,,,,,,,,FF,,,,,,,,0.3668,,,,,,,,,,,,,,,,,,,,,,610048e0cb6a01bb2ac7aa76,61036f729149836248130cf5,2021-07-29_20h19.41.924,Simcolourproject_2stim_asymm_v5,2020.2.10,MacIntel,60,61025ae37ef11b136ea224fe,,,,,,,,,3231,28.35546875,52.01171875,1,0,0,response1disk,,7,12.296875,-8.359375,1,0,0,rectangle,12.296875,-8.359375,1,0,0,,,,,,,12.296875,-8.359375,1,0,0,,1,42,202,72,1,
,,,,,,,,,,,,,FF,,,,,,,,0.3501,,,,,,,,,,,,,,,,,,,,,,610048e0cb6a01bb2ac7aa76,61036f729149836248130cf5,2021-07-29_20h19.41.924,Simcolourproject_2stim_asymm_v5,2020.2.10,MacIntel,60,61025ae37ef11b136ea224fe,,,,,,,,,1235,34.02734375,73.1796875,1,0,0,response1disk,,7,10.265625,-6.171875,1,0,0,rectangle,10.265625,-6.171875,1,0,0,,,,,,,10.265625,-6.171875,1,0,0,,1,43,203,144,1,
,,,,,,,,,,,,,FF,,,,,,,,0.4009,,,,,,,,,,,,,,,,,,,,,,610048e0cb6a01bb2ac7aa76,61036f729149836248130cf5,2021-07-29_20h19.41.924,Simcolourproject_2stim_asymm_v5,2020.2.10,MacIntel,60,61025ae37ef11b136ea224fe,,,,,,,,,1565,43.3515625,53.57421875,1,0,0,response1disk,,7,12.89453125,7.33984375,1,0,0,rectangle,12.89453125,7.33984375,1,0,0,,,,,,,12.89453125,7.33984375,1,0,0,,1,44,204,7,1,
,,,,,,,,,,,,,FF,,,,,,,,0.3309,,,,,,,,,,,,,,,,,,,,,,610048e0cb6a01bb2ac7aa76,61036f729149836248130cf5,2021-07-29_20h19.41.924,Simcolourproject_2stim_asymm_v5,2020.2.10,MacIntel,60,61025ae37ef11b136ea224fe,,,,,,,,,3727,34.69921875,57.69921875,1,0,0,response1disk,,7,20.4375,-1.08203125,1,0,0,rectangle,20.4375,-1.08203125,1,0,0,,,,,,,20.4375,-1.08203125,1,0,0,,1,45,205,47,1,
,,,,,,,,,,,,,FF,,,,,,,,0.6999,,,,,,,,,,,,,,,,,,,,,,610048e0cb6a01bb2ac7aa76,61036f729149836248130cf5,2021-07-29_20h19.41.924,Simcolourproject_2stim_asymm_v5,2020.2.10,MacIntel,60,61025ae37ef11b136ea224fe,,,,,,,,,3388,-21.1484375,93.03515625,1,0,0,response7disk,,0,-10.66796875,-11.43359375,1,0,0,rectangle,-10.66796875,-11.43359375,1,0,0,,,,,,,-10.66796875,-11.43359375,1,0,0,,1,46,206,147,1,
,,,,,,,,,,,,,FF,,,,,,,,0.3339,,,,,,,,,,,,,,,,,,,,,,610048e0cb6a01bb2ac7aa76,61036f729149836248130cf5,2021-07-29_20h19.41.924,Simcolourproject_2stim_asymm_v5,2020.2.10,MacIntel,60,61025ae37ef11b136ea224fe,,,,,,,,,4149,31.57421875,51.23828125,1,0,0,response1disk,,7,9.50390625,5.91015625,1,0,0,rectangle,9.50390625,5.91015625,1,0,0,,,,,,,9.50390625,5.91015625,1,0,0,,1,47,207,140,1,
,,,,,,,,,,,,,FF,,,,,,,,0.5168,,,,,,,,,,,,,,,,,,,,,,610048e0cb6a01bb2ac7aa76,61036f729149836248130cf5,2021-07-29_20h19.41.924,Simcolourproject_2stim_asymm_v5,2020.2.10,MacIntel,60,61025ae37ef11b136ea224fe,,,,,,,,,1014,32.828125,62.4296875,1,0,0,response1disk,,7,12.40234375,1.44140625,1,0,0,rectangle,12.40234375,1.44140625,1,0,0,,,,,,,12.40234375,1.44140625,1,0,0,,1,48,208,118,1,
,,,,,,,,,,,,,FF,,,,,,,,0.3332,,,,,,,,,,,,,,,,,,,,,,610048e0cb6a01bb2ac7aa76,61036f729149836248130cf5,2021-07-29_20h19.41.924,Simcolourproject_2stim_asymm_v5,2020.2.10,MacIntel,60,61025ae37ef11b136ea224fe,,,,,,,,,1662,35.75,48.59375,1,0,0,response1disk,,7,14.5625,-1.578125,1,0,0,rectangle,14.5625,-1.578125,1,0,0,,,,,,,14.5625,-1.578125,1,0,0,,1,49,209,137,1,
,,,,,,,,,,,,,FF,,,,,,,,0.3497,,,,,,,,,,,,,,,,,,,,,,610048e0cb6a01bb2ac7aa76,61036f729149836248130cf5,2021-07-29_20h19.41.924,Simcolourproject_2stim_asymm_v5,2020.2.10,MacIntel,60,61025ae37ef11b136ea224fe,,,,,,,,,3081,21.3125,67.43359375,1,0,0,response1disk,,7,2.16796875,6.39453125,1,0,0,rectangle,2.16796875,6.39453125,1,0,0,,,,,,,2.16796875,6.39453125,1,0,0,,1,50,210,95,1,
,,,,,,,,,,,,,FF,,,,,,,,0.9012,,,,,,,,,,,,,,,,,,,,,,610048e0cb6a01bb2ac7aa76,61036f729149836248130cf5,2021-07-29_20h19.41.924,Simcolourproject_2stim_asymm_v5,2020.2.10,MacIntel,60,61025ae37ef11b136ea224fe,,,,,,,,,2015,31.60546875,57.30859375,1,0,0,response1disk,,7,13.6640625,7.6171875,1,0,0,rectangle,13.6640625,7.6171875,1,0,0,,,,,,,13.6640625,7.6171875,1,0,0,,1,51,211,9,1,
,,,,,,,,,,,,,FF,,,,,,,,0.4176,,,,,,,,,,,,,,,,,,,,,,610048e0cb6a01bb2ac7aa76,61036f729149836248130cf5,2021-07-29_20h19.41.924,Simcolourproject_2stim_asymm_v5,2020.2.10,MacIntel,60,61025ae37ef11b136ea224fe,,,,,,,,,3542,36.21484375,48.30859375,1,0,0,response1disk,,7,4.73828125,-0.9140625,1,0,0,rectangle,4.73828125,-0.9140625,1,0,0,,,,,,,4.73828125,-0.9140625,1,0,0,,1,52,212,133,1,
,,,,,,,,,,,,,FF,,,,,,,,0.3494,,,,,,,,,,,,,,,,,,,,,,610048e0cb6a01bb2ac7aa76,61036f729149836248130cf5,2021-07-29_20h19.41.924,Simcolourproject_2stim_asymm_v5,2020.2.10,MacIntel,60,61025ae37ef11b136ea224fe,,,,,,,,,4273,26.875,59.50390625,1,0,0,response1disk,,7,9.91796875,-8.38671875,1,0,0,rectangle,9.91796875,-8.38671875,1,0,0,,,,,,,9.91796875,-8.38671875,1,0,0,,1,53,213,123,1,
,,,,,,,,,,,,,FF,,,,,,,,0.3506,,,,,,,,,,,,,,,,,,,,,,610048e0cb6a01bb2ac7aa76,61036f729149836248130cf5,2021-07-29_20h19.41.924,Simcolourproject_2stim_asymm_v5,2020.2.10,MacIntel,60,61025ae37ef11b136ea224fe,,,,,,,,,2077,33.12109375,35.3203125,1,0,0,response1disk,,7,6.86328125,-8.42578125,1,0,0,rectangle,6.86328125,-8.42578125,1,0,0,,,,,,,6.86328125,-8.42578125,1,0,0,,1,54,214,124,1,
,,,,,,,,,,,,,FF,,,,,,,,0.6311,,,,,,,,,,,,,,,,,,,,,,610048e0cb6a01bb2ac7aa76,61036f729149836248130cf5,2021-07-29_20h19.41.924,Simcolourproject_2stim_asymm_v5,2020.2.10,MacIntel,60,61025ae37ef11b136ea224fe,,,,,,,,,248,25.03125,63.2109375,1,0,0,response1disk,,7,9.6015625,3.40234375,1,0,0,rectangle,9.6015625,3.40234375,1,0,0,,,,,,,9.6015625,3.40234375,1,0,0,,1,55,215,0,1,
,,,,,,,,,,,,,FF,,,,,,,,0.6492,,,,,,,,,,,,,,,,,,,,,,610048e0cb6a01bb2ac7aa76,61036f729149836248130cf5,2021-07-29_20h19.41.924,Simcolourproject_2stim_asymm_v5,2020.2.10,MacIntel,60,61025ae37ef11b136ea224fe,,,,,,,,,1083,29.57421875,49.44921875,1,0,0,response1disk,,7,15.51953125,7.296875,1,0,0,rectangle,15.51953125,7.296875,1,0,0,,,,,,,15.51953125,7.296875,1,0,0,,1,56,216,45,1,
,,,,,,,,,,,,,FF,,,,,,,,0.3662,,,,,,,,,,,,,,,,,,,,,,610048e0cb6a01bb2ac7aa76,61036f729149836248130cf5,2021-07-29_20h19.41.924,Simcolourproject_2stim_asymm_v5,2020.2.10,MacIntel,60,61025ae37ef11b136ea224fe,,,,,,,,,3833,30.953125,55.87890625,1,0,0,response1disk,,7,14.5859375,-9.68359375,1,0,0,rectangle,14.5859375,-9.68359375,1,0,0,,,,,,,14.5859375,-9.68359375,1,0,0,,1,57,217,54,1,
,,,,,,,,,,,,,FF,,,,,,,,0.3333,,,,,,,,,,,,,,,,,,,,,,610048e0cb6a01bb2ac7aa76,61036f729149836248130cf5,2021-07-29_20h19.41.924,Simcolourproject_2stim_asymm_v5,2020.2.10,MacIntel,60,61025ae37ef11b136ea224fe,,,,,,,,,2706,36.58203125,52.41015625,1,0,0,response1disk,,7,23.49609375,-0.203125,1,0,0,rectangle,23.49609375,-0.203125,1,0,0,,,,,,,23.49609375,-0.203125,1,0,0,,1,58,218,13,1,
,,,,,,,,,,,,,FF,,,,,,,,0.3668,,,,,,,,,,,,,,,,,,,,,,610048e0cb6a01bb2ac7aa76,61036f729149836248130cf5,2021-07-29_20h19.41.924,Simcolourproject_2stim_asymm_v5,2020.2.10,MacIntel,60,61025ae37ef11b136ea224fe,,,,,,,,,1312,41.34765625,65.70703125,1,0,0,response1disk,,7,16.01171875,-13.6328125,1,0,0,rectangle,16.01171875,-13.6328125,1,0,0,,,,,,,16.01171875,-13.6328125,1,0,0,,1,59,219,159,1,
,,,,,,,,,,,,,FF,,,,,,,,0.35,,,,,,,,,,,,,,,,,,,,,,610048e0cb6a01bb2ac7aa76,61036f729149836248130cf5,2021-07-29_20h19.41.924,Simcolourproject_2stim_asymm_v5,2020.2.10,MacIntel,60,61025ae37ef11b136ea224fe,,,,,,,,,1209,36.83984375,62.34375,1,0,0,response1disk,,7,16.40625,-3.3359375,1,0,0,rectangle,16.40625,-3.3359375,1,0,0,,,,,,,16.40625,-3.3359375,1,0,0,,1,60,220,157,1,
,,,,,,,,,,,,,FF,,,,,,,,0.3166,,,,,,,,,,,,,,,,,,,,,,610048e0cb6a01bb2ac7aa76,61036f729149836248130cf5,2021-07-29_20h19.41.924,Simcolourproject_2stim_asymm_v5,2020.2.10,MacIntel,60,61025ae37ef11b136ea224fe,,,,,,,,,3021,39.91015625,70.05078125,1,0,0,response1disk,,7,17.203125,2.3828125,1,0,0,rectangle,17.203125,2.3828125,1,0,0,,,,,,,17.203125,2.3828125,1,0,0,,1,61,221,12,1,
,,,,,,,,,,,,,FF,,,,,,,,0.3323,,,,,,,,,,,,,,,,,,,,,,610048e0cb6a01bb2ac7aa76,61036f729149836248130cf5,2021-07-29_20h19.41.924,Simcolourproject_2stim_asymm_v5,2020.2.10,MacIntel,60,61025ae37ef11b136ea224fe,,,,,,,,,3280,36.71484375,53.921875,1,0,0,response1disk,,7,16.69140625,1.9453125,1,0,0,rectangle,16.69140625,1.9453125,1,0,0,,,,,,,16.69140625,1.9453125,1,0,0,,1,62,222,113,1,
,,,,,,,,,,,,,FF,,,,,,,,0.3334,,,,,,,,,,,,,,,,,,,,,,610048e0cb6a01bb2ac7aa76,61036f729149836248130cf5,2021-07-29_20h19.41.924,Simcolourproject_2stim_asymm_v5,2020.2.10,MacIntel,60,61025ae37ef11b136ea224fe,,,,,,,,,482,40.21484375,67.49609375,1,0,0,response1disk,,7,17.875,12.234375,1,0,0,rectangle,17.875,12.234375,1,0,0,,,,,,,17.875,12.234375,1,0,0,,1,63,223,69,1,
,,,,,,,,,,,,,FF,,,,,,,,0.3473,,,,,,,,,,,,,,,,,,,,,,610048e0cb6a01bb2ac7aa76,61036f729149836248130cf5,2021-07-29_20h19.41.924,Simcolourproject_2stim_asymm_v5,2020.2.10,MacIntel,60,61025ae37ef11b136ea224fe,,,,,,,,,298,37.734375,67.46484375,1,0,0,response1disk,,7,22.74609375,2.00390625,1,0,0,rectangle,22.74609375,2.00390625,1,0,0,,,,,,,22.74609375,2.00390625,1,0,0,,1,64,224,30,1,
,,,,,,,,,,,,,FF,,,,,,,,0.3672,,,,,,,,,,,,,,,,,,,,,,610048e0cb6a01bb2ac7aa76,61036f729149836248130cf5,2021-07-29_20h19.41.924,Simcolourproject_2stim_asymm_v5,2020.2.10,MacIntel,60,61025ae37ef11b136ea224fe,,,,,,,,,2625,35.62109375,53.48828125,1,0,0,response1disk,,7,23.24609375,-5.6015625,1,0,0,rectangle,23.24609375,-5.6015625,1,0,0,,,,,,,23.24609375,-5.6015625,1,0,0,,1,65,225,152,1,
,,,,,,,,,,,,,FF,,,,,,,,0.3339,,,,,,,,,,,,,,,,,,,,,,610048e0cb6a01bb2ac7aa76,61036f729149836248130cf5,2021-07-29_20h19.41.924,Simcolourproject_2stim_asymm_v5,2020.2.10,MacIntel,60,61025ae37ef11b136ea224fe,,,,,,,,,935,35.56640625,46.390625,1,0,0,response1disk,,7,26.390625,2.21875,1,0,0,rectangle,26.390625,2.21875,1,0,0,,,,,,,26.390625,2.21875,1,0,0,,1,66,226,81,1,
,,,,,,,,,,,,,FF,,,,,,,,0.3642,,,,,,,,,,,,,,,,,,,,,,610048e0cb6a01bb2ac7aa76,61036f729149836248130cf5,2021-07-29_20h19.41.924,Simcolourproject_2stim_asymm_v5,2020.2.10,MacIntel,60,61025ae37ef11b136ea224fe,,,,,,,,,704,39.36328125,63.6015625,1,0,0,response1disk,,7,24.20703125,-4.99609375,1,0,0,rectangle,24.20703125,-4.99609375,1,0,0,,,,,,,24.20703125,-4.99609375,1,0,0,,1,67,227,91,1,
,,,,,,,,,,,,,FF,,,,,,,,0.3504,,,,,,,,,,,,,,,,,,,,,,610048e0cb6a01bb2ac7aa76,61036f729149836248130cf5,2021-07-29_20h19.41.924,Simcolourproject_2stim_asymm_v5,2020.2.10,MacIntel,60,61025ae37ef11b136ea224fe,,,,,,,,,3076,36.11328125,55.60546875,1,0,0,response1disk,,7,25.78125,2.4765625,1,0,0,rectangle,-62.03125,-47.2734375,1,0,0,response5disk_3,TRUE,2,2,"[30,254,120,68,166,282,179,240,108,73,171,240,122,1,114,229,41,123,172,115]",1.3998,-3.3828125,3.15234375,1,0,0,rectangle,1,68,228,10,1,
,,,,,,,,,,,,,FF,,,,,,,,1.2491,,,,,,,,,,,,,,,,,,,,,,610048e0cb6a01bb2ac7aa76,61036f729149836248130cf5,2021-07-29_20h19.41.924,Simcolourproject_2stim_asymm_v5,2020.2.10,MacIntel,60,61025ae37ef11b136ea224fe,,,,,,,,,2954,78.1015625,43.8359375,1,0,0,response1disk,,6,14.08984375,-3.05859375,1,0,0,rectangle,14.08984375,-3.05859375,1,0,0,,,,,,,14.08984375,-3.05859375,1,0,0,,1,69,229,15,1,
,,,,,,,,,,,,,FF,,,,,,,,0.3002,,,,,,,,,,,,,,,,,,,,,,610048e0cb6a01bb2ac7aa76,61036f729149836248130cf5,2021-07-29_20h19.41.924,Simcolourproject_2stim_asymm_v5,2020.2.10,MacIntel,60,61025ae37ef11b136ea224fe,,,,,,,,,3496,24.5703125,69.4921875,1,0,0,response1disk,,7,6.31640625,-5.62890625,1,0,0,rectangle,6.31640625,-5.62890625,1,0,0,,,,,,,6.31640625,-5.62890625,1,0,0,,1,70,230,114,1,
,,,,,,,,,,,,,FF,,,,,,,,0.349,,,,,,,,,,,,,,,,,,,,,,610048e0cb6a01bb2ac7aa76,61036f729149836248130cf5,2021-07-29_20h19.41.924,Simcolourproject_2stim_asymm_v5,2020.2.10,MacIntel,60,61025ae37ef11b136ea224fe,,,,,,,,,1248,29.8125,44.51171875,1,0,0,response1disk,,7,14.203125,10.87109375,1,0,0,rectangle,14.203125,10.87109375,1,0,0,,,,,,,14.203125,10.87109375,1,0,0,,1,71,231,1,1,
,,,,,,,,,,,,,FF,,,,,,,,0.2992,,,,,,,,,,,,,,,,,,,,,,610048e0cb6a01bb2ac7aa76,61036f729149836248130cf5,2021-07-29_20h19.41.924,Simcolourproject_2stim_asymm_v5,2020.2.10,MacIntel,60,61025ae37ef11b136ea224fe,,,,,,,,,1421,31.95703125,62.046875,1,0,0,response1disk,,7,25.359375,5.82421875,1,0,0,rectangle,25.359375,5.82421875,1,0,0,,,,,,,25.359375,5.82421875,1,0,0,,1,72,232,6,1,
,,,,,,,,,,,,,FF,,,,,,,,0.4203,,,,,,,,,,,,,,,,,,,,,,610048e0cb6a01bb2ac7aa76,61036f729149836248130cf5,2021-07-29_20h19.41.924,Simcolourproject_2stim_asymm_v5,2020.2.10,MacIntel,60,61025ae37ef11b136ea224fe,,,,,,,,,2169,35.42578125,57.2578125,1,0,0,response1disk,,7,20.75,-15.23046875,1,0,0,rectangle,20.75,-15.23046875,1,0,0,,,,,,,20.75,-15.23046875,1,0,0,,1,73,233,153,1,
,,,,,,,,,,,,,FF,,,,,,,,0.3037,,,,,,,,,,,,,,,,,,,,,,610048e0cb6a01bb2ac7aa76,61036f729149836248130cf5,2021-07-29_20h19.41.924,Simcolourproject_2stim_asymm_v5,2020.2.10,MacIntel,60,61025ae37ef11b136ea224fe,,,,,,,,,3170,45.9140625,65.80078125,1,0,0,response1disk,,7,29.9140625,11.1171875,1,0,0,rectangle,29.9140625,11.1171875,1,0,0,,,,,,,29.9140625,11.1171875,1,0,0,,1,74,234,26,1,
,,,,,,,,,,,,,FF,,,,,,,,0.3166,,,,,,,,,,,,,,,,,,,,,,610048e0cb6a01bb2ac7aa76,61036f729149836248130cf5,2021-07-29_20h19.41.924,Simcolourproject_2stim_asymm_v5,2020.2.10,MacIntel,60,61025ae37ef11b136ea224fe,,,,,,,,,1339,39.41015625,61.13671875,1,0,0,response1disk,,7,33.9921875,-12.46484375,1,0,0,rectangle,33.9921875,-12.46484375,1,0,0,,,,,,,33.9921875,-12.46484375,1,0,0,,1,75,235,42,1,
,,,,,,,,,,,,,FF,,,,,,,,0.3653,,,,,,,,,,,,,,,,,,,,,,610048e0cb6a01bb2ac7aa76,61036f729149836248130cf5,2021-07-29_20h19.41.924,Simcolourproject_2stim_asymm_v5,2020.2.10,MacIntel,60,61025ae37ef11b136ea224fe,,,,,,,,,2380,36.13671875,53.078125,1,0,0,response1disk,,7,15.99609375,-2,1,0,0,rectangle,15.99609375,-2,1,0,0,,,,,,,15.99609375,-2,1,0,0,,1,76,236,111,1,
,,,,,,,,,,,,,FF,,,,,,,,0.3498,,,,,,,,,,,,,,,,,,,,,,610048e0cb6a01bb2ac7aa76,61036f729149836248130cf5,2021-07-29_20h19.41.924,Simcolourproject_2stim_asymm_v5,2020.2.10,MacIntel,60,61025ae37ef11b136ea224fe,,,,,,,,,215,26.90625,45.671875,1,0,0,response1disk,,7,9.21484375,-2.1171875,1,0,0,rectangle,9.21484375,-2.1171875,1,0,0,,,,,,,9.21484375,-2.1171875,1,0,0,,1,77,237,77,1,
,,,,,,,,,,,,,FF,,,,,,,,0.3997,,,,,,,,,,,,,,,,,,,,,,610048e0cb6a01bb2ac7aa76,61036f729149836248130cf5,2021-07-29_20h19.41.924,Simcolourproject_2stim_asymm_v5,2020.2.10,MacIntel,60,61025ae37ef11b136ea224fe,,,,,,,,,1601,20.74609375,62.34375,1,0,0,response1disk,,7,26.35546875,9.83203125,1,0,0,rectangle,26.35546875,9.83203125,1,0,0,,,,,,,26.35546875,9.83203125,1,0,0,,1,78,238,40,1,
,,,,,,,,,,,,,FF,,,,,,,,0.3338,,,,,,,,,,,,,,,,,,,,,,610048e0cb6a01bb2ac7aa76,61036f729149836248130cf5,2021-07-29_20h19.41.924,Simcolourproject_2stim_asymm_v5,2020.2.10,MacIntel,60,61025ae37ef11b136ea224fe,,,,,,,,,4105,29.12890625,53.4609375,1,0,0,response1disk,,7,16.63671875,8.9453125,1,0,0,rectangle,37.38671875,-79.02734375,1,0,0,response3disk_3,TRUE,4,4,"[30,254,120,68,166,282,179,240,108,73,171,240,122,1,114,229,41,123,172,115]",1.5167,11.23828125,-8.93359375,1,0,0,rectangle,1,79,239,134,1,
,,,,,,,,,,,,,FF,,,,,,,,0.8992,,,,,,,,,,,,,,,,,,,,,,610048e0cb6a01bb2ac7aa76,61036f729149836248130cf5,2021-07-29_20h19.41.924,Simcolourproject_2stim_asymm_v5,2020.2.10,MacIntel,60,61025ae37ef11b136ea224fe,,,,,,,,,3222,44.73828125,72.9375,1,0,0,response1disk,,7,13.55078125,8.234375,1,0,0,rectangle,13.55078125,8.234375,1,0,0,,,,,,,13.55078125,8.234375,1,0,0,,1,80,240,64,1,
,,,,,,,,,,,,,FF,,,,,,,,0.3156,,,,,,,,,,,,,,,,,,,,,,610048e0cb6a01bb2ac7aa76,61036f729149836248130cf5,2021-07-29_20h19.41.924,Simcolourproject_2stim_asymm_v5,2020.2.10,MacIntel,60,61025ae37ef11b136ea224fe,,,,,,,,,564,38.6484375,71.765625,1,0,0,response1disk,,7,9.71875,-5.7109375,1,0,0,rectangle,9.71875,-5.7109375,1,0,0,,,,,,,9.71875,-5.7109375,1,0,0,,1,81,241,37,1,
,,,,,,,,,,,,,FF,,,,,,,,0.5639,,,,,,,,,,,,,,,,,,,,,,610048e0cb6a01bb2ac7aa76,61036f729149836248130cf5,2021-07-29_20h19.41.924,Simcolourproject_2stim_asymm_v5,2020.2.10,MacIntel,60,61025ae37ef11b136ea224fe,,,,,,,,,263,32.16796875,61.98828125,1,0,0,response1disk,,7,10.34375,-7.21484375,1,0,0,rectangle,10.34375,-7.21484375,1,0,0,,,,,,,10.34375,-7.21484375,1,0,0,,1,82,242,89,1,
,,,,,,,,,,,,,FF,,,,,,,,0.3497,,,,,,,,,,,,,,,,,,,,,,610048e0cb6a01bb2ac7aa76,61036f729149836248130cf5,2021-07-29_20h19.41.924,Simcolourproject_2stim_asymm_v5,2020.2.10,MacIntel,60,61025ae37ef11b136ea224fe,,,,,,,,,2576,33.87109375,60.6484375,1,0,0,response1disk,,7,10.13671875,5.8515625,1,0,0,rectangle,10.13671875,5.8515625,1,0,0,,,,,,,10.13671875,5.8515625,1,0,0,,1,83,243,2,1,
,,,,,,,,,,,,,FF,,,,,,,,0.3164,,,,,,,,,,,,,,,,,,,,,,610048e0cb6a01bb2ac7aa76,61036f729149836248130cf5,2021-07-29_20h19.41.924,Simcolourproject_2stim_asymm_v5,2020.2.10,MacIntel,60,61025ae37ef11b136ea224fe,,,,,,,,,3402,37.1640625,55.09375,1,0,0,response1disk,,7,13.0703125,2.21484375,1,0,0,rectangle,13.0703125,2.21484375,1,0,0,,,,,,,13.0703125,2.21484375,1,0,0,,1,84,244,68,1,
,,,,,,,,,,,,,FF,,,,,,,,0.6001,,,,,,,,,,,,,,,,,,,,,,610048e0cb6a01bb2ac7aa76,61036f729149836248130cf5,2021-07-29_20h19.41.924,Simcolourproject_2stim_asymm_v5,2020.2.10,MacIntel,60,61025ae37ef11b136ea224fe,,,,,,,,,3668,-17.51953125,76.84765625,1,0,0,response7disk,,0,-11.69140625,10.9609375,1,0,0,rectangle,-11.69140625,10.9609375,1,0,0,,,,,,,-11.69140625,10.9609375,1,0,0,,1,85,245,108,1,
,,,,,,,,,,,,,FF,,,,,,,,0.3005,,,,,,,,,,,,,,,,,,,,,,610048e0cb6a01bb2ac7aa76,61036f729149836248130cf5,2021-07-29_20h19.41.924,Simcolourproject_2stim_asymm_v5,2020.2.10,MacIntel,60,61025ae37ef11b136ea224fe,,,,,,,,,778,35.265625,76.4296875,1,0,0,response1disk,,7,3.7109375,8.6953125,1,0,0,rectangle,3.7109375,8.6953125,1,0,0,,,,,,,3.7109375,8.6953125,1,0,0,,1,86,246,139,1,
,,,,,,,,,,,,,FF,,,,,,,,0.3502,,,,,,,,,,,,,,,,,,,,,,610048e0cb6a01bb2ac7aa76,61036f729149836248130cf5,2021-07-29_20h19.41.924,Simcolourproject_2stim_asymm_v5,2020.2.10,MacIntel,60,61025ae37ef11b136ea224fe,,,,,,,,,605,40.3671875,62.09765625,1,0,0,response1disk,,7,6.6484375,-6.234375,1,0,0,rectangle,6.6484375,-6.234375,1,0,0,,,,,,,6.6484375,-6.234375,1,0,0,,1,87,247,85,1,
,,,,,,,,,,,,,FF,,,,,,,,0.3324,,,,,,,,,,,,,,,,,,,,,,610048e0cb6a01bb2ac7aa76,61036f729149836248130cf5,2021-07-29_20h19.41.924,Simcolourproject_2stim_asymm_v5,2020.2.10,MacIntel,60,61025ae37ef11b136ea224fe,,,,,,,,,818,32.609375,63.09375,1,0,0,response1disk,,7,11.73046875,14.03125,1,0,0,rectangle,11.73046875,14.03125,1,0,0,,,,,,,11.73046875,14.03125,1,0,0,,1,88,248,138,1,
