key_resp.keys,key_resp.rt,key_resp_14.keys,key_resp_14.rt,key_resp_15.keys,key_resp_15.rt,key_resp_17.keys,key_resp_17.rt,key_resp_9.keys,key_resp_9.rt,key_resp_10.keys,key_resp_10.rt,practice_comparison,Ecc,mouse_5.x,mouse_5.y,mouse_5.leftButton,mouse_5.midButton,mouse_5.rightButton,mouse_5.clicked_name,pracsimilarity,response_time,mouse_10.x,mouse_10.y,mouse_10.leftButton,mouse_10.midButton,mouse_10.rightButton,mouse_10.clicked_name,mouse_7.x,mouse_7.y,mouse_7.leftButton,mouse_7.midButton,mouse_7.rightButton,mouse_6.x,mouse_6.y,mouse_6.leftButton,mouse_6.midButton,mouse_6.rightButton,duringprac.thisRepN,duringprac.thisTrialN,duringprac.thisN,duringprac.thisIndex,duringprac.ran,participant,session,date,expName,psychopyVersion,OS,frameRate,study_id,mouse_7.clicked_name,catchpracsimilarity,catch_response_time,catchnumberprac,catchtrialorderprac,mouse_6.clicked_name,key_resp_22.keys,key_resp_22.rt,realcomparison,mouse.x,mouse.y,mouse.leftButton,mouse.midButton,mouse.rightButton,mouse.clicked_name,Colour2,similarity,mouse_2.x,mouse_2.y,mouse_2.leftButton,mouse_2.midButton,mouse_2.rightButton,mouse_2.clicked_name,mouse_3.x,mouse_3.y,mouse_3.leftButton,mouse_3.midButton,mouse_3.rightButton,mouse_11.x,mouse_11.y,mouse_11.leftButton,mouse_11.midButton,mouse_11.rightButton,trials_2.thisRepN,trials_2.thisTrialN,trials_2.thisN,trials_2.thisIndex,trials_2.ran,Colour1,mouse_3.clicked_name,catchornah,catchsimilarity,catchnumber,catchtrialorder,catchRT,mouse_11.clicked_name
space,1.3254,space,9.2931,space,12.7695,space,3.5164,space,4.3303,space,3.6568,68,FF,-78.890625,-47.96875,1,0,0,response5disk_5,2,8.3906,32.8515625,-8.125,1,0,0,rectangle_8,32.8515625,-8.125,1,0,0,32.8515625,-8.125,1,0,0,0,0,0,3,1,61003a235712401f910e230b,61036d7ee7004541069fe290,2021-07-29_23h12.42.770,Simcolourproject_2stim_asymm_v5,2020.2.10,MacIntel,60,61025ae37ef11b136ea224fe,,,,,,,,,,,,,,,,,,,,,,,,,,,,,,,,,,,,,,,,,,,,,,
,,,,,,,,,,,,90,PF,-77.25390625,-50.8515625,1,0,0,response5disk_5,2,3.25,0.9609375,7.08984375,1,0,0,rectangle_8,-82.23828125,27.21875,1,0,0,10.69921875,-6.59765625,1,0,0,0,1,1,1,1,61003a235712401f910e230b,61036d7ee7004541069fe290,2021-07-29_23h12.42.770,Simcolourproject_2stim_asymm_v5,2020.2.10,MacIntel,60,61025ae37ef11b136ea224fe,response7disk_7,1,2.8347,1,"[2,5]",rectangle_4,,,,,,,,,,,,,,,,,,,,,,,,,,,,,,,,,,,,,,,,
,,,,,,,,,,,,145,PF,-60.84375,96.3359375,1,0,0,response7disk_5,0,2.7824,-6.5703125,6.515625,1,0,0,rectangle_8,-6.5703125,6.515625,1,0,0,-6.5703125,6.515625,1,0,0,0,2,2,2,1,61003a235712401f910e230b,61036d7ee7004541069fe290,2021-07-29_23h12.42.770,Simcolourproject_2stim_asymm_v5,2020.2.10,MacIntel,60,61025ae37ef11b136ea224fe,,,,,,,,,,,,,,,,,,,,,,,,,,,,,,,,,,,,,,,,,,,,,,
,,,,,,,,,,,,136,PF,-91.33984375,26.828125,1,0,0,response7disk_5,1,1.3824,-3.79296875,-9.8125,1,0,0,rectangle_8,-3.79296875,-9.8125,1,0,0,-3.79296875,-9.8125,1,0,0,0,3,3,6,1,61003a235712401f910e230b,61036d7ee7004541069fe290,2021-07-29_23h12.42.770,Simcolourproject_2stim_asymm_v5,2020.2.10,MacIntel,60,61025ae37ef11b136ea224fe,,,,,,,,,,,,,,,,,,,,,,,,,,,,,,,,,,,,,,,,,,,,,,
,,,,,,,,,,,,68,FF,-72.453125,30.33984375,1,0,0,response7disk_5,1,1.0014,-11.765625,-1.32421875,1,0,0,rectangle_8,-75.46875,51.9140625,1,0,0,-6.6875,-8.7265625,1,0,0,0,4,4,0,1,61003a235712401f910e230b,61036d7ee7004541069fe290,2021-07-29_23h12.42.770,Simcolourproject_2stim_asymm_v5,2020.2.10,MacIntel,60,61025ae37ef11b136ea224fe,response7disk_7,1,2.2836,1,"[2,5]",rectangle_4,,,,,,,,,,,,,,,,,,,,,,,,,,,,,,,,,,,,,,,,
,,,,,,,,,,,,88,PF,-70.2734375,26.71875,1,0,0,response7disk_5,1,1.0007,3.24609375,-7.83203125,1,0,0,rectangle_8,3.24609375,-7.83203125,1,0,0,3.24609375,-7.83203125,1,0,0,0,5,5,4,1,61003a235712401f910e230b,61036d7ee7004541069fe290,2021-07-29_23h12.42.770,Simcolourproject_2stim_asymm_v5,2020.2.10,MacIntel,60,61025ae37ef11b136ea224fe,,,,,,,,,,,,,,,,,,,,,,,,,,,,,,,,,,,,,,,,,,,,,,
,,,,,,,,,,,,58,FF,-67.52734375,36.58984375,1,0,0,response7disk_5,1,0.8862,0.640625,-12.1953125,1,0,0,rectangle_8,0.640625,-12.1953125,1,0,0,0.640625,-12.1953125,1,0,0,0,6,6,5,1,61003a235712401f910e230b,61036d7ee7004541069fe290,2021-07-29_23h12.42.770,Simcolourproject_2stim_asymm_v5,2020.2.10,MacIntel,60,61025ae37ef11b136ea224fe,,,,,,,,,,,,,,,,,,,,,,,,,,,,,,,,,,,,,,,,,,,,,,
,,,,,,,,,,,,,FF,,,,,,,,6.5176,,,,,,,,,,,,,,,,,,,,,,61003a235712401f910e230b,61036d7ee7004541069fe290,2021-07-29_23h12.42.770,Simcolourproject_2stim_asymm_v5,2020.2.10,MacIntel,60,61025ae37ef11b136ea224fe,,,,,,,space,1.8937,1500,-75.359375,-32.390625,1,0,0,response5disk,,2,11.9765625,-8.0859375,1,0,0,rectangle,11.9765625,-8.0859375,1,0,0,11.9765625,-8.0859375,1,0,0,0,0,0,18,1,,,,,,,,
,,,,,,,,,,,,,FF,,,,,,,,0.966,,,,,,,,,,,,,,,,,,,,,,61003a235712401f910e230b,61036d7ee7004541069fe290,2021-07-29_23h12.42.770,Simcolourproject_2stim_asymm_v5,2020.2.10,MacIntel,60,61025ae37ef11b136ea224fe,,,,,,,,,2558,-60.390625,-26.640625,1,0,0,response5disk,,2,-21.42578125,-9.3125,1,0,0,rectangle,-21.42578125,-9.3125,1,0,0,-21.42578125,-9.3125,1,0,0,0,1,1,81,1,,,,,,,,
,,,,,,,,,,,,,FF,,,,,,,,0.8668,,,,,,,,,,,,,,,,,,,,,,61003a235712401f910e230b,61036d7ee7004541069fe290,2021-07-29_23h12.42.770,Simcolourproject_2stim_asymm_v5,2020.2.10,MacIntel,60,61025ae37ef11b136ea224fe,,,,,,,,,2847,-64.2265625,-40.41015625,1,0,0,response5disk,,2,-9.56640625,-10.3671875,1,0,0,rectangle,-9.56640625,-10.3671875,1,0,0,-9.56640625,-10.3671875,1,0,0,0,2,2,56,1,,,,,,,,
,,,,,,,,,,,,,FF,,,,,,,,0.8347,,,,,,,,,,,,,,,,,,,,,,61003a235712401f910e230b,61036d7ee7004541069fe290,2021-07-29_23h12.42.770,Simcolourproject_2stim_asymm_v5,2020.2.10,MacIntel,60,61025ae37ef11b136ea224fe,,,,,,,,,213,-72.828125,-27.03125,1,0,0,response5disk,,2,-31.76171875,-11.5625,1,0,0,rectangle,-31.76171875,-11.5625,1,0,0,-31.76171875,-11.5625,1,0,0,0,3,3,48,1,,,,,,,,
,,,,,,,,,,,,,FF,,,,,,,,0.7824,,,,,,,,,,,,,,,,,,,,,,61003a235712401f910e230b,61036d7ee7004541069fe290,2021-07-29_23h12.42.770,Simcolourproject_2stim_asymm_v5,2020.2.10,MacIntel,60,61025ae37ef11b136ea224fe,,,,,,,,,2423,-52.78125,-27.359375,1,0,0,response5disk,,2,-0.76953125,-12.3515625,1,0,0,rectangle,-0.76953125,-12.3515625,1,0,0,-0.76953125,-12.3515625,1,0,0,0,4,4,152,1,,,,,,,,
,,,,,,,,,,,,,FF,,,,,,,,1.9004,,,,,,,,,,,,,,,,,,,,,,61003a235712401f910e230b,61036d7ee7004541069fe290,2021-07-29_23h12.42.770,Simcolourproject_2stim_asymm_v5,2020.2.10,MacIntel,60,61025ae37ef11b136ea224fe,,,,,,,,,837,-74.91015625,48.30859375,1,0,0,response7disk,,1,-8.84765625,-3.625,1,0,0,rectangle,-8.84765625,-3.625,1,0,0,-8.84765625,-3.625,1,0,0,0,5,5,84,1,,,,,,,,
,,,,,,,,,,,,,FF,,,,,,,,0.8666,,,,,,,,,,,,,,,,,,,,,,61003a235712401f910e230b,61036d7ee7004541069fe290,2021-07-29_23h12.42.770,Simcolourproject_2stim_asymm_v5,2020.2.10,MacIntel,60,61025ae37ef11b136ea224fe,,,,,,,,,189,-80.60546875,-28.5390625,1,0,0,response5disk,,2,-26.2890625,-12.6484375,1,0,0,rectangle,-26.2890625,-12.6484375,1,0,0,-26.2890625,-12.6484375,1,0,0,0,6,6,109,1,,,,,,,,
,,,,,,,,,,,,,FF,,,,,,,,1.1692,,,,,,,,,,,,,,,,,,,,,,61003a235712401f910e230b,61036d7ee7004541069fe290,2021-07-29_23h12.42.770,Simcolourproject_2stim_asymm_v5,2020.2.10,MacIntel,60,61025ae37ef11b136ea224fe,,,,,,,,,2433,-50.890625,-31.91015625,1,0,0,response5disk,,2,11.93359375,-1.1640625,1,0,0,rectangle,11.93359375,-1.1640625,1,0,0,11.93359375,-1.1640625,1,0,0,0,7,7,89,1,,,,,,,,
,,,,,,,,,,,,,FF,,,,,,,,0.7157,,,,,,,,,,,,,,,,,,,,,,61003a235712401f910e230b,61036d7ee7004541069fe290,2021-07-29_23h12.42.770,Simcolourproject_2stim_asymm_v5,2020.2.10,MacIntel,60,61025ae37ef11b136ea224fe,,,,,,,,,2220,-58.421875,-42.98046875,1,0,0,response5disk,,2,3.62109375,-8.92578125,1,0,0,rectangle,3.62109375,-8.92578125,1,0,0,3.62109375,-8.92578125,1,0,0,0,8,8,66,1,,,,,,,,
,,,,,,,,,,,,,FF,,,,,,,,0.983,,,,,,,,,,,,,,,,,,,,,,61003a235712401f910e230b,61036d7ee7004541069fe290,2021-07-29_23h12.42.770,Simcolourproject_2stim_asymm_v5,2020.2.10,MacIntel,60,61025ae37ef11b136ea224fe,,,,,,,,,4209,-78.92578125,24.95703125,1,0,0,response7disk,,1,15.15234375,-12.95703125,1,0,0,rectangle,15.15234375,-12.95703125,1,0,0,15.15234375,-12.95703125,1,0,0,0,9,9,3,1,,,,,,,,
,,,,,,,,,,,,,FF,,,,,,,,0.932,,,,,,,,,,,,,,,,,,,,,,61003a235712401f910e230b,61036d7ee7004541069fe290,2021-07-29_23h12.42.770,Simcolourproject_2stim_asymm_v5,2020.2.10,MacIntel,60,61025ae37ef11b136ea224fe,,,,,,,,,1068,-33.87890625,-89.828125,1,0,0,response5disk,,3,-7.484375,-11.91796875,1,0,0,rectangle,-7.484375,-11.91796875,1,0,0,-7.484375,-11.91796875,1,0,0,0,10,10,39,1,,,,,,,,
,,,,,,,,,,,,,FF,,,,,,,,0.7493,,,,,,,,,,,,,,,,,,,,,,61003a235712401f910e230b,61036d7ee7004541069fe290,2021-07-29_23h12.42.770,Simcolourproject_2stim_asymm_v5,2020.2.10,MacIntel,60,61025ae37ef11b136ea224fe,,,,,,,,,712,-31.8359375,-110.0742188,1,0,0,response5disk,,3,10.328125,17.3359375,1,0,0,rectangle,10.328125,17.3359375,1,0,0,10.328125,17.3359375,1,0,0,0,11,11,111,1,,,,,,,,
,,,,,,,,,,,,,FF,,,,,,,,0.6839,,,,,,,,,,,,,,,,,,,,,,61003a235712401f910e230b,61036d7ee7004541069fe290,2021-07-29_23h12.42.770,Simcolourproject_2stim_asymm_v5,2020.2.10,MacIntel,60,61025ae37ef11b136ea224fe,,,,,,,,,3338,-39.30078125,-88.16015625,1,0,0,response5disk,,3,-11.54296875,5.59375,1,0,0,rectangle,-11.54296875,5.59375,1,0,0,-11.54296875,5.59375,1,0,0,0,12,12,62,1,,,,,,,,
,,,,,,,,,,,,,FF,,,,,,,,0.5823,,,,,,,,,,,,,,,,,,,,,,61003a235712401f910e230b,61036d7ee7004541069fe290,2021-07-29_23h12.42.770,Simcolourproject_2stim_asymm_v5,2020.2.10,MacIntel,60,61025ae37ef11b136ea224fe,,,,,,,,,97,-36.58984375,-82.58203125,1,0,0,response5disk,,3,-4.015625,-0.4453125,1,0,0,rectangle,-4.015625,-0.4453125,1,0,0,-4.015625,-0.4453125,1,0,0,0,13,13,156,1,,,,,,,,
,,,,,,,,,,,,,FF,,,,,,,,0.483,,,,,,,,,,,,,,,,,,,,,,61003a235712401f910e230b,61036d7ee7004541069fe290,2021-07-29_23h12.42.770,Simcolourproject_2stim_asymm_v5,2020.2.10,MacIntel,60,61025ae37ef11b136ea224fe,,,,,,,,,160,-24.421875,-77.94140625,1,0,0,response5disk,,3,-1.078125,1.98046875,1,0,0,rectangle,-1.078125,1.98046875,1,0,0,-1.078125,1.98046875,1,0,0,0,14,14,68,1,,,,,,,,
,,,,,,,,,,,,,FF,,,,,,,,1.0504,,,,,,,,,,,,,,,,,,,,,,61003a235712401f910e230b,61036d7ee7004541069fe290,2021-07-29_23h12.42.770,Simcolourproject_2stim_asymm_v5,2020.2.10,MacIntel,60,61025ae37ef11b136ea224fe,,,,,,,,,1779,-83.375,-55.41796875,1,0,0,response5disk,,2,-20.93359375,6.95703125,1,0,0,rectangle,-20.93359375,6.95703125,1,0,0,-20.93359375,6.95703125,1,0,0,0,15,15,78,1,,,,,,,,
,,,,,,,,,,,,,FF,,,,,,,,0.6,,,,,,,,,,,,,,,,,,,,,,61003a235712401f910e230b,61036d7ee7004541069fe290,2021-07-29_23h12.42.770,Simcolourproject_2stim_asymm_v5,2020.2.10,MacIntel,60,61025ae37ef11b136ea224fe,,,,,,,,,4286,-38.015625,-73.21484375,1,0,0,response5disk,,3,14.11328125,0.96875,1,0,0,rectangle,14.11328125,0.96875,1,0,0,14.11328125,0.96875,1,0,0,0,16,16,35,1,,,,,,,,
,,,,,,,,,,,,,FF,,,,,,,,0.9834,,,,,,,,,,,,,,,,,,,,,,61003a235712401f910e230b,61036d7ee7004541069fe290,2021-07-29_23h12.42.770,Simcolourproject_2stim_asymm_v5,2020.2.10,MacIntel,60,61025ae37ef11b136ea224fe,,,,,,,,,1386,20.70703125,-97.0625,1,0,0,response3disk,,4,18.91796875,-3.375,1,0,0,rectangle,27.23828125,89.3203125,1,0,0,8.1953125,-11.19140625,1,0,0,0,17,17,53,1,,response1disk_3,TRUE,7,7,"[198,117,252,58,255,74,115,318,147,143,60,18,70,198,54,178,55,91,322,297]",2.8019,rectangle
,,,,,,,,,,,,,FF,,,,,,,,1.8525,,,,,,,,,,,,,,,,,,,,,,61003a235712401f910e230b,61036d7ee7004541069fe290,2021-07-29_23h12.42.770,Simcolourproject_2stim_asymm_v5,2020.2.10,MacIntel,60,61025ae37ef11b136ea224fe,,,,,,,,,2332,-49.375,-92.83203125,1,0,0,response5disk,,3,5.59765625,-17.6953125,1,0,0,rectangle,5.59765625,-17.6953125,1,0,0,5.59765625,-17.6953125,1,0,0,0,18,18,38,1,,,,,,,,
,,,,,,,,,,,,,FF,,,,,,,,1.0827,,,,,,,,,,,,,,,,,,,,,,61003a235712401f910e230b,61036d7ee7004541069fe290,2021-07-29_23h12.42.770,Simcolourproject_2stim_asymm_v5,2020.2.10,MacIntel,60,61025ae37ef11b136ea224fe,,,,,,,,,1582,41.6484375,-97.19921875,1,0,0,response3disk,,4,18.6015625,-15.515625,1,0,0,rectangle,18.6015625,-15.515625,1,0,0,18.6015625,-15.515625,1,0,0,0,19,19,142,1,,,,,,,,
,,,,,,,,,,,,,FF,,,,,,,,1.4503,,,,,,,,,,,,,,,,,,,,,,61003a235712401f910e230b,61036d7ee7004541069fe290,2021-07-29_23h12.42.770,Simcolourproject_2stim_asymm_v5,2020.2.10,MacIntel,60,61025ae37ef11b136ea224fe,,,,,,,,,619,-36.40625,-105.8632813,1,0,0,response5disk,,3,3.5234375,-8.15234375,1,0,0,rectangle,3.5234375,-8.15234375,1,0,0,3.5234375,-8.15234375,1,0,0,0,20,20,41,1,,,,,,,,
,,,,,,,,,,,,,FF,,,,,,,,1.2655,,,,,,,,,,,,,,,,,,,,,,61003a235712401f910e230b,61036d7ee7004541069fe290,2021-07-29_23h12.42.770,Simcolourproject_2stim_asymm_v5,2020.2.10,MacIntel,60,61025ae37ef11b136ea224fe,,,,,,,,,1378,-35.5,-90.12890625,1,0,0,response5disk,,3,10.18359375,1.3046875,1,0,0,rectangle,10.18359375,1.3046875,1,0,0,10.18359375,1.3046875,1,0,0,0,21,21,30,1,,,,,,,,
,,,,,,,,,,,,,FF,,,,,,,,0.935,,,,,,,,,,,,,,,,,,,,,,61003a235712401f910e230b,61036d7ee7004541069fe290,2021-07-29_23h12.42.770,Simcolourproject_2stim_asymm_v5,2020.2.10,MacIntel,60,61025ae37ef11b136ea224fe,,,,,,,,,78,-66.35546875,-33.75390625,1,0,0,response5disk,,2,4.12890625,-0.40234375,1,0,0,rectangle,4.12890625,-0.40234375,1,0,0,4.12890625,-0.40234375,1,0,0,0,22,22,136,1,,,,,,,,
,,,,,,,,,,,,,FF,,,,,,,,1.1831,,,,,,,,,,,,,,,,,,,,,,61003a235712401f910e230b,61036d7ee7004541069fe290,2021-07-29_23h12.42.770,Simcolourproject_2stim_asymm_v5,2020.2.10,MacIntel,60,61025ae37ef11b136ea224fe,,,,,,,,,2741,27.80859375,-102.2109375,1,0,0,response3disk,,4,2.80078125,-6.07421875,1,0,0,rectangle,2.80078125,-6.07421875,1,0,0,2.80078125,-6.07421875,1,0,0,0,23,23,12,1,,,,,,,,
,,,,,,,,,,,,,FF,,,,,,,,1.3495,,,,,,,,,,,,,,,,,,,,,,61003a235712401f910e230b,61036d7ee7004541069fe290,2021-07-29_23h12.42.770,Simcolourproject_2stim_asymm_v5,2020.2.10,MacIntel,60,61025ae37ef11b136ea224fe,,,,,,,,,1298,-87.07421875,-35.0625,1,0,0,response5disk,,2,3.66796875,-6.76171875,1,0,0,rectangle,3.66796875,-6.76171875,1,0,0,3.66796875,-6.76171875,1,0,0,0,24,24,34,1,,,,,,,,
,,,,,,,,,,,,,FF,,,,,,,,2.0181,,,,,,,,,,,,,,,,,,,,,,61003a235712401f910e230b,61036d7ee7004541069fe290,2021-07-29_23h12.42.770,Simcolourproject_2stim_asymm_v5,2020.2.10,MacIntel,60,61025ae37ef11b136ea224fe,,,,,,,,,4224,-84.19921875,-48.921875,1,0,0,response5disk,,2,-16.1875,3.515625,1,0,0,rectangle,-16.1875,3.515625,1,0,0,-16.1875,3.515625,1,0,0,0,25,25,60,1,,,,,,,,
,,,,,,,,,,,,,FF,,,,,,,,40.6542,,,,,,,,,,,,,,,,,,,,,,61003a235712401f910e230b,61036d7ee7004541069fe290,2021-07-29_23h12.42.770,Simcolourproject_2stim_asymm_v5,2020.2.10,MacIntel,60,61025ae37ef11b136ea224fe,,,,,,,,,2150,64.265625,-83.78515625,1,0,0,response3disk,,4,6.22265625,-11.515625,1,0,0,rectangle,6.22265625,-11.515625,1,0,0,6.22265625,-11.515625,1,0,0,0,26,26,90,1,,,,,,,,
,,,,,,,,,,,,,FF,,,,,,,,1.0684,,,,,,,,,,,,,,,,,,,,,,61003a235712401f910e230b,61036d7ee7004541069fe290,2021-07-29_23h12.42.770,Simcolourproject_2stim_asymm_v5,2020.2.10,MacIntel,60,61025ae37ef11b136ea224fe,,,,,,,,,2835,-52.61328125,-66.03515625,1,0,0,response5disk,,3,24.58984375,15.75390625,1,0,0,rectangle,24.58984375,15.75390625,1,0,0,24.58984375,15.75390625,1,0,0,0,27,27,32,1,,,,,,,,
,,,,,,,,,,,,,FF,,,,,,,,0.883,,,,,,,,,,,,,,,,,,,,,,61003a235712401f910e230b,61036d7ee7004541069fe290,2021-07-29_23h12.42.770,Simcolourproject_2stim_asymm_v5,2020.2.10,MacIntel,60,61025ae37ef11b136ea224fe,,,,,,,,,418,93.93359375,-51.78125,1,0,0,response3disk,,5,25.8203125,4.23828125,1,0,0,rectangle,25.8203125,4.23828125,1,0,0,25.8203125,4.23828125,1,0,0,0,28,28,98,1,,,,,,,,
,,,,,,,,,,,,,FF,,,,,,,,0.9836,,,,,,,,,,,,,,,,,,,,,,61003a235712401f910e230b,61036d7ee7004541069fe290,2021-07-29_23h12.42.770,Simcolourproject_2stim_asymm_v5,2020.2.10,MacIntel,60,61025ae37ef11b136ea224fe,,,,,,,,,3326,65,-17.51953125,1,0,0,response3disk,,5,13.765625,-16.08984375,1,0,0,rectangle,13.765625,-16.08984375,1,0,0,13.765625,-16.08984375,1,0,0,0,29,29,158,1,,,,,,,,
,,,,,,,,,,,,,FF,,,,,,,,1.2502,,,,,,,,,,,,,,,,,,,,,,61003a235712401f910e230b,61036d7ee7004541069fe290,2021-07-29_23h12.42.770,Simcolourproject_2stim_asymm_v5,2020.2.10,MacIntel,60,61025ae37ef11b136ea224fe,,,,,,,,,1623,-23.12890625,-95.2890625,1,0,0,response5disk,,3,10.53125,7.27734375,1,0,0,rectangle,10.53125,7.27734375,1,0,0,10.53125,7.27734375,1,0,0,0,30,30,139,1,,,,,,,,
,,,,,,,,,,,,,FF,,,,,,,,1.1171,,,,,,,,,,,,,,,,,,,,,,61003a235712401f910e230b,61036d7ee7004541069fe290,2021-07-29_23h12.42.770,Simcolourproject_2stim_asymm_v5,2020.2.10,MacIntel,60,61025ae37ef11b136ea224fe,,,,,,,,,2658,103.0195313,-60.39453125,1,0,0,response3disk,,5,7.5390625,3.3828125,1,0,0,rectangle,7.5390625,3.3828125,1,0,0,7.5390625,3.3828125,1,0,0,0,31,31,23,1,,,,,,,,
,,,,,,,,,,,,,FF,,,,,,,,0.9655,,,,,,,,,,,,,,,,,,,,,,61003a235712401f910e230b,61036d7ee7004541069fe290,2021-07-29_23h12.42.770,Simcolourproject_2stim_asymm_v5,2020.2.10,MacIntel,60,61025ae37ef11b136ea224fe,,,,,,,,,3913,-29.2890625,-106.03125,1,0,0,response5disk,,3,2.47265625,-6.15625,1,0,0,rectangle,2.47265625,-6.15625,1,0,0,2.47265625,-6.15625,1,0,0,0,32,32,40,1,,,,,,,,
,,,,,,,,,,,,,FF,,,,,,,,1.0837,,,,,,,,,,,,,,,,,,,,,,61003a235712401f910e230b,61036d7ee7004541069fe290,2021-07-29_23h12.42.770,Simcolourproject_2stim_asymm_v5,2020.2.10,MacIntel,60,61025ae37ef11b136ea224fe,,,,,,,,,1273,104.7695313,28.3671875,1,0,0,response1disk,,6,10.34375,-12.90234375,1,0,0,rectangle,10.34375,-12.90234375,1,0,0,10.34375,-12.90234375,1,0,0,0,33,33,107,1,,,,,,,,
,,,,,,,,,,,,,FF,,,,,,,,0.8005,,,,,,,,,,,,,,,,,,,,,,61003a235712401f910e230b,61036d7ee7004541069fe290,2021-07-29_23h12.42.770,Simcolourproject_2stim_asymm_v5,2020.2.10,MacIntel,60,61025ae37ef11b136ea224fe,,,,,,,,,130,54.81640625,89.125,1,0,0,response1disk,,7,27.05078125,10.6953125,1,0,0,rectangle,27.05078125,10.6953125,1,0,0,27.05078125,10.6953125,1,0,0,0,34,34,149,1,,,,,,,,
,,,,,,,,,,,,,FF,,,,,,,,0.9828,,,,,,,,,,,,,,,,,,,,,,61003a235712401f910e230b,61036d7ee7004541069fe290,2021-07-29_23h12.42.770,Simcolourproject_2stim_asymm_v5,2020.2.10,MacIntel,60,61025ae37ef11b136ea224fe,,,,,,,,,3223,29.046875,87.5625,1,0,0,response1disk,,7,20.29296875,-17.5859375,1,0,0,rectangle,20.29296875,-17.5859375,1,0,0,20.29296875,-17.5859375,1,0,0,0,35,35,15,1,,,,,,,,
,,,,,,,,,,,,,FF,,,,,,,,0.8503,,,,,,,,,,,,,,,,,,,,,,61003a235712401f910e230b,61036d7ee7004541069fe290,2021-07-29_23h12.42.770,Simcolourproject_2stim_asymm_v5,2020.2.10,MacIntel,60,61025ae37ef11b136ea224fe,,,,,,,,,576,98.6171875,44.046875,1,0,0,response1disk,,6,28.07421875,10.1171875,1,0,0,rectangle,28.07421875,10.1171875,1,0,0,28.07421875,10.1171875,1,0,0,0,36,36,113,1,,,,,,,,
,,,,,,,,,,,,,FF,,,,,,,,0.9166,,,,,,,,,,,,,,,,,,,,,,61003a235712401f910e230b,61036d7ee7004541069fe290,2021-07-29_23h12.42.770,Simcolourproject_2stim_asymm_v5,2020.2.10,MacIntel,60,61025ae37ef11b136ea224fe,,,,,,,,,2841,76.21484375,-41.83984375,1,0,0,response3disk,,5,-17.1171875,-3.3125,1,0,0,rectangle,-17.1171875,-3.3125,1,0,0,-17.1171875,-3.3125,1,0,0,0,37,37,120,1,,,,,,,,
,,,,,,,,,,,,,FF,,,,,,,,0.9015,,,,,,,,,,,,,,,,,,,,,,61003a235712401f910e230b,61036d7ee7004541069fe290,2021-07-29_23h12.42.770,Simcolourproject_2stim_asymm_v5,2020.2.10,MacIntel,60,61025ae37ef11b136ea224fe,,,,,,,,,1012,84.5234375,-41.12109375,1,0,0,response3disk,,5,27.11328125,-11.28125,1,0,0,rectangle,27.11328125,-11.28125,1,0,0,27.11328125,-11.28125,1,0,0,0,38,38,75,1,,,,,,,,
,,,,,,,,,,,,,FF,,,,,,,,1.3016,,,,,,,,,,,,,,,,,,,,,,61003a235712401f910e230b,61036d7ee7004541069fe290,2021-07-29_23h12.42.770,Simcolourproject_2stim_asymm_v5,2020.2.10,MacIntel,60,61025ae37ef11b136ea224fe,,,,,,,,,2244,83.73046875,38.9921875,1,0,0,response1disk,,6,2.60546875,3.38671875,1,0,0,rectangle,2.60546875,3.38671875,1,0,0,2.60546875,3.38671875,1,0,0,0,39,39,17,1,,,,,,,,
,,,,,,,,,,,,,FF,,,,,,,,1.2503,,,,,,,,,,,,,,,,,,,,,,61003a235712401f910e230b,61036d7ee7004541069fe290,2021-07-29_23h12.42.770,Simcolourproject_2stim_asymm_v5,2020.2.10,MacIntel,60,61025ae37ef11b136ea224fe,,,,,,,,,437,-39.12109375,-92.8359375,1,0,0,response5disk,,3,21.21484375,5.390625,1,0,0,rectangle,21.21484375,5.390625,1,0,0,21.21484375,5.390625,1,0,0,0,40,40,22,1,,,,,,,,
,,,,,,,,,,,,,FF,,,,,,,,0.9165,,,,,,,,,,,,,,,,,,,,,,61003a235712401f910e230b,61036d7ee7004541069fe290,2021-07-29_23h12.42.770,Simcolourproject_2stim_asymm_v5,2020.2.10,MacIntel,60,61025ae37ef11b136ea224fe,,,,,,,,,3783,-34.1171875,-87.8203125,1,0,0,response5disk,,3,-10.375,-13.765625,1,0,0,rectangle,-10.375,-13.765625,1,0,0,-10.375,-13.765625,1,0,0,0,41,41,133,1,,,,,,,,
,,,,,,,,,,,,,FF,,,,,,,,0.8493,,,,,,,,,,,,,,,,,,,,,,61003a235712401f910e230b,61036d7ee7004541069fe290,2021-07-29_23h12.42.770,Simcolourproject_2stim_asymm_v5,2020.2.10,MacIntel,60,61025ae37ef11b136ea224fe,,,,,,,,,1774,46.16015625,-85.69921875,1,0,0,response3disk,,4,22.1953125,0.109375,1,0,0,rectangle,22.1953125,0.109375,1,0,0,22.1953125,0.109375,1,0,0,0,42,42,16,1,,,,,,,,
,,,,,,,,,,,,,FF,,,,,,,,0.8674,,,,,,,,,,,,,,,,,,,,,,61003a235712401f910e230b,61036d7ee7004541069fe290,2021-07-29_23h12.42.770,Simcolourproject_2stim_asymm_v5,2020.2.10,MacIntel,60,61025ae37ef11b136ea224fe,,,,,,,,,333,69.27734375,-48.7109375,1,0,0,response3disk,,5,10.85546875,-7.15625,1,0,0,rectangle,10.85546875,-7.15625,1,0,0,10.85546875,-7.15625,1,0,0,0,43,43,150,1,,,,,,,,
,,,,,,,,,,,,,FF,,,,,,,,0.8354,,,,,,,,,,,,,,,,,,,,,,61003a235712401f910e230b,61036d7ee7004541069fe290,2021-07-29_23h12.42.770,Simcolourproject_2stim_asymm_v5,2020.2.10,MacIntel,60,61025ae37ef11b136ea224fe,,,,,,,,,4256,78.1796875,-39.77734375,1,0,0,response3disk,,5,14.37890625,-5.05859375,1,0,0,rectangle,14.37890625,-5.05859375,1,0,0,14.37890625,-5.05859375,1,0,0,0,44,44,2,1,,,,,,,,
,,,,,,,,,,,,,FF,,,,,,,,1.3659,,,,,,,,,,,,,,,,,,,,,,61003a235712401f910e230b,61036d7ee7004541069fe290,2021-07-29_23h12.42.770,Simcolourproject_2stim_asymm_v5,2020.2.10,MacIntel,60,61025ae37ef11b136ea224fe,,,,,,,,,183,35.44921875,72.15625,1,0,0,response1disk,,7,13.5390625,-16.0859375,1,0,0,rectangle,13.5390625,-16.0859375,1,0,0,13.5390625,-16.0859375,1,0,0,0,45,45,104,1,,,,,,,,
,,,,,,,,,,,,,FF,,,,,,,,0.8186,,,,,,,,,,,,,,,,,,,,,,61003a235712401f910e230b,61036d7ee7004541069fe290,2021-07-29_23h12.42.770,Simcolourproject_2stim_asymm_v5,2020.2.10,MacIntel,60,61025ae37ef11b136ea224fe,,,,,,,,,2284,99.76171875,-35.85546875,1,0,0,response3disk,,5,26.015625,-1.23828125,1,0,0,rectangle,26.015625,-1.23828125,1,0,0,26.015625,-1.23828125,1,0,0,0,46,46,134,1,,,,,,,,
,,,,,,,,,,,,,FF,,,,,,,,0.7168,,,,,,,,,,,,,,,,,,,,,,61003a235712401f910e230b,61036d7ee7004541069fe290,2021-07-29_23h12.42.770,Simcolourproject_2stim_asymm_v5,2020.2.10,MacIntel,60,61025ae37ef11b136ea224fe,,,,,,,,,2699,63.171875,-28.43359375,1,0,0,response3disk,,5,-12.83203125,4.5234375,1,0,0,rectangle,-12.83203125,4.5234375,1,0,0,-12.83203125,4.5234375,1,0,0,0,47,47,92,1,,,,,,,,
,,,,,,,,,,,,,FF,,,,,,,,1.403,,,,,,,,,,,,,,,,,,,,,,61003a235712401f910e230b,61036d7ee7004541069fe290,2021-07-29_23h12.42.770,Simcolourproject_2stim_asymm_v5,2020.2.10,MacIntel,60,61025ae37ef11b136ea224fe,,,,,,,,,1751,-24.1171875,-108.0703125,1,0,0,response5disk,,3,4.85546875,-10.81640625,1,0,0,rectangle,4.85546875,-10.81640625,1,0,0,4.85546875,-10.81640625,1,0,0,0,48,48,116,1,,,,,,,,
,,,,,,,,,,,,,FF,,,,,,,,1.3852,,,,,,,,,,,,,,,,,,,,,,61003a235712401f910e230b,61036d7ee7004541069fe290,2021-07-29_23h12.42.770,Simcolourproject_2stim_asymm_v5,2020.2.10,MacIntel,60,61025ae37ef11b136ea224fe,,,,,,,,,3430,-40.96484375,-73.33203125,1,0,0,response5disk,,3,-3.83984375,-7.078125,1,0,0,rectangle,-3.83984375,-7.078125,1,0,0,-3.83984375,-7.078125,1,0,0,0,49,49,138,1,,,,,,,,
,,,,,,,,,,,,,FF,,,,,,,,0.8501,,,,,,,,,,,,,,,,,,,,,,61003a235712401f910e230b,61036d7ee7004541069fe290,2021-07-29_23h12.42.770,Simcolourproject_2stim_asymm_v5,2020.2.10,MacIntel,60,61025ae37ef11b136ea224fe,,,,,,,,,2257,108.8671875,-53.91796875,1,0,0,response3disk,,5,21.828125,-5.5,1,0,0,rectangle,21.828125,-5.5,1,0,0,21.828125,-5.5,1,0,0,0,50,50,14,1,,,,,,,,
,,,,,,,,,,,,,FF,,,,,,,,0.8657,,,,,,,,,,,,,,,,,,,,,,61003a235712401f910e230b,61036d7ee7004541069fe290,2021-07-29_23h12.42.770,Simcolourproject_2stim_asymm_v5,2020.2.10,MacIntel,60,61025ae37ef11b136ea224fe,,,,,,,,,2591,68.60546875,31.13671875,1,0,0,response1disk,,6,28.734375,-2.33203125,1,0,0,rectangle,28.734375,-2.33203125,1,0,0,28.734375,-2.33203125,1,0,0,0,51,51,54,1,,,,,,,,
,,,,,,,,,,,,,FF,,,,,,,,0.9677,,,,,,,,,,,,,,,,,,,,,,61003a235712401f910e230b,61036d7ee7004541069fe290,2021-07-29_23h12.42.770,Simcolourproject_2stim_asymm_v5,2020.2.10,MacIntel,60,61025ae37ef11b136ea224fe,,,,,,,,,4052,-90.14453125,-43.4921875,1,0,0,response5disk,,2,-13.37890625,-8.3671875,1,0,0,rectangle,-13.37890625,-8.3671875,1,0,0,-13.37890625,-8.3671875,1,0,0,0,52,52,114,1,,,,,,,,
,,,,,,,,,,,,,FF,,,,,,,,0.949,,,,,,,,,,,,,,,,,,,,,,61003a235712401f910e230b,61036d7ee7004541069fe290,2021-07-29_23h12.42.770,Simcolourproject_2stim_asymm_v5,2020.2.10,MacIntel,60,61025ae37ef11b136ea224fe,,,,,,,,,3550,40.9453125,80.890625,1,0,0,response1disk,,7,10.51171875,6.29296875,1,0,0,rectangle,56.26953125,-115.171875,1,0,0,16.65234375,-9.3828125,1,0,0,0,53,53,42,1,,response3disk_3,TRUE,4,4,"[198,117,252,58,255,74,115,318,147,143,60,18,70,198,54,178,55,91,322,297]",2.9831,rectangle
,,,,,,,,,,,,,FF,,,,,,,,1.5168,,,,,,,,,,,,,,,,,,,,,,61003a235712401f910e230b,61036d7ee7004541069fe290,2021-07-29_23h12.42.770,Simcolourproject_2stim_asymm_v5,2020.2.10,MacIntel,60,61025ae37ef11b136ea224fe,,,,,,,,,1310,48.31640625,-98.3671875,1,0,0,response3disk,,4,25.36328125,-16.34765625,1,0,0,rectangle,-101.2890625,25.40625,1,0,0,-23.30859375,2.96484375,1,0,0,0,54,54,128,1,,response7disk_3,TRUE,1,1,"[198,117,252,58,255,74,115,318,147,143,60,18,70,198,54,178,55,91,322,297]",1.9325,rectangle
,,,,,,,,,,,,,FF,,,,,,,,1.7845,,,,,,,,,,,,,,,,,,,,,,61003a235712401f910e230b,61036d7ee7004541069fe290,2021-07-29_23h12.42.770,Simcolourproject_2stim_asymm_v5,2020.2.10,MacIntel,60,61025ae37ef11b136ea224fe,,,,,,,,,2028,-82.05078125,-35.96484375,1,0,0,response5disk,,2,0.55078125,-14.890625,1,0,0,rectangle,0.55078125,-14.890625,1,0,0,0.55078125,-14.890625,1,0,0,0,55,55,43,1,,,,,,,,
,,,,,,,,,,,,,FF,,,,,,,,0.8009,,,,,,,,,,,,,,,,,,,,,,61003a235712401f910e230b,61036d7ee7004541069fe290,2021-07-29_23h12.42.770,Simcolourproject_2stim_asymm_v5,2020.2.10,MacIntel,60,61025ae37ef11b136ea224fe,,,,,,,,,1821,-64.48828125,-33.46875,1,0,0,response5disk,,2,0.33984375,7.5078125,1,0,0,rectangle,0.33984375,7.5078125,1,0,0,0.33984375,7.5078125,1,0,0,0,56,56,28,1,,,,,,,,
,,,,,,,,,,,,,FF,,,,,,,,2.2659,,,,,,,,,,,,,,,,,,,,,,61003a235712401f910e230b,61036d7ee7004541069fe290,2021-07-29_23h12.42.770,Simcolourproject_2stim_asymm_v5,2020.2.10,MacIntel,60,61025ae37ef11b136ea224fe,,,,,,,,,2194,82.703125,-50.31640625,1,0,0,response3disk,,5,13.9140625,-15.22265625,1,0,0,rectangle,-74.734375,-32.02734375,1,0,0,-9.40234375,-7.10546875,1,0,0,0,57,57,103,1,,response5disk_3,TRUE,2,2,"[198,117,252,58,255,74,115,318,147,143,60,18,70,198,54,178,55,91,322,297]",2.3162,rectangle
,,,,,,,,,,,,,FF,,,,,,,,1.1325,,,,,,,,,,,,,,,,,,,,,,61003a235712401f910e230b,61036d7ee7004541069fe290,2021-07-29_23h12.42.770,Simcolourproject_2stim_asymm_v5,2020.2.10,MacIntel,60,61025ae37ef11b136ea224fe,,,,,,,,,1395,51.9921875,97.8359375,1,0,0,response1disk,,7,13.421875,6.55859375,1,0,0,rectangle,13.421875,6.55859375,1,0,0,13.421875,6.55859375,1,0,0,0,58,58,137,1,,,,,,,,
,,,,,,,,,,,,,FF,,,,,,,,0.9164,,,,,,,,,,,,,,,,,,,,,,61003a235712401f910e230b,61036d7ee7004541069fe290,2021-07-29_23h12.42.770,Simcolourproject_2stim_asymm_v5,2020.2.10,MacIntel,60,61025ae37ef11b136ea224fe,,,,,,,,,2394,38.0390625,63.76171875,1,0,0,response1disk,,7,1.125,-6.49609375,1,0,0,rectangle,-83.91796875,54.27734375,1,0,0,-14.84765625,9.9609375,1,0,0,0,59,59,117,1,,response7disk_3,TRUE,1,1,"[198,117,252,58,255,74,115,318,147,143,60,18,70,198,54,178,55,91,322,297]",2.3492,rectangle
,,,,,,,,,,,,,FF,,,,,,,,1.4169,,,,,,,,,,,,,,,,,,,,,,61003a235712401f910e230b,61036d7ee7004541069fe290,2021-07-29_23h12.42.770,Simcolourproject_2stim_asymm_v5,2020.2.10,MacIntel,60,61025ae37ef11b136ea224fe,,,,,,,,,2623,58.91015625,81.12109375,1,0,0,response1disk,,7,-5.171875,-10.4765625,1,0,0,rectangle,-5.171875,-10.4765625,1,0,0,-5.171875,-10.4765625,1,0,0,0,60,60,36,1,,,,,,,,
,,,,,,,,,,,,,FF,,,,,,,,0.8345,,,,,,,,,,,,,,,,,,,,,,61003a235712401f910e230b,61036d7ee7004541069fe290,2021-07-29_23h12.42.770,Simcolourproject_2stim_asymm_v5,2020.2.10,MacIntel,60,61025ae37ef11b136ea224fe,,,,,,,,,1911,31.89453125,102.71875,1,0,0,response1disk,,7,4.4609375,5.41796875,1,0,0,rectangle,4.4609375,5.41796875,1,0,0,4.4609375,5.41796875,1,0,0,0,61,61,67,1,,,,,,,,
,,,,,,,,,,,,,FF,,,,,,,,1.1835,,,,,,,,,,,,,,,,,,,,,,61003a235712401f910e230b,61036d7ee7004541069fe290,2021-07-29_23h12.42.770,Simcolourproject_2stim_asymm_v5,2020.2.10,MacIntel,60,61025ae37ef11b136ea224fe,,,,,,,,,3640,103.5351563,46.296875,1,0,0,response1disk,,6,11.46875,-1.42578125,1,0,0,rectangle,11.46875,-1.42578125,1,0,0,11.46875,-1.42578125,1,0,0,0,62,62,97,1,,,,,,,,
,,,,,,,,,,,,,FF,,,,,,,,0.9668,,,,,,,,,,,,,,,,,,,,,,61003a235712401f910e230b,61036d7ee7004541069fe290,2021-07-29_23h12.42.770,Simcolourproject_2stim_asymm_v5,2020.2.10,MacIntel,60,61025ae37ef11b136ea224fe,,,,,,,,,3334,80.19921875,44.02734375,1,0,0,response1disk,,6,13.828125,-3.1328125,1,0,0,rectangle,13.828125,-3.1328125,1,0,0,13.828125,-3.1328125,1,0,0,0,63,63,108,1,,,,,,,,
,,,,,,,,,,,,,FF,,,,,,,,1.332,,,,,,,,,,,,,,,,,,,,,,61003a235712401f910e230b,61036d7ee7004541069fe290,2021-07-29_23h12.42.770,Simcolourproject_2stim_asymm_v5,2020.2.10,MacIntel,60,61025ae37ef11b136ea224fe,,,,,,,,,1381,80.18359375,-50.7578125,1,0,0,response3disk,,5,20.19140625,-12.37109375,1,0,0,rectangle,20.19140625,-12.37109375,1,0,0,20.19140625,-12.37109375,1,0,0,0,64,64,129,1,,,,,,,,
,,,,,,,,,,,,,FF,,,,,,,,0.9515,,,,,,,,,,,,,,,,,,,,,,61003a235712401f910e230b,61036d7ee7004541069fe290,2021-07-29_23h12.42.770,Simcolourproject_2stim_asymm_v5,2020.2.10,MacIntel,60,61025ae37ef11b136ea224fe,,,,,,,,,634,42.35546875,-83.6328125,1,0,0,response3disk,,4,19.19921875,-9.08203125,1,0,0,rectangle,19.19921875,-9.08203125,1,0,0,19.19921875,-9.08203125,1,0,0,0,65,65,144,1,,,,,,,,
,,,,,,,,,,,,,FF,,,,,,,,1.5996,,,,,,,,,,,,,,,,,,,,,,61003a235712401f910e230b,61036d7ee7004541069fe290,2021-07-29_23h12.42.770,Simcolourproject_2stim_asymm_v5,2020.2.10,MacIntel,60,61025ae37ef11b136ea224fe,,,,,,,,,3767,38.49609375,83.5703125,1,0,0,response1disk,,7,14.5234375,-9.62109375,1,0,0,rectangle,14.5234375,-9.62109375,1,0,0,14.5234375,-9.62109375,1,0,0,0,66,66,145,1,,,,,,,,
,,,,,,,,,,,,,FF,,,,,,,,1.0998,,,,,,,,,,,,,,,,,,,,,,61003a235712401f910e230b,61036d7ee7004541069fe290,2021-07-29_23h12.42.770,Simcolourproject_2stim_asymm_v5,2020.2.10,MacIntel,60,61025ae37ef11b136ea224fe,,,,,,,,,889,-67.33984375,-47.9453125,1,0,0,response5disk,,2,-14.83984375,-11.73828125,1,0,0,rectangle,-14.83984375,-11.73828125,1,0,0,-14.83984375,-11.73828125,1,0,0,0,67,67,102,1,,,,,,,,
,,,,,,,,,,,,,FF,,,,,,,,1.4491,,,,,,,,,,,,,,,,,,,,,,61003a235712401f910e230b,61036d7ee7004541069fe290,2021-07-29_23h12.42.770,Simcolourproject_2stim_asymm_v5,2020.2.10,MacIntel,60,61025ae37ef11b136ea224fe,,,,,,,,,3169,95.421875,40.94140625,1,0,0,response1disk,,6,2.7734375,-1.98046875,1,0,0,rectangle,2.7734375,-1.98046875,1,0,0,2.7734375,-1.98046875,1,0,0,0,68,68,110,1,,,,,,,,
,,,,,,,,,,,,,FF,,,,,,,,1.384,,,,,,,,,,,,,,,,,,,,,,61003a235712401f910e230b,61036d7ee7004541069fe290,2021-07-29_23h12.42.770,Simcolourproject_2stim_asymm_v5,2020.2.10,MacIntel,60,61025ae37ef11b136ea224fe,,,,,,,,,1379,32.671875,-77.33984375,1,0,0,response3disk,,4,13.1875,-9.421875,1,0,0,rectangle,-28.73828125,95.04296875,1,0,0,4.1328125,-11.265625,1,0,0,0,69,69,122,1,,response7disk_3,TRUE,0,0,"[198,117,252,58,255,74,115,318,147,143,60,18,70,198,54,178,55,91,322,297]",2.8323,rectangle
,,,,,,,,,,,,,FF,,,,,,,,1.568,,,,,,,,,,,,,,,,,,,,,,61003a235712401f910e230b,61036d7ee7004541069fe290,2021-07-29_23h12.42.770,Simcolourproject_2stim_asymm_v5,2020.2.10,MacIntel,60,61025ae37ef11b136ea224fe,,,,,,,,,3009,-35.6875,-81.1328125,1,0,0,response5disk,,3,-9.8671875,-15.1796875,1,0,0,rectangle,-9.8671875,-15.1796875,1,0,0,-9.8671875,-15.1796875,1,0,0,0,70,70,11,1,,,,,,,,
,,,,,,,,,,,,,FF,,,,,,,,3.8995,,,,,,,,,,,,,,,,,,,,,,61003a235712401f910e230b,61036d7ee7004541069fe290,2021-07-29_23h12.42.770,Simcolourproject_2stim_asymm_v5,2020.2.10,MacIntel,60,61025ae37ef11b136ea224fe,,,,,,,,,3838,-81.703125,-39.39453125,1,0,0,response5disk,,2,3.94140625,7.24609375,1,0,0,rectangle,3.94140625,7.24609375,1,0,0,3.94140625,7.24609375,1,0,0,0,71,71,61,1,,,,,,,,
,,,,,,,,,,,,,FF,,,,,,,,1.784,,,,,,,,,,,,,,,,,,,,,,61003a235712401f910e230b,61036d7ee7004541069fe290,2021-07-29_23h12.42.770,Simcolourproject_2stim_asymm_v5,2020.2.10,MacIntel,60,61025ae37ef11b136ea224fe,,,,,,,,,14,31.3984375,-96.3828125,1,0,0,response3disk,,4,21.578125,-12.55078125,1,0,0,rectangle,21.578125,-12.55078125,1,0,0,21.578125,-12.55078125,1,0,0,0,72,72,4,1,,,,,,,,
,,,,,,,,,,,,,FF,,,,,,,,1.2655,,,,,,,,,,,,,,,,,,,,,,61003a235712401f910e230b,61036d7ee7004541069fe290,2021-07-29_23h12.42.770,Simcolourproject_2stim_asymm_v5,2020.2.10,MacIntel,60,61025ae37ef11b136ea224fe,,,,,,,,,3796,53.3671875,78.64453125,1,0,0,response1disk,,7,21.17578125,10.40625,1,0,0,rectangle,-104.7851563,-48.5859375,1,0,0,8.578125,5.4375,1,0,0,0,73,73,24,1,,response5disk_3,TRUE,2,2,"[198,117,252,58,255,74,115,318,147,143,60,18,70,198,54,178,55,91,322,297]",2.2501,rectangle
,,,,,,,,,,,,,FF,,,,,,,,0.9663,,,,,,,,,,,,,,,,,,,,,,61003a235712401f910e230b,61036d7ee7004541069fe290,2021-07-29_23h12.42.770,Simcolourproject_2stim_asymm_v5,2020.2.10,MacIntel,60,61025ae37ef11b136ea224fe,,,,,,,,,3467,47.8828125,108.4023438,1,0,0,response1disk,,7,12.45703125,-13.4296875,1,0,0,rectangle,12.45703125,-13.4296875,1,0,0,12.45703125,-13.4296875,1,0,0,0,74,74,27,1,,,,,,,,
,,,,,,,,,,,,,FF,,,,,,,,1.2531,,,,,,,,,,,,,,,,,,,,,,61003a235712401f910e230b,61036d7ee7004541069fe290,2021-07-29_23h12.42.770,Simcolourproject_2stim_asymm_v5,2020.2.10,MacIntel,60,61025ae37ef11b136ea224fe,,,,,,,,,1831,53.5625,-86.36328125,1,0,0,response3disk,,4,17.1796875,-11.3515625,1,0,0,rectangle,17.1796875,-11.3515625,1,0,0,17.1796875,-11.3515625,1,0,0,0,75,75,125,1,,,,,,,,
,,,,,,,,,,,,,FF,,,,,,,,1.1173,,,,,,,,,,,,,,,,,,,,,,61003a235712401f910e230b,61036d7ee7004541069fe290,2021-07-29_23h12.42.770,Simcolourproject_2stim_asymm_v5,2020.2.10,MacIntel,60,61025ae37ef11b136ea224fe,,,,,,,,,1828,-36.81640625,-90.75390625,1,0,0,response5disk,,3,-11.44140625,-12.80078125,1,0,0,rectangle,-11.44140625,-12.80078125,1,0,0,-11.44140625,-12.80078125,1,0,0,0,76,76,130,1,,,,,,,,
,,,,,,,,,,,,,FF,,,,,,,,1.0504,,,,,,,,,,,,,,,,,,,,,,61003a235712401f910e230b,61036d7ee7004541069fe290,2021-07-29_23h12.42.770,Simcolourproject_2stim_asymm_v5,2020.2.10,MacIntel,60,61025ae37ef11b136ea224fe,,,,,,,,,1479,31.32421875,-81.06640625,1,0,0,response3disk,,4,1.08984375,-12.46484375,1,0,0,rectangle,1.08984375,-12.46484375,1,0,0,1.08984375,-12.46484375,1,0,0,0,77,77,29,1,,,,,,,,
,,,,,,,,,,,,,FF,,,,,,,,1.25,,,,,,,,,,,,,,,,,,,,,,61003a235712401f910e230b,61036d7ee7004541069fe290,2021-07-29_23h12.42.770,Simcolourproject_2stim_asymm_v5,2020.2.10,MacIntel,60,61025ae37ef11b136ea224fe,,,,,,,,,3607,42.1796875,81.421875,1,0,0,response1disk,,7,15.58203125,-11.03125,1,0,0,rectangle,15.58203125,-11.03125,1,0,0,15.58203125,-11.03125,1,0,0,0,78,78,82,1,,,,,,,,
,,,,,,,,,,,,,FF,,,,,,,,0.7011,,,,,,,,,,,,,,,,,,,,,,61003a235712401f910e230b,61036d7ee7004541069fe290,2021-07-29_23h12.42.770,Simcolourproject_2stim_asymm_v5,2020.2.10,MacIntel,60,61025ae37ef11b136ea224fe,,,,,,,,,1265,29.16015625,104.3046875,1,0,0,response1disk,,7,-0.63671875,4.8984375,1,0,0,rectangle,-0.63671875,4.8984375,1,0,0,-0.63671875,4.8984375,1,0,0,0,79,79,5,1,,,,,,,,
,,,,,,,,,,,,,FF,,,,,,,,1.3669,,,,,,,,,,,,,,,,,,,,,,61003a235712401f910e230b,61036d7ee7004541069fe290,2021-07-29_23h12.42.770,Simcolourproject_2stim_asymm_v5,2020.2.10,MacIntel,60,61025ae37ef11b136ea224fe,,,,,,,,,4223,-115.640625,50.87109375,1,0,0,response7disk,,1,3.17578125,-17.9921875,1,0,0,rectangle,3.17578125,-17.9921875,1,0,0,3.17578125,-17.9921875,1,0,0,0,80,80,80,1,,,,,,,,
,,,,,,,,,,,,,FF,,,,,,,,0.8847,,,,,,,,,,,,,,,,,,,,,,61003a235712401f910e230b,61036d7ee7004541069fe290,2021-07-29_23h12.42.770,Simcolourproject_2stim_asymm_v5,2020.2.10,MacIntel,60,61025ae37ef11b136ea224fe,,,,,,,,,996,-52.640625,-105.4414063,1,0,0,response5disk,,3,-1.22265625,-12.77734375,1,0,0,rectangle,-1.22265625,-12.77734375,1,0,0,-1.22265625,-12.77734375,1,0,0,0,81,81,135,1,,,,,,,,
,,,,,,,,,,,,,FF,,,,,,,,0.8666,,,,,,,,,,,,,,,,,,,,,,61003a235712401f910e230b,61036d7ee7004541069fe290,2021-07-29_23h12.42.770,Simcolourproject_2stim_asymm_v5,2020.2.10,MacIntel,60,61025ae37ef11b136ea224fe,,,,,,,,,527,-30.01171875,-92.35546875,1,0,0,response5disk,,3,-7.10546875,-13.296875,1,0,0,rectangle,-7.10546875,-13.296875,1,0,0,-7.10546875,-13.296875,1,0,0,0,82,82,26,1,,,,,,,,
,,,,,,,,,,,,,FF,,,,,,,,1.1175,,,,,,,,,,,,,,,,,,,,,,61003a235712401f910e230b,61036d7ee7004541069fe290,2021-07-29_23h12.42.770,Simcolourproject_2stim_asymm_v5,2020.2.10,MacIntel,60,61025ae37ef11b136ea224fe,,,,,,,,,44,70.16015625,40.421875,1,0,0,response1disk,,6,14.1171875,-7.65234375,1,0,0,rectangle,14.1171875,-7.65234375,1,0,0,14.1171875,-7.65234375,1,0,0,0,83,83,94,1,,,,,,,,
,,,,,,,,,,,,,FF,,,,,,,,1.117,,,,,,,,,,,,,,,,,,,,,,61003a235712401f910e230b,61036d7ee7004541069fe290,2021-07-29_23h12.42.770,Simcolourproject_2stim_asymm_v5,2020.2.10,MacIntel,60,61025ae37ef11b136ea224fe,,,,,,,,,1235,63.98046875,-47.6484375,1,0,0,response3disk,,5,8.53125,14.68359375,1,0,0,rectangle,8.53125,14.68359375,1,0,0,8.53125,14.68359375,1,0,0,0,84,84,83,1,,,,,,,,
,,,,,,,,,,,,,FF,,,,,,,,0.817,,,,,,,,,,,,,,,,,,,,,,61003a235712401f910e230b,61036d7ee7004541069fe290,2021-07-29_23h12.42.770,Simcolourproject_2stim_asymm_v5,2020.2.10,MacIntel,60,61025ae37ef11b136ea224fe,,,,,,,,,1928,29.53125,105.1132813,1,0,0,response1disk,,7,-0.05078125,4.66015625,1,0,0,rectangle,-0.05078125,4.66015625,1,0,0,-0.05078125,4.66015625,1,0,0,0,85,85,141,1,,,,,,,,
,,,,,,,,,,,,,FF,,,,,,,,0.9648,,,,,,,,,,,,,,,,,,,,,,61003a235712401f910e230b,61036d7ee7004541069fe290,2021-07-29_23h12.42.770,Simcolourproject_2stim_asymm_v5,2020.2.10,MacIntel,60,61025ae37ef11b136ea224fe,,,,,,,,,3566,36.62890625,73.921875,1,0,0,response1disk,,7,10.09375,4.9921875,1,0,0,rectangle,10.09375,4.9921875,1,0,0,10.09375,4.9921875,1,0,0,0,86,86,37,1,,,,,,,,
,,,,,,,,,,,,,FF,,,,,,,,0.6824,,,,,,,,,,,,,,,,,,,,,,61003a235712401f910e230b,61036d7ee7004541069fe290,2021-07-29_23h12.42.770,Simcolourproject_2stim_asymm_v5,2020.2.10,MacIntel,60,61025ae37ef11b136ea224fe,,,,,,,,,1185,56.0234375,60.37890625,1,0,0,response1disk,,7,13.76953125,-12.55078125,1,0,0,rectangle,13.76953125,-12.55078125,1,0,0,13.76953125,-12.55078125,1,0,0,0,87,87,106,1,,,,,,,,
,,,,,,,,,,,,,FF,,,,,,,,0.7492,,,,,,,,,,,,,,,,,,,,,,61003a235712401f910e230b,61036d7ee7004541069fe290,2021-07-29_23h12.42.770,Simcolourproject_2stim_asymm_v5,2020.2.10,MacIntel,60,61025ae37ef11b136ea224fe,,,,,,,,,3484,44.83203125,89.171875,1,0,0,response1disk,,7,1.48828125,-1.17578125,1,0,0,rectangle,1.48828125,-1.17578125,1,0,0,1.48828125,-1.17578125,1,0,0,0,88,88,157,1,,,,,,,,
,,,,,,,,,,,,,FF,,,,,,,,1.1672,,,,,,,,,,,,,,,,,,,,,,61003a235712401f910e230b,61036d7ee7004541069fe290,2021-07-29_23h12.42.770,Simcolourproject_2stim_asymm_v5,2020.2.10,MacIntel,60,61025ae37ef11b136ea224fe,,,,,,,,,1935,102.4257813,27.78515625,1,0,0,response1disk,,6,11.359375,-12.375,1,0,0,rectangle,11.359375,-12.375,1,0,0,11.359375,-12.375,1,0,0,0,89,89,51,1,,,,,,,,
,,,,,,,,,,,,,FF,,,,,,,,1.4501,,,,,,,,,,,,,,,,,,,,,,61003a235712401f910e230b,61036d7ee7004541069fe290,2021-07-29_23h12.42.770,Simcolourproject_2stim_asymm_v5,2020.2.10,MacIntel,60,61025ae37ef11b136ea224fe,,,,,,,,,3211,46.80859375,-77.640625,1,0,0,response3disk,,4,27.703125,-14.4140625,1,0,0,rectangle,79.69140625,-37.07421875,1,0,0,8,13.46875,1,0,0,0,90,90,95,1,,response3disk_3,TRUE,5,5,"[198,117,252,58,255,74,115,318,147,143,60,18,70,198,54,178,55,91,322,297]",1.8003,rectangle
,,,,,,,,,,,,,FF,,,,,,,,1.616,,,,,,,,,,,,,,,,,,,,,,61003a235712401f910e230b,61036d7ee7004541069fe290,2021-07-29_23h12.42.770,Simcolourproject_2stim_asymm_v5,2020.2.10,MacIntel,60,61025ae37ef11b136ea224fe,,,,,,,,,3089,-88.2421875,-30.38671875,1,0,0,response5disk,,2,7.078125,6.703125,1,0,0,rectangle,7.078125,6.703125,1,0,0,7.078125,6.703125,1,0,0,0,91,91,118,1,,,,,,,,
,,,,,,,,,,,,,FF,,,,,,,,1.2362,,,,,,,,,,,,,,,,,,,,,,61003a235712401f910e230b,61036d7ee7004541069fe290,2021-07-29_23h12.42.770,Simcolourproject_2stim_asymm_v5,2020.2.10,MacIntel,60,61025ae37ef11b136ea224fe,,,,,,,,,3125,90.9453125,-32.86328125,1,0,0,response3disk,,5,9.79296875,4.0390625,1,0,0,rectangle,9.79296875,4.0390625,1,0,0,9.79296875,4.0390625,1,0,0,0,92,92,19,1,,,,,,,,
,,,,,,,,,,,,,FF,,,,,,,,1.6843,,,,,,,,,,,,,,,,,,,,,,61003a235712401f910e230b,61036d7ee7004541069fe290,2021-07-29_23h12.42.770,Simcolourproject_2stim_asymm_v5,2020.2.10,MacIntel,60,61025ae37ef11b136ea224fe,,,,,,,,,3814,-27.359375,-91.68359375,1,0,0,response5disk,,3,-2.140625,-8.52734375,1,0,0,rectangle,-2.140625,-8.52734375,1,0,0,-2.140625,-8.52734375,1,0,0,0,93,93,77,1,,,,,,,,
,,,,,,,,,,,,,FF,,,,,,,,1.1342,,,,,,,,,,,,,,,,,,,,,,61003a235712401f910e230b,61036d7ee7004541069fe290,2021-07-29_23h12.42.770,Simcolourproject_2stim_asymm_v5,2020.2.10,MacIntel,60,61025ae37ef11b136ea224fe,,,,,,,,,3788,-56.5703125,-82.75,1,0,0,response5disk,,3,-23.70703125,-9.14453125,1,0,0,rectangle,-23.70703125,-9.14453125,1,0,0,-23.70703125,-9.14453125,1,0,0,0,94,94,159,1,,,,,,,,
,,,,,,,,,,,,,FF,,,,,,,,1.3681,,,,,,,,,,,,,,,,,,,,,,61003a235712401f910e230b,61036d7ee7004541069fe290,2021-07-29_23h12.42.770,Simcolourproject_2stim_asymm_v5,2020.2.10,MacIntel,60,61025ae37ef11b136ea224fe,,,,,,,,,409,48.80859375,102.9609375,1,0,0,response1disk,,7,-6.37890625,-17.59375,1,0,0,rectangle,-6.37890625,-17.59375,1,0,0,-6.37890625,-17.59375,1,0,0,0,95,95,21,1,,,,,,,,
,,,,,,,,,,,,,FF,,,,,,,,2.6324,,,,,,,,,,,,,,,,,,,,,,61003a235712401f910e230b,61036d7ee7004541069fe290,2021-07-29_23h12.42.770,Simcolourproject_2stim_asymm_v5,2020.2.10,MacIntel,60,61025ae37ef11b136ea224fe,,,,,,,,,4311,65.84765625,74.3359375,1,0,0,response1disk,,7,-0.5625,-12.3984375,1,0,0,rectangle,-0.5625,-12.3984375,1,0,0,-0.5625,-12.3984375,1,0,0,0,96,96,0,1,,,,,,,,
,,,,,,,,,,,,,FF,,,,,,,,46.2382,,,,,,,,,,,,,,,,,,,,,,61003a235712401f910e230b,61036d7ee7004541069fe290,2021-07-29_23h12.42.770,Simcolourproject_2stim_asymm_v5,2020.2.10,MacIntel,60,61025ae37ef11b136ea224fe,,,,,,,,,2800,67.6484375,-103.0546875,1,0,0,response3disk,,4,15.02734375,6.08984375,1,0,0,rectangle,15.02734375,6.08984375,1,0,0,15.02734375,6.08984375,1,0,0,0,97,97,88,1,,,,,,,,
,,,,,,,,,,,,,FF,,,,,,,,0.9659,,,,,,,,,,,,,,,,,,,,,,61003a235712401f910e230b,61036d7ee7004541069fe290,2021-07-29_23h12.42.770,Simcolourproject_2stim_asymm_v5,2020.2.10,MacIntel,60,61025ae37ef11b136ea224fe,,,,,,,,,637,-84.58203125,-36.82421875,1,0,0,response5disk,,2,-0.2421875,-0.30859375,1,0,0,rectangle,-0.2421875,-0.30859375,1,0,0,-0.2421875,-0.30859375,1,0,0,0,98,98,46,1,,,,,,,,
,,,,,,,,,,,,,FF,,,,,,,,1.949,,,,,,,,,,,,,,,,,,,,,,61003a235712401f910e230b,61036d7ee7004541069fe290,2021-07-29_23h12.42.770,Simcolourproject_2stim_asymm_v5,2020.2.10,MacIntel,60,61025ae37ef11b136ea224fe,,,,,,,,,583,-76.87109375,-58.9140625,1,0,0,response5disk,,2,-8.8203125,-7.96875,1,0,0,rectangle,-8.8203125,-7.96875,1,0,0,-8.8203125,-7.96875,1,0,0,0,99,99,96,1,,,,,,,,
,,,,,,,,,,,,,FF,,,,,,,,1.3167,,,,,,,,,,,,,,,,,,,,,,61003a235712401f910e230b,61036d7ee7004541069fe290,2021-07-29_23h12.42.770,Simcolourproject_2stim_asymm_v5,2020.2.10,MacIntel,60,61025ae37ef11b136ea224fe,,,,,,,,,209,38.00390625,90.93359375,1,0,0,response1disk,,7,-18.375,-14.7109375,1,0,0,rectangle,-18.375,-14.7109375,1,0,0,-18.375,-14.7109375,1,0,0,0,100,100,101,1,,,,,,,,
,,,,,,,,,,,,,FF,,,,,,,,0.8007,,,,,,,,,,,,,,,,,,,,,,61003a235712401f910e230b,61036d7ee7004541069fe290,2021-07-29_23h12.42.770,Simcolourproject_2stim_asymm_v5,2020.2.10,MacIntel,60,61025ae37ef11b136ea224fe,,,,,,,,,1711,119.125,42.44921875,1,0,0,response1disk,,6,14.56640625,2.46875,1,0,0,rectangle,14.56640625,2.46875,1,0,0,14.56640625,2.46875,1,0,0,0,101,101,69,1,,,,,,,,
,,,,,,,,,,,,,FF,,,,,,,,1.1836,,,,,,,,,,,,,,,,,,,,,,61003a235712401f910e230b,61036d7ee7004541069fe290,2021-07-29_23h12.42.770,Simcolourproject_2stim_asymm_v5,2020.2.10,MacIntel,60,61025ae37ef11b136ea224fe,,,,,,,,,2783,36.99609375,-99.60546875,1,0,0,response3disk,,4,7.109375,-4.734375,1,0,0,rectangle,7.109375,-4.734375,1,0,0,7.109375,-4.734375,1,0,0,0,102,102,85,1,,,,,,,,
,,,,,,,,,,,,,FF,,,,,,,,1.3164,,,,,,,,,,,,,,,,,,,,,,61003a235712401f910e230b,61036d7ee7004541069fe290,2021-07-29_23h12.42.770,Simcolourproject_2stim_asymm_v5,2020.2.10,MacIntel,60,61025ae37ef11b136ea224fe,,,,,,,,,3505,33.59765625,-81.515625,1,0,0,response3disk,,4,5.875,-6.13671875,1,0,0,rectangle,5.875,-6.13671875,1,0,0,5.875,-6.13671875,1,0,0,0,103,103,52,1,,,,,,,,
,,,,,,,,,,,,,FF,,,,,,,,1.0152,,,,,,,,,,,,,,,,,,,,,,61003a235712401f910e230b,61036d7ee7004541069fe290,2021-07-29_23h12.42.770,Simcolourproject_2stim_asymm_v5,2020.2.10,MacIntel,60,61025ae37ef11b136ea224fe,,,,,,,,,4016,23.28515625,79.82421875,1,0,0,response1disk,,7,11.0390625,1.0234375,1,0,0,rectangle,11.0390625,1.0234375,1,0,0,11.0390625,1.0234375,1,0,0,0,104,104,154,1,,,,,,,,
,,,,,,,,,,,,,FF,,,,,,,,1.3676,,,,,,,,,,,,,,,,,,,,,,61003a235712401f910e230b,61036d7ee7004541069fe290,2021-07-29_23h12.42.770,Simcolourproject_2stim_asymm_v5,2020.2.10,MacIntel,60,61025ae37ef11b136ea224fe,,,,,,,,,1732,22.98828125,99.4140625,1,0,0,response1disk,,7,20.55078125,-1.37890625,1,0,0,rectangle,20.55078125,-1.37890625,1,0,0,20.55078125,-1.37890625,1,0,0,0,105,105,148,1,,,,,,,,
,,,,,,,,,,,,,FF,,,,,,,,0.7825,,,,,,,,,,,,,,,,,,,,,,61003a235712401f910e230b,61036d7ee7004541069fe290,2021-07-29_23h12.42.770,Simcolourproject_2stim_asymm_v5,2020.2.10,MacIntel,60,61025ae37ef11b136ea224fe,,,,,,,,,2124,35.37109375,68.359375,1,0,0,response1disk,,7,-6.69921875,-12.7890625,1,0,0,rectangle,-6.69921875,-12.7890625,1,0,0,-6.69921875,-12.7890625,1,0,0,0,106,106,63,1,,,,,,,,
,,,,,,,,,,,,,FF,,,,,,,,0.8484,,,,,,,,,,,,,,,,,,,,,,61003a235712401f910e230b,61036d7ee7004541069fe290,2021-07-29_23h12.42.770,Simcolourproject_2stim_asymm_v5,2020.2.10,MacIntel,60,61025ae37ef11b136ea224fe,,,,,,,,,335,20.67578125,88.3203125,1,0,0,response1disk,,7,15.40234375,-10.03515625,1,0,0,rectangle,15.40234375,-10.03515625,1,0,0,15.40234375,-10.03515625,1,0,0,0,107,107,153,1,,,,,,,,
,,,,,,,,,,,,,FF,,,,,,,,1.6153,,,,,,,,,,,,,,,,,,,,,,61003a235712401f910e230b,61036d7ee7004541069fe290,2021-07-29_23h12.42.770,Simcolourproject_2stim_asymm_v5,2020.2.10,MacIntel,60,61025ae37ef11b136ea224fe,,,,,,,,,1429,-30.3125,-105.5429688,1,0,0,response5disk,,3,8.14453125,-8.0859375,1,0,0,rectangle,8.14453125,-8.0859375,1,0,0,8.14453125,-8.0859375,1,0,0,0,108,108,57,1,,,,,,,,
,,,,,,,,,,,,,FF,,,,,,,,0.8994,,,,,,,,,,,,,,,,,,,,,,61003a235712401f910e230b,61036d7ee7004541069fe290,2021-07-29_23h12.42.770,Simcolourproject_2stim_asymm_v5,2020.2.10,MacIntel,60,61025ae37ef11b136ea224fe,,,,,,,,,3396,-40.70703125,-88.6484375,1,0,0,response5disk,,3,25.7734375,8.52734375,1,0,0,rectangle,25.7734375,8.52734375,1,0,0,25.7734375,8.52734375,1,0,0,0,109,109,99,1,,,,,,,,
,,,,,,,,,,,,,FF,,,,,,,,1.4819,,,,,,,,,,,,,,,,,,,,,,61003a235712401f910e230b,61036d7ee7004541069fe290,2021-07-29_23h12.42.770,Simcolourproject_2stim_asymm_v5,2020.2.10,MacIntel,60,61025ae37ef11b136ea224fe,,,,,,,,,407,58.56640625,66.51171875,1,0,0,response1disk,,7,8.18359375,-10.3984375,1,0,0,rectangle,8.18359375,-10.3984375,1,0,0,8.18359375,-10.3984375,1,0,0,0,110,110,13,1,,,,,,,,
,,,,,,,,,,,,,FF,,,,,,,,0.9172,,,,,,,,,,,,,,,,,,,,,,61003a235712401f910e230b,61036d7ee7004541069fe290,2021-07-29_23h12.42.770,Simcolourproject_2stim_asymm_v5,2020.2.10,MacIntel,60,61025ae37ef11b136ea224fe,,,,,,,,,1801,125.7773438,50.875,1,0,0,response1disk,,6,-2.1171875,13.7265625,1,0,0,rectangle,-2.1171875,13.7265625,1,0,0,-2.1171875,13.7265625,1,0,0,0,111,111,143,1,,,,,,,,
,,,,,,,,,,,,,FF,,,,,,,,3.9496,,,,,,,,,,,,,,,,,,,,,,61003a235712401f910e230b,61036d7ee7004541069fe290,2021-07-29_23h12.42.770,Simcolourproject_2stim_asymm_v5,2020.2.10,MacIntel,60,61025ae37ef11b136ea224fe,,,,,,,,,10,79.1953125,44.55078125,1,0,0,response1disk,,6,16.31640625,4.36328125,1,0,0,rectangle,16.31640625,4.36328125,1,0,0,16.31640625,4.36328125,1,0,0,0,112,112,49,1,,,,,,,,
,,,,,,,,,,,,,FF,,,,,,,,0.884,,,,,,,,,,,,,,,,,,,,,,61003a235712401f910e230b,61036d7ee7004541069fe290,2021-07-29_23h12.42.770,Simcolourproject_2stim_asymm_v5,2020.2.10,MacIntel,60,61025ae37ef11b136ea224fe,,,,,,,,,2771,92.22265625,26.3125,1,0,0,response1disk,,6,17.3671875,0.08203125,1,0,0,rectangle,17.3671875,0.08203125,1,0,0,17.3671875,0.08203125,1,0,0,0,113,113,64,1,,,,,,,,
,,,,,,,,,,,,,FF,,,,,,,,0.9995,,,,,,,,,,,,,,,,,,,,,,61003a235712401f910e230b,61036d7ee7004541069fe290,2021-07-29_23h12.42.770,Simcolourproject_2stim_asymm_v5,2020.2.10,MacIntel,60,61025ae37ef11b136ea224fe,,,,,,,,,2548,-46.98046875,-98.01171875,1,0,0,response5disk,,3,6.8515625,3.51953125,1,0,0,rectangle,-104.3203125,60.5625,1,0,0,-2.30078125,-12.51171875,1,0,0,0,114,114,155,1,,response7disk_3,TRUE,1,1,"[198,117,252,58,255,74,115,318,147,143,60,18,70,198,54,178,55,91,322,297]",1.8319,rectangle
,,,,,,,,,,,,,FF,,,,,,,,1.8831,,,,,,,,,,,,,,,,,,,,,,61003a235712401f910e230b,61036d7ee7004541069fe290,2021-07-29_23h12.42.770,Simcolourproject_2stim_asymm_v5,2020.2.10,MacIntel,60,61025ae37ef11b136ea224fe,,,,,,,,,129,49.35546875,85.42578125,1,0,0,response1disk,,7,9.421875,1.6953125,1,0,0,rectangle,9.421875,1.6953125,1,0,0,9.421875,1.6953125,1,0,0,0,115,115,45,1,,,,,,,,
,,,,,,,,,,,,,FF,,,,,,,,1.5675,,,,,,,,,,,,,,,,,,,,,,61003a235712401f910e230b,61036d7ee7004541069fe290,2021-07-29_23h12.42.770,Simcolourproject_2stim_asymm_v5,2020.2.10,MacIntel,60,61025ae37ef11b136ea224fe,,,,,,,,,3045,-37.4140625,81.0546875,1,0,0,response7disk,,0,3.21484375,-5.28125,1,0,0,rectangle,100.0390625,-31.76171875,1,0,0,4.234375,10.1875,1,0,0,0,116,116,10,1,,response3disk_3,TRUE,5,5,"[198,117,252,58,255,74,115,318,147,143,60,18,70,198,54,178,55,91,322,297]",1.5676,rectangle
,,,,,,,,,,,,,FF,,,,,,,,0.9166,,,,,,,,,,,,,,,,,,,,,,61003a235712401f910e230b,61036d7ee7004541069fe290,2021-07-29_23h12.42.770,Simcolourproject_2stim_asymm_v5,2020.2.10,MacIntel,60,61025ae37ef11b136ea224fe,,,,,,,,,1247,64,40.47265625,1,0,0,response1disk,,6,4.9296875,-6.76171875,1,0,0,rectangle,4.9296875,-6.76171875,1,0,0,4.9296875,-6.76171875,1,0,0,0,117,117,9,1,,,,,,,,
,,,,,,,,,,,,,FF,,,,,,,,0.7329,,,,,,,,,,,,,,,,,,,,,,61003a235712401f910e230b,61036d7ee7004541069fe290,2021-07-29_23h12.42.770,Simcolourproject_2stim_asymm_v5,2020.2.10,MacIntel,60,61025ae37ef11b136ea224fe,,,,,,,,,2389,36.921875,65.46484375,1,0,0,response1disk,,7,17.0703125,3.41015625,1,0,0,rectangle,17.0703125,3.41015625,1,0,0,17.0703125,3.41015625,1,0,0,0,118,118,8,1,,,,,,,,
,,,,,,,,,,,,,FF,,,,,,,,0.8333,,,,,,,,,,,,,,,,,,,,,,61003a235712401f910e230b,61036d7ee7004541069fe290,2021-07-29_23h12.42.770,Simcolourproject_2stim_asymm_v5,2020.2.10,MacIntel,60,61025ae37ef11b136ea224fe,,,,,,,,,1594,95.8828125,30.03125,1,0,0,response1disk,,6,12.0859375,5.95703125,1,0,0,rectangle,12.0859375,5.95703125,1,0,0,12.0859375,5.95703125,1,0,0,0,119,119,121,1,,,,,,,,
,,,,,,,,,,,,,FF,,,,,,,,1.3169,,,,,,,,,,,,,,,,,,,,,,61003a235712401f910e230b,61036d7ee7004541069fe290,2021-07-29_23h12.42.770,Simcolourproject_2stim_asymm_v5,2020.2.10,MacIntel,60,61025ae37ef11b136ea224fe,,,,,,,,,785,54.57421875,-96.06640625,1,0,0,response3disk,,4,31.453125,-13.234375,1,0,0,rectangle,31.453125,-13.234375,1,0,0,31.453125,-13.234375,1,0,0,0,120,120,123,1,,,,,,,,
,,,,,,,,,,,,,FF,,,,,,,,1.0837,,,,,,,,,,,,,,,,,,,,,,61003a235712401f910e230b,61036d7ee7004541069fe290,2021-07-29_23h12.42.770,Simcolourproject_2stim_asymm_v5,2020.2.10,MacIntel,60,61025ae37ef11b136ea224fe,,,,,,,,,759,25.01171875,98.578125,1,0,0,response1disk,,7,9.6171875,-5.1015625,1,0,0,rectangle,9.6171875,-5.1015625,1,0,0,9.6171875,-5.1015625,1,0,0,0,121,121,105,1,,,,,,,,
,,,,,,,,,,,,,FF,,,,,,,,0.9672,,,,,,,,,,,,,,,,,,,,,,61003a235712401f910e230b,61036d7ee7004541069fe290,2021-07-29_23h12.42.770,Simcolourproject_2stim_asymm_v5,2020.2.10,MacIntel,60,61025ae37ef11b136ea224fe,,,,,,,,,663,27.08984375,86.6171875,1,0,0,response1disk,,7,2.40234375,1.04296875,1,0,0,rectangle,2.40234375,1.04296875,1,0,0,2.40234375,1.04296875,1,0,0,0,122,122,76,1,,,,,,,,
,,,,,,,,,,,,,FF,,,,,,,,0.8181,,,,,,,,,,,,,,,,,,,,,,61003a235712401f910e230b,61036d7ee7004541069fe290,2021-07-29_23h12.42.770,Simcolourproject_2stim_asymm_v5,2020.2.10,MacIntel,60,61025ae37ef11b136ea224fe,,,,,,,,,2871,50.68359375,73.33984375,1,0,0,response1disk,,7,8.21484375,-7.53515625,1,0,0,rectangle,8.21484375,-7.53515625,1,0,0,8.21484375,-7.53515625,1,0,0,0,123,123,50,1,,,,,,,,
,,,,,,,,,,,,,FF,,,,,,,,0.7003,,,,,,,,,,,,,,,,,,,,,,61003a235712401f910e230b,61036d7ee7004541069fe290,2021-07-29_23h12.42.770,Simcolourproject_2stim_asymm_v5,2020.2.10,MacIntel,60,61025ae37ef11b136ea224fe,,,,,,,,,2202,32.78515625,74.29296875,1,0,0,response1disk,,7,7.96875,10.5625,1,0,0,rectangle,7.96875,10.5625,1,0,0,7.96875,10.5625,1,0,0,0,124,124,73,1,,,,,,,,
,,,,,,,,,,,,,FF,,,,,,,,0.7673,,,,,,,,,,,,,,,,,,,,,,61003a235712401f910e230b,61036d7ee7004541069fe290,2021-07-29_23h12.42.770,Simcolourproject_2stim_asymm_v5,2020.2.10,MacIntel,60,61025ae37ef11b136ea224fe,,,,,,,,,2262,45.8125,85.609375,1,0,0,response1disk,,7,20.171875,6.50390625,1,0,0,rectangle,20.171875,6.50390625,1,0,0,20.171875,6.50390625,1,0,0,0,125,125,86,1,,,,,,,,
,,,,,,,,,,,,,FF,,,,,,,,1.0671,,,,,,,,,,,,,,,,,,,,,,61003a235712401f910e230b,61036d7ee7004541069fe290,2021-07-29_23h12.42.770,Simcolourproject_2stim_asymm_v5,2020.2.10,MacIntel,60,61025ae37ef11b136ea224fe,,,,,,,,,2228,-26.765625,-95.92578125,1,0,0,response5disk,,3,6.79296875,6.51171875,1,0,0,rectangle,6.79296875,6.51171875,1,0,0,6.79296875,6.51171875,1,0,0,0,126,126,87,1,,,,,,,,
,,,,,,,,,,,,,FF,,,,,,,,1.5517,,,,,,,,,,,,,,,,,,,,,,61003a235712401f910e230b,61036d7ee7004541069fe290,2021-07-29_23h12.42.770,Simcolourproject_2stim_asymm_v5,2020.2.10,MacIntel,60,61025ae37ef11b136ea224fe,,,,,,,,,2477,90.5078125,-48.83984375,1,0,0,response3disk,,5,9.859375,-9.30859375,1,0,0,rectangle,9.859375,-9.30859375,1,0,0,9.859375,-9.30859375,1,0,0,0,127,127,100,1,,,,,,,,
,,,,,,,,,,,,,FF,,,,,,,,0.8333,,,,,,,,,,,,,,,,,,,,,,61003a235712401f910e230b,61036d7ee7004541069fe290,2021-07-29_23h12.42.770,Simcolourproject_2stim_asymm_v5,2020.2.10,MacIntel,60,61025ae37ef11b136ea224fe,,,,,,,,,2366,105.7929688,-40.1015625,1,0,0,response3disk,,5,21.8359375,1.70703125,1,0,0,rectangle,21.8359375,1.70703125,1,0,0,21.8359375,1.70703125,1,0,0,0,128,128,127,1,,,,,,,,
,,,,,,,,,,,,,FF,,,,,,,,0.9334,,,,,,,,,,,,,,,,,,,,,,61003a235712401f910e230b,61036d7ee7004541069fe290,2021-07-29_23h12.42.770,Simcolourproject_2stim_asymm_v5,2020.2.10,MacIntel,60,61025ae37ef11b136ea224fe,,,,,,,,,3695,32.41796875,114.515625,1,0,0,response1disk,,7,-12.515625,-6.3515625,1,0,0,rectangle,-12.515625,-6.3515625,1,0,0,-12.515625,-6.3515625,1,0,0,0,129,129,7,1,,,,,,,,
,,,,,,,,,,,,,FF,,,,,,,,1.1834,,,,,,,,,,,,,,,,,,,,,,61003a235712401f910e230b,61036d7ee7004541069fe290,2021-07-29_23h12.42.770,Simcolourproject_2stim_asymm_v5,2020.2.10,MacIntel,60,61025ae37ef11b136ea224fe,,,,,,,,,2647,43.09765625,74.53515625,1,0,0,response1disk,,7,14.453125,-6.62890625,1,0,0,rectangle,14.453125,-6.62890625,1,0,0,14.453125,-6.62890625,1,0,0,0,130,130,44,1,,,,,,,,
,,,,,,,,,,,,,FF,,,,,,,,1.1665,,,,,,,,,,,,,,,,,,,,,,61003a235712401f910e230b,61036d7ee7004541069fe290,2021-07-29_23h12.42.770,Simcolourproject_2stim_asymm_v5,2020.2.10,MacIntel,60,61025ae37ef11b136ea224fe,,,,,,,,,3092,-34.1875,-68.25,1,0,0,response5disk,,3,-16.2421875,-8.59375,1,0,0,rectangle,-16.2421875,-8.59375,1,0,0,-16.2421875,-8.59375,1,0,0,0,131,131,72,1,,,,,,,,
,,,,,,,,,,,,,FF,,,,,,,,1.3338,,,,,,,,,,,,,,,,,,,,,,61003a235712401f910e230b,61036d7ee7004541069fe290,2021-07-29_23h12.42.770,Simcolourproject_2stim_asymm_v5,2020.2.10,MacIntel,60,61025ae37ef11b136ea224fe,,,,,,,,,627,101.1601563,36.359375,1,0,0,response1disk,,6,22.51171875,4.95703125,1,0,0,rectangle,22.51171875,4.95703125,1,0,0,22.51171875,4.95703125,1,0,0,0,132,132,71,1,,,,,,,,
,,,,,,,,,,,,,FF,,,,,,,,0.9996,,,,,,,,,,,,,,,,,,,,,,61003a235712401f910e230b,61036d7ee7004541069fe290,2021-07-29_23h12.42.770,Simcolourproject_2stim_asymm_v5,2020.2.10,MacIntel,60,61025ae37ef11b136ea224fe,,,,,,,,,4298,93.109375,61.484375,1,0,0,response1disk,,6,18.98046875,-3.15234375,1,0,0,rectangle,18.98046875,-3.15234375,1,0,0,18.98046875,-3.15234375,1,0,0,0,133,133,132,1,,,,,,,,
,,,,,,,,,,,,,FF,,,,,,,,1.7995,,,,,,,,,,,,,,,,,,,,,,61003a235712401f910e230b,61036d7ee7004541069fe290,2021-07-29_23h12.42.770,Simcolourproject_2stim_asymm_v5,2020.2.10,MacIntel,60,61025ae37ef11b136ea224fe,,,,,,,,,1680,44.66796875,-116.921875,1,0,0,response3disk,,4,14.90234375,10.88671875,1,0,0,rectangle,14.90234375,10.88671875,1,0,0,14.90234375,10.88671875,1,0,0,0,134,134,33,1,,,,,,,,
,,,,,,,,,,,,,FF,,,,,,,,1.0998,,,,,,,,,,,,,,,,,,,,,,61003a235712401f910e230b,61036d7ee7004541069fe290,2021-07-29_23h12.42.770,Simcolourproject_2stim_asymm_v5,2020.2.10,MacIntel,60,61025ae37ef11b136ea224fe,,,,,,,,,1276,30.08203125,-82.04296875,1,0,0,response3disk,,4,17.140625,7.734375,1,0,0,rectangle,17.140625,7.734375,1,0,0,17.140625,7.734375,1,0,0,0,135,135,58,1,,,,,,,,
,,,,,,,,,,,,,FF,,,,,,,,1.2668,,,,,,,,,,,,,,,,,,,,,,61003a235712401f910e230b,61036d7ee7004541069fe290,2021-07-29_23h12.42.770,Simcolourproject_2stim_asymm_v5,2020.2.10,MacIntel,60,61025ae37ef11b136ea224fe,,,,,,,,,3102,-42.41015625,-90.44140625,1,0,0,response5disk,,3,-4.3984375,-12.16015625,1,0,0,rectangle,-4.3984375,-12.16015625,1,0,0,-4.3984375,-12.16015625,1,0,0,0,136,136,91,1,,,,,,,,
,,,,,,,,,,,,,FF,,,,,,,,0.8663,,,,,,,,,,,,,,,,,,,,,,61003a235712401f910e230b,61036d7ee7004541069fe290,2021-07-29_23h12.42.770,Simcolourproject_2stim_asymm_v5,2020.2.10,MacIntel,60,61025ae37ef11b136ea224fe,,,,,,,,,1922,50.71484375,78.99609375,1,0,0,response1disk,,7,-0.76171875,-3.2890625,1,0,0,rectangle,-0.76171875,-3.2890625,1,0,0,-0.76171875,-3.2890625,1,0,0,0,137,137,112,1,,,,,,,,
,,,,,,,,,,,,,FF,,,,,,,,0.6516,,,,,,,,,,,,,,,,,,,,,,61003a235712401f910e230b,61036d7ee7004541069fe290,2021-07-29_23h12.42.770,Simcolourproject_2stim_asymm_v5,2020.2.10,MacIntel,60,61025ae37ef11b136ea224fe,,,,,,,,,334,20.7421875,68.89453125,1,0,0,response1disk,,7,7.4921875,10.421875,1,0,0,rectangle,7.4921875,10.421875,1,0,0,7.4921875,10.421875,1,0,0,0,138,138,55,1,,,,,,,,
,,,,,,,,,,,,,FF,,,,,,,,0.5827,,,,,,,,,,,,,,,,,,,,,,61003a235712401f910e230b,61036d7ee7004541069fe290,2021-07-29_23h12.42.770,Simcolourproject_2stim_asymm_v5,2020.2.10,MacIntel,60,61025ae37ef11b136ea224fe,,,,,,,,,2849,43.82421875,97.79296875,1,0,0,response1disk,,7,25.08984375,5.9140625,1,0,0,rectangle,25.08984375,5.9140625,1,0,0,25.08984375,5.9140625,1,0,0,0,139,139,119,1,,,,,,,,
,,,,,,,,,,,,,FF,,,,,,,,0.718,,,,,,,,,,,,,,,,,,,,,,61003a235712401f910e230b,61036d7ee7004541069fe290,2021-07-29_23h12.42.770,Simcolourproject_2stim_asymm_v5,2020.2.10,MacIntel,60,61025ae37ef11b136ea224fe,,,,,,,,,708,47.328125,61.921875,1,0,0,response1disk,,7,20.1328125,2.171875,1,0,0,rectangle,20.1328125,2.171875,1,0,0,20.1328125,2.171875,1,0,0,0,140,140,47,1,,,,,,,,
,,,,,,,,,,,,,FF,,,,,,,,1.6837,,,,,,,,,,,,,,,,,,,,,,61003a235712401f910e230b,61036d7ee7004541069fe290,2021-07-29_23h12.42.770,Simcolourproject_2stim_asymm_v5,2020.2.10,MacIntel,60,61025ae37ef11b136ea224fe,,,,,,,,,3225,50.37890625,106.3867188,1,0,0,response1disk,,7,20.71875,3.328125,1,0,0,rectangle,20.71875,3.328125,1,0,0,20.71875,3.328125,1,0,0,0,141,141,6,1,,,,,,,,
,,,,,,,,,,,,,FF,,,,,,,,1.8499,,,,,,,,,,,,,,,,,,,,,,61003a235712401f910e230b,61036d7ee7004541069fe290,2021-07-29_23h12.42.770,Simcolourproject_2stim_asymm_v5,2020.2.10,MacIntel,60,61025ae37ef11b136ea224fe,,,,,,,,,4003,-28.6640625,-71.25,1,0,0,response5disk,,3,-0.296875,-13.56640625,1,0,0,rectangle,-80.7421875,-43.66796875,1,0,0,-4.3203125,-1.1640625,1,0,0,0,142,142,25,1,,response5disk_3,TRUE,2,2,"[198,117,252,58,255,74,115,318,147,143,60,18,70,198,54,178,55,91,322,297]",2.5653,rectangle
,,,,,,,,,,,,,FF,,,,,,,,0.9166,,,,,,,,,,,,,,,,,,,,,,61003a235712401f910e230b,61036d7ee7004541069fe290,2021-07-29_23h12.42.770,Simcolourproject_2stim_asymm_v5,2020.2.10,MacIntel,60,61025ae37ef11b136ea224fe,,,,,,,,,1213,-72.0078125,-47.98046875,1,0,0,response5disk,,2,-18.2421875,-9.09765625,1,0,0,rectangle,-18.2421875,-9.09765625,1,0,0,-18.2421875,-9.09765625,1,0,0,0,143,143,93,1,,,,,,,,
,,,,,,,,,,,,,FF,,,,,,,,0.999,,,,,,,,,,,,,,,,,,,,,,61003a235712401f910e230b,61036d7ee7004541069fe290,2021-07-29_23h12.42.770,Simcolourproject_2stim_asymm_v5,2020.2.10,MacIntel,60,61025ae37ef11b136ea224fe,,,,,,,,,2255,48.3984375,103.9921875,1,0,0,response1disk,,7,-3.25390625,-5.6015625,1,0,0,rectangle,-3.25390625,-5.6015625,1,0,0,-3.25390625,-5.6015625,1,0,0,0,144,144,126,1,,,,,,,,
,,,,,,,,,,,,,FF,,,,,,,,1.3835,,,,,,,,,,,,,,,,,,,,,,61003a235712401f910e230b,61036d7ee7004541069fe290,2021-07-29_23h12.42.770,Simcolourproject_2stim_asymm_v5,2020.2.10,MacIntel,60,61025ae37ef11b136ea224fe,,,,,,,,,3797,69.52734375,-94.80859375,1,0,0,response3disk,,4,21.078125,8.75,1,0,0,rectangle,21.078125,8.75,1,0,0,21.078125,8.75,1,0,0,0,145,145,147,1,,,,,,,,
,,,,,,,,,,,,,FF,,,,,,,,0.7835,,,,,,,,,,,,,,,,,,,,,,61003a235712401f910e230b,61036d7ee7004541069fe290,2021-07-29_23h12.42.770,Simcolourproject_2stim_asymm_v5,2020.2.10,MacIntel,60,61025ae37ef11b136ea224fe,,,,,,,,,1018,43.54296875,58.1796875,1,0,0,response1disk,,7,15.16796875,9.8515625,1,0,0,rectangle,-97.296875,38.484375,1,0,0,-15,-5.43359375,1,0,0,0,146,146,124,1,,response7disk_3,TRUE,1,1,"[198,117,252,58,255,74,115,318,147,143,60,18,70,198,54,178,55,91,322,297]",2.3825,rectangle
,,,,,,,,,,,,,FF,,,,,,,,1.4006,,,,,,,,,,,,,,,,,,,,,,61003a235712401f910e230b,61036d7ee7004541069fe290,2021-07-29_23h12.42.770,Simcolourproject_2stim_asymm_v5,2020.2.10,MacIntel,60,61025ae37ef11b136ea224fe,,,,,,,,,3040,90.28125,-47.69140625,1,0,0,response3disk,,5,25.62890625,-11.8359375,1,0,0,rectangle,25.62890625,-11.8359375,1,0,0,25.62890625,-11.8359375,1,0,0,0,147,147,65,1,,,,,,,,
,,,,,,,,,,,,,FF,,,,,,,,1.1159,,,,,,,,,,,,,,,,,,,,,,61003a235712401f910e230b,61036d7ee7004541069fe290,2021-07-29_23h12.42.770,Simcolourproject_2stim_asymm_v5,2020.2.10,MacIntel,60,61025ae37ef11b136ea224fe,,,,,,,,,2929,51.1796875,66.421875,1,0,0,response1disk,,7,15.0703125,0.65625,1,0,0,rectangle,15.0703125,0.65625,1,0,0,15.0703125,0.65625,1,0,0,0,148,148,70,1,,,,,,,,
,,,,,,,,,,,,,FF,,,,,,,,0.7823,,,,,,,,,,,,,,,,,,,,,,61003a235712401f910e230b,61036d7ee7004541069fe290,2021-07-29_23h12.42.770,Simcolourproject_2stim_asymm_v5,2020.2.10,MacIntel,60,61025ae37ef11b136ea224fe,,,,,,,,,3017,46.58984375,90.90234375,1,0,0,response1disk,,7,-1.5546875,-4.8515625,1,0,0,rectangle,-1.5546875,-4.8515625,1,0,0,-1.5546875,-4.8515625,1,0,0,0,149,149,115,1,,,,,,,,
,,,,,,,,,,,,,FF,,,,,,,,6.6352,,,,,,,,,,,,,,,,,,,,,,61003a235712401f910e230b,61036d7ee7004541069fe290,2021-07-29_23h12.42.770,Simcolourproject_2stim_asymm_v5,2020.2.10,MacIntel,60,61025ae37ef11b136ea224fe,,,,,,,,,2982,54.2734375,-26.203125,1,0,0,response3disk,,5,0.5234375,2.50390625,1,0,0,rectangle,0.5234375,2.50390625,1,0,0,0.5234375,2.50390625,1,0,0,0,150,150,59,1,,,,,,,,
,,,,,,,,,,,,,FF,,,,,,,,1.0997,,,,,,,,,,,,,,,,,,,,,,61003a235712401f910e230b,61036d7ee7004541069fe290,2021-07-29_23h12.42.770,Simcolourproject_2stim_asymm_v5,2020.2.10,MacIntel,60,61025ae37ef11b136ea224fe,,,,,,,,,290,43.51953125,67.109375,1,0,0,response1disk,,7,-0.65234375,-10.9609375,1,0,0,rectangle,-0.65234375,-10.9609375,1,0,0,-0.65234375,-10.9609375,1,0,0,0,151,151,131,1,,,,,,,,
,,,,,,,,,,,,,FF,,,,,,,,0.6505,,,,,,,,,,,,,,,,,,,,,,61003a235712401f910e230b,61036d7ee7004541069fe290,2021-07-29_23h12.42.770,Simcolourproject_2stim_asymm_v5,2020.2.10,MacIntel,60,61025ae37ef11b136ea224fe,,,,,,,,,3280,32.98828125,66.6640625,1,0,0,response1disk,,7,6.2578125,8.26171875,1,0,0,rectangle,6.2578125,8.26171875,1,0,0,6.2578125,8.26171875,1,0,0,0,152,152,79,1,,,,,,,,
,,,,,,,,,,,,,FF,,,,,,,,0.6353,,,,,,,,,,,,,,,,,,,,,,61003a235712401f910e230b,61036d7ee7004541069fe290,2021-07-29_23h12.42.770,Simcolourproject_2stim_asymm_v5,2020.2.10,MacIntel,60,61025ae37ef11b136ea224fe,,,,,,,,,1879,39.00390625,63.4609375,1,0,0,response1disk,,7,8.42578125,0.40625,1,0,0,rectangle,8.42578125,0.40625,1,0,0,8.42578125,0.40625,1,0,0,0,153,153,74,1,,,,,,,,
,,,,,,,,,,,,,FF,,,,,,,,1.0847,,,,,,,,,,,,,,,,,,,,,,61003a235712401f910e230b,61036d7ee7004541069fe290,2021-07-29_23h12.42.770,Simcolourproject_2stim_asymm_v5,2020.2.10,MacIntel,60,61025ae37ef11b136ea224fe,,,,,,,,,4135,31.75390625,66.078125,1,0,0,response1disk,,7,-2.28515625,-9.72265625,1,0,0,rectangle,-2.28515625,-9.72265625,1,0,0,-2.28515625,-9.72265625,1,0,0,0,154,154,140,1,,,,,,,,
,,,,,,,,,,,,,FF,,,,,,,,1.4505,,,,,,,,,,,,,,,,,,,,,,61003a235712401f910e230b,61036d7ee7004541069fe290,2021-07-29_23h12.42.770,Simcolourproject_2stim_asymm_v5,2020.2.10,MacIntel,60,61025ae37ef11b136ea224fe,,,,,,,,,158,25.88671875,-85.69140625,1,0,0,response3disk,,4,-8.546875,2.71875,1,0,0,rectangle,-8.546875,2.71875,1,0,0,-8.546875,2.71875,1,0,0,0,155,155,151,1,,,,,,,,
,,,,,,,,,,,,,FF,,,,,,,,0.9321,,,,,,,,,,,,,,,,,,,,,,61003a235712401f910e230b,61036d7ee7004541069fe290,2021-07-29_23h12.42.770,Simcolourproject_2stim_asymm_v5,2020.2.10,MacIntel,60,61025ae37ef11b136ea224fe,,,,,,,,,2767,59.3125,-81.12890625,1,0,0,response3disk,,4,18.4375,-4.70703125,1,0,0,rectangle,18.4375,-4.70703125,1,0,0,18.4375,-4.70703125,1,0,0,0,156,156,20,1,,,,,,,,
,,,,,,,,,,,,,FF,,,,,,,,1.3488,,,,,,,,,,,,,,,,,,,,,,61003a235712401f910e230b,61036d7ee7004541069fe290,2021-07-29_23h12.42.770,Simcolourproject_2stim_asymm_v5,2020.2.10,MacIntel,60,61025ae37ef11b136ea224fe,,,,,,,,,2280,74.30078125,50.38671875,1,0,0,response1disk,,6,-4.953125,-6.38671875,1,0,0,rectangle,-4.953125,-6.38671875,1,0,0,-4.953125,-6.38671875,1,0,0,0,157,157,146,1,,,,,,,,
,,,,,,,,,,,,,FF,,,,,,,,1.035,,,,,,,,,,,,,,,,,,,,,,61003a235712401f910e230b,61036d7ee7004541069fe290,2021-07-29_23h12.42.770,Simcolourproject_2stim_asymm_v5,2020.2.10,MacIntel,60,61025ae37ef11b136ea224fe,,,,,,,,,199,69.09765625,-46.96875,1,0,0,response3disk,,5,8.6875,-10.4765625,1,0,0,rectangle,8.6875,-10.4765625,1,0,0,8.6875,-10.4765625,1,0,0,0,158,158,1,1,,,,,,,,
,,,,,,,,,,,,,FF,,,,,,,,1.0656,,,,,,,,,,,,,,,,,,,,,,61003a235712401f910e230b,61036d7ee7004541069fe290,2021-07-29_23h12.42.770,Simcolourproject_2stim_asymm_v5,2020.2.10,MacIntel,60,61025ae37ef11b136ea224fe,,,,,,,,,2894,-49.3828125,89.75,1,0,0,response7disk,,0,-9.625,12.8515625,1,0,0,rectangle,-9.625,12.8515625,1,0,0,-9.625,12.8515625,1,0,0,0,159,159,31,1,,,,,,,,
,,,,,,,,,,,,,FF,,,,,,,,2.2487,,,,,,,,,,,,,,,,,,,,,,61003a235712401f910e230b,61036d7ee7004541069fe290,2021-07-29_23h12.42.770,Simcolourproject_2stim_asymm_v5,2020.2.10,MacIntel,60,61025ae37ef11b136ea224fe,,,,,,,,,1500,48.91015625,61.6875,1,0,0,response1disk,,7,14.37109375,-4.25,1,0,0,rectangle,14.37109375,-4.25,1,0,0,14.37109375,-4.25,1,0,0,1,0,160,91,1,,,,,,,,
,,,,,,,,,,,,,FF,,,,,,,,1.2511,,,,,,,,,,,,,,,,,,,,,,61003a235712401f910e230b,61036d7ee7004541069fe290,2021-07-29_23h12.42.770,Simcolourproject_2stim_asymm_v5,2020.2.10,MacIntel,60,61025ae37ef11b136ea224fe,,,,,,,,,2558,81.98828125,-34.23046875,1,0,0,response3disk,,5,16.55078125,6.71875,1,0,0,rectangle,16.55078125,6.71875,1,0,0,16.55078125,6.71875,1,0,0,1,1,161,137,1,,,,,,,,
,,,,,,,,,,,,,FF,,,,,,,,0.8669,,,,,,,,,,,,,,,,,,,,,,61003a235712401f910e230b,61036d7ee7004541069fe290,2021-07-29_23h12.42.770,Simcolourproject_2stim_asymm_v5,2020.2.10,MacIntel,60,61025ae37ef11b136ea224fe,,,,,,,,,2847,87.3984375,-29.03125,1,0,0,response3disk,,5,10.984375,-7.52734375,1,0,0,rectangle,10.984375,-7.52734375,1,0,0,10.984375,-7.52734375,1,0,0,1,2,162,25,1,,,,,,,,
,,,,,,,,,,,,,FF,,,,,,,,1.3504,,,,,,,,,,,,,,,,,,,,,,61003a235712401f910e230b,61036d7ee7004541069fe290,2021-07-29_23h12.42.770,Simcolourproject_2stim_asymm_v5,2020.2.10,MacIntel,60,61025ae37ef11b136ea224fe,,,,,,,,,213,-26.796875,-82.21875,1,0,0,response5disk,,3,-10.28515625,-10.29296875,1,0,0,rectangle,-10.28515625,-10.29296875,1,0,0,-10.28515625,-10.29296875,1,0,0,1,3,163,146,1,,,,,,,,
,,,,,,,,,,,,,FF,,,,,,,,0.7664,,,,,,,,,,,,,,,,,,,,,,61003a235712401f910e230b,61036d7ee7004541069fe290,2021-07-29_23h12.42.770,Simcolourproject_2stim_asymm_v5,2020.2.10,MacIntel,60,61025ae37ef11b136ea224fe,,,,,,,,,2423,-32.5,-82.390625,1,0,0,response5disk,,3,-16.28515625,-4.2734375,1,0,0,rectangle,-16.28515625,-4.2734375,1,0,0,-16.28515625,-4.2734375,1,0,0,1,4,164,50,1,,,,,,,,
,,,,,,,,,,,,,FF,,,,,,,,0.8508,,,,,,,,,,,,,,,,,,,,,,61003a235712401f910e230b,61036d7ee7004541069fe290,2021-07-29_23h12.42.770,Simcolourproject_2stim_asymm_v5,2020.2.10,MacIntel,60,61025ae37ef11b136ea224fe,,,,,,,,,837,29.81640625,89.49609375,1,0,0,response1disk,,7,6.26953125,-7.16015625,1,0,0,rectangle,6.26953125,-7.16015625,1,0,0,6.26953125,-7.16015625,1,0,0,1,5,165,81,1,,,,,,,,
,,,,,,,,,,,,,FF,,,,,,,,0.9503,,,,,,,,,,,,,,,,,,,,,,61003a235712401f910e230b,61036d7ee7004541069fe290,2021-07-29_23h12.42.770,Simcolourproject_2stim_asymm_v5,2020.2.10,MacIntel,60,61025ae37ef11b136ea224fe,,,,,,,,,189,-17.7421875,-58.86328125,1,0,0,response5disk,,3,7.44921875,5.59375,1,0,0,rectangle,7.44921875,5.59375,1,0,0,7.44921875,5.59375,1,0,0,1,6,166,123,1,,,,,,,,
,,,,,,,,,,,,,FF,,,,,,,,1.4005,,,,,,,,,,,,,,,,,,,,,,61003a235712401f910e230b,61036d7ee7004541069fe290,2021-07-29_23h12.42.770,Simcolourproject_2stim_asymm_v5,2020.2.10,MacIntel,60,61025ae37ef11b136ea224fe,,,,,,,,,2433,-19.0859375,-84.7734375,1,0,0,response5disk,,3,23.109375,6.41796875,1,0,0,rectangle,23.109375,6.41796875,1,0,0,23.109375,6.41796875,1,0,0,1,7,167,152,1,,,,,,,,
,,,,,,,,,,,,,FF,,,,,,,,0.7817,,,,,,,,,,,,,,,,,,,,,,61003a235712401f910e230b,61036d7ee7004541069fe290,2021-07-29_23h12.42.770,Simcolourproject_2stim_asymm_v5,2020.2.10,MacIntel,60,61025ae37ef11b136ea224fe,,,,,,,,,2220,-47.78515625,-108.109375,1,0,0,response5disk,,3,-8.4296875,-12.76953125,1,0,0,rectangle,-8.4296875,-12.76953125,1,0,0,-8.4296875,-12.76953125,1,0,0,1,8,168,40,1,,,,,,,,
,,,,,,,,,,,,,FF,,,,,,,,0.749,,,,,,,,,,,,,,,,,,,,,,61003a235712401f910e230b,61036d7ee7004541069fe290,2021-07-29_23h12.42.770,Simcolourproject_2stim_asymm_v5,2020.2.10,MacIntel,60,61025ae37ef11b136ea224fe,,,,,,,,,4209,46.890625,109.953125,1,0,0,response1disk,,7,19.67578125,6.6015625,1,0,0,rectangle,19.67578125,6.6015625,1,0,0,19.67578125,6.6015625,1,0,0,1,9,169,43,1,,,,,,,,
,,,,,,,,,,,,,FF,,,,,,,,2.7017,,,,,,,,,,,,,,,,,,,,,,61003a235712401f910e230b,61036d7ee7004541069fe290,2021-07-29_23h12.42.770,Simcolourproject_2stim_asymm_v5,2020.2.10,MacIntel,60,61025ae37ef11b136ea224fe,,,,,,,,,1068,107.2304688,-36.5859375,1,0,0,response3disk,,5,24.41796875,-6.69921875,1,0,0,rectangle,24.41796875,-6.69921875,1,0,0,24.41796875,-6.69921875,1,0,0,1,10,170,4,1,,,,,,,,
,,,,,,,,,,,,,FF,,,,,,,,1.3321,,,,,,,,,,,,,,,,,,,,,,61003a235712401f910e230b,61036d7ee7004541069fe290,2021-07-29_23h12.42.770,Simcolourproject_2stim_asymm_v5,2020.2.10,MacIntel,60,61025ae37ef11b136ea224fe,,,,,,,,,712,66.61328125,74.57421875,1,0,0,response1disk,,7,23.80859375,3.48046875,1,0,0,rectangle,23.80859375,3.48046875,1,0,0,23.80859375,3.48046875,1,0,0,1,11,171,94,1,,,,,,,,
,,,,,,,,,,,,,FF,,,,,,,,1.3501,,,,,,,,,,,,,,,,,,,,,,61003a235712401f910e230b,61036d7ee7004541069fe290,2021-07-29_23h12.42.770,Simcolourproject_2stim_asymm_v5,2020.2.10,MacIntel,60,61025ae37ef11b136ea224fe,,,,,,,,,3338,52.3671875,-85.1171875,1,0,0,response3disk,,4,27.828125,-10.3671875,1,0,0,rectangle,27.828125,-10.3671875,1,0,0,27.828125,-10.3671875,1,0,0,1,12,172,36,1,,,,,,,,
,,,,,,,,,,,,,FF,,,,,,,,1.1162,,,,,,,,,,,,,,,,,,,,,,61003a235712401f910e230b,61036d7ee7004541069fe290,2021-07-29_23h12.42.770,Simcolourproject_2stim_asymm_v5,2020.2.10,MacIntel,60,61025ae37ef11b136ea224fe,,,,,,,,,97,-33.92578125,-84.265625,1,0,0,response5disk,,3,3.09765625,7.28125,1,0,0,rectangle,3.09765625,7.28125,1,0,0,3.09765625,7.28125,1,0,0,1,13,173,141,1,,,,,,,,
,,,,,,,,,,,,,FF,,,,,,,,0.8661,,,,,,,,,,,,,,,,,,,,,,61003a235712401f910e230b,61036d7ee7004541069fe290,2021-07-29_23h12.42.770,Simcolourproject_2stim_asymm_v5,2020.2.10,MacIntel,60,61025ae37ef11b136ea224fe,,,,,,,,,160,-33.98828125,-84.33203125,1,0,0,response5disk,,3,-1.15625,-13.09765625,1,0,0,rectangle,-1.15625,-13.09765625,1,0,0,-1.15625,-13.09765625,1,0,0,1,14,174,16,1,,,,,,,,
,,,,,,,,,,,,,FF,,,,,,,,1.0151,,,,,,,,,,,,,,,,,,,,,,61003a235712401f910e230b,61036d7ee7004541069fe290,2021-07-29_23h12.42.770,Simcolourproject_2stim_asymm_v5,2020.2.10,MacIntel,60,61025ae37ef11b136ea224fe,,,,,,,,,1779,96.40234375,32.87890625,1,0,0,response1disk,,6,-8.97265625,-0.921875,1,0,0,rectangle,-8.97265625,-0.921875,1,0,0,-8.97265625,-0.921875,1,0,0,1,15,175,112,1,,,,,,,,
,,,,,,,,,,,,,FF,,,,,,,,0.8514,,,,,,,,,,,,,,,,,,,,,,61003a235712401f910e230b,61036d7ee7004541069fe290,2021-07-29_23h12.42.770,Simcolourproject_2stim_asymm_v5,2020.2.10,MacIntel,60,61025ae37ef11b136ea224fe,,,,,,,,,4286,64.34765625,88.22265625,1,0,0,response1disk,,7,17.40625,-0.7578125,1,0,0,rectangle,17.40625,-0.7578125,1,0,0,17.40625,-0.7578125,1,0,0,1,16,176,134,1,,,,,,,,
,,,,,,,,,,,,,FF,,,,,,,,0.8821,,,,,,,,,,,,,,,,,,,,,,61003a235712401f910e230b,61036d7ee7004541069fe290,2021-07-29_23h12.42.770,Simcolourproject_2stim_asymm_v5,2020.2.10,MacIntel,60,61025ae37ef11b136ea224fe,,,,,,,,,1386,36.3359375,60.6953125,1,0,0,response1disk,,7,1.515625,-1.640625,1,0,0,rectangle,42.87890625,109.5742188,1,0,0,13.38671875,-11.453125,1,0,0,1,17,177,66,1,,response1disk_3,TRUE,7,7,"[198,117,252,58,255,74,115,318,147,143,60,18,70,198,54,178,55,91,322,297]",3.0182,rectangle
,,,,,,,,,,,,,FF,,,,,,,,0.8662,,,,,,,,,,,,,,,,,,,,,,61003a235712401f910e230b,61036d7ee7004541069fe290,2021-07-29_23h12.42.770,Simcolourproject_2stim_asymm_v5,2020.2.10,MacIntel,60,61025ae37ef11b136ea224fe,,,,,,,,,2332,110.1054688,51.68359375,1,0,0,response1disk,,6,-24.09765625,2.765625,1,0,0,rectangle,-24.09765625,2.765625,1,0,0,-24.09765625,2.765625,1,0,0,1,18,178,156,1,,,,,,,,
,,,,,,,,,,,,,FF,,,,,,,,1.2821,,,,,,,,,,,,,,,,,,,,,,61003a235712401f910e230b,61036d7ee7004541069fe290,2021-07-29_23h12.42.770,Simcolourproject_2stim_asymm_v5,2020.2.10,MacIntel,60,61025ae37ef11b136ea224fe,,,,,,,,,1582,50.87890625,-61.9296875,1,0,0,response3disk,,4,4.07421875,14.5234375,1,0,0,rectangle,4.07421875,14.5234375,1,0,0,4.07421875,14.5234375,1,0,0,1,19,179,101,1,,,,,,,,
,,,,,,,,,,,,,FF,,,,,,,,0.6842,,,,,,,,,,,,,,,,,,,,,,61003a235712401f910e230b,61036d7ee7004541069fe290,2021-07-29_23h12.42.770,Simcolourproject_2stim_asymm_v5,2020.2.10,MacIntel,60,61025ae37ef11b136ea224fe,,,,,,,,,619,-39.5546875,-68.4765625,1,0,0,response5disk,,3,-13.8515625,1.234375,1,0,0,rectangle,-13.8515625,1.234375,1,0,0,-13.8515625,1.234375,1,0,0,1,20,180,159,1,,,,,,,,
,,,,,,,,,,,,,FF,,,,,,,,1.1185,,,,,,,,,,,,,,,,,,,,,,61003a235712401f910e230b,61036d7ee7004541069fe290,2021-07-29_23h12.42.770,Simcolourproject_2stim_asymm_v5,2020.2.10,MacIntel,60,61025ae37ef11b136ea224fe,,,,,,,,,1378,45.91796875,-105.5,1,0,0,response3disk,,4,3.6171875,2.1796875,1,0,0,rectangle,3.6171875,2.1796875,1,0,0,3.6171875,2.1796875,1,0,0,1,21,181,17,1,,,,,,,,
,,,,,,,,,,,,,FF,,,,,,,,0.7346,,,,,,,,,,,,,,,,,,,,,,61003a235712401f910e230b,61036d7ee7004541069fe290,2021-07-29_23h12.42.770,Simcolourproject_2stim_asymm_v5,2020.2.10,MacIntel,60,61025ae37ef11b136ea224fe,,,,,,,,,78,-24.78125,-91.34765625,1,0,0,response5disk,,3,-13.03125,-2.56640625,1,0,0,rectangle,-13.03125,-2.56640625,1,0,0,-13.03125,-2.56640625,1,0,0,1,22,182,2,1,,,,,,,,
,,,,,,,,,,,,,FF,,,,,,,,0.9833,,,,,,,,,,,,,,,,,,,,,,61003a235712401f910e230b,61036d7ee7004541069fe290,2021-07-29_23h12.42.770,Simcolourproject_2stim_asymm_v5,2020.2.10,MacIntel,60,61025ae37ef11b136ea224fe,,,,,,,,,2741,73.00390625,-30.6015625,1,0,0,response3disk,,5,16.515625,-7,1,0,0,rectangle,16.515625,-7,1,0,0,16.515625,-7,1,0,0,1,23,183,99,1,,,,,,,,
,,,,,,,,,,,,,FF,,,,,,,,0.9486,,,,,,,,,,,,,,,,,,,,,,61003a235712401f910e230b,61036d7ee7004541069fe290,2021-07-29_23h12.42.770,Simcolourproject_2stim_asymm_v5,2020.2.10,MacIntel,60,61025ae37ef11b136ea224fe,,,,,,,,,1298,-87.84375,-49.8984375,1,0,0,response5disk,,2,-11.6328125,-15.30078125,1,0,0,rectangle,-11.6328125,-15.30078125,1,0,0,-11.6328125,-15.30078125,1,0,0,1,24,184,44,1,,,,,,,,
,,,,,,,,,,,,,FF,,,,,,,,0.949,,,,,,,,,,,,,,,,,,,,,,61003a235712401f910e230b,61036d7ee7004541069fe290,2021-07-29_23h12.42.770,Simcolourproject_2stim_asymm_v5,2020.2.10,MacIntel,60,61025ae37ef11b136ea224fe,,,,,,,,,4224,-69.89453125,-39.99609375,1,0,0,response5disk,,2,-3.84765625,0.01953125,1,0,0,rectangle,-3.84765625,0.01953125,1,0,0,-3.84765625,0.01953125,1,0,0,1,25,185,115,1,,,,,,,,
,,,,,,,,,,,,,FF,,,,,,,,1.1334,,,,,,,,,,,,,,,,,,,,,,61003a235712401f910e230b,61036d7ee7004541069fe290,2021-07-29_23h12.42.770,Simcolourproject_2stim_asymm_v5,2020.2.10,MacIntel,60,61025ae37ef11b136ea224fe,,,,,,,,,2150,-38.17578125,-116.296875,1,0,0,response5disk,,3,-9.6015625,2.70703125,1,0,0,rectangle,-9.6015625,2.70703125,1,0,0,-9.6015625,2.70703125,1,0,0,1,26,186,38,1,,,,,,,,
,,,,,,,,,,,,,FF,,,,,,,,1.517,,,,,,,,,,,,,,,,,,,,,,61003a235712401f910e230b,61036d7ee7004541069fe290,2021-07-29_23h12.42.770,Simcolourproject_2stim_asymm_v5,2020.2.10,MacIntel,60,61025ae37ef11b136ea224fe,,,,,,,,,2835,-38.2734375,-100.0273438,1,0,0,response5disk,,3,4.6328125,6.32421875,1,0,0,rectangle,4.6328125,6.32421875,1,0,0,4.6328125,6.32421875,1,0,0,1,27,187,48,1,,,,,,,,
,,,,,,,,,,,,,FF,,,,,,,,1.7155,,,,,,,,,,,,,,,,,,,,,,61003a235712401f910e230b,61036d7ee7004541069fe290,2021-07-29_23h12.42.770,Simcolourproject_2stim_asymm_v5,2020.2.10,MacIntel,60,61025ae37ef11b136ea224fe,,,,,,,,,418,106.5898438,-83.5078125,1,0,0,response3disk,,5,5.171875,-3.12109375,1,0,0,rectangle,5.171875,-3.12109375,1,0,0,5.171875,-3.12109375,1,0,0,1,28,188,118,1,,,,,,,,
,,,,,,,,,,,,,FF,,,,,,,,1.1336,,,,,,,,,,,,,,,,,,,,,,61003a235712401f910e230b,61036d7ee7004541069fe290,2021-07-29_23h12.42.770,Simcolourproject_2stim_asymm_v5,2020.2.10,MacIntel,60,61025ae37ef11b136ea224fe,,,,,,,,,3326,43.7578125,85.9765625,1,0,0,response1disk,,7,8.8515625,3.65234375,1,0,0,rectangle,8.8515625,3.65234375,1,0,0,8.8515625,3.65234375,1,0,0,1,29,189,7,1,,,,,,,,
,,,,,,,,,,,,,FF,,,,,,,,0.7661,,,,,,,,,,,,,,,,,,,,,,61003a235712401f910e230b,61036d7ee7004541069fe290,2021-07-29_23h12.42.770,Simcolourproject_2stim_asymm_v5,2020.2.10,MacIntel,60,61025ae37ef11b136ea224fe,,,,,,,,,1623,55.48828125,77.67578125,1,0,0,response1disk,,7,0.53125,1.1953125,1,0,0,rectangle,0.53125,1.1953125,1,0,0,0.53125,1.1953125,1,0,0,1,30,190,151,1,,,,,,,,
,,,,,,,,,,,,,FF,,,,,,,,0.6165,,,,,,,,,,,,,,,,,,,,,,61003a235712401f910e230b,61036d7ee7004541069fe290,2021-07-29_23h12.42.770,Simcolourproject_2stim_asymm_v5,2020.2.10,MacIntel,60,61025ae37ef11b136ea224fe,,,,,,,,,2658,33.953125,83.81640625,1,0,0,response1disk,,7,23.02734375,8.7109375,1,0,0,rectangle,23.02734375,8.7109375,1,0,0,23.02734375,8.7109375,1,0,0,1,31,191,65,1,,,,,,,,
,,,,,,,,,,,,,FF,,,,,,,,0.8682,,,,,,,,,,,,,,,,,,,,,,61003a235712401f910e230b,61036d7ee7004541069fe290,2021-07-29_23h12.42.770,Simcolourproject_2stim_asymm_v5,2020.2.10,MacIntel,60,61025ae37ef11b136ea224fe,,,,,,,,,3913,-61.63671875,-34.55859375,1,0,0,response5disk,,2,2.91796875,-11.4765625,1,0,0,rectangle,2.91796875,-11.4765625,1,0,0,2.91796875,-11.4765625,1,0,0,1,32,192,0,1,,,,,,,,
,,,,,,,,,,,,,FF,,,,,,,,1.2356,,,,,,,,,,,,,,,,,,,,,,61003a235712401f910e230b,61036d7ee7004541069fe290,2021-07-29_23h12.42.770,Simcolourproject_2stim_asymm_v5,2020.2.10,MacIntel,60,61025ae37ef11b136ea224fe,,,,,,,,,1273,26.46484375,96.71484375,1,0,0,response1disk,,7,-0.51953125,3.3515625,1,0,0,rectangle,-0.51953125,3.3515625,1,0,0,-0.51953125,3.3515625,1,0,0,1,33,193,62,1,,,,,,,,
,,,,,,,,,,,,,FF,,,,,,,,0.9325,,,,,,,,,,,,,,,,,,,,,,61003a235712401f910e230b,61036d7ee7004541069fe290,2021-07-29_23h12.42.770,Simcolourproject_2stim_asymm_v5,2020.2.10,MacIntel,60,61025ae37ef11b136ea224fe,,,,,,,,,130,22.2265625,99.27734375,1,0,0,response1disk,,7,13.9296875,-14.859375,1,0,0,rectangle,13.9296875,-14.859375,1,0,0,13.9296875,-14.859375,1,0,0,1,34,194,92,1,,,,,,,,
,,,,,,,,,,,,,FF,,,,,,,,0.9325,,,,,,,,,,,,,,,,,,,,,,61003a235712401f910e230b,61036d7ee7004541069fe290,2021-07-29_23h12.42.770,Simcolourproject_2stim_asymm_v5,2020.2.10,MacIntel,60,61025ae37ef11b136ea224fe,,,,,,,,,3223,48.5625,109.9179688,1,0,0,response1disk,,7,14.453125,8.60546875,1,0,0,rectangle,14.453125,8.60546875,1,0,0,14.453125,8.60546875,1,0,0,1,35,195,142,1,,,,,,,,
,,,,,,,,,,,,,FF,,,,,,,,0.5989,,,,,,,,,,,,,,,,,,,,,,61003a235712401f910e230b,61036d7ee7004541069fe290,2021-07-29_23h12.42.770,Simcolourproject_2stim_asymm_v5,2020.2.10,MacIntel,60,61025ae37ef11b136ea224fe,,,,,,,,,576,47.97265625,70.52734375,1,0,0,response1disk,,7,8.96484375,-3.7734375,1,0,0,rectangle,8.96484375,-3.7734375,1,0,0,8.96484375,-3.7734375,1,0,0,1,36,196,37,1,,,,,,,,
,,,,,,,,,,,,,FF,,,,,,,,1.1494,,,,,,,,,,,,,,,,,,,,,,61003a235712401f910e230b,61036d7ee7004541069fe290,2021-07-29_23h12.42.770,Simcolourproject_2stim_asymm_v5,2020.2.10,MacIntel,60,61025ae37ef11b136ea224fe,,,,,,,,,2841,48.7890625,-84.5625,1,0,0,response3disk,,4,11.73046875,-9.203125,1,0,0,rectangle,96.41015625,-57.5546875,1,0,0,14.86328125,1.43359375,1,0,0,1,37,197,54,1,,response3disk_3,TRUE,5,5,"[198,117,252,58,255,74,115,318,147,143,60,18,70,198,54,178,55,91,322,297]",1.7998,rectangle
,,,,,,,,,,,,,FF,,,,,,,,1.5169,,,,,,,,,,,,,,,,,,,,,,61003a235712401f910e230b,61036d7ee7004541069fe290,2021-07-29_23h12.42.770,Simcolourproject_2stim_asymm_v5,2020.2.10,MacIntel,60,61025ae37ef11b136ea224fe,,,,,,,,,1012,103.8046875,-46.046875,1,0,0,response3disk,,5,17.07421875,10.40625,1,0,0,rectangle,17.07421875,10.40625,1,0,0,17.07421875,10.40625,1,0,0,1,38,198,96,1,,,,,,,,
,,,,,,,,,,,,,FF,,,,,,,,1.0337,,,,,,,,,,,,,,,,,,,,,,61003a235712401f910e230b,61036d7ee7004541069fe290,2021-07-29_23h12.42.770,Simcolourproject_2stim_asymm_v5,2020.2.10,MacIntel,60,61025ae37ef11b136ea224fe,,,,,,,,,2244,33.75390625,-78.484375,1,0,0,response3disk,,4,10.02734375,-17.27734375,1,0,0,rectangle,10.02734375,-17.27734375,1,0,0,10.02734375,-17.27734375,1,0,0,1,39,199,8,1,,,,,,,,
,,,,,,,,,,,,,FF,,,,,,,,0.9174,,,,,,,,,,,,,,,,,,,,,,61003a235712401f910e230b,61036d7ee7004541069fe290,2021-07-29_23h12.42.770,Simcolourproject_2stim_asymm_v5,2020.2.10,MacIntel,60,61025ae37ef11b136ea224fe,,,,,,,,,437,-82.85546875,-41.9609375,1,0,0,response5disk,,2,-11.00390625,2.40234375,1,0,0,rectangle,-11.00390625,2.40234375,1,0,0,-11.00390625,2.40234375,1,0,0,1,40,200,9,1,,,,,,,,
,,,,,,,,,,,,,FF,,,,,,,,0.7677,,,,,,,,,,,,,,,,,,,,,,61003a235712401f910e230b,61036d7ee7004541069fe290,2021-07-29_23h12.42.770,Simcolourproject_2stim_asymm_v5,2020.2.10,MacIntel,60,61025ae37ef11b136ea224fe,,,,,,,,,3783,-85.94921875,-51.1484375,1,0,0,response5disk,,2,-5.03125,-5.91796875,1,0,0,rectangle,-5.03125,-5.91796875,1,0,0,-5.03125,-5.91796875,1,0,0,1,41,201,98,1,,,,,,,,
,,,,,,,,,,,,,FF,,,,,,,,0.8337,,,,,,,,,,,,,,,,,,,,,,61003a235712401f910e230b,61036d7ee7004541069fe290,2021-07-29_23h12.42.770,Simcolourproject_2stim_asymm_v5,2020.2.10,MacIntel,60,61025ae37ef11b136ea224fe,,,,,,,,,1774,40.6875,81.51953125,1,0,0,response1disk,,7,15.34375,6.4453125,1,0,0,rectangle,15.34375,6.4453125,1,0,0,15.34375,6.4453125,1,0,0,1,42,202,68,1,,,,,,,,
,,,,,,,,,,,,,FF,,,,,,,,0.8655,,,,,,,,,,,,,,,,,,,,,,61003a235712401f910e230b,61036d7ee7004541069fe290,2021-07-29_23h12.42.770,Simcolourproject_2stim_asymm_v5,2020.2.10,MacIntel,60,61025ae37ef11b136ea224fe,,,,,,,,,333,28.3828125,122.890625,1,0,0,response1disk,,7,14.01171875,-14.46484375,1,0,0,rectangle,14.01171875,-14.46484375,1,0,0,14.01171875,-14.46484375,1,0,0,1,43,203,70,1,,,,,,,,
,,,,,,,,,,,,,FF,,,,,,,,1.3003,,,,,,,,,,,,,,,,,,,,,,61003a235712401f910e230b,61036d7ee7004541069fe290,2021-07-29_23h12.42.770,Simcolourproject_2stim_asymm_v5,2020.2.10,MacIntel,60,61025ae37ef11b136ea224fe,,,,,,,,,4256,45.44921875,-89.1953125,1,0,0,response3disk,,4,-11.09765625,-8.69140625,1,0,0,rectangle,-11.09765625,-8.69140625,1,0,0,-11.09765625,-8.69140625,1,0,0,1,44,204,61,1,,,,,,,,
,,,,,,,,,,,,,FF,,,,,,,,0.9508,,,,,,,,,,,,,,,,,,,,,,61003a235712401f910e230b,61036d7ee7004541069fe290,2021-07-29_23h12.42.770,Simcolourproject_2stim_asymm_v5,2020.2.10,MacIntel,60,61025ae37ef11b136ea224fe,,,,,,,,,183,28.18359375,73.8359375,1,0,0,response1disk,,7,-1.3515625,-10.765625,1,0,0,rectangle,-1.3515625,-10.765625,1,0,0,-1.3515625,-10.765625,1,0,0,1,45,205,53,1,,,,,,,,
,,,,,,,,,,,,,FF,,,,,,,,1.3003,,,,,,,,,,,,,,,,,,,,,,61003a235712401f910e230b,61036d7ee7004541069fe290,2021-07-29_23h12.42.770,Simcolourproject_2stim_asymm_v5,2020.2.10,MacIntel,60,61025ae37ef11b136ea224fe,,,,,,,,,2284,59.1015625,-83.30859375,1,0,0,response3disk,,4,1.984375,-1.07421875,1,0,0,rectangle,1.984375,-1.07421875,1,0,0,1.984375,-1.07421875,1,0,0,1,46,206,30,1,,,,,,,,
,,,,,,,,,,,,,FF,,,,,,,,0.9012,,,,,,,,,,,,,,,,,,,,,,61003a235712401f910e230b,61036d7ee7004541069fe290,2021-07-29_23h12.42.770,Simcolourproject_2stim_asymm_v5,2020.2.10,MacIntel,60,61025ae37ef11b136ea224fe,,,,,,,,,2699,41.9921875,81.26171875,1,0,0,response1disk,,7,11.83984375,-6.078125,1,0,0,rectangle,11.83984375,-6.078125,1,0,0,11.83984375,-6.078125,1,0,0,1,47,207,74,1,,,,,,,,
,,,,,,,,,,,,,FF,,,,,,,,1.0163,,,,,,,,,,,,,,,,,,,,,,61003a235712401f910e230b,61036d7ee7004541069fe290,2021-07-29_23h12.42.770,Simcolourproject_2stim_asymm_v5,2020.2.10,MacIntel,60,61025ae37ef11b136ea224fe,,,,,,,,,1751,-74.4375,-47.48046875,1,0,0,response5disk,,2,1.046875,3.984375,1,0,0,rectangle,1.046875,3.984375,1,0,0,1.046875,3.984375,1,0,0,1,48,208,104,1,,,,,,,,
,,,,,,,,,,,,,FF,,,,,,,,0.884,,,,,,,,,,,,,,,,,,,,,,61003a235712401f910e230b,61036d7ee7004541069fe290,2021-07-29_23h12.42.770,Simcolourproject_2stim_asymm_v5,2020.2.10,MacIntel,60,61025ae37ef11b136ea224fe,,,,,,,,,3430,-33.515625,-110.3085938,1,0,0,response5disk,,3,-9.62890625,7.109375,1,0,0,rectangle,-9.62890625,7.109375,1,0,0,-9.62890625,7.109375,1,0,0,1,49,209,150,1,,,,,,,,
,,,,,,,,,,,,,FF,,,,,,,,0.8836,,,,,,,,,,,,,,,,,,,,,,61003a235712401f910e230b,61036d7ee7004541069fe290,2021-07-29_23h12.42.770,Simcolourproject_2stim_asymm_v5,2020.2.10,MacIntel,60,61025ae37ef11b136ea224fe,,,,,,,,,2257,41.734375,72.984375,1,0,0,response1disk,,7,2.90234375,-1.6328125,1,0,0,rectangle,2.90234375,-1.6328125,1,0,0,2.90234375,-1.6328125,1,0,0,1,50,210,155,1,,,,,,,,
,,,,,,,,,,,,,FF,,,,,,,,1.3838,,,,,,,,,,,,,,,,,,,,,,61003a235712401f910e230b,61036d7ee7004541069fe290,2021-07-29_23h12.42.770,Simcolourproject_2stim_asymm_v5,2020.2.10,MacIntel,60,61025ae37ef11b136ea224fe,,,,,,,,,2591,72.38671875,-24.078125,1,0,0,response3disk,,5,24.70703125,-9.7421875,1,0,0,rectangle,24.70703125,-9.7421875,1,0,0,24.70703125,-9.7421875,1,0,0,1,51,211,41,1,,,,,,,,
,,,,,,,,,,,,,FF,,,,,,,,0.7683,,,,,,,,,,,,,,,,,,,,,,61003a235712401f910e230b,61036d7ee7004541069fe290,2021-07-29_23h12.42.770,Simcolourproject_2stim_asymm_v5,2020.2.10,MacIntel,60,61025ae37ef11b136ea224fe,,,,,,,,,4052,-78.3046875,-27.96484375,1,0,0,response5disk,,2,-27.00390625,-5.26953125,1,0,0,rectangle,-27.00390625,-5.26953125,1,0,0,-27.00390625,-5.26953125,1,0,0,1,52,212,26,1,,,,,,,,
,,,,,,,,,,,,,FF,,,,,,,,0.6825,,,,,,,,,,,,,,,,,,,,,,61003a235712401f910e230b,61036d7ee7004541069fe290,2021-07-29_23h12.42.770,Simcolourproject_2stim_asymm_v5,2020.2.10,MacIntel,60,61025ae37ef11b136ea224fe,,,,,,,,,3550,62.8828125,121.2382813,1,0,0,response1disk,,7,11.32421875,6.77734375,1,0,0,rectangle,11.32421875,6.77734375,1,0,0,11.32421875,6.77734375,1,0,0,1,53,213,31,1,,,,,,,,
,,,,,,,,,,,,,FF,,,,,,,,1.0493,,,,,,,,,,,,,,,,,,,,,,61003a235712401f910e230b,61036d7ee7004541069fe290,2021-07-29_23h12.42.770,Simcolourproject_2stim_asymm_v5,2020.2.10,MacIntel,60,61025ae37ef11b136ea224fe,,,,,,,,,1310,-59.765625,-105.3125,1,0,0,response5disk,,3,19.203125,1.796875,1,0,0,rectangle,19.203125,1.796875,1,0,0,19.203125,1.796875,1,0,0,1,54,214,90,1,,,,,,,,
,,,,,,,,,,,,,FF,,,,,,,,0.8506,,,,,,,,,,,,,,,,,,,,,,61003a235712401f910e230b,61036d7ee7004541069fe290,2021-07-29_23h12.42.770,Simcolourproject_2stim_asymm_v5,2020.2.10,MacIntel,60,61025ae37ef11b136ea224fe,,,,,,,,,2028,-81.3828125,-75.125,1,0,0,response5disk,,2,12.34765625,0.3515625,1,0,0,rectangle,12.34765625,0.3515625,1,0,0,12.34765625,0.3515625,1,0,0,1,55,215,84,1,,,,,,,,
,,,,,,,,,,,,,FF,,,,,,,,0.7493,,,,,,,,,,,,,,,,,,,,,,61003a235712401f910e230b,61036d7ee7004541069fe290,2021-07-29_23h12.42.770,Simcolourproject_2stim_asymm_v5,2020.2.10,MacIntel,60,61025ae37ef11b136ea224fe,,,,,,,,,1821,-68.68359375,-22.62890625,1,0,0,response5disk,,2,-1.8828125,6.75390625,1,0,0,rectangle,-1.8828125,6.75390625,1,0,0,-1.8828125,6.75390625,1,0,0,1,56,216,109,1,,,,,,,,
,,,,,,,,,,,,,FF,,,,,,,,0.8506,,,,,,,,,,,,,,,,,,,,,,61003a235712401f910e230b,61036d7ee7004541069fe290,2021-07-29_23h12.42.770,Simcolourproject_2stim_asymm_v5,2020.2.10,MacIntel,60,61025ae37ef11b136ea224fe,,,,,,,,,2194,83.5390625,94.01171875,1,0,0,response1disk,,7,25.08984375,8.4921875,1,0,0,rectangle,25.08984375,8.4921875,1,0,0,25.08984375,8.4921875,1,0,0,1,57,217,95,1,,,,,,,,
,,,,,,,,,,,,,FF,,,,,,,,0.6,,,,,,,,,,,,,,,,,,,,,,61003a235712401f910e230b,61036d7ee7004541069fe290,2021-07-29_23h12.42.770,Simcolourproject_2stim_asymm_v5,2020.2.10,MacIntel,60,61025ae37ef11b136ea224fe,,,,,,,,,1395,28.89453125,63.62109375,1,0,0,response1disk,,7,26.08203125,0.44140625,1,0,0,rectangle,26.08203125,0.44140625,1,0,0,26.08203125,0.44140625,1,0,0,1,58,218,35,1,,,,,,,,
,,,,,,,,,,,,,FF,,,,,,,,0.585,,,,,,,,,,,,,,,,,,,,,,61003a235712401f910e230b,61036d7ee7004541069fe290,2021-07-29_23h12.42.770,Simcolourproject_2stim_asymm_v5,2020.2.10,MacIntel,60,61025ae37ef11b136ea224fe,,,,,,,,,2394,25.68359375,86.54296875,1,0,0,response1disk,,7,3.03125,9.859375,1,0,0,rectangle,3.03125,9.859375,1,0,0,3.03125,9.859375,1,0,0,1,59,219,158,1,,,,,,,,
,,,,,,,,,,,,,FF,,,,,,,,0.6665,,,,,,,,,,,,,,,,,,,,,,61003a235712401f910e230b,61036d7ee7004541069fe290,2021-07-29_23h12.42.770,Simcolourproject_2stim_asymm_v5,2020.2.10,MacIntel,60,61025ae37ef11b136ea224fe,,,,,,,,,2623,34.33984375,47.5625,1,0,0,response1disk,,7,6.64453125,-14.1484375,1,0,0,rectangle,6.64453125,-14.1484375,1,0,0,6.64453125,-14.1484375,1,0,0,1,60,220,114,1,,,,,,,,
,,,,,,,,,,,,,FF,,,,,,,,0.6826,,,,,,,,,,,,,,,,,,,,,,61003a235712401f910e230b,61036d7ee7004541069fe290,2021-07-29_23h12.42.770,Simcolourproject_2stim_asymm_v5,2020.2.10,MacIntel,60,61025ae37ef11b136ea224fe,,,,,,,,,1911,37.203125,64.8359375,1,0,0,response1disk,,7,23.6796875,12.08984375,1,0,0,rectangle,23.6796875,12.08984375,1,0,0,23.6796875,12.08984375,1,0,0,1,61,221,82,1,,,,,,,,
,,,,,,,,,,,,,FF,,,,,,,,0.6666,,,,,,,,,,,,,,,,,,,,,,61003a235712401f910e230b,61036d7ee7004541069fe290,2021-07-29_23h12.42.770,Simcolourproject_2stim_asymm_v5,2020.2.10,MacIntel,60,61025ae37ef11b136ea224fe,,,,,,,,,3640,56.921875,70.19921875,1,0,0,response1disk,,7,18.94140625,-10.93359375,1,0,0,rectangle,18.94140625,-10.93359375,1,0,0,18.94140625,-10.93359375,1,0,0,1,62,222,126,1,,,,,,,,
,,,,,,,,,,,,,FF,,,,,,,,0.5319,,,,,,,,,,,,,,,,,,,,,,61003a235712401f910e230b,61036d7ee7004541069fe290,2021-07-29_23h12.42.770,Simcolourproject_2stim_asymm_v5,2020.2.10,MacIntel,60,61025ae37ef11b136ea224fe,,,,,,,,,3334,31.375,97.99609375,1,0,0,response1disk,,7,10.453125,7.4609375,1,0,0,rectangle,10.453125,7.4609375,1,0,0,10.453125,7.4609375,1,0,0,1,63,223,124,1,,,,,,,,
,,,,,,,,,,,,,FF,,,,,,,,0.8047,,,,,,,,,,,,,,,,,,,,,,61003a235712401f910e230b,61036d7ee7004541069fe290,2021-07-29_23h12.42.770,Simcolourproject_2stim_asymm_v5,2020.2.10,MacIntel,60,61025ae37ef11b136ea224fe,,,,,,,,,1381,99.6484375,49.05078125,1,0,0,response1disk,,6,9.8125,-7.56640625,1,0,0,rectangle,9.8125,-7.56640625,1,0,0,9.8125,-7.56640625,1,0,0,1,64,224,69,1,,,,,,,,
,,,,,,,,,,,,,FF,,,,,,,,1.332,,,,,,,,,,,,,,,,,,,,,,61003a235712401f910e230b,61036d7ee7004541069fe290,2021-07-29_23h12.42.770,Simcolourproject_2stim_asymm_v5,2020.2.10,MacIntel,60,61025ae37ef11b136ea224fe,,,,,,,,,634,-21.0390625,-71.61328125,1,0,0,response5disk,,3,6.87109375,-7.03515625,1,0,0,rectangle,6.87109375,-7.03515625,1,0,0,6.87109375,-7.03515625,1,0,0,1,65,225,78,1,,,,,,,,
,,,,,,,,,,,,,FF,,,,,,,,0.8833,,,,,,,,,,,,,,,,,,,,,,61003a235712401f910e230b,61036d7ee7004541069fe290,2021-07-29_23h12.42.770,Simcolourproject_2stim_asymm_v5,2020.2.10,MacIntel,60,61025ae37ef11b136ea224fe,,,,,,,,,3767,34.49609375,80.0546875,1,0,0,response1disk,,7,18.18359375,11.37890625,1,0,0,rectangle,18.18359375,11.37890625,1,0,0,18.18359375,11.37890625,1,0,0,1,66,226,103,1,,,,,,,,
,,,,,,,,,,,,,FF,,,,,,,,1.7485,,,,,,,,,,,,,,,,,,,,,,61003a235712401f910e230b,61036d7ee7004541069fe290,2021-07-29_23h12.42.770,Simcolourproject_2stim_asymm_v5,2020.2.10,MacIntel,60,61025ae37ef11b136ea224fe,,,,,,,,,889,-37.37890625,-83.97265625,1,0,0,response5disk,,3,-7.26171875,4.5546875,1,0,0,rectangle,-7.26171875,4.5546875,1,0,0,-7.26171875,4.5546875,1,0,0,1,67,227,19,1,,,,,,,,
,,,,,,,,,,,,,FF,,,,,,,,0.8343,,,,,,,,,,,,,,,,,,,,,,61003a235712401f910e230b,61036d7ee7004541069fe290,2021-07-29_23h12.42.770,Simcolourproject_2stim_asymm_v5,2020.2.10,MacIntel,60,61025ae37ef11b136ea224fe,,,,,,,,,3169,39.73828125,115.8320313,1,0,0,response1disk,,7,8.96875,-11.2890625,1,0,0,rectangle,8.96875,-11.2890625,1,0,0,8.96875,-11.2890625,1,0,0,1,68,228,51,1,,,,,,,,
,,,,,,,,,,,,,FF,,,,,,,,0.8837,,,,,,,,,,,,,,,,,,,,,,61003a235712401f910e230b,61036d7ee7004541069fe290,2021-07-29_23h12.42.770,Simcolourproject_2stim_asymm_v5,2020.2.10,MacIntel,60,61025ae37ef11b136ea224fe,,,,,,,,,1379,106.1953125,42.65625,1,0,0,response1disk,,6,26.35546875,8.15234375,1,0,0,rectangle,26.35546875,8.15234375,1,0,0,26.35546875,8.15234375,1,0,0,1,69,229,71,1,,,,,,,,
,,,,,,,,,,,,,FF,,,,,,,,0.882,,,,,,,,,,,,,,,,,,,,,,61003a235712401f910e230b,61036d7ee7004541069fe290,2021-07-29_23h12.42.770,Simcolourproject_2stim_asymm_v5,2020.2.10,MacIntel,60,61025ae37ef11b136ea224fe,,,,,,,,,3009,21.0234375,79.84375,1,0,0,response1disk,,7,15.01171875,9.546875,1,0,0,rectangle,15.01171875,9.546875,1,0,0,15.01171875,9.546875,1,0,0,1,70,230,14,1,,,,,,,,
,,,,,,,,,,,,,FF,,,,,,,,0.9333,,,,,,,,,,,,,,,,,,,,,,61003a235712401f910e230b,61036d7ee7004541069fe290,2021-07-29_23h12.42.770,Simcolourproject_2stim_asymm_v5,2020.2.10,MacIntel,60,61025ae37ef11b136ea224fe,,,,,,,,,3838,35.62890625,77.36328125,1,0,0,response1disk,,7,12.9453125,7.1328125,1,0,0,rectangle,12.9453125,7.1328125,1,0,0,12.9453125,7.1328125,1,0,0,1,71,231,60,1,,,,,,,,
,,,,,,,,,,,,,FF,,,,,,,,1.4179,,,,,,,,,,,,,,,,,,,,,,61003a235712401f910e230b,61036d7ee7004541069fe290,2021-07-29_23h12.42.770,Simcolourproject_2stim_asymm_v5,2020.2.10,MacIntel,60,61025ae37ef11b136ea224fe,,,,,,,,,14,43.29296875,-106.4492188,1,0,0,response3disk,,4,23.25,-11.41796875,1,0,0,rectangle,23.25,-11.41796875,1,0,0,23.25,-11.41796875,1,0,0,1,72,232,56,1,,,,,,,,
,,,,,,,,,,,,,FF,,,,,,,,1.0491,,,,,,,,,,,,,,,,,,,,,,61003a235712401f910e230b,61036d7ee7004541069fe290,2021-07-29_23h12.42.770,Simcolourproject_2stim_asymm_v5,2020.2.10,MacIntel,60,61025ae37ef11b136ea224fe,,,,,,,,,3796,36.60546875,71.390625,1,0,0,response1disk,,7,7.1640625,8.375,1,0,0,rectangle,7.1640625,8.375,1,0,0,7.1640625,8.375,1,0,0,1,73,233,46,1,,,,,,,,
,,,,,,,,,,,,,FF,,,,,,,,0.7505,,,,,,,,,,,,,,,,,,,,,,61003a235712401f910e230b,61036d7ee7004541069fe290,2021-07-29_23h12.42.770,Simcolourproject_2stim_asymm_v5,2020.2.10,MacIntel,60,61025ae37ef11b136ea224fe,,,,,,,,,3467,31.875,89.39453125,1,0,0,response1disk,,7,1.796875,9.37109375,1,0,0,rectangle,1.796875,9.37109375,1,0,0,1.796875,9.37109375,1,0,0,1,74,234,47,1,,,,,,,,
,,,,,,,,,,,,,FF,,,,,,,,1.1159,,,,,,,,,,,,,,,,,,,,,,61003a235712401f910e230b,61036d7ee7004541069fe290,2021-07-29_23h12.42.770,Simcolourproject_2stim_asymm_v5,2020.2.10,MacIntel,60,61025ae37ef11b136ea224fe,,,,,,,,,1831,-21.44921875,-89.5703125,1,0,0,response5disk,,3,-1.94140625,13.9921875,1,0,0,rectangle,-1.94140625,13.9921875,1,0,0,-1.94140625,13.9921875,1,0,0,1,75,235,28,1,,,,,,,,
,,,,,,,,,,,,,FF,,,,,,,,1.1717,,,,,,,,,,,,,,,,,,,,,,61003a235712401f910e230b,61036d7ee7004541069fe290,2021-07-29_23h12.42.770,Simcolourproject_2stim_asymm_v5,2020.2.10,MacIntel,60,61025ae37ef11b136ea224fe,,,,,,,,,1828,-25.62890625,-66.40234375,1,0,0,response5disk,,3,-17.4140625,-14.98828125,1,0,0,rectangle,-17.4140625,-14.98828125,1,0,0,-17.4140625,-14.98828125,1,0,0,1,76,236,131,1,,,,,,,,
,,,,,,,,,,,,,FF,,,,,,,,1.3831,,,,,,,,,,,,,,,,,,,,,,61003a235712401f910e230b,61036d7ee7004541069fe290,2021-07-29_23h12.42.770,Simcolourproject_2stim_asymm_v5,2020.2.10,MacIntel,60,61025ae37ef11b136ea224fe,,,,,,,,,1479,41.6796875,-103.7265625,1,0,0,response3disk,,4,16.16796875,-6.2578125,1,0,0,rectangle,16.16796875,-6.2578125,1,0,0,16.16796875,-6.2578125,1,0,0,1,77,237,42,1,,,,,,,,
,,,,,,,,,,,,,FF,,,,,,,,0.8825,,,,,,,,,,,,,,,,,,,,,,61003a235712401f910e230b,61036d7ee7004541069fe290,2021-07-29_23h12.42.770,Simcolourproject_2stim_asymm_v5,2020.2.10,MacIntel,60,61025ae37ef11b136ea224fe,,,,,,,,,3607,45.9296875,76.140625,1,0,0,response1disk,,7,8.09765625,0.125,1,0,0,rectangle,8.09765625,0.125,1,0,0,8.09765625,0.125,1,0,0,1,78,238,107,1,,,,,,,,
,,,,,,,,,,,,,FF,,,,,,,,0.8684,,,,,,,,,,,,,,,,,,,,,,61003a235712401f910e230b,61036d7ee7004541069fe290,2021-07-29_23h12.42.770,Simcolourproject_2stim_asymm_v5,2020.2.10,MacIntel,60,61025ae37ef11b136ea224fe,,,,,,,,,1265,24.5078125,55.8125,1,0,0,response1disk,,7,11.49609375,-8.0546875,1,0,0,rectangle,11.49609375,-8.0546875,1,0,0,11.49609375,-8.0546875,1,0,0,1,79,239,93,1,,,,,,,,
,,,,,,,,,,,,,FF,,,,,,,,0.899,,,,,,,,,,,,,,,,,,,,,,61003a235712401f910e230b,61036d7ee7004541069fe290,2021-07-29_23h12.42.770,Simcolourproject_2stim_asymm_v5,2020.2.10,MacIntel,60,61025ae37ef11b136ea224fe,,,,,,,,,4223,-74.66015625,-43.3671875,1,0,0,response5disk,,2,-13.8046875,-8.796875,1,0,0,rectangle,-13.8046875,-8.796875,1,0,0,-13.8046875,-8.796875,1,0,0,1,80,240,153,1,,,,,,,,
,,,,,,,,,,,,,FF,,,,,,,,1.1156,,,,,,,,,,,,,,,,,,,,,,61003a235712401f910e230b,61036d7ee7004541069fe290,2021-07-29_23h12.42.770,Simcolourproject_2stim_asymm_v5,2020.2.10,MacIntel,60,61025ae37ef11b136ea224fe,,,,,,,,,996,46.60546875,-92.36328125,1,0,0,response3disk,,4,6.0625,-3.04296875,1,0,0,rectangle,6.0625,-3.04296875,1,0,0,6.0625,-3.04296875,1,0,0,1,81,241,108,1,,,,,,,,
,,,,,,,,,,,,,FF,,,,,,,,0.8672,,,,,,,,,,,,,,,,,,,,,,61003a235712401f910e230b,61036d7ee7004541069fe290,2021-07-29_23h12.42.770,Simcolourproject_2stim_asymm_v5,2020.2.10,MacIntel,60,61025ae37ef11b136ea224fe,,,,,,,,,527,-38.28515625,-77.375,1,0,0,response5disk,,3,-13.90234375,9.84765625,1,0,0,rectangle,-13.90234375,9.84765625,1,0,0,-13.90234375,9.84765625,1,0,0,1,82,242,24,1,,,,,,,,
,,,,,,,,,,,,,FF,,,,,,,,0.7022,,,,,,,,,,,,,,,,,,,,,,61003a235712401f910e230b,61036d7ee7004541069fe290,2021-07-29_23h12.42.770,Simcolourproject_2stim_asymm_v5,2020.2.10,MacIntel,60,61025ae37ef11b136ea224fe,,,,,,,,,44,36.78515625,97.14453125,1,0,0,response1disk,,7,12.5546875,14.5546875,1,0,0,rectangle,12.5546875,14.5546875,1,0,0,12.5546875,14.5546875,1,0,0,1,83,243,15,1,,,,,,,,
,,,,,,,,,,,,,FF,,,,,,,,0.583,,,,,,,,,,,,,,,,,,,,,,61003a235712401f910e230b,61036d7ee7004541069fe290,2021-07-29_23h12.42.770,Simcolourproject_2stim_asymm_v5,2020.2.10,MacIntel,60,61025ae37ef11b136ea224fe,,,,,,,,,1235,45.80078125,67.85546875,1,0,0,response1disk,,7,10.7578125,-10.79296875,1,0,0,rectangle,10.7578125,-10.79296875,1,0,0,10.7578125,-10.79296875,1,0,0,1,84,244,20,1,,,,,,,,
,,,,,,,,,,,,,FF,,,,,,,,0.5322,,,,,,,,,,,,,,,,,,,,,,61003a235712401f910e230b,61036d7ee7004541069fe290,2021-07-29_23h12.42.770,Simcolourproject_2stim_asymm_v5,2020.2.10,MacIntel,60,61025ae37ef11b136ea224fe,,,,,,,,,1928,29.35546875,101.1796875,1,0,0,response1disk,,7,11.11328125,-9.34765625,1,0,0,rectangle,11.11328125,-9.34765625,1,0,0,11.11328125,-9.34765625,1,0,0,1,85,245,148,1,,,,,,,,
,,,,,,,,,,,,,FF,,,,,,,,0.933,,,,,,,,,,,,,,,,,,,,,,61003a235712401f910e230b,61036d7ee7004541069fe290,2021-07-29_23h12.42.770,Simcolourproject_2stim_asymm_v5,2020.2.10,MacIntel,60,61025ae37ef11b136ea224fe,,,,,,,,,3566,41.54296875,79.38671875,1,0,0,response1disk,,7,3.85546875,-9,1,0,0,rectangle,3.85546875,-9,1,0,0,3.85546875,-9,1,0,0,1,86,246,88,1,,,,,,,,
,,,,,,,,,,,,,FF,,,,,,,,0.6499,,,,,,,,,,,,,,,,,,,,,,61003a235712401f910e230b,61036d7ee7004541069fe290,2021-07-29_23h12.42.770,Simcolourproject_2stim_asymm_v5,2020.2.10,MacIntel,60,61025ae37ef11b136ea224fe,,,,,,,,,1185,32.0859375,62.4765625,1,0,0,response1disk,,7,13.6953125,-4.65234375,1,0,0,rectangle,13.6953125,-4.65234375,1,0,0,13.6953125,-4.65234375,1,0,0,1,87,247,110,1,,,,,,,,
,,,,,,,,,,,,,FF,,,,,,,,0.717,,,,,,,,,,,,,,,,,,,,,,61003a235712401f910e230b,61036d7ee7004541069fe290,2021-07-29_23h12.42.770,Simcolourproject_2stim_asymm_v5,2020.2.10,MacIntel,60,61025ae37ef11b136ea224fe,,,,,,,,,3484,33.09375,45.87109375,1,0,0,response1disk,,7,6.87890625,4.1328125,1,0,0,rectangle,6.87890625,4.1328125,1,0,0,6.87890625,4.1328125,1,0,0,1,88,248,87,1,,,,,,,,
