key_resp.keys,key_resp.rt,key_resp_14.keys,key_resp_14.rt,key_resp_15.keys,key_resp_15.rt,key_resp_17.keys,key_resp_17.rt,key_resp_9.keys,key_resp_9.rt,key_resp_10.keys,key_resp_10.rt,practice_comparison,Ecc,mouse_5.x,mouse_5.y,mouse_5.leftButton,mouse_5.midButton,mouse_5.rightButton,mouse_5.clicked_name,pracsimilarity,response_time,mouse_10.x,mouse_10.y,mouse_10.leftButton,mouse_10.midButton,mouse_10.rightButton,mouse_10.clicked_name,mouse_7.x,mouse_7.y,mouse_7.leftButton,mouse_7.midButton,mouse_7.rightButton,mouse_6.x,mouse_6.y,mouse_6.leftButton,mouse_6.midButton,mouse_6.rightButton,duringprac.thisRepN,duringprac.thisTrialN,duringprac.thisN,duringprac.thisIndex,duringprac.ran,participant,session,date,expName,psychopyVersion,OS,frameRate,study_id,mouse_7.clicked_name,catchpracsimilarity,catch_response_time,catchnumberprac,catchtrialorderprac,mouse_6.clicked_name,key_resp_22.keys,key_resp_22.rt,realcomparison,mouse.x,mouse.y,mouse.leftButton,mouse.midButton,mouse.rightButton,mouse.clicked_name,Colour2,similarity,mouse_2.x,mouse_2.y,mouse_2.leftButton,mouse_2.midButton,mouse_2.rightButton,mouse_2.clicked_name,mouse_3.x,mouse_3.y,mouse_3.leftButton,mouse_3.midButton,mouse_3.rightButton,mouse_11.x,mouse_11.y,mouse_11.leftButton,mouse_11.midButton,mouse_11.rightButton,trials_2.thisRepN,trials_2.thisTrialN,trials_2.thisN,trials_2.thisIndex,trials_2.ran,Colour1,mouse_3.clicked_name,catchornah,catchsimilarity,catchnumber,catchtrialorder,catchRT,mouse_11.clicked_name
space,2.429,space,14.385,space,43.683,space,11.135,space,3.814,space,5.976,149,FF,40,84,1,0,0,response1disk_5,7,9.806,11,-6,1,0,0,rectangle_8,11,-6,1,0,0,11,-6,1,0,0,0,0,0,5,1,61007d53537409cd3125c6ca,610368a8ded861a44430ef19,2021-07-29_19h51.38.465,Simcolourproject_2stim_asymm_v5,2020.2.10,MacIntel,60,61025ae37ef11b136ea224fe,,,,,,,,,,,,,,,,,,,,,,,,,,,,,,,,,,,,,,,,,,,,,,
,,,,,,,,,,,,72,PF,52,-41,1,0,0,response3disk_5,5,6.536,10,3,1,0,0,rectangle_8,72,31,1,0,0,11,-3,1,0,0,0,1,1,6,1,61007d53537409cd3125c6ca,610368a8ded861a44430ef19,2021-07-29_19h51.38.465,Simcolourproject_2stim_asymm_v5,2020.2.10,MacIntel,60,61025ae37ef11b136ea224fe,response1disk_7,6,3.335,6,"[2,5]",rectangle_4,,,,,,,,,,,,,,,,,,,,,,,,,,,,,,,,,,,,,,,,
,,,,,,,,,,,,11,PF,-30,-84,1,0,0,response5disk_5,3,10.537,-4,0,1,0,0,rectangle_8,-4,0,1,0,0,-4,0,1,0,0,0,2,2,4,1,61007d53537409cd3125c6ca,610368a8ded861a44430ef19,2021-07-29_19h51.38.465,Simcolourproject_2stim_asymm_v5,2020.2.10,MacIntel,60,61025ae37ef11b136ea224fe,,,,,,,,,,,,,,,,,,,,,,,,,,,,,,,,,,,,,,,,,,,,,,
,,,,,,,,,,,,26,PF,40,-88,1,0,0,response3disk_5,4,7.002,0,-9,1,0,0,rectangle_8,0,-9,1,0,0,0,-9,1,0,0,0,3,3,1,1,61007d53537409cd3125c6ca,610368a8ded861a44430ef19,2021-07-29_19h51.38.465,Simcolourproject_2stim_asymm_v5,2020.2.10,MacIntel,60,61025ae37ef11b136ea224fe,,,,,,,,,,,,,,,,,,,,,,,,,,,,,,,,,,,,,,,,,,,,,,
,,,,,,,,,,,,93,PF,102,37,1,0,0,response1disk_5,6,5.986,14,9,1,0,0,rectangle_8,96,42,1,0,0,9,-3,1,0,0,0,4,4,2,1,61007d53537409cd3125c6ca,610368a8ded861a44430ef19,2021-07-29_19h51.38.465,Simcolourproject_2stim_asymm_v5,2020.2.10,MacIntel,60,61025ae37ef11b136ea224fe,response1disk_7,6,2.952,6,"[2,5]",rectangle_4,,,,,,,,,,,,,,,,,,,,,,,,,,,,,,,,,,,,,,,,
,,,,,,,,,,,,29,FF,-42,-30,1,0,0,response5disk_5,2,1.768,5,-6,1,0,0,rectangle_8,5,-6,1,0,0,5,-6,1,0,0,0,5,5,3,1,61007d53537409cd3125c6ca,610368a8ded861a44430ef19,2021-07-29_19h51.38.465,Simcolourproject_2stim_asymm_v5,2020.2.10,MacIntel,60,61025ae37ef11b136ea224fe,,,,,,,,,,,,,,,,,,,,,,,,,,,,,,,,,,,,,,,,,,,,,,
,,,,,,,,,,,,57,FF,-38,-22,1,0,0,response5disk_5,2,1.667,-8,3,1,0,0,rectangle_8,-8,3,1,0,0,-8,3,1,0,0,0,6,6,0,1,61007d53537409cd3125c6ca,610368a8ded861a44430ef19,2021-07-29_19h51.38.465,Simcolourproject_2stim_asymm_v5,2020.2.10,MacIntel,60,61025ae37ef11b136ea224fe,,,,,,,,,,,,,,,,,,,,,,,,,,,,,,,,,,,,,,,,,,,,,,
,,,,,,,,,,,,,FF,,,,,,,,2.217,,,,,,,,,,,,,,,,,,,,,,61007d53537409cd3125c6ca,610368a8ded861a44430ef19,2021-07-29_19h51.38.465,Simcolourproject_2stim_asymm_v5,2020.2.10,MacIntel,60,61025ae37ef11b136ea224fe,,,,,,,space,3.33,2886,-31,75,1,0,0,response7disk,,0,14,2,1,0,0,rectangle,14,2,1,0,0,14,2,1,0,0,0,0,0,41,1,,,,,,,,
,,,,,,,,,,,,,FF,,,,,,,,2.301,,,,,,,,,,,,,,,,,,,,,,61007d53537409cd3125c6ca,610368a8ded861a44430ef19,2021-07-29_19h51.38.465,Simcolourproject_2stim_asymm_v5,2020.2.10,MacIntel,60,61025ae37ef11b136ea224fe,,,,,,,,,3832,24,-74,1,0,0,response3disk,,4,-16,1,1,0,0,rectangle,-16,1,1,0,0,-16,1,1,0,0,0,1,1,45,1,,,,,,,,
,,,,,,,,,,,,,FF,,,,,,,,1.35,,,,,,,,,,,,,,,,,,,,,,61007d53537409cd3125c6ca,610368a8ded861a44430ef19,2021-07-29_19h51.38.465,Simcolourproject_2stim_asymm_v5,2020.2.10,MacIntel,60,61025ae37ef11b136ea224fe,,,,,,,,,3062,-36,-66,1,0,0,response5disk,,3,16,-7,1,0,0,rectangle,16,-7,1,0,0,16,-7,1,0,0,0,2,2,74,1,,,,,,,,
,,,,,,,,,,,,,FF,,,,,,,,1.034,,,,,,,,,,,,,,,,,,,,,,61007d53537409cd3125c6ca,610368a8ded861a44430ef19,2021-07-29_19h51.38.465,Simcolourproject_2stim_asymm_v5,2020.2.10,MacIntel,60,61025ae37ef11b136ea224fe,,,,,,,,,3675,-38,-82,1,0,0,response5disk,,3,8,-12,1,0,0,rectangle,8,-12,1,0,0,8,-12,1,0,0,0,3,3,148,1,,,,,,,,
,,,,,,,,,,,,,FF,,,,,,,,1.984,,,,,,,,,,,,,,,,,,,,,,61007d53537409cd3125c6ca,610368a8ded861a44430ef19,2021-07-29_19h51.38.465,Simcolourproject_2stim_asymm_v5,2020.2.10,MacIntel,60,61025ae37ef11b136ea224fe,,,,,,,,,1392,-20,-57,1,0,0,response5disk,,3,13,6,1,0,0,rectangle,13,6,1,0,0,13,6,1,0,0,0,4,4,69,1,,,,,,,,
,,,,,,,,,,,,,FF,,,,,,,,1.085,,,,,,,,,,,,,,,,,,,,,,61007d53537409cd3125c6ca,610368a8ded861a44430ef19,2021-07-29_19h51.38.465,Simcolourproject_2stim_asymm_v5,2020.2.10,MacIntel,60,61025ae37ef11b136ea224fe,,,,,,,,,2976,67,-31,1,0,0,response3disk,,5,17,-7,1,0,0,rectangle,17,-7,1,0,0,17,-7,1,0,0,0,5,5,10,1,,,,,,,,
,,,,,,,,,,,,,FF,,,,,,,,2.318,,,,,,,,,,,,,,,,,,,,,,61007d53537409cd3125c6ca,610368a8ded861a44430ef19,2021-07-29_19h51.38.465,Simcolourproject_2stim_asymm_v5,2020.2.10,MacIntel,60,61025ae37ef11b136ea224fe,,,,,,,,,2024,46,64,1,0,0,response1disk,,7,2,1,1,0,0,rectangle,2,1,1,0,0,2,1,1,0,0,0,6,6,127,1,,,,,,,,
,,,,,,,,,,,,,FF,,,,,,,,1.15,,,,,,,,,,,,,,,,,,,,,,61007d53537409cd3125c6ca,610368a8ded861a44430ef19,2021-07-29_19h51.38.465,Simcolourproject_2stim_asymm_v5,2020.2.10,MacIntel,60,61025ae37ef11b136ea224fe,,,,,,,,,77,-55,-28,1,0,0,response5disk,,2,23,-2,1,0,0,rectangle,-36,-76,1,0,0,11,-5,1,0,0,0,7,7,141,1,,response5disk_3,TRUE,3,3,"[18,149,19,251,8,245,254,175,173,149,130,197,111,219,283,70,195,27,107,138]",2.301,rectangle
,,,,,,,,,,,,,FF,,,,,,,,1.166,,,,,,,,,,,,,,,,,,,,,,61007d53537409cd3125c6ca,610368a8ded861a44430ef19,2021-07-29_19h51.38.465,Simcolourproject_2stim_asymm_v5,2020.2.10,MacIntel,60,61025ae37ef11b136ea224fe,,,,,,,,,2189,67,-43,1,0,0,response3disk,,5,10,-9,1,0,0,rectangle,10,-9,1,0,0,10,-9,1,0,0,0,8,8,30,1,,,,,,,,
,,,,,,,,,,,,,FF,,,,,,,,1.7,,,,,,,,,,,,,,,,,,,,,,61007d53537409cd3125c6ca,610368a8ded861a44430ef19,2021-07-29_19h51.38.465,Simcolourproject_2stim_asymm_v5,2020.2.10,MacIntel,60,61025ae37ef11b136ea224fe,,,,,,,,,3185,81,24,1,0,0,response1disk,,6,6,-10,1,0,0,rectangle,6,-10,1,0,0,6,-10,1,0,0,0,9,9,92,1,,,,,,,,
,,,,,,,,,,,,,FF,,,,,,,,1.8,,,,,,,,,,,,,,,,,,,,,,61007d53537409cd3125c6ca,610368a8ded861a44430ef19,2021-07-29_19h51.38.465,Simcolourproject_2stim_asymm_v5,2020.2.10,MacIntel,60,61025ae37ef11b136ea224fe,,,,,,,,,1996,80,45,1,0,0,response1disk,,6,9,4,1,0,0,rectangle,9,4,1,0,0,9,4,1,0,0,0,10,10,158,1,,,,,,,,
,,,,,,,,,,,,,FF,,,,,,,,2.684,,,,,,,,,,,,,,,,,,,,,,61007d53537409cd3125c6ca,610368a8ded861a44430ef19,2021-07-29_19h51.38.465,Simcolourproject_2stim_asymm_v5,2020.2.10,MacIntel,60,61025ae37ef11b136ea224fe,,,,,,,,,3826,-38,-77,1,0,0,response5disk,,3,-4,1,1,0,0,rectangle,-4,1,1,0,0,-4,1,1,0,0,0,11,11,18,1,,,,,,,,
,,,,,,,,,,,,,FF,,,,,,,,2.535,,,,,,,,,,,,,,,,,,,,,,61007d53537409cd3125c6ca,610368a8ded861a44430ef19,2021-07-29_19h51.38.465,Simcolourproject_2stim_asymm_v5,2020.2.10,MacIntel,60,61025ae37ef11b136ea224fe,,,,,,,,,2084,-26,-66,1,0,0,response5disk,,3,3,-6,1,0,0,rectangle,3,-6,1,0,0,3,-6,1,0,0,0,12,12,39,1,,,,,,,,
,,,,,,,,,,,,,FF,,,,,,,,1.649,,,,,,,,,,,,,,,,,,,,,,61007d53537409cd3125c6ca,610368a8ded861a44430ef19,2021-07-29_19h51.38.465,Simcolourproject_2stim_asymm_v5,2020.2.10,MacIntel,60,61025ae37ef11b136ea224fe,,,,,,,,,1753,-50,-29,1,0,0,response5disk,,2,6,-5,1,0,0,rectangle,6,-5,1,0,0,6,-5,1,0,0,0,13,13,116,1,,,,,,,,
,,,,,,,,,,,,,FF,,,,,,,,1.685,,,,,,,,,,,,,,,,,,,,,,61007d53537409cd3125c6ca,610368a8ded861a44430ef19,2021-07-29_19h51.38.465,Simcolourproject_2stim_asymm_v5,2020.2.10,MacIntel,60,61025ae37ef11b136ea224fe,,,,,,,,,2503,86,27,1,0,0,response1disk,,6,23,-8,1,0,0,rectangle,23,-8,1,0,0,23,-8,1,0,0,0,14,14,113,1,,,,,,,,
,,,,,,,,,,,,,FF,,,,,,,,0.917,,,,,,,,,,,,,,,,,,,,,,61007d53537409cd3125c6ca,610368a8ded861a44430ef19,2021-07-29_19h51.38.465,Simcolourproject_2stim_asymm_v5,2020.2.10,MacIntel,60,61025ae37ef11b136ea224fe,,,,,,,,,2987,-29,-59,1,0,0,response5disk,,3,10,-12,1,0,0,rectangle,10,-12,1,0,0,10,-12,1,0,0,0,15,15,37,1,,,,,,,,
,,,,,,,,,,,,,FF,,,,,,,,1.084,,,,,,,,,,,,,,,,,,,,,,61007d53537409cd3125c6ca,610368a8ded861a44430ef19,2021-07-29_19h51.38.465,Simcolourproject_2stim_asymm_v5,2020.2.10,MacIntel,60,61025ae37ef11b136ea224fe,,,,,,,,,416,66,-25,1,0,0,response3disk,,5,3,0,1,0,0,rectangle,3,0,1,0,0,3,0,1,0,0,0,16,16,0,1,,,,,,,,
,,,,,,,,,,,,,FF,,,,,,,,1.502,,,,,,,,,,,,,,,,,,,,,,61007d53537409cd3125c6ca,610368a8ded861a44430ef19,2021-07-29_19h51.38.465,Simcolourproject_2stim_asymm_v5,2020.2.10,MacIntel,60,61025ae37ef11b136ea224fe,,,,,,,,,2689,57,69,1,0,0,response1disk,,7,4,-5,1,0,0,rectangle,-57,34,1,0,0,-6,4,1,0,0,0,17,17,133,1,,response7disk_3,TRUE,1,1,"[18,149,19,251,8,245,254,175,173,149,130,197,111,219,283,70,195,27,107,138]",1.716,rectangle
,,,,,,,,,,,,,FF,,,,,,,,0.783,,,,,,,,,,,,,,,,,,,,,,61007d53537409cd3125c6ca,610368a8ded861a44430ef19,2021-07-29_19h51.38.465,Simcolourproject_2stim_asymm_v5,2020.2.10,MacIntel,60,61025ae37ef11b136ea224fe,,,,,,,,,1545,-30,-60,1,0,0,response5disk,,3,6,8,1,0,0,rectangle,-74,-47,1,0,0,-8,-5,1,0,0,0,18,18,61,1,,response5disk_3,TRUE,2,2,"[18,149,19,251,8,245,254,175,173,149,130,197,111,219,283,70,195,27,107,138]",2.417,rectangle
,,,,,,,,,,,,,FF,,,,,,,,3.685,,,,,,,,,,,,,,,,,,,,,,61007d53537409cd3125c6ca,610368a8ded861a44430ef19,2021-07-29_19h51.38.465,Simcolourproject_2stim_asymm_v5,2020.2.10,MacIntel,60,61025ae37ef11b136ea224fe,,,,,,,,,248,-43,-56,1,0,0,response5disk,,3,5,-3,1,0,0,rectangle,5,-3,1,0,0,5,-3,1,0,0,0,19,19,22,1,,,,,,,,
,,,,,,,,,,,,,FF,,,,,,,,1.8,,,,,,,,,,,,,,,,,,,,,,61007d53537409cd3125c6ca,610368a8ded861a44430ef19,2021-07-29_19h51.38.465,Simcolourproject_2stim_asymm_v5,2020.2.10,MacIntel,60,61025ae37ef11b136ea224fe,,,,,,,,,3402,42,-61,1,0,0,response3disk,,4,-2,-4,1,0,0,rectangle,-2,-4,1,0,0,-2,-4,1,0,0,0,20,20,136,1,,,,,,,,
,,,,,,,,,,,,,FF,,,,,,,,0.984,,,,,,,,,,,,,,,,,,,,,,61007d53537409cd3125c6ca,610368a8ded861a44430ef19,2021-07-29_19h51.38.465,Simcolourproject_2stim_asymm_v5,2020.2.10,MacIntel,60,61025ae37ef11b136ea224fe,,,,,,,,,2030,-57,22,1,0,0,response7disk,,1,9,3,1,0,0,rectangle,9,3,1,0,0,9,3,1,0,0,0,21,21,76,1,,,,,,,,
,,,,,,,,,,,,,FF,,,,,,,,0.899,,,,,,,,,,,,,,,,,,,,,,61007d53537409cd3125c6ca,610368a8ded861a44430ef19,2021-07-29_19h51.38.465,Simcolourproject_2stim_asymm_v5,2020.2.10,MacIntel,60,61025ae37ef11b136ea224fe,,,,,,,,,3597,-63,22,1,0,0,response7disk,,1,0,4,1,0,0,rectangle,0,4,1,0,0,0,4,1,0,0,0,22,22,2,1,,,,,,,,
,,,,,,,,,,,,,FF,,,,,,,,1.567,,,,,,,,,,,,,,,,,,,,,,61007d53537409cd3125c6ca,610368a8ded861a44430ef19,2021-07-29_19h51.38.465,Simcolourproject_2stim_asymm_v5,2020.2.10,MacIntel,60,61025ae37ef11b136ea224fe,,,,,,,,,98,-38,-65,1,0,0,response5disk,,3,-9,-6,1,0,0,rectangle,-9,-6,1,0,0,-9,-6,1,0,0,0,23,23,81,1,,,,,,,,
,,,,,,,,,,,,,FF,,,,,,,,0.683,,,,,,,,,,,,,,,,,,,,,,61007d53537409cd3125c6ca,610368a8ded861a44430ef19,2021-07-29_19h51.38.465,Simcolourproject_2stim_asymm_v5,2020.2.10,MacIntel,60,61025ae37ef11b136ea224fe,,,,,,,,,3431,-63,-32,1,0,0,response5disk,,2,-6,-12,1,0,0,rectangle,-6,-12,1,0,0,-6,-12,1,0,0,0,24,24,46,1,,,,,,,,
,,,,,,,,,,,,,FF,,,,,,,,0.85,,,,,,,,,,,,,,,,,,,,,,61007d53537409cd3125c6ca,610368a8ded861a44430ef19,2021-07-29_19h51.38.465,Simcolourproject_2stim_asymm_v5,2020.2.10,MacIntel,60,61025ae37ef11b136ea224fe,,,,,,,,,348,-38,-49,1,0,0,response5disk,,3,-20,4,1,0,0,rectangle,-20,4,1,0,0,-20,4,1,0,0,0,25,25,89,1,,,,,,,,
,,,,,,,,,,,,,FF,,,,,,,,1.201,,,,,,,,,,,,,,,,,,,,,,61007d53537409cd3125c6ca,610368a8ded861a44430ef19,2021-07-29_19h51.38.465,Simcolourproject_2stim_asymm_v5,2020.2.10,MacIntel,60,61025ae37ef11b136ea224fe,,,,,,,,,1156,35,-58,1,0,0,response3disk,,4,8,-7,1,0,0,rectangle,81,45,1,0,0,2,5,1,0,0,0,26,26,154,1,,response1disk_3,TRUE,6,6,"[18,149,19,251,8,245,254,175,173,149,130,197,111,219,283,70,195,27,107,138]",1.883,rectangle
,,,,,,,,,,,,,FF,,,,,,,,1.783,,,,,,,,,,,,,,,,,,,,,,61007d53537409cd3125c6ca,610368a8ded861a44430ef19,2021-07-29_19h51.38.465,Simcolourproject_2stim_asymm_v5,2020.2.10,MacIntel,60,61025ae37ef11b136ea224fe,,,,,,,,,2221,30,-81,1,0,0,response3disk,,4,-3,-3,1,0,0,rectangle,-3,-3,1,0,0,-3,-3,1,0,0,0,27,27,106,1,,,,,,,,
,,,,,,,,,,,,,FF,,,,,,,,1.267,,,,,,,,,,,,,,,,,,,,,,61007d53537409cd3125c6ca,610368a8ded861a44430ef19,2021-07-29_19h51.38.465,Simcolourproject_2stim_asymm_v5,2020.2.10,MacIntel,60,61025ae37ef11b136ea224fe,,,,,,,,,2198,65,40,1,0,0,response1disk,,6,5,-3,1,0,0,rectangle,5,-3,1,0,0,5,-3,1,0,0,0,28,28,118,1,,,,,,,,
,,,,,,,,,,,,,FF,,,,,,,,1,,,,,,,,,,,,,,,,,,,,,,61007d53537409cd3125c6ca,610368a8ded861a44430ef19,2021-07-29_19h51.38.465,Simcolourproject_2stim_asymm_v5,2020.2.10,MacIntel,60,61025ae37ef11b136ea224fe,,,,,,,,,3967,-48,-30,1,0,0,response5disk,,2,-4,3,1,0,0,rectangle,-4,3,1,0,0,-4,3,1,0,0,0,29,29,56,1,,,,,,,,
,,,,,,,,,,,,,FF,,,,,,,,1.55,,,,,,,,,,,,,,,,,,,,,,61007d53537409cd3125c6ca,610368a8ded861a44430ef19,2021-07-29_19h51.38.465,Simcolourproject_2stim_asymm_v5,2020.2.10,MacIntel,60,61025ae37ef11b136ea224fe,,,,,,,,,3182,66,-41,1,0,0,response3disk,,5,-3,-4,1,0,0,rectangle,-3,-4,1,0,0,-3,-4,1,0,0,0,30,30,156,1,,,,,,,,
,,,,,,,,,,,,,FF,,,,,,,,1.684,,,,,,,,,,,,,,,,,,,,,,61007d53537409cd3125c6ca,610368a8ded861a44430ef19,2021-07-29_19h51.38.465,Simcolourproject_2stim_asymm_v5,2020.2.10,MacIntel,60,61025ae37ef11b136ea224fe,,,,,,,,,2588,60,17,1,0,0,response1disk,,6,19,6,1,0,0,rectangle,19,6,1,0,0,19,6,1,0,0,0,31,31,146,1,,,,,,,,
,,,,,,,,,,,,,FF,,,,,,,,7.469,,,,,,,,,,,,,,,,,,,,,,61007d53537409cd3125c6ca,610368a8ded861a44430ef19,2021-07-29_19h51.38.465,Simcolourproject_2stim_asymm_v5,2020.2.10,MacIntel,60,61025ae37ef11b136ea224fe,,,,,,,,,4158,-58,35,1,0,0,response7disk,,1,1,4,1,0,0,rectangle,1,4,1,0,0,1,4,1,0,0,0,32,32,151,1,,,,,,,,
,,,,,,,,,,,,,FF,,,,,,,,2.301,,,,,,,,,,,,,,,,,,,,,,61007d53537409cd3125c6ca,610368a8ded861a44430ef19,2021-07-29_19h51.38.465,Simcolourproject_2stim_asymm_v5,2020.2.10,MacIntel,60,61025ae37ef11b136ea224fe,,,,,,,,,1517,-37,-75,1,0,0,response5disk,,3,-19,0,1,0,0,rectangle,-19,0,1,0,0,-19,0,1,0,0,0,33,33,29,1,,,,,,,,
,,,,,,,,,,,,,FF,,,,,,,,4.635,,,,,,,,,,,,,,,,,,,,,,61007d53537409cd3125c6ca,610368a8ded861a44430ef19,2021-07-29_19h51.38.465,Simcolourproject_2stim_asymm_v5,2020.2.10,MacIntel,60,61025ae37ef11b136ea224fe,,,,,,,,,4239,54,-60,1,0,0,response3disk,,4,-2,-4,1,0,0,rectangle,-2,-4,1,0,0,-2,-4,1,0,0,0,34,34,93,1,,,,,,,,
,,,,,,,,,,,,,FF,,,,,,,,0.85,,,,,,,,,,,,,,,,,,,,,,61007d53537409cd3125c6ca,610368a8ded861a44430ef19,2021-07-29_19h51.38.465,Simcolourproject_2stim_asymm_v5,2020.2.10,MacIntel,60,61025ae37ef11b136ea224fe,,,,,,,,,532,-59,-31,1,0,0,response5disk,,2,26,10,1,0,0,rectangle,26,10,1,0,0,26,10,1,0,0,0,35,35,64,1,,,,,,,,
,,,,,,,,,,,,,FF,,,,,,,,0.783,,,,,,,,,,,,,,,,,,,,,,61007d53537409cd3125c6ca,610368a8ded861a44430ef19,2021-07-29_19h51.38.465,Simcolourproject_2stim_asymm_v5,2020.2.10,MacIntel,60,61025ae37ef11b136ea224fe,,,,,,,,,2431,-51,-67,1,0,0,response5disk,,3,-6,-1,1,0,0,rectangle,-6,-1,1,0,0,-6,-1,1,0,0,0,36,36,8,1,,,,,,,,
,,,,,,,,,,,,,FF,,,,,,,,1.117,,,,,,,,,,,,,,,,,,,,,,61007d53537409cd3125c6ca,610368a8ded861a44430ef19,2021-07-29_19h51.38.465,Simcolourproject_2stim_asymm_v5,2020.2.10,MacIntel,60,61025ae37ef11b136ea224fe,,,,,,,,,2514,59,42,1,0,0,response1disk,,6,13,4,1,0,0,rectangle,13,4,1,0,0,13,4,1,0,0,0,37,37,102,1,,,,,,,,
,,,,,,,,,,,,,FF,,,,,,,,1.534,,,,,,,,,,,,,,,,,,,,,,61007d53537409cd3125c6ca,610368a8ded861a44430ef19,2021-07-29_19h51.38.465,Simcolourproject_2stim_asymm_v5,2020.2.10,MacIntel,60,61025ae37ef11b136ea224fe,,,,,,,,,4272,56,24,1,0,0,response1disk,,6,19,1,1,0,0,rectangle,19,1,1,0,0,19,1,1,0,0,0,38,38,54,1,,,,,,,,
,,,,,,,,,,,,,FF,,,,,,,,1.183,,,,,,,,,,,,,,,,,,,,,,61007d53537409cd3125c6ca,610368a8ded861a44430ef19,2021-07-29_19h51.38.465,Simcolourproject_2stim_asymm_v5,2020.2.10,MacIntel,60,61025ae37ef11b136ea224fe,,,,,,,,,2048,62,-26,1,0,0,response3disk,,5,12,3,1,0,0,rectangle,12,3,1,0,0,12,3,1,0,0,0,39,39,12,1,,,,,,,,
,,,,,,,,,,,,,FF,,,,,,,,1.585,,,,,,,,,,,,,,,,,,,,,,61007d53537409cd3125c6ca,610368a8ded861a44430ef19,2021-07-29_19h51.38.465,Simcolourproject_2stim_asymm_v5,2020.2.10,MacIntel,60,61025ae37ef11b136ea224fe,,,,,,,,,3205,-57,-36,1,0,0,response5disk,,2,-7,-4,1,0,0,rectangle,-7,-4,1,0,0,-7,-4,1,0,0,0,40,40,67,1,,,,,,,,
,,,,,,,,,,,,,FF,,,,,,,,0.933,,,,,,,,,,,,,,,,,,,,,,61007d53537409cd3125c6ca,610368a8ded861a44430ef19,2021-07-29_19h51.38.465,Simcolourproject_2stim_asymm_v5,2020.2.10,MacIntel,60,61025ae37ef11b136ea224fe,,,,,,,,,2551,65,-67,1,0,0,response3disk,,4,5,7,1,0,0,rectangle,5,7,1,0,0,5,7,1,0,0,0,41,41,84,1,,,,,,,,
,,,,,,,,,,,,,FF,,,,,,,,1.551,,,,,,,,,,,,,,,,,,,,,,61007d53537409cd3125c6ca,610368a8ded861a44430ef19,2021-07-29_19h51.38.465,Simcolourproject_2stim_asymm_v5,2020.2.10,MacIntel,60,61025ae37ef11b136ea224fe,,,,,,,,,1511,35,-62,1,0,0,response3disk,,4,11,-13,1,0,0,rectangle,11,-13,1,0,0,11,-13,1,0,0,0,42,42,124,1,,,,,,,,
,,,,,,,,,,,,,FF,,,,,,,,0.917,,,,,,,,,,,,,,,,,,,,,,61007d53537409cd3125c6ca,610368a8ded861a44430ef19,2021-07-29_19h51.38.465,Simcolourproject_2stim_asymm_v5,2020.2.10,MacIntel,60,61025ae37ef11b136ea224fe,,,,,,,,,4266,-33,56,1,0,0,response7disk,,0,9,-8,1,0,0,rectangle,9,-8,1,0,0,9,-8,1,0,0,0,43,43,122,1,,,,,,,,
,,,,,,,,,,,,,FF,,,,,,,,2.569,,,,,,,,,,,,,,,,,,,,,,61007d53537409cd3125c6ca,610368a8ded861a44430ef19,2021-07-29_19h51.38.465,Simcolourproject_2stim_asymm_v5,2020.2.10,MacIntel,60,61025ae37ef11b136ea224fe,,,,,,,,,4018,67,-28,1,0,0,response3disk,,5,16,0,1,0,0,rectangle,16,0,1,0,0,16,0,1,0,0,0,44,44,75,1,,,,,,,,
,,,,,,,,,,,,,FF,,,,,,,,0.766,,,,,,,,,,,,,,,,,,,,,,61007d53537409cd3125c6ca,610368a8ded861a44430ef19,2021-07-29_19h51.38.465,Simcolourproject_2stim_asymm_v5,2020.2.10,MacIntel,60,61025ae37ef11b136ea224fe,,,,,,,,,3741,-47,-26,1,0,0,response5disk,,2,14,-6,1,0,0,rectangle,14,-6,1,0,0,14,-6,1,0,0,0,45,45,77,1,,,,,,,,
,,,,,,,,,,,,,FF,,,,,,,,1.485,,,,,,,,,,,,,,,,,,,,,,61007d53537409cd3125c6ca,610368a8ded861a44430ef19,2021-07-29_19h51.38.465,Simcolourproject_2stim_asymm_v5,2020.2.10,MacIntel,60,61025ae37ef11b136ea224fe,,,,,,,,,1661,56,23,1,0,0,response1disk,,6,7,5,1,0,0,rectangle,7,5,1,0,0,7,5,1,0,0,0,46,46,6,1,,,,,,,,
,,,,,,,,,,,,,FF,,,,,,,,1,,,,,,,,,,,,,,,,,,,,,,61007d53537409cd3125c6ca,610368a8ded861a44430ef19,2021-07-29_19h51.38.465,Simcolourproject_2stim_asymm_v5,2020.2.10,MacIntel,60,61025ae37ef11b136ea224fe,,,,,,,,,2292,-34,52,1,0,0,response7disk,,0,-9,3,1,0,0,rectangle,-9,3,1,0,0,-9,3,1,0,0,0,47,47,58,1,,,,,,,,
,,,,,,,,,,,,,FF,,,,,,,,1.452,,,,,,,,,,,,,,,,,,,,,,61007d53537409cd3125c6ca,610368a8ded861a44430ef19,2021-07-29_19h51.38.465,Simcolourproject_2stim_asymm_v5,2020.2.10,MacIntel,60,61025ae37ef11b136ea224fe,,,,,,,,,2587,79,-25,1,0,0,response3disk,,5,8,8,1,0,0,rectangle,8,8,1,0,0,8,8,1,0,0,0,48,48,96,1,,,,,,,,
,,,,,,,,,,,,,FF,,,,,,,,1.785,,,,,,,,,,,,,,,,,,,,,,61007d53537409cd3125c6ca,610368a8ded861a44430ef19,2021-07-29_19h51.38.465,Simcolourproject_2stim_asymm_v5,2020.2.10,MacIntel,60,61025ae37ef11b136ea224fe,,,,,,,,,3260,64,-33,1,0,0,response3disk,,5,19,-3,1,0,0,rectangle,19,-3,1,0,0,19,-3,1,0,0,0,49,49,83,1,,,,,,,,
,,,,,,,,,,,,,FF,,,,,,,,1.634,,,,,,,,,,,,,,,,,,,,,,61007d53537409cd3125c6ca,610368a8ded861a44430ef19,2021-07-29_19h51.38.465,Simcolourproject_2stim_asymm_v5,2020.2.10,MacIntel,60,61025ae37ef11b136ea224fe,,,,,,,,,1352,28,-61,1,0,0,response3disk,,4,3,-8,1,0,0,rectangle,3,-8,1,0,0,3,-8,1,0,0,0,50,50,47,1,,,,,,,,
,,,,,,,,,,,,,FF,,,,,,,,1.185,,,,,,,,,,,,,,,,,,,,,,61007d53537409cd3125c6ca,610368a8ded861a44430ef19,2021-07-29_19h51.38.465,Simcolourproject_2stim_asymm_v5,2020.2.10,MacIntel,60,61025ae37ef11b136ea224fe,,,,,,,,,860,-31,-61,1,0,0,response5disk,,3,-7,-5,1,0,0,rectangle,-7,-5,1,0,0,-7,-5,1,0,0,0,51,51,105,1,,,,,,,,
,,,,,,,,,,,,,FF,,,,,,,,1.15,,,,,,,,,,,,,,,,,,,,,,61007d53537409cd3125c6ca,610368a8ded861a44430ef19,2021-07-29_19h51.38.465,Simcolourproject_2stim_asymm_v5,2020.2.10,MacIntel,60,61025ae37ef11b136ea224fe,,,,,,,,,1641,83,22,1,0,0,response1disk,,6,14,-5,1,0,0,rectangle,14,-5,1,0,0,14,-5,1,0,0,0,52,52,9,1,,,,,,,,
,,,,,,,,,,,,,FF,,,,,,,,1.433,,,,,,,,,,,,,,,,,,,,,,61007d53537409cd3125c6ca,610368a8ded861a44430ef19,2021-07-29_19h51.38.465,Simcolourproject_2stim_asymm_v5,2020.2.10,MacIntel,60,61025ae37ef11b136ea224fe,,,,,,,,,2161,-71,-37,1,0,0,response5disk,,2,12,8,1,0,0,rectangle,12,8,1,0,0,12,8,1,0,0,0,53,53,117,1,,,,,,,,
,,,,,,,,,,,,,FF,,,,,,,,0.801,,,,,,,,,,,,,,,,,,,,,,61007d53537409cd3125c6ca,610368a8ded861a44430ef19,2021-07-29_19h51.38.465,Simcolourproject_2stim_asymm_v5,2020.2.10,MacIntel,60,61025ae37ef11b136ea224fe,,,,,,,,,1557,81,18,1,0,0,response1disk,,6,8,-3,1,0,0,rectangle,8,-3,1,0,0,8,-3,1,0,0,0,54,54,62,1,,,,,,,,
,,,,,,,,,,,,,FF,,,,,,,,2.002,,,,,,,,,,,,,,,,,,,,,,61007d53537409cd3125c6ca,610368a8ded861a44430ef19,2021-07-29_19h51.38.465,Simcolourproject_2stim_asymm_v5,2020.2.10,MacIntel,60,61025ae37ef11b136ea224fe,,,,,,,,,1164,68,30,1,0,0,response1disk,,6,17,8,1,0,0,rectangle,17,8,1,0,0,17,8,1,0,0,0,55,55,44,1,,,,,,,,
,,,,,,,,,,,,,FF,,,,,,,,0.949,,,,,,,,,,,,,,,,,,,,,,61007d53537409cd3125c6ca,610368a8ded861a44430ef19,2021-07-29_19h51.38.465,Simcolourproject_2stim_asymm_v5,2020.2.10,MacIntel,60,61025ae37ef11b136ea224fe,,,,,,,,,2196,59,15,1,0,0,response1disk,,6,23,10,1,0,0,rectangle,23,10,1,0,0,23,10,1,0,0,0,56,56,16,1,,,,,,,,
,,,,,,,,,,,,,FF,,,,,,,,1.634,,,,,,,,,,,,,,,,,,,,,,61007d53537409cd3125c6ca,610368a8ded861a44430ef19,2021-07-29_19h51.38.465,Simcolourproject_2stim_asymm_v5,2020.2.10,MacIntel,60,61025ae37ef11b136ea224fe,,,,,,,,,2942,-47,-34,1,0,0,response5disk,,2,-1,-11,1,0,0,rectangle,-1,-11,1,0,0,-1,-11,1,0,0,0,57,57,40,1,,,,,,,,
,,,,,,,,,,,,,FF,,,,,,,,0.818,,,,,,,,,,,,,,,,,,,,,,61007d53537409cd3125c6ca,610368a8ded861a44430ef19,2021-07-29_19h51.38.465,Simcolourproject_2stim_asymm_v5,2020.2.10,MacIntel,60,61025ae37ef11b136ea224fe,,,,,,,,,511,71,-18,1,0,0,response3disk,,5,6,1,1,0,0,rectangle,6,1,1,0,0,6,1,1,0,0,0,58,58,21,1,,,,,,,,
,,,,,,,,,,,,,FF,,,,,,,,2.201,,,,,,,,,,,,,,,,,,,,,,61007d53537409cd3125c6ca,610368a8ded861a44430ef19,2021-07-29_19h51.38.465,Simcolourproject_2stim_asymm_v5,2020.2.10,MacIntel,60,61025ae37ef11b136ea224fe,,,,,,,,,3860,44,-25,1,0,0,response3disk,,5,14,-4,1,0,0,rectangle,14,-4,1,0,0,14,-4,1,0,0,0,59,59,42,1,,,,,,,,
,,,,,,,,,,,,,FF,,,,,,,,1,,,,,,,,,,,,,,,,,,,,,,61007d53537409cd3125c6ca,610368a8ded861a44430ef19,2021-07-29_19h51.38.465,Simcolourproject_2stim_asymm_v5,2020.2.10,MacIntel,60,61025ae37ef11b136ea224fe,,,,,,,,,2614,24,-52,1,0,0,response3disk,,4,15,-3,1,0,0,rectangle,15,-3,1,0,0,15,-3,1,0,0,0,60,60,95,1,,,,,,,,
,,,,,,,,,,,,,FF,,,,,,,,0.952,,,,,,,,,,,,,,,,,,,,,,61007d53537409cd3125c6ca,610368a8ded861a44430ef19,2021-07-29_19h51.38.465,Simcolourproject_2stim_asymm_v5,2020.2.10,MacIntel,60,61025ae37ef11b136ea224fe,,,,,,,,,4310,62,-38,1,0,0,response3disk,,5,13,4,1,0,0,rectangle,13,4,1,0,0,13,4,1,0,0,0,61,61,48,1,,,,,,,,
,,,,,,,,,,,,,FF,,,,,,,,1,,,,,,,,,,,,,,,,,,,,,,61007d53537409cd3125c6ca,610368a8ded861a44430ef19,2021-07-29_19h51.38.465,Simcolourproject_2stim_asymm_v5,2020.2.10,MacIntel,60,61025ae37ef11b136ea224fe,,,,,,,,,2213,51,-26,1,0,0,response3disk,,5,20,2,1,0,0,rectangle,20,2,1,0,0,20,2,1,0,0,0,62,62,109,1,,,,,,,,
,,,,,,,,,,,,,FF,,,,,,,,1.017,,,,,,,,,,,,,,,,,,,,,,61007d53537409cd3125c6ca,610368a8ded861a44430ef19,2021-07-29_19h51.38.465,Simcolourproject_2stim_asymm_v5,2020.2.10,MacIntel,60,61025ae37ef11b136ea224fe,,,,,,,,,331,75,-33,1,0,0,response3disk,,5,13,1,1,0,0,rectangle,13,1,1,0,0,13,1,1,0,0,0,63,63,98,1,,,,,,,,
,,,,,,,,,,,,,FF,,,,,,,,0.899,,,,,,,,,,,,,,,,,,,,,,61007d53537409cd3125c6ca,610368a8ded861a44430ef19,2021-07-29_19h51.38.465,Simcolourproject_2stim_asymm_v5,2020.2.10,MacIntel,60,61025ae37ef11b136ea224fe,,,,,,,,,3219,66,26,1,0,0,response1disk,,6,17,10,1,0,0,rectangle,17,10,1,0,0,17,10,1,0,0,0,64,64,55,1,,,,,,,,
,,,,,,,,,,,,,FF,,,,,,,,0.733,,,,,,,,,,,,,,,,,,,,,,61007d53537409cd3125c6ca,610368a8ded861a44430ef19,2021-07-29_19h51.38.465,Simcolourproject_2stim_asymm_v5,2020.2.10,MacIntel,60,61025ae37ef11b136ea224fe,,,,,,,,,3756,58,33,1,0,0,response1disk,,6,26,11,1,0,0,rectangle,26,11,1,0,0,26,11,1,0,0,0,65,65,143,1,,,,,,,,
,,,,,,,,,,,,,FF,,,,,,,,1.517,,,,,,,,,,,,,,,,,,,,,,61007d53537409cd3125c6ca,610368a8ded861a44430ef19,2021-07-29_19h51.38.465,Simcolourproject_2stim_asymm_v5,2020.2.10,MacIntel,60,61025ae37ef11b136ea224fe,,,,,,,,,2256,51,35,1,0,0,response1disk,,6,21,10,1,0,0,rectangle,21,10,1,0,0,21,10,1,0,0,0,66,66,130,1,,,,,,,,
,,,,,,,,,,,,,FF,,,,,,,,0.785,,,,,,,,,,,,,,,,,,,,,,61007d53537409cd3125c6ca,610368a8ded861a44430ef19,2021-07-29_19h51.38.465,Simcolourproject_2stim_asymm_v5,2020.2.10,MacIntel,60,61025ae37ef11b136ea224fe,,,,,,,,,278,-44,-32,1,0,0,response5disk,,2,-3,8,1,0,0,rectangle,-3,8,1,0,0,-3,8,1,0,0,0,67,67,123,1,,,,,,,,
,,,,,,,,,,,,,FF,,,,,,,,1.901,,,,,,,,,,,,,,,,,,,,,,61007d53537409cd3125c6ca,610368a8ded861a44430ef19,2021-07-29_19h51.38.465,Simcolourproject_2stim_asymm_v5,2020.2.10,MacIntel,60,61025ae37ef11b136ea224fe,,,,,,,,,2432,96,-48,1,0,0,response3disk,,5,18,-6,1,0,0,rectangle,18,-6,1,0,0,18,-6,1,0,0,0,68,68,32,1,,,,,,,,
,,,,,,,,,,,,,FF,,,,,,,,1.233,,,,,,,,,,,,,,,,,,,,,,61007d53537409cd3125c6ca,610368a8ded861a44430ef19,2021-07-29_19h51.38.465,Simcolourproject_2stim_asymm_v5,2020.2.10,MacIntel,60,61025ae37ef11b136ea224fe,,,,,,,,,631,-71,-43,1,0,0,response5disk,,2,4,4,1,0,0,rectangle,32,-83,1,0,0,6,-9,1,0,0,0,69,69,71,1,,response3disk_3,TRUE,4,4,"[18,149,19,251,8,245,254,175,173,149,130,197,111,219,283,70,195,27,107,138]",2.234,rectangle
,,,,,,,,,,,,,FF,,,,,,,,2.685,,,,,,,,,,,,,,,,,,,,,,61007d53537409cd3125c6ca,610368a8ded861a44430ef19,2021-07-29_19h51.38.465,Simcolourproject_2stim_asymm_v5,2020.2.10,MacIntel,60,61025ae37ef11b136ea224fe,,,,,,,,,3353,84,-31,1,0,0,response3disk,,5,3,-6,1,0,0,rectangle,3,-6,1,0,0,3,-6,1,0,0,0,70,70,88,1,,,,,,,,
,,,,,,,,,,,,,FF,,,,,,,,5.253,,,,,,,,,,,,,,,,,,,,,,61007d53537409cd3125c6ca,610368a8ded861a44430ef19,2021-07-29_19h51.38.465,Simcolourproject_2stim_asymm_v5,2020.2.10,MacIntel,60,61025ae37ef11b136ea224fe,,,,,,,,,223,-31,-69,1,0,0,response5disk,,3,-15,-10,1,0,0,rectangle,-15,-10,1,0,0,-15,-10,1,0,0,0,71,71,126,1,,,,,,,,
,,,,,,,,,,,,,FF,,,,,,,,0.566,,,,,,,,,,,,,,,,,,,,,,61007d53537409cd3125c6ca,610368a8ded861a44430ef19,2021-07-29_19h51.38.465,Simcolourproject_2stim_asymm_v5,2020.2.10,MacIntel,60,61025ae37ef11b136ea224fe,,,,,,,,,874,53,-43,1,0,0,response3disk,,5,12,-2,1,0,0,rectangle,12,-2,1,0,0,12,-2,1,0,0,0,72,72,51,1,,,,,,,,
,,,,,,,,,,,,,FF,,,,,,,,1.266,,,,,,,,,,,,,,,,,,,,,,61007d53537409cd3125c6ca,610368a8ded861a44430ef19,2021-07-29_19h51.38.465,Simcolourproject_2stim_asymm_v5,2020.2.10,MacIntel,60,61025ae37ef11b136ea224fe,,,,,,,,,3417,-18,-75,1,0,0,response5disk,,3,19,0,1,0,0,rectangle,19,0,1,0,0,19,0,1,0,0,0,73,73,11,1,,,,,,,,
,,,,,,,,,,,,,FF,,,,,,,,0.634,,,,,,,,,,,,,,,,,,,,,,61007d53537409cd3125c6ca,610368a8ded861a44430ef19,2021-07-29_19h51.38.465,Simcolourproject_2stim_asymm_v5,2020.2.10,MacIntel,60,61025ae37ef11b136ea224fe,,,,,,,,,234,56,-36,1,0,0,response3disk,,5,18,-2,1,0,0,rectangle,18,-2,1,0,0,18,-2,1,0,0,0,74,74,72,1,,,,,,,,
,,,,,,,,,,,,,FF,,,,,,,,1.3,,,,,,,,,,,,,,,,,,,,,,61007d53537409cd3125c6ca,610368a8ded861a44430ef19,2021-07-29_19h51.38.465,Simcolourproject_2stim_asymm_v5,2020.2.10,MacIntel,60,61025ae37ef11b136ea224fe,,,,,,,,,4257,64,35,1,0,0,response1disk,,6,8,0,1,0,0,rectangle,8,0,1,0,0,8,0,1,0,0,0,75,75,7,1,,,,,,,,
,,,,,,,,,,,,,FF,,,,,,,,1.284,,,,,,,,,,,,,,,,,,,,,,61007d53537409cd3125c6ca,610368a8ded861a44430ef19,2021-07-29_19h51.38.465,Simcolourproject_2stim_asymm_v5,2020.2.10,MacIntel,60,61025ae37ef11b136ea224fe,,,,,,,,,2245,47,-31,1,0,0,response3disk,,5,8,-12,1,0,0,rectangle,8,-12,1,0,0,8,-12,1,0,0,0,76,76,132,1,,,,,,,,
,,,,,,,,,,,,,FF,,,,,,,,1,,,,,,,,,,,,,,,,,,,,,,61007d53537409cd3125c6ca,610368a8ded861a44430ef19,2021-07-29_19h51.38.465,Simcolourproject_2stim_asymm_v5,2020.2.10,MacIntel,60,61025ae37ef11b136ea224fe,,,,,,,,,3570,67,-34,1,0,0,response3disk,,5,9,2,1,0,0,rectangle,9,2,1,0,0,9,2,1,0,0,0,77,77,1,1,,,,,,,,
,,,,,,,,,,,,,FF,,,,,,,,1.251,,,,,,,,,,,,,,,,,,,,,,61007d53537409cd3125c6ca,610368a8ded861a44430ef19,2021-07-29_19h51.38.465,Simcolourproject_2stim_asymm_v5,2020.2.10,MacIntel,60,61025ae37ef11b136ea224fe,,,,,,,,,1147,28,-77,1,0,0,response3disk,,4,7,1,1,0,0,rectangle,7,1,1,0,0,7,1,1,0,0,0,78,78,125,1,,,,,,,,
,,,,,,,,,,,,,FF,,,,,,,,1.35,,,,,,,,,,,,,,,,,,,,,,61007d53537409cd3125c6ca,610368a8ded861a44430ef19,2021-07-29_19h51.38.465,Simcolourproject_2stim_asymm_v5,2020.2.10,MacIntel,60,61025ae37ef11b136ea224fe,,,,,,,,,559,49,-60,1,0,0,response3disk,,4,18,-3,1,0,0,rectangle,18,-3,1,0,0,18,-3,1,0,0,0,79,79,17,1,,,,,,,,
,,,,,,,,,,,,,FF,,,,,,,,0.634,,,,,,,,,,,,,,,,,,,,,,61007d53537409cd3125c6ca,610368a8ded861a44430ef19,2021-07-29_19h51.38.465,Simcolourproject_2stim_asymm_v5,2020.2.10,MacIntel,60,61025ae37ef11b136ea224fe,,,,,,,,,2197,82,-36,1,0,0,response3disk,,5,22,1,1,0,0,rectangle,22,1,1,0,0,22,1,1,0,0,0,80,80,101,1,,,,,,,,
,,,,,,,,,,,,,FF,,,,,,,,1.001,,,,,,,,,,,,,,,,,,,,,,61007d53537409cd3125c6ca,610368a8ded861a44430ef19,2021-07-29_19h51.38.465,Simcolourproject_2stim_asymm_v5,2020.2.10,MacIntel,60,61025ae37ef11b136ea224fe,,,,,,,,,3833,67,-35,1,0,0,response3disk,,5,18,-6,1,0,0,rectangle,18,-6,1,0,0,18,-6,1,0,0,0,81,81,128,1,,,,,,,,
,,,,,,,,,,,,,FF,,,,,,,,1.568,,,,,,,,,,,,,,,,,,,,,,61007d53537409cd3125c6ca,610368a8ded861a44430ef19,2021-07-29_19h51.38.465,Simcolourproject_2stim_asymm_v5,2020.2.10,MacIntel,60,61025ae37ef11b136ea224fe,,,,,,,,,2606,-31,-45,1,0,0,response5disk,,3,-8,7,1,0,0,rectangle,-8,7,1,0,0,-8,7,1,0,0,0,82,82,15,1,,,,,,,,
,,,,,,,,,,,,,FF,,,,,,,,0.867,,,,,,,,,,,,,,,,,,,,,,61007d53537409cd3125c6ca,610368a8ded861a44430ef19,2021-07-29_19h51.38.465,Simcolourproject_2stim_asymm_v5,2020.2.10,MacIntel,60,61025ae37ef11b136ea224fe,,,,,,,,,1314,-35,-68,1,0,0,response5disk,,3,-12,13,1,0,0,rectangle,-12,13,1,0,0,-12,13,1,0,0,0,83,83,52,1,,,,,,,,
,,,,,,,,,,,,,FF,,,,,,,,0.817,,,,,,,,,,,,,,,,,,,,,,61007d53537409cd3125c6ca,610368a8ded861a44430ef19,2021-07-29_19h51.38.465,Simcolourproject_2stim_asymm_v5,2020.2.10,MacIntel,60,61025ae37ef11b136ea224fe,,,,,,,,,2020,70,-49,1,0,0,response3disk,,5,9,-12,1,0,0,rectangle,9,-12,1,0,0,9,-12,1,0,0,0,84,84,121,1,,,,,,,,
,,,,,,,,,,,,,FF,,,,,,,,2.434,,,,,,,,,,,,,,,,,,,,,,61007d53537409cd3125c6ca,610368a8ded861a44430ef19,2021-07-29_19h51.38.465,Simcolourproject_2stim_asymm_v5,2020.2.10,MacIntel,60,61025ae37ef11b136ea224fe,,,,,,,,,1328,83,-50,1,0,0,response3disk,,5,20,-5,1,0,0,rectangle,20,-5,1,0,0,20,-5,1,0,0,0,85,85,85,1,,,,,,,,
,,,,,,,,,,,,,FF,,,,,,,,0.8,,,,,,,,,,,,,,,,,,,,,,61007d53537409cd3125c6ca,610368a8ded861a44430ef19,2021-07-29_19h51.38.465,Simcolourproject_2stim_asymm_v5,2020.2.10,MacIntel,60,61025ae37ef11b136ea224fe,,,,,,,,,3234,75,45,1,0,0,response1disk,,6,14,4,1,0,0,rectangle,14,4,1,0,0,14,4,1,0,0,0,86,86,25,1,,,,,,,,
,,,,,,,,,,,,,FF,,,,,,,,0.8,,,,,,,,,,,,,,,,,,,,,,61007d53537409cd3125c6ca,610368a8ded861a44430ef19,2021-07-29_19h51.38.465,Simcolourproject_2stim_asymm_v5,2020.2.10,MacIntel,60,61025ae37ef11b136ea224fe,,,,,,,,,1106,61,21,1,0,0,response1disk,,6,9,9,1,0,0,rectangle,9,9,1,0,0,9,9,1,0,0,0,87,87,111,1,,,,,,,,
,,,,,,,,,,,,,FF,,,,,,,,2.068,,,,,,,,,,,,,,,,,,,,,,61007d53537409cd3125c6ca,610368a8ded861a44430ef19,2021-07-29_19h51.38.465,Simcolourproject_2stim_asymm_v5,2020.2.10,MacIntel,60,61025ae37ef11b136ea224fe,,,,,,,,,4068,78,-34,1,0,0,response3disk,,5,18,-5,1,0,0,rectangle,18,-5,1,0,0,18,-5,1,0,0,0,88,88,153,1,,,,,,,,
,,,,,,,,,,,,,FF,,,,,,,,1.402,,,,,,,,,,,,,,,,,,,,,,61007d53537409cd3125c6ca,610368a8ded861a44430ef19,2021-07-29_19h51.38.465,Simcolourproject_2stim_asymm_v5,2020.2.10,MacIntel,60,61025ae37ef11b136ea224fe,,,,,,,,,2102,-40,-20,1,0,0,response5disk,,2,2,2,1,0,0,rectangle,2,2,1,0,0,2,2,1,0,0,0,89,89,155,1,,,,,,,,
,,,,,,,,,,,,,FF,,,,,,,,2.05,,,,,,,,,,,,,,,,,,,,,,61007d53537409cd3125c6ca,610368a8ded861a44430ef19,2021-07-29_19h51.38.465,Simcolourproject_2stim_asymm_v5,2020.2.10,MacIntel,60,61025ae37ef11b136ea224fe,,,,,,,,,2436,58,40,1,0,0,response1disk,,6,3,3,1,0,0,rectangle,3,3,1,0,0,3,3,1,0,0,0,90,90,38,1,,,,,,,,
,,,,,,,,,,,,,FF,,,,,,,,1.3,,,,,,,,,,,,,,,,,,,,,,61007d53537409cd3125c6ca,610368a8ded861a44430ef19,2021-07-29_19h51.38.465,Simcolourproject_2stim_asymm_v5,2020.2.10,MacIntel,60,61025ae37ef11b136ea224fe,,,,,,,,,3399,-20,-34,1,0,0,response5disk,,3,-5,8,1,0,0,rectangle,-5,8,1,0,0,-5,8,1,0,0,0,91,91,82,1,,,,,,,,
,,,,,,,,,,,,,FF,,,,,,,,1.217,,,,,,,,,,,,,,,,,,,,,,61007d53537409cd3125c6ca,610368a8ded861a44430ef19,2021-07-29_19h51.38.465,Simcolourproject_2stim_asymm_v5,2020.2.10,MacIntel,60,61025ae37ef11b136ea224fe,,,,,,,,,2201,62,28,1,0,0,response1disk,,6,20,9,1,0,0,rectangle,20,9,1,0,0,20,9,1,0,0,0,92,92,3,1,,,,,,,,
,,,,,,,,,,,,,FF,,,,,,,,0.883,,,,,,,,,,,,,,,,,,,,,,61007d53537409cd3125c6ca,610368a8ded861a44430ef19,2021-07-29_19h51.38.465,Simcolourproject_2stim_asymm_v5,2020.2.10,MacIntel,60,61025ae37ef11b136ea224fe,,,,,,,,,2210,61,25,1,0,0,response1disk,,6,20,5,1,0,0,rectangle,20,5,1,0,0,20,5,1,0,0,0,93,93,114,1,,,,,,,,
,,,,,,,,,,,,,FF,,,,,,,,0.517,,,,,,,,,,,,,,,,,,,,,,61007d53537409cd3125c6ca,610368a8ded861a44430ef19,2021-07-29_19h51.38.465,Simcolourproject_2stim_asymm_v5,2020.2.10,MacIntel,60,61025ae37ef11b136ea224fe,,,,,,,,,1264,61,23,1,0,0,response1disk,,6,15,-2,1,0,0,rectangle,15,-2,1,0,0,15,-2,1,0,0,0,94,94,129,1,,,,,,,,
,,,,,,,,,,,,,FF,,,,,,,,0.884,,,,,,,,,,,,,,,,,,,,,,61007d53537409cd3125c6ca,610368a8ded861a44430ef19,2021-07-29_19h51.38.465,Simcolourproject_2stim_asymm_v5,2020.2.10,MacIntel,60,61025ae37ef11b136ea224fe,,,,,,,,,426,55,-38,1,0,0,response3disk,,5,1,0,1,0,0,rectangle,1,0,1,0,0,1,0,1,0,0,0,95,95,120,1,,,,,,,,
,,,,,,,,,,,,,FF,,,,,,,,2.118,,,,,,,,,,,,,,,,,,,,,,61007d53537409cd3125c6ca,610368a8ded861a44430ef19,2021-07-29_19h51.38.465,Simcolourproject_2stim_asymm_v5,2020.2.10,MacIntel,60,61025ae37ef11b136ea224fe,,,,,,,,,4259,81,26,1,0,0,response1disk,,6,-13,2,1,0,0,rectangle,-13,2,1,0,0,-13,2,1,0,0,0,96,96,150,1,,,,,,,,
,,,,,,,,,,,,,FF,,,,,,,,1.085,,,,,,,,,,,,,,,,,,,,,,61007d53537409cd3125c6ca,610368a8ded861a44430ef19,2021-07-29_19h51.38.465,Simcolourproject_2stim_asymm_v5,2020.2.10,MacIntel,60,61025ae37ef11b136ea224fe,,,,,,,,,4260,67,-39,1,0,0,response3disk,,5,19,-5,1,0,0,rectangle,19,-5,1,0,0,19,-5,1,0,0,0,97,97,110,1,,,,,,,,
,,,,,,,,,,,,,FF,,,,,,,,4.401,,,,,,,,,,,,,,,,,,,,,,61007d53537409cd3125c6ca,610368a8ded861a44430ef19,2021-07-29_19h51.38.465,Simcolourproject_2stim_asymm_v5,2020.2.10,MacIntel,60,61025ae37ef11b136ea224fe,,,,,,,,,1426,45,-17,1,0,0,response3disk,,5,9,4,1,0,0,rectangle,9,4,1,0,0,9,4,1,0,0,0,98,98,63,1,,,,,,,,
,,,,,,,,,,,,,FF,,,,,,,,0.984,,,,,,,,,,,,,,,,,,,,,,61007d53537409cd3125c6ca,610368a8ded861a44430ef19,2021-07-29_19h51.38.465,Simcolourproject_2stim_asymm_v5,2020.2.10,MacIntel,60,61025ae37ef11b136ea224fe,,,,,,,,,646,43,-92,1,0,0,response3disk,,4,4,-9,1,0,0,rectangle,4,-9,1,0,0,4,-9,1,0,0,0,99,99,107,1,,,,,,,,
,,,,,,,,,,,,,FF,,,,,,,,1.419,,,,,,,,,,,,,,,,,,,,,,61007d53537409cd3125c6ca,610368a8ded861a44430ef19,2021-07-29_19h51.38.465,Simcolourproject_2stim_asymm_v5,2020.2.10,MacIntel,60,61025ae37ef11b136ea224fe,,,,,,,,,2909,39,-63,1,0,0,response3disk,,4,12,-4,1,0,0,rectangle,12,-4,1,0,0,12,-4,1,0,0,0,100,100,138,1,,,,,,,,
,,,,,,,,,,,,,FF,,,,,,,,1.301,,,,,,,,,,,,,,,,,,,,,,61007d53537409cd3125c6ca,610368a8ded861a44430ef19,2021-07-29_19h51.38.465,Simcolourproject_2stim_asymm_v5,2020.2.10,MacIntel,60,61025ae37ef11b136ea224fe,,,,,,,,,179,71,-20,1,0,0,response3disk,,5,15,5,1,0,0,rectangle,15,5,1,0,0,15,5,1,0,0,0,101,101,27,1,,,,,,,,
,,,,,,,,,,,,,FF,,,,,,,,1.082,,,,,,,,,,,,,,,,,,,,,,61007d53537409cd3125c6ca,610368a8ded861a44430ef19,2021-07-29_19h51.38.465,Simcolourproject_2stim_asymm_v5,2020.2.10,MacIntel,60,61025ae37ef11b136ea224fe,,,,,,,,,3502,22,-59,1,0,0,response3disk,,4,2,-6,1,0,0,rectangle,2,-6,1,0,0,2,-6,1,0,0,0,102,102,157,1,,,,,,,,
,,,,,,,,,,,,,FF,,,,,,,,0.783,,,,,,,,,,,,,,,,,,,,,,61007d53537409cd3125c6ca,610368a8ded861a44430ef19,2021-07-29_19h51.38.465,Simcolourproject_2stim_asymm_v5,2020.2.10,MacIntel,60,61025ae37ef11b136ea224fe,,,,,,,,,1573,33,-57,1,0,0,response3disk,,4,11,-16,1,0,0,rectangle,11,-16,1,0,0,11,-16,1,0,0,0,103,103,5,1,,,,,,,,
,,,,,,,,,,,,,FF,,,,,,,,1.702,,,,,,,,,,,,,,,,,,,,,,61007d53537409cd3125c6ca,610368a8ded861a44430ef19,2021-07-29_19h51.38.465,Simcolourproject_2stim_asymm_v5,2020.2.10,MacIntel,60,61025ae37ef11b136ea224fe,,,,,,,,,715,41,-58,1,0,0,response3disk,,4,17,-6,1,0,0,rectangle,17,-6,1,0,0,17,-6,1,0,0,0,104,104,140,1,,,,,,,,
,,,,,,,,,,,,,FF,,,,,,,,5.636,,,,,,,,,,,,,,,,,,,,,,61007d53537409cd3125c6ca,610368a8ded861a44430ef19,2021-07-29_19h51.38.465,Simcolourproject_2stim_asymm_v5,2020.2.10,MacIntel,60,61025ae37ef11b136ea224fe,,,,,,,,,448,30,-93,1,0,0,response3disk,,4,5,-4,1,0,0,rectangle,5,-4,1,0,0,5,-4,1,0,0,0,105,105,59,1,,,,,,,,
,,,,,,,,,,,,,FF,,,,,,,,1.716,,,,,,,,,,,,,,,,,,,,,,61007d53537409cd3125c6ca,610368a8ded861a44430ef19,2021-07-29_19h51.38.465,Simcolourproject_2stim_asymm_v5,2020.2.10,MacIntel,60,61025ae37ef11b136ea224fe,,,,,,,,,3047,-56,26,1,0,0,response7disk,,1,12,-2,1,0,0,rectangle,64,26,1,0,0,22,2,1,0,0,0,106,106,152,1,,response1disk_3,TRUE,6,6,"[18,149,19,251,8,245,254,175,173,149,130,197,111,219,283,70,195,27,107,138]",1.684,rectangle
,,,,,,,,,,,,,FF,,,,,,,,0.966,,,,,,,,,,,,,,,,,,,,,,61007d53537409cd3125c6ca,610368a8ded861a44430ef19,2021-07-29_19h51.38.465,Simcolourproject_2stim_asymm_v5,2020.2.10,MacIntel,60,61025ae37ef11b136ea224fe,,,,,,,,,863,19,-50,1,0,0,response3disk,,4,-4,4,1,0,0,rectangle,-4,4,1,0,0,-4,4,1,0,0,0,107,107,34,1,,,,,,,,
,,,,,,,,,,,,,FF,,,,,,,,1.601,,,,,,,,,,,,,,,,,,,,,,61007d53537409cd3125c6ca,610368a8ded861a44430ef19,2021-07-29_19h51.38.465,Simcolourproject_2stim_asymm_v5,2020.2.10,MacIntel,60,61025ae37ef11b136ea224fe,,,,,,,,,2717,29,-47,1,0,0,response3disk,,4,15,-7,1,0,0,rectangle,15,-7,1,0,0,15,-7,1,0,0,0,108,108,31,1,,,,,,,,
,,,,,,,,,,,,,FF,,,,,,,,0.949,,,,,,,,,,,,,,,,,,,,,,61007d53537409cd3125c6ca,610368a8ded861a44430ef19,2021-07-29_19h51.38.465,Simcolourproject_2stim_asymm_v5,2020.2.10,MacIntel,60,61025ae37ef11b136ea224fe,,,,,,,,,3435,-68,-34,1,0,0,response5disk,,2,-7,0,1,0,0,rectangle,-7,0,1,0,0,-7,0,1,0,0,0,109,109,57,1,,,,,,,,
,,,,,,,,,,,,,FF,,,,,,,,0.85,,,,,,,,,,,,,,,,,,,,,,61007d53537409cd3125c6ca,610368a8ded861a44430ef19,2021-07-29_19h51.38.465,Simcolourproject_2stim_asymm_v5,2020.2.10,MacIntel,60,61025ae37ef11b136ea224fe,,,,,,,,,315,105,-31,1,0,0,response3disk,,5,8,1,1,0,0,rectangle,20,-73,1,0,0,1,-2,1,0,0,0,110,110,23,1,,response3disk_3,TRUE,4,4,"[18,149,19,251,8,245,254,175,173,149,130,197,111,219,283,70,195,27,107,138]",1.399,rectangle
,,,,,,,,,,,,,FF,,,,,,,,1.117,,,,,,,,,,,,,,,,,,,,,,61007d53537409cd3125c6ca,610368a8ded861a44430ef19,2021-07-29_19h51.38.465,Simcolourproject_2stim_asymm_v5,2020.2.10,MacIntel,60,61025ae37ef11b136ea224fe,,,,,,,,,2521,88,-26,1,0,0,response3disk,,5,-5,-5,1,0,0,rectangle,-5,-5,1,0,0,-5,-5,1,0,0,0,111,111,87,1,,,,,,,,
,,,,,,,,,,,,,FF,,,,,,,,2.118,,,,,,,,,,,,,,,,,,,,,,61007d53537409cd3125c6ca,610368a8ded861a44430ef19,2021-07-29_19h51.38.465,Simcolourproject_2stim_asymm_v5,2020.2.10,MacIntel,60,61025ae37ef11b136ea224fe,,,,,,,,,1430,62,33,1,0,0,response1disk,,6,14,4,1,0,0,rectangle,14,4,1,0,0,14,4,1,0,0,0,112,112,65,1,,,,,,,,
,,,,,,,,,,,,,FF,,,,,,,,0.884,,,,,,,,,,,,,,,,,,,,,,61007d53537409cd3125c6ca,610368a8ded861a44430ef19,2021-07-29_19h51.38.465,Simcolourproject_2stim_asymm_v5,2020.2.10,MacIntel,60,61025ae37ef11b136ea224fe,,,,,,,,,2770,56,-22,1,0,0,response3disk,,5,10,-3,1,0,0,rectangle,10,-3,1,0,0,10,-3,1,0,0,0,113,113,13,1,,,,,,,,
,,,,,,,,,,,,,FF,,,,,,,,0.967,,,,,,,,,,,,,,,,,,,,,,61007d53537409cd3125c6ca,610368a8ded861a44430ef19,2021-07-29_19h51.38.465,Simcolourproject_2stim_asymm_v5,2020.2.10,MacIntel,60,61025ae37ef11b136ea224fe,,,,,,,,,2609,56,-26,1,0,0,response3disk,,5,20,1,1,0,0,rectangle,20,1,1,0,0,20,1,1,0,0,0,114,114,119,1,,,,,,,,
,,,,,,,,,,,,,FF,,,,,,,,0.784,,,,,,,,,,,,,,,,,,,,,,61007d53537409cd3125c6ca,610368a8ded861a44430ef19,2021-07-29_19h51.38.465,Simcolourproject_2stim_asymm_v5,2020.2.10,MacIntel,60,61025ae37ef11b136ea224fe,,,,,,,,,2969,52,-28,1,0,0,response3disk,,5,-9,8,1,0,0,rectangle,-9,8,1,0,0,-9,8,1,0,0,0,115,115,68,1,,,,,,,,
,,,,,,,,,,,,,FF,,,,,,,,0.651,,,,,,,,,,,,,,,,,,,,,,61007d53537409cd3125c6ca,610368a8ded861a44430ef19,2021-07-29_19h51.38.465,Simcolourproject_2stim_asymm_v5,2020.2.10,MacIntel,60,61025ae37ef11b136ea224fe,,,,,,,,,2553,51,-29,1,0,0,response3disk,,5,19,-10,1,0,0,rectangle,19,-10,1,0,0,19,-10,1,0,0,0,116,116,14,1,,,,,,,,
,,,,,,,,,,,,,FF,,,,,,,,0.467,,,,,,,,,,,,,,,,,,,,,,61007d53537409cd3125c6ca,610368a8ded861a44430ef19,2021-07-29_19h51.38.465,Simcolourproject_2stim_asymm_v5,2020.2.10,MacIntel,60,61025ae37ef11b136ea224fe,,,,,,,,,2076,65,-39,1,0,0,response3disk,,5,19,-5,1,0,0,rectangle,19,-5,1,0,0,19,-5,1,0,0,0,117,117,49,1,,,,,,,,
,,,,,,,,,,,,,FF,,,,,,,,0.952,,,,,,,,,,,,,,,,,,,,,,61007d53537409cd3125c6ca,610368a8ded861a44430ef19,2021-07-29_19h51.38.465,Simcolourproject_2stim_asymm_v5,2020.2.10,MacIntel,60,61025ae37ef11b136ea224fe,,,,,,,,,2667,-38,-29,1,0,0,response5disk,,2,-1,9,1,0,0,rectangle,-1,9,1,0,0,-1,9,1,0,0,0,118,118,112,1,,,,,,,,
,,,,,,,,,,,,,FF,,,,,,,,0.732,,,,,,,,,,,,,,,,,,,,,,61007d53537409cd3125c6ca,610368a8ded861a44430ef19,2021-07-29_19h51.38.465,Simcolourproject_2stim_asymm_v5,2020.2.10,MacIntel,60,61025ae37ef11b136ea224fe,,,,,,,,,1904,32,-57,1,0,0,response3disk,,4,8,0,1,0,0,rectangle,8,0,1,0,0,8,0,1,0,0,0,119,119,19,1,,,,,,,,
,,,,,,,,,,,,,FF,,,,,,,,0.834,,,,,,,,,,,,,,,,,,,,,,61007d53537409cd3125c6ca,610368a8ded861a44430ef19,2021-07-29_19h51.38.465,Simcolourproject_2stim_asymm_v5,2020.2.10,MacIntel,60,61025ae37ef11b136ea224fe,,,,,,,,,2149,60,-25,1,0,0,response3disk,,5,10,-2,1,0,0,rectangle,10,-2,1,0,0,10,-2,1,0,0,0,120,120,53,1,,,,,,,,
,,,,,,,,,,,,,FF,,,,,,,,0.801,,,,,,,,,,,,,,,,,,,,,,61007d53537409cd3125c6ca,610368a8ded861a44430ef19,2021-07-29_19h51.38.465,Simcolourproject_2stim_asymm_v5,2020.2.10,MacIntel,60,61025ae37ef11b136ea224fe,,,,,,,,,3210,-27,-51,1,0,0,response5disk,,3,4,-10,1,0,0,rectangle,4,-10,1,0,0,4,-10,1,0,0,0,121,121,115,1,,,,,,,,
,,,,,,,,,,,,,FF,,,,,,,,0.833,,,,,,,,,,,,,,,,,,,,,,61007d53537409cd3125c6ca,610368a8ded861a44430ef19,2021-07-29_19h51.38.465,Simcolourproject_2stim_asymm_v5,2020.2.10,MacIntel,60,61025ae37ef11b136ea224fe,,,,,,,,,3213,55,-37,1,0,0,response3disk,,5,17,0,1,0,0,rectangle,17,0,1,0,0,17,0,1,0,0,0,122,122,28,1,,,,,,,,
,,,,,,,,,,,,,FF,,,,,,,,0.584,,,,,,,,,,,,,,,,,,,,,,61007d53537409cd3125c6ca,610368a8ded861a44430ef19,2021-07-29_19h51.38.465,Simcolourproject_2stim_asymm_v5,2020.2.10,MacIntel,60,61025ae37ef11b136ea224fe,,,,,,,,,508,50,-31,1,0,0,response3disk,,5,11,-1,1,0,0,rectangle,11,-1,1,0,0,11,-1,1,0,0,0,123,123,147,1,,,,,,,,
,,,,,,,,,,,,,FF,,,,,,,,1.683,,,,,,,,,,,,,,,,,,,,,,61007d53537409cd3125c6ca,610368a8ded861a44430ef19,2021-07-29_19h51.38.465,Simcolourproject_2stim_asymm_v5,2020.2.10,MacIntel,60,61025ae37ef11b136ea224fe,,,,,,,,,1857,73,-41,1,0,0,response3disk,,5,13,5,1,0,0,rectangle,13,5,1,0,0,13,5,1,0,0,0,124,124,70,1,,,,,,,,
,,,,,,,,,,,,,FF,,,,,,,,0.717,,,,,,,,,,,,,,,,,,,,,,61007d53537409cd3125c6ca,610368a8ded861a44430ef19,2021-07-29_19h51.38.465,Simcolourproject_2stim_asymm_v5,2020.2.10,MacIntel,60,61025ae37ef11b136ea224fe,,,,,,,,,3250,-67,-38,1,0,0,response5disk,,2,-16,1,1,0,0,rectangle,-16,1,1,0,0,-16,1,1,0,0,0,125,125,134,1,,,,,,,,
,,,,,,,,,,,,,FF,,,,,,,,0.751,,,,,,,,,,,,,,,,,,,,,,61007d53537409cd3125c6ca,610368a8ded861a44430ef19,2021-07-29_19h51.38.465,Simcolourproject_2stim_asymm_v5,2020.2.10,MacIntel,60,61025ae37ef11b136ea224fe,,,,,,,,,2082,97,-56,1,0,0,response3disk,,5,18,9,1,0,0,rectangle,18,9,1,0,0,18,9,1,0,0,0,126,126,99,1,,,,,,,,
,,,,,,,,,,,,,FF,,,,,,,,0.684,,,,,,,,,,,,,,,,,,,,,,61007d53537409cd3125c6ca,610368a8ded861a44430ef19,2021-07-29_19h51.38.465,Simcolourproject_2stim_asymm_v5,2020.2.10,MacIntel,60,61025ae37ef11b136ea224fe,,,,,,,,,4318,55,-34,1,0,0,response3disk,,5,10,7,1,0,0,rectangle,10,7,1,0,0,10,7,1,0,0,0,127,127,35,1,,,,,,,,
,,,,,,,,,,,,,FF,,,,,,,,0.9,,,,,,,,,,,,,,,,,,,,,,61007d53537409cd3125c6ca,610368a8ded861a44430ef19,2021-07-29_19h51.38.465,Simcolourproject_2stim_asymm_v5,2020.2.10,MacIntel,60,61025ae37ef11b136ea224fe,,,,,,,,,1312,-25,-53,1,0,0,response5disk,,3,-10,-7,1,0,0,rectangle,-10,-7,1,0,0,-10,-7,1,0,0,0,128,128,104,1,,,,,,,,
,,,,,,,,,,,,,FF,,,,,,,,0.634,,,,,,,,,,,,,,,,,,,,,,61007d53537409cd3125c6ca,610368a8ded861a44430ef19,2021-07-29_19h51.38.465,Simcolourproject_2stim_asymm_v5,2020.2.10,MacIntel,60,61025ae37ef11b136ea224fe,,,,,,,,,2204,59,23,1,0,0,response1disk,,6,7,-1,1,0,0,rectangle,25,44,1,0,0,7,-7,1,0,0,0,129,129,26,1,,response1disk_3,TRUE,7,7,"[18,149,19,251,8,245,254,175,173,149,130,197,111,219,283,70,195,27,107,138]",1.8,rectangle
,,,,,,,,,,,,,FF,,,,,,,,0.783,,,,,,,,,,,,,,,,,,,,,,61007d53537409cd3125c6ca,610368a8ded861a44430ef19,2021-07-29_19h51.38.465,Simcolourproject_2stim_asymm_v5,2020.2.10,MacIntel,60,61025ae37ef11b136ea224fe,,,,,,,,,1521,-49,-22,1,0,0,response5disk,,2,-2,-4,1,0,0,rectangle,-2,-4,1,0,0,-2,-4,1,0,0,0,130,130,43,1,,,,,,,,
,,,,,,,,,,,,,FF,,,,,,,,0.833,,,,,,,,,,,,,,,,,,,,,,61007d53537409cd3125c6ca,610368a8ded861a44430ef19,2021-07-29_19h51.38.465,Simcolourproject_2stim_asymm_v5,2020.2.10,MacIntel,60,61025ae37ef11b136ea224fe,,,,,,,,,1143,-36,-52,1,0,0,response5disk,,3,-18,-10,1,0,0,rectangle,-18,-10,1,0,0,-18,-10,1,0,0,0,131,131,50,1,,,,,,,,
,,,,,,,,,,,,,FF,,,,,,,,1.75,,,,,,,,,,,,,,,,,,,,,,61007d53537409cd3125c6ca,610368a8ded861a44430ef19,2021-07-29_19h51.38.465,Simcolourproject_2stim_asymm_v5,2020.2.10,MacIntel,60,61025ae37ef11b136ea224fe,,,,,,,,,4124,44,-31,1,0,0,response3disk,,5,-10,4,1,0,0,rectangle,-10,4,1,0,0,-10,4,1,0,0,0,132,132,91,1,,,,,,,,
,,,,,,,,,,,,,FF,,,,,,,,1.534,,,,,,,,,,,,,,,,,,,,,,61007d53537409cd3125c6ca,610368a8ded861a44430ef19,2021-07-29_19h51.38.465,Simcolourproject_2stim_asymm_v5,2020.2.10,MacIntel,60,61025ae37ef11b136ea224fe,,,,,,,,,2132,49,-26,1,0,0,response3disk,,5,19,-9,1,0,0,rectangle,19,-9,1,0,0,19,-9,1,0,0,0,133,133,100,1,,,,,,,,
,,,,,,,,,,,,,FF,,,,,,,,0.849,,,,,,,,,,,,,,,,,,,,,,61007d53537409cd3125c6ca,610368a8ded861a44430ef19,2021-07-29_19h51.38.465,Simcolourproject_2stim_asymm_v5,2020.2.10,MacIntel,60,61025ae37ef11b136ea224fe,,,,,,,,,764,38,-32,1,0,0,response3disk,,5,6,-4,1,0,0,rectangle,6,-4,1,0,0,6,-4,1,0,0,0,134,134,73,1,,,,,,,,
,,,,,,,,,,,,,FF,,,,,,,,0.818,,,,,,,,,,,,,,,,,,,,,,61007d53537409cd3125c6ca,610368a8ded861a44430ef19,2021-07-29_19h51.38.465,Simcolourproject_2stim_asymm_v5,2020.2.10,MacIntel,60,61025ae37ef11b136ea224fe,,,,,,,,,6,30,-59,1,0,0,response3disk,,4,8,0,1,0,0,rectangle,8,0,1,0,0,8,0,1,0,0,0,135,135,80,1,,,,,,,,
,,,,,,,,,,,,,FF,,,,,,,,1.335,,,,,,,,,,,,,,,,,,,,,,61007d53537409cd3125c6ca,610368a8ded861a44430ef19,2021-07-29_19h51.38.465,Simcolourproject_2stim_asymm_v5,2020.2.10,MacIntel,60,61025ae37ef11b136ea224fe,,,,,,,,,3617,56,-38,1,0,0,response3disk,,5,8,-5,1,0,0,rectangle,8,-5,1,0,0,8,-5,1,0,0,0,136,136,137,1,,,,,,,,
,,,,,,,,,,,,,FF,,,,,,,,0.766,,,,,,,,,,,,,,,,,,,,,,61007d53537409cd3125c6ca,610368a8ded861a44430ef19,2021-07-29_19h51.38.465,Simcolourproject_2stim_asymm_v5,2020.2.10,MacIntel,60,61025ae37ef11b136ea224fe,,,,,,,,,822,20,-41,1,0,0,response3disk,,4,6,1,1,0,0,rectangle,28,-73,1,0,0,1,-2,1,0,0,0,137,137,108,1,,response3disk_3,TRUE,4,4,"[18,149,19,251,8,245,254,175,173,149,130,197,111,219,283,70,195,27,107,138]",1.385,rectangle
,,,,,,,,,,,,,FF,,,,,,,,1.468,,,,,,,,,,,,,,,,,,,,,,61007d53537409cd3125c6ca,610368a8ded861a44430ef19,2021-07-29_19h51.38.465,Simcolourproject_2stim_asymm_v5,2020.2.10,MacIntel,60,61025ae37ef11b136ea224fe,,,,,,,,,2371,94,-37,1,0,0,response3disk,,5,17,-4,1,0,0,rectangle,17,-4,1,0,0,17,-4,1,0,0,0,138,138,66,1,,,,,,,,
,,,,,,,,,,,,,FF,,,,,,,,1.118,,,,,,,,,,,,,,,,,,,,,,61007d53537409cd3125c6ca,610368a8ded861a44430ef19,2021-07-29_19h51.38.465,Simcolourproject_2stim_asymm_v5,2020.2.10,MacIntel,60,61025ae37ef11b136ea224fe,,,,,,,,,2947,-31,-58,1,0,0,response5disk,,3,0,-2,1,0,0,rectangle,0,-2,1,0,0,0,-2,1,0,0,0,139,139,94,1,,,,,,,,
,,,,,,,,,,,,,FF,,,,,,,,0.983,,,,,,,,,,,,,,,,,,,,,,61007d53537409cd3125c6ca,610368a8ded861a44430ef19,2021-07-29_19h51.38.465,Simcolourproject_2stim_asymm_v5,2020.2.10,MacIntel,60,61025ae37ef11b136ea224fe,,,,,,,,,2510,86,-40,1,0,0,response3disk,,5,20,-10,1,0,0,rectangle,20,-10,1,0,0,20,-10,1,0,0,0,140,140,144,1,,,,,,,,
,,,,,,,,,,,,,FF,,,,,,,,0.8,,,,,,,,,,,,,,,,,,,,,,61007d53537409cd3125c6ca,610368a8ded861a44430ef19,2021-07-29_19h51.38.465,Simcolourproject_2stim_asymm_v5,2020.2.10,MacIntel,60,61025ae37ef11b136ea224fe,,,,,,,,,2295,-58,-71,1,0,0,response5disk,,3,2,3,1,0,0,rectangle,2,3,1,0,0,2,3,1,0,0,0,141,141,139,1,,,,,,,,
,,,,,,,,,,,,,FF,,,,,,,,0.985,,,,,,,,,,,,,,,,,,,,,,61007d53537409cd3125c6ca,610368a8ded861a44430ef19,2021-07-29_19h51.38.465,Simcolourproject_2stim_asymm_v5,2020.2.10,MacIntel,60,61025ae37ef11b136ea224fe,,,,,,,,,3575,63,31,1,0,0,response1disk,,6,24,7,1,0,0,rectangle,24,7,1,0,0,24,7,1,0,0,0,142,142,24,1,,,,,,,,
,,,,,,,,,,,,,FF,,,,,,,,0.801,,,,,,,,,,,,,,,,,,,,,,61007d53537409cd3125c6ca,610368a8ded861a44430ef19,2021-07-29_19h51.38.465,Simcolourproject_2stim_asymm_v5,2020.2.10,MacIntel,60,61025ae37ef11b136ea224fe,,,,,,,,,592,77,47,1,0,0,response1disk,,6,9,1,1,0,0,rectangle,9,1,1,0,0,9,1,1,0,0,0,143,143,145,1,,,,,,,,
,,,,,,,,,,,,,FF,,,,,,,,1.085,,,,,,,,,,,,,,,,,,,,,,61007d53537409cd3125c6ca,610368a8ded861a44430ef19,2021-07-29_19h51.38.465,Simcolourproject_2stim_asymm_v5,2020.2.10,MacIntel,60,61025ae37ef11b136ea224fe,,,,,,,,,866,58,-33,1,0,0,response3disk,,5,20,-6,1,0,0,rectangle,20,-6,1,0,0,20,-6,1,0,0,0,144,144,142,1,,,,,,,,
,,,,,,,,,,,,,FF,,,,,,,,1.067,,,,,,,,,,,,,,,,,,,,,,61007d53537409cd3125c6ca,610368a8ded861a44430ef19,2021-07-29_19h51.38.465,Simcolourproject_2stim_asymm_v5,2020.2.10,MacIntel,60,61025ae37ef11b136ea224fe,,,,,,,,,3552,-35,-57,1,0,0,response5disk,,3,-2,5,1,0,0,rectangle,-2,5,1,0,0,-2,5,1,0,0,0,145,145,131,1,,,,,,,,
,,,,,,,,,,,,,FF,,,,,,,,1.334,,,,,,,,,,,,,,,,,,,,,,61007d53537409cd3125c6ca,610368a8ded861a44430ef19,2021-07-29_19h51.38.465,Simcolourproject_2stim_asymm_v5,2020.2.10,MacIntel,60,61025ae37ef11b136ea224fe,,,,,,,,,41,71,28,1,0,0,response1disk,,6,3,9,1,0,0,rectangle,3,9,1,0,0,3,9,1,0,0,0,146,146,159,1,,,,,,,,
,,,,,,,,,,,,,FF,,,,,,,,0.949,,,,,,,,,,,,,,,,,,,,,,61007d53537409cd3125c6ca,610368a8ded861a44430ef19,2021-07-29_19h51.38.465,Simcolourproject_2stim_asymm_v5,2020.2.10,MacIntel,60,61025ae37ef11b136ea224fe,,,,,,,,,3293,24,-84,1,0,0,response3disk,,4,15,8,1,0,0,rectangle,15,8,1,0,0,15,8,1,0,0,0,147,147,86,1,,,,,,,,
,,,,,,,,,,,,,FF,,,,,,,,1.734,,,,,,,,,,,,,,,,,,,,,,61007d53537409cd3125c6ca,610368a8ded861a44430ef19,2021-07-29_19h51.38.465,Simcolourproject_2stim_asymm_v5,2020.2.10,MacIntel,60,61025ae37ef11b136ea224fe,,,,,,,,,1605,31,-81,1,0,0,response3disk,,4,12,-9,1,0,0,rectangle,-41,-86,1,0,0,19,-2,1,0,0,0,148,148,36,1,,response5disk_3,TRUE,3,3,"[18,149,19,251,8,245,254,175,173,149,130,197,111,219,283,70,195,27,107,138]",1.784,rectangle
,,,,,,,,,,,,,FF,,,,,,,,1,,,,,,,,,,,,,,,,,,,,,,61007d53537409cd3125c6ca,610368a8ded861a44430ef19,2021-07-29_19h51.38.465,Simcolourproject_2stim_asymm_v5,2020.2.10,MacIntel,60,61025ae37ef11b136ea224fe,,,,,,,,,4138,33,-50,1,0,0,response3disk,,4,17,5,1,0,0,rectangle,17,5,1,0,0,17,5,1,0,0,0,149,149,135,1,,,,,,,,
,,,,,,,,,,,,,FF,,,,,,,,1.168,,,,,,,,,,,,,,,,,,,,,,61007d53537409cd3125c6ca,610368a8ded861a44430ef19,2021-07-29_19h51.38.465,Simcolourproject_2stim_asymm_v5,2020.2.10,MacIntel,60,61025ae37ef11b136ea224fe,,,,,,,,,1131,-60,27,1,0,0,response7disk,,1,19,10,1,0,0,rectangle,19,10,1,0,0,19,10,1,0,0,0,150,150,60,1,,,,,,,,
,,,,,,,,,,,,,FF,,,,,,,,1.834,,,,,,,,,,,,,,,,,,,,,,61007d53537409cd3125c6ca,610368a8ded861a44430ef19,2021-07-29_19h51.38.465,Simcolourproject_2stim_asymm_v5,2020.2.10,MacIntel,60,61025ae37ef11b136ea224fe,,,,,,,,,3877,-46,-80,1,0,0,response5disk,,3,4,0,1,0,0,rectangle,4,0,1,0,0,4,0,1,0,0,0,151,151,90,1,,,,,,,,
,,,,,,,,,,,,,FF,,,,,,,,0.617,,,,,,,,,,,,,,,,,,,,,,61007d53537409cd3125c6ca,610368a8ded861a44430ef19,2021-07-29_19h51.38.465,Simcolourproject_2stim_asymm_v5,2020.2.10,MacIntel,60,61025ae37ef11b136ea224fe,,,,,,,,,1566,59,-47,1,0,0,response3disk,,5,-6,3,1,0,0,rectangle,-6,3,1,0,0,-6,3,1,0,0,0,152,152,20,1,,,,,,,,
,,,,,,,,,,,,,FF,,,,,,,,0.668,,,,,,,,,,,,,,,,,,,,,,61007d53537409cd3125c6ca,610368a8ded861a44430ef19,2021-07-29_19h51.38.465,Simcolourproject_2stim_asymm_v5,2020.2.10,MacIntel,60,61025ae37ef11b136ea224fe,,,,,,,,,3891,71,28,1,0,0,response1disk,,6,11,2,1,0,0,rectangle,11,2,1,0,0,11,2,1,0,0,0,153,153,33,1,,,,,,,,
,,,,,,,,,,,,,FF,,,,,,,,0.801,,,,,,,,,,,,,,,,,,,,,,61007d53537409cd3125c6ca,610368a8ded861a44430ef19,2021-07-29_19h51.38.465,Simcolourproject_2stim_asymm_v5,2020.2.10,MacIntel,60,61025ae37ef11b136ea224fe,,,,,,,,,1121,29,-81,1,0,0,response3disk,,4,23,-12,1,0,0,rectangle,23,-12,1,0,0,23,-12,1,0,0,0,154,154,149,1,,,,,,,,
,,,,,,,,,,,,,FF,,,,,,,,0.9,,,,,,,,,,,,,,,,,,,,,,61007d53537409cd3125c6ca,610368a8ded861a44430ef19,2021-07-29_19h51.38.465,Simcolourproject_2stim_asymm_v5,2020.2.10,MacIntel,60,61025ae37ef11b136ea224fe,,,,,,,,,65,38,-60,1,0,0,response3disk,,4,18,-3,1,0,0,rectangle,18,-3,1,0,0,18,-3,1,0,0,0,155,155,4,1,,,,,,,,
,,,,,,,,,,,,,FF,,,,,,,,1.434,,,,,,,,,,,,,,,,,,,,,,61007d53537409cd3125c6ca,610368a8ded861a44430ef19,2021-07-29_19h51.38.465,Simcolourproject_2stim_asymm_v5,2020.2.10,MacIntel,60,61025ae37ef11b136ea224fe,,,,,,,,,1483,85,-43,1,0,0,response3disk,,5,7,0,1,0,0,rectangle,7,0,1,0,0,7,0,1,0,0,0,156,156,79,1,,,,,,,,
,,,,,,,,,,,,,FF,,,,,,,,0.934,,,,,,,,,,,,,,,,,,,,,,61007d53537409cd3125c6ca,610368a8ded861a44430ef19,2021-07-29_19h51.38.465,Simcolourproject_2stim_asymm_v5,2020.2.10,MacIntel,60,61025ae37ef11b136ea224fe,,,,,,,,,3173,88,-45,1,0,0,response3disk,,5,12,3,1,0,0,rectangle,12,3,1,0,0,12,3,1,0,0,0,157,157,78,1,,,,,,,,
,,,,,,,,,,,,,FF,,,,,,,,1.067,,,,,,,,,,,,,,,,,,,,,,61007d53537409cd3125c6ca,610368a8ded861a44430ef19,2021-07-29_19h51.38.465,Simcolourproject_2stim_asymm_v5,2020.2.10,MacIntel,60,61025ae37ef11b136ea224fe,,,,,,,,,3774,66,-35,1,0,0,response3disk,,5,18,-3,1,0,0,rectangle,18,-3,1,0,0,18,-3,1,0,0,0,158,158,103,1,,,,,,,,
,,,,,,,,,,,,,FF,,,,,,,,0.716,,,,,,,,,,,,,,,,,,,,,,61007d53537409cd3125c6ca,610368a8ded861a44430ef19,2021-07-29_19h51.38.465,Simcolourproject_2stim_asymm_v5,2020.2.10,MacIntel,60,61025ae37ef11b136ea224fe,,,,,,,,,1598,-37,-52,1,0,0,response5disk,,3,10,10,1,0,0,rectangle,10,10,1,0,0,10,10,1,0,0,0,159,159,97,1,,,,,,,,
,,,,,,,,,,,,,FF,,,,,,,,0.934,,,,,,,,,,,,,,,,,,,,,,61007d53537409cd3125c6ca,610368a8ded861a44430ef19,2021-07-29_19h51.38.465,Simcolourproject_2stim_asymm_v5,2020.2.10,MacIntel,60,61025ae37ef11b136ea224fe,,,,,,,,,2886,-35,59,1,0,0,response7disk,,0,6,11,1,0,0,rectangle,6,11,1,0,0,6,11,1,0,0,1,0,160,70,1,,,,,,,,
,,,,,,,,,,,,,FF,,,,,,,,1.417,,,,,,,,,,,,,,,,,,,,,,61007d53537409cd3125c6ca,610368a8ded861a44430ef19,2021-07-29_19h51.38.465,Simcolourproject_2stim_asymm_v5,2020.2.10,MacIntel,60,61025ae37ef11b136ea224fe,,,,,,,,,3832,73,24,1,0,0,response1disk,,6,1,5,1,0,0,rectangle,1,5,1,0,0,1,5,1,0,0,1,1,161,86,1,,,,,,,,
,,,,,,,,,,,,,FF,,,,,,,,1.434,,,,,,,,,,,,,,,,,,,,,,61007d53537409cd3125c6ca,610368a8ded861a44430ef19,2021-07-29_19h51.38.465,Simcolourproject_2stim_asymm_v5,2020.2.10,MacIntel,60,61025ae37ef11b136ea224fe,,,,,,,,,3062,39,-66,1,0,0,response3disk,,4,3,8,1,0,0,rectangle,3,8,1,0,0,3,8,1,0,0,1,2,162,80,1,,,,,,,,
,,,,,,,,,,,,,FF,,,,,,,,1.935,,,,,,,,,,,,,,,,,,,,,,61007d53537409cd3125c6ca,610368a8ded861a44430ef19,2021-07-29_19h51.38.465,Simcolourproject_2stim_asymm_v5,2020.2.10,MacIntel,60,61025ae37ef11b136ea224fe,,,,,,,,,3675,-60,-31,1,0,0,response5disk,,2,12,-10,1,0,0,rectangle,12,-10,1,0,0,12,-10,1,0,0,1,3,163,61,1,,,,,,,,
,,,,,,,,,,,,,FF,,,,,,,,1.584,,,,,,,,,,,,,,,,,,,,,,61007d53537409cd3125c6ca,610368a8ded861a44430ef19,2021-07-29_19h51.38.465,Simcolourproject_2stim_asymm_v5,2020.2.10,MacIntel,60,61025ae37ef11b136ea224fe,,,,,,,,,1392,38,-70,1,0,0,response3disk,,4,-2,5,1,0,0,rectangle,-2,5,1,0,0,-2,5,1,0,0,1,4,164,5,1,,,,,,,,
,,,,,,,,,,,,,FF,,,,,,,,0.884,,,,,,,,,,,,,,,,,,,,,,61007d53537409cd3125c6ca,610368a8ded861a44430ef19,2021-07-29_19h51.38.465,Simcolourproject_2stim_asymm_v5,2020.2.10,MacIntel,60,61025ae37ef11b136ea224fe,,,,,,,,,2976,74,-41,1,0,0,response3disk,,5,5,3,1,0,0,rectangle,5,3,1,0,0,5,3,1,0,0,1,5,165,77,1,,,,,,,,
,,,,,,,,,,,,,FF,,,,,,,,0.968,,,,,,,,,,,,,,,,,,,,,,61007d53537409cd3125c6ca,610368a8ded861a44430ef19,2021-07-29_19h51.38.465,Simcolourproject_2stim_asymm_v5,2020.2.10,MacIntel,60,61025ae37ef11b136ea224fe,,,,,,,,,2024,64,28,1,0,0,response1disk,,6,10,2,1,0,0,rectangle,10,2,1,0,0,10,2,1,0,0,1,6,166,35,1,,,,,,,,
,,,,,,,,,,,,,FF,,,,,,,,0.836,,,,,,,,,,,,,,,,,,,,,,61007d53537409cd3125c6ca,610368a8ded861a44430ef19,2021-07-29_19h51.38.465,Simcolourproject_2stim_asymm_v5,2020.2.10,MacIntel,60,61025ae37ef11b136ea224fe,,,,,,,,,77,-46,26,1,0,0,response7disk,,1,0,-7,1,0,0,rectangle,0,-7,1,0,0,0,-7,1,0,0,1,7,167,93,1,,,,,,,,
,,,,,,,,,,,,,FF,,,,,,,,0.667,,,,,,,,,,,,,,,,,,,,,,61007d53537409cd3125c6ca,610368a8ded861a44430ef19,2021-07-29_19h51.38.465,Simcolourproject_2stim_asymm_v5,2020.2.10,MacIntel,60,61025ae37ef11b136ea224fe,,,,,,,,,2189,91,40,1,0,0,response1disk,,6,25,5,1,0,0,rectangle,25,5,1,0,0,25,5,1,0,0,1,8,168,17,1,,,,,,,,
,,,,,,,,,,,,,FF,,,,,,,,0.568,,,,,,,,,,,,,,,,,,,,,,61007d53537409cd3125c6ca,610368a8ded861a44430ef19,2021-07-29_19h51.38.465,Simcolourproject_2stim_asymm_v5,2020.2.10,MacIntel,60,61025ae37ef11b136ea224fe,,,,,,,,,3185,69,46,1,0,0,response1disk,,6,4,-1,1,0,0,rectangle,4,-1,1,0,0,4,-1,1,0,0,1,9,169,138,1,,,,,,,,
,,,,,,,,,,,,,FF,,,,,,,,0.533,,,,,,,,,,,,,,,,,,,,,,61007d53537409cd3125c6ca,610368a8ded861a44430ef19,2021-07-29_19h51.38.465,Simcolourproject_2stim_asymm_v5,2020.2.10,MacIntel,60,61025ae37ef11b136ea224fe,,,,,,,,,1996,83,38,1,0,0,response1disk,,6,19,5,1,0,0,rectangle,19,5,1,0,0,19,5,1,0,0,1,10,170,134,1,,,,,,,,
,,,,,,,,,,,,,FF,,,,,,,,0.633,,,,,,,,,,,,,,,,,,,,,,61007d53537409cd3125c6ca,610368a8ded861a44430ef19,2021-07-29_19h51.38.465,Simcolourproject_2stim_asymm_v5,2020.2.10,MacIntel,60,61025ae37ef11b136ea224fe,,,,,,,,,3826,91,55,1,0,0,response1disk,,6,4,-6,1,0,0,rectangle,4,-6,1,0,0,4,-6,1,0,0,1,11,171,132,1,,,,,,,,
,,,,,,,,,,,,,FF,,,,,,,,1.568,,,,,,,,,,,,,,,,,,,,,,61007d53537409cd3125c6ca,610368a8ded861a44430ef19,2021-07-29_19h51.38.465,Simcolourproject_2stim_asymm_v5,2020.2.10,MacIntel,60,61025ae37ef11b136ea224fe,,,,,,,,,2084,35,-71,1,0,0,response3disk,,4,17,-7,1,0,0,rectangle,-32,-90,1,0,0,1,-4,1,0,0,1,12,172,87,1,,response5disk_3,TRUE,3,3,"[18,149,19,251,8,245,254,175,173,149,130,197,111,219,283,70,195,27,107,138]",1.817,rectangle
,,,,,,,,,,,,,FF,,,,,,,,1.334,,,,,,,,,,,,,,,,,,,,,,61007d53537409cd3125c6ca,610368a8ded861a44430ef19,2021-07-29_19h51.38.465,Simcolourproject_2stim_asymm_v5,2020.2.10,MacIntel,60,61025ae37ef11b136ea224fe,,,,,,,,,1753,-63,23,1,0,0,response7disk,,1,-2,-3,1,0,0,rectangle,-2,-3,1,0,0,-2,-3,1,0,0,1,13,173,137,1,,,,,,,,
,,,,,,,,,,,,,FF,,,,,,,,0.868,,,,,,,,,,,,,,,,,,,,,,61007d53537409cd3125c6ca,610368a8ded861a44430ef19,2021-07-29_19h51.38.465,Simcolourproject_2stim_asymm_v5,2020.2.10,MacIntel,60,61025ae37ef11b136ea224fe,,,,,,,,,2503,71,-46,1,0,0,response3disk,,5,-14,-5,1,0,0,rectangle,57,24,1,0,0,23,8,1,0,0,1,14,174,150,1,,response1disk_3,TRUE,6,6,"[18,149,19,251,8,245,254,175,173,149,130,197,111,219,283,70,195,27,107,138]",1.55,rectangle
,,,,,,,,,,,,,FF,,,,,,,,1.118,,,,,,,,,,,,,,,,,,,,,,61007d53537409cd3125c6ca,610368a8ded861a44430ef19,2021-07-29_19h51.38.465,Simcolourproject_2stim_asymm_v5,2020.2.10,MacIntel,60,61025ae37ef11b136ea224fe,,,,,,,,,2987,-27,-72,1,0,0,response5disk,,3,-6,-7,1,0,0,rectangle,-6,-7,1,0,0,-6,-7,1,0,0,1,15,175,72,1,,,,,,,,
,,,,,,,,,,,,,FF,,,,,,,,1.217,,,,,,,,,,,,,,,,,,,,,,61007d53537409cd3125c6ca,610368a8ded861a44430ef19,2021-07-29_19h51.38.465,Simcolourproject_2stim_asymm_v5,2020.2.10,MacIntel,60,61025ae37ef11b136ea224fe,,,,,,,,,416,72,28,1,0,0,response1disk,,6,18,2,1,0,0,rectangle,18,2,1,0,0,18,2,1,0,0,1,16,176,60,1,,,,,,,,
,,,,,,,,,,,,,FF,,,,,,,,0.567,,,,,,,,,,,,,,,,,,,,,,61007d53537409cd3125c6ca,610368a8ded861a44430ef19,2021-07-29_19h51.38.465,Simcolourproject_2stim_asymm_v5,2020.2.10,MacIntel,60,61025ae37ef11b136ea224fe,,,,,,,,,2689,48,25,1,0,0,response1disk,,6,-2,-1,1,0,0,rectangle,-2,-1,1,0,0,-2,-1,1,0,0,1,17,177,63,1,,,,,,,,
,,,,,,,,,,,,,FF,,,,,,,,0.801,,,,,,,,,,,,,,,,,,,,,,61007d53537409cd3125c6ca,610368a8ded861a44430ef19,2021-07-29_19h51.38.465,Simcolourproject_2stim_asymm_v5,2020.2.10,MacIntel,60,61025ae37ef11b136ea224fe,,,,,,,,,1545,73,38,1,0,0,response1disk,,6,27,10,1,0,0,rectangle,27,10,1,0,0,27,10,1,0,0,1,18,178,71,1,,,,,,,,
,,,,,,,,,,,,,FF,,,,,,,,0.868,,,,,,,,,,,,,,,,,,,,,,61007d53537409cd3125c6ca,610368a8ded861a44430ef19,2021-07-29_19h51.38.465,Simcolourproject_2stim_asymm_v5,2020.2.10,MacIntel,60,61025ae37ef11b136ea224fe,,,,,,,,,248,-35,-55,1,0,0,response5disk,,3,-5,-1,1,0,0,rectangle,-5,-1,1,0,0,-5,-1,1,0,0,1,19,179,43,1,,,,,,,,
,,,,,,,,,,,,,FF,,,,,,,,1.617,,,,,,,,,,,,,,,,,,,,,,61007d53537409cd3125c6ca,610368a8ded861a44430ef19,2021-07-29_19h51.38.465,Simcolourproject_2stim_asymm_v5,2020.2.10,MacIntel,60,61025ae37ef11b136ea224fe,,,,,,,,,3402,47,-66,1,0,0,response3disk,,4,25,-2,1,0,0,rectangle,25,-2,1,0,0,25,-2,1,0,0,1,20,180,25,1,,,,,,,,
,,,,,,,,,,,,,FF,,,,,,,,0.967,,,,,,,,,,,,,,,,,,,,,,61007d53537409cd3125c6ca,610368a8ded861a44430ef19,2021-07-29_19h51.38.465,Simcolourproject_2stim_asymm_v5,2020.2.10,MacIntel,60,61025ae37ef11b136ea224fe,,,,,,,,,2030,-58,-32,1,0,0,response5disk,,2,5,6,1,0,0,rectangle,5,6,1,0,0,5,6,1,0,0,1,21,181,129,1,,,,,,,,
,,,,,,,,,,,,,FF,,,,,,,,0.668,,,,,,,,,,,,,,,,,,,,,,61007d53537409cd3125c6ca,610368a8ded861a44430ef19,2021-07-29_19h51.38.465,Simcolourproject_2stim_asymm_v5,2020.2.10,MacIntel,60,61025ae37ef11b136ea224fe,,,,,,,,,3597,-68,-32,1,0,0,response5disk,,2,12,-1,1,0,0,rectangle,12,-1,1,0,0,12,-1,1,0,0,1,22,182,14,1,,,,,,,,
,,,,,,,,,,,,,FF,,,,,,,,0.816,,,,,,,,,,,,,,,,,,,,,,61007d53537409cd3125c6ca,610368a8ded861a44430ef19,2021-07-29_19h51.38.465,Simcolourproject_2stim_asymm_v5,2020.2.10,MacIntel,60,61025ae37ef11b136ea224fe,,,,,,,,,98,-21,-52,1,0,0,response5disk,,3,11,7,1,0,0,rectangle,11,7,1,0,0,11,7,1,0,0,1,23,183,0,1,,,,,,,,
,,,,,,,,,,,,,FF,,,,,,,,0.667,,,,,,,,,,,,,,,,,,,,,,61007d53537409cd3125c6ca,610368a8ded861a44430ef19,2021-07-29_19h51.38.465,Simcolourproject_2stim_asymm_v5,2020.2.10,MacIntel,60,61025ae37ef11b136ea224fe,,,,,,,,,3431,-71,-32,1,0,0,response5disk,,2,-14,-12,1,0,0,rectangle,-14,-12,1,0,0,-14,-12,1,0,0,1,24,184,145,1,,,,,,,,
,,,,,,,,,,,,,FF,,,,,,,,0.65,,,,,,,,,,,,,,,,,,,,,,61007d53537409cd3125c6ca,610368a8ded861a44430ef19,2021-07-29_19h51.38.465,Simcolourproject_2stim_asymm_v5,2020.2.10,MacIntel,60,61025ae37ef11b136ea224fe,,,,,,,,,348,-52,-32,1,0,0,response5disk,,2,-6,-1,1,0,0,rectangle,-6,-1,1,0,0,-6,-1,1,0,0,1,25,185,144,1,,,,,,,,
,,,,,,,,,,,,,FF,,,,,,,,1.351,,,,,,,,,,,,,,,,,,,,,,61007d53537409cd3125c6ca,610368a8ded861a44430ef19,2021-07-29_19h51.38.465,Simcolourproject_2stim_asymm_v5,2020.2.10,MacIntel,60,61025ae37ef11b136ea224fe,,,,,,,,,1156,21,-49,1,0,0,response3disk,,4,-7,6,1,0,0,rectangle,-7,6,1,0,0,-7,6,1,0,0,1,26,186,104,1,,,,,,,,
,,,,,,,,,,,,,FF,,,,,,,,0.917,,,,,,,,,,,,,,,,,,,,,,61007d53537409cd3125c6ca,610368a8ded861a44430ef19,2021-07-29_19h51.38.465,Simcolourproject_2stim_asymm_v5,2020.2.10,MacIntel,60,61025ae37ef11b136ea224fe,,,,,,,,,2221,50,-32,1,0,0,response3disk,,5,9,4,1,0,0,rectangle,9,4,1,0,0,9,4,1,0,0,1,27,187,68,1,,,,,,,,
,,,,,,,,,,,,,FF,,,,,,,,0.95,,,,,,,,,,,,,,,,,,,,,,61007d53537409cd3125c6ca,610368a8ded861a44430ef19,2021-07-29_19h51.38.465,Simcolourproject_2stim_asymm_v5,2020.2.10,MacIntel,60,61025ae37ef11b136ea224fe,,,,,,,,,2198,70,31,1,0,0,response1disk,,6,19,12,1,0,0,rectangle,19,12,1,0,0,19,12,1,0,0,1,28,188,22,1,,,,,,,,
,,,,,,,,,,,,,FF,,,,,,,,1.267,,,,,,,,,,,,,,,,,,,,,,61007d53537409cd3125c6ca,610368a8ded861a44430ef19,2021-07-29_19h51.38.465,Simcolourproject_2stim_asymm_v5,2020.2.10,MacIntel,60,61025ae37ef11b136ea224fe,,,,,,,,,3967,-52,-28,1,0,0,response5disk,,2,14,-4,1,0,0,rectangle,14,-4,1,0,0,14,-4,1,0,0,1,29,189,32,1,,,,,,,,
,,,,,,,,,,,,,FF,,,,,,,,0.817,,,,,,,,,,,,,,,,,,,,,,61007d53537409cd3125c6ca,610368a8ded861a44430ef19,2021-07-29_19h51.38.465,Simcolourproject_2stim_asymm_v5,2020.2.10,MacIntel,60,61025ae37ef11b136ea224fe,,,,,,,,,3182,81,19,1,0,0,response1disk,,6,0,-3,1,0,0,rectangle,0,-3,1,0,0,0,-3,1,0,0,1,30,190,69,1,,,,,,,,
,,,,,,,,,,,,,FF,,,,,,,,0.549,,,,,,,,,,,,,,,,,,,,,,61007d53537409cd3125c6ca,610368a8ded861a44430ef19,2021-07-29_19h51.38.465,Simcolourproject_2stim_asymm_v5,2020.2.10,MacIntel,60,61025ae37ef11b136ea224fe,,,,,,,,,2588,52,29,1,0,0,response1disk,,6,6,-1,1,0,0,rectangle,6,-1,1,0,0,6,-1,1,0,0,1,31,191,48,1,,,,,,,,
,,,,,,,,,,,,,FF,,,,,,,,1.116,,,,,,,,,,,,,,,,,,,,,,61007d53537409cd3125c6ca,610368a8ded861a44430ef19,2021-07-29_19h51.38.465,Simcolourproject_2stim_asymm_v5,2020.2.10,MacIntel,60,61025ae37ef11b136ea224fe,,,,,,,,,4158,34,-65,1,0,0,response3disk,,4,25,-12,1,0,0,rectangle,25,-12,1,0,0,25,-12,1,0,0,1,32,192,148,1,,,,,,,,
,,,,,,,,,,,,,FF,,,,,,,,0.95,,,,,,,,,,,,,,,,,,,,,,61007d53537409cd3125c6ca,610368a8ded861a44430ef19,2021-07-29_19h51.38.465,Simcolourproject_2stim_asymm_v5,2020.2.10,MacIntel,60,61025ae37ef11b136ea224fe,,,,,,,,,1517,85,30,1,0,0,response1disk,,6,24,8,1,0,0,rectangle,24,8,1,0,0,24,8,1,0,0,1,33,193,113,1,,,,,,,,
,,,,,,,,,,,,,FF,,,,,,,,0.984,,,,,,,,,,,,,,,,,,,,,,61007d53537409cd3125c6ca,610368a8ded861a44430ef19,2021-07-29_19h51.38.465,Simcolourproject_2stim_asymm_v5,2020.2.10,MacIntel,60,61025ae37ef11b136ea224fe,,,,,,,,,4239,-28,-55,1,0,0,response5disk,,3,0,-2,1,0,0,rectangle,-50,-35,1,0,0,4,-5,1,0,0,1,34,194,143,1,,response5disk_3,TRUE,2,2,"[18,149,19,251,8,245,254,175,173,149,130,197,111,219,283,70,195,27,107,138]",1.933,rectangle
,,,,,,,,,,,,,FF,,,,,,,,0.884,,,,,,,,,,,,,,,,,,,,,,61007d53537409cd3125c6ca,610368a8ded861a44430ef19,2021-07-29_19h51.38.465,Simcolourproject_2stim_asymm_v5,2020.2.10,MacIntel,60,61025ae37ef11b136ea224fe,,,,,,,,,532,-36,-59,1,0,0,response5disk,,3,-17,-11,1,0,0,rectangle,-17,-11,1,0,0,-17,-11,1,0,0,1,35,195,130,1,,,,,,,,
,,,,,,,,,,,,,FF,,,,,,,,0.585,,,,,,,,,,,,,,,,,,,,,,61007d53537409cd3125c6ca,610368a8ded861a44430ef19,2021-07-29_19h51.38.465,Simcolourproject_2stim_asymm_v5,2020.2.10,MacIntel,60,61025ae37ef11b136ea224fe,,,,,,,,,2431,-34,-47,1,0,0,response5disk,,3,-16,-9,1,0,0,rectangle,-21,57,1,0,0,-2,1,1,0,0,1,36,196,121,1,,response7disk_3,TRUE,0,0,"[18,149,19,251,8,245,254,175,173,149,130,197,111,219,283,70,195,27,107,138]",1.701,rectangle
,,,,,,,,,,,,,FF,,,,,,,,0.767,,,,,,,,,,,,,,,,,,,,,,61007d53537409cd3125c6ca,610368a8ded861a44430ef19,2021-07-29_19h51.38.465,Simcolourproject_2stim_asymm_v5,2020.2.10,MacIntel,60,61025ae37ef11b136ea224fe,,,,,,,,,2514,60,30,1,0,0,response1disk,,6,0,-11,1,0,0,rectangle,0,-11,1,0,0,0,-11,1,0,0,1,37,197,124,1,,,,,,,,
,,,,,,,,,,,,,FF,,,,,,,,0.967,,,,,,,,,,,,,,,,,,,,,,61007d53537409cd3125c6ca,610368a8ded861a44430ef19,2021-07-29_19h51.38.465,Simcolourproject_2stim_asymm_v5,2020.2.10,MacIntel,60,61025ae37ef11b136ea224fe,,,,,,,,,4272,73,-23,1,0,0,response3disk,,5,0,-3,1,0,0,rectangle,0,-3,1,0,0,0,-3,1,0,0,1,38,198,105,1,,,,,,,,
,,,,,,,,,,,,,FF,,,,,,,,1.45,,,,,,,,,,,,,,,,,,,,,,61007d53537409cd3125c6ca,610368a8ded861a44430ef19,2021-07-29_19h51.38.465,Simcolourproject_2stim_asymm_v5,2020.2.10,MacIntel,60,61025ae37ef11b136ea224fe,,,,,,,,,2048,33,-58,1,0,0,response3disk,,4,0,2,1,0,0,rectangle,0,2,1,0,0,0,2,1,0,0,1,39,199,59,1,,,,,,,,
,,,,,,,,,,,,,FF,,,,,,,,0.7,,,,,,,,,,,,,,,,,,,,,,61007d53537409cd3125c6ca,610368a8ded861a44430ef19,2021-07-29_19h51.38.465,Simcolourproject_2stim_asymm_v5,2020.2.10,MacIntel,60,61025ae37ef11b136ea224fe,,,,,,,,,3205,-33,-46,1,0,0,response5disk,,3,19,3,1,0,0,rectangle,19,3,1,0,0,19,3,1,0,0,1,40,200,157,1,,,,,,,,
,,,,,,,,,,,,,FF,,,,,,,,1.166,,,,,,,,,,,,,,,,,,,,,,61007d53537409cd3125c6ca,610368a8ded861a44430ef19,2021-07-29_19h51.38.465,Simcolourproject_2stim_asymm_v5,2020.2.10,MacIntel,60,61025ae37ef11b136ea224fe,,,,,,,,,2551,81,-49,1,0,0,response3disk,,5,5,-3,1,0,0,rectangle,5,-3,1,0,0,5,-3,1,0,0,1,41,201,123,1,,,,,,,,
,,,,,,,,,,,,,FF,,,,,,,,0.717,,,,,,,,,,,,,,,,,,,,,,61007d53537409cd3125c6ca,610368a8ded861a44430ef19,2021-07-29_19h51.38.465,Simcolourproject_2stim_asymm_v5,2020.2.10,MacIntel,60,61025ae37ef11b136ea224fe,,,,,,,,,1511,75,-26,1,0,0,response3disk,,5,-2,5,1,0,0,rectangle,-2,5,1,0,0,-2,5,1,0,0,1,42,202,18,1,,,,,,,,
,,,,,,,,,,,,,FF,,,,,,,,0.8,,,,,,,,,,,,,,,,,,,,,,61007d53537409cd3125c6ca,610368a8ded861a44430ef19,2021-07-29_19h51.38.465,Simcolourproject_2stim_asymm_v5,2020.2.10,MacIntel,60,61025ae37ef11b136ea224fe,,,,,,,,,4266,-63,-30,1,0,0,response5disk,,2,-3,-9,1,0,0,rectangle,-3,-9,1,0,0,-3,-9,1,0,0,1,43,203,67,1,,,,,,,,
,,,,,,,,,,,,,FF,,,,,,,,1,,,,,,,,,,,,,,,,,,,,,,61007d53537409cd3125c6ca,610368a8ded861a44430ef19,2021-07-29_19h51.38.465,Simcolourproject_2stim_asymm_v5,2020.2.10,MacIntel,60,61025ae37ef11b136ea224fe,,,,,,,,,4018,75,45,1,0,0,response1disk,,6,15,8,1,0,0,rectangle,15,8,1,0,0,15,8,1,0,0,1,44,204,92,1,,,,,,,,
,,,,,,,,,,,,,FF,,,,,,,,1.567,,,,,,,,,,,,,,,,,,,,,,61007d53537409cd3125c6ca,610368a8ded861a44430ef19,2021-07-29_19h51.38.465,Simcolourproject_2stim_asymm_v5,2020.2.10,MacIntel,60,61025ae37ef11b136ea224fe,,,,,,,,,3741,-63,42,1,0,0,response7disk,,1,4,-3,1,0,0,rectangle,4,-3,1,0,0,4,-3,1,0,0,1,45,205,73,1,,,,,,,,
,,,,,,,,,,,,,FF,,,,,,,,1.251,,,,,,,,,,,,,,,,,,,,,,61007d53537409cd3125c6ca,610368a8ded861a44430ef19,2021-07-29_19h51.38.465,Simcolourproject_2stim_asymm_v5,2020.2.10,MacIntel,60,61025ae37ef11b136ea224fe,,,,,,,,,1661,-50,-31,1,0,0,response5disk,,2,11,-1,1,0,0,rectangle,11,-1,1,0,0,11,-1,1,0,0,1,46,206,109,1,,,,,,,,
,,,,,,,,,,,,,FF,,,,,,,,0.867,,,,,,,,,,,,,,,,,,,,,,61007d53537409cd3125c6ca,610368a8ded861a44430ef19,2021-07-29_19h51.38.465,Simcolourproject_2stim_asymm_v5,2020.2.10,MacIntel,60,61025ae37ef11b136ea224fe,,,,,,,,,2292,-35,63,1,0,0,response7disk,,0,6,14,1,0,0,rectangle,6,14,1,0,0,6,14,1,0,0,1,47,207,146,1,,,,,,,,
,,,,,,,,,,,,,FF,,,,,,,,1.083,,,,,,,,,,,,,,,,,,,,,,61007d53537409cd3125c6ca,610368a8ded861a44430ef19,2021-07-29_19h51.38.465,Simcolourproject_2stim_asymm_v5,2020.2.10,MacIntel,60,61025ae37ef11b136ea224fe,,,,,,,,,2587,59,-34,1,0,0,response3disk,,5,-8,6,1,0,0,rectangle,-8,6,1,0,0,-8,6,1,0,0,1,48,208,74,1,,,,,,,,
,,,,,,,,,,,,,FF,,,,,,,,0.734,,,,,,,,,,,,,,,,,,,,,,61007d53537409cd3125c6ca,610368a8ded861a44430ef19,2021-07-29_19h51.38.465,Simcolourproject_2stim_asymm_v5,2020.2.10,MacIntel,60,61025ae37ef11b136ea224fe,,,,,,,,,3260,74,-15,1,0,0,response3disk,,5,2,10,1,0,0,rectangle,2,10,1,0,0,2,10,1,0,0,1,49,209,97,1,,,,,,,,
,,,,,,,,,,,,,FF,,,,,,,,2,,,,,,,,,,,,,,,,,,,,,,61007d53537409cd3125c6ca,610368a8ded861a44430ef19,2021-07-29_19h51.38.465,Simcolourproject_2stim_asymm_v5,2020.2.10,MacIntel,60,61025ae37ef11b136ea224fe,,,,,,,,,1352,72,-44,1,0,0,response3disk,,5,9,-6,1,0,0,rectangle,9,-6,1,0,0,9,-6,1,0,0,1,50,210,136,1,,,,,,,,
,,,,,,,,,,,,,FF,,,,,,,,0.717,,,,,,,,,,,,,,,,,,,,,,61007d53537409cd3125c6ca,610368a8ded861a44430ef19,2021-07-29_19h51.38.465,Simcolourproject_2stim_asymm_v5,2020.2.10,MacIntel,60,61025ae37ef11b136ea224fe,,,,,,,,,860,88,-64,1,0,0,response3disk,,5,-5,0,1,0,0,rectangle,-5,0,1,0,0,-5,0,1,0,0,1,51,211,40,1,,,,,,,,
,,,,,,,,,,,,,FF,,,,,,,,0.734,,,,,,,,,,,,,,,,,,,,,,61007d53537409cd3125c6ca,610368a8ded861a44430ef19,2021-07-29_19h51.38.465,Simcolourproject_2stim_asymm_v5,2020.2.10,MacIntel,60,61025ae37ef11b136ea224fe,,,,,,,,,1641,96,31,1,0,0,response1disk,,6,6,-2,1,0,0,rectangle,6,-2,1,0,0,6,-2,1,0,0,1,52,212,33,1,,,,,,,,
,,,,,,,,,,,,,FF,,,,,,,,0.852,,,,,,,,,,,,,,,,,,,,,,61007d53537409cd3125c6ca,610368a8ded861a44430ef19,2021-07-29_19h51.38.465,Simcolourproject_2stim_asymm_v5,2020.2.10,MacIntel,60,61025ae37ef11b136ea224fe,,,,,,,,,2161,-24,-56,1,0,0,response5disk,,3,-7,3,1,0,0,rectangle,-7,3,1,0,0,-7,3,1,0,0,1,53,213,125,1,,,,,,,,
,,,,,,,,,,,,,FF,,,,,,,,0.733,,,,,,,,,,,,,,,,,,,,,,61007d53537409cd3125c6ca,610368a8ded861a44430ef19,2021-07-29_19h51.38.465,Simcolourproject_2stim_asymm_v5,2020.2.10,MacIntel,60,61025ae37ef11b136ea224fe,,,,,,,,,1557,89,39,1,0,0,response1disk,,6,20,7,1,0,0,rectangle,20,7,1,0,0,20,7,1,0,0,1,54,214,54,1,,,,,,,,
,,,,,,,,,,,,,FF,,,,,,,,0.766,,,,,,,,,,,,,,,,,,,,,,61007d53537409cd3125c6ca,610368a8ded861a44430ef19,2021-07-29_19h51.38.465,Simcolourproject_2stim_asymm_v5,2020.2.10,MacIntel,60,61025ae37ef11b136ea224fe,,,,,,,,,1164,56,-27,1,0,0,response3disk,,5,9,-10,1,0,0,rectangle,9,-10,1,0,0,9,-10,1,0,0,1,55,215,111,1,,,,,,,,
,,,,,,,,,,,,,FF,,,,,,,,0.667,,,,,,,,,,,,,,,,,,,,,,61007d53537409cd3125c6ca,610368a8ded861a44430ef19,2021-07-29_19h51.38.465,Simcolourproject_2stim_asymm_v5,2020.2.10,MacIntel,60,61025ae37ef11b136ea224fe,,,,,,,,,2196,76,24,1,0,0,response1disk,,6,7,3,1,0,0,rectangle,7,3,1,0,0,7,3,1,0,0,1,56,216,90,1,,,,,,,,
,,,,,,,,,,,,,FF,,,,,,,,0.734,,,,,,,,,,,,,,,,,,,,,,61007d53537409cd3125c6ca,610368a8ded861a44430ef19,2021-07-29_19h51.38.465,Simcolourproject_2stim_asymm_v5,2020.2.10,MacIntel,60,61025ae37ef11b136ea224fe,,,,,,,,,2942,-33,-47,1,0,0,response5disk,,3,-13,-1,1,0,0,rectangle,-13,-1,1,0,0,-13,-1,1,0,0,1,57,217,153,1,,,,,,,,
,,,,,,,,,,,,,FF,,,,,,,,0.583,,,,,,,,,,,,,,,,,,,,,,61007d53537409cd3125c6ca,610368a8ded861a44430ef19,2021-07-29_19h51.38.465,Simcolourproject_2stim_asymm_v5,2020.2.10,MacIntel,60,61025ae37ef11b136ea224fe,,,,,,,,,511,78,38,1,0,0,response1disk,,6,24,6,1,0,0,rectangle,-29,69,1,0,0,-7,9,1,0,0,1,58,218,82,1,,response7disk_3,TRUE,0,0,"[18,149,19,251,8,245,254,175,173,149,130,197,111,219,283,70,195,27,107,138]",1.35,rectangle
,,,,,,,,,,,,,FF,,,,,,,,2.285,,,,,,,,,,,,,,,,,,,,,,61007d53537409cd3125c6ca,610368a8ded861a44430ef19,2021-07-29_19h51.38.465,Simcolourproject_2stim_asymm_v5,2020.2.10,MacIntel,60,61025ae37ef11b136ea224fe,,,,,,,,,3860,34,-42,1,0,0,response3disk,,4,13,-5,1,0,0,rectangle,13,-5,1,0,0,13,-5,1,0,0,1,59,219,102,1,,,,,,,,
,,,,,,,,,,,,,FF,,,,,,,,1.402,,,,,,,,,,,,,,,,,,,,,,61007d53537409cd3125c6ca,610368a8ded861a44430ef19,2021-07-29_19h51.38.465,Simcolourproject_2stim_asymm_v5,2020.2.10,MacIntel,60,61025ae37ef11b136ea224fe,,,,,,,,,2614,38,-75,1,0,0,response3disk,,4,7,-9,1,0,0,rectangle,7,-9,1,0,0,7,-9,1,0,0,1,60,220,15,1,,,,,,,,
,,,,,,,,,,,,,FF,,,,,,,,1.868,,,,,,,,,,,,,,,,,,,,,,61007d53537409cd3125c6ca,610368a8ded861a44430ef19,2021-07-29_19h51.38.465,Simcolourproject_2stim_asymm_v5,2020.2.10,MacIntel,60,61025ae37ef11b136ea224fe,,,,,,,,,4310,68,26,1,0,0,response1disk,,6,-1,2,1,0,0,rectangle,-1,2,1,0,0,-1,2,1,0,0,1,61,221,133,1,,,,,,,,
,,,,,,,,,,,,,FF,,,,,,,,1.066,,,,,,,,,,,,,,,,,,,,,,61007d53537409cd3125c6ca,610368a8ded861a44430ef19,2021-07-29_19h51.38.465,Simcolourproject_2stim_asymm_v5,2020.2.10,MacIntel,60,61025ae37ef11b136ea224fe,,,,,,,,,2213,65,28,1,0,0,response1disk,,6,14,3,1,0,0,rectangle,14,3,1,0,0,14,3,1,0,0,1,62,222,141,1,,,,,,,,
,,,,,,,,,,,,,FF,,,,,,,,0.533,,,,,,,,,,,,,,,,,,,,,,61007d53537409cd3125c6ca,610368a8ded861a44430ef19,2021-07-29_19h51.38.465,Simcolourproject_2stim_asymm_v5,2020.2.10,MacIntel,60,61025ae37ef11b136ea224fe,,,,,,,,,331,72,36,1,0,0,response1disk,,6,20,1,1,0,0,rectangle,20,1,1,0,0,20,1,1,0,0,1,63,223,119,1,,,,,,,,
,,,,,,,,,,,,,FF,,,,,,,,0.684,,,,,,,,,,,,,,,,,,,,,,61007d53537409cd3125c6ca,610368a8ded861a44430ef19,2021-07-29_19h51.38.465,Simcolourproject_2stim_asymm_v5,2020.2.10,MacIntel,60,61025ae37ef11b136ea224fe,,,,,,,,,3219,54,28,1,0,0,response1disk,,6,12,-1,1,0,0,rectangle,12,-1,1,0,0,12,-1,1,0,0,1,64,224,83,1,,,,,,,,
,,,,,,,,,,,,,FF,,,,,,,,0.7,,,,,,,,,,,,,,,,,,,,,,61007d53537409cd3125c6ca,610368a8ded861a44430ef19,2021-07-29_19h51.38.465,Simcolourproject_2stim_asymm_v5,2020.2.10,MacIntel,60,61025ae37ef11b136ea224fe,,,,,,,,,3756,65,20,1,0,0,response1disk,,6,2,-8,1,0,0,rectangle,2,-8,1,0,0,2,-8,1,0,0,1,65,225,62,1,,,,,,,,
,,,,,,,,,,,,,FF,,,,,,,,1.033,,,,,,,,,,,,,,,,,,,,,,61007d53537409cd3125c6ca,610368a8ded861a44430ef19,2021-07-29_19h51.38.465,Simcolourproject_2stim_asymm_v5,2020.2.10,MacIntel,60,61025ae37ef11b136ea224fe,,,,,,,,,2256,88,39,1,0,0,response1disk,,6,8,-2,1,0,0,rectangle,8,-2,1,0,0,8,-2,1,0,0,1,66,226,4,1,,,,,,,,
,,,,,,,,,,,,,FF,,,,,,,,0.899,,,,,,,,,,,,,,,,,,,,,,61007d53537409cd3125c6ca,610368a8ded861a44430ef19,2021-07-29_19h51.38.465,Simcolourproject_2stim_asymm_v5,2020.2.10,MacIntel,60,61025ae37ef11b136ea224fe,,,,,,,,,278,-24,-49,1,0,0,response5disk,,3,15,6,1,0,0,rectangle,15,6,1,0,0,15,6,1,0,0,1,67,227,79,1,,,,,,,,
,,,,,,,,,,,,,FF,,,,,,,,0.684,,,,,,,,,,,,,,,,,,,,,,61007d53537409cd3125c6ca,610368a8ded861a44430ef19,2021-07-29_19h51.38.465,Simcolourproject_2stim_asymm_v5,2020.2.10,MacIntel,60,61025ae37ef11b136ea224fe,,,,,,,,,2432,76,28,1,0,0,response1disk,,6,28,14,1,0,0,rectangle,28,14,1,0,0,28,14,1,0,0,1,68,228,24,1,,,,,,,,
,,,,,,,,,,,,,FF,,,,,,,,0.85,,,,,,,,,,,,,,,,,,,,,,61007d53537409cd3125c6ca,610368a8ded861a44430ef19,2021-07-29_19h51.38.465,Simcolourproject_2stim_asymm_v5,2020.2.10,MacIntel,60,61025ae37ef11b136ea224fe,,,,,,,,,631,-55,-44,1,0,0,response5disk,,2,12,-6,1,0,0,rectangle,12,-6,1,0,0,12,-6,1,0,0,1,69,229,36,1,,,,,,,,
,,,,,,,,,,,,,FF,,,,,,,,0.6,,,,,,,,,,,,,,,,,,,,,,61007d53537409cd3125c6ca,610368a8ded861a44430ef19,2021-07-29_19h51.38.465,Simcolourproject_2stim_asymm_v5,2020.2.10,MacIntel,60,61025ae37ef11b136ea224fe,,,,,,,,,3353,58,33,1,0,0,response1disk,,6,8,-1,1,0,0,rectangle,8,-1,1,0,0,8,-1,1,0,0,1,70,230,122,1,,,,,,,,
,,,,,,,,,,,,,FF,,,,,,,,0.567,,,,,,,,,,,,,,,,,,,,,,61007d53537409cd3125c6ca,610368a8ded861a44430ef19,2021-07-29_19h51.38.465,Simcolourproject_2stim_asymm_v5,2020.2.10,MacIntel,60,61025ae37ef11b136ea224fe,,,,,,,,,223,72,38,1,0,0,response1disk,,6,18,0,1,0,0,rectangle,18,0,1,0,0,18,0,1,0,0,1,71,231,47,1,,,,,,,,
,,,,,,,,,,,,,FF,,,,,,,,0.483,,,,,,,,,,,,,,,,,,,,,,61007d53537409cd3125c6ca,610368a8ded861a44430ef19,2021-07-29_19h51.38.465,Simcolourproject_2stim_asymm_v5,2020.2.10,MacIntel,60,61025ae37ef11b136ea224fe,,,,,,,,,874,71,24,1,0,0,response1disk,,6,8,-1,1,0,0,rectangle,8,-1,1,0,0,8,-1,1,0,0,1,72,232,107,1,,,,,,,,
,,,,,,,,,,,,,FF,,,,,,,,0.551,,,,,,,,,,,,,,,,,,,,,,61007d53537409cd3125c6ca,610368a8ded861a44430ef19,2021-07-29_19h51.38.465,Simcolourproject_2stim_asymm_v5,2020.2.10,MacIntel,60,61025ae37ef11b136ea224fe,,,,,,,,,3417,58,18,1,0,0,response1disk,,6,15,5,1,0,0,rectangle,15,5,1,0,0,15,5,1,0,0,1,73,233,88,1,,,,,,,,
,,,,,,,,,,,,,FF,,,,,,,,1.8,,,,,,,,,,,,,,,,,,,,,,61007d53537409cd3125c6ca,610368a8ded861a44430ef19,2021-07-29_19h51.38.465,Simcolourproject_2stim_asymm_v5,2020.2.10,MacIntel,60,61025ae37ef11b136ea224fe,,,,,,,,,234,64,-39,1,0,0,response3disk,,5,6,-2,1,0,0,rectangle,6,-2,1,0,0,6,-2,1,0,0,1,74,234,101,1,,,,,,,,
,,,,,,,,,,,,,FF,,,,,,,,0.517,,,,,,,,,,,,,,,,,,,,,,61007d53537409cd3125c6ca,610368a8ded861a44430ef19,2021-07-29_19h51.38.465,Simcolourproject_2stim_asymm_v5,2020.2.10,MacIntel,60,61025ae37ef11b136ea224fe,,,,,,,,,4257,55,28,1,0,0,response1disk,,6,22,8,1,0,0,rectangle,22,8,1,0,0,22,8,1,0,0,1,75,235,65,1,,,,,,,,
,,,,,,,,,,,,,FF,,,,,,,,1.552,,,,,,,,,,,,,,,,,,,,,,61007d53537409cd3125c6ca,610368a8ded861a44430ef19,2021-07-29_19h51.38.465,Simcolourproject_2stim_asymm_v5,2020.2.10,MacIntel,60,61025ae37ef11b136ea224fe,,,,,,,,,2245,56,-18,1,0,0,response3disk,,5,15,-1,1,0,0,rectangle,15,-1,1,0,0,15,-1,1,0,0,1,76,236,114,1,,,,,,,,
,,,,,,,,,,,,,FF,,,,,,,,1.201,,,,,,,,,,,,,,,,,,,,,,61007d53537409cd3125c6ca,610368a8ded861a44430ef19,2021-07-29_19h51.38.465,Simcolourproject_2stim_asymm_v5,2020.2.10,MacIntel,60,61025ae37ef11b136ea224fe,,,,,,,,,3570,64,28,1,0,0,response1disk,,6,20,10,1,0,0,rectangle,20,10,1,0,0,20,10,1,0,0,1,77,237,151,1,,,,,,,,
,,,,,,,,,,,,,FF,,,,,,,,1.934,,,,,,,,,,,,,,,,,,,,,,61007d53537409cd3125c6ca,610368a8ded861a44430ef19,2021-07-29_19h51.38.465,Simcolourproject_2stim_asymm_v5,2020.2.10,MacIntel,60,61025ae37ef11b136ea224fe,,,,,,,,,1147,55,-29,1,0,0,response3disk,,5,15,-5,1,0,0,rectangle,15,-5,1,0,0,15,-5,1,0,0,1,78,238,34,1,,,,,,,,
,,,,,,,,,,,,,FF,,,,,,,,1.334,,,,,,,,,,,,,,,,,,,,,,61007d53537409cd3125c6ca,610368a8ded861a44430ef19,2021-07-29_19h51.38.465,Simcolourproject_2stim_asymm_v5,2020.2.10,MacIntel,60,61025ae37ef11b136ea224fe,,,,,,,,,559,56,41,1,0,0,response1disk,,6,11,15,1,0,0,rectangle,11,15,1,0,0,11,15,1,0,0,1,79,239,127,1,,,,,,,,
,,,,,,,,,,,,,FF,,,,,,,,1.05,,,,,,,,,,,,,,,,,,,,,,61007d53537409cd3125c6ca,610368a8ded861a44430ef19,2021-07-29_19h51.38.465,Simcolourproject_2stim_asymm_v5,2020.2.10,MacIntel,60,61025ae37ef11b136ea224fe,,,,,,,,,2197,55,24,1,0,0,response1disk,,6,13,3,1,0,0,rectangle,13,3,1,0,0,13,3,1,0,0,1,80,240,16,1,,,,,,,,
,,,,,,,,,,,,,FF,,,,,,,,0.649,,,,,,,,,,,,,,,,,,,,,,61007d53537409cd3125c6ca,610368a8ded861a44430ef19,2021-07-29_19h51.38.465,Simcolourproject_2stim_asymm_v5,2020.2.10,MacIntel,60,61025ae37ef11b136ea224fe,,,,,,,,,3833,48,22,1,0,0,response1disk,,6,11,-7,1,0,0,rectangle,11,-7,1,0,0,11,-7,1,0,0,1,81,241,89,1,,,,,,,,
,,,,,,,,,,,,,FF,,,,,,,,0.833,,,,,,,,,,,,,,,,,,,,,,61007d53537409cd3125c6ca,610368a8ded861a44430ef19,2021-07-29_19h51.38.465,Simcolourproject_2stim_asymm_v5,2020.2.10,MacIntel,60,61025ae37ef11b136ea224fe,,,,,,,,,2606,-38,-64,1,0,0,response5disk,,3,10,9,1,0,0,rectangle,10,9,1,0,0,10,9,1,0,0,1,82,242,147,1,,,,,,,,
,,,,,,,,,,,,,FF,,,,,,,,0.967,,,,,,,,,,,,,,,,,,,,,,61007d53537409cd3125c6ca,610368a8ded861a44430ef19,2021-07-29_19h51.38.465,Simcolourproject_2stim_asymm_v5,2020.2.10,MacIntel,60,61025ae37ef11b136ea224fe,,,,,,,,,1314,41,-51,1,0,0,response3disk,,4,24,0,1,0,0,rectangle,24,0,1,0,0,24,0,1,0,0,1,83,243,140,1,,,,,,,,
,,,,,,,,,,,,,FF,,,,,,,,0.883,,,,,,,,,,,,,,,,,,,,,,61007d53537409cd3125c6ca,610368a8ded861a44430ef19,2021-07-29_19h51.38.465,Simcolourproject_2stim_asymm_v5,2020.2.10,MacIntel,60,61025ae37ef11b136ea224fe,,,,,,,,,2020,68,16,1,0,0,response1disk,,6,-2,3,1,0,0,rectangle,38,-83,1,0,0,3,-6,1,0,0,1,84,244,156,1,,response3disk_3,TRUE,4,4,"[18,149,19,251,8,245,254,175,173,149,130,197,111,219,283,70,195,27,107,138]",1.482,rectangle
,,,,,,,,,,,,,FF,,,,,,,,3.95,,,,,,,,,,,,,,,,,,,,,,61007d53537409cd3125c6ca,610368a8ded861a44430ef19,2021-07-29_19h51.38.465,Simcolourproject_2stim_asymm_v5,2020.2.10,MacIntel,60,61025ae37ef11b136ea224fe,,,,,,,,,1328,51,-73,1,0,0,response3disk,,4,-1,-5,1,0,0,rectangle,-1,-5,1,0,0,-1,-5,1,0,0,1,85,245,76,1,,,,,,,,
,,,,,,,,,,,,,FF,,,,,,,,1.833,,,,,,,,,,,,,,,,,,,,,,61007d53537409cd3125c6ca,610368a8ded861a44430ef19,2021-07-29_19h51.38.465,Simcolourproject_2stim_asymm_v5,2020.2.10,MacIntel,60,61025ae37ef11b136ea224fe,,,,,,,,,3234,66,33,1,0,0,response1disk,,6,14,3,1,0,0,rectangle,14,3,1,0,0,14,3,1,0,0,1,86,246,98,1,,,,,,,,
,,,,,,,,,,,,,FF,,,,,,,,0.867,,,,,,,,,,,,,,,,,,,,,,61007d53537409cd3125c6ca,610368a8ded861a44430ef19,2021-07-29_19h51.38.465,Simcolourproject_2stim_asymm_v5,2020.2.10,MacIntel,60,61025ae37ef11b136ea224fe,,,,,,,,,1106,42,-28,1,0,0,response3disk,,5,1,6,1,0,0,rectangle,1,6,1,0,0,1,6,1,0,0,1,87,247,44,1,,,,,,,,
,,,,,,,,,,,,,FF,,,,,,,,4.453,,,,,,,,,,,,,,,,,,,,,,61007d53537409cd3125c6ca,610368a8ded861a44430ef19,2021-07-29_19h51.38.465,Simcolourproject_2stim_asymm_v5,2020.2.10,MacIntel,60,61025ae37ef11b136ea224fe,,,,,,,,,4068,36,-76,1,0,0,response3disk,,4,9,-3,1,0,0,rectangle,9,-3,1,0,0,9,-3,1,0,0,1,88,248,3,1,,,,,,,,
,,,,,,,,,,,,,FF,,,,,,,,0.733,,,,,,,,,,,,,,,,,,,,,,61007d53537409cd3125c6ca,610368a8ded861a44430ef19,2021-07-29_19h51.38.465,Simcolourproject_2stim_asymm_v5,2020.2.10,MacIntel,60,61025ae37ef11b136ea224fe,,,,,,,,,2102,-42,-49,1,0,0,response5disk,,3,-4,-1,1,0,0,rectangle,-4,-1,1,0,0,-4,-1,1,0,0,1,89,249,39,1,,,,,,,,
,,,,,,,,,,,,,FF,,,,,,,,1.068,,,,,,,,,,,,,,,,,,,,,,61007d53537409cd3125c6ca,610368a8ded861a44430ef19,2021-07-29_19h51.38.465,Simcolourproject_2stim_asymm_v5,2020.2.10,MacIntel,60,61025ae37ef11b136ea224fe,,,,,,,,,2436,76,-20,1,0,0,response3disk,,5,10,0,1,0,0,rectangle,76,-33,1,0,0,6,1,1,0,0,1,90,250,78,1,,response3disk_3,TRUE,5,5,"[18,149,19,251,8,245,254,175,173,149,130,197,111,219,283,70,195,27,107,138]",30.128,rectangle
,,,,,,,,,,,,,FF,,,,,,,,0.917,,,,,,,,,,,,,,,,,,,,,,61007d53537409cd3125c6ca,610368a8ded861a44430ef19,2021-07-29_19h51.38.465,Simcolourproject_2stim_asymm_v5,2020.2.10,MacIntel,60,61025ae37ef11b136ea224fe,,,,,,,,,3399,-23,-52,1,0,0,response5disk,,3,-1,14,1,0,0,rectangle,-1,14,1,0,0,-1,14,1,0,0,1,91,251,96,1,,,,,,,,
,,,,,,,,,,,,,FF,,,,,,,,6.185,,,,,,,,,,,,,,,,,,,,,,61007d53537409cd3125c6ca,610368a8ded861a44430ef19,2021-07-29_19h51.38.465,Simcolourproject_2stim_asymm_v5,2020.2.10,MacIntel,60,61025ae37ef11b136ea224fe,,,,,,,,,2201,-21,-65,1,0,0,response5disk,,3,-8,-5,1,0,0,rectangle,-8,-5,1,0,0,-8,-5,1,0,0,1,92,252,100,1,,,,,,,,
,,,,,,,,,,,,,FF,,,,,,,,0.684,,,,,,,,,,,,,,,,,,,,,,61007d53537409cd3125c6ca,610368a8ded861a44430ef19,2021-07-29_19h51.38.465,Simcolourproject_2stim_asymm_v5,2020.2.10,MacIntel,60,61025ae37ef11b136ea224fe,,,,,,,,,2210,46,-25,1,0,0,response3disk,,5,-10,13,1,0,0,rectangle,-66,-41,1,0,0,-4,-7,1,0,0,1,93,253,31,1,,response5disk_3,TRUE,2,2,"[18,149,19,251,8,245,254,175,173,149,130,197,111,219,283,70,195,27,107,138]",1.85,rectangle
,,,,,,,,,,,,,FF,,,,,,,,2.768,,,,,,,,,,,,,,,,,,,,,,61007d53537409cd3125c6ca,610368a8ded861a44430ef19,2021-07-29_19h51.38.465,Simcolourproject_2stim_asymm_v5,2020.2.10,MacIntel,60,61025ae37ef11b136ea224fe,,,,,,,,,1264,83,36,1,0,0,response1disk,,6,18,-7,1,0,0,rectangle,18,-7,1,0,0,18,-7,1,0,0,1,94,254,2,1,,,,,,,,
,,,,,,,,,,,,,FF,,,,,,,,1.05,,,,,,,,,,,,,,,,,,,,,,61007d53537409cd3125c6ca,610368a8ded861a44430ef19,2021-07-29_19h51.38.465,Simcolourproject_2stim_asymm_v5,2020.2.10,MacIntel,60,61025ae37ef11b136ea224fe,,,,,,,,,426,15,-68,1,0,0,response3disk,,4,-10,-11,1,0,0,rectangle,-10,-11,1,0,0,-10,-11,1,0,0,1,95,255,42,1,,,,,,,,
,,,,,,,,,,,,,FF,,,,,,,,0.634,,,,,,,,,,,,,,,,,,,,,,61007d53537409cd3125c6ca,610368a8ded861a44430ef19,2021-07-29_19h51.38.465,Simcolourproject_2stim_asymm_v5,2020.2.10,MacIntel,60,61025ae37ef11b136ea224fe,,,,,,,,,4259,58,-27,1,0,0,response3disk,,5,3,7,1,0,0,rectangle,3,7,1,0,0,3,7,1,0,0,1,96,256,131,1,,,,,,,,
,,,,,,,,,,,,,FF,,,,,,,,0.667,,,,,,,,,,,,,,,,,,,,,,61007d53537409cd3125c6ca,610368a8ded861a44430ef19,2021-07-29_19h51.38.465,Simcolourproject_2stim_asymm_v5,2020.2.10,MacIntel,60,61025ae37ef11b136ea224fe,,,,,,,,,4260,62,-30,1,0,0,response3disk,,5,23,2,1,0,0,rectangle,23,2,1,0,0,23,2,1,0,0,1,97,257,110,1,,,,,,,,
,,,,,,,,,,,,,FF,,,,,,,,1.051,,,,,,,,,,,,,,,,,,,,,,61007d53537409cd3125c6ca,610368a8ded861a44430ef19,2021-07-29_19h51.38.465,Simcolourproject_2stim_asymm_v5,2020.2.10,MacIntel,60,61025ae37ef11b136ea224fe,,,,,,,,,1426,58,-26,1,0,0,response3disk,,5,24,-8,1,0,0,rectangle,24,-8,1,0,0,24,-8,1,0,0,1,98,258,21,1,,,,,,,,
,,,,,,,,,,,,,FF,,,,,,,,0.851,,,,,,,,,,,,,,,,,,,,,,61007d53537409cd3125c6ca,610368a8ded861a44430ef19,2021-07-29_19h51.38.465,Simcolourproject_2stim_asymm_v5,2020.2.10,MacIntel,60,61025ae37ef11b136ea224fe,,,,,,,,,646,-37,-85,1,0,0,response5disk,,3,-18,-13,1,0,0,rectangle,-18,-13,1,0,0,-18,-13,1,0,0,1,99,259,94,1,,,,,,,,
,,,,,,,,,,,,,FF,,,,,,,,0.867,,,,,,,,,,,,,,,,,,,,,,61007d53537409cd3125c6ca,610368a8ded861a44430ef19,2021-07-29_19h51.38.465,Simcolourproject_2stim_asymm_v5,2020.2.10,MacIntel,60,61025ae37ef11b136ea224fe,,,,,,,,,2909,-39,-78,1,0,0,response5disk,,3,18,1,1,0,0,rectangle,18,1,1,0,0,18,1,1,0,0,1,100,260,135,1,,,,,,,,
,,,,,,,,,,,,,FF,,,,,,,,1.017,,,,,,,,,,,,,,,,,,,,,,61007d53537409cd3125c6ca,610368a8ded861a44430ef19,2021-07-29_19h51.38.465,Simcolourproject_2stim_asymm_v5,2020.2.10,MacIntel,60,61025ae37ef11b136ea224fe,,,,,,,,,179,86,-50,1,0,0,response3disk,,5,16,1,1,0,0,rectangle,16,1,1,0,0,16,1,1,0,0,1,101,261,28,1,,,,,,,,
,,,,,,,,,,,,,FF,,,,,,,,1.201,,,,,,,,,,,,,,,,,,,,,,61007d53537409cd3125c6ca,610368a8ded861a44430ef19,2021-07-29_19h51.38.465,Simcolourproject_2stim_asymm_v5,2020.2.10,MacIntel,60,61025ae37ef11b136ea224fe,,,,,,,,,3502,-33,-69,1,0,0,response5disk,,3,4,6,1,0,0,rectangle,4,6,1,0,0,4,6,1,0,0,1,102,262,49,1,,,,,,,,
,,,,,,,,,,,,,FF,,,,,,,,0.767,,,,,,,,,,,,,,,,,,,,,,61007d53537409cd3125c6ca,610368a8ded861a44430ef19,2021-07-29_19h51.38.465,Simcolourproject_2stim_asymm_v5,2020.2.10,MacIntel,60,61025ae37ef11b136ea224fe,,,,,,,,,1573,-25,-71,1,0,0,response5disk,,3,-16,-5,1,0,0,rectangle,-16,-5,1,0,0,-16,-5,1,0,0,1,103,263,155,1,,,,,,,,
,,,,,,,,,,,,,FF,,,,,,,,0.984,,,,,,,,,,,,,,,,,,,,,,61007d53537409cd3125c6ca,610368a8ded861a44430ef19,2021-07-29_19h51.38.465,Simcolourproject_2stim_asymm_v5,2020.2.10,MacIntel,60,61025ae37ef11b136ea224fe,,,,,,,,,715,27,-55,1,0,0,response3disk,,4,9,-3,1,0,0,rectangle,9,-3,1,0,0,9,-3,1,0,0,1,104,264,95,1,,,,,,,,
,,,,,,,,,,,,,FF,,,,,,,,1.401,,,,,,,,,,,,,,,,,,,,,,61007d53537409cd3125c6ca,610368a8ded861a44430ef19,2021-07-29_19h51.38.465,Simcolourproject_2stim_asymm_v5,2020.2.10,MacIntel,60,61025ae37ef11b136ea224fe,,,,,,,,,448,27,-49,1,0,0,response3disk,,4,6,2,1,0,0,rectangle,6,2,1,0,0,6,2,1,0,0,1,105,265,11,1,,,,,,,,
,,,,,,,,,,,,,FF,,,,,,,,0.883,,,,,,,,,,,,,,,,,,,,,,61007d53537409cd3125c6ca,610368a8ded861a44430ef19,2021-07-29_19h51.38.465,Simcolourproject_2stim_asymm_v5,2020.2.10,MacIntel,60,61025ae37ef11b136ea224fe,,,,,,,,,3047,-57,-26,1,0,0,response5disk,,2,10,9,1,0,0,rectangle,10,9,1,0,0,10,9,1,0,0,1,106,266,149,1,,,,,,,,
,,,,,,,,,,,,,FF,,,,,,,,1.084,,,,,,,,,,,,,,,,,,,,,,61007d53537409cd3125c6ca,610368a8ded861a44430ef19,2021-07-29_19h51.38.465,Simcolourproject_2stim_asymm_v5,2020.2.10,MacIntel,60,61025ae37ef11b136ea224fe,,,,,,,,,863,55,18,1,0,0,response1disk,,6,-3,-8,1,0,0,rectangle,-3,-8,1,0,0,-3,-8,1,0,0,1,107,267,117,1,,,,,,,,
,,,,,,,,,,,,,FF,,,,,,,,0.884,,,,,,,,,,,,,,,,,,,,,,61007d53537409cd3125c6ca,610368a8ded861a44430ef19,2021-07-29_19h51.38.465,Simcolourproject_2stim_asymm_v5,2020.2.10,MacIntel,60,61025ae37ef11b136ea224fe,,,,,,,,,2717,80,29,1,0,0,response1disk,,6,6,3,1,0,0,rectangle,6,3,1,0,0,6,3,1,0,0,1,108,268,159,1,,,,,,,,
,,,,,,,,,,,,,FF,,,,,,,,0.833,,,,,,,,,,,,,,,,,,,,,,61007d53537409cd3125c6ca,610368a8ded861a44430ef19,2021-07-29_19h51.38.465,Simcolourproject_2stim_asymm_v5,2020.2.10,MacIntel,60,61025ae37ef11b136ea224fe,,,,,,,,,3435,-24,-37,1,0,0,response5disk,,3,9,-1,1,0,0,rectangle,9,-1,1,0,0,9,-1,1,0,0,1,109,269,115,1,,,,,,,,
,,,,,,,,,,,,,FF,,,,,,,,0.917,,,,,,,,,,,,,,,,,,,,,,61007d53537409cd3125c6ca,610368a8ded861a44430ef19,2021-07-29_19h51.38.465,Simcolourproject_2stim_asymm_v5,2020.2.10,MacIntel,60,61025ae37ef11b136ea224fe,,,,,,,,,315,59,20,1,0,0,response1disk,,6,5,-6,1,0,0,rectangle,5,-6,1,0,0,5,-6,1,0,0,1,110,270,152,1,,,,,,,,
,,,,,,,,,,,,,FF,,,,,,,,0.783,,,,,,,,,,,,,,,,,,,,,,61007d53537409cd3125c6ca,610368a8ded861a44430ef19,2021-07-29_19h51.38.465,Simcolourproject_2stim_asymm_v5,2020.2.10,MacIntel,60,61025ae37ef11b136ea224fe,,,,,,,,,2521,45,28,1,0,0,response1disk,,6,21,3,1,0,0,rectangle,21,3,1,0,0,21,3,1,0,0,1,111,271,81,1,,,,,,,,
,,,,,,,,,,,,,FF,,,,,,,,0.85,,,,,,,,,,,,,,,,,,,,,,61007d53537409cd3125c6ca,610368a8ded861a44430ef19,2021-07-29_19h51.38.465,Simcolourproject_2stim_asymm_v5,2020.2.10,MacIntel,60,61025ae37ef11b136ea224fe,,,,,,,,,1430,49,28,1,0,0,response1disk,,6,12,9,1,0,0,rectangle,12,9,1,0,0,12,9,1,0,0,1,112,272,142,1,,,,,,,,
,,,,,,,,,,,,,FF,,,,,,,,1.817,,,,,,,,,,,,,,,,,,,,,,61007d53537409cd3125c6ca,610368a8ded861a44430ef19,2021-07-29_19h51.38.465,Simcolourproject_2stim_asymm_v5,2020.2.10,MacIntel,60,61025ae37ef11b136ea224fe,,,,,,,,,2770,41,-68,1,0,0,response3disk,,4,6,-5,1,0,0,rectangle,6,-5,1,0,0,6,-5,1,0,0,1,113,273,1,1,,,,,,,,
,,,,,,,,,,,,,FF,,,,,,,,1.101,,,,,,,,,,,,,,,,,,,,,,61007d53537409cd3125c6ca,610368a8ded861a44430ef19,2021-07-29_19h51.38.465,Simcolourproject_2stim_asymm_v5,2020.2.10,MacIntel,60,61025ae37ef11b136ea224fe,,,,,,,,,2609,87,-52,1,0,0,response3disk,,5,6,0,1,0,0,rectangle,6,0,1,0,0,6,0,1,0,0,1,114,274,139,1,,,,,,,,
,,,,,,,,,,,,,FF,,,,,,,,1.3,,,,,,,,,,,,,,,,,,,,,,61007d53537409cd3125c6ca,610368a8ded861a44430ef19,2021-07-29_19h51.38.465,Simcolourproject_2stim_asymm_v5,2020.2.10,MacIntel,60,61025ae37ef11b136ea224fe,,,,,,,,,2969,29,73,1,0,0,response1disk,,7,20,-4,1,0,0,rectangle,20,-4,1,0,0,20,-4,1,0,0,1,115,275,58,1,,,,,,,,
,,,,,,,,,,,,,FF,,,,,,,,0.982,,,,,,,,,,,,,,,,,,,,,,61007d53537409cd3125c6ca,610368a8ded861a44430ef19,2021-07-29_19h51.38.465,Simcolourproject_2stim_asymm_v5,2020.2.10,MacIntel,60,61025ae37ef11b136ea224fe,,,,,,,,,2553,80,54,1,0,0,response1disk,,6,8,-7,1,0,0,rectangle,8,-7,1,0,0,8,-7,1,0,0,1,116,276,84,1,,,,,,,,
,,,,,,,,,,,,,FF,,,,,,,,1.033,,,,,,,,,,,,,,,,,,,,,,61007d53537409cd3125c6ca,610368a8ded861a44430ef19,2021-07-29_19h51.38.465,Simcolourproject_2stim_asymm_v5,2020.2.10,MacIntel,60,61025ae37ef11b136ea224fe,,,,,,,,,2076,63,43,1,0,0,response1disk,,6,15,9,1,0,0,rectangle,15,9,1,0,0,15,9,1,0,0,1,117,277,19,1,,,,,,,,
,,,,,,,,,,,,,FF,,,,,,,,0.769,,,,,,,,,,,,,,,,,,,,,,61007d53537409cd3125c6ca,610368a8ded861a44430ef19,2021-07-29_19h51.38.465,Simcolourproject_2stim_asymm_v5,2020.2.10,MacIntel,60,61025ae37ef11b136ea224fe,,,,,,,,,2667,-37,-57,1,0,0,response5disk,,3,15,1,1,0,0,rectangle,15,1,1,0,0,15,1,1,0,0,1,118,278,66,1,,,,,,,,
,,,,,,,,,,,,,FF,,,,,,,,0.884,,,,,,,,,,,,,,,,,,,,,,61007d53537409cd3125c6ca,610368a8ded861a44430ef19,2021-07-29_19h51.38.465,Simcolourproject_2stim_asymm_v5,2020.2.10,MacIntel,60,61025ae37ef11b136ea224fe,,,,,,,,,1904,32,-54,1,0,0,response3disk,,4,15,1,1,0,0,rectangle,15,1,1,0,0,15,1,1,0,0,1,119,279,9,1,,,,,,,,
,,,,,,,,,,,,,FF,,,,,,,,1.6,,,,,,,,,,,,,,,,,,,,,,61007d53537409cd3125c6ca,610368a8ded861a44430ef19,2021-07-29_19h51.38.465,Simcolourproject_2stim_asymm_v5,2020.2.10,MacIntel,60,61025ae37ef11b136ea224fe,,,,,,,,,2149,76,21,1,0,0,response1disk,,6,6,-8,1,0,0,rectangle,6,-8,1,0,0,6,-8,1,0,0,1,120,280,8,1,,,,,,,,
,,,,,,,,,,,,,FF,,,,,,,,0.551,,,,,,,,,,,,,,,,,,,,,,61007d53537409cd3125c6ca,610368a8ded861a44430ef19,2021-07-29_19h51.38.465,Simcolourproject_2stim_asymm_v5,2020.2.10,MacIntel,60,61025ae37ef11b136ea224fe,,,,,,,,,3210,27,-53,1,0,0,response3disk,,4,11,-9,1,0,0,rectangle,11,-9,1,0,0,11,-9,1,0,0,1,121,281,37,1,,,,,,,,
,,,,,,,,,,,,,FF,,,,,,,,1.234,,,,,,,,,,,,,,,,,,,,,,61007d53537409cd3125c6ca,610368a8ded861a44430ef19,2021-07-29_19h51.38.465,Simcolourproject_2stim_asymm_v5,2020.2.10,MacIntel,60,61025ae37ef11b136ea224fe,,,,,,,,,3213,50,-32,1,0,0,response3disk,,5,9,1,1,0,0,rectangle,-57,29,1,0,0,4,14,1,0,0,1,122,282,46,1,,response7disk_3,TRUE,1,1,"[18,149,19,251,8,245,254,175,173,149,130,197,111,219,283,70,195,27,107,138]",1.333,rectangle
,,,,,,,,,,,,,FF,,,,,,,,1.218,,,,,,,,,,,,,,,,,,,,,,61007d53537409cd3125c6ca,610368a8ded861a44430ef19,2021-07-29_19h51.38.465,Simcolourproject_2stim_asymm_v5,2020.2.10,MacIntel,60,61025ae37ef11b136ea224fe,,,,,,,,,508,55,30,1,0,0,response1disk,,6,16,-3,1,0,0,rectangle,16,-3,1,0,0,16,-3,1,0,0,1,123,283,10,1,,,,,,,,
,,,,,,,,,,,,,FF,,,,,,,,0.751,,,,,,,,,,,,,,,,,,,,,,61007d53537409cd3125c6ca,610368a8ded861a44430ef19,2021-07-29_19h51.38.465,Simcolourproject_2stim_asymm_v5,2020.2.10,MacIntel,60,61025ae37ef11b136ea224fe,,,,,,,,,1857,24,54,1,0,0,response1disk,,7,24,8,1,0,0,rectangle,24,8,1,0,0,24,8,1,0,0,1,124,284,128,1,,,,,,,,
,,,,,,,,,,,,,FF,,,,,,,,0.751,,,,,,,,,,,,,,,,,,,,,,61007d53537409cd3125c6ca,610368a8ded861a44430ef19,2021-07-29_19h51.38.465,Simcolourproject_2stim_asymm_v5,2020.2.10,MacIntel,60,61025ae37ef11b136ea224fe,,,,,,,,,3250,-56,-68,1,0,0,response5disk,,3,-1,-6,1,0,0,rectangle,-1,-6,1,0,0,-1,-6,1,0,0,1,125,285,56,1,,,,,,,,
,,,,,,,,,,,,,FF,,,,,,,,0.6,,,,,,,,,,,,,,,,,,,,,,61007d53537409cd3125c6ca,610368a8ded861a44430ef19,2021-07-29_19h51.38.465,Simcolourproject_2stim_asymm_v5,2020.2.10,MacIntel,60,61025ae37ef11b136ea224fe,,,,,,,,,2082,42,55,1,0,0,response1disk,,7,6,-9,1,0,0,rectangle,6,-9,1,0,0,6,-9,1,0,0,1,126,286,12,1,,,,,,,,
,,,,,,,,,,,,,FF,,,,,,,,1.335,,,,,,,,,,,,,,,,,,,,,,61007d53537409cd3125c6ca,610368a8ded861a44430ef19,2021-07-29_19h51.38.465,Simcolourproject_2stim_asymm_v5,2020.2.10,MacIntel,60,61025ae37ef11b136ea224fe,,,,,,,,,4318,44,-64,1,0,0,response3disk,,4,21,9,1,0,0,rectangle,21,9,1,0,0,21,9,1,0,0,1,127,287,41,1,,,,,,,,
,,,,,,,,,,,,,FF,,,,,,,,1.2,,,,,,,,,,,,,,,,,,,,,,61007d53537409cd3125c6ca,610368a8ded861a44430ef19,2021-07-29_19h51.38.465,Simcolourproject_2stim_asymm_v5,2020.2.10,MacIntel,60,61025ae37ef11b136ea224fe,,,,,,,,,1312,25,-60,1,0,0,response3disk,,4,0,-6,1,0,0,rectangle,0,-6,1,0,0,0,-6,1,0,0,1,128,288,30,1,,,,,,,,
,,,,,,,,,,,,,FF,,,,,,,,0.833,,,,,,,,,,,,,,,,,,,,,,61007d53537409cd3125c6ca,610368a8ded861a44430ef19,2021-07-29_19h51.38.465,Simcolourproject_2stim_asymm_v5,2020.2.10,MacIntel,60,61025ae37ef11b136ea224fe,,,,,,,,,2204,80,16,1,0,0,response1disk,,6,-11,-11,1,0,0,rectangle,-11,-11,1,0,0,-11,-11,1,0,0,1,129,289,112,1,,,,,,,,
,,,,,,,,,,,,,FF,,,,,,,,0.784,,,,,,,,,,,,,,,,,,,,,,61007d53537409cd3125c6ca,610368a8ded861a44430ef19,2021-07-29_19h51.38.465,Simcolourproject_2stim_asymm_v5,2020.2.10,MacIntel,60,61025ae37ef11b136ea224fe,,,,,,,,,1521,-66,-36,1,0,0,response5disk,,2,14,2,1,0,0,rectangle,14,2,1,0,0,14,2,1,0,0,1,130,290,120,1,,,,,,,,
,,,,,,,,,,,,,FF,,,,,,,,0.834,,,,,,,,,,,,,,,,,,,,,,61007d53537409cd3125c6ca,610368a8ded861a44430ef19,2021-07-29_19h51.38.465,Simcolourproject_2stim_asymm_v5,2020.2.10,MacIntel,60,61025ae37ef11b136ea224fe,,,,,,,,,1143,-29,-62,1,0,0,response5disk,,3,-4,-3,1,0,0,rectangle,-4,-3,1,0,0,-4,-3,1,0,0,1,131,291,64,1,,,,,,,,
,,,,,,,,,,,,,FF,,,,,,,,0.732,,,,,,,,,,,,,,,,,,,,,,61007d53537409cd3125c6ca,610368a8ded861a44430ef19,2021-07-29_19h51.38.465,Simcolourproject_2stim_asymm_v5,2020.2.10,MacIntel,60,61025ae37ef11b136ea224fe,,,,,,,,,4124,27,-62,1,0,0,response3disk,,4,19,-10,1,0,0,rectangle,19,-10,1,0,0,19,-10,1,0,0,1,132,292,154,1,,,,,,,,
,,,,,,,,,,,,,FF,,,,,,,,0.75,,,,,,,,,,,,,,,,,,,,,,61007d53537409cd3125c6ca,610368a8ded861a44430ef19,2021-07-29_19h51.38.465,Simcolourproject_2stim_asymm_v5,2020.2.10,MacIntel,60,61025ae37ef11b136ea224fe,,,,,,,,,2132,37,30,1,0,0,response1disk,,6,14,3,1,0,0,rectangle,14,3,1,0,0,14,3,1,0,0,1,133,293,126,1,,,,,,,,
,,,,,,,,,,,,,FF,,,,,,,,0.667,,,,,,,,,,,,,,,,,,,,,,61007d53537409cd3125c6ca,610368a8ded861a44430ef19,2021-07-29_19h51.38.465,Simcolourproject_2stim_asymm_v5,2020.2.10,MacIntel,60,61025ae37ef11b136ea224fe,,,,,,,,,764,21,61,1,0,0,response1disk,,7,20,-6,1,0,0,rectangle,20,-6,1,0,0,20,-6,1,0,0,1,134,294,45,1,,,,,,,,
,,,,,,,,,,,,,FF,,,,,,,,1.032,,,,,,,,,,,,,,,,,,,,,,61007d53537409cd3125c6ca,610368a8ded861a44430ef19,2021-07-29_19h51.38.465,Simcolourproject_2stim_asymm_v5,2020.2.10,MacIntel,60,61025ae37ef11b136ea224fe,,,,,,,,,6,31,-73,1,0,0,response3disk,,4,14,-3,1,0,0,rectangle,14,-3,1,0,0,14,-3,1,0,0,1,135,295,6,1,,,,,,,,
,,,,,,,,,,,,,FF,,,,,,,,0.8,,,,,,,,,,,,,,,,,,,,,,61007d53537409cd3125c6ca,610368a8ded861a44430ef19,2021-07-29_19h51.38.465,Simcolourproject_2stim_asymm_v5,2020.2.10,MacIntel,60,61025ae37ef11b136ea224fe,,,,,,,,,3617,45,60,1,0,0,response1disk,,7,22,11,1,0,0,rectangle,22,11,1,0,0,22,11,1,0,0,1,136,296,91,1,,,,,,,,
,,,,,,,,,,,,,FF,,,,,,,,0.868,,,,,,,,,,,,,,,,,,,,,,61007d53537409cd3125c6ca,610368a8ded861a44430ef19,2021-07-29_19h51.38.465,Simcolourproject_2stim_asymm_v5,2020.2.10,MacIntel,60,61025ae37ef11b136ea224fe,,,,,,,,,822,31,-67,1,0,0,response3disk,,4,5,-9,1,0,0,rectangle,5,-9,1,0,0,5,-9,1,0,0,1,137,297,106,1,,,,,,,,
,,,,,,,,,,,,,FF,,,,,,,,0.916,,,,,,,,,,,,,,,,,,,,,,61007d53537409cd3125c6ca,610368a8ded861a44430ef19,2021-07-29_19h51.38.465,Simcolourproject_2stim_asymm_v5,2020.2.10,MacIntel,60,61025ae37ef11b136ea224fe,,,,,,,,,2371,28,-56,1,0,0,response3disk,,4,16,-6,1,0,0,rectangle,16,-6,1,0,0,16,-6,1,0,0,1,138,298,50,1,,,,,,,,
,,,,,,,,,,,,,FF,,,,,,,,1.267,,,,,,,,,,,,,,,,,,,,,,61007d53537409cd3125c6ca,610368a8ded861a44430ef19,2021-07-29_19h51.38.465,Simcolourproject_2stim_asymm_v5,2020.2.10,MacIntel,60,61025ae37ef11b136ea224fe,,,,,,,,,2947,-29,-69,1,0,0,response5disk,,3,9,-3,1,0,0,rectangle,9,-3,1,0,0,9,-3,1,0,0,1,139,299,13,1,,,,,,,,
,,,,,,,,,,,,,FF,,,,,,,,0.802,,,,,,,,,,,,,,,,,,,,,,61007d53537409cd3125c6ca,610368a8ded861a44430ef19,2021-07-29_19h51.38.465,Simcolourproject_2stim_asymm_v5,2020.2.10,MacIntel,60,61025ae37ef11b136ea224fe,,,,,,,,,2510,68,28,1,0,0,response1disk,,6,23,7,1,0,0,rectangle,23,7,1,0,0,23,7,1,0,0,1,140,300,103,1,,,,,,,,
