key_resp.keys,key_resp.rt,key_resp_14.keys,key_resp_14.rt,key_resp_15.keys,key_resp_15.rt,key_resp_17.keys,key_resp_17.rt,key_resp_9.keys,key_resp_9.rt,key_resp_10.keys,key_resp_10.rt,practice_comparison,Ecc,mouse_5.x,mouse_5.y,mouse_5.leftButton,mouse_5.midButton,mouse_5.rightButton,mouse_5.clicked_name,pracsimilarity,response_time,mouse_10.x,mouse_10.y,mouse_10.leftButton,mouse_10.midButton,mouse_10.rightButton,mouse_10.clicked_name,mouse_7.x,mouse_7.y,mouse_7.leftButton,mouse_7.midButton,mouse_7.rightButton,mouse_6.x,mouse_6.y,mouse_6.leftButton,mouse_6.midButton,mouse_6.rightButton,duringprac.thisRepN,duringprac.thisTrialN,duringprac.thisN,duringprac.thisIndex,duringprac.ran,participant,session,date,expName,psychopyVersion,OS,frameRate,study_id,mouse_7.clicked_name,catchpracsimilarity,catch_response_time,catchnumberprac,catchtrialorderprac,mouse_6.clicked_name,key_resp_22.keys,key_resp_22.rt,realcomparison,mouse.x,mouse.y,mouse.leftButton,mouse.midButton,mouse.rightButton,mouse.clicked_name,Colour2,similarity,mouse_2.x,mouse_2.y,mouse_2.leftButton,mouse_2.midButton,mouse_2.rightButton,mouse_2.clicked_name,mouse_3.x,mouse_3.y,mouse_3.leftButton,mouse_3.midButton,mouse_3.rightButton,mouse_11.x,mouse_11.y,mouse_11.leftButton,mouse_11.midButton,mouse_11.rightButton,trials_2.thisRepN,trials_2.thisTrialN,trials_2.thisN,trials_2.thisIndex,trials_2.ran,Colour1,mouse_3.clicked_name,catchornah,catchsimilarity,catchnumber,catchtrialorder,catchRT,mouse_11.clicked_name
space,1.51448,space,1.72608,space,14.28512,space,47.25449,space,1.121445,space,2.55169,110,FF,55.02734375,-26.31640625,1,0,0,response3disk_5,5,4.138255,2.5234375,-0.58203125,1,0,0,rectangle_8,2.5234375,-0.58203125,1,0,0,2.5234375,-0.58203125,1,0,0,0,0,0,5,1,6100cbe60f7a8b9dd63261b4,61036e95bc5fb54d72d13352,2021-07-29_23h15.53.271,Simcolourproject_2stim_asymm_v5,2020.2.10,MacIntel,60,61025ae37ef11b136ea224fe,,,,,,,,,,,,,,,,,,,,,,,,,,,,,,,,,,,,,,,,,,,,,,
,,,,,,,,,,,,90,FF,-29.859375,-67.67578125,1,0,0,response5disk_5,3,7.499185,7.4140625,-2.6484375,1,0,0,rectangle_8,-95.12890625,-45.640625,1,0,0,5.546875,2.96484375,1,0,0,0,1,1,0,1,6100cbe60f7a8b9dd63261b4,61036e95bc5fb54d72d13352,2021-07-29_23h15.53.271,Simcolourproject_2stim_asymm_v5,2020.2.10,MacIntel,60,61025ae37ef11b136ea224fe,response5disk_7,2,2.933555,2,"[2,5]",rectangle_4,,,,,,,,,,,,,,,,,,,,,,,,,,,,,,,,,,,,,,,,
,,,,,,,,,,,,78,PF,92.5,-61.578125,1,0,0,response3disk_5,5,3.982445,-13.3671875,1.609375,1,0,0,rectangle_8,-13.3671875,1.609375,1,0,0,-13.3671875,1.609375,1,0,0,0,2,2,4,1,6100cbe60f7a8b9dd63261b4,61036e95bc5fb54d72d13352,2021-07-29_23h15.53.271,Simcolourproject_2stim_asymm_v5,2020.2.10,MacIntel,60,61025ae37ef11b136ea224fe,,,,,,,,,,,,,,,,,,,,,,,,,,,,,,,,,,,,,,,,,,,,,,
,,,,,,,,,,,,140,PF,41.23046875,-67.140625,1,0,0,response3disk_5,4,1.89999,12.296875,9.19921875,1,0,0,rectangle_8,12.296875,9.19921875,1,0,0,12.296875,9.19921875,1,0,0,0,3,3,2,1,6100cbe60f7a8b9dd63261b4,61036e95bc5fb54d72d13352,2021-07-29_23h15.53.271,Simcolourproject_2stim_asymm_v5,2020.2.10,MacIntel,60,61025ae37ef11b136ea224fe,,,,,,,,,,,,,,,,,,,,,,,,,,,,,,,,,,,,,,,,,,,,,,
,,,,,,,,,,,,134,PF,-50.7890625,-77.71484375,1,0,0,response5disk_5,3,1.91574,-7.03515625,-3.40234375,1,0,0,rectangle_8,-45.96484375,-110.0117188,1,0,0,-2.01171875,3.88671875,1,0,0,0,4,4,6,1,6100cbe60f7a8b9dd63261b4,61036e95bc5fb54d72d13352,2021-07-29_23h15.53.271,Simcolourproject_2stim_asymm_v5,2020.2.10,MacIntel,60,61025ae37ef11b136ea224fe,response5disk_7,3,1.54997,2,"[2,5]",rectangle_4,,,,,,,,,,,,,,,,,,,,,,,,,,,,,,,,,,,,,,,,
,,,,,,,,,,,,92,FF,-28.3203125,-64.2734375,1,0,0,response5disk_5,3,3.96519,1.6328125,-0.1796875,1,0,0,rectangle_8,1.6328125,-0.1796875,1,0,0,1.6328125,-0.1796875,1,0,0,0,5,5,3,1,6100cbe60f7a8b9dd63261b4,61036e95bc5fb54d72d13352,2021-07-29_23h15.53.271,Simcolourproject_2stim_asymm_v5,2020.2.10,MacIntel,60,61025ae37ef11b136ea224fe,,,,,,,,,,,,,,,,,,,,,,,,,,,,,,,,,,,,,,,,,,,,,,
,,,,,,,,,,,,50,PF,-48.52734375,-77.02734375,1,0,0,response5disk_5,3,1.417585,4.203125,-2.51953125,1,0,0,rectangle_8,4.203125,-2.51953125,1,0,0,4.203125,-2.51953125,1,0,0,0,6,6,1,1,6100cbe60f7a8b9dd63261b4,61036e95bc5fb54d72d13352,2021-07-29_23h15.53.271,Simcolourproject_2stim_asymm_v5,2020.2.10,MacIntel,60,61025ae37ef11b136ea224fe,,,,,,,,,,,,,,,,,,,,,,,,,,,,,,,,,,,,,,,,,,,,,,
,,,,,,,,,,,,,FF,,,,,,,,2.18476,,,,,,,,,,,,,,,,,,,,,,6100cbe60f7a8b9dd63261b4,61036e95bc5fb54d72d13352,2021-07-29_23h15.53.271,Simcolourproject_2stim_asymm_v5,2020.2.10,MacIntel,60,61025ae37ef11b136ea224fe,,,,,,,space,1.789185,2781,-29.85546875,-97.44140625,1,0,0,response5disk,,3,0.9375,-4.64453125,1,0,0,rectangle,0.9375,-4.64453125,1,0,0,0.9375,-4.64453125,1,0,0,0,0,0,3,1,,,,,,,,
,,,,,,,,,,,,,FF,,,,,,,,1.73153,,,,,,,,,,,,,,,,,,,,,,6100cbe60f7a8b9dd63261b4,61036e95bc5fb54d72d13352,2021-07-29_23h15.53.271,Simcolourproject_2stim_asymm_v5,2020.2.10,MacIntel,60,61025ae37ef11b136ea224fe,,,,,,,,,1793,71.33984375,-61.296875,1,0,0,response3disk,,5,-1.53515625,5.53515625,1,0,0,rectangle,-1.53515625,5.53515625,1,0,0,-1.53515625,5.53515625,1,0,0,0,1,1,75,1,,,,,,,,
,,,,,,,,,,,,,FF,,,,,,,,2.150275,,,,,,,,,,,,,,,,,,,,,,6100cbe60f7a8b9dd63261b4,61036e95bc5fb54d72d13352,2021-07-29_23h15.53.271,Simcolourproject_2stim_asymm_v5,2020.2.10,MacIntel,60,61025ae37ef11b136ea224fe,,,,,,,,,1923,88.48046875,-27.47265625,1,0,0,response3disk,,5,7.9765625,3.79296875,1,0,0,rectangle,7.9765625,3.79296875,1,0,0,7.9765625,3.79296875,1,0,0,0,2,2,2,1,,,,,,,,
,,,,,,,,,,,,,FF,,,,,,,,2.118955,,,,,,,,,,,,,,,,,,,,,,6100cbe60f7a8b9dd63261b4,61036e95bc5fb54d72d13352,2021-07-29_23h15.53.271,Simcolourproject_2stim_asymm_v5,2020.2.10,MacIntel,60,61025ae37ef11b136ea224fe,,,,,,,,,3007,-59.74609375,-79.04296875,1,0,0,response5disk,,3,-11.765625,16.70703125,1,0,0,rectangle,-11.765625,16.70703125,1,0,0,-11.765625,16.70703125,1,0,0,0,3,3,72,1,,,,,,,,
,,,,,,,,,,,,,FF,,,,,,,,1.233965,,,,,,,,,,,,,,,,,,,,,,6100cbe60f7a8b9dd63261b4,61036e95bc5fb54d72d13352,2021-07-29_23h15.53.271,Simcolourproject_2stim_asymm_v5,2020.2.10,MacIntel,60,61025ae37ef11b136ea224fe,,,,,,,,,1252,74.41015625,33.55078125,1,0,0,response1disk,,6,20.44921875,8.4765625,1,0,0,rectangle,93.51953125,-66.35546875,1,0,0,13.3046875,-4.6171875,1,0,0,0,4,4,30,1,,response3disk_3,TRUE,5,5,"[282,43,296,5,36,78,241,99,259,196,273,166,173,41,149,101,98,287,20,105]",4.74849,rectangle
,,,,,,,,,,,,,FF,,,,,,,,4.19989,,,,,,,,,,,,,,,,,,,,,,6100cbe60f7a8b9dd63261b4,61036e95bc5fb54d72d13352,2021-07-29_23h15.53.271,Simcolourproject_2stim_asymm_v5,2020.2.10,MacIntel,60,61025ae37ef11b136ea224fe,,,,,,,,,3011,37.85546875,-83.46875,1,0,0,response3disk,,4,6.6015625,-12.38671875,1,0,0,rectangle,6.6015625,-12.38671875,1,0,0,6.6015625,-12.38671875,1,0,0,0,5,5,100,1,,,,,,,,
,,,,,,,,,,,,,FF,,,,,,,,2.100415,,,,,,,,,,,,,,,,,,,,,,6100cbe60f7a8b9dd63261b4,61036e95bc5fb54d72d13352,2021-07-29_23h15.53.271,Simcolourproject_2stim_asymm_v5,2020.2.10,MacIntel,60,61025ae37ef11b136ea224fe,,,,,,,,,3482,56.4453125,-78.28125,1,0,0,response3disk,,4,17.03125,-9.81640625,1,0,0,rectangle,17.03125,-9.81640625,1,0,0,17.03125,-9.81640625,1,0,0,0,6,6,109,1,,,,,,,,
,,,,,,,,,,,,,FF,,,,,,,,3.78296,,,,,,,,,,,,,,,,,,,,,,6100cbe60f7a8b9dd63261b4,61036e95bc5fb54d72d13352,2021-07-29_23h15.53.271,Simcolourproject_2stim_asymm_v5,2020.2.10,MacIntel,60,61025ae37ef11b136ea224fe,,,,,,,,,3168,83.90625,50.42578125,1,0,0,response1disk,,6,5.24609375,10.40625,1,0,0,rectangle,5.24609375,10.40625,1,0,0,5.24609375,10.40625,1,0,0,0,7,7,59,1,,,,,,,,
,,,,,,,,,,,,,FF,,,,,,,,1.533405,,,,,,,,,,,,,,,,,,,,,,6100cbe60f7a8b9dd63261b4,61036e95bc5fb54d72d13352,2021-07-29_23h15.53.271,Simcolourproject_2stim_asymm_v5,2020.2.10,MacIntel,60,61025ae37ef11b136ea224fe,,,,,,,,,1918,91.36328125,-25.1796875,1,0,0,response3disk,,5,29,-6.49609375,1,0,0,rectangle,29,-6.49609375,1,0,0,29,-6.49609375,1,0,0,0,8,8,89,1,,,,,,,,
,,,,,,,,,,,,,FF,,,,,,,,1.400105,,,,,,,,,,,,,,,,,,,,,,6100cbe60f7a8b9dd63261b4,61036e95bc5fb54d72d13352,2021-07-29_23h15.53.271,Simcolourproject_2stim_asymm_v5,2020.2.10,MacIntel,60,61025ae37ef11b136ea224fe,,,,,,,,,380,32.5703125,-92.76171875,1,0,0,response3disk,,4,5.53125,5.7890625,1,0,0,rectangle,5.53125,5.7890625,1,0,0,5.53125,5.7890625,1,0,0,0,9,9,39,1,,,,,,,,
,,,,,,,,,,,,,FF,,,,,,,,3.384445,,,,,,,,,,,,,,,,,,,,,,6100cbe60f7a8b9dd63261b4,61036e95bc5fb54d72d13352,2021-07-29_23h15.53.271,Simcolourproject_2stim_asymm_v5,2020.2.10,MacIntel,60,61025ae37ef11b136ea224fe,,,,,,,,,3146,-67.9765625,87.8203125,1,0,0,response7disk,,0,-7.40234375,-6.43359375,1,0,0,rectangle,-7.40234375,-6.43359375,1,0,0,-7.40234375,-6.43359375,1,0,0,0,10,10,115,1,,,,,,,,
,,,,,,,,,,,,,FF,,,,,,,,4.11808,,,,,,,,,,,,,,,,,,,,,,6100cbe60f7a8b9dd63261b4,61036e95bc5fb54d72d13352,2021-07-29_23h15.53.271,Simcolourproject_2stim_asymm_v5,2020.2.10,MacIntel,60,61025ae37ef11b136ea224fe,,,,,,,,,2289,82.30078125,47.3125,1,0,0,response1disk,,6,12.60546875,3.984375,1,0,0,rectangle,12.60546875,3.984375,1,0,0,12.60546875,3.984375,1,0,0,0,11,11,125,1,,,,,,,,
,,,,,,,,,,,,,FF,,,,,,,,1.33156,,,,,,,,,,,,,,,,,,,,,,6100cbe60f7a8b9dd63261b4,61036e95bc5fb54d72d13352,2021-07-29_23h15.53.271,Simcolourproject_2stim_asymm_v5,2020.2.10,MacIntel,60,61025ae37ef11b136ea224fe,,,,,,,,,2474,70.609375,34.73046875,1,0,0,response1disk,,6,12.828125,2.921875,1,0,0,rectangle,12.828125,2.921875,1,0,0,12.828125,2.921875,1,0,0,0,12,12,86,1,,,,,,,,
,,,,,,,,,,,,,FF,,,,,,,,2.51501,,,,,,,,,,,,,,,,,,,,,,6100cbe60f7a8b9dd63261b4,61036e95bc5fb54d72d13352,2021-07-29_23h15.53.271,Simcolourproject_2stim_asymm_v5,2020.2.10,MacIntel,60,61025ae37ef11b136ea224fe,,,,,,,,,2814,77.40234375,-26.37890625,1,0,0,response3disk,,5,2.48046875,9.7109375,1,0,0,rectangle,2.48046875,9.7109375,1,0,0,2.48046875,9.7109375,1,0,0,0,13,13,154,1,,,,,,,,
,,,,,,,,,,,,,FF,,,,,,,,1.498815,,,,,,,,,,,,,,,,,,,,,,6100cbe60f7a8b9dd63261b4,61036e95bc5fb54d72d13352,2021-07-29_23h15.53.271,Simcolourproject_2stim_asymm_v5,2020.2.10,MacIntel,60,61025ae37ef11b136ea224fe,,,,,,,,,115,44.3515625,-59.7890625,1,0,0,response3disk,,4,13.21484375,-3.98828125,1,0,0,rectangle,13.21484375,-3.98828125,1,0,0,13.21484375,-3.98828125,1,0,0,0,14,14,81,1,,,,,,,,
,,,,,,,,,,,,,FF,,,,,,,,0.98365,,,,,,,,,,,,,,,,,,,,,,6100cbe60f7a8b9dd63261b4,61036e95bc5fb54d72d13352,2021-07-29_23h15.53.271,Simcolourproject_2stim_asymm_v5,2020.2.10,MacIntel,60,61025ae37ef11b136ea224fe,,,,,,,,,1956,-53.9609375,95.65234375,1,0,0,response7disk,,0,-15.5625,-4.45703125,1,0,0,rectangle,-15.5625,-4.45703125,1,0,0,-15.5625,-4.45703125,1,0,0,0,15,15,143,1,,,,,,,,
,,,,,,,,,,,,,FF,,,,,,,,2.43377,,,,,,,,,,,,,,,,,,,,,,6100cbe60f7a8b9dd63261b4,61036e95bc5fb54d72d13352,2021-07-29_23h15.53.271,Simcolourproject_2stim_asymm_v5,2020.2.10,MacIntel,60,61025ae37ef11b136ea224fe,,,,,,,,,2975,86.50390625,-51.69921875,1,0,0,response3disk,,5,12.484375,6.015625,1,0,0,rectangle,12.484375,6.015625,1,0,0,12.484375,6.015625,1,0,0,0,16,16,70,1,,,,,,,,
,,,,,,,,,,,,,FF,,,,,,,,1.233575,,,,,,,,,,,,,,,,,,,,,,6100cbe60f7a8b9dd63261b4,61036e95bc5fb54d72d13352,2021-07-29_23h15.53.271,Simcolourproject_2stim_asymm_v5,2020.2.10,MacIntel,60,61025ae37ef11b136ea224fe,,,,,,,,,947,80.44921875,-50.625,1,0,0,response3disk,,5,17.50390625,-12.11328125,1,0,0,rectangle,17.50390625,-12.11328125,1,0,0,17.50390625,-12.11328125,1,0,0,0,17,17,65,1,,,,,,,,
,,,,,,,,,,,,,FF,,,,,,,,1.7994,,,,,,,,,,,,,,,,,,,,,,6100cbe60f7a8b9dd63261b4,61036e95bc5fb54d72d13352,2021-07-29_23h15.53.271,Simcolourproject_2stim_asymm_v5,2020.2.10,MacIntel,60,61025ae37ef11b136ea224fe,,,,,,,,,2520,90.26953125,-56.203125,1,0,0,response3disk,,5,14.96484375,1.1640625,1,0,0,rectangle,14.96484375,1.1640625,1,0,0,14.96484375,1.1640625,1,0,0,0,18,18,36,1,,,,,,,,
,,,,,,,,,,,,,FF,,,,,,,,1.083735,,,,,,,,,,,,,,,,,,,,,,6100cbe60f7a8b9dd63261b4,61036e95bc5fb54d72d13352,2021-07-29_23h15.53.271,Simcolourproject_2stim_asymm_v5,2020.2.10,MacIntel,60,61025ae37ef11b136ea224fe,,,,,,,,,2925,91.16796875,34.87890625,1,0,0,response1disk,,6,20,-1.6171875,1,0,0,rectangle,75.34765625,-49.08984375,1,0,0,10.5859375,-2.69921875,1,0,0,0,19,19,29,1,,response3disk_3,TRUE,5,5,"[282,43,296,5,36,78,241,99,259,196,273,166,173,41,149,101,98,287,20,105]",1.48332,rectangle
,,,,,,,,,,,,,FF,,,,,,,,10.583295,,,,,,,,,,,,,,,,,,,,,,6100cbe60f7a8b9dd63261b4,61036e95bc5fb54d72d13352,2021-07-29_23h15.53.271,Simcolourproject_2stim_asymm_v5,2020.2.10,MacIntel,60,61025ae37ef11b136ea224fe,,,,,,,,,2906,46.7890625,-75.67578125,1,0,0,response3disk,,4,11.234375,-1.375,1,0,0,rectangle,11.234375,-1.375,1,0,0,11.234375,-1.375,1,0,0,0,20,20,53,1,,,,,,,,
,,,,,,,,,,,,,FF,,,,,,,,0.883575,,,,,,,,,,,,,,,,,,,,,,6100cbe60f7a8b9dd63261b4,61036e95bc5fb54d72d13352,2021-07-29_23h15.53.271,Simcolourproject_2stim_asymm_v5,2020.2.10,MacIntel,60,61025ae37ef11b136ea224fe,,,,,,,,,3381,-48.00390625,93.8046875,1,0,0,response7disk,,0,5.47265625,-7.5546875,1,0,0,rectangle,5.47265625,-7.5546875,1,0,0,5.47265625,-7.5546875,1,0,0,0,21,21,135,1,,,,,,,,
,,,,,,,,,,,,,FF,,,,,,,,3.31716,,,,,,,,,,,,,,,,,,,,,,6100cbe60f7a8b9dd63261b4,61036e95bc5fb54d72d13352,2021-07-29_23h15.53.271,Simcolourproject_2stim_asymm_v5,2020.2.10,MacIntel,60,61025ae37ef11b136ea224fe,,,,,,,,,4116,58.7734375,-33.265625,1,0,0,response3disk,,5,23.1171875,3.546875,1,0,0,rectangle,23.1171875,3.546875,1,0,0,23.1171875,3.546875,1,0,0,0,22,22,67,1,,,,,,,,
,,,,,,,,,,,,,FF,,,,,,,,3.24887,,,,,,,,,,,,,,,,,,,,,,6100cbe60f7a8b9dd63261b4,61036e95bc5fb54d72d13352,2021-07-29_23h15.53.271,Simcolourproject_2stim_asymm_v5,2020.2.10,MacIntel,60,61025ae37ef11b136ea224fe,,,,,,,,,3579,57.58984375,77.7578125,1,0,0,response1disk,,7,29.046875,12.6953125,1,0,0,rectangle,29.046875,12.6953125,1,0,0,29.046875,12.6953125,1,0,0,0,23,23,8,1,,,,,,,,
,,,,,,,,,,,,,FF,,,,,,,,1.566575,,,,,,,,,,,,,,,,,,,,,,6100cbe60f7a8b9dd63261b4,61036e95bc5fb54d72d13352,2021-07-29_23h15.53.271,Simcolourproject_2stim_asymm_v5,2020.2.10,MacIntel,60,61025ae37ef11b136ea224fe,,,,,,,,,1818,-29.515625,-93.828125,1,0,0,response5disk,,3,0.65234375,-2.0625,1,0,0,rectangle,0.65234375,-2.0625,1,0,0,0.65234375,-2.0625,1,0,0,0,24,24,92,1,,,,,,,,
,,,,,,,,,,,,,FF,,,,,,,,3.815785,,,,,,,,,,,,,,,,,,,,,,6100cbe60f7a8b9dd63261b4,61036e95bc5fb54d72d13352,2021-07-29_23h15.53.271,Simcolourproject_2stim_asymm_v5,2020.2.10,MacIntel,60,61025ae37ef11b136ea224fe,,,,,,,,,1505,49.171875,-63.69921875,1,0,0,response3disk,,4,5.4140625,-1.34765625,1,0,0,rectangle,5.4140625,-1.34765625,1,0,0,5.4140625,-1.34765625,1,0,0,0,25,25,11,1,,,,,,,,
,,,,,,,,,,,,,FF,,,,,,,,0.7491,,,,,,,,,,,,,,,,,,,,,,6100cbe60f7a8b9dd63261b4,61036e95bc5fb54d72d13352,2021-07-29_23h15.53.271,Simcolourproject_2stim_asymm_v5,2020.2.10,MacIntel,60,61025ae37ef11b136ea224fe,,,,,,,,,2660,-42.12890625,71.25,1,0,0,response7disk,,0,-25.71484375,8.28515625,1,0,0,rectangle,-25.71484375,8.28515625,1,0,0,-25.71484375,8.28515625,1,0,0,0,26,26,127,1,,,,,,,,
,,,,,,,,,,,,,FF,,,,,,,,1.449855,,,,,,,,,,,,,,,,,,,,,,6100cbe60f7a8b9dd63261b4,61036e95bc5fb54d72d13352,2021-07-29_23h15.53.271,Simcolourproject_2stim_asymm_v5,2020.2.10,MacIntel,60,61025ae37ef11b136ea224fe,,,,,,,,,1347,-47.77734375,-93.7890625,1,0,0,response5disk,,3,-4.62109375,-5,1,0,0,rectangle,-4.62109375,-5,1,0,0,-4.62109375,-5,1,0,0,0,27,27,56,1,,,,,,,,
,,,,,,,,,,,,,FF,,,,,,,,1.24925,,,,,,,,,,,,,,,,,,,,,,6100cbe60f7a8b9dd63261b4,61036e95bc5fb54d72d13352,2021-07-29_23h15.53.271,Simcolourproject_2stim_asymm_v5,2020.2.10,MacIntel,60,61025ae37ef11b136ea224fe,,,,,,,,,217,101.4296875,-23.3828125,1,0,0,response3disk,,5,14.1875,-4.1875,1,0,0,rectangle,14.1875,-4.1875,1,0,0,14.1875,-4.1875,1,0,0,0,28,28,19,1,,,,,,,,
,,,,,,,,,,,,,FF,,,,,,,,2.41662,,,,,,,,,,,,,,,,,,,,,,6100cbe60f7a8b9dd63261b4,61036e95bc5fb54d72d13352,2021-07-29_23h15.53.271,Simcolourproject_2stim_asymm_v5,2020.2.10,MacIntel,60,61025ae37ef11b136ea224fe,,,,,,,,,2879,30.515625,-99.5078125,1,0,0,response3disk,,4,12.1171875,-14.703125,1,0,0,rectangle,12.1171875,-14.703125,1,0,0,12.1171875,-14.703125,1,0,0,0,29,29,20,1,,,,,,,,
,,,,,,,,,,,,,FF,,,,,,,,1.30039,,,,,,,,,,,,,,,,,,,,,,6100cbe60f7a8b9dd63261b4,61036e95bc5fb54d72d13352,2021-07-29_23h15.53.271,Simcolourproject_2stim_asymm_v5,2020.2.10,MacIntel,60,61025ae37ef11b136ea224fe,,,,,,,,,826,43.91015625,-71.359375,1,0,0,response3disk,,4,-9.953125,-2.18359375,1,0,0,rectangle,-9.953125,-2.18359375,1,0,0,-9.953125,-2.18359375,1,0,0,0,30,30,62,1,,,,,,,,
,,,,,,,,,,,,,FF,,,,,,,,0.89997,,,,,,,,,,,,,,,,,,,,,,6100cbe60f7a8b9dd63261b4,61036e95bc5fb54d72d13352,2021-07-29_23h15.53.271,Simcolourproject_2stim_asymm_v5,2020.2.10,MacIntel,60,61025ae37ef11b136ea224fe,,,,,,,,,1718,58.4453125,-46.06640625,1,0,0,response3disk,,5,7.0703125,-2.80859375,1,0,0,rectangle,7.0703125,-2.80859375,1,0,0,7.0703125,-2.80859375,1,0,0,0,31,31,120,1,,,,,,,,
,,,,,,,,,,,,,FF,,,,,,,,0.91675,,,,,,,,,,,,,,,,,,,,,,6100cbe60f7a8b9dd63261b4,61036e95bc5fb54d72d13352,2021-07-29_23h15.53.271,Simcolourproject_2stim_asymm_v5,2020.2.10,MacIntel,60,61025ae37ef11b136ea224fe,,,,,,,,,3615,70.60546875,34.12109375,1,0,0,response1disk,,6,-1.6953125,7.89453125,1,0,0,rectangle,-1.6953125,7.89453125,1,0,0,-1.6953125,7.89453125,1,0,0,0,32,32,129,1,,,,,,,,
,,,,,,,,,,,,,FF,,,,,,,,1.49944,,,,,,,,,,,,,,,,,,,,,,6100cbe60f7a8b9dd63261b4,61036e95bc5fb54d72d13352,2021-07-29_23h15.53.271,Simcolourproject_2stim_asymm_v5,2020.2.10,MacIntel,60,61025ae37ef11b136ea224fe,,,,,,,,,3754,-19.55078125,-98.99609375,1,0,0,response5disk,,3,22.91796875,3.9453125,1,0,0,rectangle,22.91796875,3.9453125,1,0,0,22.91796875,3.9453125,1,0,0,0,33,33,98,1,,,,,,,,
,,,,,,,,,,,,,FF,,,,,,,,1.198185,,,,,,,,,,,,,,,,,,,,,,6100cbe60f7a8b9dd63261b4,61036e95bc5fb54d72d13352,2021-07-29_23h15.53.271,Simcolourproject_2stim_asymm_v5,2020.2.10,MacIntel,60,61025ae37ef11b136ea224fe,,,,,,,,,1465,32.59375,-102.1875,1,0,0,response3disk,,4,5.88671875,-6.3125,1,0,0,rectangle,5.88671875,-6.3125,1,0,0,5.88671875,-6.3125,1,0,0,0,34,34,117,1,,,,,,,,
,,,,,,,,,,,,,FF,,,,,,,,1.11638,,,,,,,,,,,,,,,,,,,,,,6100cbe60f7a8b9dd63261b4,61036e95bc5fb54d72d13352,2021-07-29_23h15.53.271,Simcolourproject_2stim_asymm_v5,2020.2.10,MacIntel,60,61025ae37ef11b136ea224fe,,,,,,,,,2261,65.29296875,-50.8515625,1,0,0,response3disk,,5,4.62890625,10.45703125,1,0,0,rectangle,35.23046875,-99.89453125,1,0,0,11.30859375,-13.76953125,1,0,0,0,35,35,10,1,,response3disk_3,TRUE,4,4,"[282,43,296,5,36,78,241,99,259,196,273,166,173,41,149,101,98,287,20,105]",1.199565,rectangle
,,,,,,,,,,,,,FF,,,,,,,,0.884975,,,,,,,,,,,,,,,,,,,,,,6100cbe60f7a8b9dd63261b4,61036e95bc5fb54d72d13352,2021-07-29_23h15.53.271,Simcolourproject_2stim_asymm_v5,2020.2.10,MacIntel,60,61025ae37ef11b136ea224fe,,,,,,,,,878,84.58984375,-42.28125,1,0,0,response3disk,,5,-20.63671875,12.42578125,1,0,0,rectangle,-20.63671875,12.42578125,1,0,0,-20.63671875,12.42578125,1,0,0,0,36,36,74,1,,,,,,,,
,,,,,,,,,,,,,FF,,,,,,,,1.133095,,,,,,,,,,,,,,,,,,,,,,6100cbe60f7a8b9dd63261b4,61036e95bc5fb54d72d13352,2021-07-29_23h15.53.271,Simcolourproject_2stim_asymm_v5,2020.2.10,MacIntel,60,61025ae37ef11b136ea224fe,,,,,,,,,2312,72.76953125,33.51171875,1,0,0,response1disk,,6,-9.84765625,-10.65234375,1,0,0,rectangle,-9.84765625,-10.65234375,1,0,0,-9.84765625,-10.65234375,1,0,0,0,37,37,18,1,,,,,,,,
,,,,,,,,,,,,,FF,,,,,,,,0.921475,,,,,,,,,,,,,,,,,,,,,,6100cbe60f7a8b9dd63261b4,61036e95bc5fb54d72d13352,2021-07-29_23h15.53.271,Simcolourproject_2stim_asymm_v5,2020.2.10,MacIntel,60,61025ae37ef11b136ea224fe,,,,,,,,,3915,35.1875,-82.37890625,1,0,0,response3disk,,4,-13.04296875,10.20703125,1,0,0,rectangle,-13.04296875,10.20703125,1,0,0,-13.04296875,10.20703125,1,0,0,0,38,38,24,1,,,,,,,,
,,,,,,,,,,,,,FF,,,,,,,,1.249095,,,,,,,,,,,,,,,,,,,,,,6100cbe60f7a8b9dd63261b4,61036e95bc5fb54d72d13352,2021-07-29_23h15.53.271,Simcolourproject_2stim_asymm_v5,2020.2.10,MacIntel,60,61025ae37ef11b136ea224fe,,,,,,,,,2905,40.48046875,-68.3125,1,0,0,response3disk,,4,19.56640625,11.41796875,1,0,0,rectangle,19.56640625,11.41796875,1,0,0,19.56640625,11.41796875,1,0,0,0,39,39,9,1,,,,,,,,
,,,,,,,,,,,,,FF,,,,,,,,1.500035,,,,,,,,,,,,,,,,,,,,,,6100cbe60f7a8b9dd63261b4,61036e95bc5fb54d72d13352,2021-07-29_23h15.53.271,Simcolourproject_2stim_asymm_v5,2020.2.10,MacIntel,60,61025ae37ef11b136ea224fe,,,,,,,,,3377,61.609375,-40.9921875,1,0,0,response3disk,,5,-9.2265625,13.078125,1,0,0,rectangle,-57.3828125,-93.94140625,1,0,0,17.625,0.03125,1,0,0,0,40,40,79,1,,response5disk_3,TRUE,3,3,"[282,43,296,5,36,78,241,99,259,196,273,166,173,41,149,101,98,287,20,105]",1.0829,rectangle
,,,,,,,,,,,,,FF,,,,,,,,3.799365,,,,,,,,,,,,,,,,,,,,,,6100cbe60f7a8b9dd63261b4,61036e95bc5fb54d72d13352,2021-07-29_23h15.53.271,Simcolourproject_2stim_asymm_v5,2020.2.10,MacIntel,60,61025ae37ef11b136ea224fe,,,,,,,,,1141,45.98828125,-95.375,1,0,0,response3disk,,4,19.75,-1.8046875,1,0,0,rectangle,19.75,-1.8046875,1,0,0,19.75,-1.8046875,1,0,0,0,41,41,4,1,,,,,,,,
,,,,,,,,,,,,,FF,,,,,,,,0.732965,,,,,,,,,,,,,,,,,,,,,,6100cbe60f7a8b9dd63261b4,61036e95bc5fb54d72d13352,2021-07-29_23h15.53.271,Simcolourproject_2stim_asymm_v5,2020.2.10,MacIntel,60,61025ae37ef11b136ea224fe,,,,,,,,,2185,82.640625,-39.86328125,1,0,0,response3disk,,5,14.33203125,-2.78125,1,0,0,rectangle,48.57421875,78.0390625,1,0,0,-2.25390625,8.9140625,1,0,0,0,42,42,6,1,,response1disk_3,TRUE,7,7,"[282,43,296,5,36,78,241,99,259,196,273,166,173,41,149,101,98,287,20,105]",1.133205,rectangle
,,,,,,,,,,,,,FF,,,,,,,,1.61523,,,,,,,,,,,,,,,,,,,,,,6100cbe60f7a8b9dd63261b4,61036e95bc5fb54d72d13352,2021-07-29_23h15.53.271,Simcolourproject_2stim_asymm_v5,2020.2.10,MacIntel,60,61025ae37ef11b136ea224fe,,,,,,,,,4352,-87.45703125,-63.296875,1,0,0,response5disk,,2,-1.06640625,9.7109375,1,0,0,rectangle,-1.06640625,9.7109375,1,0,0,-1.06640625,9.7109375,1,0,0,0,43,43,147,1,,,,,,,,
,,,,,,,,,,,,,FF,,,,,,,,1.09832,,,,,,,,,,,,,,,,,,,,,,6100cbe60f7a8b9dd63261b4,61036e95bc5fb54d72d13352,2021-07-29_23h15.53.271,Simcolourproject_2stim_asymm_v5,2020.2.10,MacIntel,60,61025ae37ef11b136ea224fe,,,,,,,,,705,-38.59765625,-75.95703125,1,0,0,response5disk,,3,-3.125,-9,1,0,0,rectangle,-3.125,-9,1,0,0,-3.125,-9,1,0,0,0,44,44,103,1,,,,,,,,
,,,,,,,,,,,,,FF,,,,,,,,1.6326,,,,,,,,,,,,,,,,,,,,,,6100cbe60f7a8b9dd63261b4,61036e95bc5fb54d72d13352,2021-07-29_23h15.53.271,Simcolourproject_2stim_asymm_v5,2020.2.10,MacIntel,60,61025ae37ef11b136ea224fe,,,,,,,,,3080,56.390625,-101.21875,1,0,0,response3disk,,4,12.69140625,2.6640625,1,0,0,rectangle,12.69140625,2.6640625,1,0,0,12.69140625,2.6640625,1,0,0,0,45,45,22,1,,,,,,,,
,,,,,,,,,,,,,FF,,,,,,,,1.16767,,,,,,,,,,,,,,,,,,,,,,6100cbe60f7a8b9dd63261b4,61036e95bc5fb54d72d13352,2021-07-29_23h15.53.271,Simcolourproject_2stim_asymm_v5,2020.2.10,MacIntel,60,61025ae37ef11b136ea224fe,,,,,,,,,1687,48.328125,-73.7421875,1,0,0,response3disk,,4,7.62890625,-6.18359375,1,0,0,rectangle,7.62890625,-6.18359375,1,0,0,7.62890625,-6.18359375,1,0,0,0,46,46,110,1,,,,,,,,
,,,,,,,,,,,,,FF,,,,,,,,1.48915,,,,,,,,,,,,,,,,,,,,,,6100cbe60f7a8b9dd63261b4,61036e95bc5fb54d72d13352,2021-07-29_23h15.53.271,Simcolourproject_2stim_asymm_v5,2020.2.10,MacIntel,60,61025ae37ef11b136ea224fe,,,,,,,,,476,81.4609375,-25.7109375,1,0,0,response3disk,,5,27.7265625,-5.34375,1,0,0,rectangle,27.7265625,-5.34375,1,0,0,27.7265625,-5.34375,1,0,0,0,47,47,105,1,,,,,,,,
,,,,,,,,,,,,,FF,,,,,,,,1.583335,,,,,,,,,,,,,,,,,,,,,,6100cbe60f7a8b9dd63261b4,61036e95bc5fb54d72d13352,2021-07-29_23h15.53.271,Simcolourproject_2stim_asymm_v5,2020.2.10,MacIntel,60,61025ae37ef11b136ea224fe,,,,,,,,,2863,99.359375,40.59765625,1,0,0,response1disk,,6,32.8203125,7.12109375,1,0,0,rectangle,32.8203125,7.12109375,1,0,0,32.8203125,7.12109375,1,0,0,0,48,48,145,1,,,,,,,,
,,,,,,,,,,,,,FF,,,,,,,,1.46697,,,,,,,,,,,,,,,,,,,,,,6100cbe60f7a8b9dd63261b4,61036e95bc5fb54d72d13352,2021-07-29_23h15.53.271,Simcolourproject_2stim_asymm_v5,2020.2.10,MacIntel,60,61025ae37ef11b136ea224fe,,,,,,,,,4150,-41.87109375,-109.7304688,1,0,0,response5disk,,3,3.76171875,-7.6015625,1,0,0,rectangle,3.76171875,-7.6015625,1,0,0,3.76171875,-7.6015625,1,0,0,0,49,49,0,1,,,,,,,,
,,,,,,,,,,,,,FF,,,,,,,,1.00097,,,,,,,,,,,,,,,,,,,,,,6100cbe60f7a8b9dd63261b4,61036e95bc5fb54d72d13352,2021-07-29_23h15.53.271,Simcolourproject_2stim_asymm_v5,2020.2.10,MacIntel,60,61025ae37ef11b136ea224fe,,,,,,,,,3813,-39.72265625,-98.34375,1,0,0,response5disk,,3,2.5546875,4.359375,1,0,0,rectangle,2.5546875,4.359375,1,0,0,2.5546875,4.359375,1,0,0,0,50,50,84,1,,,,,,,,
,,,,,,,,,,,,,FF,,,,,,,,1.285005,,,,,,,,,,,,,,,,,,,,,,6100cbe60f7a8b9dd63261b4,61036e95bc5fb54d72d13352,2021-07-29_23h15.53.271,Simcolourproject_2stim_asymm_v5,2020.2.10,MacIntel,60,61025ae37ef11b136ea224fe,,,,,,,,,801,-64.87890625,46.01171875,1,0,0,response7disk,,1,0.4296875,-3.51953125,1,0,0,rectangle,0.4296875,-3.51953125,1,0,0,0.4296875,-3.51953125,1,0,0,0,51,51,146,1,,,,,,,,
,,,,,,,,,,,,,FF,,,,,,,,0.999555,,,,,,,,,,,,,,,,,,,,,,6100cbe60f7a8b9dd63261b4,61036e95bc5fb54d72d13352,2021-07-29_23h15.53.271,Simcolourproject_2stim_asymm_v5,2020.2.10,MacIntel,60,61025ae37ef11b136ea224fe,,,,,,,,,1635,94.83203125,-50.26953125,1,0,0,response3disk,,5,12.8828125,-4.9765625,1,0,0,rectangle,12.8828125,-4.9765625,1,0,0,12.8828125,-4.9765625,1,0,0,0,52,52,153,1,,,,,,,,
,,,,,,,,,,,,,FF,,,,,,,,0.95067,,,,,,,,,,,,,,,,,,,,,,6100cbe60f7a8b9dd63261b4,61036e95bc5fb54d72d13352,2021-07-29_23h15.53.271,Simcolourproject_2stim_asymm_v5,2020.2.10,MacIntel,60,61025ae37ef11b136ea224fe,,,,,,,,,778,36.59375,-92.921875,1,0,0,response3disk,,4,2.8125,-0.65234375,1,0,0,rectangle,2.8125,-0.65234375,1,0,0,2.8125,-0.65234375,1,0,0,0,53,53,112,1,,,,,,,,
,,,,,,,,,,,,,FF,,,,,,,,0.93323,,,,,,,,,,,,,,,,,,,,,,6100cbe60f7a8b9dd63261b4,61036e95bc5fb54d72d13352,2021-07-29_23h15.53.271,Simcolourproject_2stim_asymm_v5,2020.2.10,MacIntel,60,61025ae37ef11b136ea224fe,,,,,,,,,3263,65.1875,-35.33203125,1,0,0,response3disk,,5,18.62109375,11.78125,1,0,0,rectangle,18.62109375,11.78125,1,0,0,18.62109375,11.78125,1,0,0,0,54,54,121,1,,,,,,,,
,,,,,,,,,,,,,FF,,,,,,,,1.483275,,,,,,,,,,,,,,,,,,,,,,6100cbe60f7a8b9dd63261b4,61036e95bc5fb54d72d13352,2021-07-29_23h15.53.271,Simcolourproject_2stim_asymm_v5,2020.2.10,MacIntel,60,61025ae37ef11b136ea224fe,,,,,,,,,4246,49.5546875,97.33984375,1,0,0,response1disk,,7,4.9765625,-0.59375,1,0,0,rectangle,4.9765625,-0.59375,1,0,0,4.9765625,-0.59375,1,0,0,0,55,55,83,1,,,,,,,,
,,,,,,,,,,,,,FF,,,,,,,,1.716325,,,,,,,,,,,,,,,,,,,,,,6100cbe60f7a8b9dd63261b4,61036e95bc5fb54d72d13352,2021-07-29_23h15.53.271,Simcolourproject_2stim_asymm_v5,2020.2.10,MacIntel,60,61025ae37ef11b136ea224fe,,,,,,,,,2046,45.91796875,-111.2773438,1,0,0,response3disk,,4,9.60546875,-15.58984375,1,0,0,rectangle,9.60546875,-15.58984375,1,0,0,9.60546875,-15.58984375,1,0,0,0,56,56,25,1,,,,,,,,
,,,,,,,,,,,,,FF,,,,,,,,0.950595,,,,,,,,,,,,,,,,,,,,,,6100cbe60f7a8b9dd63261b4,61036e95bc5fb54d72d13352,2021-07-29_23h15.53.271,Simcolourproject_2stim_asymm_v5,2020.2.10,MacIntel,60,61025ae37ef11b136ea224fe,,,,,,,,,1215,-41.5859375,-120.421875,1,0,0,response5disk,,3,-16.78515625,7.87890625,1,0,0,rectangle,-16.78515625,7.87890625,1,0,0,-16.78515625,7.87890625,1,0,0,0,57,57,159,1,,,,,,,,
,,,,,,,,,,,,,FF,,,,,,,,0.700615,,,,,,,,,,,,,,,,,,,,,,6100cbe60f7a8b9dd63261b4,61036e95bc5fb54d72d13352,2021-07-29_23h15.53.271,Simcolourproject_2stim_asymm_v5,2020.2.10,MacIntel,60,61025ae37ef11b136ea224fe,,,,,,,,,530,-54.4296875,-103.796875,1,0,0,response5disk,,3,0.98828125,16.265625,1,0,0,rectangle,0.98828125,16.265625,1,0,0,0.98828125,16.265625,1,0,0,0,58,58,31,1,,,,,,,,
,,,,,,,,,,,,,FF,,,,,,,,1.050845,,,,,,,,,,,,,,,,,,,,,,6100cbe60f7a8b9dd63261b4,61036e95bc5fb54d72d13352,2021-07-29_23h15.53.271,Simcolourproject_2stim_asymm_v5,2020.2.10,MacIntel,60,61025ae37ef11b136ea224fe,,,,,,,,,4205,-78.359375,-63.81640625,1,0,0,response5disk,,2,-28.6015625,-4.87109375,1,0,0,rectangle,-28.6015625,-4.87109375,1,0,0,-28.6015625,-4.87109375,1,0,0,0,59,59,151,1,,,,,,,,
,,,,,,,,,,,,,FF,,,,,,,,1.36919,,,,,,,,,,,,,,,,,,,,,,6100cbe60f7a8b9dd63261b4,61036e95bc5fb54d72d13352,2021-07-29_23h15.53.271,Simcolourproject_2stim_asymm_v5,2020.2.10,MacIntel,60,61025ae37ef11b136ea224fe,,,,,,,,,1890,-40.0703125,-94.53125,1,0,0,response5disk,,3,3.65234375,7.45703125,1,0,0,rectangle,3.65234375,7.45703125,1,0,0,3.65234375,7.45703125,1,0,0,0,60,60,102,1,,,,,,,,
,,,,,,,,,,,,,FF,,,,,,,,1.333245,,,,,,,,,,,,,,,,,,,,,,6100cbe60f7a8b9dd63261b4,61036e95bc5fb54d72d13352,2021-07-29_23h15.53.271,Simcolourproject_2stim_asymm_v5,2020.2.10,MacIntel,60,61025ae37ef11b136ea224fe,,,,,,,,,334,84.37109375,45.59765625,1,0,0,response1disk,,6,19.45703125,10.17578125,1,0,0,rectangle,19.45703125,10.17578125,1,0,0,19.45703125,10.17578125,1,0,0,0,61,61,152,1,,,,,,,,
,,,,,,,,,,,,,FF,,,,,,,,1.26768,,,,,,,,,,,,,,,,,,,,,,6100cbe60f7a8b9dd63261b4,61036e95bc5fb54d72d13352,2021-07-29_23h15.53.271,Simcolourproject_2stim_asymm_v5,2020.2.10,MacIntel,60,61025ae37ef11b136ea224fe,,,,,,,,,2556,60.0703125,-78.91796875,1,0,0,response3disk,,4,18.6015625,11.13671875,1,0,0,rectangle,18.6015625,11.13671875,1,0,0,18.6015625,11.13671875,1,0,0,0,62,62,43,1,,,,,,,,
,,,,,,,,,,,,,FF,,,,,,,,1.7158,,,,,,,,,,,,,,,,,,,,,,6100cbe60f7a8b9dd63261b4,61036e95bc5fb54d72d13352,2021-07-29_23h15.53.271,Simcolourproject_2stim_asymm_v5,2020.2.10,MacIntel,60,61025ae37ef11b136ea224fe,,,,,,,,,3771,70.05078125,31.1171875,1,0,0,response1disk,,6,-13.953125,11.65625,1,0,0,rectangle,-13.953125,11.65625,1,0,0,-13.953125,11.65625,1,0,0,0,63,63,1,1,,,,,,,,
,,,,,,,,,,,,,FF,,,,,,,,1.28444,,,,,,,,,,,,,,,,,,,,,,6100cbe60f7a8b9dd63261b4,61036e95bc5fb54d72d13352,2021-07-29_23h15.53.271,Simcolourproject_2stim_asymm_v5,2020.2.10,MacIntel,60,61025ae37ef11b136ea224fe,,,,,,,,,2348,102.890625,60.5,1,0,0,response1disk,,6,0.28125,-0.265625,1,0,0,rectangle,0.28125,-0.265625,1,0,0,0.28125,-0.265625,1,0,0,0,64,64,158,1,,,,,,,,
,,,,,,,,,,,,,FF,,,,,,,,1.19942,,,,,,,,,,,,,,,,,,,,,,6100cbe60f7a8b9dd63261b4,61036e95bc5fb54d72d13352,2021-07-29_23h15.53.271,Simcolourproject_2stim_asymm_v5,2020.2.10,MacIntel,60,61025ae37ef11b136ea224fe,,,,,,,,,3892,68.77734375,82.625,1,0,0,response1disk,,7,10.546875,3.90234375,1,0,0,rectangle,10.546875,3.90234375,1,0,0,10.546875,3.90234375,1,0,0,0,65,65,149,1,,,,,,,,
,,,,,,,,,,,,,FF,,,,,,,,0.817325,,,,,,,,,,,,,,,,,,,,,,6100cbe60f7a8b9dd63261b4,61036e95bc5fb54d72d13352,2021-07-29_23h15.53.271,Simcolourproject_2stim_asymm_v5,2020.2.10,MacIntel,60,61025ae37ef11b136ea224fe,,,,,,,,,1006,39.5546875,46.625,1,0,0,response1disk,,7,10.0546875,13.7578125,1,0,0,rectangle,10.0546875,13.7578125,1,0,0,10.0546875,13.7578125,1,0,0,0,66,66,69,1,,,,,,,,
,,,,,,,,,,,,,FF,,,,,,,,0.91534,,,,,,,,,,,,,,,,,,,,,,6100cbe60f7a8b9dd63261b4,61036e95bc5fb54d72d13352,2021-07-29_23h15.53.271,Simcolourproject_2stim_asymm_v5,2020.2.10,MacIntel,60,61025ae37ef11b136ea224fe,,,,,,,,,3231,74.5703125,34.4296875,1,0,0,response1disk,,6,1.0703125,-1.640625,1,0,0,rectangle,1.0703125,-1.640625,1,0,0,1.0703125,-1.640625,1,0,0,0,67,67,155,1,,,,,,,,
,,,,,,,,,,,,,FF,,,,,,,,0.833575,,,,,,,,,,,,,,,,,,,,,,6100cbe60f7a8b9dd63261b4,61036e95bc5fb54d72d13352,2021-07-29_23h15.53.271,Simcolourproject_2stim_asymm_v5,2020.2.10,MacIntel,60,61025ae37ef11b136ea224fe,,,,,,,,,1675,-58.1171875,-72.671875,1,0,0,response5disk,,3,-1.6953125,9.2890625,1,0,0,rectangle,-1.6953125,9.2890625,1,0,0,-1.6953125,9.2890625,1,0,0,0,68,68,123,1,,,,,,,,
,,,,,,,,,,,,,FF,,,,,,,,1.19992,,,,,,,,,,,,,,,,,,,,,,6100cbe60f7a8b9dd63261b4,61036e95bc5fb54d72d13352,2021-07-29_23h15.53.271,Simcolourproject_2stim_asymm_v5,2020.2.10,MacIntel,60,61025ae37ef11b136ea224fe,,,,,,,,,1669,78.2265625,45.01171875,1,0,0,response1disk,,6,7.11328125,14.828125,1,0,0,rectangle,7.11328125,14.828125,1,0,0,7.11328125,14.828125,1,0,0,0,69,69,88,1,,,,,,,,
,,,,,,,,,,,,,FF,,,,,,,,1.30022,,,,,,,,,,,,,,,,,,,,,,6100cbe60f7a8b9dd63261b4,61036e95bc5fb54d72d13352,2021-07-29_23h15.53.271,Simcolourproject_2stim_asymm_v5,2020.2.10,MacIntel,60,61025ae37ef11b136ea224fe,,,,,,,,,3640,27.1328125,32.40625,1,0,0,response1disk,,7,11.11328125,-9.5625,1,0,0,rectangle,11.11328125,-9.5625,1,0,0,11.11328125,-9.5625,1,0,0,0,70,70,107,1,,,,,,,,
,,,,,,,,,,,,,FF,,,,,,,,0.89928,,,,,,,,,,,,,,,,,,,,,,6100cbe60f7a8b9dd63261b4,61036e95bc5fb54d72d13352,2021-07-29_23h15.53.271,Simcolourproject_2stim_asymm_v5,2020.2.10,MacIntel,60,61025ae37ef11b136ea224fe,,,,,,,,,1535,27.5390625,-110.9609375,1,0,0,response3disk,,4,13.58203125,15.640625,1,0,0,rectangle,13.58203125,15.640625,1,0,0,13.58203125,15.640625,1,0,0,0,71,71,21,1,,,,,,,,
,,,,,,,,,,,,,FF,,,,,,,,1.223165,,,,,,,,,,,,,,,,,,,,,,6100cbe60f7a8b9dd63261b4,61036e95bc5fb54d72d13352,2021-07-29_23h15.53.271,Simcolourproject_2stim_asymm_v5,2020.2.10,MacIntel,60,61025ae37ef11b136ea224fe,,,,,,,,,2794,81.67578125,27.4453125,1,0,0,response1disk,,6,9.93359375,-2.17578125,1,0,0,rectangle,9.93359375,-2.17578125,1,0,0,9.93359375,-2.17578125,1,0,0,0,72,72,134,1,,,,,,,,
,,,,,,,,,,,,,FF,,,,,,,,1.866525,,,,,,,,,,,,,,,,,,,,,,6100cbe60f7a8b9dd63261b4,61036e95bc5fb54d72d13352,2021-07-29_23h15.53.271,Simcolourproject_2stim_asymm_v5,2020.2.10,MacIntel,60,61025ae37ef11b136ea224fe,,,,,,,,,3700,84.63671875,-36.15234375,1,0,0,response3disk,,5,24.02734375,9.7578125,1,0,0,rectangle,24.02734375,9.7578125,1,0,0,24.02734375,9.7578125,1,0,0,0,73,73,82,1,,,,,,,,
,,,,,,,,,,,,,FF,,,,,,,,1.41705,,,,,,,,,,,,,,,,,,,,,,6100cbe60f7a8b9dd63261b4,61036e95bc5fb54d72d13352,2021-07-29_23h15.53.271,Simcolourproject_2stim_asymm_v5,2020.2.10,MacIntel,60,61025ae37ef11b136ea224fe,,,,,,,,,108,22.12890625,-102.4179688,1,0,0,response3disk,,4,3.91796875,4.3515625,1,0,0,rectangle,3.91796875,4.3515625,1,0,0,3.91796875,4.3515625,1,0,0,0,74,74,111,1,,,,,,,,
,,,,,,,,,,,,,FF,,,,,,,,0.83213,,,,,,,,,,,,,,,,,,,,,,6100cbe60f7a8b9dd63261b4,61036e95bc5fb54d72d13352,2021-07-29_23h15.53.271,Simcolourproject_2stim_asymm_v5,2020.2.10,MacIntel,60,61025ae37ef11b136ea224fe,,,,,,,,,4230,50.8203125,99.46875,1,0,0,response1disk,,7,10.3203125,5.66015625,1,0,0,rectangle,10.3203125,5.66015625,1,0,0,10.3203125,5.66015625,1,0,0,0,75,75,12,1,,,,,,,,
,,,,,,,,,,,,,FF,,,,,,,,2.117465,,,,,,,,,,,,,,,,,,,,,,6100cbe60f7a8b9dd63261b4,61036e95bc5fb54d72d13352,2021-07-29_23h15.53.271,Simcolourproject_2stim_asymm_v5,2020.2.10,MacIntel,60,61025ae37ef11b136ea224fe,,,,,,,,,3861,100.140625,46.546875,1,0,0,response1disk,,6,30.88671875,8.55078125,1,0,0,rectangle,30.88671875,8.55078125,1,0,0,30.88671875,8.55078125,1,0,0,0,76,76,38,1,,,,,,,,
,,,,,,,,,,,,,FF,,,,,,,,1.20076,,,,,,,,,,,,,,,,,,,,,,6100cbe60f7a8b9dd63261b4,61036e95bc5fb54d72d13352,2021-07-29_23h15.53.271,Simcolourproject_2stim_asymm_v5,2020.2.10,MacIntel,60,61025ae37ef11b136ea224fe,,,,,,,,,882,73.375,28.3984375,1,0,0,response1disk,,6,28.87109375,6.22265625,1,0,0,rectangle,-41.9375,71.90625,1,0,0,-18.61328125,11.078125,1,0,0,0,77,77,52,1,,response7disk_3,TRUE,0,0,"[282,43,296,5,36,78,241,99,259,196,273,166,173,41,149,101,98,287,20,105]",1.217805,rectangle
,,,,,,,,,,,,,FF,,,,,,,,2.517025,,,,,,,,,,,,,,,,,,,,,,6100cbe60f7a8b9dd63261b4,61036e95bc5fb54d72d13352,2021-07-29_23h15.53.271,Simcolourproject_2stim_asymm_v5,2020.2.10,MacIntel,60,61025ae37ef11b136ea224fe,,,,,,,,,2077,73.8203125,27.19140625,1,0,0,response1disk,,6,18.01953125,-10.9296875,1,0,0,rectangle,18.01953125,-10.9296875,1,0,0,18.01953125,-10.9296875,1,0,0,0,78,78,139,1,,,,,,,,
,,,,,,,,,,,,,FF,,,,,,,,0.65056,,,,,,,,,,,,,,,,,,,,,,6100cbe60f7a8b9dd63261b4,61036e95bc5fb54d72d13352,2021-07-29_23h15.53.271,Simcolourproject_2stim_asymm_v5,2020.2.10,MacIntel,60,61025ae37ef11b136ea224fe,,,,,,,,,1488,83.56640625,-36.54296875,1,0,0,response3disk,,5,21.87109375,5.38671875,1,0,0,rectangle,21.87109375,5.38671875,1,0,0,21.87109375,5.38671875,1,0,0,0,79,79,128,1,,,,,,,,
,,,,,,,,,,,,,FF,,,,,,,,1.383485,,,,,,,,,,,,,,,,,,,,,,6100cbe60f7a8b9dd63261b4,61036e95bc5fb54d72d13352,2021-07-29_23h15.53.271,Simcolourproject_2stim_asymm_v5,2020.2.10,MacIntel,60,61025ae37ef11b136ea224fe,,,,,,,,,73,-32.625,-116.5859375,1,0,0,response5disk,,3,9.53125,15.0234375,1,0,0,rectangle,9.53125,15.0234375,1,0,0,9.53125,15.0234375,1,0,0,0,80,80,142,1,,,,,,,,
,,,,,,,,,,,,,FF,,,,,,,,1.100355,,,,,,,,,,,,,,,,,,,,,,6100cbe60f7a8b9dd63261b4,61036e95bc5fb54d72d13352,2021-07-29_23h15.53.271,Simcolourproject_2stim_asymm_v5,2020.2.10,MacIntel,60,61025ae37ef11b136ea224fe,,,,,,,,,3302,71.06640625,-25.1171875,1,0,0,response3disk,,5,9.17578125,-5.68359375,1,0,0,rectangle,9.17578125,-5.68359375,1,0,0,9.17578125,-5.68359375,1,0,0,0,81,81,44,1,,,,,,,,
,,,,,,,,,,,,,FF,,,,,,,,0.84922,,,,,,,,,,,,,,,,,,,,,,6100cbe60f7a8b9dd63261b4,61036e95bc5fb54d72d13352,2021-07-29_23h15.53.271,Simcolourproject_2stim_asymm_v5,2020.2.10,MacIntel,60,61025ae37ef11b136ea224fe,,,,,,,,,2811,60.515625,-28.296875,1,0,0,response3disk,,5,-9.40625,0.48046875,1,0,0,rectangle,-9.40625,0.48046875,1,0,0,-9.40625,0.48046875,1,0,0,0,82,82,119,1,,,,,,,,
,,,,,,,,,,,,,FF,,,,,,,,0.883475,,,,,,,,,,,,,,,,,,,,,,6100cbe60f7a8b9dd63261b4,61036e95bc5fb54d72d13352,2021-07-29_23h15.53.271,Simcolourproject_2stim_asymm_v5,2020.2.10,MacIntel,60,61025ae37ef11b136ea224fe,,,,,,,,,974,65.61328125,-47.2890625,1,0,0,response3disk,,5,27.453125,9.6640625,1,0,0,rectangle,27.453125,9.6640625,1,0,0,27.453125,9.6640625,1,0,0,0,83,83,136,1,,,,,,,,
,,,,,,,,,,,,,FF,,,,,,,,0.950425,,,,,,,,,,,,,,,,,,,,,,6100cbe60f7a8b9dd63261b4,61036e95bc5fb54d72d13352,2021-07-29_23h15.53.271,Simcolourproject_2stim_asymm_v5,2020.2.10,MacIntel,60,61025ae37ef11b136ea224fe,,,,,,,,,3734,50.6328125,59.46484375,1,0,0,response1disk,,7,33.34375,5.75,1,0,0,rectangle,33.34375,5.75,1,0,0,33.34375,5.75,1,0,0,0,84,84,45,1,,,,,,,,
,,,,,,,,,,,,,FF,,,,,,,,0.74994,,,,,,,,,,,,,,,,,,,,,,6100cbe60f7a8b9dd63261b4,61036e95bc5fb54d72d13352,2021-07-29_23h15.53.271,Simcolourproject_2stim_asymm_v5,2020.2.10,MacIntel,60,61025ae37ef11b136ea224fe,,,,,,,,,3127,38.48828125,58.68359375,1,0,0,response1disk,,7,8.5859375,-15.8984375,1,0,0,rectangle,8.5859375,-15.8984375,1,0,0,8.5859375,-15.8984375,1,0,0,0,85,85,68,1,,,,,,,,
,,,,,,,,,,,,,FF,,,,,,,,0.798915,,,,,,,,,,,,,,,,,,,,,,6100cbe60f7a8b9dd63261b4,61036e95bc5fb54d72d13352,2021-07-29_23h15.53.271,Simcolourproject_2stim_asymm_v5,2020.2.10,MacIntel,60,61025ae37ef11b136ea224fe,,,,,,,,,1340,41.63671875,58.58984375,1,0,0,response1disk,,7,14.578125,1.4453125,1,0,0,rectangle,14.578125,1.4453125,1,0,0,14.578125,1.4453125,1,0,0,0,86,86,35,1,,,,,,,,
,,,,,,,,,,,,,FF,,,,,,,,1.23353,,,,,,,,,,,,,,,,,,,,,,6100cbe60f7a8b9dd63261b4,61036e95bc5fb54d72d13352,2021-07-29_23h15.53.271,Simcolourproject_2stim_asymm_v5,2020.2.10,MacIntel,60,61025ae37ef11b136ea224fe,,,,,,,,,1311,76.84375,-44.83203125,1,0,0,response3disk,,5,21.37890625,-0.7734375,1,0,0,rectangle,21.37890625,-0.7734375,1,0,0,21.37890625,-0.7734375,1,0,0,0,87,87,126,1,,,,,,,,
,,,,,,,,,,,,,FF,,,,,,,,0.78344,,,,,,,,,,,,,,,,,,,,,,6100cbe60f7a8b9dd63261b4,61036e95bc5fb54d72d13352,2021-07-29_23h15.53.271,Simcolourproject_2stim_asymm_v5,2020.2.10,MacIntel,60,61025ae37ef11b136ea224fe,,,,,,,,,1820,26.98046875,-91.296875,1,0,0,response3disk,,4,2.07421875,-2.828125,1,0,0,rectangle,2.07421875,-2.828125,1,0,0,2.07421875,-2.828125,1,0,0,0,88,88,104,1,,,,,,,,
,,,,,,,,,,,,,FF,,,,,,,,0.83292,,,,,,,,,,,,,,,,,,,,,,6100cbe60f7a8b9dd63261b4,61036e95bc5fb54d72d13352,2021-07-29_23h15.53.271,Simcolourproject_2stim_asymm_v5,2020.2.10,MacIntel,60,61025ae37ef11b136ea224fe,,,,,,,,,2300,28.453125,-76.2734375,1,0,0,response3disk,,4,1.2109375,2.59765625,1,0,0,rectangle,1.2109375,2.59765625,1,0,0,1.2109375,2.59765625,1,0,0,0,89,89,23,1,,,,,,,,
,,,,,,,,,,,,,FF,,,,,,,,1.53383,,,,,,,,,,,,,,,,,,,,,,6100cbe60f7a8b9dd63261b4,61036e95bc5fb54d72d13352,2021-07-29_23h15.53.271,Simcolourproject_2stim_asymm_v5,2020.2.10,MacIntel,60,61025ae37ef11b136ea224fe,,,,,,,,,2708,82.890625,53.47265625,1,0,0,response1disk,,6,29.46875,7.92578125,1,0,0,rectangle,29.46875,7.92578125,1,0,0,29.46875,7.92578125,1,0,0,0,90,90,64,1,,,,,,,,
,,,,,,,,,,,,,FF,,,,,,,,0.89954,,,,,,,,,,,,,,,,,,,,,,6100cbe60f7a8b9dd63261b4,61036e95bc5fb54d72d13352,2021-07-29_23h15.53.271,Simcolourproject_2stim_asymm_v5,2020.2.10,MacIntel,60,61025ae37ef11b136ea224fe,,,,,,,,,3534,52.5,77.15234375,1,0,0,response1disk,,7,17.1171875,3.37890625,1,0,0,rectangle,17.1171875,3.37890625,1,0,0,17.1171875,3.37890625,1,0,0,0,91,91,157,1,,,,,,,,
,,,,,,,,,,,,,FF,,,,,,,,1.133995,,,,,,,,,,,,,,,,,,,,,,6100cbe60f7a8b9dd63261b4,61036e95bc5fb54d72d13352,2021-07-29_23h15.53.271,Simcolourproject_2stim_asymm_v5,2020.2.10,MacIntel,60,61025ae37ef11b136ea224fe,,,,,,,,,1308,-46.69140625,-117.7070313,1,0,0,response5disk,,3,-0.80859375,8.60546875,1,0,0,rectangle,-0.80859375,8.60546875,1,0,0,-0.80859375,8.60546875,1,0,0,0,92,92,50,1,,,,,,,,
,,,,,,,,,,,,,FF,,,,,,,,1.199335,,,,,,,,,,,,,,,,,,,,,,6100cbe60f7a8b9dd63261b4,61036e95bc5fb54d72d13352,2021-07-29_23h15.53.271,Simcolourproject_2stim_asymm_v5,2020.2.10,MacIntel,60,61025ae37ef11b136ea224fe,,,,,,,,,4261,73.88671875,27.46875,1,0,0,response1disk,,6,15.56640625,-6.94140625,1,0,0,rectangle,15.56640625,-6.94140625,1,0,0,15.56640625,-6.94140625,1,0,0,0,93,93,13,1,,,,,,,,
,,,,,,,,,,,,,FF,,,,,,,,1.283455,,,,,,,,,,,,,,,,,,,,,,6100cbe60f7a8b9dd63261b4,61036e95bc5fb54d72d13352,2021-07-29_23h15.53.271,Simcolourproject_2stim_asymm_v5,2020.2.10,MacIntel,60,61025ae37ef11b136ea224fe,,,,,,,,,1685,22.24609375,-89.75,1,0,0,response3disk,,4,-3.01171875,9.14453125,1,0,0,rectangle,-3.01171875,9.14453125,1,0,0,-3.01171875,9.14453125,1,0,0,0,94,94,124,1,,,,,,,,
,,,,,,,,,,,,,FF,,,,,,,,1.68373,,,,,,,,,,,,,,,,,,,,,,6100cbe60f7a8b9dd63261b4,61036e95bc5fb54d72d13352,2021-07-29_23h15.53.271,Simcolourproject_2stim_asymm_v5,2020.2.10,MacIntel,60,61025ae37ef11b136ea224fe,,,,,,,,,1407,87.0859375,-56.2734375,1,0,0,response3disk,,5,17.32421875,-6.921875,1,0,0,rectangle,17.32421875,-6.921875,1,0,0,17.32421875,-6.921875,1,0,0,0,95,95,113,1,,,,,,,,
,,,,,,,,,,,,,FF,,,,,,,,1.14939,,,,,,,,,,,,,,,,,,,,,,6100cbe60f7a8b9dd63261b4,61036e95bc5fb54d72d13352,2021-07-29_23h15.53.271,Simcolourproject_2stim_asymm_v5,2020.2.10,MacIntel,60,61025ae37ef11b136ea224fe,,,,,,,,,53,81.32421875,54.46875,1,0,0,response1disk,,6,8.63671875,14.609375,1,0,0,rectangle,8.63671875,14.609375,1,0,0,8.63671875,14.609375,1,0,0,0,96,96,87,1,,,,,,,,
,,,,,,,,,,,,,FF,,,,,,,,0.7007,,,,,,,,,,,,,,,,,,,,,,6100cbe60f7a8b9dd63261b4,61036e95bc5fb54d72d13352,2021-07-29_23h15.53.271,Simcolourproject_2stim_asymm_v5,2020.2.10,MacIntel,60,61025ae37ef11b136ea224fe,,,,,,,,,267,50.4609375,66.84375,1,0,0,response1disk,,7,9.57421875,2.8125,1,0,0,rectangle,73.90234375,-52.02734375,1,0,0,11.4296875,-2.90625,1,0,0,0,97,97,63,1,,response3disk_3,TRUE,5,5,"[282,43,296,5,36,78,241,99,259,196,273,166,173,41,149,101,98,287,20,105]",1.03255,rectangle
,,,,,,,,,,,,,FF,,,,,,,,2.315765,,,,,,,,,,,,,,,,,,,,,,6100cbe60f7a8b9dd63261b4,61036e95bc5fb54d72d13352,2021-07-29_23h15.53.271,Simcolourproject_2stim_asymm_v5,2020.2.10,MacIntel,60,61025ae37ef11b136ea224fe,,,,,,,,,2977,100.6992188,32.02734375,1,0,0,response1disk,,6,24.8515625,4.94140625,1,0,0,rectangle,-49.26171875,94.30859375,1,0,0,-6.02734375,-0.43359375,1,0,0,0,98,98,47,1,,response7disk_3,TRUE,0,0,"[282,43,296,5,36,78,241,99,259,196,273,166,173,41,149,101,98,287,20,105]",1.183465,rectangle
,,,,,,,,,,,,,FF,,,,,,,,0.85072,,,,,,,,,,,,,,,,,,,,,,6100cbe60f7a8b9dd63261b4,61036e95bc5fb54d72d13352,2021-07-29_23h15.53.271,Simcolourproject_2stim_asymm_v5,2020.2.10,MacIntel,60,61025ae37ef11b136ea224fe,,,,,,,,,4109,45.234375,71.43359375,1,0,0,response1disk,,7,-8.54296875,-14.70703125,1,0,0,rectangle,-8.54296875,-14.70703125,1,0,0,-8.54296875,-14.70703125,1,0,0,0,99,99,37,1,,,,,,,,
,,,,,,,,,,,,,FF,,,,,,,,0.798685,,,,,,,,,,,,,,,,,,,,,,6100cbe60f7a8b9dd63261b4,61036e95bc5fb54d72d13352,2021-07-29_23h15.53.271,Simcolourproject_2stim_asymm_v5,2020.2.10,MacIntel,60,61025ae37ef11b136ea224fe,,,,,,,,,4286,88.5625,30.5625,1,0,0,response1disk,,6,10.390625,6.2109375,1,0,0,rectangle,48.34375,61.87109375,1,0,0,17.921875,17.49609375,1,0,0,0,100,100,132,1,,response1disk_3,TRUE,7,7,"[282,43,296,5,36,78,241,99,259,196,273,166,173,41,149,101,98,287,20,105]",1.33459,rectangle
,,,,,,,,,,,,,FF,,,,,,,,2.19992,,,,,,,,,,,,,,,,,,,,,,6100cbe60f7a8b9dd63261b4,61036e95bc5fb54d72d13352,2021-07-29_23h15.53.271,Simcolourproject_2stim_asymm_v5,2020.2.10,MacIntel,60,61025ae37ef11b136ea224fe,,,,,,,,,219,82.81640625,38.8984375,1,0,0,response1disk,,6,27.48828125,5.98828125,1,0,0,rectangle,27.48828125,5.98828125,1,0,0,27.48828125,5.98828125,1,0,0,0,101,101,51,1,,,,,,,,
,,,,,,,,,,,,,FF,,,,,,,,1.049725,,,,,,,,,,,,,,,,,,,,,,6100cbe60f7a8b9dd63261b4,61036e95bc5fb54d72d13352,2021-07-29_23h15.53.271,Simcolourproject_2stim_asymm_v5,2020.2.10,MacIntel,60,61025ae37ef11b136ea224fe,,,,,,,,,608,67.49609375,34.16015625,1,0,0,response1disk,,6,0.66015625,0.20703125,1,0,0,rectangle,0.66015625,0.20703125,1,0,0,0.66015625,0.20703125,1,0,0,0,102,102,118,1,,,,,,,,
,,,,,,,,,,,,,FF,,,,,,,,0.46686,,,,,,,,,,,,,,,,,,,,,,6100cbe60f7a8b9dd63261b4,61036e95bc5fb54d72d13352,2021-07-29_23h15.53.271,Simcolourproject_2stim_asymm_v5,2020.2.10,MacIntel,60,61025ae37ef11b136ea224fe,,,,,,,,,678,71.21484375,38.4375,1,0,0,response1disk,,6,5.4296875,13.86328125,1,0,0,rectangle,5.4296875,13.86328125,1,0,0,5.4296875,13.86328125,1,0,0,0,103,103,16,1,,,,,,,,
,,,,,,,,,,,,,FF,,,,,,,,1.034785,,,,,,,,,,,,,,,,,,,,,,6100cbe60f7a8b9dd63261b4,61036e95bc5fb54d72d13352,2021-07-29_23h15.53.271,Simcolourproject_2stim_asymm_v5,2020.2.10,MacIntel,60,61025ae37ef11b136ea224fe,,,,,,,,,3407,69.265625,-30.46484375,1,0,0,response3disk,,5,7.98046875,4.39453125,1,0,0,rectangle,-100.7695313,-34.39453125,1,0,0,-21.828125,4.43359375,1,0,0,0,104,104,71,1,,response5disk_3,TRUE,2,2,"[282,43,296,5,36,78,241,99,259,196,273,166,173,41,149,101,98,287,20,105]",1.516675,rectangle
,,,,,,,,,,,,,FF,,,,,,,,1.95004,,,,,,,,,,,,,,,,,,,,,,6100cbe60f7a8b9dd63261b4,61036e95bc5fb54d72d13352,2021-07-29_23h15.53.271,Simcolourproject_2stim_asymm_v5,2020.2.10,MacIntel,60,61025ae37ef11b136ea224fe,,,,,,,,,1868,53.73828125,-88.53515625,1,0,0,response3disk,,4,0.69140625,9.16015625,1,0,0,rectangle,0.69140625,9.16015625,1,0,0,0.69140625,9.16015625,1,0,0,0,105,105,76,1,,,,,,,,
,,,,,,,,,,,,,FF,,,,,,,,0.81684,,,,,,,,,,,,,,,,,,,,,,6100cbe60f7a8b9dd63261b4,61036e95bc5fb54d72d13352,2021-07-29_23h15.53.271,Simcolourproject_2stim_asymm_v5,2020.2.10,MacIntel,60,61025ae37ef11b136ea224fe,,,,,,,,,1752,25.0859375,-95.78125,1,0,0,response3disk,,4,3.43359375,-8.58984375,1,0,0,rectangle,3.43359375,-8.58984375,1,0,0,3.43359375,-8.58984375,1,0,0,0,106,106,144,1,,,,,,,,
,,,,,,,,,,,,,FF,,,,,,,,1.43502,,,,,,,,,,,,,,,,,,,,,,6100cbe60f7a8b9dd63261b4,61036e95bc5fb54d72d13352,2021-07-29_23h15.53.271,Simcolourproject_2stim_asymm_v5,2020.2.10,MacIntel,60,61025ae37ef11b136ea224fe,,,,,,,,,3483,35.59765625,-74.60546875,1,0,0,response3disk,,4,3.58984375,16.6328125,1,0,0,rectangle,3.58984375,16.6328125,1,0,0,3.58984375,16.6328125,1,0,0,0,107,107,133,1,,,,,,,,
,,,,,,,,,,,,,FF,,,,,,,,0.749855,,,,,,,,,,,,,,,,,,,,,,6100cbe60f7a8b9dd63261b4,61036e95bc5fb54d72d13352,2021-07-29_23h15.53.271,Simcolourproject_2stim_asymm_v5,2020.2.10,MacIntel,60,61025ae37ef11b136ea224fe,,,,,,,,,1733,88.80078125,-44.9375,1,0,0,response3disk,,5,8.98046875,-4.1640625,1,0,0,rectangle,8.98046875,-4.1640625,1,0,0,8.98046875,-4.1640625,1,0,0,0,108,108,66,1,,,,,,,,
,,,,,,,,,,,,,FF,,,,,,,,0.73427,,,,,,,,,,,,,,,,,,,,,,6100cbe60f7a8b9dd63261b4,61036e95bc5fb54d72d13352,2021-07-29_23h15.53.271,Simcolourproject_2stim_asymm_v5,2020.2.10,MacIntel,60,61025ae37ef11b136ea224fe,,,,,,,,,2486,49.2265625,-87.79296875,1,0,0,response3disk,,4,1.26171875,-5.27734375,1,0,0,rectangle,1.26171875,-5.27734375,1,0,0,1.26171875,-5.27734375,1,0,0,0,109,109,49,1,,,,,,,,
,,,,,,,,,,,,,FF,,,,,,,,1.016935,,,,,,,,,,,,,,,,,,,,,,6100cbe60f7a8b9dd63261b4,61036e95bc5fb54d72d13352,2021-07-29_23h15.53.271,Simcolourproject_2stim_asymm_v5,2020.2.10,MacIntel,60,61025ae37ef11b136ea224fe,,,,,,,,,813,64.03125,-49.875,1,0,0,response3disk,,5,15.4453125,-13.40625,1,0,0,rectangle,15.4453125,-13.40625,1,0,0,15.4453125,-13.40625,1,0,0,0,110,110,58,1,,,,,,,,
,,,,,,,,,,,,,FF,,,,,,,,1.04995,,,,,,,,,,,,,,,,,,,,,,6100cbe60f7a8b9dd63261b4,61036e95bc5fb54d72d13352,2021-07-29_23h15.53.271,Simcolourproject_2stim_asymm_v5,2020.2.10,MacIntel,60,61025ae37ef11b136ea224fe,,,,,,,,,1857,75.4296875,53.4609375,1,0,0,response1disk,,6,30.90625,2.92578125,1,0,0,rectangle,30.90625,2.92578125,1,0,0,30.90625,2.92578125,1,0,0,0,111,111,7,1,,,,,,,,
,,,,,,,,,,,,,FF,,,,,,,,1.165835,,,,,,,,,,,,,,,,,,,,,,6100cbe60f7a8b9dd63261b4,61036e95bc5fb54d72d13352,2021-07-29_23h15.53.271,Simcolourproject_2stim_asymm_v5,2020.2.10,MacIntel,60,61025ae37ef11b136ea224fe,,,,,,,,,2702,62.921875,-58.80859375,1,0,0,response3disk,,5,19.6171875,-10.91796875,1,0,0,rectangle,19.6171875,-10.91796875,1,0,0,19.6171875,-10.91796875,1,0,0,0,112,112,97,1,,,,,,,,
,,,,,,,,,,,,,FF,,,,,,,,1.217295,,,,,,,,,,,,,,,,,,,,,,6100cbe60f7a8b9dd63261b4,61036e95bc5fb54d72d13352,2021-07-29_23h15.53.271,Simcolourproject_2stim_asymm_v5,2020.2.10,MacIntel,60,61025ae37ef11b136ea224fe,,,,,,,,,272,70.4453125,23.86328125,1,0,0,response1disk,,6,22.40625,5.046875,1,0,0,rectangle,22.40625,5.046875,1,0,0,22.40625,5.046875,1,0,0,0,113,113,108,1,,,,,,,,
,,,,,,,,,,,,,FF,,,,,,,,1.048785,,,,,,,,,,,,,,,,,,,,,,6100cbe60f7a8b9dd63261b4,61036e95bc5fb54d72d13352,2021-07-29_23h15.53.271,Simcolourproject_2stim_asymm_v5,2020.2.10,MacIntel,60,61025ae37ef11b136ea224fe,,,,,,,,,894,81.33203125,-47.71875,1,0,0,response3disk,,5,18.70703125,8.32421875,1,0,0,rectangle,18.70703125,8.32421875,1,0,0,18.70703125,8.32421875,1,0,0,0,114,114,61,1,,,,,,,,
,,,,,,,,,,,,,FF,,,,,,,,0.566555,,,,,,,,,,,,,,,,,,,,,,6100cbe60f7a8b9dd63261b4,61036e95bc5fb54d72d13352,2021-07-29_23h15.53.271,Simcolourproject_2stim_asymm_v5,2020.2.10,MacIntel,60,61025ae37ef11b136ea224fe,,,,,,,,,888,50.59765625,-41.9296875,1,0,0,response3disk,,5,11.8515625,-5.38671875,1,0,0,rectangle,11.8515625,-5.38671875,1,0,0,11.8515625,-5.38671875,1,0,0,0,115,115,150,1,,,,,,,,
,,,,,,,,,,,,,FF,,,,,,,,0.88383,,,,,,,,,,,,,,,,,,,,,,6100cbe60f7a8b9dd63261b4,61036e95bc5fb54d72d13352,2021-07-29_23h15.53.271,Simcolourproject_2stim_asymm_v5,2020.2.10,MacIntel,60,61025ae37ef11b136ea224fe,,,,,,,,,38,75.8515625,-41.9140625,1,0,0,response3disk,,5,12.12890625,11.10546875,1,0,0,rectangle,12.12890625,11.10546875,1,0,0,12.12890625,11.10546875,1,0,0,0,116,116,130,1,,,,,,,,
,,,,,,,,,,,,,FF,,,,,,,,0.918065,,,,,,,,,,,,,,,,,,,,,,6100cbe60f7a8b9dd63261b4,61036e95bc5fb54d72d13352,2021-07-29_23h15.53.271,Simcolourproject_2stim_asymm_v5,2020.2.10,MacIntel,60,61025ae37ef11b136ea224fe,,,,,,,,,398,88.84375,-45.11328125,1,0,0,response3disk,,5,16.8671875,-4.94140625,1,0,0,rectangle,16.8671875,-4.94140625,1,0,0,16.8671875,-4.94140625,1,0,0,0,117,117,114,1,,,,,,,,
,,,,,,,,,,,,,FF,,,,,,,,0.51727,,,,,,,,,,,,,,,,,,,,,,6100cbe60f7a8b9dd63261b4,61036e95bc5fb54d72d13352,2021-07-29_23h15.53.271,Simcolourproject_2stim_asymm_v5,2020.2.10,MacIntel,60,61025ae37ef11b136ea224fe,,,,,,,,,3648,70.5703125,-41.04296875,1,0,0,response3disk,,5,19.28125,7.5,1,0,0,rectangle,19.28125,7.5,1,0,0,19.28125,7.5,1,0,0,0,118,118,28,1,,,,,,,,
,,,,,,,,,,,,,FF,,,,,,,,0.9995,,,,,,,,,,,,,,,,,,,,,,6100cbe60f7a8b9dd63261b4,61036e95bc5fb54d72d13352,2021-07-29_23h15.53.271,Simcolourproject_2stim_asymm_v5,2020.2.10,MacIntel,60,61025ae37ef11b136ea224fe,,,,,,,,,1283,73.2578125,30.88671875,1,0,0,response1disk,,6,4.65625,5.83203125,1,0,0,rectangle,4.65625,5.83203125,1,0,0,4.65625,5.83203125,1,0,0,0,119,119,33,1,,,,,,,,
,,,,,,,,,,,,,FF,,,,,,,,0.701625,,,,,,,,,,,,,,,,,,,,,,6100cbe60f7a8b9dd63261b4,61036e95bc5fb54d72d13352,2021-07-29_23h15.53.271,Simcolourproject_2stim_asymm_v5,2020.2.10,MacIntel,60,61025ae37ef11b136ea224fe,,,,,,,,,1317,64.5859375,32.6171875,1,0,0,response1disk,,6,24.95703125,4.28125,1,0,0,rectangle,24.95703125,4.28125,1,0,0,24.95703125,4.28125,1,0,0,0,120,120,137,1,,,,,,,,
,,,,,,,,,,,,,FF,,,,,,,,1.200125,,,,,,,,,,,,,,,,,,,,,,6100cbe60f7a8b9dd63261b4,61036e95bc5fb54d72d13352,2021-07-29_23h15.53.271,Simcolourproject_2stim_asymm_v5,2020.2.10,MacIntel,60,61025ae37ef11b136ea224fe,,,,,,,,,752,82.609375,47.4375,1,0,0,response1disk,,6,12.6796875,11.65234375,1,0,0,rectangle,12.6796875,11.65234375,1,0,0,12.6796875,11.65234375,1,0,0,0,121,121,131,1,,,,,,,,
,,,,,,,,,,,,,FF,,,,,,,,1.050095,,,,,,,,,,,,,,,,,,,,,,6100cbe60f7a8b9dd63261b4,61036e95bc5fb54d72d13352,2021-07-29_23h15.53.271,Simcolourproject_2stim_asymm_v5,2020.2.10,MacIntel,60,61025ae37ef11b136ea224fe,,,,,,,,,375,70.890625,-55.07421875,1,0,0,response3disk,,5,10.38671875,-1.4296875,1,0,0,rectangle,10.38671875,-1.4296875,1,0,0,10.38671875,-1.4296875,1,0,0,0,122,122,27,1,,,,,,,,
,,,,,,,,,,,,,FF,,,,,,,,1.233615,,,,,,,,,,,,,,,,,,,,,,6100cbe60f7a8b9dd63261b4,61036e95bc5fb54d72d13352,2021-07-29_23h15.53.271,Simcolourproject_2stim_asymm_v5,2020.2.10,MacIntel,60,61025ae37ef11b136ea224fe,,,,,,,,,673,83.39453125,34.31640625,1,0,0,response1disk,,6,-0.390625,-11.76953125,1,0,0,rectangle,-0.390625,-11.76953125,1,0,0,-0.390625,-11.76953125,1,0,0,0,123,123,55,1,,,,,,,,
,,,,,,,,,,,,,FF,,,,,,,,0.89998,,,,,,,,,,,,,,,,,,,,,,6100cbe60f7a8b9dd63261b4,61036e95bc5fb54d72d13352,2021-07-29_23h15.53.271,Simcolourproject_2stim_asymm_v5,2020.2.10,MacIntel,60,61025ae37ef11b136ea224fe,,,,,,,,,3443,33.83984375,64.01171875,1,0,0,response1disk,,7,7.23046875,-8.015625,1,0,0,rectangle,7.23046875,-8.015625,1,0,0,7.23046875,-8.015625,1,0,0,0,124,124,48,1,,,,,,,,
,,,,,,,,,,,,,FF,,,,,,,,0.749295,,,,,,,,,,,,,,,,,,,,,,6100cbe60f7a8b9dd63261b4,61036e95bc5fb54d72d13352,2021-07-29_23h15.53.271,Simcolourproject_2stim_asymm_v5,2020.2.10,MacIntel,60,61025ae37ef11b136ea224fe,,,,,,,,,1148,64.19140625,-49.9375,1,0,0,response3disk,,5,-1.3671875,3.07421875,1,0,0,rectangle,-1.3671875,3.07421875,1,0,0,-1.3671875,3.07421875,1,0,0,0,125,125,96,1,,,,,,,,
,,,,,,,,,,,,,FF,,,,,,,,0.732895,,,,,,,,,,,,,,,,,,,,,,6100cbe60f7a8b9dd63261b4,61036e95bc5fb54d72d13352,2021-07-29_23h15.53.271,Simcolourproject_2stim_asymm_v5,2020.2.10,MacIntel,60,61025ae37ef11b136ea224fe,,,,,,,,,760,54.00390625,42.96875,1,0,0,response1disk,,6,6.52734375,2.22265625,1,0,0,rectangle,6.52734375,2.22265625,1,0,0,6.52734375,2.22265625,1,0,0,0,126,126,40,1,,,,,,,,
,,,,,,,,,,,,,FF,,,,,,,,1.24983,,,,,,,,,,,,,,,,,,,,,,6100cbe60f7a8b9dd63261b4,61036e95bc5fb54d72d13352,2021-07-29_23h15.53.271,Simcolourproject_2stim_asymm_v5,2020.2.10,MacIntel,60,61025ae37ef11b136ea224fe,,,,,,,,,2891,-42.67578125,-92.765625,1,0,0,response5disk,,3,8.2890625,11.39453125,1,0,0,rectangle,8.2890625,11.39453125,1,0,0,8.2890625,11.39453125,1,0,0,0,127,127,78,1,,,,,,,,
,,,,,,,,,,,,,FF,,,,,,,,0.99968,,,,,,,,,,,,,,,,,,,,,,6100cbe60f7a8b9dd63261b4,61036e95bc5fb54d72d13352,2021-07-29_23h15.53.271,Simcolourproject_2stim_asymm_v5,2020.2.10,MacIntel,60,61025ae37ef11b136ea224fe,,,,,,,,,2388,72.3828125,40.21875,1,0,0,response1disk,,6,9.18359375,4.15625,1,0,0,rectangle,9.18359375,4.15625,1,0,0,9.18359375,4.15625,1,0,0,0,128,128,54,1,,,,,,,,
,,,,,,,,,,,,,FF,,,,,,,,1.985905,,,,,,,,,,,,,,,,,,,,,,6100cbe60f7a8b9dd63261b4,61036e95bc5fb54d72d13352,2021-07-29_23h15.53.271,Simcolourproject_2stim_asymm_v5,2020.2.10,MacIntel,60,61025ae37ef11b136ea224fe,,,,,,,,,304,66.5,-39.90234375,1,0,0,response3disk,,5,23.06640625,1.2265625,1,0,0,rectangle,23.06640625,1.2265625,1,0,0,23.06640625,1.2265625,1,0,0,0,129,129,106,1,,,,,,,,
,,,,,,,,,,,,,FF,,,,,,,,1.68315,,,,,,,,,,,,,,,,,,,,,,6100cbe60f7a8b9dd63261b4,61036e95bc5fb54d72d13352,2021-07-29_23h15.53.271,Simcolourproject_2stim_asymm_v5,2020.2.10,MacIntel,60,61025ae37ef11b136ea224fe,,,,,,,,,2326,62.13671875,-30.16015625,1,0,0,response3disk,,5,12.7890625,-6.76953125,1,0,0,rectangle,12.7890625,-6.76953125,1,0,0,12.7890625,-6.76953125,1,0,0,0,130,130,141,1,,,,,,,,
,,,,,,,,,,,,,FF,,,,,,,,2.416345,,,,,,,,,,,,,,,,,,,,,,6100cbe60f7a8b9dd63261b4,61036e95bc5fb54d72d13352,2021-07-29_23h15.53.271,Simcolourproject_2stim_asymm_v5,2020.2.10,MacIntel,60,61025ae37ef11b136ea224fe,,,,,,,,,3247,62.31640625,-25.640625,1,0,0,response3disk,,5,18.27734375,-3.96875,1,0,0,rectangle,18.27734375,-3.96875,1,0,0,18.27734375,-3.96875,1,0,0,0,131,131,122,1,,,,,,,,
,,,,,,,,,,,,,FF,,,,,,,,0.91671,,,,,,,,,,,,,,,,,,,,,,6100cbe60f7a8b9dd63261b4,61036e95bc5fb54d72d13352,2021-07-29_23h15.53.271,Simcolourproject_2stim_asymm_v5,2020.2.10,MacIntel,60,61025ae37ef11b136ea224fe,,,,,,,,,3298,-37.625,-93.9921875,1,0,0,response5disk,,3,-7.0625,-2.0546875,1,0,0,rectangle,-7.0625,-2.0546875,1,0,0,-7.0625,-2.0546875,1,0,0,0,132,132,156,1,,,,,,,,
,,,,,,,,,,,,,FF,,,,,,,,1.05156,,,,,,,,,,,,,,,,,,,,,,6100cbe60f7a8b9dd63261b4,61036e95bc5fb54d72d13352,2021-07-29_23h15.53.271,Simcolourproject_2stim_asymm_v5,2020.2.10,MacIntel,60,61025ae37ef11b136ea224fe,,,,,,,,,2583,84.62890625,-44.0625,1,0,0,response3disk,,5,16.15234375,5.67578125,1,0,0,rectangle,16.15234375,5.67578125,1,0,0,16.15234375,5.67578125,1,0,0,0,133,133,73,1,,,,,,,,
,,,,,,,,,,,,,FF,,,,,,,,0.966865,,,,,,,,,,,,,,,,,,,,,,6100cbe60f7a8b9dd63261b4,61036e95bc5fb54d72d13352,2021-07-29_23h15.53.271,Simcolourproject_2stim_asymm_v5,2020.2.10,MacIntel,60,61025ae37ef11b136ea224fe,,,,,,,,,350,-36.5859375,-94.5390625,1,0,0,response5disk,,3,-24.609375,9.12109375,1,0,0,rectangle,-24.609375,9.12109375,1,0,0,-24.609375,9.12109375,1,0,0,0,134,134,95,1,,,,,,,,
,,,,,,,,,,,,,FF,,,,,,,,0.832915,,,,,,,,,,,,,,,,,,,,,,6100cbe60f7a8b9dd63261b4,61036e95bc5fb54d72d13352,2021-07-29_23h15.53.271,Simcolourproject_2stim_asymm_v5,2020.2.10,MacIntel,60,61025ae37ef11b136ea224fe,,,,,,,,,3339,25.45703125,-70.359375,1,0,0,response3disk,,4,2.30078125,-10.8828125,1,0,0,rectangle,2.30078125,-10.8828125,1,0,0,2.30078125,-10.8828125,1,0,0,0,135,135,32,1,,,,,,,,
,,,,,,,,,,,,,FF,,,,,,,,0.86839,,,,,,,,,,,,,,,,,,,,,,6100cbe60f7a8b9dd63261b4,61036e95bc5fb54d72d13352,2021-07-29_23h15.53.271,Simcolourproject_2stim_asymm_v5,2020.2.10,MacIntel,60,61025ae37ef11b136ea224fe,,,,,,,,,3461,59.27734375,-86.46484375,1,0,0,response3disk,,4,2.71484375,5.53515625,1,0,0,rectangle,2.71484375,5.53515625,1,0,0,2.71484375,5.53515625,1,0,0,0,136,136,138,1,,,,,,,,
,,,,,,,,,,,,,FF,,,,,,,,1.101285,,,,,,,,,,,,,,,,,,,,,,6100cbe60f7a8b9dd63261b4,61036e95bc5fb54d72d13352,2021-07-29_23h15.53.271,Simcolourproject_2stim_asymm_v5,2020.2.10,MacIntel,60,61025ae37ef11b136ea224fe,,,,,,,,,584,61.99609375,33.84765625,1,0,0,response1disk,,6,9.92578125,8.078125,1,0,0,rectangle,9.92578125,8.078125,1,0,0,9.92578125,8.078125,1,0,0,0,137,137,60,1,,,,,,,,
,,,,,,,,,,,,,FF,,,,,,,,0.934765,,,,,,,,,,,,,,,,,,,,,,6100cbe60f7a8b9dd63261b4,61036e95bc5fb54d72d13352,2021-07-29_23h15.53.271,Simcolourproject_2stim_asymm_v5,2020.2.10,MacIntel,60,61025ae37ef11b136ea224fe,,,,,,,,,2165,-44.484375,-82.328125,1,0,0,response5disk,,3,-12.51953125,-1.75390625,1,0,0,rectangle,-12.51953125,-1.75390625,1,0,0,-12.51953125,-1.75390625,1,0,0,0,138,138,93,1,,,,,,,,
,,,,,,,,,,,,,FF,,,,,,,,0.96675,,,,,,,,,,,,,,,,,,,,,,6100cbe60f7a8b9dd63261b4,61036e95bc5fb54d72d13352,2021-07-29_23h15.53.271,Simcolourproject_2stim_asymm_v5,2020.2.10,MacIntel,60,61025ae37ef11b136ea224fe,,,,,,,,,3939,-89.11328125,-45.13671875,1,0,0,response5disk,,2,-9.25390625,2.29296875,1,0,0,rectangle,-9.25390625,2.29296875,1,0,0,-9.25390625,2.29296875,1,0,0,0,139,139,57,1,,,,,,,,
,,,,,,,,,,,,,FF,,,,,,,,1.215385,,,,,,,,,,,,,,,,,,,,,,6100cbe60f7a8b9dd63261b4,61036e95bc5fb54d72d13352,2021-07-29_23h15.53.271,Simcolourproject_2stim_asymm_v5,2020.2.10,MacIntel,60,61025ae37ef11b136ea224fe,,,,,,,,,402,84.63671875,-29.8359375,1,0,0,response3disk,,5,14.19921875,12.6640625,1,0,0,rectangle,14.19921875,12.6640625,1,0,0,14.19921875,12.6640625,1,0,0,0,140,140,17,1,,,,,,,,
,,,,,,,,,,,,,FF,,,,,,,,1.633555,,,,,,,,,,,,,,,,,,,,,,6100cbe60f7a8b9dd63261b4,61036e95bc5fb54d72d13352,2021-07-29_23h15.53.271,Simcolourproject_2stim_asymm_v5,2020.2.10,MacIntel,60,61025ae37ef11b136ea224fe,,,,,,,,,4240,32.40625,-102.5078125,1,0,0,response3disk,,4,-0.671875,9.6328125,1,0,0,rectangle,-0.671875,9.6328125,1,0,0,-0.671875,9.6328125,1,0,0,0,141,141,140,1,,,,,,,,
,,,,,,,,,,,,,FF,,,,,,,,1.38388,,,,,,,,,,,,,,,,,,,,,,6100cbe60f7a8b9dd63261b4,61036e95bc5fb54d72d13352,2021-07-29_23h15.53.271,Simcolourproject_2stim_asymm_v5,2020.2.10,MacIntel,60,61025ae37ef11b136ea224fe,,,,,,,,,3238,96.03125,-47.63671875,1,0,0,response3disk,,5,24.64453125,-2.3828125,1,0,0,rectangle,24.64453125,-2.3828125,1,0,0,24.64453125,-2.3828125,1,0,0,0,142,142,80,1,,,,,,,,
,,,,,,,,,,,,,FF,,,,,,,,1.331785,,,,,,,,,,,,,,,,,,,,,,6100cbe60f7a8b9dd63261b4,61036e95bc5fb54d72d13352,2021-07-29_23h15.53.271,Simcolourproject_2stim_asymm_v5,2020.2.10,MacIntel,60,61025ae37ef11b136ea224fe,,,,,,,,,136,83.9375,21.8125,1,0,0,response1disk,,6,30.64453125,3.84375,1,0,0,rectangle,30.64453125,3.84375,1,0,0,30.64453125,3.84375,1,0,0,0,143,143,46,1,,,,,,,,
,,,,,,,,,,,,,FF,,,,,,,,0.7498,,,,,,,,,,,,,,,,,,,,,,6100cbe60f7a8b9dd63261b4,61036e95bc5fb54d72d13352,2021-07-29_23h15.53.271,Simcolourproject_2stim_asymm_v5,2020.2.10,MacIntel,60,61025ae37ef11b136ea224fe,,,,,,,,,718,-57.99609375,-85.515625,1,0,0,response5disk,,3,-1.54296875,-7.5625,1,0,0,rectangle,-1.54296875,-7.5625,1,0,0,-1.54296875,-7.5625,1,0,0,0,144,144,41,1,,,,,,,,
,,,,,,,,,,,,,FF,,,,,,,,0.916265,,,,,,,,,,,,,,,,,,,,,,6100cbe60f7a8b9dd63261b4,61036e95bc5fb54d72d13352,2021-07-29_23h15.53.271,Simcolourproject_2stim_asymm_v5,2020.2.10,MacIntel,60,61025ae37ef11b136ea224fe,,,,,,,,,3043,74.8203125,39.11328125,1,0,0,response1disk,,6,26.49609375,-4.83203125,1,0,0,rectangle,26.49609375,-4.83203125,1,0,0,26.49609375,-4.83203125,1,0,0,0,145,145,90,1,,,,,,,,
,,,,,,,,,,,,,FF,,,,,,,,0.95016,,,,,,,,,,,,,,,,,,,,,,6100cbe60f7a8b9dd63261b4,61036e95bc5fb54d72d13352,2021-07-29_23h15.53.271,Simcolourproject_2stim_asymm_v5,2020.2.10,MacIntel,60,61025ae37ef11b136ea224fe,,,,,,,,,2825,75.48828125,-47.54296875,1,0,0,response3disk,,5,18.921875,-0.26171875,1,0,0,rectangle,18.921875,-0.26171875,1,0,0,18.921875,-0.26171875,1,0,0,0,146,146,85,1,,,,,,,,
,,,,,,,,,,,,,FF,,,,,,,,1.6993,,,,,,,,,,,,,,,,,,,,,,6100cbe60f7a8b9dd63261b4,61036e95bc5fb54d72d13352,2021-07-29_23h15.53.271,Simcolourproject_2stim_asymm_v5,2020.2.10,MacIntel,60,61025ae37ef11b136ea224fe,,,,,,,,,1409,82.83984375,44.3125,1,0,0,response1disk,,6,29.2265625,-2.640625,1,0,0,rectangle,29.2265625,-2.640625,1,0,0,29.2265625,-2.640625,1,0,0,0,147,147,94,1,,,,,,,,
,,,,,,,,,,,,,FF,,,,,,,,1.449525,,,,,,,,,,,,,,,,,,,,,,6100cbe60f7a8b9dd63261b4,61036e95bc5fb54d72d13352,2021-07-29_23h15.53.271,Simcolourproject_2stim_asymm_v5,2020.2.10,MacIntel,60,61025ae37ef11b136ea224fe,,,,,,,,,1095,83.88671875,53.7421875,1,0,0,response1disk,,6,19.1953125,-0.86328125,1,0,0,rectangle,64.46484375,-54.12890625,1,0,0,16.75,2.71484375,1,0,0,0,148,148,99,1,,response3disk_3,TRUE,5,5,"[282,43,296,5,36,78,241,99,259,196,273,166,173,41,149,101,98,287,20,105]",1.16668,rectangle
,,,,,,,,,,,,,FF,,,,,,,,0.766215,,,,,,,,,,,,,,,,,,,,,,6100cbe60f7a8b9dd63261b4,61036e95bc5fb54d72d13352,2021-07-29_23h15.53.271,Simcolourproject_2stim_asymm_v5,2020.2.10,MacIntel,60,61025ae37ef11b136ea224fe,,,,,,,,,3814,-27.26953125,-73.43359375,1,0,0,response5disk,,3,14.25,0.58203125,1,0,0,rectangle,14.25,0.58203125,1,0,0,14.25,0.58203125,1,0,0,0,149,149,42,1,,,,,,,,
,,,,,,,,,,,,,FF,,,,,,,,0.99857,,,,,,,,,,,,,,,,,,,,,,6100cbe60f7a8b9dd63261b4,61036e95bc5fb54d72d13352,2021-07-29_23h15.53.271,Simcolourproject_2stim_asymm_v5,2020.2.10,MacIntel,60,61025ae37ef11b136ea224fe,,,,,,,,,3674,84.6015625,48.9921875,1,0,0,response1disk,,6,12.50390625,-5.19921875,1,0,0,rectangle,12.50390625,-5.19921875,1,0,0,12.50390625,-5.19921875,1,0,0,0,150,150,77,1,,,,,,,,
,,,,,,,,,,,,,FF,,,,,,,,1.133135,,,,,,,,,,,,,,,,,,,,,,6100cbe60f7a8b9dd63261b4,61036e95bc5fb54d72d13352,2021-07-29_23h15.53.271,Simcolourproject_2stim_asymm_v5,2020.2.10,MacIntel,60,61025ae37ef11b136ea224fe,,,,,,,,,1013,69.453125,51.73828125,1,0,0,response1disk,,6,13.2890625,-0.44140625,1,0,0,rectangle,13.2890625,-0.44140625,1,0,0,13.2890625,-0.44140625,1,0,0,0,151,151,34,1,,,,,,,,
,,,,,,,,,,,,,FF,,,,,,,,0.784385,,,,,,,,,,,,,,,,,,,,,,6100cbe60f7a8b9dd63261b4,61036e95bc5fb54d72d13352,2021-07-29_23h15.53.271,Simcolourproject_2stim_asymm_v5,2020.2.10,MacIntel,60,61025ae37ef11b136ea224fe,,,,,,,,,2318,73.703125,-55.42578125,1,0,0,response3disk,,5,2.23046875,6.0859375,1,0,0,rectangle,2.23046875,6.0859375,1,0,0,2.23046875,6.0859375,1,0,0,0,152,152,116,1,,,,,,,,
,,,,,,,,,,,,,FF,,,,,,,,1.13309,,,,,,,,,,,,,,,,,,,,,,6100cbe60f7a8b9dd63261b4,61036e95bc5fb54d72d13352,2021-07-29_23h15.53.271,Simcolourproject_2stim_asymm_v5,2020.2.10,MacIntel,60,61025ae37ef11b136ea224fe,,,,,,,,,2792,37.52734375,-71.7265625,1,0,0,response3disk,,4,10.8046875,-3.91796875,1,0,0,rectangle,10.8046875,-3.91796875,1,0,0,10.8046875,-3.91796875,1,0,0,0,153,153,91,1,,,,,,,,
,,,,,,,,,,,,,FF,,,,,,,,0.74998,,,,,,,,,,,,,,,,,,,,,,6100cbe60f7a8b9dd63261b4,61036e95bc5fb54d72d13352,2021-07-29_23h15.53.271,Simcolourproject_2stim_asymm_v5,2020.2.10,MacIntel,60,61025ae37ef11b136ea224fe,,,,,,,,,1755,-29.21484375,-69.671875,1,0,0,response5disk,,3,-5.3203125,10.01953125,1,0,0,rectangle,-5.3203125,10.01953125,1,0,0,-5.3203125,10.01953125,1,0,0,0,154,154,26,1,,,,,,,,
,,,,,,,,,,,,,FF,,,,,,,,0.783885,,,,,,,,,,,,,,,,,,,,,,6100cbe60f7a8b9dd63261b4,61036e95bc5fb54d72d13352,2021-07-29_23h15.53.271,Simcolourproject_2stim_asymm_v5,2020.2.10,MacIntel,60,61025ae37ef11b136ea224fe,,,,,,,,,2564,82.265625,-34.0703125,1,0,0,response3disk,,5,23.99609375,-6.53125,1,0,0,rectangle,23.99609375,-6.53125,1,0,0,23.99609375,-6.53125,1,0,0,0,155,155,15,1,,,,,,,,
,,,,,,,,,,,,,FF,,,,,,,,0.749405,,,,,,,,,,,,,,,,,,,,,,6100cbe60f7a8b9dd63261b4,61036e95bc5fb54d72d13352,2021-07-29_23h15.53.271,Simcolourproject_2stim_asymm_v5,2020.2.10,MacIntel,60,61025ae37ef11b136ea224fe,,,,,,,,,912,79.6640625,-34.23046875,1,0,0,response3disk,,5,15.02734375,10.8125,1,0,0,rectangle,15.02734375,10.8125,1,0,0,15.02734375,10.8125,1,0,0,0,156,156,101,1,,,,,,,,
,,,,,,,,,,,,,FF,,,,,,,,0.79986,,,,,,,,,,,,,,,,,,,,,,6100cbe60f7a8b9dd63261b4,61036e95bc5fb54d72d13352,2021-07-29_23h15.53.271,Simcolourproject_2stim_asymm_v5,2020.2.10,MacIntel,60,61025ae37ef11b136ea224fe,,,,,,,,,3894,83.62890625,-47.53125,1,0,0,response3disk,,5,15.8671875,-2.46484375,1,0,0,rectangle,15.8671875,-2.46484375,1,0,0,15.8671875,-2.46484375,1,0,0,0,157,157,148,1,,,,,,,,
,,,,,,,,,,,,,FF,,,,,,,,0.74979,,,,,,,,,,,,,,,,,,,,,,6100cbe60f7a8b9dd63261b4,61036e95bc5fb54d72d13352,2021-07-29_23h15.53.271,Simcolourproject_2stim_asymm_v5,2020.2.10,MacIntel,60,61025ae37ef11b136ea224fe,,,,,,,,,4264,48.7265625,32.6953125,1,0,0,response1disk,,6,-10.14453125,4.96484375,1,0,0,rectangle,-10.14453125,4.96484375,1,0,0,-10.14453125,4.96484375,1,0,0,0,158,158,14,1,,,,,,,,
,,,,,,,,,,,,,FF,,,,,,,,0.88409,,,,,,,,,,,,,,,,,,,,,,6100cbe60f7a8b9dd63261b4,61036e95bc5fb54d72d13352,2021-07-29_23h15.53.271,Simcolourproject_2stim_asymm_v5,2020.2.10,MacIntel,60,61025ae37ef11b136ea224fe,,,,,,,,,1318,40.98046875,-66.40234375,1,0,0,response3disk,,4,11.48828125,5.75,1,0,0,rectangle,11.48828125,5.75,1,0,0,11.48828125,5.75,1,0,0,0,159,159,5,1,,,,,,,,
,,,,,,,,,,,,,FF,,,,,,,,0.666445,,,,,,,,,,,,,,,,,,,,,,6100cbe60f7a8b9dd63261b4,61036e95bc5fb54d72d13352,2021-07-29_23h15.53.271,Simcolourproject_2stim_asymm_v5,2020.2.10,MacIntel,60,61025ae37ef11b136ea224fe,,,,,,,,,2781,17.09765625,-73.98828125,1,0,0,response3disk,,4,-8.2109375,16.75390625,1,0,0,rectangle,-8.2109375,16.75390625,1,0,0,-8.2109375,16.75390625,1,0,0,1,0,160,76,1,,,,,,,,
,,,,,,,,,,,,,FF,,,,,,,,0.917135,,,,,,,,,,,,,,,,,,,,,,6100cbe60f7a8b9dd63261b4,61036e95bc5fb54d72d13352,2021-07-29_23h15.53.271,Simcolourproject_2stim_asymm_v5,2020.2.10,MacIntel,60,61025ae37ef11b136ea224fe,,,,,,,,,1793,66.5703125,-41.98046875,1,0,0,response3disk,,5,10.47265625,12.43359375,1,0,0,rectangle,10.47265625,12.43359375,1,0,0,10.47265625,12.43359375,1,0,0,1,1,161,110,1,,,,,,,,
,,,,,,,,,,,,,FF,,,,,,,,0.883775,,,,,,,,,,,,,,,,,,,,,,6100cbe60f7a8b9dd63261b4,61036e95bc5fb54d72d13352,2021-07-29_23h15.53.271,Simcolourproject_2stim_asymm_v5,2020.2.10,MacIntel,60,61025ae37ef11b136ea224fe,,,,,,,,,1923,71.58203125,-21.9375,1,0,0,response3disk,,5,10.5,-12.07421875,1,0,0,rectangle,10.5,-12.07421875,1,0,0,10.5,-12.07421875,1,0,0,1,2,162,71,1,,,,,,,,
,,,,,,,,,,,,,FF,,,,,,,,0.848805,,,,,,,,,,,,,,,,,,,,,,6100cbe60f7a8b9dd63261b4,61036e95bc5fb54d72d13352,2021-07-29_23h15.53.271,Simcolourproject_2stim_asymm_v5,2020.2.10,MacIntel,60,61025ae37ef11b136ea224fe,,,,,,,,,3007,-28.3046875,-80.5546875,1,0,0,response5disk,,3,-8.875,-6.66796875,1,0,0,rectangle,-8.875,-6.66796875,1,0,0,-8.875,-6.66796875,1,0,0,1,3,163,122,1,,,,,,,,
,,,,,,,,,,,,,FF,,,,,,,,0.632435,,,,,,,,,,,,,,,,,,,,,,6100cbe60f7a8b9dd63261b4,61036e95bc5fb54d72d13352,2021-07-29_23h15.53.271,Simcolourproject_2stim_asymm_v5,2020.2.10,MacIntel,60,61025ae37ef11b136ea224fe,,,,,,,,,1252,77.73046875,-27.40234375,1,0,0,response3disk,,5,34.5078125,0.09375,1,0,0,rectangle,34.5078125,0.09375,1,0,0,34.5078125,0.09375,1,0,0,1,4,164,29,1,,,,,,,,
,,,,,,,,,,,,,FF,,,,,,,,0.833165,,,,,,,,,,,,,,,,,,,,,,6100cbe60f7a8b9dd63261b4,61036e95bc5fb54d72d13352,2021-07-29_23h15.53.271,Simcolourproject_2stim_asymm_v5,2020.2.10,MacIntel,60,61025ae37ef11b136ea224fe,,,,,,,,,3011,67.3046875,-46.3203125,1,0,0,response3disk,,5,11.33984375,3.640625,1,0,0,rectangle,58.8046875,86.8125,1,0,0,2.97265625,13.79296875,1,0,0,1,5,165,96,1,,response1disk_3,TRUE,7,7,"[282,43,296,5,36,78,241,99,259,196,273,166,173,41,149,101,98,287,20,105]",1.08293,rectangle
,,,,,,,,,,,,,FF,,,,,,,,2.99942,,,,,,,,,,,,,,,,,,,,,,6100cbe60f7a8b9dd63261b4,61036e95bc5fb54d72d13352,2021-07-29_23h15.53.271,Simcolourproject_2stim_asymm_v5,2020.2.10,MacIntel,60,61025ae37ef11b136ea224fe,,,,,,,,,3482,41.671875,68.1953125,1,0,0,response1disk,,7,20.73046875,10.61328125,1,0,0,rectangle,20.73046875,10.61328125,1,0,0,20.73046875,10.61328125,1,0,0,1,6,166,130,1,,,,,,,,
,,,,,,,,,,,,,FF,,,,,,,,0.768075,,,,,,,,,,,,,,,,,,,,,,6100cbe60f7a8b9dd63261b4,61036e95bc5fb54d72d13352,2021-07-29_23h15.53.271,Simcolourproject_2stim_asymm_v5,2020.2.10,MacIntel,60,61025ae37ef11b136ea224fe,,,,,,,,,3168,33.21875,57.48828125,1,0,0,response1disk,,7,19.76953125,7.0703125,1,0,0,rectangle,19.76953125,7.0703125,1,0,0,19.76953125,7.0703125,1,0,0,1,7,167,5,1,,,,,,,,
,,,,,,,,,,,,,FF,,,,,,,,1.349595,,,,,,,,,,,,,,,,,,,,,,6100cbe60f7a8b9dd63261b4,61036e95bc5fb54d72d13352,2021-07-29_23h15.53.271,Simcolourproject_2stim_asymm_v5,2020.2.10,MacIntel,60,61025ae37ef11b136ea224fe,,,,,,,,,1918,67.46875,30.5703125,1,0,0,response1disk,,6,19.125,6.6015625,1,0,0,rectangle,19.125,6.6015625,1,0,0,19.125,6.6015625,1,0,0,1,8,168,78,1,,,,,,,,
,,,,,,,,,,,,,FF,,,,,,,,1.582895,,,,,,,,,,,,,,,,,,,,,,6100cbe60f7a8b9dd63261b4,61036e95bc5fb54d72d13352,2021-07-29_23h15.53.271,Simcolourproject_2stim_asymm_v5,2020.2.10,MacIntel,60,61025ae37ef11b136ea224fe,,,,,,,,,380,69.625,-22.30859375,1,0,0,response3disk,,5,6.84375,2.8515625,1,0,0,rectangle,6.84375,2.8515625,1,0,0,6.84375,2.8515625,1,0,0,1,9,169,72,1,,,,,,,,
,,,,,,,,,,,,,FF,,,,,,,,1.249915,,,,,,,,,,,,,,,,,,,,,,6100cbe60f7a8b9dd63261b4,61036e95bc5fb54d72d13352,2021-07-29_23h15.53.271,Simcolourproject_2stim_asymm_v5,2020.2.10,MacIntel,60,61025ae37ef11b136ea224fe,,,,,,,,,3146,-49.40625,74.8046875,1,0,0,response7disk,,0,-5.171875,0.1796875,1,0,0,rectangle,-5.171875,0.1796875,1,0,0,-5.171875,0.1796875,1,0,0,1,10,170,82,1,,,,,,,,
,,,,,,,,,,,,,FF,,,,,,,,2.300175,,,,,,,,,,,,,,,,,,,,,,6100cbe60f7a8b9dd63261b4,61036e95bc5fb54d72d13352,2021-07-29_23h15.53.271,Simcolourproject_2stim_asymm_v5,2020.2.10,MacIntel,60,61025ae37ef11b136ea224fe,,,,,,,,,2289,93.95703125,-67.98828125,1,0,0,response3disk,,5,10.81640625,-1.01171875,1,0,0,rectangle,10.81640625,-1.01171875,1,0,0,10.81640625,-1.01171875,1,0,0,1,11,171,3,1,,,,,,,,
,,,,,,,,,,,,,FF,,,,,,,,0.749425,,,,,,,,,,,,,,,,,,,,,,6100cbe60f7a8b9dd63261b4,61036e95bc5fb54d72d13352,2021-07-29_23h15.53.271,Simcolourproject_2stim_asymm_v5,2020.2.10,MacIntel,60,61025ae37ef11b136ea224fe,,,,,,,,,2474,72.59375,-59.171875,1,0,0,response3disk,,5,-3.7421875,0.38671875,1,0,0,rectangle,-37.52734375,81.984375,1,0,0,-1.46484375,-3.96484375,1,0,0,1,12,172,75,1,,response7disk_3,TRUE,0,0,"[282,43,296,5,36,78,241,99,259,196,273,166,173,41,149,101,98,287,20,105]",1.16625,rectangle
,,,,,,,,,,,,,FF,,,,,,,,3.016565,,,,,,,,,,,,,,,,,,,,,,6100cbe60f7a8b9dd63261b4,61036e95bc5fb54d72d13352,2021-07-29_23h15.53.271,Simcolourproject_2stim_asymm_v5,2020.2.10,MacIntel,60,61025ae37ef11b136ea224fe,,,,,,,,,2814,72.2265625,-67.21484375,1,0,0,response3disk,,5,10.92578125,-1.53515625,1,0,0,rectangle,10.92578125,-1.53515625,1,0,0,10.92578125,-1.53515625,1,0,0,1,13,173,37,1,,,,,,,,
,,,,,,,,,,,,,FF,,,,,,,,1.866825,,,,,,,,,,,,,,,,,,,,,,6100cbe60f7a8b9dd63261b4,61036e95bc5fb54d72d13352,2021-07-29_23h15.53.271,Simcolourproject_2stim_asymm_v5,2020.2.10,MacIntel,60,61025ae37ef11b136ea224fe,,,,,,,,,115,42.59375,-71.92578125,1,0,0,response3disk,,4,18.47265625,10.39453125,1,0,0,rectangle,18.47265625,10.39453125,1,0,0,18.47265625,10.39453125,1,0,0,1,14,174,95,1,,,,,,,,
,,,,,,,,,,,,,FF,,,,,,,,1.01546,,,,,,,,,,,,,,,,,,,,,,6100cbe60f7a8b9dd63261b4,61036e95bc5fb54d72d13352,2021-07-29_23h15.53.271,Simcolourproject_2stim_asymm_v5,2020.2.10,MacIntel,60,61025ae37ef11b136ea224fe,,,,,,,,,1956,-55.79296875,110.0976563,1,0,0,response7disk,,0,-7.34375,7.83984375,1,0,0,rectangle,-7.34375,7.83984375,1,0,0,-7.34375,7.83984375,1,0,0,1,15,175,45,1,,,,,,,,
,,,,,,,,,,,,,FF,,,,,,,,2.551535,,,,,,,,,,,,,,,,,,,,,,6100cbe60f7a8b9dd63261b4,61036e95bc5fb54d72d13352,2021-07-29_23h15.53.271,Simcolourproject_2stim_asymm_v5,2020.2.10,MacIntel,60,61025ae37ef11b136ea224fe,,,,,,,,,2975,61.16796875,-39.55078125,1,0,0,response3disk,,5,8.78515625,11.8828125,1,0,0,rectangle,8.78515625,11.8828125,1,0,0,8.78515625,11.8828125,1,0,0,1,16,176,19,1,,,,,,,,
,,,,,,,,,,,,,FF,,,,,,,,0.599345,,,,,,,,,,,,,,,,,,,,,,6100cbe60f7a8b9dd63261b4,61036e95bc5fb54d72d13352,2021-07-29_23h15.53.271,Simcolourproject_2stim_asymm_v5,2020.2.10,MacIntel,60,61025ae37ef11b136ea224fe,,,,,,,,,947,58.1875,31.53515625,1,0,0,response1disk,,6,4.48046875,-1.4765625,1,0,0,rectangle,4.48046875,-1.4765625,1,0,0,4.48046875,-1.4765625,1,0,0,1,17,177,109,1,,,,,,,,
,,,,,,,,,,,,,FF,,,,,,,,0.50143,,,,,,,,,,,,,,,,,,,,,,6100cbe60f7a8b9dd63261b4,61036e95bc5fb54d72d13352,2021-07-29_23h15.53.271,Simcolourproject_2stim_asymm_v5,2020.2.10,MacIntel,60,61025ae37ef11b136ea224fe,,,,,,,,,2520,69.72265625,28.515625,1,0,0,response1disk,,6,7.62109375,11.47265625,1,0,0,rectangle,7.62109375,11.47265625,1,0,0,7.62109375,11.47265625,1,0,0,1,18,178,103,1,,,,,,,,
,,,,,,,,,,,,,FF,,,,,,,,1.000035,,,,,,,,,,,,,,,,,,,,,,6100cbe60f7a8b9dd63261b4,61036e95bc5fb54d72d13352,2021-07-29_23h15.53.271,Simcolourproject_2stim_asymm_v5,2020.2.10,MacIntel,60,61025ae37ef11b136ea224fe,,,,,,,,,2925,87.08203125,-26.67578125,1,0,0,response3disk,,5,16.80078125,10.56640625,1,0,0,rectangle,16.80078125,10.56640625,1,0,0,16.80078125,10.56640625,1,0,0,1,19,179,10,1,,,,,,,,
,,,,,,,,,,,,,FF,,,,,,,,0.748805,,,,,,,,,,,,,,,,,,,,,,6100cbe60f7a8b9dd63261b4,61036e95bc5fb54d72d13352,2021-07-29_23h15.53.271,Simcolourproject_2stim_asymm_v5,2020.2.10,MacIntel,60,61025ae37ef11b136ea224fe,,,,,,,,,2906,79.1328125,42.06640625,1,0,0,response1disk,,6,7.4921875,-5.24609375,1,0,0,rectangle,7.4921875,-5.24609375,1,0,0,7.4921875,-5.24609375,1,0,0,1,20,180,60,1,,,,,,,,
,,,,,,,,,,,,,FF,,,,,,,,1.00041,,,,,,,,,,,,,,,,,,,,,,6100cbe60f7a8b9dd63261b4,61036e95bc5fb54d72d13352,2021-07-29_23h15.53.271,Simcolourproject_2stim_asymm_v5,2020.2.10,MacIntel,60,61025ae37ef11b136ea224fe,,,,,,,,,3381,-73.87890625,41.0078125,1,0,0,response7disk,,1,6.9296875,-13.89453125,1,0,0,rectangle,6.9296875,-13.89453125,1,0,0,6.9296875,-13.89453125,1,0,0,1,21,181,127,1,,,,,,,,
,,,,,,,,,,,,,FF,,,,,,,,1.73231,,,,,,,,,,,,,,,,,,,,,,6100cbe60f7a8b9dd63261b4,61036e95bc5fb54d72d13352,2021-07-29_23h15.53.271,Simcolourproject_2stim_asymm_v5,2020.2.10,MacIntel,60,61025ae37ef11b136ea224fe,,,,,,,,,4116,78.07421875,-71.2421875,1,0,0,response3disk,,5,16.25,-7.875,1,0,0,rectangle,16.25,-7.875,1,0,0,16.25,-7.875,1,0,0,1,22,182,49,1,,,,,,,,
,,,,,,,,,,,,,FF,,,,,,,,0.717155,,,,,,,,,,,,,,,,,,,,,,6100cbe60f7a8b9dd63261b4,61036e95bc5fb54d72d13352,2021-07-29_23h15.53.271,Simcolourproject_2stim_asymm_v5,2020.2.10,MacIntel,60,61025ae37ef11b136ea224fe,,,,,,,,,3579,106.4375,-53.4609375,1,0,0,response3disk,,5,3.88671875,1.6484375,1,0,0,rectangle,3.88671875,1.6484375,1,0,0,3.88671875,1.6484375,1,0,0,1,23,183,26,1,,,,,,,,
,,,,,,,,,,,,,FF,,,,,,,,1.1833,,,,,,,,,,,,,,,,,,,,,,6100cbe60f7a8b9dd63261b4,61036e95bc5fb54d72d13352,2021-07-29_23h15.53.271,Simcolourproject_2stim_asymm_v5,2020.2.10,MacIntel,60,61025ae37ef11b136ea224fe,,,,,,,,,1818,-30.51171875,-104,1,0,0,response5disk,,3,1.10546875,5.51171875,1,0,0,rectangle,1.10546875,5.51171875,1,0,0,1.10546875,5.51171875,1,0,0,1,24,184,15,1,,,,,,,,
,,,,,,,,,,,,,FF,,,,,,,,1.116225,,,,,,,,,,,,,,,,,,,,,,6100cbe60f7a8b9dd63261b4,61036e95bc5fb54d72d13352,2021-07-29_23h15.53.271,Simcolourproject_2stim_asymm_v5,2020.2.10,MacIntel,60,61025ae37ef11b136ea224fe,,,,,,,,,1505,86.203125,-27.15625,1,0,0,response3disk,,5,14.80859375,2.72265625,1,0,0,rectangle,14.80859375,2.72265625,1,0,0,14.80859375,2.72265625,1,0,0,1,25,185,66,1,,,,,,,,
,,,,,,,,,,,,,FF,,,,,,,,0.83167,,,,,,,,,,,,,,,,,,,,,,6100cbe60f7a8b9dd63261b4,61036e95bc5fb54d72d13352,2021-07-29_23h15.53.271,Simcolourproject_2stim_asymm_v5,2020.2.10,MacIntel,60,61025ae37ef11b136ea224fe,,,,,,,,,2660,-65.9921875,90.3515625,1,0,0,response7disk,,0,-20.80078125,-12.5078125,1,0,0,rectangle,-20.80078125,-12.5078125,1,0,0,-20.80078125,-12.5078125,1,0,0,1,26,186,80,1,,,,,,,,
,,,,,,,,,,,,,FF,,,,,,,,0.882705,,,,,,,,,,,,,,,,,,,,,,6100cbe60f7a8b9dd63261b4,61036e95bc5fb54d72d13352,2021-07-29_23h15.53.271,Simcolourproject_2stim_asymm_v5,2020.2.10,MacIntel,60,61025ae37ef11b136ea224fe,,,,,,,,,1347,85.80859375,-43.74609375,1,0,0,response3disk,,5,10.91796875,-6.31640625,1,0,0,rectangle,10.91796875,-6.31640625,1,0,0,10.91796875,-6.31640625,1,0,0,1,27,187,158,1,,,,,,,,
,,,,,,,,,,,,,FF,,,,,,,,0.650975,,,,,,,,,,,,,,,,,,,,,,6100cbe60f7a8b9dd63261b4,61036e95bc5fb54d72d13352,2021-07-29_23h15.53.271,Simcolourproject_2stim_asymm_v5,2020.2.10,MacIntel,60,61025ae37ef11b136ea224fe,,,,,,,,,217,69.27734375,-44.32421875,1,0,0,response3disk,,5,-0.953125,-8.49609375,1,0,0,rectangle,-0.953125,-8.49609375,1,0,0,-0.953125,-8.49609375,1,0,0,1,28,188,111,1,,,,,,,,
,,,,,,,,,,,,,FF,,,,,,,,1.117165,,,,,,,,,,,,,,,,,,,,,,6100cbe60f7a8b9dd63261b4,61036e95bc5fb54d72d13352,2021-07-29_23h15.53.271,Simcolourproject_2stim_asymm_v5,2020.2.10,MacIntel,60,61025ae37ef11b136ea224fe,,,,,,,,,2879,80.02734375,-25.890625,1,0,0,response3disk,,5,-8.5546875,7.296875,1,0,0,rectangle,-8.5546875,7.296875,1,0,0,-8.5546875,7.296875,1,0,0,1,29,189,11,1,,,,,,,,
,,,,,,,,,,,,,FF,,,,,,,,0.76865,,,,,,,,,,,,,,,,,,,,,,6100cbe60f7a8b9dd63261b4,61036e95bc5fb54d72d13352,2021-07-29_23h15.53.271,Simcolourproject_2stim_asymm_v5,2020.2.10,MacIntel,60,61025ae37ef11b136ea224fe,,,,,,,,,826,69.37109375,-46.1953125,1,0,0,response3disk,,5,9.2421875,1.1484375,1,0,0,rectangle,9.2421875,1.1484375,1,0,0,9.2421875,1.1484375,1,0,0,1,30,190,2,1,,,,,,,,
,,,,,,,,,,,,,FF,,,,,,,,1.66547,,,,,,,,,,,,,,,,,,,,,,6100cbe60f7a8b9dd63261b4,61036e95bc5fb54d72d13352,2021-07-29_23h15.53.271,Simcolourproject_2stim_asymm_v5,2020.2.10,MacIntel,60,61025ae37ef11b136ea224fe,,,,,,,,,1718,80.40625,32.7734375,1,0,0,response1disk,,6,23.1875,6.42578125,1,0,0,rectangle,23.1875,6.42578125,1,0,0,23.1875,6.42578125,1,0,0,1,31,191,120,1,,,,,,,,
,,,,,,,,,,,,,FF,,,,,,,,1.2324,,,,,,,,,,,,,,,,,,,,,,6100cbe60f7a8b9dd63261b4,61036e95bc5fb54d72d13352,2021-07-29_23h15.53.271,Simcolourproject_2stim_asymm_v5,2020.2.10,MacIntel,60,61025ae37ef11b136ea224fe,,,,,,,,,3615,37.25390625,70.7109375,1,0,0,response1disk,,7,14.8828125,4.671875,1,0,0,rectangle,14.8828125,4.671875,1,0,0,14.8828125,4.671875,1,0,0,1,32,192,102,1,,,,,,,,
,,,,,,,,,,,,,FF,,,,,,,,1.333525,,,,,,,,,,,,,,,,,,,,,,6100cbe60f7a8b9dd63261b4,61036e95bc5fb54d72d13352,2021-07-29_23h15.53.271,Simcolourproject_2stim_asymm_v5,2020.2.10,MacIntel,60,61025ae37ef11b136ea224fe,,,,,,,,,3754,43.1328125,-107.7109375,1,0,0,response3disk,,4,-11.71875,-4.375,1,0,0,rectangle,-11.71875,-4.375,1,0,0,-11.71875,-4.375,1,0,0,1,33,193,54,1,,,,,,,,
,,,,,,,,,,,,,FF,,,,,,,,0.68338,,,,,,,,,,,,,,,,,,,,,,6100cbe60f7a8b9dd63261b4,61036e95bc5fb54d72d13352,2021-07-29_23h15.53.271,Simcolourproject_2stim_asymm_v5,2020.2.10,MacIntel,60,61025ae37ef11b136ea224fe,,,,,,,,,1465,46.8359375,-95.21484375,1,0,0,response3disk,,4,-8.37109375,13.91796875,1,0,0,rectangle,-8.37109375,13.91796875,1,0,0,-8.37109375,13.91796875,1,0,0,1,34,194,84,1,,,,,,,,
,,,,,,,,,,,,,FF,,,,,,,,1.415555,,,,,,,,,,,,,,,,,,,,,,6100cbe60f7a8b9dd63261b4,61036e95bc5fb54d72d13352,2021-07-29_23h15.53.271,Simcolourproject_2stim_asymm_v5,2020.2.10,MacIntel,60,61025ae37ef11b136ea224fe,,,,,,,,,2261,67.7734375,-35.359375,1,0,0,response3disk,,5,-25.4296875,7.58203125,1,0,0,rectangle,58.15234375,-79.5546875,1,0,0,19.01171875,11.8125,1,0,0,1,35,195,61,1,,response3disk_3,TRUE,4,4,"[282,43,296,5,36,78,241,99,259,196,273,166,173,41,149,101,98,287,20,105]",1.449485,rectangle
,,,,,,,,,,,,,FF,,,,,,,,1.09964,,,,,,,,,,,,,,,,,,,,,,6100cbe60f7a8b9dd63261b4,61036e95bc5fb54d72d13352,2021-07-29_23h15.53.271,Simcolourproject_2stim_asymm_v5,2020.2.10,MacIntel,60,61025ae37ef11b136ea224fe,,,,,,,,,878,73.13671875,-35.83984375,1,0,0,response3disk,,5,1.4296875,7.1875,1,0,0,rectangle,1.4296875,7.1875,1,0,0,1.4296875,7.1875,1,0,0,1,36,196,25,1,,,,,,,,
,,,,,,,,,,,,,FF,,,,,,,,1.29907,,,,,,,,,,,,,,,,,,,,,,6100cbe60f7a8b9dd63261b4,61036e95bc5fb54d72d13352,2021-07-29_23h15.53.271,Simcolourproject_2stim_asymm_v5,2020.2.10,MacIntel,60,61025ae37ef11b136ea224fe,,,,,,,,,2312,96.3671875,40.13671875,1,0,0,response1disk,,6,-1.59765625,-14.51953125,1,0,0,rectangle,-1.59765625,-14.51953125,1,0,0,-1.59765625,-14.51953125,1,0,0,1,37,197,89,1,,,,,,,,
,,,,,,,,,,,,,FF,,,,,,,,0.936915,,,,,,,,,,,,,,,,,,,,,,6100cbe60f7a8b9dd63261b4,61036e95bc5fb54d72d13352,2021-07-29_23h15.53.271,Simcolourproject_2stim_asymm_v5,2020.2.10,MacIntel,60,61025ae37ef11b136ea224fe,,,,,,,,,3915,35.953125,-84.44140625,1,0,0,response3disk,,4,11.71875,-1.8359375,1,0,0,rectangle,11.71875,-1.8359375,1,0,0,11.71875,-1.8359375,1,0,0,1,38,198,24,1,,,,,,,,
,,,,,,,,,,,,,FF,,,,,,,,0.81705,,,,,,,,,,,,,,,,,,,,,,6100cbe60f7a8b9dd63261b4,61036e95bc5fb54d72d13352,2021-07-29_23h15.53.271,Simcolourproject_2stim_asymm_v5,2020.2.10,MacIntel,60,61025ae37ef11b136ea224fe,,,,,,,,,2905,68.87109375,-31.359375,1,0,0,response3disk,,5,-2.0625,5.08984375,1,0,0,rectangle,-2.0625,5.08984375,1,0,0,-2.0625,5.08984375,1,0,0,1,39,199,138,1,,,,,,,,
,,,,,,,,,,,,,FF,,,,,,,,1.05058,,,,,,,,,,,,,,,,,,,,,,6100cbe60f7a8b9dd63261b4,61036e95bc5fb54d72d13352,2021-07-29_23h15.53.271,Simcolourproject_2stim_asymm_v5,2020.2.10,MacIntel,60,61025ae37ef11b136ea224fe,,,,,,,,,3377,29.6484375,-101.53125,1,0,0,response3disk,,4,13.375,10.08203125,1,0,0,rectangle,13.375,10.08203125,1,0,0,13.375,10.08203125,1,0,0,1,40,200,43,1,,,,,,,,
,,,,,,,,,,,,,FF,,,,,,,,0.90036,,,,,,,,,,,,,,,,,,,,,,6100cbe60f7a8b9dd63261b4,61036e95bc5fb54d72d13352,2021-07-29_23h15.53.271,Simcolourproject_2stim_asymm_v5,2020.2.10,MacIntel,60,61025ae37ef11b136ea224fe,,,,,,,,,1141,74.35546875,-42.734375,1,0,0,response3disk,,5,9.70703125,10.4921875,1,0,0,rectangle,9.70703125,10.4921875,1,0,0,9.70703125,10.4921875,1,0,0,1,41,201,153,1,,,,,,,,
,,,,,,,,,,,,,FF,,,,,,,,0.733915,,,,,,,,,,,,,,,,,,,,,,6100cbe60f7a8b9dd63261b4,61036e95bc5fb54d72d13352,2021-07-29_23h15.53.271,Simcolourproject_2stim_asymm_v5,2020.2.10,MacIntel,60,61025ae37ef11b136ea224fe,,,,,,,,,2185,72.75390625,34.7109375,1,0,0,response1disk,,6,-0.7578125,-0.0703125,1,0,0,rectangle,-0.7578125,-0.0703125,1,0,0,-0.7578125,-0.0703125,1,0,0,1,42,202,121,1,,,,,,,,
,,,,,,,,,,,,,FF,,,,,,,,0.801635,,,,,,,,,,,,,,,,,,,,,,6100cbe60f7a8b9dd63261b4,61036e95bc5fb54d72d13352,2021-07-29_23h15.53.271,Simcolourproject_2stim_asymm_v5,2020.2.10,MacIntel,60,61025ae37ef11b136ea224fe,,,,,,,,,4352,34.91015625,-105.6953125,1,0,0,response3disk,,4,11.28515625,-3.23046875,1,0,0,rectangle,11.28515625,-3.23046875,1,0,0,11.28515625,-3.23046875,1,0,0,1,43,203,28,1,,,,,,,,
,,,,,,,,,,,,,FF,,,,,,,,1.36671,,,,,,,,,,,,,,,,,,,,,,6100cbe60f7a8b9dd63261b4,61036e95bc5fb54d72d13352,2021-07-29_23h15.53.271,Simcolourproject_2stim_asymm_v5,2020.2.10,MacIntel,60,61025ae37ef11b136ea224fe,,,,,,,,,705,81.76953125,38.27734375,1,0,0,response1disk,,6,20.8125,1.453125,1,0,0,rectangle,20.8125,1.453125,1,0,0,20.8125,1.453125,1,0,0,1,44,204,85,1,,,,,,,,
,,,,,,,,,,,,,FF,,,,,,,,1.831935,,,,,,,,,,,,,,,,,,,,,,6100cbe60f7a8b9dd63261b4,61036e95bc5fb54d72d13352,2021-07-29_23h15.53.271,Simcolourproject_2stim_asymm_v5,2020.2.10,MacIntel,60,61025ae37ef11b136ea224fe,,,,,,,,,3080,75.8125,48.22265625,1,0,0,response1disk,,6,-10.91015625,-2.23828125,1,0,0,rectangle,-10.91015625,-2.23828125,1,0,0,-10.91015625,-2.23828125,1,0,0,1,45,205,141,1,,,,,,,,
,,,,,,,,,,,,,FF,,,,,,,,0.917355,,,,,,,,,,,,,,,,,,,,,,6100cbe60f7a8b9dd63261b4,61036e95bc5fb54d72d13352,2021-07-29_23h15.53.271,Simcolourproject_2stim_asymm_v5,2020.2.10,MacIntel,60,61025ae37ef11b136ea224fe,,,,,,,,,1687,37.3671875,-75.78125,1,0,0,response3disk,,4,13.734375,9.48046875,1,0,0,rectangle,13.734375,9.48046875,1,0,0,13.734375,9.48046875,1,0,0,1,46,206,92,1,,,,,,,,
,,,,,,,,,,,,,FF,,,,,,,,0.51852,,,,,,,,,,,,,,,,,,,,,,6100cbe60f7a8b9dd63261b4,61036e95bc5fb54d72d13352,2021-07-29_23h15.53.271,Simcolourproject_2stim_asymm_v5,2020.2.10,MacIntel,60,61025ae37ef11b136ea224fe,,,,,,,,,476,75.25,-32.92578125,1,0,0,response3disk,,5,1.13671875,4.57421875,1,0,0,rectangle,1.13671875,4.57421875,1,0,0,1.13671875,4.57421875,1,0,0,1,47,207,154,1,,,,,,,,
,,,,,,,,,,,,,FF,,,,,,,,0.965835,,,,,,,,,,,,,,,,,,,,,,6100cbe60f7a8b9dd63261b4,61036e95bc5fb54d72d13352,2021-07-29_23h15.53.271,Simcolourproject_2stim_asymm_v5,2020.2.10,MacIntel,60,61025ae37ef11b136ea224fe,,,,,,,,,2863,69.42578125,-36.53515625,1,0,0,response3disk,,5,15.0078125,-12.671875,1,0,0,rectangle,15.0078125,-12.671875,1,0,0,15.0078125,-12.671875,1,0,0,1,48,208,113,1,,,,,,,,
,,,,,,,,,,,,,FF,,,,,,,,0.64925,,,,,,,,,,,,,,,,,,,,,,6100cbe60f7a8b9dd63261b4,61036e95bc5fb54d72d13352,2021-07-29_23h15.53.271,Simcolourproject_2stim_asymm_v5,2020.2.10,MacIntel,60,61025ae37ef11b136ea224fe,,,,,,,,,4150,74.73046875,42.171875,1,0,0,response1disk,,6,9.91796875,-3.203125,1,0,0,rectangle,9.91796875,-3.203125,1,0,0,9.91796875,-3.203125,1,0,0,1,49,209,0,1,,,,,,,,
,,,,,,,,,,,,,FF,,,,,,,,0.63417,,,,,,,,,,,,,,,,,,,,,,6100cbe60f7a8b9dd63261b4,61036e95bc5fb54d72d13352,2021-07-29_23h15.53.271,Simcolourproject_2stim_asymm_v5,2020.2.10,MacIntel,60,61025ae37ef11b136ea224fe,,,,,,,,,3813,57.40625,-42.46875,1,0,0,response3disk,,5,0.265625,-10.140625,1,0,0,rectangle,0.265625,-10.140625,1,0,0,0.265625,-10.140625,1,0,0,1,50,210,62,1,,,,,,,,
,,,,,,,,,,,,,FF,,,,,,,,1.071275,,,,,,,,,,,,,,,,,,,,,,6100cbe60f7a8b9dd63261b4,61036e95bc5fb54d72d13352,2021-07-29_23h15.53.271,Simcolourproject_2stim_asymm_v5,2020.2.10,MacIntel,60,61025ae37ef11b136ea224fe,,,,,,,,,801,-54.8359375,85.6015625,1,0,0,response7disk,,0,-2.421875,9.828125,1,0,0,rectangle,-2.421875,9.828125,1,0,0,-2.421875,9.828125,1,0,0,1,51,211,16,1,,,,,,,,
,,,,,,,,,,,,,FF,,,,,,,,0.950235,,,,,,,,,,,,,,,,,,,,,,6100cbe60f7a8b9dd63261b4,61036e95bc5fb54d72d13352,2021-07-29_23h15.53.271,Simcolourproject_2stim_asymm_v5,2020.2.10,MacIntel,60,61025ae37ef11b136ea224fe,,,,,,,,,1635,87.93359375,42.53125,1,0,0,response1disk,,6,2.1484375,-4.7265625,1,0,0,rectangle,2.1484375,-4.7265625,1,0,0,2.1484375,-4.7265625,1,0,0,1,52,212,93,1,,,,,,,,
,,,,,,,,,,,,,FF,,,,,,,,0.94978,,,,,,,,,,,,,,,,,,,,,,6100cbe60f7a8b9dd63261b4,61036e95bc5fb54d72d13352,2021-07-29_23h15.53.271,Simcolourproject_2stim_asymm_v5,2020.2.10,MacIntel,60,61025ae37ef11b136ea224fe,,,,,,,,,778,71.515625,-46.98046875,1,0,0,response3disk,,5,16.49609375,-11.5703125,1,0,0,rectangle,16.49609375,-11.5703125,1,0,0,16.49609375,-11.5703125,1,0,0,1,53,213,87,1,,,,,,,,
,,,,,,,,,,,,,FF,,,,,,,,1.033565,,,,,,,,,,,,,,,,,,,,,,6100cbe60f7a8b9dd63261b4,61036e95bc5fb54d72d13352,2021-07-29_23h15.53.271,Simcolourproject_2stim_asymm_v5,2020.2.10,MacIntel,60,61025ae37ef11b136ea224fe,,,,,,,,,3263,104.9804688,-47.34375,1,0,0,response3disk,,5,19.45703125,-10.71484375,1,0,0,rectangle,19.45703125,-10.71484375,1,0,0,19.45703125,-10.71484375,1,0,0,1,54,214,31,1,,,,,,,,
,,,,,,,,,,,,,FF,,,,,,,,0.884955,,,,,,,,,,,,,,,,,,,,,,6100cbe60f7a8b9dd63261b4,61036e95bc5fb54d72d13352,2021-07-29_23h15.53.271,Simcolourproject_2stim_asymm_v5,2020.2.10,MacIntel,60,61025ae37ef11b136ea224fe,,,,,,,,,4246,61.30078125,62.078125,1,0,0,response1disk,,7,19.91796875,-0.96875,1,0,0,rectangle,19.91796875,-0.96875,1,0,0,19.91796875,-0.96875,1,0,0,1,55,215,12,1,,,,,,,,
,,,,,,,,,,,,,FF,,,,,,,,0.901035,,,,,,,,,,,,,,,,,,,,,,6100cbe60f7a8b9dd63261b4,61036e95bc5fb54d72d13352,2021-07-29_23h15.53.271,Simcolourproject_2stim_asymm_v5,2020.2.10,MacIntel,60,61025ae37ef11b136ea224fe,,,,,,,,,2046,46.71875,-90.65234375,1,0,0,response3disk,,4,13.71484375,-8.58203125,1,0,0,rectangle,13.71484375,-8.58203125,1,0,0,13.71484375,-8.58203125,1,0,0,1,56,216,150,1,,,,,,,,
,,,,,,,,,,,,,FF,,,,,,,,1.217525,,,,,,,,,,,,,,,,,,,,,,6100cbe60f7a8b9dd63261b4,61036e95bc5fb54d72d13352,2021-07-29_23h15.53.271,Simcolourproject_2stim_asymm_v5,2020.2.10,MacIntel,60,61025ae37ef11b136ea224fe,,,,,,,,,1215,-23.99609375,-84.48046875,1,0,0,response5disk,,3,22.31640625,6.45703125,1,0,0,rectangle,22.31640625,6.45703125,1,0,0,22.31640625,6.45703125,1,0,0,1,57,217,65,1,,,,,,,,
,,,,,,,,,,,,,FF,,,,,,,,0.566615,,,,,,,,,,,,,,,,,,,,,,6100cbe60f7a8b9dd63261b4,61036e95bc5fb54d72d13352,2021-07-29_23h15.53.271,Simcolourproject_2stim_asymm_v5,2020.2.10,MacIntel,60,61025ae37ef11b136ea224fe,,,,,,,,,530,-32.9921875,-66.73828125,1,0,0,response5disk,,3,0.12109375,-7.3828125,1,0,0,rectangle,0.12109375,-7.3828125,1,0,0,0.12109375,-7.3828125,1,0,0,1,58,218,86,1,,,,,,,,
,,,,,,,,,,,,,FF,,,,,,,,0.715955,,,,,,,,,,,,,,,,,,,,,,6100cbe60f7a8b9dd63261b4,61036e95bc5fb54d72d13352,2021-07-29_23h15.53.271,Simcolourproject_2stim_asymm_v5,2020.2.10,MacIntel,60,61025ae37ef11b136ea224fe,,,,,,,,,4205,-26.359375,-62.58984375,1,0,0,response5disk,,3,-2.42578125,-14.64453125,1,0,0,rectangle,-2.42578125,-14.64453125,1,0,0,-2.42578125,-14.64453125,1,0,0,1,59,219,55,1,,,,,,,,
,,,,,,,,,,,,,FF,,,,,,,,0.949535,,,,,,,,,,,,,,,,,,,,,,6100cbe60f7a8b9dd63261b4,61036e95bc5fb54d72d13352,2021-07-29_23h15.53.271,Simcolourproject_2stim_asymm_v5,2020.2.10,MacIntel,60,61025ae37ef11b136ea224fe,,,,,,,,,1890,-80.0625,-39.8359375,1,0,0,response5disk,,2,-10.75390625,5.1796875,1,0,0,rectangle,-10.75390625,5.1796875,1,0,0,-10.75390625,5.1796875,1,0,0,1,60,220,14,1,,,,,,,,
,,,,,,,,,,,,,FF,,,,,,,,1.16899,,,,,,,,,,,,,,,,,,,,,,6100cbe60f7a8b9dd63261b4,61036e95bc5fb54d72d13352,2021-07-29_23h15.53.271,Simcolourproject_2stim_asymm_v5,2020.2.10,MacIntel,60,61025ae37ef11b136ea224fe,,,,,,,,,334,74.921875,22.9765625,1,0,0,response1disk,,6,9.21875,1.453125,1,0,0,rectangle,9.21875,1.453125,1,0,0,9.21875,1.453125,1,0,0,1,61,221,149,1,,,,,,,,
,,,,,,,,,,,,,FF,,,,,,,,2.19973,,,,,,,,,,,,,,,,,,,,,,6100cbe60f7a8b9dd63261b4,61036e95bc5fb54d72d13352,2021-07-29_23h15.53.271,Simcolourproject_2stim_asymm_v5,2020.2.10,MacIntel,60,61025ae37ef11b136ea224fe,,,,,,,,,2556,79.66796875,-53.53515625,1,0,0,response3disk,,5,25.546875,-14.859375,1,0,0,rectangle,25.546875,-14.859375,1,0,0,25.546875,-14.859375,1,0,0,1,62,222,7,1,,,,,,,,
,,,,,,,,,,,,,FF,,,,,,,,4.06686,,,,,,,,,,,,,,,,,,,,,,6100cbe60f7a8b9dd63261b4,61036e95bc5fb54d72d13352,2021-07-29_23h15.53.271,Simcolourproject_2stim_asymm_v5,2020.2.10,MacIntel,60,61025ae37ef11b136ea224fe,,,,,,,,,3771,77.734375,22.0078125,1,0,0,response1disk,,6,1.19140625,-2.76171875,1,0,0,rectangle,1.19140625,-2.76171875,1,0,0,1.19140625,-2.76171875,1,0,0,1,63,223,139,1,,,,,,,,
,,,,,,,,,,,,,FF,,,,,,,,2.11669,,,,,,,,,,,,,,,,,,,,,,6100cbe60f7a8b9dd63261b4,61036e95bc5fb54d72d13352,2021-07-29_23h15.53.271,Simcolourproject_2stim_asymm_v5,2020.2.10,MacIntel,60,61025ae37ef11b136ea224fe,,,,,,,,,2348,-18.73828125,-64.82421875,1,0,0,response5disk,,3,3.3359375,8.1796875,1,0,0,rectangle,3.3359375,8.1796875,1,0,0,3.3359375,8.1796875,1,0,0,1,64,224,137,1,,,,,,,,
,,,,,,,,,,,,,FF,,,,,,,,0.749975,,,,,,,,,,,,,,,,,,,,,,6100cbe60f7a8b9dd63261b4,61036e95bc5fb54d72d13352,2021-07-29_23h15.53.271,Simcolourproject_2stim_asymm_v5,2020.2.10,MacIntel,60,61025ae37ef11b136ea224fe,,,,,,,,,3892,78.875,-26.63671875,1,0,0,response3disk,,5,35.08203125,1.79296875,1,0,0,rectangle,35.08203125,1.79296875,1,0,0,35.08203125,1.79296875,1,0,0,1,65,225,90,1,,,,,,,,
,,,,,,,,,,,,,FF,,,,,,,,0.533255,,,,,,,,,,,,,,,,,,,,,,6100cbe60f7a8b9dd63261b4,61036e95bc5fb54d72d13352,2021-07-29_23h15.53.271,Simcolourproject_2stim_asymm_v5,2020.2.10,MacIntel,60,61025ae37ef11b136ea224fe,,,,,,,,,1006,72.015625,41.70703125,1,0,0,response1disk,,6,-13.66015625,5.40234375,1,0,0,rectangle,-13.66015625,5.40234375,1,0,0,-13.66015625,5.40234375,1,0,0,1,66,226,104,1,,,,,,,,
,,,,,,,,,,,,,FF,,,,,,,,0.5668,,,,,,,,,,,,,,,,,,,,,,6100cbe60f7a8b9dd63261b4,61036e95bc5fb54d72d13352,2021-07-29_23h15.53.271,Simcolourproject_2stim_asymm_v5,2020.2.10,MacIntel,60,61025ae37ef11b136ea224fe,,,,,,,,,3231,24.28125,45.04296875,1,0,0,response1disk,,7,-1.65234375,-8.15625,1,0,0,rectangle,-1.65234375,-8.15625,1,0,0,-1.65234375,-8.15625,1,0,0,1,67,227,135,1,,,,,,,,
,,,,,,,,,,,,,FF,,,,,,,,1.132075,,,,,,,,,,,,,,,,,,,,,,6100cbe60f7a8b9dd63261b4,61036e95bc5fb54d72d13352,2021-07-29_23h15.53.271,Simcolourproject_2stim_asymm_v5,2020.2.10,MacIntel,60,61025ae37ef11b136ea224fe,,,,,,,,,1675,-33.94140625,-105.8320313,1,0,0,response5disk,,3,0.52734375,-1.23828125,1,0,0,rectangle,0.52734375,-1.23828125,1,0,0,0.52734375,-1.23828125,1,0,0,1,68,228,136,1,,,,,,,,
,,,,,,,,,,,,,FF,,,,,,,,1.050595,,,,,,,,,,,,,,,,,,,,,,6100cbe60f7a8b9dd63261b4,61036e95bc5fb54d72d13352,2021-07-29_23h15.53.271,Simcolourproject_2stim_asymm_v5,2020.2.10,MacIntel,60,61025ae37ef11b136ea224fe,,,,,,,,,1669,72.40625,37.73828125,1,0,0,response1disk,,6,22.671875,3.171875,1,0,0,rectangle,22.671875,3.171875,1,0,0,22.671875,3.171875,1,0,0,1,69,229,30,1,,,,,,,,
,,,,,,,,,,,,,FF,,,,,,,,1.049995,,,,,,,,,,,,,,,,,,,,,,6100cbe60f7a8b9dd63261b4,61036e95bc5fb54d72d13352,2021-07-29_23h15.53.271,Simcolourproject_2stim_asymm_v5,2020.2.10,MacIntel,60,61025ae37ef11b136ea224fe,,,,,,,,,3640,32.2109375,43.5546875,1,0,0,response1disk,,7,8.78515625,7.03125,1,0,0,rectangle,8.78515625,7.03125,1,0,0,8.78515625,7.03125,1,0,0,1,70,230,35,1,,,,,,,,
,,,,,,,,,,,,,FF,,,,,,,,0.89978,,,,,,,,,,,,,,,,,,,,,,6100cbe60f7a8b9dd63261b4,61036e95bc5fb54d72d13352,2021-07-29_23h15.53.271,Simcolourproject_2stim_asymm_v5,2020.2.10,MacIntel,60,61025ae37ef11b136ea224fe,,,,,,,,,1535,29.87109375,-74.78515625,1,0,0,response3disk,,4,5.72265625,-14.8203125,1,0,0,rectangle,5.72265625,-14.8203125,1,0,0,5.72265625,-14.8203125,1,0,0,1,71,231,46,1,,,,,,,,
,,,,,,,,,,,,,FF,,,,,,,,2.333145,,,,,,,,,,,,,,,,,,,,,,6100cbe60f7a8b9dd63261b4,61036e95bc5fb54d72d13352,2021-07-29_23h15.53.271,Simcolourproject_2stim_asymm_v5,2020.2.10,MacIntel,60,61025ae37ef11b136ea224fe,,,,,,,,,2794,78.875,-70.703125,1,0,0,response3disk,,5,-11.38671875,11.86328125,1,0,0,rectangle,-11.38671875,11.86328125,1,0,0,-11.38671875,11.86328125,1,0,0,1,72,232,106,1,,,,,,,,
,,,,,,,,,,,,,FF,,,,,,,,1.10034,,,,,,,,,,,,,,,,,,,,,,6100cbe60f7a8b9dd63261b4,61036e95bc5fb54d72d13352,2021-07-29_23h15.53.271,Simcolourproject_2stim_asymm_v5,2020.2.10,MacIntel,60,61025ae37ef11b136ea224fe,,,,,,,,,3700,74.859375,-48.453125,1,0,0,response3disk,,5,31.30078125,-4.6328125,1,0,0,rectangle,31.30078125,-4.6328125,1,0,0,31.30078125,-4.6328125,1,0,0,1,73,233,32,1,,,,,,,,
,,,,,,,,,,,,,FF,,,,,,,,0.883625,,,,,,,,,,,,,,,,,,,,,,6100cbe60f7a8b9dd63261b4,61036e95bc5fb54d72d13352,2021-07-29_23h15.53.271,Simcolourproject_2stim_asymm_v5,2020.2.10,MacIntel,60,61025ae37ef11b136ea224fe,,,,,,,,,108,39.7109375,-58.83203125,1,0,0,response3disk,,4,2.3046875,3.11328125,1,0,0,rectangle,2.3046875,3.11328125,1,0,0,2.3046875,3.11328125,1,0,0,1,74,234,131,1,,,,,,,,
,,,,,,,,,,,,,FF,,,,,,,,0.950195,,,,,,,,,,,,,,,,,,,,,,6100cbe60f7a8b9dd63261b4,61036e95bc5fb54d72d13352,2021-07-29_23h15.53.271,Simcolourproject_2stim_asymm_v5,2020.2.10,MacIntel,60,61025ae37ef11b136ea224fe,,,,,,,,,4230,82.875,22.578125,1,0,0,response1disk,,6,28.68359375,-3.22265625,1,0,0,rectangle,28.68359375,-3.22265625,1,0,0,28.68359375,-3.22265625,1,0,0,1,75,235,129,1,,,,,,,,
,,,,,,,,,,,,,FF,,,,,,,,0.951675,,,,,,,,,,,,,,,,,,,,,,6100cbe60f7a8b9dd63261b4,61036e95bc5fb54d72d13352,2021-07-29_23h15.53.271,Simcolourproject_2stim_asymm_v5,2020.2.10,MacIntel,60,61025ae37ef11b136ea224fe,,,,,,,,,3861,73.5078125,25.12109375,1,0,0,response1disk,,6,8.8046875,3.6875,1,0,0,rectangle,8.8046875,3.6875,1,0,0,8.8046875,3.6875,1,0,0,1,76,236,123,1,,,,,,,,
,,,,,,,,,,,,,FF,,,,,,,,0.66634,,,,,,,,,,,,,,,,,,,,,,6100cbe60f7a8b9dd63261b4,61036e95bc5fb54d72d13352,2021-07-29_23h15.53.271,Simcolourproject_2stim_asymm_v5,2020.2.10,MacIntel,60,61025ae37ef11b136ea224fe,,,,,,,,,882,42.88671875,-61.56640625,1,0,0,response3disk,,4,-2.50390625,4.19140625,1,0,0,rectangle,-2.50390625,4.19140625,1,0,0,-2.50390625,4.19140625,1,0,0,1,77,237,6,1,,,,,,,,
,,,,,,,,,,,,,FF,,,,,,,,1.600125,,,,,,,,,,,,,,,,,,,,,,6100cbe60f7a8b9dd63261b4,61036e95bc5fb54d72d13352,2021-07-29_23h15.53.271,Simcolourproject_2stim_asymm_v5,2020.2.10,MacIntel,60,61025ae37ef11b136ea224fe,,,,,,,,,2077,76.75,-39.11328125,1,0,0,response3disk,,5,32.21875,12.78125,1,0,0,rectangle,32.21875,12.78125,1,0,0,32.21875,12.78125,1,0,0,1,78,238,126,1,,,,,,,,
,,,,,,,,,,,,,FF,,,,,,,,0.516315,,,,,,,,,,,,,,,,,,,,,,6100cbe60f7a8b9dd63261b4,61036e95bc5fb54d72d13352,2021-07-29_23h15.53.271,Simcolourproject_2stim_asymm_v5,2020.2.10,MacIntel,60,61025ae37ef11b136ea224fe,,,,,,,,,1488,94.7265625,-41.15625,1,0,0,response3disk,,5,22.66796875,-12.49609375,1,0,0,rectangle,22.66796875,-12.49609375,1,0,0,22.66796875,-12.49609375,1,0,0,1,79,239,44,1,,,,,,,,
,,,,,,,,,,,,,FF,,,,,,,,0.750255,,,,,,,,,,,,,,,,,,,,,,6100cbe60f7a8b9dd63261b4,61036e95bc5fb54d72d13352,2021-07-29_23h15.53.271,Simcolourproject_2stim_asymm_v5,2020.2.10,MacIntel,60,61025ae37ef11b136ea224fe,,,,,,,,,73,-30.45703125,-69.1796875,1,0,0,response5disk,,3,2.6328125,3.93359375,1,0,0,rectangle,40.71875,65.40234375,1,0,0,17.84765625,-8.55078125,1,0,0,1,80,240,18,1,,response1disk_3,TRUE,7,7,"[282,43,296,5,36,78,241,99,259,196,273,166,173,41,149,101,98,287,20,105]",1.050595,rectangle
,,,,,,,,,,,,,FF,,,,,,,,3.58355,,,,,,,,,,,,,,,,,,,,,,6100cbe60f7a8b9dd63261b4,61036e95bc5fb54d72d13352,2021-07-29_23h15.53.271,Simcolourproject_2stim_asymm_v5,2020.2.10,MacIntel,60,61025ae37ef11b136ea224fe,,,,,,,,,3302,55.3046875,-40.85546875,1,0,0,response3disk,,5,14.9921875,10.75,1,0,0,rectangle,14.9921875,10.75,1,0,0,14.9921875,10.75,1,0,0,1,81,241,148,1,,,,,,,,
,,,,,,,,,,,,,FF,,,,,,,,0.748505,,,,,,,,,,,,,,,,,,,,,,6100cbe60f7a8b9dd63261b4,61036e95bc5fb54d72d13352,2021-07-29_23h15.53.271,Simcolourproject_2stim_asymm_v5,2020.2.10,MacIntel,60,61025ae37ef11b136ea224fe,,,,,,,,,2811,32.2109375,-71.890625,1,0,0,response3disk,,4,9.03515625,-8.703125,1,0,0,rectangle,9.03515625,-8.703125,1,0,0,9.03515625,-8.703125,1,0,0,1,82,242,100,1,,,,,,,,
,,,,,,,,,,,,,FF,,,,,,,,0.59955,,,,,,,,,,,,,,,,,,,,,,6100cbe60f7a8b9dd63261b4,61036e95bc5fb54d72d13352,2021-07-29_23h15.53.271,Simcolourproject_2stim_asymm_v5,2020.2.10,MacIntel,60,61025ae37ef11b136ea224fe,,,,,,,,,974,33.73828125,-60.52734375,1,0,0,response3disk,,4,0.60546875,2.34375,1,0,0,rectangle,0.60546875,2.34375,1,0,0,0.60546875,2.34375,1,0,0,1,83,243,59,1,,,,,,,,
,,,,,,,,,,,,,FF,,,,,,,,1.583245,,,,,,,,,,,,,,,,,,,,,,6100cbe60f7a8b9dd63261b4,61036e95bc5fb54d72d13352,2021-07-29_23h15.53.271,Simcolourproject_2stim_asymm_v5,2020.2.10,MacIntel,60,61025ae37ef11b136ea224fe,,,,,,,,,3734,89.59375,24.90234375,1,0,0,response1disk,,6,7.2890625,17.6171875,1,0,0,rectangle,7.2890625,17.6171875,1,0,0,7.2890625,17.6171875,1,0,0,1,84,244,40,1,,,,,,,,
,,,,,,,,,,,,,FF,,,,,,,,0.816945,,,,,,,,,,,,,,,,,,,,,,6100cbe60f7a8b9dd63261b4,61036e95bc5fb54d72d13352,2021-07-29_23h15.53.271,Simcolourproject_2stim_asymm_v5,2020.2.10,MacIntel,60,61025ae37ef11b136ea224fe,,,,,,,,,3127,27.75,92.78515625,1,0,0,response1disk,,7,-8.30078125,-14.9609375,1,0,0,rectangle,-8.30078125,-14.9609375,1,0,0,-8.30078125,-14.9609375,1,0,0,1,85,245,48,1,,,,,,,,
,,,,,,,,,,,,,FF,,,,,,,,1.06676,,,,,,,,,,,,,,,,,,,,,,6100cbe60f7a8b9dd63261b4,61036e95bc5fb54d72d13352,2021-07-29_23h15.53.271,Simcolourproject_2stim_asymm_v5,2020.2.10,MacIntel,60,61025ae37ef11b136ea224fe,,,,,,,,,1340,72.01953125,-46.9453125,1,0,0,response3disk,,5,8.58984375,12.78515625,1,0,0,rectangle,8.58984375,12.78515625,1,0,0,8.58984375,12.78515625,1,0,0,1,86,246,99,1,,,,,,,,
,,,,,,,,,,,,,FF,,,,,,,,0.79874,,,,,,,,,,,,,,,,,,,,,,6100cbe60f7a8b9dd63261b4,61036e95bc5fb54d72d13352,2021-07-29_23h15.53.271,Simcolourproject_2stim_asymm_v5,2020.2.10,MacIntel,60,61025ae37ef11b136ea224fe,,,,,,,,,1311,73.80859375,-51.71875,1,0,0,response3disk,,5,11.015625,-5.20703125,1,0,0,rectangle,11.015625,-5.20703125,1,0,0,11.015625,-5.20703125,1,0,0,1,87,247,116,1,,,,,,,,
