key_resp.keys,key_resp.rt,key_resp_14.keys,key_resp_14.rt,key_resp_15.keys,key_resp_15.rt,key_resp_17.keys,key_resp_17.rt,key_resp_9.keys,key_resp_9.rt,key_resp_10.keys,key_resp_10.rt,practice_comparison,Ecc,mouse_5.x,mouse_5.y,mouse_5.leftButton,mouse_5.midButton,mouse_5.rightButton,mouse_5.clicked_name,pracsimilarity,response_time,mouse_10.x,mouse_10.y,mouse_10.leftButton,mouse_10.midButton,mouse_10.rightButton,mouse_10.clicked_name,mouse_7.x,mouse_7.y,mouse_7.leftButton,mouse_7.midButton,mouse_7.rightButton,mouse_6.x,mouse_6.y,mouse_6.leftButton,mouse_6.midButton,mouse_6.rightButton,duringprac.thisRepN,duringprac.thisTrialN,duringprac.thisN,duringprac.thisIndex,duringprac.ran,participant,session,date,expName,psychopyVersion,OS,frameRate,study_id,mouse_7.clicked_name,catchpracsimilarity,catch_response_time,catchnumberprac,catchtrialorderprac,mouse_6.clicked_name,key_resp_22.keys,key_resp_22.rt,realcomparison,mouse.x,mouse.y,mouse.leftButton,mouse.midButton,mouse.rightButton,mouse.clicked_name,Colour2,similarity,mouse_2.x,mouse_2.y,mouse_2.leftButton,mouse_2.midButton,mouse_2.rightButton,mouse_2.clicked_name,mouse_3.x,mouse_3.y,mouse_3.leftButton,mouse_3.midButton,mouse_3.rightButton,mouse_11.x,mouse_11.y,mouse_11.leftButton,mouse_11.midButton,mouse_11.rightButton,trials_2.thisRepN,trials_2.thisTrialN,trials_2.thisN,trials_2.thisIndex,trials_2.ran,Colour1,mouse_3.clicked_name,catchornah,catchsimilarity,catchnumber,catchtrialorder,catchRT,mouse_11.clicked_name
space,4.8433,space,14.0931,space,26.9439,space,3.5675,space,2.2322,space,10.1825,42,FF,92.09375,-40.99609375,1,0,0,response3disk_5,5,4.5009,-3.58984375,2.5859375,1,0,0,rectangle_8,-3.58984375,2.5859375,1,0,0,-3.58984375,2.5859375,1,0,0,0,0,0,3,1,6100d28f1e251a6dff92f0df,61036e5d606dd7586d939d19,2021-07-29_23h14.13.162,Simcolourproject_2stim_asymm_v5,2020.2.10,MacIntel,60,61025ae37ef11b136ea224fe,,,,,,,,,,,,,,,,,,,,,,,,,,,,,,,,,,,,,,,,,,,,,,
,,,,,,,,,,,,68,PF,53.3515625,33.1640625,1,0,0,response1disk_5,6,4.1661,-3.0078125,6.078125,1,0,0,rectangle_8,35.9140625,68.70703125,1,0,0,0.875,3.96484375,1,0,0,0,1,1,1,1,6100d28f1e251a6dff92f0df,61036e5d606dd7586d939d19,2021-07-29_23h14.13.162,Simcolourproject_2stim_asymm_v5,2020.2.10,MacIntel,60,61025ae37ef11b136ea224fe,response1disk_7,7,5.3001,7,"[2,5]",rectangle_4,,,,,,,,,,,,,,,,,,,,,,,,,,,,,,,,,,,,,,,,
,,,,,,,,,,,,120,PF,21.1875,-84.5703125,1,0,0,response3disk_5,4,6.933,9.41015625,4.12109375,1,0,0,rectangle_8,9.41015625,4.12109375,1,0,0,9.41015625,4.12109375,1,0,0,0,2,2,2,1,6100d28f1e251a6dff92f0df,61036e5d606dd7586d939d19,2021-07-29_23h14.13.162,Simcolourproject_2stim_asymm_v5,2020.2.10,MacIntel,60,61025ae37ef11b136ea224fe,,,,,,,,,,,,,,,,,,,,,,,,,,,,,,,,,,,,,,,,,,,,,,
,,,,,,,,,,,,95,PF,-45.359375,-66.234375,1,0,0,response5disk_5,3,1.6989,-7.6015625,-0.01953125,1,0,0,rectangle_8,-7.6015625,-0.01953125,1,0,0,-7.6015625,-0.01953125,1,0,0,0,3,3,6,1,6100d28f1e251a6dff92f0df,61036e5d606dd7586d939d19,2021-07-29_23h14.13.162,Simcolourproject_2stim_asymm_v5,2020.2.10,MacIntel,60,61025ae37ef11b136ea224fe,,,,,,,,,,,,,,,,,,,,,,,,,,,,,,,,,,,,,,,,,,,,,,
,,,,,,,,,,,,89,FF,64.515625,86.6953125,1,0,0,response1disk_5,7,3.4992,12.890625,11.25,1,0,0,rectangle_8,41.99609375,96.99609375,1,0,0,-3.8203125,-6.9921875,1,0,0,0,4,4,0,1,6100d28f1e251a6dff92f0df,61036e5d606dd7586d939d19,2021-07-29_23h14.13.162,Simcolourproject_2stim_asymm_v5,2020.2.10,MacIntel,60,61025ae37ef11b136ea224fe,response1disk_7,7,2.1322,7,"[2,5]",rectangle_4,,,,,,,,,,,,,,,,,,,,,,,,,,,,,,,,,,,,,,,,
,,,,,,,,,,,,128,PF,101.0039063,34.203125,1,0,0,response1disk_5,6,4.7821,-0.05859375,-9.625,1,0,0,rectangle_8,-0.05859375,-9.625,1,0,0,-0.05859375,-9.625,1,0,0,0,5,5,4,1,6100d28f1e251a6dff92f0df,61036e5d606dd7586d939d19,2021-07-29_23h14.13.162,Simcolourproject_2stim_asymm_v5,2020.2.10,MacIntel,60,61025ae37ef11b136ea224fe,,,,,,,,,,,,,,,,,,,,,,,,,,,,,,,,,,,,,,,,,,,,,,
,,,,,,,,,,,,160,FF,34.8984375,73.2265625,1,0,0,response1disk_5,7,2.6669,2.26953125,0.2734375,1,0,0,rectangle_8,2.26953125,0.2734375,1,0,0,2.26953125,0.2734375,1,0,0,0,6,6,5,1,6100d28f1e251a6dff92f0df,61036e5d606dd7586d939d19,2021-07-29_23h14.13.162,Simcolourproject_2stim_asymm_v5,2020.2.10,MacIntel,60,61025ae37ef11b136ea224fe,,,,,,,,,,,,,,,,,,,,,,,,,,,,,,,,,,,,,,,,,,,,,,
,,,,,,,,,,,,,FF,,,,,,,,1.5163,,,,,,,,,,,,,,,,,,,,,,6100d28f1e251a6dff92f0df,61036e5d606dd7586d939d19,2021-07-29_23h14.13.162,Simcolourproject_2stim_asymm_v5,2020.2.10,MacIntel,60,61025ae37ef11b136ea224fe,,,,,,,space,2.6906,2930,68.32421875,103.2226563,1,0,0,response1disk,,7,7.2578125,1.109375,1,0,0,rectangle,7.2578125,1.109375,1,0,0,7.2578125,1.109375,1,0,0,0,0,0,12,1,,,,,,,,
,,,,,,,,,,,,,FF,,,,,,,,2.2021,,,,,,,,,,,,,,,,,,,,,,6100d28f1e251a6dff92f0df,61036e5d606dd7586d939d19,2021-07-29_23h14.13.162,Simcolourproject_2stim_asymm_v5,2020.2.10,MacIntel,60,61025ae37ef11b136ea224fe,,,,,,,,,1351,69.35546875,64.37109375,1,0,0,response1disk,,6,0.58203125,-6.6796875,1,0,0,rectangle,0.58203125,-6.6796875,1,0,0,0.58203125,-6.6796875,1,0,0,0,1,1,96,1,,,,,,,,
,,,,,,,,,,,,,FF,,,,,,,,1.4319,,,,,,,,,,,,,,,,,,,,,,6100d28f1e251a6dff92f0df,61036e5d606dd7586d939d19,2021-07-29_23h14.13.162,Simcolourproject_2stim_asymm_v5,2020.2.10,MacIntel,60,61025ae37ef11b136ea224fe,,,,,,,,,844,49.65625,65.5703125,1,0,0,response1disk,,7,9.734375,6.265625,1,0,0,rectangle,9.734375,6.265625,1,0,0,9.734375,6.265625,1,0,0,0,2,2,0,1,,,,,,,,
,,,,,,,,,,,,,FF,,,,,,,,2.034,,,,,,,,,,,,,,,,,,,,,,6100d28f1e251a6dff92f0df,61036e5d606dd7586d939d19,2021-07-29_23h14.13.162,Simcolourproject_2stim_asymm_v5,2020.2.10,MacIntel,60,61025ae37ef11b136ea224fe,,,,,,,,,105,-42.734375,-72.53515625,1,0,0,response5disk,,3,9.328125,4.734375,1,0,0,rectangle,9.328125,4.734375,1,0,0,9.328125,4.734375,1,0,0,0,3,3,58,1,,,,,,,,
,,,,,,,,,,,,,FF,,,,,,,,1.8348,,,,,,,,,,,,,,,,,,,,,,6100d28f1e251a6dff92f0df,61036e5d606dd7586d939d19,2021-07-29_23h14.13.162,Simcolourproject_2stim_asymm_v5,2020.2.10,MacIntel,60,61025ae37ef11b136ea224fe,,,,,,,,,3724,-31.859375,-70.234375,1,0,0,response5disk,,3,-2.4375,-8.6875,1,0,0,rectangle,-2.4375,-8.6875,1,0,0,-2.4375,-8.6875,1,0,0,0,4,4,125,1,,,,,,,,
,,,,,,,,,,,,,FF,,,,,,,,2.9503,,,,,,,,,,,,,,,,,,,,,,6100d28f1e251a6dff92f0df,61036e5d606dd7586d939d19,2021-07-29_23h14.13.162,Simcolourproject_2stim_asymm_v5,2020.2.10,MacIntel,60,61025ae37ef11b136ea224fe,,,,,,,,,2924,65.90625,-59.1875,1,0,0,response3disk,,5,20.40625,-4.0078125,1,0,0,rectangle,20.40625,-4.0078125,1,0,0,20.40625,-4.0078125,1,0,0,0,5,5,102,1,,,,,,,,
,,,,,,,,,,,,,FF,,,,,,,,2.0995,,,,,,,,,,,,,,,,,,,,,,6100d28f1e251a6dff92f0df,61036e5d606dd7586d939d19,2021-07-29_23h14.13.162,Simcolourproject_2stim_asymm_v5,2020.2.10,MacIntel,60,61025ae37ef11b136ea224fe,,,,,,,,,1710,75.84765625,-54.1875,1,0,0,response3disk,,5,8.1484375,-6.69921875,1,0,0,rectangle,8.1484375,-6.69921875,1,0,0,8.1484375,-6.69921875,1,0,0,0,6,6,85,1,,,,,,,,
,,,,,,,,,,,,,FF,,,,,,,,4.8996,,,,,,,,,,,,,,,,,,,,,,6100d28f1e251a6dff92f0df,61036e5d606dd7586d939d19,2021-07-29_23h14.13.162,Simcolourproject_2stim_asymm_v5,2020.2.10,MacIntel,60,61025ae37ef11b136ea224fe,,,,,,,,,424,74.4453125,26.32421875,1,0,0,response1disk,,6,4.8125,-7.6328125,1,0,0,rectangle,4.8125,-7.6328125,1,0,0,4.8125,-7.6328125,1,0,0,0,7,7,128,1,,,,,,,,
,,,,,,,,,,,,,FF,,,,,,,,6.5338,,,,,,,,,,,,,,,,,,,,,,6100d28f1e251a6dff92f0df,61036e5d606dd7586d939d19,2021-07-29_23h14.13.162,Simcolourproject_2stim_asymm_v5,2020.2.10,MacIntel,60,61025ae37ef11b136ea224fe,,,,,,,,,1709,30.515625,-65.4453125,1,0,0,response3disk,,4,5.43359375,1.4609375,1,0,0,rectangle,5.43359375,1.4609375,1,0,0,5.43359375,1.4609375,1,0,0,0,8,8,51,1,,,,,,,,
,,,,,,,,,,,,,FF,,,,,,,,1.3005,,,,,,,,,,,,,,,,,,,,,,6100d28f1e251a6dff92f0df,61036e5d606dd7586d939d19,2021-07-29_23h14.13.162,Simcolourproject_2stim_asymm_v5,2020.2.10,MacIntel,60,61025ae37ef11b136ea224fe,,,,,,,,,4334,38.78515625,110.984375,1,0,0,response1disk,,7,-7.6171875,-1.31640625,1,0,0,rectangle,-7.6171875,-1.31640625,1,0,0,-7.6171875,-1.31640625,1,0,0,0,9,9,70,1,,,,,,,,
,,,,,,,,,,,,,FF,,,,,,,,2.049,,,,,,,,,,,,,,,,,,,,,,6100d28f1e251a6dff92f0df,61036e5d606dd7586d939d19,2021-07-29_23h14.13.162,Simcolourproject_2stim_asymm_v5,2020.2.10,MacIntel,60,61025ae37ef11b136ea224fe,,,,,,,,,788,-27.33984375,-74.23828125,1,0,0,response5disk,,3,13.59765625,4.85546875,1,0,0,rectangle,13.59765625,4.85546875,1,0,0,13.59765625,4.85546875,1,0,0,0,10,10,110,1,,,,,,,,
,,,,,,,,,,,,,FF,,,,,,,,2.4661,,,,,,,,,,,,,,,,,,,,,,6100d28f1e251a6dff92f0df,61036e5d606dd7586d939d19,2021-07-29_23h14.13.162,Simcolourproject_2stim_asymm_v5,2020.2.10,MacIntel,60,61025ae37ef11b136ea224fe,,,,,,,,,4300,69.50390625,42.14453125,1,0,0,response1disk,,6,9.87109375,8.33203125,1,0,0,rectangle,-51.03515625,-86.19140625,1,0,0,-11.70703125,-5.40234375,1,0,0,0,11,11,78,1,,response5disk_3,TRUE,3,3,"[232,111,292,56,12,185,186,221,94,270,105,255,305,226,200,66,227,254,284,192]",1.9821,rectangle
,,,,,,,,,,,,,FF,,,,,,,,1.5341,,,,,,,,,,,,,,,,,,,,,,6100d28f1e251a6dff92f0df,61036e5d606dd7586d939d19,2021-07-29_23h14.13.162,Simcolourproject_2stim_asymm_v5,2020.2.10,MacIntel,60,61025ae37ef11b136ea224fe,,,,,,,,,187,-77.265625,-26.88671875,1,0,0,response5disk,,2,-5.9921875,6.6171875,1,0,0,rectangle,-5.9921875,6.6171875,1,0,0,-5.9921875,6.6171875,1,0,0,0,12,12,34,1,,,,,,,,
,,,,,,,,,,,,,FF,,,,,,,,5.2661,,,,,,,,,,,,,,,,,,,,,,6100d28f1e251a6dff92f0df,61036e5d606dd7586d939d19,2021-07-29_23h14.13.162,Simcolourproject_2stim_asymm_v5,2020.2.10,MacIntel,60,61025ae37ef11b136ea224fe,,,,,,,,,1509,25.93359375,-102.578125,1,0,0,response3disk,,4,0.34765625,-4.40234375,1,0,0,rectangle,0.34765625,-4.40234375,1,0,0,0.34765625,-4.40234375,1,0,0,0,13,13,121,1,,,,,,,,
,,,,,,,,,,,,,FF,,,,,,,,1.6172,,,,,,,,,,,,,,,,,,,,,,6100d28f1e251a6dff92f0df,61036e5d606dd7586d939d19,2021-07-29_23h14.13.162,Simcolourproject_2stim_asymm_v5,2020.2.10,MacIntel,60,61025ae37ef11b136ea224fe,,,,,,,,,1822,-58.6484375,37.52734375,1,0,0,response7disk,,1,4.7421875,9.484375,1,0,0,rectangle,4.7421875,9.484375,1,0,0,4.7421875,9.484375,1,0,0,0,14,14,97,1,,,,,,,,
,,,,,,,,,,,,,FF,,,,,,,,1.4159,,,,,,,,,,,,,,,,,,,,,,6100d28f1e251a6dff92f0df,61036e5d606dd7586d939d19,2021-07-29_23h14.13.162,Simcolourproject_2stim_asymm_v5,2020.2.10,MacIntel,60,61025ae37ef11b136ea224fe,,,,,,,,,1233,-27.484375,-38.73046875,1,0,0,response5disk,,3,-16.05078125,-6.1484375,1,0,0,rectangle,-16.05078125,-6.1484375,1,0,0,-16.05078125,-6.1484375,1,0,0,0,15,15,86,1,,,,,,,,
,,,,,,,,,,,,,FF,,,,,,,,2.2329,,,,,,,,,,,,,,,,,,,,,,6100d28f1e251a6dff92f0df,61036e5d606dd7586d939d19,2021-07-29_23h14.13.162,Simcolourproject_2stim_asymm_v5,2020.2.10,MacIntel,60,61025ae37ef11b136ea224fe,,,,,,,,,2857,-31.7421875,-54.49609375,1,0,0,response5disk,,3,-4.5234375,-0.51171875,1,0,0,rectangle,-4.5234375,-0.51171875,1,0,0,-4.5234375,-0.51171875,1,0,0,0,16,16,11,1,,,,,,,,
,,,,,,,,,,,,,FF,,,,,,,,2.7669,,,,,,,,,,,,,,,,,,,,,,6100d28f1e251a6dff92f0df,61036e5d606dd7586d939d19,2021-07-29_23h14.13.162,Simcolourproject_2stim_asymm_v5,2020.2.10,MacIntel,60,61025ae37ef11b136ea224fe,,,,,,,,,3377,30.80859375,-63.70703125,1,0,0,response3disk,,4,-4.5078125,10.64453125,1,0,0,rectangle,-4.5078125,10.64453125,1,0,0,-4.5078125,10.64453125,1,0,0,0,17,17,46,1,,,,,,,,
,,,,,,,,,,,,,FF,,,,,,,,1.1666,,,,,,,,,,,,,,,,,,,,,,6100d28f1e251a6dff92f0df,61036e5d606dd7586d939d19,2021-07-29_23h14.13.162,Simcolourproject_2stim_asymm_v5,2020.2.10,MacIntel,60,61025ae37ef11b136ea224fe,,,,,,,,,2726,-86.171875,-27.30078125,1,0,0,response5disk,,2,-10.57421875,5.15625,1,0,0,rectangle,-10.57421875,5.15625,1,0,0,-10.57421875,5.15625,1,0,0,0,18,18,59,1,,,,,,,,
,,,,,,,,,,,,,FF,,,,,,,,2.4839,,,,,,,,,,,,,,,,,,,,,,6100d28f1e251a6dff92f0df,61036e5d606dd7586d939d19,2021-07-29_23h14.13.162,Simcolourproject_2stim_asymm_v5,2020.2.10,MacIntel,60,61025ae37ef11b136ea224fe,,,,,,,,,2207,65.3125,55.0625,1,0,0,response1disk,,6,15.38671875,5.640625,1,0,0,rectangle,15.38671875,5.640625,1,0,0,15.38671875,5.640625,1,0,0,0,19,19,37,1,,,,,,,,
,,,,,,,,,,,,,FF,,,,,,,,1.2002,,,,,,,,,,,,,,,,,,,,,,6100d28f1e251a6dff92f0df,61036e5d606dd7586d939d19,2021-07-29_23h14.13.162,Simcolourproject_2stim_asymm_v5,2020.2.10,MacIntel,60,61025ae37ef11b136ea224fe,,,,,,,,,3574,40.34765625,78.76171875,1,0,0,response1disk,,7,-1.83984375,2.8359375,1,0,0,rectangle,-1.83984375,2.8359375,1,0,0,-1.83984375,2.8359375,1,0,0,0,20,20,126,1,,,,,,,,
,,,,,,,,,,,,,FF,,,,,,,,1.3167,,,,,,,,,,,,,,,,,,,,,,6100d28f1e251a6dff92f0df,61036e5d606dd7586d939d19,2021-07-29_23h14.13.162,Simcolourproject_2stim_asymm_v5,2020.2.10,MacIntel,60,61025ae37ef11b136ea224fe,,,,,,,,,1010,66.234375,-17.17578125,1,0,0,response3disk,,5,-7.5625,-7.4453125,1,0,0,rectangle,-7.5625,-7.4453125,1,0,0,-7.5625,-7.4453125,1,0,0,0,21,21,122,1,,,,,,,,
,,,,,,,,,,,,,FF,,,,,,,,1.1665,,,,,,,,,,,,,,,,,,,,,,6100d28f1e251a6dff92f0df,61036e5d606dd7586d939d19,2021-07-29_23h14.13.162,Simcolourproject_2stim_asymm_v5,2020.2.10,MacIntel,60,61025ae37ef11b136ea224fe,,,,,,,,,548,-68.08203125,-50.53515625,1,0,0,response5disk,,2,9.765625,4.91796875,1,0,0,rectangle,9.765625,4.91796875,1,0,0,9.765625,4.91796875,1,0,0,0,22,22,82,1,,,,,,,,
,,,,,,,,,,,,,FF,,,,,,,,2.4658,,,,,,,,,,,,,,,,,,,,,,6100d28f1e251a6dff92f0df,61036e5d606dd7586d939d19,2021-07-29_23h14.13.162,Simcolourproject_2stim_asymm_v5,2020.2.10,MacIntel,60,61025ae37ef11b136ea224fe,,,,,,,,,2529,74.6328125,-49.26953125,1,0,0,response3disk,,5,7.16015625,2.59765625,1,0,0,rectangle,7.16015625,2.59765625,1,0,0,7.16015625,2.59765625,1,0,0,0,23,23,159,1,,,,,,,,
,,,,,,,,,,,,,FF,,,,,,,,1.2833,,,,,,,,,,,,,,,,,,,,,,6100d28f1e251a6dff92f0df,61036e5d606dd7586d939d19,2021-07-29_23h14.13.162,Simcolourproject_2stim_asymm_v5,2020.2.10,MacIntel,60,61025ae37ef11b136ea224fe,,,,,,,,,2237,-57.53515625,-31.87109375,1,0,0,response5disk,,2,1.68359375,-5.6875,1,0,0,rectangle,1.68359375,-5.6875,1,0,0,1.68359375,-5.6875,1,0,0,0,24,24,69,1,,,,,,,,
,,,,,,,,,,,,,FF,,,,,,,,0.9847,,,,,,,,,,,,,,,,,,,,,,6100d28f1e251a6dff92f0df,61036e5d606dd7586d939d19,2021-07-29_23h14.13.162,Simcolourproject_2stim_asymm_v5,2020.2.10,MacIntel,60,61025ae37ef11b136ea224fe,,,,,,,,,3270,45.8984375,84.3515625,1,0,0,response1disk,,7,-5.44921875,0.3515625,1,0,0,rectangle,-5.44921875,0.3515625,1,0,0,-5.44921875,0.3515625,1,0,0,0,25,25,15,1,,,,,,,,
,,,,,,,,,,,,,FF,,,,,,,,5.8651,,,,,,,,,,,,,,,,,,,,,,6100d28f1e251a6dff92f0df,61036e5d606dd7586d939d19,2021-07-29_23h14.13.162,Simcolourproject_2stim_asymm_v5,2020.2.10,MacIntel,60,61025ae37ef11b136ea224fe,,,,,,,,,1439,50.6796875,-24.9765625,1,0,0,response3disk,,5,-1.51953125,1.75390625,1,0,0,rectangle,-1.51953125,1.75390625,1,0,0,-1.51953125,1.75390625,1,0,0,0,26,26,98,1,,,,,,,,
,,,,,,,,,,,,,FF,,,,,,,,1.1844,,,,,,,,,,,,,,,,,,,,,,6100d28f1e251a6dff92f0df,61036e5d606dd7586d939d19,2021-07-29_23h14.13.162,Simcolourproject_2stim_asymm_v5,2020.2.10,MacIntel,60,61025ae37ef11b136ea224fe,,,,,,,,,3375,-74.765625,-40.859375,1,0,0,response5disk,,2,19.96875,-5.94140625,1,0,0,rectangle,19.96875,-5.94140625,1,0,0,19.96875,-5.94140625,1,0,0,0,27,27,5,1,,,,,,,,
,,,,,,,,,,,,,FF,,,,,,,,1.2999,,,,,,,,,,,,,,,,,,,,,,6100d28f1e251a6dff92f0df,61036e5d606dd7586d939d19,2021-07-29_23h14.13.162,Simcolourproject_2stim_asymm_v5,2020.2.10,MacIntel,60,61025ae37ef11b136ea224fe,,,,,,,,,1331,35.921875,62.4453125,1,0,0,response1disk,,7,-4.65625,-3.64453125,1,0,0,rectangle,-4.65625,-3.64453125,1,0,0,-4.65625,-3.64453125,1,0,0,0,28,28,43,1,,,,,,,,
,,,,,,,,,,,,,FF,,,,,,,,1.4839,,,,,,,,,,,,,,,,,,,,,,6100d28f1e251a6dff92f0df,61036e5d606dd7586d939d19,2021-07-29_23h14.13.162,Simcolourproject_2stim_asymm_v5,2020.2.10,MacIntel,60,61025ae37ef11b136ea224fe,,,,,,,,,1373,-79.87109375,-51.46875,1,0,0,response5disk,,2,4.34765625,-3.81640625,1,0,0,rectangle,4.34765625,-3.81640625,1,0,0,4.34765625,-3.81640625,1,0,0,0,29,29,9,1,,,,,,,,
,,,,,,,,,,,,,FF,,,,,,,,1.5487,,,,,,,,,,,,,,,,,,,,,,6100d28f1e251a6dff92f0df,61036e5d606dd7586d939d19,2021-07-29_23h14.13.162,Simcolourproject_2stim_asymm_v5,2020.2.10,MacIntel,60,61025ae37ef11b136ea224fe,,,,,,,,,147,78.67578125,32.04296875,1,0,0,response1disk,,6,-3.0625,-1.40625,1,0,0,rectangle,-3.0625,-1.40625,1,0,0,-3.0625,-1.40625,1,0,0,0,30,30,64,1,,,,,,,,
,,,,,,,,,,,,,FF,,,,,,,,8.6161,,,,,,,,,,,,,,,,,,,,,,6100d28f1e251a6dff92f0df,61036e5d606dd7586d939d19,2021-07-29_23h14.13.162,Simcolourproject_2stim_asymm_v5,2020.2.10,MacIntel,60,61025ae37ef11b136ea224fe,,,,,,,,,3800,66.02734375,-82.65625,1,0,0,response3disk,,4,-5.8671875,-0.12890625,1,0,0,rectangle,-5.8671875,-0.12890625,1,0,0,-5.8671875,-0.12890625,1,0,0,0,31,31,143,1,,,,,,,,
,,,,,,,,,,,,,FF,,,,,,,,2.1328,,,,,,,,,,,,,,,,,,,,,,6100d28f1e251a6dff92f0df,61036e5d606dd7586d939d19,2021-07-29_23h14.13.162,Simcolourproject_2stim_asymm_v5,2020.2.10,MacIntel,60,61025ae37ef11b136ea224fe,,,,,,,,,3767,61.18359375,89.29296875,1,0,0,response1disk,,7,2.5,-11.796875,1,0,0,rectangle,2.5,-11.796875,1,0,0,2.5,-11.796875,1,0,0,0,32,32,133,1,,,,,,,,
,,,,,,,,,,,,,FF,,,,,,,,3.2843,,,,,,,,,,,,,,,,,,,,,,6100d28f1e251a6dff92f0df,61036e5d606dd7586d939d19,2021-07-29_23h14.13.162,Simcolourproject_2stim_asymm_v5,2020.2.10,MacIntel,60,61025ae37ef11b136ea224fe,,,,,,,,,794,38.5234375,-70.7421875,1,0,0,response3disk,,4,11.2265625,-15.0234375,1,0,0,rectangle,11.2265625,-15.0234375,1,0,0,11.2265625,-15.0234375,1,0,0,0,33,33,118,1,,,,,,,,
,,,,,,,,,,,,,FF,,,,,,,,1.9165,,,,,,,,,,,,,,,,,,,,,,6100d28f1e251a6dff92f0df,61036e5d606dd7586d939d19,2021-07-29_23h14.13.162,Simcolourproject_2stim_asymm_v5,2020.2.10,MacIntel,60,61025ae37ef11b136ea224fe,,,,,,,,,4364,-76.16796875,27.19140625,1,0,0,response7disk,,1,-3.62109375,10.55078125,1,0,0,rectangle,-3.62109375,10.55078125,1,0,0,-3.62109375,10.55078125,1,0,0,0,34,34,38,1,,,,,,,,
,,,,,,,,,,,,,FF,,,,,,,,1.1831,,,,,,,,,,,,,,,,,,,,,,6100d28f1e251a6dff92f0df,61036e5d606dd7586d939d19,2021-07-29_23h14.13.162,Simcolourproject_2stim_asymm_v5,2020.2.10,MacIntel,60,61025ae37ef11b136ea224fe,,,,,,,,,2454,52.01171875,86.7421875,1,0,0,response1disk,,7,-4.96484375,5.20703125,1,0,0,rectangle,-4.96484375,5.20703125,1,0,0,-4.96484375,5.20703125,1,0,0,0,35,35,88,1,,,,,,,,
,,,,,,,,,,,,,FF,,,,,,,,1.1334,,,,,,,,,,,,,,,,,,,,,,6100d28f1e251a6dff92f0df,61036e5d606dd7586d939d19,2021-07-29_23h14.13.162,Simcolourproject_2stim_asymm_v5,2020.2.10,MacIntel,60,61025ae37ef11b136ea224fe,,,,,,,,,4052,-59.97265625,40.625,1,0,0,response7disk,,1,4.65625,6.81640625,1,0,0,rectangle,4.65625,6.81640625,1,0,0,4.65625,6.81640625,1,0,0,0,36,36,60,1,,,,,,,,
,,,,,,,,,,,,,FF,,,,,,,,1.2338,,,,,,,,,,,,,,,,,,,,,,6100d28f1e251a6dff92f0df,61036e5d606dd7586d939d19,2021-07-29_23h14.13.162,Simcolourproject_2stim_asymm_v5,2020.2.10,MacIntel,60,61025ae37ef11b136ea224fe,,,,,,,,,3552,-46.75,81.1875,1,0,0,response7disk,,0,-15.578125,3.84375,1,0,0,rectangle,-15.578125,3.84375,1,0,0,-15.578125,3.84375,1,0,0,0,37,37,114,1,,,,,,,,
,,,,,,,,,,,,,FF,,,,,,,,1.2993,,,,,,,,,,,,,,,,,,,,,,6100d28f1e251a6dff92f0df,61036e5d606dd7586d939d19,2021-07-29_23h14.13.162,Simcolourproject_2stim_asymm_v5,2020.2.10,MacIntel,60,61025ae37ef11b136ea224fe,,,,,,,,,3597,-61.84765625,-35.859375,1,0,0,response5disk,,2,-18.3984375,-10.578125,1,0,0,rectangle,-18.3984375,-10.578125,1,0,0,-18.3984375,-10.578125,1,0,0,0,38,38,35,1,,,,,,,,
,,,,,,,,,,,,,FF,,,,,,,,0.9836,,,,,,,,,,,,,,,,,,,,,,6100d28f1e251a6dff92f0df,61036e5d606dd7586d939d19,2021-07-29_23h14.13.162,Simcolourproject_2stim_asymm_v5,2020.2.10,MacIntel,60,61025ae37ef11b136ea224fe,,,,,,,,,891,-73.45703125,-47.7734375,1,0,0,response5disk,,2,-15.2421875,-2.51953125,1,0,0,rectangle,-15.2421875,-2.51953125,1,0,0,-15.2421875,-2.51953125,1,0,0,0,39,39,20,1,,,,,,,,
,,,,,,,,,,,,,FF,,,,,,,,1.7991,,,,,,,,,,,,,,,,,,,,,,6100d28f1e251a6dff92f0df,61036e5d606dd7586d939d19,2021-07-29_23h14.13.162,Simcolourproject_2stim_asymm_v5,2020.2.10,MacIntel,60,61025ae37ef11b136ea224fe,,,,,,,,,1877,99.12109375,22.921875,1,0,0,response1disk,,6,8.9296875,-8.734375,1,0,0,rectangle,8.9296875,-8.734375,1,0,0,8.9296875,-8.734375,1,0,0,0,40,40,74,1,,,,,,,,
,,,,,,,,,,,,,FF,,,,,,,,4.3995,,,,,,,,,,,,,,,,,,,,,,6100d28f1e251a6dff92f0df,61036e5d606dd7586d939d19,2021-07-29_23h14.13.162,Simcolourproject_2stim_asymm_v5,2020.2.10,MacIntel,60,61025ae37ef11b136ea224fe,,,,,,,,,2687,27.70703125,-60.984375,1,0,0,response3disk,,4,18.5546875,-1.76953125,1,0,0,rectangle,18.5546875,-1.76953125,1,0,0,18.5546875,-1.76953125,1,0,0,0,41,41,72,1,,,,,,,,
,,,,,,,,,,,,,FF,,,,,,,,0.9509,,,,,,,,,,,,,,,,,,,,,,6100d28f1e251a6dff92f0df,61036e5d606dd7586d939d19,2021-07-29_23h14.13.162,Simcolourproject_2stim_asymm_v5,2020.2.10,MacIntel,60,61025ae37ef11b136ea224fe,,,,,,,,,3587,28.890625,-76.92578125,1,0,0,response3disk,,4,-0.2109375,-5.28515625,1,0,0,rectangle,-0.2109375,-5.28515625,1,0,0,-0.2109375,-5.28515625,1,0,0,0,42,42,26,1,,,,,,,,
,,,,,,,,,,,,,FF,,,,,,,,2.783,,,,,,,,,,,,,,,,,,,,,,6100d28f1e251a6dff92f0df,61036e5d606dd7586d939d19,2021-07-29_23h14.13.162,Simcolourproject_2stim_asymm_v5,2020.2.10,MacIntel,60,61025ae37ef11b136ea224fe,,,,,,,,,1002,62.78515625,29.7265625,1,0,0,response1disk,,6,-10.48046875,-4.21875,1,0,0,rectangle,-10.48046875,-4.21875,1,0,0,-10.48046875,-4.21875,1,0,0,0,43,43,101,1,,,,,,,,
,,,,,,,,,,,,,FF,,,,,,,,1.2498,,,,,,,,,,,,,,,,,,,,,,6100d28f1e251a6dff92f0df,61036e5d606dd7586d939d19,2021-07-29_23h14.13.162,Simcolourproject_2stim_asymm_v5,2020.2.10,MacIntel,60,61025ae37ef11b136ea224fe,,,,,,,,,4149,-70.19921875,-28.1875,1,0,0,response5disk,,2,18.5,-3.37109375,1,0,0,rectangle,18.5,-3.37109375,1,0,0,18.5,-3.37109375,1,0,0,0,44,44,81,1,,,,,,,,
,,,,,,,,,,,,,FF,,,,,,,,0.7989,,,,,,,,,,,,,,,,,,,,,,6100d28f1e251a6dff92f0df,61036e5d606dd7586d939d19,2021-07-29_23h14.13.162,Simcolourproject_2stim_asymm_v5,2020.2.10,MacIntel,60,61025ae37ef11b136ea224fe,,,,,,,,,97,-57.765625,-30.46484375,1,0,0,response5disk,,2,-5.5859375,-8.5234375,1,0,0,rectangle,-5.5859375,-8.5234375,1,0,0,-5.5859375,-8.5234375,1,0,0,0,45,45,106,1,,,,,,,,
,,,,,,,,,,,,,FF,,,,,,,,3.2162,,,,,,,,,,,,,,,,,,,,,,6100d28f1e251a6dff92f0df,61036e5d606dd7586d939d19,2021-07-29_23h14.13.162,Simcolourproject_2stim_asymm_v5,2020.2.10,MacIntel,60,61025ae37ef11b136ea224fe,,,,,,,,,4191,90.2421875,39.92578125,1,0,0,response1disk,,6,-7.55078125,3.30859375,1,0,0,rectangle,-7.55078125,3.30859375,1,0,0,-7.55078125,3.30859375,1,0,0,0,46,46,50,1,,,,,,,,
,,,,,,,,,,,,,FF,,,,,,,,1.6013,,,,,,,,,,,,,,,,,,,,,,6100d28f1e251a6dff92f0df,61036e5d606dd7586d939d19,2021-07-29_23h14.13.162,Simcolourproject_2stim_asymm_v5,2020.2.10,MacIntel,60,61025ae37ef11b136ea224fe,,,,,,,,,132,85.87109375,57.890625,1,0,0,response1disk,,6,7.69140625,-0.02734375,1,0,0,rectangle,7.69140625,-0.02734375,1,0,0,7.69140625,-0.02734375,1,0,0,0,47,47,141,1,,,,,,,,
,,,,,,,,,,,,,FF,,,,,,,,2.099,,,,,,,,,,,,,,,,,,,,,,6100d28f1e251a6dff92f0df,61036e5d606dd7586d939d19,2021-07-29_23h14.13.162,Simcolourproject_2stim_asymm_v5,2020.2.10,MacIntel,60,61025ae37ef11b136ea224fe,,,,,,,,,1217,17.484375,-62.91796875,1,0,0,response3disk,,4,-2.37890625,17.0859375,1,0,0,rectangle,-2.37890625,17.0859375,1,0,0,-2.37890625,17.0859375,1,0,0,0,48,48,68,1,,,,,,,,
,,,,,,,,,,,,,FF,,,,,,,,1.0845,,,,,,,,,,,,,,,,,,,,,,6100d28f1e251a6dff92f0df,61036e5d606dd7586d939d19,2021-07-29_23h14.13.162,Simcolourproject_2stim_asymm_v5,2020.2.10,MacIntel,60,61025ae37ef11b136ea224fe,,,,,,,,,1098,56.12109375,107.640625,1,0,0,response1disk,,7,25.8203125,1.0625,1,0,0,rectangle,25.8203125,1.0625,1,0,0,25.8203125,1.0625,1,0,0,0,49,49,14,1,,,,,,,,
,,,,,,,,,,,,,FF,,,,,,,,2.2832,,,,,,,,,,,,,,,,,,,,,,6100d28f1e251a6dff92f0df,61036e5d606dd7586d939d19,2021-07-29_23h14.13.162,Simcolourproject_2stim_asymm_v5,2020.2.10,MacIntel,60,61025ae37ef11b136ea224fe,,,,,,,,,1146,81.2734375,-35.62890625,1,0,0,response3disk,,5,13.6328125,-6.8046875,1,0,0,rectangle,13.6328125,-6.8046875,1,0,0,13.6328125,-6.8046875,1,0,0,0,50,50,53,1,,,,,,,,
,,,,,,,,,,,,,FF,,,,,,,,1.2832,,,,,,,,,,,,,,,,,,,,,,6100d28f1e251a6dff92f0df,61036e5d606dd7586d939d19,2021-07-29_23h14.13.162,Simcolourproject_2stim_asymm_v5,2020.2.10,MacIntel,60,61025ae37ef11b136ea224fe,,,,,,,,,358,90.6953125,41.21484375,1,0,0,response1disk,,6,34.1875,9.83984375,1,0,0,rectangle,34.1875,9.83984375,1,0,0,34.1875,9.83984375,1,0,0,0,51,51,24,1,,,,,,,,
,,,,,,,,,,,,,FF,,,,,,,,1.8169,,,,,,,,,,,,,,,,,,,,,,6100d28f1e251a6dff92f0df,61036e5d606dd7586d939d19,2021-07-29_23h14.13.162,Simcolourproject_2stim_asymm_v5,2020.2.10,MacIntel,60,61025ae37ef11b136ea224fe,,,,,,,,,4134,52.1171875,-27.61328125,1,0,0,response3disk,,5,5.546875,-3.375,1,0,0,rectangle,5.546875,-3.375,1,0,0,5.546875,-3.375,1,0,0,0,52,52,90,1,,,,,,,,
,,,,,,,,,,,,,FF,,,,,,,,3.3671,,,,,,,,,,,,,,,,,,,,,,6100d28f1e251a6dff92f0df,61036e5d606dd7586d939d19,2021-07-29_23h14.13.162,Simcolourproject_2stim_asymm_v5,2020.2.10,MacIntel,60,61025ae37ef11b136ea224fe,,,,,,,,,4323,70.97265625,43.296875,1,0,0,response1disk,,6,-4.0078125,-5.6484375,1,0,0,rectangle,-4.0078125,-5.6484375,1,0,0,-4.0078125,-5.6484375,1,0,0,0,53,53,18,1,,,,,,,,
,,,,,,,,,,,,,FF,,,,,,,,1.2335,,,,,,,,,,,,,,,,,,,,,,6100d28f1e251a6dff92f0df,61036e5d606dd7586d939d19,2021-07-29_23h14.13.162,Simcolourproject_2stim_asymm_v5,2020.2.10,MacIntel,60,61025ae37ef11b136ea224fe,,,,,,,,,1515,53.546875,-75.6875,1,0,0,response3disk,,4,2.890625,-2.546875,1,0,0,rectangle,2.890625,-2.546875,1,0,0,2.890625,-2.546875,1,0,0,0,54,54,55,1,,,,,,,,
,,,,,,,,,,,,,FF,,,,,,,,2.1168,,,,,,,,,,,,,,,,,,,,,,6100d28f1e251a6dff92f0df,61036e5d606dd7586d939d19,2021-07-29_23h14.13.162,Simcolourproject_2stim_asymm_v5,2020.2.10,MacIntel,60,61025ae37ef11b136ea224fe,,,,,,,,,2100,-60.37109375,33.61328125,1,0,0,response7disk,,1,0.5546875,5.41796875,1,0,0,rectangle,-33.41796875,-94.890625,1,0,0,1.859375,2.99609375,1,0,0,0,55,55,21,1,,response5disk_3,TRUE,3,3,"[232,111,292,56,12,185,186,221,94,270,105,255,305,226,200,66,227,254,284,192]",1.7659,rectangle
,,,,,,,,,,,,,FF,,,,,,,,1.0834,,,,,,,,,,,,,,,,,,,,,,6100d28f1e251a6dff92f0df,61036e5d606dd7586d939d19,2021-07-29_23h14.13.162,Simcolourproject_2stim_asymm_v5,2020.2.10,MacIntel,60,61025ae37ef11b136ea224fe,,,,,,,,,3474,-91.80078125,-39.703125,1,0,0,response5disk,,2,-12.67578125,-8.69140625,1,0,0,rectangle,-12.67578125,-8.69140625,1,0,0,-12.67578125,-8.69140625,1,0,0,0,56,56,124,1,,,,,,,,
,,,,,,,,,,,,,FF,,,,,,,,0.7837,,,,,,,,,,,,,,,,,,,,,,6100d28f1e251a6dff92f0df,61036e5d606dd7586d939d19,2021-07-29_23h14.13.162,Simcolourproject_2stim_asymm_v5,2020.2.10,MacIntel,60,61025ae37ef11b136ea224fe,,,,,,,,,4125,-71.62890625,-40.38671875,1,0,0,response5disk,,2,-0.6953125,3.87109375,1,0,0,rectangle,-0.6953125,3.87109375,1,0,0,-0.6953125,3.87109375,1,0,0,0,57,57,1,1,,,,,,,,
,,,,,,,,,,,,,FF,,,,,,,,0.866,,,,,,,,,,,,,,,,,,,,,,6100d28f1e251a6dff92f0df,61036e5d606dd7586d939d19,2021-07-29_23h14.13.162,Simcolourproject_2stim_asymm_v5,2020.2.10,MacIntel,60,61025ae37ef11b136ea224fe,,,,,,,,,4167,-73.48828125,-45.74609375,1,0,0,response5disk,,2,-4.94921875,-1.94921875,1,0,0,rectangle,-4.94921875,-1.94921875,1,0,0,-4.94921875,-1.94921875,1,0,0,0,58,58,45,1,,,,,,,,
,,,,,,,,,,,,,FF,,,,,,,,1.1337,,,,,,,,,,,,,,,,,,,,,,6100d28f1e251a6dff92f0df,61036e5d606dd7586d939d19,2021-07-29_23h14.13.162,Simcolourproject_2stim_asymm_v5,2020.2.10,MacIntel,60,61025ae37ef11b136ea224fe,,,,,,,,,1265,85.99609375,31.2265625,1,0,0,response1disk,,6,-0.921875,-10.703125,1,0,0,rectangle,-0.921875,-10.703125,1,0,0,-0.921875,-10.703125,1,0,0,0,59,59,115,1,,,,,,,,
,,,,,,,,,,,,,FF,,,,,,,,1.1665,,,,,,,,,,,,,,,,,,,,,,6100d28f1e251a6dff92f0df,61036e5d606dd7586d939d19,2021-07-29_23h14.13.162,Simcolourproject_2stim_asymm_v5,2020.2.10,MacIntel,60,61025ae37ef11b136ea224fe,,,,,,,,,3540,21.37890625,81.48828125,1,0,0,response1disk,,7,12.98046875,10.98046875,1,0,0,rectangle,12.98046875,10.98046875,1,0,0,12.98046875,10.98046875,1,0,0,0,60,60,76,1,,,,,,,,
,,,,,,,,,,,,,FF,,,,,,,,1.2996,,,,,,,,,,,,,,,,,,,,,,6100d28f1e251a6dff92f0df,61036e5d606dd7586d939d19,2021-07-29_23h14.13.162,Simcolourproject_2stim_asymm_v5,2020.2.10,MacIntel,60,61025ae37ef11b136ea224fe,,,,,,,,,148,-36.51171875,-73.21484375,1,0,0,response5disk,,3,2.20703125,-2.76953125,1,0,0,rectangle,2.20703125,-2.76953125,1,0,0,2.20703125,-2.76953125,1,0,0,0,61,61,117,1,,,,,,,,
,,,,,,,,,,,,,FF,,,,,,,,1.8169,,,,,,,,,,,,,,,,,,,,,,6100d28f1e251a6dff92f0df,61036e5d606dd7586d939d19,2021-07-29_23h14.13.162,Simcolourproject_2stim_asymm_v5,2020.2.10,MacIntel,60,61025ae37ef11b136ea224fe,,,,,,,,,1581,69.19921875,-91.60546875,1,0,0,response3disk,,4,-2.72265625,4.140625,1,0,0,rectangle,-2.72265625,4.140625,1,0,0,-2.72265625,4.140625,1,0,0,0,62,62,91,1,,,,,,,,
,,,,,,,,,,,,,FF,,,,,,,,1.9337,,,,,,,,,,,,,,,,,,,,,,6100d28f1e251a6dff92f0df,61036e5d606dd7586d939d19,2021-07-29_23h14.13.162,Simcolourproject_2stim_asymm_v5,2020.2.10,MacIntel,60,61025ae37ef11b136ea224fe,,,,,,,,,2394,79.4140625,44.3671875,1,0,0,response1disk,,6,0.69140625,14.19921875,1,0,0,rectangle,0.69140625,14.19921875,1,0,0,0.69140625,14.19921875,1,0,0,0,63,63,139,1,,,,,,,,
,,,,,,,,,,,,,FF,,,,,,,,1.8489,,,,,,,,,,,,,,,,,,,,,,6100d28f1e251a6dff92f0df,61036e5d606dd7586d939d19,2021-07-29_23h14.13.162,Simcolourproject_2stim_asymm_v5,2020.2.10,MacIntel,60,61025ae37ef11b136ea224fe,,,,,,,,,1038,-40.16796875,-87.5078125,1,0,0,response5disk,,3,-13.9296875,0.60546875,1,0,0,rectangle,-13.9296875,0.60546875,1,0,0,-13.9296875,0.60546875,1,0,0,0,64,64,95,1,,,,,,,,
,,,,,,,,,,,,,FF,,,,,,,,2.0164,,,,,,,,,,,,,,,,,,,,,,6100d28f1e251a6dff92f0df,61036e5d606dd7586d939d19,2021-07-29_23h14.13.162,Simcolourproject_2stim_asymm_v5,2020.2.10,MacIntel,60,61025ae37ef11b136ea224fe,,,,,,,,,1270,52.87109375,-69.28125,1,0,0,response3disk,,4,22.65625,-17.484375,1,0,0,rectangle,-48.8984375,87.09375,1,0,0,-8.6875,4.8515625,1,0,0,0,65,65,31,1,,response7disk_3,TRUE,0,0,"[232,111,292,56,12,185,186,221,94,270,105,255,305,226,200,66,227,254,284,192]",1.7668,rectangle
,,,,,,,,,,,,,FF,,,,,,,,1.5995,,,,,,,,,,,,,,,,,,,,,,6100d28f1e251a6dff92f0df,61036e5d606dd7586d939d19,2021-07-29_23h14.13.162,Simcolourproject_2stim_asymm_v5,2020.2.10,MacIntel,60,61025ae37ef11b136ea224fe,,,,,,,,,3465,-36.23828125,-51.23046875,1,0,0,response5disk,,3,-16.2578125,-6.27734375,1,0,0,rectangle,-16.2578125,-6.27734375,1,0,0,-16.2578125,-6.27734375,1,0,0,0,66,66,140,1,,,,,,,,
,,,,,,,,,,,,,FF,,,,,,,,2.0502,,,,,,,,,,,,,,,,,,,,,,6100d28f1e251a6dff92f0df,61036e5d606dd7586d939d19,2021-07-29_23h14.13.162,Simcolourproject_2stim_asymm_v5,2020.2.10,MacIntel,60,61025ae37ef11b136ea224fe,,,,,,,,,2510,35.51953125,-65.71484375,1,0,0,response3disk,,4,13.2109375,-10.01953125,1,0,0,rectangle,13.2109375,-10.01953125,1,0,0,13.2109375,-10.01953125,1,0,0,0,67,67,83,1,,,,,,,,
,,,,,,,,,,,,,FF,,,,,,,,1.2005,,,,,,,,,,,,,,,,,,,,,,6100d28f1e251a6dff92f0df,61036e5d606dd7586d939d19,2021-07-29_23h14.13.162,Simcolourproject_2stim_asymm_v5,2020.2.10,MacIntel,60,61025ae37ef11b136ea224fe,,,,,,,,,2278,33.50390625,81.92578125,1,0,0,response1disk,,7,-8.00390625,-0.7421875,1,0,0,rectangle,-8.00390625,-0.7421875,1,0,0,-8.00390625,-0.7421875,1,0,0,0,68,68,79,1,,,,,,,,
,,,,,,,,,,,,,FF,,,,,,,,3.8662,,,,,,,,,,,,,,,,,,,,,,6100d28f1e251a6dff92f0df,61036e5d606dd7586d939d19,2021-07-29_23h14.13.162,Simcolourproject_2stim_asymm_v5,2020.2.10,MacIntel,60,61025ae37ef11b136ea224fe,,,,,,,,,928,48.859375,-69.65625,1,0,0,response3disk,,4,11.3359375,-6.67578125,1,0,0,rectangle,11.3359375,-6.67578125,1,0,0,11.3359375,-6.67578125,1,0,0,0,69,69,17,1,,,,,,,,
,,,,,,,,,,,,,FF,,,,,,,,4.5008,,,,,,,,,,,,,,,,,,,,,,6100d28f1e251a6dff92f0df,61036e5d606dd7586d939d19,2021-07-29_23h14.13.162,Simcolourproject_2stim_asymm_v5,2020.2.10,MacIntel,60,61025ae37ef11b136ea224fe,,,,,,,,,1679,-34.4140625,-91.33984375,1,0,0,response5disk,,3,3.4453125,15.671875,1,0,0,rectangle,3.4453125,15.671875,1,0,0,3.4453125,15.671875,1,0,0,0,70,70,8,1,,,,,,,,
,,,,,,,,,,,,,FF,,,,,,,,5.4656,,,,,,,,,,,,,,,,,,,,,,6100d28f1e251a6dff92f0df,61036e5d606dd7586d939d19,2021-07-29_23h14.13.162,Simcolourproject_2stim_asymm_v5,2020.2.10,MacIntel,60,61025ae37ef11b136ea224fe,,,,,,,,,3446,93.1953125,-56.4296875,1,0,0,response3disk,,5,7.84765625,-2.24609375,1,0,0,rectangle,7.84765625,-2.24609375,1,0,0,7.84765625,-2.24609375,1,0,0,0,71,71,3,1,,,,,,,,
,,,,,,,,,,,,,FF,,,,,,,,0.9837,,,,,,,,,,,,,,,,,,,,,,6100d28f1e251a6dff92f0df,61036e5d606dd7586d939d19,2021-07-29_23h14.13.162,Simcolourproject_2stim_asymm_v5,2020.2.10,MacIntel,60,61025ae37ef11b136ea224fe,,,,,,,,,1311,-21.609375,-85.49609375,1,0,0,response5disk,,3,-13.42578125,13.44921875,1,0,0,rectangle,-13.42578125,13.44921875,1,0,0,-13.42578125,13.44921875,1,0,0,0,72,72,39,1,,,,,,,,
,,,,,,,,,,,,,FF,,,,,,,,0.9835,,,,,,,,,,,,,,,,,,,,,,6100d28f1e251a6dff92f0df,61036e5d606dd7586d939d19,2021-07-29_23h14.13.162,Simcolourproject_2stim_asymm_v5,2020.2.10,MacIntel,60,61025ae37ef11b136ea224fe,,,,,,,,,3445,96.609375,-57.62109375,1,0,0,response3disk,,5,21.5625,-6.921875,1,0,0,rectangle,21.5625,-6.921875,1,0,0,21.5625,-6.921875,1,0,0,0,73,73,75,1,,,,,,,,
,,,,,,,,,,,,,FF,,,,,,,,2.167,,,,,,,,,,,,,,,,,,,,,,6100d28f1e251a6dff92f0df,61036e5d606dd7586d939d19,2021-07-29_23h14.13.162,Simcolourproject_2stim_asymm_v5,2020.2.10,MacIntel,60,61025ae37ef11b136ea224fe,,,,,,,,,1867,60.74609375,-54.13671875,1,0,0,response3disk,,5,4.62890625,0.0390625,1,0,0,rectangle,4.62890625,0.0390625,1,0,0,4.62890625,0.0390625,1,0,0,0,74,74,103,1,,,,,,,,
,,,,,,,,,,,,,FF,,,,,,,,1.1844,,,,,,,,,,,,,,,,,,,,,,6100d28f1e251a6dff92f0df,61036e5d606dd7586d939d19,2021-07-29_23h14.13.162,Simcolourproject_2stim_asymm_v5,2020.2.10,MacIntel,60,61025ae37ef11b136ea224fe,,,,,,,,,550,-81.35546875,-48.12890625,1,0,0,response5disk,,2,-12.828125,-1.43359375,1,0,0,rectangle,-12.828125,-1.43359375,1,0,0,-12.828125,-1.43359375,1,0,0,0,75,75,130,1,,,,,,,,
,,,,,,,,,,,,,FF,,,,,,,,3.7678,,,,,,,,,,,,,,,,,,,,,,6100d28f1e251a6dff92f0df,61036e5d606dd7586d939d19,2021-07-29_23h14.13.162,Simcolourproject_2stim_asymm_v5,2020.2.10,MacIntel,60,61025ae37ef11b136ea224fe,,,,,,,,,2258,96.78125,-35.05859375,1,0,0,response3disk,,5,3.42578125,-5.90625,1,0,0,rectangle,3.42578125,-5.90625,1,0,0,3.42578125,-5.90625,1,0,0,0,76,76,73,1,,,,,,,,
,,,,,,,,,,,,,FF,,,,,,,,1.6661,,,,,,,,,,,,,,,,,,,,,,6100d28f1e251a6dff92f0df,61036e5d606dd7586d939d19,2021-07-29_23h14.13.162,Simcolourproject_2stim_asymm_v5,2020.2.10,MacIntel,60,61025ae37ef11b136ea224fe,,,,,,,,,2735,-49.8828125,-60.8828125,1,0,0,response5disk,,3,-8.4765625,2.2890625,1,0,0,rectangle,-8.4765625,2.2890625,1,0,0,-8.4765625,2.2890625,1,0,0,0,77,77,153,1,,,,,,,,
,,,,,,,,,,,,,FF,,,,,,,,1.3677,,,,,,,,,,,,,,,,,,,,,,6100d28f1e251a6dff92f0df,61036e5d606dd7586d939d19,2021-07-29_23h14.13.162,Simcolourproject_2stim_asymm_v5,2020.2.10,MacIntel,60,61025ae37ef11b136ea224fe,,,,,,,,,2525,74.80078125,32.71875,1,0,0,response1disk,,6,10.2421875,6.15625,0,0,1,rectangle,10.2421875,6.15625,0,0,1,10.2421875,6.15625,0,0,1,0,78,78,127,1,,,,,,,,
,,,,,,,,,,,,,FF,,,,,,,,2.9342,,,,,,,,,,,,,,,,,,,,,,6100d28f1e251a6dff92f0df,61036e5d606dd7586d939d19,2021-07-29_23h14.13.162,Simcolourproject_2stim_asymm_v5,2020.2.10,MacIntel,60,61025ae37ef11b136ea224fe,,,,,,,,,2797,59.37890625,-22.35546875,1,0,1,response3disk,,5,3.45703125,-6.44140625,1,0,1,rectangle,3.45703125,-6.44140625,1,0,1,3.45703125,-6.44140625,1,0,1,0,79,79,142,1,,,,,,,,
,,,,,,,,,,,,,FF,,,,,,,,6.3169,,,,,,,,,,,,,,,,,,,,,,6100d28f1e251a6dff92f0df,61036e5d606dd7586d939d19,2021-07-29_23h14.13.162,Simcolourproject_2stim_asymm_v5,2020.2.10,MacIntel,60,61025ae37ef11b136ea224fe,,,,,,,,,1105,68.296875,-31.62109375,1,0,1,response3disk,,5,25.4765625,-11.765625,1,0,1,rectangle,25.4765625,-11.765625,1,0,1,25.4765625,-11.765625,1,0,1,0,80,80,57,1,,,,,,,,
,,,,,,,,,,,,,FF,,,,,,,,1.5166,,,,,,,,,,,,,,,,,,,,,,6100d28f1e251a6dff92f0df,61036e5d606dd7586d939d19,2021-07-29_23h14.13.162,Simcolourproject_2stim_asymm_v5,2020.2.10,MacIntel,60,61025ae37ef11b136ea224fe,,,,,,,,,1934,44.35546875,89.1171875,1,0,1,response1disk,,7,14.625,8.54296875,1,0,1,rectangle,14.625,8.54296875,1,0,1,14.625,8.54296875,1,0,1,0,81,81,2,1,,,,,,,,
,,,,,,,,,,,,,FF,,,,,,,,2.6173,,,,,,,,,,,,,,,,,,,,,,6100d28f1e251a6dff92f0df,61036e5d606dd7586d939d19,2021-07-29_23h14.13.162,Simcolourproject_2stim_asymm_v5,2020.2.10,MacIntel,60,61025ae37ef11b136ea224fe,,,,,,,,,3287,-46.3828125,-78.67578125,1,0,1,response5disk,,3,-18.48828125,-2.60546875,1,0,1,rectangle,-18.48828125,-2.60546875,1,0,1,-18.48828125,-2.60546875,1,0,1,0,82,82,67,1,,,,,,,,
,,,,,,,,,,,,,FF,,,,,,,,1.1657,,,,,,,,,,,,,,,,,,,,,,6100d28f1e251a6dff92f0df,61036e5d606dd7586d939d19,2021-07-29_23h14.13.162,Simcolourproject_2stim_asymm_v5,2020.2.10,MacIntel,60,61025ae37ef11b136ea224fe,,,,,,,,,1267,-33.4921875,-94.20703125,1,0,1,response5disk,,3,0.1640625,9.6953125,1,0,1,rectangle,0.1640625,9.6953125,1,0,1,0.1640625,9.6953125,1,0,1,0,83,83,23,1,,,,,,,,
,,,,,,,,,,,,,FF,,,,,,,,2.2179,,,,,,,,,,,,,,,,,,,,,,6100d28f1e251a6dff92f0df,61036e5d606dd7586d939d19,2021-07-29_23h14.13.162,Simcolourproject_2stim_asymm_v5,2020.2.10,MacIntel,60,61025ae37ef11b136ea224fe,,,,,,,,,3525,93.62890625,-49.69140625,1,0,1,response3disk,,5,1.49609375,-1.5,1,0,1,rectangle,1.49609375,-1.5,1,0,1,1.49609375,-1.5,1,0,1,0,84,84,52,1,,,,,,,,
,,,,,,,,,,,,,FF,,,,,,,,1.05,,,,,,,,,,,,,,,,,,,,,,6100d28f1e251a6dff92f0df,61036e5d606dd7586d939d19,2021-07-29_23h14.13.162,Simcolourproject_2stim_asymm_v5,2020.2.10,MacIntel,60,61025ae37ef11b136ea224fe,,,,,,,,,3041,-57.91015625,-109.8203125,1,0,1,response5disk,,3,-4.671875,1.734375,1,0,1,rectangle,-4.671875,1.734375,1,0,1,-4.671875,1.734375,1,0,1,0,85,85,25,1,,,,,,,,
,,,,,,,,,,,,,FF,,,,,,,,1.0337,,,,,,,,,,,,,,,,,,,,,,6100d28f1e251a6dff92f0df,61036e5d606dd7586d939d19,2021-07-29_23h14.13.162,Simcolourproject_2stim_asymm_v5,2020.2.10,MacIntel,60,61025ae37ef11b136ea224fe,,,,,,,,,3106,-94.16796875,-47.41015625,1,0,1,response5disk,,2,-12.92578125,0.12890625,1,0,1,rectangle,-12.92578125,0.12890625,1,0,1,-12.92578125,0.12890625,1,0,1,0,86,86,116,1,,,,,,,,
,,,,,,,,,,,,,FF,,,,,,,,1.1848,,,,,,,,,,,,,,,,,,,,,,6100d28f1e251a6dff92f0df,61036e5d606dd7586d939d19,2021-07-29_23h14.13.162,Simcolourproject_2stim_asymm_v5,2020.2.10,MacIntel,60,61025ae37ef11b136ea224fe,,,,,,,,,821,-43.15625,-88.109375,1,0,1,response5disk,,3,-20.11328125,5.41796875,1,0,1,rectangle,-20.11328125,5.41796875,1,0,1,-20.11328125,5.41796875,1,0,1,0,87,87,111,1,,,,,,,,
,,,,,,,,,,,,,FF,,,,,,,,1.6497,,,,,,,,,,,,,,,,,,,,,,6100d28f1e251a6dff92f0df,61036e5d606dd7586d939d19,2021-07-29_23h14.13.162,Simcolourproject_2stim_asymm_v5,2020.2.10,MacIntel,60,61025ae37ef11b136ea224fe,,,,,,,,,413,45.2734375,57.15625,1,0,1,response1disk,,7,5.1875,-5.140625,1,0,1,rectangle,5.1875,-5.140625,1,0,1,5.1875,-5.140625,1,0,1,0,88,88,77,1,,,,,,,,
,,,,,,,,,,,,,FF,,,,,,,,1.0164,,,,,,,,,,,,,,,,,,,,,,6100d28f1e251a6dff92f0df,61036e5d606dd7586d939d19,2021-07-29_23h14.13.162,Simcolourproject_2stim_asymm_v5,2020.2.10,MacIntel,60,61025ae37ef11b136ea224fe,,,,,,,,,3319,30.1484375,50.74609375,1,0,1,response1disk,,7,11.1328125,0.39453125,1,0,1,rectangle,11.1328125,0.39453125,1,0,1,11.1328125,0.39453125,1,0,1,0,89,89,145,1,,,,,,,,
,,,,,,,,,,,,,FF,,,,,,,,1.1659,,,,,,,,,,,,,,,,,,,,,,6100d28f1e251a6dff92f0df,61036e5d606dd7586d939d19,2021-07-29_23h14.13.162,Simcolourproject_2stim_asymm_v5,2020.2.10,MacIntel,60,61025ae37ef11b136ea224fe,,,,,,,,,3140,-46.01171875,-80.328125,1,0,1,response5disk,,3,2.21484375,9.03125,1,0,1,rectangle,2.21484375,9.03125,1,0,1,2.21484375,9.03125,1,0,1,0,90,90,152,1,,,,,,,,
,,,,,,,,,,,,,FF,,,,,,,,1.1988,,,,,,,,,,,,,,,,,,,,,,6100d28f1e251a6dff92f0df,61036e5d606dd7586d939d19,2021-07-29_23h14.13.162,Simcolourproject_2stim_asymm_v5,2020.2.10,MacIntel,60,61025ae37ef11b136ea224fe,,,,,,,,,3821,-51.2734375,-98.19140625,1,0,1,response5disk,,3,13.0546875,8.9375,1,0,1,rectangle,13.0546875,8.9375,1,0,1,13.0546875,8.9375,1,0,1,0,91,91,48,1,,,,,,,,
,,,,,,,,,,,,,FF,,,,,,,,3.8339,,,,,,,,,,,,,,,,,,,,,,6100d28f1e251a6dff92f0df,61036e5d606dd7586d939d19,2021-07-29_23h14.13.162,Simcolourproject_2stim_asymm_v5,2020.2.10,MacIntel,60,61025ae37ef11b136ea224fe,,,,,,,,,1702,73.66015625,-28.34375,1,0,1,response3disk,,5,-5.5,0.95703125,1,0,1,rectangle,-5.5,0.95703125,1,0,1,-5.5,0.95703125,1,0,1,0,92,92,4,1,,,,,,,,
,,,,,,,,,,,,,FF,,,,,,,,1.1149,,,,,,,,,,,,,,,,,,,,,,6100d28f1e251a6dff92f0df,61036e5d606dd7586d939d19,2021-07-29_23h14.13.162,Simcolourproject_2stim_asymm_v5,2020.2.10,MacIntel,60,61025ae37ef11b136ea224fe,,,,,,,,,3473,-74.171875,-42.8359375,1,0,1,response5disk,,2,4.26171875,3.70703125,1,0,1,rectangle,-51.30859375,-33.2734375,1,0,1,9.80859375,2.49609375,1,0,1,0,93,93,65,1,,response5disk_3,TRUE,2,2,"[232,111,292,56,12,185,186,221,94,270,105,255,305,226,200,66,227,254,284,192]",2.6491,rectangle
,,,,,,,,,,,,,FF,,,,,,,,1.9507,,,,,,,,,,,,,,,,,,,,,,6100d28f1e251a6dff92f0df,61036e5d606dd7586d939d19,2021-07-29_23h14.13.162,Simcolourproject_2stim_asymm_v5,2020.2.10,MacIntel,60,61025ae37ef11b136ea224fe,,,,,,,,,853,30.0703125,74.7734375,1,0,1,response1disk,,7,19.15234375,-10.859375,1,0,1,rectangle,19.15234375,-10.859375,1,0,1,19.15234375,-10.859375,1,0,1,0,94,94,56,1,,,,,,,,
,,,,,,,,,,,,,FF,,,,,,,,3.0667,,,,,,,,,,,,,,,,,,,,,,6100d28f1e251a6dff92f0df,61036e5d606dd7586d939d19,2021-07-29_23h14.13.162,Simcolourproject_2stim_asymm_v5,2020.2.10,MacIntel,60,61025ae37ef11b136ea224fe,,,,,,,,,3507,-49.8203125,-67.3203125,1,0,1,response5disk,,3,-14.99609375,-4.73828125,1,0,1,rectangle,-14.99609375,-4.73828125,1,0,1,-14.99609375,-4.73828125,1,0,1,0,95,95,136,1,,,,,,,,
,,,,,,,,,,,,,FF,,,,,,,,0.7999,,,,,,,,,,,,,,,,,,,,,,6100d28f1e251a6dff92f0df,61036e5d606dd7586d939d19,2021-07-29_23h14.13.162,Simcolourproject_2stim_asymm_v5,2020.2.10,MacIntel,60,61025ae37ef11b136ea224fe,,,,,,,,,3677,-26.84765625,-23.82421875,1,0,1,response5disk,,2,-23.53515625,-7.71484375,1,0,1,rectangle,-23.53515625,-7.71484375,1,0,1,-23.53515625,-7.71484375,1,0,1,0,96,96,28,1,,,,,,,,
,,,,,,,,,,,,,FF,,,,,,,,0.9165,,,,,,,,,,,,,,,,,,,,,,6100d28f1e251a6dff92f0df,61036e5d606dd7586d939d19,2021-07-29_23h14.13.162,Simcolourproject_2stim_asymm_v5,2020.2.10,MacIntel,60,61025ae37ef11b136ea224fe,,,,,,,,,351,-90.90234375,-55.76171875,1,0,1,response5disk,,2,-21.27734375,1.1015625,1,0,1,rectangle,-21.27734375,1.1015625,1,0,1,-21.27734375,1.1015625,1,0,1,0,97,97,19,1,,,,,,,,
,,,,,,,,,,,,,FF,,,,,,,,0.9002,,,,,,,,,,,,,,,,,,,,,,6100d28f1e251a6dff92f0df,61036e5d606dd7586d939d19,2021-07-29_23h14.13.162,Simcolourproject_2stim_asymm_v5,2020.2.10,MacIntel,60,61025ae37ef11b136ea224fe,,,,,,,,,246,-33.1953125,-54.21875,1,0,1,response5disk,,3,-22.8125,13.0859375,1,0,1,rectangle,-22.8125,13.0859375,1,0,1,-22.8125,13.0859375,1,0,1,0,98,98,146,1,,,,,,,,
,,,,,,,,,,,,,FF,,,,,,,,0.7163,,,,,,,,,,,,,,,,,,,,,,6100d28f1e251a6dff92f0df,61036e5d606dd7586d939d19,2021-07-29_23h14.13.162,Simcolourproject_2stim_asymm_v5,2020.2.10,MacIntel,60,61025ae37ef11b136ea224fe,,,,,,,,,1060,-23.69140625,-25.2578125,1,0,1,response5disk,,3,-18.30859375,-0.2265625,1,0,1,rectangle,-18.30859375,-0.2265625,1,0,1,-18.30859375,-0.2265625,1,0,1,0,99,99,63,1,,,,,,,,
,,,,,,,,,,,,,FF,,,,,,,,1.2832,,,,,,,,,,,,,,,,,,,,,,6100d28f1e251a6dff92f0df,61036e5d606dd7586d939d19,2021-07-29_23h14.13.162,Simcolourproject_2stim_asymm_v5,2020.2.10,MacIntel,60,61025ae37ef11b136ea224fe,,,,,,,,,3730,26.53125,-69.84765625,1,0,1,response3disk,,4,-17.109375,-1.76171875,1,0,1,rectangle,-17.109375,-1.76171875,1,0,1,-17.109375,-1.76171875,1,0,1,0,100,100,135,1,,,,,,,,
,,,,,,,,,,,,,FF,,,,,,,,4.55,,,,,,,,,,,,,,,,,,,,,,6100d28f1e251a6dff92f0df,61036e5d606dd7586d939d19,2021-07-29_23h14.13.162,Simcolourproject_2stim_asymm_v5,2020.2.10,MacIntel,60,61025ae37ef11b136ea224fe,,,,,,,,,4243,70.375,-39.38671875,1,0,1,response3disk,,5,3.97265625,1.171875,1,0,1,rectangle,3.97265625,1.171875,1,0,1,3.97265625,1.171875,1,0,1,0,101,101,22,1,,,,,,,,
,,,,,,,,,,,,,FF,,,,,,,,2.2817,,,,,,,,,,,,,,,,,,,,,,6100d28f1e251a6dff92f0df,61036e5d606dd7586d939d19,2021-07-29_23h14.13.162,Simcolourproject_2stim_asymm_v5,2020.2.10,MacIntel,60,61025ae37ef11b136ea224fe,,,,,,,,,3722,-39.42578125,-71.37109375,1,0,1,response5disk,,3,-14.53125,3.4140625,1,0,1,rectangle,-14.53125,3.4140625,1,0,1,-14.53125,3.4140625,1,0,1,0,102,102,158,1,,,,,,,,
,,,,,,,,,,,,,FF,,,,,,,,2.0501,,,,,,,,,,,,,,,,,,,,,,6100d28f1e251a6dff92f0df,61036e5d606dd7586d939d19,2021-07-29_23h14.13.162,Simcolourproject_2stim_asymm_v5,2020.2.10,MacIntel,60,61025ae37ef11b136ea224fe,,,,,,,,,2477,20.41015625,-70.8984375,1,0,1,response3disk,,4,4.265625,8.22265625,1,0,1,rectangle,4.265625,8.22265625,1,0,1,4.265625,8.22265625,1,0,1,0,103,103,32,1,,,,,,,,
,,,,,,,,,,,,,FF,,,,,,,,1.799,,,,,,,,,,,,,,,,,,,,,,6100d28f1e251a6dff92f0df,61036e5d606dd7586d939d19,2021-07-29_23h14.13.162,Simcolourproject_2stim_asymm_v5,2020.2.10,MacIntel,60,61025ae37ef11b136ea224fe,,,,,,,,,2555,-48.578125,-68.20703125,1,0,1,response5disk,,3,-4.69921875,-2.16015625,1,0,1,rectangle,43.66015625,109.2539063,1,0,1,-6.46484375,-6.52734375,1,0,1,0,104,104,107,1,,response1disk_3,TRUE,7,7,"[232,111,292,56,12,185,186,221,94,270,105,255,305,226,200,66,227,254,284,192]",1.3669,rectangle
,,,,,,,,,,,,,FF,,,,,,,,1.8835,,,,,,,,,,,,,,,,,,,,,,6100d28f1e251a6dff92f0df,61036e5d606dd7586d939d19,2021-07-29_23h14.13.162,Simcolourproject_2stim_asymm_v5,2020.2.10,MacIntel,60,61025ae37ef11b136ea224fe,,,,,,,,,3310,30.8203125,-72.625,1,0,1,response3disk,,4,-5.1328125,-2.60546875,1,0,1,rectangle,-5.1328125,-2.60546875,1,0,1,-5.1328125,-2.60546875,1,0,1,0,105,105,7,1,,,,,,,,
,,,,,,,,,,,,,FF,,,,,,,,1.4661,,,,,,,,,,,,,,,,,,,,,,6100d28f1e251a6dff92f0df,61036e5d606dd7586d939d19,2021-07-29_23h14.13.162,Simcolourproject_2stim_asymm_v5,2020.2.10,MacIntel,60,61025ae37ef11b136ea224fe,,,,,,,,,1722,57.41015625,40.00390625,1,0,1,response1disk,,6,12.96875,8.12109375,1,0,1,rectangle,12.96875,8.12109375,1,0,1,12.96875,8.12109375,1,0,1,0,106,106,41,1,,,,,,,,
,,,,,,,,,,,,,FF,,,,,,,,1.5176,,,,,,,,,,,,,,,,,,,,,,6100d28f1e251a6dff92f0df,61036e5d606dd7586d939d19,2021-07-29_23h14.13.162,Simcolourproject_2stim_asymm_v5,2020.2.10,MacIntel,60,61025ae37ef11b136ea224fe,,,,,,,,,3528,67.01171875,59.3125,1,0,1,response1disk,,6,10.04296875,16.4296875,1,0,1,rectangle,10.04296875,16.4296875,1,0,1,10.04296875,16.4296875,1,0,1,0,107,107,132,1,,,,,,,,
,,,,,,,,,,,,,FF,,,,,,,,1.7161,,,,,,,,,,,,,,,,,,,,,,6100d28f1e251a6dff92f0df,61036e5d606dd7586d939d19,2021-07-29_23h14.13.162,Simcolourproject_2stim_asymm_v5,2020.2.10,MacIntel,60,61025ae37ef11b136ea224fe,,,,,,,,,71,43.32421875,-78.015625,1,0,1,response3disk,,4,5.5546875,2.35546875,1,0,1,rectangle,5.5546875,2.35546875,1,0,1,5.5546875,2.35546875,1,0,1,0,108,108,154,1,,,,,,,,
,,,,,,,,,,,,,FF,,,,,,,,1.3662,,,,,,,,,,,,,,,,,,,,,,6100d28f1e251a6dff92f0df,61036e5d606dd7586d939d19,2021-07-29_23h14.13.162,Simcolourproject_2stim_asymm_v5,2020.2.10,MacIntel,60,61025ae37ef11b136ea224fe,,,,,,,,,3820,61.62890625,-107.3867188,1,0,1,response3disk,,4,1.19921875,-10.4609375,1,0,1,rectangle,1.19921875,-10.4609375,1,0,1,1.19921875,-10.4609375,1,0,1,0,109,109,33,1,,,,,,,,
,,,,,,,,,,,,,FF,,,,,,,,3.5676,,,,,,,,,,,,,,,,,,,,,,6100d28f1e251a6dff92f0df,61036e5d606dd7586d939d19,2021-07-29_23h14.13.162,Simcolourproject_2stim_asymm_v5,2020.2.10,MacIntel,60,61025ae37ef11b136ea224fe,,,,,,,,,963,94.4609375,-25.87109375,1,0,1,response3disk,,5,15.5546875,-3.64453125,1,0,1,rectangle,-51.33984375,-84.46484375,1,0,1,-13.12109375,2.15234375,1,0,1,0,110,110,129,1,,response5disk_3,TRUE,3,3,"[232,111,292,56,12,185,186,221,94,270,105,255,305,226,200,66,227,254,284,192]",1.7333,rectangle
,,,,,,,,,,,,,FF,,,,,,,,1.6003,,,,,,,,,,,,,,,,,,,,,,6100d28f1e251a6dff92f0df,61036e5d606dd7586d939d19,2021-07-29_23h14.13.162,Simcolourproject_2stim_asymm_v5,2020.2.10,MacIntel,60,61025ae37ef11b136ea224fe,,,,,,,,,3360,47.7578125,46.1171875,1,0,1,response1disk,,6,13.75,14.73046875,1,0,1,rectangle,13.75,14.73046875,1,0,1,13.75,14.73046875,1,0,1,0,111,111,40,1,,,,,,,,
,,,,,,,,,,,,,FF,,,,,,,,2.3173,,,,,,,,,,,,,,,,,,,,,,6100d28f1e251a6dff92f0df,61036e5d606dd7586d939d19,2021-07-29_23h14.13.162,Simcolourproject_2stim_asymm_v5,2020.2.10,MacIntel,60,61025ae37ef11b136ea224fe,,,,,,,,,790,26.34765625,-87.52734375,1,0,1,response3disk,,4,5.859375,-5.37109375,1,0,1,rectangle,5.859375,-5.37109375,1,0,1,5.859375,-5.37109375,1,0,1,0,112,112,156,1,,,,,,,,
,,,,,,,,,,,,,FF,,,,,,,,1.0179,,,,,,,,,,,,,,,,,,,,,,6100d28f1e251a6dff92f0df,61036e5d606dd7586d939d19,2021-07-29_23h14.13.162,Simcolourproject_2stim_asymm_v5,2020.2.10,MacIntel,60,61025ae37ef11b136ea224fe,,,,,,,,,3432,-69.3125,-24.90234375,1,0,1,response5disk,,2,-0.41796875,-9.91796875,1,0,1,rectangle,-0.41796875,-9.91796875,1,0,1,-0.41796875,-9.91796875,1,0,1,0,113,113,84,1,,,,,,,,
,,,,,,,,,,,,,FF,,,,,,,,0.9335,,,,,,,,,,,,,,,,,,,,,,6100d28f1e251a6dff92f0df,61036e5d606dd7586d939d19,2021-07-29_23h14.13.162,Simcolourproject_2stim_asymm_v5,2020.2.10,MacIntel,60,61025ae37ef11b136ea224fe,,,,,,,,,253,-80.72265625,-41.61328125,1,0,1,response5disk,,2,-15.1328125,-9.1875,1,0,1,rectangle,-15.1328125,-9.1875,1,0,1,-15.1328125,-9.1875,1,0,1,0,114,114,89,1,,,,,,,,
,,,,,,,,,,,,,FF,,,,,,,,2.1168,,,,,,,,,,,,,,,,,,,,,,6100d28f1e251a6dff92f0df,61036e5d606dd7586d939d19,2021-07-29_23h14.13.162,Simcolourproject_2stim_asymm_v5,2020.2.10,MacIntel,60,61025ae37ef11b136ea224fe,,,,,,,,,1558,62.69921875,-54.5546875,1,0,1,response3disk,,5,-6.0703125,7.29296875,1,0,1,rectangle,-6.0703125,7.29296875,1,0,1,-6.0703125,7.29296875,1,0,1,0,115,115,87,1,,,,,,,,
,,,,,,,,,,,,,FF,,,,,,,,1.184,,,,,,,,,,,,,,,,,,,,,,6100d28f1e251a6dff92f0df,61036e5d606dd7586d939d19,2021-07-29_23h14.13.162,Simcolourproject_2stim_asymm_v5,2020.2.10,MacIntel,60,61025ae37ef11b136ea224fe,,,,,,,,,4013,57.2578125,34.30859375,1,0,1,response1disk,,6,22.49609375,9.0625,1,0,1,rectangle,22.49609375,9.0625,1,0,1,22.49609375,9.0625,1,0,1,0,116,116,113,1,,,,,,,,
,,,,,,,,,,,,,FF,,,,,,,,2.1177,,,,,,,,,,,,,,,,,,,,,,6100d28f1e251a6dff92f0df,61036e5d606dd7586d939d19,2021-07-29_23h14.13.162,Simcolourproject_2stim_asymm_v5,2020.2.10,MacIntel,60,61025ae37ef11b136ea224fe,,,,,,,,,1525,-29.9609375,-80.46875,1,0,1,response5disk,,3,4.14453125,7.28125,1,0,1,rectangle,4.14453125,7.28125,1,0,1,4.14453125,7.28125,1,0,1,0,117,117,119,1,,,,,,,,
,,,,,,,,,,,,,FF,,,,,,,,0.9503,,,,,,,,,,,,,,,,,,,,,,6100d28f1e251a6dff92f0df,61036e5d606dd7586d939d19,2021-07-29_23h14.13.162,Simcolourproject_2stim_asymm_v5,2020.2.10,MacIntel,60,61025ae37ef11b136ea224fe,,,,,,,,,3396,-35.25390625,-57.30078125,1,0,1,response5disk,,3,-13.62890625,15.46484375,1,0,1,rectangle,-13.62890625,15.46484375,1,0,1,-13.62890625,15.46484375,1,0,1,0,118,118,71,1,,,,,,,,
,,,,,,,,,,,,,FF,,,,,,,,2.4999,,,,,,,,,,,,,,,,,,,,,,6100d28f1e251a6dff92f0df,61036e5d606dd7586d939d19,2021-07-29_23h14.13.162,Simcolourproject_2stim_asymm_v5,2020.2.10,MacIntel,60,61025ae37ef11b136ea224fe,,,,,,,,,944,67.3515625,-53.51953125,1,0,1,response3disk,,5,1.48046875,-10.94921875,1,0,1,rectangle,1.48046875,-10.94921875,1,0,1,1.48046875,-10.94921875,1,0,1,0,119,119,105,1,,,,,,,,
,,,,,,,,,,,,,FF,,,,,,,,1.2996,,,,,,,,,,,,,,,,,,,,,,6100d28f1e251a6dff92f0df,61036e5d606dd7586d939d19,2021-07-29_23h14.13.162,Simcolourproject_2stim_asymm_v5,2020.2.10,MacIntel,60,61025ae37ef11b136ea224fe,,,,,,,,,2684,68.71484375,-35.97265625,1,0,1,response3disk,,5,26.859375,-14.9140625,1,0,1,rectangle,26.859375,-14.9140625,1,0,1,26.859375,-14.9140625,1,0,1,0,120,120,109,1,,,,,,,,
,,,,,,,,,,,,,FF,,,,,,,,1.7831,,,,,,,,,,,,,,,,,,,,,,6100d28f1e251a6dff92f0df,61036e5d606dd7586d939d19,2021-07-29_23h14.13.162,Simcolourproject_2stim_asymm_v5,2020.2.10,MacIntel,60,61025ae37ef11b136ea224fe,,,,,,,,,295,72.7421875,38.921875,1,0,1,response1disk,,6,-1.82421875,1.875,1,0,1,rectangle,-1.82421875,1.875,1,0,1,-1.82421875,1.875,1,0,1,0,121,121,54,1,,,,,,,,
,,,,,,,,,,,,,FF,,,,,,,,3.3835,,,,,,,,,,,,,,,,,,,,,,6100d28f1e251a6dff92f0df,61036e5d606dd7586d939d19,2021-07-29_23h14.13.162,Simcolourproject_2stim_asymm_v5,2020.2.10,MacIntel,60,61025ae37ef11b136ea224fe,,,,,,,,,1711,96.234375,70.70703125,1,0,1,response1disk,,6,14.40234375,8.73828125,1,0,1,rectangle,14.40234375,8.73828125,1,0,1,14.40234375,8.73828125,1,0,1,0,122,122,100,1,,,,,,,,
,,,,,,,,,,,,,FF,,,,,,,,1.7831,,,,,,,,,,,,,,,,,,,,,,6100d28f1e251a6dff92f0df,61036e5d606dd7586d939d19,2021-07-29_23h14.13.162,Simcolourproject_2stim_asymm_v5,2020.2.10,MacIntel,60,61025ae37ef11b136ea224fe,,,,,,,,,2126,85.05078125,-43.71484375,1,0,1,response3disk,,5,-22.39453125,7.578125,1,0,1,rectangle,-22.39453125,7.578125,1,0,1,-22.39453125,7.578125,1,0,1,0,123,123,47,1,,,,,,,,
,,,,,,,,,,,,,FF,,,,,,,,4.2842,,,,,,,,,,,,,,,,,,,,,,6100d28f1e251a6dff92f0df,61036e5d606dd7586d939d19,2021-07-29_23h14.13.162,Simcolourproject_2stim_asymm_v5,2020.2.10,MacIntel,60,61025ae37ef11b136ea224fe,,,,,,,,,3080,55.84375,32.69140625,1,0,1,response1disk,,6,-13.31640625,-3.609375,1,0,1,rectangle,-13.31640625,-3.609375,1,0,1,-13.31640625,-3.609375,1,0,1,0,124,124,138,1,,,,,,,,
,,,,,,,,,,,,,FF,,,,,,,,1.0334,,,,,,,,,,,,,,,,,,,,,,6100d28f1e251a6dff92f0df,61036e5d606dd7586d939d19,2021-07-29_23h14.13.162,Simcolourproject_2stim_asymm_v5,2020.2.10,MacIntel,60,61025ae37ef11b136ea224fe,,,,,,,,,702,-47.21484375,-15.2265625,1,0,1,response5disk,,2,5.83984375,-3.30078125,1,0,1,rectangle,5.83984375,-3.30078125,1,0,1,5.83984375,-3.30078125,1,0,1,0,125,125,80,1,,,,,,,,
,,,,,,,,,,,,,FF,,,,,,,,0.9667,,,,,,,,,,,,,,,,,,,,,,6100d28f1e251a6dff92f0df,61036e5d606dd7586d939d19,2021-07-29_23h14.13.162,Simcolourproject_2stim_asymm_v5,2020.2.10,MacIntel,60,61025ae37ef11b136ea224fe,,,,,,,,,4181,-33.03125,38.578125,1,0,1,response7disk,,0,0.765625,-8.16015625,1,0,1,rectangle,0.765625,-8.16015625,1,0,1,0.765625,-8.16015625,1,0,1,0,126,126,13,1,,,,,,,,
,,,,,,,,,,,,,FF,,,,,,,,1.5675,,,,,,,,,,,,,,,,,,,,,,6100d28f1e251a6dff92f0df,61036e5d606dd7586d939d19,2021-07-29_23h14.13.162,Simcolourproject_2stim_asymm_v5,2020.2.10,MacIntel,60,61025ae37ef11b136ea224fe,,,,,,,,,4244,65.76953125,30.859375,1,0,1,response1disk,,6,5.12890625,7.06640625,1,0,1,rectangle,5.12890625,7.06640625,1,0,1,5.12890625,7.06640625,1,0,1,0,127,127,123,1,,,,,,,,
,,,,,,,,,,,,,FF,,,,,,,,0.9997,,,,,,,,,,,,,,,,,,,,,,6100d28f1e251a6dff92f0df,61036e5d606dd7586d939d19,2021-07-29_23h14.13.162,Simcolourproject_2stim_asymm_v5,2020.2.10,MacIntel,60,61025ae37ef11b136ea224fe,,,,,,,,,1284,81.26171875,-63.43359375,1,0,1,response3disk,,5,13.59765625,0.484375,1,0,1,rectangle,13.59765625,0.484375,1,0,1,13.59765625,0.484375,1,0,1,0,128,128,16,1,,,,,,,,
,,,,,,,,,,,,,FF,,,,,,,,1.7164,,,,,,,,,,,,,,,,,,,,,,6100d28f1e251a6dff92f0df,61036e5d606dd7586d939d19,2021-07-29_23h14.13.162,Simcolourproject_2stim_asymm_v5,2020.2.10,MacIntel,60,61025ae37ef11b136ea224fe,,,,,,,,,1952,34.7734375,-75.7265625,1,0,1,response3disk,,4,0.88671875,11.296875,1,0,1,rectangle,0.88671875,11.296875,1,0,1,0.88671875,11.296875,1,0,1,0,129,129,137,1,,,,,,,,
,,,,,,,,,,,,,FF,,,,,,,,1.0006,,,,,,,,,,,,,,,,,,,,,,6100d28f1e251a6dff92f0df,61036e5d606dd7586d939d19,2021-07-29_23h14.13.162,Simcolourproject_2stim_asymm_v5,2020.2.10,MacIntel,60,61025ae37ef11b136ea224fe,,,,,,,,,722,-70.4609375,-44.859375,1,0,1,response5disk,,2,-13.109375,7.1796875,1,0,1,rectangle,-13.109375,7.1796875,1,0,1,-13.109375,7.1796875,1,0,1,0,130,130,10,1,,,,,,,,
,,,,,,,,,,,,,FF,,,,,,,,1.3661,,,,,,,,,,,,,,,,,,,,,,6100d28f1e251a6dff92f0df,61036e5d606dd7586d939d19,2021-07-29_23h14.13.162,Simcolourproject_2stim_asymm_v5,2020.2.10,MacIntel,60,61025ae37ef11b136ea224fe,,,,,,,,,4006,-33.29296875,-77.40625,1,0,1,response5disk,,3,1.29296875,-0.30078125,1,0,1,rectangle,1.29296875,-0.30078125,1,0,1,1.29296875,-0.30078125,1,0,1,0,131,131,131,1,,,,,,,,
,,,,,,,,,,,,,FF,,,,,,,,0.8508,,,,,,,,,,,,,,,,,,,,,,6100d28f1e251a6dff92f0df,61036e5d606dd7586d939d19,2021-07-29_23h14.13.162,Simcolourproject_2stim_asymm_v5,2020.2.10,MacIntel,60,61025ae37ef11b136ea224fe,,,,,,,,,3013,-42.75390625,-64.16015625,1,0,1,response5disk,,3,-14.4765625,-9.13671875,1,0,1,rectangle,-14.4765625,-9.13671875,1,0,1,-14.4765625,-9.13671875,1,0,1,0,132,132,150,1,,,,,,,,
,,,,,,,,,,,,,FF,,,,,,,,1.0659,,,,,,,,,,,,,,,,,,,,,,6100d28f1e251a6dff92f0df,61036e5d606dd7586d939d19,2021-07-29_23h14.13.162,Simcolourproject_2stim_asymm_v5,2020.2.10,MacIntel,60,61025ae37ef11b136ea224fe,,,,,,,,,335,37.8515625,72.76953125,1,0,1,response1disk,,7,4.72265625,-1.4140625,1,0,1,rectangle,4.72265625,-1.4140625,1,0,1,4.72265625,-1.4140625,1,0,1,0,133,133,30,1,,,,,,,,
,,,,,,,,,,,,,FF,,,,,,,,0.8169,,,,,,,,,,,,,,,,,,,,,,6100d28f1e251a6dff92f0df,61036e5d606dd7586d939d19,2021-07-29_23h14.13.162,Simcolourproject_2stim_asymm_v5,2020.2.10,MacIntel,60,61025ae37ef11b136ea224fe,,,,,,,,,931,40.0390625,65.58203125,1,0,1,response1disk,,7,12.5078125,-2.5859375,1,0,1,rectangle,12.5078125,-2.5859375,1,0,1,12.5078125,-2.5859375,1,0,1,0,134,134,120,1,,,,,,,,
,,,,,,,,,,,,,FF,,,,,,,,1.5659,,,,,,,,,,,,,,,,,,,,,,6100d28f1e251a6dff92f0df,61036e5d606dd7586d939d19,2021-07-29_23h14.13.162,Simcolourproject_2stim_asymm_v5,2020.2.10,MacIntel,60,61025ae37ef11b136ea224fe,,,,,,,,,731,-61.80859375,-31.7890625,1,0,1,response5disk,,2,-0.359375,-3.89453125,1,0,1,rectangle,-0.359375,-3.89453125,1,0,1,-0.359375,-3.89453125,1,0,1,0,135,135,108,1,,,,,,,,
,,,,,,,,,,,,,FF,,,,,,,,0.9332,,,,,,,,,,,,,,,,,,,,,,6100d28f1e251a6dff92f0df,61036e5d606dd7586d939d19,2021-07-29_23h14.13.162,Simcolourproject_2stim_asymm_v5,2020.2.10,MacIntel,60,61025ae37ef11b136ea224fe,,,,,,,,,266,-70.6171875,-42.15234375,1,0,1,response5disk,,2,10.125,12.83984375,1,0,1,rectangle,10.125,12.83984375,1,0,1,10.125,12.83984375,1,0,1,0,136,136,157,1,,,,,,,,
,,,,,,,,,,,,,FF,,,,,,,,0.7829,,,,,,,,,,,,,,,,,,,,,,6100d28f1e251a6dff92f0df,61036e5d606dd7586d939d19,2021-07-29_23h14.13.162,Simcolourproject_2stim_asymm_v5,2020.2.10,MacIntel,60,61025ae37ef11b136ea224fe,,,,,,,,,3920,-58.62890625,-30.890625,1,0,1,response5disk,,2,5.29296875,-4.47265625,1,0,1,rectangle,5.29296875,-4.47265625,1,0,1,5.29296875,-4.47265625,1,0,1,0,137,137,144,1,,,,,,,,
,,,,,,,,,,,,,FF,,,,,,,,5.55,,,,,,,,,,,,,,,,,,,,,,6100d28f1e251a6dff92f0df,61036e5d606dd7586d939d19,2021-07-29_23h14.13.162,Simcolourproject_2stim_asymm_v5,2020.2.10,MacIntel,60,61025ae37ef11b136ea224fe,,,,,,,,,2464,36.9375,-71.6796875,1,0,1,response3disk,,4,-4.76171875,2.05078125,1,0,1,rectangle,-4.76171875,2.05078125,1,0,1,-4.76171875,2.05078125,1,0,1,0,138,138,155,1,,,,,,,,
,,,,,,,,,,,,,FF,,,,,,,,2.8506,,,,,,,,,,,,,,,,,,,,,,6100d28f1e251a6dff92f0df,61036e5d606dd7586d939d19,2021-07-29_23h14.13.162,Simcolourproject_2stim_asymm_v5,2020.2.10,MacIntel,60,61025ae37ef11b136ea224fe,,,,,,,,,1053,-63.28515625,-39.59765625,1,0,1,response5disk,,2,2.60546875,0.26171875,1,0,1,rectangle,2.60546875,0.26171875,1,0,1,2.60546875,0.26171875,1,0,1,0,139,139,36,1,,,,,,,,
,,,,,,,,,,,,,FF,,,,,,,,0.9167,,,,,,,,,,,,,,,,,,,,,,6100d28f1e251a6dff92f0df,61036e5d606dd7586d939d19,2021-07-29_23h14.13.162,Simcolourproject_2stim_asymm_v5,2020.2.10,MacIntel,60,61025ae37ef11b136ea224fe,,,,,,,,,2606,-77.62109375,-39.40625,1,0,1,response5disk,,2,0.37109375,3.21484375,1,0,1,rectangle,0.37109375,3.21484375,1,0,1,0.37109375,3.21484375,1,0,1,0,140,140,61,1,,,,,,,,
,,,,,,,,,,,,,FF,,,,,,,,1.0667,,,,,,,,,,,,,,,,,,,,,,6100d28f1e251a6dff92f0df,61036e5d606dd7586d939d19,2021-07-29_23h14.13.162,Simcolourproject_2stim_asymm_v5,2020.2.10,MacIntel,60,61025ae37ef11b136ea224fe,,,,,,,,,4277,55.75390625,34.04296875,1,0,1,response1disk,,6,-12.82421875,-7.92578125,1,0,1,rectangle,-12.82421875,-7.92578125,1,0,1,-12.82421875,-7.92578125,1,0,1,0,141,141,147,1,,,,,,,,
,,,,,,,,,,,,,FF,,,,,,,,1.5836,,,,,,,,,,,,,,,,,,,,,,6100d28f1e251a6dff92f0df,61036e5d606dd7586d939d19,2021-07-29_23h14.13.162,Simcolourproject_2stim_asymm_v5,2020.2.10,MacIntel,60,61025ae37ef11b136ea224fe,,,,,,,,,3121,66.24609375,-38.19921875,1,0,1,response3disk,,5,-8.1640625,-3.98046875,1,0,1,rectangle,-8.1640625,-3.98046875,1,0,1,-8.1640625,-3.98046875,1,0,1,0,142,142,134,1,,,,,,,,
,,,,,,,,,,,,,FF,,,,,,,,0.8339,,,,,,,,,,,,,,,,,,,,,,6100d28f1e251a6dff92f0df,61036e5d606dd7586d939d19,2021-07-29_23h14.13.162,Simcolourproject_2stim_asymm_v5,2020.2.10,MacIntel,60,61025ae37ef11b136ea224fe,,,,,,,,,1453,-52.68359375,-28.27734375,1,0,1,response5disk,,2,-14.1640625,-2.96875,1,0,1,rectangle,-14.1640625,-2.96875,1,0,1,-14.1640625,-2.96875,1,0,1,0,143,143,112,1,,,,,,,,
,,,,,,,,,,,,,FF,,,,,,,,0.8009,,,,,,,,,,,,,,,,,,,,,,6100d28f1e251a6dff92f0df,61036e5d606dd7586d939d19,2021-07-29_23h14.13.162,Simcolourproject_2stim_asymm_v5,2020.2.10,MacIntel,60,61025ae37ef11b136ea224fe,,,,,,,,,1610,-56.1015625,35.12890625,1,0,1,response7disk,,1,-12.421875,3.29296875,1,0,1,rectangle,-12.421875,3.29296875,1,0,1,-12.421875,3.29296875,1,0,1,0,144,144,92,1,,,,,,,,
,,,,,,,,,,,,,FF,,,,,,,,2.1167,,,,,,,,,,,,,,,,,,,,,,6100d28f1e251a6dff92f0df,61036e5d606dd7586d939d19,2021-07-29_23h14.13.162,Simcolourproject_2stim_asymm_v5,2020.2.10,MacIntel,60,61025ae37ef11b136ea224fe,,,,,,,,,818,-35.55859375,-64.5703125,1,0,1,response5disk,,3,0.75,-11.6953125,1,0,1,rectangle,0.75,-11.6953125,1,0,1,0.75,-11.6953125,1,0,1,0,145,145,42,1,,,,,,,,
,,,,,,,,,,,,,FF,,,,,,,,1.0506,,,,,,,,,,,,,,,,,,,,,,6100d28f1e251a6dff92f0df,61036e5d606dd7586d939d19,2021-07-29_23h14.13.162,Simcolourproject_2stim_asymm_v5,2020.2.10,MacIntel,60,61025ae37ef11b136ea224fe,,,,,,,,,1791,51.6953125,-21.1953125,1,0,1,response3disk,,5,-1.55078125,-3.19921875,1,0,1,rectangle,-1.55078125,-3.19921875,1,0,1,-1.55078125,-3.19921875,1,0,1,0,146,146,151,1,,,,,,,,
,,,,,,,,,,,,,FF,,,,,,,,0.8511,,,,,,,,,,,,,,,,,,,,,,6100d28f1e251a6dff92f0df,61036e5d606dd7586d939d19,2021-07-29_23h14.13.162,Simcolourproject_2stim_asymm_v5,2020.2.10,MacIntel,60,61025ae37ef11b136ea224fe,,,,,,,,,3781,-78.84375,-34.546875,1,0,1,response5disk,,2,0.51171875,-2.55859375,1,0,1,rectangle,0.51171875,-2.55859375,1,0,1,0.51171875,-2.55859375,1,0,1,0,147,147,27,1,,,,,,,,
,,,,,,,,,,,,,FF,,,,,,,,0.8844,,,,,,,,,,,,,,,,,,,,,,6100d28f1e251a6dff92f0df,61036e5d606dd7586d939d19,2021-07-29_23h14.13.162,Simcolourproject_2stim_asymm_v5,2020.2.10,MacIntel,60,61025ae37ef11b136ea224fe,,,,,,,,,2968,77.04296875,38.7890625,1,0,1,response1disk,,6,4.63671875,-2.08984375,1,0,1,rectangle,4.63671875,-2.08984375,1,0,1,4.63671875,-2.08984375,1,0,1,0,148,148,149,1,,,,,,,,
,,,,,,,,,,,,,FF,,,,,,,,0.8837,,,,,,,,,,,,,,,,,,,,,,6100d28f1e251a6dff92f0df,61036e5d606dd7586d939d19,2021-07-29_23h14.13.162,Simcolourproject_2stim_asymm_v5,2020.2.10,MacIntel,60,61025ae37ef11b136ea224fe,,,,,,,,,4204,-69.421875,-39.3046875,1,0,1,response5disk,,2,-1.5234375,-8.64453125,1,0,1,rectangle,-1.5234375,-8.64453125,1,0,1,-1.5234375,-8.64453125,1,0,1,0,149,149,148,1,,,,,,,,
,,,,,,,,,,,,,FF,,,,,,,,0.9826,,,,,,,,,,,,,,,,,,,,,,6100d28f1e251a6dff92f0df,61036e5d606dd7586d939d19,2021-07-29_23h14.13.162,Simcolourproject_2stim_asymm_v5,2020.2.10,MacIntel,60,61025ae37ef11b136ea224fe,,,,,,,,,3147,-60.5,27.7421875,1,0,1,response7disk,,1,4.48828125,5.25390625,1,0,1,rectangle,4.48828125,5.25390625,1,0,1,4.48828125,5.25390625,1,0,1,0,150,150,104,1,,,,,,,,
,,,,,,,,,,,,,FF,,,,,,,,2.7011,,,,,,,,,,,,,,,,,,,,,,6100d28f1e251a6dff92f0df,61036e5d606dd7586d939d19,2021-07-29_23h14.13.162,Simcolourproject_2stim_asymm_v5,2020.2.10,MacIntel,60,61025ae37ef11b136ea224fe,,,,,,,,,2079,63.96875,-32.8828125,1,0,1,response3disk,,5,-7.79296875,3.8515625,1,0,1,rectangle,-7.79296875,3.8515625,1,0,1,-7.79296875,3.8515625,1,0,1,0,151,151,66,1,,,,,,,,
,,,,,,,,,,,,,FF,,,,,,,,1.4004,,,,,,,,,,,,,,,,,,,,,,6100d28f1e251a6dff92f0df,61036e5d606dd7586d939d19,2021-07-29_23h14.13.162,Simcolourproject_2stim_asymm_v5,2020.2.10,MacIntel,60,61025ae37ef11b136ea224fe,,,,,,,,,357,54.09765625,-40.41796875,1,0,1,response3disk,,5,3.765625,-4.66015625,1,0,1,rectangle,3.765625,-4.66015625,1,0,1,3.765625,-4.66015625,1,0,1,0,152,152,62,1,,,,,,,,
,,,,,,,,,,,,,FF,,,,,,,,1.8164,,,,,,,,,,,,,,,,,,,,,,6100d28f1e251a6dff92f0df,61036e5d606dd7586d939d19,2021-07-29_23h14.13.162,Simcolourproject_2stim_asymm_v5,2020.2.10,MacIntel,60,61025ae37ef11b136ea224fe,,,,,,,,,1665,39.0234375,-61.6640625,1,0,1,response3disk,,4,8.53125,2.46875,1,0,1,rectangle,8.53125,2.46875,1,0,1,8.53125,2.46875,1,0,1,0,153,153,99,1,,,,,,,,
,,,,,,,,,,,,,FF,,,,,,,,1.1001,,,,,,,,,,,,,,,,,,,,,,6100d28f1e251a6dff92f0df,61036e5d606dd7586d939d19,2021-07-29_23h14.13.162,Simcolourproject_2stim_asymm_v5,2020.2.10,MacIntel,60,61025ae37ef11b136ea224fe,,,,,,,,,2777,-47.71484375,-25.5234375,1,0,1,response5disk,,2,-8.12109375,0.96875,1,0,1,rectangle,-8.12109375,0.96875,1,0,1,-8.12109375,0.96875,1,0,1,0,154,154,44,1,,,,,,,,
,,,,,,,,,,,,,FF,,,,,,,,1.034,,,,,,,,,,,,,,,,,,,,,,6100d28f1e251a6dff92f0df,61036e5d606dd7586d939d19,2021-07-29_23h14.13.162,Simcolourproject_2stim_asymm_v5,2020.2.10,MacIntel,60,61025ae37ef11b136ea224fe,,,,,,,,,1302,-60.671875,-44.5859375,1,0,1,response5disk,,2,-3.70703125,0.0546875,1,0,1,rectangle,-3.70703125,0.0546875,1,0,1,-3.70703125,0.0546875,1,0,1,0,155,155,49,1,,,,,,,,
,,,,,,,,,,,,,FF,,,,,,,,0.8674,,,,,,,,,,,,,,,,,,,,,,6100d28f1e251a6dff92f0df,61036e5d606dd7586d939d19,2021-07-29_23h14.13.162,Simcolourproject_2stim_asymm_v5,2020.2.10,MacIntel,60,61025ae37ef11b136ea224fe,,,,,,,,,3517,-46.33984375,-21.421875,1,0,1,response5disk,,2,-18.67578125,-4.77734375,1,0,1,rectangle,-18.67578125,-4.77734375,1,0,1,-18.67578125,-4.77734375,1,0,1,0,156,156,29,1,,,,,,,,
,,,,,,,,,,,,,FF,,,,,,,,1.251,,,,,,,,,,,,,,,,,,,,,,6100d28f1e251a6dff92f0df,61036e5d606dd7586d939d19,2021-07-29_23h14.13.162,Simcolourproject_2stim_asymm_v5,2020.2.10,MacIntel,60,61025ae37ef11b136ea224fe,,,,,,,,,2023,82.4296875,-26.8984375,1,0,1,response3disk,,5,-9.9765625,-4.55078125,1,0,1,rectangle,-9.9765625,-4.55078125,1,0,1,-9.9765625,-4.55078125,1,0,1,0,157,157,94,1,,,,,,,,
,,,,,,,,,,,,,FF,,,,,,,,2.0823,,,,,,,,,,,,,,,,,,,,,,6100d28f1e251a6dff92f0df,61036e5d606dd7586d939d19,2021-07-29_23h14.13.162,Simcolourproject_2stim_asymm_v5,2020.2.10,MacIntel,60,61025ae37ef11b136ea224fe,,,,,,,,,3751,-33.98046875,-78.4921875,1,0,1,response5disk,,3,0.62890625,0.73046875,1,0,1,rectangle,0.62890625,0.73046875,1,0,1,0.62890625,0.73046875,1,0,1,0,158,158,6,1,,,,,,,,
,,,,,,,,,,,,,FF,,,,,,,,1.9335,,,,,,,,,,,,,,,,,,,,,,6100d28f1e251a6dff92f0df,61036e5d606dd7586d939d19,2021-07-29_23h14.13.162,Simcolourproject_2stim_asymm_v5,2020.2.10,MacIntel,60,61025ae37ef11b136ea224fe,,,,,,,,,4057,31.97265625,-63.390625,1,0,1,response3disk,,4,13.375,-0.25390625,1,0,1,rectangle,13.375,-0.25390625,1,0,1,13.375,-0.25390625,1,0,1,0,159,159,93,1,,,,,,,,
,,,,,,,,,,,,,FF,,,,,,,,1.1175,,,,,,,,,,,,,,,,,,,,,,6100d28f1e251a6dff92f0df,61036e5d606dd7586d939d19,2021-07-29_23h14.13.162,Simcolourproject_2stim_asymm_v5,2020.2.10,MacIntel,60,61025ae37ef11b136ea224fe,,,,,,,,,2930,63.90234375,29.42578125,1,0,1,response1disk,,6,-0.45703125,6.5859375,1,0,1,rectangle,-0.45703125,6.5859375,1,0,1,-0.45703125,6.5859375,1,0,1,1,0,160,122,1,,,,,,,,
,,,,,,,,,,,,,FF,,,,,,,,2.8835,,,,,,,,,,,,,,,,,,,,,,6100d28f1e251a6dff92f0df,61036e5d606dd7586d939d19,2021-07-29_23h14.13.162,Simcolourproject_2stim_asymm_v5,2020.2.10,MacIntel,60,61025ae37ef11b136ea224fe,,,,,,,,,1351,72.7890625,-42.25390625,1,0,1,response3disk,,5,9.9921875,-12.98046875,1,0,1,rectangle,9.9921875,-12.98046875,1,0,1,9.9921875,-12.98046875,1,0,1,1,1,161,60,1,,,,,,,,
,,,,,,,,,,,,,FF,,,,,,,,1.1323,,,,,,,,,,,,,,,,,,,,,,6100d28f1e251a6dff92f0df,61036e5d606dd7586d939d19,2021-07-29_23h14.13.162,Simcolourproject_2stim_asymm_v5,2020.2.10,MacIntel,60,61025ae37ef11b136ea224fe,,,,,,,,,844,48.203125,43.62109375,1,0,1,response1disk,,6,-1.6640625,-1.9765625,1,0,1,rectangle,-1.6640625,-1.9765625,1,0,1,-1.6640625,-1.9765625,1,0,1,1,2,162,70,1,,,,,,,,
,,,,,,,,,,,,,FF,,,,,,,,1.5322,,,,,,,,,,,,,,,,,,,,,,6100d28f1e251a6dff92f0df,61036e5d606dd7586d939d19,2021-07-29_23h14.13.162,Simcolourproject_2stim_asymm_v5,2020.2.10,MacIntel,60,61025ae37ef11b136ea224fe,,,,,,,,,105,35.1796875,-65.578125,1,0,1,response3disk,,4,2.45703125,-3.26171875,1,0,1,rectangle,2.45703125,-3.26171875,1,0,1,2.45703125,-3.26171875,1,0,1,1,3,163,78,1,,,,,,,,
,,,,,,,,,,,,,FF,,,,,,,,1.7509,,,,,,,,,,,,,,,,,,,,,,6100d28f1e251a6dff92f0df,61036e5d606dd7586d939d19,2021-07-29_23h14.13.162,Simcolourproject_2stim_asymm_v5,2020.2.10,MacIntel,60,61025ae37ef11b136ea224fe,,,,,,,,,3724,36.21484375,-63.95703125,1,0,1,response3disk,,4,17.421875,-1.5234375,1,0,1,rectangle,17.421875,-1.5234375,1,0,1,17.421875,-1.5234375,1,0,1,1,4,164,59,1,,,,,,,,
,,,,,,,,,,,,,FF,,,,,,,,1.2326,,,,,,,,,,,,,,,,,,,,,,6100d28f1e251a6dff92f0df,61036e5d606dd7586d939d19,2021-07-29_23h14.13.162,Simcolourproject_2stim_asymm_v5,2020.2.10,MacIntel,60,61025ae37ef11b136ea224fe,,,,,,,,,2924,84.06640625,51.265625,1,0,1,response1disk,,6,-10.53515625,5.44140625,1,0,1,rectangle,-10.53515625,5.44140625,1,0,1,-10.53515625,5.44140625,1,0,1,1,5,165,19,1,,,,,,,,
,,,,,,,,,,,,,FF,,,,,,,,1.4655,,,,,,,,,,,,,,,,,,,,,,6100d28f1e251a6dff92f0df,61036e5d606dd7586d939d19,2021-07-29_23h14.13.162,Simcolourproject_2stim_asymm_v5,2020.2.10,MacIntel,60,61025ae37ef11b136ea224fe,,,,,,,,,1710,46.328125,-67.125,1,0,1,response3disk,,4,-2.5078125,-1.92578125,1,0,1,rectangle,-2.5078125,-1.92578125,1,0,1,-2.5078125,-1.92578125,1,0,1,1,6,166,148,1,,,,,,,,
,,,,,,,,,,,,,FF,,,,,,,,1.4001,,,,,,,,,,,,,,,,,,,,,,6100d28f1e251a6dff92f0df,61036e5d606dd7586d939d19,2021-07-29_23h14.13.162,Simcolourproject_2stim_asymm_v5,2020.2.10,MacIntel,60,61025ae37ef11b136ea224fe,,,,,,,,,424,40.296875,-54.01171875,1,0,1,response3disk,,4,-3.48828125,3.83203125,1,0,1,rectangle,-3.48828125,3.83203125,1,0,1,-3.48828125,3.83203125,1,0,1,1,7,167,37,1,,,,,,,,
,,,,,,,,,,,,,FF,,,,,,,,4.3665,,,,,,,,,,,,,,,,,,,,,,6100d28f1e251a6dff92f0df,61036e5d606dd7586d939d19,2021-07-29_23h14.13.162,Simcolourproject_2stim_asymm_v5,2020.2.10,MacIntel,60,61025ae37ef11b136ea224fe,,,,,,,,,1709,91.21875,-43.65625,1,0,1,response3disk,,5,4.18359375,3.32421875,1,0,1,rectangle,4.18359375,3.32421875,1,0,1,4.18359375,3.32421875,1,0,1,1,8,168,16,1,,,,,,,,
,,,,,,,,,,,,,FF,,,,,,,,0.8501,,,,,,,,,,,,,,,,,,,,,,6100d28f1e251a6dff92f0df,61036e5d606dd7586d939d19,2021-07-29_23h14.13.162,Simcolourproject_2stim_asymm_v5,2020.2.10,MacIntel,60,61025ae37ef11b136ea224fe,,,,,,,,,4334,43.1484375,105.8632813,1,0,1,response1disk,,7,11.625,-4.6484375,1,0,1,rectangle,11.625,-4.6484375,1,0,1,11.625,-4.6484375,1,0,1,1,9,169,66,1,,,,,,,,
,,,,,,,,,,,,,FF,,,,,,,,1.916,,,,,,,,,,,,,,,,,,,,,,6100d28f1e251a6dff92f0df,61036e5d606dd7586d939d19,2021-07-29_23h14.13.162,Simcolourproject_2stim_asymm_v5,2020.2.10,MacIntel,60,61025ae37ef11b136ea224fe,,,,,,,,,788,40.64453125,-66.3671875,1,0,1,response3disk,,4,6.11328125,3.3359375,1,0,1,rectangle,6.11328125,3.3359375,1,0,1,6.11328125,3.3359375,1,0,1,1,10,170,31,1,,,,,,,,
,,,,,,,,,,,,,FF,,,,,,,,1.367,,,,,,,,,,,,,,,,,,,,,,6100d28f1e251a6dff92f0df,61036e5d606dd7586d939d19,2021-07-29_23h14.13.162,Simcolourproject_2stim_asymm_v5,2020.2.10,MacIntel,60,61025ae37ef11b136ea224fe,,,,,,,,,4300,61.28515625,35.48828125,1,0,1,response1disk,,6,-8.7421875,9.94921875,1,0,1,rectangle,-8.7421875,9.94921875,1,0,1,-8.7421875,9.94921875,1,0,1,1,11,171,99,1,,,,,,,,
,,,,,,,,,,,,,FF,,,,,,,,0.8674,,,,,,,,,,,,,,,,,,,,,,6100d28f1e251a6dff92f0df,61036e5d606dd7586d939d19,2021-07-29_23h14.13.162,Simcolourproject_2stim_asymm_v5,2020.2.10,MacIntel,60,61025ae37ef11b136ea224fe,,,,,,,,,187,-49.2265625,-27.09375,1,0,1,response5disk,,2,-0.4453125,-3.1796875,1,0,1,rectangle,-0.4453125,-3.1796875,1,0,1,-0.4453125,-3.1796875,1,0,1,1,12,172,11,1,,,,,,,,
,,,,,,,,,,,,,FF,,,,,,,,0.9506,,,,,,,,,,,,,,,,,,,,,,6100d28f1e251a6dff92f0df,61036e5d606dd7586d939d19,2021-07-29_23h14.13.162,Simcolourproject_2stim_asymm_v5,2020.2.10,MacIntel,60,61025ae37ef11b136ea224fe,,,,,,,,,1509,85.6171875,-39.69921875,1,0,1,response3disk,,5,-0.11328125,-12.12109375,1,0,1,rectangle,-0.11328125,-12.12109375,1,0,1,-0.11328125,-12.12109375,1,0,1,1,13,173,48,1,,,,,,,,
,,,,,,,,,,,,,FF,,,,,,,,1.249,,,,,,,,,,,,,,,,,,,,,,6100d28f1e251a6dff92f0df,61036e5d606dd7586d939d19,2021-07-29_23h14.13.162,Simcolourproject_2stim_asymm_v5,2020.2.10,MacIntel,60,61025ae37ef11b136ea224fe,,,,,,,,,1822,-67.81640625,-31.98828125,1,0,1,response5disk,,2,6.06640625,3.55078125,1,0,1,rectangle,6.06640625,3.55078125,1,0,1,6.06640625,3.55078125,1,0,1,1,14,174,94,1,,,,,,,,
,,,,,,,,,,,,,FF,,,,,,,,1.1654,,,,,,,,,,,,,,,,,,,,,,6100d28f1e251a6dff92f0df,61036e5d606dd7586d939d19,2021-07-29_23h14.13.162,Simcolourproject_2stim_asymm_v5,2020.2.10,MacIntel,60,61025ae37ef11b136ea224fe,,,,,,,,,1233,44.06640625,-60.8671875,1,0,1,response3disk,,4,3.1328125,-10.09765625,1,0,1,rectangle,3.1328125,-10.09765625,1,0,1,3.1328125,-10.09765625,1,0,1,1,15,175,64,1,,,,,,,,
,,,,,,,,,,,,,FF,,,,,,,,2.132,,,,,,,,,,,,,,,,,,,,,,6100d28f1e251a6dff92f0df,61036e5d606dd7586d939d19,2021-07-29_23h14.13.162,Simcolourproject_2stim_asymm_v5,2020.2.10,MacIntel,60,61025ae37ef11b136ea224fe,,,,,,,,,2857,50.67578125,-44.953125,1,0,1,response3disk,,5,1.3515625,-4.171875,1,0,1,rectangle,1.3515625,-4.171875,1,0,1,1.3515625,-4.171875,1,0,1,1,16,176,140,1,,,,,,,,
,,,,,,,,,,,,,FF,,,,,,,,0.9488,,,,,,,,,,,,,,,,,,,,,,6100d28f1e251a6dff92f0df,61036e5d606dd7586d939d19,2021-07-29_23h14.13.162,Simcolourproject_2stim_asymm_v5,2020.2.10,MacIntel,60,61025ae37ef11b136ea224fe,,,,,,,,,3377,-47.640625,-78.74609375,1,0,1,response5disk,,3,-7.890625,-1.5390625,1,0,1,rectangle,-7.890625,-1.5390625,1,0,1,-7.890625,-1.5390625,1,0,1,1,17,177,151,1,,,,,,,,
,,,,,,,,,,,,,FF,,,,,,,,0.7324,,,,,,,,,,,,,,,,,,,,,,6100d28f1e251a6dff92f0df,61036e5d606dd7586d939d19,2021-07-29_23h14.13.162,Simcolourproject_2stim_asymm_v5,2020.2.10,MacIntel,60,61025ae37ef11b136ea224fe,,,,,,,,,2726,-63.45703125,-29.61328125,1,0,1,response5disk,,2,-3.68359375,-6.99609375,1,0,1,rectangle,-3.68359375,-6.99609375,1,0,1,-3.68359375,-6.99609375,1,0,1,1,18,178,22,1,,,,,,,,
,,,,,,,,,,,,,FF,,,,,,,,1.0346,,,,,,,,,,,,,,,,,,,,,,6100d28f1e251a6dff92f0df,61036e5d606dd7586d939d19,2021-07-29_23h14.13.162,Simcolourproject_2stim_asymm_v5,2020.2.10,MacIntel,60,61025ae37ef11b136ea224fe,,,,,,,,,2207,67.98046875,-38.5234375,1,0,1,response3disk,,5,8.71484375,-1.703125,1,0,1,rectangle,8.71484375,-1.703125,1,0,1,8.71484375,-1.703125,1,0,1,1,19,179,134,1,,,,,,,,
,,,,,,,,,,,,,FF,,,,,,,,1.2177,,,,,,,,,,,,,,,,,,,,,,6100d28f1e251a6dff92f0df,61036e5d606dd7586d939d19,2021-07-29_23h14.13.162,Simcolourproject_2stim_asymm_v5,2020.2.10,MacIntel,60,61025ae37ef11b136ea224fe,,,,,,,,,3574,62.28125,53.73828125,1,0,1,response1disk,,6,7.18359375,7.75390625,1,0,1,rectangle,7.18359375,7.75390625,1,0,1,7.18359375,7.75390625,1,0,1,1,20,180,107,1,,,,,,,,
,,,,,,,,,,,,,FF,,,,,,,,1.9171,,,,,,,,,,,,,,,,,,,,,,6100d28f1e251a6dff92f0df,61036e5d606dd7586d939d19,2021-07-29_23h14.13.162,Simcolourproject_2stim_asymm_v5,2020.2.10,MacIntel,60,61025ae37ef11b136ea224fe,,,,,,,,,1010,68.2265625,-36.33984375,1,0,1,response3disk,,5,23.640625,-12.38671875,1,0,1,rectangle,23.640625,-12.38671875,1,0,1,23.640625,-12.38671875,1,0,1,1,21,181,42,1,,,,,,,,
,,,,,,,,,,,,,FF,,,,,,,,0.882,,,,,,,,,,,,,,,,,,,,,,6100d28f1e251a6dff92f0df,61036e5d606dd7586d939d19,2021-07-29_23h14.13.162,Simcolourproject_2stim_asymm_v5,2020.2.10,MacIntel,60,61025ae37ef11b136ea224fe,,,,,,,,,548,-87.046875,-54.6484375,1,0,1,response5disk,,2,17.28515625,9.4765625,1,0,1,rectangle,17.28515625,9.4765625,1,0,1,17.28515625,9.4765625,1,0,1,1,22,182,49,1,,,,,,,,
,,,,,,,,,,,,,FF,,,,,,,,1.4171,,,,,,,,,,,,,,,,,,,,,,6100d28f1e251a6dff92f0df,61036e5d606dd7586d939d19,2021-07-29_23h14.13.162,Simcolourproject_2stim_asymm_v5,2020.2.10,MacIntel,60,61025ae37ef11b136ea224fe,,,,,,,,,2529,59,-32.47265625,1,0,1,response3disk,,5,-11.16796875,0.4296875,1,0,1,rectangle,-11.16796875,0.4296875,1,0,1,-11.16796875,0.4296875,1,0,1,1,23,183,131,1,,,,,,,,
,,,,,,,,,,,,,FF,,,,,,,,0.9655,,,,,,,,,,,,,,,,,,,,,,6100d28f1e251a6dff92f0df,61036e5d606dd7586d939d19,2021-07-29_23h14.13.162,Simcolourproject_2stim_asymm_v5,2020.2.10,MacIntel,60,61025ae37ef11b136ea224fe,,,,,,,,,2237,-82.54296875,-40.81640625,1,0,1,response5disk,,2,-14.9453125,-3.6484375,1,0,1,rectangle,67.9375,100.0351563,1,0,1,-0.90234375,-10.81640625,1,0,1,1,24,184,125,1,,response1disk_3,TRUE,7,7,"[232,111,292,56,12,185,186,221,94,270,105,255,305,226,200,66,227,254,284,192]",42.951,rectangle
,,,,,,,,,,,,,FF,,,,,,,,0.8821,,,,,,,,,,,,,,,,,,,,,,6100d28f1e251a6dff92f0df,61036e5d606dd7586d939d19,2021-07-29_23h14.13.162,Simcolourproject_2stim_asymm_v5,2020.2.10,MacIntel,60,61025ae37ef11b136ea224fe,,,,,,,,,3270,41.74609375,73.53515625,1,0,1,response1disk,,7,13.57421875,3.99609375,1,0,1,rectangle,71.5703125,-84.7109375,1,0,1,-9.71875,11.99609375,1,0,1,1,25,185,95,1,,response3disk_3,TRUE,4,4,"[232,111,292,56,12,185,186,221,94,270,105,255,305,226,200,66,227,254,284,192]",1.4502,rectangle
,,,,,,,,,,,,,FF,,,,,,,,3.6834,,,,,,,,,,,,,,,,,,,,,,6100d28f1e251a6dff92f0df,61036e5d606dd7586d939d19,2021-07-29_23h14.13.162,Simcolourproject_2stim_asymm_v5,2020.2.10,MacIntel,60,61025ae37ef11b136ea224fe,,,,,,,,,1439,100.7695313,-46.23828125,1,0,1,response3disk,,5,-33.18359375,6.53515625,1,0,1,rectangle,-33.18359375,6.53515625,1,0,1,-33.18359375,6.53515625,1,0,1,1,26,186,28,1,,,,,,,,
,,,,,,,,,,,,,FF,,,,,,,,1.0835,,,,,,,,,,,,,,,,,,,,,,6100d28f1e251a6dff92f0df,61036e5d606dd7586d939d19,2021-07-29_23h14.13.162,Simcolourproject_2stim_asymm_v5,2020.2.10,MacIntel,60,61025ae37ef11b136ea224fe,,,,,,,,,3375,-29.4609375,-69.48828125,1,0,1,response5disk,,3,10.9375,-7.2109375,1,0,1,rectangle,10.9375,-7.2109375,1,0,1,10.9375,-7.2109375,1,0,1,1,27,187,110,1,,,,,,,,
,,,,,,,,,,,,,FF,,,,,,,,1.3505,,,,,,,,,,,,,,,,,,,,,,6100d28f1e251a6dff92f0df,61036e5d606dd7586d939d19,2021-07-29_23h14.13.162,Simcolourproject_2stim_asymm_v5,2020.2.10,MacIntel,60,61025ae37ef11b136ea224fe,,,,,,,,,1331,34.25,78.9453125,1,0,1,response1disk,,7,10.38671875,9.640625,1,0,1,rectangle,10.38671875,9.640625,1,0,1,10.38671875,9.640625,1,0,1,1,28,188,76,1,,,,,,,,
,,,,,,,,,,,,,FF,,,,,,,,0.8997,,,,,,,,,,,,,,,,,,,,,,6100d28f1e251a6dff92f0df,61036e5d606dd7586d939d19,2021-07-29_23h14.13.162,Simcolourproject_2stim_asymm_v5,2020.2.10,MacIntel,60,61025ae37ef11b136ea224fe,,,,,,,,,1373,-44.578125,-84.30078125,1,0,1,response5disk,,3,-6.171875,-2.421875,1,0,1,rectangle,-6.171875,-2.421875,1,0,1,-6.171875,-2.421875,1,0,1,1,29,189,27,1,,,,,,,,
,,,,,,,,,,,,,FF,,,,,,,,1.616,,,,,,,,,,,,,,,,,,,,,,6100d28f1e251a6dff92f0df,61036e5d606dd7586d939d19,2021-07-29_23h14.13.162,Simcolourproject_2stim_asymm_v5,2020.2.10,MacIntel,60,61025ae37ef11b136ea224fe,,,,,,,,,147,75,33.9453125,1,0,1,response1disk,,6,8.1328125,6.17578125,1,0,1,rectangle,8.1328125,6.17578125,1,0,1,8.1328125,6.17578125,1,0,1,1,30,190,43,1,,,,,,,,
,,,,,,,,,,,,,FF,,,,,,,,1.1663,,,,,,,,,,,,,,,,,,,,,,6100d28f1e251a6dff92f0df,61036e5d606dd7586d939d19,2021-07-29_23h14.13.162,Simcolourproject_2stim_asymm_v5,2020.2.10,MacIntel,60,61025ae37ef11b136ea224fe,,,,,,,,,3800,74.64453125,-38.61328125,1,0,1,response3disk,,5,7.17578125,2.78125,1,0,1,rectangle,63.73828125,96.37890625,1,0,1,6.55859375,3.671875,1,0,1,1,31,191,21,1,,response1disk_3,TRUE,7,7,"[232,111,292,56,12,185,186,221,94,270,105,255,305,226,200,66,227,254,284,192]",1.3003,rectangle
,,,,,,,,,,,,,FF,,,,,,,,1.6657,,,,,,,,,,,,,,,,,,,,,,6100d28f1e251a6dff92f0df,61036e5d606dd7586d939d19,2021-07-29_23h14.13.162,Simcolourproject_2stim_asymm_v5,2020.2.10,MacIntel,60,61025ae37ef11b136ea224fe,,,,,,,,,3767,85.3046875,32.35546875,1,0,1,response1disk,,6,-5.734375,-1.1171875,1,0,1,rectangle,-5.734375,-1.1171875,1,0,1,-5.734375,-1.1171875,1,0,1,1,32,192,144,1,,,,,,,,
,,,,,,,,,,,,,FF,,,,,,,,2.2342,,,,,,,,,,,,,,,,,,,,,,6100d28f1e251a6dff92f0df,61036e5d606dd7586d939d19,2021-07-29_23h14.13.162,Simcolourproject_2stim_asymm_v5,2020.2.10,MacIntel,60,61025ae37ef11b136ea224fe,,,,,,,,,794,53.35546875,-19.421875,1,0,1,response3disk,,5,6.11328125,6.28125,1,0,1,rectangle,6.11328125,6.28125,1,0,1,6.11328125,6.28125,1,0,1,1,33,193,152,1,,,,,,,,
,,,,,,,,,,,,,FF,,,,,,,,1.268,,,,,,,,,,,,,,,,,,,,,,6100d28f1e251a6dff92f0df,61036e5d606dd7586d939d19,2021-07-29_23h14.13.162,Simcolourproject_2stim_asymm_v5,2020.2.10,MacIntel,60,61025ae37ef11b136ea224fe,,,,,,,,,4364,-57.03515625,-28.59765625,1,0,1,response5disk,,2,4.71875,-5.34765625,1,0,1,rectangle,4.71875,-5.34765625,1,0,1,4.71875,-5.34765625,1,0,1,1,34,194,121,1,,,,,,,,
,,,,,,,,,,,,,FF,,,,,,,,2.0822,,,,,,,,,,,,,,,,,,,,,,6100d28f1e251a6dff92f0df,61036e5d606dd7586d939d19,2021-07-29_23h14.13.162,Simcolourproject_2stim_asymm_v5,2020.2.10,MacIntel,60,61025ae37ef11b136ea224fe,,,,,,,,,2454,40.26171875,72.71875,1,0,1,response1disk,,7,5.91796875,-6.125,1,0,1,rectangle,5.91796875,-6.125,1,0,1,5.91796875,-6.125,1,0,1,1,35,195,39,1,,,,,,,,
,,,,,,,,,,,,,FF,,,,,,,,0.9012,,,,,,,,,,,,,,,,,,,,,,6100d28f1e251a6dff92f0df,61036e5d606dd7586d939d19,2021-07-29_23h14.13.162,Simcolourproject_2stim_asymm_v5,2020.2.10,MacIntel,60,61025ae37ef11b136ea224fe,,,,,,,,,4052,-59.5,-22.9296875,1,0,1,response5disk,,2,5.91015625,-9.2734375,1,0,1,rectangle,5.91015625,-9.2734375,1,0,1,5.91015625,-9.2734375,1,0,1,1,36,196,98,1,,,,,,,,
,,,,,,,,,,,,,FF,,,,,,,,1.0844,,,,,,,,,,,,,,,,,,,,,,6100d28f1e251a6dff92f0df,61036e5d606dd7586d939d19,2021-07-29_23h14.13.162,Simcolourproject_2stim_asymm_v5,2020.2.10,MacIntel,60,61025ae37ef11b136ea224fe,,,,,,,,,3552,-67.73046875,49.01171875,1,0,1,response7disk,,1,-1.5,13.0546875,1,0,1,rectangle,-1.5,13.0546875,1,0,1,-1.5,13.0546875,1,0,1,1,37,197,154,1,,,,,,,,
,,,,,,,,,,,,,FF,,,,,,,,1.3835,,,,,,,,,,,,,,,,,,,,,,6100d28f1e251a6dff92f0df,61036e5d606dd7586d939d19,2021-07-29_23h14.13.162,Simcolourproject_2stim_asymm_v5,2020.2.10,MacIntel,60,61025ae37ef11b136ea224fe,,,,,,,,,3597,-21.90234375,-61.4375,1,0,1,response5disk,,3,-9.9765625,-3.16796875,1,0,1,rectangle,-9.9765625,-3.16796875,1,0,1,-9.9765625,-3.16796875,1,0,1,1,38,198,62,1,,,,,,,,
,,,,,,,,,,,,,FF,,,,,,,,0.902,,,,,,,,,,,,,,,,,,,,,,6100d28f1e251a6dff92f0df,61036e5d606dd7586d939d19,2021-07-29_23h14.13.162,Simcolourproject_2stim_asymm_v5,2020.2.10,MacIntel,60,61025ae37ef11b136ea224fe,,,,,,,,,891,-62.66796875,-32.65234375,1,0,1,response5disk,,2,-6.20703125,-10.28125,1,0,1,rectangle,79.5703125,-35.6875,1,0,1,19.609375,0.43359375,1,0,1,1,39,199,137,1,,response3disk_3,TRUE,5,5,"[232,111,292,56,12,185,186,221,94,270,105,255,305,226,200,66,227,254,284,192]",1.5847,rectangle
,,,,,,,,,,,,,FF,,,,,,,,6.2996,,,,,,,,,,,,,,,,,,,,,,6100d28f1e251a6dff92f0df,61036e5d606dd7586d939d19,2021-07-29_23h14.13.162,Simcolourproject_2stim_asymm_v5,2020.2.10,MacIntel,60,61025ae37ef11b136ea224fe,,,,,,,,,1877,71.33203125,-33.50390625,1,0,1,response3disk,,5,22.4921875,0.94921875,1,0,1,rectangle,22.4921875,0.94921875,1,0,1,22.4921875,0.94921875,1,0,1,1,40,200,47,1,,,,,,,,
,,,,,,,,,,,,,FF,,,,,,,,4.8002,,,,,,,,,,,,,,,,,,,,,,6100d28f1e251a6dff92f0df,61036e5d606dd7586d939d19,2021-07-29_23h14.13.162,Simcolourproject_2stim_asymm_v5,2020.2.10,MacIntel,60,61025ae37ef11b136ea224fe,,,,,,,,,2687,37.88671875,-77.85546875,1,0,1,response3disk,,4,-0.1640625,4.39453125,1,0,1,rectangle,-0.1640625,4.39453125,1,0,1,-0.1640625,4.39453125,1,0,1,1,41,201,81,1,,,,,,,,
,,,,,,,,,,,,,FF,,,,,,,,1.2006,,,,,,,,,,,,,,,,,,,,,,6100d28f1e251a6dff92f0df,61036e5d606dd7586d939d19,2021-07-29_23h14.13.162,Simcolourproject_2stim_asymm_v5,2020.2.10,MacIntel,60,61025ae37ef11b136ea224fe,,,,,,,,,3587,-38.5078125,-83.30859375,1,0,1,response5disk,,3,4.14453125,-8.515625,1,0,1,rectangle,4.14453125,-8.515625,1,0,1,4.14453125,-8.515625,1,0,1,1,42,202,141,1,,,,,,,,
,,,,,,,,,,,,,FF,,,,,,,,1.2325,,,,,,,,,,,,,,,,,,,,,,6100d28f1e251a6dff92f0df,61036e5d606dd7586d939d19,2021-07-29_23h14.13.162,Simcolourproject_2stim_asymm_v5,2020.2.10,MacIntel,60,61025ae37ef11b136ea224fe,,,,,,,,,1002,34.74609375,95.4921875,1,0,1,response1disk,,7,3.3515625,-3.109375,1,0,1,rectangle,3.3515625,-3.109375,1,0,1,3.3515625,-3.109375,1,0,1,1,43,203,0,1,,,,,,,,
,,,,,,,,,,,,,FF,,,,,,,,1.6006,,,,,,,,,,,,,,,,,,,,,,6100d28f1e251a6dff92f0df,61036e5d606dd7586d939d19,2021-07-29_23h14.13.162,Simcolourproject_2stim_asymm_v5,2020.2.10,MacIntel,60,61025ae37ef11b136ea224fe,,,,,,,,,4149,-31.34375,-64.7578125,1,0,1,response5disk,,3,-4.14453125,1.82421875,1,0,1,rectangle,-4.14453125,1.82421875,1,0,1,-4.14453125,1.82421875,1,0,1,1,44,204,35,1,,,,,,,,
,,,,,,,,,,,,,FF,,,,,,,,0.7984,,,,,,,,,,,,,,,,,,,,,,6100d28f1e251a6dff92f0df,61036e5d606dd7586d939d19,2021-07-29_23h14.13.162,Simcolourproject_2stim_asymm_v5,2020.2.10,MacIntel,60,61025ae37ef11b136ea224fe,,,,,,,,,97,-85.71484375,-48.26171875,1,0,1,response5disk,,2,3.4921875,8.18359375,1,0,1,rectangle,3.4921875,8.18359375,1,0,1,3.4921875,8.18359375,1,0,1,1,45,205,72,1,,,,,,,,
,,,,,,,,,,,,,FF,,,,,,,,1.2005,,,,,,,,,,,,,,,,,,,,,,6100d28f1e251a6dff92f0df,61036e5d606dd7586d939d19,2021-07-29_23h14.13.162,Simcolourproject_2stim_asymm_v5,2020.2.10,MacIntel,60,61025ae37ef11b136ea224fe,,,,,,,,,4191,66.01171875,-49.0390625,1,0,1,response3disk,,5,-5.83203125,2.26171875,1,0,1,rectangle,-5.83203125,2.26171875,1,0,1,-5.83203125,2.26171875,1,0,1,1,46,206,83,1,,,,,,,,
,,,,,,,,,,,,,FF,,,,,,,,0.9172,,,,,,,,,,,,,,,,,,,,,,6100d28f1e251a6dff92f0df,61036e5d606dd7586d939d19,2021-07-29_23h14.13.162,Simcolourproject_2stim_asymm_v5,2020.2.10,MacIntel,60,61025ae37ef11b136ea224fe,,,,,,,,,132,61.6640625,30.02734375,1,0,1,response1disk,,6,11.5546875,12.3125,1,0,1,rectangle,11.5546875,12.3125,1,0,1,11.5546875,12.3125,1,0,1,1,47,207,153,1,,,,,,,,
,,,,,,,,,,,,,FF,,,,,,,,1.2013,,,,,,,,,,,,,,,,,,,,,,6100d28f1e251a6dff92f0df,61036e5d606dd7586d939d19,2021-07-29_23h14.13.162,Simcolourproject_2stim_asymm_v5,2020.2.10,MacIntel,60,61025ae37ef11b136ea224fe,,,,,,,,,1217,26.01171875,-82.26953125,1,0,1,response3disk,,4,-4.53125,17.47265625,1,0,1,rectangle,-4.53125,17.47265625,1,0,1,-4.53125,17.47265625,1,0,1,1,48,208,158,1,,,,,,,,
,,,,,,,,,,,,,FF,,,,,,,,0.9662,,,,,,,,,,,,,,,,,,,,,,6100d28f1e251a6dff92f0df,61036e5d606dd7586d939d19,2021-07-29_23h14.13.162,Simcolourproject_2stim_asymm_v5,2020.2.10,MacIntel,60,61025ae37ef11b136ea224fe,,,,,,,,,1098,36.03125,65.76171875,1,0,1,response1disk,,7,11.796875,10.49609375,1,0,1,rectangle,11.796875,10.49609375,1,0,1,11.796875,10.49609375,1,0,1,1,49,209,67,1,,,,,,,,
,,,,,,,,,,,,,FF,,,,,,,,1.3332,,,,,,,,,,,,,,,,,,,,,,6100d28f1e251a6dff92f0df,61036e5d606dd7586d939d19,2021-07-29_23h14.13.162,Simcolourproject_2stim_asymm_v5,2020.2.10,MacIntel,60,61025ae37ef11b136ea224fe,,,,,,,,,1146,76.92578125,-60.11328125,1,0,1,response3disk,,5,7.64453125,5.62890625,1,0,1,rectangle,7.64453125,5.62890625,1,0,1,7.64453125,5.62890625,1,0,1,1,50,210,14,1,,,,,,,,
,,,,,,,,,,,,,FF,,,,,,,,1.0009,,,,,,,,,,,,,,,,,,,,,,6100d28f1e251a6dff92f0df,61036e5d606dd7586d939d19,2021-07-29_23h14.13.162,Simcolourproject_2stim_asymm_v5,2020.2.10,MacIntel,60,61025ae37ef11b136ea224fe,,,,,,,,,358,69.68359375,37.33203125,1,0,1,response1disk,,6,-3.1328125,-14.91796875,1,0,1,rectangle,-3.1328125,-14.91796875,1,0,1,-3.1328125,-14.91796875,1,0,1,1,51,211,17,1,,,,,,,,
,,,,,,,,,,,,,FF,,,,,,,,3.083,,,,,,,,,,,,,,,,,,,,,,6100d28f1e251a6dff92f0df,61036e5d606dd7586d939d19,2021-07-29_23h14.13.162,Simcolourproject_2stim_asymm_v5,2020.2.10,MacIntel,60,61025ae37ef11b136ea224fe,,,,,,,,,4134,68.05859375,24.59765625,1,0,1,response1disk,,6,4.8828125,-15,1,0,1,rectangle,4.8828125,-15,1,0,1,4.8828125,-15,1,0,1,1,52,212,51,1,,,,,,,,
,,,,,,,,,,,,,FF,,,,,,,,2.6174,,,,,,,,,,,,,,,,,,,,,,6100d28f1e251a6dff92f0df,61036e5d606dd7586d939d19,2021-07-29_23h14.13.162,Simcolourproject_2stim_asymm_v5,2020.2.10,MacIntel,60,61025ae37ef11b136ea224fe,,,,,,,,,4323,76.62890625,29.43359375,1,0,1,response1disk,,6,1.12109375,-3.21875,1,0,1,rectangle,1.12109375,-3.21875,1,0,1,1.12109375,-3.21875,1,0,1,1,53,213,40,1,,,,,,,,
,,,,,,,,,,,,,FF,,,,,,,,1.2504,,,,,,,,,,,,,,,,,,,,,,6100d28f1e251a6dff92f0df,61036e5d606dd7586d939d19,2021-07-29_23h14.13.162,Simcolourproject_2stim_asymm_v5,2020.2.10,MacIntel,60,61025ae37ef11b136ea224fe,,,,,,,,,1515,37.2265625,-75.3515625,1,0,1,response3disk,,4,4.44921875,-17.23046875,1,0,1,rectangle,4.44921875,-17.23046875,1,0,1,4.44921875,-17.23046875,1,0,1,1,54,214,8,1,,,,,,,,
,,,,,,,,,,,,,FF,,,,,,,,2.4006,,,,,,,,,,,,,,,,,,,,,,6100d28f1e251a6dff92f0df,61036e5d606dd7586d939d19,2021-07-29_23h14.13.162,Simcolourproject_2stim_asymm_v5,2020.2.10,MacIntel,60,61025ae37ef11b136ea224fe,,,,,,,,,2100,-53.46875,74.01953125,1,0,1,response7disk,,0,-13.46875,9.71484375,1,0,1,rectangle,-13.46875,9.71484375,1,0,1,-13.46875,9.71484375,1,0,1,1,55,215,4,1,,,,,,,,
,,,,,,,,,,,,,FF,,,,,,,,3.7168,,,,,,,,,,,,,,,,,,,,,,6100d28f1e251a6dff92f0df,61036e5d606dd7586d939d19,2021-07-29_23h14.13.162,Simcolourproject_2stim_asymm_v5,2020.2.10,MacIntel,60,61025ae37ef11b136ea224fe,,,,,,,,,3474,-29.421875,-62.71875,1,0,1,response5disk,,3,-6.11328125,-1.7265625,1,0,1,rectangle,-6.11328125,-1.7265625,1,0,1,-6.11328125,-1.7265625,1,0,1,1,56,216,89,1,,,,,,,,
,,,,,,,,,,,,,FF,,,,,,,,0.7509,,,,,,,,,,,,,,,,,,,,,,6100d28f1e251a6dff92f0df,61036e5d606dd7586d939d19,2021-07-29_23h14.13.162,Simcolourproject_2stim_asymm_v5,2020.2.10,MacIntel,60,61025ae37ef11b136ea224fe,,,,,,,,,4125,-69.67578125,-43.4296875,1,0,1,response5disk,,2,0.9765625,-0.0078125,1,0,1,rectangle,0.9765625,-0.0078125,1,0,1,0.9765625,-0.0078125,1,0,1,1,57,217,24,1,,,,,,,,
,,,,,,,,,,,,,FF,,,,,,,,1.0491,,,,,,,,,,,,,,,,,,,,,,6100d28f1e251a6dff92f0df,61036e5d606dd7586d939d19,2021-07-29_23h14.13.162,Simcolourproject_2stim_asymm_v5,2020.2.10,MacIntel,60,61025ae37ef11b136ea224fe,,,,,,,,,4167,-72.2578125,-43.37109375,1,0,1,response5disk,,2,3.15625,-11.046875,1,0,1,rectangle,3.15625,-11.046875,1,0,1,3.15625,-11.046875,1,0,1,1,58,218,155,1,,,,,,,,
,,,,,,,,,,,,,FF,,,,,,,,0.9836,,,,,,,,,,,,,,,,,,,,,,6100d28f1e251a6dff92f0df,61036e5d606dd7586d939d19,2021-07-29_23h14.13.162,Simcolourproject_2stim_asymm_v5,2020.2.10,MacIntel,60,61025ae37ef11b136ea224fe,,,,,,,,,1265,56.6640625,33.15625,1,0,1,response1disk,,6,0.09765625,2.80859375,1,0,1,rectangle,0.09765625,2.80859375,1,0,1,0.09765625,2.80859375,1,0,1,1,59,219,142,1,,,,,,,,
,,,,,,,,,,,,,FF,,,,,,,,0.9838,,,,,,,,,,,,,,,,,,,,,,6100d28f1e251a6dff92f0df,61036e5d606dd7586d939d19,2021-07-29_23h14.13.162,Simcolourproject_2stim_asymm_v5,2020.2.10,MacIntel,60,61025ae37ef11b136ea224fe,,,,,,,,,3540,23.2578125,65.640625,1,0,1,response1disk,,7,12.18359375,4.5546875,1,0,1,rectangle,-54.76953125,100.6875,1,0,1,-11.8203125,-3.73828125,1,0,1,1,60,220,33,1,,response7disk_3,TRUE,0,0,"[232,111,292,56,12,185,186,221,94,270,105,255,305,226,200,66,227,254,284,192]",1.4834,rectangle
,,,,,,,,,,,,,FF,,,,,,,,4.3319,,,,,,,,,,,,,,,,,,,,,,6100d28f1e251a6dff92f0df,61036e5d606dd7586d939d19,2021-07-29_23h14.13.162,Simcolourproject_2stim_asymm_v5,2020.2.10,MacIntel,60,61025ae37ef11b136ea224fe,,,,,,,,,148,43.171875,-93,1,0,1,response3disk,,4,3.47265625,-4.7109375,1,0,1,rectangle,3.47265625,-4.7109375,1,0,1,3.47265625,-4.7109375,1,0,1,1,61,221,90,1,,,,,,,,
,,,,,,,,,,,,,FF,,,,,,,,1.1833,,,,,,,,,,,,,,,,,,,,,,6100d28f1e251a6dff92f0df,61036e5d606dd7586d939d19,2021-07-29_23h14.13.162,Simcolourproject_2stim_asymm_v5,2020.2.10,MacIntel,60,61025ae37ef11b136ea224fe,,,,,,,,,1581,46.62890625,-41.3046875,1,0,1,response3disk,,5,4.9921875,-1.8515625,1,0,1,rectangle,4.9921875,-1.8515625,1,0,1,4.9921875,-1.8515625,1,0,1,1,62,222,127,1,,,,,,,,
,,,,,,,,,,,,,FF,,,,,,,,1.8338,,,,,,,,,,,,,,,,,,,,,,6100d28f1e251a6dff92f0df,61036e5d606dd7586d939d19,2021-07-29_23h14.13.162,Simcolourproject_2stim_asymm_v5,2020.2.10,MacIntel,60,61025ae37ef11b136ea224fe,,,,,,,,,2394,72.1484375,-47.85546875,1,0,1,response3disk,,5,19.29296875,4.11328125,1,0,1,rectangle,19.29296875,4.11328125,1,0,1,19.29296875,4.11328125,1,0,1,1,63,223,53,1,,,,,,,,
,,,,,,,,,,,,,FF,,,,,,,,1.0505,,,,,,,,,,,,,,,,,,,,,,6100d28f1e251a6dff92f0df,61036e5d606dd7586d939d19,2021-07-29_23h14.13.162,Simcolourproject_2stim_asymm_v5,2020.2.10,MacIntel,60,61025ae37ef11b136ea224fe,,,,,,,,,1038,-32.88671875,-50.19140625,1,0,1,response5disk,,3,-0.046875,-5.171875,1,0,1,rectangle,-0.046875,-5.171875,1,0,1,-0.046875,-5.171875,1,0,1,1,64,224,57,1,,,,,,,,
,,,,,,,,,,,,,FF,,,,,,,,2.9829,,,,,,,,,,,,,,,,,,,,,,6100d28f1e251a6dff92f0df,61036e5d606dd7586d939d19,2021-07-29_23h14.13.162,Simcolourproject_2stim_asymm_v5,2020.2.10,MacIntel,60,61025ae37ef11b136ea224fe,,,,,,,,,1270,42.9921875,-86.3046875,1,0,1,response3disk,,4,18.5546875,6.19140625,1,0,1,rectangle,-29.6015625,79.51953125,1,0,1,-2.8046875,4.70703125,1,0,1,1,65,225,2,1,,response7disk_3,TRUE,0,0,"[232,111,292,56,12,185,186,221,94,270,105,255,305,226,200,66,227,254,284,192]",1.8831,rectangle
,,,,,,,,,,,,,FF,,,,,,,,6.967,,,,,,,,,,,,,,,,,,,,,,6100d28f1e251a6dff92f0df,61036e5d606dd7586d939d19,2021-07-29_23h14.13.162,Simcolourproject_2stim_asymm_v5,2020.2.10,MacIntel,60,61025ae37ef11b136ea224fe,,,,,,,,,3465,-32.00390625,-65.59765625,1,0,1,response5disk,,3,-12.92578125,6.23046875,1,0,1,rectangle,-42.9921875,-82.26953125,1,0,1,10.6171875,2.57421875,1,0,1,1,66,226,18,1,,response5disk_3,TRUE,3,3,"[232,111,292,56,12,185,186,221,94,270,105,255,305,226,200,66,227,254,284,192]",1.733,rectangle
,,,,,,,,,,,,,FF,,,,,,,,1.0498,,,,,,,,,,,,,,,,,,,,,,6100d28f1e251a6dff92f0df,61036e5d606dd7586d939d19,2021-07-29_23h14.13.162,Simcolourproject_2stim_asymm_v5,2020.2.10,MacIntel,60,61025ae37ef11b136ea224fe,,,,,,,,,2510,53.7734375,-22.6796875,1,0,1,response3disk,,5,-2.78515625,-7.52734375,1,0,1,rectangle,-2.78515625,-7.52734375,1,0,1,-2.78515625,-7.52734375,1,0,1,1,67,227,38,1,,,,,,,,
,,,,,,,,,,,,,FF,,,,,,,,1.0009,,,,,,,,,,,,,,,,,,,,,,6100d28f1e251a6dff92f0df,61036e5d606dd7586d939d19,2021-07-29_23h14.13.162,Simcolourproject_2stim_asymm_v5,2020.2.10,MacIntel,60,61025ae37ef11b136ea224fe,,,,,,,,,2278,33.28125,86.5,1,0,1,response1disk,,7,20.72265625,7.50390625,1,0,1,rectangle,20.72265625,7.50390625,1,0,1,20.72265625,7.50390625,1,0,1,1,68,228,50,1,,,,,,,,
,,,,,,,,,,,,,FF,,,,,,,,1.7169,,,,,,,,,,,,,,,,,,,,,,6100d28f1e251a6dff92f0df,61036e5d606dd7586d939d19,2021-07-29_23h14.13.162,Simcolourproject_2stim_asymm_v5,2020.2.10,MacIntel,60,61025ae37ef11b136ea224fe,,,,,,,,,928,56.5390625,-27.578125,1,0,1,response3disk,,5,13.73828125,-5.7890625,1,0,1,rectangle,13.73828125,-5.7890625,1,0,1,13.73828125,-5.7890625,1,0,1,1,69,229,91,1,,,,,,,,
,,,,,,,,,,,,,FF,,,,,,,,0.9337,,,,,,,,,,,,,,,,,,,,,,6100d28f1e251a6dff92f0df,61036e5d606dd7586d939d19,2021-07-29_23h14.13.162,Simcolourproject_2stim_asymm_v5,2020.2.10,MacIntel,60,61025ae37ef11b136ea224fe,,,,,,,,,1679,-51.4765625,-71.53515625,1,0,1,response5disk,,3,5.328125,-1.078125,1,0,1,rectangle,5.328125,-1.078125,1,0,1,5.328125,-1.078125,1,0,1,1,70,230,149,1,,,,,,,,
,,,,,,,,,,,,,FF,,,,,,,,1.9172,,,,,,,,,,,,,,,,,,,,,,6100d28f1e251a6dff92f0df,61036e5d606dd7586d939d19,2021-07-29_23h14.13.162,Simcolourproject_2stim_asymm_v5,2020.2.10,MacIntel,60,61025ae37ef11b136ea224fe,,,,,,,,,3446,63.734375,-46.0546875,1,0,1,response3disk,,5,7.6875,-1.69921875,1,0,1,rectangle,-97.8515625,44.45703125,1,0,1,-5.8125,16.67578125,1,0,1,1,71,231,26,1,,response7disk_3,TRUE,1,1,"[232,111,292,56,12,185,186,221,94,270,105,255,305,226,200,66,227,254,284,192]",1.7163,rectangle
,,,,,,,,,,,,,FF,,,,,,,,1.2159,,,,,,,,,,,,,,,,,,,,,,6100d28f1e251a6dff92f0df,61036e5d606dd7586d939d19,2021-07-29_23h14.13.162,Simcolourproject_2stim_asymm_v5,2020.2.10,MacIntel,60,61025ae37ef11b136ea224fe,,,,,,,,,1311,23.21484375,-92.140625,1,0,1,response3disk,,4,-5.0859375,17.98046875,1,0,1,rectangle,-5.0859375,17.98046875,1,0,1,-5.0859375,17.98046875,1,0,1,1,72,232,103,1,,,,,,,,
,,,,,,,,,,,,,FF,,,,,,,,1.1375,,,,,,,,,,,,,,,,,,,,,,6100d28f1e251a6dff92f0df,61036e5d606dd7586d939d19,2021-07-29_23h14.13.162,Simcolourproject_2stim_asymm_v5,2020.2.10,MacIntel,60,61025ae37ef11b136ea224fe,,,,,,,,,3445,76.46484375,40.63671875,1,0,1,response1disk,,6,5.08203125,2.921875,1,0,1,rectangle,5.08203125,2.921875,1,0,1,5.08203125,2.921875,1,0,1,1,73,233,101,1,,,,,,,,
,,,,,,,,,,,,,FF,,,,,,,,1.0331,,,,,,,,,,,,,,,,,,,,,,6100d28f1e251a6dff92f0df,61036e5d606dd7586d939d19,2021-07-29_23h14.13.162,Simcolourproject_2stim_asymm_v5,2020.2.10,MacIntel,60,61025ae37ef11b136ea224fe,,,,,,,,,1867,84.71875,-40.21484375,1,0,1,response3disk,,5,6.4375,-11.4296875,1,0,1,rectangle,6.4375,-11.4296875,1,0,1,6.4375,-11.4296875,1,0,1,1,74,234,86,1,,,,,,,,
,,,,,,,,,,,,,FF,,,,,,,,1.017,,,,,,,,,,,,,,,,,,,,,,6100d28f1e251a6dff92f0df,61036e5d606dd7586d939d19,2021-07-29_23h14.13.162,Simcolourproject_2stim_asymm_v5,2020.2.10,MacIntel,60,61025ae37ef11b136ea224fe,,,,,,,,,550,-55.2890625,-47.85546875,1,0,1,response5disk,,2,-16.0625,-12.515625,1,0,1,rectangle,-16.0625,-12.515625,1,0,1,-16.0625,-12.515625,1,0,1,1,75,235,130,1,,,,,,,,
,,,,,,,,,,,,,FF,,,,,,,,2.7837,,,,,,,,,,,,,,,,,,,,,,6100d28f1e251a6dff92f0df,61036e5d606dd7586d939d19,2021-07-29_23h14.13.162,Simcolourproject_2stim_asymm_v5,2020.2.10,MacIntel,60,61025ae37ef11b136ea224fe,,,,,,,,,2258,44.34375,-72.34765625,1,0,1,response3disk,,4,-3.66796875,3.19140625,1,0,1,rectangle,-3.66796875,3.19140625,1,0,1,-3.66796875,3.19140625,1,0,1,1,76,236,41,1,,,,,,,,
,,,,,,,,,,,,,FF,,,,,,,,0.9836,,,,,,,,,,,,,,,,,,,,,,6100d28f1e251a6dff92f0df,61036e5d606dd7586d939d19,2021-07-29_23h14.13.162,Simcolourproject_2stim_asymm_v5,2020.2.10,MacIntel,60,61025ae37ef11b136ea224fe,,,,,,,,,2735,-38.390625,-86.609375,1,0,1,response5disk,,3,-26.51953125,-1.8515625,1,0,1,rectangle,-26.51953125,-1.8515625,1,0,1,-26.51953125,-1.8515625,1,0,1,1,77,237,126,1,,,,,,,,
,,,,,,,,,,,,,FF,,,,,,,,2.3854,,,,,,,,,,,,,,,,,,,,,,6100d28f1e251a6dff92f0df,61036e5d606dd7586d939d19,2021-07-29_23h14.13.162,Simcolourproject_2stim_asymm_v5,2020.2.10,MacIntel,60,61025ae37ef11b136ea224fe,,,,,,,,,2525,67.11328125,-32.3046875,1,0,1,response3disk,,5,1.19140625,0.9765625,1,0,1,rectangle,1.19140625,0.9765625,1,0,1,1.19140625,0.9765625,1,0,1,1,78,238,44,1,,,,,,,,
,,,,,,,,,,,,,FF,,,,,,,,1.8515,,,,,,,,,,,,,,,,,,,,,,6100d28f1e251a6dff92f0df,61036e5d606dd7586d939d19,2021-07-29_23h14.13.162,Simcolourproject_2stim_asymm_v5,2020.2.10,MacIntel,60,61025ae37ef11b136ea224fe,,,,,,,,,2797,103.6328125,-45.375,1,0,1,response3disk,,5,18.734375,-9.95703125,1,0,1,rectangle,18.734375,-9.95703125,1,0,1,18.734375,-9.95703125,1,0,1,1,79,239,119,1,,,,,,,,
,,,,,,,,,,,,,FF,,,,,,,,1.6492,,,,,,,,,,,,,,,,,,,,,,6100d28f1e251a6dff92f0df,61036e5d606dd7586d939d19,2021-07-29_23h14.13.162,Simcolourproject_2stim_asymm_v5,2020.2.10,MacIntel,60,61025ae37ef11b136ea224fe,,,,,,,,,1105,70.98828125,47.05859375,1,0,1,response1disk,,6,4.11328125,15.47265625,1,0,1,rectangle,4.11328125,15.47265625,1,0,1,4.11328125,15.47265625,1,0,1,1,80,240,87,1,,,,,,,,
,,,,,,,,,,,,,FF,,,,,,,,3.4846,,,,,,,,,,,,,,,,,,,,,,6100d28f1e251a6dff92f0df,61036e5d606dd7586d939d19,2021-07-29_23h14.13.162,Simcolourproject_2stim_asymm_v5,2020.2.10,MacIntel,60,61025ae37ef11b136ea224fe,,,,,,,,,1934,41.39453125,80.31640625,1,0,1,response1disk,,7,-13.33203125,-17.34375,1,0,1,rectangle,-13.33203125,-17.34375,1,0,1,-13.33203125,-17.34375,1,0,1,1,81,241,1,1,,,,,,,,
,,,,,,,,,,,,,FF,,,,,,,,2.2831,,,,,,,,,,,,,,,,,,,,,,6100d28f1e251a6dff92f0df,61036e5d606dd7586d939d19,2021-07-29_23h14.13.162,Simcolourproject_2stim_asymm_v5,2020.2.10,MacIntel,60,61025ae37ef11b136ea224fe,,,,,,,,,3287,-49.59375,-93.95703125,1,0,1,response5disk,,3,7.4296875,6.5546875,1,0,1,rectangle,7.4296875,6.5546875,1,0,1,7.4296875,6.5546875,1,0,1,1,82,242,20,1,,,,,,,,
,,,,,,,,,,,,,FF,,,,,,,,0.8671,,,,,,,,,,,,,,,,,,,,,,6100d28f1e251a6dff92f0df,61036e5d606dd7586d939d19,2021-07-29_23h14.13.162,Simcolourproject_2stim_asymm_v5,2020.2.10,MacIntel,60,61025ae37ef11b136ea224fe,,,,,,,,,1267,-45.59375,-79.44140625,1,0,1,response5disk,,3,-1.25390625,-1.78125,1,0,1,rectangle,-1.25390625,-1.78125,1,0,1,-1.25390625,-1.78125,1,0,1,1,83,243,36,1,,,,,,,,
,,,,,,,,,,,,,FF,,,,,,,,0.9168,,,,,,,,,,,,,,,,,,,,,,6100d28f1e251a6dff92f0df,61036e5d606dd7586d939d19,2021-07-29_23h14.13.162,Simcolourproject_2stim_asymm_v5,2020.2.10,MacIntel,60,61025ae37ef11b136ea224fe,,,,,,,,,3525,30.875,-55.4140625,1,0,1,response3disk,,4,12.95703125,-9.078125,1,0,1,rectangle,12.95703125,-9.078125,1,0,1,12.95703125,-9.078125,1,0,1,1,84,244,85,1,,,,,,,,
,,,,,,,,,,,,,FF,,,,,,,,0.8666,,,,,,,,,,,,,,,,,,,,,,6100d28f1e251a6dff92f0df,61036e5d606dd7586d939d19,2021-07-29_23h14.13.162,Simcolourproject_2stim_asymm_v5,2020.2.10,MacIntel,60,61025ae37ef11b136ea224fe,,,,,,,,,3041,-46.83984375,-81.8203125,1,0,1,response5disk,,3,-13.62109375,-2.7890625,1,0,1,rectangle,-13.62109375,-2.7890625,1,0,1,-13.62109375,-2.7890625,1,0,1,1,85,245,111,1,,,,,,,,
,,,,,,,,,,,,,FF,,,,,,,,0.7651,,,,,,,,,,,,,,,,,,,,,,6100d28f1e251a6dff92f0df,61036e5d606dd7586d939d19,2021-07-29_23h14.13.162,Simcolourproject_2stim_asymm_v5,2020.2.10,MacIntel,60,61025ae37ef11b136ea224fe,,,,,,,,,3106,-70.4765625,-46.84375,1,0,1,response5disk,,2,6.1640625,11.375,1,0,1,rectangle,6.1640625,11.375,1,0,1,6.1640625,11.375,1,0,1,1,86,246,88,1,,,,,,,,
,,,,,,,,,,,,,FF,,,,,,,,1.1677,,,,,,,,,,,,,,,,,,,,,,6100d28f1e251a6dff92f0df,61036e5d606dd7586d939d19,2021-07-29_23h14.13.162,Simcolourproject_2stim_asymm_v5,2020.2.10,MacIntel,60,61025ae37ef11b136ea224fe,,,,,,,,,821,-75.3046875,-22.3671875,1,0,1,response5disk,,2,-6.57421875,-10.6328125,1,0,1,rectangle,-6.57421875,-10.6328125,1,0,1,-6.57421875,-10.6328125,1,0,1,1,87,247,123,1,,,,,,,,
,,,,,,,,,,,,,FF,,,,,,,,2.8505,,,,,,,,,,,,,,,,,,,,,,6100d28f1e251a6dff92f0df,61036e5d606dd7586d939d19,2021-07-29_23h14.13.162,Simcolourproject_2stim_asymm_v5,2020.2.10,MacIntel,60,61025ae37ef11b136ea224fe,,,,,,,,,413,62.3359375,43.34375,1,0,1,response1disk,,6,-3.4375,-12.40234375,1,0,1,rectangle,-3.4375,-12.40234375,1,0,1,-3.4375,-12.40234375,1,0,1,1,88,248,157,1,,,,,,,,
