key_resp.keys,key_resp.rt,key_resp_14.keys,key_resp_14.rt,key_resp_15.keys,key_resp_15.rt,key_resp_17.keys,key_resp_17.rt,key_resp_9.keys,key_resp_9.rt,key_resp_10.keys,key_resp_10.rt,practice_comparison,Ecc,mouse_5.x,mouse_5.y,mouse_5.leftButton,mouse_5.midButton,mouse_5.rightButton,mouse_5.clicked_name,pracsimilarity,response_time,mouse_10.x,mouse_10.y,mouse_10.leftButton,mouse_10.midButton,mouse_10.rightButton,mouse_10.clicked_name,mouse_7.x,mouse_7.y,mouse_7.leftButton,mouse_7.midButton,mouse_7.rightButton,mouse_6.x,mouse_6.y,mouse_6.leftButton,mouse_6.midButton,mouse_6.rightButton,duringprac.thisRepN,duringprac.thisTrialN,duringprac.thisN,duringprac.thisIndex,duringprac.ran,participant,session,date,expName,psychopyVersion,OS,frameRate,study_id,mouse_7.clicked_name,catchpracsimilarity,catch_response_time,catchnumberprac,catchtrialorderprac,mouse_6.clicked_name,key_resp_22.keys,key_resp_22.rt,realcomparison,mouse.x,mouse.y,mouse.leftButton,mouse.midButton,mouse.rightButton,mouse.clicked_name,Colour2,similarity,mouse_2.x,mouse_2.y,mouse_2.leftButton,mouse_2.midButton,mouse_2.rightButton,mouse_2.clicked_name,mouse_3.x,mouse_3.y,mouse_3.leftButton,mouse_3.midButton,mouse_3.rightButton,mouse_11.x,mouse_11.y,mouse_11.leftButton,mouse_11.midButton,mouse_11.rightButton,trials_2.thisRepN,trials_2.thisTrialN,trials_2.thisN,trials_2.thisIndex,trials_2.ran,Colour1,mouse_3.clicked_name,catchornah,catchsimilarity,catchnumber,catchtrialorder,catchRT,mouse_11.clicked_name
space,6.4916,space,1.7982,space,7.5187,space,1.0674,space,1.2227,space,2.4821,141,FF,48.00469971,79.35424805,1,0,0,response1disk_5,7,9.288,2.682250977,-1.805389404,1,0,0,rectangle_8,2.682250977,-1.805389404,1,0,0,2.682250977,-1.805389404,1,0,0,0,0,0,0,1,61008e0692c4e112f80c097b,610367cf38ea569b5abc4281,2021-07-29_22h46.29.178,Simcolourproject_2stim_asymm_v5,2020.2.10,MacIntel,60,61025ae37ef11b136ea224fe,,,,,,,,,,,,,,,,,,,,,,,,,,,,,,,,,,,,,,,,,,,,,,
,,,,,,,,,,,,104,PF,94.41412354,-34.16220093,1,0,0,response3disk_5,5,4.317,-12.41339111,-0.17074585,1,0,0,rectangle_8,-31.55499268,-82.91619873,1,0,0,3.748901367,-4.820251465,1,0,0,0,1,1,6,1,61008e0692c4e112f80c097b,610367cf38ea569b5abc4281,2021-07-29_22h46.29.178,Simcolourproject_2stim_asymm_v5,2020.2.10,MacIntel,60,61025ae37ef11b136ea224fe,response5disk_7,3,3.066,3,"[2,5]",rectangle_4,,,,,,,,,,,,,,,,,,,,,,,,,,,,,,,,,,,,,,,,
,,,,,,,,,,,,16,FF,-61.73815918,-34.95645142,1,0,0,response5disk_5,2,4.0828,7.279418945,-6.362854004,1,0,0,rectangle_8,7.279418945,-6.362854004,1,0,0,7.279418945,-6.362854004,1,0,0,0,2,2,5,1,61008e0692c4e112f80c097b,610367cf38ea569b5abc4281,2021-07-29_22h46.29.178,Simcolourproject_2stim_asymm_v5,2020.2.10,MacIntel,60,61025ae37ef11b136ea224fe,,,,,,,,,,,,,,,,,,,,,,,,,,,,,,,,,,,,,,,,,,,,,,
,,,,,,,,,,,,118,PF,47.18707275,-77.94458008,1,0,0,response3disk_5,4,2.084,4.383178711,-8.270263672,1,0,0,rectangle_8,4.383178711,-8.270263672,1,0,0,4.383178711,-8.270263672,1,0,0,0,3,3,4,1,61008e0692c4e112f80c097b,610367cf38ea569b5abc4281,2021-07-29_22h46.29.178,Simcolourproject_2stim_asymm_v5,2020.2.10,MacIntel,60,61025ae37ef11b136ea224fe,,,,,,,,,,,,,,,,,,,,,,,,,,,,,,,,,,,,,,,,,,,,,,
,,,,,,,,,,,,131,PF,-22.09844971,-88.61651611,1,0,0,response5disk_5,3,7.0501,-5.130310059,-3.286956787,1,0,0,rectangle_8,-42.40026855,-70.38360596,1,0,0,-13.92913818,-7.730621338,1,0,0,0,4,4,1,1,61008e0692c4e112f80c097b,610367cf38ea569b5abc4281,2021-07-29_22h46.29.178,Simcolourproject_2stim_asymm_v5,2020.2.10,MacIntel,60,61025ae37ef11b136ea224fe,response5disk_7,3,1.334,3,"[2,5]",rectangle_4,,,,,,,,,,,,,,,,,,,,,,,,,,,,,,,,,,,,,,,,
,,,,,,,,,,,,89,FF,-63.75030518,-33.24307251,1,0,0,response5disk_5,2,1.3504,-4.32421875,-1.088867188,1,0,0,rectangle_8,-4.32421875,-1.088867188,1,0,0,-4.32421875,-1.088867188,1,0,0,0,5,5,3,1,61008e0692c4e112f80c097b,610367cf38ea569b5abc4281,2021-07-29_22h46.29.178,Simcolourproject_2stim_asymm_v5,2020.2.10,MacIntel,60,61025ae37ef11b136ea224fe,,,,,,,,,,,,,,,,,,,,,,,,,,,,,,,,,,,,,,,,,,,,,,
,,,,,,,,,,,,62,PF,35.27923584,-72.85119629,1,0,0,response3disk_5,4,2.1676,4.059082031,1.376953125,1,0,0,rectangle_8,4.059082031,1.376953125,1,0,0,4.059082031,1.376953125,1,0,0,0,6,6,2,1,61008e0692c4e112f80c097b,610367cf38ea569b5abc4281,2021-07-29_22h46.29.178,Simcolourproject_2stim_asymm_v5,2020.2.10,MacIntel,60,61025ae37ef11b136ea224fe,,,,,,,,,,,,,,,,,,,,,,,,,,,,,,,,,,,,,,,,,,,,,,
,,,,,,,,,,,,,FF,,,,,,,,2.2835,,,,,,,,,,,,,,,,,,,,,,61008e0692c4e112f80c097b,610367cf38ea569b5abc4281,2021-07-29_22h46.29.178,Simcolourproject_2stim_asymm_v5,2020.2.10,MacIntel,60,61025ae37ef11b136ea224fe,,,,,,,space,2.2738,313,85.16412354,-50.22537231,1,0,0,response3disk,,5,-28.36920166,12.92266846,1,0,0,rectangle,-28.36920166,12.92266846,1,0,0,-28.36920166,12.92266846,1,0,0,0,0,0,13,1,,,,,,,,
,,,,,,,,,,,,,FF,,,,,,,,1.5346,,,,,,,,,,,,,,,,,,,,,,61008e0692c4e112f80c097b,610367cf38ea569b5abc4281,2021-07-29_22h46.29.178,Simcolourproject_2stim_asymm_v5,2020.2.10,MacIntel,60,61025ae37ef11b136ea224fe,,,,,,,,,2290,55.86151123,-86.06610107,1,0,0,response3disk,,4,15.68432617,-5.186553955,1,0,0,rectangle,15.68432617,-5.186553955,1,0,0,15.68432617,-5.186553955,1,0,0,0,1,1,34,1,,,,,,,,
,,,,,,,,,,,,,FF,,,,,,,,1.634,,,,,,,,,,,,,,,,,,,,,,61008e0692c4e112f80c097b,610367cf38ea569b5abc4281,2021-07-29_22h46.29.178,Simcolourproject_2stim_asymm_v5,2020.2.10,MacIntel,60,61025ae37ef11b136ea224fe,,,,,,,,,590,64.65234375,-38.3692627,1,0,0,response3disk,,5,5.362731934,-10.34338379,1,0,0,rectangle,5.362731934,-10.34338379,1,0,0,5.362731934,-10.34338379,1,0,0,0,2,2,26,1,,,,,,,,
,,,,,,,,,,,,,FF,,,,,,,,1.0171,,,,,,,,,,,,,,,,,,,,,,61008e0692c4e112f80c097b,610367cf38ea569b5abc4281,2021-07-29_22h46.29.178,Simcolourproject_2stim_asymm_v5,2020.2.10,MacIntel,60,61025ae37ef11b136ea224fe,,,,,,,,,1283,-31.76324463,-59.06027222,1,0,0,response5disk,,3,-2.703735352,9.151855469,1,0,0,rectangle,-2.703735352,9.151855469,1,0,0,-2.703735352,9.151855469,1,0,0,0,3,3,63,1,,,,,,,,
,,,,,,,,,,,,,FF,,,,,,,,1.3831,,,,,,,,,,,,,,,,,,,,,,61008e0692c4e112f80c097b,610367cf38ea569b5abc4281,2021-07-29_22h46.29.178,Simcolourproject_2stim_asymm_v5,2020.2.10,MacIntel,60,61025ae37ef11b136ea224fe,,,,,,,,,3057,-54.6751709,-31.7649231,1,0,0,response5disk,,2,9.616577148,10.03231812,1,0,0,rectangle,9.616577148,10.03231812,1,0,0,9.616577148,10.03231812,1,0,0,0,4,4,89,1,,,,,,,,
,,,,,,,,,,,,,FF,,,,,,,,1.0668,,,,,,,,,,,,,,,,,,,,,,61008e0692c4e112f80c097b,610367cf38ea569b5abc4281,2021-07-29_22h46.29.178,Simcolourproject_2stim_asymm_v5,2020.2.10,MacIntel,60,61025ae37ef11b136ea224fe,,,,,,,,,3001,59.85095215,-49.04098511,1,0,0,response3disk,,5,2.361877441,-15.73065186,1,0,0,rectangle,2.361877441,-15.73065186,1,0,0,2.361877441,-15.73065186,1,0,0,0,5,5,8,1,,,,,,,,
,,,,,,,,,,,,,FF,,,,,,,,1.3336,,,,,,,,,,,,,,,,,,,,,,61008e0692c4e112f80c097b,610367cf38ea569b5abc4281,2021-07-29_22h46.29.178,Simcolourproject_2stim_asymm_v5,2020.2.10,MacIntel,60,61025ae37ef11b136ea224fe,,,,,,,,,769,23.4921875,-77.27642822,1,0,0,response3disk,,4,-7.355651855,4.688140869,1,0,0,rectangle,-7.355651855,4.688140869,1,0,0,-7.355651855,4.688140869,1,0,0,0,6,6,40,1,,,,,,,,
,,,,,,,,,,,,,FF,,,,,,,,1.3493,,,,,,,,,,,,,,,,,,,,,,61008e0692c4e112f80c097b,610367cf38ea569b5abc4281,2021-07-29_22h46.29.178,Simcolourproject_2stim_asymm_v5,2020.2.10,MacIntel,60,61025ae37ef11b136ea224fe,,,,,,,,,2634,97.62744141,44.59872437,1,0,0,response1disk,,6,0.04296875,13.3939209,1,0,0,rectangle,0.04296875,13.3939209,1,0,0,0.04296875,13.3939209,1,0,0,0,7,7,22,1,,,,,,,,
,,,,,,,,,,,,,FF,,,,,,,,1.4174,,,,,,,,,,,,,,,,,,,,,,61008e0692c4e112f80c097b,610367cf38ea569b5abc4281,2021-07-29_22h46.29.178,Simcolourproject_2stim_asymm_v5,2020.2.10,MacIntel,60,61025ae37ef11b136ea224fe,,,,,,,,,4308,78.71459961,-30.09103394,1,0,0,response3disk,,5,-0.123291016,-9.892578125,1,0,0,rectangle,-0.123291016,-9.892578125,1,0,0,-0.123291016,-9.892578125,1,0,0,0,8,8,43,1,,,,,,,,
,,,,,,,,,,,,,FF,,,,,,,,2.2989,,,,,,,,,,,,,,,,,,,,,,61008e0692c4e112f80c097b,610367cf38ea569b5abc4281,2021-07-29_22h46.29.178,Simcolourproject_2stim_asymm_v5,2020.2.10,MacIntel,60,61025ae37ef11b136ea224fe,,,,,,,,,1653,85.39300537,-55.29052734,1,0,0,response3disk,,5,-6.615234375,-5.451721191,1,0,0,rectangle,-6.615234375,-5.451721191,1,0,0,-6.615234375,-5.451721191,1,0,0,0,9,9,54,1,,,,,,,,
,,,,,,,,,,,,,FF,,,,,,,,1.2822,,,,,,,,,,,,,,,,,,,,,,61008e0692c4e112f80c097b,610367cf38ea569b5abc4281,2021-07-29_22h46.29.178,Simcolourproject_2stim_asymm_v5,2020.2.10,MacIntel,60,61025ae37ef11b136ea224fe,,,,,,,,,132,74.74060059,49.46725464,1,0,0,response1disk,,6,-17.85876465,-3.929779053,1,0,0,rectangle,-17.85876465,-3.929779053,1,0,0,-17.85876465,-3.929779053,1,0,0,0,10,10,27,1,,,,,,,,
,,,,,,,,,,,,,FF,,,,,,,,1.0513,,,,,,,,,,,,,,,,,,,,,,61008e0692c4e112f80c097b,610367cf38ea569b5abc4281,2021-07-29_22h46.29.178,Simcolourproject_2stim_asymm_v5,2020.2.10,MacIntel,60,61025ae37ef11b136ea224fe,,,,,,,,,3441,-72.90112305,-55.96630859,1,0,0,response5disk,,2,-6.443725586,-2.058319092,1,0,0,rectangle,-6.443725586,-2.058319092,1,0,0,-6.443725586,-2.058319092,1,0,0,0,11,11,15,1,,,,,,,,
,,,,,,,,,,,,,FF,,,,,,,,1.3166,,,,,,,,,,,,,,,,,,,,,,61008e0692c4e112f80c097b,610367cf38ea569b5abc4281,2021-07-29_22h46.29.178,Simcolourproject_2stim_asymm_v5,2020.2.10,MacIntel,60,61025ae37ef11b136ea224fe,,,,,,,,,1483,79.31237793,31.96844482,1,0,0,response1disk,,6,23.20202637,11.68612671,1,0,0,rectangle,23.20202637,11.68612671,1,0,0,23.20202637,11.68612671,1,0,0,0,12,12,70,1,,,,,,,,
,,,,,,,,,,,,,FF,,,,,,,,1.6013,,,,,,,,,,,,,,,,,,,,,,61008e0692c4e112f80c097b,610367cf38ea569b5abc4281,2021-07-29_22h46.29.178,Simcolourproject_2stim_asymm_v5,2020.2.10,MacIntel,60,61025ae37ef11b136ea224fe,,,,,,,,,2108,-87.2479248,-33.48138428,1,0,0,response5disk,,2,7.670410156,-6.539306641,1,0,0,rectangle,7.670410156,-6.539306641,1,0,0,7.670410156,-6.539306641,1,0,0,0,13,13,84,1,,,,,,,,
,,,,,,,,,,,,,FF,,,,,,,,1.0332,,,,,,,,,,,,,,,,,,,,,,61008e0692c4e112f80c097b,610367cf38ea569b5abc4281,2021-07-29_22h46.29.178,Simcolourproject_2stim_asymm_v5,2020.2.10,MacIntel,60,61025ae37ef11b136ea224fe,,,,,,,,,1438,-35.48968506,-53.99023438,1,0,0,response5disk,,3,13.52081299,-2.272918701,1,0,0,rectangle,13.52081299,-2.272918701,1,0,0,13.52081299,-2.272918701,1,0,0,0,14,14,99,1,,,,,,,,
,,,,,,,,,,,,,FF,,,,,,,,0.7677,,,,,,,,,,,,,,,,,,,,,,61008e0692c4e112f80c097b,610367cf38ea569b5abc4281,2021-07-29_22h46.29.178,Simcolourproject_2stim_asymm_v5,2020.2.10,MacIntel,60,61025ae37ef11b136ea224fe,,,,,,,,,2211,33.00439453,84.12731934,1,0,0,response1disk,,7,5.010498047,1.641235352,1,0,0,rectangle,5.010498047,1.641235352,1,0,0,5.010498047,1.641235352,1,0,0,0,15,15,1,1,,,,,,,,
,,,,,,,,,,,,,FF,,,,,,,,0.9171,,,,,,,,,,,,,,,,,,,,,,61008e0692c4e112f80c097b,610367cf38ea569b5abc4281,2021-07-29_22h46.29.178,Simcolourproject_2stim_asymm_v5,2020.2.10,MacIntel,60,61025ae37ef11b136ea224fe,,,,,,,,,719,-69.25927734,-38.07858276,1,0,0,response5disk,,2,2.915527344,-1.153381348,1,0,0,rectangle,2.915527344,-1.153381348,1,0,0,2.915527344,-1.153381348,1,0,0,0,16,16,107,1,,,,,,,,
,,,,,,,,,,,,,FF,,,,,,,,0.8495,,,,,,,,,,,,,,,,,,,,,,61008e0692c4e112f80c097b,610367cf38ea569b5abc4281,2021-07-29_22h46.29.178,Simcolourproject_2stim_asymm_v5,2020.2.10,MacIntel,60,61025ae37ef11b136ea224fe,,,,,,,,,3885,43.8236084,65.91549683,1,0,0,response1disk,,7,11.05682373,-14.46221924,1,0,0,rectangle,11.05682373,-14.46221924,1,0,0,11.05682373,-14.46221924,1,0,0,0,17,17,92,1,,,,,,,,
,,,,,,,,,,,,,FF,,,,,,,,0.7673,,,,,,,,,,,,,,,,,,,,,,61008e0692c4e112f80c097b,610367cf38ea569b5abc4281,2021-07-29_22h46.29.178,Simcolourproject_2stim_asymm_v5,2020.2.10,MacIntel,60,61025ae37ef11b136ea224fe,,,,,,,,,3289,31.89794922,73.96810913,1,0,0,response1disk,,7,4.21685791,-0.026855469,1,0,0,rectangle,4.21685791,-0.026855469,1,0,0,4.21685791,-0.026855469,1,0,0,0,18,18,101,1,,,,,,,,
,,,,,,,,,,,,,FF,,,,,,,,1.4001,,,,,,,,,,,,,,,,,,,,,,61008e0692c4e112f80c097b,610367cf38ea569b5abc4281,2021-07-29_22h46.29.178,Simcolourproject_2stim_asymm_v5,2020.2.10,MacIntel,60,61025ae37ef11b136ea224fe,,,,,,,,,2169,-42.56427002,-59.45217896,1,0,0,response5disk,,3,-22.58325195,-6.863891602,1,0,0,rectangle,-22.58325195,-6.863891602,1,0,0,-22.58325195,-6.863891602,1,0,0,0,19,19,136,1,,,,,,,,
,,,,,,,,,,,,,FF,,,,,,,,1.1151,,,,,,,,,,,,,,,,,,,,,,61008e0692c4e112f80c097b,610367cf38ea569b5abc4281,2021-07-29_22h46.29.178,Simcolourproject_2stim_asymm_v5,2020.2.10,MacIntel,60,61025ae37ef11b136ea224fe,,,,,,,,,1585,30.11022949,-61.08032227,1,0,0,response3disk,,4,12.79949951,-8.921783447,1,0,0,rectangle,12.79949951,-8.921783447,1,0,0,12.79949951,-8.921783447,1,0,0,0,20,20,76,1,,,,,,,,
,,,,,,,,,,,,,FF,,,,,,,,1.8996,,,,,,,,,,,,,,,,,,,,,,61008e0692c4e112f80c097b,610367cf38ea569b5abc4281,2021-07-29_22h46.29.178,Simcolourproject_2stim_asymm_v5,2020.2.10,MacIntel,60,61025ae37ef11b136ea224fe,,,,,,,,,1852,29.45776367,66.53591919,1,0,0,response1disk,,7,5.589355469,-7.46206665,1,0,0,rectangle,5.589355469,-7.46206665,1,0,0,5.589355469,-7.46206665,1,0,0,0,21,21,49,1,,,,,,,,
,,,,,,,,,,,,,FF,,,,,,,,0.9004,,,,,,,,,,,,,,,,,,,,,,61008e0692c4e112f80c097b,610367cf38ea569b5abc4281,2021-07-29_22h46.29.178,Simcolourproject_2stim_asymm_v5,2020.2.10,MacIntel,60,61025ae37ef11b136ea224fe,,,,,,,,,1134,-58.21502686,-34.7824707,1,0,0,response5disk,,2,9.735534668,-6.761383057,1,0,0,rectangle,9.735534668,-6.761383057,1,0,0,9.735534668,-6.761383057,1,0,0,0,22,22,111,1,,,,,,,,
,,,,,,,,,,,,,FF,,,,,,,,5.0678,,,,,,,,,,,,,,,,,,,,,,61008e0692c4e112f80c097b,610367cf38ea569b5abc4281,2021-07-29_22h46.29.178,Simcolourproject_2stim_asymm_v5,2020.2.10,MacIntel,60,61025ae37ef11b136ea224fe,,,,,,,,,1571,63.90002441,-27.43240356,1,0,0,response3disk,,5,0.776428223,-3.945129395,1,0,0,rectangle,0.776428223,-3.945129395,1,0,0,0.776428223,-3.945129395,1,0,0,0,23,23,64,1,,,,,,,,
,,,,,,,,,,,,,FF,,,,,,,,0.7,,,,,,,,,,,,,,,,,,,,,,61008e0692c4e112f80c097b,610367cf38ea569b5abc4281,2021-07-29_22h46.29.178,Simcolourproject_2stim_asymm_v5,2020.2.10,MacIntel,60,61025ae37ef11b136ea224fe,,,,,,,,,2090,-63.10253906,-42.66723633,1,0,0,response5disk,,2,3.737731934,-5.195068359,1,0,0,rectangle,3.737731934,-5.195068359,1,0,0,3.737731934,-5.195068359,1,0,0,0,24,24,97,1,,,,,,,,
,,,,,,,,,,,,,FF,,,,,,,,2.316,,,,,,,,,,,,,,,,,,,,,,61008e0692c4e112f80c097b,610367cf38ea569b5abc4281,2021-07-29_22h46.29.178,Simcolourproject_2stim_asymm_v5,2020.2.10,MacIntel,60,61025ae37ef11b136ea224fe,,,,,,,,,959,-35.84625244,-70.94842529,1,0,0,response5disk,,3,-4.195983887,-15.23147583,1,0,0,rectangle,-4.195983887,-15.23147583,1,0,0,-4.195983887,-15.23147583,1,0,0,0,25,25,81,1,,,,,,,,
,,,,,,,,,,,,,FF,,,,,,,,0.9001,,,,,,,,,,,,,,,,,,,,,,61008e0692c4e112f80c097b,610367cf38ea569b5abc4281,2021-07-29_22h46.29.178,Simcolourproject_2stim_asymm_v5,2020.2.10,MacIntel,60,61025ae37ef11b136ea224fe,,,,,,,,,378,-54.09912109,-29.51199341,1,0,0,response5disk,,2,4.281433105,0.575469971,1,0,0,rectangle,4.281433105,0.575469971,1,0,0,4.281433105,0.575469971,1,0,0,0,26,26,5,1,,,,,,,,
,,,,,,,,,,,,,FF,,,,,,,,1.2328,,,,,,,,,,,,,,,,,,,,,,61008e0692c4e112f80c097b,610367cf38ea569b5abc4281,2021-07-29_22h46.29.178,Simcolourproject_2stim_asymm_v5,2020.2.10,MacIntel,60,61025ae37ef11b136ea224fe,,,,,,,,,4241,-26.53076172,-62.96783447,1,0,0,response5disk,,3,-12.6942749,6.030395508,1,0,0,rectangle,-12.6942749,6.030395508,1,0,0,-12.6942749,6.030395508,1,0,0,0,27,27,85,1,,,,,,,,
,,,,,,,,,,,,,FF,,,,,,,,1.5337,,,,,,,,,,,,,,,,,,,,,,61008e0692c4e112f80c097b,610367cf38ea569b5abc4281,2021-07-29_22h46.29.178,Simcolourproject_2stim_asymm_v5,2020.2.10,MacIntel,60,61025ae37ef11b136ea224fe,,,,,,,,,2450,72.11541748,28.23318481,1,0,0,response1disk,,6,11.16192627,5.647674561,1,0,0,rectangle,11.16192627,5.647674561,1,0,0,11.16192627,5.647674561,1,0,0,0,28,28,150,1,,,,,,,,
,,,,,,,,,,,,,FF,,,,,,,,1.0845,,,,,,,,,,,,,,,,,,,,,,61008e0692c4e112f80c097b,610367cf38ea569b5abc4281,2021-07-29_22h46.29.178,Simcolourproject_2stim_asymm_v5,2020.2.10,MacIntel,60,61025ae37ef11b136ea224fe,,,,,,,,,430,-44.28253174,-60.39974976,1,0,0,response5disk,,3,-12.53106689,4.040222168,1,0,0,rectangle,-12.53106689,4.040222168,1,0,0,-12.53106689,4.040222168,1,0,0,0,29,29,104,1,,,,,,,,
,,,,,,,,,,,,,FF,,,,,,,,1.2489,,,,,,,,,,,,,,,,,,,,,,61008e0692c4e112f80c097b,610367cf38ea569b5abc4281,2021-07-29_22h46.29.178,Simcolourproject_2stim_asymm_v5,2020.2.10,MacIntel,60,61025ae37ef11b136ea224fe,,,,,,,,,277,-70.71453857,42.79934692,1,0,0,response7disk,,1,7.313537598,9.794647217,1,0,0,rectangle,7.313537598,9.794647217,1,0,0,7.313537598,9.794647217,1,0,0,0,30,30,79,1,,,,,,,,
,,,,,,,,,,,,,FF,,,,,,,,1.6179,,,,,,,,,,,,,,,,,,,,,,61008e0692c4e112f80c097b,610367cf38ea569b5abc4281,2021-07-29_22h46.29.178,Simcolourproject_2stim_asymm_v5,2020.2.10,MacIntel,60,61025ae37ef11b136ea224fe,,,,,,,,,4015,64.20477295,38.07727051,1,0,0,response1disk,,6,-12.18341064,-12.83050537,1,0,0,rectangle,-12.18341064,-12.83050537,1,0,0,-12.18341064,-12.83050537,1,0,0,0,31,31,154,1,,,,,,,,
,,,,,,,,,,,,,FF,,,,,,,,0.8178,,,,,,,,,,,,,,,,,,,,,,61008e0692c4e112f80c097b,610367cf38ea569b5abc4281,2021-07-29_22h46.29.178,Simcolourproject_2stim_asymm_v5,2020.2.10,MacIntel,60,61025ae37ef11b136ea224fe,,,,,,,,,155,27.72290039,-51.32583618,1,0,0,response3disk,,4,-5.778137207,-8.469940186,1,0,0,rectangle,-5.778137207,-8.469940186,1,0,0,-5.778137207,-8.469940186,1,0,0,0,32,32,152,1,,,,,,,,
,,,,,,,,,,,,,FF,,,,,,,,1.3159,,,,,,,,,,,,,,,,,,,,,,61008e0692c4e112f80c097b,610367cf38ea569b5abc4281,2021-07-29_22h46.29.178,Simcolourproject_2stim_asymm_v5,2020.2.10,MacIntel,60,61025ae37ef11b136ea224fe,,,,,,,,,964,77.88580322,29.43139648,1,0,0,response1disk,,6,13.2166748,5.211853027,1,0,0,rectangle,13.2166748,5.211853027,1,0,0,13.2166748,5.211853027,1,0,0,0,33,33,155,1,,,,,,,,
,,,,,,,,,,,,,FF,,,,,,,,1.0493,,,,,,,,,,,,,,,,,,,,,,61008e0692c4e112f80c097b,610367cf38ea569b5abc4281,2021-07-29_22h46.29.178,Simcolourproject_2stim_asymm_v5,2020.2.10,MacIntel,60,61025ae37ef11b136ea224fe,,,,,,,,,3718,-57.93170166,-31.36553955,1,0,0,response5disk,,2,14.62835693,15.574646,1,0,0,rectangle,14.62835693,15.574646,1,0,0,14.62835693,15.574646,1,0,0,0,34,34,157,1,,,,,,,,
,,,,,,,,,,,,,FF,,,,,,,,0.7329,,,,,,,,,,,,,,,,,,,,,,61008e0692c4e112f80c097b,610367cf38ea569b5abc4281,2021-07-29_22h46.29.178,Simcolourproject_2stim_asymm_v5,2020.2.10,MacIntel,60,61025ae37ef11b136ea224fe,,,,,,,,,3670,-60.36901855,45.29467773,1,0,0,response7disk,,1,20.08435059,-1.031738281,1,0,0,rectangle,20.08435059,-1.031738281,1,0,0,20.08435059,-1.031738281,1,0,0,0,35,35,109,1,,,,,,,,
,,,,,,,,,,,,,FF,,,,,,,,1.9662,,,,,,,,,,,,,,,,,,,,,,61008e0692c4e112f80c097b,610367cf38ea569b5abc4281,2021-07-29_22h46.29.178,Simcolourproject_2stim_asymm_v5,2020.2.10,MacIntel,60,61025ae37ef11b136ea224fe,,,,,,,,,2395,65.86578369,-28.65246582,1,0,0,response3disk,,5,-0.004211426,-6.127502441,1,0,0,rectangle,76.69378662,-47.078125,1,0,0,-13.24212646,-4.061157227,1,0,0,0,36,36,24,1,,response3disk_3,TRUE,5,5,"[275,44,93,44,253,103,322,263,226,286,62,42,279,297,306,219,239,136,37,315]",1.5006,rectangle
,,,,,,,,,,,,,FF,,,,,,,,3.5842,,,,,,,,,,,,,,,,,,,,,,61008e0692c4e112f80c097b,610367cf38ea569b5abc4281,2021-07-29_22h46.29.178,Simcolourproject_2stim_asymm_v5,2020.2.10,MacIntel,60,61025ae37ef11b136ea224fe,,,,,,,,,3303,74.02911377,-47.50485229,1,0,0,response3disk,,5,-4.636413574,3.482635498,1,0,0,rectangle,-4.636413574,3.482635498,1,0,0,-4.636413574,3.482635498,1,0,0,0,37,37,50,1,,,,,,,,
,,,,,,,,,,,,,FF,,,,,,,,1.1327,,,,,,,,,,,,,,,,,,,,,,61008e0692c4e112f80c097b,610367cf38ea569b5abc4281,2021-07-29_22h46.29.178,Simcolourproject_2stim_asymm_v5,2020.2.10,MacIntel,60,61025ae37ef11b136ea224fe,,,,,,,,,1101,37.35626221,75.9369812,1,0,0,response1disk,,7,11.46960449,3.83203125,1,0,0,rectangle,11.46960449,3.83203125,1,0,0,11.46960449,3.83203125,1,0,0,0,38,38,45,1,,,,,,,,
,,,,,,,,,,,,,FF,,,,,,,,1.0175,,,,,,,,,,,,,,,,,,,,,,61008e0692c4e112f80c097b,610367cf38ea569b5abc4281,2021-07-29_22h46.29.178,Simcolourproject_2stim_asymm_v5,2020.2.10,MacIntel,60,61025ae37ef11b136ea224fe,,,,,,,,,224,74.60375977,-42.47299194,1,0,0,response3disk,,5,-7.231323242,-3.869018555,1,0,0,rectangle,-7.231323242,-3.869018555,1,0,0,-7.231323242,-3.869018555,1,0,0,0,39,39,126,1,,,,,,,,
,,,,,,,,,,,,,FF,,,,,,,,0.9837,,,,,,,,,,,,,,,,,,,,,,61008e0692c4e112f80c097b,610367cf38ea569b5abc4281,2021-07-29_22h46.29.178,Simcolourproject_2stim_asymm_v5,2020.2.10,MacIntel,60,61025ae37ef11b136ea224fe,,,,,,,,,1107,-44.62469482,-85.97180176,1,0,0,response5disk,,3,-7.271789551,-4.775756836,1,0,0,rectangle,-7.271789551,-4.775756836,1,0,0,-7.271789551,-4.775756836,1,0,0,0,40,40,133,1,,,,,,,,
,,,,,,,,,,,,,FF,,,,,,,,1.0828,,,,,,,,,,,,,,,,,,,,,,61008e0692c4e112f80c097b,610367cf38ea569b5abc4281,2021-07-29_22h46.29.178,Simcolourproject_2stim_asymm_v5,2020.2.10,MacIntel,60,61025ae37ef11b136ea224fe,,,,,,,,,2877,64.10839844,-34.44506836,1,0,0,response3disk,,5,13.50579834,-0.485626221,1,0,0,rectangle,-74.27880859,-35.70803833,1,0,0,8.391235352,-5.929443359,1,0,0,0,41,41,32,1,,response5disk_3,TRUE,2,2,"[275,44,93,44,253,103,322,263,226,286,62,42,279,297,306,219,239,136,37,315]",1.9825,rectangle
,,,,,,,,,,,,,FF,,,,,,,,1.733,,,,,,,,,,,,,,,,,,,,,,61008e0692c4e112f80c097b,610367cf38ea569b5abc4281,2021-07-29_22h46.29.178,Simcolourproject_2stim_asymm_v5,2020.2.10,MacIntel,60,61025ae37ef11b136ea224fe,,,,,,,,,2643,31.83477783,-71.90087891,1,0,0,response3disk,,4,6.029785156,-3.500244141,1,0,0,rectangle,6.029785156,-3.500244141,1,0,0,6.029785156,-3.500244141,1,0,0,0,42,42,71,1,,,,,,,,
,,,,,,,,,,,,,FF,,,,,,,,1.1497,,,,,,,,,,,,,,,,,,,,,,61008e0692c4e112f80c097b,610367cf38ea569b5abc4281,2021-07-29_22h46.29.178,Simcolourproject_2stim_asymm_v5,2020.2.10,MacIntel,60,61025ae37ef11b136ea224fe,,,,,,,,,2506,33.21850586,69.61730957,1,0,0,response1disk,,7,16.56433105,-0.466125488,1,0,0,rectangle,-42.87756348,84.53375244,1,0,0,4.284423828,-9.257415771,1,0,0,0,43,43,121,1,,response7disk_3,TRUE,0,0,"[275,44,93,44,253,103,322,263,226,286,62,42,279,297,306,219,239,136,37,315]",1.4832,rectangle
,,,,,,,,,,,,,FF,,,,,,,,2.7673,,,,,,,,,,,,,,,,,,,,,,61008e0692c4e112f80c097b,610367cf38ea569b5abc4281,2021-07-29_22h46.29.178,Simcolourproject_2stim_asymm_v5,2020.2.10,MacIntel,60,61025ae37ef11b136ea224fe,,,,,,,,,3886,61.91717529,46.98153687,1,0,0,response1disk,,6,3.448303223,12.13519287,1,0,0,rectangle,3.448303223,12.13519287,1,0,0,3.448303223,12.13519287,1,0,0,0,44,44,69,1,,,,,,,,
,,,,,,,,,,,,,FF,,,,,,,,1.0007,,,,,,,,,,,,,,,,,,,,,,61008e0692c4e112f80c097b,610367cf38ea569b5abc4281,2021-07-29_22h46.29.178,Simcolourproject_2stim_asymm_v5,2020.2.10,MacIntel,60,61025ae37ef11b136ea224fe,,,,,,,,,4357,-69.93737793,22.44317627,1,0,0,response7disk,,1,2.721252441,4.015289307,1,0,0,rectangle,2.721252441,4.015289307,1,0,0,2.721252441,4.015289307,1,0,0,0,45,45,130,1,,,,,,,,
,,,,,,,,,,,,,FF,,,,,,,,0.7839,,,,,,,,,,,,,,,,,,,,,,61008e0692c4e112f80c097b,610367cf38ea569b5abc4281,2021-07-29_22h46.29.178,Simcolourproject_2stim_asymm_v5,2020.2.10,MacIntel,60,61025ae37ef11b136ea224fe,,,,,,,,,4096,-63.88153076,-29.50256348,1,0,0,response5disk,,2,-13.2411499,-1.444702148,1,0,0,rectangle,-13.2411499,-1.444702148,1,0,0,-13.2411499,-1.444702148,1,0,0,0,46,46,31,1,,,,,,,,
,,,,,,,,,,,,,FF,,,,,,,,1.3165,,,,,,,,,,,,,,,,,,,,,,61008e0692c4e112f80c097b,610367cf38ea569b5abc4281,2021-07-29_22h46.29.178,Simcolourproject_2stim_asymm_v5,2020.2.10,MacIntel,60,61025ae37ef11b136ea224fe,,,,,,,,,882,69.75201416,27.44937134,1,0,0,response1disk,,6,17.16674805,-2.315155029,1,0,0,rectangle,17.16674805,-2.315155029,1,0,0,17.16674805,-2.315155029,1,0,0,0,47,47,132,1,,,,,,,,
,,,,,,,,,,,,,FF,,,,,,,,1.0164,,,,,,,,,,,,,,,,,,,,,,61008e0692c4e112f80c097b,610367cf38ea569b5abc4281,2021-07-29_22h46.29.178,Simcolourproject_2stim_asymm_v5,2020.2.10,MacIntel,60,61025ae37ef11b136ea224fe,,,,,,,,,3416,24.05316162,62.92602539,1,0,0,response1disk,,7,17.08361816,-13.81439209,1,0,0,rectangle,17.08361816,-13.81439209,1,0,0,17.08361816,-13.81439209,1,0,0,0,48,48,87,1,,,,,,,,
,,,,,,,,,,,,,FF,,,,,,,,0.9164,,,,,,,,,,,,,,,,,,,,,,61008e0692c4e112f80c097b,610367cf38ea569b5abc4281,2021-07-29_22h46.29.178,Simcolourproject_2stim_asymm_v5,2020.2.10,MacIntel,60,61025ae37ef11b136ea224fe,,,,,,,,,3924,-28.34191895,-58.94952393,1,0,0,response5disk,,3,0.15020752,13.73062134,1,0,0,rectangle,0.15020752,13.73062134,1,0,0,0.15020752,13.73062134,1,0,0,0,49,49,140,1,,,,,,,,
,,,,,,,,,,,,,FF,,,,,,,,1.0883,,,,,,,,,,,,,,,,,,,,,,61008e0692c4e112f80c097b,610367cf38ea569b5abc4281,2021-07-29_22h46.29.178,Simcolourproject_2stim_asymm_v5,2020.2.10,MacIntel,60,61025ae37ef11b136ea224fe,,,,,,,,,3554,-59.79119873,33.42654419,1,0,0,response7disk,,1,8.80670166,11.07006836,1,0,0,rectangle,8.80670166,11.07006836,1,0,0,8.80670166,11.07006836,1,0,0,0,50,50,17,1,,,,,,,,
,,,,,,,,,,,,,FF,,,,,,,,0.8336,,,,,,,,,,,,,,,,,,,,,,61008e0692c4e112f80c097b,610367cf38ea569b5abc4281,2021-07-29_22h46.29.178,Simcolourproject_2stim_asymm_v5,2020.2.10,MacIntel,60,61025ae37ef11b136ea224fe,,,,,,,,,1308,-59.07562256,25.69921875,1,0,0,response7disk,,1,-23.00317383,-11.52844238,1,0,0,rectangle,-23.00317383,-11.52844238,1,0,0,-23.00317383,-11.52844238,1,0,0,0,51,51,47,1,,,,,,,,
,,,,,,,,,,,,,FF,,,,,,,,1.2174,,,,,,,,,,,,,,,,,,,,,,61008e0692c4e112f80c097b,610367cf38ea569b5abc4281,2021-07-29_22h46.29.178,Simcolourproject_2stim_asymm_v5,2020.2.10,MacIntel,60,61025ae37ef11b136ea224fe,,,,,,,,,1614,42.67578125,-58.12301636,1,0,0,response3disk,,4,22.94622803,-13.26733398,1,0,0,rectangle,22.94622803,-13.26733398,1,0,0,22.94622803,-13.26733398,1,0,0,0,52,52,96,1,,,,,,,,
,,,,,,,,,,,,,FF,,,,,,,,0.8331,,,,,,,,,,,,,,,,,,,,,,61008e0692c4e112f80c097b,610367cf38ea569b5abc4281,2021-07-29_22h46.29.178,Simcolourproject_2stim_asymm_v5,2020.2.10,MacIntel,60,61025ae37ef11b136ea224fe,,,,,,,,,2359,-72.27679443,-36.14810181,1,0,0,response5disk,,2,-11.0904541,-14.00671387,1,0,0,rectangle,-11.0904541,-14.00671387,1,0,0,-11.0904541,-14.00671387,1,0,0,0,53,53,82,1,,,,,,,,
,,,,,,,,,,,,,FF,,,,,,,,1.1163,,,,,,,,,,,,,,,,,,,,,,61008e0692c4e112f80c097b,610367cf38ea569b5abc4281,2021-07-29_22h46.29.178,Simcolourproject_2stim_asymm_v5,2020.2.10,MacIntel,60,61025ae37ef11b136ea224fe,,,,,,,,,1562,70.07348633,30.41616821,1,0,0,response1disk,,6,11.17248535,0.772094727,1,0,0,rectangle,11.17248535,0.772094727,1,0,0,11.17248535,0.772094727,1,0,0,0,54,54,75,1,,,,,,,,
,,,,,,,,,,,,,FF,,,,,,,,1.1161,,,,,,,,,,,,,,,,,,,,,,61008e0692c4e112f80c097b,610367cf38ea569b5abc4281,2021-07-29_22h46.29.178,Simcolourproject_2stim_asymm_v5,2020.2.10,MacIntel,60,61025ae37ef11b136ea224fe,,,,,,,,,2260,71.13970947,37.13702393,1,0,0,response1disk,,6,-10.91693115,-4.080047607,1,0,0,rectangle,-10.91693115,-4.080047607,1,0,0,-10.91693115,-4.080047607,1,0,0,0,55,55,18,1,,,,,,,,
,,,,,,,,,,,,,FF,,,,,,,,1.2504,,,,,,,,,,,,,,,,,,,,,,61008e0692c4e112f80c097b,610367cf38ea569b5abc4281,2021-07-29_22h46.29.178,Simcolourproject_2stim_asymm_v5,2020.2.10,MacIntel,60,61025ae37ef11b136ea224fe,,,,,,,,,1594,84.85595703,-38.42703247,1,0,0,response3disk,,5,23.13641357,-8.443450928,1,0,0,rectangle,23.13641357,-8.443450928,1,0,0,23.13641357,-8.443450928,1,0,0,0,56,56,143,1,,,,,,,,
,,,,,,,,,,,,,FF,,,,,,,,1.1014,,,,,,,,,,,,,,,,,,,,,,61008e0692c4e112f80c097b,610367cf38ea569b5abc4281,2021-07-29_22h46.29.178,Simcolourproject_2stim_asymm_v5,2020.2.10,MacIntel,60,61025ae37ef11b136ea224fe,,,,,,,,,2688,49.41766357,-66.32733154,1,0,0,response3disk,,4,-1.15625,0.295013428,1,0,0,rectangle,-1.15625,0.295013428,1,0,0,-1.15625,0.295013428,1,0,0,0,57,57,33,1,,,,,,,,
,,,,,,,,,,,,,FF,,,,,,,,1.2675,,,,,,,,,,,,,,,,,,,,,,61008e0692c4e112f80c097b,610367cf38ea569b5abc4281,2021-07-29_22h46.29.178,Simcolourproject_2stim_asymm_v5,2020.2.10,MacIntel,60,61025ae37ef11b136ea224fe,,,,,,,,,2608,-70.16479492,45.28009033,1,0,0,response7disk,,1,-3.940917969,10.65332031,1,0,0,rectangle,-3.940917969,10.65332031,1,0,0,-3.940917969,10.65332031,1,0,0,0,58,58,57,1,,,,,,,,
,,,,,,,,,,,,,FF,,,,,,,,0.7174,,,,,,,,,,,,,,,,,,,,,,61008e0692c4e112f80c097b,610367cf38ea569b5abc4281,2021-07-29_22h46.29.178,Simcolourproject_2stim_asymm_v5,2020.2.10,MacIntel,60,61025ae37ef11b136ea224fe,,,,,,,,,637,-38.83514404,59.94842529,1,0,0,response7disk,,0,3.84588623,-2.817596436,1,0,0,rectangle,3.84588623,-2.817596436,1,0,0,3.84588623,-2.817596436,1,0,0,0,59,59,124,1,,,,,,,,
,,,,,,,,,,,,,FF,,,,,,,,1.0339,,,,,,,,,,,,,,,,,,,,,,61008e0692c4e112f80c097b,610367cf38ea569b5abc4281,2021-07-29_22h46.29.178,Simcolourproject_2stim_asymm_v5,2020.2.10,MacIntel,60,61025ae37ef11b136ea224fe,,,,,,,,,4154,73.31036377,30.081604,1,0,0,response1disk,,6,14.61309814,-2.676513672,1,0,0,rectangle,14.61309814,-2.676513672,1,0,0,14.61309814,-2.676513672,1,0,0,0,60,60,30,1,,,,,,,,
,,,,,,,,,,,,,FF,,,,,,,,0.8328,,,,,,,,,,,,,,,,,,,,,,61008e0692c4e112f80c097b,610367cf38ea569b5abc4281,2021-07-29_22h46.29.178,Simcolourproject_2stim_asymm_v5,2020.2.10,MacIntel,60,61025ae37ef11b136ea224fe,,,,,,,,,1398,30.79925537,-53.42456055,1,0,0,response3disk,,4,6.013183594,-7.80770874,1,0,0,rectangle,30.68823242,-78.86877441,1,0,0,-11.77099609,-10.88113403,1,0,0,0,61,61,72,1,,response3disk_3,TRUE,4,4,"[275,44,93,44,253,103,322,263,226,286,62,42,279,297,306,219,239,136,37,315]",1.9159,rectangle
,,,,,,,,,,,,,FF,,,,,,,,1.7669,,,,,,,,,,,,,,,,,,,,,,61008e0692c4e112f80c097b,610367cf38ea569b5abc4281,2021-07-29_22h46.29.178,Simcolourproject_2stim_asymm_v5,2020.2.10,MacIntel,60,61025ae37ef11b136ea224fe,,,,,,,,,298,30.88165283,-72.8036499,1,0,0,response3disk,,4,-18.12139893,-1.066925049,1,0,0,rectangle,-18.12139893,-1.066925049,1,0,0,-18.12139893,-1.066925049,1,0,0,0,62,62,138,1,,,,,,,,
,,,,,,,,,,,,,FF,,,,,,,,3.8507,,,,,,,,,,,,,,,,,,,,,,61008e0692c4e112f80c097b,610367cf38ea569b5abc4281,2021-07-29_22h46.29.178,Simcolourproject_2stim_asymm_v5,2020.2.10,MacIntel,60,61025ae37ef11b136ea224fe,,,,,,,,,3178,59.77685547,-65.36743164,1,0,0,response3disk,,4,18.75811768,-15.43884277,1,0,0,rectangle,18.75811768,-15.43884277,1,0,0,18.75811768,-15.43884277,1,0,0,0,63,63,28,1,,,,,,,,
,,,,,,,,,,,,,FF,,,,,,,,1.0668,,,,,,,,,,,,,,,,,,,,,,61008e0692c4e112f80c097b,610367cf38ea569b5abc4281,2021-07-29_22h46.29.178,Simcolourproject_2stim_asymm_v5,2020.2.10,MacIntel,60,61025ae37ef11b136ea224fe,,,,,,,,,3614,31.41296387,-75.00598145,1,0,0,response3disk,,4,-6.286804199,-5.011047363,1,0,0,rectangle,-6.286804199,-5.011047363,1,0,0,-6.286804199,-5.011047363,1,0,0,0,64,64,135,1,,,,,,,,
,,,,,,,,,,,,,FF,,,,,,,,0.8341,,,,,,,,,,,,,,,,,,,,,,61008e0692c4e112f80c097b,610367cf38ea569b5abc4281,2021-07-29_22h46.29.178,Simcolourproject_2stim_asymm_v5,2020.2.10,MacIntel,60,61025ae37ef11b136ea224fe,,,,,,,,,3754,-77.60089111,-42.82763672,1,0,0,response5disk,,2,5.560424805,13.56118774,1,0,0,rectangle,5.560424805,13.56118774,1,0,0,5.560424805,13.56118774,1,0,0,0,65,65,4,1,,,,,,,,
,,,,,,,,,,,,,FF,,,,,,,,0.8667,,,,,,,,,,,,,,,,,,,,,,61008e0692c4e112f80c097b,610367cf38ea569b5abc4281,2021-07-29_22h46.29.178,Simcolourproject_2stim_asymm_v5,2020.2.10,MacIntel,60,61025ae37ef11b136ea224fe,,,,,,,,,1790,25.20184326,-75.22131348,1,0,0,response3disk,,4,-22.70501709,2.116882324,1,0,0,rectangle,-22.70501709,2.116882324,1,0,0,-22.70501709,2.116882324,1,0,0,0,66,66,146,1,,,,,,,,
,,,,,,,,,,,,,FF,,,,,,,,1.3338,,,,,,,,,,,,,,,,,,,,,,61008e0692c4e112f80c097b,610367cf38ea569b5abc4281,2021-07-29_22h46.29.178,Simcolourproject_2stim_asymm_v5,2020.2.10,MacIntel,60,61025ae37ef11b136ea224fe,,,,,,,,,3650,92.39398193,-45.35189819,1,0,0,response3disk,,5,2.534851074,-5.339019775,1,0,0,rectangle,2.534851074,-5.339019775,1,0,0,2.534851074,-5.339019775,1,0,0,0,67,67,20,1,,,,,,,,
,,,,,,,,,,,,,FF,,,,,,,,0.7984,,,,,,,,,,,,,,,,,,,,,,61008e0692c4e112f80c097b,610367cf38ea569b5abc4281,2021-07-29_22h46.29.178,Simcolourproject_2stim_asymm_v5,2020.2.10,MacIntel,60,61025ae37ef11b136ea224fe,,,,,,,,,420,73.18774414,-41.5319519,1,0,0,response3disk,,5,-5.444458008,-0.699035645,1,0,0,rectangle,-5.444458008,-0.699035645,1,0,0,-5.444458008,-0.699035645,1,0,0,0,68,68,159,1,,,,,,,,
,,,,,,,,,,,,,FF,,,,,,,,0.7339,,,,,,,,,,,,,,,,,,,,,,61008e0692c4e112f80c097b,610367cf38ea569b5abc4281,2021-07-29_22h46.29.178,Simcolourproject_2stim_asymm_v5,2020.2.10,MacIntel,60,61025ae37ef11b136ea224fe,,,,,,,,,2142,74.20794678,55.93676758,1,0,0,response1disk,,6,7.688293457,8.593292236,1,0,0,rectangle,7.688293457,8.593292236,1,0,0,7.688293457,8.593292236,1,0,0,0,69,69,127,1,,,,,,,,
,,,,,,,,,,,,,FF,,,,,,,,1.0006,,,,,,,,,,,,,,,,,,,,,,61008e0692c4e112f80c097b,610367cf38ea569b5abc4281,2021-07-29_22h46.29.178,Simcolourproject_2stim_asymm_v5,2020.2.10,MacIntel,60,61025ae37ef11b136ea224fe,,,,,,,,,2655,58.71008301,26.00244141,1,0,0,response1disk,,6,3.448242188,4.453491211,1,0,0,rectangle,3.448242188,4.453491211,1,0,0,3.448242188,4.453491211,1,0,0,0,70,70,48,1,,,,,,,,
,,,,,,,,,,,,,FF,,,,,,,,1.1321,,,,,,,,,,,,,,,,,,,,,,61008e0692c4e112f80c097b,610367cf38ea569b5abc4281,2021-07-29_22h46.29.178,Simcolourproject_2stim_asymm_v5,2020.2.10,MacIntel,60,61025ae37ef11b136ea224fe,,,,,,,,,2380,55.07202148,-76.82971191,1,0,0,response3disk,,4,0.99230957,15.48431396,1,0,0,rectangle,0.99230957,15.48431396,1,0,0,0.99230957,15.48431396,1,0,0,0,71,71,55,1,,,,,,,,
,,,,,,,,,,,,,FF,,,,,,,,1.218,,,,,,,,,,,,,,,,,,,,,,61008e0692c4e112f80c097b,610367cf38ea569b5abc4281,2021-07-29_22h46.29.178,Simcolourproject_2stim_asymm_v5,2020.2.10,MacIntel,60,61025ae37ef11b136ea224fe,,,,,,,,,327,31.24090576,-79.11053467,1,0,0,response3disk,,4,-3.390869141,-8.147888184,1,0,0,rectangle,-3.390869141,-8.147888184,1,0,0,-3.390869141,-8.147888184,1,0,0,0,72,72,147,1,,,,,,,,
,,,,,,,,,,,,,FF,,,,,,,,0.9722,,,,,,,,,,,,,,,,,,,,,,61008e0692c4e112f80c097b,610367cf38ea569b5abc4281,2021-07-29_22h46.29.178,Simcolourproject_2stim_asymm_v5,2020.2.10,MacIntel,60,61025ae37ef11b136ea224fe,,,,,,,,,1568,36.31134033,59.79629517,1,0,0,response1disk,,7,22.21130371,6.123016357,1,0,0,rectangle,22.21130371,6.123016357,1,0,0,22.21130371,6.123016357,1,0,0,0,73,73,2,1,,,,,,,,
,,,,,,,,,,,,,FF,,,,,,,,1.8162,,,,,,,,,,,,,,,,,,,,,,61008e0692c4e112f80c097b,610367cf38ea569b5abc4281,2021-07-29_22h46.29.178,Simcolourproject_2stim_asymm_v5,2020.2.10,MacIntel,60,61025ae37ef11b136ea224fe,,,,,,,,,3166,82.9284668,-26.93560791,1,0,0,response3disk,,5,17.90667725,2.094360352,1,0,0,rectangle,17.90667725,2.094360352,1,0,0,17.90667725,2.094360352,1,0,0,0,74,74,42,1,,,,,,,,
,,,,,,,,,,,,,FF,,,,,,,,1.6331,,,,,,,,,,,,,,,,,,,,,,61008e0692c4e112f80c097b,610367cf38ea569b5abc4281,2021-07-29_22h46.29.178,Simcolourproject_2stim_asymm_v5,2020.2.10,MacIntel,60,61025ae37ef11b136ea224fe,,,,,,,,,2399,59.3427124,22.63113403,1,0,0,response1disk,,6,14.17333984,3.024261475,1,0,0,rectangle,14.17333984,3.024261475,1,0,0,14.17333984,3.024261475,1,0,0,0,75,75,86,1,,,,,,,,
,,,,,,,,,,,,,FF,,,,,,,,1.3485,,,,,,,,,,,,,,,,,,,,,,61008e0692c4e112f80c097b,610367cf38ea569b5abc4281,2021-07-29_22h46.29.178,Simcolourproject_2stim_asymm_v5,2020.2.10,MacIntel,60,61025ae37ef11b136ea224fe,,,,,,,,,4336,-76.796875,19.76879883,1,0,0,response7disk,,1,-10.69134521,-5.397369385,1,0,0,rectangle,-10.69134521,-5.397369385,1,0,0,-10.69134521,-5.397369385,1,0,0,0,76,76,106,1,,,,,,,,
,,,,,,,,,,,,,FF,,,,,,,,0.9505,,,,,,,,,,,,,,,,,,,,,,61008e0692c4e112f80c097b,610367cf38ea569b5abc4281,2021-07-29_22h46.29.178,Simcolourproject_2stim_asymm_v5,2020.2.10,MacIntel,60,61025ae37ef11b136ea224fe,,,,,,,,,1279,72.12561035,30.6463623,1,0,0,response1disk,,6,5.157897949,-3.319000244,1,0,0,rectangle,5.157897949,-3.319000244,1,0,0,5.157897949,-3.319000244,1,0,0,0,77,77,134,1,,,,,,,,
,,,,,,,,,,,,,FF,,,,,,,,0.9826,,,,,,,,,,,,,,,,,,,,,,61008e0692c4e112f80c097b,610367cf38ea569b5abc4281,2021-07-29_22h46.29.178,Simcolourproject_2stim_asymm_v5,2020.2.10,MacIntel,60,61025ae37ef11b136ea224fe,,,,,,,,,2671,-68.94781494,-31.46582031,1,0,0,response5disk,,2,-19.24475098,-6.481536865,1,0,0,rectangle,-19.24475098,-6.481536865,1,0,0,-19.24475098,-6.481536865,1,0,0,0,78,78,108,1,,,,,,,,
,,,,,,,,,,,,,FF,,,,,,,,1.1834,,,,,,,,,,,,,,,,,,,,,,61008e0692c4e112f80c097b,610367cf38ea569b5abc4281,2021-07-29_22h46.29.178,Simcolourproject_2stim_asymm_v5,2020.2.10,MacIntel,60,61025ae37ef11b136ea224fe,,,,,,,,,3219,67.26055908,17.33306885,1,0,0,response1disk,,6,1.957519531,-7.405883789,1,0,0,rectangle,1.957519531,-7.405883789,1,0,0,1.957519531,-7.405883789,1,0,0,0,79,79,149,1,,,,,,,,
,,,,,,,,,,,,,FF,,,,,,,,1.9849,,,,,,,,,,,,,,,,,,,,,,61008e0692c4e112f80c097b,610367cf38ea569b5abc4281,2021-07-29_22h46.29.178,Simcolourproject_2stim_asymm_v5,2020.2.10,MacIntel,60,61025ae37ef11b136ea224fe,,,,,,,,,986,57.25402832,36.59207153,1,0,0,response1disk,,6,12.65808105,8.34475708,1,0,0,rectangle,12.65808105,8.34475708,1,0,0,12.65808105,8.34475708,1,0,0,0,80,80,131,1,,,,,,,,
,,,,,,,,,,,,,FF,,,,,,,,0.7505,,,,,,,,,,,,,,,,,,,,,,61008e0692c4e112f80c097b,610367cf38ea569b5abc4281,2021-07-29_22h46.29.178,Simcolourproject_2stim_asymm_v5,2020.2.10,MacIntel,60,61025ae37ef11b136ea224fe,,,,,,,,,499,23.4699707,65.66662598,1,0,0,response1disk,,7,-1.712158203,-6.492980957,1,0,0,rectangle,-1.712158203,-6.492980957,1,0,0,-1.712158203,-6.492980957,1,0,0,0,81,81,110,1,,,,,,,,
,,,,,,,,,,,,,FF,,,,,,,,1.5328,,,,,,,,,,,,,,,,,,,,,,61008e0692c4e112f80c097b,610367cf38ea569b5abc4281,2021-07-29_22h46.29.178,Simcolourproject_2stim_asymm_v5,2020.2.10,MacIntel,60,61025ae37ef11b136ea224fe,,,,,,,,,1252,91.88995361,35.12362671,1,0,0,response1disk,,6,4.395385742,-2.509735107,1,0,0,rectangle,4.395385742,-2.509735107,1,0,0,4.395385742,-2.509735107,1,0,0,0,82,82,122,1,,,,,,,,
,,,,,,,,,,,,,FF,,,,,,,,0.9998,,,,,,,,,,,,,,,,,,,,,,61008e0692c4e112f80c097b,610367cf38ea569b5abc4281,2021-07-29_22h46.29.178,Simcolourproject_2stim_asymm_v5,2020.2.10,MacIntel,60,61025ae37ef11b136ea224fe,,,,,,,,,2633,63.9152832,88.81732178,1,0,0,response1disk,,7,10.90594482,7.456207275,1,0,0,rectangle,10.90594482,7.456207275,1,0,0,10.90594482,7.456207275,1,0,0,0,83,83,74,1,,,,,,,,
,,,,,,,,,,,,,FF,,,,,,,,1.2849,,,,,,,,,,,,,,,,,,,,,,61008e0692c4e112f80c097b,610367cf38ea569b5abc4281,2021-07-29_22h46.29.178,Simcolourproject_2stim_asymm_v5,2020.2.10,MacIntel,60,61025ae37ef11b136ea224fe,,,,,,,,,142,31.96124268,75.92837524,1,0,0,response1disk,,7,7.599304199,11.61947632,1,0,0,rectangle,7.599304199,11.61947632,1,0,0,7.599304199,11.61947632,1,0,0,0,84,84,68,1,,,,,,,,
,,,,,,,,,,,,,FF,,,,,,,,0.701,,,,,,,,,,,,,,,,,,,,,,61008e0692c4e112f80c097b,610367cf38ea569b5abc4281,2021-07-29_22h46.29.178,Simcolourproject_2stim_asymm_v5,2020.2.10,MacIntel,60,61025ae37ef11b136ea224fe,,,,,,,,,3290,-40.59197998,70.3243103,1,0,0,response7disk,,0,-21.64038086,5.711853027,1,0,0,rectangle,-21.64038086,5.711853027,1,0,0,-21.64038086,5.711853027,1,0,0,0,85,85,77,1,,,,,,,,
,,,,,,,,,,,,,FF,,,,,,,,0.9339,,,,,,,,,,,,,,,,,,,,,,61008e0692c4e112f80c097b,610367cf38ea569b5abc4281,2021-07-29_22h46.29.178,Simcolourproject_2stim_asymm_v5,2020.2.10,MacIntel,60,61025ae37ef11b136ea224fe,,,,,,,,,2923,92.83831787,36.48330688,1,0,0,response1disk,,6,31.94067383,13.09344482,1,0,0,rectangle,31.94067383,13.09344482,1,0,0,31.94067383,13.09344482,1,0,0,0,86,86,12,1,,,,,,,,
,,,,,,,,,,,,,FF,,,,,,,,0.7672,,,,,,,,,,,,,,,,,,,,,,61008e0692c4e112f80c097b,610367cf38ea569b5abc4281,2021-07-29_22h46.29.178,Simcolourproject_2stim_asymm_v5,2020.2.10,MacIntel,60,61025ae37ef11b136ea224fe,,,,,,,,,3275,69.93774414,29.82171631,1,0,0,response1disk,,6,15.90216064,-6.879730225,1,0,0,rectangle,15.90216064,-6.879730225,1,0,0,15.90216064,-6.879730225,1,0,0,0,87,87,62,1,,,,,,,,
,,,,,,,,,,,,,FF,,,,,,,,1.051,,,,,,,,,,,,,,,,,,,,,,61008e0692c4e112f80c097b,610367cf38ea569b5abc4281,2021-07-29_22h46.29.178,Simcolourproject_2stim_asymm_v5,2020.2.10,MacIntel,60,61025ae37ef11b136ea224fe,,,,,,,,,213,48.35906982,-89.29638672,1,0,0,response3disk,,4,-2.583068848,-2.116638184,1,0,0,rectangle,-2.583068848,-2.116638184,1,0,0,-2.583068848,-2.116638184,1,0,0,0,88,88,98,1,,,,,,,,
,,,,,,,,,,,,,FF,,,,,,,,1.0168,,,,,,,,,,,,,,,,,,,,,,61008e0692c4e112f80c097b,610367cf38ea569b5abc4281,2021-07-29_22h46.29.178,Simcolourproject_2stim_asymm_v5,2020.2.10,MacIntel,60,61025ae37ef11b136ea224fe,,,,,,,,,3915,-92.21026611,-49.80130005,1,0,0,response5disk,,2,-5.683044434,-2.326629639,1,0,0,rectangle,-5.683044434,-2.326629639,1,0,0,-5.683044434,-2.326629639,1,0,0,0,89,89,139,1,,,,,,,,
,,,,,,,,,,,,,FF,,,,,,,,0.8991,,,,,,,,,,,,,,,,,,,,,,61008e0692c4e112f80c097b,610367cf38ea569b5abc4281,2021-07-29_22h46.29.178,Simcolourproject_2stim_asymm_v5,2020.2.10,MacIntel,60,61025ae37ef11b136ea224fe,,,,,,,,,2106,-65.0637207,-36.87359619,1,0,0,response5disk,,2,9.426757813,-7.246124268,1,0,0,rectangle,9.426757813,-7.246124268,1,0,0,9.426757813,-7.246124268,1,0,0,0,90,90,142,1,,,,,,,,
,,,,,,,,,,,,,FF,,,,,,,,0.9171,,,,,,,,,,,,,,,,,,,,,,61008e0692c4e112f80c097b,610367cf38ea569b5abc4281,2021-07-29_22h46.29.178,Simcolourproject_2stim_asymm_v5,2020.2.10,MacIntel,60,61025ae37ef11b136ea224fe,,,,,,,,,2805,-32.97332764,-61.09265137,1,0,0,response5disk,,3,11.72296143,-4.257568359,1,0,0,rectangle,11.72296143,-4.257568359,1,0,0,11.72296143,-4.257568359,1,0,0,0,91,91,51,1,,,,,,,,
,,,,,,,,,,,,,FF,,,,,,,,1.3336,,,,,,,,,,,,,,,,,,,,,,61008e0692c4e112f80c097b,610367cf38ea569b5abc4281,2021-07-29_22h46.29.178,Simcolourproject_2stim_asymm_v5,2020.2.10,MacIntel,60,61025ae37ef11b136ea224fe,,,,,,,,,4320,81.72027588,-29.25238037,1,0,0,response3disk,,5,0.879333496,-8.93081665,1,0,0,rectangle,-28.90093994,-86.33886719,1,0,0,-12.05010986,-0.893432617,1,0,0,0,92,92,59,1,,response5disk_3,TRUE,3,3,"[275,44,93,44,253,103,322,263,226,286,62,42,279,297,306,219,239,136,37,315]",2.1663,rectangle
,,,,,,,,,,,,,FF,,,,,,,,3.2998,,,,,,,,,,,,,,,,,,,,,,61008e0692c4e112f80c097b,610367cf38ea569b5abc4281,2021-07-29_22h46.29.178,Simcolourproject_2stim_asymm_v5,2020.2.10,MacIntel,60,61025ae37ef11b136ea224fe,,,,,,,,,391,77.66387939,26.28286743,1,0,0,response1disk,,6,28.85638428,-2.868530273,1,0,0,rectangle,28.85638428,-2.868530273,1,0,0,28.85638428,-2.868530273,1,0,0,0,93,93,11,1,,,,,,,,
,,,,,,,,,,,,,FF,,,,,,,,0.9006,,,,,,,,,,,,,,,,,,,,,,61008e0692c4e112f80c097b,610367cf38ea569b5abc4281,2021-07-29_22h46.29.178,Simcolourproject_2stim_asymm_v5,2020.2.10,MacIntel,60,61025ae37ef11b136ea224fe,,,,,,,,,926,61.42657471,26.37387085,1,0,0,response1disk,,6,14.12591553,-10.50473022,1,0,0,rectangle,14.12591553,-10.50473022,1,0,0,14.12591553,-10.50473022,1,0,0,0,94,94,73,1,,,,,,,,
,,,,,,,,,,,,,FF,,,,,,,,0.9316,,,,,,,,,,,,,,,,,,,,,,61008e0692c4e112f80c097b,610367cf38ea569b5abc4281,2021-07-29_22h46.29.178,Simcolourproject_2stim_asymm_v5,2020.2.10,MacIntel,60,61025ae37ef11b136ea224fe,,,,,,,,,4133,28.66491699,72.64581299,1,0,0,response1disk,,7,4.206481934,11.65960693,1,0,0,rectangle,4.206481934,11.65960693,1,0,0,4.206481934,11.65960693,1,0,0,0,95,95,80,1,,,,,,,,
,,,,,,,,,,,,,FF,,,,,,,,1.0329,,,,,,,,,,,,,,,,,,,,,,61008e0692c4e112f80c097b,610367cf38ea569b5abc4281,2021-07-29_22h46.29.178,Simcolourproject_2stim_asymm_v5,2020.2.10,MacIntel,60,61025ae37ef11b136ea224fe,,,,,,,,,1186,62.56298828,-31.18356323,1,0,0,response3disk,,5,13.59851074,4.617736816,1,0,0,rectangle,13.59851074,4.617736816,1,0,0,13.59851074,4.617736816,1,0,0,0,96,96,58,1,,,,,,,,
,,,,,,,,,,,,,FF,,,,,,,,0.7513,,,,,,,,,,,,,,,,,,,,,,61008e0692c4e112f80c097b,610367cf38ea569b5abc4281,2021-07-29_22h46.29.178,Simcolourproject_2stim_asymm_v5,2020.2.10,MacIntel,60,61025ae37ef11b136ea224fe,,,,,,,,,2227,-46.85919189,68.04309082,1,0,0,response7disk,,0,-15.70202637,5.645172119,1,0,0,rectangle,-15.70202637,5.645172119,1,0,0,-15.70202637,5.645172119,1,0,0,0,97,97,129,1,,,,,,,,
,,,,,,,,,,,,,FF,,,,,,,,1.3045,,,,,,,,,,,,,,,,,,,,,,61008e0692c4e112f80c097b,610367cf38ea569b5abc4281,2021-07-29_22h46.29.178,Simcolourproject_2stim_asymm_v5,2020.2.10,MacIntel,60,61025ae37ef11b136ea224fe,,,,,,,,,3794,-70.83380127,-24.27505493,1,0,0,response5disk,,2,1.636352539,-7.469909668,1,0,0,rectangle,1.636352539,-7.469909668,1,0,0,1.636352539,-7.469909668,1,0,0,0,98,98,113,1,,,,,,,,
,,,,,,,,,,,,,FF,,,,,,,,1.499,,,,,,,,,,,,,,,,,,,,,,61008e0692c4e112f80c097b,610367cf38ea569b5abc4281,2021-07-29_22h46.29.178,Simcolourproject_2stim_asymm_v5,2020.2.10,MacIntel,60,61025ae37ef11b136ea224fe,,,,,,,,,1660,-40.51013184,-64.8026123,1,0,0,response5disk,,3,14.73651123,-5.587036133,1,0,0,rectangle,14.73651123,-5.587036133,1,0,0,14.73651123,-5.587036133,1,0,0,0,99,99,56,1,,,,,,,,
,,,,,,,,,,,,,FF,,,,,,,,1.083,,,,,,,,,,,,,,,,,,,,,,61008e0692c4e112f80c097b,610367cf38ea569b5abc4281,2021-07-29_22h46.29.178,Simcolourproject_2stim_asymm_v5,2020.2.10,MacIntel,60,61025ae37ef11b136ea224fe,,,,,,,,,3325,41.4576416,-56.76113892,1,0,0,response3disk,,4,4.998046875,0.175811768,1,0,0,rectangle,4.998046875,0.175811768,1,0,0,4.998046875,0.175811768,1,0,0,0,100,100,148,1,,,,,,,,
,,,,,,,,,,,,,FF,,,,,,,,0.9331,,,,,,,,,,,,,,,,,,,,,,61008e0692c4e112f80c097b,610367cf38ea569b5abc4281,2021-07-29_22h46.29.178,Simcolourproject_2stim_asymm_v5,2020.2.10,MacIntel,60,61025ae37ef11b136ea224fe,,,,,,,,,4061,59.38757324,-43.55969238,1,0,0,response3disk,,5,0.225524902,-5.15411377,1,0,0,rectangle,0.225524902,-5.15411377,1,0,0,0.225524902,-5.15411377,1,0,0,0,101,101,119,1,,,,,,,,
,,,,,,,,,,,,,FF,,,,,,,,1.1504,,,,,,,,,,,,,,,,,,,,,,61008e0692c4e112f80c097b,610367cf38ea569b5abc4281,2021-07-29_22h46.29.178,Simcolourproject_2stim_asymm_v5,2020.2.10,MacIntel,60,61025ae37ef11b136ea224fe,,,,,,,,,2236,-75.72296143,-33.25036621,1,0,0,response5disk,,2,-11.93469238,-2.025024414,1,0,0,rectangle,78.68438721,32.92657471,1,0,0,12.76403809,13.54406738,1,0,0,0,102,102,65,1,,response1disk_3,TRUE,6,6,"[275,44,93,44,253,103,322,263,226,286,62,42,279,297,306,219,239,136,37,315]",1.1828,rectangle
,,,,,,,,,,,,,FF,,,,,,,,2.0485,,,,,,,,,,,,,,,,,,,,,,61008e0692c4e112f80c097b,610367cf38ea569b5abc4281,2021-07-29_22h46.29.178,Simcolourproject_2stim_asymm_v5,2020.2.10,MacIntel,60,61025ae37ef11b136ea224fe,,,,,,,,,2552,43.79418945,-65.07806396,1,0,0,response3disk,,4,7.249755859,0.399139404,1,0,0,rectangle,7.249755859,0.399139404,1,0,0,7.249755859,0.399139404,1,0,0,0,103,103,90,1,,,,,,,,
,,,,,,,,,,,,,FF,,,,,,,,0.9163,,,,,,,,,,,,,,,,,,,,,,61008e0692c4e112f80c097b,610367cf38ea569b5abc4281,2021-07-29_22h46.29.178,Simcolourproject_2stim_asymm_v5,2020.2.10,MacIntel,60,61025ae37ef11b136ea224fe,,,,,,,,,479,66.8114624,-43.25479126,1,0,0,response3disk,,5,-4.142089844,-2.231964111,1,0,0,rectangle,-4.142089844,-2.231964111,1,0,0,-4.142089844,-2.231964111,1,0,0,0,104,104,137,1,,,,,,,,
,,,,,,,,,,,,,FF,,,,,,,,0.7674,,,,,,,,,,,,,,,,,,,,,,61008e0692c4e112f80c097b,610367cf38ea569b5abc4281,2021-07-29_22h46.29.178,Simcolourproject_2stim_asymm_v5,2020.2.10,MacIntel,60,61025ae37ef11b136ea224fe,,,,,,,,,3385,-61.47259521,26.64981079,1,0,0,response7disk,,1,0.613342285,-10.51397705,1,0,0,rectangle,0.613342285,-10.51397705,1,0,0,0.613342285,-10.51397705,1,0,0,0,105,105,29,1,,,,,,,,
,,,,,,,,,,,,,FF,,,,,,,,1.1673,,,,,,,,,,,,,,,,,,,,,,61008e0692c4e112f80c097b,610367cf38ea569b5abc4281,2021-07-29_22h46.29.178,Simcolourproject_2stim_asymm_v5,2020.2.10,MacIntel,60,61025ae37ef11b136ea224fe,,,,,,,,,2876,-28.57769775,-68.36639404,1,0,0,response5disk,,3,-7.456176758,-13.85461426,1,0,0,rectangle,-7.456176758,-13.85461426,1,0,0,-7.456176758,-13.85461426,1,0,0,0,106,106,116,1,,,,,,,,
,,,,,,,,,,,,,FF,,,,,,,,0.7988,,,,,,,,,,,,,,,,,,,,,,61008e0692c4e112f80c097b,610367cf38ea569b5abc4281,2021-07-29_22h46.29.178,Simcolourproject_2stim_asymm_v5,2020.2.10,MacIntel,60,61025ae37ef11b136ea224fe,,,,,,,,,3741,-35.74749756,71.59179688,1,0,0,response7disk,,0,-16.92993164,2.866729736,1,0,0,rectangle,-16.92993164,2.866729736,1,0,0,-16.92993164,2.866729736,1,0,0,0,107,107,112,1,,,,,,,,
,,,,,,,,,,,,,FF,,,,,,,,0.9994,,,,,,,,,,,,,,,,,,,,,,61008e0692c4e112f80c097b,610367cf38ea569b5abc4281,2021-07-29_22h46.29.178,Simcolourproject_2stim_asymm_v5,2020.2.10,MacIntel,60,61025ae37ef11b136ea224fe,,,,,,,,,3841,-48.53924561,-63.69464111,1,0,0,response5disk,,3,6.102844238,-5.720123291,1,0,0,rectangle,6.102844238,-5.720123291,1,0,0,6.102844238,-5.720123291,1,0,0,0,108,108,3,1,,,,,,,,
,,,,,,,,,,,,,FF,,,,,,,,1.0493,,,,,,,,,,,,,,,,,,,,,,61008e0692c4e112f80c097b,610367cf38ea569b5abc4281,2021-07-29_22h46.29.178,Simcolourproject_2stim_asymm_v5,2020.2.10,MacIntel,60,61025ae37ef11b136ea224fe,,,,,,,,,1505,75.69451904,-39.87411499,1,0,0,response3disk,,5,-24.77484131,6.542022705,1,0,0,rectangle,-24.77484131,6.542022705,1,0,0,-24.77484131,6.542022705,1,0,0,0,109,109,128,1,,,,,,,,
,,,,,,,,,,,,,FF,,,,,,,,1.9461,,,,,,,,,,,,,,,,,,,,,,61008e0692c4e112f80c097b,610367cf38ea569b5abc4281,2021-07-29_22h46.29.178,Simcolourproject_2stim_asymm_v5,2020.2.10,MacIntel,60,61025ae37ef11b136ea224fe,,,,,,,,,1357,56.13616943,23.57382202,1,0,0,response1disk,,6,-5.391479492,5.234619141,1,0,0,rectangle,-5.391479492,5.234619141,1,0,0,-5.391479492,5.234619141,1,0,0,0,110,110,88,1,,,,,,,,
,,,,,,,,,,,,,FF,,,,,,,,1.0342,,,,,,,,,,,,,,,,,,,,,,61008e0692c4e112f80c097b,610367cf38ea569b5abc4281,2021-07-29_22h46.29.178,Simcolourproject_2stim_asymm_v5,2020.2.10,MacIntel,60,61025ae37ef11b136ea224fe,,,,,,,,,906,66.15124512,38.09158325,1,0,0,response1disk,,6,-4.404846191,-9.770690918,1,0,0,rectangle,-4.404846191,-9.770690918,1,0,0,-4.404846191,-9.770690918,1,0,0,0,111,111,60,1,,,,,,,,
,,,,,,,,,,,,,FF,,,,,,,,0.9178,,,,,,,,,,,,,,,,,,,,,,61008e0692c4e112f80c097b,610367cf38ea569b5abc4281,2021-07-29_22h46.29.178,Simcolourproject_2stim_asymm_v5,2020.2.10,MacIntel,60,61025ae37ef11b136ea224fe,,,,,,,,,4057,33.59606934,-83.14654541,1,0,0,response3disk,,4,2.997375488,-9.896240234,1,0,0,rectangle,2.997375488,-9.896240234,1,0,0,2.997375488,-9.896240234,1,0,0,0,112,112,41,1,,,,,,,,
,,,,,,,,,,,,,FF,,,,,,,,1.3508,,,,,,,,,,,,,,,,,,,,,,61008e0692c4e112f80c097b,610367cf38ea569b5abc4281,2021-07-29_22h46.29.178,Simcolourproject_2stim_asymm_v5,2020.2.10,MacIntel,60,61025ae37ef11b136ea224fe,,,,,,,,,3658,72.69549561,-23.50964355,1,0,0,response3disk,,5,10.20874023,11.59851074,1,0,0,rectangle,10.20874023,11.59851074,1,0,0,10.20874023,11.59851074,1,0,0,0,113,113,25,1,,,,,,,,
,,,,,,,,,,,,,FF,,,,,,,,1.7165,,,,,,,,,,,,,,,,,,,,,,61008e0692c4e112f80c097b,610367cf38ea569b5abc4281,2021-07-29_22h46.29.178,Simcolourproject_2stim_asymm_v5,2020.2.10,MacIntel,60,61025ae37ef11b136ea224fe,,,,,,,,,2315,30.23828125,-63.59216309,1,0,0,response3disk,,4,-2.557312012,-0.683929443,1,0,0,rectangle,-2.557312012,-0.683929443,1,0,0,-2.557312012,-0.683929443,1,0,0,0,114,114,6,1,,,,,,,,
,,,,,,,,,,,,,FF,,,,,,,,0.8172,,,,,,,,,,,,,,,,,,,,,,61008e0692c4e112f80c097b,610367cf38ea569b5abc4281,2021-07-29_22h46.29.178,Simcolourproject_2stim_asymm_v5,2020.2.10,MacIntel,60,61025ae37ef11b136ea224fe,,,,,,,,,1010,73.41680908,-49.02758789,1,0,0,response3disk,,5,-21.48309326,10.97235107,1,0,0,rectangle,-21.48309326,10.97235107,1,0,0,-21.48309326,10.97235107,1,0,0,0,115,115,117,1,,,,,,,,
,,,,,,,,,,,,,FF,,,,,,,,0.8012,,,,,,,,,,,,,,,,,,,,,,61008e0692c4e112f80c097b,610367cf38ea569b5abc4281,2021-07-29_22h46.29.178,Simcolourproject_2stim_asymm_v5,2020.2.10,MacIntel,60,61025ae37ef11b136ea224fe,,,,,,,,,2453,37.7131958,74.8343811,1,0,0,response1disk,,7,14.59179688,15.1590271,1,0,0,rectangle,14.59179688,15.1590271,1,0,0,14.59179688,15.1590271,1,0,0,0,116,116,93,1,,,,,,,,
,,,,,,,,,,,,,FF,,,,,,,,1.2334,,,,,,,,,,,,,,,,,,,,,,61008e0692c4e112f80c097b,610367cf38ea569b5abc4281,2021-07-29_22h46.29.178,Simcolourproject_2stim_asymm_v5,2020.2.10,MacIntel,60,61025ae37ef11b136ea224fe,,,,,,,,,2166,-67.28710938,46.06219482,1,0,0,response7disk,,1,9.657043457,-5.961334229,1,0,0,rectangle,9.657043457,-5.961334229,1,0,0,9.657043457,-5.961334229,1,0,0,0,117,117,0,1,,,,,,,,
,,,,,,,,,,,,,FF,,,,,,,,0.7338,,,,,,,,,,,,,,,,,,,,,,61008e0692c4e112f80c097b,610367cf38ea569b5abc4281,2021-07-29_22h46.29.178,Simcolourproject_2stim_asymm_v5,2020.2.10,MacIntel,60,61025ae37ef11b136ea224fe,,,,,,,,,1692,34.04034424,67.07730103,1,0,0,response1disk,,7,13.73175049,2.9402771,1,0,0,rectangle,13.73175049,2.9402771,1,0,0,13.73175049,2.9402771,1,0,0,0,118,118,67,1,,,,,,,,
,,,,,,,,,,,,,FF,,,,,,,,0.8821,,,,,,,,,,,,,,,,,,,,,,61008e0692c4e112f80c097b,610367cf38ea569b5abc4281,2021-07-29_22h46.29.178,Simcolourproject_2stim_asymm_v5,2020.2.10,MacIntel,60,61025ae37ef11b136ea224fe,,,,,,,,,2082,69.26989746,-50.31674194,1,0,0,response3disk,,5,5.669189453,-6.07611084,1,0,0,rectangle,5.669189453,-6.07611084,1,0,0,5.669189453,-6.07611084,1,0,0,0,119,119,66,1,,,,,,,,
,,,,,,,,,,,,,FF,,,,,,,,0.7658,,,,,,,,,,,,,,,,,,,,,,61008e0692c4e112f80c097b,610367cf38ea569b5abc4281,2021-07-29_22h46.29.178,Simcolourproject_2stim_asymm_v5,2020.2.10,MacIntel,60,61025ae37ef11b136ea224fe,,,,,,,,,2525,18.18707275,67.58587646,1,0,0,response1disk,,7,2.86315918,-6.60635376,1,0,0,rectangle,2.86315918,-6.60635376,1,0,0,2.86315918,-6.60635376,1,0,0,0,120,120,19,1,,,,,,,,
,,,,,,,,,,,,,FF,,,,,,,,1.0335,,,,,,,,,,,,,,,,,,,,,,61008e0692c4e112f80c097b,610367cf38ea569b5abc4281,2021-07-29_22h46.29.178,Simcolourproject_2stim_asymm_v5,2020.2.10,MacIntel,60,61025ae37ef11b136ea224fe,,,,,,,,,3446,-49.60131836,-56.27850342,1,0,0,response5disk,,3,-7.942199707,17.71600342,1,0,0,rectangle,-7.942199707,17.71600342,1,0,0,-7.942199707,17.71600342,1,0,0,0,121,121,35,1,,,,,,,,
,,,,,,,,,,,,,FF,,,,,,,,1.116,,,,,,,,,,,,,,,,,,,,,,61008e0692c4e112f80c097b,610367cf38ea569b5abc4281,2021-07-29_22h46.29.178,Simcolourproject_2stim_asymm_v5,2020.2.10,MacIntel,60,61025ae37ef11b136ea224fe,,,,,,,,,893,-40.6272583,66.17233276,1,0,0,response7disk,,0,-19.17755127,-9.492553711,1,0,0,rectangle,-19.17755127,-9.492553711,1,0,0,-19.17755127,-9.492553711,1,0,0,0,122,122,141,1,,,,,,,,
,,,,,,,,,,,,,FF,,,,,,,,0.9505,,,,,,,,,,,,,,,,,,,,,,61008e0692c4e112f80c097b,610367cf38ea569b5abc4281,2021-07-29_22h46.29.178,Simcolourproject_2stim_asymm_v5,2020.2.10,MacIntel,60,61025ae37ef11b136ea224fe,,,,,,,,,1038,-55.63708496,-33.23934937,1,0,0,response5disk,,2,-9.170410156,-8.290008545,1,0,0,rectangle,-9.170410156,-8.290008545,1,0,0,-9.170410156,-8.290008545,1,0,0,0,123,123,156,1,,,,,,,,
,,,,,,,,,,,,,FF,,,,,,,,1.2168,,,,,,,,,,,,,,,,,,,,,,61008e0692c4e112f80c097b,610367cf38ea569b5abc4281,2021-07-29_22h46.29.178,Simcolourproject_2stim_asymm_v5,2020.2.10,MacIntel,60,61025ae37ef11b136ea224fe,,,,,,,,,2539,67.7052002,43.68939209,1,0,0,response1disk,,6,17.48681641,10.19125366,1,0,0,rectangle,17.48681641,10.19125366,1,0,0,17.48681641,10.19125366,1,0,0,0,124,124,102,1,,,,,,,,
,,,,,,,,,,,,,FF,,,,,,,,1.0164,,,,,,,,,,,,,,,,,,,,,,61008e0692c4e112f80c097b,610367cf38ea569b5abc4281,2021-07-29_22h46.29.178,Simcolourproject_2stim_asymm_v5,2020.2.10,MacIntel,60,61025ae37ef11b136ea224fe,,,,,,,,,3099,-50.29370117,-68.84106445,1,0,0,response5disk,,3,-2.565979004,3.242248535,1,0,0,rectangle,-2.565979004,3.242248535,1,0,0,-2.565979004,3.242248535,1,0,0,0,125,125,44,1,,,,,,,,
,,,,,,,,,,,,,FF,,,,,,,,1.1165,,,,,,,,,,,,,,,,,,,,,,61008e0692c4e112f80c097b,610367cf38ea569b5abc4281,2021-07-29_22h46.29.178,Simcolourproject_2stim_asymm_v5,2020.2.10,MacIntel,60,61025ae37ef11b136ea224fe,,,,,,,,,3080,43.74688721,-55.57849121,1,0,0,response3disk,,4,20.67791748,13.1257019,1,0,0,rectangle,20.67791748,13.1257019,1,0,0,20.67791748,13.1257019,1,0,0,0,126,126,145,1,,,,,,,,
,,,,,,,,,,,,,FF,,,,,,,,0.7837,,,,,,,,,,,,,,,,,,,,,,61008e0692c4e112f80c097b,610367cf38ea569b5abc4281,2021-07-29_22h46.29.178,Simcolourproject_2stim_asymm_v5,2020.2.10,MacIntel,60,61025ae37ef11b136ea224fe,,,,,,,,,4334,30.88183594,71.94622803,1,0,0,response1disk,,7,8.410888672,3.765838623,1,0,0,rectangle,8.410888672,3.765838623,1,0,0,8.410888672,3.765838623,1,0,0,0,127,127,37,1,,,,,,,,
,,,,,,,,,,,,,FF,,,,,,,,0.7848,,,,,,,,,,,,,,,,,,,,,,61008e0692c4e112f80c097b,610367cf38ea569b5abc4281,2021-07-29_22h46.29.178,Simcolourproject_2stim_asymm_v5,2020.2.10,MacIntel,60,61025ae37ef11b136ea224fe,,,,,,,,,1816,-44.44702148,66.88397217,1,0,0,response7disk,,0,-12.33428955,3.078063965,1,0,0,rectangle,-12.33428955,3.078063965,1,0,0,-12.33428955,3.078063965,1,0,0,0,128,128,144,1,,,,,,,,
,,,,,,,,,,,,,FF,,,,,,,,1.2504,,,,,,,,,,,,,,,,,,,,,,61008e0692c4e112f80c097b,610367cf38ea569b5abc4281,2021-07-29_22h46.29.178,Simcolourproject_2stim_asymm_v5,2020.2.10,MacIntel,60,61025ae37ef11b136ea224fe,,,,,,,,,3443,-71.57495117,-35.83670044,1,0,0,response5disk,,2,-1.50793457,-5.843139648,1,0,0,rectangle,-1.50793457,-5.843139648,1,0,0,-1.50793457,-5.843139648,1,0,0,0,129,129,151,1,,,,,,,,
,,,,,,,,,,,,,FF,,,,,,,,0.918,,,,,,,,,,,,,,,,,,,,,,61008e0692c4e112f80c097b,610367cf38ea569b5abc4281,2021-07-29_22h46.29.178,Simcolourproject_2stim_asymm_v5,2020.2.10,MacIntel,60,61025ae37ef11b136ea224fe,,,,,,,,,560,21.46118164,-61.16156006,1,0,0,response3disk,,4,-2.928161621,0.751953125,1,0,0,rectangle,-2.928161621,0.751953125,1,0,0,-2.928161621,0.751953125,1,0,0,0,130,130,14,1,,,,,,,,
,,,,,,,,,,,,,FF,,,,,,,,0.7502,,,,,,,,,,,,,,,,,,,,,,61008e0692c4e112f80c097b,610367cf38ea569b5abc4281,2021-07-29_22h46.29.178,Simcolourproject_2stim_asymm_v5,2020.2.10,MacIntel,60,61025ae37ef11b136ea224fe,,,,,,,,,2508,65.1829834,-39.43649292,1,0,0,response3disk,,5,-9.882263184,12.54293823,1,0,0,rectangle,-9.882263184,12.54293823,1,0,0,-9.882263184,12.54293823,1,0,0,0,131,131,52,1,,,,,,,,
,,,,,,,,,,,,,FF,,,,,,,,1.0168,,,,,,,,,,,,,,,,,,,,,,61008e0692c4e112f80c097b,610367cf38ea569b5abc4281,2021-07-29_22h46.29.178,Simcolourproject_2stim_asymm_v5,2020.2.10,MacIntel,60,61025ae37ef11b136ea224fe,,,,,,,,,1320,50.73602295,19.35614014,1,0,0,response1disk,,6,6.674133301,-2.285400391,1,0,0,rectangle,6.674133301,-2.285400391,1,0,0,6.674133301,-2.285400391,1,0,0,0,132,132,39,1,,,,,,,,
,,,,,,,,,,,,,FF,,,,,,,,0.8511,,,,,,,,,,,,,,,,,,,,,,61008e0692c4e112f80c097b,610367cf38ea569b5abc4281,2021-07-29_22h46.29.178,Simcolourproject_2stim_asymm_v5,2020.2.10,MacIntel,60,61025ae37ef11b136ea224fe,,,,,,,,,1531,52.89599609,-43.2182312,1,0,0,response3disk,,5,5.749511719,-16.68362427,1,0,0,rectangle,5.749511719,-16.68362427,1,0,0,5.749511719,-16.68362427,1,0,0,0,133,133,123,1,,,,,,,,
,,,,,,,,,,,,,FF,,,,,,,,1.4496,,,,,,,,,,,,,,,,,,,,,,61008e0692c4e112f80c097b,610367cf38ea569b5abc4281,2021-07-29_22h46.29.178,Simcolourproject_2stim_asymm_v5,2020.2.10,MacIntel,60,61025ae37ef11b136ea224fe,,,,,,,,,940,28.68511963,65.26748657,1,0,0,response1disk,,7,-1.024841309,12.65429688,1,0,0,rectangle,-1.024841309,12.65429688,1,0,0,-1.024841309,12.65429688,1,0,0,0,134,134,38,1,,,,,,,,
,,,,,,,,,,,,,FF,,,,,,,,0.9824,,,,,,,,,,,,,,,,,,,,,,61008e0692c4e112f80c097b,610367cf38ea569b5abc4281,2021-07-29_22h46.29.178,Simcolourproject_2stim_asymm_v5,2020.2.10,MacIntel,60,61025ae37ef11b136ea224fe,,,,,,,,,4230,58.02789307,27.28726196,1,0,0,response1disk,,6,11.70098877,-2.038299561,1,0,0,rectangle,-80.20904541,38.7258606,1,0,0,-6.663757324,8.432250977,1,0,0,0,135,135,10,1,,response7disk_3,TRUE,1,1,"[275,44,93,44,253,103,322,263,226,286,62,42,279,297,306,219,239,136,37,315]",1.1838,rectangle
,,,,,,,,,,,,,FF,,,,,,,,0.8512,,,,,,,,,,,,,,,,,,,,,,61008e0692c4e112f80c097b,610367cf38ea569b5abc4281,2021-07-29_22h46.29.178,Simcolourproject_2stim_asymm_v5,2020.2.10,MacIntel,60,61025ae37ef11b136ea224fe,,,,,,,,,493,37.04956055,65.26275635,1,0,0,response1disk,,7,5.062316895,8.787414551,1,0,0,rectangle,5.062316895,8.787414551,1,0,0,5.062316895,8.787414551,1,0,0,0,136,136,105,1,,,,,,,,
,,,,,,,,,,,,,FF,,,,,,,,0.9666,,,,,,,,,,,,,,,,,,,,,,61008e0692c4e112f80c097b,610367cf38ea569b5abc4281,2021-07-29_22h46.29.178,Simcolourproject_2stim_asymm_v5,2020.2.10,MacIntel,60,61025ae37ef11b136ea224fe,,,,,,,,,3341,-66.46350098,-31.65481567,1,0,0,response5disk,,2,-4.475769043,4.441802979,1,0,0,rectangle,-4.475769043,4.441802979,1,0,0,-4.475769043,4.441802979,1,0,0,0,137,137,153,1,,,,,,,,
,,,,,,,,,,,,,FF,,,,,,,,1.133,,,,,,,,,,,,,,,,,,,,,,61008e0692c4e112f80c097b,610367cf38ea569b5abc4281,2021-07-29_22h46.29.178,Simcolourproject_2stim_asymm_v5,2020.2.10,MacIntel,60,61025ae37ef11b136ea224fe,,,,,,,,,1640,70.74810791,46.41522217,1,0,0,response1disk,,6,7.927185059,8.526977539,1,0,0,rectangle,7.927185059,8.526977539,1,0,0,7.927185059,8.526977539,1,0,0,0,138,138,100,1,,,,,,,,
,,,,,,,,,,,,,FF,,,,,,,,1.5181,,,,,,,,,,,,,,,,,,,,,,61008e0692c4e112f80c097b,610367cf38ea569b5abc4281,2021-07-29_22h46.29.178,Simcolourproject_2stim_asymm_v5,2020.2.10,MacIntel,60,61025ae37ef11b136ea224fe,,,,,,,,,1920,28.94299316,78.95394897,1,0,0,response1disk,,7,11.57727051,4.619262695,1,0,0,rectangle,11.57727051,4.619262695,1,0,0,11.57727051,4.619262695,1,0,0,0,139,139,53,1,,,,,,,,
,,,,,,,,,,,,,FF,,,,,,,,0.9689,,,,,,,,,,,,,,,,,,,,,,61008e0692c4e112f80c097b,610367cf38ea569b5abc4281,2021-07-29_22h46.29.178,Simcolourproject_2stim_asymm_v5,2020.2.10,MacIntel,60,61025ae37ef11b136ea224fe,,,,,,,,,1549,38.62487793,-78.54083252,1,0,0,response3disk,,4,-6.731262207,1.365875244,1,0,0,rectangle,-6.731262207,1.365875244,1,0,0,-6.731262207,1.365875244,1,0,0,0,140,140,120,1,,,,,,,,
,,,,,,,,,,,,,FF,,,,,,,,0.6499,,,,,,,,,,,,,,,,,,,,,,61008e0692c4e112f80c097b,610367cf38ea569b5abc4281,2021-07-29_22h46.29.178,Simcolourproject_2stim_asymm_v5,2020.2.10,MacIntel,60,61025ae37ef11b136ea224fe,,,,,,,,,2519,33.45037842,93.39486694,1,0,0,response1disk,,7,2.226196289,12.44851685,1,0,0,rectangle,2.226196289,12.44851685,1,0,0,2.226196289,12.44851685,1,0,0,0,141,141,46,1,,,,,,,,
,,,,,,,,,,,,,FF,,,,,,,,0.9658,,,,,,,,,,,,,,,,,,,,,,61008e0692c4e112f80c097b,610367cf38ea569b5abc4281,2021-07-29_22h46.29.178,Simcolourproject_2stim_asymm_v5,2020.2.10,MacIntel,60,61025ae37ef11b136ea224fe,,,,,,,,,2944,-31.59112549,-61.82247925,1,0,0,response5disk,,3,-10.24249268,-3.889221191,1,0,0,rectangle,-10.24249268,-3.889221191,1,0,0,-10.24249268,-3.889221191,1,0,0,0,142,142,114,1,,,,,,,,
,,,,,,,,,,,,,FF,,,,,,,,0.8317,,,,,,,,,,,,,,,,,,,,,,61008e0692c4e112f80c097b,610367cf38ea569b5abc4281,2021-07-29_22h46.29.178,Simcolourproject_2stim_asymm_v5,2020.2.10,MacIntel,60,61025ae37ef11b136ea224fe,,,,,,,,,1981,43.38763428,78.41912842,1,0,0,response1disk,,7,5.778930664,-3.031097412,1,0,0,rectangle,5.778930664,-3.031097412,1,0,0,5.778930664,-3.031097412,1,0,0,0,143,143,78,1,,,,,,,,
,,,,,,,,,,,,,FF,,,,,,,,1.1496,,,,,,,,,,,,,,,,,,,,,,61008e0692c4e112f80c097b,610367cf38ea569b5abc4281,2021-07-29_22h46.29.178,Simcolourproject_2stim_asymm_v5,2020.2.10,MacIntel,60,61025ae37ef11b136ea224fe,,,,,,,,,2606,-69.94085693,-31.56442261,1,0,0,response5disk,,2,3.019348145,3.184539795,1,0,0,rectangle,3.019348145,3.184539795,1,0,0,3.019348145,3.184539795,1,0,0,0,144,144,21,1,,,,,,,,
,,,,,,,,,,,,,FF,,,,,,,,1.2005,,,,,,,,,,,,,,,,,,,,,,61008e0692c4e112f80c097b,610367cf38ea569b5abc4281,2021-07-29_22h46.29.178,Simcolourproject_2stim_asymm_v5,2020.2.10,MacIntel,60,61025ae37ef11b136ea224fe,,,,,,,,,3951,-83.08319092,-33.86761475,1,0,0,response5disk,,2,-10.12384033,-2.348266602,1,0,0,rectangle,-10.12384033,-2.348266602,1,0,0,-10.12384033,-2.348266602,1,0,0,0,145,145,115,1,,,,,,,,
,,,,,,,,,,,,,FF,,,,,,,,1.2828,,,,,,,,,,,,,,,,,,,,,,61008e0692c4e112f80c097b,610367cf38ea569b5abc4281,2021-07-29_22h46.29.178,Simcolourproject_2stim_asymm_v5,2020.2.10,MacIntel,60,61025ae37ef11b136ea224fe,,,,,,,,,815,-76.77203369,19.1847229,1,0,0,response7disk,,1,-1.975891113,0.821716309,1,0,0,rectangle,-1.975891113,0.821716309,1,0,0,-1.975891113,0.821716309,1,0,0,0,146,146,61,1,,,,,,,,
,,,,,,,,,,,,,FF,,,,,,,,0.9836,,,,,,,,,,,,,,,,,,,,,,61008e0692c4e112f80c097b,610367cf38ea569b5abc4281,2021-07-29_22h46.29.178,Simcolourproject_2stim_asymm_v5,2020.2.10,MacIntel,60,61025ae37ef11b136ea224fe,,,,,,,,,4090,-48.42449951,-71.71081543,1,0,0,response5disk,,3,2.941589355,-8.090118408,1,0,0,rectangle,2.941589355,-8.090118408,1,0,0,2.941589355,-8.090118408,1,0,0,0,147,147,103,1,,,,,,,,
,,,,,,,,,,,,,FF,,,,,,,,1.3008,,,,,,,,,,,,,,,,,,,,,,61008e0692c4e112f80c097b,610367cf38ea569b5abc4281,2021-07-29_22h46.29.178,Simcolourproject_2stim_asymm_v5,2020.2.10,MacIntel,60,61025ae37ef11b136ea224fe,,,,,,,,,1420,68.99517822,-43.31222534,1,0,0,response3disk,,5,-6.167114258,-6.522033691,1,0,0,rectangle,-6.167114258,-6.522033691,1,0,0,-6.167114258,-6.522033691,1,0,0,0,148,148,95,1,,,,,,,,
,,,,,,,,,,,,,FF,,,,,,,,0.9675,,,,,,,,,,,,,,,,,,,,,,61008e0692c4e112f80c097b,610367cf38ea569b5abc4281,2021-07-29_22h46.29.178,Simcolourproject_2stim_asymm_v5,2020.2.10,MacIntel,60,61025ae37ef11b136ea224fe,,,,,,,,,3249,-23.01013184,-66.62506104,1,0,0,response5disk,,3,-1.383178711,-2.87789917,1,0,0,rectangle,-1.383178711,-2.87789917,1,0,0,-1.383178711,-2.87789917,1,0,0,0,149,149,118,1,,,,,,,,
,,,,,,,,,,,,,FF,,,,,,,,1.5168,,,,,,,,,,,,,,,,,,,,,,61008e0692c4e112f80c097b,610367cf38ea569b5abc4281,2021-07-29_22h46.29.178,Simcolourproject_2stim_asymm_v5,2020.2.10,MacIntel,60,61025ae37ef11b136ea224fe,,,,,,,,,2598,61.37713623,39.13272095,1,0,0,response1disk,,6,-5.975585938,7.168273926,1,0,0,rectangle,-5.975585938,7.168273926,1,0,0,-5.975585938,7.168273926,1,0,0,0,150,150,23,1,,,,,,,,
,,,,,,,,,,,,,FF,,,,,,,,0.8338,,,,,,,,,,,,,,,,,,,,,,61008e0692c4e112f80c097b,610367cf38ea569b5abc4281,2021-07-29_22h46.29.178,Simcolourproject_2stim_asymm_v5,2020.2.10,MacIntel,60,61025ae37ef11b136ea224fe,,,,,,,,,2957,34.90142822,67.3248291,1,0,0,response1disk,,7,11.31695557,-8.118591309,1,0,0,rectangle,11.31695557,-8.118591309,1,0,0,11.31695557,-8.118591309,1,0,0,0,151,151,125,1,,,,,,,,
,,,,,,,,,,,,,FF,,,,,,,,0.6672,,,,,,,,,,,,,,,,,,,,,,61008e0692c4e112f80c097b,610367cf38ea569b5abc4281,2021-07-29_22h46.29.178,Simcolourproject_2stim_asymm_v5,2020.2.10,MacIntel,60,61025ae37ef11b136ea224fe,,,,,,,,,3669,-28.32531738,79.30392456,1,0,0,response7disk,,0,-0.62878418,7.014526367,1,0,0,rectangle,-0.62878418,7.014526367,1,0,0,-0.62878418,7.014526367,1,0,0,0,152,152,91,1,,,,,,,,
,,,,,,,,,,,,,FF,,,,,,,,1.0664,,,,,,,,,,,,,,,,,,,,,,61008e0692c4e112f80c097b,610367cf38ea569b5abc4281,2021-07-29_22h46.29.178,Simcolourproject_2stim_asymm_v5,2020.2.10,MacIntel,60,61025ae37ef11b136ea224fe,,,,,,,,,2286,-26.36413574,-76.19232178,1,0,0,response5disk,,3,-9.013916016,-5.664978027,1,0,0,rectangle,-9.013916016,-5.664978027,1,0,0,-9.013916016,-5.664978027,1,0,0,0,153,153,83,1,,,,,,,,
,,,,,,,,,,,,,FF,,,,,,,,0.6668,,,,,,,,,,,,,,,,,,,,,,61008e0692c4e112f80c097b,610367cf38ea569b5abc4281,2021-07-29_22h46.29.178,Simcolourproject_2stim_asymm_v5,2020.2.10,MacIntel,60,61025ae37ef11b136ea224fe,,,,,,,,,331,43.44354248,100.0237122,1,0,0,response1disk,,7,8.186462402,11.08416748,1,0,0,rectangle,8.186462402,11.08416748,1,0,0,8.186462402,11.08416748,1,0,0,0,154,154,158,1,,,,,,,,
,,,,,,,,,,,,,FF,,,,,,,,0.6003,,,,,,,,,,,,,,,,,,,,,,61008e0692c4e112f80c097b,610367cf38ea569b5abc4281,2021-07-29_22h46.29.178,Simcolourproject_2stim_asymm_v5,2020.2.10,MacIntel,60,61025ae37ef11b136ea224fe,,,,,,,,,2319,36.45513916,72.99490356,1,0,0,response1disk,,7,9.307678223,0.262664795,1,0,0,rectangle,9.307678223,0.262664795,1,0,0,9.307678223,0.262664795,1,0,0,0,155,155,7,1,,,,,,,,
,,,,,,,,,,,,,FF,,,,,,,,0.7831,,,,,,,,,,,,,,,,,,,,,,61008e0692c4e112f80c097b,610367cf38ea569b5abc4281,2021-07-29_22h46.29.178,Simcolourproject_2stim_asymm_v5,2020.2.10,MacIntel,60,61025ae37ef11b136ea224fe,,,,,,,,,2924,27.10736084,50.83499146,1,0,0,response1disk,,7,9.051269531,-8.160736084,1,0,0,rectangle,9.051269531,-8.160736084,1,0,0,9.051269531,-8.160736084,1,0,0,0,156,156,9,1,,,,,,,,
,,,,,,,,,,,,,FF,,,,,,,,0.7158,,,,,,,,,,,,,,,,,,,,,,61008e0692c4e112f80c097b,610367cf38ea569b5abc4281,2021-07-29_22h46.29.178,Simcolourproject_2stim_asymm_v5,2020.2.10,MacIntel,60,61025ae37ef11b136ea224fe,,,,,,,,,2457,44.23400879,24.29626465,1,0,0,response1disk,,6,6.317321777,-3.326202393,1,0,0,rectangle,6.317321777,-3.326202393,1,0,0,6.317321777,-3.326202393,1,0,0,0,157,157,94,1,,,,,,,,
,,,,,,,,,,,,,FF,,,,,,,,1.3163,,,,,,,,,,,,,,,,,,,,,,61008e0692c4e112f80c097b,610367cf38ea569b5abc4281,2021-07-29_22h46.29.178,Simcolourproject_2stim_asymm_v5,2020.2.10,MacIntel,60,61025ae37ef11b136ea224fe,,,,,,,,,3090,-29.80914307,-98.4486084,1,0,0,response5disk,,3,19.26531982,-11.47253418,1,0,0,rectangle,19.26531982,-11.47253418,1,0,0,19.26531982,-11.47253418,1,0,0,0,158,158,36,1,,,,,,,,
,,,,,,,,,,,,,FF,,,,,,,,0.8001,,,,,,,,,,,,,,,,,,,,,,61008e0692c4e112f80c097b,610367cf38ea569b5abc4281,2021-07-29_22h46.29.178,Simcolourproject_2stim_asymm_v5,2020.2.10,MacIntel,60,61025ae37ef11b136ea224fe,,,,,,,,,2720,-50.66668701,-63.40808105,1,0,0,response5disk,,3,-8.981079102,1.499237061,1,0,0,rectangle,-8.981079102,1.499237061,1,0,0,-8.981079102,1.499237061,1,0,0,0,159,159,16,1,,,,,,,,
,,,,,,,,,,,,,FF,,,,,,,,2.8992,,,,,,,,,,,,,,,,,,,,,,61008e0692c4e112f80c097b,610367cf38ea569b5abc4281,2021-07-29_22h46.29.178,Simcolourproject_2stim_asymm_v5,2020.2.10,MacIntel,60,61025ae37ef11b136ea224fe,,,,,,,,,313,-36.1762085,-53.40188599,1,0,0,response5disk,,3,3.241088867,2.577758789,1,0,0,rectangle,3.241088867,2.577758789,1,0,0,3.241088867,2.577758789,1,0,0,1,0,160,143,1,,,,,,,,
,,,,,,,,,,,,,FF,,,,,,,,0.7664,,,,,,,,,,,,,,,,,,,,,,61008e0692c4e112f80c097b,610367cf38ea569b5abc4281,2021-07-29_22h46.29.178,Simcolourproject_2stim_asymm_v5,2020.2.10,MacIntel,60,61025ae37ef11b136ea224fe,,,,,,,,,2290,44.10119629,91.43267822,1,0,0,response1disk,,7,-7.726074219,-12.08547974,1,0,0,rectangle,-7.726074219,-12.08547974,1,0,0,-7.726074219,-12.08547974,1,0,0,1,1,161,141,1,,,,,,,,
,,,,,,,,,,,,,FF,,,,,,,,1.2503,,,,,,,,,,,,,,,,,,,,,,61008e0692c4e112f80c097b,610367cf38ea569b5abc4281,2021-07-29_22h46.29.178,Simcolourproject_2stim_asymm_v5,2020.2.10,MacIntel,60,61025ae37ef11b136ea224fe,,,,,,,,,590,62.97521973,-32.68002319,1,0,0,response3disk,,5,8.253967285,-1.628356934,1,0,0,rectangle,8.253967285,-1.628356934,1,0,0,8.253967285,-1.628356934,1,0,0,1,2,162,41,1,,,,,,,,
,,,,,,,,,,,,,FF,,,,,,,,1.2829,,,,,,,,,,,,,,,,,,,,,,61008e0692c4e112f80c097b,610367cf38ea569b5abc4281,2021-07-29_22h46.29.178,Simcolourproject_2stim_asymm_v5,2020.2.10,MacIntel,60,61025ae37ef11b136ea224fe,,,,,,,,,1283,63.48217773,-39.228302,1,0,0,response3disk,,5,4.168212891,-6.509460449,1,0,0,rectangle,4.168212891,-6.509460449,1,0,0,4.168212891,-6.509460449,1,0,0,1,3,163,127,1,,,,,,,,
,,,,,,,,,,,,,FF,,,,,,,,0.933,,,,,,,,,,,,,,,,,,,,,,61008e0692c4e112f80c097b,610367cf38ea569b5abc4281,2021-07-29_22h46.29.178,Simcolourproject_2stim_asymm_v5,2020.2.10,MacIntel,60,61025ae37ef11b136ea224fe,,,,,,,,,3057,-39.99951172,-57.76107788,1,0,0,response5disk,,3,-7.765136719,-0.399230957,1,0,0,rectangle,-7.765136719,-0.399230957,1,0,0,-7.765136719,-0.399230957,1,0,0,1,4,164,22,1,,,,,,,,
,,,,,,,,,,,,,FF,,,,,,,,0.9168,,,,,,,,,,,,,,,,,,,,,,61008e0692c4e112f80c097b,610367cf38ea569b5abc4281,2021-07-29_22h46.29.178,Simcolourproject_2stim_asymm_v5,2020.2.10,MacIntel,60,61025ae37ef11b136ea224fe,,,,,,,,,3001,50.65319824,68.95675659,1,0,0,response1disk,,7,6.525756836,0.159576416,1,0,0,rectangle,6.525756836,0.159576416,1,0,0,6.525756836,0.159576416,1,0,0,1,5,165,147,1,,,,,,,,
,,,,,,,,,,,,,FF,,,,,,,,3.2671,,,,,,,,,,,,,,,,,,,,,,61008e0692c4e112f80c097b,610367cf38ea569b5abc4281,2021-07-29_22h46.29.178,Simcolourproject_2stim_asymm_v5,2020.2.10,MacIntel,60,61025ae37ef11b136ea224fe,,,,,,,,,769,74.48065186,36.32449341,1,0,0,response1disk,,6,-2.673400879,7.60458374,1,0,0,rectangle,-2.673400879,7.60458374,1,0,0,-2.673400879,7.60458374,1,0,0,1,6,166,138,1,,,,,,,,
,,,,,,,,,,,,,FF,,,,,,,,0.8831,,,,,,,,,,,,,,,,,,,,,,61008e0692c4e112f80c097b,610367cf38ea569b5abc4281,2021-07-29_22h46.29.178,Simcolourproject_2stim_asymm_v5,2020.2.10,MacIntel,60,61025ae37ef11b136ea224fe,,,,,,,,,2634,65.64709473,30.24002075,1,0,0,response1disk,,6,13.77264404,0.743347168,1,0,0,rectangle,13.77264404,0.743347168,1,0,0,13.77264404,0.743347168,1,0,0,1,7,167,159,1,,,,,,,,
,,,,,,,,,,,,,FF,,,,,,,,0.7662,,,,,,,,,,,,,,,,,,,,,,61008e0692c4e112f80c097b,610367cf38ea569b5abc4281,2021-07-29_22h46.29.178,Simcolourproject_2stim_asymm_v5,2020.2.10,MacIntel,60,61025ae37ef11b136ea224fe,,,,,,,,,4308,31.16595459,59.63983154,1,0,0,response1disk,,7,-8.227844238,-0.876983643,1,0,0,rectangle,-8.227844238,-0.876983643,1,0,0,-8.227844238,-0.876983643,1,0,0,1,8,168,43,1,,,,,,,,
,,,,,,,,,,,,,FF,,,,,,,,1.5173,,,,,,,,,,,,,,,,,,,,,,61008e0692c4e112f80c097b,610367cf38ea569b5abc4281,2021-07-29_22h46.29.178,Simcolourproject_2stim_asymm_v5,2020.2.10,MacIntel,60,61025ae37ef11b136ea224fe,,,,,,,,,1653,76.09124756,-61.96472168,1,0,0,response3disk,,5,-4.733764648,4.602539063,1,0,0,rectangle,-4.733764648,4.602539063,1,0,0,-4.733764648,4.602539063,1,0,0,1,9,169,26,1,,,,,,,,
,,,,,,,,,,,,,FF,,,,,,,,0.9001,,,,,,,,,,,,,,,,,,,,,,61008e0692c4e112f80c097b,610367cf38ea569b5abc4281,2021-07-29_22h46.29.178,Simcolourproject_2stim_asymm_v5,2020.2.10,MacIntel,60,61025ae37ef11b136ea224fe,,,,,,,,,132,35.69818115,67.60702515,1,0,0,response1disk,,7,5.959655762,5.579559326,1,0,0,rectangle,5.959655762,5.579559326,1,0,0,5.959655762,5.579559326,1,0,0,1,10,170,25,1,,,,,,,,
,,,,,,,,,,,,,FF,,,,,,,,1.383,,,,,,,,,,,,,,,,,,,,,,61008e0692c4e112f80c097b,610367cf38ea569b5abc4281,2021-07-29_22h46.29.178,Simcolourproject_2stim_asymm_v5,2020.2.10,MacIntel,60,61025ae37ef11b136ea224fe,,,,,,,,,3441,-36.27435303,59.43457031,1,0,0,response7disk,,0,-5.06036377,3.987548828,1,0,0,rectangle,-5.06036377,3.987548828,1,0,0,-5.06036377,3.987548828,1,0,0,1,11,171,23,1,,,,,,,,
,,,,,,,,,,,,,FF,,,,,,,,0.7655,,,,,,,,,,,,,,,,,,,,,,61008e0692c4e112f80c097b,610367cf38ea569b5abc4281,2021-07-29_22h46.29.178,Simcolourproject_2stim_asymm_v5,2020.2.10,MacIntel,60,61025ae37ef11b136ea224fe,,,,,,,,,1483,53.69390869,35.14352417,1,0,0,response1disk,,6,-6.127624512,-0.374938965,1,0,0,rectangle,-6.127624512,-0.374938965,1,0,0,-6.127624512,-0.374938965,1,0,0,1,12,172,140,1,,,,,,,,
,,,,,,,,,,,,,FF,,,,,,,,1.033,,,,,,,,,,,,,,,,,,,,,,61008e0692c4e112f80c097b,610367cf38ea569b5abc4281,2021-07-29_22h46.29.178,Simcolourproject_2stim_asymm_v5,2020.2.10,MacIntel,60,61025ae37ef11b136ea224fe,,,,,,,,,2108,81.48248291,40.13354492,1,0,0,response1disk,,6,-18.29632568,6.238586426,1,0,0,rectangle,-18.29632568,6.238586426,1,0,0,-18.29632568,6.238586426,1,0,0,1,13,173,61,1,,,,,,,,
,,,,,,,,,,,,,FF,,,,,,,,0.883,,,,,,,,,,,,,,,,,,,,,,61008e0692c4e112f80c097b,610367cf38ea569b5abc4281,2021-07-29_22h46.29.178,Simcolourproject_2stim_asymm_v5,2020.2.10,MacIntel,60,61025ae37ef11b136ea224fe,,,,,,,,,1438,72.39385986,-38.66809082,1,0,0,response3disk,,5,-8.450317383,-1.907867432,1,0,0,rectangle,-8.450317383,-1.907867432,1,0,0,-8.450317383,-1.907867432,1,0,0,1,14,174,67,1,,,,,,,,
,,,,,,,,,,,,,FF,,,,,,,,0.7001,,,,,,,,,,,,,,,,,,,,,,61008e0692c4e112f80c097b,610367cf38ea569b5abc4281,2021-07-29_22h46.29.178,Simcolourproject_2stim_asymm_v5,2020.2.10,MacIntel,60,61025ae37ef11b136ea224fe,,,,,,,,,2211,20.67669678,54.3057251,1,0,0,response1disk,,7,11.65484619,-12.15582275,1,0,0,rectangle,11.65484619,-12.15582275,1,0,0,11.65484619,-12.15582275,1,0,0,1,15,175,108,1,,,,,,,,
,,,,,,,,,,,,,FF,,,,,,,,1.0491,,,,,,,,,,,,,,,,,,,,,,61008e0692c4e112f80c097b,610367cf38ea569b5abc4281,2021-07-29_22h46.29.178,Simcolourproject_2stim_asymm_v5,2020.2.10,MacIntel,60,61025ae37ef11b136ea224fe,,,,,,,,,719,-61.40606689,-30.80743408,1,0,0,response5disk,,2,11.17102051,-0.161773682,1,0,0,rectangle,11.17102051,-0.161773682,1,0,0,11.17102051,-0.161773682,1,0,0,1,16,176,59,1,,,,,,,,
,,,,,,,,,,,,,FF,,,,,,,,1.4685,,,,,,,,,,,,,,,,,,,,,,61008e0692c4e112f80c097b,610367cf38ea569b5abc4281,2021-07-29_22h46.29.178,Simcolourproject_2stim_asymm_v5,2020.2.10,MacIntel,60,61025ae37ef11b136ea224fe,,,,,,,,,3885,63.99066162,47.3442688,1,0,0,response1disk,,6,-2.962158203,-0.950439453,1,0,0,rectangle,-2.962158203,-0.950439453,1,0,0,-2.962158203,-0.950439453,1,0,0,1,17,177,32,1,,,,,,,,
,,,,,,,,,,,,,FF,,,,,,,,1.1164,,,,,,,,,,,,,,,,,,,,,,61008e0692c4e112f80c097b,610367cf38ea569b5abc4281,2021-07-29_22h46.29.178,Simcolourproject_2stim_asymm_v5,2020.2.10,MacIntel,60,61025ae37ef11b136ea224fe,,,,,,,,,3289,64.63110352,30.29299927,1,0,0,response1disk,,6,7.785217285,0.255462646,1,0,0,rectangle,7.785217285,0.255462646,1,0,0,7.785217285,0.255462646,1,0,0,1,18,178,145,1,,,,,,,,
,,,,,,,,,,,,,FF,,,,,,,,1.4,,,,,,,,,,,,,,,,,,,,,,61008e0692c4e112f80c097b,610367cf38ea569b5abc4281,2021-07-29_22h46.29.178,Simcolourproject_2stim_asymm_v5,2020.2.10,MacIntel,60,61025ae37ef11b136ea224fe,,,,,,,,,2169,-15.88110352,-73.63555908,1,0,0,response5disk,,3,12.40545654,5.132324219,1,0,0,rectangle,12.40545654,5.132324219,1,0,0,12.40545654,5.132324219,1,0,0,1,19,179,65,1,,,,,,,,
,,,,,,,,,,,,,FF,,,,,,,,1.0164,,,,,,,,,,,,,,,,,,,,,,61008e0692c4e112f80c097b,610367cf38ea569b5abc4281,2021-07-29_22h46.29.178,Simcolourproject_2stim_asymm_v5,2020.2.10,MacIntel,60,61025ae37ef11b136ea224fe,,,,,,,,,1585,45.98815918,-50.34606934,1,0,0,response3disk,,4,17.16326904,-0.750579834,1,0,0,rectangle,17.16326904,-0.750579834,1,0,0,17.16326904,-0.750579834,1,0,0,1,20,180,38,1,,,,,,,,
,,,,,,,,,,,,,FF,,,,,,,,1.4828,,,,,,,,,,,,,,,,,,,,,,61008e0692c4e112f80c097b,610367cf38ea569b5abc4281,2021-07-29_22h46.29.178,Simcolourproject_2stim_asymm_v5,2020.2.10,MacIntel,60,61025ae37ef11b136ea224fe,,,,,,,,,1852,71.47741699,49.00720215,1,0,0,response1disk,,6,9.296936035,2.754882813,1,0,0,rectangle,9.296936035,2.754882813,1,0,0,9.296936035,2.754882813,1,0,0,1,21,181,37,1,,,,,,,,
,,,,,,,,,,,,,FF,,,,,,,,1.217,,,,,,,,,,,,,,,,,,,,,,61008e0692c4e112f80c097b,610367cf38ea569b5abc4281,2021-07-29_22h46.29.178,Simcolourproject_2stim_asymm_v5,2020.2.10,MacIntel,60,61025ae37ef11b136ea224fe,,,,,,,,,1134,-80.09576416,32.33496094,1,0,0,response7disk,,1,-4.240722656,-1.611541748,1,0,0,rectangle,-4.240722656,-1.611541748,1,0,0,-4.240722656,-1.611541748,1,0,0,1,22,182,148,1,,,,,,,,
,,,,,,,,,,,,,FF,,,,,,,,1.617,,,,,,,,,,,,,,,,,,,,,,61008e0692c4e112f80c097b,610367cf38ea569b5abc4281,2021-07-29_22h46.29.178,Simcolourproject_2stim_asymm_v5,2020.2.10,MacIntel,60,61025ae37ef11b136ea224fe,,,,,,,,,1571,79.58355713,-35.63037109,1,0,0,response3disk,,5,5.770019531,-9.547393799,1,0,0,rectangle,5.770019531,-9.547393799,1,0,0,5.770019531,-9.547393799,1,0,0,1,23,183,109,1,,,,,,,,
,,,,,,,,,,,,,FF,,,,,,,,1.7337,,,,,,,,,,,,,,,,,,,,,,61008e0692c4e112f80c097b,610367cf38ea569b5abc4281,2021-07-29_22h46.29.178,Simcolourproject_2stim_asymm_v5,2020.2.10,MacIntel,60,61025ae37ef11b136ea224fe,,,,,,,,,2090,-88.68640137,-34.2713623,1,0,0,response5disk,,2,-0.229431152,-4.051025391,1,0,0,rectangle,-0.229431152,-4.051025391,1,0,0,-0.229431152,-4.051025391,1,0,0,1,24,184,51,1,,,,,,,,
,,,,,,,,,,,,,FF,,,,,,,,1.0506,,,,,,,,,,,,,,,,,,,,,,61008e0692c4e112f80c097b,610367cf38ea569b5abc4281,2021-07-29_22h46.29.178,Simcolourproject_2stim_asymm_v5,2020.2.10,MacIntel,60,61025ae37ef11b136ea224fe,,,,,,,,,959,37.72180176,59.22067261,1,0,0,response1disk,,7,5.597717285,3.420837402,1,0,0,rectangle,5.597717285,3.420837402,1,0,0,5.597717285,3.420837402,1,0,0,1,25,185,101,1,,,,,,,,
,,,,,,,,,,,,,FF,,,,,,,,1.3515,,,,,,,,,,,,,,,,,,,,,,61008e0692c4e112f80c097b,610367cf38ea569b5abc4281,2021-07-29_22h46.29.178,Simcolourproject_2stim_asymm_v5,2020.2.10,MacIntel,60,61025ae37ef11b136ea224fe,,,,,,,,,378,-42.90130615,-73.57128906,1,0,0,response5disk,,3,-3.362243652,-7.696472168,1,0,0,rectangle,-3.362243652,-7.696472168,1,0,0,-3.362243652,-7.696472168,1,0,0,1,26,186,20,1,,,,,,,,
,,,,,,,,,,,,,FF,,,,,,,,2.4188,,,,,,,,,,,,,,,,,,,,,,61008e0692c4e112f80c097b,610367cf38ea569b5abc4281,2021-07-29_22h46.29.178,Simcolourproject_2stim_asymm_v5,2020.2.10,MacIntel,60,61025ae37ef11b136ea224fe,,,,,,,,,4241,-33.0133667,-65.73883057,1,0,0,response5disk,,3,-10.88043213,-2.564483643,1,0,0,rectangle,-10.88043213,-2.564483643,1,0,0,-10.88043213,-2.564483643,1,0,0,1,27,187,50,1,,,,,,,,
,,,,,,,,,,,,,FF,,,,,,,,0.767,,,,,,,,,,,,,,,,,,,,,,61008e0692c4e112f80c097b,610367cf38ea569b5abc4281,2021-07-29_22h46.29.178,Simcolourproject_2stim_asymm_v5,2020.2.10,MacIntel,60,61025ae37ef11b136ea224fe,,,,,,,,,2450,49.2142334,31.47589111,1,0,0,response1disk,,6,-11.7868042,1.429962158,1,0,0,rectangle,-11.7868042,1.429962158,1,0,0,-11.7868042,1.429962158,1,0,0,1,28,188,7,1,,,,,,,,
,,,,,,,,,,,,,FF,,,,,,,,1.2503,,,,,,,,,,,,,,,,,,,,,,61008e0692c4e112f80c097b,610367cf38ea569b5abc4281,2021-07-29_22h46.29.178,Simcolourproject_2stim_asymm_v5,2020.2.10,MacIntel,60,61025ae37ef11b136ea224fe,,,,,,,,,430,-46.66564941,-61.57382202,1,0,0,response5disk,,3,5.559143066,1.043365479,1,0,0,rectangle,5.559143066,1.043365479,1,0,0,5.559143066,1.043365479,1,0,0,1,29,189,132,1,,,,,,,,
,,,,,,,,,,,,,FF,,,,,,,,0.7989,,,,,,,,,,,,,,,,,,,,,,61008e0692c4e112f80c097b,610367cf38ea569b5abc4281,2021-07-29_22h46.29.178,Simcolourproject_2stim_asymm_v5,2020.2.10,MacIntel,60,61025ae37ef11b136ea224fe,,,,,,,,,277,-45.27850342,34.69793701,1,0,0,response7disk,,1,15.27954102,1.760803223,1,0,0,rectangle,15.27954102,1.760803223,1,0,0,15.27954102,1.760803223,1,0,0,1,30,190,93,1,,,,,,,,
,,,,,,,,,,,,,FF,,,,,,,,2.8821,,,,,,,,,,,,,,,,,,,,,,61008e0692c4e112f80c097b,610367cf38ea569b5abc4281,2021-07-29_22h46.29.178,Simcolourproject_2stim_asymm_v5,2020.2.10,MacIntel,60,61025ae37ef11b136ea224fe,,,,,,,,,4015,-41.57214355,-68.72839355,1,0,0,response5disk,,3,5.601257324,0.078826904,1,0,0,rectangle,5.601257324,0.078826904,1,0,0,5.601257324,0.078826904,1,0,0,1,31,191,73,1,,,,,,,,
,,,,,,,,,,,,,FF,,,,,,,,0.6663,,,,,,,,,,,,,,,,,,,,,,61008e0692c4e112f80c097b,610367cf38ea569b5abc4281,2021-07-29_22h46.29.178,Simcolourproject_2stim_asymm_v5,2020.2.10,MacIntel,60,61025ae37ef11b136ea224fe,,,,,,,,,155,59.09301758,31.0062561,1,0,0,response1disk,,6,-9.501403809,-17.91799927,1,0,0,rectangle,-9.501403809,-17.91799927,1,0,0,-9.501403809,-17.91799927,1,0,0,1,32,192,115,1,,,,,,,,
,,,,,,,,,,,,,FF,,,,,,,,1.0493,,,,,,,,,,,,,,,,,,,,,,61008e0692c4e112f80c097b,610367cf38ea569b5abc4281,2021-07-29_22h46.29.178,Simcolourproject_2stim_asymm_v5,2020.2.10,MacIntel,60,61025ae37ef11b136ea224fe,,,,,,,,,964,59.06652832,-37.46661377,1,0,0,response3disk,,5,10.61132813,-6.747070313,1,0,0,rectangle,10.61132813,-6.747070313,1,0,0,10.61132813,-6.747070313,1,0,0,1,33,193,88,1,,,,,,,,
,,,,,,,,,,,,,FF,,,,,,,,1.4177,,,,,,,,,,,,,,,,,,,,,,61008e0692c4e112f80c097b,610367cf38ea569b5abc4281,2021-07-29_22h46.29.178,Simcolourproject_2stim_asymm_v5,2020.2.10,MacIntel,60,61025ae37ef11b136ea224fe,,,,,,,,,3718,-52.22119141,30.97848511,1,0,0,response7disk,,1,1.752868652,-5.602630615,1,0,0,rectangle,1.752868652,-5.602630615,1,0,0,1.752868652,-5.602630615,1,0,0,1,34,194,33,1,,,,,,,,
,,,,,,,,,,,,,FF,,,,,,,,0.6667,,,,,,,,,,,,,,,,,,,,,,61008e0692c4e112f80c097b,610367cf38ea569b5abc4281,2021-07-29_22h46.29.178,Simcolourproject_2stim_asymm_v5,2020.2.10,MacIntel,60,61025ae37ef11b136ea224fe,,,,,,,,,3670,-29.00775146,71.6701355,1,0,0,response7disk,,0,-7.97265625,-0.667633057,1,0,0,rectangle,-7.97265625,-0.667633057,1,0,0,-7.97265625,-0.667633057,1,0,0,1,35,195,74,1,,,,,,,,
,,,,,,,,,,,,,FF,,,,,,,,0.7017,,,,,,,,,,,,,,,,,,,,,,61008e0692c4e112f80c097b,610367cf38ea569b5abc4281,2021-07-29_22h46.29.178,Simcolourproject_2stim_asymm_v5,2020.2.10,MacIntel,60,61025ae37ef11b136ea224fe,,,,,,,,,2395,55.9609375,29.30862427,1,0,0,response1disk,,6,5.381958008,-11.0194397,1,0,0,rectangle,5.381958008,-11.0194397,1,0,0,5.381958008,-11.0194397,1,0,0,1,36,196,113,1,,,,,,,,
,,,,,,,,,,,,,FF,,,,,,,,1.7838,,,,,,,,,,,,,,,,,,,,,,61008e0692c4e112f80c097b,610367cf38ea569b5abc4281,2021-07-29_22h46.29.178,Simcolourproject_2stim_asymm_v5,2020.2.10,MacIntel,60,61025ae37ef11b136ea224fe,,,,,,,,,3303,-42.20385742,-43.68441772,1,0,0,response5disk,,3,-12.9644165,-2.629821777,1,0,0,rectangle,-12.9644165,-2.629821777,1,0,0,-12.9644165,-2.629821777,1,0,0,1,37,197,158,1,,,,,,,,
,,,,,,,,,,,,,FF,,,,,,,,0.9167,,,,,,,,,,,,,,,,,,,,,,61008e0692c4e112f80c097b,610367cf38ea569b5abc4281,2021-07-29_22h46.29.178,Simcolourproject_2stim_asymm_v5,2020.2.10,MacIntel,60,61025ae37ef11b136ea224fe,,,,,,,,,1101,39.14453125,59.79550171,1,0,0,response1disk,,7,10.10546875,-7.622314453,1,0,0,rectangle,10.10546875,-7.622314453,1,0,0,10.10546875,-7.622314453,1,0,0,1,38,198,58,1,,,,,,,,
,,,,,,,,,,,,,FF,,,,,,,,0.8348,,,,,,,,,,,,,,,,,,,,,,61008e0692c4e112f80c097b,610367cf38ea569b5abc4281,2021-07-29_22h46.29.178,Simcolourproject_2stim_asymm_v5,2020.2.10,MacIntel,60,61025ae37ef11b136ea224fe,,,,,,,,,224,63.94104004,-41.87832642,1,0,0,response3disk,,5,11.53778076,-4.939086914,1,0,0,rectangle,11.53778076,-4.939086914,1,0,0,11.53778076,-4.939086914,1,0,0,1,39,199,56,1,,,,,,,,
,,,,,,,,,,,,,FF,,,,,,,,1.3493,,,,,,,,,,,,,,,,,,,,,,61008e0692c4e112f80c097b,610367cf38ea569b5abc4281,2021-07-29_22h46.29.178,Simcolourproject_2stim_asymm_v5,2020.2.10,MacIntel,60,61025ae37ef11b136ea224fe,,,,,,,,,1107,28.74371338,-77.28155518,1,0,0,response3disk,,4,-0.700805664,-0.81439209,1,0,0,rectangle,-0.700805664,-0.81439209,1,0,0,-0.700805664,-0.81439209,1,0,0,1,40,200,85,1,,,,,,,,
,,,,,,,,,,,,,FF,,,,,,,,1.2655,,,,,,,,,,,,,,,,,,,,,,61008e0692c4e112f80c097b,610367cf38ea569b5abc4281,2021-07-29_22h46.29.178,Simcolourproject_2stim_asymm_v5,2020.2.10,MacIntel,60,61025ae37ef11b136ea224fe,,,,,,,,,2877,42.59246826,29.70767212,1,0,0,response1disk,,6,-0.343200684,-4.730895996,1,0,0,rectangle,-0.343200684,-4.730895996,1,0,0,-0.343200684,-4.730895996,1,0,0,1,41,201,63,1,,,,,,,,
,,,,,,,,,,,,,FF,,,,,,,,1.1169,,,,,,,,,,,,,,,,,,,,,,61008e0692c4e112f80c097b,610367cf38ea569b5abc4281,2021-07-29_22h46.29.178,Simcolourproject_2stim_asymm_v5,2020.2.10,MacIntel,60,61025ae37ef11b136ea224fe,,,,,,,,,2643,57.91943359,36.34194946,1,0,0,response1disk,,6,12.29827881,3.4765625,1,0,0,rectangle,12.29827881,3.4765625,1,0,0,12.29827881,3.4765625,1,0,0,1,42,202,8,1,,,,,,,,
,,,,,,,,,,,,,FF,,,,,,,,3.1669,,,,,,,,,,,,,,,,,,,,,,61008e0692c4e112f80c097b,610367cf38ea569b5abc4281,2021-07-29_22h46.29.178,Simcolourproject_2stim_asymm_v5,2020.2.10,MacIntel,60,61025ae37ef11b136ea224fe,,,,,,,,,2506,39.43554688,64.90383911,1,0,0,response1disk,,7,0.229309082,4.103851318,1,0,0,rectangle,0.229309082,4.103851318,1,0,0,0.229309082,4.103851318,1,0,0,1,43,203,46,1,,,,,,,,
,,,,,,,,,,,,,FF,,,,,,,,0.9657,,,,,,,,,,,,,,,,,,,,,,61008e0692c4e112f80c097b,610367cf38ea569b5abc4281,2021-07-29_22h46.29.178,Simcolourproject_2stim_asymm_v5,2020.2.10,MacIntel,60,61025ae37ef11b136ea224fe,,,,,,,,,3886,31.35455322,-47.85415649,1,0,0,response3disk,,4,-12.86553955,8.475158691,1,0,0,rectangle,-12.86553955,8.475158691,1,0,0,-12.86553955,8.475158691,1,0,0,1,44,204,83,1,,,,,,,,
,,,,,,,,,,,,,FF,,,,,,,,0.8998,,,,,,,,,,,,,,,,,,,,,,61008e0692c4e112f80c097b,610367cf38ea569b5abc4281,2021-07-29_22h46.29.178,Simcolourproject_2stim_asymm_v5,2020.2.10,MacIntel,60,61025ae37ef11b136ea224fe,,,,,,,,,4357,-61.60882568,34.30380249,1,0,0,response7disk,,1,-3.386657715,3.677398682,1,0,0,rectangle,-3.386657715,3.677398682,1,0,0,-3.386657715,3.677398682,1,0,0,1,45,205,97,1,,,,,,,,
,,,,,,,,,,,,,FF,,,,,,,,0.8339,,,,,,,,,,,,,,,,,,,,,,61008e0692c4e112f80c097b,610367cf38ea569b5abc4281,2021-07-29_22h46.29.178,Simcolourproject_2stim_asymm_v5,2020.2.10,MacIntel,60,61025ae37ef11b136ea224fe,,,,,,,,,4096,-58.8182373,22.13937378,1,0,0,response7disk,,1,-5.535400391,-1.60836792,1,0,0,rectangle,-5.535400391,-1.60836792,1,0,0,-5.535400391,-1.60836792,1,0,0,1,46,206,11,1,,,,,,,,
,,,,,,,,,,,,,FF,,,,,,,,1.1004,,,,,,,,,,,,,,,,,,,,,,61008e0692c4e112f80c097b,610367cf38ea569b5abc4281,2021-07-29_22h46.29.178,Simcolourproject_2stim_asymm_v5,2020.2.10,MacIntel,60,61025ae37ef11b136ea224fe,,,,,,,,,882,-30.33270264,-74.77392578,1,0,0,response5disk,,3,-2.891845703,-8.00201416,1,0,0,rectangle,-2.891845703,-8.00201416,1,0,0,-2.891845703,-8.00201416,1,0,0,1,47,207,64,1,,,,,,,,
,,,,,,,,,,,,,FF,,,,,,,,0.6463,,,,,,,,,,,,,,,,,,,,,,61008e0692c4e112f80c097b,610367cf38ea569b5abc4281,2021-07-29_22h46.29.178,Simcolourproject_2stim_asymm_v5,2020.2.10,MacIntel,60,61025ae37ef11b136ea224fe,,,,,,,,,3416,40.69891357,69.07492065,1,0,0,response1disk,,7,16.28039551,12.93026733,1,0,0,rectangle,16.28039551,12.93026733,1,0,0,16.28039551,12.93026733,1,0,0,1,48,208,128,1,,,,,,,,
,,,,,,,,,,,,,FF,,,,,,,,1.1491,,,,,,,,,,,,,,,,,,,,,,61008e0692c4e112f80c097b,610367cf38ea569b5abc4281,2021-07-29_22h46.29.178,Simcolourproject_2stim_asymm_v5,2020.2.10,MacIntel,60,61025ae37ef11b136ea224fe,,,,,,,,,3924,35.6552124,-71.72290039,1,0,0,response3disk,,4,-4.729187012,-5.784790039,1,0,0,rectangle,-4.729187012,-5.784790039,1,0,0,-4.729187012,-5.784790039,1,0,0,1,49,209,5,1,,,,,,,,
,,,,,,,,,,,,,FF,,,,,,,,1.0023,,,,,,,,,,,,,,,,,,,,,,61008e0692c4e112f80c097b,610367cf38ea569b5abc4281,2021-07-29_22h46.29.178,Simcolourproject_2stim_asymm_v5,2020.2.10,MacIntel,60,61025ae37ef11b136ea224fe,,,,,,,,,3554,-71.1038208,-33.85144043,1,0,0,response5disk,,2,-5.763183594,2.68951416,1,0,0,rectangle,-5.763183594,2.68951416,1,0,0,-5.763183594,2.68951416,1,0,0,1,50,210,125,1,,,,,,,,
,,,,,,,,,,,,,FF,,,,,,,,1.0847,,,,,,,,,,,,,,,,,,,,,,61008e0692c4e112f80c097b,610367cf38ea569b5abc4281,2021-07-29_22h46.29.178,Simcolourproject_2stim_asymm_v5,2020.2.10,MacIntel,60,61025ae37ef11b136ea224fe,,,,,,,,,1308,-87.95184326,-43.68237305,1,0,0,response5disk,,2,-23.68841553,-9.953704834,1,0,0,rectangle,-23.68841553,-9.953704834,1,0,0,-23.68841553,-9.953704834,1,0,0,1,51,211,57,1,,,,,,,,
,,,,,,,,,,,,,FF,,,,,,,,1.0497,,,,,,,,,,,,,,,,,,,,,,61008e0692c4e112f80c097b,610367cf38ea569b5abc4281,2021-07-29_22h46.29.178,Simcolourproject_2stim_asymm_v5,2020.2.10,MacIntel,60,61025ae37ef11b136ea224fe,,,,,,,,,1614,45.31396484,-70.59783936,1,0,0,response3disk,,4,29.55255127,-6.826660156,1,0,0,rectangle,29.55255127,-6.826660156,1,0,0,29.55255127,-6.826660156,1,0,0,1,52,212,21,1,,,,,,,,
,,,,,,,,,,,,,FF,,,,,,,,0.8496,,,,,,,,,,,,,,,,,,,,,,61008e0692c4e112f80c097b,610367cf38ea569b5abc4281,2021-07-29_22h46.29.178,Simcolourproject_2stim_asymm_v5,2020.2.10,MacIntel,60,61025ae37ef11b136ea224fe,,,,,,,,,2359,-71.57592773,-41.18701172,1,0,0,response5disk,,2,-9.740356445,-2.268981934,1,0,0,rectangle,-9.740356445,-2.268981934,1,0,0,-9.740356445,-2.268981934,1,0,0,1,53,213,49,1,,,,,,,,
,,,,,,,,,,,,,FF,,,,,,,,1.0995,,,,,,,,,,,,,,,,,,,,,,61008e0692c4e112f80c097b,610367cf38ea569b5abc4281,2021-07-29_22h46.29.178,Simcolourproject_2stim_asymm_v5,2020.2.10,MacIntel,60,61025ae37ef11b136ea224fe,,,,,,,,,1562,71.71331787,-44.1456604,1,0,0,response3disk,,5,5.032592773,-4.838928223,1,0,0,rectangle,5.032592773,-4.838928223,1,0,0,5.032592773,-4.838928223,1,0,0,1,54,214,2,1,,,,,,,,
,,,,,,,,,,,,,FF,,,,,,,,0.7675,,,,,,,,,,,,,,,,,,,,,,61008e0692c4e112f80c097b,610367cf38ea569b5abc4281,2021-07-29_22h46.29.178,Simcolourproject_2stim_asymm_v5,2020.2.10,MacIntel,60,61025ae37ef11b136ea224fe,,,,,,,,,2260,65.43634033,-33.03646851,1,0,0,response3disk,,5,-14.17218018,-2.848876953,1,0,0,rectangle,-14.17218018,-2.848876953,1,0,0,-14.17218018,-2.848876953,1,0,0,1,55,215,146,1,,,,,,,,
,,,,,,,,,,,,,FF,,,,,,,,0.9828,,,,,,,,,,,,,,,,,,,,,,61008e0692c4e112f80c097b,610367cf38ea569b5abc4281,2021-07-29_22h46.29.178,Simcolourproject_2stim_asymm_v5,2020.2.10,MacIntel,60,61025ae37ef11b136ea224fe,,,,,,,,,1594,71.36505127,41.00384521,1,0,0,response1disk,,6,-14.09625244,-10.25891113,1,0,0,rectangle,-14.09625244,-10.25891113,1,0,0,-14.09625244,-10.25891113,1,0,0,1,56,216,24,1,,,,,,,,
,,,,,,,,,,,,,FF,,,,,,,,1.4673,,,,,,,,,,,,,,,,,,,,,,61008e0692c4e112f80c097b,610367cf38ea569b5abc4281,2021-07-29_22h46.29.178,Simcolourproject_2stim_asymm_v5,2020.2.10,MacIntel,60,61025ae37ef11b136ea224fe,,,,,,,,,2688,66.38580322,-46.13696289,1,0,0,response3disk,,5,6.708374023,-1.123352051,1,0,0,rectangle,6.708374023,-1.123352051,1,0,0,6.708374023,-1.123352051,1,0,0,1,57,217,107,1,,,,,,,,
,,,,,,,,,,,,,FF,,,,,,,,0.883,,,,,,,,,,,,,,,,,,,,,,61008e0692c4e112f80c097b,610367cf38ea569b5abc4281,2021-07-29_22h46.29.178,Simcolourproject_2stim_asymm_v5,2020.2.10,MacIntel,60,61025ae37ef11b136ea224fe,,,,,,,,,2608,-74.95019531,-41.07989502,1,0,0,response5disk,,2,-0.047485352,10.34912109,1,0,0,rectangle,-32.89550781,-78.31256104,1,0,0,-4.331970215,-5.04397583,1,0,0,1,58,218,44,1,,response5disk_3,TRUE,3,3,"[275,44,93,44,253,103,322,263,226,286,62,42,279,297,306,219,239,136,37,315]",1.9668,rectangle
,,,,,,,,,,,,,FF,,,,,,,,1.4836,,,,,,,,,,,,,,,,,,,,,,61008e0692c4e112f80c097b,610367cf38ea569b5abc4281,2021-07-29_22h46.29.178,Simcolourproject_2stim_asymm_v5,2020.2.10,MacIntel,60,61025ae37ef11b136ea224fe,,,,,,,,,637,-64.40319824,28.24349976,1,0,0,response7disk,,1,12.78540039,-4.055328369,1,0,0,rectangle,12.78540039,-4.055328369,1,0,0,12.78540039,-4.055328369,1,0,0,1,59,219,94,1,,,,,,,,
,,,,,,,,,,,,,FF,,,,,,,,1.167,,,,,,,,,,,,,,,,,,,,,,61008e0692c4e112f80c097b,610367cf38ea569b5abc4281,2021-07-29_22h46.29.178,Simcolourproject_2stim_asymm_v5,2020.2.10,MacIntel,60,61025ae37ef11b136ea224fe,,,,,,,,,4154,43.83496094,-61.68353271,1,0,0,response3disk,,4,8.033081055,9.607330322,1,0,0,rectangle,8.033081055,9.607330322,1,0,0,8.033081055,9.607330322,1,0,0,1,60,220,121,1,,,,,,,,
,,,,,,,,,,,,,FF,,,,,,,,1.6317,,,,,,,,,,,,,,,,,,,,,,61008e0692c4e112f80c097b,610367cf38ea569b5abc4281,2021-07-29_22h46.29.178,Simcolourproject_2stim_asymm_v5,2020.2.10,MacIntel,60,61025ae37ef11b136ea224fe,,,,,,,,,1398,-15.57055664,-70.72888184,1,0,0,response5disk,,3,3.904174805,-15.90426636,1,0,0,rectangle,3.904174805,-15.90426636,1,0,0,3.904174805,-15.90426636,1,0,0,1,61,221,129,1,,,,,,,,
,,,,,,,,,,,,,FF,,,,,,,,0.784,,,,,,,,,,,,,,,,,,,,,,61008e0692c4e112f80c097b,610367cf38ea569b5abc4281,2021-07-29_22h46.29.178,Simcolourproject_2stim_asymm_v5,2020.2.10,MacIntel,60,61025ae37ef11b136ea224fe,,,,,,,,,298,85.04382324,-30.224823,1,0,0,response3disk,,5,-11.7388916,-4.966461182,1,0,0,rectangle,-11.7388916,-4.966461182,1,0,0,-11.7388916,-4.966461182,1,0,0,1,62,222,13,1,,,,,,,,
,,,,,,,,,,,,,FF,,,,,,,,0.8008,,,,,,,,,,,,,,,,,,,,,,61008e0692c4e112f80c097b,610367cf38ea569b5abc4281,2021-07-29_22h46.29.178,Simcolourproject_2stim_asymm_v5,2020.2.10,MacIntel,60,61025ae37ef11b136ea224fe,,,,,,,,,3178,55.0512085,47.19448853,1,0,0,response1disk,,6,2.600402832,17.19039917,1,0,0,rectangle,2.600402832,17.19039917,1,0,0,2.600402832,17.19039917,1,0,0,1,63,223,87,1,,,,,,,,
,,,,,,,,,,,,,FF,,,,,,,,0.8158,,,,,,,,,,,,,,,,,,,,,,61008e0692c4e112f80c097b,610367cf38ea569b5abc4281,2021-07-29_22h46.29.178,Simcolourproject_2stim_asymm_v5,2020.2.10,MacIntel,60,61025ae37ef11b136ea224fe,,,,,,,,,3614,25.73156738,80.26577759,1,0,0,response1disk,,7,-1.140441895,4.700927734,1,0,0,rectangle,-1.140441895,4.700927734,1,0,0,-1.140441895,4.700927734,1,0,0,1,64,224,70,1,,,,,,,,
,,,,,,,,,,,,,FF,,,,,,,,0.9335,,,,,,,,,,,,,,,,,,,,,,61008e0692c4e112f80c097b,610367cf38ea569b5abc4281,2021-07-29_22h46.29.178,Simcolourproject_2stim_asymm_v5,2020.2.10,MacIntel,60,61025ae37ef11b136ea224fe,,,,,,,,,3754,-67.20678711,-37.2956543,1,0,0,response5disk,,2,5.859436035,-1.374237061,1,0,0,rectangle,-71.11224365,36.67962646,1,0,0,-2.034729004,-4.111907959,1,0,0,1,65,225,62,1,,response7disk_3,TRUE,1,1,"[275,44,93,44,253,103,322,263,226,286,62,42,279,297,306,219,239,136,37,315]",1.3839,rectangle
,,,,,,,,,,,,,FF,,,,,,,,0.7985,,,,,,,,,,,,,,,,,,,,,,61008e0692c4e112f80c097b,610367cf38ea569b5abc4281,2021-07-29_22h46.29.178,Simcolourproject_2stim_asymm_v5,2020.2.10,MacIntel,60,61025ae37ef11b136ea224fe,,,,,,,,,1790,70.01300049,41.74136353,1,0,0,response1disk,,6,2.852600098,-0.674102783,1,0,0,rectangle,2.852600098,-0.674102783,1,0,0,2.852600098,-0.674102783,1,0,0,1,66,226,10,1,,,,,,,,
,,,,,,,,,,,,,FF,,,,,,,,0.7997,,,,,,,,,,,,,,,,,,,,,,61008e0692c4e112f80c097b,610367cf38ea569b5abc4281,2021-07-29_22h46.29.178,Simcolourproject_2stim_asymm_v5,2020.2.10,MacIntel,60,61025ae37ef11b136ea224fe,,,,,,,,,3650,46.59136963,74.50628662,1,0,0,response1disk,,7,15.34881592,17.05828857,1,0,0,rectangle,15.34881592,17.05828857,1,0,0,15.34881592,17.05828857,1,0,0,1,67,227,12,1,,,,,,,,
,,,,,,,,,,,,,FF,,,,,,,,1.3822,,,,,,,,,,,,,,,,,,,,,,61008e0692c4e112f80c097b,610367cf38ea569b5abc4281,2021-07-29_22h46.29.178,Simcolourproject_2stim_asymm_v5,2020.2.10,MacIntel,60,61025ae37ef11b136ea224fe,,,,,,,,,420,32.20800781,60.12573242,1,0,0,response1disk,,7,1.72644043,-3.742889404,1,0,0,rectangle,1.72644043,-3.742889404,1,0,0,1.72644043,-3.742889404,1,0,0,1,68,228,29,1,,,,,,,,
,,,,,,,,,,,,,FF,,,,,,,,1.135,,,,,,,,,,,,,,,,,,,,,,61008e0692c4e112f80c097b,610367cf38ea569b5abc4281,2021-07-29_22h46.29.178,Simcolourproject_2stim_asymm_v5,2020.2.10,MacIntel,60,61025ae37ef11b136ea224fe,,,,,,,,,2142,48.47906494,-70.96142578,1,0,0,response3disk,,4,7.814697266,-4.001190186,1,0,0,rectangle,7.814697266,-4.001190186,1,0,0,7.814697266,-4.001190186,1,0,0,1,69,229,116,1,,,,,,,,
,,,,,,,,,,,,,FF,,,,,,,,0.8837,,,,,,,,,,,,,,,,,,,,,,61008e0692c4e112f80c097b,610367cf38ea569b5abc4281,2021-07-29_22h46.29.178,Simcolourproject_2stim_asymm_v5,2020.2.10,MacIntel,60,61025ae37ef11b136ea224fe,,,,,,,,,2655,-33.12457275,-59.22470093,1,0,0,response5disk,,3,-9.959899902,0.461303711,1,0,0,rectangle,-9.959899902,0.461303711,1,0,0,-9.959899902,0.461303711,1,0,0,1,70,230,18,1,,,,,,,,
,,,,,,,,,,,,,FF,,,,,,,,1.2688,,,,,,,,,,,,,,,,,,,,,,61008e0692c4e112f80c097b,610367cf38ea569b5abc4281,2021-07-29_22h46.29.178,Simcolourproject_2stim_asymm_v5,2020.2.10,MacIntel,60,61025ae37ef11b136ea224fe,,,,,,,,,2380,-41.64520264,-66.52941895,1,0,0,response5disk,,3,-23.25805664,-14.68933105,1,0,0,rectangle,-23.25805664,-14.68933105,1,0,0,-23.25805664,-14.68933105,1,0,0,1,71,231,96,1,,,,,,,,
,,,,,,,,,,,,,FF,,,,,,,,1.4809,,,,,,,,,,,,,,,,,,,,,,61008e0692c4e112f80c097b,610367cf38ea569b5abc4281,2021-07-29_22h46.29.178,Simcolourproject_2stim_asymm_v5,2020.2.10,MacIntel,60,61025ae37ef11b136ea224fe,,,,,,,,,327,35.19110107,-76.52172852,1,0,0,response3disk,,4,7.484680176,-0.254608154,1,0,0,rectangle,7.484680176,-0.254608154,1,0,0,7.484680176,-0.254608154,1,0,0,1,72,232,71,1,,,,,,,,
,,,,,,,,,,,,,FF,,,,,,,,0.9719,,,,,,,,,,,,,,,,,,,,,,61008e0692c4e112f80c097b,610367cf38ea569b5abc4281,2021-07-29_22h46.29.178,Simcolourproject_2stim_asymm_v5,2020.2.10,MacIntel,60,61025ae37ef11b136ea224fe,,,,,,,,,1568,67.42773438,47.39700317,1,0,0,response1disk,,6,-15.35467529,-2.958190918,1,0,0,rectangle,-15.35467529,-2.958190918,1,0,0,-15.35467529,-2.958190918,1,0,0,1,73,233,48,1,,,,,,,,
,,,,,,,,,,,,,FF,,,,,,,,1.7686,,,,,,,,,,,,,,,,,,,,,,61008e0692c4e112f80c097b,610367cf38ea569b5abc4281,2021-07-29_22h46.29.178,Simcolourproject_2stim_asymm_v5,2020.2.10,MacIntel,60,61025ae37ef11b136ea224fe,,,,,,,,,3166,-27.86517334,-51.63461304,1,0,0,response5disk,,3,-5.91986084,-2.085510254,1,0,0,rectangle,-5.91986084,-2.085510254,1,0,0,-5.91986084,-2.085510254,1,0,0,1,74,234,69,1,,,,,,,,
,,,,,,,,,,,,,FF,,,,,,,,1.3838,,,,,,,,,,,,,,,,,,,,,,61008e0692c4e112f80c097b,610367cf38ea569b5abc4281,2021-07-29_22h46.29.178,Simcolourproject_2stim_asymm_v5,2020.2.10,MacIntel,60,61025ae37ef11b136ea224fe,,,,,,,,,2399,43.24468994,-78.77270508,1,0,0,response3disk,,4,3.822509766,4.464538574,1,0,0,rectangle,3.822509766,4.464538574,1,0,0,3.822509766,4.464538574,1,0,0,1,75,235,91,1,,,,,,,,
,,,,,,,,,,,,,FF,,,,,,,,0.8338,,,,,,,,,,,,,,,,,,,,,,61008e0692c4e112f80c097b,610367cf38ea569b5abc4281,2021-07-29_22h46.29.178,Simcolourproject_2stim_asymm_v5,2020.2.10,MacIntel,60,61025ae37ef11b136ea224fe,,,,,,,,,4336,-70.4309082,30.80566406,1,0,0,response7disk,,1,-15.26330566,8.955871582,1,0,0,rectangle,-15.26330566,8.955871582,1,0,0,-15.26330566,8.955871582,1,0,0,1,76,236,106,1,,,,,,,,
,,,,,,,,,,,,,FF,,,,,,,,1.3499,,,,,,,,,,,,,,,,,,,,,,61008e0692c4e112f80c097b,610367cf38ea569b5abc4281,2021-07-29_22h46.29.178,Simcolourproject_2stim_asymm_v5,2020.2.10,MacIntel,60,61025ae37ef11b136ea224fe,,,,,,,,,1279,48.70031738,47.63076782,1,0,0,response1disk,,6,-15.97619629,-8.02053833,1,0,0,rectangle,-15.97619629,-8.02053833,1,0,0,-15.97619629,-8.02053833,1,0,0,1,77,237,130,1,,,,,,,,
,,,,,,,,,,,,,FF,,,,,,,,0.9192,,,,,,,,,,,,,,,,,,,,,,61008e0692c4e112f80c097b,610367cf38ea569b5abc4281,2021-07-29_22h46.29.178,Simcolourproject_2stim_asymm_v5,2020.2.10,MacIntel,60,61025ae37ef11b136ea224fe,,,,,,,,,2671,-50.20898438,-51.57989502,1,0,0,response5disk,,3,-14.31884766,-10.67572021,1,0,0,rectangle,29.97973633,-76.46258545,1,0,0,0.897583008,-0.046478271,1,0,0,1,78,238,66,1,,response3disk_3,TRUE,4,4,"[275,44,93,44,253,103,322,263,226,286,62,42,279,297,306,219,239,136,37,315]",1.5166,rectangle
,,,,,,,,,,,,,FF,,,,,,,,1.4339,,,,,,,,,,,,,,,,,,,,,,61008e0692c4e112f80c097b,610367cf38ea569b5abc4281,2021-07-29_22h46.29.178,Simcolourproject_2stim_asymm_v5,2020.2.10,MacIntel,60,61025ae37ef11b136ea224fe,,,,,,,,,3219,71.34747314,-38.2444458,1,0,0,response3disk,,5,15.36810303,2.399688721,1,0,0,rectangle,15.36810303,2.399688721,1,0,0,15.36810303,2.399688721,1,0,0,1,79,239,14,1,,,,,,,,
,,,,,,,,,,,,,FF,,,,,,,,1.0337,,,,,,,,,,,,,,,,,,,,,,61008e0692c4e112f80c097b,610367cf38ea569b5abc4281,2021-07-29_22h46.29.178,Simcolourproject_2stim_asymm_v5,2020.2.10,MacIntel,60,61025ae37ef11b136ea224fe,,,,,,,,,986,73.4387207,-34.73019409,1,0,0,response3disk,,5,-13.4911499,4.627227783,1,0,0,rectangle,-13.4911499,4.627227783,1,0,0,-13.4911499,4.627227783,1,0,0,1,80,240,117,1,,,,,,,,
,,,,,,,,,,,,,FF,,,,,,,,0.7637,,,,,,,,,,,,,,,,,,,,,,61008e0692c4e112f80c097b,610367cf38ea569b5abc4281,2021-07-29_22h46.29.178,Simcolourproject_2stim_asymm_v5,2020.2.10,MacIntel,60,61025ae37ef11b136ea224fe,,,,,,,,,499,31.34259033,72.23599243,1,0,0,response1disk,,7,13.05224609,5.596496582,1,0,0,rectangle,13.05224609,5.596496582,1,0,0,13.05224609,5.596496582,1,0,0,1,81,241,123,1,,,,,,,,
,,,,,,,,,,,,,FF,,,,,,,,1.7841,,,,,,,,,,,,,,,,,,,,,,61008e0692c4e112f80c097b,610367cf38ea569b5abc4281,2021-07-29_22h46.29.178,Simcolourproject_2stim_asymm_v5,2020.2.10,MacIntel,60,61025ae37ef11b136ea224fe,,,,,,,,,1252,69.71936035,47.17178345,1,0,0,response1disk,,6,11.14575195,2.378479004,1,0,0,rectangle,11.14575195,2.378479004,1,0,0,11.14575195,2.378479004,1,0,0,1,82,242,156,1,,,,,,,,
