key_resp.keys,key_resp.rt,key_resp_14.keys,key_resp_14.rt,key_resp_15.keys,key_resp_15.rt,key_resp_17.keys,key_resp_17.rt,key_resp_9.keys,key_resp_9.rt,key_resp_10.keys,key_resp_10.rt,practice_comparison,Ecc,mouse_5.x,mouse_5.y,mouse_5.leftButton,mouse_5.midButton,mouse_5.rightButton,mouse_5.clicked_name,pracsimilarity,response_time,mouse_10.x,mouse_10.y,mouse_10.leftButton,mouse_10.midButton,mouse_10.rightButton,mouse_10.clicked_name,mouse_7.x,mouse_7.y,mouse_7.leftButton,mouse_7.midButton,mouse_7.rightButton,mouse_6.x,mouse_6.y,mouse_6.leftButton,mouse_6.midButton,mouse_6.rightButton,duringprac.thisRepN,duringprac.thisTrialN,duringprac.thisN,duringprac.thisIndex,duringprac.ran,participant,session,date,expName,psychopyVersion,OS,frameRate,study_id,mouse_7.clicked_name,catchpracsimilarity,catch_response_time,catchnumberprac,catchtrialorderprac,mouse_6.clicked_name,key_resp_22.keys,key_resp_22.rt,realcomparison,mouse.x,mouse.y,mouse.leftButton,mouse.midButton,mouse.rightButton,mouse.clicked_name,Colour2,similarity,mouse_2.x,mouse_2.y,mouse_2.leftButton,mouse_2.midButton,mouse_2.rightButton,mouse_2.clicked_name,mouse_3.x,mouse_3.y,mouse_3.leftButton,mouse_3.midButton,mouse_3.rightButton,mouse_11.x,mouse_11.y,mouse_11.leftButton,mouse_11.midButton,mouse_11.rightButton,trials_2.thisRepN,trials_2.thisTrialN,trials_2.thisN,trials_2.thisIndex,trials_2.ran,Colour1,mouse_3.clicked_name,catchornah,catchsimilarity,catchnumber,catchtrialorder,catchRT,mouse_11.clicked_name
space,2.5846,space,108.5601,space,0.8636,space,0.6679,space,1.9838,space,4.1862,62,FF,31.57421875,-74.7265625,1,0,0,response3disk_5,4,8.4219,-1.328125,-4.5,1,0,0,rectangle_8,-1.328125,-4.5,1,0,0,-1.328125,-4.5,1,0,0,0,0,0,5,1,6100432a67ad454d0a623a03,61036ea5445ee569e534157f,2021-07-29_23h16.11.051,Simcolourproject_2stim_asymm_v5,2020.2.10,MacIntel,60,61025ae37ef11b136ea224fe,,,,,,,,,,,,,,,,,,,,,,,,,,,,,,,,,,,,,,,,,,,,,,
,,,,,,,,,,,,158,PF,34.5390625,28.12890625,1,0,0,response1disk_5,6,3.0489,0.66015625,-6.17578125,1,0,0,rectangle_8,-64.03515625,-26.9375,1,0,0,-3.96484375,-0.87109375,1,0,0,0,1,1,2,1,6100432a67ad454d0a623a03,61036ea5445ee569e534157f,2021-07-29_23h16.11.051,Simcolourproject_2stim_asymm_v5,2020.2.10,MacIntel,60,61025ae37ef11b136ea224fe,response5disk_7,2,3.7657,2,"[2,5]",rectangle_4,,,,,,,,,,,,,,,,,,,,,,,,,,,,,,,,,,,,,,,,
,,,,,,,,,,,,89,PF,-79.82421875,39.02734375,1,0,0,response7disk_5,1,10.1173,5.6953125,-2.7734375,1,0,0,rectangle_8,5.6953125,-2.7734375,1,0,0,5.6953125,-2.7734375,1,0,0,0,2,2,4,1,6100432a67ad454d0a623a03,61036ea5445ee569e534157f,2021-07-29_23h16.11.051,Simcolourproject_2stim_asymm_v5,2020.2.10,MacIntel,60,61025ae37ef11b136ea224fe,,,,,,,,,,,,,,,,,,,,,,,,,,,,,,,,,,,,,,,,,,,,,,
,,,,,,,,,,,,97,PF,-28.625,-70.51171875,1,0,0,response5disk_5,3,10.8342,-11.3125,-0.296875,1,0,0,rectangle_8,-11.3125,-0.296875,1,0,0,-11.3125,-0.296875,1,0,0,0,3,3,1,1,6100432a67ad454d0a623a03,61036ea5445ee569e534157f,2021-07-29_23h16.11.051,Simcolourproject_2stim_asymm_v5,2020.2.10,MacIntel,60,61025ae37ef11b136ea224fe,,,,,,,,,,,,,,,,,,,,,,,,,,,,,,,,,,,,,,,,,,,,,,
,,,,,,,,,,,,107,PF,81.4921875,-34.19140625,1,0,0,response3disk_5,5,1.6997,-2.00390625,0.16796875,1,0,0,rectangle_8,-75.26171875,-47.09765625,1,0,0,-17.75390625,3.13671875,1,0,0,0,4,4,6,1,6100432a67ad454d0a623a03,61036ea5445ee569e534157f,2021-07-29_23h16.11.051,Simcolourproject_2stim_asymm_v5,2020.2.10,MacIntel,60,61025ae37ef11b136ea224fe,response5disk_7,2,8.8657,2,"[2,5]",rectangle_4,,,,,,,,,,,,,,,,,,,,,,,,,,,,,,,,,,,,,,,,
,,,,,,,,,,,,89,FF,-46.9140625,69.9375,1,0,0,response7disk_5,0,2.1673,-9.66015625,9.71484375,1,0,0,rectangle_8,-9.66015625,9.71484375,1,0,0,-9.66015625,9.71484375,1,0,0,0,5,5,3,1,6100432a67ad454d0a623a03,61036ea5445ee569e534157f,2021-07-29_23h16.11.051,Simcolourproject_2stim_asymm_v5,2020.2.10,MacIntel,60,61025ae37ef11b136ea224fe,,,,,,,,,,,,,,,,,,,,,,,,,,,,,,,,,,,,,,,,,,,,,,
,,,,,,,,,,,,17,FF,-28.9765625,50.32421875,1,0,0,response7disk_5,0,1.2156,-6.0234375,9.6484375,1,0,0,rectangle_8,-6.0234375,9.6484375,1,0,0,-6.0234375,9.6484375,1,0,0,0,6,6,0,1,6100432a67ad454d0a623a03,61036ea5445ee569e534157f,2021-07-29_23h16.11.051,Simcolourproject_2stim_asymm_v5,2020.2.10,MacIntel,60,61025ae37ef11b136ea224fe,,,,,,,,,,,,,,,,,,,,,,,,,,,,,,,,,,,,,,,,,,,,,,
,,,,,,,,,,,,,FF,,,,,,,,3.0171,,,,,,,,,,,,,,,,,,,,,,6100432a67ad454d0a623a03,61036ea5445ee569e534157f,2021-07-29_23h16.11.051,Simcolourproject_2stim_asymm_v5,2020.2.10,MacIntel,60,61025ae37ef11b136ea224fe,,,,,,,space,11.6744,3488,65.33984375,-37.359375,1,0,0,response3disk,,5,13.11328125,2.015625,1,0,0,rectangle,13.11328125,2.015625,1,0,0,13.11328125,2.015625,1,0,0,0,0,0,9,1,,,,,,,,
,,,,,,,,,,,,,FF,,,,,,,,1.4003,,,,,,,,,,,,,,,,,,,,,,6100432a67ad454d0a623a03,61036ea5445ee569e534157f,2021-07-29_23h16.11.051,Simcolourproject_2stim_asymm_v5,2020.2.10,MacIntel,60,61025ae37ef11b136ea224fe,,,,,,,,,1442,-87.53125,44.7890625,1,0,0,response7disk,,1,-11.3984375,7.08984375,1,0,0,rectangle,-11.3984375,7.08984375,1,0,0,-11.3984375,7.08984375,1,0,0,0,1,1,10,1,,,,,,,,
,,,,,,,,,,,,,FF,,,,,,,,0.8841,,,,,,,,,,,,,,,,,,,,,,6100432a67ad454d0a623a03,61036ea5445ee569e534157f,2021-07-29_23h16.11.051,Simcolourproject_2stim_asymm_v5,2020.2.10,MacIntel,60,61025ae37ef11b136ea224fe,,,,,,,,,2869,74.63671875,-49.4140625,1,0,0,response3disk,,5,4.91796875,-3.7734375,1,0,0,rectangle,4.91796875,-3.7734375,1,0,0,4.91796875,-3.7734375,1,0,0,0,2,2,36,1,,,,,,,,
,,,,,,,,,,,,,FF,,,,,,,,1.1167,,,,,,,,,,,,,,,,,,,,,,6100432a67ad454d0a623a03,61036ea5445ee569e534157f,2021-07-29_23h16.11.051,Simcolourproject_2stim_asymm_v5,2020.2.10,MacIntel,60,61025ae37ef11b136ea224fe,,,,,,,,,120,49.81640625,-73.6796875,1,0,0,response3disk,,4,13.4765625,2.33203125,1,0,0,rectangle,13.4765625,2.33203125,1,0,0,13.4765625,2.33203125,1,0,0,0,3,3,125,1,,,,,,,,
,,,,,,,,,,,,,FF,,,,,,,,0.9661,,,,,,,,,,,,,,,,,,,,,,6100432a67ad454d0a623a03,61036ea5445ee569e534157f,2021-07-29_23h16.11.051,Simcolourproject_2stim_asymm_v5,2020.2.10,MacIntel,60,61025ae37ef11b136ea224fe,,,,,,,,,4369,-37.19140625,62.703125,1,0,0,response7disk,,0,-3.13671875,1.9296875,1,0,0,rectangle,-3.13671875,1.9296875,1,0,0,-3.13671875,1.9296875,1,0,0,0,4,4,108,1,,,,,,,,
,,,,,,,,,,,,,FF,,,,,,,,0.8008,,,,,,,,,,,,,,,,,,,,,,6100432a67ad454d0a623a03,61036ea5445ee569e534157f,2021-07-29_23h16.11.051,Simcolourproject_2stim_asymm_v5,2020.2.10,MacIntel,60,61025ae37ef11b136ea224fe,,,,,,,,,1828,-52.94921875,33.33203125,1,0,0,response7disk,,1,-21.75,8.40234375,1,0,0,rectangle,-21.75,8.40234375,1,0,0,-21.75,8.40234375,1,0,0,0,5,5,24,1,,,,,,,,
,,,,,,,,,,,,,FF,,,,,,,,0.8158,,,,,,,,,,,,,,,,,,,,,,6100432a67ad454d0a623a03,61036ea5445ee569e534157f,2021-07-29_23h16.11.051,Simcolourproject_2stim_asymm_v5,2020.2.10,MacIntel,60,61025ae37ef11b136ea224fe,,,,,,,,,1567,48.53515625,31.7578125,1,0,0,response1disk,,6,21.875,-8.3125,1,0,0,rectangle,21.875,-8.3125,1,0,0,21.875,-8.3125,1,0,0,0,6,6,120,1,,,,,,,,
,,,,,,,,,,,,,FF,,,,,,,,0.6018,,,,,,,,,,,,,,,,,,,,,,6100432a67ad454d0a623a03,61036ea5445ee569e534157f,2021-07-29_23h16.11.051,Simcolourproject_2stim_asymm_v5,2020.2.10,MacIntel,60,61025ae37ef11b136ea224fe,,,,,,,,,1725,50.53125,27.34765625,1,0,0,response1disk,,6,27.12109375,6.47265625,1,0,0,rectangle,27.12109375,6.47265625,1,0,0,27.12109375,6.47265625,1,0,0,0,7,7,26,1,,,,,,,,
,,,,,,,,,,,,,FF,,,,,,,,0.5333,,,,,,,,,,,,,,,,,,,,,,6100432a67ad454d0a623a03,61036ea5445ee569e534157f,2021-07-29_23h16.11.051,Simcolourproject_2stim_asymm_v5,2020.2.10,MacIntel,60,61025ae37ef11b136ea224fe,,,,,,,,,237,56.41015625,39.83203125,1,0,0,response1disk,,6,22,12.77734375,1,0,0,rectangle,22,12.77734375,1,0,0,22,12.77734375,1,0,0,0,8,8,43,1,,,,,,,,
,,,,,,,,,,,,,FF,,,,,,,,0.9157,,,,,,,,,,,,,,,,,,,,,,6100432a67ad454d0a623a03,61036ea5445ee569e534157f,2021-07-29_23h16.11.051,Simcolourproject_2stim_asymm_v5,2020.2.10,MacIntel,60,61025ae37ef11b136ea224fe,,,,,,,,,2184,72.46484375,-28.546875,1,0,0,response3disk,,5,30.4921875,-10.58203125,1,0,0,rectangle,30.4921875,-10.58203125,1,0,0,30.4921875,-10.58203125,1,0,0,0,9,9,63,1,,,,,,,,
,,,,,,,,,,,,,FF,,,,,,,,1.1834,,,,,,,,,,,,,,,,,,,,,,6100432a67ad454d0a623a03,61036ea5445ee569e534157f,2021-07-29_23h16.11.051,Simcolourproject_2stim_asymm_v5,2020.2.10,MacIntel,60,61025ae37ef11b136ea224fe,,,,,,,,,3887,37.63671875,-75.12890625,1,0,0,response3disk,,4,1.61328125,-10.6484375,1,0,0,rectangle,1.61328125,-10.6484375,1,0,0,1.61328125,-10.6484375,1,0,0,0,10,10,105,1,,,,,,,,
,,,,,,,,,,,,,FF,,,,,,,,1.0673,,,,,,,,,,,,,,,,,,,,,,6100432a67ad454d0a623a03,61036ea5445ee569e534157f,2021-07-29_23h16.11.051,Simcolourproject_2stim_asymm_v5,2020.2.10,MacIntel,60,61025ae37ef11b136ea224fe,,,,,,,,,2449,58.203125,-25.03125,1,0,0,response3disk,,5,8.640625,-5.484375,1,0,0,rectangle,-90.91796875,-27.58984375,1,0,0,-4.37890625,0.18359375,1,0,0,0,11,11,41,1,,response5disk_3,TRUE,2,2,"[159,110,88,305,154,198,170,108,72,191,226,312,12,53,226,181,280,198,301,140]",3.3529,rectangle
,,,,,,,,,,,,,FF,,,,,,,,1.0338,,,,,,,,,,,,,,,,,,,,,,6100432a67ad454d0a623a03,61036ea5445ee569e534157f,2021-07-29_23h16.11.051,Simcolourproject_2stim_asymm_v5,2020.2.10,MacIntel,60,61025ae37ef11b136ea224fe,,,,,,,,,3890,-33.51953125,-80.73046875,1,0,0,response5disk,,3,-22.54296875,-7.6796875,1,0,0,rectangle,-22.54296875,-7.6796875,1,0,0,-22.54296875,-7.6796875,1,0,0,0,12,12,7,1,,,,,,,,
,,,,,,,,,,,,,FF,,,,,,,,0.6317,,,,,,,,,,,,,,,,,,,,,,6100432a67ad454d0a623a03,61036ea5445ee569e534157f,2021-07-29_23h16.11.051,Simcolourproject_2stim_asymm_v5,2020.2.10,MacIntel,60,61025ae37ef11b136ea224fe,,,,,,,,,3878,-25.39453125,-55.59765625,1,0,0,response5disk,,3,-14.67578125,-6.546875,1,0,0,rectangle,-14.67578125,-6.546875,1,0,0,-14.67578125,-6.546875,1,0,0,0,13,13,76,1,,,,,,,,
,,,,,,,,,,,,,FF,,,,,,,,0.7492,,,,,,,,,,,,,,,,,,,,,,6100432a67ad454d0a623a03,61036ea5445ee569e534157f,2021-07-29_23h16.11.051,Simcolourproject_2stim_asymm_v5,2020.2.10,MacIntel,60,61025ae37ef11b136ea224fe,,,,,,,,,3364,90.140625,-35.53515625,1,0,0,response3disk,,5,23.2734375,2.984375,1,0,0,rectangle,23.2734375,2.984375,1,0,0,23.2734375,2.984375,1,0,0,0,14,14,98,1,,,,,,,,
,,,,,,,,,,,,,FF,,,,,,,,2.3672,,,,,,,,,,,,,,,,,,,,,,6100432a67ad454d0a623a03,61036ea5445ee569e534157f,2021-07-29_23h16.11.051,Simcolourproject_2stim_asymm_v5,2020.2.10,MacIntel,60,61025ae37ef11b136ea224fe,,,,,,,,,367,-80.421875,48.28515625,1,0,0,response7disk,,1,1.65234375,7.75390625,1,0,0,rectangle,1.65234375,7.75390625,1,0,0,1.65234375,7.75390625,1,0,0,0,15,15,137,1,,,,,,,,
,,,,,,,,,,,,,FF,,,,,,,,0.7997,,,,,,,,,,,,,,,,,,,,,,6100432a67ad454d0a623a03,61036ea5445ee569e534157f,2021-07-29_23h16.11.051,Simcolourproject_2stim_asymm_v5,2020.2.10,MacIntel,60,61025ae37ef11b136ea224fe,,,,,,,,,1477,24.23046875,-50.95703125,1,0,0,response3disk,,4,12.9296875,-7.6640625,1,0,0,rectangle,12.9296875,-7.6640625,1,0,0,12.9296875,-7.6640625,1,0,0,0,16,16,129,1,,,,,,,,
,,,,,,,,,,,,,FF,,,,,,,,0.9167,,,,,,,,,,,,,,,,,,,,,,6100432a67ad454d0a623a03,61036ea5445ee569e534157f,2021-07-29_23h16.11.051,Simcolourproject_2stim_asymm_v5,2020.2.10,MacIntel,60,61025ae37ef11b136ea224fe,,,,,,,,,4166,-67.48828125,44.80078125,1,0,0,response7disk,,1,-11.03515625,3.0703125,1,0,0,rectangle,-11.03515625,3.0703125,1,0,0,-11.03515625,3.0703125,1,0,0,0,17,17,106,1,,,,,,,,
,,,,,,,,,,,,,FF,,,,,,,,0.7995,,,,,,,,,,,,,,,,,,,,,,6100432a67ad454d0a623a03,61036ea5445ee569e534157f,2021-07-29_23h16.11.051,Simcolourproject_2stim_asymm_v5,2020.2.10,MacIntel,60,61025ae37ef11b136ea224fe,,,,,,,,,84,20.78125,67.0703125,1,0,0,response1disk,,7,12.69140625,-3.94921875,1,0,0,rectangle,12.69140625,-3.94921875,1,0,0,12.69140625,-3.94921875,1,0,0,0,18,18,89,1,,,,,,,,
,,,,,,,,,,,,,FF,,,,,,,,0.8511,,,,,,,,,,,,,,,,,,,,,,6100432a67ad454d0a623a03,61036ea5445ee569e534157f,2021-07-29_23h16.11.051,Simcolourproject_2stim_asymm_v5,2020.2.10,MacIntel,60,61025ae37ef11b136ea224fe,,,,,,,,,552,65.10546875,-44.12890625,1,0,0,response3disk,,5,12.9375,-1.62890625,1,0,0,rectangle,12.9375,-1.62890625,1,0,0,12.9375,-1.62890625,1,0,0,0,19,19,34,1,,,,,,,,
,,,,,,,,,,,,,FF,,,,,,,,0.5657,,,,,,,,,,,,,,,,,,,,,,6100432a67ad454d0a623a03,61036ea5445ee569e534157f,2021-07-29_23h16.11.051,Simcolourproject_2stim_asymm_v5,2020.2.10,MacIntel,60,61025ae37ef11b136ea224fe,,,,,,,,,114,38.671875,-75.5625,1,0,0,response3disk,,4,8.68359375,6.97265625,1,0,0,rectangle,8.68359375,6.97265625,1,0,0,8.68359375,6.97265625,1,0,0,0,20,20,90,1,,,,,,,,
,,,,,,,,,,,,,FF,,,,,,,,1.1671,,,,,,,,,,,,,,,,,,,,,,6100432a67ad454d0a623a03,61036ea5445ee569e534157f,2021-07-29_23h16.11.051,Simcolourproject_2stim_asymm_v5,2020.2.10,MacIntel,60,61025ae37ef11b136ea224fe,,,,,,,,,2952,-82.6640625,54.421875,1,0,0,response7disk,,1,-0.16796875,-2.59375,1,0,0,rectangle,-0.16796875,-2.59375,1,0,0,-0.16796875,-2.59375,1,0,0,0,21,21,29,1,,,,,,,,
,,,,,,,,,,,,,FF,,,,,,,,0.6005,,,,,,,,,,,,,,,,,,,,,,6100432a67ad454d0a623a03,61036ea5445ee569e534157f,2021-07-29_23h16.11.051,Simcolourproject_2stim_asymm_v5,2020.2.10,MacIntel,60,61025ae37ef11b136ea224fe,,,,,,,,,536,44.328125,-52.83203125,1,0,0,response3disk,,4,26.7109375,-4.6171875,1,0,0,rectangle,26.7109375,-4.6171875,1,0,0,26.7109375,-4.6171875,1,0,0,0,22,22,70,1,,,,,,,,
,,,,,,,,,,,,,FF,,,,,,,,0.7162,,,,,,,,,,,,,,,,,,,,,,6100432a67ad454d0a623a03,61036ea5445ee569e534157f,2021-07-29_23h16.11.051,Simcolourproject_2stim_asymm_v5,2020.2.10,MacIntel,60,61025ae37ef11b136ea224fe,,,,,,,,,2831,-45.1484375,60.6171875,1,0,0,response7disk,,0,-17.046875,9.02734375,1,0,0,rectangle,-17.046875,9.02734375,1,0,0,-17.046875,9.02734375,1,0,0,0,23,23,130,1,,,,,,,,
,,,,,,,,,,,,,FF,,,,,,,,0.6995,,,,,,,,,,,,,,,,,,,,,,6100432a67ad454d0a623a03,61036ea5445ee569e534157f,2021-07-29_23h16.11.051,Simcolourproject_2stim_asymm_v5,2020.2.10,MacIntel,60,61025ae37ef11b136ea224fe,,,,,,,,,1991,47.515625,-24.78125,1,0,0,response3disk,,5,14.94921875,8.0234375,1,0,0,rectangle,14.94921875,8.0234375,1,0,0,14.94921875,8.0234375,1,0,0,0,24,24,121,1,,,,,,,,
,,,,,,,,,,,,,FF,,,,,,,,0.5324,,,,,,,,,,,,,,,,,,,,,,6100432a67ad454d0a623a03,61036ea5445ee569e534157f,2021-07-29_23h16.11.051,Simcolourproject_2stim_asymm_v5,2020.2.10,MacIntel,60,61025ae37ef11b136ea224fe,,,,,,,,,3570,69.27734375,-30.23046875,1,0,0,response3disk,,5,29.8828125,-2.85546875,1,0,0,rectangle,29.8828125,-2.85546875,1,0,0,29.8828125,-2.85546875,1,0,0,0,25,25,3,1,,,,,,,,
,,,,,,,,,,,,,FF,,,,,,,,0.8157,,,,,,,,,,,,,,,,,,,,,,6100432a67ad454d0a623a03,61036ea5445ee569e534157f,2021-07-29_23h16.11.051,Simcolourproject_2stim_asymm_v5,2020.2.10,MacIntel,60,61025ae37ef11b136ea224fe,,,,,,,,,185,-67.3984375,40.984375,1,0,0,response7disk,,1,-8.90234375,7.87890625,1,0,0,rectangle,-8.90234375,7.87890625,1,0,0,-8.90234375,7.87890625,1,0,0,0,26,26,138,1,,,,,,,,
,,,,,,,,,,,,,FF,,,,,,,,1.2336,,,,,,,,,,,,,,,,,,,,,,6100432a67ad454d0a623a03,61036ea5445ee569e534157f,2021-07-29_23h16.11.051,Simcolourproject_2stim_asymm_v5,2020.2.10,MacIntel,60,61025ae37ef11b136ea224fe,,,,,,,,,1631,-32.671875,-85.203125,1,0,0,response5disk,,3,-29.984375,-2.7421875,1,0,0,rectangle,-29.984375,-2.7421875,1,0,0,-29.984375,-2.7421875,1,0,0,0,27,27,87,1,,,,,,,,
,,,,,,,,,,,,,FF,,,,,,,,1.9163,,,,,,,,,,,,,,,,,,,,,,6100432a67ad454d0a623a03,61036ea5445ee569e534157f,2021-07-29_23h16.11.051,Simcolourproject_2stim_asymm_v5,2020.2.10,MacIntel,60,61025ae37ef11b136ea224fe,,,,,,,,,1122,-63.21484375,-72.48828125,1,0,0,response5disk,,3,-14.58203125,-2.91015625,1,0,0,rectangle,-14.58203125,-2.91015625,1,0,0,-14.58203125,-2.91015625,1,0,0,0,28,28,96,1,,,,,,,,
,,,,,,,,,,,,,FF,,,,,,,,1.8008,,,,,,,,,,,,,,,,,,,,,,6100432a67ad454d0a623a03,61036ea5445ee569e534157f,2021-07-29_23h16.11.051,Simcolourproject_2stim_asymm_v5,2020.2.10,MacIntel,60,61025ae37ef11b136ea224fe,,,,,,,,,966,30.1953125,81.296875,1,0,0,response1disk,,7,19.31640625,14.92578125,1,0,0,rectangle,19.31640625,14.92578125,1,0,0,19.31640625,14.92578125,1,0,0,0,29,29,115,1,,,,,,,,
,,,,,,,,,,,,,FF,,,,,,,,1.0668,,,,,,,,,,,,,,,,,,,,,,6100432a67ad454d0a623a03,61036ea5445ee569e534157f,2021-07-29_23h16.11.051,Simcolourproject_2stim_asymm_v5,2020.2.10,MacIntel,60,61025ae37ef11b136ea224fe,,,,,,,,,1746,-22.3671875,-55.796875,1,0,0,response5disk,,3,-19.34765625,-4.68359375,1,0,0,rectangle,-19.34765625,-4.68359375,1,0,0,-19.34765625,-4.68359375,1,0,0,0,30,30,101,1,,,,,,,,
,,,,,,,,,,,,,FF,,,,,,,,0.7499,,,,,,,,,,,,,,,,,,,,,,6100432a67ad454d0a623a03,61036ea5445ee569e534157f,2021-07-29_23h16.11.051,Simcolourproject_2stim_asymm_v5,2020.2.10,MacIntel,60,61025ae37ef11b136ea224fe,,,,,,,,,500,28.6328125,-75.73046875,1,0,0,response3disk,,4,25.71484375,-2.40234375,1,0,0,rectangle,25.71484375,-2.40234375,1,0,0,25.71484375,-2.40234375,1,0,0,0,31,31,60,1,,,,,,,,
,,,,,,,,,,,,,FF,,,,,,,,0.7504,,,,,,,,,,,,,,,,,,,,,,6100432a67ad454d0a623a03,61036ea5445ee569e534157f,2021-07-29_23h16.11.051,Simcolourproject_2stim_asymm_v5,2020.2.10,MacIntel,60,61025ae37ef11b136ea224fe,,,,,,,,,1652,70.8203125,-39.5390625,1,0,0,response3disk,,5,24.40625,5.91796875,1,0,0,rectangle,24.40625,5.91796875,1,0,0,24.40625,5.91796875,1,0,0,0,32,32,12,1,,,,,,,,
,,,,,,,,,,,,,FF,,,,,,,,0.7836,,,,,,,,,,,,,,,,,,,,,,6100432a67ad454d0a623a03,61036ea5445ee569e534157f,2021-07-29_23h16.11.051,Simcolourproject_2stim_asymm_v5,2020.2.10,MacIntel,60,61025ae37ef11b136ea224fe,,,,,,,,,2792,-29.85546875,-54.41796875,1,0,0,response5disk,,3,-26.921875,2.015625,1,0,0,rectangle,-26.921875,2.015625,1,0,0,-26.921875,2.015625,1,0,0,0,33,33,46,1,,,,,,,,
,,,,,,,,,,,,,FF,,,,,,,,0.6672,,,,,,,,,,,,,,,,,,,,,,6100432a67ad454d0a623a03,61036ea5445ee569e534157f,2021-07-29_23h16.11.051,Simcolourproject_2stim_asymm_v5,2020.2.10,MacIntel,60,61025ae37ef11b136ea224fe,,,,,,,,,3560,51.1640625,-20.28515625,1,0,0,response3disk,,5,11.33984375,3.33203125,1,0,0,rectangle,11.33984375,3.33203125,1,0,0,11.33984375,3.33203125,1,0,0,0,34,34,32,1,,,,,,,,
,,,,,,,,,,,,,FF,,,,,,,,0.9338,,,,,,,,,,,,,,,,,,,,,,6100432a67ad454d0a623a03,61036ea5445ee569e534157f,2021-07-29_23h16.11.051,Simcolourproject_2stim_asymm_v5,2020.2.10,MacIntel,60,61025ae37ef11b136ea224fe,,,,,,,,,3917,63.1484375,-58.6484375,1,0,0,response3disk,,5,7.8984375,1.37890625,1,0,0,rectangle,7.8984375,1.37890625,1,0,0,7.8984375,1.37890625,1,0,0,0,35,35,157,1,,,,,,,,
,,,,,,,,,,,,,FF,,,,,,,,0.8004,,,,,,,,,,,,,,,,,,,,,,6100432a67ad454d0a623a03,61036ea5445ee569e534157f,2021-07-29_23h16.11.051,Simcolourproject_2stim_asymm_v5,2020.2.10,MacIntel,60,61025ae37ef11b136ea224fe,,,,,,,,,267,26.9296875,46.80859375,1,0,0,response1disk,,7,26.64453125,10.6796875,1,0,0,rectangle,26.64453125,10.6796875,1,0,0,26.64453125,10.6796875,1,0,0,0,36,36,107,1,,,,,,,,
,,,,,,,,,,,,,FF,,,,,,,,0.7671,,,,,,,,,,,,,,,,,,,,,,6100432a67ad454d0a623a03,61036ea5445ee569e534157f,2021-07-29_23h16.11.051,Simcolourproject_2stim_asymm_v5,2020.2.10,MacIntel,60,61025ae37ef11b136ea224fe,,,,,,,,,1259,-26.8203125,-66.2578125,1,0,0,response5disk,,3,-24.69921875,-12.22265625,1,0,0,rectangle,-24.69921875,-12.22265625,1,0,0,-24.69921875,-12.22265625,1,0,0,0,37,37,156,1,,,,,,,,
,,,,,,,,,,,,,FF,,,,,,,,0.8506,,,,,,,,,,,,,,,,,,,,,,6100432a67ad454d0a623a03,61036ea5445ee569e534157f,2021-07-29_23h16.11.051,Simcolourproject_2stim_asymm_v5,2020.2.10,MacIntel,60,61025ae37ef11b136ea224fe,,,,,,,,,529,-35.19140625,-70.44140625,1,0,0,response5disk,,3,-31.01171875,16.75390625,1,0,0,rectangle,-31.01171875,16.75390625,1,0,0,-31.01171875,16.75390625,1,0,0,0,38,38,145,1,,,,,,,,
,,,,,,,,,,,,,FF,,,,,,,,0.6497,,,,,,,,,,,,,,,,,,,,,,6100432a67ad454d0a623a03,61036ea5445ee569e534157f,2021-07-29_23h16.11.051,Simcolourproject_2stim_asymm_v5,2020.2.10,MacIntel,60,61025ae37ef11b136ea224fe,,,,,,,,,685,59.81640625,-23.8203125,1,0,0,response3disk,,5,28.78515625,-6.04296875,1,0,0,rectangle,28.78515625,-6.04296875,1,0,0,28.78515625,-6.04296875,1,0,0,0,39,39,134,1,,,,,,,,
,,,,,,,,,,,,,FF,,,,,,,,1.3162,,,,,,,,,,,,,,,,,,,,,,6100432a67ad454d0a623a03,61036ea5445ee569e534157f,2021-07-29_23h16.11.051,Simcolourproject_2stim_asymm_v5,2020.2.10,MacIntel,60,61025ae37ef11b136ea224fe,,,,,,,,,2222,-71.26171875,-38.51171875,1,0,0,response5disk,,2,-27.43359375,-6.3671875,1,0,0,rectangle,-27.43359375,-6.3671875,1,0,0,-27.43359375,-6.3671875,1,0,0,0,40,40,4,1,,,,,,,,
,,,,,,,,,,,,,FF,,,,,,,,0.6018,,,,,,,,,,,,,,,,,,,,,,6100432a67ad454d0a623a03,61036ea5445ee569e534157f,2021-07-29_23h16.11.051,Simcolourproject_2stim_asymm_v5,2020.2.10,MacIntel,60,61025ae37ef11b136ea224fe,,,,,,,,,1467,-70.1328125,-30.62890625,1,0,0,response5disk,,2,-8.23828125,-6.32421875,1,0,0,rectangle,-8.23828125,-6.32421875,1,0,0,-8.23828125,-6.32421875,1,0,0,0,41,41,6,1,,,,,,,,
,,,,,,,,,,,,,FF,,,,,,,,0.7162,,,,,,,,,,,,,,,,,,,,,,6100432a67ad454d0a623a03,61036ea5445ee569e534157f,2021-07-29_23h16.11.051,Simcolourproject_2stim_asymm_v5,2020.2.10,MacIntel,60,61025ae37ef11b136ea224fe,,,,,,,,,763,-38.39453125,-89.62890625,1,0,0,response5disk,,3,-13.4296875,-4.765625,1,0,0,rectangle,-13.4296875,-4.765625,1,0,0,-13.4296875,-4.765625,1,0,0,0,42,42,39,1,,,,,,,,
,,,,,,,,,,,,,FF,,,,,,,,0.7841,,,,,,,,,,,,,,,,,,,,,,6100432a67ad454d0a623a03,61036ea5445ee569e534157f,2021-07-29_23h16.11.051,Simcolourproject_2stim_asymm_v5,2020.2.10,MacIntel,60,61025ae37ef11b136ea224fe,,,,,,,,,3679,-55.75,-73.8203125,1,0,0,response5disk,,3,-23.34375,-2.61328125,1,0,0,rectangle,-23.34375,-2.61328125,1,0,0,-23.34375,-2.61328125,1,0,0,0,43,43,102,1,,,,,,,,
,,,,,,,,,,,,,FF,,,,,,,,1.0166,,,,,,,,,,,,,,,,,,,,,,6100432a67ad454d0a623a03,61036ea5445ee569e534157f,2021-07-29_23h16.11.051,Simcolourproject_2stim_asymm_v5,2020.2.10,MacIntel,60,61025ae37ef11b136ea224fe,,,,,,,,,1132,-63.875,-36.375,1,0,0,response5disk,,2,-12.8515625,-3.9453125,1,0,0,rectangle,-12.8515625,-3.9453125,1,0,0,-12.8515625,-3.9453125,1,0,0,0,44,44,83,1,,,,,,,,
,,,,,,,,,,,,,FF,,,,,,,,0.5997,,,,,,,,,,,,,,,,,,,,,,6100432a67ad454d0a623a03,61036ea5445ee569e534157f,2021-07-29_23h16.11.051,Simcolourproject_2stim_asymm_v5,2020.2.10,MacIntel,60,61025ae37ef11b136ea224fe,,,,,,,,,2262,64.1796875,-32.765625,1,0,0,response3disk,,5,27.34765625,-13.0234375,1,0,0,rectangle,27.34765625,-13.0234375,1,0,0,27.34765625,-13.0234375,1,0,0,0,45,45,57,1,,,,,,,,
,,,,,,,,,,,,,FF,,,,,,,,0.8165,,,,,,,,,,,,,,,,,,,,,,6100432a67ad454d0a623a03,61036ea5445ee569e534157f,2021-07-29_23h16.11.051,Simcolourproject_2stim_asymm_v5,2020.2.10,MacIntel,60,61025ae37ef11b136ea224fe,,,,,,,,,2293,-66.9140625,-31.7734375,1,0,0,response5disk,,2,-24.81640625,-2.01953125,1,0,0,rectangle,-24.81640625,-2.01953125,1,0,0,-24.81640625,-2.01953125,1,0,0,0,46,46,75,1,,,,,,,,
,,,,,,,,,,,,,FF,,,,,,,,0.6002,,,,,,,,,,,,,,,,,,,,,,6100432a67ad454d0a623a03,61036ea5445ee569e534157f,2021-07-29_23h16.11.051,Simcolourproject_2stim_asymm_v5,2020.2.10,MacIntel,60,61025ae37ef11b136ea224fe,,,,,,,,,3410,-31.20703125,-63.671875,1,0,0,response5disk,,3,-19.64453125,-1.11328125,1,0,0,rectangle,-19.64453125,-1.11328125,1,0,0,-19.64453125,-1.11328125,1,0,0,0,47,47,74,1,,,,,,,,
,,,,,,,,,,,,,FF,,,,,,,,0.966,,,,,,,,,,,,,,,,,,,,,,6100432a67ad454d0a623a03,61036ea5445ee569e534157f,2021-07-29_23h16.11.051,Simcolourproject_2stim_asymm_v5,2020.2.10,MacIntel,60,61025ae37ef11b136ea224fe,,,,,,,,,4360,-73.4375,-40.38671875,1,0,0,response5disk,,2,-18.25390625,-10.46484375,1,0,0,rectangle,-18.25390625,-10.46484375,1,0,0,-18.25390625,-10.46484375,1,0,0,0,48,48,122,1,,,,,,,,
,,,,,,,,,,,,,FF,,,,,,,,0.6339,,,,,,,,,,,,,,,,,,,,,,6100432a67ad454d0a623a03,61036ea5445ee569e534157f,2021-07-29_23h16.11.051,Simcolourproject_2stim_asymm_v5,2020.2.10,MacIntel,60,61025ae37ef11b136ea224fe,,,,,,,,,1262,70.91015625,-27.11328125,1,0,0,response3disk,,5,25.66015625,-3.26953125,1,0,0,rectangle,25.66015625,-3.26953125,1,0,0,25.66015625,-3.26953125,1,0,0,0,49,49,15,1,,,,,,,,
,,,,,,,,,,,,,FF,,,,,,,,0.8178,,,,,,,,,,,,,,,,,,,,,,6100432a67ad454d0a623a03,61036ea5445ee569e534157f,2021-07-29_23h16.11.051,Simcolourproject_2stim_asymm_v5,2020.2.10,MacIntel,60,61025ae37ef11b136ea224fe,,,,,,,,,2237,32.0703125,-54.23828125,1,0,0,response3disk,,4,20.89453125,2.15234375,1,0,0,rectangle,20.89453125,2.15234375,1,0,0,20.89453125,2.15234375,1,0,0,0,50,50,45,1,,,,,,,,
,,,,,,,,,,,,,FF,,,,,,,,0.7833,,,,,,,,,,,,,,,,,,,,,,6100432a67ad454d0a623a03,61036ea5445ee569e534157f,2021-07-29_23h16.11.051,Simcolourproject_2stim_asymm_v5,2020.2.10,MacIntel,60,61025ae37ef11b136ea224fe,,,,,,,,,3817,30.2578125,-50.48046875,1,0,0,response3disk,,4,24.37109375,5.1328125,1,0,0,rectangle,24.37109375,5.1328125,1,0,0,24.37109375,5.1328125,1,0,0,0,51,51,93,1,,,,,,,,
,,,,,,,,,,,,,FF,,,,,,,,0.5663,,,,,,,,,,,,,,,,,,,,,,6100432a67ad454d0a623a03,61036ea5445ee569e534157f,2021-07-29_23h16.11.051,Simcolourproject_2stim_asymm_v5,2020.2.10,MacIntel,60,61025ae37ef11b136ea224fe,,,,,,,,,2513,67.01171875,-23.29296875,1,0,0,response3disk,,5,5.41015625,9.625,1,0,0,rectangle,-41.44921875,-72.21875,1,0,0,-7.8203125,-12.51953125,1,0,0,0,52,52,65,1,,response5disk_3,TRUE,3,3,"[159,110,88,305,154,198,170,108,72,191,226,312,12,53,226,181,280,198,301,140]",2.3157,rectangle
,,,,,,,,,,,,,FF,,,,,,,,0.6005,,,,,,,,,,,,,,,,,,,,,,6100432a67ad454d0a623a03,61036ea5445ee569e534157f,2021-07-29_23h16.11.051,Simcolourproject_2stim_asymm_v5,2020.2.10,MacIntel,60,61025ae37ef11b136ea224fe,,,,,,,,,1642,49.2578125,-19.5,1,0,0,response3disk,,5,21.65234375,-11.2734375,1,0,0,rectangle,21.65234375,-11.2734375,1,0,0,21.65234375,-11.2734375,1,0,0,0,53,53,104,1,,,,,,,,
,,,,,,,,,,,,,FF,,,,,,,,1.3168,,,,,,,,,,,,,,,,,,,,,,6100432a67ad454d0a623a03,61036ea5445ee569e534157f,2021-07-29_23h16.11.051,Simcolourproject_2stim_asymm_v5,2020.2.10,MacIntel,60,61025ae37ef11b136ea224fe,,,,,,,,,3242,39.90234375,-82.47265625,1,0,0,response3disk,,4,16.6796875,0.703125,1,0,0,rectangle,16.6796875,0.703125,1,0,0,16.6796875,0.703125,1,0,0,0,54,54,47,1,,,,,,,,
,,,,,,,,,,,,,FF,,,,,,,,0.5499,,,,,,,,,,,,,,,,,,,,,,6100432a67ad454d0a623a03,61036ea5445ee569e534157f,2021-07-29_23h16.11.051,Simcolourproject_2stim_asymm_v5,2020.2.10,MacIntel,60,61025ae37ef11b136ea224fe,,,,,,,,,1314,60.859375,-33.01953125,1,0,0,response3disk,,5,21.52734375,-10.171875,1,0,0,rectangle,21.52734375,-10.171875,1,0,0,21.52734375,-10.171875,1,0,0,0,55,55,80,1,,,,,,,,
,,,,,,,,,,,,,FF,,,,,,,,0.5166,,,,,,,,,,,,,,,,,,,,,,6100432a67ad454d0a623a03,61036ea5445ee569e534157f,2021-07-29_23h16.11.051,Simcolourproject_2stim_asymm_v5,2020.2.10,MacIntel,60,61025ae37ef11b136ea224fe,,,,,,,,,2365,57.828125,-35.5625,1,0,0,response3disk,,5,1.1953125,-3.02734375,1,0,0,rectangle,1.1953125,-3.02734375,1,0,0,1.1953125,-3.02734375,1,0,0,0,56,56,50,1,,,,,,,,
,,,,,,,,,,,,,FF,,,,,,,,0.4995,,,,,,,,,,,,,,,,,,,,,,6100432a67ad454d0a623a03,61036ea5445ee569e534157f,2021-07-29_23h16.11.051,Simcolourproject_2stim_asymm_v5,2020.2.10,MacIntel,60,61025ae37ef11b136ea224fe,,,,,,,,,991,24.3671875,-51.171875,1,0,0,response3disk,,4,10.99609375,-2.34375,1,0,0,rectangle,10.99609375,-2.34375,1,0,0,10.99609375,-2.34375,1,0,0,0,57,57,86,1,,,,,,,,
,,,,,,,,,,,,,FF,,,,,,,,0.5994,,,,,,,,,,,,,,,,,,,,,,6100432a67ad454d0a623a03,61036ea5445ee569e534157f,2021-07-29_23h16.11.051,Simcolourproject_2stim_asymm_v5,2020.2.10,MacIntel,60,61025ae37ef11b136ea224fe,,,,,,,,,4035,32.6484375,-72.69921875,1,0,0,response3disk,,4,22.59375,-6.98046875,1,0,0,rectangle,22.59375,-6.98046875,1,0,0,22.59375,-6.98046875,1,0,0,0,58,58,111,1,,,,,,,,
,,,,,,,,,,,,,FF,,,,,,,,0.7505,,,,,,,,,,,,,,,,,,,,,,6100432a67ad454d0a623a03,61036ea5445ee569e534157f,2021-07-29_23h16.11.051,Simcolourproject_2stim_asymm_v5,2020.2.10,MacIntel,60,61025ae37ef11b136ea224fe,,,,,,,,,4006,79.90234375,-42.96875,1,0,0,response3disk,,5,5.296875,-5.859375,1,0,0,rectangle,5.296875,-5.859375,1,0,0,5.296875,-5.859375,1,0,0,0,59,59,142,1,,,,,,,,
,,,,,,,,,,,,,FF,,,,,,,,0.5331,,,,,,,,,,,,,,,,,,,,,,6100432a67ad454d0a623a03,61036ea5445ee569e534157f,2021-07-29_23h16.11.051,Simcolourproject_2stim_asymm_v5,2020.2.10,MacIntel,60,61025ae37ef11b136ea224fe,,,,,,,,,3737,36.8828125,-17.73046875,1,0,0,response3disk,,5,4.0859375,7.53515625,1,0,0,rectangle,4.0859375,7.53515625,1,0,0,4.0859375,7.53515625,1,0,0,0,60,60,18,1,,,,,,,,
,,,,,,,,,,,,,FF,,,,,,,,0.9829,,,,,,,,,,,,,,,,,,,,,,6100432a67ad454d0a623a03,61036ea5445ee569e534157f,2021-07-29_23h16.11.051,Simcolourproject_2stim_asymm_v5,2020.2.10,MacIntel,60,61025ae37ef11b136ea224fe,,,,,,,,,1827,-35.73828125,-54.2890625,1,0,0,response5disk,,3,-24.67578125,-4.57421875,1,0,0,rectangle,-24.67578125,-4.57421875,1,0,0,-24.67578125,-4.57421875,1,0,0,0,61,61,62,1,,,,,,,,
,,,,,,,,,,,,,FF,,,,,,,,0.65,,,,,,,,,,,,,,,,,,,,,,6100432a67ad454d0a623a03,61036ea5445ee569e534157f,2021-07-29_23h16.11.051,Simcolourproject_2stim_asymm_v5,2020.2.10,MacIntel,60,61025ae37ef11b136ea224fe,,,,,,,,,224,29.890625,-61.35546875,1,0,0,response3disk,,4,19.96484375,-15.07421875,1,0,0,rectangle,19.96484375,-15.07421875,1,0,0,19.96484375,-15.07421875,1,0,0,0,62,62,116,1,,,,,,,,
,,,,,,,,,,,,,FF,,,,,,,,0.4994,,,,,,,,,,,,,,,,,,,,,,6100432a67ad454d0a623a03,61036ea5445ee569e534157f,2021-07-29_23h16.11.051,Simcolourproject_2stim_asymm_v5,2020.2.10,MacIntel,60,61025ae37ef11b136ea224fe,,,,,,,,,2134,66.75,-25.1171875,1,0,0,response3disk,,5,20.4765625,-6.16015625,1,0,0,rectangle,20.4765625,-6.16015625,1,0,0,20.4765625,-6.16015625,1,0,0,0,63,63,48,1,,,,,,,,
,,,,,,,,,,,,,FF,,,,,,,,0.4994,,,,,,,,,,,,,,,,,,,,,,6100432a67ad454d0a623a03,61036ea5445ee569e534157f,2021-07-29_23h16.11.051,Simcolourproject_2stim_asymm_v5,2020.2.10,MacIntel,60,61025ae37ef11b136ea224fe,,,,,,,,,405,60.828125,-40.01953125,1,0,0,response3disk,,5,-3.70703125,-5.234375,1,0,0,rectangle,-3.70703125,-5.234375,1,0,0,-3.70703125,-5.234375,1,0,0,0,64,64,97,1,,,,,,,,
,,,,,,,,,,,,,FF,,,,,,,,0.4331,,,,,,,,,,,,,,,,,,,,,,6100432a67ad454d0a623a03,61036ea5445ee569e534157f,2021-07-29_23h16.11.051,Simcolourproject_2stim_asymm_v5,2020.2.10,MacIntel,60,61025ae37ef11b136ea224fe,,,,,,,,,4133,56.26953125,-29.37890625,1,0,0,response3disk,,5,14.55078125,-9.08984375,1,0,0,rectangle,14.55078125,-9.08984375,1,0,0,14.55078125,-9.08984375,1,0,0,0,65,65,22,1,,,,,,,,
,,,,,,,,,,,,,FF,,,,,,,,0.8838,,,,,,,,,,,,,,,,,,,,,,6100432a67ad454d0a623a03,61036ea5445ee569e534157f,2021-07-29_23h16.11.051,Simcolourproject_2stim_asymm_v5,2020.2.10,MacIntel,60,61025ae37ef11b136ea224fe,,,,,,,,,457,-22.40625,-72.84375,1,0,0,response5disk,,3,-14.58984375,-2.01953125,1,0,0,rectangle,-14.58984375,-2.01953125,1,0,0,-14.58984375,-2.01953125,1,0,0,0,66,66,131,1,,,,,,,,
,,,,,,,,,,,,,FF,,,,,,,,1.166,,,,,,,,,,,,,,,,,,,,,,6100432a67ad454d0a623a03,61036ea5445ee569e534157f,2021-07-29_23h16.11.051,Simcolourproject_2stim_asymm_v5,2020.2.10,MacIntel,60,61025ae37ef11b136ea224fe,,,,,,,,,1159,46.44921875,-80.4375,1,0,0,response3disk,,4,11.19921875,4.59375,1,0,0,rectangle,11.19921875,4.59375,1,0,0,11.19921875,4.59375,1,0,0,0,67,67,2,1,,,,,,,,
,,,,,,,,,,,,,FF,,,,,,,,0.7508,,,,,,,,,,,,,,,,,,,,,,6100432a67ad454d0a623a03,61036ea5445ee569e534157f,2021-07-29_23h16.11.051,Simcolourproject_2stim_asymm_v5,2020.2.10,MacIntel,60,61025ae37ef11b136ea224fe,,,,,,,,,2331,74.40625,30.37890625,1,0,0,response1disk,,6,6.5390625,13.30078125,1,0,0,rectangle,6.5390625,13.30078125,1,0,0,6.5390625,13.30078125,1,0,0,0,68,68,44,1,,,,,,,,
,,,,,,,,,,,,,FF,,,,,,,,0.5836,,,,,,,,,,,,,,,,,,,,,,6100432a67ad454d0a623a03,61036ea5445ee569e534157f,2021-07-29_23h16.11.051,Simcolourproject_2stim_asymm_v5,2020.2.10,MacIntel,60,61025ae37ef11b136ea224fe,,,,,,,,,2977,71.125,-28.28125,1,0,0,response3disk,,5,-12.13671875,12.89453125,1,0,0,rectangle,-12.13671875,12.89453125,1,0,0,-12.13671875,12.89453125,1,0,0,0,69,69,136,1,,,,,,,,
,,,,,,,,,,,,,FF,,,,,,,,0.7666,,,,,,,,,,,,,,,,,,,,,,6100432a67ad454d0a623a03,61036ea5445ee569e534157f,2021-07-29_23h16.11.051,Simcolourproject_2stim_asymm_v5,2020.2.10,MacIntel,60,61025ae37ef11b136ea224fe,,,,,,,,,3109,62.04296875,45.765625,1,0,0,response1disk,,6,21.5078125,17.0078125,1,0,0,rectangle,21.5078125,17.0078125,1,0,0,21.5078125,17.0078125,1,0,0,0,70,70,100,1,,,,,,,,
,,,,,,,,,,,,,FF,,,,,,,,0.7166,,,,,,,,,,,,,,,,,,,,,,6100432a67ad454d0a623a03,61036ea5445ee569e534157f,2021-07-29_23h16.11.051,Simcolourproject_2stim_asymm_v5,2020.2.10,MacIntel,60,61025ae37ef11b136ea224fe,,,,,,,,,3080,29.5859375,-76.82421875,1,0,0,response3disk,,4,18.6484375,-17.3359375,1,0,0,rectangle,28.3671875,85.56640625,1,0,0,13.35546875,6.1171875,1,0,0,0,71,71,88,1,,response1disk_3,TRUE,7,7,"[159,110,88,305,154,198,170,108,72,191,226,312,12,53,226,181,280,198,301,140]",2.1998,rectangle
,,,,,,,,,,,,,FF,,,,,,,,0.8663,,,,,,,,,,,,,,,,,,,,,,6100432a67ad454d0a623a03,61036ea5445ee569e534157f,2021-07-29_23h16.11.051,Simcolourproject_2stim_asymm_v5,2020.2.10,MacIntel,60,61025ae37ef11b136ea224fe,,,,,,,,,1295,74.25,46.69140625,1,0,0,response1disk,,6,12.8515625,-5.99609375,1,0,0,rectangle,12.8515625,-5.99609375,1,0,0,12.8515625,-5.99609375,1,0,0,0,72,72,66,1,,,,,,,,
,,,,,,,,,,,,,FF,,,,,,,,0.5679,,,,,,,,,,,,,,,,,,,,,,6100432a67ad454d0a623a03,61036ea5445ee569e534157f,2021-07-29_23h16.11.051,Simcolourproject_2stim_asymm_v5,2020.2.10,MacIntel,60,61025ae37ef11b136ea224fe,,,,,,,,,3304,61.87890625,-23.58203125,1,0,0,response3disk,,5,15.23046875,-14.69140625,1,0,0,rectangle,15.23046875,-14.69140625,1,0,0,15.23046875,-14.69140625,1,0,0,0,73,73,113,1,,,,,,,,
,,,,,,,,,,,,,FF,,,,,,,,0.6844,,,,,,,,,,,,,,,,,,,,,,6100432a67ad454d0a623a03,61036ea5445ee569e534157f,2021-07-29_23h16.11.051,Simcolourproject_2stim_asymm_v5,2020.2.10,MacIntel,60,61025ae37ef11b136ea224fe,,,,,,,,,3343,-75.51953125,-39.58203125,1,0,0,response5disk,,2,-24.1796875,-2.75390625,1,0,0,rectangle,-24.1796875,-2.75390625,1,0,0,-24.1796875,-2.75390625,1,0,0,0,74,74,148,1,,,,,,,,
,,,,,,,,,,,,,FF,,,,,,,,0.7503,,,,,,,,,,,,,,,,,,,,,,6100432a67ad454d0a623a03,61036ea5445ee569e534157f,2021-07-29_23h16.11.051,Simcolourproject_2stim_asymm_v5,2020.2.10,MacIntel,60,61025ae37ef11b136ea224fe,,,,,,,,,517,35.16796875,-73.6875,1,0,0,response3disk,,4,17.03125,13.10546875,1,0,0,rectangle,17.03125,13.10546875,1,0,0,17.03125,13.10546875,1,0,0,0,75,75,158,1,,,,,,,,
,,,,,,,,,,,,,FF,,,,,,,,0.5679,,,,,,,,,,,,,,,,,,,,,,6100432a67ad454d0a623a03,61036ea5445ee569e534157f,2021-07-29_23h16.11.051,Simcolourproject_2stim_asymm_v5,2020.2.10,MacIntel,60,61025ae37ef11b136ea224fe,,,,,,,,,4098,70.20703125,-32.22265625,1,0,0,response3disk,,5,17.41796875,-2.26953125,1,0,0,rectangle,17.41796875,-2.26953125,1,0,0,17.41796875,-2.26953125,1,0,0,0,76,76,110,1,,,,,,,,
,,,,,,,,,,,,,FF,,,,,,,,0.5655,,,,,,,,,,,,,,,,,,,,,,6100432a67ad454d0a623a03,61036ea5445ee569e534157f,2021-07-29_23h16.11.051,Simcolourproject_2stim_asymm_v5,2020.2.10,MacIntel,60,61025ae37ef11b136ea224fe,,,,,,,,,4119,38.8671875,-53.87890625,1,0,0,response3disk,,4,14.703125,-5.265625,1,0,0,rectangle,14.703125,-5.265625,1,0,0,14.703125,-5.265625,1,0,0,0,77,77,17,1,,,,,,,,
,,,,,,,,,,,,,FF,,,,,,,,0.6841,,,,,,,,,,,,,,,,,,,,,,6100432a67ad454d0a623a03,61036ea5445ee569e534157f,2021-07-29_23h16.11.051,Simcolourproject_2stim_asymm_v5,2020.2.10,MacIntel,60,61025ae37ef11b136ea224fe,,,,,,,,,1753,-52.52734375,-60.3984375,1,0,0,response5disk,,3,-32.9765625,-12.26171875,1,0,0,rectangle,-32.9765625,-12.26171875,1,0,0,-32.9765625,-12.26171875,1,0,0,0,78,78,37,1,,,,,,,,
,,,,,,,,,,,,,FF,,,,,,,,0.7325,,,,,,,,,,,,,,,,,,,,,,6100432a67ad454d0a623a03,61036ea5445ee569e534157f,2021-07-29_23h16.11.051,Simcolourproject_2stim_asymm_v5,2020.2.10,MacIntel,60,61025ae37ef11b136ea224fe,,,,,,,,,3016,80.125,-36.12109375,1,0,0,response3disk,,5,-19.92578125,10.66015625,1,0,0,rectangle,-19.92578125,10.66015625,1,0,0,-19.92578125,10.66015625,1,0,0,0,79,79,0,1,,,,,,,,
,,,,,,,,,,,,,FF,,,,,,,,0.5532,,,,,,,,,,,,,,,,,,,,,,6100432a67ad454d0a623a03,61036ea5445ee569e534157f,2021-07-29_23h16.11.051,Simcolourproject_2stim_asymm_v5,2020.2.10,MacIntel,60,61025ae37ef11b136ea224fe,,,,,,,,,4106,64.64453125,-34.71484375,1,0,0,response3disk,,5,13.1328125,-2.4296875,1,0,0,rectangle,13.1328125,-2.4296875,1,0,0,13.1328125,-2.4296875,1,0,0,0,80,80,155,1,,,,,,,,
,,,,,,,,,,,,,FF,,,,,,,,0.4491,,,,,,,,,,,,,,,,,,,,,,6100432a67ad454d0a623a03,61036ea5445ee569e534157f,2021-07-29_23h16.11.051,Simcolourproject_2stim_asymm_v5,2020.2.10,MacIntel,60,61025ae37ef11b136ea224fe,,,,,,,,,1038,26.33984375,-62.8125,1,0,0,response3disk,,4,16.98828125,2.515625,1,0,0,rectangle,16.98828125,2.515625,1,0,0,16.98828125,2.515625,1,0,0,0,81,81,128,1,,,,,,,,
,,,,,,,,,,,,,FF,,,,,,,,0.6668,,,,,,,,,,,,,,,,,,,,,,6100432a67ad454d0a623a03,61036ea5445ee569e534157f,2021-07-29_23h16.11.051,Simcolourproject_2stim_asymm_v5,2020.2.10,MacIntel,60,61025ae37ef11b136ea224fe,,,,,,,,,1272,21.50390625,68.59765625,1,0,0,response1disk,,7,21.50390625,-0.578125,1,0,0,rectangle,21.50390625,-0.578125,1,0,0,21.50390625,-0.578125,1,0,0,0,82,82,30,1,,,,,,,,
,,,,,,,,,,,,,FF,,,,,,,,0.8831,,,,,,,,,,,,,,,,,,,,,,6100432a67ad454d0a623a03,61036ea5445ee569e534157f,2021-07-29_23h16.11.051,Simcolourproject_2stim_asymm_v5,2020.2.10,MacIntel,60,61025ae37ef11b136ea224fe,,,,,,,,,1004,59.95703125,-51.82421875,1,0,0,response3disk,,5,12.10546875,-2.546875,1,0,0,rectangle,12.10546875,-2.546875,1,0,0,12.10546875,-2.546875,1,0,0,0,83,83,112,1,,,,,,,,
,,,,,,,,,,,,,FF,,,,,,,,0.5832,,,,,,,,,,,,,,,,,,,,,,6100432a67ad454d0a623a03,61036ea5445ee569e534157f,2021-07-29_23h16.11.051,Simcolourproject_2stim_asymm_v5,2020.2.10,MacIntel,60,61025ae37ef11b136ea224fe,,,,,,,,,1234,45.453125,-69.22265625,1,0,0,response3disk,,4,11.98828125,14.91796875,1,0,0,rectangle,11.98828125,14.91796875,1,0,0,11.98828125,14.91796875,1,0,0,0,84,84,146,1,,,,,,,,
,,,,,,,,,,,,,FF,,,,,,,,0.6989,,,,,,,,,,,,,,,,,,,,,,6100432a67ad454d0a623a03,61036ea5445ee569e534157f,2021-07-29_23h16.11.051,Simcolourproject_2stim_asymm_v5,2020.2.10,MacIntel,60,61025ae37ef11b136ea224fe,,,,,,,,,266,71.2578125,-27.4140625,1,0,0,response3disk,,5,3.05859375,7.87109375,1,0,0,rectangle,3.05859375,7.87109375,1,0,0,3.05859375,7.87109375,1,0,0,0,85,85,159,1,,,,,,,,
,,,,,,,,,,,,,FF,,,,,,,,1.0327,,,,,,,,,,,,,,,,,,,,,,6100432a67ad454d0a623a03,61036ea5445ee569e534157f,2021-07-29_23h16.11.051,Simcolourproject_2stim_asymm_v5,2020.2.10,MacIntel,60,61025ae37ef11b136ea224fe,,,,,,,,,633,-36.078125,-73.82421875,1,0,0,response5disk,,3,-27.46484375,-10.58203125,1,0,0,rectangle,-27.46484375,-10.58203125,1,0,0,-27.46484375,-10.58203125,1,0,0,0,86,86,69,1,,,,,,,,
,,,,,,,,,,,,,FF,,,,,,,,0.7654,,,,,,,,,,,,,,,,,,,,,,6100432a67ad454d0a623a03,61036ea5445ee569e534157f,2021-07-29_23h16.11.051,Simcolourproject_2stim_asymm_v5,2020.2.10,MacIntel,60,61025ae37ef11b136ea224fe,,,,,,,,,347,41.72265625,-64.65234375,1,0,0,response3disk,,4,22.57421875,1.75390625,1,0,0,rectangle,35.03515625,-80.6796875,1,0,0,-4.01171875,1.8828125,1,0,0,0,87,87,38,1,,response3disk_3,TRUE,4,4,"[159,110,88,305,154,198,170,108,72,191,226,312,12,53,226,181,280,198,301,140]",2.0336,rectangle
,,,,,,,,,,,,,FF,,,,,,,,0.8331,,,,,,,,,,,,,,,,,,,,,,6100432a67ad454d0a623a03,61036ea5445ee569e534157f,2021-07-29_23h16.11.051,Simcolourproject_2stim_asymm_v5,2020.2.10,MacIntel,60,61025ae37ef11b136ea224fe,,,,,,,,,1534,-46.25390625,-63.40625,1,0,0,response5disk,,3,-15.78125,5.171875,1,0,0,rectangle,-15.78125,5.171875,1,0,0,-15.78125,5.171875,1,0,0,0,88,88,140,1,,,,,,,,
,,,,,,,,,,,,,FF,,,,,,,,0.5003,,,,,,,,,,,,,,,,,,,,,,6100432a67ad454d0a623a03,61036ea5445ee569e534157f,2021-07-29_23h16.11.051,Simcolourproject_2stim_asymm_v5,2020.2.10,MacIntel,60,61025ae37ef11b136ea224fe,,,,,,,,,1330,38.32421875,-62.78515625,1,0,0,response3disk,,4,28.46875,-3.19921875,1,0,0,rectangle,28.46875,-3.19921875,1,0,0,28.46875,-3.19921875,1,0,0,0,89,89,144,1,,,,,,,,
,,,,,,,,,,,,,FF,,,,,,,,0.4994,,,,,,,,,,,,,,,,,,,,,,6100432a67ad454d0a623a03,61036ea5445ee569e534157f,2021-07-29_23h16.11.051,Simcolourproject_2stim_asymm_v5,2020.2.10,MacIntel,60,61025ae37ef11b136ea224fe,,,,,,,,,4353,41.6796875,-69.16796875,1,0,0,response3disk,,4,16.7421875,16.8828125,1,0,0,rectangle,16.7421875,16.8828125,1,0,0,16.7421875,16.8828125,1,0,0,0,90,90,16,1,,,,,,,,
,,,,,,,,,,,,,FF,,,,,,,,0.5331,,,,,,,,,,,,,,,,,,,,,,6100432a67ad454d0a623a03,61036ea5445ee569e534157f,2021-07-29_23h16.11.051,Simcolourproject_2stim_asymm_v5,2020.2.10,MacIntel,60,61025ae37ef11b136ea224fe,,,,,,,,,82,53.8359375,-28.66796875,1,0,0,response3disk,,5,28.82421875,-11.52734375,1,0,0,rectangle,28.82421875,-11.52734375,1,0,0,28.82421875,-11.52734375,1,0,0,0,91,91,19,1,,,,,,,,
,,,,,,,,,,,,,FF,,,,,,,,0.4841,,,,,,,,,,,,,,,,,,,,,,6100432a67ad454d0a623a03,61036ea5445ee569e534157f,2021-07-29_23h16.11.051,Simcolourproject_2stim_asymm_v5,2020.2.10,MacIntel,60,61025ae37ef11b136ea224fe,,,,,,,,,2297,-31.44140625,-57.4140625,1,0,0,response5disk,,3,-5.6171875,0.8828125,1,0,0,rectangle,-5.6171875,0.8828125,1,0,0,-5.6171875,0.8828125,1,0,0,0,92,92,124,1,,,,,,,,
,,,,,,,,,,,,,FF,,,,,,,,0.4499,,,,,,,,,,,,,,,,,,,,,,6100432a67ad454d0a623a03,61036ea5445ee569e534157f,2021-07-29_23h16.11.051,Simcolourproject_2stim_asymm_v5,2020.2.10,MacIntel,60,61025ae37ef11b136ea224fe,,,,,,,,,1352,37.90234375,-54.21484375,1,0,0,response3disk,,4,24.23046875,-0.3984375,1,0,0,rectangle,24.23046875,-0.3984375,1,0,0,24.23046875,-0.3984375,1,0,0,0,93,93,51,1,,,,,,,,
,,,,,,,,,,,,,FF,,,,,,,,0.7997,,,,,,,,,,,,,,,,,,,,,,6100432a67ad454d0a623a03,61036ea5445ee569e534157f,2021-07-29_23h16.11.051,Simcolourproject_2stim_asymm_v5,2020.2.10,MacIntel,60,61025ae37ef11b136ea224fe,,,,,,,,,1289,-37.0546875,-64.7578125,1,0,0,response5disk,,3,-29.078125,1.71875,1,0,0,rectangle,-29.078125,1.71875,1,0,0,-29.078125,1.71875,1,0,0,0,94,94,28,1,,,,,,,,
,,,,,,,,,,,,,FF,,,,,,,,0.5669,,,,,,,,,,,,,,,,,,,,,,6100432a67ad454d0a623a03,61036ea5445ee569e534157f,2021-07-29_23h16.11.051,Simcolourproject_2stim_asymm_v5,2020.2.10,MacIntel,60,61025ae37ef11b136ea224fe,,,,,,,,,4256,55.83203125,-35.19140625,1,0,0,response3disk,,5,20.375,-17.6171875,1,0,0,rectangle,20.375,-17.6171875,1,0,0,20.375,-17.6171875,1,0,0,0,95,95,81,1,,,,,,,,
,,,,,,,,,,,,,FF,,,,,,,,0.5329,,,,,,,,,,,,,,,,,,,,,,6100432a67ad454d0a623a03,61036ea5445ee569e534157f,2021-07-29_23h16.11.051,Simcolourproject_2stim_asymm_v5,2020.2.10,MacIntel,60,61025ae37ef11b136ea224fe,,,,,,,,,1397,66.109375,-34.96875,1,0,0,response3disk,,5,28.12109375,-4.234375,1,0,0,rectangle,28.12109375,-4.234375,1,0,0,28.12109375,-4.234375,1,0,0,0,96,96,143,1,,,,,,,,
,,,,,,,,,,,,,FF,,,,,,,,0.6345,,,,,,,,,,,,,,,,,,,,,,6100432a67ad454d0a623a03,61036ea5445ee569e534157f,2021-07-29_23h16.11.051,Simcolourproject_2stim_asymm_v5,2020.2.10,MacIntel,60,61025ae37ef11b136ea224fe,,,,,,,,,1418,51.3046875,28.56640625,1,0,0,response1disk,,6,26.6015625,2.73828125,1,0,0,rectangle,26.6015625,2.73828125,1,0,0,26.6015625,2.73828125,1,0,0,0,97,97,77,1,,,,,,,,
,,,,,,,,,,,,,FF,,,,,,,,0.7831,,,,,,,,,,,,,,,,,,,,,,6100432a67ad454d0a623a03,61036ea5445ee569e534157f,2021-07-29_23h16.11.051,Simcolourproject_2stim_asymm_v5,2020.2.10,MacIntel,60,61025ae37ef11b136ea224fe,,,,,,,,,3473,-42.38671875,-65.9453125,1,0,0,response5disk,,3,-16.015625,-5.80078125,1,0,0,rectangle,-16.015625,-5.80078125,1,0,0,-16.015625,-5.80078125,1,0,0,0,98,98,123,1,,,,,,,,
,,,,,,,,,,,,,FF,,,,,,,,0.4654,,,,,,,,,,,,,,,,,,,,,,6100432a67ad454d0a623a03,61036ea5445ee569e534157f,2021-07-29_23h16.11.051,Simcolourproject_2stim_asymm_v5,2020.2.10,MacIntel,60,61025ae37ef11b136ea224fe,,,,,,,,,466,42.62890625,-61.66796875,1,0,0,response3disk,,4,22.22265625,-8.6796875,1,0,0,rectangle,22.22265625,-8.6796875,1,0,0,22.22265625,-8.6796875,1,0,0,0,99,99,33,1,,,,,,,,
,,,,,,,,,,,,,FF,,,,,,,,0.4339,,,,,,,,,,,,,,,,,,,,,,6100432a67ad454d0a623a03,61036ea5445ee569e534157f,2021-07-29_23h16.11.051,Simcolourproject_2stim_asymm_v5,2020.2.10,MacIntel,60,61025ae37ef11b136ea224fe,,,,,,,,,1110,63.875,-35.515625,1,0,0,response3disk,,5,31.26171875,-9.9609375,1,0,0,rectangle,31.26171875,-9.9609375,1,0,0,31.26171875,-9.9609375,1,0,0,0,100,100,154,1,,,,,,,,
,,,,,,,,,,,,,FF,,,,,,,,0.6343,,,,,,,,,,,,,,,,,,,,,,6100432a67ad454d0a623a03,61036ea5445ee569e534157f,2021-07-29_23h16.11.051,Simcolourproject_2stim_asymm_v5,2020.2.10,MacIntel,60,61025ae37ef11b136ea224fe,,,,,,,,,3929,79.06640625,-48.11328125,1,0,0,response3disk,,5,20.30859375,-2.859375,1,0,0,rectangle,20.30859375,-2.859375,1,0,0,20.30859375,-2.859375,1,0,0,0,101,101,139,1,,,,,,,,
,,,,,,,,,,,,,FF,,,,,,,,0.6181,,,,,,,,,,,,,,,,,,,,,,6100432a67ad454d0a623a03,61036ea5445ee569e534157f,2021-07-29_23h16.11.051,Simcolourproject_2stim_asymm_v5,2020.2.10,MacIntel,60,61025ae37ef11b136ea224fe,,,,,,,,,3788,66.42578125,-23.36328125,1,0,0,response3disk,,5,6.83203125,4.94140625,1,0,0,rectangle,6.83203125,4.94140625,1,0,0,6.83203125,4.94140625,1,0,0,0,102,102,13,1,,,,,,,,
,,,,,,,,,,,,,FF,,,,,,,,0.5004,,,,,,,,,,,,,,,,,,,,,,6100432a67ad454d0a623a03,61036ea5445ee569e534157f,2021-07-29_23h16.11.051,Simcolourproject_2stim_asymm_v5,2020.2.10,MacIntel,60,61025ae37ef11b136ea224fe,,,,,,,,,1559,65.76953125,36.6484375,1,0,0,response1disk,,6,25.1640625,3.19921875,1,0,0,rectangle,25.1640625,3.19921875,1,0,0,25.1640625,3.19921875,1,0,0,0,103,103,14,1,,,,,,,,
,,,,,,,,,,,,,FF,,,,,,,,0.5339,,,,,,,,,,,,,,,,,,,,,,6100432a67ad454d0a623a03,61036ea5445ee569e534157f,2021-07-29_23h16.11.051,Simcolourproject_2stim_asymm_v5,2020.2.10,MacIntel,60,61025ae37ef11b136ea224fe,,,,,,,,,2550,57.2734375,33.6171875,1,0,0,response1disk,,6,-8.8671875,8.54296875,1,0,0,rectangle,-8.8671875,8.54296875,1,0,0,-8.8671875,8.54296875,1,0,0,0,104,104,58,1,,,,,,,,
,,,,,,,,,,,,,FF,,,,,,,,0.9843,,,,,,,,,,,,,,,,,,,,,,6100432a67ad454d0a623a03,61036ea5445ee569e534157f,2021-07-29_23h16.11.051,Simcolourproject_2stim_asymm_v5,2020.2.10,MacIntel,60,61025ae37ef11b136ea224fe,,,,,,,,,3795,-39.51953125,-82.4140625,1,0,0,response5disk,,3,-10.23828125,7.33984375,1,0,0,rectangle,-10.23828125,7.33984375,1,0,0,-10.23828125,7.33984375,1,0,0,0,105,105,21,1,,,,,,,,
,,,,,,,,,,,,,FF,,,,,,,,0.6671,,,,,,,,,,,,,,,,,,,,,,6100432a67ad454d0a623a03,61036ea5445ee569e534157f,2021-07-29_23h16.11.051,Simcolourproject_2stim_asymm_v5,2020.2.10,MacIntel,60,61025ae37ef11b136ea224fe,,,,,,,,,4300,37.6953125,-61.5546875,1,0,0,response3disk,,4,28.390625,3.0546875,1,0,0,rectangle,28.390625,3.0546875,1,0,0,28.390625,3.0546875,1,0,0,0,106,106,72,1,,,,,,,,
,,,,,,,,,,,,,FF,,,,,,,,0.5854,,,,,,,,,,,,,,,,,,,,,,6100432a67ad454d0a623a03,61036ea5445ee569e534157f,2021-07-29_23h16.11.051,Simcolourproject_2stim_asymm_v5,2020.2.10,MacIntel,60,61025ae37ef11b136ea224fe,,,,,,,,,154,76.46484375,-29.80078125,1,0,0,response3disk,,5,19.7265625,-5.5859375,1,0,0,rectangle,58.73046875,-99.80078125,1,0,0,-4.703125,-0.33203125,1,0,0,0,107,107,8,1,,response3disk_3,TRUE,4,4,"[159,110,88,305,154,198,170,108,72,191,226,312,12,53,226,181,280,198,301,140]",2.2341,rectangle
,,,,,,,,,,,,,FF,,,,,,,,0.7841,,,,,,,,,,,,,,,,,,,,,,6100432a67ad454d0a623a03,61036ea5445ee569e534157f,2021-07-29_23h16.11.051,Simcolourproject_2stim_asymm_v5,2020.2.10,MacIntel,60,61025ae37ef11b136ea224fe,,,,,,,,,282,64.515625,-29.25390625,1,0,0,response3disk,,5,9.08203125,-1.39453125,1,0,0,rectangle,9.08203125,-1.39453125,1,0,0,9.08203125,-1.39453125,1,0,0,0,108,108,53,1,,,,,,,,
,,,,,,,,,,,,,FF,,,,,,,,0.5664,,,,,,,,,,,,,,,,,,,,,,6100432a67ad454d0a623a03,61036ea5445ee569e534157f,2021-07-29_23h16.11.051,Simcolourproject_2stim_asymm_v5,2020.2.10,MacIntel,60,61025ae37ef11b136ea224fe,,,,,,,,,20,62.59765625,-26.69140625,1,0,0,response3disk,,5,2.5,-8.203125,1,0,0,rectangle,27.22265625,107.8320313,1,0,0,15.01953125,7.48828125,1,0,0,0,109,109,114,1,,response1disk_3,TRUE,7,7,"[159,110,88,305,154,198,170,108,72,191,226,312,12,53,226,181,280,198,301,140]",1.3839,rectangle
,,,,,,,,,,,,,FF,,,,,,,,0.6822,,,,,,,,,,,,,,,,,,,,,,6100432a67ad454d0a623a03,61036ea5445ee569e534157f,2021-07-29_23h16.11.051,Simcolourproject_2stim_asymm_v5,2020.2.10,MacIntel,60,61025ae37ef11b136ea224fe,,,,,,,,,2651,34.625,72.53515625,1,0,0,response1disk,,7,27.97265625,0.1328125,1,0,0,rectangle,27.97265625,0.1328125,1,0,0,27.97265625,0.1328125,1,0,0,0,110,110,126,1,,,,,,,,
,,,,,,,,,,,,,FF,,,,,,,,0.533,,,,,,,,,,,,,,,,,,,,,,6100432a67ad454d0a623a03,61036ea5445ee569e534157f,2021-07-29_23h16.11.051,Simcolourproject_2stim_asymm_v5,2020.2.10,MacIntel,60,61025ae37ef11b136ea224fe,,,,,,,,,706,58.76171875,-29.37890625,1,0,0,response3disk,,5,19.06640625,-8.55859375,1,0,0,rectangle,19.06640625,-8.55859375,1,0,0,19.06640625,-8.55859375,1,0,0,0,111,111,99,1,,,,,,,,
,,,,,,,,,,,,,FF,,,,,,,,0.5015,,,,,,,,,,,,,,,,,,,,,,6100432a67ad454d0a623a03,61036ea5445ee569e534157f,2021-07-29_23h16.11.051,Simcolourproject_2stim_asymm_v5,2020.2.10,MacIntel,60,61025ae37ef11b136ea224fe,,,,,,,,,3867,47.25390625,-68.73828125,1,0,0,response3disk,,4,9.4296875,0.3359375,1,0,0,rectangle,9.4296875,0.3359375,1,0,0,9.4296875,0.3359375,1,0,0,0,112,112,79,1,,,,,,,,
,,,,,,,,,,,,,FF,,,,,,,,0.433,,,,,,,,,,,,,,,,,,,,,,6100432a67ad454d0a623a03,61036ea5445ee569e534157f,2021-07-29_23h16.11.051,Simcolourproject_2stim_asymm_v5,2020.2.10,MacIntel,60,61025ae37ef11b136ea224fe,,,,,,,,,3727,65.6875,-26.67578125,1,0,0,response3disk,,5,17.41796875,-6.078125,1,0,0,rectangle,17.41796875,-6.078125,1,0,0,17.41796875,-6.078125,1,0,0,0,113,113,20,1,,,,,,,,
,,,,,,,,,,,,,FF,,,,,,,,0.4161,,,,,,,,,,,,,,,,,,,,,,6100432a67ad454d0a623a03,61036ea5445ee569e534157f,2021-07-29_23h16.11.051,Simcolourproject_2stim_asymm_v5,2020.2.10,MacIntel,60,61025ae37ef11b136ea224fe,,,,,,,,,420,50.546875,-41.11328125,1,0,0,response3disk,,5,-10.94140625,-8.0703125,1,0,0,rectangle,-10.94140625,-8.0703125,1,0,0,-10.94140625,-8.0703125,1,0,0,0,114,114,64,1,,,,,,,,
,,,,,,,,,,,,,FF,,,,,,,,0.6995,,,,,,,,,,,,,,,,,,,,,,6100432a67ad454d0a623a03,61036ea5445ee569e534157f,2021-07-29_23h16.11.051,Simcolourproject_2stim_asymm_v5,2020.2.10,MacIntel,60,61025ae37ef11b136ea224fe,,,,,,,,,3861,72.36328125,-46.1484375,1,0,0,response3disk,,5,17.015625,-1.41015625,1,0,0,rectangle,17.015625,-1.41015625,1,0,0,17.015625,-1.41015625,1,0,0,0,115,115,132,1,,,,,,,,
,,,,,,,,,,,,,FF,,,,,,,,0.5322,,,,,,,,,,,,,,,,,,,,,,6100432a67ad454d0a623a03,61036ea5445ee569e534157f,2021-07-29_23h16.11.051,Simcolourproject_2stim_asymm_v5,2020.2.10,MacIntel,60,61025ae37ef11b136ea224fe,,,,,,,,,2723,64.453125,30.47265625,1,0,0,response1disk,,6,34.26171875,3.9609375,1,0,0,rectangle,34.26171875,3.9609375,1,0,0,34.26171875,3.9609375,1,0,0,0,116,116,40,1,,,,,,,,
,,,,,,,,,,,,,FF,,,,,,,,0.6335,,,,,,,,,,,,,,,,,,,,,,6100432a67ad454d0a623a03,61036ea5445ee569e534157f,2021-07-29_23h16.11.051,Simcolourproject_2stim_asymm_v5,2020.2.10,MacIntel,60,61025ae37ef11b136ea224fe,,,,,,,,,3093,73.03125,-33.48046875,1,0,0,response3disk,,5,15.38671875,-7.3125,1,0,0,rectangle,15.38671875,-7.3125,1,0,0,15.38671875,-7.3125,1,0,0,0,117,117,91,1,,,,,,,,
,,,,,,,,,,,,,FF,,,,,,,,0.4997,,,,,,,,,,,,,,,,,,,,,,6100432a67ad454d0a623a03,61036ea5445ee569e534157f,2021-07-29_23h16.11.051,Simcolourproject_2stim_asymm_v5,2020.2.10,MacIntel,60,61025ae37ef11b136ea224fe,,,,,,,,,2239,38.59765625,-51.9765625,1,0,0,response3disk,,4,15.16015625,-12.03515625,1,0,0,rectangle,15.16015625,-12.03515625,1,0,0,15.16015625,-12.03515625,1,0,0,0,118,118,94,1,,,,,,,,
,,,,,,,,,,,,,FF,,,,,,,,0.5834,,,,,,,,,,,,,,,,,,,,,,6100432a67ad454d0a623a03,61036ea5445ee569e534157f,2021-07-29_23h16.11.051,Simcolourproject_2stim_asymm_v5,2020.2.10,MacIntel,60,61025ae37ef11b136ea224fe,,,,,,,,,940,85.33203125,-36.84765625,1,0,0,response3disk,,5,-5.57421875,2.08203125,1,0,0,rectangle,-5.57421875,2.08203125,1,0,0,-5.57421875,2.08203125,1,0,0,0,119,119,152,1,,,,,,,,
,,,,,,,,,,,,,FF,,,,,,,,0.5336,,,,,,,,,,,,,,,,,,,,,,6100432a67ad454d0a623a03,61036ea5445ee569e534157f,2021-07-29_23h16.11.051,Simcolourproject_2stim_asymm_v5,2020.2.10,MacIntel,60,61025ae37ef11b136ea224fe,,,,,,,,,3444,60.6484375,-38.08984375,1,0,0,response3disk,,5,17.56640625,1.8125,1,0,0,rectangle,17.56640625,1.8125,1,0,0,17.56640625,1.8125,1,0,0,0,120,120,78,1,,,,,,,,
,,,,,,,,,,,,,FF,,,,,,,,0.6836,,,,,,,,,,,,,,,,,,,,,,6100432a67ad454d0a623a03,61036ea5445ee569e534157f,2021-07-29_23h16.11.051,Simcolourproject_2stim_asymm_v5,2020.2.10,MacIntel,60,61025ae37ef11b136ea224fe,,,,,,,,,4218,-57.79296875,76.203125,1,0,0,response7disk,,0,-0.84765625,9.59375,1,0,0,rectangle,-0.84765625,9.59375,1,0,0,-0.84765625,9.59375,1,0,0,0,121,121,141,1,,,,,,,,
,,,,,,,,,,,,,FF,,,,,,,,0.4836,,,,,,,,,,,,,,,,,,,,,,6100432a67ad454d0a623a03,61036ea5445ee569e534157f,2021-07-29_23h16.11.051,Simcolourproject_2stim_asymm_v5,2020.2.10,MacIntel,60,61025ae37ef11b136ea224fe,,,,,,,,,4229,66.13671875,-22.203125,1,0,0,response3disk,,5,12.44921875,10.9296875,1,0,0,rectangle,12.44921875,10.9296875,1,0,0,12.44921875,10.9296875,1,0,0,0,122,122,135,1,,,,,,,,
,,,,,,,,,,,,,FF,,,,,,,,0.7678,,,,,,,,,,,,,,,,,,,,,,6100432a67ad454d0a623a03,61036ea5445ee569e534157f,2021-07-29_23h16.11.051,Simcolourproject_2stim_asymm_v5,2020.2.10,MacIntel,60,61025ae37ef11b136ea224fe,,,,,,,,,1826,-34.95703125,-49.44921875,1,0,0,response5disk,,3,-15.859375,13,1,0,0,rectangle,-15.859375,13,1,0,0,-15.859375,13,1,0,0,0,123,123,85,1,,,,,,,,
,,,,,,,,,,,,,FF,,,,,,,,0.9327,,,,,,,,,,,,,,,,,,,,,,6100432a67ad454d0a623a03,61036ea5445ee569e534157f,2021-07-29_23h16.11.051,Simcolourproject_2stim_asymm_v5,2020.2.10,MacIntel,60,61025ae37ef11b136ea224fe,,,,,,,,,372,49.5625,-63.734375,1,0,0,response3disk,,4,19.9765625,-10.49609375,1,0,0,rectangle,19.9765625,-10.49609375,1,0,0,19.9765625,-10.49609375,1,0,0,0,124,124,84,1,,,,,,,,
,,,,,,,,,,,,,FF,,,,,,,,0.6997,,,,,,,,,,,,,,,,,,,,,,6100432a67ad454d0a623a03,61036ea5445ee569e534157f,2021-07-29_23h16.11.051,Simcolourproject_2stim_asymm_v5,2020.2.10,MacIntel,60,61025ae37ef11b136ea224fe,,,,,,,,,1608,-22.5234375,-69.859375,1,0,0,response5disk,,3,-8.70703125,-12.02734375,1,0,0,rectangle,-8.70703125,-12.02734375,1,0,0,-8.70703125,-12.02734375,1,0,0,0,125,125,150,1,,,,,,,,
,,,,,,,,,,,,,FF,,,,,,,,0.9177,,,,,,,,,,,,,,,,,,,,,,6100432a67ad454d0a623a03,61036ea5445ee569e534157f,2021-07-29_23h16.11.051,Simcolourproject_2stim_asymm_v5,2020.2.10,MacIntel,60,61025ae37ef11b136ea224fe,,,,,,,,,4356,-51.3671875,94.98046875,1,0,0,response7disk,,0,-1.03515625,9.22265625,1,0,0,rectangle,-1.03515625,9.22265625,1,0,0,-1.03515625,9.22265625,1,0,0,0,126,126,67,1,,,,,,,,
,,,,,,,,,,,,,FF,,,,,,,,0.6675,,,,,,,,,,,,,,,,,,,,,,6100432a67ad454d0a623a03,61036ea5445ee569e534157f,2021-07-29_23h16.11.051,Simcolourproject_2stim_asymm_v5,2020.2.10,MacIntel,60,61025ae37ef11b136ea224fe,,,,,,,,,2384,78.59375,-28.21484375,1,0,0,response3disk,,5,20.32421875,1.91796875,1,0,0,rectangle,20.32421875,1.91796875,1,0,0,20.32421875,1.91796875,1,0,0,0,127,127,127,1,,,,,,,,
,,,,,,,,,,,,,FF,,,,,,,,1.1162,,,,,,,,,,,,,,,,,,,,,,6100432a67ad454d0a623a03,61036ea5445ee569e534157f,2021-07-29_23h16.11.051,Simcolourproject_2stim_asymm_v5,2020.2.10,MacIntel,60,61025ae37ef11b136ea224fe,,,,,,,,,3504,-29.390625,-76.2890625,1,0,0,response5disk,,3,-15.3515625,-9.578125,1,0,0,rectangle,-15.3515625,-9.578125,1,0,0,-15.3515625,-9.578125,1,0,0,0,128,128,133,1,,,,,,,,
,,,,,,,,,,,,,FF,,,,,,,,0.7335,,,,,,,,,,,,,,,,,,,,,,6100432a67ad454d0a623a03,61036ea5445ee569e534157f,2021-07-29_23h16.11.051,Simcolourproject_2stim_asymm_v5,2020.2.10,MacIntel,60,61025ae37ef11b136ea224fe,,,,,,,,,4289,82.96484375,-23.41796875,1,0,0,response3disk,,5,-2.86328125,-7.87109375,1,0,0,rectangle,-2.86328125,-7.87109375,1,0,0,-2.86328125,-7.87109375,1,0,0,0,129,129,52,1,,,,,,,,
,,,,,,,,,,,,,FF,,,,,,,,0.4501,,,,,,,,,,,,,,,,,,,,,,6100432a67ad454d0a623a03,61036ea5445ee569e534157f,2021-07-29_23h16.11.051,Simcolourproject_2stim_asymm_v5,2020.2.10,MacIntel,60,61025ae37ef11b136ea224fe,,,,,,,,,238,65.80859375,-34.30859375,1,0,0,response3disk,,5,-4.53515625,12.40625,1,0,0,rectangle,-4.53515625,12.40625,1,0,0,-4.53515625,12.40625,1,0,0,0,130,130,54,1,,,,,,,,
,,,,,,,,,,,,,FF,,,,,,,,0.4508,,,,,,,,,,,,,,,,,,,,,,6100432a67ad454d0a623a03,61036ea5445ee569e534157f,2021-07-29_23h16.11.051,Simcolourproject_2stim_asymm_v5,2020.2.10,MacIntel,60,61025ae37ef11b136ea224fe,,,,,,,,,182,59.05078125,-28.28125,1,0,0,response3disk,,5,27.05078125,-12.796875,1,0,0,rectangle,27.05078125,-12.796875,1,0,0,27.05078125,-12.796875,1,0,0,0,131,131,1,1,,,,,,,,
,,,,,,,,,,,,,FF,,,,,,,,0.4334,,,,,,,,,,,,,,,,,,,,,,6100432a67ad454d0a623a03,61036ea5445ee569e534157f,2021-07-29_23h16.11.051,Simcolourproject_2stim_asymm_v5,2020.2.10,MacIntel,60,61025ae37ef11b136ea224fe,,,,,,,,,693,61.546875,-60.11328125,1,0,0,response3disk,,5,-3.4609375,-5.90625,1,0,0,rectangle,-3.4609375,-5.90625,1,0,0,-3.4609375,-5.90625,1,0,0,0,132,132,49,1,,,,,,,,
,,,,,,,,,,,,,FF,,,,,,,,0.8333,,,,,,,,,,,,,,,,,,,,,,6100432a67ad454d0a623a03,61036ea5445ee569e534157f,2021-07-29_23h16.11.051,Simcolourproject_2stim_asymm_v5,2020.2.10,MacIntel,60,61025ae37ef11b136ea224fe,,,,,,,,,1958,-22.96875,-58.625,1,0,0,response5disk,,3,-8.921875,-3.69921875,1,0,0,rectangle,-8.921875,-3.69921875,1,0,0,-8.921875,-3.69921875,1,0,0,0,133,133,73,1,,,,,,,,
,,,,,,,,,,,,,FF,,,,,,,,0.8331,,,,,,,,,,,,,,,,,,,,,,6100432a67ad454d0a623a03,61036ea5445ee569e534157f,2021-07-29_23h16.11.051,Simcolourproject_2stim_asymm_v5,2020.2.10,MacIntel,60,61025ae37ef11b136ea224fe,,,,,,,,,1157,-79.26953125,-29.359375,1,0,0,response5disk,,2,-4.94140625,-6.6484375,1,0,0,rectangle,-4.94140625,-6.6484375,1,0,0,-4.94140625,-6.6484375,1,0,0,0,134,134,25,1,,,,,,,,
,,,,,,,,,,,,,FF,,,,,,,,0.4006,,,,,,,,,,,,,,,,,,,,,,6100432a67ad454d0a623a03,61036ea5445ee569e534157f,2021-07-29_23h16.11.051,Simcolourproject_2stim_asymm_v5,2020.2.10,MacIntel,60,61025ae37ef11b136ea224fe,,,,,,,,,1089,15.73828125,-41.03125,1,0,0,response3disk,,4,9.90625,-1.16015625,1,0,0,rectangle,9.90625,-1.16015625,1,0,0,9.90625,-1.16015625,1,0,0,0,135,135,42,1,,,,,,,,
,,,,,,,,,,,,,FF,,,,,,,,0.3996,,,,,,,,,,,,,,,,,,,,,,6100432a67ad454d0a623a03,61036ea5445ee569e534157f,2021-07-29_23h16.11.051,Simcolourproject_2stim_asymm_v5,2020.2.10,MacIntel,60,61025ae37ef11b136ea224fe,,,,,,,,,2472,58.0390625,-24.88671875,1,0,0,response3disk,,5,8.265625,-0.41796875,1,0,0,rectangle,8.265625,-0.41796875,1,0,0,8.265625,-0.41796875,1,0,0,0,136,136,31,1,,,,,,,,
,,,,,,,,,,,,,FF,,,,,,,,0.4339,,,,,,,,,,,,,,,,,,,,,,6100432a67ad454d0a623a03,61036ea5445ee569e534157f,2021-07-29_23h16.11.051,Simcolourproject_2stim_asymm_v5,2020.2.10,MacIntel,60,61025ae37ef11b136ea224fe,,,,,,,,,1724,56.01953125,-36.97265625,1,0,0,response3disk,,5,-0.0078125,-12.0390625,1,0,0,rectangle,-0.0078125,-12.0390625,1,0,0,-0.0078125,-12.0390625,1,0,0,0,137,137,153,1,,,,,,,,
,,,,,,,,,,,,,FF,,,,,,,,0.4665,,,,,,,,,,,,,,,,,,,,,,6100432a67ad454d0a623a03,61036ea5445ee569e534157f,2021-07-29_23h16.11.051,Simcolourproject_2stim_asymm_v5,2020.2.10,MacIntel,60,61025ae37ef11b136ea224fe,,,,,,,,,3626,59.5546875,-30.640625,1,0,0,response3disk,,5,10.12890625,2.69140625,1,0,0,rectangle,10.12890625,2.69140625,1,0,0,10.12890625,2.69140625,1,0,0,0,138,138,56,1,,,,,,,,
,,,,,,,,,,,,,FF,,,,,,,,0.3675,,,,,,,,,,,,,,,,,,,,,,6100432a67ad454d0a623a03,61036ea5445ee569e534157f,2021-07-29_23h16.11.051,Simcolourproject_2stim_asymm_v5,2020.2.10,MacIntel,60,61025ae37ef11b136ea224fe,,,,,,,,,1916,70.14453125,-37.69921875,1,0,0,response3disk,,5,16.3046875,0.44140625,1,0,0,rectangle,69.16015625,47.16796875,1,0,0,-3.8515625,-11.7734375,1,0,0,0,139,139,61,1,,response1disk_3,TRUE,6,6,"[159,110,88,305,154,198,170,108,72,191,226,312,12,53,226,181,280,198,301,140]",1.9659,rectangle
,,,,,,,,,,,,,FF,,,,,,,,0.7169,,,,,,,,,,,,,,,,,,,,,,6100432a67ad454d0a623a03,61036ea5445ee569e534157f,2021-07-29_23h16.11.051,Simcolourproject_2stim_asymm_v5,2020.2.10,MacIntel,60,61025ae37ef11b136ea224fe,,,,,,,,,1216,-70.5,-29.0625,1,0,0,response5disk,,2,-22.44140625,11.94140625,1,0,0,rectangle,-22.44140625,11.94140625,1,0,0,-22.44140625,11.94140625,1,0,0,0,140,140,117,1,,,,,,,,
,,,,,,,,,,,,,FF,,,,,,,,0.5672,,,,,,,,,,,,,,,,,,,,,,6100432a67ad454d0a623a03,61036ea5445ee569e534157f,2021-07-29_23h16.11.051,Simcolourproject_2stim_asymm_v5,2020.2.10,MacIntel,60,61025ae37ef11b136ea224fe,,,,,,,,,1317,37.7578125,-53.4375,1,0,0,response3disk,,4,31.359375,4.7734375,1,0,0,rectangle,31.359375,4.7734375,1,0,0,31.359375,4.7734375,1,0,0,0,141,141,92,1,,,,,,,,
,,,,,,,,,,,,,FF,,,,,,,,0.5656,,,,,,,,,,,,,,,,,,,,,,6100432a67ad454d0a623a03,61036ea5445ee569e534157f,2021-07-29_23h16.11.051,Simcolourproject_2stim_asymm_v5,2020.2.10,MacIntel,60,61025ae37ef11b136ea224fe,,,,,,,,,3583,78.0859375,-34.44921875,1,0,0,response3disk,,5,17.55078125,-13.3984375,1,0,0,rectangle,17.55078125,-13.3984375,1,0,0,17.55078125,-13.3984375,1,0,0,0,142,142,23,1,,,,,,,,
,,,,,,,,,,,,,FF,,,,,,,,0.5504,,,,,,,,,,,,,,,,,,,,,,6100432a67ad454d0a623a03,61036ea5445ee569e534157f,2021-07-29_23h16.11.051,Simcolourproject_2stim_asymm_v5,2020.2.10,MacIntel,60,61025ae37ef11b136ea224fe,,,,,,,,,2633,24.62890625,-51.05859375,1,0,0,response3disk,,4,11.9765625,-8.22265625,1,0,0,rectangle,11.9765625,-8.22265625,1,0,0,11.9765625,-8.22265625,1,0,0,0,143,143,149,1,,,,,,,,
,,,,,,,,,,,,,FF,,,,,,,,21.0527,,,,,,,,,,,,,,,,,,,,,,6100432a67ad454d0a623a03,61036ea5445ee569e534157f,2021-07-29_23h16.11.051,Simcolourproject_2stim_asymm_v5,2020.2.10,MacIntel,60,61025ae37ef11b136ea224fe,,,,,,,,,304,-28.40234375,-68.4609375,1,0,0,response5disk,,3,-2.328125,8.26171875,1,0,0,rectangle,-2.328125,8.26171875,1,0,0,-2.328125,8.26171875,1,0,0,0,144,144,27,1,,,,,,,,
,,,,,,,,,,,,,FF,,,,,,,,0.4828,,,,,,,,,,,,,,,,,,,,,,6100432a67ad454d0a623a03,61036ea5445ee569e534157f,2021-07-29_23h16.11.051,Simcolourproject_2stim_asymm_v5,2020.2.10,MacIntel,60,61025ae37ef11b136ea224fe,,,,,,,,,323,59.140625,-26.12109375,1,0,0,response3disk,,5,5.10546875,12.4140625,1,0,0,rectangle,5.10546875,12.4140625,1,0,0,5.10546875,12.4140625,1,0,0,0,145,145,82,1,,,,,,,,
,,,,,,,,,,,,,FF,,,,,,,,0.5335,,,,,,,,,,,,,,,,,,,,,,6100432a67ad454d0a623a03,61036ea5445ee569e534157f,2021-07-29_23h16.11.051,Simcolourproject_2stim_asymm_v5,2020.2.10,MacIntel,60,61025ae37ef11b136ea224fe,,,,,,,,,899,68.06640625,-39.7890625,1,0,0,response3disk,,5,20.76171875,-5.75390625,1,0,0,rectangle,20.76171875,-5.75390625,1,0,0,20.76171875,-5.75390625,1,0,0,0,146,146,55,1,,,,,,,,
,,,,,,,,,,,,,FF,,,,,,,,0.4825,,,,,,,,,,,,,,,,,,,,,,6100432a67ad454d0a623a03,61036ea5445ee569e534157f,2021-07-29_23h16.11.051,Simcolourproject_2stim_asymm_v5,2020.2.10,MacIntel,60,61025ae37ef11b136ea224fe,,,,,,,,,838,73.515625,-49.75390625,1,0,0,response3disk,,5,8.1953125,2.54296875,1,0,0,rectangle,8.1953125,2.54296875,1,0,0,8.1953125,2.54296875,1,0,0,0,147,147,118,1,,,,,,,,
,,,,,,,,,,,,,FF,,,,,,,,0.4671,,,,,,,,,,,,,,,,,,,,,,6100432a67ad454d0a623a03,61036ea5445ee569e534157f,2021-07-29_23h16.11.051,Simcolourproject_2stim_asymm_v5,2020.2.10,MacIntel,60,61025ae37ef11b136ea224fe,,,,,,,,,3952,28.48828125,-49.97265625,1,0,0,response3disk,,4,14.4296875,-4.765625,1,0,0,rectangle,14.4296875,-4.765625,1,0,0,14.4296875,-4.765625,1,0,0,0,148,148,68,1,,,,,,,,
,,,,,,,,,,,,,FF,,,,,,,,0.4269,,,,,,,,,,,,,,,,,,,,,,6100432a67ad454d0a623a03,61036ea5445ee569e534157f,2021-07-29_23h16.11.051,Simcolourproject_2stim_asymm_v5,2020.2.10,MacIntel,60,61025ae37ef11b136ea224fe,,,,,,,,,3646,91.87109375,-53.32421875,1,0,0,response3disk,,5,24.27734375,0.6875,1,0,0,rectangle,24.27734375,0.6875,1,0,0,24.27734375,0.6875,1,0,0,0,149,149,109,1,,,,,,,,
,,,,,,,,,,,,,FF,,,,,,,,0.7507,,,,,,,,,,,,,,,,,,,,,,6100432a67ad454d0a623a03,61036ea5445ee569e534157f,2021-07-29_23h16.11.051,Simcolourproject_2stim_asymm_v5,2020.2.10,MacIntel,60,61025ae37ef11b136ea224fe,,,,,,,,,3778,-56.69921875,-41.80859375,1,0,0,response5disk,,2,10.47265625,12.7890625,1,0,0,rectangle,10.47265625,12.7890625,1,0,0,10.47265625,12.7890625,1,0,0,0,150,150,11,1,,,,,,,,
,,,,,,,,,,,,,FF,,,,,,,,1.1327,,,,,,,,,,,,,,,,,,,,,,6100432a67ad454d0a623a03,61036ea5445ee569e534157f,2021-07-29_23h16.11.051,Simcolourproject_2stim_asymm_v5,2020.2.10,MacIntel,60,61025ae37ef11b136ea224fe,,,,,,,,,362,38.3828125,-85.4375,1,0,0,response3disk,,4,11.453125,13.29296875,1,0,0,rectangle,11.453125,13.29296875,1,0,0,11.453125,13.29296875,1,0,0,0,151,151,119,1,,,,,,,,
,,,,,,,,,,,,,FF,,,,,,,,0.4668,,,,,,,,,,,,,,,,,,,,,,6100432a67ad454d0a623a03,61036ea5445ee569e534157f,2021-07-29_23h16.11.051,Simcolourproject_2stim_asymm_v5,2020.2.10,MacIntel,60,61025ae37ef11b136ea224fe,,,,,,,,,3649,64.58203125,-32.7578125,1,0,0,response3disk,,5,13.8046875,-3.25,1,0,0,rectangle,13.8046875,-3.25,1,0,0,13.8046875,-3.25,1,0,0,0,152,152,147,1,,,,,,,,
,,,,,,,,,,,,,FF,,,,,,,,4.4994,,,,,,,,,,,,,,,,,,,,,,6100432a67ad454d0a623a03,61036ea5445ee569e534157f,2021-07-29_23h16.11.051,Simcolourproject_2stim_asymm_v5,2020.2.10,MacIntel,60,61025ae37ef11b136ea224fe,,,,,,,,,4244,83.25,-50.25,1,0,0,response3disk,,5,18.5859375,8.28515625,1,0,0,rectangle,-43.125,73.0625,1,0,0,2.390625,-0.93359375,1,0,0,0,153,153,95,1,,response7disk_3,TRUE,0,0,"[159,110,88,305,154,198,170,108,72,191,226,312,12,53,226,181,280,198,301,140]",1.4675,rectangle
,,,,,,,,,,,,,FF,,,,,,,,0.7828,,,,,,,,,,,,,,,,,,,,,,6100432a67ad454d0a623a03,61036ea5445ee569e534157f,2021-07-29_23h16.11.051,Simcolourproject_2stim_asymm_v5,2020.2.10,MacIntel,60,61025ae37ef11b136ea224fe,,,,,,,,,3719,27.6015625,-62.34765625,1,0,0,response3disk,,4,12.7109375,3.41796875,1,0,0,rectangle,12.7109375,3.41796875,1,0,0,12.7109375,3.41796875,1,0,0,0,154,154,151,1,,,,,,,,
,,,,,,,,,,,,,FF,,,,,,,,0.516,,,,,,,,,,,,,,,,,,,,,,6100432a67ad454d0a623a03,61036ea5445ee569e534157f,2021-07-29_23h16.11.051,Simcolourproject_2stim_asymm_v5,2020.2.10,MacIntel,60,61025ae37ef11b136ea224fe,,,,,,,,,3253,92.4921875,-45.1875,1,0,0,response3disk,,5,18.46875,-6.36328125,1,0,0,rectangle,18.46875,-6.36328125,1,0,0,18.46875,-6.36328125,1,0,0,0,155,155,71,1,,,,,,,,
,,,,,,,,,,,,,FF,,,,,,,,0.4653,,,,,,,,,,,,,,,,,,,,,,6100432a67ad454d0a623a03,61036ea5445ee569e534157f,2021-07-29_23h16.11.051,Simcolourproject_2stim_asymm_v5,2020.2.10,MacIntel,60,61025ae37ef11b136ea224fe,,,,,,,,,3976,66.015625,-31.10546875,1,0,0,response3disk,,5,18.44921875,-0.859375,1,0,0,rectangle,18.44921875,-0.859375,1,0,0,18.44921875,-0.859375,1,0,0,0,156,156,35,1,,,,,,,,
,,,,,,,,,,,,,FF,,,,,,,,0.4991,,,,,,,,,,,,,,,,,,,,,,6100432a67ad454d0a623a03,61036ea5445ee569e534157f,2021-07-29_23h16.11.051,Simcolourproject_2stim_asymm_v5,2020.2.10,MacIntel,60,61025ae37ef11b136ea224fe,,,,,,,,,3332,62.36328125,-36.2421875,1,0,0,response3disk,,5,14.32421875,-0.5546875,1,0,0,rectangle,14.32421875,-0.5546875,1,0,0,14.32421875,-0.5546875,1,0,0,0,157,157,103,1,,,,,,,,
,,,,,,,,,,,,,FF,,,,,,,,0.4842,,,,,,,,,,,,,,,,,,,,,,6100432a67ad454d0a623a03,61036ea5445ee569e534157f,2021-07-29_23h16.11.051,Simcolourproject_2stim_asymm_v5,2020.2.10,MacIntel,60,61025ae37ef11b136ea224fe,,,,,,,,,1640,57.24609375,-39.6796875,1,0,0,response3disk,,5,13.95703125,-3.546875,1,0,0,rectangle,39.03125,86.5859375,1,0,0,-0.7265625,-1.12109375,1,0,0,0,158,158,59,1,,response1disk_3,TRUE,7,7,"[159,110,88,305,154,198,170,108,72,191,226,312,12,53,226,181,280,198,301,140]",2.0667,rectangle
,,,,,,,,,,,,,FF,,,,,,,,0.65,,,,,,,,,,,,,,,,,,,,,,6100432a67ad454d0a623a03,61036ea5445ee569e534157f,2021-07-29_23h16.11.051,Simcolourproject_2stim_asymm_v5,2020.2.10,MacIntel,60,61025ae37ef11b136ea224fe,,,,,,,,,4200,-31.3671875,53.18359375,1,0,0,response7disk,,0,0.9921875,-11.96875,1,0,0,rectangle,0.9921875,-11.96875,1,0,0,0.9921875,-11.96875,1,0,0,0,159,159,5,1,,,,,,,,
,,,,,,,,,,,,,FF,,,,,,,,5.082,,,,,,,,,,,,,,,,,,,,,,6100432a67ad454d0a623a03,61036ea5445ee569e534157f,2021-07-29_23h16.11.051,Simcolourproject_2stim_asymm_v5,2020.2.10,MacIntel,60,61025ae37ef11b136ea224fe,,,,,,,,,3488,-57.87109375,-81.640625,1,0,0,response5disk,,3,4.41015625,0.36328125,1,0,0,rectangle,4.41015625,0.36328125,1,0,0,4.41015625,0.36328125,1,0,0,1,0,160,101,1,,,,,,,,
,,,,,,,,,,,,,FF,,,,,,,,0.6664,,,,,,,,,,,,,,,,,,,,,,6100432a67ad454d0a623a03,61036ea5445ee569e534157f,2021-07-29_23h16.11.051,Simcolourproject_2stim_asymm_v5,2020.2.10,MacIntel,60,61025ae37ef11b136ea224fe,,,,,,,,,1442,44.23828125,-22.26953125,1,0,0,response3disk,,5,8.45703125,1.1171875,1,0,0,rectangle,8.45703125,1.1171875,1,0,0,8.45703125,1.1171875,1,0,0,1,1,161,57,1,,,,,,,,
,,,,,,,,,,,,,FF,,,,,,,,1.0334,,,,,,,,,,,,,,,,,,,,,,6100432a67ad454d0a623a03,61036ea5445ee569e534157f,2021-07-29_23h16.11.051,Simcolourproject_2stim_asymm_v5,2020.2.10,MacIntel,60,61025ae37ef11b136ea224fe,,,,,,,,,2869,85.203125,-29.984375,1,0,0,response3disk,,5,11.12890625,-4.265625,1,0,0,rectangle,11.12890625,-4.265625,1,0,0,11.12890625,-4.265625,1,0,0,1,2,162,145,1,,,,,,,,
,,,,,,,,,,,,,FF,,,,,,,,0.4831,,,,,,,,,,,,,,,,,,,,,,6100432a67ad454d0a623a03,61036ea5445ee569e534157f,2021-07-29_23h16.11.051,Simcolourproject_2stim_asymm_v5,2020.2.10,MacIntel,60,61025ae37ef11b136ea224fe,,,,,,,,,120,55.16015625,-33.8125,1,0,0,response3disk,,5,11.921875,-5.4140625,1,0,0,rectangle,11.921875,-5.4140625,1,0,0,11.921875,-5.4140625,1,0,0,1,3,163,65,1,,,,,,,,
,,,,,,,,,,,,,FF,,,,,,,,0.5662,,,,,,,,,,,,,,,,,,,,,,6100432a67ad454d0a623a03,61036ea5445ee569e534157f,2021-07-29_23h16.11.051,Simcolourproject_2stim_asymm_v5,2020.2.10,MacIntel,60,61025ae37ef11b136ea224fe,,,,,,,,,4369,-44.89453125,65.421875,1,0,0,response7disk,,0,1.53125,10.5703125,1,0,0,rectangle,1.53125,10.5703125,1,0,0,1.53125,10.5703125,1,0,0,1,4,164,107,1,,,,,,,,
,,,,,,,,,,,,,FF,,,,,,,,0.8014,,,,,,,,,,,,,,,,,,,,,,6100432a67ad454d0a623a03,61036ea5445ee569e534157f,2021-07-29_23h16.11.051,Simcolourproject_2stim_asymm_v5,2020.2.10,MacIntel,60,61025ae37ef11b136ea224fe,,,,,,,,,1828,-83.4609375,-30.62890625,1,0,0,response5disk,,2,-3.734375,5.87890625,1,0,0,rectangle,-3.734375,5.87890625,1,0,0,-3.734375,5.87890625,1,0,0,1,5,165,120,1,,,,,,,,
,,,,,,,,,,,,,FF,,,,,,,,0.6338,,,,,,,,,,,,,,,,,,,,,,6100432a67ad454d0a623a03,61036ea5445ee569e534157f,2021-07-29_23h16.11.051,Simcolourproject_2stim_asymm_v5,2020.2.10,MacIntel,60,61025ae37ef11b136ea224fe,,,,,,,,,1567,62.33984375,-29.96484375,1,0,0,response3disk,,5,28.375,-5.625,1,0,0,rectangle,28.375,-5.625,1,0,0,28.375,-5.625,1,0,0,1,6,166,44,1,,,,,,,,
,,,,,,,,,,,,,FF,,,,,,,,0.5835,,,,,,,,,,,,,,,,,,,,,,6100432a67ad454d0a623a03,61036ea5445ee569e534157f,2021-07-29_23h16.11.051,Simcolourproject_2stim_asymm_v5,2020.2.10,MacIntel,60,61025ae37ef11b136ea224fe,,,,,,,,,1725,71.4765625,-31.5703125,1,0,0,response3disk,,5,-5.92578125,8.51953125,1,0,0,rectangle,-5.92578125,8.51953125,1,0,0,-5.92578125,8.51953125,1,0,0,1,7,167,95,1,,,,,,,,
,,,,,,,,,,,,,FF,,,,,,,,0.7669,,,,,,,,,,,,,,,,,,,,,,6100432a67ad454d0a623a03,61036ea5445ee569e534157f,2021-07-29_23h16.11.051,Simcolourproject_2stim_asymm_v5,2020.2.10,MacIntel,60,61025ae37ef11b136ea224fe,,,,,,,,,237,42.13671875,-83.01171875,1,0,0,response3disk,,4,27.3828125,-2.5546875,1,0,0,rectangle,27.3828125,-2.5546875,1,0,0,27.3828125,-2.5546875,1,0,0,1,8,168,26,1,,,,,,,,
,,,,,,,,,,,,,FF,,,,,,,,0.5172,,,,,,,,,,,,,,,,,,,,,,6100432a67ad454d0a623a03,61036ea5445ee569e534157f,2021-07-29_23h16.11.051,Simcolourproject_2stim_asymm_v5,2020.2.10,MacIntel,60,61025ae37ef11b136ea224fe,,,,,,,,,2184,61.51171875,-27.5,1,0,0,response3disk,,5,-0.0703125,-5.65625,1,0,0,rectangle,74.19921875,55.0859375,1,0,0,9.546875,0.04296875,1,0,0,1,9,169,5,1,,response1disk_3,TRUE,6,6,"[159,110,88,305,154,198,170,108,72,191,226,312,12,53,226,181,280,198,301,140]",1.6009,rectangle
,,,,,,,,,,,,,FF,,,,,,,,0.8508,,,,,,,,,,,,,,,,,,,,,,6100432a67ad454d0a623a03,61036ea5445ee569e534157f,2021-07-29_23h16.11.051,Simcolourproject_2stim_asymm_v5,2020.2.10,MacIntel,60,61025ae37ef11b136ea224fe,,,,,,,,,3887,-36.4140625,-70.55859375,1,0,0,response5disk,,3,-30.953125,1.93359375,1,0,0,rectangle,-30.953125,1.93359375,1,0,0,-30.953125,1.93359375,1,0,0,1,10,170,156,1,,,,,,,,
,,,,,,,,,,,,,FF,,,,,,,,0.4669,,,,,,,,,,,,,,,,,,,,,,6100432a67ad454d0a623a03,61036ea5445ee569e534157f,2021-07-29_23h16.11.051,Simcolourproject_2stim_asymm_v5,2020.2.10,MacIntel,60,61025ae37ef11b136ea224fe,,,,,,,,,2449,22.51171875,-51.99609375,1,0,0,response3disk,,4,20.52734375,-12.74609375,1,0,0,rectangle,20.52734375,-12.74609375,1,0,0,20.52734375,-12.74609375,1,0,0,1,11,171,64,1,,,,,,,,
,,,,,,,,,,,,,FF,,,,,,,,0.3649,,,,,,,,,,,,,,,,,,,,,,6100432a67ad454d0a623a03,61036ea5445ee569e534157f,2021-07-29_23h16.11.051,Simcolourproject_2stim_asymm_v5,2020.2.10,MacIntel,60,61025ae37ef11b136ea224fe,,,,,,,,,3890,67.37109375,-31.4140625,1,0,0,response3disk,,5,19.171875,-6.83984375,1,0,0,rectangle,19.171875,-6.83984375,1,0,0,19.171875,-6.83984375,1,0,0,1,12,172,56,1,,,,,,,,
,,,,,,,,,,,,,FF,,,,,,,,0.517,,,,,,,,,,,,,,,,,,,,,,6100432a67ad454d0a623a03,61036ea5445ee569e534157f,2021-07-29_23h16.11.051,Simcolourproject_2stim_asymm_v5,2020.2.10,MacIntel,60,61025ae37ef11b136ea224fe,,,,,,,,,3878,61.83984375,-35.1171875,1,0,0,response3disk,,5,-17.1484375,11.37890625,1,0,0,rectangle,-17.1484375,11.37890625,1,0,0,-17.1484375,11.37890625,1,0,0,1,13,173,135,1,,,,,,,,
,,,,,,,,,,,,,FF,,,,,,,,0.8006,,,,,,,,,,,,,,,,,,,,,,6100432a67ad454d0a623a03,61036ea5445ee569e534157f,2021-07-29_23h16.11.051,Simcolourproject_2stim_asymm_v5,2020.2.10,MacIntel,60,61025ae37ef11b136ea224fe,,,,,,,,,3364,73.8359375,-37.0859375,1,0,0,response3disk,,5,7.6015625,-2.18359375,1,0,0,rectangle,7.6015625,-2.18359375,1,0,0,7.6015625,-2.18359375,1,0,0,1,14,174,1,1,,,,,,,,
,,,,,,,,,,,,,FF,,,,,,,,0.7167,,,,,,,,,,,,,,,,,,,,,,6100432a67ad454d0a623a03,61036ea5445ee569e534157f,2021-07-29_23h16.11.051,Simcolourproject_2stim_asymm_v5,2020.2.10,MacIntel,60,61025ae37ef11b136ea224fe,,,,,,,,,367,48.5625,-88.4375,1,0,0,response3disk,,4,-16.3046875,9.06640625,1,0,0,rectangle,-16.3046875,9.06640625,1,0,0,-16.3046875,9.06640625,1,0,0,1,15,175,6,1,,,,,,,,
,,,,,,,,,,,,,FF,,,,,,,,10.449,,,,,,,,,,,,,,,,,,,,,,6100432a67ad454d0a623a03,61036ea5445ee569e534157f,2021-07-29_23h16.11.051,Simcolourproject_2stim_asymm_v5,2020.2.10,MacIntel,60,61025ae37ef11b136ea224fe,,,,,,,,,1477,77.92578125,-53.87890625,1,0,0,response3disk,,5,-2.3359375,-3.6953125,1,0,0,rectangle,-2.3359375,-3.6953125,1,0,0,-2.3359375,-3.6953125,1,0,0,1,16,176,155,1,,,,,,,,
,,,,,,,,,,,,,FF,,,,,,,,0.6829,,,,,,,,,,,,,,,,,,,,,,6100432a67ad454d0a623a03,61036ea5445ee569e534157f,2021-07-29_23h16.11.051,Simcolourproject_2stim_asymm_v5,2020.2.10,MacIntel,60,61025ae37ef11b136ea224fe,,,,,,,,,4166,34.93359375,-75.44140625,1,0,0,response3disk,,4,14.625,-4.234375,1,0,0,rectangle,14.625,-4.234375,1,0,0,14.625,-4.234375,1,0,0,1,17,177,42,1,,,,,,,,
,,,,,,,,,,,,,FF,,,,,,,,33.7001,,,,,,,,,,,,,,,,,,,,,,6100432a67ad454d0a623a03,61036ea5445ee569e534157f,2021-07-29_23h16.11.051,Simcolourproject_2stim_asymm_v5,2020.2.10,MacIntel,60,61025ae37ef11b136ea224fe,,,,,,,,,84,91.5703125,-46.703125,1,0,0,response3disk,,5,-9.23828125,4.5703125,1,0,0,rectangle,-9.23828125,4.5703125,1,0,0,-9.23828125,4.5703125,1,0,0,1,18,178,116,1,,,,,,,,
,,,,,,,,,,,,,FF,,,,,,,,0.6509,,,,,,,,,,,,,,,,,,,,,,6100432a67ad454d0a623a03,61036ea5445ee569e534157f,2021-07-29_23h16.11.051,Simcolourproject_2stim_asymm_v5,2020.2.10,MacIntel,60,61025ae37ef11b136ea224fe,,,,,,,,,552,68.29296875,-33.29296875,1,0,0,response3disk,,5,9.34375,-11.06640625,1,0,0,rectangle,9.34375,-11.06640625,1,0,0,9.34375,-11.06640625,1,0,0,1,19,179,28,1,,,,,,,,
,,,,,,,,,,,,,FF,,,,,,,,0.6012,,,,,,,,,,,,,,,,,,,,,,6100432a67ad454d0a623a03,61036ea5445ee569e534157f,2021-07-29_23h16.11.051,Simcolourproject_2stim_asymm_v5,2020.2.10,MacIntel,60,61025ae37ef11b136ea224fe,,,,,,,,,114,27.8359375,-80.75,1,0,0,response3disk,,4,8.359375,5.296875,1,0,0,rectangle,36.28515625,-74.953125,1,0,0,3.8828125,5.11328125,1,0,0,1,20,180,13,1,,response3disk_3,TRUE,4,4,"[159,110,88,305,154,198,170,108,72,191,226,312,12,53,226,181,280,198,301,140]",1.7012,rectangle
,,,,,,,,,,,,,FF,,,,,,,,0.6492,,,,,,,,,,,,,,,,,,,,,,6100432a67ad454d0a623a03,61036ea5445ee569e534157f,2021-07-29_23h16.11.051,Simcolourproject_2stim_asymm_v5,2020.2.10,MacIntel,60,61025ae37ef11b136ea224fe,,,,,,,,,2952,60.28125,-24.98046875,1,0,0,response3disk,,5,13.484375,5.4765625,1,0,0,rectangle,13.484375,5.4765625,1,0,0,13.484375,5.4765625,1,0,0,1,21,181,27,1,,,,,,,,
,,,,,,,,,,,,,FF,,,,,,,,0.4843,,,,,,,,,,,,,,,,,,,,,,6100432a67ad454d0a623a03,61036ea5445ee569e534157f,2021-07-29_23h16.11.051,Simcolourproject_2stim_asymm_v5,2020.2.10,MacIntel,60,61025ae37ef11b136ea224fe,,,,,,,,,536,55.0078125,-33.359375,1,0,0,response3disk,,5,-17.6328125,13.2734375,1,0,0,rectangle,-17.6328125,13.2734375,1,0,0,-17.6328125,13.2734375,1,0,0,1,22,182,35,1,,,,,,,,
,,,,,,,,,,,,,FF,,,,,,,,0.6832,,,,,,,,,,,,,,,,,,,,,,6100432a67ad454d0a623a03,61036ea5445ee569e534157f,2021-07-29_23h16.11.051,Simcolourproject_2stim_asymm_v5,2020.2.10,MacIntel,60,61025ae37ef11b136ea224fe,,,,,,,,,2831,-48.94140625,83.6953125,1,0,0,response7disk,,0,9.078125,4.33203125,1,0,0,rectangle,9.078125,4.33203125,1,0,0,9.078125,4.33203125,1,0,0,1,23,183,25,1,,,,,,,,
,,,,,,,,,,,,,FF,,,,,,,,0.4996,,,,,,,,,,,,,,,,,,,,,,6100432a67ad454d0a623a03,61036ea5445ee569e534157f,2021-07-29_23h16.11.051,Simcolourproject_2stim_asymm_v5,2020.2.10,MacIntel,60,61025ae37ef11b136ea224fe,,,,,,,,,1991,48.53125,-32.26953125,1,0,0,response3disk,,5,20.9609375,-7.69140625,1,0,0,rectangle,20.9609375,-7.69140625,1,0,0,20.9609375,-7.69140625,1,0,0,1,24,184,67,1,,,,,,,,
,,,,,,,,,,,,,FF,,,,,,,,0.4664,,,,,,,,,,,,,,,,,,,,,,6100432a67ad454d0a623a03,61036ea5445ee569e534157f,2021-07-29_23h16.11.051,Simcolourproject_2stim_asymm_v5,2020.2.10,MacIntel,60,61025ae37ef11b136ea224fe,,,,,,,,,3570,40.08203125,-27.44140625,1,0,0,response3disk,,5,16.69140625,-7.609375,1,0,0,rectangle,16.69140625,-7.609375,1,0,0,16.69140625,-7.609375,1,0,0,1,25,185,48,1,,,,,,,,
,,,,,,,,,,,,,FF,,,,,,,,0.5671,,,,,,,,,,,,,,,,,,,,,,6100432a67ad454d0a623a03,61036ea5445ee569e534157f,2021-07-29_23h16.11.051,Simcolourproject_2stim_asymm_v5,2020.2.10,MacIntel,60,61025ae37ef11b136ea224fe,,,,,,,,,185,-24.2109375,60.796875,1,0,0,response7disk,,0,0.96875,5.46875,1,0,0,rectangle,0.96875,5.46875,1,0,0,0.96875,5.46875,1,0,0,1,26,186,99,1,,,,,,,,
,,,,,,,,,,,,,FF,,,,,,,,0.8864,,,,,,,,,,,,,,,,,,,,,,6100432a67ad454d0a623a03,61036ea5445ee569e534157f,2021-07-29_23h16.11.051,Simcolourproject_2stim_asymm_v5,2020.2.10,MacIntel,60,61025ae37ef11b136ea224fe,,,,,,,,,1631,58.24609375,-37.48046875,1,0,0,response3disk,,5,-7.90234375,3.4375,1,0,0,rectangle,-7.90234375,3.4375,1,0,0,-7.90234375,3.4375,1,0,0,1,27,187,90,1,,,,,,,,
,,,,,,,,,,,,,FF,,,,,,,,1.2503,,,,,,,,,,,,,,,,,,,,,,6100432a67ad454d0a623a03,61036ea5445ee569e534157f,2021-07-29_23h16.11.051,Simcolourproject_2stim_asymm_v5,2020.2.10,MacIntel,60,61025ae37ef11b136ea224fe,,,,,,,,,1122,-55.27734375,-69,1,0,0,response5disk,,3,-23.98828125,-9.89453125,1,0,0,rectangle,-23.98828125,-9.89453125,1,0,0,-23.98828125,-9.89453125,1,0,0,1,28,188,102,1,,,,,,,,
,,,,,,,,,,,,,FF,,,,,,,,0.6827,,,,,,,,,,,,,,,,,,,,,,6100432a67ad454d0a623a03,61036ea5445ee569e534157f,2021-07-29_23h16.11.051,Simcolourproject_2stim_asymm_v5,2020.2.10,MacIntel,60,61025ae37ef11b136ea224fe,,,,,,,,,966,76.03515625,-28.6796875,1,0,0,response3disk,,5,6.5625,-1.6875,1,0,0,rectangle,6.5625,-1.6875,1,0,0,6.5625,-1.6875,1,0,0,1,29,189,126,1,,,,,,,,
,,,,,,,,,,,,,FF,,,,,,,,0.9667,,,,,,,,,,,,,,,,,,,,,,6100432a67ad454d0a623a03,61036ea5445ee569e534157f,2021-07-29_23h16.11.051,Simcolourproject_2stim_asymm_v5,2020.2.10,MacIntel,60,61025ae37ef11b136ea224fe,,,,,,,,,1746,-42.48828125,-54.8125,1,0,0,response5disk,,3,-19.2109375,0.890625,1,0,0,rectangle,54.9140625,79.56640625,1,0,0,13.4921875,2.40234375,1,0,0,1,30,190,134,1,,response1disk_3,TRUE,7,7,"[159,110,88,305,154,198,170,108,72,191,226,312,12,53,226,181,280,198,301,140]",1.7339,rectangle
,,,,,,,,,,,,,FF,,,,,,,,1.1815,,,,,,,,,,,,,,,,,,,,,,6100432a67ad454d0a623a03,61036ea5445ee569e534157f,2021-07-29_23h16.11.051,Simcolourproject_2stim_asymm_v5,2020.2.10,MacIntel,60,61025ae37ef11b136ea224fe,,,,,,,,,500,70.1171875,34.5,1,0,0,response1disk,,6,-4.46875,-4.01953125,1,0,0,rectangle,-4.46875,-4.01953125,1,0,0,-4.46875,-4.01953125,1,0,0,1,31,191,111,1,,,,,,,,
,,,,,,,,,,,,,FF,,,,,,,,131.8357,,,,,,,,,,,,,,,,,,,,,,6100432a67ad454d0a623a03,61036ea5445ee569e534157f,2021-07-29_23h16.11.051,Simcolourproject_2stim_asymm_v5,2020.2.10,MacIntel,60,61025ae37ef11b136ea224fe,,,,,,,,,1652,70.296875,-41.265625,1,0,0,response3disk,,5,5.9609375,7.63671875,1,0,0,rectangle,5.9609375,7.63671875,1,0,0,5.9609375,7.63671875,1,0,0,1,32,192,84,1,,,,,,,,
,,,,,,,,,,,,,FF,,,,,,,,0.7348,,,,,,,,,,,,,,,,,,,,,,6100432a67ad454d0a623a03,61036ea5445ee569e534157f,2021-07-29_23h16.11.051,Simcolourproject_2stim_asymm_v5,2020.2.10,MacIntel,60,61025ae37ef11b136ea224fe,,,,,,,,,2792,32.98828125,-86.6015625,1,0,0,response3disk,,4,14.2890625,-5.47265625,1,0,0,rectangle,14.2890625,-5.47265625,1,0,0,14.2890625,-5.47265625,1,0,0,1,33,193,7,1,,,,,,,,
,,,,,,,,,,,,,FF,,,,,,,,0.7663,,,,,,,,,,,,,,,,,,,,,,6100432a67ad454d0a623a03,61036ea5445ee569e534157f,2021-07-29_23h16.11.051,Simcolourproject_2stim_asymm_v5,2020.2.10,MacIntel,60,61025ae37ef11b136ea224fe,,,,,,,,,3560,69.1328125,-37.44921875,1,0,0,response3disk,,5,17.79296875,-8.7890625,1,0,0,rectangle,17.79296875,-8.7890625,1,0,0,17.79296875,-8.7890625,1,0,0,1,34,194,142,1,,,,,,,,
,,,,,,,,,,,,,FF,,,,,,,,1.5999,,,,,,,,,,,,,,,,,,,,,,6100432a67ad454d0a623a03,61036ea5445ee569e534157f,2021-07-29_23h16.11.051,Simcolourproject_2stim_asymm_v5,2020.2.10,MacIntel,60,61025ae37ef11b136ea224fe,,,,,,,,,3917,26.3125,-78.62109375,1,0,0,response3disk,,4,11.41015625,9.40625,1,0,0,rectangle,11.41015625,9.40625,1,0,0,11.41015625,9.40625,1,0,0,1,35,195,34,1,,,,,,,,
,,,,,,,,,,,,,FF,,,,,,,,1.1178,,,,,,,,,,,,,,,,,,,,,,6100432a67ad454d0a623a03,61036ea5445ee569e534157f,2021-07-29_23h16.11.051,Simcolourproject_2stim_asymm_v5,2020.2.10,MacIntel,60,61025ae37ef11b136ea224fe,,,,,,,,,267,82.51171875,45.62890625,1,0,0,response1disk,,6,12.05078125,5.0390625,1,0,0,rectangle,12.05078125,5.0390625,1,0,0,12.05078125,5.0390625,1,0,0,1,36,196,10,1,,,,,,,,
,,,,,,,,,,,,,FF,,,,,,,,0.733,,,,,,,,,,,,,,,,,,,,,,6100432a67ad454d0a623a03,61036ea5445ee569e534157f,2021-07-29_23h16.11.051,Simcolourproject_2stim_asymm_v5,2020.2.10,MacIntel,60,61025ae37ef11b136ea224fe,,,,,,,,,1259,76.3671875,46.5703125,1,0,0,response1disk,,6,16.18359375,5.76953125,1,0,0,rectangle,-87.28125,-38.62890625,1,0,0,-9.08203125,1.6953125,1,0,0,1,37,197,93,1,,response5disk_3,TRUE,2,2,"[159,110,88,305,154,198,170,108,72,191,226,312,12,53,226,181,280,198,301,140]",66.9978,rectangle
,,,,,,,,,,,,,FF,,,,,,,,1.0501,,,,,,,,,,,,,,,,,,,,,,6100432a67ad454d0a623a03,61036ea5445ee569e534157f,2021-07-29_23h16.11.051,Simcolourproject_2stim_asymm_v5,2020.2.10,MacIntel,60,61025ae37ef11b136ea224fe,,,,,,,,,529,-41.80859375,-72.26953125,1,0,0,response5disk,,3,-16.4375,-0.00390625,1,0,0,rectangle,-16.4375,-0.00390625,1,0,0,-16.4375,-0.00390625,1,0,0,1,38,198,150,1,,,,,,,,
,,,,,,,,,,,,,FF,,,,,,,,0.8833,,,,,,,,,,,,,,,,,,,,,,6100432a67ad454d0a623a03,61036ea5445ee569e534157f,2021-07-29_23h16.11.051,Simcolourproject_2stim_asymm_v5,2020.2.10,MacIntel,60,61025ae37ef11b136ea224fe,,,,,,,,,685,68.84765625,-35.0234375,1,0,0,response3disk,,5,21.6484375,-8.765625,1,0,0,rectangle,21.6484375,-8.765625,1,0,0,21.6484375,-8.765625,1,0,0,1,39,199,152,1,,,,,,,,
,,,,,,,,,,,,,FF,,,,,,,,1.3506,,,,,,,,,,,,,,,,,,,,,,6100432a67ad454d0a623a03,61036ea5445ee569e534157f,2021-07-29_23h16.11.051,Simcolourproject_2stim_asymm_v5,2020.2.10,MacIntel,60,61025ae37ef11b136ea224fe,,,,,,,,,2222,-37.21484375,-84.53125,1,0,0,response5disk,,3,-17.69140625,-5.94140625,1,0,0,rectangle,-17.69140625,-5.94140625,1,0,0,-17.69140625,-5.94140625,1,0,0,1,40,200,24,1,,,,,,,,
,,,,,,,,,,,,,FF,,,,,,,,0.6509,,,,,,,,,,,,,,,,,,,,,,6100432a67ad454d0a623a03,61036ea5445ee569e534157f,2021-07-29_23h16.11.051,Simcolourproject_2stim_asymm_v5,2020.2.10,MacIntel,60,61025ae37ef11b136ea224fe,,,,,,,,,1467,57.37890625,-30.58203125,1,0,0,response3disk,,5,18.9609375,-9.58984375,1,0,0,rectangle,18.9609375,-9.58984375,1,0,0,18.9609375,-9.58984375,1,0,0,1,41,201,36,1,,,,,,,,
,,,,,,,,,,,,,FF,,,,,,,,0.3832,,,,,,,,,,,,,,,,,,,,,,6100432a67ad454d0a623a03,61036ea5445ee569e534157f,2021-07-29_23h16.11.051,Simcolourproject_2stim_asymm_v5,2020.2.10,MacIntel,60,61025ae37ef11b136ea224fe,,,,,,,,,763,60.26953125,-34.98828125,1,0,0,response3disk,,5,2.046875,5.38671875,1,0,0,rectangle,2.046875,5.38671875,1,0,0,2.046875,5.38671875,1,0,0,1,42,202,88,1,,,,,,,,
,,,,,,,,,,,,,FF,,,,,,,,0.6333,,,,,,,,,,,,,,,,,,,,,,6100432a67ad454d0a623a03,61036ea5445ee569e534157f,2021-07-29_23h16.11.051,Simcolourproject_2stim_asymm_v5,2020.2.10,MacIntel,60,61025ae37ef11b136ea224fe,,,,,,,,,3679,32.07421875,-79.13671875,1,0,0,response3disk,,4,28.42578125,-4.6484375,1,0,0,rectangle,28.42578125,-4.6484375,1,0,0,28.42578125,-4.6484375,1,0,0,1,43,203,108,1,,,,,,,,
,,,,,,,,,,,,,FF,,,,,,,,0.8678,,,,,,,,,,,,,,,,,,,,,,6100432a67ad454d0a623a03,61036ea5445ee569e534157f,2021-07-29_23h16.11.051,Simcolourproject_2stim_asymm_v5,2020.2.10,MacIntel,60,61025ae37ef11b136ea224fe,,,,,,,,,1132,-40.4296875,-78.5703125,1,0,0,response5disk,,3,-21.66015625,-8.57421875,1,0,0,rectangle,-21.66015625,-8.57421875,1,0,0,-21.66015625,-8.57421875,1,0,0,1,44,204,81,1,,,,,,,,
,,,,,,,,,,,,,FF,,,,,,,,1.1672,,,,,,,,,,,,,,,,,,,,,,6100432a67ad454d0a623a03,61036ea5445ee569e534157f,2021-07-29_23h16.11.051,Simcolourproject_2stim_asymm_v5,2020.2.10,MacIntel,60,61025ae37ef11b136ea224fe,,,,,,,,,2262,65.0625,42.203125,1,0,0,response1disk,,6,18.125,-0.40625,1,0,0,rectangle,18.125,-0.40625,1,0,0,18.125,-0.40625,1,0,0,1,45,205,123,1,,,,,,,,
,,,,,,,,,,,,,FF,,,,,,,,0.833,,,,,,,,,,,,,,,,,,,,,,6100432a67ad454d0a623a03,61036ea5445ee569e534157f,2021-07-29_23h16.11.051,Simcolourproject_2stim_asymm_v5,2020.2.10,MacIntel,60,61025ae37ef11b136ea224fe,,,,,,,,,2293,-61.265625,-83.3359375,1,0,0,response5disk,,3,-19.31640625,1.47265625,1,0,0,rectangle,-19.31640625,1.47265625,1,0,0,-19.31640625,1.47265625,1,0,0,1,46,206,2,1,,,,,,,,
,,,,,,,,,,,,,FF,,,,,,,,0.6331,,,,,,,,,,,,,,,,,,,,,,6100432a67ad454d0a623a03,61036ea5445ee569e534157f,2021-07-29_23h16.11.051,Simcolourproject_2stim_asymm_v5,2020.2.10,MacIntel,60,61025ae37ef11b136ea224fe,,,,,,,,,3410,58.91015625,-28.62890625,1,0,0,response3disk,,5,4.5546875,7.3984375,1,0,0,rectangle,4.5546875,7.3984375,1,0,0,4.5546875,7.3984375,1,0,0,1,47,207,54,1,,,,,,,,
,,,,,,,,,,,,,FF,,,,,,,,0.5667,,,,,,,,,,,,,,,,,,,,,,6100432a67ad454d0a623a03,61036ea5445ee569e534157f,2021-07-29_23h16.11.051,Simcolourproject_2stim_asymm_v5,2020.2.10,MacIntel,60,61025ae37ef11b136ea224fe,,,,,,,,,4360,60.1953125,-16.26171875,1,0,0,response3disk,,5,13.79296875,-4.9140625,1,0,0,rectangle,13.79296875,-4.9140625,1,0,0,13.79296875,-4.9140625,1,0,0,1,48,208,109,1,,,,,,,,
,,,,,,,,,,,,,FF,,,,,,,,49.1513,,,,,,,,,,,,,,,,,,,,,,6100432a67ad454d0a623a03,61036ea5445ee569e534157f,2021-07-29_23h16.11.051,Simcolourproject_2stim_asymm_v5,2020.2.10,MacIntel,60,61025ae37ef11b136ea224fe,,,,,,,,,1262,75.85546875,48.0078125,1,0,0,response1disk,,6,6.76953125,-1.49609375,1,0,0,rectangle,6.76953125,-1.49609375,1,0,0,6.76953125,-1.49609375,1,0,0,1,49,209,77,1,,,,,,,,
,,,,,,,,,,,,,FF,,,,,,,,0.5345,,,,,,,,,,,,,,,,,,,,,,6100432a67ad454d0a623a03,61036ea5445ee569e534157f,2021-07-29_23h16.11.051,Simcolourproject_2stim_asymm_v5,2020.2.10,MacIntel,60,61025ae37ef11b136ea224fe,,,,,,,,,2237,-31.56640625,-61.7734375,1,0,0,response5disk,,3,-24.09765625,3.640625,1,0,0,rectangle,-24.09765625,3.640625,1,0,0,-24.09765625,3.640625,1,0,0,1,50,210,15,1,,,,,,,,
,,,,,,,,,,,,,FF,,,,,,,,0.7829,,,,,,,,,,,,,,,,,,,,,,6100432a67ad454d0a623a03,61036ea5445ee569e534157f,2021-07-29_23h16.11.051,Simcolourproject_2stim_asymm_v5,2020.2.10,MacIntel,60,61025ae37ef11b136ea224fe,,,,,,,,,3817,-49.30078125,-81.0703125,1,0,0,response5disk,,3,-23.90234375,-10.203125,1,0,0,rectangle,-23.90234375,-10.203125,1,0,0,-23.90234375,-10.203125,1,0,0,1,51,211,31,1,,,,,,,,
,,,,,,,,,,,,,FF,,,,,,,,0.6674,,,,,,,,,,,,,,,,,,,,,,6100432a67ad454d0a623a03,61036ea5445ee569e534157f,2021-07-29_23h16.11.051,Simcolourproject_2stim_asymm_v5,2020.2.10,MacIntel,60,61025ae37ef11b136ea224fe,,,,,,,,,2513,81.6953125,-13.55859375,1,0,0,response3disk,,5,23.4921875,-1.265625,1,0,0,rectangle,23.4921875,-1.265625,1,0,0,23.4921875,-1.265625,1,0,0,1,52,212,72,1,,,,,,,,
,,,,,,,,,,,,,FF,,,,,,,,0.4169,,,,,,,,,,,,,,,,,,,,,,6100432a67ad454d0a623a03,61036ea5445ee569e534157f,2021-07-29_23h16.11.051,Simcolourproject_2stim_asymm_v5,2020.2.10,MacIntel,60,61025ae37ef11b136ea224fe,,,,,,,,,1642,65.5546875,-31.8203125,1,0,0,response3disk,,5,13.87890625,-13.41015625,1,0,0,rectangle,13.87890625,-13.41015625,1,0,0,13.87890625,-13.41015625,1,0,0,1,53,213,121,1,,,,,,,,
,,,,,,,,,,,,,FF,,,,,,,,0.4161,,,,,,,,,,,,,,,,,,,,,,6100432a67ad454d0a623a03,61036ea5445ee569e534157f,2021-07-29_23h16.11.051,Simcolourproject_2stim_asymm_v5,2020.2.10,MacIntel,60,61025ae37ef11b136ea224fe,,,,,,,,,3242,57.26171875,-30.11328125,1,0,0,response3disk,,5,5.53515625,-0.0703125,1,0,0,rectangle,5.53515625,-0.0703125,1,0,0,5.53515625,-0.0703125,1,0,0,1,54,214,139,1,,,,,,,,
,,,,,,,,,,,,,FF,,,,,,,,567.1514,,,,,,,,,,,,,,,,,,,,,,6100432a67ad454d0a623a03,61036ea5445ee569e534157f,2021-07-29_23h16.11.051,Simcolourproject_2stim_asymm_v5,2020.2.10,MacIntel,60,61025ae37ef11b136ea224fe,,,,,,,,,1314,76.8046875,-35.390625,1,0,0,response3disk,,5,9.4296875,0.58984375,1,0,0,rectangle,9.4296875,0.58984375,1,0,0,9.4296875,0.58984375,1,0,0,1,55,215,49,1,,,,,,,,
,,,,,,,,,,,,,FF,,,,,,,,0.8598,,,,,,,,,,,,,,,,,,,,,,6100432a67ad454d0a623a03,61036ea5445ee569e534157f,2021-07-29_23h16.11.051,Simcolourproject_2stim_asymm_v5,2020.2.10,MacIntel,60,61025ae37ef11b136ea224fe,,,,,,,,,2365,-59.36328125,-81.49609375,1,0,0,response5disk,,3,-21.8359375,2.359375,1,0,0,rectangle,-21.8359375,2.359375,1,0,0,-21.8359375,2.359375,1,0,0,1,56,216,76,1,,,,,,,,
,,,,,,,,,,,,,FF,,,,,,,,0.4992,,,,,,,,,,,,,,,,,,,,,,6100432a67ad454d0a623a03,61036ea5445ee569e534157f,2021-07-29_23h16.11.051,Simcolourproject_2stim_asymm_v5,2020.2.10,MacIntel,60,61025ae37ef11b136ea224fe,,,,,,,,,991,47.375,-27.13671875,1,0,0,response3disk,,5,9.1484375,-5.83203125,1,0,0,rectangle,9.1484375,-5.83203125,1,0,0,9.1484375,-5.83203125,1,0,0,1,57,217,0,1,,,,,,,,
,,,,,,,,,,,,,FF,,,,,,,,0.999,,,,,,,,,,,,,,,,,,,,,,6100432a67ad454d0a623a03,61036ea5445ee569e534157f,2021-07-29_23h16.11.051,Simcolourproject_2stim_asymm_v5,2020.2.10,MacIntel,60,61025ae37ef11b136ea224fe,,,,,,,,,4035,-29.37890625,-74.90625,1,0,0,response5disk,,3,-24.453125,-4.62109375,1,0,0,rectangle,-24.453125,-4.62109375,1,0,0,-24.453125,-4.62109375,1,0,0,1,58,218,73,1,,,,,,,,
,,,,,,,,,,,,,FF,,,,,,,,0.5337,,,,,,,,,,,,,,,,,,,,,,6100432a67ad454d0a623a03,61036ea5445ee569e534157f,2021-07-29_23h16.11.051,Simcolourproject_2stim_asymm_v5,2020.2.10,MacIntel,60,61025ae37ef11b136ea224fe,,,,,,,,,4006,27.52734375,-55.0625,1,0,0,response3disk,,4,8.21484375,2.88671875,1,0,0,rectangle,8.21484375,2.88671875,1,0,0,8.21484375,2.88671875,1,0,0,1,59,219,131,1,,,,,,,,
,,,,,,,,,,,,,FF,,,,,,,,0.6507,,,,,,,,,,,,,,,,,,,,,,6100432a67ad454d0a623a03,61036ea5445ee569e534157f,2021-07-29_23h16.11.051,Simcolourproject_2stim_asymm_v5,2020.2.10,MacIntel,60,61025ae37ef11b136ea224fe,,,,,,,,,3737,59.7890625,-32.6328125,1,0,0,response3disk,,5,13.45703125,-5.72265625,1,0,0,rectangle,13.45703125,-5.72265625,1,0,0,13.45703125,-5.72265625,1,0,0,1,60,220,112,1,,,,,,,,
,,,,,,,,,,,,,FF,,,,,,,,0.5667,,,,,,,,,,,,,,,,,,,,,,6100432a67ad454d0a623a03,61036ea5445ee569e534157f,2021-07-29_23h16.11.051,Simcolourproject_2stim_asymm_v5,2020.2.10,MacIntel,60,61025ae37ef11b136ea224fe,,,,,,,,,1827,38.02734375,-68.21875,1,0,0,response3disk,,4,21.234375,-6.8984375,1,0,0,rectangle,21.234375,-6.8984375,1,0,0,21.234375,-6.8984375,1,0,0,1,61,221,129,1,,,,,,,,
,,,,,,,,,,,,,FF,,,,,,,,0.3667,,,,,,,,,,,,,,,,,,,,,,6100432a67ad454d0a623a03,61036ea5445ee569e534157f,2021-07-29_23h16.11.051,Simcolourproject_2stim_asymm_v5,2020.2.10,MacIntel,60,61025ae37ef11b136ea224fe,,,,,,,,,224,61.17578125,-28.07421875,1,0,0,response3disk,,5,5.49609375,-1.87890625,1,0,0,rectangle,5.49609375,-1.87890625,1,0,0,5.49609375,-1.87890625,1,0,0,1,62,222,153,1,,,,,,,,
,,,,,,,,,,,,,FF,,,,,,,,0.3654,,,,,,,,,,,,,,,,,,,,,,6100432a67ad454d0a623a03,61036ea5445ee569e534157f,2021-07-29_23h16.11.051,Simcolourproject_2stim_asymm_v5,2020.2.10,MacIntel,60,61025ae37ef11b136ea224fe,,,,,,,,,2134,45.296875,-76.67578125,1,0,0,response3disk,,4,10.98828125,10.50390625,1,0,0,rectangle,10.98828125,10.50390625,1,0,0,10.98828125,10.50390625,1,0,0,1,63,223,151,1,,,,,,,,
,,,,,,,,,,,,,FF,,,,,,,,0.3654,,,,,,,,,,,,,,,,,,,,,,6100432a67ad454d0a623a03,61036ea5445ee569e534157f,2021-07-29_23h16.11.051,Simcolourproject_2stim_asymm_v5,2020.2.10,MacIntel,60,61025ae37ef11b136ea224fe,,,,,,,,,405,51.5390625,-30.5703125,1,0,0,response3disk,,5,12.203125,2.81640625,1,0,0,rectangle,12.203125,2.81640625,1,0,0,12.203125,2.81640625,1,0,0,1,64,224,62,1,,,,,,,,
,,,,,,,,,,,,,FF,,,,,,,,0.4172,,,,,,,,,,,,,,,,,,,,,,6100432a67ad454d0a623a03,61036ea5445ee569e534157f,2021-07-29_23h16.11.051,Simcolourproject_2stim_asymm_v5,2020.2.10,MacIntel,60,61025ae37ef11b136ea224fe,,,,,,,,,4133,68.86328125,-38.22265625,1,0,0,response3disk,,5,12.9609375,1.87109375,1,0,0,rectangle,77.015625,31.109375,1,0,0,-8.83203125,-7.55078125,1,0,0,1,65,225,63,1,,response1disk_3,TRUE,6,6,"[159,110,88,305,154,198,170,108,72,191,226,312,12,53,226,181,280,198,301,140]",3619.2094,rectangle
,,,,,,,,,,,,,FF,,,,,,,,1.0195,,,,,,,,,,,,,,,,,,,,,,6100432a67ad454d0a623a03,61036ea5445ee569e534157f,2021-07-29_23h16.11.051,Simcolourproject_2stim_asymm_v5,2020.2.10,MacIntel,60,61025ae37ef11b136ea224fe,,,,,,,,,457,35.07421875,-73.984375,1,0,0,response3disk,,4,-12.390625,9.3203125,1,0,0,rectangle,-12.390625,9.3203125,1,0,0,-12.390625,9.3203125,1,0,0,1,66,226,79,1,,,,,,,,
,,,,,,,,,,,,,FF,,,,,,,,0.966,,,,,,,,,,,,,,,,,,,,,,6100432a67ad454d0a623a03,61036ea5445ee569e534157f,2021-07-29_23h16.11.051,Simcolourproject_2stim_asymm_v5,2020.2.10,MacIntel,60,61025ae37ef11b136ea224fe,,,,,,,,,1159,76.7265625,-46.1171875,1,0,0,response3disk,,5,-0.5390625,-5.02734375,1,0,0,rectangle,-0.5390625,-5.02734375,1,0,0,-0.5390625,-5.02734375,1,0,0,1,67,227,91,1,,,,,,,,
,,,,,,,,,,,,,FF,,,,,,,,0.9341,,,,,,,,,,,,,,,,,,,,,,6100432a67ad454d0a623a03,61036ea5445ee569e534157f,2021-07-29_23h16.11.051,Simcolourproject_2stim_asymm_v5,2020.2.10,MacIntel,60,61025ae37ef11b136ea224fe,,,,,,,,,2331,54.69921875,-29.53125,1,0,0,response3disk,,5,8.8125,-3.8046875,1,0,0,rectangle,8.8125,-3.8046875,1,0,0,8.8125,-3.8046875,1,0,0,1,68,228,110,1,,,,,,,,
,,,,,,,,,,,,,FF,,,,,,,,0.4337,,,,,,,,,,,,,,,,,,,,,,6100432a67ad454d0a623a03,61036ea5445ee569e534157f,2021-07-29_23h16.11.051,Simcolourproject_2stim_asymm_v5,2020.2.10,MacIntel,60,61025ae37ef11b136ea224fe,,,,,,,,,2977,64.24609375,-33.7890625,1,0,0,response3disk,,5,9.70703125,5.44921875,1,0,0,rectangle,9.70703125,5.44921875,1,0,0,9.70703125,5.44921875,1,0,0,1,69,229,32,1,,,,,,,,
,,,,,,,,,,,,,FF,,,,,,,,0.7679,,,,,,,,,,,,,,,,,,,,,,6100432a67ad454d0a623a03,61036ea5445ee569e534157f,2021-07-29_23h16.11.051,Simcolourproject_2stim_asymm_v5,2020.2.10,MacIntel,60,61025ae37ef11b136ea224fe,,,,,,,,,3109,46.98046875,-65.34765625,1,0,0,response3disk,,4,6.3671875,11.8359375,1,0,0,rectangle,6.3671875,11.8359375,1,0,0,6.3671875,11.8359375,1,0,0,1,70,230,122,1,,,,,,,,
,,,,,,,,,,,,,FF,,,,,,,,0.4325,,,,,,,,,,,,,,,,,,,,,,6100432a67ad454d0a623a03,61036ea5445ee569e534157f,2021-07-29_23h16.11.051,Simcolourproject_2stim_asymm_v5,2020.2.10,MacIntel,60,61025ae37ef11b136ea224fe,,,,,,,,,3080,73.859375,-31.30078125,1,0,0,response3disk,,5,11.14453125,10.2578125,1,0,0,rectangle,11.14453125,10.2578125,1,0,0,11.14453125,10.2578125,1,0,0,1,71,231,149,1,,,,,,,,
,,,,,,,,,,,,,FF,,,,,,,,0.8518,,,,,,,,,,,,,,,,,,,,,,6100432a67ad454d0a623a03,61036ea5445ee569e534157f,2021-07-29_23h16.11.051,Simcolourproject_2stim_asymm_v5,2020.2.10,MacIntel,60,61025ae37ef11b136ea224fe,,,,,,,,,1295,-31.0390625,-78.37890625,1,0,0,response5disk,,3,-12.484375,-7.83984375,1,0,0,rectangle,-12.484375,-7.83984375,1,0,0,-12.484375,-7.83984375,1,0,0,1,72,232,159,1,,,,,,,,
,,,,,,,,,,,,,FF,,,,,,,,0.6845,,,,,,,,,,,,,,,,,,,,,,6100432a67ad454d0a623a03,61036ea5445ee569e534157f,2021-07-29_23h16.11.051,Simcolourproject_2stim_asymm_v5,2020.2.10,MacIntel,60,61025ae37ef11b136ea224fe,,,,,,,,,3304,38.9765625,-80.5859375,1,0,0,response3disk,,4,18.80078125,-7.640625,1,0,0,rectangle,18.80078125,-7.640625,1,0,0,18.80078125,-7.640625,1,0,0,1,73,233,41,1,,,,,,,,
,,,,,,,,,,,,,FF,,,,,,,,0.6332,,,,,,,,,,,,,,,,,,,,,,6100432a67ad454d0a623a03,61036ea5445ee569e534157f,2021-07-29_23h16.11.051,Simcolourproject_2stim_asymm_v5,2020.2.10,MacIntel,60,61025ae37ef11b136ea224fe,,,,,,,,,3343,-34.20703125,-49.8828125,1,0,0,response5disk,,3,-17.34375,-4.87890625,1,0,0,rectangle,-17.34375,-4.87890625,1,0,0,-17.34375,-4.87890625,1,0,0,1,74,234,69,1,,,,,,,,
,,,,,,,,,,,,,FF,,,,,,,,0.7999,,,,,,,,,,,,,,,,,,,,,,6100432a67ad454d0a623a03,61036ea5445ee569e534157f,2021-07-29_23h16.11.051,Simcolourproject_2stim_asymm_v5,2020.2.10,MacIntel,60,61025ae37ef11b136ea224fe,,,,,,,,,517,76.09375,-34.52734375,1,0,0,response3disk,,5,19.0703125,-1.12890625,1,0,0,rectangle,19.0703125,-1.12890625,1,0,0,19.0703125,-1.12890625,1,0,0,1,75,235,136,1,,,,,,,,
,,,,,,,,,,,,,FF,,,,,,,,0.6008,,,,,,,,,,,,,,,,,,,,,,6100432a67ad454d0a623a03,61036ea5445ee569e534157f,2021-07-29_23h16.11.051,Simcolourproject_2stim_asymm_v5,2020.2.10,MacIntel,60,61025ae37ef11b136ea224fe,,,,,,,,,4098,69.00390625,35.359375,1,0,0,response1disk,,6,3.02734375,-8.34765625,1,0,0,rectangle,3.02734375,-8.34765625,1,0,0,3.02734375,-8.34765625,1,0,0,1,76,236,117,1,,,,,,,,
,,,,,,,,,,,,,FF,,,,,,,,0.6654,,,,,,,,,,,,,,,,,,,,,,6100432a67ad454d0a623a03,61036ea5445ee569e534157f,2021-07-29_23h16.11.051,Simcolourproject_2stim_asymm_v5,2020.2.10,MacIntel,60,61025ae37ef11b136ea224fe,,,,,,,,,4119,-37.1171875,-54.26171875,1,0,0,response5disk,,3,-10.2734375,9.2734375,1,0,0,rectangle,-10.2734375,9.2734375,1,0,0,-10.2734375,9.2734375,1,0,0,1,77,237,146,1,,,,,,,,
,,,,,,,,,,,,,FF,,,,,,,,0.6662,,,,,,,,,,,,,,,,,,,,,,6100432a67ad454d0a623a03,61036ea5445ee569e534157f,2021-07-29_23h16.11.051,Simcolourproject_2stim_asymm_v5,2020.2.10,MacIntel,60,61025ae37ef11b136ea224fe,,,,,,,,,1753,-52.44921875,-71.640625,1,0,0,response5disk,,3,-21.96875,-1.828125,1,0,0,rectangle,-21.96875,-1.828125,1,0,0,-21.96875,-1.828125,1,0,0,1,78,238,125,1,,,,,,,,
,,,,,,,,,,,,,FF,,,,,,,,0.6509,,,,,,,,,,,,,,,,,,,,,,6100432a67ad454d0a623a03,61036ea5445ee569e534157f,2021-07-29_23h16.11.051,Simcolourproject_2stim_asymm_v5,2020.2.10,MacIntel,60,61025ae37ef11b136ea224fe,,,,,,,,,3016,67.58984375,-28.28515625,1,0,0,response3disk,,5,17.12109375,3.3359375,1,0,0,rectangle,17.12109375,3.3359375,1,0,0,17.12109375,3.3359375,1,0,0,1,79,239,37,1,,,,,,,,
,,,,,,,,,,,,,FF,,,,,,,,0.7982,,,,,,,,,,,,,,,,,,,,,,6100432a67ad454d0a623a03,61036ea5445ee569e534157f,2021-07-29_23h16.11.051,Simcolourproject_2stim_asymm_v5,2020.2.10,MacIntel,60,61025ae37ef11b136ea224fe,,,,,,,,,4106,41.109375,-76.5390625,1,0,0,response3disk,,4,-3.09375,6.34375,1,0,0,rectangle,-3.09375,6.34375,1,0,0,-3.09375,6.34375,1,0,0,1,80,240,114,1,,,,,,,,
,,,,,,,,,,,,,FF,,,,,,,,0.6829,,,,,,,,,,,,,,,,,,,,,,6100432a67ad454d0a623a03,61036ea5445ee569e534157f,2021-07-29_23h16.11.051,Simcolourproject_2stim_asymm_v5,2020.2.10,MacIntel,60,61025ae37ef11b136ea224fe,,,,,,,,,1038,57.7578125,28.8828125,1,0,0,response1disk,,6,-3.4375,-0.14453125,1,0,0,rectangle,-3.4375,-0.14453125,1,0,0,-3.4375,-0.14453125,1,0,0,1,81,241,100,1,,,,,,,,
,,,,,,,,,,,,,FF,,,,,,,,0.6338,,,,,,,,,,,,,,,,,,,,,,6100432a67ad454d0a623a03,61036ea5445ee569e534157f,2021-07-29_23h16.11.051,Simcolourproject_2stim_asymm_v5,2020.2.10,MacIntel,60,61025ae37ef11b136ea224fe,,,,,,,,,1272,65.82421875,-29.30859375,1,0,0,response3disk,,5,3.42578125,9.2890625,1,0,0,rectangle,3.42578125,9.2890625,1,0,0,3.42578125,9.2890625,1,0,0,1,82,242,74,1,,,,,,,,
,,,,,,,,,,,,,FF,,,,,,,,0.3668,,,,,,,,,,,,,,,,,,,,,,6100432a67ad454d0a623a03,61036ea5445ee569e534157f,2021-07-29_23h16.11.051,Simcolourproject_2stim_asymm_v5,2020.2.10,MacIntel,60,61025ae37ef11b136ea224fe,,,,,,,,,1004,53.59375,43.67578125,1,0,0,response1disk,,6,-3.515625,-2.73828125,1,0,0,rectangle,-3.515625,-2.73828125,1,0,0,-3.515625,-2.73828125,1,0,0,1,83,243,8,1,,,,,,,,
,,,,,,,,,,,,,FF,,,,,,,,0.5828,,,,,,,,,,,,,,,,,,,,,,6100432a67ad454d0a623a03,61036ea5445ee569e534157f,2021-07-29_23h16.11.051,Simcolourproject_2stim_asymm_v5,2020.2.10,MacIntel,60,61025ae37ef11b136ea224fe,,,,,,,,,1234,35.68359375,-80.15625,1,0,0,response3disk,,4,13.14453125,-9.5703125,1,0,0,rectangle,13.14453125,-9.5703125,1,0,0,13.14453125,-9.5703125,1,0,0,1,84,244,51,1,,,,,,,,
,,,,,,,,,,,,,FF,,,,,,,,0.5666,,,,,,,,,,,,,,,,,,,,,,6100432a67ad454d0a623a03,61036ea5445ee569e534157f,2021-07-29_23h16.11.051,Simcolourproject_2stim_asymm_v5,2020.2.10,MacIntel,60,61025ae37ef11b136ea224fe,,,,,,,,,266,33.70703125,-73.58203125,1,0,0,response3disk,,4,9.4296875,-4.56640625,1,0,0,rectangle,9.4296875,-4.56640625,1,0,0,9.4296875,-4.56640625,1,0,0,1,85,245,55,1,,,,,,,,
,,,,,,,,,,,,,FF,,,,,,,,0.4829,,,,,,,,,,,,,,,,,,,,,,6100432a67ad454d0a623a03,61036ea5445ee569e534157f,2021-07-29_23h16.11.051,Simcolourproject_2stim_asymm_v5,2020.2.10,MacIntel,60,61025ae37ef11b136ea224fe,,,,,,,,,633,27.1875,-50.546875,1,0,0,response3disk,,4,4.828125,7.375,1,0,0,rectangle,4.828125,7.375,1,0,0,4.828125,7.375,1,0,0,1,86,246,59,1,,,,,,,,
,,,,,,,,,,,,,FF,,,,,,,,0.5177,,,,,,,,,,,,,,,,,,,,,,6100432a67ad454d0a623a03,61036ea5445ee569e534157f,2021-07-29_23h16.11.051,Simcolourproject_2stim_asymm_v5,2020.2.10,MacIntel,60,61025ae37ef11b136ea224fe,,,,,,,,,347,-36.1171875,-64.1328125,1,0,0,response5disk,,3,-22.80859375,4.47265625,1,0,0,rectangle,-22.80859375,4.47265625,1,0,0,-22.80859375,4.47265625,1,0,0,1,87,247,94,1,,,,,,,,
