key_resp.keys,key_resp.rt,key_resp_14.keys,key_resp_14.rt,key_resp_15.keys,key_resp_15.rt,key_resp_17.keys,key_resp_17.rt,key_resp_9.keys,key_resp_9.rt,key_resp_10.keys,key_resp_10.rt,practice_comparison,Ecc,mouse_5.x,mouse_5.y,mouse_5.leftButton,mouse_5.midButton,mouse_5.rightButton,mouse_5.clicked_name,pracsimilarity,response_time,mouse_10.x,mouse_10.y,mouse_10.leftButton,mouse_10.midButton,mouse_10.rightButton,mouse_10.clicked_name,mouse_7.x,mouse_7.y,mouse_7.leftButton,mouse_7.midButton,mouse_7.rightButton,mouse_6.x,mouse_6.y,mouse_6.leftButton,mouse_6.midButton,mouse_6.rightButton,duringprac.thisRepN,duringprac.thisTrialN,duringprac.thisN,duringprac.thisIndex,duringprac.ran,participant,session,date,expName,psychopyVersion,OS,frameRate,study_id,mouse_7.clicked_name,catchpracsimilarity,catch_response_time,catchnumberprac,catchtrialorderprac,mouse_6.clicked_name,key_resp_22.keys,key_resp_22.rt,realcomparison,mouse.x,mouse.y,mouse.leftButton,mouse.midButton,mouse.rightButton,mouse.clicked_name,Colour2,similarity,mouse_2.x,mouse_2.y,mouse_2.leftButton,mouse_2.midButton,mouse_2.rightButton,mouse_2.clicked_name,mouse_3.x,mouse_3.y,mouse_3.leftButton,mouse_3.midButton,mouse_3.rightButton,mouse_11.x,mouse_11.y,mouse_11.leftButton,mouse_11.midButton,mouse_11.rightButton,trials_2.thisRepN,trials_2.thisTrialN,trials_2.thisN,trials_2.thisIndex,trials_2.ran,Colour1,mouse_3.clicked_name,catchornah,catchsimilarity,catchnumber,catchtrialorder,catchRT,mouse_11.clicked_name
space,0.1517,space,12.2747,space,6.633,space,8.1275,space,1.1686,space,2.8747,29,PF,-54.0859375,24.94140625,1,0,0,response7disk_5,1,3.0259,13.265625,-3.4375,1,0,0,rectangle_8,13.265625,-3.4375,1,0,0,13.265625,-3.4375,1,0,0,0,0,0,2,1,6100eac72b0f00b188e9a386,6103699d8b767ec6c339552a,2021-07-29_19h54.04.772,Simcolourproject_2stim_asymm_v5,2020.2.10,MacIntel,60,61025ae37ef11b136ea224fe,,,,,,,,,,,,,,,,,,,,,,,,,,,,,,,,,,,,,,,,,,,,,,
,,,,,,,,,,,,52,FF,-22.65234375,-46.1015625,1,0,0,response5disk_5,3,1.671,-2.27734375,5.51953125,1,0,0,rectangle_8,-27.5703125,69.2578125,1,0,0,-2.63671875,10.359375,1,0,0,0,1,1,3,1,6100eac72b0f00b188e9a386,6103699d8b767ec6c339552a,2021-07-29_19h54.04.772,Simcolourproject_2stim_asymm_v5,2020.2.10,MacIntel,60,61025ae37ef11b136ea224fe,response7disk_7,0,3.5473,0,"[2,5]",rectangle_4,,,,,,,,,,,,,,,,,,,,,,,,,,,,,,,,,,,,,,,,
,,,,,,,,,,,,4,PF,-34.796875,75.046875,1,0,0,response7disk_5,0,3.8928,2.03515625,-11.4453125,1,0,0,rectangle_8,2.03515625,-11.4453125,1,0,0,2.03515625,-11.4453125,1,0,0,0,2,2,4,1,6100eac72b0f00b188e9a386,6103699d8b767ec6c339552a,2021-07-29_19h54.04.772,Simcolourproject_2stim_asymm_v5,2020.2.10,MacIntel,60,61025ae37ef11b136ea224fe,,,,,,,,,,,,,,,,,,,,,,,,,,,,,,,,,,,,,,,,,,,,,,
,,,,,,,,,,,,148,FF,-48.95703125,-30.7734375,1,0,0,response5disk_5,2,5.4322,-6.3125,-3.328125,1,0,0,rectangle_8,-6.3125,-3.328125,1,0,0,-6.3125,-3.328125,1,0,0,0,3,3,5,1,6100eac72b0f00b188e9a386,6103699d8b767ec6c339552a,2021-07-29_19h54.04.772,Simcolourproject_2stim_asymm_v5,2020.2.10,MacIntel,60,61025ae37ef11b136ea224fe,,,,,,,,,,,,,,,,,,,,,,,,,,,,,,,,,,,,,,,,,,,,,,
,,,,,,,,,,,,44,PF,46.61328125,-18.5390625,1,0,0,response3disk_5,5,2.0877,4.6796875,-7.08203125,1,0,0,rectangle_8,-24.20703125,64.42578125,1,0,0,13.49609375,-8.0859375,1,0,0,0,4,4,6,1,6100eac72b0f00b188e9a386,6103699d8b767ec6c339552a,2021-07-29_19h54.04.772,Simcolourproject_2stim_asymm_v5,2020.2.10,MacIntel,60,61025ae37ef11b136ea224fe,response7disk_7,0,2.3306,0,"[2,5]",rectangle_4,,,,,,,,,,,,,,,,,,,,,,,,,,,,,,,,,,,,,,,,
,,,,,,,,,,,,77,FF,67.73828125,31.59375,1,0,0,response1disk_5,6,4.7966,3.73046875,-8.125,1,0,0,rectangle_8,3.73046875,-8.125,1,0,0,3.73046875,-8.125,1,0,0,0,5,5,0,1,6100eac72b0f00b188e9a386,6103699d8b767ec6c339552a,2021-07-29_19h54.04.772,Simcolourproject_2stim_asymm_v5,2020.2.10,MacIntel,60,61025ae37ef11b136ea224fe,,,,,,,,,,,,,,,,,,,,,,,,,,,,,,,,,,,,,,,,,,,,,,
,,,,,,,,,,,,119,PF,16.8515625,-59.13671875,1,0,0,response3disk_5,4,2.5792,0.125,-8.51953125,1,0,0,rectangle_8,0.125,-8.51953125,1,0,0,0.125,-8.51953125,1,0,0,0,6,6,1,1,6100eac72b0f00b188e9a386,6103699d8b767ec6c339552a,2021-07-29_19h54.04.772,Simcolourproject_2stim_asymm_v5,2020.2.10,MacIntel,60,61025ae37ef11b136ea224fe,,,,,,,,,,,,,,,,,,,,,,,,,,,,,,,,,,,,,,,,,,,,,,
,,,,,,,,,,,,,FF,,,,,,,,3.6861,,,,,,,,,,,,,,,,,,,,,,6100eac72b0f00b188e9a386,6103699d8b767ec6c339552a,2021-07-29_19h54.04.772,Simcolourproject_2stim_asymm_v5,2020.2.10,MacIntel,60,61025ae37ef11b136ea224fe,,,,,,,space,2.1172,1296,-36.78125,-57.7109375,1,0,0,response5disk,,3,2.66015625,-2,1,0,0,rectangle,2.66015625,-2,1,0,0,2.66015625,-2,1,0,0,0,0,0,21,1,,,,,,,,
,,,,,,,,,,,,,FF,,,,,,,,3.8769,,,,,,,,,,,,,,,,,,,,,,6100eac72b0f00b188e9a386,6103699d8b767ec6c339552a,2021-07-29_19h54.04.772,Simcolourproject_2stim_asymm_v5,2020.2.10,MacIntel,60,61025ae37ef11b136ea224fe,,,,,,,,,2719,-49,-25.88671875,1,0,0,response5disk,,2,1.05078125,6.08984375,1,0,0,rectangle,1.05078125,6.08984375,1,0,0,1.05078125,6.08984375,1,0,0,0,1,1,63,1,,,,,,,,
,,,,,,,,,,,,,FF,,,,,,,,2.5917,,,,,,,,,,,,,,,,,,,,,,6100eac72b0f00b188e9a386,6103699d8b767ec6c339552a,2021-07-29_19h54.04.772,Simcolourproject_2stim_asymm_v5,2020.2.10,MacIntel,60,61025ae37ef11b136ea224fe,,,,,,,,,1343,63.39453125,-27.28515625,1,0,0,response3disk,,5,3.65625,2.0859375,1,0,0,rectangle,3.65625,2.0859375,1,0,0,3.65625,2.0859375,1,0,0,0,2,2,49,1,,,,,,,,
,,,,,,,,,,,,,FF,,,,,,,,1.6213,,,,,,,,,,,,,,,,,,,,,,6100eac72b0f00b188e9a386,6103699d8b767ec6c339552a,2021-07-29_19h54.04.772,Simcolourproject_2stim_asymm_v5,2020.2.10,MacIntel,60,61025ae37ef11b136ea224fe,,,,,,,,,1230,33.84765625,-62.6015625,1,0,0,response3disk,,4,1.8671875,0.1328125,1,0,0,rectangle,1.8671875,0.1328125,1,0,0,1.8671875,0.1328125,1,0,0,0,3,3,17,1,,,,,,,,
,,,,,,,,,,,,,FF,,,,,,,,3.3612,,,,,,,,,,,,,,,,,,,,,,6100eac72b0f00b188e9a386,6103699d8b767ec6c339552a,2021-07-29_19h54.04.772,Simcolourproject_2stim_asymm_v5,2020.2.10,MacIntel,60,61025ae37ef11b136ea224fe,,,,,,,,,3630,-59.86328125,19.07421875,1,0,0,response7disk,,1,17.828125,-4.76171875,1,0,0,rectangle,17.828125,-4.76171875,1,0,0,17.828125,-4.76171875,1,0,0,0,4,4,27,1,,,,,,,,
,,,,,,,,,,,,,FF,,,,,,,,6.2004,,,,,,,,,,,,,,,,,,,,,,6100eac72b0f00b188e9a386,6103699d8b767ec6c339552a,2021-07-29_19h54.04.772,Simcolourproject_2stim_asymm_v5,2020.2.10,MacIntel,60,61025ae37ef11b136ea224fe,,,,,,,,,3815,-46.58984375,-23.43359375,1,0,0,response5disk,,2,-8.296875,-3.2109375,1,0,0,rectangle,-8.296875,-3.2109375,1,0,0,-8.296875,-3.2109375,1,0,0,0,5,5,24,1,,,,,,,,
,,,,,,,,,,,,,FF,,,,,,,,2.1387,,,,,,,,,,,,,,,,,,,,,,6100eac72b0f00b188e9a386,6103699d8b767ec6c339552a,2021-07-29_19h54.04.772,Simcolourproject_2stim_asymm_v5,2020.2.10,MacIntel,60,61025ae37ef11b136ea224fe,,,,,,,,,4257,29.1640625,63.17578125,1,0,0,response1disk,,7,5.765625,-6.69921875,1,0,0,rectangle,5.765625,-6.69921875,1,0,0,5.765625,-6.69921875,1,0,0,0,6,6,72,1,,,,,,,,
,,,,,,,,,,,,,FF,,,,,,,,2.1744,,,,,,,,,,,,,,,,,,,,,,6100eac72b0f00b188e9a386,6103699d8b767ec6c339552a,2021-07-29_19h54.04.772,Simcolourproject_2stim_asymm_v5,2020.2.10,MacIntel,60,61025ae37ef11b136ea224fe,,,,,,,,,3173,27.046875,-62.01171875,1,0,0,response3disk,,4,2.9765625,6,1,0,0,rectangle,2.9765625,6,1,0,0,2.9765625,6,1,0,0,0,7,7,89,1,,,,,,,,
,,,,,,,,,,,,,FF,,,,,,,,1.0859,,,,,,,,,,,,,,,,,,,,,,6100eac72b0f00b188e9a386,6103699d8b767ec6c339552a,2021-07-29_19h54.04.772,Simcolourproject_2stim_asymm_v5,2020.2.10,MacIntel,60,61025ae37ef11b136ea224fe,,,,,,,,,1790,22.2421875,-57.77734375,1,0,0,response3disk,,4,-3.140625,5.96484375,1,0,0,rectangle,-3.140625,5.96484375,1,0,0,-3.140625,5.96484375,1,0,0,0,8,8,122,1,,,,,,,,
,,,,,,,,,,,,,FF,,,,,,,,1.6721,,,,,,,,,,,,,,,,,,,,,,6100eac72b0f00b188e9a386,6103699d8b767ec6c339552a,2021-07-29_19h54.04.772,Simcolourproject_2stim_asymm_v5,2020.2.10,MacIntel,60,61025ae37ef11b136ea224fe,,,,,,,,,854,58.81640625,-29.17578125,1,0,0,response3disk,,5,6.86328125,-5.015625,1,0,0,rectangle,6.86328125,-5.015625,1,0,0,6.86328125,-5.015625,1,0,0,0,9,9,147,1,,,,,,,,
,,,,,,,,,,,,,FF,,,,,,,,1.3218,,,,,,,,,,,,,,,,,,,,,,6100eac72b0f00b188e9a386,6103699d8b767ec6c339552a,2021-07-29_19h54.04.772,Simcolourproject_2stim_asymm_v5,2020.2.10,MacIntel,60,61025ae37ef11b136ea224fe,,,,,,,,,2434,14.375,-70.42578125,1,0,0,response3disk,,4,-5.2265625,-0.41015625,1,0,0,rectangle,-5.2265625,-0.41015625,1,0,0,-5.2265625,-0.41015625,1,0,0,0,10,10,112,1,,,,,,,,
,,,,,,,,,,,,,FF,,,,,,,,1.2366,,,,,,,,,,,,,,,,,,,,,,6100eac72b0f00b188e9a386,6103699d8b767ec6c339552a,2021-07-29_19h54.04.772,Simcolourproject_2stim_asymm_v5,2020.2.10,MacIntel,60,61025ae37ef11b136ea224fe,,,,,,,,,144,62.48828125,11.57421875,1,0,0,response1disk,,6,11.7890625,-8.9296875,1,0,0,rectangle,11.7890625,-8.9296875,1,0,0,11.7890625,-8.9296875,1,0,0,0,11,11,142,1,,,,,,,,
,,,,,,,,,,,,,FF,,,,,,,,1.6868,,,,,,,,,,,,,,,,,,,,,,6100eac72b0f00b188e9a386,6103699d8b767ec6c339552a,2021-07-29_19h54.04.772,Simcolourproject_2stim_asymm_v5,2020.2.10,MacIntel,60,61025ae37ef11b136ea224fe,,,,,,,,,1224,-31.8515625,-70.09765625,1,0,0,response5disk,,3,10.29296875,-3.3984375,1,0,0,rectangle,10.29296875,-3.3984375,1,0,0,10.29296875,-3.3984375,1,0,0,0,12,12,130,1,,,,,,,,
,,,,,,,,,,,,,FF,,,,,,,,1.0031,,,,,,,,,,,,,,,,,,,,,,6100eac72b0f00b188e9a386,6103699d8b767ec6c339552a,2021-07-29_19h54.04.772,Simcolourproject_2stim_asymm_v5,2020.2.10,MacIntel,60,61025ae37ef11b136ea224fe,,,,,,,,,460,51.0625,-22.69921875,1,0,0,response3disk,,5,6.8125,3.640625,1,0,0,rectangle,6.8125,3.640625,1,0,0,6.8125,3.640625,1,0,0,0,13,13,50,1,,,,,,,,
,,,,,,,,,,,,,FF,,,,,,,,2.5236,,,,,,,,,,,,,,,,,,,,,,6100eac72b0f00b188e9a386,6103699d8b767ec6c339552a,2021-07-29_19h54.04.772,Simcolourproject_2stim_asymm_v5,2020.2.10,MacIntel,60,61025ae37ef11b136ea224fe,,,,,,,,,2020,29.55859375,63.0078125,1,0,0,response1disk,,7,13.6171875,-9.9375,1,0,0,rectangle,69.0703125,-36.15234375,1,0,0,21.58984375,-3.81640625,1,0,0,0,14,14,98,1,,response3disk_3,TRUE,5,5,"[212,48,24,259,172,281,253,15,34,214,111,203,62,71,267,55,96,315,197,110]",1.9572,rectangle
,,,,,,,,,,,,,FF,,,,,,,,2.4912,,,,,,,,,,,,,,,,,,,,,,6100eac72b0f00b188e9a386,6103699d8b767ec6c339552a,2021-07-29_19h54.04.772,Simcolourproject_2stim_asymm_v5,2020.2.10,MacIntel,60,61025ae37ef11b136ea224fe,,,,,,,,,768,41.95703125,-18.76953125,1,0,0,response3disk,,5,7.23046875,5.140625,1,0,0,rectangle,7.23046875,5.140625,1,0,0,7.23046875,5.140625,1,0,0,0,15,15,67,1,,,,,,,,
,,,,,,,,,,,,,FF,,,,,,,,2.7584,,,,,,,,,,,,,,,,,,,,,,6100eac72b0f00b188e9a386,6103699d8b767ec6c339552a,2021-07-29_19h54.04.772,Simcolourproject_2stim_asymm_v5,2020.2.10,MacIntel,60,61025ae37ef11b136ea224fe,,,,,,,,,2272,32.578125,-61.19140625,1,0,0,response3disk,,4,13.21875,-0.48046875,1,0,0,rectangle,13.21875,-0.48046875,1,0,0,13.21875,-0.48046875,1,0,0,0,16,16,101,1,,,,,,,,
,,,,,,,,,,,,,FF,,,,,,,,3.827,,,,,,,,,,,,,,,,,,,,,,6100eac72b0f00b188e9a386,6103699d8b767ec6c339552a,2021-07-29_19h54.04.772,Simcolourproject_2stim_asymm_v5,2020.2.10,MacIntel,60,61025ae37ef11b136ea224fe,,,,,,,,,1542,-35.08203125,-62.45703125,1,0,0,response5disk,,3,3.42578125,10.828125,1,0,0,rectangle,3.42578125,10.828125,1,0,0,3.42578125,10.828125,1,0,0,0,17,17,121,1,,,,,,,,
,,,,,,,,,,,,,FF,,,,,,,,3.1768,,,,,,,,,,,,,,,,,,,,,,6100eac72b0f00b188e9a386,6103699d8b767ec6c339552a,2021-07-29_19h54.04.772,Simcolourproject_2stim_asymm_v5,2020.2.10,MacIntel,60,61025ae37ef11b136ea224fe,,,,,,,,,2107,53.15625,-27.9765625,1,0,0,response3disk,,5,11.859375,-4.30078125,1,0,0,rectangle,11.859375,-4.30078125,1,0,0,11.859375,-4.30078125,1,0,0,0,18,18,87,1,,,,,,,,
,,,,,,,,,,,,,FF,,,,,,,,2.7743,,,,,,,,,,,,,,,,,,,,,,6100eac72b0f00b188e9a386,6103699d8b767ec6c339552a,2021-07-29_19h54.04.772,Simcolourproject_2stim_asymm_v5,2020.2.10,MacIntel,60,61025ae37ef11b136ea224fe,,,,,,,,,1202,22.875,50.29296875,1,0,0,response1disk,,7,3.7890625,-8.703125,1,0,0,rectangle,3.7890625,-8.703125,1,0,0,3.7890625,-8.703125,1,0,0,0,19,19,93,1,,,,,,,,
,,,,,,,,,,,,,FF,,,,,,,,2.5094,,,,,,,,,,,,,,,,,,,,,,6100eac72b0f00b188e9a386,6103699d8b767ec6c339552a,2021-07-29_19h54.04.772,Simcolourproject_2stim_asymm_v5,2020.2.10,MacIntel,60,61025ae37ef11b136ea224fe,,,,,,,,,2954,-33.23828125,-67.09375,1,0,0,response5disk,,3,4.98046875,-2.17578125,1,0,0,rectangle,4.98046875,-2.17578125,1,0,0,4.98046875,-2.17578125,1,0,0,0,20,20,99,1,,,,,,,,
,,,,,,,,,,,,,FF,,,,,,,,3.3101,,,,,,,,,,,,,,,,,,,,,,6100eac72b0f00b188e9a386,6103699d8b767ec6c339552a,2021-07-29_19h54.04.772,Simcolourproject_2stim_asymm_v5,2020.2.10,MacIntel,60,61025ae37ef11b136ea224fe,,,,,,,,,658,53.703125,-31.6953125,1,0,0,response3disk,,5,-8.49609375,0.0234375,1,0,0,rectangle,-8.49609375,0.0234375,1,0,0,-8.49609375,0.0234375,1,0,0,0,21,21,55,1,,,,,,,,
,,,,,,,,,,,,,FF,,,,,,,,0.8524,,,,,,,,,,,,,,,,,,,,,,6100eac72b0f00b188e9a386,6103699d8b767ec6c339552a,2021-07-29_19h54.04.772,Simcolourproject_2stim_asymm_v5,2020.2.10,MacIntel,60,61025ae37ef11b136ea224fe,,,,,,,,,961,-51.015625,-25.98046875,1,0,0,response5disk,,2,0.765625,-15.46484375,1,0,0,rectangle,0.765625,-15.46484375,1,0,0,0.765625,-15.46484375,1,0,0,0,22,22,77,1,,,,,,,,
,,,,,,,,,,,,,FF,,,,,,,,2.2044,,,,,,,,,,,,,,,,,,,,,,6100eac72b0f00b188e9a386,6103699d8b767ec6c339552a,2021-07-29_19h54.04.772,Simcolourproject_2stim_asymm_v5,2020.2.10,MacIntel,60,61025ae37ef11b136ea224fe,,,,,,,,,1730,51.79296875,29.765625,1,0,0,response1disk,,6,7.51953125,-16.94921875,1,0,0,rectangle,72.98046875,21.640625,1,0,0,8.484375,-12.98828125,1,0,0,0,23,23,35,1,,response1disk_3,TRUE,6,6,"[212,48,24,259,172,281,253,15,34,214,111,203,62,71,267,55,96,315,197,110]",1.6826,rectangle
,,,,,,,,,,,,,FF,,,,,,,,2.5563,,,,,,,,,,,,,,,,,,,,,,6100eac72b0f00b188e9a386,6103699d8b767ec6c339552a,2021-07-29_19h54.04.772,Simcolourproject_2stim_asymm_v5,2020.2.10,MacIntel,60,61025ae37ef11b136ea224fe,,,,,,,,,1231,35.94140625,-54.20703125,1,0,0,response3disk,,4,19.578125,-13.60546875,1,0,0,rectangle,19.578125,-13.60546875,1,0,0,19.578125,-13.60546875,1,0,0,0,24,24,102,1,,,,,,,,
,,,,,,,,,,,,,FF,,,,,,,,1.0184,,,,,,,,,,,,,,,,,,,,,,6100eac72b0f00b188e9a386,6103699d8b767ec6c339552a,2021-07-29_19h54.04.772,Simcolourproject_2stim_asymm_v5,2020.2.10,MacIntel,60,61025ae37ef11b136ea224fe,,,,,,,,,3464,53.8828125,-18.56640625,1,0,0,response3disk,,5,13.1015625,6.76953125,1,0,0,rectangle,13.1015625,6.76953125,1,0,0,13.1015625,6.76953125,1,0,0,0,25,25,84,1,,,,,,,,
,,,,,,,,,,,,,FF,,,,,,,,1.3707,,,,,,,,,,,,,,,,,,,,,,6100eac72b0f00b188e9a386,6103699d8b767ec6c339552a,2021-07-29_19h54.04.772,Simcolourproject_2stim_asymm_v5,2020.2.10,MacIntel,60,61025ae37ef11b136ea224fe,,,,,,,,,623,-40.15625,-29.4375,1,0,0,response5disk,,2,8.15625,-9.328125,1,0,0,rectangle,8.15625,-9.328125,1,0,0,8.15625,-9.328125,1,0,0,0,26,26,66,1,,,,,,,,
,,,,,,,,,,,,,FF,,,,,,,,2.3564,,,,,,,,,,,,,,,,,,,,,,6100eac72b0f00b188e9a386,6103699d8b767ec6c339552a,2021-07-29_19h54.04.772,Simcolourproject_2stim_asymm_v5,2020.2.10,MacIntel,60,61025ae37ef11b136ea224fe,,,,,,,,,2076,47.1875,-25.77734375,1,0,0,response3disk,,5,13.4375,4.8359375,1,0,0,rectangle,13.4375,4.8359375,1,0,0,13.4375,4.8359375,1,0,0,0,27,27,74,1,,,,,,,,
,,,,,,,,,,,,,FF,,,,,,,,0.8694,,,,,,,,,,,,,,,,,,,,,,6100eac72b0f00b188e9a386,6103699d8b767ec6c339552a,2021-07-29_19h54.04.772,Simcolourproject_2stim_asymm_v5,2020.2.10,MacIntel,60,61025ae37ef11b136ea224fe,,,,,,,,,1777,-41.91015625,-23.16015625,1,0,0,response5disk,,2,-11.625,-5.37109375,1,0,0,rectangle,-11.625,-5.37109375,1,0,0,-11.625,-5.37109375,1,0,0,0,28,28,33,1,,,,,,,,
,,,,,,,,,,,,,FF,,,,,,,,0.6519,,,,,,,,,,,,,,,,,,,,,,6100eac72b0f00b188e9a386,6103699d8b767ec6c339552a,2021-07-29_19h54.04.772,Simcolourproject_2stim_asymm_v5,2020.2.10,MacIntel,60,61025ae37ef11b136ea224fe,,,,,,,,,3770,41.6796875,63.18359375,1,0,0,response1disk,,7,23.3515625,4.34375,1,0,0,rectangle,23.3515625,4.34375,1,0,0,23.3515625,4.34375,1,0,0,0,29,29,155,1,,,,,,,,
,,,,,,,,,,,,,FF,,,,,,,,1.6742,,,,,,,,,,,,,,,,,,,,,,6100eac72b0f00b188e9a386,6103699d8b767ec6c339552a,2021-07-29_19h54.04.772,Simcolourproject_2stim_asymm_v5,2020.2.10,MacIntel,60,61025ae37ef11b136ea224fe,,,,,,,,,2869,37.8671875,-60.67578125,1,0,0,response3disk,,4,10.3515625,-0.84375,1,0,0,rectangle,10.3515625,-0.84375,1,0,0,10.3515625,-0.84375,1,0,0,0,30,30,73,1,,,,,,,,
,,,,,,,,,,,,,FF,,,,,,,,2.6577,,,,,,,,,,,,,,,,,,,,,,6100eac72b0f00b188e9a386,6103699d8b767ec6c339552a,2021-07-29_19h54.04.772,Simcolourproject_2stim_asymm_v5,2020.2.10,MacIntel,60,61025ae37ef11b136ea224fe,,,,,,,,,770,49.1875,39.1015625,1,0,0,response1disk,,6,5.37109375,-3.3984375,1,0,0,rectangle,5.37109375,-3.3984375,1,0,0,5.37109375,-3.3984375,1,0,0,0,31,31,31,1,,,,,,,,
,,,,,,,,,,,,,FF,,,,,,,,1.0517,,,,,,,,,,,,,,,,,,,,,,6100eac72b0f00b188e9a386,6103699d8b767ec6c339552a,2021-07-29_19h54.04.772,Simcolourproject_2stim_asymm_v5,2020.2.10,MacIntel,60,61025ae37ef11b136ea224fe,,,,,,,,,3019,-39.4296875,-21.01953125,1,0,0,response5disk,,2,4.44921875,1.79296875,1,0,0,rectangle,4.44921875,1.79296875,1,0,0,4.44921875,1.79296875,1,0,0,0,32,32,113,1,,,,,,,,
,,,,,,,,,,,,,FF,,,,,,,,2.9917,,,,,,,,,,,,,,,,,,,,,,6100eac72b0f00b188e9a386,6103699d8b767ec6c339552a,2021-07-29_19h54.04.772,Simcolourproject_2stim_asymm_v5,2020.2.10,MacIntel,60,61025ae37ef11b136ea224fe,,,,,,,,,3245,-29.76953125,66.28515625,1,0,0,response7disk,,0,9.49609375,3.6953125,1,0,0,rectangle,-60.35546875,28.16796875,1,0,0,-5.13671875,5.3515625,1,0,0,0,33,33,153,1,,response7disk_3,TRUE,1,1,"[212,48,24,259,172,281,253,15,34,214,111,203,62,71,267,55,96,315,197,110]",1.5529,rectangle
,,,,,,,,,,,,,FF,,,,,,,,1.9552,,,,,,,,,,,,,,,,,,,,,,6100eac72b0f00b188e9a386,6103699d8b767ec6c339552a,2021-07-29_19h54.04.772,Simcolourproject_2stim_asymm_v5,2020.2.10,MacIntel,60,61025ae37ef11b136ea224fe,,,,,,,,,2839,-46.12890625,-25.078125,1,0,0,response5disk,,2,9.46484375,-1.26953125,1,0,0,rectangle,9.46484375,-1.26953125,1,0,0,9.46484375,-1.26953125,1,0,0,0,34,34,141,1,,,,,,,,
,,,,,,,,,,,,,FF,,,,,,,,1.589,,,,,,,,,,,,,,,,,,,,,,6100eac72b0f00b188e9a386,6103699d8b767ec6c339552a,2021-07-29_19h54.04.772,Simcolourproject_2stim_asymm_v5,2020.2.10,MacIntel,60,61025ae37ef11b136ea224fe,,,,,,,,,3374,33.2734375,-69.77734375,1,0,0,response3disk,,4,-1.37890625,-1.0546875,1,0,0,rectangle,-1.37890625,-1.0546875,1,0,0,-1.37890625,-1.0546875,1,0,0,0,35,35,37,1,,,,,,,,
,,,,,,,,,,,,,FF,,,,,,,,0.9523,,,,,,,,,,,,,,,,,,,,,,6100eac72b0f00b188e9a386,6103699d8b767ec6c339552a,2021-07-29_19h54.04.772,Simcolourproject_2stim_asymm_v5,2020.2.10,MacIntel,60,61025ae37ef11b136ea224fe,,,,,,,,,176,36.94140625,63.2265625,1,0,0,response1disk,,7,25.390625,-2.015625,1,0,0,rectangle,25.390625,-2.015625,1,0,0,25.390625,-2.015625,1,0,0,0,36,36,114,1,,,,,,,,
,,,,,,,,,,,,,FF,,,,,,,,1.0865,,,,,,,,,,,,,,,,,,,,,,6100eac72b0f00b188e9a386,6103699d8b767ec6c339552a,2021-07-29_19h54.04.772,Simcolourproject_2stim_asymm_v5,2020.2.10,MacIntel,60,61025ae37ef11b136ea224fe,,,,,,,,,1623,44.7578125,-27.08984375,1,0,0,response3disk,,5,11.15234375,-8.65234375,1,0,0,rectangle,11.15234375,-8.65234375,1,0,0,11.15234375,-8.65234375,1,0,0,0,37,37,32,1,,,,,,,,
,,,,,,,,,,,,,FF,,,,,,,,1.5202,,,,,,,,,,,,,,,,,,,,,,6100eac72b0f00b188e9a386,6103699d8b767ec6c339552a,2021-07-29_19h54.04.772,Simcolourproject_2stim_asymm_v5,2020.2.10,MacIntel,60,61025ae37ef11b136ea224fe,,,,,,,,,1734,-42.40625,58.2109375,1,0,0,response7disk,,0,20.875,9.14453125,1,0,0,rectangle,20.875,9.14453125,1,0,0,20.875,9.14453125,1,0,0,0,38,38,117,1,,,,,,,,
,,,,,,,,,,,,,FF,,,,,,,,1.3698,,,,,,,,,,,,,,,,,,,,,,6100eac72b0f00b188e9a386,6103699d8b767ec6c339552a,2021-07-29_19h54.04.772,Simcolourproject_2stim_asymm_v5,2020.2.10,MacIntel,60,61025ae37ef11b136ea224fe,,,,,,,,,925,-29.7890625,-61.890625,1,0,0,response5disk,,3,-5.43359375,-15.671875,1,0,0,rectangle,-5.43359375,-15.671875,1,0,0,-5.43359375,-15.671875,1,0,0,0,39,39,109,1,,,,,,,,
,,,,,,,,,,,,,FF,,,,,,,,1.0862,,,,,,,,,,,,,,,,,,,,,,6100eac72b0f00b188e9a386,6103699d8b767ec6c339552a,2021-07-29_19h54.04.772,Simcolourproject_2stim_asymm_v5,2020.2.10,MacIntel,60,61025ae37ef11b136ea224fe,,,,,,,,,613,53.125,26.94921875,1,0,0,response1disk,,6,9.2734375,1.70703125,1,0,0,rectangle,9.2734375,1.70703125,1,0,0,9.2734375,1.70703125,1,0,0,0,40,40,41,1,,,,,,,,
,,,,,,,,,,,,,FF,,,,,,,,0.7843,,,,,,,,,,,,,,,,,,,,,,6100eac72b0f00b188e9a386,6103699d8b767ec6c339552a,2021-07-29_19h54.04.772,Simcolourproject_2stim_asymm_v5,2020.2.10,MacIntel,60,61025ae37ef11b136ea224fe,,,,,,,,,2762,40.25390625,14.44140625,1,0,0,response1disk,,6,14.54296875,-6.6953125,1,0,0,rectangle,14.54296875,-6.6953125,1,0,0,14.54296875,-6.6953125,1,0,0,0,41,41,6,1,,,,,,,,
,,,,,,,,,,,,,FF,,,,,,,,0.802,,,,,,,,,,,,,,,,,,,,,,6100eac72b0f00b188e9a386,6103699d8b767ec6c339552a,2021-07-29_19h54.04.772,Simcolourproject_2stim_asymm_v5,2020.2.10,MacIntel,60,61025ae37ef11b136ea224fe,,,,,,,,,1021,-26.5625,-66.6328125,1,0,0,response5disk,,3,-8.78515625,-11.1328125,1,0,0,rectangle,-8.78515625,-11.1328125,1,0,0,-8.78515625,-11.1328125,1,0,0,0,42,42,140,1,,,,,,,,
,,,,,,,,,,,,,FF,,,,,,,,0.7354,,,,,,,,,,,,,,,,,,,,,,6100eac72b0f00b188e9a386,6103699d8b767ec6c339552a,2021-07-29_19h54.04.772,Simcolourproject_2stim_asymm_v5,2020.2.10,MacIntel,60,61025ae37ef11b136ea224fe,,,,,,,,,458,-52.48046875,18.89453125,1,0,0,response7disk,,1,-6.07421875,-1.7421875,1,0,0,rectangle,-6.07421875,-1.7421875,1,0,0,-6.07421875,-1.7421875,1,0,0,0,43,43,92,1,,,,,,,,
,,,,,,,,,,,,,FF,,,,,,,,0.7684,,,,,,,,,,,,,,,,,,,,,,6100eac72b0f00b188e9a386,6103699d8b767ec6c339552a,2021-07-29_19h54.04.772,Simcolourproject_2stim_asymm_v5,2020.2.10,MacIntel,60,61025ae37ef11b136ea224fe,,,,,,,,,47,45.43359375,-19.21484375,1,0,0,response3disk,,5,9.1015625,6.4609375,1,0,0,rectangle,9.1015625,6.4609375,1,0,0,9.1015625,6.4609375,1,0,0,0,44,44,157,1,,,,,,,,
,,,,,,,,,,,,,FF,,,,,,,,0.6842,,,,,,,,,,,,,,,,,,,,,,6100eac72b0f00b188e9a386,6103699d8b767ec6c339552a,2021-07-29_19h54.04.772,Simcolourproject_2stim_asymm_v5,2020.2.10,MacIntel,60,61025ae37ef11b136ea224fe,,,,,,,,,1954,-43.4609375,-25.25,1,0,0,response5disk,,2,-4.33203125,-7.59765625,1,0,0,rectangle,-4.33203125,-7.59765625,1,0,0,-4.33203125,-7.59765625,1,0,0,0,45,45,85,1,,,,,,,,
,,,,,,,,,,,,,FF,,,,,,,,1.5038,,,,,,,,,,,,,,,,,,,,,,6100eac72b0f00b188e9a386,6103699d8b767ec6c339552a,2021-07-29_19h54.04.772,Simcolourproject_2stim_asymm_v5,2020.2.10,MacIntel,60,61025ae37ef11b136ea224fe,,,,,,,,,3677,-24.83984375,66.66015625,1,0,0,response7disk,,0,3.8671875,8.15625,1,0,0,rectangle,3.8671875,8.15625,1,0,0,3.8671875,8.15625,1,0,0,0,46,46,81,1,,,,,,,,
,,,,,,,,,,,,,FF,,,,,,,,0.9695,,,,,,,,,,,,,,,,,,,,,,6100eac72b0f00b188e9a386,6103699d8b767ec6c339552a,2021-07-29_19h54.04.772,Simcolourproject_2stim_asymm_v5,2020.2.10,MacIntel,60,61025ae37ef11b136ea224fe,,,,,,,,,2790,-45.35546875,-49.359375,1,0,0,response5disk,,3,12.52734375,-0.02734375,1,0,0,rectangle,43.32421875,65.21875,1,0,0,3.6953125,0.21484375,1,0,0,0,47,47,46,1,,response1disk_3,TRUE,7,7,"[212,48,24,259,172,281,253,15,34,214,111,203,62,71,267,55,96,315,197,110]",1.7543,rectangle
,,,,,,,,,,,,,FF,,,,,,,,1.3374,,,,,,,,,,,,,,,,,,,,,,6100eac72b0f00b188e9a386,6103699d8b767ec6c339552a,2021-07-29_19h54.04.772,Simcolourproject_2stim_asymm_v5,2020.2.10,MacIntel,60,61025ae37ef11b136ea224fe,,,,,,,,,159,61.515625,27.67578125,1,0,0,response1disk,,6,16.046875,7.30078125,1,0,0,rectangle,16.046875,7.30078125,1,0,0,16.046875,7.30078125,1,0,0,0,48,48,119,1,,,,,,,,
,,,,,,,,,,,,,FF,,,,,,,,1.47,,,,,,,,,,,,,,,,,,,,,,6100eac72b0f00b188e9a386,6103699d8b767ec6c339552a,2021-07-29_19h54.04.772,Simcolourproject_2stim_asymm_v5,2020.2.10,MacIntel,60,61025ae37ef11b136ea224fe,,,,,,,,,2616,-19.51171875,-60.44140625,1,0,0,response5disk,,3,5.71484375,8.04296875,1,0,0,rectangle,5.71484375,8.04296875,1,0,0,5.71484375,8.04296875,1,0,0,0,49,49,60,1,,,,,,,,
,,,,,,,,,,,,,FF,,,,,,,,0.85,,,,,,,,,,,,,,,,,,,,,,6100eac72b0f00b188e9a386,6103699d8b767ec6c339552a,2021-07-29_19h54.04.772,Simcolourproject_2stim_asymm_v5,2020.2.10,MacIntel,60,61025ae37ef11b136ea224fe,,,,,,,,,1867,55.84765625,-27.11328125,1,0,0,response3disk,,5,21.4140625,-11.80859375,1,0,0,rectangle,21.4140625,-11.80859375,1,0,0,21.4140625,-11.80859375,1,0,0,0,50,50,88,1,,,,,,,,
,,,,,,,,,,,,,FF,,,,,,,,1.0367,,,,,,,,,,,,,,,,,,,,,,6100eac72b0f00b188e9a386,6103699d8b767ec6c339552a,2021-07-29_19h54.04.772,Simcolourproject_2stim_asymm_v5,2020.2.10,MacIntel,60,61025ae37ef11b136ea224fe,,,,,,,,,2785,43.125,17.125,1,0,0,response1disk,,6,6.66796875,-0.015625,1,0,0,rectangle,6.66796875,-0.015625,1,0,0,6.66796875,-0.015625,1,0,0,0,51,51,91,1,,,,,,,,
,,,,,,,,,,,,,FF,,,,,,,,1.4721,,,,,,,,,,,,,,,,,,,,,,6100eac72b0f00b188e9a386,6103699d8b767ec6c339552a,2021-07-29_19h54.04.772,Simcolourproject_2stim_asymm_v5,2020.2.10,MacIntel,60,61025ae37ef11b136ea224fe,,,,,,,,,1005,-19.1484375,-56.2578125,1,0,0,response5disk,,3,24.859375,-4.734375,1,0,0,rectangle,24.859375,-4.734375,1,0,0,24.859375,-4.734375,1,0,0,0,52,52,124,1,,,,,,,,
,,,,,,,,,,,,,FF,,,,,,,,0.8341,,,,,,,,,,,,,,,,,,,,,,6100eac72b0f00b188e9a386,6103699d8b767ec6c339552a,2021-07-29_19h54.04.772,Simcolourproject_2stim_asymm_v5,2020.2.10,MacIntel,60,61025ae37ef11b136ea224fe,,,,,,,,,1987,39.0390625,-22.91015625,1,0,0,response3disk,,5,12.50390625,0.7734375,1,0,0,rectangle,12.50390625,0.7734375,1,0,0,12.50390625,0.7734375,1,0,0,0,53,53,144,1,,,,,,,,
,,,,,,,,,,,,,FF,,,,,,,,0.8187,,,,,,,,,,,,,,,,,,,,,,6100eac72b0f00b188e9a386,6103699d8b767ec6c339552a,2021-07-29_19h54.04.772,Simcolourproject_2stim_asymm_v5,2020.2.10,MacIntel,60,61025ae37ef11b136ea224fe,,,,,,,,,383,49.1953125,-17.828125,1,0,0,response3disk,,5,10.578125,5.16796875,1,0,0,rectangle,66.52734375,-32.73828125,1,0,0,19.19921875,-7.7265625,1,0,0,0,54,54,139,1,,response3disk_3,TRUE,5,5,"[212,48,24,259,172,281,253,15,34,214,111,203,62,71,267,55,96,315,197,110]",1.2367,rectangle
,,,,,,,,,,,,,FF,,,,,,,,0.8533,,,,,,,,,,,,,,,,,,,,,,6100eac72b0f00b188e9a386,6103699d8b767ec6c339552a,2021-07-29_19h54.04.772,Simcolourproject_2stim_asymm_v5,2020.2.10,MacIntel,60,61025ae37ef11b136ea224fe,,,,,,,,,4264,-61.22265625,25.05859375,1,0,0,response7disk,,1,-14.65625,15.41796875,1,0,0,rectangle,-14.65625,15.41796875,1,0,0,-14.65625,15.41796875,1,0,0,0,55,55,136,1,,,,,,,,
,,,,,,,,,,,,,FF,,,,,,,,0.7033,,,,,,,,,,,,,,,,,,,,,,6100eac72b0f00b188e9a386,6103699d8b767ec6c339552a,2021-07-29_19h54.04.772,Simcolourproject_2stim_asymm_v5,2020.2.10,MacIntel,60,61025ae37ef11b136ea224fe,,,,,,,,,539,-43.609375,-17.97265625,1,0,0,response5disk,,2,-9.05859375,-6.6171875,1,0,0,rectangle,-9.05859375,-6.6171875,1,0,0,-9.05859375,-6.6171875,1,0,0,0,56,56,110,1,,,,,,,,
,,,,,,,,,,,,,FF,,,,,,,,0.5857,,,,,,,,,,,,,,,,,,,,,,6100eac72b0f00b188e9a386,6103699d8b767ec6c339552a,2021-07-29_19h54.04.772,Simcolourproject_2stim_asymm_v5,2020.2.10,MacIntel,60,61025ae37ef11b136ea224fe,,,,,,,,,2132,37.22265625,38.90625,1,0,0,response1disk,,7,12.9765625,5.84375,1,0,0,rectangle,12.9765625,5.84375,1,0,0,12.9765625,5.84375,1,0,0,0,57,57,154,1,,,,,,,,
,,,,,,,,,,,,,FF,,,,,,,,0.617,,,,,,,,,,,,,,,,,,,,,,6100eac72b0f00b188e9a386,6103699d8b767ec6c339552a,2021-07-29_19h54.04.772,Simcolourproject_2stim_asymm_v5,2020.2.10,MacIntel,60,61025ae37ef11b136ea224fe,,,,,,,,,4355,48.62890625,-32.296875,1,0,0,response3disk,,5,10.5546875,-16.37890625,1,0,0,rectangle,10.5546875,-16.37890625,1,0,0,10.5546875,-16.37890625,1,0,0,0,58,58,105,1,,,,,,,,
,,,,,,,,,,,,,FF,,,,,,,,0.6677,,,,,,,,,,,,,,,,,,,,,,6100eac72b0f00b188e9a386,6103699d8b767ec6c339552a,2021-07-29_19h54.04.772,Simcolourproject_2stim_asymm_v5,2020.2.10,MacIntel,60,61025ae37ef11b136ea224fe,,,,,,,,,1932,-52.90625,-25.02734375,1,0,0,response5disk,,2,-18.11328125,-9.58984375,1,0,0,rectangle,-18.11328125,-9.58984375,1,0,0,-18.11328125,-9.58984375,1,0,0,0,59,59,10,1,,,,,,,,
,,,,,,,,,,,,,FF,,,,,,,,1.4539,,,,,,,,,,,,,,,,,,,,,,6100eac72b0f00b188e9a386,6103699d8b767ec6c339552a,2021-07-29_19h54.04.772,Simcolourproject_2stim_asymm_v5,2020.2.10,MacIntel,60,61025ae37ef11b136ea224fe,,,,,,,,,1348,-57.48828125,20.359375,1,0,0,response7disk,,1,-10.11328125,9.18359375,1,0,0,rectangle,-10.11328125,9.18359375,1,0,0,-10.11328125,9.18359375,1,0,0,0,60,60,107,1,,,,,,,,
,,,,,,,,,,,,,FF,,,,,,,,0.8521,,,,,,,,,,,,,,,,,,,,,,6100eac72b0f00b188e9a386,6103699d8b767ec6c339552a,2021-07-29_19h54.04.772,Simcolourproject_2stim_asymm_v5,2020.2.10,MacIntel,60,61025ae37ef11b136ea224fe,,,,,,,,,2582,56.06640625,-29.7421875,1,0,0,response3disk,,5,4.80078125,4.0234375,1,0,0,rectangle,61.51171875,-35.5859375,1,0,0,11.53515625,-4.703125,1,0,0,0,61,61,125,1,,response3disk_3,TRUE,5,5,"[212,48,24,259,172,281,253,15,34,214,111,203,62,71,267,55,96,315,197,110]",1.505,rectangle
,,,,,,,,,,,,,FF,,,,,,,,2.3396,,,,,,,,,,,,,,,,,,,,,,6100eac72b0f00b188e9a386,6103699d8b767ec6c339552a,2021-07-29_19h54.04.772,Simcolourproject_2stim_asymm_v5,2020.2.10,MacIntel,60,61025ae37ef11b136ea224fe,,,,,,,,,3591,-29.44140625,76.9453125,1,0,0,response7disk,,0,4.9375,-7.296875,1,0,0,rectangle,4.9375,-7.296875,1,0,0,4.9375,-7.296875,1,0,0,0,62,62,133,1,,,,,,,,
,,,,,,,,,,,,,FF,,,,,,,,1.3041,,,,,,,,,,,,,,,,,,,,,,6100eac72b0f00b188e9a386,6103699d8b767ec6c339552a,2021-07-29_19h54.04.772,Simcolourproject_2stim_asymm_v5,2020.2.10,MacIntel,60,61025ae37ef11b136ea224fe,,,,,,,,,678,-60.77734375,21.2109375,1,0,0,response7disk,,1,-10.82421875,-5.78125,1,0,0,rectangle,-10.82421875,-5.78125,1,0,0,-10.82421875,-5.78125,1,0,0,0,63,63,131,1,,,,,,,,
,,,,,,,,,,,,,FF,,,,,,,,1.0005,,,,,,,,,,,,,,,,,,,,,,6100eac72b0f00b188e9a386,6103699d8b767ec6c339552a,2021-07-29_19h54.04.772,Simcolourproject_2stim_asymm_v5,2020.2.10,MacIntel,60,61025ae37ef11b136ea224fe,,,,,,,,,229,50.35546875,22.23828125,1,0,0,response1disk,,6,2.0546875,-12.26953125,1,0,0,rectangle,2.0546875,-12.26953125,1,0,0,2.0546875,-12.26953125,1,0,0,0,64,64,23,1,,,,,,,,
,,,,,,,,,,,,,FF,,,,,,,,1.1537,,,,,,,,,,,,,,,,,,,,,,6100eac72b0f00b188e9a386,6103699d8b767ec6c339552a,2021-07-29_19h54.04.772,Simcolourproject_2stim_asymm_v5,2020.2.10,MacIntel,60,61025ae37ef11b136ea224fe,,,,,,,,,3289,17.8046875,69.91015625,1,0,0,response1disk,,7,13.87109375,-1.75390625,1,0,0,rectangle,13.87109375,-1.75390625,1,0,0,13.87109375,-1.75390625,1,0,0,0,65,65,118,1,,,,,,,,
,,,,,,,,,,,,,FF,,,,,,,,3.1902,,,,,,,,,,,,,,,,,,,,,,6100eac72b0f00b188e9a386,6103699d8b767ec6c339552a,2021-07-29_19h54.04.772,Simcolourproject_2stim_asymm_v5,2020.2.10,MacIntel,60,61025ae37ef11b136ea224fe,,,,,,,,,1488,-40.796875,-18.23828125,1,0,0,response5disk,,2,9.34375,9.0234375,1,0,0,rectangle,9.34375,9.0234375,1,0,0,9.34375,9.0234375,1,0,0,0,66,66,159,1,,,,,,,,
,,,,,,,,,,,,,FF,,,,,,,,1.1177,,,,,,,,,,,,,,,,,,,,,,6100eac72b0f00b188e9a386,6103699d8b767ec6c339552a,2021-07-29_19h54.04.772,Simcolourproject_2stim_asymm_v5,2020.2.10,MacIntel,60,61025ae37ef11b136ea224fe,,,,,,,,,1352,63.84765625,22.82421875,1,0,0,response1disk,,6,-0.515625,-10.3671875,1,0,0,rectangle,-0.515625,-10.3671875,1,0,0,-0.515625,-10.3671875,1,0,0,0,67,67,9,1,,,,,,,,
,,,,,,,,,,,,,FF,,,,,,,,0.6849,,,,,,,,,,,,,,,,,,,,,,6100eac72b0f00b188e9a386,6103699d8b767ec6c339552a,2021-07-29_19h54.04.772,Simcolourproject_2stim_asymm_v5,2020.2.10,MacIntel,60,61025ae37ef11b136ea224fe,,,,,,,,,506,-42.69921875,-23.421875,1,0,0,response5disk,,2,-2.078125,5.51953125,1,0,0,rectangle,-2.078125,5.51953125,1,0,0,-2.078125,5.51953125,1,0,0,0,68,68,126,1,,,,,,,,
,,,,,,,,,,,,,FF,,,,,,,,0.7365,,,,,,,,,,,,,,,,,,,,,,6100eac72b0f00b188e9a386,6103699d8b767ec6c339552a,2021-07-29_19h54.04.772,Simcolourproject_2stim_asymm_v5,2020.2.10,MacIntel,60,61025ae37ef11b136ea224fe,,,,,,,,,488,48.04296875,-24.640625,1,0,0,response3disk,,5,21.6875,-11.6875,1,0,0,rectangle,21.6875,-11.6875,1,0,0,21.6875,-11.6875,1,0,0,0,69,69,45,1,,,,,,,,
,,,,,,,,,,,,,FF,,,,,,,,0.9053,,,,,,,,,,,,,,,,,,,,,,6100eac72b0f00b188e9a386,6103699d8b767ec6c339552a,2021-07-29_19h54.04.772,Simcolourproject_2stim_asymm_v5,2020.2.10,MacIntel,60,61025ae37ef11b136ea224fe,,,,,,,,,1121,51.23828125,-20.33984375,1,0,0,response3disk,,5,-11.3203125,4.953125,1,0,0,rectangle,31.15234375,-66.859375,1,0,0,-5.0625,-3.95703125,1,0,0,0,70,70,54,1,,response3disk_3,TRUE,4,4,"[212,48,24,259,172,281,253,15,34,214,111,203,62,71,267,55,96,315,197,110]",2.0546,rectangle
,,,,,,,,,,,,,FF,,,,,,,,1.789,,,,,,,,,,,,,,,,,,,,,,6100eac72b0f00b188e9a386,6103699d8b767ec6c339552a,2021-07-29_19h54.04.772,Simcolourproject_2stim_asymm_v5,2020.2.10,MacIntel,60,61025ae37ef11b136ea224fe,,,,,,,,,3392,-54.0703125,26.56640625,1,0,0,response7disk,,1,-22.1328125,5.6015625,1,0,0,rectangle,-22.1328125,5.6015625,1,0,0,-22.1328125,5.6015625,1,0,0,0,71,71,12,1,,,,,,,,
,,,,,,,,,,,,,FF,,,,,,,,0.9874,,,,,,,,,,,,,,,,,,,,,,6100eac72b0f00b188e9a386,6103699d8b767ec6c339552a,2021-07-29_19h54.04.772,Simcolourproject_2stim_asymm_v5,2020.2.10,MacIntel,60,61025ae37ef11b136ea224fe,,,,,,,,,1413,-32.1484375,-65.3984375,1,0,0,response5disk,,3,10.046875,-0.5859375,1,0,0,rectangle,10.046875,-0.5859375,1,0,0,10.046875,-0.5859375,1,0,0,0,72,72,16,1,,,,,,,,
,,,,,,,,,,,,,FF,,,,,,,,1.1211,,,,,,,,,,,,,,,,,,,,,,6100eac72b0f00b188e9a386,6103699d8b767ec6c339552a,2021-07-29_19h54.04.772,Simcolourproject_2stim_asymm_v5,2020.2.10,MacIntel,60,61025ae37ef11b136ea224fe,,,,,,,,,4138,28.47265625,34.75390625,1,0,0,response1disk,,7,22.01953125,-10.65625,1,0,0,rectangle,22.01953125,-10.65625,1,0,0,22.01953125,-10.65625,1,0,0,0,73,73,14,1,,,,,,,,
,,,,,,,,,,,,,FF,,,,,,,,1.7234,,,,,,,,,,,,,,,,,,,,,,6100eac72b0f00b188e9a386,6103699d8b767ec6c339552a,2021-07-29_19h54.04.772,Simcolourproject_2stim_asymm_v5,2020.2.10,MacIntel,60,61025ae37ef11b136ea224fe,,,,,,,,,1559,45.203125,-23.91796875,1,0,0,response3disk,,5,2.94140625,16.4296875,1,0,0,rectangle,2.94140625,16.4296875,1,0,0,2.94140625,16.4296875,1,0,0,0,74,74,146,1,,,,,,,,
,,,,,,,,,,,,,FF,,,,,,,,0.7361,,,,,,,,,,,,,,,,,,,,,,6100eac72b0f00b188e9a386,6103699d8b767ec6c339552a,2021-07-29_19h54.04.772,Simcolourproject_2stim_asymm_v5,2020.2.10,MacIntel,60,61025ae37ef11b136ea224fe,,,,,,,,,591,39.359375,24.76953125,1,0,0,response1disk,,6,15.54296875,4.78125,1,0,0,rectangle,15.54296875,4.78125,1,0,0,15.54296875,4.78125,1,0,0,0,75,75,158,1,,,,,,,,
,,,,,,,,,,,,,FF,,,,,,,,0.6502,,,,,,,,,,,,,,,,,,,,,,6100eac72b0f00b188e9a386,6103699d8b767ec6c339552a,2021-07-29_19h54.04.772,Simcolourproject_2stim_asymm_v5,2020.2.10,MacIntel,60,61025ae37ef11b136ea224fe,,,,,,,,,3121,60.17578125,30.3671875,1,0,0,response1disk,,6,-4.37890625,-5.140625,1,0,0,rectangle,-4.37890625,-5.140625,1,0,0,-4.37890625,-5.140625,1,0,0,0,76,76,39,1,,,,,,,,
,,,,,,,,,,,,,FF,,,,,,,,1.0528,,,,,,,,,,,,,,,,,,,,,,6100eac72b0f00b188e9a386,6103699d8b767ec6c339552a,2021-07-29_19h54.04.772,Simcolourproject_2stim_asymm_v5,2020.2.10,MacIntel,60,61025ae37ef11b136ea224fe,,,,,,,,,4245,53.4609375,10.875,1,0,0,response1disk,,6,17.59375,5.5,1,0,0,rectangle,17.59375,5.5,1,0,0,17.59375,5.5,1,0,0,0,77,77,61,1,,,,,,,,
,,,,,,,,,,,,,FF,,,,,,,,0.6189,,,,,,,,,,,,,,,,,,,,,,6100eac72b0f00b188e9a386,6103699d8b767ec6c339552a,2021-07-29_19h54.04.772,Simcolourproject_2stim_asymm_v5,2020.2.10,MacIntel,60,61025ae37ef11b136ea224fe,,,,,,,,,598,39.00390625,13.4765625,1,0,0,response1disk,,6,14.6875,3.36328125,1,0,0,rectangle,14.6875,3.36328125,1,0,0,14.6875,3.36328125,1,0,0,0,78,78,4,1,,,,,,,,
,,,,,,,,,,,,,FF,,,,,,,,0.7373,,,,,,,,,,,,,,,,,,,,,,6100eac72b0f00b188e9a386,6103699d8b767ec6c339552a,2021-07-29_19h54.04.772,Simcolourproject_2stim_asymm_v5,2020.2.10,MacIntel,60,61025ae37ef11b136ea224fe,,,,,,,,,269,78.015625,-20.8046875,1,0,0,response3disk,,5,16.50390625,3.12109375,1,0,0,rectangle,16.50390625,3.12109375,1,0,0,16.50390625,3.12109375,1,0,0,0,79,79,138,1,,,,,,,,
,,,,,,,,,,,,,FF,,,,,,,,0.7703,,,,,,,,,,,,,,,,,,,,,,6100eac72b0f00b188e9a386,6103699d8b767ec6c339552a,2021-07-29_19h54.04.772,Simcolourproject_2stim_asymm_v5,2020.2.10,MacIntel,60,61025ae37ef11b136ea224fe,,,,,,,,,3455,13.03125,-74.8046875,1,0,0,response3disk,,4,12.17578125,8.23828125,1,0,0,rectangle,12.17578125,8.23828125,1,0,0,12.17578125,8.23828125,1,0,0,0,80,80,115,1,,,,,,,,
,,,,,,,,,,,,,FF,,,,,,,,2.0039,,,,,,,,,,,,,,,,,,,,,,6100eac72b0f00b188e9a386,6103699d8b767ec6c339552a,2021-07-29_19h54.04.772,Simcolourproject_2stim_asymm_v5,2020.2.10,MacIntel,60,61025ae37ef11b136ea224fe,,,,,,,,,1838,46.765625,-17.9609375,1,0,0,response3disk,,5,17.4765625,-5.9765625,1,0,0,rectangle,17.4765625,-5.9765625,1,0,0,17.4765625,-5.9765625,1,0,0,0,81,81,11,1,,,,,,,,
,,,,,,,,,,,,,FF,,,,,,,,0.5843,,,,,,,,,,,,,,,,,,,,,,6100eac72b0f00b188e9a386,6103699d8b767ec6c339552a,2021-07-29_19h54.04.772,Simcolourproject_2stim_asymm_v5,2020.2.10,MacIntel,60,61025ae37ef11b136ea224fe,,,,,,,,,3309,33.28515625,-27.9375,1,0,0,response3disk,,5,9.12109375,-11.80859375,1,0,0,rectangle,9.12109375,-11.80859375,1,0,0,9.12109375,-11.80859375,1,0,0,0,82,82,96,1,,,,,,,,
,,,,,,,,,,,,,FF,,,,,,,,0.5376,,,,,,,,,,,,,,,,,,,,,,6100eac72b0f00b188e9a386,6103699d8b767ec6c339552a,2021-07-29_19h54.04.772,Simcolourproject_2stim_asymm_v5,2020.2.10,MacIntel,60,61025ae37ef11b136ea224fe,,,,,,,,,3545,-23.21875,-46.96484375,1,0,0,response5disk,,3,-10.01953125,-11.515625,1,0,0,rectangle,-10.01953125,-11.515625,1,0,0,-10.01953125,-11.515625,1,0,0,0,83,83,104,1,,,,,,,,
,,,,,,,,,,,,,FF,,,,,,,,0.6182,,,,,,,,,,,,,,,,,,,,,,6100eac72b0f00b188e9a386,6103699d8b767ec6c339552a,2021-07-29_19h54.04.772,Simcolourproject_2stim_asymm_v5,2020.2.10,MacIntel,60,61025ae37ef11b136ea224fe,,,,,,,,,3757,-48.109375,-25.31640625,1,0,0,response5disk,,2,-18.74609375,-0.1484375,1,0,0,rectangle,-18.74609375,-0.1484375,1,0,0,-18.74609375,-0.1484375,1,0,0,0,84,84,56,1,,,,,,,,
,,,,,,,,,,,,,FF,,,,,,,,0.7677,,,,,,,,,,,,,,,,,,,,,,6100eac72b0f00b188e9a386,6103699d8b767ec6c339552a,2021-07-29_19h54.04.772,Simcolourproject_2stim_asymm_v5,2020.2.10,MacIntel,60,61025ae37ef11b136ea224fe,,,,,,,,,3451,55.16796875,22.4609375,1,0,0,response1disk,,6,27.29296875,1.98828125,1,0,0,rectangle,27.29296875,1.98828125,1,0,0,27.29296875,1.98828125,1,0,0,0,85,85,106,1,,,,,,,,
,,,,,,,,,,,,,FF,,,,,,,,1.1707,,,,,,,,,,,,,,,,,,,,,,6100eac72b0f00b188e9a386,6103699d8b767ec6c339552a,2021-07-29_19h54.04.772,Simcolourproject_2stim_asymm_v5,2020.2.10,MacIntel,60,61025ae37ef11b136ea224fe,,,,,,,,,184,31.48828125,41.5859375,1,0,0,response1disk,,7,30.703125,16.33203125,1,0,0,rectangle,30.703125,16.33203125,1,0,0,30.703125,16.33203125,1,0,0,0,86,86,150,1,,,,,,,,
,,,,,,,,,,,,,FF,,,,,,,,0.7527,,,,,,,,,,,,,,,,,,,,,,6100eac72b0f00b188e9a386,6103699d8b767ec6c339552a,2021-07-29_19h54.04.772,Simcolourproject_2stim_asymm_v5,2020.2.10,MacIntel,60,61025ae37ef11b136ea224fe,,,,,,,,,41,45.7890625,19.8046875,1,0,0,response1disk,,6,19.79296875,4.640625,1,0,0,rectangle,19.79296875,4.640625,1,0,0,19.79296875,4.640625,1,0,0,0,87,87,145,1,,,,,,,,
,,,,,,,,,,,,,FF,,,,,,,,0.5506,,,,,,,,,,,,,,,,,,,,,,6100eac72b0f00b188e9a386,6103699d8b767ec6c339552a,2021-07-29_19h54.04.772,Simcolourproject_2stim_asymm_v5,2020.2.10,MacIntel,60,61025ae37ef11b136ea224fe,,,,,,,,,1501,44.28125,-22.26953125,1,0,0,response3disk,,5,6.99609375,2.91015625,1,0,0,rectangle,6.99609375,2.91015625,1,0,0,6.99609375,2.91015625,1,0,0,0,88,88,82,1,,,,,,,,
,,,,,,,,,,,,,FF,,,,,,,,0.5323,,,,,,,,,,,,,,,,,,,,,,6100eac72b0f00b188e9a386,6103699d8b767ec6c339552a,2021-07-29_19h54.04.772,Simcolourproject_2stim_asymm_v5,2020.2.10,MacIntel,60,61025ae37ef11b136ea224fe,,,,,,,,,870,51.015625,-34.203125,1,0,0,response3disk,,5,11.02734375,-4.89453125,1,0,0,rectangle,11.02734375,-4.89453125,1,0,0,11.02734375,-4.89453125,1,0,0,0,89,89,103,1,,,,,,,,
,,,,,,,,,,,,,FF,,,,,,,,0.6833,,,,,,,,,,,,,,,,,,,,,,6100eac72b0f00b188e9a386,6103699d8b767ec6c339552a,2021-07-29_19h54.04.772,Simcolourproject_2stim_asymm_v5,2020.2.10,MacIntel,60,61025ae37ef11b136ea224fe,,,,,,,,,2408,22.984375,-46.37890625,1,0,0,response3disk,,4,-0.421875,14.41796875,1,0,0,rectangle,-0.421875,14.41796875,1,0,0,-0.421875,14.41796875,1,0,0,0,90,90,28,1,,,,,,,,
,,,,,,,,,,,,,FF,,,,,,,,1.5732,,,,,,,,,,,,,,,,,,,,,,6100eac72b0f00b188e9a386,6103699d8b767ec6c339552a,2021-07-29_19h54.04.772,Simcolourproject_2stim_asymm_v5,2020.2.10,MacIntel,60,61025ae37ef11b136ea224fe,,,,,,,,,3381,-40.734375,58.23046875,1,0,0,response7disk,,0,5.53515625,0.06640625,1,0,0,rectangle,5.53515625,0.06640625,1,0,0,5.53515625,0.06640625,1,0,0,0,91,91,156,1,,,,,,,,
,,,,,,,,,,,,,FF,,,,,,,,3.1086,,,,,,,,,,,,,,,,,,,,,,6100eac72b0f00b188e9a386,6103699d8b767ec6c339552a,2021-07-29_19h54.04.772,Simcolourproject_2stim_asymm_v5,2020.2.10,MacIntel,60,61025ae37ef11b136ea224fe,,,,,,,,,5,-39.40625,15.75390625,1,0,0,response7disk,,1,3.1640625,-15.01953125,1,0,0,rectangle,3.1640625,-15.01953125,1,0,0,3.1640625,-15.01953125,1,0,0,0,92,92,80,1,,,,,,,,
,,,,,,,,,,,,,FF,,,,,,,,0.634,,,,,,,,,,,,,,,,,,,,,,6100eac72b0f00b188e9a386,6103699d8b767ec6c339552a,2021-07-29_19h54.04.772,Simcolourproject_2stim_asymm_v5,2020.2.10,MacIntel,60,61025ae37ef11b136ea224fe,,,,,,,,,2756,52.7734375,-25.9375,1,0,0,response3disk,,5,28.86328125,-11.81640625,1,0,0,rectangle,28.86328125,-11.81640625,1,0,0,28.86328125,-11.81640625,1,0,0,0,93,93,62,1,,,,,,,,
,,,,,,,,,,,,,FF,,,,,,,,0.7025,,,,,,,,,,,,,,,,,,,,,,6100eac72b0f00b188e9a386,6103699d8b767ec6c339552a,2021-07-29_19h54.04.772,Simcolourproject_2stim_asymm_v5,2020.2.10,MacIntel,60,61025ae37ef11b136ea224fe,,,,,,,,,2649,47.30078125,18.0078125,1,0,0,response1disk,,6,14.67578125,11.14453125,1,0,0,rectangle,14.67578125,11.14453125,1,0,0,14.67578125,11.14453125,1,0,0,0,94,94,64,1,,,,,,,,
,,,,,,,,,,,,,FF,,,,,,,,0.7021,,,,,,,,,,,,,,,,,,,,,,6100eac72b0f00b188e9a386,6103699d8b767ec6c339552a,2021-07-29_19h54.04.772,Simcolourproject_2stim_asymm_v5,2020.2.10,MacIntel,60,61025ae37ef11b136ea224fe,,,,,,,,,1944,26.64453125,48.4296875,1,0,0,response1disk,,7,15.71484375,15.82421875,1,0,0,rectangle,-54.8359375,-37.69140625,1,0,0,4.36328125,-7.84765625,1,0,0,0,95,95,134,1,,response5disk_3,TRUE,2,2,"[212,48,24,259,172,281,253,15,34,214,111,203,62,71,267,55,96,315,197,110]",2.0377,rectangle
,,,,,,,,,,,,,FF,,,,,,,,0.9655,,,,,,,,,,,,,,,,,,,,,,6100eac72b0f00b188e9a386,6103699d8b767ec6c339552a,2021-07-29_19h54.04.772,Simcolourproject_2stim_asymm_v5,2020.2.10,MacIntel,60,61025ae37ef11b136ea224fe,,,,,,,,,3411,-44.26171875,23.11328125,1,0,0,response7disk,,1,-8.3515625,9.65234375,1,0,0,rectangle,-8.3515625,9.65234375,1,0,0,-8.3515625,9.65234375,1,0,0,0,96,96,25,1,,,,,,,,
,,,,,,,,,,,,,FF,,,,,,,,0.5167,,,,,,,,,,,,,,,,,,,,,,6100eac72b0f00b188e9a386,6103699d8b767ec6c339552a,2021-07-29_19h54.04.772,Simcolourproject_2stim_asymm_v5,2020.2.10,MacIntel,60,61025ae37ef11b136ea224fe,,,,,,,,,1599,35.64453125,-13.875,1,0,0,response3disk,,5,11.72265625,12.796875,1,0,0,rectangle,11.72265625,12.796875,1,0,0,11.72265625,12.796875,1,0,0,0,97,97,123,1,,,,,,,,
,,,,,,,,,,,,,FF,,,,,,,,0.8049,,,,,,,,,,,,,,,,,,,,,,6100eac72b0f00b188e9a386,6103699d8b767ec6c339552a,2021-07-29_19h54.04.772,Simcolourproject_2stim_asymm_v5,2020.2.10,MacIntel,60,61025ae37ef11b136ea224fe,,,,,,,,,2709,39.3515625,61.1875,1,0,0,response1disk,,7,28.46875,8.85546875,1,0,0,rectangle,28.46875,8.85546875,1,0,0,28.46875,8.85546875,1,0,0,0,98,98,127,1,,,,,,,,
,,,,,,,,,,,,,FF,,,,,,,,0.7034,,,,,,,,,,,,,,,,,,,,,,6100eac72b0f00b188e9a386,6103699d8b767ec6c339552a,2021-07-29_19h54.04.772,Simcolourproject_2stim_asymm_v5,2020.2.10,MacIntel,60,61025ae37ef11b136ea224fe,,,,,,,,,2633,-49.70703125,15.3671875,1,0,0,response7disk,,1,-13.75,-1.4296875,1,0,0,rectangle,-13.75,-1.4296875,1,0,0,-13.75,-1.4296875,1,0,0,0,99,99,75,1,,,,,,,,
,,,,,,,,,,,,,FF,,,,,,,,0.7019,,,,,,,,,,,,,,,,,,,,,,6100eac72b0f00b188e9a386,6103699d8b767ec6c339552a,2021-07-29_19h54.04.772,Simcolourproject_2stim_asymm_v5,2020.2.10,MacIntel,60,61025ae37ef11b136ea224fe,,,,,,,,,1635,43.3671875,-16.54296875,1,0,0,response3disk,,5,18.8046875,-7.328125,1,0,0,rectangle,18.8046875,-7.328125,1,0,0,18.8046875,-7.328125,1,0,0,0,100,100,42,1,,,,,,,,
,,,,,,,,,,,,,FF,,,,,,,,0.8866,,,,,,,,,,,,,,,,,,,,,,6100eac72b0f00b188e9a386,6103699d8b767ec6c339552a,2021-07-29_19h54.04.772,Simcolourproject_2stim_asymm_v5,2020.2.10,MacIntel,60,61025ae37ef11b136ea224fe,,,,,,,,,3460,25.3828125,-85.93359375,1,0,0,response3disk,,4,0.5,-1.89453125,1,0,0,rectangle,0.5,-1.89453125,1,0,0,0.5,-1.89453125,1,0,0,0,101,101,128,1,,,,,,,,
,,,,,,,,,,,,,FF,,,,,,,,3.06,,,,,,,,,,,,,,,,,,,,,,6100eac72b0f00b188e9a386,6103699d8b767ec6c339552a,2021-07-29_19h54.04.772,Simcolourproject_2stim_asymm_v5,2020.2.10,MacIntel,60,61025ae37ef11b136ea224fe,,,,,,,,,70,-20.2265625,59.1875,1,0,0,response7disk,,0,5.65234375,11.6796875,1,0,0,rectangle,5.65234375,11.6796875,1,0,0,5.65234375,11.6796875,1,0,0,0,102,102,38,1,,,,,,,,
,,,,,,,,,,,,,FF,,,,,,,,0.9368,,,,,,,,,,,,,,,,,,,,,,6100eac72b0f00b188e9a386,6103699d8b767ec6c339552a,2021-07-29_19h54.04.772,Simcolourproject_2stim_asymm_v5,2020.2.10,MacIntel,60,61025ae37ef11b136ea224fe,,,,,,,,,4301,-22.3046875,-53.85546875,1,0,0,response5disk,,3,-8.0625,-16.04296875,1,0,0,rectangle,-8.0625,-16.04296875,1,0,0,-8.0625,-16.04296875,1,0,0,0,103,103,135,1,,,,,,,,
,,,,,,,,,,,,,FF,,,,,,,,0.7705,,,,,,,,,,,,,,,,,,,,,,6100eac72b0f00b188e9a386,6103699d8b767ec6c339552a,2021-07-29_19h54.04.772,Simcolourproject_2stim_asymm_v5,2020.2.10,MacIntel,60,61025ae37ef11b136ea224fe,,,,,,,,,1138,-31.73828125,-75.8203125,1,0,0,response5disk,,3,11.75390625,0.21484375,1,0,0,rectangle,11.75390625,0.21484375,1,0,0,11.75390625,0.21484375,1,0,0,0,104,104,120,1,,,,,,,,
,,,,,,,,,,,,,FF,,,,,,,,1.0527,,,,,,,,,,,,,,,,,,,,,,6100eac72b0f00b188e9a386,6103699d8b767ec6c339552a,2021-07-29_19h54.04.772,Simcolourproject_2stim_asymm_v5,2020.2.10,MacIntel,60,61025ae37ef11b136ea224fe,,,,,,,,,3694,52.890625,-30.83984375,1,0,0,response3disk,,5,4.65625,-4.19140625,1,0,0,rectangle,4.65625,-4.19140625,1,0,0,4.65625,-4.19140625,1,0,0,0,105,105,40,1,,,,,,,,
,,,,,,,,,,,,,FF,,,,,,,,1.4188,,,,,,,,,,,,,,,,,,,,,,6100eac72b0f00b188e9a386,6103699d8b767ec6c339552a,2021-07-29_19h54.04.772,Simcolourproject_2stim_asymm_v5,2020.2.10,MacIntel,60,61025ae37ef11b136ea224fe,,,,,,,,,1886,-39.1328125,61.5703125,1,0,0,response7disk,,0,24.734375,-6.828125,1,0,0,rectangle,24.734375,-6.828125,1,0,0,24.734375,-6.828125,1,0,0,0,106,106,7,1,,,,,,,,
,,,,,,,,,,,,,FF,,,,,,,,2.0385,,,,,,,,,,,,,,,,,,,,,,6100eac72b0f00b188e9a386,6103699d8b767ec6c339552a,2021-07-29_19h54.04.772,Simcolourproject_2stim_asymm_v5,2020.2.10,MacIntel,60,61025ae37ef11b136ea224fe,,,,,,,,,1247,-45.2109375,28.4921875,1,0,0,response7disk,,1,-4.03515625,-1.63671875,1,0,0,rectangle,-4.03515625,-1.63671875,1,0,0,-4.03515625,-1.63671875,1,0,0,0,107,107,36,1,,,,,,,,
,,,,,,,,,,,,,FF,,,,,,,,0.5515,,,,,,,,,,,,,,,,,,,,,,6100eac72b0f00b188e9a386,6103699d8b767ec6c339552a,2021-07-29_19h54.04.772,Simcolourproject_2stim_asymm_v5,2020.2.10,MacIntel,60,61025ae37ef11b136ea224fe,,,,,,,,,3326,31.74609375,-19.046875,1,0,0,response3disk,,5,1.703125,1.078125,1,0,0,rectangle,1.703125,1.078125,1,0,0,1.703125,1.078125,1,0,0,0,108,108,20,1,,,,,,,,
,,,,,,,,,,,,,FF,,,,,,,,0.6056,,,,,,,,,,,,,,,,,,,,,,6100eac72b0f00b188e9a386,6103699d8b767ec6c339552a,2021-07-29_19h54.04.772,Simcolourproject_2stim_asymm_v5,2020.2.10,MacIntel,60,61025ae37ef11b136ea224fe,,,,,,,,,3792,41.5,-16.265625,1,0,0,response3disk,,5,3.73046875,-13.03515625,1,0,0,rectangle,22.72265625,68.66015625,1,0,0,20.2734375,13.1953125,1,0,0,0,109,109,1,1,,response1disk_3,TRUE,7,0,"[212,48,24,259,172,281,253,15,34,214,111,203,62,71,267,55,96,315,197,110]",1.7551,rectangle
,,,,,,,,,,,,,FF,,,,,,,,0.5846,,,,,,,,,,,,,,,,,,,,,,6100eac72b0f00b188e9a386,6103699d8b767ec6c339552a,2021-07-29_19h54.04.772,Simcolourproject_2stim_asymm_v5,2020.2.10,MacIntel,60,61025ae37ef11b136ea224fe,,,,,,,,,2536,-12.19140625,-60.71484375,1,0,0,response5disk,,3,-16.1328125,3.30859375,1,0,0,rectangle,60.41796875,-26.51953125,1,0,0,9.0390625,4.80078125,1,0,0,0,110,110,71,1,,response3disk_3,TRUE,5,3,"[212,48,24,259,172,281,253,15,34,214,111,203,62,71,267,55,96,315,197,110]",0.4513,rectangle
,,,,,,,,,,,,,FF,,,,,,,,1.354,,,,,,,,,,,,,,,,,,,,,,6100eac72b0f00b188e9a386,6103699d8b767ec6c339552a,2021-07-29_19h54.04.772,Simcolourproject_2stim_asymm_v5,2020.2.10,MacIntel,60,61025ae37ef11b136ea224fe,,,,,,,,,1086,33.0234375,-63.65625,1,0,0,response3disk,,4,13.14453125,-10.36328125,1,0,0,rectangle,13.14453125,-10.36328125,1,0,0,13.14453125,-10.36328125,1,0,0,0,111,111,65,1,,,,,,,,
,,,,,,,,,,,,,FF,,,,,,,,0.7523,,,,,,,,,,,,,,,,,,,,,,6100eac72b0f00b188e9a386,6103699d8b767ec6c339552a,2021-07-29_19h54.04.772,Simcolourproject_2stim_asymm_v5,2020.2.10,MacIntel,60,61025ae37ef11b136ea224fe,,,,,,,,,1409,-34.17578125,-48.953125,1,0,0,response5disk,,3,-10.8125,-7.1796875,1,0,0,rectangle,-10.8125,-7.1796875,1,0,0,-10.8125,-7.1796875,1,0,0,0,112,112,22,1,,,,,,,,
,,,,,,,,,,,,,FF,,,,,,,,0.8354,,,,,,,,,,,,,,,,,,,,,,6100eac72b0f00b188e9a386,6103699d8b767ec6c339552a,2021-07-29_19h54.04.772,Simcolourproject_2stim_asymm_v5,2020.2.10,MacIntel,60,61025ae37ef11b136ea224fe,,,,,,,,,4072,34.8203125,60.91015625,1,0,0,response1disk,,7,23.8046875,16.7734375,1,0,0,rectangle,23.8046875,16.7734375,1,0,0,23.8046875,16.7734375,1,0,0,0,113,113,95,1,,,,,,,,
,,,,,,,,,,,,,FF,,,,,,,,0.6183,,,,,,,,,,,,,,,,,,,,,,6100eac72b0f00b188e9a386,6103699d8b767ec6c339552a,2021-07-29_19h54.04.772,Simcolourproject_2stim_asymm_v5,2020.2.10,MacIntel,60,61025ae37ef11b136ea224fe,,,,,,,,,2122,48.9765625,-35.51171875,1,0,0,response3disk,,5,20.390625,-17.390625,1,0,0,rectangle,20.390625,-17.390625,1,0,0,20.390625,-17.390625,1,0,0,0,114,114,86,1,,,,,,,,
,,,,,,,,,,,,,FF,,,,,,,,0.6841,,,,,,,,,,,,,,,,,,,,,,6100eac72b0f00b188e9a386,6103699d8b767ec6c339552a,2021-07-29_19h54.04.772,Simcolourproject_2stim_asymm_v5,2020.2.10,MacIntel,60,61025ae37ef11b136ea224fe,,,,,,,,,3078,-26.28515625,-47.4140625,1,0,0,response5disk,,3,-11.890625,-7.38671875,1,0,0,rectangle,-11.890625,-7.38671875,1,0,0,-11.890625,-7.38671875,1,0,0,0,115,115,48,1,,,,,,,,
,,,,,,,,,,,,,FF,,,,,,,,0.6343,,,,,,,,,,,,,,,,,,,,,,6100eac72b0f00b188e9a386,6103699d8b767ec6c339552a,2021-07-29_19h54.04.772,Simcolourproject_2stim_asymm_v5,2020.2.10,MacIntel,60,61025ae37ef11b136ea224fe,,,,,,,,,2451,26.58984375,60.0859375,1,0,0,response1disk,,7,4.03125,-16.66796875,1,0,0,rectangle,4.03125,-16.66796875,1,0,0,4.03125,-16.66796875,1,0,0,0,116,116,149,1,,,,,,,,
,,,,,,,,,,,,,FF,,,,,,,,0.5513,,,,,,,,,,,,,,,,,,,,,,6100eac72b0f00b188e9a386,6103699d8b767ec6c339552a,2021-07-29_19h54.04.772,Simcolourproject_2stim_asymm_v5,2020.2.10,MacIntel,60,61025ae37ef11b136ea224fe,,,,,,,,,270,-44.1171875,-23.296875,1,0,0,response5disk,,2,4.50390625,16.921875,1,0,0,rectangle,4.50390625,16.921875,1,0,0,4.50390625,16.921875,1,0,0,0,117,117,34,1,,,,,,,,
,,,,,,,,,,,,,FF,,,,,,,,0.585,,,,,,,,,,,,,,,,,,,,,,6100eac72b0f00b188e9a386,6103699d8b767ec6c339552a,2021-07-29_19h54.04.772,Simcolourproject_2stim_asymm_v5,2020.2.10,MacIntel,60,61025ae37ef11b136ea224fe,,,,,,,,,3163,48.4765625,-26.2421875,1,0,0,response3disk,,5,18.21875,-5.96484375,1,0,0,rectangle,18.21875,-5.96484375,1,0,0,18.21875,-5.96484375,1,0,0,0,118,118,108,1,,,,,,,,
,,,,,,,,,,,,,FF,,,,,,,,0.6676,,,,,,,,,,,,,,,,,,,,,,6100eac72b0f00b188e9a386,6103699d8b767ec6c339552a,2021-07-29_19h54.04.772,Simcolourproject_2stim_asymm_v5,2020.2.10,MacIntel,60,61025ae37ef11b136ea224fe,,,,,,,,,999,44.6328125,-24.09375,1,0,0,response3disk,,5,9.82421875,1.1171875,1,0,0,rectangle,9.82421875,1.1171875,1,0,0,9.82421875,1.1171875,1,0,0,0,119,119,52,1,,,,,,,,
,,,,,,,,,,,,,FF,,,,,,,,0.7682,,,,,,,,,,,,,,,,,,,,,,6100eac72b0f00b188e9a386,6103699d8b767ec6c339552a,2021-07-29_19h54.04.772,Simcolourproject_2stim_asymm_v5,2020.2.10,MacIntel,60,61025ae37ef11b136ea224fe,,,,,,,,,4251,-21.84375,-53.1328125,1,0,0,response5disk,,3,-0.921875,5.02734375,1,0,0,rectangle,-0.921875,5.02734375,1,0,0,-0.921875,5.02734375,1,0,0,0,120,120,30,1,,,,,,,,
,,,,,,,,,,,,,FF,,,,,,,,0.6522,,,,,,,,,,,,,,,,,,,,,,6100eac72b0f00b188e9a386,6103699d8b767ec6c339552a,2021-07-29_19h54.04.772,Simcolourproject_2stim_asymm_v5,2020.2.10,MacIntel,60,61025ae37ef11b136ea224fe,,,,,,,,,3867,27.4453125,61.49609375,1,0,0,response1disk,,7,9.30078125,0.48046875,1,0,0,rectangle,9.30078125,0.48046875,1,0,0,9.30078125,0.48046875,1,0,0,0,121,121,100,1,,,,,,,,
,,,,,,,,,,,,,FF,,,,,,,,0.5848,,,,,,,,,,,,,,,,,,,,,,6100eac72b0f00b188e9a386,6103699d8b767ec6c339552a,2021-07-29_19h54.04.772,Simcolourproject_2stim_asymm_v5,2020.2.10,MacIntel,60,61025ae37ef11b136ea224fe,,,,,,,,,1337,37.16015625,-23.20703125,1,0,0,response3disk,,5,8.84765625,-0.1640625,1,0,0,rectangle,8.84765625,-0.1640625,1,0,0,8.84765625,-0.1640625,1,0,0,0,122,122,19,1,,,,,,,,
,,,,,,,,,,,,,FF,,,,,,,,1.7059,,,,,,,,,,,,,,,,,,,,,,6100eac72b0f00b188e9a386,6103699d8b767ec6c339552a,2021-07-29_19h54.04.772,Simcolourproject_2stim_asymm_v5,2020.2.10,MacIntel,60,61025ae37ef11b136ea224fe,,,,,,,,,4140,-36.65625,52.43359375,1,0,0,response7disk,,0,-25.3515625,-8.1875,1,0,0,rectangle,-25.3515625,-8.1875,1,0,0,-25.3515625,-8.1875,1,0,0,0,123,123,70,1,,,,,,,,
,,,,,,,,,,,,,FF,,,,,,,,0.885,,,,,,,,,,,,,,,,,,,,,,6100eac72b0f00b188e9a386,6103699d8b767ec6c339552a,2021-07-29_19h54.04.772,Simcolourproject_2stim_asymm_v5,2020.2.10,MacIntel,60,61025ae37ef11b136ea224fe,,,,,,,,,2788,-37.07421875,39.01953125,1,0,0,response7disk,,0,-2.34765625,-10.91015625,1,0,0,rectangle,-2.34765625,-10.91015625,1,0,0,-2.34765625,-10.91015625,1,0,0,0,124,124,83,1,,,,,,,,
,,,,,,,,,,,,,FF,,,,,,,,0.7015,,,,,,,,,,,,,,,,,,,,,,6100eac72b0f00b188e9a386,6103699d8b767ec6c339552a,2021-07-29_19h54.04.772,Simcolourproject_2stim_asymm_v5,2020.2.10,MacIntel,60,61025ae37ef11b136ea224fe,,,,,,,,,1160,27.3828125,-49.5703125,1,0,0,response3disk,,4,5.74609375,1.23828125,1,0,0,rectangle,5.74609375,1.23828125,1,0,0,5.74609375,1.23828125,1,0,0,0,125,125,18,1,,,,,,,,
,,,,,,,,,,,,,FF,,,,,,,,0.8696,,,,,,,,,,,,,,,,,,,,,,6100eac72b0f00b188e9a386,6103699d8b767ec6c339552a,2021-07-29_19h54.04.772,Simcolourproject_2stim_asymm_v5,2020.2.10,MacIntel,60,61025ae37ef11b136ea224fe,,,,,,,,,2728,51.984375,30.7109375,1,0,0,response1disk,,6,10.40234375,0.1328125,1,0,0,rectangle,10.40234375,0.1328125,1,0,0,10.40234375,0.1328125,1,0,0,0,126,126,0,1,,,,,,,,
,,,,,,,,,,,,,FF,,,,,,,,0.8031,,,,,,,,,,,,,,,,,,,,,,6100eac72b0f00b188e9a386,6103699d8b767ec6c339552a,2021-07-29_19h54.04.772,Simcolourproject_2stim_asymm_v5,2020.2.10,MacIntel,60,61025ae37ef11b136ea224fe,,,,,,,,,1918,41.58203125,21.48828125,1,0,0,response1disk,,6,24.65234375,-3.453125,1,0,0,rectangle,24.65234375,-3.453125,1,0,0,24.65234375,-3.453125,1,0,0,0,127,127,57,1,,,,,,,,
,,,,,,,,,,,,,FF,,,,,,,,0.8699,,,,,,,,,,,,,,,,,,,,,,6100eac72b0f00b188e9a386,6103699d8b767ec6c339552a,2021-07-29_19h54.04.772,Simcolourproject_2stim_asymm_v5,2020.2.10,MacIntel,60,61025ae37ef11b136ea224fe,,,,,,,,,3389,-24.78125,60.953125,1,0,0,response7disk,,0,-4.8046875,0.69921875,1,0,0,rectangle,-4.8046875,0.69921875,1,0,0,-4.8046875,0.69921875,1,0,0,0,128,128,51,1,,,,,,,,
,,,,,,,,,,,,,FF,,,,,,,,0.7686,,,,,,,,,,,,,,,,,,,,,,6100eac72b0f00b188e9a386,6103699d8b767ec6c339552a,2021-07-29_19h54.04.772,Simcolourproject_2stim_asymm_v5,2020.2.10,MacIntel,60,61025ae37ef11b136ea224fe,,,,,,,,,2130,46.90234375,23.33984375,1,0,0,response1disk,,6,22.47265625,3.2578125,1,0,0,rectangle,22.47265625,3.2578125,1,0,0,22.47265625,3.2578125,1,0,0,0,129,129,137,1,,,,,,,,
,,,,,,,,,,,,,FF,,,,,,,,1.5196,,,,,,,,,,,,,,,,,,,,,,6100eac72b0f00b188e9a386,6103699d8b767ec6c339552a,2021-07-29_19h54.04.772,Simcolourproject_2stim_asymm_v5,2020.2.10,MacIntel,60,61025ae37ef11b136ea224fe,,,,,,,,,1512,42.265625,54.8984375,1,0,0,response1disk,,7,25.953125,7.33203125,1,0,0,rectangle,25.953125,7.33203125,1,0,0,25.953125,7.33203125,1,0,0,0,130,130,68,1,,,,,,,,
,,,,,,,,,,,,,FF,,,,,,,,1.2035,,,,,,,,,,,,,,,,,,,,,,6100eac72b0f00b188e9a386,6103699d8b767ec6c339552a,2021-07-29_19h54.04.772,Simcolourproject_2stim_asymm_v5,2020.2.10,MacIntel,60,61025ae37ef11b136ea224fe,,,,,,,,,1797,13.12109375,53.40625,1,0,0,response1disk,,7,-2.37890625,-16.08984375,1,0,0,rectangle,-2.37890625,-16.08984375,1,0,0,-2.37890625,-16.08984375,1,0,0,0,131,131,132,1,,,,,,,,
,,,,,,,,,,,,,FF,,,,,,,,0.9181,,,,,,,,,,,,,,,,,,,,,,6100eac72b0f00b188e9a386,6103699d8b767ec6c339552a,2021-07-29_19h54.04.772,Simcolourproject_2stim_asymm_v5,2020.2.10,MacIntel,60,61025ae37ef11b136ea224fe,,,,,,,,,4230,-32.203125,-59.5,1,0,0,response5disk,,3,16.8828125,-1.28515625,1,0,0,rectangle,16.8828125,-1.28515625,1,0,0,16.8828125,-1.28515625,1,0,0,0,132,132,43,1,,,,,,,,
,,,,,,,,,,,,,FF,,,,,,,,1.0354,,,,,,,,,,,,,,,,,,,,,,6100eac72b0f00b188e9a386,6103699d8b767ec6c339552a,2021-07-29_19h54.04.772,Simcolourproject_2stim_asymm_v5,2020.2.10,MacIntel,60,61025ae37ef11b136ea224fe,,,,,,,,,4293,40.5546875,56.8125,1,0,0,response1disk,,7,26.34375,13.7265625,1,0,0,rectangle,26.34375,13.7265625,1,0,0,26.34375,13.7265625,1,0,0,0,133,133,116,1,,,,,,,,
,,,,,,,,,,,,,FF,,,,,,,,0.6514,,,,,,,,,,,,,,,,,,,,,,6100eac72b0f00b188e9a386,6103699d8b767ec6c339552a,2021-07-29_19h54.04.772,Simcolourproject_2stim_asymm_v5,2020.2.10,MacIntel,60,61025ae37ef11b136ea224fe,,,,,,,,,3686,20.1796875,37.65625,1,0,0,response1disk,,7,11.65625,1.640625,1,0,0,rectangle,11.65625,1.640625,1,0,0,11.65625,1.640625,1,0,0,0,134,134,8,1,,,,,,,,
,,,,,,,,,,,,,FF,,,,,,,,0.7522,,,,,,,,,,,,,,,,,,,,,,6100eac72b0f00b188e9a386,6103699d8b767ec6c339552a,2021-07-29_19h54.04.772,Simcolourproject_2stim_asymm_v5,2020.2.10,MacIntel,60,61025ae37ef11b136ea224fe,,,,,,,,,3825,-18.015625,-62.7578125,1,0,0,response5disk,,3,13.59375,5.4453125,1,0,0,rectangle,13.59375,5.4453125,1,0,0,13.59375,5.4453125,1,0,0,0,135,135,90,1,,,,,,,,
,,,,,,,,,,,,,FF,,,,,,,,0.7347,,,,,,,,,,,,,,,,,,,,,,6100eac72b0f00b188e9a386,6103699d8b767ec6c339552a,2021-07-29_19h54.04.772,Simcolourproject_2stim_asymm_v5,2020.2.10,MacIntel,60,61025ae37ef11b136ea224fe,,,,,,,,,2773,61.09765625,-19.0625,1,0,0,response3disk,,5,24.19921875,2.921875,1,0,0,rectangle,24.19921875,2.921875,1,0,0,24.19921875,2.921875,1,0,0,0,136,136,44,1,,,,,,,,
,,,,,,,,,,,,,FF,,,,,,,,0.6689,,,,,,,,,,,,,,,,,,,,,,6100eac72b0f00b188e9a386,6103699d8b767ec6c339552a,2021-07-29_19h54.04.772,Simcolourproject_2stim_asymm_v5,2020.2.10,MacIntel,60,61025ae37ef11b136ea224fe,,,,,,,,,3403,-16.51171875,-41.78125,1,0,0,response5disk,,3,-7.23046875,-4.47265625,1,0,0,rectangle,-7.23046875,-4.47265625,1,0,0,-7.23046875,-4.47265625,1,0,0,0,137,137,111,1,,,,,,,,
,,,,,,,,,,,,,FF,,,,,,,,0.8189,,,,,,,,,,,,,,,,,,,,,,6100eac72b0f00b188e9a386,6103699d8b767ec6c339552a,2021-07-29_19h54.04.772,Simcolourproject_2stim_asymm_v5,2020.2.10,MacIntel,60,61025ae37ef11b136ea224fe,,,,,,,,,2450,-60.58203125,-26.18359375,1,0,0,response5disk,,2,-18.59375,-8.83984375,1,0,0,rectangle,-18.59375,-8.83984375,1,0,0,-18.59375,-8.83984375,1,0,0,0,138,138,79,1,,,,,,,,
,,,,,,,,,,,,,FF,,,,,,,,0.7015,,,,,,,,,,,,,,,,,,,,,,6100eac72b0f00b188e9a386,6103699d8b767ec6c339552a,2021-07-29_19h54.04.772,Simcolourproject_2stim_asymm_v5,2020.2.10,MacIntel,60,61025ae37ef11b136ea224fe,,,,,,,,,1941,69.73046875,-23.6484375,1,0,0,response3disk,,5,3.90625,-6.1796875,1,0,0,rectangle,3.90625,-6.1796875,1,0,0,3.90625,-6.1796875,1,0,0,0,139,139,47,1,,,,,,,,
,,,,,,,,,,,,,FF,,,,,,,,0.6897,,,,,,,,,,,,,,,,,,,,,,6100eac72b0f00b188e9a386,6103699d8b767ec6c339552a,2021-07-29_19h54.04.772,Simcolourproject_2stim_asymm_v5,2020.2.10,MacIntel,60,61025ae37ef11b136ea224fe,,,,,,,,,1598,-14.328125,-65.5390625,1,0,0,response5disk,,3,-12.44140625,-9.2109375,1,0,0,rectangle,-12.44140625,-9.2109375,1,0,0,-12.44140625,-9.2109375,1,0,0,0,140,140,59,1,,,,,,,,
,,,,,,,,,,,,,FF,,,,,,,,0.5847,,,,,,,,,,,,,,,,,,,,,,6100eac72b0f00b188e9a386,6103699d8b767ec6c339552a,2021-07-29_19h54.04.772,Simcolourproject_2stim_asymm_v5,2020.2.10,MacIntel,60,61025ae37ef11b136ea224fe,,,,,,,,,1251,52.82421875,-20.4296875,1,0,0,response3disk,,5,8.046875,4.70703125,1,0,0,rectangle,8.046875,4.70703125,1,0,0,8.046875,4.70703125,1,0,0,0,141,141,129,1,,,,,,,,
,,,,,,,,,,,,,FF,,,,,,,,1.0018,,,,,,,,,,,,,,,,,,,,,,6100eac72b0f00b188e9a386,6103699d8b767ec6c339552a,2021-07-29_19h54.04.772,Simcolourproject_2stim_asymm_v5,2020.2.10,MacIntel,60,61025ae37ef11b136ea224fe,,,,,,,,,3342,28.1171875,55.69140625,1,0,0,response1disk,,7,19.30078125,8.33203125,1,0,0,rectangle,19.30078125,8.33203125,1,0,0,19.30078125,8.33203125,1,0,0,0,142,142,3,1,,,,,,,,
,,,,,,,,,,,,,FF,,,,,,,,0.6345,,,,,,,,,,,,,,,,,,,,,,6100eac72b0f00b188e9a386,6103699d8b767ec6c339552a,2021-07-29_19h54.04.772,Simcolourproject_2stim_asymm_v5,2020.2.10,MacIntel,60,61025ae37ef11b136ea224fe,,,,,,,,,1798,48.20703125,-23.86328125,1,0,0,response3disk,,5,8.4140625,-3.6953125,1,0,0,rectangle,8.4140625,-3.6953125,1,0,0,8.4140625,-3.6953125,1,0,0,0,143,143,76,1,,,,,,,,
,,,,,,,,,,,,,FF,,,,,,,,0.651,,,,,,,,,,,,,,,,,,,,,,6100eac72b0f00b188e9a386,6103699d8b767ec6c339552a,2021-07-29_19h54.04.772,Simcolourproject_2stim_asymm_v5,2020.2.10,MacIntel,60,61025ae37ef11b136ea224fe,,,,,,,,,2781,-24.58203125,-54.34375,1,0,0,response5disk,,3,4.65625,3.15234375,1,0,0,rectangle,4.65625,3.15234375,1,0,0,4.65625,3.15234375,1,0,0,0,144,144,152,1,,,,,,,,
,,,,,,,,,,,,,FF,,,,,,,,0.6853,,,,,,,,,,,,,,,,,,,,,,6100eac72b0f00b188e9a386,6103699d8b767ec6c339552a,2021-07-29_19h54.04.772,Simcolourproject_2stim_asymm_v5,2020.2.10,MacIntel,60,61025ae37ef11b136ea224fe,,,,,,,,,3652,41.9453125,51.6796875,1,0,0,response1disk,,7,15.16015625,-2.828125,1,0,0,rectangle,15.16015625,-2.828125,1,0,0,15.16015625,-2.828125,1,0,0,0,145,145,69,1,,,,,,,,
,,,,,,,,,,,,,FF,,,,,,,,0.6527,,,,,,,,,,,,,,,,,,,,,,6100eac72b0f00b188e9a386,6103699d8b767ec6c339552a,2021-07-29_19h54.04.772,Simcolourproject_2stim_asymm_v5,2020.2.10,MacIntel,60,61025ae37ef11b136ea224fe,,,,,,,,,545,-26.21484375,-46.88671875,1,0,0,response5disk,,3,-5.484375,-4.74609375,1,0,0,rectangle,-5.484375,-4.74609375,1,0,0,-5.484375,-4.74609375,1,0,0,0,146,146,151,1,,,,,,,,
,,,,,,,,,,,,,FF,,,,,,,,0.5861,,,,,,,,,,,,,,,,,,,,,,6100eac72b0f00b188e9a386,6103699d8b767ec6c339552a,2021-07-29_19h54.04.772,Simcolourproject_2stim_asymm_v5,2020.2.10,MacIntel,60,61025ae37ef11b136ea224fe,,,,,,,,,3570,44.5,-22.28125,1,0,0,response3disk,,5,23.875,-3.4609375,1,0,0,rectangle,23.875,-3.4609375,1,0,0,23.875,-3.4609375,1,0,0,0,147,147,143,1,,,,,,,,
,,,,,,,,,,,,,FF,,,,,,,,1.152,,,,,,,,,,,,,,,,,,,,,,6100eac72b0f00b188e9a386,6103699d8b767ec6c339552a,2021-07-29_19h54.04.772,Simcolourproject_2stim_asymm_v5,2020.2.10,MacIntel,60,61025ae37ef11b136ea224fe,,,,,,,,,2912,-28.125,-85.55078125,1,0,0,response5disk,,3,12.51171875,-2.39453125,1,0,0,rectangle,12.51171875,-2.39453125,1,0,0,12.51171875,-2.39453125,1,0,0,0,148,148,58,1,,,,,,,,
,,,,,,,,,,,,,FF,,,,,,,,0.4857,,,,,,,,,,,,,,,,,,,,,,6100eac72b0f00b188e9a386,6103699d8b767ec6c339552a,2021-07-29_19h54.04.772,Simcolourproject_2stim_asymm_v5,2020.2.10,MacIntel,60,61025ae37ef11b136ea224fe,,,,,,,,,335,46.69140625,29.31640625,1,0,0,response1disk,,6,13.3203125,-2.42578125,1,0,0,rectangle,13.3203125,-2.42578125,1,0,0,13.3203125,-2.42578125,1,0,0,0,149,149,13,1,,,,,,,,
,,,,,,,,,,,,,FF,,,,,,,,0.7513,,,,,,,,,,,,,,,,,,,,,,6100eac72b0f00b188e9a386,6103699d8b767ec6c339552a,2021-07-29_19h54.04.772,Simcolourproject_2stim_asymm_v5,2020.2.10,MacIntel,60,61025ae37ef11b136ea224fe,,,,,,,,,2552,-39,16.96875,1,0,0,response7disk,,1,14.703125,0.81640625,1,0,0,rectangle,14.703125,0.81640625,1,0,0,14.703125,0.81640625,1,0,0,0,150,150,78,1,,,,,,,,
,,,,,,,,,,,,,FF,,,,,,,,0.704,,,,,,,,,,,,,,,,,,,,,,6100eac72b0f00b188e9a386,6103699d8b767ec6c339552a,2021-07-29_19h54.04.772,Simcolourproject_2stim_asymm_v5,2020.2.10,MacIntel,60,61025ae37ef11b136ea224fe,,,,,,,,,1740,63.140625,25.59375,1,0,0,response1disk,,6,9.05078125,1.5546875,1,0,0,rectangle,9.05078125,1.5546875,1,0,0,9.05078125,1.5546875,1,0,0,0,151,151,94,1,,,,,,,,
,,,,,,,,,,,,,FF,,,,,,,,0.5198,,,,,,,,,,,,,,,,,,,,,,6100eac72b0f00b188e9a386,6103699d8b767ec6c339552a,2021-07-29_19h54.04.772,Simcolourproject_2stim_asymm_v5,2020.2.10,MacIntel,60,61025ae37ef11b136ea224fe,,,,,,,,,64,-19.8671875,-61.8828125,1,0,0,response5disk,,3,14.39453125,4.0078125,1,0,0,rectangle,14.39453125,4.0078125,1,0,0,14.39453125,4.0078125,1,0,0,0,152,152,5,1,,,,,,,,
,,,,,,,,,,,,,FF,,,,,,,,0.5684,,,,,,,,,,,,,,,,,,,,,,6100eac72b0f00b188e9a386,6103699d8b767ec6c339552a,2021-07-29_19h54.04.772,Simcolourproject_2stim_asymm_v5,2020.2.10,MacIntel,60,61025ae37ef11b136ea224fe,,,,,,,,,472,56.5703125,-23.20703125,1,0,0,response3disk,,5,15.60546875,2.0078125,1,0,0,rectangle,15.60546875,2.0078125,1,0,0,15.60546875,2.0078125,1,0,0,0,153,153,148,1,,,,,,,,
,,,,,,,,,,,,,FF,,,,,,,,0.535,,,,,,,,,,,,,,,,,,,,,,6100eac72b0f00b188e9a386,6103699d8b767ec6c339552a,2021-07-29_19h54.04.772,Simcolourproject_2stim_asymm_v5,2020.2.10,MacIntel,60,61025ae37ef11b136ea224fe,,,,,,,,,3776,-45.85546875,-30.6796875,1,0,0,response5disk,,2,-2.8984375,-2.9296875,1,0,0,rectangle,-2.8984375,-2.9296875,1,0,0,-2.8984375,-2.9296875,1,0,0,0,154,154,29,1,,,,,,,,
,,,,,,,,,,,,,FF,,,,,,,,1.1344,,,,,,,,,,,,,,,,,,,,,,6100eac72b0f00b188e9a386,6103699d8b767ec6c339552a,2021-07-29_19h54.04.772,Simcolourproject_2stim_asymm_v5,2020.2.10,MacIntel,60,61025ae37ef11b136ea224fe,,,,,,,,,3398,29.04296875,-53.36328125,1,0,0,response3disk,,4,5.8671875,-9.7734375,1,0,0,rectangle,5.8671875,-9.7734375,1,0,0,5.8671875,-9.7734375,1,0,0,0,155,155,53,1,,,,,,,,
,,,,,,,,,,,,,FF,,,,,,,,0.6996,,,,,,,,,,,,,,,,,,,,,,6100eac72b0f00b188e9a386,6103699d8b767ec6c339552a,2021-07-29_19h54.04.772,Simcolourproject_2stim_asymm_v5,2020.2.10,MacIntel,60,61025ae37ef11b136ea224fe,,,,,,,,,3405,25.77734375,57.83203125,1,0,0,response1disk,,7,9.296875,16.73046875,1,0,0,rectangle,9.296875,16.73046875,1,0,0,9.296875,16.73046875,1,0,0,0,156,156,2,1,,,,,,,,
,,,,,,,,,,,,,FF,,,,,,,,0.6185,,,,,,,,,,,,,,,,,,,,,,6100eac72b0f00b188e9a386,6103699d8b767ec6c339552a,2021-07-29_19h54.04.772,Simcolourproject_2stim_asymm_v5,2020.2.10,MacIntel,60,61025ae37ef11b136ea224fe,,,,,,,,,1510,48.0234375,-23.2265625,1,0,0,response3disk,,5,4.51171875,-4.546875,1,0,0,rectangle,4.51171875,-4.546875,1,0,0,4.51171875,-4.546875,1,0,0,0,157,157,15,1,,,,,,,,
,,,,,,,,,,,,,FF,,,,,,,,0.8169,,,,,,,,,,,,,,,,,,,,,,6100eac72b0f00b188e9a386,6103699d8b767ec6c339552a,2021-07-29_19h54.04.772,Simcolourproject_2stim_asymm_v5,2020.2.10,MacIntel,60,61025ae37ef11b136ea224fe,,,,,,,,,2798,30.95703125,56.33984375,1,0,0,response1disk,,7,0.4296875,-13.421875,1,0,0,rectangle,0.4296875,-13.421875,1,0,0,0.4296875,-13.421875,1,0,0,0,158,158,97,1,,,,,,,,
,,,,,,,,,,,,,FF,,,,,,,,0.4347,,,,,,,,,,,,,,,,,,,,,,6100eac72b0f00b188e9a386,6103699d8b767ec6c339552a,2021-07-29_19h54.04.772,Simcolourproject_2stim_asymm_v5,2020.2.10,MacIntel,60,61025ae37ef11b136ea224fe,,,,,,,,,1931,-45.7734375,-27.55859375,1,0,0,response5disk,,2,0.26953125,3.8515625,1,0,0,rectangle,0.26953125,3.8515625,1,0,0,0.26953125,3.8515625,1,0,0,0,159,159,26,1,,,,,,,,
,,,,,,,,,,,,,FF,,,,,,,,0.8696,,,,,,,,,,,,,,,,,,,,,,6100eac72b0f00b188e9a386,6103699d8b767ec6c339552a,2021-07-29_19h54.04.772,Simcolourproject_2stim_asymm_v5,2020.2.10,MacIntel,60,61025ae37ef11b136ea224fe,,,,,,,,,1296,29.33203125,49.89453125,1,0,0,response1disk,,7,27.99609375,7.9765625,1,0,0,rectangle,27.99609375,7.9765625,1,0,0,27.99609375,7.9765625,1,0,0,1,0,160,87,1,,,,,,,,
,,,,,,,,,,,,,FF,,,,,,,,0.6674,,,,,,,,,,,,,,,,,,,,,,6100eac72b0f00b188e9a386,6103699d8b767ec6c339552a,2021-07-29_19h54.04.772,Simcolourproject_2stim_asymm_v5,2020.2.10,MacIntel,60,61025ae37ef11b136ea224fe,,,,,,,,,2719,51.734375,-18.99609375,1,0,0,response3disk,,5,19.21875,4.52734375,1,0,0,rectangle,19.21875,4.52734375,1,0,0,19.21875,4.52734375,1,0,0,1,1,161,43,1,,,,,,,,
,,,,,,,,,,,,,FF,,,,,,,,0.6491,,,,,,,,,,,,,,,,,,,,,,6100eac72b0f00b188e9a386,6103699d8b767ec6c339552a,2021-07-29_19h54.04.772,Simcolourproject_2stim_asymm_v5,2020.2.10,MacIntel,60,61025ae37ef11b136ea224fe,,,,,,,,,1343,29.96875,-58.29296875,1,0,0,response3disk,,4,14.265625,-7.3828125,1,0,0,rectangle,14.265625,-7.3828125,1,0,0,14.265625,-7.3828125,1,0,0,1,2,162,79,1,,,,,,,,
,,,,,,,,,,,,,FF,,,,,,,,0.6339,,,,,,,,,,,,,,,,,,,,,,6100eac72b0f00b188e9a386,6103699d8b767ec6c339552a,2021-07-29_19h54.04.772,Simcolourproject_2stim_asymm_v5,2020.2.10,MacIntel,60,61025ae37ef11b136ea224fe,,,,,,,,,1230,-39.14453125,-23.55078125,1,0,0,response5disk,,2,8.33203125,-1.53125,1,0,0,rectangle,8.33203125,-1.53125,1,0,0,8.33203125,-1.53125,1,0,0,1,3,163,68,1,,,,,,,,
,,,,,,,,,,,,,FF,,,,,,,,0.9682,,,,,,,,,,,,,,,,,,,,,,6100eac72b0f00b188e9a386,6103699d8b767ec6c339552a,2021-07-29_19h54.04.772,Simcolourproject_2stim_asymm_v5,2020.2.10,MacIntel,60,61025ae37ef11b136ea224fe,,,,,,,,,3630,-22.88671875,62.03515625,1,0,0,response7disk,,0,1.46875,11.03125,1,0,0,rectangle,1.46875,11.03125,1,0,0,1.46875,11.03125,1,0,0,1,4,164,108,1,,,,,,,,
,,,,,,,,,,,,,FF,,,,,,,,0.6681,,,,,,,,,,,,,,,,,,,,,,6100eac72b0f00b188e9a386,6103699d8b767ec6c339552a,2021-07-29_19h54.04.772,Simcolourproject_2stim_asymm_v5,2020.2.10,MacIntel,60,61025ae37ef11b136ea224fe,,,,,,,,,3815,-40.734375,54.91796875,1,0,0,response7disk,,0,-15.0390625,4.8046875,1,0,0,rectangle,-15.0390625,4.8046875,1,0,0,-15.0390625,4.8046875,1,0,0,1,5,165,149,1,,,,,,,,
,,,,,,,,,,,,,FF,,,,,,,,0.6678,,,,,,,,,,,,,,,,,,,,,,6100eac72b0f00b188e9a386,6103699d8b767ec6c339552a,2021-07-29_19h54.04.772,Simcolourproject_2stim_asymm_v5,2020.2.10,MacIntel,60,61025ae37ef11b136ea224fe,,,,,,,,,4257,37.42578125,66.38671875,1,0,0,response1disk,,7,33.2109375,6.609375,1,0,0,rectangle,33.2109375,6.609375,1,0,0,33.2109375,6.609375,1,0,0,1,6,166,54,1,,,,,,,,
,,,,,,,,,,,,,FF,,,,,,,,0.77,,,,,,,,,,,,,,,,,,,,,,6100eac72b0f00b188e9a386,6103699d8b767ec6c339552a,2021-07-29_19h54.04.772,Simcolourproject_2stim_asymm_v5,2020.2.10,MacIntel,60,61025ae37ef11b136ea224fe,,,,,,,,,3173,-33.4375,12.0390625,1,0,0,response7disk,,1,-1.03515625,-12.97265625,1,0,0,rectangle,-1.03515625,-12.97265625,1,0,0,-1.03515625,-12.97265625,1,0,0,1,7,167,4,1,,,,,,,,
,,,,,,,,,,,,,FF,,,,,,,,0.7018,,,,,,,,,,,,,,,,,,,,,,6100eac72b0f00b188e9a386,6103699d8b767ec6c339552a,2021-07-29_19h54.04.772,Simcolourproject_2stim_asymm_v5,2020.2.10,MacIntel,60,61025ae37ef11b136ea224fe,,,,,,,,,1790,35.109375,50.140625,1,0,0,response1disk,,7,19.11328125,5.1484375,1,0,0,rectangle,19.11328125,5.1484375,1,0,0,19.11328125,5.1484375,1,0,0,1,8,168,58,1,,,,,,,,
,,,,,,,,,,,,,FF,,,,,,,,0.4337,,,,,,,,,,,,,,,,,,,,,,6100eac72b0f00b188e9a386,6103699d8b767ec6c339552a,2021-07-29_19h54.04.772,Simcolourproject_2stim_asymm_v5,2020.2.10,MacIntel,60,61025ae37ef11b136ea224fe,,,,,,,,,854,54.015625,-27.3203125,1,0,0,response3disk,,5,13.80859375,-14.7578125,1,0,0,rectangle,13.80859375,-14.7578125,1,0,0,13.80859375,-14.7578125,1,0,0,1,9,169,81,1,,,,,,,,
,,,,,,,,,,,,,FF,,,,,,,,0.5517,,,,,,,,,,,,,,,,,,,,,,6100eac72b0f00b188e9a386,6103699d8b767ec6c339552a,2021-07-29_19h54.04.772,Simcolourproject_2stim_asymm_v5,2020.2.10,MacIntel,60,61025ae37ef11b136ea224fe,,,,,,,,,2434,-34.375,-56.03515625,1,0,0,response5disk,,3,3.3046875,6.87109375,1,0,0,rectangle,3.3046875,6.87109375,1,0,0,3.3046875,6.87109375,1,0,0,1,10,170,116,1,,,,,,,,
,,,,,,,,,,,,,FF,,,,,,,,0.5842,,,,,,,,,,,,,,,,,,,,,,6100eac72b0f00b188e9a386,6103699d8b767ec6c339552a,2021-07-29_19h54.04.772,Simcolourproject_2stim_asymm_v5,2020.2.10,MacIntel,60,61025ae37ef11b136ea224fe,,,,,,,,,144,64.953125,25.92578125,1,0,0,response1disk,,6,-1.1796875,-6.77734375,1,0,0,rectangle,72.75390625,36.578125,1,0,0,6.76171875,-6.01171875,1,0,0,1,11,171,45,1,,response1disk_3,TRUE,6,6,"[212,48,24,259,172,281,253,15,34,214,111,203,62,71,267,55,96,315,197,110]",1.3863,rectangle
,,,,,,,,,,,,,FF,,,,,,,,0.718,,,,,,,,,,,,,,,,,,,,,,6100eac72b0f00b188e9a386,6103699d8b767ec6c339552a,2021-07-29_19h54.04.772,Simcolourproject_2stim_asymm_v5,2020.2.10,MacIntel,60,61025ae37ef11b136ea224fe,,,,,,,,,1224,-48.58203125,-26.8046875,1,0,0,response5disk,,2,-14.4609375,-12.25390625,1,0,0,rectangle,-14.4609375,-12.25390625,1,0,0,-14.4609375,-12.25390625,1,0,0,1,12,172,156,1,,,,,,,,
,,,,,,,,,,,,,FF,,,,,,,,0.5518,,,,,,,,,,,,,,,,,,,,,,6100eac72b0f00b188e9a386,6103699d8b767ec6c339552a,2021-07-29_19h54.04.772,Simcolourproject_2stim_asymm_v5,2020.2.10,MacIntel,60,61025ae37ef11b136ea224fe,,,,,,,,,460,49.81640625,-27.59375,1,0,0,response3disk,,5,21.125,4.74609375,1,0,0,rectangle,21.125,4.74609375,1,0,0,21.125,4.74609375,1,0,0,1,13,173,146,1,,,,,,,,
,,,,,,,,,,,,,FF,,,,,,,,0.5687,,,,,,,,,,,,,,,,,,,,,,6100eac72b0f00b188e9a386,6103699d8b767ec6c339552a,2021-07-29_19h54.04.772,Simcolourproject_2stim_asymm_v5,2020.2.10,MacIntel,60,61025ae37ef11b136ea224fe,,,,,,,,,2020,-27.22265625,-56.04296875,1,0,0,response5disk,,3,-4.83203125,-3.0703125,1,0,0,rectangle,-4.83203125,-3.0703125,1,0,0,-4.83203125,-3.0703125,1,0,0,1,14,174,134,1,,,,,,,,
,,,,,,,,,,,,,FF,,,,,,,,0.5843,,,,,,,,,,,,,,,,,,,,,,6100eac72b0f00b188e9a386,6103699d8b767ec6c339552a,2021-07-29_19h54.04.772,Simcolourproject_2stim_asymm_v5,2020.2.10,MacIntel,60,61025ae37ef11b136ea224fe,,,,,,,,,768,48.22265625,-20.4140625,1,0,0,response3disk,,5,22.53125,-1.09375,1,0,0,rectangle,22.53125,-1.09375,1,0,0,22.53125,-1.09375,1,0,0,1,15,175,50,1,,,,,,,,
,,,,,,,,,,,,,FF,,,,,,,,0.4523,,,,,,,,,,,,,,,,,,,,,,6100eac72b0f00b188e9a386,6103699d8b767ec6c339552a,2021-07-29_19h54.04.772,Simcolourproject_2stim_asymm_v5,2020.2.10,MacIntel,60,61025ae37ef11b136ea224fe,,,,,,,,,2272,-37.90234375,-41.2734375,1,0,0,response5disk,,3,-20.33984375,-16.75,1,0,0,rectangle,-20.33984375,-16.75,1,0,0,-20.33984375,-16.75,1,0,0,1,16,176,92,1,,,,,,,,
,,,,,,,,,,,,,FF,,,,,,,,0.5016,,,,,,,,,,,,,,,,,,,,,,6100eac72b0f00b188e9a386,6103699d8b767ec6c339552a,2021-07-29_19h54.04.772,Simcolourproject_2stim_asymm_v5,2020.2.10,MacIntel,60,61025ae37ef11b136ea224fe,,,,,,,,,1542,72.25,19.0703125,1,0,0,response1disk,,6,5.203125,-0.66796875,1,0,0,rectangle,5.203125,-0.66796875,1,0,0,5.203125,-0.66796875,1,0,0,1,17,177,52,1,,,,,,,,
,,,,,,,,,,,,,FF,,,,,,,,0.4178,,,,,,,,,,,,,,,,,,,,,,6100eac72b0f00b188e9a386,6103699d8b767ec6c339552a,2021-07-29_19h54.04.772,Simcolourproject_2stim_asymm_v5,2020.2.10,MacIntel,60,61025ae37ef11b136ea224fe,,,,,,,,,2107,-54.37890625,-35.609375,1,0,0,response5disk,,2,1.6796875,-6.921875,1,0,0,rectangle,1.6796875,-6.921875,1,0,0,1.6796875,-6.921875,1,0,0,1,18,178,78,1,,,,,,,,
,,,,,,,,,,,,,FF,,,,,,,,0.4511,,,,,,,,,,,,,,,,,,,,,,6100eac72b0f00b188e9a386,6103699d8b767ec6c339552a,2021-07-29_19h54.04.772,Simcolourproject_2stim_asymm_v5,2020.2.10,MacIntel,60,61025ae37ef11b136ea224fe,,,,,,,,,1202,75.89453125,-43.96875,1,0,0,response3disk,,5,10.80078125,-2.80078125,1,0,0,rectangle,10.80078125,-2.80078125,1,0,0,10.80078125,-2.80078125,1,0,0,1,19,179,31,1,,,,,,,,
,,,,,,,,,,,,,FF,,,,,,,,0.3853,,,,,,,,,,,,,,,,,,,,,,6100eac72b0f00b188e9a386,6103699d8b767ec6c339552a,2021-07-29_19h54.04.772,Simcolourproject_2stim_asymm_v5,2020.2.10,MacIntel,60,61025ae37ef11b136ea224fe,,,,,,,,,2954,-33.76953125,-53.61328125,1,0,0,response5disk,,3,-5.046875,-1.61328125,1,0,0,rectangle,-5.046875,-1.61328125,1,0,0,-5.046875,-1.61328125,1,0,0,1,20,180,37,1,,,,,,,,
,,,,,,,,,,,,,FF,,,,,,,,0.6677,,,,,,,,,,,,,,,,,,,,,,6100eac72b0f00b188e9a386,6103699d8b767ec6c339552a,2021-07-29_19h54.04.772,Simcolourproject_2stim_asymm_v5,2020.2.10,MacIntel,60,61025ae37ef11b136ea224fe,,,,,,,,,658,52.35546875,18.91015625,1,0,0,response1disk,,6,11.5,11.44921875,1,0,0,rectangle,11.5,11.44921875,1,0,0,11.5,11.44921875,1,0,0,1,21,181,56,1,,,,,,,,
,,,,,,,,,,,,,FF,,,,,,,,0.4697,,,,,,,,,,,,,,,,,,,,,,6100eac72b0f00b188e9a386,6103699d8b767ec6c339552a,2021-07-29_19h54.04.772,Simcolourproject_2stim_asymm_v5,2020.2.10,MacIntel,60,61025ae37ef11b136ea224fe,,,,,,,,,961,-21.9609375,-63.125,1,0,0,response5disk,,3,9.953125,4.26171875,1,0,0,rectangle,9.953125,4.26171875,1,0,0,9.953125,4.26171875,1,0,0,1,22,182,90,1,,,,,,,,
,,,,,,,,,,,,,FF,,,,,,,,0.6697,,,,,,,,,,,,,,,,,,,,,,6100eac72b0f00b188e9a386,6103699d8b767ec6c339552a,2021-07-29_19h54.04.772,Simcolourproject_2stim_asymm_v5,2020.2.10,MacIntel,60,61025ae37ef11b136ea224fe,,,,,,,,,1730,62.44921875,-30.83203125,1,0,0,response3disk,,5,9.921875,11.7421875,1,0,0,rectangle,9.921875,11.7421875,1,0,0,9.921875,11.7421875,1,0,0,1,23,183,117,1,,,,,,,,
,,,,,,,,,,,,,FF,,,,,,,,0.4654,,,,,,,,,,,,,,,,,,,,,,6100eac72b0f00b188e9a386,6103699d8b767ec6c339552a,2021-07-29_19h54.04.772,Simcolourproject_2stim_asymm_v5,2020.2.10,MacIntel,60,61025ae37ef11b136ea224fe,,,,,,,,,1231,63.875,20.9453125,1,0,0,response1disk,,6,-0.31640625,5.5234375,1,0,0,rectangle,-0.31640625,5.5234375,1,0,0,-0.31640625,5.5234375,1,0,0,1,24,184,123,1,,,,,,,,
,,,,,,,,,,,,,FF,,,,,,,,0.4669,,,,,,,,,,,,,,,,,,,,,,6100eac72b0f00b188e9a386,6103699d8b767ec6c339552a,2021-07-29_19h54.04.772,Simcolourproject_2stim_asymm_v5,2020.2.10,MacIntel,60,61025ae37ef11b136ea224fe,,,,,,,,,3464,-20.96875,-41.69140625,1,0,0,response5disk,,3,-6.90234375,2.015625,1,0,0,rectangle,-6.90234375,2.015625,1,0,0,-6.90234375,2.015625,1,0,0,1,25,185,89,1,,,,,,,,
,,,,,,,,,,,,,FF,,,,,,,,0.5204,,,,,,,,,,,,,,,,,,,,,,6100eac72b0f00b188e9a386,6103699d8b767ec6c339552a,2021-07-29_19h54.04.772,Simcolourproject_2stim_asymm_v5,2020.2.10,MacIntel,60,61025ae37ef11b136ea224fe,,,,,,,,,623,56.859375,16.6015625,1,0,0,response1disk,,6,9.63671875,-4.2109375,1,0,0,rectangle,9.63671875,-4.2109375,1,0,0,9.63671875,-4.2109375,1,0,0,1,26,186,154,1,,,,,,,,
,,,,,,,,,,,,,FF,,,,,,,,0.5523,,,,,,,,,,,,,,,,,,,,,,6100eac72b0f00b188e9a386,6103699d8b767ec6c339552a,2021-07-29_19h54.04.772,Simcolourproject_2stim_asymm_v5,2020.2.10,MacIntel,60,61025ae37ef11b136ea224fe,,,,,,,,,2076,40.14453125,-27.625,1,0,0,response3disk,,5,15.81640625,-12.9765625,1,0,0,rectangle,15.81640625,-12.9765625,1,0,0,15.81640625,-12.9765625,1,0,0,1,27,187,131,1,,,,,,,,
,,,,,,,,,,,,,FF,,,,,,,,0.4183,,,,,,,,,,,,,,,,,,,,,,6100eac72b0f00b188e9a386,6103699d8b767ec6c339552a,2021-07-29_19h54.04.772,Simcolourproject_2stim_asymm_v5,2020.2.10,MacIntel,60,61025ae37ef11b136ea224fe,,,,,,,,,1777,-50.03515625,-34.234375,1,0,0,response5disk,,2,-3.1015625,-9.5390625,1,0,0,rectangle,-3.1015625,-9.5390625,1,0,0,-3.1015625,-9.5390625,1,0,0,1,28,188,63,1,,,,,,,,
,,,,,,,,,,,,,FF,,,,,,,,0.5497,,,,,,,,,,,,,,,,,,,,,,6100eac72b0f00b188e9a386,6103699d8b767ec6c339552a,2021-07-29_19h54.04.772,Simcolourproject_2stim_asymm_v5,2020.2.10,MacIntel,60,61025ae37ef11b136ea224fe,,,,,,,,,3770,56.9453125,21.25390625,1,0,0,response1disk,,6,3.44140625,6.01171875,1,0,0,rectangle,3.44140625,6.01171875,1,0,0,3.44140625,6.01171875,1,0,0,1,29,189,143,1,,,,,,,,
,,,,,,,,,,,,,FF,,,,,,,,0.4627,,,,,,,,,,,,,,,,,,,,,,6100eac72b0f00b188e9a386,6103699d8b767ec6c339552a,2021-07-29_19h54.04.772,Simcolourproject_2stim_asymm_v5,2020.2.10,MacIntel,60,61025ae37ef11b136ea224fe,,,,,,,,,2869,-40.49609375,-31.05859375,1,0,0,response5disk,,2,5.46875,-8.17578125,1,0,0,rectangle,5.46875,-8.17578125,1,0,0,5.46875,-8.17578125,1,0,0,1,30,190,129,1,,,,,,,,
,,,,,,,,,,,,,FF,,,,,,,,0.4672,,,,,,,,,,,,,,,,,,,,,,6100eac72b0f00b188e9a386,6103699d8b767ec6c339552a,2021-07-29_19h54.04.772,Simcolourproject_2stim_asymm_v5,2020.2.10,MacIntel,60,61025ae37ef11b136ea224fe,,,,,,,,,770,58.59375,28.56640625,1,0,0,response1disk,,6,21.76171875,8.2109375,1,0,0,rectangle,21.76171875,8.2109375,1,0,0,21.76171875,8.2109375,1,0,0,1,31,191,94,1,,,,,,,,
,,,,,,,,,,,,,FF,,,,,,,,2.758,,,,,,,,,,,,,,,,,,,,,,6100eac72b0f00b188e9a386,6103699d8b767ec6c339552a,2021-07-29_19h54.04.772,Simcolourproject_2stim_asymm_v5,2020.2.10,MacIntel,60,61025ae37ef11b136ea224fe,,,,,,,,,3019,-37.6484375,-73.7734375,1,0,0,response5disk,,3,14.3828125,1.71484375,1,0,0,rectangle,14.3828125,1.71484375,1,0,0,14.3828125,1.71484375,1,0,0,1,32,192,51,1,,,,,,,,
,,,,,,,,,,,,,FF,,,,,,,,1.0191,,,,,,,,,,,,,,,,,,,,,,6100eac72b0f00b188e9a386,6103699d8b767ec6c339552a,2021-07-29_19h54.04.772,Simcolourproject_2stim_asymm_v5,2020.2.10,MacIntel,60,61025ae37ef11b136ea224fe,,,,,,,,,3245,-21.17578125,65.53125,1,0,0,response7disk,,0,9.1015625,10.8359375,1,0,0,rectangle,9.1015625,10.8359375,1,0,0,9.1015625,10.8359375,1,0,0,1,33,193,113,1,,,,,,,,
,,,,,,,,,,,,,FF,,,,,,,,1.103,,,,,,,,,,,,,,,,,,,,,,6100eac72b0f00b188e9a386,6103699d8b767ec6c339552a,2021-07-29_19h54.04.772,Simcolourproject_2stim_asymm_v5,2020.2.10,MacIntel,60,61025ae37ef11b136ea224fe,,,,,,,,,2839,48.91015625,30.03125,1,0,0,response1disk,,6,-11.58984375,12.83984375,1,0,0,rectangle,-11.58984375,12.83984375,1,0,0,-11.58984375,12.83984375,1,0,0,1,34,194,114,1,,,,,,,,
,,,,,,,,,,,,,FF,,,,,,,,0.4697,,,,,,,,,,,,,,,,,,,,,,6100eac72b0f00b188e9a386,6103699d8b767ec6c339552a,2021-07-29_19h54.04.772,Simcolourproject_2stim_asymm_v5,2020.2.10,MacIntel,60,61025ae37ef11b136ea224fe,,,,,,,,,3374,44.6171875,-23.3203125,1,0,0,response3disk,,5,2.90625,8.30859375,1,0,0,rectangle,2.90625,8.30859375,1,0,0,2.90625,8.30859375,1,0,0,1,35,195,159,1,,,,,,,,
,,,,,,,,,,,,,FF,,,,,,,,0.6019,,,,,,,,,,,,,,,,,,,,,,6100eac72b0f00b188e9a386,6103699d8b767ec6c339552a,2021-07-29_19h54.04.772,Simcolourproject_2stim_asymm_v5,2020.2.10,MacIntel,60,61025ae37ef11b136ea224fe,,,,,,,,,176,45.83984375,-25.8125,1,0,0,response3disk,,5,11.79296875,-11.28125,1,0,0,rectangle,-58.75390625,22.71875,1,0,0,-12,-4.8203125,1,0,0,1,36,196,15,1,,response7disk_3,TRUE,1,1,"[212,48,24,259,172,281,253,15,34,214,111,203,62,71,267,55,96,315,197,110]",1.4038,rectangle
,,,,,,,,,,,,,FF,,,,,,,,1.5554,,,,,,,,,,,,,,,,,,,,,,6100eac72b0f00b188e9a386,6103699d8b767ec6c339552a,2021-07-29_19h54.04.772,Simcolourproject_2stim_asymm_v5,2020.2.10,MacIntel,60,61025ae37ef11b136ea224fe,,,,,,,,,1623,-27.19921875,-52.28125,1,0,0,response5disk,,3,21.390625,4.890625,1,0,0,rectangle,21.390625,4.890625,1,0,0,21.390625,4.890625,1,0,0,1,37,197,73,1,,,,,,,,
,,,,,,,,,,,,,FF,,,,,,,,1.1529,,,,,,,,,,,,,,,,,,,,,,6100eac72b0f00b188e9a386,6103699d8b767ec6c339552a,2021-07-29_19h54.04.772,Simcolourproject_2stim_asymm_v5,2020.2.10,MacIntel,60,61025ae37ef11b136ea224fe,,,,,,,,,1734,31.91015625,61.40625,1,0,0,response1disk,,7,18.3203125,-3.140625,1,0,0,rectangle,18.3203125,-3.140625,1,0,0,18.3203125,-3.140625,1,0,0,1,38,198,145,1,,,,,,,,
,,,,,,,,,,,,,FF,,,,,,,,0.6025,,,,,,,,,,,,,,,,,,,,,,6100eac72b0f00b188e9a386,6103699d8b767ec6c339552a,2021-07-29_19h54.04.772,Simcolourproject_2stim_asymm_v5,2020.2.10,MacIntel,60,61025ae37ef11b136ea224fe,,,,,,,,,925,54.33203125,-20.17578125,1,0,0,response3disk,,5,-12.96484375,4.390625,1,0,0,rectangle,-12.96484375,4.390625,1,0,0,-12.96484375,4.390625,1,0,0,1,39,199,95,1,,,,,,,,
,,,,,,,,,,,,,FF,,,,,,,,0.9056,,,,,,,,,,,,,,,,,,,,,,6100eac72b0f00b188e9a386,6103699d8b767ec6c339552a,2021-07-29_19h54.04.772,Simcolourproject_2stim_asymm_v5,2020.2.10,MacIntel,60,61025ae37ef11b136ea224fe,,,,,,,,,613,-50.1640625,31.08203125,1,0,0,response7disk,,1,-11.94140625,2.03515625,1,0,0,rectangle,-11.94140625,2.03515625,1,0,0,-11.94140625,2.03515625,1,0,0,1,40,200,147,1,,,,,,,,
,,,,,,,,,,,,,FF,,,,,,,,0.9008,,,,,,,,,,,,,,,,,,,,,,6100eac72b0f00b188e9a386,6103699d8b767ec6c339552a,2021-07-29_19h54.04.772,Simcolourproject_2stim_asymm_v5,2020.2.10,MacIntel,60,61025ae37ef11b136ea224fe,,,,,,,,,2762,48.5390625,-17.66796875,1,0,0,response3disk,,5,11.07421875,15.17578125,1,0,0,rectangle,11.07421875,15.17578125,1,0,0,11.07421875,15.17578125,1,0,0,1,41,201,24,1,,,,,,,,
,,,,,,,,,,,,,FF,,,,,,,,0.702,,,,,,,,,,,,,,,,,,,,,,6100eac72b0f00b188e9a386,6103699d8b767ec6c339552a,2021-07-29_19h54.04.772,Simcolourproject_2stim_asymm_v5,2020.2.10,MacIntel,60,61025ae37ef11b136ea224fe,,,,,,,,,1021,-28.203125,-60.4765625,1,0,0,response5disk,,3,-2.84375,-12.30078125,1,0,0,rectangle,62.01953125,-39.7890625,1,0,0,1.90625,-0.80859375,1,0,0,1,42,202,74,1,,response3disk_3,TRUE,5,5,"[212,48,24,259,172,281,253,15,34,214,111,203,62,71,267,55,96,315,197,110]",2.3232,rectangle
,,,,,,,,,,,,,FF,,,,,,,,0.8526,,,,,,,,,,,,,,,,,,,,,,6100eac72b0f00b188e9a386,6103699d8b767ec6c339552a,2021-07-29_19h54.04.772,Simcolourproject_2stim_asymm_v5,2020.2.10,MacIntel,60,61025ae37ef11b136ea224fe,,,,,,,,,458,-23.37890625,-65.93359375,1,0,0,response5disk,,3,2.4921875,13.86328125,1,0,0,rectangle,2.4921875,13.86328125,1,0,0,2.4921875,13.86328125,1,0,0,1,43,203,112,1,,,,,,,,
,,,,,,,,,,,,,FF,,,,,,,,0.7026,,,,,,,,,,,,,,,,,,,,,,6100eac72b0f00b188e9a386,6103699d8b767ec6c339552a,2021-07-29_19h54.04.772,Simcolourproject_2stim_asymm_v5,2020.2.10,MacIntel,60,61025ae37ef11b136ea224fe,,,,,,,,,47,51.8046875,-18.5703125,1,0,0,response3disk,,5,11.3046875,9.7734375,1,0,0,rectangle,11.3046875,9.7734375,1,0,0,11.3046875,9.7734375,1,0,0,1,44,204,127,1,,,,,,,,
,,,,,,,,,,,,,FF,,,,,,,,1.0203,,,,,,,,,,,,,,,,,,,,,,6100eac72b0f00b188e9a386,6103699d8b767ec6c339552a,2021-07-29_19h54.04.772,Simcolourproject_2stim_asymm_v5,2020.2.10,MacIntel,60,61025ae37ef11b136ea224fe,,,,,,,,,1954,42.88671875,-76.58984375,1,0,0,response3disk,,4,-1.2421875,2.58984375,1,0,0,rectangle,-1.2421875,2.58984375,1,0,0,-1.2421875,2.58984375,1,0,0,1,45,205,35,1,,,,,,,,
,,,,,,,,,,,,,FF,,,,,,,,0.5351,,,,,,,,,,,,,,,,,,,,,,6100eac72b0f00b188e9a386,6103699d8b767ec6c339552a,2021-07-29_19h54.04.772,Simcolourproject_2stim_asymm_v5,2020.2.10,MacIntel,60,61025ae37ef11b136ea224fe,,,,,,,,,3677,34.5625,-33.578125,1,0,0,response3disk,,5,2.5859375,11.46875,1,0,0,rectangle,2.5859375,11.46875,1,0,0,2.5859375,11.46875,1,0,0,1,46,206,57,1,,,,,,,,
,,,,,,,,,,,,,FF,,,,,,,,0.7348,,,,,,,,,,,,,,,,,,,,,,6100eac72b0f00b188e9a386,6103699d8b767ec6c339552a,2021-07-29_19h54.04.772,Simcolourproject_2stim_asymm_v5,2020.2.10,MacIntel,60,61025ae37ef11b136ea224fe,,,,,,,,,2790,56.4921875,28.75390625,1,0,0,response1disk,,6,25.140625,-1.5859375,1,0,0,rectangle,25.140625,-1.5859375,1,0,0,25.140625,-1.5859375,1,0,0,1,47,207,23,1,,,,,,,,
,,,,,,,,,,,,,FF,,,,,,,,0.6348,,,,,,,,,,,,,,,,,,,,,,6100eac72b0f00b188e9a386,6103699d8b767ec6c339552a,2021-07-29_19h54.04.772,Simcolourproject_2stim_asymm_v5,2020.2.10,MacIntel,60,61025ae37ef11b136ea224fe,,,,,,,,,159,58.8203125,25.8203125,1,0,0,response1disk,,6,4.65625,11.40625,1,0,0,rectangle,4.65625,11.40625,1,0,0,4.65625,11.40625,1,0,0,1,48,208,21,1,,,,,,,,
,,,,,,,,,,,,,FF,,,,,,,,0.6175,,,,,,,,,,,,,,,,,,,,,,6100eac72b0f00b188e9a386,6103699d8b767ec6c339552a,2021-07-29_19h54.04.772,Simcolourproject_2stim_asymm_v5,2020.2.10,MacIntel,60,61025ae37ef11b136ea224fe,,,,,,,,,2616,52.84765625,-18.8671875,1,0,0,response3disk,,5,12.12109375,1.5703125,1,0,0,rectangle,12.12109375,1.5703125,1,0,0,12.12109375,1.5703125,1,0,0,1,49,209,77,1,,,,,,,,
,,,,,,,,,,,,,FF,,,,,,,,0.535,,,,,,,,,,,,,,,,,,,,,,6100eac72b0f00b188e9a386,6103699d8b767ec6c339552a,2021-07-29_19h54.04.772,Simcolourproject_2stim_asymm_v5,2020.2.10,MacIntel,60,61025ae37ef11b136ea224fe,,,,,,,,,1867,29.91796875,-56.49609375,1,0,0,response3disk,,4,6.609375,-5.25390625,1,0,0,rectangle,6.609375,-5.25390625,1,0,0,6.609375,-5.25390625,1,0,0,1,50,210,27,1,,,,,,,,
,,,,,,,,,,,,,FF,,,,,,,,0.6009,,,,,,,,,,,,,,,,,,,,,,6100eac72b0f00b188e9a386,6103699d8b767ec6c339552a,2021-07-29_19h54.04.772,Simcolourproject_2stim_asymm_v5,2020.2.10,MacIntel,60,61025ae37ef11b136ea224fe,,,,,,,,,2785,47.890625,18.01171875,1,0,0,response1disk,,6,15.015625,3.80078125,1,0,0,rectangle,59.5546875,-34.71875,1,0,0,6.49609375,-4.32421875,1,0,0,1,51,211,84,1,,response3disk_3,TRUE,5,5,"[212,48,24,259,172,281,253,15,34,214,111,203,62,71,267,55,96,315,197,110]",1.6717,rectangle
,,,,,,,,,,,,,FF,,,,,,,,0.5159,,,,,,,,,,,,,,,,,,,,,,6100eac72b0f00b188e9a386,6103699d8b767ec6c339552a,2021-07-29_19h54.04.772,Simcolourproject_2stim_asymm_v5,2020.2.10,MacIntel,60,61025ae37ef11b136ea224fe,,,,,,,,,1005,54.0234375,-30.39453125,1,0,0,response3disk,,5,16.53515625,-3.46484375,1,0,0,rectangle,16.53515625,-3.46484375,1,0,0,16.53515625,-3.46484375,1,0,0,1,52,212,55,1,,,,,,,,
,,,,,,,,,,,,,FF,,,,,,,,0.7202,,,,,,,,,,,,,,,,,,,,,,6100eac72b0f00b188e9a386,6103699d8b767ec6c339552a,2021-07-29_19h54.04.772,Simcolourproject_2stim_asymm_v5,2020.2.10,MacIntel,60,61025ae37ef11b136ea224fe,,,,,,,,,1987,-28.70703125,-52.6875,1,0,0,response5disk,,3,-4.328125,-1.21875,1,0,0,rectangle,66.01953125,22.78515625,1,0,0,8.95703125,5.76953125,1,0,0,1,53,213,3,1,,response1disk_3,TRUE,6,6,"[212,48,24,259,172,281,253,15,34,214,111,203,62,71,267,55,96,315,197,110]",1.4866,rectangle
,,,,,,,,,,,,,FF,,,,,,,,1.4206,,,,,,,,,,,,,,,,,,,,,,6100eac72b0f00b188e9a386,6103699d8b767ec6c339552a,2021-07-29_19h54.04.772,Simcolourproject_2stim_asymm_v5,2020.2.10,MacIntel,60,61025ae37ef11b136ea224fe,,,,,,,,,383,-34.10546875,-79.08984375,1,0,0,response5disk,,3,11.25,9.9375,1,0,0,rectangle,11.25,9.9375,1,0,0,11.25,9.9375,1,0,0,1,54,214,151,1,,,,,,,,
,,,,,,,,,,,,,FF,,,,,,,,0.483,,,,,,,,,,,,,,,,,,,,,,6100eac72b0f00b188e9a386,6103699d8b767ec6c339552a,2021-07-29_19h54.04.772,Simcolourproject_2stim_asymm_v5,2020.2.10,MacIntel,60,61025ae37ef11b136ea224fe,,,,,,,,,4264,58.63671875,-25.3515625,1,0,0,response3disk,,5,0.1171875,5.625,1,0,0,rectangle,0.1171875,5.625,1,0,0,0.1171875,5.625,1,0,0,1,55,215,20,1,,,,,,,,
,,,,,,,,,,,,,FF,,,,,,,,0.5861,,,,,,,,,,,,,,,,,,,,,,6100eac72b0f00b188e9a386,6103699d8b767ec6c339552a,2021-07-29_19h54.04.772,Simcolourproject_2stim_asymm_v5,2020.2.10,MacIntel,60,61025ae37ef11b136ea224fe,,,,,,,,,539,65.05078125,-27.42578125,1,0,0,response3disk,,5,18.77734375,-1.4609375,1,0,0,rectangle,18.77734375,-1.4609375,1,0,0,18.77734375,-1.4609375,1,0,0,1,56,216,13,1,,,,,,,,
,,,,,,,,,,,,,FF,,,,,,,,0.735,,,,,,,,,,,,,,,,,,,,,,6100eac72b0f00b188e9a386,6103699d8b767ec6c339552a,2021-07-29_19h54.04.772,Simcolourproject_2stim_asymm_v5,2020.2.10,MacIntel,60,61025ae37ef11b136ea224fe,,,,,,,,,2132,-30.35546875,-57.00390625,1,0,0,response5disk,,3,3.13671875,1.03125,1,0,0,rectangle,3.13671875,1.03125,1,0,0,3.13671875,1.03125,1,0,0,1,57,217,46,1,,,,,,,,
,,,,,,,,,,,,,FF,,,,,,,,0.67,,,,,,,,,,,,,,,,,,,,,,6100eac72b0f00b188e9a386,6103699d8b767ec6c339552a,2021-07-29_19h54.04.772,Simcolourproject_2stim_asymm_v5,2020.2.10,MacIntel,60,61025ae37ef11b136ea224fe,,,,,,,,,4355,51.515625,-16.33984375,1,0,0,response3disk,,5,9.75,3.546875,1,0,0,rectangle,9.75,3.546875,1,0,0,9.75,3.546875,1,0,0,1,58,218,70,1,,,,,,,,
,,,,,,,,,,,,,FF,,,,,,,,0.6668,,,,,,,,,,,,,,,,,,,,,,6100eac72b0f00b188e9a386,6103699d8b767ec6c339552a,2021-07-29_19h54.04.772,Simcolourproject_2stim_asymm_v5,2020.2.10,MacIntel,60,61025ae37ef11b136ea224fe,,,,,,,,,1932,-27.25,-50.61328125,1,0,0,response5disk,,3,-4.953125,-10.31640625,1,0,0,rectangle,-4.953125,-10.31640625,1,0,0,-4.953125,-10.31640625,1,0,0,1,59,219,71,1,,,,,,,,
,,,,,,,,,,,,,FF,,,,,,,,0.5341,,,,,,,,,,,,,,,,,,,,,,6100eac72b0f00b188e9a386,6103699d8b767ec6c339552a,2021-07-29_19h54.04.772,Simcolourproject_2stim_asymm_v5,2020.2.10,MacIntel,60,61025ae37ef11b136ea224fe,,,,,,,,,1348,48.88671875,-16.734375,1,0,0,response3disk,,5,8.42578125,1.109375,1,0,0,rectangle,8.42578125,1.109375,1,0,0,8.42578125,1.109375,1,0,0,1,60,220,11,1,,,,,,,,
,,,,,,,,,,,,,FF,,,,,,,,0.7022,,,,,,,,,,,,,,,,,,,,,,6100eac72b0f00b188e9a386,6103699d8b767ec6c339552a,2021-07-29_19h54.04.772,Simcolourproject_2stim_asymm_v5,2020.2.10,MacIntel,60,61025ae37ef11b136ea224fe,,,,,,,,,2582,-28.05078125,-53.8671875,1,0,0,response5disk,,3,-0.56640625,-3.96484375,1,0,0,rectangle,-0.56640625,-3.96484375,1,0,0,-0.56640625,-3.96484375,1,0,0,1,61,221,60,1,,,,,,,,
,,,,,,,,,,,,,FF,,,,,,,,0.5506,,,,,,,,,,,,,,,,,,,,,,6100eac72b0f00b188e9a386,6103699d8b767ec6c339552a,2021-07-29_19h54.04.772,Simcolourproject_2stim_asymm_v5,2020.2.10,MacIntel,60,61025ae37ef11b136ea224fe,,,,,,,,,3591,57.45703125,-22.9453125,1,0,0,response3disk,,5,4.85546875,5.0703125,1,0,0,rectangle,4.85546875,5.0703125,1,0,0,4.85546875,5.0703125,1,0,0,1,62,222,67,1,,,,,,,,
,,,,,,,,,,,,,FF,,,,,,,,1.4889,,,,,,,,,,,,,,,,,,,,,,6100eac72b0f00b188e9a386,6103699d8b767ec6c339552a,2021-07-29_19h54.04.772,Simcolourproject_2stim_asymm_v5,2020.2.10,MacIntel,60,61025ae37ef11b136ea224fe,,,,,,,,,678,-67.296875,-26.6953125,1,0,0,response5disk,,2,-26.56640625,-5.1875,1,0,0,rectangle,-26.56640625,-5.1875,1,0,0,-26.56640625,-5.1875,1,0,0,1,63,223,2,1,,,,,,,,
,,,,,,,,,,,,,FF,,,,,,,,0.6356,,,,,,,,,,,,,,,,,,,,,,6100eac72b0f00b188e9a386,6103699d8b767ec6c339552a,2021-07-29_19h54.04.772,Simcolourproject_2stim_asymm_v5,2020.2.10,MacIntel,60,61025ae37ef11b136ea224fe,,,,,,,,,229,49.2578125,-29.5859375,1,0,0,response3disk,,5,0.66015625,-8.25390625,1,0,0,rectangle,0.66015625,-8.25390625,1,0,0,0.66015625,-8.25390625,1,0,0,1,64,224,137,1,,,,,,,,
,,,,,,,,,,,,,FF,,,,,,,,0.6357,,,,,,,,,,,,,,,,,,,,,,6100eac72b0f00b188e9a386,6103699d8b767ec6c339552a,2021-07-29_19h54.04.772,Simcolourproject_2stim_asymm_v5,2020.2.10,MacIntel,60,61025ae37ef11b136ea224fe,,,,,,,,,3289,50.37109375,-20.7421875,1,0,0,response3disk,,5,9.3203125,-9.56640625,1,0,0,rectangle,9.3203125,-9.56640625,1,0,0,9.3203125,-9.56640625,1,0,0,1,65,225,59,1,,,,,,,,
,,,,,,,,,,,,,FF,,,,,,,,0.6375,,,,,,,,,,,,,,,,,,,,,,6100eac72b0f00b188e9a386,6103699d8b767ec6c339552a,2021-07-29_19h54.04.772,Simcolourproject_2stim_asymm_v5,2020.2.10,MacIntel,60,61025ae37ef11b136ea224fe,,,,,,,,,1488,-26.71484375,-53.73046875,1,0,0,response5disk,,3,4.9453125,3.84765625,1,0,0,rectangle,4.9453125,3.84765625,1,0,0,4.9453125,3.84765625,1,0,0,1,66,226,29,1,,,,,,,,
,,,,,,,,,,,,,FF,,,,,,,,0.503,,,,,,,,,,,,,,,,,,,,,,6100eac72b0f00b188e9a386,6103699d8b767ec6c339552a,2021-07-29_19h54.04.772,Simcolourproject_2stim_asymm_v5,2020.2.10,MacIntel,60,61025ae37ef11b136ea224fe,,,,,,,,,1352,62.3203125,-27.76953125,1,0,0,response3disk,,5,-12.44140625,13.46484375,1,0,0,rectangle,-12.44140625,13.46484375,1,0,0,-12.44140625,13.46484375,1,0,0,1,67,227,150,1,,,,,,,,
,,,,,,,,,,,,,FF,,,,,,,,0.4848,,,,,,,,,,,,,,,,,,,,,,6100eac72b0f00b188e9a386,6103699d8b767ec6c339552a,2021-07-29_19h54.04.772,Simcolourproject_2stim_asymm_v5,2020.2.10,MacIntel,60,61025ae37ef11b136ea224fe,,,,,,,,,506,-46.40234375,-36.65234375,1,0,0,response5disk,,2,18.94921875,9.8828125,1,0,0,rectangle,18.94921875,9.8828125,1,0,0,18.94921875,9.8828125,1,0,0,1,68,228,36,1,,,,,,,,
,,,,,,,,,,,,,FF,,,,,,,,0.9353,,,,,,,,,,,,,,,,,,,,,,6100eac72b0f00b188e9a386,6103699d8b767ec6c339552a,2021-07-29_19h54.04.772,Simcolourproject_2stim_asymm_v5,2020.2.10,MacIntel,60,61025ae37ef11b136ea224fe,,,,,,,,,488,56.58984375,36.27734375,1,0,0,response1disk,,6,22.08984375,17.2421875,1,0,0,rectangle,22.08984375,17.2421875,1,0,0,22.08984375,17.2421875,1,0,0,1,69,229,152,1,,,,,,,,
,,,,,,,,,,,,,FF,,,,,,,,0.4676,,,,,,,,,,,,,,,,,,,,,,6100eac72b0f00b188e9a386,6103699d8b767ec6c339552a,2021-07-29_19h54.04.772,Simcolourproject_2stim_asymm_v5,2020.2.10,MacIntel,60,61025ae37ef11b136ea224fe,,,,,,,,,1121,52.31640625,-24.33984375,1,0,0,response3disk,,5,8.296875,-7.58203125,1,0,0,rectangle,8.296875,-7.58203125,1,0,0,8.296875,-7.58203125,1,0,0,1,70,230,5,1,,,,,,,,
,,,,,,,,,,,,,FF,,,,,,,,0.5178,,,,,,,,,,,,,,,,,,,,,,6100eac72b0f00b188e9a386,6103699d8b767ec6c339552a,2021-07-29_19h54.04.772,Simcolourproject_2stim_asymm_v5,2020.2.10,MacIntel,60,61025ae37ef11b136ea224fe,,,,,,,,,3392,-31.15234375,-52.63671875,1,0,0,response5disk,,3,12.9921875,-4.63671875,1,0,0,rectangle,12.9921875,-4.63671875,1,0,0,12.9921875,-4.63671875,1,0,0,1,71,231,47,1,,,,,,,,
,,,,,,,,,,,,,FF,,,,,,,,0.6016,,,,,,,,,,,,,,,,,,,,,,6100eac72b0f00b188e9a386,6103699d8b767ec6c339552a,2021-07-29_19h54.04.772,Simcolourproject_2stim_asymm_v5,2020.2.10,MacIntel,60,61025ae37ef11b136ea224fe,,,,,,,,,1413,59.99609375,-29.74609375,1,0,0,response3disk,,5,5.3671875,3,1,0,0,rectangle,5.3671875,3,1,0,0,5.3671875,3,1,0,0,1,72,232,96,1,,,,,,,,
,,,,,,,,,,,,,FF,,,,,,,,0.6523,,,,,,,,,,,,,,,,,,,,,,6100eac72b0f00b188e9a386,6103699d8b767ec6c339552a,2021-07-29_19h54.04.772,Simcolourproject_2stim_asymm_v5,2020.2.10,MacIntel,60,61025ae37ef11b136ea224fe,,,,,,,,,4138,-29.11328125,-58.53125,1,0,0,response5disk,,3,5.3046875,15.86328125,1,0,0,rectangle,5.3046875,15.86328125,1,0,0,5.3046875,15.86328125,1,0,0,1,73,233,101,1,,,,,,,,
,,,,,,,,,,,,,FF,,,,,,,,0.603,,,,,,,,,,,,,,,,,,,,,,6100eac72b0f00b188e9a386,6103699d8b767ec6c339552a,2021-07-29_19h54.04.772,Simcolourproject_2stim_asymm_v5,2020.2.10,MacIntel,60,61025ae37ef11b136ea224fe,,,,,,,,,1559,50.80078125,-18.40625,1,0,0,response3disk,,5,-1.453125,1.53515625,1,0,0,rectangle,-1.453125,1.53515625,1,0,0,-1.453125,1.53515625,1,0,0,1,74,234,65,1,,,,,,,,
,,,,,,,,,,,,,FF,,,,,,,,0.5194,,,,,,,,,,,,,,,,,,,,,,6100eac72b0f00b188e9a386,6103699d8b767ec6c339552a,2021-07-29_19h54.04.772,Simcolourproject_2stim_asymm_v5,2020.2.10,MacIntel,60,61025ae37ef11b136ea224fe,,,,,,,,,591,-43.5546875,-24.515625,1,0,0,response5disk,,2,2.26171875,4.7578125,1,0,0,rectangle,2.26171875,4.7578125,1,0,0,2.26171875,4.7578125,1,0,0,1,75,235,109,1,,,,,,,,
,,,,,,,,,,,,,FF,,,,,,,,0.4838,,,,,,,,,,,,,,,,,,,,,,6100eac72b0f00b188e9a386,6103699d8b767ec6c339552a,2021-07-29_19h54.04.772,Simcolourproject_2stim_asymm_v5,2020.2.10,MacIntel,60,61025ae37ef11b136ea224fe,,,,,,,,,3121,53.5703125,16.921875,1,0,0,response1disk,,6,13.21875,5.11328125,1,0,0,rectangle,13.21875,5.11328125,1,0,0,13.21875,5.11328125,1,0,0,1,76,236,28,1,,,,,,,,
,,,,,,,,,,,,,FF,,,,,,,,0.5847,,,,,,,,,,,,,,,,,,,,,,6100eac72b0f00b188e9a386,6103699d8b767ec6c339552a,2021-07-29_19h54.04.772,Simcolourproject_2stim_asymm_v5,2020.2.10,MacIntel,60,61025ae37ef11b136ea224fe,,,,,,,,,4245,-56.50390625,23.27734375,1,0,0,response7disk,,1,5.65625,-5.23046875,1,0,0,rectangle,5.65625,-5.23046875,1,0,0,5.65625,-5.23046875,1,0,0,1,77,237,118,1,,,,,,,,
,,,,,,,,,,,,,FF,,,,,,,,0.4229,,,,,,,,,,,,,,,,,,,,,,6100eac72b0f00b188e9a386,6103699d8b767ec6c339552a,2021-07-29_19h54.04.772,Simcolourproject_2stim_asymm_v5,2020.2.10,MacIntel,60,61025ae37ef11b136ea224fe,,,,,,,,,598,63.08203125,26.234375,1,0,0,response1disk,,6,-2.28125,2.3828125,1,0,0,rectangle,-2.28125,2.3828125,1,0,0,-2.28125,2.3828125,1,0,0,1,78,238,106,1,,,,,,,,
,,,,,,,,,,,,,FF,,,,,,,,0.536,,,,,,,,,,,,,,,,,,,,,,6100eac72b0f00b188e9a386,6103699d8b767ec6c339552a,2021-07-29_19h54.04.772,Simcolourproject_2stim_asymm_v5,2020.2.10,MacIntel,60,61025ae37ef11b136ea224fe,,,,,,,,,269,-22.8046875,-43.63671875,1,0,0,response5disk,,3,-5.16015625,0.56640625,1,0,0,rectangle,-5.16015625,0.56640625,1,0,0,-5.16015625,0.56640625,1,0,0,1,79,239,83,1,,,,,,,,
,,,,,,,,,,,,,FF,,,,,,,,0.4184,,,,,,,,,,,,,,,,,,,,,,6100eac72b0f00b188e9a386,6103699d8b767ec6c339552a,2021-07-29_19h54.04.772,Simcolourproject_2stim_asymm_v5,2020.2.10,MacIntel,60,61025ae37ef11b136ea224fe,,,,,,,,,3455,59.9609375,-24.6875,1,0,0,response3disk,,5,18.2578125,-2.48828125,1,0,0,rectangle,18.2578125,-2.48828125,1,0,0,18.2578125,-2.48828125,1,0,0,1,80,240,120,1,,,,,,,,
,,,,,,,,,,,,,FF,,,,,,,,0.6188,,,,,,,,,,,,,,,,,,,,,,6100eac72b0f00b188e9a386,6103699d8b767ec6c339552a,2021-07-29_19h54.04.772,Simcolourproject_2stim_asymm_v5,2020.2.10,MacIntel,60,61025ae37ef11b136ea224fe,,,,,,,,,1838,-29.7109375,-47.93359375,1,0,0,response5disk,,3,-1.1640625,-7.66796875,1,0,0,rectangle,-1.1640625,-7.66796875,1,0,0,-1.1640625,-7.66796875,1,0,0,1,81,241,128,1,,,,,,,,
,,,,,,,,,,,,,FF,,,,,,,,0.5679,,,,,,,,,,,,,,,,,,,,,,6100eac72b0f00b188e9a386,6103699d8b767ec6c339552a,2021-07-29_19h54.04.772,Simcolourproject_2stim_asymm_v5,2020.2.10,MacIntel,60,61025ae37ef11b136ea224fe,,,,,,,,,3309,63.50390625,-28.84765625,1,0,0,response3disk,,5,11.90234375,-1.1015625,1,0,0,rectangle,11.90234375,-1.1015625,1,0,0,11.90234375,-1.1015625,1,0,0,1,82,242,153,1,,,,,,,,
,,,,,,,,,,,,,FF,,,,,,,,0.484,,,,,,,,,,,,,,,,,,,,,,6100eac72b0f00b188e9a386,6103699d8b767ec6c339552a,2021-07-29_19h54.04.772,Simcolourproject_2stim_asymm_v5,2020.2.10,MacIntel,60,61025ae37ef11b136ea224fe,,,,,,,,,3545,-46.17578125,-31.7890625,1,0,0,response5disk,,2,-2.06640625,2.44140625,1,0,0,rectangle,-2.06640625,2.44140625,1,0,0,-2.06640625,2.44140625,1,0,0,1,83,243,100,1,,,,,,,,
,,,,,,,,,,,,,FF,,,,,,,,0.7177,,,,,,,,,,,,,,,,,,,,,,6100eac72b0f00b188e9a386,6103699d8b767ec6c339552a,2021-07-29_19h54.04.772,Simcolourproject_2stim_asymm_v5,2020.2.10,MacIntel,60,61025ae37ef11b136ea224fe,,,,,,,,,3757,55.54296875,-15.546875,1,0,0,response3disk,,5,11.53515625,-10.875,1,0,0,rectangle,11.53515625,-10.875,1,0,0,11.53515625,-10.875,1,0,0,1,84,244,66,1,,,,,,,,
,,,,,,,,,,,,,FF,,,,,,,,1.4688,,,,,,,,,,,,,,,,,,,,,,6100eac72b0f00b188e9a386,6103699d8b767ec6c339552a,2021-07-29_19h54.04.772,Simcolourproject_2stim_asymm_v5,2020.2.10,MacIntel,60,61025ae37ef11b136ea224fe,,,,,,,,,3451,-26.6953125,-68.96484375,1,0,0,response5disk,,3,-10.9921875,0.0625,1,0,0,rectangle,-10.9921875,0.0625,1,0,0,-10.9921875,0.0625,1,0,0,1,85,245,53,1,,,,,,,,
,,,,,,,,,,,,,FF,,,,,,,,0.6338,,,,,,,,,,,,,,,,,,,,,,6100eac72b0f00b188e9a386,6103699d8b767ec6c339552a,2021-07-29_19h54.04.772,Simcolourproject_2stim_asymm_v5,2020.2.10,MacIntel,60,61025ae37ef11b136ea224fe,,,,,,,,,184,52.22265625,-18.9609375,1,0,0,response3disk,,5,10.7421875,-0.65625,1,0,0,rectangle,10.7421875,-0.65625,1,0,0,10.7421875,-0.65625,1,0,0,1,86,246,105,1,,,,,,,,
,,,,,,,,,,,,,FF,,,,,,,,0.6011,,,,,,,,,,,,,,,,,,,,,,6100eac72b0f00b188e9a386,6103699d8b767ec6c339552a,2021-07-29_19h54.04.772,Simcolourproject_2stim_asymm_v5,2020.2.10,MacIntel,60,61025ae37ef11b136ea224fe,,,,,,,,,41,-26.4453125,-48.0390625,1,0,0,response5disk,,3,-6.4609375,-0.55078125,1,0,0,rectangle,-6.4609375,-0.55078125,1,0,0,-6.4609375,-0.55078125,1,0,0,1,87,247,25,1,,,,,,,,
,,,,,,,,,,,,,FF,,,,,,,,0.4494,,,,,,,,,,,,,,,,,,,,,,6100eac72b0f00b188e9a386,6103699d8b767ec6c339552a,2021-07-29_19h54.04.772,Simcolourproject_2stim_asymm_v5,2020.2.10,MacIntel,60,61025ae37ef11b136ea224fe,,,,,,,,,1501,66.5078125,-20.5234375,1,0,0,response3disk,,5,0.6171875,-7.046875,1,0,0,rectangle,0.6171875,-7.046875,1,0,0,0.6171875,-7.046875,1,0,0,1,88,248,64,1,,,,,,,,
