key_resp.keys,key_resp.rt,key_resp_14.keys,key_resp_14.rt,key_resp_15.keys,key_resp_15.rt,key_resp_17.keys,key_resp_17.rt,key_resp_9.keys,key_resp_9.rt,key_resp_10.keys,key_resp_10.rt,practice_comparison,Ecc,mouse_5.x,mouse_5.y,mouse_5.leftButton,mouse_5.midButton,mouse_5.rightButton,mouse_5.clicked_name,pracsimilarity,response_time,mouse_10.x,mouse_10.y,mouse_10.leftButton,mouse_10.midButton,mouse_10.rightButton,mouse_10.clicked_name,mouse_7.x,mouse_7.y,mouse_7.leftButton,mouse_7.midButton,mouse_7.rightButton,mouse_6.x,mouse_6.y,mouse_6.leftButton,mouse_6.midButton,mouse_6.rightButton,duringprac.thisRepN,duringprac.thisTrialN,duringprac.thisN,duringprac.thisIndex,duringprac.ran,participant,session,date,expName,psychopyVersion,OS,frameRate,study_id,mouse_7.clicked_name,catchpracsimilarity,catch_response_time,catchnumberprac,catchtrialorderprac,mouse_6.clicked_name,key_resp_22.keys,key_resp_22.rt,realcomparison,mouse.x,mouse.y,mouse.leftButton,mouse.midButton,mouse.rightButton,mouse.clicked_name,Colour2,similarity,mouse_2.x,mouse_2.y,mouse_2.leftButton,mouse_2.midButton,mouse_2.rightButton,mouse_2.clicked_name,mouse_3.x,mouse_3.y,mouse_3.leftButton,mouse_3.midButton,mouse_3.rightButton,mouse_11.x,mouse_11.y,mouse_11.leftButton,mouse_11.midButton,mouse_11.rightButton,trials_2.thisRepN,trials_2.thisTrialN,trials_2.thisN,trials_2.thisIndex,trials_2.ran,Colour1,mouse_3.clicked_name,catchornah,catchsimilarity,catchnumber,catchtrialorder,catchRT,mouse_11.clicked_name
space,1.0593,space,22.7112,space,21.9524,space,8.1465,space,5.1145,space,3.949,104,FF,35.5,101.5,1,0,0,response1disk_5,7,5.6194,6,1,1,0,0,rectangle_8,6,1,1,0,0,6,1,1,0,0,0,0,0,0,1,61006bb50007a5f767a7c6e6,61036fbd0e0d4962e2eb00e6,2021-07-29_23h21.45.162,Simcolourproject_2stim_asymm_v5,2020.2.10,Win32,60,61025ae37ef11b136ea224fe,,,,,,,,,,,,,,,,,,,,,,,,,,,,,,,,,,,,,,,,,,,,,,
,,,,,,,,,,,,29,PF,-57.5,-92.5,1,0,0,response5disk_5,3,6.5619,1,3,1,0,0,rectangle_8,41,97.5,1,0,0,0,0.5,1,0,0,0,1,1,2,1,61006bb50007a5f767a7c6e6,61036fbd0e0d4962e2eb00e6,2021-07-29_23h21.45.162,Simcolourproject_2stim_asymm_v5,2020.2.10,Win32,60,61025ae37ef11b136ea224fe,response1disk_7,7,2.7255,7,"[2,5]",rectangle_4,,,,,,,,,,,,,,,,,,,,,,,,,,,,,,,,,,,,,,,,
,,,,,,,,,,,,28,FF,54.5,109.5,1,0,0,response1disk_5,7,2.1101,1.5,2,1,0,0,rectangle_8,1.5,2,1,0,0,1.5,2,1,0,0,0,2,2,5,1,61006bb50007a5f767a7c6e6,61036fbd0e0d4962e2eb00e6,2021-07-29_23h21.45.162,Simcolourproject_2stim_asymm_v5,2020.2.10,Win32,60,61025ae37ef11b136ea224fe,,,,,,,,,,,,,,,,,,,,,,,,,,,,,,,,,,,,,,,,,,,,,,
,,,,,,,,,,,,55,PF,-55.5,-83,1,0,0,response5disk_5,3,2.8225,-7.5,2,1,0,0,rectangle_8,-7.5,2,1,0,0,-7.5,2,1,0,0,0,3,3,6,1,61006bb50007a5f767a7c6e6,61036fbd0e0d4962e2eb00e6,2021-07-29_23h21.45.162,Simcolourproject_2stim_asymm_v5,2020.2.10,Win32,60,61025ae37ef11b136ea224fe,,,,,,,,,,,,,,,,,,,,,,,,,,,,,,,,,,,,,,,,,,,,,,
,,,,,,,,,,,,69,PF,107.5,39.5,1,0,0,response1disk_5,6,4.537,2,-4,1,0,0,rectangle_8,26,93.5,1,0,0,9,1,1,0,0,0,4,4,1,1,61006bb50007a5f767a7c6e6,61036fbd0e0d4962e2eb00e6,2021-07-29_23h21.45.162,Simcolourproject_2stim_asymm_v5,2020.2.10,Win32,60,61025ae37ef11b136ea224fe,response1disk_7,7,3.2285,7,"[2,5]",rectangle_4,,,,,,,,,,,,,,,,,,,,,,,,,,,,,,,,,,,,,,,,
,,,,,,,,,,,,129,FF,93,66.5,1,0,0,response1disk_5,6,3.4579,10.5,5,1,0,0,rectangle_8,10.5,5,1,0,0,10.5,5,1,0,0,0,5,5,3,1,61006bb50007a5f767a7c6e6,61036fbd0e0d4962e2eb00e6,2021-07-29_23h21.45.162,Simcolourproject_2stim_asymm_v5,2020.2.10,Win32,60,61025ae37ef11b136ea224fe,,,,,,,,,,,,,,,,,,,,,,,,,,,,,,,,,,,,,,,,,,,,,,
,,,,,,,,,,,,0,PF,79,-66,1,0,0,response3disk_5,5,3.3025,-12,1.5,1,0,0,rectangle_8,-12,1.5,1,0,0,-12,1.5,1,0,0,0,6,6,4,1,61006bb50007a5f767a7c6e6,61036fbd0e0d4962e2eb00e6,2021-07-29_23h21.45.162,Simcolourproject_2stim_asymm_v5,2020.2.10,Win32,60,61025ae37ef11b136ea224fe,,,,,,,,,,,,,,,,,,,,,,,,,,,,,,,,,,,,,,,,,,,,,,
,,,,,,,,,,,,,FF,,,,,,,,10.0036,,,,,,,,,,,,,,,,,,,,,,61006bb50007a5f767a7c6e6,61036fbd0e0d4962e2eb00e6,2021-07-29_23h21.45.162,Simcolourproject_2stim_asymm_v5,2020.2.10,Win32,60,61025ae37ef11b136ea224fe,,,,,,,space,3.2014,3016,104,-43,1,0,0,response3disk,,5,10,0.5,1,0,0,rectangle,10,0.5,1,0,0,10,0.5,1,0,0,0,0,0,134,1,,,,,,,,
,,,,,,,,,,,,,FF,,,,,,,,3.3086,,,,,,,,,,,,,,,,,,,,,,61006bb50007a5f767a7c6e6,61036fbd0e0d4962e2eb00e6,2021-07-29_23h21.45.162,Simcolourproject_2stim_asymm_v5,2020.2.10,Win32,60,61025ae37ef11b136ea224fe,,,,,,,,,2865,45.5,-112.5,1,0,0,response3disk,,4,2,9,1,0,0,rectangle,2,9,1,0,0,2,9,1,0,0,0,1,1,56,1,,,,,,,,
,,,,,,,,,,,,,FF,,,,,,,,4.3668,,,,,,,,,,,,,,,,,,,,,,61006bb50007a5f767a7c6e6,61036fbd0e0d4962e2eb00e6,2021-07-29_23h21.45.162,Simcolourproject_2stim_asymm_v5,2020.2.10,Win32,60,61025ae37ef11b136ea224fe,,,,,,,,,448,93,-42.5,1,0,0,response3disk,,5,23.5,3,1,0,0,rectangle,23.5,3,1,0,0,23.5,3,1,0,0,0,2,2,21,1,,,,,,,,
,,,,,,,,,,,,,FF,,,,,,,,1.9736,,,,,,,,,,,,,,,,,,,,,,61006bb50007a5f767a7c6e6,61036fbd0e0d4962e2eb00e6,2021-07-29_23h21.45.162,Simcolourproject_2stim_asymm_v5,2020.2.10,Win32,60,61025ae37ef11b136ea224fe,,,,,,,,,397,86.5,43,1,0,0,response1disk,,6,-4,0,1,0,0,rectangle,-4,0,1,0,0,-4,0,1,0,0,0,3,3,89,1,,,,,,,,
,,,,,,,,,,,,,FF,,,,,,,,1.2003,,,,,,,,,,,,,,,,,,,,,,61006bb50007a5f767a7c6e6,61036fbd0e0d4962e2eb00e6,2021-07-29_23h21.45.162,Simcolourproject_2stim_asymm_v5,2020.2.10,Win32,60,61025ae37ef11b136ea224fe,,,,,,,,,4289,26,76.5,1,0,0,response1disk,,7,20.5,-6.5,1,0,0,rectangle,20.5,-6.5,1,0,0,20.5,-6.5,1,0,0,0,4,4,98,1,,,,,,,,
,,,,,,,,,,,,,FF,,,,,,,,1.8762,,,,,,,,,,,,,,,,,,,,,,61006bb50007a5f767a7c6e6,61036fbd0e0d4962e2eb00e6,2021-07-29_23h21.45.162,Simcolourproject_2stim_asymm_v5,2020.2.10,Win32,60,61025ae37ef11b136ea224fe,,,,,,,,,1227,-49,-109,1,0,0,response5disk,,3,-11.5,3,1,0,0,rectangle,-11.5,3,1,0,0,-11.5,3,1,0,0,0,5,5,100,1,,,,,,,,
,,,,,,,,,,,,,FF,,,,,,,,1.1218,,,,,,,,,,,,,,,,,,,,,,61006bb50007a5f767a7c6e6,61036fbd0e0d4962e2eb00e6,2021-07-29_23h21.45.162,Simcolourproject_2stim_asymm_v5,2020.2.10,Win32,60,61025ae37ef11b136ea224fe,,,,,,,,,3637,-100,-39.5,1,0,0,response5disk,,2,3.5,7,1,0,0,rectangle,3.5,7,1,0,0,3.5,7,1,0,0,0,6,6,135,1,,,,,,,,
,,,,,,,,,,,,,FF,,,,,,,,1.3904,,,,,,,,,,,,,,,,,,,,,,61006bb50007a5f767a7c6e6,61036fbd0e0d4962e2eb00e6,2021-07-29_23h21.45.162,Simcolourproject_2stim_asymm_v5,2020.2.10,Win32,60,61025ae37ef11b136ea224fe,,,,,,,,,1238,55,-108.5,1,0,0,response3disk,,4,-6,0.5,1,0,0,rectangle,-6,0.5,1,0,0,-6,0.5,1,0,0,0,7,7,5,1,,,,,,,,
,,,,,,,,,,,,,FF,,,,,,,,1.2225,,,,,,,,,,,,,,,,,,,,,,61006bb50007a5f767a7c6e6,61036fbd0e0d4962e2eb00e6,2021-07-29_23h21.45.162,Simcolourproject_2stim_asymm_v5,2020.2.10,Win32,60,61025ae37ef11b136ea224fe,,,,,,,,,1060,93,-43,1,0,0,response3disk,,5,-30.5,8.5,1,0,0,rectangle,-30.5,8.5,1,0,0,-30.5,8.5,1,0,0,0,8,8,77,1,,,,,,,,
,,,,,,,,,,,,,FF,,,,,,,,1.3391,,,,,,,,,,,,,,,,,,,,,,61006bb50007a5f767a7c6e6,61036fbd0e0d4962e2eb00e6,2021-07-29_23h21.45.162,Simcolourproject_2stim_asymm_v5,2020.2.10,Win32,60,61025ae37ef11b136ea224fe,,,,,,,,,1414,103,-42,1,0,0,response3disk,,5,14,2.5,1,0,0,rectangle,14,2.5,1,0,0,14,2.5,1,0,0,0,9,9,146,1,,,,,,,,
,,,,,,,,,,,,,FF,,,,,,,,1.7784,,,,,,,,,,,,,,,,,,,,,,61006bb50007a5f767a7c6e6,61036fbd0e0d4962e2eb00e6,2021-07-29_23h21.45.162,Simcolourproject_2stim_asymm_v5,2020.2.10,Win32,60,61025ae37ef11b136ea224fe,,,,,,,,,2477,49,87,1,0,0,response1disk,,7,18.5,-4,1,0,0,rectangle,18.5,-4,1,0,0,18.5,-4,1,0,0,0,10,10,97,1,,,,,,,,
,,,,,,,,,,,,,FF,,,,,,,,1.0388,,,,,,,,,,,,,,,,,,,,,,61006bb50007a5f767a7c6e6,61036fbd0e0d4962e2eb00e6,2021-07-29_23h21.45.162,Simcolourproject_2stim_asymm_v5,2020.2.10,Win32,60,61025ae37ef11b136ea224fe,,,,,,,,,2438,43.5,-114,1,0,0,response3disk,,4,-9,9.5,1,0,0,rectangle,-9,9.5,1,0,0,-9,9.5,1,0,0,0,11,11,110,1,,,,,,,,
,,,,,,,,,,,,,FF,,,,,,,,1.7088,,,,,,,,,,,,,,,,,,,,,,61006bb50007a5f767a7c6e6,61036fbd0e0d4962e2eb00e6,2021-07-29_23h21.45.162,Simcolourproject_2stim_asymm_v5,2020.2.10,Win32,60,61025ae37ef11b136ea224fe,,,,,,,,,1301,-65.5,-79,1,0,0,response5disk,,3,13,-3.5,1,0,0,rectangle,13,-3.5,1,0,0,13,-3.5,1,0,0,0,12,12,31,1,,,,,,,,
,,,,,,,,,,,,,FF,,,,,,,,0.9119,,,,,,,,,,,,,,,,,,,,,,61006bb50007a5f767a7c6e6,61036fbd0e0d4962e2eb00e6,2021-07-29_23h21.45.162,Simcolourproject_2stim_asymm_v5,2020.2.10,Win32,60,61025ae37ef11b136ea224fe,,,,,,,,,2937,-38,-96.5,1,0,0,response5disk,,3,6.5,-1,1,0,0,rectangle,6.5,-1,1,0,0,6.5,-1,1,0,0,0,13,13,35,1,,,,,,,,
,,,,,,,,,,,,,FF,,,,,,,,1.5614,,,,,,,,,,,,,,,,,,,,,,61006bb50007a5f767a7c6e6,61036fbd0e0d4962e2eb00e6,2021-07-29_23h21.45.162,Simcolourproject_2stim_asymm_v5,2020.2.10,Win32,60,61025ae37ef11b136ea224fe,,,,,,,,,1886,-90,49.5,1,0,0,response7disk,,1,0,-0.5,1,0,0,rectangle,-82.5,43.5,1,0,0,0,0,1,0,0,0,14,14,72,1,,response7disk_3,TRUE,1,1,"[312,208,282,38,51,154,82,299,79,106,322,304,87,148,49,0,15,148,224,105]",1.7676,rectangle
,,,,,,,,,,,,,FF,,,,,,,,1.4289,,,,,,,,,,,,,,,,,,,,,,61006bb50007a5f767a7c6e6,61036fbd0e0d4962e2eb00e6,2021-07-29_23h21.45.162,Simcolourproject_2stim_asymm_v5,2020.2.10,Win32,60,61025ae37ef11b136ea224fe,,,,,,,,,3,-29,-104.5,1,0,0,response5disk,,3,-7.5,0.5,1,0,0,rectangle,-7.5,0.5,1,0,0,-7.5,0.5,1,0,0,0,15,15,48,1,,,,,,,,
,,,,,,,,,,,,,FF,,,,,,,,1.24,,,,,,,,,,,,,,,,,,,,,,61006bb50007a5f767a7c6e6,61036fbd0e0d4962e2eb00e6,2021-07-29_23h21.45.162,Simcolourproject_2stim_asymm_v5,2020.2.10,Win32,60,61025ae37ef11b136ea224fe,,,,,,,,,3067,100.5,-55.5,1,0,0,response3disk,,5,4,-3,1,0,0,rectangle,4,-3,1,0,0,4,-3,1,0,0,0,16,16,15,1,,,,,,,,
,,,,,,,,,,,,,FF,,,,,,,,1.2358,,,,,,,,,,,,,,,,,,,,,,61006bb50007a5f767a7c6e6,61036fbd0e0d4962e2eb00e6,2021-07-29_23h21.45.162,Simcolourproject_2stim_asymm_v5,2020.2.10,Win32,60,61025ae37ef11b136ea224fe,,,,,,,,,3203,-56.5,-90.5,1,0,0,response5disk,,3,-13,-7.5,1,0,0,rectangle,-13,-7.5,1,0,0,-13,-7.5,1,0,0,0,17,17,111,1,,,,,,,,
,,,,,,,,,,,,,FF,,,,,,,,1.5041,,,,,,,,,,,,,,,,,,,,,,61006bb50007a5f767a7c6e6,61036fbd0e0d4962e2eb00e6,2021-07-29_23h21.45.162,Simcolourproject_2stim_asymm_v5,2020.2.10,Win32,60,61025ae37ef11b136ea224fe,,,,,,,,,248,45,-105.5,1,0,0,response3disk,,4,-4.5,2.5,1,0,0,rectangle,-4.5,2.5,1,0,0,-4.5,2.5,1,0,0,0,18,18,47,1,,,,,,,,
,,,,,,,,,,,,,FF,,,,,,,,1.1888,,,,,,,,,,,,,,,,,,,,,,61006bb50007a5f767a7c6e6,61036fbd0e0d4962e2eb00e6,2021-07-29_23h21.45.162,Simcolourproject_2stim_asymm_v5,2020.2.10,Win32,60,61025ae37ef11b136ea224fe,,,,,,,,,1994,88,-38.5,1,0,0,response3disk,,5,-0.5,-4.5,1,0,0,rectangle,-0.5,-4.5,1,0,0,-0.5,-4.5,1,0,0,0,19,19,150,1,,,,,,,,
,,,,,,,,,,,,,FF,,,,,,,,1.6295,,,,,,,,,,,,,,,,,,,,,,61006bb50007a5f767a7c6e6,61036fbd0e0d4962e2eb00e6,2021-07-29_23h21.45.162,Simcolourproject_2stim_asymm_v5,2020.2.10,Win32,60,61025ae37ef11b136ea224fe,,,,,,,,,4201,-95.5,-45.5,1,0,0,response5disk,,2,1.5,1,1,0,0,rectangle,1.5,1,1,0,0,1.5,1,1,0,0,0,20,20,128,1,,,,,,,,
,,,,,,,,,,,,,FF,,,,,,,,1.9447,,,,,,,,,,,,,,,,,,,,,,61006bb50007a5f767a7c6e6,61036fbd0e0d4962e2eb00e6,2021-07-29_23h21.45.162,Simcolourproject_2stim_asymm_v5,2020.2.10,Win32,60,61025ae37ef11b136ea224fe,,,,,,,,,3034,42,76.5,1,0,0,response1disk,,7,-5,-3.5,1,0,0,rectangle,-5,-3.5,1,0,0,-5,-3.5,1,0,0,0,21,21,45,1,,,,,,,,
,,,,,,,,,,,,,FF,,,,,,,,0.8544,,,,,,,,,,,,,,,,,,,,,,61006bb50007a5f767a7c6e6,61036fbd0e0d4962e2eb00e6,2021-07-29_23h21.45.162,Simcolourproject_2stim_asymm_v5,2020.2.10,Win32,60,61025ae37ef11b136ea224fe,,,,,,,,,2136,31,80.5,1,0,0,response1disk,,7,-7,1.5,1,0,0,rectangle,-7,1.5,1,0,0,-7,1.5,1,0,0,0,22,22,132,1,,,,,,,,
,,,,,,,,,,,,,FF,,,,,,,,1.6019,,,,,,,,,,,,,,,,,,,,,,61006bb50007a5f767a7c6e6,61036fbd0e0d4962e2eb00e6,2021-07-29_23h21.45.162,Simcolourproject_2stim_asymm_v5,2020.2.10,Win32,60,61025ae37ef11b136ea224fe,,,,,,,,,3699,103,32.5,1,0,0,response1disk,,6,10,7,1,0,0,rectangle,10,7,1,0,0,10,7,1,0,0,0,23,23,65,1,,,,,,,,
,,,,,,,,,,,,,FF,,,,,,,,1.2347,,,,,,,,,,,,,,,,,,,,,,61006bb50007a5f767a7c6e6,61036fbd0e0d4962e2eb00e6,2021-07-29_23h21.45.162,Simcolourproject_2stim_asymm_v5,2020.2.10,Win32,60,61025ae37ef11b136ea224fe,,,,,,,,,838,41.5,93.5,1,0,0,response1disk,,7,-11.5,-16,1,0,0,rectangle,-11.5,-16,1,0,0,-11.5,-16,1,0,0,0,24,24,29,1,,,,,,,,
,,,,,,,,,,,,,FF,,,,,,,,0.6361,,,,,,,,,,,,,,,,,,,,,,61006bb50007a5f767a7c6e6,61036fbd0e0d4962e2eb00e6,2021-07-29_23h21.45.162,Simcolourproject_2stim_asymm_v5,2020.2.10,Win32,60,61025ae37ef11b136ea224fe,,,,,,,,,4315,29,88,1,0,0,response1disk,,7,-4,-4.5,1,0,0,rectangle,-4,-4.5,1,0,0,-4,-4.5,1,0,0,0,25,25,95,1,,,,,,,,
,,,,,,,,,,,,,FF,,,,,,,,1.255,,,,,,,,,,,,,,,,,,,,,,61006bb50007a5f767a7c6e6,61036fbd0e0d4962e2eb00e6,2021-07-29_23h21.45.162,Simcolourproject_2stim_asymm_v5,2020.2.10,Win32,60,61025ae37ef11b136ea224fe,,,,,,,,,116,45.5,99,1,0,0,response1disk,,7,-11.5,2.5,1,0,0,rectangle,-11.5,2.5,1,0,0,-11.5,2.5,1,0,0,0,26,26,4,1,,,,,,,,
,,,,,,,,,,,,,FF,,,,,,,,1.0264,,,,,,,,,,,,,,,,,,,,,,61006bb50007a5f767a7c6e6,61036fbd0e0d4962e2eb00e6,2021-07-29_23h21.45.162,Simcolourproject_2stim_asymm_v5,2020.2.10,Win32,60,61025ae37ef11b136ea224fe,,,,,,,,,3725,97,-37.5,1,0,0,response3disk,,5,3,6,1,0,0,rectangle,3,6,1,0,0,3,6,1,0,0,0,27,27,156,1,,,,,,,,
,,,,,,,,,,,,,FF,,,,,,,,0.9609,,,,,,,,,,,,,,,,,,,,,,61006bb50007a5f767a7c6e6,61036fbd0e0d4962e2eb00e6,2021-07-29_23h21.45.162,Simcolourproject_2stim_asymm_v5,2020.2.10,Win32,60,61025ae37ef11b136ea224fe,,,,,,,,,1668,34.5,87,1,0,0,response1disk,,7,-4.5,-2.5,1,0,0,rectangle,-4.5,-2.5,1,0,0,-4.5,-2.5,1,0,0,0,28,28,3,1,,,,,,,,
,,,,,,,,,,,,,FF,,,,,,,,0.9756,,,,,,,,,,,,,,,,,,,,,,61006bb50007a5f767a7c6e6,61036fbd0e0d4962e2eb00e6,2021-07-29_23h21.45.162,Simcolourproject_2stim_asymm_v5,2020.2.10,Win32,60,61025ae37ef11b136ea224fe,,,,,,,,,618,-61.5,-95,1,0,0,response5disk,,3,12,-2.5,1,0,0,rectangle,12,-2.5,1,0,0,12,-2.5,1,0,0,0,29,29,54,1,,,,,,,,
,,,,,,,,,,,,,FF,,,,,,,,1.5551,,,,,,,,,,,,,,,,,,,,,,61006bb50007a5f767a7c6e6,61036fbd0e0d4962e2eb00e6,2021-07-29_23h21.45.162,Simcolourproject_2stim_asymm_v5,2020.2.10,Win32,60,61025ae37ef11b136ea224fe,,,,,,,,,3039,-46,-96.5,1,0,0,response5disk,,3,-4.5,10,1,0,0,rectangle,-4.5,10,1,0,0,-4.5,10,1,0,0,0,30,30,126,1,,,,,,,,
,,,,,,,,,,,,,FF,,,,,,,,1.0065,,,,,,,,,,,,,,,,,,,,,,61006bb50007a5f767a7c6e6,61036fbd0e0d4962e2eb00e6,2021-07-29_23h21.45.162,Simcolourproject_2stim_asymm_v5,2020.2.10,Win32,60,61025ae37ef11b136ea224fe,,,,,,,,,2274,96.5,33.5,1,0,0,response1disk,,6,20.5,-2.5,1,0,0,rectangle,20.5,-2.5,1,0,0,20.5,-2.5,1,0,0,0,31,31,18,1,,,,,,,,
,,,,,,,,,,,,,FF,,,,,,,,0.6378,,,,,,,,,,,,,,,,,,,,,,61006bb50007a5f767a7c6e6,61036fbd0e0d4962e2eb00e6,2021-07-29_23h21.45.162,Simcolourproject_2stim_asymm_v5,2020.2.10,Win32,60,61025ae37ef11b136ea224fe,,,,,,,,,4325,23.5,65.5,1,0,0,response1disk,,7,-2.5,-8,1,0,0,rectangle,-2.5,-8,1,0,0,-2.5,-8,1,0,0,0,32,32,114,1,,,,,,,,
,,,,,,,,,,,,,FF,,,,,,,,1.9908,,,,,,,,,,,,,,,,,,,,,,61006bb50007a5f767a7c6e6,61036fbd0e0d4962e2eb00e6,2021-07-29_23h21.45.162,Simcolourproject_2stim_asymm_v5,2020.2.10,Win32,60,61025ae37ef11b136ea224fe,,,,,,,,,4333,76.5,-106.5,1,0,0,response3disk,,4,12,-9.5,1,0,0,rectangle,12,-9.5,1,0,0,12,-9.5,1,0,0,0,33,33,93,1,,,,,,,,
,,,,,,,,,,,,,FF,,,,,,,,1.4295,,,,,,,,,,,,,,,,,,,,,,61006bb50007a5f767a7c6e6,61036fbd0e0d4962e2eb00e6,2021-07-29_23h21.45.162,Simcolourproject_2stim_asymm_v5,2020.2.10,Win32,60,61025ae37ef11b136ea224fe,,,,,,,,,3612,105.5,52,1,0,0,response1disk,,6,21,15,1,0,0,rectangle,21,15,1,0,0,21,15,1,0,0,0,34,34,147,1,,,,,,,,
,,,,,,,,,,,,,FF,,,,,,,,1.7283,,,,,,,,,,,,,,,,,,,,,,61006bb50007a5f767a7c6e6,61036fbd0e0d4962e2eb00e6,2021-07-29_23h21.45.162,Simcolourproject_2stim_asymm_v5,2020.2.10,Win32,60,61025ae37ef11b136ea224fe,,,,,,,,,1072,108,30,1,0,0,response1disk,,6,-3,-2.5,1,0,0,rectangle,-3,-2.5,1,0,0,-3,-2.5,1,0,0,0,35,35,49,1,,,,,,,,
,,,,,,,,,,,,,FF,,,,,,,,1.172,,,,,,,,,,,,,,,,,,,,,,61006bb50007a5f767a7c6e6,61036fbd0e0d4962e2eb00e6,2021-07-29_23h21.45.162,Simcolourproject_2stim_asymm_v5,2020.2.10,Win32,60,61025ae37ef11b136ea224fe,,,,,,,,,2772,59,-115,1,0,0,response3disk,,4,-24,17,1,0,0,rectangle,-24,17,1,0,0,-24,17,1,0,0,0,36,36,23,1,,,,,,,,
,,,,,,,,,,,,,FF,,,,,,,,2.1775,,,,,,,,,,,,,,,,,,,,,,61006bb50007a5f767a7c6e6,61036fbd0e0d4962e2eb00e6,2021-07-29_23h21.45.162,Simcolourproject_2stim_asymm_v5,2020.2.10,Win32,60,61025ae37ef11b136ea224fe,,,,,,,,,715,94.5,-34.5,1,0,0,response3disk,,5,6,0,1,0,0,rectangle,54.5,-109,1,0,0,-18,5,1,0,0,0,37,37,123,1,,response3disk_3,TRUE,4,4,"[312,208,282,38,51,154,82,299,79,106,322,304,87,148,49,0,15,148,224,105]",1.8928,rectangle
,,,,,,,,,,,,,FF,,,,,,,,1.9537,,,,,,,,,,,,,,,,,,,,,,61006bb50007a5f767a7c6e6,61036fbd0e0d4962e2eb00e6,2021-07-29_23h21.45.162,Simcolourproject_2stim_asymm_v5,2020.2.10,Win32,60,61025ae37ef11b136ea224fe,,,,,,,,,942,32.5,80.5,1,0,0,response1disk,,7,-15.5,-10,1,0,0,rectangle,-15.5,-10,1,0,0,-15.5,-10,1,0,0,0,38,38,11,1,,,,,,,,
,,,,,,,,,,,,,FF,,,,,,,,1.4193,,,,,,,,,,,,,,,,,,,,,,61006bb50007a5f767a7c6e6,61036fbd0e0d4962e2eb00e6,2021-07-29_23h21.45.162,Simcolourproject_2stim_asymm_v5,2020.2.10,Win32,60,61025ae37ef11b136ea224fe,,,,,,,,,3527,54.5,-103.5,1,0,0,response3disk,,4,8.5,1.5,1,0,0,rectangle,8.5,1.5,1,0,0,8.5,1.5,1,0,0,0,39,39,64,1,,,,,,,,
,,,,,,,,,,,,,FF,,,,,,,,1.0523,,,,,,,,,,,,,,,,,,,,,,61006bb50007a5f767a7c6e6,61036fbd0e0d4962e2eb00e6,2021-07-29_23h21.45.162,Simcolourproject_2stim_asymm_v5,2020.2.10,Win32,60,61025ae37ef11b136ea224fe,,,,,,,,,936,47.5,78.5,1,0,0,response1disk,,7,3.5,1.5,1,0,0,rectangle,3.5,1.5,1,0,0,3.5,1.5,1,0,0,0,40,40,120,1,,,,,,,,
,,,,,,,,,,,,,FF,,,,,,,,0.6511,,,,,,,,,,,,,,,,,,,,,,61006bb50007a5f767a7c6e6,61036fbd0e0d4962e2eb00e6,2021-07-29_23h21.45.162,Simcolourproject_2stim_asymm_v5,2020.2.10,Win32,60,61025ae37ef11b136ea224fe,,,,,,,,,84,24.5,95,1,0,0,response1disk,,7,-3.5,-4.5,1,0,0,rectangle,-3.5,-4.5,1,0,0,-3.5,-4.5,1,0,0,0,41,41,78,1,,,,,,,,
,,,,,,,,,,,,,FF,,,,,,,,1.3719,,,,,,,,,,,,,,,,,,,,,,61006bb50007a5f767a7c6e6,61036fbd0e0d4962e2eb00e6,2021-07-29_23h21.45.162,Simcolourproject_2stim_asymm_v5,2020.2.10,Win32,60,61025ae37ef11b136ea224fe,,,,,,,,,2144,52,85,1,0,0,response1disk,,7,-14.5,-6,1,0,0,rectangle,-14.5,-6,1,0,0,-14.5,-6,1,0,0,0,42,42,0,1,,,,,,,,
,,,,,,,,,,,,,FF,,,,,,,,0.6064,,,,,,,,,,,,,,,,,,,,,,61006bb50007a5f767a7c6e6,61036fbd0e0d4962e2eb00e6,2021-07-29_23h21.45.162,Simcolourproject_2stim_asymm_v5,2020.2.10,Win32,60,61025ae37ef11b136ea224fe,,,,,,,,,4110,44,99.5,1,0,0,response1disk,,7,3,-9,1,0,0,rectangle,3,-9,1,0,0,3,-9,1,0,0,0,43,43,84,1,,,,,,,,
,,,,,,,,,,,,,FF,,,,,,,,0.8909,,,,,,,,,,,,,,,,,,,,,,61006bb50007a5f767a7c6e6,61036fbd0e0d4962e2eb00e6,2021-07-29_23h21.45.162,Simcolourproject_2stim_asymm_v5,2020.2.10,Win32,60,61025ae37ef11b136ea224fe,,,,,,,,,655,85.5,-43.5,1,0,0,response3disk,,5,10.5,1,1,0,0,rectangle,10.5,1,1,0,0,10.5,1,1,0,0,0,44,44,37,1,,,,,,,,
,,,,,,,,,,,,,FF,,,,,,,,1.056,,,,,,,,,,,,,,,,,,,,,,61006bb50007a5f767a7c6e6,61036fbd0e0d4962e2eb00e6,2021-07-29_23h21.45.162,Simcolourproject_2stim_asymm_v5,2020.2.10,Win32,60,61025ae37ef11b136ea224fe,,,,,,,,,4196,65,96.5,1,0,0,response1disk,,7,23,-8,1,0,0,rectangle,23,-8,1,0,0,23,-8,1,0,0,0,45,45,138,1,,,,,,,,
,,,,,,,,,,,,,FF,,,,,,,,0.8365,,,,,,,,,,,,,,,,,,,,,,61006bb50007a5f767a7c6e6,61036fbd0e0d4962e2eb00e6,2021-07-29_23h21.45.162,Simcolourproject_2stim_asymm_v5,2020.2.10,Win32,60,61025ae37ef11b136ea224fe,,,,,,,,,3083,32.5,88,1,0,0,response1disk,,7,-11,3,1,0,0,rectangle,-11,3,1,0,0,-11,3,1,0,0,0,46,46,43,1,,,,,,,,
,,,,,,,,,,,,,FF,,,,,,,,0.8135,,,,,,,,,,,,,,,,,,,,,,61006bb50007a5f767a7c6e6,61036fbd0e0d4962e2eb00e6,2021-07-29_23h21.45.162,Simcolourproject_2stim_asymm_v5,2020.2.10,Win32,60,61025ae37ef11b136ea224fe,,,,,,,,,3683,86.5,-56,1,0,0,response3disk,,5,10.5,1,1,0,0,rectangle,10.5,1,1,0,0,10.5,1,1,0,0,0,47,47,130,1,,,,,,,,
,,,,,,,,,,,,,FF,,,,,,,,1.6035,,,,,,,,,,,,,,,,,,,,,,61006bb50007a5f767a7c6e6,61036fbd0e0d4962e2eb00e6,2021-07-29_23h21.45.162,Simcolourproject_2stim_asymm_v5,2020.2.10,Win32,60,61025ae37ef11b136ea224fe,,,,,,,,,2828,-89,-49.5,1,0,0,response5disk,,2,-21,5.5,1,0,0,rectangle,-95.5,47,1,0,0,6.5,0.5,1,0,0,0,48,48,101,1,,response7disk_3,TRUE,1,1,"[312,208,282,38,51,154,82,299,79,106,322,304,87,148,49,0,15,148,224,105]",1.5815,rectangle
,,,,,,,,,,,,,FF,,,,,,,,1.0008,,,,,,,,,,,,,,,,,,,,,,61006bb50007a5f767a7c6e6,61036fbd0e0d4962e2eb00e6,2021-07-29_23h21.45.162,Simcolourproject_2stim_asymm_v5,2020.2.10,Win32,60,61025ae37ef11b136ea224fe,,,,,,,,,1626,46.5,79,1,0,0,response1disk,,7,8,4,1,0,0,rectangle,8,4,1,0,0,8,4,1,0,0,0,49,49,151,1,,,,,,,,
,,,,,,,,,,,,,FF,,,,,,,,2.6222,,,,,,,,,,,,,,,,,,,,,,61006bb50007a5f767a7c6e6,61036fbd0e0d4962e2eb00e6,2021-07-29_23h21.45.162,Simcolourproject_2stim_asymm_v5,2020.2.10,Win32,60,61025ae37ef11b136ea224fe,,,,,,,,,2479,86.5,-40.5,1,0,0,response3disk,,5,6.5,2,1,0,0,rectangle,-82,-36,1,0,0,0.5,-1.5,1,0,0,0,50,50,17,1,,response5disk_3,TRUE,2,2,"[312,208,282,38,51,154,82,299,79,106,322,304,87,148,49,0,15,148,224,105]",1.9263,rectangle
,,,,,,,,,,,,,FF,,,,,,,,1.1408,,,,,,,,,,,,,,,,,,,,,,61006bb50007a5f767a7c6e6,61036fbd0e0d4962e2eb00e6,2021-07-29_23h21.45.162,Simcolourproject_2stim_asymm_v5,2020.2.10,Win32,60,61025ae37ef11b136ea224fe,,,,,,,,,4122,64.5,-112,1,0,0,response3disk,,4,-4,-7,1,0,0,rectangle,-4,-7,1,0,0,-4,-7,1,0,0,0,51,51,155,1,,,,,,,,
,,,,,,,,,,,,,FF,,,,,,,,3.195,,,,,,,,,,,,,,,,,,,,,,61006bb50007a5f767a7c6e6,61036fbd0e0d4962e2eb00e6,2021-07-29_23h21.45.162,Simcolourproject_2stim_asymm_v5,2020.2.10,Win32,60,61025ae37ef11b136ea224fe,,,,,,,,,3805,51.5,-116,1,0,0,response3disk,,4,-1,6.5,1,0,0,rectangle,-1,6.5,1,0,0,-1,6.5,1,0,0,0,52,52,122,1,,,,,,,,
,,,,,,,,,,,,,FF,,,,,,,,0.8741,,,,,,,,,,,,,,,,,,,,,,61006bb50007a5f767a7c6e6,61036fbd0e0d4962e2eb00e6,2021-07-29_23h21.45.162,Simcolourproject_2stim_asymm_v5,2020.2.10,Win32,60,61025ae37ef11b136ea224fe,,,,,,,,,3630,-102,59,1,0,0,response7disk,,1,3.5,-2.5,1,0,0,rectangle,3.5,-2.5,1,0,0,3.5,-2.5,1,0,0,0,53,53,108,1,,,,,,,,
,,,,,,,,,,,,,FF,,,,,,,,1.856,,,,,,,,,,,,,,,,,,,,,,61006bb50007a5f767a7c6e6,61036fbd0e0d4962e2eb00e6,2021-07-29_23h21.45.162,Simcolourproject_2stim_asymm_v5,2020.2.10,Win32,60,61025ae37ef11b136ea224fe,,,,,,,,,1999,92,37,1,0,0,response1disk,,6,3.5,1,1,0,0,rectangle,3.5,1,1,0,0,3.5,1,1,0,0,0,54,54,26,1,,,,,,,,
,,,,,,,,,,,,,FF,,,,,,,,2.7994,,,,,,,,,,,,,,,,,,,,,,61006bb50007a5f767a7c6e6,61036fbd0e0d4962e2eb00e6,2021-07-29_23h21.45.162,Simcolourproject_2stim_asymm_v5,2020.2.10,Win32,60,61025ae37ef11b136ea224fe,,,,,,,,,1362,-46,-89.5,1,0,0,response5disk,,3,0.5,3,1,0,0,rectangle,0.5,3,1,0,0,0.5,3,1,0,0,0,55,55,28,1,,,,,,,,
,,,,,,,,,,,,,FF,,,,,,,,1.429,,,,,,,,,,,,,,,,,,,,,,61006bb50007a5f767a7c6e6,61036fbd0e0d4962e2eb00e6,2021-07-29_23h21.45.162,Simcolourproject_2stim_asymm_v5,2020.2.10,Win32,60,61025ae37ef11b136ea224fe,,,,,,,,,1759,-49,-107,1,0,0,response5disk,,3,3.5,-4,1,0,0,rectangle,3.5,-4,1,0,0,3.5,-4,1,0,0,0,56,56,46,1,,,,,,,,
,,,,,,,,,,,,,FF,,,,,,,,0.7202,,,,,,,,,,,,,,,,,,,,,,61006bb50007a5f767a7c6e6,61036fbd0e0d4962e2eb00e6,2021-07-29_23h21.45.162,Simcolourproject_2stim_asymm_v5,2020.2.10,Win32,60,61025ae37ef11b136ea224fe,,,,,,,,,2791,-34,-91,1,0,0,response5disk,,3,2.5,3.5,1,0,0,rectangle,2.5,3.5,1,0,0,2.5,3.5,1,0,0,0,57,57,145,1,,,,,,,,
,,,,,,,,,,,,,FF,,,,,,,,0.874,,,,,,,,,,,,,,,,,,,,,,61006bb50007a5f767a7c6e6,61036fbd0e0d4962e2eb00e6,2021-07-29_23h21.45.162,Simcolourproject_2stim_asymm_v5,2020.2.10,Win32,60,61025ae37ef11b136ea224fe,,,,,,,,,4035,45,-109.5,1,0,0,response3disk,,4,0,9,1,0,0,rectangle,0,9,1,0,0,0,9,1,0,0,0,58,58,133,1,,,,,,,,
,,,,,,,,,,,,,FF,,,,,,,,0.6742,,,,,,,,,,,,,,,,,,,,,,61006bb50007a5f767a7c6e6,61036fbd0e0d4962e2eb00e6,2021-07-29_23h21.45.162,Simcolourproject_2stim_asymm_v5,2020.2.10,Win32,60,61025ae37ef11b136ea224fe,,,,,,,,,3485,31,-83,1,0,0,response3disk,,4,6,-2,1,0,0,rectangle,6,-2,1,0,0,6,-2,1,0,0,0,59,59,57,1,,,,,,,,
,,,,,,,,,,,,,FF,,,,,,,,0.8206,,,,,,,,,,,,,,,,,,,,,,61006bb50007a5f767a7c6e6,61036fbd0e0d4962e2eb00e6,2021-07-29_23h21.45.162,Simcolourproject_2stim_asymm_v5,2020.2.10,Win32,60,61025ae37ef11b136ea224fe,,,,,,,,,2277,87.5,-40.5,1,0,0,response3disk,,5,2.5,-2,1,0,0,rectangle,2.5,-2,1,0,0,2.5,-2,1,0,0,0,60,60,76,1,,,,,,,,
,,,,,,,,,,,,,FF,,,,,,,,1.8099,,,,,,,,,,,,,,,,,,,,,,61006bb50007a5f767a7c6e6,61036fbd0e0d4962e2eb00e6,2021-07-29_23h21.45.162,Simcolourproject_2stim_asymm_v5,2020.2.10,Win32,60,61025ae37ef11b136ea224fe,,,,,,,,,688,83,50,1,0,0,response1disk,,6,0,-1,1,0,0,rectangle,0,-1,1,0,0,0,-1,1,0,0,0,61,61,80,1,,,,,,,,
,,,,,,,,,,,,,FF,,,,,,,,0.7854,,,,,,,,,,,,,,,,,,,,,,61006bb50007a5f767a7c6e6,61036fbd0e0d4962e2eb00e6,2021-07-29_23h21.45.162,Simcolourproject_2stim_asymm_v5,2020.2.10,Win32,60,61025ae37ef11b136ea224fe,,,,,,,,,2806,37,95,1,0,0,response1disk,,7,7,-6,1,0,0,rectangle,7,-6,1,0,0,7,-6,1,0,0,0,62,62,20,1,,,,,,,,
,,,,,,,,,,,,,FF,,,,,,,,1.0847,,,,,,,,,,,,,,,,,,,,,,61006bb50007a5f767a7c6e6,61036fbd0e0d4962e2eb00e6,2021-07-29_23h21.45.162,Simcolourproject_2stim_asymm_v5,2020.2.10,Win32,60,61025ae37ef11b136ea224fe,,,,,,,,,4356,-40,96.5,1,0,0,response7disk,,0,-8,-2,1,0,0,rectangle,-8,-2,1,0,0,-8,-2,1,0,0,0,63,63,105,1,,,,,,,,
,,,,,,,,,,,,,FF,,,,,,,,2.2902,,,,,,,,,,,,,,,,,,,,,,61006bb50007a5f767a7c6e6,61036fbd0e0d4962e2eb00e6,2021-07-29_23h21.45.162,Simcolourproject_2stim_asymm_v5,2020.2.10,Win32,60,61025ae37ef11b136ea224fe,,,,,,,,,50,50.5,108.5,1,0,0,response1disk,,7,10.5,3.5,1,0,0,rectangle,10.5,3.5,1,0,0,10.5,3.5,1,0,0,0,64,64,62,1,,,,,,,,
,,,,,,,,,,,,,FF,,,,,,,,2.1004,,,,,,,,,,,,,,,,,,,,,,61006bb50007a5f767a7c6e6,61036fbd0e0d4962e2eb00e6,2021-07-29_23h21.45.162,Simcolourproject_2stim_asymm_v5,2020.2.10,Win32,60,61025ae37ef11b136ea224fe,,,,,,,,,1613,34.5,92.5,1,0,0,response1disk,,7,-10.5,-7,1,0,0,rectangle,-10.5,-7,1,0,0,-10.5,-7,1,0,0,0,65,65,104,1,,,,,,,,
,,,,,,,,,,,,,FF,,,,,,,,0.6101,,,,,,,,,,,,,,,,,,,,,,61006bb50007a5f767a7c6e6,61036fbd0e0d4962e2eb00e6,2021-07-29_23h21.45.162,Simcolourproject_2stim_asymm_v5,2020.2.10,Win32,60,61025ae37ef11b136ea224fe,,,,,,,,,1879,39,92.5,1,0,0,response1disk,,7,7.5,-4,1,0,0,rectangle,7.5,-4,1,0,0,7.5,-4,1,0,0,0,66,66,79,1,,,,,,,,
,,,,,,,,,,,,,FF,,,,,,,,1.0058,,,,,,,,,,,,,,,,,,,,,,61006bb50007a5f767a7c6e6,61036fbd0e0d4962e2eb00e6,2021-07-29_23h21.45.162,Simcolourproject_2stim_asymm_v5,2020.2.10,Win32,60,61025ae37ef11b136ea224fe,,,,,,,,,3478,53,-97,1,0,0,response3disk,,4,-2,-1,1,0,0,rectangle,-2,-1,1,0,0,-2,-1,1,0,0,0,67,67,71,1,,,,,,,,
,,,,,,,,,,,,,FF,,,,,,,,1.2657,,,,,,,,,,,,,,,,,,,,,,61006bb50007a5f767a7c6e6,61036fbd0e0d4962e2eb00e6,2021-07-29_23h21.45.162,Simcolourproject_2stim_asymm_v5,2020.2.10,Win32,60,61025ae37ef11b136ea224fe,,,,,,,,,3183,47.5,100.5,1,0,0,response1disk,,7,25.5,3.5,1,0,0,rectangle,25.5,3.5,1,0,0,25.5,3.5,1,0,0,0,68,68,55,1,,,,,,,,
,,,,,,,,,,,,,FF,,,,,,,,0.889,,,,,,,,,,,,,,,,,,,,,,61006bb50007a5f767a7c6e6,61036fbd0e0d4962e2eb00e6,2021-07-29_23h21.45.162,Simcolourproject_2stim_asymm_v5,2020.2.10,Win32,60,61025ae37ef11b136ea224fe,,,,,,,,,3653,44.5,99,1,0,0,response1disk,,7,-8,-2,1,0,0,rectangle,-8,-2,1,0,0,-8,-2,1,0,0,0,69,69,40,1,,,,,,,,
,,,,,,,,,,,,,FF,,,,,,,,1.0919,,,,,,,,,,,,,,,,,,,,,,61006bb50007a5f767a7c6e6,61036fbd0e0d4962e2eb00e6,2021-07-29_23h21.45.162,Simcolourproject_2stim_asymm_v5,2020.2.10,Win32,60,61025ae37ef11b136ea224fe,,,,,,,,,735,99.5,53.5,1,0,0,response1disk,,6,-10,-2,1,0,0,rectangle,-10,-2,1,0,0,-10,-2,1,0,0,0,70,70,107,1,,,,,,,,
,,,,,,,,,,,,,FF,,,,,,,,0.9261,,,,,,,,,,,,,,,,,,,,,,61006bb50007a5f767a7c6e6,61036fbd0e0d4962e2eb00e6,2021-07-29_23h21.45.162,Simcolourproject_2stim_asymm_v5,2020.2.10,Win32,60,61025ae37ef11b136ea224fe,,,,,,,,,902,35.5,95.5,1,0,0,response1disk,,7,12.5,3,1,0,0,rectangle,12.5,3,1,0,0,12.5,3,1,0,0,0,71,71,24,1,,,,,,,,
,,,,,,,,,,,,,FF,,,,,,,,0.8225,,,,,,,,,,,,,,,,,,,,,,61006bb50007a5f767a7c6e6,61036fbd0e0d4962e2eb00e6,2021-07-29_23h21.45.162,Simcolourproject_2stim_asymm_v5,2020.2.10,Win32,60,61025ae37ef11b136ea224fe,,,,,,,,,11,78.5,53.5,1,0,0,response1disk,,6,5,7.5,1,0,0,rectangle,5,7.5,1,0,0,5,7.5,1,0,0,0,72,72,63,1,,,,,,,,
,,,,,,,,,,,,,FF,,,,,,,,0.8121,,,,,,,,,,,,,,,,,,,,,,61006bb50007a5f767a7c6e6,61036fbd0e0d4962e2eb00e6,2021-07-29_23h21.45.162,Simcolourproject_2stim_asymm_v5,2020.2.10,Win32,60,61025ae37ef11b136ea224fe,,,,,,,,,932,55.5,82,1,0,0,response1disk,,7,-18,-5.5,1,0,0,rectangle,-18,-5.5,1,0,0,-18,-5.5,1,0,0,0,73,73,131,1,,,,,,,,
,,,,,,,,,,,,,FF,,,,,,,,0.8776,,,,,,,,,,,,,,,,,,,,,,61006bb50007a5f767a7c6e6,61036fbd0e0d4962e2eb00e6,2021-07-29_23h21.45.162,Simcolourproject_2stim_asymm_v5,2020.2.10,Win32,60,61025ae37ef11b136ea224fe,,,,,,,,,2331,20.5,92,1,0,0,response1disk,,7,-7,-12,1,0,0,rectangle,-7,-12,1,0,0,-7,-12,1,0,0,0,74,74,51,1,,,,,,,,
,,,,,,,,,,,,,FF,,,,,,,,2.7739,,,,,,,,,,,,,,,,,,,,,,61006bb50007a5f767a7c6e6,61036fbd0e0d4962e2eb00e6,2021-07-29_23h21.45.162,Simcolourproject_2stim_asymm_v5,2020.2.10,Win32,60,61025ae37ef11b136ea224fe,,,,,,,,,1693,92,20.5,1,0,0,response1disk,,6,15.5,4.5,1,0,0,rectangle,15.5,4.5,1,0,0,15.5,4.5,1,0,0,0,75,75,124,1,,,,,,,,
,,,,,,,,,,,,,FF,,,,,,,,1.48,,,,,,,,,,,,,,,,,,,,,,61006bb50007a5f767a7c6e6,61036fbd0e0d4962e2eb00e6,2021-07-29_23h21.45.162,Simcolourproject_2stim_asymm_v5,2020.2.10,Win32,60,61025ae37ef11b136ea224fe,,,,,,,,,1671,97.5,-57,1,0,0,response3disk,,5,10,-3.5,1,0,0,rectangle,10,-3.5,1,0,0,10,-3.5,1,0,0,0,76,76,157,1,,,,,,,,
,,,,,,,,,,,,,FF,,,,,,,,0.9086,,,,,,,,,,,,,,,,,,,,,,61006bb50007a5f767a7c6e6,61036fbd0e0d4962e2eb00e6,2021-07-29_23h21.45.162,Simcolourproject_2stim_asymm_v5,2020.2.10,Win32,60,61025ae37ef11b136ea224fe,,,,,,,,,4340,55,-100,1,0,0,response3disk,,4,-12,8.5,1,0,0,rectangle,-12,8.5,1,0,0,-12,8.5,1,0,0,0,77,77,158,1,,,,,,,,
,,,,,,,,,,,,,FF,,,,,,,,0.7958,,,,,,,,,,,,,,,,,,,,,,61006bb50007a5f767a7c6e6,61036fbd0e0d4962e2eb00e6,2021-07-29_23h21.45.162,Simcolourproject_2stim_asymm_v5,2020.2.10,Win32,60,61025ae37ef11b136ea224fe,,,,,,,,,3776,-93,27.5,1,0,0,response7disk,,1,-1,-4,1,0,0,rectangle,98,35.5,1,0,0,2.5,0,1,0,0,0,78,78,152,1,,response1disk_3,TRUE,6,6,"[312,208,282,38,51,154,82,299,79,106,322,304,87,148,49,0,15,148,224,105]",1.6727,rectangle
,,,,,,,,,,,,,FF,,,,,,,,1.5627,,,,,,,,,,,,,,,,,,,,,,61006bb50007a5f767a7c6e6,61036fbd0e0d4962e2eb00e6,2021-07-29_23h21.45.162,Simcolourproject_2stim_asymm_v5,2020.2.10,Win32,60,61025ae37ef11b136ea224fe,,,,,,,,,168,101.5,49.5,1,0,0,response1disk,,6,-2.5,0,1,0,0,rectangle,-2.5,0,1,0,0,-2.5,0,1,0,0,0,79,79,140,1,,,,,,,,
,,,,,,,,,,,,,FF,,,,,,,,0.8535,,,,,,,,,,,,,,,,,,,,,,61006bb50007a5f767a7c6e6,61036fbd0e0d4962e2eb00e6,2021-07-29_23h21.45.162,Simcolourproject_2stim_asymm_v5,2020.2.10,Win32,60,61025ae37ef11b136ea224fe,,,,,,,,,3598,61.5,-98.5,1,0,0,response3disk,,4,-5,2,1,0,0,rectangle,-5,2,1,0,0,-5,2,1,0,0,0,80,80,142,1,,,,,,,,
,,,,,,,,,,,,,FF,,,,,,,,0.9899,,,,,,,,,,,,,,,,,,,,,,61006bb50007a5f767a7c6e6,61036fbd0e0d4962e2eb00e6,2021-07-29_23h21.45.162,Simcolourproject_2stim_asymm_v5,2020.2.10,Win32,60,61025ae37ef11b136ea224fe,,,,,,,,,1633,33,93,1,0,0,response1disk,,7,11.5,-9,1,0,0,rectangle,-48.5,92,1,0,0,4.5,1.5,1,0,0,0,81,81,153,1,,response7disk_3,TRUE,0,0,"[312,208,282,38,51,154,82,299,79,106,322,304,87,148,49,0,15,148,224,105]",1.7023,rectangle
,,,,,,,,,,,,,FF,,,,,,,,1.0163,,,,,,,,,,,,,,,,,,,,,,61006bb50007a5f767a7c6e6,61036fbd0e0d4962e2eb00e6,2021-07-29_23h21.45.162,Simcolourproject_2stim_asymm_v5,2020.2.10,Win32,60,61025ae37ef11b136ea224fe,,,,,,,,,2242,44,-104,1,0,0,response3disk,,4,2.5,-3,1,0,0,rectangle,2.5,-3,1,0,0,2.5,-3,1,0,0,0,82,82,121,1,,,,,,,,
,,,,,,,,,,,,,FF,,,,,,,,1.1923,,,,,,,,,,,,,,,,,,,,,,61006bb50007a5f767a7c6e6,61036fbd0e0d4962e2eb00e6,2021-07-29_23h21.45.162,Simcolourproject_2stim_asymm_v5,2020.2.10,Win32,60,61025ae37ef11b136ea224fe,,,,,,,,,2160,-52,96.5,1,0,0,response7disk,,0,8,3,1,0,0,rectangle,8,3,1,0,0,8,3,1,0,0,0,83,83,118,1,,,,,,,,
,,,,,,,,,,,,,FF,,,,,,,,1.2892,,,,,,,,,,,,,,,,,,,,,,61006bb50007a5f767a7c6e6,61036fbd0e0d4962e2eb00e6,2021-07-29_23h21.45.162,Simcolourproject_2stim_asymm_v5,2020.2.10,Win32,60,61025ae37ef11b136ea224fe,,,,,,,,,608,94,44,1,0,0,response1disk,,6,15.5,5,1,0,0,rectangle,15.5,5,1,0,0,15.5,5,1,0,0,0,84,84,6,1,,,,,,,,
,,,,,,,,,,,,,FF,,,,,,,,0.683,,,,,,,,,,,,,,,,,,,,,,61006bb50007a5f767a7c6e6,61036fbd0e0d4962e2eb00e6,2021-07-29_23h21.45.162,Simcolourproject_2stim_asymm_v5,2020.2.10,Win32,60,61025ae37ef11b136ea224fe,,,,,,,,,474,53.5,85,1,0,0,response1disk,,7,8.5,3.5,1,0,0,rectangle,8.5,3.5,1,0,0,8.5,3.5,1,0,0,0,85,85,73,1,,,,,,,,
,,,,,,,,,,,,,FF,,,,,,,,1.007,,,,,,,,,,,,,,,,,,,,,,61006bb50007a5f767a7c6e6,61036fbd0e0d4962e2eb00e6,2021-07-29_23h21.45.162,Simcolourproject_2stim_asymm_v5,2020.2.10,Win32,60,61025ae37ef11b136ea224fe,,,,,,,,,812,97,41.5,1,0,0,response1disk,,6,-8,-14.5,1,0,0,rectangle,34.5,89,1,0,0,-0.5,-4.5,1,0,0,0,86,86,59,1,,response1disk_3,TRUE,7,7,"[312,208,282,38,51,154,82,299,79,106,322,304,87,148,49,0,15,148,224,105]",1.6716,rectangle
,,,,,,,,,,,,,FF,,,,,,,,1.3446,,,,,,,,,,,,,,,,,,,,,,61006bb50007a5f767a7c6e6,61036fbd0e0d4962e2eb00e6,2021-07-29_23h21.45.162,Simcolourproject_2stim_asymm_v5,2020.2.10,Win32,60,61025ae37ef11b136ea224fe,,,,,,,,,815,90.5,34.5,1,0,0,response1disk,,6,-7,-0.5,1,0,0,rectangle,-7,-0.5,1,0,0,-7,-0.5,1,0,0,0,87,87,87,1,,,,,,,,
,,,,,,,,,,,,,FF,,,,,,,,1.3566,,,,,,,,,,,,,,,,,,,,,,61006bb50007a5f767a7c6e6,61036fbd0e0d4962e2eb00e6,2021-07-29_23h21.45.162,Simcolourproject_2stim_asymm_v5,2020.2.10,Win32,60,61025ae37ef11b136ea224fe,,,,,,,,,646,93,39.5,1,0,0,response1disk,,6,7,7,1,0,0,rectangle,7,7,1,0,0,7,7,1,0,0,0,88,88,27,1,,,,,,,,
,,,,,,,,,,,,,FF,,,,,,,,1.0976,,,,,,,,,,,,,,,,,,,,,,61006bb50007a5f767a7c6e6,61036fbd0e0d4962e2eb00e6,2021-07-29_23h21.45.162,Simcolourproject_2stim_asymm_v5,2020.2.10,Win32,60,61025ae37ef11b136ea224fe,,,,,,,,,2303,95,32.5,1,0,0,response1disk,,6,-15.5,-4.5,1,0,0,rectangle,-15.5,-4.5,1,0,0,-15.5,-4.5,1,0,0,0,89,89,102,1,,,,,,,,
,,,,,,,,,,,,,FF,,,,,,,,1.2031,,,,,,,,,,,,,,,,,,,,,,61006bb50007a5f767a7c6e6,61036fbd0e0d4962e2eb00e6,2021-07-29_23h21.45.162,Simcolourproject_2stim_asymm_v5,2020.2.10,Win32,60,61025ae37ef11b136ea224fe,,,,,,,,,2894,-41,-101,1,0,0,response5disk,,3,-8,9.5,1,0,0,rectangle,-8,9.5,1,0,0,-8,9.5,1,0,0,0,90,90,116,1,,,,,,,,
,,,,,,,,,,,,,FF,,,,,,,,1.2008,,,,,,,,,,,,,,,,,,,,,,61006bb50007a5f767a7c6e6,61036fbd0e0d4962e2eb00e6,2021-07-29_23h21.45.162,Simcolourproject_2stim_asymm_v5,2020.2.10,Win32,60,61025ae37ef11b136ea224fe,,,,,,,,,3400,42.5,96.5,1,0,0,response1disk,,7,25.5,3,1,0,0,rectangle,25.5,3,1,0,0,25.5,3,1,0,0,0,91,91,91,1,,,,,,,,
,,,,,,,,,,,,,FF,,,,,,,,0.9116,,,,,,,,,,,,,,,,,,,,,,61006bb50007a5f767a7c6e6,61036fbd0e0d4962e2eb00e6,2021-07-29_23h21.45.162,Simcolourproject_2stim_asymm_v5,2020.2.10,Win32,60,61025ae37ef11b136ea224fe,,,,,,,,,1607,98,52,1,0,0,response1disk,,6,-3.5,0.5,1,0,0,rectangle,-3.5,0.5,1,0,0,-3.5,0.5,1,0,0,0,92,92,103,1,,,,,,,,
,,,,,,,,,,,,,FF,,,,,,,,0.9309,,,,,,,,,,,,,,,,,,,,,,61006bb50007a5f767a7c6e6,61036fbd0e0d4962e2eb00e6,2021-07-29_23h21.45.162,Simcolourproject_2stim_asymm_v5,2020.2.10,Win32,60,61025ae37ef11b136ea224fe,,,,,,,,,3999,29,-75,1,0,0,response3disk,,4,-17,8.5,1,0,0,rectangle,-17,8.5,1,0,0,-17,8.5,1,0,0,0,93,93,16,1,,,,,,,,
,,,,,,,,,,,,,FF,,,,,,,,0.7856,,,,,,,,,,,,,,,,,,,,,,61006bb50007a5f767a7c6e6,61036fbd0e0d4962e2eb00e6,2021-07-29_23h21.45.162,Simcolourproject_2stim_asymm_v5,2020.2.10,Win32,60,61025ae37ef11b136ea224fe,,,,,,,,,2540,22.5,92.5,1,0,0,response1disk,,7,-6,-18.5,1,0,0,rectangle,-6,-18.5,1,0,0,-6,-18.5,1,0,0,0,94,94,85,1,,,,,,,,
,,,,,,,,,,,,,FF,,,,,,,,0.9555,,,,,,,,,,,,,,,,,,,,,,61006bb50007a5f767a7c6e6,61036fbd0e0d4962e2eb00e6,2021-07-29_23h21.45.162,Simcolourproject_2stim_asymm_v5,2020.2.10,Win32,60,61025ae37ef11b136ea224fe,,,,,,,,,1882,108,23.5,1,0,0,response1disk,,6,18.5,8.5,1,0,0,rectangle,18.5,8.5,1,0,0,18.5,8.5,1,0,0,0,95,95,69,1,,,,,,,,
,,,,,,,,,,,,,FF,,,,,,,,1.1169,,,,,,,,,,,,,,,,,,,,,,61006bb50007a5f767a7c6e6,61036fbd0e0d4962e2eb00e6,2021-07-29_23h21.45.162,Simcolourproject_2stim_asymm_v5,2020.2.10,Win32,60,61025ae37ef11b136ea224fe,,,,,,,,,3253,88,35.5,1,0,0,response1disk,,6,25,6.5,1,0,0,rectangle,25,6.5,1,0,0,25,6.5,1,0,0,0,96,96,115,1,,,,,,,,
,,,,,,,,,,,,,FF,,,,,,,,0.6906,,,,,,,,,,,,,,,,,,,,,,61006bb50007a5f767a7c6e6,61036fbd0e0d4962e2eb00e6,2021-07-29_23h21.45.162,Simcolourproject_2stim_asymm_v5,2020.2.10,Win32,60,61025ae37ef11b136ea224fe,,,,,,,,,2659,43,77.5,1,0,0,response1disk,,7,-4.5,12,1,0,0,rectangle,-4.5,12,1,0,0,-4.5,12,1,0,0,0,97,97,53,1,,,,,,,,
,,,,,,,,,,,,,FF,,,,,,,,0.9921,,,,,,,,,,,,,,,,,,,,,,61006bb50007a5f767a7c6e6,61036fbd0e0d4962e2eb00e6,2021-07-29_23h21.45.162,Simcolourproject_2stim_asymm_v5,2020.2.10,Win32,60,61025ae37ef11b136ea224fe,,,,,,,,,706,37,80.5,1,0,0,response1disk,,7,-2,0,1,0,0,rectangle,-2,0,1,0,0,-2,0,1,0,0,0,98,98,14,1,,,,,,,,
,,,,,,,,,,,,,FF,,,,,,,,1.1554,,,,,,,,,,,,,,,,,,,,,,61006bb50007a5f767a7c6e6,61036fbd0e0d4962e2eb00e6,2021-07-29_23h21.45.162,Simcolourproject_2stim_asymm_v5,2020.2.10,Win32,60,61025ae37ef11b136ea224fe,,,,,,,,,280,123.5,32.5,1,0,0,response1disk,,6,-6,6.5,1,0,0,rectangle,-6,6.5,1,0,0,-6,6.5,1,0,0,0,99,99,41,1,,,,,,,,
,,,,,,,,,,,,,FF,,,,,,,,4.1702,,,,,,,,,,,,,,,,,,,,,,61006bb50007a5f767a7c6e6,61036fbd0e0d4962e2eb00e6,2021-07-29_23h21.45.162,Simcolourproject_2stim_asymm_v5,2020.2.10,Win32,60,61025ae37ef11b136ea224fe,,,,,,,,,4270,100.5,27,1,0,0,response1disk,,6,0,1.5,1,0,0,rectangle,0,1.5,1,0,0,0,1.5,1,0,0,0,100,100,112,1,,,,,,,,
,,,,,,,,,,,,,FF,,,,,,,,1.4855,,,,,,,,,,,,,,,,,,,,,,61006bb50007a5f767a7c6e6,61036fbd0e0d4962e2eb00e6,2021-07-29_23h21.45.162,Simcolourproject_2stim_asymm_v5,2020.2.10,Win32,60,61025ae37ef11b136ea224fe,,,,,,,,,123,19.5,112,1,0,0,response1disk,,7,21.5,7.5,1,0,0,rectangle,21.5,7.5,1,0,0,21.5,7.5,1,0,0,0,101,101,141,1,,,,,,,,
,,,,,,,,,,,,,FF,,,,,,,,0.9328,,,,,,,,,,,,,,,,,,,,,,61006bb50007a5f767a7c6e6,61036fbd0e0d4962e2eb00e6,2021-07-29_23h21.45.162,Simcolourproject_2stim_asymm_v5,2020.2.10,Win32,60,61025ae37ef11b136ea224fe,,,,,,,,,882,31.5,73,1,0,0,response1disk,,7,12,12,1,0,0,rectangle,12,12,1,0,0,12,12,1,0,0,0,102,102,90,1,,,,,,,,
,,,,,,,,,,,,,FF,,,,,,,,1.3705,,,,,,,,,,,,,,,,,,,,,,61006bb50007a5f767a7c6e6,61036fbd0e0d4962e2eb00e6,2021-07-29_23h21.45.162,Simcolourproject_2stim_asymm_v5,2020.2.10,Win32,60,61025ae37ef11b136ea224fe,,,,,,,,,3106,-41.5,-100.5,1,0,0,response5disk,,3,-2,-6.5,1,0,0,rectangle,-2,-6.5,1,0,0,-2,-6.5,1,0,0,0,103,103,42,1,,,,,,,,
,,,,,,,,,,,,,FF,,,,,,,,1.3829,,,,,,,,,,,,,,,,,,,,,,61006bb50007a5f767a7c6e6,61036fbd0e0d4962e2eb00e6,2021-07-29_23h21.45.162,Simcolourproject_2stim_asymm_v5,2020.2.10,Win32,60,61025ae37ef11b136ea224fe,,,,,,,,,3176,43.5,85.5,1,0,0,response1disk,,7,2.5,-9.5,1,0,0,rectangle,-106.5,-43,1,0,0,-3.5,-3,1,0,0,0,104,104,82,1,,response5disk_3,TRUE,2,2,"[312,208,282,38,51,154,82,299,79,106,322,304,87,148,49,0,15,148,224,105]",1.7506,rectangle
,,,,,,,,,,,,,FF,,,,,,,,1.2376,,,,,,,,,,,,,,,,,,,,,,61006bb50007a5f767a7c6e6,61036fbd0e0d4962e2eb00e6,2021-07-29_23h21.45.162,Simcolourproject_2stim_asymm_v5,2020.2.10,Win32,60,61025ae37ef11b136ea224fe,,,,,,,,,3976,104.5,54,1,0,0,response1disk,,6,17,8.5,1,0,0,rectangle,99.5,-38,1,0,0,8,3,1,0,0,0,105,105,144,1,,response3disk_3,TRUE,5,5,"[312,208,282,38,51,154,82,299,79,106,322,304,87,148,49,0,15,148,224,105]",1.5877,rectangle
,,,,,,,,,,,,,FF,,,,,,,,0.9386,,,,,,,,,,,,,,,,,,,,,,61006bb50007a5f767a7c6e6,61036fbd0e0d4962e2eb00e6,2021-07-29_23h21.45.162,Simcolourproject_2stim_asymm_v5,2020.2.10,Win32,60,61025ae37ef11b136ea224fe,,,,,,,,,2730,45.5,-108,1,0,0,response3disk,,4,-5.5,-7,1,0,0,rectangle,-5.5,-7,1,0,0,-5.5,-7,1,0,0,0,106,106,149,1,,,,,,,,
,,,,,,,,,,,,,FF,,,,,,,,1.0702,,,,,,,,,,,,,,,,,,,,,,61006bb50007a5f767a7c6e6,61036fbd0e0d4962e2eb00e6,2021-07-29_23h21.45.162,Simcolourproject_2stim_asymm_v5,2020.2.10,Win32,60,61025ae37ef11b136ea224fe,,,,,,,,,3460,92,-63,1,0,0,response3disk,,5,8.5,-1.5,1,0,0,rectangle,8.5,-1.5,1,0,0,8.5,-1.5,1,0,0,0,107,107,22,1,,,,,,,,
,,,,,,,,,,,,,FF,,,,,,,,0.9049,,,,,,,,,,,,,,,,,,,,,,61006bb50007a5f767a7c6e6,61036fbd0e0d4962e2eb00e6,2021-07-29_23h21.45.162,Simcolourproject_2stim_asymm_v5,2020.2.10,Win32,60,61025ae37ef11b136ea224fe,,,,,,,,,3894,46,95.5,1,0,0,response1disk,,7,-15,0.5,1,0,0,rectangle,-15,0.5,1,0,0,-15,0.5,1,0,0,0,108,108,106,1,,,,,,,,
,,,,,,,,,,,,,FF,,,,,,,,0.8002,,,,,,,,,,,,,,,,,,,,,,61006bb50007a5f767a7c6e6,61036fbd0e0d4962e2eb00e6,2021-07-29_23h21.45.162,Simcolourproject_2stim_asymm_v5,2020.2.10,Win32,60,61025ae37ef11b136ea224fe,,,,,,,,,1562,29,79,1,0,0,response1disk,,7,-17,-7.5,1,0,0,rectangle,-17,-7.5,1,0,0,-17,-7.5,1,0,0,0,109,109,86,1,,,,,,,,
,,,,,,,,,,,,,FF,,,,,,,,0.8199,,,,,,,,,,,,,,,,,,,,,,61006bb50007a5f767a7c6e6,61036fbd0e0d4962e2eb00e6,2021-07-29_23h21.45.162,Simcolourproject_2stim_asymm_v5,2020.2.10,Win32,60,61025ae37ef11b136ea224fe,,,,,,,,,2721,-43.5,-102,1,0,0,response5disk,,3,-22.5,3,1,0,0,rectangle,-22.5,3,1,0,0,-22.5,3,1,0,0,0,110,110,60,1,,,,,,,,
,,,,,,,,,,,,,FF,,,,,,,,1.5689,,,,,,,,,,,,,,,,,,,,,,61006bb50007a5f767a7c6e6,61036fbd0e0d4962e2eb00e6,2021-07-29_23h21.45.162,Simcolourproject_2stim_asymm_v5,2020.2.10,Win32,60,61025ae37ef11b136ea224fe,,,,,,,,,3570,49.5,89.5,1,0,0,response1disk,,7,-5.5,-9.5,1,0,0,rectangle,-5.5,-9.5,1,0,0,-5.5,-9.5,1,0,0,0,111,111,139,1,,,,,,,,
,,,,,,,,,,,,,FF,,,,,,,,0.7618,,,,,,,,,,,,,,,,,,,,,,61006bb50007a5f767a7c6e6,61036fbd0e0d4962e2eb00e6,2021-07-29_23h21.45.162,Simcolourproject_2stim_asymm_v5,2020.2.10,Win32,60,61025ae37ef11b136ea224fe,,,,,,,,,2202,34,85.5,1,0,0,response1disk,,7,0.5,2.5,1,0,0,rectangle,0.5,2.5,1,0,0,0.5,2.5,1,0,0,0,112,112,109,1,,,,,,,,
,,,,,,,,,,,,,FF,,,,,,,,0.7411,,,,,,,,,,,,,,,,,,,,,,61006bb50007a5f767a7c6e6,61036fbd0e0d4962e2eb00e6,2021-07-29_23h21.45.162,Simcolourproject_2stim_asymm_v5,2020.2.10,Win32,60,61025ae37ef11b136ea224fe,,,,,,,,,3411,31,84,1,0,0,response1disk,,7,-18.5,0.5,1,0,0,rectangle,-18.5,0.5,1,0,0,-18.5,0.5,1,0,0,0,113,113,34,1,,,,,,,,
,,,,,,,,,,,,,FF,,,,,,,,0.741,,,,,,,,,,,,,,,,,,,,,,61006bb50007a5f767a7c6e6,61036fbd0e0d4962e2eb00e6,2021-07-29_23h21.45.162,Simcolourproject_2stim_asymm_v5,2020.2.10,Win32,60,61025ae37ef11b136ea224fe,,,,,,,,,1088,33,87,1,0,0,response1disk,,7,-13.5,2,1,0,0,rectangle,-13.5,2,1,0,0,-13.5,2,1,0,0,0,114,114,127,1,,,,,,,,
,,,,,,,,,,,,,FF,,,,,,,,0.8293,,,,,,,,,,,,,,,,,,,,,,61006bb50007a5f767a7c6e6,61036fbd0e0d4962e2eb00e6,2021-07-29_23h21.45.162,Simcolourproject_2stim_asymm_v5,2020.2.10,Win32,60,61025ae37ef11b136ea224fe,,,,,,,,,2164,63.5,-104.5,1,0,0,response3disk,,4,16,-1.5,1,0,0,rectangle,16,-1.5,1,0,0,16,-1.5,1,0,0,0,115,115,143,1,,,,,,,,
,,,,,,,,,,,,,FF,,,,,,,,1.6586,,,,,,,,,,,,,,,,,,,,,,61006bb50007a5f767a7c6e6,61036fbd0e0d4962e2eb00e6,2021-07-29_23h21.45.162,Simcolourproject_2stim_asymm_v5,2020.2.10,Win32,60,61025ae37ef11b136ea224fe,,,,,,,,,1769,112,39.5,1,0,0,response1disk,,6,7.5,1.5,1,0,0,rectangle,7.5,1.5,1,0,0,7.5,1.5,1,0,0,0,116,116,44,1,,,,,,,,
,,,,,,,,,,,,,FF,,,,,,,,1.0778,,,,,,,,,,,,,,,,,,,,,,61006bb50007a5f767a7c6e6,61036fbd0e0d4962e2eb00e6,2021-07-29_23h21.45.162,Simcolourproject_2stim_asymm_v5,2020.2.10,Win32,60,61025ae37ef11b136ea224fe,,,,,,,,,612,105,-52.5,1,0,0,response3disk,,5,12.5,-3.5,1,0,0,rectangle,12.5,-3.5,1,0,0,12.5,-3.5,1,0,0,0,117,117,119,1,,,,,,,,
,,,,,,,,,,,,,FF,,,,,,,,0.736,,,,,,,,,,,,,,,,,,,,,,61006bb50007a5f767a7c6e6,61036fbd0e0d4962e2eb00e6,2021-07-29_23h21.45.162,Simcolourproject_2stim_asymm_v5,2020.2.10,Win32,60,61025ae37ef11b136ea224fe,,,,,,,,,2903,33.5,88.5,1,0,0,response1disk,,7,-4,-3,1,0,0,rectangle,-4,-3,1,0,0,-4,-3,1,0,0,0,118,118,2,1,,,,,,,,
,,,,,,,,,,,,,FF,,,,,,,,0.9417,,,,,,,,,,,,,,,,,,,,,,61006bb50007a5f767a7c6e6,61036fbd0e0d4962e2eb00e6,2021-07-29_23h21.45.162,Simcolourproject_2stim_asymm_v5,2020.2.10,Win32,60,61025ae37ef11b136ea224fe,,,,,,,,,1597,-44,-88,1,0,0,response5disk,,3,6,2,1,0,0,rectangle,6,2,1,0,0,6,2,1,0,0,0,119,119,1,1,,,,,,,,
,,,,,,,,,,,,,FF,,,,,,,,0.7044,,,,,,,,,,,,,,,,,,,,,,61006bb50007a5f767a7c6e6,61036fbd0e0d4962e2eb00e6,2021-07-29_23h21.45.162,Simcolourproject_2stim_asymm_v5,2020.2.10,Win32,60,61025ae37ef11b136ea224fe,,,,,,,,,3758,49.5,86.5,1,0,0,response1disk,,7,10,4.5,1,0,0,rectangle,10,4.5,1,0,0,10,4.5,1,0,0,0,120,120,83,1,,,,,,,,
,,,,,,,,,,,,,FF,,,,,,,,1.0374,,,,,,,,,,,,,,,,,,,,,,61006bb50007a5f767a7c6e6,61036fbd0e0d4962e2eb00e6,2021-07-29_23h21.45.162,Simcolourproject_2stim_asymm_v5,2020.2.10,Win32,60,61025ae37ef11b136ea224fe,,,,,,,,,1467,44.5,-111,1,0,0,response3disk,,4,2.5,9,1,0,0,rectangle,2.5,9,1,0,0,2.5,9,1,0,0,0,121,121,96,1,,,,,,,,
,,,,,,,,,,,,,FF,,,,,,,,1.0257,,,,,,,,,,,,,,,,,,,,,,61006bb50007a5f767a7c6e6,61036fbd0e0d4962e2eb00e6,2021-07-29_23h21.45.162,Simcolourproject_2stim_asymm_v5,2020.2.10,Win32,60,61025ae37ef11b136ea224fe,,,,,,,,,829,49,74,1,0,0,response1disk,,7,-19,6.5,1,0,0,rectangle,-19,6.5,1,0,0,-19,6.5,1,0,0,0,122,122,99,1,,,,,,,,
,,,,,,,,,,,,,FF,,,,,,,,0.6549,,,,,,,,,,,,,,,,,,,,,,61006bb50007a5f767a7c6e6,61036fbd0e0d4962e2eb00e6,2021-07-29_23h21.45.162,Simcolourproject_2stim_asymm_v5,2020.2.10,Win32,60,61025ae37ef11b136ea224fe,,,,,,,,,1501,31,81,1,0,0,response1disk,,7,-10,4.5,1,0,0,rectangle,-10,4.5,1,0,0,-10,4.5,1,0,0,0,123,123,61,1,,,,,,,,
,,,,,,,,,,,,,FF,,,,,,,,0.907,,,,,,,,,,,,,,,,,,,,,,61006bb50007a5f767a7c6e6,61036fbd0e0d4962e2eb00e6,2021-07-29_23h21.45.162,Simcolourproject_2stim_asymm_v5,2020.2.10,Win32,60,61025ae37ef11b136ea224fe,,,,,,,,,3511,-93,-47.5,1,0,0,response5disk,,2,1,-4,1,0,0,rectangle,1,-4,1,0,0,1,-4,1,0,0,0,124,124,70,1,,,,,,,,
,,,,,,,,,,,,,FF,,,,,,,,1.6885,,,,,,,,,,,,,,,,,,,,,,61006bb50007a5f767a7c6e6,61036fbd0e0d4962e2eb00e6,2021-07-29_23h21.45.162,Simcolourproject_2stim_asymm_v5,2020.2.10,Win32,60,61025ae37ef11b136ea224fe,,,,,,,,,63,119,36,1,0,0,response1disk,,6,-30.5,3,1,0,0,rectangle,-30.5,3,1,0,0,-30.5,3,1,0,0,0,125,125,66,1,,,,,,,,
,,,,,,,,,,,,,FF,,,,,,,,1.162,,,,,,,,,,,,,,,,,,,,,,61006bb50007a5f767a7c6e6,61036fbd0e0d4962e2eb00e6,2021-07-29_23h21.45.162,Simcolourproject_2stim_asymm_v5,2020.2.10,Win32,60,61025ae37ef11b136ea224fe,,,,,,,,,2419,-69,-88.5,1,0,0,response5disk,,3,-15.5,2,1,0,0,rectangle,-15.5,2,1,0,0,-15.5,2,1,0,0,0,126,126,154,1,,,,,,,,
,,,,,,,,,,,,,FF,,,,,,,,0.6322,,,,,,,,,,,,,,,,,,,,,,61006bb50007a5f767a7c6e6,61036fbd0e0d4962e2eb00e6,2021-07-29_23h21.45.162,Simcolourproject_2stim_asymm_v5,2020.2.10,Win32,60,61025ae37ef11b136ea224fe,,,,,,,,,934,26.5,85.5,1,0,0,response1disk,,7,-13,-13,1,0,0,rectangle,-13,-13,1,0,0,-13,-13,1,0,0,0,127,127,117,1,,,,,,,,
,,,,,,,,,,,,,FF,,,,,,,,2.112,,,,,,,,,,,,,,,,,,,,,,61006bb50007a5f767a7c6e6,61036fbd0e0d4962e2eb00e6,2021-07-29_23h21.45.162,Simcolourproject_2stim_asymm_v5,2020.2.10,Win32,60,61025ae37ef11b136ea224fe,,,,,,,,,2842,114,43.5,1,0,0,response1disk,,6,21.5,6,1,0,0,rectangle,21.5,6,1,0,0,21.5,6,1,0,0,0,128,128,68,1,,,,,,,,
,,,,,,,,,,,,,FF,,,,,,,,1.0397,,,,,,,,,,,,,,,,,,,,,,61006bb50007a5f767a7c6e6,61036fbd0e0d4962e2eb00e6,2021-07-29_23h21.45.162,Simcolourproject_2stim_asymm_v5,2020.2.10,Win32,60,61025ae37ef11b136ea224fe,,,,,,,,,1024,41.5,114.5,1,0,0,response1disk,,7,8.5,4,1,0,0,rectangle,8.5,4,1,0,0,8.5,4,1,0,0,0,129,129,8,1,,,,,,,,
,,,,,,,,,,,,,FF,,,,,,,,1.5878,,,,,,,,,,,,,,,,,,,,,,61006bb50007a5f767a7c6e6,61036fbd0e0d4962e2eb00e6,2021-07-29_23h21.45.162,Simcolourproject_2stim_asymm_v5,2020.2.10,Win32,60,61025ae37ef11b136ea224fe,,,,,,,,,2513,35,90,1,0,0,response1disk,,7,-13,-4,1,0,0,rectangle,-13,-4,1,0,0,-13,-4,1,0,0,0,130,130,12,1,,,,,,,,
,,,,,,,,,,,,,FF,,,,,,,,1.2779,,,,,,,,,,,,,,,,,,,,,,61006bb50007a5f767a7c6e6,61036fbd0e0d4962e2eb00e6,2021-07-29_23h21.45.162,Simcolourproject_2stim_asymm_v5,2020.2.10,Win32,60,61025ae37ef11b136ea224fe,,,,,,,,,1591,44,83,1,0,0,response1disk,,7,-10.5,2.5,1,0,0,rectangle,-10.5,2.5,1,0,0,-10.5,2.5,1,0,0,0,131,131,129,1,,,,,,,,
,,,,,,,,,,,,,FF,,,,,,,,0.5753,,,,,,,,,,,,,,,,,,,,,,61006bb50007a5f767a7c6e6,61036fbd0e0d4962e2eb00e6,2021-07-29_23h21.45.162,Simcolourproject_2stim_asymm_v5,2020.2.10,Win32,60,61025ae37ef11b136ea224fe,,,,,,,,,401,27.5,73,1,0,0,response1disk,,7,-19.5,-1.5,1,0,0,rectangle,-19.5,-1.5,1,0,0,-19.5,-1.5,1,0,0,0,132,132,13,1,,,,,,,,
,,,,,,,,,,,,,FF,,,,,,,,0.7382,,,,,,,,,,,,,,,,,,,,,,61006bb50007a5f767a7c6e6,61036fbd0e0d4962e2eb00e6,2021-07-29_23h21.45.162,Simcolourproject_2stim_asymm_v5,2020.2.10,Win32,60,61025ae37ef11b136ea224fe,,,,,,,,,3564,88,32.5,1,0,0,response1disk,,6,-2.5,-6,1,0,0,rectangle,-2.5,-6,1,0,0,-2.5,-6,1,0,0,0,133,133,36,1,,,,,,,,
,,,,,,,,,,,,,FF,,,,,,,,0.8191,,,,,,,,,,,,,,,,,,,,,,61006bb50007a5f767a7c6e6,61036fbd0e0d4962e2eb00e6,2021-07-29_23h21.45.162,Simcolourproject_2stim_asymm_v5,2020.2.10,Win32,60,61025ae37ef11b136ea224fe,,,,,,,,,2177,95.5,44.5,1,0,0,response1disk,,6,-5.5,5,1,0,0,rectangle,-5.5,5,1,0,0,-5.5,5,1,0,0,0,134,134,25,1,,,,,,,,
,,,,,,,,,,,,,FF,,,,,,,,0.5432,,,,,,,,,,,,,,,,,,,,,,61006bb50007a5f767a7c6e6,61036fbd0e0d4962e2eb00e6,2021-07-29_23h21.45.162,Simcolourproject_2stim_asymm_v5,2020.2.10,Win32,60,61025ae37ef11b136ea224fe,,,,,,,,,2182,41.5,87.5,1,0,0,response1disk,,7,-0.5,-3.5,1,0,0,rectangle,-0.5,-3.5,1,0,0,-0.5,-3.5,1,0,0,0,135,135,136,1,,,,,,,,
,,,,,,,,,,,,,FF,,,,,,,,0.7866,,,,,,,,,,,,,,,,,,,,,,61006bb50007a5f767a7c6e6,61036fbd0e0d4962e2eb00e6,2021-07-29_23h21.45.162,Simcolourproject_2stim_asymm_v5,2020.2.10,Win32,60,61025ae37ef11b136ea224fe,,,,,,,,,186,54.5,-108,1,0,0,response3disk,,4,-3.5,-3.5,1,0,0,rectangle,-3.5,-3.5,1,0,0,-3.5,-3.5,1,0,0,0,136,136,39,1,,,,,,,,
,,,,,,,,,,,,,FF,,,,,,,,0.6945,,,,,,,,,,,,,,,,,,,,,,61006bb50007a5f767a7c6e6,61036fbd0e0d4962e2eb00e6,2021-07-29_23h21.45.162,Simcolourproject_2stim_asymm_v5,2020.2.10,Win32,60,61025ae37ef11b136ea224fe,,,,,,,,,4336,-29,-87,1,0,0,response5disk,,3,6,10.5,1,0,0,rectangle,6,10.5,1,0,0,6,10.5,1,0,0,0,137,137,137,1,,,,,,,,
,,,,,,,,,,,,,FF,,,,,,,,0.5961,,,,,,,,,,,,,,,,,,,,,,61006bb50007a5f767a7c6e6,61036fbd0e0d4962e2eb00e6,2021-07-29_23h21.45.162,Simcolourproject_2stim_asymm_v5,2020.2.10,Win32,60,61025ae37ef11b136ea224fe,,,,,,,,,2080,43.5,84,1,0,0,response1disk,,7,-5,-8.5,1,0,0,rectangle,-5,-8.5,1,0,0,-5,-8.5,1,0,0,0,138,138,125,1,,,,,,,,
,,,,,,,,,,,,,FF,,,,,,,,1.6855,,,,,,,,,,,,,,,,,,,,,,61006bb50007a5f767a7c6e6,61036fbd0e0d4962e2eb00e6,2021-07-29_23h21.45.162,Simcolourproject_2stim_asymm_v5,2020.2.10,Win32,60,61025ae37ef11b136ea224fe,,,,,,,,,969,-51,-103,1,0,0,response5disk,,3,12.5,12,1,0,0,rectangle,12.5,12,1,0,0,12.5,12,1,0,0,0,139,139,7,1,,,,,,,,
,,,,,,,,,,,,,FF,,,,,,,,1.4525,,,,,,,,,,,,,,,,,,,,,,61006bb50007a5f767a7c6e6,61036fbd0e0d4962e2eb00e6,2021-07-29_23h21.45.162,Simcolourproject_2stim_asymm_v5,2020.2.10,Win32,60,61025ae37ef11b136ea224fe,,,,,,,,,3546,-50,-104,1,0,0,response5disk,,3,-5.5,-7.5,1,0,0,rectangle,-5.5,-7.5,1,0,0,-5.5,-7.5,1,0,0,0,140,140,74,1,,,,,,,,
,,,,,,,,,,,,,FF,,,,,,,,0.6372,,,,,,,,,,,,,,,,,,,,,,61006bb50007a5f767a7c6e6,61036fbd0e0d4962e2eb00e6,2021-07-29_23h21.45.162,Simcolourproject_2stim_asymm_v5,2020.2.10,Win32,60,61025ae37ef11b136ea224fe,,,,,,,,,1858,39.5,81,1,0,0,response1disk,,7,11.5,-11.5,1,0,0,rectangle,11.5,-11.5,1,0,0,11.5,-11.5,1,0,0,0,141,141,113,1,,,,,,,,
,,,,,,,,,,,,,FF,,,,,,,,0.6572,,,,,,,,,,,,,,,,,,,,,,61006bb50007a5f767a7c6e6,61036fbd0e0d4962e2eb00e6,2021-07-29_23h21.45.162,Simcolourproject_2stim_asymm_v5,2020.2.10,Win32,60,61025ae37ef11b136ea224fe,,,,,,,,,4198,35.5,69.5,1,0,0,response1disk,,7,-9.5,-3.5,1,0,0,rectangle,-9.5,-3.5,1,0,0,-9.5,-3.5,1,0,0,0,142,142,94,1,,,,,,,,
,,,,,,,,,,,,,FF,,,,,,,,0.8017,,,,,,,,,,,,,,,,,,,,,,61006bb50007a5f767a7c6e6,61036fbd0e0d4962e2eb00e6,2021-07-29_23h21.45.162,Simcolourproject_2stim_asymm_v5,2020.2.10,Win32,60,61025ae37ef11b136ea224fe,,,,,,,,,1514,88.5,30.5,1,0,0,response1disk,,6,-26.5,-10,1,0,0,rectangle,-26.5,-10,1,0,0,-26.5,-10,1,0,0,0,143,143,19,1,,,,,,,,
,,,,,,,,,,,,,FF,,,,,,,,0.9891,,,,,,,,,,,,,,,,,,,,,,61006bb50007a5f767a7c6e6,61036fbd0e0d4962e2eb00e6,2021-07-29_23h21.45.162,Simcolourproject_2stim_asymm_v5,2020.2.10,Win32,60,61025ae37ef11b136ea224fe,,,,,,,,,830,58.5,88.5,1,0,0,response1disk,,7,-8,-1,1,0,0,rectangle,-8,-1,1,0,0,-8,-1,1,0,0,0,144,144,159,1,,,,,,,,
,,,,,,,,,,,,,FF,,,,,,,,2.1588,,,,,,,,,,,,,,,,,,,,,,61006bb50007a5f767a7c6e6,61036fbd0e0d4962e2eb00e6,2021-07-29_23h21.45.162,Simcolourproject_2stim_asymm_v5,2020.2.10,Win32,60,61025ae37ef11b136ea224fe,,,,,,,,,3614,46.5,118.5,1,0,0,response1disk,,7,-4.5,-0.5,1,0,0,rectangle,-4.5,-0.5,1,0,0,-4.5,-0.5,1,0,0,0,145,145,148,1,,,,,,,,
,,,,,,,,,,,,,FF,,,,,,,,0.9388,,,,,,,,,,,,,,,,,,,,,,61006bb50007a5f767a7c6e6,61036fbd0e0d4962e2eb00e6,2021-07-29_23h21.45.162,Simcolourproject_2stim_asymm_v5,2020.2.10,Win32,60,61025ae37ef11b136ea224fe,,,,,,,,,4363,-93,36,1,0,0,response7disk,,1,-25.5,7,1,0,0,rectangle,-25.5,7,1,0,0,-25.5,7,1,0,0,0,146,146,88,1,,,,,,,,
,,,,,,,,,,,,,FF,,,,,,,,0.9895,,,,,,,,,,,,,,,,,,,,,,61006bb50007a5f767a7c6e6,61036fbd0e0d4962e2eb00e6,2021-07-29_23h21.45.162,Simcolourproject_2stim_asymm_v5,2020.2.10,Win32,60,61025ae37ef11b136ea224fe,,,,,,,,,746,52,83.5,1,0,0,response1disk,,7,-13,-9.5,1,0,0,rectangle,-81.5,-34.5,1,0,0,-7.5,2,1,0,0,0,147,147,50,1,,response5disk_3,TRUE,2,2,"[312,208,282,38,51,154,82,299,79,106,322,304,87,148,49,0,15,148,224,105]",1.5578,rectangle
,,,,,,,,,,,,,FF,,,,,,,,1.8756,,,,,,,,,,,,,,,,,,,,,,61006bb50007a5f767a7c6e6,61036fbd0e0d4962e2eb00e6,2021-07-29_23h21.45.162,Simcolourproject_2stim_asymm_v5,2020.2.10,Win32,60,61025ae37ef11b136ea224fe,,,,,,,,,2527,66,97,1,0,0,response1disk,,7,8,12,1,0,0,rectangle,8,12,1,0,0,8,12,1,0,0,0,148,148,38,1,,,,,,,,
,,,,,,,,,,,,,FF,,,,,,,,0.9788,,,,,,,,,,,,,,,,,,,,,,61006bb50007a5f767a7c6e6,61036fbd0e0d4962e2eb00e6,2021-07-29_23h21.45.162,Simcolourproject_2stim_asymm_v5,2020.2.10,Win32,60,61025ae37ef11b136ea224fe,,,,,,,,,4365,-49.5,99,1,0,0,response7disk,,0,-10.5,-11.5,1,0,0,rectangle,-10.5,-11.5,1,0,0,-10.5,-11.5,1,0,0,0,149,149,92,1,,,,,,,,
,,,,,,,,,,,,,FF,,,,,,,,0.8064,,,,,,,,,,,,,,,,,,,,,,61006bb50007a5f767a7c6e6,61036fbd0e0d4962e2eb00e6,2021-07-29_23h21.45.162,Simcolourproject_2stim_asymm_v5,2020.2.10,Win32,60,61025ae37ef11b136ea224fe,,,,,,,,,3119,25,74.5,1,0,0,response1disk,,7,2,-5,1,0,0,rectangle,2,-5,1,0,0,2,-5,1,0,0,0,150,150,81,1,,,,,,,,
,,,,,,,,,,,,,FF,,,,,,,,1.3227,,,,,,,,,,,,,,,,,,,,,,61006bb50007a5f767a7c6e6,61036fbd0e0d4962e2eb00e6,2021-07-29_23h21.45.162,Simcolourproject_2stim_asymm_v5,2020.2.10,Win32,60,61025ae37ef11b136ea224fe,,,,,,,,,1079,32,94,1,0,0,response1disk,,7,-0.5,-8.5,1,0,0,rectangle,-0.5,-8.5,1,0,0,-0.5,-8.5,1,0,0,0,151,151,32,1,,,,,,,,
,,,,,,,,,,,,,FF,,,,,,,,1.4542,,,,,,,,,,,,,,,,,,,,,,61006bb50007a5f767a7c6e6,61036fbd0e0d4962e2eb00e6,2021-07-29_23h21.45.162,Simcolourproject_2stim_asymm_v5,2020.2.10,Win32,60,61025ae37ef11b136ea224fe,,,,,,,,,2686,77,48.5,1,0,0,response1disk,,6,3.5,5,1,0,0,rectangle,3.5,5,1,0,0,3.5,5,1,0,0,0,152,152,67,1,,,,,,,,
,,,,,,,,,,,,,FF,,,,,,,,18.0547,,,,,,,,,,,,,,,,,,,,,,61006bb50007a5f767a7c6e6,61036fbd0e0d4962e2eb00e6,2021-07-29_23h21.45.162,Simcolourproject_2stim_asymm_v5,2020.2.10,Win32,60,61025ae37ef11b136ea224fe,,,,,,,,,1349,81,45,1,0,0,response1disk,,6,-9,-2,1,0,0,rectangle,-84,46,1,0,0,-15,8.5,1,0,0,0,153,153,52,1,,response7disk_3,TRUE,1,1,"[312,208,282,38,51,154,82,299,79,106,322,304,87,148,49,0,15,148,224,105]",1.438,rectangle
,,,,,,,,,,,,,FF,,,,,,,,1.2685,,,,,,,,,,,,,,,,,,,,,,61006bb50007a5f767a7c6e6,61036fbd0e0d4962e2eb00e6,2021-07-29_23h21.45.162,Simcolourproject_2stim_asymm_v5,2020.2.10,Win32,60,61025ae37ef11b136ea224fe,,,,,,,,,2375,50,-99.5,1,0,0,response3disk,,4,-2.5,-6,1,0,0,rectangle,-2.5,-6,1,0,0,-2.5,-6,1,0,0,0,154,154,75,1,,,,,,,,
,,,,,,,,,,,,,FF,,,,,,,,0.7211,,,,,,,,,,,,,,,,,,,,,,61006bb50007a5f767a7c6e6,61036fbd0e0d4962e2eb00e6,2021-07-29_23h21.45.162,Simcolourproject_2stim_asymm_v5,2020.2.10,Win32,60,61025ae37ef11b136ea224fe,,,,,,,,,2867,47,107,1,0,0,response1disk,,7,24,11.5,1,0,0,rectangle,24,11.5,1,0,0,24,11.5,1,0,0,0,155,155,10,1,,,,,,,,
,,,,,,,,,,,,,FF,,,,,,,,0.6551,,,,,,,,,,,,,,,,,,,,,,61006bb50007a5f767a7c6e6,61036fbd0e0d4962e2eb00e6,2021-07-29_23h21.45.162,Simcolourproject_2stim_asymm_v5,2020.2.10,Win32,60,61025ae37ef11b136ea224fe,,,,,,,,,237,49,109.5,1,0,0,response1disk,,7,9,-9,1,0,0,rectangle,9,-9,1,0,0,9,-9,1,0,0,0,156,156,58,1,,,,,,,,
,,,,,,,,,,,,,FF,,,,,,,,0.5828,,,,,,,,,,,,,,,,,,,,,,61006bb50007a5f767a7c6e6,61036fbd0e0d4962e2eb00e6,2021-07-29_23h21.45.162,Simcolourproject_2stim_asymm_v5,2020.2.10,Win32,60,61025ae37ef11b136ea224fe,,,,,,,,,4175,31,94.5,1,0,0,response1disk,,7,-2,2.5,1,0,0,rectangle,-2,2.5,1,0,0,-2,2.5,1,0,0,0,157,157,33,1,,,,,,,,
,,,,,,,,,,,,,FF,,,,,,,,0.611,,,,,,,,,,,,,,,,,,,,,,61006bb50007a5f767a7c6e6,61036fbd0e0d4962e2eb00e6,2021-07-29_23h21.45.162,Simcolourproject_2stim_asymm_v5,2020.2.10,Win32,60,61025ae37ef11b136ea224fe,,,,,,,,,4094,35.5,84.5,1,0,0,response1disk,,7,1,-1.5,1,0,0,rectangle,1,-1.5,1,0,0,1,-1.5,1,0,0,0,158,158,30,1,,,,,,,,
,,,,,,,,,,,,,FF,,,,,,,,1.0035,,,,,,,,,,,,,,,,,,,,,,61006bb50007a5f767a7c6e6,61036fbd0e0d4962e2eb00e6,2021-07-29_23h21.45.162,Simcolourproject_2stim_asymm_v5,2020.2.10,Win32,60,61025ae37ef11b136ea224fe,,,,,,,,,4268,36,-106.5,1,0,0,response3disk,,4,-16.5,12,1,0,0,rectangle,-16.5,12,1,0,0,-16.5,12,1,0,0,0,159,159,9,1,,,,,,,,
,,,,,,,,,,,,,FF,,,,,,,,1.1787,,,,,,,,,,,,,,,,,,,,,,61006bb50007a5f767a7c6e6,61036fbd0e0d4962e2eb00e6,2021-07-29_23h21.45.162,Simcolourproject_2stim_asymm_v5,2020.2.10,Win32,60,61025ae37ef11b136ea224fe,,,,,,,,,3016,61.5,105,1,0,0,response1disk,,7,9.5,12,1,0,0,rectangle,9.5,12,1,0,0,9.5,12,1,0,0,1,0,160,94,1,,,,,,,,
,,,,,,,,,,,,,FF,,,,,,,,0.6003,,,,,,,,,,,,,,,,,,,,,,61006bb50007a5f767a7c6e6,61036fbd0e0d4962e2eb00e6,2021-07-29_23h21.45.162,Simcolourproject_2stim_asymm_v5,2020.2.10,Win32,60,61025ae37ef11b136ea224fe,,,,,,,,,2865,55.5,90.5,1,0,0,response1disk,,7,7.5,11,1,0,0,rectangle,7.5,11,1,0,0,7.5,11,1,0,0,1,1,161,143,1,,,,,,,,
,,,,,,,,,,,,,FF,,,,,,,,0.558,,,,,,,,,,,,,,,,,,,,,,61006bb50007a5f767a7c6e6,61036fbd0e0d4962e2eb00e6,2021-07-29_23h21.45.162,Simcolourproject_2stim_asymm_v5,2020.2.10,Win32,60,61025ae37ef11b136ea224fe,,,,,,,,,448,51.5,95.5,1,0,0,response1disk,,7,5.5,-4,1,0,0,rectangle,5.5,-4,1,0,0,5.5,-4,1,0,0,1,2,162,49,1,,,,,,,,
,,,,,,,,,,,,,FF,,,,,,,,0.4862,,,,,,,,,,,,,,,,,,,,,,61006bb50007a5f767a7c6e6,61036fbd0e0d4962e2eb00e6,2021-07-29_23h21.45.162,Simcolourproject_2stim_asymm_v5,2020.2.10,Win32,60,61025ae37ef11b136ea224fe,,,,,,,,,397,56,85,1,0,0,response1disk,,7,3.5,-6,1,0,0,rectangle,3.5,-6,1,0,0,3.5,-6,1,0,0,1,3,163,121,1,,,,,,,,
,,,,,,,,,,,,,FF,,,,,,,,0.5754,,,,,,,,,,,,,,,,,,,,,,61006bb50007a5f767a7c6e6,61036fbd0e0d4962e2eb00e6,2021-07-29_23h21.45.162,Simcolourproject_2stim_asymm_v5,2020.2.10,Win32,60,61025ae37ef11b136ea224fe,,,,,,,,,4289,37.5,78,1,0,0,response1disk,,7,9.5,-4,1,0,0,rectangle,9.5,-4,1,0,0,9.5,-4,1,0,0,1,4,164,52,1,,,,,,,,
,,,,,,,,,,,,,FF,,,,,,,,1.5107,,,,,,,,,,,,,,,,,,,,,,61006bb50007a5f767a7c6e6,61036fbd0e0d4962e2eb00e6,2021-07-29_23h21.45.162,Simcolourproject_2stim_asymm_v5,2020.2.10,Win32,60,61025ae37ef11b136ea224fe,,,,,,,,,1227,55.5,-88.5,1,0,0,response3disk,,4,3.5,-7.5,1,0,0,rectangle,3.5,-7.5,1,0,0,3.5,-7.5,1,0,0,1,5,165,98,1,,,,,,,,
,,,,,,,,,,,,,FF,,,,,,,,0.8958,,,,,,,,,,,,,,,,,,,,,,61006bb50007a5f767a7c6e6,61036fbd0e0d4962e2eb00e6,2021-07-29_23h21.45.162,Simcolourproject_2stim_asymm_v5,2020.2.10,Win32,60,61025ae37ef11b136ea224fe,,,,,,,,,3637,-67.5,-115,1,0,0,response5disk,,3,10,7.5,1,0,0,rectangle,10,7.5,1,0,0,10,7.5,1,0,0,1,6,166,125,1,,,,,,,,
,,,,,,,,,,,,,FF,,,,,,,,0.8821,,,,,,,,,,,,,,,,,,,,,,61006bb50007a5f767a7c6e6,61036fbd0e0d4962e2eb00e6,2021-07-29_23h21.45.162,Simcolourproject_2stim_asymm_v5,2020.2.10,Win32,60,61025ae37ef11b136ea224fe,,,,,,,,,1238,48.5,104.5,1,0,0,response1disk,,7,7.5,4,1,0,0,rectangle,7.5,4,1,0,0,7.5,4,1,0,0,1,7,167,100,1,,,,,,,,
,,,,,,,,,,,,,FF,,,,,,,,1.093,,,,,,,,,,,,,,,,,,,,,,61006bb50007a5f767a7c6e6,61036fbd0e0d4962e2eb00e6,2021-07-29_23h21.45.162,Simcolourproject_2stim_asymm_v5,2020.2.10,Win32,60,61025ae37ef11b136ea224fe,,,,,,,,,1060,102.5,41,1,0,0,response1disk,,6,33.5,10,1,0,0,rectangle,33.5,10,1,0,0,33.5,10,1,0,0,1,8,168,152,1,,,,,,,,
,,,,,,,,,,,,,FF,,,,,,,,1.2094,,,,,,,,,,,,,,,,,,,,,,61006bb50007a5f767a7c6e6,61036fbd0e0d4962e2eb00e6,2021-07-29_23h21.45.162,Simcolourproject_2stim_asymm_v5,2020.2.10,Win32,60,61025ae37ef11b136ea224fe,,,,,,,,,1414,45,95,1,0,0,response1disk,,7,17,0.5,1,0,0,rectangle,17,0.5,1,0,0,17,0.5,1,0,0,1,9,169,6,1,,,,,,,,
,,,,,,,,,,,,,FF,,,,,,,,1.2503,,,,,,,,,,,,,,,,,,,,,,61006bb50007a5f767a7c6e6,61036fbd0e0d4962e2eb00e6,2021-07-29_23h21.45.162,Simcolourproject_2stim_asymm_v5,2020.2.10,Win32,60,61025ae37ef11b136ea224fe,,,,,,,,,2477,94.5,50,1,0,0,response1disk,,6,24,10,1,0,0,rectangle,24,10,1,0,0,24,10,1,0,0,1,10,170,21,1,,,,,,,,
,,,,,,,,,,,,,FF,,,,,,,,0.7899,,,,,,,,,,,,,,,,,,,,,,61006bb50007a5f767a7c6e6,61036fbd0e0d4962e2eb00e6,2021-07-29_23h21.45.162,Simcolourproject_2stim_asymm_v5,2020.2.10,Win32,60,61025ae37ef11b136ea224fe,,,,,,,,,2438,64,118,1,0,0,response1disk,,7,-2.5,-5,1,0,0,rectangle,-2.5,-5,1,0,0,-2.5,-5,1,0,0,1,11,171,69,1,,,,,,,,
,,,,,,,,,,,,,FF,,,,,,,,1.0385,,,,,,,,,,,,,,,,,,,,,,61006bb50007a5f767a7c6e6,61036fbd0e0d4962e2eb00e6,2021-07-29_23h21.45.162,Simcolourproject_2stim_asymm_v5,2020.2.10,Win32,60,61025ae37ef11b136ea224fe,,,,,,,,,1301,94.5,34.5,1,0,0,response1disk,,6,11,1,1,0,0,rectangle,11,1,1,0,0,11,1,1,0,0,1,12,172,33,1,,,,,,,,
,,,,,,,,,,,,,FF,,,,,,,,0.7275,,,,,,,,,,,,,,,,,,,,,,61006bb50007a5f767a7c6e6,61036fbd0e0d4962e2eb00e6,2021-07-29_23h21.45.162,Simcolourproject_2stim_asymm_v5,2020.2.10,Win32,60,61025ae37ef11b136ea224fe,,,,,,,,,2937,84,-42,1,0,0,response3disk,,5,11.5,-7.5,1,0,0,rectangle,11.5,-7.5,1,0,0,11.5,-7.5,1,0,0,1,13,173,88,1,,,,,,,,
,,,,,,,,,,,,,FF,,,,,,,,0.7598,,,,,,,,,,,,,,,,,,,,,,61006bb50007a5f767a7c6e6,61036fbd0e0d4962e2eb00e6,2021-07-29_23h21.45.162,Simcolourproject_2stim_asymm_v5,2020.2.10,Win32,60,61025ae37ef11b136ea224fe,,,,,,,,,1886,-94.5,-38,1,0,0,response5disk,,2,-15.5,3,1,0,0,rectangle,-15.5,3,1,0,0,-15.5,3,1,0,0,1,14,174,124,1,,,,,,,,
,,,,,,,,,,,,,FF,,,,,,,,1.1522,,,,,,,,,,,,,,,,,,,,,,61006bb50007a5f767a7c6e6,61036fbd0e0d4962e2eb00e6,2021-07-29_23h21.45.162,Simcolourproject_2stim_asymm_v5,2020.2.10,Win32,60,61025ae37ef11b136ea224fe,,,,,,,,,3,-57.5,-114,1,0,0,response5disk,,3,5.5,-10,1,0,0,rectangle,5.5,-10,1,0,0,5.5,-10,1,0,0,1,15,175,68,1,,,,,,,,
,,,,,,,,,,,,,FF,,,,,,,,0.6192,,,,,,,,,,,,,,,,,,,,,,61006bb50007a5f767a7c6e6,61036fbd0e0d4962e2eb00e6,2021-07-29_23h21.45.162,Simcolourproject_2stim_asymm_v5,2020.2.10,Win32,60,61025ae37ef11b136ea224fe,,,,,,,,,3067,50.5,81,1,0,0,response1disk,,7,6,-13.5,1,0,0,rectangle,6,-13.5,1,0,0,6,-13.5,1,0,0,1,16,176,47,1,,,,,,,,
,,,,,,,,,,,,,FF,,,,,,,,0.9096,,,,,,,,,,,,,,,,,,,,,,61006bb50007a5f767a7c6e6,61036fbd0e0d4962e2eb00e6,2021-07-29_23h21.45.162,Simcolourproject_2stim_asymm_v5,2020.2.10,Win32,60,61025ae37ef11b136ea224fe,,,,,,,,,3203,-49.5,-101.5,1,0,0,response5disk,,3,16.5,1,1,0,0,rectangle,16.5,1,1,0,0,16.5,1,1,0,0,1,17,177,10,1,,,,,,,,
,,,,,,,,,,,,,FF,,,,,,,,0.9501,,,,,,,,,,,,,,,,,,,,,,61006bb50007a5f767a7c6e6,61036fbd0e0d4962e2eb00e6,2021-07-29_23h21.45.162,Simcolourproject_2stim_asymm_v5,2020.2.10,Win32,60,61025ae37ef11b136ea224fe,,,,,,,,,248,55.5,113,1,0,0,response1disk,,7,6,-1.5,1,0,0,rectangle,6,-1.5,1,0,0,6,-1.5,1,0,0,1,18,178,87,1,,,,,,,,
,,,,,,,,,,,,,FF,,,,,,,,0.8011,,,,,,,,,,,,,,,,,,,,,,61006bb50007a5f767a7c6e6,61036fbd0e0d4962e2eb00e6,2021-07-29_23h21.45.162,Simcolourproject_2stim_asymm_v5,2020.2.10,Win32,60,61025ae37ef11b136ea224fe,,,,,,,,,1994,36,69,1,0,0,response1disk,,7,-8.5,-4.5,1,0,0,rectangle,-8.5,-4.5,1,0,0,-8.5,-4.5,1,0,0,1,19,179,146,1,,,,,,,,
,,,,,,,,,,,,,FF,,,,,,,,0.7943,,,,,,,,,,,,,,,,,,,,,,61006bb50007a5f767a7c6e6,61036fbd0e0d4962e2eb00e6,2021-07-29_23h21.45.162,Simcolourproject_2stim_asymm_v5,2020.2.10,Win32,60,61025ae37ef11b136ea224fe,,,,,,,,,4201,42,-120,1,0,0,response3disk,,4,-10.5,5,1,0,0,rectangle,-10.5,5,1,0,0,-10.5,5,1,0,0,1,20,180,135,1,,,,,,,,
,,,,,,,,,,,,,FF,,,,,,,,6.7559,,,,,,,,,,,,,,,,,,,,,,61006bb50007a5f767a7c6e6,61036fbd0e0d4962e2eb00e6,2021-07-29_23h21.45.162,Simcolourproject_2stim_asymm_v5,2020.2.10,Win32,60,61025ae37ef11b136ea224fe,,,,,,,,,3034,70,-39,1,0,0,response3disk,,5,5.5,0.5,1,0,0,rectangle,5.5,0.5,1,0,0,5.5,0.5,1,0,0,1,21,181,149,1,,,,,,,,
,,,,,,,,,,,,,FF,,,,,,,,0.7573,,,,,,,,,,,,,,,,,,,,,,61006bb50007a5f767a7c6e6,61036fbd0e0d4962e2eb00e6,2021-07-29_23h21.45.162,Simcolourproject_2stim_asymm_v5,2020.2.10,Win32,60,61025ae37ef11b136ea224fe,,,,,,,,,2136,38.5,63.5,1,0,0,response1disk,,7,-27.5,1,1,0,0,rectangle,-27.5,1,1,0,0,-27.5,1,1,0,0,1,22,182,72,1,,,,,,,,
,,,,,,,,,,,,,FF,,,,,,,,2.089,,,,,,,,,,,,,,,,,,,,,,61006bb50007a5f767a7c6e6,61036fbd0e0d4962e2eb00e6,2021-07-29_23h21.45.162,Simcolourproject_2stim_asymm_v5,2020.2.10,Win32,60,61025ae37ef11b136ea224fe,,,,,,,,,3699,52.5,-78.5,1,0,0,response3disk,,4,3.5,-4.5,1,0,0,rectangle,3.5,-4.5,1,0,0,3.5,-4.5,1,0,0,1,23,183,41,1,,,,,,,,
,,,,,,,,,,,,,FF,,,,,,,,1.1534,,,,,,,,,,,,,,,,,,,,,,61006bb50007a5f767a7c6e6,61036fbd0e0d4962e2eb00e6,2021-07-29_23h21.45.162,Simcolourproject_2stim_asymm_v5,2020.2.10,Win32,60,61025ae37ef11b136ea224fe,,,,,,,,,838,49.5,102,1,0,0,response1disk,,7,15,9,1,0,0,rectangle,15,9,1,0,0,15,9,1,0,0,1,24,184,61,1,,,,,,,,
,,,,,,,,,,,,,FF,,,,,,,,1.0443,,,,,,,,,,,,,,,,,,,,,,61006bb50007a5f767a7c6e6,61036fbd0e0d4962e2eb00e6,2021-07-29_23h21.45.162,Simcolourproject_2stim_asymm_v5,2020.2.10,Win32,60,61025ae37ef11b136ea224fe,,,,,,,,,4315,74,106,1,0,0,response1disk,,7,-18,4,1,0,0,rectangle,-18,4,1,0,0,-18,4,1,0,0,1,25,185,150,1,,,,,,,,
,,,,,,,,,,,,,FF,,,,,,,,0.7509,,,,,,,,,,,,,,,,,,,,,,61006bb50007a5f767a7c6e6,61036fbd0e0d4962e2eb00e6,2021-07-29_23h21.45.162,Simcolourproject_2stim_asymm_v5,2020.2.10,Win32,60,61025ae37ef11b136ea224fe,,,,,,,,,116,43.5,102.5,1,0,0,response1disk,,7,4,4.5,1,0,0,rectangle,4,4.5,1,0,0,4,4.5,1,0,0,1,26,186,92,1,,,,,,,,
,,,,,,,,,,,,,FF,,,,,,,,0.95,,,,,,,,,,,,,,,,,,,,,,61006bb50007a5f767a7c6e6,61036fbd0e0d4962e2eb00e6,2021-07-29_23h21.45.162,Simcolourproject_2stim_asymm_v5,2020.2.10,Win32,60,61025ae37ef11b136ea224fe,,,,,,,,,3725,51,116,1,0,0,response1disk,,7,6.5,9,1,0,0,rectangle,6.5,9,1,0,0,6.5,9,1,0,0,1,27,187,114,1,,,,,,,,
,,,,,,,,,,,,,FF,,,,,,,,0.5886,,,,,,,,,,,,,,,,,,,,,,61006bb50007a5f767a7c6e6,61036fbd0e0d4962e2eb00e6,2021-07-29_23h21.45.162,Simcolourproject_2stim_asymm_v5,2020.2.10,Win32,60,61025ae37ef11b136ea224fe,,,,,,,,,1668,45.5,74.5,1,0,0,response1disk,,7,-16,-12.5,1,0,0,rectangle,-16,-12.5,1,0,0,-16,-12.5,1,0,0,1,28,188,131,1,,,,,,,,
,,,,,,,,,,,,,FF,,,,,,,,1.2339,,,,,,,,,,,,,,,,,,,,,,61006bb50007a5f767a7c6e6,61036fbd0e0d4962e2eb00e6,2021-07-29_23h21.45.162,Simcolourproject_2stim_asymm_v5,2020.2.10,Win32,60,61025ae37ef11b136ea224fe,,,,,,,,,618,51.5,-107,1,0,0,response3disk,,4,-16.5,-4,1,0,0,rectangle,-16.5,-4,1,0,0,-16.5,-4,1,0,0,1,29,189,119,1,,,,,,,,
,,,,,,,,,,,,,FF,,,,,,,,1.0181,,,,,,,,,,,,,,,,,,,,,,61006bb50007a5f767a7c6e6,61036fbd0e0d4962e2eb00e6,2021-07-29_23h21.45.162,Simcolourproject_2stim_asymm_v5,2020.2.10,Win32,60,61025ae37ef11b136ea224fe,,,,,,,,,3039,-48.5,-98,1,0,0,response5disk,,3,-15.5,-4.5,1,0,0,rectangle,-15.5,-4.5,1,0,0,-15.5,-4.5,1,0,0,1,30,190,39,1,,,,,,,,
,,,,,,,,,,,,,FF,,,,,,,,0.736,,,,,,,,,,,,,,,,,,,,,,61006bb50007a5f767a7c6e6,61036fbd0e0d4962e2eb00e6,2021-07-29_23h21.45.162,Simcolourproject_2stim_asymm_v5,2020.2.10,Win32,60,61025ae37ef11b136ea224fe,,,,,,,,,2274,54,99.5,1,0,0,response1disk,,7,13,2,1,0,0,rectangle,13,2,1,0,0,13,2,1,0,0,1,31,191,45,1,,,,,,,,
,,,,,,,,,,,,,FF,,,,,,,,0.5493,,,,,,,,,,,,,,,,,,,,,,61006bb50007a5f767a7c6e6,61036fbd0e0d4962e2eb00e6,2021-07-29_23h21.45.162,Simcolourproject_2stim_asymm_v5,2020.2.10,Win32,60,61025ae37ef11b136ea224fe,,,,,,,,,4325,35,68.5,1,0,0,response1disk,,7,1.5,2,1,0,0,rectangle,1.5,2,1,0,0,1.5,2,1,0,0,1,32,192,19,1,,,,,,,,
,,,,,,,,,,,,,FF,,,,,,,,0.8547,,,,,,,,,,,,,,,,,,,,,,61006bb50007a5f767a7c6e6,61036fbd0e0d4962e2eb00e6,2021-07-29_23h21.45.162,Simcolourproject_2stim_asymm_v5,2020.2.10,Win32,60,61025ae37ef11b136ea224fe,,,,,,,,,4333,36,69,1,0,0,response1disk,,7,-6.5,-3,1,0,0,rectangle,-6.5,-3,1,0,0,-6.5,-3,1,0,0,1,33,193,142,1,,,,,,,,
,,,,,,,,,,,,,FF,,,,,,,,0.7106,,,,,,,,,,,,,,,,,,,,,,61006bb50007a5f767a7c6e6,61036fbd0e0d4962e2eb00e6,2021-07-29_23h21.45.162,Simcolourproject_2stim_asymm_v5,2020.2.10,Win32,60,61025ae37ef11b136ea224fe,,,,,,,,,3612,37,68,1,0,0,response1disk,,7,9.5,6,1,0,0,rectangle,9.5,6,1,0,0,9.5,6,1,0,0,1,34,194,63,1,,,,,,,,
,,,,,,,,,,,,,FF,,,,,,,,1.2359,,,,,,,,,,,,,,,,,,,,,,61006bb50007a5f767a7c6e6,61036fbd0e0d4962e2eb00e6,2021-07-29_23h21.45.162,Simcolourproject_2stim_asymm_v5,2020.2.10,Win32,60,61025ae37ef11b136ea224fe,,,,,,,,,1072,92,-35,1,0,0,response3disk,,5,-3,7.5,1,0,0,rectangle,-3,7.5,1,0,0,-3,7.5,1,0,0,1,35,195,59,1,,,,,,,,
,,,,,,,,,,,,,FF,,,,,,,,0.8347,,,,,,,,,,,,,,,,,,,,,,61006bb50007a5f767a7c6e6,61036fbd0e0d4962e2eb00e6,2021-07-29_23h21.45.162,Simcolourproject_2stim_asymm_v5,2020.2.10,Win32,60,61025ae37ef11b136ea224fe,,,,,,,,,2772,-78,-35,1,0,0,response5disk,,2,-2,-8.5,1,0,0,rectangle,-2,-8.5,1,0,0,-2,-8.5,1,0,0,1,36,196,37,1,,,,,,,,
,,,,,,,,,,,,,FF,,,,,,,,0.6383,,,,,,,,,,,,,,,,,,,,,,61006bb50007a5f767a7c6e6,61036fbd0e0d4962e2eb00e6,2021-07-29_23h21.45.162,Simcolourproject_2stim_asymm_v5,2020.2.10,Win32,60,61025ae37ef11b136ea224fe,,,,,,,,,715,59.5,87.5,1,0,0,response1disk,,7,2.5,3.5,1,0,0,rectangle,2.5,3.5,1,0,0,2.5,3.5,1,0,0,1,37,197,104,1,,,,,,,,
,,,,,,,,,,,,,FF,,,,,,,,0.6403,,,,,,,,,,,,,,,,,,,,,,61006bb50007a5f767a7c6e6,61036fbd0e0d4962e2eb00e6,2021-07-29_23h21.45.162,Simcolourproject_2stim_asymm_v5,2020.2.10,Win32,60,61025ae37ef11b136ea224fe,,,,,,,,,942,23,89.5,1,0,0,response1disk,,7,-6,-7,1,0,0,rectangle,-6,-7,1,0,0,-6,-7,1,0,0,1,38,198,110,1,,,,,,,,
,,,,,,,,,,,,,FF,,,,,,,,0.6101,,,,,,,,,,,,,,,,,,,,,,61006bb50007a5f767a7c6e6,61036fbd0e0d4962e2eb00e6,2021-07-29_23h21.45.162,Simcolourproject_2stim_asymm_v5,2020.2.10,Win32,60,61025ae37ef11b136ea224fe,,,,,,,,,3527,34,68,1,0,0,response1disk,,7,-5.5,-8,1,0,0,rectangle,-5.5,-8,1,0,0,-5.5,-8,1,0,0,1,39,199,36,1,,,,,,,,
,,,,,,,,,,,,,FF,,,,,,,,0.6125,,,,,,,,,,,,,,,,,,,,,,61006bb50007a5f767a7c6e6,61036fbd0e0d4962e2eb00e6,2021-07-29_23h21.45.162,Simcolourproject_2stim_asymm_v5,2020.2.10,Win32,60,61025ae37ef11b136ea224fe,,,,,,,,,936,32.5,82.5,1,0,0,response1disk,,7,14,8.5,1,0,0,rectangle,14,8.5,1,0,0,14,8.5,1,0,0,1,40,200,60,1,,,,,,,,
,,,,,,,,,,,,,FF,,,,,,,,0.5059,,,,,,,,,,,,,,,,,,,,,,61006bb50007a5f767a7c6e6,61036fbd0e0d4962e2eb00e6,2021-07-29_23h21.45.162,Simcolourproject_2stim_asymm_v5,2020.2.10,Win32,60,61025ae37ef11b136ea224fe,,,,,,,,,84,42,86,1,0,0,response1disk,,7,7.5,3.5,1,0,0,rectangle,7.5,3.5,1,0,0,7.5,3.5,1,0,0,1,41,201,108,1,,,,,,,,
,,,,,,,,,,,,,FF,,,,,,,,0.5088,,,,,,,,,,,,,,,,,,,,,,61006bb50007a5f767a7c6e6,61036fbd0e0d4962e2eb00e6,2021-07-29_23h21.45.162,Simcolourproject_2stim_asymm_v5,2020.2.10,Win32,60,61025ae37ef11b136ea224fe,,,,,,,,,2144,35,68.5,1,0,0,response1disk,,7,-12,-14.5,1,0,0,rectangle,-12,-14.5,1,0,0,-12,-14.5,1,0,0,1,42,202,79,1,,,,,,,,
,,,,,,,,,,,,,FF,,,,,,,,0.551,,,,,,,,,,,,,,,,,,,,,,61006bb50007a5f767a7c6e6,61036fbd0e0d4962e2eb00e6,2021-07-29_23h21.45.162,Simcolourproject_2stim_asymm_v5,2020.2.10,Win32,60,61025ae37ef11b136ea224fe,,,,,,,,,4110,42,84,1,0,0,response1disk,,7,-17,-5.5,1,0,0,rectangle,-17,-5.5,1,0,0,-17,-5.5,1,0,0,1,43,203,3,1,,,,,,,,
,,,,,,,,,,,,,FF,,,,,,,,0.9025,,,,,,,,,,,,,,,,,,,,,,61006bb50007a5f767a7c6e6,61036fbd0e0d4962e2eb00e6,2021-07-29_23h21.45.162,Simcolourproject_2stim_asymm_v5,2020.2.10,Win32,60,61025ae37ef11b136ea224fe,,,,,,,,,655,34.5,-109,1,0,0,response3disk,,4,-4.5,-2,1,0,0,rectangle,-4.5,-2,1,0,0,-4.5,-2,1,0,0,1,44,204,148,1,,,,,,,,
,,,,,,,,,,,,,FF,,,,,,,,1.538,,,,,,,,,,,,,,,,,,,,,,61006bb50007a5f767a7c6e6,61036fbd0e0d4962e2eb00e6,2021-07-29_23h21.45.162,Simcolourproject_2stim_asymm_v5,2020.2.10,Win32,60,61025ae37ef11b136ea224fe,,,,,,,,,4196,80,63.5,1,0,0,response1disk,,6,3,-6,1,0,0,rectangle,3,-6,1,0,0,3,-6,1,0,0,1,45,205,156,1,,,,,,,,
,,,,,,,,,,,,,FF,,,,,,,,0.6623,,,,,,,,,,,,,,,,,,,,,,61006bb50007a5f767a7c6e6,61036fbd0e0d4962e2eb00e6,2021-07-29_23h21.45.162,Simcolourproject_2stim_asymm_v5,2020.2.10,Win32,60,61025ae37ef11b136ea224fe,,,,,,,,,3083,57.5,107.5,1,0,0,response1disk,,7,-8,-11.5,1,0,0,rectangle,-8,-11.5,1,0,0,-8,-11.5,1,0,0,1,46,206,90,1,,,,,,,,
,,,,,,,,,,,,,FF,,,,,,,,0.8078,,,,,,,,,,,,,,,,,,,,,,61006bb50007a5f767a7c6e6,61036fbd0e0d4962e2eb00e6,2021-07-29_23h21.45.162,Simcolourproject_2stim_asymm_v5,2020.2.10,Win32,60,61025ae37ef11b136ea224fe,,,,,,,,,3683,82,-59,1,0,0,response3disk,,5,19.5,2,1,0,0,rectangle,37.5,101.5,1,0,0,17,3.5,1,0,0,1,47,207,123,1,,response1disk_3,TRUE,7,7,"[312,208,282,38,51,154,82,299,79,106,322,304,87,148,49,0,15,148,224,105]",1.8438,rectangle
,,,,,,,,,,,,,FF,,,,,,,,6.7368,,,,,,,,,,,,,,,,,,,,,,61006bb50007a5f767a7c6e6,61036fbd0e0d4962e2eb00e6,2021-07-29_23h21.45.162,Simcolourproject_2stim_asymm_v5,2020.2.10,Win32,60,61025ae37ef11b136ea224fe,,,,,,,,,2828,87,-48,1,0,0,response3disk,,5,-21.5,6,1,0,0,rectangle,-21.5,6,1,0,0,-21.5,6,1,0,0,1,48,208,31,1,,,,,,,,
,,,,,,,,,,,,,FF,,,,,,,,1.2367,,,,,,,,,,,,,,,,,,,,,,61006bb50007a5f767a7c6e6,61036fbd0e0d4962e2eb00e6,2021-07-29_23h21.45.162,Simcolourproject_2stim_asymm_v5,2020.2.10,Win32,60,61025ae37ef11b136ea224fe,,,,,,,,,1626,61,103,1,0,0,response1disk,,7,6,-0.5,1,0,0,rectangle,6,-0.5,1,0,0,6,-0.5,1,0,0,1,49,209,83,1,,,,,,,,
,,,,,,,,,,,,,FF,,,,,,,,1.9357,,,,,,,,,,,,,,,,,,,,,,61006bb50007a5f767a7c6e6,61036fbd0e0d4962e2eb00e6,2021-07-29_23h21.45.162,Simcolourproject_2stim_asymm_v5,2020.2.10,Win32,60,61025ae37ef11b136ea224fe,,,,,,,,,2479,29.5,71.5,1,0,0,response1disk,,7,12,6,1,0,0,rectangle,12,6,1,0,0,12,6,1,0,0,1,50,210,118,1,,,,,,,,
,,,,,,,,,,,,,FF,,,,,,,,0.7901,,,,,,,,,,,,,,,,,,,,,,61006bb50007a5f767a7c6e6,61036fbd0e0d4962e2eb00e6,2021-07-29_23h21.45.162,Simcolourproject_2stim_asymm_v5,2020.2.10,Win32,60,61025ae37ef11b136ea224fe,,,,,,,,,4122,-40,-98.5,1,0,0,response5disk,,3,-2,-2.5,1,0,0,rectangle,-2,-2.5,1,0,0,-2,-2.5,1,0,0,1,51,211,65,1,,,,,,,,
,,,,,,,,,,,,,FF,,,,,,,,1.16,,,,,,,,,,,,,,,,,,,,,,61006bb50007a5f767a7c6e6,61036fbd0e0d4962e2eb00e6,2021-07-29_23h21.45.162,Simcolourproject_2stim_asymm_v5,2020.2.10,Win32,60,61025ae37ef11b136ea224fe,,,,,,,,,3805,41.5,-113,1,0,0,response3disk,,4,-16,8,1,0,0,rectangle,-16,8,1,0,0,-16,8,1,0,0,1,52,212,145,1,,,,,,,,
,,,,,,,,,,,,,FF,,,,,,,,0.7743,,,,,,,,,,,,,,,,,,,,,,61006bb50007a5f767a7c6e6,61036fbd0e0d4962e2eb00e6,2021-07-29_23h21.45.162,Simcolourproject_2stim_asymm_v5,2020.2.10,Win32,60,61025ae37ef11b136ea224fe,,,,,,,,,3630,-79.5,44,1,0,0,response7disk,,1,-9,3.5,1,0,0,rectangle,-9,3.5,1,0,0,-9,3.5,1,0,0,1,53,213,48,1,,,,,,,,
,,,,,,,,,,,,,FF,,,,,,,,0.625,,,,,,,,,,,,,,,,,,,,,,61006bb50007a5f767a7c6e6,61036fbd0e0d4962e2eb00e6,2021-07-29_23h21.45.162,Simcolourproject_2stim_asymm_v5,2020.2.10,Win32,60,61025ae37ef11b136ea224fe,,,,,,,,,1999,33.5,85.5,1,0,0,response1disk,,7,0.5,-2,1,0,0,rectangle,0.5,-2,1,0,0,0.5,-2,1,0,0,1,54,214,96,1,,,,,,,,
,,,,,,,,,,,,,FF,,,,,,,,1.0266,,,,,,,,,,,,,,,,,,,,,,61006bb50007a5f767a7c6e6,61036fbd0e0d4962e2eb00e6,2021-07-29_23h21.45.162,Simcolourproject_2stim_asymm_v5,2020.2.10,Win32,60,61025ae37ef11b136ea224fe,,,,,,,,,1362,97.5,31,1,0,0,response1disk,,6,6.5,5,1,0,0,rectangle,6.5,5,1,0,0,6.5,5,1,0,0,1,55,215,147,1,,,,,,,,
,,,,,,,,,,,,,FF,,,,,,,,1.056,,,,,,,,,,,,,,,,,,,,,,61006bb50007a5f767a7c6e6,61036fbd0e0d4962e2eb00e6,2021-07-29_23h21.45.162,Simcolourproject_2stim_asymm_v5,2020.2.10,Win32,60,61025ae37ef11b136ea224fe,,,,,,,,,1759,53,-95.5,1,0,0,response3disk,,4,4.5,8,1,0,0,rectangle,4.5,8,1,0,0,4.5,8,1,0,0,1,56,216,32,1,,,,,,,,
,,,,,,,,,,,,,FF,,,,,,,,0.9221,,,,,,,,,,,,,,,,,,,,,,61006bb50007a5f767a7c6e6,61036fbd0e0d4962e2eb00e6,2021-07-29_23h21.45.162,Simcolourproject_2stim_asymm_v5,2020.2.10,Win32,60,61025ae37ef11b136ea224fe,,,,,,,,,2791,87,-61.5,1,0,0,response3disk,,5,-21.5,-2.5,1,0,0,rectangle,-21.5,-2.5,1,0,0,-21.5,-2.5,1,0,0,1,57,217,140,1,,,,,,,,
,,,,,,,,,,,,,FF,,,,,,,,0.8355,,,,,,,,,,,,,,,,,,,,,,61006bb50007a5f767a7c6e6,61036fbd0e0d4962e2eb00e6,2021-07-29_23h21.45.162,Simcolourproject_2stim_asymm_v5,2020.2.10,Win32,60,61025ae37ef11b136ea224fe,,,,,,,,,4035,27,68.5,1,0,0,response1disk,,7,-16.5,-9.5,1,0,0,rectangle,-16.5,-9.5,1,0,0,-16.5,-9.5,1,0,0,1,58,218,29,1,,,,,,,,
,,,,,,,,,,,,,FF,,,,,,,,0.8277,,,,,,,,,,,,,,,,,,,,,,61006bb50007a5f767a7c6e6,61036fbd0e0d4962e2eb00e6,2021-07-29_23h21.45.162,Simcolourproject_2stim_asymm_v5,2020.2.10,Win32,60,61025ae37ef11b136ea224fe,,,,,,,,,3485,66,105,1,0,0,response1disk,,7,16,10.5,1,0,0,rectangle,16,10.5,1,0,0,16,10.5,1,0,0,1,59,219,97,1,,,,,,,,
,,,,,,,,,,,,,FF,,,,,,,,0.732,,,,,,,,,,,,,,,,,,,,,,61006bb50007a5f767a7c6e6,61036fbd0e0d4962e2eb00e6,2021-07-29_23h21.45.162,Simcolourproject_2stim_asymm_v5,2020.2.10,Win32,60,61025ae37ef11b136ea224fe,,,,,,,,,2277,88,48.5,1,0,0,response1disk,,6,-5,0.5,1,0,0,rectangle,-5,0.5,1,0,0,-5,0.5,1,0,0,1,60,220,116,1,,,,,,,,
,,,,,,,,,,,,,FF,,,,,,,,0.5945,,,,,,,,,,,,,,,,,,,,,,61006bb50007a5f767a7c6e6,61036fbd0e0d4962e2eb00e6,2021-07-29_23h21.45.162,Simcolourproject_2stim_asymm_v5,2020.2.10,Win32,60,61025ae37ef11b136ea224fe,,,,,,,,,688,39.5,81,1,0,0,response1disk,,7,-9,-4,1,0,0,rectangle,-9,-4,1,0,0,-9,-4,1,0,0,1,61,221,105,1,,,,,,,,
,,,,,,,,,,,,,FF,,,,,,,,0.57,,,,,,,,,,,,,,,,,,,,,,61006bb50007a5f767a7c6e6,61036fbd0e0d4962e2eb00e6,2021-07-29_23h21.45.162,Simcolourproject_2stim_asymm_v5,2020.2.10,Win32,60,61025ae37ef11b136ea224fe,,,,,,,,,2806,45.5,79.5,1,0,0,response1disk,,7,-8,-5.5,1,0,0,rectangle,-8,-5.5,1,0,0,-8,-5.5,1,0,0,1,62,222,57,1,,,,,,,,
,,,,,,,,,,,,,FF,,,,,,,,0.8068,,,,,,,,,,,,,,,,,,,,,,61006bb50007a5f767a7c6e6,61036fbd0e0d4962e2eb00e6,2021-07-29_23h21.45.162,Simcolourproject_2stim_asymm_v5,2020.2.10,Win32,60,61025ae37ef11b136ea224fe,,,,,,,,,4356,-60,76.5,1,0,0,response7disk,,0,-1.5,6.5,1,0,0,rectangle,29,88,1,0,0,10.5,-5.5,1,0,0,1,63,223,139,1,,response1disk_3,TRUE,7,7,"[312,208,282,38,51,154,82,299,79,106,322,304,87,148,49,0,15,148,224,105]",1.3137,rectangle
,,,,,,,,,,,,,FF,,,,,,,,1.3041,,,,,,,,,,,,,,,,,,,,,,61006bb50007a5f767a7c6e6,61036fbd0e0d4962e2eb00e6,2021-07-29_23h21.45.162,Simcolourproject_2stim_asymm_v5,2020.2.10,Win32,60,61025ae37ef11b136ea224fe,,,,,,,,,50,48.5,98,1,0,0,response1disk,,7,-9.5,-3,1,0,0,rectangle,-9.5,-3,1,0,0,-9.5,-3,1,0,0,1,64,224,74,1,,,,,,,,
,,,,,,,,,,,,,FF,,,,,,,,0.7198,,,,,,,,,,,,,,,,,,,,,,61006bb50007a5f767a7c6e6,61036fbd0e0d4962e2eb00e6,2021-07-29_23h21.45.162,Simcolourproject_2stim_asymm_v5,2020.2.10,Win32,60,61025ae37ef11b136ea224fe,,,,,,,,,1613,57,-98.5,1,0,0,response3disk,,4,-2,-6,1,0,0,rectangle,-2,-6,1,0,0,-2,-6,1,0,0,1,65,225,9,1,,,,,,,,
,,,,,,,,,,,,,FF,,,,,,,,0.7127,,,,,,,,,,,,,,,,,,,,,,61006bb50007a5f767a7c6e6,61036fbd0e0d4962e2eb00e6,2021-07-29_23h21.45.162,Simcolourproject_2stim_asymm_v5,2020.2.10,Win32,60,61025ae37ef11b136ea224fe,,,,,,,,,1879,95,-46,1,0,0,response3disk,,5,12.5,-3.5,1,0,0,rectangle,12.5,-3.5,1,0,0,12.5,-3.5,1,0,0,1,66,226,103,1,,,,,,,,
,,,,,,,,,,,,,FF,,,,,,,,0.8122,,,,,,,,,,,,,,,,,,,,,,61006bb50007a5f767a7c6e6,61036fbd0e0d4962e2eb00e6,2021-07-29_23h21.45.162,Simcolourproject_2stim_asymm_v5,2020.2.10,Win32,60,61025ae37ef11b136ea224fe,,,,,,,,,3478,-48,-85.5,1,0,0,response5disk,,3,7,6.5,1,0,0,rectangle,7,6.5,1,0,0,7,6.5,1,0,0,1,67,227,46,1,,,,,,,,
,,,,,,,,,,,,,FF,,,,,,,,4.0358,,,,,,,,,,,,,,,,,,,,,,61006bb50007a5f767a7c6e6,61036fbd0e0d4962e2eb00e6,2021-07-29_23h21.45.162,Simcolourproject_2stim_asymm_v5,2020.2.10,Win32,60,61025ae37ef11b136ea224fe,,,,,,,,,3183,79.5,-63,1,0,0,response3disk,,5,9,-4.5,1,0,0,rectangle,9,-4.5,1,0,0,9,-4.5,1,0,0,1,68,228,40,1,,,,,,,,
,,,,,,,,,,,,,FF,,,,,,,,0.6539,,,,,,,,,,,,,,,,,,,,,,61006bb50007a5f767a7c6e6,61036fbd0e0d4962e2eb00e6,2021-07-29_23h21.45.162,Simcolourproject_2stim_asymm_v5,2020.2.10,Win32,60,61025ae37ef11b136ea224fe,,,,,,,,,3653,39,96.5,1,0,0,response1disk,,7,8.5,7.5,1,0,0,rectangle,8.5,7.5,1,0,0,8.5,7.5,1,0,0,1,69,229,70,1,,,,,,,,
,,,,,,,,,,,,,FF,,,,,,,,1.1181,,,,,,,,,,,,,,,,,,,,,,61006bb50007a5f767a7c6e6,61036fbd0e0d4962e2eb00e6,2021-07-29_23h21.45.162,Simcolourproject_2stim_asymm_v5,2020.2.10,Win32,60,61025ae37ef11b136ea224fe,,,,,,,,,735,38.5,81.5,1,0,0,response1disk,,7,3,-6,1,0,0,rectangle,3,-6,1,0,0,3,-6,1,0,0,1,70,230,102,1,,,,,,,,
,,,,,,,,,,,,,FF,,,,,,,,0.7227,,,,,,,,,,,,,,,,,,,,,,61006bb50007a5f767a7c6e6,61036fbd0e0d4962e2eb00e6,2021-07-29_23h21.45.162,Simcolourproject_2stim_asymm_v5,2020.2.10,Win32,60,61025ae37ef11b136ea224fe,,,,,,,,,902,100,31.5,1,0,0,response1disk,,6,-12.5,8,1,0,0,rectangle,-12.5,8,1,0,0,-12.5,8,1,0,0,1,71,231,127,1,,,,,,,,
,,,,,,,,,,,,,FF,,,,,,,,0.9532,,,,,,,,,,,,,,,,,,,,,,61006bb50007a5f767a7c6e6,61036fbd0e0d4962e2eb00e6,2021-07-29_23h21.45.162,Simcolourproject_2stim_asymm_v5,2020.2.10,Win32,60,61025ae37ef11b136ea224fe,,,,,,,,,11,107.5,-66,1,0,0,response3disk,,5,-10,9,1,0,0,rectangle,-10,9,1,0,0,-10,9,1,0,0,1,72,232,42,1,,,,,,,,
,,,,,,,,,,,,,FF,,,,,,,,0.6283,,,,,,,,,,,,,,,,,,,,,,61006bb50007a5f767a7c6e6,61036fbd0e0d4962e2eb00e6,2021-07-29_23h21.45.162,Simcolourproject_2stim_asymm_v5,2020.2.10,Win32,60,61025ae37ef11b136ea224fe,,,,,,,,,932,48.5,77,1,0,0,response1disk,,7,2.5,2.5,1,0,0,rectangle,2.5,2.5,1,0,0,2.5,2.5,1,0,0,1,73,233,7,1,,,,,,,,
,,,,,,,,,,,,,FF,,,,,,,,0.6692,,,,,,,,,,,,,,,,,,,,,,61006bb50007a5f767a7c6e6,61036fbd0e0d4962e2eb00e6,2021-07-29_23h21.45.162,Simcolourproject_2stim_asymm_v5,2020.2.10,Win32,60,61025ae37ef11b136ea224fe,,,,,,,,,2331,55,85.5,1,0,0,response1disk,,7,6,1,1,0,0,rectangle,6,1,1,0,0,6,1,1,0,0,1,74,234,13,1,,,,,,,,
,,,,,,,,,,,,,FF,,,,,,,,1.248,,,,,,,,,,,,,,,,,,,,,,61006bb50007a5f767a7c6e6,61036fbd0e0d4962e2eb00e6,2021-07-29_23h21.45.162,Simcolourproject_2stim_asymm_v5,2020.2.10,Win32,60,61025ae37ef11b136ea224fe,,,,,,,,,1693,47.5,73,1,0,0,response1disk,,7,8,-5,1,0,0,rectangle,8,-5,1,0,0,8,-5,1,0,0,1,75,235,129,1,,,,,,,,
,,,,,,,,,,,,,FF,,,,,,,,1.0875,,,,,,,,,,,,,,,,,,,,,,61006bb50007a5f767a7c6e6,61036fbd0e0d4962e2eb00e6,2021-07-29_23h21.45.162,Simcolourproject_2stim_asymm_v5,2020.2.10,Win32,60,61025ae37ef11b136ea224fe,,,,,,,,,1671,35.5,-113,1,0,0,response3disk,,4,-15,-0.5,1,0,0,rectangle,-15,-0.5,1,0,0,-15,-0.5,1,0,0,1,76,236,158,1,,,,,,,,
,,,,,,,,,,,,,FF,,,,,,,,0.9017,,,,,,,,,,,,,,,,,,,,,,61006bb50007a5f767a7c6e6,61036fbd0e0d4962e2eb00e6,2021-07-29_23h21.45.162,Simcolourproject_2stim_asymm_v5,2020.2.10,Win32,60,61025ae37ef11b136ea224fe,,,,,,,,,4340,-46.5,-88.5,1,0,0,response5disk,,3,11.5,4,1,0,0,rectangle,11.5,4,1,0,0,11.5,4,1,0,0,1,77,237,107,1,,,,,,,,
,,,,,,,,,,,,,FF,,,,,,,,0.607,,,,,,,,,,,,,,,,,,,,,,61006bb50007a5f767a7c6e6,61036fbd0e0d4962e2eb00e6,2021-07-29_23h21.45.162,Simcolourproject_2stim_asymm_v5,2020.2.10,Win32,60,61025ae37ef11b136ea224fe,,,,,,,,,3776,-26.5,64.5,1,0,0,response7disk,,0,17.5,4.5,1,0,0,rectangle,17.5,4.5,1,0,0,17.5,4.5,1,0,0,1,78,238,18,1,,,,,,,,
,,,,,,,,,,,,,FF,,,,,,,,0.9199,,,,,,,,,,,,,,,,,,,,,,61006bb50007a5f767a7c6e6,61036fbd0e0d4962e2eb00e6,2021-07-29_23h21.45.162,Simcolourproject_2stim_asymm_v5,2020.2.10,Win32,60,61025ae37ef11b136ea224fe,,,,,,,,,168,-84.5,-52,1,0,0,response5disk,,2,3,-2,1,0,0,rectangle,3,-2,1,0,0,3,-2,1,0,0,1,79,239,23,1,,,,,,,,
,,,,,,,,,,,,,FF,,,,,,,,0.8,,,,,,,,,,,,,,,,,,,,,,61006bb50007a5f767a7c6e6,61036fbd0e0d4962e2eb00e6,2021-07-29_23h21.45.162,Simcolourproject_2stim_asymm_v5,2020.2.10,Win32,60,61025ae37ef11b136ea224fe,,,,,,,,,3598,-66.5,-114.5,1,0,0,response5disk,,3,25,1.5,1,0,0,rectangle,25,1.5,1,0,0,25,1.5,1,0,0,1,80,240,101,1,,,,,,,,
,,,,,,,,,,,,,FF,,,,,,,,0.6495,,,,,,,,,,,,,,,,,,,,,,61006bb50007a5f767a7c6e6,61036fbd0e0d4962e2eb00e6,2021-07-29_23h21.45.162,Simcolourproject_2stim_asymm_v5,2020.2.10,Win32,60,61025ae37ef11b136ea224fe,,,,,,,,,1633,42.5,103,1,0,0,response1disk,,7,-4.5,-6,1,0,0,rectangle,-4.5,-6,1,0,0,-4.5,-6,1,0,0,1,81,241,89,1,,,,,,,,
,,,,,,,,,,,,,FF,,,,,,,,0.7866,,,,,,,,,,,,,,,,,,,,,,61006bb50007a5f767a7c6e6,61036fbd0e0d4962e2eb00e6,2021-07-29_23h21.45.162,Simcolourproject_2stim_asymm_v5,2020.2.10,Win32,60,61025ae37ef11b136ea224fe,,,,,,,,,2242,43,-103,1,0,0,response3disk,,4,-2,-5,1,0,0,rectangle,-2,-5,1,0,0,-2,-5,1,0,0,1,82,242,56,1,,,,,,,,
,,,,,,,,,,,,,FF,,,,,,,,0.7219,,,,,,,,,,,,,,,,,,,,,,61006bb50007a5f767a7c6e6,61036fbd0e0d4962e2eb00e6,2021-07-29_23h21.45.162,Simcolourproject_2stim_asymm_v5,2020.2.10,Win32,60,61025ae37ef11b136ea224fe,,,,,,,,,2160,-34.5,91,1,0,0,response7disk,,0,-9,-4.5,1,0,0,rectangle,-9,-4.5,1,0,0,-9,-4.5,1,0,0,1,83,243,55,1,,,,,,,,
,,,,,,,,,,,,,FF,,,,,,,,1.5629,,,,,,,,,,,,,,,,,,,,,,61006bb50007a5f767a7c6e6,61036fbd0e0d4962e2eb00e6,2021-07-29_23h21.45.162,Simcolourproject_2stim_asymm_v5,2020.2.10,Win32,60,61025ae37ef11b136ea224fe,,,,,,,,,608,-69,-106,1,0,0,response5disk,,3,-13,0.5,1,0,0,rectangle,-13,0.5,1,0,0,-13,0.5,1,0,0,1,84,244,84,1,,,,,,,,
,,,,,,,,,,,,,FF,,,,,,,,0.7038,,,,,,,,,,,,,,,,,,,,,,61006bb50007a5f767a7c6e6,61036fbd0e0d4962e2eb00e6,2021-07-29_23h21.45.162,Simcolourproject_2stim_asymm_v5,2020.2.10,Win32,60,61025ae37ef11b136ea224fe,,,,,,,,,474,39.5,96,1,0,0,response1disk,,7,4.5,1.5,1,0,0,rectangle,4.5,1.5,1,0,0,4.5,1.5,1,0,0,1,85,245,76,1,,,,,,,,
,,,,,,,,,,,,,FF,,,,,,,,1.5109,,,,,,,,,,,,,,,,,,,,,,61006bb50007a5f767a7c6e6,61036fbd0e0d4962e2eb00e6,2021-07-29_23h21.45.162,Simcolourproject_2stim_asymm_v5,2020.2.10,Win32,60,61025ae37ef11b136ea224fe,,,,,,,,,812,57.5,-103,1,0,0,response3disk,,4,-21.5,9.5,1,0,0,rectangle,-21.5,9.5,1,0,0,-21.5,9.5,1,0,0,1,86,246,58,1,,,,,,,,
,,,,,,,,,,,,,FF,,,,,,,,1.0386,,,,,,,,,,,,,,,,,,,,,,61006bb50007a5f767a7c6e6,61036fbd0e0d4962e2eb00e6,2021-07-29_23h21.45.162,Simcolourproject_2stim_asymm_v5,2020.2.10,Win32,60,61025ae37ef11b136ea224fe,,,,,,,,,815,38,-106,1,0,0,response3disk,,4,-3.5,5,1,0,0,rectangle,-3.5,5,1,0,0,-3.5,5,1,0,0,1,87,247,24,1,,,,,,,,
,,,,,,,,,,,,,FF,,,,,,,,0.6624,,,,,,,,,,,,,,,,,,,,,,61006bb50007a5f767a7c6e6,61036fbd0e0d4962e2eb00e6,2021-07-29_23h21.45.162,Simcolourproject_2stim_asymm_v5,2020.2.10,Win32,60,61025ae37ef11b136ea224fe,,,,,,,,,646,49,-106.5,1,0,0,response3disk,,4,-3.5,11.5,1,0,0,rectangle,-3.5,11.5,1,0,0,-3.5,11.5,1,0,0,1,88,248,35,1,,,,,,,,
,,,,,,,,,,,,,FF,,,,,,,,0.8117,,,,,,,,,,,,,,,,,,,,,,61006bb50007a5f767a7c6e6,61036fbd0e0d4962e2eb00e6,2021-07-29_23h21.45.162,Simcolourproject_2stim_asymm_v5,2020.2.10,Win32,60,61025ae37ef11b136ea224fe,,,,,,,,,2303,38,-116.5,1,0,0,response3disk,,4,-13,11.5,1,0,0,rectangle,-13,11.5,1,0,0,-13,11.5,1,0,0,1,89,249,78,1,,,,,,,,
,,,,,,,,,,,,,FF,,,,,,,,0.6368,,,,,,,,,,,,,,,,,,,,,,61006bb50007a5f767a7c6e6,61036fbd0e0d4962e2eb00e6,2021-07-29_23h21.45.162,Simcolourproject_2stim_asymm_v5,2020.2.10,Win32,60,61025ae37ef11b136ea224fe,,,,,,,,,2894,-46,-117.5,1,0,0,response5disk,,3,-1.5,2.5,1,0,0,rectangle,-1.5,2.5,1,0,0,-1.5,2.5,1,0,0,1,90,250,86,1,,,,,,,,
,,,,,,,,,,,,,FF,,,,,,,,1.0055,,,,,,,,,,,,,,,,,,,,,,61006bb50007a5f767a7c6e6,61036fbd0e0d4962e2eb00e6,2021-07-29_23h21.45.162,Simcolourproject_2stim_asymm_v5,2020.2.10,Win32,60,61025ae37ef11b136ea224fe,,,,,,,,,3400,46.5,67.5,1,0,0,response1disk,,7,-3.5,-5,1,0,0,rectangle,-3.5,-5,1,0,0,-3.5,-5,1,0,0,1,91,251,95,1,,,,,,,,
,,,,,,,,,,,,,FF,,,,,,,,0.9389,,,,,,,,,,,,,,,,,,,,,,61006bb50007a5f767a7c6e6,61036fbd0e0d4962e2eb00e6,2021-07-29_23h21.45.162,Simcolourproject_2stim_asymm_v5,2020.2.10,Win32,60,61025ae37ef11b136ea224fe,,,,,,,,,1607,-41.5,-121,1,0,0,response5disk,,3,-25.5,-5.5,1,0,0,rectangle,-25.5,-5.5,1,0,0,-25.5,-5.5,1,0,0,1,92,252,159,1,,,,,,,,
,,,,,,,,,,,,,FF,,,,,,,,1.0717,,,,,,,,,,,,,,,,,,,,,,61006bb50007a5f767a7c6e6,61036fbd0e0d4962e2eb00e6,2021-07-29_23h21.45.162,Simcolourproject_2stim_asymm_v5,2020.2.10,Win32,60,61025ae37ef11b136ea224fe,,,,,,,,,3999,-20.5,-108.5,1,0,0,response5disk,,3,-11.5,-10,1,0,0,rectangle,-11.5,-10,1,0,0,-11.5,-10,1,0,0,1,93,253,27,1,,,,,,,,
,,,,,,,,,,,,,FF,,,,,,,,0.67,,,,,,,,,,,,,,,,,,,,,,61006bb50007a5f767a7c6e6,61036fbd0e0d4962e2eb00e6,2021-07-29_23h21.45.162,Simcolourproject_2stim_asymm_v5,2020.2.10,Win32,60,61025ae37ef11b136ea224fe,,,,,,,,,2540,30,62,1,0,0,response1disk,,7,-9.5,-1.5,1,0,0,rectangle,-9.5,-1.5,1,0,0,-9.5,-1.5,1,0,0,1,94,254,16,1,,,,,,,,
,,,,,,,,,,,,,FF,,,,,,,,1.3058,,,,,,,,,,,,,,,,,,,,,,61006bb50007a5f767a7c6e6,61036fbd0e0d4962e2eb00e6,2021-07-29_23h21.45.162,Simcolourproject_2stim_asymm_v5,2020.2.10,Win32,60,61025ae37ef11b136ea224fe,,,,,,,,,1882,102,-23,1,0,0,response3disk,,5,-29.5,3,1,0,0,rectangle,-29.5,3,1,0,0,-29.5,3,1,0,0,1,95,255,0,1,,,,,,,,
,,,,,,,,,,,,,FF,,,,,,,,0.8136,,,,,,,,,,,,,,,,,,,,,,61006bb50007a5f767a7c6e6,61036fbd0e0d4962e2eb00e6,2021-07-29_23h21.45.162,Simcolourproject_2stim_asymm_v5,2020.2.10,Win32,60,61025ae37ef11b136ea224fe,,,,,,,,,3253,67,-46.5,1,0,0,response3disk,,5,12.5,-16,1,0,0,rectangle,12.5,-16,1,0,0,12.5,-16,1,0,0,1,96,256,153,1,,,,,,,,
,,,,,,,,,,,,,FF,,,,,,,,0.7589,,,,,,,,,,,,,,,,,,,,,,61006bb50007a5f767a7c6e6,61036fbd0e0d4962e2eb00e6,2021-07-29_23h21.45.162,Simcolourproject_2stim_asymm_v5,2020.2.10,Win32,60,61025ae37ef11b136ea224fe,,,,,,,,,2659,50,89,1,0,0,response1disk,,7,-6.5,3.5,1,0,0,rectangle,-6.5,3.5,1,0,0,-6.5,3.5,1,0,0,1,97,257,77,1,,,,,,,,
,,,,,,,,,,,,,FF,,,,,,,,0.769,,,,,,,,,,,,,,,,,,,,,,61006bb50007a5f767a7c6e6,61036fbd0e0d4962e2eb00e6,2021-07-29_23h21.45.162,Simcolourproject_2stim_asymm_v5,2020.2.10,Win32,60,61025ae37ef11b136ea224fe,,,,,,,,,706,36.5,86,1,0,0,response1disk,,7,-8,-4.5,1,0,0,rectangle,-8,-4.5,1,0,0,-8,-4.5,1,0,0,1,98,258,151,1,,,,,,,,
,,,,,,,,,,,,,FF,,,,,,,,0.865,,,,,,,,,,,,,,,,,,,,,,61006bb50007a5f767a7c6e6,61036fbd0e0d4962e2eb00e6,2021-07-29_23h21.45.162,Simcolourproject_2stim_asymm_v5,2020.2.10,Win32,60,61025ae37ef11b136ea224fe,,,,,,,,,280,91,30.5,1,0,0,response1disk,,6,-4.5,-8,1,0,0,rectangle,-4.5,-8,1,0,0,-4.5,-8,1,0,0,1,99,259,66,1,,,,,,,,
,,,,,,,,,,,,,FF,,,,,,,,1.2719,,,,,,,,,,,,,,,,,,,,,,61006bb50007a5f767a7c6e6,61036fbd0e0d4962e2eb00e6,2021-07-29_23h21.45.162,Simcolourproject_2stim_asymm_v5,2020.2.10,Win32,60,61025ae37ef11b136ea224fe,,,,,,,,,4270,98,-45,1,0,0,response3disk,,5,-37,2.5,1,0,0,rectangle,-37,2.5,1,0,0,-37,2.5,1,0,0,1,100,260,99,1,,,,,,,,
,,,,,,,,,,,,,FF,,,,,,,,0.507,,,,,,,,,,,,,,,,,,,,,,61006bb50007a5f767a7c6e6,61036fbd0e0d4962e2eb00e6,2021-07-29_23h21.45.162,Simcolourproject_2stim_asymm_v5,2020.2.10,Win32,60,61025ae37ef11b136ea224fe,,,,,,,,,123,43,88,1,0,0,response1disk,,7,-15,0,1,0,0,rectangle,-15,0,1,0,0,-15,0,1,0,0,1,101,261,120,1,,,,,,,,
,,,,,,,,,,,,,FF,,,,,,,,1.192,,,,,,,,,,,,,,,,,,,,,,61006bb50007a5f767a7c6e6,61036fbd0e0d4962e2eb00e6,2021-07-29_23h21.45.162,Simcolourproject_2stim_asymm_v5,2020.2.10,Win32,60,61025ae37ef11b136ea224fe,,,,,,,,,882,49,87,1,0,0,response1disk,,7,14,3,1,0,0,rectangle,14,3,1,0,0,14,3,1,0,0,1,102,262,64,1,,,,,,,,
,,,,,,,,,,,,,FF,,,,,,,,1.4202,,,,,,,,,,,,,,,,,,,,,,61006bb50007a5f767a7c6e6,61036fbd0e0d4962e2eb00e6,2021-07-29_23h21.45.162,Simcolourproject_2stim_asymm_v5,2020.2.10,Win32,60,61025ae37ef11b136ea224fe,,,,,,,,,3106,39.5,-81.5,1,0,0,response3disk,,4,-9,-7.5,1,0,0,rectangle,-9,-7.5,1,0,0,-9,-7.5,1,0,0,1,103,263,133,1,,,,,,,,
,,,,,,,,,,,,,FF,,,,,,,,0.8408,,,,,,,,,,,,,,,,,,,,,,61006bb50007a5f767a7c6e6,61036fbd0e0d4962e2eb00e6,2021-07-29_23h21.45.162,Simcolourproject_2stim_asymm_v5,2020.2.10,Win32,60,61025ae37ef11b136ea224fe,,,,,,,,,3176,45.5,78,1,0,0,response1disk,,7,-4.5,-4,1,0,0,rectangle,-4.5,-4,1,0,0,-4.5,-4,1,0,0,1,104,264,132,1,,,,,,,,
,,,,,,,,,,,,,FF,,,,,,,,0.6771,,,,,,,,,,,,,,,,,,,,,,61006bb50007a5f767a7c6e6,61036fbd0e0d4962e2eb00e6,2021-07-29_23h21.45.162,Simcolourproject_2stim_asymm_v5,2020.2.10,Win32,60,61025ae37ef11b136ea224fe,,,,,,,,,3976,126,47,1,0,0,response1disk,,6,13.5,5,1,0,0,rectangle,13.5,5,1,0,0,13.5,5,1,0,0,1,105,265,44,1,,,,,,,,
,,,,,,,,,,,,,FF,,,,,,,,1.0221,,,,,,,,,,,,,,,,,,,,,,61006bb50007a5f767a7c6e6,61036fbd0e0d4962e2eb00e6,2021-07-29_23h21.45.162,Simcolourproject_2stim_asymm_v5,2020.2.10,Win32,60,61025ae37ef11b136ea224fe,,,,,,,,,2730,103,37,1,0,0,response1disk,,6,-9.5,7.5,1,0,0,rectangle,-9.5,7.5,1,0,0,-9.5,7.5,1,0,0,1,106,266,75,1,,,,,,,,
,,,,,,,,,,,,,FF,,,,,,,,0.8735,,,,,,,,,,,,,,,,,,,,,,61006bb50007a5f767a7c6e6,61036fbd0e0d4962e2eb00e6,2021-07-29_23h21.45.162,Simcolourproject_2stim_asymm_v5,2020.2.10,Win32,60,61025ae37ef11b136ea224fe,,,,,,,,,3460,88.5,48.5,1,0,0,response1disk,,6,-21,4,1,0,0,rectangle,-21,4,1,0,0,-21,4,1,0,0,1,107,267,2,1,,,,,,,,
,,,,,,,,,,,,,FF,,,,,,,,1.1553,,,,,,,,,,,,,,,,,,,,,,61006bb50007a5f767a7c6e6,61036fbd0e0d4962e2eb00e6,2021-07-29_23h21.45.162,Simcolourproject_2stim_asymm_v5,2020.2.10,Win32,60,61025ae37ef11b136ea224fe,,,,,,,,,3894,37,88,1,0,0,response1disk,,7,13,12,1,0,0,rectangle,13,12,1,0,0,13,12,1,0,0,1,108,268,122,1,,,,,,,,
,,,,,,,,,,,,,FF,,,,,,,,0.8055,,,,,,,,,,,,,,,,,,,,,,61006bb50007a5f767a7c6e6,61036fbd0e0d4962e2eb00e6,2021-07-29_23h21.45.162,Simcolourproject_2stim_asymm_v5,2020.2.10,Win32,60,61025ae37ef11b136ea224fe,,,,,,,,,1562,44,100,1,0,0,response1disk,,7,10.5,8,1,0,0,rectangle,10.5,8,1,0,0,10.5,8,1,0,0,1,109,269,154,1,,,,,,,,
,,,,,,,,,,,,,FF,,,,,,,,0.8865,,,,,,,,,,,,,,,,,,,,,,61006bb50007a5f767a7c6e6,61036fbd0e0d4962e2eb00e6,2021-07-29_23h21.45.162,Simcolourproject_2stim_asymm_v5,2020.2.10,Win32,60,61025ae37ef11b136ea224fe,,,,,,,,,2721,-48.5,-99,1,0,0,response5disk,,3,-8.5,-3.5,1,0,0,rectangle,-8.5,-3.5,1,0,0,-8.5,-3.5,1,0,0,1,110,270,11,1,,,,,,,,
,,,,,,,,,,,,,FF,,,,,,,,0.769,,,,,,,,,,,,,,,,,,,,,,61006bb50007a5f767a7c6e6,61036fbd0e0d4962e2eb00e6,2021-07-29_23h21.45.162,Simcolourproject_2stim_asymm_v5,2020.2.10,Win32,60,61025ae37ef11b136ea224fe,,,,,,,,,3570,45,-108.5,1,0,0,response3disk,,4,13,8.5,1,0,0,rectangle,13,8.5,1,0,0,13,8.5,1,0,0,1,111,271,54,1,,,,,,,,
,,,,,,,,,,,,,FF,,,,,,,,0.9219,,,,,,,,,,,,,,,,,,,,,,61006bb50007a5f767a7c6e6,61036fbd0e0d4962e2eb00e6,2021-07-29_23h21.45.162,Simcolourproject_2stim_asymm_v5,2020.2.10,Win32,60,61025ae37ef11b136ea224fe,,,,,,,,,2202,31.5,92,1,0,0,response1disk,,7,11.5,9,1,0,0,rectangle,11.5,9,1,0,0,11.5,9,1,0,0,1,112,272,73,1,,,,,,,,
,,,,,,,,,,,,,FF,,,,,,,,0.625,,,,,,,,,,,,,,,,,,,,,,61006bb50007a5f767a7c6e6,61036fbd0e0d4962e2eb00e6,2021-07-29_23h21.45.162,Simcolourproject_2stim_asymm_v5,2020.2.10,Win32,60,61025ae37ef11b136ea224fe,,,,,,,,,3411,36.5,79.5,1,0,0,response1disk,,7,12.5,-8,1,0,0,rectangle,12.5,-8,1,0,0,12.5,-8,1,0,0,1,113,273,157,1,,,,,,,,
,,,,,,,,,,,,,FF,,,,,,,,0.5865,,,,,,,,,,,,,,,,,,,,,,61006bb50007a5f767a7c6e6,61036fbd0e0d4962e2eb00e6,2021-07-29_23h21.45.162,Simcolourproject_2stim_asymm_v5,2020.2.10,Win32,60,61025ae37ef11b136ea224fe,,,,,,,,,1088,38,71,1,0,0,response1disk,,7,9.5,-1,1,0,0,rectangle,9.5,-1,1,0,0,9.5,-1,1,0,0,1,114,274,82,1,,,,,,,,
,,,,,,,,,,,,,FF,,,,,,,,1.2862,,,,,,,,,,,,,,,,,,,,,,61006bb50007a5f767a7c6e6,61036fbd0e0d4962e2eb00e6,2021-07-29_23h21.45.162,Simcolourproject_2stim_asymm_v5,2020.2.10,Win32,60,61025ae37ef11b136ea224fe,,,,,,,,,2164,97,-50,1,0,0,response3disk,,5,-9.5,7.5,1,0,0,rectangle,-9.5,7.5,1,0,0,-9.5,7.5,1,0,0,1,115,275,43,1,,,,,,,,
,,,,,,,,,,,,,FF,,,,,,,,1.084,,,,,,,,,,,,,,,,,,,,,,61006bb50007a5f767a7c6e6,61036fbd0e0d4962e2eb00e6,2021-07-29_23h21.45.162,Simcolourproject_2stim_asymm_v5,2020.2.10,Win32,60,61025ae37ef11b136ea224fe,,,,,,,,,1769,30,102.5,1,0,0,response1disk,,7,0.5,12,1,0,0,rectangle,0.5,12,1,0,0,0.5,12,1,0,0,1,116,276,144,1,,,,,,,,
,,,,,,,,,,,,,FF,,,,,,,,1.0875,,,,,,,,,,,,,,,,,,,,,,61006bb50007a5f767a7c6e6,61036fbd0e0d4962e2eb00e6,2021-07-29_23h21.45.162,Simcolourproject_2stim_asymm_v5,2020.2.10,Win32,60,61025ae37ef11b136ea224fe,,,,,,,,,612,95.5,-42,1,0,0,response3disk,,5,-11.5,6.5,1,0,0,rectangle,-11.5,6.5,1,0,0,-11.5,6.5,1,0,0,1,117,277,71,1,,,,,,,,
,,,,,,,,,,,,,FF,,,,,,,,0.8671,,,,,,,,,,,,,,,,,,,,,,61006bb50007a5f767a7c6e6,61036fbd0e0d4962e2eb00e6,2021-07-29_23h21.45.162,Simcolourproject_2stim_asymm_v5,2020.2.10,Win32,60,61025ae37ef11b136ea224fe,,,,,,,,,2903,33,72,1,0,0,response1disk,,7,-17,-18,1,0,0,rectangle,-17,-18,1,0,0,-17,-18,1,0,0,1,118,278,111,1,,,,,,,,
,,,,,,,,,,,,,FF,,,,,,,,2.0847,,,,,,,,,,,,,,,,,,,,,,61006bb50007a5f767a7c6e6,61036fbd0e0d4962e2eb00e6,2021-07-29_23h21.45.162,Simcolourproject_2stim_asymm_v5,2020.2.10,Win32,60,61025ae37ef11b136ea224fe,,,,,,,,,1597,-35.5,-102.5,1,0,0,response5disk,,3,-0.5,-1.5,1,0,0,rectangle,-0.5,-1.5,1,0,0,-0.5,-1.5,1,0,0,1,119,279,34,1,,,,,,,,
,,,,,,,,,,,,,FF,,,,,,,,0.5853,,,,,,,,,,,,,,,,,,,,,,61006bb50007a5f767a7c6e6,61036fbd0e0d4962e2eb00e6,2021-07-29_23h21.45.162,Simcolourproject_2stim_asymm_v5,2020.2.10,Win32,60,61025ae37ef11b136ea224fe,,,,,,,,,3758,57.5,129,1,0,0,response1disk,,7,10.5,-1,1,0,0,rectangle,10.5,-1,1,0,0,10.5,-1,1,0,0,1,120,280,112,1,,,,,,,,
,,,,,,,,,,,,,FF,,,,,,,,0.7111,,,,,,,,,,,,,,,,,,,,,,61006bb50007a5f767a7c6e6,61036fbd0e0d4962e2eb00e6,2021-07-29_23h21.45.162,Simcolourproject_2stim_asymm_v5,2020.2.10,Win32,60,61025ae37ef11b136ea224fe,,,,,,,,,1467,100,30.5,1,0,0,response1disk,,6,-3.5,2.5,1,0,0,rectangle,100.5,-55,1,0,0,6.5,-3.5,1,0,0,1,121,281,30,1,,response3disk_3,TRUE,5,5,"[312,208,282,38,51,154,82,299,79,106,322,304,87,148,49,0,15,148,224,105]",1.2934,rectangle
,,,,,,,,,,,,,FF,,,,,,,,1.7035,,,,,,,,,,,,,,,,,,,,,,61006bb50007a5f767a7c6e6,61036fbd0e0d4962e2eb00e6,2021-07-29_23h21.45.162,Simcolourproject_2stim_asymm_v5,2020.2.10,Win32,60,61025ae37ef11b136ea224fe,,,,,,,,,829,50.5,80.5,1,0,0,response1disk,,7,11.5,4.5,1,0,0,rectangle,11.5,4.5,1,0,0,11.5,4.5,1,0,0,1,122,282,91,1,,,,,,,,
,,,,,,,,,,,,,FF,,,,,,,,0.5548,,,,,,,,,,,,,,,,,,,,,,61006bb50007a5f767a7c6e6,61036fbd0e0d4962e2eb00e6,2021-07-29_23h21.45.162,Simcolourproject_2stim_asymm_v5,2020.2.10,Win32,60,61025ae37ef11b136ea224fe,,,,,,,,,1501,33.5,64.5,1,0,0,response1disk,,7,12.5,0,1,0,0,rectangle,12.5,0,1,0,0,12.5,0,1,0,0,1,123,283,8,1,,,,,,,,
,,,,,,,,,,,,,FF,,,,,,,,1.0444,,,,,,,,,,,,,,,,,,,,,,61006bb50007a5f767a7c6e6,61036fbd0e0d4962e2eb00e6,2021-07-29_23h21.45.162,Simcolourproject_2stim_asymm_v5,2020.2.10,Win32,60,61025ae37ef11b136ea224fe,,,,,,,,,3511,-110,39,1,0,0,response7disk,,1,-17.5,4,1,0,0,rectangle,-17.5,4,1,0,0,-17.5,4,1,0,0,1,124,284,126,1,,,,,,,,
,,,,,,,,,,,,,FF,,,,,,,,1.0383,,,,,,,,,,,,,,,,,,,,,,61006bb50007a5f767a7c6e6,61036fbd0e0d4962e2eb00e6,2021-07-29_23h21.45.162,Simcolourproject_2stim_asymm_v5,2020.2.10,Win32,60,61025ae37ef11b136ea224fe,,,,,,,,,63,60.5,-95.5,1,0,0,response3disk,,4,8,-3.5,1,0,0,rectangle,8,-3.5,1,0,0,8,-3.5,1,0,0,1,125,285,117,1,,,,,,,,
,,,,,,,,,,,,,FF,,,,,,,,1.1866,,,,,,,,,,,,,,,,,,,,,,61006bb50007a5f767a7c6e6,61036fbd0e0d4962e2eb00e6,2021-07-29_23h21.45.162,Simcolourproject_2stim_asymm_v5,2020.2.10,Win32,60,61025ae37ef11b136ea224fe,,,,,,,,,2419,-51.5,-94.5,1,0,0,response5disk,,3,7.5,1,1,0,0,rectangle,7.5,1,1,0,0,7.5,1,1,0,0,1,126,286,17,1,,,,,,,,
,,,,,,,,,,,,,FF,,,,,,,,0.6656,,,,,,,,,,,,,,,,,,,,,,61006bb50007a5f767a7c6e6,61036fbd0e0d4962e2eb00e6,2021-07-29_23h21.45.162,Simcolourproject_2stim_asymm_v5,2020.2.10,Win32,60,61025ae37ef11b136ea224fe,,,,,,,,,934,48.5,67.5,1,0,0,response1disk,,7,24.5,14.5,1,0,0,rectangle,24.5,14.5,1,0,0,24.5,14.5,1,0,0,1,127,287,53,1,,,,,,,,
,,,,,,,,,,,,,FF,,,,,,,,0.8228,,,,,,,,,,,,,,,,,,,,,,61006bb50007a5f767a7c6e6,61036fbd0e0d4962e2eb00e6,2021-07-29_23h21.45.162,Simcolourproject_2stim_asymm_v5,2020.2.10,Win32,60,61025ae37ef11b136ea224fe,,,,,,,,,2842,105.5,46.5,1,0,0,response1disk,,6,18.5,-1,1,0,0,rectangle,18.5,-1,1,0,0,18.5,-1,1,0,0,1,128,288,50,1,,,,,,,,
,,,,,,,,,,,,,FF,,,,,,,,0.6719,,,,,,,,,,,,,,,,,,,,,,61006bb50007a5f767a7c6e6,61036fbd0e0d4962e2eb00e6,2021-07-29_23h21.45.162,Simcolourproject_2stim_asymm_v5,2020.2.10,Win32,60,61025ae37ef11b136ea224fe,,,,,,,,,1024,62.5,77.5,1,0,0,response1disk,,7,4,2,1,0,0,rectangle,4,2,1,0,0,4,2,1,0,0,1,129,289,14,1,,,,,,,,
,,,,,,,,,,,,,FF,,,,,,,,0.9039,,,,,,,,,,,,,,,,,,,,,,61006bb50007a5f767a7c6e6,61036fbd0e0d4962e2eb00e6,2021-07-29_23h21.45.162,Simcolourproject_2stim_asymm_v5,2020.2.10,Win32,60,61025ae37ef11b136ea224fe,,,,,,,,,2513,42.5,114.5,1,0,0,response1disk,,7,11.5,2,1,0,0,rectangle,11.5,2,1,0,0,11.5,2,1,0,0,1,130,290,4,1,,,,,,,,
,,,,,,,,,,,,,FF,,,,,,,,0.729,,,,,,,,,,,,,,,,,,,,,,61006bb50007a5f767a7c6e6,61036fbd0e0d4962e2eb00e6,2021-07-29_23h21.45.162,Simcolourproject_2stim_asymm_v5,2020.2.10,Win32,60,61025ae37ef11b136ea224fe,,,,,,,,,1591,59.5,108.5,1,0,0,response1disk,,7,8.5,-8,1,0,0,rectangle,8.5,-8,1,0,0,8.5,-8,1,0,0,1,131,291,22,1,,,,,,,,
,,,,,,,,,,,,,FF,,,,,,,,0.6107,,,,,,,,,,,,,,,,,,,,,,61006bb50007a5f767a7c6e6,61036fbd0e0d4962e2eb00e6,2021-07-29_23h21.45.162,Simcolourproject_2stim_asymm_v5,2020.2.10,Win32,60,61025ae37ef11b136ea224fe,,,,,,,,,401,43.5,112,1,0,0,response1disk,,7,21,7,1,0,0,rectangle,21,7,1,0,0,21,7,1,0,0,1,132,292,15,1,,,,,,,,
,,,,,,,,,,,,,FF,,,,,,,,0.664,,,,,,,,,,,,,,,,,,,,,,61006bb50007a5f767a7c6e6,61036fbd0e0d4962e2eb00e6,2021-07-29_23h21.45.162,Simcolourproject_2stim_asymm_v5,2020.2.10,Win32,60,61025ae37ef11b136ea224fe,,,,,,,,,3564,46,104,1,0,0,response1disk,,7,16,-5,1,0,0,rectangle,16,-5,1,0,0,16,-5,1,0,0,1,133,293,85,1,,,,,,,,
,,,,,,,,,,,,,FF,,,,,,,,0.8503,,,,,,,,,,,,,,,,,,,,,,61006bb50007a5f767a7c6e6,61036fbd0e0d4962e2eb00e6,2021-07-29_23h21.45.162,Simcolourproject_2stim_asymm_v5,2020.2.10,Win32,60,61025ae37ef11b136ea224fe,,,,,,,,,2177,66.5,94.5,1,0,0,response1disk,,7,-2,-1.5,1,0,0,rectangle,-2,-1.5,1,0,0,-2,-1.5,1,0,0,1,134,294,12,1,,,,,,,,
,,,,,,,,,,,,,FF,,,,,,,,0.5994,,,,,,,,,,,,,,,,,,,,,,61006bb50007a5f767a7c6e6,61036fbd0e0d4962e2eb00e6,2021-07-29_23h21.45.162,Simcolourproject_2stim_asymm_v5,2020.2.10,Win32,60,61025ae37ef11b136ea224fe,,,,,,,,,2182,29.5,81.5,1,0,0,response1disk,,7,17,1.5,1,0,0,rectangle,17,1.5,1,0,0,17,1.5,1,0,0,1,135,295,106,1,,,,,,,,
,,,,,,,,,,,,,FF,,,,,,,,0.7389,,,,,,,,,,,,,,,,,,,,,,61006bb50007a5f767a7c6e6,61036fbd0e0d4962e2eb00e6,2021-07-29_23h21.45.162,Simcolourproject_2stim_asymm_v5,2020.2.10,Win32,60,61025ae37ef11b136ea224fe,,,,,,,,,186,-45.5,-113,1,0,0,response5disk,,3,3.5,-4,1,0,0,rectangle,3.5,-4,1,0,0,3.5,-4,1,0,0,1,136,296,128,1,,,,,,,,
