key_resp.keys,key_resp.rt,key_resp_14.keys,key_resp_14.rt,key_resp_15.keys,key_resp_15.rt,key_resp_17.keys,key_resp_17.rt,key_resp_9.keys,key_resp_9.rt,key_resp_10.keys,key_resp_10.rt,practice_comparison,Ecc,mouse_5.x,mouse_5.y,mouse_5.leftButton,mouse_5.midButton,mouse_5.rightButton,mouse_5.clicked_name,pracsimilarity,response_time,mouse_10.x,mouse_10.y,mouse_10.leftButton,mouse_10.midButton,mouse_10.rightButton,mouse_10.clicked_name,mouse_7.x,mouse_7.y,mouse_7.leftButton,mouse_7.midButton,mouse_7.rightButton,mouse_6.x,mouse_6.y,mouse_6.leftButton,mouse_6.midButton,mouse_6.rightButton,duringprac.thisRepN,duringprac.thisTrialN,duringprac.thisN,duringprac.thisIndex,duringprac.ran,participant,session,date,expName,psychopyVersion,OS,frameRate,study_id,mouse_7.clicked_name,catchpracsimilarity,catch_response_time,catchnumberprac,catchtrialorderprac,mouse_6.clicked_name,key_resp_22.keys,key_resp_22.rt,realcomparison,mouse.x,mouse.y,mouse.leftButton,mouse.midButton,mouse.rightButton,mouse.clicked_name,Colour2,similarity,mouse_2.x,mouse_2.y,mouse_2.leftButton,mouse_2.midButton,mouse_2.rightButton,mouse_2.clicked_name,mouse_3.x,mouse_3.y,mouse_3.leftButton,mouse_3.midButton,mouse_3.rightButton,mouse_11.x,mouse_11.y,mouse_11.leftButton,mouse_11.midButton,mouse_11.rightButton,trials_2.thisRepN,trials_2.thisTrialN,trials_2.thisN,trials_2.thisIndex,trials_2.ran,Colour1,mouse_3.clicked_name,catchornah,catchsimilarity,catchnumber,catchtrialorder,catchRT,mouse_11.clicked_name
space,2.53813,space,6.96216,space,22.744655,space,2.019085,space,1.16668,space,5.751335,126,PF,-72.12890625,-88.515625,1,0,0,response5disk_5,3,7.16894,5.875,2.98828125,1,0,0,rectangle_8,5.875,2.98828125,1,0,0,5.875,2.98828125,1,0,0,0,0,0,1,1,6100ed2dd8aa14dccb8d0915,61036a2de5a34362adf6236e,2021-07-29_19h56.17.726,Simcolourproject_2stim_asymm_v5,2020.2.10,MacIntel,60,61025ae37ef11b136ea224fe,,,,,,,,,,,,,,,,,,,,,,,,,,,,,,,,,,,,,,,,,,,,,,
,,,,,,,,,,,,10,PF,64.265625,-52.6640625,1,0,0,response3disk_5,5,3.10073,7.85546875,-8.0625,1,0,0,rectangle_8,-54.703125,-81.3515625,1,0,0,1.64453125,-5.26953125,1,0,0,0,1,1,4,1,6100ed2dd8aa14dccb8d0915,61036a2de5a34362adf6236e,2021-07-29_19h56.17.726,Simcolourproject_2stim_asymm_v5,2020.2.10,MacIntel,60,61025ae37ef11b136ea224fe,response5disk_7,3,3.183875,3,"[2,5]",rectangle_4,,,,,,,,,,,,,,,,,,,,,,,,,,,,,,,,,,,,,,,,
,,,,,,,,,,,,157,FF,66.3671875,78.50390625,1,0,0,response1disk_5,7,3.266035,0.44921875,-3.64453125,1,0,0,rectangle_8,0.44921875,-3.64453125,1,0,0,0.44921875,-3.64453125,1,0,0,0,2,2,0,1,6100ed2dd8aa14dccb8d0915,61036a2de5a34362adf6236e,2021-07-29_19h56.17.726,Simcolourproject_2stim_asymm_v5,2020.2.10,MacIntel,60,61025ae37ef11b136ea224fe,,,,,,,,,,,,,,,,,,,,,,,,,,,,,,,,,,,,,,,,,,,,,,
,,,,,,,,,,,,17,PF,71.2578125,-34.5078125,1,0,0,response3disk_5,5,3.533105,27.47265625,-0.10546875,1,0,0,rectangle_8,27.47265625,-0.10546875,1,0,0,27.47265625,-0.10546875,1,0,0,0,3,3,6,1,6100ed2dd8aa14dccb8d0915,61036a2de5a34362adf6236e,2021-07-29_19h56.17.726,Simcolourproject_2stim_asymm_v5,2020.2.10,MacIntel,60,61025ae37ef11b136ea224fe,,,,,,,,,,,,,,,,,,,,,,,,,,,,,,,,,,,,,,,,,,,,,,
,,,,,,,,,,,,111,FF,106.03125,28.59375,1,0,0,response1disk_5,6,1.701015,9.94921875,-6.4765625,1,0,0,rectangle_8,-61.734375,-89.01953125,1,0,0,22.83203125,2.609375,1,0,0,0,4,4,5,1,6100ed2dd8aa14dccb8d0915,61036a2de5a34362adf6236e,2021-07-29_19h56.17.726,Simcolourproject_2stim_asymm_v5,2020.2.10,MacIntel,60,61025ae37ef11b136ea224fe,response5disk_7,3,2.517595,3,"[2,5]",rectangle_4,,,,,,,,,,,,,,,,,,,,,,,,,,,,,,,,,,,,,,,,
,,,,,,,,,,,,53,PF,-80.19140625,-40.48046875,1,0,0,response5disk_5,2,1.532265,6.12109375,-10.23828125,1,0,0,rectangle_8,6.12109375,-10.23828125,1,0,0,6.12109375,-10.23828125,1,0,0,0,5,5,2,1,6100ed2dd8aa14dccb8d0915,61036a2de5a34362adf6236e,2021-07-29_19h56.17.726,Simcolourproject_2stim_asymm_v5,2020.2.10,MacIntel,60,61025ae37ef11b136ea224fe,,,,,,,,,,,,,,,,,,,,,,,,,,,,,,,,,,,,,,,,,,,,,,
,,,,,,,,,,,,117,FF,40.3203125,72.828125,1,0,0,response1disk_5,7,1.09802,4.35546875,-9.91015625,1,0,0,rectangle_8,4.35546875,-9.91015625,1,0,0,4.35546875,-9.91015625,1,0,0,0,6,6,3,1,6100ed2dd8aa14dccb8d0915,61036a2de5a34362adf6236e,2021-07-29_19h56.17.726,Simcolourproject_2stim_asymm_v5,2020.2.10,MacIntel,60,61025ae37ef11b136ea224fe,,,,,,,,,,,,,,,,,,,,,,,,,,,,,,,,,,,,,,,,,,,,,,
,,,,,,,,,,,,,FF,,,,,,,,2.11719,,,,,,,,,,,,,,,,,,,,,,6100ed2dd8aa14dccb8d0915,61036a2de5a34362adf6236e,2021-07-29_19h56.17.726,Simcolourproject_2stim_asymm_v5,2020.2.10,MacIntel,60,61025ae37ef11b136ea224fe,,,,,,,space,15.701625,1730,73.33984375,-36.41015625,1,0,0,response3disk,,5,17.71484375,-8.42578125,1,0,0,rectangle,17.71484375,-8.42578125,1,0,0,17.71484375,-8.42578125,1,0,0,0,0,0,50,1,,,,,,,,
,,,,,,,,,,,,,FF,,,,,,,,1.40133,,,,,,,,,,,,,,,,,,,,,,6100ed2dd8aa14dccb8d0915,61036a2de5a34362adf6236e,2021-07-29_19h56.17.726,Simcolourproject_2stim_asymm_v5,2020.2.10,MacIntel,60,61025ae37ef11b136ea224fe,,,,,,,,,261,-80.9765625,32.359375,1,0,0,response7disk,,1,-25.203125,5.59375,1,0,0,rectangle,-25.203125,5.59375,1,0,0,-25.203125,5.59375,1,0,0,0,1,1,66,1,,,,,,,,
,,,,,,,,,,,,,FF,,,,,,,,2.750505,,,,,,,,,,,,,,,,,,,,,,6100ed2dd8aa14dccb8d0915,61036a2de5a34362adf6236e,2021-07-29_19h56.17.726,Simcolourproject_2stim_asymm_v5,2020.2.10,MacIntel,60,61025ae37ef11b136ea224fe,,,,,,,,,1701,42.61328125,-83.46875,1,0,0,response3disk,,4,-0.71875,1.2421875,1,0,0,rectangle,-0.71875,1.2421875,1,0,0,-0.71875,1.2421875,1,0,0,0,2,2,102,1,,,,,,,,
,,,,,,,,,,,,,FF,,,,,,,,1.116875,,,,,,,,,,,,,,,,,,,,,,6100ed2dd8aa14dccb8d0915,61036a2de5a34362adf6236e,2021-07-29_19h56.17.726,Simcolourproject_2stim_asymm_v5,2020.2.10,MacIntel,60,61025ae37ef11b136ea224fe,,,,,,,,,111,87.1484375,17.41015625,1,0,0,response1disk,,6,25.76953125,-12.19140625,1,0,0,rectangle,25.76953125,-12.19140625,1,0,0,25.76953125,-12.19140625,1,0,0,0,3,3,60,1,,,,,,,,
,,,,,,,,,,,,,FF,,,,,,,,1.501905,,,,,,,,,,,,,,,,,,,,,,6100ed2dd8aa14dccb8d0915,61036a2de5a34362adf6236e,2021-07-29_19h56.17.726,Simcolourproject_2stim_asymm_v5,2020.2.10,MacIntel,60,61025ae37ef11b136ea224fe,,,,,,,,,2737,46.5234375,-78.26171875,1,0,0,response3disk,,4,21.25390625,-6.3125,1,0,0,rectangle,21.25390625,-6.3125,1,0,0,21.25390625,-6.3125,1,0,0,0,4,4,41,1,,,,,,,,
,,,,,,,,,,,,,FF,,,,,,,,1.151145,,,,,,,,,,,,,,,,,,,,,,6100ed2dd8aa14dccb8d0915,61036a2de5a34362adf6236e,2021-07-29_19h56.17.726,Simcolourproject_2stim_asymm_v5,2020.2.10,MacIntel,60,61025ae37ef11b136ea224fe,,,,,,,,,1390,-38.76171875,-84.55859375,1,0,0,response5disk,,3,5.734375,7.72265625,1,0,0,rectangle,5.734375,7.72265625,1,0,0,5.734375,7.72265625,1,0,0,0,5,5,55,1,,,,,,,,
,,,,,,,,,,,,,FF,,,,,,,,1.00209,,,,,,,,,,,,,,,,,,,,,,6100ed2dd8aa14dccb8d0915,61036a2de5a34362adf6236e,2021-07-29_19h56.17.726,Simcolourproject_2stim_asymm_v5,2020.2.10,MacIntel,60,61025ae37ef11b136ea224fe,,,,,,,,,337,52.8046875,71.109375,1,0,0,response1disk,,7,-2.6015625,-4.35546875,1,0,0,rectangle,-2.6015625,-4.35546875,1,0,0,-2.6015625,-4.35546875,1,0,0,0,6,6,156,1,,,,,,,,
,,,,,,,,,,,,,FF,,,,,,,,1.265605,,,,,,,,,,,,,,,,,,,,,,6100ed2dd8aa14dccb8d0915,61036a2de5a34362adf6236e,2021-07-29_19h56.17.726,Simcolourproject_2stim_asymm_v5,2020.2.10,MacIntel,60,61025ae37ef11b136ea224fe,,,,,,,,,1032,84.2578125,27.89453125,1,0,0,response1disk,,6,28.30078125,-4.703125,1,0,0,rectangle,28.30078125,-4.703125,1,0,0,28.30078125,-4.703125,1,0,0,0,7,7,81,1,,,,,,,,
,,,,,,,,,,,,,FF,,,,,,,,1.283185,,,,,,,,,,,,,,,,,,,,,,6100ed2dd8aa14dccb8d0915,61036a2de5a34362adf6236e,2021-07-29_19h56.17.726,Simcolourproject_2stim_asymm_v5,2020.2.10,MacIntel,60,61025ae37ef11b136ea224fe,,,,,,,,,1084,77.01171875,-25.73046875,1,0,0,response3disk,,5,7.31640625,-5.58984375,1,0,0,rectangle,7.31640625,-5.58984375,1,0,0,7.31640625,-5.58984375,1,0,0,0,8,8,155,1,,,,,,,,
,,,,,,,,,,,,,FF,,,,,,,,0.896445,,,,,,,,,,,,,,,,,,,,,,6100ed2dd8aa14dccb8d0915,61036a2de5a34362adf6236e,2021-07-29_19h56.17.726,Simcolourproject_2stim_asymm_v5,2020.2.10,MacIntel,60,61025ae37ef11b136ea224fe,,,,,,,,,3717,48.109375,83.91015625,1,0,0,response1disk,,7,13.55078125,0.53515625,1,0,0,rectangle,13.55078125,0.53515625,1,0,0,13.55078125,0.53515625,1,0,0,0,9,9,58,1,,,,,,,,
,,,,,,,,,,,,,FF,,,,,,,,1.3834,,,,,,,,,,,,,,,,,,,,,,6100ed2dd8aa14dccb8d0915,61036a2de5a34362adf6236e,2021-07-29_19h56.17.726,Simcolourproject_2stim_asymm_v5,2020.2.10,MacIntel,60,61025ae37ef11b136ea224fe,,,,,,,,,3192,-54.6015625,-19.0234375,1,0,0,response5disk,,2,-10.3828125,-3.45703125,1,0,0,rectangle,-10.3828125,-3.45703125,1,0,0,-10.3828125,-3.45703125,1,0,0,0,10,10,141,1,,,,,,,,
,,,,,,,,,,,,,FF,,,,,,,,1.333965,,,,,,,,,,,,,,,,,,,,,,6100ed2dd8aa14dccb8d0915,61036a2de5a34362adf6236e,2021-07-29_19h56.17.726,Simcolourproject_2stim_asymm_v5,2020.2.10,MacIntel,60,61025ae37ef11b136ea224fe,,,,,,,,,1052,-51.33203125,35.7421875,1,0,0,response7disk,,1,-2.17578125,3.3828125,1,0,0,rectangle,-2.17578125,3.3828125,1,0,0,-2.17578125,3.3828125,1,0,0,0,11,11,8,1,,,,,,,,
,,,,,,,,,,,,,FF,,,,,,,,0.787775,,,,,,,,,,,,,,,,,,,,,,6100ed2dd8aa14dccb8d0915,61036a2de5a34362adf6236e,2021-07-29_19h56.17.726,Simcolourproject_2stim_asymm_v5,2020.2.10,MacIntel,60,61025ae37ef11b136ea224fe,,,,,,,,,580,67.99609375,21.1875,1,0,0,response1disk,,6,18.046875,-3.92578125,1,0,0,rectangle,18.046875,-3.92578125,1,0,0,18.046875,-3.92578125,1,0,0,0,12,12,12,1,,,,,,,,
,,,,,,,,,,,,,FF,,,,,,,,1.18248,,,,,,,,,,,,,,,,,,,,,,6100ed2dd8aa14dccb8d0915,61036a2de5a34362adf6236e,2021-07-29_19h56.17.726,Simcolourproject_2stim_asymm_v5,2020.2.10,MacIntel,60,61025ae37ef11b136ea224fe,,,,,,,,,3434,-64.2421875,-46.875,1,0,0,response5disk,,2,-8.8828125,-7.1015625,1,0,0,rectangle,-8.8828125,-7.1015625,1,0,0,-8.8828125,-7.1015625,1,0,0,0,13,13,132,1,,,,,,,,
,,,,,,,,,,,,,FF,,,,,,,,1.28423,,,,,,,,,,,,,,,,,,,,,,6100ed2dd8aa14dccb8d0915,61036a2de5a34362adf6236e,2021-07-29_19h56.17.726,Simcolourproject_2stim_asymm_v5,2020.2.10,MacIntel,60,61025ae37ef11b136ea224fe,,,,,,,,,648,-51.17578125,-88.65625,1,0,0,response5disk,,3,13.58203125,-13.66015625,1,0,0,rectangle,13.58203125,-13.66015625,1,0,0,13.58203125,-13.66015625,1,0,0,0,14,14,105,1,,,,,,,,
,,,,,,,,,,,,,FF,,,,,,,,0.920235,,,,,,,,,,,,,,,,,,,,,,6100ed2dd8aa14dccb8d0915,61036a2de5a34362adf6236e,2021-07-29_19h56.17.726,Simcolourproject_2stim_asymm_v5,2020.2.10,MacIntel,60,61025ae37ef11b136ea224fe,,,,,,,,,3111,38.29296875,-53.19140625,1,0,0,response3disk,,4,4.9140625,-0.94921875,1,0,0,rectangle,4.9140625,-0.94921875,1,0,0,4.9140625,-0.94921875,1,0,0,0,15,15,15,1,,,,,,,,
,,,,,,,,,,,,,FF,,,,,,,,0.97049,,,,,,,,,,,,,,,,,,,,,,6100ed2dd8aa14dccb8d0915,61036a2de5a34362adf6236e,2021-07-29_19h56.17.726,Simcolourproject_2stim_asymm_v5,2020.2.10,MacIntel,60,61025ae37ef11b136ea224fe,,,,,,,,,1377,-83.85546875,28.3671875,1,0,0,response7disk,,1,-18.47265625,-0.09375,1,0,0,rectangle,-18.47265625,-0.09375,1,0,0,-18.47265625,-0.09375,1,0,0,0,16,16,90,1,,,,,,,,
,,,,,,,,,,,,,FF,,,,,,,,1.066085,,,,,,,,,,,,,,,,,,,,,,6100ed2dd8aa14dccb8d0915,61036a2de5a34362adf6236e,2021-07-29_19h56.17.726,Simcolourproject_2stim_asymm_v5,2020.2.10,MacIntel,60,61025ae37ef11b136ea224fe,,,,,,,,,2828,-81.7890625,48.65625,1,0,0,response7disk,,1,-11.83203125,3.69921875,1,0,0,rectangle,-11.83203125,3.69921875,1,0,0,-11.83203125,3.69921875,1,0,0,0,17,17,74,1,,,,,,,,
,,,,,,,,,,,,,FF,,,,,,,,3.56155,,,,,,,,,,,,,,,,,,,,,,6100ed2dd8aa14dccb8d0915,61036a2de5a34362adf6236e,2021-07-29_19h56.17.726,Simcolourproject_2stim_asymm_v5,2020.2.10,MacIntel,60,61025ae37ef11b136ea224fe,,,,,,,,,21,17.8125,-77.83203125,1,0,0,response3disk,,4,0.3828125,-2.36328125,1,0,0,rectangle,0.3828125,-2.36328125,1,0,0,0.3828125,-2.36328125,1,0,0,0,18,18,71,1,,,,,,,,
,,,,,,,,,,,,,FF,,,,,,,,1.233905,,,,,,,,,,,,,,,,,,,,,,6100ed2dd8aa14dccb8d0915,61036a2de5a34362adf6236e,2021-07-29_19h56.17.726,Simcolourproject_2stim_asymm_v5,2020.2.10,MacIntel,60,61025ae37ef11b136ea224fe,,,,,,,,,1442,60.65625,-26.16796875,1,0,0,response3disk,,5,8.03515625,0.04296875,1,0,0,rectangle,8.03515625,0.04296875,1,0,0,8.03515625,0.04296875,1,0,0,0,19,19,143,1,,,,,,,,
,,,,,,,,,,,,,FF,,,,,,,,0.747405,,,,,,,,,,,,,,,,,,,,,,6100ed2dd8aa14dccb8d0915,61036a2de5a34362adf6236e,2021-07-29_19h56.17.726,Simcolourproject_2stim_asymm_v5,2020.2.10,MacIntel,60,61025ae37ef11b136ea224fe,,,,,,,,,1754,-42.6328125,-87.8671875,1,0,0,response5disk,,3,-22.578125,-3.0625,1,0,0,rectangle,-22.578125,-3.0625,1,0,0,-22.578125,-3.0625,1,0,0,0,20,20,53,1,,,,,,,,
,,,,,,,,,,,,,FF,,,,,,,,2.33692,,,,,,,,,,,,,,,,,,,,,,6100ed2dd8aa14dccb8d0915,61036a2de5a34362adf6236e,2021-07-29_19h56.17.726,Simcolourproject_2stim_asymm_v5,2020.2.10,MacIntel,60,61025ae37ef11b136ea224fe,,,,,,,,,3181,30.890625,-70.59765625,1,0,0,response3disk,,4,-17.95703125,-4.046875,1,0,0,rectangle,-17.95703125,-4.046875,1,0,0,-17.95703125,-4.046875,1,0,0,0,21,21,1,1,,,,,,,,
,,,,,,,,,,,,,FF,,,,,,,,0.69222,,,,,,,,,,,,,,,,,,,,,,6100ed2dd8aa14dccb8d0915,61036a2de5a34362adf6236e,2021-07-29_19h56.17.726,Simcolourproject_2stim_asymm_v5,2020.2.10,MacIntel,60,61025ae37ef11b136ea224fe,,,,,,,,,534,-47.43359375,-82.76171875,1,0,0,response5disk,,3,1.00390625,1.50390625,1,0,0,rectangle,1.00390625,1.50390625,1,0,0,1.00390625,1.50390625,1,0,0,0,22,22,95,1,,,,,,,,
,,,,,,,,,,,,,FF,,,,,,,,1.47478,,,,,,,,,,,,,,,,,,,,,,6100ed2dd8aa14dccb8d0915,61036a2de5a34362adf6236e,2021-07-29_19h56.17.726,Simcolourproject_2stim_asymm_v5,2020.2.10,MacIntel,60,61025ae37ef11b136ea224fe,,,,,,,,,2977,66.27734375,24.30859375,1,0,0,response1disk,,6,4.58984375,-11.09765625,1,0,0,rectangle,4.58984375,-11.09765625,1,0,0,4.58984375,-11.09765625,1,0,0,0,23,23,101,1,,,,,,,,
,,,,,,,,,,,,,FF,,,,,,,,1.53492,,,,,,,,,,,,,,,,,,,,,,6100ed2dd8aa14dccb8d0915,61036a2de5a34362adf6236e,2021-07-29_19h56.17.726,Simcolourproject_2stim_asymm_v5,2020.2.10,MacIntel,60,61025ae37ef11b136ea224fe,,,,,,,,,3705,-33.7421875,76.3046875,1,0,0,response7disk,,0,-5.33984375,-2.41796875,1,0,0,rectangle,-5.33984375,-2.41796875,1,0,0,-5.33984375,-2.41796875,1,0,0,0,24,24,103,1,,,,,,,,
,,,,,,,,,,,,,FF,,,,,,,,1.118885,,,,,,,,,,,,,,,,,,,,,,6100ed2dd8aa14dccb8d0915,61036a2de5a34362adf6236e,2021-07-29_19h56.17.726,Simcolourproject_2stim_asymm_v5,2020.2.10,MacIntel,60,61025ae37ef11b136ea224fe,,,,,,,,,321,39.5625,-103.9414063,1,0,0,response3disk,,4,17.1953125,-5.86328125,1,0,0,rectangle,17.1953125,-5.86328125,1,0,0,17.1953125,-5.86328125,1,0,0,0,25,25,35,1,,,,,,,,
,,,,,,,,,,,,,FF,,,,,,,,1.083215,,,,,,,,,,,,,,,,,,,,,,6100ed2dd8aa14dccb8d0915,61036a2de5a34362adf6236e,2021-07-29_19h56.17.726,Simcolourproject_2stim_asymm_v5,2020.2.10,MacIntel,60,61025ae37ef11b136ea224fe,,,,,,,,,1476,73.015625,-50.140625,1,0,0,response3disk,,5,24.4765625,-16.65234375,1,0,0,rectangle,24.4765625,-16.65234375,1,0,0,24.4765625,-16.65234375,1,0,0,0,26,26,47,1,,,,,,,,
,,,,,,,,,,,,,FF,,,,,,,,0.75415,,,,,,,,,,,,,,,,,,,,,,6100ed2dd8aa14dccb8d0915,61036a2de5a34362adf6236e,2021-07-29_19h56.17.726,Simcolourproject_2stim_asymm_v5,2020.2.10,MacIntel,60,61025ae37ef11b136ea224fe,,,,,,,,,4085,-31.859375,-76.31640625,1,0,0,response5disk,,3,-2.58984375,-10.4921875,1,0,0,rectangle,-2.58984375,-10.4921875,1,0,0,-2.58984375,-10.4921875,1,0,0,0,27,27,67,1,,,,,,,,
,,,,,,,,,,,,,FF,,,,,,,,1.184035,,,,,,,,,,,,,,,,,,,,,,6100ed2dd8aa14dccb8d0915,61036a2de5a34362adf6236e,2021-07-29_19h56.17.726,Simcolourproject_2stim_asymm_v5,2020.2.10,MacIntel,60,61025ae37ef11b136ea224fe,,,,,,,,,2983,-86.6640625,-54.921875,1,0,0,response5disk,,2,2.78125,7.8828125,1,0,0,rectangle,2.78125,7.8828125,1,0,0,2.78125,7.8828125,1,0,0,0,28,28,151,1,,,,,,,,
,,,,,,,,,,,,,FF,,,,,,,,0.983835,,,,,,,,,,,,,,,,,,,,,,6100ed2dd8aa14dccb8d0915,61036a2de5a34362adf6236e,2021-07-29_19h56.17.726,Simcolourproject_2stim_asymm_v5,2020.2.10,MacIntel,60,61025ae37ef11b136ea224fe,,,,,,,,,2958,83.921875,29.01953125,1,0,0,response1disk,,6,14.27734375,12.4609375,1,0,0,rectangle,-95.609375,-51.15234375,1,0,0,-1.921875,-4.15625,1,0,0,0,29,29,40,1,,response5disk_3,TRUE,2,2,"[171,270,149,201,65,222,261,110,198,164,243,248,146,163,159,30,302,30,85,322]",2.849995,rectangle
,,,,,,,,,,,,,FF,,,,,,,,8.03439,,,,,,,,,,,,,,,,,,,,,,6100ed2dd8aa14dccb8d0915,61036a2de5a34362adf6236e,2021-07-29_19h56.17.726,Simcolourproject_2stim_asymm_v5,2020.2.10,MacIntel,60,61025ae37ef11b136ea224fe,,,,,,,,,1627,37.45703125,-70.7109375,1,0,0,response3disk,,4,13.04296875,-12.0234375,1,0,0,rectangle,13.04296875,-12.0234375,1,0,0,13.04296875,-12.0234375,1,0,0,0,30,30,61,1,,,,,,,,
,,,,,,,,,,,,,FF,,,,,,,,1.565715,,,,,,,,,,,,,,,,,,,,,,6100ed2dd8aa14dccb8d0915,61036a2de5a34362adf6236e,2021-07-29_19h56.17.726,Simcolourproject_2stim_asymm_v5,2020.2.10,MacIntel,60,61025ae37ef11b136ea224fe,,,,,,,,,3810,-45.3515625,70.41796875,1,0,0,response7disk,,0,3.8046875,6.22265625,1,0,0,rectangle,3.8046875,6.22265625,1,0,0,3.8046875,6.22265625,1,0,0,0,31,31,150,1,,,,,,,,
,,,,,,,,,,,,,FF,,,,,,,,1.001875,,,,,,,,,,,,,,,,,,,,,,6100ed2dd8aa14dccb8d0915,61036a2de5a34362adf6236e,2021-07-29_19h56.17.726,Simcolourproject_2stim_asymm_v5,2020.2.10,MacIntel,60,61025ae37ef11b136ea224fe,,,,,,,,,2740,46.1484375,-80.3828125,1,0,0,response3disk,,4,6.93359375,-2.828125,1,0,0,rectangle,6.93359375,-2.828125,1,0,0,6.93359375,-2.828125,1,0,0,0,32,32,14,1,,,,,,,,
,,,,,,,,,,,,,FF,,,,,,,,2.700095,,,,,,,,,,,,,,,,,,,,,,6100ed2dd8aa14dccb8d0915,61036a2de5a34362adf6236e,2021-07-29_19h56.17.726,Simcolourproject_2stim_asymm_v5,2020.2.10,MacIntel,60,61025ae37ef11b136ea224fe,,,,,,,,,2135,84.16015625,34.29296875,1,0,0,response1disk,,6,-0.35546875,-10.2421875,1,0,0,rectangle,-0.35546875,-10.2421875,1,0,0,-0.35546875,-10.2421875,1,0,0,0,33,33,146,1,,,,,,,,
,,,,,,,,,,,,,FF,,,,,,,,0.94885,,,,,,,,,,,,,,,,,,,,,,6100ed2dd8aa14dccb8d0915,61036a2de5a34362adf6236e,2021-07-29_19h56.17.726,Simcolourproject_2stim_asymm_v5,2020.2.10,MacIntel,60,61025ae37ef11b136ea224fe,,,,,,,,,392,51.83203125,-55.53125,1,0,0,response3disk,,4,-14.32421875,-3.6484375,1,0,0,rectangle,-14.32421875,-3.6484375,1,0,0,-14.32421875,-3.6484375,1,0,0,0,34,34,78,1,,,,,,,,
,,,,,,,,,,,,,FF,,,,,,,,0.90308,,,,,,,,,,,,,,,,,,,,,,6100ed2dd8aa14dccb8d0915,61036a2de5a34362adf6236e,2021-07-29_19h56.17.726,Simcolourproject_2stim_asymm_v5,2020.2.10,MacIntel,60,61025ae37ef11b136ea224fe,,,,,,,,,2912,96.11328125,-63.51171875,1,0,0,response3disk,,5,14.40625,-9.24609375,1,0,0,rectangle,14.40625,-9.24609375,1,0,0,14.40625,-9.24609375,1,0,0,0,35,35,76,1,,,,,,,,
,,,,,,,,,,,,,FF,,,,,,,,0.793835,,,,,,,,,,,,,,,,,,,,,,6100ed2dd8aa14dccb8d0915,61036a2de5a34362adf6236e,2021-07-29_19h56.17.726,Simcolourproject_2stim_asymm_v5,2020.2.10,MacIntel,60,61025ae37ef11b136ea224fe,,,,,,,,,802,-75.4765625,-45.6875,1,0,0,response5disk,,2,6.53515625,0.42578125,1,0,0,rectangle,6.53515625,0.42578125,1,0,0,6.53515625,0.42578125,1,0,0,0,36,36,142,1,,,,,,,,
,,,,,,,,,,,,,FF,,,,,,,,2.786865,,,,,,,,,,,,,,,,,,,,,,6100ed2dd8aa14dccb8d0915,61036a2de5a34362adf6236e,2021-07-29_19h56.17.726,Simcolourproject_2stim_asymm_v5,2020.2.10,MacIntel,60,61025ae37ef11b136ea224fe,,,,,,,,,2175,33.625,-62.24609375,1,0,0,response3disk,,4,19.41796875,-4.14453125,1,0,0,rectangle,19.41796875,-4.14453125,1,0,0,19.41796875,-4.14453125,1,0,0,0,37,37,99,1,,,,,,,,
,,,,,,,,,,,,,FF,,,,,,,,0.862215,,,,,,,,,,,,,,,,,,,,,,6100ed2dd8aa14dccb8d0915,61036a2de5a34362adf6236e,2021-07-29_19h56.17.726,Simcolourproject_2stim_asymm_v5,2020.2.10,MacIntel,60,61025ae37ef11b136ea224fe,,,,,,,,,3671,-17.15625,53.12109375,1,0,0,response7disk,,0,2.70703125,6.30078125,1,0,0,rectangle,2.70703125,6.30078125,1,0,0,2.70703125,6.30078125,1,0,0,0,38,38,69,1,,,,,,,,
,,,,,,,,,,,,,FF,,,,,,,,0.968665,,,,,,,,,,,,,,,,,,,,,,6100ed2dd8aa14dccb8d0915,61036a2de5a34362adf6236e,2021-07-29_19h56.17.726,Simcolourproject_2stim_asymm_v5,2020.2.10,MacIntel,60,61025ae37ef11b136ea224fe,,,,,,,,,2118,80.20703125,42.28125,1,0,0,response1disk,,6,12.7578125,9.48046875,1,0,0,rectangle,12.7578125,9.48046875,1,0,0,12.7578125,9.48046875,1,0,0,0,39,39,79,1,,,,,,,,
,,,,,,,,,,,,,FF,,,,,,,,1.467685,,,,,,,,,,,,,,,,,,,,,,6100ed2dd8aa14dccb8d0915,61036a2de5a34362adf6236e,2021-07-29_19h56.17.726,Simcolourproject_2stim_asymm_v5,2020.2.10,MacIntel,60,61025ae37ef11b136ea224fe,,,,,,,,,780,53.79296875,-81.140625,1,0,0,response3disk,,4,17.0390625,-14.94921875,1,0,0,rectangle,17.0390625,-14.94921875,1,0,0,17.0390625,-14.94921875,1,0,0,0,40,40,113,1,,,,,,,,
,,,,,,,,,,,,,FF,,,,,,,,1.03373,,,,,,,,,,,,,,,,,,,,,,6100ed2dd8aa14dccb8d0915,61036a2de5a34362adf6236e,2021-07-29_19h56.17.726,Simcolourproject_2stim_asymm_v5,2020.2.10,MacIntel,60,61025ae37ef11b136ea224fe,,,,,,,,,2275,-40.1484375,-77.546875,1,0,0,response5disk,,3,-0.703125,1.2578125,1,0,0,rectangle,-0.703125,1.2578125,1,0,0,-0.703125,1.2578125,1,0,0,0,41,41,137,1,,,,,,,,
,,,,,,,,,,,,,FF,,,,,,,,0.634095,,,,,,,,,,,,,,,,,,,,,,6100ed2dd8aa14dccb8d0915,61036a2de5a34362adf6236e,2021-07-29_19h56.17.726,Simcolourproject_2stim_asymm_v5,2020.2.10,MacIntel,60,61025ae37ef11b136ea224fe,,,,,,,,,3791,48.9453125,-71.4375,1,0,0,response3disk,,4,28.97265625,9.01171875,1,0,0,rectangle,28.97265625,9.01171875,1,0,0,28.97265625,9.01171875,1,0,0,0,42,42,97,1,,,,,,,,
,,,,,,,,,,,,,FF,,,,,,,,0.676675,,,,,,,,,,,,,,,,,,,,,,6100ed2dd8aa14dccb8d0915,61036a2de5a34362adf6236e,2021-07-29_19h56.17.726,Simcolourproject_2stim_asymm_v5,2020.2.10,MacIntel,60,61025ae37ef11b136ea224fe,,,,,,,,,947,-58.96484375,-60.859375,1,0,0,response5disk,,3,-17.984375,9.4765625,1,0,0,rectangle,-17.984375,9.4765625,1,0,0,-17.984375,9.4765625,1,0,0,0,43,43,62,1,,,,,,,,
,,,,,,,,,,,,,FF,,,,,,,,0.762885,,,,,,,,,,,,,,,,,,,,,,6100ed2dd8aa14dccb8d0915,61036a2de5a34362adf6236e,2021-07-29_19h56.17.726,Simcolourproject_2stim_asymm_v5,2020.2.10,MacIntel,60,61025ae37ef11b136ea224fe,,,,,,,,,1900,-54.234375,42.6484375,1,0,0,response7disk,,1,0.9609375,1.765625,1,0,0,rectangle,0.9609375,1.765625,1,0,0,0.9609375,1.765625,1,0,0,0,44,44,24,1,,,,,,,,
,,,,,,,,,,,,,FF,,,,,,,,1.127695,,,,,,,,,,,,,,,,,,,,,,6100ed2dd8aa14dccb8d0915,61036a2de5a34362adf6236e,2021-07-29_19h56.17.726,Simcolourproject_2stim_asymm_v5,2020.2.10,MacIntel,60,61025ae37ef11b136ea224fe,,,,,,,,,4204,31.046875,-89.640625,1,0,0,response3disk,,4,8.6484375,0.17578125,1,0,0,rectangle,8.6484375,0.17578125,1,0,0,8.6484375,0.17578125,1,0,0,0,45,45,77,1,,,,,,,,
,,,,,,,,,,,,,FF,,,,,,,,1.61907,,,,,,,,,,,,,,,,,,,,,,6100ed2dd8aa14dccb8d0915,61036a2de5a34362adf6236e,2021-07-29_19h56.17.726,Simcolourproject_2stim_asymm_v5,2020.2.10,MacIntel,60,61025ae37ef11b136ea224fe,,,,,,,,,2878,-46.94921875,-104.15625,1,0,0,response5disk,,3,-9.87890625,-17.3203125,1,0,0,rectangle,-9.87890625,-17.3203125,1,0,0,-9.87890625,-17.3203125,1,0,0,0,46,46,64,1,,,,,,,,
,,,,,,,,,,,,,FF,,,,,,,,0.685825,,,,,,,,,,,,,,,,,,,,,,6100ed2dd8aa14dccb8d0915,61036a2de5a34362adf6236e,2021-07-29_19h56.17.726,Simcolourproject_2stim_asymm_v5,2020.2.10,MacIntel,60,61025ae37ef11b136ea224fe,,,,,,,,,2512,69.2421875,-69.03515625,1,0,0,response3disk,,5,33.609375,-1.28515625,1,0,0,rectangle,33.609375,-1.28515625,1,0,0,33.609375,-1.28515625,1,0,0,0,47,47,13,1,,,,,,,,
,,,,,,,,,,,,,FF,,,,,,,,0.867225,,,,,,,,,,,,,,,,,,,,,,6100ed2dd8aa14dccb8d0915,61036a2de5a34362adf6236e,2021-07-29_19h56.17.726,Simcolourproject_2stim_asymm_v5,2020.2.10,MacIntel,60,61025ae37ef11b136ea224fe,,,,,,,,,1358,93.50390625,44.9296875,1,0,0,response1disk,,6,25.8046875,-1.75,1,0,0,rectangle,25.8046875,-1.75,1,0,0,25.8046875,-1.75,1,0,0,0,48,48,59,1,,,,,,,,
,,,,,,,,,,,,,FF,,,,,,,,0.799085,,,,,,,,,,,,,,,,,,,,,,6100ed2dd8aa14dccb8d0915,61036a2de5a34362adf6236e,2021-07-29_19h56.17.726,Simcolourproject_2stim_asymm_v5,2020.2.10,MacIntel,60,61025ae37ef11b136ea224fe,,,,,,,,,4019,45.9296875,80.48046875,1,0,0,response1disk,,7,-1.171875,10.6796875,1,0,0,rectangle,-1.171875,10.6796875,1,0,0,-1.171875,10.6796875,1,0,0,0,49,49,114,1,,,,,,,,
,,,,,,,,,,,,,FF,,,,,,,,0.720255,,,,,,,,,,,,,,,,,,,,,,6100ed2dd8aa14dccb8d0915,61036a2de5a34362adf6236e,2021-07-29_19h56.17.726,Simcolourproject_2stim_asymm_v5,2020.2.10,MacIntel,60,61025ae37ef11b136ea224fe,,,,,,,,,1486,80.66796875,42.19140625,1,0,0,response1disk,,6,12.23828125,-9.3125,1,0,0,rectangle,12.23828125,-9.3125,1,0,0,12.23828125,-9.3125,1,0,0,0,50,50,88,1,,,,,,,,
,,,,,,,,,,,,,FF,,,,,,,,0.67418,,,,,,,,,,,,,,,,,,,,,,6100ed2dd8aa14dccb8d0915,61036a2de5a34362adf6236e,2021-07-29_19h56.17.726,Simcolourproject_2stim_asymm_v5,2020.2.10,MacIntel,60,61025ae37ef11b136ea224fe,,,,,,,,,3779,62.9453125,-28.57421875,1,0,0,response3disk,,5,22.94140625,2.0703125,1,0,0,rectangle,22.94140625,2.0703125,1,0,0,22.94140625,2.0703125,1,0,0,0,51,51,4,1,,,,,,,,
,,,,,,,,,,,,,FF,,,,,,,,1.249635,,,,,,,,,,,,,,,,,,,,,,6100ed2dd8aa14dccb8d0915,61036a2de5a34362adf6236e,2021-07-29_19h56.17.726,Simcolourproject_2stim_asymm_v5,2020.2.10,MacIntel,60,61025ae37ef11b136ea224fe,,,,,,,,,304,94.6875,-43.61328125,1,0,0,response3disk,,5,17.16796875,-13.125,1,0,0,rectangle,17.16796875,-13.125,1,0,0,17.16796875,-13.125,1,0,0,0,52,52,23,1,,,,,,,,
,,,,,,,,,,,,,FF,,,,,,,,0.642505,,,,,,,,,,,,,,,,,,,,,,6100ed2dd8aa14dccb8d0915,61036a2de5a34362adf6236e,2021-07-29_19h56.17.726,Simcolourproject_2stim_asymm_v5,2020.2.10,MacIntel,60,61025ae37ef11b136ea224fe,,,,,,,,,902,-42.64453125,-95.8203125,1,0,0,response5disk,,3,0.73046875,12.99609375,1,0,0,rectangle,0.73046875,12.99609375,1,0,0,0.73046875,12.99609375,1,0,0,0,53,53,3,1,,,,,,,,
,,,,,,,,,,,,,FF,,,,,,,,0.7338,,,,,,,,,,,,,,,,,,,,,,6100ed2dd8aa14dccb8d0915,61036a2de5a34362adf6236e,2021-07-29_19h56.17.726,Simcolourproject_2stim_asymm_v5,2020.2.10,MacIntel,60,61025ae37ef11b136ea224fe,,,,,,,,,2351,63.88671875,-35.44140625,1,0,0,response3disk,,5,20.8359375,-10.77734375,1,0,0,rectangle,20.8359375,-10.77734375,1,0,0,20.8359375,-10.77734375,1,0,0,0,54,54,56,1,,,,,,,,
,,,,,,,,,,,,,FF,,,,,,,,0.609175,,,,,,,,,,,,,,,,,,,,,,6100ed2dd8aa14dccb8d0915,61036a2de5a34362adf6236e,2021-07-29_19h56.17.726,Simcolourproject_2stim_asymm_v5,2020.2.10,MacIntel,60,61025ae37ef11b136ea224fe,,,,,,,,,1908,39.67578125,-66.390625,1,0,0,response3disk,,4,17.38671875,10.28515625,1,0,0,rectangle,17.38671875,10.28515625,1,0,0,17.38671875,10.28515625,1,0,0,0,55,55,136,1,,,,,,,,
,,,,,,,,,,,,,FF,,,,,,,,1.336715,,,,,,,,,,,,,,,,,,,,,,6100ed2dd8aa14dccb8d0915,61036a2de5a34362adf6236e,2021-07-29_19h56.17.726,Simcolourproject_2stim_asymm_v5,2020.2.10,MacIntel,60,61025ae37ef11b136ea224fe,,,,,,,,,2690,-43.01171875,-102.2226563,1,0,0,response5disk,,3,33.42578125,1.7265625,1,0,0,rectangle,33.42578125,1.7265625,1,0,0,33.42578125,1.7265625,1,0,0,0,56,56,116,1,,,,,,,,
,,,,,,,,,,,,,FF,,,,,,,,1.183025,,,,,,,,,,,,,,,,,,,,,,6100ed2dd8aa14dccb8d0915,61036a2de5a34362adf6236e,2021-07-29_19h56.17.726,Simcolourproject_2stim_asymm_v5,2020.2.10,MacIntel,60,61025ae37ef11b136ea224fe,,,,,,,,,4073,22.31640625,-83.62890625,1,0,0,response3disk,,4,5.703125,-9.6171875,1,0,0,rectangle,5.703125,-9.6171875,1,0,0,5.703125,-9.6171875,1,0,0,0,57,57,82,1,,,,,,,,
,,,,,,,,,,,,,FF,,,,,,,,2.243615,,,,,,,,,,,,,,,,,,,,,,6100ed2dd8aa14dccb8d0915,61036a2de5a34362adf6236e,2021-07-29_19h56.17.726,Simcolourproject_2stim_asymm_v5,2020.2.10,MacIntel,60,61025ae37ef11b136ea224fe,,,,,,,,,1953,68.81640625,-45.03125,1,0,0,response3disk,,5,11.82421875,-7.171875,1,0,0,rectangle,11.82421875,-7.171875,1,0,0,11.82421875,-7.171875,1,0,0,0,58,58,6,1,,,,,,,,
,,,,,,,,,,,,,FF,,,,,,,,0.99846,,,,,,,,,,,,,,,,,,,,,,6100ed2dd8aa14dccb8d0915,61036a2de5a34362adf6236e,2021-07-29_19h56.17.726,Simcolourproject_2stim_asymm_v5,2020.2.10,MacIntel,60,61025ae37ef11b136ea224fe,,,,,,,,,1599,-53.8125,-41.6640625,1,0,0,response5disk,,2,-12.515625,-10.43359375,1,0,0,rectangle,-12.515625,-10.43359375,1,0,0,-12.515625,-10.43359375,1,0,0,0,59,59,63,1,,,,,,,,
,,,,,,,,,,,,,FF,,,,,,,,0.996435,,,,,,,,,,,,,,,,,,,,,,6100ed2dd8aa14dccb8d0915,61036a2de5a34362adf6236e,2021-07-29_19h56.17.726,Simcolourproject_2stim_asymm_v5,2020.2.10,MacIntel,60,61025ae37ef11b136ea224fe,,,,,,,,,1656,41.8671875,-103.21875,1,0,0,response3disk,,4,-26.61328125,8.0625,1,0,0,rectangle,-26.61328125,8.0625,1,0,0,-26.61328125,8.0625,1,0,0,0,60,60,45,1,,,,,,,,
,,,,,,,,,,,,,FF,,,,,,,,0.803175,,,,,,,,,,,,,,,,,,,,,,6100ed2dd8aa14dccb8d0915,61036a2de5a34362adf6236e,2021-07-29_19h56.17.726,Simcolourproject_2stim_asymm_v5,2020.2.10,MacIntel,60,61025ae37ef11b136ea224fe,,,,,,,,,8,-70.08203125,-44.5859375,1,0,0,response5disk,,2,32.05078125,-3.8828125,1,0,0,rectangle,32.05078125,-3.8828125,1,0,0,32.05078125,-3.8828125,1,0,0,0,61,61,127,1,,,,,,,,
,,,,,,,,,,,,,FF,,,,,,,,1.350565,,,,,,,,,,,,,,,,,,,,,,6100ed2dd8aa14dccb8d0915,61036a2de5a34362adf6236e,2021-07-29_19h56.17.726,Simcolourproject_2stim_asymm_v5,2020.2.10,MacIntel,60,61025ae37ef11b136ea224fe,,,,,,,,,330,62.56640625,-31.8046875,1,0,0,response3disk,,5,7.1796875,3.9453125,1,0,0,rectangle,7.1796875,3.9453125,1,0,0,7.1796875,3.9453125,1,0,0,0,62,62,130,1,,,,,,,,
,,,,,,,,,,,,,FF,,,,,,,,2.96224,,,,,,,,,,,,,,,,,,,,,,6100ed2dd8aa14dccb8d0915,61036a2de5a34362adf6236e,2021-07-29_19h56.17.726,Simcolourproject_2stim_asymm_v5,2020.2.10,MacIntel,60,61025ae37ef11b136ea224fe,,,,,,,,,4180,55.67578125,-81.45703125,1,0,0,response3disk,,4,6.66015625,-1.6640625,1,0,0,rectangle,6.66015625,-1.6640625,1,0,0,6.66015625,-1.6640625,1,0,0,0,63,63,26,1,,,,,,,,
,,,,,,,,,,,,,FF,,,,,,,,0.77563,,,,,,,,,,,,,,,,,,,,,,6100ed2dd8aa14dccb8d0915,61036a2de5a34362adf6236e,2021-07-29_19h56.17.726,Simcolourproject_2stim_asymm_v5,2020.2.10,MacIntel,60,61025ae37ef11b136ea224fe,,,,,,,,,3972,-79.78125,-32.3125,1,0,0,response5disk,,2,-2.40625,-12.20703125,1,0,0,rectangle,-81.4921875,-28.68359375,1,0,0,-9.75,4.6796875,1,0,0,0,64,64,75,1,,response5disk_3,TRUE,2,2,"[171,270,149,201,65,222,261,110,198,164,243,248,146,163,159,30,302,30,85,322]",2.023145,rectangle
,,,,,,,,,,,,,FF,,,,,,,,1.23417,,,,,,,,,,,,,,,,,,,,,,6100ed2dd8aa14dccb8d0915,61036a2de5a34362adf6236e,2021-07-29_19h56.17.726,Simcolourproject_2stim_asymm_v5,2020.2.10,MacIntel,60,61025ae37ef11b136ea224fe,,,,,,,,,1456,-71.66796875,37.0234375,1,0,0,response7disk,,1,-29.984375,8.13671875,1,0,0,rectangle,-29.984375,8.13671875,1,0,0,-29.984375,8.13671875,1,0,0,0,65,65,93,1,,,,,,,,
,,,,,,,,,,,,,FF,,,,,,,,1.18562,,,,,,,,,,,,,,,,,,,,,,6100ed2dd8aa14dccb8d0915,61036a2de5a34362adf6236e,2021-07-29_19h56.17.726,Simcolourproject_2stim_asymm_v5,2020.2.10,MacIntel,60,61025ae37ef11b136ea224fe,,,,,,,,,1063,-50.01171875,23.01953125,1,0,0,response7disk,,1,-10.49609375,11.6640625,1,0,0,rectangle,-10.49609375,11.6640625,1,0,0,-10.49609375,11.6640625,1,0,0,0,66,66,125,1,,,,,,,,
,,,,,,,,,,,,,FF,,,,,,,,1.450725,,,,,,,,,,,,,,,,,,,,,,6100ed2dd8aa14dccb8d0915,61036a2de5a34362adf6236e,2021-07-29_19h56.17.726,Simcolourproject_2stim_asymm_v5,2020.2.10,MacIntel,60,61025ae37ef11b136ea224fe,,,,,,,,,4163,-46.2734375,79.1015625,1,0,0,response7disk,,0,-2.5859375,4.51171875,1,0,0,rectangle,-2.5859375,4.51171875,1,0,0,-2.5859375,4.51171875,1,0,0,0,67,67,119,1,,,,,,,,
,,,,,,,,,,,,,FF,,,,,,,,0.950985,,,,,,,,,,,,,,,,,,,,,,6100ed2dd8aa14dccb8d0915,61036a2de5a34362adf6236e,2021-07-29_19h56.17.726,Simcolourproject_2stim_asymm_v5,2020.2.10,MacIntel,60,61025ae37ef11b136ea224fe,,,,,,,,,3065,60.25390625,-49.55859375,1,0,0,response3disk,,5,11.78515625,-3.6796875,1,0,0,rectangle,11.78515625,-3.6796875,1,0,0,11.78515625,-3.6796875,1,0,0,0,68,68,128,1,,,,,,,,
,,,,,,,,,,,,,FF,,,,,,,,0.964785,,,,,,,,,,,,,,,,,,,,,,6100ed2dd8aa14dccb8d0915,61036a2de5a34362adf6236e,2021-07-29_19h56.17.726,Simcolourproject_2stim_asymm_v5,2020.2.10,MacIntel,60,61025ae37ef11b136ea224fe,,,,,,,,,2239,-34.5234375,-75.9140625,1,0,0,response5disk,,3,-11.28515625,1.35546875,1,0,0,rectangle,-11.28515625,1.35546875,1,0,0,-11.28515625,1.35546875,1,0,0,0,69,69,29,1,,,,,,,,
,,,,,,,,,,,,,FF,,,,,,,,0.82953,,,,,,,,,,,,,,,,,,,,,,6100ed2dd8aa14dccb8d0915,61036a2de5a34362adf6236e,2021-07-29_19h56.17.726,Simcolourproject_2stim_asymm_v5,2020.2.10,MacIntel,60,61025ae37ef11b136ea224fe,,,,,,,,,1778,53.83984375,-78.2421875,1,0,0,response3disk,,4,17.3359375,-2.28125,1,0,0,rectangle,17.3359375,-2.28125,1,0,0,17.3359375,-2.28125,1,0,0,0,70,70,98,1,,,,,,,,
,,,,,,,,,,,,,FF,,,,,,,,0.5851,,,,,,,,,,,,,,,,,,,,,,6100ed2dd8aa14dccb8d0915,61036a2de5a34362adf6236e,2021-07-29_19h56.17.726,Simcolourproject_2stim_asymm_v5,2020.2.10,MacIntel,60,61025ae37ef11b136ea224fe,,,,,,,,,817,-67.9609375,-92.25,1,0,0,response5disk,,3,13.05078125,4.4140625,1,0,0,rectangle,13.05078125,4.4140625,1,0,0,13.05078125,4.4140625,1,0,0,0,71,71,31,1,,,,,,,,
,,,,,,,,,,,,,FF,,,,,,,,0.84454,,,,,,,,,,,,,,,,,,,,,,6100ed2dd8aa14dccb8d0915,61036a2de5a34362adf6236e,2021-07-29_19h56.17.726,Simcolourproject_2stim_asymm_v5,2020.2.10,MacIntel,60,61025ae37ef11b136ea224fe,,,,,,,,,3871,36.76953125,-61.26171875,1,0,0,response3disk,,4,-3.01953125,7.87890625,1,0,0,rectangle,-3.01953125,7.87890625,1,0,0,-3.01953125,7.87890625,1,0,0,0,72,72,0,1,,,,,,,,
,,,,,,,,,,,,,FF,,,,,,,,0.90155,,,,,,,,,,,,,,,,,,,,,,6100ed2dd8aa14dccb8d0915,61036a2de5a34362adf6236e,2021-07-29_19h56.17.726,Simcolourproject_2stim_asymm_v5,2020.2.10,MacIntel,60,61025ae37ef11b136ea224fe,,,,,,,,,3050,-77.12109375,-38.28125,1,0,0,response5disk,,2,-8.67578125,-6.328125,1,0,0,rectangle,-8.67578125,-6.328125,1,0,0,-8.67578125,-6.328125,1,0,0,0,73,73,2,1,,,,,,,,
,,,,,,,,,,,,,FF,,,,,,,,0.616555,,,,,,,,,,,,,,,,,,,,,,6100ed2dd8aa14dccb8d0915,61036a2de5a34362adf6236e,2021-07-29_19h56.17.726,Simcolourproject_2stim_asymm_v5,2020.2.10,MacIntel,60,61025ae37ef11b136ea224fe,,,,,,,,,2734,-26.50390625,-66.39453125,1,0,0,response5disk,,3,-9.859375,-8.1640625,1,0,0,rectangle,-9.859375,-8.1640625,1,0,0,-9.859375,-8.1640625,1,0,0,0,74,74,17,1,,,,,,,,
,,,,,,,,,,,,,FF,,,,,,,,0.717345,,,,,,,,,,,,,,,,,,,,,,6100ed2dd8aa14dccb8d0915,61036a2de5a34362adf6236e,2021-07-29_19h56.17.726,Simcolourproject_2stim_asymm_v5,2020.2.10,MacIntel,60,61025ae37ef11b136ea224fe,,,,,,,,,4017,55.42578125,-61.03125,1,0,0,response3disk,,4,28.41015625,-1.67578125,1,0,0,rectangle,28.41015625,-1.67578125,1,0,0,28.41015625,-1.67578125,1,0,0,0,75,75,70,1,,,,,,,,
,,,,,,,,,,,,,FF,,,,,,,,0.703165,,,,,,,,,,,,,,,,,,,,,,6100ed2dd8aa14dccb8d0915,61036a2de5a34362adf6236e,2021-07-29_19h56.17.726,Simcolourproject_2stim_asymm_v5,2020.2.10,MacIntel,60,61025ae37ef11b136ea224fe,,,,,,,,,2027,-28.66015625,49.546875,1,0,0,response7disk,,0,-17.6484375,-5.375,1,0,0,rectangle,-17.6484375,-5.375,1,0,0,-17.6484375,-5.375,1,0,0,0,76,76,72,1,,,,,,,,
,,,,,,,,,,,,,FF,,,,,,,,0.91848,,,,,,,,,,,,,,,,,,,,,,6100ed2dd8aa14dccb8d0915,61036a2de5a34362adf6236e,2021-07-29_19h56.17.726,Simcolourproject_2stim_asymm_v5,2020.2.10,MacIntel,60,61025ae37ef11b136ea224fe,,,,,,,,,4103,-64.5078125,-32.0703125,1,0,0,response5disk,,2,-3.1015625,-16.21875,1,0,0,rectangle,-3.1015625,-16.21875,1,0,0,-3.1015625,-16.21875,1,0,0,0,77,77,106,1,,,,,,,,
,,,,,,,,,,,,,FF,,,,,,,,0.682515,,,,,,,,,,,,,,,,,,,,,,6100ed2dd8aa14dccb8d0915,61036a2de5a34362adf6236e,2021-07-29_19h56.17.726,Simcolourproject_2stim_asymm_v5,2020.2.10,MacIntel,60,61025ae37ef11b136ea224fe,,,,,,,,,1800,38.82421875,-99.1328125,1,0,0,response3disk,,4,-11.83203125,3.54296875,1,0,0,rectangle,-11.83203125,3.54296875,1,0,0,-11.83203125,3.54296875,1,0,0,0,78,78,109,1,,,,,,,,
,,,,,,,,,,,,,FF,,,,,,,,0.75356,,,,,,,,,,,,,,,,,,,,,,6100ed2dd8aa14dccb8d0915,61036a2de5a34362adf6236e,2021-07-29_19h56.17.726,Simcolourproject_2stim_asymm_v5,2020.2.10,MacIntel,60,61025ae37ef11b136ea224fe,,,,,,,,,3589,52.1875,-27.9921875,1,0,0,response3disk,,5,13.67578125,5.8828125,1,0,0,rectangle,13.67578125,5.8828125,1,0,0,13.67578125,5.8828125,1,0,0,0,79,79,92,1,,,,,,,,
,,,,,,,,,,,,,FF,,,,,,,,2.99959,,,,,,,,,,,,,,,,,,,,,,6100ed2dd8aa14dccb8d0915,61036a2de5a34362adf6236e,2021-07-29_19h56.17.726,Simcolourproject_2stim_asymm_v5,2020.2.10,MacIntel,60,61025ae37ef11b136ea224fe,,,,,,,,,3497,58.94921875,34.48828125,1,0,0,response1disk,,6,19.6640625,5.24609375,1,0,0,rectangle,19.6640625,5.24609375,1,0,0,19.6640625,5.24609375,1,0,0,0,80,80,52,1,,,,,,,,
,,,,,,,,,,,,,FF,,,,,,,,1.46796,,,,,,,,,,,,,,,,,,,,,,6100ed2dd8aa14dccb8d0915,61036a2de5a34362adf6236e,2021-07-29_19h56.17.726,Simcolourproject_2stim_asymm_v5,2020.2.10,MacIntel,60,61025ae37ef11b136ea224fe,,,,,,,,,1251,63.5546875,-24.15234375,1,0,0,response3disk,,5,30.72265625,-6.73046875,1,0,0,rectangle,30.72265625,-6.73046875,1,0,0,30.72265625,-6.73046875,1,0,0,0,81,81,112,1,,,,,,,,
,,,,,,,,,,,,,FF,,,,,,,,0.58732,,,,,,,,,,,,,,,,,,,,,,6100ed2dd8aa14dccb8d0915,61036a2de5a34362adf6236e,2021-07-29_19h56.17.726,Simcolourproject_2stim_asymm_v5,2020.2.10,MacIntel,60,61025ae37ef11b136ea224fe,,,,,,,,,4024,-56.9453125,-29.265625,1,0,0,response5disk,,2,-5.9609375,-15.4453125,1,0,0,rectangle,-5.9609375,-15.4453125,1,0,0,-5.9609375,-15.4453125,1,0,0,0,82,82,139,1,,,,,,,,
,,,,,,,,,,,,,FF,,,,,,,,0.739015,,,,,,,,,,,,,,,,,,,,,,6100ed2dd8aa14dccb8d0915,61036a2de5a34362adf6236e,2021-07-29_19h56.17.726,Simcolourproject_2stim_asymm_v5,2020.2.10,MacIntel,60,61025ae37ef11b136ea224fe,,,,,,,,,630,-41.78515625,79.671875,1,0,0,response7disk,,0,1.42578125,11.05859375,1,0,0,rectangle,1.42578125,11.05859375,1,0,0,1.42578125,11.05859375,1,0,0,0,83,83,122,1,,,,,,,,
,,,,,,,,,,,,,FF,,,,,,,,0.63695,,,,,,,,,,,,,,,,,,,,,,6100ed2dd8aa14dccb8d0915,61036a2de5a34362adf6236e,2021-07-29_19h56.17.726,Simcolourproject_2stim_asymm_v5,2020.2.10,MacIntel,60,61025ae37ef11b136ea224fe,,,,,,,,,3903,38.0078125,-78.4453125,1,0,0,response3disk,,4,16.75,-6.33203125,1,0,0,rectangle,-43.29296875,91.8203125,1,0,0,-4.30078125,14.53125,1,0,0,0,84,84,22,1,,response7disk_3,TRUE,0,0,"[171,270,149,201,65,222,261,110,198,164,243,248,146,163,159,30,302,30,85,322]",1.934335,rectangle
,,,,,,,,,,,,,FF,,,,,,,,1.016405,,,,,,,,,,,,,,,,,,,,,,6100ed2dd8aa14dccb8d0915,61036a2de5a34362adf6236e,2021-07-29_19h56.17.726,Simcolourproject_2stim_asymm_v5,2020.2.10,MacIntel,60,61025ae37ef11b136ea224fe,,,,,,,,,3040,50.73828125,-44.76953125,1,0,0,response3disk,,5,15.62109375,-6.19921875,1,0,0,rectangle,15.62109375,-6.19921875,1,0,0,15.62109375,-6.19921875,1,0,0,0,85,85,100,1,,,,,,,,
,,,,,,,,,,,,,FF,,,,,,,,0.517795,,,,,,,,,,,,,,,,,,,,,,6100ed2dd8aa14dccb8d0915,61036a2de5a34362adf6236e,2021-07-29_19h56.17.726,Simcolourproject_2stim_asymm_v5,2020.2.10,MacIntel,60,61025ae37ef11b136ea224fe,,,,,,,,,1236,64.19140625,-60.77734375,1,0,0,response3disk,,5,25.23828125,-6.6953125,1,0,0,rectangle,25.23828125,-6.6953125,1,0,0,25.23828125,-6.6953125,1,0,0,0,86,86,51,1,,,,,,,,
,,,,,,,,,,,,,FF,,,,,,,,0.934635,,,,,,,,,,,,,,,,,,,,,,6100ed2dd8aa14dccb8d0915,61036a2de5a34362adf6236e,2021-07-29_19h56.17.726,Simcolourproject_2stim_asymm_v5,2020.2.10,MacIntel,60,61025ae37ef11b136ea224fe,,,,,,,,,3630,-44.16015625,26.31640625,1,0,0,response7disk,,1,9.01171875,-4.16015625,1,0,0,rectangle,9.01171875,-4.16015625,1,0,0,9.01171875,-4.16015625,1,0,0,0,87,87,85,1,,,,,,,,
,,,,,,,,,,,,,FF,,,,,,,,0.9171,,,,,,,,,,,,,,,,,,,,,,6100ed2dd8aa14dccb8d0915,61036a2de5a34362adf6236e,2021-07-29_19h56.17.726,Simcolourproject_2stim_asymm_v5,2020.2.10,MacIntel,60,61025ae37ef11b136ea224fe,,,,,,,,,373,-71.6796875,51.38671875,1,0,0,response7disk,,1,-12.09765625,-1.609375,1,0,0,rectangle,-12.09765625,-1.609375,1,0,0,-12.09765625,-1.609375,1,0,0,0,88,88,124,1,,,,,,,,
,,,,,,,,,,,,,FF,,,,,,,,1.09955,,,,,,,,,,,,,,,,,,,,,,6100ed2dd8aa14dccb8d0915,61036a2de5a34362adf6236e,2021-07-29_19h56.17.726,Simcolourproject_2stim_asymm_v5,2020.2.10,MacIntel,60,61025ae37ef11b136ea224fe,,,,,,,,,572,107.6289063,34.43359375,1,0,0,response1disk,,6,18.43359375,11.34765625,1,0,0,rectangle,18.43359375,11.34765625,1,0,0,18.43359375,11.34765625,1,0,0,0,89,89,49,1,,,,,,,,
,,,,,,,,,,,,,FF,,,,,,,,0.63397,,,,,,,,,,,,,,,,,,,,,,6100ed2dd8aa14dccb8d0915,61036a2de5a34362adf6236e,2021-07-29_19h56.17.726,Simcolourproject_2stim_asymm_v5,2020.2.10,MacIntel,60,61025ae37ef11b136ea224fe,,,,,,,,,240,57.9296875,36.22265625,1,0,0,response1disk,,6,4.51953125,1.46875,1,0,0,rectangle,4.51953125,1.46875,1,0,0,4.51953125,1.46875,1,0,0,0,90,90,28,1,,,,,,,,
,,,,,,,,,,,,,FF,,,,,,,,0.78851,,,,,,,,,,,,,,,,,,,,,,6100ed2dd8aa14dccb8d0915,61036a2de5a34362adf6236e,2021-07-29_19h56.17.726,Simcolourproject_2stim_asymm_v5,2020.2.10,MacIntel,60,61025ae37ef11b136ea224fe,,,,,,,,,3559,46.19921875,-90.3203125,1,0,0,response3disk,,4,15.6796875,-13.44140625,1,0,0,rectangle,15.6796875,-13.44140625,1,0,0,15.6796875,-13.44140625,1,0,0,0,91,91,73,1,,,,,,,,
,,,,,,,,,,,,,FF,,,,,,,,0.866615,,,,,,,,,,,,,,,,,,,,,,6100ed2dd8aa14dccb8d0915,61036a2de5a34362adf6236e,2021-07-29_19h56.17.726,Simcolourproject_2stim_asymm_v5,2020.2.10,MacIntel,60,61025ae37ef11b136ea224fe,,,,,,,,,3204,-63.76171875,34.546875,1,0,0,response7disk,,1,-9.421875,4.85546875,1,0,0,rectangle,-9.421875,4.85546875,1,0,0,-9.421875,4.85546875,1,0,0,0,92,92,20,1,,,,,,,,
,,,,,,,,,,,,,FF,,,,,,,,1.121565,,,,,,,,,,,,,,,,,,,,,,6100ed2dd8aa14dccb8d0915,61036a2de5a34362adf6236e,2021-07-29_19h56.17.726,Simcolourproject_2stim_asymm_v5,2020.2.10,MacIntel,60,61025ae37ef11b136ea224fe,,,,,,,,,1973,73.74609375,-103.3398438,1,0,0,response3disk,,4,9.55859375,-1.3984375,1,0,0,rectangle,9.55859375,-1.3984375,1,0,0,9.55859375,-1.3984375,1,0,0,0,93,93,158,1,,,,,,,,
,,,,,,,,,,,,,FF,,,,,,,,0.81815,,,,,,,,,,,,,,,,,,,,,,6100ed2dd8aa14dccb8d0915,61036a2de5a34362adf6236e,2021-07-29_19h56.17.726,Simcolourproject_2stim_asymm_v5,2020.2.10,MacIntel,60,61025ae37ef11b136ea224fe,,,,,,,,,3615,43.46875,-69.296875,1,0,0,response3disk,,4,10.29296875,14.09375,1,0,0,rectangle,10.29296875,14.09375,1,0,0,10.29296875,14.09375,1,0,0,0,94,94,34,1,,,,,,,,
,,,,,,,,,,,,,FF,,,,,,,,2.178325,,,,,,,,,,,,,,,,,,,,,,6100ed2dd8aa14dccb8d0915,61036a2de5a34362adf6236e,2021-07-29_19h56.17.726,Simcolourproject_2stim_asymm_v5,2020.2.10,MacIntel,60,61025ae37ef11b136ea224fe,,,,,,,,,1195,62.125,62.72265625,1,0,0,response1disk,,7,14.453125,7.05859375,1,0,0,rectangle,14.453125,7.05859375,1,0,0,14.453125,7.05859375,1,0,0,0,95,95,108,1,,,,,,,,
,,,,,,,,,,,,,FF,,,,,,,,0.672165,,,,,,,,,,,,,,,,,,,,,,6100ed2dd8aa14dccb8d0915,61036a2de5a34362adf6236e,2021-07-29_19h56.17.726,Simcolourproject_2stim_asymm_v5,2020.2.10,MacIntel,60,61025ae37ef11b136ea224fe,,,,,,,,,4049,56.7421875,-77.4921875,1,0,0,response3disk,,4,16.44140625,-13.1796875,1,0,0,rectangle,16.44140625,-13.1796875,1,0,0,16.44140625,-13.1796875,1,0,0,0,96,96,21,1,,,,,,,,
,,,,,,,,,,,,,FF,,,,,,,,2.24328,,,,,,,,,,,,,,,,,,,,,,6100ed2dd8aa14dccb8d0915,61036a2de5a34362adf6236e,2021-07-29_19h56.17.726,Simcolourproject_2stim_asymm_v5,2020.2.10,MacIntel,60,61025ae37ef11b136ea224fe,,,,,,,,,2669,33.390625,-55.203125,1,0,0,response3disk,,4,5.7578125,-4.0234375,1,0,0,rectangle,5.7578125,-4.0234375,1,0,0,5.7578125,-4.0234375,1,0,0,0,97,97,89,1,,,,,,,,
,,,,,,,,,,,,,FF,,,,,,,,0.586345,,,,,,,,,,,,,,,,,,,,,,6100ed2dd8aa14dccb8d0915,61036a2de5a34362adf6236e,2021-07-29_19h56.17.726,Simcolourproject_2stim_asymm_v5,2020.2.10,MacIntel,60,61025ae37ef11b136ea224fe,,,,,,,,,1849,85.4765625,-55.60546875,1,0,0,response3disk,,5,23.14453125,-9.98046875,1,0,0,rectangle,23.14453125,-9.98046875,1,0,0,23.14453125,-9.98046875,1,0,0,0,98,98,157,1,,,,,,,,
,,,,,,,,,,,,,FF,,,,,,,,0.949385,,,,,,,,,,,,,,,,,,,,,,6100ed2dd8aa14dccb8d0915,61036a2de5a34362adf6236e,2021-07-29_19h56.17.726,Simcolourproject_2stim_asymm_v5,2020.2.10,MacIntel,60,61025ae37ef11b136ea224fe,,,,,,,,,1109,65.94140625,35.65625,1,0,0,response1disk,,6,26.09375,6.45703125,1,0,0,rectangle,26.09375,6.45703125,1,0,0,26.09375,6.45703125,1,0,0,0,99,99,10,1,,,,,,,,
,,,,,,,,,,,,,FF,,,,,,,,0.547305,,,,,,,,,,,,,,,,,,,,,,6100ed2dd8aa14dccb8d0915,61036a2de5a34362adf6236e,2021-07-29_19h56.17.726,Simcolourproject_2stim_asymm_v5,2020.2.10,MacIntel,60,61025ae37ef11b136ea224fe,,,,,,,,,3496,56.65625,-42.44140625,1,0,0,response3disk,,5,10.00390625,11.01171875,1,0,0,rectangle,10.00390625,11.01171875,1,0,0,10.00390625,11.01171875,1,0,0,0,100,100,48,1,,,,,,,,
,,,,,,,,,,,,,FF,,,,,,,,0.5935,,,,,,,,,,,,,,,,,,,,,,6100ed2dd8aa14dccb8d0915,61036a2de5a34362adf6236e,2021-07-29_19h56.17.726,Simcolourproject_2stim_asymm_v5,2020.2.10,MacIntel,60,61025ae37ef11b136ea224fe,,,,,,,,,276,-50.9140625,58.94921875,1,0,0,response7disk,,0,-14.10546875,-1.28125,1,0,0,rectangle,-14.10546875,-1.28125,1,0,0,-14.10546875,-1.28125,1,0,0,0,101,101,131,1,,,,,,,,
,,,,,,,,,,,,,FF,,,,,,,,0.64602,,,,,,,,,,,,,,,,,,,,,,6100ed2dd8aa14dccb8d0915,61036a2de5a34362adf6236e,2021-07-29_19h56.17.726,Simcolourproject_2stim_asymm_v5,2020.2.10,MacIntel,60,61025ae37ef11b136ea224fe,,,,,,,,,4043,61.96484375,-32.8984375,1,0,0,response3disk,,5,24.00390625,2.9609375,1,0,0,rectangle,24.00390625,2.9609375,1,0,0,24.00390625,2.9609375,1,0,0,0,102,102,110,1,,,,,,,,
,,,,,,,,,,,,,FF,,,,,,,,0.65766,,,,,,,,,,,,,,,,,,,,,,6100ed2dd8aa14dccb8d0915,61036a2de5a34362adf6236e,2021-07-29_19h56.17.726,Simcolourproject_2stim_asymm_v5,2020.2.10,MacIntel,60,61025ae37ef11b136ea224fe,,,,,,,,,1646,71.51171875,-47.2578125,1,0,0,response3disk,,5,22.03515625,-2.3671875,1,0,0,rectangle,22.03515625,-2.3671875,1,0,0,22.03515625,-2.3671875,1,0,0,0,103,103,32,1,,,,,,,,
,,,,,,,,,,,,,FF,,,,,,,,0.751005,,,,,,,,,,,,,,,,,,,,,,6100ed2dd8aa14dccb8d0915,61036a2de5a34362adf6236e,2021-07-29_19h56.17.726,Simcolourproject_2stim_asymm_v5,2020.2.10,MacIntel,60,61025ae37ef11b136ea224fe,,,,,,,,,2599,70.703125,47.08984375,1,0,0,response1disk,,6,18.76953125,16.89453125,1,0,0,rectangle,18.76953125,16.89453125,1,0,0,18.76953125,16.89453125,1,0,0,0,104,104,38,1,,,,,,,,
,,,,,,,,,,,,,FF,,,,,,,,0.85852,,,,,,,,,,,,,,,,,,,,,,6100ed2dd8aa14dccb8d0915,61036a2de5a34362adf6236e,2021-07-29_19h56.17.726,Simcolourproject_2stim_asymm_v5,2020.2.10,MacIntel,60,61025ae37ef11b136ea224fe,,,,,,,,,1051,-73.95703125,75.171875,1,0,0,response7disk,,0,-9.625,-1.30078125,1,0,0,rectangle,-9.625,-1.30078125,1,0,0,-9.625,-1.30078125,1,0,0,0,105,105,39,1,,,,,,,,
,,,,,,,,,,,,,FF,,,,,,,,1.466685,,,,,,,,,,,,,,,,,,,,,,6100ed2dd8aa14dccb8d0915,61036a2de5a34362adf6236e,2021-07-29_19h56.17.726,Simcolourproject_2stim_asymm_v5,2020.2.10,MacIntel,60,61025ae37ef11b136ea224fe,,,,,,,,,3636,-45.04296875,-84.765625,1,0,0,response5disk,,3,-0.68359375,-3.1953125,1,0,0,rectangle,-0.68359375,-3.1953125,1,0,0,-0.68359375,-3.1953125,1,0,0,0,106,106,65,1,,,,,,,,
,,,,,,,,,,,,,FF,,,,,,,,1.12103,,,,,,,,,,,,,,,,,,,,,,6100ed2dd8aa14dccb8d0915,61036a2de5a34362adf6236e,2021-07-29_19h56.17.726,Simcolourproject_2stim_asymm_v5,2020.2.10,MacIntel,60,61025ae37ef11b136ea224fe,,,,,,,,,1671,-51.91015625,-53.9453125,1,0,0,response5disk,,3,13.05859375,-15.33203125,1,0,0,rectangle,13.05859375,-15.33203125,1,0,0,13.05859375,-15.33203125,1,0,0,0,107,107,153,1,,,,,,,,
,,,,,,,,,,,,,FF,,,,,,,,0.651125,,,,,,,,,,,,,,,,,,,,,,6100ed2dd8aa14dccb8d0915,61036a2de5a34362adf6236e,2021-07-29_19h56.17.726,Simcolourproject_2stim_asymm_v5,2020.2.10,MacIntel,60,61025ae37ef11b136ea224fe,,,,,,,,,818,-30.4375,-61.6796875,1,0,0,response5disk,,3,-3.23828125,-5.625,1,0,0,rectangle,-3.23828125,-5.625,1,0,0,-3.23828125,-5.625,1,0,0,0,108,108,140,1,,,,,,,,
,,,,,,,,,,,,,FF,,,,,,,,1.42283,,,,,,,,,,,,,,,,,,,,,,6100ed2dd8aa14dccb8d0915,61036a2de5a34362adf6236e,2021-07-29_19h56.17.726,Simcolourproject_2stim_asymm_v5,2020.2.10,MacIntel,60,61025ae37ef11b136ea224fe,,,,,,,,,3505,-70.65234375,62.03125,1,0,0,response7disk,,1,-2.375,-11.30078125,1,0,0,rectangle,-47.35546875,-88.26953125,1,0,0,-6.48046875,-0.21484375,1,0,0,0,109,109,91,1,,response5disk_3,TRUE,3,3,"[171,270,149,201,65,222,261,110,198,164,243,248,146,163,159,30,302,30,85,322]",3.600675,rectangle
,,,,,,,,,,,,,FF,,,,,,,,6.93078,,,,,,,,,,,,,,,,,,,,,,6100ed2dd8aa14dccb8d0915,61036a2de5a34362adf6236e,2021-07-29_19h56.17.726,Simcolourproject_2stim_asymm_v5,2020.2.10,MacIntel,60,61025ae37ef11b136ea224fe,,,,,,,,,560,-37.65234375,-87.45703125,1,0,0,response5disk,,3,-9.91015625,-6.57421875,1,0,0,rectangle,-9.91015625,-6.57421875,1,0,0,-9.91015625,-6.57421875,1,0,0,0,110,110,94,1,,,,,,,,
,,,,,,,,,,,,,FF,,,,,,,,0.934225,,,,,,,,,,,,,,,,,,,,,,6100ed2dd8aa14dccb8d0915,61036a2de5a34362adf6236e,2021-07-29_19h56.17.726,Simcolourproject_2stim_asymm_v5,2020.2.10,MacIntel,60,61025ae37ef11b136ea224fe,,,,,,,,,1580,-29.4921875,-74.09375,1,0,0,response5disk,,3,6.234375,-0.03515625,1,0,0,rectangle,6.234375,-0.03515625,1,0,0,6.234375,-0.03515625,1,0,0,0,111,111,133,1,,,,,,,,
,,,,,,,,,,,,,FF,,,,,,,,1.3505,,,,,,,,,,,,,,,,,,,,,,6100ed2dd8aa14dccb8d0915,61036a2de5a34362adf6236e,2021-07-29_19h56.17.726,Simcolourproject_2stim_asymm_v5,2020.2.10,MacIntel,60,61025ae37ef11b136ea224fe,,,,,,,,,4135,50.0625,37.4609375,1,0,0,response1disk,,6,3.21484375,-5.83203125,1,0,0,rectangle,3.21484375,-5.83203125,1,0,0,3.21484375,-5.83203125,1,0,0,0,112,112,43,1,,,,,,,,
,,,,,,,,,,,,,FF,,,,,,,,0.81632,,,,,,,,,,,,,,,,,,,,,,6100ed2dd8aa14dccb8d0915,61036a2de5a34362adf6236e,2021-07-29_19h56.17.726,Simcolourproject_2stim_asymm_v5,2020.2.10,MacIntel,60,61025ae37ef11b136ea224fe,,,,,,,,,2965,59.0625,43.6015625,1,0,0,response1disk,,6,12.3125,-9.46875,1,0,0,rectangle,12.3125,-9.46875,1,0,0,12.3125,-9.46875,1,0,0,0,113,113,148,1,,,,,,,,
,,,,,,,,,,,,,FF,,,,,,,,0.586725,,,,,,,,,,,,,,,,,,,,,,6100ed2dd8aa14dccb8d0915,61036a2de5a34362adf6236e,2021-07-29_19h56.17.726,Simcolourproject_2stim_asymm_v5,2020.2.10,MacIntel,60,61025ae37ef11b136ea224fe,,,,,,,,,4033,56.8984375,-71.72265625,1,0,0,response3disk,,4,33.9765625,-7.62890625,1,0,0,rectangle,33.9765625,-7.62890625,1,0,0,33.9765625,-7.62890625,1,0,0,0,114,114,159,1,,,,,,,,
,,,,,,,,,,,,,FF,,,,,,,,0.98337,,,,,,,,,,,,,,,,,,,,,,6100ed2dd8aa14dccb8d0915,61036a2de5a34362adf6236e,2021-07-29_19h56.17.726,Simcolourproject_2stim_asymm_v5,2020.2.10,MacIntel,60,61025ae37ef11b136ea224fe,,,,,,,,,4007,53.109375,35.46875,1,0,0,response1disk,,6,-2,11.1171875,1,0,0,rectangle,-2,11.1171875,1,0,0,-2,11.1171875,1,0,0,0,115,115,152,1,,,,,,,,
,,,,,,,,,,,,,FF,,,,,,,,0.66741,,,,,,,,,,,,,,,,,,,,,,6100ed2dd8aa14dccb8d0915,61036a2de5a34362adf6236e,2021-07-29_19h56.17.726,Simcolourproject_2stim_asymm_v5,2020.2.10,MacIntel,60,61025ae37ef11b136ea224fe,,,,,,,,,2325,29.875,-45.27734375,1,0,0,response3disk,,4,22.72265625,-1.09765625,1,0,0,rectangle,22.72265625,-1.09765625,1,0,0,22.72265625,-1.09765625,1,0,0,0,116,116,120,1,,,,,,,,
,,,,,,,,,,,,,FF,,,,,,,,1.199975,,,,,,,,,,,,,,,,,,,,,,6100ed2dd8aa14dccb8d0915,61036a2de5a34362adf6236e,2021-07-29_19h56.17.726,Simcolourproject_2stim_asymm_v5,2020.2.10,MacIntel,60,61025ae37ef11b136ea224fe,,,,,,,,,2560,45.08203125,83.4375,1,0,0,response1disk,,7,29.23046875,16.09765625,1,0,0,rectangle,29.23046875,16.09765625,1,0,0,29.23046875,16.09765625,1,0,0,0,117,117,30,1,,,,,,,,
,,,,,,,,,,,,,FF,,,,,,,,0.81861,,,,,,,,,,,,,,,,,,,,,,6100ed2dd8aa14dccb8d0915,61036a2de5a34362adf6236e,2021-07-29_19h56.17.726,Simcolourproject_2stim_asymm_v5,2020.2.10,MacIntel,60,61025ae37ef11b136ea224fe,,,,,,,,,2713,-33.1953125,-69.51171875,1,0,0,response5disk,,3,-0.6328125,-11.76953125,1,0,0,rectangle,-0.6328125,-11.76953125,1,0,0,-0.6328125,-11.76953125,1,0,0,0,118,118,18,1,,,,,,,,
,,,,,,,,,,,,,FF,,,,,,,,0.80212,,,,,,,,,,,,,,,,,,,,,,6100ed2dd8aa14dccb8d0915,61036a2de5a34362adf6236e,2021-07-29_19h56.17.726,Simcolourproject_2stim_asymm_v5,2020.2.10,MacIntel,60,61025ae37ef11b136ea224fe,,,,,,,,,807,-69.28125,54.359375,1,0,0,response7disk,,1,-5.83203125,8.11328125,1,0,0,rectangle,-5.83203125,8.11328125,1,0,0,-5.83203125,8.11328125,1,0,0,0,119,119,16,1,,,,,,,,
,,,,,,,,,,,,,FF,,,,,,,,0.80221,,,,,,,,,,,,,,,,,,,,,,6100ed2dd8aa14dccb8d0915,61036a2de5a34362adf6236e,2021-07-29_19h56.17.726,Simcolourproject_2stim_asymm_v5,2020.2.10,MacIntel,60,61025ae37ef11b136ea224fe,,,,,,,,,3009,66.0859375,56.80859375,1,0,0,response1disk,,6,26.05078125,1.421875,1,0,0,rectangle,26.05078125,1.421875,1,0,0,26.05078125,1.421875,1,0,0,0,120,120,27,1,,,,,,,,
,,,,,,,,,,,,,FF,,,,,,,,0.852435,,,,,,,,,,,,,,,,,,,,,,6100ed2dd8aa14dccb8d0915,61036a2de5a34362adf6236e,2021-07-29_19h56.17.726,Simcolourproject_2stim_asymm_v5,2020.2.10,MacIntel,60,61025ae37ef11b136ea224fe,,,,,,,,,1286,-54.8515625,-87.6171875,1,0,0,response5disk,,3,-8.66796875,2.94921875,1,0,0,rectangle,-8.66796875,2.94921875,1,0,0,-8.66796875,2.94921875,1,0,0,0,121,121,147,1,,,,,,,,
,,,,,,,,,,,,,FF,,,,,,,,0.750515,,,,,,,,,,,,,,,,,,,,,,6100ed2dd8aa14dccb8d0915,61036a2de5a34362adf6236e,2021-07-29_19h56.17.726,Simcolourproject_2stim_asymm_v5,2020.2.10,MacIntel,60,61025ae37ef11b136ea224fe,,,,,,,,,2959,76.625,71.43359375,1,0,0,response1disk,,6,30.09765625,-3.0703125,1,0,0,rectangle,30.09765625,-3.0703125,1,0,0,30.09765625,-3.0703125,1,0,0,0,122,122,126,1,,,,,,,,
,,,,,,,,,,,,,FF,,,,,,,,0.41734,,,,,,,,,,,,,,,,,,,,,,6100ed2dd8aa14dccb8d0915,61036a2de5a34362adf6236e,2021-07-29_19h56.17.726,Simcolourproject_2stim_asymm_v5,2020.2.10,MacIntel,60,61025ae37ef11b136ea224fe,,,,,,,,,937,37.3125,37.4140625,1,0,0,response1disk,,7,-6.11328125,13.4296875,1,0,0,rectangle,-6.11328125,13.4296875,1,0,0,-6.11328125,13.4296875,1,0,0,0,123,123,25,1,,,,,,,,
,,,,,,,,,,,,,FF,,,,,,,,0.43304,,,,,,,,,,,,,,,,,,,,,,6100ed2dd8aa14dccb8d0915,61036a2de5a34362adf6236e,2021-07-29_19h56.17.726,Simcolourproject_2stim_asymm_v5,2020.2.10,MacIntel,60,61025ae37ef11b136ea224fe,,,,,,,,,4129,47.1484375,59.39453125,1,0,0,response1disk,,7,12.7265625,1.35546875,1,0,0,rectangle,12.7265625,1.35546875,1,0,0,12.7265625,1.35546875,1,0,0,0,124,124,86,1,,,,,,,,
,,,,,,,,,,,,,FF,,,,,,,,0.751305,,,,,,,,,,,,,,,,,,,,,,6100ed2dd8aa14dccb8d0915,61036a2de5a34362adf6236e,2021-07-29_19h56.17.726,Simcolourproject_2stim_asymm_v5,2020.2.10,MacIntel,60,61025ae37ef11b136ea224fe,,,,,,,,,1581,62,-54.171875,1,0,0,response3disk,,5,24.8125,-3.77734375,1,0,0,rectangle,24.8125,-3.77734375,1,0,0,24.8125,-3.77734375,1,0,0,0,125,125,154,1,,,,,,,,
,,,,,,,,,,,,,FF,,,,,,,,0.61813,,,,,,,,,,,,,,,,,,,,,,6100ed2dd8aa14dccb8d0915,61036a2de5a34362adf6236e,2021-07-29_19h56.17.726,Simcolourproject_2stim_asymm_v5,2020.2.10,MacIntel,60,61025ae37ef11b136ea224fe,,,,,,,,,3377,-20.03515625,-63.9609375,1,0,0,response5disk,,3,-6.640625,-15.88671875,1,0,0,rectangle,-6.640625,-15.88671875,1,0,0,-6.640625,-15.88671875,1,0,0,0,126,126,46,1,,,,,,,,
,,,,,,,,,,,,,FF,,,,,,,,0.649975,,,,,,,,,,,,,,,,,,,,,,6100ed2dd8aa14dccb8d0915,61036a2de5a34362adf6236e,2021-07-29_19h56.17.726,Simcolourproject_2stim_asymm_v5,2020.2.10,MacIntel,60,61025ae37ef11b136ea224fe,,,,,,,,,1815,-52.40234375,74.73828125,1,0,0,response7disk,,0,-10.80078125,11.6796875,1,0,0,rectangle,-10.80078125,11.6796875,1,0,0,-10.80078125,11.6796875,1,0,0,0,127,127,19,1,,,,,,,,
,,,,,,,,,,,,,FF,,,,,,,,2.934015,,,,,,,,,,,,,,,,,,,,,,6100ed2dd8aa14dccb8d0915,61036a2de5a34362adf6236e,2021-07-29_19h56.17.726,Simcolourproject_2stim_asymm_v5,2020.2.10,MacIntel,60,61025ae37ef11b136ea224fe,,,,,,,,,153,21.69921875,-38.09765625,1,0,0,response3disk,,4,7.1484375,0.640625,1,0,0,rectangle,7.1484375,0.640625,1,0,0,7.1484375,0.640625,1,0,0,0,128,128,44,1,,,,,,,,
,,,,,,,,,,,,,FF,,,,,,,,1.50067,,,,,,,,,,,,,,,,,,,,,,6100ed2dd8aa14dccb8d0915,61036a2de5a34362adf6236e,2021-07-29_19h56.17.726,Simcolourproject_2stim_asymm_v5,2020.2.10,MacIntel,60,61025ae37ef11b136ea224fe,,,,,,,,,391,64.83203125,-17.40625,1,0,0,response3disk,,5,30.1015625,-5.41796875,1,0,0,rectangle,30.1015625,-5.41796875,1,0,0,30.1015625,-5.41796875,1,0,0,0,129,129,123,1,,,,,,,,
,,,,,,,,,,,,,FF,,,,,,,,0.81735,,,,,,,,,,,,,,,,,,,,,,6100ed2dd8aa14dccb8d0915,61036a2de5a34362adf6236e,2021-07-29_19h56.17.726,Simcolourproject_2stim_asymm_v5,2020.2.10,MacIntel,60,61025ae37ef11b136ea224fe,,,,,,,,,1034,-36.05859375,-86.18359375,1,0,0,response5disk,,3,1.83984375,4.67578125,1,0,0,rectangle,1.83984375,4.67578125,1,0,0,1.83984375,4.67578125,1,0,0,0,130,130,11,1,,,,,,,,
,,,,,,,,,,,,,FF,,,,,,,,0.48424,,,,,,,,,,,,,,,,,,,,,,6100ed2dd8aa14dccb8d0915,61036a2de5a34362adf6236e,2021-07-29_19h56.17.726,Simcolourproject_2stim_asymm_v5,2020.2.10,MacIntel,60,61025ae37ef11b136ea224fe,,,,,,,,,3161,58.33203125,-44.84375,1,0,0,response3disk,,5,18.03515625,0.73046875,1,0,0,rectangle,18.03515625,0.73046875,1,0,0,18.03515625,0.73046875,1,0,0,0,131,131,134,1,,,,,,,,
,,,,,,,,,,,,,FF,,,,,,,,0.79946,,,,,,,,,,,,,,,,,,,,,,6100ed2dd8aa14dccb8d0915,61036a2de5a34362adf6236e,2021-07-29_19h56.17.726,Simcolourproject_2stim_asymm_v5,2020.2.10,MacIntel,60,61025ae37ef11b136ea224fe,,,,,,,,,279,-48.359375,-45.98046875,1,0,0,response5disk,,2,7.11328125,-13.07421875,1,0,0,rectangle,7.11328125,-13.07421875,1,0,0,7.11328125,-13.07421875,1,0,0,0,132,132,144,1,,,,,,,,
,,,,,,,,,,,,,FF,,,,,,,,0.770295,,,,,,,,,,,,,,,,,,,,,,6100ed2dd8aa14dccb8d0915,61036a2de5a34362adf6236e,2021-07-29_19h56.17.726,Simcolourproject_2stim_asymm_v5,2020.2.10,MacIntel,60,61025ae37ef11b136ea224fe,,,,,,,,,3553,-87.1328125,34.90234375,1,0,0,response7disk,,1,-3.5,8.91796875,1,0,0,rectangle,-3.5,8.91796875,1,0,0,-3.5,8.91796875,1,0,0,0,133,133,42,1,,,,,,,,
,,,,,,,,,,,,,FF,,,,,,,,0.83545,,,,,,,,,,,,,,,,,,,,,,6100ed2dd8aa14dccb8d0915,61036a2de5a34362adf6236e,2021-07-29_19h56.17.726,Simcolourproject_2stim_asymm_v5,2020.2.10,MacIntel,60,61025ae37ef11b136ea224fe,,,,,,,,,1833,-27.25,-92.73046875,1,0,0,response5disk,,3,-12.80078125,-3.36328125,1,0,0,rectangle,-12.80078125,-3.36328125,1,0,0,-12.80078125,-3.36328125,1,0,0,0,134,134,36,1,,,,,,,,
,,,,,,,,,,,,,FF,,,,,,,,0.784725,,,,,,,,,,,,,,,,,,,,,,6100ed2dd8aa14dccb8d0915,61036a2de5a34362adf6236e,2021-07-29_19h56.17.726,Simcolourproject_2stim_asymm_v5,2020.2.10,MacIntel,60,61025ae37ef11b136ea224fe,,,,,,,,,2675,40.9140625,-80.12890625,1,0,0,response3disk,,4,12.6953125,-0.5859375,1,0,0,rectangle,12.6953125,-0.5859375,1,0,0,12.6953125,-0.5859375,1,0,0,0,135,135,54,1,,,,,,,,
,,,,,,,,,,,,,FF,,,,,,,,0.633555,,,,,,,,,,,,,,,,,,,,,,6100ed2dd8aa14dccb8d0915,61036a2de5a34362adf6236e,2021-07-29_19h56.17.726,Simcolourproject_2stim_asymm_v5,2020.2.10,MacIntel,60,61025ae37ef11b136ea224fe,,,,,,,,,165,42.16015625,-97.44140625,1,0,0,response3disk,,4,20.046875,-8.36328125,1,0,0,rectangle,20.046875,-8.36328125,1,0,0,20.046875,-8.36328125,1,0,0,0,136,136,135,1,,,,,,,,
,,,,,,,,,,,,,FF,,,,,,,,0.73869,,,,,,,,,,,,,,,,,,,,,,6100ed2dd8aa14dccb8d0915,61036a2de5a34362adf6236e,2021-07-29_19h56.17.726,Simcolourproject_2stim_asymm_v5,2020.2.10,MacIntel,60,61025ae37ef11b136ea224fe,,,,,,,,,103,59.015625,-67.80859375,1,0,0,response3disk,,4,22.01171875,8.46875,1,0,0,rectangle,22.01171875,8.46875,1,0,0,22.01171875,8.46875,1,0,0,0,137,137,121,1,,,,,,,,
,,,,,,,,,,,,,FF,,,,,,,,0.596265,,,,,,,,,,,,,,,,,,,,,,6100ed2dd8aa14dccb8d0915,61036a2de5a34362adf6236e,2021-07-29_19h56.17.726,Simcolourproject_2stim_asymm_v5,2020.2.10,MacIntel,60,61025ae37ef11b136ea224fe,,,,,,,,,4096,40.48828125,-39.08984375,1,0,0,response3disk,,5,0.33203125,9.94921875,1,0,0,rectangle,0.33203125,9.94921875,1,0,0,0.33203125,9.94921875,1,0,0,0,138,138,80,1,,,,,,,,
,,,,,,,,,,,,,FF,,,,,,,,0.469075,,,,,,,,,,,,,,,,,,,,,,6100ed2dd8aa14dccb8d0915,61036a2de5a34362adf6236e,2021-07-29_19h56.17.726,Simcolourproject_2stim_asymm_v5,2020.2.10,MacIntel,60,61025ae37ef11b136ea224fe,,,,,,,,,2790,58.9765625,-96.3203125,1,0,0,response3disk,,4,-0.3046875,-17.84765625,1,0,0,rectangle,-0.3046875,-17.84765625,1,0,0,-0.3046875,-17.84765625,1,0,0,0,139,139,84,1,,,,,,,,
,,,,,,,,,,,,,FF,,,,,,,,1.282395,,,,,,,,,,,,,,,,,,,,,,6100ed2dd8aa14dccb8d0915,61036a2de5a34362adf6236e,2021-07-29_19h56.17.726,Simcolourproject_2stim_asymm_v5,2020.2.10,MacIntel,60,61025ae37ef11b136ea224fe,,,,,,,,,1100,96.03515625,-69.9453125,1,0,0,response3disk,,5,2.078125,-12.4765625,1,0,0,rectangle,2.078125,-12.4765625,1,0,0,2.078125,-12.4765625,1,0,0,0,140,140,96,1,,,,,,,,
,,,,,,,,,,,,,FF,,,,,,,,0.766945,,,,,,,,,,,,,,,,,,,,,,6100ed2dd8aa14dccb8d0915,61036a2de5a34362adf6236e,2021-07-29_19h56.17.726,Simcolourproject_2stim_asymm_v5,2020.2.10,MacIntel,60,61025ae37ef11b136ea224fe,,,,,,,,,2310,54.34765625,25.0390625,1,0,0,response1disk,,6,28.85546875,-7.78515625,1,0,0,rectangle,28.85546875,-7.78515625,1,0,0,28.85546875,-7.78515625,1,0,0,0,141,141,83,1,,,,,,,,
,,,,,,,,,,,,,FF,,,,,,,,0.451475,,,,,,,,,,,,,,,,,,,,,,6100ed2dd8aa14dccb8d0915,61036a2de5a34362adf6236e,2021-07-29_19h56.17.726,Simcolourproject_2stim_asymm_v5,2020.2.10,MacIntel,60,61025ae37ef11b136ea224fe,,,,,,,,,497,70.17578125,30.66015625,1,0,0,response1disk,,6,16.08203125,-11.60546875,1,0,0,rectangle,16.08203125,-11.60546875,1,0,0,16.08203125,-11.60546875,1,0,0,0,142,142,149,1,,,,,,,,
,,,,,,,,,,,,,FF,,,,,,,,1.11744,,,,,,,,,,,,,,,,,,,,,,6100ed2dd8aa14dccb8d0915,61036a2de5a34362adf6236e,2021-07-29_19h56.17.726,Simcolourproject_2stim_asymm_v5,2020.2.10,MacIntel,60,61025ae37ef11b136ea224fe,,,,,,,,,3603,67.15234375,32.12890625,1,0,0,response1disk,,6,30.0625,-8.48828125,1,0,0,rectangle,30.0625,-8.48828125,1,0,0,30.0625,-8.48828125,1,0,0,0,143,143,117,1,,,,,,,,
,,,,,,,,,,,,,FF,,,,,,,,1.03563,,,,,,,,,,,,,,,,,,,,,,6100ed2dd8aa14dccb8d0915,61036a2de5a34362adf6236e,2021-07-29_19h56.17.726,Simcolourproject_2stim_asymm_v5,2020.2.10,MacIntel,60,61025ae37ef11b136ea224fe,,,,,,,,,3688,39.3359375,74.8515625,1,0,0,response1disk,,7,11.08203125,10.328125,1,0,0,rectangle,11.08203125,10.328125,1,0,0,11.08203125,10.328125,1,0,0,0,144,144,107,1,,,,,,,,
,,,,,,,,,,,,,FF,,,,,,,,0.610825,,,,,,,,,,,,,,,,,,,,,,6100ed2dd8aa14dccb8d0915,61036a2de5a34362adf6236e,2021-07-29_19h56.17.726,Simcolourproject_2stim_asymm_v5,2020.2.10,MacIntel,60,61025ae37ef11b136ea224fe,,,,,,,,,2847,-29.13671875,-51.34375,1,0,0,response5disk,,3,7.171875,-14.15234375,1,0,0,rectangle,-88.6328125,-52.1015625,1,0,0,-10.28515625,-9.28125,1,0,0,0,145,145,9,1,,response5disk_3,TRUE,2,2,"[171,270,149,201,65,222,261,110,198,164,243,248,146,163,159,30,302,30,85,322]",2.13129,rectangle
,,,,,,,,,,,,,FF,,,,,,,,1.317585,,,,,,,,,,,,,,,,,,,,,,6100ed2dd8aa14dccb8d0915,61036a2de5a34362adf6236e,2021-07-29_19h56.17.726,Simcolourproject_2stim_asymm_v5,2020.2.10,MacIntel,60,61025ae37ef11b136ea224fe,,,,,,,,,2147,51.8046875,66.640625,1,0,0,response1disk,,7,29.98828125,10.45703125,1,0,0,rectangle,29.98828125,10.45703125,1,0,0,29.98828125,10.45703125,1,0,0,0,146,146,37,1,,,,,,,,
,,,,,,,,,,,,,FF,,,,,,,,0.884145,,,,,,,,,,,,,,,,,,,,,,6100ed2dd8aa14dccb8d0915,61036a2de5a34362adf6236e,2021-07-29_19h56.17.726,Simcolourproject_2stim_asymm_v5,2020.2.10,MacIntel,60,61025ae37ef11b136ea224fe,,,,,,,,,2347,56.5078125,-42.6953125,1,0,0,response3disk,,5,6.8046875,-3.8359375,1,0,0,rectangle,6.8046875,-3.8359375,1,0,0,6.8046875,-3.8359375,1,0,0,0,147,147,129,1,,,,,,,,
,,,,,,,,,,,,,FF,,,,,,,,0.805095,,,,,,,,,,,,,,,,,,,,,,6100ed2dd8aa14dccb8d0915,61036a2de5a34362adf6236e,2021-07-29_19h56.17.726,Simcolourproject_2stim_asymm_v5,2020.2.10,MacIntel,60,61025ae37ef11b136ea224fe,,,,,,,,,1388,-53.37109375,56.08984375,1,0,0,response7disk,,0,-14.03125,8.4375,1,0,0,rectangle,-45.96875,81.9140625,1,0,0,-9.3984375,9.42578125,1,0,0,0,148,148,118,1,,response7disk_3,TRUE,0,0,"[171,270,149,201,65,222,261,110,198,164,243,248,146,163,159,30,302,30,85,322]",1.41636,rectangle
,,,,,,,,,,,,,FF,,,,,,,,2.416775,,,,,,,,,,,,,,,,,,,,,,6100ed2dd8aa14dccb8d0915,61036a2de5a34362adf6236e,2021-07-29_19h56.17.726,Simcolourproject_2stim_asymm_v5,2020.2.10,MacIntel,60,61025ae37ef11b136ea224fe,,,,,,,,,3706,-35.484375,48.04296875,1,0,0,response7disk,,0,-17.98828125,-13.09765625,1,0,0,rectangle,-17.98828125,-13.09765625,1,0,0,-17.98828125,-13.09765625,1,0,0,0,149,149,33,1,,,,,,,,
,,,,,,,,,,,,,FF,,,,,,,,1.166565,,,,,,,,,,,,,,,,,,,,,,6100ed2dd8aa14dccb8d0915,61036a2de5a34362adf6236e,2021-07-29_19h56.17.726,Simcolourproject_2stim_asymm_v5,2020.2.10,MacIntel,60,61025ae37ef11b136ea224fe,,,,,,,,,271,-60.87109375,-43.77734375,1,0,0,response5disk,,2,-11.953125,-13.49609375,1,0,0,rectangle,-11.953125,-13.49609375,1,0,0,-11.953125,-13.49609375,1,0,0,0,150,150,115,1,,,,,,,,
,,,,,,,,,,,,,FF,,,,,,,,0.650235,,,,,,,,,,,,,,,,,,,,,,6100ed2dd8aa14dccb8d0915,61036a2de5a34362adf6236e,2021-07-29_19h56.17.726,Simcolourproject_2stim_asymm_v5,2020.2.10,MacIntel,60,61025ae37ef11b136ea224fe,,,,,,,,,1315,55.97265625,-68.07421875,1,0,0,response3disk,,4,15.43359375,-2.72265625,1,0,0,rectangle,15.43359375,-2.72265625,1,0,0,15.43359375,-2.72265625,1,0,0,0,151,151,68,1,,,,,,,,
,,,,,,,,,,,,,FF,,,,,,,,1.816885,,,,,,,,,,,,,,,,,,,,,,6100ed2dd8aa14dccb8d0915,61036a2de5a34362adf6236e,2021-07-29_19h56.17.726,Simcolourproject_2stim_asymm_v5,2020.2.10,MacIntel,60,61025ae37ef11b136ea224fe,,,,,,,,,3623,69.3203125,29.9296875,1,0,0,response1disk,,6,33.07421875,0.84765625,1,0,0,rectangle,33.07421875,0.84765625,1,0,0,33.07421875,0.84765625,1,0,0,0,152,152,7,1,,,,,,,,
,,,,,,,,,,,,,FF,,,,,,,,0.48481,,,,,,,,,,,,,,,,,,,,,,6100ed2dd8aa14dccb8d0915,61036a2de5a34362adf6236e,2021-07-29_19h56.17.726,Simcolourproject_2stim_asymm_v5,2020.2.10,MacIntel,60,61025ae37ef11b136ea224fe,,,,,,,,,2845,61.921875,19.00390625,1,0,0,response1disk,,6,11.59765625,17.5703125,1,0,0,rectangle,11.59765625,17.5703125,1,0,0,11.59765625,17.5703125,1,0,0,0,153,153,57,1,,,,,,,,
,,,,,,,,,,,,,FF,,,,,,,,0.500575,,,,,,,,,,,,,,,,,,,,,,6100ed2dd8aa14dccb8d0915,61036a2de5a34362adf6236e,2021-07-29_19h56.17.726,Simcolourproject_2stim_asymm_v5,2020.2.10,MacIntel,60,61025ae37ef11b136ea224fe,,,,,,,,,2874,43.29296875,-44.75,1,0,0,response3disk,,4,29.375,-9.33984375,1,0,0,rectangle,29.375,-9.33984375,1,0,0,29.375,-9.33984375,1,0,0,0,154,154,145,1,,,,,,,,
,,,,,,,,,,,,,FF,,,,,,,,0.667595,,,,,,,,,,,,,,,,,,,,,,6100ed2dd8aa14dccb8d0915,61036a2de5a34362adf6236e,2021-07-29_19h56.17.726,Simcolourproject_2stim_asymm_v5,2020.2.10,MacIntel,60,61025ae37ef11b136ea224fe,,,,,,,,,3180,69.515625,35.8515625,1,0,0,response1disk,,6,33.1171875,13.08984375,1,0,0,rectangle,33.1171875,13.08984375,1,0,0,33.1171875,13.08984375,1,0,0,0,155,155,111,1,,,,,,,,
,,,,,,,,,,,,,FF,,,,,,,,0.55014,,,,,,,,,,,,,,,,,,,,,,6100ed2dd8aa14dccb8d0915,61036a2de5a34362adf6236e,2021-07-29_19h56.17.726,Simcolourproject_2stim_asymm_v5,2020.2.10,MacIntel,60,61025ae37ef11b136ea224fe,,,,,,,,,3483,60.23046875,29.95703125,1,0,0,response1disk,,6,24.58984375,4.46875,1,0,0,rectangle,24.58984375,4.46875,1,0,0,24.58984375,4.46875,1,0,0,0,156,156,104,1,,,,,,,,
,,,,,,,,,,,,,FF,,,,,,,,0.40006,,,,,,,,,,,,,,,,,,,,,,6100ed2dd8aa14dccb8d0915,61036a2de5a34362adf6236e,2021-07-29_19h56.17.726,Simcolourproject_2stim_asymm_v5,2020.2.10,MacIntel,60,61025ae37ef11b136ea224fe,,,,,,,,,1187,64.87890625,26.44140625,1,0,0,response1disk,,6,23.890625,16.23828125,1,0,0,rectangle,23.890625,16.23828125,1,0,0,23.890625,16.23828125,1,0,0,0,157,157,87,1,,,,,,,,
,,,,,,,,,,,,,FF,,,,,,,,0.55823,,,,,,,,,,,,,,,,,,,,,,6100ed2dd8aa14dccb8d0915,61036a2de5a34362adf6236e,2021-07-29_19h56.17.726,Simcolourproject_2stim_asymm_v5,2020.2.10,MacIntel,60,61025ae37ef11b136ea224fe,,,,,,,,,1629,83.1953125,26.984375,1,0,0,response1disk,,6,32.7109375,9.0859375,1,0,0,rectangle,33.36328125,114.5859375,1,0,0,2.6015625,4.90625,1,0,0,0,158,158,138,1,,response1disk_3,TRUE,7,7,"[171,270,149,201,65,222,261,110,198,164,243,248,146,163,159,30,302,30,85,322]",2.899795,rectangle
,,,,,,,,,,,,,FF,,,,,,,,3.349215,,,,,,,,,,,,,,,,,,,,,,6100ed2dd8aa14dccb8d0915,61036a2de5a34362adf6236e,2021-07-29_19h56.17.726,Simcolourproject_2stim_asymm_v5,2020.2.10,MacIntel,60,61025ae37ef11b136ea224fe,,,,,,,,,2597,21.4453125,44.46875,1,0,0,response1disk,,7,1.0703125,1.23046875,1,0,0,rectangle,1.0703125,1.23046875,1,0,0,1.0703125,1.23046875,1,0,0,0,159,159,5,1,,,,,,,,
,,,,,,,,,,,,,FF,,,,,,,,0.456145,,,,,,,,,,,,,,,,,,,,,,6100ed2dd8aa14dccb8d0915,61036a2de5a34362adf6236e,2021-07-29_19h56.17.726,Simcolourproject_2stim_asymm_v5,2020.2.10,MacIntel,60,61025ae37ef11b136ea224fe,,,,,,,,,1730,57.00390625,49.94140625,1,0,0,response1disk,,6,14.04296875,8.83984375,1,0,0,rectangle,14.04296875,8.83984375,1,0,0,14.04296875,8.83984375,1,0,0,1,0,160,61,1,,,,,,,,
,,,,,,,,,,,,,FF,,,,,,,,0.75522,,,,,,,,,,,,,,,,,,,,,,6100ed2dd8aa14dccb8d0915,61036a2de5a34362adf6236e,2021-07-29_19h56.17.726,Simcolourproject_2stim_asymm_v5,2020.2.10,MacIntel,60,61025ae37ef11b136ea224fe,,,,,,,,,261,-53.0390625,-34.3203125,1,0,0,response5disk,,2,10.7578125,-5.15625,1,0,0,rectangle,10.7578125,-5.15625,1,0,0,10.7578125,-5.15625,1,0,0,1,1,161,139,1,,,,,,,,
,,,,,,,,,,,,,FF,,,,,,,,0.43461,,,,,,,,,,,,,,,,,,,,,,6100ed2dd8aa14dccb8d0915,61036a2de5a34362adf6236e,2021-07-29_19h56.17.726,Simcolourproject_2stim_asymm_v5,2020.2.10,MacIntel,60,61025ae37ef11b136ea224fe,,,,,,,,,1701,40.8203125,25.53515625,1,0,0,response1disk,,6,7.78515625,1.0859375,1,0,0,rectangle,36.828125,-71.23828125,1,0,0,34.19140625,-4.71875,1,0,0,1,2,162,91,1,,response3disk_3,TRUE,4,4,"[171,270,149,201,65,222,261,110,198,164,243,248,146,163,159,30,302,30,85,322]",1.34974,rectangle
,,,,,,,,,,,,,FF,,,,,,,,1.365475,,,,,,,,,,,,,,,,,,,,,,6100ed2dd8aa14dccb8d0915,61036a2de5a34362adf6236e,2021-07-29_19h56.17.726,Simcolourproject_2stim_asymm_v5,2020.2.10,MacIntel,60,61025ae37ef11b136ea224fe,,,,,,,,,111,88.28515625,55.82421875,1,0,0,response1disk,,6,-2.1484375,-3.78125,1,0,0,rectangle,70.28125,-33.96875,1,0,0,15.65625,-5.06640625,1,0,0,1,3,163,80,1,,response3disk_3,TRUE,5,5,"[171,270,149,201,65,222,261,110,198,164,243,248,146,163,159,30,302,30,85,322]",1.387885,rectangle
,,,,,,,,,,,,,FF,,,,,,,,1.353345,,,,,,,,,,,,,,,,,,,,,,6100ed2dd8aa14dccb8d0915,61036a2de5a34362adf6236e,2021-07-29_19h56.17.726,Simcolourproject_2stim_asymm_v5,2020.2.10,MacIntel,60,61025ae37ef11b136ea224fe,,,,,,,,,2737,72.25,-30.546875,1,0,0,response3disk,,5,24.92578125,-10.6484375,1,0,0,rectangle,24.92578125,-10.6484375,1,0,0,24.92578125,-10.6484375,1,0,0,1,4,164,36,1,,,,,,,,
,,,,,,,,,,,,,FF,,,,,,,,0.96712,,,,,,,,,,,,,,,,,,,,,,6100ed2dd8aa14dccb8d0915,61036a2de5a34362adf6236e,2021-07-29_19h56.17.726,Simcolourproject_2stim_asymm_v5,2020.2.10,MacIntel,60,61025ae37ef11b136ea224fe,,,,,,,,,1390,-63.984375,-27.02734375,1,0,0,response5disk,,2,-8.40625,-1.40625,1,0,0,rectangle,-8.40625,-1.40625,1,0,0,-8.40625,-1.40625,1,0,0,1,5,165,150,1,,,,,,,,
,,,,,,,,,,,,,FF,,,,,,,,0.49986,,,,,,,,,,,,,,,,,,,,,,6100ed2dd8aa14dccb8d0915,61036a2de5a34362adf6236e,2021-07-29_19h56.17.726,Simcolourproject_2stim_asymm_v5,2020.2.10,MacIntel,60,61025ae37ef11b136ea224fe,,,,,,,,,337,43.01953125,-61.38671875,1,0,0,response3disk,,4,33.8203125,13.46875,1,0,0,rectangle,33.8203125,13.46875,1,0,0,33.8203125,13.46875,1,0,0,1,6,166,55,1,,,,,,,,
,,,,,,,,,,,,,FF,,,,,,,,1.033845,,,,,,,,,,,,,,,,,,,,,,6100ed2dd8aa14dccb8d0915,61036a2de5a34362adf6236e,2021-07-29_19h56.17.726,Simcolourproject_2stim_asymm_v5,2020.2.10,MacIntel,60,61025ae37ef11b136ea224fe,,,,,,,,,1032,69.1015625,-41.9296875,1,0,0,response3disk,,5,21.0234375,-7.703125,1,0,0,rectangle,21.0234375,-7.703125,1,0,0,21.0234375,-7.703125,1,0,0,1,7,167,119,1,,,,,,,,
,,,,,,,,,,,,,FF,,,,,,,,0.8001,,,,,,,,,,,,,,,,,,,,,,6100ed2dd8aa14dccb8d0915,61036a2de5a34362adf6236e,2021-07-29_19h56.17.726,Simcolourproject_2stim_asymm_v5,2020.2.10,MacIntel,60,61025ae37ef11b136ea224fe,,,,,,,,,1084,66.734375,-32.140625,1,0,0,response3disk,,5,17.60546875,-7.640625,1,0,0,rectangle,17.60546875,-7.640625,1,0,0,17.60546875,-7.640625,1,0,0,1,8,168,72,1,,,,,,,,
,,,,,,,,,,,,,FF,,,,,,,,1.18435,,,,,,,,,,,,,,,,,,,,,,6100ed2dd8aa14dccb8d0915,61036a2de5a34362adf6236e,2021-07-29_19h56.17.726,Simcolourproject_2stim_asymm_v5,2020.2.10,MacIntel,60,61025ae37ef11b136ea224fe,,,,,,,,,3717,56.69140625,56.29296875,1,0,0,response1disk,,6,26.30078125,0.19921875,1,0,0,rectangle,26.30078125,0.19921875,1,0,0,26.30078125,0.19921875,1,0,0,1,9,169,92,1,,,,,,,,
,,,,,,,,,,,,,FF,,,,,,,,1.183155,,,,,,,,,,,,,,,,,,,,,,6100ed2dd8aa14dccb8d0915,61036a2de5a34362adf6236e,2021-07-29_19h56.17.726,Simcolourproject_2stim_asymm_v5,2020.2.10,MacIntel,60,61025ae37ef11b136ea224fe,,,,,,,,,3192,36.2734375,-60.98828125,1,0,0,response3disk,,4,25.21875,-13.73046875,1,0,0,rectangle,44.54296875,75.19921875,1,0,0,10.62890625,11.03125,1,0,0,1,10,170,145,1,,response1disk_3,TRUE,7,7,"[171,270,149,201,65,222,261,110,198,164,243,248,146,163,159,30,302,30,85,322]",1.584,rectangle
,,,,,,,,,,,,,FF,,,,,,,,2.62379,,,,,,,,,,,,,,,,,,,,,,6100ed2dd8aa14dccb8d0915,61036a2de5a34362adf6236e,2021-07-29_19h56.17.726,Simcolourproject_2stim_asymm_v5,2020.2.10,MacIntel,60,61025ae37ef11b136ea224fe,,,,,,,,,1052,-48.8671875,-35.07421875,1,0,0,response5disk,,2,-11.65625,-15.8125,1,0,0,rectangle,-11.65625,-15.8125,1,0,0,-11.65625,-15.8125,1,0,0,1,11,171,99,1,,,,,,,,
,,,,,,,,,,,,,FF,,,,,,,,0.735285,,,,,,,,,,,,,,,,,,,,,,6100ed2dd8aa14dccb8d0915,61036a2de5a34362adf6236e,2021-07-29_19h56.17.726,Simcolourproject_2stim_asymm_v5,2020.2.10,MacIntel,60,61025ae37ef11b136ea224fe,,,,,,,,,580,43.8515625,48.8984375,1,0,0,response1disk,,7,4.96875,1.703125,1,0,0,rectangle,4.96875,1.703125,1,0,0,4.96875,1.703125,1,0,0,1,12,172,15,1,,,,,,,,
,,,,,,,,,,,,,FF,,,,,,,,0.75708,,,,,,,,,,,,,,,,,,,,,,6100ed2dd8aa14dccb8d0915,61036a2de5a34362adf6236e,2021-07-29_19h56.17.726,Simcolourproject_2stim_asymm_v5,2020.2.10,MacIntel,60,61025ae37ef11b136ea224fe,,,,,,,,,3434,-51.10546875,-22.8515625,1,0,0,response5disk,,2,-7.34765625,-17.16796875,1,0,0,rectangle,-7.34765625,-17.16796875,1,0,0,-7.34765625,-17.16796875,1,0,0,1,13,173,156,1,,,,,,,,
,,,,,,,,,,,,,FF,,,,,,,,1.06805,,,,,,,,,,,,,,,,,,,,,,6100ed2dd8aa14dccb8d0915,61036a2de5a34362adf6236e,2021-07-29_19h56.17.726,Simcolourproject_2stim_asymm_v5,2020.2.10,MacIntel,60,61025ae37ef11b136ea224fe,,,,,,,,,648,-80.35546875,-53.43359375,1,0,0,response5disk,,2,-5.34765625,-2.53515625,1,0,0,rectangle,-5.34765625,-2.53515625,1,0,0,-5.34765625,-2.53515625,1,0,0,1,14,174,147,1,,,,,,,,
,,,,,,,,,,,,,FF,,,,,,,,0.806485,,,,,,,,,,,,,,,,,,,,,,6100ed2dd8aa14dccb8d0915,61036a2de5a34362adf6236e,2021-07-29_19h56.17.726,Simcolourproject_2stim_asymm_v5,2020.2.10,MacIntel,60,61025ae37ef11b136ea224fe,,,,,,,,,3111,41.4453125,-58.71875,1,0,0,response3disk,,4,1.32421875,-11.58203125,1,0,0,rectangle,1.32421875,-11.58203125,1,0,0,1.32421875,-11.58203125,1,0,0,1,15,175,49,1,,,,,,,,
,,,,,,,,,,,,,FF,,,,,,,,0.71893,,,,,,,,,,,,,,,,,,,,,,6100ed2dd8aa14dccb8d0915,61036a2de5a34362adf6236e,2021-07-29_19h56.17.726,Simcolourproject_2stim_asymm_v5,2020.2.10,MacIntel,60,61025ae37ef11b136ea224fe,,,,,,,,,1377,-79.08984375,-46.109375,1,0,0,response5disk,,2,-2.38671875,-4.328125,1,0,0,rectangle,-2.38671875,-4.328125,1,0,0,-2.38671875,-4.328125,1,0,0,1,16,176,128,1,,,,,,,,
,,,,,,,,,,,,,FF,,,,,,,,0.849865,,,,,,,,,,,,,,,,,,,,,,6100ed2dd8aa14dccb8d0915,61036a2de5a34362adf6236e,2021-07-29_19h56.17.726,Simcolourproject_2stim_asymm_v5,2020.2.10,MacIntel,60,61025ae37ef11b136ea224fe,,,,,,,,,2828,-53.109375,-45.1953125,1,0,0,response5disk,,2,-0.2109375,-14.63671875,1,0,0,rectangle,-0.2109375,-14.63671875,1,0,0,-0.2109375,-14.63671875,1,0,0,1,17,177,134,1,,,,,,,,
,,,,,,,,,,,,,FF,,,,,,,,1.55148,,,,,,,,,,,,,,,,,,,,,,6100ed2dd8aa14dccb8d0915,61036a2de5a34362adf6236e,2021-07-29_19h56.17.726,Simcolourproject_2stim_asymm_v5,2020.2.10,MacIntel,60,61025ae37ef11b136ea224fe,,,,,,,,,21,-44.33984375,-86.32421875,1,0,0,response5disk,,3,-2.52734375,-6.42578125,1,0,0,rectangle,-2.52734375,-6.42578125,1,0,0,-2.52734375,-6.42578125,1,0,0,1,18,178,111,1,,,,,,,,
,,,,,,,,,,,,,FF,,,,,,,,1.450385,,,,,,,,,,,,,,,,,,,,,,6100ed2dd8aa14dccb8d0915,61036a2de5a34362adf6236e,2021-07-29_19h56.17.726,Simcolourproject_2stim_asymm_v5,2020.2.10,MacIntel,60,61025ae37ef11b136ea224fe,,,,,,,,,1442,36.88671875,-59.28125,1,0,0,response3disk,,4,12.5,5.34765625,1,0,0,rectangle,12.5,5.34765625,1,0,0,12.5,5.34765625,1,0,0,1,19,179,108,1,,,,,,,,
,,,,,,,,,,,,,FF,,,,,,,,0.900695,,,,,,,,,,,,,,,,,,,,,,6100ed2dd8aa14dccb8d0915,61036a2de5a34362adf6236e,2021-07-29_19h56.17.726,Simcolourproject_2stim_asymm_v5,2020.2.10,MacIntel,60,61025ae37ef11b136ea224fe,,,,,,,,,1754,-51.5234375,-34.71875,1,0,0,response5disk,,2,-0.4609375,-3.26171875,1,0,0,rectangle,-0.4609375,-3.26171875,1,0,0,-0.4609375,-3.26171875,1,0,0,1,20,180,65,1,,,,,,,,
,,,,,,,,,,,,,FF,,,,,,,,0.78328,,,,,,,,,,,,,,,,,,,,,,6100ed2dd8aa14dccb8d0915,61036a2de5a34362adf6236e,2021-07-29_19h56.17.726,Simcolourproject_2stim_asymm_v5,2020.2.10,MacIntel,60,61025ae37ef11b136ea224fe,,,,,,,,,3181,72.953125,38.953125,1,0,0,response1disk,,6,-15.47265625,-10.87890625,1,0,0,rectangle,-15.47265625,-10.87890625,1,0,0,-15.47265625,-10.87890625,1,0,0,1,21,181,23,1,,,,,,,,
,,,,,,,,,,,,,FF,,,,,,,,0.73357,,,,,,,,,,,,,,,,,,,,,,6100ed2dd8aa14dccb8d0915,61036a2de5a34362adf6236e,2021-07-29_19h56.17.726,Simcolourproject_2stim_asymm_v5,2020.2.10,MacIntel,60,61025ae37ef11b136ea224fe,,,,,,,,,534,91.62890625,47.1796875,1,0,0,response1disk,,6,35.92578125,17.0078125,1,0,0,rectangle,35.92578125,17.0078125,1,0,0,35.92578125,17.0078125,1,0,0,1,22,182,19,1,,,,,,,,
,,,,,,,,,,,,,FF,,,,,,,,0.800895,,,,,,,,,,,,,,,,,,,,,,6100ed2dd8aa14dccb8d0915,61036a2de5a34362adf6236e,2021-07-29_19h56.17.726,Simcolourproject_2stim_asymm_v5,2020.2.10,MacIntel,60,61025ae37ef11b136ea224fe,,,,,,,,,2977,34.08984375,75.04296875,1,0,0,response1disk,,7,21.046875,16.94140625,1,0,0,rectangle,21.046875,16.94140625,1,0,0,21.046875,16.94140625,1,0,0,1,23,183,25,1,,,,,,,,
,,,,,,,,,,,,,FF,,,,,,,,0.648865,,,,,,,,,,,,,,,,,,,,,,6100ed2dd8aa14dccb8d0915,61036a2de5a34362adf6236e,2021-07-29_19h56.17.726,Simcolourproject_2stim_asymm_v5,2020.2.10,MacIntel,60,61025ae37ef11b136ea224fe,,,,,,,,,3705,-55.28515625,77.17578125,1,0,0,response7disk,,0,-15.4921875,17.8046875,1,0,0,rectangle,-15.4921875,17.8046875,1,0,0,-15.4921875,17.8046875,1,0,0,1,24,184,74,1,,,,,,,,
,,,,,,,,,,,,,FF,,,,,,,,0.983905,,,,,,,,,,,,,,,,,,,,,,6100ed2dd8aa14dccb8d0915,61036a2de5a34362adf6236e,2021-07-29_19h56.17.726,Simcolourproject_2stim_asymm_v5,2020.2.10,MacIntel,60,61025ae37ef11b136ea224fe,,,,,,,,,321,30.3046875,55.10546875,1,0,0,response1disk,,7,12.00390625,1.84765625,1,0,0,rectangle,12.00390625,1.84765625,1,0,0,12.00390625,1.84765625,1,0,0,1,25,185,96,1,,,,,,,,
,,,,,,,,,,,,,FF,,,,,,,,0.750095,,,,,,,,,,,,,,,,,,,,,,6100ed2dd8aa14dccb8d0915,61036a2de5a34362adf6236e,2021-07-29_19h56.17.726,Simcolourproject_2stim_asymm_v5,2020.2.10,MacIntel,60,61025ae37ef11b136ea224fe,,,,,,,,,1476,34.3828125,58.34375,1,0,0,response1disk,,7,25.56640625,7.9609375,1,0,0,rectangle,25.56640625,7.9609375,1,0,0,25.56640625,7.9609375,1,0,0,1,26,186,100,1,,,,,,,,
,,,,,,,,,,,,,FF,,,,,,,,0.982555,,,,,,,,,,,,,,,,,,,,,,6100ed2dd8aa14dccb8d0915,61036a2de5a34362adf6236e,2021-07-29_19h56.17.726,Simcolourproject_2stim_asymm_v5,2020.2.10,MacIntel,60,61025ae37ef11b136ea224fe,,,,,,,,,4085,-74.6953125,-96.12109375,1,0,0,response5disk,,3,17.1875,1.34375,1,0,0,rectangle,17.1875,1.34375,1,0,0,17.1875,1.34375,1,0,0,1,27,187,42,1,,,,,,,,
,,,,,,,,,,,,,FF,,,,,,,,0.800765,,,,,,,,,,,,,,,,,,,,,,6100ed2dd8aa14dccb8d0915,61036a2de5a34362adf6236e,2021-07-29_19h56.17.726,Simcolourproject_2stim_asymm_v5,2020.2.10,MacIntel,60,61025ae37ef11b136ea224fe,,,,,,,,,2983,-34.8203125,-42.17578125,1,0,0,response5disk,,3,12.30859375,-1.84765625,1,0,0,rectangle,12.30859375,-1.84765625,1,0,0,12.30859375,-1.84765625,1,0,0,1,28,188,11,1,,,,,,,,
,,,,,,,,,,,,,FF,,,,,,,,0.731605,,,,,,,,,,,,,,,,,,,,,,6100ed2dd8aa14dccb8d0915,61036a2de5a34362adf6236e,2021-07-29_19h56.17.726,Simcolourproject_2stim_asymm_v5,2020.2.10,MacIntel,60,61025ae37ef11b136ea224fe,,,,,,,,,2958,-38.35546875,-63.84765625,1,0,0,response5disk,,3,-3.08203125,10.69921875,1,0,0,rectangle,-3.08203125,10.69921875,1,0,0,-3.08203125,10.69921875,1,0,0,1,29,189,151,1,,,,,,,,
,,,,,,,,,,,,,FF,,,,,,,,0.6672,,,,,,,,,,,,,,,,,,,,,,6100ed2dd8aa14dccb8d0915,61036a2de5a34362adf6236e,2021-07-29_19h56.17.726,Simcolourproject_2stim_asymm_v5,2020.2.10,MacIntel,60,61025ae37ef11b136ea224fe,,,,,,,,,1627,61.9140625,83.77734375,1,0,0,response1disk,,7,25.296875,-6.9453125,1,0,0,rectangle,25.296875,-6.9453125,1,0,0,25.296875,-6.9453125,1,0,0,1,30,190,122,1,,,,,,,,
,,,,,,,,,,,,,FF,,,,,,,,0.90106,,,,,,,,,,,,,,,,,,,,,,6100ed2dd8aa14dccb8d0915,61036a2de5a34362adf6236e,2021-07-29_19h56.17.726,Simcolourproject_2stim_asymm_v5,2020.2.10,MacIntel,60,61025ae37ef11b136ea224fe,,,,,,,,,3810,-66.60546875,32.64453125,1,0,0,response7disk,,1,-13.02734375,8.3046875,1,0,0,rectangle,-13.02734375,8.3046875,1,0,0,-13.02734375,8.3046875,1,0,0,1,31,191,9,1,,,,,,,,
,,,,,,,,,,,,,FF,,,,,,,,1.351745,,,,,,,,,,,,,,,,,,,,,,6100ed2dd8aa14dccb8d0915,61036a2de5a34362adf6236e,2021-07-29_19h56.17.726,Simcolourproject_2stim_asymm_v5,2020.2.10,MacIntel,60,61025ae37ef11b136ea224fe,,,,,,,,,2740,41.984375,-41.68359375,1,0,0,response3disk,,5,11.3984375,-3.58984375,1,0,0,rectangle,11.3984375,-3.58984375,1,0,0,11.3984375,-3.58984375,1,0,0,1,32,192,94,1,,,,,,,,
,,,,,,,,,,,,,FF,,,,,,,,1.834735,,,,,,,,,,,,,,,,,,,,,,6100ed2dd8aa14dccb8d0915,61036a2de5a34362adf6236e,2021-07-29_19h56.17.726,Simcolourproject_2stim_asymm_v5,2020.2.10,MacIntel,60,61025ae37ef11b136ea224fe,,,,,,,,,2135,67.22265625,-29.50390625,1,0,0,response3disk,,5,35.3515625,-8.9140625,1,0,0,rectangle,35.3515625,-8.9140625,1,0,0,35.3515625,-8.9140625,1,0,0,1,33,193,157,1,,,,,,,,
,,,,,,,,,,,,,FF,,,,,,,,1.049385,,,,,,,,,,,,,,,,,,,,,,6100ed2dd8aa14dccb8d0915,61036a2de5a34362adf6236e,2021-07-29_19h56.17.726,Simcolourproject_2stim_asymm_v5,2020.2.10,MacIntel,60,61025ae37ef11b136ea224fe,,,,,,,,,392,-25.05078125,-62.87109375,1,0,0,response5disk,,3,11.8828125,-5.40234375,1,0,0,rectangle,11.8828125,-5.40234375,1,0,0,11.8828125,-5.40234375,1,0,0,1,34,194,113,1,,,,,,,,
,,,,,,,,,,,,,FF,,,,,,,,1.33253,,,,,,,,,,,,,,,,,,,,,,6100ed2dd8aa14dccb8d0915,61036a2de5a34362adf6236e,2021-07-29_19h56.17.726,Simcolourproject_2stim_asymm_v5,2020.2.10,MacIntel,60,61025ae37ef11b136ea224fe,,,,,,,,,2912,35.62890625,-48.359375,1,0,0,response3disk,,4,18.57421875,-3.44921875,1,0,0,rectangle,18.57421875,-3.44921875,1,0,0,18.57421875,-3.44921875,1,0,0,1,35,195,84,1,,,,,,,,
,,,,,,,,,,,,,FF,,,,,,,,1.03364,,,,,,,,,,,,,,,,,,,,,,6100ed2dd8aa14dccb8d0915,61036a2de5a34362adf6236e,2021-07-29_19h56.17.726,Simcolourproject_2stim_asymm_v5,2020.2.10,MacIntel,60,61025ae37ef11b136ea224fe,,,,,,,,,802,-72.23046875,-52.2109375,1,0,0,response5disk,,2,17.11328125,-3.52734375,1,0,0,rectangle,17.11328125,-3.52734375,1,0,0,17.11328125,-3.52734375,1,0,0,1,36,196,121,1,,,,,,,,
,,,,,,,,,,,,,FF,,,,,,,,0.782735,,,,,,,,,,,,,,,,,,,,,,6100ed2dd8aa14dccb8d0915,61036a2de5a34362adf6236e,2021-07-29_19h56.17.726,Simcolourproject_2stim_asymm_v5,2020.2.10,MacIntel,60,61025ae37ef11b136ea224fe,,,,,,,,,2175,31.234375,65.60546875,1,0,0,response1disk,,7,14.0625,-3.9453125,1,0,0,rectangle,95.984375,47.953125,1,0,0,5.796875,-7.2109375,1,0,0,1,37,197,120,1,,response1disk_3,TRUE,6,6,"[171,270,149,201,65,222,261,110,198,164,243,248,146,163,159,30,302,30,85,322]",2.29856,rectangle
,,,,,,,,,,,,,FF,,,,,,,,0.7507,,,,,,,,,,,,,,,,,,,,,,6100ed2dd8aa14dccb8d0915,61036a2de5a34362adf6236e,2021-07-29_19h56.17.726,Simcolourproject_2stim_asymm_v5,2020.2.10,MacIntel,60,61025ae37ef11b136ea224fe,,,,,,,,,3671,-58.6953125,-35.34375,1,0,0,response5disk,,2,-2.73828125,-7.8046875,1,0,0,rectangle,-2.73828125,-7.8046875,1,0,0,-2.73828125,-7.8046875,1,0,0,1,38,198,30,1,,,,,,,,
,,,,,,,,,,,,,FF,,,,,,,,0.78397,,,,,,,,,,,,,,,,,,,,,,6100ed2dd8aa14dccb8d0915,61036a2de5a34362adf6236e,2021-07-29_19h56.17.726,Simcolourproject_2stim_asymm_v5,2020.2.10,MacIntel,60,61025ae37ef11b136ea224fe,,,,,,,,,2118,56,-40.12890625,1,0,0,response3disk,,5,11.76171875,-3.73828125,1,0,0,rectangle,11.76171875,-3.73828125,1,0,0,11.76171875,-3.73828125,1,0,0,1,39,199,60,1,,,,,,,,
,,,,,,,,,,,,,FF,,,,,,,,0.96805,,,,,,,,,,,,,,,,,,,,,,6100ed2dd8aa14dccb8d0915,61036a2de5a34362adf6236e,2021-07-29_19h56.17.726,Simcolourproject_2stim_asymm_v5,2020.2.10,MacIntel,60,61025ae37ef11b136ea224fe,,,,,,,,,780,-26.08984375,-70.76953125,1,0,0,response5disk,,3,5.5,-1.89453125,1,0,0,rectangle,67.71484375,-34.46484375,1,0,0,14.5859375,-11.10546875,1,0,0,1,40,200,95,1,,response3disk_3,TRUE,5,5,"[171,270,149,201,65,222,261,110,198,164,243,248,146,163,159,30,302,30,85,322]",1.450415,rectangle
,,,,,,,,,,,,,FF,,,,,,,,1.01689,,,,,,,,,,,,,,,,,,,,,,6100ed2dd8aa14dccb8d0915,61036a2de5a34362adf6236e,2021-07-29_19h56.17.726,Simcolourproject_2stim_asymm_v5,2020.2.10,MacIntel,60,61025ae37ef11b136ea224fe,,,,,,,,,2275,-43.5625,-89.3828125,1,0,0,response5disk,,3,21.640625,-11.16015625,1,0,0,rectangle,21.640625,-11.16015625,1,0,0,21.640625,-11.16015625,1,0,0,1,41,201,123,1,,,,,,,,
,,,,,,,,,,,,,FF,,,,,,,,1.034105,,,,,,,,,,,,,,,,,,,,,,6100ed2dd8aa14dccb8d0915,61036a2de5a34362adf6236e,2021-07-29_19h56.17.726,Simcolourproject_2stim_asymm_v5,2020.2.10,MacIntel,60,61025ae37ef11b136ea224fe,,,,,,,,,3791,71.37890625,22.88671875,1,0,0,response1disk,,6,33.8046875,-17.8984375,1,0,0,rectangle,33.8046875,-17.8984375,1,0,0,33.8046875,-17.8984375,1,0,0,1,42,202,27,1,,,,,,,,
,,,,,,,,,,,,,FF,,,,,,,,1.600635,,,,,,,,,,,,,,,,,,,,,,6100ed2dd8aa14dccb8d0915,61036a2de5a34362adf6236e,2021-07-29_19h56.17.726,Simcolourproject_2stim_asymm_v5,2020.2.10,MacIntel,60,61025ae37ef11b136ea224fe,,,,,,,,,947,59.15234375,-84.97265625,1,0,0,response3disk,,4,16.515625,-6.55078125,1,0,0,rectangle,16.515625,-6.55078125,1,0,0,16.515625,-6.55078125,1,0,0,1,43,203,125,1,,,,,,,,
,,,,,,,,,,,,,FF,,,,,,,,0.750985,,,,,,,,,,,,,,,,,,,,,,6100ed2dd8aa14dccb8d0915,61036a2de5a34362adf6236e,2021-07-29_19h56.17.726,Simcolourproject_2stim_asymm_v5,2020.2.10,MacIntel,60,61025ae37ef11b136ea224fe,,,,,,,,,1900,-58.1953125,33.23828125,1,0,0,response7disk,,1,-14.1171875,0.12109375,1,0,0,rectangle,-14.1171875,0.12109375,1,0,0,-14.1171875,0.12109375,1,0,0,1,44,204,38,1,,,,,,,,
,,,,,,,,,,,,,FF,,,,,,,,1.03457,,,,,,,,,,,,,,,,,,,,,,6100ed2dd8aa14dccb8d0915,61036a2de5a34362adf6236e,2021-07-29_19h56.17.726,Simcolourproject_2stim_asymm_v5,2020.2.10,MacIntel,60,61025ae37ef11b136ea224fe,,,,,,,,,4204,53.11328125,-50.47265625,1,0,0,response3disk,,5,12.8671875,-4.56640625,1,0,0,rectangle,12.8671875,-4.56640625,1,0,0,12.8671875,-4.56640625,1,0,0,1,45,205,4,1,,,,,,,,
,,,,,,,,,,,,,FF,,,,,,,,0.566435,,,,,,,,,,,,,,,,,,,,,,6100ed2dd8aa14dccb8d0915,61036a2de5a34362adf6236e,2021-07-29_19h56.17.726,Simcolourproject_2stim_asymm_v5,2020.2.10,MacIntel,60,61025ae37ef11b136ea224fe,,,,,,,,,2878,67.2109375,26.25,1,0,0,response1disk,,6,28.66796875,17.87109375,1,0,0,rectangle,28.66796875,17.87109375,1,0,0,28.66796875,17.87109375,1,0,0,1,46,206,105,1,,,,,,,,
,,,,,,,,,,,,,FF,,,,,,,,0.467575,,,,,,,,,,,,,,,,,,,,,,6100ed2dd8aa14dccb8d0915,61036a2de5a34362adf6236e,2021-07-29_19h56.17.726,Simcolourproject_2stim_asymm_v5,2020.2.10,MacIntel,60,61025ae37ef11b136ea224fe,,,,,,,,,2512,70.57421875,25.97265625,1,0,0,response1disk,,6,7.01171875,-6.3046875,1,0,0,rectangle,7.01171875,-6.3046875,1,0,0,7.01171875,-6.3046875,1,0,0,1,47,207,71,1,,,,,,,,
,,,,,,,,,,,,,FF,,,,,,,,0.51659,,,,,,,,,,,,,,,,,,,,,,6100ed2dd8aa14dccb8d0915,61036a2de5a34362adf6236e,2021-07-29_19h56.17.726,Simcolourproject_2stim_asymm_v5,2020.2.10,MacIntel,60,61025ae37ef11b136ea224fe,,,,,,,,,1358,58.80859375,-53.84765625,1,0,0,response3disk,,5,21.54296875,-3.61328125,1,0,0,rectangle,21.54296875,-3.61328125,1,0,0,21.54296875,-3.61328125,1,0,0,1,48,208,93,1,,,,,,,,
,,,,,,,,,,,,,FF,,,,,,,,0.76542,,,,,,,,,,,,,,,,,,,,,,6100ed2dd8aa14dccb8d0915,61036a2de5a34362adf6236e,2021-07-29_19h56.17.726,Simcolourproject_2stim_asymm_v5,2020.2.10,MacIntel,60,61025ae37ef11b136ea224fe,,,,,,,,,4019,36.70703125,-60.41015625,1,0,0,response3disk,,4,-0.15625,11.6015625,1,0,0,rectangle,-0.15625,11.6015625,1,0,0,-0.15625,11.6015625,1,0,0,1,49,209,109,1,,,,,,,,
,,,,,,,,,,,,,FF,,,,,,,,0.5166,,,,,,,,,,,,,,,,,,,,,,6100ed2dd8aa14dccb8d0915,61036a2de5a34362adf6236e,2021-07-29_19h56.17.726,Simcolourproject_2stim_asymm_v5,2020.2.10,MacIntel,60,61025ae37ef11b136ea224fe,,,,,,,,,1486,77.4765625,-34.8515625,1,0,0,response3disk,,5,25.3203125,-1.5,1,0,0,rectangle,25.3203125,-1.5,1,0,0,25.3203125,-1.5,1,0,0,1,50,210,48,1,,,,,,,,
,,,,,,,,,,,,,FF,,,,,,,,0.732605,,,,,,,,,,,,,,,,,,,,,,6100ed2dd8aa14dccb8d0915,61036a2de5a34362adf6236e,2021-07-29_19h56.17.726,Simcolourproject_2stim_asymm_v5,2020.2.10,MacIntel,60,61025ae37ef11b136ea224fe,,,,,,,,,3779,-34.51953125,-52.3984375,1,0,0,response5disk,,3,10.33984375,-2.7265625,1,0,0,rectangle,10.33984375,-2.7265625,1,0,0,10.33984375,-2.7265625,1,0,0,1,51,211,131,1,,,,,,,,
,,,,,,,,,,,,,FF,,,,,,,,0.65351,,,,,,,,,,,,,,,,,,,,,,6100ed2dd8aa14dccb8d0915,61036a2de5a34362adf6236e,2021-07-29_19h56.17.726,Simcolourproject_2stim_asymm_v5,2020.2.10,MacIntel,60,61025ae37ef11b136ea224fe,,,,,,,,,304,53.80078125,-41.3515625,1,0,0,response3disk,,5,-11.96875,-15.046875,1,0,0,rectangle,-11.96875,-15.046875,1,0,0,-11.96875,-15.046875,1,0,0,1,52,212,26,1,,,,,,,,
,,,,,,,,,,,,,FF,,,,,,,,0.65074,,,,,,,,,,,,,,,,,,,,,,6100ed2dd8aa14dccb8d0915,61036a2de5a34362adf6236e,2021-07-29_19h56.17.726,Simcolourproject_2stim_asymm_v5,2020.2.10,MacIntel,60,61025ae37ef11b136ea224fe,,,,,,,,,902,83.62109375,25.671875,1,0,0,response1disk,,6,29.890625,7.484375,1,0,0,rectangle,29.890625,7.484375,1,0,0,29.890625,7.484375,1,0,0,1,53,213,67,1,,,,,,,,
,,,,,,,,,,,,,FF,,,,,,,,1.482595,,,,,,,,,,,,,,,,,,,,,,6100ed2dd8aa14dccb8d0915,61036a2de5a34362adf6236e,2021-07-29_19h56.17.726,Simcolourproject_2stim_asymm_v5,2020.2.10,MacIntel,60,61025ae37ef11b136ea224fe,,,,,,,,,2351,45.36328125,-32.265625,1,0,0,response3disk,,5,28.05078125,-3.36328125,1,0,0,rectangle,28.05078125,-3.36328125,1,0,0,28.05078125,-3.36328125,1,0,0,1,54,214,97,1,,,,,,,,
,,,,,,,,,,,,,FF,,,,,,,,0.567135,,,,,,,,,,,,,,,,,,,,,,6100ed2dd8aa14dccb8d0915,61036a2de5a34362adf6236e,2021-07-29_19h56.17.726,Simcolourproject_2stim_asymm_v5,2020.2.10,MacIntel,60,61025ae37ef11b136ea224fe,,,,,,,,,1908,46.37109375,-59.359375,1,0,0,response3disk,,4,19.71484375,-15.41796875,1,0,0,rectangle,19.71484375,-15.41796875,1,0,0,19.71484375,-15.41796875,1,0,0,1,55,215,126,1,,,,,,,,
,,,,,,,,,,,,,FF,,,,,,,,0.532845,,,,,,,,,,,,,,,,,,,,,,6100ed2dd8aa14dccb8d0915,61036a2de5a34362adf6236e,2021-07-29_19h56.17.726,Simcolourproject_2stim_asymm_v5,2020.2.10,MacIntel,60,61025ae37ef11b136ea224fe,,,,,,,,,2690,39.8046875,-41.4609375,1,0,0,response3disk,,4,16.60546875,-12.83984375,1,0,0,rectangle,16.60546875,-12.83984375,1,0,0,16.60546875,-12.83984375,1,0,0,1,56,216,18,1,,,,,,,,
,,,,,,,,,,,,,FF,,,,,,,,0.785405,,,,,,,,,,,,,,,,,,,,,,6100ed2dd8aa14dccb8d0915,61036a2de5a34362adf6236e,2021-07-29_19h56.17.726,Simcolourproject_2stim_asymm_v5,2020.2.10,MacIntel,60,61025ae37ef11b136ea224fe,,,,,,,,,4073,78,32.03125,1,0,0,response1disk,,6,27.46484375,14.4765625,1,0,0,rectangle,27.46484375,14.4765625,1,0,0,27.46484375,14.4765625,1,0,0,1,57,217,46,1,,,,,,,,
,,,,,,,,,,,,,FF,,,,,,,,0.633025,,,,,,,,,,,,,,,,,,,,,,6100ed2dd8aa14dccb8d0915,61036a2de5a34362adf6236e,2021-07-29_19h56.17.726,Simcolourproject_2stim_asymm_v5,2020.2.10,MacIntel,60,61025ae37ef11b136ea224fe,,,,,,,,,1953,38.78125,65.515625,1,0,0,response1disk,,7,10.67578125,6.23828125,1,0,0,rectangle,10.67578125,6.23828125,1,0,0,10.67578125,6.23828125,1,0,0,1,58,218,20,1,,,,,,,,
,,,,,,,,,,,,,FF,,,,,,,,0.566665,,,,,,,,,,,,,,,,,,,,,,6100ed2dd8aa14dccb8d0915,61036a2de5a34362adf6236e,2021-07-29_19h56.17.726,Simcolourproject_2stim_asymm_v5,2020.2.10,MacIntel,60,61025ae37ef11b136ea224fe,,,,,,,,,1599,-51.4921875,-63.20703125,1,0,0,response5disk,,3,1.35546875,-14.50390625,1,0,0,rectangle,1.35546875,-14.50390625,1,0,0,1.35546875,-14.50390625,1,0,0,1,59,219,129,1,,,,,,,,
,,,,,,,,,,,,,FF,,,,,,,,0.58209,,,,,,,,,,,,,,,,,,,,,,6100ed2dd8aa14dccb8d0915,61036a2de5a34362adf6236e,2021-07-29_19h56.17.726,Simcolourproject_2stim_asymm_v5,2020.2.10,MacIntel,60,61025ae37ef11b136ea224fe,,,,,,,,,1656,41.63671875,-54.19921875,1,0,0,response3disk,,4,25.16796875,-13.73828125,1,0,0,rectangle,25.16796875,-13.73828125,1,0,0,25.16796875,-13.73828125,1,0,0,1,60,220,70,1,,,,,,,,
,,,,,,,,,,,,,FF,,,,,,,,0.44792,,,,,,,,,,,,,,,,,,,,,,6100ed2dd8aa14dccb8d0915,61036a2de5a34362adf6236e,2021-07-29_19h56.17.726,Simcolourproject_2stim_asymm_v5,2020.2.10,MacIntel,60,61025ae37ef11b136ea224fe,,,,,,,,,8,-56.3671875,-81.125,1,0,0,response5disk,,3,7.0625,-16.93359375,1,0,0,rectangle,82.48046875,36.1875,1,0,0,19.0859375,-3.20703125,1,0,0,1,61,221,37,1,,response1disk_3,TRUE,6,6,"[171,270,149,201,65,222,261,110,198,164,243,248,146,163,159,30,302,30,85,322]",2.032775,rectangle
,,,,,,,,,,,,,FF,,,,,,,,0.667105,,,,,,,,,,,,,,,,,,,,,,6100ed2dd8aa14dccb8d0915,61036a2de5a34362adf6236e,2021-07-29_19h56.17.726,Simcolourproject_2stim_asymm_v5,2020.2.10,MacIntel,60,61025ae37ef11b136ea224fe,,,,,,,,,330,42.44921875,-33.984375,1,0,0,response3disk,,5,1.10546875,-5.14453125,1,0,0,rectangle,1.10546875,-5.14453125,1,0,0,1.10546875,-5.14453125,1,0,0,1,62,222,64,1,,,,,,,,
,,,,,,,,,,,,,FF,,,,,,,,0.568185,,,,,,,,,,,,,,,,,,,,,,6100ed2dd8aa14dccb8d0915,61036a2de5a34362adf6236e,2021-07-29_19h56.17.726,Simcolourproject_2stim_asymm_v5,2020.2.10,MacIntel,60,61025ae37ef11b136ea224fe,,,,,,,,,4180,40.66796875,55.734375,1,0,0,response1disk,,7,10.58984375,12.328125,1,0,0,rectangle,10.58984375,12.328125,1,0,0,10.58984375,12.328125,1,0,0,1,63,223,148,1,,,,,,,,
,,,,,,,,,,,,,FF,,,,,,,,1.139255,,,,,,,,,,,,,,,,,,,,,,6100ed2dd8aa14dccb8d0915,61036a2de5a34362adf6236e,2021-07-29_19h56.17.726,Simcolourproject_2stim_asymm_v5,2020.2.10,MacIntel,60,61025ae37ef11b136ea224fe,,,,,,,,,3972,-61.8046875,-92.9765625,1,0,0,response5disk,,3,25.25,-14.765625,1,0,0,rectangle,25.25,-14.765625,1,0,0,25.25,-14.765625,1,0,0,1,64,224,56,1,,,,,,,,
,,,,,,,,,,,,,FF,,,,,,,,0.50134,,,,,,,,,,,,,,,,,,,,,,6100ed2dd8aa14dccb8d0915,61036a2de5a34362adf6236e,2021-07-29_19h56.17.726,Simcolourproject_2stim_asymm_v5,2020.2.10,MacIntel,60,61025ae37ef11b136ea224fe,,,,,,,,,1456,-34.08984375,-58.7578125,1,0,0,response5disk,,3,-1.17578125,-11.90625,1,0,0,rectangle,-1.17578125,-11.90625,1,0,0,-1.17578125,-11.90625,1,0,0,1,65,225,152,1,,,,,,,,
,,,,,,,,,,,,,FF,,,,,,,,0.46689,,,,,,,,,,,,,,,,,,,,,,6100ed2dd8aa14dccb8d0915,61036a2de5a34362adf6236e,2021-07-29_19h56.17.726,Simcolourproject_2stim_asymm_v5,2020.2.10,MacIntel,60,61025ae37ef11b136ea224fe,,,,,,,,,1063,-50.01171875,-46.78125,1,0,0,response5disk,,2,3.515625,-3.69140625,1,0,0,rectangle,3.515625,-3.69140625,1,0,0,3.515625,-3.69140625,1,0,0,1,66,226,40,1,,,,,,,,
,,,,,,,,,,,,,FF,,,,,,,,0.64922,,,,,,,,,,,,,,,,,,,,,,6100ed2dd8aa14dccb8d0915,61036a2de5a34362adf6236e,2021-07-29_19h56.17.726,Simcolourproject_2stim_asymm_v5,2020.2.10,MacIntel,60,61025ae37ef11b136ea224fe,,,,,,,,,4163,-39.11328125,-64.1953125,1,0,0,response5disk,,3,26.609375,-2.67578125,1,0,0,rectangle,26.609375,-2.67578125,1,0,0,26.609375,-2.67578125,1,0,0,1,67,227,149,1,,,,,,,,
,,,,,,,,,,,,,FF,,,,,,,,0.66763,,,,,,,,,,,,,,,,,,,,,,6100ed2dd8aa14dccb8d0915,61036a2de5a34362adf6236e,2021-07-29_19h56.17.726,Simcolourproject_2stim_asymm_v5,2020.2.10,MacIntel,60,61025ae37ef11b136ea224fe,,,,,,,,,3065,97.83984375,-46.4609375,1,0,0,response3disk,,5,11.70703125,-14.46484375,1,0,0,rectangle,11.70703125,-14.46484375,1,0,0,11.70703125,-14.46484375,1,0,0,1,68,228,136,1,,,,,,,,
,,,,,,,,,,,,,FF,,,,,,,,0.633515,,,,,,,,,,,,,,,,,,,,,,6100ed2dd8aa14dccb8d0915,61036a2de5a34362adf6236e,2021-07-29_19h56.17.726,Simcolourproject_2stim_asymm_v5,2020.2.10,MacIntel,60,61025ae37ef11b136ea224fe,,,,,,,,,2239,-61.19921875,-40.53515625,1,0,0,response5disk,,2,-0.6015625,-11.49609375,1,0,0,rectangle,-0.6015625,-11.49609375,1,0,0,-0.6015625,-11.49609375,1,0,0,1,69,229,22,1,,,,,,,,
,,,,,,,,,,,,,FF,,,,,,,,0.5369,,,,,,,,,,,,,,,,,,,,,,6100ed2dd8aa14dccb8d0915,61036a2de5a34362adf6236e,2021-07-29_19h56.17.726,Simcolourproject_2stim_asymm_v5,2020.2.10,MacIntel,60,61025ae37ef11b136ea224fe,,,,,,,,,1778,-44.0234375,-66.31640625,1,0,0,response5disk,,3,-7.140625,-4.5234375,1,0,0,rectangle,-7.140625,-4.5234375,1,0,0,-7.140625,-4.5234375,1,0,0,1,70,230,10,1,,,,,,,,
,,,,,,,,,,,,,FF,,,,,,,,0.85157,,,,,,,,,,,,,,,,,,,,,,6100ed2dd8aa14dccb8d0915,61036a2de5a34362adf6236e,2021-07-29_19h56.17.726,Simcolourproject_2stim_asymm_v5,2020.2.10,MacIntel,60,61025ae37ef11b136ea224fe,,,,,,,,,817,-72.55078125,26.953125,1,0,0,response7disk,,1,0.55078125,-6.38671875,1,0,0,rectangle,0.55078125,-6.38671875,1,0,0,0.55078125,-6.38671875,1,0,0,1,71,231,29,1,,,,,,,,
,,,,,,,,,,,,,FF,,,,,,,,0.835205,,,,,,,,,,,,,,,,,,,,,,6100ed2dd8aa14dccb8d0915,61036a2de5a34362adf6236e,2021-07-29_19h56.17.726,Simcolourproject_2stim_asymm_v5,2020.2.10,MacIntel,60,61025ae37ef11b136ea224fe,,,,,,,,,3871,90.3828125,21.03125,1,0,0,response1disk,,6,32.140625,-7.6171875,1,0,0,rectangle,32.140625,-7.6171875,1,0,0,32.140625,-7.6171875,1,0,0,1,72,232,24,1,,,,,,,,
,,,,,,,,,,,,,FF,,,,,,,,0.93462,,,,,,,,,,,,,,,,,,,,,,6100ed2dd8aa14dccb8d0915,61036a2de5a34362adf6236e,2021-07-29_19h56.17.726,Simcolourproject_2stim_asymm_v5,2020.2.10,MacIntel,60,61025ae37ef11b136ea224fe,,,,,,,,,3050,-30.71875,-28.38671875,1,0,0,response5disk,,2,-14.1328125,-12.71875,1,0,0,rectangle,-14.1328125,-12.71875,1,0,0,-14.1328125,-12.71875,1,0,0,1,73,233,153,1,,,,,,,,
,,,,,,,,,,,,,FF,,,,,,,,1.09987,,,,,,,,,,,,,,,,,,,,,,6100ed2dd8aa14dccb8d0915,61036a2de5a34362adf6236e,2021-07-29_19h56.17.726,Simcolourproject_2stim_asymm_v5,2020.2.10,MacIntel,60,61025ae37ef11b136ea224fe,,,,,,,,,2734,38.79296875,-63.53515625,1,0,0,response3disk,,4,1.83203125,-12.12109375,1,0,0,rectangle,1.83203125,-12.12109375,1,0,0,1.83203125,-12.12109375,1,0,0,1,74,234,135,1,,,,,,,,
,,,,,,,,,,,,,FF,,,,,,,,0.650595,,,,,,,,,,,,,,,,,,,,,,6100ed2dd8aa14dccb8d0915,61036a2de5a34362adf6236e,2021-07-29_19h56.17.726,Simcolourproject_2stim_asymm_v5,2020.2.10,MacIntel,60,61025ae37ef11b136ea224fe,,,,,,,,,4017,60.3828125,45.11328125,1,0,0,response1disk,,6,18.91796875,12.28515625,1,0,0,rectangle,18.91796875,12.28515625,1,0,0,18.91796875,12.28515625,1,0,0,1,75,235,144,1,,,,,,,,
,,,,,,,,,,,,,FF,,,,,,,,0.481985,,,,,,,,,,,,,,,,,,,,,,6100ed2dd8aa14dccb8d0915,61036a2de5a34362adf6236e,2021-07-29_19h56.17.726,Simcolourproject_2stim_asymm_v5,2020.2.10,MacIntel,60,61025ae37ef11b136ea224fe,,,,,,,,,2027,-48.16796875,-74.4140625,1,0,0,response5disk,,3,24.19140625,-8.50390625,1,0,0,rectangle,24.19140625,-8.50390625,1,0,0,24.19140625,-8.50390625,1,0,0,1,76,236,14,1,,,,,,,,
,,,,,,,,,,,,,FF,,,,,,,,0.5502,,,,,,,,,,,,,,,,,,,,,,6100ed2dd8aa14dccb8d0915,61036a2de5a34362adf6236e,2021-07-29_19h56.17.726,Simcolourproject_2stim_asymm_v5,2020.2.10,MacIntel,60,61025ae37ef11b136ea224fe,,,,,,,,,4103,-65.29296875,-70.2421875,1,0,0,response5disk,,3,1.19140625,-2,1,0,0,rectangle,1.19140625,-2,1,0,0,1.19140625,-2,1,0,0,1,77,237,132,1,,,,,,,,
,,,,,,,,,,,,,FF,,,,,,,,0.55208,,,,,,,,,,,,,,,,,,,,,,6100ed2dd8aa14dccb8d0915,61036a2de5a34362adf6236e,2021-07-29_19h56.17.726,Simcolourproject_2stim_asymm_v5,2020.2.10,MacIntel,60,61025ae37ef11b136ea224fe,,,,,,,,,1800,35.71875,-60.70703125,1,0,0,response3disk,,4,5.33984375,-10.328125,1,0,0,rectangle,5.33984375,-10.328125,1,0,0,5.33984375,-10.328125,1,0,0,1,78,238,3,1,,,,,,,,
,,,,,,,,,,,,,FF,,,,,,,,0.59906,,,,,,,,,,,,,,,,,,,,,,6100ed2dd8aa14dccb8d0915,61036a2de5a34362adf6236e,2021-07-29_19h56.17.726,Simcolourproject_2stim_asymm_v5,2020.2.10,MacIntel,60,61025ae37ef11b136ea224fe,,,,,,,,,3589,51.1015625,35.55859375,1,0,0,response1disk,,6,5.58984375,-9.328125,1,0,0,rectangle,5.58984375,-9.328125,1,0,0,5.58984375,-9.328125,1,0,0,1,79,239,90,1,,,,,,,,
,,,,,,,,,,,,,FF,,,,,,,,0.634825,,,,,,,,,,,,,,,,,,,,,,6100ed2dd8aa14dccb8d0915,61036a2de5a34362adf6236e,2021-07-29_19h56.17.726,Simcolourproject_2stim_asymm_v5,2020.2.10,MacIntel,60,61025ae37ef11b136ea224fe,,,,,,,,,3497,54.19140625,64.11328125,1,0,0,response1disk,,7,24.1953125,13.76171875,1,0,0,rectangle,24.1953125,13.76171875,1,0,0,24.1953125,13.76171875,1,0,0,1,80,240,86,1,,,,,,,,
,,,,,,,,,,,,,FF,,,,,,,,0.533055,,,,,,,,,,,,,,,,,,,,,,6100ed2dd8aa14dccb8d0915,61036a2de5a34362adf6236e,2021-07-29_19h56.17.726,Simcolourproject_2stim_asymm_v5,2020.2.10,MacIntel,60,61025ae37ef11b136ea224fe,,,,,,,,,1251,52.95703125,23.64453125,1,0,0,response1disk,,6,0.671875,-3.69921875,1,0,0,rectangle,0.671875,-3.69921875,1,0,0,0.671875,-3.69921875,1,0,0,1,81,241,130,1,,,,,,,,
,,,,,,,,,,,,,FF,,,,,,,,0.41691,,,,,,,,,,,,,,,,,,,,,,6100ed2dd8aa14dccb8d0915,61036a2de5a34362adf6236e,2021-07-29_19h56.17.726,Simcolourproject_2stim_asymm_v5,2020.2.10,MacIntel,60,61025ae37ef11b136ea224fe,,,,,,,,,4024,52.61328125,17.9609375,1,0,0,response1disk,,6,11,-4.52734375,1,0,0,rectangle,-54.05859375,74.0859375,1,0,0,-5.15625,6,1,0,0,1,82,242,88,1,,response7disk_3,TRUE,0,0,"[171,270,149,201,65,222,261,110,198,164,243,248,146,163,159,30,302,30,85,322]",1.63366,rectangle
,,,,,,,,,,,,,FF,,,,,,,,0.86717,,,,,,,,,,,,,,,,,,,,,,6100ed2dd8aa14dccb8d0915,61036a2de5a34362adf6236e,2021-07-29_19h56.17.726,Simcolourproject_2stim_asymm_v5,2020.2.10,MacIntel,60,61025ae37ef11b136ea224fe,,,,,,,,,630,-36.69921875,57.06640625,1,0,0,response7disk,,0,-3.98046875,-5.41796875,1,0,0,rectangle,-3.98046875,-5.41796875,1,0,0,-3.98046875,-5.41796875,1,0,0,1,83,243,116,1,,,,,,,,
,,,,,,,,,,,,,FF,,,,,,,,0.7004,,,,,,,,,,,,,,,,,,,,,,6100ed2dd8aa14dccb8d0915,61036a2de5a34362adf6236e,2021-07-29_19h56.17.726,Simcolourproject_2stim_asymm_v5,2020.2.10,MacIntel,60,61025ae37ef11b136ea224fe,,,,,,,,,3903,55.18359375,60.5703125,1,0,0,response1disk,,7,14.33984375,17.23046875,1,0,0,rectangle,14.33984375,17.23046875,1,0,0,14.33984375,17.23046875,1,0,0,1,84,244,141,1,,,,,,,,
,,,,,,,,,,,,,FF,,,,,,,,0.81765,,,,,,,,,,,,,,,,,,,,,,6100ed2dd8aa14dccb8d0915,61036a2de5a34362adf6236e,2021-07-29_19h56.17.726,Simcolourproject_2stim_asymm_v5,2020.2.10,MacIntel,60,61025ae37ef11b136ea224fe,,,,,,,,,3040,41.97265625,54.16015625,1,0,0,response1disk,,7,27.82421875,9.94921875,1,0,0,rectangle,27.82421875,9.94921875,1,0,0,27.82421875,9.94921875,1,0,0,1,85,245,138,1,,,,,,,,
,,,,,,,,,,,,,FF,,,,,,,,0.833865,,,,,,,,,,,,,,,,,,,,,,6100ed2dd8aa14dccb8d0915,61036a2de5a34362adf6236e,2021-07-29_19h56.17.726,Simcolourproject_2stim_asymm_v5,2020.2.10,MacIntel,60,61025ae37ef11b136ea224fe,,,,,,,,,1236,24.62890625,-69.0703125,1,0,0,response3disk,,4,5.92578125,3.18359375,1,0,0,rectangle,5.92578125,3.18359375,1,0,0,5.92578125,3.18359375,1,0,0,1,86,246,106,1,,,,,,,,
