key_resp.keys,key_resp.rt,key_resp_14.keys,key_resp_14.rt,key_resp_15.keys,key_resp_15.rt,key_resp_17.keys,key_resp_17.rt,key_resp_9.keys,key_resp_9.rt,key_resp_10.keys,key_resp_10.rt,practice_comparison,Ecc,mouse_5.x,mouse_5.y,mouse_5.leftButton,mouse_5.midButton,mouse_5.rightButton,mouse_5.clicked_name,pracsimilarity,response_time,mouse_10.x,mouse_10.y,mouse_10.leftButton,mouse_10.midButton,mouse_10.rightButton,mouse_10.clicked_name,mouse_7.x,mouse_7.y,mouse_7.leftButton,mouse_7.midButton,mouse_7.rightButton,mouse_6.x,mouse_6.y,mouse_6.leftButton,mouse_6.midButton,mouse_6.rightButton,duringprac.thisRepN,duringprac.thisTrialN,duringprac.thisN,duringprac.thisIndex,duringprac.ran,participant,session,date,expName,psychopyVersion,OS,frameRate,study_id,mouse_7.clicked_name,catchpracsimilarity,catch_response_time,catchnumberprac,catchtrialorderprac,mouse_6.clicked_name,key_resp_22.keys,key_resp_22.rt,realcomparison,mouse.x,mouse.y,mouse.leftButton,mouse.midButton,mouse.rightButton,mouse.clicked_name,Colour2,similarity,mouse_2.x,mouse_2.y,mouse_2.leftButton,mouse_2.midButton,mouse_2.rightButton,mouse_2.clicked_name,mouse_3.x,mouse_3.y,mouse_3.leftButton,mouse_3.midButton,mouse_3.rightButton,mouse_11.x,mouse_11.y,mouse_11.leftButton,mouse_11.midButton,mouse_11.rightButton,trials_2.thisRepN,trials_2.thisTrialN,trials_2.thisN,trials_2.thisIndex,trials_2.ran,Colour1,mouse_3.clicked_name,catchornah,catchsimilarity,catchnumber,catchtrialorder,catchRT,mouse_11.clicked_name
space,23.0467,space,6.1765,space,6.3143,space,7.6344,space,3.1752,space,3.1049,122,FF,93.578125,45.125,1,0,0,response1disk_5,6,4.4847,-14.921875,-5.62890625,1,0,0,rectangle_8,-14.921875,-5.62890625,1,0,0,-14.921875,-5.62890625,1,0,0,0,0,0,5,1,610040fd17c5a03d279f90f3,610377da6925e7b72ab71a4f,2021-07-29_23h56.27.795,Simcolourproject_2stim_asymm_v5,2020.2.10,MacIntel,60,61025ae37ef11b136ea224fe,,,,,,,,,,,,,,,,,,,,,,,,,,,,,,,,,,,,,,,,,,,,,,
,,,,,,,,,,,,19,FF,67.9921875,-99.9921875,1,0,0,response3disk_5,4,3.2576,1.5,-3.609375,1,0,0,rectangle_8,-37.37890625,74.3515625,1,0,0,-3.83203125,-10.57421875,1,0,0,0,1,1,3,1,610040fd17c5a03d279f90f3,610377da6925e7b72ab71a4f,2021-07-29_23h56.27.795,Simcolourproject_2stim_asymm_v5,2020.2.10,MacIntel,60,61025ae37ef11b136ea224fe,response7disk_7,0,2.406,0,"[2,5]",rectangle_4,,,,,,,,,,,,,,,,,,,,,,,,,,,,,,,,,,,,,,,,
,,,,,,,,,,,,150,FF,-65.0390625,-37.953125,1,0,0,response5disk_5,2,1.5879,1.609375,-7.76171875,1,0,0,rectangle_8,1.609375,-7.76171875,1,0,0,1.609375,-7.76171875,1,0,0,0,2,2,0,1,610040fd17c5a03d279f90f3,610377da6925e7b72ab71a4f,2021-07-29_23h56.27.795,Simcolourproject_2stim_asymm_v5,2020.2.10,MacIntel,60,61025ae37ef11b136ea224fe,,,,,,,,,,,,,,,,,,,,,,,,,,,,,,,,,,,,,,,,,,,,,,
,,,,,,,,,,,,16,PF,-35.58203125,-81.80859375,1,0,0,response5disk_5,3,1.4861,9.62890625,4.65625,1,0,0,rectangle_8,9.62890625,4.65625,1,0,0,9.62890625,4.65625,1,0,0,0,3,3,2,1,610040fd17c5a03d279f90f3,610377da6925e7b72ab71a4f,2021-07-29_23h56.27.795,Simcolourproject_2stim_asymm_v5,2020.2.10,MacIntel,60,61025ae37ef11b136ea224fe,,,,,,,,,,,,,,,,,,,,,,,,,,,,,,,,,,,,,,,,,,,,,,
,,,,,,,,,,,,39,PF,57.6875,88.58203125,1,0,0,response1disk_5,7,2.0888,16.13671875,17.7890625,1,0,0,rectangle_8,-32.2421875,68.5078125,1,0,0,-0.92578125,-3.83203125,1,0,0,0,4,4,1,1,610040fd17c5a03d279f90f3,610377da6925e7b72ab71a4f,2021-07-29_23h56.27.795,Simcolourproject_2stim_asymm_v5,2020.2.10,MacIntel,60,61025ae37ef11b136ea224fe,response7disk_7,0,2.3565,0,"[2,5]",rectangle_4,,,,,,,,,,,,,,,,,,,,,,,,,,,,,,,,,,,,,,,,
,,,,,,,,,,,,106,PF,-85.94140625,-48.046875,1,0,0,response5disk_5,2,2.5562,7.64453125,-8.453125,1,0,0,rectangle_8,7.64453125,-8.453125,1,0,0,7.64453125,-8.453125,1,0,0,0,5,5,6,1,610040fd17c5a03d279f90f3,610377da6925e7b72ab71a4f,2021-07-29_23h56.27.795,Simcolourproject_2stim_asymm_v5,2020.2.10,MacIntel,60,61025ae37ef11b136ea224fe,,,,,,,,,,,,,,,,,,,,,,,,,,,,,,,,,,,,,,,,,,,,,,
,,,,,,,,,,,,34,PF,49.2109375,68.3203125,1,0,0,response1disk_5,7,1.5205,10.9375,-16.12109375,1,0,0,rectangle_8,10.9375,-16.12109375,1,0,0,10.9375,-16.12109375,1,0,0,0,6,6,4,1,610040fd17c5a03d279f90f3,610377da6925e7b72ab71a4f,2021-07-29_23h56.27.795,Simcolourproject_2stim_asymm_v5,2020.2.10,MacIntel,60,61025ae37ef11b136ea224fe,,,,,,,,,,,,,,,,,,,,,,,,,,,,,,,,,,,,,,,,,,,,,,
,,,,,,,,,,,,,FF,,,,,,,,1.3208,,,,,,,,,,,,,,,,,,,,,,610040fd17c5a03d279f90f3,610377da6925e7b72ab71a4f,2021-07-29_23h56.27.795,Simcolourproject_2stim_asymm_v5,2020.2.10,MacIntel,60,61025ae37ef11b136ea224fe,,,,,,,space,2.6799,374,-74.82421875,-44.859375,1,0,0,response5disk,,2,-9.859375,-8.0390625,1,0,0,rectangle,-9.859375,-8.0390625,1,0,0,-9.859375,-8.0390625,1,0,0,0,0,0,101,1,,,,,,,,
,,,,,,,,,,,,,FF,,,,,,,,1.1189,,,,,,,,,,,,,,,,,,,,,,610040fd17c5a03d279f90f3,610377da6925e7b72ab71a4f,2021-07-29_23h56.27.795,Simcolourproject_2stim_asymm_v5,2020.2.10,MacIntel,60,61025ae37ef11b136ea224fe,,,,,,,,,3485,-39.2109375,-95.05859375,1,0,0,response5disk,,3,5.671875,-4.4765625,1,0,0,rectangle,5.671875,-4.4765625,1,0,0,5.671875,-4.4765625,1,0,0,0,1,1,122,1,,,,,,,,
,,,,,,,,,,,,,FF,,,,,,,,1.1522,,,,,,,,,,,,,,,,,,,,,,610040fd17c5a03d279f90f3,610377da6925e7b72ab71a4f,2021-07-29_23h56.27.795,Simcolourproject_2stim_asymm_v5,2020.2.10,MacIntel,60,61025ae37ef11b136ea224fe,,,,,,,,,1444,41.2734375,103.1015625,1,0,0,response1disk,,7,4.86328125,-8.14453125,1,0,0,rectangle,4.86328125,-8.14453125,1,0,0,4.86328125,-8.14453125,1,0,0,0,2,2,90,1,,,,,,,,
,,,,,,,,,,,,,FF,,,,,,,,1.6227,,,,,,,,,,,,,,,,,,,,,,610040fd17c5a03d279f90f3,610377da6925e7b72ab71a4f,2021-07-29_23h56.27.795,Simcolourproject_2stim_asymm_v5,2020.2.10,MacIntel,60,61025ae37ef11b136ea224fe,,,,,,,,,2715,-44.40234375,-79.10546875,1,0,0,response5disk,,3,-4.20703125,-0.15625,1,0,0,rectangle,-4.20703125,-0.15625,1,0,0,-4.20703125,-0.15625,1,0,0,0,3,3,89,1,,,,,,,,
,,,,,,,,,,,,,FF,,,,,,,,1.3522,,,,,,,,,,,,,,,,,,,,,,610040fd17c5a03d279f90f3,610377da6925e7b72ab71a4f,2021-07-29_23h56.27.795,Simcolourproject_2stim_asymm_v5,2020.2.10,MacIntel,60,61025ae37ef11b136ea224fe,,,,,,,,,754,102.9296875,53.95703125,1,0,0,response1disk,,6,0.92578125,-17.046875,1,0,0,rectangle,0.92578125,-17.046875,1,0,0,0.92578125,-17.046875,1,0,0,0,4,4,153,1,,,,,,,,
,,,,,,,,,,,,,FF,,,,,,,,0.9534,,,,,,,,,,,,,,,,,,,,,,610040fd17c5a03d279f90f3,610377da6925e7b72ab71a4f,2021-07-29_23h56.27.795,Simcolourproject_2stim_asymm_v5,2020.2.10,MacIntel,60,61025ae37ef11b136ea224fe,,,,,,,,,3317,30.203125,53.69921875,1,0,0,response1disk,,7,-6.4375,-1.56640625,1,0,0,rectangle,-6.4375,-1.56640625,1,0,0,-6.4375,-1.56640625,1,0,0,0,5,5,143,1,,,,,,,,
,,,,,,,,,,,,,FF,,,,,,,,1.0698,,,,,,,,,,,,,,,,,,,,,,610040fd17c5a03d279f90f3,610377da6925e7b72ab71a4f,2021-07-29_23h56.27.795,Simcolourproject_2stim_asymm_v5,2020.2.10,MacIntel,60,61025ae37ef11b136ea224fe,,,,,,,,,4024,-80.6171875,-44.84765625,1,0,0,response5disk,,2,-7.83984375,0.98828125,1,0,0,rectangle,-7.83984375,0.98828125,1,0,0,-7.83984375,0.98828125,1,0,0,0,6,6,156,1,,,,,,,,
,,,,,,,,,,,,,FF,,,,,,,,2.1209,,,,,,,,,,,,,,,,,,,,,,610040fd17c5a03d279f90f3,610377da6925e7b72ab71a4f,2021-07-29_23h56.27.795,Simcolourproject_2stim_asymm_v5,2020.2.10,MacIntel,60,61025ae37ef11b136ea224fe,,,,,,,,,4366,-33.609375,102.0039063,1,0,0,response7disk,,0,-2.50390625,-2.1953125,1,0,0,rectangle,-2.50390625,-2.1953125,1,0,0,-2.50390625,-2.1953125,1,0,0,0,7,7,56,1,,,,,,,,
,,,,,,,,,,,,,FF,,,,,,,,0.852,,,,,,,,,,,,,,,,,,,,,,610040fd17c5a03d279f90f3,610377da6925e7b72ab71a4f,2021-07-29_23h56.27.795,Simcolourproject_2stim_asymm_v5,2020.2.10,MacIntel,60,61025ae37ef11b136ea224fe,,,,,,,,,3432,-68.5703125,34.30078125,1,0,0,response7disk,,1,-11.28125,-7.26171875,1,0,0,rectangle,-11.28125,-7.26171875,1,0,0,-11.28125,-7.26171875,1,0,0,0,8,8,12,1,,,,,,,,
,,,,,,,,,,,,,FF,,,,,,,,1.0373,,,,,,,,,,,,,,,,,,,,,,610040fd17c5a03d279f90f3,610377da6925e7b72ab71a4f,2021-07-29_23h56.27.795,Simcolourproject_2stim_asymm_v5,2020.2.10,MacIntel,60,61025ae37ef11b136ea224fe,,,,,,,,,3962,-49.13671875,-79.05078125,1,0,0,response5disk,,3,18.23046875,-8.765625,1,0,0,rectangle,18.23046875,-8.765625,1,0,0,18.23046875,-8.765625,1,0,0,0,9,9,126,1,,,,,,,,
,,,,,,,,,,,,,FF,,,,,,,,1.6714,,,,,,,,,,,,,,,,,,,,,,610040fd17c5a03d279f90f3,610377da6925e7b72ab71a4f,2021-07-29_23h56.27.795,Simcolourproject_2stim_asymm_v5,2020.2.10,MacIntel,60,61025ae37ef11b136ea224fe,,,,,,,,,2253,50.03515625,-54.12109375,1,0,0,response3disk,,4,20.6953125,-14.8359375,1,0,0,rectangle,20.6953125,-14.8359375,1,0,0,20.6953125,-14.8359375,1,0,0,0,10,10,80,1,,,,,,,,
,,,,,,,,,,,,,FF,,,,,,,,1.421,,,,,,,,,,,,,,,,,,,,,,610040fd17c5a03d279f90f3,610377da6925e7b72ab71a4f,2021-07-29_23h56.27.795,Simcolourproject_2stim_asymm_v5,2020.2.10,MacIntel,60,61025ae37ef11b136ea224fe,,,,,,,,,2103,-30,-77.82421875,1,0,0,response5disk,,3,-9.76171875,4.17578125,1,0,0,rectangle,-9.76171875,4.17578125,1,0,0,-9.76171875,4.17578125,1,0,0,0,11,11,30,1,,,,,,,,
,,,,,,,,,,,,,FF,,,,,,,,2.2061,,,,,,,,,,,,,,,,,,,,,,610040fd17c5a03d279f90f3,610377da6925e7b72ab71a4f,2021-07-29_23h56.27.795,Simcolourproject_2stim_asymm_v5,2020.2.10,MacIntel,60,61025ae37ef11b136ea224fe,,,,,,,,,2819,47.91796875,108.2890625,1,0,0,response1disk,,7,-15.91015625,-1.8984375,1,0,0,rectangle,-15.91015625,-1.8984375,1,0,0,-15.91015625,-1.8984375,1,0,0,0,12,12,139,1,,,,,,,,
,,,,,,,,,,,,,FF,,,,,,,,0.7691,,,,,,,,,,,,,,,,,,,,,,610040fd17c5a03d279f90f3,610377da6925e7b72ab71a4f,2021-07-29_23h56.27.795,Simcolourproject_2stim_asymm_v5,2020.2.10,MacIntel,60,61025ae37ef11b136ea224fe,,,,,,,,,1569,40.51171875,95.625,1,0,0,response1disk,,7,-34.609375,-7.234375,1,0,0,rectangle,-34.609375,-7.234375,1,0,0,-34.609375,-7.234375,1,0,0,0,13,13,18,1,,,,,,,,
,,,,,,,,,,,,,FF,,,,,,,,1.0716,,,,,,,,,,,,,,,,,,,,,,610040fd17c5a03d279f90f3,610377da6925e7b72ab71a4f,2021-07-29_23h56.27.795,Simcolourproject_2stim_asymm_v5,2020.2.10,MacIntel,60,61025ae37ef11b136ea224fe,,,,,,,,,1426,85.87109375,27.25390625,1,0,0,response1disk,,6,4.64453125,-5.0078125,1,0,0,rectangle,-86.95703125,-42.109375,1,0,0,-5.1171875,-8.53515625,1,0,0,0,14,14,79,1,,response5disk_3,TRUE,2,2,"[134,43,146,15,285,188,310,66,129,235,168,231,100,230,317,86,260,51,226,77]",2.5749,rectangle
,,,,,,,,,,,,,FF,,,,,,,,1.6887,,,,,,,,,,,,,,,,,,,,,,610040fd17c5a03d279f90f3,610377da6925e7b72ab71a4f,2021-07-29_23h56.27.795,Simcolourproject_2stim_asymm_v5,2020.2.10,MacIntel,60,61025ae37ef11b136ea224fe,,,,,,,,,1503,72.9921875,37.61328125,1,0,0,response1disk,,6,-8.59375,-1.71484375,0,0,1,rectangle,-8.59375,-1.71484375,0,0,1,-8.59375,-1.71484375,0,0,1,0,15,15,19,1,,,,,,,,
,,,,,,,,,,,,,FF,,,,,,,,1.9716,,,,,,,,,,,,,,,,,,,,,,610040fd17c5a03d279f90f3,610377da6925e7b72ab71a4f,2021-07-29_23h56.27.795,Simcolourproject_2stim_asymm_v5,2020.2.10,MacIntel,60,61025ae37ef11b136ea224fe,,,,,,,,,2039,-59.296875,-36.7109375,1,0,1,response5disk,,2,-6.796875,5.87109375,1,0,1,rectangle,-6.796875,5.87109375,1,0,1,-6.796875,5.87109375,1,0,1,0,16,16,109,1,,,,,,,,
,,,,,,,,,,,,,FF,,,,,,,,1.0359,,,,,,,,,,,,,,,,,,,,,,610040fd17c5a03d279f90f3,610377da6925e7b72ab71a4f,2021-07-29_23h56.27.795,Simcolourproject_2stim_asymm_v5,2020.2.10,MacIntel,60,61025ae37ef11b136ea224fe,,,,,,,,,3941,-72.1640625,-45.01953125,1,0,1,response5disk,,2,3.5859375,-5.0390625,1,0,1,rectangle,3.5859375,-5.0390625,1,0,1,3.5859375,-5.0390625,1,0,1,0,17,17,141,1,,,,,,,,
,,,,,,,,,,,,,FF,,,,,,,,1.3042,,,,,,,,,,,,,,,,,,,,,,610040fd17c5a03d279f90f3,610377da6925e7b72ab71a4f,2021-07-29_23h56.27.795,Simcolourproject_2stim_asymm_v5,2020.2.10,MacIntel,60,61025ae37ef11b136ea224fe,,,,,,,,,1603,-35.48046875,78.94140625,1,0,1,response7disk,,0,-9.45703125,-11.32421875,1,0,1,rectangle,-9.45703125,-11.32421875,1,0,1,-9.45703125,-11.32421875,1,0,1,0,18,18,124,1,,,,,,,,
,,,,,,,,,,,,,FF,,,,,,,,1.4376,,,,,,,,,,,,,,,,,,,,,,610040fd17c5a03d279f90f3,610377da6925e7b72ab71a4f,2021-07-29_23h56.27.795,Simcolourproject_2stim_asymm_v5,2020.2.10,MacIntel,60,61025ae37ef11b136ea224fe,,,,,,,,,1626,-39.65625,-62.859375,1,0,1,response5disk,,3,7.96484375,-1.91015625,1,0,1,rectangle,7.96484375,-1.91015625,1,0,1,7.96484375,-1.91015625,1,0,1,0,19,19,61,1,,,,,,,,
,,,,,,,,,,,,,FF,,,,,,,,1.822,,,,,,,,,,,,,,,,,,,,,,610040fd17c5a03d279f90f3,610377da6925e7b72ab71a4f,2021-07-29_23h56.27.795,Simcolourproject_2stim_asymm_v5,2020.2.10,MacIntel,60,61025ae37ef11b136ea224fe,,,,,,,,,2195,78.00390625,-30.390625,1,0,1,response3disk,,5,22.10546875,7.37890625,1,0,1,rectangle,22.10546875,7.37890625,1,0,1,22.10546875,7.37890625,1,0,1,0,20,20,125,1,,,,,,,,
,,,,,,,,,,,,,FF,,,,,,,,1.2378,,,,,,,,,,,,,,,,,,,,,,610040fd17c5a03d279f90f3,610377da6925e7b72ab71a4f,2021-07-29_23h56.27.795,Simcolourproject_2stim_asymm_v5,2020.2.10,MacIntel,60,61025ae37ef11b136ea224fe,,,,,,,,,3890,54.5390625,79.3125,1,0,1,response1disk,,7,2.85546875,-0.82421875,1,0,1,rectangle,2.85546875,-0.82421875,1,0,1,2.85546875,-0.82421875,1,0,1,0,21,21,10,1,,,,,,,,
,,,,,,,,,,,,,FF,,,,,,,,0.8206,,,,,,,,,,,,,,,,,,,,,,610040fd17c5a03d279f90f3,610377da6925e7b72ab71a4f,2021-07-29_23h56.27.795,Simcolourproject_2stim_asymm_v5,2020.2.10,MacIntel,60,61025ae37ef11b136ea224fe,,,,,,,,,792,29.80859375,64.98828125,1,0,1,response1disk,,7,-1.98828125,-1.83984375,1,0,1,rectangle,-1.98828125,-1.83984375,1,0,1,-1.98828125,-1.83984375,1,0,1,0,22,22,94,1,,,,,,,,
,,,,,,,,,,,,,FF,,,,,,,,1.0527,,,,,,,,,,,,,,,,,,,,,,610040fd17c5a03d279f90f3,610377da6925e7b72ab71a4f,2021-07-29_23h56.27.795,Simcolourproject_2stim_asymm_v5,2020.2.10,MacIntel,60,61025ae37ef11b136ea224fe,,,,,,,,,2775,-40.53515625,69.12109375,1,0,1,response7disk,,0,5.36328125,9.69921875,1,0,1,rectangle,5.36328125,9.69921875,1,0,1,5.36328125,9.69921875,1,0,1,0,23,23,39,1,,,,,,,,
,,,,,,,,,,,,,FF,,,,,,,,0.9515,,,,,,,,,,,,,,,,,,,,,,610040fd17c5a03d279f90f3,610377da6925e7b72ab71a4f,2021-07-29_23h56.27.795,Simcolourproject_2stim_asymm_v5,2020.2.10,MacIntel,60,61025ae37ef11b136ea224fe,,,,,,,,,2822,43.70703125,72.984375,1,0,1,response1disk,,7,7.57421875,1.6953125,1,0,1,rectangle,7.57421875,1.6953125,1,0,1,7.57421875,1.6953125,1,0,1,0,24,24,123,1,,,,,,,,
,,,,,,,,,,,,,FF,,,,,,,,1.7041,,,,,,,,,,,,,,,,,,,,,,610040fd17c5a03d279f90f3,610377da6925e7b72ab71a4f,2021-07-29_23h56.27.795,Simcolourproject_2stim_asymm_v5,2020.2.10,MacIntel,60,61025ae37ef11b136ea224fe,,,,,,,,,4082,32.328125,-78.9453125,1,0,1,response3disk,,4,-0.9375,-7.65234375,1,0,1,rectangle,-0.9375,-7.65234375,1,0,1,-0.9375,-7.65234375,1,0,1,0,25,25,99,1,,,,,,,,
,,,,,,,,,,,,,FF,,,,,,,,1.4204,,,,,,,,,,,,,,,,,,,,,,610040fd17c5a03d279f90f3,610377da6925e7b72ab71a4f,2021-07-29_23h56.27.795,Simcolourproject_2stim_asymm_v5,2020.2.10,MacIntel,60,61025ae37ef11b136ea224fe,,,,,,,,,2553,-75.18359375,-44.16796875,1,0,1,response5disk,,2,4.51953125,-5.35546875,1,0,1,rectangle,4.51953125,-5.35546875,1,0,1,4.51953125,-5.35546875,1,0,1,0,26,26,87,1,,,,,,,,
,,,,,,,,,,,,,FF,,,,,,,,1.4221,,,,,,,,,,,,,,,,,,,,,,610040fd17c5a03d279f90f3,610377da6925e7b72ab71a4f,2021-07-29_23h56.27.795,Simcolourproject_2stim_asymm_v5,2020.2.10,MacIntel,60,61025ae37ef11b136ea224fe,,,,,,,,,732,19.79296875,-87.12890625,1,0,1,response3disk,,4,0.53125,0.265625,1,0,1,rectangle,0.53125,0.265625,1,0,1,0.53125,0.265625,1,0,1,0,27,27,72,1,,,,,,,,
,,,,,,,,,,,,,FF,,,,,,,,1.1366,,,,,,,,,,,,,,,,,,,,,,610040fd17c5a03d279f90f3,610377da6925e7b72ab71a4f,2021-07-29_23h56.27.795,Simcolourproject_2stim_asymm_v5,2020.2.10,MacIntel,60,61025ae37ef11b136ea224fe,,,,,,,,,3585,-71.59765625,-38.44140625,1,0,1,response5disk,,2,2.234375,-6.80078125,1,0,1,rectangle,2.234375,-6.80078125,1,0,1,2.234375,-6.80078125,1,0,1,0,28,28,107,1,,,,,,,,
,,,,,,,,,,,,,FF,,,,,,,,1.0365,,,,,,,,,,,,,,,,,,,,,,610040fd17c5a03d279f90f3,610377da6925e7b72ab71a4f,2021-07-29_23h56.27.795,Simcolourproject_2stim_asymm_v5,2020.2.10,MacIntel,60,61025ae37ef11b136ea224fe,,,,,,,,,2946,-74.72265625,-57.13671875,1,0,1,response5disk,,2,0.08984375,2.26953125,1,0,1,rectangle,0.08984375,2.26953125,1,0,1,0.08984375,2.26953125,1,0,1,0,29,29,70,1,,,,,,,,
,,,,,,,,,,,,,FF,,,,,,,,0.9709,,,,,,,,,,,,,,,,,,,,,,610040fd17c5a03d279f90f3,610377da6925e7b72ab71a4f,2021-07-29_23h56.27.795,Simcolourproject_2stim_asymm_v5,2020.2.10,MacIntel,60,61025ae37ef11b136ea224fe,,,,,,,,,2699,83.68359375,53.83984375,1,0,1,response1disk,,6,1.171875,-0.0625,1,0,1,rectangle,1.171875,-0.0625,1,0,1,1.171875,-0.0625,1,0,1,0,30,30,127,1,,,,,,,,
,,,,,,,,,,,,,FF,,,,,,,,1.1866,,,,,,,,,,,,,,,,,,,,,,610040fd17c5a03d279f90f3,610377da6925e7b72ab71a4f,2021-07-29_23h56.27.795,Simcolourproject_2stim_asymm_v5,2020.2.10,MacIntel,60,61025ae37ef11b136ea224fe,,,,,,,,,2892,-80.46875,-36.59765625,1,0,1,response5disk,,2,-2.0078125,1.55859375,1,0,1,rectangle,-2.0078125,1.55859375,1,0,1,-2.0078125,1.55859375,1,0,1,0,31,31,35,1,,,,,,,,
,,,,,,,,,,,,,FF,,,,,,,,0.9191,,,,,,,,,,,,,,,,,,,,,,610040fd17c5a03d279f90f3,610377da6925e7b72ab71a4f,2021-07-29_23h56.27.795,Simcolourproject_2stim_asymm_v5,2020.2.10,MacIntel,60,61025ae37ef11b136ea224fe,,,,,,,,,2454,104.953125,51.6640625,1,0,1,response1disk,,6,-1.8125,-12.6328125,1,0,1,rectangle,-1.8125,-12.6328125,1,0,1,-1.8125,-12.6328125,1,0,1,0,32,32,28,1,,,,,,,,
,,,,,,,,,,,,,FF,,,,,,,,1.6725,,,,,,,,,,,,,,,,,,,,,,610040fd17c5a03d279f90f3,610377da6925e7b72ab71a4f,2021-07-29_23h56.27.795,Simcolourproject_2stim_asymm_v5,2020.2.10,MacIntel,60,61025ae37ef11b136ea224fe,,,,,,,,,586,53.296875,85.5390625,1,0,1,response1disk,,7,-33.26171875,-12.1640625,1,0,1,rectangle,-33.26171875,-12.1640625,1,0,1,-33.26171875,-12.1640625,1,0,1,0,33,33,53,1,,,,,,,,
,,,,,,,,,,,,,FF,,,,,,,,1.7215,,,,,,,,,,,,,,,,,,,,,,610040fd17c5a03d279f90f3,610377da6925e7b72ab71a4f,2021-07-29_23h56.27.795,Simcolourproject_2stim_asymm_v5,2020.2.10,MacIntel,60,61025ae37ef11b136ea224fe,,,,,,,,,490,68.0546875,-39.2421875,1,0,1,response3disk,,5,21.78125,12.6171875,1,0,1,rectangle,21.78125,12.6171875,1,0,1,21.78125,12.6171875,1,0,1,0,34,34,14,1,,,,,,,,
,,,,,,,,,,,,,FF,,,,,,,,1.0368,,,,,,,,,,,,,,,,,,,,,,610040fd17c5a03d279f90f3,610377da6925e7b72ab71a4f,2021-07-29_23h56.27.795,Simcolourproject_2stim_asymm_v5,2020.2.10,MacIntel,60,61025ae37ef11b136ea224fe,,,,,,,,,95,-57.69921875,33.79296875,1,0,1,response7disk,,1,-4.50390625,-12.73046875,1,0,1,rectangle,-4.50390625,-12.73046875,1,0,1,-4.50390625,-12.73046875,1,0,1,0,35,35,63,1,,,,,,,,
,,,,,,,,,,,,,FF,,,,,,,,2.3394,,,,,,,,,,,,,,,,,,,,,,610040fd17c5a03d279f90f3,610377da6925e7b72ab71a4f,2021-07-29_23h56.27.795,Simcolourproject_2stim_asymm_v5,2020.2.10,MacIntel,60,61025ae37ef11b136ea224fe,,,,,,,,,570,80.546875,-52.96484375,1,0,1,response3disk,,5,11.9375,-0.1796875,1,0,1,rectangle,11.9375,-0.1796875,1,0,1,11.9375,-0.1796875,1,0,1,0,36,36,152,1,,,,,,,,
,,,,,,,,,,,,,FF,,,,,,,,1.2372,,,,,,,,,,,,,,,,,,,,,,610040fd17c5a03d279f90f3,610377da6925e7b72ab71a4f,2021-07-29_23h56.27.795,Simcolourproject_2stim_asymm_v5,2020.2.10,MacIntel,60,61025ae37ef11b136ea224fe,,,,,,,,,3337,50.22265625,-103.9960938,1,0,1,response3disk,,4,10.171875,-9.9609375,1,0,1,rectangle,10.171875,-9.9609375,1,0,1,10.171875,-9.9609375,1,0,1,0,37,37,146,1,,,,,,,,
,,,,,,,,,,,,,FF,,,,,,,,1.0529,,,,,,,,,,,,,,,,,,,,,,610040fd17c5a03d279f90f3,610377da6925e7b72ab71a4f,2021-07-29_23h56.27.795,Simcolourproject_2stim_asymm_v5,2020.2.10,MacIntel,60,61025ae37ef11b136ea224fe,,,,,,,,,2061,94.23828125,33.54296875,1,0,1,response1disk,,6,18.06640625,1.29296875,1,0,1,rectangle,18.06640625,1.29296875,1,0,1,18.06640625,1.29296875,1,0,1,0,38,38,7,1,,,,,,,,
,,,,,,,,,,,,,FF,,,,,,,,0.8358,,,,,,,,,,,,,,,,,,,,,,610040fd17c5a03d279f90f3,610377da6925e7b72ab71a4f,2021-07-29_23h56.27.795,Simcolourproject_2stim_asymm_v5,2020.2.10,MacIntel,60,61025ae37ef11b136ea224fe,,,,,,,,,2023,52.04296875,80.3515625,1,0,1,response1disk,,7,-3.50390625,-3.8359375,1,0,1,rectangle,-3.50390625,-3.8359375,1,0,1,-3.50390625,-3.8359375,1,0,1,0,39,39,8,1,,,,,,,,
,,,,,,,,,,,,,FF,,,,,,,,3.9604,,,,,,,,,,,,,,,,,,,,,,610040fd17c5a03d279f90f3,610377da6925e7b72ab71a4f,2021-07-29_23h56.27.795,Simcolourproject_2stim_asymm_v5,2020.2.10,MacIntel,60,61025ae37ef11b136ea224fe,,,,,,,,,1793,94.0703125,55.3359375,1,0,1,response1disk,,6,3.5625,0.41015625,1,0,1,rectangle,3.5625,0.41015625,1,0,1,3.5625,0.41015625,1,0,1,0,40,40,9,1,,,,,,,,
,,,,,,,,,,,,,FF,,,,,,,,1.0695,,,,,,,,,,,,,,,,,,,,,,610040fd17c5a03d279f90f3,610377da6925e7b72ab71a4f,2021-07-29_23h56.27.795,Simcolourproject_2stim_asymm_v5,2020.2.10,MacIntel,60,61025ae37ef11b136ea224fe,,,,,,,,,819,-42.11328125,-73.80859375,1,0,1,response5disk,,3,8.59375,-5.55078125,1,0,1,rectangle,8.59375,-5.55078125,1,0,1,8.59375,-5.55078125,1,0,1,0,41,41,110,1,,,,,,,,
,,,,,,,,,,,,,FF,,,,,,,,1.1031,,,,,,,,,,,,,,,,,,,,,,610040fd17c5a03d279f90f3,610377da6925e7b72ab71a4f,2021-07-29_23h56.27.795,Simcolourproject_2stim_asymm_v5,2020.2.10,MacIntel,60,61025ae37ef11b136ea224fe,,,,,,,,,1425,43.66796875,75.875,1,0,1,response1disk,,7,6.82421875,-8.609375,1,0,1,rectangle,-39.8828125,-97.734375,1,0,1,4.9921875,-12.93359375,1,0,1,0,42,42,112,1,,response5disk_3,TRUE,3,3,"[134,43,146,15,285,188,310,66,129,235,168,231,100,230,317,86,260,51,226,77]",1.8538,rectangle
,,,,,,,,,,,,,FF,,,,,,,,0.8014,,,,,,,,,,,,,,,,,,,,,,610040fd17c5a03d279f90f3,610377da6925e7b72ab71a4f,2021-07-29_23h56.27.795,Simcolourproject_2stim_asymm_v5,2020.2.10,MacIntel,60,61025ae37ef11b136ea224fe,,,,,,,,,1302,-71.23046875,-30.86328125,1,0,1,response5disk,,2,26.05859375,9.16796875,1,0,1,rectangle,26.05859375,9.16796875,1,0,1,26.05859375,9.16796875,1,0,1,0,43,43,85,1,,,,,,,,
,,,,,,,,,,,,,FF,,,,,,,,0.9707,,,,,,,,,,,,,,,,,,,,,,610040fd17c5a03d279f90f3,610377da6925e7b72ab71a4f,2021-07-29_23h56.27.795,Simcolourproject_2stim_asymm_v5,2020.2.10,MacIntel,60,61025ae37ef11b136ea224fe,,,,,,,,,3875,-19.765625,96.42578125,1,0,1,response7disk,,0,-11,6.5234375,1,0,1,rectangle,-11,6.5234375,1,0,1,-11,6.5234375,1,0,1,0,44,44,98,1,,,,,,,,
,,,,,,,,,,,,,FF,,,,,,,,4.0769,,,,,,,,,,,,,,,,,,,,,,610040fd17c5a03d279f90f3,610377da6925e7b72ab71a4f,2021-07-29_23h56.27.795,Simcolourproject_2stim_asymm_v5,2020.2.10,MacIntel,60,61025ae37ef11b136ea224fe,,,,,,,,,3539,-68.375,-85.5546875,1,0,1,response5disk,,3,-5.3125,-3.76953125,1,0,1,rectangle,-5.3125,-3.76953125,1,0,1,-5.3125,-3.76953125,1,0,1,0,45,45,137,1,,,,,,,,
,,,,,,,,,,,,,FF,,,,,,,,0.8838,,,,,,,,,,,,,,,,,,,,,,610040fd17c5a03d279f90f3,610377da6925e7b72ab71a4f,2021-07-29_23h56.27.795,Simcolourproject_2stim_asymm_v5,2020.2.10,MacIntel,60,61025ae37ef11b136ea224fe,,,,,,,,,2500,-64.73046875,-51.12109375,1,0,1,response5disk,,2,-0.5625,-14.94140625,1,0,1,rectangle,-0.5625,-14.94140625,1,0,1,-0.5625,-14.94140625,1,0,1,0,46,46,102,1,,,,,,,,
,,,,,,,,,,,,,FF,,,,,,,,0.8347,,,,,,,,,,,,,,,,,,,,,,610040fd17c5a03d279f90f3,610377da6925e7b72ab71a4f,2021-07-29_23h56.27.795,Simcolourproject_2stim_asymm_v5,2020.2.10,MacIntel,60,61025ae37ef11b136ea224fe,,,,,,,,,2598,72.5546875,16.0078125,1,0,1,response1disk,,6,5.56640625,-2.16015625,1,0,1,rectangle,5.56640625,-2.16015625,1,0,1,5.56640625,-2.16015625,1,0,1,0,47,47,55,1,,,,,,,,
,,,,,,,,,,,,,FF,,,,,,,,0.8525,,,,,,,,,,,,,,,,,,,,,,610040fd17c5a03d279f90f3,610377da6925e7b72ab71a4f,2021-07-29_23h56.27.795,Simcolourproject_2stim_asymm_v5,2020.2.10,MacIntel,60,61025ae37ef11b136ea224fe,,,,,,,,,717,-43.09375,72.9609375,1,0,1,response7disk,,0,-12.91796875,-4.84765625,1,0,1,rectangle,-12.91796875,-4.84765625,1,0,1,-12.91796875,-4.84765625,1,0,1,0,48,48,95,1,,,,,,,,
,,,,,,,,,,,,,FF,,,,,,,,1.6855,,,,,,,,,,,,,,,,,,,,,,610040fd17c5a03d279f90f3,610377da6925e7b72ab71a4f,2021-07-29_23h56.27.795,Simcolourproject_2stim_asymm_v5,2020.2.10,MacIntel,60,61025ae37ef11b136ea224fe,,,,,,,,,418,36.15625,-80.703125,1,0,1,response3disk,,4,-3.9453125,4.6015625,1,0,1,rectangle,-3.9453125,4.6015625,1,0,1,-3.9453125,4.6015625,1,0,1,0,49,49,73,1,,,,,,,,
,,,,,,,,,,,,,FF,,,,,,,,0.9028,,,,,,,,,,,,,,,,,,,,,,610040fd17c5a03d279f90f3,610377da6925e7b72ab71a4f,2021-07-29_23h56.27.795,Simcolourproject_2stim_asymm_v5,2020.2.10,MacIntel,60,61025ae37ef11b136ea224fe,,,,,,,,,2458,58.94921875,38.45703125,1,0,1,response1disk,,6,-3.64453125,-1.87109375,1,0,1,rectangle,84.140625,-62.3828125,1,0,1,14.41015625,-3.90234375,1,0,1,0,50,50,23,1,,response3disk_3,TRUE,5,5,"[134,43,146,15,285,188,310,66,129,235,168,231,100,230,317,86,260,51,226,77]",2.5244,rectangle
,,,,,,,,,,,,,FF,,,,,,,,1.2379,,,,,,,,,,,,,,,,,,,,,,610040fd17c5a03d279f90f3,610377da6925e7b72ab71a4f,2021-07-29_23h56.27.795,Simcolourproject_2stim_asymm_v5,2020.2.10,MacIntel,60,61025ae37ef11b136ea224fe,,,,,,,,,3056,-47.33203125,-70.453125,1,0,1,response5disk,,3,-8.23828125,5.08984375,1,0,1,rectangle,-8.23828125,5.08984375,1,0,1,-8.23828125,5.08984375,1,0,1,0,51,51,132,1,,,,,,,,
,,,,,,,,,,,,,FF,,,,,,,,1.2352,,,,,,,,,,,,,,,,,,,,,,610040fd17c5a03d279f90f3,610377da6925e7b72ab71a4f,2021-07-29_23h56.27.795,Simcolourproject_2stim_asymm_v5,2020.2.10,MacIntel,60,61025ae37ef11b136ea224fe,,,,,,,,,849,60.6484375,78.26171875,1,0,1,response1disk,,7,-10.90625,-0.546875,1,0,1,rectangle,-10.90625,-0.546875,1,0,1,-10.90625,-0.546875,1,0,1,0,52,52,82,1,,,,,,,,
,,,,,,,,,,,,,FF,,,,,,,,1.6876,,,,,,,,,,,,,,,,,,,,,,610040fd17c5a03d279f90f3,610377da6925e7b72ab71a4f,2021-07-29_23h56.27.795,Simcolourproject_2stim_asymm_v5,2020.2.10,MacIntel,60,61025ae37ef11b136ea224fe,,,,,,,,,3262,116.953125,58.49609375,1,0,1,response1disk,,6,5.68359375,1,1,0,1,rectangle,5.68359375,1,1,0,1,5.68359375,1,1,0,1,0,53,53,38,1,,,,,,,,
,,,,,,,,,,,,,FF,,,,,,,,1.1865,,,,,,,,,,,,,,,,,,,,,,610040fd17c5a03d279f90f3,610377da6925e7b72ab71a4f,2021-07-29_23h56.27.795,Simcolourproject_2stim_asymm_v5,2020.2.10,MacIntel,60,61025ae37ef11b136ea224fe,,,,,,,,,3745,-30.5859375,-67.1484375,1,0,1,response5disk,,3,3.02734375,3.3515625,1,0,1,rectangle,3.02734375,3.3515625,1,0,1,3.02734375,3.3515625,1,0,1,0,54,54,111,1,,,,,,,,
,,,,,,,,,,,,,FF,,,,,,,,2.0389,,,,,,,,,,,,,,,,,,,,,,610040fd17c5a03d279f90f3,610377da6925e7b72ab71a4f,2021-07-29_23h56.27.795,Simcolourproject_2stim_asymm_v5,2020.2.10,MacIntel,60,61025ae37ef11b136ea224fe,,,,,,,,,2245,44.5703125,-108.2070313,1,0,1,response3disk,,4,10.31640625,-9.234375,1,0,1,rectangle,10.31640625,-9.234375,1,0,1,10.31640625,-9.234375,1,0,1,0,55,55,0,1,,,,,,,,
,,,,,,,,,,,,,FF,,,,,,,,1.7718,,,,,,,,,,,,,,,,,,,,,,610040fd17c5a03d279f90f3,610377da6925e7b72ab71a4f,2021-07-29_23h56.27.795,Simcolourproject_2stim_asymm_v5,2020.2.10,MacIntel,60,61025ae37ef11b136ea224fe,,,,,,,,,811,-47.140625,-63.90625,1,0,1,response5disk,,3,-18.18359375,2.078125,1,0,1,rectangle,-18.18359375,2.078125,1,0,1,-18.18359375,2.078125,1,0,1,0,56,56,119,1,,,,,,,,
,,,,,,,,,,,,,FF,,,,,,,,0.8019,,,,,,,,,,,,,,,,,,,,,,610040fd17c5a03d279f90f3,610377da6925e7b72ab71a4f,2021-07-29_23h56.27.795,Simcolourproject_2stim_asymm_v5,2020.2.10,MacIntel,60,61025ae37ef11b136ea224fe,,,,,,,,,3332,-85.65625,-55.89453125,1,0,1,response5disk,,2,4.99609375,-7.26171875,1,0,1,rectangle,4.99609375,-7.26171875,1,0,1,4.99609375,-7.26171875,1,0,1,0,57,57,77,1,,,,,,,,
,,,,,,,,,,,,,FF,,,,,,,,1.1874,,,,,,,,,,,,,,,,,,,,,,610040fd17c5a03d279f90f3,610377da6925e7b72ab71a4f,2021-07-29_23h56.27.795,Simcolourproject_2stim_asymm_v5,2020.2.10,MacIntel,60,61025ae37ef11b136ea224fe,,,,,,,,,487,81.9609375,95.4375,1,0,1,response1disk,,7,11.1796875,-8.171875,1,0,1,rectangle,11.1796875,-8.171875,1,0,1,11.1796875,-8.171875,1,0,1,0,58,58,49,1,,,,,,,,
,,,,,,,,,,,,,FF,,,,,,,,1.7559,,,,,,,,,,,,,,,,,,,,,,610040fd17c5a03d279f90f3,610377da6925e7b72ab71a4f,2021-07-29_23h56.27.795,Simcolourproject_2stim_asymm_v5,2020.2.10,MacIntel,60,61025ae37ef11b136ea224fe,,,,,,,,,4155,98.33203125,76.94921875,1,0,1,response1disk,,6,-10.5078125,-1.55859375,1,0,1,rectangle,-10.5078125,-1.55859375,1,0,1,-10.5078125,-1.55859375,1,0,1,0,59,59,103,1,,,,,,,,
,,,,,,,,,,,,,FF,,,,,,,,2.6406,,,,,,,,,,,,,,,,,,,,,,610040fd17c5a03d279f90f3,610377da6925e7b72ab71a4f,2021-07-29_23h56.27.795,Simcolourproject_2stim_asymm_v5,2020.2.10,MacIntel,60,61025ae37ef11b136ea224fe,,,,,,,,,1140,-73.12890625,-51.6953125,1,0,1,response5disk,,2,-9.8125,11.140625,1,0,1,rectangle,-9.8125,11.140625,1,0,1,-9.8125,11.140625,1,0,1,0,60,60,157,1,,,,,,,,
,,,,,,,,,,,,,FF,,,,,,,,1.4211,,,,,,,,,,,,,,,,,,,,,,610040fd17c5a03d279f90f3,610377da6925e7b72ab71a4f,2021-07-29_23h56.27.795,Simcolourproject_2stim_asymm_v5,2020.2.10,MacIntel,60,61025ae37ef11b136ea224fe,,,,,,,,,3653,73.140625,-23.4765625,1,0,1,response3disk,,5,5.33203125,-8.5390625,1,0,1,rectangle,5.33203125,-8.5390625,1,0,1,5.33203125,-8.5390625,1,0,1,0,61,61,144,1,,,,,,,,
,,,,,,,,,,,,,FF,,,,,,,,1.5706,,,,,,,,,,,,,,,,,,,,,,610040fd17c5a03d279f90f3,610377da6925e7b72ab71a4f,2021-07-29_23h56.27.795,Simcolourproject_2stim_asymm_v5,2020.2.10,MacIntel,60,61025ae37ef11b136ea224fe,,,,,,,,,625,93.89453125,60.109375,1,0,1,response1disk,,6,23.3828125,7.82421875,1,0,1,rectangle,23.3828125,7.82421875,1,0,1,23.3828125,7.82421875,1,0,1,0,62,62,96,1,,,,,,,,
,,,,,,,,,,,,,FF,,,,,,,,1.3868,,,,,,,,,,,,,,,,,,,,,,610040fd17c5a03d279f90f3,610377da6925e7b72ab71a4f,2021-07-29_23h56.27.795,Simcolourproject_2stim_asymm_v5,2020.2.10,MacIntel,60,61025ae37ef11b136ea224fe,,,,,,,,,2887,-84.4375,-27.6953125,1,0,1,response5disk,,2,-4.1328125,-7.5625,1,0,1,rectangle,-4.1328125,-7.5625,1,0,1,-4.1328125,-7.5625,1,0,1,0,63,63,45,1,,,,,,,,
,,,,,,,,,,,,,FF,,,,,,,,2.0723,,,,,,,,,,,,,,,,,,,,,,610040fd17c5a03d279f90f3,610377da6925e7b72ab71a4f,2021-07-29_23h56.27.795,Simcolourproject_2stim_asymm_v5,2020.2.10,MacIntel,60,61025ae37ef11b136ea224fe,,,,,,,,,2861,51.48046875,92.796875,1,0,1,response1disk,,7,7.4921875,-4.5546875,1,0,1,rectangle,7.4921875,-4.5546875,1,0,1,7.4921875,-4.5546875,1,0,1,0,64,64,134,1,,,,,,,,
,,,,,,,,,,,,,FF,,,,,,,,2.4392,,,,,,,,,,,,,,,,,,,,,,610040fd17c5a03d279f90f3,610377da6925e7b72ab71a4f,2021-07-29_23h56.27.795,Simcolourproject_2stim_asymm_v5,2020.2.10,MacIntel,60,61025ae37ef11b136ea224fe,,,,,,,,,1968,-76.0703125,38.20703125,1,0,1,response7disk,,1,6.27734375,-11.7421875,1,0,1,rectangle,107.1835938,49.85546875,1,0,1,-1.97265625,-15.3046875,1,0,1,0,65,65,138,1,,response1disk_3,TRUE,6,6,"[134,43,146,15,285,188,310,66,129,235,168,231,100,230,317,86,260,51,226,77]",1.7715,rectangle
,,,,,,,,,,,,,FF,,,,,,,,0.8366,,,,,,,,,,,,,,,,,,,,,,610040fd17c5a03d279f90f3,610377da6925e7b72ab71a4f,2021-07-29_23h56.27.795,Simcolourproject_2stim_asymm_v5,2020.2.10,MacIntel,60,61025ae37ef11b136ea224fe,,,,,,,,,98,-81.0234375,-50.609375,1,0,1,response5disk,,2,-4.96484375,2.3515625,1,0,1,rectangle,-4.96484375,2.3515625,1,0,1,-4.96484375,2.3515625,1,0,1,0,66,66,22,1,,,,,,,,
,,,,,,,,,,,,,FF,,,,,,,,0.8519,,,,,,,,,,,,,,,,,,,,,,610040fd17c5a03d279f90f3,610377da6925e7b72ab71a4f,2021-07-29_23h56.27.795,Simcolourproject_2stim_asymm_v5,2020.2.10,MacIntel,60,61025ae37ef11b136ea224fe,,,,,,,,,2779,-83.85546875,24.09375,1,0,1,response7disk,,1,9.5546875,-10.61328125,1,0,1,rectangle,9.5546875,-10.61328125,1,0,1,9.5546875,-10.61328125,1,0,1,0,67,67,42,1,,,,,,,,
,,,,,,,,,,,,,FF,,,,,,,,1.0019,,,,,,,,,,,,,,,,,,,,,,610040fd17c5a03d279f90f3,610377da6925e7b72ab71a4f,2021-07-29_23h56.27.795,Simcolourproject_2stim_asymm_v5,2020.2.10,MacIntel,60,61025ae37ef11b136ea224fe,,,,,,,,,3212,-76.8046875,-56.765625,1,0,1,response5disk,,2,-18.8125,12.28515625,1,0,1,rectangle,-18.8125,12.28515625,1,0,1,-18.8125,12.28515625,1,0,1,0,68,68,129,1,,,,,,,,
,,,,,,,,,,,,,FF,,,,,,,,1.6053,,,,,,,,,,,,,,,,,,,,,,610040fd17c5a03d279f90f3,610377da6925e7b72ab71a4f,2021-07-29_23h56.27.795,Simcolourproject_2stim_asymm_v5,2020.2.10,MacIntel,60,61025ae37ef11b136ea224fe,,,,,,,,,2633,96.625,40.8125,1,0,1,response1disk,,6,-3.98828125,-11.55078125,1,0,1,rectangle,-3.98828125,-11.55078125,1,0,1,-3.98828125,-11.55078125,1,0,1,0,69,69,47,1,,,,,,,,
,,,,,,,,,,,,,FF,,,,,,,,1.12,,,,,,,,,,,,,,,,,,,,,,610040fd17c5a03d279f90f3,610377da6925e7b72ab71a4f,2021-07-29_23h56.27.795,Simcolourproject_2stim_asymm_v5,2020.2.10,MacIntel,60,61025ae37ef11b136ea224fe,,,,,,,,,3236,-71.98046875,-47.9765625,1,0,1,response5disk,,2,-0.5625,1.69140625,1,0,1,rectangle,-0.5625,1.69140625,1,0,1,-0.5625,1.69140625,1,0,1,0,70,70,40,1,,,,,,,,
,,,,,,,,,,,,,FF,,,,,,,,2.5078,,,,,,,,,,,,,,,,,,,,,,610040fd17c5a03d279f90f3,610377da6925e7b72ab71a4f,2021-07-29_23h56.27.795,Simcolourproject_2stim_asymm_v5,2020.2.10,MacIntel,60,61025ae37ef11b136ea224fe,,,,,,,,,1840,-41.48828125,-84.484375,1,0,1,response5disk,,3,19.671875,8.828125,1,0,1,rectangle,19.671875,8.828125,1,0,1,19.671875,8.828125,1,0,1,0,71,71,65,1,,,,,,,,
,,,,,,,,,,,,,FF,,,,,,,,1.3037,,,,,,,,,,,,,,,,,,,,,,610040fd17c5a03d279f90f3,610377da6925e7b72ab71a4f,2021-07-29_23h56.27.795,Simcolourproject_2stim_asymm_v5,2020.2.10,MacIntel,60,61025ae37ef11b136ea224fe,,,,,,,,,563,101.7226563,-35.71875,1,0,1,response3disk,,5,8.08984375,7.265625,1,0,1,rectangle,8.08984375,7.265625,1,0,1,8.08984375,7.265625,1,0,1,0,72,72,36,1,,,,,,,,
,,,,,,,,,,,,,FF,,,,,,,,1.3706,,,,,,,,,,,,,,,,,,,,,,610040fd17c5a03d279f90f3,610377da6925e7b72ab71a4f,2021-07-29_23h56.27.795,Simcolourproject_2stim_asymm_v5,2020.2.10,MacIntel,60,61025ae37ef11b136ea224fe,,,,,,,,,3469,-69.421875,54.421875,1,0,1,response7disk,,1,-13.09375,5.9375,1,0,1,rectangle,-13.09375,5.9375,1,0,1,-13.09375,5.9375,1,0,1,0,73,73,159,1,,,,,,,,
,,,,,,,,,,,,,FF,,,,,,,,1.2033,,,,,,,,,,,,,,,,,,,,,,610040fd17c5a03d279f90f3,610377da6925e7b72ab71a4f,2021-07-29_23h56.27.795,Simcolourproject_2stim_asymm_v5,2020.2.10,MacIntel,60,61025ae37ef11b136ea224fe,,,,,,,,,1492,66.13671875,79.0234375,1,0,1,response1disk,,7,15.82421875,-5.26171875,1,0,1,rectangle,15.82421875,-5.26171875,1,0,1,15.82421875,-5.26171875,1,0,1,0,74,74,149,1,,,,,,,,
,,,,,,,,,,,,,FF,,,,,,,,0.8688,,,,,,,,,,,,,,,,,,,,,,610040fd17c5a03d279f90f3,610377da6925e7b72ab71a4f,2021-07-29_23h56.27.795,Simcolourproject_2stim_asymm_v5,2020.2.10,MacIntel,60,61025ae37ef11b136ea224fe,,,,,,,,,1721,41.22265625,67.859375,1,0,1,response1disk,,7,-4.80078125,1.04296875,1,0,1,rectangle,-4.80078125,1.04296875,1,0,1,-4.80078125,1.04296875,1,0,1,0,75,75,128,1,,,,,,,,
,,,,,,,,,,,,,FF,,,,,,,,1.103,,,,,,,,,,,,,,,,,,,,,,610040fd17c5a03d279f90f3,610377da6925e7b72ab71a4f,2021-07-29_23h56.27.795,Simcolourproject_2stim_asymm_v5,2020.2.10,MacIntel,60,61025ae37ef11b136ea224fe,,,,,,,,,3270,59.49609375,72.07421875,1,0,1,response1disk,,7,-7.44921875,-1.28125,1,0,1,rectangle,-87.81640625,53.55859375,1,0,1,10.5234375,5.9609375,1,0,1,0,76,76,69,1,,response7disk_3,TRUE,1,1,"[134,43,146,15,285,188,310,66,129,235,168,231,100,230,317,86,260,51,226,77]",1.4533,rectangle
,,,,,,,,,,,,,FF,,,,,,,,1.1869,,,,,,,,,,,,,,,,,,,,,,610040fd17c5a03d279f90f3,610377da6925e7b72ab71a4f,2021-07-29_23h56.27.795,Simcolourproject_2stim_asymm_v5,2020.2.10,MacIntel,60,61025ae37ef11b136ea224fe,,,,,,,,,4216,102,57.8671875,1,0,1,response1disk,,6,-13.29296875,-6.7265625,1,0,1,rectangle,-13.29296875,-6.7265625,1,0,1,-13.29296875,-6.7265625,1,0,1,0,77,77,104,1,,,,,,,,
,,,,,,,,,,,,,FF,,,,,,,,0.9529,,,,,,,,,,,,,,,,,,,,,,610040fd17c5a03d279f90f3,610377da6925e7b72ab71a4f,2021-07-29_23h56.27.795,Simcolourproject_2stim_asymm_v5,2020.2.10,MacIntel,60,61025ae37ef11b136ea224fe,,,,,,,,,1150,-101.3242188,-44.6875,1,0,1,response5disk,,2,5.65625,0.86328125,1,0,1,rectangle,5.65625,0.86328125,1,0,1,5.65625,0.86328125,1,0,1,0,78,78,13,1,,,,,,,,
,,,,,,,,,,,,,FF,,,,,,,,1.388,,,,,,,,,,,,,,,,,,,,,,610040fd17c5a03d279f90f3,610377da6925e7b72ab71a4f,2021-07-29_23h56.27.795,Simcolourproject_2stim_asymm_v5,2020.2.10,MacIntel,60,61025ae37ef11b136ea224fe,,,,,,,,,2858,94.4453125,-47.453125,1,0,1,response3disk,,5,-6.875,-1.7421875,1,0,1,rectangle,-6.875,-1.7421875,1,0,1,-6.875,-1.7421875,1,0,1,0,79,79,44,1,,,,,,,,
,,,,,,,,,,,,,FF,,,,,,,,0.9692,,,,,,,,,,,,,,,,,,,,,,610040fd17c5a03d279f90f3,610377da6925e7b72ab71a4f,2021-07-29_23h56.27.795,Simcolourproject_2stim_asymm_v5,2020.2.10,MacIntel,60,61025ae37ef11b136ea224fe,,,,,,,,,2456,78.09375,41.4765625,1,0,1,response1disk,,6,-3.4296875,7.88671875,1,0,1,rectangle,-3.4296875,7.88671875,1,0,1,-3.4296875,7.88671875,1,0,1,0,80,80,74,1,,,,,,,,
,,,,,,,,,,,,,FF,,,,,,,,1.3867,,,,,,,,,,,,,,,,,,,,,,610040fd17c5a03d279f90f3,610377da6925e7b72ab71a4f,2021-07-29_23h56.27.795,Simcolourproject_2stim_asymm_v5,2020.2.10,MacIntel,60,61025ae37ef11b136ea224fe,,,,,,,,,1552,74.68359375,50.4453125,1,0,1,response1disk,,6,12.5078125,12.18359375,1,0,1,rectangle,12.5078125,12.18359375,1,0,1,12.5078125,12.18359375,1,0,1,0,81,81,62,1,,,,,,,,
,,,,,,,,,,,,,FF,,,,,,,,1.3862,,,,,,,,,,,,,,,,,,,,,,610040fd17c5a03d279f90f3,610377da6925e7b72ab71a4f,2021-07-29_23h56.27.795,Simcolourproject_2stim_asymm_v5,2020.2.10,MacIntel,60,61025ae37ef11b136ea224fe,,,,,,,,,1523,-97.859375,-56.640625,1,0,1,response5disk,,2,-4.90625,-4.78515625,1,0,1,rectangle,-4.90625,-4.78515625,1,0,1,-4.90625,-4.78515625,1,0,1,0,82,82,32,1,,,,,,,,
,,,,,,,,,,,,,FF,,,,,,,,2.4419,,,,,,,,,,,,,,,,,,,,,,610040fd17c5a03d279f90f3,610377da6925e7b72ab71a4f,2021-07-29_23h56.27.795,Simcolourproject_2stim_asymm_v5,2020.2.10,MacIntel,60,61025ae37ef11b136ea224fe,,,,,,,,,3978,-58.40234375,-80.1328125,1,0,1,response5disk,,3,-19.31640625,-2.1796875,1,0,1,rectangle,-19.31640625,-2.1796875,1,0,1,-19.31640625,-2.1796875,1,0,1,0,83,83,108,1,,,,,,,,
,,,,,,,,,,,,,FF,,,,,,,,0.9358,,,,,,,,,,,,,,,,,,,,,,610040fd17c5a03d279f90f3,610377da6925e7b72ab71a4f,2021-07-29_23h56.27.795,Simcolourproject_2stim_asymm_v5,2020.2.10,MacIntel,60,61025ae37ef11b136ea224fe,,,,,,,,,1949,54.75,-81.421875,1,0,1,response3disk,,4,27.859375,11.78515625,1,0,1,rectangle,27.859375,11.78515625,1,0,1,27.859375,11.78515625,1,0,1,0,84,84,57,1,,,,,,,,
,,,,,,,,,,,,,FF,,,,,,,,1.5043,,,,,,,,,,,,,,,,,,,,,,610040fd17c5a03d279f90f3,610377da6925e7b72ab71a4f,2021-07-29_23h56.27.795,Simcolourproject_2stim_asymm_v5,2020.2.10,MacIntel,60,61025ae37ef11b136ea224fe,,,,,,,,,3310,45.453125,65.1328125,1,0,1,response1disk,,7,-2.5,-5.72265625,1,0,1,rectangle,-75.265625,37.1875,1,0,1,-16.73046875,-5.65625,1,0,1,0,85,85,115,1,,response7disk_3,TRUE,1,1,"[134,43,146,15,285,188,310,66,129,235,168,231,100,230,317,86,260,51,226,77]",1.4375,rectangle
,,,,,,,,,,,,,FF,,,,,,,,0.7686,,,,,,,,,,,,,,,,,,,,,,610040fd17c5a03d279f90f3,610377da6925e7b72ab71a4f,2021-07-29_23h56.27.795,Simcolourproject_2stim_asymm_v5,2020.2.10,MacIntel,60,61025ae37ef11b136ea224fe,,,,,,,,,3122,45.8359375,85.51171875,1,0,1,response1disk,,7,-10.98046875,-3.96484375,1,0,1,rectangle,-10.98046875,-3.96484375,1,0,1,-10.98046875,-3.96484375,1,0,1,0,86,86,27,1,,,,,,,,
,,,,,,,,,,,,,FF,,,,,,,,2.2401,,,,,,,,,,,,,,,,,,,,,,610040fd17c5a03d279f90f3,610377da6925e7b72ab71a4f,2021-07-29_23h56.27.795,Simcolourproject_2stim_asymm_v5,2020.2.10,MacIntel,60,61025ae37ef11b136ea224fe,,,,,,,,,1155,100.4804688,28.8515625,1,0,1,response1disk,,6,17.66015625,-0.84765625,1,0,1,rectangle,17.66015625,-0.84765625,1,0,1,17.66015625,-0.84765625,1,0,1,0,87,87,71,1,,,,,,,,
,,,,,,,,,,,,,FF,,,,,,,,2.1213,,,,,,,,,,,,,,,,,,,,,,610040fd17c5a03d279f90f3,610377da6925e7b72ab71a4f,2021-07-29_23h56.27.795,Simcolourproject_2stim_asymm_v5,2020.2.10,MacIntel,60,61025ae37ef11b136ea224fe,,,,,,,,,3267,83.98046875,25.8359375,1,0,1,response1disk,,6,3.5234375,-0.73828125,1,0,1,rectangle,3.5234375,-0.73828125,1,0,1,3.5234375,-0.73828125,1,0,1,0,88,88,136,1,,,,,,,,
,,,,,,,,,,,,,FF,,,,,,,,0.8366,,,,,,,,,,,,,,,,,,,,,,610040fd17c5a03d279f90f3,610377da6925e7b72ab71a4f,2021-07-29_23h56.27.795,Simcolourproject_2stim_asymm_v5,2020.2.10,MacIntel,60,61025ae37ef11b136ea224fe,,,,,,,,,2872,66.8828125,102.0664063,1,0,1,response1disk,,7,8.35546875,0.1328125,1,0,1,rectangle,8.35546875,0.1328125,1,0,1,8.35546875,0.1328125,1,0,1,0,89,89,66,1,,,,,,,,
,,,,,,,,,,,,,FF,,,,,,,,2.9083,,,,,,,,,,,,,,,,,,,,,,610040fd17c5a03d279f90f3,610377da6925e7b72ab71a4f,2021-07-29_23h56.27.795,Simcolourproject_2stim_asymm_v5,2020.2.10,MacIntel,60,61025ae37ef11b136ea224fe,,,,,,,,,1362,97.47265625,-33.8359375,1,0,1,response3disk,,5,6.046875,1.44140625,1,0,1,rectangle,6.046875,1.44140625,1,0,1,6.046875,1.44140625,1,0,1,0,90,90,64,1,,,,,,,,
,,,,,,,,,,,,,FF,,,,,,,,0.9358,,,,,,,,,,,,,,,,,,,,,,610040fd17c5a03d279f90f3,610377da6925e7b72ab71a4f,2021-07-29_23h56.27.795,Simcolourproject_2stim_asymm_v5,2020.2.10,MacIntel,60,61025ae37ef11b136ea224fe,,,,,,,,,3531,63.15625,79.53125,1,0,1,response1disk,,7,-2.13671875,4.921875,1,0,1,rectangle,-2.13671875,4.921875,1,0,1,-2.13671875,4.921875,1,0,1,0,91,91,118,1,,,,,,,,
,,,,,,,,,,,,,FF,,,,,,,,1.4199,,,,,,,,,,,,,,,,,,,,,,610040fd17c5a03d279f90f3,610377da6925e7b72ab71a4f,2021-07-29_23h56.27.795,Simcolourproject_2stim_asymm_v5,2020.2.10,MacIntel,60,61025ae37ef11b136ea224fe,,,,,,,,,2609,-82.5859375,-45.578125,1,0,1,response5disk,,2,28.58984375,-11.22265625,1,0,1,rectangle,28.58984375,-11.22265625,1,0,1,28.58984375,-11.22265625,1,0,1,0,92,92,133,1,,,,,,,,
,,,,,,,,,,,,,FF,,,,,,,,1.955,,,,,,,,,,,,,,,,,,,,,,610040fd17c5a03d279f90f3,610377da6925e7b72ab71a4f,2021-07-29_23h56.27.795,Simcolourproject_2stim_asymm_v5,2020.2.10,MacIntel,60,61025ae37ef11b136ea224fe,,,,,,,,,2275,33.6328125,-85.09765625,1,0,1,response3disk,,4,10.953125,-13.2734375,1,0,1,rectangle,10.953125,-13.2734375,1,0,1,10.953125,-13.2734375,1,0,1,0,93,93,97,1,,,,,,,,
,,,,,,,,,,,,,FF,,,,,,,,1.2191,,,,,,,,,,,,,,,,,,,,,,610040fd17c5a03d279f90f3,610377da6925e7b72ab71a4f,2021-07-29_23h56.27.795,Simcolourproject_2stim_asymm_v5,2020.2.10,MacIntel,60,61025ae37ef11b136ea224fe,,,,,,,,,2836,-73.19921875,37.265625,1,0,1,response7disk,,1,13.94921875,5.7109375,1,0,1,rectangle,13.94921875,5.7109375,1,0,1,13.94921875,5.7109375,1,0,1,0,94,94,121,1,,,,,,,,
,,,,,,,,,,,,,FF,,,,,,,,0.9022,,,,,,,,,,,,,,,,,,,,,,610040fd17c5a03d279f90f3,610377da6925e7b72ab71a4f,2021-07-29_23h56.27.795,Simcolourproject_2stim_asymm_v5,2020.2.10,MacIntel,60,61025ae37ef11b136ea224fe,,,,,,,,,2320,50.30078125,87.453125,1,0,1,response1disk,,7,-0.328125,-4.57421875,1,0,1,rectangle,-0.328125,-4.57421875,1,0,1,-0.328125,-4.57421875,1,0,1,0,95,95,105,1,,,,,,,,
,,,,,,,,,,,,,FF,,,,,,,,0.7689,,,,,,,,,,,,,,,,,,,,,,610040fd17c5a03d279f90f3,610377da6925e7b72ab71a4f,2021-07-29_23h56.27.795,Simcolourproject_2stim_asymm_v5,2020.2.10,MacIntel,60,61025ae37ef11b136ea224fe,,,,,,,,,33,81.125,22.4921875,1,0,1,response1disk,,6,0.8828125,-0.08984375,1,0,1,rectangle,0.8828125,-0.08984375,1,0,1,0.8828125,-0.08984375,1,0,1,0,96,96,93,1,,,,,,,,
,,,,,,,,,,,,,FF,,,,,,,,0.8024,,,,,,,,,,,,,,,,,,,,,,610040fd17c5a03d279f90f3,610377da6925e7b72ab71a4f,2021-07-29_23h56.27.795,Simcolourproject_2stim_asymm_v5,2020.2.10,MacIntel,60,61025ae37ef11b136ea224fe,,,,,,,,,419,85.9765625,53.19140625,1,0,1,response1disk,,6,-4.4140625,-0.16015625,1,0,1,rectangle,-4.4140625,-0.16015625,1,0,1,-4.4140625,-0.16015625,1,0,1,0,97,97,100,1,,,,,,,,
,,,,,,,,,,,,,FF,,,,,,,,1.8893,,,,,,,,,,,,,,,,,,,,,,610040fd17c5a03d279f90f3,610377da6925e7b72ab71a4f,2021-07-29_23h56.27.795,Simcolourproject_2stim_asymm_v5,2020.2.10,MacIntel,60,61025ae37ef11b136ea224fe,,,,,,,,,3970,-86.19921875,-37.08984375,1,0,1,response5disk,,2,14.8203125,1.57421875,1,0,1,rectangle,14.8203125,1.57421875,1,0,1,14.8203125,1.57421875,1,0,1,0,98,98,3,1,,,,,,,,
,,,,,,,,,,,,,FF,,,,,,,,0.8187,,,,,,,,,,,,,,,,,,,,,,610040fd17c5a03d279f90f3,610377da6925e7b72ab71a4f,2021-07-29_23h56.27.795,Simcolourproject_2stim_asymm_v5,2020.2.10,MacIntel,60,61025ae37ef11b136ea224fe,,,,,,,,,3810,-42.5703125,69.66015625,1,0,1,response7disk,,0,-16.375,8.203125,1,0,1,rectangle,22.30078125,-82.62109375,1,0,1,-8.47265625,-16.44921875,1,0,1,0,99,99,130,1,,response3disk_3,TRUE,4,4,"[134,43,146,15,285,188,310,66,129,235,168,231,100,230,317,86,260,51,226,77]",1.4551,rectangle
,,,,,,,,,,,,,FF,,,,,,,,2.1061,,,,,,,,,,,,,,,,,,,,,,610040fd17c5a03d279f90f3,610377da6925e7b72ab71a4f,2021-07-29_23h56.27.795,Simcolourproject_2stim_asymm_v5,2020.2.10,MacIntel,60,61025ae37ef11b136ea224fe,,,,,,,,,4114,64.84765625,-92.234375,1,0,1,response3disk,,4,22.6953125,-12.34765625,1,0,1,rectangle,22.6953125,-12.34765625,1,0,1,22.6953125,-12.34765625,1,0,1,0,100,100,5,1,,,,,,,,
,,,,,,,,,,,,,FF,,,,,,,,1.2358,,,,,,,,,,,,,,,,,,,,,,610040fd17c5a03d279f90f3,610377da6925e7b72ab71a4f,2021-07-29_23h56.27.795,Simcolourproject_2stim_asymm_v5,2020.2.10,MacIntel,60,61025ae37ef11b136ea224fe,,,,,,,,,3775,79.38671875,-43.22265625,1,0,1,response3disk,,5,22.0703125,-2.3671875,1,0,1,rectangle,22.0703125,-2.3671875,1,0,1,22.0703125,-2.3671875,1,0,1,0,101,101,11,1,,,,,,,,
,,,,,,,,,,,,,FF,,,,,,,,0.8527,,,,,,,,,,,,,,,,,,,,,,610040fd17c5a03d279f90f3,610377da6925e7b72ab71a4f,2021-07-29_23h56.27.795,Simcolourproject_2stim_asymm_v5,2020.2.10,MacIntel,60,61025ae37ef11b136ea224fe,,,,,,,,,3205,-90.87890625,-55.40625,1,0,1,response5disk,,2,-5.49609375,0.66015625,1,0,1,rectangle,-5.49609375,0.66015625,1,0,1,-5.49609375,0.66015625,1,0,1,0,102,102,88,1,,,,,,,,
,,,,,,,,,,,,,FF,,,,,,,,0.8356,,,,,,,,,,,,,,,,,,,,,,610040fd17c5a03d279f90f3,610377da6925e7b72ab71a4f,2021-07-29_23h56.27.795,Simcolourproject_2stim_asymm_v5,2020.2.10,MacIntel,60,61025ae37ef11b136ea224fe,,,,,,,,,1021,60.55078125,95.23828125,1,0,1,response1disk,,7,6.01953125,3.515625,1,0,1,rectangle,6.01953125,3.515625,1,0,1,6.01953125,3.515625,1,0,1,0,103,103,46,1,,,,,,,,
,,,,,,,,,,,,,FF,,,,,,,,0.8015,,,,,,,,,,,,,,,,,,,,,,610040fd17c5a03d279f90f3,610377da6925e7b72ab71a4f,2021-07-29_23h56.27.795,Simcolourproject_2stim_asymm_v5,2020.2.10,MacIntel,60,61025ae37ef11b136ea224fe,,,,,,,,,1377,-54.5625,-85.2421875,1,0,1,response5disk,,3,-14.80859375,-11.50390625,1,0,1,rectangle,-14.80859375,-11.50390625,1,0,1,-14.80859375,-11.50390625,1,0,1,0,104,104,41,1,,,,,,,,
,,,,,,,,,,,,,FF,,,,,,,,0.8346,,,,,,,,,,,,,,,,,,,,,,610040fd17c5a03d279f90f3,610377da6925e7b72ab71a4f,2021-07-29_23h56.27.795,Simcolourproject_2stim_asymm_v5,2020.2.10,MacIntel,60,61025ae37ef11b136ea224fe,,,,,,,,,2515,38.95703125,69.46484375,1,0,1,response1disk,,7,6.19921875,10.1484375,1,0,1,rectangle,6.19921875,10.1484375,1,0,1,6.19921875,10.1484375,1,0,1,0,105,105,145,1,,,,,,,,
,,,,,,,,,,,,,FF,,,,,,,,1.0525,,,,,,,,,,,,,,,,,,,,,,610040fd17c5a03d279f90f3,610377da6925e7b72ab71a4f,2021-07-29_23h56.27.795,Simcolourproject_2stim_asymm_v5,2020.2.10,MacIntel,60,61025ae37ef11b136ea224fe,,,,,,,,,4352,-68.08203125,-49.046875,1,0,1,response5disk,,2,-9.9453125,-8.79296875,1,0,1,rectangle,-9.9453125,-8.79296875,1,0,1,-9.9453125,-8.79296875,1,0,1,0,106,106,25,1,,,,,,,,
,,,,,,,,,,,,,FF,,,,,,,,0.954,,,,,,,,,,,,,,,,,,,,,,610040fd17c5a03d279f90f3,610377da6925e7b72ab71a4f,2021-07-29_23h56.27.795,Simcolourproject_2stim_asymm_v5,2020.2.10,MacIntel,60,61025ae37ef11b136ea224fe,,,,,,,,,376,-31.8515625,-59.78515625,1,0,1,response5disk,,3,-14.046875,7.38671875,1,0,1,rectangle,-14.046875,7.38671875,1,0,1,-14.046875,7.38671875,1,0,1,0,107,107,142,1,,,,,,,,
,,,,,,,,,,,,,FF,,,,,,,,1.0701,,,,,,,,,,,,,,,,,,,,,,610040fd17c5a03d279f90f3,610377da6925e7b72ab71a4f,2021-07-29_23h56.27.795,Simcolourproject_2stim_asymm_v5,2020.2.10,MacIntel,60,61025ae37ef11b136ea224fe,,,,,,,,,939,43.89453125,87.77734375,1,0,1,response1disk,,7,-16.79296875,-0.80078125,1,0,1,rectangle,-16.79296875,-0.80078125,1,0,1,-16.79296875,-0.80078125,1,0,1,0,108,108,92,1,,,,,,,,
,,,,,,,,,,,,,FF,,,,,,,,1.5388,,,,,,,,,,,,,,,,,,,,,,610040fd17c5a03d279f90f3,610377da6925e7b72ab71a4f,2021-07-29_23h56.27.795,Simcolourproject_2stim_asymm_v5,2020.2.10,MacIntel,60,61025ae37ef11b136ea224fe,,,,,,,,,176,41.84375,74.51953125,1,0,1,response1disk,,7,-7.33203125,4.3671875,1,0,1,rectangle,-7.33203125,4.3671875,1,0,1,-7.33203125,4.3671875,1,0,1,0,109,109,58,1,,,,,,,,
,,,,,,,,,,,,,FF,,,,,,,,1.4201,,,,,,,,,,,,,,,,,,,,,,610040fd17c5a03d279f90f3,610377da6925e7b72ab71a4f,2021-07-29_23h56.27.795,Simcolourproject_2stim_asymm_v5,2020.2.10,MacIntel,60,61025ae37ef11b136ea224fe,,,,,,,,,1554,49.6953125,-95.08984375,1,0,1,response3disk,,4,17.5859375,-1.1171875,1,0,1,rectangle,17.5859375,-1.1171875,1,0,1,17.5859375,-1.1171875,1,0,1,0,110,110,52,1,,,,,,,,
,,,,,,,,,,,,,FF,,,,,,,,2.44,,,,,,,,,,,,,,,,,,,,,,610040fd17c5a03d279f90f3,610377da6925e7b72ab71a4f,2021-07-29_23h56.27.795,Simcolourproject_2stim_asymm_v5,2020.2.10,MacIntel,60,61025ae37ef11b136ea224fe,,,,,,,,,3255,-75.203125,-56.375,1,0,1,response5disk,,2,-11.7734375,-6.8359375,1,0,1,rectangle,-11.7734375,-6.8359375,1,0,1,-11.7734375,-6.8359375,1,0,1,0,111,111,33,1,,,,,,,,
,,,,,,,,,,,,,FF,,,,,,,,1.0536,,,,,,,,,,,,,,,,,,,,,,610040fd17c5a03d279f90f3,610377da6925e7b72ab71a4f,2021-07-29_23h56.27.795,Simcolourproject_2stim_asymm_v5,2020.2.10,MacIntel,60,61025ae37ef11b136ea224fe,,,,,,,,,4043,77.671875,50.52734375,1,0,1,response1disk,,6,3.6640625,-7.4609375,1,0,1,rectangle,3.6640625,-7.4609375,1,0,1,3.6640625,-7.4609375,1,0,1,0,112,112,26,1,,,,,,,,
,,,,,,,,,,,,,FF,,,,,,,,0.7357,,,,,,,,,,,,,,,,,,,,,,610040fd17c5a03d279f90f3,610377da6925e7b72ab71a4f,2021-07-29_23h56.27.795,Simcolourproject_2stim_asymm_v5,2020.2.10,MacIntel,60,61025ae37ef11b136ea224fe,,,,,,,,,3617,56.12109375,89.62109375,1,0,1,response1disk,,7,14.22265625,2.4140625,1,0,1,rectangle,14.22265625,2.4140625,1,0,1,14.22265625,2.4140625,1,0,1,0,113,113,21,1,,,,,,,,
,,,,,,,,,,,,,FF,,,,,,,,0.7681,,,,,,,,,,,,,,,,,,,,,,610040fd17c5a03d279f90f3,610377da6925e7b72ab71a4f,2021-07-29_23h56.27.795,Simcolourproject_2stim_asymm_v5,2020.2.10,MacIntel,60,61025ae37ef11b136ea224fe,,,,,,,,,2607,-79.953125,42.21875,1,0,1,response7disk,,1,-3.23828125,-8.24609375,1,0,1,rectangle,-3.23828125,-8.24609375,1,0,1,-3.23828125,-8.24609375,1,0,1,0,114,114,154,1,,,,,,,,
,,,,,,,,,,,,,FF,,,,,,,,1.0011,,,,,,,,,,,,,,,,,,,,,,610040fd17c5a03d279f90f3,610377da6925e7b72ab71a4f,2021-07-29_23h56.27.795,Simcolourproject_2stim_asymm_v5,2020.2.10,MacIntel,60,61025ae37ef11b136ea224fe,,,,,,,,,104,-30.0625,53.22265625,1,0,1,response7disk,,0,-4.95703125,12.04296875,1,0,1,rectangle,-4.95703125,12.04296875,1,0,1,-4.95703125,12.04296875,1,0,1,0,115,115,60,1,,,,,,,,
,,,,,,,,,,,,,FF,,,,,,,,1.2534,,,,,,,,,,,,,,,,,,,,,,610040fd17c5a03d279f90f3,610377da6925e7b72ab71a4f,2021-07-29_23h56.27.795,Simcolourproject_2stim_asymm_v5,2020.2.10,MacIntel,60,61025ae37ef11b136ea224fe,,,,,,,,,1304,-80.91015625,-35.83203125,1,0,1,response5disk,,2,13.4765625,-7.59375,1,0,1,rectangle,13.4765625,-7.59375,1,0,1,13.4765625,-7.59375,1,0,1,0,116,116,131,1,,,,,,,,
,,,,,,,,,,,,,FF,,,,,,,,0.6529,,,,,,,,,,,,,,,,,,,,,,610040fd17c5a03d279f90f3,610377da6925e7b72ab71a4f,2021-07-29_23h56.27.795,Simcolourproject_2stim_asymm_v5,2020.2.10,MacIntel,60,61025ae37ef11b136ea224fe,,,,,,,,,4177,50.94140625,73.328125,1,0,1,response1disk,,7,8.48828125,-1.55859375,1,0,1,rectangle,8.48828125,-1.55859375,1,0,1,8.48828125,-1.55859375,1,0,1,0,117,117,75,1,,,,,,,,
,,,,,,,,,,,,,FF,,,,,,,,1.3373,,,,,,,,,,,,,,,,,,,,,,610040fd17c5a03d279f90f3,610377da6925e7b72ab71a4f,2021-07-29_23h56.27.795,Simcolourproject_2stim_asymm_v5,2020.2.10,MacIntel,60,61025ae37ef11b136ea224fe,,,,,,,,,2334,89.4140625,39.49609375,1,0,1,response1disk,,6,4.23828125,-1.02734375,1,0,1,rectangle,4.23828125,-1.02734375,1,0,1,4.23828125,-1.02734375,1,0,1,0,118,118,114,1,,,,,,,,
,,,,,,,,,,,,,FF,,,,,,,,0.869,,,,,,,,,,,,,,,,,,,,,,610040fd17c5a03d279f90f3,610377da6925e7b72ab71a4f,2021-07-29_23h56.27.795,Simcolourproject_2stim_asymm_v5,2020.2.10,MacIntel,60,61025ae37ef11b136ea224fe,,,,,,,,,1598,-80.5625,-57.203125,1,0,1,response5disk,,2,7.3359375,-7.34765625,1,0,1,rectangle,7.3359375,-7.34765625,1,0,1,7.3359375,-7.34765625,1,0,1,0,119,119,43,1,,,,,,,,
,,,,,,,,,,,,,FF,,,,,,,,1.8904,,,,,,,,,,,,,,,,,,,,,,610040fd17c5a03d279f90f3,610377da6925e7b72ab71a4f,2021-07-29_23h56.27.795,Simcolourproject_2stim_asymm_v5,2020.2.10,MacIntel,60,61025ae37ef11b136ea224fe,,,,,,,,,2008,71.74609375,-44.27734375,1,0,1,response3disk,,5,15.41015625,-14.12890625,1,0,1,rectangle,15.41015625,-14.12890625,1,0,1,15.41015625,-14.12890625,1,0,1,0,120,120,120,1,,,,,,,,
,,,,,,,,,,,,,FF,,,,,,,,0.8183,,,,,,,,,,,,,,,,,,,,,,610040fd17c5a03d279f90f3,610377da6925e7b72ab71a4f,2021-07-29_23h56.27.795,Simcolourproject_2stim_asymm_v5,2020.2.10,MacIntel,60,61025ae37ef11b136ea224fe,,,,,,,,,394,-35.859375,-80.8203125,1,0,1,response5disk,,3,-6.453125,-4.90625,1,0,1,rectangle,-6.453125,-4.90625,1,0,1,-6.453125,-4.90625,1,0,1,0,121,121,113,1,,,,,,,,
,,,,,,,,,,,,,FF,,,,,,,,0.9188,,,,,,,,,,,,,,,,,,,,,,610040fd17c5a03d279f90f3,610377da6925e7b72ab71a4f,2021-07-29_23h56.27.795,Simcolourproject_2stim_asymm_v5,2020.2.10,MacIntel,60,61025ae37ef11b136ea224fe,,,,,,,,,1240,52.0390625,-83.9375,1,0,1,response3disk,,4,19.1640625,6.63671875,1,0,1,rectangle,19.1640625,6.63671875,1,0,1,19.1640625,6.63671875,1,0,1,0,122,122,84,1,,,,,,,,
,,,,,,,,,,,,,FF,,,,,,,,1.3519,,,,,,,,,,,,,,,,,,,,,,610040fd17c5a03d279f90f3,610377da6925e7b72ab71a4f,2021-07-29_23h56.27.795,Simcolourproject_2stim_asymm_v5,2020.2.10,MacIntel,60,61025ae37ef11b136ea224fe,,,,,,,,,691,57.921875,72.41015625,1,0,1,response1disk,,7,10.3125,-3.28125,1,0,1,rectangle,10.3125,-3.28125,1,0,1,10.3125,-3.28125,1,0,1,0,123,123,31,1,,,,,,,,
,,,,,,,,,,,,,FF,,,,,,,,1.6877,,,,,,,,,,,,,,,,,,,,,,610040fd17c5a03d279f90f3,610377da6925e7b72ab71a4f,2021-07-29_23h56.27.795,Simcolourproject_2stim_asymm_v5,2020.2.10,MacIntel,60,61025ae37ef11b136ea224fe,,,,,,,,,1323,78.578125,-44.33203125,1,0,1,response3disk,,5,6.265625,5.5859375,1,0,1,rectangle,6.265625,5.5859375,1,0,1,6.265625,5.5859375,1,0,1,0,124,124,81,1,,,,,,,,
,,,,,,,,,,,,,FF,,,,,,,,1.3031,,,,,,,,,,,,,,,,,,,,,,610040fd17c5a03d279f90f3,610377da6925e7b72ab71a4f,2021-07-29_23h56.27.795,Simcolourproject_2stim_asymm_v5,2020.2.10,MacIntel,60,61025ae37ef11b136ea224fe,,,,,,,,,2217,-72.4765625,50.01953125,1,0,1,response7disk,,1,6.30078125,-9.34765625,1,0,1,rectangle,6.30078125,-9.34765625,1,0,1,6.30078125,-9.34765625,1,0,1,0,125,125,1,1,,,,,,,,
,,,,,,,,,,,,,FF,,,,,,,,0.7855,,,,,,,,,,,,,,,,,,,,,,610040fd17c5a03d279f90f3,610377da6925e7b72ab71a4f,2021-07-29_23h56.27.795,Simcolourproject_2stim_asymm_v5,2020.2.10,MacIntel,60,61025ae37ef11b136ea224fe,,,,,,,,,1073,42.53125,63.79296875,1,0,1,response1disk,,7,6.75390625,2.35546875,1,0,1,rectangle,6.75390625,2.35546875,1,0,1,6.75390625,2.35546875,1,0,1,0,126,126,34,1,,,,,,,,
,,,,,,,,,,,,,FF,,,,,,,,0.9529,,,,,,,,,,,,,,,,,,,,,,610040fd17c5a03d279f90f3,610377da6925e7b72ab71a4f,2021-07-29_23h56.27.795,Simcolourproject_2stim_asymm_v5,2020.2.10,MacIntel,60,61025ae37ef11b136ea224fe,,,,,,,,,1765,-51.80078125,-71.88671875,1,0,1,response5disk,,3,-7.09375,-5.7265625,1,0,1,rectangle,-7.09375,-5.7265625,1,0,1,-7.09375,-5.7265625,1,0,1,0,127,127,15,1,,,,,,,,
,,,,,,,,,,,,,FF,,,,,,,,1.7882,,,,,,,,,,,,,,,,,,,,,,610040fd17c5a03d279f90f3,610377da6925e7b72ab71a4f,2021-07-29_23h56.27.795,Simcolourproject_2stim_asymm_v5,2020.2.10,MacIntel,60,61025ae37ef11b136ea224fe,,,,,,,,,1588,-40.765625,-85.06640625,1,0,1,response5disk,,3,-5.0078125,-0.82421875,1,0,1,rectangle,95.953125,31.68359375,1,0,1,2.359375,1.65625,1,0,1,0,128,128,29,1,,response1disk_3,TRUE,6,6,"[134,43,146,15,285,188,310,66,129,235,168,231,100,230,317,86,260,51,226,77]",1.5537,rectangle
,,,,,,,,,,,,,FF,,,,,,,,0.9186,,,,,,,,,,,,,,,,,,,,,,610040fd17c5a03d279f90f3,610377da6925e7b72ab71a4f,2021-07-29_23h56.27.795,Simcolourproject_2stim_asymm_v5,2020.2.10,MacIntel,60,61025ae37ef11b136ea224fe,,,,,,,,,70,-80.1796875,-37.515625,1,0,1,response5disk,,2,-9.4140625,-8.08203125,1,0,1,rectangle,-9.4140625,-8.08203125,1,0,1,-9.4140625,-8.08203125,1,0,1,0,129,129,155,1,,,,,,,,
,,,,,,,,,,,,,FF,,,,,,,,1.187,,,,,,,,,,,,,,,,,,,,,,610040fd17c5a03d279f90f3,610377da6925e7b72ab71a4f,2021-07-29_23h56.27.795,Simcolourproject_2stim_asymm_v5,2020.2.10,MacIntel,60,61025ae37ef11b136ea224fe,,,,,,,,,2558,87.8046875,-39.05859375,1,0,1,response3disk,,5,10.41015625,-3.62109375,1,0,1,rectangle,10.41015625,-3.62109375,1,0,1,10.41015625,-3.62109375,1,0,1,0,130,130,86,1,,,,,,,,
,,,,,,,,,,,,,FF,,,,,,,,8.1377,,,,,,,,,,,,,,,,,,,,,,610040fd17c5a03d279f90f3,610377da6925e7b72ab71a4f,2021-07-29_23h56.27.795,Simcolourproject_2stim_asymm_v5,2020.2.10,MacIntel,60,61025ae37ef11b136ea224fe,,,,,,,,,3190,-73.46484375,-43.046875,1,0,1,response5disk,,2,-23.49609375,9.07421875,1,0,1,rectangle,-23.49609375,9.07421875,1,0,1,-23.49609375,9.07421875,1,0,1,0,131,131,24,1,,,,,,,,
,,,,,,,,,,,,,FF,,,,,,,,0.9528,,,,,,,,,,,,,,,,,,,,,,610040fd17c5a03d279f90f3,610377da6925e7b72ab71a4f,2021-07-29_23h56.27.795,Simcolourproject_2stim_asymm_v5,2020.2.10,MacIntel,60,61025ae37ef11b136ea224fe,,,,,,,,,2923,52.2890625,93.37890625,1,0,1,response1disk,,7,0.6171875,3.5546875,1,0,1,rectangle,0.6171875,3.5546875,1,0,1,0.6171875,3.5546875,1,0,1,0,132,132,106,1,,,,,,,,
,,,,,,,,,,,,,FF,,,,,,,,0.7019,,,,,,,,,,,,,,,,,,,,,,610040fd17c5a03d279f90f3,610377da6925e7b72ab71a4f,2021-07-29_23h56.27.795,Simcolourproject_2stim_asymm_v5,2020.2.10,MacIntel,60,61025ae37ef11b136ea224fe,,,,,,,,,3959,66.91015625,105.4101563,1,0,1,response1disk,,7,-4.75390625,-10.1875,1,0,1,rectangle,-72.49609375,-60.43359375,1,0,1,2.8203125,-11.3359375,1,0,1,0,133,133,76,1,,response5disk_3,TRUE,2,2,"[134,43,146,15,285,188,310,66,129,235,168,231,100,230,317,86,260,51,226,77]",1.5867,rectangle
,,,,,,,,,,,,,FF,,,,,,,,1.0192,,,,,,,,,,,,,,,,,,,,,,610040fd17c5a03d279f90f3,610377da6925e7b72ab71a4f,2021-07-29_23h56.27.795,Simcolourproject_2stim_asymm_v5,2020.2.10,MacIntel,60,61025ae37ef11b136ea224fe,,,,,,,,,2745,-51.5390625,-76.1953125,1,0,1,response5disk,,3,-1.0234375,-0.54296875,1,0,1,rectangle,-1.0234375,-0.54296875,1,0,1,-1.0234375,-0.54296875,1,0,1,0,134,134,151,1,,,,,,,,
,,,,,,,,,,,,,FF,,,,,,,,0.7519,,,,,,,,,,,,,,,,,,,,,,610040fd17c5a03d279f90f3,610377da6925e7b72ab71a4f,2021-07-29_23h56.27.795,Simcolourproject_2stim_asymm_v5,2020.2.10,MacIntel,60,61025ae37ef11b136ea224fe,,,,,,,,,1811,-69.98828125,-49.421875,1,0,1,response5disk,,2,18.0234375,-15.65625,1,0,1,rectangle,18.0234375,-15.65625,1,0,1,18.0234375,-15.65625,1,0,1,0,135,135,51,1,,,,,,,,
,,,,,,,,,,,,,FF,,,,,,,,0.9524,,,,,,,,,,,,,,,,,,,,,,610040fd17c5a03d279f90f3,610377da6925e7b72ab71a4f,2021-07-29_23h56.27.795,Simcolourproject_2stim_asymm_v5,2020.2.10,MacIntel,60,61025ae37ef11b136ea224fe,,,,,,,,,2990,-69.0234375,42.2109375,1,0,1,response7disk,,1,1.80859375,-0.71484375,1,0,1,rectangle,1.80859375,-0.71484375,1,0,1,1.80859375,-0.71484375,1,0,1,0,136,136,50,1,,,,,,,,
,,,,,,,,,,,,,FF,,,,,,,,2.1393,,,,,,,,,,,,,,,,,,,,,,610040fd17c5a03d279f90f3,610377da6925e7b72ab71a4f,2021-07-29_23h56.27.795,Simcolourproject_2stim_asymm_v5,2020.2.10,MacIntel,60,61025ae37ef11b136ea224fe,,,,,,,,,1764,-45.96484375,-79.07421875,1,0,1,response5disk,,3,-3.47265625,-7.3671875,1,0,1,rectangle,-3.47265625,-7.3671875,1,0,1,-3.47265625,-7.3671875,1,0,1,0,137,137,150,1,,,,,,,,
,,,,,,,,,,,,,FF,,,,,,,,1.1532,,,,,,,,,,,,,,,,,,,,,,610040fd17c5a03d279f90f3,610377da6925e7b72ab71a4f,2021-07-29_23h56.27.795,Simcolourproject_2stim_asymm_v5,2020.2.10,MacIntel,60,61025ae37ef11b136ea224fe,,,,,,,,,1913,35.35546875,-71.5234375,1,0,1,response3disk,,4,6.01171875,-0.75,1,0,1,rectangle,6.01171875,-0.75,1,0,1,6.01171875,-0.75,1,0,1,0,138,138,147,1,,,,,,,,
,,,,,,,,,,,,,FF,,,,,,,,0.6673,,,,,,,,,,,,,,,,,,,,,,610040fd17c5a03d279f90f3,610377da6925e7b72ab71a4f,2021-07-29_23h56.27.795,Simcolourproject_2stim_asymm_v5,2020.2.10,MacIntel,60,61025ae37ef11b136ea224fe,,,,,,,,,3643,46.5390625,69.69921875,1,0,1,response1disk,,7,-3.33984375,5.3984375,1,0,1,rectangle,-3.33984375,5.3984375,1,0,1,-3.33984375,5.3984375,1,0,1,0,139,139,83,1,,,,,,,,
,,,,,,,,,,,,,FF,,,,,,,,0.7356,,,,,,,,,,,,,,,,,,,,,,610040fd17c5a03d279f90f3,610377da6925e7b72ab71a4f,2021-07-29_23h56.27.795,Simcolourproject_2stim_asymm_v5,2020.2.10,MacIntel,60,61025ae37ef11b136ea224fe,,,,,,,,,193,-81.32421875,-43.59375,1,0,1,response5disk,,2,-15.1171875,-6.78515625,1,0,1,rectangle,-15.1171875,-6.78515625,1,0,1,-15.1171875,-6.78515625,1,0,1,0,140,140,54,1,,,,,,,,
,,,,,,,,,,,,,FF,,,,,,,,1.0532,,,,,,,,,,,,,,,,,,,,,,610040fd17c5a03d279f90f3,610377da6925e7b72ab71a4f,2021-07-29_23h56.27.795,Simcolourproject_2stim_asymm_v5,2020.2.10,MacIntel,60,61025ae37ef11b136ea224fe,,,,,,,,,50,-33.4765625,-83.4609375,1,0,1,response5disk,,3,11.33203125,-14.28125,1,0,1,rectangle,11.33203125,-14.28125,1,0,1,11.33203125,-14.28125,1,0,1,0,141,141,4,1,,,,,,,,
,,,,,,,,,,,,,FF,,,,,,,,0.8518,,,,,,,,,,,,,,,,,,,,,,610040fd17c5a03d279f90f3,610377da6925e7b72ab71a4f,2021-07-29_23h56.27.795,Simcolourproject_2stim_asymm_v5,2020.2.10,MacIntel,60,61025ae37ef11b136ea224fe,,,,,,,,,1006,41.73828125,94.51953125,1,0,1,response1disk,,7,-16.40625,-0.02734375,1,0,1,rectangle,-16.40625,-0.02734375,1,0,1,-16.40625,-0.02734375,1,0,1,0,142,142,6,1,,,,,,,,
,,,,,,,,,,,,,FF,,,,,,,,1.0207,,,,,,,,,,,,,,,,,,,,,,610040fd17c5a03d279f90f3,610377da6925e7b72ab71a4f,2021-07-29_23h56.27.795,Simcolourproject_2stim_asymm_v5,2020.2.10,MacIntel,60,61025ae37ef11b136ea224fe,,,,,,,,,3154,-90.3046875,-40.515625,1,0,1,response5disk,,2,-6.703125,3.8984375,1,0,1,rectangle,-6.703125,3.8984375,1,0,1,-6.703125,3.8984375,1,0,1,0,143,143,78,1,,,,,,,,
,,,,,,,,,,,,,FF,,,,,,,,0.8704,,,,,,,,,,,,,,,,,,,,,,610040fd17c5a03d279f90f3,610377da6925e7b72ab71a4f,2021-07-29_23h56.27.795,Simcolourproject_2stim_asymm_v5,2020.2.10,MacIntel,60,61025ae37ef11b136ea224fe,,,,,,,,,2044,-53.6484375,-84.578125,1,0,1,response5disk,,3,-9.73828125,-5.359375,1,0,1,rectangle,-9.73828125,-5.359375,1,0,1,-9.73828125,-5.359375,1,0,1,0,144,144,48,1,,,,,,,,
,,,,,,,,,,,,,FF,,,,,,,,1.0857,,,,,,,,,,,,,,,,,,,,,,610040fd17c5a03d279f90f3,610377da6925e7b72ab71a4f,2021-07-29_23h56.27.795,Simcolourproject_2stim_asymm_v5,2020.2.10,MacIntel,60,61025ae37ef11b136ea224fe,,,,,,,,,111,91.25,61.73828125,1,0,1,response1disk,,6,-6.19921875,-10.76171875,1,0,1,rectangle,48.02734375,62.72265625,1,0,1,1.28125,-5.19140625,1,0,1,0,145,145,91,1,,response1disk_3,TRUE,7,7,"[134,43,146,15,285,188,310,66,129,235,168,231,100,230,317,86,260,51,226,77]",1.5209,rectangle
,,,,,,,,,,,,,FF,,,,,,,,1.6701,,,,,,,,,,,,,,,,,,,,,,610040fd17c5a03d279f90f3,610377da6925e7b72ab71a4f,2021-07-29_23h56.27.795,Simcolourproject_2stim_asymm_v5,2020.2.10,MacIntel,60,61025ae37ef11b136ea224fe,,,,,,,,,1784,43.4296875,82.25390625,1,0,1,response1disk,,7,17.93359375,1.7109375,1,0,1,rectangle,17.93359375,1.7109375,1,0,1,17.93359375,1.7109375,1,0,1,0,146,146,16,1,,,,,,,,
,,,,,,,,,,,,,FF,,,,,,,,0.8203,,,,,,,,,,,,,,,,,,,,,,610040fd17c5a03d279f90f3,610377da6925e7b72ab71a4f,2021-07-29_23h56.27.795,Simcolourproject_2stim_asymm_v5,2020.2.10,MacIntel,60,61025ae37ef11b136ea224fe,,,,,,,,,423,99.6484375,44.58203125,1,0,1,response1disk,,6,2.13671875,-7.12890625,1,0,1,rectangle,2.13671875,-7.12890625,1,0,1,2.13671875,-7.12890625,1,0,1,0,147,147,17,1,,,,,,,,
,,,,,,,,,,,,,FF,,,,,,,,0.7529,,,,,,,,,,,,,,,,,,,,,,610040fd17c5a03d279f90f3,610377da6925e7b72ab71a4f,2021-07-29_23h56.27.795,Simcolourproject_2stim_asymm_v5,2020.2.10,MacIntel,60,61025ae37ef11b136ea224fe,,,,,,,,,1330,58.59765625,103.0546875,1,0,1,response1disk,,7,5.7734375,7.83203125,1,0,1,rectangle,5.7734375,7.83203125,1,0,1,5.7734375,7.83203125,1,0,1,0,148,148,148,1,,,,,,,,
,,,,,,,,,,,,,FF,,,,,,,,0.7174,,,,,,,,,,,,,,,,,,,,,,610040fd17c5a03d279f90f3,610377da6925e7b72ab71a4f,2021-07-29_23h56.27.795,Simcolourproject_2stim_asymm_v5,2020.2.10,MacIntel,60,61025ae37ef11b136ea224fe,,,,,,,,,1716,31.6484375,70.62890625,1,0,1,response1disk,,7,9.94921875,-3.984375,1,0,1,rectangle,9.94921875,-3.984375,1,0,1,9.94921875,-3.984375,1,0,1,0,149,149,140,1,,,,,,,,
,,,,,,,,,,,,,FF,,,,,,,,1.1042,,,,,,,,,,,,,,,,,,,,,,610040fd17c5a03d279f90f3,610377da6925e7b72ab71a4f,2021-07-29_23h56.27.795,Simcolourproject_2stim_asymm_v5,2020.2.10,MacIntel,60,61025ae37ef11b136ea224fe,,,,,,,,,3518,-81.76953125,-32.42578125,1,0,1,response5disk,,2,-14.47265625,4.796875,1,0,1,rectangle,-14.47265625,4.796875,1,0,1,-14.47265625,4.796875,1,0,1,0,150,150,37,1,,,,,,,,
,,,,,,,,,,,,,FF,,,,,,,,1.3532,,,,,,,,,,,,,,,,,,,,,,610040fd17c5a03d279f90f3,610377da6925e7b72ab71a4f,2021-07-29_23h56.27.795,Simcolourproject_2stim_asymm_v5,2020.2.10,MacIntel,60,61025ae37ef11b136ea224fe,,,,,,,,,1771,-44.23046875,-80.21484375,1,0,1,response5disk,,3,7.97265625,5.1171875,1,0,1,rectangle,7.97265625,5.1171875,1,0,1,7.97265625,5.1171875,1,0,1,0,151,151,59,1,,,,,,,,
,,,,,,,,,,,,,FF,,,,,,,,0.9695,,,,,,,,,,,,,,,,,,,,,,610040fd17c5a03d279f90f3,610377da6925e7b72ab71a4f,2021-07-29_23h56.27.795,Simcolourproject_2stim_asymm_v5,2020.2.10,MacIntel,60,61025ae37ef11b136ea224fe,,,,,,,,,3736,-34.74609375,-104.6445313,1,0,1,response5disk,,3,-2.61328125,-14.5234375,1,0,1,rectangle,-2.61328125,-14.5234375,1,0,1,-2.61328125,-14.5234375,1,0,1,0,152,152,68,1,,,,,,,,
,,,,,,,,,,,,,FF,,,,,,,,2.7909,,,,,,,,,,,,,,,,,,,,,,610040fd17c5a03d279f90f3,610377da6925e7b72ab71a4f,2021-07-29_23h56.27.795,Simcolourproject_2stim_asymm_v5,2020.2.10,MacIntel,60,61025ae37ef11b136ea224fe,,,,,,,,,1332,72.2890625,68.43359375,1,0,1,response1disk,,6,12.36328125,8.19921875,1,0,1,rectangle,12.36328125,8.19921875,1,0,1,12.36328125,8.19921875,1,0,1,0,153,153,117,1,,,,,,,,
,,,,,,,,,,,,,FF,,,,,,,,2.1562,,,,,,,,,,,,,,,,,,,,,,610040fd17c5a03d279f90f3,610377da6925e7b72ab71a4f,2021-07-29_23h56.27.795,Simcolourproject_2stim_asymm_v5,2020.2.10,MacIntel,60,61025ae37ef11b136ea224fe,,,,,,,,,1271,51.40625,111.3984375,1,0,1,response1disk,,7,6.80078125,4.19140625,1,0,1,rectangle,6.80078125,4.19140625,1,0,1,6.80078125,4.19140625,1,0,1,0,154,154,20,1,,,,,,,,
,,,,,,,,,,,,,FF,,,,,,,,1.4538,,,,,,,,,,,,,,,,,,,,,,610040fd17c5a03d279f90f3,610377da6925e7b72ab71a4f,2021-07-29_23h56.27.795,Simcolourproject_2stim_asymm_v5,2020.2.10,MacIntel,60,61025ae37ef11b136ea224fe,,,,,,,,,362,50.15625,74.921875,1,0,1,response1disk,,7,3.96484375,-9.90625,1,0,1,rectangle,3.96484375,-9.90625,1,0,1,3.96484375,-9.90625,1,0,1,0,155,155,135,1,,,,,,,,
,,,,,,,,,,,,,FF,,,,,,,,0.6512,,,,,,,,,,,,,,,,,,,,,,610040fd17c5a03d279f90f3,610377da6925e7b72ab71a4f,2021-07-29_23h56.27.795,Simcolourproject_2stim_asymm_v5,2020.2.10,MacIntel,60,61025ae37ef11b136ea224fe,,,,,,,,,3134,36.0703125,71.3828125,1,0,1,response1disk,,7,5.1796875,2.20703125,1,0,1,rectangle,5.1796875,2.20703125,1,0,1,5.1796875,2.20703125,1,0,1,0,156,156,158,1,,,,,,,,
,,,,,,,,,,,,,FF,,,,,,,,1.4554,,,,,,,,,,,,,,,,,,,,,,610040fd17c5a03d279f90f3,610377da6925e7b72ab71a4f,2021-07-29_23h56.27.795,Simcolourproject_2stim_asymm_v5,2020.2.10,MacIntel,60,61025ae37ef11b136ea224fe,,,,,,,,,3199,-44.20703125,-87.828125,1,0,1,response5disk,,3,-9.8828125,-12.98046875,1,0,1,rectangle,-9.8828125,-12.98046875,1,0,1,-9.8828125,-12.98046875,1,0,1,0,157,157,67,1,,,,,,,,
,,,,,,,,,,,,,FF,,,,,,,,1.7719,,,,,,,,,,,,,,,,,,,,,,610040fd17c5a03d279f90f3,610377da6925e7b72ab71a4f,2021-07-29_23h56.27.795,Simcolourproject_2stim_asymm_v5,2020.2.10,MacIntel,60,61025ae37ef11b136ea224fe,,,,,,,,,1473,-34.1640625,-77.22265625,1,0,1,response5disk,,3,2.4921875,-0.421875,1,0,1,rectangle,2.4921875,-0.421875,1,0,1,2.4921875,-0.421875,1,0,1,0,158,158,2,1,,,,,,,,
,,,,,,,,,,,,,FF,,,,,,,,1.0531,,,,,,,,,,,,,,,,,,,,,,610040fd17c5a03d279f90f3,610377da6925e7b72ab71a4f,2021-07-29_23h56.27.795,Simcolourproject_2stim_asymm_v5,2020.2.10,MacIntel,60,61025ae37ef11b136ea224fe,,,,,,,,,3240,-87.05078125,-40.64453125,1,0,1,response5disk,,2,8.296875,-8.1953125,1,0,1,rectangle,8.296875,-8.1953125,1,0,1,8.296875,-8.1953125,1,0,1,0,159,159,116,1,,,,,,,,
,,,,,,,,,,,,,FF,,,,,,,,0.8172,,,,,,,,,,,,,,,,,,,,,,610040fd17c5a03d279f90f3,610377da6925e7b72ab71a4f,2021-07-29_23h56.27.795,Simcolourproject_2stim_asymm_v5,2020.2.10,MacIntel,60,61025ae37ef11b136ea224fe,,,,,,,,,374,-69.6640625,-48.08203125,1,0,1,response5disk,,2,-15.3359375,-17.25390625,1,0,1,rectangle,-15.3359375,-17.25390625,1,0,1,-15.3359375,-17.25390625,1,0,1,1,0,160,129,1,,,,,,,,
,,,,,,,,,,,,,FF,,,,,,,,0.935,,,,,,,,,,,,,,,,,,,,,,610040fd17c5a03d279f90f3,610377da6925e7b72ab71a4f,2021-07-29_23h56.27.795,Simcolourproject_2stim_asymm_v5,2020.2.10,MacIntel,60,61025ae37ef11b136ea224fe,,,,,,,,,3485,91.68359375,47.72265625,1,0,1,response1disk,,6,-5.3203125,-16.80078125,1,0,1,rectangle,-5.3203125,-16.80078125,1,0,1,-5.3203125,-16.80078125,1,0,1,1,1,161,25,1,,,,,,,,
,,,,,,,,,,,,,FF,,,,,,,,0.8527,,,,,,,,,,,,,,,,,,,,,,610040fd17c5a03d279f90f3,610377da6925e7b72ab71a4f,2021-07-29_23h56.27.795,Simcolourproject_2stim_asymm_v5,2020.2.10,MacIntel,60,61025ae37ef11b136ea224fe,,,,,,,,,1444,39.72265625,67.640625,1,0,1,response1disk,,7,-2.296875,9.62109375,1,0,1,rectangle,-2.296875,9.62109375,1,0,1,-2.296875,9.62109375,1,0,1,1,2,162,19,1,,,,,,,,
,,,,,,,,,,,,,FF,,,,,,,,2.4214,,,,,,,,,,,,,,,,,,,,,,610040fd17c5a03d279f90f3,610377da6925e7b72ab71a4f,2021-07-29_23h56.27.795,Simcolourproject_2stim_asymm_v5,2020.2.10,MacIntel,60,61025ae37ef11b136ea224fe,,,,,,,,,2715,-82.94140625,-34.02734375,1,0,1,response5disk,,2,-15.66015625,-9.56640625,1,0,1,rectangle,-15.66015625,-9.56640625,1,0,1,-15.66015625,-9.56640625,1,0,1,1,3,163,113,1,,,,,,,,
,,,,,,,,,,,,,FF,,,,,,,,1.1538,,,,,,,,,,,,,,,,,,,,,,610040fd17c5a03d279f90f3,610377da6925e7b72ab71a4f,2021-07-29_23h56.27.795,Simcolourproject_2stim_asymm_v5,2020.2.10,MacIntel,60,61025ae37ef11b136ea224fe,,,,,,,,,754,87.1015625,74.17578125,1,0,1,response1disk,,6,-2.42578125,-2.78125,1,0,1,rectangle,-2.42578125,-2.78125,1,0,1,-2.42578125,-2.78125,1,0,1,1,4,164,148,1,,,,,,,,
,,,,,,,,,,,,,FF,,,,,,,,0.7522,,,,,,,,,,,,,,,,,,,,,,610040fd17c5a03d279f90f3,610377da6925e7b72ab71a4f,2021-07-29_23h56.27.795,Simcolourproject_2stim_asymm_v5,2020.2.10,MacIntel,60,61025ae37ef11b136ea224fe,,,,,,,,,3317,43.3828125,72.71484375,1,0,1,response1disk,,7,-0.94140625,-5.51953125,1,0,1,rectangle,-0.94140625,-5.51953125,1,0,1,-0.94140625,-5.51953125,1,0,1,1,5,165,66,1,,,,,,,,
,,,,,,,,,,,,,FF,,,,,,,,2.1228,,,,,,,,,,,,,,,,,,,,,,610040fd17c5a03d279f90f3,610377da6925e7b72ab71a4f,2021-07-29_23h56.27.795,Simcolourproject_2stim_asymm_v5,2020.2.10,MacIntel,60,61025ae37ef11b136ea224fe,,,,,,,,,4024,-42.35546875,-80.75,1,0,1,response5disk,,3,-6.23046875,-0.8828125,1,0,1,rectangle,-6.23046875,-0.8828125,1,0,1,-6.23046875,-0.8828125,1,0,1,1,6,166,26,1,,,,,,,,
,,,,,,,,,,,,,FF,,,,,,,,1.1194,,,,,,,,,,,,,,,,,,,,,,610040fd17c5a03d279f90f3,610377da6925e7b72ab71a4f,2021-07-29_23h56.27.795,Simcolourproject_2stim_asymm_v5,2020.2.10,MacIntel,60,61025ae37ef11b136ea224fe,,,,,,,,,4366,-34.1171875,81.52734375,1,0,1,response7disk,,0,1.65234375,4.34765625,1,0,1,rectangle,39.08203125,-86.0859375,1,0,1,14.84375,7.21484375,1,0,1,1,7,167,122,1,,response3disk_3,TRUE,4,4,"[134,43,146,15,285,188,310,66,129,235,168,231,100,230,317,86,260,51,226,77]",1.6381,rectangle
,,,,,,,,,,,,,FF,,,,,,,,1.2858,,,,,,,,,,,,,,,,,,,,,,610040fd17c5a03d279f90f3,610377da6925e7b72ab71a4f,2021-07-29_23h56.27.795,Simcolourproject_2stim_asymm_v5,2020.2.10,MacIntel,60,61025ae37ef11b136ea224fe,,,,,,,,,3432,-39.22265625,70.94140625,1,0,1,response7disk,,0,-1.10546875,-2.91015625,1,0,1,rectangle,-1.10546875,-2.91015625,1,0,1,-1.10546875,-2.91015625,1,0,1,1,8,168,4,1,,,,,,,,
,,,,,,,,,,,,,FF,,,,,,,,1.4705,,,,,,,,,,,,,,,,,,,,,,610040fd17c5a03d279f90f3,610377da6925e7b72ab71a4f,2021-07-29_23h56.27.795,Simcolourproject_2stim_asymm_v5,2020.2.10,MacIntel,60,61025ae37ef11b136ea224fe,,,,,,,,,3962,74.6484375,-56.6796875,1,0,1,response3disk,,5,1.42578125,-1.91015625,1,0,1,rectangle,1.42578125,-1.91015625,1,0,1,1.42578125,-1.91015625,1,0,1,1,9,169,42,1,,,,,,,,
,,,,,,,,,,,,,FF,,,,,,,,1.7882,,,,,,,,,,,,,,,,,,,,,,610040fd17c5a03d279f90f3,610377da6925e7b72ab71a4f,2021-07-29_23h56.27.795,Simcolourproject_2stim_asymm_v5,2020.2.10,MacIntel,60,61025ae37ef11b136ea224fe,,,,,,,,,2253,-40.26171875,-90.48828125,1,0,1,response5disk,,3,-3.23046875,-4.390625,1,0,1,rectangle,-3.23046875,-4.390625,1,0,1,-3.23046875,-4.390625,1,0,1,1,10,170,30,1,,,,,,,,
,,,,,,,,,,,,,FF,,,,,,,,0.8202,,,,,,,,,,,,,,,,,,,,,,610040fd17c5a03d279f90f3,610377da6925e7b72ab71a4f,2021-07-29_23h56.27.795,Simcolourproject_2stim_asymm_v5,2020.2.10,MacIntel,60,61025ae37ef11b136ea224fe,,,,,,,,,2103,-86.30078125,-50.18359375,1,0,1,response5disk,,2,-6.56640625,2.015625,1,0,1,rectangle,-6.56640625,2.015625,1,0,1,-6.56640625,2.015625,1,0,1,1,11,171,57,1,,,,,,,,
,,,,,,,,,,,,,FF,,,,,,,,1.9547,,,,,,,,,,,,,,,,,,,,,,610040fd17c5a03d279f90f3,610377da6925e7b72ab71a4f,2021-07-29_23h56.27.795,Simcolourproject_2stim_asymm_v5,2020.2.10,MacIntel,60,61025ae37ef11b136ea224fe,,,,,,,,,2819,102.2304688,64.69921875,1,0,1,response1disk,,6,3.71875,-1.578125,1,0,1,rectangle,3.71875,-1.578125,1,0,1,3.71875,-1.578125,1,0,1,1,12,172,11,1,,,,,,,,
,,,,,,,,,,,,,FF,,,,,,,,0.8686,,,,,,,,,,,,,,,,,,,,,,610040fd17c5a03d279f90f3,610377da6925e7b72ab71a4f,2021-07-29_23h56.27.795,Simcolourproject_2stim_asymm_v5,2020.2.10,MacIntel,60,61025ae37ef11b136ea224fe,,,,,,,,,1569,64.40234375,87.30859375,1,0,1,response1disk,,7,15.33984375,-0.9296875,1,0,1,rectangle,15.33984375,-0.9296875,1,0,1,15.33984375,-0.9296875,1,0,1,1,13,173,150,1,,,,,,,,
,,,,,,,,,,,,,FF,,,,,,,,1.2022,,,,,,,,,,,,,,,,,,,,,,610040fd17c5a03d279f90f3,610377da6925e7b72ab71a4f,2021-07-29_23h56.27.795,Simcolourproject_2stim_asymm_v5,2020.2.10,MacIntel,60,61025ae37ef11b136ea224fe,,,,,,,,,1426,76.90625,-36.32421875,1,0,1,response3disk,,5,20.58203125,3.53125,1,0,1,rectangle,20.58203125,3.53125,1,0,1,20.58203125,3.53125,1,0,1,1,14,174,155,1,,,,,,,,
,,,,,,,,,,,,,FF,,,,,,,,1.3527,,,,,,,,,,,,,,,,,,,,,,610040fd17c5a03d279f90f3,610377da6925e7b72ab71a4f,2021-07-29_23h56.27.795,Simcolourproject_2stim_asymm_v5,2020.2.10,MacIntel,60,61025ae37ef11b136ea224fe,,,,,,,,,1503,57.3359375,92.70703125,1,0,1,response1disk,,7,14.875,-0.8984375,1,0,1,rectangle,14.875,-0.8984375,1,0,1,14.875,-0.8984375,1,0,1,1,15,175,5,1,,,,,,,,
,,,,,,,,,,,,,FF,,,,,,,,1.4862,,,,,,,,,,,,,,,,,,,,,,610040fd17c5a03d279f90f3,610377da6925e7b72ab71a4f,2021-07-29_23h56.27.795,Simcolourproject_2stim_asymm_v5,2020.2.10,MacIntel,60,61025ae37ef11b136ea224fe,,,,,,,,,2039,-42.25,-81.69140625,1,0,1,response5disk,,3,-2.80859375,0.2890625,1,0,1,rectangle,-2.80859375,0.2890625,1,0,1,-2.80859375,0.2890625,1,0,1,1,16,176,8,1,,,,,,,,
,,,,,,,,,,,,,FF,,,,,,,,1.922,,,,,,,,,,,,,,,,,,,,,,610040fd17c5a03d279f90f3,610377da6925e7b72ab71a4f,2021-07-29_23h56.27.795,Simcolourproject_2stim_asymm_v5,2020.2.10,MacIntel,60,61025ae37ef11b136ea224fe,,,,,,,,,3941,-34.6015625,-80.6953125,1,0,1,response5disk,,3,1.22265625,-6.578125,1,0,1,rectangle,1.22265625,-6.578125,1,0,1,1.22265625,-6.578125,1,0,1,1,17,177,133,1,,,,,,,,
,,,,,,,,,,,,,FF,,,,,,,,0.8189,,,,,,,,,,,,,,,,,,,,,,610040fd17c5a03d279f90f3,610377da6925e7b72ab71a4f,2021-07-29_23h56.27.795,Simcolourproject_2stim_asymm_v5,2020.2.10,MacIntel,60,61025ae37ef11b136ea224fe,,,,,,,,,1603,-42.30859375,76.9765625,1,0,1,response7disk,,0,1.77734375,3.55859375,1,0,1,rectangle,1.77734375,3.55859375,1,0,1,1.77734375,3.55859375,1,0,1,1,18,178,32,1,,,,,,,,
,,,,,,,,,,,,,FF,,,,,,,,0.9685,,,,,,,,,,,,,,,,,,,,,,610040fd17c5a03d279f90f3,610377da6925e7b72ab71a4f,2021-07-29_23h56.27.795,Simcolourproject_2stim_asymm_v5,2020.2.10,MacIntel,60,61025ae37ef11b136ea224fe,,,,,,,,,1626,67.4921875,91.33203125,1,0,1,response1disk,,7,-1.68359375,-1.21484375,1,0,1,rectangle,-1.68359375,-1.21484375,1,0,1,-1.68359375,-1.21484375,1,0,1,1,19,179,90,1,,,,,,,,
,,,,,,,,,,,,,FF,,,,,,,,0.9847,,,,,,,,,,,,,,,,,,,,,,610040fd17c5a03d279f90f3,610377da6925e7b72ab71a4f,2021-07-29_23h56.27.795,Simcolourproject_2stim_asymm_v5,2020.2.10,MacIntel,60,61025ae37ef11b136ea224fe,,,,,,,,,2195,74.09375,-51.609375,1,0,1,response3disk,,5,14.640625,-4.0078125,1,0,1,rectangle,14.640625,-4.0078125,1,0,1,14.640625,-4.0078125,1,0,1,1,20,180,12,1,,,,,,,,
,,,,,,,,,,,,,FF,,,,,,,,0.7688,,,,,,,,,,,,,,,,,,,,,,610040fd17c5a03d279f90f3,610377da6925e7b72ab71a4f,2021-07-29_23h56.27.795,Simcolourproject_2stim_asymm_v5,2020.2.10,MacIntel,60,61025ae37ef11b136ea224fe,,,,,,,,,3890,59.52734375,80.46875,1,0,1,response1disk,,7,0.7265625,1.9609375,1,0,1,rectangle,0.7265625,1.9609375,1,0,1,0.7265625,1.9609375,1,0,1,1,21,181,81,1,,,,,,,,
,,,,,,,,,,,,,FF,,,,,,,,1.5213,,,,,,,,,,,,,,,,,,,,,,610040fd17c5a03d279f90f3,610377da6925e7b72ab71a4f,2021-07-29_23h56.27.795,Simcolourproject_2stim_asymm_v5,2020.2.10,MacIntel,60,61025ae37ef11b136ea224fe,,,,,,,,,792,103.4726563,46.7421875,1,0,1,response1disk,,6,20.2890625,-2.609375,1,0,1,rectangle,20.2890625,-2.609375,1,0,1,20.2890625,-2.609375,1,0,1,1,22,182,97,1,,,,,,,,
,,,,,,,,,,,,,FF,,,,,,,,0.7175,,,,,,,,,,,,,,,,,,,,,,610040fd17c5a03d279f90f3,610377da6925e7b72ab71a4f,2021-07-29_23h56.27.795,Simcolourproject_2stim_asymm_v5,2020.2.10,MacIntel,60,61025ae37ef11b136ea224fe,,,,,,,,,2775,-50.828125,88.93359375,1,0,1,response7disk,,0,-8.484375,-0.96875,1,0,1,rectangle,-8.484375,-0.96875,1,0,1,-8.484375,-0.96875,1,0,1,1,23,183,146,1,,,,,,,,
,,,,,,,,,,,,,FF,,,,,,,,0.8021,,,,,,,,,,,,,,,,,,,,,,610040fd17c5a03d279f90f3,610377da6925e7b72ab71a4f,2021-07-29_23h56.27.795,Simcolourproject_2stim_asymm_v5,2020.2.10,MacIntel,60,61025ae37ef11b136ea224fe,,,,,,,,,2822,37.52734375,75.53125,1,0,1,response1disk,,7,-6.44140625,-5.43359375,1,0,1,rectangle,-6.44140625,-5.43359375,1,0,1,-6.44140625,-5.43359375,1,0,1,1,24,184,157,1,,,,,,,,
,,,,,,,,,,,,,FF,,,,,,,,2.0217,,,,,,,,,,,,,,,,,,,,,,610040fd17c5a03d279f90f3,610377da6925e7b72ab71a4f,2021-07-29_23h56.27.795,Simcolourproject_2stim_asymm_v5,2020.2.10,MacIntel,60,61025ae37ef11b136ea224fe,,,,,,,,,4082,39.71875,-74.890625,1,0,1,response3disk,,4,9.39453125,-6.40625,1,0,1,rectangle,9.39453125,-6.40625,1,0,1,9.39453125,-6.40625,1,0,1,1,25,185,23,1,,,,,,,,
,,,,,,,,,,,,,FF,,,,,,,,1.6035,,,,,,,,,,,,,,,,,,,,,,610040fd17c5a03d279f90f3,610377da6925e7b72ab71a4f,2021-07-29_23h56.27.795,Simcolourproject_2stim_asymm_v5,2020.2.10,MacIntel,60,61025ae37ef11b136ea224fe,,,,,,,,,2553,-37.078125,-89.99609375,1,0,1,response5disk,,3,15.46484375,7.86328125,1,0,1,rectangle,15.46484375,7.86328125,1,0,1,15.46484375,7.86328125,1,0,1,1,26,186,35,1,,,,,,,,
,,,,,,,,,,,,,FF,,,,,,,,2.3217,,,,,,,,,,,,,,,,,,,,,,610040fd17c5a03d279f90f3,610377da6925e7b72ab71a4f,2021-07-29_23h56.27.795,Simcolourproject_2stim_asymm_v5,2020.2.10,MacIntel,60,61025ae37ef11b136ea224fe,,,,,,,,,732,103.0390625,-52.125,1,0,1,response3disk,,5,7.5,-1.4296875,1,0,1,rectangle,90.70703125,-38.5859375,1,0,1,17.453125,-6.57421875,1,0,1,1,27,187,80,1,,response3disk_3,TRUE,5,5,"[134,43,146,15,285,188,310,66,129,235,168,231,100,230,317,86,260,51,226,77]",1.5018,rectangle
,,,,,,,,,,,,,FF,,,,,,,,1.0536,,,,,,,,,,,,,,,,,,,,,,610040fd17c5a03d279f90f3,610377da6925e7b72ab71a4f,2021-07-29_23h56.27.795,Simcolourproject_2stim_asymm_v5,2020.2.10,MacIntel,60,61025ae37ef11b136ea224fe,,,,,,,,,3585,-66.640625,-44.13671875,1,0,1,response5disk,,2,7.7421875,-12.00390625,1,0,1,rectangle,7.7421875,-12.00390625,1,0,1,7.7421875,-12.00390625,1,0,1,1,28,188,34,1,,,,,,,,
,,,,,,,,,,,,,FF,,,,,,,,0.9347,,,,,,,,,,,,,,,,,,,,,,610040fd17c5a03d279f90f3,610377da6925e7b72ab71a4f,2021-07-29_23h56.27.795,Simcolourproject_2stim_asymm_v5,2020.2.10,MacIntel,60,61025ae37ef11b136ea224fe,,,,,,,,,2946,-85.80859375,-47.54296875,1,0,1,response5disk,,2,18.5078125,-1.546875,1,0,1,rectangle,18.5078125,-1.546875,1,0,1,18.5078125,-1.546875,1,0,1,1,29,189,37,1,,,,,,,,
,,,,,,,,,,,,,FF,,,,,,,,0.802,,,,,,,,,,,,,,,,,,,,,,610040fd17c5a03d279f90f3,610377da6925e7b72ab71a4f,2021-07-29_23h56.27.795,Simcolourproject_2stim_asymm_v5,2020.2.10,MacIntel,60,61025ae37ef11b136ea224fe,,,,,,,,,2699,55.90234375,80.234375,1,0,1,response1disk,,7,17.06640625,4.98828125,1,0,1,rectangle,17.06640625,4.98828125,1,0,1,17.06640625,4.98828125,1,0,1,1,30,190,151,1,,,,,,,,
,,,,,,,,,,,,,FF,,,,,,,,1.3031,,,,,,,,,,,,,,,,,,,,,,610040fd17c5a03d279f90f3,610377da6925e7b72ab71a4f,2021-07-29_23h56.27.795,Simcolourproject_2stim_asymm_v5,2020.2.10,MacIntel,60,61025ae37ef11b136ea224fe,,,,,,,,,2892,-38.921875,-88.70703125,1,0,1,response5disk,,3,4.625,10.05859375,1,0,1,rectangle,4.625,10.05859375,1,0,1,4.625,10.05859375,1,0,1,1,31,191,36,1,,,,,,,,
,,,,,,,,,,,,,FF,,,,,,,,0.8359,,,,,,,,,,,,,,,,,,,,,,610040fd17c5a03d279f90f3,610377da6925e7b72ab71a4f,2021-07-29_23h56.27.795,Simcolourproject_2stim_asymm_v5,2020.2.10,MacIntel,60,61025ae37ef11b136ea224fe,,,,,,,,,2454,61.33984375,84.8203125,1,0,1,response1disk,,7,13.33984375,0.3125,1,0,1,rectangle,13.33984375,0.3125,1,0,1,13.33984375,0.3125,1,0,1,1,32,192,94,1,,,,,,,,
,,,,,,,,,,,,,FF,,,,,,,,1.0191,,,,,,,,,,,,,,,,,,,,,,610040fd17c5a03d279f90f3,610377da6925e7b72ab71a4f,2021-07-29_23h56.27.795,Simcolourproject_2stim_asymm_v5,2020.2.10,MacIntel,60,61025ae37ef11b136ea224fe,,,,,,,,,586,45.7734375,73.00390625,1,0,1,response1disk,,7,-8.3359375,-13.6953125,1,0,1,rectangle,-8.3359375,-13.6953125,1,0,1,-8.3359375,-13.6953125,1,0,1,1,33,193,7,1,,,,,,,,
,,,,,,,,,,,,,FF,,,,,,,,1.2375,,,,,,,,,,,,,,,,,,,,,,610040fd17c5a03d279f90f3,610377da6925e7b72ab71a4f,2021-07-29_23h56.27.795,Simcolourproject_2stim_asymm_v5,2020.2.10,MacIntel,60,61025ae37ef11b136ea224fe,,,,,,,,,490,72.2734375,-45.43359375,1,0,1,response3disk,,5,3.18359375,-4.453125,1,0,1,rectangle,3.18359375,-4.453125,1,0,1,3.18359375,-4.453125,1,0,1,1,34,194,59,1,,,,,,,,
,,,,,,,,,,,,,FF,,,,,,,,1.3542,,,,,,,,,,,,,,,,,,,,,,610040fd17c5a03d279f90f3,610377da6925e7b72ab71a4f,2021-07-29_23h56.27.795,Simcolourproject_2stim_asymm_v5,2020.2.10,MacIntel,60,61025ae37ef11b136ea224fe,,,,,,,,,95,-73.4609375,49.578125,1,0,1,response7disk,,1,-3.59765625,-1.86328125,1,0,1,rectangle,-3.59765625,-1.86328125,1,0,1,-3.59765625,-1.86328125,1,0,1,1,35,195,152,1,,,,,,,,
,,,,,,,,,,,,,FF,,,,,,,,1.7388,,,,,,,,,,,,,,,,,,,,,,610040fd17c5a03d279f90f3,610377da6925e7b72ab71a4f,2021-07-29_23h56.27.795,Simcolourproject_2stim_asymm_v5,2020.2.10,MacIntel,60,61025ae37ef11b136ea224fe,,,,,,,,,570,-45.3203125,-61.22265625,1,0,1,response5disk,,3,-17.04296875,-12.71875,1,0,1,rectangle,-17.04296875,-12.71875,1,0,1,-17.04296875,-12.71875,1,0,1,1,36,196,41,1,,,,,,,,
,,,,,,,,,,,,,FF,,,,,,,,1.0692,,,,,,,,,,,,,,,,,,,,,,610040fd17c5a03d279f90f3,610377da6925e7b72ab71a4f,2021-07-29_23h56.27.795,Simcolourproject_2stim_asymm_v5,2020.2.10,MacIntel,60,61025ae37ef11b136ea224fe,,,,,,,,,3337,-45.76953125,-71.67578125,1,0,1,response5disk,,3,4.4921875,-9.4140625,1,0,1,rectangle,4.4921875,-9.4140625,1,0,1,4.4921875,-9.4140625,1,0,1,1,37,197,120,1,,,,,,,,
,,,,,,,,,,,,,FF,,,,,,,,1.0193,,,,,,,,,,,,,,,,,,,,,,610040fd17c5a03d279f90f3,610377da6925e7b72ab71a4f,2021-07-29_23h56.27.795,Simcolourproject_2stim_asymm_v5,2020.2.10,MacIntel,60,61025ae37ef11b136ea224fe,,,,,,,,,2061,78.26171875,53.23828125,1,0,1,response1disk,,6,-20.171875,-0.70703125,1,0,1,rectangle,-20.171875,-0.70703125,1,0,1,-20.171875,-0.70703125,1,0,1,1,38,198,106,1,,,,,,,,
,,,,,,,,,,,,,FF,,,,,,,,0.9188,,,,,,,,,,,,,,,,,,,,,,610040fd17c5a03d279f90f3,610377da6925e7b72ab71a4f,2021-07-29_23h56.27.795,Simcolourproject_2stim_asymm_v5,2020.2.10,MacIntel,60,61025ae37ef11b136ea224fe,,,,,,,,,2023,64.9296875,89.31640625,1,0,1,response1disk,,7,-3.51171875,3.1015625,1,0,1,rectangle,-3.51171875,3.1015625,1,0,1,-3.51171875,3.1015625,1,0,1,1,39,199,22,1,,,,,,,,
,,,,,,,,,,,,,FF,,,,,,,,1.2701,,,,,,,,,,,,,,,,,,,,,,610040fd17c5a03d279f90f3,610377da6925e7b72ab71a4f,2021-07-29_23h56.27.795,Simcolourproject_2stim_asymm_v5,2020.2.10,MacIntel,60,61025ae37ef11b136ea224fe,,,,,,,,,1793,58.07421875,92.8046875,1,0,1,response1disk,,7,0.91796875,5.33203125,1,0,1,rectangle,0.91796875,5.33203125,1,0,1,0.91796875,5.33203125,1,0,1,1,40,200,28,1,,,,,,,,
,,,,,,,,,,,,,FF,,,,,,,,1.5544,,,,,,,,,,,,,,,,,,,,,,610040fd17c5a03d279f90f3,610377da6925e7b72ab71a4f,2021-07-29_23h56.27.795,Simcolourproject_2stim_asymm_v5,2020.2.10,MacIntel,60,61025ae37ef11b136ea224fe,,,,,,,,,819,36.7265625,-66.32421875,1,0,1,response3disk,,4,-3.37890625,-0.5546875,1,0,1,rectangle,-3.37890625,-0.5546875,1,0,1,-3.37890625,-0.5546875,1,0,1,1,41,201,16,1,,,,,,,,
,,,,,,,,,,,,,FF,,,,,,,,1.0529,,,,,,,,,,,,,,,,,,,,,,610040fd17c5a03d279f90f3,610377da6925e7b72ab71a4f,2021-07-29_23h56.27.795,Simcolourproject_2stim_asymm_v5,2020.2.10,MacIntel,60,61025ae37ef11b136ea224fe,,,,,,,,,1425,37.5,-85.1328125,1,0,1,response3disk,,4,8.58203125,-9.4921875,1,0,1,rectangle,8.58203125,-9.4921875,1,0,1,8.58203125,-9.4921875,1,0,1,1,42,202,126,1,,,,,,,,
,,,,,,,,,,,,,FF,,,,,,,,0.8534,,,,,,,,,,,,,,,,,,,,,,610040fd17c5a03d279f90f3,610377da6925e7b72ab71a4f,2021-07-29_23h56.27.795,Simcolourproject_2stim_asymm_v5,2020.2.10,MacIntel,60,61025ae37ef11b136ea224fe,,,,,,,,,1302,-80.5078125,-42.44140625,1,0,1,response5disk,,2,-20.80859375,-8.30078125,1,0,1,rectangle,-20.80859375,-8.30078125,1,0,1,-20.80859375,-8.30078125,1,0,1,1,43,203,52,1,,,,,,,,
,,,,,,,,,,,,,FF,,,,,,,,0.7519,,,,,,,,,,,,,,,,,,,,,,610040fd17c5a03d279f90f3,610377da6925e7b72ab71a4f,2021-07-29_23h56.27.795,Simcolourproject_2stim_asymm_v5,2020.2.10,MacIntel,60,61025ae37ef11b136ea224fe,,,,,,,,,3875,-50.08984375,80.25,1,0,1,response7disk,,0,-3.44921875,9.15625,1,0,1,rectangle,-3.44921875,9.15625,1,0,1,-3.44921875,9.15625,1,0,1,1,44,204,154,1,,,,,,,,
,,,,,,,,,,,,,FF,,,,,,,,1.1032,,,,,,,,,,,,,,,,,,,,,,610040fd17c5a03d279f90f3,610377da6925e7b72ab71a4f,2021-07-29_23h56.27.795,Simcolourproject_2stim_asymm_v5,2020.2.10,MacIntel,60,61025ae37ef11b136ea224fe,,,,,,,,,3539,98.05859375,61.0859375,1,0,1,response1disk,,6,-3.01953125,-1.54296875,1,0,1,rectangle,-3.01953125,-1.54296875,1,0,1,-3.01953125,-1.54296875,1,0,1,1,45,205,123,1,,,,,,,,
,,,,,,,,,,,,,FF,,,,,,,,1.2035,,,,,,,,,,,,,,,,,,,,,,610040fd17c5a03d279f90f3,610377da6925e7b72ab71a4f,2021-07-29_23h56.27.795,Simcolourproject_2stim_asymm_v5,2020.2.10,MacIntel,60,61025ae37ef11b136ea224fe,,,,,,,,,2500,89.06640625,-29.09375,1,0,1,response3disk,,5,13.64453125,1.01953125,1,0,1,rectangle,13.64453125,1.01953125,1,0,1,13.64453125,1.01953125,1,0,1,1,46,206,48,1,,,,,,,,
,,,,,,,,,,,,,FF,,,,,,,,2.4057,,,,,,,,,,,,,,,,,,,,,,610040fd17c5a03d279f90f3,610377da6925e7b72ab71a4f,2021-07-29_23h56.27.795,Simcolourproject_2stim_asymm_v5,2020.2.10,MacIntel,60,61025ae37ef11b136ea224fe,,,,,,,,,2598,97.5,54.90625,1,0,1,response1disk,,6,4.5703125,4.83203125,1,0,1,rectangle,4.5703125,4.83203125,1,0,1,4.5703125,4.83203125,1,0,1,1,47,207,2,1,,,,,,,,
,,,,,,,,,,,,,FF,,,,,,,,0.7188,,,,,,,,,,,,,,,,,,,,,,610040fd17c5a03d279f90f3,610377da6925e7b72ab71a4f,2021-07-29_23h56.27.795,Simcolourproject_2stim_asymm_v5,2020.2.10,MacIntel,60,61025ae37ef11b136ea224fe,,,,,,,,,717,-39.3046875,85.94140625,1,0,1,response7disk,,0,4.5078125,-3.6796875,1,0,1,rectangle,4.5078125,-3.6796875,1,0,1,4.5078125,-3.6796875,1,0,1,1,48,208,24,1,,,,,,,,
,,,,,,,,,,,,,FF,,,,,,,,0.9701,,,,,,,,,,,,,,,,,,,,,,610040fd17c5a03d279f90f3,610377da6925e7b72ab71a4f,2021-07-29_23h56.27.795,Simcolourproject_2stim_asymm_v5,2020.2.10,MacIntel,60,61025ae37ef11b136ea224fe,,,,,,,,,418,57.46484375,81.140625,1,0,1,response1disk,,7,1.97265625,1.46875,1,0,1,rectangle,1.97265625,1.46875,1,0,1,1.97265625,1.46875,1,0,1,1,49,209,125,1,,,,,,,,
,,,,,,,,,,,,,FF,,,,,,,,0.6357,,,,,,,,,,,,,,,,,,,,,,610040fd17c5a03d279f90f3,610377da6925e7b72ab71a4f,2021-07-29_23h56.27.795,Simcolourproject_2stim_asymm_v5,2020.2.10,MacIntel,60,61025ae37ef11b136ea224fe,,,,,,,,,2458,28.59375,60.26171875,1,0,1,response1disk,,7,-0.34375,-9.34765625,1,0,1,rectangle,-0.34375,-9.34765625,1,0,1,-0.34375,-9.34765625,1,0,1,1,50,210,82,1,,,,,,,,
,,,,,,,,,,,,,FF,,,,,,,,1.9383,,,,,,,,,,,,,,,,,,,,,,610040fd17c5a03d279f90f3,610377da6925e7b72ab71a4f,2021-07-29_23h56.27.795,Simcolourproject_2stim_asymm_v5,2020.2.10,MacIntel,60,61025ae37ef11b136ea224fe,,,,,,,,,3056,73.66015625,-48.65625,1,0,1,response3disk,,5,24.10546875,4.12109375,1,0,1,rectangle,24.10546875,4.12109375,1,0,1,24.10546875,4.12109375,1,0,1,1,51,211,100,1,,,,,,,,
,,,,,,,,,,,,,FF,,,,,,,,0.8858,,,,,,,,,,,,,,,,,,,,,,610040fd17c5a03d279f90f3,610377da6925e7b72ab71a4f,2021-07-29_23h56.27.795,Simcolourproject_2stim_asymm_v5,2020.2.10,MacIntel,60,61025ae37ef11b136ea224fe,,,,,,,,,849,46.7421875,76.7109375,1,0,1,response1disk,,7,6.90234375,-5.328125,1,0,1,rectangle,6.90234375,-5.328125,1,0,1,6.90234375,-5.328125,1,0,1,1,52,212,109,1,,,,,,,,
,,,,,,,,,,,,,FF,,,,,,,,0.7027,,,,,,,,,,,,,,,,,,,,,,610040fd17c5a03d279f90f3,610377da6925e7b72ab71a4f,2021-07-29_23h56.27.795,Simcolourproject_2stim_asymm_v5,2020.2.10,MacIntel,60,61025ae37ef11b136ea224fe,,,,,,,,,3262,63.14453125,90.30078125,1,0,1,response1disk,,7,7.07421875,-2.421875,1,0,1,rectangle,7.07421875,-2.421875,1,0,1,7.07421875,-2.421875,1,0,1,1,53,213,55,1,,,,,,,,
,,,,,,,,,,,,,FF,,,,,,,,0.902,,,,,,,,,,,,,,,,,,,,,,610040fd17c5a03d279f90f3,610377da6925e7b72ab71a4f,2021-07-29_23h56.27.795,Simcolourproject_2stim_asymm_v5,2020.2.10,MacIntel,60,61025ae37ef11b136ea224fe,,,,,,,,,3745,102.1523438,35.86328125,1,0,1,response1disk,,6,12.2890625,-5.5,1,0,1,rectangle,12.2890625,-5.5,1,0,1,12.2890625,-5.5,1,0,1,1,54,214,140,1,,,,,,,,
,,,,,,,,,,,,,FF,,,,,,,,1.169,,,,,,,,,,,,,,,,,,,,,,610040fd17c5a03d279f90f3,610377da6925e7b72ab71a4f,2021-07-29_23h56.27.795,Simcolourproject_2stim_asymm_v5,2020.2.10,MacIntel,60,61025ae37ef11b136ea224fe,,,,,,,,,2245,-63.66796875,-54.00390625,1,0,1,response5disk,,2,17.84765625,-0.64453125,1,0,1,rectangle,17.84765625,-0.64453125,1,0,1,17.84765625,-0.64453125,1,0,1,1,55,215,31,1,,,,,,,,
,,,,,,,,,,,,,FF,,,,,,,,0.8206,,,,,,,,,,,,,,,,,,,,,,610040fd17c5a03d279f90f3,610377da6925e7b72ab71a4f,2021-07-29_23h56.27.795,Simcolourproject_2stim_asymm_v5,2020.2.10,MacIntel,60,61025ae37ef11b136ea224fe,,,,,,,,,811,-80.73828125,-32.58203125,1,0,1,response5disk,,2,-2.734375,-1.78515625,1,0,1,rectangle,-2.734375,-1.78515625,1,0,1,-2.734375,-1.78515625,1,0,1,1,56,216,33,1,,,,,,,,
,,,,,,,,,,,,,FF,,,,,,,,1.7705,,,,,,,,,,,,,,,,,,,,,,610040fd17c5a03d279f90f3,610377da6925e7b72ab71a4f,2021-07-29_23h56.27.795,Simcolourproject_2stim_asymm_v5,2020.2.10,MacIntel,60,61025ae37ef11b136ea224fe,,,,,,,,,3332,-34.765625,-68.6875,1,0,1,response5disk,,3,0.921875,-13.18359375,1,0,1,rectangle,0.921875,-13.18359375,1,0,1,0.921875,-13.18359375,1,0,1,1,57,217,115,1,,,,,,,,
,,,,,,,,,,,,,FF,,,,,,,,0.7515,,,,,,,,,,,,,,,,,,,,,,610040fd17c5a03d279f90f3,610377da6925e7b72ab71a4f,2021-07-29_23h56.27.795,Simcolourproject_2stim_asymm_v5,2020.2.10,MacIntel,60,61025ae37ef11b136ea224fe,,,,,,,,,487,57.45703125,76.12109375,1,0,1,response1disk,,7,7.8984375,5.12109375,1,0,1,rectangle,7.8984375,5.12109375,1,0,1,7.8984375,5.12109375,1,0,1,1,58,218,145,1,,,,,,,,
,,,,,,,,,,,,,FF,,,,,,,,1.3716,,,,,,,,,,,,,,,,,,,,,,610040fd17c5a03d279f90f3,610377da6925e7b72ab71a4f,2021-07-29_23h56.27.795,Simcolourproject_2stim_asymm_v5,2020.2.10,MacIntel,60,61025ae37ef11b136ea224fe,,,,,,,,,4155,100.2890625,31.41015625,1,0,1,response1disk,,6,11.78125,-5.8203125,1,0,1,rectangle,11.78125,-5.8203125,1,0,1,11.78125,-5.8203125,1,0,1,1,59,219,104,1,,,,,,,,
,,,,,,,,,,,,,FF,,,,,,,,2.0391,,,,,,,,,,,,,,,,,,,,,,610040fd17c5a03d279f90f3,610377da6925e7b72ab71a4f,2021-07-29_23h56.27.795,Simcolourproject_2stim_asymm_v5,2020.2.10,MacIntel,60,61025ae37ef11b136ea224fe,,,,,,,,,1140,-34.4375,-78.7109375,1,0,1,response5disk,,3,6.2421875,5.9296875,1,0,1,rectangle,6.2421875,5.9296875,1,0,1,6.2421875,5.9296875,1,0,1,1,60,220,116,1,,,,,,,,
,,,,,,,,,,,,,FF,,,,,,,,1.3049,,,,,,,,,,,,,,,,,,,,,,610040fd17c5a03d279f90f3,610377da6925e7b72ab71a4f,2021-07-29_23h56.27.795,Simcolourproject_2stim_asymm_v5,2020.2.10,MacIntel,60,61025ae37ef11b136ea224fe,,,,,,,,,3653,41.1875,122.0351563,1,0,1,response1disk,,7,0.49609375,-2.04296875,1,0,1,rectangle,0.49609375,-2.04296875,1,0,1,0.49609375,-2.04296875,1,0,1,1,61,221,89,1,,,,,,,,
,,,,,,,,,,,,,FF,,,,,,,,1.203,,,,,,,,,,,,,,,,,,,,,,610040fd17c5a03d279f90f3,610377da6925e7b72ab71a4f,2021-07-29_23h56.27.795,Simcolourproject_2stim_asymm_v5,2020.2.10,MacIntel,60,61025ae37ef11b136ea224fe,,,,,,,,,625,95.63671875,44.828125,1,0,1,response1disk,,6,4.328125,-3.51953125,1,0,1,rectangle,4.328125,-3.51953125,1,0,1,4.328125,-3.51953125,1,0,1,1,62,222,117,1,,,,,,,,
,,,,,,,,,,,,,FF,,,,,,,,0.8677,,,,,,,,,,,,,,,,,,,,,,610040fd17c5a03d279f90f3,610377da6925e7b72ab71a4f,2021-07-29_23h56.27.795,Simcolourproject_2stim_asymm_v5,2020.2.10,MacIntel,60,61025ae37ef11b136ea224fe,,,,,,,,,2887,-71.73046875,-38.39453125,1,0,1,response5disk,,2,-6.13671875,4.15625,1,0,1,rectangle,-6.13671875,4.15625,1,0,1,-6.13671875,4.15625,1,0,1,1,63,223,63,1,,,,,,,,
,,,,,,,,,,,,,FF,,,,,,,,2.0551,,,,,,,,,,,,,,,,,,,,,,610040fd17c5a03d279f90f3,610377da6925e7b72ab71a4f,2021-07-29_23h56.27.795,Simcolourproject_2stim_asymm_v5,2020.2.10,MacIntel,60,61025ae37ef11b136ea224fe,,,,,,,,,2861,85.9921875,-38.09375,1,0,1,response3disk,,5,15.93359375,17.34375,1,0,1,rectangle,15.93359375,17.34375,1,0,1,15.93359375,17.34375,1,0,1,1,64,224,13,1,,,,,,,,
,,,,,,,,,,,,,FF,,,,,,,,1.7565,,,,,,,,,,,,,,,,,,,,,,610040fd17c5a03d279f90f3,610377da6925e7b72ab71a4f,2021-07-29_23h56.27.795,Simcolourproject_2stim_asymm_v5,2020.2.10,MacIntel,60,61025ae37ef11b136ea224fe,,,,,,,,,1968,-31.66796875,-90.1171875,1,0,1,response5disk,,3,1.84765625,-5.140625,1,0,1,rectangle,-32.40234375,69.06640625,1,0,1,-4.15234375,12.9765625,1,0,1,1,65,225,153,1,,response7disk_3,TRUE,0,0,"[134,43,146,15,285,188,310,66,129,235,168,231,100,230,317,86,260,51,226,77]",1.4384,rectangle
,,,,,,,,,,,,,FF,,,,,,,,0.918,,,,,,,,,,,,,,,,,,,,,,610040fd17c5a03d279f90f3,610377da6925e7b72ab71a4f,2021-07-29_23h56.27.795,Simcolourproject_2stim_asymm_v5,2020.2.10,MacIntel,60,61025ae37ef11b136ea224fe,,,,,,,,,98,-80.83203125,-50.0859375,1,0,1,response5disk,,2,5.046875,-7.33984375,1,0,1,rectangle,5.046875,-7.33984375,1,0,1,5.046875,-7.33984375,1,0,1,1,66,226,127,1,,,,,,,,
,,,,,,,,,,,,,FF,,,,,,,,4.7956,,,,,,,,,,,,,,,,,,,,,,610040fd17c5a03d279f90f3,610377da6925e7b72ab71a4f,2021-07-29_23h56.27.795,Simcolourproject_2stim_asymm_v5,2020.2.10,MacIntel,60,61025ae37ef11b136ea224fe,,,,,,,,,2779,-50.2265625,-32.51171875,1,0,1,response5disk,,2,9.6875,12.12890625,1,0,1,rectangle,9.6875,12.12890625,1,0,1,9.6875,12.12890625,1,0,1,1,67,227,77,1,,,,,,,,
,,,,,,,,,,,,,FF,,,,,,,,1.32,,,,,,,,,,,,,,,,,,,,,,610040fd17c5a03d279f90f3,610377da6925e7b72ab71a4f,2021-07-29_23h56.27.795,Simcolourproject_2stim_asymm_v5,2020.2.10,MacIntel,60,61025ae37ef11b136ea224fe,,,,,,,,,3212,-55.125,-81.0703125,1,0,1,response5disk,,3,-16.734375,-6.62890625,1,0,1,rectangle,-16.734375,-6.62890625,1,0,1,-16.734375,-6.62890625,1,0,1,1,68,228,72,1,,,,,,,,
,,,,,,,,,,,,,FF,,,,,,,,0.8175,,,,,,,,,,,,,,,,,,,,,,610040fd17c5a03d279f90f3,610377da6925e7b72ab71a4f,2021-07-29_23h56.27.795,Simcolourproject_2stim_asymm_v5,2020.2.10,MacIntel,60,61025ae37ef11b136ea224fe,,,,,,,,,2633,38.7578125,80.24609375,1,0,1,response1disk,,7,-2.0546875,-1.74609375,1,0,1,rectangle,34.23046875,-67.26171875,1,0,1,9.75390625,-9.0625,1,0,1,1,69,229,118,1,,response3disk_3,TRUE,4,4,"[134,43,146,15,285,188,310,66,129,235,168,231,100,230,317,86,260,51,226,77]",1.2528,rectangle
,,,,,,,,,,,,,FF,,,,,,,,0.7018,,,,,,,,,,,,,,,,,,,,,,610040fd17c5a03d279f90f3,610377da6925e7b72ab71a4f,2021-07-29_23h56.27.795,Simcolourproject_2stim_asymm_v5,2020.2.10,MacIntel,60,61025ae37ef11b136ea224fe,,,,,,,,,3236,-66.33203125,-45.796875,1,0,1,response5disk,,2,-5.546875,-8.58984375,1,0,1,rectangle,-71.91796875,-48.30078125,1,0,1,-9.35546875,-6.77734375,1,0,1,1,70,230,103,1,,response5disk_3,TRUE,2,2,"[134,43,146,15,285,188,310,66,129,235,168,231,100,230,317,86,260,51,226,77]",2.0218,rectangle
,,,,,,,,,,,,,FF,,,,,,,,1.02,,,,,,,,,,,,,,,,,,,,,,610040fd17c5a03d279f90f3,610377da6925e7b72ab71a4f,2021-07-29_23h56.27.795,Simcolourproject_2stim_asymm_v5,2020.2.10,MacIntel,60,61025ae37ef11b136ea224fe,,,,,,,,,1840,-49.73828125,-66.703125,1,0,1,response5disk,,3,-15.34765625,-9.9609375,1,0,1,rectangle,-15.34765625,-9.9609375,1,0,1,-15.34765625,-9.9609375,1,0,1,1,71,231,40,1,,,,,,,,
,,,,,,,,,,,,,FF,,,,,,,,0.9863,,,,,,,,,,,,,,,,,,,,,,610040fd17c5a03d279f90f3,610377da6925e7b72ab71a4f,2021-07-29_23h56.27.795,Simcolourproject_2stim_asymm_v5,2020.2.10,MacIntel,60,61025ae37ef11b136ea224fe,,,,,,,,,563,-40.47265625,-84,1,0,1,response5disk,,3,8.2421875,-15.13671875,1,0,1,rectangle,8.2421875,-15.13671875,1,0,1,8.2421875,-15.13671875,1,0,1,1,72,232,83,1,,,,,,,,
,,,,,,,,,,,,,FF,,,,,,,,1.6113,,,,,,,,,,,,,,,,,,,,,,610040fd17c5a03d279f90f3,610377da6925e7b72ab71a4f,2021-07-29_23h56.27.795,Simcolourproject_2stim_asymm_v5,2020.2.10,MacIntel,60,61025ae37ef11b136ea224fe,,,,,,,,,3469,-43.8046875,79.7578125,1,0,1,response7disk,,0,18.7265625,-8.26953125,1,0,1,rectangle,18.7265625,-8.26953125,1,0,1,18.7265625,-8.26953125,1,0,1,1,73,233,114,1,,,,,,,,
,,,,,,,,,,,,,FF,,,,,,,,0.8021,,,,,,,,,,,,,,,,,,,,,,610040fd17c5a03d279f90f3,610377da6925e7b72ab71a4f,2021-07-29_23h56.27.795,Simcolourproject_2stim_asymm_v5,2020.2.10,MacIntel,60,61025ae37ef11b136ea224fe,,,,,,,,,1492,45.27734375,70.30078125,1,0,1,response1disk,,7,8.75390625,-0.09765625,1,0,1,rectangle,103.65625,-38.83984375,1,0,1,19.453125,-11.6484375,1,0,1,1,74,234,69,1,,response3disk_3,TRUE,5,5,"[134,43,146,15,285,188,310,66,129,235,168,231,100,230,317,86,260,51,226,77]",1.2858,rectangle
,,,,,,,,,,,,,FF,,,,,,,,0.6682,,,,,,,,,,,,,,,,,,,,,,610040fd17c5a03d279f90f3,610377da6925e7b72ab71a4f,2021-07-29_23h56.27.795,Simcolourproject_2stim_asymm_v5,2020.2.10,MacIntel,60,61025ae37ef11b136ea224fe,,,,,,,,,1721,50.1484375,106.5,1,0,1,response1disk,,7,-8.9375,-2.38671875,1,0,1,rectangle,-8.9375,-2.38671875,1,0,1,-8.9375,-2.38671875,1,0,1,1,75,235,131,1,,,,,,,,
,,,,,,,,,,,,,FF,,,,,,,,0.6192,,,,,,,,,,,,,,,,,,,,,,610040fd17c5a03d279f90f3,610377da6925e7b72ab71a4f,2021-07-29_23h56.27.795,Simcolourproject_2stim_asymm_v5,2020.2.10,MacIntel,60,61025ae37ef11b136ea224fe,,,,,,,,,3270,33.93359375,76.546875,1,0,1,response1disk,,7,-8.72265625,-13.703125,1,0,1,rectangle,-8.72265625,-13.703125,1,0,1,-8.72265625,-13.703125,1,0,1,1,76,236,149,1,,,,,,,,
,,,,,,,,,,,,,FF,,,,,,,,0.9344,,,,,,,,,,,,,,,,,,,,,,610040fd17c5a03d279f90f3,610377da6925e7b72ab71a4f,2021-07-29_23h56.27.795,Simcolourproject_2stim_asymm_v5,2020.2.10,MacIntel,60,61025ae37ef11b136ea224fe,,,,,,,,,4216,33.3671875,83.25,1,0,1,response1disk,,7,21.64453125,-1.01953125,1,0,1,rectangle,21.64453125,-1.01953125,1,0,1,21.64453125,-1.01953125,1,0,1,1,77,237,107,1,,,,,,,,
,,,,,,,,,,,,,FF,,,,,,,,0.9011,,,,,,,,,,,,,,,,,,,,,,610040fd17c5a03d279f90f3,610377da6925e7b72ab71a4f,2021-07-29_23h56.27.795,Simcolourproject_2stim_asymm_v5,2020.2.10,MacIntel,60,61025ae37ef11b136ea224fe,,,,,,,,,1150,-71.921875,-43.9609375,1,0,1,response5disk,,2,-8.13671875,-12.6953125,1,0,1,rectangle,-8.13671875,-12.6953125,1,0,1,-8.13671875,-12.6953125,1,0,1,1,78,238,93,1,,,,,,,,
,,,,,,,,,,,,,FF,,,,,,,,0.8343,,,,,,,,,,,,,,,,,,,,,,610040fd17c5a03d279f90f3,610377da6925e7b72ab71a4f,2021-07-29_23h56.27.795,Simcolourproject_2stim_asymm_v5,2020.2.10,MacIntel,60,61025ae37ef11b136ea224fe,,,,,,,,,2858,73.1640625,25.0546875,1,0,1,response1disk,,6,6.21875,2.0390625,1,0,1,rectangle,6.21875,2.0390625,1,0,1,6.21875,2.0390625,1,0,1,1,79,239,3,1,,,,,,,,
,,,,,,,,,,,,,FF,,,,,,,,1.5707,,,,,,,,,,,,,,,,,,,,,,610040fd17c5a03d279f90f3,610377da6925e7b72ab71a4f,2021-07-29_23h56.27.795,Simcolourproject_2stim_asymm_v5,2020.2.10,MacIntel,60,61025ae37ef11b136ea224fe,,,,,,,,,2456,59.9296875,83.05078125,1,0,1,response1disk,,7,9.1796875,16.76171875,1,0,1,rectangle,9.1796875,16.76171875,1,0,1,9.1796875,16.76171875,1,0,1,1,80,240,79,1,,,,,,,,
,,,,,,,,,,,,,FF,,,,,,,,1.0521,,,,,,,,,,,,,,,,,,,,,,610040fd17c5a03d279f90f3,610377da6925e7b72ab71a4f,2021-07-29_23h56.27.795,Simcolourproject_2stim_asymm_v5,2020.2.10,MacIntel,60,61025ae37ef11b136ea224fe,,,,,,,,,1552,60.9453125,76.69140625,1,0,1,response1disk,,7,6.7109375,13.0625,1,0,1,rectangle,6.7109375,13.0625,1,0,1,6.7109375,13.0625,1,0,1,1,81,241,137,1,,,,,,,,
,,,,,,,,,,,,,FF,,,,,,,,1.7047,,,,,,,,,,,,,,,,,,,,,,610040fd17c5a03d279f90f3,610377da6925e7b72ab71a4f,2021-07-29_23h56.27.795,Simcolourproject_2stim_asymm_v5,2020.2.10,MacIntel,60,61025ae37ef11b136ea224fe,,,,,,,,,1523,-83.48046875,-43.09375,1,0,1,response5disk,,2,-7.125,12.875,1,0,1,rectangle,-7.125,12.875,1,0,1,-7.125,12.875,1,0,1,1,82,242,20,1,,,,,,,,
,,,,,,,,,,,,,FF,,,,,,,,1.4877,,,,,,,,,,,,,,,,,,,,,,610040fd17c5a03d279f90f3,610377da6925e7b72ab71a4f,2021-07-29_23h56.27.795,Simcolourproject_2stim_asymm_v5,2020.2.10,MacIntel,60,61025ae37ef11b136ea224fe,,,,,,,,,3978,-81.31640625,-39.859375,1,0,1,response5disk,,2,17.953125,1.26953125,1,0,1,rectangle,17.953125,1.26953125,1,0,1,17.953125,1.26953125,1,0,1,1,83,243,38,1,,,,,,,,
,,,,,,,,,,,,,FF,,,,,,,,0.8855,,,,,,,,,,,,,,,,,,,,,,610040fd17c5a03d279f90f3,610377da6925e7b72ab71a4f,2021-07-29_23h56.27.795,Simcolourproject_2stim_asymm_v5,2020.2.10,MacIntel,60,61025ae37ef11b136ea224fe,,,,,,,,,1949,-54.12109375,-86.3984375,1,0,1,response5disk,,3,-1.03125,-14.42578125,1,0,1,rectangle,-1.03125,-14.42578125,1,0,1,-1.03125,-14.42578125,1,0,1,1,84,244,64,1,,,,,,,,
,,,,,,,,,,,,,FF,,,,,,,,1.37,,,,,,,,,,,,,,,,,,,,,,610040fd17c5a03d279f90f3,610377da6925e7b72ab71a4f,2021-07-29_23h56.27.795,Simcolourproject_2stim_asymm_v5,2020.2.10,MacIntel,60,61025ae37ef11b136ea224fe,,,,,,,,,3310,37.078125,-67.14453125,1,0,1,response3disk,,4,10.1484375,3.21875,1,0,1,rectangle,10.1484375,3.21875,1,0,1,10.1484375,3.21875,1,0,1,1,85,245,99,1,,,,,,,,
,,,,,,,,,,,,,FF,,,,,,,,1.236,,,,,,,,,,,,,,,,,,,,,,610040fd17c5a03d279f90f3,610377da6925e7b72ab71a4f,2021-07-29_23h56.27.795,Simcolourproject_2stim_asymm_v5,2020.2.10,MacIntel,60,61025ae37ef11b136ea224fe,,,,,,,,,3122,54.4140625,85.125,1,0,1,response1disk,,7,2.47265625,-7.0625,1,0,1,rectangle,2.47265625,-7.0625,1,0,1,2.47265625,-7.0625,1,0,1,1,86,246,84,1,,,,,,,,
,,,,,,,,,,,,,FF,,,,,,,,1.6708,,,,,,,,,,,,,,,,,,,,,,610040fd17c5a03d279f90f3,610377da6925e7b72ab71a4f,2021-07-29_23h56.27.795,Simcolourproject_2stim_asymm_v5,2020.2.10,MacIntel,60,61025ae37ef11b136ea224fe,,,,,,,,,1155,47.53125,91.17578125,1,0,1,response1disk,,7,-12.10546875,0.10546875,1,0,1,rectangle,-12.10546875,0.10546875,1,0,1,-12.10546875,0.10546875,1,0,1,1,87,247,76,1,,,,,,,,
