key_resp.keys,key_resp.rt,key_resp_14.keys,key_resp_14.rt,key_resp_15.keys,key_resp_15.rt,key_resp_17.keys,key_resp_17.rt,key_resp_9.keys,key_resp_9.rt,key_resp_10.keys,key_resp_10.rt,practice_comparison,Ecc,mouse_5.x,mouse_5.y,mouse_5.leftButton,mouse_5.midButton,mouse_5.rightButton,mouse_5.clicked_name,pracsimilarity,response_time,mouse_10.x,mouse_10.y,mouse_10.leftButton,mouse_10.midButton,mouse_10.rightButton,mouse_10.clicked_name,mouse_7.x,mouse_7.y,mouse_7.leftButton,mouse_7.midButton,mouse_7.rightButton,mouse_6.x,mouse_6.y,mouse_6.leftButton,mouse_6.midButton,mouse_6.rightButton,duringprac.thisRepN,duringprac.thisTrialN,duringprac.thisN,duringprac.thisIndex,duringprac.ran,participant,session,date,expName,psychopyVersion,OS,frameRate,study_id,mouse_7.clicked_name,catchpracsimilarity,catch_response_time,catchnumberprac,catchtrialorderprac,mouse_6.clicked_name,key_resp_22.keys,key_resp_22.rt,realcomparison,mouse.x,mouse.y,mouse.leftButton,mouse.midButton,mouse.rightButton,mouse.clicked_name,Colour2,similarity,mouse_2.x,mouse_2.y,mouse_2.leftButton,mouse_2.midButton,mouse_2.rightButton,mouse_2.clicked_name,mouse_3.x,mouse_3.y,mouse_3.leftButton,mouse_3.midButton,mouse_3.rightButton,mouse_11.x,mouse_11.y,mouse_11.leftButton,mouse_11.midButton,mouse_11.rightButton,trials_2.thisRepN,trials_2.thisTrialN,trials_2.thisN,trials_2.thisIndex,trials_2.ran,Colour1,mouse_3.clicked_name,catchornah,catchsimilarity,catchnumber,catchtrialorder,catchRT,mouse_11.clicked_name
space,0.9917,space,1.0629,space,8.4375,space,2.1535,space,0.5844,space,2.6918,112,FF,52.8359375,75.76953125,1,0,0,response1disk_5,7,6.1207,1.49609375,-2.83203125,1,0,0,rectangle_8,1.49609375,-2.83203125,1,0,0,1.49609375,-2.83203125,1,0,0,0,0,0,0,1,6100f8806915845f7cfc1707,61036a8442df8404d1ef0514,2021-07-29_19h57.33.385,Simcolourproject_2stim_asymm_v5,2020.2.10,MacIntel,60,61025ae37ef11b136ea224fe,,,,,,,,,,,,,,,,,,,,,,,,,,,,,,,,,,,,,,,,,,,,,,
,,,,,,,,,,,,159,PF,32.68359375,62.90625,1,0,0,response1disk_5,7,1.3342,4.54296875,4.42578125,1,0,0,rectangle_8,36.26953125,78.01171875,1,0,0,1.5859375,-0.13671875,1,0,0,0,1,1,2,1,6100f8806915845f7cfc1707,61036a8442df8404d1ef0514,2021-07-29_19h57.33.385,Simcolourproject_2stim_asymm_v5,2020.2.10,MacIntel,60,61025ae37ef11b136ea224fe,response1disk_7,7,2.4334,7,"[2,5]",rectangle_4,,,,,,,,,,,,,,,,,,,,,,,,,,,,,,,,,,,,,,,,
,,,,,,,,,,,,40,PF,19.421875,58.25390625,1,0,0,response1disk_5,7,1.6323,6.6484375,-13.56640625,1,0,0,rectangle_8,6.6484375,-13.56640625,1,0,0,6.6484375,-13.56640625,1,0,0,0,2,2,4,1,6100f8806915845f7cfc1707,61036a8442df8404d1ef0514,2021-07-29_19h57.33.385,Simcolourproject_2stim_asymm_v5,2020.2.10,MacIntel,60,61025ae37ef11b136ea224fe,,,,,,,,,,,,,,,,,,,,,,,,,,,,,,,,,,,,,,,,,,,,,,
,,,,,,,,,,,,158,FF,40.1875,-71.3515625,1,0,0,response3disk_5,4,2.7509,-7.26171875,7.91796875,1,0,0,rectangle_8,-7.26171875,7.91796875,1,0,0,-7.26171875,7.91796875,1,0,0,0,3,3,3,1,6100f8806915845f7cfc1707,61036a8442df8404d1ef0514,2021-07-29_19h57.33.385,Simcolourproject_2stim_asymm_v5,2020.2.10,MacIntel,60,61025ae37ef11b136ea224fe,,,,,,,,,,,,,,,,,,,,,,,,,,,,,,,,,,,,,,,,,,,,,,
,,,,,,,,,,,,8,PF,77.29296875,-36.89453125,1,0,0,response3disk_5,5,1.968,13.09765625,-1.55078125,1,0,0,rectangle_8,33.75390625,74.12109375,1,0,0,-2.05859375,-3.375,1,0,0,0,4,4,1,1,6100f8806915845f7cfc1707,61036a8442df8404d1ef0514,2021-07-29_19h57.33.385,Simcolourproject_2stim_asymm_v5,2020.2.10,MacIntel,60,61025ae37ef11b136ea224fe,response1disk_7,7,1.6498,7,"[2,5]",rectangle_4,,,,,,,,,,,,,,,,,,,,,,,,,,,,,,,,,,,,,,,,
,,,,,,,,,,,,119,FF,94.66796875,33.3515625,1,0,0,response1disk_5,6,1.8153,0.34765625,2.09375,1,0,0,rectangle_8,0.34765625,2.09375,1,0,0,0.34765625,2.09375,1,0,0,0,5,5,5,1,6100f8806915845f7cfc1707,61036a8442df8404d1ef0514,2021-07-29_19h57.33.385,Simcolourproject_2stim_asymm_v5,2020.2.10,MacIntel,60,61025ae37ef11b136ea224fe,,,,,,,,,,,,,,,,,,,,,,,,,,,,,,,,,,,,,,,,,,,,,,
,,,,,,,,,,,,93,PF,32.4140625,56.33984375,1,0,0,response1disk_5,7,2.0333,9.28125,2.66015625,1,0,0,rectangle_8,9.28125,2.66015625,1,0,0,9.28125,2.66015625,1,0,0,0,6,6,6,1,6100f8806915845f7cfc1707,61036a8442df8404d1ef0514,2021-07-29_19h57.33.385,Simcolourproject_2stim_asymm_v5,2020.2.10,MacIntel,60,61025ae37ef11b136ea224fe,,,,,,,,,,,,,,,,,,,,,,,,,,,,,,,,,,,,,,,,,,,,,,
,,,,,,,,,,,,,FF,,,,,,,,3.3165,,,,,,,,,,,,,,,,,,,,,,6100f8806915845f7cfc1707,61036a8442df8404d1ef0514,2021-07-29_19h57.33.385,Simcolourproject_2stim_asymm_v5,2020.2.10,MacIntel,60,61025ae37ef11b136ea224fe,,,,,,,space,2.0658,558,82.78125,-49.7734375,1,0,0,response3disk,,5,22.796875,17.15234375,1,0,0,rectangle,22.796875,17.15234375,1,0,0,22.796875,17.15234375,1,0,0,0,0,0,48,1,,,,,,,,
,,,,,,,,,,,,,FF,,,,,,,,1.8981,,,,,,,,,,,,,,,,,,,,,,6100f8806915845f7cfc1707,61036a8442df8404d1ef0514,2021-07-29_19h57.33.385,Simcolourproject_2stim_asymm_v5,2020.2.10,MacIntel,60,61025ae37ef11b136ea224fe,,,,,,,,,4233,60.34375,-76.390625,1,0,0,response3disk,,4,24.15234375,-7.28515625,1,0,0,rectangle,24.15234375,-7.28515625,1,0,0,24.15234375,-7.28515625,1,0,0,0,1,1,101,1,,,,,,,,
,,,,,,,,,,,,,FF,,,,,,,,1.9832,,,,,,,,,,,,,,,,,,,,,,6100f8806915845f7cfc1707,61036a8442df8404d1ef0514,2021-07-29_19h57.33.385,Simcolourproject_2stim_asymm_v5,2020.2.10,MacIntel,60,61025ae37ef11b136ea224fe,,,,,,,,,401,78.94921875,26.3203125,1,0,0,response1disk,,6,27.00390625,10.40625,1,0,0,rectangle,27.00390625,10.40625,1,0,0,27.00390625,10.40625,1,0,0,0,2,2,106,1,,,,,,,,
,,,,,,,,,,,,,FF,,,,,,,,1.549,,,,,,,,,,,,,,,,,,,,,,6100f8806915845f7cfc1707,61036a8442df8404d1ef0514,2021-07-29_19h57.33.385,Simcolourproject_2stim_asymm_v5,2020.2.10,MacIntel,60,61025ae37ef11b136ea224fe,,,,,,,,,1776,57.08984375,-22.3125,1,0,0,response3disk,,5,12.484375,-8.8671875,1,0,0,rectangle,12.484375,-8.8671875,1,0,0,12.484375,-8.8671875,1,0,0,0,3,3,91,1,,,,,,,,
,,,,,,,,,,,,,FF,,,,,,,,1.1333,,,,,,,,,,,,,,,,,,,,,,6100f8806915845f7cfc1707,61036a8442df8404d1ef0514,2021-07-29_19h57.33.385,Simcolourproject_2stim_asymm_v5,2020.2.10,MacIntel,60,61025ae37ef11b136ea224fe,,,,,,,,,3057,-73.01171875,-38.6171875,1,0,0,response5disk,,2,-2.2890625,-3.7890625,1,0,0,rectangle,-2.2890625,-3.7890625,1,0,0,-2.2890625,-3.7890625,1,0,0,0,4,4,44,1,,,,,,,,
,,,,,,,,,,,,,FF,,,,,,,,1.0481,,,,,,,,,,,,,,,,,,,,,,6100f8806915845f7cfc1707,61036a8442df8404d1ef0514,2021-07-29_19h57.33.385,Simcolourproject_2stim_asymm_v5,2020.2.10,MacIntel,60,61025ae37ef11b136ea224fe,,,,,,,,,4187,-29.2265625,-40.9921875,1,0,0,response5disk,,3,-9.1171875,-9.6484375,1,0,0,rectangle,-9.1171875,-9.6484375,1,0,0,-9.1171875,-9.6484375,1,0,0,0,5,5,145,1,,,,,,,,
,,,,,,,,,,,,,FF,,,,,,,,1.6828,,,,,,,,,,,,,,,,,,,,,,6100f8806915845f7cfc1707,61036a8442df8404d1ef0514,2021-07-29_19h57.33.385,Simcolourproject_2stim_asymm_v5,2020.2.10,MacIntel,60,61025ae37ef11b136ea224fe,,,,,,,,,522,-40.46875,-56.5859375,1,0,0,response5disk,,3,-11.83984375,1.56640625,1,0,0,rectangle,-11.83984375,1.56640625,1,0,0,-11.83984375,1.56640625,1,0,0,0,6,6,3,1,,,,,,,,
,,,,,,,,,,,,,FF,,,,,,,,0.9994,,,,,,,,,,,,,,,,,,,,,,6100f8806915845f7cfc1707,61036a8442df8404d1ef0514,2021-07-29_19h57.33.385,Simcolourproject_2stim_asymm_v5,2020.2.10,MacIntel,60,61025ae37ef11b136ea224fe,,,,,,,,,1058,-22.89453125,-47.8125,1,0,0,response5disk,,3,1.796875,-15.23828125,1,0,0,rectangle,1.796875,-15.23828125,1,0,0,1.796875,-15.23828125,1,0,0,0,7,7,94,1,,,,,,,,
,,,,,,,,,,,,,FF,,,,,,,,1.1823,,,,,,,,,,,,,,,,,,,,,,6100f8806915845f7cfc1707,61036a8442df8404d1ef0514,2021-07-29_19h57.33.385,Simcolourproject_2stim_asymm_v5,2020.2.10,MacIntel,60,61025ae37ef11b136ea224fe,,,,,,,,,1694,27.93359375,-40.78125,1,0,0,response3disk,,4,24.703125,-10.4453125,1,0,0,rectangle,24.703125,-10.4453125,1,0,0,24.703125,-10.4453125,1,0,0,0,8,8,100,1,,,,,,,,
,,,,,,,,,,,,,FF,,,,,,,,2.2354,,,,,,,,,,,,,,,,,,,,,,6100f8806915845f7cfc1707,61036a8442df8404d1ef0514,2021-07-29_19h57.33.385,Simcolourproject_2stim_asymm_v5,2020.2.10,MacIntel,60,61025ae37ef11b136ea224fe,,,,,,,,,3495,77.4765625,50.77734375,1,0,0,response1disk,,6,-11.671875,13.56640625,1,0,0,rectangle,-11.671875,13.56640625,1,0,0,-11.671875,13.56640625,1,0,0,0,9,9,67,1,,,,,,,,
,,,,,,,,,,,,,FF,,,,,,,,1.4001,,,,,,,,,,,,,,,,,,,,,,6100f8806915845f7cfc1707,61036a8442df8404d1ef0514,2021-07-29_19h57.33.385,Simcolourproject_2stim_asymm_v5,2020.2.10,MacIntel,60,61025ae37ef11b136ea224fe,,,,,,,,,119,31.03515625,71.09375,1,0,0,response1disk,,7,-1.72265625,4.64453125,1,0,0,rectangle,-1.72265625,4.64453125,1,0,0,-1.72265625,4.64453125,1,0,0,0,10,10,8,1,,,,,,,,
,,,,,,,,,,,,,FF,,,,,,,,2.9158,,,,,,,,,,,,,,,,,,,,,,6100f8806915845f7cfc1707,61036a8442df8404d1ef0514,2021-07-29_19h57.33.385,Simcolourproject_2stim_asymm_v5,2020.2.10,MacIntel,60,61025ae37ef11b136ea224fe,,,,,,,,,3608,83.28515625,26.12109375,1,0,0,response1disk,,6,22.30859375,-6.25,1,0,0,rectangle,22.30859375,-6.25,1,0,0,22.30859375,-6.25,1,0,0,0,11,11,156,1,,,,,,,,
,,,,,,,,,,,,,FF,,,,,,,,1.5344,,,,,,,,,,,,,,,,,,,,,,6100f8806915845f7cfc1707,61036a8442df8404d1ef0514,2021-07-29_19h57.33.385,Simcolourproject_2stim_asymm_v5,2020.2.10,MacIntel,60,61025ae37ef11b136ea224fe,,,,,,,,,3454,79.546875,45.61328125,1,0,0,response1disk,,6,17.9296875,3.75390625,1,0,0,rectangle,17.9296875,3.75390625,1,0,0,17.9296875,3.75390625,1,0,0,0,12,12,63,1,,,,,,,,
,,,,,,,,,,,,,FF,,,,,,,,0.5998,,,,,,,,,,,,,,,,,,,,,,6100f8806915845f7cfc1707,61036a8442df8404d1ef0514,2021-07-29_19h57.33.385,Simcolourproject_2stim_asymm_v5,2020.2.10,MacIntel,60,61025ae37ef11b136ea224fe,,,,,,,,,1088,82.92578125,57.60546875,1,0,0,response1disk,,6,23.0390625,-2.6875,1,0,0,rectangle,23.0390625,-2.6875,1,0,0,23.0390625,-2.6875,1,0,0,0,13,13,66,1,,,,,,,,
,,,,,,,,,,,,,FF,,,,,,,,1.3677,,,,,,,,,,,,,,,,,,,,,,6100f8806915845f7cfc1707,61036a8442df8404d1ef0514,2021-07-29_19h57.33.385,Simcolourproject_2stim_asymm_v5,2020.2.10,MacIntel,60,61025ae37ef11b136ea224fe,,,,,,,,,1126,-36.2265625,-75.78125,1,0,0,response5disk,,3,2.11328125,-4.37890625,1,0,0,rectangle,2.11328125,-4.37890625,1,0,0,2.11328125,-4.37890625,1,0,0,0,14,14,78,1,,,,,,,,
,,,,,,,,,,,,,FF,,,,,,,,1.0006,,,,,,,,,,,,,,,,,,,,,,6100f8806915845f7cfc1707,61036a8442df8404d1ef0514,2021-07-29_19h57.33.385,Simcolourproject_2stim_asymm_v5,2020.2.10,MacIntel,60,61025ae37ef11b136ea224fe,,,,,,,,,3025,59.20703125,41.1796875,1,0,0,response1disk,,6,10.54296875,-3.34765625,1,0,0,rectangle,10.54296875,-3.34765625,1,0,0,10.54296875,-3.34765625,1,0,0,0,15,15,19,1,,,,,,,,
,,,,,,,,,,,,,FF,,,,,,,,1.4165,,,,,,,,,,,,,,,,,,,,,,6100f8806915845f7cfc1707,61036a8442df8404d1ef0514,2021-07-29_19h57.33.385,Simcolourproject_2stim_asymm_v5,2020.2.10,MacIntel,60,61025ae37ef11b136ea224fe,,,,,,,,,1202,-70.15234375,41.3828125,1,0,0,response7disk,,1,-28.9296875,15.72265625,1,0,0,rectangle,85.375,50.0859375,1,0,0,24.5390625,2.28515625,1,0,0,0,16,16,148,1,,response1disk_3,TRUE,6,6,"[17,132,136,20,171,301,81,84,86,184,186,107,193,158,225,315,109,132,142,45]",1.6007,rectangle
,,,,,,,,,,,,,FF,,,,,,,,1.3163,,,,,,,,,,,,,,,,,,,,,,6100f8806915845f7cfc1707,61036a8442df8404d1ef0514,2021-07-29_19h57.33.385,Simcolourproject_2stim_asymm_v5,2020.2.10,MacIntel,60,61025ae37ef11b136ea224fe,,,,,,,,,794,63.7265625,35.0859375,1,0,0,response1disk,,6,24.2265625,-3.83984375,1,0,0,rectangle,24.2265625,-3.83984375,1,0,0,24.2265625,-3.83984375,1,0,0,0,17,17,73,1,,,,,,,,
,,,,,,,,,,,,,FF,,,,,,,,1.5493,,,,,,,,,,,,,,,,,,,,,,6100f8806915845f7cfc1707,61036a8442df8404d1ef0514,2021-07-29_19h57.33.385,Simcolourproject_2stim_asymm_v5,2020.2.10,MacIntel,60,61025ae37ef11b136ea224fe,,,,,,,,,2461,72.4453125,29.5234375,1,0,0,response1disk,,6,7.2421875,-4.5078125,1,0,0,rectangle,7.2421875,-4.5078125,1,0,0,7.2421875,-4.5078125,1,0,0,0,18,18,46,1,,,,,,,,
,,,,,,,,,,,,,FF,,,,,,,,1.7171,,,,,,,,,,,,,,,,,,,,,,6100f8806915845f7cfc1707,61036a8442df8404d1ef0514,2021-07-29_19h57.33.385,Simcolourproject_2stim_asymm_v5,2020.2.10,MacIntel,60,61025ae37ef11b136ea224fe,,,,,,,,,2382,32.10546875,-59.83203125,1,0,0,response3disk,,4,15.68359375,7.7265625,1,0,0,rectangle,65.6796875,-21.7734375,1,0,0,-0.3984375,2.62109375,1,0,0,0,19,19,108,1,,response3disk_3,TRUE,5,5,"[17,132,136,20,171,301,81,84,86,184,186,107,193,158,225,315,109,132,142,45]",1.549,rectangle
,,,,,,,,,,,,,FF,,,,,,,,2.1335,,,,,,,,,,,,,,,,,,,,,,6100f8806915845f7cfc1707,61036a8442df8404d1ef0514,2021-07-29_19h57.33.385,Simcolourproject_2stim_asymm_v5,2020.2.10,MacIntel,60,61025ae37ef11b136ea224fe,,,,,,,,,1801,40.203125,-74.93359375,1,0,0,response3disk,,4,12.2734375,12.828125,1,0,0,rectangle,12.2734375,12.828125,1,0,0,12.2734375,12.828125,1,0,0,0,20,20,55,1,,,,,,,,
,,,,,,,,,,,,,FF,,,,,,,,1.0509,,,,,,,,,,,,,,,,,,,,,,6100f8806915845f7cfc1707,61036a8442df8404d1ef0514,2021-07-29_19h57.33.385,Simcolourproject_2stim_asymm_v5,2020.2.10,MacIntel,60,61025ae37ef11b136ea224fe,,,,,,,,,1986,-39.21484375,-61.921875,1,0,0,response5disk,,3,-19.40234375,3.77734375,1,0,0,rectangle,-19.40234375,3.77734375,1,0,0,-19.40234375,3.77734375,1,0,0,0,21,21,64,1,,,,,,,,
,,,,,,,,,,,,,FF,,,,,,,,1.5498,,,,,,,,,,,,,,,,,,,,,,6100f8806915845f7cfc1707,61036a8442df8404d1ef0514,2021-07-29_19h57.33.385,Simcolourproject_2stim_asymm_v5,2020.2.10,MacIntel,60,61025ae37ef11b136ea224fe,,,,,,,,,1410,86.59765625,-32.00390625,1,0,0,response3disk,,5,8.69921875,4.1171875,1,0,0,rectangle,8.69921875,4.1171875,1,0,0,8.69921875,4.1171875,1,0,0,0,22,22,69,1,,,,,,,,
,,,,,,,,,,,,,FF,,,,,,,,0.9667,,,,,,,,,,,,,,,,,,,,,,6100f8806915845f7cfc1707,61036a8442df8404d1ef0514,2021-07-29_19h57.33.385,Simcolourproject_2stim_asymm_v5,2020.2.10,MacIntel,60,61025ae37ef11b136ea224fe,,,,,,,,,3107,-85.80078125,52.6484375,1,0,0,response7disk,,1,-21.65625,9.63671875,1,0,0,rectangle,-21.65625,9.63671875,1,0,0,-21.65625,9.63671875,1,0,0,0,23,23,115,1,,,,,,,,
,,,,,,,,,,,,,FF,,,,,,,,2.1487,,,,,,,,,,,,,,,,,,,,,,6100f8806915845f7cfc1707,61036a8442df8404d1ef0514,2021-07-29_19h57.33.385,Simcolourproject_2stim_asymm_v5,2020.2.10,MacIntel,60,61025ae37ef11b136ea224fe,,,,,,,,,699,-44.47265625,-56.02734375,1,0,0,response5disk,,3,-24.8515625,-4.1171875,1,0,0,rectangle,-24.8515625,-4.1171875,1,0,0,-24.8515625,-4.1171875,1,0,0,0,24,24,119,1,,,,,,,,
,,,,,,,,,,,,,FF,,,,,,,,1.3158,,,,,,,,,,,,,,,,,,,,,,6100f8806915845f7cfc1707,61036a8442df8404d1ef0514,2021-07-29_19h57.33.385,Simcolourproject_2stim_asymm_v5,2020.2.10,MacIntel,60,61025ae37ef11b136ea224fe,,,,,,,,,3627,-37.328125,-52.640625,1,0,0,response5disk,,3,-1.62109375,-17.14453125,1,0,0,rectangle,-1.62109375,-17.14453125,1,0,0,-1.62109375,-17.14453125,1,0,0,0,25,25,111,1,,,,,,,,
,,,,,,,,,,,,,FF,,,,,,,,0.9842,,,,,,,,,,,,,,,,,,,,,,6100f8806915845f7cfc1707,61036a8442df8404d1ef0514,2021-07-29_19h57.33.385,Simcolourproject_2stim_asymm_v5,2020.2.10,MacIntel,60,61025ae37ef11b136ea224fe,,,,,,,,,473,68.34765625,-26.171875,1,0,0,response3disk,,5,23.8828125,6.80078125,1,0,0,rectangle,23.8828125,6.80078125,1,0,0,23.8828125,6.80078125,1,0,0,0,26,26,114,1,,,,,,,,
,,,,,,,,,,,,,FF,,,,,,,,2.6158,,,,,,,,,,,,,,,,,,,,,,6100f8806915845f7cfc1707,61036a8442df8404d1ef0514,2021-07-29_19h57.33.385,Simcolourproject_2stim_asymm_v5,2020.2.10,MacIntel,60,61025ae37ef11b136ea224fe,,,,,,,,,4088,95.39453125,40.36328125,1,0,0,response1disk,,6,13.96875,-1.22265625,1,0,0,rectangle,13.96875,-1.22265625,1,0,0,13.96875,-1.22265625,1,0,0,0,27,27,127,1,,,,,,,,
,,,,,,,,,,,,,FF,,,,,,,,1.9011,,,,,,,,,,,,,,,,,,,,,,6100f8806915845f7cfc1707,61036a8442df8404d1ef0514,2021-07-29_19h57.33.385,Simcolourproject_2stim_asymm_v5,2020.2.10,MacIntel,60,61025ae37ef11b136ea224fe,,,,,,,,,2783,46.91015625,-42.0234375,1,0,0,response3disk,,5,24.0078125,8.3828125,1,0,0,rectangle,24.0078125,8.3828125,1,0,0,24.0078125,8.3828125,1,0,0,0,28,28,82,1,,,,,,,,
,,,,,,,,,,,,,FF,,,,,,,,1.1332,,,,,,,,,,,,,,,,,,,,,,6100f8806915845f7cfc1707,61036a8442df8404d1ef0514,2021-07-29_19h57.33.385,Simcolourproject_2stim_asymm_v5,2020.2.10,MacIntel,60,61025ae37ef11b136ea224fe,,,,,,,,,4040,52.234375,38.0234375,1,0,0,response1disk,,6,8.03125,7,1,0,0,rectangle,8.03125,7,1,0,0,8.03125,7,1,0,0,0,29,29,33,1,,,,,,,,
,,,,,,,,,,,,,FF,,,,,,,,1.2338,,,,,,,,,,,,,,,,,,,,,,6100f8806915845f7cfc1707,61036a8442df8404d1ef0514,2021-07-29_19h57.33.385,Simcolourproject_2stim_asymm_v5,2020.2.10,MacIntel,60,61025ae37ef11b136ea224fe,,,,,,,,,2036,-47.57421875,-72.71875,1,0,0,response5disk,,3,-19.47265625,-8.484375,1,0,0,rectangle,-19.47265625,-8.484375,1,0,0,-19.47265625,-8.484375,1,0,0,0,30,30,136,1,,,,,,,,
,,,,,,,,,,,,,FF,,,,,,,,0.9502,,,,,,,,,,,,,,,,,,,,,,6100f8806915845f7cfc1707,61036a8442df8404d1ef0514,2021-07-29_19h57.33.385,Simcolourproject_2stim_asymm_v5,2020.2.10,MacIntel,60,61025ae37ef11b136ea224fe,,,,,,,,,2464,61.53515625,38.3125,1,0,0,response1disk,,6,9.50390625,4.7265625,1,0,0,rectangle,9.50390625,4.7265625,1,0,0,9.50390625,4.7265625,1,0,0,0,31,31,123,1,,,,,,,,
,,,,,,,,,,,,,FF,,,,,,,,1.0171,,,,,,,,,,,,,,,,,,,,,,6100f8806915845f7cfc1707,61036a8442df8404d1ef0514,2021-07-29_19h57.33.385,Simcolourproject_2stim_asymm_v5,2020.2.10,MacIntel,60,61025ae37ef11b136ea224fe,,,,,,,,,2894,-62.13671875,44.65625,1,0,0,response7disk,,1,-10.36328125,12.08203125,1,0,0,rectangle,-10.36328125,12.08203125,1,0,0,-10.36328125,12.08203125,1,0,0,0,32,32,157,1,,,,,,,,
,,,,,,,,,,,,,FF,,,,,,,,0.6841,,,,,,,,,,,,,,,,,,,,,,6100f8806915845f7cfc1707,61036a8442df8404d1ef0514,2021-07-29_19h57.33.385,Simcolourproject_2stim_asymm_v5,2020.2.10,MacIntel,60,61025ae37ef11b136ea224fe,,,,,,,,,2456,29.484375,66.61328125,1,0,0,response1disk,,7,14.72265625,3.37109375,1,0,0,rectangle,14.72265625,3.37109375,1,0,0,14.72265625,3.37109375,1,0,0,0,33,33,9,1,,,,,,,,
,,,,,,,,,,,,,FF,,,,,,,,1.2506,,,,,,,,,,,,,,,,,,,,,,6100f8806915845f7cfc1707,61036a8442df8404d1ef0514,2021-07-29_19h57.33.385,Simcolourproject_2stim_asymm_v5,2020.2.10,MacIntel,60,61025ae37ef11b136ea224fe,,,,,,,,,2261,38.453125,65.84375,1,0,0,response1disk,,7,27.24609375,0.83984375,1,0,0,rectangle,27.24609375,0.83984375,1,0,0,27.24609375,0.83984375,1,0,0,0,34,34,74,1,,,,,,,,
,,,,,,,,,,,,,FF,,,,,,,,0.7347,,,,,,,,,,,,,,,,,,,,,,6100f8806915845f7cfc1707,61036a8442df8404d1ef0514,2021-07-29_19h57.33.385,Simcolourproject_2stim_asymm_v5,2020.2.10,MacIntel,60,61025ae37ef11b136ea224fe,,,,,,,,,4134,38.16015625,55.78125,1,0,0,response1disk,,7,12.09765625,10.078125,1,0,0,rectangle,12.09765625,10.078125,1,0,0,12.09765625,10.078125,1,0,0,0,35,35,85,1,,,,,,,,
,,,,,,,,,,,,,FF,,,,,,,,0.8339,,,,,,,,,,,,,,,,,,,,,,6100f8806915845f7cfc1707,61036a8442df8404d1ef0514,2021-07-29_19h57.33.385,Simcolourproject_2stim_asymm_v5,2020.2.10,MacIntel,60,61025ae37ef11b136ea224fe,,,,,,,,,4319,34.1875,45.23046875,1,0,0,response1disk,,7,11.58203125,-14.12109375,1,0,0,rectangle,11.58203125,-14.12109375,1,0,0,11.58203125,-14.12109375,1,0,0,0,36,36,155,1,,,,,,,,
,,,,,,,,,,,,,FF,,,,,,,,1.1006,,,,,,,,,,,,,,,,,,,,,,6100f8806915845f7cfc1707,61036a8442df8404d1ef0514,2021-07-29_19h57.33.385,Simcolourproject_2stim_asymm_v5,2020.2.10,MacIntel,60,61025ae37ef11b136ea224fe,,,,,,,,,4021,-53.546875,27.734375,1,0,0,response7disk,,1,-20.33203125,9.5,1,0,0,rectangle,-20.33203125,9.5,1,0,0,-20.33203125,9.5,1,0,0,0,37,37,151,1,,,,,,,,
,,,,,,,,,,,,,FF,,,,,,,,1.7832,,,,,,,,,,,,,,,,,,,,,,6100f8806915845f7cfc1707,61036a8442df8404d1ef0514,2021-07-29_19h57.33.385,Simcolourproject_2stim_asymm_v5,2020.2.10,MacIntel,60,61025ae37ef11b136ea224fe,,,,,,,,,1860,84.03515625,44.79296875,1,0,0,response1disk,,6,6.1484375,2.17578125,1,0,0,rectangle,6.1484375,2.17578125,1,0,0,6.1484375,2.17578125,1,0,0,0,38,38,62,1,,,,,,,,
,,,,,,,,,,,,,FF,,,,,,,,0.9167,,,,,,,,,,,,,,,,,,,,,,6100f8806915845f7cfc1707,61036a8442df8404d1ef0514,2021-07-29_19h57.33.385,Simcolourproject_2stim_asymm_v5,2020.2.10,MacIntel,60,61025ae37ef11b136ea224fe,,,,,,,,,352,-91.01953125,-47.62890625,1,0,0,response5disk,,2,-2.41796875,7.78125,1,0,0,rectangle,-2.41796875,7.78125,1,0,0,-2.41796875,7.78125,1,0,0,0,39,39,103,1,,,,,,,,
,,,,,,,,,,,,,FF,,,,,,,,0.7331,,,,,,,,,,,,,,,,,,,,,,6100f8806915845f7cfc1707,61036a8442df8404d1ef0514,2021-07-29_19h57.33.385,Simcolourproject_2stim_asymm_v5,2020.2.10,MacIntel,60,61025ae37ef11b136ea224fe,,,,,,,,,4152,35.35546875,77.5546875,1,0,0,response1disk,,7,14.41015625,-0.0234375,1,0,0,rectangle,14.41015625,-0.0234375,1,0,0,14.41015625,-0.0234375,1,0,0,0,40,40,35,1,,,,,,,,
,,,,,,,,,,,,,FF,,,,,,,,1.1174,,,,,,,,,,,,,,,,,,,,,,6100f8806915845f7cfc1707,61036a8442df8404d1ef0514,2021-07-29_19h57.33.385,Simcolourproject_2stim_asymm_v5,2020.2.10,MacIntel,60,61025ae37ef11b136ea224fe,,,,,,,,,706,-45.26171875,-77.50390625,1,0,0,response5disk,,3,-12.390625,-2.71875,1,0,0,rectangle,-12.390625,-2.71875,1,0,0,-12.390625,-2.71875,1,0,0,0,41,41,121,1,,,,,,,,
,,,,,,,,,,,,,FF,,,,,,,,0.9168,,,,,,,,,,,,,,,,,,,,,,6100f8806915845f7cfc1707,61036a8442df8404d1ef0514,2021-07-29_19h57.33.385,Simcolourproject_2stim_asymm_v5,2020.2.10,MacIntel,60,61025ae37ef11b136ea224fe,,,,,,,,,3323,64.83203125,42.8125,1,0,0,response1disk,,6,31.8671875,15.08984375,1,0,0,rectangle,31.8671875,15.08984375,1,0,0,31.8671875,15.08984375,1,0,0,0,42,42,126,1,,,,,,,,
,,,,,,,,,,,,,FF,,,,,,,,1.1499,,,,,,,,,,,,,,,,,,,,,,6100f8806915845f7cfc1707,61036a8442df8404d1ef0514,2021-07-29_19h57.33.385,Simcolourproject_2stim_asymm_v5,2020.2.10,MacIntel,60,61025ae37ef11b136ea224fe,,,,,,,,,2822,46.33984375,62.17578125,1,0,0,response1disk,,7,4.8671875,9.19921875,1,0,0,rectangle,4.8671875,9.19921875,1,0,0,4.8671875,9.19921875,1,0,0,0,43,43,50,1,,,,,,,,
,,,,,,,,,,,,,FF,,,,,,,,1.2493,,,,,,,,,,,,,,,,,,,,,,6100f8806915845f7cfc1707,61036a8442df8404d1ef0514,2021-07-29_19h57.33.385,Simcolourproject_2stim_asymm_v5,2020.2.10,MacIntel,60,61025ae37ef11b136ea224fe,,,,,,,,,36,63.05859375,-44.41015625,1,0,0,response3disk,,5,14.11328125,11.79296875,1,0,0,rectangle,29.44140625,-84.45703125,1,0,0,10.48828125,-0.7890625,1,0,0,0,44,44,133,1,,response3disk_3,TRUE,4,4,"[17,132,136,20,171,301,81,84,86,184,186,107,193,158,225,315,109,132,142,45]",1.7334,rectangle
,,,,,,,,,,,,,FF,,,,,,,,2.4662,,,,,,,,,,,,,,,,,,,,,,6100f8806915845f7cfc1707,61036a8442df8404d1ef0514,2021-07-29_19h57.33.385,Simcolourproject_2stim_asymm_v5,2020.2.10,MacIntel,60,61025ae37ef11b136ea224fe,,,,,,,,,3656,-36.43359375,-80.83203125,1,0,0,response5disk,,3,21.0546875,-4.1015625,1,0,0,rectangle,21.0546875,-4.1015625,1,0,0,21.0546875,-4.1015625,1,0,0,0,45,45,128,1,,,,,,,,
,,,,,,,,,,,,,FF,,,,,,,,1.6848,,,,,,,,,,,,,,,,,,,,,,6100f8806915845f7cfc1707,61036a8442df8404d1ef0514,2021-07-29_19h57.33.385,Simcolourproject_2stim_asymm_v5,2020.2.10,MacIntel,60,61025ae37ef11b136ea224fe,,,,,,,,,1511,69.39453125,-25.2734375,1,0,0,response3disk,,5,-0.55859375,-4.8125,1,0,0,rectangle,-0.55859375,-4.8125,1,0,0,-0.55859375,-4.8125,1,0,0,0,46,46,32,1,,,,,,,,
,,,,,,,,,,,,,FF,,,,,,,,1.2166,,,,,,,,,,,,,,,,,,,,,,6100f8806915845f7cfc1707,61036a8442df8404d1ef0514,2021-07-29_19h57.33.385,Simcolourproject_2stim_asymm_v5,2020.2.10,MacIntel,60,61025ae37ef11b136ea224fe,,,,,,,,,667,-39.94921875,-54.15625,1,0,0,response5disk,,3,-2.8046875,11.4453125,1,0,0,rectangle,-2.8046875,11.4453125,1,0,0,-2.8046875,11.4453125,1,0,0,0,47,47,131,1,,,,,,,,
,,,,,,,,,,,,,FF,,,,,,,,0.7171,,,,,,,,,,,,,,,,,,,,,,6100f8806915845f7cfc1707,61036a8442df8404d1ef0514,2021-07-29_19h57.33.385,Simcolourproject_2stim_asymm_v5,2020.2.10,MacIntel,60,61025ae37ef11b136ea224fe,,,,,,,,,3203,-67.69140625,45.515625,1,0,0,response7disk,,1,-9.80859375,8.36328125,1,0,0,rectangle,-9.80859375,8.36328125,1,0,0,-9.80859375,8.36328125,1,0,0,0,48,48,23,1,,,,,,,,
,,,,,,,,,,,,,FF,,,,,,,,1.0181,,,,,,,,,,,,,,,,,,,,,,6100f8806915845f7cfc1707,61036a8442df8404d1ef0514,2021-07-29_19h57.33.385,Simcolourproject_2stim_asymm_v5,2020.2.10,MacIntel,60,61025ae37ef11b136ea224fe,,,,,,,,,3682,-60.27734375,-35.203125,1,0,0,response5disk,,2,-0.78515625,-7.0859375,1,0,0,rectangle,-0.78515625,-7.0859375,1,0,0,-0.78515625,-7.0859375,1,0,0,0,49,49,57,1,,,,,,,,
,,,,,,,,,,,,,FF,,,,,,,,1.95,,,,,,,,,,,,,,,,,,,,,,6100f8806915845f7cfc1707,61036a8442df8404d1ef0514,2021-07-29_19h57.33.385,Simcolourproject_2stim_asymm_v5,2020.2.10,MacIntel,60,61025ae37ef11b136ea224fe,,,,,,,,,3231,76.0625,44.12890625,1,0,0,response1disk,,6,20.86328125,9.70703125,1,0,0,rectangle,20.86328125,9.70703125,1,0,0,20.86328125,9.70703125,1,0,0,0,50,50,102,1,,,,,,,,
,,,,,,,,,,,,,FF,,,,,,,,0.8671,,,,,,,,,,,,,,,,,,,,,,6100f8806915845f7cfc1707,61036a8442df8404d1ef0514,2021-07-29_19h57.33.385,Simcolourproject_2stim_asymm_v5,2020.2.10,MacIntel,60,61025ae37ef11b136ea224fe,,,,,,,,,4047,-80.55859375,-45.17578125,1,0,0,response5disk,,2,-17.39453125,8.0390625,1,0,0,rectangle,-17.39453125,8.0390625,1,0,0,-17.39453125,8.0390625,1,0,0,0,51,51,18,1,,,,,,,,
,,,,,,,,,,,,,FF,,,,,,,,1.5852,,,,,,,,,,,,,,,,,,,,,,6100f8806915845f7cfc1707,61036a8442df8404d1ef0514,2021-07-29_19h57.33.385,Simcolourproject_2stim_asymm_v5,2020.2.10,MacIntel,60,61025ae37ef11b136ea224fe,,,,,,,,,4066,57.6328125,-93.96875,1,0,0,response3disk,,4,10.6484375,11.234375,1,0,0,rectangle,10.6484375,11.234375,1,0,0,10.6484375,11.234375,1,0,0,0,52,52,28,1,,,,,,,,
,,,,,,,,,,,,,FF,,,,,,,,1.0333,,,,,,,,,,,,,,,,,,,,,,6100f8806915845f7cfc1707,61036a8442df8404d1ef0514,2021-07-29_19h57.33.385,Simcolourproject_2stim_asymm_v5,2020.2.10,MacIntel,60,61025ae37ef11b136ea224fe,,,,,,,,,417,46.43359375,65.68359375,1,0,0,response1disk,,7,23.609375,11.29296875,1,0,0,rectangle,23.609375,11.29296875,1,0,0,23.609375,11.29296875,1,0,0,0,53,53,39,1,,,,,,,,
,,,,,,,,,,,,,FF,,,,,,,,1.867,,,,,,,,,,,,,,,,,,,,,,6100f8806915845f7cfc1707,61036a8442df8404d1ef0514,2021-07-29_19h57.33.385,Simcolourproject_2stim_asymm_v5,2020.2.10,MacIntel,60,61025ae37ef11b136ea224fe,,,,,,,,,374,91.71484375,25.3125,1,0,0,response1disk,,6,0.8125,-5.1328125,1,0,0,rectangle,0.8125,-5.1328125,1,0,0,0.8125,-5.1328125,1,0,0,0,54,54,84,1,,,,,,,,
,,,,,,,,,,,,,FF,,,,,,,,7.4008,,,,,,,,,,,,,,,,,,,,,,6100f8806915845f7cfc1707,61036a8442df8404d1ef0514,2021-07-29_19h57.33.385,Simcolourproject_2stim_asymm_v5,2020.2.10,MacIntel,60,61025ae37ef11b136ea224fe,,,,,,,,,53,29.63671875,-70.94921875,1,0,0,response3disk,,4,15.2578125,-0.66015625,1,0,0,rectangle,15.2578125,-0.66015625,1,0,0,15.2578125,-0.66015625,1,0,0,0,55,55,130,1,,,,,,,,
,,,,,,,,,,,,,FF,,,,,,,,1.1008,,,,,,,,,,,,,,,,,,,,,,6100f8806915845f7cfc1707,61036a8442df8404d1ef0514,2021-07-29_19h57.33.385,Simcolourproject_2stim_asymm_v5,2020.2.10,MacIntel,60,61025ae37ef11b136ea224fe,,,,,,,,,3469,-96.98828125,37.78125,1,0,0,response7disk,,1,-19.37890625,-9.08984375,1,0,0,rectangle,-19.37890625,-9.08984375,1,0,0,-19.37890625,-9.08984375,1,0,0,0,56,56,146,1,,,,,,,,
,,,,,,,,,,,,,FF,,,,,,,,1.5334,,,,,,,,,,,,,,,,,,,,,,6100f8806915845f7cfc1707,61036a8442df8404d1ef0514,2021-07-29_19h57.33.385,Simcolourproject_2stim_asymm_v5,2020.2.10,MacIntel,60,61025ae37ef11b136ea224fe,,,,,,,,,210,-44.96484375,-91.953125,1,0,0,response5disk,,3,-3.62890625,-4.0625,1,0,0,rectangle,-3.62890625,-4.0625,1,0,0,-3.62890625,-4.0625,1,0,0,0,57,57,159,1,,,,,,,,
,,,,,,,,,,,,,FF,,,,,,,,2.6836,,,,,,,,,,,,,,,,,,,,,,6100f8806915845f7cfc1707,61036a8442df8404d1ef0514,2021-07-29_19h57.33.385,Simcolourproject_2stim_asymm_v5,2020.2.10,MacIntel,60,61025ae37ef11b136ea224fe,,,,,,,,,3290,-39.3359375,70.4296875,1,0,0,response7disk,,0,-19.26953125,-11.5703125,1,0,0,rectangle,-19.26953125,-11.5703125,1,0,0,-19.26953125,-11.5703125,1,0,0,0,58,58,113,1,,,,,,,,
,,,,,,,,,,,,,FF,,,,,,,,0.6667,,,,,,,,,,,,,,,,,,,,,,6100f8806915845f7cfc1707,61036a8442df8404d1ef0514,2021-07-29_19h57.33.385,Simcolourproject_2stim_asymm_v5,2020.2.10,MacIntel,60,61025ae37ef11b136ea224fe,,,,,,,,,4118,-22.546875,60.54296875,1,0,0,response7disk,,0,-13.27734375,-7.0078125,1,0,0,rectangle,-13.27734375,-7.0078125,1,0,0,-13.27734375,-7.0078125,1,0,0,0,59,59,58,1,,,,,,,,
,,,,,,,,,,,,,FF,,,,,,,,1.2008,,,,,,,,,,,,,,,,,,,,,,6100f8806915845f7cfc1707,61036a8442df8404d1ef0514,2021-07-29_19h57.33.385,Simcolourproject_2stim_asymm_v5,2020.2.10,MacIntel,60,61025ae37ef11b136ea224fe,,,,,,,,,866,43.89453125,-101.2460938,1,0,0,response3disk,,4,20.24609375,-11.8984375,1,0,0,rectangle,20.24609375,-11.8984375,1,0,0,20.24609375,-11.8984375,1,0,0,0,60,60,93,1,,,,,,,,
,,,,,,,,,,,,,FF,,,,,,,,1.0338,,,,,,,,,,,,,,,,,,,,,,6100f8806915845f7cfc1707,61036a8442df8404d1ef0514,2021-07-29_19h57.33.385,Simcolourproject_2stim_asymm_v5,2020.2.10,MacIntel,60,61025ae37ef11b136ea224fe,,,,,,,,,68,-105.2851563,-43.7421875,1,0,0,response5disk,,2,0.56640625,8.57421875,1,0,0,rectangle,0.56640625,8.57421875,1,0,0,0.56640625,8.57421875,1,0,0,0,61,61,79,1,,,,,,,,
,,,,,,,,,,,,,FF,,,,,,,,0.9165,,,,,,,,,,,,,,,,,,,,,,6100f8806915845f7cfc1707,61036a8442df8404d1ef0514,2021-07-29_19h57.33.385,Simcolourproject_2stim_asymm_v5,2020.2.10,MacIntel,60,61025ae37ef11b136ea224fe,,,,,,,,,1123,45.546875,-78.1171875,1,0,0,response3disk,,4,11.52734375,-11.94140625,1,0,0,rectangle,11.52734375,-11.94140625,1,0,0,11.52734375,-11.94140625,1,0,0,0,62,62,21,1,,,,,,,,
,,,,,,,,,,,,,FF,,,,,,,,1.5516,,,,,,,,,,,,,,,,,,,,,,6100f8806915845f7cfc1707,61036a8442df8404d1ef0514,2021-07-29_19h57.33.385,Simcolourproject_2stim_asymm_v5,2020.2.10,MacIntel,60,61025ae37ef11b136ea224fe,,,,,,,,,739,-44.7578125,-90.1171875,1,0,0,response5disk,,3,-13.6875,-3.65625,1,0,0,rectangle,-13.6875,-3.65625,1,0,0,-13.6875,-3.65625,1,0,0,0,63,63,75,1,,,,,,,,
,,,,,,,,,,,,,FF,,,,,,,,1.0663,,,,,,,,,,,,,,,,,,,,,,6100f8806915845f7cfc1707,61036a8442df8404d1ef0514,2021-07-29_19h57.33.385,Simcolourproject_2stim_asymm_v5,2020.2.10,MacIntel,60,61025ae37ef11b136ea224fe,,,,,,,,,439,-50.51171875,-81.43359375,1,0,0,response5disk,,3,-13.69921875,1.34375,1,0,0,rectangle,-13.69921875,1.34375,1,0,0,-13.69921875,1.34375,1,0,0,0,64,64,30,1,,,,,,,,
,,,,,,,,,,,,,FF,,,,,,,,1.0993,,,,,,,,,,,,,,,,,,,,,,6100f8806915845f7cfc1707,61036a8442df8404d1ef0514,2021-07-29_19h57.33.385,Simcolourproject_2stim_asymm_v5,2020.2.10,MacIntel,60,61025ae37ef11b136ea224fe,,,,,,,,,1915,91.328125,53.7890625,1,0,0,response1disk,,6,20.19140625,4.81640625,1,0,0,rectangle,20.19140625,4.81640625,1,0,0,20.19140625,4.81640625,1,0,0,0,65,65,70,1,,,,,,,,
,,,,,,,,,,,,,FF,,,,,,,,0.7353,,,,,,,,,,,,,,,,,,,,,,6100f8806915845f7cfc1707,61036a8442df8404d1ef0514,2021-07-29_19h57.33.385,Simcolourproject_2stim_asymm_v5,2020.2.10,MacIntel,60,61025ae37ef11b136ea224fe,,,,,,,,,3336,-45.50390625,65.78125,1,0,0,response7disk,,0,-21.96484375,-4.85546875,1,0,0,rectangle,-21.96484375,-4.85546875,1,0,0,-21.96484375,-4.85546875,1,0,0,0,66,66,137,1,,,,,,,,
,,,,,,,,,,,,,FF,,,,,,,,0.9664,,,,,,,,,,,,,,,,,,,,,,6100f8806915845f7cfc1707,61036a8442df8404d1ef0514,2021-07-29_19h57.33.385,Simcolourproject_2stim_asymm_v5,2020.2.10,MacIntel,60,61025ae37ef11b136ea224fe,,,,,,,,,3315,37.6640625,77.77734375,1,0,0,response1disk,,7,6.6484375,5.10546875,1,0,0,rectangle,6.6484375,5.10546875,1,0,0,6.6484375,5.10546875,1,0,0,0,67,67,117,1,,,,,,,,
,,,,,,,,,,,,,FF,,,,,,,,0.5666,,,,,,,,,,,,,,,,,,,,,,6100f8806915845f7cfc1707,61036a8442df8404d1ef0514,2021-07-29_19h57.33.385,Simcolourproject_2stim_asymm_v5,2020.2.10,MacIntel,60,61025ae37ef11b136ea224fe,,,,,,,,,2628,29.16796875,68.5546875,1,0,0,response1disk,,7,8.921875,5.15625,1,0,0,rectangle,8.921875,5.15625,1,0,0,8.921875,5.15625,1,0,0,0,68,68,110,1,,,,,,,,
,,,,,,,,,,,,,FF,,,,,,,,1.1166,,,,,,,,,,,,,,,,,,,,,,6100f8806915845f7cfc1707,61036a8442df8404d1ef0514,2021-07-29_19h57.33.385,Simcolourproject_2stim_asymm_v5,2020.2.10,MacIntel,60,61025ae37ef11b136ea224fe,,,,,,,,,2730,-87.59765625,-42.8828125,1,0,0,response5disk,,2,-11.9453125,-5.30078125,1,0,0,rectangle,-11.9453125,-5.30078125,1,0,0,-11.9453125,-5.30078125,1,0,0,0,69,69,140,1,,,,,,,,
,,,,,,,,,,,,,FF,,,,,,,,0.6493,,,,,,,,,,,,,,,,,,,,,,6100f8806915845f7cfc1707,61036a8442df8404d1ef0514,2021-07-29_19h57.33.385,Simcolourproject_2stim_asymm_v5,2020.2.10,MacIntel,60,61025ae37ef11b136ea224fe,,,,,,,,,4329,30.875,59.59765625,1,0,0,response1disk,,7,13.64453125,-2.1953125,1,0,0,rectangle,13.64453125,-2.1953125,1,0,0,13.64453125,-2.1953125,1,0,0,0,70,70,81,1,,,,,,,,
,,,,,,,,,,,,,FF,,,,,,,,0.8503,,,,,,,,,,,,,,,,,,,,,,6100f8806915845f7cfc1707,61036a8442df8404d1ef0514,2021-07-29_19h57.33.385,Simcolourproject_2stim_asymm_v5,2020.2.10,MacIntel,60,61025ae37ef11b136ea224fe,,,,,,,,,821,75.12109375,29.55859375,1,0,0,response1disk,,6,19.265625,-7.51171875,1,0,0,rectangle,19.265625,-7.51171875,1,0,0,19.265625,-7.51171875,1,0,0,0,71,71,150,1,,,,,,,,
,,,,,,,,,,,,,FF,,,,,,,,0.6501,,,,,,,,,,,,,,,,,,,,,,6100f8806915845f7cfc1707,61036a8442df8404d1ef0514,2021-07-29_19h57.33.385,Simcolourproject_2stim_asymm_v5,2020.2.10,MacIntel,60,61025ae37ef11b136ea224fe,,,,,,,,,1071,77.0859375,39.7421875,1,0,0,response1disk,,6,10.09765625,1.234375,1,0,0,rectangle,10.09765625,1.234375,1,0,0,10.09765625,1.234375,1,0,0,0,72,72,89,1,,,,,,,,
,,,,,,,,,,,,,FF,,,,,,,,1.4325,,,,,,,,,,,,,,,,,,,,,,6100f8806915845f7cfc1707,61036a8442df8404d1ef0514,2021-07-29_19h57.33.385,Simcolourproject_2stim_asymm_v5,2020.2.10,MacIntel,60,61025ae37ef11b136ea224fe,,,,,,,,,781,27.37109375,-77.52734375,1,0,0,response3disk,,4,11.3984375,0.48828125,1,0,0,rectangle,11.3984375,0.48828125,1,0,0,11.3984375,0.48828125,1,0,0,0,73,73,109,1,,,,,,,,
,,,,,,,,,,,,,FF,,,,,,,,1.4507,,,,,,,,,,,,,,,,,,,,,,6100f8806915845f7cfc1707,61036a8442df8404d1ef0514,2021-07-29_19h57.33.385,Simcolourproject_2stim_asymm_v5,2020.2.10,MacIntel,60,61025ae37ef11b136ea224fe,,,,,,,,,3666,-57.4140625,-33.15234375,1,0,0,response5disk,,2,-2.54296875,-7.73828125,1,0,0,rectangle,-2.54296875,-7.73828125,1,0,0,-2.54296875,-7.73828125,1,0,0,0,74,74,96,1,,,,,,,,
,,,,,,,,,,,,,FF,,,,,,,,1.8832,,,,,,,,,,,,,,,,,,,,,,6100f8806915845f7cfc1707,61036a8442df8404d1ef0514,2021-07-29_19h57.33.385,Simcolourproject_2stim_asymm_v5,2020.2.10,MacIntel,60,61025ae37ef11b136ea224fe,,,,,,,,,4227,46.6171875,72.9921875,1,0,0,response1disk,,7,4.79296875,13.09765625,1,0,0,rectangle,4.79296875,13.09765625,1,0,0,4.79296875,13.09765625,1,0,0,0,75,75,13,1,,,,,,,,
,,,,,,,,,,,,,FF,,,,,,,,1.2001,,,,,,,,,,,,,,,,,,,,,,6100f8806915845f7cfc1707,61036a8442df8404d1ef0514,2021-07-29_19h57.33.385,Simcolourproject_2stim_asymm_v5,2020.2.10,MacIntel,60,61025ae37ef11b136ea224fe,,,,,,,,,3201,-68.6953125,45.59375,1,0,0,response7disk,,1,-22,1.4921875,1,0,0,rectangle,-22,1.4921875,1,0,0,-22,1.4921875,1,0,0,0,76,76,20,1,,,,,,,,
,,,,,,,,,,,,,FF,,,,,,,,1.4997,,,,,,,,,,,,,,,,,,,,,,6100f8806915845f7cfc1707,61036a8442df8404d1ef0514,2021-07-29_19h57.33.385,Simcolourproject_2stim_asymm_v5,2020.2.10,MacIntel,60,61025ae37ef11b136ea224fe,,,,,,,,,1988,65.95703125,36.6015625,1,0,0,response1disk,,6,4.40234375,-9.140625,1,0,0,rectangle,4.40234375,-9.140625,1,0,0,4.40234375,-9.140625,1,0,0,0,77,77,45,1,,,,,,,,
,,,,,,,,,,,,,FF,,,,,,,,1.267,,,,,,,,,,,,,,,,,,,,,,6100f8806915845f7cfc1707,61036a8442df8404d1ef0514,2021-07-29_19h57.33.385,Simcolourproject_2stim_asymm_v5,2020.2.10,MacIntel,60,61025ae37ef11b136ea224fe,,,,,,,,,4317,39.34765625,77.19140625,1,0,0,response1disk,,7,-1.15625,-6.20703125,1,0,0,rectangle,-1.15625,-6.20703125,1,0,0,-1.15625,-6.20703125,1,0,0,0,78,78,65,1,,,,,,,,
,,,,,,,,,,,,,FF,,,,,,,,2.2493,,,,,,,,,,,,,,,,,,,,,,6100f8806915845f7cfc1707,61036a8442df8404d1ef0514,2021-07-29_19h57.33.385,Simcolourproject_2stim_asymm_v5,2020.2.10,MacIntel,60,61025ae37ef11b136ea224fe,,,,,,,,,3847,-71.04296875,-43.546875,1,0,0,response5disk,,2,-1.16796875,-1.5546875,1,0,0,rectangle,-1.16796875,-1.5546875,1,0,0,-1.16796875,-1.5546875,1,0,0,0,79,79,90,1,,,,,,,,
,,,,,,,,,,,,,FF,,,,,,,,1.0658,,,,,,,,,,,,,,,,,,,,,,6100f8806915845f7cfc1707,61036a8442df8404d1ef0514,2021-07-29_19h57.33.385,Simcolourproject_2stim_asymm_v5,2020.2.10,MacIntel,60,61025ae37ef11b136ea224fe,,,,,,,,,1907,-57.5078125,-91.90234375,1,0,0,response5disk,,3,-0.5078125,-7.44921875,1,0,0,rectangle,48.20703125,-74.8828125,1,0,0,16.53125,-14.73046875,1,0,0,0,80,80,153,1,,response3disk_3,TRUE,4,4,"[17,132,136,20,171,301,81,84,86,184,186,107,193,158,225,315,109,132,142,45]",1.1675,rectangle
,,,,,,,,,,,,,FF,,,,,,,,2.1666,,,,,,,,,,,,,,,,,,,,,,6100f8806915845f7cfc1707,61036a8442df8404d1ef0514,2021-07-29_19h57.33.385,Simcolourproject_2stim_asymm_v5,2020.2.10,MacIntel,60,61025ae37ef11b136ea224fe,,,,,,,,,284,45.61328125,-60.7890625,1,0,0,response3disk,,4,20.84375,6.171875,1,0,0,rectangle,20.84375,6.171875,1,0,0,20.84375,6.171875,1,0,0,0,81,81,71,1,,,,,,,,
,,,,,,,,,,,,,FF,,,,,,,,1.7344,,,,,,,,,,,,,,,,,,,,,,6100f8806915845f7cfc1707,61036a8442df8404d1ef0514,2021-07-29_19h57.33.385,Simcolourproject_2stim_asymm_v5,2020.2.10,MacIntel,60,61025ae37ef11b136ea224fe,,,,,,,,,686,31.98828125,-77.2734375,1,0,0,response3disk,,4,21.50390625,5.80078125,1,0,0,rectangle,21.50390625,5.80078125,1,0,0,21.50390625,5.80078125,1,0,0,0,82,82,11,1,,,,,,,,
,,,,,,,,,,,,,FF,,,,,,,,3.5335,,,,,,,,,,,,,,,,,,,,,,6100f8806915845f7cfc1707,61036a8442df8404d1ef0514,2021-07-29_19h57.33.385,Simcolourproject_2stim_asymm_v5,2020.2.10,MacIntel,60,61025ae37ef11b136ea224fe,,,,,,,,,59,56.734375,34.890625,1,0,0,response1disk,,6,-1.94140625,-7.2109375,1,0,0,rectangle,24.2109375,-73.8046875,1,0,0,18.2421875,12.55078125,1,0,0,0,83,83,76,1,,response3disk_3,TRUE,4,4,"[17,132,136,20,171,301,81,84,86,184,186,107,193,158,225,315,109,132,142,45]",1.3666,rectangle
,,,,,,,,,,,,,FF,,,,,,,,2.1192,,,,,,,,,,,,,,,,,,,,,,6100f8806915845f7cfc1707,61036a8442df8404d1ef0514,2021-07-29_19h57.33.385,Simcolourproject_2stim_asymm_v5,2020.2.10,MacIntel,60,61025ae37ef11b136ea224fe,,,,,,,,,943,77.0703125,-52.33203125,1,0,0,response3disk,,5,11.88671875,-3.29296875,1,0,0,rectangle,11.88671875,-3.29296875,1,0,0,11.88671875,-3.29296875,1,0,0,0,84,84,52,1,,,,,,,,
,,,,,,,,,,,,,FF,,,,,,,,1.1822,,,,,,,,,,,,,,,,,,,,,,6100f8806915845f7cfc1707,61036a8442df8404d1ef0514,2021-07-29_19h57.33.385,Simcolourproject_2stim_asymm_v5,2020.2.10,MacIntel,60,61025ae37ef11b136ea224fe,,,,,,,,,2861,80.41796875,34.671875,1,0,0,response1disk,,6,-20.76953125,-0.64453125,1,0,0,rectangle,-63.73828125,-22.29296875,1,0,0,-15.6953125,-9.875,1,0,0,0,85,85,2,1,,response5disk_3,TRUE,2,2,"[17,132,136,20,171,301,81,84,86,184,186,107,193,158,225,315,109,132,142,45]",1.3337,rectangle
,,,,,,,,,,,,,FF,,,,,,,,1.151,,,,,,,,,,,,,,,,,,,,,,6100f8806915845f7cfc1707,61036a8442df8404d1ef0514,2021-07-29_19h57.33.385,Simcolourproject_2stim_asymm_v5,2020.2.10,MacIntel,60,61025ae37ef11b136ea224fe,,,,,,,,,338,-24.03125,-45.984375,1,0,0,response5disk,,3,-12.70703125,-12.8203125,1,0,0,rectangle,-12.70703125,-12.8203125,1,0,0,-12.70703125,-12.8203125,1,0,0,0,86,86,43,1,,,,,,,,
,,,,,,,,,,,,,FF,,,,,,,,1.1333,,,,,,,,,,,,,,,,,,,,,,6100f8806915845f7cfc1707,61036a8442df8404d1ef0514,2021-07-29_19h57.33.385,Simcolourproject_2stim_asymm_v5,2020.2.10,MacIntel,60,61025ae37ef11b136ea224fe,,,,,,,,,2691,43.0234375,-70.828125,1,0,0,response3disk,,4,22.8671875,-9.2578125,1,0,0,rectangle,22.8671875,-9.2578125,1,0,0,22.8671875,-9.2578125,1,0,0,0,87,87,25,1,,,,,,,,
,,,,,,,,,,,,,FF,,,,,,,,1.0676,,,,,,,,,,,,,,,,,,,,,,6100f8806915845f7cfc1707,61036a8442df8404d1ef0514,2021-07-29_19h57.33.385,Simcolourproject_2stim_asymm_v5,2020.2.10,MacIntel,60,61025ae37ef11b136ea224fe,,,,,,,,,2001,81.8984375,36.640625,1,0,0,response1disk,,6,10.87109375,-17.4375,1,0,0,rectangle,10.87109375,-17.4375,1,0,0,10.87109375,-17.4375,1,0,0,0,88,88,72,1,,,,,,,,
,,,,,,,,,,,,,FF,,,,,,,,1.4511,,,,,,,,,,,,,,,,,,,,,,6100f8806915845f7cfc1707,61036a8442df8404d1ef0514,2021-07-29_19h57.33.385,Simcolourproject_2stim_asymm_v5,2020.2.10,MacIntel,60,61025ae37ef11b136ea224fe,,,,,,,,,2152,-37.109375,-87.74609375,1,0,0,response5disk,,3,-7.25390625,-17.78515625,1,0,0,rectangle,-7.25390625,-17.78515625,1,0,0,-7.25390625,-17.78515625,1,0,0,0,89,89,118,1,,,,,,,,
,,,,,,,,,,,,,FF,,,,,,,,1.0659,,,,,,,,,,,,,,,,,,,,,,6100f8806915845f7cfc1707,61036a8442df8404d1ef0514,2021-07-29_19h57.33.385,Simcolourproject_2stim_asymm_v5,2020.2.10,MacIntel,60,61025ae37ef11b136ea224fe,,,,,,,,,880,-36.83984375,-72.5703125,1,0,0,response5disk,,3,1.84375,-0.56640625,1,0,0,rectangle,1.84375,-0.56640625,1,0,0,1.84375,-0.56640625,1,0,0,0,90,90,138,1,,,,,,,,
,,,,,,,,,,,,,FF,,,,,,,,0.8173,,,,,,,,,,,,,,,,,,,,,,6100f8806915845f7cfc1707,61036a8442df8404d1ef0514,2021-07-29_19h57.33.385,Simcolourproject_2stim_asymm_v5,2020.2.10,MacIntel,60,61025ae37ef11b136ea224fe,,,,,,,,,1862,68.45703125,31.9609375,1,0,0,response1disk,,6,6.42578125,-0.88671875,1,0,0,rectangle,6.42578125,-0.88671875,1,0,0,6.42578125,-0.88671875,1,0,0,0,91,91,99,1,,,,,,,,
,,,,,,,,,,,,,FF,,,,,,,,0.9337,,,,,,,,,,,,,,,,,,,,,,6100f8806915845f7cfc1707,61036a8442df8404d1ef0514,2021-07-29_19h57.33.385,Simcolourproject_2stim_asymm_v5,2020.2.10,MacIntel,60,61025ae37ef11b136ea224fe,,,,,,,,,1968,-74.4921875,29.03515625,1,0,0,response7disk,,1,-3.04296875,14.18359375,1,0,0,rectangle,-3.04296875,14.18359375,1,0,0,-3.04296875,14.18359375,1,0,0,0,92,92,14,1,,,,,,,,
,,,,,,,,,,,,,FF,,,,,,,,0.8661,,,,,,,,,,,,,,,,,,,,,,6100f8806915845f7cfc1707,61036a8442df8404d1ef0514,2021-07-29_19h57.33.385,Simcolourproject_2stim_asymm_v5,2020.2.10,MacIntel,60,61025ae37ef11b136ea224fe,,,,,,,,,3017,75.13671875,-32.578125,1,0,0,response3disk,,5,9.27734375,1.546875,1,0,0,rectangle,9.27734375,1.546875,1,0,0,9.27734375,1.546875,1,0,0,0,93,93,95,1,,,,,,,,
,,,,,,,,,,,,,FF,,,,,,,,0.7832,,,,,,,,,,,,,,,,,,,,,,6100f8806915845f7cfc1707,61036a8442df8404d1ef0514,2021-07-29_19h57.33.385,Simcolourproject_2stim_asymm_v5,2020.2.10,MacIntel,60,61025ae37ef11b136ea224fe,,,,,,,,,3939,-56.328125,39.46484375,1,0,0,response7disk,,1,-21.19921875,15.1171875,1,0,0,rectangle,-21.19921875,15.1171875,1,0,0,-21.19921875,15.1171875,1,0,0,0,94,94,77,1,,,,,,,,
,,,,,,,,,,,,,FF,,,,,,,,1.2839,,,,,,,,,,,,,,,,,,,,,,6100f8806915845f7cfc1707,61036a8442df8404d1ef0514,2021-07-29_19h57.33.385,Simcolourproject_2stim_asymm_v5,2020.2.10,MacIntel,60,61025ae37ef11b136ea224fe,,,,,,,,,2716,-69.7890625,34.1875,1,0,0,response7disk,,1,-19.51171875,9.00390625,1,0,0,rectangle,-19.51171875,9.00390625,1,0,0,-19.51171875,9.00390625,1,0,0,0,95,95,86,1,,,,,,,,
,,,,,,,,,,,,,FF,,,,,,,,0.8675,,,,,,,,,,,,,,,,,,,,,,6100f8806915845f7cfc1707,61036a8442df8404d1ef0514,2021-07-29_19h57.33.385,Simcolourproject_2stim_asymm_v5,2020.2.10,MacIntel,60,61025ae37ef11b136ea224fe,,,,,,,,,3838,-69.51171875,-35.84765625,1,0,0,response5disk,,2,-4.16796875,8.78125,1,0,0,rectangle,-4.16796875,8.78125,1,0,0,-4.16796875,8.78125,1,0,0,0,96,96,4,1,,,,,,,,
,,,,,,,,,,,,,FF,,,,,,,,0.8333,,,,,,,,,,,,,,,,,,,,,,6100f8806915845f7cfc1707,61036a8442df8404d1ef0514,2021-07-29_19h57.33.385,Simcolourproject_2stim_asymm_v5,2020.2.10,MacIntel,60,61025ae37ef11b136ea224fe,,,,,,,,,4211,37.84375,59.44921875,1,0,0,response1disk,,7,10.8515625,0.9765625,1,0,0,rectangle,10.8515625,0.9765625,1,0,0,10.8515625,0.9765625,1,0,0,0,97,97,42,1,,,,,,,,
,,,,,,,,,,,,,FF,,,,,,,,1.1341,,,,,,,,,,,,,,,,,,,,,,6100f8806915845f7cfc1707,61036a8442df8404d1ef0514,2021-07-29_19h57.33.385,Simcolourproject_2stim_asymm_v5,2020.2.10,MacIntel,60,61025ae37ef11b136ea224fe,,,,,,,,,3684,-54.953125,-27.828125,1,0,0,response5disk,,2,-4.01953125,-2.5,1,0,0,rectangle,-4.01953125,-2.5,1,0,0,-4.01953125,-2.5,1,0,0,0,98,98,31,1,,,,,,,,
,,,,,,,,,,,,,FF,,,,,,,,1.5001,,,,,,,,,,,,,,,,,,,,,,6100f8806915845f7cfc1707,61036a8442df8404d1ef0514,2021-07-29_19h57.33.385,Simcolourproject_2stim_asymm_v5,2020.2.10,MacIntel,60,61025ae37ef11b136ea224fe,,,,,,,,,4313,46.84375,76.48828125,1,0,0,response1disk,,7,10.4375,5.07421875,1,0,0,rectangle,10.4375,5.07421875,1,0,0,10.4375,5.07421875,1,0,0,0,99,99,132,1,,,,,,,,
,,,,,,,,,,,,,FF,,,,,,,,1.5679,,,,,,,,,,,,,,,,,,,,,,6100f8806915845f7cfc1707,61036a8442df8404d1ef0514,2021-07-29_19h57.33.385,Simcolourproject_2stim_asymm_v5,2020.2.10,MacIntel,60,61025ae37ef11b136ea224fe,,,,,,,,,3188,62.2265625,32.3828125,1,0,0,response1disk,,6,8.7265625,-1.703125,1,0,0,rectangle,8.7265625,-1.703125,1,0,0,8.7265625,-1.703125,1,0,0,0,100,100,125,1,,,,,,,,
,,,,,,,,,,,,,FF,,,,,,,,2.7669,,,,,,,,,,,,,,,,,,,,,,6100f8806915845f7cfc1707,61036a8442df8404d1ef0514,2021-07-29_19h57.33.385,Simcolourproject_2stim_asymm_v5,2020.2.10,MacIntel,60,61025ae37ef11b136ea224fe,,,,,,,,,2458,64.15625,-36.2265625,1,0,0,response3disk,,5,8.515625,7.859375,1,0,0,rectangle,8.515625,7.859375,1,0,0,8.515625,7.859375,1,0,0,0,101,101,141,1,,,,,,,,
,,,,,,,,,,,,,FF,,,,,,,,2.0665,,,,,,,,,,,,,,,,,,,,,,6100f8806915845f7cfc1707,61036a8442df8404d1ef0514,2021-07-29_19h57.33.385,Simcolourproject_2stim_asymm_v5,2020.2.10,MacIntel,60,61025ae37ef11b136ea224fe,,,,,,,,,3731,44.86328125,-69.12109375,1,0,0,response3disk,,4,22.421875,-5.46484375,1,0,0,rectangle,22.421875,-5.46484375,1,0,0,22.421875,-5.46484375,1,0,0,0,102,102,80,1,,,,,,,,
,,,,,,,,,,,,,FF,,,,,,,,2.7661,,,,,,,,,,,,,,,,,,,,,,6100f8806915845f7cfc1707,61036a8442df8404d1ef0514,2021-07-29_19h57.33.385,Simcolourproject_2stim_asymm_v5,2020.2.10,MacIntel,60,61025ae37ef11b136ea224fe,,,,,,,,,1737,27.33203125,-66.16796875,1,0,0,response3disk,,4,14,-9.56640625,1,0,0,rectangle,14,-9.56640625,1,0,0,14,-9.56640625,1,0,0,0,103,103,59,1,,,,,,,,
,,,,,,,,,,,,,FF,,,,,,,,1.8998,,,,,,,,,,,,,,,,,,,,,,6100f8806915845f7cfc1707,61036a8442df8404d1ef0514,2021-07-29_19h57.33.385,Simcolourproject_2stim_asymm_v5,2020.2.10,MacIntel,60,61025ae37ef11b136ea224fe,,,,,,,,,2472,-59.85546875,-73.328125,1,0,0,response5disk,,3,-8.53125,1.64453125,1,0,0,rectangle,-8.53125,1.64453125,1,0,0,-8.53125,1.64453125,1,0,0,0,104,104,10,1,,,,,,,,
,,,,,,,,,,,,,FF,,,,,,,,1.7161,,,,,,,,,,,,,,,,,,,,,,6100f8806915845f7cfc1707,61036a8442df8404d1ef0514,2021-07-29_19h57.33.385,Simcolourproject_2stim_asymm_v5,2020.2.10,MacIntel,60,61025ae37ef11b136ea224fe,,,,,,,,,430,-23.1328125,-70.9296875,1,0,0,response5disk,,3,0.5859375,-4.53515625,1,0,0,rectangle,0.5859375,-4.53515625,1,0,0,0.5859375,-4.53515625,1,0,0,0,105,105,22,1,,,,,,,,
,,,,,,,,,,,,,FF,,,,,,,,1.4,,,,,,,,,,,,,,,,,,,,,,6100f8806915845f7cfc1707,61036a8442df8404d1ef0514,2021-07-29_19h57.33.385,Simcolourproject_2stim_asymm_v5,2020.2.10,MacIntel,60,61025ae37ef11b136ea224fe,,,,,,,,,2569,61.66015625,34.29296875,1,0,0,response1disk,,6,10.9453125,2.53125,1,0,0,rectangle,94.4609375,-24.125,1,0,0,25.10546875,3.40625,1,0,0,0,106,106,92,1,,response3disk_3,TRUE,5,5,"[17,132,136,20,171,301,81,84,86,184,186,107,193,158,225,315,109,132,142,45]",1.3495,rectangle
,,,,,,,,,,,,,FF,,,,,,,,1.1008,,,,,,,,,,,,,,,,,,,,,,6100f8806915845f7cfc1707,61036a8442df8404d1ef0514,2021-07-29_19h57.33.385,Simcolourproject_2stim_asymm_v5,2020.2.10,MacIntel,60,61025ae37ef11b136ea224fe,,,,,,,,,3585,-25.98828125,-70.44921875,1,0,0,response5disk,,3,-0.96875,-2.296875,1,0,0,rectangle,-0.96875,-2.296875,1,0,0,-0.96875,-2.296875,1,0,0,0,107,107,51,1,,,,,,,,
,,,,,,,,,,,,,FF,,,,,,,,1.7335,,,,,,,,,,,,,,,,,,,,,,6100f8806915845f7cfc1707,61036a8442df8404d1ef0514,2021-07-29_19h57.33.385,Simcolourproject_2stim_asymm_v5,2020.2.10,MacIntel,60,61025ae37ef11b136ea224fe,,,,,,,,,4119,-68.26953125,-44.8984375,1,0,0,response5disk,,2,20.3125,-11.27734375,1,0,0,rectangle,-81.6640625,-50.32421875,1,0,0,-7.68359375,-3.10546875,1,0,0,0,108,108,29,1,,response5disk_3,TRUE,2,2,"[17,132,136,20,171,301,81,84,86,184,186,107,193,158,225,315,109,132,142,45]",1.2161,rectangle
,,,,,,,,,,,,,FF,,,,,,,,1.8166,,,,,,,,,,,,,,,,,,,,,,6100f8806915845f7cfc1707,61036a8442df8404d1ef0514,2021-07-29_19h57.33.385,Simcolourproject_2stim_asymm_v5,2020.2.10,MacIntel,60,61025ae37ef11b136ea224fe,,,,,,,,,1493,34.13671875,-63.40625,1,0,0,response3disk,,4,11.55859375,-2.97265625,1,0,0,rectangle,11.55859375,-2.97265625,1,0,0,11.55859375,-2.97265625,1,0,0,0,109,109,139,1,,,,,,,,
,,,,,,,,,,,,,FF,,,,,,,,1.6161,,,,,,,,,,,,,,,,,,,,,,6100f8806915845f7cfc1707,61036a8442df8404d1ef0514,2021-07-29_19h57.33.385,Simcolourproject_2stim_asymm_v5,2020.2.10,MacIntel,60,61025ae37ef11b136ea224fe,,,,,,,,,3697,36.91796875,-48.0703125,1,0,0,response3disk,,4,13.25390625,7.734375,1,0,0,rectangle,13.25390625,7.734375,1,0,0,13.25390625,7.734375,1,0,0,0,110,110,27,1,,,,,,,,
,,,,,,,,,,,,,FF,,,,,,,,0.7161,,,,,,,,,,,,,,,,,,,,,,6100f8806915845f7cfc1707,61036a8442df8404d1ef0514,2021-07-29_19h57.33.385,Simcolourproject_2stim_asymm_v5,2020.2.10,MacIntel,60,61025ae37ef11b136ea224fe,,,,,,,,,3313,39.75,-71.4140625,1,0,0,response3disk,,4,1.28515625,1.4453125,1,0,0,rectangle,1.28515625,1.4453125,1,0,0,1.28515625,1.4453125,1,0,0,0,111,111,144,1,,,,,,,,
,,,,,,,,,,,,,FF,,,,,,,,3.2153,,,,,,,,,,,,,,,,,,,,,,6100f8806915845f7cfc1707,61036a8442df8404d1ef0514,2021-07-29_19h57.33.385,Simcolourproject_2stim_asymm_v5,2020.2.10,MacIntel,60,61025ae37ef11b136ea224fe,,,,,,,,,2383,60.44921875,32.40625,1,0,0,response1disk,,6,15.8125,12.13671875,1,0,0,rectangle,15.8125,12.13671875,1,0,0,15.8125,12.13671875,1,0,0,0,112,112,107,1,,,,,,,,
,,,,,,,,,,,,,FF,,,,,,,,1.2496,,,,,,,,,,,,,,,,,,,,,,6100f8806915845f7cfc1707,61036a8442df8404d1ef0514,2021-07-29_19h57.33.385,Simcolourproject_2stim_asymm_v5,2020.2.10,MacIntel,60,61025ae37ef11b136ea224fe,,,,,,,,,3899,-68.07421875,-19.328125,1,0,0,response5disk,,2,-17.47265625,1.421875,1,0,0,rectangle,-17.47265625,1.421875,1,0,0,-17.47265625,1.421875,1,0,0,0,113,113,0,1,,,,,,,,
,,,,,,,,,,,,,FF,,,,,,,,1.2,,,,,,,,,,,,,,,,,,,,,,6100f8806915845f7cfc1707,61036a8442df8404d1ef0514,2021-07-29_19h57.33.385,Simcolourproject_2stim_asymm_v5,2020.2.10,MacIntel,60,61025ae37ef11b136ea224fe,,,,,,,,,1224,-37.5625,-69.69140625,1,0,0,response5disk,,3,-20.39453125,-6.73828125,1,0,0,rectangle,-20.39453125,-6.73828125,1,0,0,-20.39453125,-6.73828125,1,0,0,0,114,114,97,1,,,,,,,,
,,,,,,,,,,,,,FF,,,,,,,,1.6677,,,,,,,,,,,,,,,,,,,,,,6100f8806915845f7cfc1707,61036a8442df8404d1ef0514,2021-07-29_19h57.33.385,Simcolourproject_2stim_asymm_v5,2020.2.10,MacIntel,60,61025ae37ef11b136ea224fe,,,,,,,,,3530,24.71484375,-55.69140625,1,0,0,response3disk,,4,19.0703125,-5.7890625,1,0,0,rectangle,19.0703125,-5.7890625,1,0,0,19.0703125,-5.7890625,1,0,0,0,115,115,56,1,,,,,,,,
,,,,,,,,,,,,,FF,,,,,,,,1.2665,,,,,,,,,,,,,,,,,,,,,,6100f8806915845f7cfc1707,61036a8442df8404d1ef0514,2021-07-29_19h57.33.385,Simcolourproject_2stim_asymm_v5,2020.2.10,MacIntel,60,61025ae37ef11b136ea224fe,,,,,,,,,1881,-80.49609375,-25.33203125,1,0,0,response5disk,,2,-17.09765625,-1.63671875,1,0,0,rectangle,-17.09765625,-1.63671875,1,0,0,-17.09765625,-1.63671875,1,0,0,0,116,116,53,1,,,,,,,,
,,,,,,,,,,,,,FF,,,,,,,,0.8333,,,,,,,,,,,,,,,,,,,,,,6100f8806915845f7cfc1707,61036a8442df8404d1ef0514,2021-07-29_19h57.33.385,Simcolourproject_2stim_asymm_v5,2020.2.10,MacIntel,60,61025ae37ef11b136ea224fe,,,,,,,,,1435,-30.8359375,-73.1328125,1,0,0,response5disk,,3,-7.81640625,-6.38671875,1,0,0,rectangle,-7.81640625,-6.38671875,1,0,0,-7.81640625,-6.38671875,1,0,0,0,117,117,7,1,,,,,,,,
,,,,,,,,,,,,,FF,,,,,,,,1.2504,,,,,,,,,,,,,,,,,,,,,,6100f8806915845f7cfc1707,61036a8442df8404d1ef0514,2021-07-29_19h57.33.385,Simcolourproject_2stim_asymm_v5,2020.2.10,MacIntel,60,61025ae37ef11b136ea224fe,,,,,,,,,12,-20.93359375,-65.8046875,1,0,0,response5disk,,3,0.9296875,-1.34375,1,0,0,rectangle,0.9296875,-1.34375,1,0,0,0.9296875,-1.34375,1,0,0,0,118,118,124,1,,,,,,,,
,,,,,,,,,,,,,FF,,,,,,,,1.3121,,,,,,,,,,,,,,,,,,,,,,6100f8806915845f7cfc1707,61036a8442df8404d1ef0514,2021-07-29_19h57.33.385,Simcolourproject_2stim_asymm_v5,2020.2.10,MacIntel,60,61025ae37ef11b136ea224fe,,,,,,,,,2460,96.94140625,52.328125,1,0,0,response1disk,,6,12.671875,-0.234375,1,0,0,rectangle,12.671875,-0.234375,1,0,0,12.671875,-0.234375,1,0,0,0,119,119,135,1,,,,,,,,
,,,,,,,,,,,,,FF,,,,,,,,0.6671,,,,,,,,,,,,,,,,,,,,,,6100f8806915845f7cfc1707,61036a8442df8404d1ef0514,2021-07-29_19h57.33.385,Simcolourproject_2stim_asymm_v5,2020.2.10,MacIntel,60,61025ae37ef11b136ea224fe,,,,,,,,,670,71.1953125,37.78125,1,0,0,response1disk,,6,15.49609375,9.50390625,1,0,0,rectangle,15.49609375,9.50390625,1,0,0,15.49609375,9.50390625,1,0,0,0,120,120,158,1,,,,,,,,
,,,,,,,,,,,,,FF,,,,,,,,0.6658,,,,,,,,,,,,,,,,,,,,,,6100f8806915845f7cfc1707,61036a8442df8404d1ef0514,2021-07-29_19h57.33.385,Simcolourproject_2stim_asymm_v5,2020.2.10,MacIntel,60,61025ae37ef11b136ea224fe,,,,,,,,,623,58.4609375,32.8828125,1,0,0,response1disk,,6,-5.05859375,-17.234375,1,0,0,rectangle,-5.05859375,-17.234375,1,0,0,-5.05859375,-17.234375,1,0,0,0,121,121,147,1,,,,,,,,
,,,,,,,,,,,,,FF,,,,,,,,0.551,,,,,,,,,,,,,,,,,,,,,,6100f8806915845f7cfc1707,61036a8442df8404d1ef0514,2021-07-29_19h57.33.385,Simcolourproject_2stim_asymm_v5,2020.2.10,MacIntel,60,61025ae37ef11b136ea224fe,,,,,,,,,2450,28.34375,51.37890625,1,0,0,response1disk,,7,9.1484375,-0.23828125,1,0,0,rectangle,9.1484375,-0.23828125,1,0,0,9.1484375,-0.23828125,1,0,0,0,122,122,5,1,,,,,,,,
,,,,,,,,,,,,,FF,,,,,,,,1.233,,,,,,,,,,,,,,,,,,,,,,6100f8806915845f7cfc1707,61036a8442df8404d1ef0514,2021-07-29_19h57.33.385,Simcolourproject_2stim_asymm_v5,2020.2.10,MacIntel,60,61025ae37ef11b136ea224fe,,,,,,,,,896,37.59375,-88.16796875,1,0,0,response3disk,,4,20.79296875,-14.8515625,1,0,0,rectangle,20.79296875,-14.8515625,1,0,0,20.79296875,-14.8515625,1,0,0,0,123,123,16,1,,,,,,,,
,,,,,,,,,,,,,FF,,,,,,,,1.5483,,,,,,,,,,,,,,,,,,,,,,6100f8806915845f7cfc1707,61036a8442df8404d1ef0514,2021-07-29_19h57.33.385,Simcolourproject_2stim_asymm_v5,2020.2.10,MacIntel,60,61025ae37ef11b136ea224fe,,,,,,,,,2878,21.29296875,-71.09765625,1,0,0,response3disk,,4,7.671875,-0.4609375,1,0,0,rectangle,7.671875,-0.4609375,1,0,0,7.671875,-0.4609375,1,0,0,0,124,124,152,1,,,,,,,,
,,,,,,,,,,,,,FF,,,,,,,,1.2664,,,,,,,,,,,,,,,,,,,,,,6100f8806915845f7cfc1707,61036a8442df8404d1ef0514,2021-07-29_19h57.33.385,Simcolourproject_2stim_asymm_v5,2020.2.10,MacIntel,60,61025ae37ef11b136ea224fe,,,,,,,,,906,82.2109375,48.6875,1,0,0,response1disk,,6,21.2265625,14.3828125,1,0,0,rectangle,21.2265625,14.3828125,1,0,0,21.2265625,14.3828125,1,0,0,0,125,125,68,1,,,,,,,,
,,,,,,,,,,,,,FF,,,,,,,,1.0168,,,,,,,,,,,,,,,,,,,,,,6100f8806915845f7cfc1707,61036a8442df8404d1ef0514,2021-07-29_19h57.33.385,Simcolourproject_2stim_asymm_v5,2020.2.10,MacIntel,60,61025ae37ef11b136ea224fe,,,,,,,,,3725,38.29296875,-69.69921875,1,0,0,response3disk,,4,20.1171875,-6.99609375,1,0,0,rectangle,20.1171875,-6.99609375,1,0,0,20.1171875,-6.99609375,1,0,0,0,126,126,134,1,,,,,,,,
,,,,,,,,,,,,,FF,,,,,,,,1.1008,,,,,,,,,,,,,,,,,,,,,,6100f8806915845f7cfc1707,61036a8442df8404d1ef0514,2021-07-29_19h57.33.385,Simcolourproject_2stim_asymm_v5,2020.2.10,MacIntel,60,61025ae37ef11b136ea224fe,,,,,,,,,2825,-81.3203125,-29.69921875,1,0,0,response5disk,,2,-17.12109375,5.66796875,1,0,0,rectangle,-17.12109375,5.66796875,1,0,0,-17.12109375,5.66796875,1,0,0,0,127,127,116,1,,,,,,,,
,,,,,,,,,,,,,FF,,,,,,,,0.5665,,,,,,,,,,,,,,,,,,,,,,6100f8806915845f7cfc1707,61036a8442df8404d1ef0514,2021-07-29_19h57.33.385,Simcolourproject_2stim_asymm_v5,2020.2.10,MacIntel,60,61025ae37ef11b136ea224fe,,,,,,,,,2898,-63.9140625,-28.59765625,1,0,0,response5disk,,2,-19.05078125,-16.8125,1,0,0,rectangle,-19.05078125,-16.8125,1,0,0,-19.05078125,-16.8125,1,0,0,0,128,128,61,1,,,,,,,,
,,,,,,,,,,,,,FF,,,,,,,,0.7501,,,,,,,,,,,,,,,,,,,,,,6100f8806915845f7cfc1707,61036a8442df8404d1ef0514,2021-07-29_19h57.33.385,Simcolourproject_2stim_asymm_v5,2020.2.10,MacIntel,60,61025ae37ef11b136ea224fe,,,,,,,,,3180,51.58984375,-68.69921875,1,0,0,response3disk,,4,29.87109375,-15.91796875,1,0,0,rectangle,29.87109375,-15.91796875,1,0,0,29.87109375,-15.91796875,1,0,0,0,129,129,6,1,,,,,,,,
,,,,,,,,,,,,,FF,,,,,,,,1.2168,,,,,,,,,,,,,,,,,,,,,,6100f8806915845f7cfc1707,61036a8442df8404d1ef0514,2021-07-29_19h57.33.385,Simcolourproject_2stim_asymm_v5,2020.2.10,MacIntel,60,61025ae37ef11b136ea224fe,,,,,,,,,502,62.453125,27.515625,1,0,0,response1disk,,6,9.2734375,-5.5234375,1,0,0,rectangle,9.2734375,-5.5234375,1,0,0,9.2734375,-5.5234375,1,0,0,0,130,130,105,1,,,,,,,,
,,,,,,,,,,,,,FF,,,,,,,,0.9831,,,,,,,,,,,,,,,,,,,,,,6100f8806915845f7cfc1707,61036a8442df8404d1ef0514,2021-07-29_19h57.33.385,Simcolourproject_2stim_asymm_v5,2020.2.10,MacIntel,60,61025ae37ef11b136ea224fe,,,,,,,,,498,27.90625,86.73046875,1,0,0,response1disk,,7,11.171875,3.81640625,1,0,0,rectangle,-29.33984375,-73.44921875,1,0,0,-17.4765625,-3.28515625,1,0,0,0,131,131,129,1,,response5disk_3,TRUE,3,3,"[17,132,136,20,171,301,81,84,86,184,186,107,193,158,225,315,109,132,142,45]",1.1503,rectangle
,,,,,,,,,,,,,FF,,,,,,,,1.0835,,,,,,,,,,,,,,,,,,,,,,6100f8806915845f7cfc1707,61036a8442df8404d1ef0514,2021-07-29_19h57.33.385,Simcolourproject_2stim_asymm_v5,2020.2.10,MacIntel,60,61025ae37ef11b136ea224fe,,,,,,,,,2897,-65.82421875,39.5546875,1,0,0,response7disk,,1,-15.6015625,14.171875,1,0,0,rectangle,-15.6015625,14.171875,1,0,0,-15.6015625,14.171875,1,0,0,0,132,132,98,1,,,,,,,,
,,,,,,,,,,,,,FF,,,,,,,,0.7685,,,,,,,,,,,,,,,,,,,,,,6100f8806915845f7cfc1707,61036a8442df8404d1ef0514,2021-07-29_19h57.33.385,Simcolourproject_2stim_asymm_v5,2020.2.10,MacIntel,60,61025ae37ef11b136ea224fe,,,,,,,,,4061,-70.9765625,-34.96484375,1,0,0,response5disk,,2,-11.609375,-8.48046875,1,0,0,rectangle,-11.609375,-8.48046875,1,0,0,-11.609375,-8.48046875,1,0,0,0,133,133,24,1,,,,,,,,
,,,,,,,,,,,,,FF,,,,,,,,0.7335,,,,,,,,,,,,,,,,,,,,,,6100f8806915845f7cfc1707,61036a8442df8404d1ef0514,2021-07-29_19h57.33.385,Simcolourproject_2stim_asymm_v5,2020.2.10,MacIntel,60,61025ae37ef11b136ea224fe,,,,,,,,,2330,97.89453125,52.0234375,1,0,0,response1disk,,6,9.1484375,-14.76953125,1,0,0,rectangle,9.1484375,-14.76953125,1,0,0,9.1484375,-14.76953125,1,0,0,0,134,134,15,1,,,,,,,,
,,,,,,,,,,,,,FF,,,,,,,,0.4995,,,,,,,,,,,,,,,,,,,,,,6100f8806915845f7cfc1707,61036a8442df8404d1ef0514,2021-07-29_19h57.33.385,Simcolourproject_2stim_asymm_v5,2020.2.10,MacIntel,60,61025ae37ef11b136ea224fe,,,,,,,,,4133,71.2734375,33.4375,1,0,0,response1disk,,6,11.97265625,-13.81640625,1,0,0,rectangle,-54.8671875,-76.48046875,1,0,0,-22.3203125,-16.50390625,1,0,0,0,135,135,34,1,,response5disk_3,TRUE,3,3,"[17,132,136,20,171,301,81,84,86,184,186,107,193,158,225,315,109,132,142,45]",1.0007,rectangle
,,,,,,,,,,,,,FF,,,,,,,,0.9998,,,,,,,,,,,,,,,,,,,,,,6100f8806915845f7cfc1707,61036a8442df8404d1ef0514,2021-07-29_19h57.33.385,Simcolourproject_2stim_asymm_v5,2020.2.10,MacIntel,60,61025ae37ef11b136ea224fe,,,,,,,,,3185,79.18359375,50.24609375,1,0,0,response1disk,,6,35.75390625,15.11328125,1,0,0,rectangle,35.75390625,15.11328125,1,0,0,35.75390625,15.11328125,1,0,0,0,136,136,149,1,,,,,,,,
,,,,,,,,,,,,,FF,,,,,,,,0.968,,,,,,,,,,,,,,,,,,,,,,6100f8806915845f7cfc1707,61036a8442df8404d1ef0514,2021-07-29_19h57.33.385,Simcolourproject_2stim_asymm_v5,2020.2.10,MacIntel,60,61025ae37ef11b136ea224fe,,,,,,,,,2676,-82.453125,-50.96484375,1,0,0,response5disk,,2,-9.92578125,-12.23046875,1,0,0,rectangle,-9.92578125,-12.23046875,1,0,0,-9.92578125,-12.23046875,1,0,0,0,137,137,26,1,,,,,,,,
,,,,,,,,,,,,,FF,,,,,,,,0.6337,,,,,,,,,,,,,,,,,,,,,,6100f8806915845f7cfc1707,61036a8442df8404d1ef0514,2021-07-29_19h57.33.385,Simcolourproject_2stim_asymm_v5,2020.2.10,MacIntel,60,61025ae37ef11b136ea224fe,,,,,,,,,2862,77.4921875,23.734375,1,0,0,response1disk,,6,16.51953125,10.7265625,1,0,0,rectangle,16.51953125,10.7265625,1,0,0,16.51953125,10.7265625,1,0,0,0,138,138,60,1,,,,,,,,
,,,,,,,,,,,,,FF,,,,,,,,0.4825,,,,,,,,,,,,,,,,,,,,,,6100f8806915845f7cfc1707,61036a8442df8404d1ef0514,2021-07-29_19h57.33.385,Simcolourproject_2stim_asymm_v5,2020.2.10,MacIntel,60,61025ae37ef11b136ea224fe,,,,,,,,,1789,53.046875,36.0625,1,0,0,response1disk,,6,17.40234375,15.19140625,1,0,0,rectangle,17.40234375,15.19140625,1,0,0,17.40234375,15.19140625,1,0,0,0,139,139,17,1,,,,,,,,
,,,,,,,,,,,,,FF,,,,,,,,0.5015,,,,,,,,,,,,,,,,,,,,,,6100f8806915845f7cfc1707,61036a8442df8404d1ef0514,2021-07-29_19h57.33.385,Simcolourproject_2stim_asymm_v5,2020.2.10,MacIntel,60,61025ae37ef11b136ea224fe,,,,,,,,,4274,73.14453125,54.41015625,1,0,0,response1disk,,6,-6.35546875,5.39453125,1,0,0,rectangle,-6.35546875,5.39453125,1,0,0,-6.35546875,5.39453125,1,0,0,0,140,140,36,1,,,,,,,,
,,,,,,,,,,,,,FF,,,,,,,,0.4317,,,,,,,,,,,,,,,,,,,,,,6100f8806915845f7cfc1707,61036a8442df8404d1ef0514,2021-07-29_19h57.33.385,Simcolourproject_2stim_asymm_v5,2020.2.10,MacIntel,60,61025ae37ef11b136ea224fe,,,,,,,,,2008,28.75390625,53.81640625,1,0,0,response1disk,,7,5.7109375,7.04296875,1,0,0,rectangle,91.36328125,-25.703125,1,0,0,18.078125,8.75390625,1,0,0,0,141,141,40,1,,response3disk_3,TRUE,5,5,"[17,132,136,20,171,301,81,84,86,184,186,107,193,158,225,315,109,132,142,45]",1.2666,rectangle
,,,,,,,,,,,,,FF,,,,,,,,0.9163,,,,,,,,,,,,,,,,,,,,,,6100f8806915845f7cfc1707,61036a8442df8404d1ef0514,2021-07-29_19h57.33.385,Simcolourproject_2stim_asymm_v5,2020.2.10,MacIntel,60,61025ae37ef11b136ea224fe,,,,,,,,,197,-62.89453125,-72.84765625,1,0,0,response5disk,,3,-23.87109375,-4.14453125,1,0,0,rectangle,-23.87109375,-4.14453125,1,0,0,-23.87109375,-4.14453125,1,0,0,0,142,142,122,1,,,,,,,,
,,,,,,,,,,,,,FF,,,,,,,,0.8342,,,,,,,,,,,,,,,,,,,,,,6100f8806915845f7cfc1707,61036a8442df8404d1ef0514,2021-07-29_19h57.33.385,Simcolourproject_2stim_asymm_v5,2020.2.10,MacIntel,60,61025ae37ef11b136ea224fe,,,,,,,,,3861,36.01953125,-69.96875,1,0,0,response3disk,,4,27.82421875,6.8125,1,0,0,rectangle,27.82421875,6.8125,1,0,0,27.82421875,6.8125,1,0,0,0,143,143,54,1,,,,,,,,
,,,,,,,,,,,,,FF,,,,,,,,0.8153,,,,,,,,,,,,,,,,,,,,,,6100f8806915845f7cfc1707,61036a8442df8404d1ef0514,2021-07-29_19h57.33.385,Simcolourproject_2stim_asymm_v5,2020.2.10,MacIntel,60,61025ae37ef11b136ea224fe,,,,,,,,,3410,25.83984375,-58.82421875,1,0,0,response3disk,,4,25.83984375,5.3828125,1,0,0,rectangle,25.83984375,5.3828125,1,0,0,25.83984375,5.3828125,1,0,0,0,144,144,120,1,,,,,,,,
,,,,,,,,,,,,,FF,,,,,,,,0.9988,,,,,,,,,,,,,,,,,,,,,,6100f8806915845f7cfc1707,61036a8442df8404d1ef0514,2021-07-29_19h57.33.385,Simcolourproject_2stim_asymm_v5,2020.2.10,MacIntel,60,61025ae37ef11b136ea224fe,,,,,,,,,2136,65.625,-40.0546875,1,0,0,response3disk,,5,18.2109375,-11.875,1,0,0,rectangle,18.2109375,-11.875,1,0,0,18.2109375,-11.875,1,0,0,0,145,145,112,1,,,,,,,,
,,,,,,,,,,,,,FF,,,,,,,,0.7339,,,,,,,,,,,,,,,,,,,,,,6100f8806915845f7cfc1707,61036a8442df8404d1ef0514,2021-07-29_19h57.33.385,Simcolourproject_2stim_asymm_v5,2020.2.10,MacIntel,60,61025ae37ef11b136ea224fe,,,,,,,,,2028,-51.7734375,-81.25390625,1,0,0,response5disk,,3,-22.109375,-15.47265625,1,0,0,rectangle,-22.109375,-15.47265625,1,0,0,-22.109375,-15.47265625,1,0,0,0,146,146,1,1,,,,,,,,
,,,,,,,,,,,,,FF,,,,,,,,0.7487,,,,,,,,,,,,,,,,,,,,,,6100f8806915845f7cfc1707,61036a8442df8404d1ef0514,2021-07-29_19h57.33.385,Simcolourproject_2stim_asymm_v5,2020.2.10,MacIntel,60,61025ae37ef11b136ea224fe,,,,,,,,,3192,-71.62890625,-34.66796875,1,0,0,response5disk,,2,-2.13671875,0.5,1,0,0,rectangle,-2.13671875,0.5,1,0,0,-2.13671875,0.5,1,0,0,0,147,147,154,1,,,,,,,,
,,,,,,,,,,,,,FF,,,,,,,,0.6495,,,,,,,,,,,,,,,,,,,,,,6100f8806915845f7cfc1707,61036a8442df8404d1ef0514,2021-07-29_19h57.33.385,Simcolourproject_2stim_asymm_v5,2020.2.10,MacIntel,60,61025ae37ef11b136ea224fe,,,,,,,,,2979,91.234375,40.0078125,1,0,0,response1disk,,6,11.3671875,-5.1875,1,0,0,rectangle,11.3671875,-5.1875,1,0,0,11.3671875,-5.1875,1,0,0,0,148,148,88,1,,,,,,,,
,,,,,,,,,,,,,FF,,,,,,,,0.4836,,,,,,,,,,,,,,,,,,,,,,6100f8806915845f7cfc1707,61036a8442df8404d1ef0514,2021-07-29_19h57.33.385,Simcolourproject_2stim_asymm_v5,2020.2.10,MacIntel,60,61025ae37ef11b136ea224fe,,,,,,,,,3833,78.19921875,49.015625,1,0,0,response1disk,,6,15.671875,0.27734375,1,0,0,rectangle,15.671875,0.27734375,1,0,0,15.671875,0.27734375,1,0,0,0,149,149,47,1,,,,,,,,
,,,,,,,,,,,,,FF,,,,,,,,0.7152,,,,,,,,,,,,,,,,,,,,,,6100f8806915845f7cfc1707,61036a8442df8404d1ef0514,2021-07-29_19h57.33.385,Simcolourproject_2stim_asymm_v5,2020.2.10,MacIntel,60,61025ae37ef11b136ea224fe,,,,,,,,,2129,61.94921875,30.21484375,1,0,0,response1disk,,6,-1.6328125,-9.51171875,1,0,0,rectangle,-1.6328125,-9.51171875,1,0,0,-1.6328125,-9.51171875,1,0,0,0,150,150,37,1,,,,,,,,
,,,,,,,,,,,,,FF,,,,,,,,1.0153,,,,,,,,,,,,,,,,,,,,,,6100f8806915845f7cfc1707,61036a8442df8404d1ef0514,2021-07-29_19h57.33.385,Simcolourproject_2stim_asymm_v5,2020.2.10,MacIntel,60,61025ae37ef11b136ea224fe,,,,,,,,,2279,81.86328125,49.90625,1,0,0,response1disk,,6,26.90625,14.8515625,1,0,0,rectangle,26.90625,14.8515625,1,0,0,26.90625,14.8515625,1,0,0,0,151,151,49,1,,,,,,,,
,,,,,,,,,,,,,FF,,,,,,,,0.8665,,,,,,,,,,,,,,,,,,,,,,6100f8806915845f7cfc1707,61036a8442df8404d1ef0514,2021-07-29_19h57.33.385,Simcolourproject_2stim_asymm_v5,2020.2.10,MacIntel,60,61025ae37ef11b136ea224fe,,,,,,,,,4060,-38.69140625,-79.5859375,1,0,0,response5disk,,3,-20.9296875,6.1953125,1,0,0,rectangle,-20.9296875,6.1953125,1,0,0,-20.9296875,6.1953125,1,0,0,0,152,152,12,1,,,,,,,,
,,,,,,,,,,,,,FF,,,,,,,,1.032,,,,,,,,,,,,,,,,,,,,,,6100f8806915845f7cfc1707,61036a8442df8404d1ef0514,2021-07-29_19h57.33.385,Simcolourproject_2stim_asymm_v5,2020.2.10,MacIntel,60,61025ae37ef11b136ea224fe,,,,,,,,,2705,34.59375,75.6484375,1,0,0,response1disk,,7,10.8984375,13.66796875,1,0,0,rectangle,10.8984375,13.66796875,1,0,0,10.8984375,13.66796875,1,0,0,0,153,153,38,1,,,,,,,,
,,,,,,,,,,,,,FF,,,,,,,,0.8988,,,,,,,,,,,,,,,,,,,,,,6100f8806915845f7cfc1707,61036a8442df8404d1ef0514,2021-07-29_19h57.33.385,Simcolourproject_2stim_asymm_v5,2020.2.10,MacIntel,60,61025ae37ef11b136ea224fe,,,,,,,,,2988,-85.7890625,-42.6015625,1,0,0,response5disk,,2,-4.70703125,1.76953125,1,0,0,rectangle,-4.70703125,1.76953125,1,0,0,-4.70703125,1.76953125,1,0,0,0,154,154,142,1,,,,,,,,
,,,,,,,,,,,,,FF,,,,,,,,0.9162,,,,,,,,,,,,,,,,,,,,,,6100f8806915845f7cfc1707,61036a8442df8404d1ef0514,2021-07-29_19h57.33.385,Simcolourproject_2stim_asymm_v5,2020.2.10,MacIntel,60,61025ae37ef11b136ea224fe,,,,,,,,,4159,32.26953125,-62.7421875,1,0,0,response3disk,,4,19.49609375,-0.9140625,1,0,0,rectangle,19.49609375,-0.9140625,1,0,0,19.49609375,-0.9140625,1,0,0,0,155,155,87,1,,,,,,,,
,,,,,,,,,,,,,FF,,,,,,,,1.3339,,,,,,,,,,,,,,,,,,,,,,6100f8806915845f7cfc1707,61036a8442df8404d1ef0514,2021-07-29_19h57.33.385,Simcolourproject_2stim_asymm_v5,2020.2.10,MacIntel,60,61025ae37ef11b136ea224fe,,,,,,,,,791,-33.91015625,-67.87890625,1,0,0,response5disk,,3,-4.33203125,-13.12109375,1,0,0,rectangle,-4.33203125,-13.12109375,1,0,0,-4.33203125,-13.12109375,1,0,0,0,156,156,83,1,,,,,,,,
,,,,,,,,,,,,,FF,,,,,,,,2.3345,,,,,,,,,,,,,,,,,,,,,,6100f8806915845f7cfc1707,61036a8442df8404d1ef0514,2021-07-29_19h57.33.385,Simcolourproject_2stim_asymm_v5,2020.2.10,MacIntel,60,61025ae37ef11b136ea224fe,,,,,,,,,2113,81.765625,-33.69921875,1,0,0,response3disk,,5,21.50390625,-10.4140625,1,0,0,rectangle,-64.84375,-45.05859375,1,0,0,9.50390625,-14.0078125,1,0,0,0,157,157,104,1,,response5disk_3,TRUE,2,2,"[17,132,136,20,171,301,81,84,86,184,186,107,193,158,225,315,109,132,142,45]",1.0143,rectangle
,,,,,,,,,,,,,FF,,,,,,,,1.2679,,,,,,,,,,,,,,,,,,,,,,6100f8806915845f7cfc1707,61036a8442df8404d1ef0514,2021-07-29_19h57.33.385,Simcolourproject_2stim_asymm_v5,2020.2.10,MacIntel,60,61025ae37ef11b136ea224fe,,,,,,,,,1069,60.515625,-29.51953125,1,0,0,response3disk,,5,-7.328125,-8.7421875,1,0,0,rectangle,-7.328125,-8.7421875,1,0,0,-7.328125,-8.7421875,1,0,0,0,158,158,143,1,,,,,,,,
,,,,,,,,,,,,,FF,,,,,,,,0.6165,,,,,,,,,,,,,,,,,,,,,,6100f8806915845f7cfc1707,61036a8442df8404d1ef0514,2021-07-29_19h57.33.385,Simcolourproject_2stim_asymm_v5,2020.2.10,MacIntel,60,61025ae37ef11b136ea224fe,,,,,,,,,2754,-53.609375,-82.94140625,1,0,0,response5disk,,3,-18.07421875,-12.94921875,1,0,0,rectangle,-18.07421875,-12.94921875,1,0,0,-18.07421875,-12.94921875,1,0,0,0,159,159,41,1,,,,,,,,
,,,,,,,,,,,,,FF,,,,,,,,0.9176,,,,,,,,,,,,,,,,,,,,,,6100f8806915845f7cfc1707,61036a8442df8404d1ef0514,2021-07-29_19h57.33.385,Simcolourproject_2stim_asymm_v5,2020.2.10,MacIntel,60,61025ae37ef11b136ea224fe,,,,,,,,,558,43.8671875,-77.6796875,1,0,0,response3disk,,4,19.6953125,4.07421875,1,0,0,rectangle,19.6953125,4.07421875,1,0,0,19.6953125,4.07421875,1,0,0,1,0,160,11,1,,,,,,,,
,,,,,,,,,,,,,FF,,,,,,,,0.6332,,,,,,,,,,,,,,,,,,,,,,6100f8806915845f7cfc1707,61036a8442df8404d1ef0514,2021-07-29_19h57.33.385,Simcolourproject_2stim_asymm_v5,2020.2.10,MacIntel,60,61025ae37ef11b136ea224fe,,,,,,,,,4233,59.79296875,36.34765625,1,0,0,response1disk,,6,7.31640625,8.359375,1,0,0,rectangle,7.31640625,8.359375,1,0,0,7.31640625,8.359375,1,0,0,1,1,161,31,1,,,,,,,,
,,,,,,,,,,,,,FF,,,,,,,,0.9504,,,,,,,,,,,,,,,,,,,,,,6100f8806915845f7cfc1707,61036a8442df8404d1ef0514,2021-07-29_19h57.33.385,Simcolourproject_2stim_asymm_v5,2020.2.10,MacIntel,60,61025ae37ef11b136ea224fe,,,,,,,,,401,57.4609375,45.86328125,1,0,0,response1disk,,6,10.76171875,5.30078125,1,0,0,rectangle,10.76171875,5.30078125,1,0,0,10.76171875,5.30078125,1,0,0,1,2,162,114,1,,,,,,,,
,,,,,,,,,,,,,FF,,,,,,,,0.9835,,,,,,,,,,,,,,,,,,,,,,6100f8806915845f7cfc1707,61036a8442df8404d1ef0514,2021-07-29_19h57.33.385,Simcolourproject_2stim_asymm_v5,2020.2.10,MacIntel,60,61025ae37ef11b136ea224fe,,,,,,,,,1776,81.72265625,-52.9140625,1,0,0,response3disk,,5,28.68359375,-9.51171875,1,0,0,rectangle,28.68359375,-9.51171875,1,0,0,28.68359375,-9.51171875,1,0,0,1,3,163,7,1,,,,,,,,
,,,,,,,,,,,,,FF,,,,,,,,0.9821,,,,,,,,,,,,,,,,,,,,,,6100f8806915845f7cfc1707,61036a8442df8404d1ef0514,2021-07-29_19h57.33.385,Simcolourproject_2stim_asymm_v5,2020.2.10,MacIntel,60,61025ae37ef11b136ea224fe,,,,,,,,,3057,-74.7578125,42.9453125,1,0,0,response7disk,,1,-4.2421875,17.59375,1,0,0,rectangle,-4.2421875,17.59375,1,0,0,-4.2421875,17.59375,1,0,0,1,4,164,2,1,,,,,,,,
,,,,,,,,,,,,,FF,,,,,,,,1.0177,,,,,,,,,,,,,,,,,,,,,,6100f8806915845f7cfc1707,61036a8442df8404d1ef0514,2021-07-29_19h57.33.385,Simcolourproject_2stim_asymm_v5,2020.2.10,MacIntel,60,61025ae37ef11b136ea224fe,,,,,,,,,4187,-68.51171875,42.70703125,1,0,0,response7disk,,1,-6.1953125,16.89453125,1,0,0,rectangle,-6.1953125,16.89453125,1,0,0,-6.1953125,16.89453125,1,0,0,1,5,165,120,1,,,,,,,,
,,,,,,,,,,,,,FF,,,,,,,,0.8993,,,,,,,,,,,,,,,,,,,,,,6100f8806915845f7cfc1707,61036a8442df8404d1ef0514,2021-07-29_19h57.33.385,Simcolourproject_2stim_asymm_v5,2020.2.10,MacIntel,60,61025ae37ef11b136ea224fe,,,,,,,,,522,-84.87890625,-34.02734375,1,0,0,response5disk,,2,-12.7890625,-14.22265625,1,0,0,rectangle,-12.7890625,-14.22265625,1,0,0,-12.7890625,-14.22265625,1,0,0,1,6,166,141,1,,,,,,,,
,,,,,,,,,,,,,FF,,,,,,,,1.2825,,,,,,,,,,,,,,,,,,,,,,6100f8806915845f7cfc1707,61036a8442df8404d1ef0514,2021-07-29_19h57.33.385,Simcolourproject_2stim_asymm_v5,2020.2.10,MacIntel,60,61025ae37ef11b136ea224fe,,,,,,,,,1058,-32.39453125,-63.8828125,1,0,0,response5disk,,3,-8.0078125,-17.62109375,1,0,0,rectangle,-8.0078125,-17.62109375,1,0,0,-8.0078125,-17.62109375,1,0,0,1,7,167,60,1,,,,,,,,
,,,,,,,,,,,,,FF,,,,,,,,1.066,,,,,,,,,,,,,,,,,,,,,,6100f8806915845f7cfc1707,61036a8442df8404d1ef0514,2021-07-29_19h57.33.385,Simcolourproject_2stim_asymm_v5,2020.2.10,MacIntel,60,61025ae37ef11b136ea224fe,,,,,,,,,1694,31.375,-85.09375,1,0,0,response3disk,,4,18.46484375,-12.66015625,1,0,0,rectangle,18.46484375,-12.66015625,1,0,0,18.46484375,-12.66015625,1,0,0,1,8,168,156,1,,,,,,,,
,,,,,,,,,,,,,FF,,,,,,,,0.7676,,,,,,,,,,,,,,,,,,,,,,6100f8806915845f7cfc1707,61036a8442df8404d1ef0514,2021-07-29_19h57.33.385,Simcolourproject_2stim_asymm_v5,2020.2.10,MacIntel,60,61025ae37ef11b136ea224fe,,,,,,,,,3495,-81.92578125,-36.38671875,1,0,0,response5disk,,2,-5.859375,-9.5,1,0,0,rectangle,-5.859375,-9.5,1,0,0,-5.859375,-9.5,1,0,0,1,9,169,144,1,,,,,,,,
,,,,,,,,,,,,,FF,,,,,,,,0.9827,,,,,,,,,,,,,,,,,,,,,,6100f8806915845f7cfc1707,61036a8442df8404d1ef0514,2021-07-29_19h57.33.385,Simcolourproject_2stim_asymm_v5,2020.2.10,MacIntel,60,61025ae37ef11b136ea224fe,,,,,,,,,119,28.07421875,47.9140625,1,0,0,response1disk,,7,-1.078125,-4.23828125,1,0,0,rectangle,-85.828125,-59.09765625,1,0,0,-25.4453125,-17.15625,1,0,0,1,10,170,101,1,,response5disk_3,TRUE,2,2,"[17,132,136,20,171,301,81,84,86,184,186,107,193,158,225,315,109,132,142,45]",0.865,rectangle
,,,,,,,,,,,,,FF,,,,,,,,1.9995,,,,,,,,,,,,,,,,,,,,,,6100f8806915845f7cfc1707,61036a8442df8404d1ef0514,2021-07-29_19h57.33.385,Simcolourproject_2stim_asymm_v5,2020.2.10,MacIntel,60,61025ae37ef11b136ea224fe,,,,,,,,,3608,91.703125,-23.53125,1,0,0,response3disk,,5,25.55078125,5.7265625,1,0,0,rectangle,25.55078125,5.7265625,1,0,0,25.55078125,5.7265625,1,0,0,1,11,171,122,1,,,,,,,,
,,,,,,,,,,,,,FF,,,,,,,,0.9334,,,,,,,,,,,,,,,,,,,,,,6100f8806915845f7cfc1707,61036a8442df8404d1ef0514,2021-07-29_19h57.33.385,Simcolourproject_2stim_asymm_v5,2020.2.10,MacIntel,60,61025ae37ef11b136ea224fe,,,,,,,,,3454,-64.06640625,-38.265625,1,0,0,response5disk,,2,16.41015625,4.35546875,1,0,0,rectangle,16.41015625,4.35546875,1,0,0,16.41015625,4.35546875,1,0,0,1,12,172,91,1,,,,,,,,
,,,,,,,,,,,,,FF,,,,,,,,1.067,,,,,,,,,,,,,,,,,,,,,,6100f8806915845f7cfc1707,61036a8442df8404d1ef0514,2021-07-29_19h57.33.385,Simcolourproject_2stim_asymm_v5,2020.2.10,MacIntel,60,61025ae37ef11b136ea224fe,,,,,,,,,1088,26.109375,-78.43359375,1,0,0,response3disk,,4,8.49609375,-10.91796875,1,0,0,rectangle,8.49609375,-10.91796875,1,0,0,8.49609375,-10.91796875,1,0,0,1,13,173,124,1,,,,,,,,
,,,,,,,,,,,,,FF,,,,,,,,0.7666,,,,,,,,,,,,,,,,,,,,,,6100f8806915845f7cfc1707,61036a8442df8404d1ef0514,2021-07-29_19h57.33.385,Simcolourproject_2stim_asymm_v5,2020.2.10,MacIntel,60,61025ae37ef11b136ea224fe,,,,,,,,,1126,83.01171875,-43.12109375,1,0,0,response3disk,,5,25.1484375,-1.83203125,1,0,0,rectangle,25.1484375,-1.83203125,1,0,0,25.1484375,-1.83203125,1,0,0,1,14,174,39,1,,,,,,,,
,,,,,,,,,,,,,FF,,,,,,,,0.5322,,,,,,,,,,,,,,,,,,,,,,6100f8806915845f7cfc1707,61036a8442df8404d1ef0514,2021-07-29_19h57.33.385,Simcolourproject_2stim_asymm_v5,2020.2.10,MacIntel,60,61025ae37ef11b136ea224fe,,,,,,,,,3025,35.55859375,45.89453125,1,0,0,response1disk,,7,2.82421875,-6.71484375,1,0,0,rectangle,2.82421875,-6.71484375,1,0,0,2.82421875,-6.71484375,1,0,0,1,15,175,158,1,,,,,,,,
,,,,,,,,,,,,,FF,,,,,,,,1.1344,,,,,,,,,,,,,,,,,,,,,,6100f8806915845f7cfc1707,61036a8442df8404d1ef0514,2021-07-29_19h57.33.385,Simcolourproject_2stim_asymm_v5,2020.2.10,MacIntel,60,61025ae37ef11b136ea224fe,,,,,,,,,1202,-41.53515625,-94.609375,1,0,0,response5disk,,3,-10.83203125,-6.5859375,1,0,0,rectangle,-10.83203125,-6.5859375,1,0,0,-10.83203125,-6.5859375,1,0,0,1,16,176,0,1,,,,,,,,
,,,,,,,,,,,,,FF,,,,,,,,0.7508,,,,,,,,,,,,,,,,,,,,,,6100f8806915845f7cfc1707,61036a8442df8404d1ef0514,2021-07-29_19h57.33.385,Simcolourproject_2stim_asymm_v5,2020.2.10,MacIntel,60,61025ae37ef11b136ea224fe,,,,,,,,,794,70.23828125,-39.87109375,1,0,0,response3disk,,5,30.25,-12.9375,1,0,0,rectangle,30.25,-12.9375,1,0,0,30.25,-12.9375,1,0,0,1,17,177,32,1,,,,,,,,
,,,,,,,,,,,,,FF,,,,,,,,0.5322,,,,,,,,,,,,,,,,,,,,,,6100f8806915845f7cfc1707,61036a8442df8404d1ef0514,2021-07-29_19h57.33.385,Simcolourproject_2stim_asymm_v5,2020.2.10,MacIntel,60,61025ae37ef11b136ea224fe,,,,,,,,,2461,54.9375,-36.15234375,1,0,0,response3disk,,5,0.96875,-4.83203125,1,0,0,rectangle,0.96875,-4.83203125,1,0,0,0.96875,-4.83203125,1,0,0,1,18,178,58,1,,,,,,,,
,,,,,,,,,,,,,FF,,,,,,,,1.7999,,,,,,,,,,,,,,,,,,,,,,6100f8806915845f7cfc1707,61036a8442df8404d1ef0514,2021-07-29_19h57.33.385,Simcolourproject_2stim_asymm_v5,2020.2.10,MacIntel,60,61025ae37ef11b136ea224fe,,,,,,,,,2382,88.76171875,47.42578125,1,0,0,response1disk,,6,-8.95703125,-10.3203125,1,0,0,rectangle,-8.95703125,-10.3203125,1,0,0,-8.95703125,-10.3203125,1,0,0,1,19,179,118,1,,,,,,,,
,,,,,,,,,,,,,FF,,,,,,,,0.9504,,,,,,,,,,,,,,,,,,,,,,6100f8806915845f7cfc1707,61036a8442df8404d1ef0514,2021-07-29_19h57.33.385,Simcolourproject_2stim_asymm_v5,2020.2.10,MacIntel,60,61025ae37ef11b136ea224fe,,,,,,,,,1801,44.3828125,-84.28515625,1,0,0,response3disk,,4,13.375,-3.46484375,1,0,0,rectangle,13.375,-3.46484375,1,0,0,13.375,-3.46484375,1,0,0,1,20,180,152,1,,,,,,,,
,,,,,,,,,,,,,FF,,,,,,,,0.8675,,,,,,,,,,,,,,,,,,,,,,6100f8806915845f7cfc1707,61036a8442df8404d1ef0514,2021-07-29_19h57.33.385,Simcolourproject_2stim_asymm_v5,2020.2.10,MacIntel,60,61025ae37ef11b136ea224fe,,,,,,,,,1986,-52.65625,-85.69921875,1,0,0,response5disk,,3,-21.7421875,13.06640625,1,0,0,rectangle,-21.7421875,13.06640625,1,0,0,-21.7421875,13.06640625,1,0,0,1,21,181,97,1,,,,,,,,
,,,,,,,,,,,,,FF,,,,,,,,1.5332,,,,,,,,,,,,,,,,,,,,,,6100f8806915845f7cfc1707,61036a8442df8404d1ef0514,2021-07-29_19h57.33.385,Simcolourproject_2stim_asymm_v5,2020.2.10,MacIntel,60,61025ae37ef11b136ea224fe,,,,,,,,,1410,55.53125,-25.30859375,1,0,0,response3disk,,5,8.5390625,7.76953125,1,0,0,rectangle,8.5390625,7.76953125,1,0,0,8.5390625,7.76953125,1,0,0,1,22,182,59,1,,,,,,,,
,,,,,,,,,,,,,FF,,,,,,,,1.2498,,,,,,,,,,,,,,,,,,,,,,6100f8806915845f7cfc1707,61036a8442df8404d1ef0514,2021-07-29_19h57.33.385,Simcolourproject_2stim_asymm_v5,2020.2.10,MacIntel,60,61025ae37ef11b136ea224fe,,,,,,,,,3107,-64.41796875,46.98828125,1,0,0,response7disk,,1,-14.92578125,-3.83984375,1,0,0,rectangle,92.09375,-44.34765625,1,0,0,28.86328125,-1.0546875,1,0,0,1,23,183,43,1,,response3disk_3,TRUE,5,5,"[17,132,136,20,171,301,81,84,86,184,186,107,193,158,225,315,109,132,142,45]",1.35,rectangle
,,,,,,,,,,,,,FF,,,,,,,,0.8657,,,,,,,,,,,,,,,,,,,,,,6100f8806915845f7cfc1707,61036a8442df8404d1ef0514,2021-07-29_19h57.33.385,Simcolourproject_2stim_asymm_v5,2020.2.10,MacIntel,60,61025ae37ef11b136ea224fe,,,,,,,,,699,-24.7734375,-71.7578125,1,0,0,response5disk,,3,1.3828125,-0.58984375,1,0,0,rectangle,1.3828125,-0.58984375,1,0,0,1.3828125,-0.58984375,1,0,0,1,24,184,126,1,,,,,,,,
,,,,,,,,,,,,,FF,,,,,,,,0.7163,,,,,,,,,,,,,,,,,,,,,,6100f8806915845f7cfc1707,61036a8442df8404d1ef0514,2021-07-29_19h57.33.385,Simcolourproject_2stim_asymm_v5,2020.2.10,MacIntel,60,61025ae37ef11b136ea224fe,,,,,,,,,3627,-59.37109375,-44.69140625,1,0,0,response5disk,,2,-7.484375,-2.47265625,1,0,0,rectangle,-16.51953125,-65.32421875,1,0,0,6.45703125,-1.21875,1,0,0,1,25,185,44,1,,response5disk_3,TRUE,3,3,"[17,132,136,20,171,301,81,84,86,184,186,107,193,158,225,315,109,132,142,45]",0.8995,rectangle
,,,,,,,,,,,,,FF,,,,,,,,0.9997,,,,,,,,,,,,,,,,,,,,,,6100f8806915845f7cfc1707,61036a8442df8404d1ef0514,2021-07-29_19h57.33.385,Simcolourproject_2stim_asymm_v5,2020.2.10,MacIntel,60,61025ae37ef11b136ea224fe,,,,,,,,,473,99.86328125,78.1328125,1,0,0,response1disk,,6,16.2421875,-7.359375,1,0,0,rectangle,16.2421875,-7.359375,1,0,0,16.2421875,-7.359375,1,0,0,1,26,186,34,1,,,,,,,,
,,,,,,,,,,,,,FF,,,,,,,,0.7328,,,,,,,,,,,,,,,,,,,,,,6100f8806915845f7cfc1707,61036a8442df8404d1ef0514,2021-07-29_19h57.33.385,Simcolourproject_2stim_asymm_v5,2020.2.10,MacIntel,60,61025ae37ef11b136ea224fe,,,,,,,,,4088,50.51953125,-37.6484375,1,0,0,response3disk,,5,-6.44921875,-3.01171875,1,0,0,rectangle,-6.44921875,-3.01171875,1,0,0,-6.44921875,-3.01171875,1,0,0,1,27,187,71,1,,,,,,,,
,,,,,,,,,,,,,FF,,,,,,,,0.9176,,,,,,,,,,,,,,,,,,,,,,6100f8806915845f7cfc1707,61036a8442df8404d1ef0514,2021-07-29_19h57.33.385,Simcolourproject_2stim_asymm_v5,2020.2.10,MacIntel,60,61025ae37ef11b136ea224fe,,,,,,,,,2783,-63.8828125,44.4453125,1,0,0,response7disk,,1,-14.203125,7.6953125,1,0,0,rectangle,-14.203125,7.6953125,1,0,0,-14.203125,7.6953125,1,0,0,1,28,188,129,1,,,,,,,,
,,,,,,,,,,,,,FF,,,,,,,,0.8166,,,,,,,,,,,,,,,,,,,,,,6100f8806915845f7cfc1707,61036a8442df8404d1ef0514,2021-07-29_19h57.33.385,Simcolourproject_2stim_asymm_v5,2020.2.10,MacIntel,60,61025ae37ef11b136ea224fe,,,,,,,,,4040,-28.41015625,-93.0390625,1,0,0,response5disk,,3,-3.87890625,11.66796875,1,0,0,rectangle,-3.87890625,11.66796875,1,0,0,-3.87890625,11.66796875,1,0,0,1,29,189,9,1,,,,,,,,
,,,,,,,,,,,,,FF,,,,,,,,0.9321,,,,,,,,,,,,,,,,,,,,,,6100f8806915845f7cfc1707,61036a8442df8404d1ef0514,2021-07-29_19h57.33.385,Simcolourproject_2stim_asymm_v5,2020.2.10,MacIntel,60,61025ae37ef11b136ea224fe,,,,,,,,,2036,-89.12109375,26.4609375,1,0,0,response7disk,,1,-21.53515625,-16.0390625,1,0,0,rectangle,-21.53515625,-16.0390625,1,0,0,-21.53515625,-16.0390625,1,0,0,1,30,190,137,1,,,,,,,,
,,,,,,,,,,,,,FF,,,,,,,,0.6326,,,,,,,,,,,,,,,,,,,,,,6100f8806915845f7cfc1707,61036a8442df8404d1ef0514,2021-07-29_19h57.33.385,Simcolourproject_2stim_asymm_v5,2020.2.10,MacIntel,60,61025ae37ef11b136ea224fe,,,,,,,,,2464,57.51171875,27.6015625,1,0,0,response1disk,,6,16.19140625,-3.48046875,1,0,0,rectangle,16.19140625,-3.48046875,1,0,0,16.19140625,-3.48046875,1,0,0,1,31,191,150,1,,,,,,,,
,,,,,,,,,,,,,FF,,,,,,,,0.75,,,,,,,,,,,,,,,,,,,,,,6100f8806915845f7cfc1707,61036a8442df8404d1ef0514,2021-07-29_19h57.33.385,Simcolourproject_2stim_asymm_v5,2020.2.10,MacIntel,60,61025ae37ef11b136ea224fe,,,,,,,,,2894,-60.98828125,37.203125,1,0,0,response7disk,,1,-28.2421875,7.28125,1,0,0,rectangle,66.66015625,-38.3359375,1,0,0,16.08984375,-15.921875,1,0,0,1,32,192,94,1,,response3disk_3,TRUE,5,5,"[17,132,136,20,171,301,81,84,86,184,186,107,193,158,225,315,109,132,142,45]",1.0663,rectangle
,,,,,,,,,,,,,FF,,,,,,,,1.5004,,,,,,,,,,,,,,,,,,,,,,6100f8806915845f7cfc1707,61036a8442df8404d1ef0514,2021-07-29_19h57.33.385,Simcolourproject_2stim_asymm_v5,2020.2.10,MacIntel,60,61025ae37ef11b136ea224fe,,,,,,,,,2456,58.15234375,70.24609375,1,0,0,response1disk,,7,0.953125,-15.09375,1,0,0,rectangle,0.953125,-15.09375,1,0,0,0.953125,-15.09375,1,0,0,1,33,193,115,1,,,,,,,,
,,,,,,,,,,,,,FF,,,,,,,,1.3664,,,,,,,,,,,,,,,,,,,,,,6100f8806915845f7cfc1707,61036a8442df8404d1ef0514,2021-07-29_19h57.33.385,Simcolourproject_2stim_asymm_v5,2020.2.10,MacIntel,60,61025ae37ef11b136ea224fe,,,,,,,,,2261,79.8203125,33.84765625,1,0,0,response1disk,,6,23.9375,1.96484375,1,0,0,rectangle,23.9375,1.96484375,1,0,0,23.9375,1.96484375,1,0,0,1,34,194,140,1,,,,,,,,
,,,,,,,,,,,,,FF,,,,,,,,1.0505,,,,,,,,,,,,,,,,,,,,,,6100f8806915845f7cfc1707,61036a8442df8404d1ef0514,2021-07-29_19h57.33.385,Simcolourproject_2stim_asymm_v5,2020.2.10,MacIntel,60,61025ae37ef11b136ea224fe,,,,,,,,,4134,18.4140625,62.29296875,1,0,0,response1disk,,7,1.15625,-7.67578125,1,0,0,rectangle,1.15625,-7.67578125,1,0,0,1.15625,-7.67578125,1,0,0,1,35,195,148,1,,,,,,,,
,,,,,,,,,,,,,FF,,,,,,,,0.884,,,,,,,,,,,,,,,,,,,,,,6100f8806915845f7cfc1707,61036a8442df8404d1ef0514,2021-07-29_19h57.33.385,Simcolourproject_2stim_asymm_v5,2020.2.10,MacIntel,60,61025ae37ef11b136ea224fe,,,,,,,,,4319,36.0703125,-72.7109375,1,0,0,response3disk,,4,7.796875,-13.0390625,1,0,0,rectangle,7.796875,-13.0390625,1,0,0,7.796875,-13.0390625,1,0,0,1,36,196,88,1,,,,,,,,
,,,,,,,,,,,,,FF,,,,,,,,1.2001,,,,,,,,,,,,,,,,,,,,,,6100f8806915845f7cfc1707,61036a8442df8404d1ef0514,2021-07-29_19h57.33.385,Simcolourproject_2stim_asymm_v5,2020.2.10,MacIntel,60,61025ae37ef11b136ea224fe,,,,,,,,,4021,-31.5390625,66.66796875,1,0,0,response7disk,,0,-17.62109375,14.8359375,1,0,0,rectangle,-17.62109375,14.8359375,1,0,0,-17.62109375,14.8359375,1,0,0,1,37,197,23,1,,,,,,,,
,,,,,,,,,,,,,FF,,,,,,,,0.7995,,,,,,,,,,,,,,,,,,,,,,6100f8806915845f7cfc1707,61036a8442df8404d1ef0514,2021-07-29_19h57.33.385,Simcolourproject_2stim_asymm_v5,2020.2.10,MacIntel,60,61025ae37ef11b136ea224fe,,,,,,,,,1860,44.33984375,74.078125,1,0,0,response1disk,,7,16.8984375,9.1796875,1,0,0,rectangle,16.8984375,9.1796875,1,0,0,16.8984375,9.1796875,1,0,0,1,38,198,75,1,,,,,,,,
,,,,,,,,,,,,,FF,,,,,,,,3.9823,,,,,,,,,,,,,,,,,,,,,,6100f8806915845f7cfc1707,61036a8442df8404d1ef0514,2021-07-29_19h57.33.385,Simcolourproject_2stim_asymm_v5,2020.2.10,MacIntel,60,61025ae37ef11b136ea224fe,,,,,,,,,352,-107.578125,-68.37109375,1,0,0,response5disk,,2,-35.43359375,-5.2890625,1,0,0,rectangle,-35.43359375,-5.2890625,1,0,0,-35.43359375,-5.2890625,1,0,0,1,39,199,117,1,,,,,,,,
,,,,,,,,,,,,,FF,,,,,,,,0.5493,,,,,,,,,,,,,,,,,,,,,,6100f8806915845f7cfc1707,61036a8442df8404d1ef0514,2021-07-29_19h57.33.385,Simcolourproject_2stim_asymm_v5,2020.2.10,MacIntel,60,61025ae37ef11b136ea224fe,,,,,,,,,4152,41.13671875,78.921875,1,0,0,response1disk,,7,-2.9765625,3.87109375,1,0,0,rectangle,-2.9765625,3.87109375,1,0,0,-2.9765625,3.87109375,1,0,0,1,40,200,6,1,,,,,,,,
,,,,,,,,,,,,,FF,,,,,,,,0.8658,,,,,,,,,,,,,,,,,,,,,,6100f8806915845f7cfc1707,61036a8442df8404d1ef0514,2021-07-29_19h57.33.385,Simcolourproject_2stim_asymm_v5,2020.2.10,MacIntel,60,61025ae37ef11b136ea224fe,,,,,,,,,706,38.30078125,-76.45703125,1,0,0,response3disk,,4,2.19140625,-9.25,1,0,0,rectangle,2.19140625,-9.25,1,0,0,2.19140625,-9.25,1,0,0,1,41,201,68,1,,,,,,,,
,,,,,,,,,,,,,FF,,,,,,,,2.1327,,,,,,,,,,,,,,,,,,,,,,6100f8806915845f7cfc1707,61036a8442df8404d1ef0514,2021-07-29_19h57.33.385,Simcolourproject_2stim_asymm_v5,2020.2.10,MacIntel,60,61025ae37ef11b136ea224fe,,,,,,,,,3323,85.60546875,43.15625,1,0,0,response1disk,,6,4.31640625,-7.2890625,1,0,0,rectangle,4.31640625,-7.2890625,1,0,0,4.31640625,-7.2890625,1,0,0,1,42,202,128,1,,,,,,,,
,,,,,,,,,,,,,FF,,,,,,,,0.6827,,,,,,,,,,,,,,,,,,,,,,6100f8806915845f7cfc1707,61036a8442df8404d1ef0514,2021-07-29_19h57.33.385,Simcolourproject_2stim_asymm_v5,2020.2.10,MacIntel,60,61025ae37ef11b136ea224fe,,,,,,,,,2822,61.60546875,42.3046875,1,0,0,response1disk,,6,16.625,6.6015625,1,0,0,rectangle,16.625,6.6015625,1,0,0,16.625,6.6015625,1,0,0,1,43,203,73,1,,,,,,,,
,,,,,,,,,,,,,FF,,,,,,,,0.8833,,,,,,,,,,,,,,,,,,,,,,6100f8806915845f7cfc1707,61036a8442df8404d1ef0514,2021-07-29_19h57.33.385,Simcolourproject_2stim_asymm_v5,2020.2.10,MacIntel,60,61025ae37ef11b136ea224fe,,,,,,,,,36,78.6640625,-31.515625,1,0,0,response3disk,,5,16.5625,-11.328125,1,0,0,rectangle,16.5625,-11.328125,1,0,0,16.5625,-11.328125,1,0,0,1,44,204,98,1,,,,,,,,
,,,,,,,,,,,,,FF,,,,,,,,0.9832,,,,,,,,,,,,,,,,,,,,,,6100f8806915845f7cfc1707,61036a8442df8404d1ef0514,2021-07-29_19h57.33.385,Simcolourproject_2stim_asymm_v5,2020.2.10,MacIntel,60,61025ae37ef11b136ea224fe,,,,,,,,,3656,47.6015625,-91.92578125,1,0,0,response3disk,,4,7.10546875,-9.359375,1,0,0,rectangle,7.10546875,-9.359375,1,0,0,7.10546875,-9.359375,1,0,0,1,45,205,82,1,,,,,,,,
,,,,,,,,,,,,,FF,,,,,,,,0.9328,,,,,,,,,,,,,,,,,,,,,,6100f8806915845f7cfc1707,61036a8442df8404d1ef0514,2021-07-29_19h57.33.385,Simcolourproject_2stim_asymm_v5,2020.2.10,MacIntel,60,61025ae37ef11b136ea224fe,,,,,,,,,1511,37.81640625,-63.12109375,1,0,0,response3disk,,4,2.79296875,1.8359375,1,0,0,rectangle,2.79296875,1.8359375,1,0,0,2.79296875,1.8359375,1,0,0,1,46,206,136,1,,,,,,,,
,,,,,,,,,,,,,FF,,,,,,,,0.7003,,,,,,,,,,,,,,,,,,,,,,6100f8806915845f7cfc1707,61036a8442df8404d1ef0514,2021-07-29_19h57.33.385,Simcolourproject_2stim_asymm_v5,2020.2.10,MacIntel,60,61025ae37ef11b136ea224fe,,,,,,,,,667,28.109375,-62.83984375,1,0,0,response3disk,,4,7.47265625,11.9765625,1,0,0,rectangle,7.47265625,11.9765625,1,0,0,7.47265625,11.9765625,1,0,0,1,47,207,55,1,,,,,,,,
,,,,,,,,,,,,,FF,,,,,,,,1.5833,,,,,,,,,,,,,,,,,,,,,,6100f8806915845f7cfc1707,61036a8442df8404d1ef0514,2021-07-29_19h57.33.385,Simcolourproject_2stim_asymm_v5,2020.2.10,MacIntel,60,61025ae37ef11b136ea224fe,,,,,,,,,3203,-73.8515625,36.4921875,1,0,0,response7disk,,1,-9.79296875,5.5546875,1,0,0,rectangle,-9.79296875,5.5546875,1,0,0,-9.79296875,5.5546875,1,0,0,1,48,208,138,1,,,,,,,,
,,,,,,,,,,,,,FF,,,,,,,,0.8659,,,,,,,,,,,,,,,,,,,,,,6100f8806915845f7cfc1707,61036a8442df8404d1ef0514,2021-07-29_19h57.33.385,Simcolourproject_2stim_asymm_v5,2020.2.10,MacIntel,60,61025ae37ef11b136ea224fe,,,,,,,,,3682,-86.10546875,-41.27734375,1,0,0,response5disk,,2,0.2890625,0.078125,1,0,0,rectangle,0.2890625,0.078125,1,0,0,0.2890625,0.078125,1,0,0,1,49,209,62,1,,,,,,,,
,,,,,,,,,,,,,FF,,,,,,,,0.7007,,,,,,,,,,,,,,,,,,,,,,6100f8806915845f7cfc1707,61036a8442df8404d1ef0514,2021-07-29_19h57.33.385,Simcolourproject_2stim_asymm_v5,2020.2.10,MacIntel,60,61025ae37ef11b136ea224fe,,,,,,,,,3231,71.59765625,58.15234375,1,0,0,response1disk,,6,13.62109375,-15.21875,1,0,0,rectangle,13.62109375,-15.21875,1,0,0,13.62109375,-15.21875,1,0,0,1,50,210,157,1,,,,,,,,
,,,,,,,,,,,,,FF,,,,,,,,0.9325,,,,,,,,,,,,,,,,,,,,,,6100f8806915845f7cfc1707,61036a8442df8404d1ef0514,2021-07-29_19h57.33.385,Simcolourproject_2stim_asymm_v5,2020.2.10,MacIntel,60,61025ae37ef11b136ea224fe,,,,,,,,,4047,-39.26171875,82.79296875,1,0,0,response7disk,,0,-20.4765625,8.890625,1,0,0,rectangle,-20.4765625,8.890625,1,0,0,-20.4765625,8.890625,1,0,0,1,51,211,42,1,,,,,,,,
,,,,,,,,,,,,,FF,,,,,,,,0.6849,,,,,,,,,,,,,,,,,,,,,,6100f8806915845f7cfc1707,61036a8442df8404d1ef0514,2021-07-29_19h57.33.385,Simcolourproject_2stim_asymm_v5,2020.2.10,MacIntel,60,61025ae37ef11b136ea224fe,,,,,,,,,4066,-32.71875,62.7890625,1,0,0,response7disk,,0,-22.66015625,-2.85546875,1,0,0,rectangle,-22.66015625,-2.85546875,1,0,0,-22.66015625,-2.85546875,1,0,0,1,52,212,33,1,,,,,,,,
,,,,,,,,,,,,,FF,,,,,,,,0.6844,,,,,,,,,,,,,,,,,,,,,,6100f8806915845f7cfc1707,61036a8442df8404d1ef0514,2021-07-29_19h57.33.385,Simcolourproject_2stim_asymm_v5,2020.2.10,MacIntel,60,61025ae37ef11b136ea224fe,,,,,,,,,417,86.91015625,34.1328125,1,0,0,response1disk,,6,18.3515625,-0.33203125,1,0,0,rectangle,18.3515625,-0.33203125,1,0,0,18.3515625,-0.33203125,1,0,0,1,53,213,105,1,,,,,,,,
,,,,,,,,,,,,,FF,,,,,,,,1.2339,,,,,,,,,,,,,,,,,,,,,,6100f8806915845f7cfc1707,61036a8442df8404d1ef0514,2021-07-29_19h57.33.385,Simcolourproject_2stim_asymm_v5,2020.2.10,MacIntel,60,61025ae37ef11b136ea224fe,,,,,,,,,374,-101.859375,-61.6484375,1,0,0,response5disk,,2,-31.91015625,12.3046875,1,0,0,rectangle,-31.91015625,12.3046875,1,0,0,-31.91015625,12.3046875,1,0,0,1,54,214,57,1,,,,,,,,
,,,,,,,,,,,,,FF,,,,,,,,0.7343,,,,,,,,,,,,,,,,,,,,,,6100f8806915845f7cfc1707,61036a8442df8404d1ef0514,2021-07-29_19h57.33.385,Simcolourproject_2stim_asymm_v5,2020.2.10,MacIntel,60,61025ae37ef11b136ea224fe,,,,,,,,,53,38.8984375,-70.83984375,1,0,0,response3disk,,4,11.53515625,10.05078125,1,0,0,rectangle,11.53515625,10.05078125,1,0,0,11.53515625,10.05078125,1,0,0,1,55,215,48,1,,,,,,,,
,,,,,,,,,,,,,FF,,,,,,,,0.5662,,,,,,,,,,,,,,,,,,,,,,6100f8806915845f7cfc1707,61036a8442df8404d1ef0514,2021-07-29_19h57.33.385,Simcolourproject_2stim_asymm_v5,2020.2.10,MacIntel,60,61025ae37ef11b136ea224fe,,,,,,,,,3469,-27.2734375,83.578125,1,0,0,response7disk,,0,-16.2734375,0.84375,1,0,0,rectangle,-16.2734375,0.84375,1,0,0,-16.2734375,0.84375,1,0,0,1,56,216,104,1,,,,,,,,
,,,,,,,,,,,,,FF,,,,,,,,1.2172,,,,,,,,,,,,,,,,,,,,,,6100f8806915845f7cfc1707,61036a8442df8404d1ef0514,2021-07-29_19h57.33.385,Simcolourproject_2stim_asymm_v5,2020.2.10,MacIntel,60,61025ae37ef11b136ea224fe,,,,,,,,,210,53.30859375,30.19921875,1,0,0,response1disk,,6,3.46875,-1.296875,1,0,0,rectangle,3.46875,-1.296875,1,0,0,3.46875,-1.296875,1,0,0,1,57,217,112,1,,,,,,,,
,,,,,,,,,,,,,FF,,,,,,,,0.7155,,,,,,,,,,,,,,,,,,,,,,6100f8806915845f7cfc1707,61036a8442df8404d1ef0514,2021-07-29_19h57.33.385,Simcolourproject_2stim_asymm_v5,2020.2.10,MacIntel,60,61025ae37ef11b136ea224fe,,,,,,,,,3290,-50.11328125,76.98046875,1,0,0,response7disk,,0,-30.07421875,7.0078125,1,0,0,rectangle,-30.07421875,7.0078125,1,0,0,-30.07421875,7.0078125,1,0,0,1,58,218,47,1,,,,,,,,
,,,,,,,,,,,,,FF,,,,,,,,0.6667,,,,,,,,,,,,,,,,,,,,,,6100f8806915845f7cfc1707,61036a8442df8404d1ef0514,2021-07-29_19h57.33.385,Simcolourproject_2stim_asymm_v5,2020.2.10,MacIntel,60,61025ae37ef11b136ea224fe,,,,,,,,,4118,-44.1484375,60.609375,1,0,0,response7disk,,0,-28.22265625,11.4453125,1,0,0,rectangle,-28.22265625,11.4453125,1,0,0,-28.22265625,11.4453125,1,0,0,1,59,219,1,1,,,,,,,,
,,,,,,,,,,,,,FF,,,,,,,,0.7011,,,,,,,,,,,,,,,,,,,,,,6100f8806915845f7cfc1707,61036a8442df8404d1ef0514,2021-07-29_19h57.33.385,Simcolourproject_2stim_asymm_v5,2020.2.10,MacIntel,60,61025ae37ef11b136ea224fe,,,,,,,,,866,83.93359375,54.80078125,1,0,0,response1disk,,6,22.97265625,11.00390625,1,0,0,rectangle,22.97265625,11.00390625,1,0,0,22.97265625,11.00390625,1,0,0,1,60,220,116,1,,,,,,,,
,,,,,,,,,,,,,FF,,,,,,,,1.0672,,,,,,,,,,,,,,,,,,,,,,6100f8806915845f7cfc1707,61036a8442df8404d1ef0514,2021-07-29_19h57.33.385,Simcolourproject_2stim_asymm_v5,2020.2.10,MacIntel,60,61025ae37ef11b136ea224fe,,,,,,,,,68,-78.40234375,-55.51171875,1,0,0,response5disk,,2,-11.62109375,-1.765625,1,0,0,rectangle,-11.62109375,-1.765625,1,0,0,-11.62109375,-1.765625,1,0,0,1,61,221,155,1,,,,,,,,
,,,,,,,,,,,,,FF,,,,,,,,1.1998,,,,,,,,,,,,,,,,,,,,,,6100f8806915845f7cfc1707,61036a8442df8404d1ef0514,2021-07-29_19h57.33.385,Simcolourproject_2stim_asymm_v5,2020.2.10,MacIntel,60,61025ae37ef11b136ea224fe,,,,,,,,,1123,43.3046875,-86.0234375,1,0,0,response3disk,,4,9.96875,-9.18359375,1,0,0,rectangle,9.96875,-9.18359375,1,0,0,9.96875,-9.18359375,1,0,0,1,62,222,15,1,,,,,,,,
,,,,,,,,,,,,,FF,,,,,,,,1.1499,,,,,,,,,,,,,,,,,,,,,,6100f8806915845f7cfc1707,61036a8442df8404d1ef0514,2021-07-29_19h57.33.385,Simcolourproject_2stim_asymm_v5,2020.2.10,MacIntel,60,61025ae37ef11b136ea224fe,,,,,,,,,739,-40.06640625,-72.6796875,1,0,0,response5disk,,3,-19.62890625,-0.0703125,1,0,0,rectangle,-19.62890625,-0.0703125,1,0,0,-19.62890625,-0.0703125,1,0,0,1,63,223,56,1,,,,,,,,
,,,,,,,,,,,,,FF,,,,,,,,0.6653,,,,,,,,,,,,,,,,,,,,,,6100f8806915845f7cfc1707,61036a8442df8404d1ef0514,2021-07-29_19h57.33.385,Simcolourproject_2stim_asymm_v5,2020.2.10,MacIntel,60,61025ae37ef11b136ea224fe,,,,,,,,,439,-39.234375,73.40234375,1,0,0,response7disk,,0,-18.8359375,1.9140625,1,0,0,rectangle,76.65625,31.1875,1,0,0,22.51953125,10.94921875,1,0,0,1,64,224,102,1,,response1disk_3,TRUE,6,6,"[17,132,136,20,171,301,81,84,86,184,186,107,193,158,225,315,109,132,142,45]",1.3182,rectangle
,,,,,,,,,,,,,FF,,,,,,,,1.8334,,,,,,,,,,,,,,,,,,,,,,6100f8806915845f7cfc1707,61036a8442df8404d1ef0514,2021-07-29_19h57.33.385,Simcolourproject_2stim_asymm_v5,2020.2.10,MacIntel,60,61025ae37ef11b136ea224fe,,,,,,,,,1915,46.21484375,-58.203125,1,0,0,response3disk,,4,21.41015625,-8.8671875,1,0,0,rectangle,21.41015625,-8.8671875,1,0,0,21.41015625,-8.8671875,1,0,0,1,65,225,67,1,,,,,,,,
,,,,,,,,,,,,,FF,,,,,,,,0.5819,,,,,,,,,,,,,,,,,,,,,,6100f8806915845f7cfc1707,61036a8442df8404d1ef0514,2021-07-29_19h57.33.385,Simcolourproject_2stim_asymm_v5,2020.2.10,MacIntel,60,61025ae37ef11b136ea224fe,,,,,,,,,3336,-36.8984375,57.53515625,1,0,0,response7disk,,0,-18.828125,12.5,1,0,0,rectangle,-18.828125,12.5,1,0,0,-18.828125,12.5,1,0,0,1,66,226,110,1,,,,,,,,
,,,,,,,,,,,,,FF,,,,,,,,1.0842,,,,,,,,,,,,,,,,,,,,,,6100f8806915845f7cfc1707,61036a8442df8404d1ef0514,2021-07-29_19h57.33.385,Simcolourproject_2stim_asymm_v5,2020.2.10,MacIntel,60,61025ae37ef11b136ea224fe,,,,,,,,,3315,-44.27734375,-73.21875,1,0,0,response5disk,,3,-5.75390625,-3,1,0,0,rectangle,-5.75390625,-3,1,0,0,-5.75390625,-3,1,0,0,1,67,227,96,1,,,,,,,,
,,,,,,,,,,,,,FF,,,,,,,,0.9171,,,,,,,,,,,,,,,,,,,,,,6100f8806915845f7cfc1707,61036a8442df8404d1ef0514,2021-07-29_19h57.33.385,Simcolourproject_2stim_asymm_v5,2020.2.10,MacIntel,60,61025ae37ef11b136ea224fe,,,,,,,,,2628,-42.70703125,-73.05859375,1,0,0,response5disk,,3,-20.68359375,1.6171875,1,0,0,rectangle,-20.68359375,1.6171875,1,0,0,-20.68359375,1.6171875,1,0,0,1,68,228,17,1,,,,,,,,
,,,,,,,,,,,,,FF,,,,,,,,1.3505,,,,,,,,,,,,,,,,,,,,,,6100f8806915845f7cfc1707,61036a8442df8404d1ef0514,2021-07-29_19h57.33.385,Simcolourproject_2stim_asymm_v5,2020.2.10,MacIntel,60,61025ae37ef11b136ea224fe,,,,,,,,,2730,38.328125,-70.98828125,1,0,0,response3disk,,4,14.6015625,0.828125,1,0,0,rectangle,14.6015625,0.828125,1,0,0,14.6015625,0.828125,1,0,0,1,69,229,143,1,,,,,,,,
,,,,,,,,,,,,,FF,,,,,,,,1.7179,,,,,,,,,,,,,,,,,,,,,,6100f8806915845f7cfc1707,61036a8442df8404d1ef0514,2021-07-29_19h57.33.385,Simcolourproject_2stim_asymm_v5,2020.2.10,MacIntel,60,61025ae37ef11b136ea224fe,,,,,,,,,4329,-50.265625,-73.4296875,1,0,0,response5disk,,3,-19.859375,-0.41796875,1,0,0,rectangle,-19.859375,-0.41796875,1,0,0,-19.859375,-0.41796875,1,0,0,1,70,230,142,1,,,,,,,,
,,,,,,,,,,,,,FF,,,,,,,,1.016,,,,,,,,,,,,,,,,,,,,,,6100f8806915845f7cfc1707,61036a8442df8404d1ef0514,2021-07-29_19h57.33.385,Simcolourproject_2stim_asymm_v5,2020.2.10,MacIntel,60,61025ae37ef11b136ea224fe,,,,,,,,,821,30.859375,-72.94140625,1,0,0,response3disk,,4,18.7890625,11.1171875,1,0,0,rectangle,18.7890625,11.1171875,1,0,0,18.7890625,11.1171875,1,0,0,1,71,231,3,1,,,,,,,,
,,,,,,,,,,,,,FF,,,,,,,,0.6652,,,,,,,,,,,,,,,,,,,,,,6100f8806915845f7cfc1707,61036a8442df8404d1ef0514,2021-07-29_19h57.33.385,Simcolourproject_2stim_asymm_v5,2020.2.10,MacIntel,60,61025ae37ef11b136ea224fe,,,,,,,,,1071,37.19921875,-66.89453125,1,0,0,response3disk,,4,19.4453125,-16.7734375,1,0,0,rectangle,19.4453125,-16.7734375,1,0,0,19.4453125,-16.7734375,1,0,0,1,72,232,27,1,,,,,,,,
,,,,,,,,,,,,,FF,,,,,,,,1.5166,,,,,,,,,,,,,,,,,,,,,,6100f8806915845f7cfc1707,61036a8442df8404d1ef0514,2021-07-29_19h57.33.385,Simcolourproject_2stim_asymm_v5,2020.2.10,MacIntel,60,61025ae37ef11b136ea224fe,,,,,,,,,781,-32.98828125,-70.66015625,1,0,0,response5disk,,3,-21.5234375,-15.5859375,1,0,0,rectangle,-21.5234375,-15.5859375,1,0,0,-21.5234375,-15.5859375,1,0,0,1,73,233,145,1,,,,,,,,
,,,,,,,,,,,,,FF,,,,,,,,1.2003,,,,,,,,,,,,,,,,,,,,,,6100f8806915845f7cfc1707,61036a8442df8404d1ef0514,2021-07-29_19h57.33.385,Simcolourproject_2stim_asymm_v5,2020.2.10,MacIntel,60,61025ae37ef11b136ea224fe,,,,,,,,,3666,-31.16015625,-87.0859375,1,0,0,response5disk,,3,-0.0859375,12.99609375,1,0,0,rectangle,-0.0859375,12.99609375,1,0,0,-0.0859375,12.99609375,1,0,0,1,74,234,154,1,,,,,,,,
,,,,,,,,,,,,,FF,,,,,,,,0.8838,,,,,,,,,,,,,,,,,,,,,,6100f8806915845f7cfc1707,61036a8442df8404d1ef0514,2021-07-29_19h57.33.385,Simcolourproject_2stim_asymm_v5,2020.2.10,MacIntel,60,61025ae37ef11b136ea224fe,,,,,,,,,4227,92.6796875,-53.18359375,1,0,0,response3disk,,5,34.76171875,12.71875,1,0,0,rectangle,34.76171875,12.71875,1,0,0,34.76171875,12.71875,1,0,0,1,75,235,30,1,,,,,,,,
,,,,,,,,,,,,,FF,,,,,,,,0.7343,,,,,,,,,,,,,,,,,,,,,,6100f8806915845f7cfc1707,61036a8442df8404d1ef0514,2021-07-29_19h57.33.385,Simcolourproject_2stim_asymm_v5,2020.2.10,MacIntel,60,61025ae37ef11b136ea224fe,,,,,,,,,3201,-74.61328125,27.5703125,1,0,0,response7disk,,1,-6.9296875,9.73828125,1,0,0,rectangle,-6.9296875,9.73828125,1,0,0,-6.9296875,9.73828125,1,0,0,1,76,236,40,1,,,,,,,,
,,,,,,,,,,,,,FF,,,,,,,,2.1182,,,,,,,,,,,,,,,,,,,,,,6100f8806915845f7cfc1707,61036a8442df8404d1ef0514,2021-07-29_19h57.33.385,Simcolourproject_2stim_asymm_v5,2020.2.10,MacIntel,60,61025ae37ef11b136ea224fe,,,,,,,,,1988,92.328125,43.24609375,1,0,0,response1disk,,6,16.8671875,13.92578125,1,0,0,rectangle,16.8671875,13.92578125,1,0,0,16.8671875,13.92578125,1,0,0,1,77,237,49,1,,,,,,,,
,,,,,,,,,,,,,FF,,,,,,,,1.6501,,,,,,,,,,,,,,,,,,,,,,6100f8806915845f7cfc1707,61036a8442df8404d1ef0514,2021-07-29_19h57.33.385,Simcolourproject_2stim_asymm_v5,2020.2.10,MacIntel,60,61025ae37ef11b136ea224fe,,,,,,,,,4317,26,73.0859375,1,0,0,response1disk,,7,5.26953125,4.38671875,1,0,0,rectangle,5.26953125,4.38671875,1,0,0,5.26953125,4.38671875,1,0,0,1,78,238,125,1,,,,,,,,
,,,,,,,,,,,,,FF,,,,,,,,0.8496,,,,,,,,,,,,,,,,,,,,,,6100f8806915845f7cfc1707,61036a8442df8404d1ef0514,2021-07-29_19h57.33.385,Simcolourproject_2stim_asymm_v5,2020.2.10,MacIntel,60,61025ae37ef11b136ea224fe,,,,,,,,,3847,-57.6015625,39.2734375,1,0,0,response7disk,,1,8.0625,8.1015625,1,0,0,rectangle,8.0625,8.1015625,1,0,0,8.0625,8.1015625,1,0,0,1,79,239,70,1,,,,,,,,
,,,,,,,,,,,,,FF,,,,,,,,1.5845,,,,,,,,,,,,,,,,,,,,,,6100f8806915845f7cfc1707,61036a8442df8404d1ef0514,2021-07-29_19h57.33.385,Simcolourproject_2stim_asymm_v5,2020.2.10,MacIntel,60,61025ae37ef11b136ea224fe,,,,,,,,,1907,-59.88671875,-58.484375,1,0,0,response5disk,,2,-0.8203125,-6.85546875,1,0,0,rectangle,-0.8203125,-6.85546875,1,0,0,-0.8203125,-6.85546875,1,0,0,1,80,240,119,1,,,,,,,,
,,,,,,,,,,,,,FF,,,,,,,,0.7658,,,,,,,,,,,,,,,,,,,,,,6100f8806915845f7cfc1707,61036a8442df8404d1ef0514,2021-07-29_19h57.33.385,Simcolourproject_2stim_asymm_v5,2020.2.10,MacIntel,60,61025ae37ef11b136ea224fe,,,,,,,,,284,-46.6953125,-65.6015625,1,0,0,response5disk,,3,-7.1640625,0.2265625,1,0,0,rectangle,-7.1640625,0.2265625,1,0,0,-7.1640625,0.2265625,1,0,0,1,81,241,28,1,,,,,,,,
,,,,,,,,,,,,,FF,,,,,,,,0.7841,,,,,,,,,,,,,,,,,,,,,,6100f8806915845f7cfc1707,61036a8442df8404d1ef0514,2021-07-29_19h57.33.385,Simcolourproject_2stim_asymm_v5,2020.2.10,MacIntel,60,61025ae37ef11b136ea224fe,,,,,,,,,686,-69.87109375,-34.3125,1,0,0,response5disk,,2,-3.91015625,-3.2421875,1,0,0,rectangle,-3.91015625,-3.2421875,1,0,0,-3.91015625,-3.2421875,1,0,0,1,82,242,121,1,,,,,,,,
,,,,,,,,,,,,,FF,,,,,,,,0.5325,,,,,,,,,,,,,,,,,,,,,,6100f8806915845f7cfc1707,61036a8442df8404d1ef0514,2021-07-29_19h57.33.385,Simcolourproject_2stim_asymm_v5,2020.2.10,MacIntel,60,61025ae37ef11b136ea224fe,,,,,,,,,59,-77.50390625,-42.20703125,1,0,0,response5disk,,2,-10.30078125,-3.50390625,1,0,0,rectangle,-10.30078125,-3.50390625,1,0,0,-10.30078125,-3.50390625,1,0,0,1,83,243,85,1,,,,,,,,
,,,,,,,,,,,,,FF,,,,,,,,0.6345,,,,,,,,,,,,,,,,,,,,,,6100f8806915845f7cfc1707,61036a8442df8404d1ef0514,2021-07-29_19h57.33.385,Simcolourproject_2stim_asymm_v5,2020.2.10,MacIntel,60,61025ae37ef11b136ea224fe,,,,,,,,,943,21.84375,-51.45703125,1,0,0,response3disk,,4,12.125,13.22265625,1,0,0,rectangle,12.125,13.22265625,1,0,0,12.125,13.22265625,1,0,0,1,84,244,103,1,,,,,,,,
,,,,,,,,,,,,,FF,,,,,,,,0.4668,,,,,,,,,,,,,,,,,,,,,,6100f8806915845f7cfc1707,61036a8442df8404d1ef0514,2021-07-29_19h57.33.385,Simcolourproject_2stim_asymm_v5,2020.2.10,MacIntel,60,61025ae37ef11b136ea224fe,,,,,,,,,2861,28.21484375,-50.62890625,1,0,0,response3disk,,4,22.859375,-0.34765625,1,0,0,rectangle,22.859375,-0.34765625,1,0,0,22.859375,-0.34765625,1,0,0,1,85,245,53,1,,,,,,,,
,,,,,,,,,,,,,FF,,,,,,,,0.8006,,,,,,,,,,,,,,,,,,,,,,6100f8806915845f7cfc1707,61036a8442df8404d1ef0514,2021-07-29_19h57.33.385,Simcolourproject_2stim_asymm_v5,2020.2.10,MacIntel,60,61025ae37ef11b136ea224fe,,,,,,,,,338,-59.8984375,-78.5078125,1,0,0,response5disk,,3,-27.875,5.91796875,1,0,0,rectangle,-27.875,5.91796875,1,0,0,-27.875,5.91796875,1,0,0,1,86,246,93,1,,,,,,,,
