key_resp.keys,key_resp.rt,key_resp_14.keys,key_resp_14.rt,key_resp_15.keys,key_resp_15.rt,key_resp_17.keys,key_resp_17.rt,key_resp_9.keys,key_resp_9.rt,key_resp_10.keys,key_resp_10.rt,practice_comparison,Ecc,mouse_5.x,mouse_5.y,mouse_5.leftButton,mouse_5.midButton,mouse_5.rightButton,mouse_5.clicked_name,pracsimilarity,response_time,mouse_10.x,mouse_10.y,mouse_10.leftButton,mouse_10.midButton,mouse_10.rightButton,mouse_10.clicked_name,mouse_7.x,mouse_7.y,mouse_7.leftButton,mouse_7.midButton,mouse_7.rightButton,mouse_6.x,mouse_6.y,mouse_6.leftButton,mouse_6.midButton,mouse_6.rightButton,duringprac.thisRepN,duringprac.thisTrialN,duringprac.thisN,duringprac.thisIndex,duringprac.ran,participant,session,date,expName,psychopyVersion,OS,frameRate,study_id,mouse_7.clicked_name,catchpracsimilarity,catch_response_time,catchnumberprac,catchtrialorderprac,mouse_6.clicked_name,key_resp_22.keys,key_resp_22.rt,realcomparison,mouse.x,mouse.y,mouse.leftButton,mouse.midButton,mouse.rightButton,mouse.clicked_name,Colour2,similarity,mouse_2.x,mouse_2.y,mouse_2.leftButton,mouse_2.midButton,mouse_2.rightButton,mouse_2.clicked_name,mouse_3.x,mouse_3.y,mouse_3.leftButton,mouse_3.midButton,mouse_3.rightButton,mouse_11.x,mouse_11.y,mouse_11.leftButton,mouse_11.midButton,mouse_11.rightButton,trials_2.thisRepN,trials_2.thisTrialN,trials_2.thisN,trials_2.thisIndex,trials_2.ran,Colour1,mouse_3.clicked_name,catchornah,catchsimilarity,catchnumber,catchtrialorder,catchRT,mouse_11.clicked_name
space,1.7696,space,6.288,space,26.3114,space,3.8241,space,2.0696,space,3.653,25,FF,33.60006077,70.39999461,1,0,0,response1disk_5,7,4.6217,-2.399939764,-15.20000666,1,0,0,rectangle_8,-2.399939764,-15.20000666,1,0,0,-2.399939764,-15.20000666,1,0,0,0,0,0,5,1,6100a8709599c7ce38d7c4a7,61036de9eb579a8efc685ebe,2021-07-29_22h12.16.311,Simcolourproject_2stim_asymm_v5,2020.2.10,Win32,60,61025ae37ef11b136ea224fe,,,,,,,,,,,,,,,,,,,,,,,,,,,,,,,,,,,,,,,,,,,,,,
,,,,,,,,,,,,154,PF,-78.3999409,36.79999411,1,0,0,response7disk_5,1,4.1706,-26.39994012,1.599993587,1,0,0,rectangle_8,-88.79998988,51.99999434,1,0,0,5.600060356,-10.40000659,1,0,0,0,1,1,6,1,6100a8709599c7ce38d7c4a7,61036de9eb579a8efc685ebe,2021-07-29_22h12.16.311,Simcolourproject_2stim_asymm_v5,2020.2.10,Win32,60,61025ae37ef11b136ea224fe,response7disk_7,1,2.4514,1,"[2,5]",rectangle_4,,,,,,,,,,,,,,,,,,,,,,,,,,,,,,,,,,,,,,,,
,,,,,,,,,,,,110,FF,61.60001236,22.3999939,1,0,0,response1disk_5,6,2.035,20.00001174,2.399993598,1,0,0,rectangle_8,20.00001174,2.399993598,1,0,0,20.00001174,2.399993598,1,0,0,0,2,2,3,1,6100a8709599c7ce38d7c4a7,61036de9eb579a8efc685ebe,2021-07-29_22h12.16.311,Simcolourproject_2stim_asymm_v5,2020.2.10,Win32,60,61025ae37ef11b136ea224fe,,,,,,,,,,,,,,,,,,,,,,,,,,,,,,,,,,,,,,,,,,,,,,
,,,,,,,,,,,,132,PF,68.80001247,38.39999413,1,0,0,response1disk_5,6,1.3347,20.00001174,4.799993634,1,0,0,rectangle_8,20.00001174,4.799993634,1,0,0,20.00001174,4.799993634,1,0,0,0,3,3,2,1,6100a8709599c7ce38d7c4a7,61036de9eb579a8efc685ebe,2021-07-29_22h12.16.311,Simcolourproject_2stim_asymm_v5,2020.2.10,Win32,60,61025ae37ef11b136ea224fe,,,,,,,,,,,,,,,,,,,,,,,,,,,,,,,,,,,,,,,,,,,,,,
,,,,,,,,,,,,83,PF,36.00001198,90.39999491,1,0,0,response1disk_5,7,1.1839,-6.399939823,3.999993622,1,0,0,rectangle_8,-73.59998965,41.59999418,1,0,0,-9.599988699,-2.400006473,1,0,0,0,4,4,1,1,6100a8709599c7ce38d7c4a7,61036de9eb579a8efc685ebe,2021-07-29_22h12.16.311,Simcolourproject_2stim_asymm_v5,2020.2.10,Win32,60,61025ae37ef11b136ea224fe,response7disk_7,1,1.8344,1,"[2,5]",rectangle_4,,,,,,,,,,,,,,,,,,,,,,,,,,,,,,,,,,,,,,,,
,,,,,,,,,,,,14,FF,51.20001221,79.19997033,1,0,0,response1disk_5,7,1.6184,10.4000116,-8.800006568,1,0,0,rectangle_8,10.4000116,-8.800006568,1,0,0,10.4000116,-8.800006568,1,0,0,0,5,5,0,1,6100a8709599c7ce38d7c4a7,61036de9eb579a8efc685ebe,2021-07-29_22h12.16.311,Simcolourproject_2stim_asymm_v5,2020.2.10,Win32,60,61025ae37ef11b136ea224fe,,,,,,,,,,,,,,,,,,,,,,,,,,,,,,,,,,,,,,,,,,,,,,
,,,,,,,,,,,,119,PF,53.60001224,-42.40000707,1,0,0,response3disk_5,5,1.3848,12.00001162,-1.600006461,1,0,0,rectangle_8,12.00001162,-1.600006461,1,0,0,12.00001162,-1.600006461,1,0,0,0,6,6,4,1,6100a8709599c7ce38d7c4a7,61036de9eb579a8efc685ebe,2021-07-29_22h12.16.311,Simcolourproject_2stim_asymm_v5,2020.2.10,Win32,60,61025ae37ef11b136ea224fe,,,,,,,,,,,,,,,,,,,,,,,,,,,,,,,,,,,,,,,,,,,,,,
,,,,,,,,,,,,,FF,,,,,,,,2.2839,,,,,,,,,,,,,,,,,,,,,,6100a8709599c7ce38d7c4a7,61036de9eb579a8efc685ebe,2021-07-29_22h12.16.311,Simcolourproject_2stim_asymm_v5,2020.2.10,Win32,60,61025ae37ef11b136ea224fe,,,,,,,space,2.9595,957,61.60001236,41.59999418,1,0,0,response1disk,,6,26.40001184,6.399993658,1,0,0,rectangle,26.40001184,6.399993658,1,0,0,26.40001184,6.399993658,1,0,0,0,0,0,19,1,,,,,,,,
,,,,,,,,,,,,,FF,,,,,,,,1.2171,,,,,,,,,,,,,,,,,,,,,,6100a8709599c7ce38d7c4a7,61036de9eb579a8efc685ebe,2021-07-29_22h12.16.311,Simcolourproject_2stim_asymm_v5,2020.2.10,Win32,60,61025ae37ef11b136ea224fe,,,,,,,,,1344,34.40001196,71.99999464,1,0,0,response1disk,,7,-2.399939764,-8.000006557,1,0,0,rectangle,-2.399939764,-8.000006557,1,0,0,-2.399939764,-8.000006557,1,0,0,0,1,1,43,1,,,,,,,,
,,,,,,,,,,,,,FF,,,,,,,,2.118,,,,,,,,,,,,,,,,,,,,,,6100a8709599c7ce38d7c4a7,61036de9eb579a8efc685ebe,2021-07-29_22h12.16.311,Simcolourproject_2stim_asymm_v5,2020.2.10,Win32,60,61025ae37ef11b136ea224fe,,,,,,,,,3592,-78.3999409,-32.00000691,1,0,0,response5disk,,2,-12.79998875,-6.4373E-06,1,0,0,rectangle,-12.79998875,-6.4373E-06,1,0,0,-12.79998875,-6.4373E-06,1,0,0,0,2,2,81,1,,,,,,,,
,,,,,,,,,,,,,FF,,,,,,,,1.0839,,,,,,,,,,,,,,,,,,,,,,6100a8709599c7ce38d7c4a7,61036de9eb579a8efc685ebe,2021-07-29_22h12.16.311,Simcolourproject_2stim_asymm_v5,2020.2.10,Win32,60,61025ae37ef11b136ea224fe,,,,,,,,,4342,59.20001233,107.1999707,1,0,0,response1disk,,7,17.60006053,7.19999367,1,0,0,rectangle,17.60006053,7.19999367,1,0,0,17.60006053,7.19999367,1,0,0,0,3,3,102,1,,,,,,,,
,,,,,,,,,,,,,FF,,,,,,,,1.4514,,,,,,,,,,,,,,,,,,,,,,6100a8709599c7ce38d7c4a7,61036de9eb579a8efc685ebe,2021-07-29_22h12.16.311,Simcolourproject_2stim_asymm_v5,2020.2.10,Win32,60,61025ae37ef11b136ea224fe,,,,,,,,,63,82.40001267,-54.40000725,1,0,0,response3disk,,5,-4.799988627,14.39999378,1,0,0,rectangle,-4.799988627,14.39999378,1,0,0,-4.799988627,14.39999378,1,0,0,0,4,4,142,1,,,,,,,,
,,,,,,,,,,,,,FF,,,,,,,,1.2842,,,,,,,,,,,,,,,,,,,,,,6100a8709599c7ce38d7c4a7,61036de9eb579a8efc685ebe,2021-07-29_22h12.16.311,Simcolourproject_2stim_asymm_v5,2020.2.10,Win32,60,61025ae37ef11b136ea224fe,,,,,,,,,1300,-39.19998914,-104.800008,1,0,0,response5disk,,3,12.80001163,1.599993587,1,0,0,rectangle,12.80001163,1.599993587,1,0,0,12.80001163,1.599993587,1,0,0,0,5,5,62,1,,,,,,,,
,,,,,,,,,,,,,FF,,,,,,,,1.1514,,,,,,,,,,,,,,,,,,,,,,6100a8709599c7ce38d7c4a7,61036de9eb579a8efc685ebe,2021-07-29_22h12.16.311,Simcolourproject_2stim_asymm_v5,2020.2.10,Win32,60,61025ae37ef11b136ea224fe,,,,,,,,,1618,31.20001191,-59.20000732,1,0,0,response3disk,,4,16.00001168,-4.000006497,1,0,0,rectangle,16.00001168,-4.000006497,1,0,0,16.00001168,-4.000006497,1,0,0,0,6,6,15,1,,,,,,,,
,,,,,,,,,,,,,FF,,,,,,,,2.3844,,,,,,,,,,,,,,,,,,,,,,6100a8709599c7ce38d7c4a7,61036de9eb579a8efc685ebe,2021-07-29_22h12.16.311,Simcolourproject_2stim_asymm_v5,2020.2.10,Win32,60,61025ae37ef11b136ea224fe,,,,,,,,,4119,-31.99998903,-91.2000078,1,0,0,response5disk,,3,8.000011563,-4.000006497,1,0,0,rectangle,8.000011563,-4.000006497,1,0,0,8.000011563,-4.000006497,1,0,0,0,7,7,125,1,,,,,,,,
,,,,,,,,,,,,,FF,,,,,,,,1.2334,,,,,,,,,,,,,,,,,,,,,,6100a8709599c7ce38d7c4a7,61036de9eb579a8efc685ebe,2021-07-29_22h12.16.311,Simcolourproject_2stim_asymm_v5,2020.2.10,Win32,60,61025ae37ef11b136ea224fe,,,,,,,,,1700,40.80001205,78.39999473,1,0,0,response1disk,,7,11.20001161,5.599993646,1,0,0,rectangle,11.20001161,5.599993646,1,0,0,11.20001161,5.599993646,1,0,0,0,8,8,64,1,,,,,,,,
,,,,,,,,,,,,,FF,,,,,,,,1.3016,,,,,,,,,,,,,,,,,,,,,,6100a8709599c7ce38d7c4a7,61036de9eb579a8efc685ebe,2021-07-29_22h12.16.311,Simcolourproject_2stim_asymm_v5,2020.2.10,Win32,60,61025ae37ef11b136ea224fe,,,,,,,,,1517,44.80001211,71.19997021,1,0,0,response1disk,,7,5.600060356,-4.800006509,1,0,0,rectangle,5.600060356,-4.800006509,1,0,0,5.600060356,-4.800006509,1,0,0,0,9,9,109,1,,,,,,,,
,,,,,,,,,,,,,FF,,,,,,,,3.2293,,,,,,,,,,,,,,,,,,,,,,6100a8709599c7ce38d7c4a7,61036de9eb579a8efc685ebe,2021-07-29_22h12.16.311,Simcolourproject_2stim_asymm_v5,2020.2.10,Win32,60,61025ae37ef11b136ea224fe,,,,,,,,,3800,84.0000127,52.79999435,1,0,0,response1disk,,6,5.600060356,0.799993575,1,0,0,rectangle,5.600060356,0.799993575,1,0,0,5.600060356,0.799993575,1,0,0,0,10,10,94,1,,,,,,,,
,,,,,,,,,,,,,FF,,,,,,,,1.4672,,,,,,,,,,,,,,,,,,,,,,6100a8709599c7ce38d7c4a7,61036de9eb579a8efc685ebe,2021-07-29_22h12.16.311,Simcolourproject_2stim_asymm_v5,2020.2.10,Win32,60,61025ae37ef11b136ea224fe,,,,,,,,,3378,-39.99998915,-73.60000753,1,0,0,response5disk,,3,-2.399939764,-4.000006497,1,0,0,rectangle,-2.399939764,-4.000006497,1,0,0,-2.399939764,-4.000006497,1,0,0,0,11,11,85,1,,,,,,,,
,,,,,,,,,,,,,FF,,,,,,,,1.2676,,,,,,,,,,,,,,,,,,,,,,6100a8709599c7ce38d7c4a7,61036de9eb579a8efc685ebe,2021-07-29_22h12.16.311,Simcolourproject_2stim_asymm_v5,2020.2.10,Win32,60,61025ae37ef11b136ea224fe,,,,,,,,,3940,-60.79998946,-38.40000701,1,0,0,response5disk,,2,11.20001161,-2.400006473,1,0,0,rectangle,11.20001161,-2.400006473,1,0,0,11.20001161,-2.400006473,1,0,0,0,12,12,133,1,,,,,,,,
,,,,,,,,,,,,,FF,,,,,,,,1.4338,,,,,,,,,,,,,,,,,,,,,,6100a8709599c7ce38d7c4a7,61036de9eb579a8efc685ebe,2021-07-29_22h12.16.311,Simcolourproject_2stim_asymm_v5,2020.2.10,Win32,60,61025ae37ef11b136ea224fe,,,,,,,,,2224,59.20001233,45.59999424,1,0,0,response1disk,,6,0.800011456,11.99999374,1,0,0,rectangle,0.800011456,11.99999374,1,0,0,0.800011456,11.99999374,1,0,0,0,13,13,138,1,,,,,,,,
,,,,,,,,,,,,,FF,,,,,,,,0.9833,,,,,,,,,,,,,,,,,,,,,,6100a8709599c7ce38d7c4a7,61036de9eb579a8efc685ebe,2021-07-29_22h12.16.311,Simcolourproject_2stim_asymm_v5,2020.2.10,Win32,60,61025ae37ef11b136ea224fe,,,,,,,,,3528,44.80001211,92.79999495,1,0,0,response1disk,,7,4.000011504,3.19999361,1,0,0,rectangle,-79.99998975,-46.40000713,1,0,0,9.600060415,-6.4373E-06,1,0,0,0,14,14,114,1,,response5disk_3,TRUE,2,2,"[278,15,216,205,280,226,214,218,271,175,175,112,50,172,43,292,242,256,211,174]",3.0859,rectangle
,,,,,,,,,,,,,FF,,,,,,,,1.4172,,,,,,,,,,,,,,,,,,,,,,6100a8709599c7ce38d7c4a7,61036de9eb579a8efc685ebe,2021-07-29_22h12.16.311,Simcolourproject_2stim_asymm_v5,2020.2.10,Win32,60,61025ae37ef11b136ea224fe,,,,,,,,,1560,47.20001215,28.79999399,1,0,0,response1disk,,6,5.600060356,3.19999361,1,0,0,rectangle,5.600060356,3.19999361,1,0,0,5.600060356,3.19999361,1,0,0,0,15,15,98,1,,,,,,,,
,,,,,,,,,,,,,FF,,,,,,,,1.1059,,,,,,,,,,,,,,,,,,,,,,6100a8709599c7ce38d7c4a7,61036de9eb579a8efc685ebe,2021-07-29_22h12.16.311,Simcolourproject_2stim_asymm_v5,2020.2.10,Win32,60,61025ae37ef11b136ea224fe,,,,,,,,,2390,39.20001203,84.79999483,1,0,0,response1disk,,7,-7.999988675,-4.800006509,1,0,0,rectangle,-7.999988675,-4.800006509,1,0,0,-7.999988675,-4.800006509,1,0,0,0,16,16,144,1,,,,,,,,
,,,,,,,,,,,,,FF,,,,,,,,1.4513,,,,,,,,,,,,,,,,,,,,,,6100a8709599c7ce38d7c4a7,61036de9eb579a8efc685ebe,2021-07-29_22h12.16.311,Simcolourproject_2stim_asymm_v5,2020.2.10,Win32,60,61025ae37ef11b136ea224fe,,,,,,,,,375,37.60006083,-76.80000758,1,0,0,response3disk,,4,7.200011551,-1.600006461,1,0,0,rectangle,7.200011551,-1.600006461,1,0,0,7.200011551,-1.600006461,1,0,0,0,17,17,148,1,,,,,,,,
,,,,,,,,,,,,,FF,,,,,,,,1.1949,,,,,,,,,,,,,,,,,,,,,,6100a8709599c7ce38d7c4a7,61036de9eb579a8efc685ebe,2021-07-29_22h12.16.311,Simcolourproject_2stim_asymm_v5,2020.2.10,Win32,60,61025ae37ef11b136ea224fe,,,,,,,,,3282,-61.59998947,-33.60000694,1,0,0,response5disk,,2,-1.59998858,-6.400006533,1,0,0,rectangle,-1.59998858,-6.400006533,1,0,0,-1.59998858,-6.400006533,1,0,0,0,18,18,140,1,,,,,,,,
,,,,,,,,,,,,,FF,,,,,,,,1.1003,,,,,,,,,,,,,,,,,,,,,,6100a8709599c7ce38d7c4a7,61036de9eb579a8efc685ebe,2021-07-29_22h12.16.311,Simcolourproject_2stim_asymm_v5,2020.2.10,Win32,60,61025ae37ef11b136ea224fe,,,,,,,,,3184,28.80001187,51.99999434,1,0,0,response1disk,,7,4.800011516,1.599993587,1,0,0,rectangle,4.800011516,1.599993587,1,0,0,4.800011516,1.599993587,1,0,0,0,19,19,71,1,,,,,,,,
,,,,,,,,,,,,,FF,,,,,,,,1.2168,,,,,,,,,,,,,,,,,,,,,,6100a8709599c7ce38d7c4a7,61036de9eb579a8efc685ebe,2021-07-29_22h12.16.311,Simcolourproject_2stim_asymm_v5,2020.2.10,Win32,60,61025ae37ef11b136ea224fe,,,,,,,,,3789,61.60001236,23.99999392,1,0,0,response1disk,,6,-15.99998879,-8.000006557,1,0,0,rectangle,-15.99998879,-8.000006557,1,0,0,-15.99998879,-8.000006557,1,0,0,0,20,20,129,1,,,,,,,,
,,,,,,,,,,,,,FF,,,,,,,,1.0835,,,,,,,,,,,,,,,,,,,,,,6100a8709599c7ce38d7c4a7,61036de9eb579a8efc685ebe,2021-07-29_22h12.16.311,Simcolourproject_2stim_asymm_v5,2020.2.10,Win32,60,61025ae37ef11b136ea224fe,,,,,,,,,3191,-44.79998922,-80.00000763,1,0,0,response5disk,,3,1.14441E-05,3.999993622,1,0,0,rectangle,1.14441E-05,3.999993622,1,0,0,1.14441E-05,3.999993622,1,0,0,0,21,21,28,1,,,,,,,,
,,,,,,,,,,,,,FF,,,,,,,,2.3346,,,,,,,,,,,,,,,,,,,,,,6100a8709599c7ce38d7c4a7,61036de9eb579a8efc685ebe,2021-07-29_22h12.16.311,Simcolourproject_2stim_asymm_v5,2020.2.10,Win32,60,61025ae37ef11b136ea224fe,,,,,,,,,696,74.40001255,39.99999416,1,0,0,response1disk,,6,25.60006065,9.599993706,1,0,0,rectangle,25.60006065,9.599993706,1,0,0,25.60006065,9.599993706,1,0,0,0,22,22,91,1,,,,,,,,
,,,,,,,,,,,,,FF,,,,,,,,2.9188,,,,,,,,,,,,,,,,,,,,,,6100a8709599c7ce38d7c4a7,61036de9eb579a8efc685ebe,2021-07-29_22h12.16.311,Simcolourproject_2stim_asymm_v5,2020.2.10,Win32,60,61025ae37ef11b136ea224fe,,,,,,,,,3344,-45.59998924,-76.80000758,1,0,0,response5disk,,3,-6.399939823,-0.800006449,1,0,0,rectangle,-6.399939823,-0.800006449,1,0,0,-6.399939823,-0.800006449,1,0,0,0,23,23,90,1,,,,,,,,
,,,,,,,,,,,,,FF,,,,,,,,1.1841,,,,,,,,,,,,,,,,,,,,,,6100a8709599c7ce38d7c4a7,61036de9eb579a8efc685ebe,2021-07-29_22h12.16.311,Simcolourproject_2stim_asymm_v5,2020.2.10,Win32,60,61025ae37ef11b136ea224fe,,,,,,,,,3560,-87.99998987,-46.40000713,1,0,0,response5disk,,2,-5.599988639,-4.000006497,1,0,0,rectangle,-5.599988639,-4.000006497,1,0,0,-5.599988639,-4.000006497,1,0,0,0,24,24,147,1,,,,,,,,
,,,,,,,,,,,,,FF,,,,,,,,1.2172,,,,,,,,,,,,,,,,,,,,,,6100a8709599c7ce38d7c4a7,61036de9eb579a8efc685ebe,2021-07-29_22h12.16.311,Simcolourproject_2stim_asymm_v5,2020.2.10,Win32,60,61025ae37ef11b136ea224fe,,,,,,,,,4212,74.40001255,35.19996967,1,0,0,response1disk,,6,11.20001161,-9.60000658,1,0,0,rectangle,11.20001161,-9.60000658,1,0,0,11.20001161,-9.60000658,1,0,0,0,25,25,141,1,,,,,,,,
,,,,,,,,,,,,,FF,,,,,,,,1.584,,,,,,,,,,,,,,,,,,,,,,6100a8709599c7ce38d7c4a7,61036de9eb579a8efc685ebe,2021-07-29_22h12.16.311,Simcolourproject_2stim_asymm_v5,2020.2.10,Win32,60,61025ae37ef11b136ea224fe,,,,,,,,,2494,82.40001267,-40.00000703,1,0,0,response3disk,,5,17.60006053,-11.2000066,1,0,0,rectangle,17.60006053,-11.2000066,1,0,0,17.60006053,-11.2000066,1,0,0,0,26,26,20,1,,,,,,,,
,,,,,,,,,,,,,FF,,,,,,,,1.8683,,,,,,,,,,,,,,,,,,,,,,6100a8709599c7ce38d7c4a7,61036de9eb579a8efc685ebe,2021-07-29_22h12.16.311,Simcolourproject_2stim_asymm_v5,2020.2.10,Win32,60,61025ae37ef11b136ea224fe,,,,,,,,,1645,47.20001215,74.39999467,1,0,0,response1disk,,7,16.00001168,4.799993634,1,0,0,rectangle,16.00001168,4.799993634,1,0,0,16.00001168,4.799993634,1,0,0,0,27,27,7,1,,,,,,,,
,,,,,,,,,,,,,FF,,,,,,,,0.9667,,,,,,,,,,,,,,,,,,,,,,6100a8709599c7ce38d7c4a7,61036de9eb579a8efc685ebe,2021-07-29_22h12.16.311,Simcolourproject_2stim_asymm_v5,2020.2.10,Win32,60,61025ae37ef11b136ea224fe,,,,,,,,,3319,41.60006089,56.79999441,1,0,0,response1disk,,7,21.60006059,4.799993634,1,0,0,rectangle,21.60006059,4.799993634,1,0,0,21.60006059,4.799993634,1,0,0,0,28,28,158,1,,,,,,,,
,,,,,,,,,,,,,FF,,,,,,,,1.0336,,,,,,,,,,,,,,,,,,,,,,6100a8709599c7ce38d7c4a7,61036de9eb579a8efc685ebe,2021-07-29_22h12.16.311,Simcolourproject_2stim_asymm_v5,2020.2.10,Win32,60,61025ae37ef11b136ea224fe,,,,,,,,,2755,48.00001216,71.99999464,1,0,0,response1disk,,7,7.200011551,-12.00000662,1,0,0,rectangle,7.200011551,-12.00000662,1,0,0,7.200011551,-12.00000662,1,0,0,0,29,29,26,1,,,,,,,,
,,,,,,,,,,,,,FF,,,,,,,,1.7343,,,,,,,,,,,,,,,,,,,,,,6100a8709599c7ce38d7c4a7,61036de9eb579a8efc685ebe,2021-07-29_22h12.16.311,Simcolourproject_2stim_asymm_v5,2020.2.10,Win32,60,61025ae37ef11b136ea224fe,,,,,,,,,1623,57.6000123,31.99999404,1,0,0,response1disk,,6,8.800011575,3.19999361,1,0,0,rectangle,8.800011575,3.19999361,1,0,0,8.800011575,3.19999361,1,0,0,0,30,30,16,1,,,,,,,,
,,,,,,,,,,,,,FF,,,,,,,,0.9453,,,,,,,,,,,,,,,,,,,,,,6100a8709599c7ce38d7c4a7,61036de9eb579a8efc685ebe,2021-07-29_22h12.16.311,Simcolourproject_2stim_asymm_v5,2020.2.10,Win32,60,61025ae37ef11b136ea224fe,,,,,,,,,1259,50.4000122,73.59999466,1,0,0,response1disk,,7,9.600060415,5.599993646,1,0,0,rectangle,9.600060415,5.599993646,1,0,0,9.600060415,5.599993646,1,0,0,0,31,31,78,1,,,,,,,,
,,,,,,,,,,,,,FF,,,,,,,,0.8671,,,,,,,,,,,,,,,,,,,,,,6100a8709599c7ce38d7c4a7,61036de9eb579a8efc685ebe,2021-07-29_22h12.16.311,Simcolourproject_2stim_asymm_v5,2020.2.10,Win32,60,61025ae37ef11b136ea224fe,,,,,,,,,709,46.40001214,75.9999947,1,0,0,response1disk,,7,22.40001178,16.79999381,1,0,0,rectangle,22.40001178,16.79999381,1,0,0,22.40001178,16.79999381,1,0,0,0,32,32,77,1,,,,,,,,
,,,,,,,,,,,,,FF,,,,,,,,1.0338,,,,,,,,,,,,,,,,,,,,,,6100a8709599c7ce38d7c4a7,61036de9eb579a8efc685ebe,2021-07-29_22h12.16.311,Simcolourproject_2stim_asymm_v5,2020.2.10,Win32,60,61025ae37ef11b136ea224fe,,,,,,,,,2692,73.60001254,43.99999422,1,0,0,response1disk,,6,5.600060356,-6.400006533,1,0,0,rectangle,5.600060356,-6.400006533,1,0,0,5.600060356,-6.400006533,1,0,0,0,33,33,50,1,,,,,,,,
,,,,,,,,,,,,,FF,,,,,,,,1.485,,,,,,,,,,,,,,,,,,,,,,6100a8709599c7ce38d7c4a7,61036de9eb579a8efc685ebe,2021-07-29_22h12.16.311,Simcolourproject_2stim_asymm_v5,2020.2.10,Win32,60,61025ae37ef11b136ea224fe,,,,,,,,,3839,48.00001216,-95.20000786,1,0,0,response3disk,,4,12.80001163,-1.600006461,1,0,0,rectangle,12.80001163,-1.600006461,1,0,0,12.80001163,-1.600006461,1,0,0,0,34,34,54,1,,,,,,,,
,,,,,,,,,,,,,FF,,,,,,,,3.0861,,,,,,,,,,,,,,,,,,,,,,6100a8709599c7ce38d7c4a7,61036de9eb579a8efc685ebe,2021-07-29_22h12.16.311,Simcolourproject_2stim_asymm_v5,2020.2.10,Win32,60,61025ae37ef11b136ea224fe,,,,,,,,,3315,84.80001271,-52.00000721,1,0,0,response3disk,,5,19.20001173,-6.4373E-06,1,0,0,rectangle,19.20001173,-6.4373E-06,1,0,0,19.20001173,-6.4373E-06,1,0,0,0,35,35,96,1,,,,,,,,
,,,,,,,,,,,,,FF,,,,,,,,1.2004,,,,,,,,,,,,,,,,,,,,,,6100a8709599c7ce38d7c4a7,61036de9eb579a8efc685ebe,2021-07-29_22h12.16.311,Simcolourproject_2stim_asymm_v5,2020.2.10,Win32,60,61025ae37ef11b136ea224fe,,,,,,,,,7,-34.39994024,-81.60005648,1,0,0,response5disk,,3,4.800011516,-13.60000664,1,0,0,rectangle,4.800011516,-13.60000664,1,0,0,4.800011516,-13.60000664,1,0,0,0,36,36,118,1,,,,,,,,
,,,,,,,,,,,,,FF,,,,,,,,1.4681,,,,,,,,,,,,,,,,,,,,,,6100a8709599c7ce38d7c4a7,61036de9eb579a8efc685ebe,2021-07-29_22h12.16.311,Simcolourproject_2stim_asymm_v5,2020.2.10,Win32,60,61025ae37ef11b136ea224fe,,,,,,,,,4254,-77.59998971,-45.60000712,1,0,0,response5disk,,2,3.200011492,-8.000006557,1,0,0,rectangle,3.200011492,-8.000006557,1,0,0,3.200011492,-8.000006557,1,0,0,0,37,37,18,1,,,,,,,,
,,,,,,,,,,,,,FF,,,,,,,,1.5005,,,,,,,,,,,,,,,,,,,,,,6100a8709599c7ce38d7c4a7,61036de9eb579a8efc685ebe,2021-07-29_22h12.16.311,Simcolourproject_2stim_asymm_v5,2020.2.10,Win32,60,61025ae37ef11b136ea224fe,,,,,,,,,3358,69.60001248,107.9999952,1,0,0,response1disk,,7,8.000011563,-7.200006545,1,0,0,rectangle,8.000011563,-7.200006545,1,0,0,8.000011563,-7.200006545,1,0,0,0,38,38,48,1,,,,,,,,
,,,,,,,,,,,,,FF,,,,,,,,1.5781,,,,,,,,,,,,,,,,,,,,,,6100a8709599c7ce38d7c4a7,61036de9eb579a8efc685ebe,2021-07-29_22h12.16.311,Simcolourproject_2stim_asymm_v5,2020.2.10,Win32,60,61025ae37ef11b136ea224fe,,,,,,,,,1203,-47.99998927,-78.40000761,1,0,0,response5disk,,3,-21.59998888,-8.000006557,1,0,0,rectangle,-21.59998888,-8.000006557,1,0,0,-21.59998888,-8.000006557,1,0,0,0,39,39,159,1,,,,,,,,
,,,,,,,,,,,,,FF,,,,,,,,1.4174,,,,,,,,,,,,,,,,,,,,,,6100a8709599c7ce38d7c4a7,61036de9eb579a8efc685ebe,2021-07-29_22h12.16.311,Simcolourproject_2stim_asymm_v5,2020.2.10,Win32,60,61025ae37ef11b136ea224fe,,,,,,,,,1017,84.80001271,43.19996979,1,0,0,response1disk,,6,11.20001161,-12.00000662,1,0,0,rectangle,11.20001161,-12.00000662,1,0,0,11.20001161,-12.00000662,1,0,0,0,40,40,151,1,,,,,,,,
,,,,,,,,,,,,,FF,,,,,,,,1.5848,,,,,,,,,,,,,,,,,,,,,,6100a8709599c7ce38d7c4a7,61036de9eb579a8efc685ebe,2021-07-29_22h12.16.311,Simcolourproject_2stim_asymm_v5,2020.2.10,Win32,60,61025ae37ef11b136ea224fe,,,,,,,,,1519,73.60001254,49.5999943,1,0,0,response1disk,,6,6.400011539,-1.600006461,1,0,0,rectangle,6.400011539,-1.600006461,1,0,0,6.400011539,-1.600006461,1,0,0,0,41,41,33,1,,,,,,,,
,,,,,,,,,,,,,FF,,,,,,,,1.5676,,,,,,,,,,,,,,,,,,,,,,6100a8709599c7ce38d7c4a7,61036de9eb579a8efc685ebe,2021-07-29_22h12.16.311,Simcolourproject_2stim_asymm_v5,2020.2.10,Win32,60,61025ae37ef11b136ea224fe,,,,,,,,,2207,61.60001236,88.79999489,1,0,0,response1disk,,7,22.40001178,1.599993587,1,0,0,rectangle,112.8000131,52.79999435,1,0,0,12.80001163,-7.200006545,1,0,0,0,42,42,60,1,,response1disk_3,TRUE,6,6,"[278,15,216,205,280,226,214,218,271,175,175,112,50,172,43,292,242,256,211,174]",2.1511,rectangle
,,,,,,,,,,,,,FF,,,,,,,,0.967,,,,,,,,,,,,,,,,,,,,,,6100a8709599c7ce38d7c4a7,61036de9eb579a8efc685ebe,2021-07-29_22h12.16.311,Simcolourproject_2stim_asymm_v5,2020.2.10,Win32,60,61025ae37ef11b136ea224fe,,,,,,,,,860,56.80001229,115.1999709,1,0,0,response1disk,,7,0.800011456,9.599993706,1,0,0,rectangle,0.800011456,9.599993706,1,0,0,0.800011456,9.599993706,1,0,0,0,43,43,120,1,,,,,,,,
,,,,,,,,,,,,,FF,,,,,,,,1.3626,,,,,,,,,,,,,,,,,,,,,,6100a8709599c7ce38d7c4a7,61036de9eb579a8efc685ebe,2021-07-29_22h12.16.311,Simcolourproject_2stim_asymm_v5,2020.2.10,Win32,60,61025ae37ef11b136ea224fe,,,,,,,,,1915,56.00001228,80.79999477,1,0,0,response1disk,,7,17.60006053,8.799993694,1,0,0,rectangle,17.60006053,8.799993694,1,0,0,17.60006053,8.799993694,1,0,0,0,44,44,39,1,,,,,,,,
,,,,,,,,,,,,,FF,,,,,,,,2.0349,,,,,,,,,,,,,,,,,,,,,,6100a8709599c7ce38d7c4a7,61036de9eb579a8efc685ebe,2021-07-29_22h12.16.311,Simcolourproject_2stim_asymm_v5,2020.2.10,Win32,60,61025ae37ef11b136ea224fe,,,,,,,,,1912,45.60006095,19.99999386,1,0,0,response1disk,,6,12.00001162,3.19999361,1,0,0,rectangle,12.00001162,3.19999361,1,0,0,12.00001162,3.19999361,1,0,0,0,45,45,104,1,,,,,,,,
,,,,,,,,,,,,,FF,,,,,,,,1.5675,,,,,,,,,,,,,,,,,,,,,,6100a8709599c7ce38d7c4a7,61036de9eb579a8efc685ebe,2021-07-29_22h12.16.311,Simcolourproject_2stim_asymm_v5,2020.2.10,Win32,60,61025ae37ef11b136ea224fe,,,,,,,,,354,-83.99998981,43.19996979,1,0,0,response7disk,,1,24.0000118,-6.400006533,1,0,0,rectangle,24.0000118,-6.400006533,1,0,0,24.0000118,-6.400006533,1,0,0,0,46,46,101,1,,,,,,,,
,,,,,,,,,,,,,FF,,,,,,,,2.168,,,,,,,,,,,,,,,,,,,,,,6100a8709599c7ce38d7c4a7,61036de9eb579a8efc685ebe,2021-07-29_22h12.16.311,Simcolourproject_2stim_asymm_v5,2020.2.10,Win32,60,61025ae37ef11b136ea224fe,,,,,,,,,4107,52.00001222,-93.60005666,1,0,0,response3disk,,4,-13.59998876,11.99999374,1,0,0,rectangle,-13.59998876,11.99999374,1,0,0,-13.59998876,11.99999374,1,0,0,0,47,47,132,1,,,,,,,,
,,,,,,,,,,,,,FF,,,,,,,,1.0177,,,,,,,,,,,,,,,,,,,,,,6100a8709599c7ce38d7c4a7,61036de9eb579a8efc685ebe,2021-07-29_22h12.16.311,Simcolourproject_2stim_asymm_v5,2020.2.10,Win32,60,61025ae37ef11b136ea224fe,,,,,,,,,877,18.40001172,68.79999459,1,0,0,response1disk,,7,0.800011456,-4.800006509,1,0,0,rectangle,0.800011456,-4.800006509,1,0,0,0.800011456,-4.800006509,1,0,0,0,48,48,106,1,,,,,,,,
,,,,,,,,,,,,,FF,,,,,,,,1.3163,,,,,,,,,,,,,,,,,,,,,,6100a8709599c7ce38d7c4a7,61036de9eb579a8efc685ebe,2021-07-29_22h12.16.311,Simcolourproject_2stim_asymm_v5,2020.2.10,Win32,60,61025ae37ef11b136ea224fe,,,,,,,,,2092,42.40001208,-83.20000768,1,0,0,response3disk,,4,18.40001172,-8.000006557,1,0,0,rectangle,-81.59998977,-28.80000687,1,0,0,-0.799988568,3.19999361,1,0,0,0,49,49,97,1,,response5disk_3,TRUE,2,2,"[278,15,216,205,280,226,214,218,271,175,175,112,50,172,43,292,242,256,211,174]",1.7339,rectangle
,,,,,,,,,,,,,FF,,,,,,,,1.751,,,,,,,,,,,,,,,,,,,,,,6100a8709599c7ce38d7c4a7,61036de9eb579a8efc685ebe,2021-07-29_22h12.16.311,Simcolourproject_2stim_asymm_v5,2020.2.10,Win32,60,61025ae37ef11b136ea224fe,,,,,,,,,2621,-42.39994036,-68.00000745,1,0,0,response5disk,,3,-7.199988663,5.599993646,1,0,0,rectangle,-7.199988663,5.599993646,1,0,0,-7.199988663,5.599993646,1,0,0,0,50,50,150,1,,,,,,,,
,,,,,,,,,,,,,FF,,,,,,,,1.2174,,,,,,,,,,,,,,,,,,,,,,6100a8709599c7ce38d7c4a7,61036de9eb579a8efc685ebe,2021-07-29_22h12.16.311,Simcolourproject_2stim_asymm_v5,2020.2.10,Win32,60,61025ae37ef11b136ea224fe,,,,,,,,,2722,-31.99998903,-56.00000727,1,0,0,response5disk,,3,-3.199988604,-8.800006568,1,0,0,rectangle,-3.199988604,-8.800006568,1,0,0,-3.199988604,-8.800006568,1,0,0,0,51,51,8,1,,,,,,,,
,,,,,,,,,,,,,FF,,,,,,,,1.1014,,,,,,,,,,,,,,,,,,,,,,6100a8709599c7ce38d7c4a7,61036de9eb579a8efc685ebe,2021-07-29_22h12.16.311,Simcolourproject_2stim_asymm_v5,2020.2.10,Win32,60,61025ae37ef11b136ea224fe,,,,,,,,,1542,48.80001217,-99.20000792,1,0,0,response3disk,,4,11.20001161,7.19999367,1,0,0,rectangle,11.20001161,7.19999367,1,0,0,11.20001161,7.19999367,1,0,0,0,52,52,49,1,,,,,,,,
,,,,,,,,,,,,,FF,,,,,,,,0.9843,,,,,,,,,,,,,,,,,,,,,,6100a8709599c7ce38d7c4a7,61036de9eb579a8efc685ebe,2021-07-29_22h12.16.311,Simcolourproject_2stim_asymm_v5,2020.2.10,Win32,60,61025ae37ef11b136ea224fe,,,,,,,,,258,-73.59998965,-31.2000069,1,0,0,response5disk,,2,8.000011563,7.999993682,1,0,0,rectangle,8.000011563,7.999993682,1,0,0,8.000011563,7.999993682,1,0,0,0,53,53,3,1,,,,,,,,
,,,,,,,,,,,,,FF,,,,,,,,0.9443,,,,,,,,,,,,,,,,,,,,,,6100a8709599c7ce38d7c4a7,61036de9eb579a8efc685ebe,2021-07-29_22h12.16.311,Simcolourproject_2stim_asymm_v5,2020.2.10,Win32,60,61025ae37ef11b136ea224fe,,,,,,,,,3267,48.80001217,95.99999499,1,0,0,response1disk,,7,12.80001163,12.79999375,1,0,0,rectangle,12.80001163,12.79999375,1,0,0,12.80001163,12.79999375,1,0,0,0,54,54,4,1,,,,,,,,
,,,,,,,,,,,,,FF,,,,,,,,1.1122,,,,,,,,,,,,,,,,,,,,,,6100a8709599c7ce38d7c4a7,61036de9eb579a8efc685ebe,2021-07-29_22h12.16.311,Simcolourproject_2stim_asymm_v5,2020.2.10,Win32,60,61025ae37ef11b136ea224fe,,,,,,,,,3753,57.6000123,-39.20000702,1,0,0,response3disk,,5,12.80001163,-8.000006557,1,0,0,rectangle,12.80001163,-8.000006557,1,0,0,12.80001163,-8.000006557,1,0,0,0,55,55,115,1,,,,,,,,
,,,,,,,,,,,,,FF,,,,,,,,0.8454,,,,,,,,,,,,,,,,,,,,,,6100a8709599c7ce38d7c4a7,61036de9eb579a8efc685ebe,2021-07-29_22h12.16.311,Simcolourproject_2stim_asymm_v5,2020.2.10,Win32,60,61025ae37ef11b136ea224fe,,,,,,,,,1434,30.4000119,59.99999446,1,0,0,response1disk,,7,-4.799988627,9.599993706,1,0,0,rectangle,-4.799988627,9.599993706,1,0,0,-4.799988627,9.599993706,1,0,0,0,56,56,52,1,,,,,,,,
,,,,,,,,,,,,,FF,,,,,,,,0.9502,,,,,,,,,,,,,,,,,,,,,,6100a8709599c7ce38d7c4a7,61036de9eb579a8efc685ebe,2021-07-29_22h12.16.311,Simcolourproject_2stim_asymm_v5,2020.2.10,Win32,60,61025ae37ef11b136ea224fe,,,,,,,,,31,24.80001181,59.19997003,1,0,0,response1disk,,7,2.40001148,6.399993658,1,0,0,rectangle,2.40001148,6.399993658,1,0,0,2.40001148,6.399993658,1,0,0,0,57,57,45,1,,,,,,,,
,,,,,,,,,,,,,FF,,,,,,,,1.8748,,,,,,,,,,,,,,,,,,,,,,6100a8709599c7ce38d7c4a7,61036de9eb579a8efc685ebe,2021-07-29_22h12.16.311,Simcolourproject_2stim_asymm_v5,2020.2.10,Win32,60,61025ae37ef11b136ea224fe,,,,,,,,,49,32.80001193,64.79999453,1,0,0,response1disk,,7,4.800011516,13.59999377,1,0,0,rectangle,4.800011516,13.59999377,1,0,0,4.800011516,13.59999377,1,0,0,0,58,58,154,1,,,,,,,,
,,,,,,,,,,,,,FF,,,,,,,,1.1001,,,,,,,,,,,,,,,,,,,,,,6100a8709599c7ce38d7c4a7,61036de9eb579a8efc685ebe,2021-07-29_22h12.16.311,Simcolourproject_2stim_asymm_v5,2020.2.10,Win32,60,61025ae37ef11b136ea224fe,,,,,,,,,2889,-53.59998935,-84.8000077,1,0,0,response5disk,,3,-5.599988639,8.799993694,1,0,0,rectangle,-5.599988639,8.799993694,1,0,0,-5.599988639,8.799993694,1,0,0,0,59,59,57,1,,,,,,,,
,,,,,,,,,,,,,FF,,,,,,,,0.979,,,,,,,,,,,,,,,,,,,,,,6100a8709599c7ce38d7c4a7,61036de9eb579a8efc685ebe,2021-07-29_22h12.16.311,Simcolourproject_2stim_asymm_v5,2020.2.10,Win32,60,61025ae37ef11b136ea224fe,,,,,,,,,687,58.40001231,27.19996955,1,0,0,response1disk,,6,36.00001198,10.39999372,1,0,0,rectangle,36.00001198,10.39999372,1,0,0,36.00001198,10.39999372,1,0,0,0,60,60,149,1,,,,,,,,
,,,,,,,,,,,,,FF,,,,,,,,1.7022,,,,,,,,,,,,,,,,,,,,,,6100a8709599c7ce38d7c4a7,61036de9eb579a8efc685ebe,2021-07-29_22h12.16.311,Simcolourproject_2stim_asymm_v5,2020.2.10,Win32,60,61025ae37ef11b136ea224fe,,,,,,,,,3043,90.40001279,43.19996979,1,0,0,response1disk,,6,-11.19998872,-6.400006533,1,0,0,rectangle,-11.19998872,-6.400006533,1,0,0,-11.19998872,-6.400006533,1,0,0,0,61,61,128,1,,,,,,,,
,,,,,,,,,,,,,FF,,,,,,,,2.3966,,,,,,,,,,,,,,,,,,,,,,6100a8709599c7ce38d7c4a7,61036de9eb579a8efc685ebe,2021-07-29_22h12.16.311,Simcolourproject_2stim_asymm_v5,2020.2.10,Win32,60,61025ae37ef11b136ea224fe,,,,,,,,,4080,60.80001235,-33.60000694,1,0,0,response3disk,,5,16.80001169,-7.200006545,1,0,0,rectangle,16.80001169,-7.200006545,1,0,0,16.80001169,-7.200006545,1,0,0,0,62,62,130,1,,,,,,,,
,,,,,,,,,,,,,FF,,,,,,,,1.5839,,,,,,,,,,,,,,,,,,,,,,6100a8709599c7ce38d7c4a7,61036de9eb579a8efc685ebe,2021-07-29_22h12.16.311,Simcolourproject_2stim_asymm_v5,2020.2.10,Win32,60,61025ae37ef11b136ea224fe,,,,,,,,,698,26.40001184,-62.40000737,1,0,0,response3disk,,4,1.600060296,3.999993622,1,0,0,rectangle,1.600060296,3.999993622,1,0,0,1.600060296,3.999993622,1,0,0,0,63,63,29,1,,,,,,,,
,,,,,,,,,,,,,FF,,,,,,,,1.0006,,,,,,,,,,,,,,,,,,,,,,6100a8709599c7ce38d7c4a7,61036de9eb579a8efc685ebe,2021-07-29_22h12.16.311,Simcolourproject_2stim_asymm_v5,2020.2.10,Win32,60,61025ae37ef11b136ea224fe,,,,,,,,,1928,37.60006083,86.39999485,1,0,0,response1disk,,7,4.000011504,11.99999374,1,0,0,rectangle,4.000011504,11.99999374,1,0,0,4.000011504,11.99999374,1,0,0,0,64,64,38,1,,,,,,,,
,,,,,,,,,,,,,FF,,,,,,,,1.0005,,,,,,,,,,,,,,,,,,,,,,6100a8709599c7ce38d7c4a7,61036de9eb579a8efc685ebe,2021-07-29_22h12.16.311,Simcolourproject_2stim_asymm_v5,2020.2.10,Win32,60,61025ae37ef11b136ea224fe,,,,,,,,,3406,75.20001256,47.19996985,1,0,0,response1disk,,6,-11.19998872,-0.800006449,1,0,0,rectangle,-11.19998872,-0.800006449,1,0,0,-11.19998872,-0.800006449,1,0,0,0,65,65,117,1,,,,,,,,
,,,,,,,,,,,,,FF,,,,,,,,1.4507,,,,,,,,,,,,,,,,,,,,,,6100a8709599c7ce38d7c4a7,61036de9eb579a8efc685ebe,2021-07-29_22h12.16.311,Simcolourproject_2stim_asymm_v5,2020.2.10,Win32,60,61025ae37ef11b136ea224fe,,,,,,,,,3935,54.40001225,-94.40000784,1,0,0,response3disk,,4,25.60006065,-8.000006557,1,0,0,rectangle,25.60006065,-8.000006557,1,0,0,25.60006065,-8.000006557,1,0,0,0,66,66,56,1,,,,,,,,
,,,,,,,,,,,,,FF,,,,,,,,1.3677,,,,,,,,,,,,,,,,,,,,,,6100a8709599c7ce38d7c4a7,61036de9eb579a8efc685ebe,2021-07-29_22h12.16.311,Simcolourproject_2stim_asymm_v5,2020.2.10,Win32,60,61025ae37ef11b136ea224fe,,,,,,,,,742,64.0000124,39.19996973,1,0,0,response1disk,,6,18.40001172,9.599993706,1,0,0,rectangle,18.40001172,9.599993706,1,0,0,18.40001172,9.599993706,1,0,0,0,67,67,95,1,,,,,,,,
,,,,,,,,,,,,,FF,,,,,,,,2.0678,,,,,,,,,,,,,,,,,,,,,,6100a8709599c7ce38d7c4a7,61036de9eb579a8efc685ebe,2021-07-29_22h12.16.311,Simcolourproject_2stim_asymm_v5,2020.2.10,Win32,60,61025ae37ef11b136ea224fe,,,,,,,,,868,65.60001242,23.99999392,1,0,0,response1disk,,6,8.000011563,3.19999361,1,0,0,rectangle,8.000011563,3.19999361,1,0,0,8.000011563,3.19999361,1,0,0,0,68,68,89,1,,,,,,,,
,,,,,,,,,,,,,FF,,,,,,,,0.9668,,,,,,,,,,,,,,,,,,,,,,6100a8709599c7ce38d7c4a7,61036de9eb579a8efc685ebe,2021-07-29_22h12.16.311,Simcolourproject_2stim_asymm_v5,2020.2.10,Win32,60,61025ae37ef11b136ea224fe,,,,,,,,,1524,-23.99998891,-56.00000727,1,0,0,response5disk,,3,4.800011516,4.799993634,1,0,0,rectangle,4.800011516,4.799993634,1,0,0,4.800011516,4.799993634,1,0,0,0,69,69,122,1,,,,,,,,
,,,,,,,,,,,,,FF,,,,,,,,1.4006,,,,,,,,,,,,,,,,,,,,,,6100a8709599c7ce38d7c4a7,61036de9eb579a8efc685ebe,2021-07-29_22h12.16.311,Simcolourproject_2stim_asymm_v5,2020.2.10,Win32,60,61025ae37ef11b136ea224fe,,,,,,,,,1334,82.40001267,31.19996961,1,0,0,response1disk,,6,4.000011504,-12.00000662,1,0,0,rectangle,4.000011504,-12.00000662,1,0,0,4.000011504,-12.00000662,1,0,0,0,70,70,41,1,,,,,,,,
,,,,,,,,,,,,,FF,,,,,,,,0.9666,,,,,,,,,,,,,,,,,,,,,,6100a8709599c7ce38d7c4a7,61036de9eb579a8efc685ebe,2021-07-29_22h12.16.311,Simcolourproject_2stim_asymm_v5,2020.2.10,Win32,60,61025ae37ef11b136ea224fe,,,,,,,,,2506,30.4000119,55.9999944,1,0,0,response1disk,,7,13.60006047,16.79999381,1,0,0,rectangle,13.60006047,16.79999381,1,0,0,13.60006047,16.79999381,1,0,0,0,71,71,93,1,,,,,,,,
,,,,,,,,,,,,,FF,,,,,,,,1.3791,,,,,,,,,,,,,,,,,,,,,,6100a8709599c7ce38d7c4a7,61036de9eb579a8efc685ebe,2021-07-29_22h12.16.311,Simcolourproject_2stim_asymm_v5,2020.2.10,Win32,60,61025ae37ef11b136ea224fe,,,,,,,,,3518,-81.59998977,-38.40000701,1,0,0,response5disk,,2,0.800011456,-11.2000066,1,0,0,rectangle,0.800011456,-11.2000066,1,0,0,0.800011456,-11.2000066,1,0,0,0,72,72,123,1,,,,,,,,
,,,,,,,,,,,,,FF,,,,,,,,1.5006,,,,,,,,,,,,,,,,,,,,,,6100a8709599c7ce38d7c4a7,61036de9eb579a8efc685ebe,2021-07-29_22h12.16.311,Simcolourproject_2stim_asymm_v5,2020.2.10,Win32,60,61025ae37ef11b136ea224fe,,,,,,,,,115,99.20001292,33.59999406,1,0,0,response1disk,,6,8.000011563,15.19999379,1,0,0,rectangle,8.000011563,15.19999379,1,0,0,8.000011563,15.19999379,1,0,0,0,73,73,23,1,,,,,,,,
,,,,,,,,,,,,,FF,,,,,,,,1.011,,,,,,,,,,,,,,,,,,,,,,6100a8709599c7ce38d7c4a7,61036de9eb579a8efc685ebe,2021-07-29_22h12.16.311,Simcolourproject_2stim_asymm_v5,2020.2.10,Win32,60,61025ae37ef11b136ea224fe,,,,,,,,,3686,84.0000127,-41.60000706,1,0,0,response3disk,,5,16.00001168,-6.4373E-06,1,0,0,rectangle,16.00001168,-6.4373E-06,1,0,0,16.00001168,-6.4373E-06,1,0,0,0,74,74,51,1,,,,,,,,
,,,,,,,,,,,,,FF,,,,,,,,1.6671,,,,,,,,,,,,,,,,,,,,,,6100a8709599c7ce38d7c4a7,61036de9eb579a8efc685ebe,2021-07-29_22h12.16.311,Simcolourproject_2stim_asymm_v5,2020.2.10,Win32,60,61025ae37ef11b136ea224fe,,,,,,,,,4218,-55.19998938,74.39999467,1,0,0,response7disk,,0,-9.599988699,-8.000006557,1,0,0,rectangle,-9.599988699,-8.000006557,1,0,0,-9.599988699,-8.000006557,1,0,0,0,75,75,107,1,,,,,,,,
,,,,,,,,,,,,,FF,,,,,,,,1.2289,,,,,,,,,,,,,,,,,,,,,,6100a8709599c7ce38d7c4a7,61036de9eb579a8efc685ebe,2021-07-29_22h12.16.311,Simcolourproject_2stim_asymm_v5,2020.2.10,Win32,60,61025ae37ef11b136ea224fe,,,,,,,,,2260,84.0000127,41.59999418,1,0,0,response1disk,,6,1.14441E-05,-1.600006461,1,0,0,rectangle,1.14441E-05,-1.600006461,1,0,0,1.14441E-05,-1.600006461,1,0,0,0,76,76,156,1,,,,,,,,
,,,,,,,,,,,,,FF,,,,,,,,3.1688,,,,,,,,,,,,,,,,,,,,,,6100a8709599c7ce38d7c4a7,61036de9eb579a8efc685ebe,2021-07-29_22h12.16.311,Simcolourproject_2stim_asymm_v5,2020.2.10,Win32,60,61025ae37ef11b136ea224fe,,,,,,,,,679,87.20001274,70.39999461,1,0,0,response1disk,,6,1.14441E-05,15.19999379,1,0,0,rectangle,1.14441E-05,15.19999379,1,0,0,1.14441E-05,15.19999379,1,0,0,0,77,77,21,1,,,,,,,,
,,,,,,,,,,,,,FF,,,,,,,,1.8008,,,,,,,,,,,,,,,,,,,,,,6100a8709599c7ce38d7c4a7,61036de9eb579a8efc685ebe,2021-07-29_22h12.16.311,Simcolourproject_2stim_asymm_v5,2020.2.10,Win32,60,61025ae37ef11b136ea224fe,,,,,,,,,378,59.20001233,18.39999384,1,0,0,response1disk,,6,11.20001161,2.399993598,1,0,0,rectangle,11.20001161,2.399993598,1,0,0,11.20001161,2.399993598,1,0,0,0,78,78,42,1,,,,,,,,
,,,,,,,,,,,,,FF,,,,,,,,1.0117,,,,,,,,,,,,,,,,,,,,,,6100a8709599c7ce38d7c4a7,61036de9eb579a8efc685ebe,2021-07-29_22h12.16.311,Simcolourproject_2stim_asymm_v5,2020.2.10,Win32,60,61025ae37ef11b136ea224fe,,,,,,,,,2874,115.2000132,39.19996973,1,0,0,response1disk,,6,-5.599988639,-4.000006497,1,0,0,rectangle,-5.599988639,-4.000006497,1,0,0,-5.599988639,-4.000006497,1,0,0,0,79,79,59,1,,,,,,,,
,,,,,,,,,,,,,FF,,,,,,,,0.8337,,,,,,,,,,,,,,,,,,,,,,6100a8709599c7ce38d7c4a7,61036de9eb579a8efc685ebe,2021-07-29_22h12.16.311,Simcolourproject_2stim_asymm_v5,2020.2.10,Win32,60,61025ae37ef11b136ea224fe,,,,,,,,,929,63.20001239,94.39999497,1,0,0,response1disk,,7,4.000011504,-16.00000668,1,0,0,rectangle,4.000011504,-16.00000668,1,0,0,4.000011504,-16.00000668,1,0,0,0,80,80,111,1,,,,,,,,
,,,,,,,,,,,,,FF,,,,,,,,1.334,,,,,,,,,,,,,,,,,,,,,,6100a8709599c7ce38d7c4a7,61036de9eb579a8efc685ebe,2021-07-29_22h12.16.311,Simcolourproject_2stim_asymm_v5,2020.2.10,Win32,60,61025ae37ef11b136ea224fe,,,,,,,,,3538,39.20001203,75.19997027,1,0,0,response1disk,,7,8.000011563,-4.000006497,1,0,0,rectangle,8.000011563,-4.000006497,1,0,0,8.000011563,-4.000006497,1,0,0,0,81,81,63,1,,,,,,,,
,,,,,,,,,,,,,FF,,,,,,,,1.1005,,,,,,,,,,,,,,,,,,,,,,6100a8709599c7ce38d7c4a7,61036de9eb579a8efc685ebe,2021-07-29_22h12.16.311,Simcolourproject_2stim_asymm_v5,2020.2.10,Win32,60,61025ae37ef11b136ea224fe,,,,,,,,,1493,60.00001234,17.59999382,1,0,0,response1disk,,6,-9.599988699,3.999993622,1,0,0,rectangle,-9.599988699,3.999993622,1,0,0,-9.599988699,3.999993622,1,0,0,0,82,82,25,1,,,,,,,,
,,,,,,,,,,,,,FF,,,,,,,,1.0334,,,,,,,,,,,,,,,,,,,,,,6100a8709599c7ce38d7c4a7,61036de9eb579a8efc685ebe,2021-07-29_22h12.16.311,Simcolourproject_2stim_asymm_v5,2020.2.10,Win32,60,61025ae37ef11b136ea224fe,,,,,,,,,3226,61.60001236,29.599994,1,0,0,response1disk,,6,15.20001167,2.399993598,1,0,0,rectangle,15.20001167,2.399993598,1,0,0,15.20001167,2.399993598,1,0,0,0,83,83,24,1,,,,,,,,
,,,,,,,,,,,,,FF,,,,,,,,1.0398,,,,,,,,,,,,,,,,,,,,,,6100a8709599c7ce38d7c4a7,61036de9eb579a8efc685ebe,2021-07-29_22h12.16.311,Simcolourproject_2stim_asymm_v5,2020.2.10,Win32,60,61025ae37ef11b136ea224fe,,,,,,,,,3858,44.80001211,-77.60000759,1,0,0,response3disk,,4,25.60006065,-4.800006509,1,0,0,rectangle,25.60006065,-4.800006509,1,0,0,25.60006065,-4.800006509,1,0,0,0,84,84,131,1,,,,,,,,
,,,,,,,,,,,,,FF,,,,,,,,1.0847,,,,,,,,,,,,,,,,,,,,,,6100a8709599c7ce38d7c4a7,61036de9eb579a8efc685ebe,2021-07-29_22h12.16.311,Simcolourproject_2stim_asymm_v5,2020.2.10,Win32,60,61025ae37ef11b136ea224fe,,,,,,,,,2988,-51.19998932,-57.6000073,1,0,0,response5disk,,3,-21.59998888,-6.400006533,1,0,0,rectangle,-21.59998888,-6.400006533,1,0,0,-21.59998888,-6.400006533,1,0,0,0,85,85,83,1,,,,,,,,
,,,,,,,,,,,,,FF,,,,,,,,1.2003,,,,,,,,,,,,,,,,,,,,,,6100a8709599c7ce38d7c4a7,61036de9eb579a8efc685ebe,2021-07-29_22h12.16.311,Simcolourproject_2stim_asymm_v5,2020.2.10,Win32,60,61025ae37ef11b136ea224fe,,,,,,,,,4273,52.00001222,-44.00000709,1,0,0,response3disk,,5,8.000011563,-8.000006557,1,0,0,rectangle,8.000011563,-8.000006557,1,0,0,8.000011563,-8.000006557,1,0,0,0,86,86,73,1,,,,,,,,
,,,,,,,,,,,,,FF,,,,,,,,1.1841,,,,,,,,,,,,,,,,,,,,,,6100a8709599c7ce38d7c4a7,61036de9eb579a8efc685ebe,2021-07-29_22h12.16.311,Simcolourproject_2stim_asymm_v5,2020.2.10,Win32,60,61025ae37ef11b136ea224fe,,,,,,,,,2253,83.20001268,49.5999943,1,0,0,response1disk,,6,1.600060296,-4.000006497,1,0,0,rectangle,1.600060296,-4.000006497,1,0,0,1.600060296,-4.000006497,1,0,0,0,87,87,113,1,,,,,,,,
,,,,,,,,,,,,,FF,,,,,,,,1.9015,,,,,,,,,,,,,,,,,,,,,,6100a8709599c7ce38d7c4a7,61036de9eb579a8efc685ebe,2021-07-29_22h12.16.311,Simcolourproject_2stim_asymm_v5,2020.2.10,Win32,60,61025ae37ef11b136ea224fe,,,,,,,,,2676,74.40001255,39.19996973,1,0,0,response1disk,,6,4.000011504,13.59999377,1,0,0,rectangle,4.000011504,13.59999377,1,0,0,4.000011504,13.59999377,1,0,0,0,88,88,137,1,,,,,,,,
,,,,,,,,,,,,,FF,,,,,,,,1.0241,,,,,,,,,,,,,,,,,,,,,,6100a8709599c7ce38d7c4a7,61036de9eb579a8efc685ebe,2021-07-29_22h12.16.311,Simcolourproject_2stim_asymm_v5,2020.2.10,Win32,60,61025ae37ef11b136ea224fe,,,,,,,,,663,30.4000119,82.39999479,1,0,0,response1disk,,7,2.40001148,3.19999361,1,0,0,rectangle,2.40001148,3.19999361,1,0,0,2.40001148,3.19999361,1,0,0,0,89,89,11,1,,,,,,,,
,,,,,,,,,,,,,FF,,,,,,,,1.1335,,,,,,,,,,,,,,,,,,,,,,6100a8709599c7ce38d7c4a7,61036de9eb579a8efc685ebe,2021-07-29_22h12.16.311,Simcolourproject_2stim_asymm_v5,2020.2.10,Win32,60,61025ae37ef11b136ea224fe,,,,,,,,,3435,-62.39994066,-115.2000082,1,0,0,response5disk,,3,-7.199988663,-0.800006449,1,0,0,rectangle,-7.199988663,-0.800006449,1,0,0,-7.199988663,-0.800006449,1,0,0,0,90,90,112,1,,,,,,,,
,,,,,,,,,,,,,FF,,,,,,,,1.4674,,,,,,,,,,,,,,,,,,,,,,6100a8709599c7ce38d7c4a7,61036de9eb579a8efc685ebe,2021-07-29_22h12.16.311,Simcolourproject_2stim_asymm_v5,2020.2.10,Win32,60,61025ae37ef11b136ea224fe,,,,,,,,,4275,90.40001279,-49.60000718,1,0,0,response3disk,,5,14.40001166,-4.800006509,1,0,0,rectangle,14.40001166,-4.800006509,1,0,0,14.40001166,-4.800006509,1,0,0,0,91,91,103,1,,,,,,,,
,,,,,,,,,,,,,FF,,,,,,,,1.111,,,,,,,,,,,,,,,,,,,,,,6100a8709599c7ce38d7c4a7,61036de9eb579a8efc685ebe,2021-07-29_22h12.16.311,Simcolourproject_2stim_asymm_v5,2020.2.10,Win32,60,61025ae37ef11b136ea224fe,,,,,,,,,1049,30.4000119,92.79999495,1,0,0,response1disk,,7,-1.59998858,3.19999361,1,0,0,rectangle,-1.59998858,3.19999361,1,0,0,-1.59998858,3.19999361,1,0,0,0,92,92,134,1,,,,,,,,
,,,,,,,,,,,,,FF,,,,,,,,1.4006,,,,,,,,,,,,,,,,,,,,,,6100a8709599c7ce38d7c4a7,61036de9eb579a8efc685ebe,2021-07-29_22h12.16.311,Simcolourproject_2stim_asymm_v5,2020.2.10,Win32,60,61025ae37ef11b136ea224fe,,,,,,,,,1166,52.80001223,-116.8000082,1,0,0,response3disk,,4,9.600060415,-6.400006533,1,0,0,rectangle,9.600060415,-6.400006533,1,0,0,9.600060415,-6.400006533,1,0,0,0,93,93,86,1,,,,,,,,
,,,,,,,,,,,,,FF,,,,,,,,1.0667,,,,,,,,,,,,,,,,,,,,,,6100a8709599c7ce38d7c4a7,61036de9eb579a8efc685ebe,2021-07-29_22h12.16.311,Simcolourproject_2stim_asymm_v5,2020.2.10,Win32,60,61025ae37ef11b136ea224fe,,,,,,,,,3939,-32.79998904,-68.80000746,1,0,0,response5disk,,3,4.800011516,7.999993682,1,0,0,rectangle,4.800011516,7.999993682,1,0,0,4.800011516,7.999993682,1,0,0,0,94,94,14,1,,,,,,,,
,,,,,,,,,,,,,FF,,,,,,,,1.2845,,,,,,,,,,,,,,,,,,,,,,6100a8709599c7ce38d7c4a7,61036de9eb579a8efc685ebe,2021-07-29_22h12.16.311,Simcolourproject_2stim_asymm_v5,2020.2.10,Win32,60,61025ae37ef11b136ea224fe,,,,,,,,,2595,39.20001203,-112.0000081,1,0,0,response3disk,,4,2.40001148,1.599993587,1,0,0,rectangle,2.40001148,1.599993587,1,0,0,2.40001148,1.599993587,1,0,0,0,95,95,119,1,,,,,,,,
,,,,,,,,,,,,,FF,,,,,,,,1.1346,,,,,,,,,,,,,,,,,,,,,,6100a8709599c7ce38d7c4a7,61036de9eb579a8efc685ebe,2021-07-29_22h12.16.311,Simcolourproject_2stim_asymm_v5,2020.2.10,Win32,60,61025ae37ef11b136ea224fe,,,,,,,,,2267,56.00001228,96.79999501,1,0,0,response1disk,,7,0.800011456,-0.800006449,1,0,0,rectangle,0.800011456,-0.800006449,1,0,0,0.800011456,-0.800006449,1,0,0,0,96,96,0,1,,,,,,,,
,,,,,,,,,,,,,FF,,,,,,,,1.0841,,,,,,,,,,,,,,,,,,,,,,6100a8709599c7ce38d7c4a7,61036de9eb579a8efc685ebe,2021-07-29_22h12.16.311,Simcolourproject_2stim_asymm_v5,2020.2.10,Win32,60,61025ae37ef11b136ea224fe,,,,,,,,,3111,56.80001229,38.39999413,1,0,0,response1disk,,6,-9.599988699,-3.200006485,1,0,0,rectangle,-9.599988699,-3.200006485,1,0,0,-9.599988699,-3.200006485,1,0,0,0,97,97,61,1,,,,,,,,
,,,,,,,,,,,,,FF,,,,,,,,1.5506,,,,,,,,,,,,,,,,,,,,,,6100a8709599c7ce38d7c4a7,61036de9eb579a8efc685ebe,2021-07-29_22h12.16.311,Simcolourproject_2stim_asymm_v5,2020.2.10,Win32,60,61025ae37ef11b136ea224fe,,,,,,,,,4204,-36.7999891,-94.40000784,1,0,0,response5disk,,3,-15.19998878,-3.200006485,1,0,0,rectangle,-15.19998878,-3.200006485,1,0,0,-15.19998878,-3.200006485,1,0,0,0,98,98,99,1,,,,,,,,
,,,,,,,,,,,,,FF,,,,,,,,1.6522,,,,,,,,,,,,,,,,,,,,,,6100a8709599c7ce38d7c4a7,61036de9eb579a8efc685ebe,2021-07-29_22h12.16.311,Simcolourproject_2stim_asymm_v5,2020.2.10,Win32,60,61025ae37ef11b136ea224fe,,,,,,,,,3684,72.80001253,-56.80000728,1,0,0,response3disk,,5,10.4000116,-0.800006449,1,0,0,rectangle,10.4000116,-0.800006449,1,0,0,10.4000116,-0.800006449,1,0,0,0,99,99,6,1,,,,,,,,
,,,,,,,,,,,,,FF,,,,,,,,1.4179,,,,,,,,,,,,,,,,,,,,,,6100a8709599c7ce38d7c4a7,61036de9eb579a8efc685ebe,2021-07-29_22h12.16.311,Simcolourproject_2stim_asymm_v5,2020.2.10,Win32,60,61025ae37ef11b136ea224fe,,,,,,,,,3016,47.20001215,110.3999952,1,0,0,response1disk,,7,1.14441E-05,-6.400006533,1,0,0,rectangle,1.14441E-05,-6.400006533,1,0,0,1.14441E-05,-6.400006533,1,0,0,0,100,100,87,1,,,,,,,,
,,,,,,,,,,,,,FF,,,,,,,,1.1505,,,,,,,,,,,,,,,,,,,,,,6100a8709599c7ce38d7c4a7,61036de9eb579a8efc685ebe,2021-07-29_22h12.16.311,Simcolourproject_2stim_asymm_v5,2020.2.10,Win32,60,61025ae37ef11b136ea224fe,,,,,,,,,3209,66.40001243,-44.8000071,1,0,0,response3disk,,5,20.80001175,-7.200006545,1,0,0,rectangle,20.80001175,-7.200006545,1,0,0,20.80001175,-7.200006545,1,0,0,0,101,101,36,1,,,,,,,,
,,,,,,,,,,,,,FF,,,,,,,,1.0006,,,,,,,,,,,,,,,,,,,,,,6100a8709599c7ce38d7c4a7,61036de9eb579a8efc685ebe,2021-07-29_22h12.16.311,Simcolourproject_2stim_asymm_v5,2020.2.10,Win32,60,61025ae37ef11b136ea224fe,,,,,,,,,3493,47.20001215,81.59999478,1,0,0,response1disk,,7,13.60006047,3.999993622,1,0,0,rectangle,13.60006047,3.999993622,1,0,0,13.60006047,3.999993622,1,0,0,0,102,102,44,1,,,,,,,,
,,,,,,,,,,,,,FF,,,,,,,,1.3009,,,,,,,,,,,,,,,,,,,,,,6100a8709599c7ce38d7c4a7,61036de9eb579a8efc685ebe,2021-07-29_22h12.16.311,Simcolourproject_2stim_asymm_v5,2020.2.10,Win32,60,61025ae37ef11b136ea224fe,,,,,,,,,3670,-98.39994119,-42.40000707,1,0,0,response5disk,,2,-11.99998873,8.799993694,1,0,0,rectangle,-11.99998873,8.799993694,1,0,0,-11.99998873,8.799993694,1,0,0,0,103,103,139,1,,,,,,,,
,,,,,,,,,,,,,FF,,,,,,,,1.389,,,,,,,,,,,,,,,,,,,,,,6100a8709599c7ce38d7c4a7,61036de9eb579a8efc685ebe,2021-07-29_22h12.16.311,Simcolourproject_2stim_asymm_v5,2020.2.10,Win32,60,61025ae37ef11b136ea224fe,,,,,,,,,2041,92.80001283,-54.40000725,1,0,0,response3disk,,5,14.40001166,3.999993622,1,0,0,rectangle,14.40001166,3.999993622,1,0,0,14.40001166,3.999993622,1,0,0,0,104,104,53,1,,,,,,,,
,,,,,,,,,,,,,FF,,,,,,,,0.7796,,,,,,,,,,,,,,,,,,,,,,6100a8709599c7ce38d7c4a7,61036de9eb579a8efc685ebe,2021-07-29_22h12.16.311,Simcolourproject_2stim_asymm_v5,2020.2.10,Win32,60,61025ae37ef11b136ea224fe,,,,,,,,,1724,40.00001204,114.3999953,1,0,0,response1disk,,7,-3.999988616,11.99999374,1,0,0,rectangle,-3.999988616,11.99999374,1,0,0,-3.999988616,11.99999374,1,0,0,0,105,105,17,1,,,,,,,,
,,,,,,,,,,,,,FF,,,,,,,,1.1609,,,,,,,,,,,,,,,,,,,,,,6100a8709599c7ce38d7c4a7,61036de9eb579a8efc685ebe,2021-07-29_22h12.16.311,Simcolourproject_2stim_asymm_v5,2020.2.10,Win32,60,61025ae37ef11b136ea224fe,,,,,,,,,3504,40.80001205,-78.40000761,1,0,0,response3disk,,4,16.00001168,11.99999374,1,0,0,rectangle,16.00001168,11.99999374,1,0,0,16.00001168,11.99999374,1,0,0,0,106,106,55,1,,,,,,,,
,,,,,,,,,,,,,FF,,,,,,,,1.7175,,,,,,,,,,,,,,,,,,,,,,6100a8709599c7ce38d7c4a7,61036de9eb579a8efc685ebe,2021-07-29_22h12.16.311,Simcolourproject_2stim_asymm_v5,2020.2.10,Win32,60,61025ae37ef11b136ea224fe,,,,,,,,,10,60.00001234,-40.80000705,1,0,0,response3disk,,5,12.80001163,-7.200006545,1,0,0,rectangle,12.80001163,-7.200006545,1,0,0,12.80001163,-7.200006545,1,0,0,0,107,107,46,1,,,,,,,,
,,,,,,,,,,,,,FF,,,,,,,,0.95,,,,,,,,,,,,,,,,,,,,,,6100a8709599c7ce38d7c4a7,61036de9eb579a8efc685ebe,2021-07-29_22h12.16.311,Simcolourproject_2stim_asymm_v5,2020.2.10,Win32,60,61025ae37ef11b136ea224fe,,,,,,,,,2502,26.40001184,55.9999944,1,0,0,response1disk,,7,8.800011575,1.599993587,1,0,0,rectangle,8.800011575,1.599993587,1,0,0,8.800011575,1.599993587,1,0,0,0,108,108,31,1,,,,,,,,
,,,,,,,,,,,,,FF,,,,,,,,1.2171,,,,,,,,,,,,,,,,,,,,,,6100a8709599c7ce38d7c4a7,61036de9eb579a8efc685ebe,2021-07-29_22h12.16.311,Simcolourproject_2stim_asymm_v5,2020.2.10,Win32,60,61025ae37ef11b136ea224fe,,,,,,,,,3088,-47.19998926,-94.40000784,1,0,0,response5disk,,3,0.800011456,11.99999374,1,0,0,rectangle,0.800011456,11.99999374,1,0,0,0.800011456,11.99999374,1,0,0,0,109,109,108,1,,,,,,,,
,,,,,,,,,,,,,FF,,,,,,,,1.1665,,,,,,,,,,,,,,,,,,,,,,6100a8709599c7ce38d7c4a7,61036de9eb579a8efc685ebe,2021-07-29_22h12.16.311,Simcolourproject_2stim_asymm_v5,2020.2.10,Win32,60,61025ae37ef11b136ea224fe,,,,,,,,,2557,96.80001289,34.39999408,1,0,0,response1disk,,6,1.14441E-05,-5.600006521,1,0,0,rectangle,1.14441E-05,-5.600006521,1,0,0,1.14441E-05,-5.600006521,1,0,0,0,110,110,121,1,,,,,,,,
,,,,,,,,,,,,,FF,,,,,,,,0.8678,,,,,,,,,,,,,,,,,,,,,,6100a8709599c7ce38d7c4a7,61036de9eb579a8efc685ebe,2021-07-29_22h12.16.311,Simcolourproject_2stim_asymm_v5,2020.2.10,Win32,60,61025ae37ef11b136ea224fe,,,,,,,,,3265,32.80001193,48.79999429,1,0,0,response1disk,,7,15.20001167,-4.000006497,1,0,0,rectangle,52.00001222,-94.40000784,1,0,0,4.000011504,4.799993634,1,0,0,0,111,111,100,1,,response3disk_3,TRUE,4,4,"[278,15,216,205,280,226,214,218,271,175,175,112,50,172,43,292,242,256,211,174]",1.8673,rectangle
,,,,,,,,,,,,,FF,,,,,,,,1.7184,,,,,,,,,,,,,,,,,,,,,,6100a8709599c7ce38d7c4a7,61036de9eb579a8efc685ebe,2021-07-29_22h12.16.311,Simcolourproject_2stim_asymm_v5,2020.2.10,Win32,60,61025ae37ef11b136ea224fe,,,,,,,,,1150,-21.59998888,-110.4000081,1,0,0,response5disk,,3,22.40001178,0.799993575,1,0,0,rectangle,22.40001178,0.799993575,1,0,0,22.40001178,0.799993575,1,0,0,0,112,112,157,1,,,,,,,,
,,,,,,,,,,,,,FF,,,,,,,,1.1179,,,,,,,,,,,,,,,,,,,,,,6100a8709599c7ce38d7c4a7,61036de9eb579a8efc685ebe,2021-07-29_22h12.16.311,Simcolourproject_2stim_asymm_v5,2020.2.10,Win32,60,61025ae37ef11b136ea224fe,,,,,,,,,1792,62.40001237,31.19996961,1,0,0,response1disk,,6,22.40001178,6.399993658,1,0,0,rectangle,22.40001178,6.399993658,1,0,0,22.40001178,6.399993658,1,0,0,0,113,113,37,1,,,,,,,,
,,,,,,,,,,,,,FF,,,,,,,,1.0501,,,,,,,,,,,,,,,,,,,,,,6100a8709599c7ce38d7c4a7,61036de9eb579a8efc685ebe,2021-07-29_22h12.16.311,Simcolourproject_2stim_asymm_v5,2020.2.10,Win32,60,61025ae37ef11b136ea224fe,,,,,,,,,1671,28.00001186,-88.00000775,1,0,0,response3disk,,4,1.600060296,3.19999361,1,0,0,rectangle,1.600060296,3.19999361,1,0,0,1.600060296,3.19999361,1,0,0,0,114,114,12,1,,,,,,,,
,,,,,,,,,,,,,FF,,,,,,,,0.867,,,,,,,,,,,,,,,,,,,,,,6100a8709599c7ce38d7c4a7,61036de9eb579a8efc685ebe,2021-07-29_22h12.16.311,Simcolourproject_2stim_asymm_v5,2020.2.10,Win32,60,61025ae37ef11b136ea224fe,,,,,,,,,3034,36.00001198,67.19997015,1,0,0,response1disk,,7,9.600060415,16.79999381,1,0,0,rectangle,9.600060415,16.79999381,1,0,0,9.600060415,16.79999381,1,0,0,0,115,115,135,1,,,,,,,,
,,,,,,,,,,,,,FF,,,,,,,,1.0503,,,,,,,,,,,,,,,,,,,,,,6100a8709599c7ce38d7c4a7,61036de9eb579a8efc685ebe,2021-07-29_22h12.16.311,Simcolourproject_2stim_asymm_v5,2020.2.10,Win32,60,61025ae37ef11b136ea224fe,,,,,,,,,3982,90.40001279,-54.40000725,1,0,0,response3disk,,5,34.40001196,-12.00000662,1,0,0,rectangle,34.40001196,-12.00000662,1,0,0,34.40001196,-12.00000662,1,0,0,0,116,116,5,1,,,,,,,,
,,,,,,,,,,,,,FF,,,,,,,,1.1848,,,,,,,,,,,,,,,,,,,,,,6100a8709599c7ce38d7c4a7,61036de9eb579a8efc685ebe,2021-07-29_22h12.16.311,Simcolourproject_2stim_asymm_v5,2020.2.10,Win32,60,61025ae37ef11b136ea224fe,,,,,,,,,4129,-35.99998909,-72.80000752,1,0,0,response5disk,,3,-9.599988699,-6.4373E-06,1,0,0,rectangle,-9.599988699,-6.4373E-06,1,0,0,-9.599988699,-6.4373E-06,1,0,0,0,117,117,74,1,,,,,,,,
,,,,,,,,,,,,,FF,,,,,,,,0.817,,,,,,,,,,,,,,,,,,,,,,6100a8709599c7ce38d7c4a7,61036de9eb579a8efc685ebe,2021-07-29_22h12.16.311,Simcolourproject_2stim_asymm_v5,2020.2.10,Win32,60,61025ae37ef11b136ea224fe,,,,,,,,,558,28.00001186,60.79999447,1,0,0,response1disk,,7,8.000011563,14.39999378,1,0,0,rectangle,8.000011563,14.39999378,1,0,0,8.000011563,14.39999378,1,0,0,0,118,118,66,1,,,,,,,,
,,,,,,,,,,,,,FF,,,,,,,,1.0844,,,,,,,,,,,,,,,,,,,,,,6100a8709599c7ce38d7c4a7,61036de9eb579a8efc685ebe,2021-07-29_22h12.16.311,Simcolourproject_2stim_asymm_v5,2020.2.10,Win32,60,61025ae37ef11b136ea224fe,,,,,,,,,159,59.20001233,-25.60000682,1,0,0,response3disk,,5,2.40001148,-0.800006449,1,0,0,rectangle,2.40001148,-0.800006449,1,0,0,2.40001148,-0.800006449,1,0,0,0,119,119,30,1,,,,,,,,
,,,,,,,,,,,,,FF,,,,,,,,0.8335,,,,,,,,,,,,,,,,,,,,,,6100a8709599c7ce38d7c4a7,61036de9eb579a8efc685ebe,2021-07-29_22h12.16.311,Simcolourproject_2stim_asymm_v5,2020.2.10,Win32,60,61025ae37ef11b136ea224fe,,,,,,,,,1044,92.00001281,60.79999447,1,0,0,response1disk,,6,13.60006047,5.599993646,1,0,0,rectangle,13.60006047,5.599993646,1,0,0,13.60006047,5.599993646,1,0,0,0,120,120,80,1,,,,,,,,
,,,,,,,,,,,,,FF,,,,,,,,1.0006,,,,,,,,,,,,,,,,,,,,,,6100a8709599c7ce38d7c4a7,61036de9eb579a8efc685ebe,2021-07-29_22h12.16.311,Simcolourproject_2stim_asymm_v5,2020.2.10,Win32,60,61025ae37ef11b136ea224fe,,,,,,,,,3109,22.40001178,-81.60005648,1,0,0,response3disk,,4,-5.599988639,-1.600006461,1,0,0,rectangle,-5.599988639,-1.600006461,1,0,0,-5.599988639,-1.600006461,1,0,0,0,121,121,110,1,,,,,,,,
,,,,,,,,,,,,,FF,,,,,,,,1.1,,,,,,,,,,,,,,,,,,,,,,6100a8709599c7ce38d7c4a7,61036de9eb579a8efc685ebe,2021-07-29_22h12.16.311,Simcolourproject_2stim_asymm_v5,2020.2.10,Win32,60,61025ae37ef11b136ea224fe,,,,,,,,,3278,91.2000128,60.79999447,1,0,0,response1disk,,6,3.200011492,12.79999375,1,0,0,rectangle,3.200011492,12.79999375,1,0,0,3.200011492,12.79999375,1,0,0,0,122,122,9,1,,,,,,,,
,,,,,,,,,,,,,FF,,,,,,,,1.2515,,,,,,,,,,,,,,,,,,,,,,6100a8709599c7ce38d7c4a7,61036de9eb579a8efc685ebe,2021-07-29_22h12.16.311,Simcolourproject_2stim_asymm_v5,2020.2.10,Win32,60,61025ae37ef11b136ea224fe,,,,,,,,,4087,48.00001216,-44.8000071,1,0,0,response3disk,,5,6.400011539,-0.800006449,1,0,0,rectangle,6.400011539,-0.800006449,1,0,0,6.400011539,-0.800006449,1,0,0,0,123,123,146,1,,,,,,,,
,,,,,,,,,,,,,FF,,,,,,,,1.9461,,,,,,,,,,,,,,,,,,,,,,6100a8709599c7ce38d7c4a7,61036de9eb579a8efc685ebe,2021-07-29_22h12.16.311,Simcolourproject_2stim_asymm_v5,2020.2.10,Win32,60,61025ae37ef11b136ea224fe,,,,,,,,,4196,77.6000126,34.39999408,1,0,0,response1disk,,6,4.800011516,-0.800006449,1,0,0,rectangle,4.800011516,-0.800006449,1,0,0,4.800011516,-0.800006449,1,0,0,0,124,124,136,1,,,,,,,,
,,,,,,,,,,,,,FF,,,,,,,,0.8838,,,,,,,,,,,,,,,,,,,,,,6100a8709599c7ce38d7c4a7,61036de9eb579a8efc685ebe,2021-07-29_22h12.16.311,Simcolourproject_2stim_asymm_v5,2020.2.10,Win32,60,61025ae37ef11b136ea224fe,,,,,,,,,844,36.80001199,72.79999465,1,0,0,response1disk,,7,9.600060415,10.39999372,1,0,0,rectangle,9.600060415,10.39999372,1,0,0,9.600060415,10.39999372,1,0,0,0,125,125,27,1,,,,,,,,
,,,,,,,,,,,,,FF,,,,,,,,0.8012,,,,,,,,,,,,,,,,,,,,,,6100a8709599c7ce38d7c4a7,61036de9eb579a8efc685ebe,2021-07-29_22h12.16.311,Simcolourproject_2stim_asymm_v5,2020.2.10,Win32,60,61025ae37ef11b136ea224fe,,,,,,,,,412,44.0000121,75.19997027,1,0,0,response1disk,,7,4.800011516,4.799993634,1,0,0,rectangle,4.800011516,4.799993634,1,0,0,4.800011516,4.799993634,1,0,0,0,126,126,40,1,,,,,,,,
,,,,,,,,,,,,,FF,,,,,,,,1.1006,,,,,,,,,,,,,,,,,,,,,,6100a8709599c7ce38d7c4a7,61036de9eb579a8efc685ebe,2021-07-29_22h12.16.311,Simcolourproject_2stim_asymm_v5,2020.2.10,Win32,60,61025ae37ef11b136ea224fe,,,,,,,,,1050,-73.59998965,51.19996991,1,0,0,response7disk,,1,-8.799988687,7.19999367,1,0,0,rectangle,-8.799988687,7.19999367,1,0,0,-8.799988687,7.19999367,1,0,0,0,127,127,58,1,,,,,,,,
,,,,,,,,,,,,,FF,,,,,,,,1.551,,,,,,,,,,,,,,,,,,,,,,6100a8709599c7ce38d7c4a7,61036de9eb579a8efc685ebe,2021-07-29_22h12.16.311,Simcolourproject_2stim_asymm_v5,2020.2.10,Win32,60,61025ae37ef11b136ea224fe,,,,,,,,,2716,-51.19998932,-80.80000764,1,0,0,response5disk,,3,-9.599988699,12.79999375,1,0,0,rectangle,-9.599988699,12.79999375,1,0,0,-9.599988699,12.79999375,1,0,0,0,128,128,35,1,,,,,,,,
,,,,,,,,,,,,,FF,,,,,,,,0.9506,,,,,,,,,,,,,,,,,,,,,,6100a8709599c7ce38d7c4a7,61036de9eb579a8efc685ebe,2021-07-29_22h12.16.311,Simcolourproject_2stim_asymm_v5,2020.2.10,Win32,60,61025ae37ef11b136ea224fe,,,,,,,,,3271,68.80001247,102.3999951,1,0,0,response1disk,,7,16.00001168,-6.4373E-06,1,0,0,rectangle,16.00001168,-6.4373E-06,1,0,0,16.00001168,-6.4373E-06,1,0,0,0,129,129,70,1,,,,,,,,
,,,,,,,,,,,,,FF,,,,,,,,1.1337,,,,,,,,,,,,,,,,,,,,,,6100a8709599c7ce38d7c4a7,61036de9eb579a8efc685ebe,2021-07-29_22h12.16.311,Simcolourproject_2stim_asymm_v5,2020.2.10,Win32,60,61025ae37ef11b136ea224fe,,,,,,,,,3523,-43.1999892,-79.20000762,1,0,0,response5disk,,3,-9.599988699,15.9999938,1,0,0,rectangle,-9.599988699,15.9999938,1,0,0,-9.599988699,15.9999938,1,0,0,0,130,130,68,1,,,,,,,,
,,,,,,,,,,,,,FF,,,,,,,,0.9172,,,,,,,,,,,,,,,,,,,,,,6100a8709599c7ce38d7c4a7,61036de9eb579a8efc685ebe,2021-07-29_22h12.16.311,Simcolourproject_2stim_asymm_v5,2020.2.10,Win32,60,61025ae37ef11b136ea224fe,,,,,,,,,4270,-32.79998904,-70.40000749,1,0,0,response5disk,,3,5.600060356,7.19999367,1,0,0,rectangle,5.600060356,7.19999367,1,0,0,5.600060356,7.19999367,1,0,0,0,131,131,22,1,,,,,,,,
,,,,,,,,,,,,,FF,,,,,,,,0.9834,,,,,,,,,,,,,,,,,,,,,,6100a8709599c7ce38d7c4a7,61036de9eb579a8efc685ebe,2021-07-29_22h12.16.311,Simcolourproject_2stim_asymm_v5,2020.2.10,Win32,60,61025ae37ef11b136ea224fe,,,,,,,,,1924,75.20001256,39.99999416,1,0,0,response1disk,,6,18.40001172,-6.4373E-06,1,0,0,rectangle,18.40001172,-6.4373E-06,1,0,0,18.40001172,-6.4373E-06,1,0,0,0,132,132,34,1,,,,,,,,
,,,,,,,,,,,,,FF,,,,,,,,0.7665,,,,,,,,,,,,,,,,,,,,,,6100a8709599c7ce38d7c4a7,61036de9eb579a8efc685ebe,2021-07-29_22h12.16.311,Simcolourproject_2stim_asymm_v5,2020.2.10,Win32,60,61025ae37ef11b136ea224fe,,,,,,,,,36,72.80001253,32.79999405,1,0,0,response1disk,,6,16.80001169,2.399993598,1,0,0,rectangle,16.80001169,2.399993598,1,0,0,16.80001169,2.399993598,1,0,0,0,133,133,153,1,,,,,,,,
,,,,,,,,,,,,,FF,,,,,,,,1.7677,,,,,,,,,,,,,,,,,,,,,,6100a8709599c7ce38d7c4a7,61036de9eb579a8efc685ebe,2021-07-29_22h12.16.311,Simcolourproject_2stim_asymm_v5,2020.2.10,Win32,60,61025ae37ef11b136ea224fe,,,,,,,,,2352,72.00001252,-29.60000688,1,0,0,response3disk,,5,-0.799988568,3.999993622,1,0,0,rectangle,-0.799988568,3.999993622,1,0,0,-0.799988568,3.999993622,1,0,0,0,134,134,88,1,,,,,,,,
,,,,,,,,,,,,,FF,,,,,,,,0.8554,,,,,,,,,,,,,,,,,,,,,,6100a8709599c7ce38d7c4a7,61036de9eb579a8efc685ebe,2021-07-29_22h12.16.311,Simcolourproject_2stim_asymm_v5,2020.2.10,Win32,60,61025ae37ef11b136ea224fe,,,,,,,,,2288,55.20001227,-22.40000677,1,0,0,response3disk,,5,4.800011516,7.999993682,1,0,0,rectangle,4.800011516,7.999993682,1,0,0,4.800011516,7.999993682,1,0,0,0,135,135,47,1,,,,,,,,
,,,,,,,,,,,,,FF,,,,,,,,0.9073,,,,,,,,,,,,,,,,,,,,,,6100a8709599c7ce38d7c4a7,61036de9eb579a8efc685ebe,2021-07-29_22h12.16.311,Simcolourproject_2stim_asymm_v5,2020.2.10,Win32,60,61025ae37ef11b136ea224fe,,,,,,,,,1242,54.40001225,116.7999953,1,0,0,response1disk,,7,-6.399939823,-0.800006449,1,0,0,rectangle,-6.399939823,-0.800006449,1,0,0,-6.399939823,-0.800006449,1,0,0,0,136,136,155,1,,,,,,,,
,,,,,,,,,,,,,FF,,,,,,,,0.8721,,,,,,,,,,,,,,,,,,,,,,6100a8709599c7ce38d7c4a7,61036de9eb579a8efc685ebe,2021-07-29_22h12.16.311,Simcolourproject_2stim_asymm_v5,2020.2.10,Win32,60,61025ae37ef11b136ea224fe,,,,,,,,,2284,76.00001258,-36.00000697,1,0,0,response3disk,,5,4.800011516,4.799993634,1,0,0,rectangle,4.800011516,4.799993634,1,0,0,4.800011516,4.799993634,1,0,0,0,137,137,84,1,,,,,,,,
,,,,,,,,,,,,,FF,,,,,,,,0.7833,,,,,,,,,,,,,,,,,,,,,,6100a8709599c7ce38d7c4a7,61036de9eb579a8efc685ebe,2021-07-29_22h12.16.311,Simcolourproject_2stim_asymm_v5,2020.2.10,Win32,60,61025ae37ef11b136ea224fe,,,,,,,,,838,68.80001247,92.79999495,1,0,0,response1disk,,7,10.4000116,-5.600006521,1,0,0,rectangle,10.4000116,-5.600006521,1,0,0,10.4000116,-5.600006521,1,0,0,0,138,138,127,1,,,,,,,,
,,,,,,,,,,,,,FF,,,,,,,,0.9336,,,,,,,,,,,,,,,,,,,,,,6100a8709599c7ce38d7c4a7,61036de9eb579a8efc685ebe,2021-07-29_22h12.16.311,Simcolourproject_2stim_asymm_v5,2020.2.10,Win32,60,61025ae37ef11b136ea224fe,,,,,,,,,3824,-57.59998941,-82.40000767,1,0,0,response5disk,,3,-22.39994006,0.799993575,1,0,0,rectangle,-22.39994006,0.799993575,1,0,0,-22.39994006,0.799993575,1,0,0,0,139,139,67,1,,,,,,,,
,,,,,,,,,,,,,FF,,,,,,,,2.418,,,,,,,,,,,,,,,,,,,,,,6100a8709599c7ce38d7c4a7,61036de9eb579a8efc685ebe,2021-07-29_22h12.16.311,Simcolourproject_2stim_asymm_v5,2020.2.10,Win32,60,61025ae37ef11b136ea224fe,,,,,,,,,1141,45.60006095,19.19999385,1,0,0,response1disk,,6,4.000011504,-2.400006473,1,0,0,rectangle,4.000011504,-2.400006473,1,0,0,4.000011504,-2.400006473,1,0,0,0,140,140,152,1,,,,,,,,
,,,,,,,,,,,,,FF,,,,,,,,1.1171,,,,,,,,,,,,,,,,,,,,,,6100a8709599c7ce38d7c4a7,61036de9eb579a8efc685ebe,2021-07-29_22h12.16.311,Simcolourproject_2stim_asymm_v5,2020.2.10,Win32,60,61025ae37ef11b136ea224fe,,,,,,,,,2945,-26.39994012,-74.40000755,1,0,0,response5disk,,3,8.000011563,-7.200006545,1,0,0,rectangle,8.000011563,-7.200006545,1,0,0,8.000011563,-7.200006545,1,0,0,0,141,141,116,1,,,,,,,,
,,,,,,,,,,,,,FF,,,,,,,,1.1506,,,,,,,,,,,,,,,,,,,,,,6100a8709599c7ce38d7c4a7,61036de9eb579a8efc685ebe,2021-07-29_22h12.16.311,Simcolourproject_2stim_asymm_v5,2020.2.10,Win32,60,61025ae37ef11b136ea224fe,,,,,,,,,27,54.40001225,119.1999709,1,0,0,response1disk,,7,-7.199988663,-2.400006473,1,0,0,rectangle,-7.199988663,-2.400006473,1,0,0,-7.199988663,-2.400006473,1,0,0,0,142,142,1,1,,,,,,,,
,,,,,,,,,,,,,FF,,,,,,,,1.5841,,,,,,,,,,,,,,,,,,,,,,6100a8709599c7ce38d7c4a7,61036de9eb579a8efc685ebe,2021-07-29_22h12.16.311,Simcolourproject_2stim_asymm_v5,2020.2.10,Win32,60,61025ae37ef11b136ea224fe,,,,,,,,,3758,38.40001202,-92.00000781,1,0,0,response3disk,,4,6.400011539,15.9999938,1,0,0,rectangle,6.400011539,15.9999938,1,0,0,6.400011539,15.9999938,1,0,0,0,143,143,32,1,,,,,,,,
,,,,,,,,,,,,,FF,,,,,,,,1.669,,,,,,,,,,,,,,,,,,,,,,6100a8709599c7ce38d7c4a7,61036de9eb579a8efc685ebe,2021-07-29_22h12.16.311,Simcolourproject_2stim_asymm_v5,2020.2.10,Win32,60,61025ae37ef11b136ea224fe,,,,,,,,,22,71.20001251,-44.00000709,1,0,0,response3disk,,5,16.00001168,0.799993575,1,0,0,rectangle,16.00001168,0.799993575,1,0,0,16.00001168,0.799993575,1,0,0,0,144,144,65,1,,,,,,,,
,,,,,,,,,,,,,FF,,,,,,,,0.9168,,,,,,,,,,,,,,,,,,,,,,6100a8709599c7ce38d7c4a7,61036de9eb579a8efc685ebe,2021-07-29_22h12.16.311,Simcolourproject_2stim_asymm_v5,2020.2.10,Win32,60,61025ae37ef11b136ea224fe,,,,,,,,,1919,76.00001258,39.99999416,1,0,0,response1disk,,6,11.20001161,15.9999938,1,0,0,rectangle,11.20001161,15.9999938,1,0,0,11.20001161,15.9999938,1,0,0,0,145,145,69,1,,,,,,,,
,,,,,,,,,,,,,FF,,,,,,,,2.4179,,,,,,,,,,,,,,,,,,,,,,6100a8709599c7ce38d7c4a7,61036de9eb579a8efc685ebe,2021-07-29_22h12.16.311,Simcolourproject_2stim_asymm_v5,2020.2.10,Win32,60,61025ae37ef11b136ea224fe,,,,,,,,,3167,110.4000131,60.79999447,1,0,0,response1disk,,6,11.20001161,7.999993682,1,0,0,rectangle,11.20001161,7.999993682,1,0,0,11.20001161,7.999993682,1,0,0,0,146,146,126,1,,,,,,,,
,,,,,,,,,,,,,FF,,,,,,,,0.8665,,,,,,,,,,,,,,,,,,,,,,6100a8709599c7ce38d7c4a7,61036de9eb579a8efc685ebe,2021-07-29_22h12.16.311,Simcolourproject_2stim_asymm_v5,2020.2.10,Win32,60,61025ae37ef11b136ea224fe,,,,,,,,,3112,74.40001255,-45.60000712,1,0,0,response3disk,,5,20.00001174,-7.200006545,1,0,0,rectangle,20.00001174,-7.200006545,1,0,0,20.00001174,-7.200006545,1,0,0,0,147,147,10,1,,,,,,,,
,,,,,,,,,,,,,FF,,,,,,,,0.8172,,,,,,,,,,,,,,,,,,,,,,6100a8709599c7ce38d7c4a7,61036de9eb579a8efc685ebe,2021-07-29_22h12.16.311,Simcolourproject_2stim_asymm_v5,2020.2.10,Win32,60,61025ae37ef11b136ea224fe,,,,,,,,,2117,43.20001209,71.99999464,1,0,0,response1disk,,7,6.400011539,-6.400006533,1,0,0,rectangle,6.400011539,-6.400006533,1,0,0,6.400011539,-6.400006533,1,0,0,0,148,148,124,1,,,,,,,,
,,,,,,,,,,,,,FF,,,,,,,,1.1615,,,,,,,,,,,,,,,,,,,,,,6100a8709599c7ce38d7c4a7,61036de9eb579a8efc685ebe,2021-07-29_22h12.16.311,Simcolourproject_2stim_asymm_v5,2020.2.10,Win32,60,61025ae37ef11b136ea224fe,,,,,,,,,3781,-35.19998908,-104.800008,1,0,0,response5disk,,3,7.200011551,-0.800006449,1,0,0,rectangle,7.200011551,-0.800006449,1,0,0,7.200011551,-0.800006449,1,0,0,0,149,149,75,1,,,,,,,,
,,,,,,,,,,,,,FF,,,,,,,,0.85,,,,,,,,,,,,,,,,,,,,,,6100a8709599c7ce38d7c4a7,61036de9eb579a8efc685ebe,2021-07-29_22h12.16.311,Simcolourproject_2stim_asymm_v5,2020.2.10,Win32,60,61025ae37ef11b136ea224fe,,,,,,,,,4208,-22.39994006,-84.8000077,1,0,0,response5disk,,3,5.600060356,-2.400006473,1,0,0,rectangle,5.600060356,-2.400006473,1,0,0,5.600060356,-2.400006473,1,0,0,0,150,150,143,1,,,,,,,,
,,,,,,,,,,,,,FF,,,,,,,,0.7504,,,,,,,,,,,,,,,,,,,,,,6100a8709599c7ce38d7c4a7,61036de9eb579a8efc685ebe,2021-07-29_22h12.16.311,Simcolourproject_2stim_asymm_v5,2020.2.10,Win32,60,61025ae37ef11b136ea224fe,,,,,,,,,2857,38.40001202,75.19997027,1,0,0,response1disk,,7,-7.999988675,-7.200006545,1,0,0,rectangle,-7.999988675,-7.200006545,1,0,0,-7.999988675,-7.200006545,1,0,0,0,151,151,145,1,,,,,,,,
,,,,,,,,,,,,,FF,,,,,,,,0.8551,,,,,,,,,,,,,,,,,,,,,,6100a8709599c7ce38d7c4a7,61036de9eb579a8efc685ebe,2021-07-29_22h12.16.311,Simcolourproject_2stim_asymm_v5,2020.2.10,Win32,60,61025ae37ef11b136ea224fe,,,,,,,,,3914,-31.19998902,-60.00000733,1,0,0,response5disk,,3,-1.59998858,5.599993646,1,0,0,rectangle,-1.59998858,5.599993646,1,0,0,-1.59998858,5.599993646,1,0,0,0,152,152,79,1,,,,,,,,
,,,,,,,,,,,,,FF,,,,,,,,1.4176,,,,,,,,,,,,,,,,,,,,,,6100a8709599c7ce38d7c4a7,61036de9eb579a8efc685ebe,2021-07-29_22h12.16.311,Simcolourproject_2stim_asymm_v5,2020.2.10,Win32,60,61025ae37ef11b136ea224fe,,,,,,,,,4066,44.0000121,23.19996949,1,0,0,response1disk,,6,11.20001161,-7.200006545,1,0,0,rectangle,11.20001161,-7.200006545,1,0,0,11.20001161,-7.200006545,1,0,0,0,153,153,2,1,,,,,,,,
,,,,,,,,,,,,,FF,,,,,,,,0.951,,,,,,,,,,,,,,,,,,,,,,6100a8709599c7ce38d7c4a7,61036de9eb579a8efc685ebe,2021-07-29_22h12.16.311,Simcolourproject_2stim_asymm_v5,2020.2.10,Win32,60,61025ae37ef11b136ea224fe,,,,,,,,,4161,-22.39994006,68.79999459,1,0,0,response7disk,,0,-1.59998858,1.599993587,1,0,0,rectangle,-1.59998858,1.599993587,1,0,0,-1.59998858,1.599993587,1,0,0,0,154,154,13,1,,,,,,,,
,,,,,,,,,,,,,FF,,,,,,,,2.1012,,,,,,,,,,,,,,,,,,,,,,6100a8709599c7ce38d7c4a7,61036de9eb579a8efc685ebe,2021-07-29_22h12.16.311,Simcolourproject_2stim_asymm_v5,2020.2.10,Win32,60,61025ae37ef11b136ea224fe,,,,,,,,,302,32.00001192,74.39999467,1,0,0,response1disk,,7,-6.399939823,10.39999372,1,0,0,rectangle,-6.399939823,10.39999372,1,0,0,-6.399939823,10.39999372,1,0,0,0,155,155,92,1,,,,,,,,
,,,,,,,,,,,,,FF,,,,,,,,1.284,,,,,,,,,,,,,,,,,,,,,,6100a8709599c7ce38d7c4a7,61036de9eb579a8efc685ebe,2021-07-29_22h12.16.311,Simcolourproject_2stim_asymm_v5,2020.2.10,Win32,60,61025ae37ef11b136ea224fe,,,,,,,,,567,30.4000119,56.79999441,1,0,0,response1disk,,7,-3.199988604,-9.60000658,1,0,0,rectangle,-3.199988604,-9.60000658,1,0,0,-3.199988604,-9.60000658,1,0,0,0,156,156,82,1,,,,,,,,
,,,,,,,,,,,,,FF,,,,,,,,1.0505,,,,,,,,,,,,,,,,,,,,,,6100a8709599c7ce38d7c4a7,61036de9eb579a8efc685ebe,2021-07-29_22h12.16.311,Simcolourproject_2stim_asymm_v5,2020.2.10,Win32,60,61025ae37ef11b136ea224fe,,,,,,,,,1127,63.20001239,37.59999412,1,0,0,response1disk,,6,3.200011492,3.19999361,1,0,0,rectangle,3.200011492,3.19999361,1,0,0,3.200011492,3.19999361,1,0,0,0,157,157,105,1,,,,,,,,
,,,,,,,,,,,,,FF,,,,,,,,0.9502,,,,,,,,,,,,,,,,,,,,,,6100a8709599c7ce38d7c4a7,61036de9eb579a8efc685ebe,2021-07-29_22h12.16.311,Simcolourproject_2stim_asymm_v5,2020.2.10,Win32,60,61025ae37ef11b136ea224fe,,,,,,,,,2497,43.20001209,60.79999447,1,0,0,response1disk,,7,10.4000116,-4.000006497,1,0,0,rectangle,10.4000116,-4.000006497,1,0,0,10.4000116,-4.000006497,1,0,0,0,158,158,72,1,,,,,,,,
,,,,,,,,,,,,,FF,,,,,,,,1.6677,,,,,,,,,,,,,,,,,,,,,,6100a8709599c7ce38d7c4a7,61036de9eb579a8efc685ebe,2021-07-29_22h12.16.311,Simcolourproject_2stim_asymm_v5,2020.2.10,Win32,60,61025ae37ef11b136ea224fe,,,,,,,,,1164,36.80001199,63.19997009,1,0,0,response1disk,,7,14.40001166,5.599993646,1,0,0,rectangle,14.40001166,5.599993646,1,0,0,14.40001166,5.599993646,1,0,0,0,159,159,76,1,,,,,,,,
,,,,,,,,,,,,,FF,,,,,,,,0.8003,,,,,,,,,,,,,,,,,,,,,,6100a8709599c7ce38d7c4a7,61036de9eb579a8efc685ebe,2021-07-29_22h12.16.311,Simcolourproject_2stim_asymm_v5,2020.2.10,Win32,60,61025ae37ef11b136ea224fe,,,,,,,,,957,32.00001192,38.39999413,1,0,0,response1disk,,7,10.4000116,1.599993587,1,0,0,rectangle,10.4000116,1.599993587,1,0,0,10.4000116,1.599993587,1,0,0,1,0,160,12,1,,,,,,,,
,,,,,,,,,,,,,FF,,,,,,,,1.3348,,,,,,,,,,,,,,,,,,,,,,6100a8709599c7ce38d7c4a7,61036de9eb579a8efc685ebe,2021-07-29_22h12.16.311,Simcolourproject_2stim_asymm_v5,2020.2.10,Win32,60,61025ae37ef11b136ea224fe,,,,,,,,,1344,33.60006077,59.99999446,1,0,0,response1disk,,7,-0.799988568,-12.80000663,1,0,0,rectangle,-0.799988568,-12.80000663,1,0,0,-0.799988568,-12.80000663,1,0,0,1,1,161,131,1,,,,,,,,
,,,,,,,,,,,,,FF,,,,,,,,1.0169,,,,,,,,,,,,,,,,,,,,,,6100a8709599c7ce38d7c4a7,61036de9eb579a8efc685ebe,2021-07-29_22h12.16.311,Simcolourproject_2stim_asymm_v5,2020.2.10,Win32,60,61025ae37ef11b136ea224fe,,,,,,,,,3592,-39.99998915,-65.60000741,1,0,0,response5disk,,3,-3.999988616,3.999993622,1,0,0,rectangle,-3.999988616,3.999993622,1,0,0,-3.999988616,3.999993622,1,0,0,1,2,162,50,1,,,,,,,,
,,,,,,,,,,,,,FF,,,,,,,,1.3335,,,,,,,,,,,,,,,,,,,,,,6100a8709599c7ce38d7c4a7,61036de9eb579a8efc685ebe,2021-07-29_22h12.16.311,Simcolourproject_2stim_asymm_v5,2020.2.10,Win32,60,61025ae37ef11b136ea224fe,,,,,,,,,4342,25.60006065,-74.40000755,1,0,0,response3disk,,4,9.600060415,-8.000006557,1,0,0,rectangle,9.600060415,-8.000006557,1,0,0,9.600060415,-8.000006557,1,0,0,1,3,163,103,1,,,,,,,,
,,,,,,,,,,,,,FF,,,,,,,,1.6848,,,,,,,,,,,,,,,,,,,,,,6100a8709599c7ce38d7c4a7,61036de9eb579a8efc685ebe,2021-07-29_22h12.16.311,Simcolourproject_2stim_asymm_v5,2020.2.10,Win32,60,61025ae37ef11b136ea224fe,,,,,,,,,63,-51.19998932,-103.200008,1,0,0,response5disk,,3,-13.59998876,-11.2000066,1,0,0,rectangle,-13.59998876,-11.2000066,1,0,0,-13.59998876,-11.2000066,1,0,0,1,4,164,122,1,,,,,,,,
,,,,,,,,,,,,,FF,,,,,,,,0.8999,,,,,,,,,,,,,,,,,,,,,,6100a8709599c7ce38d7c4a7,61036de9eb579a8efc685ebe,2021-07-29_22h12.16.311,Simcolourproject_2stim_asymm_v5,2020.2.10,Win32,60,61025ae37ef11b136ea224fe,,,,,,,,,1300,-66.39994072,-48.80000716,1,0,0,response5disk,,2,-15.99998879,-0.800006449,1,0,0,rectangle,-15.99998879,-0.800006449,1,0,0,-15.99998879,-0.800006449,1,0,0,1,5,165,66,1,,,,,,,,
,,,,,,,,,,,,,FF,,,,,,,,1.2511,,,,,,,,,,,,,,,,,,,,,,6100a8709599c7ce38d7c4a7,61036de9eb579a8efc685ebe,2021-07-29_22h12.16.311,Simcolourproject_2stim_asymm_v5,2020.2.10,Win32,60,61025ae37ef11b136ea224fe,,,,,,,,,1618,87.20001274,-78.40000761,1,0,0,response3disk,,5,8.000011563,-5.600006521,1,0,0,rectangle,8.000011563,-5.600006521,1,0,0,8.000011563,-5.600006521,1,0,0,1,6,166,8,1,,,,,,,,
,,,,,,,,,,,,,FF,,,,,,,,0.8501,,,,,,,,,,,,,,,,,,,,,,6100a8709599c7ce38d7c4a7,61036de9eb579a8efc685ebe,2021-07-29_22h12.16.311,Simcolourproject_2stim_asymm_v5,2020.2.10,Win32,60,61025ae37ef11b136ea224fe,,,,,,,,,4119,-44.79998922,-93.60005666,1,0,0,response5disk,,3,-7.999988675,4.799993634,1,0,0,rectangle,-7.999988675,4.799993634,1,0,0,-7.999988675,4.799993634,1,0,0,1,7,167,158,1,,,,,,,,
,,,,,,,,,,,,,FF,,,,,,,,0.7335,,,,,,,,,,,,,,,,,,,,,,6100a8709599c7ce38d7c4a7,61036de9eb579a8efc685ebe,2021-07-29_22h12.16.311,Simcolourproject_2stim_asymm_v5,2020.2.10,Win32,60,61025ae37ef11b136ea224fe,,,,,,,,,1700,51.20001221,89.5999949,1,0,0,response1disk,,7,2.40001148,-5.600006521,1,0,0,rectangle,2.40001148,-5.600006521,1,0,0,2.40001148,-5.600006521,1,0,0,1,8,168,113,1,,,,,,,,
,,,,,,,,,,,,,FF,,,,,,,,0.9166,,,,,,,,,,,,,,,,,,,,,,6100a8709599c7ce38d7c4a7,61036de9eb579a8efc685ebe,2021-07-29_22h12.16.311,Simcolourproject_2stim_asymm_v5,2020.2.10,Win32,60,61025ae37ef11b136ea224fe,,,,,,,,,1517,64.0000124,50.39999431,1,0,0,response1disk,,6,-0.799988568,11.99999374,1,0,0,rectangle,-0.799988568,11.99999374,1,0,0,-0.799988568,11.99999374,1,0,0,1,9,169,24,1,,,,,,,,
,,,,,,,,,,,,,FF,,,,,,,,1.1508,,,,,,,,,,,,,,,,,,,,,,6100a8709599c7ce38d7c4a7,61036de9eb579a8efc685ebe,2021-07-29_22h12.16.311,Simcolourproject_2stim_asymm_v5,2020.2.10,Win32,60,61025ae37ef11b136ea224fe,,,,,,,,,3800,78.40001261,33.59999406,1,0,0,response1disk,,6,9.600060415,-8.800006568,1,0,0,rectangle,9.600060415,-8.800006568,1,0,0,9.600060415,-8.800006568,1,0,0,1,10,170,153,1,,,,,,,,
,,,,,,,,,,,,,FF,,,,,,,,1.1672,,,,,,,,,,,,,,,,,,,,,,6100a8709599c7ce38d7c4a7,61036de9eb579a8efc685ebe,2021-07-29_22h12.16.311,Simcolourproject_2stim_asymm_v5,2020.2.10,Win32,60,61025ae37ef11b136ea224fe,,,,,,,,,3378,50.4000122,-88.80000776,1,0,0,response3disk,,4,3.200011492,5.599993646,1,0,0,rectangle,91.2000128,55.9999944,1,0,0,15.20001167,-0.800006449,1,0,0,1,11,171,139,1,,response1disk_3,TRUE,6,6,"[278,15,216,205,280,226,214,218,271,175,175,112,50,172,43,292,242,256,211,174]",2.2137,rectangle
,,,,,,,,,,,,,FF,,,,,,,,0.9666,,,,,,,,,,,,,,,,,,,,,,6100a8709599c7ce38d7c4a7,61036de9eb579a8efc685ebe,2021-07-29_22h12.16.311,Simcolourproject_2stim_asymm_v5,2020.2.10,Win32,60,61025ae37ef11b136ea224fe,,,,,,,,,3940,-43.99998921,-84.00000769,1,0,0,response5disk,,3,4.000011504,-6.4373E-06,1,0,0,rectangle,4.000011504,-6.4373E-06,1,0,0,4.000011504,-6.4373E-06,1,0,0,1,12,172,115,1,,,,,,,,
,,,,,,,,,,,,,FF,,,,,,,,1.5839,,,,,,,,,,,,,,,,,,,,,,6100a8709599c7ce38d7c4a7,61036de9eb579a8efc685ebe,2021-07-29_22h12.16.311,Simcolourproject_2stim_asymm_v5,2020.2.10,Win32,60,61025ae37ef11b136ea224fe,,,,,,,,,2224,74.40001255,-28.00000685,1,0,0,response3disk,,5,24.0000118,1.599993587,1,0,0,rectangle,78.40001261,40.79999417,1,0,0,4.000011504,-8.800006568,1,0,0,1,13,173,62,1,,response1disk_3,TRUE,6,6,"[278,15,216,205,280,226,214,218,271,175,175,112,50,172,43,292,242,256,211,174]",2.0013,rectangle
,,,,,,,,,,,,,FF,,,,,,,,1.0837,,,,,,,,,,,,,,,,,,,,,,6100a8709599c7ce38d7c4a7,61036de9eb579a8efc685ebe,2021-07-29_22h12.16.311,Simcolourproject_2stim_asymm_v5,2020.2.10,Win32,60,61025ae37ef11b136ea224fe,,,,,,,,,3528,36.80001199,-79.20000762,1,0,0,response3disk,,4,11.20001161,-10.40000659,1,0,0,rectangle,-85.59998983,51.99999434,1,0,0,7.200011551,-6.4373E-06,1,0,0,1,14,174,94,1,,response7disk_3,TRUE,1,1,"[278,15,216,205,280,226,214,218,271,175,175,112,50,172,43,292,242,256,211,174]",1.4725,rectangle
,,,,,,,,,,,,,FF,,,,,,,,1.7509,,,,,,,,,,,,,,,,,,,,,,6100a8709599c7ce38d7c4a7,61036de9eb579a8efc685ebe,2021-07-29_22h12.16.311,Simcolourproject_2stim_asymm_v5,2020.2.10,Win32,60,61025ae37ef11b136ea224fe,,,,,,,,,1560,68.80001247,-22.40000677,1,0,0,response3disk,,5,9.600060415,11.19999373,1,0,0,rectangle,9.600060415,11.19999373,1,0,0,9.600060415,11.19999373,1,0,0,1,15,175,108,1,,,,,,,,
,,,,,,,,,,,,,FF,,,,,,,,0.9337,,,,,,,,,,,,,,,,,,,,,,6100a8709599c7ce38d7c4a7,61036de9eb579a8efc685ebe,2021-07-29_22h12.16.311,Simcolourproject_2stim_asymm_v5,2020.2.10,Win32,60,61025ae37ef11b136ea224fe,,,,,,,,,2390,69.60001248,39.99999416,1,0,0,response1disk,,6,-5.599988639,-9.60000658,1,0,0,rectangle,-5.599988639,-9.60000658,1,0,0,-5.599988639,-9.60000658,1,0,0,1,16,176,124,1,,,,,,,,
,,,,,,,,,,,,,FF,,,,,,,,1.4176,,,,,,,,,,,,,,,,,,,,,,6100a8709599c7ce38d7c4a7,61036de9eb579a8efc685ebe,2021-07-29_22h12.16.311,Simcolourproject_2stim_asymm_v5,2020.2.10,Win32,60,61025ae37ef11b136ea224fe,,,,,,,,,375,-22.39994006,-91.2000078,1,0,0,response5disk,,3,8.800011575,7.19999367,1,0,0,rectangle,8.800011575,7.19999367,1,0,0,8.800011575,7.19999367,1,0,0,1,17,177,101,1,,,,,,,,
,,,,,,,,,,,,,FF,,,,,,,,1.0226,,,,,,,,,,,,,,,,,,,,,,6100a8709599c7ce38d7c4a7,61036de9eb579a8efc685ebe,2021-07-29_22h12.16.311,Simcolourproject_2stim_asymm_v5,2020.2.10,Win32,60,61025ae37ef11b136ea224fe,,,,,,,,,3282,-59.99998945,-36.00000697,1,0,0,response5disk,,2,6.400011539,-11.2000066,1,0,0,rectangle,6.400011539,-11.2000066,1,0,0,6.400011539,-11.2000066,1,0,0,1,18,178,91,1,,,,,,,,
,,,,,,,,,,,,,FF,,,,,,,,0.7834,,,,,,,,,,,,,,,,,,,,,,6100a8709599c7ce38d7c4a7,61036de9eb579a8efc685ebe,2021-07-29_22h12.16.311,Simcolourproject_2stim_asymm_v5,2020.2.10,Win32,60,61025ae37ef11b136ea224fe,,,,,,,,,3184,42.40001208,60.79999447,1,0,0,response1disk,,7,7.200011551,2.399993598,1,0,0,rectangle,7.200011551,2.399993598,1,0,0,7.200011551,2.399993598,1,0,0,1,19,179,105,1,,,,,,,,
,,,,,,,,,,,,,FF,,,,,,,,1.323,,,,,,,,,,,,,,,,,,,,,,6100a8709599c7ce38d7c4a7,61036de9eb579a8efc685ebe,2021-07-29_22h12.16.311,Simcolourproject_2stim_asymm_v5,2020.2.10,Win32,60,61025ae37ef11b136ea224fe,,,,,,,,,3789,91.2000128,-86.40000772,1,0,0,response3disk,,5,9.600060415,3.999993622,1,0,0,rectangle,9.600060415,3.999993622,1,0,0,9.600060415,3.999993622,1,0,0,1,20,180,57,1,,,,,,,,
,,,,,,,,,,,,,FF,,,,,,,,1.3009,,,,,,,,,,,,,,,,,,,,,,6100a8709599c7ce38d7c4a7,61036de9eb579a8efc685ebe,2021-07-29_22h12.16.311,Simcolourproject_2stim_asymm_v5,2020.2.10,Win32,60,61025ae37ef11b136ea224fe,,,,,,,,,3191,-89.59998989,-40.00000703,1,0,0,response5disk,,2,-7.199988663,-4.000006497,1,0,0,rectangle,-7.199988663,-4.000006497,1,0,0,-7.199988663,-4.000006497,1,0,0,1,21,181,56,1,,,,,,,,
,,,,,,,,,,,,,FF,,,,,,,,1.2676,,,,,,,,,,,,,,,,,,,,,,6100a8709599c7ce38d7c4a7,61036de9eb579a8efc685ebe,2021-07-29_22h12.16.311,Simcolourproject_2stim_asymm_v5,2020.2.10,Win32,60,61025ae37ef11b136ea224fe,,,,,,,,,696,73.60001254,-39.20000702,1,0,0,response3disk,,5,16.80001169,-2.400006473,1,0,0,rectangle,16.80001169,-2.400006473,1,0,0,16.80001169,-2.400006473,1,0,0,1,22,182,43,1,,,,,,,,
,,,,,,,,,,,,,FF,,,,,,,,1.134,,,,,,,,,,,,,,,,,,,,,,6100a8709599c7ce38d7c4a7,61036de9eb579a8efc685ebe,2021-07-29_22h12.16.311,Simcolourproject_2stim_asymm_v5,2020.2.10,Win32,60,61025ae37ef11b136ea224fe,,,,,,,,,3344,87.20001274,27.99999398,1,0,0,response1disk,,6,14.40001166,-6.400006533,1,0,0,rectangle,14.40001166,-6.400006533,1,0,0,14.40001166,-6.400006533,1,0,0,1,23,183,148,1,,,,,,,,
,,,,,,,,,,,,,FF,,,,,,,,0.9,,,,,,,,,,,,,,,,,,,,,,6100a8709599c7ce38d7c4a7,61036de9eb579a8efc685ebe,2021-07-29_22h12.16.311,Simcolourproject_2stim_asymm_v5,2020.2.10,Win32,60,61025ae37ef11b136ea224fe,,,,,,,,,3560,-43.1999892,-59.20000732,1,0,0,response5disk,,3,6.400011539,11.19999373,1,0,0,rectangle,6.400011539,11.19999373,1,0,0,6.400011539,11.19999373,1,0,0,1,24,184,19,1,,,,,,,,
,,,,,,,,,,,,,FF,,,,,,,,0.7499,,,,,,,,,,,,,,,,,,,,,,6100a8709599c7ce38d7c4a7,61036de9eb579a8efc685ebe,2021-07-29_22h12.16.311,Simcolourproject_2stim_asymm_v5,2020.2.10,Win32,60,61025ae37ef11b136ea224fe,,,,,,,,,4212,40.00001204,77.59999472,1,0,0,response1disk,,7,6.400011539,-4.800006509,1,0,0,rectangle,6.400011539,-4.800006509,1,0,0,6.400011539,-4.800006509,1,0,0,1,25,185,127,1,,,,,,,,
,,,,,,,,,,,,,FF,,,,,,,,1.134,,,,,,,,,,,,,,,,,,,,,,6100a8709599c7ce38d7c4a7,61036de9eb579a8efc685ebe,2021-07-29_22h12.16.311,Simcolourproject_2stim_asymm_v5,2020.2.10,Win32,60,61025ae37ef11b136ea224fe,,,,,,,,,2494,61.60001236,-102.400008,1,0,0,response3disk,,4,12.80001163,3.19999361,1,0,0,rectangle,12.80001163,3.19999361,1,0,0,12.80001163,3.19999361,1,0,0,1,26,186,114,1,,,,,,,,
,,,,,,,,,,,,,FF,,,,,,,,0.8004,,,,,,,,,,,,,,,,,,,,,,6100a8709599c7ce38d7c4a7,61036de9eb579a8efc685ebe,2021-07-29_22h12.16.311,Simcolourproject_2stim_asymm_v5,2020.2.10,Win32,60,61025ae37ef11b136ea224fe,,,,,,,,,1645,57.6000123,29.599994,1,0,0,response1disk,,6,0.800011456,-11.2000066,1,0,0,rectangle,0.800011456,-11.2000066,1,0,0,0.800011456,-11.2000066,1,0,0,1,27,187,13,1,,,,,,,,
,,,,,,,,,,,,,FF,,,,,,,,1.5343,,,,,,,,,,,,,,,,,,,,,,6100a8709599c7ce38d7c4a7,61036de9eb579a8efc685ebe,2021-07-29_22h12.16.311,Simcolourproject_2stim_asymm_v5,2020.2.10,Win32,60,61025ae37ef11b136ea224fe,,,,,,,,,3319,56.80001229,94.39999497,1,0,0,response1disk,,7,4.000011504,7.19999367,1,0,0,rectangle,4.000011504,7.19999367,1,0,0,4.000011504,7.19999367,1,0,0,1,28,188,136,1,,,,,,,,
,,,,,,,,,,,,,FF,,,,,,,,0.7167,,,,,,,,,,,,,,,,,,,,,,6100a8709599c7ce38d7c4a7,61036de9eb579a8efc685ebe,2021-07-29_22h12.16.311,Simcolourproject_2stim_asymm_v5,2020.2.10,Win32,60,61025ae37ef11b136ea224fe,,,,,,,,,2755,31.20001191,75.9999947,1,0,0,response1disk,,7,9.600060415,5.599993646,1,0,0,rectangle,9.600060415,5.599993646,1,0,0,9.600060415,5.599993646,1,0,0,1,29,189,53,1,,,,,,,,
,,,,,,,,,,,,,FF,,,,,,,,0.7498,,,,,,,,,,,,,,,,,,,,,,6100a8709599c7ce38d7c4a7,61036de9eb579a8efc685ebe,2021-07-29_22h12.16.311,Simcolourproject_2stim_asymm_v5,2020.2.10,Win32,60,61025ae37ef11b136ea224fe,,,,,,,,,1623,44.80001211,71.19997021,1,0,0,response1disk,,7,10.4000116,10.39999372,1,0,0,rectangle,10.4000116,10.39999372,1,0,0,10.4000116,10.39999372,1,0,0,1,30,190,38,1,,,,,,,,
,,,,,,,,,,,,,FF,,,,,,,,0.8006,,,,,,,,,,,,,,,,,,,,,,6100a8709599c7ce38d7c4a7,61036de9eb579a8efc685ebe,2021-07-29_22h12.16.311,Simcolourproject_2stim_asymm_v5,2020.2.10,Win32,60,61025ae37ef11b136ea224fe,,,,,,,,,1259,81.60001266,28.79999399,1,0,0,response1disk,,6,16.80001169,6.399993658,1,0,0,rectangle,16.80001169,6.399993658,1,0,0,16.80001169,6.399993658,1,0,0,1,31,191,79,1,,,,,,,,
,,,,,,,,,,,,,FF,,,,,,,,0.7335,,,,,,,,,,,,,,,,,,,,,,6100a8709599c7ce38d7c4a7,61036de9eb579a8efc685ebe,2021-07-29_22h12.16.311,Simcolourproject_2stim_asymm_v5,2020.2.10,Win32,60,61025ae37ef11b136ea224fe,,,,,,,,,709,33.60006077,39.99999416,1,0,0,response1disk,,7,7.200011551,3.19999361,1,0,0,rectangle,7.200011551,3.19999361,1,0,0,7.200011551,3.19999361,1,0,0,1,32,192,96,1,,,,,,,,
,,,,,,,,,,,,,FF,,,,,,,,0.8001,,,,,,,,,,,,,,,,,,,,,,6100a8709599c7ce38d7c4a7,61036de9eb579a8efc685ebe,2021-07-29_22h12.16.311,Simcolourproject_2stim_asymm_v5,2020.2.10,Win32,60,61025ae37ef11b136ea224fe,,,,,,,,,2692,43.20001209,104.7999951,1,0,0,response1disk,,7,-1.59998858,-5.600006521,1,0,0,rectangle,-1.59998858,-5.600006521,1,0,0,-1.59998858,-5.600006521,1,0,0,1,33,193,81,1,,,,,,,,
,,,,,,,,,,,,,FF,,,,,,,,1.2675,,,,,,,,,,,,,,,,,,,,,,6100a8709599c7ce38d7c4a7,61036de9eb579a8efc685ebe,2021-07-29_22h12.16.311,Simcolourproject_2stim_asymm_v5,2020.2.10,Win32,60,61025ae37ef11b136ea224fe,,,,,,,,,3839,41.60006089,-100.0000079,1,0,0,response3disk,,4,10.4000116,-9.60000658,1,0,0,rectangle,10.4000116,-9.60000658,1,0,0,10.4000116,-9.60000658,1,0,0,1,34,194,2,1,,,,,,,,
,,,,,,,,,,,,,FF,,,,,,,,0.8169,,,,,,,,,,,,,,,,,,,,,,6100a8709599c7ce38d7c4a7,61036de9eb579a8efc685ebe,2021-07-29_22h12.16.311,Simcolourproject_2stim_asymm_v5,2020.2.10,Win32,60,61025ae37ef11b136ea224fe,,,,,,,,,3315,32.80001193,78.39999473,1,0,0,response1disk,,7,-3.999988616,3.999993622,1,0,0,rectangle,-3.999988616,3.999993622,1,0,0,-3.999988616,3.999993622,1,0,0,1,35,195,10,1,,,,,,,,
,,,,,,,,,,,,,FF,,,,,,,,0.8832,,,,,,,,,,,,,,,,,,,,,,6100a8709599c7ce38d7c4a7,61036de9eb579a8efc685ebe,2021-07-29_22h12.16.311,Simcolourproject_2stim_asymm_v5,2020.2.10,Win32,60,61025ae37ef11b136ea224fe,,,,,,,,,7,-35.99998909,-49.60000718,1,0,0,response5disk,,3,-13.59998876,11.19999373,1,0,0,rectangle,-13.59998876,11.19999373,1,0,0,-13.59998876,11.19999373,1,0,0,1,36,196,67,1,,,,,,,,
,,,,,,,,,,,,,FF,,,,,,,,0.8501,,,,,,,,,,,,,,,,,,,,,,6100a8709599c7ce38d7c4a7,61036de9eb579a8efc685ebe,2021-07-29_22h12.16.311,Simcolourproject_2stim_asymm_v5,2020.2.10,Win32,60,61025ae37ef11b136ea224fe,,,,,,,,,4254,-35.19998908,-72.80000752,1,0,0,response5disk,,3,-15.19998878,-13.60000664,1,0,0,rectangle,-15.19998878,-13.60000664,1,0,0,-15.19998878,-13.60000664,1,0,0,1,37,197,1,1,,,,,,,,
,,,,,,,,,,,,,FF,,,,,,,,1.1341,,,,,,,,,,,,,,,,,,,,,,6100a8709599c7ce38d7c4a7,61036de9eb579a8efc685ebe,2021-07-29_22h12.16.311,Simcolourproject_2stim_asymm_v5,2020.2.10,Win32,60,61025ae37ef11b136ea224fe,,,,,,,,,3358,84.0000127,58.39999443,1,0,0,response1disk,,6,5.600060356,3.999993622,1,0,0,rectangle,5.600060356,3.999993622,1,0,0,5.600060356,3.999993622,1,0,0,1,38,198,154,1,,,,,,,,
,,,,,,,,,,,,,FF,,,,,,,,2.1517,,,,,,,,,,,,,,,,,,,,,,6100a8709599c7ce38d7c4a7,61036de9eb579a8efc685ebe,2021-07-29_22h12.16.311,Simcolourproject_2stim_asymm_v5,2020.2.10,Win32,60,61025ae37ef11b136ea224fe,,,,,,,,,1203,95.20001286,44.79999423,1,0,0,response1disk,,6,13.60006047,-4.800006509,1,0,0,rectangle,13.60006047,-4.800006509,1,0,0,13.60006047,-4.800006509,1,0,0,1,39,199,54,1,,,,,,,,
,,,,,,,,,,,,,FF,,,,,,,,1.2504,,,,,,,,,,,,,,,,,,,,,,6100a8709599c7ce38d7c4a7,61036de9eb579a8efc685ebe,2021-07-29_22h12.16.311,Simcolourproject_2stim_asymm_v5,2020.2.10,Win32,60,61025ae37ef11b136ea224fe,,,,,,,,,1017,51.20001221,68.79999459,1,0,0,response1disk,,7,22.40001178,12.79999375,1,0,0,rectangle,22.40001178,12.79999375,1,0,0,22.40001178,12.79999375,1,0,0,1,40,200,17,1,,,,,,,,
,,,,,,,,,,,,,FF,,,,,,,,1.0847,,,,,,,,,,,,,,,,,,,,,,6100a8709599c7ce38d7c4a7,61036de9eb579a8efc685ebe,2021-07-29_22h12.16.311,Simcolourproject_2stim_asymm_v5,2020.2.10,Win32,60,61025ae37ef11b136ea224fe,,,,,,,,,1519,73.60001254,-47.20000714,1,0,0,response3disk,,5,2.40001148,-13.60000664,1,0,0,rectangle,2.40001148,-13.60000664,1,0,0,2.40001148,-13.60000664,1,0,0,1,41,201,82,1,,,,,,,,
,,,,,,,,,,,,,FF,,,,,,,,0.9835,,,,,,,,,,,,,,,,,,,,,,6100a8709599c7ce38d7c4a7,61036de9eb579a8efc685ebe,2021-07-29_22h12.16.311,Simcolourproject_2stim_asymm_v5,2020.2.10,Win32,60,61025ae37ef11b136ea224fe,,,,,,,,,2207,31.20001191,70.39999461,1,0,0,response1disk,,7,8.000011563,-10.40000659,1,0,0,rectangle,8.000011563,-10.40000659,1,0,0,8.000011563,-10.40000659,1,0,0,1,42,202,152,1,,,,,,,,
,,,,,,,,,,,,,FF,,,,,,,,0.846,,,,,,,,,,,,,,,,,,,,,,6100a8709599c7ce38d7c4a7,61036de9eb579a8efc685ebe,2021-07-29_22h12.16.311,Simcolourproject_2stim_asymm_v5,2020.2.10,Win32,60,61025ae37ef11b136ea224fe,,,,,,,,,860,68.00001246,33.59999406,1,0,0,response1disk,,6,1.600060296,6.399993658,1,0,0,rectangle,1.600060296,6.399993658,1,0,0,1.600060296,6.399993658,1,0,0,1,43,203,87,1,,,,,,,,
,,,,,,,,,,,,,FF,,,,,,,,1.3005,,,,,,,,,,,,,,,,,,,,,,6100a8709599c7ce38d7c4a7,61036de9eb579a8efc685ebe,2021-07-29_22h12.16.311,Simcolourproject_2stim_asymm_v5,2020.2.10,Win32,60,61025ae37ef11b136ea224fe,,,,,,,,,1915,72.00001252,-28.80000687,1,0,0,response3disk,,5,29.60006071,-8.000006557,1,0,0,rectangle,33.60006077,107.9999952,1,0,0,8.800011575,7.19999367,1,0,0,1,44,204,59,1,,response1disk_3,TRUE,7,7,"[278,15,216,205,280,226,214,218,271,175,175,112,50,172,43,292,242,256,211,174]",2.0173,rectangle
,,,,,,,,,,,,,FF,,,,,,,,1.101,,,,,,,,,,,,,,,,,,,,,,6100a8709599c7ce38d7c4a7,61036de9eb579a8efc685ebe,2021-07-29_22h12.16.311,Simcolourproject_2stim_asymm_v5,2020.2.10,Win32,60,61025ae37ef11b136ea224fe,,,,,,,,,1912,-32.79998904,-69.60000747,1,0,0,response5disk,,3,-4.799988627,7.19999367,1,0,0,rectangle,-4.799988627,7.19999367,1,0,0,-4.799988627,7.19999367,1,0,0,1,45,205,134,1,,,,,,,,
,,,,,,,,,,,,,FF,,,,,,,,1.2506,,,,,,,,,,,,,,,,,,,,,,6100a8709599c7ce38d7c4a7,61036de9eb579a8efc685ebe,2021-07-29_22h12.16.311,Simcolourproject_2stim_asymm_v5,2020.2.10,Win32,60,61025ae37ef11b136ea224fe,,,,,,,,,354,-74.39994084,-62.40000737,1,0,0,response5disk,,2,17.60006053,4.799993634,1,0,0,rectangle,17.60006053,4.799993634,1,0,0,17.60006053,4.799993634,1,0,0,1,46,206,120,1,,,,,,,,
,,,,,,,,,,,,,FF,,,,,,,,0.8006,,,,,,,,,,,,,,,,,,,,,,6100a8709599c7ce38d7c4a7,61036de9eb579a8efc685ebe,2021-07-29_22h12.16.311,Simcolourproject_2stim_asymm_v5,2020.2.10,Win32,60,61025ae37ef11b136ea224fe,,,,,,,,,4107,-43.1999892,-101.6000568,1,0,0,response5disk,,3,-1.59998858,-6.4373E-06,1,0,0,rectangle,-1.59998858,-6.4373E-06,1,0,0,-1.59998858,-6.4373E-06,1,0,0,1,47,207,159,1,,,,,,,,
,,,,,,,,,,,,,FF,,,,,,,,0.7667,,,,,,,,,,,,,,,,,,,,,,6100a8709599c7ce38d7c4a7,61036de9eb579a8efc685ebe,2021-07-29_22h12.16.311,Simcolourproject_2stim_asymm_v5,2020.2.10,Win32,60,61025ae37ef11b136ea224fe,,,,,,,,,877,43.20001209,26.39999396,1,0,0,response1disk,,6,-5.599988639,-4.800006509,1,0,0,rectangle,-5.599988639,-4.800006509,1,0,0,-5.599988639,-4.800006509,1,0,0,1,48,208,48,1,,,,,,,,
,,,,,,,,,,,,,FF,,,,,,,,1.1338,,,,,,,,,,,,,,,,,,,,,,6100a8709599c7ce38d7c4a7,61036de9eb579a8efc685ebe,2021-07-29_22h12.16.311,Simcolourproject_2stim_asymm_v5,2020.2.10,Win32,60,61025ae37ef11b136ea224fe,,,,,,,,,2092,93.60001284,-42.40000707,1,0,0,response3disk,,5,12.80001163,-8.800006568,1,0,0,rectangle,12.80001163,-8.800006568,1,0,0,12.80001163,-8.800006568,1,0,0,1,49,209,49,1,,,,,,,,
,,,,,,,,,,,,,FF,,,,,,,,0.9835,,,,,,,,,,,,,,,,,,,,,,6100a8709599c7ce38d7c4a7,61036de9eb579a8efc685ebe,2021-07-29_22h12.16.311,Simcolourproject_2stim_asymm_v5,2020.2.10,Win32,60,61025ae37ef11b136ea224fe,,,,,,,,,2621,-53.59998935,-71.2000075,1,0,0,response5disk,,3,-10.39993988,5.599993646,1,0,0,rectangle,89.60001278,-41.60000706,1,0,0,18.40001172,-4.800006509,1,0,0,1,50,210,112,1,,response3disk_3,TRUE,5,5,"[278,15,216,205,280,226,214,218,271,175,175,112,50,172,43,292,242,256,211,174]",1.6679,rectangle
,,,,,,,,,,,,,FF,,,,,,,,0.9006,,,,,,,,,,,,,,,,,,,,,,6100a8709599c7ce38d7c4a7,61036de9eb579a8efc685ebe,2021-07-29_22h12.16.311,Simcolourproject_2stim_asymm_v5,2020.2.10,Win32,60,61025ae37ef11b136ea224fe,,,,,,,,,2722,-24.79998893,-62.40000737,1,0,0,response5disk,,3,9.600060415,15.9999938,1,0,0,rectangle,9.600060415,15.9999938,1,0,0,9.600060415,15.9999938,1,0,0,1,51,211,156,1,,,,,,,,
,,,,,,,,,,,,,FF,,,,,,,,0.9167,,,,,,,,,,,,,,,,,,,,,,6100a8709599c7ce38d7c4a7,61036de9eb579a8efc685ebe,2021-07-29_22h12.16.311,Simcolourproject_2stim_asymm_v5,2020.2.10,Win32,60,61025ae37ef11b136ea224fe,,,,,,,,,1542,35.20001197,-103.200008,1,0,0,response3disk,,4,1.600060296,7.999993682,1,0,0,rectangle,1.600060296,7.999993682,1,0,0,1.600060296,7.999993682,1,0,0,1,52,212,142,1,,,,,,,,
,,,,,,,,,,,,,FF,,,,,,,,0.7674,,,,,,,,,,,,,,,,,,,,,,6100a8709599c7ce38d7c4a7,61036de9eb579a8efc685ebe,2021-07-29_22h12.16.311,Simcolourproject_2stim_asymm_v5,2020.2.10,Win32,60,61025ae37ef11b136ea224fe,,,,,,,,,258,-43.1999892,-89.6000566,1,0,0,response5disk,,3,4.000011504,3.999993622,1,0,0,rectangle,-68.79998958,23.99999392,1,0,0,-24.79998893,-6.4373E-06,1,0,0,1,53,213,63,1,,response7disk_3,TRUE,1,1,"[278,15,216,205,280,226,214,218,271,175,175,112,50,172,43,292,242,256,211,174]",1.7674,rectangle
,,,,,,,,,,,,,FF,,,,,,,,1.1006,,,,,,,,,,,,,,,,,,,,,,6100a8709599c7ce38d7c4a7,61036de9eb579a8efc685ebe,2021-07-29_22h12.16.311,Simcolourproject_2stim_asymm_v5,2020.2.10,Win32,60,61025ae37ef11b136ea224fe,,,,,,,,,3267,108.8000131,56.79999441,1,0,0,response1disk,,6,24.0000118,11.99999374,1,0,0,rectangle,24.0000118,11.99999374,1,0,0,24.0000118,11.99999374,1,0,0,1,54,214,26,1,,,,,,,,
,,,,,,,,,,,,,FF,,,,,,,,0.9834,,,,,,,,,,,,,,,,,,,,,,6100a8709599c7ce38d7c4a7,61036de9eb579a8efc685ebe,2021-07-29_22h12.16.311,Simcolourproject_2stim_asymm_v5,2020.2.10,Win32,60,61025ae37ef11b136ea224fe,,,,,,,,,3753,54.40001225,-47.20000714,1,0,0,response3disk,,5,-4.799988627,-3.200006485,1,0,0,rectangle,-35.99998909,83.19997039,1,0,0,2.40001148,3.999993622,1,0,0,1,55,215,34,1,,response7disk_3,TRUE,0,0,"[278,15,216,205,280,226,214,218,271,175,175,112,50,172,43,292,242,256,211,174]",1.4842,rectangle
,,,,,,,,,,,,,FF,,,,,,,,0.8666,,,,,,,,,,,,,,,,,,,,,,6100a8709599c7ce38d7c4a7,61036de9eb579a8efc685ebe,2021-07-29_22h12.16.311,Simcolourproject_2stim_asymm_v5,2020.2.10,Win32,60,61025ae37ef11b136ea224fe,,,,,,,,,1434,70.40001249,26.39999396,1,0,0,response1disk,,6,16.00001168,2.399993598,1,0,0,rectangle,16.00001168,2.399993598,1,0,0,16.00001168,2.399993598,1,0,0,1,56,216,60,1,,,,,,,,
,,,,,,,,,,,,,FF,,,,,,,,0.917,,,,,,,,,,,,,,,,,,,,,,6100a8709599c7ce38d7c4a7,61036de9eb579a8efc685ebe,2021-07-29_22h12.16.311,Simcolourproject_2stim_asymm_v5,2020.2.10,Win32,60,61025ae37ef11b136ea224fe,,,,,,,,,31,52.00001222,35.9999941,1,0,0,response1disk,,6,-11.99998873,-4.000006497,1,0,0,rectangle,-73.59998965,59.99999446,1,0,0,-18.39994,2.399993598,1,0,0,1,57,217,40,1,,response7disk_3,TRUE,1,1,"[278,15,216,205,280,226,214,218,271,175,175,112,50,172,43,292,242,256,211,174]",1.5503,rectangle
,,,,,,,,,,,,,FF,,,,,,,,1.3335,,,,,,,,,,,,,,,,,,,,,,6100a8709599c7ce38d7c4a7,61036de9eb579a8efc685ebe,2021-07-29_22h12.16.311,Simcolourproject_2stim_asymm_v5,2020.2.10,Win32,60,61025ae37ef11b136ea224fe,,,,,,,,,49,57.6000123,-34.40000695,1,0,0,response3disk,,5,25.60006065,-4.800006509,1,0,0,rectangle,25.60006065,-4.800006509,1,0,0,25.60006065,-4.800006509,1,0,0,1,58,218,93,1,,,,,,,,
,,,,,,,,,,,,,FF,,,,,,,,1.6008,,,,,,,,,,,,,,,,,,,,,,6100a8709599c7ce38d7c4a7,61036de9eb579a8efc685ebe,2021-07-29_22h12.16.311,Simcolourproject_2stim_asymm_v5,2020.2.10,Win32,60,61025ae37ef11b136ea224fe,,,,,,,,,2889,-49.5999893,-89.6000566,1,0,0,response5disk,,3,-11.99998873,11.99999374,1,0,0,rectangle,-11.99998873,11.99999374,1,0,0,-11.99998873,11.99999374,1,0,0,1,59,219,151,1,,,,,,,,
,,,,,,,,,,,,,FF,,,,,,,,0.7334,,,,,,,,,,,,,,,,,,,,,,6100a8709599c7ce38d7c4a7,61036de9eb579a8efc685ebe,2021-07-29_22h12.16.311,Simcolourproject_2stim_asymm_v5,2020.2.10,Win32,60,61025ae37ef11b136ea224fe,,,,,,,,,687,37.60006083,118.3999953,1,0,0,response1disk,,7,-3.999988616,1.599993587,1,0,0,rectangle,-3.999988616,1.599993587,1,0,0,-3.999988616,1.599993587,1,0,0,1,60,220,18,1,,,,,,,,
,,,,,,,,,,,,,FF,,,,,,,,0.9004,,,,,,,,,,,,,,,,,,,,,,6100a8709599c7ce38d7c4a7,61036de9eb579a8efc685ebe,2021-07-29_22h12.16.311,Simcolourproject_2stim_asymm_v5,2020.2.10,Win32,60,61025ae37ef11b136ea224fe,,,,,,,,,3043,65.60001242,-35.20000696,1,0,0,response3disk,,5,-0.799988568,-8.000006557,1,0,0,rectangle,-0.799988568,-8.000006557,1,0,0,-0.799988568,-8.000006557,1,0,0,1,61,221,21,1,,,,,,,,
,,,,,,,,,,,,,FF,,,,,,,,1.206,,,,,,,,,,,,,,,,,,,,,,6100a8709599c7ce38d7c4a7,61036de9eb579a8efc685ebe,2021-07-29_22h12.16.311,Simcolourproject_2stim_asymm_v5,2020.2.10,Win32,60,61025ae37ef11b136ea224fe,,,,,,,,,4080,79.20001262,-45.60000712,1,0,0,response3disk,,5,-0.799988568,-6.400006533,1,0,0,rectangle,-0.799988568,-6.400006533,1,0,0,-0.799988568,-6.400006533,1,0,0,1,62,222,51,1,,,,,,,,
,,,,,,,,,,,,,FF,,,,,,,,0.8617,,,,,,,,,,,,,,,,,,,,,,6100a8709599c7ce38d7c4a7,61036de9eb579a8efc685ebe,2021-07-29_22h12.16.311,Simcolourproject_2stim_asymm_v5,2020.2.10,Win32,60,61025ae37ef11b136ea224fe,,,,,,,,,698,52.00001222,40.79999417,1,0,0,response1disk,,6,-16.79998881,3.19999361,1,0,0,rectangle,-16.79998881,3.19999361,1,0,0,-16.79998881,3.19999361,1,0,0,1,63,223,132,1,,,,,,,,
,,,,,,,,,,,,,FF,,,,,,,,1.4004,,,,,,,,,,,,,,,,,,,,,,6100a8709599c7ce38d7c4a7,61036de9eb579a8efc685ebe,2021-07-29_22h12.16.311,Simcolourproject_2stim_asymm_v5,2020.2.10,Win32,60,61025ae37ef11b136ea224fe,,,,,,,,,1928,59.20001233,35.19996967,1,0,0,response1disk,,6,-12.79998875,-13.60000664,1,0,0,rectangle,-12.79998875,-13.60000664,1,0,0,-12.79998875,-13.60000664,1,0,0,1,64,224,22,1,,,,,,,,
,,,,,,,,,,,,,FF,,,,,,,,0.8506,,,,,,,,,,,,,,,,,,,,,,6100a8709599c7ce38d7c4a7,61036de9eb579a8efc685ebe,2021-07-29_22h12.16.311,Simcolourproject_2stim_asymm_v5,2020.2.10,Win32,60,61025ae37ef11b136ea224fe,,,,,,,,,3406,56.80001229,31.99999404,1,0,0,response1disk,,6,-2.399939764,-8.000006557,1,0,0,rectangle,-41.59998918,-108.000008,1,0,0,3.200011492,4.799993634,1,0,0,1,65,225,39,1,,response5disk_3,TRUE,3,3,"[278,15,216,205,280,226,214,218,271,175,175,112,50,172,43,292,242,256,211,174]",1.3347,rectangle
,,,,,,,,,,,,,FF,,,,,,,,0.9668,,,,,,,,,,,,,,,,,,,,,,6100a8709599c7ce38d7c4a7,61036de9eb579a8efc685ebe,2021-07-29_22h12.16.311,Simcolourproject_2stim_asymm_v5,2020.2.10,Win32,60,61025ae37ef11b136ea224fe,,,,,,,,,3935,32.80001193,-96.00000787,1,0,0,response3disk,,4,8.000011563,-3.200006485,1,0,0,rectangle,8.000011563,-3.200006485,1,0,0,8.000011563,-3.200006485,1,0,0,1,66,226,133,1,,,,,,,,
,,,,,,,,,,,,,FF,,,,,,,,1.6673,,,,,,,,,,,,,,,,,,,,,,6100a8709599c7ce38d7c4a7,61036de9eb579a8efc685ebe,2021-07-29_22h12.16.311,Simcolourproject_2stim_asymm_v5,2020.2.10,Win32,60,61025ae37ef11b136ea224fe,,,,,,,,,742,86.40001273,53.59999436,1,0,0,response1disk,,6,13.60006047,11.19999373,1,0,0,rectangle,13.60006047,11.19999373,1,0,0,13.60006047,11.19999373,1,0,0,1,67,227,116,1,,,,,,,,
,,,,,,,,,,,,,FF,,,,,,,,1.0336,,,,,,,,,,,,,,,,,,,,,,6100a8709599c7ce38d7c4a7,61036de9eb579a8efc685ebe,2021-07-29_22h12.16.311,Simcolourproject_2stim_asymm_v5,2020.2.10,Win32,60,61025ae37ef11b136ea224fe,,,,,,,,,868,82.40001267,-50.40000719,1,0,0,response3disk,,5,1.600060296,-0.800006449,1,0,0,rectangle,1.600060296,-0.800006449,1,0,0,1.600060296,-0.800006449,1,0,0,1,68,228,68,1,,,,,,,,
,,,,,,,,,,,,,FF,,,,,,,,1.4227,,,,,,,,,,,,,,,,,,,,,,6100a8709599c7ce38d7c4a7,61036de9eb579a8efc685ebe,2021-07-29_22h12.16.311,Simcolourproject_2stim_asymm_v5,2020.2.10,Win32,60,61025ae37ef11b136ea224fe,,,,,,,,,1524,-43.99998921,-65.60000741,1,0,0,response5disk,,3,-10.39993988,6.399993658,1,0,0,rectangle,-10.39993988,6.399993658,1,0,0,-10.39993988,6.399993658,1,0,0,1,69,229,36,1,,,,,,,,
,,,,,,,,,,,,,FF,,,,,,,,1.2178,,,,,,,,,,,,,,,,,,,,,,6100a8709599c7ce38d7c4a7,61036de9eb579a8efc685ebe,2021-07-29_22h12.16.311,Simcolourproject_2stim_asymm_v5,2020.2.10,Win32,60,61025ae37ef11b136ea224fe,,,,,,,,,1334,46.40001214,61.59999448,1,0,0,response1disk,,7,4.800011516,-11.2000066,1,0,0,rectangle,4.800011516,-11.2000066,1,0,0,4.800011516,-11.2000066,1,0,0,1,70,230,25,1,,,,,,,,
,,,,,,,,,,,,,FF,,,,,,,,0.8171,,,,,,,,,,,,,,,,,,,,,,6100a8709599c7ce38d7c4a7,61036de9eb579a8efc685ebe,2021-07-29_22h12.16.311,Simcolourproject_2stim_asymm_v5,2020.2.10,Win32,60,61025ae37ef11b136ea224fe,,,,,,,,,2506,63.20001239,43.99999422,1,0,0,response1disk,,6,-1.59998858,0.799993575,1,0,0,rectangle,-1.59998858,0.799993575,1,0,0,-1.59998858,0.799993575,1,0,0,1,71,231,137,1,,,,,,,,
,,,,,,,,,,,,,FF,,,,,,,,0.9337,,,,,,,,,,,,,,,,,,,,,,6100a8709599c7ce38d7c4a7,61036de9eb579a8efc685ebe,2021-07-29_22h12.16.311,Simcolourproject_2stim_asymm_v5,2020.2.10,Win32,60,61025ae37ef11b136ea224fe,,,,,,,,,3518,-42.39994036,-47.20000714,1,0,0,response5disk,,3,-1.59998858,-8.000006557,1,0,0,rectangle,-1.59998858,-8.000006557,1,0,0,-1.59998858,-8.000006557,1,0,0,1,72,232,64,1,,,,,,,,
,,,,,,,,,,,,,FF,,,,,,,,0.8172,,,,,,,,,,,,,,,,,,,,,,6100a8709599c7ce38d7c4a7,61036de9eb579a8efc685ebe,2021-07-29_22h12.16.311,Simcolourproject_2stim_asymm_v5,2020.2.10,Win32,60,61025ae37ef11b136ea224fe,,,,,,,,,115,47.20001215,87.99999487,1,0,0,response1disk,,7,4.800011516,-4.800006509,1,0,0,rectangle,4.800011516,-4.800006509,1,0,0,4.800011516,-4.800006509,1,0,0,1,73,233,32,1,,,,,,,,
,,,,,,,,,,,,,FF,,,,,,,,0.9505,,,,,,,,,,,,,,,,,,,,,,6100a8709599c7ce38d7c4a7,61036de9eb579a8efc685ebe,2021-07-29_22h12.16.311,Simcolourproject_2stim_asymm_v5,2020.2.10,Win32,60,61025ae37ef11b136ea224fe,,,,,,,,,3686,60.80001235,-41.60000706,1,0,0,response3disk,,5,-3.999988616,-8.800006568,1,0,0,rectangle,-3.999988616,-8.800006568,1,0,0,-3.999988616,-8.800006568,1,0,0,1,74,234,42,1,,,,,,,,
,,,,,,,,,,,,,FF,,,,,,,,1.0833,,,,,,,,,,,,,,,,,,,,,,6100a8709599c7ce38d7c4a7,61036de9eb579a8efc685ebe,2021-07-29_22h12.16.311,Simcolourproject_2stim_asymm_v5,2020.2.10,Win32,60,61025ae37ef11b136ea224fe,,,,,,,,,4218,-76.7999897,-37.600007,1,0,0,response5disk,,2,-10.39993988,-4.800006509,1,0,0,rectangle,-10.39993988,-4.800006509,1,0,0,-10.39993988,-4.800006509,1,0,0,1,75,235,41,1,,,,,,,,
,,,,,,,,,,,,,FF,,,,,,,,0.8502,,,,,,,,,,,,,,,,,,,,,,6100a8709599c7ce38d7c4a7,61036de9eb579a8efc685ebe,2021-07-29_22h12.16.311,Simcolourproject_2stim_asymm_v5,2020.2.10,Win32,60,61025ae37ef11b136ea224fe,,,,,,,,,2260,53.60001224,28.79999399,1,0,0,response1disk,,6,4.000011504,-6.4373E-06,1,0,0,rectangle,4.000011504,-6.4373E-06,1,0,0,4.000011504,-6.4373E-06,1,0,0,1,76,236,98,1,,,,,,,,
,,,,,,,,,,,,,FF,,,,,,,,0.7835,,,,,,,,,,,,,,,,,,,,,,6100a8709599c7ce38d7c4a7,61036de9eb579a8efc685ebe,2021-07-29_22h12.16.311,Simcolourproject_2stim_asymm_v5,2020.2.10,Win32,60,61025ae37ef11b136ea224fe,,,,,,,,,679,28.00001186,45.59999424,1,0,0,response1disk,,7,1.600060296,-1.600006461,1,0,0,rectangle,1.600060296,-1.600006461,1,0,0,1.600060296,-1.600006461,1,0,0,1,77,237,85,1,,,,,,,,
,,,,,,,,,,,,,FF,,,,,,,,1.7339,,,,,,,,,,,,,,,,,,,,,,6100a8709599c7ce38d7c4a7,61036de9eb579a8efc685ebe,2021-07-29_22h12.16.311,Simcolourproject_2stim_asymm_v5,2020.2.10,Win32,60,61025ae37ef11b136ea224fe,,,,,,,,,378,106.400013,50.39999431,1,0,0,response1disk,,6,17.60006053,7.999993682,1,0,0,rectangle,17.60006053,7.999993682,1,0,0,17.60006053,7.999993682,1,0,0,1,78,238,4,1,,,,,,,,
,,,,,,,,,,,,,FF,,,,,,,,0.9678,,,,,,,,,,,,,,,,,,,,,,6100a8709599c7ce38d7c4a7,61036de9eb579a8efc685ebe,2021-07-29_22h12.16.311,Simcolourproject_2stim_asymm_v5,2020.2.10,Win32,60,61025ae37ef11b136ea224fe,,,,,,,,,2874,32.00001192,83.99999481,1,0,0,response1disk,,7,-12.79998875,-1.600006461,1,0,0,rectangle,-12.79998875,-1.600006461,1,0,0,-12.79998875,-1.600006461,1,0,0,1,79,239,9,1,,,,,,,,
,,,,,,,,,,,,,FF,,,,,,,,0.7839,,,,,,,,,,,,,,,,,,,,,,6100a8709599c7ce38d7c4a7,61036de9eb579a8efc685ebe,2021-07-29_22h12.16.311,Simcolourproject_2stim_asymm_v5,2020.2.10,Win32,60,61025ae37ef11b136ea224fe,,,,,,,,,929,40.80001205,57.59999442,1,0,0,response1disk,,7,9.600060415,-5.600006521,1,0,0,rectangle,9.600060415,-5.600006521,1,0,0,9.600060415,-5.600006521,1,0,0,1,80,240,31,1,,,,,,,,
,,,,,,,,,,,,,FF,,,,,,,,0.7455,,,,,,,,,,,,,,,,,,,,,,6100a8709599c7ce38d7c4a7,61036de9eb579a8efc685ebe,2021-07-29_22h12.16.311,Simcolourproject_2stim_asymm_v5,2020.2.10,Win32,60,61025ae37ef11b136ea224fe,,,,,,,,,3538,48.80001217,55.9999944,1,0,0,response1disk,,7,24.0000118,1.599993587,1,0,0,rectangle,-90.39994107,-44.00000709,1,0,0,-13.59998876,-5.600006521,1,0,0,1,81,241,119,1,,response5disk_3,TRUE,2,2,"[278,15,216,205,280,226,214,218,271,175,175,112,50,172,43,292,242,256,211,174]",1.9507,rectangle
,,,,,,,,,,,,,FF,,,,,,,,0.9179,,,,,,,,,,,,,,,,,,,,,,6100a8709599c7ce38d7c4a7,61036de9eb579a8efc685ebe,2021-07-29_22h12.16.311,Simcolourproject_2stim_asymm_v5,2020.2.10,Win32,60,61025ae37ef11b136ea224fe,,,,,,,,,1493,48.00001216,34.39999408,1,0,0,response1disk,,6,-22.39994006,-0.800006449,1,0,0,rectangle,-22.39994006,-0.800006449,1,0,0,-22.39994006,-0.800006449,1,0,0,1,82,242,23,1,,,,,,,,
,,,,,,,,,,,,,FF,,,,,,,,0.8118,,,,,,,,,,,,,,,,,,,,,,6100a8709599c7ce38d7c4a7,61036de9eb579a8efc685ebe,2021-07-29_22h12.16.311,Simcolourproject_2stim_asymm_v5,2020.2.10,Win32,60,61025ae37ef11b136ea224fe,,,,,,,,,3226,47.20001215,67.99999458,1,0,0,response1disk,,7,18.40001172,11.99999374,1,0,0,rectangle,18.40001172,11.99999374,1,0,0,18.40001172,11.99999374,1,0,0,1,83,243,157,1,,,,,,,,
