key_resp.keys,key_resp.rt,key_resp_14.keys,key_resp_14.rt,key_resp_15.keys,key_resp_15.rt,key_resp_17.keys,key_resp_17.rt,key_resp_9.keys,key_resp_9.rt,key_resp_10.keys,key_resp_10.rt,practice_comparison,Ecc,mouse_5.x,mouse_5.y,mouse_5.leftButton,mouse_5.midButton,mouse_5.rightButton,mouse_5.clicked_name,pracsimilarity,response_time,mouse_10.x,mouse_10.y,mouse_10.leftButton,mouse_10.midButton,mouse_10.rightButton,mouse_10.clicked_name,mouse_7.x,mouse_7.y,mouse_7.leftButton,mouse_7.midButton,mouse_7.rightButton,mouse_6.x,mouse_6.y,mouse_6.leftButton,mouse_6.midButton,mouse_6.rightButton,duringprac.thisRepN,duringprac.thisTrialN,duringprac.thisN,duringprac.thisIndex,duringprac.ran,participant,session,date,expName,psychopyVersion,OS,frameRate,study_id,mouse_7.clicked_name,catchpracsimilarity,catch_response_time,catchnumberprac,catchtrialorderprac,mouse_6.clicked_name,key_resp_22.keys,key_resp_22.rt,realcomparison,mouse.x,mouse.y,mouse.leftButton,mouse.midButton,mouse.rightButton,mouse.clicked_name,Colour2,similarity,mouse_2.x,mouse_2.y,mouse_2.leftButton,mouse_2.midButton,mouse_2.rightButton,mouse_2.clicked_name,mouse_3.x,mouse_3.y,mouse_3.leftButton,mouse_3.midButton,mouse_3.rightButton,mouse_11.x,mouse_11.y,mouse_11.leftButton,mouse_11.midButton,mouse_11.rightButton,trials_2.thisRepN,trials_2.thisTrialN,trials_2.thisN,trials_2.thisIndex,trials_2.ran,Colour1,mouse_3.clicked_name,catchornah,catchsimilarity,catchnumber,catchtrialorder,catchRT,mouse_11.clicked_name
space,5.422,space,14.584,space,46.028,space,14.742,space,3.376,space,4.164,14,FF,40,95,1,0,0,response1disk_5,7,17.084,0,-8,1,0,0,rectangle_8,0,-8,1,0,0,0,-8,1,0,0,0,0,0,3,1,61006befb060ce1e415e03df,61036f7611bc5a6b8b2646c0,2021-07-29_23h18.53.882,Simcolourproject_2stim_asymm_v5,2020.2.10,MacIntel,60,61025ae37ef11b136ea224fe,,,,,,,,,,,,,,,,,,,,,,,,,,,,,,,,,,,,,,,,,,,,,,
,,,,,,,,,,,,41,PF,82,-26,1,0,0,response3disk_5,5,6.901,5,-2,1,0,0,rectangle_8,-66,41,1,0,0,0,-3,1,0,0,0,1,1,6,1,61006befb060ce1e415e03df,61036f7611bc5a6b8b2646c0,2021-07-29_23h18.53.882,Simcolourproject_2stim_asymm_v5,2020.2.10,MacIntel,60,61025ae37ef11b136ea224fe,response7disk_7,1,3.717,1,"[2,5]",rectangle_4,,,,,,,,,,,,,,,,,,,,,,,,,,,,,,,,,,,,,,,,
,,,,,,,,,,,,122,PF,35,63,1,0,0,response1disk_5,7,6.334,14,-4,1,0,0,rectangle_8,14,-4,1,0,0,14,-4,1,0,0,0,2,2,2,1,61006befb060ce1e415e03df,61036f7611bc5a6b8b2646c0,2021-07-29_23h18.53.882,Simcolourproject_2stim_asymm_v5,2020.2.10,MacIntel,60,61025ae37ef11b136ea224fe,,,,,,,,,,,,,,,,,,,,,,,,,,,,,,,,,,,,,,,,,,,,,,
,,,,,,,,,,,,34,FF,-58,-33,1,0,0,response5disk_5,2,2.833,-14,-1,1,0,0,rectangle_8,-14,-1,1,0,0,-14,-1,1,0,0,0,3,3,0,1,61006befb060ce1e415e03df,61036f7611bc5a6b8b2646c0,2021-07-29_23h18.53.882,Simcolourproject_2stim_asymm_v5,2020.2.10,MacIntel,60,61025ae37ef11b136ea224fe,,,,,,,,,,,,,,,,,,,,,,,,,,,,,,,,,,,,,,,,,,,,,,
,,,,,,,,,,,,146,FF,84,43,1,0,0,response1disk_5,6,5.884,19,-4,1,0,0,rectangle_8,-70,33,1,0,0,1,4,1,0,0,0,4,4,5,1,61006befb060ce1e415e03df,61036f7611bc5a6b8b2646c0,2021-07-29_23h18.53.882,Simcolourproject_2stim_asymm_v5,2020.2.10,MacIntel,60,61025ae37ef11b136ea224fe,response7disk_7,1,2.433,1,"[2,5]",rectangle_4,,,,,,,,,,,,,,,,,,,,,,,,,,,,,,,,,,,,,,,,
,,,,,,,,,,,,155,PF,86,41,1,0,0,response1disk_5,6,3.416,20,-2,1,0,0,rectangle_8,20,-2,1,0,0,20,-2,1,0,0,0,5,5,4,1,61006befb060ce1e415e03df,61036f7611bc5a6b8b2646c0,2021-07-29_23h18.53.882,Simcolourproject_2stim_asymm_v5,2020.2.10,MacIntel,60,61025ae37ef11b136ea224fe,,,,,,,,,,,,,,,,,,,,,,,,,,,,,,,,,,,,,,,,,,,,,,
,,,,,,,,,,,,25,PF,-72,-32,1,0,0,response5disk_5,2,2.7,1,11,1,0,0,rectangle_8,1,11,1,0,0,1,11,1,0,0,0,6,6,1,1,61006befb060ce1e415e03df,61036f7611bc5a6b8b2646c0,2021-07-29_23h18.53.882,Simcolourproject_2stim_asymm_v5,2020.2.10,MacIntel,60,61025ae37ef11b136ea224fe,,,,,,,,,,,,,,,,,,,,,,,,,,,,,,,,,,,,,,,,,,,,,,
,,,,,,,,,,,,,FF,,,,,,,,9.6,,,,,,,,,,,,,,,,,,,,,,61006befb060ce1e415e03df,61036f7611bc5a6b8b2646c0,2021-07-29_23h18.53.882,Simcolourproject_2stim_asymm_v5,2020.2.10,MacIntel,60,61025ae37ef11b136ea224fe,,,,,,,space,2.975,299,89,-41,1,0,0,response3disk,,5,14,-3,1,0,0,rectangle,14,-3,1,0,0,14,-3,1,0,0,0,0,0,151,1,,,,,,,,
,,,,,,,,,,,,,FF,,,,,,,,3.867,,,,,,,,,,,,,,,,,,,,,,61006befb060ce1e415e03df,61036f7611bc5a6b8b2646c0,2021-07-29_23h18.53.882,Simcolourproject_2stim_asymm_v5,2020.2.10,MacIntel,60,61025ae37ef11b136ea224fe,,,,,,,,,187,-67,35,1,0,0,response7disk,,1,-3,-10,1,0,0,rectangle,-45,85,1,0,0,6,15,1,0,0,0,1,1,88,1,,response7disk_3,TRUE,0,0,"[215,41,240,241,2,200,200,25,159,99,216,211,48,108,210,176,153,145,246,115]",2.016,rectangle
,,,,,,,,,,,,,FF,,,,,,,,8.467,,,,,,,,,,,,,,,,,,,,,,61006befb060ce1e415e03df,61036f7611bc5a6b8b2646c0,2021-07-29_23h18.53.882,Simcolourproject_2stim_asymm_v5,2020.2.10,MacIntel,60,61025ae37ef11b136ea224fe,,,,,,,,,1909,-27,-63,1,0,0,response5disk,,3,8,-1,1,0,0,rectangle,8,-1,1,0,0,8,-1,1,0,0,0,2,2,74,1,,,,,,,,
,,,,,,,,,,,,,FF,,,,,,,,8.65,,,,,,,,,,,,,,,,,,,,,,61006befb060ce1e415e03df,61036f7611bc5a6b8b2646c0,2021-07-29_23h18.53.882,Simcolourproject_2stim_asymm_v5,2020.2.10,MacIntel,60,61025ae37ef11b136ea224fe,,,,,,,,,603,80,-50,1,0,0,response3disk,,5,30,-6,1,0,0,rectangle,30,-6,1,0,0,30,-6,1,0,0,0,3,3,91,1,,,,,,,,
,,,,,,,,,,,,,FF,,,,,,,,3.3,,,,,,,,,,,,,,,,,,,,,,61006befb060ce1e415e03df,61036f7611bc5a6b8b2646c0,2021-07-29_23h18.53.882,Simcolourproject_2stim_asymm_v5,2020.2.10,MacIntel,60,61025ae37ef11b136ea224fe,,,,,,,,,3733,60,69,1,0,0,response1disk,,7,17,1,1,0,0,rectangle,17,1,1,0,0,17,1,1,0,0,0,4,4,44,1,,,,,,,,
,,,,,,,,,,,,,FF,,,,,,,,9.016,,,,,,,,,,,,,,,,,,,,,,61006befb060ce1e415e03df,61036f7611bc5a6b8b2646c0,2021-07-29_23h18.53.882,Simcolourproject_2stim_asymm_v5,2020.2.10,MacIntel,60,61025ae37ef11b136ea224fe,,,,,,,,,3760,91,31,1,0,0,response1disk,,6,13,-3,1,0,0,rectangle,13,-3,1,0,0,13,-3,1,0,0,0,5,5,115,1,,,,,,,,
,,,,,,,,,,,,,FF,,,,,,,,5.467,,,,,,,,,,,,,,,,,,,,,,61006befb060ce1e415e03df,61036f7611bc5a6b8b2646c0,2021-07-29_23h18.53.882,Simcolourproject_2stim_asymm_v5,2020.2.10,MacIntel,60,61025ae37ef11b136ea224fe,,,,,,,,,2951,-73,-35,1,0,0,response5disk,,2,-18,-6,1,0,0,rectangle,-18,-6,1,0,0,-18,-6,1,0,0,0,6,6,64,1,,,,,,,,
,,,,,,,,,,,,,FF,,,,,,,,5.267,,,,,,,,,,,,,,,,,,,,,,61006befb060ce1e415e03df,61036f7611bc5a6b8b2646c0,2021-07-29_23h18.53.882,Simcolourproject_2stim_asymm_v5,2020.2.10,MacIntel,60,61025ae37ef11b136ea224fe,,,,,,,,,2871,85,-39,1,0,0,response3disk,,5,-15,-4,1,0,0,rectangle,-15,-4,1,0,0,-15,-4,1,0,0,0,7,7,28,1,,,,,,,,
,,,,,,,,,,,,,FF,,,,,,,,2.867,,,,,,,,,,,,,,,,,,,,,,61006befb060ce1e415e03df,61036f7611bc5a6b8b2646c0,2021-07-29_23h18.53.882,Simcolourproject_2stim_asymm_v5,2020.2.10,MacIntel,60,61025ae37ef11b136ea224fe,,,,,,,,,1237,81,24,1,0,0,response1disk,,6,18,-2,1,0,0,rectangle,18,-2,1,0,0,18,-2,1,0,0,0,8,8,71,1,,,,,,,,
,,,,,,,,,,,,,FF,,,,,,,,3.316,,,,,,,,,,,,,,,,,,,,,,61006befb060ce1e415e03df,61036f7611bc5a6b8b2646c0,2021-07-29_23h18.53.882,Simcolourproject_2stim_asymm_v5,2020.2.10,MacIntel,60,61025ae37ef11b136ea224fe,,,,,,,,,1590,84,-43,1,0,0,response3disk,,5,-11,-7,1,0,0,rectangle,-11,-7,1,0,0,-11,-7,1,0,0,0,9,9,57,1,,,,,,,,
,,,,,,,,,,,,,FF,,,,,,,,1.117,,,,,,,,,,,,,,,,,,,,,,61006befb060ce1e415e03df,61036f7611bc5a6b8b2646c0,2021-07-29_23h18.53.882,Simcolourproject_2stim_asymm_v5,2020.2.10,MacIntel,60,61025ae37ef11b136ea224fe,,,,,,,,,634,-66,41,1,0,0,response7disk,,1,11,-5,1,0,0,rectangle,11,-5,1,0,0,11,-5,1,0,0,0,10,10,12,1,,,,,,,,
,,,,,,,,,,,,,FF,,,,,,,,3.501,,,,,,,,,,,,,,,,,,,,,,61006befb060ce1e415e03df,61036f7611bc5a6b8b2646c0,2021-07-29_23h18.53.882,Simcolourproject_2stim_asymm_v5,2020.2.10,MacIntel,60,61025ae37ef11b136ea224fe,,,,,,,,,4147,-54,28,1,0,0,response7disk,,1,4,-7,1,0,0,rectangle,4,-7,1,0,0,4,-7,1,0,0,0,11,11,36,1,,,,,,,,
,,,,,,,,,,,,,FF,,,,,,,,1.65,,,,,,,,,,,,,,,,,,,,,,61006befb060ce1e415e03df,61036f7611bc5a6b8b2646c0,2021-07-29_23h18.53.882,Simcolourproject_2stim_asymm_v5,2020.2.10,MacIntel,60,61025ae37ef11b136ea224fe,,,,,,,,,104,-22,-66,1,0,0,response5disk,,3,12,-4,1,0,0,rectangle,12,-4,1,0,0,12,-4,1,0,0,0,12,12,150,1,,,,,,,,
,,,,,,,,,,,,,FF,,,,,,,,1.7,,,,,,,,,,,,,,,,,,,,,,61006befb060ce1e415e03df,61036f7611bc5a6b8b2646c0,2021-07-29_23h18.53.882,Simcolourproject_2stim_asymm_v5,2020.2.10,MacIntel,60,61025ae37ef11b136ea224fe,,,,,,,,,416,73,33,1,0,0,response1disk,,6,1,-7,1,0,0,rectangle,1,-7,1,0,0,1,-7,1,0,0,0,13,13,83,1,,,,,,,,
,,,,,,,,,,,,,FF,,,,,,,,2.052,,,,,,,,,,,,,,,,,,,,,,61006befb060ce1e415e03df,61036f7611bc5a6b8b2646c0,2021-07-29_23h18.53.882,Simcolourproject_2stim_asymm_v5,2020.2.10,MacIntel,60,61025ae37ef11b136ea224fe,,,,,,,,,3144,-56,-44,1,0,0,response5disk,,2,-10,-9,1,0,0,rectangle,-10,-9,1,0,0,-10,-9,1,0,0,0,14,14,52,1,,,,,,,,
,,,,,,,,,,,,,FF,,,,,,,,0.883,,,,,,,,,,,,,,,,,,,,,,61006befb060ce1e415e03df,61036f7611bc5a6b8b2646c0,2021-07-29_23h18.53.882,Simcolourproject_2stim_asymm_v5,2020.2.10,MacIntel,60,61025ae37ef11b136ea224fe,,,,,,,,,4020,-29,57,1,0,0,response7disk,,0,4,-11,1,0,0,rectangle,4,-11,1,0,0,4,-11,1,0,0,0,15,15,76,1,,,,,,,,
,,,,,,,,,,,,,FF,,,,,,,,2.616,,,,,,,,,,,,,,,,,,,,,,61006befb060ce1e415e03df,61036f7611bc5a6b8b2646c0,2021-07-29_23h18.53.882,Simcolourproject_2stim_asymm_v5,2020.2.10,MacIntel,60,61025ae37ef11b136ea224fe,,,,,,,,,3785,-28,-47,1,0,0,response5disk,,3,11,-4,1,0,0,rectangle,11,-4,1,0,0,11,-4,1,0,0,0,16,16,156,1,,,,,,,,
,,,,,,,,,,,,,FF,,,,,,,,3.567,,,,,,,,,,,,,,,,,,,,,,61006befb060ce1e415e03df,61036f7611bc5a6b8b2646c0,2021-07-29_23h18.53.882,Simcolourproject_2stim_asymm_v5,2020.2.10,MacIntel,60,61025ae37ef11b136ea224fe,,,,,,,,,3892,78,32,1,0,0,response1disk,,6,21,-9,1,0,0,rectangle,21,-9,1,0,0,21,-9,1,0,0,0,17,17,50,1,,,,,,,,
,,,,,,,,,,,,,FF,,,,,,,,1.801,,,,,,,,,,,,,,,,,,,,,,61006befb060ce1e415e03df,61036f7611bc5a6b8b2646c0,2021-07-29_23h18.53.882,Simcolourproject_2stim_asymm_v5,2020.2.10,MacIntel,60,61025ae37ef11b136ea224fe,,,,,,,,,3636,-61,-28,1,0,0,response5disk,,2,-14,-2,1,0,0,rectangle,-14,-2,1,0,0,-14,-2,1,0,0,0,18,18,21,1,,,,,,,,
,,,,,,,,,,,,,FF,,,,,,,,5.483,,,,,,,,,,,,,,,,,,,,,,61006befb060ce1e415e03df,61036f7611bc5a6b8b2646c0,2021-07-29_23h18.53.882,Simcolourproject_2stim_asymm_v5,2020.2.10,MacIntel,60,61025ae37ef11b136ea224fe,,,,,,,,,1715,89,28,1,0,0,response1disk,,6,13,9,1,0,0,rectangle,13,9,1,0,0,13,9,1,0,0,0,19,19,13,1,,,,,,,,
,,,,,,,,,,,,,FF,,,,,,,,10.885,,,,,,,,,,,,,,,,,,,,,,61006befb060ce1e415e03df,61036f7611bc5a6b8b2646c0,2021-07-29_23h18.53.882,Simcolourproject_2stim_asymm_v5,2020.2.10,MacIntel,60,61025ae37ef11b136ea224fe,,,,,,,,,1333,91,39,1,0,0,response1disk,,6,30,1,1,0,0,rectangle,30,1,1,0,0,30,1,1,0,0,0,20,20,6,1,,,,,,,,
,,,,,,,,,,,,,FF,,,,,,,,1.334,,,,,,,,,,,,,,,,,,,,,,61006befb060ce1e415e03df,61036f7611bc5a6b8b2646c0,2021-07-29_23h18.53.882,Simcolourproject_2stim_asymm_v5,2020.2.10,MacIntel,60,61025ae37ef11b136ea224fe,,,,,,,,,4285,59,79,1,0,0,response1disk,,7,9,6,1,0,0,rectangle,9,6,1,0,0,9,6,1,0,0,0,21,21,128,1,,,,,,,,
,,,,,,,,,,,,,FF,,,,,,,,7.267,,,,,,,,,,,,,,,,,,,,,,61006befb060ce1e415e03df,61036f7611bc5a6b8b2646c0,2021-07-29_23h18.53.882,Simcolourproject_2stim_asymm_v5,2020.2.10,MacIntel,60,61025ae37ef11b136ea224fe,,,,,,,,,1650,42,80,1,0,0,response1disk,,7,16,-4,1,0,0,rectangle,16,-4,1,0,0,16,-4,1,0,0,0,22,22,80,1,,,,,,,,
,,,,,,,,,,,,,FF,,,,,,,,1.6,,,,,,,,,,,,,,,,,,,,,,61006befb060ce1e415e03df,61036f7611bc5a6b8b2646c0,2021-07-29_23h18.53.882,Simcolourproject_2stim_asymm_v5,2020.2.10,MacIntel,60,61025ae37ef11b136ea224fe,,,,,,,,,2329,66,31,1,0,0,response1disk,,6,12,-2,1,0,0,rectangle,12,-2,1,0,0,12,-2,1,0,0,0,23,23,46,1,,,,,,,,
,,,,,,,,,,,,,FF,,,,,,,,2.651,,,,,,,,,,,,,,,,,,,,,,61006befb060ce1e415e03df,61036f7611bc5a6b8b2646c0,2021-07-29_23h18.53.882,Simcolourproject_2stim_asymm_v5,2020.2.10,MacIntel,60,61025ae37ef11b136ea224fe,,,,,,,,,1728,80,22,1,0,0,response1disk,,6,5,2,1,0,0,rectangle,-60,-36,1,0,0,5,5,1,0,0,0,24,24,149,1,,response5disk_3,TRUE,2,2,"[215,41,240,241,2,200,200,25,159,99,216,211,48,108,210,176,153,145,246,115]",1.932,rectangle
,,,,,,,,,,,,,FF,,,,,,,,1.702,,,,,,,,,,,,,,,,,,,,,,61006befb060ce1e415e03df,61036f7611bc5a6b8b2646c0,2021-07-29_23h18.53.882,Simcolourproject_2stim_asymm_v5,2020.2.10,MacIntel,60,61025ae37ef11b136ea224fe,,,,,,,,,2603,-47,-29,1,0,0,response5disk,,2,4,0,1,0,0,rectangle,4,0,1,0,0,4,0,1,0,0,0,25,25,5,1,,,,,,,,
,,,,,,,,,,,,,FF,,,,,,,,3.134,,,,,,,,,,,,,,,,,,,,,,61006befb060ce1e415e03df,61036f7611bc5a6b8b2646c0,2021-07-29_23h18.53.882,Simcolourproject_2stim_asymm_v5,2020.2.10,MacIntel,60,61025ae37ef11b136ea224fe,,,,,,,,,3912,-59,-35,1,0,0,response5disk,,2,-14,-5,1,0,0,rectangle,-14,-5,1,0,0,-14,-5,1,0,0,0,26,26,18,1,,,,,,,,
,,,,,,,,,,,,,FF,,,,,,,,4.35,,,,,,,,,,,,,,,,,,,,,,61006befb060ce1e415e03df,61036f7611bc5a6b8b2646c0,2021-07-29_23h18.53.882,Simcolourproject_2stim_asymm_v5,2020.2.10,MacIntel,60,61025ae37ef11b136ea224fe,,,,,,,,,2900,-74,31,1,0,0,response7disk,,1,-4,-6,1,0,0,rectangle,-4,-6,1,0,0,-4,-6,1,0,0,0,27,27,78,1,,,,,,,,
,,,,,,,,,,,,,FF,,,,,,,,2.3,,,,,,,,,,,,,,,,,,,,,,61006befb060ce1e415e03df,61036f7611bc5a6b8b2646c0,2021-07-29_23h18.53.882,Simcolourproject_2stim_asymm_v5,2020.2.10,MacIntel,60,61025ae37ef11b136ea224fe,,,,,,,,,3075,73,-37,1,0,0,response3disk,,5,21,-3,1,0,0,rectangle,21,-3,1,0,0,21,-3,1,0,0,0,28,28,103,1,,,,,,,,
,,,,,,,,,,,,,FF,,,,,,,,2.533,,,,,,,,,,,,,,,,,,,,,,61006befb060ce1e415e03df,61036f7611bc5a6b8b2646c0,2021-07-29_23h18.53.882,Simcolourproject_2stim_asymm_v5,2020.2.10,MacIntel,60,61025ae37ef11b136ea224fe,,,,,,,,,2140,89,39,1,0,0,response1disk,,6,17,5,1,0,0,rectangle,17,5,1,0,0,17,5,1,0,0,0,29,29,9,1,,,,,,,,
,,,,,,,,,,,,,FF,,,,,,,,0.833,,,,,,,,,,,,,,,,,,,,,,61006befb060ce1e415e03df,61036f7611bc5a6b8b2646c0,2021-07-29_23h18.53.882,Simcolourproject_2stim_asymm_v5,2020.2.10,MacIntel,60,61025ae37ef11b136ea224fe,,,,,,,,,2393,66,26,1,0,0,response1disk,,6,3,-7,1,0,0,rectangle,3,-7,1,0,0,3,-7,1,0,0,0,30,30,55,1,,,,,,,,
,,,,,,,,,,,,,FF,,,,,,,,1.149,,,,,,,,,,,,,,,,,,,,,,61006befb060ce1e415e03df,61036f7611bc5a6b8b2646c0,2021-07-29_23h18.53.882,Simcolourproject_2stim_asymm_v5,2020.2.10,MacIntel,60,61025ae37ef11b136ea224fe,,,,,,,,,3471,-83,29,1,0,0,response7disk,,1,-16,-7,1,0,0,rectangle,-16,-7,1,0,0,-16,-7,1,0,0,0,31,31,59,1,,,,,,,,
,,,,,,,,,,,,,FF,,,,,,,,6.018,,,,,,,,,,,,,,,,,,,,,,61006befb060ce1e415e03df,61036f7611bc5a6b8b2646c0,2021-07-29_23h18.53.882,Simcolourproject_2stim_asymm_v5,2020.2.10,MacIntel,60,61025ae37ef11b136ea224fe,,,,,,,,,918,55,72,1,0,0,response1disk,,7,19,6,1,0,0,rectangle,19,6,1,0,0,19,6,1,0,0,0,32,32,68,1,,,,,,,,
,,,,,,,,,,,,,FF,,,,,,,,1.399,,,,,,,,,,,,,,,,,,,,,,61006befb060ce1e415e03df,61036f7611bc5a6b8b2646c0,2021-07-29_23h18.53.882,Simcolourproject_2stim_asymm_v5,2020.2.10,MacIntel,60,61025ae37ef11b136ea224fe,,,,,,,,,1572,28,-56,1,0,0,response3disk,,4,20,-1,1,0,0,rectangle,20,-1,1,0,0,20,-1,1,0,0,0,33,33,40,1,,,,,,,,
,,,,,,,,,,,,,FF,,,,,,,,1.216,,,,,,,,,,,,,,,,,,,,,,61006befb060ce1e415e03df,61036f7611bc5a6b8b2646c0,2021-07-29_23h18.53.882,Simcolourproject_2stim_asymm_v5,2020.2.10,MacIntel,60,61025ae37ef11b136ea224fe,,,,,,,,,805,-79,31,1,0,0,response7disk,,1,3,-3,1,0,0,rectangle,3,-3,1,0,0,3,-3,1,0,0,0,34,34,100,1,,,,,,,,
,,,,,,,,,,,,,FF,,,,,,,,2.549,,,,,,,,,,,,,,,,,,,,,,61006befb060ce1e415e03df,61036f7611bc5a6b8b2646c0,2021-07-29_23h18.53.882,Simcolourproject_2stim_asymm_v5,2020.2.10,MacIntel,60,61025ae37ef11b136ea224fe,,,,,,,,,1914,42,-64,1,0,0,response3disk,,4,14,-4,1,0,0,rectangle,14,-4,1,0,0,14,-4,1,0,0,0,35,35,119,1,,,,,,,,
,,,,,,,,,,,,,FF,,,,,,,,0.833,,,,,,,,,,,,,,,,,,,,,,61006befb060ce1e415e03df,61036f7611bc5a6b8b2646c0,2021-07-29_23h18.53.882,Simcolourproject_2stim_asymm_v5,2020.2.10,MacIntel,60,61025ae37ef11b136ea224fe,,,,,,,,,4305,-42,83,1,0,0,response7disk,,0,-8,-2,1,0,0,rectangle,-8,-2,1,0,0,-8,-2,1,0,0,0,36,36,112,1,,,,,,,,
,,,,,,,,,,,,,FF,,,,,,,,3.016,,,,,,,,,,,,,,,,,,,,,,61006befb060ce1e415e03df,61036f7611bc5a6b8b2646c0,2021-07-29_23h18.53.882,Simcolourproject_2stim_asymm_v5,2020.2.10,MacIntel,60,61025ae37ef11b136ea224fe,,,,,,,,,2559,72,-48,1,0,0,response3disk,,5,19,-3,1,0,0,rectangle,19,-3,1,0,0,19,-3,1,0,0,0,37,37,98,1,,,,,,,,
,,,,,,,,,,,,,FF,,,,,,,,0.916,,,,,,,,,,,,,,,,,,,,,,61006befb060ce1e415e03df,61036f7611bc5a6b8b2646c0,2021-07-29_23h18.53.882,Simcolourproject_2stim_asymm_v5,2020.2.10,MacIntel,60,61025ae37ef11b136ea224fe,,,,,,,,,1888,-75,39,1,0,0,response7disk,,1,-14,-4,1,0,0,rectangle,-14,-4,1,0,0,-14,-4,1,0,0,0,38,38,148,1,,,,,,,,
,,,,,,,,,,,,,FF,,,,,,,,2.483,,,,,,,,,,,,,,,,,,,,,,61006befb060ce1e415e03df,61036f7611bc5a6b8b2646c0,2021-07-29_23h18.53.882,Simcolourproject_2stim_asymm_v5,2020.2.10,MacIntel,60,61025ae37ef11b136ea224fe,,,,,,,,,2381,39,-73,1,0,0,response3disk,,4,15,3,1,0,0,rectangle,15,3,1,0,0,15,3,1,0,0,0,39,39,110,1,,,,,,,,
,,,,,,,,,,,,,FF,,,,,,,,1.266,,,,,,,,,,,,,,,,,,,,,,61006befb060ce1e415e03df,61036f7611bc5a6b8b2646c0,2021-07-29_23h18.53.882,Simcolourproject_2stim_asymm_v5,2020.2.10,MacIntel,60,61025ae37ef11b136ea224fe,,,,,,,,,1526,-26,-78,1,0,0,response5disk,,3,15,-7,1,0,0,rectangle,91,50,1,0,0,-3,-8,1,0,0,0,40,40,96,1,,response1disk_3,TRUE,6,6,"[215,41,240,241,2,200,200,25,159,99,216,211,48,108,210,176,153,145,246,115]",1.816,rectangle
,,,,,,,,,,,,,FF,,,,,,,,1.166,,,,,,,,,,,,,,,,,,,,,,61006befb060ce1e415e03df,61036f7611bc5a6b8b2646c0,2021-07-29_23h18.53.882,Simcolourproject_2stim_asymm_v5,2020.2.10,MacIntel,60,61025ae37ef11b136ea224fe,,,,,,,,,4364,-89,34,1,0,0,response7disk,,1,-8,3,1,0,0,rectangle,-8,3,1,0,0,-8,3,1,0,0,0,41,41,118,1,,,,,,,,
,,,,,,,,,,,,,FF,,,,,,,,1.866,,,,,,,,,,,,,,,,,,,,,,61006befb060ce1e415e03df,61036f7611bc5a6b8b2646c0,2021-07-29_23h18.53.882,Simcolourproject_2stim_asymm_v5,2020.2.10,MacIntel,60,61025ae37ef11b136ea224fe,,,,,,,,,4176,53,76,1,0,0,response1disk,,7,23,7,1,0,0,rectangle,23,7,1,0,0,23,7,1,0,0,0,42,42,26,1,,,,,,,,
,,,,,,,,,,,,,FF,,,,,,,,2.05,,,,,,,,,,,,,,,,,,,,,,61006befb060ce1e415e03df,61036f7611bc5a6b8b2646c0,2021-07-29_23h18.53.882,Simcolourproject_2stim_asymm_v5,2020.2.10,MacIntel,60,61025ae37ef11b136ea224fe,,,,,,,,,747,91,43,1,0,0,response1disk,,6,-11,4,1,0,0,rectangle,-11,4,1,0,0,-11,4,1,0,0,0,43,43,10,1,,,,,,,,
,,,,,,,,,,,,,FF,,,,,,,,0.966,,,,,,,,,,,,,,,,,,,,,,61006befb060ce1e415e03df,61036f7611bc5a6b8b2646c0,2021-07-29_23h18.53.882,Simcolourproject_2stim_asymm_v5,2020.2.10,MacIntel,60,61025ae37ef11b136ea224fe,,,,,,,,,359,89,45,1,0,0,response1disk,,6,17,4,1,0,0,rectangle,17,4,1,0,0,17,4,1,0,0,0,44,44,86,1,,,,,,,,
,,,,,,,,,,,,,FF,,,,,,,,3.2,,,,,,,,,,,,,,,,,,,,,,61006befb060ce1e415e03df,61036f7611bc5a6b8b2646c0,2021-07-29_23h18.53.882,Simcolourproject_2stim_asymm_v5,2020.2.10,MacIntel,60,61025ae37ef11b136ea224fe,,,,,,,,,58,60,-37,1,0,0,response3disk,,5,1,-7,1,0,0,rectangle,1,-7,1,0,0,1,-7,1,0,0,0,45,45,60,1,,,,,,,,
,,,,,,,,,,,,,FF,,,,,,,,4.15,,,,,,,,,,,,,,,,,,,,,,61006befb060ce1e415e03df,61036f7611bc5a6b8b2646c0,2021-07-29_23h18.53.882,Simcolourproject_2stim_asymm_v5,2020.2.10,MacIntel,60,61025ae37ef11b136ea224fe,,,,,,,,,2428,-22,-83,1,0,0,response5disk,,3,10,-3,1,0,0,rectangle,10,-3,1,0,0,10,-3,1,0,0,0,46,46,107,1,,,,,,,,
,,,,,,,,,,,,,FF,,,,,,,,0.95,,,,,,,,,,,,,,,,,,,,,,61006befb060ce1e415e03df,61036f7611bc5a6b8b2646c0,2021-07-29_23h18.53.882,Simcolourproject_2stim_asymm_v5,2020.2.10,MacIntel,60,61025ae37ef11b136ea224fe,,,,,,,,,4225,-112,49,1,0,0,response7disk,,1,-16,-1,1,0,0,rectangle,45,100,1,0,0,10,3,1,0,0,0,47,47,101,1,,response1disk_3,TRUE,7,7,"[215,41,240,241,2,200,200,25,159,99,216,211,48,108,210,176,153,145,246,115]",1.516,rectangle
,,,,,,,,,,,,,FF,,,,,,,,3.584,,,,,,,,,,,,,,,,,,,,,,61006befb060ce1e415e03df,61036f7611bc5a6b8b2646c0,2021-07-29_23h18.53.882,Simcolourproject_2stim_asymm_v5,2020.2.10,MacIntel,60,61025ae37ef11b136ea224fe,,,,,,,,,3178,30,57,1,0,0,response1disk,,7,6,-10,1,0,0,rectangle,6,-10,1,0,0,6,-10,1,0,0,0,48,48,90,1,,,,,,,,
,,,,,,,,,,,,,FF,,,,,,,,4.434,,,,,,,,,,,,,,,,,,,,,,61006befb060ce1e415e03df,61036f7611bc5a6b8b2646c0,2021-07-29_23h18.53.882,Simcolourproject_2stim_asymm_v5,2020.2.10,MacIntel,60,61025ae37ef11b136ea224fe,,,,,,,,,1017,57,29,1,0,0,response1disk,,6,16,-6,1,0,0,rectangle,16,-6,1,0,0,16,-6,1,0,0,0,49,49,131,1,,,,,,,,
,,,,,,,,,,,,,FF,,,,,,,,1.368,,,,,,,,,,,,,,,,,,,,,,61006befb060ce1e415e03df,61036f7611bc5a6b8b2646c0,2021-07-29_23h18.53.882,Simcolourproject_2stim_asymm_v5,2020.2.10,MacIntel,60,61025ae37ef11b136ea224fe,,,,,,,,,3596,-31,-62,1,0,0,response5disk,,3,-8,-5,1,0,0,rectangle,-8,-5,1,0,0,-8,-5,1,0,0,0,50,50,8,1,,,,,,,,
,,,,,,,,,,,,,FF,,,,,,,,2.016,,,,,,,,,,,,,,,,,,,,,,61006befb060ce1e415e03df,61036f7611bc5a6b8b2646c0,2021-07-29_23h18.53.882,Simcolourproject_2stim_asymm_v5,2020.2.10,MacIntel,60,61025ae37ef11b136ea224fe,,,,,,,,,1484,26,73,1,0,0,response1disk,,7,-4,-1,1,0,0,rectangle,-4,-1,1,0,0,-4,-1,1,0,0,0,51,51,123,1,,,,,,,,
,,,,,,,,,,,,,FF,,,,,,,,2.351,,,,,,,,,,,,,,,,,,,,,,61006befb060ce1e415e03df,61036f7611bc5a6b8b2646c0,2021-07-29_23h18.53.882,Simcolourproject_2stim_asymm_v5,2020.2.10,MacIntel,60,61025ae37ef11b136ea224fe,,,,,,,,,1481,59,-39,1,0,0,response3disk,,5,6,-6,1,0,0,rectangle,6,-6,1,0,0,6,-6,1,0,0,0,52,52,137,1,,,,,,,,
,,,,,,,,,,,,,FF,,,,,,,,2.8,,,,,,,,,,,,,,,,,,,,,,61006befb060ce1e415e03df,61036f7611bc5a6b8b2646c0,2021-07-29_23h18.53.882,Simcolourproject_2stim_asymm_v5,2020.2.10,MacIntel,60,61025ae37ef11b136ea224fe,,,,,,,,,1258,63,-36,1,0,0,response3disk,,5,15,-7,1,0,0,rectangle,15,-7,1,0,0,15,-7,1,0,0,0,53,53,92,1,,,,,,,,
,,,,,,,,,,,,,FF,,,,,,,,6.649,,,,,,,,,,,,,,,,,,,,,,61006befb060ce1e415e03df,61036f7611bc5a6b8b2646c0,2021-07-29_23h18.53.882,Simcolourproject_2stim_asymm_v5,2020.2.10,MacIntel,60,61025ae37ef11b136ea224fe,,,,,,,,,3672,37,-61,1,0,0,response3disk,,4,-1,-2,1,0,0,rectangle,-1,-2,1,0,0,-1,-2,1,0,0,0,54,54,144,1,,,,,,,,
,,,,,,,,,,,,,FF,,,,,,,,2.367,,,,,,,,,,,,,,,,,,,,,,61006befb060ce1e415e03df,61036f7611bc5a6b8b2646c0,2021-07-29_23h18.53.882,Simcolourproject_2stim_asymm_v5,2020.2.10,MacIntel,60,61025ae37ef11b136ea224fe,,,,,,,,,1952,-36,-51,1,0,0,response5disk,,3,1,-4,1,0,0,rectangle,1,-4,1,0,0,1,-4,1,0,0,0,55,55,124,1,,,,,,,,
,,,,,,,,,,,,,FF,,,,,,,,1.517,,,,,,,,,,,,,,,,,,,,,,61006befb060ce1e415e03df,61036f7611bc5a6b8b2646c0,2021-07-29_23h18.53.882,Simcolourproject_2stim_asymm_v5,2020.2.10,MacIntel,60,61025ae37ef11b136ea224fe,,,,,,,,,2197,35,59,1,0,0,response1disk,,7,1,2,1,0,0,rectangle,1,2,1,0,0,1,2,1,0,0,0,56,56,22,1,,,,,,,,
,,,,,,,,,,,,,FF,,,,,,,,3.517,,,,,,,,,,,,,,,,,,,,,,61006befb060ce1e415e03df,61036f7611bc5a6b8b2646c0,2021-07-29_23h18.53.882,Simcolourproject_2stim_asymm_v5,2020.2.10,MacIntel,60,61025ae37ef11b136ea224fe,,,,,,,,,3508,-75,-33,1,0,0,response5disk,,2,-17,1,1,0,0,rectangle,-17,1,1,0,0,-17,1,1,0,0,0,57,57,132,1,,,,,,,,
,,,,,,,,,,,,,FF,,,,,,,,1.8,,,,,,,,,,,,,,,,,,,,,,61006befb060ce1e415e03df,61036f7611bc5a6b8b2646c0,2021-07-29_23h18.53.882,Simcolourproject_2stim_asymm_v5,2020.2.10,MacIntel,60,61025ae37ef11b136ea224fe,,,,,,,,,204,79,-40,1,0,0,response3disk,,5,15,-1,1,0,0,rectangle,15,-1,1,0,0,15,-1,1,0,0,0,58,58,157,1,,,,,,,,
,,,,,,,,,,,,,FF,,,,,,,,1.298,,,,,,,,,,,,,,,,,,,,,,61006befb060ce1e415e03df,61036f7611bc5a6b8b2646c0,2021-07-29_23h18.53.882,Simcolourproject_2stim_asymm_v5,2020.2.10,MacIntel,60,61025ae37ef11b136ea224fe,,,,,,,,,2927,43,73,1,0,0,response1disk,,7,1,-8,1,0,0,rectangle,1,-8,1,0,0,1,-8,1,0,0,0,59,59,32,1,,,,,,,,
,,,,,,,,,,,,,FF,,,,,,,,1.1,,,,,,,,,,,,,,,,,,,,,,61006befb060ce1e415e03df,61036f7611bc5a6b8b2646c0,2021-07-29_23h18.53.882,Simcolourproject_2stim_asymm_v5,2020.2.10,MacIntel,60,61025ae37ef11b136ea224fe,,,,,,,,,443,-72,31,1,0,0,response7disk,,1,-11,-3,1,0,0,rectangle,-11,-3,1,0,0,-11,-3,1,0,0,0,60,60,106,1,,,,,,,,
,,,,,,,,,,,,,FF,,,,,,,,5.4,,,,,,,,,,,,,,,,,,,,,,61006befb060ce1e415e03df,61036f7611bc5a6b8b2646c0,2021-07-29_23h18.53.882,Simcolourproject_2stim_asymm_v5,2020.2.10,MacIntel,60,61025ae37ef11b136ea224fe,,,,,,,,,1062,-31,-72,1,0,0,response5disk,,3,-5,-3,1,0,0,rectangle,-5,-3,1,0,0,-5,-3,1,0,0,0,61,61,134,1,,,,,,,,
,,,,,,,,,,,,,FF,,,,,,,,3.167,,,,,,,,,,,,,,,,,,,,,,61006befb060ce1e415e03df,61036f7611bc5a6b8b2646c0,2021-07-29_23h18.53.882,Simcolourproject_2stim_asymm_v5,2020.2.10,MacIntel,60,61025ae37ef11b136ea224fe,,,,,,,,,3353,64,-38,1,0,0,response3disk,,5,13,3,1,0,0,rectangle,13,3,1,0,0,13,3,1,0,0,0,62,62,120,1,,,,,,,,
,,,,,,,,,,,,,FF,,,,,,,,4.351,,,,,,,,,,,,,,,,,,,,,,61006befb060ce1e415e03df,61036f7611bc5a6b8b2646c0,2021-07-29_23h18.53.882,Simcolourproject_2stim_asymm_v5,2020.2.10,MacIntel,60,61025ae37ef11b136ea224fe,,,,,,,,,2501,88,-36,1,0,0,response3disk,,5,9,0,1,0,0,rectangle,9,0,1,0,0,9,0,1,0,0,0,63,63,141,1,,,,,,,,
,,,,,,,,,,,,,FF,,,,,,,,1.868,,,,,,,,,,,,,,,,,,,,,,61006befb060ce1e415e03df,61036f7611bc5a6b8b2646c0,2021-07-29_23h18.53.882,Simcolourproject_2stim_asymm_v5,2020.2.10,MacIntel,60,61025ae37ef11b136ea224fe,,,,,,,,,3740,-62,-25,1,0,0,response5disk,,2,6,2,1,0,0,rectangle,6,2,1,0,0,6,2,1,0,0,0,64,64,11,1,,,,,,,,
,,,,,,,,,,,,,FF,,,,,,,,2.067,,,,,,,,,,,,,,,,,,,,,,61006befb060ce1e415e03df,61036f7611bc5a6b8b2646c0,2021-07-29_23h18.53.882,Simcolourproject_2stim_asymm_v5,2020.2.10,MacIntel,60,61025ae37ef11b136ea224fe,,,,,,,,,752,83,35,1,0,0,response1disk,,6,19,6,1,0,0,rectangle,19,6,1,0,0,19,6,1,0,0,0,65,65,62,1,,,,,,,,
,,,,,,,,,,,,,FF,,,,,,,,6.935,,,,,,,,,,,,,,,,,,,,,,61006befb060ce1e415e03df,61036f7611bc5a6b8b2646c0,2021-07-29_23h18.53.882,Simcolourproject_2stim_asymm_v5,2020.2.10,MacIntel,60,61025ae37ef11b136ea224fe,,,,,,,,,2866,96,36,1,0,0,response1disk,,6,25,-3,1,0,0,rectangle,25,-3,1,0,0,25,-3,1,0,0,0,66,66,30,1,,,,,,,,
,,,,,,,,,,,,,FF,,,,,,,,4.467,,,,,,,,,,,,,,,,,,,,,,61006befb060ce1e415e03df,61036f7611bc5a6b8b2646c0,2021-07-29_23h18.53.882,Simcolourproject_2stim_asymm_v5,2020.2.10,MacIntel,60,61025ae37ef11b136ea224fe,,,,,,,,,503,51,73,1,0,0,response1disk,,7,9,7,1,0,0,rectangle,9,7,1,0,0,9,7,1,0,0,0,67,67,54,1,,,,,,,,
,,,,,,,,,,,,,FF,,,,,,,,0.867,,,,,,,,,,,,,,,,,,,,,,61006befb060ce1e415e03df,61036f7611bc5a6b8b2646c0,2021-07-29_23h18.53.882,Simcolourproject_2stim_asymm_v5,2020.2.10,MacIntel,60,61025ae37ef11b136ea224fe,,,,,,,,,1460,-49,26,1,0,0,response7disk,,1,-8,-8,1,0,0,rectangle,-8,-8,1,0,0,-8,-8,1,0,0,0,68,68,129,1,,,,,,,,
,,,,,,,,,,,,,FF,,,,,,,,1.016,,,,,,,,,,,,,,,,,,,,,,61006befb060ce1e415e03df,61036f7611bc5a6b8b2646c0,2021-07-29_23h18.53.882,Simcolourproject_2stim_asymm_v5,2020.2.10,MacIntel,60,61025ae37ef11b136ea224fe,,,,,,,,,3745,-57,-32,1,0,0,response5disk,,2,-19,-12,1,0,0,rectangle,-19,-12,1,0,0,-19,-12,1,0,0,0,69,69,17,1,,,,,,,,
,,,,,,,,,,,,,FF,,,,,,,,2.2,,,,,,,,,,,,,,,,,,,,,,61006befb060ce1e415e03df,61036f7611bc5a6b8b2646c0,2021-07-29_23h18.53.882,Simcolourproject_2stim_asymm_v5,2020.2.10,MacIntel,60,61025ae37ef11b136ea224fe,,,,,,,,,2683,51,77,1,0,0,response1disk,,7,12,-7,1,0,0,rectangle,12,-7,1,0,0,12,-7,1,0,0,0,70,70,14,1,,,,,,,,
,,,,,,,,,,,,,FF,,,,,,,,2.716,,,,,,,,,,,,,,,,,,,,,,61006befb060ce1e415e03df,61036f7611bc5a6b8b2646c0,2021-07-29_23h18.53.882,Simcolourproject_2stim_asymm_v5,2020.2.10,MacIntel,60,61025ae37ef11b136ea224fe,,,,,,,,,3158,24,-42,1,0,0,response3disk,,4,12,4,1,0,0,rectangle,12,4,1,0,0,12,4,1,0,0,0,71,71,130,1,,,,,,,,
,,,,,,,,,,,,,FF,,,,,,,,0.833,,,,,,,,,,,,,,,,,,,,,,61006befb060ce1e415e03df,61036f7611bc5a6b8b2646c0,2021-07-29_23h18.53.882,Simcolourproject_2stim_asymm_v5,2020.2.10,MacIntel,60,61025ae37ef11b136ea224fe,,,,,,,,,3391,-44,24,1,0,0,response7disk,,1,1,-5,1,0,0,rectangle,1,-5,1,0,0,1,-5,1,0,0,0,72,72,70,1,,,,,,,,
,,,,,,,,,,,,,FF,,,,,,,,1.117,,,,,,,,,,,,,,,,,,,,,,61006befb060ce1e415e03df,61036f7611bc5a6b8b2646c0,2021-07-29_23h18.53.882,Simcolourproject_2stim_asymm_v5,2020.2.10,MacIntel,60,61025ae37ef11b136ea224fe,,,,,,,,,2512,28,61,1,0,0,response1disk,,7,4,-2,1,0,0,rectangle,4,-2,1,0,0,4,-2,1,0,0,0,73,73,143,1,,,,,,,,
,,,,,,,,,,,,,FF,,,,,,,,2.968,,,,,,,,,,,,,,,,,,,,,,61006befb060ce1e415e03df,61036f7611bc5a6b8b2646c0,2021-07-29_23h18.53.882,Simcolourproject_2stim_asymm_v5,2020.2.10,MacIntel,60,61025ae37ef11b136ea224fe,,,,,,,,,690,-24,-62,1,0,0,response5disk,,3,-6,0,1,0,0,rectangle,-6,0,1,0,0,-6,0,1,0,0,0,74,74,34,1,,,,,,,,
,,,,,,,,,,,,,FF,,,,,,,,6.166,,,,,,,,,,,,,,,,,,,,,,61006befb060ce1e415e03df,61036f7611bc5a6b8b2646c0,2021-07-29_23h18.53.882,Simcolourproject_2stim_asymm_v5,2020.2.10,MacIntel,60,61025ae37ef11b136ea224fe,,,,,,,,,2800,26,-60,1,0,0,response3disk,,4,10,-9,1,0,0,rectangle,10,-9,1,0,0,10,-9,1,0,0,0,75,75,153,1,,,,,,,,
,,,,,,,,,,,,,FF,,,,,,,,1.633,,,,,,,,,,,,,,,,,,,,,,61006befb060ce1e415e03df,61036f7611bc5a6b8b2646c0,2021-07-29_23h18.53.882,Simcolourproject_2stim_asymm_v5,2020.2.10,MacIntel,60,61025ae37ef11b136ea224fe,,,,,,,,,3222,60,78,1,0,0,response1disk,,7,20,2,1,0,0,rectangle,20,2,1,0,0,20,2,1,0,0,0,76,76,45,1,,,,,,,,
,,,,,,,,,,,,,FF,,,,,,,,0.85,,,,,,,,,,,,,,,,,,,,,,61006befb060ce1e415e03df,61036f7611bc5a6b8b2646c0,2021-07-29_23h18.53.882,Simcolourproject_2stim_asymm_v5,2020.2.10,MacIntel,60,61025ae37ef11b136ea224fe,,,,,,,,,317,39,68,1,0,0,response1disk,,7,11,-6,1,0,0,rectangle,11,-6,1,0,0,11,-6,1,0,0,0,77,77,35,1,,,,,,,,
,,,,,,,,,,,,,FF,,,,,,,,3.499,,,,,,,,,,,,,,,,,,,,,,61006befb060ce1e415e03df,61036f7611bc5a6b8b2646c0,2021-07-29_23h18.53.882,Simcolourproject_2stim_asymm_v5,2020.2.10,MacIntel,60,61025ae37ef11b136ea224fe,,,,,,,,,3928,55,-23,1,0,0,response3disk,,5,14,-5,1,0,0,rectangle,14,-5,1,0,0,14,-5,1,0,0,0,78,78,116,1,,,,,,,,
,,,,,,,,,,,,,FF,,,,,,,,2.4,,,,,,,,,,,,,,,,,,,,,,61006befb060ce1e415e03df,61036f7611bc5a6b8b2646c0,2021-07-29_23h18.53.882,Simcolourproject_2stim_asymm_v5,2020.2.10,MacIntel,60,61025ae37ef11b136ea224fe,,,,,,,,,773,37,-62,1,0,0,response3disk,,4,19,5,1,0,0,rectangle,19,5,1,0,0,19,5,1,0,0,0,79,79,111,1,,,,,,,,
,,,,,,,,,,,,,FF,,,,,,,,1.383,,,,,,,,,,,,,,,,,,,,,,61006befb060ce1e415e03df,61036f7611bc5a6b8b2646c0,2021-07-29_23h18.53.882,Simcolourproject_2stim_asymm_v5,2020.2.10,MacIntel,60,61025ae37ef11b136ea224fe,,,,,,,,,1671,-50,-26,1,0,0,response5disk,,2,-14,-7,1,0,0,rectangle,-14,-7,1,0,0,-14,-7,1,0,0,0,80,80,93,1,,,,,,,,
,,,,,,,,,,,,,FF,,,,,,,,1.75,,,,,,,,,,,,,,,,,,,,,,61006befb060ce1e415e03df,61036f7611bc5a6b8b2646c0,2021-07-29_23h18.53.882,Simcolourproject_2stim_asymm_v5,2020.2.10,MacIntel,60,61025ae37ef11b136ea224fe,,,,,,,,,67,-40,-96,1,0,0,response5disk,,3,6,1,1,0,0,rectangle,6,1,1,0,0,6,1,1,0,0,0,81,81,48,1,,,,,,,,
,,,,,,,,,,,,,FF,,,,,,,,1.784,,,,,,,,,,,,,,,,,,,,,,61006befb060ce1e415e03df,61036f7611bc5a6b8b2646c0,2021-07-29_23h18.53.882,Simcolourproject_2stim_asymm_v5,2020.2.10,MacIntel,60,61025ae37ef11b136ea224fe,,,,,,,,,2065,60,21,1,0,0,response1disk,,6,22,2,1,0,0,rectangle,22,2,1,0,0,22,2,1,0,0,0,82,82,33,1,,,,,,,,
,,,,,,,,,,,,,FF,,,,,,,,1.317,,,,,,,,,,,,,,,,,,,,,,61006befb060ce1e415e03df,61036f7611bc5a6b8b2646c0,2021-07-29_23h18.53.882,Simcolourproject_2stim_asymm_v5,2020.2.10,MacIntel,60,61025ae37ef11b136ea224fe,,,,,,,,,525,-65,27,1,0,0,response7disk,,1,12,-3,1,0,0,rectangle,12,-3,1,0,0,12,-3,1,0,0,0,83,83,15,1,,,,,,,,
,,,,,,,,,,,,,FF,,,,,,,,1.267,,,,,,,,,,,,,,,,,,,,,,61006befb060ce1e415e03df,61036f7611bc5a6b8b2646c0,2021-07-29_23h18.53.882,Simcolourproject_2stim_asymm_v5,2020.2.10,MacIntel,60,61025ae37ef11b136ea224fe,,,,,,,,,148,30,66,1,0,0,response1disk,,7,8,3,1,0,0,rectangle,8,3,1,0,0,8,3,1,0,0,0,84,84,84,1,,,,,,,,
,,,,,,,,,,,,,FF,,,,,,,,3.267,,,,,,,,,,,,,,,,,,,,,,61006befb060ce1e415e03df,61036f7611bc5a6b8b2646c0,2021-07-29_23h18.53.882,Simcolourproject_2stim_asymm_v5,2020.2.10,MacIntel,60,61025ae37ef11b136ea224fe,,,,,,,,,930,32,61,1,0,0,response1disk,,7,-3,12,1,0,0,rectangle,-3,12,1,0,0,-3,12,1,0,0,0,85,85,31,1,,,,,,,,
,,,,,,,,,,,,,FF,,,,,,,,1.933,,,,,,,,,,,,,,,,,,,,,,61006befb060ce1e415e03df,61036f7611bc5a6b8b2646c0,2021-07-29_23h18.53.882,Simcolourproject_2stim_asymm_v5,2020.2.10,MacIntel,60,61025ae37ef11b136ea224fe,,,,,,,,,3317,40,65,1,0,0,response1disk,,7,17,5,1,0,0,rectangle,17,5,1,0,0,17,5,1,0,0,0,86,86,63,1,,,,,,,,
,,,,,,,,,,,,,FF,,,,,,,,0.784,,,,,,,,,,,,,,,,,,,,,,61006befb060ce1e415e03df,61036f7611bc5a6b8b2646c0,2021-07-29_23h18.53.882,Simcolourproject_2stim_asymm_v5,2020.2.10,MacIntel,60,61025ae37ef11b136ea224fe,,,,,,,,,3571,50,95,1,0,0,response1disk,,7,13,5,1,0,0,rectangle,13,5,1,0,0,13,5,1,0,0,0,87,87,0,1,,,,,,,,
,,,,,,,,,,,,,FF,,,,,,,,3.916,,,,,,,,,,,,,,,,,,,,,,61006befb060ce1e415e03df,61036f7611bc5a6b8b2646c0,2021-07-29_23h18.53.882,Simcolourproject_2stim_asymm_v5,2020.2.10,MacIntel,60,61025ae37ef11b136ea224fe,,,,,,,,,2398,79,35,1,0,0,response1disk,,6,12,-3,1,0,0,rectangle,12,-3,1,0,0,12,-3,1,0,0,0,88,88,146,1,,,,,,,,
,,,,,,,,,,,,,FF,,,,,,,,1.9,,,,,,,,,,,,,,,,,,,,,,61006befb060ce1e415e03df,61036f7611bc5a6b8b2646c0,2021-07-29_23h18.53.882,Simcolourproject_2stim_asymm_v5,2020.2.10,MacIntel,60,61025ae37ef11b136ea224fe,,,,,,,,,2795,27,-71,1,0,0,response3disk,,4,20,2,1,0,0,rectangle,20,2,1,0,0,20,2,1,0,0,0,89,89,158,1,,,,,,,,
,,,,,,,,,,,,,FF,,,,,,,,3.599,,,,,,,,,,,,,,,,,,,,,,61006befb060ce1e415e03df,61036f7611bc5a6b8b2646c0,2021-07-29_23h18.53.882,Simcolourproject_2stim_asymm_v5,2020.2.10,MacIntel,60,61025ae37ef11b136ea224fe,,,,,,,,,2744,-32,-77,1,0,0,response5disk,,3,0,-8,1,0,0,rectangle,0,-8,1,0,0,0,-8,1,0,0,0,90,90,67,1,,,,,,,,
,,,,,,,,,,,,,FF,,,,,,,,2.166,,,,,,,,,,,,,,,,,,,,,,61006befb060ce1e415e03df,61036f7611bc5a6b8b2646c0,2021-07-29_23h18.53.882,Simcolourproject_2stim_asymm_v5,2020.2.10,MacIntel,60,61025ae37ef11b136ea224fe,,,,,,,,,3773,-61,-64,1,0,0,response5disk,,3,2,-9,1,0,0,rectangle,2,-9,1,0,0,2,-9,1,0,0,0,91,91,127,1,,,,,,,,
,,,,,,,,,,,,,FF,,,,,,,,1.983,,,,,,,,,,,,,,,,,,,,,,61006befb060ce1e415e03df,61036f7611bc5a6b8b2646c0,2021-07-29_23h18.53.882,Simcolourproject_2stim_asymm_v5,2020.2.10,MacIntel,60,61025ae37ef11b136ea224fe,,,,,,,,,1634,23,89,1,0,0,response1disk,,7,8,-7,1,0,0,rectangle,8,-7,1,0,0,8,-7,1,0,0,0,92,92,2,1,,,,,,,,
,,,,,,,,,,,,,FF,,,,,,,,2.366,,,,,,,,,,,,,,,,,,,,,,61006befb060ce1e415e03df,61036f7611bc5a6b8b2646c0,2021-07-29_23h18.53.882,Simcolourproject_2stim_asymm_v5,2020.2.10,MacIntel,60,61025ae37ef11b136ea224fe,,,,,,,,,965,78,37,1,0,0,response1disk,,6,20,-2,1,0,0,rectangle,20,-2,1,0,0,20,-2,1,0,0,0,93,93,152,1,,,,,,,,
,,,,,,,,,,,,,FF,,,,,,,,0.951,,,,,,,,,,,,,,,,,,,,,,61006befb060ce1e415e03df,61036f7611bc5a6b8b2646c0,2021-07-29_23h18.53.882,Simcolourproject_2stim_asymm_v5,2020.2.10,MacIntel,60,61025ae37ef11b136ea224fe,,,,,,,,,3102,-68,28,1,0,0,response7disk,,1,-21,3,1,0,0,rectangle,-21,3,1,0,0,-21,3,1,0,0,0,94,94,145,1,,,,,,,,
,,,,,,,,,,,,,FF,,,,,,,,3.4,,,,,,,,,,,,,,,,,,,,,,61006befb060ce1e415e03df,61036f7611bc5a6b8b2646c0,2021-07-29_23h18.53.882,Simcolourproject_2stim_asymm_v5,2020.2.10,MacIntel,60,61025ae37ef11b136ea224fe,,,,,,,,,4064,85,37,1,0,0,response1disk,,6,23,6,1,0,0,rectangle,23,6,1,0,0,23,6,1,0,0,0,95,95,24,1,,,,,,,,
,,,,,,,,,,,,,FF,,,,,,,,2.814,,,,,,,,,,,,,,,,,,,,,,61006befb060ce1e415e03df,61036f7611bc5a6b8b2646c0,2021-07-29_23h18.53.882,Simcolourproject_2stim_asymm_v5,2020.2.10,MacIntel,60,61025ae37ef11b136ea224fe,,,,,,,,,3403,38,-60,1,0,0,response3disk,,4,16,-3,1,0,0,rectangle,16,-3,1,0,0,16,-3,1,0,0,0,96,96,51,1,,,,,,,,
,,,,,,,,,,,,,FF,,,,,,,,3.45,,,,,,,,,,,,,,,,,,,,,,61006befb060ce1e415e03df,61036f7611bc5a6b8b2646c0,2021-07-29_23h18.53.882,Simcolourproject_2stim_asymm_v5,2020.2.10,MacIntel,60,61025ae37ef11b136ea224fe,,,,,,,,,3089,-63,44,1,0,0,response7disk,,1,-3,-4,1,0,0,rectangle,-3,-4,1,0,0,-3,-4,1,0,0,0,97,97,16,1,,,,,,,,
,,,,,,,,,,,,,FF,,,,,,,,4.518,,,,,,,,,,,,,,,,,,,,,,61006befb060ce1e415e03df,61036f7611bc5a6b8b2646c0,2021-07-29_23h18.53.882,Simcolourproject_2stim_asymm_v5,2020.2.10,MacIntel,60,61025ae37ef11b136ea224fe,,,,,,,,,234,71,87,1,0,0,response1disk,,7,-33,-4,1,0,0,rectangle,55,88,1,0,0,11,1,1,0,0,0,98,98,114,1,,response1disk_3,TRUE,7,7,"[215,41,240,241,2,200,200,25,159,99,216,211,48,108,210,176,153,145,246,115]",1.449,rectangle
,,,,,,,,,,,,,FF,,,,,,,,2.983,,,,,,,,,,,,,,,,,,,,,,61006befb060ce1e415e03df,61036f7611bc5a6b8b2646c0,2021-07-29_23h18.53.882,Simcolourproject_2stim_asymm_v5,2020.2.10,MacIntel,60,61025ae37ef11b136ea224fe,,,,,,,,,1328,77,33,1,0,0,response1disk,,6,-17,-12,1,0,0,rectangle,-17,-12,1,0,0,-17,-12,1,0,0,0,99,99,138,1,,,,,,,,
,,,,,,,,,,,,,FF,,,,,,,,3.334,,,,,,,,,,,,,,,,,,,,,,61006befb060ce1e415e03df,61036f7611bc5a6b8b2646c0,2021-07-29_23h18.53.882,Simcolourproject_2stim_asymm_v5,2020.2.10,MacIntel,60,61025ae37ef11b136ea224fe,,,,,,,,,3215,54,-34,1,0,0,response3disk,,5,25,-2,1,0,0,rectangle,25,-2,1,0,0,25,-2,1,0,0,0,100,100,65,1,,,,,,,,
,,,,,,,,,,,,,FF,,,,,,,,4.616,,,,,,,,,,,,,,,,,,,,,,61006befb060ce1e415e03df,61036f7611bc5a6b8b2646c0,2021-07-29_23h18.53.882,Simcolourproject_2stim_asymm_v5,2020.2.10,MacIntel,60,61025ae37ef11b136ea224fe,,,,,,,,,2518,59,-31,1,0,0,response3disk,,5,11,0,1,0,0,rectangle,11,0,1,0,0,11,0,1,0,0,0,101,101,99,1,,,,,,,,
,,,,,,,,,,,,,FF,,,,,,,,1.533,,,,,,,,,,,,,,,,,,,,,,61006befb060ce1e415e03df,61036f7611bc5a6b8b2646c0,2021-07-29_23h18.53.882,Simcolourproject_2stim_asymm_v5,2020.2.10,MacIntel,60,61025ae37ef11b136ea224fe,,,,,,,,,3231,35,50,1,0,0,response1disk,,7,9,2,1,0,0,rectangle,9,2,1,0,0,9,2,1,0,0,0,102,102,66,1,,,,,,,,
,,,,,,,,,,,,,FF,,,,,,,,2.167,,,,,,,,,,,,,,,,,,,,,,61006befb060ce1e415e03df,61036f7611bc5a6b8b2646c0,2021-07-29_23h18.53.882,Simcolourproject_2stim_asymm_v5,2020.2.10,MacIntel,60,61025ae37ef11b136ea224fe,,,,,,,,,1667,-59,-44,1,0,0,response5disk,,2,-8,0,1,0,0,rectangle,-8,0,1,0,0,-8,0,1,0,0,0,103,103,159,1,,,,,,,,
,,,,,,,,,,,,,FF,,,,,,,,3.484,,,,,,,,,,,,,,,,,,,,,,61006befb060ce1e415e03df,61036f7611bc5a6b8b2646c0,2021-07-29_23h18.53.882,Simcolourproject_2stim_asymm_v5,2020.2.10,MacIntel,60,61025ae37ef11b136ea224fe,,,,,,,,,2082,80,35,1,0,0,response1disk,,6,-17,-6,1,0,0,rectangle,-17,-6,1,0,0,-17,-6,1,0,0,0,104,104,136,1,,,,,,,,
,,,,,,,,,,,,,FF,,,,,,,,1.216,,,,,,,,,,,,,,,,,,,,,,61006befb060ce1e415e03df,61036f7611bc5a6b8b2646c0,2021-07-29_23h18.53.882,Simcolourproject_2stim_asymm_v5,2020.2.10,MacIntel,60,61025ae37ef11b136ea224fe,,,,,,,,,3096,-38,64,1,0,0,response7disk,,0,4,9,1,0,0,rectangle,4,9,1,0,0,4,9,1,0,0,0,105,105,72,1,,,,,,,,
,,,,,,,,,,,,,FF,,,,,,,,4.149,,,,,,,,,,,,,,,,,,,,,,61006befb060ce1e415e03df,61036f7611bc5a6b8b2646c0,2021-07-29_23h18.53.882,Simcolourproject_2stim_asymm_v5,2020.2.10,MacIntel,60,61025ae37ef11b136ea224fe,,,,,,,,,744,75,-40,1,0,0,response3disk,,5,15,-10,1,0,0,rectangle,15,-10,1,0,0,15,-10,1,0,0,0,106,106,53,1,,,,,,,,
,,,,,,,,,,,,,FF,,,,,,,,0.85,,,,,,,,,,,,,,,,,,,,,,61006befb060ce1e415e03df,61036f7611bc5a6b8b2646c0,2021-07-29_23h18.53.882,Simcolourproject_2stim_asymm_v5,2020.2.10,MacIntel,60,61025ae37ef11b136ea224fe,,,,,,,,,4024,-54,27,1,0,0,response7disk,,1,-14,-10,1,0,0,rectangle,59,-32,1,0,0,10,4,1,0,0,0,107,107,3,1,,response3disk_3,TRUE,5,5,"[215,41,240,241,2,200,200,25,159,99,216,211,48,108,210,176,153,145,246,115]",1.433,rectangle
,,,,,,,,,,,,,FF,,,,,,,,4.168,,,,,,,,,,,,,,,,,,,,,,61006befb060ce1e415e03df,61036f7611bc5a6b8b2646c0,2021-07-29_23h18.53.882,Simcolourproject_2stim_asymm_v5,2020.2.10,MacIntel,60,61025ae37ef11b136ea224fe,,,,,,,,,1620,61,-83,1,0,0,response3disk,,4,27,12,1,0,0,rectangle,27,12,1,0,0,27,12,1,0,0,0,108,108,125,1,,,,,,,,
,,,,,,,,,,,,,FF,,,,,,,,3.783,,,,,,,,,,,,,,,,,,,,,,61006befb060ce1e415e03df,61036f7611bc5a6b8b2646c0,2021-07-29_23h18.53.882,Simcolourproject_2stim_asymm_v5,2020.2.10,MacIntel,60,61025ae37ef11b136ea224fe,,,,,,,,,2802,87,47,1,0,0,response1disk,,6,4,4,1,0,0,rectangle,4,4,1,0,0,4,4,1,0,0,0,109,109,43,1,,,,,,,,
,,,,,,,,,,,,,FF,,,,,,,,1.266,,,,,,,,,,,,,,,,,,,,,,61006befb060ce1e415e03df,61036f7611bc5a6b8b2646c0,2021-07-29_23h18.53.882,Simcolourproject_2stim_asymm_v5,2020.2.10,MacIntel,60,61025ae37ef11b136ea224fe,,,,,,,,,1828,-52,-65,1,0,0,response5disk,,3,-8,-3,1,0,0,rectangle,-8,-3,1,0,0,-8,-3,1,0,0,0,110,110,39,1,,,,,,,,
,,,,,,,,,,,,,FF,,,,,,,,1.133,,,,,,,,,,,,,,,,,,,,,,61006befb060ce1e415e03df,61036f7611bc5a6b8b2646c0,2021-07-29_23h18.53.882,Simcolourproject_2stim_asymm_v5,2020.2.10,MacIntel,60,61025ae37ef11b136ea224fe,,,,,,,,,1193,-62,-44,1,0,0,response5disk,,2,-8,-12,1,0,0,rectangle,-8,-12,1,0,0,-8,-12,1,0,0,0,111,111,135,1,,,,,,,,
,,,,,,,,,,,,,FF,,,,,,,,0.817,,,,,,,,,,,,,,,,,,,,,,61006befb060ce1e415e03df,61036f7611bc5a6b8b2646c0,2021-07-29_23h18.53.882,Simcolourproject_2stim_asymm_v5,2020.2.10,MacIntel,60,61025ae37ef11b136ea224fe,,,,,,,,,3396,-91,22,1,0,0,response7disk,,1,11,5,1,0,0,rectangle,11,5,1,0,0,11,5,1,0,0,0,112,112,82,1,,,,,,,,
,,,,,,,,,,,,,FF,,,,,,,,2.3,,,,,,,,,,,,,,,,,,,,,,61006befb060ce1e415e03df,61036f7611bc5a6b8b2646c0,2021-07-29_23h18.53.882,Simcolourproject_2stim_asymm_v5,2020.2.10,MacIntel,60,61025ae37ef11b136ea224fe,,,,,,,,,2594,77,-40,1,0,0,response3disk,,5,29,-3,1,0,0,rectangle,29,-3,1,0,0,29,-3,1,0,0,0,113,113,155,1,,,,,,,,
,,,,,,,,,,,,,FF,,,,,,,,2.284,,,,,,,,,,,,,,,,,,,,,,61006befb060ce1e415e03df,61036f7611bc5a6b8b2646c0,2021-07-29_23h18.53.882,Simcolourproject_2stim_asymm_v5,2020.2.10,MacIntel,60,61025ae37ef11b136ea224fe,,,,,,,,,1246,37,47,1,0,0,response1disk,,7,1,2,1,0,0,rectangle,49,70,1,0,0,16,-4,1,0,0,0,114,114,42,1,,response1disk_3,TRUE,7,7,"[215,41,240,241,2,200,200,25,159,99,216,211,48,108,210,176,153,145,246,115]",1.083,rectangle
,,,,,,,,,,,,,FF,,,,,,,,0.965,,,,,,,,,,,,,,,,,,,,,,61006befb060ce1e415e03df,61036f7611bc5a6b8b2646c0,2021-07-29_23h18.53.882,Simcolourproject_2stim_asymm_v5,2020.2.10,MacIntel,60,61025ae37ef11b136ea224fe,,,,,,,,,4076,-46,21,1,0,0,response7disk,,1,-5,-1,1,0,0,rectangle,-5,-1,1,0,0,-5,-1,1,0,0,0,115,115,69,1,,,,,,,,
,,,,,,,,,,,,,FF,,,,,,,,1.7,,,,,,,,,,,,,,,,,,,,,,61006befb060ce1e415e03df,61036f7611bc5a6b8b2646c0,2021-07-29_23h18.53.882,Simcolourproject_2stim_asymm_v5,2020.2.10,MacIntel,60,61025ae37ef11b136ea224fe,,,,,,,,,2490,75,-37,1,0,0,response3disk,,5,11,-5,1,0,0,rectangle,11,-5,1,0,0,11,-5,1,0,0,0,116,116,89,1,,,,,,,,
,,,,,,,,,,,,,FF,,,,,,,,4.667,,,,,,,,,,,,,,,,,,,,,,61006befb060ce1e415e03df,61036f7611bc5a6b8b2646c0,2021-07-29_23h18.53.882,Simcolourproject_2stim_asymm_v5,2020.2.10,MacIntel,60,61025ae37ef11b136ea224fe,,,,,,,,,1271,48,-28,1,0,0,response3disk,,5,27,-11,1,0,0,rectangle,27,-11,1,0,0,27,-11,1,0,0,0,117,117,58,1,,,,,,,,
,,,,,,,,,,,,,FF,,,,,,,,1.017,,,,,,,,,,,,,,,,,,,,,,61006befb060ce1e415e03df,61036f7611bc5a6b8b2646c0,2021-07-29_23h18.53.882,Simcolourproject_2stim_asymm_v5,2020.2.10,MacIntel,60,61025ae37ef11b136ea224fe,,,,,,,,,3242,-34,-76,1,0,0,response5disk,,3,-6,-5,1,0,0,rectangle,-6,-5,1,0,0,-6,-5,1,0,0,0,118,118,29,1,,,,,,,,
,,,,,,,,,,,,,FF,,,,,,,,1.368,,,,,,,,,,,,,,,,,,,,,,61006befb060ce1e415e03df,61036f7611bc5a6b8b2646c0,2021-07-29_23h18.53.882,Simcolourproject_2stim_asymm_v5,2020.2.10,MacIntel,60,61025ae37ef11b136ea224fe,,,,,,,,,2985,-69,24,1,0,0,response7disk,,1,-18,3,1,0,0,rectangle,-18,3,1,0,0,-18,3,1,0,0,0,119,119,97,1,,,,,,,,
,,,,,,,,,,,,,FF,,,,,,,,0.799,,,,,,,,,,,,,,,,,,,,,,61006befb060ce1e415e03df,61036f7611bc5a6b8b2646c0,2021-07-29_23h18.53.882,Simcolourproject_2stim_asymm_v5,2020.2.10,MacIntel,60,61025ae37ef11b136ea224fe,,,,,,,,,1449,-77,29,1,0,0,response7disk,,1,-10,-2,1,0,0,rectangle,-10,-2,1,0,0,-10,-2,1,0,0,0,120,120,147,1,,,,,,,,
,,,,,,,,,,,,,FF,,,,,,,,4.167,,,,,,,,,,,,,,,,,,,,,,61006befb060ce1e415e03df,61036f7611bc5a6b8b2646c0,2021-07-29_23h18.53.882,Simcolourproject_2stim_asymm_v5,2020.2.10,MacIntel,60,61025ae37ef11b136ea224fe,,,,,,,,,3218,42,-90,1,0,0,response3disk,,4,11,-6,1,0,0,rectangle,11,-6,1,0,0,11,-6,1,0,0,0,121,121,41,1,,,,,,,,
,,,,,,,,,,,,,FF,,,,,,,,1.944,,,,,,,,,,,,,,,,,,,,,,61006befb060ce1e415e03df,61036f7611bc5a6b8b2646c0,2021-07-29_23h18.53.882,Simcolourproject_2stim_asymm_v5,2020.2.10,MacIntel,60,61025ae37ef11b136ea224fe,,,,,,,,,361,38,57,1,0,0,response1disk,,7,11,3,1,0,0,rectangle,11,3,1,0,0,11,3,1,0,0,0,122,122,94,1,,,,,,,,
,,,,,,,,,,,,,FF,,,,,,,,3.183,,,,,,,,,,,,,,,,,,,,,,61006befb060ce1e415e03df,61036f7611bc5a6b8b2646c0,2021-07-29_23h18.53.882,Simcolourproject_2stim_asymm_v5,2020.2.10,MacIntel,60,61025ae37ef11b136ea224fe,,,,,,,,,2856,56,29,1,0,0,response1disk,,6,13,1,1,0,0,rectangle,13,1,1,0,0,13,1,1,0,0,0,123,123,7,1,,,,,,,,
,,,,,,,,,,,,,FF,,,,,,,,2.801,,,,,,,,,,,,,,,,,,,,,,61006befb060ce1e415e03df,61036f7611bc5a6b8b2646c0,2021-07-29_23h18.53.882,Simcolourproject_2stim_asymm_v5,2020.2.10,MacIntel,60,61025ae37ef11b136ea224fe,,,,,,,,,851,68,44,1,0,0,response1disk,,6,-11,-8,1,0,0,rectangle,-11,-8,1,0,0,-11,-8,1,0,0,0,124,124,56,1,,,,,,,,
,,,,,,,,,,,,,FF,,,,,,,,1.149,,,,,,,,,,,,,,,,,,,,,,61006befb060ce1e415e03df,61036f7611bc5a6b8b2646c0,2021-07-29_23h18.53.882,Simcolourproject_2stim_asymm_v5,2020.2.10,MacIntel,60,61025ae37ef11b136ea224fe,,,,,,,,,1073,65,30,1,0,0,response1disk,,6,-3,-14,1,0,0,rectangle,-3,-14,1,0,0,-3,-14,1,0,0,0,125,125,113,1,,,,,,,,
,,,,,,,,,,,,,FF,,,,,,,,1.116,,,,,,,,,,,,,,,,,,,,,,61006befb060ce1e415e03df,61036f7611bc5a6b8b2646c0,2021-07-29_23h18.53.882,Simcolourproject_2stim_asymm_v5,2020.2.10,MacIntel,60,61025ae37ef11b136ea224fe,,,,,,,,,1814,-58,-27,1,0,0,response5disk,,2,-13,1,1,0,0,rectangle,-13,1,1,0,0,-13,1,1,0,0,0,126,126,77,1,,,,,,,,
,,,,,,,,,,,,,FF,,,,,,,,1.566,,,,,,,,,,,,,,,,,,,,,,61006befb060ce1e415e03df,61036f7611bc5a6b8b2646c0,2021-07-29_23h18.53.882,Simcolourproject_2stim_asymm_v5,2020.2.10,MacIntel,60,61025ae37ef11b136ea224fe,,,,,,,,,959,-69,21,1,0,0,response7disk,,1,-8,-1,1,0,0,rectangle,-8,-1,1,0,0,-8,-1,1,0,0,0,127,127,126,1,,,,,,,,
,,,,,,,,,,,,,FF,,,,,,,,4.267,,,,,,,,,,,,,,,,,,,,,,61006befb060ce1e415e03df,61036f7611bc5a6b8b2646c0,2021-07-29_23h18.53.882,Simcolourproject_2stim_asymm_v5,2020.2.10,MacIntel,60,61025ae37ef11b136ea224fe,,,,,,,,,2499,66,-45,1,0,0,response3disk,,5,-9,-6,1,0,0,rectangle,-9,-6,1,0,0,-9,-6,1,0,0,0,128,128,38,1,,,,,,,,
,,,,,,,,,,,,,FF,,,,,,,,1.116,,,,,,,,,,,,,,,,,,,,,,61006befb060ce1e415e03df,61036f7611bc5a6b8b2646c0,2021-07-29_23h18.53.882,Simcolourproject_2stim_asymm_v5,2020.2.10,MacIntel,60,61025ae37ef11b136ea224fe,,,,,,,,,3613,70,-40,1,0,0,response3disk,,5,7,-3,1,0,0,rectangle,7,-3,1,0,0,7,-3,1,0,0,0,129,129,25,1,,,,,,,,
,,,,,,,,,,,,,FF,,,,,,,,1.25,,,,,,,,,,,,,,,,,,,,,,61006befb060ce1e415e03df,61036f7611bc5a6b8b2646c0,2021-07-29_23h18.53.882,Simcolourproject_2stim_asymm_v5,2020.2.10,MacIntel,60,61025ae37ef11b136ea224fe,,,,,,,,,549,-60,24,1,0,0,response7disk,,1,-7,-2,1,0,0,rectangle,-7,-2,1,0,0,-7,-2,1,0,0,0,130,130,121,1,,,,,,,,
,,,,,,,,,,,,,FF,,,,,,,,1.9,,,,,,,,,,,,,,,,,,,,,,61006befb060ce1e415e03df,61036f7611bc5a6b8b2646c0,2021-07-29_23h18.53.882,Simcolourproject_2stim_asymm_v5,2020.2.10,MacIntel,60,61025ae37ef11b136ea224fe,,,,,,,,,1444,-69,-29,1,0,0,response5disk,,2,-7,-8,1,0,0,rectangle,-7,-8,1,0,0,-7,-8,1,0,0,0,131,131,49,1,,,,,,,,
,,,,,,,,,,,,,FF,,,,,,,,1.05,,,,,,,,,,,,,,,,,,,,,,61006befb060ce1e415e03df,61036f7611bc5a6b8b2646c0,2021-07-29_23h18.53.882,Simcolourproject_2stim_asymm_v5,2020.2.10,MacIntel,60,61025ae37ef11b136ea224fe,,,,,,,,,4265,-58,-37,1,0,0,response5disk,,2,-18,-12,1,0,0,rectangle,-18,-12,1,0,0,-18,-12,1,0,0,0,132,132,20,1,,,,,,,,
,,,,,,,,,,,,,FF,,,,,,,,2.732,,,,,,,,,,,,,,,,,,,,,,61006befb060ce1e415e03df,61036f7611bc5a6b8b2646c0,2021-07-29_23h18.53.882,Simcolourproject_2stim_asymm_v5,2020.2.10,MacIntel,60,61025ae37ef11b136ea224fe,,,,,,,,,2005,92,28,1,0,0,response1disk,,6,14,2,1,0,0,rectangle,14,2,1,0,0,14,2,1,0,0,0,133,133,139,1,,,,,,,,
,,,,,,,,,,,,,FF,,,,,,,,3.033,,,,,,,,,,,,,,,,,,,,,,61006befb060ce1e415e03df,61036f7611bc5a6b8b2646c0,2021-07-29_23h18.53.882,Simcolourproject_2stim_asymm_v5,2020.2.10,MacIntel,60,61025ae37ef11b136ea224fe,,,,,,,,,2037,-82,-41,1,0,0,response5disk,,2,-21,-1,1,0,0,rectangle,-21,-1,1,0,0,-21,-1,1,0,0,0,134,134,73,1,,,,,,,,
,,,,,,,,,,,,,FF,,,,,,,,4.034,,,,,,,,,,,,,,,,,,,,,,61006befb060ce1e415e03df,61036f7611bc5a6b8b2646c0,2021-07-29_23h18.53.882,Simcolourproject_2stim_asymm_v5,2020.2.10,MacIntel,60,61025ae37ef11b136ea224fe,,,,,,,,,1796,36,-83,1,0,0,response3disk,,4,12,-9,1,0,0,rectangle,12,-9,1,0,0,12,-9,1,0,0,0,135,135,117,1,,,,,,,,
,,,,,,,,,,,,,FF,,,,,,,,2.066,,,,,,,,,,,,,,,,,,,,,,61006befb060ce1e415e03df,61036f7611bc5a6b8b2646c0,2021-07-29_23h18.53.882,Simcolourproject_2stim_asymm_v5,2020.2.10,MacIntel,60,61025ae37ef11b136ea224fe,,,,,,,,,3694,85,31,1,0,0,response1disk,,6,9,-1,1,0,0,rectangle,9,-1,1,0,0,9,-1,1,0,0,0,136,136,27,1,,,,,,,,
,,,,,,,,,,,,,FF,,,,,,,,2.733,,,,,,,,,,,,,,,,,,,,,,61006befb060ce1e415e03df,61036f7611bc5a6b8b2646c0,2021-07-29_23h18.53.882,Simcolourproject_2stim_asymm_v5,2020.2.10,MacIntel,60,61025ae37ef11b136ea224fe,,,,,,,,,76,-71,26,1,0,0,response7disk,,1,-5,-1,1,0,0,rectangle,-5,-1,1,0,0,-5,-1,1,0,0,0,137,137,1,1,,,,,,,,
,,,,,,,,,,,,,FF,,,,,,,,1.05,,,,,,,,,,,,,,,,,,,,,,61006befb060ce1e415e03df,61036f7611bc5a6b8b2646c0,2021-07-29_23h18.53.882,Simcolourproject_2stim_asymm_v5,2020.2.10,MacIntel,60,61025ae37ef11b136ea224fe,,,,,,,,,2621,-58,-31,1,0,0,response5disk,,2,-6,-7,1,0,0,rectangle,-6,-7,1,0,0,-6,-7,1,0,0,0,138,138,47,1,,,,,,,,
,,,,,,,,,,,,,FF,,,,,,,,1.283,,,,,,,,,,,,,,,,,,,,,,61006befb060ce1e415e03df,61036f7611bc5a6b8b2646c0,2021-07-29_23h18.53.882,Simcolourproject_2stim_asymm_v5,2020.2.10,MacIntel,60,61025ae37ef11b136ea224fe,,,,,,,,,605,-56,-34,1,0,0,response5disk,,2,9,-5,1,0,0,rectangle,9,-5,1,0,0,9,-5,1,0,0,0,139,139,104,1,,,,,,,,
,,,,,,,,,,,,,FF,,,,,,,,0.717,,,,,,,,,,,,,,,,,,,,,,61006befb060ce1e415e03df,61036f7611bc5a6b8b2646c0,2021-07-29_23h18.53.882,Simcolourproject_2stim_asymm_v5,2020.2.10,MacIntel,60,61025ae37ef11b136ea224fe,,,,,,,,,1050,-60,35,1,0,0,response7disk,,1,-5,7,1,0,0,rectangle,-5,7,1,0,0,-5,7,1,0,0,0,140,140,102,1,,,,,,,,
,,,,,,,,,,,,,FF,,,,,,,,1.933,,,,,,,,,,,,,,,,,,,,,,61006befb060ce1e415e03df,61036f7611bc5a6b8b2646c0,2021-07-29_23h18.53.882,Simcolourproject_2stim_asymm_v5,2020.2.10,MacIntel,60,61025ae37ef11b136ea224fe,,,,,,,,,2623,39,68,1,0,0,response1disk,,7,15,1,1,0,0,rectangle,15,1,1,0,0,15,1,1,0,0,0,141,141,23,1,,,,,,,,
,,,,,,,,,,,,,FF,,,,,,,,2.884,,,,,,,,,,,,,,,,,,,,,,61006befb060ce1e415e03df,61036f7611bc5a6b8b2646c0,2021-07-29_23h18.53.882,Simcolourproject_2stim_asymm_v5,2020.2.10,MacIntel,60,61025ae37ef11b136ea224fe,,,,,,,,,283,65,-45,1,0,0,response3disk,,5,16,-7,1,0,0,rectangle,16,-7,1,0,0,16,-7,1,0,0,0,142,142,109,1,,,,,,,,
,,,,,,,,,,,,,FF,,,,,,,,1.249,,,,,,,,,,,,,,,,,,,,,,61006befb060ce1e415e03df,61036f7611bc5a6b8b2646c0,2021-07-29_23h18.53.882,Simcolourproject_2stim_asymm_v5,2020.2.10,MacIntel,60,61025ae37ef11b136ea224fe,,,,,,,,,936,67,36,1,0,0,response1disk,,6,20,-7,1,0,0,rectangle,20,-7,1,0,0,20,-7,1,0,0,0,143,143,140,1,,,,,,,,
,,,,,,,,,,,,,FF,,,,,,,,2.05,,,,,,,,,,,,,,,,,,,,,,61006befb060ce1e415e03df,61036f7611bc5a6b8b2646c0,2021-07-29_23h18.53.882,Simcolourproject_2stim_asymm_v5,2020.2.10,MacIntel,60,61025ae37ef11b136ea224fe,,,,,,,,,2248,72,-40,1,0,0,response3disk,,5,9,-8,1,0,0,rectangle,-93,-37,1,0,0,-7,16,1,0,0,0,144,144,122,1,,response5disk_3,TRUE,2,2,"[215,41,240,241,2,200,200,25,159,99,216,211,48,108,210,176,153,145,246,115]",1.666,rectangle
,,,,,,,,,,,,,FF,,,,,,,,2.716,,,,,,,,,,,,,,,,,,,,,,61006befb060ce1e415e03df,61036f7611bc5a6b8b2646c0,2021-07-29_23h18.53.882,Simcolourproject_2stim_asymm_v5,2020.2.10,MacIntel,60,61025ae37ef11b136ea224fe,,,,,,,,,2588,57,32,1,0,0,response1disk,,6,20,-3,1,0,0,rectangle,20,-3,1,0,0,20,-3,1,0,0,0,145,145,154,1,,,,,,,,
,,,,,,,,,,,,,FF,,,,,,,,1.85,,,,,,,,,,,,,,,,,,,,,,61006befb060ce1e415e03df,61036f7611bc5a6b8b2646c0,2021-07-29_23h18.53.882,Simcolourproject_2stim_asymm_v5,2020.2.10,MacIntel,60,61025ae37ef11b136ea224fe,,,,,,,,,4243,41,63,1,0,0,response1disk,,7,8,-7,1,0,0,rectangle,8,-7,1,0,0,8,-7,1,0,0,0,146,146,75,1,,,,,,,,
,,,,,,,,,,,,,FF,,,,,,,,0.771,,,,,,,,,,,,,,,,,,,,,,61006befb060ce1e415e03df,61036f7611bc5a6b8b2646c0,2021-07-29_23h18.53.882,Simcolourproject_2stim_asymm_v5,2020.2.10,MacIntel,60,61025ae37ef11b136ea224fe,,,,,,,,,4027,-74,30,1,0,0,response7disk,,1,1,-9,1,0,0,rectangle,1,-9,1,0,0,1,-9,1,0,0,0,147,147,79,1,,,,,,,,
,,,,,,,,,,,,,FF,,,,,,,,1.95,,,,,,,,,,,,,,,,,,,,,,61006befb060ce1e415e03df,61036f7611bc5a6b8b2646c0,2021-07-29_23h18.53.882,Simcolourproject_2stim_asymm_v5,2020.2.10,MacIntel,60,61025ae37ef11b136ea224fe,,,,,,,,,100,-54,-31,1,0,0,response5disk,,2,-5,-9,1,0,0,rectangle,-5,-9,1,0,0,-5,-9,1,0,0,0,148,148,81,1,,,,,,,,
,,,,,,,,,,,,,FF,,,,,,,,1.338,,,,,,,,,,,,,,,,,,,,,,61006befb060ce1e415e03df,61036f7611bc5a6b8b2646c0,2021-07-29_23h18.53.882,Simcolourproject_2stim_asymm_v5,2020.2.10,MacIntel,60,61025ae37ef11b136ea224fe,,,,,,,,,1016,70,44,1,0,0,response1disk,,6,4,-1,1,0,0,rectangle,4,-1,1,0,0,4,-1,1,0,0,0,149,149,87,1,,,,,,,,
,,,,,,,,,,,,,FF,,,,,,,,1.383,,,,,,,,,,,,,,,,,,,,,,61006befb060ce1e415e03df,61036f7611bc5a6b8b2646c0,2021-07-29_23h18.53.882,Simcolourproject_2stim_asymm_v5,2020.2.10,MacIntel,60,61025ae37ef11b136ea224fe,,,,,,,,,1717,67,43,1,0,0,response1disk,,6,10,-4,1,0,0,rectangle,10,-4,1,0,0,10,-4,1,0,0,0,150,150,85,1,,,,,,,,
,,,,,,,,,,,,,FF,,,,,,,,0.918,,,,,,,,,,,,,,,,,,,,,,61006befb060ce1e415e03df,61036f7611bc5a6b8b2646c0,2021-07-29_23h18.53.882,Simcolourproject_2stim_asymm_v5,2020.2.10,MacIntel,60,61025ae37ef11b136ea224fe,,,,,,,,,537,74,45,1,0,0,response1disk,,6,-3,-9,1,0,0,rectangle,-3,-9,1,0,0,-3,-9,1,0,0,0,151,151,108,1,,,,,,,,
,,,,,,,,,,,,,FF,,,,,,,,0.746,,,,,,,,,,,,,,,,,,,,,,61006befb060ce1e415e03df,61036f7611bc5a6b8b2646c0,2021-07-29_23h18.53.882,Simcolourproject_2stim_asymm_v5,2020.2.10,MacIntel,60,61025ae37ef11b136ea224fe,,,,,,,,,445,-54,23,1,0,0,response7disk,,1,-18,1,1,0,0,rectangle,67,44,1,0,0,-33,-13,1,0,0,0,152,152,95,1,,response1disk_3,TRUE,6,6,"[215,41,240,241,2,200,200,25,159,99,216,211,48,108,210,176,153,145,246,115]",1.25,rectangle
,,,,,,,,,,,,,FF,,,,,,,,3.151,,,,,,,,,,,,,,,,,,,,,,61006befb060ce1e415e03df,61036f7611bc5a6b8b2646c0,2021-07-29_23h18.53.882,Simcolourproject_2stim_asymm_v5,2020.2.10,MacIntel,60,61025ae37ef11b136ea224fe,,,,,,,,,1844,40,-73,1,0,0,response3disk,,4,19,3,1,0,0,rectangle,19,3,1,0,0,19,3,1,0,0,0,153,153,142,1,,,,,,,,
,,,,,,,,,,,,,FF,,,,,,,,0.816,,,,,,,,,,,,,,,,,,,,,,61006befb060ce1e415e03df,61036f7611bc5a6b8b2646c0,2021-07-29_23h18.53.882,Simcolourproject_2stim_asymm_v5,2020.2.10,MacIntel,60,61025ae37ef11b136ea224fe,,,,,,,,,2661,-55,31,1,0,0,response7disk,,1,-14,1,1,0,0,rectangle,-14,1,1,0,0,-14,1,1,0,0,0,154,154,4,1,,,,,,,,
,,,,,,,,,,,,,FF,,,,,,,,2.467,,,,,,,,,,,,,,,,,,,,,,61006befb060ce1e415e03df,61036f7611bc5a6b8b2646c0,2021-07-29_23h18.53.882,Simcolourproject_2stim_asymm_v5,2020.2.10,MacIntel,60,61025ae37ef11b136ea224fe,,,,,,,,,1642,39,54,1,0,0,response1disk,,7,-15,-5,1,0,0,rectangle,-15,-5,1,0,0,-15,-5,1,0,0,0,155,155,37,1,,,,,,,,
,,,,,,,,,,,,,FF,,,,,,,,1.2,,,,,,,,,,,,,,,,,,,,,,61006befb060ce1e415e03df,61036f7611bc5a6b8b2646c0,2021-07-29_23h18.53.882,Simcolourproject_2stim_asymm_v5,2020.2.10,MacIntel,60,61025ae37ef11b136ea224fe,,,,,,,,,628,-50,-69,1,0,0,response5disk,,3,-6,-9,1,0,0,rectangle,-6,-9,1,0,0,-6,-9,1,0,0,0,156,156,19,1,,,,,,,,
,,,,,,,,,,,,,FF,,,,,,,,2.683,,,,,,,,,,,,,,,,,,,,,,61006befb060ce1e415e03df,61036f7611bc5a6b8b2646c0,2021-07-29_23h18.53.882,Simcolourproject_2stim_asymm_v5,2020.2.10,MacIntel,60,61025ae37ef11b136ea224fe,,,,,,,,,2375,69,-50,1,0,0,response3disk,,5,23,-4,1,0,0,rectangle,23,-4,1,0,0,23,-4,1,0,0,0,157,157,105,1,,,,,,,,
,,,,,,,,,,,,,FF,,,,,,,,1.116,,,,,,,,,,,,,,,,,,,,,,61006befb060ce1e415e03df,61036f7611bc5a6b8b2646c0,2021-07-29_23h18.53.882,Simcolourproject_2stim_asymm_v5,2020.2.10,MacIntel,60,61025ae37ef11b136ea224fe,,,,,,,,,229,31,58,1,0,0,response1disk,,7,18,-6,1,0,0,rectangle,-61,-77,1,0,0,-13,-1,1,0,0,0,158,158,61,1,,response5disk_3,TRUE,3,3,"[215,41,240,241,2,200,200,25,159,99,216,211,48,108,210,176,153,145,246,115]",2.033,rectangle
,,,,,,,,,,,,,FF,,,,,,,,1.317,,,,,,,,,,,,,,,,,,,,,,61006befb060ce1e415e03df,61036f7611bc5a6b8b2646c0,2021-07-29_23h18.53.882,Simcolourproject_2stim_asymm_v5,2020.2.10,MacIntel,60,61025ae37ef11b136ea224fe,,,,,,,,,2630,87,29,1,0,0,response1disk,,6,7,-1,1,0,0,rectangle,7,-1,1,0,0,7,-1,1,0,0,0,159,159,133,1,,,,,,,,
,,,,,,,,,,,,,FF,,,,,,,,4.2,,,,,,,,,,,,,,,,,,,,,,61006befb060ce1e415e03df,61036f7611bc5a6b8b2646c0,2021-07-29_23h18.53.882,Simcolourproject_2stim_asymm_v5,2020.2.10,MacIntel,60,61025ae37ef11b136ea224fe,,,,,,,,,299,92,25,1,0,0,response1disk,,6,18,-6,1,0,0,rectangle,18,-6,1,0,0,18,-6,1,0,0,1,0,160,28,1,,,,,,,,
,,,,,,,,,,,,,FF,,,,,,,,1.216,,,,,,,,,,,,,,,,,,,,,,61006befb060ce1e415e03df,61036f7611bc5a6b8b2646c0,2021-07-29_23h18.53.882,Simcolourproject_2stim_asymm_v5,2020.2.10,MacIntel,60,61025ae37ef11b136ea224fe,,,,,,,,,187,-62,-42,1,0,0,response5disk,,2,1,-9,1,0,0,rectangle,1,-9,1,0,0,1,-9,1,0,0,1,1,161,104,1,,,,,,,,
,,,,,,,,,,,,,FF,,,,,,,,2.667,,,,,,,,,,,,,,,,,,,,,,61006befb060ce1e415e03df,61036f7611bc5a6b8b2646c0,2021-07-29_23h18.53.882,Simcolourproject_2stim_asymm_v5,2020.2.10,MacIntel,60,61025ae37ef11b136ea224fe,,,,,,,,,1909,62,-47,1,0,0,response3disk,,5,-1,-10,1,0,0,rectangle,-1,-10,1,0,0,-1,-10,1,0,0,1,2,162,14,1,,,,,,,,
,,,,,,,,,,,,,FF,,,,,,,,1.467,,,,,,,,,,,,,,,,,,,,,,61006befb060ce1e415e03df,61036f7611bc5a6b8b2646c0,2021-07-29_23h18.53.882,Simcolourproject_2stim_asymm_v5,2020.2.10,MacIntel,60,61025ae37ef11b136ea224fe,,,,,,,,,603,33,-54,1,0,0,response3disk,,4,15,-9,1,0,0,rectangle,15,-9,1,0,0,15,-9,1,0,0,1,3,163,139,1,,,,,,,,
,,,,,,,,,,,,,FF,,,,,,,,6.801,,,,,,,,,,,,,,,,,,,,,,61006befb060ce1e415e03df,61036f7611bc5a6b8b2646c0,2021-07-29_23h18.53.882,Simcolourproject_2stim_asymm_v5,2020.2.10,MacIntel,60,61025ae37ef11b136ea224fe,,,,,,,,,3733,90,32,1,0,0,response1disk,,6,25,-15,1,0,0,rectangle,25,-15,1,0,0,25,-15,1,0,0,1,4,164,30,1,,,,,,,,
,,,,,,,,,,,,,FF,,,,,,,,2.017,,,,,,,,,,,,,,,,,,,,,,61006befb060ce1e415e03df,61036f7611bc5a6b8b2646c0,2021-07-29_23h18.53.882,Simcolourproject_2stim_asymm_v5,2020.2.10,MacIntel,60,61025ae37ef11b136ea224fe,,,,,,,,,3760,74,-42,1,0,0,response3disk,,5,21,-3,1,0,0,rectangle,21,-3,1,0,0,21,-3,1,0,0,1,5,165,33,1,,,,,,,,
,,,,,,,,,,,,,FF,,,,,,,,3.517,,,,,,,,,,,,,,,,,,,,,,61006befb060ce1e415e03df,61036f7611bc5a6b8b2646c0,2021-07-29_23h18.53.882,Simcolourproject_2stim_asymm_v5,2020.2.10,MacIntel,60,61025ae37ef11b136ea224fe,,,,,,,,,2951,-70,25,1,0,0,response7disk,,1,-11,-9,1,0,0,rectangle,-11,-9,1,0,0,-11,-9,1,0,0,1,6,166,136,1,,,,,,,,
,,,,,,,,,,,,,FF,,,,,,,,1.766,,,,,,,,,,,,,,,,,,,,,,61006befb060ce1e415e03df,61036f7611bc5a6b8b2646c0,2021-07-29_23h18.53.882,Simcolourproject_2stim_asymm_v5,2020.2.10,MacIntel,60,61025ae37ef11b136ea224fe,,,,,,,,,2871,72,-39,1,0,0,response3disk,,5,21,6,1,0,0,rectangle,21,6,1,0,0,21,6,1,0,0,1,7,167,45,1,,,,,,,,
,,,,,,,,,,,,,FF,,,,,,,,3,,,,,,,,,,,,,,,,,,,,,,61006befb060ce1e415e03df,61036f7611bc5a6b8b2646c0,2021-07-29_23h18.53.882,Simcolourproject_2stim_asymm_v5,2020.2.10,MacIntel,60,61025ae37ef11b136ea224fe,,,,,,,,,1237,63,25,1,0,0,response1disk,,6,31,-4,1,0,0,rectangle,31,-4,1,0,0,31,-4,1,0,0,1,8,168,41,1,,,,,,,,
,,,,,,,,,,,,,FF,,,,,,,,1.684,,,,,,,,,,,,,,,,,,,,,,61006befb060ce1e415e03df,61036f7611bc5a6b8b2646c0,2021-07-29_23h18.53.882,Simcolourproject_2stim_asymm_v5,2020.2.10,MacIntel,60,61025ae37ef11b136ea224fe,,,,,,,,,1590,68,-41,1,0,0,response3disk,,5,16,-5,1,0,0,rectangle,16,-5,1,0,0,16,-5,1,0,0,1,9,169,37,1,,,,,,,,
,,,,,,,,,,,,,FF,,,,,,,,0.8,,,,,,,,,,,,,,,,,,,,,,61006befb060ce1e415e03df,61036f7611bc5a6b8b2646c0,2021-07-29_23h18.53.882,Simcolourproject_2stim_asymm_v5,2020.2.10,MacIntel,60,61025ae37ef11b136ea224fe,,,,,,,,,634,-63,28,1,0,0,response7disk,,1,-2,-6,1,0,0,rectangle,-2,-6,1,0,0,-2,-6,1,0,0,1,10,170,125,1,,,,,,,,
,,,,,,,,,,,,,FF,,,,,,,,0.85,,,,,,,,,,,,,,,,,,,,,,61006befb060ce1e415e03df,61036f7611bc5a6b8b2646c0,2021-07-29_23h18.53.882,Simcolourproject_2stim_asymm_v5,2020.2.10,MacIntel,60,61025ae37ef11b136ea224fe,,,,,,,,,4147,-73,33,1,0,0,response7disk,,1,-11,-5,1,0,0,rectangle,-11,-5,1,0,0,-11,-5,1,0,0,1,11,171,143,1,,,,,,,,
,,,,,,,,,,,,,FF,,,,,,,,2.367,,,,,,,,,,,,,,,,,,,,,,61006befb060ce1e415e03df,61036f7611bc5a6b8b2646c0,2021-07-29_23h18.53.882,Simcolourproject_2stim_asymm_v5,2020.2.10,MacIntel,60,61025ae37ef11b136ea224fe,,,,,,,,,104,-27,-83,1,0,0,response5disk,,3,-6,-4,1,0,0,rectangle,-6,-4,1,0,0,-6,-4,1,0,0,1,12,172,149,1,,,,,,,,
,,,,,,,,,,,,,FF,,,,,,,,2.883,,,,,,,,,,,,,,,,,,,,,,61006befb060ce1e415e03df,61036f7611bc5a6b8b2646c0,2021-07-29_23h18.53.882,Simcolourproject_2stim_asymm_v5,2020.2.10,MacIntel,60,61025ae37ef11b136ea224fe,,,,,,,,,416,65,45,1,0,0,response1disk,,6,13,3,1,0,0,rectangle,13,3,1,0,0,13,3,1,0,0,1,13,173,60,1,,,,,,,,
,,,,,,,,,,,,,FF,,,,,,,,1.3,,,,,,,,,,,,,,,,,,,,,,61006befb060ce1e415e03df,61036f7611bc5a6b8b2646c0,2021-07-29_23h18.53.882,Simcolourproject_2stim_asymm_v5,2020.2.10,MacIntel,60,61025ae37ef11b136ea224fe,,,,,,,,,3144,-62,30,1,0,0,response7disk,,1,13,-3,1,0,0,rectangle,13,-3,1,0,0,13,-3,1,0,0,1,14,174,66,1,,,,,,,,
,,,,,,,,,,,,,FF,,,,,,,,1.201,,,,,,,,,,,,,,,,,,,,,,61006befb060ce1e415e03df,61036f7611bc5a6b8b2646c0,2021-07-29_23h18.53.882,Simcolourproject_2stim_asymm_v5,2020.2.10,MacIntel,60,61025ae37ef11b136ea224fe,,,,,,,,,4020,-77,40,1,0,0,response7disk,,1,-8,1,1,0,0,rectangle,40,76,1,0,0,-4,-8,1,0,0,1,15,175,8,1,,response1disk_3,TRUE,7,7,"[215,41,240,241,2,200,200,25,159,99,216,211,48,108,210,176,153,145,246,115]",2.649,rectangle
,,,,,,,,,,,,,FF,,,,,,,,4.05,,,,,,,,,,,,,,,,,,,,,,61006befb060ce1e415e03df,61036f7611bc5a6b8b2646c0,2021-07-29_23h18.53.882,Simcolourproject_2stim_asymm_v5,2020.2.10,MacIntel,60,61025ae37ef11b136ea224fe,,,,,,,,,3785,-46,-68,1,0,0,response5disk,,3,10,-8,1,0,0,rectangle,10,-8,1,0,0,10,-8,1,0,0,1,16,176,130,1,,,,,,,,
,,,,,,,,,,,,,FF,,,,,,,,2.083,,,,,,,,,,,,,,,,,,,,,,61006befb060ce1e415e03df,61036f7611bc5a6b8b2646c0,2021-07-29_23h18.53.882,Simcolourproject_2stim_asymm_v5,2020.2.10,MacIntel,60,61025ae37ef11b136ea224fe,,,,,,,,,3892,86,52,1,0,0,response1disk,,6,10,-4,1,0,0,rectangle,10,-4,1,0,0,10,-4,1,0,0,1,17,177,31,1,,,,,,,,
,,,,,,,,,,,,,FF,,,,,,,,1.103,,,,,,,,,,,,,,,,,,,,,,61006befb060ce1e415e03df,61036f7611bc5a6b8b2646c0,2021-07-29_23h18.53.882,Simcolourproject_2stim_asymm_v5,2020.2.10,MacIntel,60,61025ae37ef11b136ea224fe,,,,,,,,,3636,-70,34,1,0,0,response7disk,,1,-8,-11,1,0,0,rectangle,-8,-11,1,0,0,-8,-11,1,0,0,1,18,178,93,1,,,,,,,,
,,,,,,,,,,,,,FF,,,,,,,,0.934,,,,,,,,,,,,,,,,,,,,,,61006befb060ce1e415e03df,61036f7611bc5a6b8b2646c0,2021-07-29_23h18.53.882,Simcolourproject_2stim_asymm_v5,2020.2.10,MacIntel,60,61025ae37ef11b136ea224fe,,,,,,,,,1715,36,73,1,0,0,response1disk,,7,-15,-7,1,0,0,rectangle,-15,-7,1,0,0,-15,-7,1,0,0,1,19,179,72,1,,,,,,,,
,,,,,,,,,,,,,FF,,,,,,,,1.866,,,,,,,,,,,,,,,,,,,,,,61006befb060ce1e415e03df,61036f7611bc5a6b8b2646c0,2021-07-29_23h18.53.882,Simcolourproject_2stim_asymm_v5,2020.2.10,MacIntel,60,61025ae37ef11b136ea224fe,,,,,,,,,1333,89,34,1,0,0,response1disk,,6,7,-2,1,0,0,rectangle,7,-2,1,0,0,7,-2,1,0,0,1,20,180,141,1,,,,,,,,
,,,,,,,,,,,,,FF,,,,,,,,2.133,,,,,,,,,,,,,,,,,,,,,,61006befb060ce1e415e03df,61036f7611bc5a6b8b2646c0,2021-07-29_23h18.53.882,Simcolourproject_2stim_asymm_v5,2020.2.10,MacIntel,60,61025ae37ef11b136ea224fe,,,,,,,,,4285,27,86,1,0,0,response1disk,,7,14,-17,1,0,0,rectangle,14,-17,1,0,0,14,-17,1,0,0,1,21,181,46,1,,,,,,,,
,,,,,,,,,,,,,FF,,,,,,,,3.834,,,,,,,,,,,,,,,,,,,,,,61006befb060ce1e415e03df,61036f7611bc5a6b8b2646c0,2021-07-29_23h18.53.882,Simcolourproject_2stim_asymm_v5,2020.2.10,MacIntel,60,61025ae37ef11b136ea224fe,,,,,,,,,1650,64,-33,1,0,0,response3disk,,5,6,-2,1,0,0,rectangle,6,-2,1,0,0,6,-2,1,0,0,1,22,182,102,1,,,,,,,,
,,,,,,,,,,,,,FF,,,,,,,,1.85,,,,,,,,,,,,,,,,,,,,,,61006befb060ce1e415e03df,61036f7611bc5a6b8b2646c0,2021-07-29_23h18.53.882,Simcolourproject_2stim_asymm_v5,2020.2.10,MacIntel,60,61025ae37ef11b136ea224fe,,,,,,,,,2329,67,29,1,0,0,response1disk,,6,-15,-17,1,0,0,rectangle,-15,-17,1,0,0,-15,-17,1,0,0,1,23,183,150,1,,,,,,,,
,,,,,,,,,,,,,FF,,,,,,,,1.65,,,,,,,,,,,,,,,,,,,,,,61006befb060ce1e415e03df,61036f7611bc5a6b8b2646c0,2021-07-29_23h18.53.882,Simcolourproject_2stim_asymm_v5,2020.2.10,MacIntel,60,61025ae37ef11b136ea224fe,,,,,,,,,1728,85,-43,1,0,0,response3disk,,5,15,0,1,0,0,rectangle,15,0,1,0,0,15,0,1,0,0,1,24,184,10,1,,,,,,,,
,,,,,,,,,,,,,FF,,,,,,,,1.199,,,,,,,,,,,,,,,,,,,,,,61006befb060ce1e415e03df,61036f7611bc5a6b8b2646c0,2021-07-29_23h18.53.882,Simcolourproject_2stim_asymm_v5,2020.2.10,MacIntel,60,61025ae37ef11b136ea224fe,,,,,,,,,2603,-64,26,1,0,0,response7disk,,1,-17,0,1,0,0,rectangle,-17,0,1,0,0,-17,0,1,0,0,1,25,185,52,1,,,,,,,,
,,,,,,,,,,,,,FF,,,,,,,,0.92,,,,,,,,,,,,,,,,,,,,,,61006befb060ce1e415e03df,61036f7611bc5a6b8b2646c0,2021-07-29_23h18.53.882,Simcolourproject_2stim_asymm_v5,2020.2.10,MacIntel,60,61025ae37ef11b136ea224fe,,,,,,,,,3912,-65,25,1,0,0,response7disk,,1,-20,-3,1,0,0,rectangle,-20,-3,1,0,0,-20,-3,1,0,0,1,26,186,20,1,,,,,,,,
,,,,,,,,,,,,,FF,,,,,,,,0.833,,,,,,,,,,,,,,,,,,,,,,61006befb060ce1e415e03df,61036f7611bc5a6b8b2646c0,2021-07-29_23h18.53.882,Simcolourproject_2stim_asymm_v5,2020.2.10,MacIntel,60,61025ae37ef11b136ea224fe,,,,,,,,,2900,-78,28,1,0,0,response7disk,,1,-9,-4,1,0,0,rectangle,-9,-4,1,0,0,-9,-4,1,0,0,1,27,187,89,1,,,,,,,,
,,,,,,,,,,,,,FF,,,,,,,,1.185,,,,,,,,,,,,,,,,,,,,,,61006befb060ce1e415e03df,61036f7611bc5a6b8b2646c0,2021-07-29_23h18.53.882,Simcolourproject_2stim_asymm_v5,2020.2.10,MacIntel,60,61025ae37ef11b136ea224fe,,,,,,,,,3075,62,-27,1,0,0,response3disk,,5,7,3,1,0,0,rectangle,7,3,1,0,0,7,3,1,0,0,1,28,188,78,1,,,,,,,,
,,,,,,,,,,,,,FF,,,,,,,,2.084,,,,,,,,,,,,,,,,,,,,,,61006befb060ce1e415e03df,61036f7611bc5a6b8b2646c0,2021-07-29_23h18.53.882,Simcolourproject_2stim_asymm_v5,2020.2.10,MacIntel,60,61025ae37ef11b136ea224fe,,,,,,,,,2140,83,-40,1,0,0,response3disk,,5,3,-12,1,0,0,rectangle,3,-12,1,0,0,3,-12,1,0,0,1,29,189,81,1,,,,,,,,
,,,,,,,,,,,,,FF,,,,,,,,3.484,,,,,,,,,,,,,,,,,,,,,,61006befb060ce1e415e03df,61036f7611bc5a6b8b2646c0,2021-07-29_23h18.53.882,Simcolourproject_2stim_asymm_v5,2020.2.10,MacIntel,60,61025ae37ef11b136ea224fe,,,,,,,,,2393,66,27,1,0,0,response1disk,,6,5,-3,1,0,0,rectangle,5,-3,1,0,0,5,-3,1,0,0,1,30,190,116,1,,,,,,,,
,,,,,,,,,,,,,FF,,,,,,,,0.799,,,,,,,,,,,,,,,,,,,,,,61006befb060ce1e415e03df,61036f7611bc5a6b8b2646c0,2021-07-29_23h18.53.882,Simcolourproject_2stim_asymm_v5,2020.2.10,MacIntel,60,61025ae37ef11b136ea224fe,,,,,,,,,3471,-73,30,1,0,0,response7disk,,1,5,0,1,0,0,rectangle,5,0,1,0,0,5,0,1,0,0,1,31,191,27,1,,,,,,,,
,,,,,,,,,,,,,FF,,,,,,,,2.084,,,,,,,,,,,,,,,,,,,,,,61006befb060ce1e415e03df,61036f7611bc5a6b8b2646c0,2021-07-29_23h18.53.882,Simcolourproject_2stim_asymm_v5,2020.2.10,MacIntel,60,61025ae37ef11b136ea224fe,,,,,,,,,918,36,67,1,0,0,response1disk,,7,22,0,1,0,0,rectangle,22,0,1,0,0,22,0,1,0,0,1,32,192,111,1,,,,,,,,
,,,,,,,,,,,,,FF,,,,,,,,2.483,,,,,,,,,,,,,,,,,,,,,,61006befb060ce1e415e03df,61036f7611bc5a6b8b2646c0,2021-07-29_23h18.53.882,Simcolourproject_2stim_asymm_v5,2020.2.10,MacIntel,60,61025ae37ef11b136ea224fe,,,,,,,,,1572,-29,-72,1,0,0,response5disk,,3,14,0,1,0,0,rectangle,14,0,1,0,0,14,0,1,0,0,1,33,193,86,1,,,,,,,,
,,,,,,,,,,,,,FF,,,,,,,,0.767,,,,,,,,,,,,,,,,,,,,,,61006befb060ce1e415e03df,61036f7611bc5a6b8b2646c0,2021-07-29_23h18.53.882,Simcolourproject_2stim_asymm_v5,2020.2.10,MacIntel,60,61025ae37ef11b136ea224fe,,,,,,,,,805,-43,29,1,0,0,response7disk,,1,4,-4,1,0,0,rectangle,4,-4,1,0,0,4,-4,1,0,0,1,34,194,54,1,,,,,,,,
,,,,,,,,,,,,,FF,,,,,,,,4.135,,,,,,,,,,,,,,,,,,,,,,61006befb060ce1e415e03df,61036f7611bc5a6b8b2646c0,2021-07-29_23h18.53.882,Simcolourproject_2stim_asymm_v5,2020.2.10,MacIntel,60,61025ae37ef11b136ea224fe,,,,,,,,,1914,19,-50,1,0,0,response3disk,,4,3,8,1,0,0,rectangle,3,8,1,0,0,3,8,1,0,0,1,35,195,96,1,,,,,,,,
,,,,,,,,,,,,,FF,,,,,,,,0.65,,,,,,,,,,,,,,,,,,,,,,61006befb060ce1e415e03df,61036f7611bc5a6b8b2646c0,2021-07-29_23h18.53.882,Simcolourproject_2stim_asymm_v5,2020.2.10,MacIntel,60,61025ae37ef11b136ea224fe,,,,,,,,,4305,-26,59,1,0,0,response7disk,,0,-6,3,1,0,0,rectangle,-6,3,1,0,0,-6,3,1,0,0,1,36,196,123,1,,,,,,,,
,,,,,,,,,,,,,FF,,,,,,,,3.833,,,,,,,,,,,,,,,,,,,,,,61006befb060ce1e415e03df,61036f7611bc5a6b8b2646c0,2021-07-29_23h18.53.882,Simcolourproject_2stim_asymm_v5,2020.2.10,MacIntel,60,61025ae37ef11b136ea224fe,,,,,,,,,2559,32,-74,1,0,0,response3disk,,4,0,-4,1,0,0,rectangle,0,-4,1,0,0,0,-4,1,0,0,1,37,197,120,1,,,,,,,,
,,,,,,,,,,,,,FF,,,,,,,,0.733,,,,,,,,,,,,,,,,,,,,,,61006befb060ce1e415e03df,61036f7611bc5a6b8b2646c0,2021-07-29_23h18.53.882,Simcolourproject_2stim_asymm_v5,2020.2.10,MacIntel,60,61025ae37ef11b136ea224fe,,,,,,,,,1888,-60,29,1,0,0,response7disk,,1,-6,-2,1,0,0,rectangle,-6,-2,1,0,0,-6,-2,1,0,0,1,38,198,48,1,,,,,,,,
,,,,,,,,,,,,,FF,,,,,,,,1.033,,,,,,,,,,,,,,,,,,,,,,61006befb060ce1e415e03df,61036f7611bc5a6b8b2646c0,2021-07-29_23h18.53.882,Simcolourproject_2stim_asymm_v5,2020.2.10,MacIntel,60,61025ae37ef11b136ea224fe,,,,,,,,,2381,47,70,1,0,0,response1disk,,7,13,-5,1,0,0,rectangle,28,-68,1,0,0,4,7,1,0,0,1,39,199,113,1,,response3disk_3,TRUE,4,4,"[215,41,240,241,2,200,200,25,159,99,216,211,48,108,210,176,153,145,246,115]",1.483,rectangle
,,,,,,,,,,,,,FF,,,,,,,,1.4,,,,,,,,,,,,,,,,,,,,,,61006befb060ce1e415e03df,61036f7611bc5a6b8b2646c0,2021-07-29_23h18.53.882,Simcolourproject_2stim_asymm_v5,2020.2.10,MacIntel,60,61025ae37ef11b136ea224fe,,,,,,,,,1526,-60,-40,1,0,0,response5disk,,2,5,4,1,0,0,rectangle,5,4,1,0,0,5,4,1,0,0,1,40,200,63,1,,,,,,,,
,,,,,,,,,,,,,FF,,,,,,,,0.8,,,,,,,,,,,,,,,,,,,,,,61006befb060ce1e415e03df,61036f7611bc5a6b8b2646c0,2021-07-29_23h18.53.882,Simcolourproject_2stim_asymm_v5,2020.2.10,MacIntel,60,61025ae37ef11b136ea224fe,,,,,,,,,4364,-54,32,1,0,0,response7disk,,1,-13,-2,1,0,0,rectangle,-13,-2,1,0,0,-13,-2,1,0,0,1,41,201,39,1,,,,,,,,
,,,,,,,,,,,,,FF,,,,,,,,0.85,,,,,,,,,,,,,,,,,,,,,,61006befb060ce1e415e03df,61036f7611bc5a6b8b2646c0,2021-07-29_23h18.53.882,Simcolourproject_2stim_asymm_v5,2020.2.10,MacIntel,60,61025ae37ef11b136ea224fe,,,,,,,,,4176,30,67,1,0,0,response1disk,,7,7,-2,1,0,0,rectangle,7,-2,1,0,0,7,-2,1,0,0,1,42,202,0,1,,,,,,,,
,,,,,,,,,,,,,FF,,,,,,,,3.467,,,,,,,,,,,,,,,,,,,,,,61006befb060ce1e415e03df,61036f7611bc5a6b8b2646c0,2021-07-29_23h18.53.882,Simcolourproject_2stim_asymm_v5,2020.2.10,MacIntel,60,61025ae37ef11b136ea224fe,,,,,,,,,747,91,35,1,0,0,response1disk,,6,15,-4,1,0,0,rectangle,15,-4,1,0,0,15,-4,1,0,0,1,43,203,132,1,,,,,,,,
,,,,,,,,,,,,,FF,,,,,,,,0.85,,,,,,,,,,,,,,,,,,,,,,61006befb060ce1e415e03df,61036f7611bc5a6b8b2646c0,2021-07-29_23h18.53.882,Simcolourproject_2stim_asymm_v5,2020.2.10,MacIntel,60,61025ae37ef11b136ea224fe,,,,,,,,,359,79,27,1,0,0,response1disk,,6,25,1,1,0,0,rectangle,25,1,1,0,0,25,1,1,0,0,1,44,204,11,1,,,,,,,,
,,,,,,,,,,,,,FF,,,,,,,,2.016,,,,,,,,,,,,,,,,,,,,,,61006befb060ce1e415e03df,61036f7611bc5a6b8b2646c0,2021-07-29_23h18.53.882,Simcolourproject_2stim_asymm_v5,2020.2.10,MacIntel,60,61025ae37ef11b136ea224fe,,,,,,,,,58,57,-44,1,0,0,response3disk,,5,22,6,1,0,0,rectangle,22,6,1,0,0,22,6,1,0,0,1,45,205,108,1,,,,,,,,
,,,,,,,,,,,,,FF,,,,,,,,2.067,,,,,,,,,,,,,,,,,,,,,,61006befb060ce1e415e03df,61036f7611bc5a6b8b2646c0,2021-07-29_23h18.53.882,Simcolourproject_2stim_asymm_v5,2020.2.10,MacIntel,60,61025ae37ef11b136ea224fe,,,,,,,,,2428,-15,-62,1,0,0,response5disk,,3,14,4,1,0,0,rectangle,14,4,1,0,0,14,4,1,0,0,1,46,206,134,1,,,,,,,,
,,,,,,,,,,,,,FF,,,,,,,,0.716,,,,,,,,,,,,,,,,,,,,,,61006befb060ce1e415e03df,61036f7611bc5a6b8b2646c0,2021-07-29_23h18.53.882,Simcolourproject_2stim_asymm_v5,2020.2.10,MacIntel,60,61025ae37ef11b136ea224fe,,,,,,,,,4225,-72,34,1,0,0,response7disk,,1,-6,2,1,0,0,rectangle,-6,2,1,0,0,-6,2,1,0,0,1,47,207,24,1,,,,,,,,
,,,,,,,,,,,,,FF,,,,,,,,1.883,,,,,,,,,,,,,,,,,,,,,,61006befb060ce1e415e03df,61036f7611bc5a6b8b2646c0,2021-07-29_23h18.53.882,Simcolourproject_2stim_asymm_v5,2020.2.10,MacIntel,60,61025ae37ef11b136ea224fe,,,,,,,,,3178,30,57,1,0,0,response1disk,,7,12,-1,1,0,0,rectangle,12,-1,1,0,0,12,-1,1,0,0,1,48,208,71,1,,,,,,,,
,,,,,,,,,,,,,FF,,,,,,,,4.216,,,,,,,,,,,,,,,,,,,,,,61006befb060ce1e415e03df,61036f7611bc5a6b8b2646c0,2021-07-29_23h18.53.882,Simcolourproject_2stim_asymm_v5,2020.2.10,MacIntel,60,61025ae37ef11b136ea224fe,,,,,,,,,1017,57,27,1,0,0,response1disk,,6,25,4,1,0,0,rectangle,-52,-30,1,0,0,-2,4,1,0,0,1,49,209,135,1,,response5disk_3,TRUE,2,2,"[215,41,240,241,2,200,200,25,159,99,216,211,48,108,210,176,153,145,246,115]",1.35,rectangle
,,,,,,,,,,,,,FF,,,,,,,,1.634,,,,,,,,,,,,,,,,,,,,,,61006befb060ce1e415e03df,61036f7611bc5a6b8b2646c0,2021-07-29_23h18.53.882,Simcolourproject_2stim_asymm_v5,2020.2.10,MacIntel,60,61025ae37ef11b136ea224fe,,,,,,,,,3596,28,-63,1,0,0,response3disk,,4,9,6,1,0,0,rectangle,-50,-37,1,0,0,15,1,1,0,0,1,50,210,43,1,,response5disk_3,TRUE,2,2,"[215,41,240,241,2,200,200,25,159,99,216,211,48,108,210,176,153,145,246,115]",1.583,rectangle
,,,,,,,,,,,,,FF,,,,,,,,0.818,,,,,,,,,,,,,,,,,,,,,,61006befb060ce1e415e03df,61036f7611bc5a6b8b2646c0,2021-07-29_23h18.53.882,Simcolourproject_2stim_asymm_v5,2020.2.10,MacIntel,60,61025ae37ef11b136ea224fe,,,,,,,,,1484,32,76,1,0,0,response1disk,,7,-2,-11,1,0,0,rectangle,-2,-11,1,0,0,-2,-11,1,0,0,1,51,211,118,1,,,,,,,,
,,,,,,,,,,,,,FF,,,,,,,,1.2,,,,,,,,,,,,,,,,,,,,,,61006befb060ce1e415e03df,61036f7611bc5a6b8b2646c0,2021-07-29_23h18.53.882,Simcolourproject_2stim_asymm_v5,2020.2.10,MacIntel,60,61025ae37ef11b136ea224fe,,,,,,,,,1481,88,42,1,0,0,response1disk,,6,6,-1,1,0,0,rectangle,6,-1,1,0,0,6,-1,1,0,0,1,52,212,82,1,,,,,,,,
,,,,,,,,,,,,,FF,,,,,,,,2.282,,,,,,,,,,,,,,,,,,,,,,61006befb060ce1e415e03df,61036f7611bc5a6b8b2646c0,2021-07-29_23h18.53.882,Simcolourproject_2stim_asymm_v5,2020.2.10,MacIntel,60,61025ae37ef11b136ea224fe,,,,,,,,,1258,67,-40,1,0,0,response3disk,,5,-9,15,1,0,0,rectangle,-9,15,1,0,0,-9,15,1,0,0,1,53,213,25,1,,,,,,,,
,,,,,,,,,,,,,FF,,,,,,,,0.783,,,,,,,,,,,,,,,,,,,,,,61006befb060ce1e415e03df,61036f7611bc5a6b8b2646c0,2021-07-29_23h18.53.882,Simcolourproject_2stim_asymm_v5,2020.2.10,MacIntel,60,61025ae37ef11b136ea224fe,,,,,,,,,3672,-47,32,1,0,0,response7disk,,1,-20,2,1,0,0,rectangle,33,-80,1,0,0,15,-8,1,0,0,1,54,214,114,1,,response3disk_3,TRUE,4,4,"[215,41,240,241,2,200,200,25,159,99,216,211,48,108,210,176,153,145,246,115]",1.433,rectangle
,,,,,,,,,,,,,FF,,,,,,,,3.283,,,,,,,,,,,,,,,,,,,,,,61006befb060ce1e415e03df,61036f7611bc5a6b8b2646c0,2021-07-29_23h18.53.882,Simcolourproject_2stim_asymm_v5,2020.2.10,MacIntel,60,61025ae37ef11b136ea224fe,,,,,,,,,1952,-32,-65,1,0,0,response5disk,,3,15,-3,1,0,0,rectangle,-51,25,1,0,0,-17,-7,1,0,0,1,55,215,148,1,,response7disk_3,TRUE,1,1,"[215,41,240,241,2,200,200,25,159,99,216,211,48,108,210,176,153,145,246,115]",1.299,rectangle
,,,,,,,,,,,,,FF,,,,,,,,1.283,,,,,,,,,,,,,,,,,,,,,,61006befb060ce1e415e03df,61036f7611bc5a6b8b2646c0,2021-07-29_23h18.53.882,Simcolourproject_2stim_asymm_v5,2020.2.10,MacIntel,60,61025ae37ef11b136ea224fe,,,,,,,,,2197,45,67,1,0,0,response1disk,,7,-4,-2,1,0,0,rectangle,-4,-2,1,0,0,-4,-2,1,0,0,1,56,216,90,1,,,,,,,,
,,,,,,,,,,,,,FF,,,,,,,,1.115,,,,,,,,,,,,,,,,,,,,,,61006befb060ce1e415e03df,61036f7611bc5a6b8b2646c0,2021-07-29_23h18.53.882,Simcolourproject_2stim_asymm_v5,2020.2.10,MacIntel,60,61025ae37ef11b136ea224fe,,,,,,,,,3508,-63,-27,1,0,0,response5disk,,2,-22,-9,1,0,0,rectangle,-22,-9,1,0,0,-22,-9,1,0,0,1,57,217,91,1,,,,,,,,
,,,,,,,,,,,,,FF,,,,,,,,4.315,,,,,,,,,,,,,,,,,,,,,,61006befb060ce1e415e03df,61036f7611bc5a6b8b2646c0,2021-07-29_23h18.53.882,Simcolourproject_2stim_asymm_v5,2020.2.10,MacIntel,60,61025ae37ef11b136ea224fe,,,,,,,,,204,74,-39,1,0,0,response3disk,,5,16,-11,1,0,0,rectangle,16,-11,1,0,0,16,-11,1,0,0,1,58,218,140,1,,,,,,,,
,,,,,,,,,,,,,FF,,,,,,,,2.484,,,,,,,,,,,,,,,,,,,,,,61006befb060ce1e415e03df,61036f7611bc5a6b8b2646c0,2021-07-29_23h18.53.882,Simcolourproject_2stim_asymm_v5,2020.2.10,MacIntel,60,61025ae37ef11b136ea224fe,,,,,,,,,2927,84,39,1,0,0,response1disk,,6,30,0,1,0,0,rectangle,30,0,1,0,0,30,0,1,0,0,1,59,219,42,1,,,,,,,,
,,,,,,,,,,,,,FF,,,,,,,,1,,,,,,,,,,,,,,,,,,,,,,61006befb060ce1e415e03df,61036f7611bc5a6b8b2646c0,2021-07-29_23h18.53.882,Simcolourproject_2stim_asymm_v5,2020.2.10,MacIntel,60,61025ae37ef11b136ea224fe,,,,,,,,,443,-80,20,1,0,0,response7disk,,1,24,-11,1,0,0,rectangle,24,-11,1,0,0,24,-11,1,0,0,1,60,220,105,1,,,,,,,,
,,,,,,,,,,,,,FF,,,,,,,,2.634,,,,,,,,,,,,,,,,,,,,,,61006befb060ce1e415e03df,61036f7611bc5a6b8b2646c0,2021-07-29_23h18.53.882,Simcolourproject_2stim_asymm_v5,2020.2.10,MacIntel,60,61025ae37ef11b136ea224fe,,,,,,,,,1062,-38,-90,1,0,0,response5disk,,3,9,2,1,0,0,rectangle,9,2,1,0,0,9,2,1,0,0,1,61,221,12,1,,,,,,,,
,,,,,,,,,,,,,FF,,,,,,,,1.432,,,,,,,,,,,,,,,,,,,,,,61006befb060ce1e415e03df,61036f7611bc5a6b8b2646c0,2021-07-29_23h18.53.882,Simcolourproject_2stim_asymm_v5,2020.2.10,MacIntel,60,61025ae37ef11b136ea224fe,,,,,,,,,3353,61,-37,1,0,0,response3disk,,5,-1,-3,1,0,0,rectangle,-1,-3,1,0,0,-1,-3,1,0,0,1,62,222,154,1,,,,,,,,
,,,,,,,,,,,,,FF,,,,,,,,5.784,,,,,,,,,,,,,,,,,,,,,,61006befb060ce1e415e03df,61036f7611bc5a6b8b2646c0,2021-07-29_23h18.53.882,Simcolourproject_2stim_asymm_v5,2020.2.10,MacIntel,60,61025ae37ef11b136ea224fe,,,,,,,,,2501,93,29,1,0,0,response1disk,,6,16,-10,1,0,0,rectangle,16,-10,1,0,0,16,-10,1,0,0,1,63,223,95,1,,,,,,,,
,,,,,,,,,,,,,FF,,,,,,,,0.899,,,,,,,,,,,,,,,,,,,,,,61006befb060ce1e415e03df,61036f7611bc5a6b8b2646c0,2021-07-29_23h18.53.882,Simcolourproject_2stim_asymm_v5,2020.2.10,MacIntel,60,61025ae37ef11b136ea224fe,,,,,,,,,3740,-52,-34,1,0,0,response5disk,,2,4,0,1,0,0,rectangle,4,0,1,0,0,4,0,1,0,0,1,64,224,101,1,,,,,,,,
,,,,,,,,,,,,,FF,,,,,,,,1.15,,,,,,,,,,,,,,,,,,,,,,61006befb060ce1e415e03df,61036f7611bc5a6b8b2646c0,2021-07-29_23h18.53.882,Simcolourproject_2stim_asymm_v5,2020.2.10,MacIntel,60,61025ae37ef11b136ea224fe,,,,,,,,,752,57,27,1,0,0,response1disk,,6,2,-10,1,0,0,rectangle,2,-10,1,0,0,2,-10,1,0,0,1,65,225,67,1,,,,,,,,
,,,,,,,,,,,,,FF,,,,,,,,1.517,,,,,,,,,,,,,,,,,,,,,,61006befb060ce1e415e03df,61036f7611bc5a6b8b2646c0,2021-07-29_23h18.53.882,Simcolourproject_2stim_asymm_v5,2020.2.10,MacIntel,60,61025ae37ef11b136ea224fe,,,,,,,,,2866,72,30,1,0,0,response1disk,,6,17,2,1,0,0,rectangle,17,2,1,0,0,17,2,1,0,0,1,66,226,7,1,,,,,,,,
,,,,,,,,,,,,,FF,,,,,,,,4.867,,,,,,,,,,,,,,,,,,,,,,61006befb060ce1e415e03df,61036f7611bc5a6b8b2646c0,2021-07-29_23h18.53.882,Simcolourproject_2stim_asymm_v5,2020.2.10,MacIntel,60,61025ae37ef11b136ea224fe,,,,,,,,,503,39,-64,1,0,0,response3disk,,4,2,-5,1,0,0,rectangle,2,-5,1,0,0,2,-5,1,0,0,1,67,227,158,1,,,,,,,,
,,,,,,,,,,,,,FF,,,,,,,,1.783,,,,,,,,,,,,,,,,,,,,,,61006befb060ce1e415e03df,61036f7611bc5a6b8b2646c0,2021-07-29_23h18.53.882,Simcolourproject_2stim_asymm_v5,2020.2.10,MacIntel,60,61025ae37ef11b136ea224fe,,,,,,,,,1460,-80,32,1,0,0,response7disk,,1,-6,0,1,0,0,rectangle,-6,0,1,0,0,-6,0,1,0,0,1,68,228,50,1,,,,,,,,
,,,,,,,,,,,,,FF,,,,,,,,2,,,,,,,,,,,,,,,,,,,,,,61006befb060ce1e415e03df,61036f7611bc5a6b8b2646c0,2021-07-29_23h18.53.882,Simcolourproject_2stim_asymm_v5,2020.2.10,MacIntel,60,61025ae37ef11b136ea224fe,,,,,,,,,3745,-69,-38,1,0,0,response5disk,,2,16,-1,1,0,0,rectangle,16,-1,1,0,0,16,-1,1,0,0,1,69,229,84,1,,,,,,,,
,,,,,,,,,,,,,FF,,,,,,,,3.884,,,,,,,,,,,,,,,,,,,,,,61006befb060ce1e415e03df,61036f7611bc5a6b8b2646c0,2021-07-29_23h18.53.882,Simcolourproject_2stim_asymm_v5,2020.2.10,MacIntel,60,61025ae37ef11b136ea224fe,,,,,,,,,2683,61,-29,1,0,0,response3disk,,5,22,-3,1,0,0,rectangle,22,-3,1,0,0,22,-3,1,0,0,1,70,230,117,1,,,,,,,,
,,,,,,,,,,,,,FF,,,,,,,,1.318,,,,,,,,,,,,,,,,,,,,,,61006befb060ce1e415e03df,61036f7611bc5a6b8b2646c0,2021-07-29_23h18.53.882,Simcolourproject_2stim_asymm_v5,2020.2.10,MacIntel,60,61025ae37ef11b136ea224fe,,,,,,,,,3158,-67,-31,1,0,0,response5disk,,2,-15,-5,1,0,0,rectangle,-15,-5,1,0,0,-15,-5,1,0,0,1,71,231,103,1,,,,,,,,
,,,,,,,,,,,,,FF,,,,,,,,0.75,,,,,,,,,,,,,,,,,,,,,,61006befb060ce1e415e03df,61036f7611bc5a6b8b2646c0,2021-07-29_23h18.53.882,Simcolourproject_2stim_asymm_v5,2020.2.10,MacIntel,60,61025ae37ef11b136ea224fe,,,,,,,,,3391,-72,37,1,0,0,response7disk,,1,-4,5,1,0,0,rectangle,-4,5,1,0,0,-4,5,1,0,0,1,72,232,98,1,,,,,,,,
,,,,,,,,,,,,,FF,,,,,,,,0.683,,,,,,,,,,,,,,,,,,,,,,61006befb060ce1e415e03df,61036f7611bc5a6b8b2646c0,2021-07-29_23h18.53.882,Simcolourproject_2stim_asymm_v5,2020.2.10,MacIntel,60,61025ae37ef11b136ea224fe,,,,,,,,,2512,40,61,1,0,0,response1disk,,7,5,-6,1,0,0,rectangle,5,-6,1,0,0,5,-6,1,0,0,1,73,233,85,1,,,,,,,,
,,,,,,,,,,,,,FF,,,,,,,,1.801,,,,,,,,,,,,,,,,,,,,,,61006befb060ce1e415e03df,61036f7611bc5a6b8b2646c0,2021-07-29_23h18.53.882,Simcolourproject_2stim_asymm_v5,2020.2.10,MacIntel,60,61025ae37ef11b136ea224fe,,,,,,,,,690,39,-65,1,0,0,response3disk,,4,18,-3,1,0,0,rectangle,18,-3,1,0,0,18,-3,1,0,0,1,74,234,106,1,,,,,,,,
,,,,,,,,,,,,,FF,,,,,,,,1.45,,,,,,,,,,,,,,,,,,,,,,61006befb060ce1e415e03df,61036f7611bc5a6b8b2646c0,2021-07-29_23h18.53.882,Simcolourproject_2stim_asymm_v5,2020.2.10,MacIntel,60,61025ae37ef11b136ea224fe,,,,,,,,,2800,29,-66,1,0,0,response3disk,,4,8,0,1,0,0,rectangle,8,0,1,0,0,8,0,1,0,0,1,75,235,159,1,,,,,,,,
,,,,,,,,,,,,,FF,,,,,,,,1.75,,,,,,,,,,,,,,,,,,,,,,61006befb060ce1e415e03df,61036f7611bc5a6b8b2646c0,2021-07-29_23h18.53.882,Simcolourproject_2stim_asymm_v5,2020.2.10,MacIntel,60,61025ae37ef11b136ea224fe,,,,,,,,,3222,45,62,1,0,0,response1disk,,7,-3,-12,1,0,0,rectangle,-3,-12,1,0,0,-3,-12,1,0,0,1,76,236,87,1,,,,,,,,
,,,,,,,,,,,,,FF,,,,,,,,0.682,,,,,,,,,,,,,,,,,,,,,,61006befb060ce1e415e03df,61036f7611bc5a6b8b2646c0,2021-07-29_23h18.53.882,Simcolourproject_2stim_asymm_v5,2020.2.10,MacIntel,60,61025ae37ef11b136ea224fe,,,,,,,,,317,44,79,1,0,0,response1disk,,7,20,1,1,0,0,rectangle,20,1,1,0,0,20,1,1,0,0,1,77,237,2,1,,,,,,,,
,,,,,,,,,,,,,FF,,,,,,,,1.55,,,,,,,,,,,,,,,,,,,,,,61006befb060ce1e415e03df,61036f7611bc5a6b8b2646c0,2021-07-29_23h18.53.882,Simcolourproject_2stim_asymm_v5,2020.2.10,MacIntel,60,61025ae37ef11b136ea224fe,,,,,,,,,3928,67,-30,1,0,0,response3disk,,5,1,-8,1,0,0,rectangle,1,-8,1,0,0,1,-8,1,0,0,1,78,238,146,1,,,,,,,,
,,,,,,,,,,,,,FF,,,,,,,,1.517,,,,,,,,,,,,,,,,,,,,,,61006befb060ce1e415e03df,61036f7611bc5a6b8b2646c0,2021-07-29_23h18.53.882,Simcolourproject_2stim_asymm_v5,2020.2.10,MacIntel,60,61025ae37ef11b136ea224fe,,,,,,,,,773,77,-51,1,0,0,response3disk,,5,13,-2,1,0,0,rectangle,26,69,1,0,0,5,-3,1,0,0,1,79,239,6,1,,response1disk_3,TRUE,7,7,"[215,41,240,241,2,200,200,25,159,99,216,211,48,108,210,176,153,145,246,115]",1.581,rectangle
,,,,,,,,,,,,,FF,,,,,,,,1.634,,,,,,,,,,,,,,,,,,,,,,61006befb060ce1e415e03df,61036f7611bc5a6b8b2646c0,2021-07-29_23h18.53.882,Simcolourproject_2stim_asymm_v5,2020.2.10,MacIntel,60,61025ae37ef11b136ea224fe,,,,,,,,,1671,-44,-28,1,0,0,response5disk,,2,-12,-5,1,0,0,rectangle,33,69,1,0,0,8,-3,1,0,0,1,80,240,1,1,,response1disk_3,TRUE,7,7,"[215,41,240,241,2,200,200,25,159,99,216,211,48,108,210,176,153,145,246,115]",1.116,rectangle
,,,,,,,,,,,,,FF,,,,,,,,1.25,,,,,,,,,,,,,,,,,,,,,,61006befb060ce1e415e03df,61036f7611bc5a6b8b2646c0,2021-07-29_23h18.53.882,Simcolourproject_2stim_asymm_v5,2020.2.10,MacIntel,60,61025ae37ef11b136ea224fe,,,,,,,,,67,23,-54,1,0,0,response3disk,,4,10,-3,1,0,0,rectangle,10,-3,1,0,0,10,-3,1,0,0,1,81,241,122,1,,,,,,,,
,,,,,,,,,,,,,FF,,,,,,,,0.888,,,,,,,,,,,,,,,,,,,,,,61006befb060ce1e415e03df,61036f7611bc5a6b8b2646c0,2021-07-29_23h18.53.882,Simcolourproject_2stim_asymm_v5,2020.2.10,MacIntel,60,61025ae37ef11b136ea224fe,,,,,,,,,2065,39,58,1,0,0,response1disk,,7,13,5,1,0,0,rectangle,13,5,1,0,0,13,5,1,0,0,1,82,242,73,1,,,,,,,,
,,,,,,,,,,,,,FF,,,,,,,,0.983,,,,,,,,,,,,,,,,,,,,,,61006befb060ce1e415e03df,61036f7611bc5a6b8b2646c0,2021-07-29_23h18.53.882,Simcolourproject_2stim_asymm_v5,2020.2.10,MacIntel,60,61025ae37ef11b136ea224fe,,,,,,,,,525,-54,-33,1,0,0,response5disk,,2,1,17,1,0,0,rectangle,1,17,1,0,0,1,17,1,0,0,1,83,243,49,1,,,,,,,,
,,,,,,,,,,,,,FF,,,,,,,,7.667,,,,,,,,,,,,,,,,,,,,,,61006befb060ce1e415e03df,61036f7611bc5a6b8b2646c0,2021-07-29_23h18.53.882,Simcolourproject_2stim_asymm_v5,2020.2.10,MacIntel,60,61025ae37ef11b136ea224fe,,,,,,,,,148,83,-30,1,0,0,response3disk,,5,-14,-3,1,0,0,rectangle,-14,-3,1,0,0,-14,-3,1,0,0,1,84,244,17,1,,,,,,,,
,,,,,,,,,,,,,FF,,,,,,,,2.283,,,,,,,,,,,,,,,,,,,,,,61006befb060ce1e415e03df,61036f7611bc5a6b8b2646c0,2021-07-29_23h18.53.882,Simcolourproject_2stim_asymm_v5,2020.2.10,MacIntel,60,61025ae37ef11b136ea224fe,,,,,,,,,930,38,49,1,0,0,response1disk,,7,15,-2,1,0,0,rectangle,-49,-31,1,0,0,6,-1,1,0,0,1,85,245,64,1,,response5disk_3,TRUE,2,2,"[215,41,240,241,2,200,200,25,159,99,216,211,48,108,210,176,153,145,246,115]",1.349,rectangle
,,,,,,,,,,,,,FF,,,,,,,,1.3,,,,,,,,,,,,,,,,,,,,,,61006befb060ce1e415e03df,61036f7611bc5a6b8b2646c0,2021-07-29_23h18.53.882,Simcolourproject_2stim_asymm_v5,2020.2.10,MacIntel,60,61025ae37ef11b136ea224fe,,,,,,,,,3317,69,-25,1,0,0,response3disk,,5,16,6,1,0,0,rectangle,16,6,1,0,0,16,6,1,0,0,1,86,246,74,1,,,,,,,,
,,,,,,,,,,,,,FF,,,,,,,,1.95,,,,,,,,,,,,,,,,,,,,,,61006befb060ce1e415e03df,61036f7611bc5a6b8b2646c0,2021-07-29_23h18.53.882,Simcolourproject_2stim_asymm_v5,2020.2.10,MacIntel,60,61025ae37ef11b136ea224fe,,,,,,,,,3571,50,71,1,0,0,response1disk,,7,7,-1,1,0,0,rectangle,7,-1,1,0,0,7,-1,1,0,0,1,87,247,70,1,,,,,,,,
,,,,,,,,,,,,,FF,,,,,,,,1.7,,,,,,,,,,,,,,,,,,,,,,61006befb060ce1e415e03df,61036f7611bc5a6b8b2646c0,2021-07-29_23h18.53.882,Simcolourproject_2stim_asymm_v5,2020.2.10,MacIntel,60,61025ae37ef11b136ea224fe,,,,,,,,,2398,79,-30,1,0,0,response3disk,,5,-1,-5,1,0,0,rectangle,-1,-5,1,0,0,-1,-5,1,0,0,1,88,248,97,1,,,,,,,,
,,,,,,,,,,,,,FF,,,,,,,,1.217,,,,,,,,,,,,,,,,,,,,,,61006befb060ce1e415e03df,61036f7611bc5a6b8b2646c0,2021-07-29_23h18.53.882,Simcolourproject_2stim_asymm_v5,2020.2.10,MacIntel,60,61025ae37ef11b136ea224fe,,,,,,,,,2795,36,-56,1,0,0,response3disk,,4,30,5,1,0,0,rectangle,30,5,1,0,0,30,5,1,0,0,1,89,249,152,1,,,,,,,,
,,,,,,,,,,,,,FF,,,,,,,,1.266,,,,,,,,,,,,,,,,,,,,,,61006befb060ce1e415e03df,61036f7611bc5a6b8b2646c0,2021-07-29_23h18.53.882,Simcolourproject_2stim_asymm_v5,2020.2.10,MacIntel,60,61025ae37ef11b136ea224fe,,,,,,,,,2744,-34,-61,1,0,0,response5disk,,3,6,-1,1,0,0,rectangle,6,-1,1,0,0,6,-1,1,0,0,1,90,250,121,1,,,,,,,,
,,,,,,,,,,,,,FF,,,,,,,,0.9,,,,,,,,,,,,,,,,,,,,,,61006befb060ce1e415e03df,61036f7611bc5a6b8b2646c0,2021-07-29_23h18.53.882,Simcolourproject_2stim_asymm_v5,2020.2.10,MacIntel,60,61025ae37ef11b136ea224fe,,,,,,,,,3773,-63,-34,1,0,0,response5disk,,2,-6,3,1,0,0,rectangle,-6,3,1,0,0,-6,3,1,0,0,1,91,251,19,1,,,,,,,,
,,,,,,,,,,,,,FF,,,,,,,,0.8,,,,,,,,,,,,,,,,,,,,,,61006befb060ce1e415e03df,61036f7611bc5a6b8b2646c0,2021-07-29_23h18.53.882,Simcolourproject_2stim_asymm_v5,2020.2.10,MacIntel,60,61025ae37ef11b136ea224fe,,,,,,,,,1634,40,80,1,0,0,response1disk,,7,14,0,1,0,0,rectangle,14,0,1,0,0,14,0,1,0,0,1,92,252,156,1,,,,,,,,
,,,,,,,,,,,,,FF,,,,,,,,1.933,,,,,,,,,,,,,,,,,,,,,,61006befb060ce1e415e03df,61036f7611bc5a6b8b2646c0,2021-07-29_23h18.53.882,Simcolourproject_2stim_asymm_v5,2020.2.10,MacIntel,60,61025ae37ef11b136ea224fe,,,,,,,,,965,32,-52,1,0,0,response3disk,,4,13,-2,1,0,0,rectangle,13,-2,1,0,0,13,-2,1,0,0,1,93,253,144,1,,,,,,,,
,,,,,,,,,,,,,FF,,,,,,,,1.016,,,,,,,,,,,,,,,,,,,,,,61006befb060ce1e415e03df,61036f7611bc5a6b8b2646c0,2021-07-29_23h18.53.882,Simcolourproject_2stim_asymm_v5,2020.2.10,MacIntel,60,61025ae37ef11b136ea224fe,,,,,,,,,3102,-88,41,1,0,0,response7disk,,1,-17,8,1,0,0,rectangle,-17,8,1,0,0,-17,8,1,0,0,1,94,254,13,1,,,,,,,,
,,,,,,,,,,,,,FF,,,,,,,,3.034,,,,,,,,,,,,,,,,,,,,,,61006befb060ce1e415e03df,61036f7611bc5a6b8b2646c0,2021-07-29_23h18.53.882,Simcolourproject_2stim_asymm_v5,2020.2.10,MacIntel,60,61025ae37ef11b136ea224fe,,,,,,,,,4064,31,-65,1,0,0,response3disk,,4,5,-7,1,0,0,rectangle,5,-7,1,0,0,5,-7,1,0,0,1,95,255,94,1,,,,,,,,
,,,,,,,,,,,,,FF,,,,,,,,0.934,,,,,,,,,,,,,,,,,,,,,,61006befb060ce1e415e03df,61036f7611bc5a6b8b2646c0,2021-07-29_23h18.53.882,Simcolourproject_2stim_asymm_v5,2020.2.10,MacIntel,60,61025ae37ef11b136ea224fe,,,,,,,,,3403,-37,-51,1,0,0,response5disk,,3,-1,-7,1,0,0,rectangle,-1,-7,1,0,0,-1,-7,1,0,0,1,96,256,59,1,,,,,,,,
,,,,,,,,,,,,,FF,,,,,,,,0.85,,,,,,,,,,,,,,,,,,,,,,61006befb060ce1e415e03df,61036f7611bc5a6b8b2646c0,2021-07-29_23h18.53.882,Simcolourproject_2stim_asymm_v5,2020.2.10,MacIntel,60,61025ae37ef11b136ea224fe,,,,,,,,,3089,-68,37,1,0,0,response7disk,,1,-10,-5,1,0,0,rectangle,-10,-5,1,0,0,-10,-5,1,0,0,1,97,257,109,1,,,,,,,,
,,,,,,,,,,,,,FF,,,,,,,,1.367,,,,,,,,,,,,,,,,,,,,,,61006befb060ce1e415e03df,61036f7611bc5a6b8b2646c0,2021-07-29_23h18.53.882,Simcolourproject_2stim_asymm_v5,2020.2.10,MacIntel,60,61025ae37ef11b136ea224fe,,,,,,,,,234,79,49,1,0,0,response1disk,,6,-18,-6,1,0,0,rectangle,-18,-6,1,0,0,-18,-6,1,0,0,1,98,258,129,1,,,,,,,,
,,,,,,,,,,,,,FF,,,,,,,,2.134,,,,,,,,,,,,,,,,,,,,,,61006befb060ce1e415e03df,61036f7611bc5a6b8b2646c0,2021-07-29_23h18.53.882,Simcolourproject_2stim_asymm_v5,2020.2.10,MacIntel,60,61025ae37ef11b136ea224fe,,,,,,,,,1328,61,-44,1,0,0,response3disk,,5,-3,-1,1,0,0,rectangle,-3,-1,1,0,0,-3,-1,1,0,0,1,99,259,80,1,,,,,,,,
,,,,,,,,,,,,,FF,,,,,,,,3.867,,,,,,,,,,,,,,,,,,,,,,61006befb060ce1e415e03df,61036f7611bc5a6b8b2646c0,2021-07-29_23h18.53.882,Simcolourproject_2stim_asymm_v5,2020.2.10,MacIntel,60,61025ae37ef11b136ea224fe,,,,,,,,,3215,83,-29,1,0,0,response3disk,,5,22,1,1,0,0,rectangle,22,1,1,0,0,22,1,1,0,0,1,100,260,21,1,,,,,,,,
,,,,,,,,,,,,,FF,,,,,,,,2.316,,,,,,,,,,,,,,,,,,,,,,61006befb060ce1e415e03df,61036f7611bc5a6b8b2646c0,2021-07-29_23h18.53.882,Simcolourproject_2stim_asymm_v5,2020.2.10,MacIntel,60,61025ae37ef11b136ea224fe,,,,,,,,,2518,35,-54,1,0,0,response3disk,,4,24,-11,1,0,0,rectangle,24,-11,1,0,0,24,-11,1,0,0,1,101,261,38,1,,,,,,,,
,,,,,,,,,,,,,FF,,,,,,,,1.934,,,,,,,,,,,,,,,,,,,,,,61006befb060ce1e415e03df,61036f7611bc5a6b8b2646c0,2021-07-29_23h18.53.882,Simcolourproject_2stim_asymm_v5,2020.2.10,MacIntel,60,61025ae37ef11b136ea224fe,,,,,,,,,3231,30,55,1,0,0,response1disk,,7,13,0,1,0,0,rectangle,13,0,1,0,0,13,0,1,0,0,1,102,262,3,1,,,,,,,,
,,,,,,,,,,,,,FF,,,,,,,,1.067,,,,,,,,,,,,,,,,,,,,,,61006befb060ce1e415e03df,61036f7611bc5a6b8b2646c0,2021-07-29_23h18.53.882,Simcolourproject_2stim_asymm_v5,2020.2.10,MacIntel,60,61025ae37ef11b136ea224fe,,,,,,,,,1667,-27,-56,1,0,0,response5disk,,3,-11,0,1,0,0,rectangle,-11,0,1,0,0,-11,0,1,0,0,1,103,263,155,1,,,,,,,,
,,,,,,,,,,,,,FF,,,,,,,,3,,,,,,,,,,,,,,,,,,,,,,61006befb060ce1e415e03df,61036f7611bc5a6b8b2646c0,2021-07-29_23h18.53.882,Simcolourproject_2stim_asymm_v5,2020.2.10,MacIntel,60,61025ae37ef11b136ea224fe,,,,,,,,,2082,79,-45,1,0,0,response3disk,,5,2,-7,1,0,0,rectangle,2,-7,1,0,0,2,-7,1,0,0,1,104,264,61,1,,,,,,,,
,,,,,,,,,,,,,FF,,,,,,,,0.767,,,,,,,,,,,,,,,,,,,,,,61006befb060ce1e415e03df,61036f7611bc5a6b8b2646c0,2021-07-29_23h18.53.882,Simcolourproject_2stim_asymm_v5,2020.2.10,MacIntel,60,61025ae37ef11b136ea224fe,,,,,,,,,3096,-25,65,1,0,0,response7disk,,0,16,-1,1,0,0,rectangle,16,-1,1,0,0,16,-1,1,0,0,1,105,265,29,1,,,,,,,,
,,,,,,,,,,,,,FF,,,,,,,,5.051,,,,,,,,,,,,,,,,,,,,,,61006befb060ce1e415e03df,61036f7611bc5a6b8b2646c0,2021-07-29_23h18.53.882,Simcolourproject_2stim_asymm_v5,2020.2.10,MacIntel,60,61025ae37ef11b136ea224fe,,,,,,,,,744,64,-33,1,0,0,response3disk,,5,26,-4,1,0,0,rectangle,26,-4,1,0,0,26,-4,1,0,0,1,106,266,65,1,,,,,,,,
,,,,,,,,,,,,,FF,,,,,,,,0.9,,,,,,,,,,,,,,,,,,,,,,61006befb060ce1e415e03df,61036f7611bc5a6b8b2646c0,2021-07-29_23h18.53.882,Simcolourproject_2stim_asymm_v5,2020.2.10,MacIntel,60,61025ae37ef11b136ea224fe,,,,,,,,,4024,-68,25,1,0,0,response7disk,,1,16,-2,1,0,0,rectangle,16,-2,1,0,0,16,-2,1,0,0,1,107,267,76,1,,,,,,,,
,,,,,,,,,,,,,FF,,,,,,,,4.55,,,,,,,,,,,,,,,,,,,,,,61006befb060ce1e415e03df,61036f7611bc5a6b8b2646c0,2021-07-29_23h18.53.882,Simcolourproject_2stim_asymm_v5,2020.2.10,MacIntel,60,61025ae37ef11b136ea224fe,,,,,,,,,1620,87,-29,1,0,0,response3disk,,5,22,-10,1,0,0,rectangle,22,-10,1,0,0,22,-10,1,0,0,1,108,268,62,1,,,,,,,,
,,,,,,,,,,,,,FF,,,,,,,,1.966,,,,,,,,,,,,,,,,,,,,,,61006befb060ce1e415e03df,61036f7611bc5a6b8b2646c0,2021-07-29_23h18.53.882,Simcolourproject_2stim_asymm_v5,2020.2.10,MacIntel,60,61025ae37ef11b136ea224fe,,,,,,,,,2802,61,-30,1,0,0,response3disk,,5,31,-10,1,0,0,rectangle,31,-10,1,0,0,31,-10,1,0,0,1,109,269,9,1,,,,,,,,
,,,,,,,,,,,,,FF,,,,,,,,1.333,,,,,,,,,,,,,,,,,,,,,,61006befb060ce1e415e03df,61036f7611bc5a6b8b2646c0,2021-07-29_23h18.53.882,Simcolourproject_2stim_asymm_v5,2020.2.10,MacIntel,60,61025ae37ef11b136ea224fe,,,,,,,,,1828,-60,39,1,0,0,response7disk,,1,-3,-7,1,0,0,rectangle,-3,-7,1,0,0,-3,-7,1,0,0,1,110,270,127,1,,,,,,,,
,,,,,,,,,,,,,FF,,,,,,,,0.683,,,,,,,,,,,,,,,,,,,,,,61006befb060ce1e415e03df,61036f7611bc5a6b8b2646c0,2021-07-29_23h18.53.882,Simcolourproject_2stim_asymm_v5,2020.2.10,MacIntel,60,61025ae37ef11b136ea224fe,,,,,,,,,1193,-59,29,1,0,0,response7disk,,1,-14,-1,1,0,0,rectangle,-14,-1,1,0,0,-14,-1,1,0,0,1,111,271,100,1,,,,,,,,
,,,,,,,,,,,,,FF,,,,,,,,0.716,,,,,,,,,,,,,,,,,,,,,,61006befb060ce1e415e03df,61036f7611bc5a6b8b2646c0,2021-07-29_23h18.53.882,Simcolourproject_2stim_asymm_v5,2020.2.10,MacIntel,60,61025ae37ef11b136ea224fe,,,,,,,,,3396,-51,31,1,0,0,response7disk,,1,6,-5,1,0,0,rectangle,6,-5,1,0,0,6,-5,1,0,0,1,112,272,47,1,,,,,,,,
,,,,,,,,,,,,,FF,,,,,,,,1.433,,,,,,,,,,,,,,,,,,,,,,61006befb060ce1e415e03df,61036f7611bc5a6b8b2646c0,2021-07-29_23h18.53.882,Simcolourproject_2stim_asymm_v5,2020.2.10,MacIntel,60,61025ae37ef11b136ea224fe,,,,,,,,,2594,85,-33,1,0,0,response3disk,,5,20,1,1,0,0,rectangle,20,1,1,0,0,20,1,1,0,0,1,113,273,119,1,,,,,,,,
,,,,,,,,,,,,,FF,,,,,,,,1.383,,,,,,,,,,,,,,,,,,,,,,61006befb060ce1e415e03df,61036f7611bc5a6b8b2646c0,2021-07-29_23h18.53.882,Simcolourproject_2stim_asymm_v5,2020.2.10,MacIntel,60,61025ae37ef11b136ea224fe,,,,,,,,,1246,45,65,1,0,0,response1disk,,7,29,10,1,0,0,rectangle,29,10,1,0,0,29,10,1,0,0,1,114,274,26,1,,,,,,,,
,,,,,,,,,,,,,FF,,,,,,,,0.666,,,,,,,,,,,,,,,,,,,,,,61006befb060ce1e415e03df,61036f7611bc5a6b8b2646c0,2021-07-29_23h18.53.882,Simcolourproject_2stim_asymm_v5,2020.2.10,MacIntel,60,61025ae37ef11b136ea224fe,,,,,,,,,4076,-95,28,1,0,0,response7disk,,1,-3,0,1,0,0,rectangle,-3,0,1,0,0,-3,0,1,0,0,1,115,275,32,1,,,,,,,,
,,,,,,,,,,,,,FF,,,,,,,,2.766,,,,,,,,,,,,,,,,,,,,,,61006befb060ce1e415e03df,61036f7611bc5a6b8b2646c0,2021-07-29_23h18.53.882,Simcolourproject_2stim_asymm_v5,2020.2.10,MacIntel,60,61025ae37ef11b136ea224fe,,,,,,,,,2490,41,-60,1,0,0,response3disk,,4,30,-3,1,0,0,rectangle,30,-3,1,0,0,30,-3,1,0,0,1,116,276,57,1,,,,,,,,
,,,,,,,,,,,,,FF,,,,,,,,1.267,,,,,,,,,,,,,,,,,,,,,,61006befb060ce1e415e03df,61036f7611bc5a6b8b2646c0,2021-07-29_23h18.53.882,Simcolourproject_2stim_asymm_v5,2020.2.10,MacIntel,60,61025ae37ef11b136ea224fe,,,,,,,,,1271,39,-55,1,0,0,response3disk,,4,20,-8,1,0,0,rectangle,20,-8,1,0,0,20,-8,1,0,0,1,117,277,157,1,,,,,,,,
,,,,,,,,,,,,,FF,,,,,,,,1.201,,,,,,,,,,,,,,,,,,,,,,61006befb060ce1e415e03df,61036f7611bc5a6b8b2646c0,2021-07-29_23h18.53.882,Simcolourproject_2stim_asymm_v5,2020.2.10,MacIntel,60,61025ae37ef11b136ea224fe,,,,,,,,,3242,-30,-64,1,0,0,response5disk,,3,3,-3,1,0,0,rectangle,3,-3,1,0,0,3,-3,1,0,0,1,118,278,18,1,,,,,,,,
,,,,,,,,,,,,,FF,,,,,,,,0.8,,,,,,,,,,,,,,,,,,,,,,61006befb060ce1e415e03df,61036f7611bc5a6b8b2646c0,2021-07-29_23h18.53.882,Simcolourproject_2stim_asymm_v5,2020.2.10,MacIntel,60,61025ae37ef11b136ea224fe,,,,,,,,,2985,-53,27,1,0,0,response7disk,,1,24,-3,1,0,0,rectangle,24,-3,1,0,0,24,-3,1,0,0,1,119,279,77,1,,,,,,,,
,,,,,,,,,,,,,FF,,,,,,,,0.666,,,,,,,,,,,,,,,,,,,,,,61006befb060ce1e415e03df,61036f7611bc5a6b8b2646c0,2021-07-29_23h18.53.882,Simcolourproject_2stim_asymm_v5,2020.2.10,MacIntel,60,61025ae37ef11b136ea224fe,,,,,,,,,1449,-60,25,1,0,0,response7disk,,1,6,-12,1,0,0,rectangle,6,-12,1,0,0,6,-12,1,0,0,1,120,280,126,1,,,,,,,,
,,,,,,,,,,,,,FF,,,,,,,,2.001,,,,,,,,,,,,,,,,,,,,,,61006befb060ce1e415e03df,61036f7611bc5a6b8b2646c0,2021-07-29_23h18.53.882,Simcolourproject_2stim_asymm_v5,2020.2.10,MacIntel,60,61025ae37ef11b136ea224fe,,,,,,,,,3218,40,-62,1,0,0,response3disk,,4,24,2,1,0,0,rectangle,24,2,1,0,0,24,2,1,0,0,1,121,281,34,1,,,,,,,,
,,,,,,,,,,,,,FF,,,,,,,,1.283,,,,,,,,,,,,,,,,,,,,,,61006befb060ce1e415e03df,61036f7611bc5a6b8b2646c0,2021-07-29_23h18.53.882,Simcolourproject_2stim_asymm_v5,2020.2.10,MacIntel,60,61025ae37ef11b136ea224fe,,,,,,,,,361,31,59,1,0,0,response1disk,,7,-8,-3,1,0,0,rectangle,-8,-3,1,0,0,-8,-3,1,0,0,1,122,282,51,1,,,,,,,,
,,,,,,,,,,,,,FF,,,,,,,,0.95,,,,,,,,,,,,,,,,,,,,,,61006befb060ce1e415e03df,61036f7611bc5a6b8b2646c0,2021-07-29_23h18.53.882,Simcolourproject_2stim_asymm_v5,2020.2.10,MacIntel,60,61025ae37ef11b136ea224fe,,,,,,,,,2856,26,49,1,0,0,response1disk,,7,9,1,1,0,0,rectangle,9,1,1,0,0,9,1,1,0,0,1,123,283,36,1,,,,,,,,
,,,,,,,,,,,,,FF,,,,,,,,1.867,,,,,,,,,,,,,,,,,,,,,,61006befb060ce1e415e03df,61036f7611bc5a6b8b2646c0,2021-07-29_23h18.53.882,Simcolourproject_2stim_asymm_v5,2020.2.10,MacIntel,60,61025ae37ef11b136ea224fe,,,,,,,,,851,52,-29,1,0,0,response3disk,,5,18,-2,1,0,0,rectangle,18,-2,1,0,0,18,-2,1,0,0,1,124,284,4,1,,,,,,,,
,,,,,,,,,,,,,FF,,,,,,,,2.533,,,,,,,,,,,,,,,,,,,,,,61006befb060ce1e415e03df,61036f7611bc5a6b8b2646c0,2021-07-29_23h18.53.882,Simcolourproject_2stim_asymm_v5,2020.2.10,MacIntel,60,61025ae37ef11b136ea224fe,,,,,,,,,1073,76,-37,1,0,0,response3disk,,5,13,-4,1,0,0,rectangle,13,-4,1,0,0,13,-4,1,0,0,1,125,285,75,1,,,,,,,,
,,,,,,,,,,,,,FF,,,,,,,,0.817,,,,,,,,,,,,,,,,,,,,,,61006befb060ce1e415e03df,61036f7611bc5a6b8b2646c0,2021-07-29_23h18.53.882,Simcolourproject_2stim_asymm_v5,2020.2.10,MacIntel,60,61025ae37ef11b136ea224fe,,,,,,,,,1814,-55,34,1,0,0,response7disk,,1,-14,-5,1,0,0,rectangle,-14,-5,1,0,0,-14,-5,1,0,0,1,126,286,79,1,,,,,,,,
,,,,,,,,,,,,,FF,,,,,,,,0.883,,,,,,,,,,,,,,,,,,,,,,61006befb060ce1e415e03df,61036f7611bc5a6b8b2646c0,2021-07-29_23h18.53.882,Simcolourproject_2stim_asymm_v5,2020.2.10,MacIntel,60,61025ae37ef11b136ea224fe,,,,,,,,,959,-88,41,1,0,0,response7disk,,1,-17,-8,1,0,0,rectangle,-17,-8,1,0,0,-17,-8,1,0,0,1,127,287,131,1,,,,,,,,
,,,,,,,,,,,,,FF,,,,,,,,2.249,,,,,,,,,,,,,,,,,,,,,,61006befb060ce1e415e03df,61036f7611bc5a6b8b2646c0,2021-07-29_23h18.53.882,Simcolourproject_2stim_asymm_v5,2020.2.10,MacIntel,60,61025ae37ef11b136ea224fe,,,,,,,,,2499,95,-50,1,0,0,response3disk,,5,-2,14,1,0,0,rectangle,-2,14,1,0,0,-2,14,1,0,0,1,128,288,133,1,,,,,,,,
,,,,,,,,,,,,,FF,,,,,,,,2.05,,,,,,,,,,,,,,,,,,,,,,61006befb060ce1e415e03df,61036f7611bc5a6b8b2646c0,2021-07-29_23h18.53.882,Simcolourproject_2stim_asymm_v5,2020.2.10,MacIntel,60,61025ae37ef11b136ea224fe,,,,,,,,,3613,70,34,1,0,0,response1disk,,6,25,4,1,0,0,rectangle,25,4,1,0,0,25,4,1,0,0,1,129,289,142,1,,,,,,,,
,,,,,,,,,,,,,FF,,,,,,,,0.784,,,,,,,,,,,,,,,,,,,,,,61006befb060ce1e415e03df,61036f7611bc5a6b8b2646c0,2021-07-29_23h18.53.882,Simcolourproject_2stim_asymm_v5,2020.2.10,MacIntel,60,61025ae37ef11b136ea224fe,,,,,,,,,549,-50,22,1,0,0,response7disk,,1,-14,1,1,0,0,rectangle,-14,1,1,0,0,-14,1,1,0,0,1,130,290,99,1,,,,,,,,
,,,,,,,,,,,,,FF,,,,,,,,1.283,,,,,,,,,,,,,,,,,,,,,,61006befb060ce1e415e03df,61036f7611bc5a6b8b2646c0,2021-07-29_23h18.53.882,Simcolourproject_2stim_asymm_v5,2020.2.10,MacIntel,60,61025ae37ef11b136ea224fe,,,,,,,,,1444,-36,-67,1,0,0,response5disk,,3,0,-6,1,0,0,rectangle,0,-6,1,0,0,0,-6,1,0,0,1,131,291,128,1,,,,,,,,
,,,,,,,,,,,,,FF,,,,,,,,0.633,,,,,,,,,,,,,,,,,,,,,,61006befb060ce1e415e03df,61036f7611bc5a6b8b2646c0,2021-07-29_23h18.53.882,Simcolourproject_2stim_asymm_v5,2020.2.10,MacIntel,60,61025ae37ef11b136ea224fe,,,,,,,,,4265,-28,-73,1,0,0,response5disk,,3,19,-8,1,0,0,rectangle,19,-8,1,0,0,19,-8,1,0,0,1,132,292,145,1,,,,,,,,
,,,,,,,,,,,,,FF,,,,,,,,3.483,,,,,,,,,,,,,,,,,,,,,,61006befb060ce1e415e03df,61036f7611bc5a6b8b2646c0,2021-07-29_23h18.53.882,Simcolourproject_2stim_asymm_v5,2020.2.10,MacIntel,60,61025ae37ef11b136ea224fe,,,,,,,,,2005,48,-68,1,0,0,response3disk,,4,26,-13,1,0,0,rectangle,26,-13,1,0,0,26,-13,1,0,0,1,133,293,53,1,,,,,,,,
,,,,,,,,,,,,,FF,,,,,,,,0.75,,,,,,,,,,,,,,,,,,,,,,61006befb060ce1e415e03df,61036f7611bc5a6b8b2646c0,2021-07-29_23h18.53.882,Simcolourproject_2stim_asymm_v5,2020.2.10,MacIntel,60,61025ae37ef11b136ea224fe,,,,,,,,,2037,-76,39,1,0,0,response7disk,,1,-16,-2,1,0,0,rectangle,-16,-2,1,0,0,-16,-2,1,0,0,1,134,294,5,1,,,,,,,,
,,,,,,,,,,,,,FF,,,,,,,,1.984,,,,,,,,,,,,,,,,,,,,,,61006befb060ce1e415e03df,61036f7611bc5a6b8b2646c0,2021-07-29_23h18.53.882,Simcolourproject_2stim_asymm_v5,2020.2.10,MacIntel,60,61025ae37ef11b136ea224fe,,,,,,,,,1796,63,-35,1,0,0,response3disk,,5,5,-2,1,0,0,rectangle,5,-2,1,0,0,5,-2,1,0,0,1,135,295,23,1,,,,,,,,
,,,,,,,,,,,,,FF,,,,,,,,4.75,,,,,,,,,,,,,,,,,,,,,,61006befb060ce1e415e03df,61036f7611bc5a6b8b2646c0,2021-07-29_23h18.53.882,Simcolourproject_2stim_asymm_v5,2020.2.10,MacIntel,60,61025ae37ef11b136ea224fe,,,,,,,,,3694,30,-81,1,0,0,response3disk,,4,-20,-8,1,0,0,rectangle,-20,-8,1,0,0,-20,-8,1,0,0,1,136,296,16,1,,,,,,,,
,,,,,,,,,,,,,FF,,,,,,,,1,,,,,,,,,,,,,,,,,,,,,,61006befb060ce1e415e03df,61036f7611bc5a6b8b2646c0,2021-07-29_23h18.53.882,Simcolourproject_2stim_asymm_v5,2020.2.10,MacIntel,60,61025ae37ef11b136ea224fe,,,,,,,,,76,-61,-38,1,0,0,response5disk,,2,-9,-3,1,0,0,rectangle,-9,-3,1,0,0,-9,-3,1,0,0,1,137,297,35,1,,,,,,,,
,,,,,,,,,,,,,FF,,,,,,,,3.35,,,,,,,,,,,,,,,,,,,,,,61006befb060ce1e415e03df,61036f7611bc5a6b8b2646c0,2021-07-29_23h18.53.882,Simcolourproject_2stim_asymm_v5,2020.2.10,MacIntel,60,61025ae37ef11b136ea224fe,,,,,,,,,2621,-32,-70,1,0,0,response5disk,,3,-19,-12,1,0,0,rectangle,-19,-12,1,0,0,-19,-12,1,0,0,1,138,298,22,1,,,,,,,,
,,,,,,,,,,,,,FF,,,,,,,,0.9,,,,,,,,,,,,,,,,,,,,,,61006befb060ce1e415e03df,61036f7611bc5a6b8b2646c0,2021-07-29_23h18.53.882,Simcolourproject_2stim_asymm_v5,2020.2.10,MacIntel,60,61025ae37ef11b136ea224fe,,,,,,,,,605,-51,-95,1,0,0,response5disk,,3,-4,-6,1,0,0,rectangle,-4,-6,1,0,0,-4,-6,1,0,0,1,139,299,69,1,,,,,,,,
