key_resp.keys,key_resp.rt,key_resp_14.keys,key_resp_14.rt,key_resp_15.keys,key_resp_15.rt,key_resp_17.keys,key_resp_17.rt,key_resp_9.keys,key_resp_9.rt,key_resp_10.keys,key_resp_10.rt,practice_comparison,Ecc,mouse_5.x,mouse_5.y,mouse_5.leftButton,mouse_5.midButton,mouse_5.rightButton,mouse_5.clicked_name,pracsimilarity,response_time,mouse_10.x,mouse_10.y,mouse_10.leftButton,mouse_10.midButton,mouse_10.rightButton,mouse_10.clicked_name,mouse_7.x,mouse_7.y,mouse_7.leftButton,mouse_7.midButton,mouse_7.rightButton,mouse_6.x,mouse_6.y,mouse_6.leftButton,mouse_6.midButton,mouse_6.rightButton,duringprac.thisRepN,duringprac.thisTrialN,duringprac.thisN,duringprac.thisIndex,duringprac.ran,participant,session,date,expName,psychopyVersion,OS,frameRate,study_id,mouse_7.clicked_name,catchpracsimilarity,catch_response_time,catchnumberprac,catchtrialorderprac,mouse_6.clicked_name,key_resp_22.keys,key_resp_22.rt,realcomparison,mouse.x,mouse.y,mouse.leftButton,mouse.midButton,mouse.rightButton,mouse.clicked_name,Colour2,similarity,mouse_2.x,mouse_2.y,mouse_2.leftButton,mouse_2.midButton,mouse_2.rightButton,mouse_2.clicked_name,mouse_3.x,mouse_3.y,mouse_3.leftButton,mouse_3.midButton,mouse_3.rightButton,mouse_11.x,mouse_11.y,mouse_11.leftButton,mouse_11.midButton,mouse_11.rightButton,trials_2.thisRepN,trials_2.thisTrialN,trials_2.thisN,trials_2.thisIndex,trials_2.ran,Colour1,mouse_3.clicked_name,catchornah,catchsimilarity,catchnumber,catchtrialorder,catchRT,mouse_11.clicked_name
space,1.259,space,4.211,space,22.33,space,9.297,space,1.533,space,4.848,102,PF,-33,-47,1,0,0,response5disk_5,3,15.767,-8,2,1,0,0,rectangle_8,-8,2,1,0,0,-8,2,1,0,0,0,0,0,1,1,6100fa7fb0b18ed4c4435d59,61036f0a27167b5fe2888647,2021-07-29_23h16.51.343,Simcolourproject_2stim_asymm_v5,2020.2.10,MacIntel,60,61025ae37ef11b136ea224fe,,,,,,,,,,,,,,,,,,,,,,,,,,,,,,,,,,,,,,,,,,,,,,
,,,,,,,,,,,,75,PF,23,50,1,0,0,response1disk_5,7,1.467,-2,-1,1,0,0,rectangle_8,27,55,1,0,0,5,3,1,0,0,0,1,1,4,1,6100fa7fb0b18ed4c4435d59,61036f0a27167b5fe2888647,2021-07-29_23h16.51.343,Simcolourproject_2stim_asymm_v5,2020.2.10,MacIntel,60,61025ae37ef11b136ea224fe,response1disk_7,7,4.15,2,"[2,5]",rectangle_4,,,,,,,,,,,,,,,,,,,,,,,,,,,,,,,,,,,,,,,,
,,,,,,,,,,,,89,FF,23,53,1,0,0,response1disk_5,7,3.383,0,9,1,0,0,rectangle_8,0,9,1,0,0,0,9,1,0,0,0,2,2,5,1,6100fa7fb0b18ed4c4435d59,61036f0a27167b5fe2888647,2021-07-29_23h16.51.343,Simcolourproject_2stim_asymm_v5,2020.2.10,MacIntel,60,61025ae37ef11b136ea224fe,,,,,,,,,,,,,,,,,,,,,,,,,,,,,,,,,,,,,,,,,,,,,,
,,,,,,,,,,,,71,FF,27,-40,1,0,0,response3disk_5,4,1.65,12,8,1,0,0,rectangle_8,12,8,1,0,0,12,8,1,0,0,0,3,3,3,1,6100fa7fb0b18ed4c4435d59,61036f0a27167b5fe2888647,2021-07-29_23h16.51.343,Simcolourproject_2stim_asymm_v5,2020.2.10,MacIntel,60,61025ae37ef11b136ea224fe,,,,,,,,,,,,,,,,,,,,,,,,,,,,,,,,,,,,,,,,,,,,,,
,,,,,,,,,,,,45,PF,61,24,1,0,0,response1disk_5,6,2.216,19,10,1,0,0,rectangle_8,-26,15,1,0,0,-17,6,1,0,0,0,4,4,2,1,6100fa7fb0b18ed4c4435d59,61036f0a27167b5fe2888647,2021-07-29_23h16.51.343,Simcolourproject_2stim_asymm_v5,2020.2.10,MacIntel,60,61025ae37ef11b136ea224fe,response7disk_7,1,3.466,2,"[2,5]",rectangle_4,,,,,,,,,,,,,,,,,,,,,,,,,,,,,,,,,,,,,,,,
,,,,,,,,,,,,72,PF,22,-63,1,0,0,response3disk_5,4,2.915,9,-2,1,0,0,rectangle_8,9,-2,1,0,0,9,-2,1,0,0,0,5,5,6,1,6100fa7fb0b18ed4c4435d59,61036f0a27167b5fe2888647,2021-07-29_23h16.51.343,Simcolourproject_2stim_asymm_v5,2020.2.10,MacIntel,60,61025ae37ef11b136ea224fe,,,,,,,,,,,,,,,,,,,,,,,,,,,,,,,,,,,,,,,,,,,,,,
,,,,,,,,,,,,120,FF,-54,36,1,0,0,response7disk_5,1,2.434,-10,-3,1,0,0,rectangle_8,-10,-3,1,0,0,-10,-3,1,0,0,0,6,6,0,1,6100fa7fb0b18ed4c4435d59,61036f0a27167b5fe2888647,2021-07-29_23h16.51.343,Simcolourproject_2stim_asymm_v5,2020.2.10,MacIntel,60,61025ae37ef11b136ea224fe,,,,,,,,,,,,,,,,,,,,,,,,,,,,,,,,,,,,,,,,,,,,,,
,,,,,,,,,,,,,FF,,,,,,,,2.582,,,,,,,,,,,,,,,,,,,,,,6100fa7fb0b18ed4c4435d59,61036f0a27167b5fe2888647,2021-07-29_23h16.51.343,Simcolourproject_2stim_asymm_v5,2020.2.10,MacIntel,60,61025ae37ef11b136ea224fe,,,,,,,space,3.736,297,-27,-37,1,0,0,response5disk,,3,-7,5,1,0,0,rectangle,-7,5,1,0,0,-7,5,1,0,0,0,0,0,17,1,,,,,,,,
,,,,,,,,,,,,,FF,,,,,,,,3.75,,,,,,,,,,,,,,,,,,,,,,6100fa7fb0b18ed4c4435d59,61036f0a27167b5fe2888647,2021-07-29_23h16.51.343,Simcolourproject_2stim_asymm_v5,2020.2.10,MacIntel,60,61025ae37ef11b136ea224fe,,,,,,,,,3241,74,33,1,0,0,response1disk,,6,24,5,1,0,0,rectangle,24,5,1,0,0,24,5,1,0,0,0,1,1,77,1,,,,,,,,
,,,,,,,,,,,,,FF,,,,,,,,1.051,,,,,,,,,,,,,,,,,,,,,,6100fa7fb0b18ed4c4435d59,61036f0a27167b5fe2888647,2021-07-29_23h16.51.343,Simcolourproject_2stim_asymm_v5,2020.2.10,MacIntel,60,61025ae37ef11b136ea224fe,,,,,,,,,1647,67,34,1,0,0,response1disk,,6,14,4,1,0,0,rectangle,14,4,1,0,0,14,4,1,0,0,0,2,2,66,1,,,,,,,,
,,,,,,,,,,,,,FF,,,,,,,,1.483,,,,,,,,,,,,,,,,,,,,,,6100fa7fb0b18ed4c4435d59,61036f0a27167b5fe2888647,2021-07-29_23h16.51.343,Simcolourproject_2stim_asymm_v5,2020.2.10,MacIntel,60,61025ae37ef11b136ea224fe,,,,,,,,,4123,-74,36,1,0,0,response7disk,,1,-11,14,1,0,0,rectangle,-11,14,1,0,0,-11,14,1,0,0,0,3,3,124,1,,,,,,,,
,,,,,,,,,,,,,FF,,,,,,,,2.366,,,,,,,,,,,,,,,,,,,,,,6100fa7fb0b18ed4c4435d59,61036f0a27167b5fe2888647,2021-07-29_23h16.51.343,Simcolourproject_2stim_asymm_v5,2020.2.10,MacIntel,60,61025ae37ef11b136ea224fe,,,,,,,,,2376,-34,-72,1,0,0,response5disk,,3,-12,-11,1,0,0,rectangle,-12,-11,1,0,0,-12,-11,1,0,0,0,4,4,49,1,,,,,,,,
,,,,,,,,,,,,,FF,,,,,,,,0.95,,,,,,,,,,,,,,,,,,,,,,6100fa7fb0b18ed4c4435d59,61036f0a27167b5fe2888647,2021-07-29_23h16.51.343,Simcolourproject_2stim_asymm_v5,2020.2.10,MacIntel,60,61025ae37ef11b136ea224fe,,,,,,,,,2836,-74,28,1,0,0,response7disk,,1,-21,-9,1,0,0,rectangle,-21,-9,1,0,0,-21,-9,1,0,0,0,5,5,94,1,,,,,,,,
,,,,,,,,,,,,,FF,,,,,,,,0.85,,,,,,,,,,,,,,,,,,,,,,6100fa7fb0b18ed4c4435d59,61036f0a27167b5fe2888647,2021-07-29_23h16.51.343,Simcolourproject_2stim_asymm_v5,2020.2.10,MacIntel,60,61025ae37ef11b136ea224fe,,,,,,,,,3676,-74,45,1,0,0,response7disk,,1,-7,17,1,0,0,rectangle,-7,17,1,0,0,-7,17,1,0,0,0,6,6,114,1,,,,,,,,
,,,,,,,,,,,,,FF,,,,,,,,0.835,,,,,,,,,,,,,,,,,,,,,,6100fa7fb0b18ed4c4435d59,61036f0a27167b5fe2888647,2021-07-29_23h16.51.343,Simcolourproject_2stim_asymm_v5,2020.2.10,MacIntel,60,61025ae37ef11b136ea224fe,,,,,,,,,2172,-55,-22,1,0,0,response5disk,,2,-13,-4,1,0,0,rectangle,-13,-4,1,0,0,-13,-4,1,0,0,0,7,7,131,1,,,,,,,,
,,,,,,,,,,,,,FF,,,,,,,,2.166,,,,,,,,,,,,,,,,,,,,,,6100fa7fb0b18ed4c4435d59,61036f0a27167b5fe2888647,2021-07-29_23h16.51.343,Simcolourproject_2stim_asymm_v5,2020.2.10,MacIntel,60,61025ae37ef11b136ea224fe,,,,,,,,,1262,19,-70,1,0,0,response3disk,,4,-18,-1,1,0,0,rectangle,-18,-1,1,0,0,-18,-1,1,0,0,0,8,8,46,1,,,,,,,,
,,,,,,,,,,,,,FF,,,,,,,,1.501,,,,,,,,,,,,,,,,,,,,,,6100fa7fb0b18ed4c4435d59,61036f0a27167b5fe2888647,2021-07-29_23h16.51.343,Simcolourproject_2stim_asymm_v5,2020.2.10,MacIntel,60,61025ae37ef11b136ea224fe,,,,,,,,,1115,-32,-52,1,0,0,response5disk,,3,-11,11,1,0,0,rectangle,-11,11,1,0,0,-11,11,1,0,0,0,9,9,58,1,,,,,,,,
,,,,,,,,,,,,,FF,,,,,,,,0.934,,,,,,,,,,,,,,,,,,,,,,6100fa7fb0b18ed4c4435d59,61036f0a27167b5fe2888647,2021-07-29_23h16.51.343,Simcolourproject_2stim_asymm_v5,2020.2.10,MacIntel,60,61025ae37ef11b136ea224fe,,,,,,,,,2850,24,-63,1,0,0,response3disk,,4,14,-4,1,0,0,rectangle,14,-4,1,0,0,14,-4,1,0,0,0,10,10,130,1,,,,,,,,
,,,,,,,,,,,,,FF,,,,,,,,1.25,,,,,,,,,,,,,,,,,,,,,,6100fa7fb0b18ed4c4435d59,61036f0a27167b5fe2888647,2021-07-29_23h16.51.343,Simcolourproject_2stim_asymm_v5,2020.2.10,MacIntel,60,61025ae37ef11b136ea224fe,,,,,,,,,2313,-19,-57,1,0,0,response5disk,,3,-11,9,1,0,0,rectangle,-11,9,1,0,0,-11,9,1,0,0,0,11,11,96,1,,,,,,,,
,,,,,,,,,,,,,FF,,,,,,,,0.85,,,,,,,,,,,,,,,,,,,,,,6100fa7fb0b18ed4c4435d59,61036f0a27167b5fe2888647,2021-07-29_23h16.51.343,Simcolourproject_2stim_asymm_v5,2020.2.10,MacIntel,60,61025ae37ef11b136ea224fe,,,,,,,,,1918,-26,-50,1,0,0,response5disk,,3,-26,-7,1,0,0,rectangle,-26,-7,1,0,0,-26,-7,1,0,0,0,12,12,103,1,,,,,,,,
,,,,,,,,,,,,,FF,,,,,,,,0.966,,,,,,,,,,,,,,,,,,,,,,6100fa7fb0b18ed4c4435d59,61036f0a27167b5fe2888647,2021-07-29_23h16.51.343,Simcolourproject_2stim_asymm_v5,2020.2.10,MacIntel,60,61025ae37ef11b136ea224fe,,,,,,,,,929,34,-67,1,0,0,response3disk,,4,32,-3,1,0,0,rectangle,32,-3,1,0,0,32,-3,1,0,0,0,13,13,53,1,,,,,,,,
,,,,,,,,,,,,,FF,,,,,,,,1.733,,,,,,,,,,,,,,,,,,,,,,6100fa7fb0b18ed4c4435d59,61036f0a27167b5fe2888647,2021-07-29_23h16.51.343,Simcolourproject_2stim_asymm_v5,2020.2.10,MacIntel,60,61025ae37ef11b136ea224fe,,,,,,,,,2017,30,61,1,0,0,response1disk,,7,-6,6,1,0,0,rectangle,-6,6,1,0,0,-6,6,1,0,0,0,14,14,111,1,,,,,,,,
,,,,,,,,,,,,,FF,,,,,,,,1.399,,,,,,,,,,,,,,,,,,,,,,6100fa7fb0b18ed4c4435d59,61036f0a27167b5fe2888647,2021-07-29_23h16.51.343,Simcolourproject_2stim_asymm_v5,2020.2.10,MacIntel,60,61025ae37ef11b136ea224fe,,,,,,,,,2089,-54,-36,1,0,0,response5disk,,2,-24,-8,1,0,0,rectangle,-24,-8,1,0,0,-24,-8,1,0,0,0,15,15,40,1,,,,,,,,
,,,,,,,,,,,,,FF,,,,,,,,2.1,,,,,,,,,,,,,,,,,,,,,,6100fa7fb0b18ed4c4435d59,61036f0a27167b5fe2888647,2021-07-29_23h16.51.343,Simcolourproject_2stim_asymm_v5,2020.2.10,MacIntel,60,61025ae37ef11b136ea224fe,,,,,,,,,2127,43,-25,1,0,0,response3disk,,5,8,-15,1,0,0,rectangle,8,-15,1,0,0,8,-15,1,0,0,0,16,16,10,1,,,,,,,,
,,,,,,,,,,,,,FF,,,,,,,,0.816,,,,,,,,,,,,,,,,,,,,,,6100fa7fb0b18ed4c4435d59,61036f0a27167b5fe2888647,2021-07-29_23h16.51.343,Simcolourproject_2stim_asymm_v5,2020.2.10,MacIntel,60,61025ae37ef11b136ea224fe,,,,,,,,,1655,58,-37,1,0,0,response3disk,,5,20,-5,1,0,0,rectangle,20,-5,1,0,0,20,-5,1,0,0,0,17,17,86,1,,,,,,,,
,,,,,,,,,,,,,FF,,,,,,,,1.099,,,,,,,,,,,,,,,,,,,,,,6100fa7fb0b18ed4c4435d59,61036f0a27167b5fe2888647,2021-07-29_23h16.51.343,Simcolourproject_2stim_asymm_v5,2020.2.10,MacIntel,60,61025ae37ef11b136ea224fe,,,,,,,,,2291,-32,66,1,0,0,response7disk,,0,-26,16,1,0,0,rectangle,-26,16,1,0,0,-26,16,1,0,0,0,18,18,39,1,,,,,,,,
,,,,,,,,,,,,,FF,,,,,,,,1.134,,,,,,,,,,,,,,,,,,,,,,6100fa7fb0b18ed4c4435d59,61036f0a27167b5fe2888647,2021-07-29_23h16.51.343,Simcolourproject_2stim_asymm_v5,2020.2.10,MacIntel,60,61025ae37ef11b136ea224fe,,,,,,,,,2310,53,-36,1,0,0,response3disk,,5,-5,-1,1,0,0,rectangle,-5,-1,1,0,0,-5,-1,1,0,0,0,19,19,126,1,,,,,,,,
,,,,,,,,,,,,,FF,,,,,,,,0.784,,,,,,,,,,,,,,,,,,,,,,6100fa7fb0b18ed4c4435d59,61036f0a27167b5fe2888647,2021-07-29_23h16.51.343,Simcolourproject_2stim_asymm_v5,2020.2.10,MacIntel,60,61025ae37ef11b136ea224fe,,,,,,,,,1886,-32,59,1,0,0,response7disk,,0,-28,8,1,0,0,rectangle,-28,8,1,0,0,-28,8,1,0,0,0,20,20,156,1,,,,,,,,
,,,,,,,,,,,,,FF,,,,,,,,1.383,,,,,,,,,,,,,,,,,,,,,,6100fa7fb0b18ed4c4435d59,61036f0a27167b5fe2888647,2021-07-29_23h16.51.343,Simcolourproject_2stim_asymm_v5,2020.2.10,MacIntel,60,61025ae37ef11b136ea224fe,,,,,,,,,1253,33,-43,1,0,0,response3disk,,4,-1,-12,1,0,0,rectangle,-1,-12,1,0,0,-1,-12,1,0,0,0,21,21,116,1,,,,,,,,
,,,,,,,,,,,,,FF,,,,,,,,1.217,,,,,,,,,,,,,,,,,,,,,,6100fa7fb0b18ed4c4435d59,61036f0a27167b5fe2888647,2021-07-29_23h16.51.343,Simcolourproject_2stim_asymm_v5,2020.2.10,MacIntel,60,61025ae37ef11b136ea224fe,,,,,,,,,321,35,63,1,0,0,response1disk,,7,19,8,1,0,0,rectangle,19,8,1,0,0,19,8,1,0,0,0,22,22,145,1,,,,,,,,
,,,,,,,,,,,,,FF,,,,,,,,0.749,,,,,,,,,,,,,,,,,,,,,,6100fa7fb0b18ed4c4435d59,61036f0a27167b5fe2888647,2021-07-29_23h16.51.343,Simcolourproject_2stim_asymm_v5,2020.2.10,MacIntel,60,61025ae37ef11b136ea224fe,,,,,,,,,622,29,59,1,0,0,response1disk,,7,8,15,1,0,0,rectangle,8,15,1,0,0,8,15,1,0,0,0,23,23,4,1,,,,,,,,
,,,,,,,,,,,,,FF,,,,,,,,1.383,,,,,,,,,,,,,,,,,,,,,,6100fa7fb0b18ed4c4435d59,61036f0a27167b5fe2888647,2021-07-29_23h16.51.343,Simcolourproject_2stim_asymm_v5,2020.2.10,MacIntel,60,61025ae37ef11b136ea224fe,,,,,,,,,917,75,32,1,0,0,response1disk,,6,19,-7,1,0,0,rectangle,19,-7,1,0,0,19,-7,1,0,0,0,24,24,110,1,,,,,,,,
,,,,,,,,,,,,,FF,,,,,,,,1.183,,,,,,,,,,,,,,,,,,,,,,6100fa7fb0b18ed4c4435d59,61036f0a27167b5fe2888647,2021-07-29_23h16.51.343,Simcolourproject_2stim_asymm_v5,2020.2.10,MacIntel,60,61025ae37ef11b136ea224fe,,,,,,,,,81,-64,-38,1,0,0,response5disk,,2,-21,-14,1,0,0,rectangle,-21,-14,1,0,0,-21,-14,1,0,0,0,25,25,12,1,,,,,,,,
,,,,,,,,,,,,,FF,,,,,,,,1.117,,,,,,,,,,,,,,,,,,,,,,6100fa7fb0b18ed4c4435d59,61036f0a27167b5fe2888647,2021-07-29_23h16.51.343,Simcolourproject_2stim_asymm_v5,2020.2.10,MacIntel,60,61025ae37ef11b136ea224fe,,,,,,,,,2631,18,-58,1,0,0,response3disk,,4,0,10,1,0,0,rectangle,0,10,1,0,0,0,10,1,0,0,0,26,26,63,1,,,,,,,,
,,,,,,,,,,,,,FF,,,,,,,,1.167,,,,,,,,,,,,,,,,,,,,,,6100fa7fb0b18ed4c4435d59,61036f0a27167b5fe2888647,2021-07-29_23h16.51.343,Simcolourproject_2stim_asymm_v5,2020.2.10,MacIntel,60,61025ae37ef11b136ea224fe,,,,,,,,,966,25,37,1,0,0,response1disk,,7,10,-5,1,0,0,rectangle,10,-5,1,0,0,10,-5,1,0,0,0,27,27,2,1,,,,,,,,
,,,,,,,,,,,,,FF,,,,,,,,2.45,,,,,,,,,,,,,,,,,,,,,,6100fa7fb0b18ed4c4435d59,61036f0a27167b5fe2888647,2021-07-29_23h16.51.343,Simcolourproject_2stim_asymm_v5,2020.2.10,MacIntel,60,61025ae37ef11b136ea224fe,,,,,,,,,805,-26,-60,1,0,0,response5disk,,3,-18,7,1,0,0,rectangle,-18,7,1,0,0,-18,7,1,0,0,0,28,28,87,1,,,,,,,,
,,,,,,,,,,,,,FF,,,,,,,,0.718,,,,,,,,,,,,,,,,,,,,,,6100fa7fb0b18ed4c4435d59,61036f0a27167b5fe2888647,2021-07-29_23h16.51.343,Simcolourproject_2stim_asymm_v5,2020.2.10,MacIntel,60,61025ae37ef11b136ea224fe,,,,,,,,,3491,28,-56,1,0,0,response3disk,,4,9,-3,1,0,0,rectangle,9,-3,1,0,0,9,-3,1,0,0,0,29,29,97,1,,,,,,,,
,,,,,,,,,,,,,FF,,,,,,,,3.4,,,,,,,,,,,,,,,,,,,,,,6100fa7fb0b18ed4c4435d59,61036f0a27167b5fe2888647,2021-07-29_23h16.51.343,Simcolourproject_2stim_asymm_v5,2020.2.10,MacIntel,60,61025ae37ef11b136ea224fe,,,,,,,,,1810,27,57,1,0,0,response1disk,,7,25,1,1,0,0,rectangle,25,1,1,0,0,25,1,1,0,0,0,30,30,134,1,,,,,,,,
,,,,,,,,,,,,,FF,,,,,,,,1.034,,,,,,,,,,,,,,,,,,,,,,6100fa7fb0b18ed4c4435d59,61036f0a27167b5fe2888647,2021-07-29_23h16.51.343,Simcolourproject_2stim_asymm_v5,2020.2.10,MacIntel,60,61025ae37ef11b136ea224fe,,,,,,,,,459,-74,-31,1,0,0,response5disk,,2,-7,-6,1,0,0,rectangle,-7,-6,1,0,0,-7,-6,1,0,0,0,31,31,48,1,,,,,,,,
,,,,,,,,,,,,,FF,,,,,,,,1.867,,,,,,,,,,,,,,,,,,,,,,6100fa7fb0b18ed4c4435d59,61036f0a27167b5fe2888647,2021-07-29_23h16.51.343,Simcolourproject_2stim_asymm_v5,2020.2.10,MacIntel,60,61025ae37ef11b136ea224fe,,,,,,,,,4300,60,26,1,0,0,response1disk,,6,23,-4,1,0,0,rectangle,23,-4,1,0,0,23,-4,1,0,0,0,32,32,104,1,,,,,,,,
,,,,,,,,,,,,,FF,,,,,,,,0.85,,,,,,,,,,,,,,,,,,,,,,6100fa7fb0b18ed4c4435d59,61036f0a27167b5fe2888647,2021-07-29_23h16.51.343,Simcolourproject_2stim_asymm_v5,2020.2.10,MacIntel,60,61025ae37ef11b136ea224fe,,,,,,,,,4051,71,30,1,0,0,response1disk,,6,13,4,1,0,0,rectangle,13,4,1,0,0,13,4,1,0,0,0,33,33,32,1,,,,,,,,
,,,,,,,,,,,,,FF,,,,,,,,0.718,,,,,,,,,,,,,,,,,,,,,,6100fa7fb0b18ed4c4435d59,61036f0a27167b5fe2888647,2021-07-29_23h16.51.343,Simcolourproject_2stim_asymm_v5,2020.2.10,MacIntel,60,61025ae37ef11b136ea224fe,,,,,,,,,711,62,30,1,0,0,response1disk,,6,18,3,1,0,0,rectangle,18,3,1,0,0,18,3,1,0,0,0,34,34,81,1,,,,,,,,
,,,,,,,,,,,,,FF,,,,,,,,1.199,,,,,,,,,,,,,,,,,,,,,,6100fa7fb0b18ed4c4435d59,61036f0a27167b5fe2888647,2021-07-29_23h16.51.343,Simcolourproject_2stim_asymm_v5,2020.2.10,MacIntel,60,61025ae37ef11b136ea224fe,,,,,,,,,4022,15,-56,1,0,0,response3disk,,4,-2,-10,1,0,0,rectangle,-2,-10,1,0,0,-2,-10,1,0,0,0,35,35,20,1,,,,,,,,
,,,,,,,,,,,,,FF,,,,,,,,1.784,,,,,,,,,,,,,,,,,,,,,,6100fa7fb0b18ed4c4435d59,61036f0a27167b5fe2888647,2021-07-29_23h16.51.343,Simcolourproject_2stim_asymm_v5,2020.2.10,MacIntel,60,61025ae37ef11b136ea224fe,,,,,,,,,3120,64,-23,1,0,0,response3disk,,5,15,17,1,0,0,rectangle,15,17,1,0,0,15,17,1,0,0,0,36,36,99,1,,,,,,,,
,,,,,,,,,,,,,FF,,,,,,,,0.783,,,,,,,,,,,,,,,,,,,,,,6100fa7fb0b18ed4c4435d59,61036f0a27167b5fe2888647,2021-07-29_23h16.51.343,Simcolourproject_2stim_asymm_v5,2020.2.10,MacIntel,60,61025ae37ef11b136ea224fe,,,,,,,,,2907,37,-71,1,0,0,response3disk,,4,-13,1,1,0,0,rectangle,-13,1,1,0,0,-13,1,1,0,0,0,37,37,23,1,,,,,,,,
,,,,,,,,,,,,,FF,,,,,,,,1.866,,,,,,,,,,,,,,,,,,,,,,6100fa7fb0b18ed4c4435d59,61036f0a27167b5fe2888647,2021-07-29_23h16.51.343,Simcolourproject_2stim_asymm_v5,2020.2.10,MacIntel,60,61025ae37ef11b136ea224fe,,,,,,,,,4329,27,-55,1,0,0,response3disk,,4,9,-8,1,0,0,rectangle,9,-8,1,0,0,9,-8,1,0,0,0,38,38,47,1,,,,,,,,
,,,,,,,,,,,,,FF,,,,,,,,0.767,,,,,,,,,,,,,,,,,,,,,,6100fa7fb0b18ed4c4435d59,61036f0a27167b5fe2888647,2021-07-29_23h16.51.343,Simcolourproject_2stim_asymm_v5,2020.2.10,MacIntel,60,61025ae37ef11b136ea224fe,,,,,,,,,2391,24,-63,1,0,0,response3disk,,4,-3,10,1,0,0,rectangle,-3,10,1,0,0,-3,10,1,0,0,0,39,39,56,1,,,,,,,,
,,,,,,,,,,,,,FF,,,,,,,,1.183,,,,,,,,,,,,,,,,,,,,,,6100fa7fb0b18ed4c4435d59,61036f0a27167b5fe2888647,2021-07-29_23h16.51.343,Simcolourproject_2stim_asymm_v5,2020.2.10,MacIntel,60,61025ae37ef11b136ea224fe,,,,,,,,,3554,-75,-24,1,0,0,response5disk,,2,-24,-15,1,0,0,rectangle,-24,-15,1,0,0,-24,-15,1,0,0,0,40,40,9,1,,,,,,,,
,,,,,,,,,,,,,FF,,,,,,,,1.134,,,,,,,,,,,,,,,,,,,,,,6100fa7fb0b18ed4c4435d59,61036f0a27167b5fe2888647,2021-07-29_23h16.51.343,Simcolourproject_2stim_asymm_v5,2020.2.10,MacIntel,60,61025ae37ef11b136ea224fe,,,,,,,,,3434,-39,-80,1,0,0,response5disk,,3,-18,-11,1,0,0,rectangle,-18,-11,1,0,0,-18,-11,1,0,0,0,41,41,21,1,,,,,,,,
,,,,,,,,,,,,,FF,,,,,,,,0.616,,,,,,,,,,,,,,,,,,,,,,6100fa7fb0b18ed4c4435d59,61036f0a27167b5fe2888647,2021-07-29_23h16.51.343,Simcolourproject_2stim_asymm_v5,2020.2.10,MacIntel,60,61025ae37ef11b136ea224fe,,,,,,,,,2579,25,-73,1,0,0,response3disk,,4,5,-6,1,0,0,rectangle,5,-6,1,0,0,5,-6,1,0,0,0,42,42,1,1,,,,,,,,
,,,,,,,,,,,,,FF,,,,,,,,0.766,,,,,,,,,,,,,,,,,,,,,,6100fa7fb0b18ed4c4435d59,61036f0a27167b5fe2888647,2021-07-29_23h16.51.343,Simcolourproject_2stim_asymm_v5,2020.2.10,MacIntel,60,61025ae37ef11b136ea224fe,,,,,,,,,2464,56,-22,1,0,0,response3disk,,5,0,1,1,0,0,rectangle,0,1,1,0,0,0,1,1,0,0,0,43,43,67,1,,,,,,,,
,,,,,,,,,,,,,FF,,,,,,,,0.833,,,,,,,,,,,,,,,,,,,,,,6100fa7fb0b18ed4c4435d59,61036f0a27167b5fe2888647,2021-07-29_23h16.51.343,Simcolourproject_2stim_asymm_v5,2020.2.10,MacIntel,60,61025ae37ef11b136ea224fe,,,,,,,,,4077,60,-33,1,0,0,response3disk,,5,6,-3,1,0,0,rectangle,65,55,1,0,0,15,1,1,0,0,0,44,44,33,1,,response1disk_3,TRUE,6,6,"[115,45,234,102,138,149,185,290,118,274,110,311,100,102,182,184,129,139,74,150]",2.867,rectangle
,,,,,,,,,,,,,FF,,,,,,,,0.882,,,,,,,,,,,,,,,,,,,,,,6100fa7fb0b18ed4c4435d59,61036f0a27167b5fe2888647,2021-07-29_23h16.51.343,Simcolourproject_2stim_asymm_v5,2020.2.10,MacIntel,60,61025ae37ef11b136ea224fe,,,,,,,,,3763,72,-42,1,0,0,response3disk,,5,2,2,1,0,0,rectangle,2,2,1,0,0,2,2,1,0,0,0,45,45,91,1,,,,,,,,
,,,,,,,,,,,,,FF,,,,,,,,0.833,,,,,,,,,,,,,,,,,,,,,,6100fa7fb0b18ed4c4435d59,61036f0a27167b5fe2888647,2021-07-29_23h16.51.343,Simcolourproject_2stim_asymm_v5,2020.2.10,MacIntel,60,61025ae37ef11b136ea224fe,,,,,,,,,833,25,-62,1,0,0,response3disk,,4,-12,-16,1,0,0,rectangle,-12,-16,1,0,0,-12,-16,1,0,0,0,46,46,36,1,,,,,,,,
,,,,,,,,,,,,,FF,,,,,,,,0.599,,,,,,,,,,,,,,,,,,,,,,6100fa7fb0b18ed4c4435d59,61036f0a27167b5fe2888647,2021-07-29_23h16.51.343,Simcolourproject_2stim_asymm_v5,2020.2.10,MacIntel,60,61025ae37ef11b136ea224fe,,,,,,,,,323,42,-73,1,0,0,response3disk,,4,5,-15,1,0,0,rectangle,5,-15,1,0,0,5,-15,1,0,0,0,47,47,135,1,,,,,,,,
,,,,,,,,,,,,,FF,,,,,,,,0.684,,,,,,,,,,,,,,,,,,,,,,6100fa7fb0b18ed4c4435d59,61036f0a27167b5fe2888647,2021-07-29_23h16.51.343,Simcolourproject_2stim_asymm_v5,2020.2.10,MacIntel,60,61025ae37ef11b136ea224fe,,,,,,,,,2625,47,-26,1,0,0,response3disk,,5,-13,17,1,0,0,rectangle,-13,17,1,0,0,-13,17,1,0,0,0,48,48,62,1,,,,,,,,
,,,,,,,,,,,,,FF,,,,,,,,1.517,,,,,,,,,,,,,,,,,,,,,,6100fa7fb0b18ed4c4435d59,61036f0a27167b5fe2888647,2021-07-29_23h16.51.343,Simcolourproject_2stim_asymm_v5,2020.2.10,MacIntel,60,61025ae37ef11b136ea224fe,,,,,,,,,2154,57,41,1,0,0,response1disk,,6,-4,5,1,0,0,rectangle,-4,5,1,0,0,-4,5,1,0,0,0,49,49,52,1,,,,,,,,
,,,,,,,,,,,,,FF,,,,,,,,0.683,,,,,,,,,,,,,,,,,,,,,,6100fa7fb0b18ed4c4435d59,61036f0a27167b5fe2888647,2021-07-29_23h16.51.343,Simcolourproject_2stim_asymm_v5,2020.2.10,MacIntel,60,61025ae37ef11b136ea224fe,,,,,,,,,4152,27,71,1,0,0,response1disk,,7,15,5,1,0,0,rectangle,15,5,1,0,0,15,5,1,0,0,0,50,50,45,1,,,,,,,,
,,,,,,,,,,,,,FF,,,,,,,,1.1,,,,,,,,,,,,,,,,,,,,,,6100fa7fb0b18ed4c4435d59,61036f0a27167b5fe2888647,2021-07-29_23h16.51.343,Simcolourproject_2stim_asymm_v5,2020.2.10,MacIntel,60,61025ae37ef11b136ea224fe,,,,,,,,,3923,53,-71,1,0,0,response3disk,,4,15,-4,1,0,0,rectangle,15,-4,1,0,0,15,-4,1,0,0,0,51,51,42,1,,,,,,,,
,,,,,,,,,,,,,FF,,,,,,,,0.85,,,,,,,,,,,,,,,,,,,,,,6100fa7fb0b18ed4c4435d59,61036f0a27167b5fe2888647,2021-07-29_23h16.51.343,Simcolourproject_2stim_asymm_v5,2020.2.10,MacIntel,60,61025ae37ef11b136ea224fe,,,,,,,,,2743,51,-30,1,0,0,response3disk,,5,3,-11,1,0,0,rectangle,3,-11,1,0,0,3,-11,1,0,0,0,52,52,141,1,,,,,,,,
,,,,,,,,,,,,,FF,,,,,,,,1.917,,,,,,,,,,,,,,,,,,,,,,6100fa7fb0b18ed4c4435d59,61036f0a27167b5fe2888647,2021-07-29_23h16.51.343,Simcolourproject_2stim_asymm_v5,2020.2.10,MacIntel,60,61025ae37ef11b136ea224fe,,,,,,,,,168,-75,-39,1,0,0,response5disk,,2,-12,-12,1,0,0,rectangle,-12,-12,1,0,0,-12,-12,1,0,0,0,53,53,137,1,,,,,,,,
,,,,,,,,,,,,,FF,,,,,,,,0.75,,,,,,,,,,,,,,,,,,,,,,6100fa7fb0b18ed4c4435d59,61036f0a27167b5fe2888647,2021-07-29_23h16.51.343,Simcolourproject_2stim_asymm_v5,2020.2.10,MacIntel,60,61025ae37ef11b136ea224fe,,,,,,,,,469,67,-31,1,0,0,response3disk,,5,-9,-11,1,0,0,rectangle,-9,-11,1,0,0,-9,-11,1,0,0,0,54,54,128,1,,,,,,,,
,,,,,,,,,,,,,FF,,,,,,,,0.6,,,,,,,,,,,,,,,,,,,,,,6100fa7fb0b18ed4c4435d59,61036f0a27167b5fe2888647,2021-07-29_23h16.51.343,Simcolourproject_2stim_asymm_v5,2020.2.10,MacIntel,60,61025ae37ef11b136ea224fe,,,,,,,,,3035,-19,-62,1,0,0,response5disk,,3,4,16,1,0,0,rectangle,4,16,1,0,0,4,16,1,0,0,0,55,55,70,1,,,,,,,,
,,,,,,,,,,,,,FF,,,,,,,,0.866,,,,,,,,,,,,,,,,,,,,,,6100fa7fb0b18ed4c4435d59,61036f0a27167b5fe2888647,2021-07-29_23h16.51.343,Simcolourproject_2stim_asymm_v5,2020.2.10,MacIntel,60,61025ae37ef11b136ea224fe,,,,,,,,,3552,-81,44,1,0,0,response7disk,,1,-24,14,1,0,0,rectangle,-24,14,1,0,0,-24,14,1,0,0,0,56,56,69,1,,,,,,,,
,,,,,,,,,,,,,FF,,,,,,,,0.634,,,,,,,,,,,,,,,,,,,,,,6100fa7fb0b18ed4c4435d59,61036f0a27167b5fe2888647,2021-07-29_23h16.51.343,Simcolourproject_2stim_asymm_v5,2020.2.10,MacIntel,60,61025ae37ef11b136ea224fe,,,,,,,,,3512,-70,32,1,0,0,response7disk,,1,-21,16,1,0,0,rectangle,-21,16,1,0,0,-21,16,1,0,0,0,57,57,88,1,,,,,,,,
,,,,,,,,,,,,,FF,,,,,,,,1.034,,,,,,,,,,,,,,,,,,,,,,6100fa7fb0b18ed4c4435d59,61036f0a27167b5fe2888647,2021-07-29_23h16.51.343,Simcolourproject_2stim_asymm_v5,2020.2.10,MacIntel,60,61025ae37ef11b136ea224fe,,,,,,,,,1426,-15,-56,1,0,0,response5disk,,3,2,-5,1,0,0,rectangle,2,-5,1,0,0,2,-5,1,0,0,0,58,58,92,1,,,,,,,,
,,,,,,,,,,,,,FF,,,,,,,,1.199,,,,,,,,,,,,,,,,,,,,,,6100fa7fb0b18ed4c4435d59,61036f0a27167b5fe2888647,2021-07-29_23h16.51.343,Simcolourproject_2stim_asymm_v5,2020.2.10,MacIntel,60,61025ae37ef11b136ea224fe,,,,,,,,,387,32,-66,1,0,0,response3disk,,4,-2,12,1,0,0,rectangle,-2,12,1,0,0,-2,12,1,0,0,0,59,59,31,1,,,,,,,,
,,,,,,,,,,,,,FF,,,,,,,,0.584,,,,,,,,,,,,,,,,,,,,,,6100fa7fb0b18ed4c4435d59,61036f0a27167b5fe2888647,2021-07-29_23h16.51.343,Simcolourproject_2stim_asymm_v5,2020.2.10,MacIntel,60,61025ae37ef11b136ea224fe,,,,,,,,,2264,60,-22,1,0,0,response3disk,,5,4,14,1,0,0,rectangle,4,14,1,0,0,4,14,1,0,0,0,60,60,155,1,,,,,,,,
,,,,,,,,,,,,,FF,,,,,,,,1,,,,,,,,,,,,,,,,,,,,,,6100fa7fb0b18ed4c4435d59,61036f0a27167b5fe2888647,2021-07-29_23h16.51.343,Simcolourproject_2stim_asymm_v5,2020.2.10,MacIntel,60,61025ae37ef11b136ea224fe,,,,,,,,,852,29,67,1,0,0,response1disk,,7,-5,-17,1,0,0,rectangle,-5,-17,1,0,0,-5,-17,1,0,0,0,61,61,107,1,,,,,,,,
,,,,,,,,,,,,,FF,,,,,,,,1.416,,,,,,,,,,,,,,,,,,,,,,6100fa7fb0b18ed4c4435d59,61036f0a27167b5fe2888647,2021-07-29_23h16.51.343,Simcolourproject_2stim_asymm_v5,2020.2.10,MacIntel,60,61025ae37ef11b136ea224fe,,,,,,,,,3157,-19,-51,1,0,0,response5disk,,3,-22,3,1,0,0,rectangle,-22,3,1,0,0,-22,3,1,0,0,0,62,62,129,1,,,,,,,,
,,,,,,,,,,,,,FF,,,,,,,,0.8,,,,,,,,,,,,,,,,,,,,,,6100fa7fb0b18ed4c4435d59,61036f0a27167b5fe2888647,2021-07-29_23h16.51.343,Simcolourproject_2stim_asymm_v5,2020.2.10,MacIntel,60,61025ae37ef11b136ea224fe,,,,,,,,,2526,60,-35,1,0,0,response3disk,,5,11,-6,1,0,0,rectangle,11,-6,1,0,0,11,-6,1,0,0,0,63,63,127,1,,,,,,,,
,,,,,,,,,,,,,FF,,,,,,,,0.601,,,,,,,,,,,,,,,,,,,,,,6100fa7fb0b18ed4c4435d59,61036f0a27167b5fe2888647,2021-07-29_23h16.51.343,Simcolourproject_2stim_asymm_v5,2020.2.10,MacIntel,60,61025ae37ef11b136ea224fe,,,,,,,,,3350,58,-34,1,0,0,response3disk,,5,10,-13,1,0,0,rectangle,10,-13,1,0,0,10,-13,1,0,0,0,64,64,57,1,,,,,,,,
,,,,,,,,,,,,,FF,,,,,,,,0.634,,,,,,,,,,,,,,,,,,,,,,6100fa7fb0b18ed4c4435d59,61036f0a27167b5fe2888647,2021-07-29_23h16.51.343,Simcolourproject_2stim_asymm_v5,2020.2.10,MacIntel,60,61025ae37ef11b136ea224fe,,,,,,,,,3313,69,-31,1,0,0,response3disk,,5,27,-11,1,0,0,rectangle,27,-11,1,0,0,27,-11,1,0,0,0,65,65,16,1,,,,,,,,
,,,,,,,,,,,,,FF,,,,,,,,2.417,,,,,,,,,,,,,,,,,,,,,,6100fa7fb0b18ed4c4435d59,61036f0a27167b5fe2888647,2021-07-29_23h16.51.343,Simcolourproject_2stim_asymm_v5,2020.2.10,MacIntel,60,61025ae37ef11b136ea224fe,,,,,,,,,2187,-23,-87,1,0,0,response5disk,,3,-18,-3,1,0,0,rectangle,-18,-3,1,0,0,-18,-3,1,0,0,0,66,66,132,1,,,,,,,,
,,,,,,,,,,,,,FF,,,,,,,,1.5,,,,,,,,,,,,,,,,,,,,,,6100fa7fb0b18ed4c4435d59,61036f0a27167b5fe2888647,2021-07-29_23h16.51.343,Simcolourproject_2stim_asymm_v5,2020.2.10,MacIntel,60,61025ae37ef11b136ea224fe,,,,,,,,,1559,49,28,1,0,0,response1disk,,6,6,-1,1,0,0,rectangle,6,-1,1,0,0,6,-1,1,0,0,0,67,67,146,1,,,,,,,,
,,,,,,,,,,,,,FF,,,,,,,,1.533,,,,,,,,,,,,,,,,,,,,,,6100fa7fb0b18ed4c4435d59,61036f0a27167b5fe2888647,2021-07-29_23h16.51.343,Simcolourproject_2stim_asymm_v5,2020.2.10,MacIntel,60,61025ae37ef11b136ea224fe,,,,,,,,,654,68,37,1,0,0,response1disk,,6,-4,10,1,0,0,rectangle,-4,10,1,0,0,-4,10,1,0,0,0,68,68,123,1,,,,,,,,
,,,,,,,,,,,,,FF,,,,,,,,1.533,,,,,,,,,,,,,,,,,,,,,,6100fa7fb0b18ed4c4435d59,61036f0a27167b5fe2888647,2021-07-29_23h16.51.343,Simcolourproject_2stim_asymm_v5,2020.2.10,MacIntel,60,61025ae37ef11b136ea224fe,,,,,,,,,2365,-72,-40,1,0,0,response5disk,,2,-29,5,1,0,0,rectangle,-29,5,1,0,0,-29,5,1,0,0,0,69,69,100,1,,,,,,,,
,,,,,,,,,,,,,FF,,,,,,,,0.818,,,,,,,,,,,,,,,,,,,,,,6100fa7fb0b18ed4c4435d59,61036f0a27167b5fe2888647,2021-07-29_23h16.51.343,Simcolourproject_2stim_asymm_v5,2020.2.10,MacIntel,60,61025ae37ef11b136ea224fe,,,,,,,,,2793,-69,-45,1,0,0,response5disk,,2,-15,-3,1,0,0,rectangle,-15,-3,1,0,0,-15,-3,1,0,0,0,70,70,65,1,,,,,,,,
,,,,,,,,,,,,,FF,,,,,,,,1.584,,,,,,,,,,,,,,,,,,,,,,6100fa7fb0b18ed4c4435d59,61036f0a27167b5fe2888647,2021-07-29_23h16.51.343,Simcolourproject_2stim_asymm_v5,2020.2.10,MacIntel,60,61025ae37ef11b136ea224fe,,,,,,,,,3859,33,-47,1,0,0,response3disk,,4,17,12,1,0,0,rectangle,17,12,1,0,0,17,12,1,0,0,0,71,71,120,1,,,,,,,,
,,,,,,,,,,,,,FF,,,,,,,,1.3,,,,,,,,,,,,,,,,,,,,,,6100fa7fb0b18ed4c4435d59,61036f0a27167b5fe2888647,2021-07-29_23h16.51.343,Simcolourproject_2stim_asymm_v5,2020.2.10,MacIntel,60,61025ae37ef11b136ea224fe,,,,,,,,,1800,39,60,1,0,0,response1disk,,7,5,8,1,0,0,rectangle,5,8,1,0,0,5,8,1,0,0,0,72,72,142,1,,,,,,,,
,,,,,,,,,,,,,FF,,,,,,,,0.684,,,,,,,,,,,,,,,,,,,,,,6100fa7fb0b18ed4c4435d59,61036f0a27167b5fe2888647,2021-07-29_23h16.51.343,Simcolourproject_2stim_asymm_v5,2020.2.10,MacIntel,60,61025ae37ef11b136ea224fe,,,,,,,,,1177,76,32,1,0,0,response1disk,,6,15,14,1,0,0,rectangle,-82,-24,1,0,0,-3,-13,1,0,0,0,73,73,25,1,,response5disk_3,TRUE,2,2,"[115,45,234,102,138,149,185,290,118,274,110,311,100,102,182,184,129,139,74,150]",1.951,rectangle
,,,,,,,,,,,,,FF,,,,,,,,1.217,,,,,,,,,,,,,,,,,,,,,,6100fa7fb0b18ed4c4435d59,61036f0a27167b5fe2888647,2021-07-29_23h16.51.343,Simcolourproject_2stim_asymm_v5,2020.2.10,MacIntel,60,61025ae37ef11b136ea224fe,,,,,,,,,2169,-75,34,1,0,0,response7disk,,1,-24,16,1,0,0,rectangle,-24,16,1,0,0,-24,16,1,0,0,0,74,74,79,1,,,,,,,,
,,,,,,,,,,,,,FF,,,,,,,,1.567,,,,,,,,,,,,,,,,,,,,,,6100fa7fb0b18ed4c4435d59,61036f0a27167b5fe2888647,2021-07-29_23h16.51.343,Simcolourproject_2stim_asymm_v5,2020.2.10,MacIntel,60,61025ae37ef11b136ea224fe,,,,,,,,,116,35,-68,1,0,0,response3disk,,4,-10,-14,1,0,0,rectangle,-10,-14,1,0,0,-10,-14,1,0,0,0,75,75,102,1,,,,,,,,
,,,,,,,,,,,,,FF,,,,,,,,0.683,,,,,,,,,,,,,,,,,,,,,,6100fa7fb0b18ed4c4435d59,61036f0a27167b5fe2888647,2021-07-29_23h16.51.343,Simcolourproject_2stim_asymm_v5,2020.2.10,MacIntel,60,61025ae37ef11b136ea224fe,,,,,,,,,1025,43,-62,1,0,0,response3disk,,4,21,-9,1,0,0,rectangle,21,-9,1,0,0,21,-9,1,0,0,0,76,76,74,1,,,,,,,,
,,,,,,,,,,,,,FF,,,,,,,,0.867,,,,,,,,,,,,,,,,,,,,,,6100fa7fb0b18ed4c4435d59,61036f0a27167b5fe2888647,2021-07-29_23h16.51.343,Simcolourproject_2stim_asymm_v5,2020.2.10,MacIntel,60,61025ae37ef11b136ea224fe,,,,,,,,,2901,-52,-41,1,0,0,response5disk,,2,-5,3,1,0,0,rectangle,-5,3,1,0,0,-5,3,1,0,0,0,77,77,5,1,,,,,,,,
,,,,,,,,,,,,,FF,,,,,,,,0.882,,,,,,,,,,,,,,,,,,,,,,6100fa7fb0b18ed4c4435d59,61036f0a27167b5fe2888647,2021-07-29_23h16.51.343,Simcolourproject_2stim_asymm_v5,2020.2.10,MacIntel,60,61025ae37ef11b136ea224fe,,,,,,,,,30,-35,-54,1,0,0,response5disk,,3,-9,-4,1,0,0,rectangle,-9,-4,1,0,0,-9,-4,1,0,0,0,78,78,22,1,,,,,,,,
,,,,,,,,,,,,,FF,,,,,,,,0.716,,,,,,,,,,,,,,,,,,,,,,6100fa7fb0b18ed4c4435d59,61036f0a27167b5fe2888647,2021-07-29_23h16.51.343,Simcolourproject_2stim_asymm_v5,2020.2.10,MacIntel,60,61025ae37ef11b136ea224fe,,,,,,,,,327,31,-68,1,0,0,response3disk,,4,13,3,1,0,0,rectangle,13,3,1,0,0,13,3,1,0,0,0,79,79,93,1,,,,,,,,
,,,,,,,,,,,,,FF,,,,,,,,0.751,,,,,,,,,,,,,,,,,,,,,,6100fa7fb0b18ed4c4435d59,61036f0a27167b5fe2888647,2021-07-29_23h16.51.343,Simcolourproject_2stim_asymm_v5,2020.2.10,MacIntel,60,61025ae37ef11b136ea224fe,,,,,,,,,1085,15,-69,1,0,0,response3disk,,4,-3,-18,1,0,0,rectangle,-3,-18,1,0,0,-3,-18,1,0,0,0,80,80,72,1,,,,,,,,
,,,,,,,,,,,,,FF,,,,,,,,0.65,,,,,,,,,,,,,,,,,,,,,,6100fa7fb0b18ed4c4435d59,61036f0a27167b5fe2888647,2021-07-29_23h16.51.343,Simcolourproject_2stim_asymm_v5,2020.2.10,MacIntel,60,61025ae37ef11b136ea224fe,,,,,,,,,1317,56,-22,1,0,0,response3disk,,5,-12,-4,1,0,0,rectangle,-12,-4,1,0,0,-12,-4,1,0,0,0,81,81,71,1,,,,,,,,
,,,,,,,,,,,,,FF,,,,,,,,0.767,,,,,,,,,,,,,,,,,,,,,,6100fa7fb0b18ed4c4435d59,61036f0a27167b5fe2888647,2021-07-29_23h16.51.343,Simcolourproject_2stim_asymm_v5,2020.2.10,MacIntel,60,61025ae37ef11b136ea224fe,,,,,,,,,1233,-30,-56,1,0,0,response5disk,,3,-19,1,1,0,0,rectangle,-19,1,1,0,0,-19,1,1,0,0,0,82,82,28,1,,,,,,,,
,,,,,,,,,,,,,FF,,,,,,,,1.016,,,,,,,,,,,,,,,,,,,,,,6100fa7fb0b18ed4c4435d59,61036f0a27167b5fe2888647,2021-07-29_23h16.51.343,Simcolourproject_2stim_asymm_v5,2020.2.10,MacIntel,60,61025ae37ef11b136ea224fe,,,,,,,,,444,-61,-48,1,0,0,response5disk,,2,-22,-18,1,0,0,rectangle,-22,-18,1,0,0,-22,-18,1,0,0,0,83,83,136,1,,,,,,,,
,,,,,,,,,,,,,FF,,,,,,,,1.333,,,,,,,,,,,,,,,,,,,,,,6100fa7fb0b18ed4c4435d59,61036f0a27167b5fe2888647,2021-07-29_23h16.51.343,Simcolourproject_2stim_asymm_v5,2020.2.10,MacIntel,60,61025ae37ef11b136ea224fe,,,,,,,,,428,73,31,1,0,0,response1disk,,6,7,5,1,0,0,rectangle,7,5,1,0,0,7,5,1,0,0,0,84,84,115,1,,,,,,,,
,,,,,,,,,,,,,FF,,,,,,,,0.767,,,,,,,,,,,,,,,,,,,,,,6100fa7fb0b18ed4c4435d59,61036f0a27167b5fe2888647,2021-07-29_23h16.51.343,Simcolourproject_2stim_asymm_v5,2020.2.10,MacIntel,60,61025ae37ef11b136ea224fe,,,,,,,,,696,74,26,1,0,0,response1disk,,6,9,6,1,0,0,rectangle,9,6,1,0,0,9,6,1,0,0,0,85,85,24,1,,,,,,,,
,,,,,,,,,,,,,FF,,,,,,,,0.584,,,,,,,,,,,,,,,,,,,,,,6100fa7fb0b18ed4c4435d59,61036f0a27167b5fe2888647,2021-07-29_23h16.51.343,Simcolourproject_2stim_asymm_v5,2020.2.10,MacIntel,60,61025ae37ef11b136ea224fe,,,,,,,,,1631,70,37,1,0,0,response1disk,,6,8,16,1,0,0,rectangle,8,16,1,0,0,8,16,1,0,0,0,86,86,18,1,,,,,,,,
,,,,,,,,,,,,,FF,,,,,,,,0.933,,,,,,,,,,,,,,,,,,,,,,6100fa7fb0b18ed4c4435d59,61036f0a27167b5fe2888647,2021-07-29_23h16.51.343,Simcolourproject_2stim_asymm_v5,2020.2.10,MacIntel,60,61025ae37ef11b136ea224fe,,,,,,,,,2425,-72,-50,1,0,0,response5disk,,2,-5,-2,1,0,0,rectangle,-5,-2,1,0,0,-5,-2,1,0,0,0,87,87,7,1,,,,,,,,
,,,,,,,,,,,,,FF,,,,,,,,1.4,,,,,,,,,,,,,,,,,,,,,,6100fa7fb0b18ed4c4435d59,61036f0a27167b5fe2888647,2021-07-29_23h16.51.343,Simcolourproject_2stim_asymm_v5,2020.2.10,MacIntel,60,61025ae37ef11b136ea224fe,,,,,,,,,4331,-67,46,1,0,0,response7disk,,1,-9,13,1,0,0,rectangle,-9,13,1,0,0,-9,13,1,0,0,0,88,88,61,1,,,,,,,,
,,,,,,,,,,,,,FF,,,,,,,,1.034,,,,,,,,,,,,,,,,,,,,,,6100fa7fb0b18ed4c4435d59,61036f0a27167b5fe2888647,2021-07-29_23h16.51.343,Simcolourproject_2stim_asymm_v5,2020.2.10,MacIntel,60,61025ae37ef11b136ea224fe,,,,,,,,,405,34,-53,1,0,0,response3disk,,4,22,-7,1,0,0,rectangle,22,-7,1,0,0,22,-7,1,0,0,0,89,89,149,1,,,,,,,,
,,,,,,,,,,,,,FF,,,,,,,,0.95,,,,,,,,,,,,,,,,,,,,,,6100fa7fb0b18ed4c4435d59,61036f0a27167b5fe2888647,2021-07-29_23h16.51.343,Simcolourproject_2stim_asymm_v5,2020.2.10,MacIntel,60,61025ae37ef11b136ea224fe,,,,,,,,,1752,-77,41,1,0,0,response7disk,,1,-26,12,1,0,0,rectangle,-26,12,1,0,0,-26,12,1,0,0,0,90,90,112,1,,,,,,,,
,,,,,,,,,,,,,FF,,,,,,,,0.916,,,,,,,,,,,,,,,,,,,,,,6100fa7fb0b18ed4c4435d59,61036f0a27167b5fe2888647,2021-07-29_23h16.51.343,Simcolourproject_2stim_asymm_v5,2020.2.10,MacIntel,60,61025ae37ef11b136ea224fe,,,,,,,,,2031,-35,71,1,0,0,response7disk,,0,-24,10,1,0,0,rectangle,-24,10,1,0,0,-24,10,1,0,0,0,91,91,44,1,,,,,,,,
,,,,,,,,,,,,,FF,,,,,,,,0.85,,,,,,,,,,,,,,,,,,,,,,6100fa7fb0b18ed4c4435d59,61036f0a27167b5fe2888647,2021-07-29_23h16.51.343,Simcolourproject_2stim_asymm_v5,2020.2.10,MacIntel,60,61025ae37ef11b136ea224fe,,,,,,,,,1432,26,-47,1,0,0,response3disk,,4,-6,-14,1,0,0,rectangle,-6,-14,1,0,0,-6,-14,1,0,0,0,92,92,8,1,,,,,,,,
,,,,,,,,,,,,,FF,,,,,,,,0.867,,,,,,,,,,,,,,,,,,,,,,6100fa7fb0b18ed4c4435d59,61036f0a27167b5fe2888647,2021-07-29_23h16.51.343,Simcolourproject_2stim_asymm_v5,2020.2.10,MacIntel,60,61025ae37ef11b136ea224fe,,,,,,,,,3001,-41,-57,1,0,0,response5disk,,3,-22,2,1,0,0,rectangle,-22,2,1,0,0,-22,2,1,0,0,0,93,93,50,1,,,,,,,,
,,,,,,,,,,,,,FF,,,,,,,,0.75,,,,,,,,,,,,,,,,,,,,,,6100fa7fb0b18ed4c4435d59,61036f0a27167b5fe2888647,2021-07-29_23h16.51.343,Simcolourproject_2stim_asymm_v5,2020.2.10,MacIntel,60,61025ae37ef11b136ea224fe,,,,,,,,,2706,30,-48,1,0,0,response3disk,,4,22,-14,1,0,0,rectangle,22,-14,1,0,0,22,-14,1,0,0,0,94,94,153,1,,,,,,,,
,,,,,,,,,,,,,FF,,,,,,,,0.885,,,,,,,,,,,,,,,,,,,,,,6100fa7fb0b18ed4c4435d59,61036f0a27167b5fe2888647,2021-07-29_23h16.51.343,Simcolourproject_2stim_asymm_v5,2020.2.10,MacIntel,60,61025ae37ef11b136ea224fe,,,,,,,,,4323,59,-18,1,0,0,response3disk,,5,22,4,1,0,0,rectangle,22,4,1,0,0,22,4,1,0,0,0,95,95,98,1,,,,,,,,
,,,,,,,,,,,,,FF,,,,,,,,1.099,,,,,,,,,,,,,,,,,,,,,,6100fa7fb0b18ed4c4435d59,61036f0a27167b5fe2888647,2021-07-29_23h16.51.343,Simcolourproject_2stim_asymm_v5,2020.2.10,MacIntel,60,61025ae37ef11b136ea224fe,,,,,,,,,3714,38,-59,1,0,0,response3disk,,4,32,-16,1,0,0,rectangle,32,-16,1,0,0,32,-16,1,0,0,0,96,96,147,1,,,,,,,,
,,,,,,,,,,,,,FF,,,,,,,,1.017,,,,,,,,,,,,,,,,,,,,,,6100fa7fb0b18ed4c4435d59,61036f0a27167b5fe2888647,2021-07-29_23h16.51.343,Simcolourproject_2stim_asymm_v5,2020.2.10,MacIntel,60,61025ae37ef11b136ea224fe,,,,,,,,,3029,28,55,1,0,0,response1disk,,7,11,1,1,0,0,rectangle,11,1,1,0,0,11,1,1,0,0,0,97,97,113,1,,,,,,,,
,,,,,,,,,,,,,FF,,,,,,,,0.733,,,,,,,,,,,,,,,,,,,,,,6100fa7fb0b18ed4c4435d59,61036f0a27167b5fe2888647,2021-07-29_23h16.51.343,Simcolourproject_2stim_asymm_v5,2020.2.10,MacIntel,60,61025ae37ef11b136ea224fe,,,,,,,,,2400,67,30,1,0,0,response1disk,,6,13,-2,1,0,0,rectangle,13,-2,1,0,0,13,-2,1,0,0,0,98,98,106,1,,,,,,,,
,,,,,,,,,,,,,FF,,,,,,,,1.75,,,,,,,,,,,,,,,,,,,,,,6100fa7fb0b18ed4c4435d59,61036f0a27167b5fe2888647,2021-07-29_23h16.51.343,Simcolourproject_2stim_asymm_v5,2020.2.10,MacIntel,60,61025ae37ef11b136ea224fe,,,,,,,,,446,49,34,1,0,0,response1disk,,6,8,-2,1,0,0,rectangle,67,28,1,0,0,-9,-8,1,0,0,0,99,99,6,1,,response1disk_3,TRUE,6,6,"[115,45,234,102,138,149,185,290,118,274,110,311,100,102,182,184,129,139,74,150]",1.449,rectangle
,,,,,,,,,,,,,FF,,,,,,,,0.983,,,,,,,,,,,,,,,,,,,,,,6100fa7fb0b18ed4c4435d59,61036f0a27167b5fe2888647,2021-07-29_23h16.51.343,Simcolourproject_2stim_asymm_v5,2020.2.10,MacIntel,60,61025ae37ef11b136ea224fe,,,,,,,,,3706,-87,-26,1,0,0,response5disk,,2,-13,4,1,0,0,rectangle,-13,4,1,0,0,-13,4,1,0,0,0,100,100,154,1,,,,,,,,
,,,,,,,,,,,,,FF,,,,,,,,0.684,,,,,,,,,,,,,,,,,,,,,,6100fa7fb0b18ed4c4435d59,61036f0a27167b5fe2888647,2021-07-29_23h16.51.343,Simcolourproject_2stim_asymm_v5,2020.2.10,MacIntel,60,61025ae37ef11b136ea224fe,,,,,,,,,95,-72,35,1,0,0,response7disk,,1,4,13,1,0,0,rectangle,-68,27,1,0,0,-16,8,1,0,0,0,101,101,152,1,,response7disk_3,TRUE,1,1,"[115,45,234,102,138,149,185,290,118,274,110,311,100,102,182,184,129,139,74,150]",1.416,rectangle
,,,,,,,,,,,,,FF,,,,,,,,1.866,,,,,,,,,,,,,,,,,,,,,,6100fa7fb0b18ed4c4435d59,61036f0a27167b5fe2888647,2021-07-29_23h16.51.343,Simcolourproject_2stim_asymm_v5,2020.2.10,MacIntel,60,61025ae37ef11b136ea224fe,,,,,,,,,3764,-21,-40,1,0,0,response5disk,,3,-5,-8,1,0,0,rectangle,-5,-8,1,0,0,-5,-8,1,0,0,0,102,102,37,1,,,,,,,,
,,,,,,,,,,,,,FF,,,,,,,,0.782,,,,,,,,,,,,,,,,,,,,,,6100fa7fb0b18ed4c4435d59,61036f0a27167b5fe2888647,2021-07-29_23h16.51.343,Simcolourproject_2stim_asymm_v5,2020.2.10,MacIntel,60,61025ae37ef11b136ea224fe,,,,,,,,,2052,24,-54,1,0,0,response3disk,,4,6,-2,1,0,0,rectangle,6,-2,1,0,0,6,-2,1,0,0,0,103,103,51,1,,,,,,,,
,,,,,,,,,,,,,FF,,,,,,,,0.75,,,,,,,,,,,,,,,,,,,,,,6100fa7fb0b18ed4c4435d59,61036f0a27167b5fe2888647,2021-07-29_23h16.51.343,Simcolourproject_2stim_asymm_v5,2020.2.10,MacIntel,60,61025ae37ef11b136ea224fe,,,,,,,,,1462,-41,-78,1,0,0,response5disk,,3,-26,-17,1,0,0,rectangle,-26,-17,1,0,0,-26,-17,1,0,0,0,104,104,15,1,,,,,,,,
,,,,,,,,,,,,,FF,,,,,,,,1.617,,,,,,,,,,,,,,,,,,,,,,6100fa7fb0b18ed4c4435d59,61036f0a27167b5fe2888647,2021-07-29_23h16.51.343,Simcolourproject_2stim_asymm_v5,2020.2.10,MacIntel,60,61025ae37ef11b136ea224fe,,,,,,,,,1310,-43,-59,1,0,0,response5disk,,3,-34,8,1,0,0,rectangle,-34,8,1,0,0,-34,8,1,0,0,0,105,105,68,1,,,,,,,,
,,,,,,,,,,,,,FF,,,,,,,,0.601,,,,,,,,,,,,,,,,,,,,,,6100fa7fb0b18ed4c4435d59,61036f0a27167b5fe2888647,2021-07-29_23h16.51.343,Simcolourproject_2stim_asymm_v5,2020.2.10,MacIntel,60,61025ae37ef11b136ea224fe,,,,,,,,,3158,-63,-41,1,0,0,response5disk,,2,-20,-8,1,0,0,rectangle,-20,-8,1,0,0,-20,-8,1,0,0,0,106,106,144,1,,,,,,,,
,,,,,,,,,,,,,FF,,,,,,,,0.633,,,,,,,,,,,,,,,,,,,,,,6100fa7fb0b18ed4c4435d59,61036f0a27167b5fe2888647,2021-07-29_23h16.51.343,Simcolourproject_2stim_asymm_v5,2020.2.10,MacIntel,60,61025ae37ef11b136ea224fe,,,,,,,,,2209,33,-57,1,0,0,response3disk,,4,25,-14,1,0,0,rectangle,25,-14,1,0,0,25,-14,1,0,0,0,107,107,122,1,,,,,,,,
,,,,,,,,,,,,,FF,,,,,,,,0.516,,,,,,,,,,,,,,,,,,,,,,6100fa7fb0b18ed4c4435d59,61036f0a27167b5fe2888647,2021-07-29_23h16.51.343,Simcolourproject_2stim_asymm_v5,2020.2.10,MacIntel,60,61025ae37ef11b136ea224fe,,,,,,,,,2497,22,-74,1,0,0,response3disk,,4,20,-10,1,0,0,rectangle,20,-10,1,0,0,20,-10,1,0,0,0,108,108,158,1,,,,,,,,
,,,,,,,,,,,,,FF,,,,,,,,0.783,,,,,,,,,,,,,,,,,,,,,,6100fa7fb0b18ed4c4435d59,61036f0a27167b5fe2888647,2021-07-29_23h16.51.343,Simcolourproject_2stim_asymm_v5,2020.2.10,MacIntel,60,61025ae37ef11b136ea224fe,,,,,,,,,598,61,-40,1,0,0,response3disk,,5,9,-11,1,0,0,rectangle,-42,65,1,0,0,-13,-10,1,0,0,0,109,109,117,1,,response7disk_3,TRUE,0,0,"[115,45,234,102,138,149,185,290,118,274,110,311,100,102,182,184,129,139,74,150]",1.765,rectangle
,,,,,,,,,,,,,FF,,,,,,,,0.984,,,,,,,,,,,,,,,,,,,,,,6100fa7fb0b18ed4c4435d59,61036f0a27167b5fe2888647,2021-07-29_23h16.51.343,Simcolourproject_2stim_asymm_v5,2020.2.10,MacIntel,60,61025ae37ef11b136ea224fe,,,,,,,,,831,39,-69,1,0,0,response3disk,,4,2,-6,1,0,0,rectangle,2,-6,1,0,0,2,-6,1,0,0,0,110,110,83,1,,,,,,,,
,,,,,,,,,,,,,FF,,,,,,,,1.066,,,,,,,,,,,,,,,,,,,,,,6100fa7fb0b18ed4c4435d59,61036f0a27167b5fe2888647,2021-07-29_23h16.51.343,Simcolourproject_2stim_asymm_v5,2020.2.10,MacIntel,60,61025ae37ef11b136ea224fe,,,,,,,,,4102,-71,36,1,0,0,response7disk,,1,-14,12,1,0,0,rectangle,-14,12,1,0,0,-14,12,1,0,0,0,111,111,41,1,,,,,,,,
,,,,,,,,,,,,,FF,,,,,,,,0.634,,,,,,,,,,,,,,,,,,,,,,6100fa7fb0b18ed4c4435d59,61036f0a27167b5fe2888647,2021-07-29_23h16.51.343,Simcolourproject_2stim_asymm_v5,2020.2.10,MacIntel,60,61025ae37ef11b136ea224fe,,,,,,,,,1635,31,-58,1,0,0,response3disk,,4,13,-14,1,0,0,rectangle,13,-14,1,0,0,13,-14,1,0,0,0,112,112,34,1,,,,,,,,
,,,,,,,,,,,,,FF,,,,,,,,0.8,,,,,,,,,,,,,,,,,,,,,,6100fa7fb0b18ed4c4435d59,61036f0a27167b5fe2888647,2021-07-29_23h16.51.343,Simcolourproject_2stim_asymm_v5,2020.2.10,MacIntel,60,61025ae37ef11b136ea224fe,,,,,,,,,99,-25,-51,1,0,0,response5disk,,3,-11,-11,1,0,0,rectangle,-11,-11,1,0,0,-11,-11,1,0,0,0,113,113,78,1,,,,,,,,
,,,,,,,,,,,,,FF,,,,,,,,0.601,,,,,,,,,,,,,,,,,,,,,,6100fa7fb0b18ed4c4435d59,61036f0a27167b5fe2888647,2021-07-29_23h16.51.343,Simcolourproject_2stim_asymm_v5,2020.2.10,MacIntel,60,61025ae37ef11b136ea224fe,,,,,,,,,3346,35,-46,1,0,0,response3disk,,4,12,3,1,0,0,rectangle,67,-20,1,0,0,14,-6,1,0,0,0,114,114,151,1,,response3disk_3,TRUE,5,5,"[115,45,234,102,138,149,185,290,118,274,110,311,100,102,182,184,129,139,74,150]",1.4,rectangle
,,,,,,,,,,,,,FF,,,,,,,,0.75,,,,,,,,,,,,,,,,,,,,,,6100fa7fb0b18ed4c4435d59,61036f0a27167b5fe2888647,2021-07-29_23h16.51.343,Simcolourproject_2stim_asymm_v5,2020.2.10,MacIntel,60,61025ae37ef11b136ea224fe,,,,,,,,,2148,39,-65,1,0,0,response3disk,,4,-7,-6,1,0,0,rectangle,-7,-6,1,0,0,-7,-6,1,0,0,0,115,115,90,1,,,,,,,,
,,,,,,,,,,,,,FF,,,,,,,,1.949,,,,,,,,,,,,,,,,,,,,,,6100fa7fb0b18ed4c4435d59,61036f0a27167b5fe2888647,2021-07-29_23h16.51.343,Simcolourproject_2stim_asymm_v5,2020.2.10,MacIntel,60,61025ae37ef11b136ea224fe,,,,,,,,,1295,58,-34,1,0,0,response3disk,,5,16,-17,1,0,0,rectangle,16,-17,1,0,0,16,-17,1,0,0,0,116,116,150,1,,,,,,,,
,,,,,,,,,,,,,FF,,,,,,,,0.85,,,,,,,,,,,,,,,,,,,,,,6100fa7fb0b18ed4c4435d59,61036f0a27167b5fe2888647,2021-07-29_23h16.51.343,Simcolourproject_2stim_asymm_v5,2020.2.10,MacIntel,60,61025ae37ef11b136ea224fe,,,,,,,,,1198,31,-49,1,0,0,response3disk,,4,7,-7,1,0,0,rectangle,32,63,1,0,0,20,-7,1,0,0,0,117,117,84,1,,response1disk_3,TRUE,7,7,"[115,45,234,102,138,149,185,290,118,274,110,311,100,102,182,184,129,139,74,150]",2.032,rectangle
,,,,,,,,,,,,,FF,,,,,,,,1.917,,,,,,,,,,,,,,,,,,,,,,6100fa7fb0b18ed4c4435d59,61036f0a27167b5fe2888647,2021-07-29_23h16.51.343,Simcolourproject_2stim_asymm_v5,2020.2.10,MacIntel,60,61025ae37ef11b136ea224fe,,,,,,,,,1048,28,63,1,0,0,response1disk,,7,11,5,1,0,0,rectangle,11,5,1,0,0,11,5,1,0,0,0,118,118,13,1,,,,,,,,
,,,,,,,,,,,,,FF,,,,,,,,1.233,,,,,,,,,,,,,,,,,,,,,,6100fa7fb0b18ed4c4435d59,61036f0a27167b5fe2888647,2021-07-29_23h16.51.343,Simcolourproject_2stim_asymm_v5,2020.2.10,MacIntel,60,61025ae37ef11b136ea224fe,,,,,,,,,3519,-82,-32,1,0,0,response5disk,,2,0,-9,1,0,0,rectangle,0,-9,1,0,0,0,-9,1,0,0,0,119,119,95,1,,,,,,,,
,,,,,,,,,,,,,FF,,,,,,,,0.734,,,,,,,,,,,,,,,,,,,,,,6100fa7fb0b18ed4c4435d59,61036f0a27167b5fe2888647,2021-07-29_23h16.51.343,Simcolourproject_2stim_asymm_v5,2020.2.10,MacIntel,60,61025ae37ef11b136ea224fe,,,,,,,,,2721,-56,-37,1,0,0,response5disk,,2,-12,8,1,0,0,rectangle,-12,8,1,0,0,-12,8,1,0,0,0,120,120,73,1,,,,,,,,
,,,,,,,,,,,,,FF,,,,,,,,1.633,,,,,,,,,,,,,,,,,,,,,,6100fa7fb0b18ed4c4435d59,61036f0a27167b5fe2888647,2021-07-29_23h16.51.343,Simcolourproject_2stim_asymm_v5,2020.2.10,MacIntel,60,61025ae37ef11b136ea224fe,,,,,,,,,3688,64,33,1,0,0,response1disk,,6,9,-9,1,0,0,rectangle,9,-9,1,0,0,9,-9,1,0,0,0,121,121,60,1,,,,,,,,
,,,,,,,,,,,,,FF,,,,,,,,1.3,,,,,,,,,,,,,,,,,,,,,,6100fa7fb0b18ed4c4435d59,61036f0a27167b5fe2888647,2021-07-29_23h16.51.343,Simcolourproject_2stim_asymm_v5,2020.2.10,MacIntel,60,61025ae37ef11b136ea224fe,,,,,,,,,1065,33,-61,1,0,0,response3disk,,4,4,-9,1,0,0,rectangle,4,-9,1,0,0,4,-9,1,0,0,0,122,122,140,1,,,,,,,,
,,,,,,,,,,,,,FF,,,,,,,,0.95,,,,,,,,,,,,,,,,,,,,,,6100fa7fb0b18ed4c4435d59,61036f0a27167b5fe2888647,2021-07-29_23h16.51.343,Simcolourproject_2stim_asymm_v5,2020.2.10,MacIntel,60,61025ae37ef11b136ea224fe,,,,,,,,,3599,-68,47,1,0,0,response7disk,,1,-31,7,1,0,0,rectangle,-31,7,1,0,0,-31,7,1,0,0,0,123,123,109,1,,,,,,,,
,,,,,,,,,,,,,FF,,,,,,,,1.015,,,,,,,,,,,,,,,,,,,,,,6100fa7fb0b18ed4c4435d59,61036f0a27167b5fe2888647,2021-07-29_23h16.51.343,Simcolourproject_2stim_asymm_v5,2020.2.10,MacIntel,60,61025ae37ef11b136ea224fe,,,,,,,,,2351,30,-65,1,0,0,response3disk,,4,-13,7,1,0,0,rectangle,-13,7,1,0,0,-13,7,1,0,0,0,124,124,105,1,,,,,,,,
,,,,,,,,,,,,,FF,,,,,,,,1.017,,,,,,,,,,,,,,,,,,,,,,6100fa7fb0b18ed4c4435d59,61036f0a27167b5fe2888647,2021-07-29_23h16.51.343,Simcolourproject_2stim_asymm_v5,2020.2.10,MacIntel,60,61025ae37ef11b136ea224fe,,,,,,,,,3952,-70,-33,1,0,0,response5disk,,2,-5,-6,1,0,0,rectangle,-5,-6,1,0,0,-5,-6,1,0,0,0,125,125,26,1,,,,,,,,
,,,,,,,,,,,,,FF,,,,,,,,0.867,,,,,,,,,,,,,,,,,,,,,,6100fa7fb0b18ed4c4435d59,61036f0a27167b5fe2888647,2021-07-29_23h16.51.343,Simcolourproject_2stim_asymm_v5,2020.2.10,MacIntel,60,61025ae37ef11b136ea224fe,,,,,,,,,3966,-72,66,1,0,0,response7disk,,1,-12,2,1,0,0,rectangle,-12,2,1,0,0,-12,2,1,0,0,0,126,126,59,1,,,,,,,,
,,,,,,,,,,,,,FF,,,,,,,,0.716,,,,,,,,,,,,,,,,,,,,,,6100fa7fb0b18ed4c4435d59,61036f0a27167b5fe2888647,2021-07-29_23h16.51.343,Simcolourproject_2stim_asymm_v5,2020.2.10,MacIntel,60,61025ae37ef11b136ea224fe,,,,,,,,,3205,-77,39,1,0,0,response7disk,,1,-28,17,1,0,0,rectangle,-28,17,1,0,0,-28,17,1,0,0,0,127,127,38,1,,,,,,,,
,,,,,,,,,,,,,FF,,,,,,,,2.183,,,,,,,,,,,,,,,,,,,,,,6100fa7fb0b18ed4c4435d59,61036f0a27167b5fe2888647,2021-07-29_23h16.51.343,Simcolourproject_2stim_asymm_v5,2020.2.10,MacIntel,60,61025ae37ef11b136ea224fe,,,,,,,,,870,-29,-67,1,0,0,response5disk,,3,3,-6,1,0,0,rectangle,-70,-35,1,0,0,-11,-2,1,0,0,0,128,128,119,1,,response5disk_3,TRUE,2,2,"[115,45,234,102,138,149,185,290,118,274,110,311,100,102,182,184,129,139,74,150]",1.532,rectangle
,,,,,,,,,,,,,FF,,,,,,,,0.849,,,,,,,,,,,,,,,,,,,,,,6100fa7fb0b18ed4c4435d59,61036f0a27167b5fe2888647,2021-07-29_23h16.51.343,Simcolourproject_2stim_asymm_v5,2020.2.10,MacIntel,60,61025ae37ef11b136ea224fe,,,,,,,,,2468,19,-65,1,0,0,response3disk,,4,-5,-1,1,0,0,rectangle,-5,-1,1,0,0,-5,-1,1,0,0,0,129,129,108,1,,,,,,,,
,,,,,,,,,,,,,FF,,,,,,,,0.8,,,,,,,,,,,,,,,,,,,,,,6100fa7fb0b18ed4c4435d59,61036f0a27167b5fe2888647,2021-07-29_23h16.51.343,Simcolourproject_2stim_asymm_v5,2020.2.10,MacIntel,60,61025ae37ef11b136ea224fe,,,,,,,,,3603,27,-60,1,0,0,response3disk,,4,11,-3,1,0,0,rectangle,11,-3,1,0,0,11,-3,1,0,0,0,130,130,118,1,,,,,,,,
,,,,,,,,,,,,,FF,,,,,,,,1.134,,,,,,,,,,,,,,,,,,,,,,6100fa7fb0b18ed4c4435d59,61036f0a27167b5fe2888647,2021-07-29_23h16.51.343,Simcolourproject_2stim_asymm_v5,2020.2.10,MacIntel,60,61025ae37ef11b136ea224fe,,,,,,,,,3727,12,50,1,0,0,response1disk,,7,3,-11,1,0,0,rectangle,3,-11,1,0,0,3,-11,1,0,0,0,131,131,55,1,,,,,,,,
,,,,,,,,,,,,,FF,,,,,,,,0.816,,,,,,,,,,,,,,,,,,,,,,6100fa7fb0b18ed4c4435d59,61036f0a27167b5fe2888647,2021-07-29_23h16.51.343,Simcolourproject_2stim_asymm_v5,2020.2.10,MacIntel,60,61025ae37ef11b136ea224fe,,,,,,,,,3454,50,-19,1,0,0,response3disk,,5,-2,-10,1,0,0,rectangle,-2,-10,1,0,0,-2,-10,1,0,0,0,132,132,159,1,,,,,,,,
,,,,,,,,,,,,,FF,,,,,,,,0.833,,,,,,,,,,,,,,,,,,,,,,6100fa7fb0b18ed4c4435d59,61036f0a27167b5fe2888647,2021-07-29_23h16.51.343,Simcolourproject_2stim_asymm_v5,2020.2.10,MacIntel,60,61025ae37ef11b136ea224fe,,,,,,,,,2364,-35,-73,1,0,0,response5disk,,3,-3,2,1,0,0,rectangle,-3,2,1,0,0,-3,2,1,0,0,0,133,133,101,1,,,,,,,,
,,,,,,,,,,,,,FF,,,,,,,,0.832,,,,,,,,,,,,,,,,,,,,,,6100fa7fb0b18ed4c4435d59,61036f0a27167b5fe2888647,2021-07-29_23h16.51.343,Simcolourproject_2stim_asymm_v5,2020.2.10,MacIntel,60,61025ae37ef11b136ea224fe,,,,,,,,,3025,58,31,1,0,0,response1disk,,6,-3,-1,1,0,0,rectangle,-3,-1,1,0,0,-3,-1,1,0,0,0,134,134,35,1,,,,,,,,
,,,,,,,,,,,,,FF,,,,,,,,1.065,,,,,,,,,,,,,,,,,,,,,,6100fa7fb0b18ed4c4435d59,61036f0a27167b5fe2888647,2021-07-29_23h16.51.343,Simcolourproject_2stim_asymm_v5,2020.2.10,MacIntel,60,61025ae37ef11b136ea224fe,,,,,,,,,4359,-89,37,1,0,0,response7disk,,1,-15,14,1,0,0,rectangle,-15,14,1,0,0,-15,14,1,0,0,0,135,135,14,1,,,,,,,,
,,,,,,,,,,,,,FF,,,,,,,,1.15,,,,,,,,,,,,,,,,,,,,,,6100fa7fb0b18ed4c4435d59,61036f0a27167b5fe2888647,2021-07-29_23h16.51.343,Simcolourproject_2stim_asymm_v5,2020.2.10,MacIntel,60,61025ae37ef11b136ea224fe,,,,,,,,,2267,32,-55,1,0,0,response3disk,,4,28,-4,1,0,0,rectangle,28,-4,1,0,0,28,-4,1,0,0,0,136,136,19,1,,,,,,,,
,,,,,,,,,,,,,FF,,,,,,,,0.617,,,,,,,,,,,,,,,,,,,,,,6100fa7fb0b18ed4c4435d59,61036f0a27167b5fe2888647,2021-07-29_23h16.51.343,Simcolourproject_2stim_asymm_v5,2020.2.10,MacIntel,60,61025ae37ef11b136ea224fe,,,,,,,,,451,21,-57,1,0,0,response3disk,,4,14,-4,1,0,0,rectangle,64,-32,1,0,0,12,-9,1,0,0,0,137,137,29,1,,response3disk_3,TRUE,5,5,"[115,45,234,102,138,149,185,290,118,274,110,311,100,102,182,184,129,139,74,150]",1.418,rectangle
,,,,,,,,,,,,,FF,,,,,,,,1.633,,,,,,,,,,,,,,,,,,,,,,6100fa7fb0b18ed4c4435d59,61036f0a27167b5fe2888647,2021-07-29_23h16.51.343,Simcolourproject_2stim_asymm_v5,2020.2.10,MacIntel,60,61025ae37ef11b136ea224fe,,,,,,,,,40,60,-29,1,0,0,response3disk,,5,1,-1,1,0,0,rectangle,-40,66,1,0,0,-14,-9,1,0,0,0,138,138,89,1,,response7disk_3,TRUE,0,0,"[115,45,234,102,138,149,185,290,118,274,110,311,100,102,182,184,129,139,74,150]",1.199,rectangle
,,,,,,,,,,,,,FF,,,,,,,,0.917,,,,,,,,,,,,,,,,,,,,,,6100fa7fb0b18ed4c4435d59,61036f0a27167b5fe2888647,2021-07-29_23h16.51.343,Simcolourproject_2stim_asymm_v5,2020.2.10,MacIntel,60,61025ae37ef11b136ea224fe,,,,,,,,,3106,-73,-22,1,0,0,response5disk,,2,-15,-9,1,0,0,rectangle,-15,-9,1,0,0,-15,-9,1,0,0,0,139,139,3,1,,,,,,,,
,,,,,,,,,,,,,FF,,,,,,,,1.55,,,,,,,,,,,,,,,,,,,,,,6100fa7fb0b18ed4c4435d59,61036f0a27167b5fe2888647,2021-07-29_23h16.51.343,Simcolourproject_2stim_asymm_v5,2020.2.10,MacIntel,60,61025ae37ef11b136ea224fe,,,,,,,,,2275,56,27,1,0,0,response1disk,,6,2,-6,1,0,0,rectangle,2,-6,1,0,0,2,-6,1,0,0,0,140,140,121,1,,,,,,,,
,,,,,,,,,,,,,FF,,,,,,,,0.717,,,,,,,,,,,,,,,,,,,,,,6100fa7fb0b18ed4c4435d59,61036f0a27167b5fe2888647,2021-07-29_23h16.51.343,Simcolourproject_2stim_asymm_v5,2020.2.10,MacIntel,60,61025ae37ef11b136ea224fe,,,,,,,,,3804,39,-22,1,0,0,response3disk,,5,11,-14,1,0,0,rectangle,11,-14,1,0,0,11,-14,1,0,0,0,141,141,64,1,,,,,,,,
,,,,,,,,,,,,,FF,,,,,,,,0.666,,,,,,,,,,,,,,,,,,,,,,6100fa7fb0b18ed4c4435d59,61036f0a27167b5fe2888647,2021-07-29_23h16.51.343,Simcolourproject_2stim_asymm_v5,2020.2.10,MacIntel,60,61025ae37ef11b136ea224fe,,,,,,,,,1081,62,-37,1,0,0,response3disk,,5,19,-13,1,0,0,rectangle,19,-13,1,0,0,19,-13,1,0,0,0,142,142,54,1,,,,,,,,
,,,,,,,,,,,,,FF,,,,,,,,0.501,,,,,,,,,,,,,,,,,,,,,,6100fa7fb0b18ed4c4435d59,61036f0a27167b5fe2888647,2021-07-29_23h16.51.343,Simcolourproject_2stim_asymm_v5,2020.2.10,MacIntel,60,61025ae37ef11b136ea224fe,,,,,,,,,1695,55,-40,1,0,0,response3disk,,5,15,-7,1,0,0,rectangle,15,-7,1,0,0,15,-7,1,0,0,0,143,143,125,1,,,,,,,,
,,,,,,,,,,,,,FF,,,,,,,,0.949,,,,,,,,,,,,,,,,,,,,,,6100fa7fb0b18ed4c4435d59,61036f0a27167b5fe2888647,2021-07-29_23h16.51.343,Simcolourproject_2stim_asymm_v5,2020.2.10,MacIntel,60,61025ae37ef11b136ea224fe,,,,,,,,,353,-21,-56,1,0,0,response5disk,,3,-4,-8,1,0,0,rectangle,-4,-8,1,0,0,-4,-8,1,0,0,0,144,144,82,1,,,,,,,,
,,,,,,,,,,,,,FF,,,,,,,,0.665,,,,,,,,,,,,,,,,,,,,,,6100fa7fb0b18ed4c4435d59,61036f0a27167b5fe2888647,2021-07-29_23h16.51.343,Simcolourproject_2stim_asymm_v5,2020.2.10,MacIntel,60,61025ae37ef11b136ea224fe,,,,,,,,,494,41,-61,1,0,0,response3disk,,4,27,-1,1,0,0,rectangle,27,-1,1,0,0,27,-1,1,0,0,0,145,145,30,1,,,,,,,,
,,,,,,,,,,,,,FF,,,,,,,,0.634,,,,,,,,,,,,,,,,,,,,,,6100fa7fb0b18ed4c4435d59,61036f0a27167b5fe2888647,2021-07-29_23h16.51.343,Simcolourproject_2stim_asymm_v5,2020.2.10,MacIntel,60,61025ae37ef11b136ea224fe,,,,,,,,,778,39,-69,1,0,0,response3disk,,4,21,-8,1,0,0,rectangle,21,-8,1,0,0,21,-8,1,0,0,0,146,146,11,1,,,,,,,,
,,,,,,,,,,,,,FF,,,,,,,,1.399,,,,,,,,,,,,,,,,,,,,,,6100fa7fb0b18ed4c4435d59,61036f0a27167b5fe2888647,2021-07-29_23h16.51.343,Simcolourproject_2stim_asymm_v5,2020.2.10,MacIntel,60,61025ae37ef11b136ea224fe,,,,,,,,,3993,-32,59,1,0,0,response7disk,,0,-17,-15,1,0,0,rectangle,-17,-15,1,0,0,-17,-15,1,0,0,0,147,147,75,1,,,,,,,,
,,,,,,,,,,,,,FF,,,,,,,,0.683,,,,,,,,,,,,,,,,,,,,,,6100fa7fb0b18ed4c4435d59,61036f0a27167b5fe2888647,2021-07-29_23h16.51.343,Simcolourproject_2stim_asymm_v5,2020.2.10,MacIntel,60,61025ae37ef11b136ea224fe,,,,,,,,,2309,17,-57,1,0,0,response3disk,,4,-21,5,1,0,0,rectangle,-32,90,1,0,0,-24,8,1,0,0,0,148,148,85,1,,response7disk_3,TRUE,0,0,"[115,45,234,102,138,149,185,290,118,274,110,311,100,102,182,184,129,139,74,150]",1.233,rectangle
,,,,,,,,,,,,,FF,,,,,,,,2.399,,,,,,,,,,,,,,,,,,,,,,6100fa7fb0b18ed4c4435d59,61036f0a27167b5fe2888647,2021-07-29_23h16.51.343,Simcolourproject_2stim_asymm_v5,2020.2.10,MacIntel,60,61025ae37ef11b136ea224fe,,,,,,,,,4340,68,-56,1,0,0,response3disk,,5,-1,0,1,0,0,rectangle,59,-75,1,0,0,12,-7,1,0,0,0,149,149,76,1,,response3disk_3,TRUE,4,4,"[115,45,234,102,138,149,185,290,118,274,110,311,100,102,182,184,129,139,74,150]",1.933,rectangle
,,,,,,,,,,,,,FF,,,,,,,,0.8,,,,,,,,,,,,,,,,,,,,,,6100fa7fb0b18ed4c4435d59,61036f0a27167b5fe2888647,2021-07-29_23h16.51.343,Simcolourproject_2stim_asymm_v5,2020.2.10,MacIntel,60,61025ae37ef11b136ea224fe,,,,,,,,,1410,31,-54,1,0,0,response3disk,,4,11,2,1,0,0,rectangle,11,2,1,0,0,11,2,1,0,0,0,150,150,43,1,,,,,,,,
,,,,,,,,,,,,,FF,,,,,,,,1.432,,,,,,,,,,,,,,,,,,,,,,6100fa7fb0b18ed4c4435d59,61036f0a27167b5fe2888647,2021-07-29_23h16.51.343,Simcolourproject_2stim_asymm_v5,2020.2.10,MacIntel,60,61025ae37ef11b136ea224fe,,,,,,,,,3605,59,-41,1,0,0,response3disk,,5,16,6,1,0,0,rectangle,16,6,1,0,0,16,6,1,0,0,0,151,151,27,1,,,,,,,,
,,,,,,,,,,,,,FF,,,,,,,,1.033,,,,,,,,,,,,,,,,,,,,,,6100fa7fb0b18ed4c4435d59,61036f0a27167b5fe2888647,2021-07-29_23h16.51.343,Simcolourproject_2stim_asymm_v5,2020.2.10,MacIntel,60,61025ae37ef11b136ea224fe,,,,,,,,,1869,67,30,1,0,0,response1disk,,6,-15,9,1,0,0,rectangle,-15,9,1,0,0,-15,9,1,0,0,0,152,152,80,1,,,,,,,,
,,,,,,,,,,,,,FF,,,,,,,,0.717,,,,,,,,,,,,,,,,,,,,,,6100fa7fb0b18ed4c4435d59,61036f0a27167b5fe2888647,2021-07-29_23h16.51.343,Simcolourproject_2stim_asymm_v5,2020.2.10,MacIntel,60,61025ae37ef11b136ea224fe,,,,,,,,,952,43,-17,1,0,0,response3disk,,5,-7,-1,1,0,0,rectangle,-7,-1,1,0,0,-7,-1,1,0,0,0,153,153,143,1,,,,,,,,
,,,,,,,,,,,,,FF,,,,,,,,0.985,,,,,,,,,,,,,,,,,,,,,,6100fa7fb0b18ed4c4435d59,61036f0a27167b5fe2888647,2021-07-29_23h16.51.343,Simcolourproject_2stim_asymm_v5,2020.2.10,MacIntel,60,61025ae37ef11b136ea224fe,,,,,,,,,2681,-46,-51,1,0,0,response5disk,,3,-33,-8,1,0,0,rectangle,-33,-8,1,0,0,-33,-8,1,0,0,0,154,154,133,1,,,,,,,,
,,,,,,,,,,,,,FF,,,,,,,,0.549,,,,,,,,,,,,,,,,,,,,,,6100fa7fb0b18ed4c4435d59,61036f0a27167b5fe2888647,2021-07-29_23h16.51.343,Simcolourproject_2stim_asymm_v5,2020.2.10,MacIntel,60,61025ae37ef11b136ea224fe,,,,,,,,,567,26,-55,1,0,0,response3disk,,4,18,-3,1,0,0,rectangle,18,-3,1,0,0,18,-3,1,0,0,0,155,155,0,1,,,,,,,,
,,,,,,,,,,,,,FF,,,,,,,,1.15,,,,,,,,,,,,,,,,,,,,,,6100fa7fb0b18ed4c4435d59,61036f0a27167b5fe2888647,2021-07-29_23h16.51.343,Simcolourproject_2stim_asymm_v5,2020.2.10,MacIntel,60,61025ae37ef11b136ea224fe,,,,,,,,,3728,27,87,1,0,0,response1disk,,7,-4,9,1,0,0,rectangle,-4,9,1,0,0,-4,9,1,0,0,0,156,156,138,1,,,,,,,,
,,,,,,,,,,,,,FF,,,,,,,,0.899,,,,,,,,,,,,,,,,,,,,,,6100fa7fb0b18ed4c4435d59,61036f0a27167b5fe2888647,2021-07-29_23h16.51.343,Simcolourproject_2stim_asymm_v5,2020.2.10,MacIntel,60,61025ae37ef11b136ea224fe,,,,,,,,,2063,74,34,1,0,0,response1disk,,6,22,0,1,0,0,rectangle,22,0,1,0,0,22,0,1,0,0,0,157,157,148,1,,,,,,,,
,,,,,,,,,,,,,FF,,,,,,,,0.765,,,,,,,,,,,,,,,,,,,,,,6100fa7fb0b18ed4c4435d59,61036f0a27167b5fe2888647,2021-07-29_23h16.51.343,Simcolourproject_2stim_asymm_v5,2020.2.10,MacIntel,60,61025ae37ef11b136ea224fe,,,,,,,,,63,48,-37,1,0,0,response3disk,,5,-10,9,1,0,0,rectangle,-10,9,1,0,0,-10,9,1,0,0,0,158,158,139,1,,,,,,,,
,,,,,,,,,,,,,FF,,,,,,,,0.767,,,,,,,,,,,,,,,,,,,,,,6100fa7fb0b18ed4c4435d59,61036f0a27167b5fe2888647,2021-07-29_23h16.51.343,Simcolourproject_2stim_asymm_v5,2020.2.10,MacIntel,60,61025ae37ef11b136ea224fe,,,,,,,,,2203,34,-58,1,0,0,response3disk,,4,-2,5,1,0,0,rectangle,-2,5,1,0,0,-2,5,1,0,0,0,159,159,157,1,,,,,,,,
,,,,,,,,,,,,,FF,,,,,,,,1.035,,,,,,,,,,,,,,,,,,,,,,6100fa7fb0b18ed4c4435d59,61036f0a27167b5fe2888647,2021-07-29_23h16.51.343,Simcolourproject_2stim_asymm_v5,2020.2.10,MacIntel,60,61025ae37ef11b136ea224fe,,,,,,,,,297,26,-55,1,0,0,response3disk,,4,21,-7,1,0,0,rectangle,21,-7,1,0,0,21,-7,1,0,0,1,0,160,22,1,,,,,,,,
,,,,,,,,,,,,,FF,,,,,,,,0.833,,,,,,,,,,,,,,,,,,,,,,6100fa7fb0b18ed4c4435d59,61036f0a27167b5fe2888647,2021-07-29_23h16.51.343,Simcolourproject_2stim_asymm_v5,2020.2.10,MacIntel,60,61025ae37ef11b136ea224fe,,,,,,,,,3241,38,-63,1,0,0,response3disk,,4,16,-10,1,0,0,rectangle,16,-10,1,0,0,16,-10,1,0,0,1,1,161,32,1,,,,,,,,
,,,,,,,,,,,,,FF,,,,,,,,0.649,,,,,,,,,,,,,,,,,,,,,,6100fa7fb0b18ed4c4435d59,61036f0a27167b5fe2888647,2021-07-29_23h16.51.343,Simcolourproject_2stim_asymm_v5,2020.2.10,MacIntel,60,61025ae37ef11b136ea224fe,,,,,,,,,1647,56,35,1,0,0,response1disk,,6,-3,4,1,0,0,rectangle,-3,4,1,0,0,-3,4,1,0,0,1,2,162,104,1,,,,,,,,
,,,,,,,,,,,,,FF,,,,,,,,1.7,,,,,,,,,,,,,,,,,,,,,,6100fa7fb0b18ed4c4435d59,61036f0a27167b5fe2888647,2021-07-29_23h16.51.343,Simcolourproject_2stim_asymm_v5,2020.2.10,MacIntel,60,61025ae37ef11b136ea224fe,,,,,,,,,4123,-27,-67,1,0,0,response5disk,,3,-26,2,1,0,0,rectangle,-26,2,1,0,0,-26,2,1,0,0,1,3,163,108,1,,,,,,,,
,,,,,,,,,,,,,FF,,,,,,,,2.35,,,,,,,,,,,,,,,,,,,,,,6100fa7fb0b18ed4c4435d59,61036f0a27167b5fe2888647,2021-07-29_23h16.51.343,Simcolourproject_2stim_asymm_v5,2020.2.10,MacIntel,60,61025ae37ef11b136ea224fe,,,,,,,,,2376,20,-69,1,0,0,response3disk,,4,-7,1,1,0,0,rectangle,-7,1,1,0,0,-7,1,1,0,0,1,4,164,65,1,,,,,,,,
,,,,,,,,,,,,,FF,,,,,,,,1.616,,,,,,,,,,,,,,,,,,,,,,6100fa7fb0b18ed4c4435d59,61036f0a27167b5fe2888647,2021-07-29_23h16.51.343,Simcolourproject_2stim_asymm_v5,2020.2.10,MacIntel,60,61025ae37ef11b136ea224fe,,,,,,,,,2836,-76,-33,1,0,0,response5disk,,2,3,-13,1,0,0,rectangle,3,-13,1,0,0,3,-13,1,0,0,1,5,165,0,1,,,,,,,,
,,,,,,,,,,,,,FF,,,,,,,,0.734,,,,,,,,,,,,,,,,,,,,,,6100fa7fb0b18ed4c4435d59,61036f0a27167b5fe2888647,2021-07-29_23h16.51.343,Simcolourproject_2stim_asymm_v5,2020.2.10,MacIntel,60,61025ae37ef11b136ea224fe,,,,,,,,,3676,-53,-32,1,0,0,response5disk,,2,7,-12,1,0,0,rectangle,7,-12,1,0,0,7,-12,1,0,0,1,6,166,42,1,,,,,,,,
,,,,,,,,,,,,,FF,,,,,,,,1.516,,,,,,,,,,,,,,,,,,,,,,6100fa7fb0b18ed4c4435d59,61036f0a27167b5fe2888647,2021-07-29_23h16.51.343,Simcolourproject_2stim_asymm_v5,2020.2.10,MacIntel,60,61025ae37ef11b136ea224fe,,,,,,,,,2172,-31,-69,1,0,0,response5disk,,3,-23,-1,1,0,0,rectangle,-23,-1,1,0,0,-23,-1,1,0,0,1,7,167,151,1,,,,,,,,
,,,,,,,,,,,,,FF,,,,,,,,1.35,,,,,,,,,,,,,,,,,,,,,,6100fa7fb0b18ed4c4435d59,61036f0a27167b5fe2888647,2021-07-29_23h16.51.343,Simcolourproject_2stim_asymm_v5,2020.2.10,MacIntel,60,61025ae37ef11b136ea224fe,,,,,,,,,1262,51,43,1,0,0,response1disk,,6,4,2,1,0,0,rectangle,4,2,1,0,0,4,2,1,0,0,1,8,168,100,1,,,,,,,,
,,,,,,,,,,,,,FF,,,,,,,,1.199,,,,,,,,,,,,,,,,,,,,,,6100fa7fb0b18ed4c4435d59,61036f0a27167b5fe2888647,2021-07-29_23h16.51.343,Simcolourproject_2stim_asymm_v5,2020.2.10,MacIntel,60,61025ae37ef11b136ea224fe,,,,,,,,,1115,26,-59,1,0,0,response3disk,,4,0,-7,1,0,0,rectangle,0,-7,1,0,0,0,-7,1,0,0,1,9,169,118,1,,,,,,,,
,,,,,,,,,,,,,FF,,,,,,,,1.051,,,,,,,,,,,,,,,,,,,,,,6100fa7fb0b18ed4c4435d59,61036f0a27167b5fe2888647,2021-07-29_23h16.51.343,Simcolourproject_2stim_asymm_v5,2020.2.10,MacIntel,60,61025ae37ef11b136ea224fe,,,,,,,,,2850,64,-32,1,0,0,response3disk,,5,16,-1,1,0,0,rectangle,16,-1,1,0,0,16,-1,1,0,0,1,10,170,144,1,,,,,,,,
,,,,,,,,,,,,,FF,,,,,,,,0.682,,,,,,,,,,,,,,,,,,,,,,6100fa7fb0b18ed4c4435d59,61036f0a27167b5fe2888647,2021-07-29_23h16.51.343,Simcolourproject_2stim_asymm_v5,2020.2.10,MacIntel,60,61025ae37ef11b136ea224fe,,,,,,,,,2313,36,-52,1,0,0,response3disk,,4,5,6,1,0,0,rectangle,5,6,1,0,0,5,6,1,0,0,1,11,171,150,1,,,,,,,,
,,,,,,,,,,,,,FF,,,,,,,,1.333,,,,,,,,,,,,,,,,,,,,,,6100fa7fb0b18ed4c4435d59,61036f0a27167b5fe2888647,2021-07-29_23h16.51.343,Simcolourproject_2stim_asymm_v5,2020.2.10,MacIntel,60,61025ae37ef11b136ea224fe,,,,,,,,,1918,30,-78,1,0,0,response3disk,,4,-3,3,1,0,0,rectangle,-3,3,1,0,0,-3,3,1,0,0,1,12,172,23,1,,,,,,,,
,,,,,,,,,,,,,FF,,,,,,,,0.667,,,,,,,,,,,,,,,,,,,,,,6100fa7fb0b18ed4c4435d59,61036f0a27167b5fe2888647,2021-07-29_23h16.51.343,Simcolourproject_2stim_asymm_v5,2020.2.10,MacIntel,60,61025ae37ef11b136ea224fe,,,,,,,,,929,35,-89,1,0,0,response3disk,,4,2,-10,1,0,0,rectangle,2,-10,1,0,0,2,-10,1,0,0,1,13,173,102,1,,,,,,,,
,,,,,,,,,,,,,FF,,,,,,,,1.401,,,,,,,,,,,,,,,,,,,,,,6100fa7fb0b18ed4c4435d59,61036f0a27167b5fe2888647,2021-07-29_23h16.51.343,Simcolourproject_2stim_asymm_v5,2020.2.10,MacIntel,60,61025ae37ef11b136ea224fe,,,,,,,,,2017,31,61,1,0,0,response1disk,,7,16,-7,1,0,0,rectangle,16,-7,1,0,0,16,-7,1,0,0,1,14,174,131,1,,,,,,,,
,,,,,,,,,,,,,FF,,,,,,,,1.666,,,,,,,,,,,,,,,,,,,,,,6100fa7fb0b18ed4c4435d59,61036f0a27167b5fe2888647,2021-07-29_23h16.51.343,Simcolourproject_2stim_asymm_v5,2020.2.10,MacIntel,60,61025ae37ef11b136ea224fe,,,,,,,,,2089,-33,-69,1,0,0,response5disk,,3,-16,-9,1,0,0,rectangle,-16,-9,1,0,0,-16,-9,1,0,0,1,15,175,87,1,,,,,,,,
,,,,,,,,,,,,,FF,,,,,,,,0.766,,,,,,,,,,,,,,,,,,,,,,6100fa7fb0b18ed4c4435d59,61036f0a27167b5fe2888647,2021-07-29_23h16.51.343,Simcolourproject_2stim_asymm_v5,2020.2.10,MacIntel,60,61025ae37ef11b136ea224fe,,,,,,,,,2127,42,-26,1,0,0,response3disk,,5,-9,12,1,0,0,rectangle,-9,12,1,0,0,-9,12,1,0,0,1,16,176,53,1,,,,,,,,
,,,,,,,,,,,,,FF,,,,,,,,0.7,,,,,,,,,,,,,,,,,,,,,,6100fa7fb0b18ed4c4435d59,61036f0a27167b5fe2888647,2021-07-29_23h16.51.343,Simcolourproject_2stim_asymm_v5,2020.2.10,MacIntel,60,61025ae37ef11b136ea224fe,,,,,,,,,1655,44,-21,1,0,0,response3disk,,5,1,-2,1,0,0,rectangle,1,-2,1,0,0,1,-2,1,0,0,1,17,177,83,1,,,,,,,,
,,,,,,,,,,,,,FF,,,,,,,,0.816,,,,,,,,,,,,,,,,,,,,,,6100fa7fb0b18ed4c4435d59,61036f0a27167b5fe2888647,2021-07-29_23h16.51.343,Simcolourproject_2stim_asymm_v5,2020.2.10,MacIntel,60,61025ae37ef11b136ea224fe,,,,,,,,,2291,-94,48,1,0,0,response7disk,,1,-2,4,1,0,0,rectangle,-2,4,1,0,0,-2,4,1,0,0,1,18,178,115,1,,,,,,,,
,,,,,,,,,,,,,FF,,,,,,,,0.816,,,,,,,,,,,,,,,,,,,,,,6100fa7fb0b18ed4c4435d59,61036f0a27167b5fe2888647,2021-07-29_23h16.51.343,Simcolourproject_2stim_asymm_v5,2020.2.10,MacIntel,60,61025ae37ef11b136ea224fe,,,,,,,,,2310,25,-40,1,0,0,response3disk,,4,11,6,1,0,0,rectangle,11,6,1,0,0,11,6,1,0,0,1,19,179,135,1,,,,,,,,
,,,,,,,,,,,,,FF,,,,,,,,0.668,,,,,,,,,,,,,,,,,,,,,,6100fa7fb0b18ed4c4435d59,61036f0a27167b5fe2888647,2021-07-29_23h16.51.343,Simcolourproject_2stim_asymm_v5,2020.2.10,MacIntel,60,61025ae37ef11b136ea224fe,,,,,,,,,1886,-38,71,1,0,0,response7disk,,0,-7,-5,1,0,0,rectangle,-7,-5,1,0,0,-7,-5,1,0,0,1,20,180,34,1,,,,,,,,
,,,,,,,,,,,,,FF,,,,,,,,0.7,,,,,,,,,,,,,,,,,,,,,,6100fa7fb0b18ed4c4435d59,61036f0a27167b5fe2888647,2021-07-29_23h16.51.343,Simcolourproject_2stim_asymm_v5,2020.2.10,MacIntel,60,61025ae37ef11b136ea224fe,,,,,,,,,1253,27,-43,1,0,0,response3disk,,4,3,4,1,0,0,rectangle,66,38,1,0,0,-4,5,1,0,0,1,21,181,68,1,,response1disk_3,TRUE,6,6,"[115,45,234,102,138,149,185,290,118,274,110,311,100,102,182,184,129,139,74,150]",1.315,rectangle
,,,,,,,,,,,,,FF,,,,,,,,1.299,,,,,,,,,,,,,,,,,,,,,,6100fa7fb0b18ed4c4435d59,61036f0a27167b5fe2888647,2021-07-29_23h16.51.343,Simcolourproject_2stim_asymm_v5,2020.2.10,MacIntel,60,61025ae37ef11b136ea224fe,,,,,,,,,321,54,28,1,0,0,response1disk,,6,0,6,1,0,0,rectangle,0,6,1,0,0,0,6,1,0,0,1,22,182,16,1,,,,,,,,
,,,,,,,,,,,,,FF,,,,,,,,1.683,,,,,,,,,,,,,,,,,,,,,,6100fa7fb0b18ed4c4435d59,61036f0a27167b5fe2888647,2021-07-29_23h16.51.343,Simcolourproject_2stim_asymm_v5,2020.2.10,MacIntel,60,61025ae37ef11b136ea224fe,,,,,,,,,622,-76,25,1,0,0,response7disk,,1,4,7,1,0,0,rectangle,-39,-76,1,0,0,-14,-3,1,0,0,1,23,183,149,1,,response5disk_3,TRUE,3,3,"[115,45,234,102,138,149,185,290,118,274,110,311,100,102,182,184,129,139,74,150]",1.582,rectangle
,,,,,,,,,,,,,FF,,,,,,,,0.782,,,,,,,,,,,,,,,,,,,,,,6100fa7fb0b18ed4c4435d59,61036f0a27167b5fe2888647,2021-07-29_23h16.51.343,Simcolourproject_2stim_asymm_v5,2020.2.10,MacIntel,60,61025ae37ef11b136ea224fe,,,,,,,,,917,35,-48,1,0,0,response3disk,,4,5,-4,1,0,0,rectangle,-73,27,1,0,0,9,-11,1,0,0,1,24,184,63,1,,response7disk_3,TRUE,1,1,"[115,45,234,102,138,149,185,290,118,274,110,311,100,102,182,184,129,139,74,150]",1.333,rectangle
,,,,,,,,,,,,,FF,,,,,,,,0.984,,,,,,,,,,,,,,,,,,,,,,6100fa7fb0b18ed4c4435d59,61036f0a27167b5fe2888647,2021-07-29_23h16.51.343,Simcolourproject_2stim_asymm_v5,2020.2.10,MacIntel,60,61025ae37ef11b136ea224fe,,,,,,,,,81,-64,-49,1,0,0,response5disk,,2,-17,-16,1,0,0,rectangle,-17,-16,1,0,0,-17,-16,1,0,0,1,25,185,103,1,,,,,,,,
,,,,,,,,,,,,,FF,,,,,,,,0.716,,,,,,,,,,,,,,,,,,,,,,6100fa7fb0b18ed4c4435d59,61036f0a27167b5fe2888647,2021-07-29_23h16.51.343,Simcolourproject_2stim_asymm_v5,2020.2.10,MacIntel,60,61025ae37ef11b136ea224fe,,,,,,,,,2631,51,19,1,0,0,response1disk,,6,25,-5,1,0,0,rectangle,25,-5,1,0,0,25,-5,1,0,0,1,26,186,13,1,,,,,,,,
,,,,,,,,,,,,,FF,,,,,,,,1.201,,,,,,,,,,,,,,,,,,,,,,6100fa7fb0b18ed4c4435d59,61036f0a27167b5fe2888647,2021-07-29_23h16.51.343,Simcolourproject_2stim_asymm_v5,2020.2.10,MacIntel,60,61025ae37ef11b136ea224fe,,,,,,,,,966,31,-49,1,0,0,response3disk,,4,6,-8,1,0,0,rectangle,6,-8,1,0,0,6,-8,1,0,0,1,27,187,30,1,,,,,,,,
,,,,,,,,,,,,,FF,,,,,,,,1.084,,,,,,,,,,,,,,,,,,,,,,6100fa7fb0b18ed4c4435d59,61036f0a27167b5fe2888647,2021-07-29_23h16.51.343,Simcolourproject_2stim_asymm_v5,2020.2.10,MacIntel,60,61025ae37ef11b136ea224fe,,,,,,,,,805,-69,-32,1,0,0,response5disk,,2,-16,-5,1,0,0,rectangle,-16,-5,1,0,0,-16,-5,1,0,0,1,28,188,35,1,,,,,,,,
,,,,,,,,,,,,,FF,,,,,,,,0.6,,,,,,,,,,,,,,,,,,,,,,6100fa7fb0b18ed4c4435d59,61036f0a27167b5fe2888647,2021-07-29_23h16.51.343,Simcolourproject_2stim_asymm_v5,2020.2.10,MacIntel,60,61025ae37ef11b136ea224fe,,,,,,,,,3491,27,-53,1,0,0,response3disk,,4,-29,14,1,0,0,rectangle,-29,14,1,0,0,-29,14,1,0,0,1,29,189,142,1,,,,,,,,
,,,,,,,,,,,,,FF,,,,,,,,1.15,,,,,,,,,,,,,,,,,,,,,,6100fa7fb0b18ed4c4435d59,61036f0a27167b5fe2888647,2021-07-29_23h16.51.343,Simcolourproject_2stim_asymm_v5,2020.2.10,MacIntel,60,61025ae37ef11b136ea224fe,,,,,,,,,1810,-43,-51,1,0,0,response5disk,,3,-36,4,1,0,0,rectangle,-36,4,1,0,0,-36,4,1,0,0,1,30,190,127,1,,,,,,,,
,,,,,,,,,,,,,FF,,,,,,,,1.084,,,,,,,,,,,,,,,,,,,,,,6100fa7fb0b18ed4c4435d59,61036f0a27167b5fe2888647,2021-07-29_23h16.51.343,Simcolourproject_2stim_asymm_v5,2020.2.10,MacIntel,60,61025ae37ef11b136ea224fe,,,,,,,,,459,-32,-72,1,0,0,response5disk,,3,-3,-1,1,0,0,rectangle,-3,-1,1,0,0,-3,-1,1,0,0,1,31,191,46,1,,,,,,,,
,,,,,,,,,,,,,FF,,,,,,,,0.549,,,,,,,,,,,,,,,,,,,,,,6100fa7fb0b18ed4c4435d59,61036f0a27167b5fe2888647,2021-07-29_23h16.51.343,Simcolourproject_2stim_asymm_v5,2020.2.10,MacIntel,60,61025ae37ef11b136ea224fe,,,,,,,,,4300,43,-42,1,0,0,response3disk,,5,18,-11,1,0,0,rectangle,18,-11,1,0,0,18,-11,1,0,0,1,32,192,78,1,,,,,,,,
,,,,,,,,,,,,,FF,,,,,,,,0.834,,,,,,,,,,,,,,,,,,,,,,6100fa7fb0b18ed4c4435d59,61036f0a27167b5fe2888647,2021-07-29_23h16.51.343,Simcolourproject_2stim_asymm_v5,2020.2.10,MacIntel,60,61025ae37ef11b136ea224fe,,,,,,,,,4051,41,-60,1,0,0,response3disk,,4,25,-6,1,0,0,rectangle,25,-6,1,0,0,25,-6,1,0,0,1,33,193,19,1,,,,,,,,
,,,,,,,,,,,,,FF,,,,,,,,0.583,,,,,,,,,,,,,,,,,,,,,,6100fa7fb0b18ed4c4435d59,61036f0a27167b5fe2888647,2021-07-29_23h16.51.343,Simcolourproject_2stim_asymm_v5,2020.2.10,MacIntel,60,61025ae37ef11b136ea224fe,,,,,,,,,711,68,47,1,0,0,response1disk,,6,8,11,1,0,0,rectangle,8,11,1,0,0,8,11,1,0,0,1,34,194,148,1,,,,,,,,
,,,,,,,,,,,,,FF,,,,,,,,1.099,,,,,,,,,,,,,,,,,,,,,,6100fa7fb0b18ed4c4435d59,61036f0a27167b5fe2888647,2021-07-29_23h16.51.343,Simcolourproject_2stim_asymm_v5,2020.2.10,MacIntel,60,61025ae37ef11b136ea224fe,,,,,,,,,4022,-30,-67,1,0,0,response5disk,,3,-6,-9,1,0,0,rectangle,-6,-9,1,0,0,-6,-9,1,0,0,1,35,195,95,1,,,,,,,,
,,,,,,,,,,,,,FF,,,,,,,,0.598,,,,,,,,,,,,,,,,,,,,,,6100fa7fb0b18ed4c4435d59,61036f0a27167b5fe2888647,2021-07-29_23h16.51.343,Simcolourproject_2stim_asymm_v5,2020.2.10,MacIntel,60,61025ae37ef11b136ea224fe,,,,,,,,,3120,35,-58,1,0,0,response3disk,,4,21,-5,1,0,0,rectangle,21,-5,1,0,0,21,-5,1,0,0,1,36,196,156,1,,,,,,,,
,,,,,,,,,,,,,FF,,,,,,,,1.1,,,,,,,,,,,,,,,,,,,,,,6100fa7fb0b18ed4c4435d59,61036f0a27167b5fe2888647,2021-07-29_23h16.51.343,Simcolourproject_2stim_asymm_v5,2020.2.10,MacIntel,60,61025ae37ef11b136ea224fe,,,,,,,,,2907,-63,-36,1,0,0,response5disk,,2,-4,5,1,0,0,rectangle,-4,5,1,0,0,-4,5,1,0,0,1,37,197,21,1,,,,,,,,
,,,,,,,,,,,,,FF,,,,,,,,0.916,,,,,,,,,,,,,,,,,,,,,,6100fa7fb0b18ed4c4435d59,61036f0a27167b5fe2888647,2021-07-29_23h16.51.343,Simcolourproject_2stim_asymm_v5,2020.2.10,MacIntel,60,61025ae37ef11b136ea224fe,,,,,,,,,4329,52,38,1,0,0,response1disk,,6,12,-4,1,0,0,rectangle,12,-4,1,0,0,12,-4,1,0,0,1,38,198,113,1,,,,,,,,
,,,,,,,,,,,,,FF,,,,,,,,0.599,,,,,,,,,,,,,,,,,,,,,,6100fa7fb0b18ed4c4435d59,61036f0a27167b5fe2888647,2021-07-29_23h16.51.343,Simcolourproject_2stim_asymm_v5,2020.2.10,MacIntel,60,61025ae37ef11b136ea224fe,,,,,,,,,2391,-41,-47,1,0,0,response5disk,,3,-22,-7,1,0,0,rectangle,-22,-7,1,0,0,-22,-7,1,0,0,1,39,199,40,1,,,,,,,,
,,,,,,,,,,,,,FF,,,,,,,,1.7,,,,,,,,,,,,,,,,,,,,,,6100fa7fb0b18ed4c4435d59,61036f0a27167b5fe2888647,2021-07-29_23h16.51.343,Simcolourproject_2stim_asymm_v5,2020.2.10,MacIntel,60,61025ae37ef11b136ea224fe,,,,,,,,,3554,-25,-51,1,0,0,response5disk,,3,-12,7,1,0,0,rectangle,-12,7,1,0,0,-12,7,1,0,0,1,40,200,36,1,,,,,,,,
,,,,,,,,,,,,,FF,,,,,,,,1.084,,,,,,,,,,,,,,,,,,,,,,6100fa7fb0b18ed4c4435d59,61036f0a27167b5fe2888647,2021-07-29_23h16.51.343,Simcolourproject_2stim_asymm_v5,2020.2.10,MacIntel,60,61025ae37ef11b136ea224fe,,,,,,,,,3434,-67,32,1,0,0,response7disk,,1,-32,0,1,0,0,rectangle,-32,0,1,0,0,-32,0,1,0,0,1,41,201,74,1,,,,,,,,
,,,,,,,,,,,,,FF,,,,,,,,0.7,,,,,,,,,,,,,,,,,,,,,,6100fa7fb0b18ed4c4435d59,61036f0a27167b5fe2888647,2021-07-29_23h16.51.343,Simcolourproject_2stim_asymm_v5,2020.2.10,MacIntel,60,61025ae37ef11b136ea224fe,,,,,,,,,2579,-38,-50,1,0,0,response5disk,,3,-22,-11,1,0,0,rectangle,-22,-11,1,0,0,-22,-11,1,0,0,1,42,202,39,1,,,,,,,,
,,,,,,,,,,,,,FF,,,,,,,,1.268,,,,,,,,,,,,,,,,,,,,,,6100fa7fb0b18ed4c4435d59,61036f0a27167b5fe2888647,2021-07-29_23h16.51.343,Simcolourproject_2stim_asymm_v5,2020.2.10,MacIntel,60,61025ae37ef11b136ea224fe,,,,,,,,,2464,65,33,1,0,0,response1disk,,6,19,-7,1,0,0,rectangle,19,-7,1,0,0,19,-7,1,0,0,1,43,203,80,1,,,,,,,,
,,,,,,,,,,,,,FF,,,,,,,,0.733,,,,,,,,,,,,,,,,,,,,,,6100fa7fb0b18ed4c4435d59,61036f0a27167b5fe2888647,2021-07-29_23h16.51.343,Simcolourproject_2stim_asymm_v5,2020.2.10,MacIntel,60,61025ae37ef11b136ea224fe,,,,,,,,,4077,29,45,1,0,0,response1disk,,7,22,-9,1,0,0,rectangle,22,-9,1,0,0,22,-9,1,0,0,1,44,204,50,1,,,,,,,,
,,,,,,,,,,,,,FF,,,,,,,,0.732,,,,,,,,,,,,,,,,,,,,,,6100fa7fb0b18ed4c4435d59,61036f0a27167b5fe2888647,2021-07-29_23h16.51.343,Simcolourproject_2stim_asymm_v5,2020.2.10,MacIntel,60,61025ae37ef11b136ea224fe,,,,,,,,,3763,49,-29,1,0,0,response3disk,,5,21,-10,1,0,0,rectangle,21,-10,1,0,0,21,-10,1,0,0,1,45,205,128,1,,,,,,,,
,,,,,,,,,,,,,FF,,,,,,,,1.033,,,,,,,,,,,,,,,,,,,,,,6100fa7fb0b18ed4c4435d59,61036f0a27167b5fe2888647,2021-07-29_23h16.51.343,Simcolourproject_2stim_asymm_v5,2020.2.10,MacIntel,60,61025ae37ef11b136ea224fe,,,,,,,,,833,45,49,1,0,0,response1disk,,7,11,7,1,0,0,rectangle,11,7,1,0,0,11,7,1,0,0,1,46,206,129,1,,,,,,,,
,,,,,,,,,,,,,FF,,,,,,,,0.717,,,,,,,,,,,,,,,,,,,,,,6100fa7fb0b18ed4c4435d59,61036f0a27167b5fe2888647,2021-07-29_23h16.51.343,Simcolourproject_2stim_asymm_v5,2020.2.10,MacIntel,60,61025ae37ef11b136ea224fe,,,,,,,,,323,60,-24,1,0,0,response3disk,,5,22,-17,1,0,0,rectangle,22,-17,1,0,0,22,-17,1,0,0,1,47,207,28,1,,,,,,,,
,,,,,,,,,,,,,FF,,,,,,,,0.632,,,,,,,,,,,,,,,,,,,,,,6100fa7fb0b18ed4c4435d59,61036f0a27167b5fe2888647,2021-07-29_23h16.51.343,Simcolourproject_2stim_asymm_v5,2020.2.10,MacIntel,60,61025ae37ef11b136ea224fe,,,,,,,,,2625,49,-30,1,0,0,response3disk,,5,10,-17,1,0,0,rectangle,10,-17,1,0,0,10,-17,1,0,0,1,48,208,112,1,,,,,,,,
,,,,,,,,,,,,,FF,,,,,,,,0.567,,,,,,,,,,,,,,,,,,,,,,6100fa7fb0b18ed4c4435d59,61036f0a27167b5fe2888647,2021-07-29_23h16.51.343,Simcolourproject_2stim_asymm_v5,2020.2.10,MacIntel,60,61025ae37ef11b136ea224fe,,,,,,,,,2154,52,-39,1,0,0,response3disk,,5,11,-13,1,0,0,rectangle,11,-13,1,0,0,11,-13,1,0,0,1,49,209,119,1,,,,,,,,
,,,,,,,,,,,,,FF,,,,,,,,0.9,,,,,,,,,,,,,,,,,,,,,,6100fa7fb0b18ed4c4435d59,61036f0a27167b5fe2888647,2021-07-29_23h16.51.343,Simcolourproject_2stim_asymm_v5,2020.2.10,MacIntel,60,61025ae37ef11b136ea224fe,,,,,,,,,4152,43,48,1,0,0,response1disk,,7,13,-5,1,0,0,rectangle,13,-5,1,0,0,13,-5,1,0,0,1,50,210,105,1,,,,,,,,
,,,,,,,,,,,,,FF,,,,,,,,1.013,,,,,,,,,,,,,,,,,,,,,,6100fa7fb0b18ed4c4435d59,61036f0a27167b5fe2888647,2021-07-29_23h16.51.343,Simcolourproject_2stim_asymm_v5,2020.2.10,MacIntel,60,61025ae37ef11b136ea224fe,,,,,,,,,3923,61,-46,1,0,0,response3disk,,5,-1,-6,1,0,0,rectangle,-1,-6,1,0,0,-1,-6,1,0,0,1,51,211,96,1,,,,,,,,
,,,,,,,,,,,,,FF,,,,,,,,0.684,,,,,,,,,,,,,,,,,,,,,,6100fa7fb0b18ed4c4435d59,61036f0a27167b5fe2888647,2021-07-29_23h16.51.343,Simcolourproject_2stim_asymm_v5,2020.2.10,MacIntel,60,61025ae37ef11b136ea224fe,,,,,,,,,2743,-26,-53,1,0,0,response5disk,,3,-8,9,1,0,0,rectangle,-8,9,1,0,0,-8,9,1,0,0,1,52,212,8,1,,,,,,,,
,,,,,,,,,,,,,FF,,,,,,,,0.983,,,,,,,,,,,,,,,,,,,,,,6100fa7fb0b18ed4c4435d59,61036f0a27167b5fe2888647,2021-07-29_23h16.51.343,Simcolourproject_2stim_asymm_v5,2020.2.10,MacIntel,60,61025ae37ef11b136ea224fe,,,,,,,,,168,-69,18,1,0,0,response7disk,,1,-15,0,1,0,0,rectangle,-15,0,1,0,0,-15,0,1,0,0,1,53,213,94,1,,,,,,,,
,,,,,,,,,,,,,FF,,,,,,,,0.9,,,,,,,,,,,,,,,,,,,,,,6100fa7fb0b18ed4c4435d59,61036f0a27167b5fe2888647,2021-07-29_23h16.51.343,Simcolourproject_2stim_asymm_v5,2020.2.10,MacIntel,60,61025ae37ef11b136ea224fe,,,,,,,,,469,44,77,1,0,0,response1disk,,7,7,16,1,0,0,rectangle,7,16,1,0,0,7,16,1,0,0,1,54,214,125,1,,,,,,,,
,,,,,,,,,,,,,FF,,,,,,,,1.033,,,,,,,,,,,,,,,,,,,,,,6100fa7fb0b18ed4c4435d59,61036f0a27167b5fe2888647,2021-07-29_23h16.51.343,Simcolourproject_2stim_asymm_v5,2020.2.10,MacIntel,60,61025ae37ef11b136ea224fe,,,,,,,,,3035,-60,-28,1,0,0,response5disk,,2,-18,6,1,0,0,rectangle,-18,6,1,0,0,-18,6,1,0,0,1,55,215,17,1,,,,,,,,
,,,,,,,,,,,,,FF,,,,,,,,0.984,,,,,,,,,,,,,,,,,,,,,,6100fa7fb0b18ed4c4435d59,61036f0a27167b5fe2888647,2021-07-29_23h16.51.343,Simcolourproject_2stim_asymm_v5,2020.2.10,MacIntel,60,61025ae37ef11b136ea224fe,,,,,,,,,3552,-27,85,1,0,0,response7disk,,0,-11,7,1,0,0,rectangle,-11,7,1,0,0,-11,7,1,0,0,1,56,216,158,1,,,,,,,,
,,,,,,,,,,,,,FF,,,,,,,,1.517,,,,,,,,,,,,,,,,,,,,,,6100fa7fb0b18ed4c4435d59,61036f0a27167b5fe2888647,2021-07-29_23h16.51.343,Simcolourproject_2stim_asymm_v5,2020.2.10,MacIntel,60,61025ae37ef11b136ea224fe,,,,,,,,,3512,-43,61,1,0,0,response7disk,,0,-30,3,1,0,0,rectangle,-30,3,1,0,0,-30,3,1,0,0,1,57,217,52,1,,,,,,,,
,,,,,,,,,,,,,FF,,,,,,,,0.633,,,,,,,,,,,,,,,,,,,,,,6100fa7fb0b18ed4c4435d59,61036f0a27167b5fe2888647,2021-07-29_23h16.51.343,Simcolourproject_2stim_asymm_v5,2020.2.10,MacIntel,60,61025ae37ef11b136ea224fe,,,,,,,,,1426,37,-21,1,0,0,response3disk,,5,4,-6,1,0,0,rectangle,4,-6,1,0,0,4,-6,1,0,0,1,58,218,93,1,,,,,,,,
,,,,,,,,,,,,,FF,,,,,,,,1.167,,,,,,,,,,,,,,,,,,,,,,6100fa7fb0b18ed4c4435d59,61036f0a27167b5fe2888647,2021-07-29_23h16.51.343,Simcolourproject_2stim_asymm_v5,2020.2.10,MacIntel,60,61025ae37ef11b136ea224fe,,,,,,,,,387,-63,-46,1,0,0,response5disk,,2,-30,-11,1,0,0,rectangle,-30,-11,1,0,0,-30,-11,1,0,0,1,59,219,140,1,,,,,,,,
,,,,,,,,,,,,,FF,,,,,,,,1.468,,,,,,,,,,,,,,,,,,,,,,6100fa7fb0b18ed4c4435d59,61036f0a27167b5fe2888647,2021-07-29_23h16.51.343,Simcolourproject_2stim_asymm_v5,2020.2.10,MacIntel,60,61025ae37ef11b136ea224fe,,,,,,,,,2264,48,47,1,0,0,response1disk,,6,35,1,1,0,0,rectangle,35,1,1,0,0,35,1,1,0,0,1,60,220,38,1,,,,,,,,
,,,,,,,,,,,,,FF,,,,,,,,1.367,,,,,,,,,,,,,,,,,,,,,,6100fa7fb0b18ed4c4435d59,61036f0a27167b5fe2888647,2021-07-29_23h16.51.343,Simcolourproject_2stim_asymm_v5,2020.2.10,MacIntel,60,61025ae37ef11b136ea224fe,,,,,,,,,852,17,-69,1,0,0,response3disk,,4,-2,3,1,0,0,rectangle,-2,3,1,0,0,-2,3,1,0,0,1,61,221,29,1,,,,,,,,
,,,,,,,,,,,,,FF,,,,,,,,2.084,,,,,,,,,,,,,,,,,,,,,,6100fa7fb0b18ed4c4435d59,61036f0a27167b5fe2888647,2021-07-29_23h16.51.343,Simcolourproject_2stim_asymm_v5,2020.2.10,MacIntel,60,61025ae37ef11b136ea224fe,,,,,,,,,3157,61,35,1,0,0,response1disk,,6,14,9,1,0,0,rectangle,14,9,1,0,0,14,9,1,0,0,1,62,222,33,1,,,,,,,,
,,,,,,,,,,,,,FF,,,,,,,,0.6,,,,,,,,,,,,,,,,,,,,,,6100fa7fb0b18ed4c4435d59,61036f0a27167b5fe2888647,2021-07-29_23h16.51.343,Simcolourproject_2stim_asymm_v5,2020.2.10,MacIntel,60,61025ae37ef11b136ea224fe,,,,,,,,,2526,60,-21,1,0,0,response3disk,,5,28,-5,1,0,0,rectangle,28,-5,1,0,0,28,-5,1,0,0,1,63,223,101,1,,,,,,,,
,,,,,,,,,,,,,FF,,,,,,,,2.199,,,,,,,,,,,,,,,,,,,,,,6100fa7fb0b18ed4c4435d59,61036f0a27167b5fe2888647,2021-07-29_23h16.51.343,Simcolourproject_2stim_asymm_v5,2020.2.10,MacIntel,60,61025ae37ef11b136ea224fe,,,,,,,,,3350,-16,-68,1,0,0,response5disk,,3,2,-4,1,0,0,rectangle,2,-4,1,0,0,2,-4,1,0,0,1,64,224,57,1,,,,,,,,
,,,,,,,,,,,,,FF,,,,,,,,0.851,,,,,,,,,,,,,,,,,,,,,,6100fa7fb0b18ed4c4435d59,61036f0a27167b5fe2888647,2021-07-29_23h16.51.343,Simcolourproject_2stim_asymm_v5,2020.2.10,MacIntel,60,61025ae37ef11b136ea224fe,,,,,,,,,3313,74,27,1,0,0,response1disk,,6,30,0,1,0,0,rectangle,30,0,1,0,0,30,0,1,0,0,1,65,225,120,1,,,,,,,,
,,,,,,,,,,,,,FF,,,,,,,,1.967,,,,,,,,,,,,,,,,,,,,,,6100fa7fb0b18ed4c4435d59,61036f0a27167b5fe2888647,2021-07-29_23h16.51.343,Simcolourproject_2stim_asymm_v5,2020.2.10,MacIntel,60,61025ae37ef11b136ea224fe,,,,,,,,,2187,28,-69,1,0,0,response3disk,,4,-4,4,1,0,0,rectangle,-4,4,1,0,0,-4,4,1,0,0,1,66,226,6,1,,,,,,,,
,,,,,,,,,,,,,FF,,,,,,,,0.918,,,,,,,,,,,,,,,,,,,,,,6100fa7fb0b18ed4c4435d59,61036f0a27167b5fe2888647,2021-07-29_23h16.51.343,Simcolourproject_2stim_asymm_v5,2020.2.10,MacIntel,60,61025ae37ef11b136ea224fe,,,,,,,,,1559,52,18,1,0,0,response1disk,,6,15,-2,1,0,0,rectangle,15,-2,1,0,0,15,-2,1,0,0,1,67,227,137,1,,,,,,,,
,,,,,,,,,,,,,FF,,,,,,,,1,,,,,,,,,,,,,,,,,,,,,,6100fa7fb0b18ed4c4435d59,61036f0a27167b5fe2888647,2021-07-29_23h16.51.343,Simcolourproject_2stim_asymm_v5,2020.2.10,MacIntel,60,61025ae37ef11b136ea224fe,,,,,,,,,654,41,-52,1,0,0,response3disk,,4,27,-17,1,0,0,rectangle,27,-17,1,0,0,27,-17,1,0,0,1,68,228,146,1,,,,,,,,
,,,,,,,,,,,,,FF,,,,,,,,1.332,,,,,,,,,,,,,,,,,,,,,,6100fa7fb0b18ed4c4435d59,61036f0a27167b5fe2888647,2021-07-29_23h16.51.343,Simcolourproject_2stim_asymm_v5,2020.2.10,MacIntel,60,61025ae37ef11b136ea224fe,,,,,,,,,2365,57,-24,1,0,0,response3disk,,5,-3,13,1,0,0,rectangle,-3,13,1,0,0,-3,13,1,0,0,1,69,229,14,1,,,,,,,,
,,,,,,,,,,,,,FF,,,,,,,,1.299,,,,,,,,,,,,,,,,,,,,,,6100fa7fb0b18ed4c4435d59,61036f0a27167b5fe2888647,2021-07-29_23h16.51.343,Simcolourproject_2stim_asymm_v5,2020.2.10,MacIntel,60,61025ae37ef11b136ea224fe,,,,,,,,,2793,50,-40,1,0,0,response3disk,,5,20,-10,1,0,0,rectangle,20,-10,1,0,0,20,-10,1,0,0,1,70,230,152,1,,,,,,,,
,,,,,,,,,,,,,FF,,,,,,,,0.516,,,,,,,,,,,,,,,,,,,,,,6100fa7fb0b18ed4c4435d59,61036f0a27167b5fe2888647,2021-07-29_23h16.51.343,Simcolourproject_2stim_asymm_v5,2020.2.10,MacIntel,60,61025ae37ef11b136ea224fe,,,,,,,,,3859,27,-73,1,0,0,response3disk,,4,16,-3,1,0,0,rectangle,16,-3,1,0,0,16,-3,1,0,0,1,71,231,44,1,,,,,,,,
,,,,,,,,,,,,,FF,,,,,,,,1.1,,,,,,,,,,,,,,,,,,,,,,6100fa7fb0b18ed4c4435d59,61036f0a27167b5fe2888647,2021-07-29_23h16.51.343,Simcolourproject_2stim_asymm_v5,2020.2.10,MacIntel,60,61025ae37ef11b136ea224fe,,,,,,,,,1800,-23,-63,1,0,0,response5disk,,3,-17,0,1,0,0,rectangle,-17,0,1,0,0,-17,0,1,0,0,1,72,232,159,1,,,,,,,,
,,,,,,,,,,,,,FF,,,,,,,,0.734,,,,,,,,,,,,,,,,,,,,,,6100fa7fb0b18ed4c4435d59,61036f0a27167b5fe2888647,2021-07-29_23h16.51.343,Simcolourproject_2stim_asymm_v5,2020.2.10,MacIntel,60,61025ae37ef11b136ea224fe,,,,,,,,,1177,57,-22,1,0,0,response3disk,,5,2,-1,1,0,0,rectangle,23,-51,1,0,0,2,1,1,0,0,1,73,233,143,1,,response3disk_3,TRUE,4,4,"[115,45,234,102,138,149,185,290,118,274,110,311,100,102,182,184,129,139,74,150]",1.565,rectangle
,,,,,,,,,,,,,FF,,,,,,,,1.55,,,,,,,,,,,,,,,,,,,,,,6100fa7fb0b18ed4c4435d59,61036f0a27167b5fe2888647,2021-07-29_23h16.51.343,Simcolourproject_2stim_asymm_v5,2020.2.10,MacIntel,60,61025ae37ef11b136ea224fe,,,,,,,,,2169,58,-55,1,0,0,response3disk,,5,10,-8,1,0,0,rectangle,10,-8,1,0,0,10,-8,1,0,0,1,74,234,106,1,,,,,,,,
,,,,,,,,,,,,,FF,,,,,,,,0.567,,,,,,,,,,,,,,,,,,,,,,6100fa7fb0b18ed4c4435d59,61036f0a27167b5fe2888647,2021-07-29_23h16.51.343,Simcolourproject_2stim_asymm_v5,2020.2.10,MacIntel,60,61025ae37ef11b136ea224fe,,,,,,,,,116,85,-36,1,0,0,response3disk,,5,19,-12,1,0,0,rectangle,19,-12,1,0,0,19,-12,1,0,0,1,75,235,111,1,,,,,,,,
,,,,,,,,,,,,,FF,,,,,,,,1.184,,,,,,,,,,,,,,,,,,,,,,6100fa7fb0b18ed4c4435d59,61036f0a27167b5fe2888647,2021-07-29_23h16.51.343,Simcolourproject_2stim_asymm_v5,2020.2.10,MacIntel,60,61025ae37ef11b136ea224fe,,,,,,,,,1025,35,-20,1,0,0,response3disk,,5,-9,5,1,0,0,rectangle,-9,5,1,0,0,-9,5,1,0,0,1,76,236,12,1,,,,,,,,
,,,,,,,,,,,,,FF,,,,,,,,0.934,,,,,,,,,,,,,,,,,,,,,,6100fa7fb0b18ed4c4435d59,61036f0a27167b5fe2888647,2021-07-29_23h16.51.343,Simcolourproject_2stim_asymm_v5,2020.2.10,MacIntel,60,61025ae37ef11b136ea224fe,,,,,,,,,2901,-33,-69,1,0,0,response5disk,,3,-20,6,1,0,0,rectangle,-20,6,1,0,0,-20,6,1,0,0,1,77,237,9,1,,,,,,,,
,,,,,,,,,,,,,FF,,,,,,,,1.333,,,,,,,,,,,,,,,,,,,,,,6100fa7fb0b18ed4c4435d59,61036f0a27167b5fe2888647,2021-07-29_23h16.51.343,Simcolourproject_2stim_asymm_v5,2020.2.10,MacIntel,60,61025ae37ef11b136ea224fe,,,,,,,,,30,79,38,1,0,0,response1disk,,6,-16,2,1,0,0,rectangle,-16,2,1,0,0,-16,2,1,0,0,1,78,238,141,1,,,,,,,,
,,,,,,,,,,,,,FF,,,,,,,,0.716,,,,,,,,,,,,,,,,,,,,,,6100fa7fb0b18ed4c4435d59,61036f0a27167b5fe2888647,2021-07-29_23h16.51.343,Simcolourproject_2stim_asymm_v5,2020.2.10,MacIntel,60,61025ae37ef11b136ea224fe,,,,,,,,,327,70,37,1,0,0,response1disk,,6,6,7,1,0,0,rectangle,6,7,1,0,0,6,7,1,0,0,1,79,239,15,1,,,,,,,,
,,,,,,,,,,,,,FF,,,,,,,,0.616,,,,,,,,,,,,,,,,,,,,,,6100fa7fb0b18ed4c4435d59,61036f0a27167b5fe2888647,2021-07-29_23h16.51.343,Simcolourproject_2stim_asymm_v5,2020.2.10,MacIntel,60,61025ae37ef11b136ea224fe,,,,,,,,,1085,69,29,1,0,0,response1disk,,6,2,14,1,0,0,rectangle,2,14,1,0,0,2,14,1,0,0,1,80,240,133,1,,,,,,,,
,,,,,,,,,,,,,FF,,,,,,,,0.599,,,,,,,,,,,,,,,,,,,,,,6100fa7fb0b18ed4c4435d59,61036f0a27167b5fe2888647,2021-07-29_23h16.51.343,Simcolourproject_2stim_asymm_v5,2020.2.10,MacIntel,60,61025ae37ef11b136ea224fe,,,,,,,,,1317,36,-44,1,0,0,response3disk,,4,-9,-2,1,0,0,rectangle,-9,-2,1,0,0,-9,-2,1,0,0,1,81,241,91,1,,,,,,,,
,,,,,,,,,,,,,FF,,,,,,,,1.084,,,,,,,,,,,,,,,,,,,,,,6100fa7fb0b18ed4c4435d59,61036f0a27167b5fe2888647,2021-07-29_23h16.51.343,Simcolourproject_2stim_asymm_v5,2020.2.10,MacIntel,60,61025ae37ef11b136ea224fe,,,,,,,,,1233,-41,-69,1,0,0,response5disk,,3,-21,-9,1,0,0,rectangle,-21,-9,1,0,0,-21,-9,1,0,0,1,82,242,26,1,,,,,,,,
,,,,,,,,,,,,,FF,,,,,,,,0.917,,,,,,,,,,,,,,,,,,,,,,6100fa7fb0b18ed4c4435d59,61036f0a27167b5fe2888647,2021-07-29_23h16.51.343,Simcolourproject_2stim_asymm_v5,2020.2.10,MacIntel,60,61025ae37ef11b136ea224fe,,,,,,,,,444,21,-46,1,0,0,response3disk,,4,5,-8,1,0,0,rectangle,5,-8,1,0,0,5,-8,1,0,0,1,83,243,75,1,,,,,,,,
,,,,,,,,,,,,,FF,,,,,,,,1.5,,,,,,,,,,,,,,,,,,,,,,6100fa7fb0b18ed4c4435d59,61036f0a27167b5fe2888647,2021-07-29_23h16.51.343,Simcolourproject_2stim_asymm_v5,2020.2.10,MacIntel,60,61025ae37ef11b136ea224fe,,,,,,,,,428,47,-64,1,0,0,response3disk,,4,21,-11,1,0,0,rectangle,21,-11,1,0,0,21,-11,1,0,0,1,84,244,76,1,,,,,,,,
,,,,,,,,,,,,,FF,,,,,,,,0.95,,,,,,,,,,,,,,,,,,,,,,6100fa7fb0b18ed4c4435d59,61036f0a27167b5fe2888647,2021-07-29_23h16.51.343,Simcolourproject_2stim_asymm_v5,2020.2.10,MacIntel,60,61025ae37ef11b136ea224fe,,,,,,,,,696,64,29,1,0,0,response1disk,,6,-11,-11,1,0,0,rectangle,-11,-11,1,0,0,-11,-11,1,0,0,1,85,245,82,1,,,,,,,,
,,,,,,,,,,,,,FF,,,,,,,,0.718,,,,,,,,,,,,,,,,,,,,,,6100fa7fb0b18ed4c4435d59,61036f0a27167b5fe2888647,2021-07-29_23h16.51.343,Simcolourproject_2stim_asymm_v5,2020.2.10,MacIntel,60,61025ae37ef11b136ea224fe,,,,,,,,,1631,70,-31,1,0,0,response3disk,,5,12,-18,1,0,0,rectangle,12,-18,1,0,0,12,-18,1,0,0,1,86,246,79,1,,,,,,,,
,,,,,,,,,,,,,FF,,,,,,,,1.084,,,,,,,,,,,,,,,,,,,,,,6100fa7fb0b18ed4c4435d59,61036f0a27167b5fe2888647,2021-07-29_23h16.51.343,Simcolourproject_2stim_asymm_v5,2020.2.10,MacIntel,60,61025ae37ef11b136ea224fe,,,,,,,,,2425,34,-81,1,0,0,response3disk,,4,17,-7,1,0,0,rectangle,17,-7,1,0,0,17,-7,1,0,0,1,87,247,138,1,,,,,,,,
,,,,,,,,,,,,,FF,,,,,,,,1.15,,,,,,,,,,,,,,,,,,,,,,6100fa7fb0b18ed4c4435d59,61036f0a27167b5fe2888647,2021-07-29_23h16.51.343,Simcolourproject_2stim_asymm_v5,2020.2.10,MacIntel,60,61025ae37ef11b136ea224fe,,,,,,,,,4331,29,55,1,0,0,response1disk,,7,22,2,1,0,0,rectangle,22,2,1,0,0,22,2,1,0,0,1,88,248,134,1,,,,,,,,
,,,,,,,,,,,,,FF,,,,,,,,0.734,,,,,,,,,,,,,,,,,,,,,,6100fa7fb0b18ed4c4435d59,61036f0a27167b5fe2888647,2021-07-29_23h16.51.343,Simcolourproject_2stim_asymm_v5,2020.2.10,MacIntel,60,61025ae37ef11b136ea224fe,,,,,,,,,405,48,-58,1,0,0,response3disk,,4,-11,-6,1,0,0,rectangle,-11,-6,1,0,0,-11,-6,1,0,0,1,89,249,20,1,,,,,,,,
,,,,,,,,,,,,,FF,,,,,,,,0.866,,,,,,,,,,,,,,,,,,,,,,6100fa7fb0b18ed4c4435d59,61036f0a27167b5fe2888647,2021-07-29_23h16.51.343,Simcolourproject_2stim_asymm_v5,2020.2.10,MacIntel,60,61025ae37ef11b136ea224fe,,,,,,,,,1752,-37,-54,1,0,0,response5disk,,3,-29,5,1,0,0,rectangle,-29,5,1,0,0,-29,5,1,0,0,1,90,250,126,1,,,,,,,,
,,,,,,,,,,,,,FF,,,,,,,,1.133,,,,,,,,,,,,,,,,,,,,,,6100fa7fb0b18ed4c4435d59,61036f0a27167b5fe2888647,2021-07-29_23h16.51.343,Simcolourproject_2stim_asymm_v5,2020.2.10,MacIntel,60,61025ae37ef11b136ea224fe,,,,,,,,,2031,54,-25,1,0,0,response3disk,,5,3,-8,1,0,0,rectangle,3,-8,1,0,0,3,-8,1,0,0,1,91,251,107,1,,,,,,,,
,,,,,,,,,,,,,FF,,,,,,,,0.633,,,,,,,,,,,,,,,,,,,,,,6100fa7fb0b18ed4c4435d59,61036f0a27167b5fe2888647,2021-07-29_23h16.51.343,Simcolourproject_2stim_asymm_v5,2020.2.10,MacIntel,60,61025ae37ef11b136ea224fe,,,,,,,,,1432,45,-23,1,0,0,response3disk,,5,13,-5,1,0,0,rectangle,13,-5,1,0,0,13,-5,1,0,0,1,92,252,77,1,,,,,,,,
,,,,,,,,,,,,,FF,,,,,,,,0.65,,,,,,,,,,,,,,,,,,,,,,6100fa7fb0b18ed4c4435d59,61036f0a27167b5fe2888647,2021-07-29_23h16.51.343,Simcolourproject_2stim_asymm_v5,2020.2.10,MacIntel,60,61025ae37ef11b136ea224fe,,,,,,,,,3001,54,-34,1,0,0,response3disk,,5,12,-13,1,0,0,rectangle,12,-13,1,0,0,12,-13,1,0,0,1,93,253,69,1,,,,,,,,
,,,,,,,,,,,,,FF,,,,,,,,0.833,,,,,,,,,,,,,,,,,,,,,,6100fa7fb0b18ed4c4435d59,61036f0a27167b5fe2888647,2021-07-29_23h16.51.343,Simcolourproject_2stim_asymm_v5,2020.2.10,MacIntel,60,61025ae37ef11b136ea224fe,,,,,,,,,2706,75,-37,1,0,0,response3disk,,5,4,-6,1,0,0,rectangle,4,-6,1,0,0,4,-6,1,0,0,1,94,254,155,1,,,,,,,,
,,,,,,,,,,,,,FF,,,,,,,,1.201,,,,,,,,,,,,,,,,,,,,,,6100fa7fb0b18ed4c4435d59,61036f0a27167b5fe2888647,2021-07-29_23h16.51.343,Simcolourproject_2stim_asymm_v5,2020.2.10,MacIntel,60,61025ae37ef11b136ea224fe,,,,,,,,,4323,21,-62,1,0,0,response3disk,,4,5,-12,1,0,0,rectangle,5,-12,1,0,0,5,-12,1,0,0,1,95,255,11,1,,,,,,,,
,,,,,,,,,,,,,FF,,,,,,,,0.833,,,,,,,,,,,,,,,,,,,,,,6100fa7fb0b18ed4c4435d59,61036f0a27167b5fe2888647,2021-07-29_23h16.51.343,Simcolourproject_2stim_asymm_v5,2020.2.10,MacIntel,60,61025ae37ef11b136ea224fe,,,,,,,,,3714,50,-54,1,0,0,response3disk,,4,26,-5,1,0,0,rectangle,26,-5,1,0,0,26,-5,1,0,0,1,96,256,7,1,,,,,,,,
,,,,,,,,,,,,,FF,,,,,,,,0.617,,,,,,,,,,,,,,,,,,,,,,6100fa7fb0b18ed4c4435d59,61036f0a27167b5fe2888647,2021-07-29_23h16.51.343,Simcolourproject_2stim_asymm_v5,2020.2.10,MacIntel,60,61025ae37ef11b136ea224fe,,,,,,,,,3029,78,-42,1,0,0,response3disk,,5,-2,-10,1,0,0,rectangle,-2,-10,1,0,0,-2,-10,1,0,0,1,97,257,48,1,,,,,,,,
,,,,,,,,,,,,,FF,,,,,,,,2.383,,,,,,,,,,,,,,,,,,,,,,6100fa7fb0b18ed4c4435d59,61036f0a27167b5fe2888647,2021-07-29_23h16.51.343,Simcolourproject_2stim_asymm_v5,2020.2.10,MacIntel,60,61025ae37ef11b136ea224fe,,,,,,,,,2400,69,24,1,0,0,response1disk,,6,-8,-8,1,0,0,rectangle,-8,-8,1,0,0,-8,-8,1,0,0,1,98,258,116,1,,,,,,,,
,,,,,,,,,,,,,FF,,,,,,,,0.8,,,,,,,,,,,,,,,,,,,,,,6100fa7fb0b18ed4c4435d59,61036f0a27167b5fe2888647,2021-07-29_23h16.51.343,Simcolourproject_2stim_asymm_v5,2020.2.10,MacIntel,60,61025ae37ef11b136ea224fe,,,,,,,,,446,58,14,1,0,0,response1disk,,6,9,-7,1,0,0,rectangle,9,-7,1,0,0,9,-7,1,0,0,1,99,259,66,1,,,,,,,,
,,,,,,,,,,,,,FF,,,,,,,,0.617,,,,,,,,,,,,,,,,,,,,,,6100fa7fb0b18ed4c4435d59,61036f0a27167b5fe2888647,2021-07-29_23h16.51.343,Simcolourproject_2stim_asymm_v5,2020.2.10,MacIntel,60,61025ae37ef11b136ea224fe,,,,,,,,,3706,-38,-83,1,0,0,response5disk,,3,-15,-1,1,0,0,rectangle,-15,-1,1,0,0,-15,-1,1,0,0,1,100,260,61,1,,,,,,,,
,,,,,,,,,,,,,FF,,,,,,,,0.95,,,,,,,,,,,,,,,,,,,,,,6100fa7fb0b18ed4c4435d59,61036f0a27167b5fe2888647,2021-07-29_23h16.51.343,Simcolourproject_2stim_asymm_v5,2020.2.10,MacIntel,60,61025ae37ef11b136ea224fe,,,,,,,,,95,-22,-93,1,0,0,response5disk,,3,3,-14,1,0,0,rectangle,3,-14,1,0,0,3,-14,1,0,0,1,101,261,110,1,,,,,,,,
,,,,,,,,,,,,,FF,,,,,,,,0.567,,,,,,,,,,,,,,,,,,,,,,6100fa7fb0b18ed4c4435d59,61036f0a27167b5fe2888647,2021-07-29_23h16.51.343,Simcolourproject_2stim_asymm_v5,2020.2.10,MacIntel,60,61025ae37ef11b136ea224fe,,,,,,,,,3764,37,-73,1,0,0,response3disk,,4,21,-4,1,0,0,rectangle,21,-4,1,0,0,21,-4,1,0,0,1,102,262,49,1,,,,,,,,
,,,,,,,,,,,,,FF,,,,,,,,0.551,,,,,,,,,,,,,,,,,,,,,,6100fa7fb0b18ed4c4435d59,61036f0a27167b5fe2888647,2021-07-29_23h16.51.343,Simcolourproject_2stim_asymm_v5,2020.2.10,MacIntel,60,61025ae37ef11b136ea224fe,,,,,,,,,2052,53,-29,1,0,0,response3disk,,5,3,1,1,0,0,rectangle,3,1,1,0,0,3,1,1,0,0,1,103,263,64,1,,,,,,,,
,,,,,,,,,,,,,FF,,,,,,,,1.066,,,,,,,,,,,,,,,,,,,,,,6100fa7fb0b18ed4c4435d59,61036f0a27167b5fe2888647,2021-07-29_23h16.51.343,Simcolourproject_2stim_asymm_v5,2020.2.10,MacIntel,60,61025ae37ef11b136ea224fe,,,,,,,,,1462,-49,-74,1,0,0,response5disk,,3,-18,-9,1,0,0,rectangle,-18,-9,1,0,0,-18,-9,1,0,0,1,104,264,130,1,,,,,,,,
,,,,,,,,,,,,,FF,,,,,,,,0.832,,,,,,,,,,,,,,,,,,,,,,6100fa7fb0b18ed4c4435d59,61036f0a27167b5fe2888647,2021-07-29_23h16.51.343,Simcolourproject_2stim_asymm_v5,2020.2.10,MacIntel,60,61025ae37ef11b136ea224fe,,,,,,,,,1310,35,-54,1,0,0,response3disk,,4,20,12,1,0,0,rectangle,20,12,1,0,0,20,12,1,0,0,1,105,265,56,1,,,,,,,,
,,,,,,,,,,,,,FF,,,,,,,,0.949,,,,,,,,,,,,,,,,,,,,,,6100fa7fb0b18ed4c4435d59,61036f0a27167b5fe2888647,2021-07-29_23h16.51.343,Simcolourproject_2stim_asymm_v5,2020.2.10,MacIntel,60,61025ae37ef11b136ea224fe,,,,,,,,,3158,25,-54,1,0,0,response3disk,,4,25,12,1,0,0,rectangle,25,12,1,0,0,25,12,1,0,0,1,106,266,25,1,,,,,,,,
,,,,,,,,,,,,,FF,,,,,,,,1.318,,,,,,,,,,,,,,,,,,,,,,6100fa7fb0b18ed4c4435d59,61036f0a27167b5fe2888647,2021-07-29_23h16.51.343,Simcolourproject_2stim_asymm_v5,2020.2.10,MacIntel,60,61025ae37ef11b136ea224fe,,,,,,,,,2209,-54,-33,1,0,0,response5disk,,2,-8,3,1,0,0,rectangle,-8,3,1,0,0,-8,3,1,0,0,1,107,267,92,1,,,,,,,,
,,,,,,,,,,,,,FF,,,,,,,,0.999,,,,,,,,,,,,,,,,,,,,,,6100fa7fb0b18ed4c4435d59,61036f0a27167b5fe2888647,2021-07-29_23h16.51.343,Simcolourproject_2stim_asymm_v5,2020.2.10,MacIntel,60,61025ae37ef11b136ea224fe,,,,,,,,,2497,62,-34,1,0,0,response3disk,,5,-2,-18,1,0,0,rectangle,-2,-18,1,0,0,-2,-18,1,0,0,1,108,268,47,1,,,,,,,,
,,,,,,,,,,,,,FF,,,,,,,,0.684,,,,,,,,,,,,,,,,,,,,,,6100fa7fb0b18ed4c4435d59,61036f0a27167b5fe2888647,2021-07-29_23h16.51.343,Simcolourproject_2stim_asymm_v5,2020.2.10,MacIntel,60,61025ae37ef11b136ea224fe,,,,,,,,,598,-17,-55,1,0,0,response5disk,,3,-12,1,1,0,0,rectangle,-12,1,1,0,0,-12,1,1,0,0,1,109,269,84,1,,,,,,,,
,,,,,,,,,,,,,FF,,,,,,,,1.201,,,,,,,,,,,,,,,,,,,,,,6100fa7fb0b18ed4c4435d59,61036f0a27167b5fe2888647,2021-07-29_23h16.51.343,Simcolourproject_2stim_asymm_v5,2020.2.10,MacIntel,60,61025ae37ef11b136ea224fe,,,,,,,,,831,36,-59,1,0,0,response3disk,,4,8,-13,1,0,0,rectangle,8,-13,1,0,0,8,-13,1,0,0,1,110,270,114,1,,,,,,,,
,,,,,,,,,,,,,FF,,,,,,,,2.415,,,,,,,,,,,,,,,,,,,,,,6100fa7fb0b18ed4c4435d59,61036f0a27167b5fe2888647,2021-07-29_23h16.51.343,Simcolourproject_2stim_asymm_v5,2020.2.10,MacIntel,60,61025ae37ef11b136ea224fe,,,,,,,,,4102,-70,37,1,0,0,response7disk,,1,-6,5,1,0,0,rectangle,-6,5,1,0,0,-6,5,1,0,0,1,111,271,3,1,,,,,,,,
,,,,,,,,,,,,,FF,,,,,,,,0.85,,,,,,,,,,,,,,,,,,,,,,6100fa7fb0b18ed4c4435d59,61036f0a27167b5fe2888647,2021-07-29_23h16.51.343,Simcolourproject_2stim_asymm_v5,2020.2.10,MacIntel,60,61025ae37ef11b136ea224fe,,,,,,,,,1635,31,75,1,0,0,response1disk,,7,17,6,1,0,0,rectangle,17,6,1,0,0,17,6,1,0,0,1,112,272,81,1,,,,,,,,
,,,,,,,,,,,,,FF,,,,,,,,0.733,,,,,,,,,,,,,,,,,,,,,,6100fa7fb0b18ed4c4435d59,61036f0a27167b5fe2888647,2021-07-29_23h16.51.343,Simcolourproject_2stim_asymm_v5,2020.2.10,MacIntel,60,61025ae37ef11b136ea224fe,,,,,,,,,99,-49,-59,1,0,0,response5disk,,3,-29,-15,1,0,0,rectangle,55,-20,1,0,0,13,-14,1,0,0,1,113,273,62,1,,response3disk_3,TRUE,5,5,"[115,45,234,102,138,149,185,290,118,274,110,311,100,102,182,184,129,139,74,150]",1.317,rectangle
,,,,,,,,,,,,,FF,,,,,,,,0.601,,,,,,,,,,,,,,,,,,,,,,6100fa7fb0b18ed4c4435d59,61036f0a27167b5fe2888647,2021-07-29_23h16.51.343,Simcolourproject_2stim_asymm_v5,2020.2.10,MacIntel,60,61025ae37ef11b136ea224fe,,,,,,,,,3346,60,-31,1,0,0,response3disk,,5,-4,-6,1,0,0,rectangle,-4,-6,1,0,0,-4,-6,1,0,0,1,114,274,97,1,,,,,,,,
,,,,,,,,,,,,,FF,,,,,,,,0.666,,,,,,,,,,,,,,,,,,,,,,6100fa7fb0b18ed4c4435d59,61036f0a27167b5fe2888647,2021-07-29_23h16.51.343,Simcolourproject_2stim_asymm_v5,2020.2.10,MacIntel,60,61025ae37ef11b136ea224fe,,,,,,,,,2148,53,-37,1,0,0,response3disk,,5,-4,-6,1,0,0,rectangle,-4,-6,1,0,0,-4,-6,1,0,0,1,115,275,145,1,,,,,,,,
,,,,,,,,,,,,,FF,,,,,,,,1.284,,,,,,,,,,,,,,,,,,,,,,6100fa7fb0b18ed4c4435d59,61036f0a27167b5fe2888647,2021-07-29_23h16.51.343,Simcolourproject_2stim_asymm_v5,2020.2.10,MacIntel,60,61025ae37ef11b136ea224fe,,,,,,,,,1295,47,42,1,0,0,response1disk,,6,-2,-5,1,0,0,rectangle,-2,-5,1,0,0,-2,-5,1,0,0,1,116,276,71,1,,,,,,,,
,,,,,,,,,,,,,FF,,,,,,,,0.599,,,,,,,,,,,,,,,,,,,,,,6100fa7fb0b18ed4c4435d59,61036f0a27167b5fe2888647,2021-07-29_23h16.51.343,Simcolourproject_2stim_asymm_v5,2020.2.10,MacIntel,60,61025ae37ef11b136ea224fe,,,,,,,,,1198,55,30,1,0,0,response1disk,,6,22,17,1,0,0,rectangle,22,17,1,0,0,22,17,1,0,0,1,117,277,4,1,,,,,,,,
,,,,,,,,,,,,,FF,,,,,,,,0.651,,,,,,,,,,,,,,,,,,,,,,6100fa7fb0b18ed4c4435d59,61036f0a27167b5fe2888647,2021-07-29_23h16.51.343,Simcolourproject_2stim_asymm_v5,2020.2.10,MacIntel,60,61025ae37ef11b136ea224fe,,,,,,,,,1048,72,35,1,0,0,response1disk,,6,9,16,1,0,0,rectangle,9,16,1,0,0,9,16,1,0,0,1,118,278,31,1,,,,,,,,
,,,,,,,,,,,,,FF,,,,,,,,0.883,,,,,,,,,,,,,,,,,,,,,,6100fa7fb0b18ed4c4435d59,61036f0a27167b5fe2888647,2021-07-29_23h16.51.343,Simcolourproject_2stim_asymm_v5,2020.2.10,MacIntel,60,61025ae37ef11b136ea224fe,,,,,,,,,3519,21,-64,1,0,0,response3disk,,4,5,0,1,0,0,rectangle,5,0,1,0,0,5,0,1,0,0,1,119,279,121,1,,,,,,,,
,,,,,,,,,,,,,FF,,,,,,,,0.849,,,,,,,,,,,,,,,,,,,,,,6100fa7fb0b18ed4c4435d59,61036f0a27167b5fe2888647,2021-07-29_23h16.51.343,Simcolourproject_2stim_asymm_v5,2020.2.10,MacIntel,60,61025ae37ef11b136ea224fe,,,,,,,,,2721,-68,-27,1,0,0,response5disk,,2,-11,-12,1,0,0,rectangle,-11,-12,1,0,0,-11,-12,1,0,0,1,120,280,67,1,,,,,,,,
,,,,,,,,,,,,,FF,,,,,,,,0.632,,,,,,,,,,,,,,,,,,,,,,6100fa7fb0b18ed4c4435d59,61036f0a27167b5fe2888647,2021-07-29_23h16.51.343,Simcolourproject_2stim_asymm_v5,2020.2.10,MacIntel,60,61025ae37ef11b136ea224fe,,,,,,,,,3688,65,-20,1,0,0,response3disk,,5,-25,-1,1,0,0,rectangle,-25,-1,1,0,0,-25,-1,1,0,0,1,121,281,86,1,,,,,,,,
,,,,,,,,,,,,,FF,,,,,,,,1.2,,,,,,,,,,,,,,,,,,,,,,6100fa7fb0b18ed4c4435d59,61036f0a27167b5fe2888647,2021-07-29_23h16.51.343,Simcolourproject_2stim_asymm_v5,2020.2.10,MacIntel,60,61025ae37ef11b136ea224fe,,,,,,,,,1065,-51,-66,1,0,0,response5disk,,3,-22,-4,1,0,0,rectangle,-22,-4,1,0,0,-22,-4,1,0,0,1,122,282,45,1,,,,,,,,
,,,,,,,,,,,,,FF,,,,,,,,1.383,,,,,,,,,,,,,,,,,,,,,,6100fa7fb0b18ed4c4435d59,61036f0a27167b5fe2888647,2021-07-29_23h16.51.343,Simcolourproject_2stim_asymm_v5,2020.2.10,MacIntel,60,61025ae37ef11b136ea224fe,,,,,,,,,3599,-46,-47,1,0,0,response5disk,,3,-21,9,1,0,0,rectangle,-21,9,1,0,0,-21,9,1,0,0,1,123,283,43,1,,,,,,,,
,,,,,,,,,,,,,FF,,,,,,,,1,,,,,,,,,,,,,,,,,,,,,,6100fa7fb0b18ed4c4435d59,61036f0a27167b5fe2888647,2021-07-29_23h16.51.343,Simcolourproject_2stim_asymm_v5,2020.2.10,MacIntel,60,61025ae37ef11b136ea224fe,,,,,,,,,2351,70,36,1,0,0,response1disk,,6,-10,2,1,0,0,rectangle,-10,2,1,0,0,-10,2,1,0,0,1,124,284,37,1,,,,,,,,
,,,,,,,,,,,,,FF,,,,,,,,0.684,,,,,,,,,,,,,,,,,,,,,,6100fa7fb0b18ed4c4435d59,61036f0a27167b5fe2888647,2021-07-29_23h16.51.343,Simcolourproject_2stim_asymm_v5,2020.2.10,MacIntel,60,61025ae37ef11b136ea224fe,,,,,,,,,3952,74,24,1,0,0,response1disk,,6,15,-7,1,0,0,rectangle,15,-7,1,0,0,15,-7,1,0,0,1,125,285,58,1,,,,,,,,
,,,,,,,,,,,,,FF,,,,,,,,1.434,,,,,,,,,,,,,,,,,,,,,,6100fa7fb0b18ed4c4435d59,61036f0a27167b5fe2888647,2021-07-29_23h16.51.343,Simcolourproject_2stim_asymm_v5,2020.2.10,MacIntel,60,61025ae37ef11b136ea224fe,,,,,,,,,3966,-63,-40,1,0,0,response5disk,,2,-16,-2,1,0,0,rectangle,-16,-2,1,0,0,-16,-2,1,0,0,1,126,286,51,1,,,,,,,,
,,,,,,,,,,,,,FF,,,,,,,,0.7,,,,,,,,,,,,,,,,,,,,,,6100fa7fb0b18ed4c4435d59,61036f0a27167b5fe2888647,2021-07-29_23h16.51.343,Simcolourproject_2stim_asymm_v5,2020.2.10,MacIntel,60,61025ae37ef11b136ea224fe,,,,,,,,,3205,-37,-70,1,0,0,response5disk,,3,-29,1,1,0,0,rectangle,-29,1,1,0,0,-29,1,1,0,0,1,127,287,117,1,,,,,,,,
,,,,,,,,,,,,,FF,,,,,,,,0.682,,,,,,,,,,,,,,,,,,,,,,6100fa7fb0b18ed4c4435d59,61036f0a27167b5fe2888647,2021-07-29_23h16.51.343,Simcolourproject_2stim_asymm_v5,2020.2.10,MacIntel,60,61025ae37ef11b136ea224fe,,,,,,,,,870,41,56,1,0,0,response1disk,,7,29,-1,1,0,0,rectangle,29,-1,1,0,0,29,-1,1,0,0,1,128,288,70,1,,,,,,,,
,,,,,,,,,,,,,FF,,,,,,,,0.616,,,,,,,,,,,,,,,,,,,,,,6100fa7fb0b18ed4c4435d59,61036f0a27167b5fe2888647,2021-07-29_23h16.51.343,Simcolourproject_2stim_asymm_v5,2020.2.10,MacIntel,60,61025ae37ef11b136ea224fe,,,,,,,,,2468,62,-15,1,0,0,response3disk,,5,1,12,1,0,0,rectangle,-65,-36,1,0,0,-14,-17,1,0,0,1,129,289,54,1,,response5disk_3,TRUE,2,2,"[115,45,234,102,138,149,185,290,118,274,110,311,100,102,182,184,129,139,74,150]",1.732,rectangle
,,,,,,,,,,,,,FF,,,,,,,,0.633,,,,,,,,,,,,,,,,,,,,,,6100fa7fb0b18ed4c4435d59,61036f0a27167b5fe2888647,2021-07-29_23h16.51.343,Simcolourproject_2stim_asymm_v5,2020.2.10,MacIntel,60,61025ae37ef11b136ea224fe,,,,,,,,,3603,64,-33,1,0,0,response3disk,,5,-1,-6,1,0,0,rectangle,-1,-6,1,0,0,-1,-6,1,0,0,1,130,290,59,1,,,,,,,,
,,,,,,,,,,,,,FF,,,,,,,,1.883,,,,,,,,,,,,,,,,,,,,,,6100fa7fb0b18ed4c4435d59,61036f0a27167b5fe2888647,2021-07-29_23h16.51.343,Simcolourproject_2stim_asymm_v5,2020.2.10,MacIntel,60,61025ae37ef11b136ea224fe,,,,,,,,,3727,66,41,1,0,0,response1disk,,6,2,3,1,0,0,rectangle,2,3,1,0,0,2,3,1,0,0,1,131,291,2,1,,,,,,,,
,,,,,,,,,,,,,FF,,,,,,,,0.8,,,,,,,,,,,,,,,,,,,,,,6100fa7fb0b18ed4c4435d59,61036f0a27167b5fe2888647,2021-07-29_23h16.51.343,Simcolourproject_2stim_asymm_v5,2020.2.10,MacIntel,60,61025ae37ef11b136ea224fe,,,,,,,,,3454,69,27,1,0,0,response1disk,,6,-25,-13,1,0,0,rectangle,-25,-13,1,0,0,-25,-13,1,0,0,1,132,292,90,1,,,,,,,,
,,,,,,,,,,,,,FF,,,,,,,,1.116,,,,,,,,,,,,,,,,,,,,,,6100fa7fb0b18ed4c4435d59,61036f0a27167b5fe2888647,2021-07-29_23h16.51.343,Simcolourproject_2stim_asymm_v5,2020.2.10,MacIntel,60,61025ae37ef11b136ea224fe,,,,,,,,,2364,-72,-26,1,0,0,response5disk,,2,-12,1,1,0,0,rectangle,-12,1,1,0,0,-12,1,1,0,0,1,133,293,85,1,,,,,,,,
,,,,,,,,,,,,,FF,,,,,,,,0.616,,,,,,,,,,,,,,,,,,,,,,6100fa7fb0b18ed4c4435d59,61036f0a27167b5fe2888647,2021-07-29_23h16.51.343,Simcolourproject_2stim_asymm_v5,2020.2.10,MacIntel,60,61025ae37ef11b136ea224fe,,,,,,,,,3025,46,54,1,0,0,response1disk,,7,5,-6,1,0,0,rectangle,5,-6,1,0,0,5,-6,1,0,0,1,134,294,27,1,,,,,,,,
,,,,,,,,,,,,,FF,,,,,,,,1.451,,,,,,,,,,,,,,,,,,,,,,6100fa7fb0b18ed4c4435d59,61036f0a27167b5fe2888647,2021-07-29_23h16.51.343,Simcolourproject_2stim_asymm_v5,2020.2.10,MacIntel,60,61025ae37ef11b136ea224fe,,,,,,,,,4359,-76,-25,1,0,0,response5disk,,2,-16,-4,1,0,0,rectangle,-16,-4,1,0,0,-16,-4,1,0,0,1,135,295,157,1,,,,,,,,
,,,,,,,,,,,,,FF,,,,,,,,1.05,,,,,,,,,,,,,,,,,,,,,,6100fa7fb0b18ed4c4435d59,61036f0a27167b5fe2888647,2021-07-29_23h16.51.343,Simcolourproject_2stim_asymm_v5,2020.2.10,MacIntel,60,61025ae37ef11b136ea224fe,,,,,,,,,2267,65,30,1,0,0,response1disk,,6,18,4,1,0,0,rectangle,18,4,1,0,0,18,4,1,0,0,1,136,296,88,1,,,,,,,,
,,,,,,,,,,,,,FF,,,,,,,,0.65,,,,,,,,,,,,,,,,,,,,,,6100fa7fb0b18ed4c4435d59,61036f0a27167b5fe2888647,2021-07-29_23h16.51.343,Simcolourproject_2stim_asymm_v5,2020.2.10,MacIntel,60,61025ae37ef11b136ea224fe,,,,,,,,,451,45,-26,1,0,0,response3disk,,5,5,0,1,0,0,rectangle,5,0,1,0,0,5,0,1,0,0,1,137,297,153,1,,,,,,,,
,,,,,,,,,,,,,FF,,,,,,,,0.766,,,,,,,,,,,,,,,,,,,,,,6100fa7fb0b18ed4c4435d59,61036f0a27167b5fe2888647,2021-07-29_23h16.51.343,Simcolourproject_2stim_asymm_v5,2020.2.10,MacIntel,60,61025ae37ef11b136ea224fe,,,,,,,,,40,55,76,1,0,0,response1disk,,7,22,9,1,0,0,rectangle,22,9,1,0,0,22,9,1,0,0,1,138,298,124,1,,,,,,,,
