key_resp.keys,key_resp.rt,key_resp_14.keys,key_resp_14.rt,key_resp_15.keys,key_resp_15.rt,key_resp_17.keys,key_resp_17.rt,key_resp_9.keys,key_resp_9.rt,key_resp_10.keys,key_resp_10.rt,practice_comparison,Ecc,mouse_5.x,mouse_5.y,mouse_5.leftButton,mouse_5.midButton,mouse_5.rightButton,mouse_5.clicked_name,pracsimilarity,response_time,mouse_10.x,mouse_10.y,mouse_10.leftButton,mouse_10.midButton,mouse_10.rightButton,mouse_10.clicked_name,mouse_7.x,mouse_7.y,mouse_7.leftButton,mouse_7.midButton,mouse_7.rightButton,mouse_6.x,mouse_6.y,mouse_6.leftButton,mouse_6.midButton,mouse_6.rightButton,duringprac.thisRepN,duringprac.thisTrialN,duringprac.thisN,duringprac.thisIndex,duringprac.ran,participant,session,date,expName,psychopyVersion,OS,frameRate,study_id,mouse_7.clicked_name,catchpracsimilarity,catch_response_time,catchnumberprac,catchtrialorderprac,mouse_6.clicked_name,key_resp_22.keys,key_resp_22.rt,realcomparison,mouse.x,mouse.y,mouse.leftButton,mouse.midButton,mouse.rightButton,mouse.clicked_name,Colour2,similarity,mouse_2.x,mouse_2.y,mouse_2.leftButton,mouse_2.midButton,mouse_2.rightButton,mouse_2.clicked_name,mouse_3.x,mouse_3.y,mouse_3.leftButton,mouse_3.midButton,mouse_3.rightButton,mouse_11.x,mouse_11.y,mouse_11.leftButton,mouse_11.midButton,mouse_11.rightButton,trials_2.thisRepN,trials_2.thisTrialN,trials_2.thisN,trials_2.thisIndex,trials_2.ran,Colour1,mouse_3.clicked_name,catchornah,catchsimilarity,catchnumber,catchtrialorder,catchRT,mouse_11.clicked_name
space,1.5226,space,25.888,space,63.3107,space,11.7666,space,12.4018,space,5.2871,89,FF,26.40001184,-51.20000638,1,0,0,response3disk_5,4,11.7353,-4.799988627,0.799994394,1,0,0,rectangle_8,-4.799988627,0.799994394,1,0,0,-4.799988627,0.799994394,1,0,0,0,0,0,5,1,6100fad499688019dec679cd,61036cb4acf6b2bc6e56281a,2021-07-29_21h09.29.051,Simcolourproject_2stim_asymm_v5,2020.2.10,Win32,60,61025ae37ef11b136ea224fe,,,,,,,,,,,,,,,,,,,,,,,,,,,,,,,,,,,,,,,,,,,,,,
,,,,,,,,,,,,9,PF,13.60006047,-31.20000608,1,0,0,response3disk_5,4,4.6816,-5.599988639,3.999970028,1,0,0,rectangle_8,49.60006101,-23.20000596,1,0,0,-12.79998875,-3.200005665,1,0,0,0,1,1,6,1,6100fad499688019dec679cd,61036cb4acf6b2bc6e56281a,2021-07-29_21h09.29.051,Simcolourproject_2stim_asymm_v5,2020.2.10,Win32,60,61025ae37ef11b136ea224fe,response3disk_7,5,2.9155,5,"[2,5]",rectangle_4,,,,,,,,,,,,,,,,,,,,,,,,,,,,,,,,,,,,,,,,
,,,,,,,,,,,,132,PF,-50.39994048,-15.20000584,1,0,0,response5disk_5,2,2.0662,12.00001162,2.399970004,1,0,0,rectangle_8,12.00001162,2.399970004,1,0,0,12.00001162,2.399970004,1,0,0,0,2,2,4,1,6100fad499688019dec679cd,61036cb4acf6b2bc6e56281a,2021-07-29_21h09.29.051,Simcolourproject_2stim_asymm_v5,2020.2.10,Win32,60,61025ae37ef11b136ea224fe,,,,,,,,,,,,,,,,,,,,,,,,,,,,,,,,,,,,,,,,,,,,,,
,,,,,,,,,,,,3,PF,56.00001228,-16.00003027,1,0,0,response3disk_5,5,4.7832,-3.999988616,4.799994454,1,0,0,rectangle_8,-3.999988616,4.799994454,1,0,0,-3.999988616,4.799994454,1,0,0,0,3,3,2,1,6100fad499688019dec679cd,61036cb4acf6b2bc6e56281a,2021-07-29_21h09.29.051,Simcolourproject_2stim_asymm_v5,2020.2.10,Win32,60,61025ae37ef11b136ea224fe,,,,,,,,,,,,,,,,,,,,,,,,,,,,,,,,,,,,,,,,,,,,,,
,,,,,,,,,,,,127,PF,-22.39994006,-36.80000617,1,0,0,response5disk_5,3,2.0328,-4.799988627,-3.200005665,1,0,0,rectangle_8,56.80001229,-26.40000601,1,0,0,7.200011551,-6.400005713,1,0,0,0,4,4,1,1,6100fad499688019dec679cd,61036cb4acf6b2bc6e56281a,2021-07-29_21h09.29.051,Simcolourproject_2stim_asymm_v5,2020.2.10,Win32,60,61025ae37ef11b136ea224fe,response3disk_7,5,1.6159,5,"[2,5]",rectangle_4,,,,,,,,,,,,,,,,,,,,,,,,,,,,,,,,,,,,,,,,
,,,,,,,,,,,,94,FF,52.00001222,22.3999703,1,0,0,response1disk_5,6,3.7663,4.000011504,-8.800005749,1,0,0,rectangle_8,4.000011504,-8.800005749,1,0,0,4.000011504,-8.800005749,1,0,0,0,5,5,0,1,6100fad499688019dec679cd,61036cb4acf6b2bc6e56281a,2021-07-29_21h09.29.051,Simcolourproject_2stim_asymm_v5,2020.2.10,Win32,60,61025ae37ef11b136ea224fe,,,,,,,,,,,,,,,,,,,,,,,,,,,,,,,,,,,,,,,,,,,,,,
,,,,,,,,,,,,45,FF,28.80001187,-44.00000627,1,0,0,response3disk_5,4,1.8831,-4.799988627,-3.00318E-05,1,0,0,rectangle_8,-4.799988627,-3.00318E-05,1,0,0,-4.799988627,-3.00318E-05,1,0,0,0,6,6,3,1,6100fad499688019dec679cd,61036cb4acf6b2bc6e56281a,2021-07-29_21h09.29.051,Simcolourproject_2stim_asymm_v5,2020.2.10,Win32,60,61025ae37ef11b136ea224fe,,,,,,,,,,,,,,,,,,,,,,,,,,,,,,,,,,,,,,,,,,,,,,
,,,,,,,,,,,,,FF,,,,,,,,1.583,,,,,,,,,,,,,,,,,,,,,,6100fad499688019dec679cd,61036cb4acf6b2bc6e56281a,2021-07-29_21h09.29.051,Simcolourproject_2stim_asymm_v5,2020.2.10,Win32,60,61025ae37ef11b136ea224fe,,,,,,,space,9.9071,1903,-21.59998888,-41.60000624,1,0,0,response5disk,,3,0.800011456,-4.000030091,1,0,0,rectangle,0.800011456,-4.000030091,1,0,0,0.800011456,-4.000030091,1,0,0,0,0,0,145,1,,,,,,,,
,,,,,,,,,,,,,FF,,,,,,,,4.0827,,,,,,,,,,,,,,,,,,,,,,6100fad499688019dec679cd,61036cb4acf6b2bc6e56281a,2021-07-29_21h09.29.051,Simcolourproject_2stim_asymm_v5,2020.2.10,Win32,60,61025ae37ef11b136ea224fe,,,,,,,,,1270,40.80001205,-18.40000589,1,0,0,response3disk,,5,19.20001173,0.799994394,1,0,0,rectangle,19.20001173,0.799994394,1,0,0,19.20001173,0.799994394,1,0,0,0,1,1,86,1,,,,,,,,
,,,,,,,,,,,,,FF,,,,,,,,3.149,,,,,,,,,,,,,,,,,,,,,,6100fad499688019dec679cd,61036cb4acf6b2bc6e56281a,2021-07-29_21h09.29.051,Simcolourproject_2stim_asymm_v5,2020.2.10,Win32,60,61025ae37ef11b136ea224fe,,,,,,,,,1608,-50.39994048,23.19999473,1,0,0,response7disk,,1,-11.99998873,2.399970004,1,0,0,rectangle,-11.99998873,2.399970004,1,0,0,-11.99998873,2.399970004,1,0,0,0,2,2,109,1,,,,,,,,
,,,,,,,,,,,,,FF,,,,,,,,3.2997,,,,,,,,,,,,,,,,,,,,,,6100fad499688019dec679cd,61036cb4acf6b2bc6e56281a,2021-07-29_21h09.29.051,Simcolourproject_2stim_asymm_v5,2020.2.10,Win32,60,61025ae37ef11b136ea224fe,,,,,,,,,1082,35.20001197,-25.60003041,1,0,0,response3disk,,5,-8.799988687,7.19999449,1,0,0,rectangle,-20.79998887,-47.20000632,1,0,0,6.400011539,-5.600030115,1,0,0,0,3,3,124,1,,response5disk_3,TRUE,3,3,"[131,20,161,35,73,44,301,184,247,145,21,30,276,215,4,25,220,186,16,197]",3.734,rectangle
,,,,,,,,,,,,,FF,,,,,,,,1.283,,,,,,,,,,,,,,,,,,,,,,6100fad499688019dec679cd,61036cb4acf6b2bc6e56281a,2021-07-29_21h09.29.051,Simcolourproject_2stim_asymm_v5,2020.2.10,Win32,60,61025ae37ef11b136ea224fe,,,,,,,,,1559,29.60006071,-40.80000623,1,0,0,response3disk,,4,10.4000116,-3.00318E-05,1,0,0,rectangle,10.4000116,-3.00318E-05,1,0,0,10.4000116,-3.00318E-05,1,0,0,0,4,4,69,1,,,,,,,,
,,,,,,,,,,,,,FF,,,,,,,,2.8489,,,,,,,,,,,,,,,,,,,,,,6100fad499688019dec679cd,61036cb4acf6b2bc6e56281a,2021-07-29_21h09.29.051,Simcolourproject_2stim_asymm_v5,2020.2.10,Win32,60,61025ae37ef11b136ea224fe,,,,,,,,,1780,32.00001192,-35.20000614,1,0,0,response3disk,,4,1.14441E-05,-3.00318E-05,1,0,0,rectangle,1.14441E-05,-3.00318E-05,1,0,0,1.14441E-05,-3.00318E-05,1,0,0,0,5,5,140,1,,,,,,,,
,,,,,,,,,,,,,FF,,,,,,,,2.2495,,,,,,,,,,,,,,,,,,,,,,6100fad499688019dec679cd,61036cb4acf6b2bc6e56281a,2021-07-29_21h09.29.051,Simcolourproject_2stim_asymm_v5,2020.2.10,Win32,60,61025ae37ef11b136ea224fe,,,,,,,,,242,49.60006101,16.79999463,1,0,0,response1disk,,6,0.800011456,-5.600030115,1,0,0,rectangle,0.800011456,-5.600030115,1,0,0,0.800011456,-5.600030115,1,0,0,0,6,6,40,1,,,,,,,,
,,,,,,,,,,,,,FF,,,,,,,,1.1328,,,,,,,,,,,,,,,,,,,,,,6100fad499688019dec679cd,61036cb4acf6b2bc6e56281a,2021-07-29_21h09.29.051,Simcolourproject_2stim_asymm_v5,2020.2.10,Win32,60,61025ae37ef11b136ea224fe,,,,,,,,,3,-39.99998915,-15.20000584,1,0,0,response5disk,,2,-1.59998858,7.999970087,1,0,0,rectangle,-1.59998858,7.999970087,1,0,0,-1.59998858,7.999970087,1,0,0,0,7,7,107,1,,,,,,,,
,,,,,,,,,,,,,FF,,,,,,,,1.6831,,,,,,,,,,,,,,,,,,,,,,6100fad499688019dec679cd,61036cb4acf6b2bc6e56281a,2021-07-29_21h09.29.051,Simcolourproject_2stim_asymm_v5,2020.2.10,Win32,60,61025ae37ef11b136ea224fe,,,,,,,,,2838,-25.59998894,-38.40000619,1,0,0,response5disk,,3,-1.59998858,-2.400005654,1,0,0,rectangle,-1.59998858,-2.400005654,1,0,0,-1.59998858,-2.400005654,1,0,0,0,8,8,142,1,,,,,,,,
,,,,,,,,,,,,,FF,,,,,,,,1.7831,,,,,,,,,,,,,,,,,,,,,,6100fad499688019dec679cd,61036cb4acf6b2bc6e56281a,2021-07-29_21h09.29.051,Simcolourproject_2stim_asymm_v5,2020.2.10,Win32,60,61025ae37ef11b136ea224fe,,,,,,,,,900,-15.99998879,-43.20000626,1,0,0,response5disk,,3,1.600060296,-3.00318E-05,1,0,0,rectangle,1.600060296,-3.00318E-05,1,0,0,1.600060296,-3.00318E-05,1,0,0,0,9,9,49,1,,,,,,,,
,,,,,,,,,,,,,FF,,,,,,,,1.5876,,,,,,,,,,,,,,,,,,,,,,6100fad499688019dec679cd,61036cb4acf6b2bc6e56281a,2021-07-29_21h09.29.051,Simcolourproject_2stim_asymm_v5,2020.2.10,Win32,60,61025ae37ef11b136ea224fe,,,,,,,,,387,22.40001178,-48.80000634,1,0,0,response3disk,,4,-10.39993988,6.399970064,1,0,0,rectangle,-10.39993988,6.399970064,1,0,0,-10.39993988,6.399970064,1,0,0,0,10,10,9,1,,,,,,,,
,,,,,,,,,,,,,FF,,,,,,,,1.5661,,,,,,,,,,,,,,,,,,,,,,6100fad499688019dec679cd,61036cb4acf6b2bc6e56281a,2021-07-29_21h09.29.051,Simcolourproject_2stim_asymm_v5,2020.2.10,Win32,60,61025ae37ef11b136ea224fe,,,,,,,,,1127,49.60006101,-15.20000584,1,0,0,response3disk,,5,12.00001162,2.399970004,1,0,0,rectangle,12.00001162,2.399970004,1,0,0,12.00001162,2.399970004,1,0,0,0,11,11,154,1,,,,,,,,
,,,,,,,,,,,,,FF,,,,,,,,1.2828,,,,,,,,,,,,,,,,,,,,,,6100fad499688019dec679cd,61036cb4acf6b2bc6e56281a,2021-07-29_21h09.29.051,Simcolourproject_2stim_asymm_v5,2020.2.10,Win32,60,61025ae37ef11b136ea224fe,,,,,,,,,3647,41.60006089,22.3999703,1,0,0,response1disk,,6,16.80001169,1.599994406,1,0,0,rectangle,16.80001169,1.599994406,1,0,0,16.80001169,1.599994406,1,0,0,0,12,12,87,1,,,,,,,,
,,,,,,,,,,,,,FF,,,,,,,,3.4663,,,,,,,,,,,,,,,,,,,,,,6100fad499688019dec679cd,61036cb4acf6b2bc6e56281a,2021-07-29_21h09.29.051,Simcolourproject_2stim_asymm_v5,2020.2.10,Win32,60,61025ae37ef11b136ea224fe,,,,,,,,,2299,-43.1999892,27.19999479,1,0,0,response7disk,,1,-3.999988616,0.799994394,1,0,0,rectangle,-3.999988616,0.799994394,1,0,0,-3.999988616,0.799994394,1,0,0,0,13,13,113,1,,,,,,,,
,,,,,,,,,,,,,FF,,,,,,,,1.1665,,,,,,,,,,,,,,,,,,,,,,6100fad499688019dec679cd,61036cb4acf6b2bc6e56281a,2021-07-29_21h09.29.051,Simcolourproject_2stim_asymm_v5,2020.2.10,Win32,60,61025ae37ef11b136ea224fe,,,,,,,,,1940,14.40001166,-36.80000617,1,0,0,response3disk,,4,-11.19998872,4.799994454,1,0,0,rectangle,-11.19998872,4.799994454,1,0,0,-11.19998872,4.799994454,1,0,0,0,14,14,77,1,,,,,,,,
,,,,,,,,,,,,,FF,,,,,,,,1.1026,,,,,,,,,,,,,,,,,,,,,,6100fad499688019dec679cd,61036cb4acf6b2bc6e56281a,2021-07-29_21h09.29.051,Simcolourproject_2stim_asymm_v5,2020.2.10,Win32,60,61025ae37ef11b136ea224fe,,,,,,,,,366,-29.599989,46.39997066,1,0,0,response7disk,,0,11.20001161,0.799994394,1,0,0,rectangle,52.80001223,35.19999491,1,0,0,19.20001173,-3.00318E-05,1,0,0,0,15,15,90,1,,response1disk_3,TRUE,6,6,"[131,20,161,35,73,44,301,184,247,145,21,30,276,215,4,25,220,186,16,197]",2.1324,rectangle
,,,,,,,,,,,,,FF,,,,,,,,1.3013,,,,,,,,,,,,,,,,,,,,,,6100fad499688019dec679cd,61036cb4acf6b2bc6e56281a,2021-07-29_21h09.29.051,Simcolourproject_2stim_asymm_v5,2020.2.10,Win32,60,61025ae37ef11b136ea224fe,,,,,,,,,875,-22.39994006,-38.40000619,1,0,0,response5disk,,3,-4.799988627,3.19999443,1,0,0,rectangle,-4.799988627,3.19999443,1,0,0,-4.799988627,3.19999443,1,0,0,0,16,16,85,1,,,,,,,,
,,,,,,,,,,,,,FF,,,,,,,,3.2343,,,,,,,,,,,,,,,,,,,,,,6100fad499688019dec679cd,61036cb4acf6b2bc6e56281a,2021-07-29_21h09.29.051,Simcolourproject_2stim_asymm_v5,2020.2.10,Win32,60,61025ae37ef11b136ea224fe,,,,,,,,,2286,25.60006065,-26.40000601,1,0,0,response3disk,,4,24.0000118,3.999970028,1,0,0,rectangle,24.0000118,3.999970028,1,0,0,24.0000118,3.999970028,1,0,0,0,17,17,54,1,,,,,,,,
,,,,,,,,,,,,,FF,,,,,,,,1.2329,,,,,,,,,,,,,,,,,,,,,,6100fad499688019dec679cd,61036cb4acf6b2bc6e56281a,2021-07-29_21h09.29.051,Simcolourproject_2stim_asymm_v5,2020.2.10,Win32,60,61025ae37ef11b136ea224fe,,,,,,,,,1735,24.0000118,-40.80000623,1,0,0,response3disk,,4,11.20001161,8.799994513,1,0,0,rectangle,11.20001161,8.799994513,1,0,0,11.20001161,8.799994513,1,0,0,0,18,18,67,1,,,,,,,,
,,,,,,,,,,,,,FF,,,,,,,,1.2167,,,,,,,,,,,,,,,,,,,,,,6100fad499688019dec679cd,61036cb4acf6b2bc6e56281a,2021-07-29_21h09.29.051,Simcolourproject_2stim_asymm_v5,2020.2.10,Win32,60,61025ae37ef11b136ea224fe,,,,,,,,,2351,40.00001204,-23.20000596,1,0,0,response3disk,,5,2.40001148,-3.00318E-05,1,0,0,rectangle,49.60006101,31.19999485,1,0,0,12.00001162,5.599994466,1,0,0,0,19,19,81,1,,response1disk_3,TRUE,6,6,"[131,20,161,35,73,44,301,184,247,145,21,30,276,215,4,25,220,186,16,197]",1.7853,rectangle
,,,,,,,,,,,,,FF,,,,,,,,1.0497,,,,,,,,,,,,,,,,,,,,,,6100fad499688019dec679cd,61036cb4acf6b2bc6e56281a,2021-07-29_21h09.29.051,Simcolourproject_2stim_asymm_v5,2020.2.10,Win32,60,61025ae37ef11b136ea224fe,,,,,,,,,4367,-41.59998918,25.59999476,1,0,0,response7disk,,1,8.800011575,-0.80000563,1,0,0,rectangle,23.20001179,-49.60000636,1,0,0,2.40001148,5.599994466,1,0,0,0,20,20,45,1,,response3disk_3,TRUE,4,4,"[131,20,161,35,73,44,301,184,247,145,21,30,276,215,4,25,220,186,16,197]",1.7169,rectangle
,,,,,,,,,,,,,FF,,,,,,,,2.2501,,,,,,,,,,,,,,,,,,,,,,6100fad499688019dec679cd,61036cb4acf6b2bc6e56281a,2021-07-29_21h09.29.051,Simcolourproject_2stim_asymm_v5,2020.2.10,Win32,60,61025ae37ef11b136ea224fe,,,,,,,,,1774,-29.599989,-43.20000626,1,0,0,response5disk,,3,-7.999988675,3.19999443,1,0,0,rectangle,-7.999988675,3.19999443,1,0,0,-7.999988675,3.19999443,1,0,0,0,21,21,84,1,,,,,,,,
,,,,,,,,,,,,,FF,,,,,,,,1.3832,,,,,,,,,,,,,,,,,,,,,,6100fad499688019dec679cd,61036cb4acf6b2bc6e56281a,2021-07-29_21h09.29.051,Simcolourproject_2stim_asymm_v5,2020.2.10,Win32,60,61025ae37ef11b136ea224fe,,,,,,,,,3723,20.80001175,-35.20000614,1,0,0,response3disk,,4,-2.399939764,-3.00318E-05,1,0,0,rectangle,-2.399939764,-3.00318E-05,1,0,0,-2.399939764,-3.00318E-05,1,0,0,0,22,22,134,1,,,,,,,,
,,,,,,,,,,,,,FF,,,,,,,,2.2338,,,,,,,,,,,,,,,,,,,,,,6100fad499688019dec679cd,61036cb4acf6b2bc6e56281a,2021-07-29_21h09.29.051,Simcolourproject_2stim_asymm_v5,2020.2.10,Win32,60,61025ae37ef11b136ea224fe,,,,,,,,,4354,-44.79998922,-15.20000584,1,0,0,response5disk,,2,-12.79998875,-2.400005654,1,0,0,rectangle,-12.79998875,-2.400005654,1,0,0,-12.79998875,-2.400005654,1,0,0,0,23,23,6,1,,,,,,,,
,,,,,,,,,,,,,FF,,,,,,,,1.8339,,,,,,,,,,,,,,,,,,,,,,6100fad499688019dec679cd,61036cb4acf6b2bc6e56281a,2021-07-29_21h09.29.051,Simcolourproject_2stim_asymm_v5,2020.2.10,Win32,60,61025ae37ef11b136ea224fe,,,,,,,,,334,46.40001214,-23.20000596,1,0,0,response3disk,,5,5.600060356,-0.80000563,1,0,0,rectangle,-59.19998944,-19.2000059,1,0,0,-5.599988639,-6.400005713,1,0,0,0,24,24,44,1,,response5disk_3,TRUE,2,2,"[131,20,161,35,73,44,301,184,247,145,21,30,276,215,4,25,220,186,16,197]",1.6649,rectangle
,,,,,,,,,,,,,FF,,,,,,,,1.2832,,,,,,,,,,,,,,,,,,,,,,6100fad499688019dec679cd,61036cb4acf6b2bc6e56281a,2021-07-29_21h09.29.051,Simcolourproject_2stim_asymm_v5,2020.2.10,Win32,60,61025ae37ef11b136ea224fe,,,,,,,,,2787,13.60006047,-37.60000618,1,0,0,response3disk,,4,-2.399939764,0.799994394,1,0,0,rectangle,-2.399939764,0.799994394,1,0,0,-2.399939764,0.799994394,1,0,0,0,25,25,120,1,,,,,,,,
,,,,,,,,,,,,,FF,,,,,,,,2.3833,,,,,,,,,,,,,,,,,,,,,,6100fad499688019dec679cd,61036cb4acf6b2bc6e56281a,2021-07-29_21h09.29.051,Simcolourproject_2stim_asymm_v5,2020.2.10,Win32,60,61025ae37ef11b136ea224fe,,,,,,,,,1506,19.20001173,-45.6000063,1,0,0,response3disk,,4,-3.199988604,0.799994394,1,0,0,rectangle,-3.199988604,0.799994394,1,0,0,-3.199988604,0.799994394,1,0,0,0,26,26,71,1,,,,,,,,
,,,,,,,,,,,,,FF,,,,,,,,2.6331,,,,,,,,,,,,,,,,,,,,,,6100fad499688019dec679cd,61036cb4acf6b2bc6e56281a,2021-07-29_21h09.29.051,Simcolourproject_2stim_asymm_v5,2020.2.10,Win32,60,61025ae37ef11b136ea224fe,,,,,,,,,1175,50.4000122,-17.60003029,1,0,0,response3disk,,5,4.000011504,1.599994406,1,0,0,rectangle,4.000011504,1.599994406,1,0,0,4.000011504,1.599994406,1,0,0,0,27,27,151,1,,,,,,,,
,,,,,,,,,,,,,FF,,,,,,,,1.3828,,,,,,,,,,,,,,,,,,,,,,6100fad499688019dec679cd,61036cb4acf6b2bc6e56281a,2021-07-29_21h09.29.051,Simcolourproject_2stim_asymm_v5,2020.2.10,Win32,60,61025ae37ef11b136ea224fe,,,,,,,,,2313,12.80001163,-42.40000625,1,0,0,response3disk,,4,-10.39993988,2.399970004,1,0,0,rectangle,-10.39993988,2.399970004,1,0,0,-10.39993988,2.399970004,1,0,0,0,28,28,2,1,,,,,,,,
,,,,,,,,,,,,,FF,,,,,,,,1.2998,,,,,,,,,,,,,,,,,,,,,,6100fad499688019dec679cd,61036cb4acf6b2bc6e56281a,2021-07-29_21h09.29.051,Simcolourproject_2stim_asymm_v5,2020.2.10,Win32,60,61025ae37ef11b136ea224fe,,,,,,,,,3167,22.40001178,-40.00000621,1,0,0,response3disk,,4,12.00001162,2.399970004,1,0,0,rectangle,13.60006047,-50.40000637,1,0,0,1.600060296,-3.00318E-05,1,0,0,0,29,29,24,1,,response3disk_3,TRUE,4,4,"[131,20,161,35,73,44,301,184,247,145,21,30,276,215,4,25,220,186,16,197]",1.332,rectangle
,,,,,,,,,,,,,FF,,,,,,,,1.4663,,,,,,,,,,,,,,,,,,,,,,6100fad499688019dec679cd,61036cb4acf6b2bc6e56281a,2021-07-29_21h09.29.051,Simcolourproject_2stim_asymm_v5,2020.2.10,Win32,60,61025ae37ef11b136ea224fe,,,,,,,,,3851,-50.39994048,19.99997027,1,0,0,response7disk,,1,4.800011516,-0.80000563,1,0,0,rectangle,4.800011516,-0.80000563,1,0,0,4.800011516,-0.80000563,1,0,0,0,30,30,12,1,,,,,,,,
,,,,,,,,,,,,,FF,,,,,,,,0.9846,,,,,,,,,,,,,,,,,,,,,,6100fad499688019dec679cd,61036cb4acf6b2bc6e56281a,2021-07-29_21h09.29.051,Simcolourproject_2stim_asymm_v5,2020.2.10,Win32,60,61025ae37ef11b136ea224fe,,,,,,,,,3233,39.20001203,-15.20000584,1,0,0,response3disk,,5,9.600060415,-0.80000563,1,0,0,rectangle,9.600060415,-0.80000563,1,0,0,9.600060415,-0.80000563,1,0,0,0,31,31,37,1,,,,,,,,
,,,,,,,,,,,,,FF,,,,,,,,1.0334,,,,,,,,,,,,,,,,,,,,,,6100fad499688019dec679cd,61036cb4acf6b2bc6e56281a,2021-07-29_21h09.29.051,Simcolourproject_2stim_asymm_v5,2020.2.10,Win32,60,61025ae37ef11b136ea224fe,,,,,,,,,664,34.40001196,-16.00003027,1,0,0,response3disk,,5,13.60006047,-3.200005665,1,0,0,rectangle,13.60006047,-3.200005665,1,0,0,13.60006047,-3.200005665,1,0,0,0,32,32,41,1,,,,,,,,
,,,,,,,,,,,,,FF,,,,,,,,2.4152,,,,,,,,,,,,,,,,,,,,,,6100fad499688019dec679cd,61036cb4acf6b2bc6e56281a,2021-07-29_21h09.29.051,Simcolourproject_2stim_asymm_v5,2020.2.10,Win32,60,61025ae37ef11b136ea224fe,,,,,,,,,3193,35.20001197,-22.40000595,1,0,0,response3disk,,5,-4.799988627,-8.000030151,1,0,0,rectangle,-4.799988627,-8.000030151,1,0,0,-4.799988627,-8.000030151,1,0,0,0,33,33,30,1,,,,,,,,
,,,,,,,,,,,,,FF,,,,,,,,2.3166,,,,,,,,,,,,,,,,,,,,,,6100fad499688019dec679cd,61036cb4acf6b2bc6e56281a,2021-07-29_21h09.29.051,Simcolourproject_2stim_asymm_v5,2020.2.10,Win32,60,61025ae37ef11b136ea224fe,,,,,,,,,1639,46.40001214,-9.600030175,1,0,0,response3disk,,5,8.000011563,3.999970028,1,0,0,rectangle,40.00001204,-16.80000587,1,0,0,7.200011551,-4.000030091,1,0,0,0,34,34,102,1,,response3disk_3,TRUE,5,5,"[131,20,161,35,73,44,301,184,247,145,21,30,276,215,4,25,220,186,16,197]",1.5162,rectangle
,,,,,,,,,,,,,FF,,,,,,,,1.9662,,,,,,,,,,,,,,,,,,,,,,6100fad499688019dec679cd,61036cb4acf6b2bc6e56281a,2021-07-29_21h09.29.051,Simcolourproject_2stim_asymm_v5,2020.2.10,Win32,60,61025ae37ef11b136ea224fe,,,,,,,,,2954,-51.19998932,-12.00003021,1,0,0,response5disk,,2,1.14441E-05,6.399970064,1,0,0,rectangle,1.14441E-05,6.399970064,1,0,0,1.14441E-05,6.399970064,1,0,0,0,35,35,75,1,,,,,,,,
,,,,,,,,,,,,,FF,,,,,,,,1.3672,,,,,,,,,,,,,,,,,,,,,,6100fad499688019dec679cd,61036cb4acf6b2bc6e56281a,2021-07-29_21h09.29.051,Simcolourproject_2stim_asymm_v5,2020.2.10,Win32,60,61025ae37ef11b136ea224fe,,,,,,,,,979,-43.1999892,-18.40000589,1,0,0,response5disk,,2,11.20001161,-4.000030091,1,0,0,rectangle,11.20001161,-4.000030091,1,0,0,11.20001161,-4.000030091,1,0,0,0,36,36,26,1,,,,,,,,
,,,,,,,,,,,,,FF,,,,,,,,1.4664,,,,,,,,,,,,,,,,,,,,,,6100fad499688019dec679cd,61036cb4acf6b2bc6e56281a,2021-07-29_21h09.29.051,Simcolourproject_2stim_asymm_v5,2020.2.10,Win32,60,61025ae37ef11b136ea224fe,,,,,,,,,2207,16.80001169,-34.40000613,1,0,0,response3disk,,4,8.800011575,-7.200005725,1,0,0,rectangle,8.800011575,-7.200005725,1,0,0,8.800011575,-7.200005725,1,0,0,0,37,37,17,1,,,,,,,,
,,,,,,,,,,,,,FF,,,,,,,,1.2158,,,,,,,,,,,,,,,,,,,,,,6100fad499688019dec679cd,61036cb4acf6b2bc6e56281a,2021-07-29_21h09.29.051,Simcolourproject_2stim_asymm_v5,2020.2.10,Win32,60,61025ae37ef11b136ea224fe,,,,,,,,,505,36.80001199,25.59999476,1,0,0,response1disk,,6,5.600060356,-4.000030091,1,0,0,rectangle,5.600060356,-4.000030091,1,0,0,5.600060356,-4.000030091,1,0,0,0,38,38,62,1,,,,,,,,
,,,,,,,,,,,,,FF,,,,,,,,6.4491,,,,,,,,,,,,,,,,,,,,,,6100fad499688019dec679cd,61036cb4acf6b2bc6e56281a,2021-07-29_21h09.29.051,Simcolourproject_2stim_asymm_v5,2020.2.10,Win32,60,61025ae37ef11b136ea224fe,,,,,,,,,3354,40.00001204,15.19999461,1,0,0,response1disk,,6,4.800011516,-3.00318E-05,1,0,0,rectangle,4.800011516,-3.00318E-05,1,0,0,4.800011516,-3.00318E-05,1,0,0,0,39,39,82,1,,,,,,,,
,,,,,,,,,,,,,FF,,,,,,,,6.0168,,,,,,,,,,,,,,,,,,,,,,6100fad499688019dec679cd,61036cb4acf6b2bc6e56281a,2021-07-29_21h09.29.051,Simcolourproject_2stim_asymm_v5,2020.2.10,Win32,60,61025ae37ef11b136ea224fe,,,,,,,,,2806,60.00001234,31.19999485,1,0,0,response1disk,,6,6.400011539,2.399970004,1,0,0,rectangle,6.400011539,2.399970004,1,0,0,6.400011539,2.399970004,1,0,0,0,40,40,122,1,,,,,,,,
,,,,,,,,,,,,,FF,,,,,,,,1.083,,,,,,,,,,,,,,,,,,,,,,6100fad499688019dec679cd,61036cb4acf6b2bc6e56281a,2021-07-29_21h09.29.051,Simcolourproject_2stim_asymm_v5,2020.2.10,Win32,60,61025ae37ef11b136ea224fe,,,,,,,,,3551,-31.19998902,42.3999706,1,0,0,response7disk,,0,5.600060356,-0.80000563,1,0,0,rectangle,5.600060356,-0.80000563,1,0,0,5.600060356,-0.80000563,1,0,0,0,41,41,4,1,,,,,,,,
,,,,,,,,,,,,,FF,,,,,,,,0.8833,,,,,,,,,,,,,,,,,,,,,,6100fad499688019dec679cd,61036cb4acf6b2bc6e56281a,2021-07-29_21h09.29.051,Simcolourproject_2stim_asymm_v5,2020.2.10,Win32,60,61025ae37ef11b136ea224fe,,,,,,,,,1526,-37.59998912,13.59999458,1,0,0,response7disk,,1,-5.599988639,-8.800005749,1,0,0,rectangle,-5.599988639,-8.800005749,1,0,0,-5.599988639,-8.800005749,1,0,0,0,42,42,135,1,,,,,,,,
,,,,,,,,,,,,,FF,,,,,,,,1.3187,,,,,,,,,,,,,,,,,,,,,,6100fad499688019dec679cd,61036cb4acf6b2bc6e56281a,2021-07-29_21h09.29.051,Simcolourproject_2stim_asymm_v5,2020.2.10,Win32,60,61025ae37ef11b136ea224fe,,,,,,,,,1482,23.20001179,-31.20000608,1,0,0,response3disk,,4,17.60006053,-7.200005725,1,0,0,rectangle,24.0000118,44.79999505,1,0,0,10.4000116,-1.600030056,1,0,0,0,43,43,52,1,,response1disk_3,TRUE,7,7,"[131,20,161,35,73,44,301,184,247,145,21,30,276,215,4,25,220,186,16,197]",1.4481,rectangle
,,,,,,,,,,,,,FF,,,,,,,,2.9498,,,,,,,,,,,,,,,,,,,,,,6100fad499688019dec679cd,61036cb4acf6b2bc6e56281a,2021-07-29_21h09.29.051,Simcolourproject_2stim_asymm_v5,2020.2.10,Win32,60,61025ae37ef11b136ea224fe,,,,,,,,,2794,26.40001184,-34.40000613,1,0,0,response3disk,,4,1.14441E-05,7.999970087,1,0,0,rectangle,1.14441E-05,7.999970087,1,0,0,1.14441E-05,7.999970087,1,0,0,0,44,44,137,1,,,,,,,,
,,,,,,,,,,,,,FF,,,,,,,,1.2164,,,,,,,,,,,,,,,,,,,,,,6100fad499688019dec679cd,61036cb4acf6b2bc6e56281a,2021-07-29_21h09.29.051,Simcolourproject_2stim_asymm_v5,2020.2.10,Win32,60,61025ae37ef11b136ea224fe,,,,,,,,,2414,-20.79998887,-30.40000607,1,0,0,response5disk,,3,4.000011504,1.599994406,1,0,0,rectangle,4.000011504,1.599994406,1,0,0,4.000011504,1.599994406,1,0,0,0,45,45,128,1,,,,,,,,
,,,,,,,,,,,,,FF,,,,,,,,2.1671,,,,,,,,,,,,,,,,,,,,,,6100fad499688019dec679cd,61036cb4acf6b2bc6e56281a,2021-07-29_21h09.29.051,Simcolourproject_2stim_asymm_v5,2020.2.10,Win32,60,61025ae37ef11b136ea224fe,,,,,,,,,2213,27.20001185,41.599995,1,0,0,response1disk,,7,14.40001166,6.399970064,1,0,0,rectangle,14.40001166,6.399970064,1,0,0,14.40001166,6.399970064,1,0,0,0,46,46,112,1,,,,,,,,
,,,,,,,,,,,,,FF,,,,,,,,1.3671,,,,,,,,,,,,,,,,,,,,,,6100fad499688019dec679cd,61036cb4acf6b2bc6e56281a,2021-07-29_21h09.29.051,Simcolourproject_2stim_asymm_v5,2020.2.10,Win32,60,61025ae37ef11b136ea224fe,,,,,,,,,1242,47.20001215,18.39997024,1,0,0,response1disk,,6,-2.399939764,-4.000030091,1,0,0,rectangle,-2.399939764,-4.000030091,1,0,0,-2.399939764,-4.000030091,1,0,0,0,47,47,147,1,,,,,,,,
,,,,,,,,,,,,,FF,,,,,,,,0.9162,,,,,,,,,,,,,,,,,,,,,,6100fad499688019dec679cd,61036cb4acf6b2bc6e56281a,2021-07-29_21h09.29.051,Simcolourproject_2stim_asymm_v5,2020.2.10,Win32,60,61025ae37ef11b136ea224fe,,,,,,,,,1398,34.40001196,14.39997018,1,0,0,response1disk,,6,-3.199988604,0.799994394,1,0,0,rectangle,-3.199988604,0.799994394,1,0,0,-3.199988604,0.799994394,1,0,0,0,48,48,114,1,,,,,,,,
,,,,,,,,,,,,,FF,,,,,,,,2.3823,,,,,,,,,,,,,,,,,,,,,,6100fad499688019dec679cd,61036cb4acf6b2bc6e56281a,2021-07-29_21h09.29.051,Simcolourproject_2stim_asymm_v5,2020.2.10,Win32,60,61025ae37ef11b136ea224fe,,,,,,,,,711,13.60006047,-26.40000601,1,0,0,response3disk,,4,1.14441E-05,3.999970028,1,0,0,rectangle,1.14441E-05,3.999970028,1,0,0,1.14441E-05,3.999970028,1,0,0,0,49,49,129,1,,,,,,,,
,,,,,,,,,,,,,FF,,,,,,,,2.1998,,,,,,,,,,,,,,,,,,,,,,6100fad499688019dec679cd,61036cb4acf6b2bc6e56281a,2021-07-29_21h09.29.051,Simcolourproject_2stim_asymm_v5,2020.2.10,Win32,60,61025ae37ef11b136ea224fe,,,,,,,,,2084,17.60006053,26.39997036,1,0,0,response1disk,,7,2.40001148,-4.000030091,1,0,0,rectangle,2.40001148,-4.000030091,1,0,0,2.40001148,-4.000030091,1,0,0,0,50,50,59,1,,,,,,,,
,,,,,,,,,,,,,FF,,,,,,,,1.4002,,,,,,,,,,,,,,,,,,,,,,6100fad499688019dec679cd,61036cb4acf6b2bc6e56281a,2021-07-29_21h09.29.051,Simcolourproject_2stim_asymm_v5,2020.2.10,Win32,60,61025ae37ef11b136ea224fe,,,,,,,,,636,-34.39994024,-11.20000578,1,0,0,response5disk,,2,-14.39993994,2.399970004,1,0,0,rectangle,-14.39993994,2.399970004,1,0,0,-14.39993994,2.399970004,1,0,0,0,51,51,101,1,,,,,,,,
,,,,,,,,,,,,,FF,,,,,,,,0.9493,,,,,,,,,,,,,,,,,,,,,,6100fad499688019dec679cd,61036cb4acf6b2bc6e56281a,2021-07-29_21h09.29.051,Simcolourproject_2stim_asymm_v5,2020.2.10,Win32,60,61025ae37ef11b136ea224fe,,,,,,,,,4242,28.80001187,14.39997018,1,0,0,response1disk,,6,2.40001148,0.799994394,1,0,0,rectangle,2.40001148,0.799994394,1,0,0,2.40001148,0.799994394,1,0,0,0,52,52,72,1,,,,,,,,
,,,,,,,,,,,,,FF,,,,,,,,1.3497,,,,,,,,,,,,,,,,,,,,,,6100fad499688019dec679cd,61036cb4acf6b2bc6e56281a,2021-07-29_21h09.29.051,Simcolourproject_2stim_asymm_v5,2020.2.10,Win32,60,61025ae37ef11b136ea224fe,,,,,,,,,4339,-39.99998915,-16.80000587,1,0,0,response5disk,,2,-23.1999889,-4.800005689,1,0,0,rectangle,-23.1999889,-4.800005689,1,0,0,-23.1999889,-4.800005689,1,0,0,0,53,53,115,1,,,,,,,,
,,,,,,,,,,,,,FF,,,,,,,,8.4323,,,,,,,,,,,,,,,,,,,,,,6100fad499688019dec679cd,61036cb4acf6b2bc6e56281a,2021-07-29_21h09.29.051,Simcolourproject_2stim_asymm_v5,2020.2.10,Win32,60,61025ae37ef11b136ea224fe,,,,,,,,,349,-27.99998897,-55.20000644,1,0,0,response5disk,,3,2.40001148,-5.600030115,1,0,0,rectangle,2.40001148,-5.600030115,1,0,0,2.40001148,-5.600030115,1,0,0,0,54,54,119,1,,,,,,,,
,,,,,,,,,,,,,FF,,,,,,,,1.0507,,,,,,,,,,,,,,,,,,,,,,6100fad499688019dec679cd,61036cb4acf6b2bc6e56281a,2021-07-29_21h09.29.051,Simcolourproject_2stim_asymm_v5,2020.2.10,Win32,60,61025ae37ef11b136ea224fe,,,,,,,,,771,28.00001186,-38.40000619,1,0,0,response3disk,,4,9.600060415,-7.200005725,1,0,0,rectangle,9.600060415,-7.200005725,1,0,0,9.600060415,-7.200005725,1,0,0,0,55,55,123,1,,,,,,,,
,,,,,,,,,,,,,FF,,,,,,,,0.7836,,,,,,,,,,,,,,,,,,,,,,6100fad499688019dec679cd,61036cb4acf6b2bc6e56281a,2021-07-29_21h09.29.051,Simcolourproject_2stim_asymm_v5,2020.2.10,Win32,60,61025ae37ef11b136ea224fe,,,,,,,,,3308,24.80001181,9.599994525,1,0,0,response1disk,,6,7.200011551,-3.200005665,1,0,0,rectangle,7.200011551,-3.200005665,1,0,0,7.200011551,-3.200005665,1,0,0,0,56,56,108,1,,,,,,,,
,,,,,,,,,,,,,FF,,,,,,,,0.9833,,,,,,,,,,,,,,,,,,,,,,6100fad499688019dec679cd,61036cb4acf6b2bc6e56281a,2021-07-29_21h09.29.051,Simcolourproject_2stim_asymm_v5,2020.2.10,Win32,60,61025ae37ef11b136ea224fe,,,,,,,,,4052,-32.79998904,12.79999457,1,0,0,response7disk,,1,-6.399939823,11.99997015,1,0,0,rectangle,-6.399939823,11.99997015,1,0,0,-6.399939823,11.99997015,1,0,0,0,57,57,104,1,,,,,,,,
,,,,,,,,,,,,,FF,,,,,,,,1.5828,,,,,,,,,,,,,,,,,,,,,,6100fad499688019dec679cd,61036cb4acf6b2bc6e56281a,2021-07-29_21h09.29.051,Simcolourproject_2stim_asymm_v5,2020.2.10,Win32,60,61025ae37ef11b136ea224fe,,,,,,,,,489,38.40001202,-19.2000059,1,0,0,response3disk,,5,7.200011551,-0.80000563,1,0,0,rectangle,7.200011551,-0.80000563,1,0,0,7.200011551,-0.80000563,1,0,0,0,58,58,60,1,,,,,,,,
,,,,,,,,,,,,,FF,,,,,,,,0.9324,,,,,,,,,,,,,,,,,,,,,,6100fad499688019dec679cd,61036cb4acf6b2bc6e56281a,2021-07-29_21h09.29.051,Simcolourproject_2stim_asymm_v5,2020.2.10,Win32,60,61025ae37ef11b136ea224fe,,,,,,,,,1467,-38.3999403,-24.00003039,1,0,0,response5disk,,2,-6.399939823,0.799994394,1,0,0,rectangle,-6.399939823,0.799994394,1,0,0,-6.399939823,0.799994394,1,0,0,0,59,59,20,1,,,,,,,,
,,,,,,,,,,,,,FF,,,,,,,,3.3658,,,,,,,,,,,,,,,,,,,,,,6100fad499688019dec679cd,61036cb4acf6b2bc6e56281a,2021-07-29_21h09.29.051,Simcolourproject_2stim_asymm_v5,2020.2.10,Win32,60,61025ae37ef11b136ea224fe,,,,,,,,,308,19.20001173,-22.40000595,1,0,0,response3disk,,4,6.400011539,3.19999443,1,0,0,rectangle,6.400011539,3.19999443,1,0,0,6.400011539,3.19999443,1,0,0,0,60,60,13,1,,,,,,,,
,,,,,,,,,,,,,FF,,,,,,,,0.8502,,,,,,,,,,,,,,,,,,,,,,6100fad499688019dec679cd,61036cb4acf6b2bc6e56281a,2021-07-29_21h09.29.051,Simcolourproject_2stim_asymm_v5,2020.2.10,Win32,60,61025ae37ef11b136ea224fe,,,,,,,,,3940,-51.19998932,-24.00003039,1,0,0,response5disk,,2,-11.19998872,3.19999443,1,0,0,rectangle,-11.19998872,3.19999443,1,0,0,-11.19998872,3.19999443,1,0,0,0,61,61,136,1,,,,,,,,
,,,,,,,,,,,,,FF,,,,,,,,0.7995,,,,,,,,,,,,,,,,,,,,,,6100fad499688019dec679cd,61036cb4acf6b2bc6e56281a,2021-07-29_21h09.29.051,Simcolourproject_2stim_asymm_v5,2020.2.10,Win32,60,61025ae37ef11b136ea224fe,,,,,,,,,3396,-28.79998899,-15.20000584,1,0,0,response5disk,,2,12.80001163,-0.80000563,1,0,0,rectangle,12.80001163,-0.80000563,1,0,0,12.80001163,-0.80000563,1,0,0,0,62,62,156,1,,,,,,,,
,,,,,,,,,,,,,FF,,,,,,,,0.6331,,,,,,,,,,,,,,,,,,,,,,6100fad499688019dec679cd,61036cb4acf6b2bc6e56281a,2021-07-29_21h09.29.051,Simcolourproject_2stim_asymm_v5,2020.2.10,Win32,60,61025ae37ef11b136ea224fe,,,,,,,,,3039,-31.19998902,-21.60003035,1,0,0,response5disk,,2,-1.59998858,-3.200005665,1,0,0,rectangle,-1.59998858,-3.200005665,1,0,0,-1.59998858,-3.200005665,1,0,0,0,63,63,150,1,,,,,,,,
,,,,,,,,,,,,,FF,,,,,,,,1.2164,,,,,,,,,,,,,,,,,,,,,,6100fad499688019dec679cd,61036cb4acf6b2bc6e56281a,2021-07-29_21h09.29.051,Simcolourproject_2stim_asymm_v5,2020.2.10,Win32,60,61025ae37ef11b136ea224fe,,,,,,,,,87,37.60006083,-13.60003023,1,0,0,response3disk,,5,7.200011551,0.799994394,1,0,0,rectangle,7.200011551,0.799994394,1,0,0,7.200011551,0.799994394,1,0,0,0,64,64,138,1,,,,,,,,
,,,,,,,,,,,,,FF,,,,,,,,2.2834,,,,,,,,,,,,,,,,,,,,,,6100fad499688019dec679cd,61036cb4acf6b2bc6e56281a,2021-07-29_21h09.29.051,Simcolourproject_2stim_asymm_v5,2020.2.10,Win32,60,61025ae37ef11b136ea224fe,,,,,,,,,1632,18.40001172,-36.80000617,1,0,0,response3disk,,4,-1.59998858,5.599994466,1,0,0,rectangle,-1.59998858,5.599994466,1,0,0,-1.59998858,5.599994466,1,0,0,0,65,65,149,1,,,,,,,,
,,,,,,,,,,,,,FF,,,,,,,,1.6164,,,,,,,,,,,,,,,,,,,,,,6100fad499688019dec679cd,61036cb4acf6b2bc6e56281a,2021-07-29_21h09.29.051,Simcolourproject_2stim_asymm_v5,2020.2.10,Win32,60,61025ae37ef11b136ea224fe,,,,,,,,,2275,32.80001193,-14.40000583,1,0,0,response3disk,,5,10.4000116,-0.80000563,1,0,0,rectangle,10.4000116,-0.80000563,1,0,0,10.4000116,-0.80000563,1,0,0,0,66,66,100,1,,,,,,,,
,,,,,,,,,,,,,FF,,,,,,,,1.4345,,,,,,,,,,,,,,,,,,,,,,6100fad499688019dec679cd,61036cb4acf6b2bc6e56281a,2021-07-29_21h09.29.051,Simcolourproject_2stim_asymm_v5,2020.2.10,Win32,60,61025ae37ef11b136ea224fe,,,,,,,,,3778,-47.19998926,21.5999947,1,0,0,response7disk,,1,-0.799988568,9.599994525,1,0,0,rectangle,-0.799988568,9.599994525,1,0,0,-0.799988568,9.599994525,1,0,0,0,67,67,80,1,,,,,,,,
,,,,,,,,,,,,,FF,,,,,,,,1.7995,,,,,,,,,,,,,,,,,,,,,,6100fad499688019dec679cd,61036cb4acf6b2bc6e56281a,2021-07-29_21h09.29.051,Simcolourproject_2stim_asymm_v5,2020.2.10,Win32,60,61025ae37ef11b136ea224fe,,,,,,,,,3914,-40.79998916,-16.00003027,1,0,0,response5disk,,2,-14.39993994,-1.600030056,1,0,0,rectangle,-14.39993994,-1.600030056,1,0,0,-14.39993994,-1.600030056,1,0,0,0,68,68,28,1,,,,,,,,
,,,,,,,,,,,,,FF,,,,,,,,3.533,,,,,,,,,,,,,,,,,,,,,,6100fad499688019dec679cd,61036cb4acf6b2bc6e56281a,2021-07-29_21h09.29.051,Simcolourproject_2stim_asymm_v5,2020.2.10,Win32,60,61025ae37ef11b136ea224fe,,,,,,,,,3771,-16.79998881,-45.6000063,1,0,0,response5disk,,3,16.80001169,-3.200005665,1,0,0,rectangle,16.80001169,-3.200005665,1,0,0,16.80001169,-3.200005665,1,0,0,0,69,69,125,1,,,,,,,,
,,,,,,,,,,,,,FF,,,,,,,,0.8999,,,,,,,,,,,,,,,,,,,,,,6100fad499688019dec679cd,61036cb4acf6b2bc6e56281a,2021-07-29_21h09.29.051,Simcolourproject_2stim_asymm_v5,2020.2.10,Win32,60,61025ae37ef11b136ea224fe,,,,,,,,,4319,25.60006065,-12.00003021,1,0,0,response3disk,,5,7.200011551,0.799994394,1,0,0,rectangle,7.200011551,0.799994394,1,0,0,7.200011551,0.799994394,1,0,0,0,70,70,14,1,,,,,,,,
,,,,,,,,,,,,,FF,,,,,,,,2.9499,,,,,,,,,,,,,,,,,,,,,,6100fad499688019dec679cd,61036cb4acf6b2bc6e56281a,2021-07-29_21h09.29.051,Simcolourproject_2stim_asymm_v5,2020.2.10,Win32,60,61025ae37ef11b136ea224fe,,,,,,,,,3057,15.20001167,-27.20000602,1,0,0,response3disk,,4,6.400011539,-4.000030091,1,0,0,rectangle,6.400011539,-4.000030091,1,0,0,6.400011539,-4.000030091,1,0,0,0,71,71,132,1,,,,,,,,
,,,,,,,,,,,,,FF,,,,,,,,1.3003,,,,,,,,,,,,,,,,,,,,,,6100fad499688019dec679cd,61036cb4acf6b2bc6e56281a,2021-07-29_21h09.29.051,Simcolourproject_2stim_asymm_v5,2020.2.10,Win32,60,61025ae37ef11b136ea224fe,,,,,,,,,4007,37.60006083,27.19999479,1,0,0,response1disk,,6,2.40001148,3.999970028,1,0,0,rectangle,-38.3999403,-24.80000599,1,0,0,5.600060356,-8.000030151,1,0,0,0,72,72,157,1,,response5disk_3,TRUE,2,2,"[131,20,161,35,73,44,301,184,247,145,21,30,276,215,4,25,220,186,16,197]",1.3654,rectangle
,,,,,,,,,,,,,FF,,,,,,,,2.2164,,,,,,,,,,,,,,,,,,,,,,6100fad499688019dec679cd,61036cb4acf6b2bc6e56281a,2021-07-29_21h09.29.051,Simcolourproject_2stim_asymm_v5,2020.2.10,Win32,60,61025ae37ef11b136ea224fe,,,,,,,,,4178,12.80001163,38.39997054,1,0,0,response1disk,,7,7.200011551,10.39997012,1,0,0,rectangle,7.200011551,10.39997012,1,0,0,7.200011551,10.39997012,1,0,0,0,73,73,50,1,,,,,,,,
,,,,,,,,,,,,,FF,,,,,,,,1.3168,,,,,,,,,,,,,,,,,,,,,,6100fad499688019dec679cd,61036cb4acf6b2bc6e56281a,2021-07-29_21h09.29.051,Simcolourproject_2stim_asymm_v5,2020.2.10,Win32,60,61025ae37ef11b136ea224fe,,,,,,,,,3493,11.20001161,33.59999488,1,0,0,response1disk,,7,4.000011504,0.799994394,1,0,0,rectangle,4.000011504,0.799994394,1,0,0,4.000011504,0.799994394,1,0,0,0,74,74,18,1,,,,,,,,
,,,,,,,,,,,,,FF,,,,,,,,0.7995,,,,,,,,,,,,,,,,,,,,,,6100fad499688019dec679cd,61036cb4acf6b2bc6e56281a,2021-07-29_21h09.29.051,Simcolourproject_2stim_asymm_v5,2020.2.10,Win32,60,61025ae37ef11b136ea224fe,,,,,,,,,716,-25.59998894,40.79999499,1,0,0,response7disk,,0,-2.399939764,13.59999458,1,0,0,rectangle,-2.399939764,13.59999458,1,0,0,-2.399939764,13.59999458,1,0,0,0,75,75,23,1,,,,,,,,
,,,,,,,,,,,,,FF,,,,,,,,0.9161,,,,,,,,,,,,,,,,,,,,,,6100fad499688019dec679cd,61036cb4acf6b2bc6e56281a,2021-07-29_21h09.29.051,Simcolourproject_2stim_asymm_v5,2020.2.10,Win32,60,61025ae37ef11b136ea224fe,,,,,,,,,666,15.20001167,-25.60003041,1,0,0,response3disk,,4,2.40001148,3.19999443,1,0,0,rectangle,2.40001148,3.19999443,1,0,0,2.40001148,3.19999443,1,0,0,0,76,76,143,1,,,,,,,,
,,,,,,,,,,,,,FF,,,,,,,,1.6331,,,,,,,,,,,,,,,,,,,,,,6100fad499688019dec679cd,61036cb4acf6b2bc6e56281a,2021-07-29_21h09.29.051,Simcolourproject_2stim_asymm_v5,2020.2.10,Win32,60,61025ae37ef11b136ea224fe,,,,,,,,,1099,32.00001192,-20.80000593,1,0,0,response3disk,,5,6.400011539,-6.400005713,1,0,0,rectangle,6.400011539,-6.400005713,1,0,0,6.400011539,-6.400005713,1,0,0,0,77,77,11,1,,,,,,,,
,,,,,,,,,,,,,FF,,,,,,,,0.9994,,,,,,,,,,,,,,,,,,,,,,6100fad499688019dec679cd,61036cb4acf6b2bc6e56281a,2021-07-29_21h09.29.051,Simcolourproject_2stim_asymm_v5,2020.2.10,Win32,60,61025ae37ef11b136ea224fe,,,,,,,,,3266,32.80001193,29.59999482,1,0,0,response1disk,,6,4.000011504,5.599994466,1,0,0,rectangle,4.000011504,5.599994466,1,0,0,4.000011504,5.599994466,1,0,0,0,78,78,48,1,,,,,,,,
,,,,,,,,,,,,,FF,,,,,,,,2.5661,,,,,,,,,,,,,,,,,,,,,,6100fad499688019dec679cd,61036cb4acf6b2bc6e56281a,2021-07-29_21h09.29.051,Simcolourproject_2stim_asymm_v5,2020.2.10,Win32,60,61025ae37ef11b136ea224fe,,,,,,,,,750,23.20001179,-24.80000599,1,0,0,response3disk,,4,14.40001166,-4.000030091,1,0,0,rectangle,14.40001166,-4.000030091,1,0,0,14.40001166,-4.000030091,1,0,0,0,79,79,141,1,,,,,,,,
,,,,,,,,,,,,,FF,,,,,,,,1.0999,,,,,,,,,,,,,,,,,,,,,,6100fad499688019dec679cd,61036cb4acf6b2bc6e56281a,2021-07-29_21h09.29.051,Simcolourproject_2stim_asymm_v5,2020.2.10,Win32,60,61025ae37ef11b136ea224fe,,,,,,,,,856,30.4000119,36.79999493,1,0,0,response1disk,,7,-9.599988699,-3.00318E-05,1,0,0,rectangle,-9.599988699,-3.00318E-05,1,0,0,-9.599988699,-3.00318E-05,1,0,0,0,80,80,91,1,,,,,,,,
,,,,,,,,,,,,,FF,,,,,,,,0.9999,,,,,,,,,,,,,,,,,,,,,,6100fad499688019dec679cd,61036cb4acf6b2bc6e56281a,2021-07-29_21h09.29.051,Simcolourproject_2stim_asymm_v5,2020.2.10,Win32,60,61025ae37ef11b136ea224fe,,,,,,,,,3103,-30.39994018,-14.40000583,1,0,0,response5disk,,2,0.800011456,3.999970028,1,0,0,rectangle,0.800011456,3.999970028,1,0,0,0.800011456,3.999970028,1,0,0,0,81,81,57,1,,,,,,,,
,,,,,,,,,,,,,FF,,,,,,,,1.5164,,,,,,,,,,,,,,,,,,,,,,6100fad499688019dec679cd,61036cb4acf6b2bc6e56281a,2021-07-29_21h09.29.051,Simcolourproject_2stim_asymm_v5,2020.2.10,Win32,60,61025ae37ef11b136ea224fe,,,,,,,,,427,-17.59998882,-42.40000625,1,0,0,response5disk,,3,5.600060356,0.799994394,1,0,0,rectangle,5.600060356,0.799994394,1,0,0,5.600060356,0.799994394,1,0,0,0,82,82,19,1,,,,,,,,
,,,,,,,,,,,,,FF,,,,,,,,1.0839,,,,,,,,,,,,,,,,,,,,,,6100fad499688019dec679cd,61036cb4acf6b2bc6e56281a,2021-07-29_21h09.29.051,Simcolourproject_2stim_asymm_v5,2020.2.10,Win32,60,61025ae37ef11b136ea224fe,,,,,,,,,3161,21.60006059,-39.2000062,1,0,0,response3disk,,4,2.40001148,-4.800005689,1,0,0,rectangle,2.40001148,-4.800005689,1,0,0,2.40001148,-4.800005689,1,0,0,0,83,83,89,1,,,,,,,,
,,,,,,,,,,,,,FF,,,,,,,,1.4994,,,,,,,,,,,,,,,,,,,,,,6100fad499688019dec679cd,61036cb4acf6b2bc6e56281a,2021-07-29_21h09.29.051,Simcolourproject_2stim_asymm_v5,2020.2.10,Win32,60,61025ae37ef11b136ea224fe,,,,,,,,,478,26.40001184,16.79999463,1,0,0,response1disk,,6,2.40001148,7.999970087,1,0,0,rectangle,2.40001148,7.999970087,1,0,0,2.40001148,7.999970087,1,0,0,0,84,84,56,1,,,,,,,,
,,,,,,,,,,,,,FF,,,,,,,,1.4333,,,,,,,,,,,,,,,,,,,,,,6100fad499688019dec679cd,61036cb4acf6b2bc6e56281a,2021-07-29_21h09.29.051,Simcolourproject_2stim_asymm_v5,2020.2.10,Win32,60,61025ae37ef11b136ea224fe,,,,,,,,,39,32.80001193,9.599994525,1,0,0,response1disk,,6,16.00001168,1.599994406,1,0,0,rectangle,16.00001168,1.599994406,1,0,0,16.00001168,1.599994406,1,0,0,0,85,85,97,1,,,,,,,,
,,,,,,,,,,,,,FF,,,,,,,,0.8831,,,,,,,,,,,,,,,,,,,,,,6100fad499688019dec679cd,61036cb4acf6b2bc6e56281a,2021-07-29_21h09.29.051,Simcolourproject_2stim_asymm_v5,2020.2.10,Win32,60,61025ae37ef11b136ea224fe,,,,,,,,,2230,-35.99998909,-18.40000589,1,0,0,response5disk,,2,12.80001163,3.19999443,1,0,0,rectangle,12.80001163,3.19999443,1,0,0,12.80001163,3.19999443,1,0,0,0,86,86,63,1,,,,,,,,
,,,,,,,,,,,,,FF,,,,,,,,0.6829,,,,,,,,,,,,,,,,,,,,,,6100fad499688019dec679cd,61036cb4acf6b2bc6e56281a,2021-07-29_21h09.29.051,Simcolourproject_2stim_asymm_v5,2020.2.10,Win32,60,61025ae37ef11b136ea224fe,,,,,,,,,1755,-30.39994018,-18.40000589,1,0,0,response5disk,,2,15.20001167,-0.80000563,1,0,0,rectangle,15.20001167,-0.80000563,1,0,0,15.20001167,-0.80000563,1,0,0,0,87,87,47,1,,,,,,,,
,,,,,,,,,,,,,FF,,,,,,,,1.0165,,,,,,,,,,,,,,,,,,,,,,6100fad499688019dec679cd,61036cb4acf6b2bc6e56281a,2021-07-29_21h09.29.051,Simcolourproject_2stim_asymm_v5,2020.2.10,Win32,60,61025ae37ef11b136ea224fe,,,,,,,,,3074,12.00001162,-25.60003041,1,0,0,response3disk,,4,5.600060356,2.399970004,1,0,0,rectangle,5.600060356,2.399970004,1,0,0,5.600060356,2.399970004,1,0,0,0,88,88,117,1,,,,,,,,
,,,,,,,,,,,,,FF,,,,,,,,0.8667,,,,,,,,,,,,,,,,,,,,,,6100fad499688019dec679cd,61036cb4acf6b2bc6e56281a,2021-07-29_21h09.29.051,Simcolourproject_2stim_asymm_v5,2020.2.10,Win32,60,61025ae37ef11b136ea224fe,,,,,,,,,3004,-31.19998902,-20.00003033,1,0,0,response5disk,,2,-7.199988663,-0.80000563,1,0,0,rectangle,-7.199988663,-0.80000563,1,0,0,-7.199988663,-0.80000563,1,0,0,0,89,89,121,1,,,,,,,,
,,,,,,,,,,,,,FF,,,,,,,,1.0843,,,,,,,,,,,,,,,,,,,,,,6100fad499688019dec679cd,61036cb4acf6b2bc6e56281a,2021-07-29_21h09.29.051,Simcolourproject_2stim_asymm_v5,2020.2.10,Win32,60,61025ae37ef11b136ea224fe,,,,,,,,,1500,22.40001178,-9.600030175,1,0,0,response3disk,,5,9.600060415,6.399970064,1,0,0,rectangle,9.600060415,6.399970064,1,0,0,9.600060415,6.399970064,1,0,0,0,90,90,146,1,,,,,,,,
,,,,,,,,,,,,,FF,,,,,,,,0.9338,,,,,,,,,,,,,,,,,,,,,,6100fad499688019dec679cd,61036cb4acf6b2bc6e56281a,2021-07-29_21h09.29.051,Simcolourproject_2stim_asymm_v5,2020.2.10,Win32,60,61025ae37ef11b136ea224fe,,,,,,,,,3689,26.40001184,15.19999461,1,0,0,response1disk,,6,2.40001148,1.599994406,1,0,0,rectangle,2.40001148,1.599994406,1,0,0,2.40001148,1.599994406,1,0,0,0,91,91,127,1,,,,,,,,
,,,,,,,,,,,,,FF,,,,,,,,1.7215,,,,,,,,,,,,,,,,,,,,,,6100fad499688019dec679cd,61036cb4acf6b2bc6e56281a,2021-07-29_21h09.29.051,Simcolourproject_2stim_asymm_v5,2020.2.10,Win32,60,61025ae37ef11b136ea224fe,,,,,,,,,1685,-42.39994036,-14.40000583,1,0,0,response5disk,,2,-6.399939823,-3.200005665,1,0,0,rectangle,-6.399939823,-3.200005665,1,0,0,-6.399939823,-3.200005665,1,0,0,0,92,92,110,1,,,,,,,,
,,,,,,,,,,,,,FF,,,,,,,,0.8557,,,,,,,,,,,,,,,,,,,,,,6100fad499688019dec679cd,61036cb4acf6b2bc6e56281a,2021-07-29_21h09.29.051,Simcolourproject_2stim_asymm_v5,2020.2.10,Win32,60,61025ae37ef11b136ea224fe,,,,,,,,,1431,-23.99998891,-35.20000614,1,0,0,response5disk,,3,1.600060296,7.19999449,1,0,0,rectangle,1.600060296,7.19999449,1,0,0,1.600060296,7.19999449,1,0,0,0,93,93,131,1,,,,,,,,
,,,,,,,,,,,,,FF,,,,,,,,0.9502,,,,,,,,,,,,,,,,,,,,,,6100fad499688019dec679cd,61036cb4acf6b2bc6e56281a,2021-07-29_21h09.29.051,Simcolourproject_2stim_asymm_v5,2020.2.10,Win32,60,61025ae37ef11b136ea224fe,,,,,,,,,3989,36.80001199,22.3999703,1,0,0,response1disk,,6,4.800011516,-0.80000563,1,0,0,rectangle,4.800011516,-0.80000563,1,0,0,4.800011516,-0.80000563,1,0,0,0,94,94,39,1,,,,,,,,
,,,,,,,,,,,,,FF,,,,,,,,2.2834,,,,,,,,,,,,,,,,,,,,,,6100fad499688019dec679cd,61036cb4acf6b2bc6e56281a,2021-07-29_21h09.29.051,Simcolourproject_2stim_asymm_v5,2020.2.10,Win32,60,61025ae37ef11b136ea224fe,,,,,,,,,1257,40.00001204,21.5999947,1,0,0,response1disk,,6,12.00001162,-0.80000563,1,0,0,rectangle,12.00001162,-0.80000563,1,0,0,12.00001162,-0.80000563,1,0,0,0,95,95,116,1,,,,,,,,
,,,,,,,,,,,,,FF,,,,,,,,2.3331,,,,,,,,,,,,,,,,,,,,,,6100fad499688019dec679cd,61036cb4acf6b2bc6e56281a,2021-07-29_21h09.29.051,Simcolourproject_2stim_asymm_v5,2020.2.10,Win32,60,61025ae37ef11b136ea224fe,,,,,,,,,2394,23.20001179,39.99997056,1,0,0,response1disk,,7,12.00001162,-3.200005665,1,0,0,rectangle,12.00001162,-3.200005665,1,0,0,12.00001162,-3.200005665,1,0,0,0,96,96,25,1,,,,,,,,
,,,,,,,,,,,,,FF,,,,,,,,0.7832,,,,,,,,,,,,,,,,,,,,,,6100fad499688019dec679cd,61036cb4acf6b2bc6e56281a,2021-07-29_21h09.29.051,Simcolourproject_2stim_asymm_v5,2020.2.10,Win32,60,61025ae37ef11b136ea224fe,,,,,,,,,1974,-31.19998902,-11.20000578,1,0,0,response5disk,,2,10.4000116,7.19999449,1,0,0,rectangle,10.4000116,7.19999449,1,0,0,10.4000116,7.19999449,1,0,0,0,97,97,94,1,,,,,,,,
,,,,,,,,,,,,,FF,,,,,,,,1.4001,,,,,,,,,,,,,,,,,,,,,,6100fad499688019dec679cd,61036cb4acf6b2bc6e56281a,2021-07-29_21h09.29.051,Simcolourproject_2stim_asymm_v5,2020.2.10,Win32,60,61025ae37ef11b136ea224fe,,,,,,,,,903,-15.99998879,-34.40000613,1,0,0,response5disk,,3,9.600060415,3.19999443,1,0,0,rectangle,9.600060415,3.19999443,1,0,0,9.600060415,3.19999443,1,0,0,0,98,98,133,1,,,,,,,,
,,,,,,,,,,,,,FF,,,,,,,,1.618,,,,,,,,,,,,,,,,,,,,,,6100fad499688019dec679cd,61036cb4acf6b2bc6e56281a,2021-07-29_21h09.29.051,Simcolourproject_2stim_asymm_v5,2020.2.10,Win32,60,61025ae37ef11b136ea224fe,,,,,,,,,3218,20.80001175,24.79999475,1,0,0,response1disk,,7,-5.599988639,-1.600030056,1,0,0,rectangle,-5.599988639,-1.600030056,1,0,0,-5.599988639,-1.600030056,1,0,0,0,99,99,34,1,,,,,,,,
,,,,,,,,,,,,,FF,,,,,,,,1.0996,,,,,,,,,,,,,,,,,,,,,,6100fad499688019dec679cd,61036cb4acf6b2bc6e56281a,2021-07-29_21h09.29.051,Simcolourproject_2stim_asymm_v5,2020.2.10,Win32,60,61025ae37ef11b136ea224fe,,,,,,,,,194,-16.79998881,-39.2000062,1,0,0,response5disk,,3,6.400011539,0.799994394,1,0,0,rectangle,6.400011539,0.799994394,1,0,0,6.400011539,0.799994394,1,0,0,0,100,100,95,1,,,,,,,,
,,,,,,,,,,,,,FF,,,,,,,,2.2498,,,,,,,,,,,,,,,,,,,,,,6100fad499688019dec679cd,61036cb4acf6b2bc6e56281a,2021-07-29_21h09.29.051,Simcolourproject_2stim_asymm_v5,2020.2.10,Win32,60,61025ae37ef11b136ea224fe,,,,,,,,,4332,-15.99998879,-25.60003041,1,0,0,response5disk,,3,11.20001161,-4.800005689,1,0,0,rectangle,11.20001161,-4.800005689,1,0,0,11.20001161,-4.800005689,1,0,0,0,101,101,64,1,,,,,,,,
,,,,,,,,,,,,,FF,,,,,,,,1.883,,,,,,,,,,,,,,,,,,,,,,6100fad499688019dec679cd,61036cb4acf6b2bc6e56281a,2021-07-29_21h09.29.051,Simcolourproject_2stim_asymm_v5,2020.2.10,Win32,60,61025ae37ef11b136ea224fe,,,,,,,,,2409,32.80001193,28.79999481,1,0,0,response1disk,,6,-3.999988616,1.599994406,1,0,0,rectangle,-3.999988616,1.599994406,1,0,0,-3.999988616,1.599994406,1,0,0,0,102,102,92,1,,,,,,,,
,,,,,,,,,,,,,FF,,,,,,,,0.9827,,,,,,,,,,,,,,,,,,,,,,6100fad499688019dec679cd,61036cb4acf6b2bc6e56281a,2021-07-29_21h09.29.051,Simcolourproject_2stim_asymm_v5,2020.2.10,Win32,60,61025ae37ef11b136ea224fe,,,,,,,,,2227,-39.19998914,10.39997012,1,0,0,response7disk,,1,-1.59998858,-3.00318E-05,1,0,0,rectangle,-1.59998858,-3.00318E-05,1,0,0,-1.59998858,-3.00318E-05,1,0,0,0,103,103,46,1,,,,,,,,
,,,,,,,,,,,,,FF,,,,,,,,0.783,,,,,,,,,,,,,,,,,,,,,,6100fad499688019dec679cd,61036cb4acf6b2bc6e56281a,2021-07-29_21h09.29.051,Simcolourproject_2stim_asymm_v5,2020.2.10,Win32,60,61025ae37ef11b136ea224fe,,,,,,,,,2667,-35.19998908,12.79999457,1,0,0,response7disk,,1,-6.399939823,-1.600030056,1,0,0,rectangle,-6.399939823,-1.600030056,1,0,0,-6.399939823,-1.600030056,1,0,0,0,104,104,139,1,,,,,,,,
,,,,,,,,,,,,,FF,,,,,,,,0.8998,,,,,,,,,,,,,,,,,,,,,,6100fad499688019dec679cd,61036cb4acf6b2bc6e56281a,2021-07-29_21h09.29.051,Simcolourproject_2stim_asymm_v5,2020.2.10,Win32,60,61025ae37ef11b136ea224fe,,,,,,,,,448,36.00001198,-11.20000578,1,0,0,response3disk,,5,8.000011563,-1.600030056,1,0,0,rectangle,8.000011563,-1.600030056,1,0,0,8.000011563,-1.600030056,1,0,0,0,105,105,79,1,,,,,,,,
,,,,,,,,,,,,,FF,,,,,,,,0.8005,,,,,,,,,,,,,,,,,,,,,,6100fad499688019dec679cd,61036cb4acf6b2bc6e56281a,2021-07-29_21h09.29.051,Simcolourproject_2stim_asymm_v5,2020.2.10,Win32,60,61025ae37ef11b136ea224fe,,,,,,,,,2065,41.60006089,-17.60003029,1,0,0,response3disk,,5,12.80001163,-3.00318E-05,1,0,0,rectangle,12.80001163,-3.00318E-05,1,0,0,12.80001163,-3.00318E-05,1,0,0,0,106,106,38,1,,,,,,,,
,,,,,,,,,,,,,FF,,,,,,,,0.75,,,,,,,,,,,,,,,,,,,,,,6100fad499688019dec679cd,61036cb4acf6b2bc6e56281a,2021-07-29_21h09.29.051,Simcolourproject_2stim_asymm_v5,2020.2.10,Win32,60,61025ae37ef11b136ea224fe,,,,,,,,,4061,40.00001204,-18.40000589,1,0,0,response3disk,,5,4.000011504,4.799994454,1,0,0,rectangle,4.000011504,4.799994454,1,0,0,4.000011504,4.799994454,1,0,0,0,107,107,10,1,,,,,,,,
,,,,,,,,,,,,,FF,,,,,,,,1.1663,,,,,,,,,,,,,,,,,,,,,,6100fad499688019dec679cd,61036cb4acf6b2bc6e56281a,2021-07-29_21h09.29.051,Simcolourproject_2stim_asymm_v5,2020.2.10,Win32,60,61025ae37ef11b136ea224fe,,,,,,,,,560,36.80001199,-16.00003027,1,0,0,response3disk,,5,-5.599988639,-4.800005689,1,0,0,rectangle,-5.599988639,-4.800005689,1,0,0,-5.599988639,-4.800005689,1,0,0,0,108,108,98,1,,,,,,,,
,,,,,,,,,,,,,FF,,,,,,,,0.9161,,,,,,,,,,,,,,,,,,,,,,6100fad499688019dec679cd,61036cb4acf6b2bc6e56281a,2021-07-29_21h09.29.051,Simcolourproject_2stim_asymm_v5,2020.2.10,Win32,60,61025ae37ef11b136ea224fe,,,,,,,,,2249,27.20001185,-12.80000581,1,0,0,response3disk,,5,-3.199988604,-3.00318E-05,1,0,0,rectangle,-3.199988604,-3.00318E-05,1,0,0,-3.199988604,-3.00318E-05,1,0,0,0,109,109,27,1,,,,,,,,
,,,,,,,,,,,,,FF,,,,,,,,0.8176,,,,,,,,,,,,,,,,,,,,,,6100fad499688019dec679cd,61036cb4acf6b2bc6e56281a,2021-07-29_21h09.29.051,Simcolourproject_2stim_asymm_v5,2020.2.10,Win32,60,61025ae37ef11b136ea224fe,,,,,,,,,1757,-45.59998924,-17.60003029,1,0,0,response5disk,,2,-8.799988687,3.19999443,1,0,0,rectangle,-8.799988687,3.19999443,1,0,0,-8.799988687,3.19999443,1,0,0,0,110,110,36,1,,,,,,,,
,,,,,,,,,,,,,FF,,,,,,,,1.1504,,,,,,,,,,,,,,,,,,,,,,6100fad499688019dec679cd,61036cb4acf6b2bc6e56281a,2021-07-29_21h09.29.051,Simcolourproject_2stim_asymm_v5,2020.2.10,Win32,60,61025ae37ef11b136ea224fe,,,,,,,,,3728,27.20001185,52.79999517,1,0,0,response1disk,,7,10.4000116,4.799994454,1,0,0,rectangle,10.4000116,4.799994454,1,0,0,10.4000116,4.799994454,1,0,0,0,111,111,103,1,,,,,,,,
,,,,,,,,,,,,,FF,,,,,,,,1.1498,,,,,,,,,,,,,,,,,,,,,,6100fad499688019dec679cd,61036cb4acf6b2bc6e56281a,2021-07-29_21h09.29.051,Simcolourproject_2stim_asymm_v5,2020.2.10,Win32,60,61025ae37ef11b136ea224fe,,,,,,,,,396,35.20001197,34.39997048,1,0,0,response1disk,,6,2.40001148,0.799994394,1,0,0,rectangle,2.40001148,0.799994394,1,0,0,2.40001148,0.799994394,1,0,0,0,112,112,32,1,,,,,,,,
,,,,,,,,,,,,,FF,,,,,,,,1.4173,,,,,,,,,,,,,,,,,,,,,,6100fad499688019dec679cd,61036cb4acf6b2bc6e56281a,2021-07-29_21h09.29.051,Simcolourproject_2stim_asymm_v5,2020.2.10,Win32,60,61025ae37ef11b136ea224fe,,,,,,,,,1817,-37.59998912,31.99997045,1,0,0,response7disk,,1,-2.399939764,3.19999443,1,0,0,rectangle,-2.399939764,3.19999443,1,0,0,-2.399939764,3.19999443,1,0,0,0,113,113,76,1,,,,,,,,
,,,,,,,,,,,,,FF,,,,,,,,0.9003,,,,,,,,,,,,,,,,,,,,,,6100fad499688019dec679cd,61036cb4acf6b2bc6e56281a,2021-07-29_21h09.29.051,Simcolourproject_2stim_asymm_v5,2020.2.10,Win32,60,61025ae37ef11b136ea224fe,,,,,,,,,2701,39.20001203,15.99997021,1,0,0,response1disk,,6,4.000011504,-5.600030115,1,0,0,rectangle,4.000011504,-5.600030115,1,0,0,4.000011504,-5.600030115,1,0,0,0,114,114,68,1,,,,,,,,
,,,,,,,,,,,,,FF,,,,,,,,2.3495,,,,,,,,,,,,,,,,,,,,,,6100fad499688019dec679cd,61036cb4acf6b2bc6e56281a,2021-07-29_21h09.29.051,Simcolourproject_2stim_asymm_v5,2020.2.10,Win32,60,61025ae37ef11b136ea224fe,,,,,,,,,380,34.40001196,15.19999461,1,0,0,response1disk,,6,-5.599988639,0.799994394,1,0,0,rectangle,-5.599988639,0.799994394,1,0,0,-5.599988639,0.799994394,1,0,0,0,115,115,61,1,,,,,,,,
,,,,,,,,,,,,,FF,,,,,,,,1.9843,,,,,,,,,,,,,,,,,,,,,,6100fad499688019dec679cd,61036cb4acf6b2bc6e56281a,2021-07-29_21h09.29.051,Simcolourproject_2stim_asymm_v5,2020.2.10,Win32,60,61025ae37ef11b136ea224fe,,,,,,,,,4125,-19.99998885,-34.40000613,1,0,0,response5disk,,3,16.00001168,-1.600030056,1,0,0,rectangle,16.00001168,-1.600030056,1,0,0,16.00001168,-1.600030056,1,0,0,0,116,116,105,1,,,,,,,,
,,,,,,,,,,,,,FF,,,,,,,,1.3332,,,,,,,,,,,,,,,,,,,,,,6100fad499688019dec679cd,61036cb4acf6b2bc6e56281a,2021-07-29_21h09.29.051,Simcolourproject_2stim_asymm_v5,2020.2.10,Win32,60,61025ae37ef11b136ea224fe,,,,,,,,,641,-29.599989,-14.40000583,1,0,0,response5disk,,2,-4.799988627,-0.80000563,1,0,0,rectangle,-4.799988627,-0.80000563,1,0,0,-4.799988627,-0.80000563,1,0,0,0,117,117,130,1,,,,,,,,
,,,,,,,,,,,,,FF,,,,,,,,0.6663,,,,,,,,,,,,,,,,,,,,,,6100fad499688019dec679cd,61036cb4acf6b2bc6e56281a,2021-07-29_21h09.29.051,Simcolourproject_2stim_asymm_v5,2020.2.10,Win32,60,61025ae37ef11b136ea224fe,,,,,,,,,279,-33.59998906,-12.00003021,1,0,0,response5disk,,2,-0.799988568,3.19999443,1,0,0,rectangle,-0.799988568,3.19999443,1,0,0,-0.799988568,3.19999443,1,0,0,0,118,118,58,1,,,,,,,,
,,,,,,,,,,,,,FF,,,,,,,,0.9665,,,,,,,,,,,,,,,,,,,,,,6100fad499688019dec679cd,61036cb4acf6b2bc6e56281a,2021-07-29_21h09.29.051,Simcolourproject_2stim_asymm_v5,2020.2.10,Win32,60,61025ae37ef11b136ea224fe,,,,,,,,,3381,-28.79998899,46.39997066,1,0,0,response7disk,,0,4.800011516,7.19999449,1,0,0,rectangle,4.800011516,7.19999449,1,0,0,4.800011516,7.19999449,1,0,0,0,119,119,42,1,,,,,,,,
,,,,,,,,,,,,,FF,,,,,,,,1.7162,,,,,,,,,,,,,,,,,,,,,,6100fad499688019dec679cd,61036cb4acf6b2bc6e56281a,2021-07-29_21h09.29.051,Simcolourproject_2stim_asymm_v5,2020.2.10,Win32,60,61025ae37ef11b136ea224fe,,,,,,,,,3275,37.60006083,21.5999947,1,0,0,response1disk,,6,-14.39993994,-1.600030056,1,0,0,rectangle,-14.39993994,-1.600030056,1,0,0,-14.39993994,-1.600030056,1,0,0,0,120,120,33,1,,,,,,,,
,,,,,,,,,,,,,FF,,,,,,,,0.8491,,,,,,,,,,,,,,,,,,,,,,6100fad499688019dec679cd,61036cb4acf6b2bc6e56281a,2021-07-29_21h09.29.051,Simcolourproject_2stim_asymm_v5,2020.2.10,Win32,60,61025ae37ef11b136ea224fe,,,,,,,,,3466,33.60006077,16.79999463,1,0,0,response1disk,,6,12.80001163,-0.80000563,1,0,0,rectangle,12.80001163,-0.80000563,1,0,0,12.80001163,-0.80000563,1,0,0,0,121,121,65,1,,,,,,,,
,,,,,,,,,,,,,FF,,,,,,,,0.9835,,,,,,,,,,,,,,,,,,,,,,6100fad499688019dec679cd,61036cb4acf6b2bc6e56281a,2021-07-29_21h09.29.051,Simcolourproject_2stim_asymm_v5,2020.2.10,Win32,60,61025ae37ef11b136ea224fe,,,,,,,,,1243,40.00001204,-14.40000583,1,0,0,response3disk,,5,10.4000116,4.799994454,1,0,0,rectangle,10.4000116,4.799994454,1,0,0,10.4000116,4.799994454,1,0,0,0,122,122,3,1,,,,,,,,
,,,,,,,,,,,,,FF,,,,,,,,1.083,,,,,,,,,,,,,,,,,,,,,,6100fad499688019dec679cd,61036cb4acf6b2bc6e56281a,2021-07-29_21h09.29.051,Simcolourproject_2stim_asymm_v5,2020.2.10,Win32,60,61025ae37ef11b136ea224fe,,,,,,,,,3373,-32.79998904,-14.40000583,1,0,0,response5disk,,2,1.14441E-05,-6.400005713,1,0,0,rectangle,1.14441E-05,-6.400005713,1,0,0,1.14441E-05,-6.400005713,1,0,0,0,123,123,0,1,,,,,,,,
,,,,,,,,,,,,,FF,,,,,,,,0.9497,,,,,,,,,,,,,,,,,,,,,,6100fad499688019dec679cd,61036cb4acf6b2bc6e56281a,2021-07-29_21h09.29.051,Simcolourproject_2stim_asymm_v5,2020.2.10,Win32,60,61025ae37ef11b136ea224fe,,,,,,,,,3327,22.40001178,47.99997068,1,0,0,response1disk,,7,6.400011539,-3.00318E-05,1,0,0,rectangle,6.400011539,-3.00318E-05,1,0,0,6.400011539,-3.00318E-05,1,0,0,0,124,124,153,1,,,,,,,,
,,,,,,,,,,,,,FF,,,,,,,,0.8835,,,,,,,,,,,,,,,,,,,,,,6100fad499688019dec679cd,61036cb4acf6b2bc6e56281a,2021-07-29_21h09.29.051,Simcolourproject_2stim_asymm_v5,2020.2.10,Win32,60,61025ae37ef11b136ea224fe,,,,,,,,,2813,32.80001193,14.39997018,1,0,0,response1disk,,6,17.60006053,0.799994394,1,0,0,rectangle,17.60006053,0.799994394,1,0,0,17.60006053,0.799994394,1,0,0,0,125,125,159,1,,,,,,,,
,,,,,,,,,,,,,FF,,,,,,,,1.4338,,,,,,,,,,,,,,,,,,,,,,6100fad499688019dec679cd,61036cb4acf6b2bc6e56281a,2021-07-29_21h09.29.051,Simcolourproject_2stim_asymm_v5,2020.2.10,Win32,60,61025ae37ef11b136ea224fe,,,,,,,,,3900,-31.99998903,-16.00003027,1,0,0,response5disk,,2,-3.999988616,-5.600030115,1,0,0,rectangle,-3.999988616,-5.600030115,1,0,0,-3.999988616,-5.600030115,1,0,0,0,126,126,15,1,,,,,,,,
,,,,,,,,,,,,,FF,,,,,,,,1.0668,,,,,,,,,,,,,,,,,,,,,,6100fad499688019dec679cd,61036cb4acf6b2bc6e56281a,2021-07-29_21h09.29.051,Simcolourproject_2stim_asymm_v5,2020.2.10,Win32,60,61025ae37ef11b136ea224fe,,,,,,,,,2893,-39.99998915,19.99997027,1,0,0,response7disk,,1,-0.799988568,3.999970028,1,0,0,rectangle,-0.799988568,3.999970028,1,0,0,-0.799988568,3.999970028,1,0,0,0,127,127,66,1,,,,,,,,
,,,,,,,,,,,,,FF,,,,,,,,0.7494,,,,,,,,,,,,,,,,,,,,,,6100fad499688019dec679cd,61036cb4acf6b2bc6e56281a,2021-07-29_21h09.29.051,Simcolourproject_2stim_asymm_v5,2020.2.10,Win32,60,61025ae37ef11b136ea224fe,,,,,,,,,1292,-38.3999403,18.39997024,1,0,0,response7disk,,1,-4.799988627,7.19999449,1,0,0,rectangle,-4.799988627,7.19999449,1,0,0,-4.799988627,7.19999449,1,0,0,0,128,128,96,1,,,,,,,,
,,,,,,,,,,,,,FF,,,,,,,,1.1827,,,,,,,,,,,,,,,,,,,,,,6100fad499688019dec679cd,61036cb4acf6b2bc6e56281a,2021-07-29_21h09.29.051,Simcolourproject_2stim_asymm_v5,2020.2.10,Win32,60,61025ae37ef11b136ea224fe,,,,,,,,,3839,33.60006077,-10.40000577,1,0,0,response3disk,,5,-7.199988663,7.19999449,1,0,0,rectangle,-7.199988663,7.19999449,1,0,0,-7.199988663,7.19999449,1,0,0,0,129,129,111,1,,,,,,,,
,,,,,,,,,,,,,FF,,,,,,,,1.0333,,,,,,,,,,,,,,,,,,,,,,6100fad499688019dec679cd,61036cb4acf6b2bc6e56281a,2021-07-29_21h09.29.051,Simcolourproject_2stim_asymm_v5,2020.2.10,Win32,60,61025ae37ef11b136ea224fe,,,,,,,,,2639,41.60006089,16.79999463,1,0,0,response1disk,,6,-4.799988627,-0.80000563,1,0,0,rectangle,46.40001214,-14.40000583,1,0,0,-8.799988687,-0.80000563,1,0,0,0,130,130,118,1,,response3disk_3,TRUE,5,5,"[131,20,161,35,73,44,301,184,247,145,21,30,276,215,4,25,220,186,16,197]",1.6365,rectangle
,,,,,,,,,,,,,FF,,,,,,,,1.233,,,,,,,,,,,,,,,,,,,,,,6100fad499688019dec679cd,61036cb4acf6b2bc6e56281a,2021-07-29_21h09.29.051,Simcolourproject_2stim_asymm_v5,2020.2.10,Win32,60,61025ae37ef11b136ea224fe,,,,,,,,,1036,-22.39994006,-40.00000621,1,0,0,response5disk,,3,1.14441E-05,8.799994513,1,0,0,rectangle,1.14441E-05,8.799994513,1,0,0,1.14441E-05,8.799994513,1,0,0,0,131,131,29,1,,,,,,,,
,,,,,,,,,,,,,FF,,,,,,,,1.0837,,,,,,,,,,,,,,,,,,,,,,6100fad499688019dec679cd,61036cb4acf6b2bc6e56281a,2021-07-29_21h09.29.051,Simcolourproject_2stim_asymm_v5,2020.2.10,Win32,60,61025ae37ef11b136ea224fe,,,,,,,,,2545,-41.59998918,-15.20000584,1,0,0,response5disk,,2,7.200011551,5.599994466,1,0,0,rectangle,7.200011551,5.599994466,1,0,0,7.200011551,5.599994466,1,0,0,0,132,132,126,1,,,,,,,,
,,,,,,,,,,,,,FF,,,,,,,,0.888,,,,,,,,,,,,,,,,,,,,,,6100fad499688019dec679cd,61036cb4acf6b2bc6e56281a,2021-07-29_21h09.29.051,Simcolourproject_2stim_asymm_v5,2020.2.10,Win32,60,61025ae37ef11b136ea224fe,,,,,,,,,3492,43.20001209,-16.80000587,1,0,0,response3disk,,5,8.800011575,-1.600030056,1,0,0,rectangle,8.800011575,-1.600030056,1,0,0,8.800011575,-1.600030056,1,0,0,0,133,133,22,1,,,,,,,,
,,,,,,,,,,,,,FF,,,,,,,,0.9495,,,,,,,,,,,,,,,,,,,,,,6100fad499688019dec679cd,61036cb4acf6b2bc6e56281a,2021-07-29_21h09.29.051,Simcolourproject_2stim_asymm_v5,2020.2.10,Win32,60,61025ae37ef11b136ea224fe,,,,,,,,,1788,51.20001221,-23.20000596,1,0,0,response3disk,,5,-8.799988687,1.599994406,1,0,0,rectangle,-8.799988687,1.599994406,1,0,0,-8.799988687,1.599994406,1,0,0,0,134,134,78,1,,,,,,,,
,,,,,,,,,,,,,FF,,,,,,,,1.6328,,,,,,,,,,,,,,,,,,,,,,6100fad499688019dec679cd,61036cb4acf6b2bc6e56281a,2021-07-29_21h09.29.051,Simcolourproject_2stim_asymm_v5,2020.2.10,Win32,60,61025ae37ef11b136ea224fe,,,,,,,,,2185,46.40001214,23.19999473,1,0,0,response1disk,,6,1.14441E-05,-1.600030056,1,0,0,rectangle,1.14441E-05,-1.600030056,1,0,0,1.14441E-05,-1.600030056,1,0,0,0,135,135,35,1,,,,,,,,
,,,,,,,,,,,,,FF,,,,,,,,2.3345,,,,,,,,,,,,,,,,,,,,,,6100fad499688019dec679cd,61036cb4acf6b2bc6e56281a,2021-07-29_21h09.29.051,Simcolourproject_2stim_asymm_v5,2020.2.10,Win32,60,61025ae37ef11b136ea224fe,,,,,,,,,336,28.80001187,-36.00000615,1,0,0,response3disk,,4,3.200011492,-5.600030115,1,0,0,rectangle,3.200011492,-5.600030115,1,0,0,3.200011492,-5.600030115,1,0,0,0,136,136,152,1,,,,,,,,
,,,,,,,,,,,,,FF,,,,,,,,0.8665,,,,,,,,,,,,,,,,,,,,,,6100fad499688019dec679cd,61036cb4acf6b2bc6e56281a,2021-07-29_21h09.29.051,Simcolourproject_2stim_asymm_v5,2020.2.10,Win32,60,61025ae37ef11b136ea224fe,,,,,,,,,2138,20.80001175,44.79999505,1,0,0,response1disk,,7,8.000011563,6.399970064,1,0,0,rectangle,8.000011563,6.399970064,1,0,0,8.000011563,6.399970064,1,0,0,0,137,137,88,1,,,,,,,,
,,,,,,,,,,,,,FF,,,,,,,,1.8017,,,,,,,,,,,,,,,,,,,,,,6100fad499688019dec679cd,61036cb4acf6b2bc6e56281a,2021-07-29_21h09.29.051,Simcolourproject_2stim_asymm_v5,2020.2.10,Win32,60,61025ae37ef11b136ea224fe,,,,,,,,,4331,-17.59998882,-26.40000601,1,0,0,response5disk,,3,-11.19998872,-1.600030056,1,0,0,rectangle,-11.19998872,-1.600030056,1,0,0,-11.19998872,-1.600030056,1,0,0,0,138,138,16,1,,,,,,,,
,,,,,,,,,,,,,FF,,,,,,,,1.5003,,,,,,,,,,,,,,,,,,,,,,6100fad499688019dec679cd,61036cb4acf6b2bc6e56281a,2021-07-29_21h09.29.051,Simcolourproject_2stim_asymm_v5,2020.2.10,Win32,60,61025ae37ef11b136ea224fe,,,,,,,,,2846,16.80001169,-36.00000615,1,0,0,response3disk,,4,-1.59998858,-5.600030115,1,0,0,rectangle,-1.59998858,-5.600030115,1,0,0,-1.59998858,-5.600030115,1,0,0,0,139,139,99,1,,,,,,,,
,,,,,,,,,,,,,FF,,,,,,,,2.7491,,,,,,,,,,,,,,,,,,,,,,6100fad499688019dec679cd,61036cb4acf6b2bc6e56281a,2021-07-29_21h09.29.051,Simcolourproject_2stim_asymm_v5,2020.2.10,Win32,60,61025ae37ef11b136ea224fe,,,,,,,,,310,39.20001203,25.59999476,1,0,0,response1disk,,6,0.800011456,-3.200005665,1,0,0,rectangle,0.800011456,-3.200005665,1,0,0,0.800011456,-3.200005665,1,0,0,0,140,140,55,1,,,,,,,,
,,,,,,,,,,,,,FF,,,,,,,,1.6171,,,,,,,,,,,,,,,,,,,,,,6100fad499688019dec679cd,61036cb4acf6b2bc6e56281a,2021-07-29_21h09.29.051,Simcolourproject_2stim_asymm_v5,2020.2.10,Win32,60,61025ae37ef11b136ea224fe,,,,,,,,,1943,25.60006065,35.9999705,1,0,0,response1disk,,7,11.20001161,-4.800005689,1,0,0,rectangle,11.20001161,-4.800005689,1,0,0,11.20001161,-4.800005689,1,0,0,0,141,141,21,1,,,,,,,,
,,,,,,,,,,,,,FF,,,,,,,,0.8831,,,,,,,,,,,,,,,,,,,,,,6100fad499688019dec679cd,61036cb4acf6b2bc6e56281a,2021-07-29_21h09.29.051,Simcolourproject_2stim_asymm_v5,2020.2.10,Win32,60,61025ae37ef11b136ea224fe,,,,,,,,,4080,15.20001167,33.59999488,1,0,0,response1disk,,7,4.800011516,-4.000030091,1,0,0,rectangle,4.800011516,-4.000030091,1,0,0,4.800011516,-4.000030091,1,0,0,0,142,142,43,1,,,,,,,,
,,,,,,,,,,,,,FF,,,,,,,,0.8666,,,,,,,,,,,,,,,,,,,,,,6100fad499688019dec679cd,61036cb4acf6b2bc6e56281a,2021-07-29_21h09.29.051,Simcolourproject_2stim_asymm_v5,2020.2.10,Win32,60,61025ae37ef11b136ea224fe,,,,,,,,,2007,19.20001173,34.39997048,1,0,0,response1disk,,7,2.40001148,-0.80000563,1,0,0,rectangle,2.40001148,-0.80000563,1,0,0,2.40001148,-0.80000563,1,0,0,0,143,143,155,1,,,,,,,,
,,,,,,,,,,,,,FF,,,,,,,,1.2498,,,,,,,,,,,,,,,,,,,,,,6100fad499688019dec679cd,61036cb4acf6b2bc6e56281a,2021-07-29_21h09.29.051,Simcolourproject_2stim_asymm_v5,2020.2.10,Win32,60,61025ae37ef11b136ea224fe,,,,,,,,,2433,22.40001178,-34.40000613,1,0,0,response3disk,,4,4.800011516,-4.800005689,1,0,0,rectangle,14.40001166,49.59999512,1,0,0,7.200011551,-4.000030091,1,0,0,0,144,144,148,1,,response1disk_3,TRUE,7,7,"[131,20,161,35,73,44,301,184,247,145,21,30,276,215,4,25,220,186,16,197]",1.1325,rectangle
,,,,,,,,,,,,,FF,,,,,,,,1.4166,,,,,,,,,,,,,,,,,,,,,,6100fad499688019dec679cd,61036cb4acf6b2bc6e56281a,2021-07-29_21h09.29.051,Simcolourproject_2stim_asymm_v5,2020.2.10,Win32,60,61025ae37ef11b136ea224fe,,,,,,,,,960,37.60006083,14.39997018,1,0,0,response1disk,,6,14.40001166,2.399970004,1,0,0,rectangle,14.40001166,2.399970004,1,0,0,14.40001166,2.399970004,1,0,0,0,145,145,158,1,,,,,,,,
,,,,,,,,,,,,,FF,,,,,,,,0.8333,,,,,,,,,,,,,,,,,,,,,,6100fad499688019dec679cd,61036cb4acf6b2bc6e56281a,2021-07-29_21h09.29.051,Simcolourproject_2stim_asymm_v5,2020.2.10,Win32,60,61025ae37ef11b136ea224fe,,,,,,,,,3098,-47.99998927,17.59999464,1,0,0,response7disk,,1,-11.19998872,4.799994454,1,0,0,rectangle,-11.19998872,4.799994454,1,0,0,-11.19998872,4.799994454,1,0,0,0,146,146,70,1,,,,,,,,
,,,,,,,,,,,,,FF,,,,,,,,1.3997,,,,,,,,,,,,,,,,,,,,,,6100fad499688019dec679cd,61036cb4acf6b2bc6e56281a,2021-07-29_21h09.29.051,Simcolourproject_2stim_asymm_v5,2020.2.10,Win32,60,61025ae37ef11b136ea224fe,,,,,,,,,1592,-15.99998879,-23.20000596,1,0,0,response5disk,,3,17.60006053,8.799994513,1,0,0,rectangle,17.60006053,8.799994513,1,0,0,17.60006053,8.799994513,1,0,0,0,147,147,93,1,,,,,,,,
,,,,,,,,,,,,,FF,,,,,,,,0.8001,,,,,,,,,,,,,,,,,,,,,,6100fad499688019dec679cd,61036cb4acf6b2bc6e56281a,2021-07-29_21h09.29.051,Simcolourproject_2stim_asymm_v5,2020.2.10,Win32,60,61025ae37ef11b136ea224fe,,,,,,,,,2029,-39.99998915,-11.20000578,1,0,0,response5disk,,2,-5.599988639,3.19999443,1,0,0,rectangle,-5.599988639,3.19999443,1,0,0,-5.599988639,3.19999443,1,0,0,0,148,148,1,1,,,,,,,,
,,,,,,,,,,,,,FF,,,,,,,,1.2503,,,,,,,,,,,,,,,,,,,,,,6100fad499688019dec679cd,61036cb4acf6b2bc6e56281a,2021-07-29_21h09.29.051,Simcolourproject_2stim_asymm_v5,2020.2.10,Win32,60,61025ae37ef11b136ea224fe,,,,,,,,,1301,-49.5999893,-16.00003027,1,0,0,response5disk,,2,1.600060296,-1.600030056,1,0,0,rectangle,1.600060296,-1.600030056,1,0,0,1.600060296,-1.600030056,1,0,0,0,149,149,51,1,,,,,,,,
,,,,,,,,,,,,,FF,,,,,,,,1.0339,,,,,,,,,,,,,,,,,,,,,,6100fad499688019dec679cd,61036cb4acf6b2bc6e56281a,2021-07-29_21h09.29.051,Simcolourproject_2stim_asymm_v5,2020.2.10,Win32,60,61025ae37ef11b136ea224fe,,,,,,,,,3757,-26.39994012,-40.80000623,1,0,0,response5disk,,3,7.200011551,7.19999449,1,0,0,rectangle,7.200011551,7.19999449,1,0,0,7.200011551,7.19999449,1,0,0,0,150,150,74,1,,,,,,,,
,,,,,,,,,,,,,FF,,,,,,,,0.8665,,,,,,,,,,,,,,,,,,,,,,6100fad499688019dec679cd,61036cb4acf6b2bc6e56281a,2021-07-29_21h09.29.051,Simcolourproject_2stim_asymm_v5,2020.2.10,Win32,60,61025ae37ef11b136ea224fe,,,,,,,,,1721,23.20001179,14.39997018,1,0,0,response1disk,,6,7.200011551,3.19999443,1,0,0,rectangle,7.200011551,3.19999443,1,0,0,7.200011551,3.19999443,1,0,0,0,151,151,106,1,,,,,,,,
,,,,,,,,,,,,,FF,,,,,,,,1.1497,,,,,,,,,,,,,,,,,,,,,,6100fad499688019dec679cd,61036cb4acf6b2bc6e56281a,2021-07-29_21h09.29.051,Simcolourproject_2stim_asymm_v5,2020.2.10,Win32,60,61025ae37ef11b136ea224fe,,,,,,,,,897,17.60006053,-29.60003047,1,0,0,response3disk,,4,3.200011492,-0.80000563,1,0,0,rectangle,3.200011492,-0.80000563,1,0,0,3.200011492,-0.80000563,1,0,0,0,152,152,53,1,,,,,,,,
,,,,,,,,,,,,,FF,,,,,,,,0.7831,,,,,,,,,,,,,,,,,,,,,,6100fad499688019dec679cd,61036cb4acf6b2bc6e56281a,2021-07-29_21h09.29.051,Simcolourproject_2stim_asymm_v5,2020.2.10,Win32,60,61025ae37ef11b136ea224fe,,,,,,,,,2393,39.20001203,26.39997036,1,0,0,response1disk,,6,9.600060415,7.19999449,1,0,0,rectangle,9.600060415,7.19999449,1,0,0,9.600060415,7.19999449,1,0,0,0,153,153,83,1,,,,,,,,
,,,,,,,,,,,,,FF,,,,,,,,0.7837,,,,,,,,,,,,,,,,,,,,,,6100fad499688019dec679cd,61036cb4acf6b2bc6e56281a,2021-07-29_21h09.29.051,Simcolourproject_2stim_asymm_v5,2020.2.10,Win32,60,61025ae37ef11b136ea224fe,,,,,,,,,2297,-34.39994024,-12.00003021,1,0,0,response5disk,,2,3.200011492,6.399970064,1,0,0,rectangle,3.200011492,6.399970064,1,0,0,3.200011492,6.399970064,1,0,0,0,154,154,7,1,,,,,,,,
,,,,,,,,,,,,,FF,,,,,,,,2.3496,,,,,,,,,,,,,,,,,,,,,,6100fad499688019dec679cd,61036cb4acf6b2bc6e56281a,2021-07-29_21h09.29.051,Simcolourproject_2stim_asymm_v5,2020.2.10,Win32,60,61025ae37ef11b136ea224fe,,,,,,,,,2552,-12.79998875,-27.20000602,1,0,0,response5disk,,3,7.200011551,-1.600030056,1,0,0,rectangle,7.200011551,-1.600030056,1,0,0,7.200011551,-1.600030056,1,0,0,0,155,155,8,1,,,,,,,,
,,,,,,,,,,,,,FF,,,,,,,,1.0332,,,,,,,,,,,,,,,,,,,,,,6100fad499688019dec679cd,61036cb4acf6b2bc6e56281a,2021-07-29_21h09.29.051,Simcolourproject_2stim_asymm_v5,2020.2.10,Win32,60,61025ae37ef11b136ea224fe,,,,,,,,,2024,32.00001192,21.5999947,1,0,0,response1disk,,6,-1.59998858,0.799994394,1,0,0,rectangle,-1.59998858,0.799994394,1,0,0,-1.59998858,0.799994394,1,0,0,0,156,156,5,1,,,,,,,,
,,,,,,,,,,,,,FF,,,,,,,,0.8159,,,,,,,,,,,,,,,,,,,,,,6100fad499688019dec679cd,61036cb4acf6b2bc6e56281a,2021-07-29_21h09.29.051,Simcolourproject_2stim_asymm_v5,2020.2.10,Win32,60,61025ae37ef11b136ea224fe,,,,,,,,,3459,40.80001205,18.39997024,1,0,0,response1disk,,6,1.600060296,1.599994406,1,0,0,rectangle,1.600060296,1.599994406,1,0,0,1.600060296,1.599994406,1,0,0,0,157,157,144,1,,,,,,,,
,,,,,,,,,,,,,FF,,,,,,,,0.9497,,,,,,,,,,,,,,,,,,,,,,6100fad499688019dec679cd,61036cb4acf6b2bc6e56281a,2021-07-29_21h09.29.051,Simcolourproject_2stim_asymm_v5,2020.2.10,Win32,60,61025ae37ef11b136ea224fe,,,,,,,,,2542,-32.79998904,23.99997033,1,0,0,response7disk,,1,6.400011539,1.599994406,1,0,0,rectangle,6.400011539,1.599994406,1,0,0,6.400011539,1.599994406,1,0,0,0,158,158,31,1,,,,,,,,
,,,,,,,,,,,,,FF,,,,,,,,0.8164,,,,,,,,,,,,,,,,,,,,,,6100fad499688019dec679cd,61036cb4acf6b2bc6e56281a,2021-07-29_21h09.29.051,Simcolourproject_2stim_asymm_v5,2020.2.10,Win32,60,61025ae37ef11b136ea224fe,,,,,,,,,2066,31.20001191,19.19999467,1,0,0,response1disk,,6,-3.999988616,0.799994394,1,0,0,rectangle,-3.999988616,0.799994394,1,0,0,-3.999988616,0.799994394,1,0,0,0,159,159,73,1,,,,,,,,
,,,,,,,,,,,,,FF,,,,,,,,0.7996,,,,,,,,,,,,,,,,,,,,,,6100fad499688019dec679cd,61036cb4acf6b2bc6e56281a,2021-07-29_21h09.29.051,Simcolourproject_2stim_asymm_v5,2020.2.10,Win32,60,61025ae37ef11b136ea224fe,,,,,,,,,1903,-31.99998903,15.19999461,1,0,0,response7disk,,1,-12.79998875,-1.600030056,1,0,0,rectangle,56.00001228,39.19999497,1,0,0,-1.59998858,3.19999443,1,0,0,1,0,160,58,1,,response1disk_3,TRUE,6,6,"[131,20,161,35,73,44,301,184,247,145,21,30,276,215,4,25,220,186,16,197]",1.4679,rectangle
,,,,,,,,,,,,,FF,,,,,,,,1.0498,,,,,,,,,,,,,,,,,,,,,,6100fad499688019dec679cd,61036cb4acf6b2bc6e56281a,2021-07-29_21h09.29.051,Simcolourproject_2stim_asymm_v5,2020.2.10,Win32,60,61025ae37ef11b136ea224fe,,,,,,,,,1270,20.00001174,13.59999458,1,0,0,response1disk,,6,-8.799988687,-3.00318E-05,1,0,0,rectangle,-8.799988687,-3.00318E-05,1,0,0,-8.799988687,-3.00318E-05,1,0,0,1,1,161,139,1,,,,,,,,
,,,,,,,,,,,,,FF,,,,,,,,0.9345,,,,,,,,,,,,,,,,,,,,,,6100fad499688019dec679cd,61036cb4acf6b2bc6e56281a,2021-07-29_21h09.29.051,Simcolourproject_2stim_asymm_v5,2020.2.10,Win32,60,61025ae37ef11b136ea224fe,,,,,,,,,1608,-42.39994036,22.3999703,1,0,0,response7disk,,1,1.600060296,-3.00318E-05,1,0,0,rectangle,1.600060296,-3.00318E-05,1,0,0,1.600060296,-3.00318E-05,1,0,0,1,2,162,27,1,,,,,,,,
,,,,,,,,,,,,,FF,,,,,,,,1.9669,,,,,,,,,,,,,,,,,,,,,,6100fad499688019dec679cd,61036cb4acf6b2bc6e56281a,2021-07-29_21h09.29.051,Simcolourproject_2stim_asymm_v5,2020.2.10,Win32,60,61025ae37ef11b136ea224fe,,,,,,,,,1082,24.0000118,-38.40000619,1,0,0,response3disk,,4,7.200011551,-4.800005689,1,0,0,rectangle,7.200011551,-4.800005689,1,0,0,7.200011551,-4.800005689,1,0,0,1,3,163,100,1,,,,,,,,
,,,,,,,,,,,,,FF,,,,,,,,0.8666,,,,,,,,,,,,,,,,,,,,,,6100fad499688019dec679cd,61036cb4acf6b2bc6e56281a,2021-07-29_21h09.29.051,Simcolourproject_2stim_asymm_v5,2020.2.10,Win32,60,61025ae37ef11b136ea224fe,,,,,,,,,1559,33.60006077,-11.20000578,1,0,0,response3disk,,5,9.600060415,4.799994454,1,0,0,rectangle,9.600060415,4.799994454,1,0,0,9.600060415,4.799994454,1,0,0,1,4,164,71,1,,,,,,,,
,,,,,,,,,,,,,FF,,,,,,,,0.7995,,,,,,,,,,,,,,,,,,,,,,6100fad499688019dec679cd,61036cb4acf6b2bc6e56281a,2021-07-29_21h09.29.051,Simcolourproject_2stim_asymm_v5,2020.2.10,Win32,60,61025ae37ef11b136ea224fe,,,,,,,,,1780,51.20001221,-15.20000584,1,0,0,response3disk,,5,6.400011539,-0.80000563,1,0,0,rectangle,6.400011539,-0.80000563,1,0,0,6.400011539,-0.80000563,1,0,0,1,5,165,125,1,,,,,,,,
,,,,,,,,,,,,,FF,,,,,,,,0.6665,,,,,,,,,,,,,,,,,,,,,,6100fad499688019dec679cd,61036cb4acf6b2bc6e56281a,2021-07-29_21h09.29.051,Simcolourproject_2stim_asymm_v5,2020.2.10,Win32,60,61025ae37ef11b136ea224fe,,,,,,,,,242,28.80001187,13.59999458,1,0,0,response1disk,,6,0.800011456,1.599994406,1,0,0,rectangle,0.800011456,1.599994406,1,0,0,0.800011456,1.599994406,1,0,0,1,6,166,101,1,,,,,,,,
,,,,,,,,,,,,,FF,,,,,,,,1.0705,,,,,,,,,,,,,,,,,,,,,,6100fad499688019dec679cd,61036cb4acf6b2bc6e56281a,2021-07-29_21h09.29.051,Simcolourproject_2stim_asymm_v5,2020.2.10,Win32,60,61025ae37ef11b136ea224fe,,,,,,,,,3,-16.79998881,-33.60000612,1,0,0,response5disk,,3,1.14441E-05,-4.800005689,1,0,0,rectangle,1.14441E-05,-4.800005689,1,0,0,1.14441E-05,-4.800005689,1,0,0,1,7,167,140,1,,,,,,,,
,,,,,,,,,,,,,FF,,,,,,,,3.7993,,,,,,,,,,,,,,,,,,,,,,6100fad499688019dec679cd,61036cb4acf6b2bc6e56281a,2021-07-29_21h09.29.051,Simcolourproject_2stim_asymm_v5,2020.2.10,Win32,60,61025ae37ef11b136ea224fe,,,,,,,,,2838,-13.59998876,-39.2000062,1,0,0,response5disk,,3,1.14441E-05,-5.600030115,1,0,0,rectangle,1.14441E-05,-5.600030115,1,0,0,1.14441E-05,-5.600030115,1,0,0,1,8,168,67,1,,,,,,,,
,,,,,,,,,,,,,FF,,,,,,,,0.9004,,,,,,,,,,,,,,,,,,,,,,6100fad499688019dec679cd,61036cb4acf6b2bc6e56281a,2021-07-29_21h09.29.051,Simcolourproject_2stim_asymm_v5,2020.2.10,Win32,60,61025ae37ef11b136ea224fe,,,,,,,,,900,16.80001169,-32.00003051,1,0,0,response3disk,,4,14.40001166,10.39997012,1,0,0,rectangle,14.40001166,10.39997012,1,0,0,14.40001166,10.39997012,1,0,0,1,9,169,137,1,,,,,,,,
,,,,,,,,,,,,,FF,,,,,,,,1.1834,,,,,,,,,,,,,,,,,,,,,,6100fad499688019dec679cd,61036cb4acf6b2bc6e56281a,2021-07-29_21h09.29.051,Simcolourproject_2stim_asymm_v5,2020.2.10,Win32,60,61025ae37ef11b136ea224fe,,,,,,,,,387,17.60006053,-28.80000605,1,0,0,response3disk,,4,-3.199988604,-0.80000563,1,0,0,rectangle,-3.199988604,-0.80000563,1,0,0,-3.199988604,-0.80000563,1,0,0,1,10,170,7,1,,,,,,,,
,,,,,,,,,,,,,FF,,,,,,,,4.2655,,,,,,,,,,,,,,,,,,,,,,6100fad499688019dec679cd,61036cb4acf6b2bc6e56281a,2021-07-29_21h09.29.051,Simcolourproject_2stim_asymm_v5,2020.2.10,Win32,60,61025ae37ef11b136ea224fe,,,,,,,,,1127,26.40001184,-29.60003047,1,0,0,response3disk,,4,3.200011492,-8.000030151,1,0,0,rectangle,3.200011492,-8.000030151,1,0,0,3.200011492,-8.000030151,1,0,0,1,11,171,135,1,,,,,,,,
,,,,,,,,,,,,,FF,,,,,,,,1.0168,,,,,,,,,,,,,,,,,,,,,,6100fad499688019dec679cd,61036cb4acf6b2bc6e56281a,2021-07-29_21h09.29.051,Simcolourproject_2stim_asymm_v5,2020.2.10,Win32,60,61025ae37ef11b136ea224fe,,,,,,,,,3647,34.40001196,-14.40000583,1,0,0,response3disk,,5,0.800011456,0.799994394,1,0,0,rectangle,0.800011456,0.799994394,1,0,0,0.800011456,0.799994394,1,0,0,1,12,172,155,1,,,,,,,,
,,,,,,,,,,,,,FF,,,,,,,,0.8164,,,,,,,,,,,,,,,,,,,,,,6100fad499688019dec679cd,61036cb4acf6b2bc6e56281a,2021-07-29_21h09.29.051,Simcolourproject_2stim_asymm_v5,2020.2.10,Win32,60,61025ae37ef11b136ea224fe,,,,,,,,,2299,-35.99998909,-16.80000587,1,0,0,response5disk,,2,6.400011539,-0.80000563,1,0,0,rectangle,6.400011539,-0.80000563,1,0,0,6.400011539,-0.80000563,1,0,0,1,13,173,31,1,,,,,,,,
,,,,,,,,,,,,,FF,,,,,,,,2.0328,,,,,,,,,,,,,,,,,,,,,,6100fad499688019dec679cd,61036cb4acf6b2bc6e56281a,2021-07-29_21h09.29.051,Simcolourproject_2stim_asymm_v5,2020.2.10,Win32,60,61025ae37ef11b136ea224fe,,,,,,,,,1940,20.00001174,-34.40000613,1,0,0,response3disk,,4,4.000011504,-3.200005665,1,0,0,rectangle,4.000011504,-3.200005665,1,0,0,4.000011504,-3.200005665,1,0,0,1,14,174,147,1,,,,,,,,
,,,,,,,,,,,,,FF,,,,,,,,0.7331,,,,,,,,,,,,,,,,,,,,,,6100fad499688019dec679cd,61036cb4acf6b2bc6e56281a,2021-07-29_21h09.29.051,Simcolourproject_2stim_asymm_v5,2020.2.10,Win32,60,61025ae37ef11b136ea224fe,,,,,,,,,366,-24.79998893,44.79999505,1,0,0,response7disk,,0,-0.799988568,-1.600030056,1,0,0,rectangle,-0.799988568,-1.600030056,1,0,0,-0.799988568,-1.600030056,1,0,0,1,15,175,11,1,,,,,,,,
,,,,,,,,,,,,,FF,,,,,,,,1.1056,,,,,,,,,,,,,,,,,,,,,,6100fad499688019dec679cd,61036cb4acf6b2bc6e56281a,2021-07-29_21h09.29.051,Simcolourproject_2stim_asymm_v5,2020.2.10,Win32,60,61025ae37ef11b136ea224fe,,,,,,,,,875,-45.59998924,-12.00003021,1,0,0,response5disk,,2,3.200011492,-2.400005654,1,0,0,rectangle,3.200011492,-2.400005654,1,0,0,3.200011492,-2.400005654,1,0,0,1,16,176,4,1,,,,,,,,
,,,,,,,,,,,,,FF,,,,,,,,1.9489,,,,,,,,,,,,,,,,,,,,,,6100fad499688019dec679cd,61036cb4acf6b2bc6e56281a,2021-07-29_21h09.29.051,Simcolourproject_2stim_asymm_v5,2020.2.10,Win32,60,61025ae37ef11b136ea224fe,,,,,,,,,2286,-11.99998873,-43.20000626,1,0,0,response5disk,,3,1.14441E-05,-2.400005654,1,0,0,rectangle,1.14441E-05,-2.400005654,1,0,0,1.14441E-05,-2.400005654,1,0,0,1,17,177,16,1,,,,,,,,
,,,,,,,,,,,,,FF,,,,,,,,0.8666,,,,,,,,,,,,,,,,,,,,,,6100fad499688019dec679cd,61036cb4acf6b2bc6e56281a,2021-07-29_21h09.29.051,Simcolourproject_2stim_asymm_v5,2020.2.10,Win32,60,61025ae37ef11b136ea224fe,,,,,,,,,1735,-11.99998873,-40.00000621,1,0,0,response5disk,,3,0.800011456,-5.600030115,1,0,0,rectangle,0.800011456,-5.600030115,1,0,0,0.800011456,-5.600030115,1,0,0,1,18,178,37,1,,,,,,,,
,,,,,,,,,,,,,FF,,,,,,,,0.7667,,,,,,,,,,,,,,,,,,,,,,6100fad499688019dec679cd,61036cb4acf6b2bc6e56281a,2021-07-29_21h09.29.051,Simcolourproject_2stim_asymm_v5,2020.2.10,Win32,60,61025ae37ef11b136ea224fe,,,,,,,,,2351,33.60006077,-11.20000578,1,0,0,response3disk,,5,13.60006047,3.999970028,1,0,0,rectangle,13.60006047,3.999970028,1,0,0,13.60006047,3.999970028,1,0,0,1,19,179,32,1,,,,,,,,
,,,,,,,,,,,,,FF,,,,,,,,0.883,,,,,,,,,,,,,,,,,,,,,,6100fad499688019dec679cd,61036cb4acf6b2bc6e56281a,2021-07-29_21h09.29.051,Simcolourproject_2stim_asymm_v5,2020.2.10,Win32,60,61025ae37ef11b136ea224fe,,,,,,,,,4367,-23.1999889,10.39997012,1,0,0,response7disk,,1,4.800011516,-3.200005665,1,0,0,rectangle,4.800011516,-3.200005665,1,0,0,4.800011516,-3.200005665,1,0,0,1,20,180,35,1,,,,,,,,
,,,,,,,,,,,,,FF,,,,,,,,1.3673,,,,,,,,,,,,,,,,,,,,,,6100fad499688019dec679cd,61036cb4acf6b2bc6e56281a,2021-07-29_21h09.29.051,Simcolourproject_2stim_asymm_v5,2020.2.10,Win32,60,61025ae37ef11b136ea224fe,,,,,,,,,1774,18.40001172,-24.00003039,1,0,0,response3disk,,4,7.200011551,-2.400005654,1,0,0,rectangle,7.200011551,-2.400005654,1,0,0,7.200011551,-2.400005654,1,0,0,1,21,181,120,1,,,,,,,,
,,,,,,,,,,,,,FF,,,,,,,,1.1829,,,,,,,,,,,,,,,,,,,,,,6100fad499688019dec679cd,61036cb4acf6b2bc6e56281a,2021-07-29_21h09.29.051,Simcolourproject_2stim_asymm_v5,2020.2.10,Win32,60,61025ae37ef11b136ea224fe,,,,,,,,,3723,18.40001172,42.3999706,1,0,0,response1disk,,7,1.14441E-05,3.999970028,1,0,0,rectangle,1.14441E-05,3.999970028,1,0,0,1.14441E-05,3.999970028,1,0,0,1,22,182,97,1,,,,,,,,
,,,,,,,,,,,,,FF,,,,,,,,2.4506,,,,,,,,,,,,,,,,,,,,,,6100fad499688019dec679cd,61036cb4acf6b2bc6e56281a,2021-07-29_21h09.29.051,Simcolourproject_2stim_asymm_v5,2020.2.10,Win32,60,61025ae37ef11b136ea224fe,,,,,,,,,4354,20.80001175,-21.60003035,1,0,0,response3disk,,4,3.200011492,-4.800005689,1,0,0,rectangle,18.40001172,-34.40000613,1,0,0,2.40001148,2.399970004,1,0,0,1,23,183,105,1,,response3disk_3,TRUE,4,4,"[131,20,161,35,73,44,301,184,247,145,21,30,276,215,4,25,220,186,16,197]",1.9703,rectangle
,,,,,,,,,,,,,FF,,,,,,,,0.9174,,,,,,,,,,,,,,,,,,,,,,6100fad499688019dec679cd,61036cb4acf6b2bc6e56281a,2021-07-29_21h09.29.051,Simcolourproject_2stim_asymm_v5,2020.2.10,Win32,60,61025ae37ef11b136ea224fe,,,,,,,,,334,40.80001205,-20.80000593,1,0,0,response3disk,,5,1.600060296,6.399970064,1,0,0,rectangle,1.600060296,6.399970064,1,0,0,1.600060296,6.399970064,1,0,0,1,24,184,36,1,,,,,,,,
,,,,,,,,,,,,,FF,,,,,,,,1.0157,,,,,,,,,,,,,,,,,,,,,,6100fad499688019dec679cd,61036cb4acf6b2bc6e56281a,2021-07-29_21h09.29.051,Simcolourproject_2stim_asymm_v5,2020.2.10,Win32,60,61025ae37ef11b136ea224fe,,,,,,,,,2787,-15.99998879,-49.60000636,1,0,0,response5disk,,3,-2.399939764,-4.800005689,1,0,0,rectangle,-63.99998951,-24.00003039,1,0,0,1.14441E-05,0.799994394,1,0,0,1,25,185,22,1,,response5disk_3,TRUE,2,2,"[131,20,161,35,73,44,301,184,247,145,21,30,276,215,4,25,220,186,16,197]",1.733,rectangle
,,,,,,,,,,,,,FF,,,,,,,,58.4437,,,,,,,,,,,,,,,,,,,,,,6100fad499688019dec679cd,61036cb4acf6b2bc6e56281a,2021-07-29_21h09.29.051,Simcolourproject_2stim_asymm_v5,2020.2.10,Win32,60,61025ae37ef11b136ea224fe,,,,,,,,,1506,25.60006065,-56.80000646,1,0,0,response3disk,,4,-2.399939764,3.19999443,1,0,0,rectangle,-2.399939764,3.19999443,1,0,0,-2.399939764,3.19999443,1,0,0,1,26,186,89,1,,,,,,,,
,,,,,,,,,,,,,FF,,,,,,,,1.0332,,,,,,,,,,,,,,,,,,,,,,6100fad499688019dec679cd,61036cb4acf6b2bc6e56281a,2021-07-29_21h09.29.051,Simcolourproject_2stim_asymm_v5,2020.2.10,Win32,60,61025ae37ef11b136ea224fe,,,,,,,,,1175,32.00001192,-44.80000629,1,0,0,response3disk,,4,5.600060356,-8.000030151,1,0,0,rectangle,5.600060356,-8.000030151,1,0,0,5.600060356,-8.000030151,1,0,0,1,27,187,9,1,,,,,,,,
,,,,,,,,,,,,,FF,,,,,,,,1.6161,,,,,,,,,,,,,,,,,,,,,,6100fad499688019dec679cd,61036cb4acf6b2bc6e56281a,2021-07-29_21h09.29.051,Simcolourproject_2stim_asymm_v5,2020.2.10,Win32,60,61025ae37ef11b136ea224fe,,,,,,,,,2313,23.20001179,-40.00000621,1,0,0,response3disk,,4,7.200011551,-3.00318E-05,1,0,0,rectangle,7.200011551,-3.00318E-05,1,0,0,7.200011551,-3.00318E-05,1,0,0,1,28,188,18,1,,,,,,,,
,,,,,,,,,,,,,FF,,,,,,,,2.4179,,,,,,,,,,,,,,,,,,,,,,6100fad499688019dec679cd,61036cb4acf6b2bc6e56281a,2021-07-29_21h09.29.051,Simcolourproject_2stim_asymm_v5,2020.2.10,Win32,60,61025ae37ef11b136ea224fe,,,,,,,,,3167,23.20001179,-33.60000612,1,0,0,response3disk,,4,10.4000116,-5.600030115,1,0,0,rectangle,10.4000116,-5.600030115,1,0,0,10.4000116,-5.600030115,1,0,0,1,29,189,156,1,,,,,,,,
,,,,,,,,,,,,,FF,,,,,,,,1.0155,,,,,,,,,,,,,,,,,,,,,,6100fad499688019dec679cd,61036cb4acf6b2bc6e56281a,2021-07-29_21h09.29.051,Simcolourproject_2stim_asymm_v5,2020.2.10,Win32,60,61025ae37ef11b136ea224fe,,,,,,,,,3851,-10.39993988,-28.80000605,1,0,0,response5disk,,3,-6.399939823,-6.400005713,1,0,0,rectangle,-6.399939823,-6.400005713,1,0,0,-6.399939823,-6.400005713,1,0,0,1,30,190,34,1,,,,,,,,
,,,,,,,,,,,,,FF,,,,,,,,1.0499,,,,,,,,,,,,,,,,,,,,,,6100fad499688019dec679cd,61036cb4acf6b2bc6e56281a,2021-07-29_21h09.29.051,Simcolourproject_2stim_asymm_v5,2020.2.10,Win32,60,61025ae37ef11b136ea224fe,,,,,,,,,3233,48.00001216,-14.40000583,1,0,0,response3disk,,5,6.400011539,11.19999455,1,0,0,rectangle,6.400011539,11.19999455,1,0,0,6.400011539,11.19999455,1,0,0,1,31,191,53,1,,,,,,,,
,,,,,,,,,,,,,FF,,,,,,,,1.4163,,,,,,,,,,,,,,,,,,,,,,6100fad499688019dec679cd,61036cb4acf6b2bc6e56281a,2021-07-29_21h09.29.051,Simcolourproject_2stim_asymm_v5,2020.2.10,Win32,60,61025ae37ef11b136ea224fe,,,,,,,,,664,55.20001227,15.99997021,1,0,0,response1disk,,6,0.800011456,-2.400005654,1,0,0,rectangle,0.800011456,-2.400005654,1,0,0,0.800011456,-2.400005654,1,0,0,1,32,192,60,1,,,,,,,,
,,,,,,,,,,,,,FF,,,,,,,,1.6347,,,,,,,,,,,,,,,,,,,,,,6100fad499688019dec679cd,61036cb4acf6b2bc6e56281a,2021-07-29_21h09.29.051,Simcolourproject_2stim_asymm_v5,2020.2.10,Win32,60,61025ae37ef11b136ea224fe,,,,,,,,,3193,-15.99998879,-40.00000621,1,0,0,response5disk,,3,-11.99998873,-1.600030056,1,0,0,rectangle,-11.99998873,-1.600030056,1,0,0,-11.99998873,-1.600030056,1,0,0,1,33,193,114,1,,,,,,,,
,,,,,,,,,,,,,FF,,,,,,,,0.7819,,,,,,,,,,,,,,,,,,,,,,6100fad499688019dec679cd,61036cb4acf6b2bc6e56281a,2021-07-29_21h09.29.051,Simcolourproject_2stim_asymm_v5,2020.2.10,Win32,60,61025ae37ef11b136ea224fe,,,,,,,,,1639,35.20001197,22.3999703,1,0,0,response1disk,,6,-4.799988627,2.399970004,1,0,0,rectangle,-4.799988627,2.399970004,1,0,0,-4.799988627,2.399970004,1,0,0,1,34,194,148,1,,,,,,,,
,,,,,,,,,,,,,FF,,,,,,,,1.3496,,,,,,,,,,,,,,,,,,,,,,6100fad499688019dec679cd,61036cb4acf6b2bc6e56281a,2021-07-29_21h09.29.051,Simcolourproject_2stim_asymm_v5,2020.2.10,Win32,60,61025ae37ef11b136ea224fe,,,,,,,,,2954,-28.79998899,-18.40000589,1,0,0,response5disk,,2,8.000011563,-2.400005654,1,0,0,rectangle,8.000011563,-2.400005654,1,0,0,8.000011563,-2.400005654,1,0,0,1,35,195,15,1,,,,,,,,
,,,,,,,,,,,,,FF,,,,,,,,1.1997,,,,,,,,,,,,,,,,,,,,,,6100fad499688019dec679cd,61036cb4acf6b2bc6e56281a,2021-07-29_21h09.29.051,Simcolourproject_2stim_asymm_v5,2020.2.10,Win32,60,61025ae37ef11b136ea224fe,,,,,,,,,979,-13.59998876,-29.60003047,1,0,0,response5disk,,3,6.400011539,-4.000030091,1,0,0,rectangle,58.40001231,27.19999479,1,0,0,1.600060296,2.399970004,1,0,0,1,36,196,115,1,,response1disk_3,TRUE,6,6,"[131,20,161,35,73,44,301,184,247,145,21,30,276,215,4,25,220,186,16,197]",2.2327,rectangle
,,,,,,,,,,,,,FF,,,,,,,,1.0499,,,,,,,,,,,,,,,,,,,,,,6100fad499688019dec679cd,61036cb4acf6b2bc6e56281a,2021-07-29_21h09.29.051,Simcolourproject_2stim_asymm_v5,2020.2.10,Win32,60,61025ae37ef11b136ea224fe,,,,,,,,,2207,36.00001198,14.39997018,1,0,0,response1disk,,6,5.600060356,3.999970028,1,0,0,rectangle,5.600060356,3.999970028,1,0,0,5.600060356,3.999970028,1,0,0,1,37,197,24,1,,,,,,,,
,,,,,,,,,,,,,FF,,,,,,,,0.9165,,,,,,,,,,,,,,,,,,,,,,6100fad499688019dec679cd,61036cb4acf6b2bc6e56281a,2021-07-29_21h09.29.051,Simcolourproject_2stim_asymm_v5,2020.2.10,Win32,60,61025ae37ef11b136ea224fe,,,,,,,,,505,55.20001227,19.99997027,1,0,0,response1disk,,6,8.800011575,6.399970064,1,0,0,rectangle,8.800011575,6.399970064,1,0,0,8.800011575,6.399970064,1,0,0,1,38,198,90,1,,,,,,,,
,,,,,,,,,,,,,FF,,,,,,,,1.3831,,,,,,,,,,,,,,,,,,,,,,6100fad499688019dec679cd,61036cb4acf6b2bc6e56281a,2021-07-29_21h09.29.051,Simcolourproject_2stim_asymm_v5,2020.2.10,Win32,60,61025ae37ef11b136ea224fe,,,,,,,,,3354,8.800011575,38.39997054,1,0,0,response1disk,,7,-4.799988627,-1.600030056,1,0,0,rectangle,-4.799988627,-1.600030056,1,0,0,-4.799988627,-1.600030056,1,0,0,1,39,199,136,1,,,,,,,,
,,,,,,,,,,,,,FF,,,,,,,,1.1165,,,,,,,,,,,,,,,,,,,,,,6100fad499688019dec679cd,61036cb4acf6b2bc6e56281a,2021-07-29_21h09.29.051,Simcolourproject_2stim_asymm_v5,2020.2.10,Win32,60,61025ae37ef11b136ea224fe,,,,,,,,,2806,38.40001202,17.59999464,1,0,0,response1disk,,6,-8.799988687,4.799994454,1,0,0,rectangle,-8.799988687,4.799994454,1,0,0,-8.799988687,4.799994454,1,0,0,1,40,200,154,1,,,,,,,,
,,,,,,,,,,,,,FF,,,,,,,,0.783,,,,,,,,,,,,,,,,,,,,,,6100fad499688019dec679cd,61036cb4acf6b2bc6e56281a,2021-07-29_21h09.29.051,Simcolourproject_2stim_asymm_v5,2020.2.10,Win32,60,61025ae37ef11b136ea224fe,,,,,,,,,3551,-16.79998881,35.9999705,1,0,0,response7disk,,0,1.14441E-05,4.799994454,1,0,0,rectangle,1.14441E-05,4.799994454,1,0,0,1.14441E-05,4.799994454,1,0,0,1,41,201,49,1,,,,,,,,
,,,,,,,,,,,,,FF,,,,,,,,0.8332,,,,,,,,,,,,,,,,,,,,,,6100fad499688019dec679cd,61036cb4acf6b2bc6e56281a,2021-07-29_21h09.29.051,Simcolourproject_2stim_asymm_v5,2020.2.10,Win32,60,61025ae37ef11b136ea224fe,,,,,,,,,1526,-42.39994036,18.39997024,1,0,0,response7disk,,1,-5.599988639,-2.400005654,1,0,0,rectangle,-5.599988639,-2.400005654,1,0,0,-5.599988639,-2.400005654,1,0,0,1,42,202,149,1,,,,,,,,
,,,,,,,,,,,,,FF,,,,,,,,1.9498,,,,,,,,,,,,,,,,,,,,,,6100fad499688019dec679cd,61036cb4acf6b2bc6e56281a,2021-07-29_21h09.29.051,Simcolourproject_2stim_asymm_v5,2020.2.10,Win32,60,61025ae37ef11b136ea224fe,,,,,,,,,1482,22.40001178,-38.40000619,1,0,0,response3disk,,4,-2.399939764,-4.000030091,1,0,0,rectangle,-2.399939764,-4.000030091,1,0,0,-2.399939764,-4.000030091,1,0,0,1,43,203,121,1,,,,,,,,
,,,,,,,,,,,,,FF,,,,,,,,1.2675,,,,,,,,,,,,,,,,,,,,,,6100fad499688019dec679cd,61036cb4acf6b2bc6e56281a,2021-07-29_21h09.29.051,Simcolourproject_2stim_asymm_v5,2020.2.10,Win32,60,61025ae37ef11b136ea224fe,,,,,,,,,2794,40.00001204,-12.80000581,1,0,0,response3disk,,5,-11.19998872,2.399970004,1,0,0,rectangle,-11.19998872,2.399970004,1,0,0,-11.19998872,2.399970004,1,0,0,1,44,204,47,1,,,,,,,,
,,,,,,,,,,,,,FF,,,,,,,,0.85,,,,,,,,,,,,,,,,,,,,,,6100fad499688019dec679cd,61036cb4acf6b2bc6e56281a,2021-07-29_21h09.29.051,Simcolourproject_2stim_asymm_v5,2020.2.10,Win32,60,61025ae37ef11b136ea224fe,,,,,,,,,2414,-19.99998885,-36.00000615,1,0,0,response5disk,,3,0.800011456,-2.400005654,1,0,0,rectangle,0.800011456,-2.400005654,1,0,0,0.800011456,-2.400005654,1,0,0,1,45,205,64,1,,,,,,,,
,,,,,,,,,,,,,FF,,,,,,,,0.9001,,,,,,,,,,,,,,,,,,,,,,6100fad499688019dec679cd,61036cb4acf6b2bc6e56281a,2021-07-29_21h09.29.051,Simcolourproject_2stim_asymm_v5,2020.2.10,Win32,60,61025ae37ef11b136ea224fe,,,,,,,,,2213,27.20001185,38.39997054,1,0,0,response1disk,,7,4.800011516,11.19999455,1,0,0,rectangle,4.800011516,11.19999455,1,0,0,4.800011516,11.19999455,1,0,0,1,46,206,20,1,,,,,,,,
,,,,,,,,,,,,,FF,,,,,,,,1.6333,,,,,,,,,,,,,,,,,,,,,,6100fad499688019dec679cd,61036cb4acf6b2bc6e56281a,2021-07-29_21h09.29.051,Simcolourproject_2stim_asymm_v5,2020.2.10,Win32,60,61025ae37ef11b136ea224fe,,,,,,,,,1242,40.80001205,20.79999469,1,0,0,response1disk,,6,-0.799988568,3.999970028,1,0,0,rectangle,-0.799988568,3.999970028,1,0,0,-0.799988568,3.999970028,1,0,0,1,47,207,41,1,,,,,,,,
,,,,,,,,,,,,,FF,,,,,,,,2.882,,,,,,,,,,,,,,,,,,,,,,6100fad499688019dec679cd,61036cb4acf6b2bc6e56281a,2021-07-29_21h09.29.051,Simcolourproject_2stim_asymm_v5,2020.2.10,Win32,60,61025ae37ef11b136ea224fe,,,,,,,,,1398,20.80001175,-48.80000634,1,0,0,response3disk,,4,-4.799988627,-8.800005749,1,0,0,rectangle,-4.799988627,-8.800005749,1,0,0,-4.799988627,-8.800005749,1,0,0,1,48,208,28,1,,,,,,,,
,,,,,,,,,,,,,FF,,,,,,,,1.7176,,,,,,,,,,,,,,,,,,,,,,6100fad499688019dec679cd,61036cb4acf6b2bc6e56281a,2021-07-29_21h09.29.051,Simcolourproject_2stim_asymm_v5,2020.2.10,Win32,60,61025ae37ef11b136ea224fe,,,,,,,,,711,47.20001215,-19.2000059,1,0,0,response3disk,,5,2.40001148,6.399970064,1,0,0,rectangle,2.40001148,6.399970064,1,0,0,2.40001148,6.399970064,1,0,0,1,49,209,6,1,,,,,,,,
,,,,,,,,,,,,,FF,,,,,,,,1.1674,,,,,,,,,,,,,,,,,,,,,,6100fad499688019dec679cd,61036cb4acf6b2bc6e56281a,2021-07-29_21h09.29.051,Simcolourproject_2stim_asymm_v5,2020.2.10,Win32,60,61025ae37ef11b136ea224fe,,,,,,,,,2084,44.0000121,-18.40000589,1,0,0,response3disk,,5,-2.399939764,5.599994466,1,0,0,rectangle,-2.399939764,5.599994466,1,0,0,-2.399939764,5.599994466,1,0,0,1,50,210,150,1,,,,,,,,
,,,,,,,,,,,,,FF,,,,,,,,3.1025,,,,,,,,,,,,,,,,,,,,,,6100fad499688019dec679cd,61036cb4acf6b2bc6e56281a,2021-07-29_21h09.29.051,Simcolourproject_2stim_asymm_v5,2020.2.10,Win32,60,61025ae37ef11b136ea224fe,,,,,,,,,636,-15.99998879,-49.60000636,1,0,0,response5disk,,3,14.40001166,10.39997012,1,0,0,rectangle,14.40001166,10.39997012,1,0,0,14.40001166,10.39997012,1,0,0,1,51,211,113,1,,,,,,,,
,,,,,,,,,,,,,FF,,,,,,,,0.7508,,,,,,,,,,,,,,,,,,,,,,6100fad499688019dec679cd,61036cb4acf6b2bc6e56281a,2021-07-29_21h09.29.051,Simcolourproject_2stim_asymm_v5,2020.2.10,Win32,60,61025ae37ef11b136ea224fe,,,,,,,,,4242,14.40001166,14.39997018,1,0,0,response1disk,,6,-7.199988663,-3.00318E-05,1,0,0,rectangle,-7.199988663,-3.00318E-05,1,0,0,-7.199988663,-3.00318E-05,1,0,0,1,52,212,1,1,,,,,,,,
,,,,,,,,,,,,,FF,,,,,,,,1.4158,,,,,,,,,,,,,,,,,,,,,,6100fad499688019dec679cd,61036cb4acf6b2bc6e56281a,2021-07-29_21h09.29.051,Simcolourproject_2stim_asymm_v5,2020.2.10,Win32,60,61025ae37ef11b136ea224fe,,,,,,,,,4339,-15.19998878,-28.80000605,1,0,0,response5disk,,3,9.600060415,1.599994406,1,0,0,rectangle,9.600060415,1.599994406,1,0,0,9.600060415,1.599994406,1,0,0,1,53,213,82,1,,,,,,,,
,,,,,,,,,,,,,FF,,,,,,,,1.4004,,,,,,,,,,,,,,,,,,,,,,6100fad499688019dec679cd,61036cb4acf6b2bc6e56281a,2021-07-29_21h09.29.051,Simcolourproject_2stim_asymm_v5,2020.2.10,Win32,60,61025ae37ef11b136ea224fe,,,,,,,,,349,-29.599989,-12.80000581,1,0,0,response5disk,,2,4.000011504,-3.00318E-05,1,0,0,rectangle,57.6000123,-36.80000617,1,0,0,-0.799988568,2.399970004,1,0,0,1,54,214,153,1,,response3disk_3,TRUE,5,5,"[131,20,161,35,73,44,301,184,247,145,21,30,276,215,4,25,220,186,16,197]",1.3321,rectangle
,,,,,,,,,,,,,FF,,,,,,,,1.7497,,,,,,,,,,,,,,,,,,,,,,6100fad499688019dec679cd,61036cb4acf6b2bc6e56281a,2021-07-29_21h09.29.051,Simcolourproject_2stim_asymm_v5,2020.2.10,Win32,60,61025ae37ef11b136ea224fe,,,,,,,,,771,-16.79998881,-40.80000623,1,0,0,response5disk,,3,-2.399939764,-0.80000563,1,0,0,rectangle,-2.399939764,-0.80000563,1,0,0,-2.399939764,-0.80000563,1,0,0,1,55,215,33,1,,,,,,,,
,,,,,,,,,,,,,FF,,,,,,,,10.7818,,,,,,,,,,,,,,,,,,,,,,6100fad499688019dec679cd,61036cb4acf6b2bc6e56281a,2021-07-29_21h09.29.051,Simcolourproject_2stim_asymm_v5,2020.2.10,Win32,60,61025ae37ef11b136ea224fe,,,,,,,,,3308,37.60006083,-56.80000646,1,0,0,response3disk,,4,1.14441E-05,-8.800005749,1,0,0,rectangle,1.14441E-05,-8.800005749,1,0,0,1.14441E-05,-8.800005749,1,0,0,1,56,216,79,1,,,,,,,,
,,,,,,,,,,,,,FF,,,,,,,,1.0001,,,,,,,,,,,,,,,,,,,,,,6100fad499688019dec679cd,61036cb4acf6b2bc6e56281a,2021-07-29_21h09.29.051,Simcolourproject_2stim_asymm_v5,2020.2.10,Win32,60,61025ae37ef11b136ea224fe,,,,,,,,,4052,-21.59998888,-36.00000615,1,0,0,response5disk,,3,-3.999988616,0.799994394,1,0,0,rectangle,-3.999988616,0.799994394,1,0,0,-3.999988616,0.799994394,1,0,0,1,57,217,59,1,,,,,,,,
,,,,,,,,,,,,,FF,,,,,,,,1.6,,,,,,,,,,,,,,,,,,,,,,6100fad499688019dec679cd,61036cb4acf6b2bc6e56281a,2021-07-29_21h09.29.051,Simcolourproject_2stim_asymm_v5,2020.2.10,Win32,60,61025ae37ef11b136ea224fe,,,,,,,,,489,34.40001196,-21.60003035,1,0,0,response3disk,,5,7.200011551,-3.00318E-05,1,0,0,rectangle,7.200011551,-3.00318E-05,1,0,0,7.200011551,-3.00318E-05,1,0,0,1,58,218,84,1,,,,,,,,
,,,,,,,,,,,,,FF,,,,,,,,0.7333,,,,,,,,,,,,,,,,,,,,,,6100fad499688019dec679cd,61036cb4acf6b2bc6e56281a,2021-07-29_21h09.29.051,Simcolourproject_2stim_asymm_v5,2020.2.10,Win32,60,61025ae37ef11b136ea224fe,,,,,,,,,1467,-19.99998885,-37.60000618,1,0,0,response5disk,,3,-8.799988687,9.599994525,1,0,0,rectangle,-42.39994036,-61.60000654,1,0,0,5.600060356,-3.200005665,1,0,0,1,59,219,54,1,,response5disk_3,TRUE,3,3,"[131,20,161,35,73,44,301,184,247,145,21,30,276,215,4,25,220,186,16,197]",1.6348,rectangle
,,,,,,,,,,,,,FF,,,,,,,,0.9333,,,,,,,,,,,,,,,,,,,,,,6100fad499688019dec679cd,61036cb4acf6b2bc6e56281a,2021-07-29_21h09.29.051,Simcolourproject_2stim_asymm_v5,2020.2.10,Win32,60,61025ae37ef11b136ea224fe,,,,,,,,,308,16.00001168,-24.80000599,1,0,0,response3disk,,4,1.600060296,3.19999443,1,0,0,rectangle,1.600060296,3.19999443,1,0,0,1.600060296,3.19999443,1,0,0,1,60,220,42,1,,,,,,,,
,,,,,,,,,,,,,FF,,,,,,,,0.9331,,,,,,,,,,,,,,,,,,,,,,6100fad499688019dec679cd,61036cb4acf6b2bc6e56281a,2021-07-29_21h09.29.051,Simcolourproject_2stim_asymm_v5,2020.2.10,Win32,60,61025ae37ef11b136ea224fe,,,,,,,,,3940,-36.7999891,-16.00003027,1,0,0,response5disk,,2,8.800011575,7.999970087,1,0,0,rectangle,8.800011575,7.999970087,1,0,0,8.800011575,7.999970087,1,0,0,1,61,221,142,1,,,,,,,,
,,,,,,,,,,,,,FF,,,,,,,,0.6528,,,,,,,,,,,,,,,,,,,,,,6100fad499688019dec679cd,61036cb4acf6b2bc6e56281a,2021-07-29_21h09.29.051,Simcolourproject_2stim_asymm_v5,2020.2.10,Win32,60,61025ae37ef11b136ea224fe,,,,,,,,,3396,-35.99998909,-20.00003033,1,0,0,response5disk,,2,-4.799988627,-7.200005725,1,0,0,rectangle,-4.799988627,-7.200005725,1,0,0,-4.799988627,-7.200005725,1,0,0,1,62,222,3,1,,,,,,,,
,,,,,,,,,,,,,FF,,,,,,,,0.9821,,,,,,,,,,,,,,,,,,,,,,6100fad499688019dec679cd,61036cb4acf6b2bc6e56281a,2021-07-29_21h09.29.051,Simcolourproject_2stim_asymm_v5,2020.2.10,Win32,60,61025ae37ef11b136ea224fe,,,,,,,,,3039,-13.59998876,-35.20000614,1,0,0,response5disk,,3,-3.199988604,-5.600030115,1,0,0,rectangle,-3.199988604,-5.600030115,1,0,0,-3.199988604,-5.600030115,1,0,0,1,63,223,80,1,,,,,,,,
,,,,,,,,,,,,,FF,,,,,,,,0.8662,,,,,,,,,,,,,,,,,,,,,,6100fad499688019dec679cd,61036cb4acf6b2bc6e56281a,2021-07-29_21h09.29.051,Simcolourproject_2stim_asymm_v5,2020.2.10,Win32,60,61025ae37ef11b136ea224fe,,,,,,,,,87,20.80001175,-15.20000584,1,0,0,response3disk,,5,-7.999988675,3.19999443,1,0,0,rectangle,-7.999988675,3.19999443,1,0,0,-7.999988675,3.19999443,1,0,0,1,64,224,104,1,,,,,,,,
,,,,,,,,,,,,,FF,,,,,,,,0.7999,,,,,,,,,,,,,,,,,,,,,,6100fad499688019dec679cd,61036cb4acf6b2bc6e56281a,2021-07-29_21h09.29.051,Simcolourproject_2stim_asymm_v5,2020.2.10,Win32,60,61025ae37ef11b136ea224fe,,,,,,,,,1632,28.00001186,-20.00003033,1,0,0,response3disk,,5,-3.999988616,3.999970028,1,0,0,rectangle,-3.999988616,3.999970028,1,0,0,-3.999988616,3.999970028,1,0,0,1,65,225,95,1,,,,,,,,
,,,,,,,,,,,,,FF,,,,,,,,0.8163,,,,,,,,,,,,,,,,,,,,,,6100fad499688019dec679cd,61036cb4acf6b2bc6e56281a,2021-07-29_21h09.29.051,Simcolourproject_2stim_asymm_v5,2020.2.10,Win32,60,61025ae37ef11b136ea224fe,,,,,,,,,2275,29.60006071,-17.60003029,1,0,0,response3disk,,5,5.600060356,3.19999443,1,0,0,rectangle,5.600060356,3.19999443,1,0,0,5.600060356,3.19999443,1,0,0,1,66,226,26,1,,,,,,,,
,,,,,,,,,,,,,FF,,,,,,,,0.7833,,,,,,,,,,,,,,,,,,,,,,6100fad499688019dec679cd,61036cb4acf6b2bc6e56281a,2021-07-29_21h09.29.051,Simcolourproject_2stim_asymm_v5,2020.2.10,Win32,60,61025ae37ef11b136ea224fe,,,,,,,,,3778,-32.79998904,-14.40000583,1,0,0,response5disk,,2,-2.399939764,-1.600030056,1,0,0,rectangle,-2.399939764,-1.600030056,1,0,0,-2.399939764,-1.600030056,1,0,0,1,67,227,10,1,,,,,,,,
,,,,,,,,,,,,,FF,,,,,,,,1.1333,,,,,,,,,,,,,,,,,,,,,,6100fad499688019dec679cd,61036cb4acf6b2bc6e56281a,2021-07-29_21h09.29.051,Simcolourproject_2stim_asymm_v5,2020.2.10,Win32,60,61025ae37ef11b136ea224fe,,,,,,,,,3914,-28.79998899,-10.40000577,1,0,0,response5disk,,2,1.600060296,-0.80000563,1,0,0,rectangle,1.600060296,-0.80000563,1,0,0,1.600060296,-0.80000563,1,0,0,1,68,228,70,1,,,,,,,,
,,,,,,,,,,,,,FF,,,,,,,,1.4169,,,,,,,,,,,,,,,,,,,,,,6100fad499688019dec679cd,61036cb4acf6b2bc6e56281a,2021-07-29_21h09.29.051,Simcolourproject_2stim_asymm_v5,2020.2.10,Win32,60,61025ae37ef11b136ea224fe,,,,,,,,,3771,-13.59998876,-30.40000607,1,0,0,response5disk,,3,-5.599988639,-7.200005725,1,0,0,rectangle,-5.599988639,-7.200005725,1,0,0,-5.599988639,-7.200005725,1,0,0,1,69,229,130,1,,,,,,,,
,,,,,,,,,,,,,FF,,,,,,,,0.8832,,,,,,,,,,,,,,,,,,,,,,6100fad499688019dec679cd,61036cb4acf6b2bc6e56281a,2021-07-29_21h09.29.051,Simcolourproject_2stim_asymm_v5,2020.2.10,Win32,60,61025ae37ef11b136ea224fe,,,,,,,,,4319,28.80001187,-16.80000587,1,0,0,response3disk,,5,2.40001148,0.799994394,1,0,0,rectangle,2.40001148,0.799994394,1,0,0,2.40001148,0.799994394,1,0,0,1,70,230,132,1,,,,,,,,
,,,,,,,,,,,,,FF,,,,,,,,3.7663,,,,,,,,,,,,,,,,,,,,,,6100fad499688019dec679cd,61036cb4acf6b2bc6e56281a,2021-07-29_21h09.29.051,Simcolourproject_2stim_asymm_v5,2020.2.10,Win32,60,61025ae37ef11b136ea224fe,,,,,,,,,3057,-50.39994048,-24.80000599,1,0,0,response5disk,,2,4.000011504,-6.400005713,1,0,0,rectangle,4.000011504,-6.400005713,1,0,0,4.000011504,-6.400005713,1,0,0,1,71,231,19,1,,,,,,,,
,,,,,,,,,,,,,FF,,,,,,,,1.4165,,,,,,,,,,,,,,,,,,,,,,6100fad499688019dec679cd,61036cb4acf6b2bc6e56281a,2021-07-29_21h09.29.051,Simcolourproject_2stim_asymm_v5,2020.2.10,Win32,60,61025ae37ef11b136ea224fe,,,,,,,,,4007,16.00001168,-28.80000605,1,0,0,response3disk,,4,-4.799988627,-7.200005725,1,0,0,rectangle,-4.799988627,-7.200005725,1,0,0,-4.799988627,-7.200005725,1,0,0,1,72,232,23,1,,,,,,,,
,,,,,,,,,,,,,FF,,,,,,,,0.8664,,,,,,,,,,,,,,,,,,,,,,6100fad499688019dec679cd,61036cb4acf6b2bc6e56281a,2021-07-29_21h09.29.051,Simcolourproject_2stim_asymm_v5,2020.2.10,Win32,60,61025ae37ef11b136ea224fe,,,,,,,,,4178,31.20001191,-16.80000587,1,0,0,response3disk,,5,8.000011563,-0.80000563,1,0,0,rectangle,8.000011563,-0.80000563,1,0,0,8.000011563,-0.80000563,1,0,0,1,73,233,81,1,,,,,,,,
,,,,,,,,,,,,,FF,,,,,,,,1.1166,,,,,,,,,,,,,,,,,,,,,,6100fad499688019dec679cd,61036cb4acf6b2bc6e56281a,2021-07-29_21h09.29.051,Simcolourproject_2stim_asymm_v5,2020.2.10,Win32,60,61025ae37ef11b136ea224fe,,,,,,,,,3493,23.20001179,-20.00003033,1,0,0,response3disk,,5,5.600060356,-0.80000563,1,0,0,rectangle,5.600060356,-0.80000563,1,0,0,5.600060356,-0.80000563,1,0,0,1,74,234,62,1,,,,,,,,
,,,,,,,,,,,,,FF,,,,,,,,0.833,,,,,,,,,,,,,,,,,,,,,,6100fad499688019dec679cd,61036cb4acf6b2bc6e56281a,2021-07-29_21h09.29.051,Simcolourproject_2stim_asymm_v5,2020.2.10,Win32,60,61025ae37ef11b136ea224fe,,,,,,,,,716,-35.19998908,18.39997024,1,0,0,response7disk,,1,-5.599988639,8.799994513,1,0,0,rectangle,-5.599988639,8.799994513,1,0,0,-5.599988639,8.799994513,1,0,0,1,75,235,119,1,,,,,,,,
,,,,,,,,,,,,,FF,,,,,,,,1.7163,,,,,,,,,,,,,,,,,,,,,,6100fad499688019dec679cd,61036cb4acf6b2bc6e56281a,2021-07-29_21h09.29.051,Simcolourproject_2stim_asymm_v5,2020.2.10,Win32,60,61025ae37ef11b136ea224fe,,,,,,,,,666,17.60006053,-29.60003047,1,0,0,response3disk,,4,3.200011492,-8.000030151,1,0,0,rectangle,3.200011492,-8.000030151,1,0,0,3.200011492,-8.000030151,1,0,0,1,76,236,91,1,,,,,,,,
,,,,,,,,,,,,,FF,,,,,,,,1.3333,,,,,,,,,,,,,,,,,,,,,,6100fad499688019dec679cd,61036cb4acf6b2bc6e56281a,2021-07-29_21h09.29.051,Simcolourproject_2stim_asymm_v5,2020.2.10,Win32,60,61025ae37ef11b136ea224fe,,,,,,,,,1099,42.40001208,16.79999463,1,0,0,response1disk,,6,4.800011516,4.799994454,1,0,0,rectangle,4.800011516,4.799994454,1,0,0,4.800011516,4.799994454,1,0,0,1,77,237,123,1,,,,,,,,
,,,,,,,,,,,,,FF,,,,,,,,1.4499,,,,,,,,,,,,,,,,,,,,,,6100fad499688019dec679cd,61036cb4acf6b2bc6e56281a,2021-07-29_21h09.29.051,Simcolourproject_2stim_asymm_v5,2020.2.10,Win32,60,61025ae37ef11b136ea224fe,,,,,,,,,3266,18.40001172,-34.40000613,1,0,0,response3disk,,4,-0.799988568,-4.800005689,1,0,0,rectangle,-0.799988568,-4.800005689,1,0,0,-0.799988568,-4.800005689,1,0,0,1,78,238,118,1,,,,,,,,
,,,,,,,,,,,,,FF,,,,,,,,3.6161,,,,,,,,,,,,,,,,,,,,,,6100fad499688019dec679cd,61036cb4acf6b2bc6e56281a,2021-07-29_21h09.29.051,Simcolourproject_2stim_asymm_v5,2020.2.10,Win32,60,61025ae37ef11b136ea224fe,,,,,,,,,750,40.80001205,-16.80000587,1,0,0,response3disk,,5,8.000011563,-4.000030091,1,0,0,rectangle,8.000011563,-4.000030091,1,0,0,8.000011563,-4.000030091,1,0,0,1,79,239,88,1,,,,,,,,
,,,,,,,,,,,,,FF,,,,,,,,0.8664,,,,,,,,,,,,,,,,,,,,,,6100fad499688019dec679cd,61036cb4acf6b2bc6e56281a,2021-07-29_21h09.29.051,Simcolourproject_2stim_asymm_v5,2020.2.10,Win32,60,61025ae37ef11b136ea224fe,,,,,,,,,856,26.40001184,15.19999461,1,0,0,response1disk,,6,12.00001162,11.19999455,1,0,0,rectangle,12.00001162,11.19999455,1,0,0,12.00001162,11.19999455,1,0,0,1,80,240,83,1,,,,,,,,
,,,,,,,,,,,,,FF,,,,,,,,0.8711,,,,,,,,,,,,,,,,,,,,,,6100fad499688019dec679cd,61036cb4acf6b2bc6e56281a,2021-07-29_21h09.29.051,Simcolourproject_2stim_asymm_v5,2020.2.10,Win32,60,61025ae37ef11b136ea224fe,,,,,,,,,3103,-14.39993994,-31.20000608,1,0,0,response5disk,,3,3.200011492,-3.00318E-05,1,0,0,rectangle,3.200011492,-3.00318E-05,1,0,0,3.200011492,-3.00318E-05,1,0,0,1,81,241,107,1,,,,,,,,
,,,,,,,,,,,,,FF,,,,,,,,1.3333,,,,,,,,,,,,,,,,,,,,,,6100fad499688019dec679cd,61036cb4acf6b2bc6e56281a,2021-07-29_21h09.29.051,Simcolourproject_2stim_asymm_v5,2020.2.10,Win32,60,61025ae37ef11b136ea224fe,,,,,,,,,427,-28.79998899,-42.40000625,1,0,0,response5disk,,3,-4.799988627,-3.200005665,1,0,0,rectangle,-4.799988627,-3.200005665,1,0,0,-4.799988627,-3.200005665,1,0,0,1,82,242,13,1,,,,,,,,
