key_resp.keys,key_resp.rt,key_resp_14.keys,key_resp_14.rt,key_resp_15.keys,key_resp_15.rt,key_resp_17.keys,key_resp_17.rt,key_resp_9.keys,key_resp_9.rt,key_resp_10.keys,key_resp_10.rt,practice_comparison,Ecc,mouse_5.x,mouse_5.y,mouse_5.leftButton,mouse_5.midButton,mouse_5.rightButton,mouse_5.clicked_name,pracsimilarity,response_time,mouse_10.x,mouse_10.y,mouse_10.leftButton,mouse_10.midButton,mouse_10.rightButton,mouse_10.clicked_name,mouse_7.x,mouse_7.y,mouse_7.leftButton,mouse_7.midButton,mouse_7.rightButton,mouse_6.x,mouse_6.y,mouse_6.leftButton,mouse_6.midButton,mouse_6.rightButton,duringprac.thisRepN,duringprac.thisTrialN,duringprac.thisN,duringprac.thisIndex,duringprac.ran,participant,session,date,expName,psychopyVersion,OS,frameRate,study_id,mouse_7.clicked_name,catchpracsimilarity,catch_response_time,catchnumberprac,catchtrialorderprac,mouse_6.clicked_name,key_resp_22.keys,key_resp_22.rt,realcomparison,mouse.x,mouse.y,mouse.leftButton,mouse.midButton,mouse.rightButton,mouse.clicked_name,Colour2,similarity,mouse_2.x,mouse_2.y,mouse_2.leftButton,mouse_2.midButton,mouse_2.rightButton,mouse_2.clicked_name,mouse_3.x,mouse_3.y,mouse_3.leftButton,mouse_3.midButton,mouse_3.rightButton,mouse_11.x,mouse_11.y,mouse_11.leftButton,mouse_11.midButton,mouse_11.rightButton,trials_2.thisRepN,trials_2.thisTrialN,trials_2.thisN,trials_2.thisIndex,trials_2.ran,Colour1,mouse_3.clicked_name,catchornah,catchsimilarity,catchnumber,catchtrialorder,catchRT,mouse_11.clicked_name
space,1.016,space,3.24,space,23.96,space,10.682,space,0.949,space,4.309,30,PF,-66,-90,1,0,0,response5disk_5,3,6.454,-3,-1,1,0,0,rectangle_8,-3,-1,1,0,0,-3,-1,1,0,0,0,0,0,4,1,61006058511273a01f0ce034,61036d3a87afc8bafef2f821,2021-07-29_22h10.20.961,Simcolourproject_2stim_asymm_v5,2020.2.10,MacIntel,60,61025ae37ef11b136ea224fe,,,,,,,,,,,,,,,,,,,,,,,,,,,,,,,,,,,,,,,,,,,,,,
,,,,,,,,,,,,19,PF,40,83,1,0,0,response1disk_5,7,4.485,-1,-1,1,0,0,rectangle_8,-75,32,1,0,0,4,1,1,0,0,0,1,1,6,1,61006058511273a01f0ce034,61036d3a87afc8bafef2f821,2021-07-29_22h10.20.961,Simcolourproject_2stim_asymm_v5,2020.2.10,MacIntel,60,61025ae37ef11b136ea224fe,response7disk_7,1,2.985,1,"[2,5]",rectangle_4,,,,,,,,,,,,,,,,,,,,,,,,,,,,,,,,,,,,,,,,
,,,,,,,,,,,,74,FF,32,-99,1,0,0,response3disk_5,4,9.721,-4,-2,1,0,0,rectangle_8,-4,-2,1,0,0,-4,-2,1,0,0,0,2,2,3,1,61006058511273a01f0ce034,61036d3a87afc8bafef2f821,2021-07-29_22h10.20.961,Simcolourproject_2stim_asymm_v5,2020.2.10,MacIntel,60,61025ae37ef11b136ea224fe,,,,,,,,,,,,,,,,,,,,,,,,,,,,,,,,,,,,,,,,,,,,,,
,,,,,,,,,,,,52,FF,80,-50,1,0,0,response3disk_5,5,4.569,4,-9,1,0,0,rectangle_8,4,-9,1,0,0,4,-9,1,0,0,0,3,3,5,1,61006058511273a01f0ce034,61036d3a87afc8bafef2f821,2021-07-29_22h10.20.961,Simcolourproject_2stim_asymm_v5,2020.2.10,MacIntel,60,61025ae37ef11b136ea224fe,,,,,,,,,,,,,,,,,,,,,,,,,,,,,,,,,,,,,,,,,,,,,,
,,,,,,,,,,,,23,FF,76,37,1,0,0,response1disk_5,6,4.585,3,3,1,0,0,rectangle_8,-76,37,1,0,0,-9,-4,1,0,0,0,4,4,0,1,61006058511273a01f0ce034,61036d3a87afc8bafef2f821,2021-07-29_22h10.20.961,Simcolourproject_2stim_asymm_v5,2020.2.10,MacIntel,60,61025ae37ef11b136ea224fe,response7disk_7,1,2.484,1,"[2,5]",rectangle_4,,,,,,,,,,,,,,,,,,,,,,,,,,,,,,,,,,,,,,,,
,,,,,,,,,,,,145,PF,86,-48,1,0,0,response3disk_5,5,5.352,-4,-3,1,0,0,rectangle_8,-4,-3,1,0,0,-4,-3,1,0,0,0,5,5,1,1,61006058511273a01f0ce034,61036d3a87afc8bafef2f821,2021-07-29_22h10.20.961,Simcolourproject_2stim_asymm_v5,2020.2.10,MacIntel,60,61025ae37ef11b136ea224fe,,,,,,,,,,,,,,,,,,,,,,,,,,,,,,,,,,,,,,,,,,,,,,
,,,,,,,,,,,,42,PF,39,81,1,0,0,response1disk_5,7,3.153,1,-4,1,0,0,rectangle_8,1,-4,1,0,0,1,-4,1,0,0,0,6,6,2,1,61006058511273a01f0ce034,61036d3a87afc8bafef2f821,2021-07-29_22h10.20.961,Simcolourproject_2stim_asymm_v5,2020.2.10,MacIntel,60,61025ae37ef11b136ea224fe,,,,,,,,,,,,,,,,,,,,,,,,,,,,,,,,,,,,,,,,,,,,,,
,,,,,,,,,,,,,FF,,,,,,,,5.752,,,,,,,,,,,,,,,,,,,,,,61006058511273a01f0ce034,61036d3a87afc8bafef2f821,2021-07-29_22h10.20.961,Simcolourproject_2stim_asymm_v5,2020.2.10,MacIntel,60,61025ae37ef11b136ea224fe,,,,,,,space,2.869,924,-48,-95,1,0,0,response5disk,,3,2,13,1,0,0,rectangle,2,13,1,0,0,2,13,1,0,0,0,0,0,151,1,,,,,,,,
,,,,,,,,,,,,,FF,,,,,,,,5.569,,,,,,,,,,,,,,,,,,,,,,61006058511273a01f0ce034,61036d3a87afc8bafef2f821,2021-07-29_22h10.20.961,Simcolourproject_2stim_asymm_v5,2020.2.10,MacIntel,60,61025ae37ef11b136ea224fe,,,,,,,,,3990,86,26,1,0,0,response1disk,,6,9,-4,1,0,0,rectangle,9,-4,1,0,0,9,-4,1,0,0,0,1,1,107,1,,,,,,,,
,,,,,,,,,,,,,FF,,,,,,,,3.235,,,,,,,,,,,,,,,,,,,,,,61006058511273a01f0ce034,61036d3a87afc8bafef2f821,2021-07-29_22h10.20.961,Simcolourproject_2stim_asymm_v5,2020.2.10,MacIntel,60,61025ae37ef11b136ea224fe,,,,,,,,,2369,51,-30,1,0,0,response3disk,,5,9,-1,1,0,0,rectangle,9,-1,1,0,0,9,-1,1,0,0,0,2,2,19,1,,,,,,,,
,,,,,,,,,,,,,FF,,,,,,,,5.186,,,,,,,,,,,,,,,,,,,,,,61006058511273a01f0ce034,61036d3a87afc8bafef2f821,2021-07-29_22h10.20.961,Simcolourproject_2stim_asymm_v5,2020.2.10,MacIntel,60,61025ae37ef11b136ea224fe,,,,,,,,,1976,-79,41,1,0,0,response7disk,,1,-1,2,1,0,0,rectangle,-1,2,1,0,0,-1,2,1,0,0,0,3,3,108,1,,,,,,,,
,,,,,,,,,,,,,FF,,,,,,,,1.983,,,,,,,,,,,,,,,,,,,,,,61006058511273a01f0ce034,61036d3a87afc8bafef2f821,2021-07-29_22h10.20.961,Simcolourproject_2stim_asymm_v5,2020.2.10,MacIntel,60,61025ae37ef11b136ea224fe,,,,,,,,,2793,40,-83,1,0,0,response3disk,,4,-6,4,1,0,0,rectangle,-6,4,1,0,0,-6,4,1,0,0,0,4,4,137,1,,,,,,,,
,,,,,,,,,,,,,FF,,,,,,,,1.934,,,,,,,,,,,,,,,,,,,,,,61006058511273a01f0ce034,61036d3a87afc8bafef2f821,2021-07-29_22h10.20.961,Simcolourproject_2stim_asymm_v5,2020.2.10,MacIntel,60,61025ae37ef11b136ea224fe,,,,,,,,,3481,58,-24,1,0,0,response3disk,,5,2,1,1,0,0,rectangle,2,1,1,0,0,2,1,1,0,0,0,5,5,77,1,,,,,,,,
,,,,,,,,,,,,,FF,,,,,,,,4.234,,,,,,,,,,,,,,,,,,,,,,61006058511273a01f0ce034,61036d3a87afc8bafef2f821,2021-07-29_22h10.20.961,Simcolourproject_2stim_asymm_v5,2020.2.10,MacIntel,60,61025ae37ef11b136ea224fe,,,,,,,,,2068,73,25,1,0,0,response1disk,,6,-1,0,1,0,0,rectangle,-1,0,1,0,0,-1,0,1,0,0,0,6,6,34,1,,,,,,,,
,,,,,,,,,,,,,FF,,,,,,,,2.184,,,,,,,,,,,,,,,,,,,,,,61006058511273a01f0ce034,61036d3a87afc8bafef2f821,2021-07-29_22h10.20.961,Simcolourproject_2stim_asymm_v5,2020.2.10,MacIntel,60,61025ae37ef11b136ea224fe,,,,,,,,,2019,60,-30,1,0,0,response3disk,,5,-3,0,1,0,0,rectangle,-3,0,1,0,0,-3,0,1,0,0,0,7,7,10,1,,,,,,,,
,,,,,,,,,,,,,FF,,,,,,,,7.087,,,,,,,,,,,,,,,,,,,,,,61006058511273a01f0ce034,61036d3a87afc8bafef2f821,2021-07-29_22h10.20.961,Simcolourproject_2stim_asymm_v5,2020.2.10,MacIntel,60,61025ae37ef11b136ea224fe,,,,,,,,,2693,86,45,1,0,0,response1disk,,6,4,4,1,0,0,rectangle,4,4,1,0,0,4,4,1,0,0,0,8,8,20,1,,,,,,,,
,,,,,,,,,,,,,FF,,,,,,,,1.567,,,,,,,,,,,,,,,,,,,,,,61006058511273a01f0ce034,61036d3a87afc8bafef2f821,2021-07-29_22h10.20.961,Simcolourproject_2stim_asymm_v5,2020.2.10,MacIntel,60,61025ae37ef11b136ea224fe,,,,,,,,,2382,49,86,1,0,0,response1disk,,7,1,1,1,0,0,rectangle,1,1,1,0,0,1,1,1,0,0,0,9,9,157,1,,,,,,,,
,,,,,,,,,,,,,FF,,,,,,,,1.367,,,,,,,,,,,,,,,,,,,,,,61006058511273a01f0ce034,61036d3a87afc8bafef2f821,2021-07-29_22h10.20.961,Simcolourproject_2stim_asymm_v5,2020.2.10,MacIntel,60,61025ae37ef11b136ea224fe,,,,,,,,,208,46,71,1,0,0,response1disk,,7,-1,0,1,0,0,rectangle,-1,0,1,0,0,-1,0,1,0,0,0,10,10,146,1,,,,,,,,
,,,,,,,,,,,,,FF,,,,,,,,1.182,,,,,,,,,,,,,,,,,,,,,,61006058511273a01f0ce034,61036d3a87afc8bafef2f821,2021-07-29_22h10.20.961,Simcolourproject_2stim_asymm_v5,2020.2.10,MacIntel,60,61025ae37ef11b136ea224fe,,,,,,,,,2464,88,-47,1,0,0,response3disk,,5,5,-5,1,0,0,rectangle,5,-5,1,0,0,5,-5,1,0,0,0,11,11,73,1,,,,,,,,
,,,,,,,,,,,,,FF,,,,,,,,3.435,,,,,,,,,,,,,,,,,,,,,,61006058511273a01f0ce034,61036d3a87afc8bafef2f821,2021-07-29_22h10.20.961,Simcolourproject_2stim_asymm_v5,2020.2.10,MacIntel,60,61025ae37ef11b136ea224fe,,,,,,,,,4025,32,-78,1,0,0,response3disk,,4,2,-4,1,0,0,rectangle,2,-4,1,0,0,2,-4,1,0,0,0,12,12,115,1,,,,,,,,
,,,,,,,,,,,,,FF,,,,,,,,1.334,,,,,,,,,,,,,,,,,,,,,,61006058511273a01f0ce034,61036d3a87afc8bafef2f821,2021-07-29_22h10.20.961,Simcolourproject_2stim_asymm_v5,2020.2.10,MacIntel,60,61025ae37ef11b136ea224fe,,,,,,,,,3037,36,80,1,0,0,response1disk,,7,2,-1,1,0,0,rectangle,2,-1,1,0,0,2,-1,1,0,0,0,13,13,132,1,,,,,,,,
,,,,,,,,,,,,,FF,,,,,,,,2.385,,,,,,,,,,,,,,,,,,,,,,61006058511273a01f0ce034,61036d3a87afc8bafef2f821,2021-07-29_22h10.20.961,Simcolourproject_2stim_asymm_v5,2020.2.10,MacIntel,60,61025ae37ef11b136ea224fe,,,,,,,,,1653,-36,-85,1,0,0,response5disk,,3,3,-2,1,0,0,rectangle,3,-2,1,0,0,3,-2,1,0,0,0,14,14,130,1,,,,,,,,
,,,,,,,,,,,,,FF,,,,,,,,5.686,,,,,,,,,,,,,,,,,,,,,,61006058511273a01f0ce034,61036d3a87afc8bafef2f821,2021-07-29_22h10.20.961,Simcolourproject_2stim_asymm_v5,2020.2.10,MacIntel,60,61025ae37ef11b136ea224fe,,,,,,,,,716,-51,80,1,0,0,response7disk,,0,2,-9,1,0,0,rectangle,2,-9,1,0,0,2,-9,1,0,0,0,15,15,126,1,,,,,,,,
,,,,,,,,,,,,,FF,,,,,,,,10.49,,,,,,,,,,,,,,,,,,,,,,61006058511273a01f0ce034,61036d3a87afc8bafef2f821,2021-07-29_22h10.20.961,Simcolourproject_2stim_asymm_v5,2020.2.10,MacIntel,60,61025ae37ef11b136ea224fe,,,,,,,,,440,-63,-23,1,0,0,response5disk,,2,-8,-10,1,0,0,rectangle,95,-48,1,0,0,5,4,1,0,0,0,16,16,142,1,,response3disk_3,TRUE,5,5,"[67,108,111,150,117,204,252,162,181,267,231,157,17,104,124,307,276,123,32,294]",2.334,rectangle
,,,,,,,,,,,,,FF,,,,,,,,2.702,,,,,,,,,,,,,,,,,,,,,,61006058511273a01f0ce034,61036d3a87afc8bafef2f821,2021-07-29_22h10.20.961,Simcolourproject_2stim_asymm_v5,2020.2.10,MacIntel,60,61025ae37ef11b136ea224fe,,,,,,,,,521,92,-32,1,0,0,response3disk,,5,-3,0,1,0,0,rectangle,-3,0,1,0,0,-3,0,1,0,0,0,17,17,113,1,,,,,,,,
,,,,,,,,,,,,,FF,,,,,,,,1.801,,,,,,,,,,,,,,,,,,,,,,61006058511273a01f0ce034,61036d3a87afc8bafef2f821,2021-07-29_22h10.20.961,Simcolourproject_2stim_asymm_v5,2020.2.10,MacIntel,60,61025ae37ef11b136ea224fe,,,,,,,,,3310,44,86,1,0,0,response1disk,,7,-4,2,1,0,0,rectangle,-4,2,1,0,0,-4,2,1,0,0,0,18,18,79,1,,,,,,,,
,,,,,,,,,,,,,FF,,,,,,,,1.517,,,,,,,,,,,,,,,,,,,,,,61006058511273a01f0ce034,61036d3a87afc8bafef2f821,2021-07-29_22h10.20.961,Simcolourproject_2stim_asymm_v5,2020.2.10,MacIntel,60,61025ae37ef11b136ea224fe,,,,,,,,,4222,-78,-36,1,0,0,response5disk,,2,5,-2,1,0,0,rectangle,5,-2,1,0,0,5,-2,1,0,0,0,19,19,156,1,,,,,,,,
,,,,,,,,,,,,,FF,,,,,,,,0.767,,,,,,,,,,,,,,,,,,,,,,61006058511273a01f0ce034,61036d3a87afc8bafef2f821,2021-07-29_22h10.20.961,Simcolourproject_2stim_asymm_v5,2020.2.10,MacIntel,60,61025ae37ef11b136ea224fe,,,,,,,,,1339,35,78,1,0,0,response1disk,,7,5,2,1,0,0,rectangle,5,2,1,0,0,5,2,1,0,0,0,20,20,120,1,,,,,,,,
,,,,,,,,,,,,,FF,,,,,,,,1.684,,,,,,,,,,,,,,,,,,,,,,61006058511273a01f0ce034,61036d3a87afc8bafef2f821,2021-07-29_22h10.20.961,Simcolourproject_2stim_asymm_v5,2020.2.10,MacIntel,60,61025ae37ef11b136ea224fe,,,,,,,,,555,-42,-81,1,0,0,response5disk,,3,1,-4,1,0,0,rectangle,1,-4,1,0,0,1,-4,1,0,0,0,21,21,114,1,,,,,,,,
,,,,,,,,,,,,,FF,,,,,,,,1.099,,,,,,,,,,,,,,,,,,,,,,61006058511273a01f0ce034,61036d3a87afc8bafef2f821,2021-07-29_22h10.20.961,Simcolourproject_2stim_asymm_v5,2020.2.10,MacIntel,60,61025ae37ef11b136ea224fe,,,,,,,,,3731,38,76,1,0,0,response1disk,,7,6,-8,1,0,0,rectangle,6,-8,1,0,0,6,-8,1,0,0,0,22,22,119,1,,,,,,,,
,,,,,,,,,,,,,FF,,,,,,,,4.069,,,,,,,,,,,,,,,,,,,,,,61006058511273a01f0ce034,61036d3a87afc8bafef2f821,2021-07-29_22h10.20.961,Simcolourproject_2stim_asymm_v5,2020.2.10,MacIntel,60,61025ae37ef11b136ea224fe,,,,,,,,,2359,88,-55,1,0,0,response3disk,,5,21,2,1,0,0,rectangle,21,2,1,0,0,21,2,1,0,0,0,23,23,98,1,,,,,,,,
,,,,,,,,,,,,,FF,,,,,,,,0.799,,,,,,,,,,,,,,,,,,,,,,61006058511273a01f0ce034,61036d3a87afc8bafef2f821,2021-07-29_22h10.20.961,Simcolourproject_2stim_asymm_v5,2020.2.10,MacIntel,60,61025ae37ef11b136ea224fe,,,,,,,,,2071,36,95,1,0,0,response1disk,,7,13,0,1,0,0,rectangle,13,0,1,0,0,13,0,1,0,0,0,24,24,78,1,,,,,,,,
,,,,,,,,,,,,,FF,,,,,,,,0.833,,,,,,,,,,,,,,,,,,,,,,61006058511273a01f0ce034,61036d3a87afc8bafef2f821,2021-07-29_22h10.20.961,Simcolourproject_2stim_asymm_v5,2020.2.10,MacIntel,60,61025ae37ef11b136ea224fe,,,,,,,,,2500,26,78,1,0,0,response1disk,,7,2,15,1,0,0,rectangle,2,15,1,0,0,2,15,1,0,0,0,25,25,110,1,,,,,,,,
,,,,,,,,,,,,,FF,,,,,,,,1.533,,,,,,,,,,,,,,,,,,,,,,61006058511273a01f0ce034,61036d3a87afc8bafef2f821,2021-07-29_22h10.20.961,Simcolourproject_2stim_asymm_v5,2020.2.10,MacIntel,60,61025ae37ef11b136ea224fe,,,,,,,,,635,-31,-87,1,0,0,response5disk,,3,-3,-8,1,0,0,rectangle,-3,-8,1,0,0,-3,-8,1,0,0,0,26,26,140,1,,,,,,,,
,,,,,,,,,,,,,FF,,,,,,,,0.749,,,,,,,,,,,,,,,,,,,,,,61006058511273a01f0ce034,61036d3a87afc8bafef2f821,2021-07-29_22h10.20.961,Simcolourproject_2stim_asymm_v5,2020.2.10,MacIntel,60,61025ae37ef11b136ea224fe,,,,,,,,,3759,36,81,1,0,0,response1disk,,7,3,4,1,0,0,rectangle,3,4,1,0,0,3,4,1,0,0,0,27,27,88,1,,,,,,,,
,,,,,,,,,,,,,FF,,,,,,,,1.217,,,,,,,,,,,,,,,,,,,,,,61006058511273a01f0ce034,61036d3a87afc8bafef2f821,2021-07-29_22h10.20.961,Simcolourproject_2stim_asymm_v5,2020.2.10,MacIntel,60,61025ae37ef11b136ea224fe,,,,,,,,,4358,-53,-25,1,0,0,response5disk,,2,-5,-16,1,0,0,rectangle,-5,-16,1,0,0,-5,-16,1,0,0,0,28,28,100,1,,,,,,,,
,,,,,,,,,,,,,FF,,,,,,,,1.518,,,,,,,,,,,,,,,,,,,,,,61006058511273a01f0ce034,61036d3a87afc8bafef2f821,2021-07-29_22h10.20.961,Simcolourproject_2stim_asymm_v5,2020.2.10,MacIntel,60,61025ae37ef11b136ea224fe,,,,,,,,,2725,-75,-43,1,0,0,response5disk,,2,10,-4,1,0,0,rectangle,10,-4,1,0,0,10,-4,1,0,0,0,29,29,99,1,,,,,,,,
,,,,,,,,,,,,,FF,,,,,,,,0.834,,,,,,,,,,,,,,,,,,,,,,61006058511273a01f0ce034,61036d3a87afc8bafef2f821,2021-07-29_22h10.20.961,Simcolourproject_2stim_asymm_v5,2020.2.10,MacIntel,60,61025ae37ef11b136ea224fe,,,,,,,,,2532,39,77,1,0,0,response1disk,,7,9,-1,1,0,0,rectangle,9,-1,1,0,0,9,-1,1,0,0,0,30,30,27,1,,,,,,,,
,,,,,,,,,,,,,FF,,,,,,,,0.766,,,,,,,,,,,,,,,,,,,,,,61006058511273a01f0ce034,61036d3a87afc8bafef2f821,2021-07-29_22h10.20.961,Simcolourproject_2stim_asymm_v5,2020.2.10,MacIntel,60,61025ae37ef11b136ea224fe,,,,,,,,,1945,37,62,1,0,0,response1disk,,7,12,0,1,0,0,rectangle,-71,31,1,0,0,-3,2,1,0,0,0,31,31,31,1,,response7disk_3,TRUE,1,1,"[67,108,111,150,117,204,252,162,181,267,231,157,17,104,124,307,276,123,32,294]",1.801,rectangle
,,,,,,,,,,,,,FF,,,,,,,,1.317,,,,,,,,,,,,,,,,,,,,,,61006058511273a01f0ce034,61036d3a87afc8bafef2f821,2021-07-29_22h10.20.961,Simcolourproject_2stim_asymm_v5,2020.2.10,MacIntel,60,61025ae37ef11b136ea224fe,,,,,,,,,3560,-35,-86,1,0,0,response5disk,,3,-4,-8,1,0,0,rectangle,-4,-8,1,0,0,-4,-8,1,0,0,0,32,32,28,1,,,,,,,,
,,,,,,,,,,,,,FF,,,,,,,,0.834,,,,,,,,,,,,,,,,,,,,,,61006058511273a01f0ce034,61036d3a87afc8bafef2f821,2021-07-29_22h10.20.961,Simcolourproject_2stim_asymm_v5,2020.2.10,MacIntel,60,61025ae37ef11b136ea224fe,,,,,,,,,4314,46,69,1,0,0,response1disk,,7,14,5,1,0,0,rectangle,14,5,1,0,0,14,5,1,0,0,0,33,33,55,1,,,,,,,,
,,,,,,,,,,,,,FF,,,,,,,,1.717,,,,,,,,,,,,,,,,,,,,,,61006058511273a01f0ce034,61036d3a87afc8bafef2f821,2021-07-29_22h10.20.961,Simcolourproject_2stim_asymm_v5,2020.2.10,MacIntel,60,61025ae37ef11b136ea224fe,,,,,,,,,782,43,75,1,0,0,response1disk,,7,13,13,1,0,0,rectangle,13,13,1,0,0,13,13,1,0,0,0,34,34,84,1,,,,,,,,
,,,,,,,,,,,,,FF,,,,,,,,0.784,,,,,,,,,,,,,,,,,,,,,,61006058511273a01f0ce034,61036d3a87afc8bafef2f821,2021-07-29_22h10.20.961,Simcolourproject_2stim_asymm_v5,2020.2.10,MacIntel,60,61025ae37ef11b136ea224fe,,,,,,,,,3984,36,83,1,0,0,response1disk,,7,10,1,1,0,0,rectangle,10,1,1,0,0,10,1,1,0,0,0,35,35,54,1,,,,,,,,
,,,,,,,,,,,,,FF,,,,,,,,0.951,,,,,,,,,,,,,,,,,,,,,,61006058511273a01f0ce034,61036d3a87afc8bafef2f821,2021-07-29_22h10.20.961,Simcolourproject_2stim_asymm_v5,2020.2.10,MacIntel,60,61025ae37ef11b136ea224fe,,,,,,,,,4103,41,-74,1,0,0,response3disk,,4,13,-5,1,0,0,rectangle,13,-5,1,0,0,13,-5,1,0,0,0,36,36,41,1,,,,,,,,
,,,,,,,,,,,,,FF,,,,,,,,1.634,,,,,,,,,,,,,,,,,,,,,,61006058511273a01f0ce034,61036d3a87afc8bafef2f821,2021-07-29_22h10.20.961,Simcolourproject_2stim_asymm_v5,2020.2.10,MacIntel,60,61025ae37ef11b136ea224fe,,,,,,,,,1965,-68,31,1,0,0,response7disk,,1,-2,-4,1,0,0,rectangle,-2,-4,1,0,0,-2,-4,1,0,0,0,37,37,86,1,,,,,,,,
,,,,,,,,,,,,,FF,,,,,,,,0.9,,,,,,,,,,,,,,,,,,,,,,61006058511273a01f0ce034,61036d3a87afc8bafef2f821,2021-07-29_22h10.20.961,Simcolourproject_2stim_asymm_v5,2020.2.10,MacIntel,60,61025ae37ef11b136ea224fe,,,,,,,,,356,-33,-84,1,0,0,response5disk,,3,-7,-2,1,0,0,rectangle,-7,-2,1,0,0,-7,-2,1,0,0,0,38,38,74,1,,,,,,,,
,,,,,,,,,,,,,FF,,,,,,,,0.951,,,,,,,,,,,,,,,,,,,,,,61006058511273a01f0ce034,61036d3a87afc8bafef2f821,2021-07-29_22h10.20.961,Simcolourproject_2stim_asymm_v5,2020.2.10,MacIntel,60,61025ae37ef11b136ea224fe,,,,,,,,,2714,-40,-74,1,0,0,response5disk,,3,0,3,1,0,0,rectangle,0,3,1,0,0,0,3,1,0,0,0,39,39,145,1,,,,,,,,
,,,,,,,,,,,,,FF,,,,,,,,0.801,,,,,,,,,,,,,,,,,,,,,,61006058511273a01f0ce034,61036d3a87afc8bafef2f821,2021-07-29_22h10.20.961,Simcolourproject_2stim_asymm_v5,2020.2.10,MacIntel,60,61025ae37ef11b136ea224fe,,,,,,,,,2988,25,-68,1,0,0,response3disk,,4,6,-2,1,0,0,rectangle,6,-2,1,0,0,6,-2,1,0,0,0,40,40,83,1,,,,,,,,
,,,,,,,,,,,,,FF,,,,,,,,0.984,,,,,,,,,,,,,,,,,,,,,,61006058511273a01f0ce034,61036d3a87afc8bafef2f821,2021-07-29_22h10.20.961,Simcolourproject_2stim_asymm_v5,2020.2.10,MacIntel,60,61025ae37ef11b136ea224fe,,,,,,,,,4263,81,45,1,0,0,response1disk,,6,17,6,1,0,0,rectangle,17,6,1,0,0,17,6,1,0,0,0,41,41,127,1,,,,,,,,
,,,,,,,,,,,,,FF,,,,,,,,0.801,,,,,,,,,,,,,,,,,,,,,,61006058511273a01f0ce034,61036d3a87afc8bafef2f821,2021-07-29_22h10.20.961,Simcolourproject_2stim_asymm_v5,2020.2.10,MacIntel,60,61025ae37ef11b136ea224fe,,,,,,,,,1403,42,73,1,0,0,response1disk,,7,16,2,1,0,0,rectangle,16,2,1,0,0,16,2,1,0,0,0,42,42,30,1,,,,,,,,
,,,,,,,,,,,,,FF,,,,,,,,0.784,,,,,,,,,,,,,,,,,,,,,,61006058511273a01f0ce034,61036d3a87afc8bafef2f821,2021-07-29_22h10.20.961,Simcolourproject_2stim_asymm_v5,2020.2.10,MacIntel,60,61025ae37ef11b136ea224fe,,,,,,,,,2222,27,82,1,0,0,response1disk,,7,-9,-6,1,0,0,rectangle,-9,-6,1,0,0,-9,-6,1,0,0,0,43,43,39,1,,,,,,,,
,,,,,,,,,,,,,FF,,,,,,,,0.699,,,,,,,,,,,,,,,,,,,,,,61006058511273a01f0ce034,61036d3a87afc8bafef2f821,2021-07-29_22h10.20.961,Simcolourproject_2stim_asymm_v5,2020.2.10,MacIntel,60,61025ae37ef11b136ea224fe,,,,,,,,,2930,34,80,1,0,0,response1disk,,7,21,3,1,0,0,rectangle,21,3,1,0,0,21,3,1,0,0,0,44,44,16,1,,,,,,,,
,,,,,,,,,,,,,FF,,,,,,,,0.849,,,,,,,,,,,,,,,,,,,,,,61006058511273a01f0ce034,61036d3a87afc8bafef2f821,2021-07-29_22h10.20.961,Simcolourproject_2stim_asymm_v5,2020.2.10,MacIntel,60,61025ae37ef11b136ea224fe,,,,,,,,,2664,38,-72,1,0,0,response3disk,,4,11,-5,1,0,0,rectangle,11,-5,1,0,0,11,-5,1,0,0,0,45,45,148,1,,,,,,,,
,,,,,,,,,,,,,FF,,,,,,,,0.916,,,,,,,,,,,,,,,,,,,,,,61006058511273a01f0ce034,61036d3a87afc8bafef2f821,2021-07-29_22h10.20.961,Simcolourproject_2stim_asymm_v5,2020.2.10,MacIntel,60,61025ae37ef11b136ea224fe,,,,,,,,,3463,63,-33,1,0,0,response3disk,,5,2,3,1,0,0,rectangle,2,3,1,0,0,2,3,1,0,0,0,46,46,136,1,,,,,,,,
,,,,,,,,,,,,,FF,,,,,,,,0.783,,,,,,,,,,,,,,,,,,,,,,61006058511273a01f0ce034,61036d3a87afc8bafef2f821,2021-07-29_22h10.20.961,Simcolourproject_2stim_asymm_v5,2020.2.10,MacIntel,60,61025ae37ef11b136ea224fe,,,,,,,,,271,36,85,1,0,0,response1disk,,7,6,5,1,0,0,rectangle,6,5,1,0,0,6,5,1,0,0,0,47,47,24,1,,,,,,,,
,,,,,,,,,,,,,FF,,,,,,,,0.834,,,,,,,,,,,,,,,,,,,,,,61006058511273a01f0ce034,61036d3a87afc8bafef2f821,2021-07-29_22h10.20.961,Simcolourproject_2stim_asymm_v5,2020.2.10,MacIntel,60,61025ae37ef11b136ea224fe,,,,,,,,,4150,87,-31,1,0,0,response3disk,,5,18,10,1,0,0,rectangle,18,10,1,0,0,18,10,1,0,0,0,48,48,35,1,,,,,,,,
,,,,,,,,,,,,,FF,,,,,,,,0.933,,,,,,,,,,,,,,,,,,,,,,61006058511273a01f0ce034,61036d3a87afc8bafef2f821,2021-07-29_22h10.20.961,Simcolourproject_2stim_asymm_v5,2020.2.10,MacIntel,60,61025ae37ef11b136ea224fe,,,,,,,,,3588,79,-49,1,0,0,response3disk,,5,7,-3,1,0,0,rectangle,7,-3,1,0,0,7,-3,1,0,0,0,49,49,5,1,,,,,,,,
,,,,,,,,,,,,,FF,,,,,,,,0.767,,,,,,,,,,,,,,,,,,,,,,61006058511273a01f0ce034,61036d3a87afc8bafef2f821,2021-07-29_22h10.20.961,Simcolourproject_2stim_asymm_v5,2020.2.10,MacIntel,60,61025ae37ef11b136ea224fe,,,,,,,,,4179,30,68,1,0,0,response1disk,,7,9,-4,1,0,0,rectangle,9,-4,1,0,0,9,-4,1,0,0,0,50,50,21,1,,,,,,,,
,,,,,,,,,,,,,FF,,,,,,,,0.649,,,,,,,,,,,,,,,,,,,,,,61006058511273a01f0ce034,61036d3a87afc8bafef2f821,2021-07-29_22h10.20.961,Simcolourproject_2stim_asymm_v5,2020.2.10,MacIntel,60,61025ae37ef11b136ea224fe,,,,,,,,,854,31,66,1,0,0,response1disk,,7,11,1,1,0,0,rectangle,11,1,1,0,0,11,1,1,0,0,0,51,51,40,1,,,,,,,,
,,,,,,,,,,,,,FF,,,,,,,,0.599,,,,,,,,,,,,,,,,,,,,,,61006058511273a01f0ce034,61036d3a87afc8bafef2f821,2021-07-29_22h10.20.961,Simcolourproject_2stim_asymm_v5,2020.2.10,MacIntel,60,61025ae37ef11b136ea224fe,,,,,,,,,127,31,87,1,0,0,response1disk,,7,9,-2,1,0,0,rectangle,9,-2,1,0,0,9,-2,1,0,0,0,52,52,118,1,,,,,,,,
,,,,,,,,,,,,,FF,,,,,,,,0.801,,,,,,,,,,,,,,,,,,,,,,61006058511273a01f0ce034,61036d3a87afc8bafef2f821,2021-07-29_22h10.20.961,Simcolourproject_2stim_asymm_v5,2020.2.10,MacIntel,60,61025ae37ef11b136ea224fe,,,,,,,,,3431,93,-40,1,0,0,response3disk,,5,23,-5,1,0,0,rectangle,23,-5,1,0,0,23,-5,1,0,0,0,53,53,135,1,,,,,,,,
,,,,,,,,,,,,,FF,,,,,,,,0.784,,,,,,,,,,,,,,,,,,,,,,61006058511273a01f0ce034,61036d3a87afc8bafef2f821,2021-07-29_22h10.20.961,Simcolourproject_2stim_asymm_v5,2020.2.10,MacIntel,60,61025ae37ef11b136ea224fe,,,,,,,,,245,29,69,1,0,0,response1disk,,7,9,-2,1,0,0,rectangle,9,-2,1,0,0,9,-2,1,0,0,0,54,54,96,1,,,,,,,,
,,,,,,,,,,,,,FF,,,,,,,,0.7,,,,,,,,,,,,,,,,,,,,,,61006058511273a01f0ce034,61036d3a87afc8bafef2f821,2021-07-29_22h10.20.961,Simcolourproject_2stim_asymm_v5,2020.2.10,MacIntel,60,61025ae37ef11b136ea224fe,,,,,,,,,510,31,72,1,0,0,response1disk,,7,23,9,1,0,0,rectangle,23,9,1,0,0,23,9,1,0,0,0,55,55,85,1,,,,,,,,
,,,,,,,,,,,,,FF,,,,,,,,0.867,,,,,,,,,,,,,,,,,,,,,,61006058511273a01f0ce034,61036d3a87afc8bafef2f821,2021-07-29_22h10.20.961,Simcolourproject_2stim_asymm_v5,2020.2.10,MacIntel,60,61025ae37ef11b136ea224fe,,,,,,,,,1476,78,40,1,0,0,response1disk,,6,16,5,1,0,0,rectangle,16,5,1,0,0,16,5,1,0,0,0,56,56,97,1,,,,,,,,
,,,,,,,,,,,,,FF,,,,,,,,0.667,,,,,,,,,,,,,,,,,,,,,,61006058511273a01f0ce034,61036d3a87afc8bafef2f821,2021-07-29_22h10.20.961,Simcolourproject_2stim_asymm_v5,2020.2.10,MacIntel,60,61025ae37ef11b136ea224fe,,,,,,,,,329,30,83,1,0,0,response1disk,,7,9,0,1,0,0,rectangle,9,0,1,0,0,9,0,1,0,0,0,57,57,81,1,,,,,,,,
,,,,,,,,,,,,,FF,,,,,,,,0.617,,,,,,,,,,,,,,,,,,,,,,61006058511273a01f0ce034,61036d3a87afc8bafef2f821,2021-07-29_22h10.20.961,Simcolourproject_2stim_asymm_v5,2020.2.10,MacIntel,60,61025ae37ef11b136ea224fe,,,,,,,,,756,29,63,1,0,0,response1disk,,7,2,-5,1,0,0,rectangle,2,-5,1,0,0,2,-5,1,0,0,0,58,58,155,1,,,,,,,,
,,,,,,,,,,,,,FF,,,,,,,,0.966,,,,,,,,,,,,,,,,,,,,,,61006058511273a01f0ce034,61036d3a87afc8bafef2f821,2021-07-29_22h10.20.961,Simcolourproject_2stim_asymm_v5,2020.2.10,MacIntel,60,61025ae37ef11b136ea224fe,,,,,,,,,728,84,23,1,0,0,response1disk,,6,5,-4,1,0,0,rectangle,5,-4,1,0,0,5,-4,1,0,0,0,59,59,13,1,,,,,,,,
,,,,,,,,,,,,,FF,,,,,,,,0.633,,,,,,,,,,,,,,,,,,,,,,61006058511273a01f0ce034,61036d3a87afc8bafef2f821,2021-07-29_22h10.20.961,Simcolourproject_2stim_asymm_v5,2020.2.10,MacIntel,60,61025ae37ef11b136ea224fe,,,,,,,,,1196,19,74,1,0,0,response1disk,,7,-2,4,1,0,0,rectangle,-2,4,1,0,0,-2,4,1,0,0,0,60,60,8,1,,,,,,,,
,,,,,,,,,,,,,FF,,,,,,,,0.55,,,,,,,,,,,,,,,,,,,,,,61006058511273a01f0ce034,61036d3a87afc8bafef2f821,2021-07-29_22h10.20.961,Simcolourproject_2stim_asymm_v5,2020.2.10,MacIntel,60,61025ae37ef11b136ea224fe,,,,,,,,,304,38,63,1,0,0,response1disk,,7,14,9,1,0,0,rectangle,14,9,1,0,0,14,9,1,0,0,0,61,61,48,1,,,,,,,,
,,,,,,,,,,,,,FF,,,,,,,,0.584,,,,,,,,,,,,,,,,,,,,,,61006058511273a01f0ce034,61036d3a87afc8bafef2f821,2021-07-29_22h10.20.961,Simcolourproject_2stim_asymm_v5,2020.2.10,MacIntel,60,61025ae37ef11b136ea224fe,,,,,,,,,955,34,69,1,0,0,response1disk,,7,7,-2,1,0,0,rectangle,7,-2,1,0,0,7,-2,1,0,0,0,62,62,2,1,,,,,,,,
,,,,,,,,,,,,,FF,,,,,,,,0.634,,,,,,,,,,,,,,,,,,,,,,61006058511273a01f0ce034,61036d3a87afc8bafef2f821,2021-07-29_22h10.20.961,Simcolourproject_2stim_asymm_v5,2020.2.10,MacIntel,60,61025ae37ef11b136ea224fe,,,,,,,,,3629,53,77,1,0,0,response1disk,,7,21,4,1,0,0,rectangle,21,4,1,0,0,21,4,1,0,0,0,63,63,138,1,,,,,,,,
,,,,,,,,,,,,,FF,,,,,,,,0.85,,,,,,,,,,,,,,,,,,,,,,61006058511273a01f0ce034,61036d3a87afc8bafef2f821,2021-07-29_22h10.20.961,Simcolourproject_2stim_asymm_v5,2020.2.10,MacIntel,60,61025ae37ef11b136ea224fe,,,,,,,,,101,88,30,1,0,0,response1disk,,6,25,8,1,0,0,rectangle,25,8,1,0,0,25,8,1,0,0,0,64,64,70,1,,,,,,,,
,,,,,,,,,,,,,FF,,,,,,,,1,,,,,,,,,,,,,,,,,,,,,,61006058511273a01f0ce034,61036d3a87afc8bafef2f821,2021-07-29_22h10.20.961,Simcolourproject_2stim_asymm_v5,2020.2.10,MacIntel,60,61025ae37ef11b136ea224fe,,,,,,,,,4118,-42,45,1,0,0,response7disk,,0,4,-3,1,0,0,rectangle,4,-3,1,0,0,4,-3,1,0,0,0,65,65,29,1,,,,,,,,
,,,,,,,,,,,,,FF,,,,,,,,0.734,,,,,,,,,,,,,,,,,,,,,,61006058511273a01f0ce034,61036d3a87afc8bafef2f821,2021-07-29_22h10.20.961,Simcolourproject_2stim_asymm_v5,2020.2.10,MacIntel,60,61025ae37ef11b136ea224fe,,,,,,,,,1353,38,90,1,0,0,response1disk,,7,1,-3,1,0,0,rectangle,38,104,1,0,0,5,4,1,0,0,0,66,66,44,1,,response1disk_3,TRUE,7,7,"[67,108,111,150,117,204,252,162,181,267,231,157,17,104,124,307,276,123,32,294]",1.584,rectangle
,,,,,,,,,,,,,FF,,,,,,,,1.317,,,,,,,,,,,,,,,,,,,,,,61006058511273a01f0ce034,61036d3a87afc8bafef2f821,2021-07-29_22h10.20.961,Simcolourproject_2stim_asymm_v5,2020.2.10,MacIntel,60,61025ae37ef11b136ea224fe,,,,,,,,,656,50,79,1,0,0,response1disk,,7,11,1,1,0,0,rectangle,11,1,1,0,0,11,1,1,0,0,0,67,67,43,1,,,,,,,,
,,,,,,,,,,,,,FF,,,,,,,,0.632,,,,,,,,,,,,,,,,,,,,,,61006058511273a01f0ce034,61036d3a87afc8bafef2f821,2021-07-29_22h10.20.961,Simcolourproject_2stim_asymm_v5,2020.2.10,MacIntel,60,61025ae37ef11b136ea224fe,,,,,,,,,3610,43,88,1,0,0,response1disk,,7,0,-1,1,0,0,rectangle,0,-1,1,0,0,0,-1,1,0,0,0,68,68,45,1,,,,,,,,
,,,,,,,,,,,,,FF,,,,,,,,0.885,,,,,,,,,,,,,,,,,,,,,,61006058511273a01f0ce034,61036d3a87afc8bafef2f821,2021-07-29_22h10.20.961,Simcolourproject_2stim_asymm_v5,2020.2.10,MacIntel,60,61025ae37ef11b136ea224fe,,,,,,,,,568,34,75,1,0,0,response1disk,,7,1,-2,1,0,0,rectangle,1,-2,1,0,0,1,-2,1,0,0,0,69,69,94,1,,,,,,,,
,,,,,,,,,,,,,FF,,,,,,,,0.65,,,,,,,,,,,,,,,,,,,,,,61006058511273a01f0ce034,61036d3a87afc8bafef2f821,2021-07-29_22h10.20.961,Simcolourproject_2stim_asymm_v5,2020.2.10,MacIntel,60,61025ae37ef11b136ea224fe,,,,,,,,,3621,27,75,1,0,0,response1disk,,7,3,6,1,0,0,rectangle,3,6,1,0,0,3,6,1,0,0,0,70,70,128,1,,,,,,,,
,,,,,,,,,,,,,FF,,,,,,,,0.9,,,,,,,,,,,,,,,,,,,,,,61006058511273a01f0ce034,61036d3a87afc8bafef2f821,2021-07-29_22h10.20.961,Simcolourproject_2stim_asymm_v5,2020.2.10,MacIntel,60,61025ae37ef11b136ea224fe,,,,,,,,,3147,-31,-68,1,0,0,response5disk,,3,-5,3,1,0,0,rectangle,-5,3,1,0,0,-5,3,1,0,0,0,71,71,139,1,,,,,,,,
,,,,,,,,,,,,,FF,,,,,,,,0.7,,,,,,,,,,,,,,,,,,,,,,61006058511273a01f0ce034,61036d3a87afc8bafef2f821,2021-07-29_22h10.20.961,Simcolourproject_2stim_asymm_v5,2020.2.10,MacIntel,60,61025ae37ef11b136ea224fe,,,,,,,,,2927,45,77,1,0,0,response1disk,,7,16,4,1,0,0,rectangle,16,4,1,0,0,16,4,1,0,0,0,72,72,159,1,,,,,,,,
,,,,,,,,,,,,,FF,,,,,,,,1.317,,,,,,,,,,,,,,,,,,,,,,61006058511273a01f0ce034,61036d3a87afc8bafef2f821,2021-07-29_22h10.20.961,Simcolourproject_2stim_asymm_v5,2020.2.10,MacIntel,60,61025ae37ef11b136ea224fe,,,,,,,,,2617,35,72,1,0,0,response1disk,,7,6,5,1,0,0,rectangle,6,5,1,0,0,6,5,1,0,0,0,73,73,95,1,,,,,,,,
,,,,,,,,,,,,,FF,,,,,,,,0.534,,,,,,,,,,,,,,,,,,,,,,61006058511273a01f0ce034,61036d3a87afc8bafef2f821,2021-07-29_22h10.20.961,Simcolourproject_2stim_asymm_v5,2020.2.10,MacIntel,60,61025ae37ef11b136ea224fe,,,,,,,,,364,31,84,1,0,0,response1disk,,7,-3,-8,1,0,0,rectangle,-3,-8,1,0,0,-3,-8,1,0,0,0,74,74,17,1,,,,,,,,
,,,,,,,,,,,,,FF,,,,,,,,0.8,,,,,,,,,,,,,,,,,,,,,,61006058511273a01f0ce034,61036d3a87afc8bafef2f821,2021-07-29_22h10.20.961,Simcolourproject_2stim_asymm_v5,2020.2.10,MacIntel,60,61025ae37ef11b136ea224fe,,,,,,,,,1584,38,77,1,0,0,response1disk,,7,8,2,1,0,0,rectangle,8,2,1,0,0,8,2,1,0,0,0,75,75,51,1,,,,,,,,
,,,,,,,,,,,,,FF,,,,,,,,0.734,,,,,,,,,,,,,,,,,,,,,,61006058511273a01f0ce034,61036d3a87afc8bafef2f821,2021-07-29_22h10.20.961,Simcolourproject_2stim_asymm_v5,2020.2.10,MacIntel,60,61025ae37ef11b136ea224fe,,,,,,,,,3263,25,55,1,0,0,response1disk,,7,11,1,1,0,0,rectangle,11,1,1,0,0,11,1,1,0,0,0,76,76,76,1,,,,,,,,
,,,,,,,,,,,,,FF,,,,,,,,0.734,,,,,,,,,,,,,,,,,,,,,,61006058511273a01f0ce034,61036d3a87afc8bafef2f821,2021-07-29_22h10.20.961,Simcolourproject_2stim_asymm_v5,2020.2.10,MacIntel,60,61025ae37ef11b136ea224fe,,,,,,,,,435,35,-61,1,0,0,response3disk,,4,18,0,1,0,0,rectangle,18,0,1,0,0,18,0,1,0,0,0,77,77,67,1,,,,,,,,
,,,,,,,,,,,,,FF,,,,,,,,0.733,,,,,,,,,,,,,,,,,,,,,,61006058511273a01f0ce034,61036d3a87afc8bafef2f821,2021-07-29_22h10.20.961,Simcolourproject_2stim_asymm_v5,2020.2.10,MacIntel,60,61025ae37ef11b136ea224fe,,,,,,,,,4089,29,71,1,0,0,response1disk,,7,-2,-9,1,0,0,rectangle,-2,-9,1,0,0,-2,-9,1,0,0,0,78,78,61,1,,,,,,,,
,,,,,,,,,,,,,FF,,,,,,,,0.902,,,,,,,,,,,,,,,,,,,,,,61006058511273a01f0ce034,61036d3a87afc8bafef2f821,2021-07-29_22h10.20.961,Simcolourproject_2stim_asymm_v5,2020.2.10,MacIntel,60,61025ae37ef11b136ea224fe,,,,,,,,,879,24,82,1,0,0,response1disk,,7,4,-5,1,0,0,rectangle,4,-5,1,0,0,4,-5,1,0,0,0,79,79,69,1,,,,,,,,
,,,,,,,,,,,,,FF,,,,,,,,0.618,,,,,,,,,,,,,,,,,,,,,,61006058511273a01f0ce034,61036d3a87afc8bafef2f821,2021-07-29_22h10.20.961,Simcolourproject_2stim_asymm_v5,2020.2.10,MacIntel,60,61025ae37ef11b136ea224fe,,,,,,,,,3408,36,70,1,0,0,response1disk,,7,4,5,1,0,0,rectangle,4,5,1,0,0,4,5,1,0,0,0,80,80,59,1,,,,,,,,
,,,,,,,,,,,,,FF,,,,,,,,0.8,,,,,,,,,,,,,,,,,,,,,,61006058511273a01f0ce034,61036d3a87afc8bafef2f821,2021-07-29_22h10.20.961,Simcolourproject_2stim_asymm_v5,2020.2.10,MacIntel,60,61025ae37ef11b136ea224fe,,,,,,,,,3993,-58,30,1,0,0,response7disk,,1,-9,-10,1,0,0,rectangle,-9,-10,1,0,0,-9,-10,1,0,0,0,81,81,38,1,,,,,,,,
,,,,,,,,,,,,,FF,,,,,,,,0.7,,,,,,,,,,,,,,,,,,,,,,61006058511273a01f0ce034,61036d3a87afc8bafef2f821,2021-07-29_22h10.20.961,Simcolourproject_2stim_asymm_v5,2020.2.10,MacIntel,60,61025ae37ef11b136ea224fe,,,,,,,,,3266,45,80,1,0,0,response1disk,,7,16,-2,1,0,0,rectangle,16,-2,1,0,0,16,-2,1,0,0,0,82,82,68,1,,,,,,,,
,,,,,,,,,,,,,FF,,,,,,,,1,,,,,,,,,,,,,,,,,,,,,,61006058511273a01f0ce034,61036d3a87afc8bafef2f821,2021-07-29_22h10.20.961,Simcolourproject_2stim_asymm_v5,2020.2.10,MacIntel,60,61025ae37ef11b136ea224fe,,,,,,,,,2371,33,72,1,0,0,response1disk,,7,10,8,1,0,0,rectangle,10,8,1,0,0,10,8,1,0,0,0,83,83,14,1,,,,,,,,
,,,,,,,,,,,,,FF,,,,,,,,1.033,,,,,,,,,,,,,,,,,,,,,,61006058511273a01f0ce034,61036d3a87afc8bafef2f821,2021-07-29_22h10.20.961,Simcolourproject_2stim_asymm_v5,2020.2.10,MacIntel,60,61025ae37ef11b136ea224fe,,,,,,,,,2712,22,63,1,0,0,response1disk,,7,4,5,1,0,0,rectangle,4,5,1,0,0,4,5,1,0,0,0,84,84,124,1,,,,,,,,
,,,,,,,,,,,,,FF,,,,,,,,1.3,,,,,,,,,,,,,,,,,,,,,,61006058511273a01f0ce034,61036d3a87afc8bafef2f821,2021-07-29_22h10.20.961,Simcolourproject_2stim_asymm_v5,2020.2.10,MacIntel,60,61025ae37ef11b136ea224fe,,,,,,,,,2165,55,-80,1,0,0,response3disk,,4,18,-14,1,0,0,rectangle,18,-14,1,0,0,18,-14,1,0,0,0,85,85,154,1,,,,,,,,
,,,,,,,,,,,,,FF,,,,,,,,0.716,,,,,,,,,,,,,,,,,,,,,,61006058511273a01f0ce034,61036d3a87afc8bafef2f821,2021-07-29_22h10.20.961,Simcolourproject_2stim_asymm_v5,2020.2.10,MacIntel,60,61025ae37ef11b136ea224fe,,,,,,,,,408,26,72,1,0,0,response1disk,,7,3,1,1,0,0,rectangle,3,1,1,0,0,3,1,1,0,0,0,86,86,93,1,,,,,,,,
,,,,,,,,,,,,,FF,,,,,,,,0.55,,,,,,,,,,,,,,,,,,,,,,61006058511273a01f0ce034,61036d3a87afc8bafef2f821,2021-07-29_22h10.20.961,Simcolourproject_2stim_asymm_v5,2020.2.10,MacIntel,60,61025ae37ef11b136ea224fe,,,,,,,,,3651,26,59,1,0,0,response1disk,,7,7,-1,1,0,0,rectangle,7,-1,1,0,0,7,-1,1,0,0,0,87,87,112,1,,,,,,,,
,,,,,,,,,,,,,FF,,,,,,,,1.235,,,,,,,,,,,,,,,,,,,,,,61006058511273a01f0ce034,61036d3a87afc8bafef2f821,2021-07-29_22h10.20.961,Simcolourproject_2stim_asymm_v5,2020.2.10,MacIntel,60,61025ae37ef11b136ea224fe,,,,,,,,,1950,25,63,1,0,0,response1disk,,7,7,11,1,0,0,rectangle,7,11,1,0,0,7,11,1,0,0,0,88,88,12,1,,,,,,,,
,,,,,,,,,,,,,FF,,,,,,,,0.635,,,,,,,,,,,,,,,,,,,,,,61006058511273a01f0ce034,61036d3a87afc8bafef2f821,2021-07-29_22h10.20.961,Simcolourproject_2stim_asymm_v5,2020.2.10,MacIntel,60,61025ae37ef11b136ea224fe,,,,,,,,,19,40,76,1,0,0,response1disk,,7,12,5,1,0,0,rectangle,12,5,1,0,0,12,5,1,0,0,0,89,89,75,1,,,,,,,,
,,,,,,,,,,,,,FF,,,,,,,,0.783,,,,,,,,,,,,,,,,,,,,,,61006058511273a01f0ce034,61036d3a87afc8bafef2f821,2021-07-29_22h10.20.961,Simcolourproject_2stim_asymm_v5,2020.2.10,MacIntel,60,61025ae37ef11b136ea224fe,,,,,,,,,2305,37,66,1,0,0,response1disk,,7,12,-4,1,0,0,rectangle,12,-4,1,0,0,12,-4,1,0,0,0,90,90,109,1,,,,,,,,
,,,,,,,,,,,,,FF,,,,,,,,0.918,,,,,,,,,,,,,,,,,,,,,,61006058511273a01f0ce034,61036d3a87afc8bafef2f821,2021-07-29_22h10.20.961,Simcolourproject_2stim_asymm_v5,2020.2.10,MacIntel,60,61025ae37ef11b136ea224fe,,,,,,,,,2889,75,-47,1,0,0,response3disk,,5,7,1,1,0,0,rectangle,7,1,1,0,0,7,1,1,0,0,0,91,91,66,1,,,,,,,,
,,,,,,,,,,,,,FF,,,,,,,,0.583,,,,,,,,,,,,,,,,,,,,,,61006058511273a01f0ce034,61036d3a87afc8bafef2f821,2021-07-29_22h10.20.961,Simcolourproject_2stim_asymm_v5,2020.2.10,MacIntel,60,61025ae37ef11b136ea224fe,,,,,,,,,930,31,79,1,0,0,response1disk,,7,10,9,1,0,0,rectangle,10,9,1,0,0,10,9,1,0,0,0,92,92,18,1,,,,,,,,
,,,,,,,,,,,,,FF,,,,,,,,1.417,,,,,,,,,,,,,,,,,,,,,,61006058511273a01f0ce034,61036d3a87afc8bafef2f821,2021-07-29_22h10.20.961,Simcolourproject_2stim_asymm_v5,2020.2.10,MacIntel,60,61025ae37ef11b136ea224fe,,,,,,,,,3625,-75,-51,1,0,0,response5disk,,2,3,-5,1,0,0,rectangle,3,-5,1,0,0,3,-5,1,0,0,0,93,93,57,1,,,,,,,,
,,,,,,,,,,,,,FF,,,,,,,,0.633,,,,,,,,,,,,,,,,,,,,,,61006058511273a01f0ce034,61036d3a87afc8bafef2f821,2021-07-29_22h10.20.961,Simcolourproject_2stim_asymm_v5,2020.2.10,MacIntel,60,61025ae37ef11b136ea224fe,,,,,,,,,3218,31,69,1,0,0,response1disk,,7,-9,14,1,0,0,rectangle,-9,14,1,0,0,-9,14,1,0,0,0,94,94,91,1,,,,,,,,
,,,,,,,,,,,,,FF,,,,,,,,1.234,,,,,,,,,,,,,,,,,,,,,,61006058511273a01f0ce034,61036d3a87afc8bafef2f821,2021-07-29_22h10.20.961,Simcolourproject_2stim_asymm_v5,2020.2.10,MacIntel,60,61025ae37ef11b136ea224fe,,,,,,,,,4278,43,79,1,0,0,response1disk,,7,13,5,1,0,0,rectangle,13,5,1,0,0,13,5,1,0,0,0,95,95,7,1,,,,,,,,
,,,,,,,,,,,,,FF,,,,,,,,0.435,,,,,,,,,,,,,,,,,,,,,,61006058511273a01f0ce034,61036d3a87afc8bafef2f821,2021-07-29_22h10.20.961,Simcolourproject_2stim_asymm_v5,2020.2.10,MacIntel,60,61025ae37ef11b136ea224fe,,,,,,,,,358,29,63,1,0,0,response1disk,,7,12,-10,1,0,0,rectangle,12,-10,1,0,0,12,-10,1,0,0,0,96,96,36,1,,,,,,,,
,,,,,,,,,,,,,FF,,,,,,,,0.501,,,,,,,,,,,,,,,,,,,,,,61006058511273a01f0ce034,61036d3a87afc8bafef2f821,2021-07-29_22h10.20.961,Simcolourproject_2stim_asymm_v5,2020.2.10,MacIntel,60,61025ae37ef11b136ea224fe,,,,,,,,,3017,32,87,1,0,0,response1disk,,7,2,0,1,0,0,rectangle,2,0,1,0,0,2,0,1,0,0,0,97,97,6,1,,,,,,,,
,,,,,,,,,,,,,FF,,,,,,,,0.433,,,,,,,,,,,,,,,,,,,,,,61006058511273a01f0ce034,61036d3a87afc8bafef2f821,2021-07-29_22h10.20.961,Simcolourproject_2stim_asymm_v5,2020.2.10,MacIntel,60,61025ae37ef11b136ea224fe,,,,,,,,,1108,19,64,1,0,0,response1disk,,7,6,3,1,0,0,rectangle,6,3,1,0,0,6,3,1,0,0,0,98,98,72,1,,,,,,,,
,,,,,,,,,,,,,FF,,,,,,,,0.601,,,,,,,,,,,,,,,,,,,,,,61006058511273a01f0ce034,61036d3a87afc8bafef2f821,2021-07-29_22h10.20.961,Simcolourproject_2stim_asymm_v5,2020.2.10,MacIntel,60,61025ae37ef11b136ea224fe,,,,,,,,,2584,32,62,1,0,0,response1disk,,7,23,3,1,0,0,rectangle,23,3,1,0,0,23,3,1,0,0,0,99,99,0,1,,,,,,,,
,,,,,,,,,,,,,FF,,,,,,,,0.549,,,,,,,,,,,,,,,,,,,,,,61006058511273a01f0ce034,61036d3a87afc8bafef2f821,2021-07-29_22h10.20.961,Simcolourproject_2stim_asymm_v5,2020.2.10,MacIntel,60,61025ae37ef11b136ea224fe,,,,,,,,,4318,44,91,1,0,0,response1disk,,7,9,6,1,0,0,rectangle,9,6,1,0,0,9,6,1,0,0,0,100,100,111,1,,,,,,,,
,,,,,,,,,,,,,FF,,,,,,,,0.751,,,,,,,,,,,,,,,,,,,,,,61006058511273a01f0ce034,61036d3a87afc8bafef2f821,2021-07-29_22h10.20.961,Simcolourproject_2stim_asymm_v5,2020.2.10,MacIntel,60,61025ae37ef11b136ea224fe,,,,,,,,,2228,-68,-40,1,0,0,response5disk,,2,3,8,1,0,0,rectangle,3,8,1,0,0,3,8,1,0,0,0,101,101,1,1,,,,,,,,
,,,,,,,,,,,,,FF,,,,,,,,0.516,,,,,,,,,,,,,,,,,,,,,,61006058511273a01f0ce034,61036d3a87afc8bafef2f821,2021-07-29_22h10.20.961,Simcolourproject_2stim_asymm_v5,2020.2.10,MacIntel,60,61025ae37ef11b136ea224fe,,,,,,,,,454,32,80,1,0,0,response1disk,,7,5,-7,1,0,0,rectangle,5,-7,1,0,0,5,-7,1,0,0,0,102,102,60,1,,,,,,,,
,,,,,,,,,,,,,FF,,,,,,,,0.916,,,,,,,,,,,,,,,,,,,,,,61006058511273a01f0ce034,61036d3a87afc8bafef2f821,2021-07-29_22h10.20.961,Simcolourproject_2stim_asymm_v5,2020.2.10,MacIntel,60,61025ae37ef11b136ea224fe,,,,,,,,,280,-35,-71,1,0,0,response5disk,,3,-9,0,1,0,0,rectangle,-83,-34,1,0,0,-2,-1,1,0,0,0,103,103,49,1,,response5disk_3,TRUE,2,2,"[67,108,111,150,117,204,252,162,181,267,231,157,17,104,124,307,276,123,32,294]",2.067,rectangle
,,,,,,,,,,,,,FF,,,,,,,,0.7,,,,,,,,,,,,,,,,,,,,,,61006058511273a01f0ce034,61036d3a87afc8bafef2f821,2021-07-29_22h10.20.961,Simcolourproject_2stim_asymm_v5,2020.2.10,MacIntel,60,61025ae37ef11b136ea224fe,,,,,,,,,3957,26,71,1,0,0,response1disk,,7,9,5,1,0,0,rectangle,9,5,1,0,0,9,5,1,0,0,0,104,104,150,1,,,,,,,,
,,,,,,,,,,,,,FF,,,,,,,,0.734,,,,,,,,,,,,,,,,,,,,,,61006058511273a01f0ce034,61036d3a87afc8bafef2f821,2021-07-29_22h10.20.961,Simcolourproject_2stim_asymm_v5,2020.2.10,MacIntel,60,61025ae37ef11b136ea224fe,,,,,,,,,3967,-45,-87,1,0,0,response5disk,,3,-9,4,1,0,0,rectangle,-9,4,1,0,0,-9,4,1,0,0,0,105,105,64,1,,,,,,,,
,,,,,,,,,,,,,FF,,,,,,,,0.767,,,,,,,,,,,,,,,,,,,,,,61006058511273a01f0ce034,61036d3a87afc8bafef2f821,2021-07-29_22h10.20.961,Simcolourproject_2stim_asymm_v5,2020.2.10,MacIntel,60,61025ae37ef11b136ea224fe,,,,,,,,,456,-37,-73,1,0,0,response5disk,,3,-10,-2,1,0,0,rectangle,-10,-2,1,0,0,-10,-2,1,0,0,0,106,106,80,1,,,,,,,,
,,,,,,,,,,,,,FF,,,,,,,,0.851,,,,,,,,,,,,,,,,,,,,,,61006058511273a01f0ce034,61036d3a87afc8bafef2f821,2021-07-29_22h10.20.961,Simcolourproject_2stim_asymm_v5,2020.2.10,MacIntel,60,61025ae37ef11b136ea224fe,,,,,,,,,2434,87,41,1,0,0,response1disk,,6,2,-9,1,0,0,rectangle,-88,-39,1,0,0,0,-8,1,0,0,0,107,107,122,1,,response5disk_3,TRUE,2,2,"[67,108,111,150,117,204,252,162,181,267,231,157,17,104,124,307,276,123,32,294]",2.034,rectangle
,,,,,,,,,,,,,FF,,,,,,,,0.534,,,,,,,,,,,,,,,,,,,,,,61006058511273a01f0ce034,61036d3a87afc8bafef2f821,2021-07-29_22h10.20.961,Simcolourproject_2stim_asymm_v5,2020.2.10,MacIntel,60,61025ae37ef11b136ea224fe,,,,,,,,,1210,21,86,1,0,0,response1disk,,7,-6,-2,1,0,0,rectangle,-6,-2,1,0,0,-6,-2,1,0,0,0,108,108,105,1,,,,,,,,
,,,,,,,,,,,,,FF,,,,,,,,0.802,,,,,,,,,,,,,,,,,,,,,,61006058511273a01f0ce034,61036d3a87afc8bafef2f821,2021-07-29_22h10.20.961,Simcolourproject_2stim_asymm_v5,2020.2.10,MacIntel,60,61025ae37ef11b136ea224fe,,,,,,,,,371,88,51,1,0,0,response1disk,,6,-6,0,1,0,0,rectangle,-6,0,1,0,0,-6,0,1,0,0,0,109,109,125,1,,,,,,,,
,,,,,,,,,,,,,FF,,,,,,,,0.884,,,,,,,,,,,,,,,,,,,,,,61006058511273a01f0ce034,61036d3a87afc8bafef2f821,2021-07-29_22h10.20.961,Simcolourproject_2stim_asymm_v5,2020.2.10,MacIntel,60,61025ae37ef11b136ea224fe,,,,,,,,,1197,40,88,1,0,0,response1disk,,7,13,15,1,0,0,rectangle,-31,71,1,0,0,-9,-4,1,0,0,0,110,110,26,1,,response7disk_3,TRUE,0,0,"[67,108,111,150,117,204,252,162,181,267,231,157,17,104,124,307,276,123,32,294]",1.568,rectangle
,,,,,,,,,,,,,FF,,,,,,,,0.7,,,,,,,,,,,,,,,,,,,,,,61006058511273a01f0ce034,61036d3a87afc8bafef2f821,2021-07-29_22h10.20.961,Simcolourproject_2stim_asymm_v5,2020.2.10,MacIntel,60,61025ae37ef11b136ea224fe,,,,,,,,,2058,31,67,1,0,0,response1disk,,7,-8,-14,1,0,0,rectangle,-8,-14,1,0,0,-8,-14,1,0,0,0,111,111,106,1,,,,,,,,
,,,,,,,,,,,,,FF,,,,,,,,0.834,,,,,,,,,,,,,,,,,,,,,,61006058511273a01f0ce034,61036d3a87afc8bafef2f821,2021-07-29_22h10.20.961,Simcolourproject_2stim_asymm_v5,2020.2.10,MacIntel,60,61025ae37ef11b136ea224fe,,,,,,,,,4003,40,82,1,0,0,response1disk,,7,3,4,1,0,0,rectangle,3,4,1,0,0,3,4,1,0,0,0,112,112,117,1,,,,,,,,
,,,,,,,,,,,,,FF,,,,,,,,0.634,,,,,,,,,,,,,,,,,,,,,,61006058511273a01f0ce034,61036d3a87afc8bafef2f821,2021-07-29_22h10.20.961,Simcolourproject_2stim_asymm_v5,2020.2.10,MacIntel,60,61025ae37ef11b136ea224fe,,,,,,,,,2141,34,83,1,0,0,response1disk,,7,0,4,1,0,0,rectangle,0,4,1,0,0,0,4,1,0,0,0,113,113,42,1,,,,,,,,
,,,,,,,,,,,,,FF,,,,,,,,0.767,,,,,,,,,,,,,,,,,,,,,,61006058511273a01f0ce034,61036d3a87afc8bafef2f821,2021-07-29_22h10.20.961,Simcolourproject_2stim_asymm_v5,2020.2.10,MacIntel,60,61025ae37ef11b136ea224fe,,,,,,,,,106,79,47,1,0,0,response1disk,,6,-3,-7,1,0,0,rectangle,-3,-7,1,0,0,-3,-7,1,0,0,0,114,114,65,1,,,,,,,,
,,,,,,,,,,,,,FF,,,,,,,,0.617,,,,,,,,,,,,,,,,,,,,,,61006058511273a01f0ce034,61036d3a87afc8bafef2f821,2021-07-29_22h10.20.961,Simcolourproject_2stim_asymm_v5,2020.2.10,MacIntel,60,61025ae37ef11b136ea224fe,,,,,,,,,1770,37,82,1,0,0,response1disk,,7,5,2,1,0,0,rectangle,5,2,1,0,0,5,2,1,0,0,0,115,115,11,1,,,,,,,,
,,,,,,,,,,,,,FF,,,,,,,,0.8,,,,,,,,,,,,,,,,,,,,,,61006058511273a01f0ce034,61036d3a87afc8bafef2f821,2021-07-29_22h10.20.961,Simcolourproject_2stim_asymm_v5,2020.2.10,MacIntel,60,61025ae37ef11b136ea224fe,,,,,,,,,1391,34,80,1,0,0,response1disk,,7,13,2,1,0,0,rectangle,28,77,1,0,0,3,-3,1,0,0,0,116,116,37,1,,response1disk_3,TRUE,7,7,"[67,108,111,150,117,204,252,162,181,267,231,157,17,104,124,307,276,123,32,294]",1.385,rectangle
,,,,,,,,,,,,,FF,,,,,,,,0.616,,,,,,,,,,,,,,,,,,,,,,61006058511273a01f0ce034,61036d3a87afc8bafef2f821,2021-07-29_22h10.20.961,Simcolourproject_2stim_asymm_v5,2020.2.10,MacIntel,60,61025ae37ef11b136ea224fe,,,,,,,,,2263,41,75,1,0,0,response1disk,,7,8,-2,1,0,0,rectangle,8,-2,1,0,0,8,-2,1,0,0,0,117,117,25,1,,,,,,,,
,,,,,,,,,,,,,FF,,,,,,,,0.516,,,,,,,,,,,,,,,,,,,,,,61006058511273a01f0ce034,61036d3a87afc8bafef2f821,2021-07-29_22h10.20.961,Simcolourproject_2stim_asymm_v5,2020.2.10,MacIntel,60,61025ae37ef11b136ea224fe,,,,,,,,,2064,31,65,1,0,0,response1disk,,7,-4,-11,1,0,0,rectangle,-4,-11,1,0,0,-4,-11,1,0,0,0,118,118,141,1,,,,,,,,
,,,,,,,,,,,,,FF,,,,,,,,0.45,,,,,,,,,,,,,,,,,,,,,,61006058511273a01f0ce034,61036d3a87afc8bafef2f821,2021-07-29_22h10.20.961,Simcolourproject_2stim_asymm_v5,2020.2.10,MacIntel,60,61025ae37ef11b136ea224fe,,,,,,,,,1404,26,55,1,0,0,response1disk,,7,4,4,1,0,0,rectangle,4,4,1,0,0,4,4,1,0,0,0,119,119,58,1,,,,,,,,
,,,,,,,,,,,,,FF,,,,,,,,0.467,,,,,,,,,,,,,,,,,,,,,,61006058511273a01f0ce034,61036d3a87afc8bafef2f821,2021-07-29_22h10.20.961,Simcolourproject_2stim_asymm_v5,2020.2.10,MacIntel,60,61025ae37ef11b136ea224fe,,,,,,,,,3579,36,71,1,0,0,response1disk,,7,9,1,1,0,0,rectangle,9,1,1,0,0,9,1,1,0,0,0,120,120,63,1,,,,,,,,
,,,,,,,,,,,,,FF,,,,,,,,0.499,,,,,,,,,,,,,,,,,,,,,,61006058511273a01f0ce034,61036d3a87afc8bafef2f821,2021-07-29_22h10.20.961,Simcolourproject_2stim_asymm_v5,2020.2.10,MacIntel,60,61025ae37ef11b136ea224fe,,,,,,,,,1742,41,89,1,0,0,response1disk,,7,-2,-13,1,0,0,rectangle,-2,-13,1,0,0,-2,-13,1,0,0,0,121,121,143,1,,,,,,,,
,,,,,,,,,,,,,FF,,,,,,,,0.867,,,,,,,,,,,,,,,,,,,,,,61006058511273a01f0ce034,61036d3a87afc8bafef2f821,2021-07-29_22h10.20.961,Simcolourproject_2stim_asymm_v5,2020.2.10,MacIntel,60,61025ae37ef11b136ea224fe,,,,,,,,,1607,48,-54,1,0,0,response3disk,,4,15,-2,1,0,0,rectangle,-34,73,1,0,0,3,4,1,0,0,0,122,122,3,1,,response7disk_3,TRUE,0,0,"[67,108,111,150,117,204,252,162,181,267,231,157,17,104,124,307,276,123,32,294]",1.352,rectangle
,,,,,,,,,,,,,FF,,,,,,,,0.65,,,,,,,,,,,,,,,,,,,,,,61006058511273a01f0ce034,61036d3a87afc8bafef2f821,2021-07-29_22h10.20.961,Simcolourproject_2stim_asymm_v5,2020.2.10,MacIntel,60,61025ae37ef11b136ea224fe,,,,,,,,,589,42,89,1,0,0,response1disk,,7,17,9,1,0,0,rectangle,80,-47,1,0,0,-4,-2,1,0,0,0,123,123,46,1,,response3disk_3,TRUE,5,5,"[67,108,111,150,117,204,252,162,181,267,231,157,17,104,124,307,276,123,32,294]",2.966,rectangle
,,,,,,,,,,,,,FF,,,,,,,,0.783,,,,,,,,,,,,,,,,,,,,,,61006058511273a01f0ce034,61036d3a87afc8bafef2f821,2021-07-29_22h10.20.961,Simcolourproject_2stim_asymm_v5,2020.2.10,MacIntel,60,61025ae37ef11b136ea224fe,,,,,,,,,1326,42,95,1,0,0,response1disk,,7,13,12,1,0,0,rectangle,13,12,1,0,0,13,12,1,0,0,0,124,124,71,1,,,,,,,,
,,,,,,,,,,,,,FF,,,,,,,,0.667,,,,,,,,,,,,,,,,,,,,,,61006058511273a01f0ce034,61036d3a87afc8bafef2f821,2021-07-29_22h10.20.961,Simcolourproject_2stim_asymm_v5,2020.2.10,MacIntel,60,61025ae37ef11b136ea224fe,,,,,,,,,1220,82,-28,1,0,0,response3disk,,5,2,-2,1,0,0,rectangle,2,-2,1,0,0,2,-2,1,0,0,0,125,125,101,1,,,,,,,,
,,,,,,,,,,,,,FF,,,,,,,,0.984,,,,,,,,,,,,,,,,,,,,,,61006058511273a01f0ce034,61036d3a87afc8bafef2f821,2021-07-29_22h10.20.961,Simcolourproject_2stim_asymm_v5,2020.2.10,MacIntel,60,61025ae37ef11b136ea224fe,,,,,,,,,3785,43,-82,1,0,0,response3disk,,4,15,-2,1,0,0,rectangle,15,-2,1,0,0,15,-2,1,0,0,0,126,126,104,1,,,,,,,,
,,,,,,,,,,,,,FF,,,,,,,,0.683,,,,,,,,,,,,,,,,,,,,,,61006058511273a01f0ce034,61036d3a87afc8bafef2f821,2021-07-29_22h10.20.961,Simcolourproject_2stim_asymm_v5,2020.2.10,MacIntel,60,61025ae37ef11b136ea224fe,,,,,,,,,1170,25,72,1,0,0,response1disk,,7,12,-7,1,0,0,rectangle,12,-7,1,0,0,12,-7,1,0,0,0,127,127,116,1,,,,,,,,
,,,,,,,,,,,,,FF,,,,,,,,0.749,,,,,,,,,,,,,,,,,,,,,,61006058511273a01f0ce034,61036d3a87afc8bafef2f821,2021-07-29_22h10.20.961,Simcolourproject_2stim_asymm_v5,2020.2.10,MacIntel,60,61025ae37ef11b136ea224fe,,,,,,,,,513,40,61,1,0,0,response1disk,,7,9,-3,1,0,0,rectangle,9,-3,1,0,0,9,-3,1,0,0,0,128,128,149,1,,,,,,,,
,,,,,,,,,,,,,FF,,,,,,,,0.918,,,,,,,,,,,,,,,,,,,,,,61006058511273a01f0ce034,61036d3a87afc8bafef2f821,2021-07-29_22h10.20.961,Simcolourproject_2stim_asymm_v5,2020.2.10,MacIntel,60,61025ae37ef11b136ea224fe,,,,,,,,,1299,37,-86,1,0,0,response3disk,,4,11,-1,1,0,0,rectangle,11,-1,1,0,0,11,-1,1,0,0,0,129,129,144,1,,,,,,,,
,,,,,,,,,,,,,FF,,,,,,,,0.616,,,,,,,,,,,,,,,,,,,,,,61006058511273a01f0ce034,61036d3a87afc8bafef2f821,2021-07-29_22h10.20.961,Simcolourproject_2stim_asymm_v5,2020.2.10,MacIntel,60,61025ae37ef11b136ea224fe,,,,,,,,,2974,30,79,1,0,0,response1disk,,7,3,-1,1,0,0,rectangle,3,-1,1,0,0,3,-1,1,0,0,0,130,130,131,1,,,,,,,,
,,,,,,,,,,,,,FF,,,,,,,,0.5,,,,,,,,,,,,,,,,,,,,,,61006058511273a01f0ce034,61036d3a87afc8bafef2f821,2021-07-29_22h10.20.961,Simcolourproject_2stim_asymm_v5,2020.2.10,MacIntel,60,61025ae37ef11b136ea224fe,,,,,,,,,851,29,76,1,0,0,response1disk,,7,19,9,1,0,0,rectangle,19,9,1,0,0,19,9,1,0,0,0,131,131,4,1,,,,,,,,
,,,,,,,,,,,,,FF,,,,,,,,1.051,,,,,,,,,,,,,,,,,,,,,,61006058511273a01f0ce034,61036d3a87afc8bafef2f821,2021-07-29_22h10.20.961,Simcolourproject_2stim_asymm_v5,2020.2.10,MacIntel,60,61025ae37ef11b136ea224fe,,,,,,,,,2985,-18,-75,1,0,0,response5disk,,3,1,4,1,0,0,rectangle,1,4,1,0,0,1,4,1,0,0,0,132,132,62,1,,,,,,,,
,,,,,,,,,,,,,FF,,,,,,,,0.603,,,,,,,,,,,,,,,,,,,,,,61006058511273a01f0ce034,61036d3a87afc8bafef2f821,2021-07-29_22h10.20.961,Simcolourproject_2stim_asymm_v5,2020.2.10,MacIntel,60,61025ae37ef11b136ea224fe,,,,,,,,,406,26,64,1,0,0,response1disk,,7,14,-7,1,0,0,rectangle,14,-7,1,0,0,14,-7,1,0,0,0,133,133,9,1,,,,,,,,
,,,,,,,,,,,,,FF,,,,,,,,0.534,,,,,,,,,,,,,,,,,,,,,,61006058511273a01f0ce034,61036d3a87afc8bafef2f821,2021-07-29_22h10.20.961,Simcolourproject_2stim_asymm_v5,2020.2.10,MacIntel,60,61025ae37ef11b136ea224fe,,,,,,,,,2450,26,84,1,0,0,response1disk,,7,11,5,1,0,0,rectangle,11,5,1,0,0,11,5,1,0,0,0,134,134,50,1,,,,,,,,
,,,,,,,,,,,,,FF,,,,,,,,0.832,,,,,,,,,,,,,,,,,,,,,,61006058511273a01f0ce034,61036d3a87afc8bafef2f821,2021-07-29_22h10.20.961,Simcolourproject_2stim_asymm_v5,2020.2.10,MacIntel,60,61025ae37ef11b136ea224fe,,,,,,,,,3290,-69,27,1,0,0,response7disk,,1,-3,-4,1,0,0,rectangle,-3,-4,1,0,0,-3,-4,1,0,0,0,135,135,123,1,,,,,,,,
,,,,,,,,,,,,,FF,,,,,,,,0.601,,,,,,,,,,,,,,,,,,,,,,61006058511273a01f0ce034,61036d3a87afc8bafef2f821,2021-07-29_22h10.20.961,Simcolourproject_2stim_asymm_v5,2020.2.10,MacIntel,60,61025ae37ef11b136ea224fe,,,,,,,,,3912,33,83,1,0,0,response1disk,,7,-1,-4,1,0,0,rectangle,-1,-4,1,0,0,-1,-4,1,0,0,0,136,136,32,1,,,,,,,,
,,,,,,,,,,,,,FF,,,,,,,,0.584,,,,,,,,,,,,,,,,,,,,,,61006058511273a01f0ce034,61036d3a87afc8bafef2f821,2021-07-29_22h10.20.961,Simcolourproject_2stim_asymm_v5,2020.2.10,MacIntel,60,61025ae37ef11b136ea224fe,,,,,,,,,2931,32,93,1,0,0,response1disk,,7,3,3,1,0,0,rectangle,3,3,1,0,0,3,3,1,0,0,0,137,137,158,1,,,,,,,,
,,,,,,,,,,,,,FF,,,,,,,,0.634,,,,,,,,,,,,,,,,,,,,,,61006058511273a01f0ce034,61036d3a87afc8bafef2f821,2021-07-29_22h10.20.961,Simcolourproject_2stim_asymm_v5,2020.2.10,MacIntel,60,61025ae37ef11b136ea224fe,,,,,,,,,4300,26,57,1,0,0,response1disk,,7,8,2,1,0,0,rectangle,8,2,1,0,0,8,2,1,0,0,0,138,138,121,1,,,,,,,,
,,,,,,,,,,,,,FF,,,,,,,,0.516,,,,,,,,,,,,,,,,,,,,,,61006058511273a01f0ce034,61036d3a87afc8bafef2f821,2021-07-29_22h10.20.961,Simcolourproject_2stim_asymm_v5,2020.2.10,MacIntel,60,61025ae37ef11b136ea224fe,,,,,,,,,3721,41,74,1,0,0,response1disk,,7,12,12,1,0,0,rectangle,12,12,1,0,0,12,12,1,0,0,0,139,139,147,1,,,,,,,,
,,,,,,,,,,,,,FF,,,,,,,,0.75,,,,,,,,,,,,,,,,,,,,,,61006058511273a01f0ce034,61036d3a87afc8bafef2f821,2021-07-29_22h10.20.961,Simcolourproject_2stim_asymm_v5,2020.2.10,MacIntel,60,61025ae37ef11b136ea224fe,,,,,,,,,1826,67,-24,1,0,0,response3disk,,5,5,-13,1,0,0,rectangle,5,-13,1,0,0,5,-13,1,0,0,0,140,140,102,1,,,,,,,,
,,,,,,,,,,,,,FF,,,,,,,,0.633,,,,,,,,,,,,,,,,,,,,,,61006058511273a01f0ce034,61036d3a87afc8bafef2f821,2021-07-29_22h10.20.961,Simcolourproject_2stim_asymm_v5,2020.2.10,MacIntel,60,61025ae37ef11b136ea224fe,,,,,,,,,3802,36,77,1,0,0,response1disk,,7,2,11,1,0,0,rectangle,2,11,1,0,0,2,11,1,0,0,0,141,141,23,1,,,,,,,,
,,,,,,,,,,,,,FF,,,,,,,,0.999,,,,,,,,,,,,,,,,,,,,,,61006058511273a01f0ce034,61036d3a87afc8bafef2f821,2021-07-29_22h10.20.961,Simcolourproject_2stim_asymm_v5,2020.2.10,MacIntel,60,61025ae37ef11b136ea224fe,,,,,,,,,3976,79,40,1,0,0,response1disk,,6,4,-9,1,0,0,rectangle,4,-9,1,0,0,4,-9,1,0,0,0,142,142,52,1,,,,,,,,
,,,,,,,,,,,,,FF,,,,,,,,0.566,,,,,,,,,,,,,,,,,,,,,,61006058511273a01f0ce034,61036d3a87afc8bafef2f821,2021-07-29_22h10.20.961,Simcolourproject_2stim_asymm_v5,2020.2.10,MacIntel,60,61025ae37ef11b136ea224fe,,,,,,,,,1188,44,86,1,0,0,response1disk,,7,7,-6,1,0,0,rectangle,7,-6,1,0,0,7,-6,1,0,0,0,143,143,129,1,,,,,,,,
,,,,,,,,,,,,,FF,,,,,,,,0.867,,,,,,,,,,,,,,,,,,,,,,61006058511273a01f0ce034,61036d3a87afc8bafef2f821,2021-07-29_22h10.20.961,Simcolourproject_2stim_asymm_v5,2020.2.10,MacIntel,60,61025ae37ef11b136ea224fe,,,,,,,,,1061,79,44,1,0,0,response1disk,,6,-6,-13,1,0,0,rectangle,-6,-13,1,0,0,-6,-13,1,0,0,0,144,144,153,1,,,,,,,,
,,,,,,,,,,,,,FF,,,,,,,,0.567,,,,,,,,,,,,,,,,,,,,,,61006058511273a01f0ce034,61036d3a87afc8bafef2f821,2021-07-29_22h10.20.961,Simcolourproject_2stim_asymm_v5,2020.2.10,MacIntel,60,61025ae37ef11b136ea224fe,,,,,,,,,1492,34,76,1,0,0,response1disk,,7,5,7,1,0,0,rectangle,5,7,1,0,0,5,7,1,0,0,0,145,145,92,1,,,,,,,,
,,,,,,,,,,,,,FF,,,,,,,,0.601,,,,,,,,,,,,,,,,,,,,,,61006058511273a01f0ce034,61036d3a87afc8bafef2f821,2021-07-29_22h10.20.961,Simcolourproject_2stim_asymm_v5,2020.2.10,MacIntel,60,61025ae37ef11b136ea224fe,,,,,,,,,68,36,63,1,0,0,response1disk,,7,5,-7,1,0,0,rectangle,5,-7,1,0,0,5,-7,1,0,0,0,146,146,82,1,,,,,,,,
,,,,,,,,,,,,,FF,,,,,,,,0.666,,,,,,,,,,,,,,,,,,,,,,61006058511273a01f0ce034,61036d3a87afc8bafef2f821,2021-07-29_22h10.20.961,Simcolourproject_2stim_asymm_v5,2020.2.10,MacIntel,60,61025ae37ef11b136ea224fe,,,,,,,,,1528,75,-49,1,0,0,response3disk,,5,21,-8,1,0,0,rectangle,21,-8,1,0,0,21,-8,1,0,0,0,147,147,133,1,,,,,,,,
,,,,,,,,,,,,,FF,,,,,,,,0.565,,,,,,,,,,,,,,,,,,,,,,61006058511273a01f0ce034,61036d3a87afc8bafef2f821,2021-07-29_22h10.20.961,Simcolourproject_2stim_asymm_v5,2020.2.10,MacIntel,60,61025ae37ef11b136ea224fe,,,,,,,,,577,27,59,1,0,0,response1disk,,7,-3,-1,1,0,0,rectangle,-3,-1,1,0,0,-3,-1,1,0,0,0,148,148,15,1,,,,,,,,
,,,,,,,,,,,,,FF,,,,,,,,0.567,,,,,,,,,,,,,,,,,,,,,,61006058511273a01f0ce034,61036d3a87afc8bafef2f821,2021-07-29_22h10.20.961,Simcolourproject_2stim_asymm_v5,2020.2.10,MacIntel,60,61025ae37ef11b136ea224fe,,,,,,,,,1045,30,69,1,0,0,response1disk,,7,5,0,1,0,0,rectangle,-42,75,1,0,0,-7,7,1,0,0,0,149,149,47,1,,response7disk_3,TRUE,0,0,"[67,108,111,150,117,204,252,162,181,267,231,157,17,104,124,307,276,123,32,294]",1.233,rectangle
,,,,,,,,,,,,,FF,,,,,,,,0.634,,,,,,,,,,,,,,,,,,,,,,61006058511273a01f0ce034,61036d3a87afc8bafef2f821,2021-07-29_22h10.20.961,Simcolourproject_2stim_asymm_v5,2020.2.10,MacIntel,60,61025ae37ef11b136ea224fe,,,,,,,,,776,39,79,1,0,0,response1disk,,7,-5,-12,1,0,0,rectangle,-5,-12,1,0,0,-5,-12,1,0,0,0,150,150,103,1,,,,,,,,
,,,,,,,,,,,,,FF,,,,,,,,0.75,,,,,,,,,,,,,,,,,,,,,,61006058511273a01f0ce034,61036d3a87afc8bafef2f821,2021-07-29_22h10.20.961,Simcolourproject_2stim_asymm_v5,2020.2.10,MacIntel,60,61025ae37ef11b136ea224fe,,,,,,,,,3344,48,65,1,0,0,response1disk,,7,7,0,1,0,0,rectangle,7,0,1,0,0,7,0,1,0,0,0,151,151,53,1,,,,,,,,
,,,,,,,,,,,,,FF,,,,,,,,0.733,,,,,,,,,,,,,,,,,,,,,,61006058511273a01f0ce034,61036d3a87afc8bafef2f821,2021-07-29_22h10.20.961,Simcolourproject_2stim_asymm_v5,2020.2.10,MacIntel,60,61025ae37ef11b136ea224fe,,,,,,,,,4164,83,-31,1,0,0,response3disk,,5,22,0,1,0,0,rectangle,22,0,1,0,0,22,0,1,0,0,0,152,152,87,1,,,,,,,,
,,,,,,,,,,,,,FF,,,,,,,,0.534,,,,,,,,,,,,,,,,,,,,,,61006058511273a01f0ce034,61036d3a87afc8bafef2f821,2021-07-29_22h10.20.961,Simcolourproject_2stim_asymm_v5,2020.2.10,MacIntel,60,61025ae37ef11b136ea224fe,,,,,,,,,1444,28,67,1,0,0,response1disk,,7,17,3,1,0,0,rectangle,17,3,1,0,0,17,3,1,0,0,0,153,153,134,1,,,,,,,,
,,,,,,,,,,,,,FF,,,,,,,,0.767,,,,,,,,,,,,,,,,,,,,,,61006058511273a01f0ce034,61036d3a87afc8bafef2f821,2021-07-29_22h10.20.961,Simcolourproject_2stim_asymm_v5,2020.2.10,MacIntel,60,61025ae37ef11b136ea224fe,,,,,,,,,1432,37,75,1,0,0,response1disk,,7,3,4,1,0,0,rectangle,3,4,1,0,0,3,4,1,0,0,0,154,154,90,1,,,,,,,,
,,,,,,,,,,,,,FF,,,,,,,,0.717,,,,,,,,,,,,,,,,,,,,,,61006058511273a01f0ce034,61036d3a87afc8bafef2f821,2021-07-29_22h10.20.961,Simcolourproject_2stim_asymm_v5,2020.2.10,MacIntel,60,61025ae37ef11b136ea224fe,,,,,,,,,1464,93,-41,1,0,0,response3disk,,5,4,10,1,0,0,rectangle,4,10,1,0,0,4,10,1,0,0,0,155,155,152,1,,,,,,,,
,,,,,,,,,,,,,FF,,,,,,,,0.618,,,,,,,,,,,,,,,,,,,,,,61006058511273a01f0ce034,61036d3a87afc8bafef2f821,2021-07-29_22h10.20.961,Simcolourproject_2stim_asymm_v5,2020.2.10,MacIntel,60,61025ae37ef11b136ea224fe,,,,,,,,,565,33,85,1,0,0,response1disk,,7,5,11,1,0,0,rectangle,-42,80,1,0,0,7,-1,1,0,0,0,156,156,33,1,,response7disk_3,TRUE,0,0,"[67,108,111,150,117,204,252,162,181,267,231,157,17,104,124,307,276,123,32,294]",1.283,rectangle
,,,,,,,,,,,,,FF,,,,,,,,0.649,,,,,,,,,,,,,,,,,,,,,,61006058511273a01f0ce034,61036d3a87afc8bafef2f821,2021-07-29_22h10.20.961,Simcolourproject_2stim_asymm_v5,2020.2.10,MacIntel,60,61025ae37ef11b136ea224fe,,,,,,,,,2687,37,69,1,0,0,response1disk,,7,9,2,1,0,0,rectangle,9,2,1,0,0,9,2,1,0,0,0,157,157,89,1,,,,,,,,
,,,,,,,,,,,,,FF,,,,,,,,0.484,,,,,,,,,,,,,,,,,,,,,,61006058511273a01f0ce034,61036d3a87afc8bafef2f821,2021-07-29_22h10.20.961,Simcolourproject_2stim_asymm_v5,2020.2.10,MacIntel,60,61025ae37ef11b136ea224fe,,,,,,,,,1699,26,55,1,0,0,response1disk,,7,12,-6,1,0,0,rectangle,12,-6,1,0,0,12,-6,1,0,0,0,158,158,56,1,,,,,,,,
,,,,,,,,,,,,,FF,,,,,,,,0.768,,,,,,,,,,,,,,,,,,,,,,61006058511273a01f0ce034,61036d3a87afc8bafef2f821,2021-07-29_22h10.20.961,Simcolourproject_2stim_asymm_v5,2020.2.10,MacIntel,60,61025ae37ef11b136ea224fe,,,,,,,,,723,85,-36,1,0,0,response3disk,,5,5,-7,1,0,0,rectangle,5,-7,1,0,0,5,-7,1,0,0,0,159,159,22,1,,,,,,,,
,,,,,,,,,,,,,FF,,,,,,,,0.565,,,,,,,,,,,,,,,,,,,,,,61006058511273a01f0ce034,61036d3a87afc8bafef2f821,2021-07-29_22h10.20.961,Simcolourproject_2stim_asymm_v5,2020.2.10,MacIntel,60,61025ae37ef11b136ea224fe,,,,,,,,,924,37,84,1,0,0,response1disk,,7,6,8,1,0,0,rectangle,6,8,1,0,0,6,8,1,0,0,1,0,160,1,1,,,,,,,,
,,,,,,,,,,,,,FF,,,,,,,,0.55,,,,,,,,,,,,,,,,,,,,,,61006058511273a01f0ce034,61036d3a87afc8bafef2f821,2021-07-29_22h10.20.961,Simcolourproject_2stim_asymm_v5,2020.2.10,MacIntel,60,61025ae37ef11b136ea224fe,,,,,,,,,3990,39,72,1,0,0,response1disk,,7,8,6,1,0,0,rectangle,-37,-79,1,0,0,2,-3,1,0,0,1,1,161,97,1,,response5disk_3,TRUE,3,3,"[67,108,111,150,117,204,252,162,181,267,231,157,17,104,124,307,276,123,32,294]",1.933,rectangle
,,,,,,,,,,,,,FF,,,,,,,,0.799,,,,,,,,,,,,,,,,,,,,,,61006058511273a01f0ce034,61036d3a87afc8bafef2f821,2021-07-29_22h10.20.961,Simcolourproject_2stim_asymm_v5,2020.2.10,MacIntel,60,61025ae37ef11b136ea224fe,,,,,,,,,2369,47,77,1,0,0,response1disk,,7,12,13,1,0,0,rectangle,12,13,1,0,0,12,13,1,0,0,1,2,162,107,1,,,,,,,,
,,,,,,,,,,,,,FF,,,,,,,,0.684,,,,,,,,,,,,,,,,,,,,,,61006058511273a01f0ce034,61036d3a87afc8bafef2f821,2021-07-29_22h10.20.961,Simcolourproject_2stim_asymm_v5,2020.2.10,MacIntel,60,61025ae37ef11b136ea224fe,,,,,,,,,1976,36,66,1,0,0,response1disk,,7,-13,-11,1,0,0,rectangle,-13,-11,1,0,0,-13,-11,1,0,0,1,3,163,21,1,,,,,,,,
,,,,,,,,,,,,,FF,,,,,,,,0.666,,,,,,,,,,,,,,,,,,,,,,61006058511273a01f0ce034,61036d3a87afc8bafef2f821,2021-07-29_22h10.20.961,Simcolourproject_2stim_asymm_v5,2020.2.10,MacIntel,60,61025ae37ef11b136ea224fe,,,,,,,,,2793,37,75,1,0,0,response1disk,,7,-3,-7,1,0,0,rectangle,-3,-7,1,0,0,-3,-7,1,0,0,1,4,164,74,1,,,,,,,,
,,,,,,,,,,,,,FF,,,,,,,,0.851,,,,,,,,,,,,,,,,,,,,,,61006058511273a01f0ce034,61036d3a87afc8bafef2f821,2021-07-29_22h10.20.961,Simcolourproject_2stim_asymm_v5,2020.2.10,MacIntel,60,61025ae37ef11b136ea224fe,,,,,,,,,3481,36,71,1,0,0,response1disk,,7,11,-5,1,0,0,rectangle,11,-5,1,0,0,11,-5,1,0,0,1,5,165,45,1,,,,,,,,
,,,,,,,,,,,,,FF,,,,,,,,0.552,,,,,,,,,,,,,,,,,,,,,,61006058511273a01f0ce034,61036d3a87afc8bafef2f821,2021-07-29_22h10.20.961,Simcolourproject_2stim_asymm_v5,2020.2.10,MacIntel,60,61025ae37ef11b136ea224fe,,,,,,,,,2068,40,90,1,0,0,response1disk,,7,8,4,1,0,0,rectangle,8,4,1,0,0,8,4,1,0,0,1,6,166,147,1,,,,,,,,
,,,,,,,,,,,,,FF,,,,,,,,0.717,,,,,,,,,,,,,,,,,,,,,,61006058511273a01f0ce034,61036d3a87afc8bafef2f821,2021-07-29_22h10.20.961,Simcolourproject_2stim_asymm_v5,2020.2.10,MacIntel,60,61025ae37ef11b136ea224fe,,,,,,,,,2019,34,68,1,0,0,response1disk,,7,7,2,1,0,0,rectangle,7,2,1,0,0,7,2,1,0,0,1,7,167,93,1,,,,,,,,
,,,,,,,,,,,,,FF,,,,,,,,0.516,,,,,,,,,,,,,,,,,,,,,,61006058511273a01f0ce034,61036d3a87afc8bafef2f821,2021-07-29_22h10.20.961,Simcolourproject_2stim_asymm_v5,2020.2.10,MacIntel,60,61025ae37ef11b136ea224fe,,,,,,,,,2693,37,69,1,0,0,response1disk,,7,10,2,1,0,0,rectangle,10,2,1,0,0,10,2,1,0,0,1,8,168,63,1,,,,,,,,
,,,,,,,,,,,,,FF,,,,,,,,0.55,,,,,,,,,,,,,,,,,,,,,,61006058511273a01f0ce034,61036d3a87afc8bafef2f821,2021-07-29_22h10.20.961,Simcolourproject_2stim_asymm_v5,2020.2.10,MacIntel,60,61025ae37ef11b136ea224fe,,,,,,,,,2382,36,82,1,0,0,response1disk,,7,6,-7,1,0,0,rectangle,6,-7,1,0,0,6,-7,1,0,0,1,9,169,73,1,,,,,,,,
,,,,,,,,,,,,,FF,,,,,,,,0.967,,,,,,,,,,,,,,,,,,,,,,61006058511273a01f0ce034,61036d3a87afc8bafef2f821,2021-07-29_22h10.20.961,Simcolourproject_2stim_asymm_v5,2020.2.10,MacIntel,60,61025ae37ef11b136ea224fe,,,,,,,,,208,35,77,1,0,0,response1disk,,7,4,7,1,0,0,rectangle,4,7,1,0,0,4,7,1,0,0,1,10,170,116,1,,,,,,,,
,,,,,,,,,,,,,FF,,,,,,,,0.567,,,,,,,,,,,,,,,,,,,,,,61006058511273a01f0ce034,61036d3a87afc8bafef2f821,2021-07-29_22h10.20.961,Simcolourproject_2stim_asymm_v5,2020.2.10,MacIntel,60,61025ae37ef11b136ea224fe,,,,,,,,,2464,26,56,1,0,0,response1disk,,7,9,4,1,0,0,rectangle,9,4,1,0,0,9,4,1,0,0,1,11,171,53,1,,,,,,,,
,,,,,,,,,,,,,FF,,,,,,,,0.668,,,,,,,,,,,,,,,,,,,,,,61006058511273a01f0ce034,61036d3a87afc8bafef2f821,2021-07-29_22h10.20.961,Simcolourproject_2stim_asymm_v5,2020.2.10,MacIntel,60,61025ae37ef11b136ea224fe,,,,,,,,,4025,32,56,1,0,0,response1disk,,7,3,-9,1,0,0,rectangle,3,-9,1,0,0,3,-9,1,0,0,1,12,172,14,1,,,,,,,,
,,,,,,,,,,,,,FF,,,,,,,,0.884,,,,,,,,,,,,,,,,,,,,,,61006058511273a01f0ce034,61036d3a87afc8bafef2f821,2021-07-29_22h10.20.961,Simcolourproject_2stim_asymm_v5,2020.2.10,MacIntel,60,61025ae37ef11b136ea224fe,,,,,,,,,3037,-59,-32,1,0,0,response5disk,,2,7,-1,1,0,0,rectangle,7,-1,1,0,0,7,-1,1,0,0,1,13,173,5,1,,,,,,,,
,,,,,,,,,,,,,FF,,,,,,,,0.633,,,,,,,,,,,,,,,,,,,,,,61006058511273a01f0ce034,61036d3a87afc8bafef2f821,2021-07-29_22h10.20.961,Simcolourproject_2stim_asymm_v5,2020.2.10,MacIntel,60,61025ae37ef11b136ea224fe,,,,,,,,,1653,41,76,1,0,0,response1disk,,7,7,-2,1,0,0,rectangle,7,-2,1,0,0,7,-2,1,0,0,1,14,174,146,1,,,,,,,,
,,,,,,,,,,,,,FF,,,,,,,,0.917,,,,,,,,,,,,,,,,,,,,,,61006058511273a01f0ce034,61036d3a87afc8bafef2f821,2021-07-29_22h10.20.961,Simcolourproject_2stim_asymm_v5,2020.2.10,MacIntel,60,61025ae37ef11b136ea224fe,,,,,,,,,716,-39,80,1,0,0,response7disk,,0,-1,13,1,0,0,rectangle,-1,13,1,0,0,-1,13,1,0,0,1,15,175,26,1,,,,,,,,
,,,,,,,,,,,,,FF,,,,,,,,1,,,,,,,,,,,,,,,,,,,,,,61006058511273a01f0ce034,61036d3a87afc8bafef2f821,2021-07-29_22h10.20.961,Simcolourproject_2stim_asymm_v5,2020.2.10,MacIntel,60,61025ae37ef11b136ea224fe,,,,,,,,,440,-76,-44,1,0,0,response5disk,,2,-15,-13,1,0,0,rectangle,-15,-13,1,0,0,-15,-13,1,0,0,1,16,176,70,1,,,,,,,,
,,,,,,,,,,,,,FF,,,,,,,,0.617,,,,,,,,,,,,,,,,,,,,,,61006058511273a01f0ce034,61036d3a87afc8bafef2f821,2021-07-29_22h10.20.961,Simcolourproject_2stim_asymm_v5,2020.2.10,MacIntel,60,61025ae37ef11b136ea224fe,,,,,,,,,521,22,67,1,0,0,response1disk,,7,14,0,1,0,0,rectangle,14,0,1,0,0,14,0,1,0,0,1,17,177,48,1,,,,,,,,
,,,,,,,,,,,,,FF,,,,,,,,0.55,,,,,,,,,,,,,,,,,,,,,,61006058511273a01f0ce034,61036d3a87afc8bafef2f821,2021-07-29_22h10.20.961,Simcolourproject_2stim_asymm_v5,2020.2.10,MacIntel,60,61025ae37ef11b136ea224fe,,,,,,,,,3310,34,81,1,0,0,response1disk,,7,25,7,1,0,0,rectangle,25,7,1,0,0,25,7,1,0,0,1,18,178,0,1,,,,,,,,
,,,,,,,,,,,,,FF,,,,,,,,1.35,,,,,,,,,,,,,,,,,,,,,,61006058511273a01f0ce034,61036d3a87afc8bafef2f821,2021-07-29_22h10.20.961,Simcolourproject_2stim_asymm_v5,2020.2.10,MacIntel,60,61025ae37ef11b136ea224fe,,,,,,,,,4222,51,-86,1,0,0,response3disk,,4,16,8,1,0,0,rectangle,16,8,1,0,0,16,8,1,0,0,1,19,179,3,1,,,,,,,,
,,,,,,,,,,,,,FF,,,,,,,,0.532,,,,,,,,,,,,,,,,,,,,,,61006058511273a01f0ce034,61036d3a87afc8bafef2f821,2021-07-29_22h10.20.961,Simcolourproject_2stim_asymm_v5,2020.2.10,MacIntel,60,61025ae37ef11b136ea224fe,,,,,,,,,1339,40,68,1,0,0,response1disk,,7,17,6,1,0,0,rectangle,84,-46,1,0,0,16,-3,1,0,0,1,20,180,88,1,,response3disk_3,TRUE,5,5,"[67,108,111,150,117,204,252,162,181,267,231,157,17,104,124,307,276,123,32,294]",2.185,rectangle
,,,,,,,,,,,,,FF,,,,,,,,1.034,,,,,,,,,,,,,,,,,,,,,,61006058511273a01f0ce034,61036d3a87afc8bafef2f821,2021-07-29_22h10.20.961,Simcolourproject_2stim_asymm_v5,2020.2.10,MacIntel,60,61025ae37ef11b136ea224fe,,,,,,,,,555,46,-88,1,0,0,response3disk,,4,1,5,1,0,0,rectangle,1,5,1,0,0,1,5,1,0,0,1,21,181,100,1,,,,,,,,
,,,,,,,,,,,,,FF,,,,,,,,0.518,,,,,,,,,,,,,,,,,,,,,,61006058511273a01f0ce034,61036d3a87afc8bafef2f821,2021-07-29_22h10.20.961,Simcolourproject_2stim_asymm_v5,2020.2.10,MacIntel,60,61025ae37ef11b136ea224fe,,,,,,,,,3731,25,78,1,0,0,response1disk,,7,5,-7,1,0,0,rectangle,5,-7,1,0,0,5,-7,1,0,0,1,22,182,12,1,,,,,,,,
,,,,,,,,,,,,,FF,,,,,,,,0.816,,,,,,,,,,,,,,,,,,,,,,61006058511273a01f0ce034,61036d3a87afc8bafef2f821,2021-07-29_22h10.20.961,Simcolourproject_2stim_asymm_v5,2020.2.10,MacIntel,60,61025ae37ef11b136ea224fe,,,,,,,,,2359,35,-78,1,0,0,response3disk,,4,19,0,1,0,0,rectangle,19,0,1,0,0,19,0,1,0,0,1,23,183,151,1,,,,,,,,
,,,,,,,,,,,,,FF,,,,,,,,0.567,,,,,,,,,,,,,,,,,,,,,,61006058511273a01f0ce034,61036d3a87afc8bafef2f821,2021-07-29_22h10.20.961,Simcolourproject_2stim_asymm_v5,2020.2.10,MacIntel,60,61025ae37ef11b136ea224fe,,,,,,,,,2071,25,55,1,0,0,response1disk,,7,6,0,1,0,0,rectangle,6,0,1,0,0,6,0,1,0,0,1,24,184,91,1,,,,,,,,
,,,,,,,,,,,,,FF,,,,,,,,0.484,,,,,,,,,,,,,,,,,,,,,,61006058511273a01f0ce034,61036d3a87afc8bafef2f821,2021-07-29_22h10.20.961,Simcolourproject_2stim_asymm_v5,2020.2.10,MacIntel,60,61025ae37ef11b136ea224fe,,,,,,,,,2500,29,72,1,0,0,response1disk,,7,9,11,1,0,0,rectangle,9,11,1,0,0,9,11,1,0,0,1,25,185,122,1,,,,,,,,
,,,,,,,,,,,,,FF,,,,,,,,0.734,,,,,,,,,,,,,,,,,,,,,,61006058511273a01f0ce034,61036d3a87afc8bafef2f821,2021-07-29_22h10.20.961,Simcolourproject_2stim_asymm_v5,2020.2.10,MacIntel,60,61025ae37ef11b136ea224fe,,,,,,,,,635,37,-72,1,0,0,response3disk,,4,10,-8,1,0,0,rectangle,10,-8,1,0,0,10,-8,1,0,0,1,26,186,99,1,,,,,,,,
,,,,,,,,,,,,,FF,,,,,,,,0.5,,,,,,,,,,,,,,,,,,,,,,61006058511273a01f0ce034,61036d3a87afc8bafef2f821,2021-07-29_22h10.20.961,Simcolourproject_2stim_asymm_v5,2020.2.10,MacIntel,60,61025ae37ef11b136ea224fe,,,,,,,,,3759,22,81,1,0,0,response1disk,,7,18,-9,1,0,0,rectangle,18,-9,1,0,0,18,-9,1,0,0,1,27,187,30,1,,,,,,,,
,,,,,,,,,,,,,FF,,,,,,,,1.25,,,,,,,,,,,,,,,,,,,,,,61006058511273a01f0ce034,61036d3a87afc8bafef2f821,2021-07-29_22h10.20.961,Simcolourproject_2stim_asymm_v5,2020.2.10,MacIntel,60,61025ae37ef11b136ea224fe,,,,,,,,,4358,88,-49,1,0,0,response3disk,,5,15,-2,1,0,0,rectangle,15,-2,1,0,0,15,-2,1,0,0,1,28,188,28,1,,,,,,,,
,,,,,,,,,,,,,FF,,,,,,,,1.001,,,,,,,,,,,,,,,,,,,,,,61006058511273a01f0ce034,61036d3a87afc8bafef2f821,2021-07-29_22h10.20.961,Simcolourproject_2stim_asymm_v5,2020.2.10,MacIntel,60,61025ae37ef11b136ea224fe,,,,,,,,,2725,74,-45,1,0,0,response3disk,,5,10,0,1,0,0,rectangle,10,0,1,0,0,10,0,1,0,0,1,29,189,123,1,,,,,,,,
,,,,,,,,,,,,,FF,,,,,,,,0.566,,,,,,,,,,,,,,,,,,,,,,61006058511273a01f0ce034,61036d3a87afc8bafef2f821,2021-07-29_22h10.20.961,Simcolourproject_2stim_asymm_v5,2020.2.10,MacIntel,60,61025ae37ef11b136ea224fe,,,,,,,,,2532,42,78,1,0,0,response1disk,,7,8,3,1,0,0,rectangle,8,3,1,0,0,8,3,1,0,0,1,30,190,29,1,,,,,,,,
,,,,,,,,,,,,,FF,,,,,,,,0.466,,,,,,,,,,,,,,,,,,,,,,61006058511273a01f0ce034,61036d3a87afc8bafef2f821,2021-07-29_22h10.20.961,Simcolourproject_2stim_asymm_v5,2020.2.10,MacIntel,60,61025ae37ef11b136ea224fe,,,,,,,,,1945,37,70,1,0,0,response1disk,,7,12,-4,1,0,0,rectangle,12,-4,1,0,0,12,-4,1,0,0,1,31,191,49,1,,,,,,,,
,,,,,,,,,,,,,FF,,,,,,,,0.799,,,,,,,,,,,,,,,,,,,,,,61006058511273a01f0ce034,61036d3a87afc8bafef2f821,2021-07-29_22h10.20.961,Simcolourproject_2stim_asymm_v5,2020.2.10,MacIntel,60,61025ae37ef11b136ea224fe,,,,,,,,,3560,-30,-76,1,0,0,response5disk,,3,-13,-16,1,0,0,rectangle,-13,-16,1,0,0,-13,-16,1,0,0,1,32,192,135,1,,,,,,,,
,,,,,,,,,,,,,FF,,,,,,,,0.501,,,,,,,,,,,,,,,,,,,,,,61006058511273a01f0ce034,61036d3a87afc8bafef2f821,2021-07-29_22h10.20.961,Simcolourproject_2stim_asymm_v5,2020.2.10,MacIntel,60,61025ae37ef11b136ea224fe,,,,,,,,,4314,21,67,1,0,0,response1disk,,7,6,-7,1,0,0,rectangle,6,-7,1,0,0,6,-7,1,0,0,1,33,193,60,1,,,,,,,,
,,,,,,,,,,,,,FF,,,,,,,,0.535,,,,,,,,,,,,,,,,,,,,,,61006058511273a01f0ce034,61036d3a87afc8bafef2f821,2021-07-29_22h10.20.961,Simcolourproject_2stim_asymm_v5,2020.2.10,MacIntel,60,61025ae37ef11b136ea224fe,,,,,,,,,782,51,65,1,0,0,response1disk,,7,13,2,1,0,0,rectangle,13,2,1,0,0,13,2,1,0,0,1,34,194,59,1,,,,,,,,
,,,,,,,,,,,,,FF,,,,,,,,0.482,,,,,,,,,,,,,,,,,,,,,,61006058511273a01f0ce034,61036d3a87afc8bafef2f821,2021-07-29_22h10.20.961,Simcolourproject_2stim_asymm_v5,2020.2.10,MacIntel,60,61025ae37ef11b136ea224fe,,,,,,,,,3984,42,92,1,0,0,response1disk,,7,5,-7,1,0,0,rectangle,5,-7,1,0,0,5,-7,1,0,0,1,35,195,55,1,,,,,,,,
,,,,,,,,,,,,,FF,,,,,,,,0.651,,,,,,,,,,,,,,,,,,,,,,61006058511273a01f0ce034,61036d3a87afc8bafef2f821,2021-07-29_22h10.20.961,Simcolourproject_2stim_asymm_v5,2020.2.10,MacIntel,60,61025ae37ef11b136ea224fe,,,,,,,,,4103,74,-33,1,0,0,response3disk,,5,-5,3,1,0,0,rectangle,-5,3,1,0,0,-5,3,1,0,0,1,36,196,83,1,,,,,,,,
,,,,,,,,,,,,,FF,,,,,,,,0.683,,,,,,,,,,,,,,,,,,,,,,61006058511273a01f0ce034,61036d3a87afc8bafef2f821,2021-07-29_22h10.20.961,Simcolourproject_2stim_asymm_v5,2020.2.10,MacIntel,60,61025ae37ef11b136ea224fe,,,,,,,,,1965,-68,-24,1,0,0,response5disk,,2,10,5,1,0,0,rectangle,10,5,1,0,0,10,5,1,0,0,1,37,197,108,1,,,,,,,,
,,,,,,,,,,,,,FF,,,,,,,,0.916,,,,,,,,,,,,,,,,,,,,,,61006058511273a01f0ce034,61036d3a87afc8bafef2f821,2021-07-29_22h10.20.961,Simcolourproject_2stim_asymm_v5,2020.2.10,MacIntel,60,61025ae37ef11b136ea224fe,,,,,,,,,356,-37,-87,1,0,0,response5disk,,3,-8,1,1,0,0,rectangle,-8,1,1,0,0,-8,1,1,0,0,1,38,198,132,1,,,,,,,,
,,,,,,,,,,,,,FF,,,,,,,,1.335,,,,,,,,,,,,,,,,,,,,,,61006058511273a01f0ce034,61036d3a87afc8bafef2f821,2021-07-29_22h10.20.961,Simcolourproject_2stim_asymm_v5,2020.2.10,MacIntel,60,61025ae37ef11b136ea224fe,,,,,,,,,2714,67,34,1,0,0,response1disk,,6,4,0,1,0,0,rectangle,4,0,1,0,0,4,0,1,0,0,1,39,199,25,1,,,,,,,,
,,,,,,,,,,,,,FF,,,,,,,,0.8,,,,,,,,,,,,,,,,,,,,,,61006058511273a01f0ce034,61036d3a87afc8bafef2f821,2021-07-29_22h10.20.961,Simcolourproject_2stim_asymm_v5,2020.2.10,MacIntel,60,61025ae37ef11b136ea224fe,,,,,,,,,2988,77,-17,1,0,0,response3disk,,5,-3,-4,1,0,0,rectangle,-3,-4,1,0,0,-3,-4,1,0,0,1,40,200,142,1,,,,,,,,
,,,,,,,,,,,,,FF,,,,,,,,0.583,,,,,,,,,,,,,,,,,,,,,,61006058511273a01f0ce034,61036d3a87afc8bafef2f821,2021-07-29_22h10.20.961,Simcolourproject_2stim_asymm_v5,2020.2.10,MacIntel,60,61025ae37ef11b136ea224fe,,,,,,,,,4263,39,77,1,0,0,response1disk,,7,7,-2,1,0,0,rectangle,7,-2,1,0,0,7,-2,1,0,0,1,41,201,94,1,,,,,,,,
,,,,,,,,,,,,,FF,,,,,,,,0.584,,,,,,,,,,,,,,,,,,,,,,61006058511273a01f0ce034,61036d3a87afc8bafef2f821,2021-07-29_22h10.20.961,Simcolourproject_2stim_asymm_v5,2020.2.10,MacIntel,60,61025ae37ef11b136ea224fe,,,,,,,,,1403,27,76,1,0,0,response1disk,,7,0,6,1,0,0,rectangle,0,6,1,0,0,0,6,1,0,0,1,42,202,144,1,,,,,,,,
,,,,,,,,,,,,,FF,,,,,,,,0.601,,,,,,,,,,,,,,,,,,,,,,61006058511273a01f0ce034,61036d3a87afc8bafef2f821,2021-07-29_22h10.20.961,Simcolourproject_2stim_asymm_v5,2020.2.10,MacIntel,60,61025ae37ef11b136ea224fe,,,,,,,,,2222,29,55,1,0,0,response1disk,,7,7,-15,1,0,0,rectangle,27,77,1,0,0,5,-3,1,0,0,1,43,203,124,1,,response1disk_3,TRUE,7,7,"[67,108,111,150,117,204,252,162,181,267,231,157,17,104,124,307,276,123,32,294]",1.333,rectangle
,,,,,,,,,,,,,FF,,,,,,,,0.685,,,,,,,,,,,,,,,,,,,,,,61006058511273a01f0ce034,61036d3a87afc8bafef2f821,2021-07-29_22h10.20.961,Simcolourproject_2stim_asymm_v5,2020.2.10,MacIntel,60,61025ae37ef11b136ea224fe,,,,,,,,,2930,30,80,1,0,0,response1disk,,7,20,10,1,0,0,rectangle,20,10,1,0,0,20,10,1,0,0,1,44,204,50,1,,,,,,,,
,,,,,,,,,,,,,FF,,,,,,,,0.751,,,,,,,,,,,,,,,,,,,,,,61006058511273a01f0ce034,61036d3a87afc8bafef2f821,2021-07-29_22h10.20.961,Simcolourproject_2stim_asymm_v5,2020.2.10,MacIntel,60,61025ae37ef11b136ea224fe,,,,,,,,,2664,83,-45,1,0,0,response3disk,,5,20,-10,1,0,0,rectangle,20,-10,1,0,0,20,-10,1,0,0,1,45,205,129,1,,,,,,,,
,,,,,,,,,,,,,FF,,,,,,,,0.916,,,,,,,,,,,,,,,,,,,,,,61006058511273a01f0ce034,61036d3a87afc8bafef2f821,2021-07-29_22h10.20.961,Simcolourproject_2stim_asymm_v5,2020.2.10,MacIntel,60,61025ae37ef11b136ea224fe,,,,,,,,,3463,-32,-68,1,0,0,response5disk,,3,-11,-1,1,0,0,rectangle,-11,-1,1,0,0,-11,-1,1,0,0,1,46,206,9,1,,,,,,,,
,,,,,,,,,,,,,FF,,,,,,,,0.582,,,,,,,,,,,,,,,,,,,,,,61006058511273a01f0ce034,61036d3a87afc8bafef2f821,2021-07-29_22h10.20.961,Simcolourproject_2stim_asymm_v5,2020.2.10,MacIntel,60,61025ae37ef11b136ea224fe,,,,,,,,,271,32,70,1,0,0,response1disk,,7,15,10,1,0,0,rectangle,15,10,1,0,0,15,10,1,0,0,1,47,207,2,1,,,,,,,,
,,,,,,,,,,,,,FF,,,,,,,,0.916,,,,,,,,,,,,,,,,,,,,,,61006058511273a01f0ce034,61036d3a87afc8bafef2f821,2021-07-29_22h10.20.961,Simcolourproject_2stim_asymm_v5,2020.2.10,MacIntel,60,61025ae37ef11b136ea224fe,,,,,,,,,4150,87,-43,1,0,0,response3disk,,5,9,9,1,0,0,rectangle,9,9,1,0,0,9,9,1,0,0,1,48,208,155,1,,,,,,,,
,,,,,,,,,,,,,FF,,,,,,,,0.701,,,,,,,,,,,,,,,,,,,,,,61006058511273a01f0ce034,61036d3a87afc8bafef2f821,2021-07-29_22h10.20.961,Simcolourproject_2stim_asymm_v5,2020.2.10,MacIntel,60,61025ae37ef11b136ea224fe,,,,,,,,,3588,103,-66,1,0,0,response3disk,,5,6,14,1,0,0,rectangle,6,14,1,0,0,6,14,1,0,0,1,49,209,117,1,,,,,,,,
,,,,,,,,,,,,,FF,,,,,,,,0.45,,,,,,,,,,,,,,,,,,,,,,61006058511273a01f0ce034,61036d3a87afc8bafef2f821,2021-07-29_22h10.20.961,Simcolourproject_2stim_asymm_v5,2020.2.10,MacIntel,60,61025ae37ef11b136ea224fe,,,,,,,,,4179,25,70,1,0,0,response1disk,,7,3,-10,1,0,0,rectangle,3,-10,1,0,0,3,-10,1,0,0,1,50,210,80,1,,,,,,,,
,,,,,,,,,,,,,FF,,,,,,,,0.599,,,,,,,,,,,,,,,,,,,,,,61006058511273a01f0ce034,61036d3a87afc8bafef2f821,2021-07-29_22h10.20.961,Simcolourproject_2stim_asymm_v5,2020.2.10,MacIntel,60,61025ae37ef11b136ea224fe,,,,,,,,,854,34,73,1,0,0,response1disk,,7,10,5,1,0,0,rectangle,10,5,1,0,0,10,5,1,0,0,1,51,211,133,1,,,,,,,,
,,,,,,,,,,,,,FF,,,,,,,,0.467,,,,,,,,,,,,,,,,,,,,,,61006058511273a01f0ce034,61036d3a87afc8bafef2f821,2021-07-29_22h10.20.961,Simcolourproject_2stim_asymm_v5,2020.2.10,MacIntel,60,61025ae37ef11b136ea224fe,,,,,,,,,127,34,76,1,0,0,response1disk,,7,9,3,1,0,0,rectangle,9,3,1,0,0,9,3,1,0,0,1,52,212,10,1,,,,,,,,
,,,,,,,,,,,,,FF,,,,,,,,0.9,,,,,,,,,,,,,,,,,,,,,,61006058511273a01f0ce034,61036d3a87afc8bafef2f821,2021-07-29_22h10.20.961,Simcolourproject_2stim_asymm_v5,2020.2.10,MacIntel,60,61025ae37ef11b136ea224fe,,,,,,,,,3431,87,36,1,0,0,response1disk,,6,5,3,1,0,0,rectangle,5,3,1,0,0,5,3,1,0,0,1,53,213,128,1,,,,,,,,
,,,,,,,,,,,,,FF,,,,,,,,0.484,,,,,,,,,,,,,,,,,,,,,,61006058511273a01f0ce034,61036d3a87afc8bafef2f821,2021-07-29_22h10.20.961,Simcolourproject_2stim_asymm_v5,2020.2.10,MacIntel,60,61025ae37ef11b136ea224fe,,,,,,,,,245,26,84,1,0,0,response1disk,,7,10,-8,1,0,0,rectangle,10,-8,1,0,0,10,-8,1,0,0,1,54,214,110,1,,,,,,,,
,,,,,,,,,,,,,FF,,,,,,,,0.801,,,,,,,,,,,,,,,,,,,,,,61006058511273a01f0ce034,61036d3a87afc8bafef2f821,2021-07-29_22h10.20.961,Simcolourproject_2stim_asymm_v5,2020.2.10,MacIntel,60,61025ae37ef11b136ea224fe,,,,,,,,,510,31,70,1,0,0,response1disk,,7,23,15,1,0,0,rectangle,23,15,1,0,0,23,15,1,0,0,1,55,215,16,1,,,,,,,,
,,,,,,,,,,,,,FF,,,,,,,,0.634,,,,,,,,,,,,,,,,,,,,,,61006058511273a01f0ce034,61036d3a87afc8bafef2f821,2021-07-29_22h10.20.961,Simcolourproject_2stim_asymm_v5,2020.2.10,MacIntel,60,61025ae37ef11b136ea224fe,,,,,,,,,1476,30,72,1,0,0,response1disk,,7,4,-2,1,0,0,rectangle,4,-2,1,0,0,4,-2,1,0,0,1,56,216,134,1,,,,,,,,
,,,,,,,,,,,,,FF,,,,,,,,0.517,,,,,,,,,,,,,,,,,,,,,,61006058511273a01f0ce034,61036d3a87afc8bafef2f821,2021-07-29_22h10.20.961,Simcolourproject_2stim_asymm_v5,2020.2.10,MacIntel,60,61025ae37ef11b136ea224fe,,,,,,,,,329,21,71,1,0,0,response1disk,,7,-1,-11,1,0,0,rectangle,-1,-11,1,0,0,-1,-11,1,0,0,1,57,217,66,1,,,,,,,,
,,,,,,,,,,,,,FF,,,,,,,,0.499,,,,,,,,,,,,,,,,,,,,,,61006058511273a01f0ce034,61036d3a87afc8bafef2f821,2021-07-29_22h10.20.961,Simcolourproject_2stim_asymm_v5,2020.2.10,MacIntel,60,61025ae37ef11b136ea224fe,,,,,,,,,756,26,62,1,0,0,response1disk,,7,8,13,1,0,0,rectangle,8,13,1,0,0,8,13,1,0,0,1,58,218,114,1,,,,,,,,
,,,,,,,,,,,,,FF,,,,,,,,1,,,,,,,,,,,,,,,,,,,,,,61006058511273a01f0ce034,61036d3a87afc8bafef2f821,2021-07-29_22h10.20.961,Simcolourproject_2stim_asymm_v5,2020.2.10,MacIntel,60,61025ae37ef11b136ea224fe,,,,,,,,,728,45,69,1,0,0,response1disk,,7,0,-1,1,0,0,rectangle,0,-1,1,0,0,0,-1,1,0,0,1,59,219,82,1,,,,,,,,
,,,,,,,,,,,,,FF,,,,,,,,0.633,,,,,,,,,,,,,,,,,,,,,,61006058511273a01f0ce034,61036d3a87afc8bafef2f821,2021-07-29_22h10.20.961,Simcolourproject_2stim_asymm_v5,2020.2.10,MacIntel,60,61025ae37ef11b136ea224fe,,,,,,,,,1196,27,71,1,0,0,response1disk,,7,6,-1,1,0,0,rectangle,6,-1,1,0,0,6,-1,1,0,0,1,60,220,121,1,,,,,,,,
,,,,,,,,,,,,,FF,,,,,,,,0.567,,,,,,,,,,,,,,,,,,,,,,61006058511273a01f0ce034,61036d3a87afc8bafef2f821,2021-07-29_22h10.20.961,Simcolourproject_2stim_asymm_v5,2020.2.10,MacIntel,60,61025ae37ef11b136ea224fe,,,,,,,,,304,35,72,1,0,0,response1disk,,7,1,-10,1,0,0,rectangle,1,-10,1,0,0,1,-10,1,0,0,1,61,221,131,1,,,,,,,,
,,,,,,,,,,,,,FF,,,,,,,,0.751,,,,,,,,,,,,,,,,,,,,,,61006058511273a01f0ce034,61036d3a87afc8bafef2f821,2021-07-29_22h10.20.961,Simcolourproject_2stim_asymm_v5,2020.2.10,MacIntel,60,61025ae37ef11b136ea224fe,,,,,,,,,955,34,58,1,0,0,response1disk,,7,-1,-8,1,0,0,rectangle,-1,-8,1,0,0,-1,-8,1,0,0,1,62,222,24,1,,,,,,,,
,,,,,,,,,,,,,FF,,,,,,,,0.633,,,,,,,,,,,,,,,,,,,,,,61006058511273a01f0ce034,61036d3a87afc8bafef2f821,2021-07-29_22h10.20.961,Simcolourproject_2stim_asymm_v5,2020.2.10,MacIntel,60,61025ae37ef11b136ea224fe,,,,,,,,,3629,28,77,1,0,0,response1disk,,7,0,-5,1,0,0,rectangle,0,-5,1,0,0,0,-5,1,0,0,1,63,223,62,1,,,,,,,,
,,,,,,,,,,,,,FF,,,,,,,,0.699,,,,,,,,,,,,,,,,,,,,,,61006058511273a01f0ce034,61036d3a87afc8bafef2f821,2021-07-29_22h10.20.961,Simcolourproject_2stim_asymm_v5,2020.2.10,MacIntel,60,61025ae37ef11b136ea224fe,,,,,,,,,101,58,31,1,0,0,response1disk,,6,-12,-16,1,0,0,rectangle,-12,-16,1,0,0,-12,-16,1,0,0,1,64,224,111,1,,,,,,,,
,,,,,,,,,,,,,FF,,,,,,,,0.983,,,,,,,,,,,,,,,,,,,,,,61006058511273a01f0ce034,61036d3a87afc8bafef2f821,2021-07-29_22h10.20.961,Simcolourproject_2stim_asymm_v5,2020.2.10,MacIntel,60,61025ae37ef11b136ea224fe,,,,,,,,,4118,-58,42,1,0,0,response7disk,,1,7,3,1,0,0,rectangle,7,3,1,0,0,7,3,1,0,0,1,65,225,67,1,,,,,,,,
,,,,,,,,,,,,,FF,,,,,,,,1.468,,,,,,,,,,,,,,,,,,,,,,61006058511273a01f0ce034,61036d3a87afc8bafef2f821,2021-07-29_22h10.20.961,Simcolourproject_2stim_asymm_v5,2020.2.10,MacIntel,60,61025ae37ef11b136ea224fe,,,,,,,,,1353,75,50,1,0,0,response1disk,,6,-2,7,1,0,0,rectangle,-2,7,1,0,0,-2,7,1,0,0,1,66,226,87,1,,,,,,,,
,,,,,,,,,,,,,FF,,,,,,,,0.717,,,,,,,,,,,,,,,,,,,,,,61006058511273a01f0ce034,61036d3a87afc8bafef2f821,2021-07-29_22h10.20.961,Simcolourproject_2stim_asymm_v5,2020.2.10,MacIntel,60,61025ae37ef11b136ea224fe,,,,,,,,,656,48,77,1,0,0,response1disk,,7,7,-3,1,0,0,rectangle,7,-3,1,0,0,7,-3,1,0,0,1,67,227,96,1,,,,,,,,
,,,,,,,,,,,,,FF,,,,,,,,0.601,,,,,,,,,,,,,,,,,,,,,,61006058511273a01f0ce034,61036d3a87afc8bafef2f821,2021-07-29_22h10.20.961,Simcolourproject_2stim_asymm_v5,2020.2.10,MacIntel,60,61025ae37ef11b136ea224fe,,,,,,,,,3610,28,64,1,0,0,response1disk,,7,5,-3,1,0,0,rectangle,5,-3,1,0,0,5,-3,1,0,0,1,68,228,152,1,,,,,,,,
,,,,,,,,,,,,,FF,,,,,,,,0.6,,,,,,,,,,,,,,,,,,,,,,61006058511273a01f0ce034,61036d3a87afc8bafef2f821,2021-07-29_22h10.20.961,Simcolourproject_2stim_asymm_v5,2020.2.10,MacIntel,60,61025ae37ef11b136ea224fe,,,,,,,,,568,24,66,1,0,0,response1disk,,7,13,2,1,0,0,rectangle,13,2,1,0,0,13,2,1,0,0,1,69,229,103,1,,,,,,,,
,,,,,,,,,,,,,FF,,,,,,,,0.6,,,,,,,,,,,,,,,,,,,,,,61006058511273a01f0ce034,61036d3a87afc8bafef2f821,2021-07-29_22h10.20.961,Simcolourproject_2stim_asymm_v5,2020.2.10,MacIntel,60,61025ae37ef11b136ea224fe,,,,,,,,,3621,24,61,1,0,0,response1disk,,7,6,-13,1,0,0,rectangle,27,-85,1,0,0,2,-10,1,0,0,1,70,230,154,1,,response3disk_3,TRUE,4,4,"[67,108,111,150,117,204,252,162,181,267,231,157,17,104,124,307,276,123,32,294]",1.884,rectangle
,,,,,,,,,,,,,FF,,,,,,,,0.799,,,,,,,,,,,,,,,,,,,,,,61006058511273a01f0ce034,61036d3a87afc8bafef2f821,2021-07-29_22h10.20.961,Simcolourproject_2stim_asymm_v5,2020.2.10,MacIntel,60,61025ae37ef11b136ea224fe,,,,,,,,,3147,-36,-84,1,0,0,response5disk,,3,6,-1,1,0,0,rectangle,6,-1,1,0,0,6,-1,1,0,0,1,71,231,86,1,,,,,,,,
,,,,,,,,,,,,,FF,,,,,,,,0.649,,,,,,,,,,,,,,,,,,,,,,61006058511273a01f0ce034,61036d3a87afc8bafef2f821,2021-07-29_22h10.20.961,Simcolourproject_2stim_asymm_v5,2020.2.10,MacIntel,60,61025ae37ef11b136ea224fe,,,,,,,,,2927,27,54,1,0,0,response1disk,,7,16,6,1,0,0,rectangle,16,6,1,0,0,16,6,1,0,0,1,72,232,7,1,,,,,,,,
,,,,,,,,,,,,,FF,,,,,,,,0.634,,,,,,,,,,,,,,,,,,,,,,61006058511273a01f0ce034,61036d3a87afc8bafef2f821,2021-07-29_22h10.20.961,Simcolourproject_2stim_asymm_v5,2020.2.10,MacIntel,60,61025ae37ef11b136ea224fe,,,,,,,,,2617,34,66,1,0,0,response1disk,,7,5,5,1,0,0,rectangle,5,5,1,0,0,5,5,1,0,0,1,73,233,32,1,,,,,,,,
,,,,,,,,,,,,,FF,,,,,,,,0.534,,,,,,,,,,,,,,,,,,,,,,61006058511273a01f0ce034,61036d3a87afc8bafef2f821,2021-07-29_22h10.20.961,Simcolourproject_2stim_asymm_v5,2020.2.10,MacIntel,60,61025ae37ef11b136ea224fe,,,,,,,,,364,28,71,1,0,0,response1disk,,7,9,-2,1,0,0,rectangle,9,-2,1,0,0,9,-2,1,0,0,1,74,234,75,1,,,,,,,,
,,,,,,,,,,,,,FF,,,,,,,,0.767,,,,,,,,,,,,,,,,,,,,,,61006058511273a01f0ce034,61036d3a87afc8bafef2f821,2021-07-29_22h10.20.961,Simcolourproject_2stim_asymm_v5,2020.2.10,MacIntel,60,61025ae37ef11b136ea224fe,,,,,,,,,1584,80,54,1,0,0,response1disk,,6,20,12,1,0,0,rectangle,20,12,1,0,0,20,12,1,0,0,1,75,235,40,1,,,,,,,,
,,,,,,,,,,,,,FF,,,,,,,,0.55,,,,,,,,,,,,,,,,,,,,,,61006058511273a01f0ce034,61036d3a87afc8bafef2f821,2021-07-29_22h10.20.961,Simcolourproject_2stim_asymm_v5,2020.2.10,MacIntel,60,61025ae37ef11b136ea224fe,,,,,,,,,3263,26,87,1,0,0,response1disk,,7,9,2,1,0,0,rectangle,9,2,1,0,0,9,2,1,0,0,1,76,236,109,1,,,,,,,,
,,,,,,,,,,,,,FF,,,,,,,,0.951,,,,,,,,,,,,,,,,,,,,,,61006058511273a01f0ce034,61036d3a87afc8bafef2f821,2021-07-29_22h10.20.961,Simcolourproject_2stim_asymm_v5,2020.2.10,MacIntel,60,61025ae37ef11b136ea224fe,,,,,,,,,435,74,-24,1,0,0,response3disk,,5,9,7,1,0,0,rectangle,9,7,1,0,0,9,7,1,0,0,1,77,237,159,1,,,,,,,,
,,,,,,,,,,,,,FF,,,,,,,,0.682,,,,,,,,,,,,,,,,,,,,,,61006058511273a01f0ce034,61036d3a87afc8bafef2f821,2021-07-29_22h10.20.961,Simcolourproject_2stim_asymm_v5,2020.2.10,MacIntel,60,61025ae37ef11b136ea224fe,,,,,,,,,4089,29,66,1,0,0,response1disk,,7,11,-1,1,0,0,rectangle,11,-1,1,0,0,11,-1,1,0,0,1,78,238,126,1,,,,,,,,
,,,,,,,,,,,,,FF,,,,,,,,0.5,,,,,,,,,,,,,,,,,,,,,,61006058511273a01f0ce034,61036d3a87afc8bafef2f821,2021-07-29_22h10.20.961,Simcolourproject_2stim_asymm_v5,2020.2.10,MacIntel,60,61025ae37ef11b136ea224fe,,,,,,,,,879,35,73,1,0,0,response1disk,,7,12,1,1,0,0,rectangle,12,1,1,0,0,12,1,1,0,0,1,79,239,42,1,,,,,,,,
,,,,,,,,,,,,,FF,,,,,,,,0.467,,,,,,,,,,,,,,,,,,,,,,61006058511273a01f0ce034,61036d3a87afc8bafef2f821,2021-07-29_22h10.20.961,Simcolourproject_2stim_asymm_v5,2020.2.10,MacIntel,60,61025ae37ef11b136ea224fe,,,,,,,,,3408,32,86,1,0,0,response1disk,,7,21,11,1,0,0,rectangle,21,11,1,0,0,21,11,1,0,0,1,80,240,149,1,,,,,,,,
,,,,,,,,,,,,,FF,,,,,,,,0.65,,,,,,,,,,,,,,,,,,,,,,61006058511273a01f0ce034,61036d3a87afc8bafef2f821,2021-07-29_22h10.20.961,Simcolourproject_2stim_asymm_v5,2020.2.10,MacIntel,60,61025ae37ef11b136ea224fe,,,,,,,,,3993,-41,75,1,0,0,response7disk,,0,-10,-6,1,0,0,rectangle,-10,-6,1,0,0,-10,-6,1,0,0,1,81,241,38,1,,,,,,,,
,,,,,,,,,,,,,FF,,,,,,,,0.499,,,,,,,,,,,,,,,,,,,,,,61006058511273a01f0ce034,61036d3a87afc8bafef2f821,2021-07-29_22h10.20.961,Simcolourproject_2stim_asymm_v5,2020.2.10,MacIntel,60,61025ae37ef11b136ea224fe,,,,,,,,,3266,32,65,1,0,0,response1disk,,7,12,7,1,0,0,rectangle,12,7,1,0,0,12,7,1,0,0,1,82,242,23,1,,,,,,,,
,,,,,,,,,,,,,FF,,,,,,,,0.517,,,,,,,,,,,,,,,,,,,,,,61006058511273a01f0ce034,61036d3a87afc8bafef2f821,2021-07-29_22h10.20.961,Simcolourproject_2stim_asymm_v5,2020.2.10,MacIntel,60,61025ae37ef11b136ea224fe,,,,,,,,,2371,30,95,1,0,0,response1disk,,7,-8,5,1,0,0,rectangle,-8,5,1,0,0,-8,5,1,0,0,1,83,243,137,1,,,,,,,,
,,,,,,,,,,,,,FF,,,,,,,,0.735,,,,,,,,,,,,,,,,,,,,,,61006058511273a01f0ce034,61036d3a87afc8bafef2f821,2021-07-29_22h10.20.961,Simcolourproject_2stim_asymm_v5,2020.2.10,MacIntel,60,61025ae37ef11b136ea224fe,,,,,,,,,2712,81,32,1,0,0,response1disk,,6,6,12,1,0,0,rectangle,6,12,1,0,0,6,12,1,0,0,1,84,244,112,1,,,,,,,,
,,,,,,,,,,,,,FF,,,,,,,,1.033,,,,,,,,,,,,,,,,,,,,,,61006058511273a01f0ce034,61036d3a87afc8bafef2f821,2021-07-29_22h10.20.961,Simcolourproject_2stim_asymm_v5,2020.2.10,MacIntel,60,61025ae37ef11b136ea224fe,,,,,,,,,2165,74,-42,1,0,0,response3disk,,5,1,12,1,0,0,rectangle,1,12,1,0,0,1,12,1,0,0,1,85,245,20,1,,,,,,,,
,,,,,,,,,,,,,FF,,,,,,,,0.499,,,,,,,,,,,,,,,,,,,,,,61006058511273a01f0ce034,61036d3a87afc8bafef2f821,2021-07-29_22h10.20.961,Simcolourproject_2stim_asymm_v5,2020.2.10,MacIntel,60,61025ae37ef11b136ea224fe,,,,,,,,,408,29,84,1,0,0,response1disk,,7,2,-6,1,0,0,rectangle,2,-6,1,0,0,2,-6,1,0,0,1,86,246,41,1,,,,,,,,
,,,,,,,,,,,,,FF,,,,,,,,0.534,,,,,,,,,,,,,,,,,,,,,,61006058511273a01f0ce034,61036d3a87afc8bafef2f821,2021-07-29_22h10.20.961,Simcolourproject_2stim_asymm_v5,2020.2.10,MacIntel,60,61025ae37ef11b136ea224fe,,,,,,,,,3651,25,74,1,0,0,response1disk,,7,13,3,1,0,0,rectangle,13,3,1,0,0,13,3,1,0,0,1,87,247,81,1,,,,,,,,
,,,,,,,,,,,,,FF,,,,,,,,1.083,,,,,,,,,,,,,,,,,,,,,,61006058511273a01f0ce034,61036d3a87afc8bafef2f821,2021-07-29_22h10.20.961,Simcolourproject_2stim_asymm_v5,2020.2.10,MacIntel,60,61025ae37ef11b136ea224fe,,,,,,,,,1950,33,74,1,0,0,response1disk,,7,5,-5,1,0,0,rectangle,5,-5,1,0,0,5,-5,1,0,0,1,88,248,115,1,,,,,,,,
,,,,,,,,,,,,,FF,,,,,,,,0.567,,,,,,,,,,,,,,,,,,,,,,61006058511273a01f0ce034,61036d3a87afc8bafef2f821,2021-07-29_22h10.20.961,Simcolourproject_2stim_asymm_v5,2020.2.10,MacIntel,60,61025ae37ef11b136ea224fe,,,,,,,,,19,28,83,1,0,0,response1disk,,7,2,-11,1,0,0,rectangle,2,-11,1,0,0,2,-11,1,0,0,1,89,249,118,1,,,,,,,,
,,,,,,,,,,,,,FF,,,,,,,,0.95,,,,,,,,,,,,,,,,,,,,,,61006058511273a01f0ce034,61036d3a87afc8bafef2f821,2021-07-29_22h10.20.961,Simcolourproject_2stim_asymm_v5,2020.2.10,MacIntel,60,61025ae37ef11b136ea224fe,,,,,,,,,2305,36,67,1,0,0,response1disk,,7,-4,-10,1,0,0,rectangle,-4,-10,1,0,0,-4,-10,1,0,0,1,90,250,113,1,,,,,,,,
,,,,,,,,,,,,,FF,,,,,,,,2.184,,,,,,,,,,,,,,,,,,,,,,61006058511273a01f0ce034,61036d3a87afc8bafef2f821,2021-07-29_22h10.20.961,Simcolourproject_2stim_asymm_v5,2020.2.10,MacIntel,60,61025ae37ef11b136ea224fe,,,,,,,,,2889,63,-91,1,0,0,response3disk,,4,10,-6,1,0,0,rectangle,-55,18,1,0,0,-1,3,1,0,0,1,91,251,140,1,,response7disk_3,TRUE,1,1,"[67,108,111,150,117,204,252,162,181,267,231,157,17,104,124,307,276,123,32,294]",3.318,rectangle
,,,,,,,,,,,,,FF,,,,,,,,0.718,,,,,,,,,,,,,,,,,,,,,,61006058511273a01f0ce034,61036d3a87afc8bafef2f821,2021-07-29_22h10.20.961,Simcolourproject_2stim_asymm_v5,2020.2.10,MacIntel,60,61025ae37ef11b136ea224fe,,,,,,,,,930,33,63,1,0,0,response1disk,,7,17,4,1,0,0,rectangle,17,4,1,0,0,17,4,1,0,0,1,92,252,145,1,,,,,,,,
,,,,,,,,,,,,,FF,,,,,,,,0.767,,,,,,,,,,,,,,,,,,,,,,61006058511273a01f0ce034,61036d3a87afc8bafef2f821,2021-07-29_22h10.20.961,Simcolourproject_2stim_asymm_v5,2020.2.10,MacIntel,60,61025ae37ef11b136ea224fe,,,,,,,,,3625,-55,-30,1,0,0,response5disk,,2,-3,-5,1,0,0,rectangle,-3,-5,1,0,0,-3,-5,1,0,0,1,93,253,51,1,,,,,,,,
,,,,,,,,,,,,,FF,,,,,,,,0.568,,,,,,,,,,,,,,,,,,,,,,61006058511273a01f0ce034,61036d3a87afc8bafef2f821,2021-07-29_22h10.20.961,Simcolourproject_2stim_asymm_v5,2020.2.10,MacIntel,60,61025ae37ef11b136ea224fe,,,,,,,,,3218,23,68,1,0,0,response1disk,,7,12,10,1,0,0,rectangle,12,10,1,0,0,12,10,1,0,0,1,94,254,79,1,,,,,,,,
,,,,,,,,,,,,,FF,,,,,,,,0.534,,,,,,,,,,,,,,,,,,,,,,61006058511273a01f0ce034,61036d3a87afc8bafef2f821,2021-07-29_22h10.20.961,Simcolourproject_2stim_asymm_v5,2020.2.10,MacIntel,60,61025ae37ef11b136ea224fe,,,,,,,,,4278,32,70,1,0,0,response1disk,,7,18,7,1,0,0,rectangle,18,7,1,0,0,18,7,1,0,0,1,95,255,44,1,,,,,,,,
,,,,,,,,,,,,,FF,,,,,,,,0.499,,,,,,,,,,,,,,,,,,,,,,61006058511273a01f0ce034,61036d3a87afc8bafef2f821,2021-07-29_22h10.20.961,Simcolourproject_2stim_asymm_v5,2020.2.10,MacIntel,60,61025ae37ef11b136ea224fe,,,,,,,,,358,28,65,1,0,0,response1disk,,7,6,2,1,0,0,rectangle,6,2,1,0,0,6,2,1,0,0,1,96,256,54,1,,,,,,,,
,,,,,,,,,,,,,FF,,,,,,,,0.633,,,,,,,,,,,,,,,,,,,,,,61006058511273a01f0ce034,61036d3a87afc8bafef2f821,2021-07-29_22h10.20.961,Simcolourproject_2stim_asymm_v5,2020.2.10,MacIntel,60,61025ae37ef11b136ea224fe,,,,,,,,,3017,43,94,1,0,0,response1disk,,7,7,6,1,0,0,rectangle,7,6,1,0,0,7,6,1,0,0,1,97,257,92,1,,,,,,,,
,,,,,,,,,,,,,FF,,,,,,,,0.532,,,,,,,,,,,,,,,,,,,,,,61006058511273a01f0ce034,61036d3a87afc8bafef2f821,2021-07-29_22h10.20.961,Simcolourproject_2stim_asymm_v5,2020.2.10,MacIntel,60,61025ae37ef11b136ea224fe,,,,,,,,,1108,44,76,1,0,0,response1disk,,7,5,4,1,0,0,rectangle,5,4,1,0,0,5,4,1,0,0,1,98,258,77,1,,,,,,,,
,,,,,,,,,,,,,FF,,,,,,,,0.534,,,,,,,,,,,,,,,,,,,,,,61006058511273a01f0ce034,61036d3a87afc8bafef2f821,2021-07-29_22h10.20.961,Simcolourproject_2stim_asymm_v5,2020.2.10,MacIntel,60,61025ae37ef11b136ea224fe,,,,,,,,,2584,35,64,1,0,0,response1disk,,7,6,11,1,0,0,rectangle,6,11,1,0,0,6,11,1,0,0,1,99,259,139,1,,,,,,,,
,,,,,,,,,,,,,FF,,,,,,,,0.551,,,,,,,,,,,,,,,,,,,,,,61006058511273a01f0ce034,61036d3a87afc8bafef2f821,2021-07-29_22h10.20.961,Simcolourproject_2stim_asymm_v5,2020.2.10,MacIntel,60,61025ae37ef11b136ea224fe,,,,,,,,,4318,31,69,1,0,0,response1disk,,7,5,2,1,0,0,rectangle,5,2,1,0,0,5,2,1,0,0,1,100,260,35,1,,,,,,,,
,,,,,,,,,,,,,FF,,,,,,,,0.752,,,,,,,,,,,,,,,,,,,,,,61006058511273a01f0ce034,61036d3a87afc8bafef2f821,2021-07-29_22h10.20.961,Simcolourproject_2stim_asymm_v5,2020.2.10,MacIntel,60,61025ae37ef11b136ea224fe,,,,,,,,,2228,-38,-88,1,0,0,response5disk,,3,9,12,1,0,0,rectangle,9,12,1,0,0,9,12,1,0,0,1,101,261,156,1,,,,,,,,
,,,,,,,,,,,,,FF,,,,,,,,0.518,,,,,,,,,,,,,,,,,,,,,,61006058511273a01f0ce034,61036d3a87afc8bafef2f821,2021-07-29_22h10.20.961,Simcolourproject_2stim_asymm_v5,2020.2.10,MacIntel,60,61025ae37ef11b136ea224fe,,,,,,,,,454,40,59,1,0,0,response1disk,,7,10,7,1,0,0,rectangle,10,7,1,0,0,10,7,1,0,0,1,102,262,89,1,,,,,,,,
,,,,,,,,,,,,,FF,,,,,,,,0.75,,,,,,,,,,,,,,,,,,,,,,61006058511273a01f0ce034,61036d3a87afc8bafef2f821,2021-07-29_22h10.20.961,Simcolourproject_2stim_asymm_v5,2020.2.10,MacIntel,60,61025ae37ef11b136ea224fe,,,,,,,,,280,-40,-78,1,0,0,response5disk,,3,6,-8,1,0,0,rectangle,6,-8,1,0,0,6,-8,1,0,0,1,103,263,102,1,,,,,,,,
,,,,,,,,,,,,,FF,,,,,,,,0.717,,,,,,,,,,,,,,,,,,,,,,61006058511273a01f0ce034,61036d3a87afc8bafef2f821,2021-07-29_22h10.20.961,Simcolourproject_2stim_asymm_v5,2020.2.10,MacIntel,60,61025ae37ef11b136ea224fe,,,,,,,,,3957,32,75,1,0,0,response1disk,,7,-2,1,1,0,0,rectangle,-2,1,1,0,0,-2,1,1,0,0,1,104,264,61,1,,,,,,,,
,,,,,,,,,,,,,FF,,,,,,,,0.9,,,,,,,,,,,,,,,,,,,,,,61006058511273a01f0ce034,61036d3a87afc8bafef2f821,2021-07-29_22h10.20.961,Simcolourproject_2stim_asymm_v5,2020.2.10,MacIntel,60,61025ae37ef11b136ea224fe,,,,,,,,,3967,-40,-74,1,0,0,response5disk,,3,2,4,1,0,0,rectangle,2,4,1,0,0,2,4,1,0,0,1,105,265,78,1,,,,,,,,
,,,,,,,,,,,,,FF,,,,,,,,0.683,,,,,,,,,,,,,,,,,,,,,,61006058511273a01f0ce034,61036d3a87afc8bafef2f821,2021-07-29_22h10.20.961,Simcolourproject_2stim_asymm_v5,2020.2.10,MacIntel,60,61025ae37ef11b136ea224fe,,,,,,,,,456,27,-75,1,0,0,response3disk,,4,22,-2,1,0,0,rectangle,-39,-78,1,0,0,2,-4,1,0,0,1,106,266,46,1,,response5disk_3,TRUE,3,3,"[67,108,111,150,117,204,252,162,181,267,231,157,17,104,124,307,276,123,32,294]",1.65,rectangle
,,,,,,,,,,,,,FF,,,,,,,,0.716,,,,,,,,,,,,,,,,,,,,,,61006058511273a01f0ce034,61036d3a87afc8bafef2f821,2021-07-29_22h10.20.961,Simcolourproject_2stim_asymm_v5,2020.2.10,MacIntel,60,61025ae37ef11b136ea224fe,,,,,,,,,2434,30,77,1,0,0,response1disk,,7,-1,-3,1,0,0,rectangle,-1,-3,1,0,0,-1,-3,1,0,0,1,107,267,37,1,,,,,,,,
,,,,,,,,,,,,,FF,,,,,,,,0.516,,,,,,,,,,,,,,,,,,,,,,61006058511273a01f0ce034,61036d3a87afc8bafef2f821,2021-07-29_22h10.20.961,Simcolourproject_2stim_asymm_v5,2020.2.10,MacIntel,60,61025ae37ef11b136ea224fe,,,,,,,,,1210,23,59,1,0,0,response1disk,,7,1,-1,1,0,0,rectangle,1,-1,1,0,0,1,-1,1,0,0,1,108,268,101,1,,,,,,,,
,,,,,,,,,,,,,FF,,,,,,,,0.651,,,,,,,,,,,,,,,,,,,,,,61006058511273a01f0ce034,61036d3a87afc8bafef2f821,2021-07-29_22h10.20.961,Simcolourproject_2stim_asymm_v5,2020.2.10,MacIntel,60,61025ae37ef11b136ea224fe,,,,,,,,,371,78,38,1,0,0,response1disk,,6,16,11,1,0,0,rectangle,16,11,1,0,0,16,11,1,0,0,1,109,269,127,1,,,,,,,,
,,,,,,,,,,,,,FF,,,,,,,,0.682,,,,,,,,,,,,,,,,,,,,,,61006058511273a01f0ce034,61036d3a87afc8bafef2f821,2021-07-29_22h10.20.961,Simcolourproject_2stim_asymm_v5,2020.2.10,MacIntel,60,61025ae37ef11b136ea224fe,,,,,,,,,1197,92,49,1,0,0,response1disk,,6,16,11,1,0,0,rectangle,16,11,1,0,0,16,11,1,0,0,1,110,270,19,1,,,,,,,,
,,,,,,,,,,,,,FF,,,,,,,,0.55,,,,,,,,,,,,,,,,,,,,,,61006058511273a01f0ce034,61036d3a87afc8bafef2f821,2021-07-29_22h10.20.961,Simcolourproject_2stim_asymm_v5,2020.2.10,MacIntel,60,61025ae37ef11b136ea224fe,,,,,,,,,2058,35,80,1,0,0,response1disk,,7,-3,-3,1,0,0,rectangle,-3,-3,1,0,0,-3,-3,1,0,0,1,111,271,104,1,,,,,,,,
,,,,,,,,,,,,,FF,,,,,,,,0.501,,,,,,,,,,,,,,,,,,,,,,61006058511273a01f0ce034,61036d3a87afc8bafef2f821,2021-07-29_22h10.20.961,Simcolourproject_2stim_asymm_v5,2020.2.10,MacIntel,60,61025ae37ef11b136ea224fe,,,,,,,,,4003,31,60,1,0,0,response1disk,,7,-1,-8,1,0,0,rectangle,-1,-8,1,0,0,-1,-8,1,0,0,1,112,272,90,1,,,,,,,,
,,,,,,,,,,,,,FF,,,,,,,,0.55,,,,,,,,,,,,,,,,,,,,,,61006058511273a01f0ce034,61036d3a87afc8bafef2f821,2021-07-29_22h10.20.961,Simcolourproject_2stim_asymm_v5,2020.2.10,MacIntel,60,61025ae37ef11b136ea224fe,,,,,,,,,2141,25,66,1,0,0,response1disk,,7,1,13,1,0,0,rectangle,1,13,1,0,0,1,13,1,0,0,1,113,273,43,1,,,,,,,,
,,,,,,,,,,,,,FF,,,,,,,,1.051,,,,,,,,,,,,,,,,,,,,,,61006058511273a01f0ce034,61036d3a87afc8bafef2f821,2021-07-29_22h10.20.961,Simcolourproject_2stim_asymm_v5,2020.2.10,MacIntel,60,61025ae37ef11b136ea224fe,,,,,,,,,106,76,43,1,0,0,response1disk,,6,-5,1,1,0,0,rectangle,-5,1,1,0,0,-5,1,1,0,0,1,114,274,72,1,,,,,,,,
,,,,,,,,,,,,,FF,,,,,,,,2.284,,,,,,,,,,,,,,,,,,,,,,61006058511273a01f0ce034,61036d3a87afc8bafef2f821,2021-07-29_22h10.20.961,Simcolourproject_2stim_asymm_v5,2020.2.10,MacIntel,60,61025ae37ef11b136ea224fe,,,,,,,,,1770,42,81,1,0,0,response1disk,,7,-4,-4,1,0,0,rectangle,-35,74,1,0,0,5,-8,1,0,0,1,115,275,57,1,,response7disk_3,TRUE,0,0,"[67,108,111,150,117,204,252,162,181,267,231,157,17,104,124,307,276,123,32,294]",1.467,rectangle
,,,,,,,,,,,,,FF,,,,,,,,0.734,,,,,,,,,,,,,,,,,,,,,,61006058511273a01f0ce034,61036d3a87afc8bafef2f821,2021-07-29_22h10.20.961,Simcolourproject_2stim_asymm_v5,2020.2.10,MacIntel,60,61025ae37ef11b136ea224fe,,,,,,,,,1391,30,69,1,0,0,response1disk,,7,13,-2,1,0,0,rectangle,13,-2,1,0,0,13,-2,1,0,0,1,116,276,98,1,,,,,,,,
,,,,,,,,,,,,,FF,,,,,,,,0.534,,,,,,,,,,,,,,,,,,,,,,61006058511273a01f0ce034,61036d3a87afc8bafef2f821,2021-07-29_22h10.20.961,Simcolourproject_2stim_asymm_v5,2020.2.10,MacIntel,60,61025ae37ef11b136ea224fe,,,,,,,,,2263,32,81,1,0,0,response1disk,,7,6,-1,1,0,0,rectangle,6,-1,1,0,0,6,-1,1,0,0,1,117,277,153,1,,,,,,,,
,,,,,,,,,,,,,FF,,,,,,,,0.549,,,,,,,,,,,,,,,,,,,,,,61006058511273a01f0ce034,61036d3a87afc8bafef2f821,2021-07-29_22h10.20.961,Simcolourproject_2stim_asymm_v5,2020.2.10,MacIntel,60,61025ae37ef11b136ea224fe,,,,,,,,,2064,32,71,1,0,0,response1disk,,7,6,2,1,0,0,rectangle,6,2,1,0,0,6,2,1,0,0,1,118,278,141,1,,,,,,,,
,,,,,,,,,,,,,FF,,,,,,,,2.351,,,,,,,,,,,,,,,,,,,,,,61006058511273a01f0ce034,61036d3a87afc8bafef2f821,2021-07-29_22h10.20.961,Simcolourproject_2stim_asymm_v5,2020.2.10,MacIntel,60,61025ae37ef11b136ea224fe,,,,,,,,,1404,35,73,1,0,0,response1disk,,7,-3,-8,1,0,0,rectangle,-3,-8,1,0,0,-3,-8,1,0,0,1,119,279,34,1,,,,,,,,
,,,,,,,,,,,,,FF,,,,,,,,0.583,,,,,,,,,,,,,,,,,,,,,,61006058511273a01f0ce034,61036d3a87afc8bafef2f821,2021-07-29_22h10.20.961,Simcolourproject_2stim_asymm_v5,2020.2.10,MacIntel,60,61025ae37ef11b136ea224fe,,,,,,,,,3579,33,70,1,0,0,response1disk,,7,10,2,1,0,0,rectangle,10,2,1,0,0,10,2,1,0,0,1,120,280,31,1,,,,,,,,
,,,,,,,,,,,,,FF,,,,,,,,0.7,,,,,,,,,,,,,,,,,,,,,,61006058511273a01f0ce034,61036d3a87afc8bafef2f821,2021-07-29_22h10.20.961,Simcolourproject_2stim_asymm_v5,2020.2.10,MacIntel,60,61025ae37ef11b136ea224fe,,,,,,,,,1742,36,72,1,0,0,response1disk,,7,2,-8,1,0,0,rectangle,2,-8,1,0,0,2,-8,1,0,0,1,121,281,120,1,,,,,,,,
,,,,,,,,,,,,,FF,,,,,,,,0.968,,,,,,,,,,,,,,,,,,,,,,61006058511273a01f0ce034,61036d3a87afc8bafef2f821,2021-07-29_22h10.20.961,Simcolourproject_2stim_asymm_v5,2020.2.10,MacIntel,60,61025ae37ef11b136ea224fe,,,,,,,,,1607,88,32,1,0,0,response1disk,,6,-2,-7,1,0,0,rectangle,-2,-7,1,0,0,-2,-7,1,0,0,1,122,282,33,1,,,,,,,,
,,,,,,,,,,,,,FF,,,,,,,,0.567,,,,,,,,,,,,,,,,,,,,,,61006058511273a01f0ce034,61036d3a87afc8bafef2f821,2021-07-29_22h10.20.961,Simcolourproject_2stim_asymm_v5,2020.2.10,MacIntel,60,61025ae37ef11b136ea224fe,,,,,,,,,589,23,76,1,0,0,response1disk,,7,6,4,1,0,0,rectangle,6,4,1,0,0,6,4,1,0,0,1,123,283,69,1,,,,,,,,
,,,,,,,,,,,,,FF,,,,,,,,0.616,,,,,,,,,,,,,,,,,,,,,,61006058511273a01f0ce034,61036d3a87afc8bafef2f821,2021-07-29_22h10.20.961,Simcolourproject_2stim_asymm_v5,2020.2.10,MacIntel,60,61025ae37ef11b136ea224fe,,,,,,,,,1326,35,78,1,0,0,response1disk,,7,13,3,1,0,0,rectangle,13,3,1,0,0,13,3,1,0,0,1,124,284,119,1,,,,,,,,
,,,,,,,,,,,,,FF,,,,,,,,0.784,,,,,,,,,,,,,,,,,,,,,,61006058511273a01f0ce034,61036d3a87afc8bafef2f821,2021-07-29_22h10.20.961,Simcolourproject_2stim_asymm_v5,2020.2.10,MacIntel,60,61025ae37ef11b136ea224fe,,,,,,,,,1220,-15,-61,1,0,0,response5disk,,3,-5,-1,1,0,0,rectangle,-5,-1,1,0,0,-5,-1,1,0,0,1,125,285,76,1,,,,,,,,
,,,,,,,,,,,,,FF,,,,,,,,1.001,,,,,,,,,,,,,,,,,,,,,,61006058511273a01f0ce034,61036d3a87afc8bafef2f821,2021-07-29_22h10.20.961,Simcolourproject_2stim_asymm_v5,2020.2.10,MacIntel,60,61025ae37ef11b136ea224fe,,,,,,,,,3785,85,39,1,0,0,response1disk,,6,8,-11,1,0,0,rectangle,8,-11,1,0,0,8,-11,1,0,0,1,126,286,36,1,,,,,,,,
,,,,,,,,,,,,,FF,,,,,,,,0.466,,,,,,,,,,,,,,,,,,,,,,61006058511273a01f0ce034,61036d3a87afc8bafef2f821,2021-07-29_22h10.20.961,Simcolourproject_2stim_asymm_v5,2020.2.10,MacIntel,60,61025ae37ef11b136ea224fe,,,,,,,,,1170,23,64,1,0,0,response1disk,,7,8,12,1,0,0,rectangle,8,12,1,0,0,8,12,1,0,0,1,127,287,56,1,,,,,,,,
,,,,,,,,,,,,,FF,,,,,,,,0.7,,,,,,,,,,,,,,,,,,,,,,61006058511273a01f0ce034,61036d3a87afc8bafef2f821,2021-07-29_22h10.20.961,Simcolourproject_2stim_asymm_v5,2020.2.10,MacIntel,60,61025ae37ef11b136ea224fe,,,,,,,,,513,52,78,1,0,0,response1disk,,7,4,-9,1,0,0,rectangle,4,-9,1,0,0,4,-9,1,0,0,1,128,288,65,1,,,,,,,,
,,,,,,,,,,,,,FF,,,,,,,,0.716,,,,,,,,,,,,,,,,,,,,,,61006058511273a01f0ce034,61036d3a87afc8bafef2f821,2021-07-29_22h10.20.961,Simcolourproject_2stim_asymm_v5,2020.2.10,MacIntel,60,61025ae37ef11b136ea224fe,,,,,,,,,1299,40,-66,1,0,0,response3disk,,4,12,-9,1,0,0,rectangle,12,-9,1,0,0,12,-9,1,0,0,1,129,289,136,1,,,,,,,,
,,,,,,,,,,,,,FF,,,,,,,,0.568,,,,,,,,,,,,,,,,,,,,,,61006058511273a01f0ce034,61036d3a87afc8bafef2f821,2021-07-29_22h10.20.961,Simcolourproject_2stim_asymm_v5,2020.2.10,MacIntel,60,61025ae37ef11b136ea224fe,,,,,,,,,2974,26,64,1,0,0,response1disk,,7,12,9,1,0,0,rectangle,12,9,1,0,0,12,9,1,0,0,1,130,290,106,1,,,,,,,,
,,,,,,,,,,,,,FF,,,,,,,,0.617,,,,,,,,,,,,,,,,,,,,,,61006058511273a01f0ce034,61036d3a87afc8bafef2f821,2021-07-29_22h10.20.961,Simcolourproject_2stim_asymm_v5,2020.2.10,MacIntel,60,61025ae37ef11b136ea224fe,,,,,,,,,851,32,74,1,0,0,response1disk,,7,13,3,1,0,0,rectangle,13,3,1,0,0,13,3,1,0,0,1,131,291,47,1,,,,,,,,
,,,,,,,,,,,,,FF,,,,,,,,0.901,,,,,,,,,,,,,,,,,,,,,,61006058511273a01f0ce034,61036d3a87afc8bafef2f821,2021-07-29_22h10.20.961,Simcolourproject_2stim_asymm_v5,2020.2.10,MacIntel,60,61025ae37ef11b136ea224fe,,,,,,,,,2985,-35,-88,1,0,0,response5disk,,3,-1,-1,1,0,0,rectangle,-1,-1,1,0,0,-1,-1,1,0,0,1,132,292,8,1,,,,,,,,
,,,,,,,,,,,,,FF,,,,,,,,0.5,,,,,,,,,,,,,,,,,,,,,,61006058511273a01f0ce034,61036d3a87afc8bafef2f821,2021-07-29_22h10.20.961,Simcolourproject_2stim_asymm_v5,2020.2.10,MacIntel,60,61025ae37ef11b136ea224fe,,,,,,,,,406,25,68,1,0,0,response1disk,,7,6,-4,1,0,0,rectangle,-29,70,1,0,0,9,-15,1,0,0,1,133,293,95,1,,response7disk_3,TRUE,0,0,"[67,108,111,150,117,204,252,162,181,267,231,157,17,104,124,307,276,123,32,294]",1.149,rectangle
,,,,,,,,,,,,,FF,,,,,,,,0.55,,,,,,,,,,,,,,,,,,,,,,61006058511273a01f0ce034,61036d3a87afc8bafef2f821,2021-07-29_22h10.20.961,Simcolourproject_2stim_asymm_v5,2020.2.10,MacIntel,60,61025ae37ef11b136ea224fe,,,,,,,,,2450,23,70,1,0,0,response1disk,,7,20,6,1,0,0,rectangle,20,6,1,0,0,20,6,1,0,0,1,134,294,138,1,,,,,,,,
,,,,,,,,,,,,,FF,,,,,,,,0.8,,,,,,,,,,,,,,,,,,,,,,61006058511273a01f0ce034,61036d3a87afc8bafef2f821,2021-07-29_22h10.20.961,Simcolourproject_2stim_asymm_v5,2020.2.10,MacIntel,60,61025ae37ef11b136ea224fe,,,,,,,,,3290,-67,46,1,0,0,response7disk,,1,5,-6,1,0,0,rectangle,5,-6,1,0,0,5,-6,1,0,0,1,135,295,130,1,,,,,,,,
,,,,,,,,,,,,,FF,,,,,,,,1.017,,,,,,,,,,,,,,,,,,,,,,61006058511273a01f0ce034,61036d3a87afc8bafef2f821,2021-07-29_22h10.20.961,Simcolourproject_2stim_asymm_v5,2020.2.10,MacIntel,60,61025ae37ef11b136ea224fe,,,,,,,,,3912,39,-73,1,0,0,response3disk,,4,14,-4,1,0,0,rectangle,14,-4,1,0,0,14,-4,1,0,0,1,136,296,125,1,,,,,,,,
,,,,,,,,,,,,,FF,,,,,,,,0.517,,,,,,,,,,,,,,,,,,,,,,61006058511273a01f0ce034,61036d3a87afc8bafef2f821,2021-07-29_22h10.20.961,Simcolourproject_2stim_asymm_v5,2020.2.10,MacIntel,60,61025ae37ef11b136ea224fe,,,,,,,,,2931,21,85,1,0,0,response1disk,,7,6,4,1,0,0,rectangle,6,4,1,0,0,6,4,1,0,0,1,137,297,85,1,,,,,,,,
,,,,,,,,,,,,,FF,,,,,,,,0.517,,,,,,,,,,,,,,,,,,,,,,61006058511273a01f0ce034,61036d3a87afc8bafef2f821,2021-07-29_22h10.20.961,Simcolourproject_2stim_asymm_v5,2020.2.10,MacIntel,60,61025ae37ef11b136ea224fe,,,,,,,,,4300,38,71,1,0,0,response1disk,,7,5,0,1,0,0,rectangle,5,0,1,0,0,5,0,1,0,0,1,138,298,13,1,,,,,,,,
,,,,,,,,,,,,,FF,,,,,,,,0.501,,,,,,,,,,,,,,,,,,,,,,61006058511273a01f0ce034,61036d3a87afc8bafef2f821,2021-07-29_22h10.20.961,Simcolourproject_2stim_asymm_v5,2020.2.10,MacIntel,60,61025ae37ef11b136ea224fe,,,,,,,,,3721,36,69,1,0,0,response1disk,,7,7,-9,1,0,0,rectangle,7,-9,1,0,0,7,-9,1,0,0,1,139,299,27,1,,,,,,,,
,,,,,,,,,,,,,FF,,,,,,,,0.77,,,,,,,,,,,,,,,,,,,,,,61006058511273a01f0ce034,61036d3a87afc8bafef2f821,2021-07-29_22h10.20.961,Simcolourproject_2stim_asymm_v5,2020.2.10,MacIntel,60,61025ae37ef11b136ea224fe,,,,,,,,,1826,78,-31,1,0,0,response3disk,,5,6,-2,1,0,0,rectangle,6,-2,1,0,0,6,-2,1,0,0,1,140,300,6,1,,,,,,,,
,,,,,,,,,,,,,FF,,,,,,,,0.549,,,,,,,,,,,,,,,,,,,,,,61006058511273a01f0ce034,61036d3a87afc8bafef2f821,2021-07-29_22h10.20.961,Simcolourproject_2stim_asymm_v5,2020.2.10,MacIntel,60,61025ae37ef11b136ea224fe,,,,,,,,,3802,24,70,1,0,0,response1disk,,7,10,8,1,0,0,rectangle,10,8,1,0,0,10,8,1,0,0,1,141,301,143,1,,,,,,,,
