key_resp.keys,key_resp.rt,key_resp_14.keys,key_resp_14.rt,key_resp_15.keys,key_resp_15.rt,key_resp_17.keys,key_resp_17.rt,key_resp_9.keys,key_resp_9.rt,key_resp_10.keys,key_resp_10.rt,practice_comparison,Ecc,mouse_5.x,mouse_5.y,mouse_5.leftButton,mouse_5.midButton,mouse_5.rightButton,mouse_5.clicked_name,pracsimilarity,response_time,mouse_10.x,mouse_10.y,mouse_10.leftButton,mouse_10.midButton,mouse_10.rightButton,mouse_10.clicked_name,mouse_7.x,mouse_7.y,mouse_7.leftButton,mouse_7.midButton,mouse_7.rightButton,mouse_6.x,mouse_6.y,mouse_6.leftButton,mouse_6.midButton,mouse_6.rightButton,duringprac.thisRepN,duringprac.thisTrialN,duringprac.thisN,duringprac.thisIndex,duringprac.ran,participant,session,date,expName,psychopyVersion,OS,frameRate,study_id,mouse_7.clicked_name,catchpracsimilarity,catch_response_time,catchnumberprac,catchtrialorderprac,mouse_6.clicked_name,key_resp_22.keys,key_resp_22.rt,realcomparison,mouse.x,mouse.y,mouse.leftButton,mouse.midButton,mouse.rightButton,mouse.clicked_name,Colour2,similarity,mouse_2.x,mouse_2.y,mouse_2.leftButton,mouse_2.midButton,mouse_2.rightButton,mouse_2.clicked_name,mouse_3.x,mouse_3.y,mouse_3.leftButton,mouse_3.midButton,mouse_3.rightButton,mouse_11.x,mouse_11.y,mouse_11.leftButton,mouse_11.midButton,mouse_11.rightButton,trials_2.thisRepN,trials_2.thisTrialN,trials_2.thisN,trials_2.thisIndex,trials_2.ran,Colour1,mouse_3.clicked_name,catchornah,catchsimilarity,catchnumber,catchtrialorder,catchRT,mouse_11.clicked_name
space,7.3664,space,10.5025,space,9.0649,space,7.2307,space,1.733,space,3.16,70,FF,35.2578125,92.08984375,1,0,0,response1disk_5,7,10.1491,-12.7890625,-1.171875,1,0,0,rectangle_8,-12.7890625,-1.171875,1,0,0,-12.7890625,-1.171875,1,0,0,0,0,0,3,1,6100b86d68f33db3c5aa1609,61036f12a0280fce27023e8b,2021-07-29_20h17.40.900,Simcolourproject_2stim_asymm_v5,2020.2.10,MacIntel,60,61025ae37ef11b136ea224fe,,,,,,,,,,,,,,,,,,,,,,,,,,,,,,,,,,,,,,,,,,,,,,
,,,,,,,,,,,,31,FF,86.84375,36.953125,1,0,0,response1disk_5,6,10.34,-7.26953125,2.03125,1,0,0,rectangle_8,37.234375,-89.78515625,1,0,0,-0.77734375,-1.25390625,1,0,0,0,1,1,5,1,6100b86d68f33db3c5aa1609,61036f12a0280fce27023e8b,2021-07-29_20h17.40.900,Simcolourproject_2stim_asymm_v5,2020.2.10,MacIntel,60,61025ae37ef11b136ea224fe,response3disk_7,4,2.6436,4,"[2,5]",rectangle_4,,,,,,,,,,,,,,,,,,,,,,,,,,,,,,,,,,,,,,,,
,,,,,,,,,,,,21,PF,36.59765625,95.42578125,1,0,0,response1disk_5,7,4.6563,-10.5078125,-3.17578125,1,0,0,rectangle_8,-10.5078125,-3.17578125,1,0,0,-10.5078125,-3.17578125,1,0,0,0,2,2,4,1,6100b86d68f33db3c5aa1609,61036f12a0280fce27023e8b,2021-07-29_20h17.40.900,Simcolourproject_2stim_asymm_v5,2020.2.10,MacIntel,60,61025ae37ef11b136ea224fe,,,,,,,,,,,,,,,,,,,,,,,,,,,,,,,,,,,,,,,,,,,,,,
,,,,,,,,,,,,103,PF,35.74609375,95.74609375,1,0,0,response1disk_5,7,2.628,-1.59765625,-5.45703125,1,0,0,rectangle_8,-1.59765625,-5.45703125,1,0,0,-1.59765625,-5.45703125,1,0,0,0,3,3,6,1,6100b86d68f33db3c5aa1609,61036f12a0280fce27023e8b,2021-07-29_20h17.40.900,Simcolourproject_2stim_asymm_v5,2020.2.10,MacIntel,60,61025ae37ef11b136ea224fe,,,,,,,,,,,,,,,,,,,,,,,,,,,,,,,,,,,,,,,,,,,,,,
,,,,,,,,,,,,55,PF,34.91796875,96.48046875,1,0,0,response1disk_5,7,4.9384,-0.37890625,-4.62109375,1,0,0,rectangle_8,34.078125,-98.43359375,1,0,0,5.53515625,5.578125,1,0,0,0,4,4,1,1,6100b86d68f33db3c5aa1609,61036f12a0280fce27023e8b,2021-07-29_20h17.40.900,Simcolourproject_2stim_asymm_v5,2020.2.10,MacIntel,60,61025ae37ef11b136ea224fe,response3disk_7,4,1.96,4,"[2,5]",rectangle_4,,,,,,,,,,,,,,,,,,,,,,,,,,,,,,,,,,,,,,,,
,,,,,,,,,,,,117,PF,90.54296875,36.81640625,1,0,0,response1disk_5,6,5.8863,-7.33984375,-1.984375,1,0,0,rectangle_8,-7.33984375,-1.984375,1,0,0,-7.33984375,-1.984375,1,0,0,0,5,5,2,1,6100b86d68f33db3c5aa1609,61036f12a0280fce27023e8b,2021-07-29_20h17.40.900,Simcolourproject_2stim_asymm_v5,2020.2.10,MacIntel,60,61025ae37ef11b136ea224fe,,,,,,,,,,,,,,,,,,,,,,,,,,,,,,,,,,,,,,,,,,,,,,
,,,,,,,,,,,,117,FF,93.11328125,36.5625,1,0,0,response1disk_5,6,3.3758,-2.15625,5.4921875,1,0,0,rectangle_8,-2.15625,5.4921875,1,0,0,-2.15625,5.4921875,1,0,0,0,6,6,0,1,6100b86d68f33db3c5aa1609,61036f12a0280fce27023e8b,2021-07-29_20h17.40.900,Simcolourproject_2stim_asymm_v5,2020.2.10,MacIntel,60,61025ae37ef11b136ea224fe,,,,,,,,,,,,,,,,,,,,,,,,,,,,,,,,,,,,,,,,,,,,,,
,,,,,,,,,,,,,FF,,,,,,,,3.941,,,,,,,,,,,,,,,,,,,,,,6100b86d68f33db3c5aa1609,61036f12a0280fce27023e8b,2021-07-29_20h17.40.900,Simcolourproject_2stim_asymm_v5,2020.2.10,MacIntel,60,61025ae37ef11b136ea224fe,,,,,,,space,4.3816,2521,90,32.27734375,1,0,0,response1disk,,6,9.22265625,-6.8671875,1,0,0,rectangle,9.22265625,-6.8671875,1,0,0,9.22265625,-6.8671875,1,0,0,0,0,0,153,1,,,,,,,,
,,,,,,,,,,,,,FF,,,,,,,,2.4612,,,,,,,,,,,,,,,,,,,,,,6100b86d68f33db3c5aa1609,61036f12a0280fce27023e8b,2021-07-29_20h17.40.900,Simcolourproject_2stim_asymm_v5,2020.2.10,MacIntel,60,61025ae37ef11b136ea224fe,,,,,,,,,462,81.44140625,-31.58984375,1,0,0,response3disk,,5,4.71484375,-5.65234375,1,0,0,rectangle,4.71484375,-5.65234375,1,0,0,4.71484375,-5.65234375,1,0,0,0,1,1,0,1,,,,,,,,
,,,,,,,,,,,,,FF,,,,,,,,1.4633,,,,,,,,,,,,,,,,,,,,,,6100b86d68f33db3c5aa1609,61036f12a0280fce27023e8b,2021-07-29_20h17.40.900,Simcolourproject_2stim_asymm_v5,2020.2.10,MacIntel,60,61025ae37ef11b136ea224fe,,,,,,,,,4198,37.8359375,89.828125,1,0,0,response1disk,,7,-7.81640625,-13.63671875,1,0,0,rectangle,-7.81640625,-13.63671875,1,0,0,-7.81640625,-13.63671875,1,0,0,0,2,2,44,1,,,,,,,,
,,,,,,,,,,,,,FF,,,,,,,,2.0788,,,,,,,,,,,,,,,,,,,,,,6100b86d68f33db3c5aa1609,61036f12a0280fce27023e8b,2021-07-29_20h17.40.900,Simcolourproject_2stim_asymm_v5,2020.2.10,MacIntel,60,61025ae37ef11b136ea224fe,,,,,,,,,2874,75.89453125,-31.3125,1,0,0,response3disk,,5,-8.1953125,-7.30078125,1,0,0,rectangle,-8.1953125,-7.30078125,1,0,0,-8.1953125,-7.30078125,1,0,0,0,3,3,141,1,,,,,,,,
,,,,,,,,,,,,,FF,,,,,,,,2.645,,,,,,,,,,,,,,,,,,,,,,6100b86d68f33db3c5aa1609,61036f12a0280fce27023e8b,2021-07-29_20h17.40.900,Simcolourproject_2stim_asymm_v5,2020.2.10,MacIntel,60,61025ae37ef11b136ea224fe,,,,,,,,,3558,-37.6796875,-96.7109375,1,0,0,response5disk,,3,1.3984375,-1.26953125,1,0,0,rectangle,1.3984375,-1.26953125,1,0,0,1.3984375,-1.26953125,1,0,0,0,4,4,24,1,,,,,,,,
,,,,,,,,,,,,,FF,,,,,,,,1.562,,,,,,,,,,,,,,,,,,,,,,6100b86d68f33db3c5aa1609,61036f12a0280fce27023e8b,2021-07-29_20h17.40.900,Simcolourproject_2stim_asymm_v5,2020.2.10,MacIntel,60,61025ae37ef11b136ea224fe,,,,,,,,,1460,-76.49609375,-26.796875,1,0,0,response5disk,,2,-5.99609375,0.58984375,1,0,0,rectangle,-5.99609375,0.58984375,1,0,0,-5.99609375,0.58984375,1,0,0,0,5,5,105,1,,,,,,,,
,,,,,,,,,,,,,FF,,,,,,,,1.779,,,,,,,,,,,,,,,,,,,,,,6100b86d68f33db3c5aa1609,61036f12a0280fce27023e8b,2021-07-29_20h17.40.900,Simcolourproject_2stim_asymm_v5,2020.2.10,MacIntel,60,61025ae37ef11b136ea224fe,,,,,,,,,42,76.78125,-28.11328125,1,0,0,response3disk,,5,-7.5625,-2.6875,1,0,0,rectangle,-7.5625,-2.6875,1,0,0,-7.5625,-2.6875,1,0,0,0,6,6,13,1,,,,,,,,
,,,,,,,,,,,,,FF,,,,,,,,2.7938,,,,,,,,,,,,,,,,,,,,,,6100b86d68f33db3c5aa1609,61036f12a0280fce27023e8b,2021-07-29_20h17.40.900,Simcolourproject_2stim_asymm_v5,2020.2.10,MacIntel,60,61025ae37ef11b136ea224fe,,,,,,,,,2837,70.4921875,-32.234375,1,0,0,response3disk,,5,0.4765625,7.28515625,1,0,0,rectangle,0.4765625,7.28515625,1,0,0,0.4765625,7.28515625,1,0,0,0,7,7,66,1,,,,,,,,
,,,,,,,,,,,,,FF,,,,,,,,2.2958,,,,,,,,,,,,,,,,,,,,,,6100b86d68f33db3c5aa1609,61036f12a0280fce27023e8b,2021-07-29_20h17.40.900,Simcolourproject_2stim_asymm_v5,2020.2.10,MacIntel,60,61025ae37ef11b136ea224fe,,,,,,,,,2845,78.03125,-41.87109375,1,0,0,response3disk,,5,1.22265625,-2.6640625,1,0,0,rectangle,1.22265625,-2.6640625,1,0,0,1.22265625,-2.6640625,1,0,0,0,8,8,115,1,,,,,,,,
,,,,,,,,,,,,,FF,,,,,,,,1.2976,,,,,,,,,,,,,,,,,,,,,,6100b86d68f33db3c5aa1609,61036f12a0280fce27023e8b,2021-07-29_20h17.40.900,Simcolourproject_2stim_asymm_v5,2020.2.10,MacIntel,60,61025ae37ef11b136ea224fe,,,,,,,,,2014,101.5390625,34.77734375,1,0,0,response1disk,,6,-9.7890625,-6.30078125,1,0,0,rectangle,-9.7890625,-6.30078125,1,0,0,-9.7890625,-6.30078125,1,0,0,0,9,9,123,1,,,,,,,,
,,,,,,,,,,,,,FF,,,,,,,,2.0942,,,,,,,,,,,,,,,,,,,,,,6100b86d68f33db3c5aa1609,61036f12a0280fce27023e8b,2021-07-29_20h17.40.900,Simcolourproject_2stim_asymm_v5,2020.2.10,MacIntel,60,61025ae37ef11b136ea224fe,,,,,,,,,3453,81.57421875,-29.63671875,1,0,0,response3disk,,5,13.96875,-10.30859375,1,0,0,rectangle,13.96875,-10.30859375,1,0,0,13.96875,-10.30859375,1,0,0,0,10,10,41,1,,,,,,,,
,,,,,,,,,,,,,FF,,,,,,,,2.3767,,,,,,,,,,,,,,,,,,,,,,6100b86d68f33db3c5aa1609,61036f12a0280fce27023e8b,2021-07-29_20h17.40.900,Simcolourproject_2stim_asymm_v5,2020.2.10,MacIntel,60,61025ae37ef11b136ea224fe,,,,,,,,,3843,-27.73828125,98.3984375,1,0,0,response7disk,,0,1.71484375,3.7265625,1,0,0,rectangle,1.71484375,3.7265625,1,0,0,1.71484375,3.7265625,1,0,0,0,11,11,51,1,,,,,,,,
,,,,,,,,,,,,,FF,,,,,,,,2.0449,,,,,,,,,,,,,,,,,,,,,,6100b86d68f33db3c5aa1609,61036f12a0280fce27023e8b,2021-07-29_20h17.40.900,Simcolourproject_2stim_asymm_v5,2020.2.10,MacIntel,60,61025ae37ef11b136ea224fe,,,,,,,,,3279,91.23046875,31.9140625,1,0,0,response1disk,,6,2.78515625,0.296875,1,0,0,rectangle,2.78515625,0.296875,1,0,0,2.78515625,0.296875,1,0,0,0,12,12,94,1,,,,,,,,
,,,,,,,,,,,,,FF,,,,,,,,1.9791,,,,,,,,,,,,,,,,,,,,,,6100b86d68f33db3c5aa1609,61036f12a0280fce27023e8b,2021-07-29_20h17.40.900,Simcolourproject_2stim_asymm_v5,2020.2.10,MacIntel,60,61025ae37ef11b136ea224fe,,,,,,,,,2657,73.25,-38.25,1,0,0,response3disk,,5,4.51953125,-9.07421875,1,0,0,rectangle,4.51953125,-9.07421875,1,0,0,4.51953125,-9.07421875,1,0,0,0,13,13,50,1,,,,,,,,
,,,,,,,,,,,,,FF,,,,,,,,2.0122,,,,,,,,,,,,,,,,,,,,,,6100b86d68f33db3c5aa1609,61036f12a0280fce27023e8b,2021-07-29_20h17.40.900,Simcolourproject_2stim_asymm_v5,2020.2.10,MacIntel,60,61025ae37ef11b136ea224fe,,,,,,,,,1709,31.90625,88.69140625,1,0,0,response1disk,,7,7.14453125,2.82421875,1,0,0,rectangle,7.14453125,2.82421875,1,0,0,7.14453125,2.82421875,1,0,0,0,14,14,93,1,,,,,,,,
,,,,,,,,,,,,,FF,,,,,,,,2.1288,,,,,,,,,,,,,,,,,,,,,,6100b86d68f33db3c5aa1609,61036f12a0280fce27023e8b,2021-07-29_20h17.40.900,Simcolourproject_2stim_asymm_v5,2020.2.10,MacIntel,60,61025ae37ef11b136ea224fe,,,,,,,,,2605,35.9140625,-89.78125,1,0,0,response3disk,,4,-24.34375,-8.69140625,1,0,0,rectangle,-24.34375,-8.69140625,1,0,0,-24.34375,-8.69140625,1,0,0,0,15,15,45,1,,,,,,,,
,,,,,,,,,,,,,FF,,,,,,,,1.3809,,,,,,,,,,,,,,,,,,,,,,6100b86d68f33db3c5aa1609,61036f12a0280fce27023e8b,2021-07-29_20h17.40.900,Simcolourproject_2stim_asymm_v5,2020.2.10,MacIntel,60,61025ae37ef11b136ea224fe,,,,,,,,,2870,92.265625,40.00390625,1,0,0,response1disk,,6,12.5625,-7.640625,1,0,0,rectangle,12.5625,-7.640625,1,0,0,12.5625,-7.640625,1,0,0,0,16,16,120,1,,,,,,,,
,,,,,,,,,,,,,FF,,,,,,,,1.8638,,,,,,,,,,,,,,,,,,,,,,6100b86d68f33db3c5aa1609,61036f12a0280fce27023e8b,2021-07-29_20h17.40.900,Simcolourproject_2stim_asymm_v5,2020.2.10,MacIntel,60,61025ae37ef11b136ea224fe,,,,,,,,,178,92.08203125,31.55078125,1,0,0,response1disk,,6,-0.43359375,0.73046875,1,0,0,rectangle,-0.43359375,0.73046875,1,0,0,-0.43359375,0.73046875,1,0,0,0,17,17,12,1,,,,,,,,
,,,,,,,,,,,,,FF,,,,,,,,1.878,,,,,,,,,,,,,,,,,,,,,,6100b86d68f33db3c5aa1609,61036f12a0280fce27023e8b,2021-07-29_20h17.40.900,Simcolourproject_2stim_asymm_v5,2020.2.10,MacIntel,60,61025ae37ef11b136ea224fe,,,,,,,,,172,41.4140625,-86.1796875,1,0,0,response3disk,,4,-4.5390625,2.40625,1,0,0,rectangle,-4.5390625,2.40625,1,0,0,-4.5390625,2.40625,1,0,0,0,18,18,43,1,,,,,,,,
,,,,,,,,,,,,,FF,,,,,,,,1.6289,,,,,,,,,,,,,,,,,,,,,,6100b86d68f33db3c5aa1609,61036f12a0280fce27023e8b,2021-07-29_20h17.40.900,Simcolourproject_2stim_asymm_v5,2020.2.10,MacIntel,60,61025ae37ef11b136ea224fe,,,,,,,,,1377,77.28125,-36.58203125,1,0,0,response3disk,,5,1.515625,-1.14453125,1,0,0,rectangle,1.515625,-1.14453125,1,0,0,1.515625,-1.14453125,1,0,0,0,19,19,151,1,,,,,,,,
,,,,,,,,,,,,,FF,,,,,,,,1.9109,,,,,,,,,,,,,,,,,,,,,,6100b86d68f33db3c5aa1609,61036f12a0280fce27023e8b,2021-07-29_20h17.40.900,Simcolourproject_2stim_asymm_v5,2020.2.10,MacIntel,60,61025ae37ef11b136ea224fe,,,,,,,,,2199,38.6796875,92.8984375,1,0,0,response1disk,,7,0.64453125,-4.8515625,1,0,0,rectangle,0.64453125,-4.8515625,1,0,0,0.64453125,-4.8515625,1,0,0,0,20,20,89,1,,,,,,,,
,,,,,,,,,,,,,FF,,,,,,,,2.0949,,,,,,,,,,,,,,,,,,,,,,6100b86d68f33db3c5aa1609,61036f12a0280fce27023e8b,2021-07-29_20h17.40.900,Simcolourproject_2stim_asymm_v5,2020.2.10,MacIntel,60,61025ae37ef11b136ea224fe,,,,,,,,,495,89.27734375,51.12109375,1,0,0,response1disk,,6,3.99609375,-6.3125,1,0,0,rectangle,3.99609375,-6.3125,1,0,0,3.99609375,-6.3125,1,0,0,0,21,21,75,1,,,,,,,,
,,,,,,,,,,,,,FF,,,,,,,,1.5964,,,,,,,,,,,,,,,,,,,,,,6100b86d68f33db3c5aa1609,61036f12a0280fce27023e8b,2021-07-29_20h17.40.900,Simcolourproject_2stim_asymm_v5,2020.2.10,MacIntel,60,61025ae37ef11b136ea224fe,,,,,,,,,1883,34.1875,87.6953125,1,0,0,response1disk,,7,3.25,-3.3203125,1,0,0,rectangle,3.25,-3.3203125,1,0,0,3.25,-3.3203125,1,0,0,0,22,22,155,1,,,,,,,,
,,,,,,,,,,,,,FF,,,,,,,,1.4299,,,,,,,,,,,,,,,,,,,,,,6100b86d68f33db3c5aa1609,61036f12a0280fce27023e8b,2021-07-29_20h17.40.900,Simcolourproject_2stim_asymm_v5,2020.2.10,MacIntel,60,61025ae37ef11b136ea224fe,,,,,,,,,2720,44.23046875,-85.2109375,1,0,0,response3disk,,4,-2.21875,-10.828125,1,0,0,rectangle,-2.21875,-10.828125,1,0,0,-2.21875,-10.828125,1,0,0,0,23,23,49,1,,,,,,,,
,,,,,,,,,,,,,FF,,,,,,,,2.0949,,,,,,,,,,,,,,,,,,,,,,6100b86d68f33db3c5aa1609,61036f12a0280fce27023e8b,2021-07-29_20h17.40.900,Simcolourproject_2stim_asymm_v5,2020.2.10,MacIntel,60,61025ae37ef11b136ea224fe,,,,,,,,,3757,87.5234375,38.26953125,1,0,0,response1disk,,6,14.21484375,-0.234375,1,0,0,rectangle,14.21484375,-0.234375,1,0,0,14.21484375,-0.234375,1,0,0,0,24,24,55,1,,,,,,,,
,,,,,,,,,,,,,FF,,,,,,,,0.9976,,,,,,,,,,,,,,,,,,,,,,6100b86d68f33db3c5aa1609,61036f12a0280fce27023e8b,2021-07-29_20h17.40.900,Simcolourproject_2stim_asymm_v5,2020.2.10,MacIntel,60,61025ae37ef11b136ea224fe,,,,,,,,,2049,84.125,36.42578125,1,0,0,response1disk,,6,0.6484375,-7.6484375,1,0,0,rectangle,0.6484375,-7.6484375,1,0,0,0.6484375,-7.6484375,1,0,0,0,25,25,84,1,,,,,,,,
,,,,,,,,,,,,,FF,,,,,,,,1.1472,,,,,,,,,,,,,,,,,,,,,,6100b86d68f33db3c5aa1609,61036f12a0280fce27023e8b,2021-07-29_20h17.40.900,Simcolourproject_2stim_asymm_v5,2020.2.10,MacIntel,60,61025ae37ef11b136ea224fe,,,,,,,,,2805,41.76171875,90.1953125,1,0,0,response1disk,,7,8.25390625,-5.76171875,1,0,0,rectangle,76.58203125,-36.984375,1,0,0,19.15625,-2.70703125,1,0,0,0,26,26,78,1,,response3disk_3,TRUE,5,5,"[208,149,279,51,119,290,79,220,275,53,94,66,27,50,283,268,249,46,214,166]",1.6647,rectangle
,,,,,,,,,,,,,FF,,,,,,,,1.9629,,,,,,,,,,,,,,,,,,,,,,6100b86d68f33db3c5aa1609,61036f12a0280fce27023e8b,2021-07-29_20h17.40.900,Simcolourproject_2stim_asymm_v5,2020.2.10,MacIntel,60,61025ae37ef11b136ea224fe,,,,,,,,,307,85.0703125,-30.84765625,1,0,0,response3disk,,5,4.06640625,-6.20703125,1,0,0,rectangle,4.06640625,-6.20703125,1,0,0,4.06640625,-6.20703125,1,0,0,0,27,27,137,1,,,,,,,,
,,,,,,,,,,,,,FF,,,,,,,,2.1125,,,,,,,,,,,,,,,,,,,,,,6100b86d68f33db3c5aa1609,61036f12a0280fce27023e8b,2021-07-29_20h17.40.900,Simcolourproject_2stim_asymm_v5,2020.2.10,MacIntel,60,61025ae37ef11b136ea224fe,,,,,,,,,3209,76.87890625,-36.5390625,1,0,0,response3disk,,5,-1.0859375,1.41015625,1,0,0,rectangle,-1.0859375,1.41015625,1,0,0,-1.0859375,1.41015625,1,0,0,0,28,28,36,1,,,,,,,,
,,,,,,,,,,,,,FF,,,,,,,,1.5799,,,,,,,,,,,,,,,,,,,,,,6100b86d68f33db3c5aa1609,61036f12a0280fce27023e8b,2021-07-29_20h17.40.900,Simcolourproject_2stim_asymm_v5,2020.2.10,MacIntel,60,61025ae37ef11b136ea224fe,,,,,,,,,2954,92.26953125,28.84765625,1,0,0,response1disk,,6,21.4375,-7.3671875,1,0,0,rectangle,21.4375,-7.3671875,1,0,0,21.4375,-7.3671875,1,0,0,0,29,29,52,1,,,,,,,,
,,,,,,,,,,,,,FF,,,,,,,,1.098,,,,,,,,,,,,,,,,,,,,,,6100b86d68f33db3c5aa1609,61036f12a0280fce27023e8b,2021-07-29_20h17.40.900,Simcolourproject_2stim_asymm_v5,2020.2.10,MacIntel,60,61025ae37ef11b136ea224fe,,,,,,,,,2557,71.58984375,38.8828125,1,0,0,response1disk,,6,-1.2734375,-9,1,0,0,rectangle,-1.2734375,-9,1,0,0,-1.2734375,-9,1,0,0,0,30,30,72,1,,,,,,,,
,,,,,,,,,,,,,FF,,,,,,,,1.2306,,,,,,,,,,,,,,,,,,,,,,6100b86d68f33db3c5aa1609,61036f12a0280fce27023e8b,2021-07-29_20h17.40.900,Simcolourproject_2stim_asymm_v5,2020.2.10,MacIntel,60,61025ae37ef11b136ea224fe,,,,,,,,,1362,38.8984375,84.3359375,1,0,0,response1disk,,7,16.41015625,1.80859375,1,0,0,rectangle,16.41015625,1.80859375,1,0,0,16.41015625,1.80859375,1,0,0,0,31,31,83,1,,,,,,,,
,,,,,,,,,,,,,FF,,,,,,,,0.9644,,,,,,,,,,,,,,,,,,,,,,6100b86d68f33db3c5aa1609,61036f12a0280fce27023e8b,2021-07-29_20h17.40.900,Simcolourproject_2stim_asymm_v5,2020.2.10,MacIntel,60,61025ae37ef11b136ea224fe,,,,,,,,,314,37.89453125,79.34765625,1,0,0,response1disk,,7,4.69921875,1.93359375,1,0,0,rectangle,4.69921875,1.93359375,1,0,0,4.69921875,1.93359375,1,0,0,0,32,32,54,1,,,,,,,,
,,,,,,,,,,,,,FF,,,,,,,,1.8637,,,,,,,,,,,,,,,,,,,,,,6100b86d68f33db3c5aa1609,61036f12a0280fce27023e8b,2021-07-29_20h17.40.900,Simcolourproject_2stim_asymm_v5,2020.2.10,MacIntel,60,61025ae37ef11b136ea224fe,,,,,,,,,2724,-80.47265625,-38.48828125,1,0,0,response5disk,,2,-1.5703125,-4.41015625,1,0,0,rectangle,-1.5703125,-4.41015625,1,0,0,-1.5703125,-4.41015625,1,0,0,0,33,33,71,1,,,,,,,,
,,,,,,,,,,,,,FF,,,,,,,,1.1966,,,,,,,,,,,,,,,,,,,,,,6100b86d68f33db3c5aa1609,61036f12a0280fce27023e8b,2021-07-29_20h17.40.900,Simcolourproject_2stim_asymm_v5,2020.2.10,MacIntel,60,61025ae37ef11b136ea224fe,,,,,,,,,2858,70.9609375,-40.64453125,1,0,0,response3disk,,5,1.6484375,-4.5859375,1,0,0,rectangle,1.6484375,-4.5859375,1,0,0,1.6484375,-4.5859375,1,0,0,0,34,34,42,1,,,,,,,,
,,,,,,,,,,,,,FF,,,,,,,,2.1122,,,,,,,,,,,,,,,,,,,,,,6100b86d68f33db3c5aa1609,61036f12a0280fce27023e8b,2021-07-29_20h17.40.900,Simcolourproject_2stim_asymm_v5,2020.2.10,MacIntel,60,61025ae37ef11b136ea224fe,,,,,,,,,2488,52.88671875,-92.0390625,1,0,0,response3disk,,4,0.1796875,0.1640625,1,0,0,rectangle,0.1796875,0.1640625,1,0,0,0.1796875,0.1640625,1,0,0,0,35,35,63,1,,,,,,,,
,,,,,,,,,,,,,FF,,,,,,,,0.9492,,,,,,,,,,,,,,,,,,,,,,6100b86d68f33db3c5aa1609,61036f12a0280fce27023e8b,2021-07-29_20h17.40.900,Simcolourproject_2stim_asymm_v5,2020.2.10,MacIntel,60,61025ae37ef11b136ea224fe,,,,,,,,,1947,37.5078125,91.98046875,1,0,0,response1disk,,7,-0.53125,-2.0859375,1,0,0,rectangle,-0.53125,-2.0859375,1,0,0,-0.53125,-2.0859375,1,0,0,0,36,36,113,1,,,,,,,,
,,,,,,,,,,,,,FF,,,,,,,,1.0979,,,,,,,,,,,,,,,,,,,,,,6100b86d68f33db3c5aa1609,61036f12a0280fce27023e8b,2021-07-29_20h17.40.900,Simcolourproject_2stim_asymm_v5,2020.2.10,MacIntel,60,61025ae37ef11b136ea224fe,,,,,,,,,2400,37.63671875,84.96875,1,0,0,response1disk,,7,8.41796875,-12.015625,1,0,0,rectangle,8.41796875,-12.015625,1,0,0,8.41796875,-12.015625,1,0,0,0,37,37,32,1,,,,,,,,
,,,,,,,,,,,,,FF,,,,,,,,1.2141,,,,,,,,,,,,,,,,,,,,,,6100b86d68f33db3c5aa1609,61036f12a0280fce27023e8b,2021-07-29_20h17.40.900,Simcolourproject_2stim_asymm_v5,2020.2.10,MacIntel,60,61025ae37ef11b136ea224fe,,,,,,,,,4357,-72.3125,-34.69140625,1,0,0,response5disk,,2,-9.2109375,-1.359375,1,0,0,rectangle,-9.2109375,-1.359375,1,0,0,-9.2109375,-1.359375,1,0,0,0,38,38,29,1,,,,,,,,
,,,,,,,,,,,,,FF,,,,,,,,1.8115,,,,,,,,,,,,,,,,,,,,,,6100b86d68f33db3c5aa1609,61036f12a0280fce27023e8b,2021-07-29_20h17.40.900,Simcolourproject_2stim_asymm_v5,2020.2.10,MacIntel,60,61025ae37ef11b136ea224fe,,,,,,,,,1364,66.30078125,-47.98046875,1,0,0,response3disk,,5,8.46484375,-12.93359375,1,0,0,rectangle,8.46484375,-12.93359375,1,0,0,8.46484375,-12.93359375,1,0,0,0,39,39,4,1,,,,,,,,
,,,,,,,,,,,,,FF,,,,,,,,1.4629,,,,,,,,,,,,,,,,,,,,,,6100b86d68f33db3c5aa1609,61036f12a0280fce27023e8b,2021-07-29_20h17.40.900,Simcolourproject_2stim_asymm_v5,2020.2.10,MacIntel,60,61025ae37ef11b136ea224fe,,,,,,,,,3477,-45.421875,-95.4765625,1,0,0,response5disk,,3,-21.91796875,5.4140625,1,0,0,rectangle,-21.91796875,5.4140625,1,0,0,-21.91796875,5.4140625,1,0,0,0,40,40,73,1,,,,,,,,
,,,,,,,,,,,,,FF,,,,,,,,0.9646,,,,,,,,,,,,,,,,,,,,,,6100b86d68f33db3c5aa1609,61036f12a0280fce27023e8b,2021-07-29_20h17.40.900,Simcolourproject_2stim_asymm_v5,2020.2.10,MacIntel,60,61025ae37ef11b136ea224fe,,,,,,,,,1704,99.36328125,39.3828125,1,0,0,response1disk,,6,17.421875,-2.515625,1,0,0,rectangle,17.421875,-2.515625,1,0,0,17.421875,-2.515625,1,0,0,0,41,41,65,1,,,,,,,,
,,,,,,,,,,,,,FF,,,,,,,,0.9647,,,,,,,,,,,,,,,,,,,,,,6100b86d68f33db3c5aa1609,61036f12a0280fce27023e8b,2021-07-29_20h17.40.900,Simcolourproject_2stim_asymm_v5,2020.2.10,MacIntel,60,61025ae37ef11b136ea224fe,,,,,,,,,1727,27.6875,81.00390625,1,0,0,response1disk,,7,-0.44140625,-8.7109375,1,0,0,rectangle,-0.44140625,-8.7109375,1,0,0,-0.44140625,-8.7109375,1,0,0,0,42,42,109,1,,,,,,,,
,,,,,,,,,,,,,FF,,,,,,,,1.9291,,,,,,,,,,,,,,,,,,,,,,6100b86d68f33db3c5aa1609,61036f12a0280fce27023e8b,2021-07-29_20h17.40.900,Simcolourproject_2stim_asymm_v5,2020.2.10,MacIntel,60,61025ae37ef11b136ea224fe,,,,,,,,,3703,82.0859375,-25.6875,1,0,0,response3disk,,5,-1.703125,-10.96484375,1,0,0,rectangle,-1.703125,-10.96484375,1,0,0,-1.703125,-10.96484375,1,0,0,0,43,43,6,1,,,,,,,,
,,,,,,,,,,,,,FF,,,,,,,,1.2309,,,,,,,,,,,,,,,,,,,,,,6100b86d68f33db3c5aa1609,61036f12a0280fce27023e8b,2021-07-29_20h17.40.900,Simcolourproject_2stim_asymm_v5,2020.2.10,MacIntel,60,61025ae37ef11b136ea224fe,,,,,,,,,840,96.83984375,30.4375,1,0,0,response1disk,,6,0.625,-7.31640625,1,0,0,rectangle,0.625,-7.31640625,1,0,0,0.625,-7.31640625,1,0,0,0,44,44,152,1,,,,,,,,
,,,,,,,,,,,,,FF,,,,,,,,1.6292,,,,,,,,,,,,,,,,,,,,,,6100b86d68f33db3c5aa1609,61036f12a0280fce27023e8b,2021-07-29_20h17.40.900,Simcolourproject_2stim_asymm_v5,2020.2.10,MacIntel,60,61025ae37ef11b136ea224fe,,,,,,,,,445,-54.75390625,-103.3867188,1,0,0,response5disk,,3,-1.3828125,0.02734375,1,0,0,rectangle,75.7578125,-34.04296875,1,0,0,13.7890625,-4.2265625,1,0,0,0,45,45,48,1,,response3disk_3,TRUE,5,5,"[208,149,279,51,119,290,79,220,275,53,94,66,27,50,283,268,249,46,214,166]",1.9116,rectangle
,,,,,,,,,,,,,FF,,,,,,,,1.0142,,,,,,,,,,,,,,,,,,,,,,6100b86d68f33db3c5aa1609,61036f12a0280fce27023e8b,2021-07-29_20h17.40.900,Simcolourproject_2stim_asymm_v5,2020.2.10,MacIntel,60,61025ae37ef11b136ea224fe,,,,,,,,,1693,85.49609375,32.83203125,1,0,0,response1disk,,6,18.4921875,-2.7890625,1,0,0,rectangle,18.4921875,-2.7890625,1,0,0,18.4921875,-2.7890625,1,0,0,0,46,46,3,1,,,,,,,,
,,,,,,,,,,,,,FF,,,,,,,,2.8768,,,,,,,,,,,,,,,,,,,,,,6100b86d68f33db3c5aa1609,61036f12a0280fce27023e8b,2021-07-29_20h17.40.900,Simcolourproject_2stim_asymm_v5,2020.2.10,MacIntel,60,61025ae37ef11b136ea224fe,,,,,,,,,628,61.90625,-30.46875,1,0,0,response3disk,,5,5.65625,-4.8671875,1,0,0,rectangle,5.65625,-4.8671875,1,0,0,5.65625,-4.8671875,1,0,0,0,47,47,150,1,,,,,,,,
,,,,,,,,,,,,,FF,,,,,,,,1.2638,,,,,,,,,,,,,,,,,,,,,,6100b86d68f33db3c5aa1609,61036f12a0280fce27023e8b,2021-07-29_20h17.40.900,Simcolourproject_2stim_asymm_v5,2020.2.10,MacIntel,60,61025ae37ef11b136ea224fe,,,,,,,,,2232,-67.41015625,-45.07421875,1,0,0,response5disk,,2,9.13671875,4.83203125,1,0,0,rectangle,9.13671875,4.83203125,1,0,0,9.13671875,4.83203125,1,0,0,0,48,48,104,1,,,,,,,,
,,,,,,,,,,,,,FF,,,,,,,,1.1825,,,,,,,,,,,,,,,,,,,,,,6100b86d68f33db3c5aa1609,61036f12a0280fce27023e8b,2021-07-29_20h17.40.900,Simcolourproject_2stim_asymm_v5,2020.2.10,MacIntel,60,61025ae37ef11b136ea224fe,,,,,,,,,196,49.66796875,-75.1796875,1,0,0,response3disk,,4,-3.3203125,-0.95703125,1,0,0,rectangle,65.6796875,67.546875,1,0,0,-2.13671875,-0.6171875,1,0,0,0,49,49,92,1,,response1disk_3,TRUE,7,3,"[208,149,279,51,119,290,79,220,275,53,94,66,27,50,283,268,249,46,214,166]",1.2147,rectangle
,,,,,,,,,,,,,FF,,,,,,,,0.8812,,,,,,,,,,,,,,,,,,,,,,6100b86d68f33db3c5aa1609,61036f12a0280fce27023e8b,2021-07-29_20h17.40.900,Simcolourproject_2stim_asymm_v5,2020.2.10,MacIntel,60,61025ae37ef11b136ea224fe,,,,,,,,,4314,28.1875,64.734375,1,0,0,response1disk,,7,15.734375,4.57421875,1,0,0,rectangle,86.6875,31.109375,1,0,0,-5.09375,-6.05078125,1,0,0,0,50,50,19,1,,response1disk_3,TRUE,6,6,"[208,149,279,51,119,290,79,220,275,53,94,66,27,50,283,268,249,46,214,166]",1.6789,rectangle
,,,,,,,,,,,,,FF,,,,,,,,1.2806,,,,,,,,,,,,,,,,,,,,,,6100b86d68f33db3c5aa1609,61036f12a0280fce27023e8b,2021-07-29_20h17.40.900,Simcolourproject_2stim_asymm_v5,2020.2.10,MacIntel,60,61025ae37ef11b136ea224fe,,,,,,,,,2909,59.828125,-36.12890625,1,0,0,response3disk,,5,6.171875,-3.0546875,1,0,0,rectangle,6.171875,-3.0546875,1,0,0,6.171875,-3.0546875,1,0,0,0,51,51,156,1,,,,,,,,
,,,,,,,,,,,,,FF,,,,,,,,1.248,,,,,,,,,,,,,,,,,,,,,,6100b86d68f33db3c5aa1609,61036f12a0280fce27023e8b,2021-07-29_20h17.40.900,Simcolourproject_2stim_asymm_v5,2020.2.10,MacIntel,60,61025ae37ef11b136ea224fe,,,,,,,,,188,45.14453125,-91.3046875,1,0,0,response3disk,,4,-3.92578125,7.98828125,1,0,0,rectangle,-35.16796875,79.14453125,1,0,0,-0.23046875,-0.0234375,1,0,0,0,52,52,58,1,,response7disk_3,TRUE,0,0,"[208,149,279,51,119,290,79,220,275,53,94,66,27,50,283,268,249,46,214,166]",2.0794,rectangle
,,,,,,,,,,,,,FF,,,,,,,,1.098,,,,,,,,,,,,,,,,,,,,,,6100b86d68f33db3c5aa1609,61036f12a0280fce27023e8b,2021-07-29_20h17.40.900,Simcolourproject_2stim_asymm_v5,2020.2.10,MacIntel,60,61025ae37ef11b136ea224fe,,,,,,,,,2050,89.02734375,48.640625,1,0,0,response1disk,,6,4.3984375,5.05859375,1,0,0,rectangle,4.3984375,5.05859375,1,0,0,4.3984375,5.05859375,1,0,0,0,53,53,154,1,,,,,,,,
,,,,,,,,,,,,,FF,,,,,,,,1.5465,,,,,,,,,,,,,,,,,,,,,,6100b86d68f33db3c5aa1609,61036f12a0280fce27023e8b,2021-07-29_20h17.40.900,Simcolourproject_2stim_asymm_v5,2020.2.10,MacIntel,60,61025ae37ef11b136ea224fe,,,,,,,,,3094,95.421875,18.03125,1,0,0,response1disk,,6,0.90625,-8.13671875,1,0,0,rectangle,0.90625,-8.13671875,1,0,0,0.90625,-8.13671875,1,0,0,0,54,54,23,1,,,,,,,,
,,,,,,,,,,,,,FF,,,,,,,,0.9643,,,,,,,,,,,,,,,,,,,,,,6100b86d68f33db3c5aa1609,61036f12a0280fce27023e8b,2021-07-29_20h17.40.900,Simcolourproject_2stim_asymm_v5,2020.2.10,MacIntel,60,61025ae37ef11b136ea224fe,,,,,,,,,2809,113.3359375,45.88671875,1,0,0,response1disk,,6,1.64453125,2.44140625,1,0,0,rectangle,1.64453125,2.44140625,1,0,0,1.64453125,2.44140625,1,0,0,0,55,55,15,1,,,,,,,,
,,,,,,,,,,,,,FF,,,,,,,,2.8266,,,,,,,,,,,,,,,,,,,,,,6100b86d68f33db3c5aa1609,61036f12a0280fce27023e8b,2021-07-29_20h17.40.900,Simcolourproject_2stim_asymm_v5,2020.2.10,MacIntel,60,61025ae37ef11b136ea224fe,,,,,,,,,675,32.8046875,71.515625,1,0,0,response1disk,,7,-9.27734375,-0.96875,1,0,0,rectangle,-9.27734375,-0.96875,1,0,0,-9.27734375,-0.96875,1,0,0,0,56,56,106,1,,,,,,,,
,,,,,,,,,,,,,FF,,,,,,,,3.159,,,,,,,,,,,,,,,,,,,,,,6100b86d68f33db3c5aa1609,61036f12a0280fce27023e8b,2021-07-29_20h17.40.900,Simcolourproject_2stim_asymm_v5,2020.2.10,MacIntel,60,61025ae37ef11b136ea224fe,,,,,,,,,1659,98.7109375,34.45703125,1,0,0,response1disk,,6,13.05078125,2.16796875,1,0,0,rectangle,13.05078125,2.16796875,1,0,0,13.05078125,2.16796875,1,0,0,0,57,57,64,1,,,,,,,,
,,,,,,,,,,,,,FF,,,,,,,,1.1458,,,,,,,,,,,,,,,,,,,,,,6100b86d68f33db3c5aa1609,61036f12a0280fce27023e8b,2021-07-29_20h17.40.900,Simcolourproject_2stim_asymm_v5,2020.2.10,MacIntel,60,61025ae37ef11b136ea224fe,,,,,,,,,290,40.07421875,76.65234375,1,0,0,response1disk,,7,8.8125,-2.9375,1,0,0,rectangle,8.8125,-2.9375,1,0,0,8.8125,-2.9375,1,0,0,0,58,58,76,1,,,,,,,,
,,,,,,,,,,,,,FF,,,,,,,,0.7817,,,,,,,,,,,,,,,,,,,,,,6100b86d68f33db3c5aa1609,61036f12a0280fce27023e8b,2021-07-29_20h17.40.900,Simcolourproject_2stim_asymm_v5,2020.2.10,MacIntel,60,61025ae37ef11b136ea224fe,,,,,,,,,3043,32.578125,67.37109375,1,0,0,response1disk,,7,6.5,-4.6171875,1,0,0,rectangle,6.5,-4.6171875,1,0,0,6.5,-4.6171875,1,0,0,0,59,59,129,1,,,,,,,,
,,,,,,,,,,,,,FF,,,,,,,,1.4808,,,,,,,,,,,,,,,,,,,,,,6100b86d68f33db3c5aa1609,61036f12a0280fce27023e8b,2021-07-29_20h17.40.900,Simcolourproject_2stim_asymm_v5,2020.2.10,MacIntel,60,61025ae37ef11b136ea224fe,,,,,,,,,4116,77.82421875,-26.92578125,1,0,0,response3disk,,5,2.86328125,-7.93359375,1,0,0,rectangle,2.86328125,-7.93359375,1,0,0,2.86328125,-7.93359375,1,0,0,0,60,60,117,1,,,,,,,,
,,,,,,,,,,,,,FF,,,,,,,,1.2303,,,,,,,,,,,,,,,,,,,,,,6100b86d68f33db3c5aa1609,61036f12a0280fce27023e8b,2021-07-29_20h17.40.900,Simcolourproject_2stim_asymm_v5,2020.2.10,MacIntel,60,61025ae37ef11b136ea224fe,,,,,,,,,3070,82.5859375,37.1640625,1,0,0,response1disk,,6,11.11328125,-4.2109375,1,0,0,rectangle,11.11328125,-4.2109375,1,0,0,11.11328125,-4.2109375,1,0,0,0,61,61,21,1,,,,,,,,
,,,,,,,,,,,,,FF,,,,,,,,0.8805,,,,,,,,,,,,,,,,,,,,,,6100b86d68f33db3c5aa1609,61036f12a0280fce27023e8b,2021-07-29_20h17.40.900,Simcolourproject_2stim_asymm_v5,2020.2.10,MacIntel,60,61025ae37ef11b136ea224fe,,,,,,,,,2266,50.015625,88.68359375,1,0,0,response1disk,,7,7.2890625,4.01171875,1,0,0,rectangle,7.2890625,4.01171875,1,0,0,7.2890625,4.01171875,1,0,0,0,62,62,77,1,,,,,,,,
,,,,,,,,,,,,,FF,,,,,,,,1.3967,,,,,,,,,,,,,,,,,,,,,,6100b86d68f33db3c5aa1609,61036f12a0280fce27023e8b,2021-07-29_20h17.40.900,Simcolourproject_2stim_asymm_v5,2020.2.10,MacIntel,60,61025ae37ef11b136ea224fe,,,,,,,,,973,23.4296875,-101.9179688,1,0,0,response3disk,,4,-5.953125,-1.58203125,1,0,0,rectangle,-5.953125,-1.58203125,1,0,0,-5.953125,-1.58203125,1,0,0,0,63,63,2,1,,,,,,,,
,,,,,,,,,,,,,FF,,,,,,,,0.9467,,,,,,,,,,,,,,,,,,,,,,6100b86d68f33db3c5aa1609,61036f12a0280fce27023e8b,2021-07-29_20h17.40.900,Simcolourproject_2stim_asymm_v5,2020.2.10,MacIntel,60,61025ae37ef11b136ea224fe,,,,,,,,,3065,71.54296875,36.06640625,1,0,0,response1disk,,6,1.375,8.0546875,1,0,0,rectangle,1.375,8.0546875,1,0,0,1.375,8.0546875,1,0,0,0,64,64,103,1,,,,,,,,
,,,,,,,,,,,,,FF,,,,,,,,0.9972,,,,,,,,,,,,,,,,,,,,,,6100b86d68f33db3c5aa1609,61036f12a0280fce27023e8b,2021-07-29_20h17.40.900,Simcolourproject_2stim_asymm_v5,2020.2.10,MacIntel,60,61025ae37ef11b136ea224fe,,,,,,,,,910,42.9140625,62.12109375,1,0,0,response1disk,,7,6.859375,0.8828125,1,0,0,rectangle,80.38671875,-42.93359375,1,0,0,-4.00390625,-2.453125,1,0,0,0,65,65,60,1,,response3disk_3,TRUE,5,5,"[208,149,279,51,119,290,79,220,275,53,94,66,27,50,283,268,249,46,214,166]",1.3958,rectangle
,,,,,,,,,,,,,FF,,,,,,,,1.5468,,,,,,,,,,,,,,,,,,,,,,6100b86d68f33db3c5aa1609,61036f12a0280fce27023e8b,2021-07-29_20h17.40.900,Simcolourproject_2stim_asymm_v5,2020.2.10,MacIntel,60,61025ae37ef11b136ea224fe,,,,,,,,,3028,84.8203125,-30.87890625,1,0,0,response3disk,,5,3.37109375,6.03515625,1,0,0,rectangle,3.37109375,6.03515625,1,0,0,3.37109375,6.03515625,1,0,0,0,66,66,130,1,,,,,,,,
,,,,,,,,,,,,,FF,,,,,,,,0.982,,,,,,,,,,,,,,,,,,,,,,6100b86d68f33db3c5aa1609,61036f12a0280fce27023e8b,2021-07-29_20h17.40.900,Simcolourproject_2stim_asymm_v5,2020.2.10,MacIntel,60,61025ae37ef11b136ea224fe,,,,,,,,,2201,66.515625,22.59765625,1,0,0,response1disk,,6,-1.9765625,-2.66796875,1,0,0,rectangle,-1.9765625,-2.66796875,1,0,0,-1.9765625,-2.66796875,1,0,0,0,67,67,22,1,,,,,,,,
,,,,,,,,,,,,,FF,,,,,,,,1.3305,,,,,,,,,,,,,,,,,,,,,,6100b86d68f33db3c5aa1609,61036f12a0280fce27023e8b,2021-07-29_20h17.40.900,Simcolourproject_2stim_asymm_v5,2020.2.10,MacIntel,60,61025ae37ef11b136ea224fe,,,,,,,,,244,54.72265625,-54.5390625,1,0,0,response3disk,,5,4.77734375,-6.17578125,1,0,0,rectangle,4.77734375,-6.17578125,1,0,0,4.77734375,-6.17578125,1,0,0,0,68,68,59,1,,,,,,,,
,,,,,,,,,,,,,FF,,,,,,,,1.1807,,,,,,,,,,,,,,,,,,,,,,6100b86d68f33db3c5aa1609,61036f12a0280fce27023e8b,2021-07-29_20h17.40.900,Simcolourproject_2stim_asymm_v5,2020.2.10,MacIntel,60,61025ae37ef11b136ea224fe,,,,,,,,,3663,74.70703125,32.99609375,1,0,0,response1disk,,6,0.59765625,8.18359375,1,0,0,rectangle,0.59765625,8.18359375,1,0,0,0.59765625,8.18359375,1,0,0,0,69,69,108,1,,,,,,,,
,,,,,,,,,,,,,FF,,,,,,,,0.7316,,,,,,,,,,,,,,,,,,,,,,6100b86d68f33db3c5aa1609,61036f12a0280fce27023e8b,2021-07-29_20h17.40.900,Simcolourproject_2stim_asymm_v5,2020.2.10,MacIntel,60,61025ae37ef11b136ea224fe,,,,,,,,,1227,30.859375,65.26171875,1,0,0,response1disk,,7,3.7109375,0.23828125,1,0,0,rectangle,3.7109375,0.23828125,1,0,0,3.7109375,0.23828125,1,0,0,0,70,70,114,1,,,,,,,,
,,,,,,,,,,,,,FF,,,,,,,,1.1647,,,,,,,,,,,,,,,,,,,,,,6100b86d68f33db3c5aa1609,61036f12a0280fce27023e8b,2021-07-29_20h17.40.900,Simcolourproject_2stim_asymm_v5,2020.2.10,MacIntel,60,61025ae37ef11b136ea224fe,,,,,,,,,3287,65.93359375,-28.3515625,1,0,0,response3disk,,5,0.25390625,-1.40625,1,0,0,rectangle,0.25390625,-1.40625,1,0,0,0.25390625,-1.40625,1,0,0,0,71,71,143,1,,,,,,,,
,,,,,,,,,,,,,FF,,,,,,,,0.7492,,,,,,,,,,,,,,,,,,,,,,6100b86d68f33db3c5aa1609,61036f12a0280fce27023e8b,2021-07-29_20h17.40.900,Simcolourproject_2stim_asymm_v5,2020.2.10,MacIntel,60,61025ae37ef11b136ea224fe,,,,,,,,,2041,91.9765625,38.4296875,1,0,0,response1disk,,6,-4.54296875,-2.9765625,1,0,0,rectangle,-4.54296875,-2.9765625,1,0,0,-4.54296875,-2.9765625,1,0,0,0,72,72,134,1,,,,,,,,
,,,,,,,,,,,,,FF,,,,,,,,1.4799,,,,,,,,,,,,,,,,,,,,,,6100b86d68f33db3c5aa1609,61036f12a0280fce27023e8b,2021-07-29_20h17.40.900,Simcolourproject_2stim_asymm_v5,2020.2.10,MacIntel,60,61025ae37ef11b136ea224fe,,,,,,,,,3592,39.85546875,-101.4570313,1,0,0,response3disk,,4,5.5859375,-9.12109375,1,0,0,rectangle,5.5859375,-9.12109375,1,0,0,5.5859375,-9.12109375,1,0,0,0,73,73,101,1,,,,,,,,
,,,,,,,,,,,,,FF,,,,,,,,42.1674,,,,,,,,,,,,,,,,,,,,,,6100b86d68f33db3c5aa1609,61036f12a0280fce27023e8b,2021-07-29_20h17.40.900,Simcolourproject_2stim_asymm_v5,2020.2.10,MacIntel,60,61025ae37ef11b136ea224fe,,,,,,,,,1833,102.4882813,18.0234375,1,0,0,response1disk,,6,1.9296875,9.23828125,1,0,0,rectangle,1.9296875,9.23828125,1,0,0,1.9296875,9.23828125,1,0,0,0,74,74,7,1,,,,,,,,
,,,,,,,,,,,,,FF,,,,,,,,1.164,,,,,,,,,,,,,,,,,,,,,,6100b86d68f33db3c5aa1609,61036f12a0280fce27023e8b,2021-07-29_20h17.40.900,Simcolourproject_2stim_asymm_v5,2020.2.10,MacIntel,60,61025ae37ef11b136ea224fe,,,,,,,,,269,94.05859375,-30.6640625,1,0,0,response3disk,,5,7.6640625,2.1640625,1,0,0,rectangle,7.6640625,2.1640625,1,0,0,7.6640625,2.1640625,1,0,0,0,75,75,118,1,,,,,,,,
,,,,,,,,,,,,,FF,,,,,,,,1.8278,,,,,,,,,,,,,,,,,,,,,,6100b86d68f33db3c5aa1609,61036f12a0280fce27023e8b,2021-07-29_20h17.40.900,Simcolourproject_2stim_asymm_v5,2020.2.10,MacIntel,60,61025ae37ef11b136ea224fe,,,,,,,,,3457,91.3125,37.12109375,1,0,0,response1disk,,6,2.92578125,-10.77734375,1,0,0,rectangle,2.92578125,-10.77734375,1,0,0,2.92578125,-10.77734375,1,0,0,0,76,76,124,1,,,,,,,,
,,,,,,,,,,,,,FF,,,,,,,,1.1128,,,,,,,,,,,,,,,,,,,,,,6100b86d68f33db3c5aa1609,61036f12a0280fce27023e8b,2021-07-29_20h17.40.900,Simcolourproject_2stim_asymm_v5,2020.2.10,MacIntel,60,61025ae37ef11b136ea224fe,,,,,,,,,2260,51.0859375,70.9296875,1,0,0,response1disk,,7,8.73046875,11.9921875,1,0,0,rectangle,8.73046875,11.9921875,1,0,0,8.73046875,11.9921875,1,0,0,0,77,77,146,1,,,,,,,,
,,,,,,,,,,,,,FF,,,,,,,,0.998,,,,,,,,,,,,,,,,,,,,,,6100b86d68f33db3c5aa1609,61036f12a0280fce27023e8b,2021-07-29_20h17.40.900,Simcolourproject_2stim_asymm_v5,2020.2.10,MacIntel,60,61025ae37ef11b136ea224fe,,,,,,,,,407,89.30859375,23.42578125,1,0,0,response1disk,,6,7.54296875,4.42578125,1,0,0,rectangle,-36.67578125,-82.8828125,1,0,0,-12.05078125,-2.5625,1,0,0,0,78,78,157,1,,response5disk_3,TRUE,3,3,"[208,149,279,51,119,290,79,220,275,53,94,66,27,50,283,268,249,46,214,166]",1.4623,rectangle
,,,,,,,,,,,,,FF,,,,,,,,1.1301,,,,,,,,,,,,,,,,,,,,,,6100b86d68f33db3c5aa1609,61036f12a0280fce27023e8b,2021-07-29_20h17.40.900,Simcolourproject_2stim_asymm_v5,2020.2.10,MacIntel,60,61025ae37ef11b136ea224fe,,,,,,,,,888,-70.41015625,-28.25390625,1,0,0,response5disk,,2,-6.61328125,-0.83984375,1,0,0,rectangle,-6.61328125,-0.83984375,1,0,0,-6.61328125,-0.83984375,1,0,0,0,79,79,147,1,,,,,,,,
,,,,,,,,,,,,,FF,,,,,,,,1.0309,,,,,,,,,,,,,,,,,,,,,,6100b86d68f33db3c5aa1609,61036f12a0280fce27023e8b,2021-07-29_20h17.40.900,Simcolourproject_2stim_asymm_v5,2020.2.10,MacIntel,60,61025ae37ef11b136ea224fe,,,,,,,,,2577,86.1328125,51.77734375,1,0,0,response1disk,,6,-0.67578125,-2.28125,1,0,0,rectangle,-0.67578125,-2.28125,1,0,0,-0.67578125,-2.28125,1,0,0,0,80,80,79,1,,,,,,,,
,,,,,,,,,,,,,FF,,,,,,,,0.7987,,,,,,,,,,,,,,,,,,,,,,6100b86d68f33db3c5aa1609,61036f12a0280fce27023e8b,2021-07-29_20h17.40.900,Simcolourproject_2stim_asymm_v5,2020.2.10,MacIntel,60,61025ae37ef11b136ea224fe,,,,,,,,,514,75.4375,38.4765625,1,0,0,response1disk,,6,14.3359375,13.78125,1,0,0,rectangle,14.3359375,13.78125,1,0,0,14.3359375,13.78125,1,0,0,0,81,81,91,1,,,,,,,,
,,,,,,,,,,,,,FF,,,,,,,,0.7495,,,,,,,,,,,,,,,,,,,,,,6100b86d68f33db3c5aa1609,61036f12a0280fce27023e8b,2021-07-29_20h17.40.900,Simcolourproject_2stim_asymm_v5,2020.2.10,MacIntel,60,61025ae37ef11b136ea224fe,,,,,,,,,3378,37.875,82.37109375,1,0,0,response1disk,,7,0.79296875,4.09375,1,0,0,rectangle,0.79296875,4.09375,1,0,0,0.79296875,4.09375,1,0,0,0,82,82,135,1,,,,,,,,
,,,,,,,,,,,,,FF,,,,,,,,2.3605,,,,,,,,,,,,,,,,,,,,,,6100b86d68f33db3c5aa1609,61036f12a0280fce27023e8b,2021-07-29_20h17.40.900,Simcolourproject_2stim_asymm_v5,2020.2.10,MacIntel,60,61025ae37ef11b136ea224fe,,,,,,,,,2147,32.5546875,93.4375,1,0,0,response1disk,,7,5.21484375,6.375,1,0,0,rectangle,5.21484375,6.375,1,0,0,5.21484375,6.375,1,0,0,0,83,83,139,1,,,,,,,,
,,,,,,,,,,,,,FF,,,,,,,,1.0803,,,,,,,,,,,,,,,,,,,,,,6100b86d68f33db3c5aa1609,61036f12a0280fce27023e8b,2021-07-29_20h17.40.900,Simcolourproject_2stim_asymm_v5,2020.2.10,MacIntel,60,61025ae37ef11b136ea224fe,,,,,,,,,3153,-44.4921875,-71.44921875,1,0,0,response5disk,,3,12.875,-6.37109375,1,0,0,rectangle,12.875,-6.37109375,1,0,0,12.875,-6.37109375,1,0,0,0,84,84,69,1,,,,,,,,
,,,,,,,,,,,,,FF,,,,,,,,1.047,,,,,,,,,,,,,,,,,,,,,,6100b86d68f33db3c5aa1609,61036f12a0280fce27023e8b,2021-07-29_20h17.40.900,Simcolourproject_2stim_asymm_v5,2020.2.10,MacIntel,60,61025ae37ef11b136ea224fe,,,,,,,,,1716,28.02734375,87.10546875,1,0,0,response1disk,,7,8.3359375,8.9453125,1,0,0,rectangle,8.3359375,8.9453125,1,0,0,8.3359375,8.9453125,1,0,0,0,85,85,145,1,,,,,,,,
,,,,,,,,,,,,,FF,,,,,,,,1.1482,,,,,,,,,,,,,,,,,,,,,,6100b86d68f33db3c5aa1609,61036f12a0280fce27023e8b,2021-07-29_20h17.40.900,Simcolourproject_2stim_asymm_v5,2020.2.10,MacIntel,60,61025ae37ef11b136ea224fe,,,,,,,,,4264,90.65234375,36.609375,1,0,0,response1disk,,6,2.60546875,4.75390625,1,0,0,rectangle,2.60546875,4.75390625,1,0,0,2.60546875,4.75390625,1,0,0,0,86,86,74,1,,,,,,,,
,,,,,,,,,,,,,FF,,,,,,,,0.8635,,,,,,,,,,,,,,,,,,,,,,6100b86d68f33db3c5aa1609,61036f12a0280fce27023e8b,2021-07-29_20h17.40.900,Simcolourproject_2stim_asymm_v5,2020.2.10,MacIntel,60,61025ae37ef11b136ea224fe,,,,,,,,,4069,26.52734375,91.6640625,1,0,0,response1disk,,7,-4.0625,4.89453125,1,0,0,rectangle,-4.0625,4.89453125,1,0,0,-4.0625,4.89453125,1,0,0,0,87,87,132,1,,,,,,,,
,,,,,,,,,,,,,FF,,,,,,,,0.9313,,,,,,,,,,,,,,,,,,,,,,6100b86d68f33db3c5aa1609,61036f12a0280fce27023e8b,2021-07-29_20h17.40.900,Simcolourproject_2stim_asymm_v5,2020.2.10,MacIntel,60,61025ae37ef11b136ea224fe,,,,,,,,,4045,53.84375,91.22265625,1,0,0,response1disk,,7,3.8671875,1.92578125,1,0,0,rectangle,3.8671875,1.92578125,1,0,0,3.8671875,1.92578125,1,0,0,0,88,88,85,1,,,,,,,,
,,,,,,,,,,,,,FF,,,,,,,,0.9485,,,,,,,,,,,,,,,,,,,,,,6100b86d68f33db3c5aa1609,61036f12a0280fce27023e8b,2021-07-29_20h17.40.900,Simcolourproject_2stim_asymm_v5,2020.2.10,MacIntel,60,61025ae37ef11b136ea224fe,,,,,,,,,3507,78.0703125,36.05859375,1,0,0,response1disk,,6,-5.01171875,-8.390625,1,0,0,rectangle,-5.01171875,-8.390625,1,0,0,-5.01171875,-8.390625,1,0,0,0,89,89,140,1,,,,,,,,
,,,,,,,,,,,,,FF,,,,,,,,1.4126,,,,,,,,,,,,,,,,,,,,,,6100b86d68f33db3c5aa1609,61036f12a0280fce27023e8b,2021-07-29_20h17.40.900,Simcolourproject_2stim_asymm_v5,2020.2.10,MacIntel,60,61025ae37ef11b136ea224fe,,,,,,,,,4011,50.9921875,78.4296875,1,0,0,response1disk,,7,0.828125,11.62890625,1,0,0,rectangle,0.828125,11.62890625,1,0,0,0.828125,11.62890625,1,0,0,0,90,90,35,1,,,,,,,,
,,,,,,,,,,,,,FF,,,,,,,,1.2629,,,,,,,,,,,,,,,,,,,,,,6100b86d68f33db3c5aa1609,61036f12a0280fce27023e8b,2021-07-29_20h17.40.900,Simcolourproject_2stim_asymm_v5,2020.2.10,MacIntel,60,61025ae37ef11b136ea224fe,,,,,,,,,4306,-50.2890625,-77.1875,1,0,0,response5disk,,3,-2.83984375,-0.71875,1,0,0,rectangle,-2.83984375,-0.71875,1,0,0,-2.83984375,-0.71875,1,0,0,0,91,91,149,1,,,,,,,,
,,,,,,,,,,,,,FF,,,,,,,,1.4288,,,,,,,,,,,,,,,,,,,,,,6100b86d68f33db3c5aa1609,61036f12a0280fce27023e8b,2021-07-29_20h17.40.900,Simcolourproject_2stim_asymm_v5,2020.2.10,MacIntel,60,61025ae37ef11b136ea224fe,,,,,,,,,2702,29.96484375,-87.16015625,1,0,0,response3disk,,4,6.69921875,-11.09375,1,0,0,rectangle,6.69921875,-11.09375,1,0,0,6.69921875,-11.09375,1,0,0,0,92,92,127,1,,,,,,,,
,,,,,,,,,,,,,FF,,,,,,,,1.3489,,,,,,,,,,,,,,,,,,,,,,6100b86d68f33db3c5aa1609,61036f12a0280fce27023e8b,2021-07-29_20h17.40.900,Simcolourproject_2stim_asymm_v5,2020.2.10,MacIntel,60,61025ae37ef11b136ea224fe,,,,,,,,,2616,36.6484375,71.1171875,1,0,0,response1disk,,7,7.80078125,4.078125,1,0,0,rectangle,-44.359375,87.453125,1,0,0,-1.99609375,-5.08984375,1,0,0,0,93,93,28,1,,response7disk_3,TRUE,0,0,"[208,149,279,51,119,290,79,220,275,53,94,66,27,50,283,268,249,46,214,166]",2.2274,rectangle
,,,,,,,,,,,,,FF,,,,,,,,1.0145,,,,,,,,,,,,,,,,,,,,,,6100b86d68f33db3c5aa1609,61036f12a0280fce27023e8b,2021-07-29_20h17.40.900,Simcolourproject_2stim_asymm_v5,2020.2.10,MacIntel,60,61025ae37ef11b136ea224fe,,,,,,,,,2245,88.26953125,32.71875,1,0,0,response1disk,,6,4.59375,0.68359375,1,0,0,rectangle,4.59375,0.68359375,1,0,0,4.59375,0.68359375,1,0,0,0,94,94,122,1,,,,,,,,
,,,,,,,,,,,,,FF,,,,,,,,1.3969,,,,,,,,,,,,,,,,,,,,,,6100b86d68f33db3c5aa1609,61036f12a0280fce27023e8b,2021-07-29_20h17.40.900,Simcolourproject_2stim_asymm_v5,2020.2.10,MacIntel,60,61025ae37ef11b136ea224fe,,,,,,,,,3117,78.74609375,-34.89453125,1,0,0,response3disk,,5,-19.8515625,1.54296875,1,0,0,rectangle,-19.8515625,1.54296875,1,0,0,-19.8515625,1.54296875,1,0,0,0,95,95,14,1,,,,,,,,
,,,,,,,,,,,,,FF,,,,,,,,0.866,,,,,,,,,,,,,,,,,,,,,,6100b86d68f33db3c5aa1609,61036f12a0280fce27023e8b,2021-07-29_20h17.40.900,Simcolourproject_2stim_asymm_v5,2020.2.10,MacIntel,60,61025ae37ef11b136ea224fe,,,,,,,,,2495,40.67578125,64.89453125,1,0,0,response1disk,,7,2.4609375,5.83984375,1,0,0,rectangle,2.4609375,5.83984375,1,0,0,2.4609375,5.83984375,1,0,0,0,96,96,136,1,,,,,,,,
,,,,,,,,,,,,,FF,,,,,,,,0.748,,,,,,,,,,,,,,,,,,,,,,6100b86d68f33db3c5aa1609,61036f12a0280fce27023e8b,2021-07-29_20h17.40.900,Simcolourproject_2stim_asymm_v5,2020.2.10,MacIntel,60,61025ae37ef11b136ea224fe,,,,,,,,,3659,29.57421875,84.9609375,1,0,0,response1disk,,7,1.54296875,7.20703125,1,0,0,rectangle,1.54296875,7.20703125,1,0,0,1.54296875,7.20703125,1,0,0,0,97,97,111,1,,,,,,,,
,,,,,,,,,,,,,FF,,,,,,,,3.4909,,,,,,,,,,,,,,,,,,,,,,6100b86d68f33db3c5aa1609,61036f12a0280fce27023e8b,2021-07-29_20h17.40.900,Simcolourproject_2stim_asymm_v5,2020.2.10,MacIntel,60,61025ae37ef11b136ea224fe,,,,,,,,,183,49.23828125,78.29296875,1,0,0,response1disk,,7,1.83984375,6.6796875,1,0,0,rectangle,1.83984375,6.6796875,1,0,0,1.83984375,6.6796875,1,0,0,0,98,98,102,1,,,,,,,,
,,,,,,,,,,,,,FF,,,,,,,,1.0485,,,,,,,,,,,,,,,,,,,,,,6100b86d68f33db3c5aa1609,61036f12a0280fce27023e8b,2021-07-29_20h17.40.900,Simcolourproject_2stim_asymm_v5,2020.2.10,MacIntel,60,61025ae37ef11b136ea224fe,,,,,,,,,2446,41.91796875,80.88671875,1,0,0,response1disk,,7,8.65625,12.2421875,1,0,0,rectangle,8.65625,12.2421875,1,0,0,8.65625,12.2421875,1,0,0,0,99,99,125,1,,,,,,,,
,,,,,,,,,,,,,FF,,,,,,,,0.9804,,,,,,,,,,,,,,,,,,,,,,6100b86d68f33db3c5aa1609,61036f12a0280fce27023e8b,2021-07-29_20h17.40.900,Simcolourproject_2stim_asymm_v5,2020.2.10,MacIntel,60,61025ae37ef11b136ea224fe,,,,,,,,,3518,-65.95703125,-35.37890625,1,0,0,response5disk,,2,-5.8203125,2.3203125,1,0,0,rectangle,-5.8203125,2.3203125,1,0,0,-5.8203125,2.3203125,1,0,0,0,100,100,81,1,,,,,,,,
,,,,,,,,,,,,,FF,,,,,,,,0.981,,,,,,,,,,,,,,,,,,,,,,6100b86d68f33db3c5aa1609,61036f12a0280fce27023e8b,2021-07-29_20h17.40.900,Simcolourproject_2stim_asymm_v5,2020.2.10,MacIntel,60,61025ae37ef11b136ea224fe,,,,,,,,,1918,29.265625,75.4375,1,0,0,response1disk,,7,-12.46875,1.83984375,1,0,0,rectangle,-12.46875,1.83984375,1,0,0,-12.46875,1.83984375,1,0,0,0,101,101,95,1,,,,,,,,
,,,,,,,,,,,,,FF,,,,,,,,1.3312,,,,,,,,,,,,,,,,,,,,,,6100b86d68f33db3c5aa1609,61036f12a0280fce27023e8b,2021-07-29_20h17.40.900,Simcolourproject_2stim_asymm_v5,2020.2.10,MacIntel,60,61025ae37ef11b136ea224fe,,,,,,,,,3019,31.87109375,78.6328125,1,0,0,response1disk,,7,-7.6640625,0.41015625,1,0,0,rectangle,-7.6640625,0.41015625,1,0,0,-7.6640625,0.41015625,1,0,0,0,102,102,159,1,,,,,,,,
,,,,,,,,,,,,,FF,,,,,,,,1.5955,,,,,,,,,,,,,,,,,,,,,,6100b86d68f33db3c5aa1609,61036f12a0280fce27023e8b,2021-07-29_20h17.40.900,Simcolourproject_2stim_asymm_v5,2020.2.10,MacIntel,60,61025ae37ef11b136ea224fe,,,,,,,,,796,28.328125,95.26171875,1,0,0,response1disk,,7,-2.59375,-1.62890625,1,0,0,rectangle,-2.59375,-1.62890625,1,0,0,-2.59375,-1.62890625,1,0,0,0,103,103,11,1,,,,,,,,
,,,,,,,,,,,,,FF,,,,,,,,0.8818,,,,,,,,,,,,,,,,,,,,,,6100b86d68f33db3c5aa1609,61036f12a0280fce27023e8b,2021-07-29_20h17.40.900,Simcolourproject_2stim_asymm_v5,2020.2.10,MacIntel,60,61025ae37ef11b136ea224fe,,,,,,,,,1767,77.2421875,46.65625,1,0,0,response1disk,,6,2.68359375,7.0390625,1,0,0,rectangle,2.68359375,7.0390625,1,0,0,2.68359375,7.0390625,1,0,0,0,104,104,131,1,,,,,,,,
,,,,,,,,,,,,,FF,,,,,,,,0.6649,,,,,,,,,,,,,,,,,,,,,,6100b86d68f33db3c5aa1609,61036f12a0280fce27023e8b,2021-07-29_20h17.40.900,Simcolourproject_2stim_asymm_v5,2020.2.10,MacIntel,60,61025ae37ef11b136ea224fe,,,,,,,,,1949,47.15234375,72.5859375,1,0,0,response1disk,,7,1.13671875,-2.1015625,1,0,0,rectangle,1.13671875,-2.1015625,1,0,0,1.13671875,-2.1015625,1,0,0,0,105,105,31,1,,,,,,,,
,,,,,,,,,,,,,FF,,,,,,,,1.4809,,,,,,,,,,,,,,,,,,,,,,6100b86d68f33db3c5aa1609,61036f12a0280fce27023e8b,2021-07-29_20h17.40.900,Simcolourproject_2stim_asymm_v5,2020.2.10,MacIntel,60,61025ae37ef11b136ea224fe,,,,,,,,,192,-35.54296875,-66.0390625,1,0,0,response5disk,,3,-0.46484375,2.99609375,1,0,0,rectangle,-0.46484375,2.99609375,1,0,0,-0.46484375,2.99609375,1,0,0,0,106,106,34,1,,,,,,,,
,,,,,,,,,,,,,FF,,,,,,,,66.0431,,,,,,,,,,,,,,,,,,,,,,6100b86d68f33db3c5aa1609,61036f12a0280fce27023e8b,2021-07-29_20h17.40.900,Simcolourproject_2stim_asymm_v5,2020.2.10,MacIntel,60,61025ae37ef11b136ea224fe,,,,,,,,,3324,46.7578125,88.68359375,1,0,0,response1disk,,7,-2.33984375,-3.15625,1,0,0,rectangle,-2.33984375,-3.15625,1,0,0,-2.33984375,-3.15625,1,0,0,0,107,107,38,1,,,,,,,,
,,,,,,,,,,,,,FF,,,,,,,,2.4948,,,,,,,,,,,,,,,,,,,,,,6100b86d68f33db3c5aa1609,61036f12a0280fce27023e8b,2021-07-29_20h17.40.900,Simcolourproject_2stim_asymm_v5,2020.2.10,MacIntel,60,61025ae37ef11b136ea224fe,,,,,,,,,3861,70.89453125,-40.82421875,1,0,0,response3disk,,5,-3.28515625,-0.015625,1,0,0,rectangle,-3.28515625,-0.015625,1,0,0,-3.28515625,-0.015625,1,0,0,0,108,108,126,1,,,,,,,,
,,,,,,,,,,,,,FF,,,,,,,,1.5634,,,,,,,,,,,,,,,,,,,,,,6100b86d68f33db3c5aa1609,61036f12a0280fce27023e8b,2021-07-29_20h17.40.900,Simcolourproject_2stim_asymm_v5,2020.2.10,MacIntel,60,61025ae37ef11b136ea224fe,,,,,,,,,148,33.875,-89.421875,1,0,0,response3disk,,4,-6.83984375,-3.73828125,1,0,0,rectangle,-6.83984375,-3.73828125,1,0,0,-6.83984375,-3.73828125,1,0,0,0,109,109,57,1,,,,,,,,
,,,,,,,,,,,,,FF,,,,,,,,1.5633,,,,,,,,,,,,,,,,,,,,,,6100b86d68f33db3c5aa1609,61036f12a0280fce27023e8b,2021-07-29_20h17.40.900,Simcolourproject_2stim_asymm_v5,2020.2.10,MacIntel,60,61025ae37ef11b136ea224fe,,,,,,,,,4352,-79.7421875,-24.73828125,1,0,0,response5disk,,2,-11.83203125,-6.01171875,1,0,0,rectangle,-11.83203125,-6.01171875,1,0,0,-11.83203125,-6.01171875,1,0,0,0,110,110,68,1,,,,,,,,
,,,,,,,,,,,,,FF,,,,,,,,1.5493,,,,,,,,,,,,,,,,,,,,,,6100b86d68f33db3c5aa1609,61036f12a0280fce27023e8b,2021-07-29_20h17.40.900,Simcolourproject_2stim_asymm_v5,2020.2.10,MacIntel,60,61025ae37ef11b136ea224fe,,,,,,,,,3647,51.4296875,-75.78515625,1,0,0,response3disk,,4,-8.1328125,-2.1171875,1,0,0,rectangle,-8.1328125,-2.1171875,1,0,0,-8.1328125,-2.1171875,1,0,0,0,111,111,138,1,,,,,,,,
,,,,,,,,,,,,,FF,,,,,,,,1.414,,,,,,,,,,,,,,,,,,,,,,6100b86d68f33db3c5aa1609,61036f12a0280fce27023e8b,2021-07-29_20h17.40.900,Simcolourproject_2stim_asymm_v5,2020.2.10,MacIntel,60,61025ae37ef11b136ea224fe,,,,,,,,,4169,27.86328125,-88.48828125,1,0,0,response3disk,,4,-4.72265625,-5.81640625,1,0,0,rectangle,-4.72265625,-5.81640625,1,0,0,-4.72265625,-5.81640625,1,0,0,0,112,112,80,1,,,,,,,,
,,,,,,,,,,,,,FF,,,,,,,,1.7792,,,,,,,,,,,,,,,,,,,,,,6100b86d68f33db3c5aa1609,61036f12a0280fce27023e8b,2021-07-29_20h17.40.900,Simcolourproject_2stim_asymm_v5,2020.2.10,MacIntel,60,61025ae37ef11b136ea224fe,,,,,,,,,2150,102.6914063,37.79296875,1,0,0,response1disk,,6,4.8515625,-6.52734375,1,0,0,rectangle,4.8515625,-6.52734375,1,0,0,4.8515625,-6.52734375,1,0,0,0,113,113,107,1,,,,,,,,
,,,,,,,,,,,,,FF,,,,,,,,0.8817,,,,,,,,,,,,,,,,,,,,,,6100b86d68f33db3c5aa1609,61036f12a0280fce27023e8b,2021-07-29_20h17.40.900,Simcolourproject_2stim_asymm_v5,2020.2.10,MacIntel,60,61025ae37ef11b136ea224fe,,,,,,,,,2324,32.23046875,84.40234375,1,0,0,response1disk,,7,5.37890625,2.8515625,1,0,0,rectangle,5.37890625,2.8515625,1,0,0,5.37890625,2.8515625,1,0,0,0,114,114,46,1,,,,,,,,
,,,,,,,,,,,,,FF,,,,,,,,0.966,,,,,,,,,,,,,,,,,,,,,,6100b86d68f33db3c5aa1609,61036f12a0280fce27023e8b,2021-07-29_20h17.40.900,Simcolourproject_2stim_asymm_v5,2020.2.10,MacIntel,60,61025ae37ef11b136ea224fe,,,,,,,,,2999,-82.140625,-29.265625,1,0,0,response5disk,,2,-15.52734375,-0.02734375,1,0,0,rectangle,-15.52734375,-0.02734375,1,0,0,-15.52734375,-0.02734375,1,0,0,0,115,115,97,1,,,,,,,,
,,,,,,,,,,,,,FF,,,,,,,,1.4125,,,,,,,,,,,,,,,,,,,,,,6100b86d68f33db3c5aa1609,61036f12a0280fce27023e8b,2021-07-29_20h17.40.900,Simcolourproject_2stim_asymm_v5,2020.2.10,MacIntel,60,61025ae37ef11b136ea224fe,,,,,,,,,2489,37.265625,-83.296875,1,0,0,response3disk,,4,10.44140625,-10.55859375,1,0,0,rectangle,10.44140625,-10.55859375,1,0,0,10.44140625,-10.55859375,1,0,0,0,116,116,88,1,,,,,,,,
,,,,,,,,,,,,,FF,,,,,,,,1.3122,,,,,,,,,,,,,,,,,,,,,,6100b86d68f33db3c5aa1609,61036f12a0280fce27023e8b,2021-07-29_20h17.40.900,Simcolourproject_2stim_asymm_v5,2020.2.10,MacIntel,60,61025ae37ef11b136ea224fe,,,,,,,,,2215,88.015625,47.78515625,1,0,0,response1disk,,6,-0.40625,12.67578125,1,0,0,rectangle,-0.40625,12.67578125,1,0,0,-0.40625,12.67578125,1,0,0,0,117,117,39,1,,,,,,,,
,,,,,,,,,,,,,FF,,,,,,,,2.5099,,,,,,,,,,,,,,,,,,,,,,6100b86d68f33db3c5aa1609,61036f12a0280fce27023e8b,2021-07-29_20h17.40.900,Simcolourproject_2stim_asymm_v5,2020.2.10,MacIntel,60,61025ae37ef11b136ea224fe,,,,,,,,,4330,70.69140625,-39.94921875,1,0,0,response3disk,,5,-8.9921875,15.77734375,1,0,0,rectangle,37.828125,-83.21875,1,0,0,-12.15234375,-0.95703125,1,0,0,0,118,118,119,1,,response3disk_3,TRUE,4,4,"[208,149,279,51,119,290,79,220,275,53,94,66,27,50,283,268,249,46,214,166]",1.3638,rectangle
,,,,,,,,,,,,,FF,,,,,,,,2.0958,,,,,,,,,,,,,,,,,,,,,,6100b86d68f33db3c5aa1609,61036f12a0280fce27023e8b,2021-07-29_20h17.40.900,Simcolourproject_2stim_asymm_v5,2020.2.10,MacIntel,60,61025ae37ef11b136ea224fe,,,,,,,,,17,39.12890625,90.40625,1,0,0,response1disk,,7,2.48828125,-11.7578125,1,0,0,rectangle,2.48828125,-11.7578125,1,0,0,2.48828125,-11.7578125,1,0,0,0,119,119,53,1,,,,,,,,
,,,,,,,,,,,,,FF,,,,,,,,1.3642,,,,,,,,,,,,,,,,,,,,,,6100b86d68f33db3c5aa1609,61036f12a0280fce27023e8b,2021-07-29_20h17.40.900,Simcolourproject_2stim_asymm_v5,2020.2.10,MacIntel,60,61025ae37ef11b136ea224fe,,,,,,,,,3871,82.5859375,34.74609375,1,0,0,response1disk,,6,-7.63671875,-6.1484375,1,0,0,rectangle,-7.63671875,-6.1484375,1,0,0,-7.63671875,-6.1484375,1,0,0,0,120,120,5,1,,,,,,,,
,,,,,,,,,,,,,FF,,,,,,,,0.7833,,,,,,,,,,,,,,,,,,,,,,6100b86d68f33db3c5aa1609,61036f12a0280fce27023e8b,2021-07-29_20h17.40.900,Simcolourproject_2stim_asymm_v5,2020.2.10,MacIntel,60,61025ae37ef11b136ea224fe,,,,,,,,,320,30.58984375,84.48046875,1,0,0,response1disk,,7,7.9140625,5.35546875,1,0,0,rectangle,7.9140625,5.35546875,1,0,0,7.9140625,5.35546875,1,0,0,0,121,121,144,1,,,,,,,,
,,,,,,,,,,,,,FF,,,,,,,,0.8807,,,,,,,,,,,,,,,,,,,,,,6100b86d68f33db3c5aa1609,61036f12a0280fce27023e8b,2021-07-29_20h17.40.900,Simcolourproject_2stim_asymm_v5,2020.2.10,MacIntel,60,61025ae37ef11b136ea224fe,,,,,,,,,4342,31.0703125,89.85546875,1,0,0,response1disk,,7,0.58984375,4.625,1,0,0,rectangle,0.58984375,4.625,1,0,0,0.58984375,4.625,1,0,0,0,122,122,100,1,,,,,,,,
,,,,,,,,,,,,,FF,,,,,,,,25.2224,,,,,,,,,,,,,,,,,,,,,,6100b86d68f33db3c5aa1609,61036f12a0280fce27023e8b,2021-07-29_20h17.40.900,Simcolourproject_2stim_asymm_v5,2020.2.10,MacIntel,60,61025ae37ef11b136ea224fe,,,,,,,,,2004,74.00390625,36.80859375,1,0,0,response1disk,,6,-4.25390625,0.015625,1,0,0,rectangle,-4.25390625,0.015625,1,0,0,-4.25390625,0.015625,1,0,0,0,123,123,30,1,,,,,,,,
,,,,,,,,,,,,,FF,,,,,,,,1.1144,,,,,,,,,,,,,,,,,,,,,,6100b86d68f33db3c5aa1609,61036f12a0280fce27023e8b,2021-07-29_20h17.40.900,Simcolourproject_2stim_asymm_v5,2020.2.10,MacIntel,60,61025ae37ef11b136ea224fe,,,,,,,,,3881,-77.984375,-42.74609375,1,0,0,response5disk,,2,-13.5234375,-3.09765625,1,0,0,rectangle,-13.5234375,-3.09765625,1,0,0,-13.5234375,-3.09765625,1,0,0,0,124,124,61,1,,,,,,,,
,,,,,,,,,,,,,FF,,,,,,,,0.9314,,,,,,,,,,,,,,,,,,,,,,6100b86d68f33db3c5aa1609,61036f12a0280fce27023e8b,2021-07-29_20h17.40.900,Simcolourproject_2stim_asymm_v5,2020.2.10,MacIntel,60,61025ae37ef11b136ea224fe,,,,,,,,,3083,75.8984375,31.73046875,1,0,0,response1disk,,6,18.1484375,5.859375,1,0,0,rectangle,18.1484375,5.859375,1,0,0,18.1484375,5.859375,1,0,0,0,125,125,20,1,,,,,,,,
,,,,,,,,,,,,,FF,,,,,,,,0.7483,,,,,,,,,,,,,,,,,,,,,,6100b86d68f33db3c5aa1609,61036f12a0280fce27023e8b,2021-07-29_20h17.40.900,Simcolourproject_2stim_asymm_v5,2020.2.10,MacIntel,60,61025ae37ef11b136ea224fe,,,,,,,,,1037,71.92578125,51.515625,1,0,0,response1disk,,6,16.98046875,9.55078125,1,0,0,rectangle,16.98046875,9.55078125,1,0,0,16.98046875,9.55078125,1,0,0,0,126,126,18,1,,,,,,,,
,,,,,,,,,,,,,FF,,,,,,,,1.0972,,,,,,,,,,,,,,,,,,,,,,6100b86d68f33db3c5aa1609,61036f12a0280fce27023e8b,2021-07-29_20h17.40.900,Simcolourproject_2stim_asymm_v5,2020.2.10,MacIntel,60,61025ae37ef11b136ea224fe,,,,,,,,,3339,33.39453125,-107.7851563,1,0,0,response3disk,,4,2.99609375,8.23046875,1,0,0,rectangle,2.99609375,8.23046875,1,0,0,2.99609375,8.23046875,1,0,0,0,127,127,27,1,,,,,,,,
,,,,,,,,,,,,,FF,,,,,,,,1.0476,,,,,,,,,,,,,,,,,,,,,,6100b86d68f33db3c5aa1609,61036f12a0280fce27023e8b,2021-07-29_20h17.40.900,Simcolourproject_2stim_asymm_v5,2020.2.10,MacIntel,60,61025ae37ef11b136ea224fe,,,,,,,,,2979,92.9140625,46.6796875,1,0,0,response1disk,,6,3.51171875,-0.765625,1,0,0,rectangle,3.51171875,-0.765625,1,0,0,3.51171875,-0.765625,1,0,0,0,128,128,56,1,,,,,,,,
,,,,,,,,,,,,,FF,,,,,,,,1.2983,,,,,,,,,,,,,,,,,,,,,,6100b86d68f33db3c5aa1609,61036f12a0280fce27023e8b,2021-07-29_20h17.40.900,Simcolourproject_2stim_asymm_v5,2020.2.10,MacIntel,60,61025ae37ef11b136ea224fe,,,,,,,,,3451,44.32421875,91.1328125,1,0,0,response1disk,,7,2.88671875,9.296875,1,0,0,rectangle,2.88671875,9.296875,1,0,0,2.88671875,9.296875,1,0,0,0,129,129,9,1,,,,,,,,
,,,,,,,,,,,,,FF,,,,,,,,0.7156,,,,,,,,,,,,,,,,,,,,,,6100b86d68f33db3c5aa1609,61036f12a0280fce27023e8b,2021-07-29_20h17.40.900,Simcolourproject_2stim_asymm_v5,2020.2.10,MacIntel,60,61025ae37ef11b136ea224fe,,,,,,,,,3301,80.9375,25.36328125,1,0,0,response1disk,,6,19.1171875,-1.7421875,1,0,0,rectangle,19.1171875,-1.7421875,1,0,0,19.1171875,-1.7421875,1,0,0,0,130,130,98,1,,,,,,,,
,,,,,,,,,,,,,FF,,,,,,,,0.9811,,,,,,,,,,,,,,,,,,,,,,6100b86d68f33db3c5aa1609,61036f12a0280fce27023e8b,2021-07-29_20h17.40.900,Simcolourproject_2stim_asymm_v5,2020.2.10,MacIntel,60,61025ae37ef11b136ea224fe,,,,,,,,,277,-48.40625,-86.92578125,1,0,0,response5disk,,3,-2.125,-1.96875,1,0,0,rectangle,-2.125,-1.96875,1,0,0,-2.125,-1.96875,1,0,0,0,131,131,112,1,,,,,,,,
,,,,,,,,,,,,,FF,,,,,,,,1.7299,,,,,,,,,,,,,,,,,,,,,,6100b86d68f33db3c5aa1609,61036f12a0280fce27023e8b,2021-07-29_20h17.40.900,Simcolourproject_2stim_asymm_v5,2020.2.10,MacIntel,60,61025ae37ef11b136ea224fe,,,,,,,,,3983,87.90234375,-22.6484375,1,0,0,response3disk,,5,30.2265625,-11.30078125,1,0,0,rectangle,30.2265625,-11.30078125,1,0,0,30.2265625,-11.30078125,1,0,0,0,132,132,37,1,,,,,,,,
,,,,,,,,,,,,,FF,,,,,,,,1.2815,,,,,,,,,,,,,,,,,,,,,,6100b86d68f33db3c5aa1609,61036f12a0280fce27023e8b,2021-07-29_20h17.40.900,Simcolourproject_2stim_asymm_v5,2020.2.10,MacIntel,60,61025ae37ef11b136ea224fe,,,,,,,,,686,68.21484375,-35.46484375,1,0,0,response3disk,,5,4.5625,-4.25,1,0,0,rectangle,4.5625,-4.25,1,0,0,4.5625,-4.25,1,0,0,0,133,133,128,1,,,,,,,,
,,,,,,,,,,,,,FF,,,,,,,,0.8306,,,,,,,,,,,,,,,,,,,,,,6100b86d68f33db3c5aa1609,61036f12a0280fce27023e8b,2021-07-29_20h17.40.900,Simcolourproject_2stim_asymm_v5,2020.2.10,MacIntel,60,61025ae37ef11b136ea224fe,,,,,,,,,3958,60.1796875,98.359375,1,0,0,response1disk,,7,-2.37109375,10.65625,1,0,0,rectangle,-2.37109375,10.65625,1,0,0,-2.37109375,10.65625,1,0,0,0,134,134,116,1,,,,,,,,
,,,,,,,,,,,,,FF,,,,,,,,1.0309,,,,,,,,,,,,,,,,,,,,,,6100b86d68f33db3c5aa1609,61036f12a0280fce27023e8b,2021-07-29_20h17.40.900,Simcolourproject_2stim_asymm_v5,2020.2.10,MacIntel,60,61025ae37ef11b136ea224fe,,,,,,,,,817,43.515625,97.515625,1,0,0,response1disk,,7,8.20703125,9.0859375,1,0,0,rectangle,8.20703125,9.0859375,1,0,0,8.20703125,9.0859375,1,0,0,0,135,135,40,1,,,,,,,,
,,,,,,,,,,,,,FF,,,,,,,,1.0965,,,,,,,,,,,,,,,,,,,,,,6100b86d68f33db3c5aa1609,61036f12a0280fce27023e8b,2021-07-29_20h17.40.900,Simcolourproject_2stim_asymm_v5,2020.2.10,MacIntel,60,61025ae37ef11b136ea224fe,,,,,,,,,3940,-76.1796875,-36.99609375,1,0,0,response5disk,,2,-12.578125,-2.5234375,1,0,0,rectangle,-12.578125,-2.5234375,1,0,0,-12.578125,-2.5234375,1,0,0,0,136,136,82,1,,,,,,,,
,,,,,,,,,,,,,FF,,,,,,,,0.9478,,,,,,,,,,,,,,,,,,,,,,6100b86d68f33db3c5aa1609,61036f12a0280fce27023e8b,2021-07-29_20h17.40.900,Simcolourproject_2stim_asymm_v5,2020.2.10,MacIntel,60,61025ae37ef11b136ea224fe,,,,,,,,,639,-79.56640625,-31.05078125,1,0,0,response5disk,,2,-12.69921875,-3.4921875,1,0,0,rectangle,-12.69921875,-3.4921875,1,0,0,-12.69921875,-3.4921875,1,0,0,0,137,137,148,1,,,,,,,,
,,,,,,,,,,,,,FF,,,,,,,,1.7136,,,,,,,,,,,,,,,,,,,,,,6100b86d68f33db3c5aa1609,61036f12a0280fce27023e8b,2021-07-29_20h17.40.900,Simcolourproject_2stim_asymm_v5,2020.2.10,MacIntel,60,61025ae37ef11b136ea224fe,,,,,,,,,3594,66.734375,-31.36328125,1,0,0,response3disk,,5,8.65234375,1.6171875,1,0,0,rectangle,8.65234375,1.6171875,1,0,0,8.65234375,1.6171875,1,0,0,0,138,138,25,1,,,,,,,,
,,,,,,,,,,,,,FF,,,,,,,,0.9151,,,,,,,,,,,,,,,,,,,,,,6100b86d68f33db3c5aa1609,61036f12a0280fce27023e8b,2021-07-29_20h17.40.900,Simcolourproject_2stim_asymm_v5,2020.2.10,MacIntel,60,61025ae37ef11b136ea224fe,,,,,,,,,1131,-83.91015625,39.6171875,1,0,0,response7disk,,1,-20.55078125,2.26171875,1,0,0,rectangle,-20.55078125,2.26171875,1,0,0,-20.55078125,2.26171875,1,0,0,0,139,139,121,1,,,,,,,,
,,,,,,,,,,,,,FF,,,,,,,,1.2801,,,,,,,,,,,,,,,,,,,,,,6100b86d68f33db3c5aa1609,61036f12a0280fce27023e8b,2021-07-29_20h17.40.900,Simcolourproject_2stim_asymm_v5,2020.2.10,MacIntel,60,61025ae37ef11b136ea224fe,,,,,,,,,1605,47.078125,-65.37890625,1,0,0,response3disk,,4,8.97265625,-12.80859375,1,0,0,rectangle,8.97265625,-12.80859375,1,0,0,8.97265625,-12.80859375,1,0,0,0,140,140,142,1,,,,,,,,
,,,,,,,,,,,,,FF,,,,,,,,1.5805,,,,,,,,,,,,,,,,,,,,,,6100b86d68f33db3c5aa1609,61036f12a0280fce27023e8b,2021-07-29_20h17.40.900,Simcolourproject_2stim_asymm_v5,2020.2.10,MacIntel,60,61025ae37ef11b136ea224fe,,,,,,,,,1413,81.26953125,32.0625,1,0,0,response1disk,,6,9.21484375,7.40625,1,0,0,rectangle,9.21484375,7.40625,1,0,0,9.21484375,7.40625,1,0,0,0,141,141,62,1,,,,,,,,
,,,,,,,,,,,,,FF,,,,,,,,0.6319,,,,,,,,,,,,,,,,,,,,,,6100b86d68f33db3c5aa1609,61036f12a0280fce27023e8b,2021-07-29_20h17.40.900,Simcolourproject_2stim_asymm_v5,2020.2.10,MacIntel,60,61025ae37ef11b136ea224fe,,,,,,,,,714,98.1953125,52.54296875,1,0,0,response1disk,,6,-4.796875,-11.3984375,1,0,0,rectangle,-4.796875,-11.3984375,1,0,0,-4.796875,-11.3984375,1,0,0,0,142,142,133,1,,,,,,,,
,,,,,,,,,,,,,FF,,,,,,,,1.1642,,,,,,,,,,,,,,,,,,,,,,6100b86d68f33db3c5aa1609,61036f12a0280fce27023e8b,2021-07-29_20h17.40.900,Simcolourproject_2stim_asymm_v5,2020.2.10,MacIntel,60,61025ae37ef11b136ea224fe,,,,,,,,,3000,-87.6015625,28.88671875,1,0,0,response7disk,,1,-15.33984375,5.25390625,1,0,0,rectangle,-15.33984375,5.25390625,1,0,0,-15.33984375,5.25390625,1,0,0,0,143,143,1,1,,,,,,,,
,,,,,,,,,,,,,FF,,,,,,,,0.9473,,,,,,,,,,,,,,,,,,,,,,6100b86d68f33db3c5aa1609,61036f12a0280fce27023e8b,2021-07-29_20h17.40.900,Simcolourproject_2stim_asymm_v5,2020.2.10,MacIntel,60,61025ae37ef11b136ea224fe,,,,,,,,,682,55.27734375,82.2578125,1,0,0,response1disk,,7,10.875,15.46875,1,0,0,rectangle,10.875,15.46875,1,0,0,10.875,15.46875,1,0,0,0,144,144,67,1,,,,,,,,
,,,,,,,,,,,,,FF,,,,,,,,0.8996,,,,,,,,,,,,,,,,,,,,,,6100b86d68f33db3c5aa1609,61036f12a0280fce27023e8b,2021-07-29_20h17.40.900,Simcolourproject_2stim_asymm_v5,2020.2.10,MacIntel,60,61025ae37ef11b136ea224fe,,,,,,,,,1993,72.984375,47.46484375,1,0,0,response1disk,,6,-14.46875,-6.76171875,1,0,0,rectangle,-14.46875,-6.76171875,1,0,0,-14.46875,-6.76171875,1,0,0,0,145,145,17,1,,,,,,,,
,,,,,,,,,,,,,FF,,,,,,,,1.2466,,,,,,,,,,,,,,,,,,,,,,6100b86d68f33db3c5aa1609,61036f12a0280fce27023e8b,2021-07-29_20h17.40.900,Simcolourproject_2stim_asymm_v5,2020.2.10,MacIntel,60,61025ae37ef11b136ea224fe,,,,,,,,,1775,26.25,70.6640625,1,0,0,response1disk,,7,14.296875,10.4296875,1,0,0,rectangle,14.296875,10.4296875,1,0,0,14.296875,10.4296875,1,0,0,0,146,146,8,1,,,,,,,,
,,,,,,,,,,,,,FF,,,,,,,,1.0649,,,,,,,,,,,,,,,,,,,,,,6100b86d68f33db3c5aa1609,61036f12a0280fce27023e8b,2021-07-29_20h17.40.900,Simcolourproject_2stim_asymm_v5,2020.2.10,MacIntel,60,61025ae37ef11b136ea224fe,,,,,,,,,3878,67.95703125,-31.1875,1,0,0,response3disk,,5,4.33203125,-10.84765625,1,0,0,rectangle,4.33203125,-10.84765625,1,0,0,4.33203125,-10.84765625,1,0,0,0,147,147,110,1,,,,,,,,
,,,,,,,,,,,,,FF,,,,,,,,0.7988,,,,,,,,,,,,,,,,,,,,,,6100b86d68f33db3c5aa1609,61036f12a0280fce27023e8b,2021-07-29_20h17.40.900,Simcolourproject_2stim_asymm_v5,2020.2.10,MacIntel,60,61025ae37ef11b136ea224fe,,,,,,,,,748,96.2265625,65.74609375,1,0,0,response1disk,,6,-4.26953125,10.26171875,1,0,0,rectangle,-89.37890625,42.06640625,1,0,0,-12.62109375,6.5859375,1,0,0,0,148,148,70,1,,response7disk_3,TRUE,1,1,"[208,149,279,51,119,290,79,220,275,53,94,66,27,50,283,268,249,46,214,166]",1.5295,rectangle
,,,,,,,,,,,,,FF,,,,,,,,0.998,,,,,,,,,,,,,,,,,,,,,,6100b86d68f33db3c5aa1609,61036f12a0280fce27023e8b,2021-07-29_20h17.40.900,Simcolourproject_2stim_asymm_v5,2020.2.10,MacIntel,60,61025ae37ef11b136ea224fe,,,,,,,,,1117,-35.08984375,-79.9765625,1,0,0,response5disk,,3,-2.125,-0.23046875,1,0,0,rectangle,-2.125,-0.23046875,1,0,0,-2.125,-0.23046875,1,0,0,0,149,149,10,1,,,,,,,,
,,,,,,,,,,,,,FF,,,,,,,,1.6119,,,,,,,,,,,,,,,,,,,,,,6100b86d68f33db3c5aa1609,61036f12a0280fce27023e8b,2021-07-29_20h17.40.900,Simcolourproject_2stim_asymm_v5,2020.2.10,MacIntel,60,61025ae37ef11b136ea224fe,,,,,,,,,3512,-48.734375,-76.02734375,1,0,0,response5disk,,3,-0.6796875,1.5078125,1,0,0,rectangle,-0.6796875,1.5078125,1,0,0,-0.6796875,1.5078125,1,0,0,0,150,150,16,1,,,,,,,,
,,,,,,,,,,,,,FF,,,,,,,,1.2142,,,,,,,,,,,,,,,,,,,,,,6100b86d68f33db3c5aa1609,61036f12a0280fce27023e8b,2021-07-29_20h17.40.900,Simcolourproject_2stim_asymm_v5,2020.2.10,MacIntel,60,61025ae37ef11b136ea224fe,,,,,,,,,137,69.7578125,44.23046875,1,0,0,response1disk,,6,9.72265625,-5.12890625,1,0,0,rectangle,9.72265625,-5.12890625,1,0,0,9.72265625,-5.12890625,1,0,0,0,151,151,158,1,,,,,,,,
,,,,,,,,,,,,,FF,,,,,,,,0.8315,,,,,,,,,,,,,,,,,,,,,,6100b86d68f33db3c5aa1609,61036f12a0280fce27023e8b,2021-07-29_20h17.40.900,Simcolourproject_2stim_asymm_v5,2020.2.10,MacIntel,60,61025ae37ef11b136ea224fe,,,,,,,,,1073,37.31640625,85.48828125,1,0,0,response1disk,,7,11.3046875,6.63671875,1,0,0,rectangle,11.3046875,6.63671875,1,0,0,11.3046875,6.63671875,1,0,0,0,152,152,26,1,,,,,,,,
,,,,,,,,,,,,,FF,,,,,,,,1.0989,,,,,,,,,,,,,,,,,,,,,,6100b86d68f33db3c5aa1609,61036f12a0280fce27023e8b,2021-07-29_20h17.40.900,Simcolourproject_2stim_asymm_v5,2020.2.10,MacIntel,60,61025ae37ef11b136ea224fe,,,,,,,,,1318,26.65625,59.08984375,1,0,0,response1disk,,7,23.8984375,-3.328125,1,0,0,rectangle,23.8984375,-3.328125,1,0,0,23.8984375,-3.328125,1,0,0,0,153,153,87,1,,,,,,,,
,,,,,,,,,,,,,FF,,,,,,,,1.5791,,,,,,,,,,,,,,,,,,,,,,6100b86d68f33db3c5aa1609,61036f12a0280fce27023e8b,2021-07-29_20h17.40.900,Simcolourproject_2stim_asymm_v5,2020.2.10,MacIntel,60,61025ae37ef11b136ea224fe,,,,,,,,,2234,-66.1640625,21.47265625,1,0,0,response7disk,,1,-3.984375,-5.171875,1,0,0,rectangle,-3.984375,-5.171875,1,0,0,-3.984375,-5.171875,1,0,0,0,154,154,86,1,,,,,,,,
,,,,,,,,,,,,,FF,,,,,,,,1.2477,,,,,,,,,,,,,,,,,,,,,,6100b86d68f33db3c5aa1609,61036f12a0280fce27023e8b,2021-07-29_20h17.40.900,Simcolourproject_2stim_asymm_v5,2020.2.10,MacIntel,60,61025ae37ef11b136ea224fe,,,,,,,,,954,-32.37109375,-77.19921875,1,0,0,response5disk,,3,-24.92578125,-11.2109375,1,0,0,rectangle,-24.92578125,-11.2109375,1,0,0,-24.92578125,-11.2109375,1,0,0,0,155,155,33,1,,,,,,,,
,,,,,,,,,,,,,FF,,,,,,,,0.9479,,,,,,,,,,,,,,,,,,,,,,6100b86d68f33db3c5aa1609,61036f12a0280fce27023e8b,2021-07-29_20h17.40.900,Simcolourproject_2stim_asymm_v5,2020.2.10,MacIntel,60,61025ae37ef11b136ea224fe,,,,,,,,,1510,79.8828125,37.7265625,1,0,0,response1disk,,6,22.64453125,6.1015625,1,0,0,rectangle,22.64453125,6.1015625,1,0,0,22.64453125,6.1015625,1,0,0,0,156,156,90,1,,,,,,,,
,,,,,,,,,,,,,FF,,,,,,,,0.8647,,,,,,,,,,,,,,,,,,,,,,6100b86d68f33db3c5aa1609,61036f12a0280fce27023e8b,2021-07-29_20h17.40.900,Simcolourproject_2stim_asymm_v5,2020.2.10,MacIntel,60,61025ae37ef11b136ea224fe,,,,,,,,,73,36.96875,100.1601563,1,0,0,response1disk,,7,13.3671875,4.3359375,1,0,0,rectangle,13.3671875,4.3359375,1,0,0,13.3671875,4.3359375,1,0,0,0,157,157,96,1,,,,,,,,
,,,,,,,,,,,,,FF,,,,,,,,1.0637,,,,,,,,,,,,,,,,,,,,,,6100b86d68f33db3c5aa1609,61036f12a0280fce27023e8b,2021-07-29_20h17.40.900,Simcolourproject_2stim_asymm_v5,2020.2.10,MacIntel,60,61025ae37ef11b136ea224fe,,,,,,,,,197,78.18359375,34.11328125,1,0,0,response1disk,,6,-16.01171875,-7.4375,1,0,0,rectangle,-16.01171875,-7.4375,1,0,0,-16.01171875,-7.4375,1,0,0,0,158,158,99,1,,,,,,,,
,,,,,,,,,,,,,FF,,,,,,,,2.1448,,,,,,,,,,,,,,,,,,,,,,6100b86d68f33db3c5aa1609,61036f12a0280fce27023e8b,2021-07-29_20h17.40.900,Simcolourproject_2stim_asymm_v5,2020.2.10,MacIntel,60,61025ae37ef11b136ea224fe,,,,,,,,,1202,39.234375,-79.171875,1,0,0,response3disk,,4,8.16015625,-2.87890625,1,0,0,rectangle,8.16015625,-2.87890625,1,0,0,8.16015625,-2.87890625,1,0,0,0,159,159,47,1,,,,,,,,
,,,,,,,,,,,,,FF,,,,,,,,0.9304,,,,,,,,,,,,,,,,,,,,,,6100b86d68f33db3c5aa1609,61036f12a0280fce27023e8b,2021-07-29_20h17.40.900,Simcolourproject_2stim_asymm_v5,2020.2.10,MacIntel,60,61025ae37ef11b136ea224fe,,,,,,,,,2521,54.01953125,93.55859375,1,0,0,response1disk,,7,8.96875,14.59375,1,0,0,rectangle,8.96875,14.59375,1,0,0,8.96875,14.59375,1,0,0,1,0,160,21,1,,,,,,,,
,,,,,,,,,,,,,FF,,,,,,,,2.1133,,,,,,,,,,,,,,,,,,,,,,6100b86d68f33db3c5aa1609,61036f12a0280fce27023e8b,2021-07-29_20h17.40.900,Simcolourproject_2stim_asymm_v5,2020.2.10,MacIntel,60,61025ae37ef11b136ea224fe,,,,,,,,,462,47.34765625,-92.8671875,1,0,0,response3disk,,4,2.99609375,0.26953125,1,0,0,rectangle,2.99609375,0.26953125,1,0,0,2.99609375,0.26953125,1,0,0,1,1,161,52,1,,,,,,,,
,,,,,,,,,,,,,FF,,,,,,,,1.3964,,,,,,,,,,,,,,,,,,,,,,6100b86d68f33db3c5aa1609,61036f12a0280fce27023e8b,2021-07-29_20h17.40.900,Simcolourproject_2stim_asymm_v5,2020.2.10,MacIntel,60,61025ae37ef11b136ea224fe,,,,,,,,,4198,77.46484375,-48.03125,1,0,0,response3disk,,5,0.69140625,2.046875,1,0,0,rectangle,0.69140625,2.046875,1,0,0,0.69140625,2.046875,1,0,0,1,2,162,120,1,,,,,,,,
,,,,,,,,,,,,,FF,,,,,,,,0.799,,,,,,,,,,,,,,,,,,,,,,6100b86d68f33db3c5aa1609,61036f12a0280fce27023e8b,2021-07-29_20h17.40.900,Simcolourproject_2stim_asymm_v5,2020.2.10,MacIntel,60,61025ae37ef11b136ea224fe,,,,,,,,,2874,79.53515625,40.34765625,1,0,0,response1disk,,6,7.30859375,-2.859375,1,0,0,rectangle,7.30859375,-2.859375,1,0,0,7.30859375,-2.859375,1,0,0,1,3,163,136,1,,,,,,,,
,,,,,,,,,,,,,FF,,,,,,,,0.9974,,,,,,,,,,,,,,,,,,,,,,6100b86d68f33db3c5aa1609,61036f12a0280fce27023e8b,2021-07-29_20h17.40.900,Simcolourproject_2stim_asymm_v5,2020.2.10,MacIntel,60,61025ae37ef11b136ea224fe,,,,,,,,,3558,-81.8359375,37.4609375,1,0,0,response7disk,,1,-2.65625,-7.79296875,1,0,0,rectangle,-2.65625,-7.79296875,1,0,0,-2.65625,-7.79296875,1,0,0,1,4,164,103,1,,,,,,,,
,,,,,,,,,,,,,FF,,,,,,,,1.7289,,,,,,,,,,,,,,,,,,,,,,6100b86d68f33db3c5aa1609,61036f12a0280fce27023e8b,2021-07-29_20h17.40.900,Simcolourproject_2stim_asymm_v5,2020.2.10,MacIntel,60,61025ae37ef11b136ea224fe,,,,,,,,,1460,-44.90234375,50.8984375,1,0,0,response7disk,,0,-5.84765625,-14.94921875,1,0,0,rectangle,37.51171875,-75.953125,1,0,0,-4.64453125,-3.4609375,1,0,0,1,5,165,59,1,,response3disk_3,TRUE,4,4,"[208,149,279,51,119,290,79,220,275,53,94,66,27,50,283,268,249,46,214,166]",1.5951,rectangle
,,,,,,,,,,,,,FF,,,,,,,,1.048,,,,,,,,,,,,,,,,,,,,,,6100b86d68f33db3c5aa1609,61036f12a0280fce27023e8b,2021-07-29_20h17.40.900,Simcolourproject_2stim_asymm_v5,2020.2.10,MacIntel,60,61025ae37ef11b136ea224fe,,,,,,,,,42,81.84375,32.8046875,1,0,0,response1disk,,6,-10.453125,-12.41796875,1,0,0,rectangle,-10.453125,-12.41796875,1,0,0,-10.453125,-12.41796875,1,0,0,1,6,166,53,1,,,,,,,,
,,,,,,,,,,,,,FF,,,,,,,,0.932,,,,,,,,,,,,,,,,,,,,,,6100b86d68f33db3c5aa1609,61036f12a0280fce27023e8b,2021-07-29_20h17.40.900,Simcolourproject_2stim_asymm_v5,2020.2.10,MacIntel,60,61025ae37ef11b136ea224fe,,,,,,,,,2837,79.078125,-41.30859375,1,0,0,response3disk,,5,18.30859375,-3.453125,1,0,0,rectangle,18.30859375,-3.453125,1,0,0,18.30859375,-3.453125,1,0,0,1,7,167,108,1,,,,,,,,
,,,,,,,,,,,,,FF,,,,,,,,0.8978,,,,,,,,,,,,,,,,,,,,,,6100b86d68f33db3c5aa1609,61036f12a0280fce27023e8b,2021-07-29_20h17.40.900,Simcolourproject_2stim_asymm_v5,2020.2.10,MacIntel,60,61025ae37ef11b136ea224fe,,,,,,,,,2845,63.90625,23.72265625,1,0,0,response1disk,,6,3.16015625,-7.76171875,1,0,0,rectangle,3.16015625,-7.76171875,1,0,0,3.16015625,-7.76171875,1,0,0,1,8,168,41,1,,,,,,,,
,,,,,,,,,,,,,FF,,,,,,,,1.2823,,,,,,,,,,,,,,,,,,,,,,6100b86d68f33db3c5aa1609,61036f12a0280fce27023e8b,2021-07-29_20h17.40.900,Simcolourproject_2stim_asymm_v5,2020.2.10,MacIntel,60,61025ae37ef11b136ea224fe,,,,,,,,,2014,32.33984375,73.9921875,1,0,0,response1disk,,7,10.00390625,-5.29296875,1,0,0,rectangle,10.00390625,-5.29296875,1,0,0,10.00390625,-5.29296875,1,0,0,1,9,169,8,1,,,,,,,,
,,,,,,,,,,,,,FF,,,,,,,,0.947,,,,,,,,,,,,,,,,,,,,,,6100b86d68f33db3c5aa1609,61036f12a0280fce27023e8b,2021-07-29_20h17.40.900,Simcolourproject_2stim_asymm_v5,2020.2.10,MacIntel,60,61025ae37ef11b136ea224fe,,,,,,,,,3453,80.32421875,39.01953125,1,0,0,response1disk,,6,-1.7890625,-8.4921875,1,0,0,rectangle,-1.7890625,-8.4921875,1,0,0,-1.7890625,-8.4921875,1,0,0,1,10,170,98,1,,,,,,,,
,,,,,,,,,,,,,FF,,,,,,,,0.8811,,,,,,,,,,,,,,,,,,,,,,6100b86d68f33db3c5aa1609,61036f12a0280fce27023e8b,2021-07-29_20h17.40.900,Simcolourproject_2stim_asymm_v5,2020.2.10,MacIntel,60,61025ae37ef11b136ea224fe,,,,,,,,,3843,-40.234375,86.6171875,1,0,0,response7disk,,0,3.375,-1.39453125,1,0,0,rectangle,3.375,-1.39453125,1,0,0,3.375,-1.39453125,1,0,0,1,11,171,27,1,,,,,,,,
,,,,,,,,,,,,,FF,,,,,,,,2.1463,,,,,,,,,,,,,,,,,,,,,,6100b86d68f33db3c5aa1609,61036f12a0280fce27023e8b,2021-07-29_20h17.40.900,Simcolourproject_2stim_asymm_v5,2020.2.10,MacIntel,60,61025ae37ef11b136ea224fe,,,,,,,,,3279,23.171875,59.3125,1,0,0,response1disk,,7,10.34375,2.15625,1,0,0,rectangle,10.34375,2.15625,1,0,0,10.34375,2.15625,1,0,0,1,12,172,30,1,,,,,,,,
,,,,,,,,,,,,,FF,,,,,,,,1.7294,,,,,,,,,,,,,,,,,,,,,,6100b86d68f33db3c5aa1609,61036f12a0280fce27023e8b,2021-07-29_20h17.40.900,Simcolourproject_2stim_asymm_v5,2020.2.10,MacIntel,60,61025ae37ef11b136ea224fe,,,,,,,,,2657,30.6953125,88.13671875,1,0,0,response1disk,,7,-6,-1.8671875,1,0,0,rectangle,-6,-1.8671875,1,0,0,-6,-1.8671875,1,0,0,1,13,173,26,1,,,,,,,,
,,,,,,,,,,,,,FF,,,,,,,,1.3466,,,,,,,,,,,,,,,,,,,,,,6100b86d68f33db3c5aa1609,61036f12a0280fce27023e8b,2021-07-29_20h17.40.900,Simcolourproject_2stim_asymm_v5,2020.2.10,MacIntel,60,61025ae37ef11b136ea224fe,,,,,,,,,1709,32.96484375,98.6484375,1,0,0,response1disk,,7,2.1328125,-11.72265625,1,0,0,rectangle,2.1328125,-11.72265625,1,0,0,2.1328125,-11.72265625,1,0,0,1,14,174,99,1,,,,,,,,
,,,,,,,,,,,,,FF,,,,,,,,1.563,,,,,,,,,,,,,,,,,,,,,,6100b86d68f33db3c5aa1609,61036f12a0280fce27023e8b,2021-07-29_20h17.40.900,Simcolourproject_2stim_asymm_v5,2020.2.10,MacIntel,60,61025ae37ef11b136ea224fe,,,,,,,,,2605,-70.65625,-47.07421875,1,0,0,response5disk,,2,3.03515625,3.6015625,1,0,0,rectangle,3.03515625,3.6015625,1,0,0,3.03515625,3.6015625,1,0,0,1,15,175,150,1,,,,,,,,
,,,,,,,,,,,,,FF,,,,,,,,1.13,,,,,,,,,,,,,,,,,,,,,,6100b86d68f33db3c5aa1609,61036f12a0280fce27023e8b,2021-07-29_20h17.40.900,Simcolourproject_2stim_asymm_v5,2020.2.10,MacIntel,60,61025ae37ef11b136ea224fe,,,,,,,,,2870,52.65234375,-26.79296875,1,0,0,response3disk,,5,10.375,-3.7890625,1,0,0,rectangle,10.375,-3.7890625,1,0,0,10.375,-3.7890625,1,0,0,1,16,176,115,1,,,,,,,,
,,,,,,,,,,,,,FF,,,,,,,,0.7814,,,,,,,,,,,,,,,,,,,,,,6100b86d68f33db3c5aa1609,61036f12a0280fce27023e8b,2021-07-29_20h17.40.900,Simcolourproject_2stim_asymm_v5,2020.2.10,MacIntel,60,61025ae37ef11b136ea224fe,,,,,,,,,178,46.53515625,53.70703125,1,0,0,response1disk,,7,7.15625,-3.1796875,1,0,0,rectangle,7.15625,-3.1796875,1,0,0,7.15625,-3.1796875,1,0,0,1,17,177,62,1,,,,,,,,
,,,,,,,,,,,,,FF,,,,,,,,1.729,,,,,,,,,,,,,,,,,,,,,,6100b86d68f33db3c5aa1609,61036f12a0280fce27023e8b,2021-07-29_20h17.40.900,Simcolourproject_2stim_asymm_v5,2020.2.10,MacIntel,60,61025ae37ef11b136ea224fe,,,,,,,,,172,-36.01171875,-83.86328125,1,0,0,response5disk,,3,-7.90625,-4.3984375,1,0,0,rectangle,-7.90625,-4.3984375,1,0,0,-7.90625,-4.3984375,1,0,0,1,18,178,64,1,,,,,,,,
,,,,,,,,,,,,,FF,,,,,,,,1.3478,,,,,,,,,,,,,,,,,,,,,,6100b86d68f33db3c5aa1609,61036f12a0280fce27023e8b,2021-07-29_20h17.40.900,Simcolourproject_2stim_asymm_v5,2020.2.10,MacIntel,60,61025ae37ef11b136ea224fe,,,,,,,,,1377,77.57421875,-39.33984375,1,0,0,response3disk,,5,10.63671875,-13.49609375,1,0,0,rectangle,10.63671875,-13.49609375,1,0,0,10.63671875,-13.49609375,1,0,0,1,19,179,85,1,,,,,,,,
,,,,,,,,,,,,,FF,,,,,,,,1.7305,,,,,,,,,,,,,,,,,,,,,,6100b86d68f33db3c5aa1609,61036f12a0280fce27023e8b,2021-07-29_20h17.40.900,Simcolourproject_2stim_asymm_v5,2020.2.10,MacIntel,60,61025ae37ef11b136ea224fe,,,,,,,,,2199,27.12890625,92.640625,1,0,0,response1disk,,7,6.62890625,-7.203125,1,0,0,rectangle,6.62890625,-7.203125,1,0,0,6.62890625,-7.203125,1,0,0,1,20,180,38,1,,,,,,,,
,,,,,,,,,,,,,FF,,,,,,,,2.062,,,,,,,,,,,,,,,,,,,,,,6100b86d68f33db3c5aa1609,61036f12a0280fce27023e8b,2021-07-29_20h17.40.900,Simcolourproject_2stim_asymm_v5,2020.2.10,MacIntel,60,61025ae37ef11b136ea224fe,,,,,,,,,495,82.5390625,-45.45703125,1,0,0,response3disk,,5,12.22265625,3.1484375,1,0,0,rectangle,12.22265625,3.1484375,1,0,0,12.22265625,3.1484375,1,0,0,1,21,181,66,1,,,,,,,,
,,,,,,,,,,,,,FF,,,,,,,,0.6823,,,,,,,,,,,,,,,,,,,,,,6100b86d68f33db3c5aa1609,61036f12a0280fce27023e8b,2021-07-29_20h17.40.900,Simcolourproject_2stim_asymm_v5,2020.2.10,MacIntel,60,61025ae37ef11b136ea224fe,,,,,,,,,1883,38.171875,57.45703125,1,0,0,response1disk,,7,-2.92578125,2.37109375,1,0,0,rectangle,-2.92578125,2.37109375,1,0,0,-2.92578125,2.37109375,1,0,0,1,22,182,15,1,,,,,,,,
,,,,,,,,,,,,,FF,,,,,,,,1.2301,,,,,,,,,,,,,,,,,,,,,,6100b86d68f33db3c5aa1609,61036f12a0280fce27023e8b,2021-07-29_20h17.40.900,Simcolourproject_2stim_asymm_v5,2020.2.10,MacIntel,60,61025ae37ef11b136ea224fe,,,,,,,,,2720,-25.51953125,-57.8515625,1,0,0,response5disk,,3,-7.28515625,-11.21484375,1,0,0,rectangle,-7.28515625,-11.21484375,1,0,0,-7.28515625,-11.21484375,1,0,0,1,23,183,117,1,,,,,,,,
,,,,,,,,,,,,,FF,,,,,,,,1.03,,,,,,,,,,,,,,,,,,,,,,6100b86d68f33db3c5aa1609,61036f12a0280fce27023e8b,2021-07-29_20h17.40.900,Simcolourproject_2stim_asymm_v5,2020.2.10,MacIntel,60,61025ae37ef11b136ea224fe,,,,,,,,,3757,39.5078125,-64.640625,1,0,0,response3disk,,4,16.47265625,-14.95703125,1,0,0,rectangle,16.47265625,-14.95703125,1,0,0,16.47265625,-14.95703125,1,0,0,1,24,184,9,1,,,,,,,,
,,,,,,,,,,,,,FF,,,,,,,,1.5458,,,,,,,,,,,,,,,,,,,,,,6100b86d68f33db3c5aa1609,61036f12a0280fce27023e8b,2021-07-29_20h17.40.900,Simcolourproject_2stim_asymm_v5,2020.2.10,MacIntel,60,61025ae37ef11b136ea224fe,,,,,,,,,2049,95.05078125,50.140625,1,0,0,response1disk,,6,20.40625,12.5546875,1,0,0,rectangle,20.40625,12.5546875,1,0,0,20.40625,12.5546875,1,0,0,1,25,185,95,1,,,,,,,,
,,,,,,,,,,,,,FF,,,,,,,,2.4608,,,,,,,,,,,,,,,,,,,,,,6100b86d68f33db3c5aa1609,61036f12a0280fce27023e8b,2021-07-29_20h17.40.900,Simcolourproject_2stim_asymm_v5,2020.2.10,MacIntel,60,61025ae37ef11b136ea224fe,,,,,,,,,2805,76.77734375,-27.16796875,1,0,0,response3disk,,5,7.46875,8.72265625,1,0,0,rectangle,7.46875,8.72265625,1,0,0,7.46875,8.72265625,1,0,0,1,26,186,24,1,,,,,,,,
,,,,,,,,,,,,,FF,,,,,,,,1.562,,,,,,,,,,,,,,,,,,,,,,6100b86d68f33db3c5aa1609,61036f12a0280fce27023e8b,2021-07-29_20h17.40.900,Simcolourproject_2stim_asymm_v5,2020.2.10,MacIntel,60,61025ae37ef11b136ea224fe,,,,,,,,,307,74.37890625,35.734375,1,0,0,response1disk,,6,-5.52734375,-3.00390625,1,0,0,rectangle,-5.52734375,-3.00390625,1,0,0,-5.52734375,-3.00390625,1,0,0,1,27,187,145,1,,,,,,,,
,,,,,,,,,,,,,FF,,,,,,,,1.1971,,,,,,,,,,,,,,,,,,,,,,6100b86d68f33db3c5aa1609,61036f12a0280fce27023e8b,2021-07-29_20h17.40.900,Simcolourproject_2stim_asymm_v5,2020.2.10,MacIntel,60,61025ae37ef11b136ea224fe,,,,,,,,,3209,100.5664063,54.95703125,1,0,0,response1disk,,6,9.01171875,-10.80859375,1,0,0,rectangle,9.01171875,-10.80859375,1,0,0,9.01171875,-10.80859375,1,0,0,1,28,188,29,1,,,,,,,,
,,,,,,,,,,,,,FF,,,,,,,,2.2783,,,,,,,,,,,,,,,,,,,,,,6100b86d68f33db3c5aa1609,61036f12a0280fce27023e8b,2021-07-29_20h17.40.900,Simcolourproject_2stim_asymm_v5,2020.2.10,MacIntel,60,61025ae37ef11b136ea224fe,,,,,,,,,2954,28.15234375,-95.6328125,1,0,0,response3disk,,4,6.2734375,-14.79296875,1,0,0,rectangle,6.2734375,-14.79296875,1,0,0,6.2734375,-14.79296875,1,0,0,1,29,189,43,1,,,,,,,,
,,,,,,,,,,,,,FF,,,,,,,,2.728,,,,,,,,,,,,,,,,,,,,,,6100b86d68f33db3c5aa1609,61036f12a0280fce27023e8b,2021-07-29_20h17.40.900,Simcolourproject_2stim_asymm_v5,2020.2.10,MacIntel,60,61025ae37ef11b136ea224fe,,,,,,,,,2557,85.01953125,35.640625,1,0,0,response1disk,,6,-1.26171875,3.01171875,1,0,0,rectangle,-1.26171875,3.01171875,1,0,0,-1.26171875,3.01171875,1,0,0,1,30,190,106,1,,,,,,,,
,,,,,,,,,,,,,FF,,,,,,,,2.3122,,,,,,,,,,,,,,,,,,,,,,6100b86d68f33db3c5aa1609,61036f12a0280fce27023e8b,2021-07-29_20h17.40.900,Simcolourproject_2stim_asymm_v5,2020.2.10,MacIntel,60,61025ae37ef11b136ea224fe,,,,,,,,,1362,91.78515625,25.54296875,1,0,0,response1disk,,6,-3.5,-0.796875,0,0,1,rectangle,-3.5,-0.796875,0,0,1,-3.5,-0.796875,0,0,1,1,31,191,107,1,,,,,,,,
,,,,,,,,,,,,,FF,,,,,,,,1.545,,,,,,,,,,,,,,,,,,,,,,6100b86d68f33db3c5aa1609,61036f12a0280fce27023e8b,2021-07-29_20h17.40.900,Simcolourproject_2stim_asymm_v5,2020.2.10,MacIntel,60,61025ae37ef11b136ea224fe,,,,,,,,,314,36.2109375,62.28125,1,0,1,response1disk,,7,-0.58203125,8.65234375,1,0,1,rectangle,-0.58203125,8.65234375,1,0,1,-0.58203125,8.65234375,1,0,1,1,32,192,153,1,,,,,,,,
,,,,,,,,,,,,,FF,,,,,,,,0.8479,,,,,,,,,,,,,,,,,,,,,,6100b86d68f33db3c5aa1609,61036f12a0280fce27023e8b,2021-07-29_20h17.40.900,Simcolourproject_2stim_asymm_v5,2020.2.10,MacIntel,60,61025ae37ef11b136ea224fe,,,,,,,,,2724,-54.46875,-36.10546875,1,0,1,response5disk,,2,-4.70703125,13.28125,1,0,1,rectangle,-4.70703125,13.28125,1,0,1,-4.70703125,13.28125,1,0,1,1,33,193,12,1,,,,,,,,
,,,,,,,,,,,,,FF,,,,,,,,1.0147,,,,,,,,,,,,,,,,,,,,,,6100b86d68f33db3c5aa1609,61036f12a0280fce27023e8b,2021-07-29_20h17.40.900,Simcolourproject_2stim_asymm_v5,2020.2.10,MacIntel,60,61025ae37ef11b136ea224fe,,,,,,,,,2858,21.4453125,-68.90625,1,0,1,response3disk,,4,4.0546875,-0.76953125,1,0,1,rectangle,4.0546875,-0.76953125,1,0,1,4.0546875,-0.76953125,1,0,1,1,34,194,90,1,,,,,,,,
,,,,,,,,,,,,,FF,,,,,,,,1.0968,,,,,,,,,,,,,,,,,,,,,,6100b86d68f33db3c5aa1609,61036f12a0280fce27023e8b,2021-07-29_20h17.40.900,Simcolourproject_2stim_asymm_v5,2020.2.10,MacIntel,60,61025ae37ef11b136ea224fe,,,,,,,,,2488,41.55859375,73.39453125,1,0,1,response1disk,,7,4.55859375,-6.41015625,1,0,1,rectangle,4.55859375,-6.41015625,1,0,1,4.55859375,-6.41015625,1,0,1,1,35,195,138,1,,,,,,,,
,,,,,,,,,,,,,FF,,,,,,,,0.8978,,,,,,,,,,,,,,,,,,,,,,6100b86d68f33db3c5aa1609,61036f12a0280fce27023e8b,2021-07-29_20h17.40.900,Simcolourproject_2stim_asymm_v5,2020.2.10,MacIntel,60,61025ae37ef11b136ea224fe,,,,,,,,,1947,28.421875,75.953125,1,0,1,response1disk,,7,3.19921875,3.23046875,1,0,1,rectangle,3.19921875,3.23046875,1,0,1,3.19921875,3.23046875,1,0,1,1,36,196,83,1,,,,,,,,
,,,,,,,,,,,,,FF,,,,,,,,3.1927,,,,,,,,,,,,,,,,,,,,,,6100b86d68f33db3c5aa1609,61036f12a0280fce27023e8b,2021-07-29_20h17.40.900,Simcolourproject_2stim_asymm_v5,2020.2.10,MacIntel,60,61025ae37ef11b136ea224fe,,,,,,,,,2400,39.0703125,60.16796875,1,0,1,response1disk,,7,-4.43359375,-15.58203125,1,0,1,rectangle,-4.43359375,-15.58203125,1,0,1,-4.43359375,-15.58203125,1,0,1,1,37,197,89,1,,,,,,,,
,,,,,,,,,,,,,FF,,,,,,,,1.1139,,,,,,,,,,,,,,,,,,,,,,6100b86d68f33db3c5aa1609,61036f12a0280fce27023e8b,2021-07-29_20h17.40.900,Simcolourproject_2stim_asymm_v5,2020.2.10,MacIntel,60,61025ae37ef11b136ea224fe,,,,,,,,,4357,-63.046875,20.8125,1,0,1,response7disk,,1,-14.12109375,2.38671875,1,0,1,rectangle,-14.12109375,2.38671875,1,0,1,-14.12109375,2.38671875,1,0,1,1,38,198,57,1,,,,,,,,
,,,,,,,,,,,,,FF,,,,,,,,1.048,,,,,,,,,,,,,,,,,,,,,,6100b86d68f33db3c5aa1609,61036f12a0280fce27023e8b,2021-07-29_20h17.40.900,Simcolourproject_2stim_asymm_v5,2020.2.10,MacIntel,60,61025ae37ef11b136ea224fe,,,,,,,,,1364,23.37890625,-57.68359375,1,0,1,response3disk,,4,11.41796875,1.53515625,1,0,1,rectangle,11.41796875,1.53515625,1,0,1,11.41796875,1.53515625,1,0,1,1,39,199,49,1,,,,,,,,
,,,,,,,,,,,,,FF,,,,,,,,0.7981,,,,,,,,,,,,,,,,,,,,,,6100b86d68f33db3c5aa1609,61036f12a0280fce27023e8b,2021-07-29_20h17.40.900,Simcolourproject_2stim_asymm_v5,2020.2.10,MacIntel,60,61025ae37ef11b136ea224fe,,,,,,,,,3477,-66.1796875,-32.34765625,1,0,1,response5disk,,2,-4.19140625,0.54296875,1,0,1,rectangle,-4.19140625,0.54296875,1,0,1,-4.19140625,0.54296875,1,0,1,1,40,200,116,1,,,,,,,,
,,,,,,,,,,,,,FF,,,,,,,,0.8811,,,,,,,,,,,,,,,,,,,,,,6100b86d68f33db3c5aa1609,61036f12a0280fce27023e8b,2021-07-29_20h17.40.900,Simcolourproject_2stim_asymm_v5,2020.2.10,MacIntel,60,61025ae37ef11b136ea224fe,,,,,,,,,1704,73.6484375,35.2890625,1,0,1,response1disk,,6,11.5625,-8.875,1,0,1,rectangle,11.5625,-8.875,1,0,1,11.5625,-8.875,1,0,1,1,41,201,31,1,,,,,,,,
,,,,,,,,,,,,,FF,,,,,,,,0.6806,,,,,,,,,,,,,,,,,,,,,,6100b86d68f33db3c5aa1609,61036f12a0280fce27023e8b,2021-07-29_20h17.40.900,Simcolourproject_2stim_asymm_v5,2020.2.10,MacIntel,60,61025ae37ef11b136ea224fe,,,,,,,,,1727,26.76953125,84.7890625,1,0,1,response1disk,,7,10,4.125,1,0,1,rectangle,10,4.125,1,0,1,10,4.125,1,0,1,1,42,202,80,1,,,,,,,,
,,,,,,,,,,,,,FF,,,,,,,,0.9317,,,,,,,,,,,,,,,,,,,,,,6100b86d68f33db3c5aa1609,61036f12a0280fce27023e8b,2021-07-29_20h17.40.900,Simcolourproject_2stim_asymm_v5,2020.2.10,MacIntel,60,61025ae37ef11b136ea224fe,,,,,,,,,3703,16.4609375,72.6015625,1,0,1,response1disk,,7,-0.265625,-8.71875,1,0,1,rectangle,-0.265625,-8.71875,1,0,1,-0.265625,-8.71875,1,0,1,1,43,203,18,1,,,,,,,,
,,,,,,,,,,,,,FF,,,,,,,,0.7655,,,,,,,,,,,,,,,,,,,,,,6100b86d68f33db3c5aa1609,61036f12a0280fce27023e8b,2021-07-29_20h17.40.900,Simcolourproject_2stim_asymm_v5,2020.2.10,MacIntel,60,61025ae37ef11b136ea224fe,,,,,,,,,840,80.7578125,50.0546875,1,0,1,response1disk,,6,5.73046875,-4.546875,1,0,1,rectangle,5.73046875,-4.546875,1,0,1,5.73046875,-4.546875,1,0,1,1,44,204,110,1,,,,,,,,
,,,,,,,,,,,,,FF,,,,,,,,1.1637,,,,,,,,,,,,,,,,,,,,,,6100b86d68f33db3c5aa1609,61036f12a0280fce27023e8b,2021-07-29_20h17.40.900,Simcolourproject_2stim_asymm_v5,2020.2.10,MacIntel,60,61025ae37ef11b136ea224fe,,,,,,,,,445,-56.91015625,-40.7890625,1,0,1,response5disk,,2,-5.109375,-12.98046875,1,0,1,rectangle,-5.109375,-12.98046875,1,0,1,-5.109375,-12.98046875,1,0,1,1,45,205,3,1,,,,,,,,
,,,,,,,,,,,,,FF,,,,,,,,0.9142,,,,,,,,,,,,,,,,,,,,,,6100b86d68f33db3c5aa1609,61036f12a0280fce27023e8b,2021-07-29_20h17.40.900,Simcolourproject_2stim_asymm_v5,2020.2.10,MacIntel,60,61025ae37ef11b136ea224fe,,,,,,,,,1693,26.09765625,76.18359375,1,0,1,response1disk,,7,8.26953125,-6.33203125,1,0,1,rectangle,8.26953125,-6.33203125,1,0,1,8.26953125,-6.33203125,1,0,1,1,46,206,156,1,,,,,,,,
,,,,,,,,,,,,,FF,,,,,,,,1.2305,,,,,,,,,,,,,,,,,,,,,,6100b86d68f33db3c5aa1609,61036f12a0280fce27023e8b,2021-07-29_20h17.40.900,Simcolourproject_2stim_asymm_v5,2020.2.10,MacIntel,60,61025ae37ef11b136ea224fe,,,,,,,,,628,39.765625,82.58984375,1,0,1,response1disk,,7,1.26171875,3.671875,1,0,1,rectangle,37.734375,74.2265625,1,0,1,3.72265625,-12.71875,1,0,1,1,47,207,143,1,,response1disk_3,TRUE,7,7,"[208,149,279,51,119,290,79,220,275,53,94,66,27,50,283,268,249,46,214,166]",1.3808,rectangle
,,,,,,,,,,,,,FF,,,,,,,,1.4303,,,,,,,,,,,,,,,,,,,,,,6100b86d68f33db3c5aa1609,61036f12a0280fce27023e8b,2021-07-29_20h17.40.900,Simcolourproject_2stim_asymm_v5,2020.2.10,MacIntel,60,61025ae37ef11b136ea224fe,,,,,,,,,2232,-66.23046875,-38.859375,1,0,1,response5disk,,2,1.20703125,2.23046875,1,0,1,rectangle,1.20703125,2.23046875,1,0,1,1.20703125,2.23046875,1,0,1,1,48,208,77,1,,,,,,,,
,,,,,,,,,,,,,FF,,,,,,,,0.9991,,,,,,,,,,,,,,,,,,,,,,6100b86d68f33db3c5aa1609,61036f12a0280fce27023e8b,2021-07-29_20h17.40.900,Simcolourproject_2stim_asymm_v5,2020.2.10,MacIntel,60,61025ae37ef11b136ea224fe,,,,,,,,,196,33.0625,-67.3984375,1,0,1,response3disk,,4,9.58203125,0.58203125,1,0,1,rectangle,9.58203125,0.58203125,1,0,1,9.58203125,0.58203125,1,0,1,1,49,209,134,1,,,,,,,,
,,,,,,,,,,,,,FF,,,,,,,,0.7982,,,,,,,,,,,,,,,,,,,,,,6100b86d68f33db3c5aa1609,61036f12a0280fce27023e8b,2021-07-29_20h17.40.900,Simcolourproject_2stim_asymm_v5,2020.2.10,MacIntel,60,61025ae37ef11b136ea224fe,,,,,,,,,4314,36.9296875,65.73828125,1,0,1,response1disk,,7,7.9609375,2.96875,1,0,1,rectangle,7.9609375,2.96875,1,0,1,7.9609375,2.96875,1,0,1,1,50,210,61,1,,,,,,,,
,,,,,,,,,,,,,FF,,,,,,,,1.2473,,,,,,,,,,,,,,,,,,,,,,6100b86d68f33db3c5aa1609,61036f12a0280fce27023e8b,2021-07-29_20h17.40.900,Simcolourproject_2stim_asymm_v5,2020.2.10,MacIntel,60,61025ae37ef11b136ea224fe,,,,,,,,,2909,63.12890625,-46.2265625,1,0,1,response3disk,,5,4.8203125,2.77734375,1,0,1,rectangle,4.8203125,2.77734375,1,0,1,4.8203125,2.77734375,1,0,1,1,51,211,133,1,,,,,,,,
,,,,,,,,,,,,,FF,,,,,,,,0.8981,,,,,,,,,,,,,,,,,,,,,,6100b86d68f33db3c5aa1609,61036f12a0280fce27023e8b,2021-07-29_20h17.40.900,Simcolourproject_2stim_asymm_v5,2020.2.10,MacIntel,60,61025ae37ef11b136ea224fe,,,,,,,,,188,-44.625,-94.16015625,1,0,1,response5disk,,3,-22.8515625,12.42578125,1,0,1,rectangle,-22.8515625,12.42578125,1,0,1,-22.8515625,12.42578125,1,0,1,1,52,212,131,1,,,,,,,,
,,,,,,,,,,,,,FF,,,,,,,,1.0471,,,,,,,,,,,,,,,,,,,,,,6100b86d68f33db3c5aa1609,61036f12a0280fce27023e8b,2021-07-29_20h17.40.900,Simcolourproject_2stim_asymm_v5,2020.2.10,MacIntel,60,61025ae37ef11b136ea224fe,,,,,,,,,2050,85.44140625,46.86328125,1,0,1,response1disk,,6,-9.71875,0.17578125,1,0,1,rectangle,84.51171875,17.1484375,1,0,1,6.3125,-11.765625,1,0,1,1,53,213,159,1,,response1disk_3,TRUE,6,6,"[208,149,279,51,119,290,79,220,275,53,94,66,27,50,283,268,249,46,214,166]",1.5124,rectangle
,,,,,,,,,,,,,FF,,,,,,,,2.1629,,,,,,,,,,,,,,,,,,,,,,6100b86d68f33db3c5aa1609,61036f12a0280fce27023e8b,2021-07-29_20h17.40.900,Simcolourproject_2stim_asymm_v5,2020.2.10,MacIntel,60,61025ae37ef11b136ea224fe,,,,,,,,,3094,66.57421875,34.328125,1,0,1,response1disk,,6,2.40234375,-6.65625,1,0,1,rectangle,2.40234375,-6.65625,1,0,1,2.40234375,-6.65625,1,0,1,1,54,214,79,1,,,,,,,,
,,,,,,,,,,,,,FF,,,,,,,,1.014,,,,,,,,,,,,,,,,,,,,,,6100b86d68f33db3c5aa1609,61036f12a0280fce27023e8b,2021-07-29_20h17.40.900,Simcolourproject_2stim_asymm_v5,2020.2.10,MacIntel,60,61025ae37ef11b136ea224fe,,,,,,,,,2809,53.6171875,95.484375,1,0,1,response1disk,,7,-4.484375,-5.890625,1,0,1,rectangle,-4.484375,-5.890625,1,0,1,-4.484375,-5.890625,1,0,1,1,55,215,4,1,,,,,,,,
,,,,,,,,,,,,,FF,,,,,,,,1.1814,,,,,,,,,,,,,,,,,,,,,,6100b86d68f33db3c5aa1609,61036f12a0280fce27023e8b,2021-07-29_20h17.40.900,Simcolourproject_2stim_asymm_v5,2020.2.10,MacIntel,60,61025ae37ef11b136ea224fe,,,,,,,,,675,73.76953125,42.62890625,1,0,1,response1disk,,6,8.8203125,-2.74609375,1,0,1,rectangle,8.8203125,-2.74609375,1,0,1,8.8203125,-2.74609375,1,0,1,1,56,216,102,1,,,,,,,,
,,,,,,,,,,,,,FF,,,,,,,,1.2977,,,,,,,,,,,,,,,,,,,,,,6100b86d68f33db3c5aa1609,61036f12a0280fce27023e8b,2021-07-29_20h17.40.900,Simcolourproject_2stim_asymm_v5,2020.2.10,MacIntel,60,61025ae37ef11b136ea224fe,,,,,,,,,1659,30.89453125,100.4804688,1,0,1,response1disk,,7,-11.38671875,-7.91015625,1,0,1,rectangle,-11.38671875,-7.91015625,1,0,1,-11.38671875,-7.91015625,1,0,1,1,57,217,39,1,,,,,,,,
,,,,,,,,,,,,,FF,,,,,,,,1.3304,,,,,,,,,,,,,,,,,,,,,,6100b86d68f33db3c5aa1609,61036f12a0280fce27023e8b,2021-07-29_20h17.40.900,Simcolourproject_2stim_asymm_v5,2020.2.10,MacIntel,60,61025ae37ef11b136ea224fe,,,,,,,,,290,65.11328125,26.33203125,1,0,1,response1disk,,6,15.82421875,-9.83984375,1,0,1,rectangle,15.82421875,-9.83984375,1,0,1,15.82421875,-9.83984375,1,0,1,1,58,218,76,1,,,,,,,,
,,,,,,,,,,,,,FF,,,,,,,,1.7283,,,,,,,,,,,,,,,,,,,,,,6100b86d68f33db3c5aa1609,61036f12a0280fce27023e8b,2021-07-29_20h17.40.900,Simcolourproject_2stim_asymm_v5,2020.2.10,MacIntel,60,61025ae37ef11b136ea224fe,,,,,,,,,3043,47.89453125,91.02734375,1,0,1,response1disk,,7,2.06640625,-9.8203125,1,0,1,rectangle,89.49609375,23.71875,1,0,1,-6.7265625,0.78125,1,0,1,1,59,219,154,1,,response1disk_3,TRUE,6,6,"[208,149,279,51,119,290,79,220,275,53,94,66,27,50,283,268,249,46,214,166]",2.2776,rectangle
,,,,,,,,,,,,,FF,,,,,,,,1.746,,,,,,,,,,,,,,,,,,,,,,6100b86d68f33db3c5aa1609,61036f12a0280fce27023e8b,2021-07-29_20h17.40.900,Simcolourproject_2stim_asymm_v5,2020.2.10,MacIntel,60,61025ae37ef11b136ea224fe,,,,,,,,,4116,86.97265625,-26.72265625,1,0,1,response3disk,,5,19.16796875,9.48046875,1,0,1,rectangle,19.16796875,9.48046875,1,0,1,19.16796875,9.48046875,1,0,1,1,60,220,105,1,,,,,,,,
,,,,,,,,,,,,,FF,,,,,,,,0.7986,,,,,,,,,,,,,,,,,,,,,,6100b86d68f33db3c5aa1609,61036f12a0280fce27023e8b,2021-07-29_20h17.40.900,Simcolourproject_2stim_asymm_v5,2020.2.10,MacIntel,60,61025ae37ef11b136ea224fe,,,,,,,,,3070,16.7265625,69.2734375,1,0,1,response1disk,,7,-5.48828125,-10.8671875,1,0,1,rectangle,-5.48828125,-10.8671875,1,0,1,-5.48828125,-10.8671875,1,0,1,1,61,221,6,1,,,,,,,,
,,,,,,,,,,,,,FF,,,,,,,,0.8138,,,,,,,,,,,,,,,,,,,,,,6100b86d68f33db3c5aa1609,61036f12a0280fce27023e8b,2021-07-29_20h17.40.900,Simcolourproject_2stim_asymm_v5,2020.2.10,MacIntel,60,61025ae37ef11b136ea224fe,,,,,,,,,2266,42.7109375,84.90625,1,0,1,response1disk,,7,14.55859375,5.76171875,1,0,1,rectangle,14.55859375,5.76171875,1,0,1,14.55859375,5.76171875,1,0,1,1,62,222,74,1,,,,,,,,
,,,,,,,,,,,,,FF,,,,,,,,0.8651,,,,,,,,,,,,,,,,,,,,,,6100b86d68f33db3c5aa1609,61036f12a0280fce27023e8b,2021-07-29_20h17.40.900,Simcolourproject_2stim_asymm_v5,2020.2.10,MacIntel,60,61025ae37ef11b136ea224fe,,,,,,,,,973,-42.18359375,-76.90234375,1,0,1,response5disk,,3,-13.77734375,0.546875,1,0,1,rectangle,-13.77734375,0.546875,1,0,1,-13.77734375,0.546875,1,0,1,1,63,223,34,1,,,,,,,,
,,,,,,,,,,,,,FF,,,,,,,,0.9478,,,,,,,,,,,,,,,,,,,,,,6100b86d68f33db3c5aa1609,61036f12a0280fce27023e8b,2021-07-29_20h17.40.900,Simcolourproject_2stim_asymm_v5,2020.2.10,MacIntel,60,61025ae37ef11b136ea224fe,,,,,,,,,3065,76.1171875,-45.33203125,1,0,1,response3disk,,5,1.9921875,10.70703125,1,0,1,rectangle,1.9921875,10.70703125,1,0,1,1.9921875,10.70703125,1,0,1,1,64,224,11,1,,,,,,,,
,,,,,,,,,,,,,FF,,,,,,,,0.6972,,,,,,,,,,,,,,,,,,,,,,6100b86d68f33db3c5aa1609,61036f12a0280fce27023e8b,2021-07-29_20h17.40.900,Simcolourproject_2stim_asymm_v5,2020.2.10,MacIntel,60,61025ae37ef11b136ea224fe,,,,,,,,,910,48.94140625,82.48828125,1,0,1,response1disk,,7,16.87890625,6.50390625,1,0,1,rectangle,16.87890625,6.50390625,1,0,1,16.87890625,6.50390625,1,0,1,1,65,225,112,1,,,,,,,,
,,,,,,,,,,,,,FF,,,,,,,,1.7141,,,,,,,,,,,,,,,,,,,,,,6100b86d68f33db3c5aa1609,61036f12a0280fce27023e8b,2021-07-29_20h17.40.900,Simcolourproject_2stim_asymm_v5,2020.2.10,MacIntel,60,61025ae37ef11b136ea224fe,,,,,,,,,3028,98.30078125,41.53125,1,0,1,response1disk,,6,29.3984375,3.99609375,1,0,1,rectangle,29.3984375,3.99609375,1,0,1,29.3984375,3.99609375,1,0,1,1,66,226,148,1,,,,,,,,
,,,,,,,,,,,,,FF,,,,,,,,0.8469,,,,,,,,,,,,,,,,,,,,,,6100b86d68f33db3c5aa1609,61036f12a0280fce27023e8b,2021-07-29_20h17.40.900,Simcolourproject_2stim_asymm_v5,2020.2.10,MacIntel,60,61025ae37ef11b136ea224fe,,,,,,,,,2201,43.953125,102.984375,1,0,1,response1disk,,7,-8.67578125,0.66015625,1,0,1,rectangle,-8.67578125,0.66015625,1,0,1,-8.67578125,0.66015625,1,0,1,1,67,227,157,1,,,,,,,,
,,,,,,,,,,,,,FF,,,,,,,,1.4135,,,,,,,,,,,,,,,,,,,,,,6100b86d68f33db3c5aa1609,61036f12a0280fce27023e8b,2021-07-29_20h17.40.900,Simcolourproject_2stim_asymm_v5,2020.2.10,MacIntel,60,61025ae37ef11b136ea224fe,,,,,,,,,244,44.10546875,87.3828125,1,0,1,response1disk,,7,11.11328125,1.5859375,1,0,1,rectangle,11.11328125,1.5859375,1,0,1,11.11328125,1.5859375,1,0,1,1,68,228,47,1,,,,,,,,
,,,,,,,,,,,,,FF,,,,,,,,1.1303,,,,,,,,,,,,,,,,,,,,,,6100b86d68f33db3c5aa1609,61036f12a0280fce27023e8b,2021-07-29_20h17.40.900,Simcolourproject_2stim_asymm_v5,2020.2.10,MacIntel,60,61025ae37ef11b136ea224fe,,,,,,,,,3663,49.45703125,-44.09375,1,0,1,response3disk,,5,8.61328125,-9.30078125,1,0,1,rectangle,8.61328125,-9.30078125,1,0,1,8.61328125,-9.30078125,1,0,1,1,69,229,65,1,,,,,,,,
,,,,,,,,,,,,,FF,,,,,,,,1.3653,,,,,,,,,,,,,,,,,,,,,,6100b86d68f33db3c5aa1609,61036f12a0280fce27023e8b,2021-07-29_20h17.40.900,Simcolourproject_2stim_asymm_v5,2020.2.10,MacIntel,60,61025ae37ef11b136ea224fe,,,,,,,,,1227,80.546875,-16.6171875,1,0,1,response3disk,,5,16.45703125,7.48046875,1,0,1,rectangle,16.45703125,7.48046875,1,0,1,16.45703125,7.48046875,1,0,1,1,70,230,142,1,,,,,,,,
,,,,,,,,,,,,,FF,,,,,,,,0.8316,,,,,,,,,,,,,,,,,,,,,,6100b86d68f33db3c5aa1609,61036f12a0280fce27023e8b,2021-07-29_20h17.40.900,Simcolourproject_2stim_asymm_v5,2020.2.10,MacIntel,60,61025ae37ef11b136ea224fe,,,,,,,,,3287,43.03515625,112.0625,1,0,1,response1disk,,7,0.18359375,0.171875,1,0,1,rectangle,0.18359375,0.171875,1,0,1,0.18359375,0.171875,1,0,1,1,71,231,118,1,,,,,,,,
,,,,,,,,,,,,,FF,,,,,,,,0.8637,,,,,,,,,,,,,,,,,,,,,,6100b86d68f33db3c5aa1609,61036f12a0280fce27023e8b,2021-07-29_20h17.40.900,Simcolourproject_2stim_asymm_v5,2020.2.10,MacIntel,60,61025ae37ef11b136ea224fe,,,,,,,,,2041,82.59375,52.97265625,1,0,1,response1disk,,6,-4.25,7.8984375,1,0,1,rectangle,-4.25,7.8984375,1,0,1,-4.25,7.8984375,1,0,1,1,72,232,20,1,,,,,,,,
,,,,,,,,,,,,,FF,,,,,,,,1.1466,,,,,,,,,,,,,,,,,,,,,,6100b86d68f33db3c5aa1609,61036f12a0280fce27023e8b,2021-07-29_20h17.40.900,Simcolourproject_2stim_asymm_v5,2020.2.10,MacIntel,60,61025ae37ef11b136ea224fe,,,,,,,,,3592,25.1953125,-88.43359375,1,0,1,response3disk,,4,7.78125,-1.23046875,1,0,1,rectangle,7.78125,-1.23046875,1,0,1,7.78125,-1.23046875,1,0,1,1,73,233,35,1,,,,,,,,
,,,,,,,,,,,,,FF,,,,,,,,1.2315,,,,,,,,,,,,,,,,,,,,,,6100b86d68f33db3c5aa1609,61036f12a0280fce27023e8b,2021-07-29_20h17.40.900,Simcolourproject_2stim_asymm_v5,2020.2.10,MacIntel,60,61025ae37ef11b136ea224fe,,,,,,,,,1833,73.640625,-35.3515625,1,0,1,response3disk,,5,25.05859375,-13.12890625,1,0,1,rectangle,25.05859375,-13.12890625,1,0,1,25.05859375,-13.12890625,1,0,1,1,74,234,14,1,,,,,,,,
,,,,,,,,,,,,,FF,,,,,,,,0.9487,,,,,,,,,,,,,,,,,,,,,,6100b86d68f33db3c5aa1609,61036f12a0280fce27023e8b,2021-07-29_20h17.40.900,Simcolourproject_2stim_asymm_v5,2020.2.10,MacIntel,60,61025ae37ef11b136ea224fe,,,,,,,,,269,68.30078125,23.53125,1,0,1,response1disk,,6,8.4765625,-7.41796875,1,0,1,rectangle,8.4765625,-7.41796875,1,0,1,8.4765625,-7.41796875,1,0,1,1,75,235,91,1,,,,,,,,
,,,,,,,,,,,,,FF,,,,,,,,0.897,,,,,,,,,,,,,,,,,,,,,,6100b86d68f33db3c5aa1609,61036f12a0280fce27023e8b,2021-07-29_20h17.40.900,Simcolourproject_2stim_asymm_v5,2020.2.10,MacIntel,60,61025ae37ef11b136ea224fe,,,,,,,,,3457,43.06640625,95.46484375,1,0,1,response1disk,,7,-12.59375,-12.34765625,1,0,1,rectangle,-12.59375,-12.34765625,1,0,1,-12.59375,-12.34765625,1,0,1,1,76,236,104,1,,,,,,,,
,,,,,,,,,,,,,FF,,,,,,,,0.8153,,,,,,,,,,,,,,,,,,,,,,6100b86d68f33db3c5aa1609,61036f12a0280fce27023e8b,2021-07-29_20h17.40.900,Simcolourproject_2stim_asymm_v5,2020.2.10,MacIntel,60,61025ae37ef11b136ea224fe,,,,,,,,,2260,21.8203125,67.796875,1,0,1,response1disk,,7,-0.7265625,-4.76171875,1,0,1,rectangle,-0.7265625,-4.76171875,1,0,1,-0.7265625,-4.76171875,1,0,1,1,77,237,114,1,,,,,,,,
,,,,,,,,,,,,,FF,,,,,,,,0.815,,,,,,,,,,,,,,,,,,,,,,6100b86d68f33db3c5aa1609,61036f12a0280fce27023e8b,2021-07-29_20h17.40.900,Simcolourproject_2stim_asymm_v5,2020.2.10,MacIntel,60,61025ae37ef11b136ea224fe,,,,,,,,,407,44.5546875,80.22265625,1,0,1,response1disk,,7,-2.15625,-4.82421875,1,0,1,rectangle,-2.15625,-4.82421875,1,0,1,-2.15625,-4.82421875,1,0,1,1,78,238,81,1,,,,,,,,
,,,,,,,,,,,,,FF,,,,,,,,1.2152,,,,,,,,,,,,,,,,,,,,,,6100b86d68f33db3c5aa1609,61036f12a0280fce27023e8b,2021-07-29_20h17.40.900,Simcolourproject_2stim_asymm_v5,2020.2.10,MacIntel,60,61025ae37ef11b136ea224fe,,,,,,,,,888,-55.49609375,-26.921875,1,0,1,response5disk,,2,-3.890625,-9.05078125,1,0,1,rectangle,-3.890625,-9.05078125,1,0,1,-3.890625,-9.05078125,1,0,1,1,79,239,146,1,,,,,,,,
,,,,,,,,,,,,,FF,,,,,,,,0.9316,,,,,,,,,,,,,,,,,,,,,,6100b86d68f33db3c5aa1609,61036f12a0280fce27023e8b,2021-07-29_20h17.40.900,Simcolourproject_2stim_asymm_v5,2020.2.10,MacIntel,60,61025ae37ef11b136ea224fe,,,,,,,,,2577,52.32421875,46.5,1,0,1,response1disk,,6,7.7265625,-12.50390625,1,0,1,rectangle,7.7265625,-12.50390625,1,0,1,7.7265625,-12.50390625,1,0,1,1,80,240,28,1,,,,,,,,
,,,,,,,,,,,,,FF,,,,,,,,1.612,,,,,,,,,,,,,,,,,,,,,,6100b86d68f33db3c5aa1609,61036f12a0280fce27023e8b,2021-07-29_20h17.40.900,Simcolourproject_2stim_asymm_v5,2020.2.10,MacIntel,60,61025ae37ef11b136ea224fe,,,,,,,,,514,90.3828125,-38.328125,1,0,1,response3disk,,5,21.44921875,0.12890625,1,0,1,rectangle,21.44921875,0.12890625,1,0,1,21.44921875,0.12890625,1,0,1,1,81,241,0,1,,,,,,,,
,,,,,,,,,,,,,FF,,,,,,,,1.3972,,,,,,,,,,,,,,,,,,,,,,6100b86d68f33db3c5aa1609,61036f12a0280fce27023e8b,2021-07-29_20h17.40.900,Simcolourproject_2stim_asymm_v5,2020.2.10,MacIntel,60,61025ae37ef11b136ea224fe,,,,,,,,,3378,77.37109375,36.2890625,1,0,1,response1disk,,6,22.44921875,8.41015625,1,0,1,rectangle,22.44921875,8.41015625,1,0,1,22.44921875,8.41015625,1,0,1,1,82,242,100,1,,,,,,,,
,,,,,,,,,,,,,FF,,,,,,,,0.8131,,,,,,,,,,,,,,,,,,,,,,6100b86d68f33db3c5aa1609,61036f12a0280fce27023e8b,2021-07-29_20h17.40.900,Simcolourproject_2stim_asymm_v5,2020.2.10,MacIntel,60,61025ae37ef11b136ea224fe,,,,,,,,,2147,34.78515625,77.203125,1,0,1,response1disk,,7,16.46875,-4.58203125,1,0,1,rectangle,16.46875,-4.58203125,1,0,1,16.46875,-4.58203125,1,0,1,1,83,243,37,1,,,,,,,,
,,,,,,,,,,,,,FF,,,,,,,,0.8971,,,,,,,,,,,,,,,,,,,,,,6100b86d68f33db3c5aa1609,61036f12a0280fce27023e8b,2021-07-29_20h17.40.900,Simcolourproject_2stim_asymm_v5,2020.2.10,MacIntel,60,61025ae37ef11b136ea224fe,,,,,,,,,3153,-27.47265625,-84.15234375,1,0,1,response5disk,,3,-18.28515625,-14.484375,1,0,1,rectangle,-18.28515625,-14.484375,1,0,1,-18.28515625,-14.484375,1,0,1,1,84,244,87,1,,,,,,,,
,,,,,,,,,,,,,FF,,,,,,,,1.2199,,,,,,,,,,,,,,,,,,,,,,6100b86d68f33db3c5aa1609,61036f12a0280fce27023e8b,2021-07-29_20h17.40.900,Simcolourproject_2stim_asymm_v5,2020.2.10,MacIntel,60,61025ae37ef11b136ea224fe,,,,,,,,,1716,79.92578125,42.3515625,1,0,1,response1disk,,6,5.53125,-11.32421875,1,0,1,rectangle,5.53125,-11.32421875,1,0,1,5.53125,-11.32421875,1,0,1,1,85,245,72,1,,,,,,,,
,,,,,,,,,,,,,FF,,,,,,,,0.9472,,,,,,,,,,,,,,,,,,,,,,6100b86d68f33db3c5aa1609,61036f12a0280fce27023e8b,2021-07-29_20h17.40.900,Simcolourproject_2stim_asymm_v5,2020.2.10,MacIntel,60,61025ae37ef11b136ea224fe,,,,,,,,,4264,35.65234375,70.1875,1,0,1,response1disk,,7,3.83984375,-0.15234375,1,0,1,rectangle,3.83984375,-0.15234375,1,0,1,3.83984375,-0.15234375,1,0,1,1,86,246,60,1,,,,,,,,
,,,,,,,,,,,,,FF,,,,,,,,0.8158,,,,,,,,,,,,,,,,,,,,,,6100b86d68f33db3c5aa1609,61036f12a0280fce27023e8b,2021-07-29_20h17.40.900,Simcolourproject_2stim_asymm_v5,2020.2.10,MacIntel,60,61025ae37ef11b136ea224fe,,,,,,,,,4069,41.421875,85.51171875,1,0,1,response1disk,,7,10.44140625,-2.32421875,1,0,1,rectangle,10.44140625,-2.32421875,1,0,1,10.44140625,-2.32421875,1,0,1,1,87,247,94,1,,,,,,,,
,,,,,,,,,,,,,FF,,,,,,,,0.7312,,,,,,,,,,,,,,,,,,,,,,6100b86d68f33db3c5aa1609,61036f12a0280fce27023e8b,2021-07-29_20h17.40.900,Simcolourproject_2stim_asymm_v5,2020.2.10,MacIntel,60,61025ae37ef11b136ea224fe,,,,,,,,,4045,47.53515625,69.015625,1,0,1,response1disk,,7,-6.3046875,4.69921875,1,0,1,rectangle,-75.1484375,-37.9765625,1,0,1,6.84375,-7.2890625,1,0,1,1,88,248,78,1,,response5disk_3,TRUE,2,2,"[208,149,279,51,119,290,79,220,275,53,94,66,27,50,283,268,249,46,214,166]",1.5459,rectangle
