key_resp.keys,key_resp.rt,key_resp_14.keys,key_resp_14.rt,key_resp_15.keys,key_resp_15.rt,key_resp_17.keys,key_resp_17.rt,key_resp_9.keys,key_resp_9.rt,key_resp_10.keys,key_resp_10.rt,practice_comparison,Ecc,mouse_5.x,mouse_5.y,mouse_5.leftButton,mouse_5.midButton,mouse_5.rightButton,mouse_5.clicked_name,pracsimilarity,response_time,mouse_10.x,mouse_10.y,mouse_10.leftButton,mouse_10.midButton,mouse_10.rightButton,mouse_10.clicked_name,mouse_7.x,mouse_7.y,mouse_7.leftButton,mouse_7.midButton,mouse_7.rightButton,mouse_6.x,mouse_6.y,mouse_6.leftButton,mouse_6.midButton,mouse_6.rightButton,duringprac.thisRepN,duringprac.thisTrialN,duringprac.thisN,duringprac.thisIndex,duringprac.ran,participant,session,date,expName,psychopyVersion,OS,frameRate,study_id,mouse_7.clicked_name,catchpracsimilarity,catch_response_time,catchnumberprac,catchtrialorderprac,mouse_6.clicked_name,key_resp_22.keys,key_resp_22.rt,realcomparison,mouse.x,mouse.y,mouse.leftButton,mouse.midButton,mouse.rightButton,mouse.clicked_name,Colour2,similarity,mouse_2.x,mouse_2.y,mouse_2.leftButton,mouse_2.midButton,mouse_2.rightButton,mouse_2.clicked_name,mouse_3.x,mouse_3.y,mouse_3.leftButton,mouse_3.midButton,mouse_3.rightButton,mouse_11.x,mouse_11.y,mouse_11.leftButton,mouse_11.midButton,mouse_11.rightButton,trials_2.thisRepN,trials_2.thisTrialN,trials_2.thisN,trials_2.thisIndex,trials_2.ran,Colour1,mouse_3.clicked_name,catchornah,catchsimilarity,catchnumber,catchtrialorder,catchRT,mouse_11.clicked_name
space,2.0895,space,7.3156,space,21.1478,space,16.146,space,1.0345,space,3.8978,8,PF,-34.64575195,-99.72888184,1,0,0,response5disk_5,3,6.0316,-0.208068848,-1.551818848,1,0,0,rectangle_8,-0.208068848,-1.551818848,1,0,0,-0.208068848,-1.551818848,1,0,0,0,0,0,6,1,6100993be073d2243a0af320,61036f2866dec8e5896fc4fc,2021-07-29_23h17.19.657,Simcolourproject_2stim_asymm_v5,2020.2.10,MacIntel,60,61025ae37ef11b136ea224fe,,,,,,,,,,,,,,,,,,,,,,,,,,,,,,,,,,,,,,,,,,,,,,
,,,,,,,,,,,,159,PF,-85.92840576,-36.34078979,1,0,0,response5disk_5,2,3.6159,-10.26940918,0.200592041,1,0,0,rectangle_8,32.0199585,74.78485107,1,0,0,-7.947387695,4.614715576,1,0,0,0,1,1,1,1,6100993be073d2243a0af320,61036f2866dec8e5896fc4fc,2021-07-29_23h17.19.657,Simcolourproject_2stim_asymm_v5,2020.2.10,MacIntel,60,61025ae37ef11b136ea224fe,response1disk_7,7,3.3342,7,"[2,5]",rectangle_4,,,,,,,,,,,,,,,,,,,,,,,,,,,,,,,,,,,,,,,,
,,,,,,,,,,,,15,FF,-78.42004395,-43.47143555,1,0,0,response5disk_5,2,4.5505,-0.956604004,2.100067139,1,0,0,rectangle_8,-0.956604004,2.100067139,1,0,0,-0.956604004,2.100067139,1,0,0,0,2,2,5,1,6100993be073d2243a0af320,61036f2866dec8e5896fc4fc,2021-07-29_23h17.19.657,Simcolourproject_2stim_asymm_v5,2020.2.10,MacIntel,60,61025ae37ef11b136ea224fe,,,,,,,,,,,,,,,,,,,,,,,,,,,,,,,,,,,,,,,,,,,,,,
,,,,,,,,,,,,67,FF,-41.48742676,102.046814,1,0,0,response7disk_5,0,1.716,-10.19006348,7.079345703,1,0,0,rectangle_8,-10.19006348,7.079345703,1,0,0,-10.19006348,7.079345703,1,0,0,0,3,3,3,1,6100993be073d2243a0af320,61036f2866dec8e5896fc4fc,2021-07-29_23h17.19.657,Simcolourproject_2stim_asymm_v5,2020.2.10,MacIntel,60,61025ae37ef11b136ea224fe,,,,,,,,,,,,,,,,,,,,,,,,,,,,,,,,,,,,,,,,,,,,,,
,,,,,,,,,,,,29,FF,-32.37438965,71.16827393,1,0,0,response7disk_5,0,1.1665,-8.094360352,-0.539550781,1,0,0,rectangle_8,46.05822754,94.22332764,1,0,0,0.736816406,1.010803223,1,0,0,0,4,4,0,1,6100993be073d2243a0af320,61036f2866dec8e5896fc4fc,2021-07-29_23h17.19.657,Simcolourproject_2stim_asymm_v5,2020.2.10,MacIntel,60,61025ae37ef11b136ea224fe,response1disk_7,7,5.382,7,"[2,5]",rectangle_4,,,,,,,,,,,,,,,,,,,,,,,,,,,,,,,,,,,,,,,,
,,,,,,,,,,,,92,PF,70.23529053,-83.23962402,1,0,0,response3disk_5,4,3.3828,-3.034545898,-1.721069336,1,0,0,rectangle_8,-3.034545898,-1.721069336,1,0,0,-3.034545898,-1.721069336,1,0,0,0,5,5,4,1,6100993be073d2243a0af320,61036f2866dec8e5896fc4fc,2021-07-29_23h17.19.657,Simcolourproject_2stim_asymm_v5,2020.2.10,MacIntel,60,61025ae37ef11b136ea224fe,,,,,,,,,,,,,,,,,,,,,,,,,,,,,,,,,,,,,,,,,,,,,,
,,,,,,,,,,,,109,PF,87.31408691,35.01092529,1,0,0,response1disk_5,6,1.215,-6.886047363,-1.562194824,1,0,0,rectangle_8,-6.886047363,-1.562194824,1,0,0,-6.886047363,-1.562194824,1,0,0,0,6,6,2,1,6100993be073d2243a0af320,61036f2866dec8e5896fc4fc,2021-07-29_23h17.19.657,Simcolourproject_2stim_asymm_v5,2020.2.10,MacIntel,60,61025ae37ef11b136ea224fe,,,,,,,,,,,,,,,,,,,,,,,,,,,,,,,,,,,,,,,,,,,,,,
,,,,,,,,,,,,,FF,,,,,,,,1.1664,,,,,,,,,,,,,,,,,,,,,,6100993be073d2243a0af320,61036f2866dec8e5896fc4fc,2021-07-29_23h17.19.657,Simcolourproject_2stim_asymm_v5,2020.2.10,MacIntel,60,61025ae37ef11b136ea224fe,,,,,,,space,5.267,4235,36.39312744,110.2966614,1,0,0,response1disk,,7,-1.794677734,-7.292236328,1,0,0,rectangle,-1.794677734,-7.292236328,1,0,0,-1.794677734,-7.292236328,1,0,0,0,0,0,81,1,,,,,,,,
,,,,,,,,,,,,,FF,,,,,,,,1.3331,,,,,,,,,,,,,,,,,,,,,,6100993be073d2243a0af320,61036f2866dec8e5896fc4fc,2021-07-29_23h17.19.657,Simcolourproject_2stim_asymm_v5,2020.2.10,MacIntel,60,61025ae37ef11b136ea224fe,,,,,,,,,3393,99.7355957,-46.89562988,1,0,0,response3disk,,5,14.77819824,4.468383789,1,0,0,rectangle,14.77819824,4.468383789,1,0,0,14.77819824,4.468383789,1,0,0,0,1,1,104,1,,,,,,,,
,,,,,,,,,,,,,FF,,,,,,,,1.2666,,,,,,,,,,,,,,,,,,,,,,6100993be073d2243a0af320,61036f2866dec8e5896fc4fc,2021-07-29_23h17.19.657,Simcolourproject_2stim_asymm_v5,2020.2.10,MacIntel,60,61025ae37ef11b136ea224fe,,,,,,,,,1658,-50.84088135,-104.5824585,1,0,0,response5disk,,3,3.125549316,7.92199707,1,0,0,rectangle,3.125549316,7.92199707,1,0,0,3.125549316,7.92199707,1,0,0,0,2,2,119,1,,,,,,,,
,,,,,,,,,,,,,FF,,,,,,,,1.1174,,,,,,,,,,,,,,,,,,,,,,6100993be073d2243a0af320,61036f2866dec8e5896fc4fc,2021-07-29_23h17.19.657,Simcolourproject_2stim_asymm_v5,2020.2.10,MacIntel,60,61025ae37ef11b136ea224fe,,,,,,,,,3323,-83.83575439,57.38140869,1,0,0,response7disk,,1,3.904174805,-6.941253662,1,0,0,rectangle,3.904174805,-6.941253662,1,0,0,3.904174805,-6.941253662,1,0,0,0,3,3,49,1,,,,,,,,
,,,,,,,,,,,,,FF,,,,,,,,1.2515,,,,,,,,,,,,,,,,,,,,,,6100993be073d2243a0af320,61036f2866dec8e5896fc4fc,2021-07-29_23h17.19.657,Simcolourproject_2stim_asymm_v5,2020.2.10,MacIntel,60,61025ae37ef11b136ea224fe,,,,,,,,,2726,67.6776123,-46.72705078,1,0,0,response3disk,,5,4.426757813,-7.038818359,1,0,0,rectangle,4.426757813,-7.038818359,1,0,0,4.426757813,-7.038818359,1,0,0,0,4,4,134,1,,,,,,,,
,,,,,,,,,,,,,FF,,,,,,,,1.1853,,,,,,,,,,,,,,,,,,,,,,6100993be073d2243a0af320,61036f2866dec8e5896fc4fc,2021-07-29_23h17.19.657,Simcolourproject_2stim_asymm_v5,2020.2.10,MacIntel,60,61025ae37ef11b136ea224fe,,,,,,,,,155,-55.3895874,-100.1162109,1,0,0,response5disk,,3,14.21038818,-1.370483398,1,0,0,rectangle,14.21038818,-1.370483398,1,0,0,14.21038818,-1.370483398,1,0,0,0,5,5,102,1,,,,,,,,
,,,,,,,,,,,,,FF,,,,,,,,0.9493,,,,,,,,,,,,,,,,,,,,,,6100993be073d2243a0af320,61036f2866dec8e5896fc4fc,2021-07-29_23h17.19.657,Simcolourproject_2stim_asymm_v5,2020.2.10,MacIntel,60,61025ae37ef11b136ea224fe,,,,,,,,,285,55.51080322,-34.94384766,1,0,0,response3disk,,5,-9.657104492,3.329345703,1,0,0,rectangle,-9.657104492,3.329345703,1,0,0,-9.657104492,3.329345703,1,0,0,0,6,6,63,1,,,,,,,,
,,,,,,,,,,,,,FF,,,,,,,,2.9998,,,,,,,,,,,,,,,,,,,,,,6100993be073d2243a0af320,61036f2866dec8e5896fc4fc,2021-07-29_23h17.19.657,Simcolourproject_2stim_asymm_v5,2020.2.10,MacIntel,60,61025ae37ef11b136ea224fe,,,,,,,,,3807,-41.81494141,-87.074646,1,0,0,response5disk,,3,-1.87322998,-0.290283203,1,0,0,rectangle,-1.87322998,-0.290283203,1,0,0,-1.87322998,-0.290283203,1,0,0,0,7,7,55,1,,,,,,,,
,,,,,,,,,,,,,FF,,,,,,,,1.0508,,,,,,,,,,,,,,,,,,,,,,6100993be073d2243a0af320,61036f2866dec8e5896fc4fc,2021-07-29_23h17.19.657,Simcolourproject_2stim_asymm_v5,2020.2.10,MacIntel,60,61025ae37ef11b136ea224fe,,,,,,,,,1819,95.26226807,39.61050415,1,0,0,response1disk,,6,20.54162598,0.294677734,1,0,0,rectangle,20.54162598,0.294677734,1,0,0,20.54162598,0.294677734,1,0,0,0,8,8,94,1,,,,,,,,
,,,,,,,,,,,,,FF,,,,,,,,1.132,,,,,,,,,,,,,,,,,,,,,,6100993be073d2243a0af320,61036f2866dec8e5896fc4fc,2021-07-29_23h17.19.657,Simcolourproject_2stim_asymm_v5,2020.2.10,MacIntel,60,61025ae37ef11b136ea224fe,,,,,,,,,462,93.33068848,28.91165161,1,0,0,response1disk,,6,-13.52581787,-0.174926758,1,0,0,rectangle,-13.52581787,-0.174926758,1,0,0,-13.52581787,-0.174926758,1,0,0,0,9,9,2,1,,,,,,,,
,,,,,,,,,,,,,FF,,,,,,,,1.3353,,,,,,,,,,,,,,,,,,,,,,6100993be073d2243a0af320,61036f2866dec8e5896fc4fc,2021-07-29_23h17.19.657,Simcolourproject_2stim_asymm_v5,2020.2.10,MacIntel,60,61025ae37ef11b136ea224fe,,,,,,,,,3558,94.15008545,27.29501343,1,0,0,response1disk,,6,-12.45635986,-3.314758301,1,0,0,rectangle,-12.45635986,-3.314758301,1,0,0,-12.45635986,-3.314758301,1,0,0,0,10,10,66,1,,,,,,,,
,,,,,,,,,,,,,FF,,,,,,,,1.5489,,,,,,,,,,,,,,,,,,,,,,6100993be073d2243a0af320,61036f2866dec8e5896fc4fc,2021-07-29_23h17.19.657,Simcolourproject_2stim_asymm_v5,2020.2.10,MacIntel,60,61025ae37ef11b136ea224fe,,,,,,,,,2155,-92.10614014,-48.00979614,1,0,0,response5disk,,2,-10.26184082,2.744812012,1,0,0,rectangle,-10.26184082,2.744812012,1,0,0,-10.26184082,2.744812012,1,0,0,0,11,11,143,1,,,,,,,,
,,,,,,,,,,,,,FF,,,,,,,,1.2002,,,,,,,,,,,,,,,,,,,,,,6100993be073d2243a0af320,61036f2866dec8e5896fc4fc,2021-07-29_23h17.19.657,Simcolourproject_2stim_asymm_v5,2020.2.10,MacIntel,60,61025ae37ef11b136ea224fe,,,,,,,,,4043,-36.50604248,-77.13330078,1,0,0,response5disk,,3,12.20422363,9.852142334,1,0,0,rectangle,12.20422363,9.852142334,1,0,0,12.20422363,9.852142334,1,0,0,0,12,12,4,1,,,,,,,,
,,,,,,,,,,,,,FF,,,,,,,,1.8846,,,,,,,,,,,,,,,,,,,,,,6100993be073d2243a0af320,61036f2866dec8e5896fc4fc,2021-07-29_23h17.19.657,Simcolourproject_2stim_asymm_v5,2020.2.10,MacIntel,60,61025ae37ef11b136ea224fe,,,,,,,,,593,-52.77313232,75.94506836,1,0,0,response7disk,,0,-9.603637695,8.538024902,1,0,0,rectangle,-9.603637695,8.538024902,1,0,0,-9.603637695,8.538024902,1,0,0,0,13,13,41,1,,,,,,,,
,,,,,,,,,,,,,FF,,,,,,,,1.2168,,,,,,,,,,,,,,,,,,,,,,6100993be073d2243a0af320,61036f2866dec8e5896fc4fc,2021-07-29_23h17.19.657,Simcolourproject_2stim_asymm_v5,2020.2.10,MacIntel,60,61025ae37ef11b136ea224fe,,,,,,,,,2297,50.38598633,-79.37249756,1,0,0,response3disk,,4,7.926025391,8.220825195,1,0,0,rectangle,7.926025391,8.220825195,1,0,0,7.926025391,8.220825195,1,0,0,0,14,14,37,1,,,,,,,,
,,,,,,,,,,,,,FF,,,,,,,,2.4499,,,,,,,,,,,,,,,,,,,,,,6100993be073d2243a0af320,61036f2866dec8e5896fc4fc,2021-07-29_23h17.19.657,Simcolourproject_2stim_asymm_v5,2020.2.10,MacIntel,60,61025ae37ef11b136ea224fe,,,,,,,,,2930,-43.71398926,-92.85455322,1,0,0,response5disk,,3,-3.255493164,-7.156555176,1,0,0,rectangle,-3.255493164,-7.156555176,1,0,0,-3.255493164,-7.156555176,1,0,0,0,15,15,26,1,,,,,,,,
,,,,,,,,,,,,,FF,,,,,,,,0.9153,,,,,,,,,,,,,,,,,,,,,,6100993be073d2243a0af320,61036f2866dec8e5896fc4fc,2021-07-29_23h17.19.657,Simcolourproject_2stim_asymm_v5,2020.2.10,MacIntel,60,61025ae37ef11b136ea224fe,,,,,,,,,1936,-86.83508301,-46.66836548,1,0,0,response5disk,,2,-4.67755127,-5.882995605,1,0,0,rectangle,-4.67755127,-5.882995605,1,0,0,-4.67755127,-5.882995605,1,0,0,0,16,16,23,1,,,,,,,,
,,,,,,,,,,,,,FF,,,,,,,,0.9001,,,,,,,,,,,,,,,,,,,,,,6100993be073d2243a0af320,61036f2866dec8e5896fc4fc,2021-07-29_23h17.19.657,Simcolourproject_2stim_asymm_v5,2020.2.10,MacIntel,60,61025ae37ef11b136ea224fe,,,,,,,,,1399,-45.74267578,-85.79589844,1,0,0,response5disk,,3,11.14941406,-2.590515137,1,0,0,rectangle,11.14941406,-2.590515137,1,0,0,11.14941406,-2.590515137,1,0,0,0,17,17,69,1,,,,,,,,
,,,,,,,,,,,,,FF,,,,,,,,2.6305,,,,,,,,,,,,,,,,,,,,,,6100993be073d2243a0af320,61036f2866dec8e5896fc4fc,2021-07-29_23h17.19.657,Simcolourproject_2stim_asymm_v5,2020.2.10,MacIntel,60,61025ae37ef11b136ea224fe,,,,,,,,,188,48.07861328,-75.3458252,1,0,0,response3disk,,4,5.894165039,1.161682129,1,0,0,rectangle,5.894165039,1.161682129,1,0,0,5.894165039,1.161682129,1,0,0,0,18,18,150,1,,,,,,,,
,,,,,,,,,,,,,FF,,,,,,,,0.8831,,,,,,,,,,,,,,,,,,,,,,6100993be073d2243a0af320,61036f2866dec8e5896fc4fc,2021-07-29_23h17.19.657,Simcolourproject_2stim_asymm_v5,2020.2.10,MacIntel,60,61025ae37ef11b136ea224fe,,,,,,,,,3152,103.7305908,41.06253052,1,0,0,response1disk,,6,3.856323242,8.061645508,1,0,0,rectangle,3.856323242,8.061645508,1,0,0,3.856323242,8.061645508,1,0,0,0,19,19,84,1,,,,,,,,
,,,,,,,,,,,,,FF,,,,,,,,0.9,,,,,,,,,,,,,,,,,,,,,,6100993be073d2243a0af320,61036f2866dec8e5896fc4fc,2021-07-29_23h17.19.657,Simcolourproject_2stim_asymm_v5,2020.2.10,MacIntel,60,61025ae37ef11b136ea224fe,,,,,,,,,3648,-75.98480225,-38.15032959,1,0,0,response5disk,,2,-11.53674316,-1.043701172,1,0,0,rectangle,-11.53674316,-1.043701172,1,0,0,-11.53674316,-1.043701172,1,0,0,0,20,20,85,1,,,,,,,,
,,,,,,,,,,,,,FF,,,,,,,,1.0529,,,,,,,,,,,,,,,,,,,,,,6100993be073d2243a0af320,61036f2866dec8e5896fc4fc,2021-07-29_23h17.19.657,Simcolourproject_2stim_asymm_v5,2020.2.10,MacIntel,60,61025ae37ef11b136ea224fe,,,,,,,,,126,44.05792236,-95.66094971,1,0,0,response3disk,,4,2.408691406,-2.969329834,1,0,0,rectangle,2.408691406,-2.969329834,1,0,0,2.408691406,-2.969329834,1,0,0,0,21,21,20,1,,,,,,,,
,,,,,,,,,,,,,FF,,,,,,,,1.1665,,,,,,,,,,,,,,,,,,,,,,6100993be073d2243a0af320,61036f2866dec8e5896fc4fc,2021-07-29_23h17.19.657,Simcolourproject_2stim_asymm_v5,2020.2.10,MacIntel,60,61025ae37ef11b136ea224fe,,,,,,,,,2445,-35.73388672,-97.15356445,1,0,0,response5disk,,3,0.953857422,-9.27130127,1,0,0,rectangle,0.953857422,-9.27130127,1,0,0,0.953857422,-9.27130127,1,0,0,0,22,22,57,1,,,,,,,,
,,,,,,,,,,,,,FF,,,,,,,,1.2334,,,,,,,,,,,,,,,,,,,,,,6100993be073d2243a0af320,61036f2866dec8e5896fc4fc,2021-07-29_23h17.19.657,Simcolourproject_2stim_asymm_v5,2020.2.10,MacIntel,60,61025ae37ef11b136ea224fe,,,,,,,,,51,46.35266113,-88.61773682,1,0,0,response3disk,,4,0.666870117,-9.161651611,1,0,0,rectangle,0.666870117,-9.161651611,1,0,0,0.666870117,-9.161651611,1,0,0,0,23,23,34,1,,,,,,,,
,,,,,,,,,,,,,FF,,,,,,,,0.9353,,,,,,,,,,,,,,,,,,,,,,6100993be073d2243a0af320,61036f2866dec8e5896fc4fc,2021-07-29_23h17.19.657,Simcolourproject_2stim_asymm_v5,2020.2.10,MacIntel,60,61025ae37ef11b136ea224fe,,,,,,,,,2848,70.78881836,-47.06799316,1,0,0,response3disk,,5,20.65484619,-13.1986084,1,0,0,rectangle,20.65484619,-13.1986084,1,0,0,20.65484619,-13.1986084,1,0,0,0,24,24,54,1,,,,,,,,
,,,,,,,,,,,,,FF,,,,,,,,4.1824,,,,,,,,,,,,,,,,,,,,,,6100993be073d2243a0af320,61036f2866dec8e5896fc4fc,2021-07-29_23h17.19.657,Simcolourproject_2stim_asymm_v5,2020.2.10,MacIntel,60,61025ae37ef11b136ea224fe,,,,,,,,,2975,-41.51623535,-83.14129639,1,0,0,response5disk,,3,7.564697266,9.875061035,1,0,0,rectangle,91.03869629,36.24090576,1,0,0,8.619262695,-9.221740723,1,0,0,0,25,25,144,1,,response1disk_3,TRUE,6,6,"[34,159,276,223,304,268,26,194,139,260,34,244,86,300,273,208,33,214,197,323]",2.3689,rectangle
,,,,,,,,,,,,,FF,,,,,,,,0.9548,,,,,,,,,,,,,,,,,,,,,,6100993be073d2243a0af320,61036f2866dec8e5896fc4fc,2021-07-29_23h17.19.657,Simcolourproject_2stim_asymm_v5,2020.2.10,MacIntel,60,61025ae37ef11b136ea224fe,,,,,,,,,3186,-90.53381348,-34.35415649,1,0,0,response5disk,,2,16.55133057,-1.328613281,1,0,0,rectangle,16.55133057,-1.328613281,1,0,0,16.55133057,-1.328613281,1,0,0,0,26,26,42,1,,,,,,,,
,,,,,,,,,,,,,FF,,,,,,,,0.8018,,,,,,,,,,,,,,,,,,,,,,6100993be073d2243a0af320,61036f2866dec8e5896fc4fc,2021-07-29_23h17.19.657,Simcolourproject_2stim_asymm_v5,2020.2.10,MacIntel,60,61025ae37ef11b136ea224fe,,,,,,,,,644,72.10089111,-37.53540039,1,0,0,response3disk,,5,2.790283203,8.527191162,1,0,0,rectangle,2.790283203,8.527191162,1,0,0,2.790283203,8.527191162,1,0,0,0,27,27,64,1,,,,,,,,
,,,,,,,,,,,,,FF,,,,,,,,0.8499,,,,,,,,,,,,,,,,,,,,,,6100993be073d2243a0af320,61036f2866dec8e5896fc4fc,2021-07-29_23h17.19.657,Simcolourproject_2stim_asymm_v5,2020.2.10,MacIntel,60,61025ae37ef11b136ea224fe,,,,,,,,,3847,71.31988525,32.67248535,1,0,0,response1disk,,6,4.969116211,1.498657227,1,0,0,rectangle,4.969116211,1.498657227,1,0,0,4.969116211,1.498657227,1,0,0,0,28,28,117,1,,,,,,,,
,,,,,,,,,,,,,FF,,,,,,,,1.1336,,,,,,,,,,,,,,,,,,,,,,6100993be073d2243a0af320,61036f2866dec8e5896fc4fc,2021-07-29_23h17.19.657,Simcolourproject_2stim_asymm_v5,2020.2.10,MacIntel,60,61025ae37ef11b136ea224fe,,,,,,,,,2694,-75.33166504,-51.20303345,1,0,0,response5disk,,2,-4.725952148,-10.22839355,1,0,0,rectangle,-4.725952148,-10.22839355,1,0,0,-4.725952148,-10.22839355,1,0,0,0,29,29,142,1,,,,,,,,
,,,,,,,,,,,,,FF,,,,,,,,1.1998,,,,,,,,,,,,,,,,,,,,,,6100993be073d2243a0af320,61036f2866dec8e5896fc4fc,2021-07-29_23h17.19.657,Simcolourproject_2stim_asymm_v5,2020.2.10,MacIntel,60,61025ae37ef11b136ea224fe,,,,,,,,,964,-94.96484375,-34.72979736,1,0,0,response5disk,,2,-33.00646973,-12.89901733,1,0,0,rectangle,-33.00646973,-12.89901733,1,0,0,-33.00646973,-12.89901733,1,0,0,0,30,30,28,1,,,,,,,,
,,,,,,,,,,,,,FF,,,,,,,,1.0002,,,,,,,,,,,,,,,,,,,,,,6100993be073d2243a0af320,61036f2866dec8e5896fc4fc,2021-07-29_23h17.19.657,Simcolourproject_2stim_asymm_v5,2020.2.10,MacIntel,60,61025ae37ef11b136ea224fe,,,,,,,,,1306,97.87091064,26.53692627,1,0,0,response1disk,,6,0.829467773,-6.239990234,1,0,0,rectangle,0.829467773,-6.239990234,1,0,0,0.829467773,-6.239990234,1,0,0,0,31,31,87,1,,,,,,,,
,,,,,,,,,,,,,FF,,,,,,,,1.4661,,,,,,,,,,,,,,,,,,,,,,6100993be073d2243a0af320,61036f2866dec8e5896fc4fc,2021-07-29_23h17.19.657,Simcolourproject_2stim_asymm_v5,2020.2.10,MacIntel,60,61025ae37ef11b136ea224fe,,,,,,,,,3128,-83.98773193,-40.78411865,1,0,0,response5disk,,2,-20.07891846,-7.936828613,1,0,0,rectangle,109.0881958,-49.24530029,1,0,0,15.37792969,-5.69909668,1,0,0,0,32,32,97,1,,response3disk_3,TRUE,5,5,"[34,159,276,223,304,268,26,194,139,260,34,244,86,300,273,208,33,214,197,323]",2.9341,rectangle
,,,,,,,,,,,,,FF,,,,,,,,1.0166,,,,,,,,,,,,,,,,,,,,,,6100993be073d2243a0af320,61036f2866dec8e5896fc4fc,2021-07-29_23h17.19.657,Simcolourproject_2stim_asymm_v5,2020.2.10,MacIntel,60,61025ae37ef11b136ea224fe,,,,,,,,,831,43.73815918,-92.47143555,1,0,0,response3disk,,4,-20.60620117,-2.710876465,1,0,0,rectangle,37.12109375,-102.8778076,1,0,0,-5.454345703,-8.785583496,1,0,0,0,33,33,14,1,,response3disk_3,TRUE,4,4,"[34,159,276,223,304,268,26,194,139,260,34,244,86,300,273,208,33,214,197,323]",1.7996,rectangle
,,,,,,,,,,,,,FF,,,,,,,,0.9672,,,,,,,,,,,,,,,,,,,,,,6100993be073d2243a0af320,61036f2866dec8e5896fc4fc,2021-07-29_23h17.19.657,Simcolourproject_2stim_asymm_v5,2020.2.10,MacIntel,60,61025ae37ef11b136ea224fe,,,,,,,,,1120,40.27697754,-98.63653564,1,0,0,response3disk,,4,8.348022461,-5.439697266,1,0,0,rectangle,8.348022461,-5.439697266,1,0,0,8.348022461,-5.439697266,1,0,0,0,34,34,93,1,,,,,,,,
,,,,,,,,,,,,,FF,,,,,,,,1.0828,,,,,,,,,,,,,,,,,,,,,,6100993be073d2243a0af320,61036f2866dec8e5896fc4fc,2021-07-29_23h17.19.657,Simcolourproject_2stim_asymm_v5,2020.2.10,MacIntel,60,61025ae37ef11b136ea224fe,,,,,,,,,3963,99.75610352,-42.41708374,1,0,0,response3disk,,5,3.083984375,1.95513916,1,0,0,rectangle,3.083984375,1.95513916,1,0,0,3.083984375,1.95513916,1,0,0,0,35,35,156,1,,,,,,,,
,,,,,,,,,,,,,FF,,,,,,,,1.102,,,,,,,,,,,,,,,,,,,,,,6100993be073d2243a0af320,61036f2866dec8e5896fc4fc,2021-07-29_23h17.19.657,Simcolourproject_2stim_asymm_v5,2020.2.10,MacIntel,60,61025ae37ef11b136ea224fe,,,,,,,,,111,-42.83087158,-83.05566406,1,0,0,response5disk,,3,7.537719727,11.97079468,1,0,0,rectangle,7.537719727,11.97079468,1,0,0,7.537719727,11.97079468,1,0,0,0,36,36,135,1,,,,,,,,
,,,,,,,,,,,,,FF,,,,,,,,0.9018,,,,,,,,,,,,,,,,,,,,,,6100993be073d2243a0af320,61036f2866dec8e5896fc4fc,2021-07-29_23h17.19.657,Simcolourproject_2stim_asymm_v5,2020.2.10,MacIntel,60,61025ae37ef11b136ea224fe,,,,,,,,,3635,85.99029541,30.06848145,1,0,0,response1disk,,6,13.2421875,8.953063965,1,0,0,rectangle,13.2421875,8.953063965,1,0,0,13.2421875,8.953063965,1,0,0,0,37,37,116,1,,,,,,,,
,,,,,,,,,,,,,FF,,,,,,,,1.2508,,,,,,,,,,,,,,,,,,,,,,6100993be073d2243a0af320,61036f2866dec8e5896fc4fc,2021-07-29_23h17.19.657,Simcolourproject_2stim_asymm_v5,2020.2.10,MacIntel,60,61025ae37ef11b136ea224fe,,,,,,,,,3799,-83.23699951,-37.87368774,1,0,0,response5disk,,2,-17.44885254,-10.92605591,1,0,0,rectangle,-17.44885254,-10.92605591,1,0,0,-17.44885254,-10.92605591,1,0,0,0,38,38,35,1,,,,,,,,
,,,,,,,,,,,,,FF,,,,,,,,0.9008,,,,,,,,,,,,,,,,,,,,,,6100993be073d2243a0af320,61036f2866dec8e5896fc4fc,2021-07-29_23h17.19.657,Simcolourproject_2stim_asymm_v5,2020.2.10,MacIntel,60,61025ae37ef11b136ea224fe,,,,,,,,,2753,-45.2565918,-119.2739868,1,0,0,response5disk,,3,-2.303894043,-3.879119873,1,0,0,rectangle,-2.303894043,-3.879119873,1,0,0,-2.303894043,-3.879119873,1,0,0,0,39,39,89,1,,,,,,,,
,,,,,,,,,,,,,FF,,,,,,,,1.2831,,,,,,,,,,,,,,,,,,,,,,6100993be073d2243a0af320,61036f2866dec8e5896fc4fc,2021-07-29_23h17.19.657,Simcolourproject_2stim_asymm_v5,2020.2.10,MacIntel,60,61025ae37ef11b136ea224fe,,,,,,,,,2536,41.31689453,-87.09350586,1,0,0,response3disk,,4,5.473754883,-2.312316895,1,0,0,rectangle,5.473754883,-2.312316895,1,0,0,5.473754883,-2.312316895,1,0,0,0,40,40,9,1,,,,,,,,
,,,,,,,,,,,,,FF,,,,,,,,1.0172,,,,,,,,,,,,,,,,,,,,,,6100993be073d2243a0af320,61036f2866dec8e5896fc4fc,2021-07-29_23h17.19.657,Simcolourproject_2stim_asymm_v5,2020.2.10,MacIntel,60,61025ae37ef11b136ea224fe,,,,,,,,,2480,52.05786133,96.92852783,1,0,0,response1disk,,7,5.896850586,4.835571289,1,0,0,rectangle,5.896850586,4.835571289,1,0,0,5.896850586,4.835571289,1,0,0,0,41,41,62,1,,,,,,,,
,,,,,,,,,,,,,FF,,,,,,,,1.3833,,,,,,,,,,,,,,,,,,,,,,6100993be073d2243a0af320,61036f2866dec8e5896fc4fc,2021-07-29_23h17.19.657,Simcolourproject_2stim_asymm_v5,2020.2.10,MacIntel,60,61025ae37ef11b136ea224fe,,,,,,,,,1227,78.96875,-48.58380127,1,0,0,response3disk,,5,-11.2668457,1.309814453,1,0,0,rectangle,-11.2668457,1.309814453,1,0,0,-11.2668457,1.309814453,1,0,0,0,42,42,109,1,,,,,,,,
,,,,,,,,,,,,,FF,,,,,,,,2.6,,,,,,,,,,,,,,,,,,,,,,6100993be073d2243a0af320,61036f2866dec8e5896fc4fc,2021-07-29_23h17.19.657,Simcolourproject_2stim_asymm_v5,2020.2.10,MacIntel,60,61025ae37ef11b136ea224fe,,,,,,,,,3574,39.47692871,-102.7199097,1,0,0,response3disk,,4,-3.058105469,-9.626525879,1,0,0,rectangle,-3.058105469,-9.626525879,1,0,0,-3.058105469,-9.626525879,1,0,0,0,43,43,30,1,,,,,,,,
,,,,,,,,,,,,,FF,,,,,,,,0.8332,,,,,,,,,,,,,,,,,,,,,,6100993be073d2243a0af320,61036f2866dec8e5896fc4fc,2021-07-29_23h17.19.657,Simcolourproject_2stim_asymm_v5,2020.2.10,MacIntel,60,61025ae37ef11b136ea224fe,,,,,,,,,4150,81.57696533,-38.69802856,1,0,0,response3disk,,5,20.73962402,-8.717773438,1,0,0,rectangle,20.73962402,-8.717773438,1,0,0,20.73962402,-8.717773438,1,0,0,0,44,44,51,1,,,,,,,,
,,,,,,,,,,,,,FF,,,,,,,,0.9653,,,,,,,,,,,,,,,,,,,,,,6100993be073d2243a0af320,61036f2866dec8e5896fc4fc,2021-07-29_23h17.19.657,Simcolourproject_2stim_asymm_v5,2020.2.10,MacIntel,60,61025ae37ef11b136ea224fe,,,,,,,,,848,-74.02172852,-35.55255127,1,0,0,response5disk,,2,-9.423583984,-16.35610962,1,0,0,rectangle,-9.423583984,-16.35610962,1,0,0,-9.423583984,-16.35610962,1,0,0,0,45,45,111,1,,,,,,,,
,,,,,,,,,,,,,FF,,,,,,,,1.2153,,,,,,,,,,,,,,,,,,,,,,6100993be073d2243a0af320,61036f2866dec8e5896fc4fc,2021-07-29_23h17.19.657,Simcolourproject_2stim_asymm_v5,2020.2.10,MacIntel,60,61025ae37ef11b136ea224fe,,,,,,,,,2654,83.88983154,-45.53051758,1,0,0,response3disk,,5,8.053283691,-5.581665039,1,0,0,rectangle,8.053283691,-5.581665039,1,0,0,8.053283691,-5.581665039,1,0,0,0,46,46,48,1,,,,,,,,
,,,,,,,,,,,,,FF,,,,,,,,0.8656,,,,,,,,,,,,,,,,,,,,,,6100993be073d2243a0af320,61036f2866dec8e5896fc4fc,2021-07-29_23h17.19.657,Simcolourproject_2stim_asymm_v5,2020.2.10,MacIntel,60,61025ae37ef11b136ea224fe,,,,,,,,,4018,-85.22320557,-40.87631226,1,0,0,response5disk,,2,0.609008789,0.794189453,1,0,0,rectangle,0.609008789,0.794189453,1,0,0,0.609008789,0.794189453,1,0,0,0,47,47,120,1,,,,,,,,
,,,,,,,,,,,,,FF,,,,,,,,1.2162,,,,,,,,,,,,,,,,,,,,,,6100993be073d2243a0af320,61036f2866dec8e5896fc4fc,2021-07-29_23h17.19.657,Simcolourproject_2stim_asymm_v5,2020.2.10,MacIntel,60,61025ae37ef11b136ea224fe,,,,,,,,,2242,41.04681396,-86.83966064,1,0,0,response3disk,,4,-2.040893555,0.160369873,1,0,0,rectangle,-2.040893555,0.160369873,1,0,0,-2.040893555,0.160369873,1,0,0,0,48,48,100,1,,,,,,,,
,,,,,,,,,,,,,FF,,,,,,,,2.3167,,,,,,,,,,,,,,,,,,,,,,6100993be073d2243a0af320,61036f2866dec8e5896fc4fc,2021-07-29_23h17.19.657,Simcolourproject_2stim_asymm_v5,2020.2.10,MacIntel,60,61025ae37ef11b136ea224fe,,,,,,,,,4347,-65.63269043,-33.13955688,1,0,0,response5disk,,2,6.861755371,-3.151916504,1,0,0,rectangle,6.861755371,-3.151916504,1,0,0,6.861755371,-3.151916504,1,0,0,0,49,49,73,1,,,,,,,,
,,,,,,,,,,,,,FF,,,,,,,,0.9655,,,,,,,,,,,,,,,,,,,,,,6100993be073d2243a0af320,61036f2866dec8e5896fc4fc,2021-07-29_23h17.19.657,Simcolourproject_2stim_asymm_v5,2020.2.10,MacIntel,60,61025ae37ef11b136ea224fe,,,,,,,,,2117,-73.0267334,-32.06707764,1,0,0,response5disk,,2,-8.034423828,-1.148773193,1,0,0,rectangle,-8.034423828,-1.148773193,1,0,0,-8.034423828,-1.148773193,1,0,0,0,50,50,7,1,,,,,,,,
,,,,,,,,,,,,,FF,,,,,,,,0.7217,,,,,,,,,,,,,,,,,,,,,,6100993be073d2243a0af320,61036f2866dec8e5896fc4fc,2021-07-29_23h17.19.657,Simcolourproject_2stim_asymm_v5,2020.2.10,MacIntel,60,61025ae37ef11b136ea224fe,,,,,,,,,1568,-83.98217773,-40.60882568,1,0,0,response5disk,,2,21.39172363,8.314086914,1,0,0,rectangle,21.39172363,8.314086914,1,0,0,21.39172363,8.314086914,1,0,0,0,51,51,114,1,,,,,,,,
,,,,,,,,,,,,,FF,,,,,,,,0.6326,,,,,,,,,,,,,,,,,,,,,,6100993be073d2243a0af320,61036f2866dec8e5896fc4fc,2021-07-29_23h17.19.657,Simcolourproject_2stim_asymm_v5,2020.2.10,MacIntel,60,61025ae37ef11b136ea224fe,,,,,,,,,1680,65.85498047,-49.12408447,1,0,0,response3disk,,5,5.182983398,-1.834838867,1,0,0,rectangle,5.182983398,-1.834838867,1,0,0,5.182983398,-1.834838867,1,0,0,0,52,52,50,1,,,,,,,,
,,,,,,,,,,,,,FF,,,,,,,,0.8986,,,,,,,,,,,,,,,,,,,,,,6100993be073d2243a0af320,61036f2866dec8e5896fc4fc,2021-07-29_23h17.19.657,Simcolourproject_2stim_asymm_v5,2020.2.10,MacIntel,60,61025ae37ef11b136ea224fe,,,,,,,,,1721,-44.17858887,-68.93109131,1,0,0,response5disk,,3,-20.22094727,2.35168457,1,0,0,rectangle,-20.22094727,2.35168457,1,0,0,-20.22094727,2.35168457,1,0,0,0,53,53,77,1,,,,,,,,
,,,,,,,,,,,,,FF,,,,,,,,0.9665,,,,,,,,,,,,,,,,,,,,,,6100993be073d2243a0af320,61036f2866dec8e5896fc4fc,2021-07-29_23h17.19.657,Simcolourproject_2stim_asymm_v5,2020.2.10,MacIntel,60,61025ae37ef11b136ea224fe,,,,,,,,,19,-46.12316895,-79.46276855,1,0,0,response5disk,,3,-3.433532715,2.431335449,1,0,0,rectangle,-3.433532715,2.431335449,1,0,0,-3.433532715,2.431335449,1,0,0,0,54,54,45,1,,,,,,,,
,,,,,,,,,,,,,FF,,,,,,,,0.9669,,,,,,,,,,,,,,,,,,,,,,6100993be073d2243a0af320,61036f2866dec8e5896fc4fc,2021-07-29_23h17.19.657,Simcolourproject_2stim_asymm_v5,2020.2.10,MacIntel,60,61025ae37ef11b136ea224fe,,,,,,,,,811,87.434021,-50.24255371,1,0,0,response3disk,,5,8.167541504,4.562713623,1,0,0,rectangle,8.167541504,4.562713623,1,0,0,8.167541504,4.562713623,1,0,0,0,55,55,158,1,,,,,,,,
,,,,,,,,,,,,,FF,,,,,,,,0.8175,,,,,,,,,,,,,,,,,,,,,,6100993be073d2243a0af320,61036f2866dec8e5896fc4fc,2021-07-29_23h17.19.657,Simcolourproject_2stim_asymm_v5,2020.2.10,MacIntel,60,61025ae37ef11b136ea224fe,,,,,,,,,1422,48.80749512,-82.09088135,1,0,0,response3disk,,4,8.665710449,7.646362305,1,0,0,rectangle,8.665710449,7.646362305,1,0,0,8.665710449,7.646362305,1,0,0,0,56,56,128,1,,,,,,,,
,,,,,,,,,,,,,FF,,,,,,,,0.9491,,,,,,,,,,,,,,,,,,,,,,6100993be073d2243a0af320,61036f2866dec8e5896fc4fc,2021-07-29_23h17.19.657,Simcolourproject_2stim_asymm_v5,2020.2.10,MacIntel,60,61025ae37ef11b136ea224fe,,,,,,,,,4170,86.22668457,24.86071777,1,0,0,response1disk,,6,-24.29663086,-0.476959229,1,0,0,rectangle,-24.29663086,-0.476959229,1,0,0,-24.29663086,-0.476959229,1,0,0,0,57,57,56,1,,,,,,,,
,,,,,,,,,,,,,FF,,,,,,,,2.019,,,,,,,,,,,,,,,,,,,,,,6100993be073d2243a0af320,61036f2866dec8e5896fc4fc,2021-07-29_23h17.19.657,Simcolourproject_2stim_asymm_v5,2020.2.10,MacIntel,60,61025ae37ef11b136ea224fe,,,,,,,,,4327,-70.89526367,-35.66094971,1,0,0,response5disk,,2,-4.028381348,3.288024902,1,0,0,rectangle,-4.028381348,3.288024902,1,0,0,-4.028381348,3.288024902,1,0,0,0,58,58,43,1,,,,,,,,
,,,,,,,,,,,,,FF,,,,,,,,0.9159,,,,,,,,,,,,,,,,,,,,,,6100993be073d2243a0af320,61036f2866dec8e5896fc4fc,2021-07-29_23h17.19.657,Simcolourproject_2stim_asymm_v5,2020.2.10,MacIntel,60,61025ae37ef11b136ea224fe,,,,,,,,,1659,-65.94152832,-41.61999512,1,0,0,response5disk,,2,11.88232422,-8.400817871,1,0,0,rectangle,11.88232422,-8.400817871,1,0,0,11.88232422,-8.400817871,1,0,0,0,59,59,107,1,,,,,,,,
,,,,,,,,,,,,,FF,,,,,,,,0.9162,,,,,,,,,,,,,,,,,,,,,,6100993be073d2243a0af320,61036f2866dec8e5896fc4fc,2021-07-29_23h17.19.657,Simcolourproject_2stim_asymm_v5,2020.2.10,MacIntel,60,61025ae37ef11b136ea224fe,,,,,,,,,3207,39.24475098,-89.35552979,1,0,0,response3disk,,4,20.58007813,-14.36853027,1,0,0,rectangle,20.58007813,-14.36853027,1,0,0,20.58007813,-14.36853027,1,0,0,0,60,60,118,1,,,,,,,,
,,,,,,,,,,,,,FF,,,,,,,,1.0325,,,,,,,,,,,,,,,,,,,,,,6100993be073d2243a0af320,61036f2866dec8e5896fc4fc,2021-07-29_23h17.19.657,Simcolourproject_2stim_asymm_v5,2020.2.10,MacIntel,60,61025ae37ef11b136ea224fe,,,,,,,,,1538,-48.85876465,-84.03497314,1,0,0,response5disk,,3,-8.721130371,6.140258789,1,0,0,rectangle,-8.721130371,6.140258789,1,0,0,-8.721130371,6.140258789,1,0,0,0,61,61,123,1,,,,,,,,
,,,,,,,,,,,,,FF,,,,,,,,1.1658,,,,,,,,,,,,,,,,,,,,,,6100993be073d2243a0af320,61036f2866dec8e5896fc4fc,2021-07-29_23h17.19.657,Simcolourproject_2stim_asymm_v5,2020.2.10,MacIntel,60,61025ae37ef11b136ea224fe,,,,,,,,,3004,-61.06817627,-39.12854004,1,0,0,response5disk,,2,9.67791748,-9.379089355,1,0,0,rectangle,9.67791748,-9.379089355,1,0,0,9.67791748,-9.379089355,1,0,0,0,62,62,68,1,,,,,,,,
,,,,,,,,,,,,,FF,,,,,,,,0.7496,,,,,,,,,,,,,,,,,,,,,,6100993be073d2243a0af320,61036f2866dec8e5896fc4fc,2021-07-29_23h17.19.657,Simcolourproject_2stim_asymm_v5,2020.2.10,MacIntel,60,61025ae37ef11b136ea224fe,,,,,,,,,4005,73.80554199,-35.89379883,1,0,0,response3disk,,5,20.85821533,-4.723632813,1,0,0,rectangle,20.85821533,-4.723632813,1,0,0,20.85821533,-4.723632813,1,0,0,0,63,63,58,1,,,,,,,,
,,,,,,,,,,,,,FF,,,,,,,,13.1335,,,,,,,,,,,,,,,,,,,,,,6100993be073d2243a0af320,61036f2866dec8e5896fc4fc,2021-07-29_23h17.19.657,Simcolourproject_2stim_asymm_v5,2020.2.10,MacIntel,60,61025ae37ef11b136ea224fe,,,,,,,,,50,21.30895996,-84.32019043,1,0,0,response3disk,,4,0.458740234,-12.83029175,1,0,0,rectangle,0.458740234,-12.83029175,1,0,0,0.458740234,-12.83029175,1,0,0,0,64,64,18,1,,,,,,,,
,,,,,,,,,,,,,FF,,,,,,,,0.8491,,,,,,,,,,,,,,,,,,,,,,6100993be073d2243a0af320,61036f2866dec8e5896fc4fc,2021-07-29_23h17.19.657,Simcolourproject_2stim_asymm_v5,2020.2.10,MacIntel,60,61025ae37ef11b136ea224fe,,,,,,,,,1617,92.60864258,-32.87008667,1,0,0,response3disk,,5,28.04467773,-11.6151123,1,0,0,rectangle,28.04467773,-11.6151123,1,0,0,28.04467773,-11.6151123,1,0,0,0,65,65,101,1,,,,,,,,
,,,,,,,,,,,,,FF,,,,,,,,0.9336,,,,,,,,,,,,,,,,,,,,,,6100993be073d2243a0af320,61036f2866dec8e5896fc4fc,2021-07-29_23h17.19.657,Simcolourproject_2stim_asymm_v5,2020.2.10,MacIntel,60,61025ae37ef11b136ea224fe,,,,,,,,,2181,87.60272217,45.31213379,1,0,0,response1disk,,6,-7.570373535,2.075439453,1,0,0,rectangle,-7.570373535,2.075439453,1,0,0,-7.570373535,2.075439453,1,0,0,0,66,66,1,1,,,,,,,,
,,,,,,,,,,,,,FF,,,,,,,,0.828,,,,,,,,,,,,,,,,,,,,,,6100993be073d2243a0af320,61036f2866dec8e5896fc4fc,2021-07-29_23h17.19.657,Simcolourproject_2stim_asymm_v5,2020.2.10,MacIntel,60,61025ae37ef11b136ea224fe,,,,,,,,,2692,43.16723633,-102.0665283,1,0,0,response3disk,,4,21.41723633,-15.80206299,1,0,0,rectangle,21.41723633,-15.80206299,1,0,0,21.41723633,-15.80206299,1,0,0,0,67,67,115,1,,,,,,,,
,,,,,,,,,,,,,FF,,,,,,,,0.9283,,,,,,,,,,,,,,,,,,,,,,6100993be073d2243a0af320,61036f2866dec8e5896fc4fc,2021-07-29_23h17.19.657,Simcolourproject_2stim_asymm_v5,2020.2.10,MacIntel,60,61025ae37ef11b136ea224fe,,,,,,,,,588,-47.21630859,-86.91577148,1,0,0,response5disk,,3,-15.76330566,-0.609741211,1,0,0,rectangle,-15.76330566,-0.609741211,1,0,0,-15.76330566,-0.609741211,1,0,0,0,68,68,74,1,,,,,,,,
,,,,,,,,,,,,,FF,,,,,,,,0.8183,,,,,,,,,,,,,,,,,,,,,,6100993be073d2243a0af320,61036f2866dec8e5896fc4fc,2021-07-29_23h17.19.657,Simcolourproject_2stim_asymm_v5,2020.2.10,MacIntel,60,61025ae37ef11b136ea224fe,,,,,,,,,2541,40.77252197,97.45379639,1,0,0,response1disk,,7,11.0871582,9.198181152,1,0,0,rectangle,11.0871582,9.198181152,1,0,0,11.0871582,9.198181152,1,0,0,0,69,69,71,1,,,,,,,,
,,,,,,,,,,,,,FF,,,,,,,,0.616,,,,,,,,,,,,,,,,,,,,,,6100993be073d2243a0af320,61036f2866dec8e5896fc4fc,2021-07-29_23h17.19.657,Simcolourproject_2stim_asymm_v5,2020.2.10,MacIntel,60,61025ae37ef11b136ea224fe,,,,,,,,,630,41.49462891,80.2149353,1,0,0,response1disk,,7,4.942138672,-8.084197998,1,0,0,rectangle,4.942138672,-8.084197998,1,0,0,4.942138672,-8.084197998,1,0,0,0,70,70,132,1,,,,,,,,
,,,,,,,,,,,,,FF,,,,,,,,0.7995,,,,,,,,,,,,,,,,,,,,,,6100993be073d2243a0af320,61036f2866dec8e5896fc4fc,2021-07-29_23h17.19.657,Simcolourproject_2stim_asymm_v5,2020.2.10,MacIntel,60,61025ae37ef11b136ea224fe,,,,,,,,,3340,72.96362305,-38.95272827,1,0,0,response3disk,,5,12.25006104,6.811767578,1,0,0,rectangle,12.25006104,6.811767578,1,0,0,12.25006104,6.811767578,1,0,0,0,71,71,136,1,,,,,,,,
,,,,,,,,,,,,,FF,,,,,,,,0.917,,,,,,,,,,,,,,,,,,,,,,6100993be073d2243a0af320,61036f2866dec8e5896fc4fc,2021-07-29_23h17.19.657,Simcolourproject_2stim_asymm_v5,2020.2.10,MacIntel,60,61025ae37ef11b136ea224fe,,,,,,,,,2570,-56.66400146,-94.17785645,1,0,0,response5disk,,3,-14.46496582,1.998077393,1,0,0,rectangle,-14.46496582,1.998077393,1,0,0,-14.46496582,1.998077393,1,0,0,0,72,72,121,1,,,,,,,,
,,,,,,,,,,,,,FF,,,,,,,,0.75,,,,,,,,,,,,,,,,,,,,,,6100993be073d2243a0af320,61036f2866dec8e5896fc4fc,2021-07-29_23h17.19.657,Simcolourproject_2stim_asymm_v5,2020.2.10,MacIntel,60,61025ae37ef11b136ea224fe,,,,,,,,,2966,-84.27282715,-49.82614136,1,0,0,response5disk,,2,-4.406738281,-9.590087891,1,0,0,rectangle,-4.406738281,-9.590087891,1,0,0,-4.406738281,-9.590087891,1,0,0,0,73,73,21,1,,,,,,,,
,,,,,,,,,,,,,FF,,,,,,,,0.9666,,,,,,,,,,,,,,,,,,,,,,6100993be073d2243a0af320,61036f2866dec8e5896fc4fc,2021-07-29_23h17.19.657,Simcolourproject_2stim_asymm_v5,2020.2.10,MacIntel,60,61025ae37ef11b136ea224fe,,,,,,,,,600,-92.02142334,-35.70721436,1,0,0,response5disk,,2,-26.13903809,3.267211914,1,0,0,rectangle,-26.13903809,3.267211914,1,0,0,-26.13903809,3.267211914,1,0,0,0,74,74,137,1,,,,,,,,
,,,,,,,,,,,,,FF,,,,,,,,0.9492,,,,,,,,,,,,,,,,,,,,,,6100993be073d2243a0af320,61036f2866dec8e5896fc4fc,2021-07-29_23h17.19.657,Simcolourproject_2stim_asymm_v5,2020.2.10,MacIntel,60,61025ae37ef11b136ea224fe,,,,,,,,,91,-67.55432129,35.56237793,1,0,0,response7disk,,1,-16.41711426,9.791046143,1,0,0,rectangle,-16.41711426,9.791046143,1,0,0,-16.41711426,9.791046143,1,0,0,0,75,75,92,1,,,,,,,,
,,,,,,,,,,,,,FF,,,,,,,,0.7824,,,,,,,,,,,,,,,,,,,,,,6100993be073d2243a0af320,61036f2866dec8e5896fc4fc,2021-07-29_23h17.19.657,Simcolourproject_2stim_asymm_v5,2020.2.10,MacIntel,60,61025ae37ef11b136ea224fe,,,,,,,,,3791,24.73431396,-76.54180908,1,0,0,response3disk,,4,8.162231445,-9.346984863,1,0,0,rectangle,8.162231445,-9.346984863,1,0,0,8.162231445,-9.346984863,1,0,0,0,76,76,19,1,,,,,,,,
,,,,,,,,,,,,,FF,,,,,,,,1.2836,,,,,,,,,,,,,,,,,,,,,,6100993be073d2243a0af320,61036f2866dec8e5896fc4fc,2021-07-29_23h17.19.657,Simcolourproject_2stim_asymm_v5,2020.2.10,MacIntel,60,61025ae37ef11b136ea224fe,,,,,,,,,499,-81.52929688,-42.26605225,1,0,0,response5disk,,2,-11.62072754,-3.596984863,1,0,0,rectangle,-11.62072754,-3.596984863,1,0,0,-11.62072754,-3.596984863,1,0,0,0,77,77,8,1,,,,,,,,
,,,,,,,,,,,,,FF,,,,,,,,0.9343,,,,,,,,,,,,,,,,,,,,,,6100993be073d2243a0af320,61036f2866dec8e5896fc4fc,2021-07-29_23h17.19.657,Simcolourproject_2stim_asymm_v5,2020.2.10,MacIntel,60,61025ae37ef11b136ea224fe,,,,,,,,,3106,92.83135986,33.90713501,1,0,0,response1disk,,6,-19.06030273,-3.666778564,1,0,0,rectangle,-19.06030273,-3.666778564,1,0,0,-19.06030273,-3.666778564,1,0,0,0,78,78,75,1,,,,,,,,
,,,,,,,,,,,,,FF,,,,,,,,0.9332,,,,,,,,,,,,,,,,,,,,,,6100993be073d2243a0af320,61036f2866dec8e5896fc4fc,2021-07-29_23h17.19.657,Simcolourproject_2stim_asymm_v5,2020.2.10,MacIntel,60,61025ae37ef11b136ea224fe,,,,,,,,,3392,101.5128174,35.69244385,1,0,0,response1disk,,6,-7.096618652,-5.535644531,1,0,0,rectangle,-7.096618652,-5.535644531,1,0,0,-7.096618652,-5.535644531,1,0,0,0,79,79,133,1,,,,,,,,
,,,,,,,,,,,,,FF,,,,,,,,1.3486,,,,,,,,,,,,,,,,,,,,,,6100993be073d2243a0af320,61036f2866dec8e5896fc4fc,2021-07-29_23h17.19.657,Simcolourproject_2stim_asymm_v5,2020.2.10,MacIntel,60,61025ae37ef11b136ea224fe,,,,,,,,,89,38.05352783,-101.1728516,1,0,0,response3disk,,4,8.146850586,0.463317871,1,0,0,rectangle,8.146850586,0.463317871,1,0,0,8.146850586,0.463317871,1,0,0,0,80,80,138,1,,,,,,,,
,,,,,,,,,,,,,FF,,,,,,,,0.8567,,,,,,,,,,,,,,,,,,,,,,6100993be073d2243a0af320,61036f2866dec8e5896fc4fc,2021-07-29_23h17.19.657,Simcolourproject_2stim_asymm_v5,2020.2.10,MacIntel,60,61025ae37ef11b136ea224fe,,,,,,,,,829,-39.7477417,-78.41314697,1,0,0,response5disk,,3,-13.58227539,-4.099853516,1,0,0,rectangle,-13.58227539,-4.099853516,1,0,0,-13.58227539,-4.099853516,1,0,0,0,81,81,130,1,,,,,,,,
,,,,,,,,,,,,,FF,,,,,,,,0.8805,,,,,,,,,,,,,,,,,,,,,,6100993be073d2243a0af320,61036f2866dec8e5896fc4fc,2021-07-29_23h17.19.657,Simcolourproject_2stim_asymm_v5,2020.2.10,MacIntel,60,61025ae37ef11b136ea224fe,,,,,,,,,2071,-41.76330566,-67.12585449,1,0,0,response5disk,,3,-12.95202637,-3.811950684,1,0,0,rectangle,-12.95202637,-3.811950684,1,0,0,-12.95202637,-3.811950684,1,0,0,0,82,82,59,1,,,,,,,,
,,,,,,,,,,,,,FF,,,,,,,,1.0668,,,,,,,,,,,,,,,,,,,,,,6100993be073d2243a0af320,61036f2866dec8e5896fc4fc,2021-07-29_23h17.19.657,Simcolourproject_2stim_asymm_v5,2020.2.10,MacIntel,60,61025ae37ef11b136ea224fe,,,,,,,,,819,71.37249756,-52.60888672,1,0,0,response3disk,,5,-4.120361328,-4.42376709,1,0,0,rectangle,-4.120361328,-4.42376709,1,0,0,-4.120361328,-4.42376709,1,0,0,0,83,83,140,1,,,,,,,,
,,,,,,,,,,,,,FF,,,,,,,,1.002,,,,,,,,,,,,,,,,,,,,,,6100993be073d2243a0af320,61036f2866dec8e5896fc4fc,2021-07-29_23h17.19.657,Simcolourproject_2stim_asymm_v5,2020.2.10,MacIntel,60,61025ae37ef11b136ea224fe,,,,,,,,,2787,94.33251953,-26.28875732,1,0,0,response3disk,,5,4.789306641,-0.700042725,1,0,0,rectangle,4.789306641,-0.700042725,1,0,0,4.789306641,-0.700042725,1,0,0,0,84,84,83,1,,,,,,,,
,,,,,,,,,,,,,FF,,,,,,,,0.7834,,,,,,,,,,,,,,,,,,,,,,6100993be073d2243a0af320,61036f2866dec8e5896fc4fc,2021-07-29_23h17.19.657,Simcolourproject_2stim_asymm_v5,2020.2.10,MacIntel,60,61025ae37ef11b136ea224fe,,,,,,,,,804,89.55773926,29.10003662,1,0,0,response1disk,,6,-0.951416016,-0.541259766,1,0,0,rectangle,103.7459717,-55.59237671,1,0,0,3.163574219,-5.437072754,1,0,0,0,85,85,33,1,,response3disk_3,TRUE,5,5,"[34,159,276,223,304,268,26,194,139,260,34,244,86,300,273,208,33,214,197,323]",1.5509,rectangle
,,,,,,,,,,,,,FF,,,,,,,,1.3487,,,,,,,,,,,,,,,,,,,,,,6100993be073d2243a0af320,61036f2866dec8e5896fc4fc,2021-07-29_23h17.19.657,Simcolourproject_2stim_asymm_v5,2020.2.10,MacIntel,60,61025ae37ef11b136ea224fe,,,,,,,,,1603,89.39489746,22.97839355,1,0,0,response1disk,,6,18.86303711,3.123291016,1,0,0,rectangle,18.86303711,3.123291016,1,0,0,18.86303711,3.123291016,1,0,0,0,86,86,95,1,,,,,,,,
,,,,,,,,,,,,,FF,,,,,,,,2.5511,,,,,,,,,,,,,,,,,,,,,,6100993be073d2243a0af320,61036f2866dec8e5896fc4fc,2021-07-29_23h17.19.657,Simcolourproject_2stim_asymm_v5,2020.2.10,MacIntel,60,61025ae37ef11b136ea224fe,,,,,,,,,1358,-34.58917236,-83.28131104,1,0,0,response5disk,,3,-8.974853516,1.448730469,1,0,0,rectangle,-8.974853516,1.448730469,1,0,0,-8.974853516,1.448730469,1,0,0,0,87,87,72,1,,,,,,,,
,,,,,,,,,,,,,FF,,,,,,,,0.8166,,,,,,,,,,,,,,,,,,,,,,6100993be073d2243a0af320,61036f2866dec8e5896fc4fc,2021-07-29_23h17.19.657,Simcolourproject_2stim_asymm_v5,2020.2.10,MacIntel,60,61025ae37ef11b136ea224fe,,,,,,,,,2494,70.86584473,-41.29388428,1,0,0,response3disk,,5,13.54016113,-14.84634399,1,0,0,rectangle,13.54016113,-14.84634399,1,0,0,13.54016113,-14.84634399,1,0,0,0,88,88,98,1,,,,,,,,
,,,,,,,,,,,,,FF,,,,,,,,0.8652,,,,,,,,,,,,,,,,,,,,,,6100993be073d2243a0af320,61036f2866dec8e5896fc4fc,2021-07-29_23h17.19.657,Simcolourproject_2stim_asymm_v5,2020.2.10,MacIntel,60,61025ae37ef11b136ea224fe,,,,,,,,,3701,38.3046875,-89.40246582,1,0,0,response3disk,,4,15.621521,4.654205322,1,0,0,rectangle,15.621521,4.654205322,1,0,0,15.621521,4.654205322,1,0,0,0,89,89,125,1,,,,,,,,
,,,,,,,,,,,,,FF,,,,,,,,0.7994,,,,,,,,,,,,,,,,,,,,,,6100993be073d2243a0af320,61036f2866dec8e5896fc4fc,2021-07-29_23h17.19.657,Simcolourproject_2stim_asymm_v5,2020.2.10,MacIntel,60,61025ae37ef11b136ea224fe,,,,,,,,,1692,49.12548828,-87.38513184,1,0,0,response3disk,,4,0.766845703,3.584106445,1,0,0,rectangle,0.766845703,3.584106445,1,0,0,0.766845703,3.584106445,1,0,0,0,90,90,154,1,,,,,,,,
,,,,,,,,,,,,,FF,,,,,,,,1.0497,,,,,,,,,,,,,,,,,,,,,,6100993be073d2243a0af320,61036f2866dec8e5896fc4fc,2021-07-29_23h17.19.657,Simcolourproject_2stim_asymm_v5,2020.2.10,MacIntel,60,61025ae37ef11b136ea224fe,,,,,,,,,3444,-49.67022705,-94.47216797,1,0,0,response5disk,,3,-4.827636719,-4.314941406,1,0,0,rectangle,-4.827636719,-4.314941406,1,0,0,-4.827636719,-4.314941406,1,0,0,0,91,91,40,1,,,,,,,,
,,,,,,,,,,,,,FF,,,,,,,,0.8981,,,,,,,,,,,,,,,,,,,,,,6100993be073d2243a0af320,61036f2866dec8e5896fc4fc,2021-07-29_23h17.19.657,Simcolourproject_2stim_asymm_v5,2020.2.10,MacIntel,60,61025ae37ef11b136ea224fe,,,,,,,,,3628,-82.93536377,-40.48846436,1,0,0,response5disk,,2,-13.46551514,-8.653381348,1,0,0,rectangle,-13.46551514,-8.653381348,1,0,0,-13.46551514,-8.653381348,1,0,0,0,92,92,139,1,,,,,,,,
,,,,,,,,,,,,,FF,,,,,,,,0.9671,,,,,,,,,,,,,,,,,,,,,,6100993be073d2243a0af320,61036f2866dec8e5896fc4fc,2021-07-29_23h17.19.657,Simcolourproject_2stim_asymm_v5,2020.2.10,MacIntel,60,61025ae37ef11b136ea224fe,,,,,,,,,2169,81.05621338,-57.58795166,1,0,0,response3disk,,5,-4.240844727,11.31750488,1,0,0,rectangle,-4.240844727,11.31750488,1,0,0,-4.240844727,11.31750488,1,0,0,0,93,93,25,1,,,,,,,,
,,,,,,,,,,,,,FF,,,,,,,,0.6008,,,,,,,,,,,,,,,,,,,,,,6100993be073d2243a0af320,61036f2866dec8e5896fc4fc,2021-07-29_23h17.19.657,Simcolourproject_2stim_asymm_v5,2020.2.10,MacIntel,60,61025ae37ef11b136ea224fe,,,,,,,,,228,-51.19604492,-71.73919678,1,0,0,response5disk,,3,-16.55529785,-6.18963623,1,0,0,rectangle,-16.55529785,-6.18963623,1,0,0,-16.55529785,-6.18963623,1,0,0,0,94,94,3,1,,,,,,,,
,,,,,,,,,,,,,FF,,,,,,,,0.667,,,,,,,,,,,,,,,,,,,,,,6100993be073d2243a0af320,61036f2866dec8e5896fc4fc,2021-07-29_23h17.19.657,Simcolourproject_2stim_asymm_v5,2020.2.10,MacIntel,60,61025ae37ef11b136ea224fe,,,,,,,,,1694,-36.07434082,-73.70654297,1,0,0,response5disk,,3,-2.678344727,-2.607299805,1,0,0,rectangle,-2.678344727,-2.607299805,1,0,0,-2.678344727,-2.607299805,1,0,0,0,95,95,159,1,,,,,,,,
,,,,,,,,,,,,,FF,,,,,,,,1.4825,,,,,,,,,,,,,,,,,,,,,,6100993be073d2243a0af320,61036f2866dec8e5896fc4fc,2021-07-29_23h17.19.657,Simcolourproject_2stim_asymm_v5,2020.2.10,MacIntel,60,61025ae37ef11b136ea224fe,,,,,,,,,3582,-86.59643555,-43.44659424,1,0,0,response5disk,,2,-0.996398926,-14.54269409,1,0,0,rectangle,-0.996398926,-14.54269409,1,0,0,-0.996398926,-14.54269409,1,0,0,0,96,96,12,1,,,,,,,,
,,,,,,,,,,,,,FF,,,,,,,,0.7502,,,,,,,,,,,,,,,,,,,,,,6100993be073d2243a0af320,61036f2866dec8e5896fc4fc,2021-07-29_23h17.19.657,Simcolourproject_2stim_asymm_v5,2020.2.10,MacIntel,60,61025ae37ef11b136ea224fe,,,,,,,,,1198,27.83587646,-79.60968018,1,0,0,response3disk,,4,8.476196289,4.335693359,1,0,0,rectangle,8.476196289,4.335693359,1,0,0,8.476196289,4.335693359,1,0,0,0,97,97,91,1,,,,,,,,
,,,,,,,,,,,,,FF,,,,,,,,1.034,,,,,,,,,,,,,,,,,,,,,,6100993be073d2243a0af320,61036f2866dec8e5896fc4fc,2021-07-29_23h17.19.657,Simcolourproject_2stim_asymm_v5,2020.2.10,MacIntel,60,61025ae37ef11b136ea224fe,,,,,,,,,2877,-38.06945801,-82.82806396,1,0,0,response5disk,,3,-2.366943359,-13.53735352,1,0,0,rectangle,-2.366943359,-13.53735352,1,0,0,-2.366943359,-13.53735352,1,0,0,0,98,98,126,1,,,,,,,,
,,,,,,,,,,,,,FF,,,,,,,,0.8336,,,,,,,,,,,,,,,,,,,,,,6100993be073d2243a0af320,61036f2866dec8e5896fc4fc,2021-07-29_23h17.19.657,Simcolourproject_2stim_asymm_v5,2020.2.10,MacIntel,60,61025ae37ef11b136ea224fe,,,,,,,,,1131,42.62646484,79.16522217,1,0,0,response1disk,,7,10.45831299,-4.612976074,1,0,0,rectangle,10.45831299,-4.612976074,1,0,0,10.45831299,-4.612976074,1,0,0,0,99,99,36,1,,,,,,,,
,,,,,,,,,,,,,FF,,,,,,,,0.7485,,,,,,,,,,,,,,,,,,,,,,6100993be073d2243a0af320,61036f2866dec8e5896fc4fc,2021-07-29_23h17.19.657,Simcolourproject_2stim_asymm_v5,2020.2.10,MacIntel,60,61025ae37ef11b136ea224fe,,,,,,,,,3551,44.95568848,74.2336731,1,0,0,response1disk,,7,4.940307617,8.528686523,1,0,0,rectangle,4.940307617,8.528686523,1,0,0,4.940307617,8.528686523,1,0,0,0,100,100,148,1,,,,,,,,
,,,,,,,,,,,,,FF,,,,,,,,1.8648,,,,,,,,,,,,,,,,,,,,,,6100993be073d2243a0af320,61036f2866dec8e5896fc4fc,2021-07-29_23h17.19.657,Simcolourproject_2stim_asymm_v5,2020.2.10,MacIntel,60,61025ae37ef11b136ea224fe,,,,,,,,,4219,74.86761475,-40.20373535,1,0,0,response3disk,,5,19.08081055,-13.47460938,1,0,0,rectangle,19.08081055,-13.47460938,1,0,0,19.08081055,-13.47460938,1,0,0,0,101,101,108,1,,,,,,,,
,,,,,,,,,,,,,FF,,,,,,,,0.6671,,,,,,,,,,,,,,,,,,,,,,6100993be073d2243a0af320,61036f2866dec8e5896fc4fc,2021-07-29_23h17.19.657,Simcolourproject_2stim_asymm_v5,2020.2.10,MacIntel,60,61025ae37ef11b136ea224fe,,,,,,,,,2612,59.1706543,-44.86108398,1,0,0,response3disk,,5,-2.13671875,1.897125244,1,0,0,rectangle,-2.13671875,1.897125244,1,0,0,-2.13671875,1.897125244,1,0,0,0,102,102,90,1,,,,,,,,
,,,,,,,,,,,,,FF,,,,,,,,0.7156,,,,,,,,,,,,,,,,,,,,,,6100993be073d2243a0af320,61036f2866dec8e5896fc4fc,2021-07-29_23h17.19.657,Simcolourproject_2stim_asymm_v5,2020.2.10,MacIntel,60,61025ae37ef11b136ea224fe,,,,,,,,,2028,89.91986084,41.61431885,1,0,0,response1disk,,6,-6.101196289,9.305419922,1,0,0,rectangle,-6.101196289,9.305419922,1,0,0,-6.101196289,9.305419922,1,0,0,0,103,103,146,1,,,,,,,,
,,,,,,,,,,,,,FF,,,,,,,,0.7835,,,,,,,,,,,,,,,,,,,,,,6100993be073d2243a0af320,61036f2866dec8e5896fc4fc,2021-07-29_23h17.19.657,Simcolourproject_2stim_asymm_v5,2020.2.10,MacIntel,60,61025ae37ef11b136ea224fe,,,,,,,,,2011,-72.65612793,-42.20489502,1,0,0,response5disk,,2,25.82312012,11.64904785,1,0,0,rectangle,25.82312012,11.64904785,1,0,0,25.82312012,11.64904785,1,0,0,0,104,104,61,1,,,,,,,,
,,,,,,,,,,,,,FF,,,,,,,,0.6995,,,,,,,,,,,,,,,,,,,,,,6100993be073d2243a0af320,61036f2866dec8e5896fc4fc,2021-07-29_23h17.19.657,Simcolourproject_2stim_asymm_v5,2020.2.10,MacIntel,60,61025ae37ef11b136ea224fe,,,,,,,,,1531,-46.75427246,-93.00115967,1,0,0,response5disk,,3,-4.967712402,-2.085388184,1,0,0,rectangle,-4.967712402,-2.085388184,1,0,0,-4.967712402,-2.085388184,1,0,0,0,105,105,44,1,,,,,,,,
,,,,,,,,,,,,,FF,,,,,,,,0.7836,,,,,,,,,,,,,,,,,,,,,,6100993be073d2243a0af320,61036f2866dec8e5896fc4fc,2021-07-29_23h17.19.657,Simcolourproject_2stim_asymm_v5,2020.2.10,MacIntel,60,61025ae37ef11b136ea224fe,,,,,,,,,4125,-29.29937744,-66.15350342,1,0,0,response5disk,,3,0.331359863,3.785217285,1,0,0,rectangle,0.331359863,3.785217285,1,0,0,0.331359863,3.785217285,1,0,0,0,106,106,5,1,,,,,,,,
,,,,,,,,,,,,,FF,,,,,,,,1.1187,,,,,,,,,,,,,,,,,,,,,,6100993be073d2243a0af320,61036f2866dec8e5896fc4fc,2021-07-29_23h17.19.657,Simcolourproject_2stim_asymm_v5,2020.2.10,MacIntel,60,61025ae37ef11b136ea224fe,,,,,,,,,4025,36.12481689,-82.81439209,1,0,0,response3disk,,4,9.125976563,-14.06988525,1,0,0,rectangle,9.125976563,-14.06988525,1,0,0,9.125976563,-14.06988525,1,0,0,0,107,107,152,1,,,,,,,,
,,,,,,,,,,,,,FF,,,,,,,,0.663,,,,,,,,,,,,,,,,,,,,,,6100993be073d2243a0af320,61036f2866dec8e5896fc4fc,2021-07-29_23h17.19.657,Simcolourproject_2stim_asymm_v5,2020.2.10,MacIntel,60,61025ae37ef11b136ea224fe,,,,,,,,,1428,-61.35394287,-96.35656738,1,0,0,response5disk,,3,-5.514709473,2.474487305,1,0,0,rectangle,-5.514709473,2.474487305,1,0,0,-5.514709473,2.474487305,1,0,0,0,108,108,47,1,,,,,,,,
,,,,,,,,,,,,,FF,,,,,,,,0.8992,,,,,,,,,,,,,,,,,,,,,,6100993be073d2243a0af320,61036f2866dec8e5896fc4fc,2021-07-29_23h17.19.657,Simcolourproject_2stim_asymm_v5,2020.2.10,MacIntel,60,61025ae37ef11b136ea224fe,,,,,,,,,3912,87.53369141,-51.68737793,1,0,0,response3disk,,5,-3.987670898,5.178649902,1,0,0,rectangle,-3.987670898,5.178649902,1,0,0,-3.987670898,5.178649902,1,0,0,0,109,109,113,1,,,,,,,,
,,,,,,,,,,,,,FF,,,,,,,,0.9512,,,,,,,,,,,,,,,,,,,,,,6100993be073d2243a0af320,61036f2866dec8e5896fc4fc,2021-07-29_23h17.19.657,Simcolourproject_2stim_asymm_v5,2020.2.10,MacIntel,60,61025ae37ef11b136ea224fe,,,,,,,,,3197,93.98602295,33.07269287,1,0,0,response1disk,,6,-2.773803711,13.90661621,1,0,0,rectangle,-2.773803711,13.90661621,1,0,0,-2.773803711,13.90661621,1,0,0,0,110,110,105,1,,,,,,,,
,,,,,,,,,,,,,FF,,,,,,,,0.7148,,,,,,,,,,,,,,,,,,,,,,6100993be073d2243a0af320,61036f2866dec8e5896fc4fc,2021-07-29_23h17.19.657,Simcolourproject_2stim_asymm_v5,2020.2.10,MacIntel,60,61025ae37ef11b136ea224fe,,,,,,,,,326,-40.84899902,-97.33892822,1,0,0,response5disk,,3,-19.49353027,0.733001709,1,0,0,rectangle,-19.49353027,0.733001709,1,0,0,-19.49353027,0.733001709,1,0,0,0,111,111,53,1,,,,,,,,
,,,,,,,,,,,,,FF,,,,,,,,1.0509,,,,,,,,,,,,,,,,,,,,,,6100993be073d2243a0af320,61036f2866dec8e5896fc4fc,2021-07-29_23h17.19.657,Simcolourproject_2stim_asymm_v5,2020.2.10,MacIntel,60,61025ae37ef11b136ea224fe,,,,,,,,,2276,-40.07995605,-69.74353027,1,0,0,response5disk,,3,-10.22955322,-13.27688599,1,0,0,rectangle,-10.22955322,-13.27688599,1,0,0,-10.22955322,-13.27688599,1,0,0,0,112,112,110,1,,,,,,,,
,,,,,,,,,,,,,FF,,,,,,,,0.8325,,,,,,,,,,,,,,,,,,,,,,6100993be073d2243a0af320,61036f2866dec8e5896fc4fc,2021-07-29_23h17.19.657,Simcolourproject_2stim_asymm_v5,2020.2.10,MacIntel,60,61025ae37ef11b136ea224fe,,,,,,,,,1052,95.24255371,-56.78961182,1,0,0,response3disk,,5,3.040283203,-7.167114258,1,0,0,rectangle,3.040283203,-7.167114258,1,0,0,3.040283203,-7.167114258,1,0,0,0,113,113,80,1,,,,,,,,
,,,,,,,,,,,,,FF,,,,,,,,0.9814,,,,,,,,,,,,,,,,,,,,,,6100993be073d2243a0af320,61036f2866dec8e5896fc4fc,2021-07-29_23h17.19.657,Simcolourproject_2stim_asymm_v5,2020.2.10,MacIntel,60,61025ae37ef11b136ea224fe,,,,,,,,,4283,81.08312988,32.68972778,1,0,0,response1disk,,6,20.05944824,7.547424316,1,0,0,rectangle,20.05944824,7.547424316,1,0,0,20.05944824,7.547424316,1,0,0,0,114,114,22,1,,,,,,,,
,,,,,,,,,,,,,FF,,,,,,,,1.0334,,,,,,,,,,,,,,,,,,,,,,6100993be073d2243a0af320,61036f2866dec8e5896fc4fc,2021-07-29_23h17.19.657,Simcolourproject_2stim_asymm_v5,2020.2.10,MacIntel,60,61025ae37ef11b136ea224fe,,,,,,,,,250,55.24157715,-86.26171875,1,0,0,response3disk,,4,17.85559082,12.13800049,1,0,0,rectangle,17.85559082,12.13800049,1,0,0,17.85559082,12.13800049,1,0,0,0,115,115,16,1,,,,,,,,
,,,,,,,,,,,,,FF,,,,,,,,1.2173,,,,,,,,,,,,,,,,,,,,,,6100993be073d2243a0af320,61036f2866dec8e5896fc4fc,2021-07-29_23h17.19.657,Simcolourproject_2stim_asymm_v5,2020.2.10,MacIntel,60,61025ae37ef11b136ea224fe,,,,,,,,,1142,-40.94299316,-81.90771484,1,0,0,response5disk,,3,-10.79150391,-9.595916748,1,0,0,rectangle,-10.79150391,-9.595916748,1,0,0,-10.79150391,-9.595916748,1,0,0,0,116,116,145,1,,,,,,,,
,,,,,,,,,,,,,FF,,,,,,,,0.7341,,,,,,,,,,,,,,,,,,,,,,6100993be073d2243a0af320,61036f2866dec8e5896fc4fc,2021-07-29_23h17.19.657,Simcolourproject_2stim_asymm_v5,2020.2.10,MacIntel,60,61025ae37ef11b136ea224fe,,,,,,,,,3945,92.26477051,-39.36151123,1,0,0,response3disk,,5,11.95092773,-5.919799805,1,0,0,rectangle,11.95092773,-5.919799805,1,0,0,11.95092773,-5.919799805,1,0,0,0,117,117,32,1,,,,,,,,
,,,,,,,,,,,,,FF,,,,,,,,1.2165,,,,,,,,,,,,,,,,,,,,,,6100993be073d2243a0af320,61036f2866dec8e5896fc4fc,2021-07-29_23h17.19.657,Simcolourproject_2stim_asymm_v5,2020.2.10,MacIntel,60,61025ae37ef11b136ea224fe,,,,,,,,,2771,55.34448242,-77.48242188,1,0,0,response3disk,,4,22.95068359,-8.319702148,1,0,0,rectangle,22.95068359,-8.319702148,1,0,0,22.95068359,-8.319702148,1,0,0,0,118,118,86,1,,,,,,,,
,,,,,,,,,,,,,FF,,,,,,,,0.7507,,,,,,,,,,,,,,,,,,,,,,6100993be073d2243a0af320,61036f2866dec8e5896fc4fc,2021-07-29_23h17.19.657,Simcolourproject_2stim_asymm_v5,2020.2.10,MacIntel,60,61025ae37ef11b136ea224fe,,,,,,,,,2183,-47.57623291,-84.609375,1,0,0,response5disk,,3,-14.76330566,-6.385528564,1,0,0,rectangle,-14.76330566,-6.385528564,1,0,0,-14.76330566,-6.385528564,1,0,0,0,119,119,38,1,,,,,,,,
,,,,,,,,,,,,,FF,,,,,,,,0.6993,,,,,,,,,,,,,,,,,,,,,,6100993be073d2243a0af320,61036f2866dec8e5896fc4fc,2021-07-29_23h17.19.657,Simcolourproject_2stim_asymm_v5,2020.2.10,MacIntel,60,61025ae37ef11b136ea224fe,,,,,,,,,3017,-50.7052002,-85.88378906,1,0,0,response5disk,,3,-9.478942871,-11.4019165,1,0,0,rectangle,-9.478942871,-11.4019165,1,0,0,-9.478942871,-11.4019165,1,0,0,0,120,120,11,1,,,,,,,,
,,,,,,,,,,,,,FF,,,,,,,,0.6494,,,,,,,,,,,,,,,,,,,,,,6100993be073d2243a0af320,61036f2866dec8e5896fc4fc,2021-07-29_23h17.19.657,Simcolourproject_2stim_asymm_v5,2020.2.10,MacIntel,60,61025ae37ef11b136ea224fe,,,,,,,,,4177,-72.0411377,-43.60256958,1,0,0,response5disk,,2,-6.823364258,-3.023132324,1,0,0,rectangle,-6.823364258,-3.023132324,1,0,0,-6.823364258,-3.023132324,1,0,0,0,121,121,96,1,,,,,,,,
,,,,,,,,,,,,,FF,,,,,,,,0.7832,,,,,,,,,,,,,,,,,,,,,,6100993be073d2243a0af320,61036f2866dec8e5896fc4fc,2021-07-29_23h17.19.657,Simcolourproject_2stim_asymm_v5,2020.2.10,MacIntel,60,61025ae37ef11b136ea224fe,,,,,,,,,253,69.52856445,-46.53326416,1,0,0,response3disk,,5,1.860778809,-5.753814697,1,0,0,rectangle,1.860778809,-5.753814697,1,0,0,1.860778809,-5.753814697,1,0,0,0,122,122,149,1,,,,,,,,
,,,,,,,,,,,,,FF,,,,,,,,1.0663,,,,,,,,,,,,,,,,,,,,,,6100993be073d2243a0af320,61036f2866dec8e5896fc4fc,2021-07-29_23h17.19.657,Simcolourproject_2stim_asymm_v5,2020.2.10,MacIntel,60,61025ae37ef11b136ea224fe,,,,,,,,,1736,44.63256836,-77.92529297,1,0,0,response3disk,,4,3.3203125,6.674468994,1,0,0,rectangle,3.3203125,6.674468994,1,0,0,3.3203125,6.674468994,1,0,0,0,123,123,46,1,,,,,,,,
,,,,,,,,,,,,,FF,,,,,,,,2.184,,,,,,,,,,,,,,,,,,,,,,6100993be073d2243a0af320,61036f2866dec8e5896fc4fc,2021-07-29_23h17.19.657,Simcolourproject_2stim_asymm_v5,2020.2.10,MacIntel,60,61025ae37ef11b136ea224fe,,,,,,,,,1184,-75.15258789,30.13763428,1,0,0,response7disk,,1,11.94439697,-2.70526123,1,0,0,rectangle,11.94439697,-2.70526123,1,0,0,11.94439697,-2.70526123,1,0,0,0,124,124,112,1,,,,,,,,
,,,,,,,,,,,,,FF,,,,,,,,0.8491,,,,,,,,,,,,,,,,,,,,,,6100993be073d2243a0af320,61036f2866dec8e5896fc4fc,2021-07-29_23h17.19.657,Simcolourproject_2stim_asymm_v5,2020.2.10,MacIntel,60,61025ae37ef11b136ea224fe,,,,,,,,,3312,-34.69445801,91.15545654,1,0,0,response7disk,,0,-14.18292236,2.070281982,1,0,0,rectangle,-14.18292236,2.070281982,1,0,0,-14.18292236,2.070281982,1,0,0,0,125,125,151,1,,,,,,,,
,,,,,,,,,,,,,FF,,,,,,,,0.8336,,,,,,,,,,,,,,,,,,,,,,6100993be073d2243a0af320,61036f2866dec8e5896fc4fc,2021-07-29_23h17.19.657,Simcolourproject_2stim_asymm_v5,2020.2.10,MacIntel,60,61025ae37ef11b136ea224fe,,,,,,,,,1388,32.09484863,-76.41143799,1,0,0,response3disk,,4,9.44744873,3.666809082,1,0,0,rectangle,9.44744873,3.666809082,1,0,0,9.44744873,3.666809082,1,0,0,0,126,126,76,1,,,,,,,,
,,,,,,,,,,,,,FF,,,,,,,,1.0006,,,,,,,,,,,,,,,,,,,,,,6100993be073d2243a0af320,61036f2866dec8e5896fc4fc,2021-07-29_23h17.19.657,Simcolourproject_2stim_asymm_v5,2020.2.10,MacIntel,60,61025ae37ef11b136ea224fe,,,,,,,,,3005,81.0201416,-34.32073975,1,0,0,response3disk,,5,16.58453369,-1.100402832,1,0,0,rectangle,16.58453369,-1.100402832,1,0,0,16.58453369,-1.100402832,1,0,0,0,127,127,131,1,,,,,,,,
,,,,,,,,,,,,,FF,,,,,,,,0.7674,,,,,,,,,,,,,,,,,,,,,,6100993be073d2243a0af320,61036f2866dec8e5896fc4fc,2021-07-29_23h17.19.657,Simcolourproject_2stim_asymm_v5,2020.2.10,MacIntel,60,61025ae37ef11b136ea224fe,,,,,,,,,2885,-47.30078125,83.24835205,1,0,0,response7disk,,0,-19.06469727,1.410919189,1,0,0,rectangle,-19.06469727,1.410919189,1,0,0,-19.06469727,1.410919189,1,0,0,0,128,128,39,1,,,,,,,,
,,,,,,,,,,,,,FF,,,,,,,,0.8166,,,,,,,,,,,,,,,,,,,,,,6100993be073d2243a0af320,61036f2866dec8e5896fc4fc,2021-07-29_23h17.19.657,Simcolourproject_2stim_asymm_v5,2020.2.10,MacIntel,60,61025ae37ef11b136ea224fe,,,,,,,,,1824,115.8254395,48.15802002,1,0,0,response1disk,,6,-17.96166992,-2.135345459,1,0,0,rectangle,-17.96166992,-2.135345459,1,0,0,-17.96166992,-2.135345459,1,0,0,0,129,129,65,1,,,,,,,,
,,,,,,,,,,,,,FF,,,,,,,,0.714,,,,,,,,,,,,,,,,,,,,,,6100993be073d2243a0af320,61036f2866dec8e5896fc4fc,2021-07-29_23h17.19.657,Simcolourproject_2stim_asymm_v5,2020.2.10,MacIntel,60,61025ae37ef11b136ea224fe,,,,,,,,,532,88.57568359,43.5715332,1,0,0,response1disk,,6,1.407470703,2.399475098,1,0,0,rectangle,1.407470703,2.399475098,1,0,0,1.407470703,2.399475098,1,0,0,0,130,130,10,1,,,,,,,,
,,,,,,,,,,,,,FF,,,,,,,,0.7996,,,,,,,,,,,,,,,,,,,,,,6100993be073d2243a0af320,61036f2866dec8e5896fc4fc,2021-07-29_23h17.19.657,Simcolourproject_2stim_asymm_v5,2020.2.10,MacIntel,60,61025ae37ef11b136ea224fe,,,,,,,,,2215,-43.88464355,-80.16259766,1,0,0,response5disk,,3,-12.5425415,-3.455688477,1,0,0,rectangle,-12.5425415,-3.455688477,1,0,0,-12.5425415,-3.455688477,1,0,0,0,131,131,29,1,,,,,,,,
,,,,,,,,,,,,,FF,,,,,,,,1.7252,,,,,,,,,,,,,,,,,,,,,,6100993be073d2243a0af320,61036f2866dec8e5896fc4fc,2021-07-29_23h17.19.657,Simcolourproject_2stim_asymm_v5,2020.2.10,MacIntel,60,61025ae37ef11b136ea224fe,,,,,,,,,1919,-34.0760498,62.05194092,1,0,0,response7disk,,0,-14.05987549,-7.349151611,1,0,0,rectangle,-14.05987549,-7.349151611,1,0,0,-14.05987549,-7.349151611,1,0,0,0,132,132,127,1,,,,,,,,
,,,,,,,,,,,,,FF,,,,,,,,0.8499,,,,,,,,,,,,,,,,,,,,,,6100993be073d2243a0af320,61036f2866dec8e5896fc4fc,2021-07-29_23h17.19.657,Simcolourproject_2stim_asymm_v5,2020.2.10,MacIntel,60,61025ae37ef11b136ea224fe,,,,,,,,,2837,35.04980469,-86.61553955,1,0,0,response3disk,,4,0.272888184,11.60305786,1,0,0,rectangle,0.272888184,11.60305786,1,0,0,0.272888184,11.60305786,1,0,0,0,133,133,13,1,,,,,,,,
,,,,,,,,,,,,,FF,,,,,,,,1.3993,,,,,,,,,,,,,,,,,,,,,,6100993be073d2243a0af320,61036f2866dec8e5896fc4fc,2021-07-29_23h17.19.657,Simcolourproject_2stim_asymm_v5,2020.2.10,MacIntel,60,61025ae37ef11b136ea224fe,,,,,,,,,1218,24.80981445,-85.24267578,1,0,0,response3disk,,4,5.519287109,-12.75985718,1,0,0,rectangle,5.519287109,-12.75985718,1,0,0,5.519287109,-12.75985718,1,0,0,0,134,134,24,1,,,,,,,,
,,,,,,,,,,,,,FF,,,,,,,,0.5671,,,,,,,,,,,,,,,,,,,,,,6100993be073d2243a0af320,61036f2866dec8e5896fc4fc,2021-07-29_23h17.19.657,Simcolourproject_2stim_asymm_v5,2020.2.10,MacIntel,60,61025ae37ef11b136ea224fe,,,,,,,,,3357,-51.03863525,-87.80456543,1,0,0,response5disk,,3,-14.86425781,-0.24786377,1,0,0,rectangle,-14.86425781,-0.24786377,1,0,0,-14.86425781,-0.24786377,1,0,0,0,135,135,27,1,,,,,,,,
,,,,,,,,,,,,,FF,,,,,,,,0.6836,,,,,,,,,,,,,,,,,,,,,,6100993be073d2243a0af320,61036f2866dec8e5896fc4fc,2021-07-29_23h17.19.657,Simcolourproject_2stim_asymm_v5,2020.2.10,MacIntel,60,61025ae37ef11b136ea224fe,,,,,,,,,1890,73.44213867,-40.48834229,1,0,0,response3disk,,5,6.72052002,-10.64984131,1,0,0,rectangle,6.72052002,-10.64984131,1,0,0,6.72052002,-10.64984131,1,0,0,0,136,136,67,1,,,,,,,,
,,,,,,,,,,,,,FF,,,,,,,,1.1501,,,,,,,,,,,,,,,,,,,,,,6100993be073d2243a0af320,61036f2866dec8e5896fc4fc,2021-07-29_23h17.19.657,Simcolourproject_2stim_asymm_v5,2020.2.10,MacIntel,60,61025ae37ef11b136ea224fe,,,,,,,,,4127,47.61633301,-80.85638428,1,0,0,response3disk,,4,24.78997803,-13.40103149,1,0,0,rectangle,24.78997803,-13.40103149,1,0,0,24.78997803,-13.40103149,1,0,0,0,137,137,124,1,,,,,,,,
,,,,,,,,,,,,,FF,,,,,,,,0.7333,,,,,,,,,,,,,,,,,,,,,,6100993be073d2243a0af320,61036f2866dec8e5896fc4fc,2021-07-29_23h17.19.657,Simcolourproject_2stim_asymm_v5,2020.2.10,MacIntel,60,61025ae37ef11b136ea224fe,,,,,,,,,3598,83.94128418,-34.20611572,1,0,0,response3disk,,5,-0.044250488,1.184967041,1,0,0,rectangle,-97.1786499,43.75524902,1,0,0,2.151977539,14.5743103,1,0,0,0,138,138,103,1,,response7disk_3,TRUE,1,1,"[34,159,276,223,304,268,26,194,139,260,34,244,86,300,273,208,33,214,197,323]",1.8831,rectangle
,,,,,,,,,,,,,FF,,,,,,,,1.5534,,,,,,,,,,,,,,,,,,,,,,6100993be073d2243a0af320,61036f2866dec8e5896fc4fc,2021-07-29_23h17.19.657,Simcolourproject_2stim_asymm_v5,2020.2.10,MacIntel,60,61025ae37ef11b136ea224fe,,,,,,,,,3595,63.6975708,-37.46612549,1,0,0,response3disk,,5,4.249389648,8.640167236,1,0,0,rectangle,4.249389648,8.640167236,1,0,0,4.249389648,8.640167236,1,0,0,0,139,139,147,1,,,,,,,,
,,,,,,,,,,,,,FF,,,,,,,,0.7483,,,,,,,,,,,,,,,,,,,,,,6100993be073d2243a0af320,61036f2866dec8e5896fc4fc,2021-07-29_23h17.19.657,Simcolourproject_2stim_asymm_v5,2020.2.10,MacIntel,60,61025ae37ef11b136ea224fe,,,,,,,,,3924,-51.97515869,-92.40625,1,0,0,response5disk,,3,-14.35583496,2.372680664,1,0,0,rectangle,-14.35583496,2.372680664,1,0,0,-14.35583496,2.372680664,1,0,0,0,140,140,17,1,,,,,,,,
,,,,,,,,,,,,,FF,,,,,,,,0.7347,,,,,,,,,,,,,,,,,,,,,,6100993be073d2243a0af320,61036f2866dec8e5896fc4fc,2021-07-29_23h17.19.657,Simcolourproject_2stim_asymm_v5,2020.2.10,MacIntel,60,61025ae37ef11b136ea224fe,,,,,,,,,3419,44.09777832,-88.22229004,1,0,0,response3disk,,4,17.20141602,-11.29156494,1,0,0,rectangle,17.20141602,-11.29156494,1,0,0,17.20141602,-11.29156494,1,0,0,0,141,141,82,1,,,,,,,,
,,,,,,,,,,,,,FF,,,,,,,,0.7151,,,,,,,,,,,,,,,,,,,,,,6100993be073d2243a0af320,61036f2866dec8e5896fc4fc,2021-07-29_23h17.19.657,Simcolourproject_2stim_asymm_v5,2020.2.10,MacIntel,60,61025ae37ef11b136ea224fe,,,,,,,,,2356,74.79522705,-51.24475098,1,0,0,response3disk,,5,15.84985352,-11.49627686,1,0,0,rectangle,15.84985352,-11.49627686,1,0,0,15.84985352,-11.49627686,1,0,0,0,142,142,129,1,,,,,,,,
,,,,,,,,,,,,,FF,,,,,,,,0.8659,,,,,,,,,,,,,,,,,,,,,,6100993be073d2243a0af320,61036f2866dec8e5896fc4fc,2021-07-29_23h17.19.657,Simcolourproject_2stim_asymm_v5,2020.2.10,MacIntel,60,61025ae37ef11b136ea224fe,,,,,,,,,1841,32.57269287,-97.09332275,1,0,0,response3disk,,4,12.57104492,9.195495605,1,0,0,rectangle,12.57104492,9.195495605,1,0,0,12.57104492,9.195495605,1,0,0,0,143,143,157,1,,,,,,,,
,,,,,,,,,,,,,FF,,,,,,,,0.5333,,,,,,,,,,,,,,,,,,,,,,6100993be073d2243a0af320,61036f2866dec8e5896fc4fc,2021-07-29_23h17.19.657,Simcolourproject_2stim_asymm_v5,2020.2.10,MacIntel,60,61025ae37ef11b136ea224fe,,,,,,,,,2657,-31.15460205,-66.66259766,1,0,0,response5disk,,3,-5.749633789,5.395629883,1,0,0,rectangle,-5.749633789,5.395629883,1,0,0,-5.749633789,5.395629883,1,0,0,0,144,144,70,1,,,,,,,,
,,,,,,,,,,,,,FF,,,,,,,,0.7167,,,,,,,,,,,,,,,,,,,,,,6100993be073d2243a0af320,61036f2866dec8e5896fc4fc,2021-07-29_23h17.19.657,Simcolourproject_2stim_asymm_v5,2020.2.10,MacIntel,60,61025ae37ef11b136ea224fe,,,,,,,,,1040,42.08532715,-87.99121094,1,0,0,response3disk,,4,22.46435547,-4.303466797,1,0,0,rectangle,22.46435547,-4.303466797,1,0,0,22.46435547,-4.303466797,1,0,0,0,145,145,0,1,,,,,,,,
,,,,,,,,,,,,,FF,,,,,,,,0.5335,,,,,,,,,,,,,,,,,,,,,,6100993be073d2243a0af320,61036f2866dec8e5896fc4fc,2021-07-29_23h17.19.657,Simcolourproject_2stim_asymm_v5,2020.2.10,MacIntel,60,61025ae37ef11b136ea224fe,,,,,,,,,2594,-33.56085205,-73.06243896,1,0,0,response5disk,,3,-8.996826172,5.479827881,1,0,0,rectangle,-8.996826172,5.479827881,1,0,0,-8.996826172,5.479827881,1,0,0,0,146,146,60,1,,,,,,,,
,,,,,,,,,,,,,FF,,,,,,,,0.7849,,,,,,,,,,,,,,,,,,,,,,6100993be073d2243a0af320,61036f2866dec8e5896fc4fc,2021-07-29_23h17.19.657,Simcolourproject_2stim_asymm_v5,2020.2.10,MacIntel,60,61025ae37ef11b136ea224fe,,,,,,,,,992,-74.92529297,-36.50897217,1,0,0,response5disk,,2,-4.263977051,-7.133880615,1,0,0,rectangle,-4.263977051,-7.133880615,1,0,0,-4.263977051,-7.133880615,1,0,0,0,147,147,153,1,,,,,,,,
,,,,,,,,,,,,,FF,,,,,,,,0.6669,,,,,,,,,,,,,,,,,,,,,,6100993be073d2243a0af320,61036f2866dec8e5896fc4fc,2021-07-29_23h17.19.657,Simcolourproject_2stim_asymm_v5,2020.2.10,MacIntel,60,61025ae37ef11b136ea224fe,,,,,,,,,4329,-71.20678711,28.53033447,1,0,0,response7disk,,1,-2.091796875,-1.93762207,1,0,0,rectangle,-2.091796875,-1.93762207,1,0,0,-2.091796875,-1.93762207,1,0,0,0,148,148,88,1,,,,,,,,
,,,,,,,,,,,,,FF,,,,,,,,0.5841,,,,,,,,,,,,,,,,,,,,,,6100993be073d2243a0af320,61036f2866dec8e5896fc4fc,2021-07-29_23h17.19.657,Simcolourproject_2stim_asymm_v5,2020.2.10,MacIntel,60,61025ae37ef11b136ea224fe,,,,,,,,,1333,-43.08575439,80.59207153,1,0,0,response7disk,,0,-19.3425293,-8.136901855,1,0,0,rectangle,-19.3425293,-8.136901855,1,0,0,-19.3425293,-8.136901855,1,0,0,0,149,149,141,1,,,,,,,,
,,,,,,,,,,,,,FF,,,,,,,,0.7,,,,,,,,,,,,,,,,,,,,,,6100993be073d2243a0af320,61036f2866dec8e5896fc4fc,2021-07-29_23h17.19.657,Simcolourproject_2stim_asymm_v5,2020.2.10,MacIntel,60,61025ae37ef11b136ea224fe,,,,,,,,,2560,-38.02209473,66.47674561,1,0,0,response7disk,,0,-11.82885742,-11.4375,1,0,0,rectangle,-11.82885742,-11.4375,1,0,0,-11.82885742,-11.4375,1,0,0,0,150,150,122,1,,,,,,,,
,,,,,,,,,,,,,FF,,,,,,,,0.8348,,,,,,,,,,,,,,,,,,,,,,6100993be073d2243a0af320,61036f2866dec8e5896fc4fc,2021-07-29_23h17.19.657,Simcolourproject_2stim_asymm_v5,2020.2.10,MacIntel,60,61025ae37ef11b136ea224fe,,,,,,,,,2131,-37.5904541,61.36663818,1,0,0,response7disk,,0,-18.4921875,-5.464111328,1,0,0,rectangle,-18.4921875,-5.464111328,1,0,0,-18.4921875,-5.464111328,1,0,0,0,151,151,106,1,,,,,,,,
,,,,,,,,,,,,,FF,,,,,,,,1.0329,,,,,,,,,,,,,,,,,,,,,,6100993be073d2243a0af320,61036f2866dec8e5896fc4fc,2021-07-29_23h17.19.657,Simcolourproject_2stim_asymm_v5,2020.2.10,MacIntel,60,61025ae37ef11b136ea224fe,,,,,,,,,3212,-43.04553223,-88.39770508,1,0,0,response5disk,,3,-17.57672119,0.597106934,1,0,0,rectangle,-17.57672119,0.597106934,1,0,0,-17.57672119,0.597106934,1,0,0,0,152,152,155,1,,,,,,,,
,,,,,,,,,,,,,FF,,,,,,,,1.2329,,,,,,,,,,,,,,,,,,,,,,6100993be073d2243a0af320,61036f2866dec8e5896fc4fc,2021-07-29_23h17.19.657,Simcolourproject_2stim_asymm_v5,2020.2.10,MacIntel,60,61025ae37ef11b136ea224fe,,,,,,,,,2270,-73.73980713,33.52545166,1,0,0,response7disk,,1,6.055725098,-15.89196777,1,0,0,rectangle,6.055725098,-15.89196777,1,0,0,6.055725098,-15.89196777,1,0,0,0,153,153,6,1,,,,,,,,
,,,,,,,,,,,,,FF,,,,,,,,0.6328,,,,,,,,,,,,,,,,,,,,,,6100993be073d2243a0af320,61036f2866dec8e5896fc4fc,2021-07-29_23h17.19.657,Simcolourproject_2stim_asymm_v5,2020.2.10,MacIntel,60,61025ae37ef11b136ea224fe,,,,,,,,,2043,-70.6862793,-24.5916748,1,0,0,response5disk,,2,-2.912963867,-10.49951172,1,0,0,rectangle,-2.912963867,-10.49951172,1,0,0,-2.912963867,-10.49951172,1,0,0,0,154,154,31,1,,,,,,,,
,,,,,,,,,,,,,FF,,,,,,,,0.6839,,,,,,,,,,,,,,,,,,,,,,6100993be073d2243a0af320,61036f2866dec8e5896fc4fc,2021-07-29_23h17.19.657,Simcolourproject_2stim_asymm_v5,2020.2.10,MacIntel,60,61025ae37ef11b136ea224fe,,,,,,,,,3306,-81.73883057,-26.2928772,1,0,0,response5disk,,2,-0.226867676,-7.493865967,1,0,0,rectangle,-0.226867676,-7.493865967,1,0,0,-0.226867676,-7.493865967,1,0,0,0,155,155,79,1,,,,,,,,
,,,,,,,,,,,,,FF,,,,,,,,0.8669,,,,,,,,,,,,,,,,,,,,,,6100993be073d2243a0af320,61036f2866dec8e5896fc4fc,2021-07-29_23h17.19.657,Simcolourproject_2stim_asymm_v5,2020.2.10,MacIntel,60,61025ae37ef11b136ea224fe,,,,,,,,,3418,48.75158691,-102.3594971,1,0,0,response3disk,,4,-0.103088379,-4.423828125,1,0,0,rectangle,-0.103088379,-4.423828125,1,0,0,-0.103088379,-4.423828125,1,0,0,0,156,156,78,1,,,,,,,,
,,,,,,,,,,,,,FF,,,,,,,,0.7,,,,,,,,,,,,,,,,,,,,,,6100993be073d2243a0af320,61036f2866dec8e5896fc4fc,2021-07-29_23h17.19.657,Simcolourproject_2stim_asymm_v5,2020.2.10,MacIntel,60,61025ae37ef11b136ea224fe,,,,,,,,,420,-76.28405762,19.8137207,1,0,0,response7disk,,1,9.436279297,-7.275299072,1,0,0,rectangle,9.436279297,-7.275299072,1,0,0,9.436279297,-7.275299072,1,0,0,0,157,157,99,1,,,,,,,,
,,,,,,,,,,,,,FF,,,,,,,,0.801,,,,,,,,,,,,,,,,,,,,,,6100993be073d2243a0af320,61036f2866dec8e5896fc4fc,2021-07-29_23h17.19.657,Simcolourproject_2stim_asymm_v5,2020.2.10,MacIntel,60,61025ae37ef11b136ea224fe,,,,,,,,,2495,-69.62524414,47.94616699,1,0,0,response7disk,,1,-12.3961792,0.442260742,1,0,0,rectangle,-92.97998047,45.3326416,1,0,0,-5.462402344,-3.170440674,1,0,0,0,158,158,15,1,,response7disk_3,TRUE,1,1,"[34,159,276,223,304,268,26,194,139,260,34,244,86,300,273,208,33,214,197,323]",1.3009,rectangle
,,,,,,,,,,,,,FF,,,,,,,,52.4993,,,,,,,,,,,,,,,,,,,,,,6100993be073d2243a0af320,61036f2866dec8e5896fc4fc,2021-07-29_23h17.19.657,Simcolourproject_2stim_asymm_v5,2020.2.10,MacIntel,60,61025ae37ef11b136ea224fe,,,,,,,,,2374,-64.13128662,-101.4204102,1,0,0,response5disk,,3,15.38427734,7.801757813,1,0,0,rectangle,15.38427734,7.801757813,1,0,0,15.38427734,7.801757813,1,0,0,0,159,159,52,1,,,,,,,,
,,,,,,,,,,,,,FF,,,,,,,,0.749,,,,,,,,,,,,,,,,,,,,,,6100993be073d2243a0af320,61036f2866dec8e5896fc4fc,2021-07-29_23h17.19.657,Simcolourproject_2stim_asymm_v5,2020.2.10,MacIntel,60,61025ae37ef11b136ea224fe,,,,,,,,,4235,46.09484863,96.52172852,1,0,0,response1disk,,7,-10.32873535,-9.196044922,1,0,0,rectangle,-10.32873535,-9.196044922,1,0,0,-10.32873535,-9.196044922,1,0,0,1,0,160,5,1,,,,,,,,
,,,,,,,,,,,,,FF,,,,,,,,0.8834,,,,,,,,,,,,,,,,,,,,,,6100993be073d2243a0af320,61036f2866dec8e5896fc4fc,2021-07-29_23h17.19.657,Simcolourproject_2stim_asymm_v5,2020.2.10,MacIntel,60,61025ae37ef11b136ea224fe,,,,,,,,,3393,81.16394043,-28.77966309,1,0,0,response3disk,,5,-17.80834961,17.55316162,1,0,0,rectangle,-17.80834961,17.55316162,1,0,0,-17.80834961,17.55316162,1,0,0,1,1,161,61,1,,,,,,,,
,,,,,,,,,,,,,FF,,,,,,,,0.7334,,,,,,,,,,,,,,,,,,,,,,6100993be073d2243a0af320,61036f2866dec8e5896fc4fc,2021-07-29_23h17.19.657,Simcolourproject_2stim_asymm_v5,2020.2.10,MacIntel,60,61025ae37ef11b136ea224fe,,,,,,,,,1658,-43.51556396,-75.23620605,1,0,0,response5disk,,3,-6.642578125,-13.33114624,1,0,0,rectangle,-6.642578125,-13.33114624,1,0,0,-6.642578125,-13.33114624,1,0,0,1,2,162,111,1,,,,,,,,
,,,,,,,,,,,,,FF,,,,,,,,1.283,,,,,,,,,,,,,,,,,,,,,,6100993be073d2243a0af320,61036f2866dec8e5896fc4fc,2021-07-29_23h17.19.657,Simcolourproject_2stim_asymm_v5,2020.2.10,MacIntel,60,61025ae37ef11b136ea224fe,,,,,,,,,3323,-88.49578857,45.71795654,1,0,0,response7disk,,1,16.18859863,-10.17138672,1,0,0,rectangle,16.18859863,-10.17138672,1,0,0,16.18859863,-10.17138672,1,0,0,1,3,163,10,1,,,,,,,,
,,,,,,,,,,,,,FF,,,,,,,,0.6665,,,,,,,,,,,,,,,,,,,,,,6100993be073d2243a0af320,61036f2866dec8e5896fc4fc,2021-07-29_23h17.19.657,Simcolourproject_2stim_asymm_v5,2020.2.10,MacIntel,60,61025ae37ef11b136ea224fe,,,,,,,,,2726,65.95861816,-93.28991699,1,0,0,response3disk,,4,13.84741211,-5.64642334,1,0,0,rectangle,13.84741211,-5.64642334,1,0,0,13.84741211,-5.64642334,1,0,0,1,4,164,89,1,,,,,,,,
,,,,,,,,,,,,,FF,,,,,,,,0.5654,,,,,,,,,,,,,,,,,,,,,,6100993be073d2243a0af320,61036f2866dec8e5896fc4fc,2021-07-29_23h17.19.657,Simcolourproject_2stim_asymm_v5,2020.2.10,MacIntel,60,61025ae37ef11b136ea224fe,,,,,,,,,155,-67.53796387,-93.89056396,1,0,0,response5disk,,3,-5.498535156,6.26184082,1,0,0,rectangle,-5.498535156,6.26184082,1,0,0,-5.498535156,6.26184082,1,0,0,1,5,165,130,1,,,,,,,,
,,,,,,,,,,,,,FF,,,,,,,,0.6511,,,,,,,,,,,,,,,,,,,,,,6100993be073d2243a0af320,61036f2866dec8e5896fc4fc,2021-07-29_23h17.19.657,Simcolourproject_2stim_asymm_v5,2020.2.10,MacIntel,60,61025ae37ef11b136ea224fe,,,,,,,,,285,76.21875,-50.06439209,1,0,0,response3disk,,5,23.06591797,-11.32409668,1,0,0,rectangle,23.06591797,-11.32409668,1,0,0,23.06591797,-11.32409668,1,0,0,1,6,166,105,1,,,,,,,,
,,,,,,,,,,,,,FF,,,,,,,,0.7012,,,,,,,,,,,,,,,,,,,,,,6100993be073d2243a0af320,61036f2866dec8e5896fc4fc,2021-07-29_23h17.19.657,Simcolourproject_2stim_asymm_v5,2020.2.10,MacIntel,60,61025ae37ef11b136ea224fe,,,,,,,,,3807,-45.05444336,-114.5031738,1,0,0,response5disk,,3,-0.043029785,12.75238037,1,0,0,rectangle,-0.043029785,12.75238037,1,0,0,-0.043029785,12.75238037,1,0,0,1,7,167,7,1,,,,,,,,
,,,,,,,,,,,,,FF,,,,,,,,18.1989,,,,,,,,,,,,,,,,,,,,,,6100993be073d2243a0af320,61036f2866dec8e5896fc4fc,2021-07-29_23h17.19.657,Simcolourproject_2stim_asymm_v5,2020.2.10,MacIntel,60,61025ae37ef11b136ea224fe,,,,,,,,,1819,-54.91253662,-93.06915283,1,0,0,response5disk,,3,-16.01867676,-7.968383789,1,0,0,rectangle,-16.01867676,-7.968383789,1,0,0,-16.01867676,-7.968383789,1,0,0,1,8,168,67,1,,,,,,,,
,,,,,,,,,,,,,FF,,,,,,,,0.6846,,,,,,,,,,,,,,,,,,,,,,6100993be073d2243a0af320,61036f2866dec8e5896fc4fc,2021-07-29_23h17.19.657,Simcolourproject_2stim_asymm_v5,2020.2.10,MacIntel,60,61025ae37ef11b136ea224fe,,,,,,,,,462,84.7980957,-42.14648438,1,0,0,response3disk,,5,2.006774902,0.655883789,1,0,0,rectangle,2.006774902,0.655883789,1,0,0,2.006774902,0.655883789,1,0,0,1,9,169,71,1,,,,,,,,
,,,,,,,,,,,,,FF,,,,,,,,0.6331,,,,,,,,,,,,,,,,,,,,,,6100993be073d2243a0af320,61036f2866dec8e5896fc4fc,2021-07-29_23h17.19.657,Simcolourproject_2stim_asymm_v5,2020.2.10,MacIntel,60,61025ae37ef11b136ea224fe,,,,,,,,,3558,88.97113037,-29.75311279,1,0,0,response3disk,,5,9.019348145,-9.897491455,1,0,0,rectangle,9.019348145,-9.897491455,1,0,0,9.019348145,-9.897491455,1,0,0,1,10,170,126,1,,,,,,,,
,,,,,,,,,,,,,FF,,,,,,,,1.6159,,,,,,,,,,,,,,,,,,,,,,6100993be073d2243a0af320,61036f2866dec8e5896fc4fc,2021-07-29_23h17.19.657,Simcolourproject_2stim_asymm_v5,2020.2.10,MacIntel,60,61025ae37ef11b136ea224fe,,,,,,,,,2155,31.68969727,-90.10119629,1,0,0,response3disk,,4,12.67285156,1.778808594,1,0,0,rectangle,12.67285156,1.778808594,1,0,0,12.67285156,1.778808594,1,0,0,1,11,171,104,1,,,,,,,,
,,,,,,,,,,,,,FF,,,,,,,,0.7177,,,,,,,,,,,,,,,,,,,,,,6100993be073d2243a0af320,61036f2866dec8e5896fc4fc,2021-07-29_23h17.19.657,Simcolourproject_2stim_asymm_v5,2020.2.10,MacIntel,60,61025ae37ef11b136ea224fe,,,,,,,,,4043,-79.03186035,-36.54821777,1,0,0,response5disk,,2,-7.787841797,6.128540039,1,0,0,rectangle,-7.787841797,6.128540039,1,0,0,-7.787841797,6.128540039,1,0,0,1,12,172,78,1,,,,,,,,
,,,,,,,,,,,,,FF,,,,,,,,0.7378,,,,,,,,,,,,,,,,,,,,,,6100993be073d2243a0af320,61036f2866dec8e5896fc4fc,2021-07-29_23h17.19.657,Simcolourproject_2stim_asymm_v5,2020.2.10,MacIntel,60,61025ae37ef11b136ea224fe,,,,,,,,,593,-84.32659912,30.40463257,1,0,0,response7disk,,1,1.497924805,11.33337402,1,0,0,rectangle,1.497924805,11.33337402,1,0,0,1.497924805,11.33337402,1,0,0,1,13,173,54,1,,,,,,,,
,,,,,,,,,,,,,FF,,,,,,,,0.45,,,,,,,,,,,,,,,,,,,,,,6100993be073d2243a0af320,61036f2866dec8e5896fc4fc,2021-07-29_23h17.19.657,Simcolourproject_2stim_asymm_v5,2020.2.10,MacIntel,60,61025ae37ef11b136ea224fe,,,,,,,,,2297,-33.67346191,64.64276123,1,0,0,response7disk,,0,-7.127807617,10.55621338,1,0,0,rectangle,-7.127807617,10.55621338,1,0,0,-7.127807617,10.55621338,1,0,0,1,14,174,70,1,,,,,,,,
,,,,,,,,,,,,,FF,,,,,,,,0.6163,,,,,,,,,,,,,,,,,,,,,,6100993be073d2243a0af320,61036f2866dec8e5896fc4fc,2021-07-29_23h17.19.657,Simcolourproject_2stim_asymm_v5,2020.2.10,MacIntel,60,61025ae37ef11b136ea224fe,,,,,,,,,2930,85.76208496,33.61853027,1,0,0,response1disk,,6,-1.551452637,13.09381104,1,0,0,rectangle,-1.551452637,13.09381104,1,0,0,-1.551452637,13.09381104,1,0,0,1,15,175,85,1,,,,,,,,
,,,,,,,,,,,,,FF,,,,,,,,0.8506,,,,,,,,,,,,,,,,,,,,,,6100993be073d2243a0af320,61036f2866dec8e5896fc4fc,2021-07-29_23h17.19.657,Simcolourproject_2stim_asymm_v5,2020.2.10,MacIntel,60,61025ae37ef11b136ea224fe,,,,,,,,,1936,-32.7387085,-84.1237793,1,0,0,response5disk,,3,11.39819336,-3.054626465,1,0,0,rectangle,11.39819336,-3.054626465,1,0,0,11.39819336,-3.054626465,1,0,0,1,16,176,11,1,,,,,,,,
,,,,,,,,,,,,,FF,,,,,,,,0.6667,,,,,,,,,,,,,,,,,,,,,,6100993be073d2243a0af320,61036f2866dec8e5896fc4fc,2021-07-29_23h17.19.657,Simcolourproject_2stim_asymm_v5,2020.2.10,MacIntel,60,61025ae37ef11b136ea224fe,,,,,,,,,1399,-16.07073975,-63.16992188,1,0,0,response5disk,,3,8.475402832,-4.271759033,1,0,0,rectangle,8.475402832,-4.271759033,1,0,0,8.475402832,-4.271759033,1,0,0,1,17,177,79,1,,,,,,,,
,,,,,,,,,,,,,FF,,,,,,,,1.1668,,,,,,,,,,,,,,,,,,,,,,6100993be073d2243a0af320,61036f2866dec8e5896fc4fc,2021-07-29_23h17.19.657,Simcolourproject_2stim_asymm_v5,2020.2.10,MacIntel,60,61025ae37ef11b136ea224fe,,,,,,,,,188,-32.60736084,-69.18963623,1,0,0,response5disk,,3,21.07556152,-9.574493408,1,0,0,rectangle,21.07556152,-9.574493408,1,0,0,21.07556152,-9.574493408,1,0,0,1,18,178,34,1,,,,,,,,
,,,,,,,,,,,,,FF,,,,,,,,1.8668,,,,,,,,,,,,,,,,,,,,,,6100993be073d2243a0af320,61036f2866dec8e5896fc4fc,2021-07-29_23h17.19.657,Simcolourproject_2stim_asymm_v5,2020.2.10,MacIntel,60,61025ae37ef11b136ea224fe,,,,,,,,,3152,97.86376953,-50.82015991,1,0,0,response3disk,,5,-8.788879395,7.336303711,1,0,0,rectangle,-8.788879395,7.336303711,1,0,0,-8.788879395,7.336303711,1,0,0,1,19,179,63,1,,,,,,,,
,,,,,,,,,,,,,FF,,,,,,,,3.367,,,,,,,,,,,,,,,,,,,,,,6100993be073d2243a0af320,61036f2866dec8e5896fc4fc,2021-07-29_23h17.19.657,Simcolourproject_2stim_asymm_v5,2020.2.10,MacIntel,60,61025ae37ef11b136ea224fe,,,,,,,,,3648,35.74969482,-79.33398438,1,0,0,response3disk,,4,-0.502441406,8.74407959,1,0,0,rectangle,-0.502441406,8.74407959,1,0,0,-0.502441406,8.74407959,1,0,0,1,20,180,109,1,,,,,,,,
,,,,,,,,,,,,,FF,,,,,,,,0.6159,,,,,,,,,,,,,,,,,,,,,,6100993be073d2243a0af320,61036f2866dec8e5896fc4fc,2021-07-29_23h17.19.657,Simcolourproject_2stim_asymm_v5,2020.2.10,MacIntel,60,61025ae37ef11b136ea224fe,,,,,,,,,126,-34.35498047,43.86651611,1,0,0,response7disk,,0,-7.432861328,-6.522888184,1,0,0,rectangle,-7.432861328,-6.522888184,1,0,0,-7.432861328,-6.522888184,1,0,0,1,21,181,135,1,,,,,,,,
,,,,,,,,,,,,,FF,,,,,,,,0.4672,,,,,,,,,,,,,,,,,,,,,,6100993be073d2243a0af320,61036f2866dec8e5896fc4fc,2021-07-29_23h17.19.657,Simcolourproject_2stim_asymm_v5,2020.2.10,MacIntel,60,61025ae37ef11b136ea224fe,,,,,,,,,2445,-50.77960205,20.36352539,1,0,0,response7disk,,1,-12.68023682,-2.580169678,1,0,0,rectangle,-12.68023682,-2.580169678,1,0,0,-12.68023682,-2.580169678,1,0,0,1,22,182,73,1,,,,,,,,
,,,,,,,,,,,,,FF,,,,,,,,0.7013,,,,,,,,,,,,,,,,,,,,,,6100993be073d2243a0af320,61036f2866dec8e5896fc4fc,2021-07-29_23h17.19.657,Simcolourproject_2stim_asymm_v5,2020.2.10,MacIntel,60,61025ae37ef11b136ea224fe,,,,,,,,,51,-77.76403809,-32.10375977,1,0,0,response5disk,,2,-11.72680664,2.291168213,1,0,0,rectangle,-11.72680664,2.291168213,1,0,0,-11.72680664,2.291168213,1,0,0,1,23,183,6,1,,,,,,,,
,,,,,,,,,,,,,FF,,,,,,,,0.8804,,,,,,,,,,,,,,,,,,,,,,6100993be073d2243a0af320,61036f2866dec8e5896fc4fc,2021-07-29_23h17.19.657,Simcolourproject_2stim_asymm_v5,2020.2.10,MacIntel,60,61025ae37ef11b136ea224fe,,,,,,,,,2848,39.31970215,-89.7053833,1,0,0,response3disk,,4,10.59594727,-1.934936523,1,0,0,rectangle,10.59594727,-1.934936523,1,0,0,10.59594727,-1.934936523,1,0,0,1,24,184,64,1,,,,,,,,
,,,,,,,,,,,,,FF,,,,,,,,1.4514,,,,,,,,,,,,,,,,,,,,,,6100993be073d2243a0af320,61036f2866dec8e5896fc4fc,2021-07-29_23h17.19.657,Simcolourproject_2stim_asymm_v5,2020.2.10,MacIntel,60,61025ae37ef11b136ea224fe,,,,,,,,,2975,-89.29998779,-31.55981445,1,0,0,response5disk,,2,6.624023438,7.650756836,1,0,0,rectangle,6.624023438,7.650756836,1,0,0,6.624023438,7.650756836,1,0,0,1,25,185,77,1,,,,,,,,
,,,,,,,,,,,,,FF,,,,,,,,0.9186,,,,,,,,,,,,,,,,,,,,,,6100993be073d2243a0af320,61036f2866dec8e5896fc4fc,2021-07-29_23h17.19.657,Simcolourproject_2stim_asymm_v5,2020.2.10,MacIntel,60,61025ae37ef11b136ea224fe,,,,,,,,,3186,-36.01635742,71.45401001,1,0,0,response7disk,,0,-12.29449463,-2.923828125,1,0,0,rectangle,-12.29449463,-2.923828125,1,0,0,-12.29449463,-2.923828125,1,0,0,1,26,186,98,1,,,,,,,,
,,,,,,,,,,,,,FF,,,,,,,,1.2833,,,,,,,,,,,,,,,,,,,,,,6100993be073d2243a0af320,61036f2866dec8e5896fc4fc,2021-07-29_23h17.19.657,Simcolourproject_2stim_asymm_v5,2020.2.10,MacIntel,60,61025ae37ef11b136ea224fe,,,,,,,,,644,43.05377197,-94.7532959,1,0,0,response3disk,,4,2.164855957,2.30279541,1,0,0,rectangle,2.164855957,2.30279541,1,0,0,2.164855957,2.30279541,1,0,0,1,27,187,48,1,,,,,,,,
,,,,,,,,,,,,,FF,,,,,,,,1.1172,,,,,,,,,,,,,,,,,,,,,,6100993be073d2243a0af320,61036f2866dec8e5896fc4fc,2021-07-29_23h17.19.657,Simcolourproject_2stim_asymm_v5,2020.2.10,MacIntel,60,61025ae37ef11b136ea224fe,,,,,,,,,3847,66.15460205,-52.16104126,1,0,0,response3disk,,5,1.137878418,-0.325439453,1,0,0,rectangle,1.137878418,-0.325439453,1,0,0,1.137878418,-0.325439453,1,0,0,1,28,188,30,1,,,,,,,,
,,,,,,,,,,,,,FF,,,,,,,,18.1849,,,,,,,,,,,,,,,,,,,,,,6100993be073d2243a0af320,61036f2866dec8e5896fc4fc,2021-07-29_23h17.19.657,Simcolourproject_2stim_asymm_v5,2020.2.10,MacIntel,60,61025ae37ef11b136ea224fe,,,,,,,,,2694,-31.95068359,-86.95983887,1,0,0,response5disk,,3,1.70489502,3.735168457,1,0,0,rectangle,1.70489502,3.735168457,1,0,0,1.70489502,3.735168457,1,0,0,1,29,189,13,1,,,,,,,,
,,,,,,,,,,,,,FF,,,,,,,,0.6659,,,,,,,,,,,,,,,,,,,,,,6100993be073d2243a0af320,61036f2866dec8e5896fc4fc,2021-07-29_23h17.19.657,Simcolourproject_2stim_asymm_v5,2020.2.10,MacIntel,60,61025ae37ef11b136ea224fe,,,,,,,,,964,-52.66497803,-29.89508057,1,0,0,response5disk,,2,14.30670166,5.895812988,1,0,0,rectangle,14.30670166,5.895812988,1,0,0,14.30670166,5.895812988,1,0,0,1,30,190,146,1,,,,,,,,
,,,,,,,,,,,,,FF,,,,,,,,0.7165,,,,,,,,,,,,,,,,,,,,,,6100993be073d2243a0af320,61036f2866dec8e5896fc4fc,2021-07-29_23h17.19.657,Simcolourproject_2stim_asymm_v5,2020.2.10,MacIntel,60,61025ae37ef11b136ea224fe,,,,,,,,,1306,42.33074951,-87.05517578,1,0,0,response3disk,,4,-2.222167969,11.12365723,1,0,0,rectangle,-2.222167969,11.12365723,1,0,0,-2.222167969,11.12365723,1,0,0,1,31,191,40,1,,,,,,,,
,,,,,,,,,,,,,FF,,,,,,,,0.9652,,,,,,,,,,,,,,,,,,,,,,6100993be073d2243a0af320,61036f2866dec8e5896fc4fc,2021-07-29_23h17.19.657,Simcolourproject_2stim_asymm_v5,2020.2.10,MacIntel,60,61025ae37ef11b136ea224fe,,,,,,,,,3128,-43.39672852,-80.48193359,1,0,0,response5disk,,3,-11.08813477,0.553253174,1,0,0,rectangle,-11.08813477,0.553253174,1,0,0,-11.08813477,0.553253174,1,0,0,1,32,192,4,1,,,,,,,,
,,,,,,,,,,,,,FF,,,,,,,,0.6501,,,,,,,,,,,,,,,,,,,,,,6100993be073d2243a0af320,61036f2866dec8e5896fc4fc,2021-07-29_23h17.19.657,Simcolourproject_2stim_asymm_v5,2020.2.10,MacIntel,60,61025ae37ef11b136ea224fe,,,,,,,,,831,-65.60424805,45.35217285,1,0,0,response7disk,,1,0.454406738,5.898956299,1,0,0,rectangle,-89.29608154,-53.68347168,1,0,0,-8.578491211,-6.694213867,1,0,0,1,33,193,1,1,,response5disk_3,TRUE,2,2,"[34,159,276,223,304,268,26,194,139,260,34,244,86,300,273,208,33,214,197,323]",1.7002,rectangle
,,,,,,,,,,,,,FF,,,,,,,,1.1174,,,,,,,,,,,,,,,,,,,,,,6100993be073d2243a0af320,61036f2866dec8e5896fc4fc,2021-07-29_23h17.19.657,Simcolourproject_2stim_asymm_v5,2020.2.10,MacIntel,60,61025ae37ef11b136ea224fe,,,,,,,,,1120,-37.90161133,63.13796997,1,0,0,response7disk,,0,-12.46679688,-5.096313477,1,0,0,rectangle,-12.46679688,-5.096313477,1,0,0,-12.46679688,-5.096313477,1,0,0,1,34,194,28,1,,,,,,,,
,,,,,,,,,,,,,FF,,,,,,,,0.6827,,,,,,,,,,,,,,,,,,,,,,6100993be073d2243a0af320,61036f2866dec8e5896fc4fc,2021-07-29_23h17.19.657,Simcolourproject_2stim_asymm_v5,2020.2.10,MacIntel,60,61025ae37ef11b136ea224fe,,,,,,,,,3963,-71.67041016,-33.17785645,1,0,0,response5disk,,2,-3.25213623,0.263244629,1,0,0,rectangle,-3.25213623,0.263244629,1,0,0,-3.25213623,0.263244629,1,0,0,1,35,195,0,1,,,,,,,,
,,,,,,,,,,,,,FF,,,,,,,,1.0327,,,,,,,,,,,,,,,,,,,,,,6100993be073d2243a0af320,61036f2866dec8e5896fc4fc,2021-07-29_23h17.19.657,Simcolourproject_2stim_asymm_v5,2020.2.10,MacIntel,60,61025ae37ef11b136ea224fe,,,,,,,,,111,-35.90991211,-76.73529053,1,0,0,response5disk,,3,6.932250977,7.171020508,1,0,0,rectangle,-41.16314697,-90.30810547,1,0,0,-1.767456055,4.80456543,1,0,0,1,36,196,116,1,,response5disk_3,TRUE,3,7,"[34,159,276,223,304,268,26,194,139,260,34,244,86,300,273,208,33,214,197,323]",4.3338,rectangle
,,,,,,,,,,,,,FF,,,,,,,,1.0845,,,,,,,,,,,,,,,,,,,,,,6100993be073d2243a0af320,61036f2866dec8e5896fc4fc,2021-07-29_23h17.19.657,Simcolourproject_2stim_asymm_v5,2020.2.10,MacIntel,60,61025ae37ef11b136ea224fe,,,,,,,,,3635,50.0614624,-92.25018311,1,0,0,response3disk,,4,-9.600769043,14.22912598,1,0,0,rectangle,-9.600769043,14.22912598,1,0,0,-9.600769043,14.22912598,1,0,0,1,37,197,21,1,,,,,,,,
,,,,,,,,,,,,,FF,,,,,,,,22.1655,,,,,,,,,,,,,,,,,,,,,,6100993be073d2243a0af320,61036f2866dec8e5896fc4fc,2021-07-29_23h17.19.657,Simcolourproject_2stim_asymm_v5,2020.2.10,MacIntel,60,61025ae37ef11b136ea224fe,,,,,,,,,3799,-35.90753174,-86.70361328,1,0,0,response5disk,,3,-11.75976563,1.352111816,1,0,0,rectangle,-11.75976563,1.352111816,1,0,0,-11.75976563,1.352111816,1,0,0,1,38,198,102,1,,,,,,,,
,,,,,,,,,,,,,FF,,,,,,,,1.5339,,,,,,,,,,,,,,,,,,,,,,6100993be073d2243a0af320,61036f2866dec8e5896fc4fc,2021-07-29_23h17.19.657,Simcolourproject_2stim_asymm_v5,2020.2.10,MacIntel,60,61025ae37ef11b136ea224fe,,,,,,,,,2753,-65.28692627,29.27734375,1,0,0,response7disk,,1,1.810058594,-0.242736816,1,0,0,rectangle,1.810058594,-0.242736816,1,0,0,1.810058594,-0.242736816,1,0,0,1,39,199,26,1,,,,,,,,
,,,,,,,,,,,,,FF,,,,,,,,0.8002,,,,,,,,,,,,,,,,,,,,,,6100993be073d2243a0af320,61036f2866dec8e5896fc4fc,2021-07-29_23h17.19.657,Simcolourproject_2stim_asymm_v5,2020.2.10,MacIntel,60,61025ae37ef11b136ea224fe,,,,,,,,,2536,-71.85742188,-38.09857178,1,0,0,response5disk,,2,9.96685791,17.3968811,1,0,0,rectangle,9.96685791,17.3968811,1,0,0,9.96685791,17.3968811,1,0,0,1,40,200,43,1,,,,,,,,
,,,,,,,,,,,,,FF,,,,,,,,0.7668,,,,,,,,,,,,,,,,,,,,,,6100993be073d2243a0af320,61036f2866dec8e5896fc4fc,2021-07-29_23h17.19.657,Simcolourproject_2stim_asymm_v5,2020.2.10,MacIntel,60,61025ae37ef11b136ea224fe,,,,,,,,,2480,32.83056641,93.73303223,1,0,0,response1disk,,7,-1.694702148,4.66418457,1,0,0,rectangle,-1.694702148,4.66418457,1,0,0,-1.694702148,4.66418457,1,0,0,1,41,201,115,1,,,,,,,,
,,,,,,,,,,,,,FF,,,,,,,,1.7657,,,,,,,,,,,,,,,,,,,,,,6100993be073d2243a0af320,61036f2866dec8e5896fc4fc,2021-07-29_23h17.19.657,Simcolourproject_2stim_asymm_v5,2020.2.10,MacIntel,60,61025ae37ef11b136ea224fe,,,,,,,,,1227,36.90710449,-79.762146,1,0,0,response3disk,,4,3.098754883,-15.37866211,1,0,0,rectangle,3.098754883,-15.37866211,1,0,0,3.098754883,-15.37866211,1,0,0,1,42,202,81,1,,,,,,,,
,,,,,,,,,,,,,FF,,,,,,,,1.5669,,,,,,,,,,,,,,,,,,,,,,6100993be073d2243a0af320,61036f2866dec8e5896fc4fc,2021-07-29_23h17.19.657,Simcolourproject_2stim_asymm_v5,2020.2.10,MacIntel,60,61025ae37ef11b136ea224fe,,,,,,,,,3574,-109.0529785,-47.1729126,1,0,0,response5disk,,2,2.914855957,3.351928711,1,0,0,rectangle,2.914855957,3.351928711,1,0,0,2.914855957,3.351928711,1,0,0,1,43,203,122,1,,,,,,,,
,,,,,,,,,,,,,FF,,,,,,,,0.7667,,,,,,,,,,,,,,,,,,,,,,6100993be073d2243a0af320,61036f2866dec8e5896fc4fc,2021-07-29_23h17.19.657,Simcolourproject_2stim_asymm_v5,2020.2.10,MacIntel,60,61025ae37ef11b136ea224fe,,,,,,,,,4150,30.40612793,-79.8458252,1,0,0,response3disk,,4,8.283081055,-1.851898193,1,0,0,rectangle,8.283081055,-1.851898193,1,0,0,8.283081055,-1.851898193,1,0,0,1,44,204,37,1,,,,,,,,
,,,,,,,,,,,,,FF,,,,,,,,0.8825,,,,,,,,,,,,,,,,,,,,,,6100993be073d2243a0af320,61036f2866dec8e5896fc4fc,2021-07-29_23h17.19.657,Simcolourproject_2stim_asymm_v5,2020.2.10,MacIntel,60,61025ae37ef11b136ea224fe,,,,,,,,,848,-59.23217773,30.94250488,1,0,0,response7disk,,1,-23.62097168,9.827514648,1,0,0,rectangle,-23.62097168,9.827514648,1,0,0,-23.62097168,9.827514648,1,0,0,1,45,205,107,1,,,,,,,,
,,,,,,,,,,,,,FF,,,,,,,,0.7826,,,,,,,,,,,,,,,,,,,,,,6100993be073d2243a0af320,61036f2866dec8e5896fc4fc,2021-07-29_23h17.19.657,Simcolourproject_2stim_asymm_v5,2020.2.10,MacIntel,60,61025ae37ef11b136ea224fe,,,,,,,,,2654,24.53155518,-86.8067627,1,0,0,response3disk,,4,9.454223633,5.547668457,1,0,0,rectangle,9.454223633,5.547668457,1,0,0,9.454223633,5.547668457,1,0,0,1,46,206,127,1,,,,,,,,
,,,,,,,,,,,,,FF,,,,,,,,1.3171,,,,,,,,,,,,,,,,,,,,,,6100993be073d2243a0af320,61036f2866dec8e5896fc4fc,2021-07-29_23h17.19.657,Simcolourproject_2stim_asymm_v5,2020.2.10,MacIntel,60,61025ae37ef11b136ea224fe,,,,,,,,,4018,-77.55743408,-30.73034668,1,0,0,response5disk,,2,-1.239379883,6.898376465,1,0,0,rectangle,-99.37225342,-50.75402832,1,0,0,-16.85266113,-6.020751953,1,0,0,1,47,207,143,1,,response5disk_3,TRUE,2,2,"[34,159,276,223,304,268,26,194,139,260,34,244,86,300,273,208,33,214,197,323]",1.7494,rectangle
,,,,,,,,,,,,,FF,,,,,,,,0.7999,,,,,,,,,,,,,,,,,,,,,,6100993be073d2243a0af320,61036f2866dec8e5896fc4fc,2021-07-29_23h17.19.657,Simcolourproject_2stim_asymm_v5,2020.2.10,MacIntel,60,61025ae37ef11b136ea224fe,,,,,,,,,2242,53.55218506,-91.7578125,1,0,0,response3disk,,4,11.63354492,-11.18289185,1,0,0,rectangle,11.63354492,-11.18289185,1,0,0,11.63354492,-11.18289185,1,0,0,1,48,208,152,1,,,,,,,,
,,,,,,,,,,,,,FF,,,,,,,,0.7161,,,,,,,,,,,,,,,,,,,,,,6100993be073d2243a0af320,61036f2866dec8e5896fc4fc,2021-07-29_23h17.19.657,Simcolourproject_2stim_asymm_v5,2020.2.10,MacIntel,60,61025ae37ef11b136ea224fe,,,,,,,,,4347,50.93347168,-29.87615967,1,0,0,response3disk,,5,3.731689453,-6.758911133,1,0,0,rectangle,3.731689453,-6.758911133,1,0,0,3.731689453,-6.758911133,1,0,0,1,49,209,36,1,,,,,,,,
,,,,,,,,,,,,,FF,,,,,,,,0.7987,,,,,,,,,,,,,,,,,,,,,,6100993be073d2243a0af320,61036f2866dec8e5896fc4fc,2021-07-29_23h17.19.657,Simcolourproject_2stim_asymm_v5,2020.2.10,MacIntel,60,61025ae37ef11b136ea224fe,,,,,,,,,2117,-74.37084961,-38.71044922,1,0,0,response5disk,,2,-6.005493164,-12.53405762,1,0,0,rectangle,-6.005493164,-12.53405762,1,0,0,-6.005493164,-12.53405762,1,0,0,1,50,210,140,1,,,,,,,,
,,,,,,,,,,,,,FF,,,,,,,,1.5332,,,,,,,,,,,,,,,,,,,,,,6100993be073d2243a0af320,61036f2866dec8e5896fc4fc,2021-07-29_23h17.19.657,Simcolourproject_2stim_asymm_v5,2020.2.10,MacIntel,60,61025ae37ef11b136ea224fe,,,,,,,,,1568,-70.15209961,31.4987793,1,0,0,response7disk,,1,-20.64556885,-1.29776001,1,0,0,rectangle,-20.64556885,-1.29776001,1,0,0,-20.64556885,-1.29776001,1,0,0,1,51,211,24,1,,,,,,,,
,,,,,,,,,,,,,FF,,,,,,,,1.3499,,,,,,,,,,,,,,,,,,,,,,6100993be073d2243a0af320,61036f2866dec8e5896fc4fc,2021-07-29_23h17.19.657,Simcolourproject_2stim_asymm_v5,2020.2.10,MacIntel,60,61025ae37ef11b136ea224fe,,,,,,,,,1680,79.65039063,-37.87359619,1,0,0,response3disk,,5,-5.949707031,-2.473999023,1,0,0,rectangle,-5.949707031,-2.473999023,1,0,0,-5.949707031,-2.473999023,1,0,0,1,52,212,149,1,,,,,,,,
,,,,,,,,,,,,,FF,,,,,,,,0.7679,,,,,,,,,,,,,,,,,,,,,,6100993be073d2243a0af320,61036f2866dec8e5896fc4fc,2021-07-29_23h17.19.657,Simcolourproject_2stim_asymm_v5,2020.2.10,MacIntel,60,61025ae37ef11b136ea224fe,,,,,,,,,1721,-63.15533447,35.69848633,1,0,0,response7disk,,1,1.871337891,-6.872497559,1,0,0,rectangle,-98.63360596,34.94662476,1,0,0,-17.21008301,-3.298278809,1,0,0,1,53,213,59,1,,response7disk_3,TRUE,1,1,"[34,159,276,223,304,268,26,194,139,260,34,244,86,300,273,208,33,214,197,323]",1.5839,rectangle
,,,,,,,,,,,,,FF,,,,,,,,1.3489,,,,,,,,,,,,,,,,,,,,,,6100993be073d2243a0af320,61036f2866dec8e5896fc4fc,2021-07-29_23h17.19.657,Simcolourproject_2stim_asymm_v5,2020.2.10,MacIntel,60,61025ae37ef11b136ea224fe,,,,,,,,,19,-31.12286377,-91.80834961,1,0,0,response5disk,,3,1.333679199,14.86154175,1,0,0,rectangle,1.333679199,14.86154175,1,0,0,1.333679199,14.86154175,1,0,0,1,54,214,9,1,,,,,,,,
,,,,,,,,,,,,,FF,,,,,,,,0.6595,,,,,,,,,,,,,,,,,,,,,,6100993be073d2243a0af320,61036f2866dec8e5896fc4fc,2021-07-29_23h17.19.657,Simcolourproject_2stim_asymm_v5,2020.2.10,MacIntel,60,61025ae37ef11b136ea224fe,,,,,,,,,811,31.55908203,-94.19866943,1,0,0,response3disk,,4,14.93994141,-13.00482178,1,0,0,rectangle,14.93994141,-13.00482178,1,0,0,14.93994141,-13.00482178,1,0,0,1,55,215,123,1,,,,,,,,
,,,,,,,,,,,,,FF,,,,,,,,0.847,,,,,,,,,,,,,,,,,,,,,,6100993be073d2243a0af320,61036f2866dec8e5896fc4fc,2021-07-29_23h17.19.657,Simcolourproject_2stim_asymm_v5,2020.2.10,MacIntel,60,61025ae37ef11b136ea224fe,,,,,,,,,1422,-33.47570801,-80.20166016,1,0,0,response5disk,,3,-13.81939697,-14.13043213,1,0,0,rectangle,-13.81939697,-14.13043213,1,0,0,-13.81939697,-14.13043213,1,0,0,1,56,216,3,1,,,,,,,,
,,,,,,,,,,,,,FF,,,,,,,,0.7668,,,,,,,,,,,,,,,,,,,,,,6100993be073d2243a0af320,61036f2866dec8e5896fc4fc,2021-07-29_23h17.19.657,Simcolourproject_2stim_asymm_v5,2020.2.10,MacIntel,60,61025ae37ef11b136ea224fe,,,,,,,,,4170,97.13391113,-52.5723877,1,0,0,response3disk,,5,-1.170043945,-9.091094971,1,0,0,rectangle,-1.170043945,-9.091094971,1,0,0,-1.170043945,-9.091094971,1,0,0,1,57,217,144,1,,,,,,,,
,,,,,,,,,,,,,FF,,,,,,,,1.166,,,,,,,,,,,,,,,,,,,,,,6100993be073d2243a0af320,61036f2866dec8e5896fc4fc,2021-07-29_23h17.19.657,Simcolourproject_2stim_asymm_v5,2020.2.10,MacIntel,60,61025ae37ef11b136ea224fe,,,,,,,,,4327,89.44500732,40.24725342,1,0,0,response1disk,,6,23.03674316,9.904876709,1,0,0,rectangle,23.03674316,9.904876709,1,0,0,23.03674316,9.904876709,1,0,0,1,58,218,129,1,,,,,,,,
,,,,,,,,,,,,,FF,,,,,,,,1.0664,,,,,,,,,,,,,,,,,,,,,,6100993be073d2243a0af320,61036f2866dec8e5896fc4fc,2021-07-29_23h17.19.657,Simcolourproject_2stim_asymm_v5,2020.2.10,MacIntel,60,61025ae37ef11b136ea224fe,,,,,,,,,1659,-44.23791504,-93.90429688,1,0,0,response5disk,,3,1.364685059,-0.066955566,1,0,0,rectangle,1.364685059,-0.066955566,1,0,0,1.364685059,-0.066955566,1,0,0,1,59,219,25,1,,,,,,,,
,,,,,,,,,,,,,FF,,,,,,,,1.001,,,,,,,,,,,,,,,,,,,,,,6100993be073d2243a0af320,61036f2866dec8e5896fc4fc,2021-07-29_23h17.19.657,Simcolourproject_2stim_asymm_v5,2020.2.10,MacIntel,60,61025ae37ef11b136ea224fe,,,,,,,,,3207,36.15917969,-88.95062256,1,0,0,response3disk,,4,0.93951416,-5.416229248,1,0,0,rectangle,0.93951416,-5.416229248,1,0,0,0.93951416,-5.416229248,1,0,0,1,60,220,157,1,,,,,,,,
,,,,,,,,,,,,,FF,,,,,,,,1.6013,,,,,,,,,,,,,,,,,,,,,,6100993be073d2243a0af320,61036f2866dec8e5896fc4fc,2021-07-29_23h17.19.657,Simcolourproject_2stim_asymm_v5,2020.2.10,MacIntel,60,61025ae37ef11b136ea224fe,,,,,,,,,1538,-44.77062988,-92.83679199,1,0,0,response5disk,,3,-1.783935547,10.19442749,1,0,0,rectangle,-1.783935547,10.19442749,1,0,0,-1.783935547,10.19442749,1,0,0,1,61,221,95,1,,,,,,,,
,,,,,,,,,,,,,FF,,,,,,,,1.4501,,,,,,,,,,,,,,,,,,,,,,6100993be073d2243a0af320,61036f2866dec8e5896fc4fc,2021-07-29_23h17.19.657,Simcolourproject_2stim_asymm_v5,2020.2.10,MacIntel,60,61025ae37ef11b136ea224fe,,,,,,,,,3004,-61.85510254,-26.09143066,1,0,0,response5disk,,2,-16.04040527,-14.88293457,1,0,0,rectangle,86.1552124,-27.97042847,1,0,0,-7.302062988,0.105041504,1,0,0,1,62,222,153,1,,response3disk_3,TRUE,5,5,"[34,159,276,223,304,268,26,194,139,260,34,244,86,300,273,208,33,214,197,323]",1.9652,rectangle
,,,,,,,,,,,,,FF,,,,,,,,0.7832,,,,,,,,,,,,,,,,,,,,,,6100993be073d2243a0af320,61036f2866dec8e5896fc4fc,2021-07-29_23h17.19.657,Simcolourproject_2stim_asymm_v5,2020.2.10,MacIntel,60,61025ae37ef11b136ea224fe,,,,,,,,,4005,31.06317139,-88.2076416,1,0,0,response3disk,,4,3.149963379,-15.9753418,1,0,0,rectangle,3.149963379,-15.9753418,1,0,0,3.149963379,-15.9753418,1,0,0,1,63,223,113,1,,,,,,,,
,,,,,,,,,,,,,FF,,,,,,,,0.55,,,,,,,,,,,,,,,,,,,,,,6100993be073d2243a0af320,61036f2866dec8e5896fc4fc,2021-07-29_23h17.19.657,Simcolourproject_2stim_asymm_v5,2020.2.10,MacIntel,60,61025ae37ef11b136ea224fe,,,,,,,,,50,-49.6550293,-62.88140869,1,0,0,response5disk,,3,-0.282836914,-2.169433594,1,0,0,rectangle,-0.282836914,-2.169433594,1,0,0,-0.282836914,-2.169433594,1,0,0,1,64,224,45,1,,,,,,,,
,,,,,,,,,,,,,FF,,,,,,,,0.5832,,,,,,,,,,,,,,,,,,,,,,6100993be073d2243a0af320,61036f2866dec8e5896fc4fc,2021-07-29_23h17.19.657,Simcolourproject_2stim_asymm_v5,2020.2.10,MacIntel,60,61025ae37ef11b136ea224fe,,,,,,,,,1617,34.20019531,-78.47875977,1,0,0,response3disk,,4,7.129455566,-8.873657227,1,0,0,rectangle,7.129455566,-8.873657227,1,0,0,7.129455566,-8.873657227,1,0,0,1,65,225,137,1,,,,,,,,
,,,,,,,,,,,,,FF,,,,,,,,0.7518,,,,,,,,,,,,,,,,,,,,,,6100993be073d2243a0af320,61036f2866dec8e5896fc4fc,2021-07-29_23h17.19.657,Simcolourproject_2stim_asymm_v5,2020.2.10,MacIntel,60,61025ae37ef11b136ea224fe,,,,,,,,,2181,77.34655762,-50.95248413,1,0,0,response3disk,,5,-3.511108398,0.737548828,1,0,0,rectangle,-3.511108398,0.737548828,1,0,0,-3.511108398,0.737548828,1,0,0,1,66,226,42,1,,,,,,,,
,,,,,,,,,,,,,FF,,,,,,,,1.1497,,,,,,,,,,,,,,,,,,,,,,6100993be073d2243a0af320,61036f2866dec8e5896fc4fc,2021-07-29_23h17.19.657,Simcolourproject_2stim_asymm_v5,2020.2.10,MacIntel,60,61025ae37ef11b136ea224fe,,,,,,,,,2692,-67.34289551,25.66168213,1,0,0,response7disk,,1,-11.94165039,-9.802001953,1,0,0,rectangle,-11.94165039,-9.802001953,1,0,0,-11.94165039,-9.802001953,1,0,0,1,67,227,106,1,,,,,,,,
,,,,,,,,,,,,,FF,,,,,,,,0.6663,,,,,,,,,,,,,,,,,,,,,,6100993be073d2243a0af320,61036f2866dec8e5896fc4fc,2021-07-29_23h17.19.657,Simcolourproject_2stim_asymm_v5,2020.2.10,MacIntel,60,61025ae37ef11b136ea224fe,,,,,,,,,588,-69.20135498,33.92590332,1,0,0,response7disk,,1,2.348876953,-2.041015625,1,0,0,rectangle,2.348876953,-2.041015625,1,0,0,2.348876953,-2.041015625,1,0,0,1,68,228,86,1,,,,,,,,
,,,,,,,,,,,,,FF,,,,,,,,0.7067,,,,,,,,,,,,,,,,,,,,,,6100993be073d2243a0af320,61036f2866dec8e5896fc4fc,2021-07-29_23h17.19.657,Simcolourproject_2stim_asymm_v5,2020.2.10,MacIntel,60,61025ae37ef11b136ea224fe,,,,,,,,,2541,34.69805908,104.3434448,1,0,0,response1disk,,7,9.890563965,-7.758636475,1,0,0,rectangle,9.890563965,-7.758636475,1,0,0,9.890563965,-7.758636475,1,0,0,1,69,229,158,1,,,,,,,,
,,,,,,,,,,,,,FF,,,,,,,,0.7335,,,,,,,,,,,,,,,,,,,,,,6100993be073d2243a0af320,61036f2866dec8e5896fc4fc,2021-07-29_23h17.19.657,Simcolourproject_2stim_asymm_v5,2020.2.10,MacIntel,60,61025ae37ef11b136ea224fe,,,,,,,,,630,36.00842285,74.26623535,1,0,0,response1disk,,7,16.64849854,-4.243927002,1,0,0,rectangle,16.64849854,-4.243927002,1,0,0,16.64849854,-4.243927002,1,0,0,1,70,230,19,1,,,,,,,,
,,,,,,,,,,,,,FF,,,,,,,,0.8155,,,,,,,,,,,,,,,,,,,,,,6100993be073d2243a0af320,61036f2866dec8e5896fc4fc,2021-07-29_23h17.19.657,Simcolourproject_2stim_asymm_v5,2020.2.10,MacIntel,60,61025ae37ef11b136ea224fe,,,,,,,,,3340,82.55322266,32.94824219,1,0,0,response1disk,,6,-1.903808594,3.421722412,1,0,0,rectangle,-1.903808594,3.421722412,1,0,0,-1.903808594,3.421722412,1,0,0,1,71,231,29,1,,,,,,,,
,,,,,,,,,,,,,FF,,,,,,,,0.9663,,,,,,,,,,,,,,,,,,,,,,6100993be073d2243a0af320,61036f2866dec8e5896fc4fc,2021-07-29_23h17.19.657,Simcolourproject_2stim_asymm_v5,2020.2.10,MacIntel,60,61025ae37ef11b136ea224fe,,,,,,,,,2570,-26.24298096,-62.88415527,1,0,0,response5disk,,3,-7.810546875,7.492492676,1,0,0,rectangle,-7.810546875,7.492492676,1,0,0,-7.810546875,7.492492676,1,0,0,1,72,232,100,1,,,,,,,,
,,,,,,,,,,,,,FF,,,,,,,,0.9172,,,,,,,,,,,,,,,,,,,,,,6100993be073d2243a0af320,61036f2866dec8e5896fc4fc,2021-07-29_23h17.19.657,Simcolourproject_2stim_asymm_v5,2020.2.10,MacIntel,60,61025ae37ef11b136ea224fe,,,,,,,,,2966,-66.76885986,-41.37008667,1,0,0,response5disk,,2,5.159118652,-2.529541016,1,0,0,rectangle,5.159118652,-2.529541016,1,0,0,5.159118652,-2.529541016,1,0,0,1,73,233,17,1,,,,,,,,
,,,,,,,,,,,,,FF,,,,,,,,2.2664,,,,,,,,,,,,,,,,,,,,,,6100993be073d2243a0af320,61036f2866dec8e5896fc4fc,2021-07-29_23h17.19.657,Simcolourproject_2stim_asymm_v5,2020.2.10,MacIntel,60,61025ae37ef11b136ea224fe,,,,,,,,,600,-25.56402588,-78.07196045,1,0,0,response5disk,,3,18.34790039,16.83355713,1,0,0,rectangle,18.34790039,16.83355713,1,0,0,18.34790039,16.83355713,1,0,0,1,74,234,88,1,,,,,,,,
,,,,,,,,,,,,,FF,,,,,,,,0.599,,,,,,,,,,,,,,,,,,,,,,6100993be073d2243a0af320,61036f2866dec8e5896fc4fc,2021-07-29_23h17.19.657,Simcolourproject_2stim_asymm_v5,2020.2.10,MacIntel,60,61025ae37ef11b136ea224fe,,,,,,,,,91,29.70959473,-67.47753906,1,0,0,response3disk,,4,14.69128418,-0.895935059,1,0,0,rectangle,14.69128418,-0.895935059,1,0,0,14.69128418,-0.895935059,1,0,0,1,75,235,92,1,,,,,,,,
,,,,,,,,,,,,,FF,,,,,,,,3.4507,,,,,,,,,,,,,,,,,,,,,,6100993be073d2243a0af320,61036f2866dec8e5896fc4fc,2021-07-29_23h17.19.657,Simcolourproject_2stim_asymm_v5,2020.2.10,MacIntel,60,61025ae37ef11b136ea224fe,,,,,,,,,3791,-38.16516113,-84.42651367,1,0,0,response5disk,,3,9.573608398,-2.05456543,1,0,0,rectangle,9.573608398,-2.05456543,1,0,0,9.573608398,-2.05456543,1,0,0,1,76,236,110,1,,,,,,,,
,,,,,,,,,,,,,FF,,,,,,,,0.7665,,,,,,,,,,,,,,,,,,,,,,6100993be073d2243a0af320,61036f2866dec8e5896fc4fc,2021-07-29_23h17.19.657,Simcolourproject_2stim_asymm_v5,2020.2.10,MacIntel,60,61025ae37ef11b136ea224fe,,,,,,,,,499,-33.73791504,-72.32788086,1,0,0,response5disk,,3,-7.273376465,-10.40576172,1,0,0,rectangle,-7.273376465,-10.40576172,1,0,0,-7.273376465,-10.40576172,1,0,0,1,77,237,47,1,,,,,,,,
,,,,,,,,,,,,,FF,,,,,,,,1.1172,,,,,,,,,,,,,,,,,,,,,,6100993be073d2243a0af320,61036f2866dec8e5896fc4fc,2021-07-29_23h17.19.657,Simcolourproject_2stim_asymm_v5,2020.2.10,MacIntel,60,61025ae37ef11b136ea224fe,,,,,,,,,3106,-32.04199219,-74.3081665,1,0,0,response5disk,,3,-14.92749023,-1.70425415,1,0,0,rectangle,-14.92749023,-1.70425415,1,0,0,-14.92749023,-1.70425415,1,0,0,1,78,238,90,1,,,,,,,,
,,,,,,,,,,,,,FF,,,,,,,,0.5495,,,,,,,,,,,,,,,,,,,,,,6100993be073d2243a0af320,61036f2866dec8e5896fc4fc,2021-07-29_23h17.19.657,Simcolourproject_2stim_asymm_v5,2020.2.10,MacIntel,60,61025ae37ef11b136ea224fe,,,,,,,,,3392,61.15270996,-35.90203857,1,0,0,response3disk,,5,-0.700378418,-7.953979492,1,0,0,rectangle,-0.700378418,-7.953979492,1,0,0,-0.700378418,-7.953979492,1,0,0,1,79,239,38,1,,,,,,,,
,,,,,,,,,,,,,FF,,,,,,,,0.5667,,,,,,,,,,,,,,,,,,,,,,6100993be073d2243a0af320,61036f2866dec8e5896fc4fc,2021-07-29_23h17.19.657,Simcolourproject_2stim_asymm_v5,2020.2.10,MacIntel,60,61025ae37ef11b136ea224fe,,,,,,,,,89,26.04858398,-69.10552979,1,0,0,response3disk,,4,2.203308105,-0.384338379,1,0,0,rectangle,2.203308105,-0.384338379,1,0,0,2.203308105,-0.384338379,1,0,0,1,80,240,134,1,,,,,,,,
,,,,,,,,,,,,,FF,,,,,,,,0.7008,,,,,,,,,,,,,,,,,,,,,,6100993be073d2243a0af320,61036f2866dec8e5896fc4fc,2021-07-29_23h17.19.657,Simcolourproject_2stim_asymm_v5,2020.2.10,MacIntel,60,61025ae37ef11b136ea224fe,,,,,,,,,829,52.52954102,-83.1506958,1,0,0,response3disk,,4,0.284301758,-11.3359375,1,0,0,rectangle,0.284301758,-11.3359375,1,0,0,0.284301758,-11.3359375,1,0,0,1,81,241,139,1,,,,,,,,
