key_resp.keys,key_resp.rt,key_resp_14.keys,key_resp_14.rt,key_resp_15.keys,key_resp_15.rt,key_resp_17.keys,key_resp_17.rt,key_resp_9.keys,key_resp_9.rt,key_resp_10.keys,key_resp_10.rt,practice_comparison,Ecc,mouse_5.x,mouse_5.y,mouse_5.leftButton,mouse_5.midButton,mouse_5.rightButton,mouse_5.clicked_name,pracsimilarity,response_time,mouse_10.x,mouse_10.y,mouse_10.leftButton,mouse_10.midButton,mouse_10.rightButton,mouse_10.clicked_name,mouse_7.x,mouse_7.y,mouse_7.leftButton,mouse_7.midButton,mouse_7.rightButton,mouse_6.x,mouse_6.y,mouse_6.leftButton,mouse_6.midButton,mouse_6.rightButton,duringprac.thisRepN,duringprac.thisTrialN,duringprac.thisN,duringprac.thisIndex,duringprac.ran,participant,session,date,expName,psychopyVersion,OS,frameRate,study_id,mouse_7.clicked_name,catchpracsimilarity,catch_response_time,catchnumberprac,catchtrialorderprac,mouse_6.clicked_name,key_resp_22.keys,key_resp_22.rt,realcomparison,mouse.x,mouse.y,mouse.leftButton,mouse.midButton,mouse.rightButton,mouse.clicked_name,Colour2,similarity,mouse_2.x,mouse_2.y,mouse_2.leftButton,mouse_2.midButton,mouse_2.rightButton,mouse_2.clicked_name,mouse_3.x,mouse_3.y,mouse_3.leftButton,mouse_3.midButton,mouse_3.rightButton,mouse_11.x,mouse_11.y,mouse_11.leftButton,mouse_11.midButton,mouse_11.rightButton,trials_2.thisRepN,trials_2.thisTrialN,trials_2.thisN,trials_2.thisIndex,trials_2.ran,Colour1,mouse_3.clicked_name,catchornah,catchsimilarity,catchnumber,catchtrialorder,catchRT,mouse_11.clicked_name
space,20.6963,space,14.3811,space,25.722,space,14.5832,space,1.5919,space,3.5102,35,PF,-54,135,1,0,0,response7disk_5,0,1.7853,-15,15,1,0,0,rectangle_8,-15,15,1,0,0,-15,15,1,0,0,0,0,0,1,1,61003d8e60e719291869b354,61036a8478938179e74f5788,2021-07-29_22h00.43.525,Simcolourproject_2stim_asymm_v5,2020.2.10,Win32,60,61025ae37ef11b136ea224fe,,,,,,,,,,,,,,,,,,,,,,,,,,,,,,,,,,,,,,,,,,,,,,
,,,,,,,,,,,,54,PF,-38,124,1,0,0,response7disk_5,0,4.0088,-8,-15,1,0,0,rectangle_8,-98,47,1,0,0,10,-7,1,0,0,0,1,1,2,1,61003d8e60e719291869b354,61036a8478938179e74f5788,2021-07-29_22h00.43.525,Simcolourproject_2stim_asymm_v5,2020.2.10,Win32,60,61025ae37ef11b136ea224fe,response7disk_7,1,2.2158,1,"[2,5]",rectangle_4,,,,,,,,,,,,,,,,,,,,,,,,,,,,,,,,,,,,,,,,
,,,,,,,,,,,,21,PF,-61,136,1,0,0,response7disk_5,0,2.4031,0,-1,1,0,0,rectangle_8,0,-1,1,0,0,0,-1,1,0,0,0,2,2,4,1,61003d8e60e719291869b354,61036a8478938179e74f5788,2021-07-29_22h00.43.525,Simcolourproject_2stim_asymm_v5,2020.2.10,Win32,60,61025ae37ef11b136ea224fe,,,,,,,,,,,,,,,,,,,,,,,,,,,,,,,,,,,,,,,,,,,,,,
,,,,,,,,,,,,43,FF,-45,-151,1,0,0,response5disk_5,3,4.0422,-3,-7,1,0,0,rectangle_8,-3,-7,1,0,0,-3,-7,1,0,0,0,3,3,3,1,61003d8e60e719291869b354,61036a8478938179e74f5788,2021-07-29_22h00.43.525,Simcolourproject_2stim_asymm_v5,2020.2.10,Win32,60,61025ae37ef11b136ea224fe,,,,,,,,,,,,,,,,,,,,,,,,,,,,,,,,,,,,,,,,,,,,,,
,,,,,,,,,,,,147,PF,-118,-50,1,0,0,response5disk_5,2,1.3629,-7,-14,1,0,0,rectangle_8,-112,50,1,0,0,-12,-3,1,0,0,0,4,4,6,1,61003d8e60e719291869b354,61036a8478938179e74f5788,2021-07-29_22h00.43.525,Simcolourproject_2stim_asymm_v5,2020.2.10,Win32,60,61025ae37ef11b136ea224fe,response7disk_7,1,1.5211,1,"[2,5]",rectangle_4,,,,,,,,,,,,,,,,,,,,,,,,,,,,,,,,,,,,,,,,
,,,,,,,,,,,,24,FF,47,142,1,0,0,response1disk_5,7,1.5009,-7,7,1,0,0,rectangle_8,-7,7,1,0,0,-7,7,1,0,0,0,5,5,5,1,61003d8e60e719291869b354,61036a8478938179e74f5788,2021-07-29_22h00.43.525,Simcolourproject_2stim_asymm_v5,2020.2.10,Win32,60,61025ae37ef11b136ea224fe,,,,,,,,,,,,,,,,,,,,,,,,,,,,,,,,,,,,,,,,,,,,,,
,,,,,,,,,,,,107,FF,-115,-61,1,0,0,response5disk_5,2,1.7225,0,0,1,0,0,rectangle_8,0,0,1,0,0,0,0,1,0,0,0,6,6,0,1,61003d8e60e719291869b354,61036a8478938179e74f5788,2021-07-29_22h00.43.525,Simcolourproject_2stim_asymm_v5,2020.2.10,Win32,60,61025ae37ef11b136ea224fe,,,,,,,,,,,,,,,,,,,,,,,,,,,,,,,,,,,,,,,,,,,,,,
,,,,,,,,,,,,,FF,,,,,,,,2.0689,,,,,,,,,,,,,,,,,,,,,,61003d8e60e719291869b354,61036a8478938179e74f5788,2021-07-29_22h00.43.525,Simcolourproject_2stim_asymm_v5,2020.2.10,Win32,60,61025ae37ef11b136ea224fe,,,,,,,space,2.8692,2901,-103,-43,1,0,0,response5disk,,2,-11,-1,1,0,0,rectangle,-11,-1,1,0,0,-11,-1,1,0,0,0,0,0,147,1,,,,,,,,
,,,,,,,,,,,,,FF,,,,,,,,1.7226,,,,,,,,,,,,,,,,,,,,,,61003d8e60e719291869b354,61036a8478938179e74f5788,2021-07-29_22h00.43.525,Simcolourproject_2stim_asymm_v5,2020.2.10,Win32,60,61025ae37ef11b136ea224fe,,,,,,,,,316,-52,114,1,0,0,response7disk,,0,-2,-4,1,0,0,rectangle,-2,-4,1,0,0,-2,-4,1,0,0,0,1,1,62,1,,,,,,,,
,,,,,,,,,,,,,FF,,,,,,,,0.8752,,,,,,,,,,,,,,,,,,,,,,61003d8e60e719291869b354,61036a8478938179e74f5788,2021-07-29_22h00.43.525,Simcolourproject_2stim_asymm_v5,2020.2.10,Win32,60,61025ae37ef11b136ea224fe,,,,,,,,,3280,-73,106,1,0,0,response7disk,,0,-14,5,1,0,0,rectangle,-14,5,1,0,0,-14,5,1,0,0,0,2,2,71,1,,,,,,,,
,,,,,,,,,,,,,FF,,,,,,,,3.463,,,,,,,,,,,,,,,,,,,,,,61003d8e60e719291869b354,61036a8478938179e74f5788,2021-07-29_22h00.43.525,Simcolourproject_2stim_asymm_v5,2020.2.10,Win32,60,61025ae37ef11b136ea224fe,,,,,,,,,2949,-47,116,1,0,0,response7disk,,0,-2,6,1,0,0,rectangle,-2,6,1,0,0,-2,6,1,0,0,0,3,3,68,1,,,,,,,,
,,,,,,,,,,,,,FF,,,,,,,,0.8401,,,,,,,,,,,,,,,,,,,,,,61003d8e60e719291869b354,61036a8478938179e74f5788,2021-07-29_22h00.43.525,Simcolourproject_2stim_asymm_v5,2020.2.10,Win32,60,61025ae37ef11b136ea224fe,,,,,,,,,4311,-56,98,1,0,0,response7disk,,0,-6,-2,1,0,0,rectangle,-6,-2,1,0,0,-6,-2,1,0,0,0,4,4,111,1,,,,,,,,
,,,,,,,,,,,,,FF,,,,,,,,1.7015,,,,,,,,,,,,,,,,,,,,,,61003d8e60e719291869b354,61036a8478938179e74f5788,2021-07-29_22h00.43.525,Simcolourproject_2stim_asymm_v5,2020.2.10,Win32,60,61025ae37ef11b136ea224fe,,,,,,,,,1039,-129,41,1,0,0,response7disk,,1,-13,-3,1,0,0,rectangle,-13,-3,1,0,0,-13,-3,1,0,0,0,5,5,55,1,,,,,,,,
,,,,,,,,,,,,,FF,,,,,,,,3.7078,,,,,,,,,,,,,,,,,,,,,,61003d8e60e719291869b354,61036a8478938179e74f5788,2021-07-29_22h00.43.525,Simcolourproject_2stim_asymm_v5,2020.2.10,Win32,60,61025ae37ef11b136ea224fe,,,,,,,,,719,112,-63,1,0,0,response3disk,,5,-5,10,1,0,0,rectangle,-5,10,1,0,0,-5,10,1,0,0,0,6,6,83,1,,,,,,,,
,,,,,,,,,,,,,FF,,,,,,,,1.4857,,,,,,,,,,,,,,,,,,,,,,61003d8e60e719291869b354,61036a8478938179e74f5788,2021-07-29_22h00.43.525,Simcolourproject_2stim_asymm_v5,2020.2.10,Win32,60,61025ae37ef11b136ea224fe,,,,,,,,,2679,-112,-51,1,0,0,response5disk,,2,-15,-3,1,0,0,rectangle,-15,-3,1,0,0,-15,-3,1,0,0,0,7,7,8,1,,,,,,,,
,,,,,,,,,,,,,FF,,,,,,,,0.687,,,,,,,,,,,,,,,,,,,,,,61003d8e60e719291869b354,61036a8478938179e74f5788,2021-07-29_22h00.43.525,Simcolourproject_2stim_asymm_v5,2020.2.10,Win32,60,61025ae37ef11b136ea224fe,,,,,,,,,1426,-37,127,1,0,0,response7disk,,0,-4,3,1,0,0,rectangle,-4,3,1,0,0,-4,3,1,0,0,0,8,8,84,1,,,,,,,,
,,,,,,,,,,,,,FF,,,,,,,,0.5343,,,,,,,,,,,,,,,,,,,,,,61003d8e60e719291869b354,61036a8478938179e74f5788,2021-07-29_22h00.43.525,Simcolourproject_2stim_asymm_v5,2020.2.10,Win32,60,61025ae37ef11b136ea224fe,,,,,,,,,4173,-43,103,1,0,0,response7disk,,0,-6,-4,1,0,0,rectangle,-6,-4,1,0,0,-6,-4,1,0,0,0,9,9,99,1,,,,,,,,
,,,,,,,,,,,,,FF,,,,,,,,7.8132,,,,,,,,,,,,,,,,,,,,,,61003d8e60e719291869b354,61036a8478938179e74f5788,2021-07-29_22h00.43.525,Simcolourproject_2stim_asymm_v5,2020.2.10,Win32,60,61025ae37ef11b136ea224fe,,,,,,,,,913,-43,122,1,0,0,response7disk,,0,-10,1,1,0,0,rectangle,-10,1,1,0,0,-10,1,1,0,0,0,10,10,81,1,,,,,,,,
,,,,,,,,,,,,,FF,,,,,,,,1.1427,,,,,,,,,,,,,,,,,,,,,,61003d8e60e719291869b354,61036a8478938179e74f5788,2021-07-29_22h00.43.525,Simcolourproject_2stim_asymm_v5,2020.2.10,Win32,60,61025ae37ef11b136ea224fe,,,,,,,,,4306,125,62,1,0,0,response1disk,,6,-6,12,1,0,0,rectangle,-6,12,1,0,0,-6,12,1,0,0,0,11,11,108,1,,,,,,,,
,,,,,,,,,,,,,FF,,,,,,,,1.1574,,,,,,,,,,,,,,,,,,,,,,61003d8e60e719291869b354,61036a8478938179e74f5788,2021-07-29_22h00.43.525,Simcolourproject_2stim_asymm_v5,2020.2.10,Win32,60,61025ae37ef11b136ea224fe,,,,,,,,,1955,-51,130,1,0,0,response7disk,,0,-12,11,1,0,0,rectangle,-98,-50,1,0,0,1,12,1,0,0,0,12,12,109,1,,response5disk_3,TRUE,2,2,"[321,13,35,151,24,224,304,227,94,30,146,50,207,200,47,265,67,51,216,301]",2.0514,rectangle
,,,,,,,,,,,,,FF,,,,,,,,0.8333,,,,,,,,,,,,,,,,,,,,,,61003d8e60e719291869b354,61036a8478938179e74f5788,2021-07-29_22h00.43.525,Simcolourproject_2stim_asymm_v5,2020.2.10,Win32,60,61025ae37ef11b136ea224fe,,,,,,,,,132,-60,127,1,0,0,response7disk,,0,-9,-12,1,0,0,rectangle,-9,-12,1,0,0,-9,-12,1,0,0,0,13,13,26,1,,,,,,,,
,,,,,,,,,,,,,FF,,,,,,,,1.2848,,,,,,,,,,,,,,,,,,,,,,61003d8e60e719291869b354,61036a8478938179e74f5788,2021-07-29_22h00.43.525,Simcolourproject_2stim_asymm_v5,2020.2.10,Win32,60,61025ae37ef11b136ea224fe,,,,,,,,,4254,-77,-139,1,0,0,response5disk,,3,-3,1,1,0,0,rectangle,-3,1,1,0,0,-3,1,1,0,0,0,14,14,61,1,,,,,,,,
,,,,,,,,,,,,,FF,,,,,,,,0.6874,,,,,,,,,,,,,,,,,,,,,,61003d8e60e719291869b354,61036a8478938179e74f5788,2021-07-29_22h00.43.525,Simcolourproject_2stim_asymm_v5,2020.2.10,Win32,60,61025ae37ef11b136ea224fe,,,,,,,,,2499,-62,129,1,0,0,response7disk,,0,9,7,1,0,0,rectangle,9,7,1,0,0,9,7,1,0,0,0,15,15,159,1,,,,,,,,
,,,,,,,,,,,,,FF,,,,,,,,0.6816,,,,,,,,,,,,,,,,,,,,,,61003d8e60e719291869b354,61036a8478938179e74f5788,2021-07-29_22h00.43.525,Simcolourproject_2stim_asymm_v5,2020.2.10,Win32,60,61025ae37ef11b136ea224fe,,,,,,,,,4280,78,146,1,0,0,response1disk,,7,8,-4,1,0,0,rectangle,8,-4,1,0,0,8,-4,1,0,0,0,16,16,6,1,,,,,,,,
,,,,,,,,,,,,,FF,,,,,,,,0.9653,,,,,,,,,,,,,,,,,,,,,,61003d8e60e719291869b354,61036a8478938179e74f5788,2021-07-29_22h00.43.525,Simcolourproject_2stim_asymm_v5,2020.2.10,Win32,60,61025ae37ef11b136ea224fe,,,,,,,,,1769,-114,43,1,0,0,response7disk,,1,6,-4,1,0,0,rectangle,6,-4,1,0,0,6,-4,1,0,0,0,17,17,2,1,,,,,,,,
,,,,,,,,,,,,,FF,,,,,,,,0.916,,,,,,,,,,,,,,,,,,,,,,61003d8e60e719291869b354,61036a8478938179e74f5788,2021-07-29_22h00.43.525,Simcolourproject_2stim_asymm_v5,2020.2.10,Win32,60,61025ae37ef11b136ea224fe,,,,,,,,,3399,63,-82,1,0,0,response3disk,,4,-6,-7,1,0,0,rectangle,-6,-7,1,0,0,-6,-7,1,0,0,0,18,18,121,1,,,,,,,,
,,,,,,,,,,,,,FF,,,,,,,,0.6804,,,,,,,,,,,,,,,,,,,,,,61003d8e60e719291869b354,61036a8478938179e74f5788,2021-07-29_22h00.43.525,Simcolourproject_2stim_asymm_v5,2020.2.10,Win32,60,61025ae37ef11b136ea224fe,,,,,,,,,2407,-72,119,1,0,0,response7disk,,0,2,-1,1,0,0,rectangle,2,-1,1,0,0,2,-1,1,0,0,0,19,19,141,1,,,,,,,,
,,,,,,,,,,,,,FF,,,,,,,,2.1598,,,,,,,,,,,,,,,,,,,,,,61003d8e60e719291869b354,61036a8478938179e74f5788,2021-07-29_22h00.43.525,Simcolourproject_2stim_asymm_v5,2020.2.10,Win32,60,61025ae37ef11b136ea224fe,,,,,,,,,2942,60,-111,1,0,0,response3disk,,4,0,12,1,0,0,rectangle,0,12,1,0,0,0,12,1,0,0,0,20,20,46,1,,,,,,,,
,,,,,,,,,,,,,FF,,,,,,,,1.2639,,,,,,,,,,,,,,,,,,,,,,61003d8e60e719291869b354,61036a8478938179e74f5788,2021-07-29_22h00.43.525,Simcolourproject_2stim_asymm_v5,2020.2.10,Win32,60,61025ae37ef11b136ea224fe,,,,,,,,,2477,-36,97,1,0,0,response7disk,,0,16,14,1,0,0,rectangle,16,14,1,0,0,16,14,1,0,0,0,21,21,32,1,,,,,,,,
,,,,,,,,,,,,,FF,,,,,,,,1.5082,,,,,,,,,,,,,,,,,,,,,,61003d8e60e719291869b354,61036a8478938179e74f5788,2021-07-29_22h00.43.525,Simcolourproject_2stim_asymm_v5,2020.2.10,Win32,60,61025ae37ef11b136ea224fe,,,,,,,,,1274,-62,112,1,0,0,response7disk,,0,2,-3,1,0,0,rectangle,2,-3,1,0,0,2,-3,1,0,0,0,22,22,35,1,,,,,,,,
,,,,,,,,,,,,,FF,,,,,,,,0.4584,,,,,,,,,,,,,,,,,,,,,,61003d8e60e719291869b354,61036a8478938179e74f5788,2021-07-29_22h00.43.525,Simcolourproject_2stim_asymm_v5,2020.2.10,Win32,60,61025ae37ef11b136ea224fe,,,,,,,,,1044,-54,149,1,0,0,response7disk,,0,-13,16,1,0,0,rectangle,45,119,1,0,0,22,1,1,0,0,0,23,23,45,1,,response1disk_3,TRUE,7,7,"[321,13,35,151,24,224,304,227,94,30,146,50,207,200,47,265,67,51,216,301]",1.6042,rectangle
,,,,,,,,,,,,,FF,,,,,,,,1.1391,,,,,,,,,,,,,,,,,,,,,,61003d8e60e719291869b354,61036a8478938179e74f5788,2021-07-29_22h00.43.525,Simcolourproject_2stim_asymm_v5,2020.2.10,Win32,60,61025ae37ef11b136ea224fe,,,,,,,,,2718,49,109,1,0,0,response1disk,,7,-18,2,1,0,0,rectangle,-18,2,1,0,0,-18,2,1,0,0,0,24,24,79,1,,,,,,,,
,,,,,,,,,,,,,FF,,,,,,,,19.5021,,,,,,,,,,,,,,,,,,,,,,61003d8e60e719291869b354,61036a8478938179e74f5788,2021-07-29_22h00.43.525,Simcolourproject_2stim_asymm_v5,2020.2.10,Win32,60,61025ae37ef11b136ea224fe,,,,,,,,,4063,99,119,1,0,0,response1disk,,7,7,17,1,0,0,rectangle,7,17,1,0,0,7,17,1,0,0,0,25,25,125,1,,,,,,,,
,,,,,,,,,,,,,FF,,,,,,,,1.1122,,,,,,,,,,,,,,,,,,,,,,61003d8e60e719291869b354,61036a8478938179e74f5788,2021-07-29_22h00.43.525,Simcolourproject_2stim_asymm_v5,2020.2.10,Win32,60,61025ae37ef11b136ea224fe,,,,,,,,,3949,-42,129,1,0,0,response7disk,,0,-9,0,1,0,0,rectangle,-9,0,1,0,0,-9,0,1,0,0,0,26,26,115,1,,,,,,,,
,,,,,,,,,,,,,FF,,,,,,,,0.5344,,,,,,,,,,,,,,,,,,,,,,61003d8e60e719291869b354,61036a8478938179e74f5788,2021-07-29_22h00.43.525,Simcolourproject_2stim_asymm_v5,2020.2.10,Win32,60,61025ae37ef11b136ea224fe,,,,,,,,,1704,-63,93,1,0,0,response7disk,,0,4,-16,1,0,0,rectangle,4,-16,1,0,0,4,-16,1,0,0,0,27,27,15,1,,,,,,,,
,,,,,,,,,,,,,FF,,,,,,,,1.0142,,,,,,,,,,,,,,,,,,,,,,61003d8e60e719291869b354,61036a8478938179e74f5788,2021-07-29_22h00.43.525,Simcolourproject_2stim_asymm_v5,2020.2.10,Win32,60,61025ae37ef11b136ea224fe,,,,,,,,,4221,-27,65,1,0,0,response7disk,,0,7,-1,1,0,0,rectangle,7,-1,1,0,0,7,-1,1,0,0,0,28,28,1,1,,,,,,,,
,,,,,,,,,,,,,FF,,,,,,,,0.4485,,,,,,,,,,,,,,,,,,,,,,61003d8e60e719291869b354,61036a8478938179e74f5788,2021-07-29_22h00.43.525,Simcolourproject_2stim_asymm_v5,2020.2.10,Win32,60,61025ae37ef11b136ea224fe,,,,,,,,,1627,-44,80,1,0,0,response7disk,,0,2,-17,1,0,0,rectangle,42,103,1,0,0,-6,-12,1,0,0,0,29,29,0,1,,response1disk_3,TRUE,7,7,"[321,13,35,151,24,224,304,227,94,30,146,50,207,200,47,265,67,51,216,301]",1.0961,rectangle
,,,,,,,,,,,,,FF,,,,,,,,0.5697,,,,,,,,,,,,,,,,,,,,,,61003d8e60e719291869b354,61036a8478938179e74f5788,2021-07-29_22h00.43.525,Simcolourproject_2stim_asymm_v5,2020.2.10,Win32,60,61025ae37ef11b136ea224fe,,,,,,,,,2801,-37,93,1,0,0,response7disk,,0,19,-7,1,0,0,rectangle,19,-7,1,0,0,19,-7,1,0,0,0,30,30,103,1,,,,,,,,
,,,,,,,,,,,,,FF,,,,,,,,0.4859,,,,,,,,,,,,,,,,,,,,,,61003d8e60e719291869b354,61036a8478938179e74f5788,2021-07-29_22h00.43.525,Simcolourproject_2stim_asymm_v5,2020.2.10,Win32,60,61025ae37ef11b136ea224fe,,,,,,,,,3855,-36,85,1,0,0,response7disk,,0,4,-2,1,0,0,rectangle,4,-2,1,0,0,4,-2,1,0,0,0,31,31,157,1,,,,,,,,
,,,,,,,,,,,,,FF,,,,,,,,1.6597,,,,,,,,,,,,,,,,,,,,,,61003d8e60e719291869b354,61036a8478938179e74f5788,2021-07-29_22h00.43.525,Simcolourproject_2stim_asymm_v5,2020.2.10,Win32,60,61025ae37ef11b136ea224fe,,,,,,,,,1758,-129,52,1,0,0,response7disk,,1,-10,-2,1,0,0,rectangle,-10,-2,1,0,0,-10,-2,1,0,0,0,32,32,138,1,,,,,,,,
,,,,,,,,,,,,,FF,,,,,,,,0.6119,,,,,,,,,,,,,,,,,,,,,,61003d8e60e719291869b354,61036a8478938179e74f5788,2021-07-29_22h00.43.525,Simcolourproject_2stim_asymm_v5,2020.2.10,Win32,60,61025ae37ef11b136ea224fe,,,,,,,,,818,-37,105,1,0,0,response7disk,,0,-5,10,1,0,0,rectangle,-5,10,1,0,0,-5,10,1,0,0,0,33,33,152,1,,,,,,,,
,,,,,,,,,,,,,FF,,,,,,,,0.5209,,,,,,,,,,,,,,,,,,,,,,61003d8e60e719291869b354,61036a8478938179e74f5788,2021-07-29_22h00.43.525,Simcolourproject_2stim_asymm_v5,2020.2.10,Win32,60,61025ae37ef11b136ea224fe,,,,,,,,,2009,-27,118,1,0,0,response7disk,,0,13,-15,1,0,0,rectangle,136,73,1,0,0,-3,-2,1,0,0,0,34,34,120,1,,response1disk_3,TRUE,6,6,"[321,13,35,151,24,224,304,227,94,30,146,50,207,200,47,265,67,51,216,301]",1.4714,rectangle
,,,,,,,,,,,,,FF,,,,,,,,0.5963,,,,,,,,,,,,,,,,,,,,,,61003d8e60e719291869b354,61036a8478938179e74f5788,2021-07-29_22h00.43.525,Simcolourproject_2stim_asymm_v5,2020.2.10,Win32,60,61025ae37ef11b136ea224fe,,,,,,,,,2699,-74,143,1,0,0,response7disk,,0,-25,1,1,0,0,rectangle,-25,1,1,0,0,-25,1,1,0,0,0,35,35,90,1,,,,,,,,
,,,,,,,,,,,,,FF,,,,,,,,0.6111,,,,,,,,,,,,,,,,,,,,,,61003d8e60e719291869b354,61036a8478938179e74f5788,2021-07-29_22h00.43.525,Simcolourproject_2stim_asymm_v5,2020.2.10,Win32,60,61025ae37ef11b136ea224fe,,,,,,,,,2355,55,118,1,0,0,response1disk,,7,1,2,1,0,0,rectangle,1,2,1,0,0,1,2,1,0,0,0,36,36,122,1,,,,,,,,
,,,,,,,,,,,,,FF,,,,,,,,0.5068,,,,,,,,,,,,,,,,,,,,,,61003d8e60e719291869b354,61036a8478938179e74f5788,2021-07-29_22h00.43.525,Simcolourproject_2stim_asymm_v5,2020.2.10,Win32,60,61025ae37ef11b136ea224fe,,,,,,,,,166,-38,92,1,0,0,response7disk,,0,-11,-5,1,0,0,rectangle,-11,-5,1,0,0,-11,-5,1,0,0,0,37,37,53,1,,,,,,,,
,,,,,,,,,,,,,FF,,,,,,,,1.7682,,,,,,,,,,,,,,,,,,,,,,61003d8e60e719291869b354,61036a8478938179e74f5788,2021-07-29_22h00.43.525,Simcolourproject_2stim_asymm_v5,2020.2.10,Win32,60,61025ae37ef11b136ea224fe,,,,,,,,,3420,-29,-104,1,0,0,response5disk,,3,11,-17,1,0,0,rectangle,11,-17,1,0,0,11,-17,1,0,0,0,38,38,49,1,,,,,,,,
,,,,,,,,,,,,,FF,,,,,,,,1.0766,,,,,,,,,,,,,,,,,,,,,,61003d8e60e719291869b354,61036a8478938179e74f5788,2021-07-29_22h00.43.525,Simcolourproject_2stim_asymm_v5,2020.2.10,Win32,60,61025ae37ef11b136ea224fe,,,,,,,,,3521,-37,81,1,0,0,response7disk,,0,7,-13,1,0,0,rectangle,7,-13,1,0,0,7,-13,1,0,0,0,39,39,153,1,,,,,,,,
,,,,,,,,,,,,,FF,,,,,,,,0.5972,,,,,,,,,,,,,,,,,,,,,,61003d8e60e719291869b354,61036a8478938179e74f5788,2021-07-29_22h00.43.525,Simcolourproject_2stim_asymm_v5,2020.2.10,Win32,60,61025ae37ef11b136ea224fe,,,,,,,,,1105,-44,109,1,0,0,response7disk,,0,-6,10,1,0,0,rectangle,-6,10,1,0,0,-6,10,1,0,0,0,40,40,73,1,,,,,,,,
,,,,,,,,,,,,,FF,,,,,,,,0.4933,,,,,,,,,,,,,,,,,,,,,,61003d8e60e719291869b354,61036a8478938179e74f5788,2021-07-29_22h00.43.525,Simcolourproject_2stim_asymm_v5,2020.2.10,Win32,60,61025ae37ef11b136ea224fe,,,,,,,,,3497,-47,94,1,0,0,response7disk,,0,21,-8,1,0,0,rectangle,21,-8,1,0,0,21,-8,1,0,0,0,41,41,36,1,,,,,,,,
,,,,,,,,,,,,,FF,,,,,,,,0.4166,,,,,,,,,,,,,,,,,,,,,,61003d8e60e719291869b354,61036a8478938179e74f5788,2021-07-29_22h00.43.525,Simcolourproject_2stim_asymm_v5,2020.2.10,Win32,60,61025ae37ef11b136ea224fe,,,,,,,,,1505,-37,89,1,0,0,response7disk,,0,5,-10,1,0,0,rectangle,5,-10,1,0,0,5,-10,1,0,0,0,42,42,101,1,,,,,,,,
,,,,,,,,,,,,,FF,,,,,,,,2.1532,,,,,,,,,,,,,,,,,,,,,,61003d8e60e719291869b354,61036a8478938179e74f5788,2021-07-29_22h00.43.525,Simcolourproject_2stim_asymm_v5,2020.2.10,Win32,60,61025ae37ef11b136ea224fe,,,,,,,,,727,-51,117,1,0,0,response7disk,,0,-34,7,1,0,0,rectangle,-34,7,1,0,0,-34,7,1,0,0,0,43,43,145,1,,,,,,,,
,,,,,,,,,,,,,FF,,,,,,,,0.5,,,,,,,,,,,,,,,,,,,,,,61003d8e60e719291869b354,61036a8478938179e74f5788,2021-07-29_22h00.43.525,Simcolourproject_2stim_asymm_v5,2020.2.10,Win32,60,61025ae37ef11b136ea224fe,,,,,,,,,2430,-41,78,1,0,0,response7disk,,0,3,-5,1,0,0,rectangle,3,-5,1,0,0,3,-5,1,0,0,0,44,44,21,1,,,,,,,,
,,,,,,,,,,,,,FF,,,,,,,,0.4665,,,,,,,,,,,,,,,,,,,,,,61003d8e60e719291869b354,61036a8478938179e74f5788,2021-07-29_22h00.43.525,Simcolourproject_2stim_asymm_v5,2020.2.10,Win32,60,61025ae37ef11b136ea224fe,,,,,,,,,1694,-22,64,1,0,0,response7disk,,0,-2,-17,1,0,0,rectangle,-2,-17,1,0,0,-2,-17,1,0,0,0,45,45,40,1,,,,,,,,
,,,,,,,,,,,,,FF,,,,,,,,0.4793,,,,,,,,,,,,,,,,,,,,,,61003d8e60e719291869b354,61036a8478938179e74f5788,2021-07-29_22h00.43.525,Simcolourproject_2stim_asymm_v5,2020.2.10,Win32,60,61025ae37ef11b136ea224fe,,,,,,,,,1701,-25,55,1,0,0,response7disk,,0,-11,-1,1,0,0,rectangle,47,80,1,0,0,-1,-8,1,0,0,0,46,46,112,1,,response1disk_3,TRUE,7,7,"[321,13,35,151,24,224,304,227,94,30,146,50,207,200,47,265,67,51,216,301]",1.0606,rectangle
,,,,,,,,,,,,,FF,,,,,,,,1.1807,,,,,,,,,,,,,,,,,,,,,,61003d8e60e719291869b354,61036a8478938179e74f5788,2021-07-29_22h00.43.525,Simcolourproject_2stim_asymm_v5,2020.2.10,Win32,60,61025ae37ef11b136ea224fe,,,,,,,,,3937,37,-119,1,0,0,response3disk,,4,-21,-1,1,0,0,rectangle,-21,-1,1,0,0,-21,-1,1,0,0,0,47,47,97,1,,,,,,,,
,,,,,,,,,,,,,FF,,,,,,,,0.632,,,,,,,,,,,,,,,,,,,,,,61003d8e60e719291869b354,61036a8478938179e74f5788,2021-07-29_22h00.43.525,Simcolourproject_2stim_asymm_v5,2020.2.10,Win32,60,61025ae37ef11b136ea224fe,,,,,,,,,847,-34,99,1,0,0,response7disk,,0,-9,-7,1,0,0,rectangle,-9,-7,1,0,0,-9,-7,1,0,0,0,48,48,137,1,,,,,,,,
,,,,,,,,,,,,,FF,,,,,,,,0.882,,,,,,,,,,,,,,,,,,,,,,61003d8e60e719291869b354,61036a8478938179e74f5788,2021-07-29_22h00.43.525,Simcolourproject_2stim_asymm_v5,2020.2.10,Win32,60,61025ae37ef11b136ea224fe,,,,,,,,,1481,-45,92,1,0,0,response7disk,,0,-13,-6,1,0,0,rectangle,-121,-49,1,0,0,-8,-14,1,0,0,0,49,49,19,1,,response5disk_3,TRUE,2,2,"[321,13,35,151,24,224,304,227,94,30,146,50,207,200,47,265,67,51,216,301]",1.6531,rectangle
,,,,,,,,,,,,,FF,,,,,,,,2.8893,,,,,,,,,,,,,,,,,,,,,,61003d8e60e719291869b354,61036a8478938179e74f5788,2021-07-29_22h00.43.525,Simcolourproject_2stim_asymm_v5,2020.2.10,Win32,60,61025ae37ef11b136ea224fe,,,,,,,,,4082,-45,76,1,0,0,response7disk,,0,13,3,1,0,0,rectangle,91,-58,1,0,0,-1,-3,1,0,0,0,50,50,77,1,,response3disk_3,TRUE,5,5,"[321,13,35,151,24,224,304,227,94,30,146,50,207,200,47,265,67,51,216,301]",1.625,rectangle
,,,,,,,,,,,,,FF,,,,,,,,0.8823,,,,,,,,,,,,,,,,,,,,,,61003d8e60e719291869b354,61036a8478938179e74f5788,2021-07-29_22h00.43.525,Simcolourproject_2stim_asymm_v5,2020.2.10,Win32,60,61025ae37ef11b136ea224fe,,,,,,,,,3865,-36,90,1,0,0,response7disk,,0,-22,-5,1,0,0,rectangle,-22,-5,1,0,0,-22,-5,1,0,0,0,51,51,29,1,,,,,,,,
,,,,,,,,,,,,,FF,,,,,,,,0.5276,,,,,,,,,,,,,,,,,,,,,,61003d8e60e719291869b354,61036a8478938179e74f5788,2021-07-29_22h00.43.525,Simcolourproject_2stim_asymm_v5,2020.2.10,Win32,60,61025ae37ef11b136ea224fe,,,,,,,,,1263,-46,85,1,0,0,response7disk,,0,-19,3,1,0,0,rectangle,-19,3,1,0,0,-19,3,1,0,0,0,52,52,33,1,,,,,,,,
,,,,,,,,,,,,,FF,,,,,,,,0.6876,,,,,,,,,,,,,,,,,,,,,,61003d8e60e719291869b354,61036a8478938179e74f5788,2021-07-29_22h00.43.525,Simcolourproject_2stim_asymm_v5,2020.2.10,Win32,60,61025ae37ef11b136ea224fe,,,,,,,,,4195,-67,100,1,0,0,response7disk,,0,-10,-4,1,0,0,rectangle,-10,-4,1,0,0,-10,-4,1,0,0,0,53,53,22,1,,,,,,,,
,,,,,,,,,,,,,FF,,,,,,,,0.479,,,,,,,,,,,,,,,,,,,,,,61003d8e60e719291869b354,61036a8478938179e74f5788,2021-07-29_22h00.43.525,Simcolourproject_2stim_asymm_v5,2020.2.10,Win32,60,61025ae37ef11b136ea224fe,,,,,,,,,403,-51,96,1,0,0,response7disk,,0,-17,3,1,0,0,rectangle,-17,3,1,0,0,-17,3,1,0,0,0,54,54,10,1,,,,,,,,
,,,,,,,,,,,,,FF,,,,,,,,0.4098,,,,,,,,,,,,,,,,,,,,,,61003d8e60e719291869b354,61036a8478938179e74f5788,2021-07-29_22h00.43.525,Simcolourproject_2stim_asymm_v5,2020.2.10,Win32,60,61025ae37ef11b136ea224fe,,,,,,,,,1275,-37,74,1,0,0,response7disk,,0,-19,5,1,0,0,rectangle,-19,5,1,0,0,-19,5,1,0,0,0,55,55,124,1,,,,,,,,
,,,,,,,,,,,,,FF,,,,,,,,1.5,,,,,,,,,,,,,,,,,,,,,,61003d8e60e719291869b354,61036a8478938179e74f5788,2021-07-29_22h00.43.525,Simcolourproject_2stim_asymm_v5,2020.2.10,Win32,60,61025ae37ef11b136ea224fe,,,,,,,,,546,71,-138,1,0,0,response3disk,,4,9,-11,1,0,0,rectangle,9,-11,1,0,0,9,-11,1,0,0,0,56,56,27,1,,,,,,,,
,,,,,,,,,,,,,FF,,,,,,,,0.771,,,,,,,,,,,,,,,,,,,,,,61003d8e60e719291869b354,61036a8478938179e74f5788,2021-07-29_22h00.43.525,Simcolourproject_2stim_asymm_v5,2020.2.10,Win32,60,61025ae37ef11b136ea224fe,,,,,,,,,1494,-44,82,1,0,0,response7disk,,0,3,10,1,0,0,rectangle,3,10,1,0,0,3,10,1,0,0,0,57,57,12,1,,,,,,,,
,,,,,,,,,,,,,FF,,,,,,,,0.4966,,,,,,,,,,,,,,,,,,,,,,61003d8e60e719291869b354,61036a8478938179e74f5788,2021-07-29_22h00.43.525,Simcolourproject_2stim_asymm_v5,2020.2.10,Win32,60,61025ae37ef11b136ea224fe,,,,,,,,,1786,-39,125,1,0,0,response7disk,,0,4,-6,1,0,0,rectangle,4,-6,1,0,0,4,-6,1,0,0,0,58,58,140,1,,,,,,,,
,,,,,,,,,,,,,FF,,,,,,,,0.535,,,,,,,,,,,,,,,,,,,,,,61003d8e60e719291869b354,61036a8478938179e74f5788,2021-07-29_22h00.43.525,Simcolourproject_2stim_asymm_v5,2020.2.10,Win32,60,61025ae37ef11b136ea224fe,,,,,,,,,50,-30,97,1,0,0,response7disk,,0,11,4,1,0,0,rectangle,11,4,1,0,0,11,4,1,0,0,0,59,59,65,1,,,,,,,,
,,,,,,,,,,,,,FF,,,,,,,,0.4866,,,,,,,,,,,,,,,,,,,,,,61003d8e60e719291869b354,61036a8478938179e74f5788,2021-07-29_22h00.43.525,Simcolourproject_2stim_asymm_v5,2020.2.10,Win32,60,61025ae37ef11b136ea224fe,,,,,,,,,2440,-28,119,1,0,0,response7disk,,0,45,-11,1,0,0,rectangle,45,-11,1,0,0,45,-11,1,0,0,0,60,60,58,1,,,,,,,,
,,,,,,,,,,,,,FF,,,,,,,,0.4442,,,,,,,,,,,,,,,,,,,,,,61003d8e60e719291869b354,61036a8478938179e74f5788,2021-07-29_22h00.43.525,Simcolourproject_2stim_asymm_v5,2020.2.10,Win32,60,61025ae37ef11b136ea224fe,,,,,,,,,708,-52,103,1,0,0,response7disk,,0,-6,2,1,0,0,rectangle,-6,2,1,0,0,-6,2,1,0,0,0,61,61,38,1,,,,,,,,
,,,,,,,,,,,,,FF,,,,,,,,0.4374,,,,,,,,,,,,,,,,,,,,,,61003d8e60e719291869b354,61036a8478938179e74f5788,2021-07-29_22h00.43.525,Simcolourproject_2stim_asymm_v5,2020.2.10,Win32,60,61025ae37ef11b136ea224fe,,,,,,,,,3299,-33,79,1,0,0,response7disk,,0,-2,-8,1,0,0,rectangle,-2,-8,1,0,0,-2,-8,1,0,0,0,62,62,59,1,,,,,,,,
,,,,,,,,,,,,,FF,,,,,,,,0.3961,,,,,,,,,,,,,,,,,,,,,,61003d8e60e719291869b354,61036a8478938179e74f5788,2021-07-29_22h00.43.525,Simcolourproject_2stim_asymm_v5,2020.2.10,Win32,60,61025ae37ef11b136ea224fe,,,,,,,,,397,-39,82,1,0,0,response7disk,,0,-32,14,1,0,0,rectangle,-32,14,1,0,0,-32,14,1,0,0,0,63,63,75,1,,,,,,,,
,,,,,,,,,,,,,FF,,,,,,,,0.4159,,,,,,,,,,,,,,,,,,,,,,61003d8e60e719291869b354,61036a8478938179e74f5788,2021-07-29_22h00.43.525,Simcolourproject_2stim_asymm_v5,2020.2.10,Win32,60,61025ae37ef11b136ea224fe,,,,,,,,,1766,-46,69,1,0,0,response7disk,,0,-12,-11,1,0,0,rectangle,-12,-11,1,0,0,-12,-11,1,0,0,0,64,64,118,1,,,,,,,,
,,,,,,,,,,,,,FF,,,,,,,,0.4304,,,,,,,,,,,,,,,,,,,,,,61003d8e60e719291869b354,61036a8478938179e74f5788,2021-07-29_22h00.43.525,Simcolourproject_2stim_asymm_v5,2020.2.10,Win32,60,61025ae37ef11b136ea224fe,,,,,,,,,3116,-31,96,1,0,0,response7disk,,0,2,5,1,0,0,rectangle,2,5,1,0,0,2,5,1,0,0,0,65,65,129,1,,,,,,,,
,,,,,,,,,,,,,FF,,,,,,,,0.3822,,,,,,,,,,,,,,,,,,,,,,61003d8e60e719291869b354,61036a8478938179e74f5788,2021-07-29_22h00.43.525,Simcolourproject_2stim_asymm_v5,2020.2.10,Win32,60,61025ae37ef11b136ea224fe,,,,,,,,,481,-31,78,1,0,0,response7disk,,0,-6,2,1,0,0,rectangle,-52,119,1,0,0,-26,1,1,0,0,0,66,66,104,1,,response7disk_3,TRUE,0,0,"[321,13,35,151,24,224,304,227,94,30,146,50,207,200,47,265,67,51,216,301]",1.3815,rectangle
,,,,,,,,,,,,,FF,,,,,,,,0.6375,,,,,,,,,,,,,,,,,,,,,,61003d8e60e719291869b354,61036a8478938179e74f5788,2021-07-29_22h00.43.525,Simcolourproject_2stim_asymm_v5,2020.2.10,Win32,60,61025ae37ef11b136ea224fe,,,,,,,,,2474,-35,97,1,0,0,response7disk,,0,-7,-21,1,0,0,rectangle,-7,-21,1,0,0,-7,-21,1,0,0,0,67,67,98,1,,,,,,,,
,,,,,,,,,,,,,FF,,,,,,,,1.0211,,,,,,,,,,,,,,,,,,,,,,61003d8e60e719291869b354,61036a8478938179e74f5788,2021-07-29_22h00.43.525,Simcolourproject_2stim_asymm_v5,2020.2.10,Win32,60,61025ae37ef11b136ea224fe,,,,,,,,,2361,138,59,1,0,0,response1disk,,6,19,8,1,0,0,rectangle,19,8,1,0,0,19,8,1,0,0,0,68,68,92,1,,,,,,,,
,,,,,,,,,,,,,FF,,,,,,,,1.3817,,,,,,,,,,,,,,,,,,,,,,61003d8e60e719291869b354,61036a8478938179e74f5788,2021-07-29_22h00.43.525,Simcolourproject_2stim_asymm_v5,2020.2.10,Win32,60,61025ae37ef11b136ea224fe,,,,,,,,,561,-130,-72,1,0,0,response5disk,,2,-15,12,1,0,0,rectangle,-15,12,1,0,0,-15,12,1,0,0,0,69,69,67,1,,,,,,,,
,,,,,,,,,,,,,FF,,,,,,,,0.5627,,,,,,,,,,,,,,,,,,,,,,61003d8e60e719291869b354,61036a8478938179e74f5788,2021-07-29_22h00.43.525,Simcolourproject_2stim_asymm_v5,2020.2.10,Win32,60,61025ae37ef11b136ea224fe,,,,,,,,,3243,43,109,1,0,0,response1disk,,7,4,10,1,0,0,rectangle,4,10,1,0,0,4,10,1,0,0,0,70,70,20,1,,,,,,,,
,,,,,,,,,,,,,FF,,,,,,,,0.425,,,,,,,,,,,,,,,,,,,,,,61003d8e60e719291869b354,61036a8478938179e74f5788,2021-07-29_22h00.43.525,Simcolourproject_2stim_asymm_v5,2020.2.10,Win32,60,61025ae37ef11b136ea224fe,,,,,,,,,2160,86,107,1,0,0,response1disk,,7,11,6,1,0,0,rectangle,11,6,1,0,0,11,6,1,0,0,0,71,71,91,1,,,,,,,,
,,,,,,,,,,,,,FF,,,,,,,,0.7768,,,,,,,,,,,,,,,,,,,,,,61003d8e60e719291869b354,61036a8478938179e74f5788,2021-07-29_22h00.43.525,Simcolourproject_2stim_asymm_v5,2020.2.10,Win32,60,61025ae37ef11b136ea224fe,,,,,,,,,5,99,49,1,0,0,response1disk,,6,9,-10,1,0,0,rectangle,9,-10,1,0,0,9,-10,1,0,0,0,72,72,150,1,,,,,,,,
,,,,,,,,,,,,,FF,,,,,,,,0.9446,,,,,,,,,,,,,,,,,,,,,,61003d8e60e719291869b354,61036a8478938179e74f5788,2021-07-29_22h00.43.525,Simcolourproject_2stim_asymm_v5,2020.2.10,Win32,60,61025ae37ef11b136ea224fe,,,,,,,,,3663,122,36,1,0,0,response1disk,,6,0,-7,1,0,0,rectangle,0,-7,1,0,0,0,-7,1,0,0,0,73,73,85,1,,,,,,,,
,,,,,,,,,,,,,FF,,,,,,,,0.5904,,,,,,,,,,,,,,,,,,,,,,61003d8e60e719291869b354,61036a8478938179e74f5788,2021-07-29_22h00.43.525,Simcolourproject_2stim_asymm_v5,2020.2.10,Win32,60,61025ae37ef11b136ea224fe,,,,,,,,,445,96,57,1,0,0,response1disk,,6,-15,1,1,0,0,rectangle,-15,1,1,0,0,-15,1,1,0,0,0,74,74,30,1,,,,,,,,
,,,,,,,,,,,,,FF,,,,,,,,1.4862,,,,,,,,,,,,,,,,,,,,,,61003d8e60e719291869b354,61036a8478938179e74f5788,2021-07-29_22h00.43.525,Simcolourproject_2stim_asymm_v5,2020.2.10,Win32,60,61025ae37ef11b136ea224fe,,,,,,,,,3622,54,-84,1,0,0,response3disk,,4,0,0,1,0,0,rectangle,0,0,1,0,0,0,0,1,0,0,0,75,75,149,1,,,,,,,,
,,,,,,,,,,,,,FF,,,,,,,,1.0848,,,,,,,,,,,,,,,,,,,,,,61003d8e60e719291869b354,61036a8478938179e74f5788,2021-07-29_22h00.43.525,Simcolourproject_2stim_asymm_v5,2020.2.10,Win32,60,61025ae37ef11b136ea224fe,,,,,,,,,4106,-42,-103,1,0,0,response5disk,,3,-9,-6,1,0,0,rectangle,-9,-6,1,0,0,-9,-6,1,0,0,0,76,76,113,1,,,,,,,,
,,,,,,,,,,,,,FF,,,,,,,,0.7481,,,,,,,,,,,,,,,,,,,,,,61003d8e60e719291869b354,61036a8478938179e74f5788,2021-07-29_22h00.43.525,Simcolourproject_2stim_asymm_v5,2020.2.10,Win32,60,61025ae37ef11b136ea224fe,,,,,,,,,940,-57,119,1,0,0,response7disk,,0,-10,20,1,0,0,rectangle,-10,20,1,0,0,-10,20,1,0,0,0,77,77,54,1,,,,,,,,
,,,,,,,,,,,,,FF,,,,,,,,0.5414,,,,,,,,,,,,,,,,,,,,,,61003d8e60e719291869b354,61036a8478938179e74f5788,2021-07-29_22h00.43.525,Simcolourproject_2stim_asymm_v5,2020.2.10,Win32,60,61025ae37ef11b136ea224fe,,,,,,,,,3799,-24,98,1,0,0,response7disk,,0,9,-11,1,0,0,rectangle,9,-11,1,0,0,9,-11,1,0,0,0,78,78,94,1,,,,,,,,
,,,,,,,,,,,,,FF,,,,,,,,0.4814,,,,,,,,,,,,,,,,,,,,,,61003d8e60e719291869b354,61036a8478938179e74f5788,2021-07-29_22h00.43.525,Simcolourproject_2stim_asymm_v5,2020.2.10,Win32,60,61025ae37ef11b136ea224fe,,,,,,,,,3181,-59,90,1,0,0,response7disk,,0,1,-3,1,0,0,rectangle,1,-3,1,0,0,1,-3,1,0,0,0,79,79,47,1,,,,,,,,
,,,,,,,,,,,,,FF,,,,,,,,0.3542,,,,,,,,,,,,,,,,,,,,,,61003d8e60e719291869b354,61036a8478938179e74f5788,2021-07-29_22h00.43.525,Simcolourproject_2stim_asymm_v5,2020.2.10,Win32,60,61025ae37ef11b136ea224fe,,,,,,,,,1655,-37,89,1,0,0,response7disk,,0,-6,6,1,0,0,rectangle,-6,6,1,0,0,-6,6,1,0,0,0,80,80,28,1,,,,,,,,
,,,,,,,,,,,,,FF,,,,,,,,0.5495,,,,,,,,,,,,,,,,,,,,,,61003d8e60e719291869b354,61036a8478938179e74f5788,2021-07-29_22h00.43.525,Simcolourproject_2stim_asymm_v5,2020.2.10,Win32,60,61025ae37ef11b136ea224fe,,,,,,,,,3953,-32,79,1,0,0,response7disk,,0,-12,0,1,0,0,rectangle,-12,0,1,0,0,-12,0,1,0,0,0,81,81,78,1,,,,,,,,
,,,,,,,,,,,,,FF,,,,,,,,0.4375,,,,,,,,,,,,,,,,,,,,,,61003d8e60e719291869b354,61036a8478938179e74f5788,2021-07-29_22h00.43.525,Simcolourproject_2stim_asymm_v5,2020.2.10,Win32,60,61025ae37ef11b136ea224fe,,,,,,,,,1187,-62,96,1,0,0,response7disk,,0,-34,8,1,0,0,rectangle,-34,8,1,0,0,-34,8,1,0,0,0,82,82,87,1,,,,,,,,
,,,,,,,,,,,,,FF,,,,,,,,0.8891,,,,,,,,,,,,,,,,,,,,,,61003d8e60e719291869b354,61036a8478938179e74f5788,2021-07-29_22h00.43.525,Simcolourproject_2stim_asymm_v5,2020.2.10,Win32,60,61025ae37ef11b136ea224fe,,,,,,,,,1224,102,44,1,0,0,response1disk,,6,21,2,1,0,0,rectangle,21,2,1,0,0,21,2,1,0,0,0,83,83,95,1,,,,,,,,
,,,,,,,,,,,,,FF,,,,,,,,0.8543,,,,,,,,,,,,,,,,,,,,,,61003d8e60e719291869b354,61036a8478938179e74f5788,2021-07-29_22h00.43.525,Simcolourproject_2stim_asymm_v5,2020.2.10,Win32,60,61025ae37ef11b136ea224fe,,,,,,,,,3265,-34,69,1,0,0,response7disk,,0,-14,-13,1,0,0,rectangle,-14,-13,1,0,0,-14,-13,1,0,0,0,84,84,148,1,,,,,,,,
,,,,,,,,,,,,,FF,,,,,,,,0.7786,,,,,,,,,,,,,,,,,,,,,,61003d8e60e719291869b354,61036a8478938179e74f5788,2021-07-29_22h00.43.525,Simcolourproject_2stim_asymm_v5,2020.2.10,Win32,60,61025ae37ef11b136ea224fe,,,,,,,,,3907,116,58,1,0,0,response1disk,,6,21,6,1,0,0,rectangle,21,6,1,0,0,21,6,1,0,0,0,85,85,3,1,,,,,,,,
,,,,,,,,,,,,,FF,,,,,,,,0.4444,,,,,,,,,,,,,,,,,,,,,,61003d8e60e719291869b354,61036a8478938179e74f5788,2021-07-29_22h00.43.525,Simcolourproject_2stim_asymm_v5,2020.2.10,Win32,60,61025ae37ef11b136ea224fe,,,,,,,,,3975,-34,79,1,0,0,response7disk,,0,-8,6,1,0,0,rectangle,-8,6,1,0,0,-8,6,1,0,0,0,86,86,107,1,,,,,,,,
,,,,,,,,,,,,,FF,,,,,,,,0.4542,,,,,,,,,,,,,,,,,,,,,,61003d8e60e719291869b354,61036a8478938179e74f5788,2021-07-29_22h00.43.525,Simcolourproject_2stim_asymm_v5,2020.2.10,Win32,60,61025ae37ef11b136ea224fe,,,,,,,,,3266,-47,79,1,0,0,response7disk,,0,-10,11,1,0,0,rectangle,-10,11,1,0,0,-10,11,1,0,0,0,87,87,156,1,,,,,,,,
,,,,,,,,,,,,,FF,,,,,,,,1.042,,,,,,,,,,,,,,,,,,,,,,61003d8e60e719291869b354,61036a8478938179e74f5788,2021-07-29_22h00.43.525,Simcolourproject_2stim_asymm_v5,2020.2.10,Win32,60,61025ae37ef11b136ea224fe,,,,,,,,,3501,-54,105,1,0,0,response7disk,,0,-16,13,1,0,0,rectangle,-16,13,1,0,0,-16,13,1,0,0,0,88,88,48,1,,,,,,,,
,,,,,,,,,,,,,FF,,,,,,,,1.8543,,,,,,,,,,,,,,,,,,,,,,61003d8e60e719291869b354,61036a8478938179e74f5788,2021-07-29_22h00.43.525,Simcolourproject_2stim_asymm_v5,2020.2.10,Win32,60,61025ae37ef11b136ea224fe,,,,,,,,,976,-68,-128,1,0,0,response5disk,,3,-7,4,1,0,0,rectangle,-7,4,1,0,0,-7,4,1,0,0,0,89,89,24,1,,,,,,,,
,,,,,,,,,,,,,FF,,,,,,,,0.5488,,,,,,,,,,,,,,,,,,,,,,61003d8e60e719291869b354,61036a8478938179e74f5788,2021-07-29_22h00.43.525,Simcolourproject_2stim_asymm_v5,2020.2.10,Win32,60,61025ae37ef11b136ea224fe,,,,,,,,,604,-49,102,1,0,0,response7disk,,0,-21,0,1,0,0,rectangle,-21,0,1,0,0,-21,0,1,0,0,0,90,90,88,1,,,,,,,,
,,,,,,,,,,,,,FF,,,,,,,,0.9935,,,,,,,,,,,,,,,,,,,,,,61003d8e60e719291869b354,61036a8478938179e74f5788,2021-07-29_22h00.43.525,Simcolourproject_2stim_asymm_v5,2020.2.10,Win32,60,61025ae37ef11b136ea224fe,,,,,,,,,3688,-45,80,1,0,0,response7disk,,0,-8,-6,1,0,0,rectangle,-8,-6,1,0,0,-8,-6,1,0,0,0,91,91,106,1,,,,,,,,
,,,,,,,,,,,,,FF,,,,,,,,1.9725,,,,,,,,,,,,,,,,,,,,,,61003d8e60e719291869b354,61036a8478938179e74f5788,2021-07-29_22h00.43.525,Simcolourproject_2stim_asymm_v5,2020.2.10,Win32,60,61025ae37ef11b136ea224fe,,,,,,,,,1532,-48,-136,1,0,0,response5disk,,3,-8,-2,1,0,0,rectangle,-8,-2,1,0,0,-8,-2,1,0,0,0,92,92,51,1,,,,,,,,
,,,,,,,,,,,,,FF,,,,,,,,0.7638,,,,,,,,,,,,,,,,,,,,,,61003d8e60e719291869b354,61036a8478938179e74f5788,2021-07-29_22h00.43.525,Simcolourproject_2stim_asymm_v5,2020.2.10,Win32,60,61025ae37ef11b136ea224fe,,,,,,,,,2129,-37,88,1,0,0,response7disk,,0,-3,11,1,0,0,rectangle,-63,-142,1,0,0,0,11,1,0,0,0,93,93,50,1,,response5disk_3,TRUE,3,3,"[321,13,35,151,24,224,304,227,94,30,146,50,207,200,47,265,67,51,216,301]",1.868,rectangle
,,,,,,,,,,,,,FF,,,,,,,,1.1596,,,,,,,,,,,,,,,,,,,,,,61003d8e60e719291869b354,61036a8478938179e74f5788,2021-07-29_22h00.43.525,Simcolourproject_2stim_asymm_v5,2020.2.10,Win32,60,61025ae37ef11b136ea224fe,,,,,,,,,3062,-92,41,1,0,0,response7disk,,1,-8,-2,1,0,0,rectangle,-8,-2,1,0,0,-8,-2,1,0,0,0,94,94,11,1,,,,,,,,
,,,,,,,,,,,,,FF,,,,,,,,0.5284,,,,,,,,,,,,,,,,,,,,,,61003d8e60e719291869b354,61036a8478938179e74f5788,2021-07-29_22h00.43.525,Simcolourproject_2stim_asymm_v5,2020.2.10,Win32,60,61025ae37ef11b136ea224fe,,,,,,,,,2982,-37,86,1,0,0,response7disk,,0,-24,16,1,0,0,rectangle,-24,16,1,0,0,-24,16,1,0,0,0,95,95,110,1,,,,,,,,
,,,,,,,,,,,,,FF,,,,,,,,2.3753,,,,,,,,,,,,,,,,,,,,,,61003d8e60e719291869b354,61036a8478938179e74f5788,2021-07-29_22h00.43.525,Simcolourproject_2stim_asymm_v5,2020.2.10,Win32,60,61025ae37ef11b136ea224fe,,,,,,,,,477,-47,97,1,0,0,response7disk,,0,5,0,1,0,0,rectangle,5,0,1,0,0,5,0,1,0,0,0,96,96,52,1,,,,,,,,
,,,,,,,,,,,,,FF,,,,,,,,0.7366,,,,,,,,,,,,,,,,,,,,,,61003d8e60e719291869b354,61036a8478938179e74f5788,2021-07-29_22h00.43.525,Simcolourproject_2stim_asymm_v5,2020.2.10,Win32,60,61025ae37ef11b136ea224fe,,,,,,,,,712,-43,84,1,0,0,response7disk,,0,2,-1,1,0,0,rectangle,2,-1,1,0,0,2,-1,1,0,0,0,97,97,43,1,,,,,,,,
,,,,,,,,,,,,,FF,,,,,,,,0.9824,,,,,,,,,,,,,,,,,,,,,,61003d8e60e719291869b354,61036a8478938179e74f5788,2021-07-29_22h00.43.525,Simcolourproject_2stim_asymm_v5,2020.2.10,Win32,60,61025ae37ef11b136ea224fe,,,,,,,,,2785,-57,-131,1,0,0,response5disk,,3,14,2,1,0,0,rectangle,14,2,1,0,0,14,2,1,0,0,0,98,98,70,1,,,,,,,,
,,,,,,,,,,,,,FF,,,,,,,,0.4792,,,,,,,,,,,,,,,,,,,,,,61003d8e60e719291869b354,61036a8478938179e74f5788,2021-07-29_22h00.43.525,Simcolourproject_2stim_asymm_v5,2020.2.10,Win32,60,61025ae37ef11b136ea224fe,,,,,,,,,1732,-28,61,1,0,0,response7disk,,0,-1,-7,1,0,0,rectangle,-1,-7,1,0,0,-1,-7,1,0,0,0,99,99,89,1,,,,,,,,
,,,,,,,,,,,,,FF,,,,,,,,0.8614,,,,,,,,,,,,,,,,,,,,,,61003d8e60e719291869b354,61036a8478938179e74f5788,2021-07-29_22h00.43.525,Simcolourproject_2stim_asymm_v5,2020.2.10,Win32,60,61025ae37ef11b136ea224fe,,,,,,,,,3851,-52,-103,1,0,0,response5disk,,3,17,5,1,0,0,rectangle,17,5,1,0,0,17,5,1,0,0,0,100,100,123,1,,,,,,,,
,,,,,,,,,,,,,FF,,,,,,,,0.6667,,,,,,,,,,,,,,,,,,,,,,61003d8e60e719291869b354,61036a8478938179e74f5788,2021-07-29_22h00.43.525,Simcolourproject_2stim_asymm_v5,2020.2.10,Win32,60,61025ae37ef11b136ea224fe,,,,,,,,,1036,-52,-70,1,0,0,response5disk,,3,-9,10,1,0,0,rectangle,-9,10,1,0,0,-9,10,1,0,0,0,101,101,117,1,,,,,,,,
,,,,,,,,,,,,,FF,,,,,,,,1.5905,,,,,,,,,,,,,,,,,,,,,,61003d8e60e719291869b354,61036a8478938179e74f5788,2021-07-29_22h00.43.525,Simcolourproject_2stim_asymm_v5,2020.2.10,Win32,60,61025ae37ef11b136ea224fe,,,,,,,,,726,107,-68,1,0,0,response3disk,,5,6,1,1,0,0,rectangle,6,1,1,0,0,6,1,1,0,0,0,102,102,154,1,,,,,,,,
,,,,,,,,,,,,,FF,,,,,,,,0.8426,,,,,,,,,,,,,,,,,,,,,,61003d8e60e719291869b354,61036a8478938179e74f5788,2021-07-29_22h00.43.525,Simcolourproject_2stim_asymm_v5,2020.2.10,Win32,60,61025ae37ef11b136ea224fe,,,,,,,,,1742,-58,109,1,0,0,response7disk,,0,-32,-1,1,0,0,rectangle,-32,-1,1,0,0,-32,-1,1,0,0,0,103,103,5,1,,,,,,,,
,,,,,,,,,,,,,FF,,,,,,,,0.5082,,,,,,,,,,,,,,,,,,,,,,61003d8e60e719291869b354,61036a8478938179e74f5788,2021-07-29_22h00.43.525,Simcolourproject_2stim_asymm_v5,2020.2.10,Win32,60,61025ae37ef11b136ea224fe,,,,,,,,,86,-22,90,1,0,0,response7disk,,0,10,-2,1,0,0,rectangle,10,-2,1,0,0,10,-2,1,0,0,0,104,104,114,1,,,,,,,,
,,,,,,,,,,,,,FF,,,,,,,,0.6529,,,,,,,,,,,,,,,,,,,,,,61003d8e60e719291869b354,61036a8478938179e74f5788,2021-07-29_22h00.43.525,Simcolourproject_2stim_asymm_v5,2020.2.10,Win32,60,61025ae37ef11b136ea224fe,,,,,,,,,3281,-45,74,1,0,0,response7disk,,0,-15,-3,1,0,0,rectangle,-15,-3,1,0,0,-15,-3,1,0,0,0,105,105,72,1,,,,,,,,
,,,,,,,,,,,,,FF,,,,,,,,2.4811,,,,,,,,,,,,,,,,,,,,,,61003d8e60e719291869b354,61036a8478938179e74f5788,2021-07-29_22h00.43.525,Simcolourproject_2stim_asymm_v5,2020.2.10,Win32,60,61025ae37ef11b136ea224fe,,,,,,,,,1822,138,38,1,0,0,response1disk,,6,22,8,1,0,0,rectangle,22,8,1,0,0,22,8,1,0,0,0,106,106,130,1,,,,,,,,
,,,,,,,,,,,,,FF,,,,,,,,1.0276,,,,,,,,,,,,,,,,,,,,,,61003d8e60e719291869b354,61036a8478938179e74f5788,2021-07-29_22h00.43.525,Simcolourproject_2stim_asymm_v5,2020.2.10,Win32,60,61025ae37ef11b136ea224fe,,,,,,,,,1231,54,-139,1,0,0,response3disk,,4,10,-12,1,0,0,rectangle,10,-12,1,0,0,10,-12,1,0,0,0,107,107,139,1,,,,,,,,
,,,,,,,,,,,,,FF,,,,,,,,0.8543,,,,,,,,,,,,,,,,,,,,,,61003d8e60e719291869b354,61036a8478938179e74f5788,2021-07-29_22h00.43.525,Simcolourproject_2stim_asymm_v5,2020.2.10,Win32,60,61025ae37ef11b136ea224fe,,,,,,,,,2659,-47,117,1,0,0,response7disk,,0,-19,2,1,0,0,rectangle,-19,2,1,0,0,-19,2,1,0,0,0,108,108,57,1,,,,,,,,
,,,,,,,,,,,,,FF,,,,,,,,0.8254,,,,,,,,,,,,,,,,,,,,,,61003d8e60e719291869b354,61036a8478938179e74f5788,2021-07-29_22h00.43.525,Simcolourproject_2stim_asymm_v5,2020.2.10,Win32,60,61025ae37ef11b136ea224fe,,,,,,,,,3892,-50,114,1,0,0,response7disk,,0,0,-9,1,0,0,rectangle,0,-9,1,0,0,0,-9,1,0,0,0,109,109,37,1,,,,,,,,
,,,,,,,,,,,,,FF,,,,,,,,0.5143,,,,,,,,,,,,,,,,,,,,,,61003d8e60e719291869b354,61036a8478938179e74f5788,2021-07-29_22h00.43.525,Simcolourproject_2stim_asymm_v5,2020.2.10,Win32,60,61025ae37ef11b136ea224fe,,,,,,,,,3167,-54,98,1,0,0,response7disk,,0,-4,3,1,0,0,rectangle,-4,3,1,0,0,-4,3,1,0,0,0,110,110,155,1,,,,,,,,
,,,,,,,,,,,,,FF,,,,,,,,0.4723,,,,,,,,,,,,,,,,,,,,,,61003d8e60e719291869b354,61036a8478938179e74f5788,2021-07-29_22h00.43.525,Simcolourproject_2stim_asymm_v5,2020.2.10,Win32,60,61025ae37ef11b136ea224fe,,,,,,,,,2856,-45,102,1,0,0,response7disk,,0,-5,5,1,0,0,rectangle,-5,5,1,0,0,-5,5,1,0,0,0,111,111,100,1,,,,,,,,
,,,,,,,,,,,,,FF,,,,,,,,1.8752,,,,,,,,,,,,,,,,,,,,,,61003d8e60e719291869b354,61036a8478938179e74f5788,2021-07-29_22h00.43.525,Simcolourproject_2stim_asymm_v5,2020.2.10,Win32,60,61025ae37ef11b136ea224fe,,,,,,,,,3106,-63,-122,1,0,0,response5disk,,3,4,-17,1,0,0,rectangle,4,-17,1,0,0,4,-17,1,0,0,0,112,112,74,1,,,,,,,,
,,,,,,,,,,,,,FF,,,,,,,,0.563,,,,,,,,,,,,,,,,,,,,,,61003d8e60e719291869b354,61036a8478938179e74f5788,2021-07-29_22h00.43.525,Simcolourproject_2stim_asymm_v5,2020.2.10,Win32,60,61025ae37ef11b136ea224fe,,,,,,,,,3883,-36,92,1,0,0,response7disk,,0,0,-7,1,0,0,rectangle,0,-7,1,0,0,0,-7,1,0,0,0,113,113,34,1,,,,,,,,
,,,,,,,,,,,,,FF,,,,,,,,0.6622,,,,,,,,,,,,,,,,,,,,,,61003d8e60e719291869b354,61036a8478938179e74f5788,2021-07-29_22h00.43.525,Simcolourproject_2stim_asymm_v5,2020.2.10,Win32,60,61025ae37ef11b136ea224fe,,,,,,,,,2957,-41,85,1,0,0,response7disk,,0,-19,-9,1,0,0,rectangle,-19,-9,1,0,0,-19,-9,1,0,0,0,114,114,132,1,,,,,,,,
,,,,,,,,,,,,,FF,,,,,,,,0.5625,,,,,,,,,,,,,,,,,,,,,,61003d8e60e719291869b354,61036a8478938179e74f5788,2021-07-29_22h00.43.525,Simcolourproject_2stim_asymm_v5,2020.2.10,Win32,60,61025ae37ef11b136ea224fe,,,,,,,,,1001,-33,82,1,0,0,response7disk,,0,3,0,1,0,0,rectangle,3,0,1,0,0,3,0,1,0,0,0,115,115,64,1,,,,,,,,
,,,,,,,,,,,,,FF,,,,,,,,0.5147,,,,,,,,,,,,,,,,,,,,,,61003d8e60e719291869b354,61036a8478938179e74f5788,2021-07-29_22h00.43.525,Simcolourproject_2stim_asymm_v5,2020.2.10,Win32,60,61025ae37ef11b136ea224fe,,,,,,,,,560,-38,95,1,0,0,response7disk,,0,-2,16,1,0,0,rectangle,-2,16,1,0,0,-2,16,1,0,0,0,116,116,25,1,,,,,,,,
,,,,,,,,,,,,,FF,,,,,,,,0.9059,,,,,,,,,,,,,,,,,,,,,,61003d8e60e719291869b354,61036a8478938179e74f5788,2021-07-29_22h00.43.525,Simcolourproject_2stim_asymm_v5,2020.2.10,Win32,60,61025ae37ef11b136ea224fe,,,,,,,,,1309,-116,-70,1,0,0,response5disk,,2,0,-5,1,0,0,rectangle,0,-5,1,0,0,0,-5,1,0,0,0,117,117,158,1,,,,,,,,
,,,,,,,,,,,,,FF,,,,,,,,0.7192,,,,,,,,,,,,,,,,,,,,,,61003d8e60e719291869b354,61036a8478938179e74f5788,2021-07-29_22h00.43.525,Simcolourproject_2stim_asymm_v5,2020.2.10,Win32,60,61025ae37ef11b136ea224fe,,,,,,,,,2818,-44,81,1,0,0,response7disk,,0,-3,-10,1,0,0,rectangle,-3,-10,1,0,0,-3,-10,1,0,0,0,118,118,116,1,,,,,,,,
,,,,,,,,,,,,,FF,,,,,,,,0.4313,,,,,,,,,,,,,,,,,,,,,,61003d8e60e719291869b354,61036a8478938179e74f5788,2021-07-29_22h00.43.525,Simcolourproject_2stim_asymm_v5,2020.2.10,Win32,60,61025ae37ef11b136ea224fe,,,,,,,,,2975,-40,100,1,0,0,response7disk,,0,-8,3,1,0,0,rectangle,-8,3,1,0,0,-8,3,1,0,0,0,119,119,143,1,,,,,,,,
,,,,,,,,,,,,,FF,,,,,,,,0.4571,,,,,,,,,,,,,,,,,,,,,,61003d8e60e719291869b354,61036a8478938179e74f5788,2021-07-29_22h00.43.525,Simcolourproject_2stim_asymm_v5,2020.2.10,Win32,60,61025ae37ef11b136ea224fe,,,,,,,,,959,-33,97,1,0,0,response7disk,,0,-15,4,1,0,0,rectangle,-15,4,1,0,0,-15,4,1,0,0,0,120,120,18,1,,,,,,,,
,,,,,,,,,,,,,FF,,,,,,,,1.1508,,,,,,,,,,,,,,,,,,,,,,61003d8e60e719291869b354,61036a8478938179e74f5788,2021-07-29_22h00.43.525,Simcolourproject_2stim_asymm_v5,2020.2.10,Win32,60,61025ae37ef11b136ea224fe,,,,,,,,,2722,114,-50,1,0,0,response3disk,,5,12,-13,1,0,0,rectangle,12,-13,1,0,0,12,-13,1,0,0,0,121,121,7,1,,,,,,,,
,,,,,,,,,,,,,FF,,,,,,,,0.9183,,,,,,,,,,,,,,,,,,,,,,61003d8e60e719291869b354,61036a8478938179e74f5788,2021-07-29_22h00.43.525,Simcolourproject_2stim_asymm_v5,2020.2.10,Win32,60,61025ae37ef11b136ea224fe,,,,,,,,,1894,146,55,1,0,0,response1disk,,6,0,7,1,0,0,rectangle,0,7,1,0,0,0,7,1,0,0,0,122,122,146,1,,,,,,,,
,,,,,,,,,,,,,FF,,,,,,,,0.5476,,,,,,,,,,,,,,,,,,,,,,61003d8e60e719291869b354,61036a8478938179e74f5788,2021-07-29_22h00.43.525,Simcolourproject_2stim_asymm_v5,2020.2.10,Win32,60,61025ae37ef11b136ea224fe,,,,,,,,,745,-34,82,1,0,0,response7disk,,0,5,6,1,0,0,rectangle,5,6,1,0,0,5,6,1,0,0,0,123,123,86,1,,,,,,,,
,,,,,,,,,,,,,FF,,,,,,,,0.6458,,,,,,,,,,,,,,,,,,,,,,61003d8e60e719291869b354,61036a8478938179e74f5788,2021-07-29_22h00.43.525,Simcolourproject_2stim_asymm_v5,2020.2.10,Win32,60,61025ae37ef11b136ea224fe,,,,,,,,,3267,-35,79,1,0,0,response7disk,,0,3,-6,1,0,0,rectangle,3,-6,1,0,0,3,-6,1,0,0,0,124,124,102,1,,,,,,,,
,,,,,,,,,,,,,FF,,,,,,,,0.4375,,,,,,,,,,,,,,,,,,,,,,61003d8e60e719291869b354,61036a8478938179e74f5788,2021-07-29_22h00.43.525,Simcolourproject_2stim_asymm_v5,2020.2.10,Win32,60,61025ae37ef11b136ea224fe,,,,,,,,,1479,-58,77,1,0,0,response7disk,,0,-20,10,1,0,0,rectangle,-20,10,1,0,0,-20,10,1,0,0,0,125,125,63,1,,,,,,,,
,,,,,,,,,,,,,FF,,,,,,,,0.4654,,,,,,,,,,,,,,,,,,,,,,61003d8e60e719291869b354,61036a8478938179e74f5788,2021-07-29_22h00.43.525,Simcolourproject_2stim_asymm_v5,2020.2.10,Win32,60,61025ae37ef11b136ea224fe,,,,,,,,,1858,-35,83,1,0,0,response7disk,,0,6,-4,1,0,0,rectangle,6,-4,1,0,0,6,-4,1,0,0,0,126,126,9,1,,,,,,,,
,,,,,,,,,,,,,FF,,,,,,,,0.4271,,,,,,,,,,,,,,,,,,,,,,61003d8e60e719291869b354,61036a8478938179e74f5788,2021-07-29_22h00.43.525,Simcolourproject_2stim_asymm_v5,2020.2.10,Win32,60,61025ae37ef11b136ea224fe,,,,,,,,,3221,-23,87,1,0,0,response7disk,,0,-8,-7,1,0,0,rectangle,-8,-7,1,0,0,-8,-7,1,0,0,0,127,127,56,1,,,,,,,,
,,,,,,,,,,,,,FF,,,,,,,,0.4653,,,,,,,,,,,,,,,,,,,,,,61003d8e60e719291869b354,61036a8478938179e74f5788,2021-07-29_22h00.43.525,Simcolourproject_2stim_asymm_v5,2020.2.10,Win32,60,61025ae37ef11b136ea224fe,,,,,,,,,2387,-43,79,1,0,0,response7disk,,0,-11,-5,1,0,0,rectangle,-11,-5,1,0,0,-11,-5,1,0,0,0,128,128,23,1,,,,,,,,
,,,,,,,,,,,,,FF,,,,,,,,0.661,,,,,,,,,,,,,,,,,,,,,,61003d8e60e719291869b354,61036a8478938179e74f5788,2021-07-29_22h00.43.525,Simcolourproject_2stim_asymm_v5,2020.2.10,Win32,60,61025ae37ef11b136ea224fe,,,,,,,,,3935,-35,91,1,0,0,response7disk,,0,21,-14,1,0,0,rectangle,21,-14,1,0,0,21,-14,1,0,0,0,129,129,14,1,,,,,,,,
,,,,,,,,,,,,,FF,,,,,,,,1.7017,,,,,,,,,,,,,,,,,,,,,,61003d8e60e719291869b354,61036a8478938179e74f5788,2021-07-29_22h00.43.525,Simcolourproject_2stim_asymm_v5,2020.2.10,Win32,60,61025ae37ef11b136ea224fe,,,,,,,,,192,-111,-53,1,0,0,response5disk,,2,-13,-4,1,0,0,rectangle,-13,-4,1,0,0,-13,-4,1,0,0,0,130,130,39,1,,,,,,,,
,,,,,,,,,,,,,FF,,,,,,,,0.6055,,,,,,,,,,,,,,,,,,,,,,61003d8e60e719291869b354,61036a8478938179e74f5788,2021-07-29_22h00.43.525,Simcolourproject_2stim_asymm_v5,2020.2.10,Win32,60,61025ae37ef11b136ea224fe,,,,,,,,,1362,-37,96,1,0,0,response7disk,,0,11,10,1,0,0,rectangle,11,10,1,0,0,11,10,1,0,0,0,131,131,76,1,,,,,,,,
,,,,,,,,,,,,,FF,,,,,,,,0.5073,,,,,,,,,,,,,,,,,,,,,,61003d8e60e719291869b354,61036a8478938179e74f5788,2021-07-29_22h00.43.525,Simcolourproject_2stim_asymm_v5,2020.2.10,Win32,60,61025ae37ef11b136ea224fe,,,,,,,,,927,-38,83,1,0,0,response7disk,,0,1,-3,1,0,0,rectangle,1,-3,1,0,0,1,-3,1,0,0,0,132,132,128,1,,,,,,,,
,,,,,,,,,,,,,FF,,,,,,,,1.5697,,,,,,,,,,,,,,,,,,,,,,61003d8e60e719291869b354,61036a8478938179e74f5788,2021-07-29_22h00.43.525,Simcolourproject_2stim_asymm_v5,2020.2.10,Win32,60,61025ae37ef11b136ea224fe,,,,,,,,,3810,143,54,1,0,0,response1disk,,6,-20,-3,1,0,0,rectangle,-20,-3,1,0,0,-20,-3,1,0,0,0,133,133,127,1,,,,,,,,
,,,,,,,,,,,,,FF,,,,,,,,1.1996,,,,,,,,,,,,,,,,,,,,,,61003d8e60e719291869b354,61036a8478938179e74f5788,2021-07-29_22h00.43.525,Simcolourproject_2stim_asymm_v5,2020.2.10,Win32,60,61025ae37ef11b136ea224fe,,,,,,,,,1061,152,-62,1,0,0,response3disk,,5,23,-16,1,0,0,rectangle,23,-16,1,0,0,23,-16,1,0,0,0,134,134,17,1,,,,,,,,
,,,,,,,,,,,,,FF,,,,,,,,0.8582,,,,,,,,,,,,,,,,,,,,,,61003d8e60e719291869b354,61036a8478938179e74f5788,2021-07-29_22h00.43.525,Simcolourproject_2stim_asymm_v5,2020.2.10,Win32,60,61025ae37ef11b136ea224fe,,,,,,,,,377,-38,107,1,0,0,response7disk,,0,11,1,1,0,0,rectangle,11,1,1,0,0,11,1,1,0,0,0,135,135,136,1,,,,,,,,
,,,,,,,,,,,,,FF,,,,,,,,0.9512,,,,,,,,,,,,,,,,,,,,,,61003d8e60e719291869b354,61036a8478938179e74f5788,2021-07-29_22h00.43.525,Simcolourproject_2stim_asymm_v5,2020.2.10,Win32,60,61025ae37ef11b136ea224fe,,,,,,,,,3476,137,68,1,0,0,response1disk,,6,25,1,1,0,0,rectangle,25,1,1,0,0,25,1,1,0,0,0,136,136,93,1,,,,,,,,
,,,,,,,,,,,,,FF,,,,,,,,0.5417,,,,,,,,,,,,,,,,,,,,,,61003d8e60e719291869b354,61036a8478938179e74f5788,2021-07-29_22h00.43.525,Simcolourproject_2stim_asymm_v5,2020.2.10,Win32,60,61025ae37ef11b136ea224fe,,,,,,,,,2452,-45,113,1,0,0,response7disk,,0,4,-4,1,0,0,rectangle,4,-4,1,0,0,4,-4,1,0,0,0,137,137,80,1,,,,,,,,
,,,,,,,,,,,,,FF,,,,,,,,0.7847,,,,,,,,,,,,,,,,,,,,,,61003d8e60e719291869b354,61036a8478938179e74f5788,2021-07-29_22h00.43.525,Simcolourproject_2stim_asymm_v5,2020.2.10,Win32,60,61025ae37ef11b136ea224fe,,,,,,,,,1673,149,48,1,0,0,response1disk,,6,26,-10,1,0,0,rectangle,26,-10,1,0,0,26,-10,1,0,0,0,138,138,133,1,,,,,,,,
,,,,,,,,,,,,,FF,,,,,,,,0.492,,,,,,,,,,,,,,,,,,,,,,61003d8e60e719291869b354,61036a8478938179e74f5788,2021-07-29_22h00.43.525,Simcolourproject_2stim_asymm_v5,2020.2.10,Win32,60,61025ae37ef11b136ea224fe,,,,,,,,,784,-46,127,1,0,0,response7disk,,0,12,-5,1,0,0,rectangle,12,-5,1,0,0,12,-5,1,0,0,0,139,139,44,1,,,,,,,,
,,,,,,,,,,,,,FF,,,,,,,,2.1957,,,,,,,,,,,,,,,,,,,,,,61003d8e60e719291869b354,61036a8478938179e74f5788,2021-07-29_22h00.43.525,Simcolourproject_2stim_asymm_v5,2020.2.10,Win32,60,61025ae37ef11b136ea224fe,,,,,,,,,2378,-44,95,1,0,0,response7disk,,0,-6,-7,1,0,0,rectangle,-6,-7,1,0,0,-6,-7,1,0,0,0,140,140,142,1,,,,,,,,
,,,,,,,,,,,,,FF,,,,,,,,0.9099,,,,,,,,,,,,,,,,,,,,,,61003d8e60e719291869b354,61036a8478938179e74f5788,2021-07-29_22h00.43.525,Simcolourproject_2stim_asymm_v5,2020.2.10,Win32,60,61025ae37ef11b136ea224fe,,,,,,,,,1948,-64,130,1,0,0,response7disk,,0,-6,3,1,0,0,rectangle,-6,3,1,0,0,-6,3,1,0,0,0,141,141,126,1,,,,,,,,
,,,,,,,,,,,,,FF,,,,,,,,1.9031,,,,,,,,,,,,,,,,,,,,,,61003d8e60e719291869b354,61036a8478938179e74f5788,2021-07-29_22h00.43.525,Simcolourproject_2stim_asymm_v5,2020.2.10,Win32,60,61025ae37ef11b136ea224fe,,,,,,,,,1235,-54,118,1,0,0,response7disk,,0,-19,-5,1,0,0,rectangle,-19,-5,1,0,0,-19,-5,1,0,0,0,142,142,41,1,,,,,,,,
,,,,,,,,,,,,,FF,,,,,,,,0.5081,,,,,,,,,,,,,,,,,,,,,,61003d8e60e719291869b354,61036a8478938179e74f5788,2021-07-29_22h00.43.525,Simcolourproject_2stim_asymm_v5,2020.2.10,Win32,60,61025ae37ef11b136ea224fe,,,,,,,,,1932,-59,109,1,0,0,response7disk,,0,5,-8,1,0,0,rectangle,5,-8,1,0,0,5,-8,1,0,0,0,143,143,131,1,,,,,,,,
,,,,,,,,,,,,,FF,,,,,,,,2.1182,,,,,,,,,,,,,,,,,,,,,,61003d8e60e719291869b354,61036a8478938179e74f5788,2021-07-29_22h00.43.525,Simcolourproject_2stim_asymm_v5,2020.2.10,Win32,60,61025ae37ef11b136ea224fe,,,,,,,,,2715,-48,113,1,0,0,response7disk,,0,-21,7,1,0,0,rectangle,-21,7,1,0,0,-21,7,1,0,0,0,144,144,66,1,,,,,,,,
,,,,,,,,,,,,,FF,,,,,,,,0.4655,,,,,,,,,,,,,,,,,,,,,,61003d8e60e719291869b354,61036a8478938179e74f5788,2021-07-29_22h00.43.525,Simcolourproject_2stim_asymm_v5,2020.2.10,Win32,60,61025ae37ef11b136ea224fe,,,,,,,,,38,-58,102,1,0,0,response7disk,,0,-7,-18,1,0,0,rectangle,92,-34,1,0,0,13,-7,1,0,0,0,145,145,105,1,,response3disk_3,TRUE,5,5,"[321,13,35,151,24,224,304,227,94,30,146,50,207,200,47,265,67,51,216,301]",1.6597,rectangle
,,,,,,,,,,,,,FF,,,,,,,,0.6718,,,,,,,,,,,,,,,,,,,,,,61003d8e60e719291869b354,61036a8478938179e74f5788,2021-07-29_22h00.43.525,Simcolourproject_2stim_asymm_v5,2020.2.10,Win32,60,61025ae37ef11b136ea224fe,,,,,,,,,1251,-62,97,1,0,0,response7disk,,0,-13,5,1,0,0,rectangle,-13,5,1,0,0,-13,5,1,0,0,0,146,146,151,1,,,,,,,,
,,,,,,,,,,,,,FF,,,,,,,,0.8336,,,,,,,,,,,,,,,,,,,,,,61003d8e60e719291869b354,61036a8478938179e74f5788,2021-07-29_22h00.43.525,Simcolourproject_2stim_asymm_v5,2020.2.10,Win32,60,61025ae37ef11b136ea224fe,,,,,,,,,2252,-41,105,1,0,0,response7disk,,0,23,1,1,0,0,rectangle,23,1,1,0,0,23,1,1,0,0,0,147,147,119,1,,,,,,,,
,,,,,,,,,,,,,FF,,,,,,,,0.5471,,,,,,,,,,,,,,,,,,,,,,61003d8e60e719291869b354,61036a8478938179e74f5788,2021-07-29_22h00.43.525,Simcolourproject_2stim_asymm_v5,2020.2.10,Win32,60,61025ae37ef11b136ea224fe,,,,,,,,,3617,-44,98,1,0,0,response7disk,,0,9,1,1,0,0,rectangle,9,1,1,0,0,9,1,1,0,0,0,148,148,13,1,,,,,,,,
,,,,,,,,,,,,,FF,,,,,,,,0.4587,,,,,,,,,,,,,,,,,,,,,,61003d8e60e719291869b354,61036a8478938179e74f5788,2021-07-29_22h00.43.525,Simcolourproject_2stim_asymm_v5,2020.2.10,Win32,60,61025ae37ef11b136ea224fe,,,,,,,,,123,-36,99,1,0,0,response7disk,,0,-6,20,1,0,0,rectangle,-6,20,1,0,0,-6,20,1,0,0,0,149,149,135,1,,,,,,,,
,,,,,,,,,,,,,FF,,,,,,,,1.0001,,,,,,,,,,,,,,,,,,,,,,61003d8e60e719291869b354,61036a8478938179e74f5788,2021-07-29_22h00.43.525,Simcolourproject_2stim_asymm_v5,2020.2.10,Win32,60,61025ae37ef11b136ea224fe,,,,,,,,,1140,-94,-59,1,0,0,response5disk,,2,0,5,1,0,0,rectangle,-119,35,1,0,0,1,-2,1,0,0,0,150,150,16,1,,response7disk_3,TRUE,1,1,"[321,13,35,151,24,224,304,227,94,30,146,50,207,200,47,265,67,51,216,301]",1.5557,rectangle
,,,,,,,,,,,,,FF,,,,,,,,1.6433,,,,,,,,,,,,,,,,,,,,,,61003d8e60e719291869b354,61036a8478938179e74f5788,2021-07-29_22h00.43.525,Simcolourproject_2stim_asymm_v5,2020.2.10,Win32,60,61025ae37ef11b136ea224fe,,,,,,,,,650,-49,-100,1,0,0,response5disk,,3,5,2,1,0,0,rectangle,5,2,1,0,0,5,2,1,0,0,0,151,151,82,1,,,,,,,,
,,,,,,,,,,,,,FF,,,,,,,,0.5917,,,,,,,,,,,,,,,,,,,,,,61003d8e60e719291869b354,61036a8478938179e74f5788,2021-07-29_22h00.43.525,Simcolourproject_2stim_asymm_v5,2020.2.10,Win32,60,61025ae37ef11b136ea224fe,,,,,,,,,850,-24,93,1,0,0,response7disk,,0,2,2,1,0,0,rectangle,2,2,1,0,0,2,2,1,0,0,0,152,152,69,1,,,,,,,,
,,,,,,,,,,,,,FF,,,,,,,,0.7803,,,,,,,,,,,,,,,,,,,,,,61003d8e60e719291869b354,61036a8478938179e74f5788,2021-07-29_22h00.43.525,Simcolourproject_2stim_asymm_v5,2020.2.10,Win32,60,61025ae37ef11b136ea224fe,,,,,,,,,3211,-116,-61,1,0,0,response5disk,,2,10,-14,1,0,0,rectangle,10,-14,1,0,0,10,-14,1,0,0,0,153,153,31,1,,,,,,,,
,,,,,,,,,,,,,FF,,,,,,,,0.4861,,,,,,,,,,,,,,,,,,,,,,61003d8e60e719291869b354,61036a8478938179e74f5788,2021-07-29_22h00.43.525,Simcolourproject_2stim_asymm_v5,2020.2.10,Win32,60,61025ae37ef11b136ea224fe,,,,,,,,,2458,-33,97,1,0,0,response7disk,,0,-7,4,1,0,0,rectangle,-7,4,1,0,0,-7,4,1,0,0,0,154,154,42,1,,,,,,,,
,,,,,,,,,,,,,FF,,,,,,,,0.3818,,,,,,,,,,,,,,,,,,,,,,61003d8e60e719291869b354,61036a8478938179e74f5788,2021-07-29_22h00.43.525,Simcolourproject_2stim_asymm_v5,2020.2.10,Win32,60,61025ae37ef11b136ea224fe,,,,,,,,,1854,-45,101,1,0,0,response7disk,,0,-12,7,1,0,0,rectangle,-12,7,1,0,0,-12,7,1,0,0,0,155,155,4,1,,,,,,,,
,,,,,,,,,,,,,FF,,,,,,,,1.0348,,,,,,,,,,,,,,,,,,,,,,61003d8e60e719291869b354,61036a8478938179e74f5788,2021-07-29_22h00.43.525,Simcolourproject_2stim_asymm_v5,2020.2.10,Win32,60,61025ae37ef11b136ea224fe,,,,,,,,,1136,71,-115,1,0,0,response3disk,,4,6,-1,1,0,0,rectangle,6,-1,1,0,0,6,-1,1,0,0,0,156,156,144,1,,,,,,,,
,,,,,,,,,,,,,FF,,,,,,,,0.6178,,,,,,,,,,,,,,,,,,,,,,61003d8e60e719291869b354,61036a8478938179e74f5788,2021-07-29_22h00.43.525,Simcolourproject_2stim_asymm_v5,2020.2.10,Win32,60,61025ae37ef11b136ea224fe,,,,,,,,,1989,-50,98,1,0,0,response7disk,,0,-8,2,1,0,0,rectangle,-8,2,1,0,0,-8,2,1,0,0,0,157,157,96,1,,,,,,,,
,,,,,,,,,,,,,FF,,,,,,,,0.4514,,,,,,,,,,,,,,,,,,,,,,61003d8e60e719291869b354,61036a8478938179e74f5788,2021-07-29_22h00.43.525,Simcolourproject_2stim_asymm_v5,2020.2.10,Win32,60,61025ae37ef11b136ea224fe,,,,,,,,,685,-21,79,1,0,0,response7disk,,0,15,1,1,0,0,rectangle,15,1,1,0,0,15,1,1,0,0,0,158,158,134,1,,,,,,,,
,,,,,,,,,,,,,FF,,,,,,,,0.4501,,,,,,,,,,,,,,,,,,,,,,61003d8e60e719291869b354,61036a8478938179e74f5788,2021-07-29_22h00.43.525,Simcolourproject_2stim_asymm_v5,2020.2.10,Win32,60,61025ae37ef11b136ea224fe,,,,,,,,,243,-64,116,1,0,0,response7disk,,0,8,-14,1,0,0,rectangle,8,-14,1,0,0,8,-14,1,0,0,0,159,159,60,1,,,,,,,,
,,,,,,,,,,,,,FF,,,,,,,,1.4929,,,,,,,,,,,,,,,,,,,,,,61003d8e60e719291869b354,61036a8478938179e74f5788,2021-07-29_22h00.43.525,Simcolourproject_2stim_asymm_v5,2020.2.10,Win32,60,61025ae37ef11b136ea224fe,,,,,,,,,2901,-69,-118,1,0,0,response5disk,,3,9,13,1,0,0,rectangle,9,13,1,0,0,9,13,1,0,0,1,0,160,66,1,,,,,,,,
,,,,,,,,,,,,,FF,,,,,,,,0.5417,,,,,,,,,,,,,,,,,,,,,,61003d8e60e719291869b354,61036a8478938179e74f5788,2021-07-29_22h00.43.525,Simcolourproject_2stim_asymm_v5,2020.2.10,Win32,60,61025ae37ef11b136ea224fe,,,,,,,,,316,-50,116,1,0,0,response7disk,,0,-3,-16,1,0,0,rectangle,-3,-16,1,0,0,-3,-16,1,0,0,1,1,161,122,1,,,,,,,,
,,,,,,,,,,,,,FF,,,,,,,,0.6943,,,,,,,,,,,,,,,,,,,,,,61003d8e60e719291869b354,61036a8478938179e74f5788,2021-07-29_22h00.43.525,Simcolourproject_2stim_asymm_v5,2020.2.10,Win32,60,61025ae37ef11b136ea224fe,,,,,,,,,3280,-45,93,1,0,0,response7disk,,0,-17,9,1,0,0,rectangle,-17,9,1,0,0,-17,9,1,0,0,1,2,162,125,1,,,,,,,,
,,,,,,,,,,,,,FF,,,,,,,,0.8291,,,,,,,,,,,,,,,,,,,,,,61003d8e60e719291869b354,61036a8478938179e74f5788,2021-07-29_22h00.43.525,Simcolourproject_2stim_asymm_v5,2020.2.10,Win32,60,61025ae37ef11b136ea224fe,,,,,,,,,2949,-74,131,1,0,0,response7disk,,0,-4,-7,1,0,0,rectangle,-4,-7,1,0,0,-4,-7,1,0,0,1,3,163,93,1,,,,,,,,
,,,,,,,,,,,,,FF,,,,,,,,0.6805,,,,,,,,,,,,,,,,,,,,,,61003d8e60e719291869b354,61036a8478938179e74f5788,2021-07-29_22h00.43.525,Simcolourproject_2stim_asymm_v5,2020.2.10,Win32,60,61025ae37ef11b136ea224fe,,,,,,,,,4311,-54,125,1,0,0,response7disk,,0,-3,2,1,0,0,rectangle,-3,2,1,0,0,-3,2,1,0,0,1,4,164,53,1,,,,,,,,
,,,,,,,,,,,,,FF,,,,,,,,1.7932,,,,,,,,,,,,,,,,,,,,,,61003d8e60e719291869b354,61036a8478938179e74f5788,2021-07-29_22h00.43.525,Simcolourproject_2stim_asymm_v5,2020.2.10,Win32,60,61025ae37ef11b136ea224fe,,,,,,,,,1039,-125,49,1,0,0,response7disk,,1,-13,-8,1,0,0,rectangle,-13,-8,1,0,0,-13,-8,1,0,0,1,5,165,17,1,,,,,,,,
,,,,,,,,,,,,,FF,,,,,,,,0.9306,,,,,,,,,,,,,,,,,,,,,,61003d8e60e719291869b354,61036a8478938179e74f5788,2021-07-29_22h00.43.525,Simcolourproject_2stim_asymm_v5,2020.2.10,Win32,60,61025ae37ef11b136ea224fe,,,,,,,,,719,142,57,1,0,0,response1disk,,6,23,-6,1,0,0,rectangle,23,-6,1,0,0,23,-6,1,0,0,1,6,166,158,1,,,,,,,,
,,,,,,,,,,,,,FF,,,,,,,,1.0281,,,,,,,,,,,,,,,,,,,,,,61003d8e60e719291869b354,61036a8478938179e74f5788,2021-07-29_22h00.43.525,Simcolourproject_2stim_asymm_v5,2020.2.10,Win32,60,61025ae37ef11b136ea224fe,,,,,,,,,2679,130,33,1,0,0,response1disk,,6,-1,2,1,0,0,rectangle,-1,2,1,0,0,-1,2,1,0,0,1,7,167,127,1,,,,,,,,
,,,,,,,,,,,,,FF,,,,,,,,0.5137,,,,,,,,,,,,,,,,,,,,,,61003d8e60e719291869b354,61036a8478938179e74f5788,2021-07-29_22h00.43.525,Simcolourproject_2stim_asymm_v5,2020.2.10,Win32,60,61025ae37ef11b136ea224fe,,,,,,,,,1426,-62,128,1,0,0,response7disk,,0,-6,6,1,0,0,rectangle,-6,6,1,0,0,-6,6,1,0,0,1,8,168,111,1,,,,,,,,
,,,,,,,,,,,,,FF,,,,,,,,0.4446,,,,,,,,,,,,,,,,,,,,,,61003d8e60e719291869b354,61036a8478938179e74f5788,2021-07-29_22h00.43.525,Simcolourproject_2stim_asymm_v5,2020.2.10,Win32,60,61025ae37ef11b136ea224fe,,,,,,,,,4173,-61,129,1,0,0,response7disk,,0,5,10,1,0,0,rectangle,5,10,1,0,0,5,10,1,0,0,1,9,169,26,1,,,,,,,,
,,,,,,,,,,,,,FF,,,,,,,,0.8541,,,,,,,,,,,,,,,,,,,,,,61003d8e60e719291869b354,61036a8478938179e74f5788,2021-07-29_22h00.43.525,Simcolourproject_2stim_asymm_v5,2020.2.10,Win32,60,61025ae37ef11b136ea224fe,,,,,,,,,913,-91,-49,1,0,0,response5disk,,2,8,4,1,0,0,rectangle,8,4,1,0,0,8,4,1,0,0,1,10,170,60,1,,,,,,,,
,,,,,,,,,,,,,FF,,,,,,,,0.9295,,,,,,,,,,,,,,,,,,,,,,61003d8e60e719291869b354,61036a8478938179e74f5788,2021-07-29_22h00.43.525,Simcolourproject_2stim_asymm_v5,2020.2.10,Win32,60,61025ae37ef11b136ea224fe,,,,,,,,,4306,132,37,1,0,0,response1disk,,6,34,-2,1,0,0,rectangle,34,-2,1,0,0,34,-2,1,0,0,1,11,171,108,1,,,,,,,,
,,,,,,,,,,,,,FF,,,,,,,,1.41,,,,,,,,,,,,,,,,,,,,,,61003d8e60e719291869b354,61036a8478938179e74f5788,2021-07-29_22h00.43.525,Simcolourproject_2stim_asymm_v5,2020.2.10,Win32,60,61025ae37ef11b136ea224fe,,,,,,,,,1955,-31,110,1,0,0,response7disk,,0,-4,21,1,0,0,rectangle,-4,21,1,0,0,-4,21,1,0,0,1,12,172,123,1,,,,,,,,
,,,,,,,,,,,,,FF,,,,,,,,0.485,,,,,,,,,,,,,,,,,,,,,,61003d8e60e719291869b354,61036a8478938179e74f5788,2021-07-29_22h00.43.525,Simcolourproject_2stim_asymm_v5,2020.2.10,Win32,60,61025ae37ef11b136ea224fe,,,,,,,,,132,-22,86,1,0,0,response7disk,,0,3,-16,1,0,0,rectangle,3,-16,1,0,0,3,-16,1,0,0,1,13,173,89,1,,,,,,,,
,,,,,,,,,,,,,FF,,,,,,,,1.2994,,,,,,,,,,,,,,,,,,,,,,61003d8e60e719291869b354,61036a8478938179e74f5788,2021-07-29_22h00.43.525,Simcolourproject_2stim_asymm_v5,2020.2.10,Win32,60,61025ae37ef11b136ea224fe,,,,,,,,,4254,-55,-125,1,0,0,response5disk,,3,-18,-15,1,0,0,rectangle,-18,-15,1,0,0,-18,-15,1,0,0,1,14,174,152,1,,,,,,,,
,,,,,,,,,,,,,FF,,,,,,,,0.4721,,,,,,,,,,,,,,,,,,,,,,61003d8e60e719291869b354,61036a8478938179e74f5788,2021-07-29_22h00.43.525,Simcolourproject_2stim_asymm_v5,2020.2.10,Win32,60,61025ae37ef11b136ea224fe,,,,,,,,,2499,-63,77,1,0,0,response7disk,,0,-7,-17,1,0,0,rectangle,-7,-17,1,0,0,-7,-17,1,0,0,1,15,175,46,1,,,,,,,,
,,,,,,,,,,,,,FF,,,,,,,,0.6045,,,,,,,,,,,,,,,,,,,,,,61003d8e60e719291869b354,61036a8478938179e74f5788,2021-07-29_22h00.43.525,Simcolourproject_2stim_asymm_v5,2020.2.10,Win32,60,61025ae37ef11b136ea224fe,,,,,,,,,4280,48,74,1,0,0,response1disk,,7,7,1,1,0,0,rectangle,7,1,1,0,0,7,1,1,0,0,1,16,176,0,1,,,,,,,,
,,,,,,,,,,,,,FF,,,,,,,,0.9788,,,,,,,,,,,,,,,,,,,,,,61003d8e60e719291869b354,61036a8478938179e74f5788,2021-07-29_22h00.43.525,Simcolourproject_2stim_asymm_v5,2020.2.10,Win32,60,61025ae37ef11b136ea224fe,,,,,,,,,1769,-42,96,1,0,0,response7disk,,0,2,-6,1,0,0,rectangle,2,-6,1,0,0,2,-6,1,0,0,1,17,177,139,1,,,,,,,,
,,,,,,,,,,,,,FF,,,,,,,,0.786,,,,,,,,,,,,,,,,,,,,,,61003d8e60e719291869b354,61036a8478938179e74f5788,2021-07-29_22h00.43.525,Simcolourproject_2stim_asymm_v5,2020.2.10,Win32,60,61025ae37ef11b136ea224fe,,,,,,,,,3399,-116,43,1,0,0,response7disk,,1,-2,-18,1,0,0,rectangle,-2,-18,1,0,0,-2,-18,1,0,0,1,18,178,12,1,,,,,,,,
,,,,,,,,,,,,,FF,,,,,,,,0.4172,,,,,,,,,,,,,,,,,,,,,,61003d8e60e719291869b354,61036a8478938179e74f5788,2021-07-29_22h00.43.525,Simcolourproject_2stim_asymm_v5,2020.2.10,Win32,60,61025ae37ef11b136ea224fe,,,,,,,,,2407,-46,89,1,0,0,response7disk,,0,-4,-14,1,0,0,rectangle,-4,-14,1,0,0,-4,-14,1,0,0,1,19,179,39,1,,,,,,,,
,,,,,,,,,,,,,FF,,,,,,,,1.5211,,,,,,,,,,,,,,,,,,,,,,61003d8e60e719291869b354,61036a8478938179e74f5788,2021-07-29_22h00.43.525,Simcolourproject_2stim_asymm_v5,2020.2.10,Win32,60,61025ae37ef11b136ea224fe,,,,,,,,,2942,51,-100,1,0,0,response3disk,,4,-18,-9,1,0,0,rectangle,-18,-9,1,0,0,-18,-9,1,0,0,1,20,180,95,1,,,,,,,,
,,,,,,,,,,,,,FF,,,,,,,,0.6459,,,,,,,,,,,,,,,,,,,,,,61003d8e60e719291869b354,61036a8478938179e74f5788,2021-07-29_22h00.43.525,Simcolourproject_2stim_asymm_v5,2020.2.10,Win32,60,61025ae37ef11b136ea224fe,,,,,,,,,2477,-42,88,1,0,0,response7disk,,0,-2,-2,1,0,0,rectangle,-2,-2,1,0,0,-2,-2,1,0,0,1,21,181,65,1,,,,,,,,
,,,,,,,,,,,,,FF,,,,,,,,0.5063,,,,,,,,,,,,,,,,,,,,,,61003d8e60e719291869b354,61036a8478938179e74f5788,2021-07-29_22h00.43.525,Simcolourproject_2stim_asymm_v5,2020.2.10,Win32,60,61025ae37ef11b136ea224fe,,,,,,,,,1274,-39,82,1,0,0,response7disk,,0,-10,5,1,0,0,rectangle,-10,5,1,0,0,-10,5,1,0,0,1,22,182,100,1,,,,,,,,
,,,,,,,,,,,,,FF,,,,,,,,0.4929,,,,,,,,,,,,,,,,,,,,,,61003d8e60e719291869b354,61036a8478938179e74f5788,2021-07-29_22h00.43.525,Simcolourproject_2stim_asymm_v5,2020.2.10,Win32,60,61025ae37ef11b136ea224fe,,,,,,,,,1044,-37,78,1,0,0,response7disk,,0,2,2,1,0,0,rectangle,2,2,1,0,0,2,2,1,0,0,1,23,183,13,1,,,,,,,,
,,,,,,,,,,,,,FF,,,,,,,,0.5836,,,,,,,,,,,,,,,,,,,,,,61003d8e60e719291869b354,61036a8478938179e74f5788,2021-07-29_22h00.43.525,Simcolourproject_2stim_asymm_v5,2020.2.10,Win32,60,61025ae37ef11b136ea224fe,,,,,,,,,2718,85,119,1,0,0,response1disk,,7,7,5,1,0,0,rectangle,7,5,1,0,0,7,5,1,0,0,1,24,184,30,1,,,,,,,,
,,,,,,,,,,,,,FF,,,,,,,,0.5069,,,,,,,,,,,,,,,,,,,,,,61003d8e60e719291869b354,61036a8478938179e74f5788,2021-07-29_22h00.43.525,Simcolourproject_2stim_asymm_v5,2020.2.10,Win32,60,61025ae37ef11b136ea224fe,,,,,,,,,4063,-41,112,1,0,0,response7disk,,0,16,1,1,0,0,rectangle,16,1,1,0,0,16,1,1,0,0,1,25,185,19,1,,,,,,,,
,,,,,,,,,,,,,FF,,,,,,,,0.4111,,,,,,,,,,,,,,,,,,,,,,61003d8e60e719291869b354,61036a8478938179e74f5788,2021-07-29_22h00.43.525,Simcolourproject_2stim_asymm_v5,2020.2.10,Win32,60,61025ae37ef11b136ea224fe,,,,,,,,,3949,-44,107,1,0,0,response7disk,,0,-17,7,1,0,0,rectangle,-17,7,1,0,0,-17,7,1,0,0,1,26,186,86,1,,,,,,,,
,,,,,,,,,,,,,FF,,,,,,,,0.418,,,,,,,,,,,,,,,,,,,,,,61003d8e60e719291869b354,61036a8478938179e74f5788,2021-07-29_22h00.43.525,Simcolourproject_2stim_asymm_v5,2020.2.10,Win32,60,61025ae37ef11b136ea224fe,,,,,,,,,1704,-61,93,1,0,0,response7disk,,0,-28,-1,1,0,0,rectangle,-28,-1,1,0,0,-28,-1,1,0,0,1,27,187,144,1,,,,,,,,
,,,,,,,,,,,,,FF,,,,,,,,1.15,,,,,,,,,,,,,,,,,,,,,,61003d8e60e719291869b354,61036a8478938179e74f5788,2021-07-29_22h00.43.525,Simcolourproject_2stim_asymm_v5,2020.2.10,Win32,60,61025ae37ef11b136ea224fe,,,,,,,,,4221,-41,103,1,0,0,response7disk,,0,-21,2,1,0,0,rectangle,-21,2,1,0,0,-21,2,1,0,0,1,28,188,99,1,,,,,,,,
,,,,,,,,,,,,,FF,,,,,,,,0.4794,,,,,,,,,,,,,,,,,,,,,,61003d8e60e719291869b354,61036a8478938179e74f5788,2021-07-29_22h00.43.525,Simcolourproject_2stim_asymm_v5,2020.2.10,Win32,60,61025ae37ef11b136ea224fe,,,,,,,,,1627,-38,97,1,0,0,response7disk,,0,-6,3,1,0,0,rectangle,-6,3,1,0,0,-6,3,1,0,0,1,29,189,18,1,,,,,,,,
,,,,,,,,,,,,,FF,,,,,,,,0.5447,,,,,,,,,,,,,,,,,,,,,,61003d8e60e719291869b354,61036a8478938179e74f5788,2021-07-29_22h00.43.525,Simcolourproject_2stim_asymm_v5,2020.2.10,Win32,60,61025ae37ef11b136ea224fe,,,,,,,,,2801,-35,81,1,0,0,response7disk,,0,3,-14,1,0,0,rectangle,3,-14,1,0,0,3,-14,1,0,0,1,30,190,121,1,,,,,,,,
,,,,,,,,,,,,,FF,,,,,,,,0.3959,,,,,,,,,,,,,,,,,,,,,,61003d8e60e719291869b354,61036a8478938179e74f5788,2021-07-29_22h00.43.525,Simcolourproject_2stim_asymm_v5,2020.2.10,Win32,60,61025ae37ef11b136ea224fe,,,,,,,,,3855,-37,81,1,0,0,response7disk,,0,-7,-2,1,0,0,rectangle,-7,-2,1,0,0,-7,-2,1,0,0,1,31,191,136,1,,,,,,,,
,,,,,,,,,,,,,FF,,,,,,,,0.9599,,,,,,,,,,,,,,,,,,,,,,61003d8e60e719291869b354,61036a8478938179e74f5788,2021-07-29_22h00.43.525,Simcolourproject_2stim_asymm_v5,2020.2.10,Win32,60,61025ae37ef11b136ea224fe,,,,,,,,,1758,96,-43,1,0,0,response3disk,,5,3,-12,1,0,0,rectangle,3,-12,1,0,0,3,-12,1,0,0,1,32,192,115,1,,,,,,,,
,,,,,,,,,,,,,FF,,,,,,,,1.9101,,,,,,,,,,,,,,,,,,,,,,61003d8e60e719291869b354,61036a8478938179e74f5788,2021-07-29_22h00.43.525,Simcolourproject_2stim_asymm_v5,2020.2.10,Win32,60,61025ae37ef11b136ea224fe,,,,,,,,,818,-32,99,1,0,0,response7disk,,0,-3,1,1,0,0,rectangle,-3,1,1,0,0,-3,1,1,0,0,1,33,193,109,1,,,,,,,,
,,,,,,,,,,,,,FF,,,,,,,,0.5558,,,,,,,,,,,,,,,,,,,,,,61003d8e60e719291869b354,61036a8478938179e74f5788,2021-07-29_22h00.43.525,Simcolourproject_2stim_asymm_v5,2020.2.10,Win32,60,61025ae37ef11b136ea224fe,,,,,,,,,2009,-41,112,1,0,0,response7disk,,0,2,-6,1,0,0,rectangle,2,-6,1,0,0,2,-6,1,0,0,1,34,194,55,1,,,,,,,,
,,,,,,,,,,,,,FF,,,,,,,,0.3473,,,,,,,,,,,,,,,,,,,,,,61003d8e60e719291869b354,61036a8478938179e74f5788,2021-07-29_22h00.43.525,Simcolourproject_2stim_asymm_v5,2020.2.10,Win32,60,61025ae37ef11b136ea224fe,,,,,,,,,2699,-40,112,1,0,0,response7disk,,0,-1,-13,1,0,0,rectangle,-1,-13,1,0,0,-1,-13,1,0,0,1,35,195,45,1,,,,,,,,
,,,,,,,,,,,,,FF,,,,,,,,0.4934,,,,,,,,,,,,,,,,,,,,,,61003d8e60e719291869b354,61036a8478938179e74f5788,2021-07-29_22h00.43.525,Simcolourproject_2stim_asymm_v5,2020.2.10,Win32,60,61025ae37ef11b136ea224fe,,,,,,,,,2355,69,142,1,0,0,response1disk,,7,20,10,1,0,0,rectangle,20,10,1,0,0,20,10,1,0,0,1,36,196,155,1,,,,,,,,
,,,,,,,,,,,,,FF,,,,,,,,0.3682,,,,,,,,,,,,,,,,,,,,,,61003d8e60e719291869b354,61036a8478938179e74f5788,2021-07-29_22h00.43.525,Simcolourproject_2stim_asymm_v5,2020.2.10,Win32,60,61025ae37ef11b136ea224fe,,,,,,,,,166,-29,106,1,0,0,response7disk,,0,-7,-14,1,0,0,rectangle,-7,-14,1,0,0,-7,-14,1,0,0,1,37,197,5,1,,,,,,,,
,,,,,,,,,,,,,FF,,,,,,,,0.757,,,,,,,,,,,,,,,,,,,,,,61003d8e60e719291869b354,61036a8478938179e74f5788,2021-07-29_22h00.43.525,Simcolourproject_2stim_asymm_v5,2020.2.10,Win32,60,61025ae37ef11b136ea224fe,,,,,,,,,3420,-62,-93,1,0,0,response5disk,,3,8,11,1,0,0,rectangle,8,11,1,0,0,8,11,1,0,0,1,38,198,98,1,,,,,,,,
,,,,,,,,,,,,,FF,,,,,,,,1.571,,,,,,,,,,,,,,,,,,,,,,61003d8e60e719291869b354,61036a8478938179e74f5788,2021-07-29_22h00.43.525,Simcolourproject_2stim_asymm_v5,2020.2.10,Win32,60,61025ae37ef11b136ea224fe,,,,,,,,,3521,-40,83,1,0,0,response7disk,,0,-10,6,1,0,0,rectangle,-66,122,1,0,0,-7,-4,1,0,0,1,39,199,41,1,,response7disk_3,TRUE,0,0,"[321,13,35,151,24,224,304,227,94,30,146,50,207,200,47,265,67,51,216,301]",1.5692,rectangle
,,,,,,,,,,,,,FF,,,,,,,,3.4727,,,,,,,,,,,,,,,,,,,,,,61003d8e60e719291869b354,61036a8478938179e74f5788,2021-07-29_22h00.43.525,Simcolourproject_2stim_asymm_v5,2020.2.10,Win32,60,61025ae37ef11b136ea224fe,,,,,,,,,1105,-86,-45,1,0,0,response5disk,,2,15,-10,1,0,0,rectangle,15,-10,1,0,0,15,-10,1,0,0,1,40,200,102,1,,,,,,,,
,,,,,,,,,,,,,FF,,,,,,,,0.6946,,,,,,,,,,,,,,,,,,,,,,61003d8e60e719291869b354,61036a8478938179e74f5788,2021-07-29_22h00.43.525,Simcolourproject_2stim_asymm_v5,2020.2.10,Win32,60,61025ae37ef11b136ea224fe,,,,,,,,,3497,-32,117,1,0,0,response7disk,,0,11,-9,1,0,0,rectangle,11,-9,1,0,0,11,-9,1,0,0,1,41,201,110,1,,,,,,,,
,,,,,,,,,,,,,FF,,,,,,,,0.6597,,,,,,,,,,,,,,,,,,,,,,61003d8e60e719291869b354,61036a8478938179e74f5788,2021-07-29_22h00.43.525,Simcolourproject_2stim_asymm_v5,2020.2.10,Win32,60,61025ae37ef11b136ea224fe,,,,,,,,,1505,-35,111,1,0,0,response7disk,,0,-16,-1,1,0,0,rectangle,-16,-1,1,0,0,-16,-1,1,0,0,1,42,202,90,1,,,,,,,,
,,,,,,,,,,,,,FF,,,,,,,,0.9806,,,,,,,,,,,,,,,,,,,,,,61003d8e60e719291869b354,61036a8478938179e74f5788,2021-07-29_22h00.43.525,Simcolourproject_2stim_asymm_v5,2020.2.10,Win32,60,61025ae37ef11b136ea224fe,,,,,,,,,727,-91,-63,1,0,0,response5disk,,2,-20,10,1,0,0,rectangle,-20,10,1,0,0,-20,10,1,0,0,1,43,203,126,1,,,,,,,,
,,,,,,,,,,,,,FF,,,,,,,,0.5694,,,,,,,,,,,,,,,,,,,,,,61003d8e60e719291869b354,61036a8478938179e74f5788,2021-07-29_22h00.43.525,Simcolourproject_2stim_asymm_v5,2020.2.10,Win32,60,61025ae37ef11b136ea224fe,,,,,,,,,2430,-32,89,1,0,0,response7disk,,0,-2,-5,1,0,0,rectangle,-2,-5,1,0,0,-2,-5,1,0,0,1,44,204,85,1,,,,,,,,
,,,,,,,,,,,,,FF,,,,,,,,0.4306,,,,,,,,,,,,,,,,,,,,,,61003d8e60e719291869b354,61036a8478938179e74f5788,2021-07-29_22h00.43.525,Simcolourproject_2stim_asymm_v5,2020.2.10,Win32,60,61025ae37ef11b136ea224fe,,,,,,,,,1694,-37,85,1,0,0,response7disk,,0,-10,-3,1,0,0,rectangle,-10,-3,1,0,0,-10,-3,1,0,0,1,45,205,4,1,,,,,,,,
,,,,,,,,,,,,,FF,,,,,,,,0.3612,,,,,,,,,,,,,,,,,,,,,,61003d8e60e719291869b354,61036a8478938179e74f5788,2021-07-29_22h00.43.525,Simcolourproject_2stim_asymm_v5,2020.2.10,Win32,60,61025ae37ef11b136ea224fe,,,,,,,,,1701,-48,113,1,0,0,response7disk,,0,-3,-1,1,0,0,rectangle,76,-48,1,0,0,19,-12,1,0,0,1,46,206,23,1,,response3disk_3,TRUE,5,5,"[321,13,35,151,24,224,304,227,94,30,146,50,207,200,47,265,67,51,216,301]",1.1461,rectangle
,,,,,,,,,,,,,FF,,,,,,,,1.0783,,,,,,,,,,,,,,,,,,,,,,61003d8e60e719291869b354,61036a8478938179e74f5788,2021-07-29_22h00.43.525,Simcolourproject_2stim_asymm_v5,2020.2.10,Win32,60,61025ae37ef11b136ea224fe,,,,,,,,,3937,58,-124,1,0,0,response3disk,,4,9,0,1,0,0,rectangle,9,0,1,0,0,9,0,1,0,0,1,47,207,69,1,,,,,,,,
,,,,,,,,,,,,,FF,,,,,,,,0.4375,,,,,,,,,,,,,,,,,,,,,,61003d8e60e719291869b354,61036a8478938179e74f5788,2021-07-29_22h00.43.525,Simcolourproject_2stim_asymm_v5,2020.2.10,Win32,60,61025ae37ef11b136ea224fe,,,,,,,,,847,-41,94,1,0,0,response7disk,,0,-1,-16,1,0,0,rectangle,-1,-16,1,0,0,-1,-16,1,0,0,1,48,208,150,1,,,,,,,,
,,,,,,,,,,,,,FF,,,,,,,,0.4235,,,,,,,,,,,,,,,,,,,,,,61003d8e60e719291869b354,61036a8478938179e74f5788,2021-07-29_22h00.43.525,Simcolourproject_2stim_asymm_v5,2020.2.10,Win32,60,61025ae37ef11b136ea224fe,,,,,,,,,1481,-44,93,1,0,0,response7disk,,0,-10,3,1,0,0,rectangle,-10,3,1,0,0,-10,3,1,0,0,1,49,209,81,1,,,,,,,,
,,,,,,,,,,,,,FF,,,,,,,,0.3473,,,,,,,,,,,,,,,,,,,,,,61003d8e60e719291869b354,61036a8478938179e74f5788,2021-07-29_22h00.43.525,Simcolourproject_2stim_asymm_v5,2020.2.10,Win32,60,61025ae37ef11b136ea224fe,,,,,,,,,4082,-29,74,1,0,0,response7disk,,0,7,-10,1,0,0,rectangle,7,-10,1,0,0,7,-10,1,0,0,1,50,210,78,1,,,,,,,,
,,,,,,,,,,,,,FF,,,,,,,,0.3472,,,,,,,,,,,,,,,,,,,,,,61003d8e60e719291869b354,61036a8478938179e74f5788,2021-07-29_22h00.43.525,Simcolourproject_2stim_asymm_v5,2020.2.10,Win32,60,61025ae37ef11b136ea224fe,,,,,,,,,3865,-30,75,1,0,0,response7disk,,0,-11,-5,1,0,0,rectangle,-11,-5,1,0,0,-11,-5,1,0,0,1,51,211,25,1,,,,,,,,
,,,,,,,,,,,,,FF,,,,,,,,0.3682,,,,,,,,,,,,,,,,,,,,,,61003d8e60e719291869b354,61036a8478938179e74f5788,2021-07-29_22h00.43.525,Simcolourproject_2stim_asymm_v5,2020.2.10,Win32,60,61025ae37ef11b136ea224fe,,,,,,,,,1263,-26,64,1,0,0,response7disk,,0,-11,-9,1,0,0,rectangle,-11,-9,1,0,0,-11,-9,1,0,0,1,52,212,51,1,,,,,,,,
,,,,,,,,,,,,,FF,,,,,,,,0.8752,,,,,,,,,,,,,,,,,,,,,,61003d8e60e719291869b354,61036a8478938179e74f5788,2021-07-29_22h00.43.525,Simcolourproject_2stim_asymm_v5,2020.2.10,Win32,60,61025ae37ef11b136ea224fe,,,,,,,,,4195,-33,90,1,0,0,response7disk,,0,-17,15,1,0,0,rectangle,-17,15,1,0,0,-17,15,1,0,0,1,53,213,157,1,,,,,,,,
,,,,,,,,,,,,,FF,,,,,,,,0.507,,,,,,,,,,,,,,,,,,,,,,61003d8e60e719291869b354,61036a8478938179e74f5788,2021-07-29_22h00.43.525,Simcolourproject_2stim_asymm_v5,2020.2.10,Win32,60,61025ae37ef11b136ea224fe,,,,,,,,,403,-38,76,1,0,0,response7disk,,0,11,-8,1,0,0,rectangle,11,-8,1,0,0,11,-8,1,0,0,1,54,214,138,1,,,,,,,,
,,,,,,,,,,,,,FF,,,,,,,,0.4999,,,,,,,,,,,,,,,,,,,,,,61003d8e60e719291869b354,61036a8478938179e74f5788,2021-07-29_22h00.43.525,Simcolourproject_2stim_asymm_v5,2020.2.10,Win32,60,61025ae37ef11b136ea224fe,,,,,,,,,1275,-28,75,1,0,0,response7disk,,0,-18,-6,1,0,0,rectangle,71,-124,1,0,0,-4,5,1,0,0,1,55,215,156,1,,response3disk_3,TRUE,4,4,"[321,13,35,151,24,224,304,227,94,30,146,50,207,200,47,265,67,51,216,301]",1.5856,rectangle
,,,,,,,,,,,,,FF,,,,,,,,0.9115,,,,,,,,,,,,,,,,,,,,,,61003d8e60e719291869b354,61036a8478938179e74f5788,2021-07-29_22h00.43.525,Simcolourproject_2stim_asymm_v5,2020.2.10,Win32,60,61025ae37ef11b136ea224fe,,,,,,,,,546,103,-54,1,0,0,response3disk,,5,-1,3,1,0,0,rectangle,-1,3,1,0,0,-1,3,1,0,0,1,56,216,134,1,,,,,,,,
,,,,,,,,,,,,,FF,,,,,,,,0.9461,,,,,,,,,,,,,,,,,,,,,,61003d8e60e719291869b354,61036a8478938179e74f5788,2021-07-29_22h00.43.525,Simcolourproject_2stim_asymm_v5,2020.2.10,Win32,60,61025ae37ef11b136ea224fe,,,,,,,,,1494,-66,97,1,0,0,response7disk,,0,12,18,1,0,0,rectangle,12,18,1,0,0,12,18,1,0,0,1,57,217,49,1,,,,,,,,
,,,,,,,,,,,,,FF,,,,,,,,0.4795,,,,,,,,,,,,,,,,,,,,,,61003d8e60e719291869b354,61036a8478938179e74f5788,2021-07-29_22h00.43.525,Simcolourproject_2stim_asymm_v5,2020.2.10,Win32,60,61025ae37ef11b136ea224fe,,,,,,,,,1786,-60,91,1,0,0,response7disk,,0,8,-7,1,0,0,rectangle,8,-7,1,0,0,8,-7,1,0,0,1,58,218,52,1,,,,,,,,
,,,,,,,,,,,,,FF,,,,,,,,0.4165,,,,,,,,,,,,,,,,,,,,,,61003d8e60e719291869b354,61036a8478938179e74f5788,2021-07-29_22h00.43.525,Simcolourproject_2stim_asymm_v5,2020.2.10,Win32,60,61025ae37ef11b136ea224fe,,,,,,,,,50,-38,77,1,0,0,response7disk,,0,13,4,1,0,0,rectangle,13,4,1,0,0,13,4,1,0,0,1,59,219,88,1,,,,,,,,
,,,,,,,,,,,,,FF,,,,,,,,0.3751,,,,,,,,,,,,,,,,,,,,,,61003d8e60e719291869b354,61036a8478938179e74f5788,2021-07-29_22h00.43.525,Simcolourproject_2stim_asymm_v5,2020.2.10,Win32,60,61025ae37ef11b136ea224fe,,,,,,,,,2440,-33,71,1,0,0,response7disk,,0,12,5,1,0,0,rectangle,12,5,1,0,0,12,5,1,0,0,1,60,220,128,1,,,,,,,,
,,,,,,,,,,,,,FF,,,,,,,,0.3334,,,,,,,,,,,,,,,,,,,,,,61003d8e60e719291869b354,61036a8478938179e74f5788,2021-07-29_22h00.43.525,Simcolourproject_2stim_asymm_v5,2020.2.10,Win32,60,61025ae37ef11b136ea224fe,,,,,,,,,708,-30,45,1,0,0,response7disk,,0,0,2,1,0,0,rectangle,0,2,1,0,0,0,2,1,0,0,1,61,221,92,1,,,,,,,,
,,,,,,,,,,,,,FF,,,,,,,,0.2999,,,,,,,,,,,,,,,,,,,,,,61003d8e60e719291869b354,61036a8478938179e74f5788,2021-07-29_22h00.43.525,Simcolourproject_2stim_asymm_v5,2020.2.10,Win32,60,61025ae37ef11b136ea224fe,,,,,,,,,3299,-35,74,1,0,0,response7disk,,0,-10,8,1,0,0,rectangle,-10,8,1,0,0,-10,8,1,0,0,1,62,222,40,1,,,,,,,,
,,,,,,,,,,,,,FF,,,,,,,,0.4862,,,,,,,,,,,,,,,,,,,,,,61003d8e60e719291869b354,61036a8478938179e74f5788,2021-07-29_22h00.43.525,Simcolourproject_2stim_asymm_v5,2020.2.10,Win32,60,61025ae37ef11b136ea224fe,,,,,,,,,397,-37,67,1,0,0,response7disk,,0,2,9,1,0,0,rectangle,-44,110,1,0,0,2,-3,1,0,0,1,63,223,73,1,,response7disk_3,TRUE,0,0,"[321,13,35,151,24,224,304,227,94,30,146,50,207,200,47,265,67,51,216,301]",1.2151,rectangle
,,,,,,,,,,,,,FF,,,,,,,,1.8768,,,,,,,,,,,,,,,,,,,,,,61003d8e60e719291869b354,61036a8478938179e74f5788,2021-07-29_22h00.43.525,Simcolourproject_2stim_asymm_v5,2020.2.10,Win32,60,61025ae37ef11b136ea224fe,,,,,,,,,1766,-113,-34,1,0,0,response5disk,,2,-25,-3,1,0,0,rectangle,-25,-3,1,0,0,-25,-3,1,0,0,1,64,224,35,1,,,,,,,,
,,,,,,,,,,,,,FF,,,,,,,,0.603,,,,,,,,,,,,,,,,,,,,,,61003d8e60e719291869b354,61036a8478938179e74f5788,2021-07-29_22h00.43.525,Simcolourproject_2stim_asymm_v5,2020.2.10,Win32,60,61025ae37ef11b136ea224fe,,,,,,,,,3116,-64,114,1,0,0,response7disk,,0,-3,3,1,0,0,rectangle,-3,3,1,0,0,-3,3,1,0,0,1,65,225,94,1,,,,,,,,
,,,,,,,,,,,,,FF,,,,,,,,1.271,,,,,,,,,,,,,,,,,,,,,,61003d8e60e719291869b354,61036a8478938179e74f5788,2021-07-29_22h00.43.525,Simcolourproject_2stim_asymm_v5,2020.2.10,Win32,60,61025ae37ef11b136ea224fe,,,,,,,,,481,-53,87,1,0,0,response7disk,,0,11,-16,1,0,0,rectangle,-53,-124,1,0,0,-20,-9,1,0,0,1,66,226,38,1,,response5disk_3,TRUE,3,3,"[321,13,35,151,24,224,304,227,94,30,146,50,207,200,47,265,67,51,216,301]",1.7224,rectangle
,,,,,,,,,,,,,FF,,,,,,,,1.7996,,,,,,,,,,,,,,,,,,,,,,61003d8e60e719291869b354,61036a8478938179e74f5788,2021-07-29_22h00.43.525,Simcolourproject_2stim_asymm_v5,2020.2.10,Win32,60,61025ae37ef11b136ea224fe,,,,,,,,,2474,-33,97,1,0,0,response7disk,,0,-4,7,1,0,0,rectangle,-4,7,1,0,0,-4,7,1,0,0,1,67,227,145,1,,,,,,,,
,,,,,,,,,,,,,FF,,,,,,,,0.9723,,,,,,,,,,,,,,,,,,,,,,61003d8e60e719291869b354,61036a8478938179e74f5788,2021-07-29_22h00.43.525,Simcolourproject_2stim_asymm_v5,2020.2.10,Win32,60,61025ae37ef11b136ea224fe,,,,,,,,,2361,127,59,1,0,0,response1disk,,6,-22,0,1,0,0,rectangle,-22,0,1,0,0,-22,0,1,0,0,1,68,228,9,1,,,,,,,,
,,,,,,,,,,,,,FF,,,,,,,,2.2017,,,,,,,,,,,,,,,,,,,,,,61003d8e60e719291869b354,61036a8478938179e74f5788,2021-07-29_22h00.43.525,Simcolourproject_2stim_asymm_v5,2020.2.10,Win32,60,61025ae37ef11b136ea224fe,,,,,,,,,561,-100,-65,1,0,0,response5disk,,2,-4,0,1,0,0,rectangle,-4,0,1,0,0,-4,0,1,0,0,1,69,229,33,1,,,,,,,,
,,,,,,,,,,,,,FF,,,,,,,,0.521,,,,,,,,,,,,,,,,,,,,,,61003d8e60e719291869b354,61036a8478938179e74f5788,2021-07-29_22h00.43.525,Simcolourproject_2stim_asymm_v5,2020.2.10,Win32,60,61025ae37ef11b136ea224fe,,,,,,,,,3243,92,121,1,0,0,response1disk,,7,6,-6,1,0,0,rectangle,6,-6,1,0,0,6,-6,1,0,0,1,70,230,34,1,,,,,,,,
,,,,,,,,,,,,,FF,,,,,,,,0.3607,,,,,,,,,,,,,,,,,,,,,,61003d8e60e719291869b354,61036a8478938179e74f5788,2021-07-29_22h00.43.525,Simcolourproject_2stim_asymm_v5,2020.2.10,Win32,60,61025ae37ef11b136ea224fe,,,,,,,,,2160,57,97,1,0,0,response1disk,,7,-3,-10,1,0,0,rectangle,-3,-10,1,0,0,-3,-10,1,0,0,1,71,231,80,1,,,,,,,,
,,,,,,,,,,,,,FF,,,,,,,,1.4901,,,,,,,,,,,,,,,,,,,,,,61003d8e60e719291869b354,61036a8478938179e74f5788,2021-07-29_22h00.43.525,Simcolourproject_2stim_asymm_v5,2020.2.10,Win32,60,61025ae37ef11b136ea224fe,,,,,,,,,5,114,-57,1,0,0,response3disk,,5,16,10,1,0,0,rectangle,16,10,1,0,0,16,10,1,0,0,1,72,232,59,1,,,,,,,,
,,,,,,,,,,,,,FF,,,,,,,,0.6877,,,,,,,,,,,,,,,,,,,,,,61003d8e60e719291869b354,61036a8478938179e74f5788,2021-07-29_22h00.43.525,Simcolourproject_2stim_asymm_v5,2020.2.10,Win32,60,61025ae37ef11b136ea224fe,,,,,,,,,3663,105,-41,1,0,0,response3disk,,5,4,7,1,0,0,rectangle,4,7,1,0,0,4,7,1,0,0,1,73,233,48,1,,,,,,,,
,,,,,,,,,,,,,FF,,,,,,,,0.783,,,,,,,,,,,,,,,,,,,,,,61003d8e60e719291869b354,61036a8478938179e74f5788,2021-07-29_22h00.43.525,Simcolourproject_2stim_asymm_v5,2020.2.10,Win32,60,61025ae37ef11b136ea224fe,,,,,,,,,445,125,52,1,0,0,response1disk,,6,-8,14,1,0,0,rectangle,-8,14,1,0,0,-8,14,1,0,0,1,74,234,104,1,,,,,,,,
,,,,,,,,,,,,,FF,,,,,,,,0.6528,,,,,,,,,,,,,,,,,,,,,,61003d8e60e719291869b354,61036a8478938179e74f5788,2021-07-29_22h00.43.525,Simcolourproject_2stim_asymm_v5,2020.2.10,Win32,60,61025ae37ef11b136ea224fe,,,,,,,,,3622,134,72,1,0,0,response1disk,,6,-6,-1,1,0,0,rectangle,-6,-1,1,0,0,-6,-1,1,0,0,1,75,235,70,1,,,,,,,,
,,,,,,,,,,,,,FF,,,,,,,,1.0981,,,,,,,,,,,,,,,,,,,,,,61003d8e60e719291869b354,61036a8478938179e74f5788,2021-07-29_22h00.43.525,Simcolourproject_2stim_asymm_v5,2020.2.10,Win32,60,61025ae37ef11b136ea224fe,,,,,,,,,4106,105,51,1,0,0,response1disk,,6,-43,-14,1,0,0,rectangle,-43,-14,1,0,0,-43,-14,1,0,0,1,76,236,149,1,,,,,,,,
,,,,,,,,,,,,,FF,,,,,,,,0.9179,,,,,,,,,,,,,,,,,,,,,,61003d8e60e719291869b354,61036a8478938179e74f5788,2021-07-29_22h00.43.525,Simcolourproject_2stim_asymm_v5,2020.2.10,Win32,60,61025ae37ef11b136ea224fe,,,,,,,,,940,-52,108,1,0,0,response7disk,,0,-10,2,1,0,0,rectangle,-10,2,1,0,0,-10,2,1,0,0,1,77,237,54,1,,,,,,,,
,,,,,,,,,,,,,FF,,,,,,,,0.4306,,,,,,,,,,,,,,,,,,,,,,61003d8e60e719291869b354,61036a8478938179e74f5788,2021-07-29_22h00.43.525,Simcolourproject_2stim_asymm_v5,2020.2.10,Win32,60,61025ae37ef11b136ea224fe,,,,,,,,,3799,-57,102,1,0,0,response7disk,,0,-12,-1,1,0,0,rectangle,-12,-1,1,0,0,-12,-1,1,0,0,1,78,238,37,1,,,,,,,,
,,,,,,,,,,,,,FF,,,,,,,,0.4097,,,,,,,,,,,,,,,,,,,,,,61003d8e60e719291869b354,61036a8478938179e74f5788,2021-07-29_22h00.43.525,Simcolourproject_2stim_asymm_v5,2020.2.10,Win32,60,61025ae37ef11b136ea224fe,,,,,,,,,3181,-46,83,1,0,0,response7disk,,0,-12,4,1,0,0,rectangle,-12,4,1,0,0,-12,4,1,0,0,1,79,239,57,1,,,,,,,,
,,,,,,,,,,,,,FF,,,,,,,,0.3472,,,,,,,,,,,,,,,,,,,,,,61003d8e60e719291869b354,61036a8478938179e74f5788,2021-07-29_22h00.43.525,Simcolourproject_2stim_asymm_v5,2020.2.10,Win32,60,61025ae37ef11b136ea224fe,,,,,,,,,1655,-26,92,1,0,0,response7disk,,0,-6,1,1,0,0,rectangle,-6,1,1,0,0,-6,1,1,0,0,1,80,240,58,1,,,,,,,,
,,,,,,,,,,,,,FF,,,,,,,,0.3328,,,,,,,,,,,,,,,,,,,,,,61003d8e60e719291869b354,61036a8478938179e74f5788,2021-07-29_22h00.43.525,Simcolourproject_2stim_asymm_v5,2020.2.10,Win32,60,61025ae37ef11b136ea224fe,,,,,,,,,3953,-46,83,1,0,0,response7disk,,0,6,-4,1,0,0,rectangle,6,-4,1,0,0,6,-4,1,0,0,1,81,241,143,1,,,,,,,,
,,,,,,,,,,,,,FF,,,,,,,,0.618,,,,,,,,,,,,,,,,,,,,,,61003d8e60e719291869b354,61036a8478938179e74f5788,2021-07-29_22h00.43.525,Simcolourproject_2stim_asymm_v5,2020.2.10,Win32,60,61025ae37ef11b136ea224fe,,,,,,,,,1187,-29,81,1,0,0,response7disk,,0,12,-8,1,0,0,rectangle,12,-8,1,0,0,12,-8,1,0,0,1,82,242,77,1,,,,,,,,
,,,,,,,,,,,,,FF,,,,,,,,1.0487,,,,,,,,,,,,,,,,,,,,,,61003d8e60e719291869b354,61036a8478938179e74f5788,2021-07-29_22h00.43.525,Simcolourproject_2stim_asymm_v5,2020.2.10,Win32,60,61025ae37ef11b136ea224fe,,,,,,,,,1224,102,76,1,0,0,response1disk,,6,-7,2,1,0,0,rectangle,-7,2,1,0,0,-7,2,1,0,0,1,83,243,131,1,,,,,,,,
,,,,,,,,,,,,,FF,,,,,,,,0.6945,,,,,,,,,,,,,,,,,,,,,,61003d8e60e719291869b354,61036a8478938179e74f5788,2021-07-29_22h00.43.525,Simcolourproject_2stim_asymm_v5,2020.2.10,Win32,60,61025ae37ef11b136ea224fe,,,,,,,,,3265,-48,108,1,0,0,response7disk,,0,-12,-7,1,0,0,rectangle,-12,-7,1,0,0,-12,-7,1,0,0,1,84,244,120,1,,,,,,,,
,,,,,,,,,,,,,FF,,,,,,,,0.5488,,,,,,,,,,,,,,,,,,,,,,61003d8e60e719291869b354,61036a8478938179e74f5788,2021-07-29_22h00.43.525,Simcolourproject_2stim_asymm_v5,2020.2.10,Win32,60,61025ae37ef11b136ea224fe,,,,,,,,,3907,-30,96,1,0,0,response7disk,,0,-10,-6,1,0,0,rectangle,-10,-6,1,0,0,-10,-6,1,0,0,1,85,245,36,1,,,,,,,,
,,,,,,,,,,,,,FF,,,,,,,,0.5698,,,,,,,,,,,,,,,,,,,,,,61003d8e60e719291869b354,61036a8478938179e74f5788,2021-07-29_22h00.43.525,Simcolourproject_2stim_asymm_v5,2020.2.10,Win32,60,61025ae37ef11b136ea224fe,,,,,,,,,3975,-46,81,1,0,0,response7disk,,0,-17,-7,1,0,0,rectangle,-17,-7,1,0,0,-17,-7,1,0,0,1,86,246,87,1,,,,,,,,
,,,,,,,,,,,,,FF,,,,,,,,0.8954,,,,,,,,,,,,,,,,,,,,,,61003d8e60e719291869b354,61036a8478938179e74f5788,2021-07-29_22h00.43.525,Simcolourproject_2stim_asymm_v5,2020.2.10,Win32,60,61025ae37ef11b136ea224fe,,,,,,,,,3266,-26,66,1,0,0,response7disk,,0,-6,6,1,0,0,rectangle,-6,6,1,0,0,-6,6,1,0,0,1,87,247,159,1,,,,,,,,
,,,,,,,,,,,,,FF,,,,,,,,0.4652,,,,,,,,,,,,,,,,,,,,,,61003d8e60e719291869b354,61036a8478938179e74f5788,2021-07-29_22h00.43.525,Simcolourproject_2stim_asymm_v5,2020.2.10,Win32,60,61025ae37ef11b136ea224fe,,,,,,,,,3501,-29,67,1,0,0,response7disk,,0,0,-7,1,0,0,rectangle,0,-7,1,0,0,0,-7,1,0,0,1,88,248,79,1,,,,,,,,
,,,,,,,,,,,,,FF,,,,,,,,3.4655,,,,,,,,,,,,,,,,,,,,,,61003d8e60e719291869b354,61036a8478938179e74f5788,2021-07-29_22h00.43.525,Simcolourproject_2stim_asymm_v5,2020.2.10,Win32,60,61025ae37ef11b136ea224fe,,,,,,,,,976,-37,-118,1,0,0,response5disk,,3,-5,-5,1,0,0,rectangle,-5,-5,1,0,0,-5,-5,1,0,0,1,89,249,130,1,,,,,,,,
,,,,,,,,,,,,,FF,,,,,,,,0.7433,,,,,,,,,,,,,,,,,,,,,,61003d8e60e719291869b354,61036a8478938179e74f5788,2021-07-29_22h00.43.525,Simcolourproject_2stim_asymm_v5,2020.2.10,Win32,60,61025ae37ef11b136ea224fe,,,,,,,,,604,-38,74,1,0,0,response7disk,,0,-5,-1,1,0,0,rectangle,-5,-1,1,0,0,-5,-1,1,0,0,1,90,250,103,1,,,,,,,,
,,,,,,,,,,,,,FF,,,,,,,,0.6807,,,,,,,,,,,,,,,,,,,,,,61003d8e60e719291869b354,61036a8478938179e74f5788,2021-07-29_22h00.43.525,Simcolourproject_2stim_asymm_v5,2020.2.10,Win32,60,61025ae37ef11b136ea224fe,,,,,,,,,3688,-48,78,1,0,0,response7disk,,0,-5,-11,1,0,0,rectangle,-5,-11,1,0,0,-5,-11,1,0,0,1,91,251,7,1,,,,,,,,
,,,,,,,,,,,,,FF,,,,,,,,2.0697,,,,,,,,,,,,,,,,,,,,,,61003d8e60e719291869b354,61036a8478938179e74f5788,2021-07-29_22h00.43.525,Simcolourproject_2stim_asymm_v5,2020.2.10,Win32,60,61025ae37ef11b136ea224fe,,,,,,,,,1532,-59,-106,1,0,0,response5disk,,3,-9,7,1,0,0,rectangle,-9,7,1,0,0,-9,7,1,0,0,1,92,252,76,1,,,,,,,,
,,,,,,,,,,,,,FF,,,,,,,,0.7907,,,,,,,,,,,,,,,,,,,,,,61003d8e60e719291869b354,61036a8478938179e74f5788,2021-07-29_22h00.43.525,Simcolourproject_2stim_asymm_v5,2020.2.10,Win32,60,61025ae37ef11b136ea224fe,,,,,,,,,2129,-45,105,1,0,0,response7disk,,0,4,2,1,0,0,rectangle,4,2,1,0,0,4,2,1,0,0,1,93,253,3,1,,,,,,,,
,,,,,,,,,,,,,FF,,,,,,,,2.6941,,,,,,,,,,,,,,,,,,,,,,61003d8e60e719291869b354,61036a8478938179e74f5788,2021-07-29_22h00.43.525,Simcolourproject_2stim_asymm_v5,2020.2.10,Win32,60,61025ae37ef11b136ea224fe,,,,,,,,,3062,-60,-101,1,0,0,response5disk,,3,6,-14,1,0,0,rectangle,6,-14,1,0,0,6,-14,1,0,0,1,94,254,146,1,,,,,,,,
,,,,,,,,,,,,,FF,,,,,,,,0.4549,,,,,,,,,,,,,,,,,,,,,,61003d8e60e719291869b354,61036a8478938179e74f5788,2021-07-29_22h00.43.525,Simcolourproject_2stim_asymm_v5,2020.2.10,Win32,60,61025ae37ef11b136ea224fe,,,,,,,,,2982,-44,76,1,0,0,response7disk,,0,0,-8,1,0,0,rectangle,0,-8,1,0,0,0,-8,1,0,0,1,95,255,63,1,,,,,,,,
,,,,,,,,,,,,,FF,,,,,,,,1.2665,,,,,,,,,,,,,,,,,,,,,,61003d8e60e719291869b354,61036a8478938179e74f5788,2021-07-29_22h00.43.525,Simcolourproject_2stim_asymm_v5,2020.2.10,Win32,60,61025ae37ef11b136ea224fe,,,,,,,,,477,-96,-58,1,0,0,response5disk,,2,1,-11,1,0,0,rectangle,1,-11,1,0,0,1,-11,1,0,0,1,96,256,137,1,,,,,,,,
,,,,,,,,,,,,,FF,,,,,,,,0.7895,,,,,,,,,,,,,,,,,,,,,,61003d8e60e719291869b354,61036a8478938179e74f5788,2021-07-29_22h00.43.525,Simcolourproject_2stim_asymm_v5,2020.2.10,Win32,60,61025ae37ef11b136ea224fe,,,,,,,,,712,-45,102,1,0,0,response7disk,,0,18,-3,1,0,0,rectangle,18,-3,1,0,0,18,-3,1,0,0,1,97,257,124,1,,,,,,,,
,,,,,,,,,,,,,FF,,,,,,,,0.7981,,,,,,,,,,,,,,,,,,,,,,61003d8e60e719291869b354,61036a8478938179e74f5788,2021-07-29_22h00.43.525,Simcolourproject_2stim_asymm_v5,2020.2.10,Win32,60,61025ae37ef11b136ea224fe,,,,,,,,,2785,124,-55,1,0,0,response3disk,,5,15,4,1,0,0,rectangle,15,4,1,0,0,15,4,1,0,0,1,98,258,114,1,,,,,,,,
,,,,,,,,,,,,,FF,,,,,,,,0.415,,,,,,,,,,,,,,,,,,,,,,61003d8e60e719291869b354,61036a8478938179e74f5788,2021-07-29_22h00.43.525,Simcolourproject_2stim_asymm_v5,2020.2.10,Win32,60,61025ae37ef11b136ea224fe,,,,,,,,,1732,-25,95,1,0,0,response7disk,,0,5,-19,1,0,0,rectangle,5,-19,1,0,0,5,-19,1,0,0,1,99,259,113,1,,,,,,,,
,,,,,,,,,,,,,FF,,,,,,,,1.7225,,,,,,,,,,,,,,,,,,,,,,61003d8e60e719291869b354,61036a8478938179e74f5788,2021-07-29_22h00.43.525,Simcolourproject_2stim_asymm_v5,2020.2.10,Win32,60,61025ae37ef11b136ea224fe,,,,,,,,,3851,106,40,1,0,0,response1disk,,6,-13,-11,1,0,0,rectangle,-13,-11,1,0,0,-13,-11,1,0,0,1,100,260,91,1,,,,,,,,
,,,,,,,,,,,,,FF,,,,,,,,1.9778,,,,,,,,,,,,,,,,,,,,,,61003d8e60e719291869b354,61036a8478938179e74f5788,2021-07-29_22h00.43.525,Simcolourproject_2stim_asymm_v5,2020.2.10,Win32,60,61025ae37ef11b136ea224fe,,,,,,,,,1036,-122,-53,1,0,0,response5disk,,2,7,4,1,0,0,rectangle,7,4,1,0,0,7,4,1,0,0,1,101,261,32,1,,,,,,,,
,,,,,,,,,,,,,FF,,,,,,,,0.729,,,,,,,,,,,,,,,,,,,,,,61003d8e60e719291869b354,61036a8478938179e74f5788,2021-07-29_22h00.43.525,Simcolourproject_2stim_asymm_v5,2020.2.10,Win32,60,61025ae37ef11b136ea224fe,,,,,,,,,726,116,45,1,0,0,response1disk,,6,1,-1,1,0,0,rectangle,1,-1,1,0,0,1,-1,1,0,0,1,102,262,116,1,,,,,,,,
,,,,,,,,,,,,,FF,,,,,,,,0.743,,,,,,,,,,,,,,,,,,,,,,61003d8e60e719291869b354,61036a8478938179e74f5788,2021-07-29_22h00.43.525,Simcolourproject_2stim_asymm_v5,2020.2.10,Win32,60,61025ae37ef11b136ea224fe,,,,,,,,,1742,-42,114,1,0,0,response7disk,,0,-5,21,1,0,0,rectangle,-5,21,1,0,0,-5,21,1,0,0,1,103,263,27,1,,,,,,,,
,,,,,,,,,,,,,FF,,,,,,,,0.4443,,,,,,,,,,,,,,,,,,,,,,61003d8e60e719291869b354,61036a8478938179e74f5788,2021-07-29_22h00.43.525,Simcolourproject_2stim_asymm_v5,2020.2.10,Win32,60,61025ae37ef11b136ea224fe,,,,,,,,,86,-27,98,1,0,0,response7disk,,0,1,3,1,0,0,rectangle,-118,40,1,0,0,-9,-5,1,0,0,1,104,264,1,1,,response7disk_3,TRUE,1,1,"[321,13,35,151,24,224,304,227,94,30,146,50,207,200,47,265,67,51,216,301]",1.3612,rectangle
,,,,,,,,,,,,,FF,,,,,,,,0.8749,,,,,,,,,,,,,,,,,,,,,,61003d8e60e719291869b354,61036a8478938179e74f5788,2021-07-29_22h00.43.525,Simcolourproject_2stim_asymm_v5,2020.2.10,Win32,60,61025ae37ef11b136ea224fe,,,,,,,,,3281,-45,116,1,0,0,response7disk,,0,-7,-3,1,0,0,rectangle,-7,-3,1,0,0,-7,-3,1,0,0,1,105,265,11,1,,,,,,,,
,,,,,,,,,,,,,FF,,,,,,,,0.6947,,,,,,,,,,,,,,,,,,,,,,61003d8e60e719291869b354,61036a8478938179e74f5788,2021-07-29_22h00.43.525,Simcolourproject_2stim_asymm_v5,2020.2.10,Win32,60,61025ae37ef11b136ea224fe,,,,,,,,,1822,133,45,1,0,0,response1disk,,6,27,-7,1,0,0,rectangle,27,-7,1,0,0,27,-7,1,0,0,1,106,266,141,1,,,,,,,,
,,,,,,,,,,,,,FF,,,,,,,,0.8755,,,,,,,,,,,,,,,,,,,,,,61003d8e60e719291869b354,61036a8478938179e74f5788,2021-07-29_22h00.43.525,Simcolourproject_2stim_asymm_v5,2020.2.10,Win32,60,61025ae37ef11b136ea224fe,,,,,,,,,1231,112,40,1,0,0,response1disk,,6,-33,16,1,0,0,rectangle,-33,16,1,0,0,-33,16,1,0,0,1,107,267,10,1,,,,,,,,
,,,,,,,,,,,,,FF,,,,,,,,0.6388,,,,,,,,,,,,,,,,,,,,,,61003d8e60e719291869b354,61036a8478938179e74f5788,2021-07-29_22h00.43.525,Simcolourproject_2stim_asymm_v5,2020.2.10,Win32,60,61025ae37ef11b136ea224fe,,,,,,,,,2659,-59,106,1,0,0,response7disk,,0,-10,-8,1,0,0,rectangle,-10,-8,1,0,0,-10,-8,1,0,0,1,108,268,2,1,,,,,,,,
,,,,,,,,,,,,,FF,,,,,,,,0.6807,,,,,,,,,,,,,,,,,,,,,,61003d8e60e719291869b354,61036a8478938179e74f5788,2021-07-29_22h00.43.525,Simcolourproject_2stim_asymm_v5,2020.2.10,Win32,60,61025ae37ef11b136ea224fe,,,,,,,,,3892,-34,69,1,0,0,response7disk,,0,-10,8,1,0,0,rectangle,-10,8,1,0,0,-10,8,1,0,0,1,109,269,47,1,,,,,,,,
,,,,,,,,,,,,,FF,,,,,,,,0.3609,,,,,,,,,,,,,,,,,,,,,,61003d8e60e719291869b354,61036a8478938179e74f5788,2021-07-29_22h00.43.525,Simcolourproject_2stim_asymm_v5,2020.2.10,Win32,60,61025ae37ef11b136ea224fe,,,,,,,,,3167,-41,83,1,0,0,response7disk,,0,-5,1,1,0,0,rectangle,-5,1,1,0,0,-5,1,1,0,0,1,110,270,31,1,,,,,,,,
,,,,,,,,,,,,,FF,,,,,,,,0.3344,,,,,,,,,,,,,,,,,,,,,,61003d8e60e719291869b354,61036a8478938179e74f5788,2021-07-29_22h00.43.525,Simcolourproject_2stim_asymm_v5,2020.2.10,Win32,60,61025ae37ef11b136ea224fe,,,,,,,,,2856,-35,73,1,0,0,response7disk,,0,-6,0,1,0,0,rectangle,-6,0,1,0,0,-6,0,1,0,0,1,111,271,61,1,,,,,,,,
,,,,,,,,,,,,,FF,,,,,,,,0.6321,,,,,,,,,,,,,,,,,,,,,,61003d8e60e719291869b354,61036a8478938179e74f5788,2021-07-29_22h00.43.525,Simcolourproject_2stim_asymm_v5,2020.2.10,Win32,60,61025ae37ef11b136ea224fe,,,,,,,,,3106,134,45,1,0,0,response1disk,,6,23,0,1,0,0,rectangle,23,0,1,0,0,23,0,1,0,0,1,112,272,8,1,,,,,,,,
,,,,,,,,,,,,,FF,,,,,,,,0.4178,,,,,,,,,,,,,,,,,,,,,,61003d8e60e719291869b354,61036a8478938179e74f5788,2021-07-29_22h00.43.525,Simcolourproject_2stim_asymm_v5,2020.2.10,Win32,60,61025ae37ef11b136ea224fe,,,,,,,,,3883,-53,110,1,0,0,response7disk,,0,-5,7,1,0,0,rectangle,-5,7,1,0,0,-5,7,1,0,0,1,113,273,15,1,,,,,,,,
,,,,,,,,,,,,,FF,,,,,,,,0.3751,,,,,,,,,,,,,,,,,,,,,,61003d8e60e719291869b354,61036a8478938179e74f5788,2021-07-29_22h00.43.525,Simcolourproject_2stim_asymm_v5,2020.2.10,Win32,60,61025ae37ef11b136ea224fe,,,,,,,,,2957,-48,88,1,0,0,response7disk,,0,-15,6,1,0,0,rectangle,-15,6,1,0,0,-15,6,1,0,0,1,114,274,24,1,,,,,,,,
,,,,,,,,,,,,,FF,,,,,,,,0.5146,,,,,,,,,,,,,,,,,,,,,,61003d8e60e719291869b354,61036a8478938179e74f5788,2021-07-29_22h00.43.525,Simcolourproject_2stim_asymm_v5,2020.2.10,Win32,60,61025ae37ef11b136ea224fe,,,,,,,,,1001,-35,74,1,0,0,response7disk,,0,-12,0,1,0,0,rectangle,-12,0,1,0,0,-12,0,1,0,0,1,115,275,117,1,,,,,,,,
,,,,,,,,,,,,,FF,,,,,,,,0.8682,,,,,,,,,,,,,,,,,,,,,,61003d8e60e719291869b354,61036a8478938179e74f5788,2021-07-29_22h00.43.525,Simcolourproject_2stim_asymm_v5,2020.2.10,Win32,60,61025ae37ef11b136ea224fe,,,,,,,,,560,-103,-49,1,0,0,response5disk,,2,-20,11,1,0,0,rectangle,-20,11,1,0,0,-20,11,1,0,0,1,116,276,105,1,,,,,,,,
,,,,,,,,,,,,,FF,,,,,,,,0.7913,,,,,,,,,,,,,,,,,,,,,,61003d8e60e719291869b354,61036a8478938179e74f5788,2021-07-29_22h00.43.525,Simcolourproject_2stim_asymm_v5,2020.2.10,Win32,60,61025ae37ef11b136ea224fe,,,,,,,,,1309,135,-82,1,0,0,response3disk,,5,26,-9,1,0,0,rectangle,26,-9,1,0,0,26,-9,1,0,0,1,117,277,64,1,,,,,,,,
,,,,,,,,,,,,,FF,,,,,,,,0.4963,,,,,,,,,,,,,,,,,,,,,,61003d8e60e719291869b354,61036a8478938179e74f5788,2021-07-29_22h00.43.525,Simcolourproject_2stim_asymm_v5,2020.2.10,Win32,60,61025ae37ef11b136ea224fe,,,,,,,,,2818,-40,111,1,0,0,response7disk,,0,-6,-11,1,0,0,rectangle,-6,-11,1,0,0,-6,-11,1,0,0,1,118,278,83,1,,,,,,,,
,,,,,,,,,,,,,FF,,,,,,,,0.4098,,,,,,,,,,,,,,,,,,,,,,61003d8e60e719291869b354,61036a8478938179e74f5788,2021-07-29_22h00.43.525,Simcolourproject_2stim_asymm_v5,2020.2.10,Win32,60,61025ae37ef11b136ea224fe,,,,,,,,,2975,-43,93,1,0,0,response7disk,,0,-10,-5,1,0,0,rectangle,-10,-5,1,0,0,-10,-5,1,0,0,1,119,279,71,1,,,,,,,,
,,,,,,,,,,,,,FF,,,,,,,,5.577,,,,,,,,,,,,,,,,,,,,,,61003d8e60e719291869b354,61036a8478938179e74f5788,2021-07-29_22h00.43.525,Simcolourproject_2stim_asymm_v5,2020.2.10,Win32,60,61025ae37ef11b136ea224fe,,,,,,,,,959,-53,125,1,0,0,response7disk,,0,-12,4,1,0,0,rectangle,-12,4,1,0,0,-12,4,1,0,0,1,120,280,119,1,,,,,,,,
,,,,,,,,,,,,,FF,,,,,,,,0.8682,,,,,,,,,,,,,,,,,,,,,,61003d8e60e719291869b354,61036a8478938179e74f5788,2021-07-29_22h00.43.525,Simcolourproject_2stim_asymm_v5,2020.2.10,Win32,60,61025ae37ef11b136ea224fe,,,,,,,,,2722,118,-61,1,0,0,response3disk,,5,11,-15,1,0,0,rectangle,11,-15,1,0,0,11,-15,1,0,0,1,121,281,133,1,,,,,,,,
,,,,,,,,,,,,,FF,,,,,,,,0.479,,,,,,,,,,,,,,,,,,,,,,61003d8e60e719291869b354,61036a8478938179e74f5788,2021-07-29_22h00.43.525,Simcolourproject_2stim_asymm_v5,2020.2.10,Win32,60,61025ae37ef11b136ea224fe,,,,,,,,,1894,90,-32,1,0,0,response3disk,,5,-13,-4,1,0,0,rectangle,-13,-4,1,0,0,-13,-4,1,0,0,1,122,282,16,1,,,,,,,,
,,,,,,,,,,,,,FF,,,,,,,,1.9517,,,,,,,,,,,,,,,,,,,,,,61003d8e60e719291869b354,61036a8478938179e74f5788,2021-07-29_22h00.43.525,Simcolourproject_2stim_asymm_v5,2020.2.10,Win32,60,61025ae37ef11b136ea224fe,,,,,,,,,745,-70,121,1,0,0,response7disk,,0,-4,3,1,0,0,rectangle,-4,3,1,0,0,-4,3,1,0,0,1,123,283,154,1,,,,,,,,
,,,,,,,,,,,,,FF,,,,,,,,0.4572,,,,,,,,,,,,,,,,,,,,,,61003d8e60e719291869b354,61036a8478938179e74f5788,2021-07-29_22h00.43.525,Simcolourproject_2stim_asymm_v5,2020.2.10,Win32,60,61025ae37ef11b136ea224fe,,,,,,,,,3267,-38,110,1,0,0,response7disk,,0,-3,9,1,0,0,rectangle,-3,9,1,0,0,-3,9,1,0,0,1,124,284,129,1,,,,,,,,
,,,,,,,,,,,,,FF,,,,,,,,0.4451,,,,,,,,,,,,,,,,,,,,,,61003d8e60e719291869b354,61036a8478938179e74f5788,2021-07-29_22h00.43.525,Simcolourproject_2stim_asymm_v5,2020.2.10,Win32,60,61025ae37ef11b136ea224fe,,,,,,,,,1479,-44,87,1,0,0,response7disk,,0,2,-11,1,0,0,rectangle,2,-11,1,0,0,2,-11,1,0,0,1,125,285,132,1,,,,,,,,
,,,,,,,,,,,,,FF,,,,,,,,0.4931,,,,,,,,,,,,,,,,,,,,,,61003d8e60e719291869b354,61036a8478938179e74f5788,2021-07-29_22h00.43.525,Simcolourproject_2stim_asymm_v5,2020.2.10,Win32,60,61025ae37ef11b136ea224fe,,,,,,,,,1858,-48,98,1,0,0,response7disk,,0,-12,3,1,0,0,rectangle,-12,3,1,0,0,-12,3,1,0,0,1,126,286,142,1,,,,,,,,
,,,,,,,,,,,,,FF,,,,,,,,3.4144,,,,,,,,,,,,,,,,,,,,,,61003d8e60e719291869b354,61036a8478938179e74f5788,2021-07-29_22h00.43.525,Simcolourproject_2stim_asymm_v5,2020.2.10,Win32,60,61025ae37ef11b136ea224fe,,,,,,,,,3221,-36,114,1,0,0,response7disk,,0,-6,-3,1,0,0,rectangle,-6,-3,1,0,0,-6,-3,1,0,0,1,127,287,148,1,,,,,,,,
,,,,,,,,,,,,,FF,,,,,,,,0.8055,,,,,,,,,,,,,,,,,,,,,,61003d8e60e719291869b354,61036a8478938179e74f5788,2021-07-29_22h00.43.525,Simcolourproject_2stim_asymm_v5,2020.2.10,Win32,60,61025ae37ef11b136ea224fe,,,,,,,,,2387,-36,124,1,0,0,response7disk,,0,-4,8,1,0,0,rectangle,-4,8,1,0,0,-4,8,1,0,0,1,128,288,101,1,,,,,,,,
,,,,,,,,,,,,,FF,,,,,,,,0.5142,,,,,,,,,,,,,,,,,,,,,,61003d8e60e719291869b354,61036a8478938179e74f5788,2021-07-29_22h00.43.525,Simcolourproject_2stim_asymm_v5,2020.2.10,Win32,60,61025ae37ef11b136ea224fe,,,,,,,,,3935,-47,99,1,0,0,response7disk,,0,-2,13,1,0,0,rectangle,-2,13,1,0,0,-2,13,1,0,0,1,129,289,50,1,,,,,,,,
,,,,,,,,,,,,,FF,,,,,,,,0.5531,,,,,,,,,,,,,,,,,,,,,,61003d8e60e719291869b354,61036a8478938179e74f5788,2021-07-29_22h00.43.525,Simcolourproject_2stim_asymm_v5,2020.2.10,Win32,60,61025ae37ef11b136ea224fe,,,,,,,,,192,-39,109,1,0,0,response7disk,,0,-15,-9,1,0,0,rectangle,-15,-9,1,0,0,-15,-9,1,0,0,1,130,290,82,1,,,,,,,,
,,,,,,,,,,,,,FF,,,,,,,,0.4796,,,,,,,,,,,,,,,,,,,,,,61003d8e60e719291869b354,61036a8478938179e74f5788,2021-07-29_22h00.43.525,Simcolourproject_2stim_asymm_v5,2020.2.10,Win32,60,61025ae37ef11b136ea224fe,,,,,,,,,1362,-65,117,1,0,0,response7disk,,0,-8,4,1,0,0,rectangle,-8,4,1,0,0,-8,4,1,0,0,1,131,291,118,1,,,,,,,,
,,,,,,,,,,,,,FF,,,,,,,,0.368,,,,,,,,,,,,,,,,,,,,,,61003d8e60e719291869b354,61036a8478938179e74f5788,2021-07-29_22h00.43.525,Simcolourproject_2stim_asymm_v5,2020.2.10,Win32,60,61025ae37ef11b136ea224fe,,,,,,,,,927,-45,102,1,0,0,response7disk,,0,-10,-1,1,0,0,rectangle,-10,-1,1,0,0,-10,-1,1,0,0,1,132,292,135,1,,,,,,,,
,,,,,,,,,,,,,FF,,,,,,,,0.6946,,,,,,,,,,,,,,,,,,,,,,61003d8e60e719291869b354,61036a8478938179e74f5788,2021-07-29_22h00.43.525,Simcolourproject_2stim_asymm_v5,2020.2.10,Win32,60,61025ae37ef11b136ea224fe,,,,,,,,,3810,73,93,1,0,0,response1disk,,7,27,4,1,0,0,rectangle,27,4,1,0,0,27,4,1,0,0,1,133,293,28,1,,,,,,,,
,,,,,,,,,,,,,FF,,,,,,,,0.639,,,,,,,,,,,,,,,,,,,,,,61003d8e60e719291869b354,61036a8478938179e74f5788,2021-07-29_22h00.43.525,Simcolourproject_2stim_asymm_v5,2020.2.10,Win32,60,61025ae37ef11b136ea224fe,,,,,,,,,1061,49,119,1,0,0,response1disk,,7,11,10,1,0,0,rectangle,11,10,1,0,0,11,10,1,0,0,1,134,294,6,1,,,,,,,,
,,,,,,,,,,,,,FF,,,,,,,,0.5694,,,,,,,,,,,,,,,,,,,,,,61003d8e60e719291869b354,61036a8478938179e74f5788,2021-07-29_22h00.43.525,Simcolourproject_2stim_asymm_v5,2020.2.10,Win32,60,61025ae37ef11b136ea224fe,,,,,,,,,377,-42,98,1,0,0,response7disk,,0,-10,-1,1,0,0,rectangle,-10,-1,1,0,0,-10,-1,1,0,0,1,135,295,97,1,,,,,,,,
,,,,,,,,,,,,,FF,,,,,,,,2.1806,,,,,,,,,,,,,,,,,,,,,,61003d8e60e719291869b354,61036a8478938179e74f5788,2021-07-29_22h00.43.525,Simcolourproject_2stim_asymm_v5,2020.2.10,Win32,60,61025ae37ef11b136ea224fe,,,,,,,,,3476,131,45,1,0,0,response1disk,,6,7,5,1,0,0,rectangle,7,5,1,0,0,7,5,1,0,0,1,136,296,67,1,,,,,,,,
,,,,,,,,,,,,,FF,,,,,,,,0.4667,,,,,,,,,,,,,,,,,,,,,,61003d8e60e719291869b354,61036a8478938179e74f5788,2021-07-29_22h00.43.525,Simcolourproject_2stim_asymm_v5,2020.2.10,Win32,60,61025ae37ef11b136ea224fe,,,,,,,,,2452,-48,119,1,0,0,response7disk,,0,-8,-7,1,0,0,rectangle,-8,-7,1,0,0,-8,-7,1,0,0,1,137,297,14,1,,,,,,,,
,,,,,,,,,,,,,FF,,,,,,,,0.6667,,,,,,,,,,,,,,,,,,,,,,61003d8e60e719291869b354,61036a8478938179e74f5788,2021-07-29_22h00.43.525,Simcolourproject_2stim_asymm_v5,2020.2.10,Win32,60,61025ae37ef11b136ea224fe,,,,,,,,,1673,108,37,1,0,0,response1disk,,6,26,-2,1,0,0,rectangle,26,-2,1,0,0,26,-2,1,0,0,1,138,298,96,1,,,,,,,,
,,,,,,,,,,,,,FF,,,,,,,,0.4929,,,,,,,,,,,,,,,,,,,,,,61003d8e60e719291869b354,61036a8478938179e74f5788,2021-07-29_22h00.43.525,Simcolourproject_2stim_asymm_v5,2020.2.10,Win32,60,61025ae37ef11b136ea224fe,,,,,,,,,784,-37,95,1,0,0,response7disk,,0,19,4,1,0,0,rectangle,19,4,1,0,0,19,4,1,0,0,1,139,299,42,1,,,,,,,,
,,,,,,,,,,,,,FF,,,,,,,,0.3889,,,,,,,,,,,,,,,,,,,,,,61003d8e60e719291869b354,61036a8478938179e74f5788,2021-07-29_22h00.43.525,Simcolourproject_2stim_asymm_v5,2020.2.10,Win32,60,61025ae37ef11b136ea224fe,,,,,,,,,2378,-66,80,1,0,0,response7disk,,0,-7,-2,1,0,0,rectangle,58,-117,1,0,0,10,8,1,0,0,1,140,300,20,1,,response3disk_3,TRUE,4,4,"[321,13,35,151,24,224,304,227,94,30,146,50,207,200,47,265,67,51,216,301]",1.5834,rectangle
,,,,,,,,,,,,,FF,,,,,,,,0.5484,,,,,,,,,,,,,,,,,,,,,,61003d8e60e719291869b354,61036a8478938179e74f5788,2021-07-29_22h00.43.525,Simcolourproject_2stim_asymm_v5,2020.2.10,Win32,60,61025ae37ef11b136ea224fe,,,,,,,,,1948,-41,104,1,0,0,response7disk,,0,10,5,1,0,0,rectangle,10,5,1,0,0,10,5,1,0,0,1,141,301,62,1,,,,,,,,
