key_resp.keys,key_resp.rt,key_resp_14.keys,key_resp_14.rt,key_resp_15.keys,key_resp_15.rt,key_resp_17.keys,key_resp_17.rt,key_resp_9.keys,key_resp_9.rt,key_resp_10.keys,key_resp_10.rt,practice_comparison,Ecc,mouse_5.x,mouse_5.y,mouse_5.leftButton,mouse_5.midButton,mouse_5.rightButton,mouse_5.clicked_name,pracsimilarity,response_time,mouse_10.x,mouse_10.y,mouse_10.leftButton,mouse_10.midButton,mouse_10.rightButton,mouse_10.clicked_name,mouse_7.x,mouse_7.y,mouse_7.leftButton,mouse_7.midButton,mouse_7.rightButton,mouse_6.x,mouse_6.y,mouse_6.leftButton,mouse_6.midButton,mouse_6.rightButton,duringprac.thisRepN,duringprac.thisTrialN,duringprac.thisN,duringprac.thisIndex,duringprac.ran,participant,session,date,expName,psychopyVersion,OS,frameRate,study_id,mouse_7.clicked_name,catchpracsimilarity,catch_response_time,catchnumberprac,catchtrialorderprac,mouse_6.clicked_name,key_resp_22.keys,key_resp_22.rt,realcomparison,mouse.x,mouse.y,mouse.leftButton,mouse.midButton,mouse.rightButton,mouse.clicked_name,Colour2,similarity,mouse_2.x,mouse_2.y,mouse_2.leftButton,mouse_2.midButton,mouse_2.rightButton,mouse_2.clicked_name,mouse_3.x,mouse_3.y,mouse_3.leftButton,mouse_3.midButton,mouse_3.rightButton,mouse_11.x,mouse_11.y,mouse_11.leftButton,mouse_11.midButton,mouse_11.rightButton,trials_2.thisRepN,trials_2.thisTrialN,trials_2.thisN,trials_2.thisIndex,trials_2.ran,Colour1,mouse_3.clicked_name,catchornah,catchsimilarity,catchnumber,catchtrialorder,catchRT,mouse_11.clicked_name
space,2.44671,space,31.125575,space,50.151395,space,21.39966,space,3.187245,space,6.61432,89,PF,38.79174805,46.37145996,1,0,1,response1disk_5,7,43.9149,14.66223145,-2.332550049,1,0,1,rectangle_8,14.66223145,-2.332550049,1,0,1,14.66223145,-2.332550049,1,0,1,0,0,0,6,1,6100ac178a474bfcc555379b,61036798113185a62b47c86b,2021-07-29_21h48.14.341,Simcolourproject_2stim_asymm_v5,2020.2.10,Linux x86_64,60,61025ae37ef11b136ea224fe,,,,,,,,,,,,,,,,,,,,,,,,,,,,,,,,,,,,,,,,,,,,,,
,,,,,,,,,,,,21,PF,26.70251465,-63.83303833,1,0,1,response3disk_5,4,2.63344,16.00396729,-4.345611572,1,0,1,rectangle_8,-50.61004639,-76.41049194,1,0,1,-4.837280273,-1.235137939,1,0,1,0,1,1,4,1,6100ac178a474bfcc555379b,61036798113185a62b47c86b,2021-07-29_21h48.14.341,Simcolourproject_2stim_asymm_v5,2020.2.10,Linux x86_64,60,61025ae37ef11b136ea224fe,response5disk_7,3,3.93377,3,"[2,5]",rectangle_4,,,,,,,,,,,,,,,,,,,,,,,,,,,,,,,,,,,,,,,,
,,,,,,,,,,,,28,FF,53.5581665,-77.52841187,1,0,1,response3disk_5,4,6.616285,0.80255127,-4.650878906,1,0,1,rectangle_8,0.80255127,-4.650878906,1,0,1,0.80255127,-4.650878906,1,0,1,0,2,2,5,1,6100ac178a474bfcc555379b,61036798113185a62b47c86b,2021-07-29_21h48.14.341,Simcolourproject_2stim_asymm_v5,2020.2.10,Linux x86_64,60,61025ae37ef11b136ea224fe,,,,,,,,,,,,,,,,,,,,,,,,,,,,,,,,,,,,,,,,,,,,,,
,,,,,,,,,,,,149,FF,-87.83831787,-50.82983398,1,0,1,response5disk_5,2,2.716415,-2.696105957,-3.500640869,1,0,1,rectangle_8,-2.696105957,-3.500640869,1,0,1,-2.696105957,-3.500640869,1,0,1,0,3,3,0,1,6100ac178a474bfcc555379b,61036798113185a62b47c86b,2021-07-29_21h48.14.341,Simcolourproject_2stim_asymm_v5,2020.2.10,Linux x86_64,60,61025ae37ef11b136ea224fe,,,,,,,,,,,,,,,,,,,,,,,,,,,,,,,,,,,,,,,,,,,,,,
,,,,,,,,,,,,4,FF,-63.10186768,50.93261719,1,0,1,response7disk_5,1,1.58338,3.649780273,2.042358398,1,0,1,rectangle_8,-46.72167969,-84.79730225,1,0,1,23.57220459,12.28173828,1,0,1,0,4,4,3,1,6100ac178a474bfcc555379b,61036798113185a62b47c86b,2021-07-29_21h48.14.341,Simcolourproject_2stim_asymm_v5,2020.2.10,Linux x86_64,60,61025ae37ef11b136ea224fe,response5disk_7,3,2.116665,3,"[2,5]",rectangle_4,,,,,,,,,,,,,,,,,,,,,,,,,,,,,,,,,,,,,,,,
,,,,,,,,,,,,112,PF,30.43133545,-77.36886597,1,0,1,response3disk_5,4,2.5996,20.33483887,-1.265380859,1,0,1,rectangle_8,20.33483887,-1.265380859,1,0,1,20.33483887,-1.265380859,1,0,1,0,5,5,2,1,6100ac178a474bfcc555379b,61036798113185a62b47c86b,2021-07-29_21h48.14.341,Simcolourproject_2stim_asymm_v5,2020.2.10,Linux x86_64,60,61025ae37ef11b136ea224fe,,,,,,,,,,,,,,,,,,,,,,,,,,,,,,,,,,,,,,,,,,,,,,
,,,,,,,,,,,,147,PF,27.93304443,-67.197052,1,0,1,response3disk_5,4,1.93327,12.39025879,-2.77355957,1,0,1,rectangle_8,12.39025879,-2.77355957,1,0,1,12.39025879,-2.77355957,1,0,1,0,6,6,1,1,6100ac178a474bfcc555379b,61036798113185a62b47c86b,2021-07-29_21h48.14.341,Simcolourproject_2stim_asymm_v5,2020.2.10,Linux x86_64,60,61025ae37ef11b136ea224fe,,,,,,,,,,,,,,,,,,,,,,,,,,,,,,,,,,,,,,,,,,,,,,
,,,,,,,,,,,,,FF,,,,,,,,4.900545,,,,,,,,,,,,,,,,,,,,,,6100ac178a474bfcc555379b,61036798113185a62b47c86b,2021-07-29_21h48.14.341,Simcolourproject_2stim_asymm_v5,2020.2.10,Linux x86_64,60,61025ae37ef11b136ea224fe,,,,,,,space,7.745325,2503,68.86749268,-38.26553345,1,0,1,response3disk,,5,19.74102783,-0.425506592,1,0,1,rectangle,19.74102783,-0.425506592,1,0,1,19.74102783,-0.425506592,1,0,1,0,0,0,99,1,,,,,,,,
,,,,,,,,,,,,,FF,,,,,,,,1.417185,,,,,,,,,,,,,,,,,,,,,,6100ac178a474bfcc555379b,61036798113185a62b47c86b,2021-07-29_21h48.14.341,Simcolourproject_2stim_asymm_v5,2020.2.10,Linux x86_64,60,61025ae37ef11b136ea224fe,,,,,,,,,1855,48.55895996,-38.68881226,1,0,1,response3disk,,5,2.40234375,-0.973114014,1,0,1,rectangle,2.40234375,-0.973114014,1,0,1,2.40234375,-0.973114014,1,0,1,0,1,1,109,1,,,,,,,,
,,,,,,,,,,,,,FF,,,,,,,,1.450445,,,,,,,,,,,,,,,,,,,,,,6100ac178a474bfcc555379b,61036798113185a62b47c86b,2021-07-29_21h48.14.341,Simcolourproject_2stim_asymm_v5,2020.2.10,Linux x86_64,60,61025ae37ef11b136ea224fe,,,,,,,,,3226,36.3729248,-69.19454956,1,0,1,response3disk,,4,11.88256836,-12.6244812,1,0,1,rectangle,11.88256836,-12.6244812,1,0,1,11.88256836,-12.6244812,1,0,1,0,2,2,4,1,,,,,,,,
,,,,,,,,,,,,,FF,,,,,,,,2.28335,,,,,,,,,,,,,,,,,,,,,,6100ac178a474bfcc555379b,61036798113185a62b47c86b,2021-07-29_21h48.14.341,Simcolourproject_2stim_asymm_v5,2020.2.10,Linux x86_64,60,61025ae37ef11b136ea224fe,,,,,,,,,210,73.21356201,48.0402832,1,0,1,response1disk,,6,21.5927124,-4.626525879,1,0,1,rectangle,21.5927124,-4.626525879,1,0,1,21.5927124,-4.626525879,1,0,1,0,3,3,101,1,,,,,,,,
,,,,,,,,,,,,,FF,,,,,,,,0.96625,,,,,,,,,,,,,,,,,,,,,,6100ac178a474bfcc555379b,61036798113185a62b47c86b,2021-07-29_21h48.14.341,Simcolourproject_2stim_asymm_v5,2020.2.10,Linux x86_64,60,61025ae37ef11b136ea224fe,,,,,,,,,3935,-57.17559814,-35.21798706,1,0,1,response5disk,,2,-20.43707275,-3.098205566,1,0,1,rectangle,-20.43707275,-3.098205566,1,0,1,-20.43707275,-3.098205566,1,0,1,0,4,4,79,1,,,,,,,,
,,,,,,,,,,,,,FF,,,,,,,,1.63325,,,,,,,,,,,,,,,,,,,,,,6100ac178a474bfcc555379b,61036798113185a62b47c86b,2021-07-29_21h48.14.341,Simcolourproject_2stim_asymm_v5,2020.2.10,Linux x86_64,60,61025ae37ef11b136ea224fe,,,,,,,,,1381,-56.40142822,31.03683472,1,0,1,response7disk,,1,-18.90216064,-15.01373291,1,0,1,rectangle,-18.90216064,-15.01373291,1,0,1,-18.90216064,-15.01373291,1,0,1,0,5,5,66,1,,,,,,,,
,,,,,,,,,,,,,FF,,,,,,,,0.899885,,,,,,,,,,,,,,,,,,,,,,6100ac178a474bfcc555379b,61036798113185a62b47c86b,2021-07-29_21h48.14.341,Simcolourproject_2stim_asymm_v5,2020.2.10,Linux x86_64,60,61025ae37ef11b136ea224fe,,,,,,,,,3920,-54.08679199,34.38830566,1,0,1,response7disk,,1,11.00317383,0.633148193,1,0,1,rectangle,11.00317383,0.633148193,1,0,1,11.00317383,0.633148193,1,0,1,0,6,6,129,1,,,,,,,,
,,,,,,,,,,,,,FF,,,,,,,,0.883635,,,,,,,,,,,,,,,,,,,,,,6100ac178a474bfcc555379b,61036798113185a62b47c86b,2021-07-29_21h48.14.341,Simcolourproject_2stim_asymm_v5,2020.2.10,Linux x86_64,60,61025ae37ef11b136ea224fe,,,,,,,,,3264,37.08349609,-59.43023682,1,0,1,response3disk,,4,8.2578125,2.146789551,1,0,1,rectangle,8.2578125,2.146789551,1,0,1,8.2578125,2.146789551,1,0,1,0,7,7,86,1,,,,,,,,
,,,,,,,,,,,,,FF,,,,,,,,1.450405,,,,,,,,,,,,,,,,,,,,,,6100ac178a474bfcc555379b,61036798113185a62b47c86b,2021-07-29_21h48.14.341,Simcolourproject_2stim_asymm_v5,2020.2.10,Linux x86_64,60,61025ae37ef11b136ea224fe,,,,,,,,,2119,-39.68707275,-65.61419678,1,0,1,response5disk,,3,9.085205078,-5.736755371,1,0,1,rectangle,9.085205078,-5.736755371,1,0,1,9.085205078,-5.736755371,1,0,1,0,8,8,90,1,,,,,,,,
,,,,,,,,,,,,,FF,,,,,,,,2.049545,,,,,,,,,,,,,,,,,,,,,,6100ac178a474bfcc555379b,61036798113185a62b47c86b,2021-07-29_21h48.14.341,Simcolourproject_2stim_asymm_v5,2020.2.10,Linux x86_64,60,61025ae37ef11b136ea224fe,,,,,,,,,1467,-59.20092773,-37.21994019,1,0,1,response5disk,,2,7.205566406,13.00222778,1,0,1,rectangle,7.205566406,13.00222778,1,0,1,7.205566406,13.00222778,1,0,1,0,9,9,44,1,,,,,,,,
,,,,,,,,,,,,,FF,,,,,,,,1.551925,,,,,,,,,,,,,,,,,,,,,,6100ac178a474bfcc555379b,61036798113185a62b47c86b,2021-07-29_21h48.14.341,Simcolourproject_2stim_asymm_v5,2020.2.10,Linux x86_64,60,61025ae37ef11b136ea224fe,,,,,,,,,141,29.82684326,-64.49224854,1,0,1,response3disk,,4,18.15258789,0.967285156,1,0,1,rectangle,18.15258789,0.967285156,1,0,1,18.15258789,0.967285156,1,0,1,0,10,10,150,1,,,,,,,,
,,,,,,,,,,,,,FF,,,,,,,,1.08321,,,,,,,,,,,,,,,,,,,,,,6100ac178a474bfcc555379b,61036798113185a62b47c86b,2021-07-29_21h48.14.341,Simcolourproject_2stim_asymm_v5,2020.2.10,Linux x86_64,60,61025ae37ef11b136ea224fe,,,,,,,,,3450,40.39581299,-31.31628418,1,0,1,response3disk,,5,5.206359863,-7.580749512,1,0,1,rectangle,5.206359863,-7.580749512,1,0,1,5.206359863,-7.580749512,1,0,1,0,11,11,74,1,,,,,,,,
,,,,,,,,,,,,,FF,,,,,,,,2.266765,,,,,,,,,,,,,,,,,,,,,,6100ac178a474bfcc555379b,61036798113185a62b47c86b,2021-07-29_21h48.14.341,Simcolourproject_2stim_asymm_v5,2020.2.10,Linux x86_64,60,61025ae37ef11b136ea224fe,,,,,,,,,3145,52.13024902,27.940979,1,0,1,response1disk,,6,14.6986084,-0.613128662,1,0,1,rectangle,14.6986084,-0.613128662,1,0,1,14.6986084,-0.613128662,1,0,1,0,12,12,123,1,,,,,,,,
,,,,,,,,,,,,,FF,,,,,,,,3.70405,,,,,,,,,,,,,,,,,,,,,,6100ac178a474bfcc555379b,61036798113185a62b47c86b,2021-07-29_21h48.14.341,Simcolourproject_2stim_asymm_v5,2020.2.10,Linux x86_64,60,61025ae37ef11b136ea224fe,,,,,,,,,4316,-43.99243164,64.91235352,1,0,1,response7disk,,0,-17.61077881,-3.05480957,1,0,1,rectangle,-17.61077881,-3.05480957,1,0,1,-17.61077881,-3.05480957,1,0,1,0,13,13,134,1,,,,,,,,
,,,,,,,,,,,,,FF,,,,,,,,1.883605,,,,,,,,,,,,,,,,,,,,,,6100ac178a474bfcc555379b,61036798113185a62b47c86b,2021-07-29_21h48.14.341,Simcolourproject_2stim_asymm_v5,2020.2.10,Linux x86_64,60,61025ae37ef11b136ea224fe,,,,,,,,,545,94.1809082,24.90127563,1,0,1,response1disk,,6,22.28283691,-4.249511719,1,0,1,rectangle,22.28283691,-4.249511719,1,0,1,22.28283691,-4.249511719,1,0,1,0,14,14,39,1,,,,,,,,
,,,,,,,,,,,,,FF,,,,,,,,1.233505,,,,,,,,,,,,,,,,,,,,,,6100ac178a474bfcc555379b,61036798113185a62b47c86b,2021-07-29_21h48.14.341,Simcolourproject_2stim_asymm_v5,2020.2.10,Linux x86_64,60,61025ae37ef11b136ea224fe,,,,,,,,,3102,25.3494873,-65.57641602,1,0,1,response3disk,,4,1.623840332,11.54962158,1,0,1,rectangle,1.623840332,11.54962158,1,0,1,1.623840332,11.54962158,1,0,1,0,15,15,145,1,,,,,,,,
,,,,,,,,,,,,,FF,,,,,,,,1.3015,,,,,,,,,,,,,,,,,,,,,,6100ac178a474bfcc555379b,61036798113185a62b47c86b,2021-07-29_21h48.14.341,Simcolourproject_2stim_asymm_v5,2020.2.10,Linux x86_64,60,61025ae37ef11b136ea224fe,,,,,,,,,2276,61.58123779,-37.84301758,1,0,1,response3disk,,5,11.3348999,-10.5362854,1,0,1,rectangle,11.3348999,-10.5362854,1,0,1,11.3348999,-10.5362854,1,0,1,0,16,16,65,1,,,,,,,,
,,,,,,,,,,,,,FF,,,,,,,,0.900155,,,,,,,,,,,,,,,,,,,,,,6100ac178a474bfcc555379b,61036798113185a62b47c86b,2021-07-29_21h48.14.341,Simcolourproject_2stim_asymm_v5,2020.2.10,Linux x86_64,60,61025ae37ef11b136ea224fe,,,,,,,,,2314,66.08154297,-35.32513428,1,0,1,response3disk,,5,25.14428711,-2.982513428,1,0,1,rectangle,25.14428711,-2.982513428,1,0,1,25.14428711,-2.982513428,1,0,1,0,17,17,12,1,,,,,,,,
,,,,,,,,,,,,,FF,,,,,,,,1.48354,,,,,,,,,,,,,,,,,,,,,,6100ac178a474bfcc555379b,61036798113185a62b47c86b,2021-07-29_21h48.14.341,Simcolourproject_2stim_asymm_v5,2020.2.10,Linux x86_64,60,61025ae37ef11b136ea224fe,,,,,,,,,2140,30.87786865,84.1756897,1,0,1,response1disk,,7,-3.020385742,-1.940917969,1,0,1,rectangle,-3.020385742,-1.940917969,1,0,1,-3.020385742,-1.940917969,1,0,1,0,18,18,110,1,,,,,,,,
,,,,,,,,,,,,,FF,,,,,,,,1.399895,,,,,,,,,,,,,,,,,,,,,,6100ac178a474bfcc555379b,61036798113185a62b47c86b,2021-07-29_21h48.14.341,Simcolourproject_2stim_asymm_v5,2020.2.10,Linux x86_64,60,61025ae37ef11b136ea224fe,,,,,,,,,744,100.1755981,44.37579346,1,0,1,response1disk,,6,3.408630371,-4.131134033,1,0,1,rectangle,3.408630371,-4.131134033,1,0,1,3.408630371,-4.131134033,1,0,1,0,19,19,52,1,,,,,,,,
,,,,,,,,,,,,,FF,,,,,,,,0.966745,,,,,,,,,,,,,,,,,,,,,,6100ac178a474bfcc555379b,61036798113185a62b47c86b,2021-07-29_21h48.14.341,Simcolourproject_2stim_asymm_v5,2020.2.10,Linux x86_64,60,61025ae37ef11b136ea224fe,,,,,,,,,3656,58.89428711,29.16882324,1,0,1,response1disk,,6,14.034729,0.396911621,1,0,1,rectangle,14.034729,0.396911621,1,0,1,14.034729,0.396911621,1,0,1,0,20,20,98,1,,,,,,,,
,,,,,,,,,,,,,FF,,,,,,,,1.116985,,,,,,,,,,,,,,,,,,,,,,6100ac178a474bfcc555379b,61036798113185a62b47c86b,2021-07-29_21h48.14.341,Simcolourproject_2stim_asymm_v5,2020.2.10,Linux x86_64,60,61025ae37ef11b136ea224fe,,,,,,,,,3701,22.58190918,-51.66192627,1,0,1,response3disk,,4,-8.779907227,6.337585449,1,0,1,rectangle,-8.779907227,6.337585449,1,0,1,-8.779907227,6.337585449,1,0,1,0,21,21,51,1,,,,,,,,
,,,,,,,,,,,,,FF,,,,,,,,1.002145,,,,,,,,,,,,,,,,,,,,,,6100ac178a474bfcc555379b,61036798113185a62b47c86b,2021-07-29_21h48.14.341,Simcolourproject_2stim_asymm_v5,2020.2.10,Linux x86_64,60,61025ae37ef11b136ea224fe,,,,,,,,,3527,31.23413086,-50.89938354,1,0,1,response3disk,,4,-3.077087402,2.364715576,1,0,1,rectangle,-3.077087402,2.364715576,1,0,1,-3.077087402,2.364715576,1,0,1,0,22,22,69,1,,,,,,,,
,,,,,,,,,,,,,FF,,,,,,,,0.81038,,,,,,,,,,,,,,,,,,,,,,6100ac178a474bfcc555379b,61036798113185a62b47c86b,2021-07-29_21h48.14.341,Simcolourproject_2stim_asymm_v5,2020.2.10,Linux x86_64,60,61025ae37ef11b136ea224fe,,,,,,,,,2699,84.84307861,-49.16369629,1,0,1,response3disk,,5,29.68182373,-6.433654785,1,0,1,rectangle,29.68182373,-6.433654785,1,0,1,29.68182373,-6.433654785,1,0,1,0,23,23,68,1,,,,,,,,
,,,,,,,,,,,,,FF,,,,,,,,1.200435,,,,,,,,,,,,,,,,,,,,,,6100ac178a474bfcc555379b,61036798113185a62b47c86b,2021-07-29_21h48.14.341,Simcolourproject_2stim_asymm_v5,2020.2.10,Linux x86_64,60,61025ae37ef11b136ea224fe,,,,,,,,,1172,47.77313232,29.33111572,1,0,1,response1disk,,6,-1.130310059,0.84942627,1,0,1,rectangle,-1.130310059,0.84942627,1,0,1,-1.130310059,0.84942627,1,0,1,0,24,24,154,1,,,,,,,,
,,,,,,,,,,,,,FF,,,,,,,,1.24968,,,,,,,,,,,,,,,,,,,,,,6100ac178a474bfcc555379b,61036798113185a62b47c86b,2021-07-29_21h48.14.341,Simcolourproject_2stim_asymm_v5,2020.2.10,Linux x86_64,60,61025ae37ef11b136ea224fe,,,,,,,,,911,30.8404541,-63.08343506,1,0,1,response3disk,,4,8.116088867,5.863861084,1,0,1,rectangle,8.116088867,5.863861084,1,0,1,8.116088867,5.863861084,1,0,1,0,25,25,5,1,,,,,,,,
,,,,,,,,,,,,,FF,,,,,,,,1.250415,,,,,,,,,,,,,,,,,,,,,,6100ac178a474bfcc555379b,61036798113185a62b47c86b,2021-07-29_21h48.14.341,Simcolourproject_2stim_asymm_v5,2020.2.10,Linux x86_64,60,61025ae37ef11b136ea224fe,,,,,,,,,2246,42.80609131,49.9571228,1,0,1,response1disk,,7,1.639160156,-0.944946289,1,0,1,rectangle,1.639160156,-0.944946289,1,0,1,1.639160156,-0.944946289,1,0,1,0,26,26,60,1,,,,,,,,
,,,,,,,,,,,,,FF,,,,,,,,0.983365,,,,,,,,,,,,,,,,,,,,,,6100ac178a474bfcc555379b,61036798113185a62b47c86b,2021-07-29_21h48.14.341,Simcolourproject_2stim_asymm_v5,2020.2.10,Linux x86_64,60,61025ae37ef11b136ea224fe,,,,,,,,,2161,63.3157959,-40.76068115,1,0,1,response3disk,,5,22.26031494,-6.858215332,1,0,1,rectangle,22.26031494,-6.858215332,1,0,1,22.26031494,-6.858215332,1,0,1,0,27,27,71,1,,,,,,,,
,,,,,,,,,,,,,FF,,,,,,,,1.35053,,,,,,,,,,,,,,,,,,,,,,6100ac178a474bfcc555379b,61036798113185a62b47c86b,2021-07-29_21h48.14.341,Simcolourproject_2stim_asymm_v5,2020.2.10,Linux x86_64,60,61025ae37ef11b136ea224fe,,,,,,,,,3305,26.53460693,-28.2935791,1,0,1,response3disk,,4,-0.962341309,5.338500977,1,0,1,rectangle,-0.962341309,5.338500977,1,0,1,-0.962341309,5.338500977,1,0,1,0,28,28,128,1,,,,,,,,
,,,,,,,,,,,,,FF,,,,,,,,1.61726,,,,,,,,,,,,,,,,,,,,,,6100ac178a474bfcc555379b,61036798113185a62b47c86b,2021-07-29_21h48.14.341,Simcolourproject_2stim_asymm_v5,2020.2.10,Linux x86_64,60,61025ae37ef11b136ea224fe,,,,,,,,,2951,-55.85803223,-38.41256714,1,0,1,response5disk,,2,-18.45678711,-4.574554443,1,0,1,rectangle,-18.45678711,-4.574554443,1,0,1,-18.45678711,-4.574554443,1,0,1,0,29,29,94,1,,,,,,,,
,,,,,,,,,,,,,FF,,,,,,,,0.8665,,,,,,,,,,,,,,,,,,,,,,6100ac178a474bfcc555379b,61036798113185a62b47c86b,2021-07-29_21h48.14.341,Simcolourproject_2stim_asymm_v5,2020.2.10,Linux x86_64,60,61025ae37ef11b136ea224fe,,,,,,,,,1793,27.9362793,-44.9994812,1,0,1,response3disk,,4,9.03112793,5.911560059,1,0,1,rectangle,9.03112793,5.911560059,1,0,1,9.03112793,5.911560059,1,0,1,0,30,30,125,1,,,,,,,,
,,,,,,,,,,,,,FF,,,,,,,,2.499885,,,,,,,,,,,,,,,,,,,,,,6100ac178a474bfcc555379b,61036798113185a62b47c86b,2021-07-29_21h48.14.341,Simcolourproject_2stim_asymm_v5,2020.2.10,Linux x86_64,60,61025ae37ef11b136ea224fe,,,,,,,,,387,-37.02612305,-64.47137451,1,0,1,response5disk,,3,-18.40118408,-8.918731689,1,0,1,rectangle,-18.40118408,-8.918731689,1,0,1,-18.40118408,-8.918731689,1,0,1,0,31,31,139,1,,,,,,,,
,,,,,,,,,,,,,FF,,,,,,,,1.787485,,,,,,,,,,,,,,,,,,,,,,6100ac178a474bfcc555379b,61036798113185a62b47c86b,2021-07-29_21h48.14.341,Simcolourproject_2stim_asymm_v5,2020.2.10,Linux x86_64,60,61025ae37ef11b136ea224fe,,,,,,,,,615,43.49731445,-68.04647827,1,0,1,response3disk,,4,12.28094482,-5.973693848,1,0,1,rectangle,12.28094482,-5.973693848,1,0,1,12.28094482,-5.973693848,1,0,1,0,32,32,37,1,,,,,,,,
,,,,,,,,,,,,,FF,,,,,,,,1.150175,,,,,,,,,,,,,,,,,,,,,,6100ac178a474bfcc555379b,61036798113185a62b47c86b,2021-07-29_21h48.14.341,Simcolourproject_2stim_asymm_v5,2020.2.10,Linux x86_64,60,61025ae37ef11b136ea224fe,,,,,,,,,3817,-79.86730957,-27.59146118,1,0,1,response5disk,,2,-7.158081055,-9.339263916,1,0,1,rectangle,-7.158081055,-9.339263916,1,0,1,-7.158081055,-9.339263916,1,0,1,0,33,33,127,1,,,,,,,,
,,,,,,,,,,,,,FF,,,,,,,,9.78327,,,,,,,,,,,,,,,,,,,,,,6100ac178a474bfcc555379b,61036798113185a62b47c86b,2021-07-29_21h48.14.341,Simcolourproject_2stim_asymm_v5,2020.2.10,Linux x86_64,60,61025ae37ef11b136ea224fe,,,,,,,,,3009,20.09289551,-60.28930664,1,0,1,response3disk,,4,-11.01593018,3.39730835,1,0,1,rectangle,-11.01593018,3.39730835,1,0,1,-11.01593018,3.39730835,1,0,1,0,34,34,84,1,,,,,,,,
,,,,,,,,,,,,,FF,,,,,,,,1.03342,,,,,,,,,,,,,,,,,,,,,,6100ac178a474bfcc555379b,61036798113185a62b47c86b,2021-07-29_21h48.14.341,Simcolourproject_2stim_asymm_v5,2020.2.10,Linux x86_64,60,61025ae37ef11b136ea224fe,,,,,,,,,1961,-62.22479248,-36.21350098,1,0,1,response5disk,,2,-19.91186523,8.653808594,1,0,1,rectangle,-19.91186523,8.653808594,1,0,1,-19.91186523,8.653808594,1,0,1,0,35,35,13,1,,,,,,,,
,,,,,,,,,,,,,FF,,,,,,,,0.81623,,,,,,,,,,,,,,,,,,,,,,6100ac178a474bfcc555379b,61036798113185a62b47c86b,2021-07-29_21h48.14.341,Simcolourproject_2stim_asymm_v5,2020.2.10,Linux x86_64,60,61025ae37ef11b136ea224fe,,,,,,,,,1051,-47.62353516,30.95397949,1,0,1,response7disk,,1,-12.75714111,-6.229125977,1,0,1,rectangle,-12.75714111,-6.229125977,1,0,1,-12.75714111,-6.229125977,1,0,1,0,36,36,72,1,,,,,,,,
,,,,,,,,,,,,,FF,,,,,,,,1.283595,,,,,,,,,,,,,,,,,,,,,,6100ac178a474bfcc555379b,61036798113185a62b47c86b,2021-07-29_21h48.14.341,Simcolourproject_2stim_asymm_v5,2020.2.10,Linux x86_64,60,61025ae37ef11b136ea224fe,,,,,,,,,2501,46.96496582,-31.18795776,1,0,1,response3disk,,5,13.11309814,1.906982422,1,0,1,rectangle,13.11309814,1.906982422,1,0,1,13.11309814,1.906982422,1,0,1,0,37,37,124,1,,,,,,,,
,,,,,,,,,,,,,FF,,,,,,,,1.11776,,,,,,,,,,,,,,,,,,,,,,6100ac178a474bfcc555379b,61036798113185a62b47c86b,2021-07-29_21h48.14.341,Simcolourproject_2stim_asymm_v5,2020.2.10,Linux x86_64,60,61025ae37ef11b136ea224fe,,,,,,,,,2751,57.54150391,-52.63632202,1,0,1,response3disk,,5,9.480407715,-4.362823486,1,0,1,rectangle,9.480407715,-4.362823486,1,0,1,9.480407715,-4.362823486,1,0,1,0,38,38,15,1,,,,,,,,
,,,,,,,,,,,,,FF,,,,,,,,1.09988,,,,,,,,,,,,,,,,,,,,,,6100ac178a474bfcc555379b,61036798113185a62b47c86b,2021-07-29_21h48.14.341,Simcolourproject_2stim_asymm_v5,2020.2.10,Linux x86_64,60,61025ae37ef11b136ea224fe,,,,,,,,,519,69.49890137,35.19189453,1,0,1,response1disk,,6,12.24694824,0.810760498,1,0,1,rectangle,12.24694824,0.810760498,1,0,1,12.24694824,0.810760498,1,0,1,0,39,39,40,1,,,,,,,,
,,,,,,,,,,,,,FF,,,,,,,,2.299965,,,,,,,,,,,,,,,,,,,,,,6100ac178a474bfcc555379b,61036798113185a62b47c86b,2021-07-29_21h48.14.341,Simcolourproject_2stim_asymm_v5,2020.2.10,Linux x86_64,60,61025ae37ef11b136ea224fe,,,,,,,,,1924,28.54534912,-60.96560669,1,0,1,response3disk,,4,-3.262268066,6.150634766,1,0,1,rectangle,-3.262268066,6.150634766,1,0,1,-3.262268066,6.150634766,1,0,1,0,40,40,97,1,,,,,,,,
,,,,,,,,,,,,,FF,,,,,,,,1.83348,,,,,,,,,,,,,,,,,,,,,,6100ac178a474bfcc555379b,61036798113185a62b47c86b,2021-07-29_21h48.14.341,Simcolourproject_2stim_asymm_v5,2020.2.10,Linux x86_64,60,61025ae37ef11b136ea224fe,,,,,,,,,3384,-54.2210083,-29.45419312,1,0,1,response5disk,,2,14.13293457,2.263000488,1,0,1,rectangle,14.13293457,2.263000488,1,0,1,14.13293457,2.263000488,1,0,1,0,41,41,140,1,,,,,,,,
,,,,,,,,,,,,,FF,,,,,,,,1.03355,,,,,,,,,,,,,,,,,,,,,,6100ac178a474bfcc555379b,61036798113185a62b47c86b,2021-07-29_21h48.14.341,Simcolourproject_2stim_asymm_v5,2020.2.10,Linux x86_64,60,61025ae37ef11b136ea224fe,,,,,,,,,3831,44.43756104,-66.25793457,1,0,1,response3disk,,4,0.500915527,-4.573242188,1,0,1,rectangle,0.500915527,-4.573242188,1,0,1,0.500915527,-4.573242188,1,0,1,0,42,42,53,1,,,,,,,,
,,,,,,,,,,,,,FF,,,,,,,,0.99987,,,,,,,,,,,,,,,,,,,,,,6100ac178a474bfcc555379b,61036798113185a62b47c86b,2021-07-29_21h48.14.341,Simcolourproject_2stim_asymm_v5,2020.2.10,Linux x86_64,60,61025ae37ef11b136ea224fe,,,,,,,,,596,73.23571777,-40.63226318,1,0,1,response3disk,,5,25.89343262,-1.377410889,1,0,1,rectangle,25.89343262,-1.377410889,1,0,1,25.89343262,-1.377410889,1,0,1,0,43,43,20,1,,,,,,,,
,,,,,,,,,,,,,FF,,,,,,,,1.46717,,,,,,,,,,,,,,,,,,,,,,6100ac178a474bfcc555379b,61036798113185a62b47c86b,2021-07-29_21h48.14.341,Simcolourproject_2stim_asymm_v5,2020.2.10,Linux x86_64,60,61025ae37ef11b136ea224fe,,,,,,,,,348,-68.38885498,-34.05316162,1,0,1,response5disk,,2,9.152587891,-0.693450928,1,0,1,rectangle,9.152587891,-0.693450928,1,0,1,9.152587891,-0.693450928,1,0,1,0,44,44,153,1,,,,,,,,
,,,,,,,,,,,,,FF,,,,,,,,1.01612,,,,,,,,,,,,,,,,,,,,,,6100ac178a474bfcc555379b,61036798113185a62b47c86b,2021-07-29_21h48.14.341,Simcolourproject_2stim_asymm_v5,2020.2.10,Linux x86_64,60,61025ae37ef11b136ea224fe,,,,,,,,,1418,35.89099121,-60.23007202,1,0,1,response3disk,,4,4.207763672,3.276580811,1,0,1,rectangle,4.207763672,3.276580811,1,0,1,4.207763672,3.276580811,1,0,1,0,45,45,83,1,,,,,,,,
,,,,,,,,,,,,,FF,,,,,,,,0.935415,,,,,,,,,,,,,,,,,,,,,,6100ac178a474bfcc555379b,61036798113185a62b47c86b,2021-07-29_21h48.14.341,Simcolourproject_2stim_asymm_v5,2020.2.10,Linux x86_64,60,61025ae37ef11b136ea224fe,,,,,,,,,2623,54.6572876,-36.63861084,1,0,1,response3disk,,5,17.41741943,-9.655090332,1,0,1,rectangle,17.41741943,-9.655090332,1,0,1,17.41741943,-9.655090332,1,0,1,0,46,46,48,1,,,,,,,,
,,,,,,,,,,,,,FF,,,,,,,,1.133205,,,,,,,,,,,,,,,,,,,,,,6100ac178a474bfcc555379b,61036798113185a62b47c86b,2021-07-29_21h48.14.341,Simcolourproject_2stim_asymm_v5,2020.2.10,Linux x86_64,60,61025ae37ef11b136ea224fe,,,,,,,,,52,28.50231934,-53.62451172,1,0,1,response3disk,,4,9.332885742,0.999389648,1,0,1,rectangle,9.332885742,0.999389648,1,0,1,9.332885742,0.999389648,1,0,1,0,47,47,138,1,,,,,,,,
,,,,,,,,,,,,,FF,,,,,,,,1.449935,,,,,,,,,,,,,,,,,,,,,,6100ac178a474bfcc555379b,61036798113185a62b47c86b,2021-07-29_21h48.14.341,Simcolourproject_2stim_asymm_v5,2020.2.10,Linux x86_64,60,61025ae37ef11b136ea224fe,,,,,,,,,1771,-33.7020874,-65.94482422,1,0,1,response5disk,,3,-4.29119873,-1.664886475,1,0,1,rectangle,-26.50976563,-71.60717773,1,0,1,10.0244751,-4.059631348,1,0,1,0,48,48,41,1,,response5disk_3,TRUE,3,3,"[49,172,0,179,236,182,217,0,121,252,257,133,301,87,280,173,91,183,109,90]",2.89992,rectangle
,,,,,,,,,,,,,FF,,,,,,,,1.250045,,,,,,,,,,,,,,,,,,,,,,6100ac178a474bfcc555379b,61036798113185a62b47c86b,2021-07-29_21h48.14.341,Simcolourproject_2stim_asymm_v5,2020.2.10,Linux x86_64,60,61025ae37ef11b136ea224fe,,,,,,,,,971,-59.93017578,-36.66470337,1,0,1,response5disk,,2,-14.37194824,0.008880615,1,0,1,rectangle,-14.37194824,0.008880615,1,0,1,-14.37194824,0.008880615,1,0,1,0,49,49,58,1,,,,,,,,
,,,,,,,,,,,,,FF,,,,,,,,1.766645,,,,,,,,,,,,,,,,,,,,,,6100ac178a474bfcc555379b,61036798113185a62b47c86b,2021-07-29_21h48.14.341,Simcolourproject_2stim_asymm_v5,2020.2.10,Linux x86_64,60,61025ae37ef11b136ea224fe,,,,,,,,,3789,34.34161377,-66.3927002,1,0,1,response3disk,,4,7.058776855,3.45425415,1,0,1,rectangle,7.058776855,3.45425415,1,0,1,7.058776855,3.45425415,1,0,1,0,50,50,148,1,,,,,,,,
,,,,,,,,,,,,,FF,,,,,,,,0.81675,,,,,,,,,,,,,,,,,,,,,,6100ac178a474bfcc555379b,61036798113185a62b47c86b,2021-07-29_21h48.14.341,Simcolourproject_2stim_asymm_v5,2020.2.10,Linux x86_64,60,61025ae37ef11b136ea224fe,,,,,,,,,2408,58.93426514,32.31149292,1,0,1,response1disk,,6,12.99121094,2.046875,1,0,1,rectangle,12.99121094,2.046875,1,0,1,12.99121094,2.046875,1,0,1,0,51,51,108,1,,,,,,,,
,,,,,,,,,,,,,FF,,,,,,,,0.83333,,,,,,,,,,,,,,,,,,,,,,6100ac178a474bfcc555379b,61036798113185a62b47c86b,2021-07-29_21h48.14.341,Simcolourproject_2stim_asymm_v5,2020.2.10,Linux x86_64,60,61025ae37ef11b136ea224fe,,,,,,,,,3121,66.22058105,35.75057983,1,0,1,response1disk,,6,14.94470215,-6.592712402,1,0,1,rectangle,14.94470215,-6.592712402,1,0,1,14.94470215,-6.592712402,1,0,1,0,52,52,70,1,,,,,,,,
,,,,,,,,,,,,,FF,,,,,,,,0.950635,,,,,,,,,,,,,,,,,,,,,,6100ac178a474bfcc555379b,61036798113185a62b47c86b,2021-07-29_21h48.14.341,Simcolourproject_2stim_asymm_v5,2020.2.10,Linux x86_64,60,61025ae37ef11b136ea224fe,,,,,,,,,3033,64.69812012,38.21054077,1,0,1,response1disk,,6,13.32281494,-3.852050781,1,0,1,rectangle,13.32281494,-3.852050781,1,0,1,13.32281494,-3.852050781,1,0,1,0,53,53,93,1,,,,,,,,
,,,,,,,,,,,,,FF,,,,,,,,0.933425,,,,,,,,,,,,,,,,,,,,,,6100ac178a474bfcc555379b,61036798113185a62b47c86b,2021-07-29_21h48.14.341,Simcolourproject_2stim_asymm_v5,2020.2.10,Linux x86_64,60,61025ae37ef11b136ea224fe,,,,,,,,,3600,57.60095215,-41.86929321,1,0,1,response3disk,,5,19.05841064,-7.437164307,1,0,1,rectangle,19.05841064,-7.437164307,1,0,1,19.05841064,-7.437164307,1,0,1,0,54,54,158,1,,,,,,,,
,,,,,,,,,,,,,FF,,,,,,,,0.816965,,,,,,,,,,,,,,,,,,,,,,6100ac178a474bfcc555379b,61036798113185a62b47c86b,2021-07-29_21h48.14.341,Simcolourproject_2stim_asymm_v5,2020.2.10,Linux x86_64,60,61025ae37ef11b136ea224fe,,,,,,,,,4145,-46.13079834,-25.64602661,1,0,1,response5disk,,2,-18.63659668,-3.35144043,1,0,1,rectangle,-18.63659668,-3.35144043,1,0,1,-18.63659668,-3.35144043,1,0,1,0,55,55,31,1,,,,,,,,
,,,,,,,,,,,,,FF,,,,,,,,0.76742,,,,,,,,,,,,,,,,,,,,,,6100ac178a474bfcc555379b,61036798113185a62b47c86b,2021-07-29_21h48.14.341,Simcolourproject_2stim_asymm_v5,2020.2.10,Linux x86_64,60,61025ae37ef11b136ea224fe,,,,,,,,,1089,73.03485107,-47.60430908,1,0,1,response3disk,,5,22.92773438,-3.076721191,1,0,1,rectangle,22.92773438,-3.076721191,1,0,1,22.92773438,-3.076721191,1,0,1,0,56,56,143,1,,,,,,,,
,,,,,,,,,,,,,FF,,,,,,,,0.98345,,,,,,,,,,,,,,,,,,,,,,6100ac178a474bfcc555379b,61036798113185a62b47c86b,2021-07-29_21h48.14.341,Simcolourproject_2stim_asymm_v5,2020.2.10,Linux x86_64,60,61025ae37ef11b136ea224fe,,,,,,,,,4244,48.30224609,-27.49923706,1,0,1,response3disk,,5,16.65795898,-4.64730835,1,0,1,rectangle,16.65795898,-4.64730835,1,0,1,16.65795898,-4.64730835,1,0,1,0,57,57,78,1,,,,,,,,
,,,,,,,,,,,,,FF,,,,,,,,1.233715,,,,,,,,,,,,,,,,,,,,,,6100ac178a474bfcc555379b,61036798113185a62b47c86b,2021-07-29_21h48.14.341,Simcolourproject_2stim_asymm_v5,2020.2.10,Linux x86_64,60,61025ae37ef11b136ea224fe,,,,,,,,,215,82.04418945,39.78213501,1,0,1,response1disk,,6,7.728149414,-6.587921143,1,0,1,rectangle,7.728149414,-6.587921143,1,0,1,7.728149414,-6.587921143,1,0,1,0,58,58,80,1,,,,,,,,
,,,,,,,,,,,,,FF,,,,,,,,0.933655,,,,,,,,,,,,,,,,,,,,,,6100ac178a474bfcc555379b,61036798113185a62b47c86b,2021-07-29_21h48.14.341,Simcolourproject_2stim_asymm_v5,2020.2.10,Linux x86_64,60,61025ae37ef11b136ea224fe,,,,,,,,,3888,34.22540283,-53.63751221,1,0,1,response3disk,,4,10.85174561,-4.360534668,1,0,1,rectangle,10.85174561,-4.360534668,1,0,1,10.85174561,-4.360534668,1,0,1,0,59,59,18,1,,,,,,,,
,,,,,,,,,,,,,FF,,,,,,,,1.133565,,,,,,,,,,,,,,,,,,,,,,6100ac178a474bfcc555379b,61036798113185a62b47c86b,2021-07-29_21h48.14.341,Simcolourproject_2stim_asymm_v5,2020.2.10,Linux x86_64,60,61025ae37ef11b136ea224fe,,,,,,,,,2356,-46.31097412,-19.94827271,1,0,1,response5disk,,2,-22.85858154,0.023956299,1,0,1,rectangle,-22.85858154,0.023956299,1,0,1,-22.85858154,0.023956299,1,0,1,0,60,60,106,1,,,,,,,,
,,,,,,,,,,,,,FF,,,,,,,,1.30137,,,,,,,,,,,,,,,,,,,,,,6100ac178a474bfcc555379b,61036798113185a62b47c86b,2021-07-29_21h48.14.341,Simcolourproject_2stim_asymm_v5,2020.2.10,Linux x86_64,60,61025ae37ef11b136ea224fe,,,,,,,,,232,54.00061035,-42.87728882,1,0,1,response3disk,,5,18.57263184,3.33001709,1,0,1,rectangle,18.57263184,3.33001709,1,0,1,18.57263184,3.33001709,1,0,1,0,61,61,0,1,,,,,,,,
,,,,,,,,,,,,,FF,,,,,,,,0.98346,,,,,,,,,,,,,,,,,,,,,,6100ac178a474bfcc555379b,61036798113185a62b47c86b,2021-07-29_21h48.14.341,Simcolourproject_2stim_asymm_v5,2020.2.10,Linux x86_64,60,61025ae37ef11b136ea224fe,,,,,,,,,87,37.67321777,28.47305298,1,0,1,response1disk,,6,2.98059082,-3.926727295,1,0,1,rectangle,2.98059082,-3.926727295,1,0,1,2.98059082,-3.926727295,1,0,1,0,62,62,131,1,,,,,,,,
,,,,,,,,,,,,,FF,,,,,,,,1.53341,,,,,,,,,,,,,,,,,,,,,,6100ac178a474bfcc555379b,61036798113185a62b47c86b,2021-07-29_21h48.14.341,Simcolourproject_2stim_asymm_v5,2020.2.10,Linux x86_64,60,61025ae37ef11b136ea224fe,,,,,,,,,4352,-29.72155762,-35.16775513,1,0,1,response5disk,,3,-0.895324707,0.040557861,1,0,1,rectangle,-0.895324707,0.040557861,1,0,1,-0.895324707,0.040557861,1,0,1,0,63,63,55,1,,,,,,,,
,,,,,,,,,,,,,FF,,,,,,,,1.366425,,,,,,,,,,,,,,,,,,,,,,6100ac178a474bfcc555379b,61036798113185a62b47c86b,2021-07-29_21h48.14.341,Simcolourproject_2stim_asymm_v5,2020.2.10,Linux x86_64,60,61025ae37ef11b136ea224fe,,,,,,,,,4159,28.58062744,-49.26473999,1,0,1,response3disk,,4,12.53387451,-0.023101807,1,0,1,rectangle,12.53387451,-0.023101807,1,0,1,12.53387451,-0.023101807,1,0,1,0,64,64,46,1,,,,,,,,
,,,,,,,,,,,,,FF,,,,,,,,1.55009,,,,,,,,,,,,,,,,,,,,,,6100ac178a474bfcc555379b,61036798113185a62b47c86b,2021-07-29_21h48.14.341,Simcolourproject_2stim_asymm_v5,2020.2.10,Linux x86_64,60,61025ae37ef11b136ea224fe,,,,,,,,,3723,-29.67108154,-62.73788452,1,0,1,response5disk,,3,9.324707031,-1.221405029,1,0,1,rectangle,9.324707031,-1.221405029,1,0,1,9.324707031,-1.221405029,1,0,1,0,65,65,95,1,,,,,,,,
,,,,,,,,,,,,,FF,,,,,,,,0.900355,,,,,,,,,,,,,,,,,,,,,,6100ac178a474bfcc555379b,61036798113185a62b47c86b,2021-07-29_21h48.14.341,Simcolourproject_2stim_asymm_v5,2020.2.10,Linux x86_64,60,61025ae37ef11b136ea224fe,,,,,,,,,3473,-28.90045166,-45.06512451,1,0,1,response5disk,,3,4.862670898,-1.235809326,1,0,1,rectangle,4.862670898,-1.235809326,1,0,1,4.862670898,-1.235809326,1,0,1,0,66,66,137,1,,,,,,,,
,,,,,,,,,,,,,FF,,,,,,,,1.383795,,,,,,,,,,,,,,,,,,,,,,6100ac178a474bfcc555379b,61036798113185a62b47c86b,2021-07-29_21h48.14.341,Simcolourproject_2stim_asymm_v5,2020.2.10,Linux x86_64,60,61025ae37ef11b136ea224fe,,,,,,,,,225,66.40545654,-40.21875,1,0,1,response3disk,,5,21.28155518,-1.24786377,1,0,1,rectangle,21.28155518,-1.24786377,1,0,1,21.28155518,-1.24786377,1,0,1,0,67,67,105,1,,,,,,,,
,,,,,,,,,,,,,FF,,,,,,,,1.067125,,,,,,,,,,,,,,,,,,,,,,6100ac178a474bfcc555379b,61036798113185a62b47c86b,2021-07-29_21h48.14.341,Simcolourproject_2stim_asymm_v5,2020.2.10,Linux x86_64,60,61025ae37ef11b136ea224fe,,,,,,,,,283,69.20318604,38.86224365,1,0,1,response1disk,,6,13.80639648,-5.324737549,1,0,1,rectangle,13.80639648,-5.324737549,1,0,1,13.80639648,-5.324737549,1,0,1,0,68,68,16,1,,,,,,,,
,,,,,,,,,,,,,FF,,,,,,,,1.551335,,,,,,,,,,,,,,,,,,,,,,6100ac178a474bfcc555379b,61036798113185a62b47c86b,2021-07-29_21h48.14.341,Simcolourproject_2stim_asymm_v5,2020.2.10,Linux x86_64,60,61025ae37ef11b136ea224fe,,,,,,,,,3991,80.1194458,41.19641113,1,0,1,response1disk,,6,19.01507568,-4.446777344,1,0,1,rectangle,19.01507568,-4.446777344,1,0,1,19.01507568,-4.446777344,1,0,1,0,69,69,88,1,,,,,,,,
,,,,,,,,,,,,,FF,,,,,,,,1.30001,,,,,,,,,,,,,,,,,,,,,,6100ac178a474bfcc555379b,61036798113185a62b47c86b,2021-07-29_21h48.14.341,Simcolourproject_2stim_asymm_v5,2020.2.10,Linux x86_64,60,61025ae37ef11b136ea224fe,,,,,,,,,3456,86.80670166,50.26898193,1,0,1,response1disk,,6,18.09057617,5.36831665,1,0,1,rectangle,18.09057617,5.36831665,1,0,1,18.09057617,5.36831665,1,0,1,0,70,70,19,1,,,,,,,,
,,,,,,,,,,,,,FF,,,,,,,,1.566695,,,,,,,,,,,,,,,,,,,,,,6100ac178a474bfcc555379b,61036798113185a62b47c86b,2021-07-29_21h48.14.341,Simcolourproject_2stim_asymm_v5,2020.2.10,Linux x86_64,60,61025ae37ef11b136ea224fe,,,,,,,,,4045,33.11920166,47.48425293,1,0,1,response1disk,,7,-3.497741699,-0.692932129,1,0,1,rectangle,-3.497741699,-0.692932129,1,0,1,-3.497741699,-0.692932129,1,0,1,0,71,71,34,1,,,,,,,,
,,,,,,,,,,,,,FF,,,,,,,,0.91675,,,,,,,,,,,,,,,,,,,,,,6100ac178a474bfcc555379b,61036798113185a62b47c86b,2021-07-29_21h48.14.341,Simcolourproject_2stim_asymm_v5,2020.2.10,Linux x86_64,60,61025ae37ef11b136ea224fe,,,,,,,,,465,70.21936035,-37.20617676,1,0,1,response3disk,,5,16.77148438,-3.416046143,1,0,1,rectangle,16.77148438,-3.416046143,1,0,1,16.77148438,-3.416046143,1,0,1,0,72,72,8,1,,,,,,,,
,,,,,,,,,,,,,FF,,,,,,,,1.300245,,,,,,,,,,,,,,,,,,,,,,6100ac178a474bfcc555379b,61036798113185a62b47c86b,2021-07-29_21h48.14.341,Simcolourproject_2stim_asymm_v5,2020.2.10,Linux x86_64,60,61025ae37ef11b136ea224fe,,,,,,,,,3927,81.32269287,36.62747192,1,0,1,response1disk,,6,12.1362915,-1.166290283,1,0,1,rectangle,12.1362915,-1.166290283,1,0,1,12.1362915,-1.166290283,1,0,1,0,73,73,115,1,,,,,,,,
,,,,,,,,,,,,,FF,,,,,,,,1.26704,,,,,,,,,,,,,,,,,,,,,,6100ac178a474bfcc555379b,61036798113185a62b47c86b,2021-07-29_21h48.14.341,Simcolourproject_2stim_asymm_v5,2020.2.10,Linux x86_64,60,61025ae37ef11b136ea224fe,,,,,,,,,2884,45.84558105,25.90414429,1,0,1,response1disk,,6,16.64044189,0.03503418,1,0,1,rectangle,16.64044189,0.03503418,1,0,1,16.64044189,0.03503418,1,0,1,0,74,74,117,1,,,,,,,,
,,,,,,,,,,,,,FF,,,,,,,,0.916785,,,,,,,,,,,,,,,,,,,,,,6100ac178a474bfcc555379b,61036798113185a62b47c86b,2021-07-29_21h48.14.341,Simcolourproject_2stim_asymm_v5,2020.2.10,Linux x86_64,60,61025ae37ef11b136ea224fe,,,,,,,,,3136,68.55615234,34.69290161,1,0,1,response1disk,,6,20.53594971,-0.823974609,1,0,1,rectangle,20.53594971,-0.823974609,1,0,1,20.53594971,-0.823974609,1,0,1,0,75,75,75,1,,,,,,,,
,,,,,,,,,,,,,FF,,,,,,,,1.94989,,,,,,,,,,,,,,,,,,,,,,6100ac178a474bfcc555379b,61036798113185a62b47c86b,2021-07-29_21h48.14.341,Simcolourproject_2stim_asymm_v5,2020.2.10,Linux x86_64,60,61025ae37ef11b136ea224fe,,,,,,,,,1911,41.31091309,-63.53894043,1,0,1,response3disk,,4,17.97344971,-3.101104736,1,0,1,rectangle,17.97344971,-3.101104736,1,0,1,17.97344971,-3.101104736,1,0,1,0,76,76,33,1,,,,,,,,
,,,,,,,,,,,,,FF,,,,,,,,1.466375,,,,,,,,,,,,,,,,,,,,,,6100ac178a474bfcc555379b,61036798113185a62b47c86b,2021-07-29_21h48.14.341,Simcolourproject_2stim_asymm_v5,2020.2.10,Linux x86_64,60,61025ae37ef11b136ea224fe,,,,,,,,,2929,72.30596924,-35.74807739,1,0,1,response3disk,,5,-6.33972168,4.508056641,1,0,1,rectangle,-6.33972168,4.508056641,1,0,1,-6.33972168,4.508056641,1,0,1,0,77,77,36,1,,,,,,,,
,,,,,,,,,,,,,FF,,,,,,,,0.90042,,,,,,,,,,,,,,,,,,,,,,6100ac178a474bfcc555379b,61036798113185a62b47c86b,2021-07-29_21h48.14.341,Simcolourproject_2stim_asymm_v5,2020.2.10,Linux x86_64,60,61025ae37ef11b136ea224fe,,,,,,,,,2124,84.57653809,39.284729,1,0,1,response1disk,,6,23.60925293,1.217132568,1,0,1,rectangle,23.60925293,1.217132568,1,0,1,23.60925293,1.217132568,1,0,1,0,78,78,61,1,,,,,,,,
,,,,,,,,,,,,,FF,,,,,,,,1.033595,,,,,,,,,,,,,,,,,,,,,,6100ac178a474bfcc555379b,61036798113185a62b47c86b,2021-07-29_21h48.14.341,Simcolourproject_2stim_asymm_v5,2020.2.10,Linux x86_64,60,61025ae37ef11b136ea224fe,,,,,,,,,357,40.00189209,69.14285278,1,0,1,response1disk,,7,6.252197266,0.016876221,1,0,1,rectangle,6.252197266,0.016876221,1,0,1,6.252197266,0.016876221,1,0,1,0,79,79,57,1,,,,,,,,
,,,,,,,,,,,,,FF,,,,,,,,1.085125,,,,,,,,,,,,,,,,,,,,,,6100ac178a474bfcc555379b,61036798113185a62b47c86b,2021-07-29_21h48.14.341,Simcolourproject_2stim_asymm_v5,2020.2.10,Linux x86_64,60,61025ae37ef11b136ea224fe,,,,,,,,,2950,73.49597168,32.28588867,1,0,1,response1disk,,6,-0.571655273,-8.49710083,1,0,1,rectangle,-0.571655273,-8.49710083,1,0,1,-0.571655273,-8.49710083,1,0,1,0,80,80,2,1,,,,,,,,
,,,,,,,,,,,,,FF,,,,,,,,1.28523,,,,,,,,,,,,,,,,,,,,,,6100ac178a474bfcc555379b,61036798113185a62b47c86b,2021-07-29_21h48.14.341,Simcolourproject_2stim_asymm_v5,2020.2.10,Linux x86_64,60,61025ae37ef11b136ea224fe,,,,,,,,,1402,55.50415039,-27.2869873,1,0,1,response3disk,,5,-6.074523926,4.863708496,1,0,1,rectangle,-6.074523926,4.863708496,1,0,1,-6.074523926,4.863708496,1,0,1,0,81,81,116,1,,,,,,,,
,,,,,,,,,,,,,FF,,,,,,,,1.551475,,,,,,,,,,,,,,,,,,,,,,6100ac178a474bfcc555379b,61036798113185a62b47c86b,2021-07-29_21h48.14.341,Simcolourproject_2stim_asymm_v5,2020.2.10,Linux x86_64,60,61025ae37ef11b136ea224fe,,,,,,,,,1315,-37.57556152,-53.31900024,1,0,1,response5disk,,3,7.182678223,5.49822998,1,0,1,rectangle,7.182678223,5.49822998,1,0,1,7.182678223,5.49822998,1,0,1,0,82,82,30,1,,,,,,,,
,,,,,,,,,,,,,FF,,,,,,,,0.967205,,,,,,,,,,,,,,,,,,,,,,6100ac178a474bfcc555379b,61036798113185a62b47c86b,2021-07-29_21h48.14.341,Simcolourproject_2stim_asymm_v5,2020.2.10,Linux x86_64,60,61025ae37ef11b136ea224fe,,,,,,,,,2970,33.3237915,-58.25875854,1,0,1,response3disk,,4,2.232849121,-4.342956543,1,0,1,rectangle,2.232849121,-4.342956543,1,0,1,2.232849121,-4.342956543,1,0,1,0,83,83,21,1,,,,,,,,
,,,,,,,,,,,,,FF,,,,,,,,1.49945,,,,,,,,,,,,,,,,,,,,,,6100ac178a474bfcc555379b,61036798113185a62b47c86b,2021-07-29_21h48.14.341,Simcolourproject_2stim_asymm_v5,2020.2.10,Linux x86_64,60,61025ae37ef11b136ea224fe,,,,,,,,,55,31.40576172,-57.02133179,1,0,1,response3disk,,4,7.746276855,0.774047852,1,0,1,rectangle,7.746276855,0.774047852,1,0,1,7.746276855,0.774047852,1,0,1,0,84,84,118,1,,,,,,,,
,,,,,,,,,,,,,FF,,,,,,,,1.13271,,,,,,,,,,,,,,,,,,,,,,6100ac178a474bfcc555379b,61036798113185a62b47c86b,2021-07-29_21h48.14.341,Simcolourproject_2stim_asymm_v5,2020.2.10,Linux x86_64,60,61025ae37ef11b136ea224fe,,,,,,,,,1445,-42.01733398,78.7197876,1,0,1,response7disk,,0,-7.342834473,-4.417785645,1,0,1,rectangle,-7.342834473,-4.417785645,1,0,1,-7.342834473,-4.417785645,1,0,1,0,85,85,64,1,,,,,,,,
,,,,,,,,,,,,,FF,,,,,,,,1.566785,,,,,,,,,,,,,,,,,,,,,,6100ac178a474bfcc555379b,61036798113185a62b47c86b,2021-07-29_21h48.14.341,Simcolourproject_2stim_asymm_v5,2020.2.10,Linux x86_64,60,61025ae37ef11b136ea224fe,,,,,,,,,3869,33.19012451,-50.27401733,1,0,1,response3disk,,4,2.949401855,0.930053711,1,0,1,rectangle,-39.93603516,77.62841797,1,0,1,9.087646484,-2.089691162,1,0,1,0,86,86,89,1,,response7disk_3,TRUE,0,0,"[49,172,0,179,236,182,217,0,121,252,257,133,301,87,280,173,91,183,109,90]",2.633195,rectangle
,,,,,,,,,,,,,FF,,,,,,,,1.999915,,,,,,,,,,,,,,,,,,,,,,6100ac178a474bfcc555379b,61036798113185a62b47c86b,2021-07-29_21h48.14.341,Simcolourproject_2stim_asymm_v5,2020.2.10,Linux x86_64,60,61025ae37ef11b136ea224fe,,,,,,,,,4267,-33.72045898,-87.64859009,1,0,1,response5disk,,3,-19.38104248,-3.978668213,1,0,1,rectangle,-19.38104248,-3.978668213,1,0,1,-19.38104248,-3.978668213,1,0,1,0,87,87,43,1,,,,,,,,
,,,,,,,,,,,,,FF,,,,,,,,1.250035,,,,,,,,,,,,,,,,,,,,,,6100ac178a474bfcc555379b,61036798113185a62b47c86b,2021-07-29_21h48.14.341,Simcolourproject_2stim_asymm_v5,2020.2.10,Linux x86_64,60,61025ae37ef11b136ea224fe,,,,,,,,,1946,66.69818115,-42.51235962,1,0,1,response3disk,,5,2.427734375,-6.634887695,1,0,1,rectangle,2.427734375,-6.634887695,1,0,1,2.427734375,-6.634887695,1,0,1,0,88,88,42,1,,,,,,,,
,,,,,,,,,,,,,FF,,,,,,,,12.782525,,,,,,,,,,,,,,,,,,,,,,6100ac178a474bfcc555379b,61036798113185a62b47c86b,2021-07-29_21h48.14.341,Simcolourproject_2stim_asymm_v5,2020.2.10,Linux x86_64,60,61025ae37ef11b136ea224fe,,,,,,,,,3537,33.81628418,-86.59072876,1,0,1,response3disk,,4,3.620727539,11.00604248,1,0,1,rectangle,91.81976318,46.19174194,1,0,1,15.52929688,-1.257843018,1,0,1,0,89,89,29,1,,response1disk_3,TRUE,6,6,"[49,172,0,179,236,182,217,0,121,252,257,133,301,87,280,173,91,183,109,90]",2.016355,rectangle
,,,,,,,,,,,,,FF,,,,,,,,4.28335,,,,,,,,,,,,,,,,,,,,,,6100ac178a474bfcc555379b,61036798113185a62b47c86b,2021-07-29_21h48.14.341,Simcolourproject_2stim_asymm_v5,2020.2.10,Linux x86_64,60,61025ae37ef11b136ea224fe,,,,,,,,,2421,30.38696289,-52.290802,1,0,1,response3disk,,4,0.001281738,-4.507354736,1,0,1,rectangle,40.03094482,-67.63882446,1,0,1,1.457214355,1.729370117,1,0,1,0,90,90,6,1,,response3disk_3,TRUE,4,4,"[49,172,0,179,236,182,217,0,121,252,257,133,301,87,280,173,91,183,109,90]",1.867915,rectangle
,,,,,,,,,,,,,FF,,,,,,,,1.050235,,,,,,,,,,,,,,,,,,,,,,6100ac178a474bfcc555379b,61036798113185a62b47c86b,2021-07-29_21h48.14.341,Simcolourproject_2stim_asymm_v5,2020.2.10,Linux x86_64,60,61025ae37ef11b136ea224fe,,,,,,,,,2448,47.42926025,-27.8331604,1,0,1,response3disk,,5,24.29992676,-7.436981201,1,0,1,rectangle,24.29992676,-7.436981201,1,0,1,24.29992676,-7.436981201,1,0,1,0,91,91,92,1,,,,,,,,
,,,,,,,,,,,,,FF,,,,,,,,0.683805,,,,,,,,,,,,,,,,,,,,,,6100ac178a474bfcc555379b,61036798113185a62b47c86b,2021-07-29_21h48.14.341,Simcolourproject_2stim_asymm_v5,2020.2.10,Linux x86_64,60,61025ae37ef11b136ea224fe,,,,,,,,,595,39.70880127,-18.56488037,1,0,1,response3disk,,5,25.12353516,-5.240325928,1,0,1,rectangle,25.12353516,-5.240325928,1,0,1,25.12353516,-5.240325928,1,0,1,0,92,92,156,1,,,,,,,,
,,,,,,,,,,,,,FF,,,,,,,,1.317165,,,,,,,,,,,,,,,,,,,,,,6100ac178a474bfcc555379b,61036798113185a62b47c86b,2021-07-29_21h48.14.341,Simcolourproject_2stim_asymm_v5,2020.2.10,Linux x86_64,60,61025ae37ef11b136ea224fe,,,,,,,,,2402,33.24981689,-83.13937378,1,0,1,response3disk,,4,5.362182617,0.298675537,1,0,1,rectangle,5.362182617,0.298675537,1,0,1,5.362182617,0.298675537,1,0,1,0,93,93,9,1,,,,,,,,
,,,,,,,,,,,,,FF,,,,,,,,1.25004,,,,,,,,,,,,,,,,,,,,,,6100ac178a474bfcc555379b,61036798113185a62b47c86b,2021-07-29_21h48.14.341,Simcolourproject_2stim_asymm_v5,2020.2.10,Linux x86_64,60,61025ae37ef11b136ea224fe,,,,,,,,,1400,66.50714111,-43.87554932,1,0,1,response3disk,,5,14.11120605,0.964324951,1,0,1,rectangle,14.11120605,0.964324951,1,0,1,14.11120605,0.964324951,1,0,1,0,94,94,103,1,,,,,,,,
,,,,,,,,,,,,,FF,,,,,,,,1.700535,,,,,,,,,,,,,,,,,,,,,,6100ac178a474bfcc555379b,61036798113185a62b47c86b,2021-07-29_21h48.14.341,Simcolourproject_2stim_asymm_v5,2020.2.10,Linux x86_64,60,61025ae37ef11b136ea224fe,,,,,,,,,796,45.92602539,36.96734619,1,0,1,response1disk,,6,18.03613281,2.735870361,1,0,1,rectangle,18.03613281,2.735870361,1,0,1,18.03613281,2.735870361,1,0,1,0,95,95,32,1,,,,,,,,
,,,,,,,,,,,,,FF,,,,,,,,1.433275,,,,,,,,,,,,,,,,,,,,,,6100ac178a474bfcc555379b,61036798113185a62b47c86b,2021-07-29_21h48.14.341,Simcolourproject_2stim_asymm_v5,2020.2.10,Linux x86_64,60,61025ae37ef11b136ea224fe,,,,,,,,,3649,57.2300415,-35.2666626,1,0,1,response3disk,,5,24.25012207,-4.913970947,1,0,1,rectangle,24.25012207,-4.913970947,1,0,1,24.25012207,-4.913970947,1,0,1,0,96,96,54,1,,,,,,,,
,,,,,,,,,,,,,FF,,,,,,,,2.232595,,,,,,,,,,,,,,,,,,,,,,6100ac178a474bfcc555379b,61036798113185a62b47c86b,2021-07-29_21h48.14.341,Simcolourproject_2stim_asymm_v5,2020.2.10,Linux x86_64,60,61025ae37ef11b136ea224fe,,,,,,,,,430,35.25689697,31.50967407,1,0,1,response1disk,,6,8.563842773,-10.99554443,1,0,1,rectangle,8.563842773,-10.99554443,1,0,1,8.563842773,-10.99554443,1,0,1,0,97,97,45,1,,,,,,,,
,,,,,,,,,,,,,FF,,,,,,,,1.4169,,,,,,,,,,,,,,,,,,,,,,6100ac178a474bfcc555379b,61036798113185a62b47c86b,2021-07-29_21h48.14.341,Simcolourproject_2stim_asymm_v5,2020.2.10,Linux x86_64,60,61025ae37ef11b136ea224fe,,,,,,,,,3210,-41.40997314,-53.32192993,1,0,1,response5disk,,3,-8.250305176,-0.243621826,1,0,1,rectangle,-8.250305176,-0.243621826,1,0,1,-8.250305176,-0.243621826,1,0,1,0,98,98,102,1,,,,,,,,
,,,,,,,,,,,,,FF,,,,,,,,1.33361,,,,,,,,,,,,,,,,,,,,,,6100ac178a474bfcc555379b,61036798113185a62b47c86b,2021-07-29_21h48.14.341,Simcolourproject_2stim_asymm_v5,2020.2.10,Linux x86_64,60,61025ae37ef11b136ea224fe,,,,,,,,,2243,-31.03851318,-70.3008728,1,0,1,response5disk,,3,13.57794189,9.968902588,1,0,1,rectangle,13.57794189,9.968902588,1,0,1,13.57794189,9.968902588,1,0,1,0,99,99,7,1,,,,,,,,
,,,,,,,,,,,,,FF,,,,,,,,1.199405,,,,,,,,,,,,,,,,,,,,,,6100ac178a474bfcc555379b,61036798113185a62b47c86b,2021-07-29_21h48.14.341,Simcolourproject_2stim_asymm_v5,2020.2.10,Linux x86_64,60,61025ae37ef11b136ea224fe,,,,,,,,,1130,92.05706787,35.05731201,1,0,1,response1disk,,6,3.845581055,-7.383605957,1,0,1,rectangle,3.845581055,-7.383605957,1,0,1,3.845581055,-7.383605957,1,0,1,0,100,100,147,1,,,,,,,,
,,,,,,,,,,,,,FF,,,,,,,,0.968245,,,,,,,,,,,,,,,,,,,,,,6100ac178a474bfcc555379b,61036798113185a62b47c86b,2021-07-29_21h48.14.341,Simcolourproject_2stim_asymm_v5,2020.2.10,Linux x86_64,60,61025ae37ef11b136ea224fe,,,,,,,,,935,56.11883545,36.12799072,1,0,1,response1disk,,6,14.67950439,-1.733001709,1,0,1,rectangle,14.67950439,-1.733001709,1,0,1,14.67950439,-1.733001709,1,0,1,0,101,101,67,1,,,,,,,,
,,,,,,,,,,,,,FF,,,,,,,,1.26675,,,,,,,,,,,,,,,,,,,,,,6100ac178a474bfcc555379b,61036798113185a62b47c86b,2021-07-29_21h48.14.341,Simcolourproject_2stim_asymm_v5,2020.2.10,Linux x86_64,60,61025ae37ef11b136ea224fe,,,,,,,,,264,-59.59967041,-36.23947144,1,0,1,response5disk,,2,-8.267822266,-7.605865479,1,0,1,rectangle,-8.267822266,-7.605865479,1,0,1,-8.267822266,-7.605865479,1,0,1,0,102,102,77,1,,,,,,,,
,,,,,,,,,,,,,FF,,,,,,,,1.166885,,,,,,,,,,,,,,,,,,,,,,6100ac178a474bfcc555379b,61036798113185a62b47c86b,2021-07-29_21h48.14.341,Simcolourproject_2stim_asymm_v5,2020.2.10,Linux x86_64,60,61025ae37ef11b136ea224fe,,,,,,,,,1494,92.65301514,39.07144165,1,0,1,response1disk,,6,2.661499023,2.754516602,1,0,1,rectangle,2.661499023,2.754516602,1,0,1,2.661499023,2.754516602,1,0,1,0,103,103,24,1,,,,,,,,
,,,,,,,,,,,,,FF,,,,,,,,1.13328,,,,,,,,,,,,,,,,,,,,,,6100ac178a474bfcc555379b,61036798113185a62b47c86b,2021-07-29_21h48.14.341,Simcolourproject_2stim_asymm_v5,2020.2.10,Linux x86_64,60,61025ae37ef11b136ea224fe,,,,,,,,,3143,53.77593994,30.0612793,1,0,1,response1disk,,6,19.61218262,-2.358093262,1,0,1,rectangle,19.61218262,-2.358093262,1,0,1,19.61218262,-2.358093262,1,0,1,0,104,104,146,1,,,,,,,,
,,,,,,,,,,,,,FF,,,,,,,,1.452775,,,,,,,,,,,,,,,,,,,,,,6100ac178a474bfcc555379b,61036798113185a62b47c86b,2021-07-29_21h48.14.341,Simcolourproject_2stim_asymm_v5,2020.2.10,Linux x86_64,60,61025ae37ef11b136ea224fe,,,,,,,,,1678,28.21594238,-60.36672974,1,0,1,response3disk,,4,1.662597656,4.399780273,1,0,1,rectangle,1.662597656,4.399780273,1,0,1,1.662597656,4.399780273,1,0,1,0,105,105,112,1,,,,,,,,
,,,,,,,,,,,,,FF,,,,,,,,1.083255,,,,,,,,,,,,,,,,,,,,,,6100ac178a474bfcc555379b,61036798113185a62b47c86b,2021-07-29_21h48.14.341,Simcolourproject_2stim_asymm_v5,2020.2.10,Linux x86_64,60,61025ae37ef11b136ea224fe,,,,,,,,,2703,-34.52386475,-63.94171143,1,0,1,response5disk,,3,-0.284545898,-3.913879395,1,0,1,rectangle,-0.284545898,-3.913879395,1,0,1,-0.284545898,-3.913879395,1,0,1,0,106,106,133,1,,,,,,,,
,,,,,,,,,,,,,FF,,,,,,,,1.316435,,,,,,,,,,,,,,,,,,,,,,6100ac178a474bfcc555379b,61036798113185a62b47c86b,2021-07-29_21h48.14.341,Simcolourproject_2stim_asymm_v5,2020.2.10,Linux x86_64,60,61025ae37ef11b136ea224fe,,,,,,,,,3867,31.08837891,71.10614014,1,0,1,response1disk,,7,15.25506592,3.904815674,1,0,1,rectangle,15.25506592,3.904815674,1,0,1,15.25506592,3.904815674,1,0,1,0,107,107,130,1,,,,,,,,
,,,,,,,,,,,,,FF,,,,,,,,1.650055,,,,,,,,,,,,,,,,,,,,,,6100ac178a474bfcc555379b,61036798113185a62b47c86b,2021-07-29_21h48.14.341,Simcolourproject_2stim_asymm_v5,2020.2.10,Linux x86_64,60,61025ae37ef11b136ea224fe,,,,,,,,,2695,27.87414551,-44.28894043,1,0,1,response3disk,,4,-2.691162109,-5.691009521,1,0,1,rectangle,46.03173828,85.6842041,1,0,1,-11.49945068,-5.352752686,1,0,1,0,108,108,149,1,,response1disk_3,TRUE,7,7,"[49,172,0,179,236,182,217,0,121,252,257,133,301,87,280,173,91,183,109,90]",1.73396,rectangle
,,,,,,,,,,,,,FF,,,,,,,,1.100595,,,,,,,,,,,,,,,,,,,,,,6100ac178a474bfcc555379b,61036798113185a62b47c86b,2021-07-29_21h48.14.341,Simcolourproject_2stim_asymm_v5,2020.2.10,Linux x86_64,60,61025ae37ef11b136ea224fe,,,,,,,,,2344,48.53070068,32.31356812,1,0,1,response1disk,,6,28.97021484,2.959686279,1,0,1,rectangle,28.97021484,2.959686279,1,0,1,28.97021484,2.959686279,1,0,1,0,109,109,114,1,,,,,,,,
,,,,,,,,,,,,,FF,,,,,,,,0.90005,,,,,,,,,,,,,,,,,,,,,,6100ac178a474bfcc555379b,61036798113185a62b47c86b,2021-07-29_21h48.14.341,Simcolourproject_2stim_asymm_v5,2020.2.10,Linux x86_64,60,61025ae37ef11b136ea224fe,,,,,,,,,3287,56.45074463,32.91693115,1,0,1,response1disk,,6,17.61853027,-0.165557861,1,0,1,rectangle,17.61853027,-0.165557861,1,0,1,17.61853027,-0.165557861,1,0,1,0,110,110,63,1,,,,,,,,
,,,,,,,,,,,,,FF,,,,,,,,1.101355,,,,,,,,,,,,,,,,,,,,,,6100ac178a474bfcc555379b,61036798113185a62b47c86b,2021-07-29_21h48.14.341,Simcolourproject_2stim_asymm_v5,2020.2.10,Linux x86_64,60,61025ae37ef11b136ea224fe,,,,,,,,,817,-39.9442749,-55.52960205,1,0,1,response5disk,,3,-12.98791504,-13.97940063,1,0,1,rectangle,-12.98791504,-13.97940063,1,0,1,-12.98791504,-13.97940063,1,0,1,0,111,111,135,1,,,,,,,,
,,,,,,,,,,,,,FF,,,,,,,,1.050615,,,,,,,,,,,,,,,,,,,,,,6100ac178a474bfcc555379b,61036798113185a62b47c86b,2021-07-29_21h48.14.341,Simcolourproject_2stim_asymm_v5,2020.2.10,Linux x86_64,60,61025ae37ef11b136ea224fe,,,,,,,,,4034,36.43054199,-53.48117065,1,0,1,response3disk,,4,-4.737548828,-9.290802002,1,0,1,rectangle,-4.737548828,-9.290802002,1,0,1,-4.737548828,-9.290802002,1,0,1,0,112,112,50,1,,,,,,,,
,,,,,,,,,,,,,FF,,,,,,,,1.41718,,,,,,,,,,,,,,,,,,,,,,6100ac178a474bfcc555379b,61036798113185a62b47c86b,2021-07-29_21h48.14.341,Simcolourproject_2stim_asymm_v5,2020.2.10,Linux x86_64,60,61025ae37ef11b136ea224fe,,,,,,,,,2926,50.16571045,-29.21551514,1,0,1,response3disk,,5,11.25085449,7.767913818,1,0,1,rectangle,11.25085449,7.767913818,1,0,1,11.25085449,7.767913818,1,0,1,0,113,113,38,1,,,,,,,,
,,,,,,,,,,,,,FF,,,,,,,,0.86822,,,,,,,,,,,,,,,,,,,,,,6100ac178a474bfcc555379b,61036798113185a62b47c86b,2021-07-29_21h48.14.341,Simcolourproject_2stim_asymm_v5,2020.2.10,Linux x86_64,60,61025ae37ef11b136ea224fe,,,,,,,,,3382,-60.25622559,-29.57922363,1,0,1,response5disk,,2,-20.44781494,-8.781005859,1,0,1,rectangle,-20.44781494,-8.781005859,1,0,1,-20.44781494,-8.781005859,1,0,1,0,114,114,155,1,,,,,,,,
,,,,,,,,,,,,,FF,,,,,,,,1.451245,,,,,,,,,,,,,,,,,,,,,,6100ac178a474bfcc555379b,61036798113185a62b47c86b,2021-07-29_21h48.14.341,Simcolourproject_2stim_asymm_v5,2020.2.10,Linux x86_64,60,61025ae37ef11b136ea224fe,,,,,,,,,423,85.83953857,23.99737549,1,0,1,response1disk,,6,17.05212402,-6.358673096,1,0,1,rectangle,17.05212402,-6.358673096,1,0,1,17.05212402,-6.358673096,1,0,1,0,115,115,100,1,,,,,,,,
,,,,,,,,,,,,,FF,,,,,,,,1.23351,,,,,,,,,,,,,,,,,,,,,,6100ac178a474bfcc555379b,61036798113185a62b47c86b,2021-07-29_21h48.14.341,Simcolourproject_2stim_asymm_v5,2020.2.10,Linux x86_64,60,61025ae37ef11b136ea224fe,,,,,,,,,4239,-61.10626221,40.7522583,1,0,1,response7disk,,1,-18.35888672,-4.02166748,1,0,1,rectangle,-18.35888672,-4.02166748,1,0,1,-18.35888672,-4.02166748,1,0,1,0,116,116,3,1,,,,,,,,
,,,,,,,,,,,,,FF,,,,,,,,1.185595,,,,,,,,,,,,,,,,,,,,,,6100ac178a474bfcc555379b,61036798113185a62b47c86b,2021-07-29_21h48.14.341,Simcolourproject_2stim_asymm_v5,2020.2.10,Linux x86_64,60,61025ae37ef11b136ea224fe,,,,,,,,,1703,22.97796631,57.09475708,1,0,1,response1disk,,7,5.159729004,3.00100708,1,0,1,rectangle,5.159729004,3.00100708,1,0,1,5.159729004,3.00100708,1,0,1,0,117,117,111,1,,,,,,,,
,,,,,,,,,,,,,FF,,,,,,,,1.300365,,,,,,,,,,,,,,,,,,,,,,6100ac178a474bfcc555379b,61036798113185a62b47c86b,2021-07-29_21h48.14.341,Simcolourproject_2stim_asymm_v5,2020.2.10,Linux x86_64,60,61025ae37ef11b136ea224fe,,,,,,,,,3251,-59.30206299,30.31613159,1,0,1,response7disk,,1,6.955505371,-7.87991333,1,0,1,rectangle,6.955505371,-7.87991333,1,0,1,6.955505371,-7.87991333,1,0,1,0,118,118,35,1,,,,,,,,
,,,,,,,,,,,,,FF,,,,,,,,1.13399,,,,,,,,,,,,,,,,,,,,,,6100ac178a474bfcc555379b,61036798113185a62b47c86b,2021-07-29_21h48.14.341,Simcolourproject_2stim_asymm_v5,2020.2.10,Linux x86_64,60,61025ae37ef11b136ea224fe,,,,,,,,,3293,-27.92468262,-49.11911011,1,0,1,response5disk,,3,-1.137756348,-0.198364258,1,0,1,rectangle,-1.137756348,-0.198364258,1,0,1,-1.137756348,-0.198364258,1,0,1,0,119,119,23,1,,,,,,,,
,,,,,,,,,,,,,FF,,,,,,,,1.06681,,,,,,,,,,,,,,,,,,,,,,6100ac178a474bfcc555379b,61036798113185a62b47c86b,2021-07-29_21h48.14.341,Simcolourproject_2stim_asymm_v5,2020.2.10,Linux x86_64,60,61025ae37ef11b136ea224fe,,,,,,,,,3864,50.9552002,36.02127075,1,0,1,response1disk,,6,9.620178223,-7.095092773,1,0,1,rectangle,22.84411621,54.95230103,1,0,1,2.053771973,-11.78973389,1,0,1,0,120,120,132,1,,response1disk_3,TRUE,7,7,"[49,172,0,179,236,182,217,0,121,252,257,133,301,87,280,173,91,183,109,90]",1.49994,rectangle
,,,,,,,,,,,,,FF,,,,,,,,1.116515,,,,,,,,,,,,,,,,,,,,,,6100ac178a474bfcc555379b,61036798113185a62b47c86b,2021-07-29_21h48.14.341,Simcolourproject_2stim_asymm_v5,2020.2.10,Linux x86_64,60,61025ae37ef11b136ea224fe,,,,,,,,,3474,-30.90356445,-43.44448853,1,0,1,response5disk,,3,-7.510498047,-0.17779541,1,0,1,rectangle,-7.510498047,-0.17779541,1,0,1,-7.510498047,-0.17779541,1,0,1,0,121,121,26,1,,,,,,,,
,,,,,,,,,,,,,FF,,,,,,,,0.849085,,,,,,,,,,,,,,,,,,,,,,6100ac178a474bfcc555379b,61036798113185a62b47c86b,2021-07-29_21h48.14.341,Simcolourproject_2stim_asymm_v5,2020.2.10,Linux x86_64,60,61025ae37ef11b136ea224fe,,,,,,,,,3582,80.71240234,46.83880615,1,0,1,response1disk,,6,22.20837402,-5.44140625,1,0,1,rectangle,22.20837402,-5.44140625,1,0,1,22.20837402,-5.44140625,1,0,1,0,122,122,81,1,,,,,,,,
,,,,,,,,,,,,,FF,,,,,,,,1.28468,,,,,,,,,,,,,,,,,,,,,,6100ac178a474bfcc555379b,61036798113185a62b47c86b,2021-07-29_21h48.14.341,Simcolourproject_2stim_asymm_v5,2020.2.10,Linux x86_64,60,61025ae37ef11b136ea224fe,,,,,,,,,2229,-62.92858887,-39.1925354,1,0,1,response5disk,,2,-27.89691162,-6.178924561,1,0,1,rectangle,-27.89691162,-6.178924561,1,0,1,-27.89691162,-6.178924561,1,0,1,0,123,123,157,1,,,,,,,,
,,,,,,,,,,,,,FF,,,,,,,,1.350145,,,,,,,,,,,,,,,,,,,,,,6100ac178a474bfcc555379b,61036798113185a62b47c86b,2021-07-29_21h48.14.341,Simcolourproject_2stim_asymm_v5,2020.2.10,Linux x86_64,60,61025ae37ef11b136ea224fe,,,,,,,,,3655,61.3102417,30.22225952,1,0,1,response1disk,,6,11.42181396,-12.23620605,1,0,1,rectangle,11.42181396,-12.23620605,1,0,1,11.42181396,-12.23620605,1,0,1,0,124,124,49,1,,,,,,,,
,,,,,,,,,,,,,FF,,,,,,,,1.033415,,,,,,,,,,,,,,,,,,,,,,6100ac178a474bfcc555379b,61036798113185a62b47c86b,2021-07-29_21h48.14.341,Simcolourproject_2stim_asymm_v5,2020.2.10,Linux x86_64,60,61025ae37ef11b136ea224fe,,,,,,,,,887,-40.19055176,27.95239258,1,0,1,response7disk,,1,-14.27886963,3.673156738,1,0,1,rectangle,-14.27886963,3.673156738,1,0,1,-14.27886963,3.673156738,1,0,1,0,125,125,1,1,,,,,,,,
,,,,,,,,,,,,,FF,,,,,,,,1.134,,,,,,,,,,,,,,,,,,,,,,6100ac178a474bfcc555379b,61036798113185a62b47c86b,2021-07-29_21h48.14.341,Simcolourproject_2stim_asymm_v5,2020.2.10,Linux x86_64,60,61025ae37ef11b136ea224fe,,,,,,,,,4221,73.01678467,22.34732056,1,0,1,response1disk,,6,17.17767334,-8.363769531,1,0,1,rectangle,17.17767334,-8.363769531,1,0,1,17.17767334,-8.363769531,1,0,1,0,126,126,120,1,,,,,,,,
,,,,,,,,,,,,,FF,,,,,,,,1.41671,,,,,,,,,,,,,,,,,,,,,,6100ac178a474bfcc555379b,61036798113185a62b47c86b,2021-07-29_21h48.14.341,Simcolourproject_2stim_asymm_v5,2020.2.10,Linux x86_64,60,61025ae37ef11b136ea224fe,,,,,,,,,4147,-28.98156738,59.27355957,1,0,1,response7disk,,0,-3.631896973,-7.551147461,1,0,1,rectangle,-3.631896973,-7.551147461,1,0,1,-3.631896973,-7.551147461,1,0,1,0,127,127,152,1,,,,,,,,
,,,,,,,,,,,,,FF,,,,,,,,1.083675,,,,,,,,,,,,,,,,,,,,,,6100ac178a474bfcc555379b,61036798113185a62b47c86b,2021-07-29_21h48.14.341,Simcolourproject_2stim_asymm_v5,2020.2.10,Linux x86_64,60,61025ae37ef11b136ea224fe,,,,,,,,,3192,-61.37176514,-31.24273682,1,0,1,response5disk,,2,-24.62976074,-5.689941406,1,0,1,rectangle,-24.62976074,-5.689941406,1,0,1,-24.62976074,-5.689941406,1,0,1,0,128,128,119,1,,,,,,,,
,,,,,,,,,,,,,FF,,,,,,,,1.068275,,,,,,,,,,,,,,,,,,,,,,6100ac178a474bfcc555379b,61036798113185a62b47c86b,2021-07-29_21h48.14.341,Simcolourproject_2stim_asymm_v5,2020.2.10,Linux x86_64,60,61025ae37ef11b136ea224fe,,,,,,,,,3623,28.847229,-55.42489624,1,0,1,response3disk,,4,5.029296875,0.115661621,1,0,1,rectangle,5.029296875,0.115661621,1,0,1,5.029296875,0.115661621,1,0,1,0,129,129,107,1,,,,,,,,
,,,,,,,,,,,,,FF,,,,,,,,1.567045,,,,,,,,,,,,,,,,,,,,,,6100ac178a474bfcc555379b,61036798113185a62b47c86b,2021-07-29_21h48.14.341,Simcolourproject_2stim_asymm_v5,2020.2.10,Linux x86_64,60,61025ae37ef11b136ea224fe,,,,,,,,,1603,-54.53918457,34.63912964,1,0,1,response7disk,,1,-13.50762939,-10.27011108,1,0,1,rectangle,-13.50762939,-10.27011108,1,0,1,-13.50762939,-10.27011108,1,0,1,0,130,130,56,1,,,,,,,,
,,,,,,,,,,,,,FF,,,,,,,,1.48347,,,,,,,,,,,,,,,,,,,,,,6100ac178a474bfcc555379b,61036798113185a62b47c86b,2021-07-29_21h48.14.341,Simcolourproject_2stim_asymm_v5,2020.2.10,Linux x86_64,60,61025ae37ef11b136ea224fe,,,,,,,,,479,74.33227539,28.43261719,1,0,1,response1disk,,6,27.88745117,-4.496032715,1,0,1,rectangle,27.88745117,-4.496032715,1,0,1,27.88745117,-4.496032715,1,0,1,0,131,131,47,1,,,,,,,,
,,,,,,,,,,,,,FF,,,,,,,,0.966745,,,,,,,,,,,,,,,,,,,,,,6100ac178a474bfcc555379b,61036798113185a62b47c86b,2021-07-29_21h48.14.341,Simcolourproject_2stim_asymm_v5,2020.2.10,Linux x86_64,60,61025ae37ef11b136ea224fe,,,,,,,,,2053,35.68334961,-21.09713745,1,0,1,response3disk,,5,20.59075928,-9.9715271,1,0,1,rectangle,59.07171631,-37.43359375,1,0,1,-7.091796875,-6.203582764,1,0,1,0,132,132,28,1,,response3disk_3,TRUE,5,5,"[49,172,0,179,236,182,217,0,121,252,257,133,301,87,280,173,91,183,109,90]",1.83284,rectangle
,,,,,,,,,,,,,FF,,,,,,,,1.349525,,,,,,,,,,,,,,,,,,,,,,6100ac178a474bfcc555379b,61036798113185a62b47c86b,2021-07-29_21h48.14.341,Simcolourproject_2stim_asymm_v5,2020.2.10,Linux x86_64,60,61025ae37ef11b136ea224fe,,,,,,,,,1943,66.82287598,-36.12652588,1,0,1,response3disk,,5,8.596069336,-1.346984863,1,0,1,rectangle,8.596069336,-1.346984863,1,0,1,8.596069336,-1.346984863,1,0,1,0,133,133,91,1,,,,,,,,
,,,,,,,,,,,,,FF,,,,,,,,0.96702,,,,,,,,,,,,,,,,,,,,,,6100ac178a474bfcc555379b,61036798113185a62b47c86b,2021-07-29_21h48.14.341,Simcolourproject_2stim_asymm_v5,2020.2.10,Linux x86_64,60,61025ae37ef11b136ea224fe,,,,,,,,,3235,84.57373047,36.90792847,1,0,1,response1disk,,6,24.30114746,1.488983154,1,0,1,rectangle,24.30114746,1.488983154,1,0,1,24.30114746,1.488983154,1,0,1,0,134,134,96,1,,,,,,,,
,,,,,,,,,,,,,FF,,,,,,,,1.28367,,,,,,,,,,,,,,,,,,,,,,6100ac178a474bfcc555379b,61036798113185a62b47c86b,2021-07-29_21h48.14.341,Simcolourproject_2stim_asymm_v5,2020.2.10,Linux x86_64,60,61025ae37ef11b136ea224fe,,,,,,,,,1534,-64.70568848,-28.10971069,1,0,1,response5disk,,2,-20.88122559,-5.98727417,1,0,1,rectangle,-20.88122559,-5.98727417,1,0,1,-20.88122559,-5.98727417,1,0,1,0,135,135,62,1,,,,,,,,
,,,,,,,,,,,,,FF,,,,,,,,1.116575,,,,,,,,,,,,,,,,,,,,,,6100ac178a474bfcc555379b,61036798113185a62b47c86b,2021-07-29_21h48.14.341,Simcolourproject_2stim_asymm_v5,2020.2.10,Linux x86_64,60,61025ae37ef11b136ea224fe,,,,,,,,,2044,19.09979248,-42.51705933,1,0,1,response3disk,,4,1.422973633,-5.034545898,1,0,1,rectangle,1.422973633,-5.034545898,1,0,1,1.422973633,-5.034545898,1,0,1,0,136,136,136,1,,,,,,,,
,,,,,,,,,,,,,FF,,,,,,,,1.200035,,,,,,,,,,,,,,,,,,,,,,6100ac178a474bfcc555379b,61036798113185a62b47c86b,2021-07-29_21h48.14.341,Simcolourproject_2stim_asymm_v5,2020.2.10,Linux x86_64,60,61025ae37ef11b136ea224fe,,,,,,,,,643,39.37384033,-24.55953979,1,0,1,response3disk,,5,4.793151855,1.500274658,1,0,1,rectangle,4.793151855,1.500274658,1,0,1,4.793151855,1.500274658,1,0,1,0,137,137,59,1,,,,,,,,
,,,,,,,,,,,,,FF,,,,,,,,0.98493,,,,,,,,,,,,,,,,,,,,,,6100ac178a474bfcc555379b,61036798113185a62b47c86b,2021-07-29_21h48.14.341,Simcolourproject_2stim_asymm_v5,2020.2.10,Linux x86_64,60,61025ae37ef11b136ea224fe,,,,,,,,,1353,-26.21636963,-41.40637207,1,0,1,response5disk,,3,15.59753418,4.064178467,1,0,1,rectangle,15.59753418,4.064178467,1,0,1,15.59753418,4.064178467,1,0,1,0,138,138,11,1,,,,,,,,
,,,,,,,,,,,,,FF,,,,,,,,0.96668,,,,,,,,,,,,,,,,,,,,,,6100ac178a474bfcc555379b,61036798113185a62b47c86b,2021-07-29_21h48.14.341,Simcolourproject_2stim_asymm_v5,2020.2.10,Linux x86_64,60,61025ae37ef11b136ea224fe,,,,,,,,,3974,-52.69116211,-34.19519043,1,0,1,response5disk,,2,-12.06842041,-3.620788574,1,0,1,rectangle,-12.06842041,-3.620788574,1,0,1,-12.06842041,-3.620788574,1,0,1,0,139,139,122,1,,,,,,,,
,,,,,,,,,,,,,FF,,,,,,,,1.383525,,,,,,,,,,,,,,,,,,,,,,6100ac178a474bfcc555379b,61036798113185a62b47c86b,2021-07-29_21h48.14.341,Simcolourproject_2stim_asymm_v5,2020.2.10,Linux x86_64,60,61025ae37ef11b136ea224fe,,,,,,,,,713,31.60205078,-57.15289307,1,0,1,response3disk,,4,-1.260437012,0.682403564,1,0,1,rectangle,-1.260437012,0.682403564,1,0,1,-1.260437012,0.682403564,1,0,1,0,140,140,14,1,,,,,,,,
,,,,,,,,,,,,,FF,,,,,,,,0.933365,,,,,,,,,,,,,,,,,,,,,,6100ac178a474bfcc555379b,61036798113185a62b47c86b,2021-07-29_21h48.14.341,Simcolourproject_2stim_asymm_v5,2020.2.10,Linux x86_64,60,61025ae37ef11b136ea224fe,,,,,,,,,2107,-46.34906006,-29.49606323,1,0,1,response5disk,,2,-16.38800049,-6.701385498,1,0,1,rectangle,-16.38800049,-6.701385498,1,0,1,-16.38800049,-6.701385498,1,0,1,0,141,141,104,1,,,,,,,,
,,,,,,,,,,,,,FF,,,,,,,,1.183315,,,,,,,,,,,,,,,,,,,,,,6100ac178a474bfcc555379b,61036798113185a62b47c86b,2021-07-29_21h48.14.341,Simcolourproject_2stim_asymm_v5,2020.2.10,Linux x86_64,60,61025ae37ef11b136ea224fe,,,,,,,,,3836,24.87854004,-52.61801147,1,0,1,response3disk,,4,1.738098145,-2.505218506,1,0,1,rectangle,1.738098145,-2.505218506,1,0,1,1.738098145,-2.505218506,1,0,1,0,142,142,121,1,,,,,,,,
,,,,,,,,,,,,,FF,,,,,,,,1.350055,,,,,,,,,,,,,,,,,,,,,,6100ac178a474bfcc555379b,61036798113185a62b47c86b,2021-07-29_21h48.14.341,Simcolourproject_2stim_asymm_v5,2020.2.10,Linux x86_64,60,61025ae37ef11b136ea224fe,,,,,,,,,2943,-25.41363525,-49.90966797,1,0,1,response5disk,,3,23.84796143,5.247589111,1,0,1,rectangle,23.84796143,5.247589111,1,0,1,23.84796143,5.247589111,1,0,1,0,143,143,10,1,,,,,,,,
,,,,,,,,,,,,,FF,,,,,,,,1.46687,,,,,,,,,,,,,,,,,,,,,,6100ac178a474bfcc555379b,61036798113185a62b47c86b,2021-07-29_21h48.14.341,Simcolourproject_2stim_asymm_v5,2020.2.10,Linux x86_64,60,61025ae37ef11b136ea224fe,,,,,,,,,3571,51.1496582,-37.18716431,1,0,1,response3disk,,5,8.359863281,-8.702178955,1,0,1,rectangle,8.359863281,-8.702178955,1,0,1,8.359863281,-8.702178955,1,0,1,0,144,144,87,1,,,,,,,,
,,,,,,,,,,,,,FF,,,,,,,,1.51634,,,,,,,,,,,,,,,,,,,,,,6100ac178a474bfcc555379b,61036798113185a62b47c86b,2021-07-29_21h48.14.341,Simcolourproject_2stim_asymm_v5,2020.2.10,Linux x86_64,60,61025ae37ef11b136ea224fe,,,,,,,,,1660,22.48339844,-38.47363281,1,0,1,response3disk,,4,11.12908936,1.895233154,1,0,1,rectangle,11.12908936,1.895233154,1,0,1,11.12908936,1.895233154,1,0,1,0,145,145,25,1,,,,,,,,
,,,,,,,,,,,,,FF,,,,,,,,0.999955,,,,,,,,,,,,,,,,,,,,,,6100ac178a474bfcc555379b,61036798113185a62b47c86b,2021-07-29_21h48.14.341,Simcolourproject_2stim_asymm_v5,2020.2.10,Linux x86_64,60,61025ae37ef11b136ea224fe,,,,,,,,,1846,27.24139404,-40.13314819,1,0,1,response3disk,,4,7.293395996,0.416381836,1,0,1,rectangle,7.293395996,0.416381836,1,0,1,7.293395996,0.416381836,1,0,1,0,146,146,22,1,,,,,,,,
,,,,,,,,,,,,,FF,,,,,,,,1.05355,,,,,,,,,,,,,,,,,,,,,,6100ac178a474bfcc555379b,61036798113185a62b47c86b,2021-07-29_21h48.14.341,Simcolourproject_2stim_asymm_v5,2020.2.10,Linux x86_64,60,61025ae37ef11b136ea224fe,,,,,,,,,2371,-30.5925293,-48.25415039,1,0,1,response5disk,,3,2.275634766,-9.918670654,1,0,1,rectangle,2.275634766,-9.918670654,1,0,1,2.275634766,-9.918670654,1,0,1,0,147,147,151,1,,,,,,,,
,,,,,,,,,,,,,FF,,,,,,,,1.5836,,,,,,,,,,,,,,,,,,,,,,6100ac178a474bfcc555379b,61036798113185a62b47c86b,2021-07-29_21h48.14.341,Simcolourproject_2stim_asymm_v5,2020.2.10,Linux x86_64,60,61025ae37ef11b136ea224fe,,,,,,,,,2532,69.793396,-39.72601318,1,0,1,response3disk,,5,27.19555664,-4.980499268,1,0,1,rectangle,27.19555664,-4.980499268,1,0,1,27.19555664,-4.980499268,1,0,1,0,148,148,85,1,,,,,,,,
,,,,,,,,,,,,,FF,,,,,,,,1.50117,,,,,,,,,,,,,,,,,,,,,,6100ac178a474bfcc555379b,61036798113185a62b47c86b,2021-07-29_21h48.14.341,Simcolourproject_2stim_asymm_v5,2020.2.10,Linux x86_64,60,61025ae37ef11b136ea224fe,,,,,,,,,1765,33.97894287,-50.30484009,1,0,1,response3disk,,4,2.59942627,-15.04284668,1,0,1,rectangle,2.59942627,-15.04284668,1,0,1,2.59942627,-15.04284668,1,0,1,0,149,149,27,1,,,,,,,,
,,,,,,,,,,,,,FF,,,,,,,,0.916925,,,,,,,,,,,,,,,,,,,,,,6100ac178a474bfcc555379b,61036798113185a62b47c86b,2021-07-29_21h48.14.341,Simcolourproject_2stim_asymm_v5,2020.2.10,Linux x86_64,60,61025ae37ef11b136ea224fe,,,,,,,,,522,-24.10595703,-40.60314941,1,0,1,response5disk,,3,8.256286621,3.398956299,1,0,1,rectangle,8.256286621,3.398956299,1,0,1,8.256286621,3.398956299,1,0,1,0,150,150,141,1,,,,,,,,
,,,,,,,,,,,,,FF,,,,,,,,0.933455,,,,,,,,,,,,,,,,,,,,,,6100ac178a474bfcc555379b,61036798113185a62b47c86b,2021-07-29_21h48.14.341,Simcolourproject_2stim_asymm_v5,2020.2.10,Linux x86_64,60,61025ae37ef11b136ea224fe,,,,,,,,,1326,31.03515625,-38.83358765,1,0,1,response3disk,,4,10.24243164,1.247772217,1,0,1,rectangle,10.24243164,1.247772217,1,0,1,10.24243164,1.247772217,1,0,1,0,151,151,113,1,,,,,,,,
,,,,,,,,,,,,,FF,,,,,,,,1.05023,,,,,,,,,,,,,,,,,,,,,,6100ac178a474bfcc555379b,61036798113185a62b47c86b,2021-07-29_21h48.14.341,Simcolourproject_2stim_asymm_v5,2020.2.10,Linux x86_64,60,61025ae37ef11b136ea224fe,,,,,,,,,2629,48.27728271,-28.21417236,1,0,1,response3disk,,5,15.23583984,-5.402282715,1,0,1,rectangle,15.23583984,-5.402282715,1,0,1,15.23583984,-5.402282715,1,0,1,0,152,152,82,1,,,,,,,,
,,,,,,,,,,,,,FF,,,,,,,,1.23317,,,,,,,,,,,,,,,,,,,,,,6100ac178a474bfcc555379b,61036798113185a62b47c86b,2021-07-29_21h48.14.341,Simcolourproject_2stim_asymm_v5,2020.2.10,Linux x86_64,60,61025ae37ef11b136ea224fe,,,,,,,,,211,17.59118652,-38.60452271,1,0,1,response3disk,,4,1.149719238,-8.528717041,1,0,1,rectangle,1.149719238,-8.528717041,1,0,1,1.149719238,-8.528717041,1,0,1,0,153,153,159,1,,,,,,,,
,,,,,,,,,,,,,FF,,,,,,,,1.783295,,,,,,,,,,,,,,,,,,,,,,6100ac178a474bfcc555379b,61036798113185a62b47c86b,2021-07-29_21h48.14.341,Simcolourproject_2stim_asymm_v5,2020.2.10,Linux x86_64,60,61025ae37ef11b136ea224fe,,,,,,,,,1889,-41.72601318,32.20675659,1,0,1,response7disk,,1,-12.64556885,-3.418212891,1,0,1,rectangle,-12.64556885,-3.418212891,1,0,1,-12.64556885,-3.418212891,1,0,1,0,154,154,126,1,,,,,,,,
,,,,,,,,,,,,,FF,,,,,,,,1.16852,,,,,,,,,,,,,,,,,,,,,,6100ac178a474bfcc555379b,61036798113185a62b47c86b,2021-07-29_21h48.14.341,Simcolourproject_2stim_asymm_v5,2020.2.10,Linux x86_64,60,61025ae37ef11b136ea224fe,,,,,,,,,2978,70.86749268,-26.41052246,1,0,1,response3disk,,5,17.54400635,-6.145385742,1,0,1,rectangle,17.54400635,-6.145385742,1,0,1,17.54400635,-6.145385742,1,0,1,0,155,155,73,1,,,,,,,,
,,,,,,,,,,,,,FF,,,,,,,,0.8836,,,,,,,,,,,,,,,,,,,,,,6100ac178a474bfcc555379b,61036798113185a62b47c86b,2021-07-29_21h48.14.341,Simcolourproject_2stim_asymm_v5,2020.2.10,Linux x86_64,60,61025ae37ef11b136ea224fe,,,,,,,,,879,50.5703125,-26.37350464,1,0,1,response3disk,,5,1.657836914,9.295196533,1,0,1,rectangle,1.657836914,9.295196533,1,0,1,1.657836914,9.295196533,1,0,1,0,156,156,144,1,,,,,,,,
,,,,,,,,,,,,,FF,,,,,,,,0.900335,,,,,,,,,,,,,,,,,,,,,,6100ac178a474bfcc555379b,61036798113185a62b47c86b,2021-07-29_21h48.14.341,Simcolourproject_2stim_asymm_v5,2020.2.10,Linux x86_64,60,61025ae37ef11b136ea224fe,,,,,,,,,484,77.77935791,35.51702881,1,0,1,response1disk,,6,14.49212646,0.40914917,1,0,1,rectangle,14.49212646,0.40914917,1,0,1,14.49212646,0.40914917,1,0,1,0,157,157,142,1,,,,,,,,
,,,,,,,,,,,,,FF,,,,,,,,0.952445,,,,,,,,,,,,,,,,,,,,,,6100ac178a474bfcc555379b,61036798113185a62b47c86b,2021-07-29_21h48.14.341,Simcolourproject_2stim_asymm_v5,2020.2.10,Linux x86_64,60,61025ae37ef11b136ea224fe,,,,,,,,,1021,54.82794189,36.67739868,1,0,1,response1disk,,6,15.3046875,2.939178467,1,0,1,rectangle,15.3046875,2.939178467,1,0,1,15.3046875,2.939178467,1,0,1,0,158,158,76,1,,,,,,,,
,,,,,,,,,,,,,FF,,,,,,,,1.48642,,,,,,,,,,,,,,,,,,,,,,6100ac178a474bfcc555379b,61036798113185a62b47c86b,2021-07-29_21h48.14.341,Simcolourproject_2stim_asymm_v5,2020.2.10,Linux x86_64,60,61025ae37ef11b136ea224fe,,,,,,,,,477,40.13226318,-27.70874023,1,0,1,response3disk,,5,17.70812988,-11.22177124,1,0,1,rectangle,17.70812988,-11.22177124,1,0,1,17.70812988,-11.22177124,1,0,1,0,159,159,17,1,,,,,,,,
,,,,,,,,,,,,,FF,,,,,,,,1.00077,,,,,,,,,,,,,,,,,,,,,,6100ac178a474bfcc555379b,61036798113185a62b47c86b,2021-07-29_21h48.14.341,Simcolourproject_2stim_asymm_v5,2020.2.10,Linux x86_64,60,61025ae37ef11b136ea224fe,,,,,,,,,2503,71.86578369,37.93963623,1,0,1,response1disk,,6,-8.068969727,-2.455078125,1,0,1,rectangle,-8.068969727,-2.455078125,1,0,1,-8.068969727,-2.455078125,1,0,1,1,0,160,32,1,,,,,,,,
,,,,,,,,,,,,,FF,,,,,,,,0.98406,,,,,,,,,,,,,,,,,,,,,,6100ac178a474bfcc555379b,61036798113185a62b47c86b,2021-07-29_21h48.14.341,Simcolourproject_2stim_asymm_v5,2020.2.10,Linux x86_64,60,61025ae37ef11b136ea224fe,,,,,,,,,1855,71.04333496,47.384552,1,0,1,response1disk,,6,20.27783203,0.046813965,1,0,1,rectangle,20.27783203,0.046813965,1,0,1,20.27783203,0.046813965,1,0,1,1,1,161,29,1,,,,,,,,
,,,,,,,,,,,,,FF,,,,,,,,1.233615,,,,,,,,,,,,,,,,,,,,,,6100ac178a474bfcc555379b,61036798113185a62b47c86b,2021-07-29_21h48.14.341,Simcolourproject_2stim_asymm_v5,2020.2.10,Linux x86_64,60,61025ae37ef11b136ea224fe,,,,,,,,,3226,-31.82788086,-64.53009033,1,0,1,response5disk,,3,-1.091247559,-1.654937744,1,0,1,rectangle,-1.091247559,-1.654937744,1,0,1,-1.091247559,-1.654937744,1,0,1,1,2,162,6,1,,,,,,,,
,,,,,,,,,,,,,FF,,,,,,,,1.18325,,,,,,,,,,,,,,,,,,,,,,6100ac178a474bfcc555379b,61036798113185a62b47c86b,2021-07-29_21h48.14.341,Simcolourproject_2stim_asymm_v5,2020.2.10,Linux x86_64,60,61025ae37ef11b136ea224fe,,,,,,,,,210,62.14251709,-35.96524048,1,0,1,response3disk,,5,16.43914795,-3.631591797,1,0,1,rectangle,16.43914795,-3.631591797,1,0,1,16.43914795,-3.631591797,1,0,1,1,3,163,127,1,,,,,,,,
,,,,,,,,,,,,,FF,,,,,,,,1.050165,,,,,,,,,,,,,,,,,,,,,,6100ac178a474bfcc555379b,61036798113185a62b47c86b,2021-07-29_21h48.14.341,Simcolourproject_2stim_asymm_v5,2020.2.10,Linux x86_64,60,61025ae37ef11b136ea224fe,,,,,,,,,3935,-63.74060059,-27.58322144,1,0,1,response5disk,,2,-27.10058594,0.480407715,1,0,1,rectangle,-27.10058594,0.480407715,1,0,1,-27.10058594,0.480407715,1,0,1,1,4,164,142,1,,,,,,,,
,,,,,,,,,,,,,FF,,,,,,,,0.883545,,,,,,,,,,,,,,,,,,,,,,6100ac178a474bfcc555379b,61036798113185a62b47c86b,2021-07-29_21h48.14.341,Simcolourproject_2stim_asymm_v5,2020.2.10,Linux x86_64,60,61025ae37ef11b136ea224fe,,,,,,,,,1381,-76.40325928,-28.90640259,1,0,1,response5disk,,2,-12.99255371,-5.370941162,1,0,1,rectangle,-12.99255371,-5.370941162,1,0,1,-12.99255371,-5.370941162,1,0,1,1,5,165,76,1,,,,,,,,
,,,,,,,,,,,,,FF,,,,,,,,1.150775,,,,,,,,,,,,,,,,,,,,,,6100ac178a474bfcc555379b,61036798113185a62b47c86b,2021-07-29_21h48.14.341,Simcolourproject_2stim_asymm_v5,2020.2.10,Linux x86_64,60,61025ae37ef11b136ea224fe,,,,,,,,,3920,-30.23498535,-54.64666748,1,0,1,response5disk,,3,6.336608887,-5.780090332,1,0,1,rectangle,6.336608887,-5.780090332,1,0,1,6.336608887,-5.780090332,1,0,1,1,6,166,63,1,,,,,,,,
,,,,,,,,,,,,,FF,,,,,,,,1.05019,,,,,,,,,,,,,,,,,,,,,,6100ac178a474bfcc555379b,61036798113185a62b47c86b,2021-07-29_21h48.14.341,Simcolourproject_2stim_asymm_v5,2020.2.10,Linux x86_64,60,61025ae37ef11b136ea224fe,,,,,,,,,3264,35.04016113,-52.05963135,1,0,1,response3disk,,4,-6.294250488,4.303192139,1,0,1,rectangle,-6.294250488,4.303192139,1,0,1,-6.294250488,4.303192139,1,0,1,1,7,167,112,1,,,,,,,,
,,,,,,,,,,,,,FF,,,,,,,,1.24962,,,,,,,,,,,,,,,,,,,,,,6100ac178a474bfcc555379b,61036798113185a62b47c86b,2021-07-29_21h48.14.341,Simcolourproject_2stim_asymm_v5,2020.2.10,Linux x86_64,60,61025ae37ef11b136ea224fe,,,,,,,,,2119,36.96990967,-29.64859009,1,0,1,response3disk,,5,-3.686523438,2.805206299,1,0,1,rectangle,-3.686523438,2.805206299,1,0,1,-3.686523438,2.805206299,1,0,1,1,8,168,4,1,,,,,,,,
,,,,,,,,,,,,,FF,,,,,,,,1.083655,,,,,,,,,,,,,,,,,,,,,,6100ac178a474bfcc555379b,61036798113185a62b47c86b,2021-07-29_21h48.14.341,Simcolourproject_2stim_asymm_v5,2020.2.10,Linux x86_64,60,61025ae37ef11b136ea224fe,,,,,,,,,1467,-28.59869385,-47.46395874,1,0,1,response5disk,,3,-0.475158691,-12.60394287,1,0,1,rectangle,-0.475158691,-12.60394287,1,0,1,-0.475158691,-12.60394287,1,0,1,1,9,169,85,1,,,,,,,,
,,,,,,,,,,,,,FF,,,,,,,,1.052715,,,,,,,,,,,,,,,,,,,,,,6100ac178a474bfcc555379b,61036798113185a62b47c86b,2021-07-29_21h48.14.341,Simcolourproject_2stim_asymm_v5,2020.2.10,Linux x86_64,60,61025ae37ef11b136ea224fe,,,,,,,,,141,53.57391357,-27.66217041,1,0,1,response3disk,,5,10.3994751,-12.44046021,1,0,1,rectangle,10.3994751,-12.44046021,1,0,1,10.3994751,-12.44046021,1,0,1,1,10,170,81,1,,,,,,,,
,,,,,,,,,,,,,FF,,,,,,,,1.216505,,,,,,,,,,,,,,,,,,,,,,6100ac178a474bfcc555379b,61036798113185a62b47c86b,2021-07-29_21h48.14.341,Simcolourproject_2stim_asymm_v5,2020.2.10,Linux x86_64,60,61025ae37ef11b136ea224fe,,,,,,,,,3450,41.90026855,23.31185913,1,0,1,response1disk,,6,20.57781982,4.296417236,1,0,1,rectangle,62.07910156,-36.46591187,1,0,1,2.292358398,6.835449219,1,0,1,1,11,171,65,1,,response3disk_3,TRUE,5,5,"[49,172,0,179,236,182,217,0,121,252,257,133,301,87,280,173,91,183,109,90]",6.60022,rectangle
,,,,,,,,,,,,,FF,,,,,,,,1.999995,,,,,,,,,,,,,,,,,,,,,,6100ac178a474bfcc555379b,61036798113185a62b47c86b,2021-07-29_21h48.14.341,Simcolourproject_2stim_asymm_v5,2020.2.10,Linux x86_64,60,61025ae37ef11b136ea224fe,,,,,,,,,3145,44.4052124,-17.20523071,1,0,1,response3disk,,5,9.878234863,-1.394317627,1,0,1,rectangle,55.52215576,-38.17938232,1,0,1,-1.83001709,-0.648132324,1,0,1,1,12,172,144,1,,response3disk_3,TRUE,5,5,"[49,172,0,179,236,182,217,0,121,252,257,133,301,87,280,173,91,183,109,90]",1.9668,rectangle
,,,,,,,,,,,,,FF,,,,,,,,1.01708,,,,,,,,,,,,,,,,,,,,,,6100ac178a474bfcc555379b,61036798113185a62b47c86b,2021-07-29_21h48.14.341,Simcolourproject_2stim_asymm_v5,2020.2.10,Linux x86_64,60,61025ae37ef11b136ea224fe,,,,,,,,,4316,-34.31005859,61.07794189,1,0,1,response7disk,,0,-8.381225586,5.477661133,1,0,1,rectangle,-8.381225586,5.477661133,1,0,1,-8.381225586,5.477661133,1,0,1,1,13,173,53,1,,,,,,,,
,,,,,,,,,,,,,FF,,,,,,,,1.43353,,,,,,,,,,,,,,,,,,,,,,6100ac178a474bfcc555379b,61036798113185a62b47c86b,2021-07-29_21h48.14.341,Simcolourproject_2stim_asymm_v5,2020.2.10,Linux x86_64,60,61025ae37ef11b136ea224fe,,,,,,,,,545,26.10498047,-47.22451782,1,0,1,response3disk,,4,-4.165527344,2.314453125,1,0,1,rectangle,-4.165527344,2.314453125,1,0,1,-4.165527344,2.314453125,1,0,1,1,14,174,23,1,,,,,,,,
,,,,,,,,,,,,,FF,,,,,,,,1.583825,,,,,,,,,,,,,,,,,,,,,,6100ac178a474bfcc555379b,61036798113185a62b47c86b,2021-07-29_21h48.14.341,Simcolourproject_2stim_asymm_v5,2020.2.10,Linux x86_64,60,61025ae37ef11b136ea224fe,,,,,,,,,3102,35.37567139,-58.54803467,1,0,1,response3disk,,4,-2.923461914,-2.641815186,1,0,1,rectangle,-2.923461914,-2.641815186,1,0,1,-2.923461914,-2.641815186,1,0,1,1,15,175,103,1,,,,,,,,
,,,,,,,,,,,,,FF,,,,,,,,0.951465,,,,,,,,,,,,,,,,,,,,,,6100ac178a474bfcc555379b,61036798113185a62b47c86b,2021-07-29_21h48.14.341,Simcolourproject_2stim_asymm_v5,2020.2.10,Linux x86_64,60,61025ae37ef11b136ea224fe,,,,,,,,,2276,51.32495117,-34.25701904,1,0,1,response3disk,,5,9.679931641,-3.583618164,1,0,1,rectangle,9.679931641,-3.583618164,1,0,1,9.679931641,-3.583618164,1,0,1,1,16,176,82,1,,,,,,,,
,,,,,,,,,,,,,FF,,,,,,,,1.216635,,,,,,,,,,,,,,,,,,,,,,6100ac178a474bfcc555379b,61036798113185a62b47c86b,2021-07-29_21h48.14.341,Simcolourproject_2stim_asymm_v5,2020.2.10,Linux x86_64,60,61025ae37ef11b136ea224fe,,,,,,,,,2314,50.41534424,27.66842651,1,0,1,response1disk,,6,20.15100098,-2.055664063,1,0,1,rectangle,20.15100098,-2.055664063,1,0,1,20.15100098,-2.055664063,1,0,1,1,17,177,119,1,,,,,,,,
,,,,,,,,,,,,,FF,,,,,,,,1.18337,,,,,,,,,,,,,,,,,,,,,,6100ac178a474bfcc555379b,61036798113185a62b47c86b,2021-07-29_21h48.14.341,Simcolourproject_2stim_asymm_v5,2020.2.10,Linux x86_64,60,61025ae37ef11b136ea224fe,,,,,,,,,2140,54.67755127,32.16516113,1,0,1,response1disk,,6,21.08929443,-2.581451416,1,0,1,rectangle,37.34417725,71.76028442,1,0,1,10.33374023,7.829864502,1,0,1,1,18,178,134,1,,response1disk_3,TRUE,7,7,"[49,172,0,179,236,182,217,0,121,252,257,133,301,87,280,173,91,183,109,90]",1.63324,rectangle
,,,,,,,,,,,,,FF,,,,,,,,2.43322,,,,,,,,,,,,,,,,,,,,,,6100ac178a474bfcc555379b,61036798113185a62b47c86b,2021-07-29_21h48.14.341,Simcolourproject_2stim_asymm_v5,2020.2.10,Linux x86_64,60,61025ae37ef11b136ea224fe,,,,,,,,,744,50.6348877,-36.90109253,1,0,1,response3disk,,5,12.29730225,-3.692382813,1,0,1,rectangle,12.29730225,-3.692382813,1,0,1,12.29730225,-3.692382813,1,0,1,1,19,179,125,1,,,,,,,,
,,,,,,,,,,,,,FF,,,,,,,,0.96661,,,,,,,,,,,,,,,,,,,,,,6100ac178a474bfcc555379b,61036798113185a62b47c86b,2021-07-29_21h48.14.341,Simcolourproject_2stim_asymm_v5,2020.2.10,Linux x86_64,60,61025ae37ef11b136ea224fe,,,,,,,,,3656,50.3303833,33.77835083,1,0,1,response1disk,,6,23.16680908,1.153625488,1,0,1,rectangle,23.16680908,1.153625488,1,0,1,23.16680908,1.153625488,1,0,1,1,20,180,50,1,,,,,,,,
,,,,,,,,,,,,,FF,,,,,,,,1.21886,,,,,,,,,,,,,,,,,,,,,,6100ac178a474bfcc555379b,61036798113185a62b47c86b,2021-07-29_21h48.14.341,Simcolourproject_2stim_asymm_v5,2020.2.10,Linux x86_64,60,61025ae37ef11b136ea224fe,,,,,,,,,3701,35.08691406,60.36682129,1,0,1,response1disk,,7,7.61541748,6.464599609,1,0,1,rectangle,-40.484375,-64.81967163,1,0,1,16.70501709,-9.655853271,1,0,1,1,21,181,120,1,,response5disk_3,TRUE,3,3,"[49,172,0,179,236,182,217,0,121,252,257,133,301,87,280,173,91,183,109,90]",1.816525,rectangle
,,,,,,,,,,,,,FF,,,,,,,,1.06658,,,,,,,,,,,,,,,,,,,,,,6100ac178a474bfcc555379b,61036798113185a62b47c86b,2021-07-29_21h48.14.341,Simcolourproject_2stim_asymm_v5,2020.2.10,Linux x86_64,60,61025ae37ef11b136ea224fe,,,,,,,,,3527,62.88128662,32.8765564,1,0,1,response1disk,,6,16.80010986,-12.59292603,1,0,1,rectangle,51.99554443,-30.90634155,1,0,1,-1.592712402,-0.650360107,1,0,1,1,22,182,91,1,,response3disk_3,TRUE,5,5,"[49,172,0,179,236,182,217,0,121,252,257,133,301,87,280,173,91,183,109,90]",1.54988,rectangle
,,,,,,,,,,,,,FF,,,,,,,,0.916605,,,,,,,,,,,,,,,,,,,,,,6100ac178a474bfcc555379b,61036798113185a62b47c86b,2021-07-29_21h48.14.341,Simcolourproject_2stim_asymm_v5,2020.2.10,Linux x86_64,60,61025ae37ef11b136ea224fe,,,,,,,,,2699,51.66094971,34.26251221,1,0,1,response1disk,,6,23.83892822,2.81842041,1,0,1,rectangle,23.83892822,2.81842041,1,0,1,23.83892822,2.81842041,1,0,1,1,23,183,58,1,,,,,,,,
,,,,,,,,,,,,,FF,,,,,,,,0.983265,,,,,,,,,,,,,,,,,,,,,,6100ac178a474bfcc555379b,61036798113185a62b47c86b,2021-07-29_21h48.14.341,Simcolourproject_2stim_asymm_v5,2020.2.10,Linux x86_64,60,61025ae37ef11b136ea224fe,,,,,,,,,1172,53.87805176,31.02453613,1,0,1,response1disk,,6,22.824646,-0.757263184,1,0,1,rectangle,22.824646,-0.757263184,1,0,1,22.824646,-0.757263184,1,0,1,1,24,184,16,1,,,,,,,,
,,,,,,,,,,,,,FF,,,,,,,,0.900735,,,,,,,,,,,,,,,,,,,,,,6100ac178a474bfcc555379b,61036798113185a62b47c86b,2021-07-29_21h48.14.341,Simcolourproject_2stim_asymm_v5,2020.2.10,Linux x86_64,60,61025ae37ef11b136ea224fe,,,,,,,,,911,74.10168457,46.12387085,1,0,1,response1disk,,6,16.95367432,-7.063781738,1,0,1,rectangle,16.95367432,-7.063781738,1,0,1,16.95367432,-7.063781738,1,0,1,1,25,185,78,1,,,,,,,,
,,,,,,,,,,,,,FF,,,,,,,,1.31802,,,,,,,,,,,,,,,,,,,,,,6100ac178a474bfcc555379b,61036798113185a62b47c86b,2021-07-29_21h48.14.341,Simcolourproject_2stim_asymm_v5,2020.2.10,Linux x86_64,60,61025ae37ef11b136ea224fe,,,,,,,,,2246,22.98425293,52.10055542,1,0,1,response1disk,,7,3.998596191,-15.14547729,1,0,1,rectangle,3.998596191,-15.14547729,1,0,1,3.998596191,-15.14547729,1,0,1,1,26,186,155,1,,,,,,,,
,,,,,,,,,,,,,FF,,,,,,,,1.333495,,,,,,,,,,,,,,,,,,,,,,6100ac178a474bfcc555379b,61036798113185a62b47c86b,2021-07-29_21h48.14.341,Simcolourproject_2stim_asymm_v5,2020.2.10,Linux x86_64,60,61025ae37ef11b136ea224fe,,,,,,,,,2161,50.58728027,31.72232056,1,0,1,response1disk,,6,14.2421875,-0.530975342,1,0,1,rectangle,14.2421875,-0.530975342,1,0,1,14.2421875,-0.530975342,1,0,1,1,27,187,84,1,,,,,,,,
,,,,,,,,,,,,,FF,,,,,,,,0.899955,,,,,,,,,,,,,,,,,,,,,,6100ac178a474bfcc555379b,61036798113185a62b47c86b,2021-07-29_21h48.14.341,Simcolourproject_2stim_asymm_v5,2020.2.10,Linux x86_64,60,61025ae37ef11b136ea224fe,,,,,,,,,3305,51.99780273,-37.63458252,1,0,1,response3disk,,5,4.120666504,-3.353271484,1,0,1,rectangle,4.120666504,-3.353271484,1,0,1,4.120666504,-3.353271484,1,0,1,1,28,188,14,1,,,,,,,,
,,,,,,,,,,,,,FF,,,,,,,,1.56697,,,,,,,,,,,,,,,,,,,,,,6100ac178a474bfcc555379b,61036798113185a62b47c86b,2021-07-29_21h48.14.341,Simcolourproject_2stim_asymm_v5,2020.2.10,Linux x86_64,60,61025ae37ef11b136ea224fe,,,,,,,,,2951,-23.9006958,-71.64865112,1,0,1,response5disk,,3,3.923278809,1.312774658,1,0,1,rectangle,3.923278809,1.312774658,1,0,1,3.923278809,1.312774658,1,0,1,1,29,189,140,1,,,,,,,,
,,,,,,,,,,,,,FF,,,,,,,,0.800365,,,,,,,,,,,,,,,,,,,,,,6100ac178a474bfcc555379b,61036798113185a62b47c86b,2021-07-29_21h48.14.341,Simcolourproject_2stim_asymm_v5,2020.2.10,Linux x86_64,60,61025ae37ef11b136ea224fe,,,,,,,,,1793,33.30712891,-64.41680908,1,0,1,response3disk,,4,3.04864502,-7.419006348,1,0,1,rectangle,3.04864502,-7.419006348,1,0,1,3.04864502,-7.419006348,1,0,1,1,30,190,1,1,,,,,,,,
,,,,,,,,,,,,,FF,,,,,,,,1.216655,,,,,,,,,,,,,,,,,,,,,,6100ac178a474bfcc555379b,61036798113185a62b47c86b,2021-07-29_21h48.14.341,Simcolourproject_2stim_asymm_v5,2020.2.10,Linux x86_64,60,61025ae37ef11b136ea224fe,,,,,,,,,387,26.75683594,-55.58337402,1,0,1,response3disk,,4,-3.553039551,-2.970184326,1,0,1,rectangle,-3.553039551,-2.970184326,1,0,1,-3.553039551,-2.970184326,1,0,1,1,31,191,113,1,,,,,,,,
,,,,,,,,,,,,,FF,,,,,,,,1.052165,,,,,,,,,,,,,,,,,,,,,,6100ac178a474bfcc555379b,61036798113185a62b47c86b,2021-07-29_21h48.14.341,Simcolourproject_2stim_asymm_v5,2020.2.10,Linux x86_64,60,61025ae37ef11b136ea224fe,,,,,,,,,615,77.06323242,19.33023071,1,0,1,response1disk,,6,9.372924805,-4.480377197,1,0,1,rectangle,9.372924805,-4.480377197,1,0,1,9.372924805,-4.480377197,1,0,1,1,32,192,105,1,,,,,,,,
,,,,,,,,,,,,,FF,,,,,,,,1.11647,,,,,,,,,,,,,,,,,,,,,,6100ac178a474bfcc555379b,61036798113185a62b47c86b,2021-07-29_21h48.14.341,Simcolourproject_2stim_asymm_v5,2020.2.10,Linux x86_64,60,61025ae37ef11b136ea224fe,,,,,,,,,3817,-64.84893799,-36.91732788,1,0,1,response5disk,,2,-11.81402588,0.123840332,1,0,1,rectangle,-11.81402588,0.123840332,1,0,1,-11.81402588,0.123840332,1,0,1,1,33,193,111,1,,,,,,,,
,,,,,,,,,,,,,FF,,,,,,,,1.41676,,,,,,,,,,,,,,,,,,,,,,6100ac178a474bfcc555379b,61036798113185a62b47c86b,2021-07-29_21h48.14.341,Simcolourproject_2stim_asymm_v5,2020.2.10,Linux x86_64,60,61025ae37ef11b136ea224fe,,,,,,,,,3009,100.0670166,35.50262451,1,0,1,response1disk,,6,5.174133301,7.334747314,1,0,1,rectangle,5.174133301,7.334747314,1,0,1,5.174133301,7.334747314,1,0,1,1,34,194,94,1,,,,,,,,
,,,,,,,,,,,,,FF,,,,,,,,1.15081,,,,,,,,,,,,,,,,,,,,,,6100ac178a474bfcc555379b,61036798113185a62b47c86b,2021-07-29_21h48.14.341,Simcolourproject_2stim_asymm_v5,2020.2.10,Linux x86_64,60,61025ae37ef11b136ea224fe,,,,,,,,,1961,-55.78253174,-32.58584595,1,0,1,response5disk,,2,-24.22808838,-6.083312988,1,0,1,rectangle,-24.22808838,-6.083312988,1,0,1,-24.22808838,-6.083312988,1,0,1,1,35,195,11,1,,,,,,,,
,,,,,,,,,,,,,FF,,,,,,,,1.333905,,,,,,,,,,,,,,,,,,,,,,6100ac178a474bfcc555379b,61036798113185a62b47c86b,2021-07-29_21h48.14.341,Simcolourproject_2stim_asymm_v5,2020.2.10,Linux x86_64,60,61025ae37ef11b136ea224fe,,,,,,,,,1051,-61.56500244,36.53213501,1,0,1,response7disk,,1,-19.25256348,0.169128418,1,0,1,rectangle,-19.25256348,0.169128418,1,0,1,-19.25256348,0.169128418,1,0,1,1,36,196,116,1,,,,,,,,
,,,,,,,,,,,,,FF,,,,,,,,1.58457,,,,,,,,,,,,,,,,,,,,,,6100ac178a474bfcc555379b,61036798113185a62b47c86b,2021-07-29_21h48.14.341,Simcolourproject_2stim_asymm_v5,2020.2.10,Linux x86_64,60,61025ae37ef11b136ea224fe,,,,,,,,,2501,98.30334473,24.1869812,1,0,1,response1disk,,6,-10.56268311,7.571258545,1,0,1,rectangle,-10.56268311,7.571258545,1,0,1,-10.56268311,7.571258545,1,0,1,1,37,197,118,1,,,,,,,,
,,,,,,,,,,,,,FF,,,,,,,,1.467145,,,,,,,,,,,,,,,,,,,,,,6100ac178a474bfcc555379b,61036798113185a62b47c86b,2021-07-29_21h48.14.341,Simcolourproject_2stim_asymm_v5,2020.2.10,Linux x86_64,60,61025ae37ef11b136ea224fe,,,,,,,,,2751,59.08306885,-32.07394409,1,0,1,response3disk,,5,16.76940918,-2.133453369,1,0,1,rectangle,16.76940918,-2.133453369,1,0,1,16.76940918,-2.133453369,1,0,1,1,38,198,68,1,,,,,,,,
,,,,,,,,,,,,,FF,,,,,,,,1.25036,,,,,,,,,,,,,,,,,,,,,,6100ac178a474bfcc555379b,61036798113185a62b47c86b,2021-07-29_21h48.14.341,Simcolourproject_2stim_asymm_v5,2020.2.10,Linux x86_64,60,61025ae37ef11b136ea224fe,,,,,,,,,519,73.65447998,35.90029907,1,0,1,response1disk,,6,27.48052979,-1.832977295,1,0,1,rectangle,27.48052979,-1.832977295,1,0,1,27.48052979,-1.832977295,1,0,1,1,39,199,138,1,,,,,,,,
,,,,,,,,,,,,,FF,,,,,,,,1.30001,,,,,,,,,,,,,,,,,,,,,,6100ac178a474bfcc555379b,61036798113185a62b47c86b,2021-07-29_21h48.14.341,Simcolourproject_2stim_asymm_v5,2020.2.10,Linux x86_64,60,61025ae37ef11b136ea224fe,,,,,,,,,1924,56.17547607,33.81188965,1,0,1,response1disk,,6,26.92712402,9.356842041,1,0,1,rectangle,26.92712402,9.356842041,1,0,1,26.92712402,9.356842041,1,0,1,1,40,200,35,1,,,,,,,,
,,,,,,,,,,,,,FF,,,,,,,,0.966405,,,,,,,,,,,,,,,,,,,,,,6100ac178a474bfcc555379b,61036798113185a62b47c86b,2021-07-29_21h48.14.341,Simcolourproject_2stim_asymm_v5,2020.2.10,Linux x86_64,60,61025ae37ef11b136ea224fe,,,,,,,,,3384,-50.25585938,-30.51605225,1,0,1,response5disk,,2,-21.27868652,-4.238220215,1,0,1,rectangle,-21.27868652,-4.238220215,1,0,1,-21.27868652,-4.238220215,1,0,1,1,41,201,102,1,,,,,,,,
,,,,,,,,,,,,,FF,,,,,,,,0.95001,,,,,,,,,,,,,,,,,,,,,,6100ac178a474bfcc555379b,61036798113185a62b47c86b,2021-07-29_21h48.14.341,Simcolourproject_2stim_asymm_v5,2020.2.10,Linux x86_64,60,61025ae37ef11b136ea224fe,,,,,,,,,3831,92.10205078,-39.70819092,1,0,1,response3disk,,5,22.43127441,-4.01272583,1,0,1,rectangle,22.43127441,-4.01272583,1,0,1,22.43127441,-4.01272583,1,0,1,1,42,202,92,1,,,,,,,,
,,,,,,,,,,,,,FF,,,,,,,,1.73435,,,,,,,,,,,,,,,,,,,,,,6100ac178a474bfcc555379b,61036798113185a62b47c86b,2021-07-29_21h48.14.341,Simcolourproject_2stim_asymm_v5,2020.2.10,Linux x86_64,60,61025ae37ef11b136ea224fe,,,,,,,,,596,28.09234619,-50.67486572,1,0,1,response3disk,,4,9.169616699,-1.36340332,1,0,1,rectangle,9.169616699,-1.36340332,1,0,1,9.169616699,-1.36340332,1,0,1,1,43,203,83,1,,,,,,,,
,,,,,,,,,,,,,FF,,,,,,,,1.1165,,,,,,,,,,,,,,,,,,,,,,6100ac178a474bfcc555379b,61036798113185a62b47c86b,2021-07-29_21h48.14.341,Simcolourproject_2stim_asymm_v5,2020.2.10,Linux x86_64,60,61025ae37ef11b136ea224fe,,,,,,,,,348,-52.08154297,29.64093018,1,0,1,response7disk,,1,-29.77459717,4.249664307,1,0,1,rectangle,-29.77459717,4.249664307,1,0,1,-29.77459717,4.249664307,1,0,1,1,44,204,55,1,,,,,,,,
,,,,,,,,,,,,,FF,,,,,,,,0.8333,,,,,,,,,,,,,,,,,,,,,,6100ac178a474bfcc555379b,61036798113185a62b47c86b,2021-07-29_21h48.14.341,Simcolourproject_2stim_asymm_v5,2020.2.10,Linux x86_64,60,61025ae37ef11b136ea224fe,,,,,,,,,1418,85.449646,30.22546387,1,0,1,response1disk,,6,15.57348633,-4.213195801,1,0,1,rectangle,15.57348633,-4.213195801,1,0,1,15.57348633,-4.213195801,1,0,1,1,45,205,57,1,,,,,,,,
,,,,,,,,,,,,,FF,,,,,,,,1.350275,,,,,,,,,,,,,,,,,,,,,,6100ac178a474bfcc555379b,61036798113185a62b47c86b,2021-07-29_21h48.14.341,Simcolourproject_2stim_asymm_v5,2020.2.10,Linux x86_64,60,61025ae37ef11b136ea224fe,,,,,,,,,2623,45.82434082,27.10308838,1,0,1,response1disk,,6,26.09454346,8.890106201,1,0,1,rectangle,26.09454346,8.890106201,1,0,1,26.09454346,8.890106201,1,0,1,1,46,206,109,1,,,,,,,,
,,,,,,,,,,,,,FF,,,,,,,,0.9339,,,,,,,,,,,,,,,,,,,,,,6100ac178a474bfcc555379b,61036798113185a62b47c86b,2021-07-29_21h48.14.341,Simcolourproject_2stim_asymm_v5,2020.2.10,Linux x86_64,60,61025ae37ef11b136ea224fe,,,,,,,,,52,43.26385498,25.68780518,1,0,1,response1disk,,6,10.72558594,-3.615386963,1,0,1,rectangle,10.72558594,-3.615386963,1,0,1,10.72558594,-3.615386963,1,0,1,1,47,207,77,1,,,,,,,,
,,,,,,,,,,,,,FF,,,,,,,,1.13325,,,,,,,,,,,,,,,,,,,,,,6100ac178a474bfcc555379b,61036798113185a62b47c86b,2021-07-29_21h48.14.341,Simcolourproject_2stim_asymm_v5,2020.2.10,Linux x86_64,60,61025ae37ef11b136ea224fe,,,,,,,,,1771,-44.54278564,-61.71286011,1,0,1,response5disk,,3,6.637207031,14.44940186,1,0,1,rectangle,6.637207031,14.44940186,1,0,1,6.637207031,14.44940186,1,0,1,1,48,208,129,1,,,,,,,,
,,,,,,,,,,,,,FF,,,,,,,,1.00006,,,,,,,,,,,,,,,,,,,,,,6100ac178a474bfcc555379b,61036798113185a62b47c86b,2021-07-29_21h48.14.341,Simcolourproject_2stim_asymm_v5,2020.2.10,Linux x86_64,60,61025ae37ef11b136ea224fe,,,,,,,,,971,19.70074463,-57.18426514,1,0,1,response3disk,,4,0.150878906,-7.973571777,1,0,1,rectangle,0.150878906,-7.973571777,1,0,1,0.150878906,-7.973571777,1,0,1,1,49,209,45,1,,,,,,,,
,,,,,,,,,,,,,FF,,,,,,,,1.93314,,,,,,,,,,,,,,,,,,,,,,6100ac178a474bfcc555379b,61036798113185a62b47c86b,2021-07-29_21h48.14.341,Simcolourproject_2stim_asymm_v5,2020.2.10,Linux x86_64,60,61025ae37ef11b136ea224fe,,,,,,,,,3789,54.75091553,-31.04360962,1,0,1,response3disk,,5,14.10205078,-13.54852295,1,0,1,rectangle,14.10205078,-13.54852295,1,0,1,14.10205078,-13.54852295,1,0,1,1,50,210,132,1,,,,,,,,
,,,,,,,,,,,,,FF,,,,,,,,0.83359,,,,,,,,,,,,,,,,,,,,,,6100ac178a474bfcc555379b,61036798113185a62b47c86b,2021-07-29_21h48.14.341,Simcolourproject_2stim_asymm_v5,2020.2.10,Linux x86_64,60,61025ae37ef11b136ea224fe,,,,,,,,,2408,52.42175293,38.00643921,1,0,1,response1disk,,6,12.19342041,4.919586182,1,0,1,rectangle,12.19342041,4.919586182,1,0,1,12.19342041,4.919586182,1,0,1,1,51,211,56,1,,,,,,,,
,,,,,,,,,,,,,FF,,,,,,,,0.93214,,,,,,,,,,,,,,,,,,,,,,6100ac178a474bfcc555379b,61036798113185a62b47c86b,2021-07-29_21h48.14.341,Simcolourproject_2stim_asymm_v5,2020.2.10,Linux x86_64,60,61025ae37ef11b136ea224fe,,,,,,,,,3121,43.39099121,23.23062134,1,0,1,response1disk,,6,8.707458496,-4.757263184,1,0,1,rectangle,8.707458496,-4.757263184,1,0,1,8.707458496,-4.757263184,1,0,1,1,52,212,137,1,,,,,,,,
,,,,,,,,,,,,,FF,,,,,,,,0.835815,,,,,,,,,,,,,,,,,,,,,,6100ac178a474bfcc555379b,61036798113185a62b47c86b,2021-07-29_21h48.14.341,Simcolourproject_2stim_asymm_v5,2020.2.10,Linux x86_64,60,61025ae37ef11b136ea224fe,,,,,,,,,3033,36.35516357,66.03738403,1,0,1,response1disk,,7,4.855102539,-7.136932373,1,0,1,rectangle,4.855102539,-7.136932373,1,0,1,4.855102539,-7.136932373,1,0,1,1,53,213,31,1,,,,,,,,
,,,,,,,,,,,,,FF,,,,,,,,1.73398,,,,,,,,,,,,,,,,,,,,,,6100ac178a474bfcc555379b,61036798113185a62b47c86b,2021-07-29_21h48.14.341,Simcolourproject_2stim_asymm_v5,2020.2.10,Linux x86_64,60,61025ae37ef11b136ea224fe,,,,,,,,,3600,30.02844238,-54.66311646,1,0,1,response3disk,,4,-11.25982666,3.296783447,1,0,1,rectangle,-11.25982666,3.296783447,1,0,1,-11.25982666,3.296783447,1,0,1,1,54,214,0,1,,,,,,,,
,,,,,,,,,,,,,FF,,,,,,,,1.883655,,,,,,,,,,,,,,,,,,,,,,6100ac178a474bfcc555379b,61036798113185a62b47c86b,2021-07-29_21h48.14.341,Simcolourproject_2stim_asymm_v5,2020.2.10,Linux x86_64,60,61025ae37ef11b136ea224fe,,,,,,,,,4145,-53.29180908,37.13885498,1,0,1,response7disk,,1,2.674194336,3.230255127,1,0,1,rectangle,2.674194336,3.230255127,1,0,1,2.674194336,3.230255127,1,0,1,1,55,215,114,1,,,,,,,,
,,,,,,,,,,,,,FF,,,,,,,,1.08332,,,,,,,,,,,,,,,,,,,,,,6100ac178a474bfcc555379b,61036798113185a62b47c86b,2021-07-29_21h48.14.341,Simcolourproject_2stim_asymm_v5,2020.2.10,Linux x86_64,60,61025ae37ef11b136ea224fe,,,,,,,,,1089,39.7199707,-29.03277588,1,0,1,response3disk,,5,12.81439209,3.87020874,1,0,1,rectangle,-60.52062988,30.55856323,1,0,1,0.876403809,-0.745483398,1,0,1,1,56,216,157,1,,response7disk_3,TRUE,1,1,"[49,172,0,179,236,182,217,0,121,252,257,133,301,87,280,173,91,183,109,90]",2.332715,rectangle
,,,,,,,,,,,,,FF,,,,,,,,1.300495,,,,,,,,,,,,,,,,,,,,,,6100ac178a474bfcc555379b,61036798113185a62b47c86b,2021-07-29_21h48.14.341,Simcolourproject_2stim_asymm_v5,2020.2.10,Linux x86_64,60,61025ae37ef11b136ea224fe,,,,,,,,,4244,48.24780273,-32.30163574,1,0,1,response3disk,,5,15.50543213,-3.388793945,1,0,1,rectangle,15.50543213,-3.388793945,1,0,1,15.50543213,-3.388793945,1,0,1,1,57,217,21,1,,,,,,,,
,,,,,,,,,,,,,FF,,,,,,,,1.113775,,,,,,,,,,,,,,,,,,,,,,6100ac178a474bfcc555379b,61036798113185a62b47c86b,2021-07-29_21h48.14.341,Simcolourproject_2stim_asymm_v5,2020.2.10,Linux x86_64,60,61025ae37ef11b136ea224fe,,,,,,,,,215,57.38964844,33.32836914,1,0,1,response1disk,,6,11.43066406,-2.553863525,1,0,1,rectangle,11.43066406,-2.553863525,1,0,1,11.43066406,-2.553863525,1,0,1,1,58,218,97,1,,,,,,,,
,,,,,,,,,,,,,FF,,,,,,,,1.049295,,,,,,,,,,,,,,,,,,,,,,6100ac178a474bfcc555379b,61036798113185a62b47c86b,2021-07-29_21h48.14.341,Simcolourproject_2stim_asymm_v5,2020.2.10,Linux x86_64,60,61025ae37ef11b136ea224fe,,,,,,,,,3888,43.16833496,34.6194458,1,0,1,response1disk,,6,20.88500977,8.921234131,1,0,1,rectangle,20.88500977,8.921234131,1,0,1,20.88500977,8.921234131,1,0,1,1,59,219,148,1,,,,,,,,
,,,,,,,,,,,,,FF,,,,,,,,0.950445,,,,,,,,,,,,,,,,,,,,,,6100ac178a474bfcc555379b,61036798113185a62b47c86b,2021-07-29_21h48.14.341,Simcolourproject_2stim_asymm_v5,2020.2.10,Linux x86_64,60,61025ae37ef11b136ea224fe,,,,,,,,,2356,-84.4899292,-29.45022583,1,0,1,response5disk,,2,-16.4979248,-4.595855713,1,0,1,rectangle,-16.4979248,-4.595855713,1,0,1,-16.4979248,-4.595855713,1,0,1,1,60,220,22,1,,,,,,,,
,,,,,,,,,,,,,FF,,,,,,,,1.00125,,,,,,,,,,,,,,,,,,,,,,6100ac178a474bfcc555379b,61036798113185a62b47c86b,2021-07-29_21h48.14.341,Simcolourproject_2stim_asymm_v5,2020.2.10,Linux x86_64,60,61025ae37ef11b136ea224fe,,,,,,,,,232,94.85229492,-39.12686157,1,0,1,response3disk,,5,29.35961914,-5.058319092,1,0,1,rectangle,29.35961914,-5.058319092,1,0,1,29.35961914,-5.058319092,1,0,1,1,61,221,90,1,,,,,,,,
,,,,,,,,,,,,,FF,,,,,,,,2.24956,,,,,,,,,,,,,,,,,,,,,,6100ac178a474bfcc555379b,61036798113185a62b47c86b,2021-07-29_21h48.14.341,Simcolourproject_2stim_asymm_v5,2020.2.10,Linux x86_64,60,61025ae37ef11b136ea224fe,,,,,,,,,87,27.39160156,42.00946045,1,0,1,response1disk,,7,-7.260742188,8.889556885,1,0,1,rectangle,-7.260742188,8.889556885,1,0,1,-7.260742188,8.889556885,1,0,1,1,62,222,37,1,,,,,,,,
,,,,,,,,,,,,,FF,,,,,,,,1.433285,,,,,,,,,,,,,,,,,,,,,,6100ac178a474bfcc555379b,61036798113185a62b47c86b,2021-07-29_21h48.14.341,Simcolourproject_2stim_asymm_v5,2020.2.10,Linux x86_64,60,61025ae37ef11b136ea224fe,,,,,,,,,4352,-36.85913086,-55.08502197,1,0,1,response5disk,,3,1.849487305,-1.554290771,1,0,1,rectangle,1.849487305,-1.554290771,1,0,1,1.849487305,-1.554290771,1,0,1,1,63,223,87,1,,,,,,,,
,,,,,,,,,,,,,FF,,,,,,,,2.600655,,,,,,,,,,,,,,,,,,,,,,6100ac178a474bfcc555379b,61036798113185a62b47c86b,2021-07-29_21h48.14.341,Simcolourproject_2stim_asymm_v5,2020.2.10,Linux x86_64,60,61025ae37ef11b136ea224fe,,,,,,,,,4159,27.20727539,-55.32168579,1,0,1,response3disk,,4,10.70135498,-7.670928955,1,0,1,rectangle,10.70135498,-7.670928955,1,0,1,10.70135498,-7.670928955,1,0,1,1,64,224,152,1,,,,,,,,
,,,,,,,,,,,,,FF,,,,,,,,1.794125,,,,,,,,,,,,,,,,,,,,,,6100ac178a474bfcc555379b,61036798113185a62b47c86b,2021-07-29_21h48.14.341,Simcolourproject_2stim_asymm_v5,2020.2.10,Linux x86_64,60,61025ae37ef11b136ea224fe,,,,,,,,,3723,29.20526123,44.04495239,1,0,1,response1disk,,7,3.236022949,3.455841064,1,0,1,rectangle,3.236022949,3.455841064,1,0,1,3.236022949,3.455841064,1,0,1,1,65,225,107,1,,,,,,,,
,,,,,,,,,,,,,FF,,,,,,,,1.999935,,,,,,,,,,,,,,,,,,,,,,6100ac178a474bfcc555379b,61036798113185a62b47c86b,2021-07-29_21h48.14.341,Simcolourproject_2stim_asymm_v5,2020.2.10,Linux x86_64,60,61025ae37ef11b136ea224fe,,,,,,,,,3473,-78.5737915,-32.6421814,1,0,1,response5disk,,2,-23.49584961,-3.200561523,1,0,1,rectangle,-23.49584961,-3.200561523,1,0,1,-23.49584961,-3.200561523,1,0,1,1,66,226,141,1,,,,,,,,
,,,,,,,,,,,,,FF,,,,,,,,3.51645,,,,,,,,,,,,,,,,,,,,,,6100ac178a474bfcc555379b,61036798113185a62b47c86b,2021-07-29_21h48.14.341,Simcolourproject_2stim_asymm_v5,2020.2.10,Linux x86_64,60,61025ae37ef11b136ea224fe,,,,,,,,,225,62.49462891,-28.2902832,1,0,1,response3disk,,5,3.114440918,6.407318115,1,0,1,rectangle,3.114440918,6.407318115,1,0,1,3.114440918,6.407318115,1,0,1,1,67,227,135,1,,,,,,,,
,,,,,,,,,,,,,FF,,,,,,,,1.01677,,,,,,,,,,,,,,,,,,,,,,6100ac178a474bfcc555379b,61036798113185a62b47c86b,2021-07-29_21h48.14.341,Simcolourproject_2stim_asymm_v5,2020.2.10,Linux x86_64,60,61025ae37ef11b136ea224fe,,,,,,,,,283,46.80303955,33.73681641,1,0,1,response1disk,,6,-0.570922852,-7.60369873,1,0,1,rectangle,-0.570922852,-7.60369873,1,0,1,-0.570922852,-7.60369873,1,0,1,1,68,228,150,1,,,,,,,,
,,,,,,,,,,,,,FF,,,,,,,,1.24992,,,,,,,,,,,,,,,,,,,,,,6100ac178a474bfcc555379b,61036798113185a62b47c86b,2021-07-29_21h48.14.341,Simcolourproject_2stim_asymm_v5,2020.2.10,Linux x86_64,60,61025ae37ef11b136ea224fe,,,,,,,,,3991,48.52581787,31.17248535,1,0,1,response1disk,,6,11.18017578,-2.817626953,1,0,1,rectangle,11.18017578,-2.817626953,1,0,1,11.18017578,-2.817626953,1,0,1,1,69,229,42,1,,,,,,,,
,,,,,,,,,,,,,FF,,,,,,,,1.30001,,,,,,,,,,,,,,,,,,,,,,6100ac178a474bfcc555379b,61036798113185a62b47c86b,2021-07-29_21h48.14.341,Simcolourproject_2stim_asymm_v5,2020.2.10,Linux x86_64,60,61025ae37ef11b136ea224fe,,,,,,,,,3456,63.28173828,28.08273315,1,0,1,response1disk,,6,7.359375,-12.47567749,1,0,1,rectangle,7.359375,-12.47567749,1,0,1,7.359375,-12.47567749,1,0,1,1,70,230,106,1,,,,,,,,
,,,,,,,,,,,,,FF,,,,,,,,1.067325,,,,,,,,,,,,,,,,,,,,,,6100ac178a474bfcc555379b,61036798113185a62b47c86b,2021-07-29_21h48.14.341,Simcolourproject_2stim_asymm_v5,2020.2.10,Linux x86_64,60,61025ae37ef11b136ea224fe,,,,,,,,,4045,26.2911377,35.13867188,1,0,1,response1disk,,7,6.510803223,7.809326172,1,0,1,rectangle,6.510803223,7.809326172,1,0,1,6.510803223,7.809326172,1,0,1,1,71,231,126,1,,,,,,,,
,,,,,,,,,,,,,FF,,,,,,,,1.233105,,,,,,,,,,,,,,,,,,,,,,6100ac178a474bfcc555379b,61036798113185a62b47c86b,2021-07-29_21h48.14.341,Simcolourproject_2stim_asymm_v5,2020.2.10,Linux x86_64,60,61025ae37ef11b136ea224fe,,,,,,,,,465,41.27978516,31.85641479,1,0,1,response1disk,,6,8.90423584,3.769897461,1,0,1,rectangle,8.90423584,3.769897461,1,0,1,8.90423584,3.769897461,1,0,1,1,72,232,70,1,,,,,,,,
,,,,,,,,,,,,,FF,,,,,,,,1.30029,,,,,,,,,,,,,,,,,,,,,,6100ac178a474bfcc555379b,61036798113185a62b47c86b,2021-07-29_21h48.14.341,Simcolourproject_2stim_asymm_v5,2020.2.10,Linux x86_64,60,61025ae37ef11b136ea224fe,,,,,,,,,3927,35.41351318,56.92779541,1,0,1,response1disk,,7,9.183837891,5.543518066,1,0,1,rectangle,9.183837891,5.543518066,1,0,1,9.183837891,5.543518066,1,0,1,1,73,233,48,1,,,,,,,,
,,,,,,,,,,,,,FF,,,,,,,,2.450575,,,,,,,,,,,,,,,,,,,,,,6100ac178a474bfcc555379b,61036798113185a62b47c86b,2021-07-29_21h48.14.341,Simcolourproject_2stim_asymm_v5,2020.2.10,Linux x86_64,60,61025ae37ef11b136ea224fe,,,,,,,,,2884,90.625,46.0776062,1,0,1,response1disk,,6,8.404846191,3.446685791,1,0,1,rectangle,8.404846191,3.446685791,1,0,1,8.404846191,3.446685791,1,0,1,1,74,234,147,1,,,,,,,,
,,,,,,,,,,,,,FF,,,,,,,,1.05004,,,,,,,,,,,,,,,,,,,,,,6100ac178a474bfcc555379b,61036798113185a62b47c86b,2021-07-29_21h48.14.341,Simcolourproject_2stim_asymm_v5,2020.2.10,Linux x86_64,60,61025ae37ef11b136ea224fe,,,,,,,,,3136,39.23181152,30.69302368,1,0,1,response1disk,,6,6.54901123,3.464996338,1,0,1,rectangle,44.2230835,-81.10083008,1,0,1,13.98162842,2.65612793,1,0,1,1,75,235,75,1,,response3disk_3,TRUE,4,4,"[49,172,0,179,236,182,217,0,121,252,257,133,301,87,280,173,91,183,109,90]",2.133635,rectangle
,,,,,,,,,,,,,FF,,,,,,,,1.183325,,,,,,,,,,,,,,,,,,,,,,6100ac178a474bfcc555379b,61036798113185a62b47c86b,2021-07-29_21h48.14.341,Simcolourproject_2stim_asymm_v5,2020.2.10,Linux x86_64,60,61025ae37ef11b136ea224fe,,,,,,,,,1911,59.45239258,23.85403442,1,0,1,response1disk,,6,19.71307373,6.10824585,1,0,1,rectangle,19.71307373,6.10824585,1,0,1,19.71307373,6.10824585,1,0,1,1,76,236,100,1,,,,,,,,
,,,,,,,,,,,,,FF,,,,,,,,0.75012,,,,,,,,,,,,,,,,,,,,,,6100ac178a474bfcc555379b,61036798113185a62b47c86b,2021-07-29_21h48.14.341,Simcolourproject_2stim_asymm_v5,2020.2.10,Linux x86_64,60,61025ae37ef11b136ea224fe,,,,,,,,,2929,36.47589111,23.84915161,1,0,1,response1disk,,6,15.30316162,3.968688965,1,0,1,rectangle,15.30316162,3.968688965,1,0,1,15.30316162,3.968688965,1,0,1,1,77,237,41,1,,,,,,,,
