key_resp.keys,key_resp.rt,key_resp_14.keys,key_resp_14.rt,key_resp_15.keys,key_resp_15.rt,key_resp_17.keys,key_resp_17.rt,key_resp_9.keys,key_resp_9.rt,key_resp_10.keys,key_resp_10.rt,practice_comparison,Ecc,mouse_5.x,mouse_5.y,mouse_5.leftButton,mouse_5.midButton,mouse_5.rightButton,mouse_5.clicked_name,pracsimilarity,response_time,mouse_10.x,mouse_10.y,mouse_10.leftButton,mouse_10.midButton,mouse_10.rightButton,mouse_10.clicked_name,mouse_7.x,mouse_7.y,mouse_7.leftButton,mouse_7.midButton,mouse_7.rightButton,mouse_6.x,mouse_6.y,mouse_6.leftButton,mouse_6.midButton,mouse_6.rightButton,duringprac.thisRepN,duringprac.thisTrialN,duringprac.thisN,duringprac.thisIndex,duringprac.ran,participant,session,date,expName,psychopyVersion,OS,frameRate,study_id,mouse_7.clicked_name,catchpracsimilarity,catch_response_time,catchnumberprac,catchtrialorderprac,mouse_6.clicked_name,key_resp_22.keys,key_resp_22.rt,realcomparison,mouse.x,mouse.y,mouse.leftButton,mouse.midButton,mouse.rightButton,mouse.clicked_name,Colour2,similarity,mouse_2.x,mouse_2.y,mouse_2.leftButton,mouse_2.midButton,mouse_2.rightButton,mouse_2.clicked_name,mouse_3.x,mouse_3.y,mouse_3.leftButton,mouse_3.midButton,mouse_3.rightButton,mouse_11.x,mouse_11.y,mouse_11.leftButton,mouse_11.midButton,mouse_11.rightButton,trials_2.thisRepN,trials_2.thisTrialN,trials_2.thisN,trials_2.thisIndex,trials_2.ran,Colour1,mouse_3.clicked_name,catchornah,catchsimilarity,catchnumber,catchtrialorder,catchRT,mouse_11.clicked_name
space,1.2352,space,19.1099,space,90.9856,space,8.3974,space,5.1716,space,9.4575,2,PF,101.8668823,29.56213379,1,0,0,response1disk_5,6,17.3051,8.626647949,-2.650604248,1,0,0,rectangle_8,8.626647949,-2.650604248,1,0,0,8.626647949,-2.650604248,1,0,0,0,0,0,2,1,6100aef9d0f776c296aa08b5,61036f673946c5585509af31,2021-07-29_22h19.00.632,Simcolourproject_2stim_asymm_v5,2020.2.10,MacIntel,60,61025ae37ef11b136ea224fe,,,,,,,,,,,,,,,,,,,,,,,,,,,,,,,,,,,,,,,,,,,,,,
,,,,,,,,,,,,153,PF,62.73199463,-37.21075439,1,0,0,response3disk_5,5,13.385,6.22845459,-5.647979736,1,0,0,rectangle_8,-91.55273438,-39.04156494,1,0,0,5.670288086,5.72088623,1,0,0,0,1,1,1,1,6100aef9d0f776c296aa08b5,61036f673946c5585509af31,2021-07-29_22h19.00.632,Simcolourproject_2stim_asymm_v5,2020.2.10,MacIntel,60,61025ae37ef11b136ea224fe,response5disk_7,2,6.0847,2,"[2,5]",rectangle_4,,,,,,,,,,,,,,,,,,,,,,,,,,,,,,,,,,,,,,,,
,,,,,,,,,,,,42,PF,96.64849854,42.01580811,1,0,0,response1disk_5,6,13.8161,-4.694580078,5.640441895,1,0,0,rectangle_8,-4.694580078,5.640441895,1,0,0,-4.694580078,5.640441895,1,0,0,0,2,2,6,1,6100aef9d0f776c296aa08b5,61036f673946c5585509af31,2021-07-29_22h19.00.632,Simcolourproject_2stim_asymm_v5,2020.2.10,MacIntel,60,61025ae37ef11b136ea224fe,,,,,,,,,,,,,,,,,,,,,,,,,,,,,,,,,,,,,,,,,,,,,,
,,,,,,,,,,,,145,PF,-69.52581787,-73.78814697,1,0,0,response5disk_5,3,3.8506,-7.463134766,-5.147735596,1,0,0,rectangle_8,-7.463134766,-5.147735596,1,0,0,-7.463134766,-5.147735596,1,0,0,0,3,3,4,1,6100aef9d0f776c296aa08b5,61036f673946c5585509af31,2021-07-29_22h19.00.632,Simcolourproject_2stim_asymm_v5,2020.2.10,MacIntel,60,61025ae37ef11b136ea224fe,,,,,,,,,,,,,,,,,,,,,,,,,,,,,,,,,,,,,,,,,,,,,,
,,,,,,,,,,,,35,FF,35.60632324,-49.66098022,1,0,0,response3disk_5,4,3.7161,-4.055847168,-5.140625,1,0,0,rectangle_8,-96.93804932,38.09719849,1,0,0,-17.87103271,6.278320313,1,0,0,0,4,4,3,1,6100aef9d0f776c296aa08b5,61036f673946c5585509af31,2021-07-29_22h19.00.632,Simcolourproject_2stim_asymm_v5,2020.2.10,MacIntel,60,61025ae37ef11b136ea224fe,response7disk_7,1,3.3669,2,"[2,5]",rectangle_4,,,,,,,,,,,,,,,,,,,,,,,,,,,,,,,,,,,,,,,,
,,,,,,,,,,,,99,FF,34.57751465,87.77041626,1,0,0,response1disk_5,7,3.183,-8.991516113,-5.213012695,1,0,0,rectangle_8,-8.991516113,-5.213012695,1,0,0,-8.991516113,-5.213012695,1,0,0,0,5,5,5,1,6100aef9d0f776c296aa08b5,61036f673946c5585509af31,2021-07-29_22h19.00.632,Simcolourproject_2stim_asymm_v5,2020.2.10,MacIntel,60,61025ae37ef11b136ea224fe,,,,,,,,,,,,,,,,,,,,,,,,,,,,,,,,,,,,,,,,,,,,,,
,,,,,,,,,,,,160,FF,-86.80566406,-41.14059448,1,0,0,response5disk_5,2,1.7497,-5.242858887,1.700073242,1,0,0,rectangle_8,-5.242858887,1.700073242,1,0,0,-5.242858887,1.700073242,1,0,0,0,6,6,0,1,6100aef9d0f776c296aa08b5,61036f673946c5585509af31,2021-07-29_22h19.00.632,Simcolourproject_2stim_asymm_v5,2020.2.10,MacIntel,60,61025ae37ef11b136ea224fe,,,,,,,,,,,,,,,,,,,,,,,,,,,,,,,,,,,,,,,,,,,,,,
,,,,,,,,,,,,,FF,,,,,,,,3.3175,,,,,,,,,,,,,,,,,,,,,,6100aef9d0f776c296aa08b5,61036f673946c5585509af31,2021-07-29_22h19.00.632,Simcolourproject_2stim_asymm_v5,2020.2.10,MacIntel,60,61025ae37ef11b136ea224fe,,,,,,,space,5.91,1466,-91.58984375,-54.19100952,1,0,0,response5disk,,2,-6.034301758,3.765838623,1,0,0,rectangle,-6.034301758,3.765838623,1,0,0,-6.034301758,3.765838623,1,0,0,0,0,0,49,1,,,,,,,,
,,,,,,,,,,,,,FF,,,,,,,,0.9987,,,,,,,,,,,,,,,,,,,,,,6100aef9d0f776c296aa08b5,61036f673946c5585509af31,2021-07-29_22h19.00.632,Simcolourproject_2stim_asymm_v5,2020.2.10,MacIntel,60,61025ae37ef11b136ea224fe,,,,,,,,,3669,-94.07904053,47.88925171,1,0,0,response7disk,,1,-10.73840332,5.904876709,1,0,0,rectangle,-10.73840332,5.904876709,1,0,0,-10.73840332,5.904876709,1,0,0,0,1,1,30,1,,,,,,,,
,,,,,,,,,,,,,FF,,,,,,,,4.1332,,,,,,,,,,,,,,,,,,,,,,6100aef9d0f776c296aa08b5,61036f673946c5585509af31,2021-07-29_22h19.00.632,Simcolourproject_2stim_asymm_v5,2020.2.10,MacIntel,60,61025ae37ef11b136ea224fe,,,,,,,,,999,36.29797363,-79.28204346,1,0,0,response3disk,,4,-1.016113281,-5.060455322,1,0,0,rectangle,-1.016113281,-5.060455322,1,0,0,-1.016113281,-5.060455322,1,0,0,0,2,2,70,1,,,,,,,,
,,,,,,,,,,,,,FF,,,,,,,,3.1183,,,,,,,,,,,,,,,,,,,,,,6100aef9d0f776c296aa08b5,61036f673946c5585509af31,2021-07-29_22h19.00.632,Simcolourproject_2stim_asymm_v5,2020.2.10,MacIntel,60,61025ae37ef11b136ea224fe,,,,,,,,,4164,-61.0201416,-89.64105225,1,0,0,response5disk,,3,13.74578857,-2.468200684,1,0,0,rectangle,13.74578857,-2.468200684,1,0,0,13.74578857,-2.468200684,1,0,0,0,3,3,13,1,,,,,,,,
,,,,,,,,,,,,,FF,,,,,,,,7.8841,,,,,,,,,,,,,,,,,,,,,,6100aef9d0f776c296aa08b5,61036f673946c5585509af31,2021-07-29_22h19.00.632,Simcolourproject_2stim_asymm_v5,2020.2.10,MacIntel,60,61025ae37ef11b136ea224fe,,,,,,,,,4051,-38.39141846,-98.77441406,1,0,0,response5disk,,3,3.861816406,4.524261475,1,0,0,rectangle,3.861816406,4.524261475,1,0,0,3.861816406,4.524261475,1,0,0,0,4,4,65,1,,,,,,,,
,,,,,,,,,,,,,FF,,,,,,,,2.9496,,,,,,,,,,,,,,,,,,,,,,6100aef9d0f776c296aa08b5,61036f673946c5585509af31,2021-07-29_22h19.00.632,Simcolourproject_2stim_asymm_v5,2020.2.10,MacIntel,60,61025ae37ef11b136ea224fe,,,,,,,,,3608,83.72888184,-42.0184021,1,0,0,response3disk,,5,-3.870483398,0.997497559,1,0,0,rectangle,-3.870483398,0.997497559,1,0,0,-3.870483398,0.997497559,1,0,0,0,5,5,3,1,,,,,,,,
,,,,,,,,,,,,,FF,,,,,,,,4.4162,,,,,,,,,,,,,,,,,,,,,,6100aef9d0f776c296aa08b5,61036f673946c5585509af31,2021-07-29_22h19.00.632,Simcolourproject_2stim_asymm_v5,2020.2.10,MacIntel,60,61025ae37ef11b136ea224fe,,,,,,,,,400,61.96246338,-85.59613037,1,0,0,response3disk,,4,-1.186157227,-2.093048096,1,0,0,rectangle,-60.61602783,28.59951782,1,0,0,9.178283691,-0.027984619,1,0,0,0,6,6,0,1,,response7disk_3,TRUE,1,6,"[8,307,75,7,62,46,108,149,67,110,133,186,64,165,296,86,95,42,20,207]",4.2841,rectangle
,,,,,,,,,,,,,FF,,,,,,,,6.7671,,,,,,,,,,,,,,,,,,,,,,6100aef9d0f776c296aa08b5,61036f673946c5585509af31,2021-07-29_22h19.00.632,Simcolourproject_2stim_asymm_v5,2020.2.10,MacIntel,60,61025ae37ef11b136ea224fe,,,,,,,,,2809,100.2745972,21.64300537,1,0,0,response1disk,,6,-4.221984863,-13.32006836,1,0,0,rectangle,20.00054932,90.22955322,1,0,0,-21.05743408,-1.246765137,1,0,0,0,7,7,84,1,,response1disk_3,TRUE,7,6,"[8,307,75,7,62,46,108,149,67,110,133,186,64,165,296,86,95,42,20,207]",2.6324,rectangle
,,,,,,,,,,,,,FF,,,,,,,,6.283,,,,,,,,,,,,,,,,,,,,,,6100aef9d0f776c296aa08b5,61036f673946c5585509af31,2021-07-29_22h19.00.632,Simcolourproject_2stim_asymm_v5,2020.2.10,MacIntel,60,61025ae37ef11b136ea224fe,,,,,,,,,2115,96.67694092,-36.090271,1,0,0,response3disk,,5,15.05847168,-5.97769165,1,0,0,rectangle,15.05847168,-5.97769165,1,0,0,15.05847168,-5.97769165,1,0,0,0,8,8,44,1,,,,,,,,
,,,,,,,,,,,,,FF,,,,,,,,9.7653,,,,,,,,,,,,,,,,,,,,,,6100aef9d0f776c296aa08b5,61036f673946c5585509af31,2021-07-29_22h19.00.632,Simcolourproject_2stim_asymm_v5,2020.2.10,MacIntel,60,61025ae37ef11b136ea224fe,,,,,,,,,3131,52.74353027,-25.73205566,1,0,0,response3disk,,5,3.367736816,-4.854217529,1,0,0,rectangle,3.367736816,-4.854217529,1,0,0,3.367736816,-4.854217529,1,0,0,0,9,9,155,1,,,,,,,,
,,,,,,,,,,,,,FF,,,,,,,,1.4842,,,,,,,,,,,,,,,,,,,,,,6100aef9d0f776c296aa08b5,61036f673946c5585509af31,2021-07-29_22h19.00.632,Simcolourproject_2stim_asymm_v5,2020.2.10,MacIntel,60,61025ae37ef11b136ea224fe,,,,,,,,,2761,59.69995117,-108.401062,1,0,0,response3disk,,4,-2.446166992,-15.54598999,1,0,0,rectangle,-2.446166992,-15.54598999,1,0,0,-2.446166992,-15.54598999,1,0,0,0,10,10,61,1,,,,,,,,
,,,,,,,,,,,,,FF,,,,,,,,2.1503,,,,,,,,,,,,,,,,,,,,,,6100aef9d0f776c296aa08b5,61036f673946c5585509af31,2021-07-29_22h19.00.632,Simcolourproject_2stim_asymm_v5,2020.2.10,MacIntel,60,61025ae37ef11b136ea224fe,,,,,,,,,2625,34.02288818,69.46182251,1,0,0,response1disk,,7,9.308166504,8.221282959,1,0,0,rectangle,9.308166504,8.221282959,1,0,0,9.308166504,8.221282959,1,0,0,0,11,11,158,1,,,,,,,,
,,,,,,,,,,,,,FF,,,,,,,,1.1504,,,,,,,,,,,,,,,,,,,,,,6100aef9d0f776c296aa08b5,61036f673946c5585509af31,2021-07-29_22h19.00.632,Simcolourproject_2stim_asymm_v5,2020.2.10,MacIntel,60,61025ae37ef11b136ea224fe,,,,,,,,,2775,-40.96563721,65.7326355,1,0,0,response7disk,,0,0.195495605,-2.297515869,1,0,0,rectangle,0.195495605,-2.297515869,1,0,0,0.195495605,-2.297515869,1,0,0,0,12,12,143,1,,,,,,,,
,,,,,,,,,,,,,FF,,,,,,,,2.5672,,,,,,,,,,,,,,,,,,,,,,6100aef9d0f776c296aa08b5,61036f673946c5585509af31,2021-07-29_22h19.00.632,Simcolourproject_2stim_asymm_v5,2020.2.10,MacIntel,60,61025ae37ef11b136ea224fe,,,,,,,,,3489,61.8069458,-108.1696167,1,0,0,response3disk,,4,-5.996765137,-5.661468506,1,0,0,rectangle,-5.996765137,-5.661468506,1,0,0,-5.996765137,-5.661468506,1,0,0,0,13,13,9,1,,,,,,,,
,,,,,,,,,,,,,FF,,,,,,,,2.616,,,,,,,,,,,,,,,,,,,,,,6100aef9d0f776c296aa08b5,61036f673946c5585509af31,2021-07-29_22h19.00.632,Simcolourproject_2stim_asymm_v5,2020.2.10,MacIntel,60,61025ae37ef11b136ea224fe,,,,,,,,,4154,76.55438232,45.18899536,1,0,0,response1disk,,6,8.257568359,-3.972503662,1,0,0,rectangle,8.257568359,-3.972503662,1,0,0,8.257568359,-3.972503662,1,0,0,0,14,14,1,1,,,,,,,,
,,,,,,,,,,,,,FF,,,,,,,,2.4826,,,,,,,,,,,,,,,,,,,,,,6100aef9d0f776c296aa08b5,61036f673946c5585509af31,2021-07-29_22h19.00.632,Simcolourproject_2stim_asymm_v5,2020.2.10,MacIntel,60,61025ae37ef11b136ea224fe,,,,,,,,,2081,45.63525391,66.13934326,1,0,0,response1disk,,7,-17.90960693,7.468139648,1,0,0,rectangle,-17.90960693,7.468139648,1,0,0,-17.90960693,7.468139648,1,0,0,0,15,15,82,1,,,,,,,,
,,,,,,,,,,,,,FF,,,,,,,,2.9511,,,,,,,,,,,,,,,,,,,,,,6100aef9d0f776c296aa08b5,61036f673946c5585509af31,2021-07-29_22h19.00.632,Simcolourproject_2stim_asymm_v5,2020.2.10,MacIntel,60,61025ae37ef11b136ea224fe,,,,,,,,,2015,28.11767578,67.78353882,1,0,0,response1disk,,7,-12.5213623,8.148162842,1,0,0,rectangle,-12.5213623,8.148162842,1,0,0,-12.5213623,8.148162842,1,0,0,0,16,16,86,1,,,,,,,,
,,,,,,,,,,,,,FF,,,,,,,,2.8004,,,,,,,,,,,,,,,,,,,,,,6100aef9d0f776c296aa08b5,61036f673946c5585509af31,2021-07-29_22h19.00.632,Simcolourproject_2stim_asymm_v5,2020.2.10,MacIntel,60,61025ae37ef11b136ea224fe,,,,,,,,,3264,47.91497803,-55.77182007,1,0,0,response3disk,,4,8.247375488,-7.619903564,1,0,0,rectangle,8.247375488,-7.619903564,1,0,0,8.247375488,-7.619903564,1,0,0,0,17,17,110,1,,,,,,,,
,,,,,,,,,,,,,FF,,,,,,,,2.4509,,,,,,,,,,,,,,,,,,,,,,6100aef9d0f776c296aa08b5,61036f673946c5585509af31,2021-07-29_22h19.00.632,Simcolourproject_2stim_asymm_v5,2020.2.10,MacIntel,60,61025ae37ef11b136ea224fe,,,,,,,,,3218,74.69665527,37.6524353,1,0,0,response1disk,,6,-4.860839844,0.227600098,1,0,0,rectangle,-4.860839844,0.227600098,1,0,0,-4.860839844,0.227600098,1,0,0,0,18,18,159,1,,,,,,,,
,,,,,,,,,,,,,FF,,,,,,,,9.9332,,,,,,,,,,,,,,,,,,,,,,6100aef9d0f776c296aa08b5,61036f673946c5585509af31,2021-07-29_22h19.00.632,Simcolourproject_2stim_asymm_v5,2020.2.10,MacIntel,60,61025ae37ef11b136ea224fe,,,,,,,,,582,99.04138184,36.34524536,1,0,0,response1disk,,6,-0.628479004,-2.840820313,1,0,0,rectangle,113.619751,-37.02374268,1,0,0,24.49475098,-7.621032715,1,0,0,0,19,19,32,1,,response3disk_3,TRUE,5,1,"[8,307,75,7,62,46,108,149,67,110,133,186,64,165,296,86,95,42,20,207]",2.2831,rectangle
,,,,,,,,,,,,,FF,,,,,,,,4.1168,,,,,,,,,,,,,,,,,,,,,,6100aef9d0f776c296aa08b5,61036f673946c5585509af31,2021-07-29_22h19.00.632,Simcolourproject_2stim_asymm_v5,2020.2.10,MacIntel,60,61025ae37ef11b136ea224fe,,,,,,,,,1425,35.24261475,-54.03469849,1,0,0,response3disk,,4,2.941162109,-9.579345703,1,0,0,rectangle,2.941162109,-9.579345703,1,0,0,2.941162109,-9.579345703,1,0,0,0,20,20,93,1,,,,,,,,
,,,,,,,,,,,,,FF,,,,,,,,2.8495,,,,,,,,,,,,,,,,,,,,,,6100aef9d0f776c296aa08b5,61036f673946c5585509af31,2021-07-29_22h19.00.632,Simcolourproject_2stim_asymm_v5,2020.2.10,MacIntel,60,61025ae37ef11b136ea224fe,,,,,,,,,4063,67.57830811,28.54104614,1,0,0,response1disk,,6,9.508422852,-1.909240723,1,0,0,rectangle,9.508422852,-1.909240723,1,0,0,9.508422852,-1.909240723,1,0,0,0,21,21,40,1,,,,,,,,
,,,,,,,,,,,,,FF,,,,,,,,3.3495,,,,,,,,,,,,,,,,,,,,,,6100aef9d0f776c296aa08b5,61036f673946c5585509af31,2021-07-29_22h19.00.632,Simcolourproject_2stim_asymm_v5,2020.2.10,MacIntel,60,61025ae37ef11b136ea224fe,,,,,,,,,2024,19.93731689,82.818573,1,0,0,response1disk,,7,-2.507324219,1.652954102,1,0,0,rectangle,-2.507324219,1.652954102,1,0,0,-2.507324219,1.652954102,1,0,0,0,22,22,28,1,,,,,,,,
,,,,,,,,,,,,,FF,,,,,,,,1.9494,,,,,,,,,,,,,,,,,,,,,,6100aef9d0f776c296aa08b5,61036f673946c5585509af31,2021-07-29_22h19.00.632,Simcolourproject_2stim_asymm_v5,2020.2.10,MacIntel,60,61025ae37ef11b136ea224fe,,,,,,,,,3686,29.00982666,-86.34112549,1,0,0,response3disk,,4,-5.454650879,4.316101074,1,0,0,rectangle,-5.454650879,4.316101074,1,0,0,-5.454650879,4.316101074,1,0,0,0,23,23,58,1,,,,,,,,
,,,,,,,,,,,,,FF,,,,,,,,1.7837,,,,,,,,,,,,,,,,,,,,,,6100aef9d0f776c296aa08b5,61036f673946c5585509af31,2021-07-29_22h19.00.632,Simcolourproject_2stim_asymm_v5,2020.2.10,MacIntel,60,61025ae37ef11b136ea224fe,,,,,,,,,3866,48.06719971,104.73172,1,0,0,response1disk,,7,24.61981201,2.075439453,1,0,0,rectangle,24.61981201,2.075439453,1,0,0,24.61981201,2.075439453,1,0,0,0,24,24,120,1,,,,,,,,
,,,,,,,,,,,,,FF,,,,,,,,1.4668,,,,,,,,,,,,,,,,,,,,,,6100aef9d0f776c296aa08b5,61036f673946c5585509af31,2021-07-29_22h19.00.632,Simcolourproject_2stim_asymm_v5,2020.2.10,MacIntel,60,61025ae37ef11b136ea224fe,,,,,,,,,74,34.75762939,-86.23681641,1,0,0,response3disk,,4,9.67175293,-0.680114746,1,0,0,rectangle,9.67175293,-0.680114746,1,0,0,9.67175293,-0.680114746,1,0,0,0,25,25,46,1,,,,,,,,
,,,,,,,,,,,,,FF,,,,,,,,2.8839,,,,,,,,,,,,,,,,,,,,,,6100aef9d0f776c296aa08b5,61036f673946c5585509af31,2021-07-29_22h19.00.632,Simcolourproject_2stim_asymm_v5,2020.2.10,MacIntel,60,61025ae37ef11b136ea224fe,,,,,,,,,1868,86.52484131,-25.55804443,1,0,0,response3disk,,5,20.83636475,-5.792541504,1,0,0,rectangle,20.83636475,-5.792541504,1,0,0,20.83636475,-5.792541504,1,0,0,0,26,26,144,1,,,,,,,,
,,,,,,,,,,,,,FF,,,,,,,,1.8502,,,,,,,,,,,,,,,,,,,,,,6100aef9d0f776c296aa08b5,61036f673946c5585509af31,2021-07-29_22h19.00.632,Simcolourproject_2stim_asymm_v5,2020.2.10,MacIntel,60,61025ae37ef11b136ea224fe,,,,,,,,,3164,-24.56591797,-110.4207764,1,0,0,response5disk,,3,-11.34454346,15.59829712,1,0,0,rectangle,-11.34454346,15.59829712,1,0,0,-11.34454346,15.59829712,1,0,0,0,27,27,45,1,,,,,,,,
,,,,,,,,,,,,,FF,,,,,,,,3.5832,,,,,,,,,,,,,,,,,,,,,,6100aef9d0f776c296aa08b5,61036f673946c5585509af31,2021-07-29_22h19.00.632,Simcolourproject_2stim_asymm_v5,2020.2.10,MacIntel,60,61025ae37ef11b136ea224fe,,,,,,,,,4083,-32.20428467,-64.43676758,1,0,0,response5disk,,3,-9.81036377,17.80206299,1,0,0,rectangle,-9.81036377,17.80206299,1,0,0,-9.81036377,17.80206299,1,0,0,0,28,28,15,1,,,,,,,,
,,,,,,,,,,,,,FF,,,,,,,,3.0163,,,,,,,,,,,,,,,,,,,,,,6100aef9d0f776c296aa08b5,61036f673946c5585509af31,2021-07-29_22h19.00.632,Simcolourproject_2stim_asymm_v5,2020.2.10,MacIntel,60,61025ae37ef11b136ea224fe,,,,,,,,,477,61.09082031,-47.89102173,1,0,0,response3disk,,5,-10.12481689,11.28625488,1,0,0,rectangle,-10.12481689,11.28625488,1,0,0,-10.12481689,11.28625488,1,0,0,0,29,29,141,1,,,,,,,,
,,,,,,,,,,,,,FF,,,,,,,,1.3685,,,,,,,,,,,,,,,,,,,,,,6100aef9d0f776c296aa08b5,61036f673946c5585509af31,2021-07-29_22h19.00.632,Simcolourproject_2stim_asymm_v5,2020.2.10,MacIntel,60,61025ae37ef11b136ea224fe,,,,,,,,,4252,-89.42663574,-28.67694092,1,0,0,response5disk,,2,-21.7286377,9.684997559,1,0,0,rectangle,-21.7286377,9.684997559,1,0,0,-21.7286377,9.684997559,1,0,0,0,30,30,36,1,,,,,,,,
,,,,,,,,,,,,,FF,,,,,,,,1.2163,,,,,,,,,,,,,,,,,,,,,,6100aef9d0f776c296aa08b5,61036f673946c5585509af31,2021-07-29_22h19.00.632,Simcolourproject_2stim_asymm_v5,2020.2.10,MacIntel,60,61025ae37ef11b136ea224fe,,,,,,,,,2,-89.45703125,35.82235718,1,0,0,response7disk,,1,-18.55004883,11.73086548,1,0,0,rectangle,-18.55004883,11.73086548,1,0,0,-18.55004883,11.73086548,1,0,0,0,31,31,132,1,,,,,,,,
,,,,,,,,,,,,,FF,,,,,,,,1.3346,,,,,,,,,,,,,,,,,,,,,,6100aef9d0f776c296aa08b5,61036f673946c5585509af31,2021-07-29_22h19.00.632,Simcolourproject_2stim_asymm_v5,2020.2.10,MacIntel,60,61025ae37ef11b136ea224fe,,,,,,,,,2095,-48.11657715,-19.01083374,1,0,0,response5disk,,2,-14.10742188,5.135192871,1,0,0,rectangle,-14.10742188,5.135192871,1,0,0,-14.10742188,5.135192871,1,0,0,0,32,32,114,1,,,,,,,,
,,,,,,,,,,,,,FF,,,,,,,,1.5335,,,,,,,,,,,,,,,,,,,,,,6100aef9d0f776c296aa08b5,61036f673946c5585509af31,2021-07-29_22h19.00.632,Simcolourproject_2stim_asymm_v5,2020.2.10,MacIntel,60,61025ae37ef11b136ea224fe,,,,,,,,,949,31.62207031,-46.47262573,1,0,0,response3disk,,4,13.61877441,-17.09921265,1,0,0,rectangle,13.61877441,-17.09921265,1,0,0,13.61877441,-17.09921265,1,0,0,0,33,33,145,1,,,,,,,,
,,,,,,,,,,,,,FF,,,,,,,,1.3831,,,,,,,,,,,,,,,,,,,,,,6100aef9d0f776c296aa08b5,61036f673946c5585509af31,2021-07-29_22h19.00.632,Simcolourproject_2stim_asymm_v5,2020.2.10,MacIntel,60,61025ae37ef11b136ea224fe,,,,,,,,,2873,69.53314209,-29.50085449,1,0,0,response3disk,,5,-23.24163818,-6.246643066,1,0,0,rectangle,-23.24163818,-6.246643066,1,0,0,-23.24163818,-6.246643066,1,0,0,0,34,34,4,1,,,,,,,,
,,,,,,,,,,,,,FF,,,,,,,,1.1165,,,,,,,,,,,,,,,,,,,,,,6100aef9d0f776c296aa08b5,61036f673946c5585509af31,2021-07-29_22h19.00.632,Simcolourproject_2stim_asymm_v5,2020.2.10,MacIntel,60,61025ae37ef11b136ea224fe,,,,,,,,,25,73.87438965,47.18167114,1,0,0,response1disk,,6,28.39337158,17.02914429,1,0,0,rectangle,28.39337158,17.02914429,1,0,0,28.39337158,17.02914429,1,0,0,0,35,35,128,1,,,,,,,,
,,,,,,,,,,,,,FF,,,,,,,,1.6175,,,,,,,,,,,,,,,,,,,,,,6100aef9d0f776c296aa08b5,61036f673946c5585509af31,2021-07-29_22h19.00.632,Simcolourproject_2stim_asymm_v5,2020.2.10,MacIntel,60,61025ae37ef11b136ea224fe,,,,,,,,,1303,-76.55297852,-25.31091309,1,0,0,response5disk,,2,-0.540222168,13.38720703,1,0,0,rectangle,-0.540222168,13.38720703,1,0,0,-0.540222168,13.38720703,1,0,0,0,36,36,123,1,,,,,,,,
,,,,,,,,,,,,,FF,,,,,,,,1.5839,,,,,,,,,,,,,,,,,,,,,,6100aef9d0f776c296aa08b5,61036f673946c5585509af31,2021-07-29_22h19.00.632,Simcolourproject_2stim_asymm_v5,2020.2.10,MacIntel,60,61025ae37ef11b136ea224fe,,,,,,,,,4283,-24.36920166,-89.05450439,1,0,0,response5disk,,3,-17.94421387,2.746887207,1,0,0,rectangle,-17.94421387,2.746887207,1,0,0,-17.94421387,2.746887207,1,0,0,0,37,37,52,1,,,,,,,,
,,,,,,,,,,,,,FF,,,,,,,,1.6669,,,,,,,,,,,,,,,,,,,,,,6100aef9d0f776c296aa08b5,61036f673946c5585509af31,2021-07-29_22h19.00.632,Simcolourproject_2stim_asymm_v5,2020.2.10,MacIntel,60,61025ae37ef11b136ea224fe,,,,,,,,,128,65.06707764,-43.27963257,1,0,0,response3disk,,5,10.98730469,-8.442230225,1,0,0,rectangle,10.98730469,-8.442230225,1,0,0,10.98730469,-8.442230225,1,0,0,0,38,38,20,1,,,,,,,,
,,,,,,,,,,,,,FF,,,,,,,,3.4493,,,,,,,,,,,,,,,,,,,,,,6100aef9d0f776c296aa08b5,61036f673946c5585509af31,2021-07-29_22h19.00.632,Simcolourproject_2stim_asymm_v5,2020.2.10,MacIntel,60,61025ae37ef11b136ea224fe,,,,,,,,,1031,73.87780762,40.18869019,1,0,0,response1disk,,6,16.82952881,11.80603027,1,0,0,rectangle,16.82952881,11.80603027,1,0,0,16.82952881,11.80603027,1,0,0,0,39,39,107,1,,,,,,,,
,,,,,,,,,,,,,FF,,,,,,,,1.7346,,,,,,,,,,,,,,,,,,,,,,6100aef9d0f776c296aa08b5,61036f673946c5585509af31,2021-07-29_22h19.00.632,Simcolourproject_2stim_asymm_v5,2020.2.10,MacIntel,60,61025ae37ef11b136ea224fe,,,,,,,,,1353,78.34240723,-59.07406616,1,0,0,response3disk,,5,6.477905273,4.046569824,1,0,0,rectangle,6.477905273,4.046569824,1,0,0,6.477905273,4.046569824,1,0,0,0,40,40,2,1,,,,,,,,
,,,,,,,,,,,,,FF,,,,,,,,1.2166,,,,,,,,,,,,,,,,,,,,,,6100aef9d0f776c296aa08b5,61036f673946c5585509af31,2021-07-29_22h19.00.632,Simcolourproject_2stim_asymm_v5,2020.2.10,MacIntel,60,61025ae37ef11b136ea224fe,,,,,,,,,994,75.94854736,38.36853027,1,0,0,response1disk,,6,14.08538818,-7.799438477,1,0,0,rectangle,44.95111084,92.44998169,1,0,0,5.828491211,13.65707397,1,0,0,0,41,41,17,1,,response1disk_3,TRUE,7,6,"[8,307,75,7,62,46,108,149,67,110,133,186,64,165,296,86,95,42,20,207]",2.3334,rectangle
,,,,,,,,,,,,,FF,,,,,,,,4.0154,,,,,,,,,,,,,,,,,,,,,,6100aef9d0f776c296aa08b5,61036f673946c5585509af31,2021-07-29_22h19.00.632,Simcolourproject_2stim_asymm_v5,2020.2.10,MacIntel,60,61025ae37ef11b136ea224fe,,,,,,,,,3647,70.93890381,34.26940918,1,0,0,response1disk,,6,4.971862793,0.156463623,1,0,0,rectangle,4.971862793,0.156463623,1,0,0,4.971862793,0.156463623,1,0,0,0,42,42,25,1,,,,,,,,
,,,,,,,,,,,,,FF,,,,,,,,1.7666,,,,,,,,,,,,,,,,,,,,,,6100aef9d0f776c296aa08b5,61036f673946c5585509af31,2021-07-29_22h19.00.632,Simcolourproject_2stim_asymm_v5,2020.2.10,MacIntel,60,61025ae37ef11b136ea224fe,,,,,,,,,741,24.25842285,-92.30450439,1,0,0,response3disk,,4,3.538391113,-4.579284668,1,0,0,rectangle,3.538391113,-4.579284668,1,0,0,3.538391113,-4.579284668,1,0,0,0,43,43,56,1,,,,,,,,
,,,,,,,,,,,,,FF,,,,,,,,16.25,,,,,,,,,,,,,,,,,,,,,,6100aef9d0f776c296aa08b5,61036f673946c5585509af31,2021-07-29_22h19.00.632,Simcolourproject_2stim_asymm_v5,2020.2.10,MacIntel,60,61025ae37ef11b136ea224fe,,,,,,,,,4184,105.7858887,48.95959473,1,0,0,response1disk,,6,9.933105469,-2.113433838,1,0,0,rectangle,9.933105469,-2.113433838,1,0,0,9.933105469,-2.113433838,1,0,0,0,44,44,113,1,,,,,,,,
,,,,,,,,,,,,,FF,,,,,,,,3.0845,,,,,,,,,,,,,,,,,,,,,,6100aef9d0f776c296aa08b5,61036f673946c5585509af31,2021-07-29_22h19.00.632,Simcolourproject_2stim_asymm_v5,2020.2.10,MacIntel,60,61025ae37ef11b136ea224fe,,,,,,,,,4137,31.94189453,71.14660645,1,0,0,response1disk,,7,-6.360656738,0.724731445,1,0,0,rectangle,-93.03771973,-55.19042969,1,0,0,12.1315918,-10.39123535,1,0,0,0,45,45,66,1,,response5disk_3,TRUE,2,2,"[8,307,75,7,62,46,108,149,67,110,133,186,64,165,296,86,95,42,20,207]",1.7169,rectangle
,,,,,,,,,,,,,FF,,,,,,,,1.4993,,,,,,,,,,,,,,,,,,,,,,6100aef9d0f776c296aa08b5,61036f673946c5585509af31,2021-07-29_22h19.00.632,Simcolourproject_2stim_asymm_v5,2020.2.10,MacIntel,60,61025ae37ef11b136ea224fe,,,,,,,,,2888,-74.06719971,34.77362061,1,0,0,response7disk,,1,3.267333984,12.63925171,1,0,0,rectangle,3.267333984,12.63925171,1,0,0,3.267333984,12.63925171,1,0,0,0,46,46,54,1,,,,,,,,
,,,,,,,,,,,,,FF,,,,,,,,1.0325,,,,,,,,,,,,,,,,,,,,,,6100aef9d0f776c296aa08b5,61036f673946c5585509af31,2021-07-29_22h19.00.632,Simcolourproject_2stim_asymm_v5,2020.2.10,MacIntel,60,61025ae37ef11b136ea224fe,,,,,,,,,3767,27.58197021,87.61273193,1,0,0,response1disk,,7,2.987426758,1.885925293,1,0,0,rectangle,2.987426758,1.885925293,1,0,0,2.987426758,1.885925293,1,0,0,0,47,47,119,1,,,,,,,,
,,,,,,,,,,,,,FF,,,,,,,,2.6664,,,,,,,,,,,,,,,,,,,,,,6100aef9d0f776c296aa08b5,61036f673946c5585509af31,2021-07-29_22h19.00.632,Simcolourproject_2stim_asymm_v5,2020.2.10,MacIntel,60,61025ae37ef11b136ea224fe,,,,,,,,,3439,-66.99060059,-57.20852661,1,0,0,response5disk,,2,-7.101135254,4.97442627,1,0,0,rectangle,-7.101135254,4.97442627,1,0,0,-7.101135254,4.97442627,1,0,0,0,48,48,59,1,,,,,,,,
,,,,,,,,,,,,,FF,,,,,,,,0.8003,,,,,,,,,,,,,,,,,,,,,,6100aef9d0f776c296aa08b5,61036f673946c5585509af31,2021-07-29_22h19.00.632,Simcolourproject_2stim_asymm_v5,2020.2.10,MacIntel,60,61025ae37ef11b136ea224fe,,,,,,,,,1512,17.54180908,72.91589355,1,0,0,response1disk,,7,3.078125,1.520935059,1,0,0,rectangle,3.078125,1.520935059,1,0,0,3.078125,1.520935059,1,0,0,0,49,49,130,1,,,,,,,,
,,,,,,,,,,,,,FF,,,,,,,,1.2499,,,,,,,,,,,,,,,,,,,,,,6100aef9d0f776c296aa08b5,61036f673946c5585509af31,2021-07-29_22h19.00.632,Simcolourproject_2stim_asymm_v5,2020.2.10,MacIntel,60,61025ae37ef11b136ea224fe,,,,,,,,,2069,52.16583252,38.34619141,1,0,0,response1disk,,6,26.30358887,6.793243408,1,0,0,rectangle,26.30358887,6.793243408,1,0,0,26.30358887,6.793243408,1,0,0,0,50,50,72,1,,,,,,,,
,,,,,,,,,,,,,FF,,,,,,,,1.3999,,,,,,,,,,,,,,,,,,,,,,6100aef9d0f776c296aa08b5,61036f673946c5585509af31,2021-07-29_22h19.00.632,Simcolourproject_2stim_asymm_v5,2020.2.10,MacIntel,60,61025ae37ef11b136ea224fe,,,,,,,,,2924,63.4520874,34.27947998,1,0,0,response1disk,,6,17.94580078,9.197906494,1,0,0,rectangle,17.94580078,9.197906494,1,0,0,17.94580078,9.197906494,1,0,0,0,51,51,147,1,,,,,,,,
,,,,,,,,,,,,,FF,,,,,,,,3.6166,,,,,,,,,,,,,,,,,,,,,,6100aef9d0f776c296aa08b5,61036f673946c5585509af31,2021-07-29_22h19.00.632,Simcolourproject_2stim_asymm_v5,2020.2.10,MacIntel,60,61025ae37ef11b136ea224fe,,,,,,,,,2645,71.03601074,-41.15957642,1,0,0,response3disk,,5,-8.409240723,-9.655487061,1,0,0,rectangle,-8.409240723,-9.655487061,1,0,0,-8.409240723,-9.655487061,1,0,0,0,52,52,26,1,,,,,,,,
,,,,,,,,,,,,,FF,,,,,,,,1.8329,,,,,,,,,,,,,,,,,,,,,,6100aef9d0f776c296aa08b5,61036f673946c5585509af31,2021-07-29_22h19.00.632,Simcolourproject_2stim_asymm_v5,2020.2.10,MacIntel,60,61025ae37ef11b136ea224fe,,,,,,,,,1907,65.4967041,-53.04177856,1,0,0,response3disk,,5,3.19329834,-4.738800049,1,0,0,rectangle,3.19329834,-4.738800049,1,0,0,3.19329834,-4.738800049,1,0,0,0,53,53,129,1,,,,,,,,
,,,,,,,,,,,,,FF,,,,,,,,1.8993,,,,,,,,,,,,,,,,,,,,,,6100aef9d0f776c296aa08b5,61036f673946c5585509af31,2021-07-29_22h19.00.632,Simcolourproject_2stim_asymm_v5,2020.2.10,MacIntel,60,61025ae37ef11b136ea224fe,,,,,,,,,3593,-32.92199707,-103.3826294,1,0,0,response5disk,,3,-14.48956299,-4.263031006,1,0,0,rectangle,-14.48956299,-4.263031006,1,0,0,-14.48956299,-4.263031006,1,0,0,0,54,54,31,1,,,,,,,,
,,,,,,,,,,,,,FF,,,,,,,,1.1343,,,,,,,,,,,,,,,,,,,,,,6100aef9d0f776c296aa08b5,61036f673946c5585509af31,2021-07-29_22h19.00.632,Simcolourproject_2stim_asymm_v5,2020.2.10,MacIntel,60,61025ae37ef11b136ea224fe,,,,,,,,,2085,-38.77087402,-78.01617432,1,0,0,response5disk,,3,-15.70703125,2.217254639,1,0,0,rectangle,-15.70703125,2.217254639,1,0,0,-15.70703125,2.217254639,1,0,0,0,55,55,18,1,,,,,,,,
,,,,,,,,,,,,,FF,,,,,,,,1.5159,,,,,,,,,,,,,,,,,,,,,,6100aef9d0f776c296aa08b5,61036f673946c5585509af31,2021-07-29_22h19.00.632,Simcolourproject_2stim_asymm_v5,2020.2.10,MacIntel,60,61025ae37ef11b136ea224fe,,,,,,,,,2467,84.43688965,32.61508179,1,0,0,response1disk,,6,29.80133057,-3.520263672,1,0,0,rectangle,29.80133057,-3.520263672,1,0,0,29.80133057,-3.520263672,1,0,0,0,56,56,135,1,,,,,,,,
,,,,,,,,,,,,,FF,,,,,,,,3.2007,,,,,,,,,,,,,,,,,,,,,,6100aef9d0f776c296aa08b5,61036f673946c5585509af31,2021-07-29_22h19.00.632,Simcolourproject_2stim_asymm_v5,2020.2.10,MacIntel,60,61025ae37ef11b136ea224fe,,,,,,,,,3756,22.83691406,-85.99810791,1,0,0,response3disk,,4,24.82904053,-11.75689697,1,0,0,rectangle,24.82904053,-11.75689697,1,0,0,24.82904053,-11.75689697,1,0,0,0,57,57,16,1,,,,,,,,
,,,,,,,,,,,,,FF,,,,,,,,1.2164,,,,,,,,,,,,,,,,,,,,,,6100aef9d0f776c296aa08b5,61036f673946c5585509af31,2021-07-29_22h19.00.632,Simcolourproject_2stim_asymm_v5,2020.2.10,MacIntel,60,61025ae37ef11b136ea224fe,,,,,,,,,514,123.2357788,29.55960083,1,0,0,response1disk,,6,16.25793457,2.774108887,1,0,0,rectangle,16.25793457,2.774108887,1,0,0,16.25793457,2.774108887,1,0,0,0,58,58,131,1,,,,,,,,
,,,,,,,,,,,,,FF,,,,,,,,1.5506,,,,,,,,,,,,,,,,,,,,,,6100aef9d0f776c296aa08b5,61036f673946c5585509af31,2021-07-29_22h19.00.632,Simcolourproject_2stim_asymm_v5,2020.2.10,MacIntel,60,61025ae37ef11b136ea224fe,,,,,,,,,1350,61.19641113,-43.58093262,1,0,0,response3disk,,5,22.58886719,-8.054199219,1,0,0,rectangle,22.58886719,-8.054199219,1,0,0,22.58886719,-8.054199219,1,0,0,0,59,59,125,1,,,,,,,,
,,,,,,,,,,,,,FF,,,,,,,,4.1346,,,,,,,,,,,,,,,,,,,,,,6100aef9d0f776c296aa08b5,61036f673946c5585509af31,2021-07-29_22h19.00.632,Simcolourproject_2stim_asymm_v5,2020.2.10,MacIntel,60,61025ae37ef11b136ea224fe,,,,,,,,,1444,68.27813721,46.08761597,1,0,0,response1disk,,6,8.536071777,3.459625244,1,0,0,rectangle,8.536071777,3.459625244,1,0,0,8.536071777,3.459625244,1,0,0,0,60,60,134,1,,,,,,,,
,,,,,,,,,,,,,FF,,,,,,,,1.1336,,,,,,,,,,,,,,,,,,,,,,6100aef9d0f776c296aa08b5,61036f673946c5585509af31,2021-07-29_22h19.00.632,Simcolourproject_2stim_asymm_v5,2020.2.10,MacIntel,60,61025ae37ef11b136ea224fe,,,,,,,,,3150,-90.71630859,-53.67126465,1,0,0,response5disk,,2,-5.698059082,7.189880371,1,0,0,rectangle,69.84436035,-36.03878784,1,0,0,-9.423461914,-10.27108765,1,0,0,0,61,61,12,1,,response3disk_3,TRUE,5,6,"[8,307,75,7,62,46,108,149,67,110,133,186,64,165,296,86,95,42,20,207]",1.4006,rectangle
,,,,,,,,,,,,,FF,,,,,,,,1.2338,,,,,,,,,,,,,,,,,,,,,,6100aef9d0f776c296aa08b5,61036f673946c5585509af31,2021-07-29_22h19.00.632,Simcolourproject_2stim_asymm_v5,2020.2.10,MacIntel,60,61025ae37ef11b136ea224fe,,,,,,,,,558,-76.01873779,-46.8477478,1,0,0,response5disk,,2,-32.66796875,-9.953308105,1,0,0,rectangle,-32.66796875,-9.953308105,1,0,0,-32.66796875,-9.953308105,1,0,0,0,62,62,142,1,,,,,,,,
,,,,,,,,,,,,,FF,,,,,,,,2.917,,,,,,,,,,,,,,,,,,,,,,6100aef9d0f776c296aa08b5,61036f673946c5585509af31,2021-07-29_22h19.00.632,Simcolourproject_2stim_asymm_v5,2020.2.10,MacIntel,60,61025ae37ef11b136ea224fe,,,,,,,,,1576,-35.72814941,-89.77539063,1,0,0,response5disk,,3,-16.54418945,-4.558502197,1,0,0,rectangle,50.97180176,-71.55548096,1,0,0,-31.25445557,-0.73840332,1,0,0,0,63,63,101,1,,response3disk_3,TRUE,4,5,"[8,307,75,7,62,46,108,149,67,110,133,186,64,165,296,86,95,42,20,207]",1.0832,rectangle
,,,,,,,,,,,,,FF,,,,,,,,1.2,,,,,,,,,,,,,,,,,,,,,,6100aef9d0f776c296aa08b5,61036f673946c5585509af31,2021-07-29_22h19.00.632,Simcolourproject_2stim_asymm_v5,2020.2.10,MacIntel,60,61025ae37ef11b136ea224fe,,,,,,,,,278,-70.18225098,35.04275513,1,0,0,response7disk,,1,-11.35687256,1.173736572,1,0,0,rectangle,-11.35687256,1.173736572,1,0,0,-11.35687256,1.173736572,1,0,0,0,64,64,126,1,,,,,,,,
,,,,,,,,,,,,,FF,,,,,,,,1.2671,,,,,,,,,,,,,,,,,,,,,,6100aef9d0f776c296aa08b5,61036f673946c5585509af31,2021-07-29_22h19.00.632,Simcolourproject_2stim_asymm_v5,2020.2.10,MacIntel,60,61025ae37ef11b136ea224fe,,,,,,,,,1388,-44.86865234,-63.65966797,1,0,0,response5disk,,3,-16.24383545,-11.33596802,1,0,0,rectangle,-16.24383545,-11.33596802,1,0,0,-16.24383545,-11.33596802,1,0,0,0,65,65,51,1,,,,,,,,
,,,,,,,,,,,,,FF,,,,,,,,2.6823,,,,,,,,,,,,,,,,,,,,,,6100aef9d0f776c296aa08b5,61036f673946c5585509af31,2021-07-29_22h19.00.632,Simcolourproject_2stim_asymm_v5,2020.2.10,MacIntel,60,61025ae37ef11b136ea224fe,,,,,,,,,1360,48.54425049,-62.01385498,1,0,0,response3disk,,4,29.54803467,2.293060303,1,0,0,rectangle,72.50689697,50.71133423,1,0,0,4.763244629,7.664276123,1,0,0,0,66,66,136,1,,response1disk_3,TRUE,6,6,"[8,307,75,7,62,46,108,149,67,110,133,186,64,165,296,86,95,42,20,207]",1.2497,rectangle
,,,,,,,,,,,,,FF,,,,,,,,1.3664,,,,,,,,,,,,,,,,,,,,,,6100aef9d0f776c296aa08b5,61036f673946c5585509af31,2021-07-29_22h19.00.632,Simcolourproject_2stim_asymm_v5,2020.2.10,MacIntel,60,61025ae37ef11b136ea224fe,,,,,,,,,853,29.53417969,-83.98718262,1,0,0,response3disk,,4,-10.19360352,-14.32806396,1,0,0,rectangle,-10.19360352,-14.32806396,1,0,0,-10.19360352,-14.32806396,1,0,0,0,67,67,78,1,,,,,,,,
,,,,,,,,,,,,,FF,,,,,,,,1.5155,,,,,,,,,,,,,,,,,,,,,,6100aef9d0f776c296aa08b5,61036f673946c5585509af31,2021-07-29_22h19.00.632,Simcolourproject_2stim_asymm_v5,2020.2.10,MacIntel,60,61025ae37ef11b136ea224fe,,,,,,,,,1092,38.17657471,44.5369873,1,0,0,response1disk,,7,13.08111572,1.554107666,1,0,0,rectangle,13.08111572,1.554107666,1,0,0,13.08111572,1.554107666,1,0,0,0,68,68,48,1,,,,,,,,
,,,,,,,,,,,,,FF,,,,,,,,4.0997,,,,,,,,,,,,,,,,,,,,,,6100aef9d0f776c296aa08b5,61036f673946c5585509af31,2021-07-29_22h19.00.632,Simcolourproject_2stim_asymm_v5,2020.2.10,MacIntel,60,61025ae37ef11b136ea224fe,,,,,,,,,2709,55.8996582,96.22756958,1,0,0,response1disk,,7,8.111083984,-0.285736084,1,0,0,rectangle,8.111083984,-0.285736084,1,0,0,8.111083984,-0.285736084,1,0,0,0,69,69,118,1,,,,,,,,
,,,,,,,,,,,,,FF,,,,,,,,1.7324,,,,,,,,,,,,,,,,,,,,,,6100aef9d0f776c296aa08b5,61036f673946c5585509af31,2021-07-29_22h19.00.632,Simcolourproject_2stim_asymm_v5,2020.2.10,MacIntel,60,61025ae37ef11b136ea224fe,,,,,,,,,2876,67.58123779,-36.91262817,1,0,0,response3disk,,5,10.6015625,-3.210632324,1,0,0,rectangle,10.6015625,-3.210632324,1,0,0,10.6015625,-3.210632324,1,0,0,0,70,70,117,1,,,,,,,,
,,,,,,,,,,,,,FF,,,,,,,,4.0179,,,,,,,,,,,,,,,,,,,,,,6100aef9d0f776c296aa08b5,61036f673946c5585509af31,2021-07-29_22h19.00.632,Simcolourproject_2stim_asymm_v5,2020.2.10,MacIntel,60,61025ae37ef11b136ea224fe,,,,,,,,,156,48.62658691,-32.36050415,1,0,0,response3disk,,5,12.46716309,7.977783203,1,0,0,rectangle,12.46716309,7.977783203,1,0,0,12.46716309,7.977783203,1,0,0,0,71,71,122,1,,,,,,,,
,,,,,,,,,,,,,FF,,,,,,,,1.0331,,,,,,,,,,,,,,,,,,,,,,6100aef9d0f776c296aa08b5,61036f673946c5585509af31,2021-07-29_22h19.00.632,Simcolourproject_2stim_asymm_v5,2020.2.10,MacIntel,60,61025ae37ef11b136ea224fe,,,,,,,,,2572,62.48394775,37.24816895,1,0,0,response1disk,,6,27.82025146,15.03622437,1,0,0,rectangle,27.82025146,15.03622437,1,0,0,27.82025146,15.03622437,1,0,0,0,72,72,22,1,,,,,,,,
,,,,,,,,,,,,,FF,,,,,,,,1.0166,,,,,,,,,,,,,,,,,,,,,,6100aef9d0f776c296aa08b5,61036f673946c5585509af31,2021-07-29_22h19.00.632,Simcolourproject_2stim_asymm_v5,2020.2.10,MacIntel,60,61025ae37ef11b136ea224fe,,,,,,,,,2099,-50.32189941,65.118927,1,0,0,response7disk,,0,-1.936035156,4.345855713,1,0,0,rectangle,-1.936035156,4.345855713,1,0,0,-1.936035156,4.345855713,1,0,0,0,73,73,146,1,,,,,,,,
,,,,,,,,,,,,,FF,,,,,,,,5.3502,,,,,,,,,,,,,,,,,,,,,,6100aef9d0f776c296aa08b5,61036f673946c5585509af31,2021-07-29_22h19.00.632,Simcolourproject_2stim_asymm_v5,2020.2.10,MacIntel,60,61025ae37ef11b136ea224fe,,,,,,,,,370,-28.87908936,-67.51782227,1,0,0,response5disk,,3,-7.238037109,9.441131592,1,0,0,rectangle,-97.43798828,-59.16815186,1,0,0,-4.251525879,-1.530334473,1,0,0,0,74,74,88,1,,response5disk_3,TRUE,2,2,"[8,307,75,7,62,46,108,149,67,110,133,186,64,165,296,86,95,42,20,207]",3.0829,rectangle
,,,,,,,,,,,,,FF,,,,,,,,1.9669,,,,,,,,,,,,,,,,,,,,,,6100aef9d0f776c296aa08b5,61036f673946c5585509af31,2021-07-29_22h19.00.632,Simcolourproject_2stim_asymm_v5,2020.2.10,MacIntel,60,61025ae37ef11b136ea224fe,,,,,,,,,3939,-70.0904541,26.98916626,1,0,0,response7disk,,1,-11.21948242,5.588348389,1,0,0,rectangle,-11.21948242,5.588348389,1,0,0,-11.21948242,5.588348389,1,0,0,0,75,75,109,1,,,,,,,,
,,,,,,,,,,,,,FF,,,,,,,,1.7487,,,,,,,,,,,,,,,,,,,,,,6100aef9d0f776c296aa08b5,61036f673946c5585509af31,2021-07-29_22h19.00.632,Simcolourproject_2stim_asymm_v5,2020.2.10,MacIntel,60,61025ae37ef11b136ea224fe,,,,,,,,,1187,31.83575439,61.3039856,1,0,0,response1disk,,7,11.81170654,8.348388672,1,0,0,rectangle,11.81170654,8.348388672,1,0,0,11.81170654,8.348388672,1,0,0,0,76,76,111,1,,,,,,,,
,,,,,,,,,,,,,FF,,,,,,,,1.3173,,,,,,,,,,,,,,,,,,,,,,6100aef9d0f776c296aa08b5,61036f673946c5585509af31,2021-07-29_22h19.00.632,Simcolourproject_2stim_asymm_v5,2020.2.10,MacIntel,60,61025ae37ef11b136ea224fe,,,,,,,,,696,-35.81262207,-101.2470703,1,0,0,response5disk,,3,-16.93847656,-0.960327148,1,0,0,rectangle,-16.93847656,-0.960327148,1,0,0,-16.93847656,-0.960327148,1,0,0,0,77,77,138,1,,,,,,,,
,,,,,,,,,,,,,FF,,,,,,,,3.214,,,,,,,,,,,,,,,,,,,,,,6100aef9d0f776c296aa08b5,61036f673946c5585509af31,2021-07-29_22h19.00.632,Simcolourproject_2stim_asymm_v5,2020.2.10,MacIntel,60,61025ae37ef11b136ea224fe,,,,,,,,,2185,102.1677246,46.42306519,1,0,0,response1disk,,6,31.07226563,15.77426147,1,0,0,rectangle,31.07226563,15.77426147,1,0,0,31.07226563,15.77426147,1,0,0,0,78,78,80,1,,,,,,,,
,,,,,,,,,,,,,FF,,,,,,,,1.7324,,,,,,,,,,,,,,,,,,,,,,6100aef9d0f776c296aa08b5,61036f673946c5585509af31,2021-07-29_22h19.00.632,Simcolourproject_2stim_asymm_v5,2020.2.10,MacIntel,60,61025ae37ef11b136ea224fe,,,,,,,,,1939,43.89709473,24.95553589,1,0,0,response1disk,,6,7.29284668,12.59469604,1,0,0,rectangle,7.29284668,12.59469604,1,0,0,7.29284668,12.59469604,1,0,0,0,79,79,39,1,,,,,,,,
,,,,,,,,,,,,,FF,,,,,,,,2.4,,,,,,,,,,,,,,,,,,,,,,6100aef9d0f776c296aa08b5,61036f673946c5585509af31,2021-07-29_22h19.00.632,Simcolourproject_2stim_asymm_v5,2020.2.10,MacIntel,60,61025ae37ef11b136ea224fe,,,,,,,,,1144,-76.96813965,-59.57894897,1,0,0,response5disk,,2,3.58001709,1.134613037,1,0,0,rectangle,3.58001709,1.134613037,1,0,0,3.58001709,1.134613037,1,0,0,0,80,80,140,1,,,,,,,,
,,,,,,,,,,,,,FF,,,,,,,,1.5333,,,,,,,,,,,,,,,,,,,,,,6100aef9d0f776c296aa08b5,61036f673946c5585509af31,2021-07-29_22h19.00.632,Simcolourproject_2stim_asymm_v5,2020.2.10,MacIntel,60,61025ae37ef11b136ea224fe,,,,,,,,,1297,-95.93969727,-33.42193604,1,0,0,response5disk,,2,-19.32147217,4.078674316,1,0,0,rectangle,-19.32147217,4.078674316,1,0,0,-19.32147217,4.078674316,1,0,0,0,81,81,69,1,,,,,,,,
,,,,,,,,,,,,,FF,,,,,,,,1.5996,,,,,,,,,,,,,,,,,,,,,,6100aef9d0f776c296aa08b5,61036f673946c5585509af31,2021-07-29_22h19.00.632,Simcolourproject_2stim_asymm_v5,2020.2.10,MacIntel,60,61025ae37ef11b136ea224fe,,,,,,,,,1192,66.34289551,48.24258423,1,0,0,response1disk,,6,2.97467041,17.06619263,1,0,0,rectangle,2.97467041,17.06619263,1,0,0,2.97467041,17.06619263,1,0,0,0,82,82,7,1,,,,,,,,
,,,,,,,,,,,,,FF,,,,,,,,2.8,,,,,,,,,,,,,,,,,,,,,,6100aef9d0f776c296aa08b5,61036f673946c5585509af31,2021-07-29_22h19.00.632,Simcolourproject_2stim_asymm_v5,2020.2.10,MacIntel,60,61025ae37ef11b136ea224fe,,,,,,,,,308,38.44927979,-58.82699585,1,0,0,response3disk,,4,29.99047852,-8.898193359,1,0,0,rectangle,29.99047852,-8.898193359,1,0,0,29.99047852,-8.898193359,1,0,0,0,83,83,55,1,,,,,,,,
,,,,,,,,,,,,,FF,,,,,,,,1.2665,,,,,,,,,,,,,,,,,,,,,,6100aef9d0f776c296aa08b5,61036f673946c5585509af31,2021-07-29_22h19.00.632,Simcolourproject_2stim_asymm_v5,2020.2.10,MacIntel,60,61025ae37ef11b136ea224fe,,,,,,,,,2893,-32.175354,55.31802368,1,0,0,response7disk,,0,6.235656738,-4.376922607,1,0,0,rectangle,6.235656738,-4.376922607,1,0,0,6.235656738,-4.376922607,1,0,0,0,84,84,89,1,,,,,,,,
,,,,,,,,,,,,,FF,,,,,,,,0.9839,,,,,,,,,,,,,,,,,,,,,,6100aef9d0f776c296aa08b5,61036f673946c5585509af31,2021-07-29_22h19.00.632,Simcolourproject_2stim_asymm_v5,2020.2.10,MacIntel,60,61025ae37ef11b136ea224fe,,,,,,,,,2509,37.15698242,83.19406128,1,0,0,response1disk,,7,9.194396973,8.593322754,1,0,0,rectangle,-69.93139648,36.71069336,1,0,0,8.12121582,-6.488189697,1,0,0,0,85,85,11,1,,response7disk_3,TRUE,1,7,"[8,307,75,7,62,46,108,149,67,110,133,186,64,165,296,86,95,42,20,207]",2.7339,rectangle
,,,,,,,,,,,,,FF,,,,,,,,1.067,,,,,,,,,,,,,,,,,,,,,,6100aef9d0f776c296aa08b5,61036f673946c5585509af31,2021-07-29_22h19.00.632,Simcolourproject_2stim_asymm_v5,2020.2.10,MacIntel,60,61025ae37ef11b136ea224fe,,,,,,,,,3520,-81.14440918,-41.66992188,1,0,0,response5disk,,2,-8.533569336,-1.488067627,1,0,0,rectangle,-8.533569336,-1.488067627,1,0,0,-8.533569336,-1.488067627,1,0,0,0,86,86,67,1,,,,,,,,
,,,,,,,,,,,,,FF,,,,,,,,0.8017,,,,,,,,,,,,,,,,,,,,,,6100aef9d0f776c296aa08b5,61036f673946c5585509af31,2021-07-29_22h19.00.632,Simcolourproject_2stim_asymm_v5,2020.2.10,MacIntel,60,61025ae37ef11b136ea224fe,,,,,,,,,869,-75.61395264,-33.9307251,1,0,0,response5disk,,2,-16.74407959,0.669921875,1,0,0,rectangle,-16.74407959,0.669921875,1,0,0,-16.74407959,0.669921875,1,0,0,0,87,87,90,1,,,,,,,,
,,,,,,,,,,,,,FF,,,,,,,,1.7327,,,,,,,,,,,,,,,,,,,,,,6100aef9d0f776c296aa08b5,61036f673946c5585509af31,2021-07-29_22h19.00.632,Simcolourproject_2stim_asymm_v5,2020.2.10,MacIntel,60,61025ae37ef11b136ea224fe,,,,,,,,,1780,38.61236572,-77.58856201,1,0,0,response3disk,,4,-1.317626953,-14.35681152,1,0,0,rectangle,-1.317626953,-14.35681152,1,0,0,-1.317626953,-14.35681152,1,0,0,0,88,88,150,1,,,,,,,,
,,,,,,,,,,,,,FF,,,,,,,,0.9847,,,,,,,,,,,,,,,,,,,,,,6100aef9d0f776c296aa08b5,61036f673946c5585509af31,2021-07-29_22h19.00.632,Simcolourproject_2stim_asymm_v5,2020.2.10,MacIntel,60,61025ae37ef11b136ea224fe,,,,,,,,,42,54.2487793,-86.56713867,1,0,0,response3disk,,4,21.64782715,-10.52597046,1,0,0,rectangle,21.64782715,-10.52597046,1,0,0,21.64782715,-10.52597046,1,0,0,0,89,89,157,1,,,,,,,,
,,,,,,,,,,,,,FF,,,,,,,,1.6501,,,,,,,,,,,,,,,,,,,,,,6100aef9d0f776c296aa08b5,61036f673946c5585509af31,2021-07-29_22h19.00.632,Simcolourproject_2stim_asymm_v5,2020.2.10,MacIntel,60,61025ae37ef11b136ea224fe,,,,,,,,,4158,85.43395996,54.78060913,1,0,0,response1disk,,6,20.6842041,1.567596436,1,0,0,rectangle,20.6842041,1.567596436,1,0,0,20.6842041,1.567596436,1,0,0,0,90,90,92,1,,,,,,,,
,,,,,,,,,,,,,FF,,,,,,,,0.9493,,,,,,,,,,,,,,,,,,,,,,6100aef9d0f776c296aa08b5,61036f673946c5585509af31,2021-07-29_22h19.00.632,Simcolourproject_2stim_asymm_v5,2020.2.10,MacIntel,60,61025ae37ef11b136ea224fe,,,,,,,,,4167,-76.53619385,-38.74304199,1,0,0,response5disk,,2,-19.01898193,-5.847473145,1,0,0,rectangle,-19.01898193,-5.847473145,1,0,0,-19.01898193,-5.847473145,1,0,0,0,91,91,99,1,,,,,,,,
,,,,,,,,,,,,,FF,,,,,,,,1.9496,,,,,,,,,,,,,,,,,,,,,,6100aef9d0f776c296aa08b5,61036f673946c5585509af31,2021-07-29_22h19.00.632,Simcolourproject_2stim_asymm_v5,2020.2.10,MacIntel,60,61025ae37ef11b136ea224fe,,,,,,,,,3836,32.96746826,-106.8687744,1,0,0,response3disk,,4,21.47125244,-1.848022461,1,0,0,rectangle,21.47125244,-1.848022461,1,0,0,21.47125244,-1.848022461,1,0,0,0,92,92,153,1,,,,,,,,
,,,,,,,,,,,,,FF,,,,,,,,1.5997,,,,,,,,,,,,,,,,,,,,,,6100aef9d0f776c296aa08b5,61036f673946c5585509af31,2021-07-29_22h19.00.632,Simcolourproject_2stim_asymm_v5,2020.2.10,MacIntel,60,61025ae37ef11b136ea224fe,,,,,,,,,2137,41.84875488,65.34204102,1,0,0,response1disk,,7,23.35510254,6.944610596,1,0,0,rectangle,23.35510254,6.944610596,1,0,0,23.35510254,6.944610596,1,0,0,0,93,93,106,1,,,,,,,,
,,,,,,,,,,,,,FF,,,,,,,,2.0995,,,,,,,,,,,,,,,,,,,,,,6100aef9d0f776c296aa08b5,61036f673946c5585509af31,2021-07-29_22h19.00.632,Simcolourproject_2stim_asymm_v5,2020.2.10,MacIntel,60,61025ae37ef11b136ea224fe,,,,,,,,,783,-29.16845703,-79.02880859,1,0,0,response5disk,,3,15.91656494,-7.067779541,1,0,0,rectangle,67.76904297,-21.068573,1,0,0,-6.106689453,-7.491210938,1,0,0,0,94,94,152,1,,response3disk_3,TRUE,5,5,"[8,307,75,7,62,46,108,149,67,110,133,186,64,165,296,86,95,42,20,207]",1.8661,rectangle
,,,,,,,,,,,,,FF,,,,,,,,2.4175,,,,,,,,,,,,,,,,,,,,,,6100aef9d0f776c296aa08b5,61036f673946c5585509af31,2021-07-29_22h19.00.632,Simcolourproject_2stim_asymm_v5,2020.2.10,MacIntel,60,61025ae37ef11b136ea224fe,,,,,,,,,1149,-42.53991699,-85.25805664,1,0,0,response5disk,,3,-15.35760498,-10.76403809,1,0,0,rectangle,-15.35760498,-10.76403809,1,0,0,-15.35760498,-10.76403809,1,0,0,0,95,95,79,1,,,,,,,,
,,,,,,,,,,,,,FF,,,,,,,,2.8997,,,,,,,,,,,,,,,,,,,,,,6100aef9d0f776c296aa08b5,61036f673946c5585509af31,2021-07-29_22h19.00.632,Simcolourproject_2stim_asymm_v5,2020.2.10,MacIntel,60,61025ae37ef11b136ea224fe,,,,,,,,,3962,45.50726318,81.89135742,1,0,0,response1disk,,7,3.779907227,13.15844727,1,0,0,rectangle,3.779907227,13.15844727,1,0,0,3.779907227,13.15844727,1,0,0,0,96,96,50,1,,,,,,,,
,,,,,,,,,,,,,FF,,,,,,,,1.1176,,,,,,,,,,,,,,,,,,,,,,6100aef9d0f776c296aa08b5,61036f673946c5585509af31,2021-07-29_22h19.00.632,Simcolourproject_2stim_asymm_v5,2020.2.10,MacIntel,60,61025ae37ef11b136ea224fe,,,,,,,,,169,-103.9477539,-42.40197754,1,0,0,response5disk,,2,-24.34356689,0.321807861,1,0,0,rectangle,-24.34356689,0.321807861,1,0,0,-24.34356689,0.321807861,1,0,0,0,97,97,77,1,,,,,,,,
,,,,,,,,,,,,,FF,,,,,,,,1.0335,,,,,,,,,,,,,,,,,,,,,,6100aef9d0f776c296aa08b5,61036f673946c5585509af31,2021-07-29_22h19.00.632,Simcolourproject_2stim_asymm_v5,2020.2.10,MacIntel,60,61025ae37ef11b136ea224fe,,,,,,,,,2931,36.82965088,96.73019409,1,0,0,response1disk,,7,-6.697875977,-4.799224854,1,0,0,rectangle,-6.697875977,-4.799224854,1,0,0,-6.697875977,-4.799224854,1,0,0,0,98,98,73,1,,,,,,,,
,,,,,,,,,,,,,FF,,,,,,,,3.8169,,,,,,,,,,,,,,,,,,,,,,6100aef9d0f776c296aa08b5,61036f673946c5585509af31,2021-07-29_22h19.00.632,Simcolourproject_2stim_asymm_v5,2020.2.10,MacIntel,60,61025ae37ef11b136ea224fe,,,,,,,,,2157,32.6774292,58.85540771,1,0,0,response1disk,,7,12.6963501,13.08847046,1,0,0,rectangle,12.6963501,13.08847046,1,0,0,12.6963501,13.08847046,1,0,0,0,99,99,105,1,,,,,,,,
,,,,,,,,,,,,,FF,,,,,,,,1.233,,,,,,,,,,,,,,,,,,,,,,6100aef9d0f776c296aa08b5,61036f673946c5585509af31,2021-07-29_22h19.00.632,Simcolourproject_2stim_asymm_v5,2020.2.10,MacIntel,60,61025ae37ef11b136ea224fe,,,,,,,,,2484,-34.86975098,-91.16442871,1,0,0,response5disk,,3,-5.609680176,2.624572754,1,0,0,rectangle,-5.609680176,2.624572754,1,0,0,-5.609680176,2.624572754,1,0,0,0,100,100,43,1,,,,,,,,
,,,,,,,,,,,,,FF,,,,,,,,2.6507,,,,,,,,,,,,,,,,,,,,,,6100aef9d0f776c296aa08b5,61036f673946c5585509af31,2021-07-29_22h19.00.632,Simcolourproject_2stim_asymm_v5,2020.2.10,MacIntel,60,61025ae37ef11b136ea224fe,,,,,,,,,2204,35.06555176,60.23455811,1,0,0,response1disk,,7,17.39233398,11.49203491,1,0,0,rectangle,17.39233398,11.49203491,1,0,0,17.39233398,11.49203491,1,0,0,0,101,101,38,1,,,,,,,,
,,,,,,,,,,,,,FF,,,,,,,,1.0999,,,,,,,,,,,,,,,,,,,,,,6100aef9d0f776c296aa08b5,61036f673946c5585509af31,2021-07-29_22h19.00.632,Simcolourproject_2stim_asymm_v5,2020.2.10,MacIntel,60,61025ae37ef11b136ea224fe,,,,,,,,,1682,-75.01330566,-35.96585083,1,0,0,response5disk,,2,-9.708435059,8.593170166,1,0,0,rectangle,-9.708435059,8.593170166,1,0,0,-9.708435059,8.593170166,1,0,0,0,102,102,5,1,,,,,,,,
,,,,,,,,,,,,,FF,,,,,,,,4.4332,,,,,,,,,,,,,,,,,,,,,,6100aef9d0f776c296aa08b5,61036f673946c5585509af31,2021-07-29_22h19.00.632,Simcolourproject_2stim_asymm_v5,2020.2.10,MacIntel,60,61025ae37ef11b136ea224fe,,,,,,,,,601,64.14355469,-20.98944092,1,0,0,response3disk,,5,-0.286315918,6.543060303,1,0,0,rectangle,-0.286315918,6.543060303,1,0,0,-0.286315918,6.543060303,1,0,0,0,103,103,6,1,,,,,,,,
,,,,,,,,,,,,,FF,,,,,,,,1.1999,,,,,,,,,,,,,,,,,,,,,,6100aef9d0f776c296aa08b5,61036f673946c5585509af31,2021-07-29_22h19.00.632,Simcolourproject_2stim_asymm_v5,2020.2.10,MacIntel,60,61025ae37ef11b136ea224fe,,,,,,,,,3362,73.88446045,36.11398315,1,0,0,response1disk,,6,-27.05603027,5.75378418,1,0,0,rectangle,-27.05603027,5.75378418,1,0,0,-27.05603027,5.75378418,1,0,0,0,104,104,133,1,,,,,,,,
,,,,,,,,,,,,,FF,,,,,,,,1.9664,,,,,,,,,,,,,,,,,,,,,,6100aef9d0f776c296aa08b5,61036f673946c5585509af31,2021-07-29_22h19.00.632,Simcolourproject_2stim_asymm_v5,2020.2.10,MacIntel,60,61025ae37ef11b136ea224fe,,,,,,,,,316,80.09283447,46.44824219,1,0,0,response1disk,,6,-4.067749023,17.65740967,1,0,0,rectangle,-4.067749023,17.65740967,1,0,0,-4.067749023,17.65740967,1,0,0,0,105,105,96,1,,,,,,,,
,,,,,,,,,,,,,FF,,,,,,,,1.0336,,,,,,,,,,,,,,,,,,,,,,6100aef9d0f776c296aa08b5,61036f673946c5585509af31,2021-07-29_22h19.00.632,Simcolourproject_2stim_asymm_v5,2020.2.10,MacIntel,60,61025ae37ef11b136ea224fe,,,,,,,,,3969,-105.8752441,-45.80838013,1,0,0,response5disk,,2,-8.329040527,4.562835693,1,0,0,rectangle,-8.329040527,4.562835693,1,0,0,-8.329040527,4.562835693,1,0,0,0,106,106,87,1,,,,,,,,
,,,,,,,,,,,,,FF,,,,,,,,1.3507,,,,,,,,,,,,,,,,,,,,,,6100aef9d0f776c296aa08b5,61036f673946c5585509af31,2021-07-29_22h19.00.632,Simcolourproject_2stim_asymm_v5,2020.2.10,MacIntel,60,61025ae37ef11b136ea224fe,,,,,,,,,1260,35.2442627,-79.71166992,1,0,0,response3disk,,4,6.02557373,3.355651855,1,0,0,rectangle,81.77337646,-31.45108032,1,0,0,4.901123047,0.118621826,1,0,0,0,107,107,121,1,,response3disk_3,TRUE,5,1,"[8,307,75,7,62,46,108,149,67,110,133,186,64,165,296,86,95,42,20,207]",1.6665,rectangle
,,,,,,,,,,,,,FF,,,,,,,,3.7329,,,,,,,,,,,,,,,,,,,,,,6100aef9d0f776c296aa08b5,61036f673946c5585509af31,2021-07-29_22h19.00.632,Simcolourproject_2stim_asymm_v5,2020.2.10,MacIntel,60,61025ae37ef11b136ea224fe,,,,,,,,,1433,66.67578125,30.03942871,1,0,0,response1disk,,6,25.34564209,-8.901489258,1,0,0,rectangle,25.34564209,-8.901489258,1,0,0,25.34564209,-8.901489258,1,0,0,0,108,108,8,1,,,,,,,,
,,,,,,,,,,,,,FF,,,,,,,,2.618,,,,,,,,,,,,,,,,,,,,,,6100aef9d0f776c296aa08b5,61036f673946c5585509af31,2021-07-29_22h19.00.632,Simcolourproject_2stim_asymm_v5,2020.2.10,MacIntel,60,61025ae37ef11b136ea224fe,,,,,,,,,419,88.96984863,-34.43701172,1,0,0,response3disk,,5,19.41918945,0.283325195,1,0,0,rectangle,32.00091553,69.75918579,1,0,0,-35.66900635,-10.70162964,1,0,0,0,109,109,108,1,,response1disk_3,TRUE,7,4,"[8,307,75,7,62,46,108,149,67,110,133,186,64,165,296,86,95,42,20,207]",2.7998,rectangle
,,,,,,,,,,,,,FF,,,,,,,,4.7489,,,,,,,,,,,,,,,,,,,,,,6100aef9d0f776c296aa08b5,61036f673946c5585509af31,2021-07-29_22h19.00.632,Simcolourproject_2stim_asymm_v5,2020.2.10,MacIntel,60,61025ae37ef11b136ea224fe,,,,,,,,,1024,45.94586182,-53.82250977,1,0,0,response3disk,,4,-13.81640625,3.248321533,1,0,0,rectangle,-13.81640625,3.248321533,1,0,0,-13.81640625,3.248321533,1,0,0,0,110,110,57,1,,,,,,,,
,,,,,,,,,,,,,FF,,,,,,,,1.3002,,,,,,,,,,,,,,,,,,,,,,6100aef9d0f776c296aa08b5,61036f673946c5585509af31,2021-07-29_22h19.00.632,Simcolourproject_2stim_asymm_v5,2020.2.10,MacIntel,60,61025ae37ef11b136ea224fe,,,,,,,,,2668,-96.53686523,41.86380005,1,0,0,response7disk,,1,-5.780517578,5.255279541,1,0,0,rectangle,-5.780517578,5.255279541,1,0,0,-5.780517578,5.255279541,1,0,0,0,111,111,64,1,,,,,,,,
,,,,,,,,,,,,,FF,,,,,,,,3.0666,,,,,,,,,,,,,,,,,,,,,,6100aef9d0f776c296aa08b5,61036f673946c5585509af31,2021-07-29_22h19.00.632,Simcolourproject_2stim_asymm_v5,2020.2.10,MacIntel,60,61025ae37ef11b136ea224fe,,,,,,,,,3535,27.16009521,-77.57940674,1,0,0,response3disk,,4,19.68579102,2.499786377,1,0,0,rectangle,19.68579102,2.499786377,1,0,0,19.68579102,2.499786377,1,0,0,0,112,112,14,1,,,,,,,,
,,,,,,,,,,,,,FF,,,,,,,,1.0834,,,,,,,,,,,,,,,,,,,,,,6100aef9d0f776c296aa08b5,61036f673946c5585509af31,2021-07-29_22h19.00.632,Simcolourproject_2stim_asymm_v5,2020.2.10,MacIntel,60,61025ae37ef11b136ea224fe,,,,,,,,,3210,-48.58898926,-30.87841797,1,0,0,response5disk,,2,-10.93719482,1.886322021,1,0,0,rectangle,-10.93719482,1.886322021,1,0,0,-10.93719482,1.886322021,1,0,0,0,113,113,47,1,,,,,,,,
,,,,,,,,,,,,,FF,,,,,,,,3.7666,,,,,,,,,,,,,,,,,,,,,,6100aef9d0f776c296aa08b5,61036f673946c5585509af31,2021-07-29_22h19.00.632,Simcolourproject_2stim_asymm_v5,2020.2.10,MacIntel,60,61025ae37ef11b136ea224fe,,,,,,,,,2851,69.48419189,27.03890991,1,0,0,response1disk,,6,6.248657227,-2.100311279,1,0,0,rectangle,6.248657227,-2.100311279,1,0,0,6.248657227,-2.100311279,1,0,0,0,114,114,37,1,,,,,,,,
,,,,,,,,,,,,,FF,,,,,,,,1.5187,,,,,,,,,,,,,,,,,,,,,,6100aef9d0f776c296aa08b5,61036f673946c5585509af31,2021-07-29_22h19.00.632,Simcolourproject_2stim_asymm_v5,2020.2.10,MacIntel,60,61025ae37ef11b136ea224fe,,,,,,,,,1606,-91.15075684,66.97677612,1,0,0,response7disk,,1,-13.48162842,6.506347656,1,0,0,rectangle,-13.48162842,6.506347656,1,0,0,-13.48162842,6.506347656,1,0,0,0,115,115,19,1,,,,,,,,
,,,,,,,,,,,,,FF,,,,,,,,3.2846,,,,,,,,,,,,,,,,,,,,,,6100aef9d0f776c296aa08b5,61036f673946c5585509af31,2021-07-29_22h19.00.632,Simcolourproject_2stim_asymm_v5,2020.2.10,MacIntel,60,61025ae37ef11b136ea224fe,,,,,,,,,1000,76.63818359,-47.77044678,1,0,0,response3disk,,5,7.643981934,-4.274261475,1,0,0,rectangle,7.643981934,-4.274261475,1,0,0,7.643981934,-4.274261475,1,0,0,0,116,116,103,1,,,,,,,,
,,,,,,,,,,,,,FF,,,,,,,,1.3824,,,,,,,,,,,,,,,,,,,,,,6100aef9d0f776c296aa08b5,61036f673946c5585509af31,2021-07-29_22h19.00.632,Simcolourproject_2stim_asymm_v5,2020.2.10,MacIntel,60,61025ae37ef11b136ea224fe,,,,,,,,,638,-87.09362793,32.05142212,1,0,0,response7disk,,1,10.01977539,11.11746216,1,0,0,rectangle,10.01977539,11.11746216,1,0,0,10.01977539,11.11746216,1,0,0,0,117,117,124,1,,,,,,,,
,,,,,,,,,,,,,FF,,,,,,,,1.233,,,,,,,,,,,,,,,,,,,,,,6100aef9d0f776c296aa08b5,61036f673946c5585509af31,2021-07-29_22h19.00.632,Simcolourproject_2stim_asymm_v5,2020.2.10,MacIntel,60,61025ae37ef11b136ea224fe,,,,,,,,,399,84.27252197,-35.78964233,1,0,0,response3disk,,5,-15.98937988,5.512451172,1,0,0,rectangle,-15.98937988,5.512451172,1,0,0,-15.98937988,5.512451172,1,0,0,0,118,118,62,1,,,,,,,,
,,,,,,,,,,,,,FF,,,,,,,,1.9843,,,,,,,,,,,,,,,,,,,,,,6100aef9d0f776c296aa08b5,61036f673946c5585509af31,2021-07-29_22h19.00.632,Simcolourproject_2stim_asymm_v5,2020.2.10,MacIntel,60,61025ae37ef11b136ea224fe,,,,,,,,,1948,31.16662598,59.57989502,1,0,0,response1disk,,7,7.093261719,-6.477081299,1,0,0,rectangle,7.093261719,-6.477081299,1,0,0,7.093261719,-6.477081299,1,0,0,0,119,119,42,1,,,,,,,,
,,,,,,,,,,,,,FF,,,,,,,,1.7162,,,,,,,,,,,,,,,,,,,,,,6100aef9d0f776c296aa08b5,61036f673946c5585509af31,2021-07-29_22h19.00.632,Simcolourproject_2stim_asymm_v5,2020.2.10,MacIntel,60,61025ae37ef11b136ea224fe,,,,,,,,,864,-79.3717041,-53.78683472,1,0,0,response5disk,,2,-6.381469727,-7.449645996,1,0,0,rectangle,-6.381469727,-7.449645996,1,0,0,-6.381469727,-7.449645996,1,0,0,0,120,120,102,1,,,,,,,,
,,,,,,,,,,,,,FF,,,,,,,,1.2323,,,,,,,,,,,,,,,,,,,,,,6100aef9d0f776c296aa08b5,61036f673946c5585509af31,2021-07-29_22h19.00.632,Simcolourproject_2stim_asymm_v5,2020.2.10,MacIntel,60,61025ae37ef11b136ea224fe,,,,,,,,,1072,-63.50750732,-41.06057739,1,0,0,response5disk,,2,-9.206237793,14.74111938,1,0,0,rectangle,-9.206237793,14.74111938,1,0,0,-9.206237793,14.74111938,1,0,0,0,121,121,154,1,,,,,,,,
,,,,,,,,,,,,,FF,,,,,,,,4.3017,,,,,,,,,,,,,,,,,,,,,,6100aef9d0f776c296aa08b5,61036f673946c5585509af31,2021-07-29_22h19.00.632,Simcolourproject_2stim_asymm_v5,2020.2.10,MacIntel,60,61025ae37ef11b136ea224fe,,,,,,,,,3083,73.68048096,26.88067627,1,0,0,response1disk,,6,6.851379395,-12.91040039,1,0,0,rectangle,6.851379395,-12.91040039,1,0,0,6.851379395,-12.91040039,1,0,0,0,122,122,68,1,,,,,,,,
,,,,,,,,,,,,,FF,,,,,,,,3.0338,,,,,,,,,,,,,,,,,,,,,,6100aef9d0f776c296aa08b5,61036f673946c5585509af31,2021-07-29_22h19.00.632,Simcolourproject_2stim_asymm_v5,2020.2.10,MacIntel,60,61025ae37ef11b136ea224fe,,,,,,,,,2870,37.75933838,69.21124268,1,0,0,response1disk,,7,17.38702393,-5.303771973,1,0,0,rectangle,17.38702393,-5.303771973,1,0,0,17.38702393,-5.303771973,1,0,0,0,123,123,10,1,,,,,,,,
,,,,,,,,,,,,,FF,,,,,,,,1.7002,,,,,,,,,,,,,,,,,,,,,,6100aef9d0f776c296aa08b5,61036f673946c5585509af31,2021-07-29_22h19.00.632,Simcolourproject_2stim_asymm_v5,2020.2.10,MacIntel,60,61025ae37ef11b136ea224fe,,,,,,,,,3260,90.50604248,23.85925293,1,0,0,response1disk,,6,3.989624023,-0.532501221,1,0,0,rectangle,3.989624023,-0.532501221,1,0,0,3.989624023,-0.532501221,1,0,0,0,124,124,95,1,,,,,,,,
,,,,,,,,,,,,,FF,,,,,,,,2.8167,,,,,,,,,,,,,,,,,,,,,,6100aef9d0f776c296aa08b5,61036f673946c5585509af31,2021-07-29_22h19.00.632,Simcolourproject_2stim_asymm_v5,2020.2.10,MacIntel,60,61025ae37ef11b136ea224fe,,,,,,,,,3418,-116.6097412,-50.07232666,1,0,0,response5disk,,2,0.700317383,16.24346924,1,0,0,rectangle,0.700317383,16.24346924,1,0,0,0.700317383,16.24346924,1,0,0,0,125,125,81,1,,,,,,,,
,,,,,,,,,,,,,FF,,,,,,,,0.9162,,,,,,,,,,,,,,,,,,,,,,6100aef9d0f776c296aa08b5,61036f673946c5585509af31,2021-07-29_22h19.00.632,Simcolourproject_2stim_asymm_v5,2020.2.10,MacIntel,60,61025ae37ef11b136ea224fe,,,,,,,,,4236,-56.05480957,36.31628418,1,0,0,response7disk,,1,-13.63739014,8.139648438,1,0,0,rectangle,-13.63739014,8.139648438,1,0,0,-13.63739014,8.139648438,1,0,0,0,126,126,33,1,,,,,,,,
,,,,,,,,,,,,,FF,,,,,,,,1.8826,,,,,,,,,,,,,,,,,,,,,,6100aef9d0f776c296aa08b5,61036f673946c5585509af31,2021-07-29_22h19.00.632,Simcolourproject_2stim_asymm_v5,2020.2.10,MacIntel,60,61025ae37ef11b136ea224fe,,,,,,,,,1291,-70.94384766,41.66400146,1,0,0,response7disk,,1,-2.210998535,5.941619873,1,0,0,rectangle,-2.210998535,5.941619873,1,0,0,-2.210998535,5.941619873,1,0,0,0,127,127,71,1,,,,,,,,
,,,,,,,,,,,,,FF,,,,,,,,1.8164,,,,,,,,,,,,,,,,,,,,,,6100aef9d0f776c296aa08b5,61036f673946c5585509af31,2021-07-29_22h19.00.632,Simcolourproject_2stim_asymm_v5,2020.2.10,MacIntel,60,61025ae37ef11b136ea224fe,,,,,,,,,3583,-89.87213135,-70.00201416,1,0,0,response5disk,,2,14.32342529,11.17886353,1,0,0,rectangle,14.32342529,11.17886353,1,0,0,14.32342529,11.17886353,1,0,0,0,128,128,139,1,,,,,,,,
,,,,,,,,,,,,,FF,,,,,,,,2.0842,,,,,,,,,,,,,,,,,,,,,,6100aef9d0f776c296aa08b5,61036f673946c5585509af31,2021-07-29_22h19.00.632,Simcolourproject_2stim_asymm_v5,2020.2.10,MacIntel,60,61025ae37ef11b136ea224fe,,,,,,,,,516,92.42492676,-25.36981201,1,0,0,response3disk,,5,-28.33654785,2.1953125,1,0,0,rectangle,-28.33654785,2.1953125,1,0,0,-28.33654785,2.1953125,1,0,0,0,129,129,156,1,,,,,,,,
,,,,,,,,,,,,,FF,,,,,,,,1.3829,,,,,,,,,,,,,,,,,,,,,,6100aef9d0f776c296aa08b5,61036f673946c5585509af31,2021-07-29_22h19.00.632,Simcolourproject_2stim_asymm_v5,2020.2.10,MacIntel,60,61025ae37ef11b136ea224fe,,,,,,,,,2917,56.30889893,40.27981567,1,0,0,response1disk,,6,-2.895874023,-3.708465576,1,0,0,rectangle,-2.895874023,-3.708465576,1,0,0,-2.895874023,-3.708465576,1,0,0,0,130,130,100,1,,,,,,,,
,,,,,,,,,,,,,FF,,,,,,,,3.6507,,,,,,,,,,,,,,,,,,,,,,6100aef9d0f776c296aa08b5,61036f673946c5585509af31,2021-07-29_22h19.00.632,Simcolourproject_2stim_asymm_v5,2020.2.10,MacIntel,60,61025ae37ef11b136ea224fe,,,,,,,,,224,29.54278564,-59.73730469,1,0,0,response3disk,,4,5.384155273,5.336883545,1,0,0,rectangle,5.384155273,5.336883545,1,0,0,5.384155273,5.336883545,1,0,0,0,131,131,60,1,,,,,,,,
,,,,,,,,,,,,,FF,,,,,,,,0.8505,,,,,,,,,,,,,,,,,,,,,,6100aef9d0f776c296aa08b5,61036f673946c5585509af31,2021-07-29_22h19.00.632,Simcolourproject_2stim_asymm_v5,2020.2.10,MacIntel,60,61025ae37ef11b136ea224fe,,,,,,,,,4045,45.66442871,71.26190186,1,0,0,response1disk,,7,-5.072570801,-15.06152344,1,0,0,rectangle,-31.40753174,-74.52655029,1,0,0,4.194396973,3.716827393,1,0,0,0,132,132,35,1,,response5disk_3,TRUE,3,4,"[8,307,75,7,62,46,108,149,67,110,133,186,64,165,296,86,95,42,20,207]",1.5836,rectangle
,,,,,,,,,,,,,FF,,,,,,,,5.683,,,,,,,,,,,,,,,,,,,,,,6100aef9d0f776c296aa08b5,61036f673946c5585509af31,2021-07-29_22h19.00.632,Simcolourproject_2stim_asymm_v5,2020.2.10,MacIntel,60,61025ae37ef11b136ea224fe,,,,,,,,,1249,88.6817627,-32.19940186,1,0,0,response3disk,,5,8.253112793,-0.703979492,1,0,0,rectangle,8.253112793,-0.703979492,1,0,0,8.253112793,-0.703979492,1,0,0,0,133,133,75,1,,,,,,,,
,,,,,,,,,,,,,FF,,,,,,,,2.3507,,,,,,,,,,,,,,,,,,,,,,6100aef9d0f776c296aa08b5,61036f673946c5585509af31,2021-07-29_22h19.00.632,Simcolourproject_2stim_asymm_v5,2020.2.10,MacIntel,60,61025ae37ef11b136ea224fe,,,,,,,,,1638,79.07891846,49.1987915,1,0,0,response1disk,,6,16.71282959,7.35824585,1,0,0,rectangle,16.71282959,7.35824585,1,0,0,16.71282959,7.35824585,1,0,0,0,134,134,27,1,,,,,,,,
,,,,,,,,,,,,,FF,,,,,,,,4.6489,,,,,,,,,,,,,,,,,,,,,,6100aef9d0f776c296aa08b5,61036f673946c5585509af31,2021-07-29_22h19.00.632,Simcolourproject_2stim_asymm_v5,2020.2.10,MacIntel,60,61025ae37ef11b136ea224fe,,,,,,,,,932,45.21350098,69.93682861,1,0,0,response1disk,,7,9.90838623,6.415100098,1,0,0,rectangle,9.90838623,6.415100098,1,0,0,9.90838623,6.415100098,1,0,0,0,135,135,24,1,,,,,,,,
,,,,,,,,,,,,,FF,,,,,,,,1.3672,,,,,,,,,,,,,,,,,,,,,,6100aef9d0f776c296aa08b5,61036f673946c5585509af31,2021-07-29_22h19.00.632,Simcolourproject_2stim_asymm_v5,2020.2.10,MacIntel,60,61025ae37ef11b136ea224fe,,,,,,,,,552,-35.79119873,-76.05419922,1,0,0,response5disk,,3,-6.962463379,-8.579925537,1,0,0,rectangle,-6.962463379,-8.579925537,1,0,0,-6.962463379,-8.579925537,1,0,0,0,136,136,74,1,,,,,,,,
,,,,,,,,,,,,,FF,,,,,,,,2.0503,,,,,,,,,,,,,,,,,,,,,,6100aef9d0f776c296aa08b5,61036f673946c5585509af31,2021-07-29_22h19.00.632,Simcolourproject_2stim_asymm_v5,2020.2.10,MacIntel,60,61025ae37ef11b136ea224fe,,,,,,,,,1875,76.44140625,-27.98669434,1,0,0,response3disk,,5,-11.14245605,3.685394287,1,0,0,rectangle,-11.14245605,3.685394287,1,0,0,-11.14245605,3.685394287,1,0,0,0,137,137,127,1,,,,,,,,
,,,,,,,,,,,,,FF,,,,,,,,2.3173,,,,,,,,,,,,,,,,,,,,,,6100aef9d0f776c296aa08b5,61036f673946c5585509af31,2021-07-29_22h19.00.632,Simcolourproject_2stim_asymm_v5,2020.2.10,MacIntel,60,61025ae37ef11b136ea224fe,,,,,,,,,2673,45.59210205,-97.89141846,1,0,0,response3disk,,4,10.24627686,8.687164307,1,0,0,rectangle,10.24627686,8.687164307,1,0,0,10.24627686,8.687164307,1,0,0,0,138,138,115,1,,,,,,,,
,,,,,,,,,,,,,FF,,,,,,,,1.2665,,,,,,,,,,,,,,,,,,,,,,6100aef9d0f776c296aa08b5,61036f673946c5585509af31,2021-07-29_22h19.00.632,Simcolourproject_2stim_asymm_v5,2020.2.10,MacIntel,60,61025ae37ef11b136ea224fe,,,,,,,,,33,57.7052002,37.54730225,1,0,0,response1disk,,6,16.06872559,6.31842041,1,0,0,rectangle,16.06872559,6.31842041,1,0,0,16.06872559,6.31842041,1,0,0,0,139,139,21,1,,,,,,,,
,,,,,,,,,,,,,FF,,,,,,,,1.434,,,,,,,,,,,,,,,,,,,,,,6100aef9d0f776c296aa08b5,61036f673946c5585509af31,2021-07-29_22h19.00.632,Simcolourproject_2stim_asymm_v5,2020.2.10,MacIntel,60,61025ae37ef11b136ea224fe,,,,,,,,,394,29.00231934,-72.55053711,1,0,0,response3disk,,4,23.70001221,2.970153809,1,0,0,rectangle,23.70001221,2.970153809,1,0,0,23.70001221,2.970153809,1,0,0,0,140,140,34,1,,,,,,,,
,,,,,,,,,,,,,FF,,,,,,,,0.8498,,,,,,,,,,,,,,,,,,,,,,6100aef9d0f776c296aa08b5,61036f673946c5585509af31,2021-07-29_22h19.00.632,Simcolourproject_2stim_asymm_v5,2020.2.10,MacIntel,60,61025ae37ef11b136ea224fe,,,,,,,,,2766,55.04907227,67.59942627,1,0,0,response1disk,,7,1.717163086,-11.74868774,1,0,0,rectangle,1.717163086,-11.74868774,1,0,0,1.717163086,-11.74868774,1,0,0,0,141,141,76,1,,,,,,,,
,,,,,,,,,,,,,FF,,,,,,,,1.5172,,,,,,,,,,,,,,,,,,,,,,6100aef9d0f776c296aa08b5,61036f673946c5585509af31,2021-07-29_22h19.00.632,Simcolourproject_2stim_asymm_v5,2020.2.10,MacIntel,60,61025ae37ef11b136ea224fe,,,,,,,,,3340,-40.87939453,-78.69641113,1,0,0,response5disk,,3,0.850891113,-9.388183594,1,0,0,rectangle,0.850891113,-9.388183594,1,0,0,0.850891113,-9.388183594,1,0,0,0,142,142,85,1,,,,,,,,
,,,,,,,,,,,,,FF,,,,,,,,1.017,,,,,,,,,,,,,,,,,,,,,,6100aef9d0f776c296aa08b5,61036f673946c5585509af31,2021-07-29_22h19.00.632,Simcolourproject_2stim_asymm_v5,2020.2.10,MacIntel,60,61025ae37ef11b136ea224fe,,,,,,,,,1052,-76.22998047,-37.58227539,1,0,0,response5disk,,2,-18.65753174,11.70401001,1,0,0,rectangle,-18.65753174,11.70401001,1,0,0,-18.65753174,11.70401001,1,0,0,0,143,143,98,1,,,,,,,,
,,,,,,,,,,,,,FF,,,,,,,,2.5672,,,,,,,,,,,,,,,,,,,,,,6100aef9d0f776c296aa08b5,61036f673946c5585509af31,2021-07-29_22h19.00.632,Simcolourproject_2stim_asymm_v5,2020.2.10,MacIntel,60,61025ae37ef11b136ea224fe,,,,,,,,,1377,-67.22961426,-31.26644897,1,0,0,response5disk,,2,-20.23913574,2.142150879,1,0,0,rectangle,-20.23913574,2.142150879,1,0,0,-20.23913574,2.142150879,1,0,0,0,144,144,41,1,,,,,,,,
,,,,,,,,,,,,,FF,,,,,,,,1.1009,,,,,,,,,,,,,,,,,,,,,,6100aef9d0f776c296aa08b5,61036f673946c5585509af31,2021-07-29_22h19.00.632,Simcolourproject_2stim_asymm_v5,2020.2.10,MacIntel,60,61025ae37ef11b136ea224fe,,,,,,,,,409,78.98223877,-18.58688354,1,0,0,response3disk,,5,26.73413086,-0.334106445,1,0,0,rectangle,26.73413086,-0.334106445,1,0,0,26.73413086,-0.334106445,1,0,0,0,145,145,53,1,,,,,,,,
,,,,,,,,,,,,,FF,,,,,,,,2.117,,,,,,,,,,,,,,,,,,,,,,6100aef9d0f776c296aa08b5,61036f673946c5585509af31,2021-07-29_22h19.00.632,Simcolourproject_2stim_asymm_v5,2020.2.10,MacIntel,60,61025ae37ef11b136ea224fe,,,,,,,,,3868,-89.08251953,26.39178467,1,0,0,response7disk,,1,-6.387451172,-7.628723145,1,0,0,rectangle,-6.387451172,-7.628723145,1,0,0,-6.387451172,-7.628723145,1,0,0,0,146,146,112,1,,,,,,,,
,,,,,,,,,,,,,FF,,,,,,,,1.6836,,,,,,,,,,,,,,,,,,,,,,6100aef9d0f776c296aa08b5,61036f673946c5585509af31,2021-07-29_22h19.00.632,Simcolourproject_2stim_asymm_v5,2020.2.10,MacIntel,60,61025ae37ef11b136ea224fe,,,,,,,,,1676,-85.22991943,65.28887939,1,0,0,response7disk,,1,-25.09466553,-9.969421387,1,0,0,rectangle,-25.09466553,-9.969421387,1,0,0,-25.09466553,-9.969421387,1,0,0,0,147,147,151,1,,,,,,,,
,,,,,,,,,,,,,FF,,,,,,,,2.3173,,,,,,,,,,,,,,,,,,,,,,6100aef9d0f776c296aa08b5,61036f673946c5585509af31,2021-07-29_22h19.00.632,Simcolourproject_2stim_asymm_v5,2020.2.10,MacIntel,60,61025ae37ef11b136ea224fe,,,,,,,,,3657,45.22375488,-75.75616455,1,0,0,response3disk,,4,15.27813721,0.223327637,1,0,0,rectangle,-37.95410156,84.14550781,1,0,0,-6.826171875,1.044158936,1,0,0,0,148,148,63,1,,response7disk_3,TRUE,0,1,"[8,307,75,7,62,46,108,149,67,110,133,186,64,165,296,86,95,42,20,207]",1.4662,rectangle
,,,,,,,,,,,,,FF,,,,,,,,1.0505,,,,,,,,,,,,,,,,,,,,,,6100aef9d0f776c296aa08b5,61036f673946c5585509af31,2021-07-29_22h19.00.632,Simcolourproject_2stim_asymm_v5,2020.2.10,MacIntel,60,61025ae37ef11b136ea224fe,,,,,,,,,3437,-44.28338623,-68.8727417,1,0,0,response5disk,,3,-19.0736084,-3.130462646,1,0,0,rectangle,-19.0736084,-3.130462646,1,0,0,-19.0736084,-3.130462646,1,0,0,0,149,149,29,1,,,,,,,,
,,,,,,,,,,,,,FF,,,,,,,,0.916,,,,,,,,,,,,,,,,,,,,,,6100aef9d0f776c296aa08b5,61036f673946c5585509af31,2021-07-29_22h19.00.632,Simcolourproject_2stim_asymm_v5,2020.2.10,MacIntel,60,61025ae37ef11b136ea224fe,,,,,,,,,1634,95.50750732,61.70498657,1,0,0,response1disk,,6,-2.47052002,-6.715087891,1,0,0,rectangle,-2.47052002,-6.715087891,1,0,0,-2.47052002,-6.715087891,1,0,0,0,150,150,83,1,,,,,,,,
,,,,,,,,,,,,,FF,,,,,,,,1.0843,,,,,,,,,,,,,,,,,,,,,,6100aef9d0f776c296aa08b5,61036f673946c5585509af31,2021-07-29_22h19.00.632,Simcolourproject_2stim_asymm_v5,2020.2.10,MacIntel,60,61025ae37ef11b136ea224fe,,,,,,,,,3113,-44.38574219,-75.49822998,1,0,0,response5disk,,3,-10.265625,11.88272095,1,0,0,rectangle,-10.265625,11.88272095,1,0,0,-10.265625,11.88272095,1,0,0,0,151,151,104,1,,,,,,,,
,,,,,,,,,,,,,FF,,,,,,,,0.8851,,,,,,,,,,,,,,,,,,,,,,6100aef9d0f776c296aa08b5,61036f673946c5585509af31,2021-07-29_22h19.00.632,Simcolourproject_2stim_asymm_v5,2020.2.10,MacIntel,60,61025ae37ef11b136ea224fe,,,,,,,,,2641,97.43652344,-23.0333252,1,0,0,response3disk,,5,-20.62042236,7.523254395,1,0,0,rectangle,-20.62042236,7.523254395,1,0,0,-20.62042236,7.523254395,1,0,0,0,152,152,23,1,,,,,,,,
,,,,,,,,,,,,,FF,,,,,,,,4.0846,,,,,,,,,,,,,,,,,,,,,,6100aef9d0f776c296aa08b5,61036f673946c5585509af31,2021-07-29_22h19.00.632,Simcolourproject_2stim_asymm_v5,2020.2.10,MacIntel,60,61025ae37ef11b136ea224fe,,,,,,,,,314,92.14648438,-41.23443604,1,0,0,response3disk,,5,-1.345153809,-2.748382568,1,0,0,rectangle,-1.345153809,-2.748382568,1,0,0,-1.345153809,-2.748382568,1,0,0,0,153,153,116,1,,,,,,,,
,,,,,,,,,,,,,FF,,,,,,,,1.9834,,,,,,,,,,,,,,,,,,,,,,6100aef9d0f776c296aa08b5,61036f673946c5585509af31,2021-07-29_22h19.00.632,Simcolourproject_2stim_asymm_v5,2020.2.10,MacIntel,60,61025ae37ef11b136ea224fe,,,,,,,,,1259,33.35827637,-83.55426025,1,0,0,response3disk,,4,16.61804199,-3.142913818,1,0,0,rectangle,16.61804199,-3.142913818,1,0,0,16.61804199,-3.142913818,1,0,0,0,154,154,94,1,,,,,,,,
,,,,,,,,,,,,,FF,,,,,,,,1.1835,,,,,,,,,,,,,,,,,,,,,,6100aef9d0f776c296aa08b5,61036f673946c5585509af31,2021-07-29_22h19.00.632,Simcolourproject_2stim_asymm_v5,2020.2.10,MacIntel,60,61025ae37ef11b136ea224fe,,,,,,,,,4299,-41.60644531,-89.60772705,1,0,0,response5disk,,3,4.344543457,9.498321533,1,0,0,rectangle,4.344543457,9.498321533,1,0,0,4.344543457,9.498321533,1,0,0,0,155,155,137,1,,,,,,,,
,,,,,,,,,,,,,FF,,,,,,,,0.9001,,,,,,,,,,,,,,,,,,,,,,6100aef9d0f776c296aa08b5,61036f673946c5585509af31,2021-07-29_22h19.00.632,Simcolourproject_2stim_asymm_v5,2020.2.10,MacIntel,60,61025ae37ef11b136ea224fe,,,,,,,,,3155,-73.68060303,-34.01705933,1,0,0,response5disk,,2,-24.13812256,-4.957336426,1,0,0,rectangle,-24.13812256,-4.957336426,1,0,0,-24.13812256,-4.957336426,1,0,0,0,156,156,149,1,,,,,,,,
,,,,,,,,,,,,,FF,,,,,,,,2.2332,,,,,,,,,,,,,,,,,,,,,,6100aef9d0f776c296aa08b5,61036f673946c5585509af31,2021-07-29_22h19.00.632,Simcolourproject_2stim_asymm_v5,2020.2.10,MacIntel,60,61025ae37ef11b136ea224fe,,,,,,,,,711,30.08068848,-74.93835449,1,0,0,response3disk,,4,19.96990967,-11.93493652,1,0,0,rectangle,19.96990967,-11.93493652,1,0,0,19.96990967,-11.93493652,1,0,0,0,157,157,97,1,,,,,,,,
,,,,,,,,,,,,,FF,,,,,,,,0.9168,,,,,,,,,,,,,,,,,,,,,,6100aef9d0f776c296aa08b5,61036f673946c5585509af31,2021-07-29_22h19.00.632,Simcolourproject_2stim_asymm_v5,2020.2.10,MacIntel,60,61025ae37ef11b136ea224fe,,,,,,,,,2025,-34.21905518,64.33099365,1,0,0,response7disk,,0,0.226196289,-11.07391357,1,0,0,rectangle,0.226196289,-11.07391357,1,0,0,0.226196289,-11.07391357,1,0,0,0,158,158,148,1,,,,,,,,
,,,,,,,,,,,,,FF,,,,,,,,2.7164,,,,,,,,,,,,,,,,,,,,,,6100aef9d0f776c296aa08b5,61036f673946c5585509af31,2021-07-29_22h19.00.632,Simcolourproject_2stim_asymm_v5,2020.2.10,MacIntel,60,61025ae37ef11b136ea224fe,,,,,,,,,3229,44.63696289,-77.51190186,1,0,0,response3disk,,4,13.85528564,-11.12139893,1,0,0,rectangle,13.85528564,-11.12139893,1,0,0,13.85528564,-11.12139893,1,0,0,0,159,159,91,1,,,,,,,,
,,,,,,,,,,,,,FF,,,,,,,,4.4671,,,,,,,,,,,,,,,,,,,,,,6100aef9d0f776c296aa08b5,61036f673946c5585509af31,2021-07-29_22h19.00.632,Simcolourproject_2stim_asymm_v5,2020.2.10,MacIntel,60,61025ae37ef11b136ea224fe,,,,,,,,,1466,108.206665,67.12692261,1,0,0,response1disk,,6,4.860107422,7.793060303,1,0,0,rectangle,4.860107422,7.793060303,1,0,0,4.860107422,7.793060303,1,0,0,1,0,160,76,1,,,,,,,,
,,,,,,,,,,,,,FF,,,,,,,,0.9663,,,,,,,,,,,,,,,,,,,,,,6100aef9d0f776c296aa08b5,61036f673946c5585509af31,2021-07-29_22h19.00.632,Simcolourproject_2stim_asymm_v5,2020.2.10,MacIntel,60,61025ae37ef11b136ea224fe,,,,,,,,,3669,-88.65228271,39.67669678,1,0,0,response7disk,,1,-20.17565918,3.867126465,1,0,0,rectangle,-20.17565918,3.867126465,1,0,0,-20.17565918,3.867126465,1,0,0,1,1,161,17,1,,,,,,,,
,,,,,,,,,,,,,FF,,,,,,,,4.7661,,,,,,,,,,,,,,,,,,,,,,6100aef9d0f776c296aa08b5,61036f673946c5585509af31,2021-07-29_22h19.00.632,Simcolourproject_2stim_asymm_v5,2020.2.10,MacIntel,60,61025ae37ef11b136ea224fe,,,,,,,,,999,101.1342773,-23.41299438,1,0,0,response3disk,,5,-10.23596191,15.44894409,1,0,0,rectangle,-10.23596191,15.44894409,1,0,0,-10.23596191,15.44894409,1,0,0,1,2,162,30,1,,,,,,,,
,,,,,,,,,,,,,FF,,,,,,,,0.8846,,,,,,,,,,,,,,,,,,,,,,6100aef9d0f776c296aa08b5,61036f673946c5585509af31,2021-07-29_22h19.00.632,Simcolourproject_2stim_asymm_v5,2020.2.10,MacIntel,60,61025ae37ef11b136ea224fe,,,,,,,,,4164,-74.8258667,-34.78363037,1,0,0,response5disk,,2,-16.31799316,-5.963195801,1,0,0,rectangle,-16.31799316,-5.963195801,1,0,0,-16.31799316,-5.963195801,1,0,0,1,3,163,145,1,,,,,,,,
,,,,,,,,,,,,,FF,,,,,,,,1.6341,,,,,,,,,,,,,,,,,,,,,,6100aef9d0f776c296aa08b5,61036f673946c5585509af31,2021-07-29_22h19.00.632,Simcolourproject_2stim_asymm_v5,2020.2.10,MacIntel,60,61025ae37ef11b136ea224fe,,,,,,,,,4051,51.57489014,-69.94720459,1,0,0,response3disk,,4,26.80230713,-8.488677979,1,0,0,rectangle,-67.1463623,35.75115967,1,0,0,-12.86877441,3.708953857,1,0,0,1,4,164,105,1,,response7disk_3,TRUE,1,2,"[8,307,75,7,62,46,108,149,67,110,133,186,64,165,296,86,95,42,20,207]",1.5992,rectangle
,,,,,,,,,,,,,FF,,,,,,,,1.0508,,,,,,,,,,,,,,,,,,,,,,6100aef9d0f776c296aa08b5,61036f673946c5585509af31,2021-07-29_22h19.00.632,Simcolourproject_2stim_asymm_v5,2020.2.10,MacIntel,60,61025ae37ef11b136ea224fe,,,,,,,,,3608,-16.41314697,-86.31066895,1,0,0,response5disk,,3,-8.395324707,17.67453003,1,0,0,rectangle,-8.395324707,17.67453003,1,0,0,-8.395324707,17.67453003,1,0,0,1,5,165,9,1,,,,,,,,
,,,,,,,,,,,,,FF,,,,,,,,2.033,,,,,,,,,,,,,,,,,,,,,,6100aef9d0f776c296aa08b5,61036f673946c5585509af31,2021-07-29_22h19.00.632,Simcolourproject_2stim_asymm_v5,2020.2.10,MacIntel,60,61025ae37ef11b136ea224fe,,,,,,,,,400,-34.7623291,-89.39727783,1,0,0,response5disk,,3,-4.537414551,-12.8114624,1,0,0,rectangle,-4.537414551,-12.8114624,1,0,0,-4.537414551,-12.8114624,1,0,0,1,6,166,81,1,,,,,,,,
,,,,,,,,,,,,,FF,,,,,,,,1.2156,,,,,,,,,,,,,,,,,,,,,,6100aef9d0f776c296aa08b5,61036f673946c5585509af31,2021-07-29_22h19.00.632,Simcolourproject_2stim_asymm_v5,2020.2.10,MacIntel,60,61025ae37ef11b136ea224fe,,,,,,,,,2809,72.27923584,-28.86871338,1,0,0,response3disk,,5,10.68469238,-8.399414063,1,0,0,rectangle,10.68469238,-8.399414063,1,0,0,10.68469238,-8.399414063,1,0,0,1,7,167,73,1,,,,,,,,
,,,,,,,,,,,,,FF,,,,,,,,2.5173,,,,,,,,,,,,,,,,,,,,,,6100aef9d0f776c296aa08b5,61036f673946c5585509af31,2021-07-29_22h19.00.632,Simcolourproject_2stim_asymm_v5,2020.2.10,MacIntel,60,61025ae37ef11b136ea224fe,,,,,,,,,2115,-36.58392334,-83.58776855,1,0,0,response5disk,,3,-8.840820313,-13.45028687,1,0,0,rectangle,-8.840820313,-13.45028687,1,0,0,-8.840820313,-13.45028687,1,0,0,1,8,168,100,1,,,,,,,,
,,,,,,,,,,,,,FF,,,,,,,,2.0677,,,,,,,,,,,,,,,,,,,,,,6100aef9d0f776c296aa08b5,61036f673946c5585509af31,2021-07-29_22h19.00.632,Simcolourproject_2stim_asymm_v5,2020.2.10,MacIntel,60,61025ae37ef11b136ea224fe,,,,,,,,,3131,112.145813,27.72714233,1,0,0,response1disk,,6,25.04193115,-1.790893555,1,0,0,rectangle,25.04193115,-1.790893555,1,0,0,25.04193115,-1.790893555,1,0,0,1,9,169,152,1,,,,,,,,
,,,,,,,,,,,,,FF,,,,,,,,1.0165,,,,,,,,,,,,,,,,,,,,,,6100aef9d0f776c296aa08b5,61036f673946c5585509af31,2021-07-29_22h19.00.632,Simcolourproject_2stim_asymm_v5,2020.2.10,MacIntel,60,61025ae37ef11b136ea224fe,,,,,,,,,2761,39.71405029,-80.94464111,1,0,0,response3disk,,4,24.39862061,-7.433837891,1,0,0,rectangle,24.39862061,-7.433837891,1,0,0,24.39862061,-7.433837891,1,0,0,1,10,170,88,1,,,,,,,,
,,,,,,,,,,,,,FF,,,,,,,,0.8998,,,,,,,,,,,,,,,,,,,,,,6100aef9d0f776c296aa08b5,61036f673946c5585509af31,2021-07-29_22h19.00.632,Simcolourproject_2stim_asymm_v5,2020.2.10,MacIntel,60,61025ae37ef11b136ea224fe,,,,,,,,,2625,35.08935547,84.27587891,1,0,0,response1disk,,7,23.99108887,1.10357666,1,0,0,rectangle,23.99108887,1.10357666,1,0,0,23.99108887,1.10357666,1,0,0,1,11,171,1,1,,,,,,,,
,,,,,,,,,,,,,FF,,,,,,,,0.7171,,,,,,,,,,,,,,,,,,,,,,6100aef9d0f776c296aa08b5,61036f673946c5585509af31,2021-07-29_22h19.00.632,Simcolourproject_2stim_asymm_v5,2020.2.10,MacIntel,60,61025ae37ef11b136ea224fe,,,,,,,,,2775,-42.13519287,78.02639771,1,0,0,response7disk,,0,-2.224304199,2.433624268,1,0,0,rectangle,-2.224304199,2.433624268,1,0,0,-2.224304199,2.433624268,1,0,0,1,12,172,53,1,,,,,,,,
,,,,,,,,,,,,,FF,,,,,,,,2.0667,,,,,,,,,,,,,,,,,,,,,,6100aef9d0f776c296aa08b5,61036f673946c5585509af31,2021-07-29_22h19.00.632,Simcolourproject_2stim_asymm_v5,2020.2.10,MacIntel,60,61025ae37ef11b136ea224fe,,,,,,,,,3489,58.85339355,-36.78826904,1,0,0,response3disk,,5,19.73809814,-10.55877686,1,0,0,rectangle,19.73809814,-10.55877686,1,0,0,19.73809814,-10.55877686,1,0,0,1,13,173,108,1,,,,,,,,
,,,,,,,,,,,,,FF,,,,,,,,2.866,,,,,,,,,,,,,,,,,,,,,,6100aef9d0f776c296aa08b5,61036f673946c5585509af31,2021-07-29_22h19.00.632,Simcolourproject_2stim_asymm_v5,2020.2.10,MacIntel,60,61025ae37ef11b136ea224fe,,,,,,,,,4154,80.92297363,-64.60510254,1,0,0,response3disk,,5,3.249145508,-2.323730469,1,0,0,rectangle,3.249145508,-2.323730469,1,0,0,3.249145508,-2.323730469,1,0,0,1,14,174,25,1,,,,,,,,
,,,,,,,,,,,,,FF,,,,,,,,1.6999,,,,,,,,,,,,,,,,,,,,,,6100aef9d0f776c296aa08b5,61036f673946c5585509af31,2021-07-29_22h19.00.632,Simcolourproject_2stim_asymm_v5,2020.2.10,MacIntel,60,61025ae37ef11b136ea224fe,,,,,,,,,2081,49.70239258,-81.8447876,1,0,0,response3disk,,4,15.0737915,-9.076293945,1,0,0,rectangle,15.0737915,-9.076293945,1,0,0,15.0737915,-9.076293945,1,0,0,1,15,175,150,1,,,,,,,,
,,,,,,,,,,,,,FF,,,,,,,,2.3001,,,,,,,,,,,,,,,,,,,,,,6100aef9d0f776c296aa08b5,61036f673946c5585509af31,2021-07-29_22h19.00.632,Simcolourproject_2stim_asymm_v5,2020.2.10,MacIntel,60,61025ae37ef11b136ea224fe,,,,,,,,,2015,92.71569824,-27.71121216,1,0,0,response3disk,,5,32.20550537,-3.205352783,1,0,0,rectangle,32.20550537,-3.205352783,1,0,0,32.20550537,-3.205352783,1,0,0,1,16,176,120,1,,,,,,,,
,,,,,,,,,,,,,FF,,,,,,,,0.8658,,,,,,,,,,,,,,,,,,,,,,6100aef9d0f776c296aa08b5,61036f673946c5585509af31,2021-07-29_22h19.00.632,Simcolourproject_2stim_asymm_v5,2020.2.10,MacIntel,60,61025ae37ef11b136ea224fe,,,,,,,,,3264,-50.98547363,-64.68548584,1,0,0,response5disk,,3,-13.52990723,-10.56481934,1,0,0,rectangle,-13.52990723,-10.56481934,1,0,0,-13.52990723,-10.56481934,1,0,0,1,17,177,89,1,,,,,,,,
,,,,,,,,,,,,,FF,,,,,,,,1.4995,,,,,,,,,,,,,,,,,,,,,,6100aef9d0f776c296aa08b5,61036f673946c5585509af31,2021-07-29_22h19.00.632,Simcolourproject_2stim_asymm_v5,2020.2.10,MacIntel,60,61025ae37ef11b136ea224fe,,,,,,,,,3218,35.94848633,-87.2244873,1,0,0,response3disk,,4,7.392272949,-10.03970337,1,0,0,rectangle,7.392272949,-10.03970337,1,0,0,7.392272949,-10.03970337,1,0,0,1,18,178,158,1,,,,,,,,
,,,,,,,,,,,,,FF,,,,,,,,2.3325,,,,,,,,,,,,,,,,,,,,,,6100aef9d0f776c296aa08b5,61036f673946c5585509af31,2021-07-29_22h19.00.632,Simcolourproject_2stim_asymm_v5,2020.2.10,MacIntel,60,61025ae37ef11b136ea224fe,,,,,,,,,582,37.74432373,-88.71722412,1,0,0,response3disk,,4,28.3883667,11.86935425,1,0,0,rectangle,28.3883667,11.86935425,1,0,0,28.3883667,11.86935425,1,0,0,1,19,179,82,1,,,,,,,,
,,,,,,,,,,,,,FF,,,,,,,,2.6507,,,,,,,,,,,,,,,,,,,,,,6100aef9d0f776c296aa08b5,61036f673946c5585509af31,2021-07-29_22h19.00.632,Simcolourproject_2stim_asymm_v5,2020.2.10,MacIntel,60,61025ae37ef11b136ea224fe,,,,,,,,,1425,84.35021973,-38.80453491,1,0,0,response3disk,,5,26.66503906,-2.982421875,1,0,0,rectangle,26.66503906,-2.982421875,1,0,0,26.66503906,-2.982421875,1,0,0,1,20,180,72,1,,,,,,,,
,,,,,,,,,,,,,FF,,,,,,,,3.85,,,,,,,,,,,,,,,,,,,,,,6100aef9d0f776c296aa08b5,61036f673946c5585509af31,2021-07-29_22h19.00.632,Simcolourproject_2stim_asymm_v5,2020.2.10,MacIntel,60,61025ae37ef11b136ea224fe,,,,,,,,,4063,86.61749268,33.53497314,1,0,0,response1disk,,6,23.75054932,-5.463562012,1,0,0,rectangle,23.75054932,-5.463562012,1,0,0,23.75054932,-5.463562012,1,0,0,1,21,181,151,1,,,,,,,,
,,,,,,,,,,,,,FF,,,,,,,,0.9334,,,,,,,,,,,,,,,,,,,,,,6100aef9d0f776c296aa08b5,61036f673946c5585509af31,2021-07-29_22h19.00.632,Simcolourproject_2stim_asymm_v5,2020.2.10,MacIntel,60,61025ae37ef11b136ea224fe,,,,,,,,,2024,26.41424561,75.7097168,1,0,0,response1disk,,7,24.01739502,4.383605957,1,0,0,rectangle,24.01739502,4.383605957,1,0,0,24.01739502,4.383605957,1,0,0,1,22,182,129,1,,,,,,,,
,,,,,,,,,,,,,FF,,,,,,,,3.0651,,,,,,,,,,,,,,,,,,,,,,6100aef9d0f776c296aa08b5,61036f673946c5585509af31,2021-07-29_22h19.00.632,Simcolourproject_2stim_asymm_v5,2020.2.10,MacIntel,60,61025ae37ef11b136ea224fe,,,,,,,,,3686,41.20648193,-64.61895752,1,0,0,response3disk,,4,5.655578613,8.054870605,1,0,0,rectangle,5.655578613,8.054870605,1,0,0,5.655578613,8.054870605,1,0,0,1,23,183,7,1,,,,,,,,
,,,,,,,,,,,,,FF,,,,,,,,4.2998,,,,,,,,,,,,,,,,,,,,,,6100aef9d0f776c296aa08b5,61036f673946c5585509af31,2021-07-29_22h19.00.632,Simcolourproject_2stim_asymm_v5,2020.2.10,MacIntel,60,61025ae37ef11b136ea224fe,,,,,,,,,3866,124.5706177,57.22702026,1,0,0,response1disk,,6,35.27215576,7.489715576,1,0,0,rectangle,35.27215576,7.489715576,1,0,0,35.27215576,7.489715576,1,0,0,1,24,184,97,1,,,,,,,,
,,,,,,,,,,,,,FF,,,,,,,,2.7995,,,,,,,,,,,,,,,,,,,,,,6100aef9d0f776c296aa08b5,61036f673946c5585509af31,2021-07-29_22h19.00.632,Simcolourproject_2stim_asymm_v5,2020.2.10,MacIntel,60,61025ae37ef11b136ea224fe,,,,,,,,,74,44.38916016,-69.82659912,1,0,0,response3disk,,4,22.5135498,-8.414428711,1,0,0,rectangle,-31.69494629,79.20269775,1,0,0,1.56262207,-12.79876709,1,0,0,1,25,185,110,1,,response7disk_3,TRUE,0,2,"[8,307,75,7,62,46,108,149,67,110,133,186,64,165,296,86,95,42,20,207]",1.8489,rectangle
,,,,,,,,,,,,,FF,,,,,,,,1.2838,,,,,,,,,,,,,,,,,,,,,,6100aef9d0f776c296aa08b5,61036f673946c5585509af31,2021-07-29_22h19.00.632,Simcolourproject_2stim_asymm_v5,2020.2.10,MacIntel,60,61025ae37ef11b136ea224fe,,,,,,,,,1868,-17.65753174,-64.20446777,1,0,0,response5disk,,3,-9.375549316,3.924743652,1,0,0,rectangle,-9.375549316,3.924743652,1,0,0,-9.375549316,3.924743652,1,0,0,1,26,186,26,1,,,,,,,,
,,,,,,,,,,,,,FF,,,,,,,,1.1168,,,,,,,,,,,,,,,,,,,,,,6100aef9d0f776c296aa08b5,61036f673946c5585509af31,2021-07-29_22h19.00.632,Simcolourproject_2stim_asymm_v5,2020.2.10,MacIntel,60,61025ae37ef11b136ea224fe,,,,,,,,,3164,-78.84960938,-29.83404541,1,0,0,response5disk,,2,-20.28582764,-5.717803955,1,0,0,rectangle,-20.28582764,-5.717803955,1,0,0,-20.28582764,-5.717803955,1,0,0,1,27,187,33,1,,,,,,,,
,,,,,,,,,,,,,FF,,,,,,,,0.9168,,,,,,,,,,,,,,,,,,,,,,6100aef9d0f776c296aa08b5,61036f673946c5585509af31,2021-07-29_22h19.00.632,Simcolourproject_2stim_asymm_v5,2020.2.10,MacIntel,60,61025ae37ef11b136ea224fe,,,,,,,,,4083,-21.00305176,-61.62509155,1,0,0,response5disk,,3,-8.135559082,-1.310791016,1,0,0,rectangle,-8.135559082,-1.310791016,1,0,0,-8.135559082,-1.310791016,1,0,0,1,28,188,78,1,,,,,,,,
,,,,,,,,,,,,,FF,,,,,,,,1.6168,,,,,,,,,,,,,,,,,,,,,,6100aef9d0f776c296aa08b5,61036f673946c5585509af31,2021-07-29_22h19.00.632,Simcolourproject_2stim_asymm_v5,2020.2.10,MacIntel,60,61025ae37ef11b136ea224fe,,,,,,,,,477,-21.49499512,-54.49517822,1,0,0,response5disk,,3,-7.064086914,-4.256408691,1,0,0,rectangle,-7.064086914,-4.256408691,1,0,0,-7.064086914,-4.256408691,1,0,0,1,29,189,95,1,,,,,,,,
,,,,,,,,,,,,,FF,,,,,,,,0.8831,,,,,,,,,,,,,,,,,,,,,,6100aef9d0f776c296aa08b5,61036f673946c5585509af31,2021-07-29_22h19.00.632,Simcolourproject_2stim_asymm_v5,2020.2.10,MacIntel,60,61025ae37ef11b136ea224fe,,,,,,,,,4252,-91.92700195,-42.79602051,1,0,0,response5disk,,2,-25.37548828,-8.805053711,1,0,0,rectangle,-25.37548828,-8.805053711,1,0,0,-25.37548828,-8.805053711,1,0,0,1,30,190,157,1,,,,,,,,
,,,,,,,,,,,,,FF,,,,,,,,1.1335,,,,,,,,,,,,,,,,,,,,,,6100aef9d0f776c296aa08b5,61036f673946c5585509af31,2021-07-29_22h19.00.632,Simcolourproject_2stim_asymm_v5,2020.2.10,MacIntel,60,61025ae37ef11b136ea224fe,,,,,,,,,2,-84.52368164,38.42980957,1,0,0,response7disk,,1,-27.06060791,1.282714844,1,0,0,rectangle,-27.06060791,1.282714844,1,0,0,-27.06060791,1.282714844,1,0,0,1,31,191,135,1,,,,,,,,
,,,,,,,,,,,,,FF,,,,,,,,1.9997,,,,,,,,,,,,,,,,,,,,,,6100aef9d0f776c296aa08b5,61036f673946c5585509af31,2021-07-29_22h19.00.632,Simcolourproject_2stim_asymm_v5,2020.2.10,MacIntel,60,61025ae37ef11b136ea224fe,,,,,,,,,2095,-29.04217529,-72.7144165,1,0,0,response5disk,,3,6.564819336,10.2668457,1,0,0,rectangle,6.564819336,10.2668457,1,0,0,6.564819336,10.2668457,1,0,0,1,32,192,11,1,,,,,,,,
,,,,,,,,,,,,,FF,,,,,,,,0.9664,,,,,,,,,,,,,,,,,,,,,,6100aef9d0f776c296aa08b5,61036f673946c5585509af31,2021-07-29_22h19.00.632,Simcolourproject_2stim_asymm_v5,2020.2.10,MacIntel,60,61025ae37ef11b136ea224fe,,,,,,,,,949,35.51525879,-57.26104736,1,0,0,response3disk,,4,27.7880249,-4.811737061,1,0,0,rectangle,27.7880249,-4.811737061,1,0,0,27.7880249,-4.811737061,1,0,0,1,33,193,46,1,,,,,,,,
,,,,,,,,,,,,,FF,,,,,,,,1.4001,,,,,,,,,,,,,,,,,,,,,,6100aef9d0f776c296aa08b5,61036f673946c5585509af31,2021-07-29_22h19.00.632,Simcolourproject_2stim_asymm_v5,2020.2.10,MacIntel,60,61025ae37ef11b136ea224fe,,,,,,,,,2873,44.35064697,-60.74658203,1,0,0,response3disk,,4,22.98712158,-12.30490112,1,0,0,rectangle,22.98712158,-12.30490112,1,0,0,22.98712158,-12.30490112,1,0,0,1,34,194,10,1,,,,,,,,
,,,,,,,,,,,,,FF,,,,,,,,1.6003,,,,,,,,,,,,,,,,,,,,,,6100aef9d0f776c296aa08b5,61036f673946c5585509af31,2021-07-29_22h19.00.632,Simcolourproject_2stim_asymm_v5,2020.2.10,MacIntel,60,61025ae37ef11b136ea224fe,,,,,,,,,25,30.5581665,-63.22460938,1,0,0,response3disk,,4,14.84765625,-5.499816895,1,0,0,rectangle,14.84765625,-5.499816895,1,0,0,14.84765625,-5.499816895,1,0,0,1,35,195,83,1,,,,,,,,
,,,,,,,,,,,,,FF,,,,,,,,0.9684,,,,,,,,,,,,,,,,,,,,,,6100aef9d0f776c296aa08b5,61036f673946c5585509af31,2021-07-29_22h19.00.632,Simcolourproject_2stim_asymm_v5,2020.2.10,MacIntel,60,61025ae37ef11b136ea224fe,,,,,,,,,1303,-27.7097168,-90.18518066,1,0,0,response5disk,,3,-8.245483398,-0.562713623,1,0,0,rectangle,-8.245483398,-0.562713623,1,0,0,-8.245483398,-0.562713623,1,0,0,1,36,196,55,1,,,,,,,,
,,,,,,,,,,,,,FF,,,,,,,,1.1996,,,,,,,,,,,,,,,,,,,,,,6100aef9d0f776c296aa08b5,61036f673946c5585509af31,2021-07-29_22h19.00.632,Simcolourproject_2stim_asymm_v5,2020.2.10,MacIntel,60,61025ae37ef11b136ea224fe,,,,,,,,,4283,-24.37194824,-43.21652222,1,0,0,response5disk,,3,-11.26800537,3.746734619,1,0,0,rectangle,-11.26800537,3.746734619,1,0,0,-11.26800537,3.746734619,1,0,0,1,37,197,37,1,,,,,,,,
,,,,,,,,,,,,,FF,,,,,,,,3.8834,,,,,,,,,,,,,,,,,,,,,,6100aef9d0f776c296aa08b5,61036f673946c5585509af31,2021-07-29_22h19.00.632,Simcolourproject_2stim_asymm_v5,2020.2.10,MacIntel,60,61025ae37ef11b136ea224fe,,,,,,,,,128,-38.57556152,-49.35507202,1,0,0,response5disk,,3,-22.62084961,2.033721924,1,0,0,rectangle,-22.62084961,2.033721924,1,0,0,-22.62084961,2.033721924,1,0,0,1,38,198,116,1,,,,,,,,
,,,,,,,,,,,,,FF,,,,,,,,1.0991,,,,,,,,,,,,,,,,,,,,,,6100aef9d0f776c296aa08b5,61036f673946c5585509af31,2021-07-29_22h19.00.632,Simcolourproject_2stim_asymm_v5,2020.2.10,MacIntel,60,61025ae37ef11b136ea224fe,,,,,,,,,1031,51.83105469,-72.65869141,1,0,0,response3disk,,4,5.953735352,-6.590942383,1,0,0,rectangle,5.953735352,-6.590942383,1,0,0,5.953735352,-6.590942383,1,0,0,1,39,199,109,1,,,,,,,,
,,,,,,,,,,,,,FF,,,,,,,,1.7169,,,,,,,,,,,,,,,,,,,,,,6100aef9d0f776c296aa08b5,61036f673946c5585509af31,2021-07-29_22h19.00.632,Simcolourproject_2stim_asymm_v5,2020.2.10,MacIntel,60,61025ae37ef11b136ea224fe,,,,,,,,,1353,33.47912598,-49.71444702,1,0,0,response3disk,,4,24.77233887,-1.945861816,1,0,0,rectangle,24.77233887,-1.945861816,1,0,0,24.77233887,-1.945861816,1,0,0,1,40,200,43,1,,,,,,,,
,,,,,,,,,,,,,FF,,,,,,,,2.0501,,,,,,,,,,,,,,,,,,,,,,6100aef9d0f776c296aa08b5,61036f673946c5585509af31,2021-07-29_22h19.00.632,Simcolourproject_2stim_asymm_v5,2020.2.10,MacIntel,60,61025ae37ef11b136ea224fe,,,,,,,,,994,45.09912109,-41.05361938,1,0,0,response3disk,,5,8.982849121,-3.252319336,1,0,0,rectangle,8.982849121,-3.252319336,1,0,0,8.982849121,-3.252319336,1,0,0,1,41,201,20,1,,,,,,,,
,,,,,,,,,,,,,FF,,,,,,,,1.5837,,,,,,,,,,,,,,,,,,,,,,6100aef9d0f776c296aa08b5,61036f673946c5585509af31,2021-07-29_22h19.00.632,Simcolourproject_2stim_asymm_v5,2020.2.10,MacIntel,60,61025ae37ef11b136ea224fe,,,,,,,,,3647,101.6234131,25.93191528,1,0,0,response1disk,,6,12.1932373,-6.601287842,1,0,0,rectangle,12.1932373,-6.601287842,1,0,0,12.1932373,-6.601287842,1,0,0,1,42,202,142,1,,,,,,,,
,,,,,,,,,,,,,FF,,,,,,,,1.3505,,,,,,,,,,,,,,,,,,,,,,6100aef9d0f776c296aa08b5,61036f673946c5585509af31,2021-07-29_22h19.00.632,Simcolourproject_2stim_asymm_v5,2020.2.10,MacIntel,60,61025ae37ef11b136ea224fe,,,,,,,,,741,-36.46624756,-79.68597412,1,0,0,response5disk,,3,-6.024414063,9.188751221,1,0,0,rectangle,-6.024414063,9.188751221,1,0,0,-6.024414063,9.188751221,1,0,0,1,43,203,71,1,,,,,,,,
,,,,,,,,,,,,,FF,,,,,,,,1.9172,,,,,,,,,,,,,,,,,,,,,,6100aef9d0f776c296aa08b5,61036f673946c5585509af31,2021-07-29_22h19.00.632,Simcolourproject_2stim_asymm_v5,2020.2.10,MacIntel,60,61025ae37ef11b136ea224fe,,,,,,,,,4184,100.0261841,-34.09564209,1,0,0,response3disk,,5,23.96954346,-8.485748291,1,0,0,rectangle,23.96954346,-8.485748291,1,0,0,23.96954346,-8.485748291,1,0,0,1,44,204,137,1,,,,,,,,
,,,,,,,,,,,,,FF,,,,,,,,0.8658,,,,,,,,,,,,,,,,,,,,,,6100aef9d0f776c296aa08b5,61036f673946c5585509af31,2021-07-29_22h19.00.632,Simcolourproject_2stim_asymm_v5,2020.2.10,MacIntel,60,61025ae37ef11b136ea224fe,,,,,,,,,4137,42.83789063,68.82971191,1,0,0,response1disk,,7,17.51696777,-4.355285645,1,0,0,rectangle,17.51696777,-4.355285645,1,0,0,17.51696777,-4.355285645,1,0,0,1,45,205,123,1,,,,,,,,
,,,,,,,,,,,,,FF,,,,,,,,5.1333,,,,,,,,,,,,,,,,,,,,,,6100aef9d0f776c296aa08b5,61036f673946c5585509af31,2021-07-29_22h19.00.632,Simcolourproject_2stim_asymm_v5,2020.2.10,MacIntel,60,61025ae37ef11b136ea224fe,,,,,,,,,2888,-84.88720703,-25.06155396,1,0,0,response5disk,,2,-25.34393311,-3.135131836,1,0,0,rectangle,-88.33428955,-51.63214111,1,0,0,7.767333984,9.561889648,1,0,0,1,46,206,159,1,,response5disk_3,TRUE,2,4,"[8,307,75,7,62,46,108,149,67,110,133,186,64,165,296,86,95,42,20,207]",2.2653,rectangle
,,,,,,,,,,,,,FF,,,,,,,,0.7659,,,,,,,,,,,,,,,,,,,,,,6100aef9d0f776c296aa08b5,61036f673946c5585509af31,2021-07-29_22h19.00.632,Simcolourproject_2stim_asymm_v5,2020.2.10,MacIntel,60,61025ae37ef11b136ea224fe,,,,,,,,,3767,53.17114258,125.2635193,1,0,0,response1disk,,7,2.020568848,-0.377166748,1,0,0,rectangle,2.020568848,-0.377166748,1,0,0,2.020568848,-0.377166748,1,0,0,1,47,207,136,1,,,,,,,,
,,,,,,,,,,,,,FF,,,,,,,,1.0172,,,,,,,,,,,,,,,,,,,,,,6100aef9d0f776c296aa08b5,61036f673946c5585509af31,2021-07-29_22h19.00.632,Simcolourproject_2stim_asymm_v5,2020.2.10,MacIntel,60,61025ae37ef11b136ea224fe,,,,,,,,,3439,-81.4029541,-50.38027954,1,0,0,response5disk,,2,-21.59057617,-4.217224121,1,0,0,rectangle,-21.59057617,-4.217224121,1,0,0,-21.59057617,-4.217224121,1,0,0,1,48,208,15,1,,,,,,,,
,,,,,,,,,,,,,FF,,,,,,,,1.2166,,,,,,,,,,,,,,,,,,,,,,6100aef9d0f776c296aa08b5,61036f673946c5585509af31,2021-07-29_22h19.00.632,Simcolourproject_2stim_asymm_v5,2020.2.10,MacIntel,60,61025ae37ef11b136ea224fe,,,,,,,,,1512,38.46972656,76.35720825,1,0,0,response1disk,,7,5.60144043,-0.21685791,1,0,0,rectangle,5.60144043,-0.21685791,1,0,0,5.60144043,-0.21685791,1,0,0,1,49,209,32,1,,,,,,,,
,,,,,,,,,,,,,FF,,,,,,,,1.1835,,,,,,,,,,,,,,,,,,,,,,6100aef9d0f776c296aa08b5,61036f673946c5585509af31,2021-07-29_22h19.00.632,Simcolourproject_2stim_asymm_v5,2020.2.10,MacIntel,60,61025ae37ef11b136ea224fe,,,,,,,,,2069,42.62890625,-60.38943481,1,0,0,response3disk,,4,14.64892578,-0.823944092,1,0,0,rectangle,14.64892578,-0.823944092,1,0,0,14.64892578,-0.823944092,1,0,0,1,50,210,45,1,,,,,,,,
,,,,,,,,,,,,,FF,,,,,,,,1.0714,,,,,,,,,,,,,,,,,,,,,,6100aef9d0f776c296aa08b5,61036f673946c5585509af31,2021-07-29_22h19.00.632,Simcolourproject_2stim_asymm_v5,2020.2.10,MacIntel,60,61025ae37ef11b136ea224fe,,,,,,,,,2924,73.23120117,-29.80862427,1,0,0,response3disk,,5,18.44116211,0.857208252,1,0,0,rectangle,18.44116211,0.857208252,1,0,0,18.44116211,0.857208252,1,0,0,1,51,211,64,1,,,,,,,,
,,,,,,,,,,,,,FF,,,,,,,,1.4179,,,,,,,,,,,,,,,,,,,,,,6100aef9d0f776c296aa08b5,61036f673946c5585509af31,2021-07-29_22h19.00.632,Simcolourproject_2stim_asymm_v5,2020.2.10,MacIntel,60,61025ae37ef11b136ea224fe,,,,,,,,,2645,68.91766357,40.4614563,1,0,0,response1disk,,6,14.33349609,-0.762084961,1,0,0,rectangle,14.33349609,-0.762084961,1,0,0,14.33349609,-0.762084961,1,0,0,1,52,212,24,1,,,,,,,,
,,,,,,,,,,,,,FF,,,,,,,,1.1164,,,,,,,,,,,,,,,,,,,,,,6100aef9d0f776c296aa08b5,61036f673946c5585509af31,2021-07-29_22h19.00.632,Simcolourproject_2stim_asymm_v5,2020.2.10,MacIntel,60,61025ae37ef11b136ea224fe,,,,,,,,,1907,-26.31665039,-63.26922607,1,0,0,response5disk,,3,1.467712402,9.189239502,1,0,0,rectangle,1.467712402,9.189239502,1,0,0,1.467712402,9.189239502,1,0,0,1,53,213,16,1,,,,,,,,
,,,,,,,,,,,,,FF,,,,,,,,1.4988,,,,,,,,,,,,,,,,,,,,,,6100aef9d0f776c296aa08b5,61036f673946c5585509af31,2021-07-29_22h19.00.632,Simcolourproject_2stim_asymm_v5,2020.2.10,MacIntel,60,61025ae37ef11b136ea224fe,,,,,,,,,3593,-23.00756836,-30.91003418,1,0,0,response5disk,,3,-23.00756836,1.186004639,1,0,0,rectangle,-23.00756836,1.186004639,1,0,0,-23.00756836,1.186004639,1,0,0,1,54,214,138,1,,,,,,,,
,,,,,,,,,,,,,FF,,,,,,,,3.0989,,,,,,,,,,,,,,,,,,,,,,6100aef9d0f776c296aa08b5,61036f673946c5585509af31,2021-07-29_22h19.00.632,Simcolourproject_2stim_asymm_v5,2020.2.10,MacIntel,60,61025ae37ef11b136ea224fe,,,,,,,,,2085,-34.89849854,-73.34942627,1,0,0,response5disk,,3,-21.1809082,-8.232574463,1,0,0,rectangle,-21.1809082,-8.232574463,1,0,0,-21.1809082,-8.232574463,1,0,0,1,55,215,38,1,,,,,,,,
,,,,,,,,,,,,,FF,,,,,,,,1.4669,,,,,,,,,,,,,,,,,,,,,,6100aef9d0f776c296aa08b5,61036f673946c5585509af31,2021-07-29_22h19.00.632,Simcolourproject_2stim_asymm_v5,2020.2.10,MacIntel,60,61025ae37ef11b136ea224fe,,,,,,,,,2467,43.96600342,-60.57104492,1,0,0,response3disk,,4,13.63208008,-3.498626709,1,0,0,rectangle,13.63208008,-3.498626709,1,0,0,13.63208008,-3.498626709,1,0,0,1,56,216,154,1,,,,,,,,
,,,,,,,,,,,,,FF,,,,,,,,2.7682,,,,,,,,,,,,,,,,,,,,,,6100aef9d0f776c296aa08b5,61036f673946c5585509af31,2021-07-29_22h19.00.632,Simcolourproject_2stim_asymm_v5,2020.2.10,MacIntel,60,61025ae37ef11b136ea224fe,,,,,,,,,3756,75.1618042,28.89822388,1,0,0,response1disk,,6,-7.68371582,-5.214172363,1,0,0,rectangle,-7.68371582,-5.214172363,1,0,0,-7.68371582,-5.214172363,1,0,0,1,57,217,62,1,,,,,,,,
,,,,,,,,,,,,,FF,,,,,,,,2.1835,,,,,,,,,,,,,,,,,,,,,,6100aef9d0f776c296aa08b5,61036f673946c5585509af31,2021-07-29_22h19.00.632,Simcolourproject_2stim_asymm_v5,2020.2.10,MacIntel,60,61025ae37ef11b136ea224fe,,,,,,,,,514,35.52264404,116.792572,1,0,0,response1disk,,7,11.57879639,11.85266113,1,0,0,rectangle,11.57879639,11.85266113,1,0,0,11.57879639,11.85266113,1,0,0,1,58,218,146,1,,,,,,,,
,,,,,,,,,,,,,FF,,,,,,,,1.8,,,,,,,,,,,,,,,,,,,,,,6100aef9d0f776c296aa08b5,61036f673946c5585509af31,2021-07-29_22h19.00.632,Simcolourproject_2stim_asymm_v5,2020.2.10,MacIntel,60,61025ae37ef11b136ea224fe,,,,,,,,,1350,92.94415283,-34.68927002,1,0,0,response3disk,,5,11.49371338,-0.679138184,1,0,0,rectangle,11.49371338,-0.679138184,1,0,0,11.49371338,-0.679138184,1,0,0,1,59,219,126,1,,,,,,,,
,,,,,,,,,,,,,FF,,,,,,,,3.3996,,,,,,,,,,,,,,,,,,,,,,6100aef9d0f776c296aa08b5,61036f673946c5585509af31,2021-07-29_22h19.00.632,Simcolourproject_2stim_asymm_v5,2020.2.10,MacIntel,60,61025ae37ef11b136ea224fe,,,,,,,,,1444,27.40039063,-93.84777832,1,0,0,response3disk,,4,0.404907227,-7.955078125,1,0,0,rectangle,0.404907227,-7.955078125,1,0,0,0.404907227,-7.955078125,1,0,0,1,60,220,132,1,,,,,,,,
,,,,,,,,,,,,,FF,,,,,,,,0.8832,,,,,,,,,,,,,,,,,,,,,,6100aef9d0f776c296aa08b5,61036f673946c5585509af31,2021-07-29_22h19.00.632,Simcolourproject_2stim_asymm_v5,2020.2.10,MacIntel,60,61025ae37ef11b136ea224fe,,,,,,,,,3150,-68.33825684,-29.61065674,1,0,0,response5disk,,2,-26.31756592,-10.22042847,1,0,0,rectangle,-26.31756592,-10.22042847,1,0,0,-26.31756592,-10.22042847,1,0,0,1,61,221,41,1,,,,,,,,
,,,,,,,,,,,,,FF,,,,,,,,3.3346,,,,,,,,,,,,,,,,,,,,,,6100aef9d0f776c296aa08b5,61036f673946c5585509af31,2021-07-29_22h19.00.632,Simcolourproject_2stim_asymm_v5,2020.2.10,MacIntel,60,61025ae37ef11b136ea224fe,,,,,,,,,558,55.97467041,-81.6270752,1,0,0,response3disk,,4,11.52301025,3.762207031,1,0,0,rectangle,11.52301025,3.762207031,1,0,0,11.52301025,3.762207031,1,0,0,1,62,222,87,1,,,,,,,,
,,,,,,,,,,,,,FF,,,,,,,,1.8651,,,,,,,,,,,,,,,,,,,,,,6100aef9d0f776c296aa08b5,61036f673946c5585509af31,2021-07-29_22h19.00.632,Simcolourproject_2stim_asymm_v5,2020.2.10,MacIntel,60,61025ae37ef11b136ea224fe,,,,,,,,,1576,78.80200195,-39.59170532,1,0,0,response3disk,,5,7.492248535,-9.453308105,1,0,0,rectangle,7.492248535,-9.453308105,1,0,0,7.492248535,-9.453308105,1,0,0,1,63,223,98,1,,,,,,,,
,,,,,,,,,,,,,FF,,,,,,,,1.2667,,,,,,,,,,,,,,,,,,,,,,6100aef9d0f776c296aa08b5,61036f673946c5585509af31,2021-07-29_22h19.00.632,Simcolourproject_2stim_asymm_v5,2020.2.10,MacIntel,60,61025ae37ef11b136ea224fe,,,,,,,,,278,-70.9196167,30.43746948,1,0,0,response7disk,,1,-4.084411621,-5.375457764,1,0,0,rectangle,-4.084411621,-5.375457764,1,0,0,-4.084411621,-5.375457764,1,0,0,1,64,224,35,1,,,,,,,,
,,,,,,,,,,,,,FF,,,,,,,,1.2339,,,,,,,,,,,,,,,,,,,,,,6100aef9d0f776c296aa08b5,61036f673946c5585509af31,2021-07-29_22h19.00.632,Simcolourproject_2stim_asymm_v5,2020.2.10,MacIntel,60,61025ae37ef11b136ea224fe,,,,,,,,,1388,-31.77911377,-64.24157715,1,0,0,response5disk,,3,-9.903259277,-5.481994629,1,0,0,rectangle,-9.903259277,-5.481994629,1,0,0,-9.903259277,-5.481994629,1,0,0,1,65,225,74,1,,,,,,,,
,,,,,,,,,,,,,FF,,,,,,,,1.9341,,,,,,,,,,,,,,,,,,,,,,6100aef9d0f776c296aa08b5,61036f673946c5585509af31,2021-07-29_22h19.00.632,Simcolourproject_2stim_asymm_v5,2020.2.10,MacIntel,60,61025ae37ef11b136ea224fe,,,,,,,,,1360,35.84069824,64.0788269,1,0,0,response1disk,,7,-1.515441895,-6.140289307,1,0,0,rectangle,-1.515441895,-6.140289307,1,0,0,-1.515441895,-6.140289307,1,0,0,1,66,226,102,1,,,,,,,,
,,,,,,,,,,,,,FF,,,,,,,,3.1494,,,,,,,,,,,,,,,,,,,,,,6100aef9d0f776c296aa08b5,61036f673946c5585509af31,2021-07-29_22h19.00.632,Simcolourproject_2stim_asymm_v5,2020.2.10,MacIntel,60,61025ae37ef11b136ea224fe,,,,,,,,,853,26.69384766,-47.32592773,1,0,0,response3disk,,4,16.0390625,-8.67477417,1,0,0,rectangle,16.0390625,-8.67477417,1,0,0,16.0390625,-8.67477417,1,0,0,1,67,227,8,1,,,,,,,,
,,,,,,,,,,,,,FF,,,,,,,,1.917,,,,,,,,,,,,,,,,,,,,,,6100aef9d0f776c296aa08b5,61036f673946c5585509af31,2021-07-29_22h19.00.632,Simcolourproject_2stim_asymm_v5,2020.2.10,MacIntel,60,61025ae37ef11b136ea224fe,,,,,,,,,1092,37.08422852,-60.69863892,1,0,0,response3disk,,4,18.2467041,-7.890136719,1,0,0,rectangle,18.2467041,-7.890136719,1,0,0,18.2467041,-7.890136719,1,0,0,1,68,228,42,1,,,,,,,,
,,,,,,,,,,,,,FF,,,,,,,,0.8843,,,,,,,,,,,,,,,,,,,,,,6100aef9d0f776c296aa08b5,61036f673946c5585509af31,2021-07-29_22h19.00.632,Simcolourproject_2stim_asymm_v5,2020.2.10,MacIntel,60,61025ae37ef11b136ea224fe,,,,,,,,,2709,43.34020996,63.21426392,1,0,0,response1disk,,7,15.56072998,-6.791595459,1,0,0,rectangle,15.56072998,-6.791595459,1,0,0,15.56072998,-6.791595459,1,0,0,1,69,229,2,1,,,,,,,,
,,,,,,,,,,,,,FF,,,,,,,,1.1174,,,,,,,,,,,,,,,,,,,,,,6100aef9d0f776c296aa08b5,61036f673946c5585509af31,2021-07-29_22h19.00.632,Simcolourproject_2stim_asymm_v5,2020.2.10,MacIntel,60,61025ae37ef11b136ea224fe,,,,,,,,,2876,-19.58392334,-54.29620361,1,0,0,response5disk,,3,-0.366394043,1.415100098,1,0,0,rectangle,-0.366394043,1.415100098,1,0,0,-0.366394043,1.415100098,1,0,0,1,70,230,3,1,,,,,,,,
,,,,,,,,,,,,,FF,,,,,,,,2.1999,,,,,,,,,,,,,,,,,,,,,,6100aef9d0f776c296aa08b5,61036f673946c5585509af31,2021-07-29_22h19.00.632,Simcolourproject_2stim_asymm_v5,2020.2.10,MacIntel,60,61025ae37ef11b136ea224fe,,,,,,,,,156,59.0970459,-34.44107056,1,0,0,response3disk,,5,22.02587891,-9.221466064,1,0,0,rectangle,22.02587891,-9.221466064,1,0,0,22.02587891,-9.221466064,1,0,0,1,71,231,115,1,,,,,,,,
,,,,,,,,,,,,,FF,,,,,,,,1.5512,,,,,,,,,,,,,,,,,,,,,,6100aef9d0f776c296aa08b5,61036f673946c5585509af31,2021-07-29_22h19.00.632,Simcolourproject_2stim_asymm_v5,2020.2.10,MacIntel,60,61025ae37ef11b136ea224fe,,,,,,,,,2572,73.10400391,25.63244629,1,0,0,response1disk,,6,9.685852051,4.952850342,1,0,0,rectangle,9.685852051,4.952850342,1,0,0,9.685852051,4.952850342,1,0,0,1,72,232,143,1,,,,,,,,
,,,,,,,,,,,,,FF,,,,,,,,1.4874,,,,,,,,,,,,,,,,,,,,,,6100aef9d0f776c296aa08b5,61036f673946c5585509af31,2021-07-29_22h19.00.632,Simcolourproject_2stim_asymm_v5,2020.2.10,MacIntel,60,61025ae37ef11b136ea224fe,,,,,,,,,2099,-38.22076416,66.90524292,1,0,0,response7disk,,0,-7.808349609,12.39489746,1,0,0,rectangle,-7.808349609,12.39489746,1,0,0,-7.808349609,12.39489746,1,0,0,1,73,233,79,1,,,,,,,,
,,,,,,,,,,,,,FF,,,,,,,,1.1497,,,,,,,,,,,,,,,,,,,,,,6100aef9d0f776c296aa08b5,61036f673946c5585509af31,2021-07-29_22h19.00.632,Simcolourproject_2stim_asymm_v5,2020.2.10,MacIntel,60,61025ae37ef11b136ea224fe,,,,,,,,,370,-53.64251709,-28.73617554,1,0,0,response5disk,,2,12.46112061,8.679199219,1,0,0,rectangle,12.46112061,8.679199219,1,0,0,12.46112061,8.679199219,1,0,0,1,74,234,107,1,,,,,,,,
,,,,,,,,,,,,,FF,,,,,,,,1.5666,,,,,,,,,,,,,,,,,,,,,,6100aef9d0f776c296aa08b5,61036f673946c5585509af31,2021-07-29_22h19.00.632,Simcolourproject_2stim_asymm_v5,2020.2.10,MacIntel,60,61025ae37ef11b136ea224fe,,,,,,,,,3939,-50.61090088,-30.18777466,1,0,0,response5disk,,2,-28.55871582,-11.38430786,1,0,0,rectangle,-28.55871582,-11.38430786,1,0,0,-28.55871582,-11.38430786,1,0,0,1,75,235,5,1,,,,,,,,
,,,,,,,,,,,,,FF,,,,,,,,1.117,,,,,,,,,,,,,,,,,,,,,,6100aef9d0f776c296aa08b5,61036f673946c5585509af31,2021-07-29_22h19.00.632,Simcolourproject_2stim_asymm_v5,2020.2.10,MacIntel,60,61025ae37ef11b136ea224fe,,,,,,,,,1187,-28.55871582,-90.29492188,1,0,0,response5disk,,3,-13.65777588,-3.117889404,1,0,0,rectangle,-13.65777588,-3.117889404,1,0,0,-13.65777588,-3.117889404,1,0,0,1,76,236,149,1,,,,,,,,
,,,,,,,,,,,,,FF,,,,,,,,4.3998,,,,,,,,,,,,,,,,,,,,,,6100aef9d0f776c296aa08b5,61036f673946c5585509af31,2021-07-29_22h19.00.632,Simcolourproject_2stim_asymm_v5,2020.2.10,MacIntel,60,61025ae37ef11b136ea224fe,,,,,,,,,696,43.72833252,-70.95056152,1,0,0,response3disk,,4,19.35644531,-12.23916626,1,0,0,rectangle,19.35644531,-12.23916626,1,0,0,19.35644531,-12.23916626,1,0,0,1,77,237,106,1,,,,,,,,
,,,,,,,,,,,,,FF,,,,,,,,1.3017,,,,,,,,,,,,,,,,,,,,,,6100aef9d0f776c296aa08b5,61036f673946c5585509af31,2021-07-29_22h19.00.632,Simcolourproject_2stim_asymm_v5,2020.2.10,MacIntel,60,61025ae37ef11b136ea224fe,,,,,,,,,2185,77.3684082,43.55639648,1,0,0,response1disk,,6,18.00866699,1.976013184,1,0,0,rectangle,18.00866699,1.976013184,1,0,0,18.00866699,1.976013184,1,0,0,1,78,238,66,1,,,,,,,,
,,,,,,,,,,,,,FF,,,,,,,,4.7162,,,,,,,,,,,,,,,,,,,,,,6100aef9d0f776c296aa08b5,61036f673946c5585509af31,2021-07-29_22h19.00.632,Simcolourproject_2stim_asymm_v5,2020.2.10,MacIntel,60,61025ae37ef11b136ea224fe,,,,,,,,,1939,88.39215088,-24.66137695,1,0,0,response3disk,,5,16.01220703,3.026397705,1,0,0,rectangle,16.01220703,3.026397705,1,0,0,16.01220703,3.026397705,1,0,0,1,79,239,44,1,,,,,,,,
,,,,,,,,,,,,,FF,,,,,,,,1.2504,,,,,,,,,,,,,,,,,,,,,,6100aef9d0f776c296aa08b5,61036f673946c5585509af31,2021-07-29_22h19.00.632,Simcolourproject_2stim_asymm_v5,2020.2.10,MacIntel,60,61025ae37ef11b136ea224fe,,,,,,,,,1144,-105.248291,-50.11853027,1,0,0,response5disk,,2,-17.3348999,3.646179199,1,0,0,rectangle,-17.3348999,3.646179199,1,0,0,-17.3348999,3.646179199,1,0,0,1,80,240,0,1,,,,,,,,
